timestamp_ms,ax,ay,az,gx,gy,gz
0,-3.8702,0.3826,0.2036,-1148.19,-905.52,-280.94
10,-3.8701,0.3517,0.2379,976.81,-1936.77,-374.63
20,-3.8699,0.3043,0.2747,1023.68,-1546.20,687.93
30,-3.8698,0.2423,0.2943,-1038.82,-843.20,469.24
40,-3.8698,0.1709,0.2781,-976.32,1672.30,1781.80
50,-3.8698,0.0951,0.2305,1883.06,-405.94,609.86
60,-3.8699,0.0300,0.1771,179.93,1500.18,1219.18
70,-3.8700,0.0011,0.1460,-148.19,-1328.12,1797.18
80,-3.8700,0.0171,0.1552,148.68,-1312.50,1218.99
90,-3.8700,0.0670,0.1903,-1804.44,-140.62,-62.26
100,-3.8698,0.1340,0.2292,586.18,359.50,750.37
110,-3.8696,0.2042,0.2705,1164.31,1343.99,-1249.57
120,-3.8694,0.2734,0.3135,-1851.32,-1374.63,1203.61
130,-3.8693,0.3354,0.3501,-991.94,125.49,-405.64
140,-3.8690,0.3794,0.3739,-1054.44,813.11,1188.17
150,-3.8689,0.3992,0.3831,570.56,-139.89,266.30
160,-3.8689,0.4008,0.3738,-898.19,1031.98,360.11
170,-3.8690,0.3986,0.3463,-695.07,-155.52,-1655.58
180,-3.8691,0.3970,0.3146,-976.32,328.86,-1343.08
190,-3.8693,0.3950,0.2941,-1179.44,266.36,-1546.26
200,-3.8694,0.3929,0.2878,-1429.44,1641.36,-1499.45
210,-3.8695,0.3922,0.2905,-1695.07,844.48,-405.70
220,-3.8695,0.3870,0.2981,-1788.82,1188.23,-1686.95
230,-3.8695,0.3646,0.3148,1539.31,-1843.02,1953.67
240,-3.8695,0.3234,0.3452,-1320.07,297.55,1844.36
250,-3.8695,0.2720,0.3778,1398.68,188.11,-1999.33
260,-3.8695,0.2181,0.3947,-1179.44,359.86,-1968.02
270,-3.8695,0.1641,0.3849,-70.07,-1484.01,953.86
280,-3.8696,0.1107,0.3535,1008.06,1265.93,-1905.52
290,-3.8698,0.0576,0.3168,-1820.07,1250.18,1953.80
300,-3.8699,0.0048,0.2894,-616.94,546.94,-1702.51
310,-3.8699,-0.0426,0.2776,617.43,1046.88,0.55
320,-3.8700,-0.0763,0.2775,-1445.07,-453.25,-1437.01
330,-3.8700,-0.0911,0.2852,-1757.57,-468.93,1828.61
340,-3.8700,-0.0897,0.2948,351.81,515.44,1531.80
350,-3.8700,-0.0830,0.3035,523.68,1749.82,1281.80
360,-3.8700,-0.0776,0.3182,1383.06,-1140.81,1563.05
370,-3.8700,-0.0654,0.3342,-1929.44,749.82,-1452.51
380,-3.8700,-0.0386,0.3394,-366.94,-1203.31,-686.89
390,-3.8700,-0.0050,0.3301,-929.44,-547.00,-1593.14
400,-3.8701,0.0177,0.3116,-632.57,-1734.44,-671.26
410,-3.8702,0.0159,0.2909,-1726.32,-109.38,-1171.33
420,-3.8704,-0.0101,0.2726,-1960.69,1234.38,-1952.58
430,-3.8705,-0.0461,0.2607,-1288.82,-1093.81,-1937.01
440,-3.8706,-0.0770,0.2509,-1898.19,1390.50,-687.01
450,-3.8706,-0.1005,0.2367,-1851.32,124.82,1047.36
460,-3.8707,-0.1193,0.2181,-851.32,-1687.74,-1687.07
470,-3.8708,-0.1343,0.2002,742.43,-62.74,-1140.26
480,-3.8710,-0.1428,0.1866,-1179.44,1640.32,-1202.76
490,-3.8711,-0.1381,0.1750,1726.81,-94.06,-1530.94
500,-3.8712,-0.1156,0.1573,-1663.82,-1578.43,1906.56
510,-3.8713,-0.0813,0.1293,1211.18,156.01,1000.31
520,-3.8716,-0.0454,0.0983,1601.81,562.32,-265.38
530,-3.8717,-0.0116,0.0723,-1804.44,593.63,-1499.82
540,-3.8718,0.0200,0.0588,-1476.32,1265.56,-1187.38
550,-3.8718,0.0414,0.0746,-1429.44,-468.75,-1874.94
560,-3.8717,0.0402,0.1262,1304.93,1546.94,390.75
570,-3.8716,0.0220,0.1781,1148.68,156.31,1390.87
580,-3.8715,0.0009,0.1832,-1179.44,-1203.12,-843.44
590,-3.8713,-0.0219,0.1418,117.43,-546.88,1937.81
600,-3.8715,-0.0497,0.0835,1211.18,-1828.19,-249.76
610,-3.8716,-0.0791,0.0300,1648.68,-1297.00,1593.87
620,-3.8718,-0.1078,-0.0083,1883.06,-140.81,-1421.88
630,-3.8719,-0.1415,-0.0305,-1788.82,-1047.12,718.69
640,-3.8721,-0.1827,-0.0389,1898.68,109.07,406.19
650,-3.8722,-0.2222,-0.0371,617.43,-969.12,1734.25
660,-3.8722,-0.2452,-0.0326,-429.44,-734.86,828.00
670,-3.8722,-0.2490,-0.0305,617.43,-156.74,890.50
680,-3.8722,-0.2415,-0.0328,133.06,108.89,718.69
690,-3.8723,-0.2338,-0.0453,1101.81,-187.99,-218.87
700,-3.8723,-0.2301,-0.0728,-1913.82,-1781.74,1406.13
710,-3.8724,-0.2244,-0.1080,-1445.07,-1297.36,1109.19
720,-3.8727,-0.2144,-0.1429,-710.69,-1812.99,-390.87
730,-3.8728,-0.2035,-0.1740,570.56,1718.32,1968.44
740,-3.8729,-0.1958,-0.1943,1961.18,1749.57,1265.26
750,-3.8730,-0.1908,-0.2034,-1054.44,-859.80,-1328.55
760,-3.8730,-0.1852,-0.2087,-413.82,1983.95,-1750.43
770,-3.8730,-0.1788,-0.2164,304.93,1296.51,-1250.43
780,-3.8730,-0.1719,-0.2297,1117.43,312.13,-1016.05
790,-3.8730,-0.1594,-0.2495,-1991.94,-1390.99,-1469.24
800,-3.8730,-0.1381,-0.2700,-398.19,77.76,1952.64
810,-3.8730,-0.1113,-0.2799,-1663.82,1452.82,-1734.92
820,-3.8730,-0.0862,-0.2754,1758.06,187.26,-47.42
830,-3.8729,-0.0643,-0.2686,976.81,765.44,-1453.67
840,-3.8728,-0.0466,-0.2671,-226.32,1640.44,780.70
850,-3.8728,-0.0377,-0.2671,-1960.69,1828.00,1796.33
860,-3.8728,-0.0420,-0.2646,-820.07,1828.00,1765.08
870,-3.8728,-0.0555,-0.2653,-1366.94,-1859.50,1311.95
880,-3.8728,-0.0682,-0.2747,898.68,-1937.62,515.08
890,-3.8729,-0.0752,-0.2909,-726.32,859.19,-625.55
900,-3.8729,-0.0774,-0.3092,-1616.94,-1218.93,1827.51
910,-3.8729,-0.0756,-0.3259,-1898.19,437.32,140.01
920,-3.8730,-0.0665,-0.3372,-1663.82,-1703.31,-1031.92
930,-3.8730,-0.0520,-0.3380,-507.57,859.19,-1969.42
940,-3.8730,-0.0378,-0.3284,1351.81,749.88,624.33
950,-3.8732,-0.0231,-0.3204,-835.69,1984.25,-1016.30
960,-3.8732,-0.0024,-0.3268,1054.93,-1000.06,1780.58
970,-3.8732,0.0244,-0.3434,-304.44,-1812.56,280.58
980,-3.8733,0.0497,-0.3589,-866.94,46.88,1921.20
990,-3.8734,0.0656,-0.3689,-1632.57,-1937.44,-531.98
1000,-3.8734,0.0710,-0.3745,398.68,781.37,1811.77
1010,-3.8734,0.0724,-0.3726,1101.81,62.62,-1797.61
1020,-3.8733,0.0701,-0.3583,1273.68,312.62,952.39
1030,-3.8732,0.0620,-0.3376,976.81,-1859.25,1686.77
1040,-3.8730,0.0513,-0.3193,-54.44,781.31,-563.17
1050,-3.8728,0.0410,-0.3098,-1429.44,-874.94,421.20
1060,-3.8728,0.0349,-0.3129,1258.06,343.81,-63.11
1070,-3.8727,0.0334,-0.3258,476.81,-46.81,1827.45
1080,-3.8727,0.0320,-0.3408,289.31,-1703.06,-1703.80
1090,-3.8727,0.0262,-0.3501,101.81,375.06,-1860.05
1100,-3.8727,0.0139,-0.3480,-632.57,-812.50,-1797.61
1110,-3.8727,-0.0021,-0.3367,1789.31,-546.88,-813.23
1120,-3.8726,-0.0129,-0.3268,-257.57,921.81,1468.08
1130,-3.8724,-0.0121,-0.3241,-1648.19,-1812.56,108.70
1140,-3.8724,0.0029,-0.3241,-1538.82,-1468.81,-1641.30
1150,-3.8723,0.0262,-0.3127,383.06,-1484.38,702.45
1160,-3.8723,0.0481,-0.2877,-632.57,-31.25,-1141.30
1170,-3.8722,0.0676,-0.2584,-1835.69,-828.06,749.39
1180,-3.8722,0.0914,-0.2251,664.31,-1078.00,-1266.17
1190,-3.8721,0.1309,-0.1934,-288.82,-812.38,546.39
1200,-3.8721,0.1891,-0.1755,758.06,-749.76,1468.32
1210,-3.8721,0.2518,-0.1682,211.18,1531.62,1249.63
1220,-3.8722,0.3004,-0.1649,242.43,-1530.76,-656.62
1230,-3.8722,0.3278,-0.1744,-1538.82,-1108.83,390.26
1240,-3.8723,0.3347,-0.1869,1961.18,1672.49,-1812.87
1250,-3.8723,0.3201,-0.1886,-1148.19,78.74,765.26
1260,-3.8723,0.2917,-0.1874,976.81,-140.01,218.32
1270,-3.8723,0.2706,-0.1882,1351.81,16.17,1062.13
1280,-3.8723,0.2725,-0.1923,-1351.32,-93.26,-984.80
1290,-3.8722,0.2977,-0.1952,-1116.94,-608.89,1765.20
1300,-3.8721,0.3351,-0.1931,-1882.57,-983.83,1187.07
1310,-3.8719,0.3700,-0.1830,-1101.32,-718.14,1874.57
1320,-3.8718,0.3918,-0.1656,-632.57,578.80,-375.37
1330,-3.8716,0.3959,-0.1472,-1835.69,-1202.39,905.88
1340,-3.8715,0.3860,-0.1343,-1320.07,1156.98,905.94
1350,-3.8715,0.3684,-0.1329,1414.31,-1186.77,-265.93
1360,-3.8713,0.3495,-0.1437,-835.69,-1014.95,1530.94
1370,-3.8713,0.3396,-0.1606,742.43,1610.05,-1515.93
1380,-3.8713,0.3428,-0.1669,-523.19,-561.89,-406.62
1390,-3.8712,0.3518,-0.1495,-116.94,-1358.76,-1578.49
1400,-3.8711,0.3638,-0.1124,1039.31,860.05,-406.56
1410,-3.8708,0.3781,-0.0702,-1429.44,1610.05,1374.76
1420,-3.8707,0.3925,-0.0454,398.68,-983.64,1531.07
1430,-3.8707,0.4077,-0.0531,-1757.57,-1811.77,-1312.62
1440,-3.8707,0.4249,-0.0851,195.56,1203.92,437.38
1450,-3.8708,0.4382,-0.1230,-1601.32,1110.17,109.19
1460,-3.8710,0.4406,-0.1503,101.81,250.85,156.01
1470,-3.8711,0.4302,-0.1431,398.68,766.48,-1281.56
1480,-3.8710,0.4137,-0.0985,-929.44,1688.29,155.94
1490,-3.8710,0.4082,-0.0535,961.18,-608.58,-1406.49
1500,-3.8708,0.4230,-0.0342,258.06,1157.04,421.75
1510,-3.8708,0.4507,-0.0227,-1851.32,-374.21,1453.00
1520,-3.8708,0.4790,0.0028,1695.56,1094.60,1859.31
1530,-3.8708,0.5007,0.0432,1320.56,360.29,-1484.38
1540,-3.8707,0.5183,0.0881,101.81,1532.23,203.19
1550,-3.8707,0.5317,0.1248,-1648.19,-717.77,-1374.88
1560,-3.8706,0.5327,0.1423,70.56,-30.21,578.31
1570,-3.8706,0.5131,0.1361,195.56,-1780.21,1359.62
1580,-3.8706,0.4735,0.1229,1679.93,1422.85,-1749.76
1590,-3.8705,0.4232,0.1222,617.43,-264.71,156.43
1600,-3.8705,0.3717,0.1368,-1820.07,-358.58,-1171.69
1610,-3.8704,0.3284,0.1643,-413.82,1516.30,-1984.13
1620,-3.8702,0.2983,0.1976,-1960.69,1031.86,719.06
1630,-3.8702,0.2745,0.2247,-1804.44,1297.42,-1421.51
1640,-3.8701,0.2490,0.2383,-851.32,766.11,531.68
1650,-3.8701,0.2239,0.2411,-116.94,-1499.57,-437.07
1660,-3.8700,0.2050,0.2391,664.31,-1140.20,-687.07
1670,-3.8699,0.1969,0.2327,-1757.57,-1390.26,-1233.95
1680,-3.8698,0.2000,0.2195,1211.18,1781.62,1047.30
1690,-3.8698,0.2111,0.2073,1601.81,94.12,1484.80
1700,-3.8698,0.2274,0.2125,-976.32,-1468.38,812.87
1710,-3.8698,0.2528,0.2401,1117.43,-796.45,1031.62
1720,-3.8698,0.2908,0.2761,367.43,-1265.14,-1108.95
1730,-3.8696,0.3369,0.3043,1226.81,-655.70,1156.74
1740,-3.8696,0.3843,0.3142,-866.94,-1046.26,1859.92
1750,-3.8696,0.4253,0.3035,1195.56,219.48,375.61
1760,-3.8698,0.4517,0.2821,-1554.44,-1155.46,-1905.70
1770,-3.8698,0.4618,0.2651,1820.56,110.23,281.80
1780,-3.8699,0.4541,0.2611,-882.57,1938.35,-1280.76
1790,-3.8699,0.4238,0.2679,-1866.94,1422.73,1078.61
1800,-3.8700,0.3762,0.2836,-1741.94,-1702.33,-624.51
1810,-3.8700,0.3290,0.3073,164.31,297.61,1766.17
1820,-3.8700,0.3043,0.3350,-1882.57,-671.26,453.67
1830,-3.8701,0.3182,0.3593,-1038.82,-1124.45,-280.64
1840,-3.8701,0.3718,0.3743,742.43,1984.99,-608.70
1850,-3.8701,0.4480,0.3815,-398.19,-93.08,-1389.95
1860,-3.8701,0.5187,0.3845,1351.81,828.98,844.48
1870,-3.8702,0.5577,0.3823,-1601.32,1219.73,-1546.14
1880,-3.8702,0.5496,0.3757,-601.32,938.54,563.23
1890,-3.8702,0.4916,0.3735,-1648.19,94.79,63.23
1900,-3.8702,0.3947,0.3762,-1070.07,-186.58,1047.55
1910,-3.8702,0.2844,0.3685,-1476.32,156.98,-1108.64
1920,-3.8701,0.1898,0.3480,414.31,-827.58,547.55
1930,-3.8701,0.1252,0.3259,304.93,547.24,1141.30
1940,-3.8701,0.0913,0.3116,39.31,1718.99,1641.24
1950,-3.8701,0.0814,0.3170,-304.44,-109.25,-390.08
1960,-3.8700,0.0842,0.3416,-1570.07,578.25,-1108.76
1970,-3.8699,0.0900,0.3732,-1210.69,-281.13,-1390.01
1980,-3.8698,0.0922,0.4004,-476.32,-234.25,-1811.83
1990,-3.8696,0.0918,0.4180,-195.07,-749.88,1797.61
2000,-3.8695,0.0975,0.4324,-241.94,1500.12,1547.67
2010,-3.8694,0.1188,0.4506,492.43,-656.07,1063.29
2020,-3.8694,0.1490,0.4669,-788.82,1672.06,-358.52
2030,-3.8693,0.1580,0.4730,-913.82,-234.13,750.85
2040,-3.8693,0.1232,0.4664,226.81,547.18,188.42
2050,-3.8694,0.0554,0.4464,-226.32,-296.69,1953.98
2060,-3.8695,-0.0156,0.4236,-898.19,1140.69,-1280.40
2070,-3.8696,-0.0667,0.4114,-1991.94,-1765.69,-874.21
2080,-3.8696,-0.0857,0.4106,-523.19,671.69,688.29
2090,-3.8698,-0.0742,0.4127,1039.31,577.94,-217.96
2100,-3.8698,-0.0448,0.4102,-1491.94,843.57,-967.96
2110,-3.8698,-0.0096,0.4025,-1726.32,515.50,1516.42
2120,-3.8699,0.0255,0.3892,-1226.32,-468.81,-1311.77
2130,-3.8700,0.0580,0.3688,-726.32,1812.50,-968.02
2140,-3.8701,0.0841,0.3428,-570.07,-796.81,-905.58
2150,-3.8702,0.1006,0.3152,-1226.32,-124.88,-999.39
2160,-3.8704,0.1090,0.2928,883.06,343.93,-921.26
2170,-3.8705,0.1069,0.2819,1961.18,1484.56,-421.33
2180,-3.8705,0.0873,0.2836,1695.56,78.31,438.05
2190,-3.8706,0.0544,0.2911,-820.07,297.00,-1890.08
2200,-3.8706,0.0221,0.2971,-1023.19,1265.69,1125.55
2210,-3.8706,-0.0031,0.2980,-1163.82,-1968.75,719.30
2220,-3.8707,-0.0190,0.2893,-382.57,-1843.81,-61.95
2230,-3.8707,-0.0278,0.2700,1570.56,1046.81,-1686.95
2240,-3.8708,-0.0376,0.2416,445.56,-1421.94,-452.64
2250,-3.8708,-0.0541,0.2102,-804.44,-1062.62,47.30
2260,-3.8710,-0.0803,0.1855,1086.18,-1078.25,437.87
2270,-3.8711,-0.1169,0.1696,1726.81,-234.56,953.43
2280,-3.8712,-0.1592,0.1572,1039.31,1718.51,1781.56
2290,-3.8713,-0.1986,0.1437,-366.94,140.26,-905.94
2300,-3.8713,-0.2275,0.1300,-1413.82,-1594.18,875.24
2310,-3.8715,-0.2390,0.1191,-1116.94,655.76,-906.01
2320,-3.8715,-0.2313,0.1105,1414.31,-734.86,1625.18
2330,-3.8715,-0.2126,0.1028,-1601.32,-1844.24,62.68
2340,-3.8716,-0.1935,0.0928,789.31,1171.45,1984.56
2350,-3.8717,-0.1792,0.0795,-757.57,-109.80,-718.63
2360,-3.8717,-0.1710,0.0652,1070.56,-1812.87,78.25
2370,-3.8718,-0.1644,0.0538,-1882.57,359.01,1062.62
2380,-3.8719,-0.1536,0.0465,-1038.82,-1094.12,-671.81
2390,-3.8719,-0.1372,0.0375,351.81,1968.44,-984.31
2400,-3.8719,-0.1205,0.0214,-1554.44,812.19,-953.06
2410,-3.8719,-0.1091,0.0009,586.18,-1250.24,-1468.75
2420,-3.8719,-0.1082,-0.0153,-1960.69,124.76,1421.88
2430,-3.8719,-0.1177,-0.0225,-1835.69,-1937.74,140.56
2440,-3.8721,-0.1306,-0.0261,945.56,1140.38,-984.44
2450,-3.8721,-0.1406,-0.0319,-710.69,671.57,1968.69
2460,-3.8721,-0.1444,-0.0452,-1991.94,-62.81,249.88
2470,-3.8722,-0.1416,-0.0673,1523.68,-1765.93,1593.63
2480,-3.8723,-0.1343,-0.0916,1883.06,-594.06,-1656.43
2490,-3.8724,-0.1239,-0.1096,-1179.44,296.57,-953.31
2500,-3.8724,-0.1121,-0.1189,148.68,1984.13,187.26
2510,-3.8726,-0.1021,-0.1228,1664.31,796.63,1921.63
2520,-3.8726,-0.0940,-0.1201,-1054.44,296.63,359.13
2530,-3.8727,-0.0857,-0.1133,-23.19,640.38,-859.62
2540,-3.8727,-0.0808,-0.1100,1039.31,1515.44,1577.88
2550,-3.8728,-0.0815,-0.1127,1664.31,1937.32,-187.74
2560,-3.8728,-0.0836,-0.1193,1570.56,1593.57,-1515.87
2570,-3.8728,-0.0808,-0.1312,1304.93,749.82,1921.63
2580,-3.8728,-0.0691,-0.1531,1664.31,-781.43,1671.57
2590,-3.8728,-0.0536,-0.1840,-835.69,421.69,843.44
2600,-3.8729,-0.0455,-0.2196,1148.68,468.63,-1125.37
2610,-3.8729,-0.0466,-0.2554,-1820.07,-93.87,1015.14
2620,-3.8729,-0.0520,-0.2844,-1960.69,-672.00,93.20
2630,-3.8730,-0.0664,-0.3046,1351.81,-390.75,-1219.36
2640,-3.8730,-0.0894,-0.3158,-491.94,1031.07,1046.26
2650,-3.8730,-0.1105,-0.3195,570.56,-406.43,124.33
2660,-3.8730,-0.1259,-0.3208,1867.43,-875.24,499.33
2670,-3.8730,-0.1359,-0.3262,-101.32,-1047.18,-1953.80
2680,-3.8729,-0.1393,-0.3396,-1382.57,-1734.68,124.33
2690,-3.8729,-0.1333,-0.3588,-1820.07,546.57,1405.58
2700,-3.8729,-0.1141,-0.3785,-1054.44,-1906.56,1296.14
2710,-3.8729,-0.0830,-0.3915,1398.68,-437.74,171.08
2720,-3.8730,-0.0471,-0.3925,1383.06,1906.07,-1766.42
2730,-3.8730,-0.0055,-0.3884,1976.81,1781.13,30.46
2740,-3.8732,0.0464,-0.3851,-695.07,-1703.19,-1688.29
2750,-3.8732,0.1006,-0.3849,1945.56,-1296.81,1124.21
2760,-3.8732,0.1464,-0.3817,883.06,-1265.44,1014.83
2770,-3.8732,0.1801,-0.3650,-1257.57,-859.13,-1938.29
2780,-3.8730,0.2037,-0.3439,-945.07,1281.56,30.52
2790,-3.8730,0.2249,-0.3307,-1913.82,-15.26,-1078.86
2800,-3.8729,0.2502,-0.3258,789.31,1672.30,1889.95
2810,-3.8729,0.2777,-0.3291,39.31,-1702.64,-78.80
2820,-3.8728,0.2997,-0.3318,-445.07,1875.49,1061.83
2830,-3.8728,0.3065,-0.3275,-1632.57,1531.80,1374.33
2840,-3.8728,0.2947,-0.3284,-757.57,-1921.33,1468.08
2850,-3.8728,0.2660,-0.3345,1726.81,1969.30,-1485.05
2860,-3.8727,0.2214,-0.3297,-1945.07,1187.99,655.58
2870,-3.8727,0.1754,-0.3136,351.81,1797.30,-625.67
2880,-3.8726,0.1501,-0.2944,-1538.82,-140.32,-1672.55
2890,-3.8724,0.1520,-0.2721,-773.19,-1687.26,1171.26
2900,-3.8723,0.1669,-0.2441,-538.82,1172.12,202.58
2910,-3.8723,0.1782,-0.2169,1367.43,750.31,-187.99
2920,-3.8722,0.1774,-0.2007,-1179.44,234.68,-594.18
2930,-3.8721,0.1658,-0.1936,-1288.82,-1687.19,-1781.68
2940,-3.8721,0.1516,-0.1866,1226.81,-780.94,-187.93
2950,-3.8719,0.1415,-0.1740,-585.69,109.62,437.13
2960,-3.8719,0.1345,-0.1542,-1882.57,1734.62,515.26
2970,-3.8719,0.1267,-0.1267,1226.81,265.87,734.07
2980,-3.8719,0.1162,-0.0978,226.81,-218.51,-1797.18
2990,-3.8718,0.1108,-0.0820,-1116.94,-515.44,1874.76
3000,-3.8717,0.1199,-0.0889,-1804.44,1500.18,-1000.18
3010,-3.8716,0.1387,-0.1146,-648.19,625.18,-953.31
3020,-3.8715,0.1522,-0.1488,1758.06,1328.37,77.88
3030,-3.8716,0.1531,-0.1877,-507.57,953.37,1874.69
3040,-3.8717,0.1505,-0.2223,-398.19,-31.01,1687.07
3050,-3.8718,0.1552,-0.2302,-726.32,-452.88,1421.39
3060,-3.8719,0.1722,-0.2053,-132.57,-1468.51,-1469.24
3070,-3.8719,0.2085,-0.1688,-1945.07,1719.06,1343.32
3080,-3.8719,0.2693,-0.1382,-1304.44,-1609.01,1515.26
3090,-3.8719,0.3456,-0.1144,-1523.19,-1687.01,-1437.81
3100,-3.8718,0.4200,-0.1045,242.43,1360.05,827.88
3110,-3.8717,0.4801,-0.1108,1773.68,-1374.21,562.26
3120,-3.8716,0.5249,-0.1174,1461.18,1813.42,421.63
3130,-3.8716,0.5603,-0.1127,-804.44,969.73,-515.87
3140,-3.8715,0.5890,-0.0940,-273.19,1579.16,1718.51
3150,-3.8713,0.6106,-0.0674,-601.32,-30.15,31.01
3160,-3.8713,0.6262,-0.0394,-1835.69,-623.84,-359.56
3170,-3.8711,0.6338,-0.0035,164.31,-1045.65,812.38
3180,-3.8710,0.6255,0.0314,1133.06,-451.90,-1546.94
3190,-3.8708,0.6041,0.0382,70.56,16.85,-484.31
3200,-3.8707,0.5790,0.0116,1336.18,891.78,-343.69
3210,-3.8706,0.5505,-0.0291,-1882.57,1485.47,-1515.62
3220,-3.8705,0.5153,-0.0626,-1523.19,282.29,15.56
3230,-3.8705,0.4678,-0.0776,1961.18,-14.65,1031.07
3240,-3.8705,0.4025,-0.0713,-116.94,-1936.65,-1656.43
3250,-3.8704,0.3270,-0.0522,-476.32,-1124.27,62.32
3260,-3.8704,0.2644,-0.0338,1867.43,1313.11,1437.38
3270,-3.8704,0.2310,-0.0178,1851.81,-327.64,-1781.37
3280,-3.8704,0.2273,-0.0046,1570.56,1719.18,-1281.31
3290,-3.8704,0.2478,-0.0007,1101.81,-593.32,-718.81
3300,-3.8702,0.2854,0.0032,-273.19,-93.32,437.44
3310,-3.8702,0.3312,0.0287,539.31,406.80,-1515.62
3320,-3.8701,0.3774,0.0819,-1601.32,-327.51,1359.38
3330,-3.8700,0.4238,0.1451,320.56,-1514.89,47.00
3340,-3.8700,0.4728,0.1934,-1741.94,-1421.08,1625.24
3350,-3.8700,0.5172,0.2227,523.68,750.92,-1718.38
3360,-3.8700,0.5419,0.2449,-1788.82,500.98,1734.80
3370,-3.8701,0.5380,0.2592,1367.43,-655.21,-530.82
3380,-3.8702,0.5085,0.2609,867.43,1172.91,-187.01
3390,-3.8704,0.4633,0.2529,1101.81,1391.60,-624.51
3400,-3.8705,0.4169,0.2489,-695.07,375.85,-577.64
3410,-3.8705,0.3857,0.2618,1367.43,-139.83,1234.80
3420,-3.8705,0.3862,0.2900,1383.06,1516.36,1422.36
3430,-3.8705,0.4221,0.3251,1445.56,1125.73,-921.33
3440,-3.8704,0.4767,0.3611,-1960.69,1610.17,672.49
3450,-3.8704,0.5287,0.3960,1023.68,-1780.33,1188.17
3460,-3.8705,0.5640,0.4218,-320.07,-1311.52,-218.02
3470,-3.8705,0.5784,0.4236,195.56,1985.47,922.67
3480,-3.8706,0.5763,0.4025,-1960.69,-1780.15,1875.79
3490,-3.8707,0.5615,0.3748,1773.68,-483.28,-968.02
3500,-3.8707,0.5386,0.3594,-116.94,-30.21,1281.92
3510,-3.8707,0.5062,0.3654,945.56,-1998.96,1578.80
3520,-3.8707,0.4629,0.3829,804.93,-1233.40,-327.45
3530,-3.8706,0.4155,0.4020,-741.94,1016.48,-780.52
3540,-3.8705,0.3636,0.4226,1195.56,-546.08,-186.77
3550,-3.8702,0.3026,0.4465,-1445.07,-1905.58,1532.04
3560,-3.8700,0.2336,0.4725,-1257.57,1156.80,1313.35
3570,-3.8698,0.1595,0.4961,1914.31,484.80,-1608.46
3580,-3.8695,0.0914,0.5082,429.93,-499.69,-795.96
3590,-3.8693,0.0414,0.5004,-288.82,1047.00,-1358.40
3600,-3.8691,0.0138,0.4730,1304.93,46.94,-952.15
3610,-3.8691,0.0094,0.4324,1773.68,546.88,-217.83
3620,-3.8691,0.0269,0.3910,1211.18,-656.25,-1639.83
3630,-3.8691,0.0623,0.3726,-554.44,-1953.12,735.11
3640,-3.8691,0.1066,0.3871,-23.19,-312.44,297.55
3650,-3.8691,0.1488,0.4171,1648.68,1547.06,1313.23
3660,-3.8691,0.1826,0.4424,-945.07,1390.87,-1014.83
3670,-3.8690,0.2068,0.4563,-616.94,625.31,282.10
3680,-3.8690,0.2211,0.4562,-1523.19,-1593.38,469.60
3690,-3.8691,0.2228,0.4419,304.93,-1608.95,-436.65
3700,-3.8691,0.2065,0.4294,523.68,562.93,-1405.40
3710,-3.8691,0.1748,0.4302,-1554.44,-1030.88,-1639.83
3720,-3.8691,0.1348,0.4298,-1616.94,-937.19,-1499.21
3730,-3.8691,0.0911,0.4164,1258.06,-984.13,-1780.46
3740,-3.8691,0.0436,0.4059,-335.69,1297.00,813.29
3750,-3.8693,-0.0118,0.4158,1586.18,-46.81,-1718.02
3760,-3.8693,-0.0743,0.4484,-1507.57,1234.31,203.92
3770,-3.8694,-0.1326,0.4863,-1507.57,1406.07,-264.77
3780,-3.8693,-0.1715,0.4967,-960.69,-1734.68,16.54
3790,-3.8694,-0.1842,0.4701,-1945.07,-406.62,-545.96
3800,-3.8694,-0.1749,0.4268,429.93,187.13,188.42
3810,-3.8696,-0.1539,0.3860,1617.43,-1359.74,1453.92
3820,-3.8699,-0.1317,0.3563,304.93,1421.57,1031.98
3830,-3.8701,-0.1143,0.3367,-851.32,1624.69,1219.42
3840,-3.8704,-0.0994,0.3236,1383.06,-890.87,-1015.01
3850,-3.8705,-0.0812,0.3168,-710.69,1437.26,-1968.14
3860,-3.8706,-0.0591,0.3214,1617.43,562.32,-1999.39
3870,-3.8707,-0.0413,0.3425,445.56,1156.13,-921.26
3880,-3.8707,-0.0347,0.3744,-1273.19,-140.75,1781.86
3890,-3.8707,-0.0376,0.4045,-429.44,-62.62,-1702.45
3900,-3.8707,-0.0348,0.4181,-804.44,-203.25,-530.52
3910,-3.8707,-0.0101,0.4016,-445.07,1531.13,-1061.71
3920,-3.8708,0.0305,0.3573,-1288.82,-578.19,-983.64
3930,-3.8710,0.0686,0.3042,-85.69,1734.38,78.80
3940,-3.8713,0.0890,0.2583,789.31,-1062.38,-124.45
3950,-3.8716,0.0863,0.2214,-601.32,1062.62,-62.01
3960,-3.8717,0.0685,0.1886,-945.07,343.87,1437.93
3970,-3.8718,0.0481,0.1599,773.68,140.75,625.37
3980,-3.8719,0.0306,0.1396,-1835.69,468.81,687.81
3990,-3.8721,0.0168,0.1257,-70.07,1875.00,1093.99
4000,-3.8722,0.0054,0.1163,-1835.69,93.75,-1952.88
4010,-3.8723,-0.0061,0.1107,695.56,-1109.38,-327.94
4020,-3.8723,-0.0139,0.1010,-773.19,-1812.56,-1999.82
4030,-3.8723,-0.0145,0.0814,-1773.19,937.44,672.06
4040,-3.8724,-0.0087,0.0547,-1851.32,-1562.56,-781.13
4050,-3.8724,0.0017,0.0237,-1101.32,-984.44,1609.44
4060,-3.8726,0.0122,-0.0115,226.81,-968.75,-125.00
4070,-3.8726,0.0183,-0.0496,1570.56,-1468.75,1812.44
4080,-3.8727,0.0192,-0.0846,-1648.19,1656.25,-265.75
4090,-3.8727,0.0183,-0.1101,-1538.82,1171.88,-1593.93
4100,-3.8727,0.0181,-0.1268,-1648.19,1906.25,1812.26
4110,-3.8727,0.0154,-0.1342,-1679.44,-234.38,-1969.06
4120,-3.8727,0.0095,-0.1281,1976.81,-1171.88,-687.81
4130,-3.8726,0.0037,-0.1199,1226.81,-390.62,984.07
4140,-3.8726,0.0002,-0.1254,476.81,656.25,1687.26
4150,-3.8726,0.0013,-0.1448,39.31,-46.88,702.82
4160,-3.8727,0.0081,-0.1667,179.93,1468.75,-1125.31
4170,-3.8727,0.0189,-0.1844,1039.31,-1343.75,796.51
4180,-3.8728,0.0291,-0.1990,-1570.07,390.62,-1547.24
4190,-3.8728,0.0339,-0.2103,-273.19,-1468.75,108.95
4200,-3.8729,0.0294,-0.2153,351.81,1078.19,-1953.55
4210,-3.8729,0.0129,-0.2141,-226.32,437.50,202.70
4220,-3.8730,-0.0125,-0.2106,1664.31,593.75,-1578.55
4230,-3.8730,-0.0354,-0.2109,-1585.69,1062.44,718.32
4240,-3.8732,-0.0405,-0.2236,-523.19,1015.50,-1156.68
4250,-3.8732,-0.0227,-0.2491,-1179.44,-609.50,640.14
4260,-3.8733,0.0057,-0.2788,1101.81,124.94,-1812.99
4270,-3.8734,0.0323,-0.3064,742.43,312.50,-313.05
4280,-3.8734,0.0502,-0.3284,148.68,781.31,1936.89
4290,-3.8734,0.0526,-0.3403,-1570.07,1968.81,1796.20
4300,-3.8734,0.0411,-0.3384,-1257.57,437.56,-110.05
4310,-3.8733,0.0234,-0.3234,1273.68,687.56,-391.30
4320,-3.8732,0.0059,-0.3032,-991.94,-1390.62,-406.92
4330,-3.8730,-0.0072,-0.2878,758.06,1187.50,-703.74
4340,-3.8729,-0.0133,-0.2778,-913.82,-828.19,-1078.74
4350,-3.8728,-0.0107,-0.2690,-1695.07,453.06,-1828.67
4360,-3.8727,0.0059,-0.2626,-1366.94,1578.06,421.33
4370,-3.8727,0.0404,-0.2627,758.06,-1609.38,1265.08
4380,-3.8727,0.0842,-0.2706,1179.93,-1624.94,921.33
4390,-3.8727,0.1238,-0.2819,-1210.69,1359.50,671.33
4400,-3.8727,0.1525,-0.2883,-148.19,-77.94,1327.51
4410,-3.8727,0.1685,-0.2817,-476.32,-906.01,-813.11
4420,-3.8726,0.1733,-0.2648,1570.56,-62.19,-1547.49
4430,-3.8724,0.1708,-0.2540,-1804.44,-1890.32,-1250.55
4440,-3.8723,0.1661,-0.2544,1867.43,-515.32,-1188.05
4450,-3.8722,0.1683,-0.2540,1273.68,-562.19,1561.95
4460,-3.8722,0.1837,-0.2421,1554.93,-515.32,-859.92
4470,-3.8721,0.2135,-0.2231,-476.32,1015.93,312.01
4480,-3.8721,0.2578,-0.2145,-663.82,-562.13,1233.89
4490,-3.8721,0.3085,-0.2239,1008.06,547.36,1562.07
4500,-3.8721,0.3480,-0.2418,-507.57,-655.70,1155.76
4510,-3.8721,0.3607,-0.2573,554.93,1047.55,155.76
4520,-3.8722,0.3433,-0.2617,-1820.07,-936.83,-578.67
4530,-3.8722,0.3099,-0.2556,-54.44,-1499.39,-453.67
4540,-3.8721,0.2845,-0.2454,-320.07,-718.20,202.58
4550,-3.8721,0.2882,-0.2285,429.93,594.30,1062.01
4560,-3.8721,0.3275,-0.2030,898.68,-1249.45,1921.39
4570,-3.8721,0.3927,-0.1772,1929.93,-1983.76,-1203.55
4580,-3.8721,0.4614,-0.1621,-1726.32,1313.23,-359.74
4590,-3.8721,0.5074,-0.1643,-929.44,-749.15,-359.74
4600,-3.8721,0.5167,-0.1909,961.18,-1030.27,-1828.49
4610,-3.8721,0.4955,-0.2316,-1851.32,-436.52,280.82
4620,-3.8722,0.4575,-0.2561,-570.07,-1639.71,-547.36
4630,-3.8721,0.4193,-0.2507,-1429.44,-780.40,468.20
4640,-3.8721,0.3992,-0.2208,1679.93,-92.96,-125.55
4650,-3.8718,0.4060,-0.1735,-898.19,-264.89,1093.26
4660,-3.8717,0.4326,-0.1276,-23.19,1797.61,-1281.62
4670,-3.8716,0.4661,-0.1053,-616.94,-327.33,-578.43
4680,-3.8715,0.4949,-0.1033,-335.69,-1483.52,-1359.62
4690,-3.8713,0.5095,-0.1064,-648.19,-1217.83,390.38
4700,-3.8713,0.5062,-0.1107,1226.81,-1624.02,937.26
4710,-3.8713,0.4885,-0.1196,804.93,1829.10,359.13
4720,-3.8715,0.4612,-0.1309,-1460.69,688.42,-797.12
4730,-3.8715,0.4279,-0.1345,-960.69,-749.15,-1453.43
4740,-3.8715,0.3962,-0.1235,-1226.32,-1217.96,-328.43
4750,-3.8713,0.3778,-0.0933,-1273.19,188.23,-406.49
4760,-3.8711,0.3762,-0.0450,367.43,63.23,-1656.43
4770,-3.8708,0.3837,0.0077,164.31,-1764.89,-1297.00
4780,-3.8706,0.3967,0.0496,1117.43,985.11,-1796.88
4790,-3.8705,0.4114,0.0752,-1210.69,-1655.52,-796.81
4800,-3.8704,0.4229,0.0846,664.31,1625.79,1843.87
4810,-3.8704,0.4333,0.0792,-1866.94,-1171.08,-953.00
4820,-3.8704,0.4473,0.0640,-523.19,-1858.58,-640.50
4830,-3.8704,0.4648,0.0524,1258.06,188.35,-890.50
4840,-3.8704,0.4827,0.0597,-491.94,-1296.02,-1374.94
4850,-3.8704,0.4934,0.0895,1789.31,-358.46,-1796.81
4860,-3.8704,0.4918,0.1334,-835.69,-545.96,1797.00
4870,-3.8704,0.4832,0.1786,-1038.82,1079.04,1203.37
4880,-3.8705,0.4725,0.2164,1851.81,-1139.71,-390.32
4890,-3.8705,0.4617,0.2419,492.43,-295.96,15.99
4900,-3.8707,0.4547,0.2504,-898.19,-1030.40,-1827.70
4910,-3.8710,0.4624,0.2424,-1788.82,47.73,-1390.14
4920,-3.8712,0.4928,0.2299,-804.44,-967.90,-1171.45
4930,-3.8713,0.5447,0.2318,-913.82,1422.79,1391.05
4940,-3.8713,0.6047,0.2708,1726.81,1672.91,1578.55
4950,-3.8711,0.6403,0.3574,1414.31,-1342.59,609.86
4960,-3.8707,0.6226,0.4714,1961.18,1751.22,250.67
4970,-3.8704,0.5450,0.5740,-304.44,344.91,1516.54
4980,-3.8700,0.4215,0.6306,1773.68,1469.79,-1702.03
4990,-3.8696,0.2821,0.6261,1961.18,719.54,329.35
5000,-3.8695,0.1549,0.5739,117.43,141.17,1063.72
5010,-3.8695,0.0571,0.4996,-163.82,1453.37,719.85
5020,-3.8696,0.0095,0.4185,-679.44,-46.81,1047.79
5030,-3.8698,0.0250,0.3599,1226.81,1562.50,719.54
5040,-3.8699,0.0919,0.3511,-788.82,-1937.50,-1999.33
5050,-3.8699,0.1864,0.3738,-226.32,937.62,781.92
5060,-3.8699,0.2798,0.4041,-132.57,-155.94,1172.55
5070,-3.8699,0.3438,0.4347,-179.44,-280.76,-327.39
5080,-3.8698,0.3684,0.4598,8.06,-358.70,-171.08
5090,-3.8696,0.3574,0.4707,-835.69,-1139.95,-77.27
5100,-3.8695,0.3151,0.4620,1758.06,250.67,1907.17
5110,-3.8695,0.2550,0.4381,336.18,-858.76,1282.10
5120,-3.8696,0.1959,0.4087,648.68,78.61,-858.52
5130,-3.8696,0.1481,0.3922,1086.18,312.87,953.92
5140,-3.8696,0.1161,0.4027,-1038.82,-1796.63,219.48
5150,-3.8696,0.1084,0.4297,-1132.57,-452.94,1985.11
5160,-3.8695,0.1266,0.4508,1883.06,-999.82,1860.17
5170,-3.8694,0.1522,0.4532,211.18,1703.37,1391.48
5180,-3.8694,0.1644,0.4409,-507.57,-1984.13,-1608.52
5190,-3.8694,0.1566,0.4323,1054.93,437.81,1657.10
5200,-3.8694,0.1348,0.4385,54.93,-671.57,1422.67
5210,-3.8694,0.1066,0.4541,1258.06,125.24,-1124.15
5220,-3.8693,0.0768,0.4667,1648.68,-1874.82,1141.48
5230,-3.8693,0.0497,0.4709,1836.18,-265.50,-1467.90
5240,-3.8693,0.0282,0.4673,-1632.57,281.31,-1920.96
5250,-3.8694,0.0126,0.4579,-382.57,-187.50,-139.77
5260,-3.8694,0.0052,0.4484,1617.43,-1390.62,922.73
5270,-3.8695,0.0090,0.4447,679.93,1390.62,-1889.77
5280,-3.8696,0.0195,0.4418,1164.31,921.88,-264.77
5290,-3.8696,0.0297,0.4360,-1491.94,546.88,-1983.52
5300,-3.8698,0.0254,0.4335,-195.07,-187.50,-374.21
5310,-3.8698,0.0039,0.4329,-741.94,-515.62,141.42
5320,-3.8699,-0.0193,0.4282,508.06,-593.75,782.04
5330,-3.8700,-0.0308,0.4188,1539.31,-1171.94,1953.92
5340,-3.8701,-0.0286,0.4077,70.56,1624.94,-280.46
5350,-3.8701,-0.0209,0.3936,351.81,203.06,1360.17
5360,-3.8702,-0.0159,0.3733,1336.18,-1609.44,-1468.02
5370,-3.8704,-0.0157,0.3490,1976.81,-203.19,-483.70
5380,-3.8704,-0.0227,0.3251,1992.43,687.44,219.42
5390,-3.8705,-0.0377,0.3002,1101.81,1624.94,328.74
5400,-3.8706,-0.0560,0.2717,-820.07,-1562.62,391.17
5410,-3.8707,-0.0740,0.2444,836.18,-1203.25,844.24
5420,-3.8708,-0.0909,0.2236,-1460.69,-703.31,1656.68
5430,-3.8710,-0.1035,0.2085,367.43,640.44,-874.57
5440,-3.8710,-0.1053,0.1936,-1241.94,-1297.12,1406.62
5450,-3.8710,-0.1003,0.1766,-1476.32,796.63,78.49
5460,-3.8711,-0.1007,0.1588,-835.69,-1375.24,-1655.94
5470,-3.8711,-0.1086,0.1421,-882.57,343.51,172.18
5480,-3.8712,-0.1178,0.1249,-1898.19,-1797.12,1734.62
5490,-3.8713,-0.1219,0.1021,929.93,-0.24,-1265.44
5500,-3.8715,-0.1149,0.0784,398.68,1077.88,-265.44
5510,-3.8715,-0.0983,0.0627,1304.93,-1953.37,1625.12
5520,-3.8715,-0.0809,0.0542,-570.07,46.63,218.87
5530,-3.8716,-0.0696,0.0479,1648.68,-1047.06,-812.44
5540,-3.8716,-0.0652,0.0389,-898.19,-1859.56,-1468.69
5550,-3.8716,-0.0630,0.0262,-335.69,999.82,1718.81
5560,-3.8716,-0.0590,0.0131,-54.44,-625.18,515.62
5570,-3.8717,-0.0564,0.0000,461.18,1687.38,-1093.75
5580,-3.8717,-0.0569,-0.0157,789.31,15.50,609.38
5590,-3.8718,-0.0582,-0.0334,726.81,1999.88,1890.56
5600,-3.8719,-0.0576,-0.0541,554.93,-265.75,-1343.87
5610,-3.8721,-0.0557,-0.0768,633.06,1093.63,-1203.25
5620,-3.8722,-0.0546,-0.0947,883.06,-1812.62,-422.06
5630,-3.8722,-0.0549,-0.1027,1023.68,-109.50,1843.51
5640,-3.8722,-0.0563,-0.1013,976.81,-1125.12,1202.88
5650,-3.8722,-0.0577,-0.0958,804.93,-953.25,1062.26
5660,-3.8722,-0.0583,-0.0956,617.43,-250.12,781.01
5670,-3.8723,-0.0580,-0.1062,539.31,-218.87,-312.74
5680,-3.8723,-0.0580,-0.1241,586.18,-1578.25,1577.88
5690,-3.8724,-0.0551,-0.1469,586.18,124.88,-765.87
5700,-3.8724,-0.0442,-0.1686,961.18,1218.63,1593.44
5710,-3.8724,-0.0314,-0.1805,-1648.19,-1562.62,765.26
5720,-3.8724,-0.0267,-0.1836,-7.57,906.13,655.88
5730,-3.8724,-0.0291,-0.1864,586.18,515.56,687.13
5740,-3.8724,-0.0269,-0.1995,289.31,156.19,359.01
5750,-3.8726,-0.0200,-0.2238,570.56,-1515.69,-625.43
5760,-3.8726,-0.0165,-0.2477,1445.56,-625.06,1499.51
5770,-3.8727,-0.0159,-0.2632,1898.68,312.44,-484.86
5780,-3.8727,-0.0114,-0.2695,1976.81,-1671.94,-1406.80
5790,-3.8727,-0.0028,-0.2728,-1445.07,1515.56,-1500.55
5800,-3.8727,0.0023,-0.2778,-351.32,1093.69,-1344.30
5810,-3.8727,0.0011,-0.2814,304.93,437.50,-594.30
5820,-3.8726,0.0017,-0.2852,148.68,-15.62,827.51
5830,-3.8726,0.0149,-0.2919,226.81,-500.00,1999.39
5840,-3.8726,0.0339,-0.2988,1914.31,-1359.38,-1688.11
5850,-3.8726,0.0428,-0.3049,351.81,1750.06,1765.01
5860,-3.8726,0.0403,-0.3108,1492.43,968.81,718.14
5870,-3.8727,0.0326,-0.3173,1164.31,218.81,-63.11
5880,-3.8727,0.0205,-0.3282,179.93,-609.31,-297.55
5890,-3.8727,0.0031,-0.3500,-1366.94,1984.38,-703.80
5900,-3.8727,-0.0109,-0.3815,398.68,-796.88,-1688.23
5910,-3.8727,-0.0131,-0.4099,-1382.57,-812.56,1077.33
5920,-3.8728,-0.0020,-0.4248,-1663.82,-453.19,-47.73
5930,-3.8728,0.0190,-0.4257,-241.94,1640.56,-1110.23
5940,-3.8728,0.0455,-0.4172,-1554.44,1515.62,1686.65
5950,-3.8728,0.0723,-0.4070,1836.18,-1406.19,780.40
5960,-3.8728,0.0947,-0.3992,1258.06,-93.63,374.15
5970,-3.8728,0.1139,-0.3982,133.06,906.43,202.33
5980,-3.8728,0.1299,-0.4008,-1413.82,1031.43,155.46
5990,-3.8728,0.1432,-0.3986,633.06,703.37,77.33
6000,-3.8729,0.1528,-0.3928,-1663.82,984.62,-235.17
6010,-3.8729,0.1602,-0.3893,-429.44,1718.99,-438.29
6020,-3.8729,0.1731,-0.3903,508.06,-1827.82,-94.54
6030,-3.8728,0.1986,-0.3939,-1835.69,-1952.82,842.96
6040,-3.8728,0.2325,-0.3983,1429.93,1578.49,-1735.17
6050,-3.8728,0.2581,-0.4036,1773.68,1016.05,-422.67
6060,-3.8727,0.2609,-0.4055,1039.31,344.24,311.71
6070,-3.8727,0.2456,-0.3976,1398.68,94.24,686.71
6080,-3.8727,0.2292,-0.3826,-554.44,1109.80,1467.96
6090,-3.8727,0.2207,-0.3676,1351.81,-968.32,-1094.54
6100,-3.8726,0.2180,-0.3571,258.06,953.55,468.02
6110,-3.8726,0.2172,-0.3524,-85.69,-1702.76,-1953.86
6120,-3.8726,0.2158,-0.3491,-195.07,-1109.01,-313.23
6130,-3.8724,0.2135,-0.3396,-366.94,-687.13,718.02
6140,-3.8724,0.2100,-0.3210,-663.82,531.62,624.33
6150,-3.8726,0.2058,-0.2958,-1116.94,-1093.38,-172.55
6160,-3.8726,0.2028,-0.2698,-1648.19,-1859.01,-1438.11
6170,-3.8726,0.2097,-0.2529,1961.18,1469.12,624.45
6180,-3.8727,0.2416,-0.2528,-1148.19,-374.63,1577.58
6190,-3.8728,0.3035,-0.2705,-1070.07,-358.95,1999.45
6200,-3.8729,0.3794,-0.2968,-1148.19,1375.55,-47.42
6210,-3.8728,0.4402,-0.3075,570.56,-1983.64,577.51
6220,-3.8728,0.4666,-0.2864,351.81,641.48,-1234.99
6230,-3.8727,0.4684,-0.2422,-273.19,-655.40,-750.61
6240,-3.8724,0.4624,-0.1979,-38.82,1000.85,-1172.36
6250,-3.8722,0.4446,-0.1710,-804.44,-1327.27,-281.68
6260,-3.8719,0.4126,-0.1700,914.31,-1889.77,-0.37
6270,-3.8717,0.3773,-0.1963,820.56,-1764.83,-1578.49
6280,-3.8716,0.3479,-0.2362,304.93,-1124.27,-453.55
6290,-3.8713,0.3225,-0.2656,539.31,1766.30,593.26
6300,-3.8712,0.2963,-0.2634,1289.31,-1999.39,-1703.67
6310,-3.8710,0.2703,-0.2289,1929.93,-1718.20,655.70
6320,-3.8708,0.2476,-0.1764,-1398.19,-1296.39,-281.74
6330,-3.8706,0.2328,-0.1284,-304.44,1422.30,-734.74
6340,-3.8704,0.2336,-0.1030,1804.93,-437.07,1999.69
6350,-3.8702,0.2551,-0.1008,1914.31,-1187.07,-1125.24
6360,-3.8701,0.2876,-0.1144,664.31,-905.76,1593.51
6370,-3.8701,0.3099,-0.1364,820.56,1359.92,1859.13
6380,-3.8702,0.3105,-0.1547,-320.07,-1452.58,-0.31
6390,-3.8702,0.2953,-0.1528,-241.94,203.67,1468.44
6400,-3.8704,0.2786,-0.1288,1804.93,438.05,-781.56
6410,-3.8704,0.2748,-0.0983,-335.69,-483.89,1499.69
6420,-3.8705,0.2881,-0.0706,-820.07,-577.64,-93.99
6430,-3.8705,0.3136,-0.0474,883.06,-1030.70,1531.07
6440,-3.8706,0.3495,-0.0396,148.68,1938.11,-1859.50
6450,-3.8707,0.3950,-0.0494,742.43,-1061.83,-1687.62
6460,-3.8708,0.4427,-0.0619,-1429.44,1672.61,-1375.12
6470,-3.8710,0.4794,-0.0641,679.93,78.98,-765.75
6480,-3.8710,0.4951,-0.0513,1367.43,-202.21,874.82
6490,-3.8711,0.4923,-0.0305,-616.94,1438.42,-312.62
6500,-3.8711,0.4786,-0.0164,-976.32,94.67,-1390.69
6510,-3.8711,0.4572,-0.0126,1273.68,1907.17,1234.31
6520,-3.8711,0.4297,-0.0131,-1476.32,-1608.52,156.19
6530,-3.8711,0.4042,-0.0098,-991.94,-1671.08,46.81
6540,-3.8711,0.3878,0.0015,-257.57,-1249.27,937.44
6550,-3.8711,0.3813,0.0142,1648.68,188.23,-1828.12
6560,-3.8711,0.3826,0.0195,820.56,1813.23,-765.62
6570,-3.8711,0.3876,0.0166,976.81,-1499.27,-265.62
6580,-3.8711,0.3923,0.0120,1617.43,-1874.27,-359.38
6590,-3.8711,0.3970,0.0118,-1773.19,1531.98,-546.88
6600,-3.8711,0.4032,0.0197,-1179.44,1516.36,-203.12
6610,-3.8710,0.4066,0.0376,-382.57,-1483.64,1328.12
6620,-3.8708,0.4010,0.0668,54.93,813.29,328.19
6630,-3.8707,0.3862,0.1010,-663.82,547.61,312.62
6640,-3.8706,0.3658,0.1283,1445.56,922.61,297.06
6650,-3.8706,0.3436,0.1436,-1163.82,422.55,-734.13
6660,-3.8705,0.3231,0.1442,-7.57,-1624.39,656.49
6670,-3.8705,0.3082,0.1338,1367.43,-1546.26,625.24
6680,-3.8706,0.2987,0.1202,-538.82,1125.55,-765.38
6690,-3.8706,0.2952,0.1062,-1757.57,-608.83,750.18
6700,-3.8707,0.3060,0.0952,1789.31,1594.30,-1859.19
6710,-3.8707,0.3351,0.0983,-820.07,188.05,406.43
6720,-3.8708,0.3698,0.1213,-1101.32,578.74,-62.32
6730,-3.8707,0.3938,0.1543,-663.82,-468.08,390.81
6740,-3.8707,0.3986,0.1846,-1585.69,-249.27,1015.87
6750,-3.8707,0.3834,0.2046,-976.32,-374.27,562.81
6760,-3.8708,0.3585,0.2155,1086.18,-1811.77,-718.38
6770,-3.8708,0.3350,0.2222,1898.68,-421.20,-1343.38
6780,-3.8708,0.3152,0.2218,-1116.94,438.11,-1530.82
6790,-3.8708,0.2991,0.2144,351.81,391.24,1859.80
6800,-3.8708,0.2864,0.2047,-1710.69,-561.95,469.12
6810,-3.8710,0.2764,0.1973,664.31,-1796.33,-1499.63
6820,-3.8710,0.2701,0.1969,-616.94,1250.49,297.24
6830,-3.8711,0.2695,0.2048,-1413.82,1203.61,-1874.63
6840,-3.8711,0.2725,0.2188,-1491.94,-1780.76,62.87
6850,-3.8712,0.2767,0.2360,-1116.94,0.49,-1843.32
6860,-3.8712,0.2838,0.2524,-570.07,-1796.39,453.55
6870,-3.8713,0.2942,0.2653,336.18,313.05,-812.01
6880,-3.8713,0.3057,0.2742,1664.31,1953.67,-1437.01
6890,-3.8713,0.3167,0.2787,-866.94,-905.70,-1671.39
6900,-3.8713,0.3230,0.2773,539.31,-327.51,-1702.64
6910,-3.8713,0.3217,0.2728,1351.81,-499.39,-1733.89
6920,-3.8713,0.3171,0.2715,1179.93,-1077.51,-1952.64
6930,-3.8713,0.3160,0.2754,601.81,-1249.39,1891.11
6940,-3.8713,0.3228,0.2800,461.18,-749.39,1937.99
6950,-3.8713,0.3383,0.2831,1320.56,-155.64,1766.11
6960,-3.8713,0.3588,0.2909,-695.07,234.99,1313.05
6970,-3.8713,0.3792,0.3054,1929.93,1235.05,969.30
6980,-3.8713,0.3999,0.3177,539.31,-905.52,1234.92
6990,-3.8713,0.4229,0.3243,-804.44,672.61,-1999.39
7000,-3.8713,0.4438,0.3263,-1866.94,1516.42,-1296.26
7010,-3.8713,0.4568,0.3201,820.56,1766.48,-1202.51
7020,-3.8713,0.4596,0.3052,-1523.19,969.60,-1905.64
7030,-3.8713,0.4535,0.2885,-1163.82,-936.65,1156.80
7040,-3.8713,0.4430,0.2777,-1945.07,922.73,500.55
7050,-3.8713,0.4340,0.2748,711.18,-452.27,516.11
7060,-3.8713,0.4274,0.2773,-445.07,-827.33,1250.49
7070,-3.8713,0.4182,0.2872,-1288.82,-499.21,-1655.76
7080,-3.8713,0.4026,0.3026,1539.31,766.42,-30.70
7090,-3.8712,0.3854,0.3131,-460.69,-1264.89,-1890.08
7100,-3.8711,0.3723,0.3143,1336.18,78.86,219.36
7110,-3.8711,0.3669,0.3066,-335.69,235.05,1547.49
7120,-3.8711,0.3724,0.2922,-1023.19,-749.33,1625.55
7130,-3.8711,0.3856,0.2775,-320.07,1406.92,672.42
7140,-3.8712,0.4006,0.2671,1367.43,-483.64,-733.89
7150,-3.8712,0.4139,0.2633,-710.69,-1811.77,-1905.76
7160,-3.8712,0.4230,0.2693,992.43,1703.92,1562.99
7170,-3.8712,0.4249,0.2834,-1851.32,-1530.46,1672.36
7180,-3.8712,0.4210,0.3005,-1601.32,282.04,-1843.20
7190,-3.8712,0.4136,0.3160,1898.68,-1530.46,-1108.83
7200,-3.8712,0.4038,0.3234,945.56,453.92,-358.76
7210,-3.8712,0.3959,0.3165,-304.44,1391.36,-374.39
7220,-3.8712,0.3934,0.2955,-1320.07,516.36,-1858.76
7230,-3.8713,0.3966,0.2700,-1632.57,1828.86,-499.45
7240,-3.8713,0.4066,0.2548,-1226.32,-1436.77,656.74
7250,-3.8715,0.4216,0.2542,54.93,610.17,-1890.14
7260,-3.8715,0.4355,0.2632,1976.81,532.04,500.49
7270,-3.8715,0.4443,0.2755,-241.94,1688.29,47.36
7280,-3.8715,0.4479,0.2850,883.06,-733.52,94.24
7290,-3.8716,0.4487,0.2891,1336.18,485.23,-124.45
7300,-3.8716,0.4496,0.2896,1445.56,1000.85,-827.58
7310,-3.8716,0.4520,0.2903,1554.93,1063.35,-1827.58
7320,-3.8716,0.4565,0.2915,1867.43,1157.10,1125.55
7330,-3.8716,0.4633,0.2877,-1554.44,1313.35,156.80
7340,-3.8717,0.4714,0.2743,-695.07,828.98,-983.83
7350,-3.8717,0.4791,0.2579,351.81,-889.71,1656.74
7360,-3.8717,0.4850,0.2507,1336.18,1016.54,547.36
7370,-3.8717,0.4893,0.2587,-1913.82,94.67,266.11
7380,-3.8717,0.4940,0.2751,-1366.94,1110.29,1078.61
7390,-3.8717,0.4971,0.2931,-757.57,-780.33,-890.14
7400,-3.8716,0.4847,0.3213,-366.94,1516.54,813.05
7410,-3.8716,0.4586,0.3556,-1945.07,1125.92,1578.74
7420,-3.8716,0.4446,0.3727,-1288.82,1516.48,-764.95
7430,-3.8715,0.4475,0.3657,914.31,-296.02,1469.42
7440,-3.8715,0.4541,0.3428,1289.31,-1186.65,-1155.58
7450,-3.8715,0.4614,0.3165,-1866.94,-124.15,-1327.51
7460,-3.8715,0.4700,0.2947,-929.44,516.48,922.49
7470,-3.8716,0.4762,0.2794,164.31,1719.67,-1249.45
7480,-3.8716,0.4789,0.2740,961.18,-233.46,1312.99
7490,-3.8716,0.4789,0.2825,1304.93,-920.96,1250.49
7500,-3.8716,0.4755,0.3041,1304.93,157.17,-1140.08
7510,-3.8715,0.4711,0.3269,867.43,-1077.21,1297.42
7520,-3.8715,0.4719,0.3337,304.93,1844.67,-171.26
7530,-3.8713,0.4788,0.3215,414.31,-1280.33,1594.36
7540,-3.8713,0.4869,0.3015,1289.31,1157.17,1688.11
7550,-3.8713,0.4956,0.2817,-1663.82,-1405.33,625.55
7560,-3.8715,0.5049,0.2686,-554.44,63.42,-593.20
7570,-3.8715,0.5100,0.2665,633.06,-1624.02,-1421.39
7580,-3.8715,0.5055,0.2688,1289.31,-1889.65,-1733.89
7590,-3.8715,0.4950,0.2681,711.18,-1592.77,-1468.26
7600,-3.8715,0.4839,0.2640,-632.57,-1686.58,-812.01
7610,-3.8715,0.4772,0.2571,1945.56,1797.79,-233.89
7620,-3.8715,0.4775,0.2463,1086.18,907.17,-15.14
7630,-3.8715,0.4816,0.2341,1133.06,-467.83,-202.70
7640,-3.8715,0.4830,0.2234,1648.68,1969.67,-452.70
7650,-3.8715,0.4811,0.2167,1836.18,594.67,-343.32
7660,-3.8713,0.4792,0.2150,1586.18,-264.71,31.62
7670,-3.8713,0.4778,0.2170,1351.81,-483.46,547.24
7680,-3.8713,0.4725,0.2216,1164.31,-217.83,984.74
7690,-3.8713,0.4628,0.2231,492.43,360.29,1281.68
7700,-3.8713,0.4493,0.2197,-757.57,563.35,1547.30
7710,-3.8713,0.4315,0.2198,1523.68,125.85,1562.93
7720,-3.8713,0.4093,0.2319,-757.57,141.42,1891.05
7730,-3.8713,0.3909,0.2471,398.68,1688.29,-624.57
7740,-3.8712,0.3879,0.2520,-1960.69,-374.27,1469.18
7750,-3.8712,0.3990,0.2445,1664.31,250.73,-1343.26
7760,-3.8712,0.4143,0.2279,-913.82,-702.39,1828.55
7770,-3.8713,0.4246,0.2081,1039.31,1172.67,-812.07
7780,-3.8715,0.4232,0.1936,-1648.19,-1358.58,-46.51
7790,-3.8715,0.4084,0.1873,-1820.07,782.04,1265.99
7800,-3.8716,0.3855,0.1854,289.31,-30.46,-93.44
7810,-3.8716,0.3647,0.1835,1351.81,-264.89,-249.69
7820,-3.8716,0.3545,0.1814,-1304.44,-514.95,-77.82
7830,-3.8716,0.3577,0.1825,1383.06,-780.58,-77.82
7840,-3.8716,0.3715,0.1888,1789.31,-639.95,-312.19
7850,-3.8716,0.3890,0.1970,-445.07,172.55,-546.51
7860,-3.8716,0.4038,0.2010,1804.93,1219.48,-296.51
7870,-3.8716,0.4116,0.1942,-304.44,1735.11,-202.76
7880,-3.8716,0.4116,0.1777,695.56,860.17,-905.88
7890,-3.8716,0.4054,0.1583,695.56,-1249.21,1828.43
7900,-3.8716,0.3960,0.1417,-101.32,266.36,328.43
7910,-3.8717,0.3899,0.1296,-1304.44,-1858.64,-937.26
7920,-3.8717,0.3921,0.1187,1914.31,594.48,-1734.13
7930,-3.8717,0.3983,0.1055,-1804.44,-811.77,1547.06
7940,-3.8717,0.4001,0.0898,-1007.57,1500.73,500.18
7950,-3.8718,0.3939,0.0746,-773.19,-499.27,-1046.75
7960,-3.8718,0.3815,0.0630,-1570.07,1547.61,1328.25
7970,-3.8718,0.3669,0.0569,836.18,63.23,234.50
7980,-3.8718,0.3550,0.0598,-1023.19,-718.08,62.56
7990,-3.8718,0.3457,0.0730,1445.56,-343.08,1421.94
8000,-3.8717,0.3381,0.0951,258.06,1344.42,375.12
8010,-3.8716,0.3341,0.1201,-710.69,172.49,297.06
8020,-3.8715,0.3328,0.1381,-1226.32,-624.39,218.93
8030,-3.8715,0.3309,0.1442,-1398.19,1672.49,-687.26
8040,-3.8713,0.3267,0.1393,-1632.57,-1546.26,1109.62
8050,-3.8713,0.3220,0.1266,1820.56,1828.74,1484.62
8060,-3.8713,0.3207,0.1124,1226.81,203.74,1343.99
8070,-3.8713,0.3204,0.1035,1054.93,-1608.76,1484.56
8080,-3.8713,0.3167,0.1000,1023.68,1250.61,-1937.32
8090,-3.8713,0.3094,0.0994,539.31,797.49,-796.69
8100,-3.8712,0.2990,0.1007,-382.57,719.30,453.31
8110,-3.8712,0.2871,0.1023,-1726.32,891.17,1422.06
8120,-3.8712,0.2772,0.1066,758.06,1094.30,-1843.57
8130,-3.8712,0.2667,0.1167,-507.57,1641.11,-1531.07
8140,-3.8712,0.2544,0.1227,-1851.32,-1062.01,-1296.69
8150,-3.8712,0.2472,0.1194,570.56,-296.39,-546.69
8160,-3.8712,0.2499,0.1116,-351.32,-718.32,-437.32
8170,-3.8712,0.2609,0.0990,-7.57,-1718.32,-1702.94
8180,-3.8713,0.2759,0.0859,1398.68,672.36,-15.44
8190,-3.8713,0.2928,0.0765,-679.44,-999.51,1203.25
8200,-3.8715,0.3059,0.0721,1492.43,1797.42,-828.00
8210,-3.8715,0.3093,0.0724,-835.69,1234.92,-1390.50
8220,-3.8715,0.3038,0.0748,-398.19,1266.17,-921.75
8230,-3.8715,0.2950,0.0753,-1101.32,1578.67,-203.00
8240,-3.8713,0.2869,0.0718,1773.68,1641.17,187.62
8250,-3.8713,0.2804,0.0656,726.81,1188.05,47.00
8260,-3.8715,0.2771,0.0577,-101.32,391.11,-687.38
8270,-3.8715,0.2808,0.0481,-523.19,-608.89,-1593.69
8280,-3.8715,0.2917,0.0371,-54.44,-1843.26,1578.19
8290,-3.8715,0.3029,0.0264,1351.81,750.55,562.56
8300,-3.8716,0.3073,0.0168,-1226.32,-624.45,-640.62
8310,-3.8716,0.3019,0.0077,-663.82,-1843.20,-1828.12
8320,-3.8716,0.2876,-0.0006,-1351.32,984.92,1281.25
8330,-3.8716,0.2706,-0.0088,820.56,-77.58,1062.44
8340,-3.8716,0.2560,-0.0171,-1351.32,-1124.51,1343.69
8350,-3.8716,0.2478,-0.0236,773.68,1812.99,1796.81
8360,-3.8716,0.2480,-0.0270,-273.19,984.80,-1734.44
8370,-3.8716,0.2548,-0.0303,-241.94,547.30,-1421.94
8380,-3.8716,0.2621,-0.0372,617.43,125.49,-1296.94
8390,-3.8716,0.2620,-0.0490,1554.93,-765.14,-1734.50
8400,-3.8716,0.2520,-0.0643,1539.31,1734.86,1124.88
8410,-3.8717,0.2346,-0.0812,258.06,-233.89,-406.43
8420,-3.8717,0.2128,-0.0966,-1960.69,1609.80,1906.07
8430,-3.8717,0.1927,-0.1091,-757.57,-359.01,265.38
8440,-3.8718,0.1799,-0.1200,679.93,-1968.38,-1140.87
8450,-3.8718,0.1744,-0.1299,-960.69,640.93,1609.13
8460,-3.8718,0.1740,-0.1356,-1663.82,-624.69,609.07
8470,-3.8718,0.1758,-0.1348,-1726.32,-1359.07,30.94
8480,-3.8719,0.1794,-0.1307,-1491.94,-1249.69,-78.43
8490,-3.8718,0.1832,-0.1273,-1023.19,-734.07,312.19
8500,-3.8718,0.1854,-0.1271,-538.82,-296.57,687.19
8510,-3.8718,0.1860,-0.1292,-257.57,-265.32,921.57
8520,-3.8718,0.1825,-0.1299,-179.44,-530.94,312.19
8530,-3.8719,0.1769,-0.1313,-632.57,-624.69,-1047.18
8540,-3.8719,0.1747,-0.1340,-1351.32,-812.19,-1578.43
8550,-3.8719,0.1738,-0.1354,-1632.57,-1155.94,-1328.43
8560,-3.8719,0.1757,-0.1389,-1741.94,-1327.82,-1125.31
8570,-3.8719,0.1871,-0.1473,-1507.57,-1780.94,-1375.31
8580,-3.8719,0.2075,-0.1578,-38.82,1140.93,1765.32
8590,-3.8719,0.2268,-0.1656,-1429.44,-202.76,890.26
8600,-3.8719,0.2386,-0.1664,1039.31,-1202.70,859.01
8610,-3.8719,0.2424,-0.1591,-1445.07,-1296.45,1609.01
8620,-3.8719,0.2438,-0.1478,-960.69,-358.95,-969.12
8630,-3.8718,0.2476,-0.1342,-788.82,1078.55,1312.19
8640,-3.8718,0.2493,-0.1212,-304.44,-1171.45,-547.18
8650,-3.8717,0.2539,-0.1160,-85.69,484.80,952.88
8660,-3.8717,0.2677,-0.1185,508.06,1156.74,1937.26
8670,-3.8717,0.2825,-0.1230,-1726.32,828.61,-1968.99
8680,-3.8717,0.2922,-0.1283,164.31,250.55,1406.01
8690,-3.8717,0.2946,-0.1337,1414.31,-421.33,984.07
8700,-3.8717,0.2876,-0.1340,1711.18,-1108.83,1171.57
8710,-3.8717,0.2784,-0.1304,820.56,-1155.70,1640.32
8720,-3.8717,0.2742,-0.1257,-351.32,-687.01,-1672.18
8730,-3.8717,0.2739,-0.1199,-898.19,-93.26,-890.93
8740,-3.8717,0.2739,-0.1108,-929.44,656.74,-547.12
8750,-3.8717,0.2743,-0.0973,-929.44,1812.99,-875.24
8760,-3.8717,0.2803,-0.0830,-882.57,-452.64,-1265.87
8770,-3.8717,0.2938,-0.0746,-116.94,1375.49,-1562.68
8780,-3.8717,0.3090,-0.0770,1617.43,-1546.33,1765.44
8790,-3.8717,0.3208,-0.0845,-445.07,-1858.83,749.82
8800,-3.8718,0.3271,-0.0885,1070.56,1188.11,-172.06
8810,-3.8718,0.3229,-0.0897,1883.06,672.49,-312.68
8820,-3.8717,0.3092,-0.0865,1336.18,516.24,656.07
8830,-3.8717,0.2972,-0.0782,-413.82,922.42,-1328.31
8840,-3.8716,0.2916,-0.0703,-1945.07,1984.92,1187.32
8850,-3.8716,0.2911,-0.0697,1336.18,-999.45,-1109.56
8860,-3.8716,0.2961,-0.0745,1273.68,-921.33,-1062.68
8870,-3.8716,0.3087,-0.0803,1914.31,-1530.70,1249.82
8880,-3.8717,0.3275,-0.0854,-476.32,1719.30,-859.56
8890,-3.8717,0.3446,-0.0868,1929.93,1063.11,1999.82
8900,-3.8717,0.3534,-0.0823,117.43,891.30,1859.19
8910,-3.8717,0.3528,-0.0734,1242.43,1469.42,-1234.56
8920,-3.8716,0.3413,-0.0609,1164.31,-1389.95,609.19
8930,-3.8716,0.3241,-0.0450,-304.44,203.74,-1109.50
8940,-3.8715,0.3112,-0.0284,1492.43,-1765.01,1374.88
8950,-3.8715,0.3052,-0.0160,-163.82,359.92,-125.06
8960,-3.8713,0.3044,-0.0105,-929.44,1953.67,1906.19
8970,-3.8713,0.3099,-0.0122,-1023.19,-1343.20,-1125.06
8980,-3.8713,0.3198,-0.0216,-320.07,-1561.95,-1703.19
8990,-3.8713,0.3296,-0.0333,945.56,1234.99,406.19
9000,-3.8715,0.3354,-0.0438,-1804.44,-265.01,-1859.50
9010,-3.8715,0.3333,-0.0491,-1054.44,-1608.76,718.63
9020,-3.8715,0.3201,-0.0430,-1335.69,1719.36,624.88
9030,-3.8715,0.2993,-0.0277,976.81,-1499.39,1609.25
9040,-3.8715,0.2800,-0.0067,-1679.44,453.67,-234.44
9050,-3.8713,0.2711,0.0172,-148.19,-858.89,-1453.19
9060,-3.8712,0.2809,0.0419,-1288.82,-1796.39,1328.12
9070,-3.8712,0.3109,0.0626,-38.82,1359.86,-124.94
9080,-3.8711,0.3555,0.0684,-195.07,16.17,1000.12
9090,-3.8712,0.4030,0.0570,1508.06,750.67,-515.50
9100,-3.8713,0.4414,0.0356,-413.82,-702.39,-921.81
9110,-3.8715,0.4700,0.0115,508.06,563.35,812.56
9120,-3.8717,0.4918,-0.0100,164.31,1469.67,-1281.25
9130,-3.8718,0.5039,-0.0226,-1038.82,-1280.33,-1359.44
9140,-3.8718,0.4999,-0.0205,508.06,1110.35,1468.69
9150,-3.8718,0.4775,-0.0039,-7.57,1375.92,-1015.69
9160,-3.8717,0.4438,0.0206,1133.06,-499.08,1968.69
9170,-3.8716,0.4062,0.0461,820.56,-1358.52,1468.75
9180,-3.8715,0.3688,0.0660,8.06,1907.04,437.56
9190,-3.8715,0.3397,0.0743,-788.82,453.80,-1984.25
9200,-3.8715,0.3276,0.0746,-507.57,1516.24,1625.12
9210,-3.8716,0.3357,0.0697,1945.56,1547.49,-1453.00
9220,-3.8717,0.3628,0.0548,-1023.19,922.49,-1234.25
9230,-3.8717,0.3969,0.0472,-1554.44,-983.70,890.69
9240,-3.8717,0.4208,0.0618,-1195.07,-1952.39,453.19
9250,-3.8717,0.4321,0.0878,1867.43,-92.96,1906.31
9260,-3.8716,0.4283,0.1167,-679.44,-764.83,1812.62
9270,-3.8715,0.4034,0.1467,-1163.82,-1061.71,-1015.44
9280,-3.8712,0.3639,0.1771,-351.32,-1218.02,109.62
9290,-3.8711,0.3269,0.1987,-1413.82,-1327.45,62.81
9300,-3.8711,0.3063,0.2036,1851.81,1438.11,-1655.88
9310,-3.8711,0.3057,0.1954,-788.82,-1936.95,-1296.51
9320,-3.8711,0.3231,0.1799,-866.94,1016.17,1187.87
9330,-3.8712,0.3463,0.1625,1367.43,-968.14,-1140.32
9340,-3.8712,0.3589,0.1536,336.18,797.55,719.06
9350,-3.8713,0.3610,0.1582,1945.56,-343.08,-1093.51
9360,-3.8713,0.3674,0.1705,-1788.82,250.67,1922.18
9370,-3.8713,0.3837,0.1864,-960.69,1828.80,-1952.82
9380,-3.8713,0.4005,0.2051,1117.43,-139.89,-1374.69
9390,-3.8713,0.4106,0.2223,-726.32,-1749.27,-577.76
9400,-3.8712,0.4138,0.2350,570.56,453.92,531.68
9410,-3.8712,0.4124,0.2457,976.81,-1921.08,1969.18
9420,-3.8712,0.4087,0.2566,789.31,-546.08,-171.45
9430,-3.8711,0.4047,0.2671,320.56,844.54,-1921.39
9440,-3.8710,0.3950,0.2769,-195.07,-1811.77,187.99
9450,-3.8710,0.3745,0.2837,-1429.44,-561.77,1453.61
9460,-3.8710,0.3472,0.2842,-54.44,313.17,1906.80
9470,-3.8710,0.3185,0.2805,445.56,375.67,1609.92
9480,-3.8710,0.2949,0.2791,773.68,-93.14,562.99
9490,-3.8711,0.2831,0.2852,1758.06,-280.70,-577.64
9500,-3.8711,0.2849,0.2981,242.43,500.55,-1046.33
9510,-3.8711,0.2990,0.3121,476.81,-1843.20,-1108.83
9520,-3.8711,0.3241,0.3199,-1726.32,-46.33,-1155.70
9530,-3.8711,0.3601,0.3206,1492.43,953.74,-1140.01
9540,-3.8711,0.3951,0.3239,-1898.19,1031.92,-1452.51
9550,-3.8711,0.4136,0.3353,-1413.82,1453.86,-1921.26
9560,-3.8711,0.4114,0.3503,945.56,-1077.33,-1718.14
9570,-3.8711,0.3944,0.3632,664.31,844.54,-749.33
9580,-3.8710,0.3710,0.3737,-1507.57,-1514.89,531.92
9590,-3.8710,0.3489,0.3781,-507.57,-171.20,-1936.83
9600,-3.8710,0.3346,0.3752,664.31,391.30,-280.52
9610,-3.8708,0.3311,0.3695,-1163.82,31.86,531.98
9620,-3.8708,0.3362,0.3612,-1616.94,-702.51,219.42
9630,-3.8710,0.3469,0.3511,-960.69,-1765.01,-718.08
9640,-3.8710,0.3607,0.3430,414.31,938.17,1938.17
9650,-3.8710,0.3715,0.3411,-1820.07,-93.08,656.86
9660,-3.8711,0.3772,0.3468,-445.07,-343.08,-155.64
9670,-3.8711,0.3831,0.3591,289.31,391.36,-343.08
9680,-3.8711,0.3906,0.3746,1039.31,1969.48,-139.95
9690,-3.8710,0.3947,0.3915,-1991.94,-46.14,656.92
9700,-3.8710,0.3867,0.4071,-1476.32,-1889.89,1906.98
9710,-3.8710,0.3635,0.4147,1508.06,110.11,-655.46
9720,-3.8708,0.3285,0.4078,-1460.69,1078.80,891.42
9730,-3.8708,0.2888,0.3848,-1945.07,203.74,-1811.71
9740,-3.8708,0.2524,0.3495,976.81,1250.55,-1233.64
9750,-3.8708,0.2264,0.3124,320.56,734.86,-1780.58
9760,-3.8708,0.2217,0.2870,992.43,-15.20,1516.17
9770,-3.8708,0.2454,0.2904,383.06,734.80,-1468.20
9780,-3.8707,0.2877,0.3199,-585.69,1172.30,922.42
9790,-3.8707,0.3361,0.3594,836.18,953.67,-46.26
9800,-3.8706,0.3810,0.4038,-976.32,-1999.39,-764.95
9810,-3.8705,0.4111,0.4415,773.68,-311.77,1688.23
9820,-3.8705,0.4231,0.4606,633.06,516.42,-1124.15
9830,-3.8705,0.4236,0.4614,-1835.69,-1046.08,-1342.90
9840,-3.8705,0.4229,0.4498,-1773.19,-936.71,1141.48
9850,-3.8706,0.4290,0.4363,-1866.94,1578.92,-1046.02
9860,-3.8706,0.4410,0.4276,-1085.69,-155.46,344.54
9870,-3.8707,0.4496,0.4235,461.18,-1264.77,1407.04
9880,-3.8708,0.4470,0.4225,1554.93,-1796.02,-1280.46
9890,-3.8708,0.4341,0.4254,1226.81,-1921.02,688.29
9900,-3.8710,0.4182,0.4331,-429.44,-1546.08,-671.08
9910,-3.8710,0.4082,0.4451,1539.31,-561.71,-1202.33
9920,-3.8710,0.4033,0.4581,258.06,969.54,-1092.90
9930,-3.8710,0.3998,0.4636,-366.94,-1358.64,-733.52
9940,-3.8710,0.3939,0.4541,-820.07,-655.52,-811.65
9950,-3.8710,0.3829,0.4316,-1570.07,-1874.27,-1921.02
9960,-3.8710,0.3671,0.4053,1023.68,-749.27,78.92
9970,-3.8711,0.3434,0.3848,-1007.57,-124.33,1688.23
9980,-3.8712,0.3113,0.3741,-38.82,1250.61,-46.14
9990,-3.8712,0.2762,0.3699,-148.19,-108.83,-483.70
10000,-3.8712,0.2489,0.3643,-632.57,-655.76,-202.45
10010,-3.8712,0.2328,0.3550,-132.57,-1374.57,-61.83
10020,-3.8711,0.2191,0.3495,1804.93,1437.93,31.92
10030,-3.8711,0.1987,0.3512,54.93,734.80,360.05
10040,-3.8711,0.1736,0.3538,1445.56,953.49,1344.42
10050,-3.8711,0.1543,0.3530,-1773.19,1281.56,-921.20
10060,-3.8710,0.1445,0.3481,-241.94,1187.74,438.17
10070,-3.8710,0.1442,0.3380,-1491.94,562.74,891.30
10080,-3.8710,0.1536,0.3228,-1538.82,-734.13,516.24
10090,-3.8711,0.1660,0.3051,-335.69,1312.74,-499.39
10100,-3.8711,0.1691,0.2871,1258.06,-952.82,1891.17
10110,-3.8712,0.1617,0.2679,1648.68,750.31,-202.58
10120,-3.8712,0.1515,0.2478,711.18,-1702.82,1547.36
10130,-3.8713,0.1421,0.2306,-601.32,-281.01,-733.95
10140,-3.8713,0.1334,0.2225,-1804.44,1515.87,1687.93
10150,-3.8713,0.1262,0.2206,1086.18,484.62,1172.30
10160,-3.8713,0.1241,0.2136,164.31,234.62,1359.80
10170,-3.8713,0.1288,0.1979,-101.32,-656.07,1437.87
10180,-3.8713,0.1359,0.1772,492.43,1328.37,547.24
10190,-3.8715,0.1428,0.1539,1398.68,-1312.26,-1359.07
10200,-3.8716,0.1533,0.1298,-1710.69,-296.63,-46.63
10210,-3.8716,0.1692,0.1085,-366.94,609.62,1234.62
10220,-3.8717,0.1899,0.0895,1664.31,1890.93,-952.94
10230,-3.8717,0.2175,0.0706,320.56,-546.51,1297.00
10240,-3.8718,0.2461,0.0552,-148.19,1031.62,-328.00
10250,-3.8718,0.2651,0.0522,-491.94,-937.07,-1281.19
10260,-3.8718,0.2682,0.0616,1945.56,-1312.01,-765.56
10270,-3.8717,0.2545,0.0699,-1663.82,-108.89,921.94
10280,-3.8717,0.2316,0.0686,586.18,953.61,-1124.88
10290,-3.8716,0.2070,0.0614,1648.68,781.68,422.00
10300,-3.8716,0.1859,0.0546,-1491.94,-140.26,1218.81
10310,-3.8716,0.1686,0.0453,-195.07,-1015.32,1265.69
10320,-3.8716,0.1520,0.0299,1586.18,1797.18,546.94
10330,-3.8717,0.1365,0.0114,-538.82,-171.63,-937.50
10340,-3.8717,0.1227,-0.0048,1476.81,1453.37,1218.75
10350,-3.8718,0.1116,-0.0149,-288.82,-609.19,-546.94
10360,-3.8718,0.1088,-0.0167,-1710.69,-1906.07,-1859.44
10370,-3.8718,0.1210,-0.0150,1929.93,1859.56,1734.31
10380,-3.8718,0.1448,-0.0156,-507.57,-1921.69,-1937.56
10390,-3.8718,0.1703,-0.0168,-1460.69,-1999.76,-1375.06
10400,-3.8718,0.1896,-0.0168,1804.93,1844.06,-703.19
10410,-3.8718,0.1980,-0.0167,273.68,1844.12,-187.56
10420,-3.8718,0.1948,-0.0188,1351.81,1859.74,-312.56
10430,-3.8718,0.1843,-0.0242,945.56,1594.12,-1125.06
10440,-3.8718,0.1702,-0.0319,-398.19,906.56,1328.06
10450,-3.8719,0.1562,-0.0420,1789.31,-77.82,-656.37
10460,-3.8719,0.1472,-0.0503,8.06,-1374.69,1687.38
10470,-3.8719,0.1451,-0.0490,-1148.19,1562.74,671.75
10480,-3.8719,0.1517,-0.0415,-1413.82,1734.62,499.88
10490,-3.8719,0.1620,-0.0354,-570.07,-1312.26,968.63
10500,-3.8719,0.1656,-0.0315,742.43,-530.94,1406.13
10510,-3.8719,0.1594,-0.0300,1211.18,-30.94,1515.50
10520,-3.8719,0.1487,-0.0343,414.31,156.56,1171.81
10530,-3.8719,0.1428,-0.0469,-960.69,-390.38,515.50
10540,-3.8721,0.1475,-0.0687,-1710.69,-1999.76,-625.12
10550,-3.8721,0.1597,-0.1017,-1116.94,-796.63,1296.69
10560,-3.8722,0.1692,-0.1377,445.56,-1015.32,-1422.12
10570,-3.8722,0.1681,-0.1620,1664.31,-1624.69,93.44
10580,-3.8723,0.1577,-0.1721,1523.68,-734.07,-1578.49
10590,-3.8723,0.1456,-0.1759,195.56,1969.06,1609.01
10600,-3.8723,0.1388,-0.1757,-1351.32,1484.62,1624.63
10610,-3.8723,0.1372,-0.1667,1773.68,1515.87,-1719.12
10620,-3.8723,0.1418,-0.1512,1570.56,-1343.51,-515.99
10630,-3.8722,0.1565,-0.1356,-1835.69,640.87,1187.19
10640,-3.8722,0.1812,-0.1238,39.31,-1359.07,-1234.68
10650,-3.8722,0.2142,-0.1169,-804.44,156.56,-406.49
10660,-3.8722,0.2490,-0.1138,-570.07,1031.62,-1031.49
10670,-3.8722,0.2772,-0.1134,-116.94,1437.93,1390.38
10680,-3.8722,0.2952,-0.1154,-507.57,1484.86,249.76
10690,-3.8723,0.3036,-0.1156,1789.31,1234.92,-93.99
10700,-3.8722,0.3037,-0.1082,-1132.57,1203.67,562.26
10710,-3.8722,0.3013,-0.0906,-1116.94,-1843.20,-1656.49
10720,-3.8721,0.3049,-0.0669,-1429.44,406.80,1109.19
10730,-3.8719,0.3175,-0.0448,-960.69,-561.95,140.44
10740,-3.8719,0.3367,-0.0319,648.68,-1733.76,-1328.25
10750,-3.8718,0.3549,-0.0288,-898.19,-77.51,46.75
10760,-3.8719,0.3651,-0.0312,1429.93,313.17,-15.69
10770,-3.8719,0.3684,-0.0356,-1257.57,0.67,-640.69
10780,-3.8719,0.3707,-0.0426,-835.69,-561.83,-703.25
10790,-3.8719,0.3732,-0.0487,-538.82,-1452.45,-125.12
10800,-3.8718,0.3763,-0.0498,-226.32,1766.30,546.75
10810,-3.8718,0.3856,-0.0491,179.93,1625.73,1031.13
10820,-3.8718,0.3986,-0.0494,1367.43,1719.48,1265.50
10830,-3.8718,0.4083,-0.0475,-976.32,1672.61,1453.00
10840,-3.8718,0.4115,-0.0413,273.68,1922.67,1796.75
10850,-3.8718,0.4084,-0.0322,679.93,-1280.46,-1312.62
10860,-3.8717,0.4043,-0.0183,289.31,-124.21,531.13
10870,-3.8717,0.4059,-0.0061,-241.94,1656.98,-1109.44
10880,-3.8716,0.4146,-0.0017,-38.82,-780.52,921.81
10890,-3.8716,0.4272,-0.0046,1070.56,-217.96,1687.44
10900,-3.8716,0.4427,-0.0135,-1304.44,-592.96,1453.06
10910,-3.8716,0.4537,-0.0194,679.93,-1733.52,1312.44
10920,-3.8716,0.4528,-0.0145,-1913.82,1516.48,1406.19
10930,-3.8716,0.4493,-0.0022,1961.18,-1858.52,1734.31
10940,-3.8716,0.4598,0.0077,1523.68,-280.40,-1781.31
10950,-3.8716,0.4856,0.0105,-1132.57,985.23,-1578.12
10960,-3.8716,0.5164,0.0100,-1835.69,1344.67,-1859.38
10970,-3.8716,0.5386,0.0094,-1898.19,1282.23,1734.38
10980,-3.8716,0.5387,0.0078,945.56,1204.16,1796.88
10990,-3.8716,0.5138,0.0023,961.18,1001.04,-1984.38
11000,-3.8716,0.4756,-0.0095,1773.68,297.85,1703.12
11010,-3.8716,0.4395,-0.0231,883.06,-1217.83,578.06
11020,-3.8717,0.4174,-0.0292,258.06,1047.73,-1296.94
11030,-3.8717,0.4115,-0.0227,1429.93,266.42,624.94
11040,-3.8718,0.4188,-0.0066,679.93,1094.54,-1343.81
11050,-3.8718,0.4386,0.0162,1617.43,-842.96,1468.69
11060,-3.8718,0.4678,0.0443,148.68,-1921.02,1296.88
11070,-3.8718,0.5076,0.0684,-116.94,1672.73,1421.94
11080,-3.8718,0.5609,0.0861,976.81,750.98,1843.87
11090,-3.8718,0.6149,0.1042,-195.07,-983.34,-1078.00
11100,-3.8717,0.6510,0.1241,-1288.82,1344.91,906.43
11110,-3.8717,0.6638,0.1404,-663.82,-108.15,-46.69
11120,-3.8716,0.6587,0.1479,976.81,1970.03,-468.51
11130,-3.8715,0.6425,0.1481,320.56,-1061.22,-1281.01
11140,-3.8713,0.6202,0.1473,-1757.57,-1045.65,968.99
11150,-3.8713,0.5940,0.1537,-601.32,-1139.47,-1171.63
11160,-3.8712,0.5620,0.1647,39.31,-326.97,1031.49
11170,-3.8712,0.5262,0.1647,-54.44,1079.16,-1202.82
11180,-3.8712,0.4933,0.1443,-632.57,1079.10,-1249.69
11190,-3.8712,0.4694,0.1113,-851.32,-1530.33,640.87
11200,-3.8713,0.4568,0.0803,86.18,-1749.08,984.56
11210,-3.8715,0.4585,0.0634,-1523.19,-1717.90,953.25
11220,-3.8716,0.4735,0.0725,-1304.44,110.23,-1765.50
11230,-3.8716,0.4962,0.1091,617.43,1282.17,1890.75
11240,-3.8715,0.5226,0.1632,-476.32,1969.67,187.68
11250,-3.8713,0.5448,0.2211,-1101.32,891.60,187.81
11260,-3.8712,0.5583,0.2650,1742.43,297.91,375.43
11270,-3.8712,0.5646,0.2821,-523.19,1922.91,-562.01
11280,-3.8711,0.5610,0.2767,273.68,110.47,594.30
11290,-3.8712,0.5447,0.2634,-179.44,-577.09,-108.89
11300,-3.8712,0.5204,0.2490,1726.81,1719.79,-1843.26
11310,-3.8712,0.4922,0.2378,-1382.57,-124.02,1016.05
11320,-3.8712,0.4604,0.2419,-991.94,-1561.58,1516.05
11330,-3.8712,0.4344,0.2681,-1054.44,-1030.40,-530.82
11340,-3.8711,0.4255,0.3086,-382.57,-1686.71,-999.51
11350,-3.8710,0.4298,0.3474,-1523.19,-499.21,-280.70
11360,-3.8707,0.4340,0.3690,-976.32,469.54,203.80
11370,-3.8707,0.4252,0.3705,-445.07,-764.83,-1077.45
11380,-3.8707,0.4043,0.3583,-1570.07,-577.33,-811.83
11390,-3.8707,0.3867,0.3420,-241.94,1860.11,1938.17
11400,-3.8707,0.3844,0.3357,1508.06,-218.02,250.61
11410,-3.8708,0.3979,0.3467,1211.18,-1030.52,-905.64
11420,-3.8708,0.4196,0.3702,-1054.44,375.73,-936.83
11430,-3.8708,0.4382,0.3977,1711.18,-608.58,-374.33
11440,-3.8707,0.4473,0.4196,101.81,-1092.90,0.73
11450,-3.8708,0.4484,0.4272,1258.06,1703.98,-342.96
11460,-3.8708,0.4474,0.4209,1398.68,-1311.65,-1796.08
11470,-3.8710,0.4530,0.4097,1273.68,1875.85,-46.08
11480,-3.8710,0.4651,0.4028,1992.43,438.35,1422.67
11490,-3.8711,0.4762,0.4004,-460.69,-436.65,-889.89
11500,-3.8711,0.4814,0.3969,961.18,-749.08,1485.11
11510,-3.8711,0.4779,0.3888,1633.06,-1202.21,375.73
11520,-3.8712,0.4690,0.3782,1179.93,1766.54,-311.77
11530,-3.8712,0.4667,0.3711,39.31,407.17,-452.39
11540,-3.8712,0.4783,0.3700,-257.57,-499.15,-155.58
11550,-3.8711,0.4990,0.3752,1226.81,-639.71,516.30
11560,-3.8711,0.5205,0.3870,-116.94,32.17,1735.11
11570,-3.8711,0.5359,0.3986,-1366.94,1532.23,-718.02
11580,-3.8710,0.5385,0.4003,601.81,-983.34,516.36
11590,-3.8710,0.5255,0.3916,929.93,-764.59,1000.73
11600,-3.8710,0.5020,0.3799,-726.32,-1874.02,860.11
11610,-3.8710,0.4753,0.3706,258.06,625.98,344.48
11620,-3.8711,0.4551,0.3641,851.81,-561.58,-343.08
11630,-3.8711,0.4464,0.3551,-1741.94,-1389.77,-1093.08
11640,-3.8711,0.4443,0.3440,1148.68,1453.98,-1827.45
11650,-3.8711,0.4449,0.3383,883.06,32.10,-1921.20
11660,-3.8711,0.4460,0.3427,961.18,-702.27,-1124.39
11670,-3.8710,0.4446,0.3574,1101.81,-139.77,359.99
11680,-3.8710,0.4399,0.3762,914.31,1750.85,-1561.83
11690,-3.8708,0.4355,0.3885,320.56,157.10,891.36
11700,-3.8708,0.4309,0.3948,-241.94,1735.17,-546.14
11710,-3.8707,0.4214,0.4005,-835.69,-1467.96,1531.98
11720,-3.8707,0.4084,0.4064,1945.56,-733.58,-1139.89
11730,-3.8706,0.3922,0.4095,289.31,16.42,32.04
11740,-3.8706,0.3687,0.4117,-1788.82,422.61,1219.54
11750,-3.8706,0.3407,0.4128,-804.44,703.80,-1592.96
11760,-3.8706,0.3151,0.4121,-382.57,844.36,-421.08
11770,-3.8705,0.2928,0.4113,336.18,750.61,188.29
11780,-3.8705,0.2709,0.4099,1492.43,641.17,125.79
11790,-3.8706,0.2468,0.4082,-1320.07,469.24,-171.08
11800,-3.8706,0.2213,0.4044,-398.19,250.43,-483.58
11810,-3.8706,0.1982,0.3999,336.18,-233.95,-843.02
11820,-3.8706,0.1848,0.3981,1383.06,-812.13,-1358.64
11830,-3.8706,0.1805,0.3967,-335.69,-1046.57,-1905.52
11840,-3.8706,0.1753,0.3929,-882.57,-1218.44,1297.61
11850,-3.8706,0.1641,0.3867,-1554.44,-1702.82,422.61
11860,-3.8707,0.1520,0.3765,1008.06,1500.31,-405.52
11870,-3.8707,0.1458,0.3591,-538.82,187.74,-1858.64
11880,-3.8708,0.1461,0.3350,-1335.69,1968.99,-311.83
11890,-3.8708,0.1497,0.3083,-1288.82,-1124.76,828.74
11900,-3.8710,0.1516,0.2839,-835.69,-531.01,-1936.95
11910,-3.8711,0.1508,0.2616,-585.69,343.99,-952.58
11920,-3.8711,0.1511,0.2443,-695.07,1484.62,156.74
11930,-3.8712,0.1553,0.2413,-648.19,-734.13,-1421.45
11940,-3.8712,0.1602,0.2562,-116.94,-1109.13,-921.45
11950,-3.8711,0.1637,0.2771,508.06,797.18,1562.99
11960,-3.8710,0.1693,0.2913,961.18,-530.94,1328.61
11970,-3.8708,0.1777,0.2938,1679.93,1281.56,766.17
11980,-3.8708,0.1796,0.2816,-1241.94,1609.68,-1890.08
11990,-3.8708,0.1682,0.2551,-1007.57,47.18,719.30
12000,-3.8710,0.1469,0.2196,1539.31,656.56,1250.49
12010,-3.8711,0.1151,0.1766,-1195.07,109.62,844.18
12020,-3.8713,0.0786,0.1272,-1257.57,-1390.44,-124.69
12030,-3.8715,0.0544,0.0813,-1929.44,281.37,-1343.51
12040,-3.8716,0.0537,0.0513,-1023.19,-1593.69,-1843.63
12050,-3.8717,0.0735,0.0415,-1116.94,-1437.44,-1124.94
12060,-3.8717,0.1078,0.0490,1414.31,1312.62,796.94
12070,-3.8718,0.1504,0.0676,1804.93,-1734.19,-93.69
12080,-3.8718,0.1871,0.0833,-741.94,656.49,-359.25
12090,-3.8718,0.2021,0.0862,-38.82,-1343.44,-593.63
12100,-3.8718,0.1935,0.0747,1883.06,-968.38,-921.75
12110,-3.8718,0.1722,0.0477,773.68,1562.87,-1624.88
12120,-3.8718,0.1492,0.0107,-1945.07,-1890.32,281.31
12130,-3.8719,0.1288,-0.0317,-898.19,1375.24,750.00
12140,-3.8721,0.1113,-0.0748,492.43,-62.26,624.88
12150,-3.8722,0.0955,-0.1045,-1741.94,-1577.94,1093.57
12160,-3.8723,0.0819,-0.1124,226.81,-1374.82,-875.24
12170,-3.8723,0.0760,-0.1071,-1507.57,1609.50,-1375.24
12180,-3.8723,0.0856,-0.0951,1742.43,-1703.00,-468.99
12190,-3.8722,0.1111,-0.0779,-1038.82,-171.75,1406.01
12200,-3.8722,0.1445,-0.0583,-1773.19,-1968.57,-328.31
12210,-3.8721,0.1738,-0.0439,-1491.94,531.49,1796.75
12220,-3.8721,0.1885,-0.0430,-1741.94,-1624.69,-890.75
12230,-3.8721,0.1808,-0.0531,133.06,-1499.63,-812.62
12240,-3.8721,0.1517,-0.0685,-851.32,1203.43,1874.88
12250,-3.8722,0.1134,-0.0858,-570.07,-765.38,-406.43
12260,-3.8722,0.0791,-0.1039,-1476.32,1015.81,1406.07
12270,-3.8723,0.0527,-0.1200,-1866.94,-1296.75,-500.24
12280,-3.8723,0.0358,-0.1298,-1241.94,640.69,1859.13
12290,-3.8723,0.0328,-0.1370,586.18,-609.31,624.69
12300,-3.8724,0.0453,-0.1487,211.18,-1531.19,-687.81
12310,-3.8724,0.0712,-0.1656,1804.93,968.81,1843.44
12320,-3.8724,0.1016,-0.1836,1117.43,-1203.00,390.26
12330,-3.8726,0.1202,-0.1985,1008.06,500.18,-656.62
12340,-3.8726,0.1187,-0.2075,-601.32,-1406.07,-1016.05
12350,-3.8726,0.1049,-0.2113,-804.44,1437.68,-687.93
12360,-3.8724,0.0956,-0.2118,1429.93,953.31,265.20
12370,-3.8724,0.1029,-0.2114,242.43,890.81,1374.57
12380,-3.8724,0.1296,-0.2174,1179.93,937.68,1702.70
12390,-3.8724,0.1703,-0.2330,601.81,172.12,733.95
12400,-3.8726,0.2097,-0.2505,1804.93,-1827.82,-1375.49
12410,-3.8726,0.2358,-0.2611,-1148.19,-62.13,374.45
12420,-3.8727,0.2483,-0.2610,-1804.44,-1421.45,-844.30
12430,-3.8727,0.2504,-0.2505,-210.69,-1405.82,-297.42
12440,-3.8726,0.2462,-0.2358,54.93,-62.01,1936.95
12450,-3.8724,0.2473,-0.2247,-476.32,1812.93,1155.76
12460,-3.8724,0.2537,-0.2166,-335.69,-765.20,-734.86
12470,-3.8724,0.2588,-0.2076,476.81,281.74,-1469.18
12480,-3.8724,0.2655,-0.1954,1133.06,1422.36,546.45
12490,-3.8726,0.2736,-0.1888,1992.43,-1015.14,-937.93
12500,-3.8726,0.2793,-0.2002,-976.32,-171.39,1468.32
12510,-3.8727,0.2913,-0.2338,-241.94,-1624.51,-1891.05
12520,-3.8728,0.3263,-0.2793,1289.31,-1921.33,1577.64
12530,-3.8729,0.3766,-0.3113,1773.68,250.61,-1266.17
12540,-3.8729,0.4159,-0.3126,211.18,156.98,-563.11
12550,-3.8727,0.4294,-0.2819,1242.43,-14.83,46.20
12560,-3.8726,0.4131,-0.2334,-1023.19,-77.33,-31.86
12570,-3.8722,0.3748,-0.1891,883.06,-1874.21,1796.39
12580,-3.8719,0.3308,-0.1614,-23.19,-202.45,-297.30
12590,-3.8716,0.2886,-0.1449,-1648.19,-655.64,62.13
12600,-3.8715,0.2517,-0.1327,945.56,1453.67,-1765.93
12610,-3.8713,0.2266,-0.1305,226.81,-983.89,1812.19
12620,-3.8713,0.2240,-0.1466,1008.06,-702.70,-765.93
12630,-3.8713,0.2427,-0.1737,679.93,1234.80,-359.68
12640,-3.8713,0.2637,-0.1980,-929.44,1766.05,-906.62
12650,-3.8713,0.2802,-0.2120,1758.06,-1343.26,-1625.43
12660,-3.8713,0.2941,-0.2061,-132.57,859.86,-1422.30
12670,-3.8713,0.3086,-0.1748,1648.68,1625.55,-219.18
12680,-3.8712,0.3339,-0.1326,-491.94,1625.55,1874.63
12690,-3.8711,0.3772,-0.0935,-1257.57,-968.14,859.07
12700,-3.8711,0.4294,-0.0641,289.31,31.98,-547.06
12710,-3.8710,0.4799,-0.0549,-1023.19,-202.33,109.19
12720,-3.8711,0.5269,-0.0684,1429.93,969.67,-1797.00
12730,-3.8712,0.5647,-0.0986,-554.44,-749.02,1718.57
12740,-3.8715,0.5879,-0.1395,289.31,-623.90,-468.99
12750,-3.8716,0.6000,-0.1752,-741.94,-1858.28,-1953.43
12760,-3.8717,0.6033,-0.1879,804.93,1579.28,-1031.62
12770,-3.8717,0.6013,-0.1765,1226.81,-45.72,-1625.43
12780,-3.8716,0.5979,-0.1514,976.81,1407.41,46.51
12790,-3.8716,0.5891,-0.1256,539.31,626.16,-1187.81
12800,-3.8715,0.5686,-0.1067,-585.69,-77.03,1359.07
12810,-3.8715,0.5432,-0.0944,789.31,-1655.15,-734.62
12820,-3.8713,0.5283,-0.0875,1539.31,-77.09,484.13
12830,-3.8713,0.5284,-0.0909,-366.94,797.85,796.69
12840,-3.8715,0.5355,-0.1095,-351.32,360.35,-297.06
12850,-3.8715,0.5354,-0.1296,554.93,1985.41,-1859.62
12860,-3.8715,0.5171,-0.1321,539.31,-592.71,968.44
12870,-3.8715,0.4874,-0.1115,-1804.44,-905.27,421.57
12880,-3.8715,0.4615,-0.0693,-1601.32,1735.29,1218.51
12890,-3.8715,0.4498,-0.0153,-913.82,-874.15,-453.31
12900,-3.8713,0.4530,0.0317,1586.18,-1952.27,-734.44
12910,-3.8712,0.4656,0.0544,1992.43,63.35,-93.69
12920,-3.8710,0.4828,0.0490,-398.19,-1030.40,906.31
12930,-3.8708,0.4978,0.0227,1804.93,-1733.46,1437.56
12940,-3.8707,0.5062,-0.0087,-273.19,-1092.83,578.12
12950,-3.8707,0.5126,-0.0325,804.93,-1108.40,-1859.44
12960,-3.8707,0.5256,-0.0449,1617.43,-155.27,-1015.75
12970,-3.8707,0.5460,-0.0438,-710.69,-1749.02,-62.62
12980,-3.8706,0.5668,-0.0281,1898.68,-1608.34,1374.88
12990,-3.8706,0.5802,0.0000,554.93,407.35,-984.44
13000,-3.8706,0.5817,0.0317,-1726.32,1.10,-515.62
13010,-3.8706,0.5736,0.0540,-1538.82,63.60,1906.31
13020,-3.8707,0.5609,0.0579,1429.93,-1092.65,-1968.69
13030,-3.8710,0.5446,0.0464,-195.07,-592.71,-249.94
13040,-3.8712,0.5212,0.0292,1711.18,1938.54,-749.94
13050,-3.8715,0.4924,0.0149,-1273.19,-264.65,1640.62
13060,-3.8717,0.4669,0.0024,-960.69,1907.17,546.88
13070,-3.8719,0.4569,-0.0084,-226.32,313.35,1625.00
13080,-3.8721,0.4636,-0.0023,-1507.57,-1077.27,-1640.69
13090,-3.8721,0.4750,0.0332,-648.19,-296.02,-1078.19
13100,-3.8719,0.4833,0.0929,804.93,250.92,-1249.94
13110,-3.8717,0.4850,0.1628,1867.43,-108.46,890.75
13120,-3.8716,0.4753,0.2283,-1913.82,844.67,-93.44
13130,-3.8713,0.4573,0.2734,851.81,1219.67,-1780.82
13140,-3.8712,0.4421,0.2855,-1460.69,-999.15,-937.01
13150,-3.8711,0.4331,0.2627,601.81,547.73,-1796.33
13160,-3.8711,0.4279,0.2223,-554.44,1625.79,-296.39
13170,-3.8710,0.4235,0.1954,-1226.32,453.92,1391.05
13180,-3.8708,0.4194,0.1980,-1788.82,1016.42,359.74
13190,-3.8707,0.4176,0.2296,1695.56,1344.54,469.12
13200,-3.8706,0.4182,0.2871,1461.18,1391.42,-1483.95
13210,-3.8704,0.4274,0.3470,1539.31,750.79,-1374.45
13220,-3.8701,0.4542,0.3712,-1288.82,422.67,-671.20
13230,-3.8699,0.4919,0.3500,-1851.32,-483.52,-1827.45
13240,-3.8698,0.5240,0.3040,-1023.19,797.79,1406.92
13250,-3.8698,0.5430,0.2538,-913.82,-1092.77,1625.55
13260,-3.8698,0.5492,0.2094,1508.06,485.41,1000.49
13270,-3.8698,0.5431,0.1774,-1695.07,-1202.09,312.87
13280,-3.8699,0.5264,0.1669,1523.68,-1295.84,-671.57
13290,-3.8699,0.5011,0.1813,-616.94,1360.35,-1937.19
13300,-3.8699,0.4644,0.2131,148.68,-795.90,1000.31
13310,-3.8699,0.4155,0.2466,-554.44,-717.90,1344.12
13320,-3.8699,0.3643,0.2607,1195.56,-436.71,-1452.70
13330,-3.8699,0.3212,0.2435,-1366.94,1375.67,-1187.01
13340,-3.8699,0.2892,0.2036,1117.43,-827.51,969.18
13350,-3.8700,0.2666,0.1597,1023.68,-1936.95,1437.87
13360,-3.8701,0.2502,0.1259,-1866.94,437.99,1281.56
13370,-3.8702,0.2406,0.1093,39.31,109.86,1218.99
13380,-3.8704,0.2406,0.1056,-1195.07,1984.80,1656.43
13390,-3.8705,0.2474,0.1112,-1195.07,1516.05,-1359.19
13400,-3.8705,0.2529,0.1346,-320.07,-1765.20,922.06
13410,-3.8705,0.2501,0.1812,383.06,1234.86,1625.24
13420,-3.8704,0.2445,0.2391,23.68,-812.01,703.43
13430,-3.8702,0.2504,0.2826,-695.07,-1390.20,937.93
13440,-3.8701,0.2723,0.2906,54.93,172.36,109.92
13450,-3.8701,0.2944,0.2686,-1132.57,1203.61,438.05
13460,-3.8702,0.2959,0.2332,1695.56,-1624.45,1828.61
13470,-3.8704,0.2733,0.1956,1883.06,1844.30,1547.30
13480,-3.8705,0.2373,0.1611,-1007.57,1031.74,594.12
13490,-3.8707,0.1996,0.1389,-1616.94,625.43,-702.82
13500,-3.8708,0.1660,0.1476,1554.93,1781.62,-1140.38
13510,-3.8708,0.1425,0.1870,1258.06,-1109.07,1078.37
13520,-3.8708,0.1359,0.2354,-1757.57,-62.26,-1452.82
13530,-3.8707,0.1412,0.2705,1398.68,-1874.76,1703.55
13540,-3.8706,0.1495,0.2800,-1913.82,-1374.76,297.36
13550,-3.8706,0.1586,0.2657,-851.32,-156.01,969.24
13560,-3.8707,0.1650,0.2383,304.93,-1984.07,-1140.14
13570,-3.8708,0.1665,0.2025,1133.06,-1499.69,-1765.20
13580,-3.8710,0.1630,0.1603,1320.56,1922.18,625.37
13590,-3.8712,0.1541,0.1205,867.43,515.93,-984.07
13600,-3.8713,0.1392,0.0901,-273.19,-577.88,1843.93
13610,-3.8715,0.1191,0.0673,1820.56,-468.51,1656.37
13620,-3.8716,0.1012,0.0475,-741.94,609.56,-1406.13
13630,-3.8716,0.0902,0.0269,961.18,-1921.69,93.81
13640,-3.8717,0.0831,0.0062,-445.07,-562.38,1625.00
13650,-3.8718,0.0741,-0.0050,-1351.32,797.00,-812.50
13660,-3.8718,0.0590,0.0009,1492.43,-640.50,1734.31
13670,-3.8718,0.0392,0.0177,-445.07,109.44,-1906.25
13680,-3.8718,0.0210,0.0341,1023.68,-1734.31,-515.62
13690,-3.8717,0.0106,0.0521,-1304.44,359.38,1437.56
13700,-3.8716,0.0127,0.0762,1367.43,-1328.12,187.56
13710,-3.8716,0.0376,0.0897,1633.06,1750.00,-484.25
13720,-3.8715,0.0840,0.0826,820.56,-515.56,-1734.25
13730,-3.8715,0.1281,0.0676,-1241.94,-1421.75,-1265.50
13740,-3.8715,0.1506,0.0536,398.68,656.49,765.75
13750,-3.8716,0.1523,0.0454,-710.69,-1140.38,1781.31
13760,-3.8717,0.1442,0.0416,-491.94,1812.74,-687.44
13770,-3.8717,0.1284,0.0370,-1538.82,1328.37,-1906.19
13780,-3.8717,0.1051,0.0310,445.56,734.62,-1890.56
13790,-3.8717,0.0787,0.0219,1461.18,-31.07,-1171.88
13800,-3.8717,0.0530,0.0135,-1913.82,-1203.00,-406.25
13810,-3.8716,0.0281,0.0093,-1210.69,1734.44,296.88
13820,-3.8716,0.0042,0.0052,-398.19,1187.50,1125.00
13830,-3.8716,-0.0161,-0.0016,539.31,671.88,1625.00
13840,-3.8716,-0.0291,-0.0085,1945.56,-187.56,1296.81
13850,-3.8717,-0.0333,-0.0167,289.31,-1078.19,-437.56
13860,-3.8717,-0.0299,-0.0287,-257.57,1874.88,593.69
13870,-3.8718,-0.0203,-0.0432,179.93,343.69,1281.19
13880,-3.8719,-0.0072,-0.0586,1414.31,-1515.69,1999.88
13890,-3.8721,0.0022,-0.0729,-913.82,515.56,-984.50
13900,-3.8721,-0.0007,-0.0845,289.31,-1328.12,687.32
13910,-3.8722,-0.0168,-0.0968,-85.69,1203.06,-1312.68
13920,-3.8722,-0.0374,-0.1139,1851.81,-375.06,1015.38
13930,-3.8723,-0.0530,-0.1313,-773.19,1437.38,-156.49
13940,-3.8723,-0.0616,-0.1439,1226.81,-797.00,1843.44
13950,-3.8724,-0.0662,-0.1570,117.43,1593.63,-1906.56
13960,-3.8726,-0.0608,-0.1705,-460.69,-78.31,-1703.49
13970,-3.8727,-0.0449,-0.1824,226.81,-1812.62,-344.12
13980,-3.8727,-0.0264,-0.1971,-1741.94,671.75,1671.51
13990,-3.8727,-0.0105,-0.2188,633.06,-1218.81,46.45
14000,-3.8728,-0.0004,-0.2457,-1335.69,15.56,-1266.05
14010,-3.8728,0.0024,-0.2698,-38.82,562.44,1687.01
14020,-3.8728,-0.0005,-0.2849,320.56,1468.75,1343.20
14030,-3.8728,-0.0021,-0.2883,-54.44,-453.19,-1609.99
14040,-3.8727,0.0010,-0.2802,-257.57,-890.69,265.01
14050,-3.8727,0.0126,-0.2631,133.06,140.62,-1656.80
14060,-3.8726,0.0417,-0.2406,1617.43,-1671.88,77.58
14070,-3.8726,0.0881,-0.2207,1351.81,1203.19,1546.39
14080,-3.8726,0.1454,-0.2061,-710.69,-249.88,-219.24
14090,-3.8724,0.2057,-0.1910,-1382.57,1625.24,-1047.30
14100,-3.8723,0.2570,-0.1742,-1663.82,-452.76,-1109.80
14110,-3.8722,0.2916,-0.1530,898.68,1703.61,-328.49
14120,-3.8719,0.3094,-0.1267,1336.18,422.42,484.07
14130,-3.8718,0.3135,-0.1007,-382.57,-218.20,843.44
14140,-3.8717,0.3090,-0.0796,133.06,-890.01,812.26
14150,-3.8717,0.3020,-0.0692,-445.07,1813.05,-437.68
14160,-3.8716,0.3019,-0.0736,-1335.69,-858.83,343.57
14170,-3.8717,0.3204,-0.0874,-1351.32,-1421.33,-828.31
14180,-3.8717,0.3582,-0.1039,1023.68,813.11,1093.57
14190,-3.8718,0.4019,-0.1215,1851.81,-1296.20,-1437.74
14200,-3.8718,0.4463,-0.1317,-554.44,453.86,62.26
14210,-3.8719,0.4857,-0.1205,1133.06,-858.52,-922.18
14220,-3.8718,0.5095,-0.0874,-1820.07,579.04,327.88
14230,-3.8718,0.5138,-0.0474,1226.81,813.48,-78.31
14240,-3.8716,0.4945,-0.0181,1773.68,1938.48,921.75
14250,-3.8715,0.4474,-0.0111,-695.07,1688.42,953.06
14260,-3.8715,0.3807,-0.0275,1273.68,-1421.02,-1984.44
14270,-3.8716,0.3192,-0.0621,742.43,485.11,-484.44
14280,-3.8717,0.2853,-0.1030,867.43,47.49,-1640.75
14290,-3.8718,0.2815,-0.1334,523.68,-1186.95,1593.51
14300,-3.8719,0.2975,-0.1465,39.31,-1077.58,-1234.68
14310,-3.8719,0.3203,-0.1444,-1913.82,1250.55,1187.19
14320,-3.8719,0.3439,-0.1254,1008.06,1516.24,1109.07
14330,-3.8719,0.3667,-0.0929,23.68,-46.20,-1422.18
14340,-3.8718,0.3848,-0.0576,-1054.44,110.05,1015.44
14350,-3.8717,0.3940,-0.0308,1258.06,625.73,31.13
14360,-3.8717,0.3969,-0.0291,-1554.44,63.23,-1281.31
14370,-3.8717,0.4004,-0.0588,-1195.07,281.98,-15.69
14380,-3.8716,0.4031,-0.0986,-741.94,469.48,203.00
14390,-3.8717,0.3984,-0.1222,-398.19,-624.27,-250.24
14400,-3.8717,0.3901,-0.1221,-991.94,360.11,-1359.62
14410,-3.8717,0.3882,-0.1022,1945.56,375.73,-1031.49
14420,-3.8716,0.3938,-0.0765,1695.56,-1077.39,1671.63
14430,-3.8715,0.4027,-0.0598,-1585.69,-1796.14,1187.32
14440,-3.8713,0.4149,-0.0530,-445.07,344.48,203.00
14450,-3.8713,0.4302,-0.0464,1117.43,1219.54,-1203.25
14460,-3.8712,0.4443,-0.0345,-929.44,-1936.71,999.88
14470,-3.8712,0.4541,-0.0228,883.06,-421.02,-1078.25
14480,-3.8711,0.4633,-0.0178,-1866.94,1078.98,656.19
14490,-3.8711,0.4791,-0.0237,-695.07,1719.60,1609.31
14500,-3.8711,0.4995,-0.0345,1336.18,969.67,1671.81
14510,-3.8711,0.5111,-0.0396,-54.44,-420.96,859.25
14520,-3.8712,0.5054,-0.0338,1429.93,-1061.52,-187.62
14530,-3.8712,0.4803,-0.0160,695.56,-327.15,-578.25
14540,-3.8712,0.4382,0.0094,1492.43,1954.04,-234.44
14550,-3.8711,0.3907,0.0345,101.81,1203.98,359.38
14560,-3.8711,0.3538,0.0571,-1976.32,422.61,1140.69
14570,-3.8711,0.3356,0.0770,1289.31,-686.83,1859.44
14580,-3.8711,0.3392,0.0907,-1038.82,1859.99,-1843.63
14590,-3.8711,0.3588,0.0962,-570.07,-390.01,-1953.00
14600,-3.8711,0.3774,0.0950,1929.93,313.17,968.93
14610,-3.8712,0.3888,0.0914,320.56,156.98,-718.57
14620,-3.8712,0.3972,0.0887,1773.68,-296.14,-1828.00
14630,-3.8712,0.4033,0.0897,-1148.19,-639.89,1968.87
14640,-3.8712,0.4043,0.0966,-366.94,-514.89,-1656.13
14650,-3.8712,0.3988,0.1094,-241.94,360.11,-546.69
14660,-3.8711,0.3881,0.1327,-945.07,-1999.27,1656.43
14670,-3.8710,0.3760,0.1631,1679.93,985.11,578.37
14680,-3.8710,0.3647,0.1882,133.06,875.73,-93.44
14690,-3.8708,0.3486,0.2021,-1304.44,94.42,-1093.38
14700,-3.8707,0.3271,0.1998,633.06,1875.67,484.74
14710,-3.8707,0.3082,0.1849,1883.06,1578.74,906.62
14720,-3.8707,0.2977,0.1702,-538.82,-327.58,859.68
14730,-3.8707,0.3016,0.1599,-1882.57,1781.80,609.68
14740,-3.8708,0.3217,0.1531,-1382.57,469.30,-155.94
14750,-3.8708,0.3555,0.1482,1179.93,-405.64,-1577.88
14760,-3.8708,0.3937,0.1522,1508.06,-1030.58,1312.74
14770,-3.8708,0.4280,0.1733,-1601.32,-514.89,1500.24
14780,-3.8708,0.4576,0.2097,-1210.69,-1811.71,-702.82
14790,-3.8707,0.4780,0.2535,-1413.82,-1155.40,-1468.38
14800,-3.8706,0.4855,0.2910,1195.56,454.04,-1937.01
14810,-3.8705,0.4812,0.3043,-1851.32,1250.92,594.30
14820,-3.8705,0.4626,0.2891,1601.81,-1045.96,1188.05
14830,-3.8706,0.4281,0.2570,-773.19,1000.85,-452.58
14840,-3.8706,0.3827,0.2214,-1195.07,891.42,625.49
14850,-3.8707,0.3361,0.1940,992.43,344.48,1594.18
14860,-3.8708,0.2966,0.1820,-976.32,828.74,-999.63
14870,-3.8708,0.2686,0.1868,1976.81,-702.58,1531.56
14880,-3.8708,0.2531,0.2053,-1616.94,-93.26,1406.56
14890,-3.8708,0.2479,0.2325,398.68,-1718.26,-1812.13
14900,-3.8708,0.2507,0.2563,-257.57,1766.05,-780.82
14910,-3.8708,0.2576,0.2634,101.81,812.99,-718.26
14920,-3.8708,0.2653,0.2523,976.81,1719.24,1437.99
14930,-3.8710,0.2704,0.2329,1961.18,297.36,1719.24
14940,-3.8711,0.2665,0.2140,-1382.57,1812.99,906.68
14950,-3.8712,0.2548,0.1990,-1882.57,-608.89,78.49
14960,-3.8713,0.2401,0.1906,617.43,1469.24,281.62
14970,-3.8715,0.2260,0.1954,-1257.57,391.05,-1343.38
14980,-3.8713,0.2196,0.2209,929.93,1016.05,31.62
14990,-3.8712,0.2290,0.2632,117.43,281.68,172.30
15000,-3.8711,0.2559,0.3073,1320.56,1687.93,-1983.89
15010,-3.8710,0.2948,0.3425,758.06,-671.39,-155.70
15020,-3.8707,0.3342,0.3682,1742.43,-155.70,656.86
15030,-3.8706,0.3634,0.3806,-1210.69,-874.39,688.17
15040,-3.8706,0.3779,0.3787,-1476.32,719.42,-14.89
15050,-3.8705,0.3788,0.3658,383.06,469.48,-1874.27
15060,-3.8705,0.3685,0.3442,492.43,-1171.14,-1139.95
15070,-3.8705,0.3503,0.3186,-820.07,63.17,-1702.45
15080,-3.8705,0.3279,0.2936,851.81,781.92,1109.99
15090,-3.8706,0.3063,0.2695,1976.81,1578.74,-61.95
15100,-3.8706,0.2943,0.2473,-788.82,-1499.45,-1124.51
15110,-3.8706,0.2935,0.2358,1679.93,-343.20,1547.30
15120,-3.8706,0.3011,0.2399,1570.56,-1811.95,469.18
15130,-3.8706,0.3162,0.2516,-1445.07,-1296.33,609.80
15140,-3.8706,0.3358,0.2626,476.81,203.74,1531.74
15150,-3.8706,0.3564,0.2689,-1007.57,1609.99,-1733.89
15160,-3.8706,0.3771,0.2683,1633.06,-1577.45,-1921.39
15170,-3.8706,0.3990,0.2626,273.68,-1655.52,656.74
15180,-3.8707,0.4224,0.2551,-913.82,1610.11,-1593.26
15190,-3.8707,0.4458,0.2471,-1929.44,657.04,47.36
15200,-3.8708,0.4650,0.2419,1070.56,-374.15,1625.43
15210,-3.8710,0.4803,0.2389,-476.32,-1030.40,-1093.32
15220,-3.8710,0.4996,0.2362,1492.43,-1420.96,0.43
15230,-3.8711,0.5229,0.2378,-38.82,-1764.71,1578.55
15240,-3.8711,0.5360,0.2504,-1054.44,-1561.52,625.43
15250,-3.8711,0.5232,0.2708,617.43,47.91,1469.24
15260,-3.8711,0.4830,0.2858,-1023.19,-1342.77,-577.64
15270,-3.8710,0.4210,0.2914,1836.18,579.04,-1983.83
15280,-3.8708,0.3490,0.2904,1898.68,1297.67,953.67
15290,-3.8708,0.2852,0.2849,679.93,1172.55,-811.95
15300,-3.8707,0.2437,0.2798,508.06,469.30,547.42
15310,-3.8707,0.2297,0.2742,-804.44,-187.07,1453.61
15320,-3.8707,0.2347,0.2643,1414.31,-905.82,1906.74
15330,-3.8707,0.2396,0.2522,-1945.07,1828.55,1609.86
15340,-3.8707,0.2333,0.2380,-1320.07,281.68,172.36
15350,-3.8708,0.2183,0.2238,1867.43,-1530.82,-1437.07
15360,-3.8708,0.1960,0.2146,-54.44,640.99,1750.43
15370,-3.8708,0.1687,0.2075,1101.81,-530.88,1500.37
15380,-3.8708,0.1442,0.1969,1601.81,-1437.19,1094.12
15390,-3.8708,0.1235,0.1852,-1538.82,1203.37,15.99
15400,-3.8710,0.1028,0.1827,-179.44,-296.69,-1624.69
15410,-3.8710,0.0847,0.1918,1164.31,-609.19,1109.68
15420,-3.8710,0.0690,0.2039,-1148.19,547.00,1031.62
15430,-3.8710,0.0492,0.2115,836.18,-1906.13,-1921.51
15440,-3.8710,0.0314,0.2062,-1695.07,-921.81,-1124.63
15450,-3.8710,0.0266,0.1823,23.68,-1609.31,1750.37
15460,-3.8711,0.0348,0.1510,-585.69,-671.88,-1452.82
15470,-3.8712,0.0493,0.1299,461.18,-671.81,-1327.88
15480,-3.8712,0.0624,0.1246,-1679.44,625.06,172.12
15490,-3.8713,0.0675,0.1307,-7.57,-46.81,-281.07
15500,-3.8712,0.0580,0.1426,648.68,734.50,359.62
15510,-3.8712,0.0338,0.1537,-570.07,-1749.94,937.74
15520,-3.8712,0.0066,0.1593,336.18,-328.06,1359.62
15530,-3.8712,-0.0138,0.1620,851.81,390.62,-1812.19
15540,-3.8712,-0.0186,0.1677,-1757.57,749.94,-624.69
15550,-3.8711,-0.0010,0.1776,1633.06,1484.31,906.56
15560,-3.8711,0.0348,0.1804,-116.94,-1250.06,-1905.94
15570,-3.8711,0.0792,0.1671,461.18,-906.19,1969.06
15580,-3.8711,0.1219,0.1423,-1851.32,1390.75,484.68
15590,-3.8712,0.1595,0.1140,-382.57,-1781.07,1672.12
15600,-3.8713,0.1912,0.0811,429.93,-1405.94,-1984.19
15610,-3.8715,0.2107,0.0442,476.81,-1624.63,-1249.88
15620,-3.8716,0.2107,0.0143,-1023.19,1656.62,-46.81
15630,-3.8716,0.1892,-0.0045,-1023.19,1828.49,750.00
15640,-3.8717,0.1593,-0.0182,226.81,-577.76,1109.31
15650,-3.8718,0.1393,-0.0375,398.68,1672.18,1609.31
15660,-3.8719,0.1315,-0.0615,1836.18,-796.63,-1437.62
15670,-3.8721,0.1265,-0.0780,836.18,125.24,-453.25
15680,-3.8721,0.1184,-0.0840,195.56,-1984.13,374.82
15690,-3.8722,0.1107,-0.0872,-835.69,1250.18,1406.07
15700,-3.8723,0.1094,-0.0942,-1820.07,843.93,-1218.93
15710,-3.8724,0.1146,-0.1091,-1991.94,-62.32,-125.24
15720,-3.8724,0.1205,-0.1327,-1320.07,-1968.57,187.26
15730,-3.8726,0.1237,-0.1619,-570.07,-984.19,265.32
15740,-3.8727,0.1235,-0.1886,-163.82,-718.57,827.76
15750,-3.8728,0.1190,-0.2084,-179.44,-140.44,-1859.80
15760,-3.8728,0.1139,-0.2225,-757.57,1328.31,15.20
15770,-3.8729,0.1138,-0.2341,-1413.82,-484.19,-1578.61
15780,-3.8729,0.1160,-0.2435,-1429.44,-1968.57,1358.89
15790,-3.8729,0.1096,-0.2482,-1148.19,828.31,1265.14
15800,-3.8729,0.0879,-0.2460,-1960.69,234.56,-1531.74
15810,-3.8728,0.0551,-0.2389,-741.94,515.75,405.76
15820,-3.8728,0.0255,-0.2341,-945.07,1421.94,-1328.61
15830,-3.8727,0.0106,-0.2357,-726.32,-1968.75,1062.01
15840,-3.8727,0.0122,-0.2405,1367.43,1828.12,-734.86
15850,-3.8726,0.0291,-0.2469,1570.56,1218.75,937.01
15860,-3.8726,0.0581,-0.2517,-273.19,390.62,-1734.86
15870,-3.8726,0.0934,-0.2449,-554.44,-218.69,-78.67
15880,-3.8724,0.1318,-0.2242,-38.82,656.37,-1766.11
15890,-3.8723,0.1720,-0.2000,883.06,-702.88,1249.51
15900,-3.8722,0.2059,-0.1788,-1976.32,-1593.44,608.95
15910,-3.8722,0.2258,-0.1624,-1632.57,1109.74,-172.24
15920,-3.8721,0.2343,-0.1511,914.31,-780.82,-1422.24
15930,-3.8719,0.2383,-0.1440,1992.43,656.68,921.57
15940,-3.8719,0.2410,-0.1389,-1491.94,1562.93,-1265.93
15950,-3.8719,0.2438,-0.1376,-1148.19,-1780.82,-78.43
15960,-3.8718,0.2458,-0.1436,-788.82,-1608.95,62.19
15970,-3.8719,0.2444,-0.1584,-523.19,1625.43,-1640.93
15980,-3.8721,0.2410,-0.1808,-710.69,-280.82,-297.24
15990,-3.8721,0.2404,-0.2018,-1148.19,859.80,1796.51
16000,-3.8721,0.2466,-0.2113,-1226.32,-1827.70,1030.82
16010,-3.8721,0.2605,-0.2063,-429.44,953.55,1343.32
16020,-3.8721,0.2791,-0.1925,1351.81,1594.24,-1266.05
16030,-3.8719,0.2925,-0.1764,-273.19,-640.14,499.57
16040,-3.8719,0.2926,-0.1656,1445.56,1422.42,1468.38
16050,-3.8719,0.2848,-0.1646,1461.18,-1202.58,1421.51
16060,-3.8719,0.2808,-0.1663,461.18,-1061.95,749.63
16070,-3.8721,0.2850,-0.1599,-54.44,-1280.76,-922.24
16080,-3.8721,0.3025,-0.1453,492.43,-468.20,1468.38
16090,-3.8721,0.3325,-0.1306,-1273.19,1406.80,1530.94
16100,-3.8721,0.3573,-0.1132,-1429.44,-718.14,-1125.31
16110,-3.8719,0.3678,-0.0791,1742.43,1516.30,1202.88
16120,-3.8718,0.3727,-0.0186,-913.82,1875.67,906.07
16130,-3.8717,0.3823,0.0554,-288.82,1625.67,-1953.19
16140,-3.8716,0.4054,0.1040,945.56,-905.52,-453.06
16150,-3.8715,0.4364,0.0978,-101.32,1313.23,-484.19
16160,-3.8713,0.4500,0.0481,-132.57,516.42,953.31
16170,-3.8715,0.4258,-0.0112,1601.81,-1842.90,-328.06
16180,-3.8716,0.3694,-0.0574,-1491.94,-1436.71,-140.69
16190,-3.8717,0.3085,-0.0875,-710.69,656.92,-578.25
16200,-3.8717,0.2611,-0.1053,-507.57,797.42,1062.32
16210,-3.8717,0.2230,-0.1034,1429.93,-1483.89,1484.13
16220,-3.8716,0.1915,-0.0723,554.93,-1233.95,374.76
16230,-3.8715,0.1774,-0.0209,523.68,-1249.63,1734.19
16240,-3.8712,0.1975,0.0305,-1288.82,1328.43,531.19
16250,-3.8711,0.2517,0.0702,1289.31,-93.38,-1203.12
16260,-3.8710,0.3235,0.0953,226.81,984.86,-1421.75
16270,-3.8708,0.3971,0.1138,1414.31,203.74,422.06
16280,-3.8708,0.4572,0.1321,-1163.82,-1436.77,1562.68
16290,-3.8708,0.4957,0.1412,-1476.32,907.10,-1859.13
16300,-3.8708,0.5146,0.1355,-538.82,-1920.96,-1202.88
16310,-3.8708,0.5116,0.1279,1883.06,1344.73,-327.88
16320,-3.8707,0.4847,0.1287,1492.43,375.98,312.74
16330,-3.8707,0.4482,0.1337,-1945.07,469.67,1422.12
16340,-3.8707,0.4133,0.1411,1383.06,1110.23,-577.88
16350,-3.8706,0.3828,0.1479,914.31,-1936.71,1047.12
16360,-3.8706,0.3623,0.1504,1008.06,-1061.77,1968.99
16370,-3.8706,0.3483,0.1511,-1616.94,-749.33,-1374.76
16380,-3.8706,0.3346,0.1514,586.18,-655.58,-1562.26
16390,-3.8706,0.3279,0.1530,-1163.82,-624.39,1078.37
16400,-3.8707,0.3345,0.1609,1976.81,-421.26,-749.76
16410,-3.8707,0.3500,0.1783,-1179.44,594.36,1734.68
16420,-3.8707,0.3635,0.2028,804.93,-1171.20,937.81
16430,-3.8707,0.3676,0.2283,-1460.69,1953.80,640.99
16440,-3.8707,0.3624,0.2472,-945.07,1219.42,641.05
16450,-3.8707,0.3516,0.2577,-1601.32,-358.70,891.05
16460,-3.8707,0.3379,0.2653,1008.06,985.05,1078.61
16470,-3.8707,0.3201,0.2723,-741.94,1953.74,922.36
16480,-3.8707,0.2979,0.2777,976.81,-1140.01,141.11
16490,-3.8708,0.2751,0.2826,-1866.94,-452.58,-874.51
16500,-3.8708,0.2563,0.2891,-773.19,172.36,-1311.95
16510,-3.8708,0.2532,0.2979,820.56,1000.49,-1311.95
16520,-3.8708,0.2743,0.3105,414.31,-1874.51,-874.45
16530,-3.8707,0.3087,0.3317,-882.57,-249.51,0.55
16540,-3.8707,0.3367,0.3610,-476.32,-1546.33,1141.24
16550,-3.8707,0.3478,0.3892,-898.19,-1796.26,-1155.58
16560,-3.8706,0.3398,0.4064,523.68,1813.17,938.23
16570,-3.8706,0.3162,0.4091,-491.94,16.24,-1514.83
16580,-3.8706,0.2899,0.4020,476.81,359.99,-1108.58
16590,-3.8706,0.2764,0.3936,1117.43,-546.33,-1608.64
16600,-3.8706,0.2817,0.3859,-616.94,-1624.51,1235.11
16610,-3.8707,0.3000,0.3798,70.56,1391.17,-171.14
16620,-3.8707,0.3204,0.3787,-1585.69,609.92,-1186.77
16630,-3.8707,0.3367,0.3820,1023.68,469.36,-1639.89
16640,-3.8707,0.3447,0.3864,-898.19,891.24,-1671.14
16650,-3.8707,0.3419,0.3868,133.06,1453.80,-1639.89
16660,-3.8707,0.3303,0.3800,-226.32,1516.24,-1733.64
16670,-3.8707,0.3109,0.3740,-1710.69,641.24,-1968.02
16680,-3.8707,0.2816,0.3733,-195.07,-124.45,1781.92
16690,-3.8707,0.2449,0.3705,54.93,-218.20,1531.92
16700,-3.8707,0.2058,0.3636,-648.19,-577.70,844.42
16710,-3.8708,0.1710,0.3513,-1648.19,-1452.76,-749.33
16720,-3.8708,0.1464,0.3344,1898.68,969.06,656.92
16730,-3.8710,0.1353,0.3188,-1257.57,-1202.88,1266.24
16740,-3.8711,0.1378,0.3094,1320.56,812.74,1375.61
16750,-3.8712,0.1495,0.3019,1648.68,-390.38,1484.92
16760,-3.8713,0.1619,0.2931,-851.32,-1359.13,-1202.58
16770,-3.8713,0.1655,0.2892,726.81,1515.93,1844.30
16780,-3.8713,0.1572,0.2920,1195.56,1015.93,-1702.58
16790,-3.8713,0.1420,0.2997,133.06,1375.31,-15.08
16800,-3.8712,0.1261,0.3125,-1820.07,-1640.38,-968.20
16810,-3.8711,0.1144,0.3295,148.68,0.24,-749.39
16820,-3.8710,0.1123,0.3469,-1351.32,-1827.94,-249.39
16830,-3.8708,0.1234,0.3628,-1616.94,406.43,-249.33
16840,-3.8707,0.1469,0.3721,-195.07,-1562.32,-858.70
16850,-3.8706,0.1782,0.3693,-1195.07,-374.76,1422.55
16860,-3.8706,0.2054,0.3549,-1179.44,-734.07,-1999.33
16870,-3.8706,0.2161,0.3387,-1695.07,1422.24,1672.55
16880,-3.8706,0.2111,0.3281,-335.69,-640.26,1563.11
16890,-3.8706,0.2008,0.3219,-976.32,-1999.63,-1921.26
16900,-3.8706,0.1907,0.3160,1711.18,1203.49,-1124.39
16910,-3.8706,0.1805,0.3090,414.31,453.49,-577.51
16920,-3.8706,0.1700,0.3037,-882.57,-452.82,-374.45
16930,-3.8706,0.1638,0.2993,1773.68,-1124.69,-655.70
16940,-3.8706,0.1680,0.2920,976.81,-1687.19,-1374.45
16950,-3.8706,0.1804,0.2830,1508.06,1375.31,1484.92
16960,-3.8707,0.1924,0.2755,-898.19,219.06,-124.45
16970,-3.8707,0.1975,0.2716,633.06,-734.01,-1702.64
16980,-3.8707,0.1952,0.2737,1289.31,-1234.01,1328.61
16990,-3.8707,0.1892,0.2797,992.43,-968.38,1187.99
17000,-3.8707,0.1833,0.2855,226.81,-202.76,1719.24
17010,-3.8707,0.1826,0.2880,-523.19,547.18,-1218.20
17020,-3.8707,0.1897,0.2830,-616.94,859.68,-15.08
17030,-3.8706,0.1993,0.2693,289.31,219.12,438.05
17040,-3.8707,0.2018,0.2515,1523.68,-1530.88,-280.76
17050,-3.8707,0.1952,0.2350,1836.18,187.87,-1874.51
17060,-3.8707,0.1851,0.2209,992.43,-1921.51,484.80
17070,-3.8708,0.1737,0.2095,-304.44,281.56,-905.82
17080,-3.8708,0.1591,0.2031,-1757.57,-1187.19,-1827.76
17090,-3.8708,0.1401,0.2012,367.43,-1999.69,1719.12
17100,-3.8708,0.1245,0.1978,1945.56,1750.24,1703.49
17110,-3.8708,0.1178,0.1897,-54.44,1312.68,1781.62
17120,-3.8708,0.1151,0.1790,-913.82,281.43,1015.99
17130,-3.8710,0.1099,0.1643,-1257.57,-1093.57,-1062.19
17140,-3.8711,0.0989,0.1425,-1929.44,1031.43,-93.44
17150,-3.8711,0.0803,0.1163,664.31,-1765.44,297.12
17160,-3.8712,0.0548,0.0930,-1710.69,-1109.25,578.31
17170,-3.8713,0.0282,0.0791,-976.32,-93.69,1547.00
17180,-3.8715,0.0070,0.0759,-382.57,-1875.00,-656.13
17190,-3.8715,-0.0021,0.0802,898.68,1718.75,1922.00
17200,-3.8715,0.0023,0.0890,-257.57,-1718.81,1078.25
17210,-3.8715,0.0171,0.0986,304.93,-609.38,172.00
17220,-3.8716,0.0436,0.1085,-1804.44,625.00,-671.69
17230,-3.8716,0.0797,0.1228,1586.18,1890.69,-1202.94
17240,-3.8716,0.1210,0.1370,-1788.82,-281.13,-1562.32
17250,-3.8716,0.1593,0.1392,-507.57,1531.43,1765.87
17260,-3.8716,0.1830,0.1223,398.68,1812.81,140.87
17270,-3.8717,0.1842,0.0911,-570.07,-343.44,1578.31
17280,-3.8718,0.1685,0.0574,-413.82,-343.44,-1468.63
17290,-3.8719,0.1533,0.0277,1570.56,-655.94,-484.31
17300,-3.8719,0.1498,0.0045,-366.94,-452.88,937.50
17310,-3.8721,0.1527,-0.0126,-820.07,578.37,-1140.62
17320,-3.8721,0.1528,-0.0240,-445.07,-1609.13,1406.19
17330,-3.8721,0.1475,-0.0306,-429.44,922.12,906.19
17340,-3.8721,0.1379,-0.0353,-1116.94,78.37,1187.44
17350,-3.8721,0.1281,-0.0391,1664.31,-515.38,1656.13
17360,-3.8721,0.1227,-0.0400,398.68,-999.76,1734.25
17370,-3.8721,0.1295,-0.0365,-288.82,-1124.82,1328.00
17380,-3.8721,0.1534,-0.0314,586.18,-671.63,859.25
17390,-3.8721,0.1868,-0.0350,-351.32,-15.38,171.75
17400,-3.8722,0.2147,-0.0505,-85.69,-484.07,-1390.75
17410,-3.8722,0.2289,-0.0714,-507.57,1531.62,62.38
17420,-3.8723,0.2272,-0.0911,1304.93,-1140.20,1156.07
17430,-3.8724,0.2106,-0.1062,1086.18,344.18,-1906.43
17440,-3.8726,0.1868,-0.1167,-1038.82,-1593.38,-843.99
17450,-3.8726,0.1683,-0.1257,-85.69,1062.81,1046.63
17460,-3.8727,0.1599,-0.1392,1554.93,-93.44,-281.56
17470,-3.8727,0.1572,-0.1581,476.81,-1812.19,-1578.43
17480,-3.8727,0.1588,-0.1741,133.06,-234.07,1468.38
17490,-3.8727,0.1630,-0.1797,336.18,1719.06,1312.13
17500,-3.8727,0.1698,-0.1710,867.43,1000.31,1718.38
17510,-3.8727,0.1865,-0.1542,1742.43,-1890.32,-781.62
17520,-3.8726,0.2107,-0.1431,-116.94,265.93,1484.07
17530,-3.8726,0.2317,-0.1434,-1023.19,1687.87,-969.06
17540,-3.8726,0.2452,-0.1506,1664.31,1641.05,-656.56
17550,-3.8726,0.2535,-0.1622,-601.32,719.18,-1187.81
17560,-3.8726,0.2598,-0.1759,461.18,-765.14,-1656.62
17570,-3.8726,0.2657,-0.1812,1258.06,1484.86,-1250.37
17580,-3.8724,0.2701,-0.1715,-1976.32,812.99,640.26
17590,-3.8724,0.2736,-0.1517,-1413.82,-1952.64,-15.99
17600,-3.8722,0.2805,-0.1274,-976.32,578.61,171.57
17610,-3.8721,0.2904,-0.1055,-85.69,-312.01,671.57
17620,-3.8719,0.3000,-0.0920,1179.93,-1499.45,1140.38
17630,-3.8718,0.3076,-0.0858,-1585.69,219.30,1015.44
17640,-3.8717,0.3103,-0.0825,-616.94,1016.17,77.94
17650,-3.8717,0.3086,-0.0811,-273.19,1438.05,-1437.68
17660,-3.8716,0.3099,-0.0859,-491.94,1625.55,499.82
17670,-3.8716,0.3130,-0.0942,-320.07,1000.55,-1562.68
17680,-3.8715,0.3068,-0.0983,70.56,-61.89,202.88
17690,-3.8715,0.2891,-0.0974,-726.32,-577.58,1265.38
17700,-3.8715,0.2681,-0.0934,1008.06,-468.20,-1890.87
17710,-3.8715,0.2507,-0.0891,-1679.44,47.36,-890.81
17720,-3.8715,0.2433,-0.0872,101.81,594.24,-31.43
17730,-3.8713,0.2465,-0.0840,-851.32,844.18,921.69
17740,-3.8713,0.2552,-0.0754,-445.07,1250.43,-1656.43
17750,-3.8713,0.2689,-0.0671,679.93,-1655.76,-203.31
17760,-3.8712,0.2870,-0.0621,-1570.07,-593.26,781.07
17770,-3.8712,0.3041,-0.0574,742.43,47.42,1031.13
17780,-3.8712,0.3147,-0.0530,-1070.07,656.80,546.75
17790,-3.8713,0.3160,-0.0487,289.31,1219.36,-484.50
17800,-3.8713,0.3102,-0.0420,461.18,1766.24,-1859.50
17810,-3.8713,0.3068,-0.0369,-288.82,-1374.45,843.63
17820,-3.8715,0.3195,-0.0397,-726.32,-718.20,-0.12
17830,-3.8713,0.3464,-0.0453,898.68,-1077.51,62.38
17840,-3.8713,0.3702,-0.0446,351.81,-1796.20,421.75
17850,-3.8713,0.3824,-0.0348,-601.32,-1702.45,984.25
17860,-3.8713,0.3856,-0.0176,961.18,-452.39,-1000.12
17870,-3.8712,0.3828,0.0056,1367.43,1750.73,-1484.44
17880,-3.8711,0.3756,0.0330,1008.06,719.48,-1359.38
17890,-3.8710,0.3635,0.0597,86.18,219.48,-1671.81
17900,-3.8708,0.3469,0.0800,-1460.69,-358.70,765.69
17910,-3.8708,0.3300,0.0848,414.31,-1764.95,1593.87
17920,-3.8708,0.3208,0.0693,-1757.57,-1140.01,406.37
17930,-3.8710,0.3226,0.0389,1070.56,875.61,890.75
17940,-3.8712,0.3286,0.0063,1304.93,984.99,-62.44
17950,-3.8713,0.3297,-0.0148,-1929.44,813.11,-937.50
17960,-3.8715,0.3259,-0.0177,-1788.82,-1890.01,-421.94
17970,-3.8715,0.3231,-0.0054,1726.81,1734.99,-1828.19
17980,-3.8715,0.3273,0.0166,1367.43,-686.89,-1203.19
17990,-3.8713,0.3407,0.0485,1898.68,-1874.39,906.25
18000,-3.8713,0.3596,0.0865,-382.57,-1796.26,-343.69
18010,-3.8712,0.3798,0.1156,-1960.69,-921.20,-1609.25
18020,-3.8711,0.3971,0.1235,617.43,-1202.39,500.18
18030,-3.8711,0.4052,0.1169,-1163.82,-186.77,1578.31
18040,-3.8711,0.3988,0.1090,-132.57,-1030.52,1922.06
18050,-3.8711,0.3815,0.1025,-945.07,1953.86,1953.31
18060,-3.8711,0.3577,0.1013,836.18,1125.73,-1734.19
18070,-3.8711,0.3265,0.1118,1789.31,969.42,-843.57
18080,-3.8710,0.2906,0.1323,1804.93,-1686.89,343.93
18090,-3.8710,0.2616,0.1564,1211.18,938.05,-1984.13
18100,-3.8708,0.2457,0.1738,1492.43,16.11,281.56
18110,-3.8708,0.2454,0.1793,-538.82,-1749.57,-1499.69
18120,-3.8708,0.2633,0.1772,-585.69,-1046.45,-109.07
18130,-3.8707,0.2959,0.1752,1711.18,-1312.01,484.68
18140,-3.8707,0.3307,0.1772,1883.06,-1577.58,625.31
18150,-3.8707,0.3567,0.1855,-1663.82,-1311.89,406.56
18160,-3.8707,0.3710,0.2041,1664.31,-249.33,625.31
18170,-3.8707,0.3744,0.2332,-507.57,-1874.33,1687.87
18180,-3.8707,0.3717,0.2646,-70.07,1844.42,-749.57
18190,-3.8706,0.3665,0.2888,-413.82,1875.67,875.49
18200,-3.8706,0.3606,0.3016,-1085.69,969.42,1953.67
18210,-3.8706,0.3563,0.3007,-1835.69,-1389.95,1891.17
18220,-3.8706,0.3511,0.2900,1617.43,-1514.95,547.42
18230,-3.8707,0.3424,0.2808,945.56,1125.67,-1843.20
18240,-3.8708,0.3306,0.2799,-163.82,-61.89,-624.51
18250,-3.8708,0.3129,0.2839,-1679.44,-171.26,1125.49
18260,-3.8710,0.2841,0.2852,54.93,344.36,-483.83
18270,-3.8710,0.2433,0.2849,367.43,500.55,-1733.83
18280,-3.8710,0.1948,0.2854,-851.32,469.18,1156.80
18290,-3.8711,0.1454,0.2843,945.56,531.62,-140.08
18300,-3.8711,0.0990,0.2797,-1382.57,390.87,-1749.45
18310,-3.8711,0.0594,0.2697,679.93,-202.94,516.11
18320,-3.8712,0.0360,0.2573,-382.57,-1484.31,-1155.76
18330,-3.8712,0.0370,0.2556,617.43,937.56,-1687.01
18340,-3.8712,0.0637,0.2742,742.43,718.81,-15.14
18350,-3.8711,0.1106,0.3092,164.31,-906.13,-937.01
18360,-3.8710,0.1694,0.3478,-1835.69,-421.69,-1483.83
18370,-3.8708,0.2316,0.3802,1695.56,515.93,1781.92
18380,-3.8707,0.2898,0.4064,1648.68,672.30,344.48
18390,-3.8707,0.3374,0.4301,1101.81,16.17,1907.04
18400,-3.8707,0.3738,0.4479,-804.44,-952.51,-1936.71
18410,-3.8707,0.4075,0.4467,-148.19,1328.80,953.98
18420,-3.8708,0.4407,0.4242,164.31,1172.67,-311.65
18430,-3.8708,0.4563,0.3949,414.31,-1702.27,-1827.33
18440,-3.8710,0.4421,0.3713,-1585.69,-1452.27,-77.39
18450,-3.8710,0.4121,0.3593,601.81,-467.90,1985.05
18460,-3.8710,0.3851,0.3572,758.06,1985.17,1110.05
18470,-3.8710,0.3693,0.3594,1304.93,1719.48,969.42
18480,-3.8710,0.3654,0.3634,-726.32,-1999.33,953.80
18490,-3.8710,0.3704,0.3683,-1226.32,-1483.70,938.17
18500,-3.8710,0.3740,0.3700,-585.69,-858.70,1078.80
18510,-3.8710,0.3613,0.3655,-116.94,-639.95,1141.30
18520,-3.8710,0.3314,0.3568,-1741.94,-1218.08,1063.17
18530,-3.8710,0.2944,0.3486,-1570.07,1672.49,1688.17
18540,-3.8710,0.2576,0.3428,1695.56,625.55,-983.70
18550,-3.8708,0.2241,0.3379,976.81,-124.51,578.74
18560,-3.8708,0.1943,0.3357,695.56,-749.57,-1858.76
18570,-3.8708,0.1675,0.3389,883.06,-1030.88,-468.14
18580,-3.8707,0.1469,0.3430,1445.56,-624.69,1016.24
18590,-3.8707,0.1350,0.3412,-1195.07,-93.51,-1686.89
18600,-3.8707,0.1292,0.3367,1289.31,-327.88,-624.39
18610,-3.8706,0.1296,0.3354,539.31,-906.01,203.74
18620,-3.8706,0.1421,0.3352,601.81,-1062.26,875.61
18630,-3.8706,0.1622,0.3354,-1804.44,-1093.51,1438.11
18640,-3.8706,0.1759,0.3357,773.68,-1062.19,1281.86
18650,-3.8707,0.1748,0.3276,-1476.32,-1030.94,-108.76
18660,-3.8707,0.1617,0.3066,-1616.94,1937.81,1125.61
18670,-3.8708,0.1438,0.2767,711.18,-749.69,1656.80
18680,-3.8710,0.1241,0.2449,-1585.69,-577.88,-1890.14
18690,-3.8711,0.1057,0.2155,-101.32,-656.07,-1530.82
18700,-3.8712,0.0924,0.1937,1539.31,-421.69,-640.26
18710,-3.8712,0.0809,0.1897,-163.82,797.00,1625.37
18720,-3.8712,0.0718,0.2034,-1632.57,281.37,1453.49
18730,-3.8712,0.0743,0.2294,1195.56,-1968.63,-1187.13
18740,-3.8711,0.0956,0.2604,1523.68,1359.50,1266.05
18750,-3.8710,0.1309,0.2845,242.43,1328.31,328.61
18760,-3.8710,0.1646,0.2959,758.06,422.12,-936.95
18770,-3.8708,0.1831,0.2939,1070.56,1875.31,266.17
18780,-3.8708,0.1809,0.2821,-554.44,1625.31,0.55
18790,-3.8710,0.1613,0.2657,-835.69,109.68,-1155.70
18800,-3.8710,0.1331,0.2479,648.68,-1984.07,1531.74
18810,-3.8710,0.1063,0.2332,1039.31,-265.38,750.43
18820,-3.8710,0.0901,0.2225,1617.43,1843.93,297.30
18830,-3.8711,0.0909,0.2142,-460.69,484.50,-124.57
18840,-3.8711,0.1094,0.2122,-351.32,-578.00,-562.13
18850,-3.8711,0.1378,0.2218,-1991.94,-843.57,-468.38
18860,-3.8710,0.1653,0.2397,1648.68,390.87,531.68
18870,-3.8710,0.1865,0.2601,1164.31,-1312.19,-1390.20
18880,-3.8708,0.1978,0.2747,-116.94,1297.18,1281.74
18890,-3.8708,0.2024,0.2739,1320.56,-843.38,-1124.51
18900,-3.8708,0.2095,0.2598,1914.31,-937.13,-1374.51
18910,-3.8708,0.2168,0.2389,-1179.44,1250.37,594.24
18920,-3.8710,0.2161,0.2139,-241.94,-1421.51,1000.43
18930,-3.8711,0.2084,0.1881,-335.69,-624.63,531.62
18940,-3.8712,0.1995,0.1617,-1320.07,78.49,0.37
18950,-3.8715,0.1887,0.1350,1539.31,703.49,-140.32
18960,-3.8716,0.1747,0.1105,164.31,1281.62,-140.38
18970,-3.8717,0.1610,0.0881,-1632.57,-1859.07,-171.69
18980,-3.8718,0.1548,0.0724,617.43,-718.44,-62.38
18990,-3.8718,0.1595,0.0640,-179.44,1265.87,297.00
19000,-3.8719,0.1674,0.0609,429.93,187.81,1672.00
19010,-3.8719,0.1704,0.0621,1429.93,-202.82,46.94
19020,-3.8721,0.1742,0.0591,1820.56,-46.57,-1171.81
19030,-3.8721,0.1832,0.0459,-1695.07,-437.19,1593.81
19040,-3.8722,0.1953,0.0273,-538.82,1875.31,-593.69
19050,-3.8722,0.2120,0.0090,1008.06,-499.63,250.00
19060,-3.8723,0.2340,-0.0034,-851.32,1156.62,984.38
19070,-3.8724,0.2504,-0.0076,1961.18,-437.07,-1625.06
19080,-3.8724,0.2555,-0.0079,54.93,-968.26,843.69
19090,-3.8724,0.2578,-0.0088,711.18,-1015.14,234.31
19100,-3.8724,0.2584,-0.0114,1008.06,-1124.51,156.19
19110,-3.8724,0.2504,-0.0118,1086.18,-1452.64,812.44
19120,-3.8724,0.2325,-0.0088,54.93,-1515.14,-1812.56
19130,-3.8723,0.2117,-0.0044,1773.68,-1124.57,93.69
19140,-3.8723,0.1948,0.0002,-898.19,-562.13,-1687.56
19150,-3.8722,0.1862,0.0013,945.56,31.62,15.62
19160,-3.8722,0.1887,-0.0070,-163.82,172.18,562.50
19170,-3.8723,0.2021,-0.0259,164.31,-890.26,-218.81
19180,-3.8723,0.2195,-0.0477,1883.06,687.87,-1765.69
19190,-3.8723,0.2289,-0.0636,101.81,1891.05,781.13
19200,-3.8724,0.2233,-0.0743,1304.93,-140.20,-93.93
19210,-3.8724,0.2091,-0.0812,586.18,-1515.20,-0.18
19220,-3.8723,0.1974,-0.0848,-1226.32,1609.74,1249.82
19230,-3.8723,0.1899,-0.0894,1273.68,1140.99,-875.18
19240,-3.8722,0.1852,-0.0941,320.56,562.87,656.07
19250,-3.8722,0.1874,-0.0938,-288.82,-46.57,1296.63
19260,-3.8722,0.2003,-0.0880,-7.57,0.31,1343.57
19270,-3.8722,0.2257,-0.0835,1648.68,734.74,999.82
19280,-3.8722,0.2657,-0.0836,898.68,1312.93,609.19
19290,-3.8722,0.3145,-0.0812,-1976.32,1297.36,562.32
19300,-3.8722,0.3573,-0.0718,258.06,1609.99,140.44
19310,-3.8723,0.3864,-0.0629,1742.43,-1186.83,-281.43
19320,-3.8722,0.3992,-0.0570,1461.18,-46.14,437.32
19330,-3.8722,0.3910,-0.0488,-898.19,703.86,-1515.75
19340,-3.8721,0.3728,-0.0371,-1945.07,1750.73,781.13
19350,-3.8721,0.3663,-0.0284,-273.19,-749.33,-1359.50
19360,-3.8719,0.3733,-0.0278,-1101.32,360.05,140.56
19370,-3.8719,0.3789,-0.0352,-210.69,438.17,1343.69
19380,-3.8719,0.3795,-0.0431,508.06,-499.27,-1922.00
19390,-3.8719,0.3798,-0.0435,586.18,-1514.89,-1922.00
19400,-3.8719,0.3809,-0.0378,617.43,-1561.77,-1640.75
19410,-3.8719,0.3798,-0.0339,758.06,-843.02,-1750.12
19420,-3.8719,0.3757,-0.0387,617.43,-343.02,1874.88
19430,-3.8719,0.3652,-0.0492,101.81,-952.39,-1500.12
19440,-3.8719,0.3425,-0.0576,-1241.94,1703.80,-390.75
19450,-3.8718,0.3174,-0.0579,-148.19,625.61,1328.00
19460,-3.8718,0.3000,-0.0486,633.06,594.36,-484.50
19470,-3.8717,0.2902,-0.0337,-1585.69,1781.80,1453.00
19480,-3.8717,0.2855,-0.0214,1148.68,-311.95,-687.62
19490,-3.8716,0.2859,-0.0172,554.93,1266.17,921.81
19500,-3.8716,0.2915,-0.0175,601.81,1797.42,1749.94
19510,-3.8716,0.3037,-0.0182,1320.56,1766.17,1546.81
19520,-3.8716,0.3191,-0.0223,-1116.94,1672.42,859.31
19530,-3.8716,0.3251,-0.0243,851.81,1141.24,734.31
19540,-3.8716,0.3174,-0.0199,1617.43,891.24,1234.31
19550,-3.8716,0.3077,-0.0170,633.06,1453.74,-1703.19
19560,-3.8716,0.3018,-0.0121,-601.32,1828.67,-375.06
19570,-3.8715,0.2990,0.0002,-1366.94,-1546.33,999.94
19580,-3.8715,0.3030,0.0157,-1726.32,31.80,-1250.00
19590,-3.8713,0.3108,0.0350,-1210.69,-1983.83,1062.50
19600,-3.8713,0.3169,0.0533,-210.69,484.92,-15.56
19610,-3.8712,0.3206,0.0641,570.56,-1171.26,-624.94
19620,-3.8711,0.3202,0.0721,1039.31,203.74,-1734.25
19630,-3.8711,0.3171,0.0792,992.43,1234.99,-265.50
19640,-3.8710,0.3081,0.0863,601.81,-1858.76,343.87
19650,-3.8710,0.2927,0.0925,-554.44,-952.58,265.75
19660,-3.8711,0.2836,0.0902,1476.81,-155.70,-593.63
19670,-3.8711,0.2903,0.0863,304.93,-452.58,1968.87
19680,-3.8712,0.3079,0.0831,1164.31,-952.58,-1312.38
19690,-3.8713,0.3292,0.0771,-585.69,-1358.83,-1546.75
19700,-3.8713,0.3502,0.0774,-1851.32,1875.61,218.87
19710,-3.8713,0.3589,0.0933,836.18,1906.92,468.87
19720,-3.8713,0.3506,0.1248,1945.56,-61.83,-1468.63
19730,-3.8712,0.3373,0.1591,883.06,-30.58,1703.31
19740,-3.8711,0.3307,0.1759,-820.07,359.99,750.31
19750,-3.8711,0.3367,0.1740,-1663.82,-1483.76,-1702.82
19760,-3.8711,0.3589,0.1716,-898.19,-1733.76,-1484.07
19770,-3.8711,0.3928,0.1794,1945.56,1969.42,-1437.19
19780,-3.8711,0.4324,0.1996,-1710.69,-1030.52,-968.44
19790,-3.8710,0.4702,0.2362,-648.19,1547.67,359.74
19800,-3.8710,0.4969,0.2855,195.56,-1764.71,-1202.70
19810,-3.8708,0.5061,0.3271,-382.57,547.79,1641.17
19820,-3.8708,0.4926,0.3439,789.31,1875.98,-421.26
19830,-3.8708,0.4574,0.3330,-945.07,16.54,-421.20
19840,-3.8708,0.4158,0.3040,-1445.07,-1374.15,1375.61
19850,-3.8710,0.3862,0.2745,1226.81,-1092.96,-1858.83
19860,-3.8711,0.3685,0.2566,1445.56,-858.64,-999.51
19870,-3.8711,0.3583,0.2487,-820.07,844.42,797.36
19880,-3.8711,0.3555,0.2520,1867.43,-171.20,687.93
19890,-3.8711,0.3490,0.2709,1508.06,250.67,-1968.26
19900,-3.8710,0.3353,0.3057,679.93,-1327.45,500.49
19910,-3.8708,0.3242,0.3513,-1070.07,-874.39,344.30
19920,-3.8707,0.3181,0.3912,1508.06,969.36,594.42
19930,-3.8706,0.3120,0.4099,726.81,-1921.26,281.98
19940,-3.8706,0.3042,0.4025,-54.44,469.30,-1780.46
19950,-3.8706,0.2965,0.3770,-1054.44,-483.83,1500.73
19960,-3.8707,0.2902,0.3518,1961.18,250.55,-983.64
19970,-3.8707,0.2838,0.3391,1148.68,1031.80,875.67
19980,-3.8708,0.2767,0.3428,336.18,-593.20,-15.01
19990,-3.8707,0.2683,0.3601,-570.07,-124.51,78.74
20000,-3.8707,0.2573,0.3843,-1648.19,-1905.76,969.42
20010,-3.8707,0.2454,0.4084,945.56,1187.99,-1858.64
20020,-3.8707,0.2400,0.4329,-585.69,281.68,-827.33
20030,-3.8707,0.2437,0.4622,-1273.19,-593.32,-61.71
20040,-3.8706,0.2552,0.4858,-804.44,-843.32,610.23
20050,-3.8706,0.2755,0.4883,679.93,-1812.01,797.79
20060,-3.8706,0.2988,0.4758,-726.32,-1499.51,235.29
20070,-3.8707,0.3159,0.4636,-1741.94,906.80,-967.83
20080,-3.8707,0.3245,0.4578,445.56,-655.64,1485.23
20090,-3.8707,0.3279,0.4557,1539.31,-1405.64,219.60
20100,-3.8708,0.3257,0.4495,1976.81,-1671.26,-467.90
20110,-3.8708,0.3176,0.4410,1695.56,1531.86,-389.77
20120,-3.8707,0.3054,0.4373,664.31,453.74,344.60
20130,-3.8707,0.2919,0.4360,-898.19,-30.70,1250.79
20140,-3.8707,0.2841,0.4363,1367.43,-186.95,-1733.58
20150,-3.8707,0.2845,0.4429,367.43,-155.70,-764.83
20160,-3.8707,0.2892,0.4514,429.93,688.05,-92.90
20170,-3.8706,0.2950,0.4517,1023.68,1781.80,141.48
20180,-3.8707,0.3020,0.4402,1773.68,1813.05,-499.15
20190,-3.8707,0.3062,0.4196,-1335.69,344.30,1875.85
20200,-3.8708,0.3058,0.3958,-804.44,1703.67,-671.08
20210,-3.8708,0.3016,0.3754,-851.32,-1343.20,438.23
20220,-3.8710,0.2937,0.3616,-1382.57,47.42,-1780.52
20230,-3.8710,0.2823,0.3539,1601.81,-1718.20,1235.05
20240,-3.8710,0.2727,0.3593,148.68,1297.42,1813.17
20250,-3.8710,0.2683,0.3973,-1085.69,1984.86,-702.45
20260,-3.8708,0.2609,0.4655,-1648.19,-1140.14,1516.36
20270,-3.8707,0.2504,0.5361,1398.68,-421.39,1844.60
20280,-3.8706,0.2419,0.5809,54.93,625.49,-655.21
20290,-3.8705,0.2284,0.5785,-1023.19,-1640.20,-608.28
20300,-3.8704,0.2059,0.5354,1242.43,-1952.70,454.22
20310,-3.8705,0.1818,0.4792,-1632.57,531.62,-1608.34
20320,-3.8706,0.1610,0.4352,-726.32,1344.06,-999.08
20330,-3.8706,0.1411,0.4144,617.43,-296.57,63.29
20340,-3.8707,0.1221,0.4061,-1929.44,1047.12,-1733.58
20350,-3.8707,0.1141,0.3975,-366.94,-15.44,1688.23
20360,-3.8707,0.1174,0.3875,-1382.57,-1124.82,1313.23
20370,-3.8707,0.1234,0.3782,-960.69,1593.93,16.36
20380,-3.8708,0.1334,0.3751,-195.07,406.43,-1686.77
20390,-3.8708,0.1432,0.3783,1086.18,15.87,1047.61
20400,-3.8708,0.1447,0.3785,-1663.82,422.12,563.23
20410,-3.8708,0.1371,0.3717,-1476.32,453.37,594.48
20420,-3.8708,0.1238,0.3560,1554.93,-421.63,63.17
20430,-3.8710,0.1147,0.3328,-148.19,1562.68,-1749.33
20440,-3.8711,0.1155,0.3105,-1304.44,-1406.07,-249.39
20450,-3.8711,0.1182,0.2944,-1210.69,-249.82,1422.42
20460,-3.8712,0.1210,0.2855,-866.94,1687.68,-265.08
20470,-3.8712,0.1268,0.2838,-507.57,547.06,-1499.45
20480,-3.8712,0.1300,0.2788,242.43,328.37,938.05
20490,-3.8713,0.1290,0.2626,648.68,-312.26,-1249.51
20500,-3.8715,0.1267,0.2350,523.68,1609.62,-155.76
20510,-3.8715,0.1252,0.1995,226.81,-1921.63,844.18
20520,-3.8716,0.1232,0.1656,39.31,1531.49,1812.87
20530,-3.8717,0.1129,0.1361,-226.32,1203.31,-1859.07
20540,-3.8718,0.0957,0.1093,-1538.82,1422.06,1984.62
20550,-3.8719,0.0762,0.0804,258.06,1984.56,1890.81
20560,-3.8721,0.0598,0.0522,1758.06,-1703.00,-843.63
20570,-3.8721,0.0516,0.0305,-335.69,-1312.44,1609.44
20580,-3.8721,0.0498,0.0157,-1382.57,-93.69,562.50
20590,-3.8721,0.0527,0.0070,-1616.94,-1984.31,421.88
20600,-3.8721,0.0623,0.0039,-1241.94,890.69,1093.75
20610,-3.8721,0.0867,0.0121,-23.19,500.06,-1406.25
20620,-3.8719,0.1268,0.0338,-898.19,1547.00,828.12
20630,-3.8719,0.1710,0.0569,242.43,328.37,-874.94
20640,-3.8718,0.2089,0.0697,1898.68,-718.44,1281.31
20650,-3.8718,0.2318,0.0699,-1257.57,922.24,-1187.38
20660,-3.8718,0.2336,0.0632,1679.93,953.55,-484.25
20670,-3.8717,0.2162,0.0583,1914.31,94.18,218.87
20680,-3.8717,0.1923,0.0540,-320.07,-530.88,937.56
20690,-3.8717,0.1771,0.0436,617.43,-1093.38,1296.94
20700,-3.8717,0.1768,0.0227,-1320.07,1578.43,875.06
20710,-3.8718,0.1888,-0.0033,-1366.94,-1093.44,-421.88
20720,-3.8718,0.2019,-0.0306,179.93,-421.51,1187.44
20730,-3.8719,0.2068,-0.0560,1851.81,78.49,-1531.31
20740,-3.8719,0.2043,-0.0748,-1523.19,828.49,234.25
20750,-3.8721,0.1984,-0.0902,-1835.69,-1577.76,1812.32
20760,-3.8722,0.1948,-0.1058,1398.68,453.49,-765.81
20770,-3.8722,0.1952,-0.1213,945.56,-1546.51,812.26
20780,-3.8723,0.1959,-0.1355,992.43,469.12,-1484.62
20790,-3.8723,0.1971,-0.1489,1086.18,-1343.38,405.94
20800,-3.8724,0.2023,-0.1582,1242.43,937.87,-1109.68
20810,-3.8724,0.2128,-0.1598,1898.68,-249.63,-1687.87
20820,-3.8724,0.2311,-0.1526,-757.57,-452.76,-1203.49
20830,-3.8723,0.2585,-0.1355,1586.18,469.18,46.57
20840,-3.8723,0.2841,-0.1128,1101.81,-1343.26,1468.44
20850,-3.8723,0.2915,-0.0970,367.43,1563.05,-1140.87
20860,-3.8722,0.2725,-0.0912,1320.56,-421.33,499.76
20870,-3.8722,0.2280,-0.0905,-1116.94,328.61,-1578.31
20880,-3.8721,0.1792,-0.0928,1195.56,422.30,671.69
20890,-3.8721,0.1519,-0.0933,-1054.44,125.31,-1203.31
20900,-3.8721,0.1514,-0.0939,-554.44,62.74,-297.06
20910,-3.8721,0.1682,-0.1011,-616.94,-15.38,-797.12
20920,-3.8721,0.1918,-0.1111,1539.31,-937.19,1640.38
20930,-3.8722,0.2148,-0.1177,554.93,1781.62,-468.99
20940,-3.8722,0.2360,-0.1162,-491.94,937.87,1921.63
20950,-3.8722,0.2543,-0.1038,-1788.82,1125.43,1406.01
20960,-3.8722,0.2672,-0.0839,554.93,-1280.76,-1781.49
20970,-3.8721,0.2737,-0.0665,-1788.82,1266.11,77.94
20980,-3.8721,0.2749,-0.0608,-960.69,-515.14,1702.94
20990,-3.8721,0.2750,-0.0665,-804.44,219.24,-1687.62
21000,-3.8721,0.2773,-0.0763,-788.82,-515.14,1952.94
21010,-3.8721,0.2797,-0.0841,-491.94,-1765.14,1187.32
21020,-3.8721,0.2783,-0.0886,-195.07,1234.86,531.07
21030,-3.8721,0.2766,-0.0920,-366.94,656.74,62.32
21040,-3.8721,0.2828,-0.0974,-585.69,219.24,249.82
21050,-3.8721,0.2889,-0.0941,211.18,-468.20,1187.26
21060,-3.8721,0.2948,-0.0635,992.43,-46.33,-1672.12
21070,-3.8719,0.3113,-0.0098,1742.43,-124.45,265.44
21080,-3.8719,0.3323,0.0446,-148.19,-1249.45,-421.94
21090,-3.8718,0.3555,0.0817,-1460.69,1703.74,-1015.56
21100,-3.8717,0.3845,0.0948,1508.06,-1546.20,1140.75
21110,-3.8717,0.4098,0.0913,1226.81,141.36,-1874.82
21120,-3.8717,0.4244,0.0872,461.18,-311.71,-1624.88
21130,-3.8717,0.4368,0.0916,-1663.82,-842.96,-1484.25
21140,-3.8717,0.4508,0.0923,-85.69,-280.46,-1109.25
21150,-3.8717,0.4631,0.0757,1711.18,-186.65,-1140.50
21160,-3.8717,0.4735,0.0505,-710.69,1688.35,1703.25
21170,-3.8718,0.4775,0.0326,617.43,-1530.33,-31.19
21180,-3.8718,0.4670,0.0262,1133.06,172.79,-1374.94
21190,-3.8718,0.4475,0.0273,-210.69,-639.77,-1671.88
21200,-3.8718,0.4316,0.0312,1289.31,-499.15,-406.25
21210,-3.8717,0.4204,0.0355,-741.94,0.79,1843.81
21220,-3.8716,0.4062,0.0421,1820.56,547.67,296.94
21230,-3.8716,0.3887,0.0435,8.06,1391.42,-1406.19
21240,-3.8715,0.3785,0.0287,1758.06,1563.23,187.56
21250,-3.8715,0.3839,-0.0023,461.18,-327.39,703.12
21260,-3.8715,0.4019,-0.0364,1148.68,-296.14,640.56
21270,-3.8715,0.4200,-0.0522,-554.44,-655.52,609.25
21280,-3.8715,0.4292,-0.0383,1773.68,1313.29,1015.50
21290,-3.8715,0.4313,-0.0031,-1054.44,-905.46,1843.63
21300,-3.8715,0.4347,0.0372,-788.82,-389.83,-421.94
21310,-3.8713,0.4451,0.0714,-351.32,766.42,-1406.19
21320,-3.8712,0.4596,0.0946,976.81,1141.48,-1937.38
21330,-3.8711,0.4730,0.1077,-1163.82,110.23,797.06
21340,-3.8711,0.4874,0.1064,554.93,1782.17,-1968.57
21350,-3.8711,0.5076,0.0911,-1601.32,1625.92,1750.18
21360,-3.8711,0.5260,0.0709,976.81,-342.77,250.12
21370,-3.8712,0.5352,0.0546,-663.82,1079.10,-1843.63
21380,-3.8712,0.5353,0.0551,508.06,-1014.59,1640.69
21390,-3.8712,0.5173,0.0764,523.68,-952.09,-703.06
21400,-3.8711,0.4778,0.1013,-1773.19,1782.23,1609.50
21410,-3.8711,0.4365,0.1155,1164.31,969.67,-281.07
21420,-3.8710,0.4082,0.1141,-116.94,-1217.96,1078.31
21430,-3.8710,0.3888,0.0995,258.06,-1389.83,1078.31
21440,-3.8711,0.3777,0.0836,1773.68,735.11,-31.07
21450,-3.8711,0.3767,0.0779,351.81,-1296.14,-515.50
21460,-3.8710,0.3828,0.0868,226.81,1969.48,47.00
21470,-3.8710,0.3953,0.1113,1008.06,-889.89,1828.25
21480,-3.8708,0.4148,0.1508,-1398.19,-1749.27,1015.81
21490,-3.8707,0.4441,0.2075,1101.81,-702.33,984.62
21500,-3.8706,0.4832,0.2817,851.81,-1436.65,1859.74
21510,-3.8705,0.5254,0.3550,1851.81,63.42,-968.20
21520,-3.8704,0.5626,0.3978,-741.94,1438.48,-905.58
21530,-3.8702,0.5831,0.3911,23.68,-1077.03,891.36
21540,-3.8704,0.5732,0.3380,-1351.32,-1936.40,-186.77
21550,-3.8705,0.5297,0.2640,1383.06,-733.28,-186.89
21560,-3.8706,0.4664,0.1978,-195.07,1797.85,1812.99
21570,-3.8708,0.4098,0.1538,-288.82,1313.35,-327.76
21580,-3.8710,0.3770,0.1346,461.18,-311.71,-1124.76
21590,-3.8711,0.3667,0.1368,258.06,1235.11,-437.26
21600,-3.8711,0.3726,0.1543,-1054.44,1516.30,1750.24
21610,-3.8711,0.3859,0.1841,-304.44,-249.33,1547.12
21620,-3.8711,0.3967,0.2295,1398.68,-436.77,-1374.69
21630,-3.8710,0.3976,0.2778,-1210.69,1375.73,766.05
21640,-3.8710,0.3923,0.2992,-1101.32,-436.77,-874.51
21650,-3.8710,0.3905,0.2836,-1773.19,-1702.39,-46.33
21660,-3.8710,0.3942,0.2487,1992.43,297.61,-1546.33
21670,-3.8711,0.4010,0.2198,-1538.82,-171.14,-62.07
21680,-3.8711,0.4121,0.2128,-663.82,141.36,-1718.32
21690,-3.8711,0.4274,0.2256,758.06,-764.83,-1577.76
21700,-3.8711,0.4384,0.2416,-1288.82,875.79,-218.32
21710,-3.8710,0.4335,0.2495,117.43,-1077.27,1078.55
21720,-3.8710,0.4144,0.2561,-507.57,-61.71,1750.43
21730,-3.8710,0.3949,0.2716,1054.93,782.04,-1233.89
21740,-3.8708,0.3822,0.2944,-1445.07,-1233.64,1266.11
21750,-3.8707,0.3773,0.3114,929.93,1688.23,1125.55
21760,-3.8706,0.3811,0.3116,304.93,-139.89,1297.42
21770,-3.8705,0.3895,0.2988,789.31,-108.64,547.42
21780,-3.8705,0.3962,0.2858,1867.43,-1749.27,-1655.70
21790,-3.8705,0.3979,0.2833,-1273.19,578.86,-561.95
21800,-3.8704,0.3966,0.2946,-1054.44,266.36,891.17
21810,-3.8704,0.3896,0.3151,-1226.32,1703.86,-1155.70
21820,-3.8702,0.3732,0.3445,1883.06,328.86,1141.24
21830,-3.8702,0.3461,0.3777,-226.32,94.42,-702.45
21840,-3.8701,0.3162,0.3960,304.93,344.42,563.23
21850,-3.8701,0.2958,0.3907,476.81,-1311.89,719.48
21860,-3.8702,0.2859,0.3726,1867.43,-1983.83,-749.27
21870,-3.8702,0.2847,0.3536,601.81,-311.95,31.92
21880,-3.8704,0.2943,0.3337,445.56,1266.17,78.80
21890,-3.8705,0.3086,0.3123,1679.93,-1280.70,344.36
21900,-3.8706,0.3131,0.2961,-491.94,-30.70,1063.05
21910,-3.8707,0.3022,0.2928,86.18,1906.86,-1468.20
21920,-3.8707,0.2803,0.3020,-1304.44,1484.92,1453.67
21930,-3.8707,0.2545,0.3151,-116.94,-1343.26,1766.17
21940,-3.8707,0.2317,0.3250,586.18,328.61,-1421.26
21950,-3.8707,0.2159,0.3309,1664.31,1594.18,-874.39
21960,-3.8707,0.2068,0.3295,-351.32,-1640.26,-780.64
21970,-3.8707,0.1998,0.3175,-1523.19,-1827.76,-999.39
21980,-3.8707,0.1915,0.3010,1586.18,640.99,-1780.64
21990,-3.8707,0.1779,0.2850,523.68,-1468.38,625.55
22000,-3.8708,0.1582,0.2686,-1226.32,484.68,-1296.33
22010,-3.8708,0.1364,0.2487,258.06,-1624.69,672.36
22020,-3.8710,0.1128,0.2288,1461.18,-171.63,-1358.95
22030,-3.8710,0.0857,0.2164,-1554.44,1281.43,1016.05
22040,-3.8710,0.0573,0.2151,-1023.19,-296.75,78.49
22050,-3.8711,0.0342,0.2188,-663.82,-468.69,-15.26
22060,-3.8711,0.0231,0.2135,383.06,0.06,-46.45
22070,-3.8711,0.0284,0.1974,-1038.82,-671.88,-734.01
22080,-3.8711,0.0435,0.1824,-351.32,1265.62,-1874.63
22090,-3.8711,0.0548,0.1714,1570.56,-656.19,719.06
22100,-3.8712,0.0601,0.1587,-976.32,1937.56,-999.69
22110,-3.8712,0.0618,0.1425,-304.44,312.56,1297.18
22120,-3.8713,0.0557,0.1260,-85.69,-1765.56,-359.13
22130,-3.8713,0.0408,0.1135,-866.94,125.06,1797.12
22140,-3.8715,0.0289,0.1049,1226.81,-1468.69,-109.19
22150,-3.8715,0.0293,0.0986,-288.82,1421.88,-1468.57
22160,-3.8715,0.0382,0.0928,-241.94,625.00,1672.06
22170,-3.8715,0.0491,0.0842,898.68,-124.94,375.12
22180,-3.8716,0.0590,0.0719,-1710.69,-1218.69,-1499.88
22190,-3.8716,0.0654,0.0570,-445.07,1203.19,31.37
22200,-3.8717,0.0698,0.0402,383.06,-703.00,1031.31
22210,-3.8718,0.0789,0.0287,945.56,1140.75,1656.31
22220,-3.8719,0.0941,0.0341,-1898.19,-328.00,-1343.75
22230,-3.8719,0.1088,0.0629,54.93,359.56,1437.56
22240,-3.8719,0.1190,0.0981,1929.93,47.06,-1546.75
22250,-3.8718,0.1335,0.1147,-757.57,562.68,1437.68
22260,-3.8717,0.1575,0.1110,1101.81,-1312.26,672.06
22270,-3.8717,0.1832,0.0972,164.31,-1796.57,-1968.57
22280,-3.8717,0.2053,0.0798,-538.82,437.81,1015.81
22290,-3.8718,0.2241,0.0562,-1710.69,-1780.88,-1609.25
22300,-3.8719,0.2357,0.0265,695.56,-812.07,-781.19
22310,-3.8721,0.2360,-0.0012,-1820.07,-608.95,-250.00
22320,-3.8721,0.2280,-0.0215,-1788.82,-155.82,343.69
22330,-3.8722,0.2178,-0.0348,1195.56,1250.43,1703.06
22340,-3.8723,0.2090,-0.0447,-116.94,-452.76,-359.50
22350,-3.8723,0.2054,-0.0536,-1241.94,-1718.38,1546.75
22360,-3.8724,0.2091,-0.0646,-1695.07,1140.99,-1015.75
22370,-3.8726,0.2218,-0.0786,-1226.32,-265.26,-15.81
22380,-3.8726,0.2411,-0.0934,398.68,1937.93,827.94
22390,-3.8727,0.2550,-0.1072,-1132.57,47.30,1843.57
22400,-3.8728,0.2510,-0.1229,648.68,-1718.26,-593.99
22410,-3.8728,0.2288,-0.1427,133.06,266.11,1827.88
22420,-3.8728,0.1987,-0.1615,1289.31,1734.80,1077.82
22430,-3.8728,0.1696,-0.1731,1445.56,-671.51,1062.13
22440,-3.8728,0.1484,-0.1785,1711.18,1844.06,1484.01
22450,-3.8728,0.1438,-0.1794,-991.94,1156.49,1843.38
22460,-3.8728,0.1593,-0.1718,-1585.69,1031.49,-1672.24
22470,-3.8728,0.1842,-0.1578,398.68,-1984.07,-890.99
22480,-3.8728,0.2094,-0.1475,-413.82,-202.82,-125.37
22490,-3.8727,0.2383,-0.1420,-1195.07,1125.37,405.94
22500,-3.8727,0.2714,-0.1372,-1491.94,1828.55,874.69
22510,-3.8727,0.3054,-0.1306,-1257.57,-1562.01,1280.94
22520,-3.8727,0.3365,-0.1222,-898.19,-718.20,1687.19
22530,-3.8727,0.3582,-0.1082,-913.82,359.99,-953.37
22540,-3.8726,0.3647,-0.0839,1851.81,-1843.08,-1765.87
22550,-3.8724,0.3662,-0.0562,-1304.44,1266.30,-1187.68
22560,-3.8723,0.3807,-0.0376,-1116.94,813.17,-531.37
22570,-3.8722,0.4053,-0.0387,742.43,-811.77,-1250.12
22580,-3.8721,0.4215,-0.0565,-116.94,-952.39,109.25
22590,-3.8722,0.4176,-0.0758,1961.18,766.42,-140.75
22600,-3.8722,0.3912,-0.0896,1461.18,-1702.33,-875.18
22610,-3.8722,0.3467,-0.0972,-1913.82,531.98,-1125.18
22620,-3.8722,0.2922,-0.0963,383.06,-436.83,-1062.74
22630,-3.8722,0.2336,-0.0908,1414.31,-327.58,-547.12
22640,-3.8721,0.1777,-0.0917,1914.31,375.43,937.32
22650,-3.8721,0.1407,-0.1003,-1241.94,265.93,-656.43
22660,-3.8719,0.1393,-0.1074,-1976.32,-843.51,1874.76
22670,-3.8719,0.1785,-0.1094,1836.18,-1749.76,-734.62
22680,-3.8719,0.2474,-0.1062,-1148.19,-1999.69,-78.37
22690,-3.8718,0.3270,-0.0995,-320.07,-1593.32,624.76
22700,-3.8718,0.4072,-0.0878,1867.43,-733.76,1187.26
22710,-3.8718,0.4760,-0.0667,133.06,766.42,-1890.81
22720,-3.8717,0.5201,-0.0308,929.93,-530.33,359.19
22730,-3.8717,0.5421,0.0121,-1413.82,63.48,-375.06
22740,-3.8716,0.5469,0.0461,1398.68,1547.91,-750.00
22750,-3.8715,0.5381,0.0647,-1991.94,1907.29,-1249.94
22760,-3.8713,0.5251,0.0627,883.06,282.29,1156.37
22770,-3.8713,0.5261,0.0457,-773.19,32.23,1609.50
22780,-3.8715,0.5509,0.0245,-648.19,1844.73,-62.44
22790,-3.8715,0.5883,0.0093,-1476.32,-858.34,1734.38
22800,-3.8715,0.6179,0.0061,-695.07,1188.60,718.75
22810,-3.8715,0.6227,0.0144,-898.19,782.41,1218.75
22820,-3.8715,0.6000,0.0276,-288.82,1844.91,-1156.25
22830,-3.8713,0.5623,0.0355,804.93,-467.59,765.62
22840,-3.8713,0.5223,0.0353,-23.19,547.91,-1953.06
22850,-3.8713,0.4905,0.0347,-1132.57,516.60,-1484.31
22860,-3.8713,0.4762,0.0396,-1210.69,438.42,-1624.94
22870,-3.8713,0.4778,0.0476,961.18,1063.42,1812.56
22880,-3.8713,0.4874,0.0533,1164.31,-1905.33,1265.69
22890,-3.8713,0.5007,0.0520,-1601.32,-1170.96,1125.06
22900,-3.8713,0.5142,0.0499,101.81,-1342.77,1625.06
22910,-3.8713,0.5240,0.0640,1820.56,-1608.40,-921.81
22920,-3.8712,0.5349,0.0979,-913.82,188.48,1953.25
22930,-3.8711,0.5547,0.1335,476.81,532.29,-1937.32
22940,-3.8710,0.5786,0.1560,-991.94,1094.79,-1906.01
22950,-3.8708,0.5950,0.1724,-1929.44,-30.15,1015.87
22960,-3.8708,0.5968,0.1908,164.31,-1936.34,-1077.82
22970,-3.8708,0.5840,0.2046,398.68,423.03,-77.76
22980,-3.8707,0.5627,0.2097,-1241.94,-1811.40,62.87
22990,-3.8708,0.5419,0.2148,39.31,-1155.15,-30.88
23000,-3.8707,0.5282,0.2240,1367.43,-498.96,47.24
23010,-3.8708,0.5240,0.2316,-382.57,672.85,-46.45
23020,-3.8708,0.5276,0.2351,-913.82,1641.60,-530.82
23030,-3.8708,0.5330,0.2369,-460.69,-1905.27,-1327.70
23040,-3.8708,0.5332,0.2366,226.81,-1670.84,1641.05
23050,-3.8708,0.5283,0.2367,258.06,-1717.71,625.43
23060,-3.8710,0.5215,0.2443,-366.94,-1702.15,-280.82
23070,-3.8710,0.5123,0.2614,-1241.94,-733.40,-702.70
23080,-3.8710,0.4973,0.2839,1586.18,1454.10,-280.76
23090,-3.8708,0.4777,0.3032,-335.69,344.67,594.30
23100,-3.8708,0.4562,0.3127,1148.68,-1186.58,1688.05
23110,-3.8708,0.4330,0.3153,-1601.32,32.10,-1280.64
23120,-3.8708,0.4137,0.3190,-570.07,360.17,-405.64
23130,-3.8707,0.4071,0.3247,961.18,828.92,750.61
