timestamp_ms,ax,ay,az,gx,gy,gz
0,-3.8722,0.1772,-0.0065,1289.31,-1984.07,515.62
10,-3.8723,0.1943,-0.0238,-1304.44,-827.82,-1500.06
20,-3.8723,0.2092,-0.0286,883.06,953.49,1734.31
30,-3.8723,0.2134,-0.0238,-1210.69,344.12,-1937.56
40,-3.8723,0.2097,-0.0186,-679.44,953.49,-1250.06
50,-3.8723,0.2043,-0.0188,-1148.19,1625.37,-765.69
60,-3.8723,0.2034,-0.0278,-1835.69,1594.12,-765.69
70,-3.8723,0.2097,-0.0380,-1960.69,437.87,-703.19
80,-3.8723,0.2173,-0.0441,-1148.19,-859.01,-640.75
90,-3.8723,0.2238,-0.0537,-179.44,-1640.26,-937.62
100,-3.8723,0.2301,-0.0721,648.68,1125.43,-1781.37
110,-3.8723,0.2350,-0.0950,1461.18,-1233.95,1124.82
120,-3.8723,0.2396,-0.1108,-1913.82,-155.82,609.13
130,-3.8723,0.2421,-0.1085,-1320.07,1812.93,1109.13
140,-3.8723,0.2413,-0.0913,-1007.57,-1890.20,-1390.87
150,-3.8722,0.2422,-0.0670,-1101.32,312.93,1265.44
160,-3.8721,0.2463,-0.0375,-991.94,-577.70,531.07
170,-3.8721,0.2545,-0.0038,-460.69,-796.45,-140.75
180,-3.8719,0.2688,0.0284,586.18,-483.89,-875.06
190,-3.8718,0.2870,0.0530,-1585.69,-358.89,-1890.62
200,-3.8718,0.3027,0.0703,742.43,-1218.20,-265.56
210,-3.8718,0.3154,0.0770,-1241.94,1000.55,-671.75
220,-3.8718,0.3348,0.0674,383.06,1859.99,-1140.50
230,-3.8718,0.3577,0.0494,-1132.57,625.61,-1437.38
240,-3.8718,0.3690,0.0375,1789.31,-1671.20,1968.81
250,-3.8718,0.3635,0.0389,-757.57,797.55,1906.31
260,-3.8718,0.3445,0.0538,-1460.69,985.05,-1218.69
270,-3.8717,0.3230,0.0763,101.81,-1108.70,656.31
280,-3.8717,0.3093,0.0975,1351.81,1766.24,-781.13
290,-3.8716,0.3088,0.1118,-398.19,484.92,1890.81
300,-3.8716,0.3199,0.1173,-460.69,-1686.95,-234.19
310,-3.8715,0.3348,0.1151,961.18,-983.76,593.93
320,-3.8715,0.3469,0.1077,-1132.57,-1265.01,547.06
330,-3.8716,0.3550,0.0974,414.31,1781.92,-312.32
340,-3.8716,0.3599,0.0881,1445.56,469.42,-1109.19
350,-3.8716,0.3572,0.0824,-1929.44,-718.08,-1062.38
360,-3.8716,0.3455,0.0813,1726.81,-1452.45,-93.63
370,-3.8715,0.3293,0.0864,226.81,-1593.08,1312.62
380,-3.8715,0.3153,0.0986,-1835.69,-936.89,-968.63
390,-3.8713,0.3080,0.1215,367.43,625.61,1515.81
400,-3.8712,0.3094,0.1561,-570.07,-452.58,922.06
410,-3.8711,0.3197,0.1938,-382.57,-15.08,1031.49
420,-3.8710,0.3328,0.2229,929.93,813.11,859.74
430,-3.8710,0.3385,0.2356,-1398.19,531.86,-843.32
440,-3.8710,0.3352,0.2273,-663.82,-1843.14,-780.82
450,-3.8710,0.3302,0.2029,-1085.69,1094.36,1187.93
460,-3.8711,0.3295,0.1775,-1726.32,1969.36,-1937.13
470,-3.8712,0.3342,0.1632,-1820.07,-1280.64,-718.44
480,-3.8712,0.3403,0.1658,-1210.69,891.24,-1937.19
490,-3.8712,0.3405,0.1783,-429.44,1219.36,1750.31
500,-3.8712,0.3330,0.1866,-413.82,-1171.26,1187.81
510,-3.8712,0.3221,0.1902,-1366.94,-108.76,719.06
520,-3.8712,0.3104,0.1962,1242.43,344.36,578.49
530,-3.8712,0.3027,0.2054,-257.57,1109.92,375.37
540,-3.8712,0.3016,0.2175,-1241.94,-1702.58,187.87
550,-3.8713,0.3036,0.2321,-1382.57,-155.70,-46.51
560,-3.8713,0.3073,0.2418,-1132.57,1703.67,-702.70
570,-3.8713,0.3124,0.2400,-663.82,-1046.33,-1983.95
580,-3.8713,0.3208,0.2303,-7.57,-1280.70,172.30
590,-3.8715,0.3281,0.2225,1070.56,1484.99,-1796.45
600,-3.8715,0.3278,0.2181,-1991.94,484.99,484.80
610,-3.8716,0.3187,0.2159,1961.18,-77.51,-609.01
620,-3.8716,0.3013,0.2213,804.93,-358.76,-671.51
630,-3.8715,0.2762,0.2365,-1429.44,328.67,219.18
640,-3.8715,0.2490,0.2529,-632.57,-1733.89,1547.30
650,-3.8715,0.2271,0.2589,-116.94,375.43,-1452.64
660,-3.8715,0.2157,0.2572,1070.56,1141.05,-1046.39
670,-3.8715,0.2219,0.2607,-382.57,922.24,-780.76
680,-3.8713,0.2487,0.2734,414.31,1375.43,187.99
690,-3.8713,0.2872,0.2886,-163.82,-999.57,1922.36
700,-3.8713,0.3209,0.2996,773.68,938.05,-296.33
710,-3.8712,0.3390,0.3064,1086.18,-1655.64,1016.17
720,-3.8712,0.3422,0.3160,-601.32,-780.64,1813.05
730,-3.8712,0.3405,0.3326,-195.07,453.74,-1499.39
740,-3.8712,0.3469,0.3567,-413.82,-1421.26,-468.14
750,-3.8711,0.3628,0.3888,414.31,1656.92,891.30
760,-3.8711,0.3816,0.4221,-1554.44,1766.30,-1608.64
770,-3.8711,0.3977,0.4452,851.81,-1968.02,-108.58
780,-3.8710,0.4093,0.4502,-1085.69,985.11,578.98
790,-3.8711,0.4187,0.4387,398.68,1625.79,-436.65
800,-3.8711,0.4290,0.4198,1601.81,157.04,875.85
810,-3.8712,0.4393,0.4045,-1085.69,1735.17,1641.42
820,-3.8713,0.4465,0.3986,242.43,-217.90,-1093.02
830,-3.8713,0.4476,0.3983,1164.31,-983.52,860.11
840,-3.8715,0.4418,0.4032,1304.93,-1014.77,-436.77
850,-3.8715,0.4287,0.4131,554.93,-389.77,-1155.52
860,-3.8715,0.4108,0.4199,-1116.94,875.79,-1561.71
870,-3.8715,0.3947,0.4153,586.18,1750.79,-1967.96
880,-3.8715,0.3813,0.3999,-1476.32,1156.98,1047.67
890,-3.8716,0.3680,0.3828,820.56,-811.77,-483.64
900,-3.8716,0.3540,0.3761,-882.57,1000.67,-1561.77
910,-3.8716,0.3416,0.3832,1320.56,141.30,-1436.77
920,-3.8716,0.3342,0.3989,-273.19,1047.49,-374.27
930,-3.8715,0.3322,0.4161,-1210.69,-936.89,1203.86
940,-3.8715,0.3320,0.4291,-1476.32,1266.24,-1030.46
950,-3.8713,0.3320,0.4340,-1491.94,-1077.51,688.29
960,-3.8713,0.3276,0.4358,-1491.94,-452.51,-1530.46
970,-3.8712,0.3163,0.4430,1945.56,-218.14,297.67
980,-3.8712,0.2993,0.4567,492.43,703.74,-1577.27
990,-3.8711,0.2786,0.4709,-1679.44,-1546.33,1047.73
1000,-3.8711,0.2588,0.4813,-335.69,281.74,-155.33
1010,-3.8710,0.2445,0.4901,1133.06,1609.86,-1389.71
1020,-3.8708,0.2373,0.5012,-695.07,-1265.20,1032.17
1030,-3.8708,0.2354,0.5110,-1616.94,156.68,-983.40
1040,-3.8707,0.2360,0.5093,-1866.94,1406.68,219.73
1050,-3.8707,0.2375,0.4919,-1788.82,1187.93,32.23
1060,-3.8708,0.2406,0.4694,-1585.69,-1030.82,-1327.21
1070,-3.8708,0.2476,0.4552,-1195.07,78.55,938.42
1080,-3.8710,0.2570,0.4525,-304.44,-1733.95,-217.90
1090,-3.8710,0.2622,0.4563,898.68,1922.36,-561.65
1100,-3.8710,0.2570,0.4598,1570.56,-1593.26,-327.27
1110,-3.8710,0.2444,0.4589,898.68,-1140.14,-77.27
1120,-3.8710,0.2389,0.4529,-710.69,-1265.20,-280.40
1130,-3.8710,0.2499,0.4476,-1413.82,1969.18,-889.77
1140,-3.8710,0.2733,0.4479,-7.57,1297.30,-983.52
1150,-3.8708,0.2985,0.4539,-1007.57,1328.61,110.23
1160,-3.8708,0.3143,0.4602,-1788.82,-1905.70,1438.35
1170,-3.8708,0.3147,0.4591,242.43,-1093.14,-1983.52
1180,-3.8708,0.3024,0.4506,289.31,-1233.76,1969.60
1190,-3.8708,0.2871,0.4437,-1288.82,1672.42,1938.35
1200,-3.8708,0.2759,0.4487,758.06,797.42,-1342.90
1210,-3.8707,0.2675,0.4620,-679.44,1437.99,235.23
1220,-3.8707,0.2583,0.4696,-1757.57,-858.89,1719.60
1230,-3.8707,0.2467,0.4626,1070.56,109.86,-1702.21
1240,-3.8707,0.2324,0.4427,-413.82,-780.82,1907.10
1250,-3.8707,0.2168,0.4172,1758.06,672.30,610.23
1260,-3.8708,0.2032,0.3927,-241.94,1406.62,-1717.96
1270,-3.8710,0.1948,0.3727,-1976.32,-1734.01,-702.39
1280,-3.8710,0.1921,0.3584,945.56,-296.51,781.92
1290,-3.8711,0.1929,0.3464,601.81,1875.37,-1186.83
1300,-3.8711,0.1942,0.3319,695.56,344.12,891.30
1310,-3.8712,0.1924,0.3175,867.43,-1515.26,-999.39
1320,-3.8712,0.1857,0.3048,633.06,640.99,1016.24
1330,-3.8713,0.1785,0.2922,-226.32,-984.07,-999.45
1340,-3.8713,0.1755,0.2809,-1148.19,1406.56,984.92
1350,-3.8715,0.1782,0.2700,-1523.19,-46.57,-1202.64
1360,-3.8715,0.1849,0.2587,-1179.44,-1437.19,750.49
1370,-3.8716,0.1921,0.2468,-320.07,1109.68,-1265.14
1380,-3.8716,0.1945,0.2366,601.81,-405.88,969.18
1390,-3.8717,0.1888,0.2311,898.68,-1718.38,-405.82
1400,-3.8717,0.1816,0.2302,179.93,1578.49,-1218.32
1410,-3.8717,0.1791,0.2346,-741.94,1469.06,-765.20
1420,-3.8716,0.1805,0.2421,-1070.07,-1968.44,687.93
1430,-3.8716,0.1858,0.2452,-882.57,-1015.32,-1687.07
1440,-3.8716,0.1924,0.2397,-210.69,-609.07,-483.95
1450,-3.8716,0.1960,0.2255,633.06,-1312.13,-46.45
1460,-3.8716,0.1926,0.2046,1101.81,859.74,-327.70
1470,-3.8716,0.1785,0.1809,664.31,-1812.13,-1218.38
1480,-3.8716,0.1545,0.1566,-1148.19,-843.44,1406.56
1490,-3.8716,0.1259,0.1332,-210.69,47.12,47.18
1500,-3.8717,0.1001,0.1118,117.43,1047.12,-1015.38
1510,-3.8717,0.0859,0.0945,820.56,-1687.32,-1562.32
1520,-3.8717,0.0842,0.0846,-991.94,93.87,-1312.32
1530,-3.8717,0.0895,0.0833,-1210.69,-1171.75,-531.13
1540,-3.8716,0.0973,0.0891,-538.82,-1343.63,547.00
1550,-3.8716,0.1042,0.0978,461.18,-593.57,1937.62
1560,-3.8716,0.1094,0.1016,1351.81,515.81,-624.82
1570,-3.8715,0.1173,0.0978,-1991.94,1000.18,390.81
1580,-3.8715,0.1277,0.0867,-976.32,515.81,422.06
1590,-3.8716,0.1345,0.0704,351.81,-906.01,-499.88
1600,-3.8716,0.1340,0.0541,1226.81,1015.87,-1687.38
1610,-3.8716,0.1271,0.0402,1164.31,-1077.88,1171.94
1620,-3.8716,0.1190,0.0280,273.68,1140.87,62.56
1630,-3.8717,0.1155,0.0156,-757.57,-421.69,-1250.00
1640,-3.8717,0.1184,0.0012,-1210.69,-1999.82,1187.50
1650,-3.8718,0.1255,-0.0133,-835.69,156.43,-468.75
1660,-3.8718,0.1316,-0.0251,70.56,-1702.88,1749.94
1670,-3.8719,0.1348,-0.0347,851.81,781.49,-46.94
1680,-3.8719,0.1346,-0.0422,1258.06,-437.26,-1218.87
1690,-3.8719,0.1298,-0.0453,1242.43,-1406.01,-1875.12
1700,-3.8719,0.1241,-0.0430,617.43,-1796.63,1749.88
1710,-3.8719,0.1230,-0.0405,-101.32,-1499.82,1718.63
1720,-3.8719,0.1298,-0.0430,-241.94,-1187.32,1531.13
1730,-3.8719,0.1439,-0.0483,617.43,-1499.76,1046.75
1740,-3.8719,0.1637,-0.0525,-1570.07,1812.74,312.38
1750,-3.8721,0.1864,-0.0547,961.18,1281.56,-515.75
1760,-3.8721,0.2053,-0.0563,-132.57,1000.31,-1250.12
1770,-3.8721,0.2175,-0.0591,-1710.69,797.24,1749.88
1780,-3.8721,0.2236,-0.0641,-148.19,437.87,562.38
1790,-3.8722,0.2246,-0.0717,633.06,-202.70,-578.31
1800,-3.8722,0.2235,-0.0820,758.06,-1171.45,-1640.81
1810,-3.8722,0.2195,-0.0939,617.43,1500.43,1593.57
1820,-3.8722,0.2094,-0.1051,101.81,-15.20,1140.38
1830,-3.8722,0.1963,-0.1154,-1195.07,-1452.76,812.26
1840,-3.8722,0.1885,-0.1191,1133.06,1234.74,952.88
1850,-3.8722,0.1917,-0.1155,133.06,750.37,1702.88
1860,-3.8722,0.2094,-0.1138,539.31,1219.12,-1234.62
1870,-3.8721,0.2407,-0.1163,-1195.07,1437.87,62.26
1880,-3.8721,0.2754,-0.1208,-1179.44,1109.80,1031.01
1890,-3.8721,0.3031,-0.1256,-741.94,531.74,1671.63
1900,-3.8721,0.3192,-0.1224,-1195.07,-77.58,-1140.93
1910,-3.8719,0.3217,-0.1033,867.43,328.74,1031.01
1920,-3.8719,0.3157,-0.0758,1179.93,-1218.14,-125.24
1930,-3.8718,0.3113,-0.0530,414.31,-1702.51,-875.18
1940,-3.8717,0.3069,-0.0391,-148.19,1219.30,1999.88
1950,-3.8717,0.3010,-0.0332,-710.69,-999.45,-422.00
1960,-3.8717,0.3000,-0.0359,-1460.69,-249.45,-203.25
1970,-3.8717,0.3044,-0.0446,-1585.69,-593.20,-937.62
1980,-3.8717,0.3080,-0.0540,-1023.19,-1702.58,-1890.75
1990,-3.8717,0.3048,-0.0604,-570.07,1094.30,1624.88
2000,-3.8717,0.2913,-0.0582,-976.32,266.17,1828.00
2010,-3.8717,0.2727,-0.0474,1289.31,547.42,-1609.50
2020,-3.8717,0.2573,-0.0337,-1085.69,1937.99,-672.00
2030,-3.8716,0.2444,-0.0164,945.56,-312.01,765.50
2040,-3.8716,0.2306,0.0037,-710.69,1906.68,-1609.44
2050,-3.8716,0.2170,0.0159,1523.68,469.18,-187.50
2060,-3.8715,0.2087,0.0122,-210.69,-1968.38,375.00
2070,-3.8715,0.2115,-0.0010,-1273.19,1562.87,31.25
2080,-3.8716,0.2290,-0.0132,-913.82,-124.63,-796.94
2090,-3.8716,0.2448,-0.0212,1320.56,-1687.07,-890.69
2100,-3.8715,0.2393,-0.0149,-663.82,1281.68,171.81
2110,-3.8715,0.2173,0.0118,-1366.94,-1905.82,-1734.44
2120,-3.8713,0.1913,0.0460,-179.44,1515.99,1265.62
2130,-3.8713,0.1749,0.0726,492.43,1890.99,-374.94
2140,-3.8712,0.1796,0.0856,-1601.32,1297.18,922.00
2150,-3.8712,0.2013,0.0907,-1007.57,-1046.57,1297.00
2160,-3.8712,0.2273,0.0939,1773.68,-390.26,531.37
2170,-3.8713,0.2527,0.0930,1101.81,16.05,-1077.94
2180,-3.8713,0.2754,0.0840,351.81,-93.26,984.50
2190,-3.8715,0.2930,0.0693,-741.94,-1249.51,-999.88
2200,-3.8715,0.3080,0.0574,1508.06,875.55,1062.62
2210,-3.8716,0.3235,0.0551,-570.07,-655.70,-312.44
2220,-3.8716,0.3407,0.0670,1414.31,-952.51,-265.56
2230,-3.8715,0.3621,0.0935,-382.57,578.74,1312.62
2240,-3.8715,0.3923,0.1278,-1648.19,-30.58,-171.75
2250,-3.8713,0.4315,0.1625,-1773.19,360.11,-1265.38
2260,-3.8712,0.4733,0.1926,-757.57,797.67,1500.31
2270,-3.8712,0.5114,0.2167,586.18,657.17,-155.88
2280,-3.8711,0.5363,0.2323,1461.18,-264.65,1687.87
2290,-3.8711,0.5422,0.2394,648.68,1735.41,-1343.32
2300,-3.8711,0.5281,0.2391,1414.31,-1358.34,-1374.57
2310,-3.8711,0.4963,0.2310,-398.19,-1389.65,-1687.07
2320,-3.8711,0.4512,0.2188,-460.69,1563.42,1906.68
2330,-3.8711,0.4038,0.2067,1758.06,0.85,828.55
2340,-3.8712,0.3708,0.2018,-304.44,-1546.14,-171.51
2350,-3.8712,0.3547,0.2097,-523.19,1828.80,-312.13
2360,-3.8711,0.3468,0.2285,1414.31,-1155.58,469.12
2370,-3.8711,0.3376,0.2518,398.68,1250.67,1937.93
2380,-3.8711,0.3195,0.2695,-773.19,234.99,-780.76
2390,-3.8711,0.2920,0.2753,898.68,-1499.39,-233.89
2400,-3.8711,0.2614,0.2705,1383.06,-765.08,-671.39
2410,-3.8711,0.2396,0.2610,1461.18,-1374.51,1844.24
2420,-3.8712,0.2351,0.2515,-1320.07,1406.68,-15.14
2430,-3.8712,0.2433,0.2487,-1898.19,187.93,-1421.39
2440,-3.8712,0.2555,0.2556,-851.32,-171.45,1656.68
2450,-3.8712,0.2725,0.2671,711.18,719.24,844.24
2460,-3.8712,0.2970,0.2789,-1116.94,-1812.01,562.99
2470,-3.8712,0.3251,0.2950,-1976.32,-296.33,1266.11
2480,-3.8712,0.3474,0.3176,1617.43,1766.24,-1577.58
2490,-3.8712,0.3611,0.3403,476.81,656.92,-452.51
2500,-3.8711,0.3719,0.3551,-1773.19,-436.83,625.61
2510,-3.8711,0.3865,0.3624,-382.57,1453.80,1672.55
2520,-3.8711,0.4058,0.3744,1476.81,-1608.64,-1327.45
2530,-3.8711,0.4294,0.3984,-54.44,-77.39,-108.70
2540,-3.8710,0.4565,0.4235,-1023.19,-999.21,1766.36
2550,-3.8710,0.4850,0.4369,-1554.44,-1796.02,-124.21
2560,-3.8708,0.5099,0.4373,-1913.82,-77.21,1407.04
2570,-3.8708,0.5211,0.4279,1273.68,-30.27,1969.54
2580,-3.8708,0.5079,0.4166,-1288.82,-1233.40,-1889.83
2590,-3.8708,0.4690,0.4113,1023.68,1329.10,-1514.83
2600,-3.8708,0.4141,0.4135,39.31,641.54,-514.83
2610,-3.8707,0.3578,0.4192,1008.06,922.67,750.79
2620,-3.8707,0.3110,0.4186,1804.93,1656.92,1578.92
2630,-3.8707,0.2788,0.4052,-179.44,1578.67,1594.54
2640,-3.8707,0.2615,0.3854,-304.44,-140.14,735.11
2650,-3.8708,0.2598,0.3721,1476.81,1328.61,-764.89
2660,-3.8708,0.2725,0.3690,1258.06,-374.51,1563.17
2670,-3.8708,0.2910,0.3706,-1116.94,-765.14,266.30
2680,-3.8710,0.3035,0.3707,1258.06,-561.95,-374.33
2690,-3.8710,0.3036,0.3669,-1148.19,-546.33,-858.70
2700,-3.8710,0.2959,0.3629,-1132.57,-1030.70,-1436.83
2710,-3.8710,0.2860,0.3643,1883.06,-1546.33,-1827.45
2720,-3.8710,0.2749,0.3698,617.43,-1374.45,1953.80
2730,-3.8710,0.2651,0.3763,-804.44,-671.39,1750.67
2740,-3.8710,0.2587,0.3818,1945.56,172.36,1250.73
2750,-3.8710,0.2582,0.3826,1117.43,875.49,125.73
2760,-3.8711,0.2672,0.3817,1054.93,969.24,-1405.52
2770,-3.8711,0.2839,0.3834,-1788.82,859.86,1344.48
2780,-3.8711,0.3031,0.3831,351.81,1078.67,719.48
2790,-3.8711,0.3191,0.3806,-1195.07,1031.80,406.98
2800,-3.8711,0.3302,0.3844,851.81,719.36,266.36
2810,-3.8711,0.3337,0.4000,-1726.32,1203.74,844.48
2820,-3.8711,0.3262,0.4172,-1273.19,-796.26,-1514.89
2830,-3.8710,0.3091,0.4247,1758.06,1406.86,688.29
2840,-3.8710,0.2880,0.4227,-429.44,-1640.08,-1639.83
2850,-3.8710,0.2720,0.4175,867.43,-1890.08,-421.08
2860,-3.8708,0.2623,0.4166,-1179.44,1437.99,797.67
2870,-3.8708,0.2567,0.4199,1586.18,1328.61,1641.42
2880,-3.8708,0.2567,0.4183,867.43,1750.49,-1217.96
2890,-3.8707,0.2568,0.4078,867.43,1547.36,0.79
2900,-3.8707,0.2488,0.3918,883.06,203.61,469.54
2910,-3.8707,0.2324,0.3751,-148.19,-1843.32,391.36
2920,-3.8708,0.2101,0.3597,1758.06,16.05,-186.77
2930,-3.8708,0.1902,0.3477,-1101.32,-1952.76,-1374.33
2940,-3.8708,0.1859,0.3435,351.81,500.37,1625.67
2950,-3.8708,0.1986,0.3516,-195.07,-30.94,1641.24
2960,-3.8708,0.2174,0.3689,1429.93,1000.37,-1546.20
2970,-3.8708,0.2321,0.3850,-163.82,-780.88,-780.58
2980,-3.8708,0.2410,0.3884,1711.18,1281.68,-827.39
2990,-3.8708,0.2471,0.3761,-1148.19,1719.18,-1733.64
3000,-3.8708,0.2491,0.3542,-366.94,141.05,719.48
3010,-3.8710,0.2452,0.3281,-101.32,1344.18,-1593.08
3020,-3.8711,0.2366,0.3022,-601.32,-1999.57,-421.26
3030,-3.8711,0.2246,0.2797,-1710.69,-1312.07,797.42
3040,-3.8712,0.2106,0.2577,758.06,-202.70,-1827.64
3050,-3.8713,0.1971,0.2350,-1038.82,984.74,-249.51
3060,-3.8713,0.1849,0.2115,1242.43,-1921.51,1266.05
3070,-3.8715,0.1741,0.1912,-320.07,-921.57,-1155.88
3080,-3.8715,0.1654,0.1790,-1710.69,469.06,969.12
3090,-3.8716,0.1576,0.1761,1179.93,-1093.44,-265.32
3100,-3.8716,0.1510,0.1772,179.93,-1452.82,-749.69
3110,-3.8716,0.1472,0.1726,-663.82,-1312.26,-1030.94
3120,-3.8716,0.1464,0.1610,-1148.19,-1906.01,-1655.94
3130,-3.8716,0.1465,0.1464,-1257.57,609.62,1265.93
3140,-3.8717,0.1476,0.1290,-1241.94,-1265.38,-484.13
3150,-3.8717,0.1505,0.1068,-1101.32,515.87,1437.74
3160,-3.8718,0.1508,0.0857,-726.32,1672.12,-265.44
3170,-3.8718,0.1439,0.0746,-695.07,-1031.01,-1531.13
3180,-3.8718,0.1339,0.0701,-1570.07,1547.12,1437.62
3190,-3.8718,0.1272,0.0638,1148.68,968.99,687.62
3200,-3.8718,0.1260,0.0551,289.31,172.12,140.75
3210,-3.8719,0.1274,0.0466,133.06,-952.88,-328.06
3220,-3.8719,0.1311,0.0409,320.56,1968.99,-468.69
3230,-3.8719,0.1385,0.0352,789.31,1234.62,-578.06
3240,-3.8719,0.1501,0.0273,1742.43,500.24,-999.94
3250,-3.8719,0.1652,0.0187,-773.19,-499.76,-1609.38
3260,-3.8719,0.1801,0.0111,1148.68,-1609.07,1687.50
3270,-3.8719,0.1902,0.0051,-945.07,1422.18,906.25
3280,-3.8719,0.1936,-0.0016,351.81,656.62,312.50
3290,-3.8719,0.1907,-0.0084,789.31,-202.76,359.31
3300,-3.8719,0.1821,-0.0118,414.31,-1077.76,765.56
3310,-3.8719,0.1726,-0.0120,-679.44,-1515.32,1484.31
3320,-3.8719,0.1672,-0.0115,-1898.19,-1530.94,-1421.94
3330,-3.8719,0.1696,-0.0143,1414.31,-1468.44,-187.56
3340,-3.8718,0.1804,-0.0232,1711.18,-1827.82,640.56
3350,-3.8718,0.1967,-0.0383,-898.19,1031.56,546.81
3360,-3.8719,0.2122,-0.0566,1179.93,-905.88,-343.87
3370,-3.8719,0.2247,-0.0724,-835.69,750.37,-1562.62
3380,-3.8719,0.2369,-0.0826,773.68,-1265.20,1296.69
3390,-3.8719,0.2478,-0.0858,-1663.82,1422.30,593.57
3400,-3.8719,0.2528,-0.0828,-273.19,1016.05,499.82
3410,-3.8719,0.2482,-0.0806,367.43,1406.74,874.82
3420,-3.8719,0.2344,-0.0839,-226.32,1687.93,1531.07
3430,-3.8719,0.2192,-0.0891,-1991.94,1266.05,-1812.68
3440,-3.8719,0.2115,-0.0905,70.56,594.18,-1218.93
3450,-3.8719,0.2126,-0.0868,-913.82,422.24,-531.43
3460,-3.8718,0.2213,-0.0825,-773.19,890.99,234.19
3470,-3.8718,0.2338,-0.0793,336.18,1437.93,890.44
3480,-3.8718,0.2439,-0.0752,1929.93,1844.18,1468.57
3490,-3.8718,0.2498,-0.0721,-773.19,-1624.57,1906.07
3500,-3.8718,0.2502,-0.0729,-23.19,-1233.95,-1875.18
3510,-3.8718,0.2426,-0.0767,39.31,-1327.64,1796.69
3520,-3.8718,0.2316,-0.0814,-945.07,-1812.07,734.19
3530,-3.8719,0.2258,-0.0854,1648.68,1578.55,-640.81
3540,-3.8719,0.2283,-0.0918,914.31,1062.93,-1906.43
3550,-3.8719,0.2347,-0.1005,1226.81,250.43,1046.69
3560,-3.8719,0.2384,-0.1061,-1945.07,-858.95,421.63
3570,-3.8719,0.2346,-0.1034,-1476.32,-1577.70,531.01
3580,-3.8719,0.2255,-0.0928,-1960.69,-1233.95,1202.88
3590,-3.8719,0.2184,-0.0803,867.43,125.43,-1875.18
3600,-3.8719,0.2172,-0.0671,-38.82,1719.12,-750.18
3610,-3.8718,0.2206,-0.0537,-195.07,-593.38,312.32
3620,-3.8718,0.2283,-0.0428,242.43,1125.43,781.13
3630,-3.8718,0.2412,-0.0363,1226.81,-1483.95,468.63
3640,-3.8719,0.2606,-0.0382,-1116.94,-640.20,-593.87
3650,-3.8719,0.2902,-0.0477,1367.43,-890.14,-1890.75
3660,-3.8719,0.3267,-0.0520,1148.68,1891.17,1796.75
3670,-3.8719,0.3604,-0.0391,1820.56,1344.36,-1031.37
3680,-3.8718,0.3864,-0.0109,-1866.94,-999.33,1562.38
3690,-3.8717,0.4022,0.0206,1461.18,-1389.89,1249.94
3700,-3.8716,0.4041,0.0447,-507.57,-1358.64,1062.50
3710,-3.8716,0.3926,0.0558,-273.19,1719.48,-46.81
3720,-3.8715,0.3766,0.0563,-1741.94,-858.64,1359.44
3730,-3.8715,0.3646,0.0508,211.18,-796.14,1437.56
3740,-3.8715,0.3643,0.0397,-1320.07,-1499.33,218.81
3750,-3.8716,0.3785,0.0229,-1366.94,1078.80,-1484.31
3760,-3.8716,0.3990,0.0067,461.18,-1061.77,1218.75
3770,-3.8716,0.4163,0.0002,-913.82,860.11,578.12
3780,-3.8716,0.4209,0.0103,1289.31,32.04,765.62
3790,-3.8716,0.4103,0.0365,1883.06,1313.29,1515.62
3800,-3.8716,0.3934,0.0697,523.68,672.67,-1140.56
3810,-3.8715,0.3790,0.0978,-1632.57,922.61,656.37
3820,-3.8715,0.3711,0.1132,523.68,516.36,-1999.82
3830,-3.8715,0.3784,0.1099,-491.94,-1514.95,-1796.69
3840,-3.8715,0.4021,0.0929,445.56,-1936.77,1812.68
3850,-3.8715,0.4302,0.0764,-523.19,-108.64,1453.25
3860,-3.8715,0.4536,0.0636,-929.44,1782.04,859.50
3870,-3.8715,0.4659,0.0597,-1929.44,141.48,672.00
3880,-3.8715,0.4590,0.0742,-351.32,-358.52,1968.81
3890,-3.8713,0.4313,0.1014,-1241.94,1500.85,797.00
3900,-3.8712,0.3923,0.1293,-788.82,985.17,578.31
3910,-3.8712,0.3553,0.1488,-1773.19,547.61,-140.38
3920,-3.8711,0.3323,0.1567,1492.43,-952.45,1453.37
3930,-3.8711,0.3298,0.1544,-1460.69,63.11,1609.68
3940,-3.8711,0.3477,0.1477,-1773.19,-233.76,1250.24
3950,-3.8711,0.3739,0.1443,508.06,-1093.08,640.87
3960,-3.8712,0.3955,0.1425,-132.57,-1530.58,-452.88
3970,-3.8712,0.4066,0.1384,-1366.94,-1764.89,-1546.63
3980,-3.8712,0.4015,0.1403,54.93,1719.54,-1952.88
3990,-3.8712,0.3856,0.1498,-601.32,1953.86,1828.37
4000,-3.8712,0.3748,0.1624,1367.43,-827.39,1547.12
4010,-3.8712,0.3750,0.1781,-23.19,781.92,1328.43
4020,-3.8712,0.3826,0.1949,8.06,-1202.39,1140.93
4030,-3.8712,0.3925,0.2098,976.81,953.86,1062.87
4040,-3.8712,0.4041,0.2190,-1757.57,-1139.89,547.24
4050,-3.8713,0.4203,0.2200,-273.19,31.98,-702.70
4060,-3.8713,0.4408,0.2179,1804.93,157.04,1547.30
4070,-3.8713,0.4620,0.2214,429.93,-108.52,125.37
4080,-3.8713,0.4769,0.2391,-851.32,344.60,469.18
4090,-3.8713,0.4779,0.2711,1054.93,-1389.71,-1343.32
4100,-3.8712,0.4668,0.3053,1179.93,-1295.96,1687.99
4110,-3.8711,0.4490,0.3278,-241.94,-921.02,672.42
4120,-3.8711,0.4308,0.3339,1476.81,1953.98,-1796.26
4130,-3.8711,0.4200,0.3246,-851.32,-1264.83,1531.86
4140,-3.8712,0.4185,0.3042,1773.68,1547.67,-1202.51
4150,-3.8713,0.4216,0.2831,1570.56,-1061.71,-1499.45
4160,-3.8715,0.4220,0.2665,1976.81,235.17,1672.42
4170,-3.8716,0.4142,0.2498,-1976.32,-1889.83,1016.11
4180,-3.8717,0.3975,0.2325,1023.68,-30.46,812.93
4190,-3.8718,0.3795,0.2197,-1116.94,1766.36,1359.80
4200,-3.8719,0.3739,0.2136,586.18,125.73,-874.57
4210,-3.8719,0.3815,0.2186,-132.57,-655.58,-1234.01
4220,-3.8719,0.3899,0.2397,836.18,-14.89,-77.76
4230,-3.8718,0.3940,0.2716,1914.31,-1311.77,-1858.95
4240,-3.8717,0.3997,0.3041,-1554.44,-1233.64,1562.99
4250,-3.8716,0.4075,0.3345,-835.69,-1077.39,1625.55
4260,-3.8715,0.4127,0.3625,164.31,-1186.71,1750.61
4270,-3.8713,0.4149,0.3846,836.18,-1592.96,1516.30
4280,-3.8712,0.4202,0.3960,1117.43,1235.17,297.61
4290,-3.8712,0.4346,0.3939,1789.31,-1311.71,1891.36
4300,-3.8712,0.4532,0.3840,-366.94,-1577.33,-1358.64
4310,-3.8712,0.4635,0.3757,-1976.32,1157.10,-1577.39
4320,-3.8712,0.4619,0.3750,-663.82,94.60,1688.23
4330,-3.8712,0.4559,0.3831,-866.94,0.85,1547.61
4340,-3.8712,0.4541,0.3928,-1632.57,1032.10,-1733.64
4350,-3.8712,0.4572,0.4025,-1866.94,-1717.90,-249.27
4360,-3.8711,0.4563,0.4210,-1476.32,-483.52,1985.11
4370,-3.8710,0.4438,0.4465,-1585.69,1891.48,782.04
4380,-3.8710,0.4240,0.4681,820.56,1157.10,-436.65
4390,-3.8708,0.4062,0.4775,-1726.32,-77.33,1750.85
4400,-3.8708,0.3954,0.4720,8.06,1125.79,-1014.71
4410,-3.8708,0.3889,0.4563,-1382.57,422.61,-842.83
4420,-3.8708,0.3826,0.4396,1789.31,-1593.02,-1733.52
4430,-3.8708,0.3751,0.4319,976.81,266.36,1250.85
4440,-3.8708,0.3677,0.4353,23.68,-718.02,1000.79
4450,-3.8708,0.3625,0.4412,-929.44,-280.58,1125.79
4460,-3.8708,0.3586,0.4424,-1585.69,469.42,1328.98
4470,-3.8708,0.3512,0.4385,1914.31,625.67,1391.48
4480,-3.8708,0.3386,0.4316,961.18,125.67,1078.98
4490,-3.8708,0.3228,0.4264,-648.19,-749.39,657.04
4500,-3.8708,0.3070,0.4268,1320.56,-1421.26,563.29
4510,-3.8708,0.2933,0.4312,-695.07,-1374.45,953.92
4520,-3.8708,0.2821,0.4349,1554.93,-811.95,1688.29
4530,-3.8708,0.2739,0.4341,117.43,-327.58,-1702.33
4540,-3.8708,0.2683,0.4260,-929.44,-437.01,-1874.21
4550,-3.8708,0.2662,0.4152,-1648.19,-1468.26,1125.79
4560,-3.8710,0.2683,0.4089,-1913.82,1141.11,-124.21
4570,-3.8710,0.2738,0.4072,-1648.19,344.24,-1077.33
4580,-3.8710,0.2814,0.4069,-945.07,125.49,-1374.21
4590,-3.8710,0.2848,0.4080,23.68,78.67,-1202.33
4600,-3.8710,0.2776,0.4095,461.18,219.30,-1014.83
4610,-3.8710,0.2642,0.4102,-460.69,422.36,-1014.83
4620,-3.8710,0.2523,0.4113,1820.56,500.49,-1061.71
4630,-3.8710,0.2466,0.4141,304.93,641.11,-1171.08
4640,-3.8710,0.2504,0.4161,-429.44,1000.43,-1452.33
4650,-3.8710,0.2592,0.4120,54.93,1266.11,-1827.33
4660,-3.8710,0.2642,0.3987,1179.93,734.86,1235.17
4670,-3.8711,0.2621,0.3800,1820.56,-968.26,-624.27
4680,-3.8711,0.2571,0.3616,1554.93,641.11,1094.48
4690,-3.8712,0.2518,0.3441,914.31,-1718.26,-1202.45
4700,-3.8712,0.2427,0.3289,242.43,47.36,750.67
4710,-3.8713,0.2274,0.3207,-929.44,-1905.82,-874.39
4720,-3.8713,0.2103,0.3197,1117.43,1047.30,-1874.39
4730,-3.8713,0.2020,0.3212,-1070.07,922.24,-1905.64
4740,-3.8713,0.2052,0.3247,1867.43,1109.74,-1186.89
4750,-3.8713,0.2126,0.3278,-1726.32,1562.87,-390.01
4760,-3.8713,0.2194,0.3221,-773.19,1953.49,-61.89
4770,-3.8713,0.2218,0.3057,86.18,1234.80,-530.64
4780,-3.8713,0.2190,0.2854,398.68,-874.57,-1718.20
4790,-3.8713,0.2135,0.2657,39.31,531.68,672.42
4800,-3.8715,0.2073,0.2466,-663.82,-1984.01,-1155.76
4810,-3.8715,0.1990,0.2273,-1460.69,-437.13,859.80
4820,-3.8716,0.1885,0.2097,1476.81,1094.12,-1062.07
4830,-3.8716,0.1777,0.1959,133.06,-1155.88,1297.24
4840,-3.8717,0.1698,0.1847,-1241.94,1078.43,-46.51
4850,-3.8717,0.1655,0.1755,1742.43,-359.07,-827.82
4860,-3.8717,0.1624,0.1691,1195.56,-1530.94,-1187.19
4870,-3.8717,0.1589,0.1639,789.31,1640.93,-1421.57
4880,-3.8717,0.1575,0.1569,351.81,984.68,-1562.19
4890,-3.8717,0.1602,0.1470,164.31,78.43,1969.06
4900,-3.8717,0.1650,0.1372,508.06,-1187.19,1297.12
4910,-3.8717,0.1694,0.1285,1133.06,1562.81,765.87
4920,-3.8717,0.1725,0.1180,1695.56,453.43,250.24
4930,-3.8718,0.1715,0.1049,-1913.82,-890.32,-437.32
4940,-3.8718,0.1675,0.0914,1961.18,1422.18,-1671.69
4950,-3.8718,0.1665,0.0776,1445.56,-296.57,797.00
4960,-3.8719,0.1671,0.0631,1320.56,1937.81,-328.00
4970,-3.8719,0.1635,0.0519,1398.68,78.43,-1015.50
4980,-3.8719,0.1556,0.0458,929.93,-1359.07,-1515.56
4990,-3.8719,0.1487,0.0439,-70.07,1859.62,-1437.44
5000,-3.8719,0.1470,0.0450,-960.69,1625.24,-984.31
5010,-3.8719,0.1527,0.0441,-1179.44,1765.87,-890.56
5020,-3.8719,0.1636,0.0359,-445.07,1640.87,-1218.69
5030,-3.8719,0.1733,0.0222,945.56,594.06,1953.19
5040,-3.8719,0.1801,0.0090,-1804.44,-1155.94,906.25
5050,-3.8719,0.1852,0.0026,-945.07,1156.56,218.75
5060,-3.8721,0.1888,0.0012,-288.82,328.43,-156.25
5070,-3.8721,0.1897,-0.0001,179.93,156.62,-93.75
5080,-3.8719,0.1853,-0.0034,289.31,-15.26,343.69
5090,-3.8719,0.1781,-0.0071,-273.19,-437.19,828.06
5100,-3.8719,0.1749,-0.0079,-1195.07,-905.94,1515.56
5110,-3.8719,0.1791,-0.0062,-1601.32,-1015.32,-1625.06
5120,-3.8719,0.1893,-0.0034,-1070.07,-796.57,-781.31
5130,-3.8719,0.2009,-0.0010,242.43,-437.13,-93.81
5140,-3.8718,0.2107,-0.0012,1726.81,-124.63,374.94
5150,-3.8718,0.2189,-0.0045,-1023.19,-155.88,703.06
5160,-3.8718,0.2262,-0.0104,23.68,-577.70,1015.56
5170,-3.8718,0.2334,-0.0189,961.18,-1327.70,1203.06
5180,-3.8718,0.2388,-0.0282,1883.06,1578.55,984.31
5190,-3.8718,0.2407,-0.0345,-1429.44,391.05,374.94
5200,-3.8719,0.2426,-0.0359,-1179.44,-421.45,-265.75
5210,-3.8719,0.2465,-0.0312,-945.07,-593.32,-500.12
5220,-3.8719,0.2506,-0.0222,-445.07,0.43,-218.81
5230,-3.8718,0.2539,-0.0114,86.18,1156.74,421.81
5240,-3.8718,0.2566,0.0000,508.06,-1452.64,1234.31
5250,-3.8718,0.2610,0.0087,851.81,0.49,1843.75
5260,-3.8718,0.2693,0.0134,1414.31,1109.86,1812.50
5270,-3.8718,0.2812,0.0146,-1523.19,1719.24,1000.00
5280,-3.8719,0.2994,0.0103,8.06,1875.55,-406.25
5290,-3.8719,0.3226,0.0016,-1663.82,1313.05,-1953.12
5300,-3.8719,0.3453,-0.0038,1304.93,203.74,609.38
5310,-3.8721,0.3635,-0.0049,211.18,-483.70,-562.56
5320,-3.8721,0.3724,-0.0038,-1460.69,-624.33,-843.81
5330,-3.8721,0.3673,-0.0002,-320.07,-483.70,-265.69
5340,-3.8719,0.3508,0.0049,-976.32,-30.58,624.94
5350,-3.8719,0.3289,0.0142,914.31,625.67,-1968.75
5360,-3.8719,0.3087,0.0256,-1898.19,1813.11,-421.88
5370,-3.8718,0.3024,0.0298,-476.32,-718.20,375.00
5380,-3.8718,0.3180,0.0258,-1288.82,-186.95,187.50
5390,-3.8719,0.3485,0.0217,711.18,-702.51,-515.62
5400,-3.8719,0.3744,0.0201,617.43,-1218.08,-1062.50
5410,-3.8719,0.3828,0.0186,-70.07,-1421.20,-1437.50
5420,-3.8719,0.3732,0.0223,1008.06,-1624.27,-921.88
5430,-3.8718,0.3480,0.0399,-226.32,-1139.95,1187.50
5440,-3.8717,0.3177,0.0646,554.93,1110.05,93.81
5450,-3.8717,0.2964,0.0868,679.93,266.24,-1124.88
5460,-3.8716,0.2899,0.1030,1945.56,-890.08,672.00
5470,-3.8716,0.2935,0.1066,1117.43,1188.05,1187.68
5480,-3.8716,0.2932,0.0958,1570.56,1641.17,453.31
5490,-3.8717,0.2800,0.0737,1539.31,266.17,1890.81
5500,-3.8718,0.2654,0.0386,-148.19,1437.99,890.75
5510,-3.8721,0.2740,-0.0095,1976.81,937.99,1781.31
5520,-3.8722,0.3167,-0.0486,-913.82,-1218.26,140.56
5530,-3.8723,0.3716,-0.0413,539.31,1781.86,-484.50
5540,-3.8721,0.4131,0.0247,-429.44,-1280.58,546.75
5550,-3.8718,0.4348,0.1301,883.06,-842.96,-1468.75
5560,-3.8715,0.4377,0.2460,-335.69,657.04,-906.01
5570,-3.8711,0.4312,0.3385,39.31,-514.77,-1265.20
5580,-3.8708,0.4374,0.3793,-804.44,-671.08,-999.39
5590,-3.8707,0.4677,0.3722,-7.57,547.67,-499.27
5600,-3.8706,0.5055,0.3435,-132.57,-358.52,375.67
5610,-3.8707,0.5356,0.3063,711.18,-30.27,1484.99
5620,-3.8708,0.5540,0.2632,570.56,-795.84,359.92
5630,-3.8711,0.5524,0.2260,-1085.69,1688.54,-718.26
5640,-3.8712,0.5299,0.2073,-1288.82,922.91,-562.07
5650,-3.8712,0.4996,0.2114,-163.82,-1467.77,1469.12
5660,-3.8712,0.4733,0.2358,-38.82,-936.58,1734.74
5670,-3.8712,0.4564,0.2711,586.18,-1811.58,-515.20
5680,-3.8711,0.4553,0.3052,-1570.07,-1296.02,1281.74
5690,-3.8711,0.4684,0.3304,-1710.69,-936.65,-1421.33
5700,-3.8711,0.4880,0.3413,-38.82,-1702.27,-968.14
5710,-3.8711,0.5074,0.3340,-1523.19,-311.58,-1936.89
5720,-3.8712,0.5159,0.3131,961.18,-1249.02,-249.39
5730,-3.8712,0.5055,0.2867,-1960.69,79.10,156.86
5740,-3.8715,0.4838,0.2620,711.18,704.10,-77.58
5750,-3.8715,0.4657,0.2495,1929.93,1532.17,812.99
5760,-3.8715,0.4531,0.2623,-382.57,-61.65,344.18
5770,-3.8715,0.4432,0.3025,-1991.94,1578.98,-1358.89
5780,-3.8713,0.4398,0.3571,742.43,-1280.40,-936.95
5790,-3.8711,0.4399,0.4080,304.93,1703.98,875.67
5800,-3.8710,0.4360,0.4436,320.56,219.60,-1233.58
5810,-3.8708,0.4288,0.4640,-179.44,782.04,-452.27
5820,-3.8707,0.4164,0.4761,-1101.32,-608.58,-467.90
5830,-3.8706,0.3936,0.4882,1304.93,938.29,-889.71
5840,-3.8705,0.3583,0.4988,-1616.94,-1514.89,1954.04
5850,-3.8705,0.3181,0.5027,1867.43,-155.58,-311.58
5860,-3.8704,0.2896,0.4979,726.81,344.36,282.23
5870,-3.8705,0.2847,0.4784,1070.56,-265.08,-342.83
5880,-3.8705,0.3064,0.4468,445.56,1234.92,1375.92
5890,-3.8706,0.3461,0.4186,-773.19,1188.05,1375.85
5900,-3.8707,0.3878,0.4071,304.93,1578.80,750.79
5910,-3.8708,0.4215,0.4143,1648.68,110.11,1032.04
5920,-3.8710,0.4431,0.4287,1961.18,1032.04,-1296.08
5930,-3.8710,0.4509,0.4362,726.81,-1124.15,1141.42
5940,-3.8711,0.4481,0.4325,1726.81,-171.02,-686.71
5950,-3.8711,0.4410,0.4290,1367.43,-639.77,1016.42
5960,-3.8712,0.4369,0.4349,461.18,-1092.90,-1217.96
5970,-3.8712,0.4424,0.4437,-70.07,-327.33,1032.04
5980,-3.8713,0.4580,0.4448,633.06,797.73,-202.27
5990,-3.8713,0.4751,0.4351,-1366.94,938.35,-1358.52
6000,-3.8713,0.4829,0.4232,820.56,-311.58,1438.29
6010,-3.8713,0.4773,0.4216,1820.56,-1827.21,922.67
6020,-3.8713,0.4603,0.4274,1101.81,1969.67,1375.79
6030,-3.8713,0.4330,0.4298,-1070.07,-1296.02,-1389.83
6040,-3.8712,0.3931,0.4271,-570.07,-983.58,453.92
6050,-3.8712,0.3444,0.4215,-1679.44,-1327.39,-1874.21
6060,-3.8712,0.2998,0.4196,86.18,1953.80,-749.21
6070,-3.8711,0.2679,0.4302,-1616.94,1703.67,547.67
6080,-3.8711,0.2478,0.4485,-1695.07,-937.01,-1249.21
6090,-3.8710,0.2363,0.4611,-273.19,1406.68,1578.98
6100,-3.8710,0.2305,0.4606,-1741.94,-983.95,-280.40
6110,-3.8708,0.2299,0.4471,1508.06,-1046.45,547.73
6120,-3.8708,0.2349,0.4277,1429.93,1234.80,110.23
6130,-3.8710,0.2443,0.4111,-1929.44,-1249.57,-1389.83
6140,-3.8710,0.2548,0.3978,-726.32,625.43,563.29
6150,-3.8711,0.2600,0.3893,617.43,-1077.64,-1421.14
6160,-3.8711,0.2554,0.3906,1289.31,1828.61,1406.98
6170,-3.8711,0.2452,0.4000,695.56,-1999.51,1328.86
6180,-3.8711,0.2367,0.4095,-601.32,-796.45,1860.11
6190,-3.8711,0.2313,0.4104,-1695.07,422.30,-1608.58
6200,-3.8711,0.2274,0.3975,1617.43,531.68,-1467.96
6210,-3.8711,0.2262,0.3748,1117.43,-1124.57,1656.98
6220,-3.8712,0.2303,0.3501,961.18,-30.82,-530.58
6230,-3.8712,0.2407,0.3314,1492.43,812.93,860.05
6240,-3.8713,0.2546,0.3212,-1179.44,-1577.70,-1202.51
6250,-3.8713,0.2667,0.3145,601.81,1109.86,1625.61
6260,-3.8713,0.2714,0.3079,-1851.32,250.49,922.49
6270,-3.8713,0.2684,0.3011,-1257.57,-593.26,281.80
6280,-3.8715,0.2637,0.2935,-1632.57,-1452.64,-265.08
6290,-3.8715,0.2657,0.2845,1758.06,1562.99,-1093.20
6300,-3.8715,0.2780,0.2788,-1976.32,422.36,1953.67
6310,-3.8715,0.2930,0.2788,-413.82,-312.01,1312.99
6320,-3.8715,0.3020,0.2776,1508.06,-311.95,1000.49
6330,-3.8715,0.2994,0.2662,-1335.69,-468.20,609.86
6340,-3.8716,0.2848,0.2457,-1663.82,-1921.33,-265.14
6350,-3.8716,0.2659,0.2256,461.18,-546.33,-1374.57
6360,-3.8716,0.2502,0.2126,-1960.69,875.49,1641.05
6370,-3.8716,0.2408,0.2040,39.31,-780.76,906.62
6380,-3.8716,0.2383,0.1941,-1163.82,-1890.20,359.74
6390,-3.8717,0.2401,0.1838,-1491.94,844.18,-359.01
6400,-3.8717,0.2439,0.1753,-1257.57,-468.32,-1249.69
6410,-3.8717,0.2485,0.1648,-773.19,-1562.07,1656.56
6420,-3.8717,0.2528,0.1486,-179.44,1094.18,172.18
6430,-3.8718,0.2539,0.1279,367.43,-983.89,-1609.13
6440,-3.8718,0.2510,0.1062,508.06,375.49,297.12
6450,-3.8719,0.2476,0.0874,133.06,1594.24,-1781.07
6460,-3.8719,0.2458,0.0763,-304.44,-812.07,593.87
6470,-3.8721,0.2456,0.0721,-523.19,1766.05,-328.00
6480,-3.8721,0.2465,0.0704,-554.44,1234.80,-843.63
6490,-3.8721,0.2505,0.0686,-445.07,1016.05,-1468.63
6500,-3.8721,0.2570,0.0653,70.56,781.74,1890.75
6510,-3.8721,0.2612,0.0599,898.68,359.86,1422.00
6520,-3.8721,0.2616,0.0503,1445.56,-327.64,968.81
6530,-3.8721,0.2565,0.0358,1492.43,-1562.01,421.94
6540,-3.8722,0.2451,0.0197,836.18,578.61,-343.69
6550,-3.8722,0.2341,0.0031,-616.94,-1483.95,-1640.62
6560,-3.8722,0.2316,-0.0133,1976.81,391.05,890.62
6570,-3.8723,0.2378,-0.0266,1648.68,-1702.70,-453.19
6580,-3.8723,0.2445,-0.0359,-1554.44,594.18,-1593.81
6590,-3.8723,0.2426,-0.0430,-695.07,-593.32,1640.50
6600,-3.8723,0.2318,-0.0511,-945.07,-1499.57,874.88
6610,-3.8723,0.2170,-0.0610,1679.93,1453.55,124.88
6620,-3.8724,0.2025,-0.0706,-210.69,187.87,-531.37
6630,-3.8724,0.1926,-0.0789,1929.93,-1030.88,-1250.18
6640,-3.8724,0.1895,-0.0867,664.31,1906.62,1796.69
6650,-3.8724,0.1965,-0.0946,258.06,906.62,671.69
6660,-3.8726,0.2166,-0.1029,1164.31,-109.01,-593.99
6670,-3.8726,0.2468,-0.1082,-273.19,-1171.51,-1297.12
6680,-3.8726,0.2833,-0.1024,-398.19,-1843.32,-531.49
6690,-3.8724,0.3180,-0.0769,273.68,-1108.83,-1859.62
6700,-3.8723,0.3413,-0.0300,711.18,-1843.14,-1140.81
6710,-3.8721,0.3580,0.0269,-304.44,156.86,1406.19
6720,-3.8718,0.3794,0.0784,1836.18,-561.83,609.38
6730,-3.8717,0.4108,0.1193,570.56,-1968.02,-1124.88
6740,-3.8716,0.4518,0.1517,586.18,-733.58,-359.19
6750,-3.8715,0.4937,0.1763,1836.18,-577.27,-906.01
6760,-3.8713,0.5269,0.1870,-804.44,-1436.58,984.68
6770,-3.8713,0.5471,0.1791,-554.44,-61.52,1172.18
6780,-3.8715,0.5503,0.1560,-1960.69,-1077.09,-62.19
6790,-3.8715,0.5375,0.1233,-1554.44,-30.21,1359.62
6800,-3.8716,0.5159,0.0891,804.93,-217.71,1953.31
6810,-3.8717,0.4893,0.0631,-1960.69,-592.77,-1484.25
6820,-3.8718,0.4591,0.0468,-1366.94,79.04,-656.13
6830,-3.8718,0.4283,0.0353,-1226.32,1985.23,234.44
6840,-3.8719,0.4026,0.0238,-1163.82,516.42,1078.19
6850,-3.8721,0.3904,0.0101,-460.69,-952.39,1671.88
6860,-3.8722,0.3973,-0.0046,1976.81,1297.61,-1687.50
6870,-3.8723,0.4205,-0.0114,-1132.57,-593.02,-171.94
6880,-3.8723,0.4509,-0.0023,1836.18,-1452.33,-1328.19
6890,-3.8723,0.4788,0.0192,1726.81,-296.02,-859.44
6900,-3.8722,0.4908,0.0466,1289.31,-1545.96,1640.62
6910,-3.8721,0.4807,0.0752,-1163.82,1969.67,1531.31
6920,-3.8719,0.4569,0.0986,1539.31,1625.92,1609.50
6930,-3.8718,0.4354,0.1156,-1507.57,625.85,1234.56
6940,-3.8717,0.4266,0.1282,-257.57,-1202.33,31.43
6950,-3.8717,0.4342,0.1346,-1382.57,407.04,1515.87
6960,-3.8717,0.4586,0.1337,-413.82,1235.17,1859.62
6970,-3.8717,0.4916,0.1290,-1288.82,1110.23,1750.24
6980,-3.8717,0.5173,0.1260,-1070.07,516.54,1859.62
6990,-3.8717,0.5232,0.1298,-1773.19,125.98,-1452.88
7000,-3.8717,0.5094,0.1416,-1023.19,610.35,-156.01
7010,-3.8716,0.4841,0.1583,1211.18,-1874.02,-1906.01
7020,-3.8715,0.4602,0.1794,1976.81,266.54,765.93
7030,-3.8715,0.4551,0.2028,-1085.69,-1030.40,-968.44
7040,-3.8713,0.4744,0.2220,-1741.94,1953.98,859.74
7050,-3.8713,0.5089,0.2332,726.81,422.79,1969.18
7060,-3.8713,0.5448,0.2360,1148.68,1844.73,-1687.07
7070,-3.8713,0.5674,0.2369,1742.43,-1795.84,-1640.20
7080,-3.8713,0.5668,0.2382,633.06,-1670.78,1922.30
7090,-3.8713,0.5463,0.2343,554.93,-1514.53,844.18
7100,-3.8715,0.5179,0.2239,1929.93,1985.41,-765.20
7110,-3.8715,0.4902,0.2117,-1695.07,657.23,1062.93
7120,-3.8716,0.4642,0.2057,-1241.94,-905.33,-1468.38
7130,-3.8716,0.4449,0.2100,-570.07,-1671.02,234.74
7140,-3.8717,0.4420,0.2205,961.18,-1124.15,-1296.51
7150,-3.8717,0.4587,0.2339,586.18,219.60,-1968.32
7160,-3.8717,0.4884,0.2506,-1273.19,1938.35,-1687.07
7170,-3.8717,0.5227,0.2659,-1476.32,79.04,-827.64
7180,-3.8716,0.5514,0.2782,-1085.69,-1967.77,94.24
7190,-3.8716,0.5580,0.2968,-1413.82,-389.59,1625.49
7200,-3.8716,0.5386,0.3247,-570.07,1985.41,-436.95
7210,-3.8715,0.5118,0.3557,945.56,1563.54,1672.49
7220,-3.8713,0.4927,0.3835,1523.68,1532.23,125.67
7230,-3.8713,0.4824,0.4043,-929.44,1094.67,-1983.64
7240,-3.8713,0.4832,0.4156,1758.06,-249.08,-1249.27
7250,-3.8713,0.4924,0.4172,1851.81,1204.04,-1327.33
7260,-3.8713,0.4998,0.4093,-960.69,1407.17,-1889.83
7270,-3.8713,0.4955,0.3914,-23.19,391.54,860.17
7280,-3.8715,0.4783,0.3696,-570.07,-1905.33,-1202.39
7290,-3.8715,0.4514,0.3567,1226.81,-686.58,688.17
7300,-3.8716,0.4209,0.3588,1789.31,1657.10,-249.33
7310,-3.8715,0.3922,0.3712,1883.06,1922.67,391.30
7320,-3.8715,0.3707,0.3861,-1788.82,-483.64,1938.17
7330,-3.8715,0.3624,0.4000,-538.82,1422.55,-186.77
7340,-3.8713,0.3691,0.4106,-1601.32,-796.20,1360.11
7350,-3.8713,0.3906,0.4167,-741.94,563.17,-1921.08
7360,-3.8713,0.4215,0.4203,-1991.94,1344.48,1907.04
7370,-3.8713,0.4506,0.4193,1961.18,1797.67,750.79
7380,-3.8715,0.4688,0.4147,1679.93,1672.73,-764.83
7390,-3.8715,0.4751,0.4131,8.06,1079.04,1985.17
7400,-3.8715,0.4769,0.4215,820.56,875.92,1282.04
7410,-3.8715,0.4784,0.4402,1054.93,1954.04,1532.04
7420,-3.8715,0.4778,0.4574,1242.43,344.67,-1686.65
7430,-3.8715,0.4751,0.4617,1164.31,-1452.21,-1358.52
7440,-3.8715,0.4725,0.4529,820.56,-905.33,-1858.52
7450,-3.8715,0.4760,0.4381,492.43,1969.67,1266.48
7460,-3.8715,0.4880,0.4282,929.93,79.04,938.35
7470,-3.8715,0.4976,0.4342,-1523.19,-1186.58,1657.04
7480,-3.8715,0.4927,0.4558,-304.44,-420.96,-436.71
7490,-3.8713,0.4722,0.4789,-929.44,-1655.33,-1467.90
7500,-3.8712,0.4414,0.4877,445.56,1297.79,1360.29
7510,-3.8712,0.4104,0.4766,508.06,-1577.27,-1202.21
7520,-3.8712,0.3893,0.4523,539.31,1000.79,-1733.46
7530,-3.8712,0.3862,0.4288,1836.18,1891.36,110.23
7540,-3.8713,0.3990,0.4161,1445.56,-1108.64,1657.04
7550,-3.8715,0.4149,0.4142,-913.82,1266.36,-61.71
7560,-3.8715,0.4248,0.4211,1117.43,1016.42,-530.46
7570,-3.8713,0.4264,0.4327,-1616.94,1907.04,282.04
7580,-3.8713,0.4219,0.4382,-1413.82,-608.58,1266.42
7590,-3.8713,0.4183,0.4335,-1991.94,94.54,1532.10
7600,-3.8713,0.4224,0.4246,1554.93,-514.83,922.67
7610,-3.8715,0.4371,0.4188,-1929.44,-1655.46,-249.21
7620,-3.8715,0.4602,0.4176,-38.82,1610.17,-1342.96
7630,-3.8715,0.4805,0.4233,-1085.69,1453.98,-1702.33
7640,-3.8715,0.4889,0.4341,1508.06,-1811.58,-1171.08
7650,-3.8715,0.4856,0.4420,-1413.82,-436.58,-30.46
7660,-3.8713,0.4751,0.4445,-1835.69,579.04,1282.10
7670,-3.8713,0.4630,0.4432,820.56,891.54,-1608.52
7680,-3.8713,0.4545,0.4424,-726.32,735.23,-749.15
7690,-3.8712,0.4486,0.4410,-1820.07,625.85,0.85
7700,-3.8712,0.4385,0.4366,1429.93,453.98,563.35
7710,-3.8712,0.4200,0.4220,133.06,-108.52,766.42
7720,-3.8712,0.3876,0.3984,1773.68,-1983.58,1266.42
7730,-3.8712,0.3376,0.4014,1617.43,-999.27,-249.27
7740,-3.8711,0.2906,0.4474,-773.19,-624.39,-530.52
7750,-3.8708,0.2623,0.5112,1211.18,1266.17,110.23
7760,-3.8707,0.2454,0.5620,1586.18,1437.99,-1295.90
7770,-3.8705,0.2291,0.5732,-585.69,-62.07,1.04
7780,-3.8705,0.2037,0.5389,1336.18,1375.43,1110.47
7790,-3.8706,0.1758,0.4783,-1913.82,984.74,-1561.46
7800,-3.8707,0.1710,0.4121,-1491.94,1219.06,813.42
7810,-3.8710,0.2045,0.3518,1898.68,750.31,1203.92
7820,-3.8712,0.2657,0.3098,-1820.07,1031.62,1235.05
7830,-3.8715,0.3381,0.2931,-1976.32,-343.26,-1343.20
7840,-3.8716,0.4120,0.2948,-710.69,1516.24,1859.92
7850,-3.8717,0.4863,0.3037,742.43,1735.17,-1249.45
7860,-3.8717,0.5549,0.3163,-1741.94,-1124.08,1625.55
7870,-3.8717,0.6050,0.3296,-960.69,485.41,1469.36
7880,-3.8717,0.6307,0.3378,1445.56,-1811.34,1438.11
7890,-3.8717,0.6301,0.3387,742.43,-764.40,1969.36
7900,-3.8717,0.6024,0.3330,664.31,-639.40,-1343.14
7910,-3.8717,0.5594,0.3232,1117.43,-1373.84,-733.76
7920,-3.8717,0.5129,0.3108,-382.57,1376.04,-30.64
7930,-3.8716,0.4666,0.2932,1664.31,-217.77,141.17
7940,-3.8717,0.4243,0.2693,-273.19,1532.10,-515.08
7950,-3.8717,0.3905,0.2441,-1679.44,-1530.46,-1937.01
7960,-3.8717,0.3706,0.2218,1992.43,-749.27,297.30
7970,-3.8718,0.3638,0.2083,-554.44,391.30,-983.95
7980,-3.8718,0.3625,0.2069,-1429.44,-1343.08,-1765.26
7990,-3.8718,0.3574,0.2092,-1585.69,-1514.95,-1921.51
8000,-3.8718,0.3390,0.2098,1758.06,-1218.08,-1374.63
8010,-3.8718,0.3093,0.2090,-601.32,-1140.01,-921.51
8020,-3.8718,0.2787,0.2019,-398.19,-1249.45,-655.88
8030,-3.8718,0.2521,0.1865,-320.07,1844.24,-421.51
8040,-3.8718,0.2318,0.1666,273.68,-124.51,-905.94
8050,-3.8718,0.2159,0.1439,1679.93,1328.55,-1952.82
8060,-3.8718,0.1985,0.1237,-351.32,-1577.76,906.49
8070,-3.8719,0.1826,0.1084,1414.31,-171.51,-234.19
8080,-3.8719,0.1763,0.0981,-616.94,1875.31,-843.57
8090,-3.8719,0.1775,0.0956,-1429.44,562.81,-531.07
8100,-3.8718,0.1787,0.0963,-1273.19,234.68,328.31
8110,-3.8718,0.1799,0.0928,-1116.94,328.43,1078.31
8120,-3.8718,0.1849,0.0840,-960.69,-124.69,1218.87
8130,-3.8718,0.1920,0.0760,-320.07,-1249.69,1109.50
8140,-3.8718,0.1949,0.0746,586.18,1734.74,1187.62
8150,-3.8718,0.1931,0.0762,961.18,1547.24,1250.12
8160,-3.8718,0.1924,0.0721,726.81,1750.37,1593.87
8170,-3.8718,0.1942,0.0608,633.06,1234.74,1890.75
8180,-3.8718,0.2013,0.0441,867.43,-218.38,906.31
8190,-3.8719,0.2113,0.0225,1773.68,1640.99,-1390.56
8200,-3.8721,0.2126,0.0006,-945.07,-1124.63,-171.88
8210,-3.8721,0.2003,-0.0145,-773.19,78.49,1640.62
8220,-3.8721,0.1794,-0.0210,1648.68,-1859.01,859.31
8230,-3.8721,0.1594,-0.0220,-1023.19,1312.81,1015.56
8240,-3.8721,0.1494,-0.0205,414.31,1187.81,1609.31
8250,-3.8721,0.1516,-0.0160,-866.94,1375.24,-1890.69
8260,-3.8721,0.1591,-0.0087,-585.69,1953.37,-1609.44
8270,-3.8721,0.1643,-0.0018,367.43,-1109.07,-1234.44
8280,-3.8721,0.1674,-0.0013,1039.31,-234.07,-1125.06
8290,-3.8721,0.1711,-0.0106,1429.93,-171.57,-1828.19
8300,-3.8721,0.1733,-0.0214,1914.31,-1359.07,1390.56
8310,-3.8721,0.1702,-0.0237,-1804.44,1265.93,1140.56
8320,-3.8721,0.1630,-0.0210,1789.31,969.06,1468.69
8330,-3.8721,0.1509,-0.0162,867.43,1312.81,-1062.56
8340,-3.8719,0.1312,-0.0082,-679.44,1922.12,1359.31
8350,-3.8718,0.1111,0.0023,804.93,-1046.63,156.19
8360,-3.8718,0.0988,0.0127,-1773.19,297.06,-1203.12
8370,-3.8717,0.0981,0.0221,648.68,1625.18,1093.75
8380,-3.8717,0.1130,0.0300,570.56,-1171.69,-1062.50
8390,-3.8716,0.1449,0.0343,-1523.19,-156.07,328.12
8400,-3.8716,0.1858,0.0343,-1445.07,390.87,1015.69
8410,-3.8716,0.2247,0.0295,-210.69,390.93,343.81
8420,-3.8717,0.2590,0.0214,773.68,-218.32,-1359.38
8430,-3.8717,0.2867,0.0177,1164.31,-1265.14,875.00
8440,-3.8718,0.3063,0.0198,711.18,-1733.83,-593.75
8450,-3.8718,0.3210,0.0222,-788.82,-1468.20,-1328.12
8460,-3.8718,0.3323,0.0239,1101.81,-1155.64,-1593.75
8470,-3.8718,0.3394,0.0244,-1460.69,-936.89,1859.38
8480,-3.8718,0.3416,0.0215,-554.44,-874.39,1390.62
8490,-3.8718,0.3335,0.0149,-273.19,-1249.39,1296.88
8500,-3.8718,0.3136,0.0056,-1304.44,1906.86,1140.62
8510,-3.8718,0.2921,-0.0040,148.68,719.36,578.12
8520,-3.8719,0.2854,-0.0101,1398.68,-515.08,-421.94
8530,-3.8719,0.2979,-0.0071,539.31,-1296.33,-593.81
8540,-3.8718,0.3175,0.0077,-1866.94,-905.70,953.06
8550,-3.8717,0.3335,0.0311,648.68,984.99,78.12
8560,-3.8716,0.3402,0.0588,-1304.44,-15.01,265.62
8570,-3.8715,0.3335,0.0841,-445.07,-468.14,15.69
8580,-3.8715,0.3198,0.1033,-1304.44,-1233.76,-1593.63
8590,-3.8715,0.3094,0.1138,945.56,1219.36,-671.69
8600,-3.8715,0.3099,0.1169,-382.57,-1436.95,-171.69
8610,-3.8715,0.3232,0.1179,-320.07,-1030.70,-718.57
8620,-3.8715,0.3402,0.1183,1383.06,-905.64,625.18
8630,-3.8716,0.3541,0.1122,-445.07,-858.76,-1702.94
8640,-3.8716,0.3655,0.0961,1336.18,-1639.95,-1562.32
8650,-3.8716,0.3698,0.0801,-1210.69,297.55,-781.07
8660,-3.8716,0.3705,0.0746,-663.82,-1749.33,-546.75
8670,-3.8716,0.3737,0.0818,-570.07,1547.55,-93.63
8680,-3.8715,0.3767,0.0973,-163.82,-1530.58,468.87
8690,-3.8715,0.3799,0.1149,226.81,453.86,1312.68
8700,-3.8715,0.3876,0.1246,633.06,-1296.14,1656.43
8710,-3.8715,0.4095,0.1201,1617.43,-46.14,984.56
8720,-3.8716,0.4475,0.1053,429.93,-624.21,-312.32
8730,-3.8716,0.4896,0.0896,1289.31,1485.23,-1374.82
8740,-3.8716,0.5233,0.0807,-1320.07,-530.33,-1968.63
8750,-3.8716,0.5417,0.0771,-1007.57,-1670.90,1531.37
8760,-3.8716,0.5363,0.0801,1351.81,1876.04,-1562.38
8770,-3.8715,0.5020,0.0920,648.68,-1748.96,406.37
8780,-3.8715,0.4528,0.1082,258.06,-217.77,-1749.88
8790,-3.8713,0.4064,0.1239,1961.18,1844.60,187.68
8800,-3.8713,0.3702,0.1298,23.68,-139.83,1609.56
8810,-3.8713,0.3545,0.1136,-601.32,610.05,1984.62
8820,-3.8713,0.3584,0.0875,1383.06,-1452.45,1922.06
8830,-3.8713,0.3632,0.0771,1883.06,-796.20,1578.25
8840,-3.8713,0.3683,0.0854,-1507.57,1875.67,859.50
8850,-3.8713,0.3828,0.1053,-851.32,-1061.83,765.75
8860,-3.8713,0.3998,0.1383,1008.06,1485.11,1703.31
8870,-3.8713,0.4128,0.1805,-820.07,1703.86,-843.51
8880,-3.8712,0.4215,0.2267,851.81,-889.83,1375.31
8890,-3.8712,0.4246,0.2708,1961.18,1016.42,-249.57
8900,-3.8711,0.4241,0.2971,-1648.19,-1342.96,1156.74
8910,-3.8711,0.4224,0.2965,-1710.69,-1967.96,1547.42
8920,-3.8711,0.4160,0.2712,-1929.44,1953.92,719.30
8930,-3.8712,0.4034,0.2347,1258.06,-1280.46,-1202.64
8940,-3.8712,0.3890,0.2051,-351.32,-1952.39,844.18
8950,-3.8713,0.3842,0.1882,1804.93,-1749.27,-343.38
8960,-3.8712,0.3989,0.1871,1179.93,94.48,15.99
8970,-3.8712,0.4248,0.2058,-929.44,-46.14,1922.18
8980,-3.8712,0.4506,0.2360,-1616.94,-1655.46,-249.63
8990,-3.8711,0.4751,0.2693,1679.93,-1796.02,1391.05
9000,-3.8711,0.4934,0.3041,820.56,-1530.33,-280.76
9010,-3.8710,0.5001,0.3317,-835.69,-1077.21,-1702.58
9020,-3.8710,0.4995,0.3391,23.68,-1545.90,-30.64
9030,-3.8710,0.4945,0.3242,-54.44,-592.83,-186.89
9040,-3.8710,0.4810,0.3008,-695.07,1500.92,1906.86
9050,-3.8711,0.4558,0.2808,1570.56,-1499.08,-1186.95
9060,-3.8712,0.4241,0.2683,-1648.19,-61.65,-405.76
9070,-3.8712,0.3925,0.2651,-1710.69,-1655.46,1359.86
9080,-3.8712,0.3644,0.2733,-1757.57,1938.23,703.61
9090,-3.8712,0.3462,0.2916,-1351.32,-1014.95,1578.61
9100,-3.8712,0.3451,0.3120,320.56,1328.80,-1015.08
9110,-3.8711,0.3636,0.3312,179.93,-61.83,484.92
9120,-3.8711,0.3923,0.3545,-1445.07,-1608.70,1984.99
9130,-3.8711,0.4178,0.3789,-1773.19,1375.73,-1264.95
9140,-3.8711,0.4340,0.3972,1492.43,500.79,-1124.27
9150,-3.8711,0.4347,0.4083,-445.07,-1155.46,-999.27
9160,-3.8711,0.4193,0.4099,-351.32,266.42,-1030.46
9170,-3.8711,0.3971,0.4020,1679.93,469.54,-936.71
9180,-3.8711,0.3776,0.3910,-1163.82,-546.14,-327.39
9190,-3.8710,0.3630,0.3832,336.18,-1952.39,500.73
9200,-3.8710,0.3523,0.3827,-1523.19,1047.55,1172.61
9210,-3.8710,0.3429,0.3907,1101.81,985.05,1594.48
9220,-3.8710,0.3328,0.4021,-101.32,-1983.76,1860.11
9230,-3.8710,0.3214,0.4103,-1398.19,-530.64,-1983.64
9240,-3.8710,0.3087,0.4189,1148.68,516.24,-1811.71
9250,-3.8710,0.2921,0.4293,-476.32,1625.55,-1280.46
9260,-3.8708,0.2715,0.4325,1398.68,-1046.33,16.42
9270,-3.8708,0.2501,0.4235,-1241.94,-640.14,1438.29
9280,-3.8708,0.2301,0.4065,23.68,-1796.39,-1811.71
9290,-3.8708,0.2109,0.3922,1461.18,31.68,-1999.21
9300,-3.8708,0.1941,0.3840,-991.94,-1796.51,1047.61
9310,-3.8708,0.1858,0.3763,851.81,1156.62,0.73
9320,-3.8710,0.1879,0.3721,-210.69,172.18,-468.02
9330,-3.8710,0.1929,0.3779,54.93,-374.63,-233.70
9340,-3.8708,0.1979,0.3851,695.56,375.37,578.86
9350,-3.8708,0.2051,0.3885,1336.18,1297.24,1906.98
9360,-3.8708,0.2075,0.3928,-1741.94,1734.74,-546.14
9370,-3.8707,0.2003,0.3948,-1429.44,-1718.38,375.73
9380,-3.8707,0.1871,0.3907,1648.68,-1468.38,297.61
9390,-3.8708,0.1732,0.3805,-38.82,-1984.07,-671.14
9400,-3.8708,0.1663,0.3656,-1820.07,703.43,-1593.02
9410,-3.8708,0.1700,0.3530,1289.31,-1202.82,-1811.83
9420,-3.8708,0.1810,0.3475,1773.68,1187.81,1422.55
9430,-3.8710,0.1915,0.3425,-820.07,484.68,-296.20
9440,-3.8710,0.1941,0.3341,523.68,-155.88,-1936.89
9450,-3.8710,0.1871,0.3225,851.81,-1234.01,422.49
9460,-3.8711,0.1761,0.3083,-38.82,1281.56,-1483.76
9470,-3.8711,0.1697,0.2982,-1445.07,-530.94,641.17
9480,-3.8712,0.1707,0.2939,1726.81,-1827.82,-827.58
9490,-3.8712,0.1737,0.2946,1851.81,1625.31,-1515.08
9500,-3.8712,0.1779,0.3035,-1757.57,1703.43,-1483.83
9510,-3.8712,0.1880,0.3132,-1226.32,-1155.94,-1140.08
9520,-3.8712,0.2051,0.3179,70.56,94.12,-702.51
9530,-3.8712,0.2290,0.3157,-1741.94,687.87,-905.64
9540,-3.8712,0.2538,0.3101,1320.56,406.68,1625.61
9550,-3.8713,0.2678,0.3096,492.43,-312.01,-483.83
9560,-3.8713,0.2708,0.3033,-1710.69,-374.51,-1374.45
9570,-3.8713,0.2637,0.2888,-1335.69,-1171.39,-811.95
9580,-3.8713,0.2456,0.2795,1758.06,969.24,-530.70
9590,-3.8713,0.2272,0.2802,-554.44,-218.32,-390.14
9600,-3.8712,0.2134,0.2849,1086.18,-140.20,469.24
9610,-3.8712,0.2004,0.2892,-679.44,469.12,1875.55
9620,-3.8712,0.1857,0.2922,1664.31,1015.99,-436.95
9630,-3.8711,0.1699,0.2909,-226.32,1406.56,1516.17
9640,-3.8711,0.1589,0.2808,1758.06,1234.68,-1421.33
9650,-3.8711,0.1549,0.2582,351.81,-62.19,-1937.01
9660,-3.8711,0.1550,0.2267,-163.82,1047.12,812.99
9670,-3.8712,0.1575,0.1965,-148.19,1015.87,-1327.70
9680,-3.8713,0.1622,0.1696,164.31,1156.56,-655.88
9690,-3.8715,0.1682,0.1466,773.68,1703.43,-15.32
9700,-3.8715,0.1718,0.1328,1539.31,-1234.07,-1999.76
9710,-3.8715,0.1696,0.1288,1992.43,1000.31,1672.12
9720,-3.8715,0.1680,0.1282,1711.18,484.68,-1921.63
9730,-3.8715,0.1732,0.1283,1508.06,406.56,-1468.51
9740,-3.8715,0.1832,0.1295,-1820.07,422.18,-1046.63
9750,-3.8715,0.1935,0.1290,-538.82,578.43,-656.01
9760,-3.8715,0.2021,0.1246,773.68,515.99,-546.63
9770,-3.8715,0.2094,0.1163,1883.06,-46.51,-1171.69
9780,-3.8715,0.2129,0.1029,-1195.07,-1109.01,1422.06
9790,-3.8716,0.2112,0.0857,-741.94,1172.24,-734.19
9800,-3.8716,0.2051,0.0668,-960.69,-1030.88,406.37
9810,-3.8717,0.1962,0.0472,-1741.94,547.24,1265.75
9820,-3.8718,0.1879,0.0303,1117.43,-1952.76,-1484.31
9830,-3.8718,0.1824,0.0198,54.93,-124.63,890.62
9840,-3.8718,0.1807,0.0162,-648.19,-1468.44,468.75
9850,-3.8718,0.1835,0.0153,-866.94,-1921.57,1093.75
9860,-3.8718,0.1884,0.0149,-507.57,1953.43,-1843.75
9870,-3.8718,0.1913,0.0154,117.43,1906.62,-1156.25
9880,-3.8718,0.1877,0.0159,492.43,1969.12,-1328.12
9890,-3.8718,0.1780,0.0137,39.31,-1968.38,1640.62
9900,-3.8718,0.1685,0.0042,-1210.69,1750.31,218.75
9910,-3.8719,0.1619,-0.0126,1570.56,531.56,-1562.50
9920,-3.8719,0.1566,-0.0328,726.81,-1609.07,593.69
9930,-3.8721,0.1506,-0.0553,54.93,-202.82,-1203.25
9940,-3.8721,0.1450,-0.0768,-710.69,922.12,1484.25
9950,-3.8721,0.1362,-0.0878,-1429.44,-1827.88,-1984.56
9960,-3.8719,0.1219,-0.0829,1445.56,765.87,93.57
9970,-3.8719,0.1125,-0.0754,-382.57,1390.81,-1297.06
9980,-3.8718,0.1184,-0.0779,-1585.69,-1656.07,1468.57
9990,-3.8718,0.1353,-0.0865,-835.69,-1968.57,-718.93
10000,-3.8718,0.1555,-0.0930,1320.56,922.12,-406.43
10010,-3.8718,0.1763,-0.0912,-85.69,93.99,-828.31
10020,-3.8718,0.1925,-0.0818,-1429.44,328.43,-1047.06
10030,-3.8718,0.2061,-0.0731,648.68,1531.62,-968.93
10040,-3.8718,0.2213,-0.0750,-1616.94,-1359.01,-1015.81
10050,-3.8718,0.2347,-0.0938,336.18,-1593.32,1781.07
10060,-3.8719,0.2443,-0.1276,-1945.07,0.43,-890.81
10070,-3.8721,0.2511,-0.1637,-726.32,-327.70,-375.31
10080,-3.8721,0.2560,-0.1903,148.68,-952.64,468.38
10090,-3.8722,0.2583,-0.2029,773.68,-358.89,-1328.55
10100,-3.8722,0.2531,-0.1991,1070.56,-1968.26,-1609.80
10110,-3.8722,0.2405,-0.1859,398.68,-1483.89,-984.80
10120,-3.8721,0.2260,-0.1783,-1210.69,203.55,62.13
10130,-3.8721,0.2126,-0.1793,929.93,1172.30,1609.01
10140,-3.8721,0.2040,-0.1810,-773.19,1047.24,-687.87
10150,-3.8719,0.2072,-0.1807,-1882.57,828.49,765.26
10160,-3.8719,0.2240,-0.1776,-1476.32,875.37,1937.13
10170,-3.8719,0.2469,-0.1644,679.93,1266.05,-1094.12
10180,-3.8719,0.2684,-0.1417,-382.57,-1046.45,-140.99
10190,-3.8718,0.2830,-0.1224,-1632.57,1859.86,687.19
10200,-3.8718,0.2913,-0.1111,226.81,328.67,1327.88
10210,-3.8718,0.2909,-0.1014,1289.31,1781.80,749.76
10220,-3.8719,0.2823,-0.0930,1242.43,-983.83,-1562.74
10230,-3.8721,0.2771,-0.0945,148.68,94.30,-31.43
10240,-3.8721,0.2755,-0.1095,-523.19,-93.26,-1734.62
10250,-3.8721,0.2694,-0.1287,-726.32,1984.86,1062.26
10260,-3.8721,0.2610,-0.1401,-1507.57,-468.26,405.94
10270,-3.8721,0.2594,-0.1390,1414.31,-1937.01,843.44
10280,-3.8721,0.2681,-0.1246,1211.18,-1796.39,-1281.56
10290,-3.8719,0.2849,-0.0983,-1679.44,47.36,1937.26
10300,-3.8718,0.3087,-0.0642,476.81,-577.58,1765.38
10310,-3.8717,0.3356,-0.0350,-476.32,-218.20,1515.44
10320,-3.8716,0.3617,-0.0231,-1038.82,-483.76,734.25
10330,-3.8716,0.3849,-0.0326,-1695.07,1047.55,-1250.06
10340,-3.8716,0.4005,-0.0602,1273.68,-171.14,-1047.00
10350,-3.8716,0.4099,-0.0913,-726.32,297.61,1921.75
10360,-3.8716,0.4182,-0.1086,476.81,313.29,1437.32
10370,-3.8716,0.4290,-0.1062,1539.31,-1905.46,-1750.24
10380,-3.8715,0.4460,-0.0890,-1085.69,-1592.96,109.13
10390,-3.8715,0.4681,-0.0646,1101.81,610.23,-1406.43
10400,-3.8713,0.4875,-0.0413,-70.07,-264.77,734.19
10410,-3.8713,0.4980,-0.0287,-1585.69,-1280.33,1765.50
10420,-3.8713,0.5002,-0.0302,-241.94,329.04,1687.44
10430,-3.8713,0.4976,-0.0410,39.31,141.60,1203.06
10440,-3.8713,0.4943,-0.0573,-304.44,-1249.08,968.63
10450,-3.8715,0.4922,-0.0868,-726.32,672.79,-187.62
10460,-3.8715,0.4822,-0.1252,-991.94,891.54,-1297.06
10470,-3.8715,0.4584,-0.1329,1726.81,-30.33,-437.81
10480,-3.8713,0.4248,-0.1038,-1320.07,-1014.77,234.07
10490,-3.8713,0.3871,-0.0673,-1616.94,-1280.46,531.01
10500,-3.8713,0.3513,-0.0298,1554.93,-608.64,1890.44
10510,-3.8713,0.3182,0.0104,976.81,188.17,-93.81
10520,-3.8712,0.2856,0.0508,742.43,1328.74,-1703.12
10530,-3.8711,0.2631,0.0787,570.56,-1499.45,546.94
10540,-3.8711,0.2632,0.0757,1679.93,-1921.39,1625.12
10550,-3.8711,0.2786,0.0471,1695.56,1687.99,906.37
10560,-3.8712,0.2906,0.0195,-335.69,-1968.26,-343.69
10570,-3.8712,0.2904,0.0120,1211.18,-1499.45,-812.50
10580,-3.8712,0.2826,0.0300,1179.93,1531.80,-468.75
10590,-3.8711,0.2772,0.0730,179.93,-155.70,500.00
10600,-3.8711,0.2861,0.1316,-507.57,1344.24,1734.50
10610,-3.8711,0.3152,0.1887,633.06,844.30,-781.01
10620,-3.8710,0.3566,0.2253,351.81,156.86,390.99
10630,-3.8711,0.3995,0.2305,1648.68,844.42,-327.70
10640,-3.8711,0.4385,0.2084,-851.32,1500.73,641.05
10650,-3.8712,0.4688,0.1765,133.06,-1327.27,812.87
10660,-3.8713,0.4855,0.1566,8.06,-1405.33,1625.31
10670,-3.8715,0.4863,0.1600,-1851.32,47.79,-77.82
10680,-3.8713,0.4711,0.1843,-1741.94,485.29,437.81
10690,-3.8713,0.4425,0.2246,304.93,-405.33,-1109.07
10700,-3.8712,0.4137,0.2769,648.68,750.85,-1499.57
10710,-3.8711,0.4043,0.3323,961.18,-561.71,-593.26
10720,-3.8708,0.4172,0.3724,-241.94,-1468.02,750.61
10730,-3.8707,0.4423,0.3816,1414.31,-327.33,1203.80
10740,-3.8707,0.4653,0.3610,617.43,844.60,-280.52
10750,-3.8707,0.4747,0.3276,-429.44,-1796.02,-561.83
10760,-3.8707,0.4719,0.3003,773.68,1938.42,1125.61
10770,-3.8708,0.4635,0.2898,414.31,-1561.58,-1358.83
10780,-3.8708,0.4532,0.2914,-663.82,1094.60,1313.05
10790,-3.8708,0.4454,0.2938,-1976.32,1297.73,547.42
10800,-3.8710,0.4431,0.2969,1023.68,1610.23,-93.20
10810,-3.8710,0.4464,0.3032,726.81,-1999.15,-343.20
10820,-3.8710,0.4520,0.3092,1148.68,-1186.65,-171.33
10830,-3.8710,0.4585,0.3102,1867.43,-421.02,-296.33
10840,-3.8710,0.4670,0.3066,-1304.44,-296.02,-905.70
10850,-3.8710,0.4761,0.3036,-210.69,-749.15,-1905.70
10860,-3.8710,0.4841,0.3062,945.56,-1139.71,672.42
10870,-3.8711,0.4905,0.3147,1976.81,-811.58,-296.33
10880,-3.8711,0.4921,0.3252,-1210.69,282.17,-327.51
10890,-3.8710,0.4785,0.3345,-1007.57,1625.92,469.36
10900,-3.8710,0.4457,0.3446,1258.06,-1186.58,-1733.76
10910,-3.8708,0.4009,0.3561,1054.93,110.23,781.92
10920,-3.8708,0.3522,0.3627,-679.44,1578.86,-686.83
10930,-3.8707,0.3077,0.3628,1086.18,-1577.45,1313.17
10940,-3.8707,0.2715,0.3593,-601.32,-1561.95,-1796.20
10950,-3.8707,0.2451,0.3528,-1241.94,1984.86,-1780.58
10960,-3.8707,0.2289,0.3450,-616.94,1156.68,-1655.58
10970,-3.8707,0.2184,0.3395,1304.93,156.68,-1718.08
10980,-3.8707,0.2134,0.3434,-38.82,-546.51,1531.86
10990,-3.8707,0.2172,0.3613,-679.44,-46.51,750.61
11000,-3.8707,0.2268,0.3846,-195.07,-1749.63,797.55
11010,-3.8707,0.2338,0.3998,1039.31,1234.80,1563.23
11020,-3.8707,0.2299,0.4034,1929.93,-827.70,1860.11
11030,-3.8707,0.2183,0.4023,1429.93,-358.95,1078.86
11040,-3.8708,0.2067,0.4032,-54.44,-499.63,-452.39
11050,-3.8708,0.2009,0.4067,-1538.82,-390.26,-1874.27
11060,-3.8708,0.2024,0.4113,1726.81,62.87,1219.54
11070,-3.8710,0.2073,0.4109,1914.31,640.99,-296.08
11080,-3.8710,0.2141,0.3973,-1460.69,594.12,1297.67
11090,-3.8711,0.2196,0.3738,-585.69,-1140.26,-921.14
11100,-3.8711,0.2163,0.3536,117.43,-155.82,1156.92
11110,-3.8712,0.2023,0.3416,-304.44,1265.99,-186.83
11120,-3.8712,0.1825,0.3319,1898.68,-280.88,-515.01
11130,-3.8712,0.1609,0.3210,-632.57,-1515.32,-93.14
11140,-3.8711,0.1406,0.3088,601.81,1094.06,578.74
11150,-3.8711,0.1216,0.2958,-1991.94,-468.51,1016.17
11160,-3.8711,0.1013,0.2836,-429.44,1859.56,1109.92
11170,-3.8711,0.0801,0.2726,976.81,297.06,1078.67
11180,-3.8711,0.0615,0.2606,-1741.94,-1109.25,1016.11
11190,-3.8711,0.0491,0.2482,-116.94,1359.44,1016.11
11200,-3.8711,0.0438,0.2384,-1710.69,-234.31,937.93
11210,-3.8711,0.0480,0.2335,1617.43,-1484.31,875.43
11220,-3.8711,0.0602,0.2312,-1851.32,1890.69,984.80
11230,-3.8711,0.0754,0.2272,-288.82,1593.81,937.93
11240,-3.8711,0.0901,0.2256,1664.31,1078.25,687.93
11250,-3.8711,0.1010,0.2311,-460.69,875.12,609.80
11260,-3.8711,0.1068,0.2384,929.93,1578.31,1000.43
11270,-3.8711,0.1095,0.2410,1679.93,-1484.19,1891.05
11280,-3.8711,0.1099,0.2340,-1976.32,-1156.07,-1530.82
11290,-3.8711,0.1094,0.2163,-1929.44,1953.31,1516.05
11300,-3.8712,0.1089,0.1926,-1991.94,-312.32,-718.38
11310,-3.8712,0.1094,0.1686,1945.56,656.43,500.37
11320,-3.8713,0.1122,0.1460,-1991.94,1578.31,1719.06
11330,-3.8715,0.1152,0.1260,-1632.57,-1312.32,-624.76
11340,-3.8715,0.1143,0.1118,-1241.94,125.18,1609.62
11350,-3.8715,0.1083,0.1025,-1366.94,-1687.32,250.18
11360,-3.8716,0.1014,0.0934,1867.43,1125.18,-546.69
11370,-3.8716,0.0975,0.0841,992.43,-46.69,-703.00
11380,-3.8716,0.0957,0.0795,492.43,-1234.19,-312.38
11390,-3.8715,0.0967,0.0837,258.06,-1827.94,375.12
11400,-3.8715,0.0989,0.0905,383.06,-1281.07,1187.62
11410,-3.8715,0.0980,0.0903,664.31,-421.69,-1906.13
11420,-3.8715,0.0928,0.0811,554.93,-437.32,-1499.88
11430,-3.8715,0.0867,0.0648,-116.94,-1624.88,-1812.38
11440,-3.8715,0.0825,0.0470,-898.19,297.00,1140.75
11450,-3.8716,0.0792,0.0314,-1429.44,-1984.25,-531.19
11460,-3.8716,0.0748,0.0206,-1851.32,15.75,1968.81
11470,-3.8716,0.0692,0.0170,1586.18,-1359.25,921.88
11480,-3.8716,0.0651,0.0186,867.43,-1828.00,421.88
11490,-3.8716,0.0627,0.0221,336.18,-1624.88,515.62
11500,-3.8716,0.0616,0.0255,39.31,-1171.75,562.50
11510,-3.8716,0.0615,0.0275,-101.32,-734.31,406.25
11520,-3.8716,0.0642,0.0265,-116.94,-484.31,78.12
11530,-3.8717,0.0735,0.0206,226.81,-609.25,-812.50
11540,-3.8717,0.0868,0.0121,1414.31,-1359.25,1859.38
11550,-3.8717,0.0962,0.0044,-882.57,1547.00,593.75
11560,-3.8718,0.0972,-0.0021,320.56,562.68,-484.38
11570,-3.8718,0.0914,-0.0087,445.56,-265.44,-1359.44
11580,-3.8718,0.0854,-0.0148,-288.82,-1109.25,-1984.44
11590,-3.8718,0.0864,-0.0194,-1054.44,-1890.50,1624.94
11600,-3.8718,0.0966,-0.0238,-929.44,1515.75,1281.19
11610,-3.8718,0.1116,-0.0308,367.43,953.31,499.94
11620,-3.8719,0.1254,-0.0404,-1710.69,62.68,-625.06
11630,-3.8719,0.1334,-0.0520,54.93,-1171.63,-1703.25
11640,-3.8719,0.1349,-0.0637,1086.18,1343.99,1343.63
11650,-3.8719,0.1331,-0.0724,1273.68,-156.01,593.57
11660,-3.8719,0.1323,-0.0781,1039.31,-1265.38,62.32
11670,-3.8721,0.1348,-0.0823,945.56,-1999.76,-297.06
11680,-3.8721,0.1425,-0.0842,1258.06,1468.99,-562.68
11690,-3.8721,0.1562,-0.0835,-1757.57,1218.99,-625.18
11700,-3.8721,0.1724,-0.0791,8.06,1312.81,-234.56
11710,-3.8719,0.1841,-0.0677,-1929.44,1875.31,656.07
11720,-3.8719,0.1866,-0.0510,-429.44,-671.57,1874.82
11730,-3.8719,0.1832,-0.0371,-101.32,1469.06,-625.12
11740,-3.8718,0.1769,-0.0327,-538.82,-749.69,468.63
11750,-3.8718,0.1676,-0.0394,-1351.32,-187.19,499.88
11760,-3.8719,0.1564,-0.0552,1461.18,-1046.57,-765.75
11770,-3.8719,0.1504,-0.0792,23.68,937.81,640.50
11780,-3.8721,0.1592,-0.1090,-741.94,1859.62,1531.07
11790,-3.8722,0.1804,-0.1340,383.06,-1952.82,-1109.62
11800,-3.8722,0.2032,-0.1383,-898.19,-1155.94,1968.44
11810,-3.8722,0.2205,-0.1118,-1976.32,-1702.76,-547.18
11820,-3.8721,0.2339,-0.0638,226.81,1687.93,-1015.87
11830,-3.8718,0.2496,-0.0135,1945.56,-171.45,187.32
11840,-3.8717,0.2684,0.0250,-38.82,-1733.95,1328.06
11850,-3.8716,0.2892,0.0424,-1632.57,-796.39,1015.62
11860,-3.8716,0.3107,0.0432,1023.68,1422.42,-546.81
11870,-3.8715,0.3270,0.0380,-226.32,1531.80,500.06
11880,-3.8715,0.3372,0.0291,1867.43,859.99,171.94
11890,-3.8716,0.3450,0.0167,-835.69,-280.64,-828.12
11900,-3.8716,0.3502,0.0022,164.31,-1858.70,1906.25
11910,-3.8716,0.3491,-0.0116,836.18,281.92,531.25
11920,-3.8717,0.3397,-0.0192,695.56,-1483.70,-812.56
11930,-3.8717,0.3254,-0.0179,-507.57,1547.49,-1796.94
11940,-3.8717,0.3094,-0.0078,1664.31,1703.74,-1796.94
11950,-3.8717,0.2933,0.0092,-382.57,-999.45,-890.69
11960,-3.8716,0.2820,0.0255,1554.93,1172.42,312.50
11970,-3.8716,0.2792,0.0347,101.81,-733.83,1421.88
11980,-3.8716,0.2826,0.0361,-257.57,437.99,1937.56
11990,-3.8716,0.2870,0.0323,179.93,625.55,1875.06
12000,-3.8716,0.2897,0.0267,742.43,141.17,1671.94
12010,-3.8716,0.2903,0.0247,1086.18,-577.58,1562.50
12020,-3.8716,0.2899,0.0310,1164.31,-843.20,1296.88
12030,-3.8716,0.2931,0.0444,1117.43,-30.70,1187.50
12040,-3.8716,0.2998,0.0629,1523.68,1688.05,1843.81
12050,-3.8716,0.3097,0.0839,-1616.94,47.42,-921.75
12060,-3.8715,0.3262,0.1001,-351.32,-1265.08,765.75
12070,-3.8715,0.3453,0.1073,1758.06,813.11,-1437.32
12080,-3.8715,0.3617,0.1071,211.18,1735.05,-562.32
12090,-3.8715,0.3766,0.1024,-1695.07,1703.80,-577.94
12100,-3.8715,0.3928,0.1034,211.18,1110.11,-327.94
12110,-3.8713,0.4069,0.1226,-1710.69,1235.11,1062.68
12120,-3.8713,0.4163,0.1553,86.18,-311.71,-656.07
12130,-3.8712,0.4259,0.1849,1289.31,-124.21,1750.24
12140,-3.8712,0.4346,0.1989,-1476.32,-327.33,-265.32
12150,-3.8711,0.4349,0.1953,-366.94,1453.92,984.74
12160,-3.8711,0.4268,0.1821,-320.07,1000.79,1390.99
12170,-3.8711,0.4166,0.1670,-1366.94,-686.71,1406.56
12180,-3.8711,0.4092,0.1586,1336.18,1375.79,1640.93
12190,-3.8711,0.4019,0.1654,383.06,297.67,-1718.44
12200,-3.8711,0.3918,0.1869,-554.44,1172.61,-312.19
12210,-3.8710,0.3792,0.2134,-1835.69,-77.39,1984.68
12220,-3.8708,0.3660,0.2338,539.31,-686.77,344.12
12230,-3.8708,0.3580,0.2418,-1148.19,1922.55,1812.93
12240,-3.8708,0.3586,0.2393,1836.18,-1046.20,1844.18
12250,-3.8708,0.3699,0.2300,1914.31,-1374.33,234.80
12260,-3.8710,0.3885,0.2183,-648.19,1438.17,1906.68
12270,-3.8710,0.3998,0.2123,1742.43,-61.77,31.62
12280,-3.8711,0.3923,0.2140,-820.07,-827.39,-1390.26
12290,-3.8711,0.3706,0.2192,-1773.19,-608.64,1969.12
12300,-3.8711,0.3439,0.2246,-554.44,63.17,-1921.45
12310,-3.8711,0.3198,0.2269,23.68,750.67,-1983.95
12320,-3.8711,0.3049,0.2296,945.56,1047.49,-1780.82
12330,-3.8711,0.3020,0.2369,-960.69,1391.17,-890.20
12340,-3.8710,0.3098,0.2502,-1335.69,-1671.33,516.05
12350,-3.8710,0.3214,0.2700,-335.69,31.80,-1812.01
12360,-3.8710,0.3271,0.2950,1148.68,-1436.89,-171.39
12370,-3.8708,0.3239,0.3202,1883.06,1766.24,1406.80
12380,-3.8708,0.3171,0.3359,1461.18,984.99,-999.39
12390,-3.8707,0.3145,0.3406,601.81,-999.39,250.61
12400,-3.8707,0.3203,0.3416,258.06,-405.64,625.61
12410,-3.8707,0.3365,0.3458,1008.06,-280.64,1031.86
12420,-3.8707,0.3560,0.3571,-913.82,266.24,1844.42
12430,-3.8707,0.3687,0.3713,1570.56,1703.80,-1514.95
12440,-3.8707,0.3690,0.3817,-804.44,-468.08,-921.20
12450,-3.8707,0.3572,0.3859,-757.57,860.05,-655.52
12460,-3.8707,0.3419,0.3864,1726.81,1391.30,-1327.39
12470,-3.8707,0.3374,0.3892,-226.32,1453.74,1328.86
12480,-3.8707,0.3491,0.3959,-804.44,1813.11,78.86
12490,-3.8708,0.3740,0.4033,695.56,-1327.45,-968.02
12500,-3.8708,0.4062,0.4083,-116.94,-374.33,1985.11
12510,-3.8708,0.4362,0.4070,8.06,266.42,750.79
12520,-3.8710,0.4536,0.3983,-163.82,94.54,-827.33
12530,-3.8710,0.4548,0.3857,-1929.44,-1014.77,1047.61
12540,-3.8711,0.4419,0.3754,-1773.19,1375.85,-1280.52
12550,-3.8711,0.4188,0.3685,570.56,47.73,485.11
12560,-3.8712,0.3917,0.3651,1617.43,-827.33,-1436.83
12570,-3.8712,0.3672,0.3673,-1851.32,-1264.89,1391.30
12580,-3.8712,0.3488,0.3708,-991.94,-983.70,1078.80
12590,-3.8712,0.3359,0.3721,648.68,-530.58,1110.05
12600,-3.8712,0.3286,0.3716,-991.94,-374.39,1110.05
12610,-3.8712,0.3258,0.3708,-1929.44,-436.89,1047.55
12620,-3.8712,0.3247,0.3744,1711.18,-530.64,1281.92
12630,-3.8712,0.3220,0.3864,1570.56,-77.51,-1624.33
12640,-3.8711,0.3140,0.4075,1226.81,1453.74,438.23
12650,-3.8711,0.2954,0.4333,195.56,156.86,-358.58
12660,-3.8710,0.2671,0.4506,1820.56,-530.70,-608.58
12670,-3.8708,0.2354,0.4460,-1804.44,1672.36,-1655.40
12680,-3.8708,0.2070,0.4213,-1866.94,1094.18,-311.65
12690,-3.8708,0.1877,0.3885,-1491.94,1922.24,-796.08
12700,-3.8708,0.1807,0.3577,39.31,1734.74,1328.86
12710,-3.8710,0.1821,0.3367,-866.94,1781.56,-889.95
12720,-3.8710,0.1863,0.3262,-679.44,-905.94,1078.74
12730,-3.8711,0.1936,0.3210,-148.19,1750.31,-655.64
12740,-3.8711,0.2046,0.3218,789.31,1094.12,-1780.64
12750,-3.8711,0.2192,0.3278,-1804.44,1187.87,1672.49
12760,-3.8711,0.2367,0.3324,70.56,1953.55,1141.24
12770,-3.8711,0.2534,0.3337,-1695.07,-1452.70,438.11
12780,-3.8712,0.2662,0.3342,445.56,-1280.76,-421.26
12790,-3.8712,0.2736,0.3344,-1913.82,-1218.26,-1296.26
12800,-3.8712,0.2704,0.3375,-976.32,-1202.64,-1905.64
12810,-3.8712,0.2570,0.3398,-1382.57,-796.39,1891.24
12820,-3.8712,0.2417,0.3350,898.68,-499.51,-1749.39
12830,-3.8712,0.2272,0.3250,-1054.44,-1124.57,-1233.76
12840,-3.8712,0.2118,0.3154,1086.18,1594.18,-1327.51
12850,-3.8712,0.1979,0.3079,-882.57,375.37,-1968.14
12860,-3.8712,0.1890,0.2988,1336.18,-593.38,1391.17
12870,-3.8712,0.1826,0.2881,195.56,-1749.63,1047.42
12880,-3.8712,0.1755,0.2782,-616.94,875.31,859.92
12890,-3.8712,0.1722,0.2687,-1523.19,-390.32,609.86
12900,-3.8712,0.1736,0.2596,-1945.07,-1609.07,437.99
12910,-3.8712,0.1722,0.2506,-1773.19,1234.68,203.61
12920,-3.8712,0.1641,0.2382,-1945.07,78.43,47.36
12930,-3.8713,0.1476,0.2203,1008.06,-1515.32,-15.20
12940,-3.8713,0.1256,0.1965,-1101.32,203.37,-624.57
12950,-3.8713,0.1050,0.1702,86.18,1156.49,-1796.51
12960,-3.8713,0.0886,0.1481,1445.56,1781.43,1062.81
12970,-3.8713,0.0765,0.1326,-648.19,-1046.75,437.74
12980,-3.8713,0.0696,0.1200,1804.93,968.87,109.62
12990,-3.8713,0.0697,0.1105,914.31,-640.50,0.18
13000,-3.8715,0.0732,0.1045,929.93,-1859.25,-171.69
13010,-3.8715,0.0787,0.0994,1383.06,1375.12,-1015.44
13020,-3.8715,0.0874,0.0946,-1913.82,718.87,1922.06
13030,-3.8715,0.0966,0.0900,-804.44,109.50,1187.68
13040,-3.8715,0.1084,0.0822,367.43,-484.19,390.75
13050,-3.8716,0.1266,0.0691,1883.06,-1484.19,-921.75
13060,-3.8716,0.1465,0.0546,211.18,843.99,1390.75
13070,-3.8717,0.1614,0.0439,-1241.94,-1015.38,-218.69
13080,-3.8717,0.1687,0.0360,664.31,1625.31,-1609.31
13090,-3.8717,0.1686,0.0284,1601.81,609.68,1359.44
13100,-3.8717,0.1625,0.0244,1586.18,-359.07,984.38
13110,-3.8717,0.1542,0.0284,804.93,-874.69,1000.00
13120,-3.8717,0.1493,0.0404,-257.57,-359.13,1500.00
13130,-3.8717,0.1521,0.0549,-882.57,1172.12,-1484.31
13140,-3.8717,0.1632,0.0614,-523.19,-968.51,-609.31
13150,-3.8717,0.1782,0.0535,898.68,-140.32,-687.44
13160,-3.8717,0.1891,0.0347,-1179.44,-1155.94,1890.69
13170,-3.8718,0.1921,0.0142,211.18,437.87,-109.31
13180,-3.8718,0.1879,-0.0001,601.81,1812.87,-1593.75
13190,-3.8718,0.1779,-0.0071,54.93,-15.26,1624.94
13200,-3.8718,0.1683,-0.0111,-1226.32,-905.94,1390.56
13210,-3.8718,0.1681,-0.0148,1554.93,-1421.57,1640.56
13220,-3.8718,0.1782,-0.0173,1523.68,-1890.32,1890.56
13230,-3.8718,0.1940,-0.0177,-1179.44,1781.56,1828.06
13240,-3.8718,0.2092,-0.0157,836.18,1734.74,1781.19
13250,-3.8718,0.2209,-0.0126,-1210.69,1984.74,1812.44
13260,-3.8718,0.2329,-0.0088,289.31,-1608.95,1984.31
13270,-3.8718,0.2488,-0.0065,1820.56,-1124.57,-1687.56
13280,-3.8718,0.2687,-0.0092,-148.19,-827.70,-1484.44
13290,-3.8718,0.2841,-0.0172,-1601.32,-1171.39,-1531.31
13300,-3.8718,0.2848,-0.0258,367.43,1797.42,-1781.31
13310,-3.8718,0.2726,-0.0321,461.18,703.67,1812.44
13320,-3.8718,0.2593,-0.0354,-1101.32,-108.89,1484.25
13330,-3.8718,0.2556,-0.0349,1195.56,-530.76,1421.75
13340,-3.8718,0.2634,-0.0327,726.81,-468.26,1624.88
13350,-3.8718,0.2750,-0.0309,1726.81,-187.01,-1875.12
13360,-3.8718,0.2799,-0.0289,-788.82,47.36,-1171.94
13370,-3.8718,0.2745,-0.0243,-163.82,297.36,-125.06
13380,-3.8717,0.2622,-0.0208,-851.32,891.11,984.31
13390,-3.8717,0.2496,-0.0229,1570.56,1344.24,1859.31
13400,-3.8717,0.2410,-0.0278,-38.82,1062.93,-1593.81
13410,-3.8717,0.2347,-0.0344,-1148.19,437.93,-1609.44
13420,-3.8717,0.2284,-0.0408,-1945.07,-405.82,-1515.75
13430,-3.8717,0.2227,-0.0437,1242.43,-1218.32,-968.87
13440,-3.8717,0.2218,-0.0449,508.06,-1593.32,-297.00
13450,-3.8716,0.2256,-0.0464,398.68,-1749.57,46.75
13460,-3.8716,0.2299,-0.0450,883.06,-1937.07,265.50
13470,-3.8716,0.2312,-0.0416,1429.93,-1765.20,359.25
13480,-3.8717,0.2310,-0.0403,1601.81,-1327.70,-47.00
13490,-3.8717,0.2347,-0.0406,1570.56,-1155.82,-609.50
13500,-3.8717,0.2463,-0.0404,-1945.07,-1202.70,-1234.50
13510,-3.8717,0.2659,-0.0404,-460.69,-1171.45,1843.63
13520,-3.8717,0.2870,-0.0397,-1960.69,-1171.39,828.00
13530,-3.8718,0.3018,-0.0360,742.43,-1077.58,-47.00
13540,-3.8718,0.3112,-0.0321,-1366.94,-608.83,-531.37
13550,-3.8718,0.3181,-0.0302,-163.82,-108.83,-468.87
13560,-3.8718,0.3217,-0.0276,726.81,141.24,-515.69
13570,-3.8718,0.3213,-0.0250,1179.93,469.36,-1156.31
13580,-3.8718,0.3185,-0.0293,1133.06,797.49,1843.69
13590,-3.8718,0.3140,-0.0421,773.68,250.61,640.56
13600,-3.8719,0.3101,-0.0576,195.56,-1390.01,-984.50
13610,-3.8719,0.3112,-0.0709,-304.44,625.55,1140.50
13620,-3.8721,0.3203,-0.0758,-163.82,-1077.58,-250.18
13630,-3.8721,0.3334,-0.0702,1008.06,-1702.51,-718.93
13640,-3.8721,0.3467,-0.0555,-1320.07,-983.76,-265.81
13650,-3.8719,0.3582,-0.0284,383.06,891.30,1140.50
13660,-3.8719,0.3685,0.0110,1851.81,360.05,-703.19
13670,-3.8718,0.3871,0.0519,-820.07,1406.92,-1953.12
13680,-3.8717,0.4242,0.0839,1554.93,-1358.64,1093.81
13690,-3.8717,0.4812,0.1078,-1695.07,-1264.83,-406.13
13700,-3.8716,0.5378,0.1233,1601.81,1797.79,781.43
13710,-3.8716,0.5686,0.1216,851.81,-217.71,297.06
13720,-3.8717,0.5682,0.0986,789.31,-436.40,-1374.82
13730,-3.8717,0.5378,0.0684,742.43,626.10,1578.31
13740,-3.8717,0.4858,0.0537,851.81,751.04,1734.50
13750,-3.8717,0.4386,0.0632,-1804.44,-1124.08,-1156.19
13760,-3.8716,0.4131,0.0939,148.68,94.60,1672.00
13770,-3.8715,0.4049,0.1340,883.06,16.42,1672.06
13780,-3.8713,0.4130,0.1696,-163.82,1156.98,1156.49
13790,-3.8713,0.4413,0.1957,867.43,1703.92,-171.57
13800,-3.8712,0.4830,0.2179,492.43,1047.73,-1655.88
13810,-3.8711,0.5245,0.2405,1836.18,-108.46,359.74
13820,-3.8711,0.5557,0.2599,-851.32,-1217.77,1562.93
13830,-3.8711,0.5684,0.2711,-866.94,1266.66,-1624.51
13840,-3.8711,0.5592,0.2711,758.06,-1295.78,-1390.14
13850,-3.8711,0.5371,0.2634,-413.82,-1295.84,-1608.89
13860,-3.8711,0.5176,0.2587,758.06,1719.79,-1687.01
13870,-3.8711,0.5074,0.2625,-1741.94,1110.35,-1499.51
13880,-3.8711,0.4979,0.2747,961.18,1594.73,-1171.39
13890,-3.8711,0.4812,0.2905,-257.57,-842.83,-718.26
13900,-3.8711,0.4617,0.3004,1601.81,1188.42,-358.83
13910,-3.8710,0.4473,0.3042,-898.19,-1546.02,297.42
13920,-3.8710,0.4393,0.3121,1258.06,-1061.65,1344.30
13930,-3.8710,0.4325,0.3246,242.43,-46.02,-1749.45
13940,-3.8710,0.4264,0.3319,-632.57,1547.67,-1515.01
13950,-3.8710,0.4216,0.3295,-1413.82,-1514.83,1656.86
13960,-3.8710,0.4137,0.3202,1976.81,-1827.33,328.74
13970,-3.8711,0.4032,0.3085,961.18,985.17,-983.76
13980,-3.8711,0.3949,0.2977,-382.57,-514.89,1875.55
13990,-3.8711,0.3846,0.2938,-1445.07,-1889.89,1469.30
14000,-3.8711,0.3706,0.3004,1242.43,1610.11,1750.55
14010,-3.8711,0.3600,0.3168,-554.44,-1546.20,-1624.45
14020,-3.8711,0.3582,0.3429,-1913.82,547.55,-561.89
14030,-3.8710,0.3641,0.3723,1851.81,-108.70,953.74
14040,-3.8710,0.3734,0.3939,-1382.57,-343.08,-1671.20
14050,-3.8710,0.3832,0.3998,-195.07,-1577.45,-1171.14
14060,-3.8710,0.3959,0.3877,1054.93,-827.39,-1733.64
14070,-3.8710,0.4092,0.3672,-1320.07,1625.73,735.11
14080,-3.8711,0.4133,0.3506,383.06,-999.21,-1280.58
14090,-3.8711,0.4041,0.3431,914.31,875.79,906.92
14100,-3.8712,0.3842,0.3418,-273.19,-77.39,-280.64
14110,-3.8712,0.3622,0.3402,1179.93,-249.27,-1155.64
14120,-3.8712,0.3463,0.3364,-1632.57,-452.45,1891.24
14130,-3.8712,0.3376,0.3346,336.18,-936.83,1156.86
14140,-3.8712,0.3352,0.3392,-773.19,-1171.26,1031.86
14150,-3.8712,0.3420,0.3480,-1085.69,-577.51,1406.86
14160,-3.8712,0.3567,0.3560,-210.69,547.49,-1921.20
14170,-3.8712,0.3704,0.3624,1664.31,1563.17,-1202.45
14180,-3.8712,0.3767,0.3676,-585.69,-1608.70,-671.20
14190,-3.8712,0.3756,0.3698,226.81,-952.39,-264.95
14200,-3.8711,0.3687,0.3667,86.18,-671.14,188.17
14210,-3.8711,0.3542,0.3624,-804.44,-1061.83,844.42
14220,-3.8711,0.3312,0.3612,1351.81,-1608.70,1875.67
14230,-3.8711,0.3074,0.3604,-1601.32,-1765.01,-702.45
14240,-3.8710,0.2899,0.3599,-648.19,-1874.45,985.05
14250,-3.8710,0.2775,0.3615,1117.43,-1936.95,-1499.33
14260,-3.8710,0.2728,0.3635,-476.32,-1733.89,-327.45
14270,-3.8708,0.2769,0.3641,-1070.07,-1468.26,610.05
14280,-3.8708,0.2776,0.3638,-554.44,-1390.14,1281.92
14290,-3.8708,0.2676,0.3612,-460.69,-1437.01,1438.17
14300,-3.8708,0.2516,0.3541,-1741.94,-1765.14,922.55
14310,-3.8710,0.2377,0.3425,211.18,1328.61,-155.58
14320,-3.8710,0.2312,0.3307,-1570.07,-155.82,-1530.64
14330,-3.8710,0.2349,0.3263,1601.81,-1671.45,1094.36
14340,-3.8711,0.2491,0.3296,-1929.44,1766.05,-186.89
14350,-3.8711,0.2731,0.3364,-101.32,-1812.07,-968.14
14360,-3.8711,0.3024,0.3442,-1038.82,-937.01,-1311.89
14370,-3.8711,0.3318,0.3469,-1288.82,63.05,-1921.20
14380,-3.8711,0.3533,0.3402,-1523.19,406.86,953.80
14390,-3.8712,0.3605,0.3246,1226.81,-452.45,-561.89
14400,-3.8712,0.3533,0.3043,-1851.32,1547.55,1688.11
14410,-3.8712,0.3340,0.2865,1226.81,-1046.20,156.80
14420,-3.8713,0.3085,0.2744,-1241.94,672.49,-718.20
14430,-3.8713,0.2825,0.2657,-507.57,-874.45,-905.76
14440,-3.8713,0.2620,0.2589,164.31,-1983.83,-437.01
14450,-3.8712,0.2512,0.2531,1539.31,1141.11,0.49
14460,-3.8712,0.2490,0.2452,164.31,391.11,62.99
14470,-3.8713,0.2537,0.2352,-116.94,-608.95,-155.82
14480,-3.8713,0.2620,0.2206,476.81,-1890.14,-749.57
14490,-3.8713,0.2656,0.2007,1539.31,234.86,-1733.95
14500,-3.8713,0.2579,0.1809,-1991.94,1687.99,1078.49
14510,-3.8713,0.2428,0.1637,1023.68,-843.26,31.56
14520,-3.8715,0.2278,0.1503,-913.82,953.55,-484.07
14530,-3.8715,0.2181,0.1426,1164.31,-765.20,-468.51
14540,-3.8715,0.2125,0.1389,-70.07,-1749.63,-31.01
14550,-3.8713,0.2054,0.1360,-788.82,1781.62,593.99
14560,-3.8713,0.1943,0.1320,-1695.07,1406.62,1281.49
14570,-3.8713,0.1804,0.1265,883.06,890.99,1937.74
14580,-3.8713,0.1681,0.1150,-898.19,187.81,-1812.26
14590,-3.8713,0.1621,0.0967,1523.68,-1280.94,-1937.32
14600,-3.8713,0.1615,0.0779,758.06,375.31,1562.68
14610,-3.8713,0.1591,0.0652,679.93,1969.06,890.75
14620,-3.8713,0.1509,0.0592,367.43,344.06,562.62
14630,-3.8713,0.1415,0.0552,-679.44,-421.63,562.56
14640,-3.8713,0.1365,0.0511,-1882.57,-937.26,734.44
14650,-3.8713,0.1373,0.0474,1476.81,-1452.88,953.19
14660,-3.8713,0.1426,0.0457,1586.18,-1937.26,1031.31
14670,-3.8713,0.1500,0.0446,-1741.94,1843.99,875.06
14680,-3.8713,0.1570,0.0427,-788.82,1703.37,453.19
14690,-3.8715,0.1631,0.0421,101.81,1469.06,-281.19
14700,-3.8715,0.1699,0.0444,883.06,1390.93,-562.44
14710,-3.8715,0.1760,0.0455,1758.06,1687.81,-343.69
14720,-3.8715,0.1776,0.0400,-1460.69,1828.43,-390.56
14730,-3.8715,0.1761,0.0305,-1257.57,1125.31,-843.69
14740,-3.8715,0.1769,0.0208,-1445.07,-93.44,-1781.25
14750,-3.8715,0.1808,0.0094,-1351.32,-1343.44,781.25
14760,-3.8716,0.1846,-0.0040,-851.32,1203.43,-1015.62
14770,-3.8716,0.1829,-0.0164,-366.94,-515.32,1296.81
14780,-3.8717,0.1740,-0.0271,-585.69,1906.56,-250.06
14790,-3.8717,0.1625,-0.0380,-1726.32,531.56,-1718.81
14800,-3.8717,0.1544,-0.0482,804.93,-859.07,1031.13
14810,-3.8718,0.1517,-0.0570,-226.32,1828.37,-93.87
14820,-3.8718,0.1539,-0.0670,-570.07,703.37,-1297.00
14830,-3.8718,0.1588,-0.0775,-288.82,-577.88,1406.07
14840,-3.8718,0.1641,-0.0817,336.18,-1921.57,327.94
14850,-3.8719,0.1677,-0.0791,1008.06,1547.18,-515.81
14860,-3.8719,0.1727,-0.0759,1476.81,1875.31,-1390.81
14870,-3.8719,0.1809,-0.0771,-1882.57,-1718.44,1624.82
14880,-3.8719,0.1910,-0.0836,-835.69,-1874.69,577.94
14890,-3.8721,0.2028,-0.0934,461.18,1297.24,-718.93
14900,-3.8721,0.2141,-0.1045,1961.18,47.24,1718.57
14910,-3.8722,0.2190,-0.1147,-585.69,-1374.63,-62.74
14920,-3.8722,0.2162,-0.1224,39.31,1312.93,-1750.24
14930,-3.8722,0.2063,-0.1227,-320.07,328.49,1156.01
14940,-3.8722,0.1920,-0.1130,-1585.69,297.24,749.76
14950,-3.8722,0.1841,-0.0962,586.18,1531.62,1046.63
14960,-3.8722,0.1923,-0.0786,-429.44,-312.19,1812.26
14970,-3.8722,0.2170,-0.0669,617.43,1937.87,-1875.18
14980,-3.8722,0.2545,-0.0677,-210.69,-562.13,1327.94
14990,-3.8723,0.2932,-0.0834,586.18,-671.39,-328.31
15000,-3.8723,0.3186,-0.1038,1539.31,1328.67,1812.32
15010,-3.8723,0.3250,-0.1226,789.31,-1280.64,515.38
15020,-3.8723,0.3134,-0.1350,1601.81,313.11,749.76
15030,-3.8723,0.2889,-0.1318,117.43,-1280.64,-1469.06
15040,-3.8722,0.2633,-0.1146,992.43,-874.45,1359.07
15050,-3.8721,0.2520,-0.0887,1711.18,1328.61,859.13
15060,-3.8719,0.2616,-0.0569,258.06,641.11,390.44
15070,-3.8719,0.2892,-0.0250,1492.43,719.24,-468.87
15080,-3.8718,0.3284,0.0024,1023.68,797.42,-1421.94
15090,-3.8717,0.3680,0.0226,-1960.69,313.11,1453.12
15100,-3.8717,0.3969,0.0298,-882.57,-1108.70,-781.25
15110,-3.8717,0.4119,0.0234,-1195.07,-186.77,-46.88
15120,-3.8716,0.4152,0.0107,726.81,-999.21,203.12
15130,-3.8716,0.4095,0.0005,1148.68,1375.79,203.12
15140,-3.8716,0.3976,-0.0012,429.93,63.29,718.75
15150,-3.8716,0.3789,0.0061,-1101.32,-155.52,-1781.31
15160,-3.8715,0.3567,0.0172,508.06,781.98,0.00
15170,-3.8715,0.3401,0.0260,1664.31,-1796.20,1156.25
15180,-3.8715,0.3344,0.0299,-460.69,-671.26,1781.25
15190,-3.8715,0.3340,0.0305,-1195.07,-171.26,-1953.12
15200,-3.8715,0.3353,0.0291,-1241.94,-93.14,1500.00
15210,-3.8715,0.3401,0.0239,-1070.07,-280.64,359.38
15220,-3.8716,0.3428,0.0149,-460.69,-936.89,-843.75
15230,-3.8716,0.3359,0.0087,-116.94,1906.86,-2000.00
15240,-3.8716,0.3239,0.0085,-991.94,1109.99,1031.25
15250,-3.8716,0.3173,0.0135,1461.18,1094.36,875.00
15260,-3.8716,0.3171,0.0264,617.43,1734.99,1828.12
15270,-3.8716,0.3226,0.0471,601.81,-624.39,-468.75
15280,-3.8715,0.3372,0.0717,1304.93,-1968.14,1468.81
15290,-3.8715,0.3571,0.0952,-835.69,1172.49,-749.88
15300,-3.8713,0.3760,0.1129,1711.18,188.17,328.31
15310,-3.8713,0.3926,0.1222,133.06,-1546.14,562.68
15320,-3.8715,0.4056,0.1248,-1741.94,-358.64,-62.32
15330,-3.8715,0.4155,0.1237,-70.07,-30.52,-1312.32
15340,-3.8715,0.4255,0.1217,1195.56,-171.08,1156.43
15350,-3.8715,0.4358,0.1267,-1523.19,-421.08,172.06
15360,-3.8715,0.4409,0.1440,-210.69,219.54,500.24
15370,-3.8715,0.4386,0.1708,445.56,-1561.65,-1952.88
15380,-3.8713,0.4315,0.2020,148.68,1860.23,484.68
15390,-3.8713,0.4264,0.2300,-757.57,1860.17,-796.51
15400,-3.8712,0.4297,0.2543,-1413.82,1438.29,1875.43
15410,-3.8711,0.4434,0.2803,-991.94,547.67,234.86
15420,-3.8711,0.4677,0.3103,758.06,-124.15,-1452.64
15430,-3.8710,0.4941,0.3429,-132.57,-280.40,1219.30
15440,-3.8710,0.5122,0.3696,-741.94,-108.46,-218.14
15450,-3.8708,0.5138,0.3800,1570.56,-686.52,1406.92
15460,-3.8708,0.4974,0.3702,1773.68,641.60,1391.36
15470,-3.8710,0.4755,0.3435,-320.07,-608.46,-561.83
15480,-3.8711,0.4602,0.3110,867.43,-30.33,-124.39
15490,-3.8712,0.4525,0.2882,-1085.69,-186.65,-702.58
15500,-3.8713,0.4503,0.2821,1929.93,891.48,-1233.83
15510,-3.8715,0.4501,0.2875,1648.68,110.23,-561.95
15520,-3.8715,0.4452,0.2947,1617.43,797.73,1391.17
15530,-3.8715,0.4332,0.3002,992.43,1719.60,391.17
15540,-3.8715,0.4159,0.3074,-538.82,-1577.33,641.17
15550,-3.8715,0.3944,0.3158,1242.43,-655.46,1938.05
15560,-3.8713,0.3706,0.3248,-1507.57,422.61,78.74
15570,-3.8713,0.3461,0.3367,-554.44,1578.80,-1343.14
15580,-3.8712,0.3246,0.3485,304.93,-905.58,813.11
15590,-3.8712,0.3127,0.3579,1554.93,609.99,-1624.33
15600,-3.8712,0.3118,0.3635,39.31,1813.11,-421.20
15610,-3.8711,0.3204,0.3644,-85.69,-1468.20,250.67
15620,-3.8711,0.3406,0.3646,1023.68,-1358.76,313.17
15630,-3.8711,0.3705,0.3726,-398.19,-1327.51,250.67
15640,-3.8711,0.4041,0.3888,-570.07,-311.83,453.80
15650,-3.8711,0.4338,0.4098,-273.19,1766.36,1188.23
15660,-3.8711,0.4503,0.4343,-460.69,453.92,-1296.08
15670,-3.8710,0.4493,0.4592,1648.68,-405.40,500.79
15680,-3.8710,0.4354,0.4794,1523.68,-1217.90,-1780.40
15690,-3.8710,0.4180,0.4897,-257.57,1360.17,-233.46
15700,-3.8708,0.4052,0.4871,1508.06,-1311.71,985.29
15710,-3.8708,0.3990,0.4708,-132.57,-1655.52,1297.79
15720,-3.8708,0.3965,0.4456,-913.82,266.36,47.79
15730,-3.8710,0.3911,0.4198,-1241.94,1031.98,1500.85
15740,-3.8711,0.3824,0.3999,-1929.44,1735.11,-1749.21
15750,-3.8712,0.3766,0.3892,961.18,-811.77,-874.27
15760,-3.8712,0.3777,0.3881,211.18,1813.23,797.61
15770,-3.8713,0.3861,0.3923,351.81,1672.61,-733.64
15780,-3.8713,0.3970,0.3988,1429.93,-1780.52,-1749.27
15790,-3.8713,0.4009,0.4052,-1179.44,-952.39,1578.86
15800,-3.8713,0.3917,0.4081,-679.44,-139.89,1156.98
15810,-3.8713,0.3713,0.4072,-1851.32,235.11,907.04
15820,-3.8713,0.3448,0.4034,-460.69,125.67,813.29
15830,-3.8713,0.3145,0.3958,148.68,-358.70,781.98
15840,-3.8713,0.2863,0.3865,258.06,-1343.14,438.23
15850,-3.8715,0.2667,0.3799,648.68,1469.30,-30.52
15860,-3.8715,0.2571,0.3752,-1851.32,625.49,-171.14
15870,-3.8713,0.2546,0.3734,914.31,31.74,391.36
15880,-3.8713,0.2515,0.3783,601.81,-202.64,1516.30
15890,-3.8713,0.2434,0.3883,195.56,422.36,-1530.52
15900,-3.8713,0.2389,0.3998,-835.69,1703.55,-921.14
15910,-3.8712,0.2454,0.4156,-1413.82,-827.70,0.73
15920,-3.8712,0.2588,0.4343,-585.69,1203.55,1422.67
15930,-3.8712,0.2726,0.4490,1133.06,-405.76,-796.08
15940,-3.8711,0.2799,0.4575,-1101.32,1469.24,1125.85
15950,-3.8711,0.2764,0.4590,-163.82,-1437.01,-1655.40
15960,-3.8711,0.2679,0.4548,-616.94,-1249.51,-1296.02
15970,-3.8711,0.2631,0.4460,-1695.07,-1780.76,-1358.52
15980,-3.8711,0.2648,0.4340,1679.93,1094.24,-1874.15
15990,-3.8711,0.2694,0.4257,1898.68,-452.64,1453.92
16000,-3.8711,0.2712,0.4270,-1507.57,-1515.14,1469.54
16010,-3.8711,0.2717,0.4341,-1273.19,-1343.26,-1655.46
16020,-3.8711,0.2742,0.4388,-1210.69,-437.01,-467.96
16030,-3.8710,0.2761,0.4384,-898.19,172.36,407.10
16040,-3.8710,0.2739,0.4338,-648.19,109.86,766.48
16050,-3.8710,0.2693,0.4247,-929.44,-468.26,719.54
16060,-3.8710,0.2644,0.4126,-1523.19,-1640.14,672.67
16070,-3.8710,0.2600,0.4004,1851.81,812.99,672.67
16080,-3.8710,0.2590,0.3857,1289.31,-749.51,297.61
16090,-3.8711,0.2601,0.3667,1164.31,1375.49,-593.02
16100,-3.8711,0.2576,0.3466,1304.93,-1062.01,-1702.45
16110,-3.8711,0.2515,0.3280,976.81,359.86,1016.30
16120,-3.8712,0.2463,0.3104,195.56,1984.86,-202.51
16130,-3.8712,0.2437,0.2946,-460.69,-265.20,-1374.45
16140,-3.8712,0.2432,0.2793,-804.44,1703.55,1453.67
16150,-3.8712,0.2438,0.2650,-866.94,-249.57,437.99
16160,-3.8713,0.2455,0.2535,-788.82,1922.30,-437.01
16170,-3.8713,0.2483,0.2417,-570.07,453.55,-1124.51
16180,-3.8713,0.2493,0.2268,-210.69,-1062.07,-1968.32
16190,-3.8713,0.2473,0.2078,-85.69,1031.68,703.55
16200,-3.8715,0.2438,0.1859,-335.69,-1405.82,-874.63
16210,-3.8715,0.2386,0.1666,-788.82,-202.70,1515.93
16220,-3.8715,0.2366,0.1521,-1445.07,1328.55,219.06
16230,-3.8716,0.2386,0.1393,-1710.69,-530.82,-702.88
16240,-3.8716,0.2363,0.1256,-1445.07,1828.55,-1577.88
16250,-3.8716,0.2252,0.1093,-1741.94,78.55,1468.99
16260,-3.8716,0.2094,0.0905,836.18,1984.80,343.93
16270,-3.8717,0.1947,0.0714,-1195.07,-421.51,-921.75
16280,-3.8717,0.1853,0.0566,929.93,1140.99,-1906.13
16290,-3.8717,0.1863,0.0511,-273.19,-749.69,1734.44
16300,-3.8717,0.1976,0.0546,-148.19,-1452.82,-1937.44
16310,-3.8717,0.2104,0.0610,1304.93,-1015.26,-1140.56
16320,-3.8717,0.2166,0.0648,-1054.44,-187.13,-656.19
16330,-3.8717,0.2118,0.0623,-273.19,297.24,-781.13
16340,-3.8717,0.1998,0.0519,-882.57,-30.88,-1062.44
16350,-3.8717,0.1891,0.0372,1586.18,-1359.01,-1328.06
16360,-3.8717,0.1841,0.0248,211.18,765.99,-1703.06
16370,-3.8717,0.1852,0.0198,-429.44,-827.82,1921.88
16380,-3.8717,0.1942,0.0222,-288.82,-1468.44,1843.75
16390,-3.8717,0.2106,0.0266,867.43,-1155.88,1796.88
16400,-3.8717,0.2271,0.0256,-1038.82,-593.38,1406.25
16410,-3.8717,0.2366,0.0159,1070.56,-718.32,453.12
16420,-3.8718,0.2349,0.0032,-1710.69,-1968.32,-796.88
16430,-3.8718,0.2230,-0.0051,-1929.44,406.68,-1625.00
16440,-3.8718,0.2131,-0.0103,554.93,-655.82,-1796.94
16450,-3.8718,0.2142,-0.0164,-710.69,-1312.13,-1703.19
16460,-3.8718,0.2218,-0.0228,-570.07,1906.62,-1828.19
16470,-3.8718,0.2278,-0.0266,398.68,1078.55,1828.06
16480,-3.8718,0.2313,-0.0276,1164.31,594.18,1593.69
16490,-3.8718,0.2362,-0.0284,1617.43,469.18,1421.81
16500,-3.8718,0.2444,-0.0277,-1757.57,359.80,1046.81
16510,-3.8718,0.2577,-0.0288,-710.69,453.55,421.81
16520,-3.8719,0.2733,-0.0382,992.43,312.99,-671.94
16530,-3.8719,0.2838,-0.0544,-1007.57,-890.14,1718.63
16540,-3.8721,0.2864,-0.0728,336.18,1031.80,-203.25
16550,-3.8721,0.2836,-0.0902,664.31,-1311.95,1937.32
16560,-3.8721,0.2771,-0.1060,304.93,453.67,546.69
16570,-3.8722,0.2675,-0.1195,-523.19,-1562.01,-484.62
16580,-3.8722,0.2576,-0.1288,-1757.57,703.61,-1515.87
16590,-3.8722,0.2502,-0.1333,976.81,-483.89,1140.32
16600,-3.8723,0.2445,-0.1351,39.31,-1062.01,-750.31
16610,-3.8723,0.2419,-0.1378,-695.07,-1296.45,577.82
16620,-3.8724,0.2484,-0.1418,-1023.19,-1640.20,968.44
16630,-3.8726,0.2711,-0.1423,-195.07,1844.18,1343.44
16640,-3.8727,0.3101,-0.1315,-1288.82,1781.74,-469.06
16650,-3.8726,0.3617,-0.1060,-304.44,-827.58,468.44
16660,-3.8724,0.4152,-0.0673,-1695.07,-1561.83,93.51
16670,-3.8723,0.4493,-0.0183,1148.68,-608.58,1609.19
16680,-3.8722,0.4536,0.0312,1523.68,1657.10,-203.19
16690,-3.8719,0.4348,0.0695,-1929.44,0.85,1859.44
16700,-3.8718,0.4077,0.0914,-335.69,891.42,-687.38
16710,-3.8717,0.3846,0.0970,195.56,-296.08,-453.00
16720,-3.8716,0.3752,0.0885,1242.43,422.61,1890.81
16730,-3.8716,0.3855,0.0734,39.31,-671.14,-1515.50
16740,-3.8716,0.4093,0.0602,1351.81,1391.36,-1843.63
16750,-3.8716,0.4357,0.0485,398.68,-296.08,1156.31
16760,-3.8717,0.4541,0.0352,-226.32,-1796.08,-203.06
16770,-3.8717,0.4573,0.0239,-1866.94,500.85,-1578.06
16780,-3.8717,0.4473,0.0190,-1460.69,-936.65,1421.88
16790,-3.8717,0.4275,0.0232,1258.06,-1561.65,1468.75
16800,-3.8717,0.4087,0.0353,-1273.19,-1030.46,-1812.50
16810,-3.8717,0.4026,0.0483,320.56,516.42,-562.44
16820,-3.8716,0.4095,0.0566,-460.69,-1811.77,906.31
16830,-3.8716,0.4246,0.0596,429.93,-749.21,1796.94
16840,-3.8716,0.4423,0.0544,-1648.19,-374.21,1703.19
16850,-3.8716,0.4636,0.0343,617.43,-1030.40,93.81
16860,-3.8717,0.4896,0.0001,-648.19,391.48,1296.94
16870,-3.8718,0.5107,-0.0292,-1320.07,16.54,-1140.62
16880,-3.8718,0.5166,-0.0336,1383.06,266.60,-1953.19
16890,-3.8718,0.5066,-0.0063,-1866.94,-295.90,-734.50
16900,-3.8717,0.4839,0.0536,851.81,-811.52,-1703.19
16910,-3.8716,0.4615,0.1375,1945.56,-1139.71,-953.06
16920,-3.8713,0.4552,0.2177,-913.82,1594.60,1203.37
16930,-3.8712,0.4626,0.2596,-1726.32,-139.77,-999.63
16940,-3.8711,0.4714,0.2496,-773.19,1235.23,1859.86
16950,-3.8712,0.4694,0.2006,351.81,-45.96,-77.70
16960,-3.8713,0.4545,0.1326,86.18,1672.79,1547.24
16970,-3.8716,0.4342,0.0695,-1820.07,969.60,1468.99
16980,-3.8718,0.4126,0.0363,-413.82,891.42,-937.38
16990,-3.8718,0.3892,0.0453,820.56,641.42,328.19
17000,-3.8718,0.3624,0.0905,1820.56,1797.61,1312.56
17010,-3.8717,0.3385,0.1537,-1601.32,-421.20,1047.00
17020,-3.8716,0.3298,0.2151,-663.82,-327.51,-1874.76
17030,-3.8715,0.3430,0.2578,-1773.19,-468.14,-1046.51
17040,-3.8713,0.3737,0.2748,-85.69,1000.61,1750.49
17050,-3.8713,0.4116,0.2715,-163.82,-827.45,1766.11
17060,-3.8713,0.4486,0.2582,695.56,-1249.21,219.24
17070,-3.8715,0.4731,0.2496,1429.93,1047.73,-765.14
17080,-3.8715,0.4720,0.2546,570.56,-45.96,-1046.45
17090,-3.8715,0.4492,0.2697,429.93,594.67,-999.51
17100,-3.8713,0.4181,0.2930,1508.06,-1483.52,297.36
17110,-3.8713,0.3900,0.3231,1523.68,1500.79,-1405.70
17120,-3.8712,0.3734,0.3541,1929.93,1360.11,1281.86
17130,-3.8712,0.3721,0.3740,-195.07,1328.80,-171.20
17140,-3.8711,0.3839,0.3728,-366.94,-124.33,1500.67
17150,-3.8711,0.3989,0.3618,1148.68,-280.52,1860.05
17160,-3.8711,0.4093,0.3578,-929.44,-1686.77,1172.55
17170,-3.8711,0.4136,0.3645,398.68,1797.67,485.05
17180,-3.8711,0.4102,0.3774,945.56,-1342.96,578.80
17190,-3.8711,0.3987,0.3929,508.06,313.29,1266.36
17200,-3.8711,0.3834,0.4122,-960.69,-1702.39,-1639.89
17210,-3.8710,0.3726,0.4342,1086.18,766.36,16.42
17220,-3.8710,0.3701,0.4551,-304.44,-421.20,-1467.96
17230,-3.8708,0.3762,0.4678,-616.94,-1749.33,1141.48
17240,-3.8708,0.3846,0.4686,164.31,-124.27,-1108.52
17250,-3.8708,0.3851,0.4642,1242.43,-14.89,-436.65
17260,-3.8708,0.3783,0.4592,1304.93,-577.39,-749.15
17270,-3.8708,0.3741,0.4524,429.93,-1218.02,-1452.27
17280,-3.8708,0.3771,0.4470,-101.32,1906.92,1985.23
17290,-3.8708,0.3838,0.4482,273.68,1219.48,1313.35
17300,-3.8708,0.3915,0.4545,1133.06,1375.73,657.10
17310,-3.8708,0.3983,0.4604,-1882.57,-1827.39,328.98
17320,-3.8708,0.4027,0.4625,-1007.57,-1061.77,94.60
17330,-3.8710,0.4028,0.4573,-445.07,-796.14,-436.65
17340,-3.8710,0.3998,0.4408,-429.44,-1468.02,-1952.27
17350,-3.8711,0.3932,0.4188,-820.07,422.61,-389.77
17360,-3.8711,0.3812,0.4027,-1663.82,1610.11,953.92
17370,-3.8712,0.3689,0.3920,804.93,-452.39,-1577.39
17380,-3.8712,0.3596,0.3815,-773.19,-1827.45,453.86
17390,-3.8713,0.3539,0.3726,-1960.69,828.80,-718.02
17400,-3.8713,0.3522,0.3679,1304.93,-311.83,-1405.58
17410,-3.8713,0.3500,0.3665,1086.18,-905.58,-1702.45
17420,-3.8713,0.3430,0.3690,804.93,-1093.08,-1468.08
17430,-3.8713,0.3290,0.3761,-85.69,-765.01,-671.20
17440,-3.8712,0.3134,0.3850,-1882.57,141.24,641.36
17450,-3.8712,0.3021,0.3947,117.43,1281.86,-1593.02
17460,-3.8711,0.2909,0.4032,-1320.07,-1483.83,47.61
17470,-3.8711,0.2806,0.4073,1242.43,-390.08,1344.48
17480,-3.8711,0.2765,0.4077,-70.07,141.11,-1592.96
17490,-3.8711,0.2791,0.4059,-601.32,187.99,-1030.46
17500,-3.8711,0.2856,0.4033,-273.19,-46.39,-1124.27
17510,-3.8711,0.2930,0.3988,570.56,-374.45,1938.23
17520,-3.8711,0.2998,0.3895,1508.06,-952.58,141.36
17530,-3.8712,0.3047,0.3787,-1616.94,1859.92,-1936.77
17540,-3.8712,0.3041,0.3719,-991.94,469.30,281.98
17550,-3.8713,0.2969,0.3723,-1070.07,-390.08,-1014.95
17560,-3.8713,0.2843,0.3793,-1991.94,-343.20,-1608.70
17570,-3.8713,0.2704,0.3884,398.68,547.42,-1171.14
17580,-3.8712,0.2635,0.3969,-1382.57,1719.24,110.11
17590,-3.8712,0.2683,0.4030,1742.43,-1202.64,1578.86
17600,-3.8712,0.2816,0.4054,-1648.19,-421.39,-1233.64
17610,-3.8712,0.2972,0.4036,54.93,-108.83,-561.77
17620,-3.8712,0.3109,0.3970,-1945.07,-343.20,-546.14
17630,-3.8712,0.3206,0.3860,-195.07,-1186.95,-952.39
17640,-3.8712,0.3236,0.3729,1039.31,1406.86,-1530.52
17650,-3.8712,0.3184,0.3630,1429.93,-265.01,1860.05
17660,-3.8712,0.3085,0.3561,758.06,-1530.64,1422.55
17670,-3.8712,0.3016,0.3456,-507.57,1578.67,1094.42
17680,-3.8712,0.3019,0.3314,-1382.57,234.92,688.17
17690,-3.8712,0.3051,0.3182,-1351.32,-1577.58,188.11
17700,-3.8713,0.3053,0.3079,-945.07,734.92,-280.64
17710,-3.8713,0.2990,0.3002,-913.82,-593.20,-530.70
17720,-3.8713,0.2876,0.2904,-1726.32,-1577.58,-780.70
17730,-3.8713,0.2749,0.2747,820.56,1172.42,-1171.33
17740,-3.8713,0.2661,0.2585,-804.44,-843.26,-1671.39
17750,-3.8713,0.2650,0.2476,-1929.44,1094.24,1703.61
17760,-3.8713,0.2710,0.2393,1929.93,-312.01,1094.18
17770,-3.8713,0.2791,0.2274,-1304.44,-1374.51,625.43
17780,-3.8713,0.2770,0.2103,-273.19,1109.86,16.05
17790,-3.8715,0.2590,0.1897,-538.82,-1077.64,-1062.13
17800,-3.8715,0.2296,0.1676,1164.31,281.74,1781.62
17810,-3.8715,0.1937,0.1455,1398.68,1453.55,859.68
17820,-3.8715,0.1589,0.1243,804.93,-1374.63,187.74
17830,-3.8716,0.1307,0.1084,351.81,-93.44,-171.69
17840,-3.8716,0.1121,0.0995,742.43,1875.24,-484.19
17850,-3.8716,0.1086,0.0946,-1648.19,734.56,-859.19
17860,-3.8716,0.1261,0.0898,1914.31,109.56,-1421.69
17870,-3.8716,0.1558,0.0845,148.68,-499.76,1656.37
17880,-3.8716,0.1793,0.0752,-54.44,-1187.26,234.50
17890,-3.8717,0.1846,0.0592,-1038.82,1625.31,-1453.00
17900,-3.8717,0.1687,0.0420,-366.94,-421.57,1218.81
17910,-3.8717,0.1395,0.0281,1601.81,1375.31,234.44
17920,-3.8718,0.1125,0.0155,1867.43,-406.01,-718.75
17930,-3.8718,0.1025,0.0045,-1585.69,1984.56,-1375.00
17940,-3.8718,0.1112,-0.0011,1133.06,578.31,-1453.12
17950,-3.8718,0.1282,-0.0037,-1757.57,-140.44,-1406.31
17960,-3.8718,0.1436,-0.0065,414.31,-468.51,-1609.44
17970,-3.8718,0.1549,-0.0115,-1616.94,-827.88,-1906.31
17980,-3.8718,0.1641,-0.0186,-163.82,-1468.51,1671.81
17990,-3.8718,0.1749,-0.0260,1008.06,1625.31,1031.19
18000,-3.8718,0.1886,-0.0315,-1601.32,672.18,468.69
18010,-3.8718,0.1990,-0.0347,148.68,-30.88,249.88
18020,-3.8718,0.1992,-0.0393,1476.81,-437.13,203.00
18030,-3.8719,0.1912,-0.0485,1508.06,-1030.88,-47.00
18040,-3.8719,0.1802,-0.0599,476.81,1797.24,-687.62
18050,-3.8719,0.1731,-0.0682,-929.44,328.43,-1468.87
18060,-3.8719,0.1757,-0.0706,-1835.69,-734.07,1890.44
18070,-3.8719,0.1876,-0.0658,-1507.57,-1030.94,1781.07
18080,-3.8719,0.2045,-0.0570,23.68,-421.51,-1687.68
18090,-3.8719,0.2223,-0.0521,-1820.07,703.49,-984.50
18100,-3.8719,0.2358,-0.0533,461.18,1328.55,-125.12
18110,-3.8718,0.2349,-0.0570,-1804.44,1172.30,609.25
18120,-3.8718,0.2200,-0.0615,-1929.44,703.55,828.00
18130,-3.8718,0.2030,-0.0634,164.31,125.43,1109.25
18140,-3.8718,0.1904,-0.0577,1992.43,-109.01,1671.69
18150,-3.8718,0.1821,-0.0471,383.06,609.74,-1531.37
18160,-3.8718,0.1819,-0.0404,-679.44,1969.06,-922.00
18170,-3.8718,0.1951,-0.0444,-710.69,-1171.57,-1047.00
18180,-3.8718,0.2144,-0.0530,976.81,-1687.13,-1609.50
18190,-3.8718,0.2299,-0.0581,-554.44,1219.12,1828.00
18200,-3.8718,0.2393,-0.0559,1429.93,562.93,1906.13
18210,-3.8718,0.2416,-0.0443,-1366.94,844.18,-734.50
18220,-3.8717,0.2347,-0.0273,-1070.07,-1671.45,1468.63
18230,-3.8717,0.2200,-0.0127,-1945.07,500.43,-78.19
18240,-3.8716,0.2047,-0.0071,164.31,-1624.57,-1875.06
18250,-3.8716,0.1959,-0.0095,-1788.82,-905.88,-312.56
18260,-3.8715,0.1991,-0.0146,1086.18,-1218.38,249.94
18270,-3.8716,0.2152,-0.0189,1492.43,-1874.63,-15.69
18280,-3.8716,0.2378,-0.0201,-445.07,1578.49,-640.69
18290,-3.8716,0.2616,-0.0212,-1554.44,1422.30,-1453.19
18300,-3.8716,0.2819,-0.0260,1492.43,1281.74,-1968.81
18310,-3.8716,0.2935,-0.0333,86.18,672.42,1484.31
18320,-3.8716,0.2974,-0.0383,1570.56,-265.08,718.63
18330,-3.8716,0.2928,-0.0361,-1929.44,-905.70,343.63
18340,-3.8716,0.2848,-0.0261,1492.43,-624.45,156.13
18350,-3.8717,0.2815,-0.0154,461.18,656.80,-15.69
18360,-3.8717,0.2852,-0.0118,39.31,-1968.20,-93.81
18370,-3.8717,0.2970,-0.0195,508.06,-1515.08,-578.19
18380,-3.8717,0.3138,-0.0337,-1976.32,1500.55,-1265.69
18390,-3.8717,0.3281,-0.0439,179.93,-311.89,-1437.62
18400,-3.8717,0.3364,-0.0460,-1991.94,-1624.39,-1062.62
18410,-3.8716,0.3354,-0.0360,-929.44,-1890.01,296.75
18420,-3.8716,0.3215,-0.0128,-1054.44,-608.76,-1765.75
18430,-3.8716,0.3049,0.0142,1164.31,-1640.01,-375.06
18440,-3.8715,0.2970,0.0366,-960.69,1813.05,718.75
18450,-3.8715,0.2937,0.0510,-1976.32,688.05,1843.81
18460,-3.8715,0.2885,0.0548,1601.81,-1468.20,1968.81
18470,-3.8715,0.2804,0.0479,929.93,-983.83,390.69
18480,-3.8716,0.2737,0.0286,-101.32,-1874.51,1703.19
18490,-3.8717,0.2742,-0.0071,-960.69,-343.26,-1265.62
18500,-3.8717,0.2809,-0.0483,-898.19,-905.76,171.81
18510,-3.8718,0.2833,-0.0685,-38.82,1812.99,-1547.00
18520,-3.8718,0.2773,-0.0521,273.68,-765.08,-1109.56
18530,-3.8717,0.2688,-0.0072,-491.94,1328.61,-1828.25
18540,-3.8716,0.2629,0.0498,-1585.69,-921.39,-843.81
18550,-3.8713,0.2653,0.1060,1664.31,-1624.51,437.56
18560,-3.8712,0.2766,0.1490,1961.18,1562.99,843.93
18570,-3.8712,0.2965,0.1667,-585.69,-921.39,-640.38
18580,-3.8712,0.3257,0.1587,1961.18,1344.30,-437.19
18590,-3.8712,0.3602,0.1394,1695.56,313.11,-1421.57
18600,-3.8712,0.3890,0.1254,-1882.57,1844.42,1468.99
18610,-3.8712,0.4032,0.1238,1804.93,47.61,625.24
18620,-3.8712,0.4082,0.1322,-382.57,-155.52,422.06
18630,-3.8712,0.4133,0.1481,258.06,922.67,1078.37
18640,-3.8712,0.4203,0.1740,914.31,-1046.08,-1359.13
18650,-3.8711,0.4307,0.2086,1804.93,-1733.58,625.31
18660,-3.8711,0.4465,0.2430,-866.94,-1296.08,-1343.38
18670,-3.8710,0.4663,0.2670,1164.31,-889.77,359.80
18680,-3.8710,0.4888,0.2751,-304.44,-1827.27,1219.24
18690,-3.8710,0.5051,0.2753,-1429.44,-780.33,1156.74
18700,-3.8710,0.5016,0.2761,664.31,-764.65,328.61
18710,-3.8711,0.4744,0.2771,211.18,-655.27,-687.01
18720,-3.8711,0.4346,0.2737,726.81,-530.33,-1483.89
18730,-3.8711,0.3951,0.2648,-366.94,-967.96,1750.49
18740,-3.8711,0.3618,0.2559,-1413.82,1891.36,812.99
18750,-3.8712,0.3381,0.2524,-1679.44,750.67,-93.26
18760,-3.8712,0.3268,0.2528,-710.69,313.11,-733.89
18770,-3.8712,0.3268,0.2545,1836.18,359.99,-937.01
18780,-3.8712,0.3313,0.2605,1836.18,578.74,-812.01
18790,-3.8712,0.3345,0.2714,-1585.69,1344.36,-718.26
18800,-3.8712,0.3348,0.2833,-1179.44,-1265.01,-765.14
18810,-3.8712,0.3324,0.2930,-1132.57,266.24,-718.20
18820,-3.8712,0.3268,0.2982,-1445.07,1500.61,-749.45
18830,-3.8712,0.3195,0.3000,1836.18,-1827.51,-890.08
18840,-3.8712,0.3131,0.3022,898.68,-1593.14,-952.58
18850,-3.8712,0.3083,0.3080,86.18,-1311.89,-780.70
18860,-3.8712,0.3040,0.3179,-523.19,-577.58,-280.70
18870,-3.8711,0.2988,0.3285,-1085.69,688.05,219.36
18880,-3.8711,0.2939,0.3354,-1741.94,-1952.58,625.61
18890,-3.8711,0.2936,0.3419,1633.06,-1061.95,844.36
18900,-3.8711,0.2997,0.3534,1586.18,-233.83,1172.49
18910,-3.8711,0.3115,0.3679,-1632.57,1234.92,1781.92
18920,-3.8711,0.3269,0.3812,-116.94,-905.70,-1593.08
18930,-3.8711,0.3424,0.3907,1851.81,797.49,-999.27
18940,-3.8711,0.3544,0.3959,-163.82,-1983.76,-421.14
18950,-3.8711,0.3611,0.3975,1367.43,-1327.45,-186.77
18960,-3.8711,0.3633,0.3955,-1773.19,-1124.33,-577.39
18970,-3.8711,0.3635,0.3900,-1491.94,-1374.33,-1577.39
18980,-3.8711,0.3641,0.3820,-1460.69,1922.55,844.48
18990,-3.8712,0.3644,0.3726,-1382.57,891.30,-874.27
19000,-3.8712,0.3632,0.3649,-1351.32,-311.83,1735.05
19010,-3.8712,0.3589,0.3632,-1507.57,-1296.20,813.17
19020,-3.8712,0.3501,0.3663,1945.56,-1514.95,688.17
19030,-3.8712,0.3391,0.3706,820.56,-1108.70,1235.05
19040,-3.8712,0.3311,0.3746,-585.69,-561.89,1985.05
19050,-3.8712,0.3273,0.3787,-1616.94,-46.26,-1264.95
19060,-3.8712,0.3265,0.3804,1898.68,469.36,-827.39
19070,-3.8712,0.3257,0.3776,1804.93,688.11,-749.27
19080,-3.8712,0.3225,0.3716,1695.56,328.74,-1108.64
19090,-3.8712,0.3173,0.3654,1289.31,-436.89,-1843.08
19100,-3.8712,0.3130,0.3632,617.43,-1233.76,1656.92
19110,-3.8712,0.3152,0.3662,70.56,-1515.01,1891.30
19120,-3.8712,0.3235,0.3743,351.81,-1124.39,-1452.45
19130,-3.8712,0.3337,0.3865,1414.31,-93.14,-514.95
19140,-3.8711,0.3416,0.3982,-1273.19,1469.36,641.36
19150,-3.8711,0.3440,0.4048,-273.19,-1030.64,1735.11
19160,-3.8711,0.3406,0.4097,39.31,-186.83,-1264.89
19170,-3.8711,0.3293,0.4193,-398.19,438.11,-483.58
19180,-3.8710,0.3136,0.4304,-1835.69,1672.49,688.29
19190,-3.8710,0.2977,0.4329,148.68,-905.64,-1608.58
19200,-3.8710,0.2806,0.4236,-1882.57,-593.20,-327.33
19210,-3.8708,0.2622,0.4097,-70.07,-1780.76,235.17
19220,-3.8708,0.2490,0.3973,1570.56,437.99,110.17
19230,-3.8710,0.2469,0.3881,-116.94,-1140.20,-358.64
19240,-3.8710,0.2543,0.3839,-382.57,1672.30,-702.39
19250,-3.8710,0.2673,0.3903,554.93,1141.11,-608.64
19260,-3.8710,0.2809,0.4088,-1773.19,1953.61,-155.52
19270,-3.8708,0.2920,0.4354,-38.82,328.61,860.17
19280,-3.8708,0.2976,0.4613,1383.06,-265.08,-936.71
19290,-3.8707,0.2946,0.4751,-1898.19,-952.58,1953.98
19300,-3.8706,0.2852,0.4712,1711.18,813.05,329.04
19310,-3.8706,0.2703,0.4564,508.06,313.05,1657.17
19320,-3.8706,0.2509,0.4427,-1398.19,-1577.64,-1921.02
19330,-3.8706,0.2310,0.4309,117.43,672.36,-1780.40
19340,-3.8706,0.2100,0.4164,1570.56,-843.32,-1655.46
19350,-3.8706,0.1884,0.3976,-1116.94,1297.24,1969.54
19360,-3.8706,0.1726,0.3734,117.43,-1109.01,594.48
19370,-3.8707,0.1649,0.3485,-1898.19,-202.82,-1749.33
19380,-3.8708,0.1627,0.3263,1117.43,609.68,-452.45
19390,-3.8708,0.1630,0.3057,836.18,1765.93,1141.24
19400,-3.8710,0.1611,0.2896,867.43,-874.69,-561.95
19410,-3.8710,0.1545,0.2805,633.06,1062.81,-1780.70
19420,-3.8710,0.1465,0.2759,-210.69,-93.51,1266.11
19430,-3.8710,0.1422,0.2695,-1241.94,-687.26,469.24
19440,-3.8711,0.1447,0.2565,-1788.82,-1499.76,-452.64
19450,-3.8711,0.1489,0.2407,-1476.32,828.37,-1827.64
19460,-3.8711,0.1512,0.2303,-929.44,-1187.26,609.80
19470,-3.8712,0.1527,0.2241,-632.57,1484.62,-796.45
19480,-3.8712,0.1531,0.2152,-445.07,687.74,1922.30
19490,-3.8712,0.1492,0.2001,-398.19,-452.88,531.62
19500,-3.8713,0.1399,0.1797,-898.19,1609.62,-1312.13
19510,-3.8713,0.1289,0.1570,1914.31,-999.76,234.68
19520,-3.8715,0.1218,0.1312,508.06,93.99,1344.06
19530,-3.8716,0.1187,0.1025,-398.19,797.06,-1593.51
19540,-3.8717,0.1155,0.0754,-804.44,1125.18,-499.82
19550,-3.8717,0.1111,0.0530,-1210.69,1656.43,703.25
19560,-3.8718,0.1066,0.0364,-1773.19,-1218.57,-1749.94
19570,-3.8718,0.1031,0.0260,1648.68,656.43,109.44
19580,-3.8719,0.1047,0.0221,1211.18,-671.69,-1500.00
19590,-3.8719,0.1104,0.0270,1414.31,-1171.69,1765.62
19600,-3.8719,0.1180,0.0406,-1866.94,-546.69,-1937.50
19610,-3.8719,0.1323,0.0570,-882.57,1203.31,-578.06
19620,-3.8718,0.1489,0.0663,945.56,-702.88,1203.19
19630,-3.8718,0.1591,0.0637,-929.44,484.62,-1609.25
19640,-3.8718,0.1644,0.0513,367.43,156.56,-1156.13
19650,-3.8718,0.1656,0.0315,1054.93,-1437.19,-1328.06
19660,-3.8718,0.1600,0.0083,1211.18,31.56,1750.06
19670,-3.8718,0.1497,-0.0146,492.43,1062.81,281.25
19680,-3.8719,0.1364,-0.0350,-835.69,-1874.76,-1312.56
19690,-3.8719,0.1226,-0.0531,1461.18,-484.13,1515.50
19700,-3.8719,0.1099,-0.0681,-304.44,1203.31,937.38
19710,-3.8719,0.1018,-0.0753,-1929.44,-718.57,624.82
19720,-3.8719,0.1005,-0.0745,1039.31,-1640.44,624.82
19730,-3.8719,0.1021,-0.0686,867.43,-1531.07,1187.32
19740,-3.8719,0.1006,-0.0609,1070.56,-781.07,-1718.93
19750,-3.8719,0.0963,-0.0570,883.06,203.31,-453.25
19760,-3.8718,0.0930,-0.0618,336.18,703.31,640.50
19770,-3.8718,0.0911,-0.0747,-85.69,93.87,953.00
19780,-3.8718,0.0918,-0.0922,-335.69,-1562.38,187.32
19790,-3.8719,0.0978,-0.1090,-241.94,203.25,-1156.43
19800,-3.8719,0.1056,-0.1207,523.68,-1952.94,1656.01
19810,-3.8719,0.1099,-0.1251,1523.68,547.06,1202.88
19820,-3.8719,0.1095,-0.1196,-1929.44,-15.44,1968.44
19830,-3.8718,0.1018,-0.0980,-1976.32,687.68,484.13
19840,-3.8717,0.0857,-0.0656,1039.31,-546.69,390.38
19850,-3.8716,0.0647,-0.0375,-1023.19,-390.50,906.07
19860,-3.8715,0.0446,-0.0223,289.31,-796.75,984.25
19870,-3.8715,0.0308,-0.0238,1711.18,1140.69,-656.31
19880,-3.8715,0.0293,-0.0409,-54.44,953.12,-562.56
19890,-3.8715,0.0436,-0.0671,-241.94,-1234.38,1140.50
19900,-3.8716,0.0736,-0.0995,1586.18,-593.69,1374.82
19910,-3.8717,0.1121,-0.1305,1429.93,-734.25,1577.88
19920,-3.8718,0.1454,-0.1471,-1648.19,-702.94,-1515.93
19930,-3.8718,0.1697,-0.1438,-1382.57,1172.12,609.07
19940,-3.8718,0.1904,-0.1255,1726.81,1594.06,265.32
19950,-3.8718,0.2140,-0.1007,383.06,-62.13,1062.19
19960,-3.8718,0.2408,-0.0795,-601.32,-890.26,-1828.37
19970,-3.8718,0.2670,-0.0732,-1163.82,1828.55,-1468.93
19980,-3.8718,0.2899,-0.0872,-1820.07,-1374.51,1531.07
19990,-3.8719,0.3090,-0.1147,1117.43,844.30,-953.31
20000,-3.8721,0.3253,-0.1483,-445.07,1313.05,-453.37
20010,-3.8722,0.3385,-0.1804,1648.68,1016.24,-156.56
20020,-3.8722,0.3438,-0.2012,-663.82,906.86,468.38
20030,-3.8723,0.3392,-0.2074,8.06,-1749.33,-1828.55
20040,-3.8723,0.3278,-0.2013,-570.07,1453.74,1327.70
20050,-3.8723,0.3146,-0.1851,1961.18,-1765.01,1655.82
20060,-3.8723,0.3038,-0.1633,273.68,313.11,-1297.24
20070,-3.8723,0.3022,-0.1456,-1101.32,-905.70,-344.12
20080,-3.8723,0.3153,-0.1379,-1304.44,1359.92,-47.18
20090,-3.8723,0.3378,-0.1367,367.43,-1655.64,-156.56
20100,-3.8723,0.3594,-0.1428,-757.57,-1499.39,-1109.68
20110,-3.8723,0.3762,-0.1576,-1991.94,1719.42,1187.19
20120,-3.8723,0.3922,-0.1686,164.31,-171.14,62.13
20130,-3.8723,0.4102,-0.1603,-1788.82,-1577.39,484.01
20140,-3.8723,0.4255,-0.1281,508.06,-514.83,-859.74
20150,-3.8722,0.4399,-0.0820,-1523.19,-389.83,-390.93
20160,-3.8719,0.4573,-0.0365,320.56,1500.85,1249.82
20170,-3.8718,0.4669,0.0083,-1460.69,-671.02,-47.00
20180,-3.8716,0.4606,0.0544,-226.32,1063.35,-1687.50
20190,-3.8715,0.4497,0.0903,-1038.82,-1030.40,-578.06
20200,-3.8713,0.4399,0.1067,1570.56,-436.65,-546.75
20210,-3.8712,0.4222,0.1014,320.56,1657.10,1781.43
20220,-3.8712,0.4009,0.0718,-1945.07,985.17,1687.68
20230,-3.8712,0.3910,0.0310,-679.44,1188.23,156.37
20240,-3.8713,0.3942,0.0060,-1945.07,-30.52,-1234.38
20250,-3.8713,0.4019,0.0094,-1538.82,766.36,1968.75
20260,-3.8713,0.4072,0.0343,-554.44,1203.86,-1968.75
20270,-3.8713,0.4122,0.0671,133.06,391.42,-890.56
20280,-3.8712,0.4241,0.0913,773.68,594.54,609.50
20290,-3.8712,0.4475,0.1023,-1710.69,-311.71,-1906.13
20300,-3.8712,0.4806,0.1121,1289.31,1094.60,-890.44
20310,-3.8712,0.5144,0.1262,1523.68,-1655.33,-452.94
20320,-3.8712,0.5459,0.1393,1851.81,157.23,-531.01
20330,-3.8712,0.5729,0.1455,1883.06,1829.16,-687.26
20340,-3.8712,0.5874,0.1459,1336.18,-1373.90,-749.76
20350,-3.8712,0.5862,0.1487,-804.44,-1327.03,-718.51
20360,-3.8711,0.5707,0.1620,-960.69,-967.65,31.49
20370,-3.8711,0.5448,0.1818,1054.93,735.47,1672.18
20380,-3.8711,0.5164,0.1964,1742.43,-733.34,-468.44
20390,-3.8710,0.4926,0.2015,-1898.19,1141.60,1250.37
20400,-3.8710,0.4745,0.2024,-945.07,1797.79,-1515.26
20410,-3.8710,0.4618,0.2030,742.43,1907.17,-905.88
20420,-3.8710,0.4513,0.2037,-882.57,1985.23,-796.51
20430,-3.8710,0.4388,0.2012,1773.68,-1921.02,-1687.13
20440,-3.8710,0.4260,0.1918,179.93,1750.85,531.62
20450,-3.8711,0.4192,0.1808,-1460.69,547.67,-1827.76
20460,-3.8712,0.4225,0.1791,1664.31,-858.58,-327.82
20470,-3.8712,0.4338,0.1943,-1913.82,-1077.33,1797.18
20480,-3.8712,0.4460,0.2234,-460.69,875.79,1219.12
20490,-3.8712,0.4526,0.2544,1101.81,594.60,1953.55
20500,-3.8712,0.4492,0.2753,1945.56,563.35,-905.76
20510,-3.8712,0.4369,0.2814,1508.06,-764.77,-405.76
20520,-3.8712,0.4218,0.2788,-70.07,16.42,-718.20
20530,-3.8712,0.4059,0.2799,1992.43,-311.71,-952.64
20540,-3.8712,0.3862,0.2930,-38.82,-171.14,-327.64
20550,-3.8711,0.3613,0.3151,1445.56,1500.73,1297.42
20560,-3.8711,0.3354,0.3328,-1741.94,328.80,-499.39
20570,-3.8710,0.3149,0.3330,-1054.44,-1405.64,1078.74
20580,-3.8710,0.3086,0.3214,320.56,-1374.39,1328.74
20590,-3.8710,0.3221,0.3134,-491.94,1141.17,281.86
20600,-3.8711,0.3553,0.3121,1242.43,109.99,-1858.76
20610,-3.8712,0.4030,0.3147,1492.43,-46.20,-218.20
20620,-3.8712,0.4525,0.3213,-413.82,281.98,1750.61
20630,-3.8712,0.4934,0.3286,1929.93,1125.85,406.86
20640,-3.8713,0.5179,0.3313,-835.69,-1936.58,-77.51
20650,-3.8712,0.5208,0.3292,-1695.07,-1592.77,47.49
20660,-3.8712,0.5033,0.3259,-1335.69,-1858.40,391.24
20670,-3.8712,0.4747,0.3234,429.93,1719.73,813.11
20680,-3.8712,0.4453,0.3214,773.68,1391.54,1563.11
20690,-3.8712,0.4225,0.3165,1008.06,1141.48,-1608.76
20700,-3.8712,0.4128,0.3083,-1913.82,516.42,-952.51
20710,-3.8712,0.4178,0.3033,851.81,-530.46,-452.58
20720,-3.8711,0.4371,0.3076,1492.43,-1171.08,31.80
20730,-3.8711,0.4666,0.3168,-38.82,-624.21,531.80
20740,-3.8711,0.4989,0.3224,-273.19,547.73,1047.49
20750,-3.8711,0.5249,0.3236,-132.57,1266.54,1797.49
20760,-3.8711,0.5343,0.3220,-804.44,1422.85,-1343.14
20770,-3.8711,0.5256,0.3181,398.68,1219.79,-624.39
20780,-3.8711,0.5055,0.3147,-710.69,719.73,-108.76
20790,-3.8710,0.4785,0.3114,711.18,282.23,203.74
20800,-3.8710,0.4485,0.3040,1258.06,-139.71,109.92
20810,-3.8711,0.4224,0.2941,1414.31,-1092.90,-311.95
20820,-3.8711,0.4031,0.2871,-1929.44,1641.42,-202.58
20830,-3.8710,0.3862,0.2861,-398.19,750.73,719.30
20840,-3.8710,0.3666,0.2913,1445.56,625.73,-1796.33
20850,-3.8708,0.3416,0.3019,-1070.07,1281.92,188.05
20860,-3.8708,0.3134,0.3169,-273.19,-1358.76,-1077.58
20870,-3.8707,0.2883,0.3324,117.43,563.11,1984.99
20880,-3.8706,0.2736,0.3441,914.31,-1452.58,625.61
20890,-3.8706,0.2720,0.3505,-976.32,47.36,-1233.70
20900,-3.8705,0.2791,0.3551,-1179.44,859.86,453.80
20910,-3.8705,0.2898,0.3623,-273.19,1453.61,1703.80
20920,-3.8705,0.3021,0.3701,1101.81,-1624.45,-1624.33
20930,-3.8705,0.3164,0.3732,-1320.07,-624.45,-1311.83
20940,-3.8705,0.3284,0.3734,508.06,-233.76,-1358.70
20950,-3.8705,0.3304,0.3783,-1960.69,-202.51,-1624.33
20960,-3.8705,0.3259,0.3854,-1695.07,422.49,1938.23
20970,-3.8705,0.3242,0.3862,1726.81,1328.74,1188.23
20980,-3.8705,0.3278,0.3789,1508.06,1438.11,63.23
20990,-3.8706,0.3346,0.3649,1961.18,500.61,-1874.27
21000,-3.8707,0.3397,0.3507,-1163.82,-1296.26,-296.20
21010,-3.8707,0.3347,0.3401,-507.57,891.24,1219.42
21020,-3.8708,0.3197,0.3282,-1148.19,-468.14,-1405.64
21030,-3.8708,0.2993,0.3130,929.93,-1983.76,63.11
21040,-3.8710,0.2777,0.2946,-1679.44,63.05,1406.86
21050,-3.8711,0.2609,0.2734,-445.07,1703.61,-1671.33
21060,-3.8712,0.2528,0.2529,1398.68,-999.51,-780.76
21070,-3.8712,0.2523,0.2384,367.43,375.49,469.24
21080,-3.8713,0.2574,0.2323,304.93,-1483.89,-1655.82
21090,-3.8713,0.2627,0.2328,961.18,1734.86,750.43
21100,-3.8715,0.2617,0.2338,1633.06,1797.36,-483.95
21110,-3.8715,0.2543,0.2327,1508.06,1922.36,-1515.20
21120,-3.8715,0.2418,0.2301,554.93,1781.74,1875.43
21130,-3.8715,0.2264,0.2219,-1038.82,1453.55,1625.43
21140,-3.8715,0.2128,0.2048,992.43,406.68,1031.68
21150,-3.8716,0.1992,0.1823,-757.57,-1780.88,-46.51
21160,-3.8716,0.1812,0.1608,1508.06,-671.51,-1577.82
21170,-3.8716,0.1615,0.1400,-804.44,578.43,547.18
21180,-3.8717,0.1459,0.1173,679.93,1922.18,-1312.26
21190,-3.8717,0.1362,0.0962,-1320.07,-984.13,1047.06
21200,-3.8718,0.1304,0.0778,1445.56,312.74,-531.07
21210,-3.8718,0.1282,0.0601,695.56,1953.37,1812.62
21220,-3.8718,0.1313,0.0442,414.31,-312.26,500.06
21230,-3.8719,0.1367,0.0347,820.56,1656.49,-499.94
21240,-3.8719,0.1418,0.0341,1508.06,437.74,-1249.94
21250,-3.8719,0.1481,0.0392,-1835.69,359.62,-1171.81
21260,-3.8719,0.1530,0.0436,-1038.82,1015.87,-359.31
21270,-3.8718,0.1544,0.0427,-413.82,1578.37,453.19
21280,-3.8718,0.1578,0.0364,-226.32,1468.99,671.94
21290,-3.8718,0.1674,0.0255,211.18,656.56,93.81
21300,-3.8719,0.1790,0.0110,1429.93,-734.07,-1000.00
21310,-3.8719,0.1844,-0.0050,-1085.69,1406.56,1718.75
21320,-3.8719,0.1819,-0.0200,-382.57,-640.32,468.69
21330,-3.8721,0.1736,-0.0338,-710.69,1437.81,-625.06
21340,-3.8721,0.1616,-0.0465,-1773.19,-327.82,-1218.87
21350,-3.8721,0.1510,-0.0582,695.56,-1952.82,-1672.00
21360,-3.8721,0.1453,-0.0715,-663.82,547.12,1703.00
21370,-3.8721,0.1403,-0.0869,-1398.19,-1156.01,1109.19
21380,-3.8721,0.1318,-0.1023,1961.18,875.24,296.69
21390,-3.8722,0.1249,-0.1160,883.06,-1093.51,-812.74
21400,-3.8722,0.1233,-0.1289,-7.57,1156.43,1937.26
21410,-3.8722,0.1256,-0.1442,-210.69,-499.82,234.07
21420,-3.8723,0.1296,-0.1624,86.18,1547.12,-1562.81
21430,-3.8723,0.1299,-0.1788,601.81,-781.01,671.51
21440,-3.8724,0.1274,-0.1896,633.06,1109.62,-953.49
21450,-3.8724,0.1267,-0.1930,320.56,-265.38,1921.45
21460,-3.8724,0.1270,-0.1893,226.81,-702.88,1265.20
21470,-3.8724,0.1271,-0.1824,258.06,-234.13,874.57
21480,-3.8724,0.1326,-0.1735,273.68,656.49,671.51
21490,-3.8724,0.1522,-0.1597,976.81,1797.12,640.26
21500,-3.8724,0.1892,-0.1414,-507.57,-437.26,359.01
21510,-3.8724,0.2345,-0.1215,226.81,1906.62,93.44
21520,-3.8724,0.2667,-0.1045,-1976.32,453.55,327.88
21530,-3.8724,0.2756,-0.1001,-1851.32,-1374.51,484.13
21540,-3.8724,0.2708,-0.1140,-710.69,-812.01,468.51
21550,-3.8724,0.2644,-0.1343,-1335.69,1406.74,952.88
21560,-3.8724,0.2665,-0.1433,1851.81,-1187.01,-1781.56
21570,-3.8723,0.2820,-0.1324,-1882.57,1656.74,468.44
21580,-3.8722,0.3091,-0.0985,101.81,-952.58,30.94
21590,-3.8721,0.3446,-0.0474,-429.44,-608.83,734.13
21600,-3.8719,0.3849,0.0022,117.43,1938.17,1796.75
21610,-3.8718,0.4237,0.0354,1273.68,281.98,-1812.50
21620,-3.8717,0.4521,0.0497,-1757.57,532.04,1187.56
21630,-3.8717,0.4639,0.0482,1883.06,-1639.77,-1265.56
21640,-3.8717,0.4624,0.0348,-616.94,-1827.27,-1093.69
21650,-3.8717,0.4589,0.0126,-804.44,453.98,-1984.31
21660,-3.8717,0.4626,-0.0129,-1257.57,1610.23,968.75
21670,-3.8717,0.4720,-0.0337,-773.19,-1655.40,312.44
21680,-3.8717,0.4774,-0.0397,429.93,-311.58,156.13
21690,-3.8717,0.4762,-0.0251,1117.43,-1077.21,1124.88
21700,-3.8717,0.4722,0.0034,961.18,782.17,-281.31
21710,-3.8716,0.4653,0.0331,445.56,438.42,-953.12
21720,-3.8715,0.4552,0.0526,-429.44,235.23,-1968.69
21730,-3.8713,0.4419,0.0570,-1726.32,-1264.77,203.19
21740,-3.8713,0.4230,0.0496,570.56,-702.27,1031.31
21750,-3.8713,0.3976,0.0375,-1851.32,-1655.46,562.56
21760,-3.8715,0.3695,0.0256,-1101.32,797.61,-781.19
21770,-3.8715,0.3472,0.0122,-695.07,-718.08,1281.25
21780,-3.8716,0.3373,-0.0033,445.56,1563.17,-359.38
21790,-3.8716,0.3369,-0.0132,-820.07,-421.26,-1468.81
21800,-3.8716,0.3417,-0.0126,-866.94,-1686.89,1546.81
21810,-3.8716,0.3538,-0.0015,-257.57,-1608.76,1265.56
21820,-3.8716,0.3710,0.0201,1289.31,-186.83,1968.69
21830,-3.8716,0.3854,0.0515,-507.57,-1421.20,-671.88
21840,-3.8715,0.3978,0.0900,1336.18,-1405.52,1125.06
21850,-3.8715,0.4093,0.1309,-1070.07,-483.64,-593.63
21860,-3.8713,0.4158,0.1650,398.68,750.79,1265.87
21870,-3.8713,0.4197,0.1770,1226.81,1125.79,1484.68
21880,-3.8715,0.4253,0.1632,1726.81,-1342.96,-93.44
21890,-3.8715,0.4318,0.1354,-1554.44,891.42,672.18
21900,-3.8716,0.4407,0.1100,-726.32,1328.92,593.99
21910,-3.8717,0.4541,0.1067,414.31,-1921.02,1218.93
21920,-3.8718,0.4675,0.1320,-1866.94,1657.10,-671.69
21930,-3.8718,0.4788,0.1741,-148.19,891.48,-1296.63
21940,-3.8718,0.4935,0.2147,1289.31,-1717.83,-905.94
21950,-3.8717,0.5107,0.2434,-820.07,-514.71,78.49
21960,-3.8717,0.5176,0.2535,1383.06,-842.77,594.18
21970,-3.8718,0.5101,0.2350,-1741.94,454.10,-405.76
21980,-3.8718,0.5188,0.1924,1304.93,-1920.90,-1858.95
21990,-3.8719,0.5660,0.1606,-1585.69,625.98,-1718.38
22000,-3.8721,0.6478,0.1605,461.18,563.60,1437.81
22010,-3.8721,0.7424,0.1777,-1070.07,548.10,453.43
22020,-3.8721,0.8041,0.2018,-960.69,-1248.60,1922.18
22030,-3.8719,0.8082,0.2378,-1070.07,1829.65,734.74
22040,-3.8718,0.7660,0.2919,-538.82,-1560.97,1094.18
22050,-3.8717,0.7019,0.3540,-1945.07,1360.84,-1015.08
22060,-3.8715,0.6350,0.4070,1851.81,1313.84,-1733.70
22070,-3.8712,0.5792,0.4489,1289.31,94.97,1782.04
22080,-3.8711,0.5402,0.4779,-1851.32,1454.22,-61.65
22090,-3.8708,0.5098,0.4863,1148.68,1172.91,375.92
22100,-3.8708,0.4766,0.4788,1258.06,-1749.02,-780.33
22110,-3.8707,0.4371,0.4623,1008.06,1282.17,563.42
22120,-3.8707,0.3982,0.4409,-38.82,-827.33,563.35
22130,-3.8708,0.3738,0.4183,-1023.19,438.23,-561.65
22140,-3.8708,0.3750,0.3970,-148.19,1547.55,1032.04
22150,-3.8710,0.4036,0.3816,8.06,-1186.77,1516.36
22160,-3.8711,0.4486,0.3788,-335.69,844.48,1672.61
22170,-3.8712,0.4928,0.3900,1429.93,485.23,-1530.52
22180,-3.8712,0.5248,0.4114,-913.82,1922.79,563.23
22190,-3.8713,0.5372,0.4373,-820.07,657.23,-77.33
22200,-3.8712,0.5297,0.4591,773.68,-30.21,266.42
22210,-3.8712,0.5088,0.4694,-195.07,-1233.40,1391.48
22220,-3.8712,0.4829,0.4678,1133.06,79.10,-1561.58
22230,-3.8712,0.4662,0.4633,1820.56,-124.08,-1327.27
22240,-3.8712,0.4708,0.4661,-320.07,-702.27,-1702.27
22250,-3.8712,0.4952,0.4762,273.68,-342.83,-1780.40
22260,-3.8712,0.5292,0.4852,-601.32,954.04,-1670.96
22270,-3.8712,0.5597,0.4889,-257.57,-1889.65,1532.17
22280,-3.8713,0.5757,0.4904,-351.32,-1420.84,-45.96
22290,-3.8713,0.5752,0.4879,1695.56,-1233.28,-1561.58
22300,-3.8713,0.5593,0.4746,1633.06,-1545.78,1204.04
22310,-3.8715,0.5271,0.4508,-398.19,751.04,-624.08
22320,-3.8715,0.4824,0.4246,-523.19,1704.10,0.85
22330,-3.8717,0.4371,0.4059,1758.06,-1655.33,-217.96
22340,-3.8717,0.3998,0.4086,-38.82,-46.08,547.61
22350,-3.8718,0.3716,0.4363,-820.07,297.61,-421.08
22360,-3.8717,0.3523,0.4792,-429.44,-155.58,625.79
22370,-3.8717,0.3444,0.5374,1101.81,1344.42,-1655.33
22380,-3.8716,0.3450,0.6196,86.18,781.92,407.29
22390,-3.8716,0.3438,0.6990,164.31,-686.83,-451.97
22400,-3.8713,0.3483,0.7406,8.06,1469.42,563.84
22410,-3.8712,0.3618,0.7513,586.18,-1202.45,-1373.60
22420,-3.8711,0.3711,0.7444,-1679.44,172.55,-1498.54
22430,-3.8711,0.3773,0.7299,-491.94,-718.08,-1529.85
22440,-3.8711,0.3817,0.7206,304.93,1422.61,1.40
22450,-3.8712,0.3729,0.7173,867.43,235.11,1454.53
22460,-3.8712,0.3470,0.7168,-257.57,-186.83,173.22
22470,-3.8712,0.3129,0.7179,429.93,-249.33,235.72
22480,-3.8712,0.2811,0.7158,54.93,-108.76,891.97
22490,-3.8712,0.2606,0.7103,-7.57,-374.51,1438.84
22500,-3.8712,0.2554,0.7081,1367.43,-1077.64,1891.97
22510,-3.8712,0.2611,0.7113,695.56,-1358.89,-1514.28
22520,-3.8712,0.2709,0.7140,1429.93,-952.64,-670.53
22530,-3.8712,0.2800,0.7129,-1320.07,-608.89,-76.78
22540,-3.8712,0.2843,0.7069,-148.19,-749.51,-686.16
22550,-3.8712,0.2809,0.6924,398.68,-1515.08,1798.22
22560,-3.8712,0.2678,0.6716,-38.82,625.49,329.47
22570,-3.8713,0.2450,0.6511,-1710.69,1969.24,-1014.34
22580,-3.8713,0.2136,0.6340,-632.57,-655.82,-1983.15
22590,-3.8713,0.1735,0.6172,-648.19,1156.62,1766.85
22600,-3.8713,0.1313,0.5968,-1788.82,-999.69,1626.16
22610,-3.8713,0.1036,0.5751,820.56,390.87,1032.41
22620,-3.8713,0.1033,0.5592,1273.68,1609.56,438.60
22630,-3.8713,0.1254,0.5513,1226.81,-421.69,47.91
22640,-3.8715,0.1512,0.5400,54.93,-1437.26,-748.96
22650,-3.8715,0.1666,0.5219,-632.57,1125.24,-1842.71
22660,-3.8715,0.1711,0.5016,1336.18,-1202.82,1063.48
22670,-3.8716,0.1696,0.4799,1914.31,203.43,-170.90
22680,-3.8716,0.1636,0.4583,1711.18,1422.18,-1358.46
22690,-3.8716,0.1559,0.4391,945.56,-1343.44,1360.23
22700,-3.8716,0.1494,0.4210,-38.82,203.37,235.23
22710,-3.8717,0.1415,0.4041,-866.94,1890.87,-467.96
22720,-3.8717,0.1343,0.3910,-1882.57,-281.01,-936.77
22730,-3.8717,0.1350,0.3843,1195.56,-1952.88,-905.52
22740,-3.8717,0.1470,0.3849,1289.31,1187.74,-124.27
22750,-3.8716,0.1682,0.3877,-1179.44,1265.87,891.36
22760,-3.8716,0.1964,0.3879,1539.31,1625.31,1828.86
22770,-3.8716,0.2245,0.3845,1148.68,1656.62,-1421.14
22780,-3.8716,0.2429,0.3737,742.43,1219.18,-1061.77
22790,-3.8716,0.2484,0.3555,-898.19,-171.45,-1171.20
22800,-3.8716,0.2408,0.3326,-195.07,1500.43,-1718.08
22810,-3.8716,0.2216,0.3077,-1163.82,-1421.45,1344.36
22820,-3.8716,0.1963,0.2821,367.43,-608.95,250.55
22830,-3.8717,0.1754,0.2594,1133.06,109.74,-733.83
22840,-3.8717,0.1681,0.2445,-1538.82,1203.43,-1343.26
22850,-3.8717,0.1758,0.2368,1523.68,-702.82,-1218.32
22860,-3.8717,0.1908,0.2301,-1491.94,-1687.19,-718.32
22870,-3.8717,0.2029,0.2219,429.93,1453.49,-608.95
22880,-3.8717,0.2075,0.2113,1976.81,406.62,-1030.82
22890,-3.8717,0.2058,0.1941,-1429.44,-952.76,-1843.38
22900,-3.8717,0.2007,0.1721,-1648.19,844.12,1281.62
22910,-3.8717,0.1949,0.1508,1695.56,-1968.38,219.06
22920,-3.8718,0.1898,0.1287,961.18,-702.76,-1046.63
22930,-3.8718,0.1829,0.1058,304.93,469.12,1531.49
22940,-3.8719,0.1705,0.0836,-585.69,1547.18,-265.44
22950,-3.8719,0.1520,0.0605,1836.18,-1296.57,1718.87
22960,-3.8721,0.1307,0.0387,-538.82,-249.76,-171.81
22970,-3.8721,0.1139,0.0227,742.43,953.37,-1734.31
22980,-3.8721,0.1079,0.0134,-1413.82,-1093.57,937.50
22990,-3.8722,0.1127,0.0076,1820.56,1718.93,-406.25
23000,-3.8722,0.1260,0.0011,-1570.07,968.93,1593.75
23010,-3.8723,0.1537,-0.0096,133.06,140.87,-1546.88
23020,-3.8724,0.1940,-0.0233,-320.07,-1234.13,-109.44
23030,-3.8724,0.2299,-0.0361,836.18,1015.99,-1406.31
23040,-3.8724,0.2529,-0.0546,1429.93,-624.57,999.88
23050,-3.8726,0.2692,-0.0841,383.06,1016.11,-484.50
23060,-3.8726,0.2783,-0.1166,-1538.82,1234.86,-672.06
23070,-3.8726,0.2749,-0.1427,-366.94,1078.61,-437.74
23080,-3.8726,0.2622,-0.1583,-804.44,1734.86,-281.56
23090,-3.8724,0.2471,-0.1594,1570.56,-265.14,874.63
23100,-3.8724,0.2322,-0.1503,-366.94,-405.82,-875.37
23110,-3.8723,0.2217,-0.1428,1726.81,766.05,1890.32
23120,-3.8722,0.2170,-0.1377,383.06,1719.18,202.82
23130,-3.8722,0.2183,-0.1298,-210.69,-1624.63,999.69
23140,-3.8722,0.2324,-0.1260,-54.44,-609.01,874.69
23150,-3.8722,0.2617,-0.1361,1758.06,-124.57,265.32
23160,-3.8723,0.2933,-0.1555,1508.06,-1421.39,-734.68
23170,-3.8723,0.3134,-0.1718,1554.93,94.30,1796.57
23180,-3.8724,0.3208,-0.1798,117.43,-1983.76,-78.49
23190,-3.8724,0.3190,-0.1798,1070.56,984.99,-750.37
23200,-3.8723,0.3134,-0.1741,836.18,984.99,530.88
23210,-3.8723,0.3063,-0.1605,117.43,1719.36,-1703.49
23220,-3.8723,0.2954,-0.1384,-788.82,-546.33,-422.24
