timestamp_ms,ax,ay,az,gx,gy,gz
0,-3.8711,0.2473,0.3726,258.06,-155.70,1266.30
10,-3.8711,0.2125,0.3804,-335.69,-312.07,797.55
20,-3.8711,0.1906,0.3934,-788.82,687.87,1172.61
30,-3.8711,0.1897,0.4061,398.68,-1640.26,-1077.39
40,-3.8710,0.2046,0.4199,289.31,-15.26,1688.23
50,-3.8708,0.2330,0.4373,-1804.44,1750.37,969.54
60,-3.8707,0.2742,0.4557,1836.18,-30.82,407.04
70,-3.8707,0.3145,0.4729,-898.19,-1671.39,-124.15
80,-3.8706,0.3339,0.4871,258.06,531.86,-545.96
90,-3.8705,0.3289,0.4955,-1257.57,-1655.64,-1233.46
100,-3.8704,0.3143,0.4974,-1898.19,-577.51,1407.17
110,-3.8704,0.3008,0.4929,242.43,-327.51,-764.71
120,-3.8702,0.2932,0.4847,-1491.94,-905.70,422.79
130,-3.8702,0.2992,0.4792,1539.31,-1952.58,1016.54
140,-3.8702,0.3208,0.4785,-1695.07,1344.30,907.17
150,-3.8702,0.3506,0.4825,1070.56,1250.61,344.67
160,-3.8704,0.3762,0.4919,883.06,1766.30,-639.71
170,-3.8704,0.3896,0.4989,164.31,-1030.52,1860.29
180,-3.8704,0.3937,0.4916,1883.06,-139.89,219.67
190,-3.8705,0.3916,0.4718,-1601.32,-1077.39,-1702.21
200,-3.8706,0.3806,0.4501,-1866.94,391.36,-249.08
210,-3.8706,0.3594,0.4368,726.81,1610.11,1016.48
220,-3.8707,0.3308,0.4309,-1991.94,-93.08,-1233.58
230,-3.8707,0.3004,0.4257,-1648.19,-843.14,1063.29
240,-3.8708,0.2729,0.4207,-1538.82,-1515.08,-186.71
250,-3.8708,0.2495,0.4198,-1054.44,1844.24,-796.08
260,-3.8708,0.2292,0.4224,-54.44,1734.80,-702.33
270,-3.8708,0.2142,0.4226,1351.81,-1937.07,-499.21
280,-3.8708,0.2063,0.4197,-570.07,-1905.88,-702.33
290,-3.8708,0.2043,0.4154,-1585.69,1719.12,-1624.21
300,-3.8708,0.2043,0.4094,-1835.69,1172.24,797.67
310,-3.8710,0.2061,0.4069,-1835.69,406.62,-733.58
320,-3.8710,0.2087,0.4102,-1616.94,78.49,-1577.33
330,-3.8710,0.2100,0.4103,-1273.19,500.37,-1624.21
340,-3.8710,0.2078,0.3983,-1116.94,515.99,-1530.46
350,-3.8710,0.1995,0.3760,-1398.19,-1015.26,1875.73
360,-3.8710,0.1857,0.3524,1539.31,125.37,531.98
370,-3.8711,0.1726,0.3357,-226.32,1109.68,-843.08
380,-3.8711,0.1628,0.3297,-1898.19,-1030.94,-1702.51
390,-3.8711,0.1560,0.3324,851.81,-1796.57,-1999.39
400,-3.8711,0.1527,0.3365,-23.19,-1452.88,-1718.14
410,-3.8711,0.1494,0.3405,-445.07,-921.63,-1093.14
420,-3.8711,0.1445,0.3447,-866.94,-421.63,-452.51
430,-3.8710,0.1387,0.3457,-1491.94,125.24,47.55
440,-3.8711,0.1357,0.3345,1758.06,250.24,-218.08
450,-3.8711,0.1427,0.3082,1383.06,-1187.26,-1655.64
460,-3.8712,0.1538,0.2760,-1726.32,-546.63,-311.95
470,-3.8712,0.1591,0.2478,-304.44,-671.63,16.11
480,-3.8715,0.1559,0.2223,367.43,-280.94,-374.57
490,-3.8716,0.1520,0.1931,-38.82,453.37,-1452.70
500,-3.8717,0.1570,0.1649,-538.82,718.99,1265.99
510,-3.8718,0.1671,0.1506,101.81,1109.68,437.81
520,-3.8719,0.1730,0.1545,1398.68,-718.44,890.87
530,-3.8721,0.1726,0.1671,-1851.32,-218.44,-62.26
540,-3.8719,0.1642,0.1746,-1898.19,1390.93,1390.93
550,-3.8719,0.1449,0.1686,1023.68,-1655.94,-640.32
560,-3.8718,0.1204,0.1489,-1445.07,1578.37,437.81
570,-3.8718,0.1012,0.1218,-585.69,-937.32,718.99
580,-3.8718,0.0879,0.0975,961.18,-406.07,875.18
590,-3.8718,0.0698,0.0793,-741.94,484.50,1406.43
600,-3.8718,0.0463,0.0621,945.56,-1843.63,-1734.25
610,-3.8718,0.0293,0.0432,1929.93,-46.81,-734.31
620,-3.8717,0.0251,0.0314,-241.94,1531.25,593.81
630,-3.8717,0.0319,0.0312,-773.19,15.62,1921.94
640,-3.8717,0.0454,0.0331,86.18,0.06,-687.44
650,-3.8716,0.0574,0.0319,1820.56,234.44,875.06
660,-3.8716,0.0643,0.0265,-648.19,78.19,1687.56
670,-3.8716,0.0688,0.0175,242.43,-609.25,1750.00
680,-3.8716,0.0718,0.0071,820.56,-1765.50,1312.50
690,-3.8716,0.0729,-0.0072,1195.56,906.37,328.12
700,-3.8717,0.0740,-0.0264,1336.18,-921.75,-1312.56
710,-3.8717,0.0742,-0.0485,1476.81,625.12,312.44
720,-3.8718,0.0680,-0.0715,1508.06,1797.00,1687.38
730,-3.8719,0.0582,-0.0920,711.18,-1156.13,-640.81
740,-3.8719,0.0579,-0.1073,-538.82,218.81,1281.07
750,-3.8721,0.0687,-0.1201,-585.69,-1734.31,-765.87
760,-3.8721,0.0785,-0.1334,804.93,625.12,968.51
770,-3.8722,0.0791,-0.1477,-1945.07,-1078.00,-1719.06
780,-3.8723,0.0690,-0.1625,-1866.94,1093.87,-594.06
790,-3.8723,0.0522,-0.1763,836.18,-796.75,1171.51
800,-3.8724,0.0352,-0.1880,-1304.44,1437.56,-62.87
810,-3.8724,0.0222,-0.1976,508.06,-62.44,-516.05
820,-3.8724,0.0165,-0.2061,-1148.19,-1296.88,-609.80
830,-3.8724,0.0178,-0.2153,-1882.57,1625.00,-1000.43
840,-3.8724,0.0277,-0.2236,-1710.69,437.50,-1875.43
850,-3.8724,0.0474,-0.2267,-445.07,-625.00,1124.51
860,-3.8724,0.0695,-0.2263,-1929.44,-1015.56,187.01
870,-3.8726,0.0824,-0.2247,898.68,-968.63,-359.86
880,-3.8726,0.0791,-0.2190,-1445.07,-765.50,-78.61
890,-3.8724,0.0658,-0.2083,-1866.94,-31.13,1202.64
900,-3.8724,0.0588,-0.1971,429.93,1343.87,-891.05
910,-3.8723,0.0654,-0.1896,-460.69,-1234.31,905.82
920,-3.8723,0.0780,-0.1848,383.06,-265.50,-1937.93
930,-3.8723,0.0887,-0.1807,1992.43,343.87,-1328.49
940,-3.8723,0.0979,-0.1732,-632.57,875.12,-578.49
950,-3.8722,0.1062,-0.1577,539.31,1828.31,796.51
960,-3.8722,0.1113,-0.1385,1601.81,-187.32,-1047.24
970,-3.8721,0.1191,-0.1265,-1741.94,-1734.19,1562.19
980,-3.8721,0.1360,-0.1245,-741.94,-187.32,-125.31
990,-3.8719,0.1576,-0.1273,1414.31,62.74,1202.88
1000,-3.8719,0.1801,-0.1316,179.93,-296.57,1265.32
1010,-3.8719,0.2017,-0.1406,-945.07,-843.44,546.57
1020,-3.8721,0.2168,-0.1521,1820.56,-1999.63,-406.56
1030,-3.8721,0.2196,-0.1527,-241.94,531.62,-1000.31
1040,-3.8721,0.2128,-0.1388,117.43,453.55,-515.93
1050,-3.8719,0.2035,-0.1160,-757.57,-1765.26,1640.32
1060,-3.8718,0.1931,-0.0889,-1945.07,1156.62,1218.51
1070,-3.8717,0.1788,-0.0647,726.81,625.37,1390.44
1080,-3.8716,0.1681,-0.0479,-1101.32,-280.94,1484.19
1090,-3.8715,0.1760,-0.0383,1523.68,1875.31,531.13
1100,-3.8715,0.2107,-0.0403,-1460.69,-905.94,1453.00
1110,-3.8715,0.2661,-0.0536,-1023.19,-1155.88,312.38
1120,-3.8716,0.3257,-0.0690,-1929.44,1141.11,1749.88
1130,-3.8717,0.3730,-0.0770,1695.56,-827.51,-593.93
1140,-3.8717,0.3915,-0.0707,-241.94,-1858.70,-734.56
1150,-3.8716,0.3699,-0.0481,-1882.57,-1046.14,1515.44
1160,-3.8715,0.3174,-0.0143,-648.19,1844.42,1421.75
1170,-3.8713,0.2560,0.0208,633.06,-1827.51,1890.56
1180,-3.8712,0.2117,0.0483,773.68,-1343.26,1968.75
1190,-3.8711,0.2031,0.0630,-898.19,-1812.13,1296.94
1200,-3.8711,0.2252,0.0631,-1991.94,62.87,-703.00
1210,-3.8711,0.2601,0.0504,836.18,78.55,-624.88
1220,-3.8711,0.2982,0.0276,1304.93,-1546.39,1390.69
1230,-3.8712,0.3286,0.0006,-1820.07,-468.20,1984.38
1240,-3.8713,0.3362,-0.0198,-1929.44,78.74,-1750.00
1250,-3.8715,0.3217,-0.0253,-960.69,1469.36,-828.19
1260,-3.8715,0.2975,-0.0187,1179.93,766.24,1656.19
1270,-3.8715,0.2744,-0.0061,-1913.82,1609.92,-1890.69
1280,-3.8713,0.2588,0.0109,-866.94,-780.76,124.94
1290,-3.8713,0.2517,0.0328,1133.06,1391.11,-1046.88
1300,-3.8712,0.2501,0.0582,226.81,203.61,1812.56
1310,-3.8711,0.2490,0.0785,23.68,-546.39,187.56
1320,-3.8711,0.2437,0.0859,-116.94,-1952.70,1312.62
1330,-3.8711,0.2349,0.0784,-804.44,-999.57,312.62
1340,-3.8712,0.2317,0.0612,-1929.44,-1968.32,1375.12
1350,-3.8713,0.2384,0.0454,1664.31,-171.45,812.56
1360,-3.8716,0.2533,0.0380,-1476.32,1812.93,-921.81
1370,-3.8717,0.2792,0.0405,429.93,859.86,1562.56
1380,-3.8718,0.3184,0.0529,-257.57,1187.99,1531.31
1390,-3.8719,0.3691,0.0771,758.06,-1233.76,-421.81
1400,-3.8718,0.4258,0.1117,-741.94,1875.67,375.12
1410,-3.8717,0.4777,0.1521,-1491.94,-1702.33,140.81
1420,-3.8716,0.5088,0.1919,1148.68,-530.33,1625.24
1430,-3.8715,0.5134,0.2241,1133.06,563.48,-655.88
1440,-3.8712,0.5000,0.2446,1726.81,688.48,141.05
1450,-3.8712,0.4808,0.2511,8.06,-686.52,-858.95
1460,-3.8711,0.4679,0.2469,1554.93,141.54,812.99
1470,-3.8711,0.4662,0.2404,-101.32,-389.77,-1780.82
1480,-3.8711,0.4691,0.2380,-320.07,-1233.52,-687.07
1490,-3.8711,0.4619,0.2400,54.93,-1530.33,-124.57
1500,-3.8710,0.4353,0.2430,-866.94,-1280.40,31.68
1510,-3.8710,0.3983,0.2499,-273.19,-889.83,109.80
1520,-3.8710,0.3685,0.2703,-1007.57,-14.89,984.80
1530,-3.8710,0.3496,0.3060,-820.07,-1405.58,-546.39
1540,-3.8708,0.3397,0.3394,758.06,-827.45,-390.08
1550,-3.8706,0.3413,0.3535,-507.57,-561.89,0.61
1560,-3.8706,0.3430,0.3491,-304.44,1250.61,-1514.95
1570,-3.8706,0.3302,0.3319,-85.69,688.11,-1999.33
1580,-3.8707,0.3076,0.3096,-1726.32,-1515.01,-968.14
1590,-3.8708,0.2881,0.2938,-616.94,-374.45,-1186.95
1600,-3.8710,0.2817,0.2880,883.06,1609.92,-1218.20
1610,-3.8711,0.2969,0.2909,70.56,859.92,-15.08
1620,-3.8711,0.3329,0.3075,-1991.94,1234.92,-1140.08
1630,-3.8711,0.3773,0.3396,-1382.57,-640.01,-702.58
1640,-3.8710,0.4158,0.3795,304.93,-530.52,875.61
1650,-3.8710,0.4409,0.4165,1226.81,578.92,-1327.39
1660,-3.8710,0.4501,0.4457,445.56,1313.35,-77.33
1670,-3.8708,0.4420,0.4631,1617.43,1047.73,250.85
1680,-3.8710,0.4215,0.4622,586.18,-717.90,-327.27
1690,-3.8710,0.3995,0.4480,1961.18,-842.96,-1452.27
1700,-3.8710,0.3872,0.4371,-851.32,1344.48,1328.98
1710,-3.8710,0.3910,0.4404,1570.56,-46.14,641.42
1720,-3.8710,0.4070,0.4591,-1945.07,375.73,922.73
1730,-3.8710,0.4235,0.4872,101.81,-1233.58,-1921.02
1740,-3.8710,0.4320,0.5167,-1788.82,-1639.83,-170.96
1750,-3.8708,0.4323,0.5454,-695.07,-1858.58,1875.98
1760,-3.8707,0.4286,0.5703,-663.82,1813.29,219.79
1770,-3.8707,0.4304,0.5823,-1132.57,1000.79,-1186.40
1780,-3.8706,0.4362,0.5780,-898.19,-1467.96,516.72
1790,-3.8706,0.4268,0.5632,-163.82,1985.17,688.60
1800,-3.8707,0.3900,0.5426,-1366.94,94.54,-45.78
1810,-3.8707,0.3309,0.5167,1929.93,1453.86,-983.34
1820,-3.8707,0.2664,0.4879,-1632.57,-1858.76,-1858.40
1830,-3.8707,0.2146,0.4629,-1898.19,-1546.39,1141.54
1840,-3.8707,0.1837,0.4491,-523.19,-749.63,110.23
1850,-3.8708,0.1722,0.4493,-476.32,1484.68,-296.02
1860,-3.8707,0.1766,0.4618,-1945.07,1515.93,766.48
1870,-3.8707,0.1892,0.4811,-1382.57,-890.32,-1030.40
1880,-3.8706,0.2035,0.4983,226.81,1578.49,1063.42
1890,-3.8706,0.2208,0.5070,-1945.07,-218.38,-1311.58
1900,-3.8706,0.2366,0.5065,273.68,891.05,-358.40
1910,-3.8706,0.2397,0.4972,-1710.69,828.55,-420.90
1920,-3.8706,0.2299,0.4824,-1304.44,-358.95,-1436.58
1930,-3.8706,0.2117,0.4669,1429.93,1750.43,1235.29
1940,-3.8706,0.1877,0.4529,-898.19,-234.01,422.73
1950,-3.8706,0.1610,0.4409,39.31,1969.12,141.48
1960,-3.8706,0.1389,0.4332,617.43,437.81,0.85
1970,-3.8707,0.1310,0.4326,1789.31,-546.63,-14.83
1980,-3.8707,0.1394,0.4373,773.68,-624.76,-14.83
1990,-3.8706,0.1622,0.4480,1851.81,-31.01,250.79
2000,-3.8706,0.1940,0.4624,773.68,1344.06,953.98
2010,-3.8706,0.2218,0.4707,836.18,-812.13,1547.73
2020,-3.8706,0.2356,0.4706,398.68,250.43,1360.29
2030,-3.8706,0.2357,0.4673,-1835.69,234.80,438.42
2040,-3.8707,0.2225,0.4624,-1820.07,-187.07,-530.40
2050,-3.8707,0.1979,0.4517,492.43,-812.07,-1546.02
2060,-3.8707,0.1727,0.4348,1336.18,1812.87,1047.73
2070,-3.8708,0.1559,0.4174,-1882.57,-343.44,-546.08
2080,-3.8708,0.1499,0.4031,-38.82,1422.12,1578.92
2090,-3.8710,0.1587,0.3933,-804.44,-406.01,-671.14
2100,-3.8710,0.1777,0.3850,320.56,-1655.94,719.48
2110,-3.8711,0.1954,0.3728,-1241.94,1281.56,1656.98
2120,-3.8712,0.2028,0.3562,1023.68,-280.88,-1702.45
2130,-3.8713,0.1986,0.3390,1961.18,1594.12,-1202.45
2140,-3.8715,0.1873,0.3267,1429.93,-609.01,-358.76
2150,-3.8715,0.1698,0.3232,-23.19,1812.81,1938.11
2160,-3.8715,0.1464,0.3312,1742.43,1375.31,-1765.01
2170,-3.8715,0.1190,0.3477,-1257.57,-1609.13,-249.39
2180,-3.8713,0.0966,0.3597,-757.57,500.18,1750.67
2190,-3.8712,0.0911,0.3608,367.43,-1952.94,0.67
2200,-3.8712,0.1060,0.3517,-335.69,-1812.38,1313.17
2210,-3.8712,0.1278,0.3367,1570.56,1015.81,1078.80
2220,-3.8713,0.1359,0.3180,367.43,-906.01,-671.26
2230,-3.8713,0.1281,0.2964,1398.68,703.37,1125.61
2240,-3.8715,0.1111,0.2762,398.68,1937.74,-421.33
2250,-3.8715,0.0884,0.2584,-1773.19,-640.44,-1546.39
2260,-3.8715,0.0725,0.2433,-679.44,1078.25,1641.11
2270,-3.8715,0.0732,0.2347,1289.31,-859.25,1000.43
2280,-3.8715,0.0835,0.2314,1383.06,-1953.00,437.93
2290,-3.8715,0.0955,0.2286,-1304.44,1625.12,47.30
2300,-3.8716,0.1045,0.2285,226.81,1265.81,-343.32
2310,-3.8716,0.1062,0.2275,1383.06,1250.18,-1140.20
2320,-3.8716,0.1036,0.2184,1601.81,1125.18,1672.30
2330,-3.8716,0.0977,0.2036,1273.68,-46.69,15.99
2340,-3.8717,0.0844,0.1887,508.06,-1937.32,1906.62
2350,-3.8718,0.0643,0.1742,-1195.07,156.37,-109.01
2360,-3.8718,0.0433,0.1560,242.43,-1703.00,-1890.32
2370,-3.8719,0.0293,0.1310,1554.93,-31.19,-15.38
2380,-3.8719,0.0271,0.1047,-241.94,765.62,1172.12
2390,-3.8721,0.0347,0.0817,-523.19,1406.25,-1984.19
2400,-3.8722,0.0459,0.0594,445.56,-1546.81,-1156.13
2410,-3.8722,0.0609,0.0393,1883.06,-390.56,109.44
2420,-3.8723,0.0800,0.0245,-195.07,1031.31,1968.81
2430,-3.8723,0.0944,0.0112,-1757.57,-859.25,171.88
2440,-3.8724,0.0962,-0.0054,86.18,1437.68,-1234.38
2450,-3.8724,0.0851,-0.0240,320.56,-687.32,1984.31
2460,-3.8724,0.0680,-0.0426,-1101.32,922.00,1781.19
2470,-3.8724,0.0552,-0.0604,711.18,-1453.00,1937.38
2480,-3.8724,0.0563,-0.0713,-929.44,265.69,-1703.25
2490,-3.8724,0.0771,-0.0731,-788.82,-1124.94,-1390.81
2500,-3.8724,0.1088,-0.0719,1883.06,-1359.25,-1406.43
2510,-3.8724,0.1359,-0.0746,1929.93,-1202.94,-1812.68
2520,-3.8724,0.1510,-0.0836,1398.68,-1546.63,1562.32
2530,-3.8724,0.1523,-0.0958,-663.82,1297.12,937.32
2540,-3.8724,0.1426,-0.1035,-491.94,-265.38,843.51
2550,-3.8724,0.1268,-0.1031,-1741.94,-1249.76,1609.13
2560,-3.8724,0.1139,-0.0992,242.43,-1202.88,-1062.74
2570,-3.8723,0.1138,-0.0920,-1413.82,-702.94,374.76
2580,-3.8723,0.1296,-0.0796,-1429.44,218.93,1562.32
2590,-3.8723,0.1620,-0.0641,601.81,1812.74,-1781.43
2600,-3.8723,0.2069,-0.0496,742.43,-202.82,-1734.56
2610,-3.8723,0.2506,-0.0372,-1507.57,1656.62,1843.63
2620,-3.8723,0.2775,-0.0262,86.18,-765.14,1374.88
2630,-3.8723,0.2806,-0.0171,-476.32,641.11,1171.81
2640,-3.8723,0.2621,-0.0109,-70.07,1812.99,1562.44
2650,-3.8723,0.2327,-0.0087,1554.93,-1390.14,-1562.56
2660,-3.8723,0.2123,-0.0110,1789.31,-1108.95,-578.19
2670,-3.8722,0.2147,-0.0162,-820.07,-1405.88,468.69
2680,-3.8722,0.2357,-0.0229,-507.57,1922.24,1812.44
2690,-3.8722,0.2621,-0.0334,-1820.07,1062.93,-687.56
2700,-3.8721,0.2831,-0.0520,1554.93,-280.76,203.00
2710,-3.8721,0.2955,-0.0778,242.43,1344.30,328.00
2720,-3.8722,0.3000,-0.1007,1836.18,-1952.58,-468.93
2730,-3.8722,0.2936,-0.1232,-1585.69,-890.08,1984.13
2740,-3.8722,0.2845,-0.1440,1586.18,234.92,796.63
2750,-3.8722,0.2849,-0.1577,429.93,1563.05,312.19
2760,-3.8722,0.2891,-0.1709,476.81,-186.95,312.13
2770,-3.8722,0.2861,-0.1798,1008.06,-1874.45,937.13
2780,-3.8722,0.2715,-0.1719,633.06,984.92,-1031.62
2790,-3.8721,0.2491,-0.1476,-1241.94,-1999.51,-828.49
2800,-3.8718,0.2333,-0.1211,-101.32,1109.80,999.69
2810,-3.8717,0.2394,-0.1016,1867.43,500.43,-1562.74
2820,-3.8716,0.2689,-0.0939,-1351.32,-999.57,-1968.99
2830,-3.8715,0.3138,-0.0889,-1570.07,-15.14,656.01
2840,-3.8715,0.3579,-0.0736,179.93,625.61,-922.06
2850,-3.8713,0.3881,-0.0509,1820.56,-1421.20,1265.44
2860,-3.8713,0.4099,-0.0265,1679.93,1485.11,-593.87
2870,-3.8712,0.4269,-0.0029,476.81,610.17,1421.81
2880,-3.8712,0.4349,0.0208,-1351.32,-374.21,-500.06
2890,-3.8711,0.4302,0.0452,-320.07,-1342.96,1468.75
2900,-3.8711,0.4138,0.0652,-929.44,1782.04,-1062.44
2910,-3.8711,0.3921,0.0741,976.81,344.54,-468.63
2920,-3.8711,0.3755,0.0668,-1804.44,1485.11,-749.88
2930,-3.8711,0.3707,0.0498,70.56,547.61,-1078.00
2940,-3.8711,0.3663,0.0416,-538.82,-1624.33,-1234.31
2950,-3.8711,0.3500,0.0499,-1101.32,1328.80,-1390.56
2960,-3.8711,0.3312,0.0686,804.93,-1608.70,-828.06
2970,-3.8710,0.3250,0.0876,-1601.32,781.86,875.12
2980,-3.8710,0.3340,0.1010,1601.81,-780.64,-1812.38
2990,-3.8710,0.3557,0.1095,-1241.94,922.49,1828.31
3000,-3.8710,0.3835,0.1172,1539.31,-1983.70,437.68
3010,-3.8711,0.4089,0.1254,1101.81,-999.27,-1202.94
3020,-3.8711,0.4302,0.1288,351.81,47.67,1187.74
3030,-3.8712,0.4469,0.1222,-929.44,485.17,-609.13
3040,-3.8712,0.4562,0.1110,1211.18,-358.52,968.93
3050,-3.8713,0.4570,0.0975,-1601.32,-1796.02,-1812.32
3060,-3.8713,0.4481,0.0862,-1491.94,485.23,640.81
3070,-3.8713,0.4266,0.0929,1367.43,-967.90,1375.12
3080,-3.8712,0.3959,0.1216,-1382.57,-108.58,172.00
3090,-3.8712,0.3628,0.1575,-1320.07,-436.77,-187.32
3100,-3.8711,0.3358,0.1881,-1554.44,156.92,-1077.82
3110,-3.8710,0.3223,0.2098,-1007.57,78.74,1094.12
3120,-3.8710,0.3273,0.2188,1258.06,-1140.01,-1827.76
3130,-3.8710,0.3488,0.2184,1898.68,0.61,-1749.57
3140,-3.8710,0.3749,0.2197,648.68,-46.20,1515.99
3150,-3.8710,0.3959,0.2272,-7.57,125.67,406.68
3160,-3.8711,0.4100,0.2366,-1320.07,1078.86,-405.82
3170,-3.8711,0.4194,0.2437,492.43,-1717.96,-1093.32
3180,-3.8711,0.4287,0.2507,1695.56,-811.71,-1749.57
3190,-3.8711,0.4418,0.2599,-1116.94,94.54,1734.86
3200,-3.8711,0.4606,0.2678,554.93,1266.48,1125.49
3210,-3.8711,0.4883,0.2859,-1038.82,-1717.90,1234.86
3220,-3.8711,0.5160,0.3237,-1491.94,594.67,-1077.58
3230,-3.8710,0.5293,0.3655,-1945.07,1438.48,-1936.89
3240,-3.8708,0.5260,0.3944,-241.94,-1217.77,-1702.45
3250,-3.8707,0.5107,0.4060,-663.82,-1514.65,-1811.77
3260,-3.8706,0.4897,0.4048,1383.06,-30.27,766.36
3270,-3.8706,0.4702,0.4001,-1304.44,-186.58,-1936.77
3280,-3.8706,0.4554,0.3959,195.56,-780.33,-1389.89
3290,-3.8706,0.4441,0.3927,-1695.07,-1327.27,-921.14
3300,-3.8706,0.4326,0.3937,851.81,-1733.52,-577.39
3310,-3.8706,0.4193,0.3955,-616.94,-1608.58,-889.89
3320,-3.8706,0.4067,0.3936,1679.93,-1374.21,1781.98
3330,-3.8707,0.3940,0.3920,70.56,-1624.21,-327.39
3340,-3.8707,0.3761,0.3966,-1554.44,-1827.39,1110.11
3350,-3.8708,0.3512,0.4012,148.68,-1233.64,-1155.52
3360,-3.8708,0.3252,0.3984,961.18,-639.95,1610.11
3370,-3.8708,0.2998,0.3899,1633.06,-999.39,141.36
3380,-3.8710,0.2760,0.3771,-1616.94,1906.80,1594.48
3390,-3.8711,0.2546,0.3580,-663.82,266.11,-1639.89
3400,-3.8712,0.2344,0.3326,601.81,1828.61,-1483.70
3410,-3.8713,0.2180,0.3091,-1991.94,-1421.45,-936.89
3420,-3.8713,0.2130,0.2998,-85.69,-437.13,1813.05
3430,-3.8713,0.2236,0.3087,-726.32,-1624.63,-1061.95
3440,-3.8712,0.2521,0.3344,633.06,-483.95,1469.30
3450,-3.8711,0.2970,0.3773,273.68,-1202.64,1078.74
3460,-3.8710,0.3488,0.4348,-1976.32,297.42,1891.36
3470,-3.8708,0.3947,0.4894,648.68,-343.08,-608.58
3480,-3.8706,0.4272,0.5215,-1476.32,-1358.64,657.17
3490,-3.8705,0.4421,0.5269,-1304.44,-1249.21,469.73
3500,-3.8705,0.4349,0.5132,601.81,-561.65,-1624.02
3510,-3.8705,0.4071,0.4907,-320.07,1688.29,-1061.52
3520,-3.8705,0.3690,0.4642,117.43,-1186.71,-1249.08
3530,-3.8705,0.3329,0.4393,-757.57,-577.45,-1671.02
3540,-3.8705,0.3079,0.4248,-1382.57,234.99,1703.98
3550,-3.8705,0.2981,0.4236,-585.69,-1624.45,969.54
3560,-3.8705,0.3038,0.4364,-1835.69,-1780.70,219.54
3570,-3.8706,0.3221,0.4608,-1101.32,-140.08,-311.71
3580,-3.8705,0.3444,0.4836,1242.43,-1015.01,141.48
3590,-3.8705,0.3589,0.4933,86.18,1906.92,1172.79
3600,-3.8705,0.3558,0.4863,1945.56,-858.70,1344.67
3610,-3.8705,0.3348,0.4642,1554.93,-1749.33,141.54
3620,-3.8706,0.3079,0.4347,-1132.57,-577.51,1703.98
3630,-3.8707,0.2863,0.4041,-585.69,-358.83,-1717.96
3640,-3.8708,0.2733,0.3788,648.68,-280.70,-1280.52
3650,-3.8710,0.2717,0.3647,-1007.57,484.86,-358.64
3660,-3.8710,0.2791,0.3605,-1210.69,-1312.01,1172.55
3670,-3.8711,0.2845,0.3643,-273.19,-1858.89,-764.95
3680,-3.8711,0.2787,0.3733,429.93,-1374.45,1938.17
3690,-3.8711,0.2615,0.3794,-320.07,-218.26,1328.80
3700,-3.8711,0.2411,0.3809,1476.81,562.99,1078.86
3710,-3.8711,0.2247,0.3832,-1132.57,750.43,1578.86
3720,-3.8711,0.2174,0.3846,773.68,1047.30,-1311.77
3730,-3.8711,0.2216,0.3773,-163.82,1234.74,-858.64
3740,-3.8711,0.2316,0.3624,367.43,297.30,-1546.14
3750,-3.8711,0.2367,0.3440,1648.68,-1608.95,844.42
3760,-3.8712,0.2318,0.3226,-1695.07,31.68,-1046.20
3770,-3.8712,0.2192,0.3005,1679.93,1297.30,906.86
3780,-3.8713,0.2008,0.2769,70.56,-1530.82,-1390.08
3790,-3.8713,0.1783,0.2521,1711.18,-562.13,453.61
3800,-3.8715,0.1570,0.2307,-1163.82,265.93,-1655.76
3810,-3.8715,0.1425,0.2133,101.81,1531.56,266.05
3820,-3.8716,0.1328,0.1984,-1757.57,-702.88,-1577.76
3830,-3.8716,0.1243,0.1808,1008.06,1390.87,609.74
3840,-3.8717,0.1168,0.1553,-85.69,-859.19,-1546.57
3850,-3.8718,0.1077,0.1252,-1038.82,-124.82,-437.26
3860,-3.8719,0.0958,0.0948,1789.31,31.43,-31.01
3870,-3.8719,0.0835,0.0625,273.68,140.81,328.31
3880,-3.8721,0.0789,0.0305,-1304.44,0.12,609.50
3890,-3.8722,0.1013,0.0139,-1898.19,-93.63,1046.88
3900,-3.8723,0.1682,0.0228,976.81,1781.43,-1468.75
3910,-3.8723,0.2698,0.0504,1539.31,-1077.82,1484.38
3920,-3.8723,0.3624,0.0793,-1460.69,-1546.39,1890.69
3930,-3.8723,0.3995,0.0950,-1601.32,-1843.08,-1109.25
3940,-3.8722,0.3668,0.0923,-851.32,156.98,47.06
3950,-3.8722,0.2898,0.0756,-1038.82,-186.83,-1687.38
3960,-3.8721,0.2095,0.0520,1101.81,1672.42,1281.37
3970,-3.8721,0.1539,0.0291,-1179.44,-1343.38,-468.69
3980,-3.8719,0.1346,0.0145,-288.82,-281.01,781.25
3990,-3.8719,0.1501,0.0116,1242.43,1859.62,1375.00
4000,-3.8719,0.1897,0.0190,-773.19,1484.62,1546.88
4010,-3.8719,0.2388,0.0316,289.31,-1562.13,1375.00
4020,-3.8719,0.2805,0.0411,-1429.44,47.30,1578.19
4030,-3.8719,0.3020,0.0388,-85.69,1266.11,1796.94
4040,-3.8719,0.2987,0.0208,-1335.69,969.30,1296.94
4050,-3.8721,0.2737,-0.0096,-1757.57,-1343.20,-93.75
4060,-3.8721,0.2371,-0.0446,-960.69,-1233.89,1890.56
4070,-3.8722,0.1995,-0.0748,-1648.19,-1702.70,-15.75
4080,-3.8722,0.1735,-0.0957,1539.31,-1577.76,-1547.06
4090,-3.8722,0.1703,-0.1102,-1788.82,-249.69,1452.88
4100,-3.8722,0.1838,-0.1235,1804.93,1890.93,593.51
4110,-3.8723,0.1984,-0.1367,-460.69,187.81,-765.87
4120,-3.8723,0.2047,-0.1460,1398.68,-1499.63,1796.57
4130,-3.8723,0.1985,-0.1488,-1788.82,1312.87,827.82
4140,-3.8723,0.1826,-0.1486,1414.31,953.49,577.82
4150,-3.8723,0.1676,-0.1522,-616.94,984.68,687.19
4160,-3.8723,0.1614,-0.1617,1461.18,515.93,234.07
4170,-3.8724,0.1637,-0.1771,664.31,-702.82,-1359.74
4180,-3.8724,0.1694,-0.1971,961.18,1328.43,437.13
4190,-3.8726,0.1710,-0.2188,1695.56,-1234.07,-1734.80
4200,-3.8726,0.1652,-0.2365,1898.68,0.31,796.45
4210,-3.8726,0.1549,-0.2441,1148.68,1734.68,390.14
4220,-3.8726,0.1426,-0.2391,-163.82,750.24,624.51
4230,-3.8726,0.1334,-0.2241,-1741.94,1390.87,1390.14
4240,-3.8726,0.1381,-0.2024,1086.18,-687.26,-1344.24
4250,-3.8724,0.1655,-0.1720,1679.93,-1906.01,140.20
4260,-3.8724,0.2180,-0.1332,1195.56,1984.68,1640.26
4270,-3.8724,0.2916,-0.0897,-85.69,-1046.51,-734.68
4280,-3.8723,0.3899,-0.0392,1336.18,516.17,1327.94
4290,-3.8723,0.5061,0.0170,1914.31,-1014.89,-656.37
4300,-3.8722,0.6044,0.0676,789.31,-1827.15,1609.38
4310,-3.8722,0.6633,0.0966,1367.43,657.41,-796.75
4320,-3.8722,0.6873,0.0890,914.31,360.66,-1249.82
4330,-3.8722,0.6711,0.0537,-23.19,-608.09,1703.25
4340,-3.8722,0.6097,0.0159,1914.31,-1123.72,968.81
4350,-3.8722,0.5262,-0.0087,-1945.07,-1967.59,343.75
4360,-3.8722,0.4589,-0.0186,-632.57,-1108.40,406.19
4370,-3.8722,0.4304,-0.0146,-1257.57,1625.85,1437.44
4380,-3.8722,0.4402,-0.0021,-898.19,-1874.21,-1406.31
4390,-3.8722,0.4701,0.0146,351.81,-264.77,-812.56
4400,-3.8722,0.4952,0.0337,179.93,1875.92,-937.50
4410,-3.8722,0.5059,0.0476,-601.32,313.42,-1156.19
4420,-3.8722,0.5022,0.0518,758.06,-1905.27,-437.44
4430,-3.8721,0.4899,0.0463,289.31,-1374.02,656.31
4440,-3.8721,0.4849,0.0342,-1288.82,1922.79,906.31
4450,-3.8721,0.4935,0.0284,-1929.44,375.92,296.94
4460,-3.8722,0.5062,0.0333,-820.07,-358.46,-906.25
4470,-3.8722,0.5172,0.0421,804.93,266.60,-1765.56
4480,-3.8722,0.5266,0.0583,-1788.82,1391.60,-1124.94
4490,-3.8721,0.5350,0.0762,-585.69,-530.27,250.06
4500,-3.8721,0.5472,0.0856,492.43,1751.04,1750.12
4510,-3.8721,0.5574,0.0930,-1945.07,-1045.84,-531.13
4520,-3.8719,0.5558,0.0994,-648.19,-92.71,1203.25
4530,-3.8719,0.5521,0.1038,-851.32,719.79,-656.07
4540,-3.8718,0.5593,0.1157,-1320.07,1282.29,-1874.82
4550,-3.8717,0.5776,0.1349,-398.19,-1186.46,1218.93
4560,-3.8716,0.5989,0.1506,1945.56,1266.72,78.37
4570,-3.8716,0.6089,0.1536,664.31,-717.59,1890.87
4580,-3.8716,0.5996,0.1400,1945.56,-342.59,-1562.26
4590,-3.8716,0.5748,0.1167,758.06,1923.03,-1437.26
4600,-3.8716,0.5427,0.0975,1586.18,-1061.40,-1031.07
4610,-3.8716,0.5095,0.0878,1476.81,485.41,-484.19
4620,-3.8715,0.4811,0.0845,1226.81,-764.65,312.62
4630,-3.8715,0.4663,0.0869,1586.18,-1186.58,1656.37
4640,-3.8715,0.4758,0.1006,-304.44,-874.15,-531.13
4650,-3.8713,0.5166,0.1354,914.31,875.92,937.68
4660,-3.8713,0.5841,0.1929,-1866.94,1329.10,-1968.51
4670,-3.8713,0.6593,0.2592,-1226.32,688.60,-343.38
4680,-3.8712,0.7068,0.3104,398.68,1173.16,1531.74
4690,-3.8712,0.6937,0.3269,-1523.19,-264.28,-1374.45
4700,-3.8712,0.6234,0.3168,804.93,1845.09,-1983.76
4710,-3.8713,0.5256,0.2958,-195.07,548.03,-640.01
4720,-3.8713,0.4434,0.2634,-710.69,1860.35,547.42
4730,-3.8715,0.4106,0.2306,758.06,1719.60,-1187.01
4740,-3.8715,0.4174,0.2139,570.56,1516.42,1469.18
4750,-3.8715,0.4370,0.2209,1429.93,-624.21,672.24
4760,-3.8715,0.4603,0.2512,-54.44,282.04,1125.43
4770,-3.8715,0.4889,0.3003,-1070.07,157.10,-968.26
4780,-3.8713,0.5234,0.3569,-1413.82,-1561.58,-1999.45
4790,-3.8712,0.5564,0.3998,-991.94,1688.48,1188.17
4800,-3.8711,0.5780,0.4187,-773.19,-827.09,31.98
4810,-3.8711,0.5836,0.4187,1992.43,1594.85,1938.29
4820,-3.8711,0.5769,0.4102,-1288.82,1594.85,-1249.21
4830,-3.8711,0.5652,0.4026,1851.81,501.10,-733.58
4840,-3.8711,0.5519,0.4001,351.81,-467.65,-561.77
4850,-3.8711,0.5448,0.4027,-1351.32,-780.21,-827.39
4860,-3.8711,0.5569,0.4119,1742.43,-452.09,-764.89
4870,-3.8711,0.5874,0.4260,-710.69,719.79,-186.71
4880,-3.8710,0.6222,0.4393,-804.44,-1467.65,203.92
4890,-3.8710,0.6517,0.4542,-351.32,235.53,375.85
4900,-3.8710,0.6704,0.4735,-570.07,-1858.15,657.10
4910,-3.8710,0.6685,0.4890,1820.56,610.66,1407.17
4920,-3.8710,0.6412,0.4918,1570.56,-1404.97,-1280.33
4930,-3.8710,0.5936,0.4825,-1913.82,-1045.65,-108.46
4940,-3.8708,0.5339,0.4678,-7.57,1766.72,422.79
4950,-3.8708,0.4741,0.4519,351.81,-123.96,328.98
4960,-3.8710,0.4292,0.4384,695.56,1844.67,-405.40
4970,-3.8710,0.4047,0.4293,-1054.44,110.17,-1577.27
4980,-3.8710,0.3988,0.4220,-195.07,-1046.14,750.79
4990,-3.8711,0.4114,0.4144,-945.07,-1983.64,-1483.58
5000,-3.8711,0.4390,0.4121,664.31,1047.67,63.29
5010,-3.8712,0.4686,0.4187,195.56,750.85,-1999.21
5020,-3.8712,0.4883,0.4314,-7.57,1594.60,578.92
5030,-3.8712,0.4950,0.4491,-1491.94,-780.33,47.67
5040,-3.8712,0.4891,0.4712,-632.57,1485.29,641.48
5050,-3.8712,0.4736,0.4946,-1382.57,313.42,-1936.58
5060,-3.8712,0.4531,0.5126,633.06,-686.58,-61.58
5070,-3.8711,0.4375,0.5199,-1991.94,1610.23,1954.10
5080,-3.8711,0.4309,0.5215,8.06,-1452.27,-733.40
5090,-3.8710,0.4312,0.5330,-835.69,-1249.21,313.48
5100,-3.8710,0.4387,0.5562,-804.44,219.54,-1748.96
5110,-3.8708,0.4492,0.5719,164.31,-811.65,360.41
5120,-3.8708,0.4517,0.5656,1508.06,1203.98,1391.72
5130,-3.8708,0.4382,0.5400,1820.56,391.48,626.10
5140,-3.8710,0.4137,0.5087,101.81,1125.85,-1592.71
5150,-3.8711,0.3893,0.4835,961.18,1110.17,-436.52
5160,-3.8711,0.3787,0.4758,1836.18,1891.36,1375.92
5170,-3.8711,0.3823,0.4875,476.81,906.98,688.42
5180,-3.8711,0.3898,0.5028,945.56,-1593.02,1141.54
5190,-3.8711,0.3965,0.5056,1898.68,360.11,1375.98
5200,-3.8711,0.4009,0.4996,-1241.94,719.48,391.60
5210,-3.8712,0.4004,0.4930,-679.44,-46.14,-936.58
5220,-3.8712,0.3953,0.4913,-741.94,-889.89,-1530.33
5230,-3.8712,0.3873,0.5001,-1398.19,-1108.64,-1827.21
5240,-3.8712,0.3744,0.5189,1586.18,16.36,-1858.40
5250,-3.8712,0.3569,0.5355,-70.07,-1577.45,-827.15
5260,-3.8711,0.3375,0.5361,1695.56,547.55,797.91
5270,-3.8711,0.3141,0.5206,-788.82,625.61,1188.54
5280,-3.8712,0.2908,0.5013,211.18,-1358.76,-139.65
5290,-3.8712,0.2762,0.4899,1226.81,172.42,-1905.27
5300,-3.8712,0.2761,0.4850,-632.57,-1296.39,1079.04
5310,-3.8712,0.2905,0.4825,-648.19,-1921.39,532.17
5320,-3.8713,0.3087,0.4800,1195.56,1766.17,-514.71
5330,-3.8713,0.3160,0.4768,-476.32,1438.05,-1874.08
5340,-3.8713,0.3094,0.4718,461.18,1031.86,1204.04
5350,-3.8713,0.2981,0.4628,-382.57,391.17,891.54
5360,-3.8713,0.2888,0.4493,-1835.69,-765.08,672.73
5370,-3.8715,0.2773,0.4313,976.81,1516.17,-61.65
5380,-3.8715,0.2555,0.4062,-491.94,-796.39,-1827.33
5390,-3.8716,0.2234,0.3721,711.18,0.49,-764.83
5400,-3.8717,0.1891,0.3326,601.81,-374.57,-780.58
5410,-3.8718,0.1622,0.2933,211.18,-1421.51,-1546.26
5420,-3.8719,0.1487,0.2657,773.68,1547.18,-1843.20
5430,-3.8721,0.1453,0.2598,-960.69,-1984.13,-733.89
5440,-3.8721,0.1488,0.2670,-1398.19,1250.24,-1968.26
5450,-3.8721,0.1631,0.2776,-945.07,-1827.88,-1593.26
5460,-3.8719,0.1890,0.2964,883.06,-468.44,141.11
5470,-3.8719,0.2255,0.3241,195.56,1937.87,-1186.95
5480,-3.8718,0.2698,0.3530,867.43,1484.80,-1968.14
5490,-3.8717,0.3093,0.3711,-1460.69,1187.99,1203.80
5500,-3.8717,0.3301,0.3718,-398.19,-499.45,-93.08
5510,-3.8716,0.3297,0.3617,-1741.94,-405.64,1985.05
5520,-3.8716,0.3131,0.3497,-1788.82,-1702.51,-733.70
5530,-3.8715,0.2836,0.3356,86.18,766.24,0.67
5540,-3.8715,0.2483,0.3187,304.93,-1046.33,1531.86
5550,-3.8715,0.2106,0.3116,-210.69,797.30,-77.51
5560,-3.8713,0.1768,0.3143,-1038.82,-109.01,-1733.83
5570,-3.8712,0.1580,0.3164,-1366.94,234.68,859.99
5580,-3.8712,0.1523,0.3057,226.81,500.31,-890.01
5590,-3.8711,0.1512,0.2823,-491.94,-874.76,672.42
5600,-3.8711,0.1447,0.2598,-632.57,140.87,859.92
5610,-3.8712,0.1315,0.2396,-1476.32,1250.24,-983.89
5620,-3.8712,0.1224,0.2175,836.18,-1327.88,94.18
5630,-3.8713,0.1218,0.1886,-320.07,-156.07,625.37
5640,-3.8715,0.1234,0.1556,-398.19,140.81,594.12
5650,-3.8716,0.1208,0.1238,-195.07,-77.94,218.99
5660,-3.8718,0.1115,0.0918,-523.19,-156.07,-140.44
5670,-3.8719,0.0968,0.0583,-1726.32,-249.82,-406.13
5680,-3.8721,0.0844,0.0272,398.68,-531.07,-515.56
5690,-3.8722,0.0831,0.0050,-1195.07,-515.50,-265.62
5700,-3.8722,0.0942,-0.0042,-1351.32,640.75,562.50
5710,-3.8723,0.1156,-0.0002,70.56,-531.07,-1734.44
5720,-3.8723,0.1423,0.0111,-1195.07,-31.07,1156.19
5730,-3.8723,0.1643,0.0253,-1773.19,1422.12,1515.62
5740,-3.8723,0.1726,0.0382,1039.31,-765.32,-640.62
5750,-3.8722,0.1665,0.0487,-1898.19,890.93,-1890.56
5760,-3.8721,0.1526,0.0560,1320.56,-1765.32,890.69
5770,-3.8721,0.1393,0.0579,-460.69,-827.88,-687.44
5780,-3.8719,0.1284,0.0551,1836.18,-593.51,1125.06
5790,-3.8719,0.1188,0.0464,445.56,-952.88,1968.81
5800,-3.8719,0.1116,0.0331,-788.82,1937.68,-1953.06
5810,-3.8719,0.1080,0.0206,-1710.69,234.56,1312.56
5820,-3.8721,0.1139,0.0096,1836.18,-1359.19,-390.62
5830,-3.8721,0.1357,-0.0042,-1413.82,1234.56,1203.12
5840,-3.8722,0.1669,-0.0204,1383.06,-531.01,-1453.19
5850,-3.8723,0.1936,-0.0352,1367.43,1390.93,-46.94
5860,-3.8723,0.2098,-0.0461,789.31,-499.63,-1937.62
5870,-3.8723,0.2142,-0.0554,-1132.57,-1905.88,1406.13
5880,-3.8723,0.2080,-0.0623,-570.07,906.62,1812.38
5890,-3.8723,0.1947,-0.0619,-1366.94,31.62,-953.25
5900,-3.8722,0.1823,-0.0541,929.93,78.49,1124.88
5910,-3.8722,0.1785,-0.0430,-663.82,1078.43,-31.37
5920,-3.8721,0.1866,-0.0325,-1148.19,-1499.69,-1125.12
5930,-3.8719,0.2074,-0.0265,-101.32,-155.94,1062.38
5940,-3.8719,0.2366,-0.0244,-1445.07,609.74,-1687.56
5950,-3.8719,0.2633,-0.0199,-1710.69,875.43,-828.19
5960,-3.8718,0.2760,-0.0106,1711.18,1453.61,593.69
5970,-3.8718,0.2695,-0.0010,-663.82,-1358.89,-1343.81
5980,-3.8717,0.2504,0.0062,-1491.94,-124.51,999.94
5990,-3.8717,0.2299,0.0089,54.93,797.36,-1140.62
6000,-3.8717,0.2158,0.0046,1429.93,1141.05,-156.25
6010,-3.8716,0.2078,-0.0038,-366.94,594.12,46.88
6020,-3.8717,0.2019,-0.0107,-1398.19,-484.01,-796.94
6030,-3.8717,0.2002,-0.0182,1851.81,-1374.63,1359.31
6040,-3.8718,0.2091,-0.0302,1633.06,1672.24,-906.31
6050,-3.8718,0.2279,-0.0391,-1226.32,140.99,624.94
6060,-3.8719,0.2510,-0.0411,1179.93,-999.57,1593.63
6070,-3.8721,0.2748,-0.0391,133.06,-1265.14,-1531.37
6080,-3.8721,0.2924,-0.0333,-820.07,-999.51,265.50
6090,-3.8722,0.2944,-0.0272,1429.93,-265.08,-953.25
6100,-3.8722,0.2830,-0.0237,1695.56,516.17,-1609.44
6110,-3.8722,0.2740,-0.0243,226.81,969.30,1749.94
6120,-3.8722,0.2788,-0.0269,-913.82,891.11,531.19
6130,-3.8723,0.2970,-0.0304,-304.44,562.99,-1156.31
6140,-3.8723,0.3270,-0.0386,-1976.32,109.92,1374.94
6150,-3.8723,0.3646,-0.0504,1867.43,-936.89,31.13
6160,-3.8724,0.4005,-0.0568,-1320.07,1547.55,-843.87
6170,-3.8724,0.4274,-0.0498,-726.32,735.11,-531.37
6180,-3.8723,0.4436,-0.0330,-1288.82,1625.79,656.13
6190,-3.8723,0.4492,-0.0081,789.31,-217.90,-1140.75
6200,-3.8722,0.4424,0.0227,1508.06,-1030.40,-1718.81
6210,-3.8721,0.4226,0.0537,633.06,-1092.90,-1625.00
6220,-3.8719,0.4027,0.0798,-1898.19,-1124.21,-1968.69
6230,-3.8718,0.3986,0.0956,-445.07,-1780.52,1031.37
6240,-3.8718,0.4117,0.0978,-976.32,235.11,-687.32
6250,-3.8717,0.4438,0.0869,711.18,516.42,375.18
6260,-3.8717,0.4989,0.0693,820.56,-874.15,390.75
6270,-3.8717,0.5575,0.0585,-132.57,875.92,234.50
6280,-3.8718,0.5824,0.0596,-632.57,-514.59,-156.19
6290,-3.8718,0.5544,0.0667,-1445.07,-373.90,-593.69
6300,-3.8717,0.4800,0.0737,-1023.19,532.29,1828.25
6310,-3.8716,0.3817,0.0817,1445.56,1438.42,-218.63
6320,-3.8713,0.2906,0.0922,867.43,-1546.14,-1421.75
6330,-3.8711,0.2334,0.0997,1211.18,-202.58,515.75
6340,-3.8710,0.2240,0.1121,1883.06,766.05,937.68
6350,-3.8710,0.2581,0.1404,679.93,-1655.82,-265.44
6360,-3.8708,0.3158,0.1737,1039.31,1969.24,781.49
6370,-3.8710,0.3754,0.1859,429.93,-1765.01,-187.19
6380,-3.8710,0.4238,0.1671,54.93,-202.39,1531.56
6390,-3.8711,0.4589,0.1316,-1741.94,1391.42,1703.43
6400,-3.8712,0.4832,0.0988,-1257.57,844.60,1125.24
6410,-3.8713,0.5043,0.0919,1851.81,641.54,-1921.69
6420,-3.8713,0.5278,0.1237,554.93,-233.40,1343.87
6430,-3.8713,0.5500,0.1720,-429.44,-170.90,1828.31
6440,-3.8713,0.5604,0.2081,-1585.69,-1983.34,-1999.69
6450,-3.8713,0.5546,0.2159,-257.57,-1358.34,1469.12
6460,-3.8713,0.5397,0.2009,-1007.57,-358.34,234.74
6470,-3.8715,0.5283,0.1851,1086.18,1719.79,-1249.63
6480,-3.8715,0.5273,0.1793,-366.94,-311.52,1672.18
6490,-3.8715,0.5342,0.1836,-491.94,-1045.90,1094.06
6500,-3.8715,0.5425,0.1931,383.06,-498.96,734.68
6510,-3.8715,0.5499,0.2096,1445.56,719.79,1250.37
6520,-3.8715,0.5522,0.2374,-1601.32,-1170.84,-1015.26
6530,-3.8713,0.5485,0.2726,-1304.44,-1608.34,1312.93
6540,-3.8712,0.5444,0.3097,-1788.82,-1108.34,109.86
6550,-3.8712,0.5419,0.3461,1695.56,-358.34,-843.20
6560,-3.8711,0.5416,0.3761,1367.43,297.91,1703.80
6570,-3.8711,0.5453,0.3979,1336.18,141.66,-139.89
6580,-3.8710,0.5479,0.4128,1804.93,-1061.46,-1999.27
6590,-3.8710,0.5420,0.4199,-1866.94,844.79,-327.33
6600,-3.8708,0.5243,0.4199,1383.06,1751.04,625.79
6610,-3.8708,0.5002,0.4222,-882.57,1750.98,1078.92
6620,-3.8708,0.4825,0.4382,39.31,-1952.15,1500.79
6630,-3.8708,0.4832,0.4670,1773.68,94.67,-1639.77
6640,-3.8708,0.5034,0.4972,1851.81,-217.83,-358.52
6650,-3.8707,0.5294,0.5178,445.56,-358.40,1000.92
6660,-3.8707,0.5435,0.5211,-226.32,-1717.77,1954.10
6670,-3.8707,0.5385,0.5096,1570.56,-1295.84,1750.98
6680,-3.8707,0.5254,0.5006,929.93,1235.41,532.23
6690,-3.8708,0.5183,0.5077,-741.94,79.10,-670.90
6700,-3.8708,0.5145,0.5295,-1648.19,985.35,-920.90
6710,-3.8708,0.5043,0.5562,1867.43,-217.77,-233.40
6720,-3.8707,0.4846,0.5840,554.93,-811.52,891.66
6730,-3.8707,0.4550,0.6141,-1960.69,-1249.08,-998.90
6740,-3.8706,0.4193,0.6426,-1757.57,-1389.77,-1608.22
6750,-3.8705,0.3848,0.6638,1679.93,-1749.21,-1795.65
6760,-3.8704,0.3550,0.6702,1258.06,969.48,1251.28
6770,-3.8704,0.3285,0.6552,1445.56,1781.92,-1389.34
6780,-3.8704,0.2977,0.6207,-1945.07,-140.01,-1998.78
6790,-3.8705,0.2600,0.5781,-1882.57,-546.33,-170.72
6800,-3.8705,0.2236,0.5419,1289.31,-1999.51,844.85
6810,-3.8706,0.2008,0.5205,633.06,1359.80,-1858.34
6820,-3.8706,0.1951,0.5116,1711.18,-1374.63,782.23
6830,-3.8706,0.1979,0.5079,976.81,1484.74,469.73
6840,-3.8706,0.1979,0.5052,1336.18,1015.99,250.98
6850,-3.8706,0.1927,0.5045,1336.18,672.24,422.85
6860,-3.8706,0.1847,0.5126,679.93,578.49,1797.85
6870,-3.8705,0.1711,0.5266,-351.32,1609.68,219.73
6880,-3.8705,0.1499,0.5272,1914.31,-593.44,-1342.77
6890,-3.8705,0.1298,0.5024,-804.44,-515.38,-45.90
6900,-3.8705,0.1172,0.4587,617.43,312.74,-1170.90
6910,-3.8706,0.1089,0.4120,-991.94,-1281.07,-499.15
6920,-3.8707,0.1071,0.3717,1945.56,734.56,-889.83
6930,-3.8708,0.1138,0.3391,1711.18,-421.69,-1202.45
6940,-3.8710,0.1255,0.3284,-1429.44,-593.57,-358.76
6950,-3.8710,0.1409,0.3590,70.56,-1968.51,-1968.14
6960,-3.8710,0.1560,0.4160,-1960.69,1953.37,-999.33
6970,-3.8708,0.1635,0.4636,-23.19,1250.24,-967.96
6980,-3.8706,0.1554,0.4799,929.93,-655.94,94.60
6990,-3.8706,0.1284,0.4625,-101.32,1422.12,-749.08
7000,-3.8706,0.0912,0.4255,445.56,-796.63,1969.60
7010,-3.8707,0.0640,0.3772,-320.07,-1531.13,1485.17
7020,-3.8708,0.0559,0.3215,195.56,281.37,547.61
7030,-3.8710,0.0608,0.2764,-835.69,1156.31,234.99
7040,-3.8711,0.0756,0.2600,-210.69,-624.94,609.86
7050,-3.8712,0.1072,0.2635,1679.93,1281.37,1344.24
7060,-3.8713,0.1572,0.2709,1726.81,1734.56,-1358.89
7070,-3.8713,0.2139,0.2787,133.06,-1327.82,391.11
7080,-3.8715,0.2640,0.2905,-616.94,-327.76,-952.64
7090,-3.8715,0.2985,0.3054,1804.93,1187.99,-1749.45
7100,-3.8715,0.3180,0.3210,-1788.82,-905.70,1891.17
7110,-3.8715,0.3281,0.3406,711.18,1094.36,-1030.64
7120,-3.8713,0.3175,0.3644,-1991.94,-405.64,1859.99
7130,-3.8712,0.2751,0.3854,648.68,-1358.76,1422.55
7140,-3.8711,0.2136,0.3876,-773.19,1328.61,1000.73
7150,-3.8710,0.1464,0.3711,-648.19,1609.74,391.36
7160,-3.8710,0.0797,0.3469,-1257.57,-499.76,-1577.45
7170,-3.8710,0.0288,0.3170,-1788.82,406.37,-1296.20
7180,-3.8710,0.0054,0.2910,-304.44,578.12,1688.11
7190,-3.8711,0.0125,0.2749,695.56,1250.00,-218.20
7200,-3.8711,0.0518,0.2693,1601.81,-812.50,1625.49
7210,-3.8712,0.1101,0.2712,-1366.94,-1531.19,-905.76
7220,-3.8712,0.1606,0.2688,-1898.19,-1281.07,94.24
7230,-3.8713,0.1903,0.2583,570.56,-1593.44,1531.74
7240,-3.8715,0.1968,0.2440,367.43,1062.87,-562.01
7250,-3.8715,0.1776,0.2288,1195.56,-765.26,1187.93
7260,-3.8716,0.1392,0.2120,-1257.57,1281.56,-1062.07
7270,-3.8716,0.0962,0.1909,1820.56,-859.13,1000.37
7280,-3.8717,0.0634,0.1682,320.56,437.68,-734.01
7290,-3.8717,0.0493,0.1495,117.43,1531.37,1390.93
7300,-3.8718,0.0563,0.1344,-1679.44,-859.31,-952.88
7310,-3.8718,0.0802,0.1241,-788.82,1203.19,437.74
7320,-3.8719,0.1094,0.1221,-1726.32,-109.25,1750.18
7330,-3.8721,0.1342,0.1212,-1991.94,-374.82,-890.44
7340,-3.8721,0.1508,0.1162,1179.93,-484.13,984.56
7350,-3.8722,0.1567,0.1102,-695.07,-1124.76,-531.07
7360,-3.8722,0.1558,0.1102,70.56,-1890.32,-1296.69
7370,-3.8722,0.1570,0.1174,-54.44,-1890.38,-1999.82
7380,-3.8722,0.1680,0.1206,101.81,-968.44,1484.56
7390,-3.8722,0.1851,0.1162,1508.06,-562.19,1500.18
7400,-3.8722,0.1959,0.1107,-304.44,-1124.69,1109.56
7410,-3.8722,0.1951,0.1072,1086.18,-1827.76,422.06
7420,-3.8722,0.1881,0.0990,976.81,1719.12,734.56
7430,-3.8722,0.1794,0.0776,86.18,672.24,-1874.82
7440,-3.8722,0.1665,0.0438,-1023.19,1937.81,-874.88
7450,-3.8722,0.1454,0.0068,1320.56,1609.68,-1484.31
7460,-3.8722,0.1215,-0.0276,-1382.57,875.24,609.38
7470,-3.8723,0.0997,-0.0627,-445.07,468.93,-1796.94
7480,-3.8723,0.0822,-0.0988,773.68,-31.07,140.44
7490,-3.8724,0.0665,-0.1270,-1476.32,-640.50,-1328.37
7500,-3.8724,0.0498,-0.1425,523.68,-249.88,780.94
7510,-3.8726,0.0417,-0.1522,-1616.94,1765.69,-703.43
7520,-3.8726,0.0490,-0.1602,1351.81,515.69,-937.81
7530,-3.8726,0.0656,-0.1619,-1726.32,-499.94,-1140.99
7540,-3.8726,0.0854,-0.1605,398.68,-718.63,-1547.24
7550,-3.8726,0.1021,-0.1597,-1054.44,-546.75,-1781.62
7560,-3.8726,0.1107,-0.1567,1070.56,-437.32,-1781.62
7570,-3.8726,0.1146,-0.1523,-1820.07,-62.32,-1625.37
7580,-3.8726,0.1229,-0.1489,-1320.07,500.18,-1390.93
7590,-3.8726,0.1456,-0.1438,-257.57,937.68,-1328.43
7600,-3.8726,0.1847,-0.1338,-1351.32,1593.99,-1187.81
7610,-3.8726,0.2296,-0.1234,-351.32,-1124.69,-484.68
7620,-3.8724,0.2667,-0.1172,1398.68,203.55,515.38
7630,-3.8724,0.2888,-0.1135,-1851.32,1000.49,1718.51
7640,-3.8724,0.2958,-0.1110,976.81,1469.30,-781.49
7650,-3.8723,0.2908,-0.1115,1867.43,1797.42,827.88
7660,-3.8723,0.2791,-0.1147,1226.81,1734.92,1781.01
7670,-3.8723,0.2666,-0.1211,-273.19,1312.99,1234.13
7680,-3.8724,0.2609,-0.1282,-1866.94,500.49,-156.49
7690,-3.8724,0.2728,-0.1311,1398.68,-405.76,1905.94
7700,-3.8726,0.3140,-0.1334,-1070.07,-780.76,-453.43
7710,-3.8726,0.3783,-0.1331,195.56,-1077.51,-1422.18
7720,-3.8726,0.4386,-0.1228,429.93,-1030.52,-969.06
7730,-3.8726,0.4751,-0.1086,148.68,282.10,-390.87
7740,-3.8724,0.4783,-0.0940,820.56,-1905.33,906.01
7750,-3.8724,0.4353,-0.0726,1226.81,-30.33,-453.37
7760,-3.8723,0.3606,-0.0508,-273.19,-1296.08,-797.06
7770,-3.8722,0.2939,-0.0422,-1835.69,1500.67,-562.62
7780,-3.8721,0.2511,-0.0465,1633.06,-1405.70,-765.75
7790,-3.8719,0.2302,-0.0560,148.68,-1952.64,1203.00
7800,-3.8719,0.2438,-0.0657,1476.81,828.55,1109.25
7810,-3.8719,0.2950,-0.0674,-788.82,-405.82,531.07
7820,-3.8719,0.3679,-0.0533,1773.68,-624.45,656.07
7830,-3.8719,0.4500,-0.0250,-898.19,1172.55,-1937.62
7840,-3.8718,0.5186,0.0143,1601.81,797.73,968.69
7850,-3.8717,0.5438,0.0634,-1616.94,1829.10,1312.50
7860,-3.8716,0.5178,0.1047,1617.43,110.41,-1031.13
7870,-3.8713,0.4546,0.1229,-1710.69,1407.23,1062.68
7880,-3.8712,0.3778,0.1202,-1804.44,-264.77,1343.93
7890,-3.8712,0.3162,0.1008,367.43,-608.64,-1390.44
7900,-3.8712,0.2870,0.0758,476.81,906.86,1500.18
7910,-3.8713,0.2931,0.0570,742.43,1703.67,-1171.75
7920,-3.8715,0.3317,0.0420,1523.68,-702.58,-406.19
7930,-3.8715,0.3848,0.0342,-1538.82,1375.61,703.19
7940,-3.8716,0.4285,0.0415,1258.06,375.73,-1718.69
7950,-3.8716,0.4597,0.0557,-1148.19,1313.29,593.81
7960,-3.8716,0.4874,0.0735,-1148.19,-874.15,625.06
7970,-3.8716,0.5112,0.1034,-1601.32,1407.17,-1312.38
7980,-3.8715,0.5291,0.1388,1445.56,1235.35,1797.06
7990,-3.8713,0.5387,0.1704,-273.19,1766.60,1172.12
8000,-3.8712,0.5316,0.1965,961.18,1813.54,219.06
8010,-3.8712,0.5166,0.2054,54.93,1157.29,1750.37
8020,-3.8712,0.5155,0.1904,-1866.94,-1702.15,1344.12
8030,-3.8713,0.5361,0.1577,1992.43,375.98,-734.01
8040,-3.8713,0.5627,0.1246,633.06,188.54,437.81
8050,-3.8715,0.5759,0.1117,39.31,-45.78,-1812.32
8060,-3.8715,0.5736,0.1277,1726.81,-1702.03,1328.31
8070,-3.8715,0.5614,0.1771,1429.93,344.85,-515.38
8080,-3.8712,0.5444,0.2563,-132.57,-1327.09,844.06
8090,-3.8711,0.5261,0.3431,1695.56,813.54,-546.39
8100,-3.8708,0.5107,0.4048,-648.19,-77.15,-1999.39
8110,-3.8707,0.4971,0.4249,1383.06,-186.52,-1014.89
8120,-3.8706,0.4731,0.4131,-366.94,-1608.46,1782.04
8130,-3.8706,0.4326,0.3893,570.56,875.92,-1358.58
8140,-3.8706,0.3805,0.3647,-616.94,1828.92,1547.61
8150,-3.8707,0.3285,0.3457,711.18,-1311.77,-843.08
8160,-3.8707,0.2919,0.3401,-1945.07,250.61,1547.55
8170,-3.8707,0.2777,0.3578,1367.43,-468.20,-1811.89
8180,-3.8706,0.2861,0.3978,-445.07,1797.36,844.42
8190,-3.8705,0.3154,0.4420,633.06,-1077.58,750.73
8200,-3.8704,0.3546,0.4719,383.06,578.74,422.73
8210,-3.8704,0.3884,0.4835,1398.68,406.92,-1639.71
8220,-3.8704,0.4097,0.4835,1726.81,1891.36,-1967.83
8230,-3.8704,0.4226,0.4808,445.56,1891.42,157.17
8240,-3.8705,0.4303,0.4795,-1898.19,1547.67,1844.67
8250,-3.8706,0.4294,0.4756,-913.82,1375.79,-499.08
8260,-3.8706,0.4178,0.4659,-1023.19,875.79,969.67
8270,-3.8707,0.3969,0.4547,1492.43,-358.58,-1717.90
8280,-3.8707,0.3699,0.4504,-1195.07,-1796.14,0.85
8290,-3.8708,0.3381,0.4517,-648.19,1656.92,-1467.90
8300,-3.8708,0.3041,0.4513,-710.69,1813.11,1766.48
8310,-3.8708,0.2717,0.4497,-1070.07,1766.17,1297.73
8320,-3.8708,0.2457,0.4530,-1210.69,1562.99,891.48
8330,-3.8708,0.2332,0.4634,-538.82,1984.80,922.73
8340,-3.8708,0.2362,0.4736,1851.81,-687.07,1750.85
8350,-3.8708,0.2474,0.4734,-1757.57,625.43,-1733.46
8360,-3.8708,0.2576,0.4611,-320.07,594.18,1407.17
8370,-3.8710,0.2656,0.4454,976.81,-983.89,-421.02
8380,-3.8710,0.2777,0.4362,-1991.94,1016.11,1953.98
8390,-3.8710,0.2974,0.4395,-445.07,-171.39,1594.54
8400,-3.8710,0.3201,0.4573,-1929.44,250.55,-889.77
8410,-3.8708,0.3411,0.4913,976.81,-1468.14,-1514.77
8420,-3.8707,0.3601,0.5310,-335.69,-1108.76,-1249.08
8430,-3.8706,0.3867,0.5562,-1898.19,-30.58,-717.77
8440,-3.8705,0.4305,0.5632,1508.06,-811.77,-920.84
8450,-3.8704,0.4849,0.5601,-882.57,94.54,797.97
8460,-3.8704,0.5326,0.5515,-1929.44,-311.58,547.91
8470,-3.8705,0.5537,0.5394,179.93,-1405.21,-889.59
8480,-3.8705,0.5392,0.5298,-1116.94,1047.91,1469.79
8490,-3.8705,0.4988,0.5221,1023.68,-186.46,375.98
8500,-3.8706,0.4469,0.5103,-148.19,-1170.96,-639.65
8510,-3.8706,0.3971,0.5021,1211.18,1313.35,-1983.40
8520,-3.8706,0.3577,0.5093,-1163.82,266.36,1172.85
8530,-3.8706,0.3296,0.5265,1789.31,1188.17,1797.85
8540,-3.8706,0.3141,0.5364,-1804.44,-608.76,-749.02
8550,-3.8706,0.3105,0.5337,211.18,656.86,-92.71
8560,-3.8706,0.3174,0.5245,-241.94,313.05,-967.71
8570,-3.8706,0.3354,0.5157,633.06,-858.76,1047.85
8580,-3.8707,0.3612,0.5067,-1054.44,-1983.76,-1639.65
8590,-3.8708,0.3821,0.4879,-1757.57,860.05,-1155.27
8600,-3.8710,0.3827,0.4646,914.31,-1546.14,-1514.71
8610,-3.8711,0.3579,0.4529,992.43,-530.52,1735.23
8620,-3.8712,0.3184,0.4569,1820.56,1969.42,-1655.40
8630,-3.8712,0.2806,0.4611,758.06,-1515.01,1766.48
8640,-3.8712,0.2562,0.4584,-70.07,-983.89,-874.15
8650,-3.8711,0.2509,0.4532,804.93,-1327.64,407.10
8660,-3.8711,0.2574,0.4467,117.43,-1983.89,1391.48
8670,-3.8711,0.2642,0.4459,961.18,1172.36,1782.10
8680,-3.8711,0.2722,0.4460,1820.56,1078.61,860.23
8690,-3.8711,0.2830,0.4375,-1148.19,1094.24,110.23
8700,-3.8712,0.2867,0.4170,226.81,0.55,-671.02
8710,-3.8712,0.2786,0.3805,711.18,1375.55,1094.54
8720,-3.8713,0.2599,0.3358,-335.69,703.61,1828.86
8730,-3.8715,0.2303,0.2980,1273.68,-1015.14,-1390.01
8740,-3.8716,0.1979,0.2715,1492.43,-1858.95,-30.70
8750,-3.8716,0.1760,0.2542,1336.18,-1249.63,-1687.01
8760,-3.8716,0.1647,0.2473,-1460.69,531.56,1547.36
8770,-3.8716,0.1562,0.2473,1086.18,-343.44,1172.30
8780,-3.8716,0.1489,0.2482,8.06,-343.44,1437.93
8790,-3.8716,0.1393,0.2507,-929.44,-234.13,-1452.70
8800,-3.8715,0.1224,0.2584,1836.18,93.99,0.49
8810,-3.8715,0.0994,0.2656,-320.07,1078.31,1719.24
8820,-3.8715,0.0745,0.2653,726.81,-1999.82,-483.89
8830,-3.8713,0.0547,0.2561,1539.31,1953.25,109.86
8840,-3.8715,0.0482,0.2397,-991.94,781.31,-937.01
8850,-3.8715,0.0604,0.2181,-1820.07,-1312.44,453.55
8860,-3.8716,0.0844,0.1886,-257.57,-78.06,297.24
8870,-3.8718,0.1027,0.1526,-1195.07,140.75,-359.01
8880,-3.8719,0.0984,0.1169,1148.68,-468.57,-406.01
8890,-3.8719,0.0695,0.0878,601.81,-1031.07,843.93
8900,-3.8721,0.0358,0.0730,898.68,-765.50,-218.63
8910,-3.8721,0.0177,0.0664,586.18,1343.81,-171.75
8920,-3.8719,0.0208,0.0591,-1726.32,500.00,218.87
8930,-3.8719,0.0425,0.0538,-1335.69,-437.50,406.31
8940,-3.8719,0.0750,0.0487,1445.56,-1109.31,375.06
8950,-3.8721,0.1106,0.0410,1601.81,-1765.50,-15.56
8960,-3.8721,0.1453,0.0319,-1835.69,1250.18,-843.69
8970,-3.8721,0.1749,0.0215,-1398.19,78.37,-1796.81
8980,-3.8721,0.1932,0.0103,-1601.32,-1249.69,1046.88
8990,-3.8722,0.2018,-0.0018,742.43,1312.87,-656.25
9000,-3.8722,0.2068,-0.0195,1836.18,-234.01,1437.44
9010,-3.8723,0.2057,-0.0433,-1523.19,1500.37,-109.44
9020,-3.8723,0.1968,-0.0642,-1663.82,-1546.51,-1109.50
9030,-3.8723,0.1853,-0.0754,1195.56,-218.38,-1156.43
9040,-3.8723,0.1798,-0.0781,-273.19,-1655.94,-390.81
9050,-3.8722,0.1857,-0.0796,-976.32,-1999.69,1109.19
9060,-3.8722,0.1965,-0.0841,-226.32,1812.81,-1000.18
9070,-3.8722,0.2018,-0.0918,1164.31,1234.74,-172.06
9080,-3.8722,0.1995,-0.1045,1836.18,250.37,-93.93
9090,-3.8721,0.1897,-0.1227,1539.31,-1374.63,15.38
9100,-3.8721,0.1698,-0.1449,289.31,297.24,15.38
9110,-3.8722,0.1407,-0.1677,1742.43,1453.43,-250.31
9120,-3.8722,0.1116,-0.1884,-1976.32,-1468.51,-1062.87
9130,-3.8722,0.0939,-0.2058,-1710.69,-109.19,1296.45
9140,-3.8723,0.0901,-0.2202,23.68,1656.43,-984.80
9150,-3.8723,0.0972,-0.2294,-460.69,-187.38,1140.14
9160,-3.8724,0.1101,-0.2310,445.56,-1359.19,-47.36
9170,-3.8724,0.1240,-0.2266,-1898.19,-1562.32,-703.61
9180,-3.8724,0.1338,-0.2188,-116.94,-999.82,-1078.61
9190,-3.8724,0.1365,-0.2089,1133.06,0.24,-1344.18
9200,-3.8724,0.1331,-0.1975,1476.81,1265.87,-1562.93
9210,-3.8724,0.1272,-0.1907,1039.31,-1281.01,-1984.80
9220,-3.8724,0.1239,-0.1890,289.31,-406.01,1577.70
9230,-3.8724,0.1243,-0.1833,-132.57,-187.32,1218.32
9240,-3.8724,0.1305,-0.1683,-85.69,531.43,905.88
9250,-3.8724,0.1478,-0.1473,711.18,-1546.63,1421.51
9260,-3.8724,0.1730,-0.1245,-1070.07,1140.87,-1172.18
9270,-3.8723,0.1925,-0.1039,-1851.32,62.81,296.63
9280,-3.8723,0.1992,-0.0916,648.68,-1296.51,1452.88
9290,-3.8723,0.2002,-0.0902,1508.06,281.62,1999.82
9300,-3.8723,0.2083,-0.0959,1633.06,453.49,1515.44
9310,-3.8724,0.2334,-0.1030,-1335.69,-280.88,-78.37
9320,-3.8724,0.2751,-0.1080,1883.06,-1187.07,-1812.74
9330,-3.8724,0.3168,-0.1080,-773.19,-1827.64,796.63
9340,-3.8726,0.3456,-0.1038,554.93,-1827.51,-31.49
9350,-3.8724,0.3597,-0.0961,242.43,-1280.58,1140.38
9360,-3.8723,0.3507,-0.0825,-1945.07,-296.20,359.13
9370,-3.8722,0.3209,-0.0643,898.68,1438.17,390.44
9380,-3.8721,0.2909,-0.0410,1086.18,-233.76,859.19
9390,-3.8719,0.2776,-0.0167,1242.43,-1249.45,1578.00
9400,-3.8718,0.2842,-0.0017,-460.69,1859.86,1749.94
9410,-3.8717,0.3059,-0.0011,383.06,-218.20,109.31
9420,-3.8717,0.3357,-0.0112,-835.69,-140.08,484.31
9430,-3.8718,0.3644,-0.0234,-1023.19,-1436.89,-328.19
9440,-3.8718,0.3839,-0.0288,-1351.32,1000.67,-1109.44
9450,-3.8718,0.3926,-0.0193,1148.68,313.23,-656.31
9460,-3.8717,0.3931,0.0018,-1741.94,1531.98,984.31
9470,-3.8717,0.3883,0.0258,-1679.44,235.11,-125.00
9480,-3.8716,0.3818,0.0513,1711.18,-702.39,-281.25
9490,-3.8715,0.3813,0.0807,883.06,-1436.77,-593.69
9500,-3.8713,0.3835,0.1104,820.56,-1671.14,-1249.88
9510,-3.8712,0.3735,0.1298,1101.81,-1874.27,1875.18
9520,-3.8711,0.3424,0.1260,-179.44,610.05,125.24
9530,-3.8712,0.2949,0.1057,-163.82,125.61,-62.26
9540,-3.8712,0.2551,0.0818,1758.06,1531.80,734.56
9550,-3.8713,0.2550,0.0607,664.31,-1530.76,1593.87
9560,-3.8713,0.2946,0.0510,648.68,-233.89,453.19
9570,-3.8713,0.3379,0.0599,1711.18,-1468.20,781.31
9580,-3.8713,0.3547,0.0883,-741.94,-327.51,1937.56
9590,-3.8713,0.3494,0.1227,1414.31,-702.45,-1093.63
9600,-3.8712,0.3450,0.1541,726.81,-296.20,812.68
9610,-3.8711,0.3514,0.1829,164.31,-280.58,78.37
9620,-3.8711,0.3644,0.2094,992.43,-593.08,-562.19
9630,-3.8710,0.3756,0.2308,-1351.32,-1202.45,-1827.76
9640,-3.8708,0.3800,0.2396,86.18,1547.61,141.05
9650,-3.8708,0.3767,0.2344,648.68,-1327.39,1375.43
9660,-3.8708,0.3630,0.2213,226.81,-1999.27,1141.05
9670,-3.8710,0.3400,0.2024,-1523.19,328.80,-733.95
9680,-3.8710,0.3148,0.1738,-476.32,1906.86,390.99
9690,-3.8711,0.2954,0.1395,304.93,-1749.39,1344.06
9700,-3.8712,0.2834,0.1190,1820.56,1859.92,-890.38
9710,-3.8712,0.2784,0.1210,289.31,-765.08,1718.93
9720,-3.8712,0.2823,0.1351,-351.32,-515.14,984.56
9730,-3.8712,0.2886,0.1554,148.68,1297.42,1125.24
9740,-3.8712,0.2852,0.1813,945.56,-108.83,1812.74
9750,-3.8712,0.2772,0.2063,508.06,-796.33,-1327.82
9760,-3.8712,0.2758,0.2225,-507.57,-1593.26,-702.76
9770,-3.8712,0.2814,0.2258,-695.07,484.86,-1202.70
9780,-3.8712,0.2969,0.2205,23.68,906.80,1219.18
9790,-3.8713,0.3236,0.2222,-1991.94,219.30,-249.57
9800,-3.8713,0.3505,0.2473,1429.93,438.11,-108.95
9810,-3.8712,0.3706,0.3081,867.43,-343.08,-1062.07
9820,-3.8710,0.3885,0.3973,-554.44,-561.83,906.80
9830,-3.8707,0.4064,0.4819,1742.43,-1139.89,516.36
9840,-3.8706,0.4165,0.5356,23.68,1688.29,-77.21
9850,-3.8704,0.4130,0.5591,1320.56,563.29,1422.91
9860,-3.8702,0.3986,0.5626,867.43,-436.71,422.91
9870,-3.8702,0.3755,0.5615,-976.32,16.36,1922.97
9880,-3.8702,0.3461,0.5674,70.56,-124.27,-1045.84
9890,-3.8702,0.3158,0.5751,304.93,625.67,-108.28
9900,-3.8701,0.2883,0.5791,429.93,1609.99,844.85
9910,-3.8701,0.2644,0.5841,914.31,-1874.45,1516.72
9920,-3.8701,0.2479,0.5913,1851.81,-1233.89,1860.47
9930,-3.8701,0.2454,0.5925,-257.57,-312.07,-1873.90
9940,-3.8701,0.2560,0.5854,-585.69,-155.82,1891.72
9950,-3.8701,0.2705,0.5784,773.68,-1062.01,719.85
9960,-3.8702,0.2812,0.5757,-1366.94,-1968.26,-748.90
9970,-3.8702,0.2865,0.5752,8.06,1688.05,-1780.15
9980,-3.8702,0.2865,0.5754,679.93,1625.55,1344.85
9990,-3.8702,0.2817,0.5721,679.93,1656.80,47.97
10000,-3.8704,0.2771,0.5587,70.56,1234.92,1985.47
10010,-3.8705,0.2747,0.5385,-523.19,-483.89,-686.46
10020,-3.8705,0.2677,0.5184,-835.69,922.36,422.91
10030,-3.8706,0.2539,0.4995,-1726.32,-1640.14,1704.10
10040,-3.8707,0.2402,0.4879,508.06,-62.01,-514.71
10050,-3.8707,0.2296,0.4939,-1241.94,-1546.45,-1858.46
10060,-3.8707,0.2218,0.5172,1398.68,-780.82,-1905.33
10070,-3.8707,0.2174,0.5497,398.68,-1796.45,-655.27
10080,-3.8706,0.2179,0.5831,-163.82,-1640.26,1782.29
10090,-3.8705,0.2245,0.6053,-101.32,-1359.01,501.10
10100,-3.8705,0.2335,0.6093,742.43,1484.80,-1623.84
10110,-3.8705,0.2391,0.5995,1898.68,1984.80,-1311.34
10120,-3.8705,0.2384,0.5793,-1382.57,734.80,923.03
10130,-3.8706,0.2351,0.5532,-1476.32,-1843.32,1360.47
10140,-3.8707,0.2319,0.5264,-1898.19,-1187.07,501.04
10150,-3.8710,0.2292,0.5050,1695.56,-624.57,-1077.15
10160,-3.8711,0.2261,0.4907,1351.81,641.05,1313.48
10170,-3.8713,0.2191,0.4840,945.56,-1187.07,-30.33
10180,-3.8715,0.2122,0.5009,54.93,1953.55,-264.71
10190,-3.8715,0.2085,0.5524,-835.69,109.74,563.48
10200,-3.8716,0.2120,0.6342,-1304.44,-1296.51,-639.59
10210,-3.8715,0.2277,0.7190,-851.32,1172.24,1204.35
10220,-3.8713,0.2484,0.7760,1148.68,31.68,1610.78
10230,-3.8712,0.2582,0.7905,-195.07,-671.45,-1311.04
10240,-3.8711,0.2478,0.7572,1054.93,1187.99,1532.78
10250,-3.8711,0.2209,0.6965,-273.19,922.30,1235.84
10260,-3.8712,0.1823,0.6399,289.31,1156.68,-1686.16
10270,-3.8713,0.1415,0.5967,-663.82,1906.56,-1311.28
10280,-3.8713,0.1123,0.5618,-1882.57,375.24,110.53
10290,-3.8715,0.0967,0.5322,-1616.94,-93.57,-1608.34
10300,-3.8715,0.0872,0.5065,383.06,125.18,1407.29
10310,-3.8715,0.0786,0.4846,-835.69,828.25,1954.10
10320,-3.8715,0.0698,0.4673,-1929.44,-1968.63,-264.71
10330,-3.8713,0.0627,0.4489,945.56,-187.38,1032.10
10340,-3.8713,0.0596,0.4226,39.31,1453.25,1250.85
10350,-3.8713,0.0571,0.3892,-366.94,-1906.19,1032.04
10360,-3.8713,0.0507,0.3574,-679.44,1812.56,594.48
10370,-3.8715,0.0411,0.3313,-1507.57,1750.06,-46.20
10380,-3.8715,0.0327,0.3104,1273.68,-1593.69,-515.01
10390,-3.8715,0.0276,0.2872,195.56,-265.56,-843.20
10400,-3.8715,0.0215,0.2566,-460.69,765.62,-1358.83
10410,-3.8715,0.0074,0.2261,-1241.94,843.75,1984.86
10420,-3.8715,-0.0135,0.1998,961.18,937.50,1437.93
10430,-3.8715,-0.0360,0.1740,-1726.32,1593.69,922.24
10440,-3.8716,-0.0535,0.1465,-601.32,-1718.87,-155.94
10450,-3.8716,-0.0577,0.1235,1164.31,-1234.50,-1921.63
10460,-3.8716,-0.0436,0.1095,617.43,-172.00,0.18
10470,-3.8717,-0.0099,0.1056,-1570.07,-1968.87,1937.68
10480,-3.8718,0.0326,0.1069,-1257.57,1531.19,-296.69
10490,-3.8718,0.0692,0.1063,179.93,1687.56,1922.06
10500,-3.8718,0.0939,0.1086,867.43,1609.50,1187.68
10510,-3.8718,0.1119,0.1183,23.68,1906.43,1250.18
10520,-3.8718,0.1283,0.1337,-1663.82,-859.19,-1218.57
10530,-3.8717,0.1376,0.1523,429.93,1109.62,1500.24
10540,-3.8716,0.1327,0.1699,1617.43,-499.76,578.37
10550,-3.8716,0.1156,0.1865,992.43,1750.24,-234.07
10560,-3.8715,0.1022,0.2023,-1195.07,-124.82,-1827.82
10570,-3.8715,0.1074,0.2053,1086.18,1890.81,-827.76
10580,-3.8715,0.1284,0.1904,1758.06,-1718.57,-1437.13
10590,-3.8715,0.1538,0.1677,445.56,375.24,62.87
10600,-3.8716,0.1754,0.1442,-304.44,1468.99,578.43
10610,-3.8717,0.1875,0.1210,-1538.82,-1546.57,1234.62
10620,-3.8718,0.1899,0.0951,8.06,-515.26,-1874.82
10630,-3.8719,0.1842,0.0634,320.56,172.24,-796.69
10640,-3.8721,0.1709,0.0280,-413.82,109.68,-31.13
10650,-3.8721,0.1567,-0.0059,1883.06,-421.57,234.38
10660,-3.8722,0.1462,-0.0382,70.56,-749.69,343.69
10670,-3.8723,0.1364,-0.0707,-1273.19,-890.38,515.50
10680,-3.8724,0.1241,-0.1017,1461.18,-1046.63,812.32
10690,-3.8726,0.1119,-0.1272,-101.32,-1015.44,1577.88
10700,-3.8727,0.1006,-0.1439,-1663.82,-281.07,-453.43
10710,-3.8727,0.0891,-0.1517,883.06,1578.31,-1515.93
10720,-3.8727,0.0841,-0.1545,-585.69,578.25,1734.07
10730,-3.8727,0.0918,-0.1559,-1226.32,218.87,1046.57
10740,-3.8727,0.1074,-0.1566,-241.94,47.00,155.94
10750,-3.8728,0.1256,-0.1591,1758.06,-46.69,-1140.99
10760,-3.8728,0.1429,-0.1663,86.18,-359.13,1249.63
10770,-3.8729,0.1584,-0.1749,-1695.07,-1281.01,-515.99
10780,-3.8729,0.1741,-0.1753,289.31,1609.68,1999.63
10790,-3.8729,0.1895,-0.1620,-1710.69,1562.81,1546.51
10800,-3.8729,0.1976,-0.1387,258.06,-734.01,-1406.62
10810,-3.8728,0.1882,-0.1123,1304.93,-1749.63,1280.94
10820,-3.8727,0.1621,-0.0914,101.81,1625.37,968.51
10830,-3.8726,0.1425,-0.0820,758.06,297.18,812.32
10840,-3.8724,0.1528,-0.0845,-1757.57,1500.24,249.82
10850,-3.8724,0.1940,-0.1000,-429.44,1187.74,1968.57
10860,-3.8724,0.2539,-0.1213,836.18,-796.51,1546.63
10870,-3.8726,0.3167,-0.1423,508.06,469.24,-609.62
10880,-3.8726,0.3677,-0.1621,539.31,1781.86,1062.19
10890,-3.8726,0.3954,-0.1741,-929.44,-749.33,562.13
10900,-3.8726,0.3926,-0.1730,-1382.57,1719.48,-1812.87
10910,-3.8724,0.3674,-0.1542,-1741.94,1860.11,1874.63
10920,-3.8723,0.3319,-0.1185,-960.69,266.30,-1047.18
10930,-3.8721,0.2958,-0.0721,-1507.57,828.74,749.76
10940,-3.8719,0.2682,-0.0265,1867.43,-1233.83,-1687.68
10950,-3.8718,0.2539,0.0048,-1663.82,609.86,-921.94
10960,-3.8717,0.2501,0.0183,508.06,609.86,-562.50
10970,-3.8716,0.2505,0.0131,23.68,-1655.76,-1546.88
10980,-3.8716,0.2576,-0.0112,70.56,1672.36,-328.12
10990,-3.8715,0.2751,-0.0408,976.81,-1437.01,453.06
11000,-3.8715,0.2971,-0.0524,-773.19,-1218.26,1296.75
11010,-3.8715,0.3162,-0.0438,-1960.69,1297.42,-1812.62
11020,-3.8715,0.3303,-0.0243,476.81,-1608.76,-609.50
11030,-3.8713,0.3396,0.0051,-1710.69,891.24,453.06
11040,-3.8713,0.3434,0.0327,-523.19,656.86,859.38
11050,-3.8713,0.3510,0.0381,-38.82,188.11,187.56
11060,-3.8715,0.3733,0.0189,929.93,875.67,-1453.06
11070,-3.8715,0.3987,-0.0112,-210.69,-1577.45,593.75
11080,-3.8716,0.4084,-0.0378,-960.69,-1436.77,-1437.56
11090,-3.8716,0.4043,-0.0538,289.31,-842.96,812.38
11100,-3.8716,0.3915,-0.0526,-241.94,1110.11,515.50
11110,-3.8716,0.3687,-0.0355,-1882.57,1266.36,1890.50
11120,-3.8716,0.3503,-0.0164,-804.44,-546.20,-250.12
11130,-3.8715,0.3564,0.0016,851.81,1906.92,1546.81
11140,-3.8715,0.3861,0.0177,1633.06,203.80,-703.12
11150,-3.8715,0.4293,0.0249,1429.93,-1733.64,-62.50
11160,-3.8715,0.4741,0.0283,-1038.82,-811.71,-625.00
11170,-3.8715,0.5007,0.0383,695.56,-374.08,-1406.25
11180,-3.8715,0.5057,0.0497,101.81,907.23,1875.06
11190,-3.8715,0.5028,0.0544,742.43,-1639.65,1453.19
11200,-3.8715,0.4963,0.0525,367.43,-1030.27,1453.19
11210,-3.8715,0.4883,0.0469,-460.69,-1280.33,1500.06
11220,-3.8715,0.4836,0.0525,-1491.94,-1999.08,1437.56
11230,-3.8715,0.4817,0.0854,1914.31,-1280.33,-1781.19
11240,-3.8713,0.4810,0.1395,1664.31,-1061.58,640.75
11250,-3.8712,0.4940,0.1940,1570.56,1860.29,156.49
11260,-3.8711,0.5310,0.2379,-757.57,829.04,734.74
11270,-3.8710,0.5780,0.2633,-23.19,-1545.90,1328.55
11280,-3.8710,0.6157,0.2679,1992.43,1704.22,-530.76
11290,-3.8710,0.6366,0.2632,-1179.44,-1701.97,-640.14
11300,-3.8710,0.6409,0.2527,1492.43,1688.72,1969.24
11310,-3.8711,0.6356,0.2340,-1960.69,344.97,-155.76
11320,-3.8711,0.6309,0.2162,1367.43,1954.35,-1858.95
11330,-3.8711,0.6346,0.2076,758.06,-326.90,1125.37
11340,-3.8711,0.6464,0.2128,1242.43,-1420.65,656.62
11350,-3.8711,0.6520,0.2356,-1257.57,-764.40,922.24
11360,-3.8711,0.6405,0.2736,-538.82,-1842.53,-1890.20
11370,-3.8710,0.6168,0.3181,1992.43,-983.15,531.74
11380,-3.8710,0.5918,0.3591,-1038.82,719.91,-30.64
11390,-3.8708,0.5730,0.3887,-241.94,1969.85,-655.58
11400,-3.8707,0.5640,0.4039,1351.81,1751.10,-1999.27
11410,-3.8707,0.5647,0.4034,195.56,-295.78,-280.52
11420,-3.8707,0.5673,0.3856,289.31,-358.28,-155.52
11430,-3.8707,0.5604,0.3556,617.43,1360.47,1485.11
11440,-3.8708,0.5437,0.3262,-257.57,1516.66,985.05
11450,-3.8710,0.5212,0.3096,1601.81,1751.04,94.36
11460,-3.8711,0.4940,0.3068,-1273.19,-374.02,531.80
11470,-3.8712,0.4651,0.3115,-757.57,-733.46,-905.70
11480,-3.8712,0.4396,0.3241,-460.69,-124.15,-358.83
11490,-3.8711,0.4249,0.3462,273.68,1485.23,1469.36
11500,-3.8711,0.4218,0.3737,-1601.32,313.29,-343.08
11510,-3.8710,0.4193,0.3976,1992.43,-171.08,1235.05
11520,-3.8710,0.4084,0.4102,1679.93,-1108.58,1797.61
11530,-3.8710,0.3838,0.4084,289.31,500.79,1157.04
11540,-3.8711,0.3475,0.3949,1133.06,281.98,-639.83
11550,-3.8711,0.3071,0.3737,492.43,-1452.45,1375.73
11560,-3.8711,0.2690,0.3464,-679.44,-171.33,219.42
11570,-3.8711,0.2401,0.3220,-1554.44,344.24,94.42
11580,-3.8711,0.2223,0.3112,-1257.57,1219.18,484.99
11590,-3.8711,0.2162,0.3113,461.18,-171.45,1578.67
11600,-3.8711,0.2161,0.3245,-320.07,-155.88,-327.58
11610,-3.8710,0.2151,0.3606,-335.69,1531.62,-1218.14
11620,-3.8708,0.2290,0.4098,-460.69,-1843.38,-358.70
11630,-3.8706,0.2769,0.4474,1320.56,453.55,-1952.33
11640,-3.8704,0.3541,0.4626,-554.44,1266.11,297.73
11650,-3.8702,0.4417,0.4618,1336.18,-780.58,657.10
11660,-3.8702,0.5176,0.4515,539.31,-889.77,-1639.77
11670,-3.8702,0.5609,0.4352,-1741.94,1797.85,-1936.65
11680,-3.8702,0.5566,0.4215,-195.07,-295.84,1266.42
11690,-3.8702,0.5074,0.4236,-741.94,1954.16,766.42
11700,-3.8702,0.4386,0.4426,961.18,-1780.27,1078.92
11710,-3.8702,0.3821,0.4667,148.68,657.10,-1327.27
11720,-3.8701,0.3525,0.4839,914.31,-264.89,797.73
11730,-3.8701,0.3478,0.4893,1133.06,1938.17,1954.04
11740,-3.8701,0.3600,0.4824,523.68,-1374.33,1297.79
11750,-3.8702,0.3788,0.4742,-1913.82,1750.67,-827.21
11760,-3.8702,0.3937,0.4779,492.43,703.86,282.17
11770,-3.8704,0.3979,0.4932,-1601.32,1172.61,1563.42
11780,-3.8704,0.3927,0.5127,-1054.44,-874.27,32.17
11790,-3.8705,0.3812,0.5275,-1726.32,1625.73,-327.15
11800,-3.8705,0.3660,0.5317,804.93,-483.64,-686.52
11810,-3.8705,0.3489,0.5250,-1148.19,63.17,-1936.46
11820,-3.8706,0.3295,0.5117,664.31,-796.20,-170.90
11830,-3.8706,0.3058,0.4982,-1820.07,1500.61,829.10
11840,-3.8707,0.2782,0.4844,-851.32,-233.83,1594.67
11850,-3.8708,0.2505,0.4653,-382.57,-1999.51,-1452.21
11860,-3.8710,0.2240,0.4388,70.56,-437.01,-608.52
11870,-3.8711,0.2020,0.4062,679.93,172.30,-171.02
11880,-3.8712,0.1840,0.3719,1867.43,0.37,-421.08
11890,-3.8713,0.1653,0.3408,-445.07,-390.32,-1077.45
11900,-3.8715,0.1482,0.3140,1164.31,-374.69,-1140.01
11910,-3.8716,0.1332,0.2888,-1023.19,187.74,-593.14
11920,-3.8716,0.1162,0.2633,1054.93,968.99,31.80
11930,-3.8717,0.0962,0.2395,-1116.94,1703.31,734.86
11940,-3.8718,0.0757,0.2231,320.56,-1343.57,1812.93
11950,-3.8719,0.0618,0.2162,1695.56,562.62,-593.32
11960,-3.8719,0.0634,0.2146,-85.69,-328.06,-1921.51
11970,-3.8719,0.0813,0.2168,117.43,-531.13,-1827.76
11980,-3.8719,0.1073,0.2212,-1585.69,-249.88,-890.26
11990,-3.8718,0.1332,0.2235,1742.43,312.68,422.30
12000,-3.8718,0.1505,0.2218,1054.93,609.62,-1983.95
12010,-3.8718,0.1514,0.2122,-726.32,390.87,-499.57
12020,-3.8718,0.1356,0.1924,-616.94,-843.51,-171.51
12030,-3.8718,0.1119,0.1643,1367.43,625.24,-1718.38
12040,-3.8718,0.0916,0.1283,-1663.82,1031.43,484.68
12050,-3.8719,0.0778,0.0914,-273.19,422.00,-359.13
12060,-3.8719,0.0688,0.0658,1961.18,-296.75,-1109.25
12070,-3.8719,0.0660,0.0560,820.56,422.00,1922.00
12080,-3.8719,0.0737,0.0554,461.18,-828.00,671.94
12090,-3.8721,0.0883,0.0513,1445.56,-906.13,-531.19
12100,-3.8721,0.1001,0.0385,-695.07,-1437.38,-1499.94
12110,-3.8721,0.1080,0.0232,820.56,922.06,1187.56
12120,-3.8722,0.1187,0.0103,1836.18,-1031.07,-593.75
12130,-3.8722,0.1305,-0.0031,-804.44,1312.68,1375.00
12140,-3.8723,0.1340,-0.0219,711.18,-390.38,-453.19
12150,-3.8723,0.1222,-0.0448,1164.31,1203.37,-1859.44
12160,-3.8723,0.0929,-0.0665,-351.32,-1734.19,484.25
12170,-3.8724,0.0548,-0.0864,-101.32,-515.50,-1125.18
12180,-3.8724,0.0204,-0.1051,-976.32,937.56,1827.94
12190,-3.8724,-0.0052,-0.1216,-1382.57,-1453.12,984.13
12200,-3.8726,-0.0249,-0.1357,-663.82,453.06,-172.12
12210,-3.8726,-0.0424,-0.1466,820.56,-1359.44,-1781.56
12220,-3.8726,-0.0507,-0.1534,-1413.82,1249.88,405.94
12230,-3.8727,-0.0369,-0.1577,1523.68,374.88,-1578.43
12240,-3.8727,-0.0002,-0.1592,-710.69,-172.00,624.63
12250,-3.8728,0.0466,-0.1538,-23.19,-359.44,-453.49
12260,-3.8727,0.0925,-0.1373,1976.81,312.56,155.94
12270,-3.8727,0.1283,-0.1110,-148.19,-1578.00,-1422.18
12280,-3.8726,0.1488,-0.0789,429.93,1797.12,-1922.12
12290,-3.8724,0.1589,-0.0476,-945.07,1906.49,-1718.93
12300,-3.8723,0.1653,-0.0249,351.81,1906.56,-1406.37
12310,-3.8722,0.1740,-0.0093,1164.31,812.81,-1562.56
12320,-3.8721,0.1923,0.0056,-1726.32,-1187.19,1609.31
12330,-3.8719,0.2206,0.0186,617.43,719.12,203.12
12340,-3.8719,0.2527,0.0247,242.43,-1624.57,1515.62
12350,-3.8719,0.2853,0.0217,351.81,-843.26,1265.62
12360,-3.8719,0.3151,0.0112,523.68,-1218.20,328.12
12370,-3.8721,0.3334,-0.0065,336.18,1438.11,-1015.62
12380,-3.8721,0.3308,-0.0258,-1320.07,-827.51,1718.69
12390,-3.8721,0.3103,-0.0337,-1648.19,703.74,999.94
12400,-3.8721,0.2866,-0.0233,-273.19,-311.95,937.38
12410,-3.8721,0.2743,-0.0029,695.56,1016.17,1421.81
12420,-3.8721,0.2810,0.0143,-882.57,-374.51,-1546.94
12430,-3.8721,0.3038,0.0215,-23.19,1828.61,-468.75
12440,-3.8721,0.3339,0.0151,-1101.32,-1249.45,-593.75
12450,-3.8721,0.3667,-0.0055,-1257.57,1938.11,1718.75
12460,-3.8722,0.3932,-0.0315,-1054.44,-702.45,-671.94
12470,-3.8722,0.4042,-0.0496,-1663.82,-30.52,1546.75
12480,-3.8722,0.4069,-0.0569,-257.57,1656.98,1515.50
12490,-3.8722,0.4121,-0.0548,86.18,719.54,-1093.87
12500,-3.8721,0.4242,-0.0405,758.06,985.17,1281.13
12510,-3.8719,0.4425,-0.0170,-1695.07,-1186.71,984.25
12520,-3.8718,0.4597,0.0081,648.68,1828.98,1718.69
12530,-3.8717,0.4698,0.0245,-1148.19,1032.10,-1593.75
12540,-3.8716,0.4690,0.0250,148.68,-858.46,1937.50
12550,-3.8716,0.4556,0.0116,39.31,-795.96,-171.88
12560,-3.8715,0.4369,-0.0118,-1679.44,1485.23,125.00
12570,-3.8716,0.4253,-0.0388,-70.07,-1514.83,-859.44
12580,-3.8716,0.4293,-0.0602,-1554.44,-967.96,1484.25
12590,-3.8716,0.4487,-0.0720,-1038.82,297.67,499.88
12600,-3.8716,0.4709,-0.0710,1445.56,-1217.90,609.19
12610,-3.8716,0.4819,-0.0564,289.31,-1092.83,1484.19
12620,-3.8715,0.4739,-0.0240,1695.56,782.17,453.00
12630,-3.8713,0.4373,0.0276,664.31,922.79,1937.44
12640,-3.8711,0.3761,0.0930,-23.19,-467.96,703.12
12650,-3.8710,0.3185,0.1614,148.68,-93.02,-140.50
12660,-3.8707,0.2877,0.2069,773.68,656.86,1719.06
12670,-3.8706,0.2833,0.2122,836.18,-1515.08,422.24
12680,-3.8707,0.2944,0.1820,273.68,-843.20,-999.63
12690,-3.8708,0.3115,0.1302,1695.56,-702.58,1375.31
12700,-3.8711,0.3350,0.0735,-116.94,672.42,1187.74
12710,-3.8713,0.3618,0.0328,-1116.94,1406.86,1312.62
12720,-3.8716,0.3779,0.0272,-1679.44,203.80,-437.44
12730,-3.8716,0.3809,0.0620,383.06,-514.89,1000.00
12740,-3.8716,0.3750,0.1211,758.06,-61.77,-1562.44
12750,-3.8715,0.3662,0.1801,8.06,-499.27,-1577.94
12760,-3.8713,0.3693,0.2240,-1116.94,-952.45,-1484.07
12770,-3.8712,0.3872,0.2493,-726.32,672.55,1156.68
12780,-3.8712,0.4058,0.2574,1570.56,-93.02,1703.55
12790,-3.8712,0.4120,0.2526,-54.44,953.86,766.11
12800,-3.8713,0.4026,0.2405,742.43,328.92,-999.51
12810,-3.8713,0.3849,0.2251,-460.69,-1218.02,500.43
12820,-3.8715,0.3660,0.2148,1273.68,813.23,-1780.82
12830,-3.8715,0.3428,0.2222,-1148.19,-499.33,1125.37
12840,-3.8715,0.3206,0.2462,-116.94,438.11,1469.18
12850,-3.8715,0.3151,0.2716,1039.31,-483.76,-905.82
12860,-3.8713,0.3342,0.2880,336.18,-1233.76,1469.24
12870,-3.8713,0.3744,0.2952,-1210.69,859.99,-593.20
12880,-3.8712,0.4310,0.3011,-70.07,1781.92,188.05
12890,-3.8712,0.4960,0.3195,-820.07,-1452.33,578.67
12900,-3.8712,0.5554,0.3519,-507.57,891.54,-1686.89
12910,-3.8711,0.5962,0.3922,-898.19,1047.91,-1858.70
12920,-3.8710,0.6088,0.4391,320.56,-1795.72,-343.02
12930,-3.8707,0.5948,0.4852,1929.93,204.28,-1999.15
12940,-3.8705,0.5699,0.5208,148.68,-1889.47,172.79
12950,-3.8704,0.5497,0.5497,961.18,-1342.65,-1874.02
12960,-3.8702,0.5350,0.5763,-1632.57,-1639.59,-373.96
12970,-3.8701,0.5176,0.5885,492.43,1766.66,-92.65
12980,-3.8700,0.4955,0.5770,-1741.94,-670.90,-1748.90
12990,-3.8700,0.4734,0.5498,-570.07,1860.29,-1358.28
13000,-3.8700,0.4542,0.5215,601.81,-1624.08,1563.54
13010,-3.8701,0.4370,0.5028,-1851.32,-1249.15,-280.27
13020,-3.8701,0.4164,0.4977,-54.44,360.17,1938.48
13030,-3.8701,0.3876,0.5039,1304.93,-296.08,719.67
13040,-3.8701,0.3496,0.5126,1617.43,500.73,250.98
13050,-3.8701,0.3086,0.5181,758.06,1610.05,625.98
13060,-3.8701,0.2695,0.5227,-491.94,-1686.95,1282.23
13070,-3.8701,0.2371,0.5266,-1491.94,-1093.26,1704.10
13080,-3.8701,0.2189,0.5256,-1648.19,-593.32,1954.10
13090,-3.8701,0.2142,0.5178,23.68,-718.32,-1999.02
13100,-3.8701,0.2118,0.5039,-570.07,-1718.38,1438.48
13110,-3.8702,0.2040,0.4901,-882.57,500.37,-30.27
13120,-3.8702,0.1917,0.4840,-1882.57,-1265.26,-1780.33
13130,-3.8702,0.1797,0.4835,539.31,1953.49,875.92
13140,-3.8702,0.1748,0.4854,-991.94,1890.93,250.92
13150,-3.8702,0.1801,0.4917,-1616.94,-1874.69,157.17
13160,-3.8702,0.1881,0.5048,-945.07,-1062.19,422.79
13170,-3.8702,0.1884,0.5215,86.18,609.74,1157.23
13180,-3.8702,0.1810,0.5325,117.43,-1249.63,-1733.40
13190,-3.8702,0.1731,0.5269,-820.07,156.56,-1014.59
13200,-3.8702,0.1666,0.5018,-1835.69,-562.19,1954.10
13210,-3.8704,0.1636,0.4652,1336.18,234.68,-1233.40
13220,-3.8705,0.1625,0.4269,945.56,-452.82,-1592.90
13230,-3.8706,0.1603,0.3885,804.93,-1359.07,1813.29
13240,-3.8707,0.1600,0.3485,523.68,1734.68,1578.86
13250,-3.8708,0.1686,0.3049,492.43,609.68,1656.92
13260,-3.8710,0.1918,0.2578,1586.18,-968.44,1547.42
13270,-3.8711,0.2288,0.2233,554.93,1000.37,1062.99
13280,-3.8712,0.2722,0.2338,1289.31,578.55,1156.68
13290,-3.8712,0.3076,0.3043,-1148.19,1922.36,16.05
13300,-3.8712,0.3254,0.3945,-616.94,-1046.33,-1499.45
13310,-3.8711,0.3303,0.4513,1664.31,-1499.39,-1061.77
13320,-3.8710,0.3158,0.4558,-1710.69,1766.24,-1936.65
13330,-3.8710,0.2745,0.4167,429.93,-1655.64,1297.73
13340,-3.8711,0.2220,0.3607,-851.32,1344.24,1344.54
13350,-3.8712,0.1743,0.3132,429.93,-1827.70,266.30
13360,-3.8715,0.1366,0.2850,-1679.44,94.06,-280.64
13370,-3.8715,0.1161,0.2761,1492.43,484.62,578.67
13380,-3.8716,0.1100,0.2802,-1132.57,-656.07,-1421.39
13390,-3.8716,0.1068,0.2946,-1913.82,-140.44,1187.99
13400,-3.8716,0.0974,0.3289,1679.93,1703.31,297.42
13410,-3.8716,0.0739,0.3772,476.81,-1906.07,469.36
13420,-3.8716,0.0428,0.4139,1461.18,281.37,-1389.89
13430,-3.8715,0.0222,0.4211,1492.43,984.44,1969.54
13440,-3.8713,0.0167,0.3973,-1148.19,1906.25,594.54
13450,-3.8713,0.0212,0.3616,-1851.32,-1140.62,672.61
13460,-3.8715,0.0387,0.3320,-1273.19,-1718.75,1203.80
13470,-3.8717,0.0685,0.3108,961.18,-1499.94,-186.89
13480,-3.8718,0.0920,0.2941,773.68,-218.63,-1171.33
13490,-3.8719,0.0939,0.2776,-210.69,1640.75,-593.20
13500,-3.8719,0.0787,0.2592,23.68,-468.57,1969.24
13510,-3.8719,0.0569,0.2402,-1913.82,1172.00,1656.74
13520,-3.8719,0.0356,0.2208,-710.69,-1249.94,1172.30
13530,-3.8719,0.0221,0.1960,570.56,265.69,16.05
13540,-3.8721,0.0214,0.1670,-1163.82,1093.75,-1671.51
13550,-3.8721,0.0306,0.1385,-1257.57,1375.00,234.68
13560,-3.8722,0.0433,0.1101,-70.07,1734.38,1843.99
13570,-3.8723,0.0557,0.0812,1554.93,-1906.19,-546.69
13580,-3.8723,0.0692,0.0552,-866.94,-1609.31,1328.25
13590,-3.8724,0.0859,0.0366,867.43,-937.38,-31.19
13600,-3.8724,0.0997,0.0234,-991.94,687.62,-687.44
13610,-3.8724,0.1053,0.0101,773.68,-999.82,-1125.00
13620,-3.8724,0.1006,-0.0076,1492.43,1297.06,-1593.75
13630,-3.8724,0.0889,-0.0333,883.06,-968.57,-1687.56
13640,-3.8724,0.0752,-0.0586,-616.94,-265.50,-1078.25
13650,-3.8724,0.0599,-0.0764,1633.06,500.12,-1031.37
13660,-3.8724,0.0491,-0.0917,-320.07,-1781.19,-1922.06
13670,-3.8724,0.0513,-0.1062,-1710.69,265.69,1312.32
13680,-3.8724,0.0654,-0.1182,-1429.44,-1593.69,827.88
13690,-3.8724,0.0847,-0.1262,383.06,875.12,531.01
13700,-3.8724,0.1034,-0.1271,-1148.19,-156.13,327.82
13710,-3.8726,0.1219,-0.1229,1242.43,-265.44,-15.93
13720,-3.8726,0.1423,-0.1229,-382.57,265.81,-172.12
13730,-3.8726,0.1592,-0.1265,-1773.19,265.87,-109.62
13740,-3.8724,0.1676,-0.1237,383.06,-187.19,296.57
13750,-3.8724,0.1674,-0.1130,1461.18,172.18,1624.76
13760,-3.8724,0.1604,-0.0994,1429.93,1531.56,-187.74
13770,-3.8723,0.1506,-0.0859,539.31,-718.44,-1593.99
13780,-3.8722,0.1467,-0.0767,-710.69,1000.24,859.19
13790,-3.8722,0.1559,-0.0724,-1210.69,-1812.26,-1515.81
13800,-3.8722,0.1732,-0.0725,-38.82,-1265.38,-1062.68
13810,-3.8722,0.1870,-0.0734,-1820.07,-1280.94,-1500.18
13820,-3.8722,0.1920,-0.0682,-54.44,-1390.32,-1906.43
13830,-3.8722,0.1881,-0.0503,586.18,-734.01,-1234.56
13840,-3.8721,0.1793,-0.0211,86.18,1562.87,937.38
13850,-3.8719,0.1753,0.0074,-1038.82,1297.18,343.69
13860,-3.8719,0.1824,0.0248,-1554.44,953.43,-343.75
13870,-3.8718,0.2014,0.0256,-648.19,-827.82,1671.88
13880,-3.8718,0.2314,0.0148,1789.31,-718.38,-1843.75
13890,-3.8718,0.2657,-0.0038,1633.06,1891.05,1328.12
13900,-3.8719,0.2961,-0.0270,-1976.32,-483.89,-390.69
13910,-3.8719,0.3228,-0.0460,1914.31,547.42,1749.94
13920,-3.8719,0.3461,-0.0609,1320.56,-1890.01,78.00
13930,-3.8721,0.3604,-0.0713,304.93,203.80,-1047.00
13940,-3.8721,0.3595,-0.0740,-1866.94,-1124.33,-1406.43
13950,-3.8721,0.3438,-0.0717,-1976.32,-1468.08,-1453.31
13960,-3.8721,0.3268,-0.0673,8.06,-1171.20,-1578.31
13970,-3.8721,0.3296,-0.0601,1836.18,-608.76,-1672.06
13980,-3.8721,0.3600,-0.0486,-1804.44,313.11,-718.87
13990,-3.8719,0.4048,-0.0344,-1913.82,1781.92,1499.88
14000,-3.8718,0.4429,-0.0237,-179.44,-405.52,46.75
14010,-3.8718,0.4615,-0.0190,695.56,969.60,-1312.56
14020,-3.8717,0.4611,-0.0186,-913.82,1563.35,1124.94
14030,-3.8717,0.4448,-0.0143,-976.32,1625.85,-843.81
14040,-3.8716,0.4161,-0.0005,945.56,-1827.27,812.44
14050,-3.8716,0.3873,0.0177,1273.68,-61.71,1937.44
14060,-3.8716,0.3723,0.0342,1586.18,-1733.64,-1765.62
14070,-3.8716,0.3755,0.0437,-335.69,375.67,1812.56
14080,-3.8716,0.3938,0.0413,70.56,1594.48,671.94
14090,-3.8717,0.4269,0.0247,-1585.69,1281.98,-1843.69
14100,-3.8718,0.4657,0.0034,-1351.32,-842.96,-296.88
14110,-3.8718,0.4900,-0.0034,-382.57,438.35,-1203.12
14120,-3.8718,0.4978,0.0165,-1273.19,-436.58,-468.81
14130,-3.8717,0.4951,0.0643,-273.19,-1889.71,-828.12
14140,-3.8715,0.4791,0.1274,-616.94,235.29,1547.00
14150,-3.8712,0.4504,0.1884,1336.18,313.42,687.74
14160,-3.8711,0.4182,0.2249,1664.31,110.23,-1359.01
14170,-3.8710,0.3936,0.2222,1539.31,782.04,1969.18
14180,-3.8710,0.3842,0.1945,-1616.94,438.23,-1405.82
14190,-3.8710,0.3895,0.1693,1179.93,891.36,1484.74
14200,-3.8711,0.4028,0.1595,1867.43,1672.61,-327.82
14210,-3.8711,0.4225,0.1624,-429.44,422.61,1687.81
14220,-3.8711,0.4469,0.1744,-1913.82,782.04,547.18
14230,-3.8711,0.4614,0.1935,1211.18,-1671.02,640.93
14240,-3.8711,0.4595,0.2192,-929.44,766.48,1500.37
14250,-3.8711,0.4493,0.2494,-1179.44,63.35,-483.95
14260,-3.8710,0.4373,0.2743,1523.68,-77.27,-1921.45
14270,-3.8710,0.4301,0.2850,-23.19,-889.83,-233.89
14280,-3.8708,0.4332,0.2810,-945.07,485.17,47.42
14290,-3.8710,0.4452,0.2714,-538.82,-30.46,-983.89
14300,-3.8710,0.4581,0.2693,992.43,-1264.77,969.24
14310,-3.8711,0.4598,0.2825,-1351.32,-1530.40,-1343.26
14320,-3.8711,0.4458,0.3080,-1132.57,157.10,969.30
14330,-3.8711,0.4292,0.3324,1070.56,-577.27,203.67
14340,-3.8712,0.4283,0.3430,-1054.44,-1452.33,-390.01
14350,-3.8712,0.4498,0.3422,-1163.82,-92.96,-1530.64
14360,-3.8712,0.4889,0.3397,1586.18,-202.27,578.74
14370,-3.8713,0.5354,0.3380,-1413.82,-514.71,-1952.51
14380,-3.8715,0.5768,0.3395,539.31,-733.34,-233.76
14390,-3.8715,0.5963,0.3512,1836.18,-545.78,-1343.14
14400,-3.8715,0.5865,0.3695,336.18,954.28,-1311.83
14410,-3.8715,0.5573,0.3792,-913.82,-702.03,-686.83
14420,-3.8713,0.5226,0.3805,-663.82,532.29,31.98
14430,-3.8713,0.4879,0.3867,-1101.32,704.10,703.86
14440,-3.8713,0.4576,0.3995,-1538.82,1500.92,1641.36
14450,-3.8713,0.4424,0.4127,-1413.82,-858.52,-905.52
14460,-3.8712,0.4491,0.4198,633.06,828.98,672.67
14470,-3.8712,0.4709,0.4204,1492.43,1735.23,1828.92
14480,-3.8712,0.4897,0.4196,289.31,1813.42,-1452.33
14490,-3.8712,0.4897,0.4222,-1304.44,1704.04,-1124.21
14500,-3.8712,0.4724,0.4298,-1304.44,-1952.21,-374.21
14510,-3.8711,0.4481,0.4425,476.81,-983.46,1141.42
14520,-3.8711,0.4229,0.4578,1367.43,641.48,-780.40
14530,-3.8710,0.3983,0.4667,-1866.94,-1405.46,1344.60
14540,-3.8710,0.3778,0.4626,-1007.57,-264.89,-1421.02
14550,-3.8710,0.3661,0.4482,367.43,-780.52,-1296.02
14560,-3.8710,0.3666,0.4377,-1132.57,1375.67,-1655.40
14570,-3.8710,0.3804,0.4438,-1070.07,31.92,-1421.02
14580,-3.8710,0.4034,0.4623,695.56,813.23,-124.15
14590,-3.8708,0.4294,0.4835,-351.32,-827.39,1828.98
14600,-3.8707,0.4498,0.5067,-1023.19,1891.42,94.67
14610,-3.8707,0.4587,0.5336,1586.18,860.23,-1608.40
14620,-3.8706,0.4589,0.5593,-1273.19,297.73,922.91
14630,-3.8705,0.4554,0.5760,-1257.57,-405.40,172.91
14640,-3.8705,0.4521,0.5780,-1695.07,1735.23,-827.03
14650,-3.8704,0.4546,0.5687,1883.06,1985.23,1079.22
14660,-3.8704,0.4600,0.5591,-1804.44,797.73,1735.47
14670,-3.8704,0.4548,0.5531,-1116.94,-436.65,1204.16
14680,-3.8704,0.4254,0.5485,-1773.19,-1202.27,282.29
14690,-3.8705,0.3698,0.5435,-1538.82,-1796.08,-467.71
14700,-3.8705,0.3053,0.5399,-663.82,1563.17,-952.09
14710,-3.8705,0.2513,0.5370,-913.82,1109.92,-1248.96
14720,-3.8705,0.2168,0.5305,179.93,734.86,-1295.84
14730,-3.8705,0.2009,0.5201,-241.94,-93.38,-1436.52
14740,-3.8705,0.1949,0.5057,1726.81,-1421.51,1625.98
14750,-3.8706,0.1912,0.4866,961.18,734.74,-295.90
14760,-3.8706,0.1833,0.4658,476.81,-1718.38,1016.54
14770,-3.8707,0.1664,0.4482,-523.19,-374.69,1969.60
14780,-3.8708,0.1422,0.4373,1304.93,1375.31,-827.27
14790,-3.8708,0.1178,0.4319,-1788.82,-31.01,969.54
14800,-3.8710,0.0991,0.4227,-913.82,-718.57,-671.08
14810,-3.8710,0.0830,0.4023,695.56,-1890.44,1922.67
14820,-3.8710,0.0640,0.3776,-1366.94,-499.88,719.48
14830,-3.8711,0.0427,0.3602,195.56,328.25,-280.52
14840,-3.8711,0.0229,0.3556,1476.81,-1890.56,-561.83
14850,-3.8710,0.0087,0.3591,-1054.44,1515.62,422.55
14860,-3.8710,0.0018,0.3595,1117.43,1968.75,-1968.08
14870,-3.8710,-0.0006,0.3533,242.43,-1984.38,-468.08
14880,-3.8708,-0.0056,0.3461,-70.07,1234.31,703.80
14890,-3.8708,-0.0128,0.3412,-710.69,312.44,1313.17
14900,-3.8708,-0.0148,0.3361,-1632.57,-312.56,1719.36
14910,-3.8708,-0.0078,0.3315,-1882.57,-968.81,-1952.51
14920,-3.8708,0.0046,0.3254,-991.94,-1546.94,1141.24
14930,-3.8710,0.0184,0.3154,601.81,1656.25,-952.51
14940,-3.8710,0.0303,0.3027,-1632.57,375.00,547.49
14950,-3.8711,0.0381,0.2882,-116.94,-1250.00,1859.92
14960,-3.8712,0.0410,0.2745,883.06,890.69,-718.20
14970,-3.8712,0.0392,0.2603,1258.06,-859.31,828.61
14980,-3.8713,0.0343,0.2400,1023.68,1312.56,-1452.64
14990,-3.8713,0.0275,0.2155,398.68,-1281.19,78.55
15000,-3.8715,0.0205,0.1919,-476.32,-421.88,1281.62
15010,-3.8716,0.0172,0.1725,-1366.94,562.50,-1405.88
15020,-3.8716,0.0182,0.1570,-1788.82,-1921.88,125.31
15030,-3.8717,0.0188,0.1431,-1663.82,93.75,-1749.69
15040,-3.8717,0.0157,0.1299,-1585.69,-1687.50,1031.49
15050,-3.8717,0.0101,0.1176,-1976.32,625.00,375.24
15060,-3.8718,0.0088,0.1073,1304.93,-953.12,-46.69
15070,-3.8718,0.0175,0.0979,1133.06,1734.38,-781.07
15080,-3.8718,0.0309,0.0847,-1757.57,531.25,-1921.69
15090,-3.8718,0.0415,0.0649,-38.82,-1156.25,500.12
15100,-3.8719,0.0453,0.0408,1320.56,312.56,-1359.25
15110,-3.8719,0.0411,0.0198,1804.93,1218.81,937.56
15120,-3.8721,0.0302,0.0070,1273.68,-1468.69,-171.88
15130,-3.8721,0.0134,0.0016,-132.57,890.62,-312.50
15140,-3.8719,-0.0065,-0.0010,1726.81,203.12,234.38
15150,-3.8719,-0.0214,-0.0043,-820.07,-109.44,1124.94
15160,-3.8719,-0.0242,-0.0076,1273.68,-531.31,1843.69
15170,-3.8719,-0.0138,-0.0112,914.31,-953.19,-1906.31
15180,-3.8719,0.0073,-0.0187,-1757.57,-1421.94,1828.06
15190,-3.8719,0.0298,-0.0317,945.56,1609.38,921.81
15200,-3.8721,0.0410,-0.0470,-179.44,-62.50,-265.75
15210,-3.8721,0.0366,-0.0585,1258.06,1984.44,-1390.75
15220,-3.8721,0.0212,-0.0649,695.56,515.69,1874.88
15230,-3.8721,0.0020,-0.0664,-1273.19,-312.50,1781.07
15240,-3.8721,-0.0139,-0.0649,258.06,-500.00,-1625.18
15250,-3.8721,-0.0197,-0.0609,-1773.19,-296.94,-515.81
15260,-3.8719,-0.0146,-0.0505,1492.43,218.69,984.25
15270,-3.8719,-0.0011,-0.0349,-1866.94,1546.81,-1156.37
15280,-3.8718,0.0221,-0.0198,-132.57,-453.19,968.63
15290,-3.8718,0.0574,-0.0096,-1163.82,1468.75,-1265.69
15300,-3.8718,0.0985,-0.0148,-648.19,-1234.31,-906.31
15310,-3.8718,0.1300,-0.0405,617.43,-1890.44,1578.06
15320,-3.8719,0.1378,-0.0769,648.68,-1187.26,-1140.75
15330,-3.8721,0.1174,-0.1140,1648.68,-1843.51,-187.68
15340,-3.8721,0.0784,-0.1478,-960.69,1406.43,827.88
15350,-3.8722,0.0370,-0.1744,-1960.69,1078.25,-1484.68
15360,-3.8722,-0.0010,-0.1875,742.43,1671.94,1421.51
15370,-3.8722,-0.0334,-0.1840,-116.94,15.56,1671.51
15380,-3.8722,-0.0563,-0.1661,-273.19,468.63,-515.99
15390,-3.8721,-0.0696,-0.1417,804.93,-1250.12,-1781.62
15400,-3.8719,-0.0701,-0.1187,-898.19,1874.82,780.94
15410,-3.8719,-0.0498,-0.1001,-960.69,827.94,-1468.99
15420,-3.8719,-0.0104,-0.0872,1633.06,-797.00,-609.62
15430,-3.8719,0.0342,-0.0759,-1320.07,859.31,-109.56
15440,-3.8718,0.0743,-0.0636,383.06,-1718.69,156.07
15450,-3.8718,0.1067,-0.0511,1523.68,-140.50,343.57
15460,-3.8718,0.1295,-0.0406,1664.31,1453.31,390.50
15470,-3.8718,0.1455,-0.0375,586.18,-1202.88,296.75
15480,-3.8718,0.1603,-0.0455,-1366.94,-796.63,62.38
15490,-3.8719,0.1736,-0.0616,523.68,-1827.82,-1015.75
15500,-3.8719,0.1827,-0.0778,-1773.19,109.68,703.00
15510,-3.8721,0.1910,-0.0892,-601.32,-1952.82,-1953.31
15520,-3.8722,0.2013,-0.0991,461.18,578.49,-390.81
15530,-3.8722,0.2135,-0.1073,1773.68,-687.13,1312.26
15540,-3.8723,0.2267,-0.1078,-663.82,-1734.01,-265.87
15550,-3.8723,0.2412,-0.1010,1023.68,-1796.45,-156.49
15560,-3.8722,0.2543,-0.0938,-1116.94,-921.45,1468.51
15570,-3.8722,0.2645,-0.0897,554.93,0.49,-468.93
15580,-3.8721,0.2765,-0.0867,1867.43,516.11,1562.32
15590,-3.8721,0.2908,-0.0746,-601.32,906.74,-390.81
15600,-3.8719,0.3041,-0.0493,1226.81,-1546.33,1796.69
15610,-3.8718,0.3131,-0.0199,-1070.07,1688.05,515.50
15620,-3.8718,0.3170,0.0098,86.18,1453.74,-218.81
15630,-3.8717,0.3182,0.0454,586.18,1250.61,-1437.50
15640,-3.8716,0.3247,0.0776,742.43,1813.11,953.19
15650,-3.8715,0.3405,0.0951,1570.56,1938.11,250.12
15660,-3.8715,0.3518,0.1024,-413.82,172.49,-499.82
15670,-3.8713,0.3468,0.0990,1039.31,1110.05,1156.43
15680,-3.8713,0.3270,0.0889,398.68,672.55,1984.56
15690,-3.8713,0.2897,0.0837,1867.43,-624.39,-999.88
15700,-3.8712,0.2354,0.0835,1086.18,-1280.70,297.00
15710,-3.8712,0.1812,0.0823,-1866.94,-1312.07,1812.62
15720,-3.8712,0.1490,0.0786,-804.44,-1468.44,-281.13
15730,-3.8711,0.1483,0.0713,-913.82,-1937.26,1500.12
15740,-3.8711,0.1714,0.0604,-1007.57,1125.24,1875.12
15750,-3.8711,0.2057,0.0454,1945.56,-265.32,812.56
15760,-3.8712,0.2438,0.0284,-1663.82,1812.87,-843.69
15770,-3.8712,0.2798,0.0210,-788.82,-358.95,1843.75
15780,-3.8712,0.3123,0.0331,-179.44,-1312.01,1203.12
15790,-3.8712,0.3560,0.0592,-23.19,234.92,1406.31
15800,-3.8712,0.4189,0.0862,1570.56,-421.20,-1515.56
15810,-3.8712,0.4854,0.1090,1633.06,-967.96,-187.38
15820,-3.8711,0.5398,0.1261,-1866.94,1954.04,984.56
15830,-3.8711,0.5757,0.1334,1101.81,141.66,1156.49
15840,-3.8711,0.5913,0.1344,1695.56,1079.22,500.24
15850,-3.8711,0.5907,0.1351,-304.44,1204.22,31.49
15860,-3.8712,0.5812,0.1342,-382.57,1297.97,-327.88
15870,-3.8712,0.5658,0.1320,-1601.32,1172.97,-952.88
15880,-3.8712,0.5402,0.1272,429.93,891.72,1906.49
15890,-3.8712,0.5048,0.1226,1148.68,282.29,547.12
15900,-3.8713,0.4688,0.1260,617.43,-311.52,-406.07
15910,-3.8712,0.4420,0.1458,8.06,125.92,0.24
15920,-3.8712,0.4271,0.1826,586.18,-1342.90,-1656.01
15930,-3.8711,0.4171,0.2195,-1320.07,-624.21,1578.43
15940,-3.8710,0.4028,0.2426,1398.68,94.54,234.80
15950,-3.8710,0.3795,0.2531,-429.44,-952.39,-1921.45
15960,-3.8710,0.3491,0.2524,586.18,391.36,-921.39
15970,-3.8710,0.3247,0.2412,695.56,313.17,-1530.76
15980,-3.8710,0.3240,0.2297,1570.56,-1124.39,391.05
15990,-3.8711,0.3502,0.2261,1476.81,1406.86,-1640.20
16000,-3.8711,0.3888,0.2323,836.18,938.17,906.68
16010,-3.8712,0.4254,0.2485,1773.68,1735.11,-124.57
16020,-3.8712,0.4596,0.2701,-1538.82,-186.71,-608.95
16030,-3.8712,0.4983,0.2954,-1163.82,-1421.02,-327.64
16040,-3.8711,0.5436,0.3285,-210.69,1813.42,1672.42
16050,-3.8710,0.5864,0.3712,1586.18,-1952.09,1813.11
16060,-3.8708,0.6119,0.4131,-929.44,-483.28,-796.20
16070,-3.8706,0.6067,0.4421,-1663.82,876.16,375.79
16080,-3.8705,0.5681,0.4546,1664.31,594.91,219.60
16090,-3.8705,0.5098,0.4526,726.81,-1811.40,-1608.52
16100,-3.8705,0.4517,0.4451,1258.06,1938.48,-592.90
16110,-3.8704,0.4087,0.4415,1820.56,969.60,375.85
16120,-3.8704,0.3871,0.4446,320.56,516.42,-1936.65
16130,-3.8702,0.3827,0.4489,1554.93,906.98,297.73
16140,-3.8702,0.3845,0.4504,992.43,1453.86,-1421.02
16150,-3.8701,0.3826,0.4479,1226.81,1656.98,110.23
16160,-3.8701,0.3750,0.4456,976.81,1328.86,641.48
16170,-3.8701,0.3624,0.4518,8.06,1031.98,610.23
16180,-3.8701,0.3450,0.4635,-1601.32,1828.80,500.85
16190,-3.8701,0.3290,0.4705,164.31,-671.20,578.98
16200,-3.8701,0.3174,0.4701,-1882.57,219.36,563.42
16210,-3.8701,0.3059,0.4691,633.06,172.49,125.92
16220,-3.8702,0.2930,0.4738,-835.69,47.42,-170.96
16230,-3.8701,0.2781,0.4784,1508.06,641.17,79.04
16240,-3.8701,0.2542,0.4775,-398.19,1234.86,500.92
16250,-3.8701,0.2157,0.4777,539.31,1125.49,485.29
16260,-3.8701,0.1722,0.4850,-382.57,1140.99,485.29
16270,-3.8701,0.1390,0.4990,-1945.07,-1921.57,1579.04
16280,-3.8701,0.1205,0.5192,1804.93,-124.76,-717.83
16290,-3.8700,0.1141,0.5371,-570.07,-1546.69,1032.23
16300,-3.8700,0.1194,0.5394,-1382.57,750.18,-1670.84
16310,-3.8700,0.1315,0.5249,-710.69,1047.06,-1670.84
16320,-3.8700,0.1379,0.5035,836.18,-812.26,844.73
16330,-3.8701,0.1323,0.4873,1664.31,453.37,-1733.40
16340,-3.8702,0.1173,0.4813,945.56,-1624.76,-639.71
16350,-3.8702,0.1001,0.4810,-976.32,1609.56,657.17
16360,-3.8704,0.0886,0.4780,820.56,1562.68,-1717.83
16370,-3.8704,0.0863,0.4695,-648.19,1187.62,79.04
16380,-3.8705,0.0883,0.4633,-945.07,93.87,1829.04
16390,-3.8706,0.0901,0.4628,-695.07,-703.00,-436.65
16400,-3.8706,0.0940,0.4664,-460.69,-765.50,1516.48
16410,-3.8707,0.1002,0.4780,39.31,-296.69,-30.40
16420,-3.8707,0.1079,0.4988,836.18,1187.68,-1295.96
16430,-3.8707,0.1168,0.5208,1820.56,-156.07,1735.29
16440,-3.8707,0.1228,0.5344,-1038.82,-1343.57,1204.10
16450,-3.8708,0.1212,0.5376,-273.19,406.43,-217.71
16460,-3.8708,0.1143,0.5310,-476.32,812.68,1563.54
16470,-3.8710,0.1044,0.5176,-1366.94,-31.07,-327.15
16480,-3.8710,0.0902,0.5000,1367.43,-1749.82,1219.73
16490,-3.8711,0.0747,0.4756,-445.07,0.12,1719.73
16500,-3.8712,0.0618,0.4447,1570.56,875.12,1782.17
16510,-3.8713,0.0521,0.4076,-85.69,921.94,-1842.90
16520,-3.8715,0.0463,0.3662,-1320.07,171.94,-905.46
16530,-3.8715,0.0402,0.3235,1929.93,-1124.94,266.30
16540,-3.8716,0.0299,0.2833,1148.68,1406.31,1516.24
16550,-3.8717,0.0151,0.2506,-163.82,265.62,-1155.70
16560,-3.8717,-0.0027,0.2263,1945.56,78.12,797.36
16570,-3.8718,-0.0226,0.2069,-335.69,984.31,-62.07
16580,-3.8717,-0.0452,0.1912,1117.43,-1500.06,359.74
16590,-3.8717,-0.0670,0.1820,-1773.19,484.25,1312.87
16600,-3.8717,-0.0830,0.1754,-570.07,-687.68,1765.93
16610,-3.8717,-0.0880,0.1637,1383.06,-1531.43,1547.18
16620,-3.8717,-0.0801,0.1437,742.43,968.57,250.31
16630,-3.8718,-0.0654,0.1176,1758.06,-1593.93,-1827.88
16640,-3.8718,-0.0547,0.0906,-366.94,-937.68,187.68
16650,-3.8719,-0.0582,0.0713,1008.06,-390.75,-1593.63
16660,-3.8719,-0.0745,0.0619,554.93,1140.50,922.00
16670,-3.8719,-0.0890,0.0499,-1523.19,-62.68,15.69
16680,-3.8721,-0.0957,0.0265,617.43,-1593.93,-1140.56
16690,-3.8721,-0.0978,-0.0059,-241.94,-593.99,1015.62
16700,-3.8722,-0.1003,-0.0367,-507.57,-734.62,-953.19
16710,-3.8722,-0.1089,-0.0592,-835.69,-687.74,765.50
16720,-3.8723,-0.1179,-0.0752,-1929.44,437.26,-1312.62
16730,-3.8723,-0.1152,-0.0845,914.31,-1609.62,1421.69
16740,-3.8723,-0.0953,-0.0885,1258.06,1202.88,687.32
16750,-3.8724,-0.0615,-0.0924,-195.07,687.26,-0.18
16760,-3.8724,-0.0277,-0.0974,133.06,187.38,-703.31
16770,-3.8724,-0.0142,-0.1023,461.18,-453.19,-1218.99
16780,-3.8724,-0.0317,-0.1057,-1804.44,-1078.19,-1422.12
16790,-3.8724,-0.0719,-0.1061,-54.44,-1515.75,-906.49
16800,-3.8723,-0.1162,-0.1025,-1195.07,-1562.68,671.63
16810,-3.8723,-0.1506,-0.0970,1133.06,-1109.62,-875.24
16820,-3.8722,-0.1683,-0.0914,726.81,-406.56,1781.01
16830,-3.8722,-0.1648,-0.0875,-1538.82,312.13,-453.31
16840,-3.8721,-0.1414,-0.0858,-1085.69,812.13,62.32
16850,-3.8722,-0.1088,-0.0858,1914.31,1030.94,-672.06
16860,-3.8722,-0.0763,-0.0874,-1913.82,1031.01,1765.44
16870,-3.8722,-0.0485,-0.0890,-1757.57,827.94,327.94
16880,-3.8723,-0.0265,-0.0919,1804.93,624.88,-672.06
16890,-3.8723,-0.0114,-0.0999,617.43,249.94,-1750.18
16900,-3.8723,-0.0054,-0.1124,-1445.07,-765.69,968.51
16910,-3.8723,-0.0051,-0.1254,-679.44,1624.94,77.88
16920,-3.8724,-0.0044,-0.1335,-648.19,-31.31,-156.56
16930,-3.8723,-0.0020,-0.1357,-554.44,-1078.19,280.94
16940,-3.8723,0.0015,-0.1373,-241.94,-1359.44,1093.44
16950,-3.8723,0.0059,-0.1437,195.56,-1578.12,1843.44
16960,-3.8723,0.0070,-0.1555,758.06,1609.38,-1797.18
16970,-3.8723,0.0037,-0.1703,898.68,93.75,1780.94
16980,-3.8723,0.0010,-0.1825,476.81,-1796.88,577.76
16990,-3.8724,0.0026,-0.1858,133.06,640.62,-906.62
17000,-3.8724,0.0112,-0.1771,336.18,218.75,-1609.74
17010,-3.8724,0.0273,-0.1619,1445.56,1328.12,-1047.24
17020,-3.8723,0.0522,-0.1455,-491.94,-718.75,577.76
17030,-3.8723,0.0841,-0.1266,-1304.44,1375.06,-1062.81
17040,-3.8722,0.1161,-0.1077,-1226.32,-203.00,1530.94
17050,-3.8722,0.1398,-0.0935,-1132.57,-1781.07,-125.24
17060,-3.8721,0.1522,-0.0831,1898.68,31.49,-1984.56
17070,-3.8719,0.1558,-0.0728,-507.57,1359.62,437.32
17080,-3.8719,0.1533,-0.0648,-54.44,-1312.26,-1140.81
17090,-3.8718,0.1479,-0.0704,-366.94,-296.63,452.94
17100,-3.8718,0.1421,-0.0907,-1054.44,-1015.38,874.82
17110,-3.8718,0.1376,-0.1105,-1804.44,390.87,734.19
17120,-3.8718,0.1370,-0.1160,1617.43,1859.62,968.51
17130,-3.8718,0.1395,-0.1040,1539.31,1156.49,1702.88
17140,-3.8718,0.1465,-0.0872,1867.43,-1312.26,-1031.49
17150,-3.8717,0.1619,-0.0793,-1241.94,843.99,952.94
17160,-3.8717,0.1779,-0.0789,726.81,1844.06,-156.43
17170,-3.8716,0.1814,-0.0732,-1226.32,1906.56,-797.06
17180,-3.8715,0.1743,-0.0554,-773.19,-1374.69,-1312.68
17190,-3.8713,0.1750,-0.0331,-1679.44,906.56,-1234.50
17200,-3.8712,0.1951,-0.0173,-1585.69,-234.07,-1281.37
17210,-3.8711,0.2234,-0.0099,976.81,1781.62,1062.44
17220,-3.8711,0.2461,-0.0084,601.81,-1265.20,1515.56
17230,-3.8711,0.2615,-0.0138,-491.94,-1077.70,906.19
17240,-3.8711,0.2706,-0.0237,1476.81,-1765.14,249.94
17250,-3.8712,0.2728,-0.0297,-1351.32,969.24,-421.94
17260,-3.8712,0.2721,-0.0282,-1070.07,203.61,-1296.94
17270,-3.8712,0.2789,-0.0217,-1163.82,391.11,1968.69
17280,-3.8712,0.2952,-0.0094,-288.82,1219.24,1671.81
17290,-3.8712,0.3110,0.0093,1789.31,-1202.58,1624.94
17300,-3.8712,0.3224,0.0272,-179.44,1188.05,1875.00
17310,-3.8712,0.3304,0.0281,1273.68,-515.01,-1812.50
17320,-3.8712,0.3365,0.0040,-1695.07,-405.64,1671.88
17330,-3.8712,0.3386,-0.0273,-913.82,516.24,312.50
17340,-3.8713,0.3341,-0.0421,-648.19,500.61,-953.19
17350,-3.8713,0.3289,-0.0352,-1226.32,-1390.01,-1422.00
17360,-3.8713,0.3265,-0.0188,-1898.19,-499.39,-1328.25
17370,-3.8713,0.3215,-0.0012,1804.93,1594.36,-625.06
17380,-3.8712,0.3076,0.0190,1164.31,-155.64,890.56
17390,-3.8712,0.2842,0.0410,-616.94,-1561.95,-1640.62
17400,-3.8712,0.2605,0.0612,383.06,1250.55,-703.06
17410,-3.8711,0.2476,0.0789,1351.81,-171.39,31.31
17420,-3.8711,0.2460,0.0894,-304.44,-1905.82,672.00
17430,-3.8711,0.2533,0.0852,-507.57,-562.07,578.25
17440,-3.8712,0.2704,0.0675,429.93,-1093.26,-812.38
17450,-3.8712,0.2944,0.0488,-1382.57,641.11,562.62
17460,-3.8713,0.3187,0.0461,1695.56,-1749.45,1781.31
17470,-3.8715,0.3395,0.0682,804.93,1906.86,-46.81
17480,-3.8713,0.3586,0.1125,-538.82,734.99,78.25
17490,-3.8713,0.3751,0.1729,1914.31,-1593.08,-671.69
17500,-3.8711,0.3899,0.2412,23.68,-1874.27,1656.56
17510,-3.8708,0.4072,0.3025,1914.31,-1124.27,1437.93
17520,-3.8706,0.4258,0.3378,133.06,-1280.46,422.42
17530,-3.8705,0.4380,0.3422,-1491.94,-764.83,1125.61
17540,-3.8705,0.4381,0.3289,70.56,-202.27,-1093.14
17550,-3.8705,0.4271,0.3094,86.18,-1905.40,-1843.14
17560,-3.8705,0.4126,0.2926,-1320.07,-389.83,797.42
17570,-3.8706,0.4015,0.2838,820.56,1453.92,-546.33
17580,-3.8706,0.3969,0.2816,-601.32,328.86,1672.42
17590,-3.8707,0.3972,0.2856,-1195.07,47.61,-452.58
17600,-3.8707,0.3997,0.2971,-1148.19,563.23,1500.55
17610,-3.8707,0.4023,0.3157,-835.69,-1968.02,94.30
17620,-3.8708,0.4056,0.3357,-491.94,406.98,-686.89
17630,-3.8708,0.4125,0.3589,-70.07,-1030.52,-499.39
17640,-3.8708,0.4188,0.3873,804.93,1938.29,-296.20
17650,-3.8707,0.4271,0.4043,1617.43,1578.92,94.48
17660,-3.8707,0.4385,0.4064,-1320.07,-249.21,1766.36
17670,-3.8707,0.4304,0.4135,133.06,16.48,-983.58
17680,-3.8707,0.3937,0.4333,-898.19,922.67,-639.83
17690,-3.8707,0.3450,0.4543,-1601.32,-530.52,-514.83
17700,-3.8707,0.2996,0.4592,164.31,-1843.08,-717.90
17710,-3.8707,0.2623,0.4453,-1648.19,-1218.20,-1671.02
17720,-3.8707,0.2335,0.4238,1586.18,1000.49,63.35
17730,-3.8708,0.2129,0.4054,1898.68,-1749.57,985.17
17740,-3.8710,0.1996,0.3937,-741.94,-109.01,-1858.64
17750,-3.8710,0.1895,0.3872,1554.93,-1609.01,188.23
17760,-3.8711,0.1801,0.3851,258.06,1562.87,-655.52
17770,-3.8710,0.1744,0.3992,-945.07,1297.18,328.86
17780,-3.8708,0.1775,0.4359,-1663.82,-905.94,63.23
17790,-3.8707,0.1931,0.4824,-1273.19,-202.82,1907.04
17800,-3.8705,0.2157,0.5269,726.81,1750.37,469.67
17810,-3.8704,0.2324,0.5590,-382.57,-562.13,-1905.27
17820,-3.8702,0.2411,0.5712,1758.06,-452.70,1969.79
17830,-3.8702,0.2511,0.5682,-1132.57,1109.80,-14.53
17840,-3.8701,0.2725,0.5603,148.68,734.86,251.10
17850,-3.8702,0.3079,0.5549,-1116.94,-280.76,-920.84
17860,-3.8702,0.3480,0.5598,-585.69,-968.20,860.41
17870,-3.8704,0.3749,0.5754,554.93,-343.08,-1170.84
17880,-3.8704,0.3770,0.5890,-7.57,1656.92,-1858.28
17890,-3.8704,0.3552,0.5938,258.06,-608.64,-1311.40
17900,-3.8704,0.3176,0.5905,1476.81,0.67,-561.34
17910,-3.8704,0.2753,0.5748,664.31,-421.26,-92.65
17920,-3.8704,0.2341,0.5474,-757.57,1578.61,-108.28
17930,-3.8704,0.1958,0.5200,1976.81,-1937.07,-1061.46
17940,-3.8704,0.1671,0.5057,1070.56,-1437.13,1922.85
17950,-3.8704,0.1528,0.5105,1398.68,734.68,-1733.40
17960,-3.8702,0.1526,0.5291,-429.44,1343.99,344.73
17970,-3.8702,0.1663,0.5442,-460.69,-281.01,-936.52
17980,-3.8701,0.1897,0.5453,1289.31,1656.56,1313.54
17990,-3.8701,0.2137,0.5364,289.31,1797.24,-1639.59
18000,-3.8701,0.2249,0.5214,-632.57,656.62,1797.91
18010,-3.8701,0.2175,0.5016,789.31,-1265.20,172.85
18020,-3.8702,0.1974,0.4778,-148.19,203.49,-1952.15
18030,-3.8704,0.1709,0.4507,1273.68,1156.62,-717.83
18040,-3.8704,0.1487,0.4211,1883.06,1687.81,141.48
18050,-3.8705,0.1382,0.3958,-960.69,1906.49,1297.67
18060,-3.8706,0.1329,0.3800,1695.56,-1343.51,-1483.64
18070,-3.8707,0.1259,0.3730,1023.68,640.87,-499.27
18080,-3.8707,0.1206,0.3777,117.43,-249.76,500.67
18090,-3.8708,0.1261,0.3938,-554.44,343.93,-1764.89
18100,-3.8708,0.1404,0.4131,148.68,-1593.51,1266.36
18110,-3.8708,0.1471,0.4337,1976.81,875.24,1016.42
18120,-3.8708,0.1351,0.4575,-1163.82,-484.13,953.92
18130,-3.8708,0.1179,0.4724,1304.93,-1437.26,1500.85
18140,-3.8708,0.1157,0.4609,-898.19,468.93,-1686.58
18150,-3.8708,0.1215,0.4264,-1179.44,-999.82,1985.23
18160,-3.8708,0.1202,0.3864,-445.07,-1421.69,0.79
18170,-3.8710,0.1100,0.3505,-601.32,1453.31,985.11
18180,-3.8711,0.0920,0.3207,-1913.82,859.56,1438.17
18190,-3.8712,0.0709,0.2932,-210.69,1047.00,1438.11
18200,-3.8713,0.0488,0.2672,1086.18,1531.37,1391.17
18210,-3.8715,0.0265,0.2491,-1741.94,-1796.81,1766.11
18220,-3.8716,0.0054,0.2428,-601.32,-109.38,-1093.32
18230,-3.8716,-0.0099,0.2438,695.56,-921.88,-1921.45
18240,-3.8716,-0.0117,0.2438,-1257.57,-781.31,-874.57
18250,-3.8715,0.0012,0.2379,-1491.94,-781.31,625.43
18260,-3.8715,0.0216,0.2253,164.31,-1546.88,1234.80
18270,-3.8715,0.0439,0.2087,-1226.32,843.75,187.93
18280,-3.8716,0.0670,0.1938,1633.06,-1281.19,1484.74
18290,-3.8717,0.0897,0.1819,586.18,812.62,1734.74
18300,-3.8718,0.1073,0.1736,-507.57,-718.63,-1827.82
18310,-3.8719,0.1157,0.1676,1742.43,-1781.07,-327.82
18320,-3.8719,0.1194,0.1573,-1179.44,1453.31,-1640.32
18330,-3.8719,0.1219,0.1438,-710.69,140.81,1890.93
18340,-3.8719,0.1187,0.1331,-382.57,-1593.57,1812.74
18350,-3.8719,0.1085,0.1211,-804.44,1031.43,1906.49
18360,-3.8719,0.0979,0.1022,1898.68,-499.82,1922.06
18370,-3.8719,0.0907,0.0782,539.31,1078.31,1187.68
18380,-3.8721,0.0857,0.0491,-382.57,-1984.25,-687.38
18390,-3.8721,0.0807,0.0139,-1023.19,-1718.63,968.81
18400,-3.8722,0.0696,-0.0226,-1663.82,1781.37,-765.62
18410,-3.8722,0.0488,-0.0520,914.31,1109.50,-1578.19
18420,-3.8722,0.0233,-0.0693,-1741.94,1343.81,-1890.75
18430,-3.8722,0.0024,-0.0793,-1007.57,-875.00,1624.82
18440,-3.8722,-0.0060,-0.0895,320.56,1843.75,452.94
18450,-3.8723,-0.0024,-0.1031,-757.57,562.44,-1187.68
18460,-3.8723,0.0032,-0.1146,-304.44,-1187.56,1077.88
18470,-3.8724,0.0039,-0.1195,414.31,1328.12,-422.12
18480,-3.8724,-0.0010,-0.1228,508.06,703.12,-1531.49
18490,-3.8724,-0.0073,-0.1285,-116.94,296.81,1609.13
18500,-3.8724,-0.0087,-0.1365,-929.44,-437.56,749.69
18510,-3.8726,-0.0015,-0.1447,-1101.32,-1453.19,-547.18
18520,-3.8726,0.0150,-0.1516,-179.44,1499.94,1421.57
18530,-3.8727,0.0359,-0.1610,1929.93,593.75,-969.06
18540,-3.8727,0.0541,-0.1747,601.81,-609.31,1030.88
18550,-3.8728,0.0696,-0.1901,-1070.07,1640.69,-234.74
18560,-3.8728,0.0824,-0.2039,914.31,-328.00,-719.18
18570,-3.8728,0.0897,-0.2152,-1445.07,1906.37,-516.05
18580,-3.8727,0.0938,-0.2234,-507.57,453.25,249.57
18590,-3.8727,0.0930,-0.2244,8.06,-593.57,1265.14
18600,-3.8727,0.0858,-0.2197,-85.69,-718.63,-1516.11
18610,-3.8726,0.0808,-0.2178,-1007.57,-124.88,124.51
18620,-3.8726,0.0848,-0.2170,-1648.19,125.12,1624.57
18630,-3.8726,0.0972,-0.2109,-1132.57,218.87,-1297.30
18640,-3.8726,0.1156,-0.2026,445.56,1000.18,-234.80
18650,-3.8724,0.1354,-0.2006,-1195.07,-1937.32,546.45
18660,-3.8724,0.1539,-0.2048,1336.18,-1671.63,858.95
18670,-3.8724,0.1672,-0.2089,-288.82,1781.49,1233.95
18680,-3.8724,0.1707,-0.2098,1414.31,1265.93,1843.32
18690,-3.8724,0.1693,-0.2094,1851.81,1140.93,-891.05
18700,-3.8723,0.1720,-0.2074,1679.93,1203.43,1124.57
18710,-3.8723,0.1764,-0.2013,-1976.32,1453.43,-1250.43
18720,-3.8723,0.1860,-0.1896,-1413.82,-1765.32,-281.68
18730,-3.8722,0.2072,-0.1787,-179.44,-265.32,187.07
18740,-3.8723,0.2317,-0.1724,-1476.32,1125.37,-109.74
18750,-3.8723,0.2490,-0.1689,1664.31,1937.93,-828.49
18760,-3.8723,0.2542,-0.1716,-116.94,-1624.57,-1469.12
18770,-3.8723,0.2462,-0.1812,539.31,-1968.26,-1344.12
18780,-3.8722,0.2245,-0.1877,-476.32,812.93,30.88
18790,-3.8722,0.1904,-0.1827,742.43,-30.82,-1812.93
18800,-3.8721,0.1544,-0.1694,383.06,609.74,780.88
18810,-3.8721,0.1323,-0.1552,-226.32,-1687.26,-187.87
18820,-3.8719,0.1332,-0.1420,945.56,140.87,-1453.43
18830,-3.8718,0.1542,-0.1321,1054.93,1828.37,843.44
18840,-3.8718,0.1863,-0.1248,-257.57,-906.01,-1094.06
18850,-3.8717,0.2197,-0.1136,-148.19,31.56,827.88
18860,-3.8717,0.2496,-0.0958,133.06,1453.55,-1203.37
18870,-3.8716,0.2773,-0.0719,-38.82,-265.20,734.13
18880,-3.8716,0.3099,-0.0432,-491.94,-1202.64,-1578.31
18890,-3.8716,0.3499,-0.0171,-320.07,-1530.70,-250.12
18900,-3.8715,0.3896,-0.0103,789.31,1813.17,749.94
18910,-3.8715,0.4200,-0.0267,1883.06,-1311.77,1546.81
18920,-3.8715,0.4336,-0.0514,1773.68,578.92,-1765.69
18930,-3.8715,0.4290,-0.0693,-491.94,1422.67,-1484.50
18940,-3.8715,0.4152,-0.0706,-1085.69,-874.21,-1672.06
18950,-3.8715,0.4026,-0.0532,1148.68,-1030.46,-1140.81
18960,-3.8713,0.3934,-0.0244,-460.69,1188.23,1218.63
18970,-3.8712,0.3844,0.0095,-1632.57,875.73,671.81
18980,-3.8711,0.3738,0.0400,1211.18,1219.48,31.25
18990,-3.8711,0.3660,0.0573,-148.19,1125.67,-1343.69
19000,-3.8711,0.3634,0.0571,-1148.19,-671.20,-656.19
19010,-3.8711,0.3665,0.0450,-1476.32,-686.83,-1937.44
19020,-3.8711,0.3708,0.0273,-1085.69,1766.30,0.06
19030,-3.8712,0.3702,0.0092,-523.19,-499.33,1546.88
19040,-3.8713,0.3622,0.0033,-601.32,1172.55,-375.00
19050,-3.8713,0.3459,0.0145,-1632.57,422.55,-984.38
19060,-3.8713,0.3330,0.0361,289.31,1860.05,-359.38
19070,-3.8712,0.3323,0.0645,-1366.94,625.61,1093.81
19080,-3.8712,0.3357,0.0924,-1460.69,250.61,-1062.38
19090,-3.8711,0.3348,0.1150,-1023.19,-171.26,1437.62
19100,-3.8710,0.3247,0.1304,-1132.57,-1280.64,172.06
19110,-3.8710,0.3073,0.1367,1570.56,688.11,-1499.76
19120,-3.8708,0.2876,0.1393,-663.82,1500.55,390.87
19130,-3.8708,0.2717,0.1434,820.56,1828.67,1703.37
19140,-3.8708,0.2679,0.1489,-1210.69,-1640.14,-1702.88
19150,-3.8708,0.2744,0.1534,-1695.07,-937.01,-1843.51
19160,-3.8708,0.2788,0.1571,-866.94,-358.89,1172.12
19170,-3.8710,0.2703,0.1594,-304.44,109.86,-234.07
19180,-3.8710,0.2479,0.1604,-1398.19,406.74,-1093.44
19190,-3.8710,0.2203,0.1595,-257.57,531.68,-1390.32
19200,-3.8710,0.2003,0.1566,211.18,422.30,-1405.94
19210,-3.8710,0.1964,0.1526,1648.68,47.24,-1374.69
19220,-3.8710,0.2096,0.1494,1148.68,-468.38,-1718.51
19230,-3.8710,0.2435,0.1519,-1163.82,-874.63,1406.49
19240,-3.8710,0.3024,0.1663,-820.07,-562.07,1031.49
19250,-3.8710,0.3800,0.1995,-1288.82,1281.80,1172.18
19260,-3.8710,0.4685,0.2451,648.68,1531.98,1734.74
19270,-3.8710,0.5521,0.2916,-23.19,-624.15,-280.82
19280,-3.8708,0.6045,0.3336,-1320.07,1329.16,-1577.58
19290,-3.8707,0.6158,0.3669,1383.06,-1295.72,984.99
19300,-3.8707,0.5990,0.3873,-1163.82,-1030.09,-983.70
19310,-3.8707,0.5743,0.3928,679.93,1579.28,-93.02
19320,-3.8707,0.5579,0.3849,1523.68,-1717.65,-796.14
19330,-3.8707,0.5530,0.3678,-585.69,1266.66,938.23
19340,-3.8708,0.5575,0.3484,-1210.69,-920.84,1719.42
19350,-3.8710,0.5653,0.3364,-632.57,594.79,-1405.58
19360,-3.8711,0.5679,0.3368,367.43,-936.40,-61.89
19370,-3.8711,0.5612,0.3450,695.56,-889.53,1594.36
19380,-3.8712,0.5426,0.3528,-163.82,157.29,-233.70
19390,-3.8712,0.5120,0.3539,1461.18,1157.29,-1968.08
19400,-3.8713,0.4803,0.3485,1539.31,1297.85,-61.83
19410,-3.8713,0.4645,0.3413,1492.43,610.29,1438.17
19420,-3.8715,0.4711,0.3362,-538.82,-311.65,-1436.89
19430,-3.8716,0.4946,0.3337,304.93,-967.83,-718.14
19440,-3.8717,0.5225,0.3368,-679.44,-1280.33,-358.76
19450,-3.8717,0.5419,0.3442,-1116.94,-889.65,16.24
19460,-3.8718,0.5472,0.3517,1367.43,63.54,1000.67
19470,-3.8719,0.5413,0.3593,-1945.07,1016.66,-999.33
19480,-3.8719,0.5316,0.3689,1289.31,1985.41,-1358.70
19490,-3.8718,0.5215,0.3866,54.93,-780.21,844.42
19500,-3.8717,0.5044,0.4125,-1241.94,1485.35,1156.98
19510,-3.8716,0.4785,0.4342,570.56,797.85,1953.92
19520,-3.8715,0.4502,0.4440,1258.06,-420.96,-1874.21
19530,-3.8713,0.4261,0.4426,1633.06,828.98,1219.60
19540,-3.8713,0.4127,0.4392,-1445.07,657.04,-436.65
19550,-3.8712,0.4060,0.4467,836.18,219.54,1657.10
19560,-3.8711,0.4061,0.4686,-23.19,1172.61,32.10
19570,-3.8711,0.4196,0.4998,-7.57,-14.89,-561.65
19580,-3.8710,0.4482,0.5345,1711.18,-30.46,-436.58
19590,-3.8708,0.4856,0.5662,1383.06,422.73,-327.09
19600,-3.8707,0.5194,0.5852,-1835.69,469.67,-952.03
19610,-3.8706,0.5400,0.5835,-1507.57,-1092.77,829.22
19620,-3.8706,0.5399,0.5630,1133.06,-1311.46,876.10
19630,-3.8707,0.5181,0.5360,1117.43,63.54,-452.03
19640,-3.8707,0.4817,0.5149,-1679.44,610.35,-1952.09
19650,-3.8707,0.4410,0.5024,1664.31,1907.17,1235.35
19660,-3.8707,0.4048,0.4980,461.18,313.35,1032.23
19670,-3.8707,0.3739,0.5070,-179.44,-249.27,1219.67
19680,-3.8707,0.3451,0.5272,-132.57,891.30,1907.23
19690,-3.8707,0.3209,0.5488,179.93,-514.95,-749.02
19700,-3.8706,0.3069,0.5615,1086.18,-1749.39,1126.04
19710,-3.8706,0.3025,0.5585,-710.69,-124.45,-1311.46
19720,-3.8706,0.3008,0.5427,-1273.19,-515.08,-827.09
19730,-3.8706,0.2913,0.5239,-1491.94,1469.30,-1655.21
19740,-3.8706,0.2679,0.5055,1289.31,-936.95,610.35
19750,-3.8707,0.2350,0.4860,-1695.07,703.61,-1170.90
19760,-3.8707,0.2030,0.4661,-1913.82,-1796.45,1094.67
19770,-3.8708,0.1826,0.4476,1992.43,-343.38,-655.40
19780,-3.8708,0.1791,0.4342,-616.94,1297.18,1563.35
19790,-3.8708,0.1915,0.4326,-1070.07,-421.57,63.29
19800,-3.8710,0.2124,0.4463,523.68,-624.63,-358.58
19810,-3.8708,0.2334,0.4648,-804.44,1125.37,78.98
19820,-3.8708,0.2505,0.4771,1883.06,-499.57,563.35
19830,-3.8708,0.2585,0.4786,70.56,1062.99,641.54
19840,-3.8710,0.2567,0.4653,1101.81,1266.11,-14.71
19850,-3.8710,0.2515,0.4398,867.43,-437.01,-1639.77
19860,-3.8710,0.2458,0.4142,195.56,297.36,0.85
19870,-3.8711,0.2410,0.3939,-523.19,1016.05,1157.04
19880,-3.8712,0.2391,0.3762,-1148.19,-1577.70,-1608.64
19890,-3.8712,0.2396,0.3617,-1382.57,156.68,31.98
19900,-3.8713,0.2393,0.3533,-1320.07,-1702.70,1860.05
19910,-3.8715,0.2349,0.3523,-1366.94,1219.18,-30.58
19920,-3.8715,0.2228,0.3572,-1929.44,1094.18,-1718.08
19930,-3.8715,0.2024,0.3625,523.68,1719.18,875.67
19940,-3.8716,0.1824,0.3645,1914.31,-1593.38,-93.08
19950,-3.8716,0.1749,0.3679,-648.19,-1343.44,-1155.58
19960,-3.8716,0.1880,0.3768,-1601.32,-905.94,-1874.33
19970,-3.8716,0.2223,0.3870,70.56,234.74,-1624.27
19980,-3.8716,0.2637,0.3953,461.18,1531.68,-1155.52
19990,-3.8716,0.2888,0.3989,1758.06,-1405.76,-936.77
20000,-3.8716,0.2794,0.3932,976.81,-936.95,-608.64
20010,-3.8716,0.2369,0.3776,-226.32,-1671.39,-358.64
20020,-3.8716,0.1774,0.3553,-1663.82,328.55,-93.02
20030,-3.8715,0.1158,0.3304,-1288.82,1484.68,313.17
20040,-3.8715,0.0670,0.3048,-1163.82,-1702.94,516.24
20050,-3.8715,0.0420,0.2788,586.18,-984.25,484.92
20060,-3.8715,0.0399,0.2522,1383.06,-312.44,31.74
20070,-3.8716,0.0526,0.2278,1117.43,281.31,-983.89
20080,-3.8716,0.0723,0.2118,-1257.57,1156.31,1312.93
20090,-3.8717,0.0918,0.2081,1258.06,-890.50,-93.38
20100,-3.8717,0.1055,0.2124,-241.94,-1359.25,-296.51
20110,-3.8716,0.1123,0.2139,1508.06,-812.32,437.87
20120,-3.8716,0.1119,0.2064,-1616.94,-624.82,1109.74
20130,-3.8716,0.1078,0.1912,-1663.82,-1577.94,1078.49
20140,-3.8716,0.1095,0.1719,1804.93,468.93,281.62
20150,-3.8717,0.1207,0.1503,-1976.32,-1999.82,-1234.07
20160,-3.8717,0.1318,0.1278,-538.82,-765.44,1015.87
20170,-3.8718,0.1343,0.1096,883.06,359.62,-812.26
20180,-3.8718,0.1298,0.0948,1195.56,-1968.51,1437.68
20190,-3.8718,0.1207,0.0813,617.43,140.87,31.43
20200,-3.8719,0.1095,0.0707,-538.82,-1593.57,-890.50
20210,-3.8719,0.0992,0.0598,-1976.32,1047.06,-1640.50
20220,-3.8719,0.0923,0.0450,711.18,-343.57,1125.06
20230,-3.8721,0.0896,0.0302,-179.44,1765.75,-562.44
20240,-3.8721,0.0906,0.0178,-523.19,-140.50,1515.62
20250,-3.8722,0.0974,0.0079,-398.19,-1718.63,-546.88
20260,-3.8722,0.1110,-0.0018,476.81,1015.81,1890.62
20270,-3.8722,0.1255,-0.0127,-1788.82,-234.19,1078.06
20280,-3.8722,0.1318,-0.0231,70.56,-1624.76,593.69
20290,-3.8722,0.1218,-0.0280,883.06,1047.12,749.94
20300,-3.8722,0.0947,-0.0264,-398.19,422.06,-1968.81
20310,-3.8721,0.0613,-0.0226,133.06,625.18,468.69
20320,-3.8721,0.0381,-0.0234,-148.19,1109.44,-390.69
20330,-3.8719,0.0323,-0.0297,883.06,1000.06,-1781.31
20340,-3.8719,0.0449,-0.0369,148.68,203.19,-609.44
20350,-3.8719,0.0736,-0.0479,1758.06,-718.69,-1000.12
20360,-3.8719,0.1062,-0.0612,1429.93,1875.12,1703.00
20370,-3.8719,0.1293,-0.0692,1601.81,172.06,343.63
20380,-3.8721,0.1387,-0.0737,554.93,-859.13,-343.93
20390,-3.8719,0.1393,-0.0789,1758.06,-1437.26,281.07
20400,-3.8719,0.1385,-0.0804,1836.18,1906.49,1312.32
20410,-3.8719,0.1428,-0.0765,1742.43,1703.37,-1781.43
20420,-3.8719,0.1573,-0.0723,-1710.69,-1796.63,-328.31
20430,-3.8718,0.1744,-0.0693,148.68,-1249.69,1234.19
20440,-3.8718,0.1808,-0.0647,-1663.82,-874.69,-1531.43
20450,-3.8718,0.1799,-0.0591,-851.32,-280.94,-828.31
20460,-3.8718,0.1812,-0.0513,-960.69,437.81,-265.75
20470,-3.8717,0.1805,-0.0417,-804.44,1437.81,374.88
20480,-3.8717,0.1788,-0.0352,-882.57,-1343.44,1062.38
20490,-3.8717,0.1830,-0.0321,-1101.32,-499.69,-1843.87
20500,-3.8717,0.1893,-0.0297,-570.07,-109.07,-562.62
20510,-3.8716,0.1910,-0.0272,242.43,203.49,62.44
20520,-3.8716,0.1887,-0.0282,461.18,515.99,453.06
20530,-3.8716,0.1866,-0.0337,164.31,390.99,1156.19
20540,-3.8716,0.1843,-0.0426,-101.32,-312.19,1578.00
20550,-3.8716,0.1803,-0.0527,-398.19,-1452.82,1515.50
20560,-3.8716,0.1753,-0.0620,-913.82,1250.31,1062.38
20570,-3.8716,0.1705,-0.0708,-1554.44,62.81,281.13
20580,-3.8717,0.1715,-0.0765,1836.18,-1062.19,-640.81
20590,-3.8717,0.1815,-0.0767,1961.18,-1796.57,-1312.68
20600,-3.8717,0.1962,-0.0753,-757.57,-1812.19,-1703.31
20610,-3.8717,0.2122,-0.0739,1117.43,-1640.26,1874.82
20620,-3.8717,0.2258,-0.0691,-835.69,-1452.76,1281.07
20630,-3.8717,0.2368,-0.0646,914.31,-843.32,468.57
20640,-3.8718,0.2462,-0.0631,-1679.44,-265.20,-234.56
20650,-3.8718,0.2498,-0.0616,-476.32,-77.70,-875.18
20660,-3.8718,0.2474,-0.0613,-23.19,109.80,-1515.75
20670,-3.8718,0.2435,-0.0615,-320.07,156.68,-1625.12
20680,-3.8718,0.2380,-0.0593,-820.07,125.43,-1187.62
20690,-3.8718,0.2339,-0.0559,-1523.19,406.68,-359.50
20700,-3.8717,0.2346,-0.0529,1945.56,844.18,656.13
20710,-3.8717,0.2401,-0.0494,-1960.69,1234.80,1609.25
20720,-3.8717,0.2538,-0.0488,-1257.57,1672.30,-1750.12
20730,-3.8717,0.2776,-0.0511,492.43,1750.49,-1718.87
20740,-3.8717,0.3059,-0.0513,-460.69,1453.61,1781.13
20750,-3.8717,0.3317,-0.0446,-835.69,1438.05,1437.38
20760,-3.8717,0.3463,-0.0323,-1538.82,-1702.51,-1922.00
20770,-3.8717,0.3431,-0.0176,336.18,-139.95,-406.37
20780,-3.8716,0.3276,-0.0023,-70.07,1750.61,-1953.19
20790,-3.8715,0.3102,0.0076,1945.56,-296.26,1265.56
20800,-3.8713,0.2963,0.0112,-288.82,969.30,453.12
20810,-3.8713,0.2892,0.0109,1929.93,1438.05,-890.62
20820,-3.8712,0.2886,0.0076,1023.68,1391.17,1265.62
20830,-3.8712,0.2885,0.0044,945.56,969.30,-906.25
20840,-3.8711,0.2817,-0.0015,929.93,563.05,187.50
20850,-3.8711,0.2684,-0.0176,70.56,-186.95,78.06
20860,-3.8712,0.2504,-0.0454,-1632.57,1750.49,-1171.94
20870,-3.8712,0.2299,-0.0737,54.93,-1812.01,874.88
20880,-3.8713,0.2117,-0.0894,1429.93,-1437.07,-1968.93
20890,-3.8715,0.2042,-0.0916,-898.19,562.87,-562.68
20900,-3.8715,0.2148,-0.0862,-1851.32,281.62,-1828.31
20910,-3.8715,0.2383,-0.0742,-491.94,969.12,1202.94
20920,-3.8715,0.2654,-0.0543,-1491.94,-1499.57,77.94
20930,-3.8716,0.2922,-0.0337,1976.81,1047.36,-1781.37
20940,-3.8717,0.3285,-0.0258,1414.31,-311.95,-656.37
20950,-3.8717,0.3826,-0.0302,-1945.07,703.74,578.06
20960,-3.8718,0.4390,-0.0381,976.81,141.36,-1187.56
20970,-3.8718,0.4741,-0.0458,195.56,-874.15,1171.75
20980,-3.8719,0.4819,-0.0516,695.56,-1858.46,-1250.12
20990,-3.8719,0.4758,-0.0540,1695.56,1391.54,765.50
21000,-3.8719,0.4698,-0.0507,914.31,1094.67,234.25
21010,-3.8719,0.4744,-0.0369,148.68,1516.54,749.88
21020,-3.8719,0.5013,-0.0115,726.81,-717.83,1593.63
21030,-3.8719,0.5513,0.0203,179.93,-1467.77,-1625.06
21040,-3.8719,0.6063,0.0538,-1429.44,-1405.21,-984.38
21050,-3.8719,0.6521,0.0869,1617.43,-1108.22,-93.69
21060,-3.8718,0.6831,0.1152,-523.19,-873.78,797.00
21070,-3.8718,0.7029,0.1310,-554.44,-1248.72,1797.06
21080,-3.8718,0.7155,0.1351,1976.81,766.97,-452.88
21090,-3.8717,0.7161,0.1418,-413.82,1298.22,1672.12
21100,-3.8717,0.7056,0.1594,-335.69,-1842.41,-187.26
21110,-3.8716,0.6896,0.1851,-1679.44,407.59,-1593.44
21120,-3.8715,0.6649,0.2205,273.68,-311.16,-1905.94
21130,-3.8713,0.6228,0.2654,1117.43,220.03,-655.82
21140,-3.8711,0.5664,0.3071,-273.19,1969.91,1281.74
21150,-3.8710,0.5110,0.3281,508.06,-686.40,-1249.45
21160,-3.8708,0.4706,0.3190,1414.31,-1999.02,-1436.89
21170,-3.8708,0.4529,0.2883,242.43,829.04,-452.51
21180,-3.8708,0.4572,0.2550,1976.81,907.10,1938.05
21190,-3.8710,0.4810,0.2345,-1476.32,641.48,-1046.39
21200,-3.8711,0.5176,0.2306,1570.56,-1983.46,-93.32
21210,-3.8711,0.5531,0.2404,-1741.94,1516.60,-1780.82
21220,-3.8711,0.5704,0.2595,-1195.07,-1233.34,-1999.57
21230,-3.8711,0.5601,0.2881,1023.68,1219.85,-1374.51
21240,-3.8710,0.5305,0.3281,-304.44,876.04,63.05
21250,-3.8710,0.5013,0.3633,-85.69,-1999.02,1938.11
21260,-3.8710,0.4834,0.3708,179.93,-1499.02,-1061.83
21270,-3.8710,0.4764,0.3496,1883.06,-530.33,-1952.45
21280,-3.8711,0.4753,0.3148,992.43,750.92,-733.70
21290,-3.8712,0.4767,0.2844,851.81,297.79,-265.01
21300,-3.8712,0.4863,0.2681,1023.68,407.17,813.05
21310,-3.8713,0.5083,0.2645,-1741.94,-1686.58,-1062.01
21320,-3.8713,0.5367,0.2710,1070.56,1860.35,-1921.39
21330,-3.8713,0.5651,0.2913,711.18,-1311.46,1578.61
21340,-3.8713,0.5933,0.3339,336.18,1282.35,-1874.45
21350,-3.8712,0.6135,0.4015,-54.44,-1264.53,938.11
21360,-3.8711,0.6096,0.4867,-1460.69,-608.22,1938.23
21370,-3.8708,0.5814,0.5723,-1960.69,-1701.97,610.29
21380,-3.8707,0.5446,0.6260,-1570.07,1251.10,-483.28
21390,-3.8705,0.5112,0.6239,1711.18,126.04,563.72
21400,-3.8705,0.4813,0.5807,1445.56,-139.65,-1701.97
21410,-3.8705,0.4475,0.5282,1617.43,-1670.96,782.35
21420,-3.8706,0.4100,0.4862,1289.31,-389.77,-1530.27
21430,-3.8706,0.3705,0.4651,492.43,-1764.83,1563.42
21440,-3.8706,0.3253,0.4688,-570.07,-468.08,-1749.15
21450,-3.8705,0.2797,0.4893,1648.68,0.61,297.79
21460,-3.8705,0.2454,0.5092,-195.07,-1374.51,-1264.71
21470,-3.8704,0.2319,0.5173,-585.69,1172.30,329.10
21480,-3.8704,0.2428,0.5173,1695.56,-1780.82,954.10
21490,-3.8704,0.2722,0.5192,-913.82,-1780.82,750.98
21500,-3.8705,0.3121,0.5244,-1148.19,-1546.39,-452.15
21510,-3.8705,0.3517,0.5266,-38.82,-874.45,1422.85
21520,-3.8706,0.3741,0.5239,1023.68,-593.08,-1295.90
21530,-3.8707,0.3669,0.5206,-101.32,-936.83,-14.65
21540,-3.8707,0.3333,0.5172,-1023.19,-1358.70,1969.73
21550,-3.8707,0.2865,0.5096,-1335.69,-1796.26,922.85
21560,-3.8707,0.2444,0.5009,679.93,1234.92,422.85
21570,-3.8707,0.2202,0.4990,-710.69,109.80,250.98
21580,-3.8707,0.2155,0.5044,195.56,-124.57,375.92
21590,-3.8707,0.2244,0.5083,-413.82,562.87,813.48
21600,-3.8707,0.2373,0.5046,726.81,1062.93,922.85
21610,-3.8707,0.2430,0.4943,-1616.94,594.18,157.23
21620,-3.8708,0.2399,0.4795,-882.57,-733.95,-1405.33
21630,-3.8708,0.2350,0.4637,-1288.82,1375.43,469.67
21640,-3.8710,0.2311,0.4519,-1913.82,-640.20,-1967.90
21650,-3.8711,0.2273,0.4454,1586.18,1844.18,-452.27
21660,-3.8711,0.2223,0.4397,1101.81,1016.05,1469.60
21670,-3.8712,0.2161,0.4323,461.18,281.68,-233.52
21680,-3.8712,0.2094,0.4296,-335.69,-671.51,-1499.21
21690,-3.8712,0.2006,0.4396,-1195.07,-1015.26,-1686.71
21700,-3.8712,0.1946,0.4586,1679.93,265.99,-467.90
21710,-3.8711,0.1989,0.4738,914.31,-1296.51,1766.48
21720,-3.8711,0.2078,0.4766,1461.18,640.99,-280.33
21730,-3.8710,0.2118,0.4674,-1398.19,1000.37,235.29
21740,-3.8711,0.2078,0.4498,-882.57,-171.51,-592.90
21750,-3.8711,0.1940,0.4272,-1398.19,1578.49,1735.23
21760,-3.8712,0.1683,0.4047,836.18,-1312.13,-77.33
21770,-3.8712,0.1381,0.3822,1554.93,-202.82,-1655.52
21780,-3.8712,0.1185,0.3579,1679.93,922.12,1047.61
21790,-3.8713,0.1173,0.3354,-820.07,1812.68,-155.58
21800,-3.8713,0.1304,0.3181,-976.32,-1062.32,-1718.14
21810,-3.8713,0.1478,0.3097,695.56,718.99,766.24
21820,-3.8715,0.1594,0.3080,-1070.07,-359.13,-140.08
21830,-3.8715,0.1610,0.2999,414.31,-577.82,-358.83
21840,-3.8715,0.1544,0.2814,617.43,-1609.07,-171.33
21850,-3.8715,0.1429,0.2566,-226.32,15.87,-140.08
21860,-3.8715,0.1321,0.2335,-1695.07,843.99,-452.64
21870,-3.8715,0.1262,0.2170,914.31,1890.87,-1233.95
21880,-3.8715,0.1252,0.2010,164.31,-218.51,1750.37
21890,-3.8715,0.1261,0.1827,39.31,1734.62,844.12
21900,-3.8715,0.1255,0.1641,148.68,-609.13,62.81
21910,-3.8716,0.1202,0.1494,70.56,1000.24,-234.07
21920,-3.8716,0.1088,0.1459,-601.32,-874.82,-218.51
21930,-3.8715,0.0981,0.1493,1929.93,-1327.94,265.87
21940,-3.8715,0.0942,0.1512,570.56,-890.44,1484.62
21950,-3.8715,0.0950,0.1536,70.56,-640.44,-1046.63
21960,-3.8713,0.0967,0.1586,164.31,-343.57,468.99
21970,-3.8713,0.0969,0.1593,383.06,297.06,1672.18
21980,-3.8713,0.0974,0.1501,414.31,390.81,1812.81
21990,-3.8713,0.1025,0.1313,476.81,-781.07,187.74
22000,-3.8715,0.1095,0.1039,1133.06,812.68,890.87
22010,-3.8716,0.1122,0.0740,-1976.32,1297.06,718.93
22020,-3.8717,0.1089,0.0480,-1632.57,1468.93,375.12
22030,-3.8718,0.0961,0.0262,1945.56,-1859.19,843.81
22040,-3.8719,0.0704,0.0106,304.93,-640.44,-1281.25
22050,-3.8719,0.0365,0.0022,1023.68,1359.50,-1890.62
22060,-3.8719,-0.0005,-0.0011,679.93,281.31,-1046.88
22070,-3.8718,-0.0369,-0.0033,-54.44,-125.06,437.44
22080,-3.8718,-0.0638,-0.0043,-710.69,-406.37,-1468.81
22090,-3.8717,-0.0806,-0.0050,-163.82,-531.43,1312.44
22100,-3.8716,-0.0876,-0.0063,1695.56,-625.18,46.81
22110,-3.8716,-0.0798,-0.0071,789.31,-797.06,1953.06
22120,-3.8716,-0.0591,-0.0100,1789.31,-890.81,-1250.06
22130,-3.8716,-0.0337,-0.0150,445.56,-1265.75,-1093.81
22140,-3.8716,-0.0137,-0.0156,-304.44,-1906.37,-1125.06
22150,-3.8716,-0.0031,-0.0084,-1741.94,-1984.44,-546.94
22160,-3.8715,0.0001,0.0059,-382.57,-1062.56,984.31
22170,-3.8715,-0.0011,0.0225,23.68,750.00,-843.75
22180,-3.8713,-0.0067,0.0330,-132.57,-1109.44,1296.88
22190,-3.8713,-0.0145,0.0314,-851.32,234.31,-1390.56
22200,-3.8713,-0.0184,0.0199,-1851.32,31.19,-1156.19
22210,-3.8713,-0.0209,0.0024,1648.68,-1437.56,1859.38
22220,-3.8715,-0.0259,-0.0168,1336.18,328.06,-109.38
22230,-3.8715,-0.0320,-0.0311,695.56,1859.31,1265.56
22240,-3.8716,-0.0370,-0.0394,-85.69,31.13,-1390.69
22250,-3.8716,-0.0398,-0.0443,-726.32,-1031.37,562.38
22260,-3.8717,-0.0374,-0.0472,-1085.69,-1656.37,-937.62
22270,-3.8717,-0.0289,-0.0483,-773.19,1968.63,1843.63
22280,-3.8717,-0.0215,-0.0472,304.93,1828.06,906.13
22290,-3.8717,-0.0184,-0.0443,1258.06,1968.69,296.75
22300,-3.8718,-0.0145,-0.0444,1648.68,-1656.31,-343.87
22310,-3.8718,-0.0054,-0.0529,-1851.32,-1671.94,-1140.75
22320,-3.8718,0.0039,-0.0675,-679.44,1249.94,1796.75
22330,-3.8718,0.0083,-0.0833,508.06,-640.62,140.44
22340,-3.8719,0.0112,-0.0980,1070.56,1343.75,1952.94
22350,-3.8721,0.0165,-0.1128,1445.56,-546.88,-234.62
22360,-3.8721,0.0248,-0.1243,-1882.57,1562.50,1968.51
22370,-3.8721,0.0353,-0.1296,-820.07,93.75,765.38
22380,-3.8721,0.0437,-0.1306,523.68,-593.69,202.82
22390,-3.8722,0.0464,-0.1355,1601.81,-718.69,-156.56
22400,-3.8722,0.0458,-0.1492,1945.56,-1343.69,-734.68
22410,-3.8722,0.0461,-0.1675,1867.43,906.31,1921.57
22420,-3.8723,0.0509,-0.1836,1914.31,-1437.44,-125.37
22430,-3.8723,0.0645,-0.1938,-1476.32,500.06,1702.76
22440,-3.8723,0.0839,-0.1980,258.06,-812.38,15.20
22450,-3.8724,0.1003,-0.1964,-1257.57,-1343.63,-891.05
22460,-3.8724,0.1101,-0.1940,851.81,-1140.44,-937.93
22470,-3.8724,0.1157,-0.1937,-1898.19,-827.94,-62.93
22480,-3.8723,0.1189,-0.1951,-1179.44,-796.69,1265.20
22490,-3.8723,0.1206,-0.1952,-773.19,-968.57,-1609.80
22500,-3.8723,0.1249,-0.1904,-554.44,-984.19,-906.68
22510,-3.8723,0.1384,-0.1870,-7.57,-374.82,-453.55
22520,-3.8722,0.1606,-0.1932,1726.81,62.74,249.63
22530,-3.8722,0.1796,-0.2023,570.56,-734.07,1327.70
22540,-3.8722,0.1815,-0.2009,-1007.57,-1890.32,-891.05
22550,-3.8721,0.1660,-0.1851,-757.57,-1718.44,1999.57
22560,-3.8719,0.1449,-0.1616,1258.06,312.81,1687.13
22570,-3.8718,0.1289,-0.1418,-1445.07,-687.26,1749.63
22580,-3.8717,0.1204,-0.1328,508.06,1843.99,1468.44
22590,-3.8717,0.1178,-0.1342,-585.69,-999.82,-62.81
22600,-3.8716,0.1190,-0.1390,-913.82,-1171.69,1218.44
22610,-3.8716,0.1202,-0.1431,-757.57,-1796.69,1812.19
22620,-3.8716,0.1221,-0.1442,-601.32,1687.68,1874.69
22630,-3.8716,0.1257,-0.1351,-366.94,1547.06,1343.44
22640,-3.8716,0.1261,-0.1133,101.81,-1296.63,390.32
22650,-3.8717,0.1215,-0.0868,148.68,1500.24,-218.99
22660,-3.8717,0.1194,-0.0657,-445.07,890.81,-406.43
22670,-3.8717,0.1262,-0.0553,-710.69,-406.07,-1203.31
22680,-3.8717,0.1450,-0.0598,164.31,922.12,578.00
22690,-3.8718,0.1829,-0.0793,-1429.44,343.99,953.00
22700,-3.8719,0.2428,-0.1110,-585.69,1844.06,546.69
22710,-3.8721,0.3182,-0.1473,-913.82,1797.30,218.51
22720,-3.8722,0.3993,-0.1722,742.43,1141.24,1374.69
22730,-3.8722,0.4697,-0.1752,-882.57,1953.86,640.26
22740,-3.8722,0.5145,-0.1595,133.06,1579.04,1780.88
22750,-3.8721,0.5281,-0.1320,1867.43,-420.90,515.26
22760,-3.8719,0.5085,-0.1008,-398.19,-889.65,593.44
22770,-3.8718,0.4637,-0.0826,1101.81,-905.27,1249.76
22780,-3.8717,0.4135,-0.0886,-632.57,1422.73,1406.07
22790,-3.8716,0.3762,-0.1071,929.93,657.04,249.82
22800,-3.8716,0.3610,-0.1215,164.31,-1702.39,1499.76
22810,-3.8716,0.3685,-0.1262,-1788.82,453.80,-1515.87
22820,-3.8715,0.3920,-0.1185,-820.07,-155.58,452.82
22830,-3.8715,0.4220,-0.0974,-1820.07,828.86,-734.62
22840,-3.8713,0.4437,-0.0719,-1976.32,-467.96,-1781.49
22850,-3.8712,0.4437,-0.0554,804.93,-1202.27,499.82
22860,-3.8712,0.4283,-0.0488,804.93,907.10,-1937.62
22870,-3.8712,0.4119,-0.0463,-1163.82,1750.79,-984.50
22880,-3.8712,0.4025,-0.0492,726.81,-1921.08,-578.25
22890,-3.8712,0.4008,-0.0540,-476.32,1703.86,-718.87
22900,-3.8712,0.3981,-0.0526,-695.07,1094.48,-1953.25
22910,-3.8713,0.3921,-0.0464,-1038.82,1266.36,-218.87
22920,-3.8713,0.3896,-0.0422,-1804.44,-1936.77,1374.88
22930,-3.8715,0.3883,-0.0381,1883.06,-1405.52,-234.50
22940,-3.8715,0.3796,-0.0286,1711.18,-874.27,-843.87
22950,-3.8715,0.3636,-0.0099,601.81,344.48,-562.56
22960,-3.8713,0.3420,0.0258,-1445.07,-1264.95,1062.44
22970,-3.8712,0.3177,0.0730,-210.69,-702.51,31.25
22980,-3.8712,0.2991,0.1045,679.93,1344.36,-640.50
22990,-3.8711,0.2908,0.1050,-1710.69,1375.55,1687.68
23000,-3.8711,0.2894,0.0869,1226.81,1438.05,-1718.57
23010,-3.8711,0.2900,0.0693,1054.93,-874.45,1297.00
23020,-3.8712,0.2968,0.0625,1133.06,875.55,-484.25
23030,-3.8712,0.3179,0.0707,1992.43,0.55,1937.62
23040,-3.8712,0.3500,0.0952,695.56,1047.49,1343.87
23050,-3.8712,0.3804,0.1298,804.93,188.17,1937.68
23060,-3.8712,0.4060,0.1658,695.56,610.11,-952.88
23070,-3.8711,0.4293,0.2002,-23.19,1219.48,328.43
23080,-3.8711,0.4476,0.2289,-1038.82,1625.79,-1968.38
23090,-3.8711,0.4591,0.2418,1304.93,1297.73,-124.57
23100,-3.8710,0.4636,0.2391,-1226.32,-1046.02,1203.55
23110,-3.8710,0.4570,0.2281,-648.19,-1389.77,1719.18
23120,-3.8710,0.4436,0.2129,-1491.94,1203.98,1859.80
23130,-3.8710,0.4326,0.2078,789.31,-749.15,1890.99
23140,-3.8710,0.4258,0.2271,-616.94,-1405.46,-1702.76
23150,-3.8710,0.4314,0.2604,-1491.94,1063.29,-437.07
23160,-3.8708,0.4598,0.2902,-773.19,1328.92,1219.24
23170,-3.8708,0.5026,0.3152,-1132.57,1141.48,-1171.33
23180,-3.8708,0.5391,0.3362,336.18,344.73,-452.51
23190,-3.8708,0.5553,0.3508,1008.06,-967.71,-702.51
23200,-3.8708,0.5468,0.3677,-913.82,907.29,-655.58
23210,-3.8708,0.5155,0.3820,1992.43,-936.46,-61.83
