timestamp_ms,ax,ay,az,gx,gy,gz
0,-3.8711,0.4548,0.2019,-1460.69,485.17,-546.51
10,-3.8710,0.4827,0.2230,-1773.19,1844.60,-1874.63
20,-3.8708,0.4904,0.2406,1789.31,547.79,1734.80
30,-3.8707,0.4773,0.2438,-1226.32,-1202.21,531.68
40,-3.8707,0.4515,0.2255,1101.81,-795.96,687.93
50,-3.8708,0.4207,0.1863,1804.93,860.23,1250.43
60,-3.8711,0.3962,0.1387,1851.81,-155.46,-1687.19
70,-3.8713,0.3933,0.0978,-1273.19,1750.73,1484.62
80,-3.8716,0.4191,0.0726,-1648.19,516.36,1672.06
90,-3.8717,0.4604,0.0725,1648.68,1297.67,1468.87
100,-3.8717,0.4984,0.0953,-1054.44,1282.10,1265.75
110,-3.8717,0.5283,0.1257,-195.07,204.04,-77.94
120,-3.8715,0.5458,0.1536,-366.94,94.73,187.74
130,-3.8713,0.5482,0.1722,1867.43,-342.71,343.99
140,-3.8713,0.5492,0.1750,-1820.07,-1952.09,-1171.57
150,-3.8713,0.5544,0.1567,-1695.07,-1592.71,-859.07
160,-3.8713,0.5511,0.1213,-1023.19,63.54,953.43
170,-3.8715,0.5392,0.0793,-1445.07,-467.71,187.68
180,-3.8717,0.5287,0.0386,1023.68,-1842.71,1922.00
190,-3.8718,0.5221,0.0046,-320.07,938.48,281.31
200,-3.8719,0.5203,-0.0206,-1163.82,594.73,328.12
210,-3.8721,0.5189,-0.0348,-1398.19,1360.35,-1625.06
220,-3.8721,0.5071,-0.0292,-1570.07,-452.15,-1437.62
230,-3.8719,0.4873,-0.0015,914.31,266.60,453.06
240,-3.8719,0.4738,0.0344,-1616.94,-186.58,-203.19
250,-3.8717,0.4775,0.0623,648.68,407.17,15.69
260,-3.8717,0.5027,0.0785,1133.06,-30.33,-343.69
270,-3.8716,0.5421,0.0817,351.81,-1952.15,1250.12
280,-3.8716,0.5790,0.0699,1398.68,-1545.84,937.62
290,-3.8717,0.6000,0.0519,-1882.57,954.22,-359.25
300,-3.8717,0.6031,0.0369,804.93,-1358.22,-1937.44
310,-3.8717,0.5935,0.0309,1211.18,719.91,1281.31
320,-3.8717,0.5762,0.0359,-23.19,-45.78,-1937.50
330,-3.8716,0.5592,0.0503,1758.06,594.85,46.94
340,-3.8716,0.5510,0.0642,-413.82,-1561.46,-1984.31
350,-3.8716,0.5555,0.0690,-1460.69,219.79,-687.38
360,-3.8716,0.5723,0.0699,-882.57,829.16,-109.25
370,-3.8716,0.5979,0.0713,1258.06,954.22,-124.88
380,-3.8716,0.6263,0.0659,539.31,1126.16,-421.75
390,-3.8716,0.6484,0.0490,179.93,438.72,-1015.50
400,-3.8716,0.6561,0.0283,-991.94,-1733.15,1859.44
410,-3.8716,0.6462,0.0087,-7.57,-373.78,250.00
420,-3.8717,0.6205,-0.0100,-1273.19,1110.60,-1171.88
430,-3.8717,0.5852,-0.0247,-570.07,-1280.09,-1765.69
440,-3.8717,0.5504,-0.0339,-1085.69,844.85,-1484.44
450,-3.8717,0.5269,-0.0382,-1538.82,-342.71,-281.37
460,-3.8716,0.5186,-0.0389,-554.44,-889.65,1890.50
470,-3.8715,0.5222,-0.0380,-1616.94,-983.40,343.63
480,-3.8715,0.5314,-0.0360,-1148.19,-858.40,-1968.87
490,-3.8715,0.5422,-0.0332,23.68,-608.34,-1359.50
500,-3.8715,0.5547,-0.0317,1414.31,-248.96,-1156.37
510,-3.8715,0.5663,-0.0322,-991.94,-61.46,-890.75
520,-3.8715,0.5719,-0.0316,492.43,-123.90,-734.50
530,-3.8715,0.5695,-0.0297,1211.18,-45.78,-843.87
540,-3.8715,0.5585,-0.0273,898.68,204.22,-1000.06
550,-3.8715,0.5393,-0.0234,-507.57,501.04,-890.69
560,-3.8715,0.5164,-0.0133,1039.31,1001.04,-671.94
570,-3.8715,0.4969,0.0067,-1898.19,-1702.15,-500.06
580,-3.8715,0.4835,0.0281,-382.57,860.29,-453.12
590,-3.8715,0.4757,0.0419,1898.68,-405.33,-484.38
600,-3.8715,0.4718,0.0494,898.68,1360.29,-640.56
610,-3.8715,0.4651,0.0553,398.68,-1670.96,-828.06
620,-3.8715,0.4520,0.0624,-460.69,-921.02,-1015.56
630,-3.8715,0.4362,0.0701,1867.43,-14.77,-1124.94
640,-3.8715,0.4269,0.0775,-163.82,969.54,-1687.38
650,-3.8715,0.4286,0.0820,-1351.32,1922.67,765.75
660,-3.8716,0.4348,0.0846,-1132.57,-1499.21,-1453.00
670,-3.8716,0.4392,0.0895,-335.69,-1171.08,187.62
680,-3.8717,0.4382,0.0981,226.81,-546.02,-1734.25
690,-3.8717,0.4340,0.1077,101.81,563.35,1093.93
700,-3.8717,0.4299,0.1176,-445.07,1782.04,609.56
710,-3.8717,0.4292,0.1306,-960.69,-952.33,734.56
720,-3.8717,0.4325,0.1450,-1054.44,719.54,1562.74
730,-3.8717,0.4337,0.1558,-632.57,-1436.71,-984.13
740,-3.8716,0.4248,0.1621,-476.32,-61.71,562.74
750,-3.8716,0.4039,0.1680,-1616.94,750.79,-1890.32
760,-3.8716,0.3776,0.1737,-288.82,1500.73,-171.57
770,-3.8715,0.3506,0.1774,336.18,-1764.89,1937.81
780,-3.8713,0.3268,0.1792,883.06,-1296.20,94.06
790,-3.8713,0.3127,0.1765,1836.18,-1061.89,1375.31
800,-3.8713,0.3064,0.1665,39.31,-1405.64,-1984.07
810,-3.8713,0.2998,0.1581,-773.19,1313.05,-1187.19
820,-3.8713,0.2943,0.1558,-1616.94,234.92,-452.82
830,-3.8713,0.2941,0.1534,1679.93,-61.95,-218.51
840,-3.8713,0.3025,0.1469,1648.68,-358.83,-499.76
850,-3.8713,0.3165,0.1337,-1273.19,-1202.58,-1374.76
860,-3.8713,0.3290,0.1135,523.68,1109.99,1265.87
870,-3.8715,0.3405,0.0942,-1882.57,-1468.14,-468.57
880,-3.8715,0.3558,0.0851,-413.82,63.11,1312.68
890,-3.8716,0.3756,0.0847,1554.93,-1108.70,-843.63
900,-3.8716,0.3953,0.0879,86.18,-1155.52,-1953.00
910,-3.8716,0.4050,0.1012,-1398.19,-749.27,-781.13
920,-3.8715,0.4032,0.1357,-148.19,953.86,-812.32
930,-3.8712,0.4003,0.1881,-382.57,1375.73,1297.12
940,-3.8710,0.4026,0.2433,-757.57,78.86,1125.37
950,-3.8707,0.4091,0.2898,-460.69,-858.64,-1796.45
960,-3.8705,0.4131,0.3234,367.43,1094.54,-1468.20
970,-3.8704,0.4093,0.3394,883.06,1391.42,-390.01
980,-3.8702,0.4037,0.3362,398.68,-561.71,703.74
990,-3.8704,0.4034,0.3180,-320.07,-968.02,1922.49
1000,-3.8706,0.4110,0.2933,-351.32,703.86,-108.76
1010,-3.8707,0.4196,0.2723,617.43,1547.67,656.80
1020,-3.8710,0.4191,0.2578,1711.18,-1139.83,-1702.64
1030,-3.8711,0.4070,0.2461,1648.68,1000.79,1875.49
1040,-3.8712,0.3812,0.2377,101.81,-499.21,-233.95
1050,-3.8712,0.3439,0.2382,804.93,-1577.39,-640.20
1060,-3.8712,0.3090,0.2480,23.68,-1514.95,-483.95
1070,-3.8712,0.2867,0.2590,-445.07,-249.45,-265.20
1080,-3.8712,0.2710,0.2634,711.18,1156.80,-233.89
1090,-3.8712,0.2542,0.2614,-1304.44,1719.24,-858.89
1100,-3.8712,0.2361,0.2554,539.31,1453.61,1516.11
1110,-3.8713,0.2189,0.2438,-1773.19,687.93,-1171.39
1120,-3.8715,0.2043,0.2271,23.68,-796.45,-405.82
1130,-3.8715,0.1943,0.2119,-1835.69,1062.87,375.43
1140,-3.8716,0.1879,0.2025,883.06,-874.63,1922.24
1150,-3.8716,0.1770,0.1996,54.93,1922.24,734.74
1160,-3.8716,0.1572,0.2034,-1335.69,1547.18,1203.49
1170,-3.8716,0.1317,0.2100,133.06,-1968.44,-530.88
1180,-3.8715,0.1049,0.2207,867.43,-1124.76,-1343.38
1190,-3.8713,0.0833,0.2383,1429.93,250.18,1547.30
1200,-3.8713,0.0676,0.2521,-1335.69,-1499.88,-374.57
1210,-3.8712,0.0542,0.2509,664.31,265.75,1016.11
1220,-3.8712,0.0403,0.2347,-1054.44,109.44,1609.86
1230,-3.8712,0.0243,0.2141,1164.31,-1953.06,1500.43
1240,-3.8712,0.0071,0.1979,-882.57,-593.75,1234.74
1250,-3.8712,-0.0084,0.1870,914.31,1328.12,1469.12
1260,-3.8712,-0.0190,0.1802,-1070.07,-46.94,-1718.44
1270,-3.8712,-0.0239,0.1780,1570.56,-921.94,-1046.57
1280,-3.8712,-0.0232,0.1779,945.56,-1203.19,-515.32
1290,-3.8712,-0.0176,0.1747,1039.31,-1218.81,-30.94
1300,-3.8711,-0.0101,0.1689,1758.06,-1625.06,515.93
1310,-3.8711,-0.0057,0.1625,-1288.82,1640.56,1156.56
1320,-3.8711,-0.0045,0.1565,-726.32,812.44,1875.31
1330,-3.8711,-0.0049,0.1528,-570.07,46.81,-1124.69
1340,-3.8711,-0.0050,0.1521,-616.94,-421.94,-124.76
1350,-3.8710,0.0002,0.1544,-632.57,-515.69,640.87
1360,-3.8710,0.0125,0.1581,39.31,-234.38,1375.24
1370,-3.8710,0.0273,0.1576,1601.81,234.38,1875.31
1380,-3.8710,0.0410,0.1483,-491.94,171.88,1562.81
1390,-3.8710,0.0504,0.1339,1258.06,-1015.56,453.37
1400,-3.8711,0.0564,0.1206,-1538.82,1140.69,-656.01
1410,-3.8711,0.0620,0.1124,-773.19,-562.44,-1046.69
1420,-3.8711,0.0698,0.1155,-54.44,-1609.31,-484.19
1430,-3.8710,0.0828,0.1315,945.56,-1218.63,828.31
1440,-3.8710,0.1002,0.1515,-1398.19,828.25,-1562.26
1450,-3.8710,0.1223,0.1680,836.18,-609.19,-343.51
1460,-3.8708,0.1504,0.1793,-335.69,1500.18,31.56
1470,-3.8710,0.1808,0.1848,-741.94,-1046.63,-499.69
1480,-3.8710,0.2098,0.1865,-851.32,-343.44,-1702.82
1490,-3.8710,0.2350,0.1857,-1132.57,-124.63,734.68
1500,-3.8711,0.2542,0.1785,-1913.82,-233.95,-1093.44
1510,-3.8711,0.2655,0.1647,539.31,-1155.76,1062.81
1520,-3.8712,0.2678,0.1520,1992.43,1078.61,-437.19
1530,-3.8712,0.2640,0.1448,-1710.69,-546.39,-1546.63
1540,-3.8712,0.2614,0.1425,1804.93,-1468.26,1609.62
1550,-3.8712,0.2650,0.1436,1461.18,-1765.14,1047.12
1560,-3.8712,0.2744,0.1442,1929.93,-1624.51,562.74
1570,-3.8713,0.2871,0.1383,-866.94,-1546.39,-187.26
1580,-3.8713,0.2994,0.1266,758.06,1703.67,-968.51
1590,-3.8713,0.3075,0.1152,-1663.82,203.67,-1656.01
1600,-3.8713,0.3123,0.1119,-632.57,-1249.45,1609.56
1610,-3.8713,0.3165,0.1178,-23.19,-1671.33,1156.43
1620,-3.8713,0.3219,0.1268,523.68,-921.26,1781.43
1630,-3.8713,0.3312,0.1396,1211.18,234.99,-577.88
1640,-3.8712,0.3474,0.1555,-1601.32,1875.61,1062.74
1650,-3.8712,0.3706,0.1672,476.81,-93.08,1968.99
1660,-3.8712,0.3969,0.1669,-554.44,1406.92,1328.43
1670,-3.8713,0.4191,0.1522,-1195.07,1360.11,-1062.19
1680,-3.8715,0.4321,0.1326,1648.68,-514.83,-202.88
1690,-3.8715,0.4386,0.1196,-679.44,969.54,937.74
1700,-3.8716,0.4437,0.1160,148.68,-686.65,-1281.07
1710,-3.8716,0.4457,0.1165,804.93,-1155.40,1437.68
1720,-3.8716,0.4363,0.1184,1054.93,-1092.90,1578.31
1730,-3.8716,0.4177,0.1254,-148.19,-842.96,-999.82
1740,-3.8715,0.3995,0.1371,1476.81,47.67,1031.49
1750,-3.8715,0.3881,0.1479,-851.32,1547.61,-921.63
1760,-3.8713,0.3885,0.1528,1679.93,-1061.77,468.99
1770,-3.8713,0.4019,0.1505,1742.43,-436.77,609.62
1780,-3.8715,0.4197,0.1400,-554.44,-733.64,-312.26
1790,-3.8715,0.4298,0.1228,1726.81,1922.67,-1702.88
1800,-3.8715,0.4249,0.1071,-976.32,-280.46,922.06
1810,-3.8715,0.4067,0.1024,-1601.32,1703.92,250.18
1820,-3.8715,0.3827,0.1085,70.56,1110.17,968.93
1830,-3.8715,0.3605,0.1163,992.43,1891.36,-952.94
1840,-3.8713,0.3463,0.1221,-1851.32,-1108.70,1734.56
1850,-3.8713,0.3419,0.1256,336.18,-374.33,-218.57
1860,-3.8712,0.3470,0.1266,-226.32,78.74,593.99
1870,-3.8712,0.3589,0.1251,429.93,203.80,656.49
1880,-3.8712,0.3722,0.1232,1945.56,16.30,390.87
1890,-3.8712,0.3864,0.1259,-351.32,-233.70,187.68
1900,-3.8712,0.4010,0.1355,1461.18,110.11,281.49
1910,-3.8712,0.4108,0.1443,-663.82,1344.48,515.87
1920,-3.8712,0.4109,0.1504,586.18,-1530.46,765.87
1930,-3.8712,0.4053,0.1588,601.81,-749.21,1328.37
1940,-3.8712,0.4011,0.1683,-116.94,328.86,-1671.57
1950,-3.8712,0.4011,0.1775,-648.19,1547.61,-359.07
1960,-3.8711,0.4030,0.1869,-648.19,-1280.52,906.56
1970,-3.8711,0.4062,0.1902,-413.82,-77.39,1390.93
1980,-3.8711,0.4106,0.1815,8.06,344.54,890.99
1990,-3.8712,0.4143,0.1671,570.56,-764.83,-296.57
2000,-3.8712,0.4183,0.1530,1039.31,1391.42,-1937.19
2010,-3.8712,0.4208,0.1387,1554.93,-421.08,250.24
2020,-3.8713,0.4177,0.1228,1867.43,1750.79,-1656.01
2030,-3.8713,0.4099,0.1075,1476.81,-280.46,390.81
2040,-3.8715,0.4021,0.0958,476.81,1766.42,-1499.82
2050,-3.8715,0.3979,0.0881,-523.19,266.36,922.06
2060,-3.8716,0.4028,0.0844,-1054.44,-718.02,-171.75
2070,-3.8716,0.4207,0.0828,-429.44,-1202.39,-1046.75
2080,-3.8716,0.4436,0.0779,1851.81,-1405.46,-1968.63
2090,-3.8716,0.4639,0.0687,789.31,1969.60,593.87
2100,-3.8717,0.4845,0.0612,-616.94,797.73,-1453.00
2110,-3.8717,0.5070,0.0585,-1976.32,-170.96,1062.56
2120,-3.8717,0.5271,0.0574,898.68,-514.65,1000.06
2130,-3.8717,0.5399,0.0553,-523.19,-655.27,-1953.06
2140,-3.8717,0.5442,0.0531,1117.43,-920.84,-546.81
2150,-3.8716,0.5464,0.0511,1664.31,-1202.09,578.19
2160,-3.8716,0.5500,0.0457,1945.56,-1452.09,1296.94
2170,-3.8716,0.5493,0.0338,-1585.69,1844.79,1906.31
2180,-3.8716,0.5430,0.0198,-1679.44,329.16,1921.94
2190,-3.8716,0.5354,0.0059,1508.06,-1467.71,1031.25
2200,-3.8717,0.5315,-0.0067,539.31,751.04,-406.25
2210,-3.8717,0.5408,-0.0126,39.31,-858.34,1812.44
2220,-3.8717,0.5675,-0.0083,1226.81,-1608.34,234.31
2230,-3.8718,0.6014,0.0011,648.68,-1061.40,-343.81
2240,-3.8717,0.6295,0.0098,992.43,141.78,343.75
2250,-3.8717,0.6503,0.0227,586.18,1251.22,-1781.25
2260,-3.8716,0.6703,0.0458,-757.57,-1092.53,484.38
2270,-3.8716,0.6904,0.0687,1804.93,1860.66,-1718.69
2280,-3.8716,0.7051,0.0806,383.06,798.22,-140.50
2290,-3.8715,0.7163,0.0819,-1741.94,-1686.16,1062.62
2300,-3.8715,0.7302,0.0737,-304.44,-1514.28,890.75
2310,-3.8716,0.7402,0.0562,1476.81,1438.90,-968.63
2320,-3.8716,0.7405,0.0338,-1241.94,-811.10,46.94
2330,-3.8717,0.7310,0.0123,-1210.69,329.53,656.31
2340,-3.8718,0.7155,-0.0060,1570.56,1579.53,1812.50
2350,-3.8718,0.6987,-0.0170,-413.82,-764.28,281.19
2360,-3.8719,0.6824,-0.0217,1445.56,1829.47,-343.81
2370,-3.8719,0.6692,-0.0254,-648.19,1220.03,-812.56
2380,-3.8719,0.6600,-0.0284,1664.31,751.28,-1234.44
2390,-3.8719,0.6510,-0.0294,492.43,360.66,-1421.94
2400,-3.8719,0.6390,-0.0281,-663.82,235.60,-1343.81
2410,-3.8719,0.6226,-0.0259,1804.93,407.47,-1203.19
2420,-3.8719,0.6010,-0.0231,-304.44,688.66,-1031.31
2430,-3.8719,0.5781,-0.0187,929.93,1048.03,-593.81
2440,-3.8718,0.5613,-0.0116,-1991.94,1610.47,296.81
2450,-3.8718,0.5543,-0.0043,-148.19,-1483.34,1624.94
2460,-3.8718,0.5558,-0.0001,-1038.82,-545.84,-1109.44
2470,-3.8718,0.5577,0.0020,-851.32,-14.59,-500.06
2480,-3.8718,0.5546,0.0033,-601.32,251.04,-703.12
2490,-3.8718,0.5491,0.0044,-1007.57,422.91,-1437.50
2500,-3.8718,0.5439,0.0052,-1710.69,563.54,1906.25
2510,-3.8718,0.5354,0.0083,1633.06,672.91,-2000.00
2520,-3.8718,0.5217,0.0140,539.31,1063.54,-1109.38
2530,-3.8717,0.5043,0.0203,-1210.69,1797.85,250.00
2540,-3.8717,0.4833,0.0237,554.93,-1405.27,1859.38
2550,-3.8717,0.4614,0.0233,1867.43,-967.83,-484.38
2560,-3.8716,0.4409,0.0214,-929.44,-1014.77,718.75
2570,-3.8716,0.4224,0.0206,445.56,-1264.77,1390.62
2580,-3.8716,0.4052,0.0217,-1929.44,-1358.58,-1968.75
2590,-3.8716,0.3887,0.0242,-132.57,-1218.02,-1062.50
2600,-3.8716,0.3741,0.0283,1758.06,-905.52,-125.00
2610,-3.8715,0.3660,0.0338,-101.32,-374.33,93.75
2620,-3.8716,0.3685,0.0376,-1148.19,328.80,-859.31
2630,-3.8716,0.3817,0.0425,-820.07,813.17,1593.81
2640,-3.8716,0.4019,0.0509,867.43,1438.23,62.56
2650,-3.8717,0.4235,0.0601,-554.44,-1483.64,-1281.19
2660,-3.8717,0.4401,0.0696,-1788.82,-311.71,1890.69
2670,-3.8717,0.4478,0.0813,336.18,907.10,1734.50
2680,-3.8717,0.4436,0.0968,1320.56,-1592.90,-1531.13
2690,-3.8716,0.4275,0.1115,789.31,391.48,422.06
2700,-3.8716,0.4045,0.1212,-1273.19,-1733.58,-812.32
2710,-3.8715,0.3822,0.1284,-210.69,-483.64,1875.18
2720,-3.8715,0.3689,0.1320,929.93,438.23,-468.51
2730,-3.8713,0.3625,0.1302,-773.19,891.30,406.49
2740,-3.8713,0.3555,0.1283,-1585.69,672.55,1172.12
2750,-3.8713,0.3479,0.1304,1508.06,422.55,1515.87
2760,-3.8713,0.3462,0.1342,539.31,688.17,1343.99
2770,-3.8713,0.3577,0.1389,320.56,1172.55,812.74
2780,-3.8713,0.3795,0.1451,1789.31,1781.92,234.62
2790,-3.8715,0.3988,0.1514,586.18,-1421.14,-312.26
2800,-3.8715,0.4028,0.1552,-945.07,-624.27,-624.76
2810,-3.8715,0.3868,0.1578,-429.44,-139.89,-15.38
2820,-3.8713,0.3588,0.1647,1523.68,203.86,-1827.82
2830,-3.8712,0.3339,0.1779,1929.93,1078.80,1469.06
2840,-3.8711,0.3192,0.1893,-1257.57,-1233.76,375.31
2850,-3.8711,0.3143,0.1886,867.43,234.99,1875.37
2860,-3.8711,0.3229,0.1791,242.43,141.24,-1671.51
2870,-3.8711,0.3466,0.1721,1336.18,-1077.51,-1859.07
2880,-3.8711,0.3765,0.1705,367.43,-1968.08,1203.43
2890,-3.8712,0.4025,0.1753,195.56,1828.86,-171.57
2900,-3.8712,0.4208,0.1864,-476.32,-1561.77,-1124.69
2910,-3.8712,0.4303,0.1998,1867.43,-139.83,-577.82
2920,-3.8711,0.4286,0.2114,-913.82,1578.92,1484.74
2930,-3.8711,0.4156,0.2189,-1132.57,-936.71,-202.76
2940,-3.8710,0.3995,0.2225,1211.18,16.42,1187.93
2950,-3.8710,0.3923,0.2206,-851.32,485.11,984.80
2960,-3.8711,0.3977,0.2104,-1773.19,235.11,-655.82
2970,-3.8711,0.4086,0.1987,-1085.69,-1061.77,1187.87
2980,-3.8712,0.4154,0.1906,304.93,1438.29,-796.51
2990,-3.8712,0.4177,0.1854,1179.93,391.42,1703.49
3000,-3.8712,0.4163,0.1844,1476.81,-264.83,1172.18
3010,-3.8712,0.4091,0.1885,1289.31,-389.83,1531.56
3020,-3.8712,0.3976,0.1942,367.43,125.79,1937.87
3030,-3.8712,0.3885,0.2000,-1101.32,860.11,-1984.01
3040,-3.8712,0.3873,0.2043,1742.43,1594.48,1797.24
3050,-3.8712,0.3915,0.2076,1586.18,-1843.02,1344.12
3060,-3.8712,0.3964,0.2109,-1882.57,-1421.14,500.37
3070,-3.8713,0.4012,0.2120,-1257.57,-999.27,-812.13
3080,-3.8713,0.4070,0.2130,-632.57,-858.64,1828.49
3090,-3.8713,0.4105,0.2156,101.81,-733.58,594.12
3100,-3.8715,0.4072,0.2157,554.93,-405.46,-484.01
3110,-3.8715,0.3945,0.2137,133.06,-389.83,-1030.88
3120,-3.8715,0.3707,0.2111,-1491.94,-639.89,-937.13
3130,-3.8715,0.3359,0.2063,-538.82,-983.70,-374.63
3140,-3.8713,0.2986,0.2002,-991.94,-1593.14,140.99
3150,-3.8713,0.2677,0.1975,-1773.19,1625.55,297.24
3160,-3.8715,0.2469,0.1982,-1726.32,1281.74,-15.26
3170,-3.8715,0.2379,0.1962,-382.57,1375.43,-702.76
3180,-3.8715,0.2361,0.1874,-1538.82,1109.80,-1155.88
3190,-3.8715,0.2357,0.1771,-1773.19,-15.20,-1202.82
3200,-3.8715,0.2335,0.1733,-1820.07,-1327.70,-984.07
3210,-3.8715,0.2277,0.1747,1898.68,-1812.07,-359.07
3220,-3.8713,0.2166,0.1753,1148.68,-1640.20,1375.31
3230,-3.8712,0.1971,0.1746,-273.19,-1562.13,203.43
3240,-3.8712,0.1722,0.1729,1242.43,-1655.88,-765.32
3250,-3.8711,0.1467,0.1674,-1945.07,-1874.69,1594.06
3260,-3.8711,0.1227,0.1572,-1210.69,1422.12,-1187.19
3270,-3.8711,0.1025,0.1444,-288.82,125.18,-999.69
3280,-3.8711,0.0898,0.1320,1133.06,-1515.44,-1031.01
3290,-3.8711,0.0831,0.1233,-491.94,890.75,-640.38
3300,-3.8710,0.0790,0.1198,-1351.32,-218.63,328.31
3310,-3.8710,0.0760,0.1212,-1882.57,-671.75,1734.56
3320,-3.8710,0.0750,0.1265,1742.43,-484.25,-859.19
3330,-3.8708,0.0769,0.1331,1601.81,187.62,218.99
3340,-3.8708,0.0836,0.1367,1851.81,1031.37,906.49
3350,-3.8708,0.0944,0.1350,-1288.82,1500.12,1140.87
3360,-3.8708,0.1068,0.1282,86.18,1281.43,828.37
3370,-3.8708,0.1184,0.1183,1679.93,406.43,62.74
3380,-3.8710,0.1279,0.1088,-835.69,-859.19,-937.32
3390,-3.8710,0.1373,0.1006,383.06,1922.12,1906.43
3400,-3.8710,0.1482,0.0964,1586.18,875.24,797.06
3410,-3.8711,0.1619,0.0978,-1023.19,343.99,-93.57
3420,-3.8711,0.1761,0.1024,726.81,515.93,-921.69
3430,-3.8711,0.1873,0.1101,-1445.07,1109.68,-1515.44
3440,-3.8711,0.1973,0.1223,-23.19,-1905.94,-1796.69
3450,-3.8711,0.2098,0.1370,1258.06,-343.38,-1984.19
3460,-3.8711,0.2257,0.1490,-1132.57,1531.62,-1906.01
3470,-3.8711,0.2439,0.1561,898.68,-921.45,-1577.88
3480,-3.8711,0.2610,0.1578,-773.19,-15.20,-968.51
3490,-3.8711,0.2737,0.1547,1414.31,203.61,-671.57
3500,-3.8711,0.2777,0.1484,-960.69,-202.64,-1312.26
3510,-3.8711,0.2736,0.1432,-445.07,-999.51,1343.99
3520,-3.8712,0.2683,0.1429,-976.32,-1671.39,-374.76
3530,-3.8712,0.2678,0.1471,-1648.19,-1702.64,1859.62
3540,-3.8712,0.2747,0.1522,-1710.69,-1171.39,375.24
3550,-3.8713,0.2864,0.1561,-835.69,-515.14,-765.38
3560,-3.8713,0.2964,0.1584,664.31,-15.08,-1859.13
3570,-3.8713,0.3022,0.1595,1945.56,281.80,922.18
3580,-3.8715,0.3059,0.1609,-1304.44,422.42,-202.82
3590,-3.8715,0.3097,0.1667,-835.69,594.30,-687.19
3600,-3.8713,0.3151,0.1776,-351.32,1344.30,94.06
3610,-3.8713,0.3195,0.1895,336.18,-1265.01,-1952.82
3620,-3.8712,0.3184,0.1975,898.68,250.61,234.74
3630,-3.8712,0.3141,0.1990,758.06,1281.86,1672.24
3640,-3.8712,0.3136,0.1934,211.18,1469.36,1562.87
3650,-3.8713,0.3212,0.1824,148.68,750.61,-77.76
3660,-3.8713,0.3356,0.1718,1117.43,-655.64,1562.81
3670,-3.8715,0.3491,0.1680,-1038.82,1984.99,-421.57
3680,-3.8715,0.3593,0.1727,695.56,1500.67,-1546.57
3690,-3.8715,0.3707,0.1816,1992.43,-1889.95,-1765.32
3700,-3.8715,0.3855,0.1906,-538.82,-749.33,-1359.07
3710,-3.8715,0.4005,0.2000,1351.81,391.36,-718.38
3720,-3.8713,0.4105,0.2087,-726.32,1594.48,0.37
3730,-3.8713,0.4155,0.2122,554.93,-1280.46,703.49
3740,-3.8713,0.4182,0.2075,1195.56,-842.96,1156.62
3750,-3.8713,0.4200,0.1979,1539.31,-1436.71,922.24
3760,-3.8715,0.4220,0.1890,1773.68,1328.92,-30.88
3770,-3.8715,0.4230,0.1841,-1976.32,188.29,-1030.88
3780,-3.8715,0.4207,0.1864,-1851.32,-436.71,-1359.07
3790,-3.8715,0.4149,0.1942,1851.81,-139.83,-827.82
3800,-3.8713,0.4066,0.2030,1117.43,860.17,344.12
3810,-3.8713,0.4010,0.2115,54.93,1985.17,1578.49
3820,-3.8713,0.4067,0.2181,-663.82,-921.14,-1655.88
3830,-3.8713,0.4254,0.2195,70.56,-77.33,-1624.63
3840,-3.8713,0.4475,0.2168,-1538.82,94.54,1531.68
3850,-3.8715,0.4663,0.2104,1289.31,-249.15,-155.88
3860,-3.8715,0.4828,0.1985,-304.44,-1061.65,1422.24
3870,-3.8716,0.4958,0.1826,1804.93,1407.17,-1249.63
3880,-3.8716,0.5049,0.1666,-523.19,-624.08,219.06
3890,-3.8717,0.5100,0.1533,633.06,1329.10,1890.93
3900,-3.8717,0.5078,0.1453,1289.31,-374.02,312.74
3910,-3.8718,0.5031,0.1475,1008.06,-1405.27,-218.51
3920,-3.8717,0.5099,0.1588,398.68,-1124.02,140.87
3930,-3.8717,0.5326,0.1700,1273.68,329.10,1187.81
3940,-3.8717,0.5629,0.1774,179.93,1766.66,-1624.69
3950,-3.8717,0.5974,0.1801,54.93,-1295.78,-1187.19
3960,-3.8717,0.6305,0.1755,476.81,-951.97,-1296.57
3970,-3.8717,0.6488,0.1641,711.18,-1530.03,-1530.94
3980,-3.8717,0.6469,0.1472,-945.07,1001.22,1937.81
3990,-3.8717,0.6289,0.1274,-1195.07,-1155.03,906.49
4000,-3.8718,0.6069,0.1100,508.06,313.72,-781.01
4010,-3.8718,0.5962,0.0964,1695.56,-1920.72,1093.93
4020,-3.8719,0.6056,0.0930,320.56,344.91,-484.19
4030,-3.8719,0.6384,0.1090,1523.68,-92.59,-812.38
4040,-3.8718,0.6871,0.1427,1726.81,1954.35,703.31
4050,-3.8717,0.7328,0.1836,-38.82,-1733.09,406.49
4060,-3.8716,0.7632,0.2209,1804.93,-498.60,1453.43
4070,-3.8715,0.7784,0.2455,1695.56,282.71,-1265.20
4080,-3.8713,0.7800,0.2485,-351.32,-576.66,-1218.32
4090,-3.8713,0.7732,0.2217,-148.19,-186.04,-15.20
4100,-3.8713,0.7634,0.1700,-1023.19,376.46,1687.93
4110,-3.8715,0.7461,0.1113,1726.81,1767.09,547.18
4120,-3.8717,0.7228,0.0557,-491.94,-1748.60,-1624.82
4130,-3.8718,0.6986,0.0092,523.68,-873.60,718.81
4140,-3.8719,0.6752,-0.0229,1429.93,1173.22,656.25
4150,-3.8721,0.6565,-0.0441,-1570.07,1063.78,-1515.69
4160,-3.8721,0.6449,-0.0593,39.31,-1639.34,1578.00
4170,-3.8721,0.6378,-0.0667,-1445.07,407.47,1640.50
4180,-3.8721,0.6340,-0.0631,1648.68,-530.03,-1500.18
4190,-3.8721,0.6349,-0.0530,1164.31,-76.90,-187.68
4200,-3.8719,0.6440,-0.0435,1273.68,1219.97,1124.88
4210,-3.8719,0.6620,-0.0386,-1554.44,-1561.28,-1906.37
4220,-3.8719,0.6798,-0.0382,742.43,-936.22,-1422.00
4230,-3.8719,0.6892,-0.0399,-976.32,-889.34,-1500.12
4240,-3.8719,0.6888,-0.0415,226.81,-1108.03,-1937.62
4250,-3.8719,0.6798,-0.0404,179.93,-1311.16,1812.38
4260,-3.8719,0.6660,-0.0360,-976.32,-1170.59,-1984.50
4270,-3.8719,0.6534,-0.0321,1258.06,-608.09,-1468.87
4280,-3.8719,0.6427,-0.0304,-351.32,-108.15,-656.37
4290,-3.8718,0.6299,-0.0295,-1726.32,110.60,296.81
4300,-3.8718,0.6161,-0.0289,633.06,219.97,968.69
4310,-3.8718,0.6046,-0.0292,-1132.57,298.03,1265.56
4320,-3.8718,0.5978,-0.0288,1398.68,266.78,1437.44
4330,-3.8718,0.5963,-0.0295,523.68,313.66,1374.94
4340,-3.8718,0.5977,-0.0343,336.18,219.91,796.81
4350,-3.8719,0.5996,-0.0405,508.06,-389.47,-109.50
4360,-3.8719,0.6012,-0.0435,758.06,-1186.34,-1140.75
4370,-3.8719,0.6036,-0.0403,961.18,-1561.34,-1890.75
4380,-3.8719,0.6057,-0.0317,1273.68,-1155.09,-1703.25
4390,-3.8719,0.6069,-0.0221,1539.31,-61.34,-953.25
4400,-3.8719,0.6090,-0.0155,1695.56,1173.03,-453.19
4410,-3.8719,0.6110,-0.0129,1961.18,-1983.22,-359.44
4420,-3.8719,0.6130,-0.0114,-1788.82,-1655.09,-546.94
4430,-3.8719,0.6151,-0.0082,-1523.19,-1451.97,-1265.69
4440,-3.8719,0.6161,-0.0052,-1257.57,-1045.72,1531.19
4450,-3.8719,0.6144,-0.0034,-1132.57,-670.72,484.31
4460,-3.8721,0.6084,-0.0032,-1351.32,-436.34,-187.56
4470,-3.8721,0.5961,-0.0034,1883.06,-405.09,-265.69
4480,-3.8719,0.5790,0.0009,304.93,-436.34,453.06
4490,-3.8719,0.5656,0.0111,-1882.57,110.47,1812.50
4500,-3.8719,0.5629,0.0226,398.68,1422.97,-718.75
4510,-3.8719,0.5688,0.0294,54.93,-1108.28,-46.88
4520,-3.8719,0.5784,0.0288,820.56,-233.28,-734.38
4530,-3.8719,0.5851,0.0237,-1960.69,-311.40,1796.88
4540,-3.8719,0.5796,0.0219,-1101.32,-967.65,968.75
4550,-3.8719,0.5610,0.0304,-1804.44,-1202.03,1750.00
4560,-3.8718,0.5380,0.0500,-179.44,-108.34,296.88
4570,-3.8718,0.5159,0.0725,867.43,-1592.71,-15.56
4580,-3.8717,0.4922,0.0897,-1960.69,1282.23,-328.00
4590,-3.8716,0.4678,0.0990,-991.94,-514.71,-1765.50
4600,-3.8716,0.4496,0.0992,-116.94,672.73,-812.32
4610,-3.8716,0.4456,0.0957,1554.93,703.98,-1202.94
4620,-3.8716,0.4594,0.0959,1039.31,250.85,1890.81
4630,-3.8716,0.4832,0.1084,-1195.07,282.10,1593.93
4640,-3.8716,0.5077,0.1367,1851.81,1875.92,-1859.19
4650,-3.8716,0.5261,0.1715,992.43,1500.98,-718.51
4660,-3.8715,0.5410,0.2062,-648.19,1954.10,406.56
4670,-3.8715,0.5637,0.2399,1258.06,-1608.34,281.62
4680,-3.8716,0.5967,0.2711,164.31,-1295.78,-1702.70
4690,-3.8717,0.6313,0.2996,383.06,-1295.72,-733.89
4700,-3.8717,0.6569,0.3262,820.56,-1655.03,313.05
4710,-3.8718,0.6698,0.3499,86.18,1751.28,1828.74
4720,-3.8719,0.6685,0.3652,1742.43,782.53,-483.70
4730,-3.8719,0.6498,0.3618,1570.56,-1248.72,1531.92
4740,-3.8719,0.6133,0.3448,-820.07,-1686.28,485.05
4750,-3.8719,0.5637,0.3293,-1491.94,141.78,313.17
4760,-3.8719,0.5084,0.3143,164.31,-1842.65,1031.86
4770,-3.8719,0.4530,0.2958,1086.18,235.35,-1218.14
4780,-3.8718,0.4048,0.2745,1992.43,1860.23,1250.55
4790,-3.8718,0.3691,0.2494,-179.44,-858.64,-249.51
4800,-3.8717,0.3503,0.2217,-741.94,-77.45,-1968.32
4810,-3.8716,0.3491,0.1956,851.81,375.67,281.68
4820,-3.8716,0.3605,0.1804,695.56,1031.92,-1655.88
4830,-3.8715,0.3798,0.1815,-1851.32,-905.58,140.93
4840,-3.8715,0.4016,0.1949,617.43,-764.89,-1937.19
4850,-3.8713,0.4185,0.2166,-585.69,953.86,750.37
4860,-3.8712,0.4265,0.2432,1570.56,-280.46,328.49
4870,-3.8711,0.4335,0.2710,-1398.19,-874.21,31.68
4880,-3.8711,0.4465,0.2913,-507.57,-1311.71,-1155.76
4890,-3.8710,0.4580,0.3037,1164.31,1282.10,906.80
4900,-3.8710,0.4525,0.3156,-1366.94,-1124.15,-952.58
4910,-3.8708,0.4218,0.3256,1929.93,391.48,-1921.26
4920,-3.8707,0.3734,0.3387,1992.43,1672.67,-1640.01
4930,-3.8706,0.3230,0.3562,-195.07,-639.95,-1421.26
4940,-3.8705,0.2833,0.3633,1351.81,1594.36,1328.80
4950,-3.8705,0.2620,0.3534,273.68,-1499.45,1625.67
4960,-3.8706,0.2633,0.3307,1539.31,1234.86,-1468.08
4970,-3.8707,0.2817,0.3020,1711.18,-1671.39,672.49
4980,-3.8710,0.2985,0.2770,70.56,-1343.20,-1483.83
4990,-3.8711,0.2972,0.2626,-1788.82,-546.33,1750.49
5000,-3.8712,0.2762,0.2577,-1945.07,1609.92,-1702.64
5010,-3.8712,0.2439,0.2568,-632.57,984.86,172.36
5020,-3.8713,0.2126,0.2557,-773.19,875.43,-780.76
5030,-3.8713,0.1919,0.2512,-773.19,734.74,-1249.51
5040,-3.8713,0.1833,0.2385,570.56,156.62,1953.61
5050,-3.8713,0.1820,0.2180,-523.19,-1468.44,625.43
5060,-3.8715,0.1805,0.1964,-695.07,-93.44,-640.26
5070,-3.8715,0.1752,0.1803,-882.57,1140.93,-1015.26
5080,-3.8715,0.1661,0.1743,-1570.07,-921.57,-109.07
5090,-3.8713,0.1542,0.1785,1273.68,-1687.19,1812.81
5100,-3.8713,0.1432,0.1869,-257.57,-1156.01,-15.32
5110,-3.8712,0.1382,0.1929,-1663.82,-77.88,1953.43
5120,-3.8712,0.1420,0.1949,1695.56,687.74,-359.01
5130,-3.8711,0.1534,0.1943,-1820.07,953.37,1047.24
5140,-3.8711,0.1678,0.1923,-351.32,875.24,-1890.26
5150,-3.8711,0.1790,0.1897,1492.43,609.68,-1140.26
5160,-3.8711,0.1823,0.1844,-1085.69,281.56,-562.13
5170,-3.8710,0.1780,0.1777,-663.82,-390.32,31.56
5180,-3.8710,0.1687,0.1698,-1210.69,-1249.69,312.81
5190,-3.8711,0.1584,0.1609,1601.81,1734.68,-15.32
5200,-3.8711,0.1510,0.1537,289.31,594.06,-405.94
5210,-3.8711,0.1482,0.1504,-663.82,-327.88,-281.01
5220,-3.8710,0.1504,0.1495,-1023.19,-749.76,203.37
5230,-3.8710,0.1560,0.1495,-741.94,-859.13,781.49
5240,-3.8710,0.1600,0.1512,-23.19,-859.13,1578.37
5250,-3.8710,0.1609,0.1520,492.43,-640.32,-1734.13
5260,-3.8710,0.1602,0.1478,601.81,-546.57,-1702.88
5270,-3.8710,0.1575,0.1403,508.06,-1077.82,1765.87
5280,-3.8710,0.1545,0.1327,164.31,1953.43,937.74
5290,-3.8710,0.1554,0.1265,-210.69,984.62,15.87
5300,-3.8711,0.1594,0.1271,-101.32,187.74,-671.63
5310,-3.8711,0.1666,0.1387,414.31,265.93,-1077.88
5320,-3.8711,0.1799,0.1562,1336.18,1750.31,-1218.51
5330,-3.8711,0.1993,0.1738,-960.69,0.31,-1296.57
5340,-3.8711,0.2190,0.1879,1523.68,-1749.63,-1999.69
5350,-3.8711,0.2328,0.1973,39.31,47.30,469.12
5360,-3.8712,0.2378,0.2040,1804.93,1250.43,-1249.63
5370,-3.8712,0.2352,0.2092,-1554.44,-1890.20,1281.62
5380,-3.8713,0.2286,0.2104,-1882.57,-1218.32,-109.01
5390,-3.8713,0.2201,0.2074,1273.68,-1062.07,-1468.38
5400,-3.8713,0.2145,0.2017,179.93,-1452.70,1265.99
5410,-3.8715,0.2170,0.1926,-538.82,1812.87,-30.88
5420,-3.8715,0.2267,0.1860,-210.69,656.62,-1327.76
5430,-3.8715,0.2385,0.1870,1023.68,-187.07,1406.56
5440,-3.8715,0.2510,0.1941,-1460.69,-62.07,640.93
5450,-3.8715,0.2653,0.2037,133.06,844.24,812.87
5460,-3.8715,0.2803,0.2126,1961.18,-1921.39,1531.62
5470,-3.8715,0.2933,0.2213,-116.94,-780.76,-1796.51
5480,-3.8715,0.3042,0.2316,1554.93,328.67,-1562.07
5490,-3.8715,0.3165,0.2406,-1054.44,1641.17,-1718.32
5500,-3.8715,0.3347,0.2439,523.68,-1202.51,1797.30
5510,-3.8715,0.3594,0.2422,-1148.19,-780.64,875.43
5520,-3.8716,0.3857,0.2384,-1991.94,-999.33,-468.32
5530,-3.8716,0.4059,0.2327,1383.06,-1483.64,-1999.57
5540,-3.8716,0.4170,0.2280,-38.82,1781.98,781.68
5550,-3.8716,0.4240,0.2286,1383.06,1188.29,156.68
5560,-3.8716,0.4297,0.2321,-1726.32,1266.42,266.05
5570,-3.8716,0.4343,0.2332,-991.94,1703.92,1031.68
5580,-3.8716,0.4381,0.2323,-398.19,1844.54,-1827.70
5590,-3.8716,0.4393,0.2310,86.18,1735.23,-468.32
5600,-3.8715,0.4388,0.2283,242.43,1563.35,922.30
5610,-3.8715,0.4379,0.2242,179.93,1219.60,-1796.45
5620,-3.8715,0.4351,0.2214,54.93,703.98,-593.32
5630,-3.8713,0.4290,0.2213,-304.44,344.54,719.18
5640,-3.8713,0.4205,0.2257,-1085.69,328.92,-1671.45
5650,-3.8712,0.4138,0.2349,1836.18,891.42,266.05
5660,-3.8712,0.4120,0.2457,976.81,-1936.71,-1733.95
5670,-3.8712,0.4132,0.2551,742.43,-546.08,-93.32
5680,-3.8711,0.4196,0.2614,898.68,657.04,937.99
5690,-3.8711,0.4346,0.2668,1711.18,1453.92,1656.74
5700,-3.8711,0.4541,0.2744,-366.94,-1842.96,-1437.01
5710,-3.8711,0.4764,0.2845,-1866.94,-874.15,-358.89
5720,-3.8710,0.5005,0.2936,992.43,422.79,328.67
5730,-3.8710,0.5223,0.2955,70.56,1579.10,125.55
5740,-3.8711,0.5402,0.2910,-1132.57,1829.10,-1093.20
5750,-3.8711,0.5544,0.2822,1148.68,1251.04,625.55
5760,-3.8712,0.5677,0.2704,-1023.19,126.04,1797.42
5770,-3.8713,0.5822,0.2605,679.93,-1389.53,-796.39
5780,-3.8713,0.5950,0.2548,-1476.32,1344.85,969.24
5790,-3.8715,0.6042,0.2501,164.31,610.53,-1171.39
5800,-3.8715,0.6085,0.2452,1351.81,16.78,891.11
5810,-3.8716,0.6078,0.2383,1898.68,-608.22,-640.20
5820,-3.8716,0.6066,0.2257,1804.93,-1498.84,1906.68
5830,-3.8716,0.6067,0.2091,1648.68,891.78,359.80
5840,-3.8717,0.6082,0.1970,1664.31,-1233.22,-1155.88
5850,-3.8717,0.6117,0.1929,1851.81,1219.91,1828.49
5860,-3.8717,0.6147,0.1934,-1695.07,688.66,1844.12
5870,-3.8717,0.6160,0.1938,-1304.44,751.16,-1359.01
5880,-3.8717,0.6140,0.1902,-1148.19,813.66,-296.51
5890,-3.8716,0.6034,0.1810,-1398.19,344.91,625.37
5900,-3.8716,0.5833,0.1642,1242.43,-826.97,844.06
5910,-3.8717,0.5576,0.1392,-1335.69,1016.72,-187.19
5920,-3.8717,0.5314,0.1090,-616.94,1813.54,1328.37
5930,-3.8718,0.5054,0.0785,23.68,1954.16,1937.68
5940,-3.8719,0.4792,0.0509,695.56,-1952.15,-1609.25
5950,-3.8721,0.4558,0.0286,1351.81,-1483.46,-984.31
5960,-3.8722,0.4425,0.0153,-1648.19,-342.90,-15.62
5970,-3.8722,0.4493,0.0153,648.68,1953.98,1765.62
5980,-3.8722,0.4755,0.0314,1523.68,1953.98,1234.38
5990,-3.8722,0.5109,0.0620,867.43,16.54,-890.56
6000,-3.8721,0.5498,0.1002,1398.68,-61.52,-1124.94
6010,-3.8719,0.5892,0.1356,-1616.94,829.16,-718.57
6020,-3.8718,0.6230,0.1599,-570.07,1360.47,-421.63
6030,-3.8717,0.6472,0.1696,-241.94,469.91,-1093.44
6040,-3.8716,0.6647,0.1659,-1148.19,1704.35,219.06
6050,-3.8717,0.6770,0.1530,1086.18,1235.66,-296.57
6060,-3.8717,0.6840,0.1338,-1335.69,-420.59,-1640.38
6070,-3.8717,0.6888,0.1136,-445.07,1126.28,531.49
6080,-3.8718,0.6943,0.0981,179.93,-1451.78,-1468.57
6090,-3.8718,0.6981,0.0884,883.06,563.84,843.93
6100,-3.8719,0.7015,0.0823,1367.43,-686.16,-265.50
6110,-3.8719,0.7087,0.0791,1804.93,-1467.41,-718.63
6120,-3.8719,0.7169,0.0769,-1273.19,-1873.66,-562.38
6130,-3.8719,0.7185,0.0701,-226.32,1845.09,-328.00
6140,-3.8719,0.7098,0.0608,-23.19,970.09,-328.00
6150,-3.8719,0.6949,0.0510,-1132.57,-217.41,-468.69
6160,-3.8719,0.6776,0.0342,961.18,-1467.41,-1031.19
6170,-3.8719,0.6606,0.0122,-1257.57,376.28,1609.44
6180,-3.8721,0.6501,-0.0076,570.56,1563.78,-812.50
6190,-3.8721,0.6509,-0.0269,-773.19,-967.53,93.69
6200,-3.8722,0.6582,-0.0463,-679.44,563.72,1156.19
6210,-3.8723,0.6631,-0.0625,258.06,-1920.59,-937.62
6220,-3.8723,0.6652,-0.0676,883.06,1.28,-1453.25
6230,-3.8723,0.6655,-0.0580,1148.68,-654.97,-250.18
6240,-3.8722,0.6606,-0.0450,1195.56,579.41,1968.63
6250,-3.8721,0.6498,-0.0388,570.56,-1764.34,421.75
6260,-3.8721,0.6364,-0.0410,-820.07,-967.53,-1343.87
6270,-3.8719,0.6239,-0.0471,1461.18,-1248.78,374.88
6280,-3.8719,0.6118,-0.0514,-132.57,1969.91,1578.00
6290,-3.8719,0.6010,-0.0531,-1679.44,1423.03,-1468.87
6300,-3.8719,0.5929,-0.0544,929.93,1204.28,-515.75
6310,-3.8718,0.5846,-0.0563,-101.32,1032.35,656.13
6320,-3.8718,0.5729,-0.0559,-1163.82,797.97,1937.38
6330,-3.8718,0.5594,-0.0520,1336.18,844.85,-1140.75
6340,-3.8718,0.5472,-0.0464,-382.57,1344.79,-547.00
6350,-3.8718,0.5411,-0.0380,-1945.07,-1936.46,-140.75
6360,-3.8718,0.5465,-0.0264,1273.68,-858.34,-265.75
6370,-3.8718,0.5626,-0.0170,1961.18,626.04,-1031.31
6380,-3.8718,0.5822,-0.0112,23.68,1829.22,-1734.44
6390,-3.8718,0.5951,-0.0057,-1476.32,-1436.40,1968.69
6400,-3.8718,0.5955,0.0027,179.93,-733.22,1843.69
6410,-3.8718,0.5870,0.0161,226.81,344.91,1734.38
6420,-3.8718,0.5791,0.0280,-851.32,-1936.40,1421.88
6430,-3.8718,0.5781,0.0308,-1866.94,-420.78,375.00
6440,-3.8719,0.5865,0.0261,-1991.94,-61.40,-1656.25
6450,-3.8721,0.6003,0.0219,-913.82,-655.15,-390.62
6460,-3.8721,0.6125,0.0245,851.81,-1201.97,1031.25
6470,-3.8722,0.6213,0.0361,-1585.69,-858.22,-765.62
6480,-3.8722,0.6287,0.0540,-460.69,626.16,-1609.31
6490,-3.8722,0.6364,0.0754,476.81,-1092.53,-1437.44
6500,-3.8722,0.6411,0.0991,1461.18,1657.47,-140.50
6510,-3.8721,0.6371,0.1224,-1929.44,688.72,-1765.44
6520,-3.8719,0.6208,0.1420,1554.93,-326.90,1062.68
6530,-3.8719,0.5948,0.1587,-523.19,-1826.97,-234.13
6540,-3.8718,0.5665,0.1704,148.68,313.66,-1905.94
6550,-3.8718,0.5422,0.1755,523.68,1813.60,-327.82
6560,-3.8717,0.5250,0.1757,1414.31,-1530.21,359.68
6570,-3.8717,0.5150,0.1729,-788.82,-1514.65,578.43
6580,-3.8717,0.5070,0.1721,1929.93,-1874.02,922.18
6590,-3.8717,0.4967,0.1769,898.68,-1967.77,1656.56
6600,-3.8717,0.4878,0.1879,-413.82,-1358.46,-1390.32
6610,-3.8717,0.4868,0.2017,-1554.44,47.79,-515.26
6620,-3.8716,0.4956,0.2158,-1679.44,1813.42,219.12
6630,-3.8716,0.5094,0.2300,-554.44,-374.08,906.62
6640,-3.8716,0.5212,0.2443,1211.18,1438.48,1453.55
6650,-3.8716,0.5277,0.2585,-1273.19,-733.40,1828.55
6660,-3.8716,0.5292,0.2721,-445.07,1094.73,-1483.89
6670,-3.8716,0.5270,0.2852,-257.57,-1170.90,-15.14
6680,-3.8715,0.5232,0.2985,-538.82,500.98,-1905.70
6690,-3.8713,0.5168,0.3134,-1023.19,-1795.90,641.17
6700,-3.8713,0.5122,0.3301,-1835.69,110.35,-686.89
6710,-3.8712,0.5198,0.3457,1570.56,-1749.02,1609.99
6720,-3.8712,0.5424,0.3556,-1460.69,250.98,-1483.70
6730,-3.8712,0.5748,0.3568,1429.93,1516.66,1141.30
6740,-3.8713,0.6075,0.3535,1586.18,1672.97,-1593.08
6750,-3.8713,0.6259,0.3560,1773.68,1251.16,563.17
6760,-3.8713,0.6223,0.3661,117.43,1563.72,828.80
6770,-3.8713,0.5951,0.3746,-335.69,-1139.47,-796.20
6780,-3.8712,0.5488,0.3782,179.93,-45.72,-1249.33
6790,-3.8711,0.5011,0.3796,-1741.94,407.29,1781.98
6800,-3.8711,0.4667,0.3829,148.68,594.73,-811.77
6810,-3.8711,0.4526,0.3883,-257.57,1016.48,-889.89
6820,-3.8711,0.4613,0.3917,1945.56,1703.98,1969.48
6830,-3.8711,0.4861,0.3920,-945.07,-1858.52,78.86
6840,-3.8712,0.5122,0.3879,-1773.19,-1827.21,1828.86
6850,-3.8712,0.5261,0.3804,1570.56,1657.23,438.23
6860,-3.8712,0.5206,0.3732,-648.19,688.48,750.73
6870,-3.8712,0.4956,0.3693,-1351.32,-233.40,-1968.08
6880,-3.8712,0.4607,0.3702,-554.44,-733.46,-999.33
6890,-3.8712,0.4282,0.3711,-1023.19,-608.52,-1343.08
6900,-3.8712,0.4094,0.3633,-1179.44,-499.21,828.80
6910,-3.8713,0.4041,0.3469,414.31,-1499.21,-1796.20
6920,-3.8715,0.4048,0.3245,-273.19,406.98,-749.33
6930,-3.8715,0.4047,0.2986,-179.44,1531.98,109.99
6940,-3.8716,0.3955,0.2778,-195.07,-1780.52,1172.42
6950,-3.8717,0.3767,0.2675,-1366.94,-436.77,-843.26
6960,-3.8717,0.3549,0.2676,226.81,-1764.89,-1640.14
6970,-3.8717,0.3368,0.2776,1429.93,-1749.33,-1265.14
6980,-3.8716,0.3268,0.2900,-882.57,-468.14,109.86
6990,-3.8716,0.3262,0.2969,1836.18,1125.61,1563.05
7000,-3.8716,0.3290,0.2948,1758.06,-1999.39,-1515.08
7010,-3.8716,0.3267,0.2855,-1882.57,1734.99,-1046.33
7020,-3.8716,0.3143,0.2778,1820.56,547.49,-1046.33
7030,-3.8716,0.2903,0.2773,242.43,-436.89,-1140.14
7040,-3.8716,0.2576,0.2816,1164.31,-499.45,-530.76
7050,-3.8715,0.2206,0.2822,976.81,47.36,1453.67
7060,-3.8713,0.1791,0.2783,242.43,125.43,500.55
7070,-3.8713,0.1367,0.2792,-1070.07,-374.69,-405.76
7080,-3.8712,0.0985,0.2799,1508.06,-265.38,1781.74
7090,-3.8712,0.0652,0.2716,617.43,-171.69,-983.89
7100,-3.8712,0.0378,0.2577,351.81,-1234.25,-62.01
7110,-3.8711,0.0188,0.2418,851.81,984.44,906.74
7120,-3.8711,0.0067,0.2271,-1585.69,-1046.88,1875.43
7130,-3.8711,-0.0015,0.2150,867.43,1062.50,-1405.82
7140,-3.8711,-0.0103,0.2043,-179.44,-468.81,-937.13
7150,-3.8711,-0.0239,0.1942,-1304.44,-1828.19,-624.63
7160,-3.8711,-0.0380,0.1870,945.56,874.94,-484.01
7170,-3.8711,-0.0437,0.1830,-851.32,-47.00,-702.82
7180,-3.8711,-0.0397,0.1814,-1585.69,-562.62,-1124.69
7190,-3.8711,-0.0271,0.1812,-1070.07,-765.75,-1468.44
7200,-3.8711,-0.0063,0.1821,539.31,-796.94,-1734.07
7210,-3.8711,0.0194,0.1841,-804.44,-671.94,-1952.82
7220,-3.8711,0.0444,0.1848,-1507.57,-437.50,1719.06
7230,-3.8711,0.0658,0.1836,1695.56,-343.69,1312.81
7240,-3.8711,0.0844,0.1799,429.93,-499.88,844.06
7250,-3.8711,0.1019,0.1711,-1195.07,-968.63,344.06
7260,-3.8711,0.1191,0.1606,1054.93,1906.43,0.31
7270,-3.8712,0.1384,0.1580,-741.94,562.68,-296.57
7280,-3.8712,0.1641,0.1641,1726.81,218.99,-515.32
7290,-3.8712,0.1948,0.1742,1008.06,1000.31,-515.32
7300,-3.8712,0.2262,0.1886,945.56,-1702.76,-468.44
7310,-3.8712,0.2542,0.2072,961.18,141.05,-405.88
7320,-3.8712,0.2776,0.2255,539.31,-1483.89,-484.01
7330,-3.8712,0.3004,0.2350,-460.69,859.86,-1062.07
7340,-3.8712,0.3247,0.2335,-1538.82,-1921.33,1750.43
7350,-3.8712,0.3491,0.2268,1570.56,1891.24,16.05
7360,-3.8713,0.3700,0.2177,695.56,1031.92,-1999.57
7370,-3.8715,0.3834,0.2096,-632.57,-139.95,-265.26
7380,-3.8715,0.3914,0.2075,1086.18,-1171.14,1312.87
7390,-3.8716,0.4000,0.2098,-1898.19,-1436.77,-874.63
7400,-3.8716,0.4130,0.2142,-788.82,-1139.89,1078.49
7410,-3.8717,0.4320,0.2201,867.43,-577.33,-1109.01
7420,-3.8717,0.4572,0.2260,-695.07,172.67,375.43
7430,-3.8718,0.4814,0.2283,-1476.32,922.73,1906.68
7440,-3.8718,0.4939,0.2296,1633.06,1219.67,437.93
7450,-3.8718,0.4929,0.2363,-773.19,1391.54,453.55
7460,-3.8718,0.4814,0.2468,-898.19,-1749.08,1609.80
7470,-3.8718,0.4617,0.2572,1633.06,-405.33,-327.70
7480,-3.8717,0.4395,0.2672,-898.19,922.73,-1843.26
7490,-3.8716,0.4221,0.2739,258.06,-1796.02,406.74
7500,-3.8716,0.4094,0.2750,-1960.69,-936.71,-1546.39
7510,-3.8715,0.3984,0.2732,414.31,-796.08,156.74
7520,-3.8715,0.3859,0.2720,-991.94,-1030.52,1062.99
7530,-3.8715,0.3719,0.2759,1398.68,-1186.77,1797.36
7540,-3.8715,0.3622,0.2863,-382.57,-686.83,-718.26
7550,-3.8713,0.3604,0.2996,-1632.57,641.30,1438.05
7560,-3.8713,0.3646,0.3105,-1866.94,-1655.58,-280.70
7570,-3.8712,0.3698,0.3141,-1320.07,-249.33,1703.67
7580,-3.8712,0.3694,0.3110,-663.82,203.80,-561.89
7590,-3.8711,0.3597,0.3052,-710.69,-186.83,797.42
7600,-3.8711,0.3445,0.3005,-1945.07,-936.83,1578.67
7610,-3.8711,0.3302,0.2999,101.81,-1530.58,1672.42
7620,-3.8711,0.3204,0.3007,-1726.32,-1608.76,781.80
7630,-3.8712,0.3188,0.2966,1023.68,-1515.01,-1186.95
7640,-3.8712,0.3280,0.2885,820.56,1969.36,453.67
7650,-3.8713,0.3439,0.2803,1992.43,922.49,-1890.08
7660,-3.8715,0.3621,0.2745,23.68,-124.33,-93.26
7670,-3.8715,0.3844,0.2732,-1648.19,-858.70,-1968.26
7680,-3.8715,0.4126,0.2732,1211.18,-1030.52,594.24
7690,-3.8715,0.4429,0.2723,820.56,-1030.46,0.49
7700,-3.8715,0.4722,0.2728,695.56,-1139.77,375.49
7710,-3.8715,0.5007,0.2739,445.56,-1077.21,1406.74
7720,-3.8715,0.5269,0.2754,101.81,-936.52,-1218.26
7730,-3.8713,0.5497,0.2809,-554.44,-749.02,469.24
7740,-3.8713,0.5686,0.2910,-1632.57,-45.84,-1483.89
7750,-3.8712,0.5800,0.3027,789.31,1251.10,1047.42
7760,-3.8712,0.5802,0.3127,-1757.57,-1248.90,-93.20
7770,-3.8711,0.5736,0.3175,-1726.32,32.35,-1780.64
7780,-3.8711,0.5660,0.3142,1429.93,641.72,-546.26
7790,-3.8711,0.5592,0.3052,461.18,219.85,-124.39
7800,-3.8711,0.5531,0.2958,-413.82,-936.46,-702.58
7810,-3.8711,0.5510,0.2849,-1195.07,1860.41,1297.42
7820,-3.8712,0.5525,0.2698,-1460.69,469.79,-1405.70
7830,-3.8713,0.5511,0.2544,-1273.19,-1467.71,-93.26
7840,-3.8713,0.5454,0.2434,-1445.07,563.54,1344.24
7850,-3.8715,0.5416,0.2374,1820.56,-842.71,-858.95
7860,-3.8715,0.5457,0.2350,1336.18,-1608.34,1750.43
7870,-3.8715,0.5562,0.2383,1851.81,-1920.84,1219.18
7880,-3.8715,0.5742,0.2469,-804.44,-1498.96,1203.55
7890,-3.8715,0.5984,0.2579,1508.06,-389.53,-1921.45
7900,-3.8715,0.6184,0.2670,601.81,1016.78,-296.39
7910,-3.8713,0.6260,0.2690,-835.69,-1826.97,1125.49
7920,-3.8713,0.6217,0.2678,133.06,-1561.28,-1952.64
7930,-3.8713,0.6130,0.2634,-413.82,-1717.59,-1390.14
7940,-3.8713,0.6091,0.2609,-1523.19,1719.91,-968.26
7950,-3.8713,0.6165,0.2646,1976.81,1391.78,-280.76
7960,-3.8712,0.6355,0.2632,-1085.69,1876.16,437.99
7970,-3.8713,0.6599,0.2452,1351.81,1688.72,-93.26
7980,-3.8713,0.6780,0.2070,476.81,-608.09,672.30
7990,-3.8716,0.6880,0.1577,-1210.69,-1498.72,-1640.26
8000,-3.8718,0.6958,0.1093,70.56,188.84,-1671.57
8010,-3.8721,0.7009,0.0703,1070.56,1985.72,-1046.69
8020,-3.8722,0.7018,0.0469,1726.81,1001.34,1890.75
8030,-3.8723,0.6962,0.0388,1836.18,-1998.66,-578.06
8040,-3.8723,0.6877,0.0410,1117.43,970.09,-1171.81
8050,-3.8723,0.6860,0.0428,39.31,1251.34,-1171.81
8060,-3.8723,0.6898,0.0371,-179.44,1485.66,-1593.69
8070,-3.8723,0.6923,0.0251,304.93,751.34,1437.56
8080,-3.8723,0.6912,0.0137,617.43,-779.91,125.00
8090,-3.8724,0.6870,0.0082,476.81,1751.34,-1406.25
8100,-3.8724,0.6788,0.0085,-54.44,1048.16,1500.00
8110,-3.8724,0.6678,0.0145,-1101.32,1095.03,1375.00
8120,-3.8724,0.6616,0.0195,1492.43,1860.66,1718.75
8130,-3.8724,0.6658,0.0164,695.56,-1498.72,1421.88
8140,-3.8726,0.6793,0.0081,1226.81,-1904.97,-234.38
8150,-3.8726,0.6984,-0.0012,-1038.82,1032.53,875.00
8160,-3.8727,0.7156,-0.0096,1398.68,-154.91,1843.69
8170,-3.8728,0.7242,-0.0148,-398.19,-1233.03,-218.81
8180,-3.8728,0.7252,-0.0129,711.18,-1889.22,-750.06
8190,-3.8727,0.7205,-0.0027,836.18,-1654.85,218.69
8200,-3.8727,0.7068,0.0083,226.81,-342.35,-1734.44
8210,-3.8726,0.6865,0.0115,-1523.19,1063.84,453.12
8220,-3.8726,0.6650,0.0062,-116.94,1470.03,1812.50
8230,-3.8726,0.6464,-0.0028,1133.06,798.16,-1796.88
8240,-3.8726,0.6328,-0.0120,-1257.57,-358.15,-1703.19
8250,-3.8726,0.6216,-0.0178,1008.06,-1530.03,-1093.81
8260,-3.8724,0.6061,-0.0162,-429.44,1719.91,484.31
8270,-3.8724,0.5822,-0.0060,1586.18,1923.03,-1125.06
8280,-3.8723,0.5513,0.0073,-1476.32,-764.53,1968.69
8290,-3.8722,0.5178,0.0179,-1429.44,938.54,1609.38
8300,-3.8721,0.4888,0.0260,-1710.69,-1702.15,1296.88
8310,-3.8719,0.4712,0.0349,-1429.44,-670.96,234.38
8320,-3.8719,0.4674,0.0463,320.56,469.67,-1937.44
8330,-3.8719,0.4736,0.0538,-163.82,1922.73,-859.31
8340,-3.8718,0.4825,0.0592,633.06,-1108.46,281.31
8350,-3.8718,0.4890,0.0692,1773.68,-420.96,1515.69
8360,-3.8718,0.4904,0.0813,-1398.19,860.29,-1124.88
8370,-3.8717,0.4856,0.0924,-1226.32,-1592.83,922.00
8380,-3.8717,0.4762,0.1050,-1835.69,-170.96,-359.25
8390,-3.8716,0.4626,0.1202,961.18,1438.42,-1374.82
8400,-3.8715,0.4468,0.1372,-773.19,-608.52,1781.43
8410,-3.8713,0.4348,0.1533,1195.56,1563.35,531.49
8420,-3.8713,0.4336,0.1646,-335.69,-374.21,-1812.26
8430,-3.8713,0.4440,0.1702,-491.94,1063.29,-1749.69
8440,-3.8713,0.4620,0.1725,836.18,1782.10,781.56
8450,-3.8715,0.4812,0.1736,-851.32,-1921.02,-1249.69
8460,-3.8715,0.4945,0.1770,1601.81,-1780.33,1656.56
8470,-3.8715,0.4952,0.1852,-695.07,-1342.83,-1687.19
8480,-3.8713,0.4797,0.1974,-601.32,-295.96,812.81
8490,-3.8712,0.4521,0.2142,1414.31,1266.54,484.74
8500,-3.8712,0.4244,0.2319,1883.06,-577.27,-327.76
8510,-3.8711,0.4106,0.2404,-1663.82,1688.29,1203.55
8520,-3.8711,0.4187,0.2367,570.56,-1233.58,703.55
8530,-3.8712,0.4437,0.2268,1601.81,-1702.33,-1687.07
8540,-3.8713,0.4741,0.2242,804.93,1032.10,-1093.32
8550,-3.8715,0.5007,0.2292,695.56,704.04,-718.32
8560,-3.8715,0.5184,0.2338,101.81,1344.73,625.43
8570,-3.8715,0.5231,0.2433,-1632.57,1922.85,219.18
8580,-3.8715,0.5093,0.2572,-1038.82,-858.40,-1983.95
8590,-3.8713,0.4774,0.2732,1195.56,922.85,1484.86
8600,-3.8712,0.4358,0.2921,1117.43,-1030.33,1500.49
8610,-3.8711,0.4005,0.3087,-210.69,1391.42,953.67
8620,-3.8711,0.3850,0.3160,-726.32,-483.64,-780.70
8630,-3.8710,0.3894,0.3136,1289.31,453.86,359.99
8640,-3.8710,0.4034,0.3059,1851.81,141.36,813.11
8650,-3.8710,0.4117,0.2963,-351.32,-843.02,984.92
8660,-3.8710,0.4059,0.2905,711.18,1922.67,1641.17
8670,-3.8710,0.3938,0.2938,-38.82,1188.23,-1077.58
8680,-3.8708,0.3859,0.3014,-1585.69,1610.11,406.80
8690,-3.8708,0.3878,0.3076,1398.68,-1421.14,1438.05
8700,-3.8708,0.4065,0.3081,1648.68,-624.27,1391.17
8710,-3.8708,0.4392,0.2999,39.31,-561.71,109.92
8720,-3.8710,0.4703,0.2902,226.81,-1608.52,1766.17
8730,-3.8711,0.4905,0.2816,211.18,1141.54,-1374.45
8740,-3.8712,0.5040,0.2715,-1210.69,47.79,-827.58
8750,-3.8713,0.5172,0.2610,523.68,-1249.02,-405.76
8760,-3.8713,0.5354,0.2550,-1788.82,1407.23,359.86
8770,-3.8715,0.5602,0.2600,539.31,641.66,1719.24
8780,-3.8716,0.5885,0.2732,-288.82,1282.29,-452.64
8790,-3.8716,0.6144,0.2855,-663.82,-1030.15,-1765.14
8800,-3.8716,0.6317,0.2943,-1351.32,548.03,-1936.95
8810,-3.8716,0.6378,0.3015,867.43,1673.10,-1140.08
8820,-3.8715,0.6284,0.3049,1648.68,-1405.03,94.30
8830,-3.8715,0.6031,0.3014,445.56,-967.53,1297.42
8840,-3.8715,0.5684,0.2941,1211.18,-1420.72,-1968.20
8850,-3.8715,0.5299,0.2881,758.06,1641.72,1813.05
8860,-3.8715,0.4952,0.2805,-163.82,875.98,313.05
8870,-3.8716,0.4717,0.2694,-601.32,-92.83,1891.11
8880,-3.8717,0.4587,0.2568,383.06,-1514.71,-843.26
8890,-3.8717,0.4501,0.2455,-1273.19,875.85,734.86
8900,-3.8718,0.4415,0.2405,1617.43,-577.27,-952.70
8910,-3.8718,0.4315,0.2434,523.68,-1217.90,-1780.82
8920,-3.8718,0.4185,0.2513,-757.57,-842.96,1969.18
8930,-3.8718,0.4009,0.2561,1570.56,172.67,1656.74
8940,-3.8718,0.3744,0.2489,-679.44,781.98,844.24
8950,-3.8719,0.3408,0.2305,-70.07,-139.95,-62.07
8960,-3.8719,0.3087,0.2102,-366.94,1500.61,-202.70
8970,-3.8718,0.2773,0.1952,-476.32,-1093.20,969.12
8980,-3.8718,0.2427,0.1875,-491.94,984.86,-202.76
8990,-3.8716,0.2075,0.1882,-929.44,0.43,47.24
9000,-3.8715,0.1771,0.1963,-1429.44,94.12,437.87
9010,-3.8715,0.1555,0.2072,-1320.07,1125.31,-265.26
9020,-3.8713,0.1466,0.2139,-85.69,-1484.13,1750.37
9030,-3.8713,0.1522,0.2118,-1226.32,-624.76,-1421.51
9040,-3.8713,0.1674,0.2030,-507.57,-890.38,-1405.88
9050,-3.8713,0.1885,0.1920,1429.93,1984.68,1859.74
9060,-3.8713,0.2117,0.1837,133.06,578.49,640.99
9070,-3.8715,0.2246,0.1830,-898.19,-484.01,-187.19
9080,-3.8713,0.2197,0.1880,758.06,-577.70,109.68
9090,-3.8713,0.1996,0.1951,133.06,62.93,1594.12
9100,-3.8713,0.1713,0.2009,1554.93,969.12,-280.88
9110,-3.8712,0.1438,0.1989,1929.93,1719.06,1594.12
9120,-3.8712,0.1267,0.1869,-1585.69,1453.37,-1437.13
9130,-3.8712,0.1222,0.1683,226.81,-77.88,-1484.07
9140,-3.8712,0.1249,0.1500,-351.32,1547.06,1484.68
9150,-3.8712,0.1300,0.1393,-7.57,-796.69,62.74
9160,-3.8713,0.1339,0.1381,648.68,1828.37,-421.63
9170,-3.8712,0.1332,0.1445,1148.68,1672.12,875.24
9180,-3.8712,0.1295,0.1516,1054.93,-1499.76,-484.13
9190,-3.8711,0.1265,0.1538,586.18,-593.51,-1499.76
9200,-3.8710,0.1251,0.1520,195.56,-312.26,922.12
9210,-3.8710,0.1252,0.1506,23.68,-546.63,-1671.63
9220,-3.8710,0.1279,0.1498,39.31,-718.51,-1093.51
9230,-3.8710,0.1377,0.1472,383.06,-827.88,-999.76
9240,-3.8710,0.1545,0.1433,1633.06,-1156.01,-1265.38
9250,-3.8710,0.1759,0.1403,-210.69,-1656.01,1953.37
9260,-3.8710,0.1992,0.1421,-1476.32,1953.43,625.24
9270,-3.8711,0.2201,0.1494,1508.06,-1812.13,-1077.88
9280,-3.8711,0.2357,0.1630,179.93,-874.57,1187.74
9290,-3.8712,0.2478,0.1796,-1820.07,859.80,-484.07
9300,-3.8712,0.2585,0.1912,-273.19,-1015.20,1781.56
9310,-3.8713,0.2679,0.1957,1101.81,469.24,-30.88
9320,-3.8713,0.2734,0.1979,-1695.07,1047.36,-1968.38
9330,-3.8713,0.2736,0.1995,-991.94,1328.61,172.24
9340,-3.8715,0.2719,0.1967,-976.32,1531.74,-1452.76
9350,-3.8715,0.2687,0.1888,-1195.07,1172.36,1328.49
9360,-3.8715,0.2621,0.1819,-1601.32,172.36,437.87
9370,-3.8716,0.2534,0.1777,1554.93,-718.26,-421.57
9380,-3.8716,0.2466,0.1765,445.56,-1249.51,-1046.57
9390,-3.8716,0.2454,0.1783,-429.44,-1405.82,-1296.57
9400,-3.8716,0.2524,0.1833,-585.69,-1171.45,-1140.32
9410,-3.8716,0.2686,0.1908,320.56,-530.76,-484.07
9420,-3.8715,0.2924,0.1978,-1616.94,422.36,656.62
9430,-3.8715,0.3220,0.2036,1429.93,1313.05,1797.24
9440,-3.8715,0.3512,0.2053,1226.81,-1936.89,-1655.88
9450,-3.8715,0.3682,0.2017,961.18,-1718.08,-1202.76
9460,-3.8715,0.3665,0.1992,-866.94,1813.17,-468.38
9470,-3.8713,0.3507,0.2017,-1085.69,1500.67,359.74
9480,-3.8713,0.3315,0.2092,898.68,1813.17,1625.37
9490,-3.8713,0.3192,0.2198,-1554.44,-1218.14,-655.88
9500,-3.8712,0.3132,0.2297,867.43,141.24,1344.18
9510,-3.8712,0.3040,0.2355,101.81,1406.86,-796.45
9520,-3.8711,0.2844,0.2351,-1085.69,-1858.83,312.93
9530,-3.8711,0.2533,0.2319,414.31,-1905.70,734.80
9540,-3.8711,0.2172,0.2285,429.93,1687.99,609.80
9550,-3.8712,0.1879,0.2228,-195.07,1250.37,-187.07
9560,-3.8712,0.1737,0.2142,54.93,515.99,-1983.95
9570,-3.8713,0.1764,0.2064,-1757.57,-577.82,-405.88
9580,-3.8713,0.1936,0.2043,-1413.82,-1577.82,1297.24
9590,-3.8715,0.2213,0.2103,789.31,-1843.38,-374.63
9600,-3.8715,0.2512,0.2251,336.18,-1077.70,-1109.01
9610,-3.8715,0.2759,0.2462,164.31,812.99,-530.82
9620,-3.8713,0.2952,0.2703,-679.44,-483.89,1469.18
9630,-3.8712,0.3115,0.2922,1789.31,-1405.70,375.49
9640,-3.8712,0.3264,0.3094,-116.94,1406.80,-405.70
9650,-3.8711,0.3368,0.3214,1789.31,-390.01,-1608.83
9660,-3.8710,0.3433,0.3260,-882.57,1141.24,63.11
9670,-3.8710,0.3518,0.3229,-54.44,1734.99,641.24
9680,-3.8710,0.3621,0.3163,1039.31,1328.80,688.11
9690,-3.8710,0.3693,0.3097,-1648.19,485.05,453.74
9700,-3.8711,0.3732,0.2992,-726.32,-358.70,-280.70
9710,-3.8711,0.3735,0.2827,-226.32,-1702.45,-1765.08
9720,-3.8712,0.3710,0.2632,-179.44,188.17,-155.70
9730,-3.8712,0.3696,0.2411,-507.57,1688.17,1312.99
9740,-3.8713,0.3719,0.2241,-679.44,-1139.95,-218.32
9750,-3.8713,0.3778,0.2198,-382.57,688.17,-483.95
9760,-3.8712,0.3842,0.2271,367.43,141.36,687.93
9770,-3.8712,0.3860,0.2435,1179.93,1063.23,-624.57
9780,-3.8711,0.3833,0.2615,1414.31,-827.39,-937.07
9790,-3.8710,0.3799,0.2756,1070.56,1469.48,-999.51
9800,-3.8708,0.3788,0.2871,633.06,-718.02,-1468.26
9810,-3.8707,0.3837,0.2937,492.43,750.73,938.05
9820,-3.8707,0.3949,0.2872,1117.43,1594.48,1484.92
9830,-3.8707,0.4048,0.2626,-1445.07,766.36,47.42
9840,-3.8708,0.4062,0.2264,-179.44,1610.11,609.86
9850,-3.8711,0.3988,0.1875,8.06,985.17,-968.32
9860,-3.8712,0.3843,0.1514,-945.07,0.73,281.62
9870,-3.8715,0.3683,0.1260,1195.56,-624.27,-1640.38
9880,-3.8716,0.3607,0.1191,-851.32,125.67,-1343.51
9890,-3.8716,0.3678,0.1271,-1820.07,-749.33,1625.18
9900,-3.8716,0.3845,0.1398,-913.82,266.30,-1156.01
9910,-3.8715,0.4021,0.1482,1226.81,1891.36,953.37
9920,-3.8715,0.4103,0.1479,-523.19,-1030.52,-1343.51
9930,-3.8715,0.4043,0.1422,523.68,-1061.71,-812.26
9940,-3.8715,0.3956,0.1346,-241.94,-1796.14,1953.37
9950,-3.8716,0.3981,0.1256,-1351.32,1235.11,-812.26
9960,-3.8716,0.4082,0.1167,-1038.82,78.86,593.99
9970,-3.8717,0.4199,0.1136,258.06,-1061.71,-406.07
9980,-3.8717,0.4396,0.1205,1758.06,-1452.33,-437.32
9990,-3.8716,0.4659,0.1345,273.68,-577.27,203.31
10000,-3.8716,0.4836,0.1459,-351.32,1219.60,1875.24
10010,-3.8716,0.4841,0.1486,1914.31,-1327.21,-312.26
10020,-3.8715,0.4758,0.1454,1976.81,-983.46,812.74
10030,-3.8715,0.4694,0.1355,914.31,-1389.71,765.87
10040,-3.8716,0.4668,0.1182,86.18,1344.67,-468.51
10050,-3.8716,0.4701,0.0964,-241.94,-874.15,1468.93
10060,-3.8717,0.4802,0.0760,179.93,344.67,-1296.69
10070,-3.8717,0.4922,0.0607,1476.81,1735.29,62.62
10080,-3.8718,0.4995,0.0531,-991.94,-233.46,-1234.31
10090,-3.8718,0.5031,0.0548,-54.44,-1202.21,-1140.56
10100,-3.8717,0.5062,0.0608,398.68,-983.40,62.56
10110,-3.8717,0.5070,0.0679,804.93,-217.77,-1812.44
10120,-3.8716,0.5017,0.0752,898.68,688.48,797.00
10130,-3.8716,0.4927,0.0845,226.81,1625.98,-765.50
10140,-3.8715,0.4840,0.0972,-929.44,-1186.58,1234.50
10150,-3.8715,0.4769,0.1111,1961.18,438.42,-937.32
10160,-3.8713,0.4741,0.1227,1054.93,-1780.33,1109.56
10170,-3.8713,0.4761,0.1285,695.56,-295.96,-890.44
10180,-3.8712,0.4758,0.1284,945.56,454.04,359.62
10190,-3.8712,0.4678,0.1251,914.31,438.42,547.12
10200,-3.8713,0.4558,0.1183,-116.94,16.48,-77.88
10210,-3.8713,0.4430,0.1096,-1648.19,-858.52,-593.57
10220,-3.8713,0.4294,0.1013,711.18,-1967.90,-734.19
10230,-3.8713,0.4139,0.0929,-1023.19,969.54,-1140.44
10240,-3.8713,0.3958,0.0820,992.43,-108.58,1765.75
10250,-3.8713,0.3798,0.0673,-1335.69,-1499.27,31.37
10260,-3.8715,0.3713,0.0524,617.43,610.11,-1921.75
10270,-3.8715,0.3708,0.0420,-460.69,-1296.20,203.19
10280,-3.8716,0.3823,0.0374,-523.19,1375.67,-1953.06
10290,-3.8717,0.4081,0.0389,945.56,781.98,-281.19
10300,-3.8717,0.4388,0.0486,242.43,985.17,-1906.19
10310,-3.8717,0.4684,0.0641,179.93,-1780.40,1484.44
10320,-3.8717,0.4927,0.0789,-38.82,203.98,1531.37
10330,-3.8717,0.5027,0.0892,-929.44,-1905.33,-1999.88
10340,-3.8717,0.4960,0.0968,351.81,-577.15,-1140.50
10350,-3.8716,0.4768,0.1030,-507.57,391.54,140.81
10360,-3.8716,0.4489,0.1063,1039.31,1188.42,1875.18
10370,-3.8716,0.4180,0.1095,1461.18,1610.23,-124.82
10380,-3.8715,0.3893,0.1151,1508.06,-1983.58,1515.81
10390,-3.8715,0.3665,0.1196,1836.18,-1264.89,-1593.57
10400,-3.8715,0.3546,0.1243,-1085.69,-686.83,-1234.19
10410,-3.8715,0.3539,0.1282,1398.68,-93.08,-968.57
10420,-3.8715,0.3563,0.1313,1304.93,406.92,-468.51
10430,-3.8713,0.3606,0.1384,1617.43,813.17,750.24
10440,-3.8713,0.3679,0.1494,-1835.69,1719.42,-1296.63
10450,-3.8712,0.3721,0.1604,-898.19,-874.33,359.62
10460,-3.8712,0.3691,0.1713,-366.94,531.92,547.18
10470,-3.8713,0.3630,0.1782,-741.94,1922.55,-1155.94
10480,-3.8713,0.3568,0.1757,-1523.19,-1186.83,31.56
10490,-3.8715,0.3479,0.1702,1679.93,-1514.95,1406.56
10500,-3.8716,0.3373,0.1708,539.31,1781.92,-343.44
10510,-3.8716,0.3303,0.1763,-820.07,1859.99,-765.32
10520,-3.8715,0.3274,0.1823,-1710.69,-1436.89,422.18
10530,-3.8715,0.3226,0.1901,1914.31,-671.26,-1077.82
10540,-3.8713,0.3116,0.2025,1304.93,328.74,1422.24
10550,-3.8713,0.2975,0.2153,-101.32,1922.42,-1859.01
10560,-3.8713,0.2880,0.2239,-1913.82,-436.95,781.62
10570,-3.8715,0.2889,0.2283,867.43,656.80,-1655.82
10580,-3.8716,0.2985,0.2294,992.43,1219.30,-187.07
10590,-3.8716,0.3083,0.2299,-1788.82,1359.92,1922.30
10600,-3.8716,0.3118,0.2325,-523.19,1422.42,828.55
10610,-3.8716,0.3068,0.2384,-85.69,1766.17,641.05
10620,-3.8716,0.2917,0.2449,-726.32,-1483.83,1469.18
10630,-3.8716,0.2688,0.2535,1351.81,-655.70,-765.20
10640,-3.8715,0.2449,0.2638,-1585.69,453.61,1281.74
10650,-3.8715,0.2256,0.2698,-648.19,1766.05,-718.26
10660,-3.8713,0.2144,0.2703,883.06,-1468.32,1203.61
10670,-3.8713,0.2109,0.2659,-554.44,-1405.88,-999.51
10680,-3.8712,0.2085,0.2593,-991.94,-1968.38,969.24
10690,-3.8712,0.2034,0.2535,-1304.44,1187.87,-1155.76
10700,-3.8711,0.1969,0.2458,-1960.69,453.49,16.11
10710,-3.8711,0.1888,0.2366,1211.18,-530.88,672.30
10720,-3.8711,0.1801,0.2317,179.93,-1718.38,1281.68
10730,-3.8711,0.1771,0.2355,-945.07,1656.56,-1796.45
10740,-3.8711,0.1838,0.2439,-1320.07,-1859.07,-530.82
10750,-3.8710,0.1971,0.2509,-460.69,-780.94,844.18
10760,-3.8710,0.2155,0.2578,1242.43,109.74,-1999.51
10770,-3.8710,0.2384,0.2688,-413.82,1000.37,-983.89
10780,-3.8708,0.2632,0.2853,-1476.32,-1593.32,234.86
10790,-3.8708,0.2848,0.3062,1695.56,516.11,1469.30
10800,-3.8708,0.3041,0.3284,461.18,-811.95,-1827.58
10810,-3.8708,0.3236,0.3453,-1070.07,-1968.20,-1733.76
10820,-3.8708,0.3380,0.3534,1429.93,203.74,-1889.95
10830,-3.8708,0.3438,0.3560,-726.32,1234.99,1641.30
10840,-3.8708,0.3407,0.3556,8.06,1563.17,860.05
10850,-3.8710,0.3335,0.3535,-382.57,1516.24,-186.83
10860,-3.8710,0.3315,0.3505,-1304.44,1250.61,-1171.20
10870,-3.8710,0.3384,0.3448,-1554.44,859.99,-1718.08
10880,-3.8710,0.3492,0.3320,-679.44,141.24,1891.30
10890,-3.8710,0.3593,0.3129,711.18,-1499.33,828.74
10900,-3.8711,0.3674,0.2931,1992.43,47.55,-1249.39
10910,-3.8711,0.3721,0.2771,-960.69,1516.30,234.92
10920,-3.8712,0.3721,0.2656,-366.94,-530.58,-1890.14
10930,-3.8712,0.3682,0.2584,-366.94,-1999.33,609.86
10940,-3.8713,0.3605,0.2543,-866.94,1078.80,-702.64
10950,-3.8713,0.3513,0.2507,-1851.32,547.55,-1780.76
10960,-3.8713,0.3444,0.2482,976.81,94.42,1609.86
10970,-3.8713,0.3417,0.2487,86.18,-233.70,859.80
10980,-3.8715,0.3418,0.2543,-257.57,-171.26,-421.45
10990,-3.8715,0.3439,0.2642,-241.94,547.49,-1780.76
11000,-3.8715,0.3451,0.2723,23.68,1813.17,1297.36
11010,-3.8715,0.3401,0.2762,179.93,-1139.95,1141.11
11020,-3.8715,0.3271,0.2788,-460.69,-640.01,1766.11
11030,-3.8715,0.3096,0.2822,1883.06,-311.89,-1062.01
11040,-3.8713,0.2928,0.2871,-366.94,125.55,469.30
11050,-3.8713,0.2848,0.2922,1492.43,750.55,1922.42
11060,-3.8713,0.2883,0.2938,461.18,1406.80,-1296.33
11070,-3.8713,0.2958,0.2880,914.31,1609.92,-1608.83
11080,-3.8713,0.2965,0.2756,1867.43,859.92,1000.55
11090,-3.8715,0.2847,0.2605,1961.18,-718.20,-999.51
11100,-3.8715,0.2621,0.2429,445.56,1344.30,906.74
11110,-3.8716,0.2329,0.2280,1554.93,-905.76,-640.20
11120,-3.8716,0.2020,0.2157,1820.56,1187.93,-1202.70
11130,-3.8716,0.1768,0.2020,1867.43,-390.26,-937.13
11140,-3.8716,0.1591,0.1904,-1366.94,1859.68,-437.13
11150,-3.8716,0.1471,0.1819,367.43,375.31,-93.38
11160,-3.8715,0.1406,0.1732,-1163.82,-718.51,578.43
11170,-3.8715,0.1379,0.1638,-1991.94,-1827.88,1750.31
11180,-3.8715,0.1361,0.1571,1664.31,968.99,-1093.44
11190,-3.8715,0.1350,0.1539,1429.93,109.62,-499.69
11200,-3.8715,0.1340,0.1494,1289.31,-296.63,-281.01
11210,-3.8715,0.1328,0.1404,1164.31,-874.76,-93.51
11220,-3.8715,0.1340,0.1306,1008.06,1968.99,-187.26
11230,-3.8715,0.1394,0.1259,1164.31,718.99,-734.13
11240,-3.8715,0.1495,0.1272,1851.81,109.62,-1437.26
11250,-3.8715,0.1622,0.1340,-851.32,281.49,-1640.38
11260,-3.8715,0.1735,0.1482,773.68,1156.56,-859.13
11270,-3.8713,0.1814,0.1663,-1788.82,-1030.94,937.74
11280,-3.8713,0.1838,0.1816,-773.19,1281.56,-812.19
11290,-3.8712,0.1831,0.1951,-460.69,-749.69,1406.56
11300,-3.8712,0.1854,0.2091,-554.44,969.06,-890.26
11310,-3.8711,0.1978,0.2194,-257.57,-1234.07,78.49
11320,-3.8711,0.2178,0.2216,1320.56,78.49,516.05
11330,-3.8711,0.2368,0.2189,-116.94,359.74,391.05
11340,-3.8712,0.2526,0.2153,-1679.44,16.05,-468.32
11350,-3.8712,0.2651,0.2120,336.18,-437.01,-1702.76
11360,-3.8712,0.2782,0.2103,1945.56,-858.89,1422.24
11370,-3.8712,0.2905,0.2112,-382.57,-1077.64,1219.12
11380,-3.8712,0.3015,0.2140,1195.56,-968.20,1172.24
11390,-3.8712,0.3140,0.2169,-1398.19,-608.83,656.62
11400,-3.8712,0.3229,0.2163,195.56,-233.76,15.99
11410,-3.8713,0.3221,0.2139,1336.18,-311.89,-296.51
11420,-3.8713,0.3126,0.2142,1242.43,-624.39,-280.88
11430,-3.8713,0.2981,0.2146,23.68,-577.51,-109.01
11440,-3.8713,0.2815,0.2117,-1835.69,-530.70,-202.76
11450,-3.8713,0.2667,0.2081,39.31,-905.70,-1015.26
11460,-3.8713,0.2539,0.2040,-1851.32,-1358.89,1203.49
11470,-3.8715,0.2412,0.1978,508.06,-1890.14,-1530.88
11480,-3.8716,0.2280,0.1902,-1116.94,1312.93,-1312.13
11490,-3.8717,0.2147,0.1827,1195.56,344.18,-1734.01
11500,-3.8718,0.1996,0.1764,-507.57,-609.01,-1796.57
11510,-3.8719,0.1820,0.1750,1554.93,-1421.51,-562.19
11520,-3.8719,0.1666,0.1821,-695.07,-1593.44,-1655.94
11530,-3.8719,0.1588,0.1903,1336.18,-687.19,-1437.19
11540,-3.8719,0.1633,0.2008,336.18,359.68,-202.76
11550,-3.8718,0.1840,0.2235,914.31,1703.43,-1718.38
11560,-3.8717,0.2190,0.2488,-445.07,609.68,1406.68
11570,-3.8716,0.2643,0.2645,39.31,-155.82,109.80
11580,-3.8716,0.3125,0.2682,1836.18,1859.86,-1812.01
11590,-3.8716,0.3513,0.2631,8.06,-1671.26,-343.26
11600,-3.8715,0.3754,0.2565,976.81,1672.55,625.49
11610,-3.8715,0.3894,0.2543,54.93,828.86,1500.49
11620,-3.8715,0.4032,0.2574,1851.81,547.61,-1030.76
11630,-3.8713,0.4205,0.2627,-382.57,953.86,1187.99
11640,-3.8713,0.4402,0.2693,1836.18,1625.79,-327.64
11650,-3.8712,0.4583,0.2765,351.81,-1530.40,-1937.01
11660,-3.8711,0.4701,0.2856,-1335.69,-608.52,375.49
11670,-3.8711,0.4767,0.2994,179.93,563.42,-1077.58
11680,-3.8710,0.4803,0.3140,1023.68,-1670.96,1922.42
11690,-3.8708,0.4784,0.3219,1492.43,188.42,875.61
11700,-3.8708,0.4695,0.3215,1242.43,1204.04,-1311.89
11710,-3.8708,0.4569,0.3118,101.81,1157.17,-1483.76
11720,-3.8708,0.4397,0.2924,-1507.57,-92.90,703.67
11730,-3.8710,0.4155,0.2681,289.31,1422.73,-1640.08
11740,-3.8710,0.3920,0.2462,1195.56,-1686.71,187.99
11750,-3.8711,0.3762,0.2316,-1820.07,-483.64,-1796.45
11760,-3.8711,0.3690,0.2267,164.31,1641.36,703.55
11770,-3.8711,0.3722,0.2329,-757.57,1016.30,437.93
11780,-3.8711,0.3859,0.2445,-351.32,1813.17,1641.05
11790,-3.8710,0.4031,0.2562,1398.68,-702.39,62.93
11800,-3.8710,0.4148,0.2689,-398.19,797.61,-577.64
11810,-3.8708,0.4133,0.2831,1101.81,-1577.33,-858.89
11820,-3.8707,0.3934,0.2932,914.31,235.17,-1468.20
11830,-3.8706,0.3597,0.2958,-1632.57,1531.98,1234.92
11840,-3.8706,0.3217,0.2885,-1945.07,1860.05,-1468.20
11850,-3.8706,0.2856,0.2709,1179.93,922.49,-1890.08
11860,-3.8707,0.2570,0.2493,570.56,-1327.58,-265.14
11870,-3.8708,0.2457,0.2317,898.68,-93.26,-593.32
11880,-3.8710,0.2612,0.2251,-538.82,1656.68,-1593.32
11890,-3.8711,0.3014,0.2292,1445.56,812.99,1937.93
11900,-3.8712,0.3605,0.2444,-1413.82,1344.30,-1374.57
11910,-3.8712,0.4320,0.2617,-1851.32,-718.08,609.80
11920,-3.8713,0.4987,0.2661,-695.07,1500.79,-624.51
11930,-3.8713,0.5411,0.2538,-163.82,-1936.58,1937.99
11940,-3.8715,0.5522,0.2264,1273.68,485.41,-655.76
11950,-3.8716,0.5349,0.1881,-1304.44,985.41,-624.57
11960,-3.8717,0.5015,0.1497,476.81,79.16,-952.76
11970,-3.8718,0.4642,0.1188,195.56,-842.77,-452.88
11980,-3.8718,0.4313,0.0981,-570.07,-796.02,1234.56
11990,-3.8719,0.4073,0.0874,-788.82,563.29,-31.07
12000,-3.8719,0.3958,0.0825,148.68,-811.71,-546.75
12010,-3.8719,0.3921,0.0770,-1335.69,-1436.77,-843.63
12020,-3.8719,0.3878,0.0720,-1804.44,1860.11,-1406.13
12030,-3.8719,0.3896,0.0704,1648.68,1219.48,1453.25
12040,-3.8721,0.4072,0.0674,1883.06,1016.36,-156.13
12050,-3.8721,0.4370,0.0653,133.06,625.79,-1171.75
12060,-3.8721,0.4738,0.0710,-54.44,360.17,-1046.75
12070,-3.8719,0.5144,0.0845,648.68,1094.67,265.75
12080,-3.8719,0.5504,0.1034,1851.81,-1186.52,-1453.00
12090,-3.8718,0.5743,0.1256,-1538.82,1235.41,1265.81
12100,-3.8717,0.5873,0.1501,1523.68,79.22,15.87
12110,-3.8717,0.5970,0.1737,-820.07,-780.15,-1374.76
12120,-3.8716,0.6084,0.1907,429.93,-1764.47,1047.18
12130,-3.8716,0.6227,0.1957,1883.06,407.41,-718.38
12140,-3.8715,0.6345,0.1865,-288.82,1048.03,937.87
12150,-3.8715,0.6317,0.1676,1226.81,-123.78,1484.68
12160,-3.8715,0.6112,0.1443,867.43,1454.35,562.81
12170,-3.8716,0.5825,0.1205,-1757.57,-1530.09,-1421.63
12180,-3.8716,0.5542,0.1019,-1429.44,-577.03,672.06
12190,-3.8717,0.5292,0.0924,-1054.44,1047.91,-421.69
12200,-3.8717,0.5105,0.0878,-257.57,-170.90,-937.38
12210,-3.8717,0.4996,0.0839,1351.81,-764.65,-1171.75
12220,-3.8717,0.4954,0.0796,-38.82,-1264.71,-1562.38
12230,-3.8717,0.4960,0.0715,-585.69,-1811.58,1703.25
12240,-3.8717,0.4983,0.0579,-507.57,1157.17,531.37
12250,-3.8718,0.4965,0.0437,-210.69,-592.83,-1124.94
12260,-3.8718,0.4912,0.0306,-445.07,1594.67,1109.44
12270,-3.8718,0.4833,0.0177,-1116.94,-77.21,203.12
12280,-3.8718,0.4692,0.0096,1867.43,-1733.46,578.12
12290,-3.8718,0.4520,0.0095,70.56,1235.29,1687.50
12300,-3.8718,0.4363,0.0132,1867.43,1219.60,-781.25
12310,-3.8717,0.4244,0.0192,-148.19,1688.29,1468.75
12320,-3.8716,0.4188,0.0288,-1663.82,-1546.08,312.50
12330,-3.8716,0.4156,0.0391,1617.43,-311.71,-890.62
12340,-3.8715,0.4091,0.0439,1211.18,1000.79,1187.56
12350,-3.8715,0.3978,0.0406,367.43,1625.79,-1671.81
12360,-3.8715,0.3818,0.0334,-1070.07,1203.86,-1031.19
12370,-3.8715,0.3624,0.0276,883.06,281.98,-656.19
12380,-3.8715,0.3461,0.0231,-1601.32,-468.08,-734.38
12390,-3.8715,0.3385,0.0197,304.93,-1046.20,-1218.75
12400,-3.8715,0.3396,0.0177,-663.82,-1483.76,1937.50
12410,-3.8715,0.3480,0.0168,-523.19,-1733.76,750.00
12420,-3.8716,0.3635,0.0170,554.93,-1843.08,-718.75
12430,-3.8716,0.3824,0.0194,-1460.69,-1827.45,1906.25
12440,-3.8716,0.3967,0.0249,961.18,-1514.89,1093.75
12450,-3.8716,0.4022,0.0353,-1210.69,-811.77,984.38
12460,-3.8716,0.4047,0.0532,-507.57,516.36,1515.69
12470,-3.8716,0.4060,0.0740,-195.07,-1186.77,-1312.44
12480,-3.8715,0.4021,0.0901,-23.19,1469.48,203.25
12490,-3.8715,0.3926,0.0990,-523.19,-468.02,1468.87
12500,-3.8715,0.3789,0.1040,-1741.94,672.61,-1812.32
12510,-3.8715,0.3605,0.1108,508.06,1313.23,-1327.94
12520,-3.8715,0.3391,0.1232,-1851.32,-1811.83,-374.82
12530,-3.8713,0.3190,0.1394,-585.69,-233.76,1484.56
12540,-3.8713,0.3026,0.1558,836.18,1844.36,-46.63
12550,-3.8712,0.2920,0.1682,-1257.57,-61.95,-1812.26
12560,-3.8712,0.2870,0.1715,1383.06,1531.80,-562.19
12570,-3.8712,0.2834,0.1638,742.43,1953.67,-593.44
12580,-3.8712,0.2764,0.1487,289.31,969.30,-1734.07
12590,-3.8712,0.2644,0.1345,-616.94,-968.26,547.12
12600,-3.8713,0.2521,0.1288,1851.81,1219.24,-1265.38
12610,-3.8713,0.2449,0.1333,273.68,484.86,1047.12
12620,-3.8715,0.2467,0.1437,-648.19,1062.93,-499.76
12630,-3.8715,0.2594,0.1538,-413.82,-1608.95,1859.62
12640,-3.8716,0.2778,0.1642,1211.18,-312.01,-281.01
12650,-3.8716,0.3000,0.1755,-429.44,1016.11,719.06
12660,-3.8717,0.3267,0.1830,-1585.69,-1530.70,1109.68
12670,-3.8718,0.3568,0.1870,1820.56,-577.51,-1734.07
12680,-3.8718,0.3870,0.1965,1679.93,-61.83,1406.56
12690,-3.8718,0.4052,0.2189,1539.31,1156.98,-1140.26
12700,-3.8717,0.4034,0.2501,-132.57,16.36,-1921.45
12710,-3.8716,0.3835,0.2786,-351.32,16.36,-1452.64
12720,-3.8713,0.3492,0.2970,1101.81,-343.02,16.11
12730,-3.8712,0.3082,0.3051,711.18,-1983.70,1234.92
12740,-3.8711,0.2703,0.3048,-538.82,-952.58,766.17
12750,-3.8711,0.2401,0.2964,-1398.19,-983.89,-1796.33
12760,-3.8711,0.2178,0.2799,-1257.57,1937.93,-1921.33
12770,-3.8711,0.2019,0.2606,-116.94,-171.51,1719.24
12780,-3.8711,0.1896,0.2478,1851.81,1359.74,1969.24
12790,-3.8711,0.1814,0.2455,273.68,-280.88,-1296.45
12800,-3.8711,0.1813,0.2482,-773.19,-577.82,-249.57
12810,-3.8710,0.1882,0.2469,-788.82,-234.07,797.30
12820,-3.8710,0.2008,0.2400,101.81,-390.26,1531.68
12830,-3.8710,0.2145,0.2330,1711.18,-1280.88,1969.18
12840,-3.8710,0.2241,0.2267,-538.82,1828.49,-1858.95
12850,-3.8710,0.2261,0.2180,695.56,1016.05,-1483.95
12860,-3.8710,0.2173,0.2107,945.56,-93.32,-421.51
12870,-3.8708,0.2014,0.2086,-179.44,-1030.88,906.62
12880,-3.8708,0.1888,0.2101,1789.31,-1296.51,1953.49
12890,-3.8708,0.1857,0.2119,179.93,-1109.01,-1390.26
12900,-3.8708,0.1934,0.2141,-226.32,-874.69,-1265.26
12910,-3.8708,0.2156,0.2195,758.06,-593.38,-1718.38
12920,-3.8708,0.2539,0.2244,-398.19,94.12,906.68
12930,-3.8710,0.3004,0.2258,508.06,719.24,-1468.32
12940,-3.8711,0.3481,0.2279,-1538.82,906.80,-155.82
12950,-3.8711,0.3900,0.2333,570.56,1172.55,1672.30
12960,-3.8711,0.4199,0.2394,1929.93,1860.11,406.68
12970,-3.8712,0.4355,0.2413,1758.06,-1358.58,-46.45
12980,-3.8711,0.4343,0.2382,-241.94,-1108.58,437.93
12990,-3.8711,0.4188,0.2357,-398.19,-1514.83,1687.93
13000,-3.8711,0.3962,0.2377,1617.43,-1827.33,-1093.32
13010,-3.8711,0.3772,0.2417,-1273.19,-1577.39,-327.70
13020,-3.8711,0.3712,0.2446,289.31,-1061.77,-62.07
13030,-3.8711,0.3789,0.2434,-476.32,-686.83,-124.57
13040,-3.8711,0.3938,0.2355,508.06,-843.02,-733.95
13050,-3.8711,0.4084,0.2198,-1585.69,-1858.64,1500.43
13060,-3.8712,0.4205,0.2001,289.31,141.42,-1374.57
13070,-3.8713,0.4281,0.1833,1836.18,1610.17,-718.38
13080,-3.8713,0.4279,0.1730,-1195.07,-530.46,78.43
13090,-3.8715,0.4204,0.1694,-1226.32,-1858.58,1406.56
13100,-3.8716,0.4066,0.1704,1820.56,1688.29,-843.44
13110,-3.8716,0.3882,0.1714,54.93,1813.29,1094.06
13120,-3.8717,0.3687,0.1686,1695.56,1938.23,-952.82
13130,-3.8717,0.3507,0.1666,-804.44,1578.80,890.93
13140,-3.8718,0.3359,0.1682,898.68,1328.80,-1155.94
13150,-3.8718,0.3251,0.1682,-991.94,1531.86,1156.56
13160,-3.8719,0.3204,0.1671,1617.43,1531.86,-155.94
13170,-3.8719,0.3281,0.1694,1023.68,1391.24,-1234.07
13180,-3.8719,0.3478,0.1758,-1991.94,1688.11,-1546.57
13190,-3.8719,0.3673,0.1860,523.68,-1499.33,-234.07
13200,-3.8718,0.3774,0.2024,-976.32,-186.83,-1187.19
13210,-3.8717,0.3761,0.2264,320.56,1906.98,-999.63
13220,-3.8716,0.3608,0.2498,148.68,985.11,-296.45
13230,-3.8713,0.3323,0.2626,-1804.44,-30.58,172.30
13240,-3.8713,0.3003,0.2635,-1460.69,1609.99,-593.26
13250,-3.8712,0.2787,0.2511,-1554.44,1734.92,797.36
13260,-3.8712,0.2668,0.2245,-320.07,141.11,922.36
13270,-3.8712,0.2537,0.1929,-1835.69,734.86,437.93
13280,-3.8713,0.2330,0.1691,476.81,687.99,-452.76
13290,-3.8713,0.2086,0.1582,1836.18,1641.05,-1249.69
13300,-3.8713,0.1864,0.1572,-1288.82,250.37,-1265.32
13310,-3.8713,0.1699,0.1598,-132.57,125.31,-530.94
13320,-3.8712,0.1619,0.1624,1758.06,453.43,484.68
13330,-3.8712,0.1632,0.1656,726.81,781.56,1500.31
13340,-3.8712,0.1716,0.1687,898.68,1203.43,-1609.07
13350,-3.8712,0.1810,0.1724,1976.81,1594.06,-843.44
13360,-3.8712,0.1885,0.1783,-820.07,-1937.19,-327.82
13370,-3.8711,0.1947,0.1843,133.06,-1171.51,78.43
13380,-3.8711,0.2006,0.1887,929.93,-405.88,469.06
13390,-3.8711,0.2068,0.1918,1679.93,156.62,812.87
13400,-3.8711,0.2118,0.1932,-1523.19,547.24,1375.37
13410,-3.8711,0.2133,0.1910,-882.57,734.74,-1905.88
13420,-3.8711,0.2115,0.1823,-695.07,453.49,-1499.63
13430,-3.8711,0.2072,0.1670,-913.82,-671.51,-1890.32
13440,-3.8711,0.2006,0.1503,-1476.32,1375.37,922.18
13450,-3.8712,0.1974,0.1364,1679.93,-765.26,-593.51
13460,-3.8712,0.2008,0.1281,1273.68,1453.49,-1781.01
13470,-3.8712,0.2095,0.1281,1711.18,390.99,1578.37
13480,-3.8712,0.2229,0.1377,-1179.44,390.99,1703.37
13490,-3.8712,0.2401,0.1512,539.31,1625.43,-1749.76
13500,-3.8712,0.2587,0.1617,-1257.57,-640.20,-1374.76
13510,-3.8712,0.2775,0.1708,1117.43,703.61,-1374.69
13520,-3.8712,0.2964,0.1776,-476.32,1859.86,1859.68
13530,-3.8712,0.3108,0.1799,1945.56,-1265.08,469.06
13540,-3.8713,0.3175,0.1788,-210.69,-968.20,-890.32
13550,-3.8713,0.3191,0.1796,648.68,-1108.76,-1905.94
13560,-3.8713,0.3204,0.1852,851.81,-1015.01,1547.18
13570,-3.8713,0.3273,0.1925,1023.68,-296.26,1187.81
13580,-3.8713,0.3419,0.1998,1898.68,641.24,484.74
13590,-3.8715,0.3588,0.2075,-226.32,1578.74,-812.13
13600,-3.8715,0.3712,0.2151,1929.93,-1436.83,1719.12
13610,-3.8715,0.3757,0.2188,-476.32,-468.08,390.99
13620,-3.8716,0.3748,0.2157,101.81,0.73,-874.57
13630,-3.8716,0.3713,0.2095,-23.19,-389.95,1922.24
13640,-3.8716,0.3668,0.2006,-460.69,-1186.83,1047.24
13650,-3.8716,0.3602,0.1907,-1038.82,1672.55,969.12
13660,-3.8716,0.3524,0.1853,-1882.57,406.92,1765.99
13670,-3.8716,0.3484,0.1849,1117.43,-280.58,-609.07
13680,-3.8715,0.3527,0.1891,601.81,-327.45,1875.31
13690,-3.8713,0.3646,0.1960,1148.68,203.80,937.87
13700,-3.8713,0.3790,0.2006,-1320.07,1094.42,-702.76
13710,-3.8712,0.3905,0.1989,523.68,1672.61,31.62
13720,-3.8713,0.3950,0.1908,1992.43,1453.86,-562.13
13730,-3.8713,0.3927,0.1846,-1429.44,422.61,-1530.88
13740,-3.8713,0.3883,0.1881,-1726.32,-374.27,-1999.69
13750,-3.8713,0.3901,0.1987,1711.18,78.86,-1562.13
13760,-3.8713,0.4009,0.2104,1945.56,1438.23,-374.63
13770,-3.8712,0.4170,0.2170,-679.44,-1061.77,1000.37
13780,-3.8712,0.4344,0.2125,1383.06,-217.96,1765.99
13790,-3.8712,0.4470,0.1936,-382.57,-796.08,1250.37
13800,-3.8713,0.4495,0.1631,1226.81,782.10,-640.26
13810,-3.8713,0.4435,0.1335,1539.31,875.85,656.56
13820,-3.8715,0.4342,0.1162,773.68,1094.60,-1749.76
13830,-3.8715,0.4247,0.1083,-413.82,-1124.21,1000.18
13840,-3.8715,0.4133,0.1027,-1632.57,1860.17,1328.31
13850,-3.8715,0.3992,0.0972,914.31,1141.42,-1234.19
13860,-3.8713,0.3840,0.0925,-898.19,438.23,500.18
13870,-3.8713,0.3701,0.0917,1164.31,-155.52,-1921.75
13880,-3.8713,0.3619,0.0942,-616.94,-264.95,-781.13
13890,-3.8712,0.3615,0.0989,-1663.82,63.17,234.56
13900,-3.8712,0.3678,0.1033,-1726.32,656.92,1156.43
13910,-3.8712,0.3778,0.1062,-913.82,1219.42,1875.18
13920,-3.8712,0.3860,0.1123,367.43,1594.48,-1093.57
13930,-3.8711,0.3921,0.1271,1414.31,-1624.27,281.43
13940,-3.8711,0.3981,0.1459,-1804.44,266.36,1750.24
13950,-3.8711,0.4021,0.1620,-1038.82,-1327.39,-812.26
13960,-3.8710,0.4059,0.1741,-523.19,735.11,15.93
13970,-3.8710,0.4138,0.1775,-38.82,-1718.02,78.43
13980,-3.8711,0.4248,0.1726,976.81,-1280.46,-77.82
13990,-3.8711,0.4359,0.1632,-1616.94,-1905.46,-593.44
14000,-3.8711,0.4431,0.1469,-195.07,891.42,-1999.69
14010,-3.8712,0.4442,0.1252,726.81,-1202.27,-202.88
14020,-3.8712,0.4419,0.1051,867.43,32.10,1172.12
14030,-3.8713,0.4357,0.0923,570.56,1453.98,-1124.82
14040,-3.8713,0.4269,0.0891,-226.32,-186.71,1843.87
14050,-3.8713,0.4263,0.0961,-1351.32,-592.96,-1812.38
14060,-3.8713,0.4431,0.1094,-1429.44,297.67,-749.82
14070,-3.8712,0.4701,0.1193,726.81,-1999.15,500.18
14080,-3.8712,0.4907,0.1191,179.93,-733.46,1609.56
14090,-3.8712,0.4962,0.1095,-1179.44,-749.08,-1999.82
14100,-3.8712,0.4877,0.0906,-476.32,-1983.46,906.43
14110,-3.8713,0.4692,0.0604,-1570.07,-405.33,1781.37
14120,-3.8715,0.4458,0.0228,70.56,-264.71,953.19
14130,-3.8717,0.4225,-0.0110,1070.56,-1077.27,-531.25
14140,-3.8718,0.4088,-0.0282,-1913.82,-1405.46,-984.44
14150,-3.8718,0.4124,-0.0238,336.18,391.42,859.31
14160,-3.8718,0.4260,0.0043,789.31,953.92,1749.94
14170,-3.8717,0.4420,0.0492,-1460.69,547.67,1281.25
14180,-3.8716,0.4569,0.0822,586.18,-1702.27,1687.56
14190,-3.8715,0.4597,0.0847,-1507.57,-1483.52,1218.87
14200,-3.8715,0.4448,0.0647,-1148.19,-1155.40,-1515.50
14210,-3.8715,0.4235,0.0345,945.56,282.10,640.75
14220,-3.8716,0.4092,0.0062,-1788.82,422.67,531.31
14230,-3.8717,0.4041,-0.0089,383.06,797.67,515.62
14240,-3.8718,0.4028,-0.0042,-273.19,-1139.89,-1562.56
14250,-3.8718,0.4045,0.0135,-429.44,-530.52,-1484.44
14260,-3.8718,0.4108,0.0299,-210.69,1735.11,-15.62
14270,-3.8717,0.4198,0.0388,586.18,-171.08,1875.00
14280,-3.8717,0.4294,0.0389,1742.43,969.54,-312.44
14290,-3.8716,0.4360,0.0325,-1023.19,985.17,1156.31
14300,-3.8716,0.4333,0.0222,-179.44,157.04,1531.31
14310,-3.8716,0.4272,0.0122,-523.19,-1155.46,156.25
14320,-3.8717,0.4355,0.0071,-1304.44,1563.29,1578.12
14330,-3.8718,0.4640,0.0084,-241.94,907.04,-515.62
14340,-3.8718,0.4996,0.0166,-601.32,1078.98,-1046.88
14350,-3.8718,0.5303,0.0344,-38.82,-1874.08,-562.50
14360,-3.8717,0.5531,0.0586,-116.94,407.23,609.44
14370,-3.8717,0.5685,0.0825,-1195.07,-498.96,-1562.44
14380,-3.8716,0.5795,0.0999,773.68,-1436.40,625.12
14390,-3.8716,0.5924,0.1123,-1820.07,782.35,-843.57
14400,-3.8715,0.6116,0.1237,-163.82,-1623.90,1312.68
14410,-3.8715,0.6360,0.1296,-1710.69,-170.72,-1687.32
14420,-3.8715,0.6593,0.1324,1414.31,594.97,-1906.01
14430,-3.8715,0.6741,0.1340,398.68,954.41,1203.37
14440,-3.8716,0.6780,0.1301,-1710.69,1157.53,-31.01
14450,-3.8716,0.6737,0.1169,-1210.69,657.53,-1515.38
14460,-3.8716,0.6576,0.0931,-1757.57,-1029.97,734.56
14470,-3.8717,0.6259,0.0652,179.93,-76.84,-1406.13
14480,-3.8717,0.5894,0.0420,117.43,344.97,78.25
14490,-3.8718,0.5577,0.0272,-554.44,1376.10,1593.81
14500,-3.8719,0.5348,0.0231,-601.32,-514.59,-78.12
14510,-3.8719,0.5229,0.0261,461.18,-1045.84,-1015.62
14520,-3.8719,0.5170,0.0278,-1054.44,-655.27,-1515.62
14530,-3.8719,0.5067,0.0245,-1820.07,-436.52,-1734.38
14540,-3.8719,0.4875,0.0212,867.43,-858.40,-1625.00
14550,-3.8719,0.4611,0.0214,-1585.69,-1280.33,-468.75
14560,-3.8718,0.4291,0.0212,-976.32,-1264.77,1812.50
14570,-3.8717,0.3933,0.0182,-1070.07,-1280.46,406.25
14580,-3.8717,0.3596,0.0133,-1648.19,-1671.14,-1937.50
14590,-3.8717,0.3335,0.0049,-1960.69,1703.80,-1781.25
14600,-3.8717,0.3138,-0.0106,-1304.44,625.61,1281.25
14610,-3.8718,0.2991,-0.0281,179.93,-1358.76,-15.69
14620,-3.8718,0.2911,-0.0365,-1710.69,406.80,-546.94
14630,-3.8717,0.2882,-0.0310,1273.68,-671.33,484.25
14640,-3.8717,0.2891,-0.0154,898.68,31.80,-1250.06
14650,-3.8716,0.2957,0.0038,1008.06,-1968.20,1328.06
14660,-3.8716,0.3082,0.0179,1851.81,484.92,-750.00
14670,-3.8715,0.3247,0.0253,-538.82,-1702.58,218.75
14680,-3.8715,0.3413,0.0303,1570.56,-765.01,343.75
14690,-3.8715,0.3547,0.0366,-304.44,-124.39,156.25
14700,-3.8715,0.3630,0.0465,1414.31,688.17,656.31
14710,-3.8715,0.3668,0.0593,-1523.19,1953.80,-1593.69
14720,-3.8713,0.3667,0.0734,-1038.82,-405.58,1031.31
14730,-3.8713,0.3618,0.0831,-1054.44,1391.30,-687.38
14740,-3.8712,0.3544,0.0859,-1679.44,-1358.70,422.00
14750,-3.8712,0.3517,0.0879,1367.43,-999.33,390.75
14760,-3.8713,0.3560,0.0917,1023.68,-749.33,-374.88
14770,-3.8713,0.3628,0.0966,1570.56,-264.95,-1453.00
14780,-3.8713,0.3641,0.1022,-1554.44,360.05,1593.93
14790,-3.8713,0.3555,0.1077,-1382.57,1078.80,1078.31
14800,-3.8713,0.3442,0.1124,1508.06,1781.92,953.31
14810,-3.8713,0.3414,0.1136,70.56,-1608.70,1093.93
14820,-3.8713,0.3535,0.1101,-288.82,-1452.51,1187.68
14830,-3.8713,0.3761,0.1060,1258.06,-1905.58,656.43
14840,-3.8715,0.3951,0.1067,148.68,1563.23,-749.82
14850,-3.8715,0.4021,0.1135,-1413.82,1656.98,1812.68
14860,-3.8715,0.3981,0.1237,-523.19,-1468.02,1500.18
14870,-3.8715,0.3856,0.1361,-1038.82,-171.14,-1249.82
14880,-3.8713,0.3671,0.1486,1367.43,1422.61,1031.49
14890,-3.8713,0.3488,0.1613,-1007.57,-983.70,-484.13
14900,-3.8712,0.3369,0.1748,648.68,641.30,1812.81
14910,-3.8712,0.3317,0.1860,-866.94,-1624.39,-312.19
14920,-3.8711,0.3307,0.1962,-1538.82,-186.89,1000.31
14930,-3.8711,0.3328,0.2070,-1663.82,1109.99,1640.99
14940,-3.8711,0.3381,0.2111,-1398.19,-1499.39,1531.62
14950,-3.8711,0.3457,0.2048,-710.69,-983.76,890.99
14960,-3.8712,0.3525,0.1946,258.06,-1780.58,-109.01
14970,-3.8712,0.3579,0.1849,1133.06,906.92,-1249.63
14980,-3.8712,0.3599,0.1801,1820.56,-327.45,-1874.69
14990,-3.8712,0.3593,0.1830,-1929.44,-952.45,-1655.94
15000,-3.8712,0.3604,0.1897,1992.43,-577.45,-905.94
15010,-3.8712,0.3650,0.1951,-1866.94,281.92,-140.26
15020,-3.8711,0.3716,0.1963,-1273.19,969.42,250.37
15030,-3.8711,0.3760,0.1924,-429.44,1125.67,125.37
15040,-3.8712,0.3740,0.1874,133.06,625.73,-265.26
15050,-3.8712,0.3672,0.1854,-116.94,-14.95,-702.82
15060,-3.8712,0.3613,0.1833,-991.94,-264.95,-1499.69
15070,-3.8712,0.3635,0.1777,-1741.94,-530.58,1125.31
15080,-3.8713,0.3759,0.1722,-1460.69,-1249.33,-140.32
15090,-3.8713,0.3970,0.1714,117.43,-1952.39,-609.07
15100,-3.8713,0.4211,0.1757,-1179.44,1938.23,-187.19
15110,-3.8712,0.4396,0.1859,1914.31,-1514.83,765.93
15120,-3.8712,0.4520,0.2009,273.68,-202.27,1594.06
15130,-3.8712,0.4620,0.2133,1867.43,1719.60,-1796.51
15140,-3.8712,0.4672,0.2192,-851.32,-702.27,-796.51
15150,-3.8711,0.4634,0.2235,-195.07,63.35,391.05
15160,-3.8711,0.4510,0.2313,-679.44,610.23,1141.05
15170,-3.8711,0.4407,0.2413,1742.43,1610.23,1187.93
15180,-3.8711,0.4396,0.2461,414.31,-1108.52,906.68
15190,-3.8711,0.4436,0.2421,273.68,-499.15,562.93
15200,-3.8712,0.4474,0.2286,789.31,-1014.77,-155.82
15210,-3.8712,0.4449,0.2158,1273.68,1266.48,-1062.07
15220,-3.8712,0.4374,0.2169,961.18,-374.15,-1734.01
15230,-3.8712,0.4312,0.2295,-7.57,-233.58,-1921.51
15240,-3.8712,0.4303,0.2454,-804.44,1375.79,-1593.32
15250,-3.8712,0.4316,0.2581,-913.82,-592.96,-1390.20
15260,-3.8712,0.4283,0.2621,-741.94,1032.04,-1968.26
15270,-3.8712,0.4183,0.2578,-1163.82,1547.67,984.86
15280,-3.8712,0.4045,0.2535,1554.93,1000.79,16.11
15290,-3.8713,0.3894,0.2556,-210.69,453.86,-952.64
15300,-3.8713,0.3734,0.2599,1851.81,719.48,-1796.39
15310,-3.8713,0.3577,0.2601,-195.07,1266.30,1453.61
15320,-3.8713,0.3430,0.2535,1789.31,1297.55,375.49
15330,-3.8715,0.3285,0.2435,-85.69,453.74,-1468.26
15340,-3.8716,0.3145,0.2325,-1945.07,-827.51,-108.95
15350,-3.8716,0.2997,0.2167,258.06,1766.24,1500.43
15360,-3.8716,0.2791,0.1957,-1632.57,-265.08,265.99
15370,-3.8716,0.2512,0.1757,-273.19,1047.36,359.74
15380,-3.8716,0.2177,0.1628,164.31,-1515.14,1609.68
15390,-3.8716,0.1840,0.1582,-132.57,844.12,-546.57
15400,-3.8715,0.1621,0.1559,-445.07,250.31,1297.18
15410,-3.8715,0.1580,0.1493,758.06,-46.57,-1327.88
15420,-3.8715,0.1686,0.1412,226.81,-890.32,-562.26
15430,-3.8715,0.1865,0.1367,1586.18,-1921.57,-187.26
15440,-3.8713,0.2002,0.1373,-116.94,1500.31,531.49
15450,-3.8713,0.2010,0.1407,1633.06,1578.49,-1874.76
15460,-3.8712,0.1891,0.1392,1742.43,-1984.01,297.12
15470,-3.8712,0.1696,0.1298,211.18,1812.87,-1749.76
15480,-3.8712,0.1510,0.1162,1711.18,609.68,-640.38
15490,-3.8712,0.1388,0.1030,-663.82,-1124.76,-374.82
15500,-3.8712,0.1333,0.0936,1773.68,1187.74,-640.44
15510,-3.8712,0.1326,0.0900,1070.56,-15.38,-1265.50
15520,-3.8712,0.1373,0.0908,976.81,-484.13,-1984.25
15530,-3.8712,0.1467,0.0989,1586.18,-374.76,1734.50
15540,-3.8712,0.1573,0.1134,-1210.69,656.49,1984.56
15550,-3.8712,0.1681,0.1273,148.68,-1484.07,-1359.19
15560,-3.8712,0.1782,0.1357,1523.68,297.18,-484.13
15570,-3.8712,0.1859,0.1368,-1179.44,1375.31,-171.63
15580,-3.8712,0.1863,0.1317,-195.07,1515.93,-796.63
15590,-3.8712,0.1790,0.1226,-148.19,859.68,1968.99
15600,-3.8712,0.1680,0.1127,-1085.69,-312.19,828.31
15610,-3.8712,0.1572,0.1044,1508.06,-1577.82,250.18
15620,-3.8713,0.1517,0.1013,133.06,1359.68,-31.07
15630,-3.8713,0.1541,0.1080,-570.07,968.99,-265.44
15640,-3.8713,0.1637,0.1233,-273.19,1828.37,-187.32
15650,-3.8712,0.1774,0.1464,961.18,-218.44,328.31
15660,-3.8712,0.1925,0.1737,-1288.82,-1265.32,1297.12
15670,-3.8712,0.2087,0.1953,648.68,-1765.26,-1452.82
15680,-3.8712,0.2246,0.2036,-1273.19,1000.37,-546.51
15690,-3.8712,0.2406,0.1978,758.06,-1937.07,-546.51
15700,-3.8712,0.2548,0.1848,-1195.07,1312.93,-1124.63
15710,-3.8712,0.2629,0.1759,617.43,-343.26,-1702.82
15720,-3.8712,0.2675,0.1760,1664.31,-1483.89,1969.06
15730,-3.8712,0.2728,0.1836,-1757.57,-1468.26,1797.18
15740,-3.8712,0.2805,0.1959,-1070.07,-499.51,1375.31
15750,-3.8712,0.2927,0.2087,-85.69,1078.61,562.87
15760,-3.8713,0.3124,0.2145,1476.81,-1280.70,-265.26
15770,-3.8713,0.3346,0.2155,-7.57,-546.33,-843.38
15780,-3.8713,0.3541,0.2166,-1163.82,-421.26,-1421.51
15790,-3.8713,0.3701,0.2139,1336.18,-280.58,1906.62
15800,-3.8713,0.3799,0.2095,-616.94,-624.33,1484.74
15810,-3.8713,0.3817,0.2091,633.06,-1186.77,1406.62
15820,-3.8713,0.3787,0.2104,867.43,-1233.64,1875.37
15830,-3.8713,0.3755,0.2101,476.81,-1061.77,-1405.88
15840,-3.8713,0.3719,0.2042,70.56,-1108.64,-1296.51
15850,-3.8713,0.3629,0.1924,-382.57,-1858.70,1906.62
15860,-3.8713,0.3472,0.1787,-1538.82,625.67,469.12
15870,-3.8715,0.3246,0.1635,445.56,-1124.33,-890.32
15880,-3.8715,0.2933,0.1490,1554.93,922.49,-1030.94
15890,-3.8713,0.2537,0.1400,1554.93,-921.33,562.74
15900,-3.8713,0.2026,0.1375,476.81,1922.36,-499.76
15910,-3.8712,0.1425,0.1388,1945.56,1594.12,-1077.88
15920,-3.8711,0.0913,0.1472,-1757.57,1765.87,1797.12
15930,-3.8711,0.0680,0.1694,-304.44,-1156.13,-1156.01
15940,-3.8711,0.0800,0.1947,711.18,1687.62,1547.18
15950,-3.8712,0.1296,0.2061,-1757.57,922.00,-1952.76
15960,-3.8713,0.2155,0.2112,601.81,-1624.76,1187.87
15970,-3.8715,0.3186,0.2222,-413.82,-968.38,1109.74
15980,-3.8716,0.4061,0.2396,789.31,438.11,-1046.45
15990,-3.8716,0.4645,0.2662,-7.57,-1327.39,-874.57
16000,-3.8715,0.5005,0.2970,-538.82,-1921.02,1531.74
16010,-3.8713,0.5199,0.3219,70.56,-1983.40,1547.42
16020,-3.8712,0.5284,0.3346,-1445.07,1204.10,1984.99
16030,-3.8711,0.5350,0.3318,-351.32,-1170.90,1047.49
16040,-3.8711,0.5433,0.3142,492.43,-1530.21,1469.36
16050,-3.8712,0.5532,0.2874,1554.93,219.79,-936.89
16060,-3.8713,0.5660,0.2589,-1179.44,782.29,-1093.20
16070,-3.8715,0.5778,0.2350,461.18,1141.72,-1140.14
16080,-3.8716,0.5857,0.2201,1961.18,-1920.78,-30.82
16090,-3.8716,0.5906,0.2133,-1023.19,172.97,-1499.57
16100,-3.8716,0.5850,0.2057,-398.19,-702.03,-1077.76
16110,-3.8715,0.5649,0.1978,-1116.94,-1670.78,1047.24
16120,-3.8715,0.5426,0.1929,320.56,1313.60,-405.88
16130,-3.8713,0.5264,0.1851,1461.18,688.54,1344.12
16140,-3.8713,0.5133,0.1740,-616.94,-311.52,1906.56
16150,-3.8713,0.5089,0.1648,1711.18,-1733.40,937.81
16160,-3.8715,0.5184,0.1589,1148.68,1094.73,-921.57
16170,-3.8715,0.5366,0.1559,-1632.57,344.73,1984.68
16180,-3.8715,0.5525,0.1577,695.56,-45.84,-1843.51
16190,-3.8715,0.5574,0.1641,-1273.19,188.54,-1015.32
16200,-3.8715,0.5513,0.1659,-648.19,1001.04,-62.19
16210,-3.8713,0.5358,0.1594,-1429.44,1235.41,828.43
16220,-3.8713,0.5157,0.1472,586.18,407.29,1297.18
16230,-3.8713,0.4971,0.1281,-1976.32,-1155.27,687.74
16240,-3.8715,0.4811,0.1034,-366.94,391.54,-1499.76
16250,-3.8716,0.4677,0.0781,1586.18,1235.29,-937.32
16260,-3.8717,0.4583,0.0604,-132.57,-1999.15,-593.63
16270,-3.8717,0.4531,0.0551,-1335.69,-264.77,890.69
16280,-3.8717,0.4463,0.0591,-1991.94,-952.27,484.44
16290,-3.8717,0.4335,0.0730,1133.06,-436.65,-1890.56
16300,-3.8716,0.4215,0.0936,-507.57,1344.54,890.75
16310,-3.8715,0.4153,0.1135,1961.18,-14.83,281.37
16320,-3.8715,0.4093,0.1300,1164.31,-1467.96,-218.57
16330,-3.8713,0.4036,0.1398,398.68,641.42,-1624.76
16340,-3.8713,0.4069,0.1396,-335.69,1891.36,-687.26
16350,-3.8713,0.4243,0.1298,86.18,1875.79,-1687.26
16360,-3.8715,0.4486,0.1163,-1679.44,610.17,-31.01
16370,-3.8715,0.4675,0.1075,1429.93,-1108.52,1203.31
16380,-3.8716,0.4769,0.1031,-148.19,1766.48,-1499.82
16390,-3.8716,0.4746,0.0969,1054.93,1204.04,93.93
16400,-3.8717,0.4592,0.0840,758.06,407.17,1922.06
16410,-3.8718,0.4406,0.0714,-1210.69,-1249.15,-578.00
16420,-3.8718,0.4347,0.0685,398.68,1141.48,750.12
16430,-3.8719,0.4498,0.0732,-351.32,766.42,-1062.38
16440,-3.8719,0.4806,0.0829,1586.18,1375.85,-1562.38
16450,-3.8719,0.5190,0.0991,1523.68,-1389.71,-953.00
16460,-3.8718,0.5586,0.1187,-1554.44,688.48,140.81
16470,-3.8718,0.5891,0.1321,-491.94,-811.46,1125.18
16480,-3.8718,0.6041,0.1385,-585.69,907.35,1734.62
16490,-3.8718,0.6077,0.1411,1336.18,1735.53,1750.24
16500,-3.8718,0.6071,0.1409,1789.31,-1936.34,1500.24
16510,-3.8718,0.6119,0.1387,1711.18,-1967.59,1125.24
16520,-3.8718,0.6238,0.1328,-1663.82,1751.16,203.37
16530,-3.8719,0.6349,0.1266,-148.19,1001.16,-812.26
16540,-3.8719,0.6394,0.1262,1273.68,204.35,-1187.26
16550,-3.8719,0.6346,0.1307,1851.81,157.47,-718.51
16560,-3.8718,0.6216,0.1376,1242.43,735.60,593.99
16570,-3.8718,0.6042,0.1420,-429.44,1610.53,-1546.63
16580,-3.8717,0.5874,0.1387,1351.81,-1826.97,78.37
16590,-3.8717,0.5758,0.1284,-804.44,1751.10,875.24
16600,-3.8717,0.5707,0.1130,1711.18,438.60,1047.12
16610,-3.8717,0.5665,0.0955,1054.93,-1530.15,1172.06
16620,-3.8717,0.5553,0.0825,523.68,219.85,1547.06
16630,-3.8717,0.5314,0.0791,-913.82,-1436.46,-1624.88
16640,-3.8717,0.4962,0.0837,23.68,-1873.96,-93.63
16650,-3.8716,0.4592,0.0900,-476.32,-1280.33,1906.37
16660,-3.8716,0.4302,0.0917,-1210.69,-483.52,-484.25
16670,-3.8716,0.4189,0.0868,-929.44,-264.83,-437.38
16680,-3.8716,0.4303,0.0742,1633.06,-889.83,1797.00
16690,-3.8717,0.4574,0.0625,-913.82,1500.79,-609.25
16700,-3.8717,0.4873,0.0586,-1445.07,0.85,1625.12
16710,-3.8717,0.5079,0.0608,-1616.94,-499.08,1140.69
16720,-3.8717,0.5131,0.0687,1023.68,-217.77,1828.19
16730,-3.8717,0.4996,0.0780,1679.93,797.85,-890.50
16740,-3.8716,0.4701,0.0875,-38.82,1985.29,656.37
16750,-3.8716,0.4380,0.0978,179.93,-795.96,1812.62
16760,-3.8716,0.4165,0.1050,70.56,516.48,-1921.69
16770,-3.8716,0.4119,0.1068,1320.56,1438.29,1687.68
16780,-3.8716,0.4208,0.1069,726.81,1672.67,1187.68
16790,-3.8716,0.4271,0.1090,1867.43,1688.29,1250.18
16800,-3.8716,0.4199,0.1161,-1320.07,1953.92,-1499.82
16810,-3.8715,0.3983,0.1322,1758.06,-1139.83,1406.43
16820,-3.8713,0.3640,0.1523,-1007.57,922.61,1531.49
16830,-3.8712,0.3251,0.1659,-1398.19,-499.33,1406.49
16840,-3.8712,0.2948,0.1675,1617.43,1234.99,-499.69
16850,-3.8712,0.2833,0.1593,1742.43,1438.05,-890.32
16860,-3.8712,0.2906,0.1450,273.68,391.17,281.56
16870,-3.8713,0.3102,0.1309,1211.18,-1436.95,62.74
16880,-3.8715,0.3357,0.1240,-288.82,750.55,78.37
16890,-3.8716,0.3580,0.1248,-1023.19,-124.39,1187.68
16900,-3.8717,0.3722,0.1299,1836.18,-30.58,-156.07
16910,-3.8716,0.3802,0.1404,-351.32,625.67,562.74
16920,-3.8716,0.3811,0.1591,679.93,1969.48,-843.51
16930,-3.8715,0.3746,0.1832,789.31,360.11,-1437.19
16940,-3.8713,0.3658,0.2048,-38.82,-546.20,1750.31
16950,-3.8712,0.3569,0.2174,-1163.82,-1780.58,312.87
16960,-3.8712,0.3469,0.2229,1695.56,-171.20,1906.62
16970,-3.8712,0.3370,0.2223,414.31,531.92,-1499.57
16980,-3.8712,0.3306,0.2166,-851.32,453.74,-1187.07
16990,-3.8712,0.3279,0.2140,-1679.44,-280.64,-452.76
17000,-3.8711,0.3271,0.2174,1976.81,-608.76,672.24
17010,-3.8711,0.3275,0.2218,1883.06,-171.26,1922.24
17020,-3.8711,0.3282,0.2227,1929.93,391.24,-952.70
17030,-3.8711,0.3268,0.2189,-1976.32,500.61,-468.32
17040,-3.8711,0.3204,0.2109,1836.18,16.24,-1046.45
17050,-3.8711,0.3062,0.1978,1023.68,-999.39,1609.74
17060,-3.8711,0.2834,0.1858,-804.44,1313.05,390.99
17070,-3.8712,0.2582,0.1777,289.31,-218.20,-187.19
17080,-3.8711,0.2345,0.1703,1054.93,-1249.51,531.56
17090,-3.8711,0.2153,0.1666,-1976.32,1797.30,-1655.94
17100,-3.8711,0.2059,0.1670,-429.44,1328.49,-327.82
17110,-3.8711,0.2107,0.1671,-1632.57,1375.37,-671.57
17120,-3.8711,0.2365,0.1644,-1023.19,1390.99,625.31
17130,-3.8713,0.2834,0.1621,-1726.32,1047.30,-124.69
17140,-3.8715,0.3356,0.1615,289.31,750.55,-968.44
17150,-3.8716,0.3766,0.1628,-1038.82,672.49,-374.69
17160,-3.8716,0.4026,0.1698,211.18,844.48,-1515.32
17170,-3.8715,0.4055,0.1823,-460.69,1735.11,265.93
17180,-3.8713,0.3774,0.1985,-85.69,-671.14,390.93
17190,-3.8712,0.3346,0.2130,320.56,1406.98,1062.87
17200,-3.8711,0.3021,0.2205,-1163.82,-733.76,437.87
17210,-3.8711,0.2913,0.2229,-1320.07,219.30,1484.80
17220,-3.8712,0.3107,0.2227,1289.31,531.80,-30.82
17230,-3.8712,0.3544,0.2227,-226.32,500.55,1328.55
17240,-3.8713,0.3965,0.2251,1367.43,500.67,-577.70
17250,-3.8713,0.4233,0.2310,-1241.94,813.23,-1327.70
17260,-3.8713,0.4349,0.2378,-1804.44,1563.29,-999.57
17270,-3.8713,0.4348,0.2402,-320.07,-1561.71,-93.32
17280,-3.8712,0.4270,0.2401,-335.69,-1249.21,781.68
17290,-3.8712,0.4158,0.2427,-1335.69,-1264.83,1141.05
17300,-3.8712,0.4083,0.2520,1226.81,-936.71,1047.30
17310,-3.8712,0.4098,0.2687,273.68,250.79,812.99
17320,-3.8712,0.4215,0.2877,461.18,-1608.58,453.61
17330,-3.8713,0.4384,0.3046,1961.18,828.92,-405.70
17340,-3.8713,0.4529,0.3195,117.43,-1014.77,-1936.95
17350,-3.8715,0.4628,0.3297,1976.81,891.48,-108.76
17360,-3.8715,0.4688,0.3324,-757.57,-1796.02,1266.24
17370,-3.8716,0.4705,0.3342,8.06,-1452.21,-1358.76
17380,-3.8716,0.4639,0.3407,226.81,-1217.83,703.74
17390,-3.8717,0.4458,0.3502,-616.94,-389.77,-280.64
17400,-3.8717,0.4215,0.3613,1070.56,828.98,-686.83
17410,-3.8717,0.3995,0.3690,1961.18,-1749.21,-952.45
17420,-3.8717,0.3817,0.3665,-851.32,-764.89,-1468.08
17430,-3.8717,0.3669,0.3510,867.43,-1093.02,1328.80
17440,-3.8718,0.3519,0.3217,-1023.19,922.55,-593.08
17450,-3.8718,0.3297,0.2853,1054.93,1172.55,1672.49
17460,-3.8718,0.2988,0.2526,-1788.82,516.24,1078.67
17470,-3.8718,0.2650,0.2279,-1741.94,328.67,-1968.26
17480,-3.8717,0.2333,0.2136,1929.93,1172.36,516.05
17490,-3.8717,0.2063,0.2091,1867.43,-655.82,-187.13
17500,-3.8716,0.1860,0.2072,-1585.69,-1234.01,-1015.26
17510,-3.8715,0.1724,0.2039,-179.44,-1484.07,1531.62
17520,-3.8715,0.1641,0.1986,-1929.44,-1905.94,-312.13
17530,-3.8713,0.1582,0.1924,1008.06,1422.18,1765.99
17540,-3.8713,0.1530,0.1815,258.06,625.31,-734.01
17550,-3.8712,0.1469,0.1648,-413.82,-765.38,15.93
17560,-3.8712,0.1378,0.1514,-1195.07,1093.99,515.93
17570,-3.8712,0.1251,0.1440,1648.68,-624.76,906.49
17580,-3.8712,0.1116,0.1393,23.68,-1562.26,1531.49
17590,-3.8712,0.0988,0.1360,-1710.69,1828.31,-1468.51
17600,-3.8712,0.0876,0.1365,648.68,1406.43,-234.13
17610,-3.8711,0.0817,0.1417,-773.19,1468.87,1328.37
17620,-3.8711,0.0804,0.1489,-1538.82,-1859.25,-640.38
17630,-3.8710,0.0823,0.1583,-1695.07,-937.38,1984.62
17640,-3.8708,0.0873,0.1691,-1460.69,265.75,672.18
17650,-3.8708,0.0944,0.1750,-820.07,1640.75,-968.44
17660,-3.8707,0.0984,0.1749,86.18,-1593.57,1187.81
17670,-3.8707,0.0967,0.1731,601.81,-1609.19,-1202.82
17680,-3.8707,0.0923,0.1736,383.06,-1843.57,-390.32
17690,-3.8707,0.0903,0.1747,-179.44,-1781.13,-93.44
17700,-3.8707,0.0958,0.1737,-429.44,-1640.50,-327.82
17710,-3.8707,0.1113,0.1726,273.68,-1765.44,-1405.94
17720,-3.8707,0.1346,0.1708,-1741.94,-1906.07,469.06
17730,-3.8708,0.1600,0.1705,1242.43,1859.62,1906.56
17740,-3.8710,0.1829,0.1753,492.43,1828.43,-405.94
17750,-3.8710,0.2008,0.1868,-585.69,-1562.19,-1984.07
17760,-3.8710,0.2141,0.2045,1711.18,-93.38,1328.43
17770,-3.8710,0.2244,0.2245,-585.69,-1827.76,1031.62
17780,-3.8710,0.2308,0.2433,726.81,734.80,594.18
17790,-3.8711,0.2327,0.2617,1554.93,-858.95,-483.95
17800,-3.8711,0.2340,0.2775,1789.31,1500.43,-1890.14
17810,-3.8711,0.2379,0.2811,1961.18,-483.95,1156.74
17820,-3.8711,0.2429,0.2692,-1538.82,-15.20,500.49
17830,-3.8712,0.2468,0.2473,-898.19,-1546.45,-843.26
17840,-3.8712,0.2490,0.2240,-398.19,-343.32,766.05
17850,-3.8713,0.2515,0.2058,-116.94,672.30,-1921.45
17860,-3.8715,0.2555,0.1968,195.56,-1655.76,-62.13
17870,-3.8715,0.2634,0.1978,711.18,1187.99,-1577.76
17880,-3.8715,0.2767,0.2054,1726.81,1312.99,1422.24
17890,-3.8715,0.2939,0.2180,-570.07,-1702.64,1047.24
17900,-3.8715,0.3137,0.2361,1633.06,-93.20,1297.24
17910,-3.8715,0.3339,0.2568,164.31,-1780.64,-1765.20
17920,-3.8715,0.3530,0.2744,-1257.57,875.61,-546.39
17930,-3.8713,0.3706,0.2817,1195.56,-874.33,156.74
17940,-3.8715,0.3831,0.2762,-554.44,63.17,-265.08
17950,-3.8715,0.3893,0.2625,1039.31,-639.89,1937.99
17960,-3.8716,0.3929,0.2455,1836.18,1594.48,-655.76
17970,-3.8716,0.3965,0.2277,-1695.07,-577.39,641.05
17980,-3.8717,0.3989,0.2113,-1241.94,1141.36,-1905.82
17990,-3.8718,0.4001,0.1976,-929.44,-952.39,-187.13
18000,-3.8718,0.3995,0.1875,-773.19,1297.61,-1952.76
18010,-3.8718,0.3973,0.1829,-851.32,0.73,1390.99
18020,-3.8718,0.3966,0.1830,-1132.57,-593.02,-1968.44
18030,-3.8718,0.3995,0.1877,-1226.32,-577.39,-359.07
18040,-3.8717,0.4072,0.1951,-851.32,31.98,1531.62
18050,-3.8717,0.4187,0.1998,133.06,969.54,-765.26
18060,-3.8716,0.4296,0.2019,1601.81,1578.92,812.87
18070,-3.8716,0.4388,0.2041,-1007.57,1844.54,-1749.63
18080,-3.8716,0.4470,0.2069,179.93,-1874.15,-218.38
18090,-3.8715,0.4526,0.2087,1226.81,-1514.77,1484.74
18100,-3.8715,0.4546,0.2074,1945.56,-1280.40,-718.38
18110,-3.8713,0.4518,0.2045,-1804.44,-1452.27,859.74
18120,-3.8713,0.4441,0.2009,1836.18,-1827.27,1953.49
18130,-3.8713,0.4333,0.1952,851.81,1719.60,-1046.51
18140,-3.8712,0.4199,0.1881,-523.19,985.17,297.24
18150,-3.8712,0.4039,0.1829,1758.06,78.92,1969.12
18160,-3.8712,0.3870,0.1812,-288.82,-593.02,-499.69
18170,-3.8711,0.3717,0.1831,1539.31,-811.77,359.68
18180,-3.8711,0.3610,0.1864,-413.82,-561.83,172.18
18190,-3.8712,0.3594,0.1899,-1788.82,-139.95,-905.94
18200,-3.8712,0.3693,0.1938,-1991.94,313.17,1844.12
18210,-3.8712,0.3892,0.1969,-726.32,813.17,828.49
18220,-3.8712,0.4176,0.1981,1820.56,1203.86,172.24
18230,-3.8713,0.4467,0.1989,1461.18,1360.17,-30.88
18240,-3.8712,0.4658,0.2002,1179.93,1453.98,187.87
18250,-3.8712,0.4717,0.1992,-366.94,1625.85,734.74
18260,-3.8712,0.4677,0.1949,383.06,1500.92,1797.24
18270,-3.8712,0.4559,0.1904,-132.57,953.98,-624.63
18280,-3.8711,0.4360,0.1903,-1632.57,375.85,859.74
18290,-3.8711,0.4148,0.1949,-179.44,360.17,1594.12
18300,-3.8711,0.4049,0.1992,1101.81,953.92,1687.87
18310,-3.8711,0.4080,0.1981,-163.82,1500.73,1422.24
18320,-3.8711,0.4176,0.1918,226.81,1360.17,297.24
18330,-3.8712,0.4346,0.1821,1461.18,547.67,1797.24
18340,-3.8713,0.4590,0.1707,-366.94,-686.71,-1609.07
18350,-3.8715,0.4819,0.1605,-1241.94,1844.60,-999.69
18360,-3.8715,0.4976,0.1523,1695.56,547.79,125.31
18370,-3.8716,0.5096,0.1462,-304.44,-499.08,1750.24
18380,-3.8717,0.5215,0.1406,1242.43,-1280.27,-202.88
18390,-3.8717,0.5293,0.1331,-1241.94,-1999.02,-1562.26
18400,-3.8717,0.5309,0.1239,-241.94,1032.23,1593.99
18410,-3.8717,0.5306,0.1123,-38.82,-139.65,765.81
18420,-3.8717,0.5269,0.0966,-70.07,-1624.02,93.93
18430,-3.8718,0.5199,0.0820,-554.44,360.35,-234.19
18440,-3.8718,0.5170,0.0721,-1445.07,-1499.02,-734.25
18450,-3.8718,0.5166,0.0646,-1820.07,1235.35,-890.50
18460,-3.8718,0.5117,0.0563,-1866.94,266.60,-140.50
18470,-3.8717,0.5002,0.0430,1508.06,-795.90,1015.69
18480,-3.8717,0.4833,0.0244,39.31,1500.98,1750.06
18490,-3.8717,0.4675,0.0063,1867.43,-874.08,1328.12
18500,-3.8718,0.4673,-0.0073,-148.19,813.35,-343.75
18510,-3.8718,0.4899,-0.0160,-179.44,-936.65,1656.19
18520,-3.8718,0.5214,-0.0150,-1288.82,1954.04,703.06
18530,-3.8718,0.5483,-0.0040,-1257.57,-1920.90,671.81
18540,-3.8718,0.5675,0.0106,-1804.44,-514.59,1343.69
18550,-3.8718,0.5752,0.0270,648.68,1360.47,-750.00
18560,-3.8717,0.5781,0.0463,1633.06,-545.78,1890.62
18570,-3.8716,0.5872,0.0659,-1991.94,1922.97,375.06
18580,-3.8716,0.6038,0.0825,-835.69,438.60,-1531.13
18590,-3.8715,0.6249,0.0947,1289.31,-1436.34,15.75
18600,-3.8715,0.6443,0.1028,-7.57,126.16,828.31
18610,-3.8715,0.6589,0.1062,-1523.19,1157.47,922.06
18620,-3.8716,0.6709,0.1024,351.81,1595.03,-140.44
18630,-3.8716,0.6793,0.0902,1883.06,1110.66,1343.93
18640,-3.8717,0.6816,0.0725,-1038.82,-451.84,1687.62
18650,-3.8718,0.6747,0.0510,-741.94,1282.53,1562.62
18660,-3.8719,0.6608,0.0300,-1632.57,-1467.47,1906.31
18670,-3.8721,0.6449,0.0145,586.18,-154.97,-1250.00
18680,-3.8721,0.6279,0.0037,-1445.07,1860.60,328.12
18690,-3.8722,0.6102,-0.0027,383.06,469.97,-828.12
18700,-3.8722,0.5934,-0.0051,-1882.57,-342.59,-812.56
18710,-3.8722,0.5787,-0.0061,-38.82,-655.15,-171.94
18720,-3.8721,0.5643,-0.0051,-1913.82,-780.15,828.06
18730,-3.8721,0.5470,-0.0023,242.43,-655.15,1953.06
18740,-3.8721,0.5286,0.0002,-1976.32,-295.84,-1125.06
18750,-3.8721,0.5151,0.0026,-335.69,32.23,-531.25
18760,-3.8721,0.5103,0.0042,1945.56,329.10,-250.00
18770,-3.8721,0.5143,0.0063,1320.56,532.23,-296.88
18780,-3.8721,0.5270,0.0106,1836.18,813.48,-859.38
18790,-3.8721,0.5464,0.0150,-538.82,1360.35,-1906.25
18800,-3.8721,0.5665,0.0156,1945.56,1922.91,937.50
18810,-3.8721,0.5804,0.0146,523.68,-1998.90,593.75
18820,-3.8721,0.5845,0.0208,-1695.07,1876.10,1531.25
18830,-3.8721,0.5770,0.0315,-1179.44,-1342.65,-390.62
18840,-3.8719,0.5580,0.0410,1867.43,32.35,-1453.06
18850,-3.8718,0.5312,0.0480,-570.07,1251.04,1734.44
18860,-3.8717,0.5035,0.0522,8.06,-1858.34,375.06
18870,-3.8717,0.4785,0.0555,461.18,-1311.52,-1609.31
18880,-3.8716,0.4575,0.0590,1258.06,-889.71,0.06
18890,-3.8716,0.4419,0.0607,-1429.44,-452.27,1281.31
18900,-3.8716,0.4327,0.0620,570.56,-233.52,-1624.94
18910,-3.8716,0.4290,0.0659,-601.32,-61.71,-359.31
18920,-3.8715,0.4271,0.0728,-1085.69,438.29,1062.62
18930,-3.8715,0.4252,0.0852,-1320.07,1313.29,-1546.75
18940,-3.8715,0.4227,0.1012,-1570.07,-1092.96,-171.75
18950,-3.8713,0.4204,0.1138,-1882.57,953.92,1297.06
18960,-3.8713,0.4202,0.1210,1820.56,-1436.71,-1374.82
18970,-3.8713,0.4203,0.1265,1789.31,-514.83,-515.44
18980,-3.8713,0.4210,0.1340,1804.93,188.29,-312.26
18990,-3.8713,0.4238,0.1422,1898.68,1157.04,-624.76
19000,-3.8713,0.4279,0.1483,-1741.94,-1796.08,-906.01
19010,-3.8713,0.4313,0.1517,-1226.32,-1014.83,-921.63
19020,-3.8713,0.4308,0.1537,-788.82,-577.33,-890.38
19030,-3.8713,0.4259,0.1603,-851.32,-327.33,-734.13
19040,-3.8713,0.4197,0.1730,-1476.32,516.42,-343.44
19050,-3.8712,0.4153,0.1855,1726.81,-1858.58,203.43
19060,-3.8712,0.4128,0.1967,1164.31,-249.21,672.18
19070,-3.8712,0.4120,0.2043,851.81,1172.67,922.24
19080,-3.8712,0.4114,0.2065,742.43,-1842.96,1172.24
19090,-3.8712,0.4097,0.2070,664.31,-1561.71,1578.49
19100,-3.8712,0.4070,0.2089,445.56,-1499.21,1922.24
19110,-3.8712,0.4052,0.2114,101.81,-1264.83,-1968.38
19120,-3.8712,0.4061,0.2126,-132.57,-936.77,1656.62
19130,-3.8712,0.4106,0.2101,-7.57,-780.52,640.99
19140,-3.8713,0.4192,0.2063,570.56,-1108.58,-859.01
19150,-3.8713,0.4302,0.2078,1664.31,-1592.96,1437.87
19160,-3.8713,0.4406,0.2148,-929.44,-1405.46,15.99
19170,-3.8715,0.4464,0.2251,398.68,-499.15,-546.51
19180,-3.8715,0.4469,0.2375,1148.68,813.35,-390.20
19190,-3.8715,0.4469,0.2485,1211.18,-1592.90,-296.45
19200,-3.8715,0.4515,0.2548,1211.18,-186.65,-562.07
19210,-3.8715,0.4575,0.2562,1804.93,610.23,-1046.39
19220,-3.8715,0.4563,0.2576,-1429.44,797.73,-1233.89
19230,-3.8715,0.4453,0.2622,-1585.69,969.60,-890.14
19240,-3.8715,0.4271,0.2679,1008.06,1563.35,-46.39
19250,-3.8713,0.4116,0.2732,-1320.07,-1702.33,922.36
19260,-3.8713,0.4073,0.2762,695.56,-1030.46,1531.74
19270,-3.8713,0.4105,0.2770,148.68,-639.83,1609.86
19280,-3.8713,0.4130,0.2799,554.93,-546.08,1406.74
19290,-3.8713,0.4092,0.2845,867.43,-171.08,1187.99
19300,-3.8713,0.3981,0.2883,383.06,422.67,1328.67
19310,-3.8713,0.3842,0.2942,-1038.82,906.98,1906.80
19320,-3.8713,0.3715,0.3054,1179.93,1656.98,-1249.45
19330,-3.8713,0.3657,0.3192,-445.07,-905.58,-515.08
19340,-3.8713,0.3711,0.3273,-1179.44,860.05,-483.76
19350,-3.8713,0.3828,0.3273,-491.94,1891.30,-1311.89
19360,-3.8713,0.3984,0.3287,1008.06,1891.36,1094.36
19370,-3.8715,0.4161,0.3323,-991.94,-1921.14,-936.89
19380,-3.8715,0.4299,0.3230,1273.68,-1467.96,1578.74
19390,-3.8715,0.4355,0.3010,-960.69,1344.54,1688.11
19400,-3.8715,0.4225,0.2826,-241.94,-1467.96,-436.95
19410,-3.8713,0.3876,0.2767,-1913.82,172.67,-1671.33
19420,-3.8712,0.3453,0.2754,1617.43,-577.39,953.61
19430,-3.8712,0.3081,0.2673,211.18,-749.33,-1187.01
19440,-3.8712,0.2810,0.2533,-554.44,-1780.70,-421.39
19450,-3.8712,0.2642,0.2352,-23.19,422.36,-1015.14
19460,-3.8712,0.2510,0.2158,1820.56,-1890.14,1812.93
19470,-3.8712,0.2397,0.2003,133.06,-374.51,781.62
19480,-3.8712,0.2341,0.1890,-1304.44,1641.05,109.74
19490,-3.8712,0.2330,0.1809,1976.81,187.93,125.37
19500,-3.8712,0.2292,0.1764,1836.18,-843.32,578.43
19510,-3.8712,0.2198,0.1741,1351.81,-1421.45,1062.81
19520,-3.8712,0.2085,0.1736,148.68,-1718.32,1594.06
19530,-3.8712,0.1992,0.1731,-1304.44,-1780.88,-1593.44
19540,-3.8712,0.1937,0.1737,1508.06,-1843.38,-562.19
19550,-3.8712,0.1919,0.1754,804.93,-1765.26,-109.07
19560,-3.8712,0.1936,0.1731,570.56,-1546.51,-405.94
19570,-3.8712,0.1942,0.1647,789.31,-1843.38,-827.82
19580,-3.8712,0.1893,0.1514,867.43,1078.49,-1171.57
19590,-3.8712,0.1783,0.1357,242.43,-624.63,-1406.01
19600,-3.8712,0.1621,0.1222,-1163.82,1375.31,-1499.76
19610,-3.8712,0.1453,0.1104,758.06,-359.07,-1749.82
19620,-3.8712,0.1320,0.0978,-1398.19,-1874.76,1797.06
19630,-3.8712,0.1206,0.0863,898.68,515.87,1422.06
19640,-3.8712,0.1094,0.0825,-554.44,-952.94,1609.50
19650,-3.8712,0.1001,0.0909,-1991.94,-1437.32,-1296.75
19660,-3.8711,0.0935,0.1041,820.56,-359.19,547.00
19670,-3.8711,0.0909,0.1136,-23.19,1328.25,-1577.94
19680,-3.8711,0.0942,0.1155,-351.32,-1453.00,-359.19
19690,-3.8710,0.1012,0.1108,70.56,-1218.57,15.81
19700,-3.8711,0.1082,0.1036,961.18,-1812.32,-452.94
19710,-3.8711,0.1145,0.0969,1851.81,1265.81,-1312.32
19720,-3.8711,0.1216,0.0930,-1335.69,406.43,-1952.94
19730,-3.8711,0.1313,0.0939,-429.44,-93.57,1609.50
19740,-3.8711,0.1469,0.1027,820.56,15.87,1218.93
19750,-3.8711,0.1666,0.1171,-1195.07,1140.87,859.56
19760,-3.8711,0.1882,0.1329,1336.18,-1015.32,250.18
19770,-3.8712,0.2112,0.1500,101.81,1015.99,-718.51
19780,-3.8712,0.2322,0.1693,-960.69,-796.51,-1484.13
19790,-3.8712,0.2499,0.1882,1726.81,1672.30,-1515.32
19800,-3.8712,0.2650,0.2025,-7.57,94.18,-1202.76
19810,-3.8712,0.2771,0.2080,1929.93,1922.36,-1484.01
19820,-3.8712,0.2830,0.2026,-523.19,-1374.51,1359.74
19830,-3.8713,0.2797,0.1907,226.81,1938.05,-405.88
19840,-3.8713,0.2689,0.1781,-195.07,406.74,1500.37
19850,-3.8715,0.2563,0.1675,-1570.07,-1202.64,-546.57
19860,-3.8715,0.2469,0.1591,820.56,1437.99,-1999.69
19870,-3.8715,0.2434,0.1538,-382.57,359.80,1172.18
19880,-3.8715,0.2449,0.1531,-835.69,-312.07,531.49
19890,-3.8715,0.2498,0.1586,-648.19,-405.82,78.37
19900,-3.8715,0.2585,0.1742,-23.19,297.30,265.93
19910,-3.8715,0.2738,0.1964,1101.81,-1702.64,1172.18
19920,-3.8715,0.2959,0.2164,-945.07,1141.11,-1452.76
19930,-3.8713,0.3209,0.2289,1883.06,-296.33,0.37
19940,-3.8713,0.3420,0.2356,1086.18,1297.49,1187.93
19950,-3.8713,0.3533,0.2413,-210.69,-1843.14,1406.68
19960,-3.8713,0.3566,0.2457,1226.81,-1108.70,594.18
19970,-3.8715,0.3593,0.2457,1648.68,-546.20,-280.82
19980,-3.8715,0.3635,0.2438,1992.43,-546.20,-749.57
19990,-3.8715,0.3689,0.2439,-1460.69,-796.20,-1015.20
20000,-3.8715,0.3773,0.2433,-773.19,-780.58,-1327.70
20010,-3.8715,0.3922,0.2426,304.93,-858.64,-1640.20
20020,-3.8715,0.4130,0.2434,-1788.82,-952.39,-1796.45
20030,-3.8715,0.4360,0.2416,867.43,-842.96,-1562.07
20040,-3.8715,0.4568,0.2382,-179.44,-1077.33,-718.32
20050,-3.8713,0.4728,0.2351,-1523.19,-1514.77,625.43
20060,-3.8713,0.4805,0.2295,523.68,-1905.33,-1671.45
20070,-3.8712,0.4774,0.2200,1508.06,1375.92,0.43
20080,-3.8712,0.4645,0.2094,1117.43,157.17,1172.30
20090,-3.8712,0.4453,0.2014,-538.82,-1202.27,1937.87
20100,-3.8712,0.4248,0.1953,1008.06,1782.10,-1390.26
20110,-3.8712,0.4073,0.1918,-1616.94,1000.79,-187.13
20120,-3.8711,0.3956,0.1919,148.68,547.67,1562.87
20130,-3.8711,0.3893,0.1920,-1351.32,563.23,-984.01
20140,-3.8711,0.3827,0.1912,1836.18,578.86,-249.63
20150,-3.8711,0.3751,0.1919,992.43,469.48,-155.88
20160,-3.8711,0.3701,0.1947,23.68,563.23,-374.63
20170,-3.8711,0.3669,0.1990,-616.94,922.55,-452.76
20180,-3.8711,0.3636,0.2029,-1023.19,1469.42,-687.13
20190,-3.8711,0.3597,0.2070,-1445.07,1969.42,-1171.51
20200,-3.8711,0.3577,0.2162,-1945.07,-1499.33,-1249.63
20210,-3.8711,0.3619,0.2286,1789.31,-327.45,-593.38
20220,-3.8710,0.3698,0.2377,-1663.82,1266.30,375.43
20230,-3.8710,0.3788,0.2413,-663.82,-1577.45,1078.55
20240,-3.8710,0.3879,0.2385,492.43,-1108.64,984.80
20250,-3.8710,0.3914,0.2263,1664.31,-1468.02,62.93
20260,-3.8711,0.3864,0.2080,-1898.19,969.48,-1655.82
20270,-3.8712,0.3773,0.1881,1461.18,-1374.27,-265.26
20280,-3.8712,0.3715,0.1709,304.93,78.86,609.74
20290,-3.8713,0.3741,0.1595,-445.07,1875.67,1515.93
20300,-3.8715,0.3842,0.1552,-101.32,422.55,-952.82
20310,-3.8715,0.3921,0.1599,1179.93,-139.89,1797.12
20320,-3.8715,0.3949,0.1731,-1804.44,469.48,-1952.82
20330,-3.8715,0.3981,0.1879,-1445.07,-1843.02,-530.94
20340,-3.8713,0.4047,0.1941,-1038.82,47.61,844.12
20350,-3.8713,0.4110,0.1832,-195.07,844.48,578.49
20360,-3.8715,0.4102,0.1532,617.43,-546.08,1828.43
20370,-3.8716,0.3979,0.1141,508.06,-389.83,1031.49
20380,-3.8718,0.3807,0.0784,-1054.44,-1389.89,-968.57
20390,-3.8719,0.3691,0.0505,742.43,-1968.02,906.37
20400,-3.8722,0.3683,0.0369,-741.94,-1530.58,-15.56
20410,-3.8722,0.3831,0.0468,-851.32,719.42,1328.19
20420,-3.8722,0.4117,0.0728,1039.31,1985.11,843.81
20430,-3.8722,0.4479,0.1006,711.18,1313.29,-1953.00
20440,-3.8721,0.4904,0.1306,1336.18,875.85,375.18
20450,-3.8721,0.5415,0.1637,-1226.32,719.67,-781.01
20460,-3.8719,0.5912,0.1884,1320.56,954.16,-1718.44
20470,-3.8718,0.6278,0.1998,-320.07,110.47,844.12
20480,-3.8718,0.6610,0.2017,367.43,1579.35,1812.87
20490,-3.8718,0.6963,0.1943,617.43,1813.78,1406.62
20500,-3.8718,0.7191,0.1802,1133.06,876.34,578.49
20510,-3.8719,0.7191,0.1639,54.93,-936.10,-390.32
20520,-3.8719,0.6852,0.1396,54.93,985.78,-1077.82
20530,-3.8719,0.6101,0.1067,-288.82,1876.28,-1015.38
20540,-3.8719,0.5151,0.0771,-1898.19,1657.41,-921.69
20550,-3.8719,0.4280,0.0524,1945.56,1875.98,-1265.50
20560,-3.8719,0.3641,0.0269,-1210.69,-1296.08,-1328.06
20570,-3.8719,0.3297,0.0070,-1382.57,-561.83,-906.25
20580,-3.8719,0.3232,0.0022,-1788.82,891.24,-515.62
20590,-3.8719,0.3398,0.0127,1383.06,281.86,-171.88
20600,-3.8718,0.3793,0.0356,-491.94,1625.61,250.00
20610,-3.8718,0.4392,0.0701,554.93,563.23,1765.69
20620,-3.8717,0.5043,0.1097,226.81,969.60,984.50
20630,-3.8716,0.5663,0.1490,554.93,-1952.15,1250.18
20640,-3.8715,0.6274,0.1841,492.43,-920.78,1593.99
20650,-3.8713,0.6821,0.2131,320.56,-436.28,1140.93
20660,-3.8713,0.7264,0.2363,-679.44,-717.47,-530.88
20670,-3.8712,0.7604,0.2484,992.43,-1748.60,828.55
20680,-3.8712,0.7822,0.2478,1336.18,-201.66,1766.05
20690,-3.8712,0.7908,0.2350,133.06,-279.72,1625.43
20700,-3.8713,0.7855,0.2097,1226.81,-1920.35,-296.45
20710,-3.8713,0.7678,0.1766,554.93,-1154.72,719.12
20720,-3.8715,0.7437,0.1422,-1710.69,-1389.16,1359.68
20730,-3.8716,0.7192,0.1104,-804.44,-1795.47,1968.99
20740,-3.8717,0.6973,0.0853,70.56,-1873.60,-687.32
20750,-3.8717,0.6781,0.0710,1258.06,-1076.78,1781.37
20760,-3.8717,0.6599,0.0646,-1195.07,1095.03,1437.62
20770,-3.8717,0.6405,0.0616,476.81,266.91,-1687.38
20780,-3.8716,0.6173,0.0626,1992.43,-108.15,31.31
20790,-3.8716,0.5898,0.0674,-976.32,16.78,-1781.13
20800,-3.8715,0.5581,0.0714,-491.94,626.10,547.00
20810,-3.8715,0.5253,0.0712,-554.44,1141.66,-1406.13
20820,-3.8713,0.4950,0.0690,-757.57,1110.35,203.25
20830,-3.8713,0.4691,0.0668,-632.57,829.04,1312.62
20840,-3.8713,0.4486,0.0648,54.93,547.79,1750.12
20850,-3.8713,0.4321,0.0629,1429.93,297.73,1828.25
20860,-3.8713,0.4174,0.0620,-679.44,47.67,1843.87
20870,-3.8713,0.4033,0.0642,1429.93,-61.71,1484.44
20880,-3.8713,0.3929,0.0692,-366.94,219.48,422.00
20890,-3.8715,0.3922,0.0758,-1695.07,860.11,-1703.00
20900,-3.8716,0.4052,0.0802,-1788.82,1703.86,-1109.25
20910,-3.8717,0.4305,0.0790,-132.57,-1733.64,-1046.75
20920,-3.8718,0.4611,0.0765,-882.57,-1889.83,-531.13
20930,-3.8718,0.4850,0.0765,-976.32,1797.73,734.50
20940,-3.8719,0.4955,0.0781,-1913.82,1797.79,-1218.63
20950,-3.8719,0.4932,0.0800,-570.07,-1999.08,1875.12
20960,-3.8719,0.4811,0.0830,-866.94,-1764.71,1875.12
20970,-3.8719,0.4667,0.0883,1586.18,-1374.08,-1921.75
20980,-3.8719,0.4546,0.0920,-257.57,-702.27,-1499.88
20990,-3.8719,0.4431,0.0933,-1804.44,-217.90,-796.75
21000,-3.8719,0.4299,0.0938,726.81,-61.65,-15.50
21010,-3.8718,0.4171,0.0945,-960.69,0.79,843.93
21020,-3.8718,0.4045,0.0955,1398.68,94.54,-1859.19
21030,-3.8717,0.3876,0.0977,-210.69,219.48,500.18
21040,-3.8717,0.3665,0.1014,1617.43,500.73,-468.57
21050,-3.8716,0.3442,0.1051,-1085.69,985.05,-1577.94
21060,-3.8715,0.3199,0.1078,70.56,1453.80,1218.93
21070,-3.8715,0.2920,0.1108,961.18,1797.49,-171.69
21080,-3.8713,0.2629,0.1171,1383.06,-1811.95,-1906.07
21090,-3.8712,0.2368,0.1272,1664.31,-1015.14,297.06
21100,-3.8712,0.2186,0.1368,-1679.44,281.68,-1406.01
21110,-3.8711,0.2147,0.1412,-7.57,1515.99,734.62
21120,-3.8711,0.2238,0.1412,-507.57,-1921.51,-1640.38
21130,-3.8711,0.2394,0.1411,648.68,-1921.45,-1234.13
21140,-3.8711,0.2616,0.1426,-1351.32,-1937.07,1015.87
21150,-3.8712,0.2970,0.1432,1492.43,-1749.51,890.87
21160,-3.8715,0.3441,0.1421,-1976.32,-1671.33,-468.51
21170,-3.8716,0.3875,0.1444,54.93,-1811.83,-1249.76
21180,-3.8717,0.4143,0.1567,1601.81,-1514.89,-156.01
21190,-3.8717,0.4291,0.1790,1039.31,63.29,-687.19
21200,-3.8716,0.4382,0.2032,-1070.07,-1092.96,687.81
21210,-3.8716,0.4427,0.2240,101.81,-1983.52,-1109.01
21220,-3.8715,0.4453,0.2382,679.93,672.73,578.55
21230,-3.8715,0.4495,0.2406,1008.06,-1514.77,1312.93
21240,-3.8715,0.4517,0.2344,1539.31,-1202.27,1812.93
21250,-3.8715,0.4395,0.2279,1820.56,-1999.15,-983.95
21260,-3.8713,0.4083,0.2228,258.06,1172.73,1328.55
21270,-3.8712,0.3700,0.2217,273.68,516.42,250.43
21280,-3.8712,0.3424,0.2267,-632.57,375.67,-1312.07
21290,-3.8712,0.3364,0.2310,-163.82,1016.24,-296.45
21300,-3.8712,0.3544,0.2310,-929.44,1563.11,-1280.82
21310,-3.8713,0.3928,0.2272,1367.43,1563.17,-452.70
21320,-3.8715,0.4387,0.2240,-1710.69,1078.86,-655.82
21330,-3.8716,0.4773,0.2249,164.31,672.73,-343.32
21340,-3.8716,0.5043,0.2310,1101.81,782.17,1781.68
21350,-3.8716,0.5200,0.2451,554.93,1563.48,-1858.95
21360,-3.8716,0.5243,0.2632,-1429.44,-624.02,-62.07
21370,-3.8715,0.5168,0.2795,-882.57,1688.48,-1546.39
21380,-3.8713,0.4990,0.2878,-1835.69,-217.77,828.61
21390,-3.8713,0.4762,0.2882,-116.94,844.67,-1265.08
21400,-3.8713,0.4575,0.2864,961.18,891.54,-30.70
21410,-3.8713,0.4521,0.2827,-1429.44,657.10,-30.70
21420,-3.8713,0.4629,0.2786,1883.06,188.35,-1046.33
21430,-3.8713,0.4821,0.2776,-741.94,-342.90,1125.49
21440,-3.8715,0.4983,0.2770,1711.18,-467.83,-1343.26
21450,-3.8715,0.5031,0.2765,-210.69,-545.96,781.74
21460,-3.8715,0.4917,0.2822,398.68,-608.40,328.61
21470,-3.8715,0.4691,0.2930,-1054.44,125.92,1203.67
21480,-3.8715,0.4462,0.3020,54.93,1500.92,-1140.08
21490,-3.8713,0.4309,0.3062,1117.43,-1342.90,219.30
21500,-3.8713,0.4264,0.3049,-835.69,-811.71,422.42
21510,-3.8715,0.4280,0.2969,-1413.82,-967.96,-671.33
21520,-3.8715,0.4276,0.2847,-1210.69,-1999.21,1563.05
21530,-3.8716,0.4161,0.2732,-1257.57,438.29,-15.08
21540,-3.8716,0.3872,0.2659,1273.68,-1030.46,-187.01
21550,-3.8715,0.3463,0.2701,1570.56,-1968.02,1844.24
21560,-3.8713,0.3073,0.2811,336.18,-1421.20,891.11
21570,-3.8713,0.2798,0.2860,-663.82,-15.08,-655.76
21580,-3.8712,0.2656,0.2866,-179.44,609.86,469.30
21590,-3.8713,0.2615,0.2880,-1991.94,687.99,-265.08
21600,-3.8713,0.2626,0.2871,1476.81,859.86,1594.30
21610,-3.8715,0.2599,0.2831,1617.43,750.49,-343.20
21620,-3.8715,0.2463,0.2777,1273.68,234.86,-858.83
21630,-3.8715,0.2255,0.2704,-460.69,-452.70,-265.14
21640,-3.8713,0.2019,0.2612,867.43,-1390.20,687.99
21650,-3.8713,0.1766,0.2484,1851.81,1437.87,1453.61
21660,-3.8713,0.1526,0.2312,-1382.57,-202.82,1641.05
21670,-3.8713,0.1278,0.2128,-460.69,1593.99,1750.43
21680,-3.8713,0.0986,0.1937,367.43,-765.38,-1562.13
21690,-3.8712,0.0667,0.1747,633.06,797.06,312.87
21700,-3.8712,0.0337,0.1602,539.31,-1640.50,-374.69
21710,-3.8711,0.0015,0.1544,320.56,500.06,-468.44
21720,-3.8710,-0.0269,0.1542,195.56,-234.38,-874.76
21730,-3.8708,-0.0475,0.1564,570.56,-250.06,1890.87
21740,-3.8708,-0.0566,0.1637,1929.93,31.13,-577.82
21750,-3.8708,-0.0557,0.1715,758.06,968.63,-249.69
21760,-3.8708,-0.0493,0.1698,883.06,1968.63,-984.07
21770,-3.8708,-0.0366,0.1636,1695.56,1749.88,1703.43
21780,-3.8708,-0.0177,0.1602,-679.44,953.00,47.18
21790,-3.8710,-0.0015,0.1575,1742.43,515.56,-1468.44
21800,-3.8710,0.0084,0.1571,-179.44,171.81,1547.18
21810,-3.8710,0.0165,0.1619,1086.18,109.38,578.43
21820,-3.8711,0.0277,0.1719,-1882.57,718.75,-327.82
21830,-3.8711,0.0486,0.1857,-445.07,-2000.00,-687.19
21840,-3.8711,0.0820,0.1986,-1773.19,-234.31,-734.07
21850,-3.8711,0.1202,0.2074,-1491.94,1422.00,-1077.76
21860,-3.8711,0.1559,0.2175,-601.32,-1452.94,-1984.01
21870,-3.8711,0.1885,0.2341,-38.82,-156.01,765.99
21880,-3.8712,0.2162,0.2554,133.06,1969.12,-265.20
21890,-3.8712,0.2354,0.2781,-320.07,687.87,-999.51
21900,-3.8712,0.2433,0.3033,-1866.94,-405.82,-1593.26
21910,-3.8712,0.2433,0.3263,-851.32,-1171.45,1656.80
21920,-3.8712,0.2423,0.3396,-851.32,1766.05,375.61
21930,-3.8713,0.2461,0.3409,-976.32,-530.82,-1530.64
21940,-3.8713,0.2576,0.3326,-491.94,-358.95,297.49
21950,-3.8715,0.2744,0.3213,976.81,-1421.39,-1811.89
21960,-3.8715,0.2906,0.3075,-866.94,1125.49,344.36
21970,-3.8716,0.3002,0.2946,1211.18,-640.08,-874.45
21980,-3.8716,0.3059,0.2926,-1570.07,1703.67,-1296.33
21990,-3.8716,0.3132,0.3007,-835.69,1453.67,-1327.58
22000,-3.8716,0.3202,0.3120,101.81,-1515.01,-1686.95
22010,-3.8716,0.3270,0.3235,992.43,-61.89,1469.30
22020,-3.8716,0.3339,0.3354,1867.43,1406.86,688.11
22030,-3.8716,0.3353,0.3484,-1257.57,-1061.89,422.49
22040,-3.8716,0.3282,0.3618,-1070.07,594.36,781.92
22050,-3.8716,0.3182,0.3787,-1976.32,-1686.89,1735.05
22060,-3.8716,0.3140,0.3932,742.43,469.36,-1202.39
22070,-3.8716,0.3171,0.3915,195.56,-1671.26,-718.02
22080,-3.8716,0.3225,0.3708,601.81,-1890.01,-1374.27
22090,-3.8716,0.3286,0.3420,1289.31,-530.64,1031.92
22100,-3.8717,0.3378,0.3153,-1929.44,-218.14,-577.51
22110,-3.8717,0.3484,0.2953,-757.57,359.99,-1436.89
22120,-3.8717,0.3551,0.2800,601.81,1797.55,-1233.83
22130,-3.8716,0.3584,0.2672,1461.18,-155.58,156.74
22140,-3.8716,0.3595,0.2582,1883.06,-1796.20,-1655.76
22150,-3.8715,0.3571,0.2535,-1976.32,1047.55,781.74
22160,-3.8715,0.3499,0.2509,1711.18,453.80,-421.39
22170,-3.8713,0.3397,0.2513,789.31,110.05,-1155.76
22180,-3.8712,0.3329,0.2542,-507.57,172.49,1719.24
22190,-3.8712,0.3323,0.2565,-1382.57,531.86,-390.14
22200,-3.8711,0.3379,0.2589,-1460.69,828.74,406.74
22210,-3.8711,0.3503,0.2628,-741.94,1141.24,62.99
22220,-3.8712,0.3699,0.2679,851.81,1641.30,-890.14
22230,-3.8712,0.3955,0.2754,-648.19,-1702.45,-1499.51
22240,-3.8712,0.4276,0.2909,-1366.94,-749.27,-937.01
22250,-3.8711,0.4647,0.3153,-1257.57,1235.17,922.42
22260,-3.8711,0.4988,0.3431,-507.57,360.23,-311.89
22270,-3.8710,0.5262,0.3684,-148.19,-77.21,-1374.39
22280,-3.8708,0.5458,0.3844,-632.57,-842.77,1266.30
22290,-3.8708,0.5519,0.3879,1867.43,1204.16,-499.27
22300,-3.8707,0.5402,0.3824,-1351.32,1657.29,985.11
22310,-3.8707,0.5139,0.3721,1148.68,954.16,1297.61
22320,-3.8708,0.4844,0.3538,1789.31,-374.02,-124.33
22330,-3.8708,0.4607,0.3234,-1991.94,1282.17,688.17
22340,-3.8710,0.4409,0.2875,-1023.19,1391.48,94.36
22350,-3.8712,0.4178,0.2568,445.56,797.73,-1546.33
22360,-3.8713,0.3948,0.2333,1492.43,875.79,641.11
22370,-3.8715,0.3798,0.2195,-1460.69,1860.11,156.68
22380,-3.8716,0.3733,0.2216,617.43,94.48,1969.18
22390,-3.8716,0.3708,0.2402,-210.69,360.05,-1890.20
22400,-3.8715,0.3699,0.2659,-523.19,-1249.33,16.05
22410,-3.8715,0.3695,0.2816,-648.19,-1968.08,-1608.89
22420,-3.8713,0.3691,0.2778,-695.07,47.55,141.17
22430,-3.8713,0.3652,0.2544,-741.94,-436.83,281.74
22440,-3.8715,0.3591,0.2216,-1241.94,563.17,-1921.39
22450,-3.8716,0.3588,0.1877,1976.81,360.05,1453.55
22460,-3.8718,0.3682,0.1555,1929.93,31.92,-405.88
22470,-3.8719,0.3848,0.1327,-866.94,-93.08,-1156.01
22480,-3.8719,0.3984,0.1229,1258.06,985.11,828.37
22490,-3.8719,0.3954,0.1234,-991.94,-264.89,1781.43
22500,-3.8718,0.3772,0.1338,-1382.57,-202.39,375.18
22510,-3.8718,0.3561,0.1459,289.31,1125.73,-999.76
22520,-3.8717,0.3378,0.1484,1586.18,-1327.45,828.37
22530,-3.8717,0.3243,0.1404,-757.57,-999.39,1500.24
22540,-3.8717,0.3159,0.1267,1523.68,1969.36,718.99
22550,-3.8718,0.3158,0.1102,445.56,219.36,-1859.13
22560,-3.8719,0.3285,0.0914,429.93,-1890.01,-1421.69
22570,-3.8721,0.3477,0.0790,-1945.07,-296.26,-15.50
22580,-3.8721,0.3640,0.0834,508.06,-1889.95,-578.00
22590,-3.8719,0.3728,0.0979,-1398.19,-1327.45,328.25
22600,-3.8719,0.3699,0.1100,-273.19,531.92,-1468.57
22610,-3.8718,0.3557,0.1195,-648.19,-1921.20,-1812.32
22620,-3.8717,0.3315,0.1256,1539.31,-702.45,-1734.19
22630,-3.8716,0.3032,0.1240,-1554.44,78.74,1359.62
22640,-3.8716,0.2843,0.1140,-1179.44,-124.45,-1671.69
22650,-3.8716,0.2817,0.0981,398.68,-1405.70,687.68
22660,-3.8717,0.2970,0.0835,70.56,563.05,890.81
22670,-3.8718,0.3273,0.0812,-1976.32,-1311.95,984.50
22680,-3.8719,0.3596,0.1005,1898.68,-1608.76,-546.75
22690,-3.8718,0.3845,0.1410,-1960.69,860.05,1640.81
22700,-3.8717,0.4033,0.1974,1226.81,-1952.39,-1140.38
22710,-3.8715,0.4211,0.2610,-366.94,1266.36,1687.87
22720,-3.8712,0.4449,0.3182,1914.31,1407.04,844.24
22730,-3.8711,0.4780,0.3590,961.18,735.23,-483.76
22740,-3.8708,0.5131,0.3831,1195.56,1954.04,1047.55
22750,-3.8707,0.5424,0.3956,1679.93,1032.23,875.73
22760,-3.8707,0.5667,0.4006,1429.93,-1358.34,-483.64
22770,-3.8706,0.5874,0.4041,539.31,-717.65,1360.11
22780,-3.8706,0.6021,0.4055,-804.44,-280.15,1969.48
22790,-3.8706,0.6058,0.3992,1070.56,-92.59,1188.23
22800,-3.8707,0.5951,0.3834,1554.93,-905.09,-436.77
22810,-3.8707,0.5728,0.3564,179.93,1079.28,1078.86
22820,-3.8708,0.5420,0.3204,1320.56,1626.10,1688.17
22830,-3.8710,0.5038,0.2854,1383.06,1016.66,-1999.39
22840,-3.8711,0.4641,0.2551,492.43,532.23,-1452.58
22850,-3.8712,0.4286,0.2271,-585.69,657.10,-249.51
22860,-3.8712,0.4008,0.2050,-1132.57,1063.29,1594.18
22870,-3.8713,0.3835,0.1926,-695.07,-1764.89,-468.38
22880,-3.8713,0.3760,0.1885,1101.81,656.98,1437.87
22890,-3.8715,0.3726,0.1864,133.06,125.73,-280.88
22900,-3.8715,0.3684,0.1854,-304.44,-139.95,-1296.57
22910,-3.8715,0.3636,0.1918,-835.69,-264.95,-1624.69
22920,-3.8715,0.3656,0.2029,-1445.07,547.55,1890.99
22930,-3.8715,0.3781,0.2048,-1195.07,1969.42,328.49
22940,-3.8716,0.3929,0.1898,398.68,-1780.52,1469.12
22950,-3.8717,0.4049,0.1675,-1695.07,297.61,1547.24
22960,-3.8718,0.4169,0.1487,-163.82,1438.23,1234.68
22970,-3.8719,0.4286,0.1354,1367.43,-967.96,1984.62
22980,-3.8719,0.4406,0.1293,-1132.57,1328.92,1297.12
22990,-3.8719,0.4510,0.1302,398.68,547.73,-859.13
23000,-3.8718,0.4449,0.1412,1742.43,672.73,-1656.01
23010,-3.8717,0.4142,0.1580,961.18,-1921.02,1390.87
23020,-3.8717,0.3649,0.1704,1023.68,219.54,-46.57
23030,-3.8716,0.3070,0.1774,-1288.82,1813.17,-1530.94
23040,-3.8715,0.2560,0.1793,-695.07,-1296.33,640.93
23050,-3.8715,0.2205,0.1737,773.68,-1046.39,-1734.07
23060,-3.8715,0.1998,0.1613,226.81,-1765.20,-827.82
23070,-3.8715,0.1875,0.1476,1586.18,640.99,-93.44
23080,-3.8713,0.1783,0.1387,8.06,-1109.01,578.37
23090,-3.8713,0.1689,0.1379,-1163.82,1750.31,968.99
23100,-3.8713,0.1539,0.1472,1633.06,1656.56,-1906.01
23110,-3.8712,0.1384,0.1638,-288.82,-1156.01,109.62
23120,-3.8712,0.1307,0.1786,1726.81,968.99,-1296.57
23130,-3.8711,0.1276,0.1881,742.43,-1140.38,1844.06
23140,-3.8710,0.1276,0.1957,336.18,78.37,875.37
23150,-3.8710,0.1326,0.2008,336.18,1047.12,-1265.26
23160,-3.8710,0.1416,0.2012,976.81,1703.37,-1062.13
23170,-3.8710,0.1576,0.1951,-1866.94,1750.24,1265.99
23180,-3.8711,0.1790,0.1836,179.93,969.06,1984.74
23190,-3.8712,0.2029,0.1713,-1085.69,-499.69,1750.31
23200,-3.8713,0.2234,0.1605,1976.81,1922.24,1875.31
23210,-3.8715,0.2355,0.1536,601.81,547.30,-218.44
23220,-3.8715,0.2424,0.1545,-1851.32,-343.32,-234.13
23230,-3.8713,0.2437,0.1675,-960.69,-218.32,1359.62
23240,-3.8713,0.2357,0.1869,-804.44,1437.93,-624.69
23250,-3.8712,0.2249,0.2040,-1820.07,-77.70,906.56
23260,-3.8712,0.2234,0.2170,789.31,-1890.20,-1859.01
23270,-3.8712,0.2360,0.2262,601.81,-218.32,-640.26
23280,-3.8711,0.2559,0.2319,-1788.82,953.55,328.55
23290,-3.8711,0.2764,0.2367,758.06,1687.99,984.80
23300,-3.8711,0.2930,0.2404,-616.94,-1702.64,1312.93
23310,-3.8711,0.3014,0.2405,1508.06,-1233.83,1234.80
