timestamp_ms,ax,ay,az,gx,gy,gz
0,-3.8710,0.0885,0.1671,54.93,781.37,937.81
10,-3.8711,0.1123,0.1733,-663.82,1390.75,-15.32
20,-3.8711,0.1293,0.1787,-1616.94,-1812.32,-1280.94
30,-3.8711,0.1373,0.1738,554.93,-1124.76,875.31
40,-3.8712,0.1406,0.1666,1586.18,-1749.76,-1093.44
50,-3.8712,0.1422,0.1741,-1991.94,1328.37,1672.18
60,-3.8712,0.1475,0.1935,-1788.82,-1718.51,1281.56
70,-3.8712,0.1581,0.2078,-1116.94,765.87,1375.37
80,-3.8712,0.1663,0.2107,242.43,-1405.94,1328.49
90,-3.8712,0.1659,0.2075,1289.31,-1030.94,109.74
100,-3.8713,0.1552,0.2000,1242.43,-1437.19,1734.74
110,-3.8715,0.1392,0.1888,-132.57,1593.99,-421.51
120,-3.8715,0.1256,0.1797,1820.56,172.12,-1280.88
130,-3.8715,0.1136,0.1816,86.18,-999.76,-765.32
140,-3.8713,0.0983,0.1879,-1445.07,-749.82,359.68
150,-3.8713,0.0833,0.1736,586.18,47.06,1469.12
160,-3.8713,0.0731,0.1378,-1335.69,-1781.13,-1593.44
170,-3.8713,0.0619,0.1038,1367.43,1640.75,-952.88
180,-3.8713,0.0447,0.0879,-70.07,1281.31,-327.94
190,-3.8712,0.0232,0.0879,1726.81,-749.94,765.75
200,-3.8712,0.0021,0.0878,-1023.19,-750.00,-1843.63
210,-3.8712,-0.0179,0.0785,273.68,-765.62,-265.50
220,-3.8711,-0.0402,0.0710,1711.18,-1937.56,1218.87
230,-3.8711,-0.0642,0.0753,-1132.57,1109.25,1906.37
240,-3.8711,-0.0908,0.0825,-210.69,1656.07,-1437.38
250,-3.8711,-0.1216,0.0775,383.06,-1422.06,-78.00
260,-3.8710,-0.1492,0.0608,445.56,1937.26,1187.62
270,-3.8710,-0.1632,0.0480,914.31,-203.43,1468.81
280,-3.8710,-0.1584,0.0466,-882.57,-1844.12,296.94
290,-3.8711,-0.1332,0.0547,-273.19,1984.01,-1890.56
300,-3.8711,-0.0908,0.0717,-1038.82,-984.68,343.81
310,-3.8711,-0.0436,0.0959,383.06,1187.32,140.75
320,-3.8711,-0.0071,0.1282,-1570.07,296.75,-1874.82
330,-3.8710,0.0214,0.1726,-898.19,421.81,-1796.63
340,-3.8708,0.0551,0.2283,-1257.57,-1906.25,-859.07
350,-3.8707,0.0989,0.2855,-945.07,1218.81,-437.07
360,-3.8706,0.1547,0.3268,664.31,547.06,-1671.33
370,-3.8706,0.2208,0.3385,-195.07,1828.37,-1452.51
380,-3.8706,0.2886,0.3274,273.68,-671.45,406.86
390,-3.8707,0.3412,0.3092,945.56,1906.80,828.74
400,-3.8708,0.3651,0.2856,-320.07,-421.26,688.05
410,-3.8710,0.3672,0.2616,-1257.57,563.17,891.17
420,-3.8711,0.3600,0.2437,-991.94,1485.05,1328.61
430,-3.8712,0.3540,0.2288,-1913.82,-811.83,1422.30
440,-3.8713,0.3555,0.2170,1320.56,1281.92,-1890.20
450,-3.8713,0.3629,0.2134,1508.06,-218.08,797.24
460,-3.8713,0.3748,0.2208,-1538.82,-686.83,1750.37
470,-3.8713,0.3876,0.2365,-23.19,266.30,-15.20
480,-3.8712,0.3982,0.2507,1617.43,-1733.64,-1858.95
490,-3.8712,0.4060,0.2548,-1023.19,94.48,-796.39
500,-3.8712,0.4120,0.2485,-23.19,610.11,-1452.64
510,-3.8712,0.4205,0.2360,742.43,-186.71,219.18
520,-3.8713,0.4307,0.2213,1836.18,-1796.08,1375.43
530,-3.8715,0.4357,0.2076,-866.94,328.92,-671.45
540,-3.8715,0.4329,0.1967,-226.32,-1421.08,-1687.13
550,-3.8715,0.4254,0.1886,-585.69,1172.67,1797.24
560,-3.8715,0.4222,0.1881,-1538.82,141.42,1750.37
570,-3.8715,0.4287,0.1987,-1945.07,78.92,-1343.38
580,-3.8713,0.4438,0.2157,-1116.94,1438.29,359.74
590,-3.8713,0.4668,0.2325,820.56,-389.77,-1655.88
600,-3.8712,0.4958,0.2434,-241.94,1766.48,16.05
610,-3.8712,0.5276,0.2467,-523.19,-842.83,922.30
620,-3.8712,0.5557,0.2412,-460.69,-420.90,594.18
630,-3.8713,0.5763,0.2241,-866.94,-1123.96,-1343.32
640,-3.8715,0.5901,0.1987,1773.68,688.60,-546.45
650,-3.8715,0.5985,0.1766,-460.69,1438.60,187.87
660,-3.8716,0.6060,0.1675,617.43,-1389.47,1984.68
670,-3.8716,0.6158,0.1711,1570.56,1438.66,859.68
680,-3.8716,0.6320,0.1791,-1163.82,1907.41,359.68
690,-3.8716,0.6515,0.1818,898.68,-1076.90,0.31
700,-3.8717,0.6671,0.1765,-601.32,-733.15,-530.94
710,-3.8717,0.6807,0.1658,1398.68,-1404.97,-1812.19
720,-3.8718,0.6981,0.1514,-866.94,1220.03,-265.32
730,-3.8718,0.7170,0.1343,1367.43,-623.66,422.12
740,-3.8719,0.7275,0.1168,-210.69,1188.84,1000.24
750,-3.8721,0.7249,0.1005,1133.06,-1045.47,-1765.44
760,-3.8721,0.7159,0.0864,789.31,860.78,218.93
770,-3.8722,0.7069,0.0732,-351.32,-936.16,-1578.00
780,-3.8722,0.6943,0.0619,-1507.57,1376.34,453.25
790,-3.8723,0.6803,0.0548,883.06,-76.78,-1140.56
800,-3.8723,0.6704,0.0538,-913.82,-983.09,-1828.06
810,-3.8723,0.6648,0.0581,1820.56,-1108.09,-1671.81
820,-3.8723,0.6605,0.0632,1101.81,-561.22,-1140.56
830,-3.8723,0.6530,0.0654,554.93,95.03,-640.50
840,-3.8723,0.6378,0.0642,-413.82,376.22,-296.75
850,-3.8723,0.6151,0.0605,1648.68,219.97,-31.13
860,-3.8722,0.5889,0.0557,-1257.57,-248.84,406.31
870,-3.8722,0.5625,0.0494,-616.94,-873.90,1265.69
880,-3.8722,0.5394,0.0433,8.06,-1670.78,-1406.19
890,-3.8721,0.5229,0.0427,1054.93,1547.91,406.31
900,-3.8721,0.5131,0.0508,-1054.44,1469.73,-1562.44
910,-3.8719,0.5103,0.0613,1679.93,-1499.02,218.81
920,-3.8719,0.5129,0.0679,1320.56,-155.27,1750.06
930,-3.8719,0.5166,0.0730,1664.31,688.48,-687.38
940,-3.8718,0.5214,0.0780,-1866.94,1344.73,547.00
950,-3.8718,0.5312,0.0818,-1257.57,1985.35,1265.75
960,-3.8718,0.5458,0.0872,8.06,-1530.21,1765.75
970,-3.8718,0.5596,0.0940,1867.43,-842.71,1609.50
980,-3.8718,0.5692,0.0990,-366.94,32.29,375.18
990,-3.8719,0.5767,0.1023,867.43,672.97,-1671.69
1000,-3.8719,0.5858,0.1079,1820.56,1094.85,250.18
1010,-3.8721,0.5988,0.1206,-1007.57,1813.60,-812.32
1020,-3.8721,0.6152,0.1417,648.68,-561.34,-327.94
1030,-3.8719,0.6239,0.1738,-1241.94,-1858.22,1406.49
1040,-3.8719,0.6183,0.2053,-132.57,-1748.84,-515.32
1050,-3.8718,0.6085,0.2147,-851.32,-1717.59,781.62
1060,-3.8718,0.5950,0.2040,1898.68,-514.47,984.74
1070,-3.8718,0.5697,0.1892,164.31,-1889.47,828.49
1080,-3.8718,0.5332,0.1833,929.93,219.85,1219.12
1090,-3.8718,0.4845,0.1895,258.06,-530.21,-1624.69
1100,-3.8717,0.4279,0.1987,-1976.32,250.92,94.12
1110,-3.8717,0.3770,0.2056,-1226.32,1438.29,-1437.13
1120,-3.8716,0.3406,0.2107,258.06,-1686.77,-1999.63
1130,-3.8715,0.3188,0.2111,-398.19,-1030.64,-1859.01
1140,-3.8713,0.3048,0.2114,820.56,-983.76,-1390.26
1150,-3.8712,0.2925,0.2163,-976.32,-936.95,-921.51
1160,-3.8711,0.2799,0.2240,1445.56,-311.95,-1265.26
1170,-3.8710,0.2708,0.2319,-163.82,672.36,562.93
1180,-3.8710,0.2751,0.2379,-1335.69,1687.99,141.05
1190,-3.8711,0.2979,0.2474,-773.19,-1546.39,1766.05
1200,-3.8712,0.3341,0.2644,-1866.94,-327.58,-1858.95
1210,-3.8713,0.3705,0.2888,-1226.32,1844.36,-1296.39
1220,-3.8713,0.3953,0.3218,-570.07,969.42,844.30
1230,-3.8713,0.4048,0.3606,-1398.19,1188.23,922.49
1240,-3.8713,0.4034,0.3923,-179.44,-1843.02,-1311.83
1250,-3.8712,0.4005,0.4089,-351.32,-1780.52,1438.23
1260,-3.8711,0.3934,0.4177,-726.32,344.48,578.92
1270,-3.8711,0.3744,0.4271,-1632.57,1469.48,-874.21
1280,-3.8710,0.3497,0.4333,-70.07,-1327.45,266.42
1290,-3.8710,0.3298,0.4342,773.68,-530.58,157.04
1300,-3.8711,0.3160,0.4325,-1773.19,-421.26,-530.46
1310,-3.8711,0.3064,0.4277,461.18,-640.01,-1280.46
1320,-3.8711,0.2988,0.4177,-773.19,-1249.45,-1905.46
1330,-3.8711,0.2905,0.4058,-1741.94,1469.30,-1952.33
1340,-3.8711,0.2764,0.3976,1195.56,-61.95,-1077.39
1350,-3.8710,0.2517,0.3912,-616.94,-1108.89,469.48
1360,-3.8710,0.2202,0.3894,226.81,-1921.39,-1733.64
1370,-3.8710,0.1914,0.3987,195.56,1844.18,-93.02
1380,-3.8708,0.1713,0.4072,508.06,-968.38,641.36
1390,-3.8708,0.1606,0.4000,1929.93,125.31,172.67
1400,-3.8710,0.1589,0.3798,570.56,-796.57,-1046.14
1410,-3.8710,0.1576,0.3572,351.81,609.68,1735.11
1420,-3.8710,0.1409,0.3383,179.93,1719.06,1563.17
1430,-3.8710,0.1068,0.3268,-1960.69,-702.88,-1155.64
1440,-3.8708,0.0688,0.3239,1679.93,1828.31,906.86
1450,-3.8708,0.0419,0.3241,820.56,1453.25,-1983.76
1460,-3.8708,0.0319,0.3147,1367.43,1484.44,734.99
1470,-3.8710,0.0393,0.2917,86.18,281.31,1203.74
1480,-3.8711,0.0645,0.2667,1039.31,1343.81,1047.42
1490,-3.8712,0.0958,0.2501,258.06,-1859.25,1781.74
1500,-3.8712,0.1211,0.2474,273.68,15.81,203.61
1510,-3.8712,0.1364,0.2583,-491.94,-327.94,672.30
1520,-3.8712,0.1384,0.2687,1461.18,1062.74,-1202.64
1530,-3.8711,0.1229,0.2676,1726.81,-1609.13,1922.36
1540,-3.8710,0.0874,0.2614,-257.57,-1749.82,687.99
1550,-3.8710,0.0424,0.2576,-804.44,1453.25,-1858.89
1560,-3.8710,0.0029,0.2560,1429.93,968.81,-1265.14
1570,-3.8710,-0.0240,0.2517,383.06,765.62,-1312.01
1580,-3.8710,-0.0396,0.2437,929.93,234.31,1922.36
1590,-3.8710,-0.0490,0.2334,-1054.44,-797.00,937.93
1600,-3.8710,-0.0562,0.2168,1742.43,1890.50,297.30
1610,-3.8711,-0.0659,0.1941,820.56,-234.50,-171.51
1620,-3.8711,-0.0809,0.1727,-429.44,859.19,-577.76
1630,-3.8711,-0.0973,0.1584,1648.68,-1875.18,-390.32
1640,-3.8710,-0.1102,0.1489,-445.07,296.63,125.31
1650,-3.8710,-0.1217,0.1399,1898.68,-922.12,265.87
1660,-3.8710,-0.1326,0.1355,429.93,1921.63,265.87
1670,-3.8710,-0.1455,0.1381,-960.69,1359.07,359.62
1680,-3.8710,-0.1582,0.1453,1383.06,1687.19,812.74
1690,-3.8710,-0.1552,0.1537,-241.94,-1390.99,1906.49
1700,-3.8710,-0.1345,0.1578,148.68,-312.81,-999.76
1710,-3.8710,-0.1052,0.1552,-1210.69,218.44,-812.19
1720,-3.8710,-0.0739,0.1459,-1460.69,-125.24,-1827.88
1730,-3.8710,-0.0522,0.1338,-1445.07,-1312.68,234.62
1740,-3.8711,-0.0446,0.1272,1320.56,1140.50,-1874.76
1750,-3.8711,-0.0415,0.1271,-1695.07,296.75,437.74
1760,-3.8712,-0.0310,0.1306,-1304.44,281.13,-718.51
1770,-3.8712,-0.0083,0.1382,39.31,734.31,-1421.63
1780,-3.8712,0.0229,0.1493,-1054.44,1703.06,-1874.76
1790,-3.8712,0.0570,0.1581,-1054.44,-890.62,1781.49
1800,-3.8712,0.0890,0.1620,-695.07,234.44,1703.43
1810,-3.8712,0.1155,0.1666,-601.32,734.50,1922.18
1820,-3.8712,0.1364,0.1770,-1210.69,1328.31,-1984.07
1830,-3.8712,0.1527,0.1903,1461.18,-1343.51,1828.43
1840,-3.8712,0.1654,0.2048,-445.07,359.62,1828.49
1850,-3.8712,0.1738,0.2231,1179.93,-1780.94,-1702.76
1860,-3.8712,0.1803,0.2402,-1741.94,562.81,-1077.70
1870,-3.8712,0.1886,0.2440,-913.82,-1249.69,-624.57
1880,-3.8712,0.1993,0.2339,148.68,-765.26,-702.70
1890,-3.8712,0.2051,0.2189,1523.68,1937.87,-1687.07
1900,-3.8712,0.1968,0.2072,-1741.94,15.99,531.68
1910,-3.8713,0.1754,0.2018,1195.56,-1484.01,-859.01
1920,-3.8713,0.1466,0.2010,-1538.82,1828.43,-780.88
1930,-3.8712,0.1195,0.2031,-1226.32,1734.62,187.87
1940,-3.8712,0.1024,0.2107,-695.07,-1999.82,625.37
1950,-3.8713,0.1014,0.2264,1117.43,-1031.07,-30.88
1960,-3.8713,0.1156,0.2445,992.43,984.56,-1390.20
1970,-3.8713,0.1366,0.2491,-1195.07,-702.94,1500.43
1980,-3.8713,0.1537,0.2325,1492.43,-109.13,1375.43
1990,-3.8713,0.1555,0.2073,-320.07,1765.87,-1765.20
2000,-3.8713,0.1400,0.1901,-85.69,-1468.51,-405.88
2010,-3.8712,0.1166,0.1904,1929.93,328.37,1078.49
2020,-3.8712,0.1002,0.2028,-1070.07,375.18,-1499.63
2030,-3.8712,0.0989,0.2134,836.18,1953.31,-218.38
2040,-3.8711,0.1068,0.2192,664.31,-687.32,1125.37
2050,-3.8711,0.1169,0.2271,1679.93,62.68,-1437.07
2060,-3.8710,0.1281,0.2407,-1023.19,1062.68,125.43
2070,-3.8710,0.1404,0.2590,398.68,-1187.26,-1577.70
2080,-3.8708,0.1522,0.2816,1976.81,1156.49,-1999.51
2090,-3.8707,0.1641,0.3126,-507.57,47.12,-1124.45
2100,-3.8705,0.1775,0.3517,1008.06,15.93,813.11
2110,-3.8704,0.1937,0.3800,-1273.19,1015.93,-1202.45
2120,-3.8702,0.2169,0.3800,804.93,640.99,-1405.52
2130,-3.8702,0.2446,0.3529,-226.32,640.99,-1889.89
2140,-3.8704,0.2710,0.3119,-679.44,1172.30,1156.92
2150,-3.8706,0.2969,0.2716,-1304.44,-77.64,1281.80
2160,-3.8708,0.3217,0.2383,-1991.94,-1233.83,250.49
2170,-3.8712,0.3408,0.2131,1179.93,-1499.39,-562.07
2180,-3.8715,0.3564,0.1959,-366.94,-718.14,-312.13
2190,-3.8716,0.3701,0.1875,1633.06,1078.80,1797.24
2200,-3.8717,0.3806,0.1915,-616.94,0.67,-1812.13
2210,-3.8717,0.3888,0.2014,726.81,516.36,547.24
2220,-3.8717,0.3934,0.2063,1773.68,1781.98,687.87
2230,-3.8717,0.3921,0.2079,-1632.57,-1593.02,-1671.51
2240,-3.8716,0.3810,0.2106,-1804.44,-1389.89,359.74
2250,-3.8716,0.3625,0.2108,773.68,-1046.14,1672.24
2260,-3.8716,0.3483,0.2046,-1585.69,-1014.95,-1530.88
2270,-3.8716,0.3445,0.1949,586.18,-1811.83,-1093.38
2280,-3.8716,0.3455,0.1881,101.81,953.80,-999.63
2290,-3.8716,0.3422,0.1882,226.81,78.80,-640.26
2300,-3.8715,0.3336,0.1919,-195.07,94.36,234.74
2310,-3.8715,0.3292,0.1926,-1288.82,563.11,1297.24
2320,-3.8715,0.3386,0.1931,-1851.32,656.86,-1796.51
2330,-3.8715,0.3657,0.2028,-648.19,719.36,-999.63
2340,-3.8715,0.4061,0.2264,-1179.44,1953.80,-593.38
2350,-3.8715,0.4465,0.2391,-7.57,985.11,-1671.45
2360,-3.8715,0.4791,0.2189,1164.31,-1389.77,266.05
2370,-3.8716,0.5018,0.1884,1336.18,16.54,-1296.45
2380,-3.8716,0.5123,0.1742,242.43,110.35,1672.24
2390,-3.8716,0.5135,0.1807,1586.18,-1702.15,1156.56
2400,-3.8716,0.5103,0.1978,1742.43,-874.02,1734.68
2410,-3.8716,0.5076,0.2118,1320.56,1313.48,-780.88
2420,-3.8715,0.5084,0.2103,976.81,-889.65,109.74
2430,-3.8716,0.5115,0.1956,1086.18,-1077.15,-77.76
2440,-3.8716,0.5156,0.1854,1476.81,1032.23,-921.51
2450,-3.8716,0.5205,0.1844,-1991.94,-264.65,1828.43
2460,-3.8716,0.5305,0.1917,-1366.94,-389.65,1109.68
2470,-3.8716,0.5507,0.2080,-85.69,532.23,1875.37
2480,-3.8716,0.5803,0.2255,-1507.57,-1373.96,-280.88
2490,-3.8715,0.6121,0.2390,-1710.69,860.47,1922.30
2500,-3.8715,0.6407,0.2487,-1648.19,-1405.09,-358.95
2510,-3.8713,0.6633,0.2499,-1976.32,-170.65,78.55
2520,-3.8715,0.6733,0.2413,914.31,-14.34,-1124.57
2530,-3.8715,0.6716,0.2266,-1804.44,-1108.09,437.93
2540,-3.8716,0.6635,0.2095,1976.81,1001.28,1641.05
2550,-3.8717,0.6505,0.1903,929.93,-1186.22,-1187.13
2560,-3.8718,0.6345,0.1671,-726.32,360.60,-234.01
2570,-3.8718,0.6194,0.1427,1226.81,1391.85,562.81
2580,-3.8719,0.6068,0.1213,-710.69,-1733.22,1531.49
2590,-3.8721,0.5940,0.1055,1679.93,-467.59,-1093.57
2600,-3.8721,0.5825,0.0919,39.31,1501.16,734.56
2610,-3.8722,0.5768,0.0778,-1429.44,-233.28,-1109.25
2620,-3.8722,0.5759,0.0645,1836.18,1954.22,1578.25
2630,-3.8722,0.5764,0.0532,1726.81,251.10,828.25
2640,-3.8722,0.5754,0.0448,1789.31,-1186.40,562.56
2650,-3.8722,0.5730,0.0375,1664.31,1735.47,953.19
2660,-3.8722,0.5713,0.0343,1351.81,797.97,-1749.94
2670,-3.8721,0.5709,0.0387,1133.06,391.72,312.56
2680,-3.8721,0.5668,0.0447,1086.18,954.22,-1609.31
2690,-3.8721,0.5552,0.0479,554.93,1719.85,-312.44
2700,-3.8719,0.5402,0.0481,-929.44,-1873.96,343.81
2710,-3.8719,0.5256,0.0472,1148.68,-1842.71,1140.69
2720,-3.8719,0.5140,0.0474,-710.69,-1952.15,-1953.06
2730,-3.8719,0.5110,0.0503,1804.93,-1936.52,-1046.81
2740,-3.8718,0.5176,0.0562,1414.31,-1561.52,78.19
2750,-3.8718,0.5251,0.0648,-1741.94,-811.52,1343.81
2760,-3.8718,0.5245,0.0773,-773.19,297.85,-1437.38
2770,-3.8718,0.5155,0.0900,-851.32,1891.60,-46.75
2780,-3.8717,0.5052,0.1016,1992.43,-483.40,1984.50
2790,-3.8716,0.5007,0.1171,679.93,1000.98,765.81
2800,-3.8716,0.4994,0.1362,101.81,-1014.65,-343.57
2810,-3.8715,0.4949,0.1538,-70.07,1438.42,-1765.38
2820,-3.8713,0.4846,0.1658,-648.19,-311.58,547.12
2830,-3.8713,0.4683,0.1707,-1960.69,1219.67,-1546.57
2840,-3.8713,0.4452,0.1671,-54.44,1844.60,-327.82
2850,-3.8712,0.4161,0.1586,992.43,1391.48,15.93
2860,-3.8713,0.3862,0.1532,1273.68,297.67,-140.32
2870,-3.8713,0.3619,0.1560,1445.56,-389.89,-140.38
2880,-3.8712,0.3451,0.1627,-1663.82,-30.58,140.87
2890,-3.8712,0.3356,0.1644,179.93,828.80,265.93
2900,-3.8713,0.3329,0.1600,-1038.82,1047.49,-234.07
2910,-3.8713,0.3329,0.1548,-1382.57,484.99,-1296.57
2920,-3.8713,0.3303,0.1536,-1382.57,-186.89,1640.87
2930,-3.8713,0.3196,0.1580,-1710.69,-343.14,1234.62
2940,-3.8713,0.2952,0.1647,914.31,219.36,1906.56
2950,-3.8713,0.2606,0.1703,1789.31,1078.67,-437.19
2960,-3.8712,0.2260,0.1748,1367.43,1797.36,1562.81
2970,-3.8712,0.1984,0.1786,929.93,-1624.57,-577.82
2980,-3.8711,0.1827,0.1825,1398.68,-1140.26,812.81
2990,-3.8711,0.1802,0.1885,-601.32,-640.32,1469.06
3000,-3.8711,0.1902,0.1986,-929.44,125.31,1531.62
3010,-3.8711,0.2115,0.2109,351.81,1422.24,1390.99
3020,-3.8711,0.2421,0.2222,-913.82,-999.63,1297.24
3030,-3.8711,0.2745,0.2285,-1007.57,437.93,1312.93
3040,-3.8711,0.3010,0.2306,-851.32,1250.49,1594.18
3050,-3.8711,0.3165,0.2345,-1460.69,1516.17,-1733.95
3060,-3.8711,0.3182,0.2412,523.68,-1983.76,-827.70
3070,-3.8710,0.3086,0.2452,742.43,-1124.39,47.30
3080,-3.8710,0.2932,0.2438,-491.94,-608.83,516.05
3090,-3.8710,0.2744,0.2412,1539.31,-796.33,844.18
3100,-3.8710,0.2512,0.2445,-866.94,-1124.51,1875.43
3110,-3.8710,0.2307,0.2515,164.31,-702.64,-530.82
3120,-3.8708,0.2208,0.2574,1539.31,187.93,953.61
3130,-3.8708,0.2203,0.2627,273.68,953.55,1828.61
3140,-3.8708,0.2247,0.2679,211.18,1625.43,1578.61
3150,-3.8708,0.2275,0.2714,773.68,-1702.70,562.99
3160,-3.8708,0.2208,0.2705,1133.06,-1265.20,47.36
3170,-3.8708,0.2015,0.2649,273.68,-1374.57,656.74
3180,-3.8708,0.1743,0.2555,1804.93,1906.62,1734.86
3190,-3.8708,0.1473,0.2467,-1679.44,703.43,-1749.51
3200,-3.8708,0.1260,0.2441,-1132.57,-421.63,1219.18
3210,-3.8710,0.1149,0.2458,133.06,-749.76,-1952.70
3220,-3.8711,0.1196,0.2437,-1288.82,-531.07,1594.18
3230,-3.8712,0.1364,0.2355,-679.44,-812.32,1672.30
3240,-3.8713,0.1506,0.2295,1461.18,-1859.13,-733.95
3250,-3.8713,0.1488,0.2267,-710.69,1375.24,-1358.95
3260,-3.8713,0.1272,0.2207,-945.07,1015.87,-124.57
3270,-3.8712,0.0895,0.2114,289.31,250.24,-1593.32
3280,-3.8711,0.0466,0.2090,-538.82,-937.38,765.99
3290,-3.8711,0.0157,0.2151,1976.81,-1249.94,1844.12
3300,-3.8711,0.0034,0.2175,-1976.32,-468.75,1453.49
3310,-3.8711,0.0092,0.2137,445.56,-156.25,125.37
3320,-3.8712,0.0360,0.2078,1179.93,-640.62,-1905.88
3330,-3.8713,0.0815,0.2019,617.43,-1406.19,-796.51
3340,-3.8713,0.1230,0.1963,-1554.44,1843.87,187.87
3350,-3.8715,0.1372,0.1874,-241.94,1125.18,-1562.13
3360,-3.8715,0.1194,0.1759,1570.56,-15.38,-1484.07
3370,-3.8715,0.0746,0.1660,-710.69,-1484.19,-77.82
3380,-3.8713,0.0195,0.1578,1554.93,1250.12,1547.18
3390,-3.8713,-0.0260,0.1479,-1491.94,203.12,-1765.32
3400,-3.8713,-0.0541,0.1331,679.93,-1046.94,1484.62
3410,-3.8713,-0.0699,0.1144,1086.18,1046.75,47.12
3420,-3.8715,-0.0760,0.0946,-945.07,-1343.93,-1031.07
3430,-3.8715,-0.0740,0.0750,-1726.32,124.82,-999.82
3440,-3.8713,-0.0713,0.0610,-1460.69,1609.19,453.25
3450,-3.8713,-0.0730,0.0581,-1116.94,-172.06,-1468.69
3460,-3.8712,-0.0803,0.0635,-1335.69,-547.06,625.06
3470,-3.8712,-0.0908,0.0736,1726.81,140.44,-812.38
3480,-3.8711,-0.0968,0.0862,383.06,1437.32,-1562.38
3490,-3.8710,-0.0945,0.0975,-382.57,-953.37,1922.00
3500,-3.8708,-0.0874,0.1060,-85.69,499.76,1203.31
3510,-3.8707,-0.0807,0.1141,820.56,1577.94,422.06
3520,-3.8707,-0.0754,0.1216,1679.93,-1375.18,-640.44
3530,-3.8706,-0.0708,0.1265,-1648.19,-422.06,1250.18
3540,-3.8706,-0.0647,0.1290,-1054.44,202.94,1828.37
3550,-3.8706,-0.0532,0.1283,-273.19,531.07,1250.24
3560,-3.8707,-0.0355,0.1226,1195.56,437.38,-531.01
3570,-3.8707,-0.0146,0.1150,-538.82,-297.00,609.56
3580,-3.8708,0.0076,0.1123,-1866.94,-1265.69,1265.81
3590,-3.8710,0.0286,0.1208,976.81,-1625.00,-1671.69
3600,-3.8710,0.0487,0.1406,-335.69,-531.25,875.18
3610,-3.8710,0.0764,0.1636,-1757.57,-1999.94,1468.99
3620,-3.8710,0.1194,0.1840,1789.31,937.62,-952.82
3630,-3.8710,0.1746,0.2035,-710.69,-452.94,-171.57
3640,-3.8710,0.2227,0.2240,-1648.19,-1952.82,-671.51
3650,-3.8710,0.2411,0.2423,508.06,672.30,-1780.82
3660,-3.8710,0.2238,0.2506,-1132.57,-983.95,1266.05
3670,-3.8710,0.1851,0.2456,648.68,78.55,1016.11
3680,-3.8710,0.1477,0.2317,-304.44,-562.19,1484.80
3690,-3.8710,0.1212,0.2128,-1085.69,1656.49,1766.05
3700,-3.8710,0.1080,0.1964,-476.32,-765.44,1312.87
3710,-3.8710,0.1046,0.1904,1836.18,1140.81,219.12
3720,-3.8711,0.1050,0.1906,1398.68,375.18,-1499.63
3730,-3.8711,0.1104,0.1925,1445.56,390.81,984.74
3740,-3.8711,0.1196,0.1984,-1866.94,640.81,469.12
3750,-3.8711,0.1250,0.2062,-679.44,1390.81,1031.62
3760,-3.8711,0.1235,0.2104,8.06,-1609.13,1844.12
3770,-3.8711,0.1227,0.2063,-179.44,-1062.32,1422.24
3780,-3.8712,0.1289,0.1941,-288.82,-1593.57,-77.76
3790,-3.8712,0.1373,0.1841,508.06,843.99,-1234.01
3800,-3.8712,0.1411,0.1838,1586.18,-437.26,-1312.19
3810,-3.8712,0.1438,0.1873,-1929.44,-468.51,-640.32
3820,-3.8711,0.1484,0.1863,-1585.69,-31.01,265.93
3830,-3.8711,0.1532,0.1818,-991.94,-156.01,828.43
3840,-3.8711,0.1560,0.1786,-382.57,-734.13,594.06
3850,-3.8712,0.1566,0.1777,-23.19,-1140.38,-46.57
3860,-3.8712,0.1571,0.1760,54.93,-1249.69,-749.69
3870,-3.8712,0.1594,0.1753,117.43,-1468.44,-1187.19
3880,-3.8712,0.1624,0.1776,414.31,-1562.19,-1218.44
3890,-3.8712,0.1649,0.1766,789.31,-1265.32,-1468.44
3900,-3.8712,0.1692,0.1692,1117.43,-1390.32,1453.43
3910,-3.8713,0.1771,0.1613,1664.31,1656.56,-109.07
3920,-3.8713,0.1875,0.1600,-1320.07,640.93,-1530.94
3930,-3.8713,0.1987,0.1628,8.06,484.74,1140.93
3940,-3.8713,0.2090,0.1616,1445.56,844.12,281.56
3950,-3.8713,0.2159,0.1549,-1241.94,687.87,234.68
3960,-3.8713,0.2175,0.1465,-351.32,-171.51,484.62
3970,-3.8713,0.2112,0.1361,-148.19,-1249.63,375.24
3980,-3.8715,0.2002,0.1239,-960.69,1422.24,-15.38
3990,-3.8715,0.1892,0.1149,1633.06,-140.26,-296.69
4000,-3.8715,0.1808,0.1124,226.81,-1296.51,-31.07
4010,-3.8713,0.1771,0.1169,-851.32,-1609.07,1265.81
4020,-3.8713,0.1790,0.1267,-1320.07,-1030.94,-593.57
4030,-3.8712,0.1874,0.1373,-1085.69,219.06,1890.87
4040,-3.8711,0.2019,0.1500,-7.57,1578.43,593.99
4050,-3.8711,0.2170,0.1714,1851.81,-796.51,-234.13
4060,-3.8710,0.2288,0.2010,-210.69,1937.87,-843.44
4070,-3.8708,0.2350,0.2291,1289.31,1734.80,-1530.88
4080,-3.8707,0.2380,0.2455,-1913.82,1328.55,1437.93
4090,-3.8707,0.2444,0.2429,-1523.19,-577.70,-1093.32
4100,-3.8707,0.2570,0.2212,-710.69,-905.82,1656.68
4110,-3.8708,0.2678,0.1907,898.68,312.99,1687.93
4120,-3.8711,0.2743,0.1628,-1710.69,406.74,-234.01
4130,-3.8712,0.2841,0.1395,-882.57,844.24,1625.31
4140,-3.8713,0.2987,0.1221,367.43,1859.92,1156.49
4150,-3.8715,0.3119,0.1183,-1757.57,-374.45,-796.69
4160,-3.8715,0.3195,0.1288,-70.07,-858.83,-749.82
4170,-3.8713,0.3265,0.1475,898.68,484.99,875.24
4180,-3.8712,0.3412,0.1735,1804.93,-1124.39,187.74
4190,-3.8711,0.3645,0.2001,-320.07,-1796.26,94.06
4200,-3.8711,0.3940,0.2144,-1335.69,1610.05,-1312.13
4210,-3.8711,0.4266,0.2107,-1554.44,-561.77,-1280.88
4220,-3.8712,0.4543,0.1807,-1382.57,-1030.46,-171.51
4230,-3.8713,0.4731,0.1368,-1835.69,-874.15,-843.44
4240,-3.8715,0.4900,0.1078,570.56,1516.54,-1234.13
4250,-3.8716,0.5068,0.0967,-1273.19,1797.79,-468.57
4260,-3.8716,0.5162,0.0914,883.06,375.98,1359.56
4270,-3.8716,0.5159,0.0839,-1913.82,-295.90,390.75
4280,-3.8716,0.5127,0.0812,-1960.69,-1264.65,500.12
4290,-3.8716,0.5137,0.0911,1633.06,-1608.40,1531.37
4300,-3.8716,0.5193,0.1019,1758.06,-342.77,-828.00
4310,-3.8715,0.5280,0.1017,-1523.19,1047.85,484.56
4320,-3.8715,0.5372,0.0936,-413.82,1016.60,750.18
4330,-3.8715,0.5404,0.0831,773.68,-14.59,375.12
4340,-3.8716,0.5354,0.0723,1179.93,-1358.34,-78.00
4350,-3.8716,0.5280,0.0608,539.31,1251.04,-734.25
4360,-3.8716,0.5248,0.0498,-413.82,-217.77,-1593.69
4370,-3.8716,0.5264,0.0417,-820.07,-1624.02,1625.06
4380,-3.8716,0.5292,0.0389,-616.94,1344.73,1140.69
4390,-3.8716,0.5317,0.0371,-257.57,985.35,906.31
4400,-3.8716,0.5325,0.0287,70.56,751.04,390.69
4410,-3.8717,0.5306,0.0157,164.31,-327.09,-656.25
4420,-3.8717,0.5275,0.0074,-70.07,-1983.40,-1562.50
4430,-3.8717,0.5238,0.0084,-476.32,954.10,-1984.38
4440,-3.8717,0.5190,0.0142,-945.07,1079.10,1453.12
4450,-3.8717,0.5103,0.0168,-1554.44,1813.48,468.75
4460,-3.8718,0.4966,0.0132,1320.56,-1842.77,-500.00
4470,-3.8718,0.4800,0.0063,-429.44,1688.42,-1140.62
4480,-3.8718,0.4623,0.0031,1445.56,813.42,-953.12
4490,-3.8717,0.4484,0.0046,-820.07,391.48,203.12
4500,-3.8717,0.4443,0.0060,1398.68,594.60,1734.38
4510,-3.8717,0.4484,0.0054,883.06,766.48,-796.88
4520,-3.8716,0.4528,0.0057,1398.68,688.35,78.12
4530,-3.8717,0.4529,0.0050,1961.18,735.23,-359.38
4540,-3.8717,0.4490,0.0032,1976.81,641.48,-1187.50
4550,-3.8717,0.4410,0.0055,1476.81,407.10,-875.00
4560,-3.8716,0.4275,0.0137,461.18,703.98,406.25
4570,-3.8716,0.4108,0.0231,-1273.19,1750.79,1906.25
4580,-3.8716,0.3937,0.0319,586.18,-1046.08,-750.00
4590,-3.8715,0.3761,0.0354,-1601.32,78.86,234.44
4600,-3.8715,0.3596,0.0298,148.68,531.98,1359.44
4610,-3.8715,0.3470,0.0226,-1960.69,-186.83,-578.12
4620,-3.8713,0.3402,0.0217,429.93,-1108.70,-1937.50
4630,-3.8713,0.3380,0.0271,-445.07,-1218.14,-218.75
4640,-3.8713,0.3395,0.0336,-726.32,-530.64,-265.62
4650,-3.8713,0.3416,0.0439,-538.82,297.49,-812.44
4660,-3.8713,0.3387,0.0581,-273.19,1625.61,-499.94
4670,-3.8712,0.3302,0.0684,-632.57,-561.89,453.19
4680,-3.8712,0.3217,0.0741,-1726.32,750.61,1578.25
4690,-3.8712,0.3184,0.0795,1179.93,1484.99,-1640.50
4700,-3.8712,0.3199,0.0837,758.06,-1827.51,-1515.50
4710,-3.8712,0.3237,0.0852,961.18,-1280.64,-1999.88
4720,-3.8712,0.3293,0.0879,1445.56,-1093.14,1359.50
4730,-3.8712,0.3390,0.0933,-1835.69,-749.39,922.00
4740,-3.8712,0.3523,0.0969,-601.32,-61.89,656.37
4750,-3.8712,0.3621,0.1005,1101.81,406.92,640.81
4760,-3.8712,0.3619,0.1067,-1648.19,860.05,984.56
4770,-3.8712,0.3517,0.1124,-1663.82,1656.92,1609.56
4780,-3.8712,0.3378,0.1147,1023.68,-1608.70,-1702.94
4790,-3.8712,0.3285,0.1182,-757.57,-1311.89,-1234.19
4800,-3.8712,0.3258,0.1267,-1945.07,-874.39,-1218.57
4810,-3.8712,0.3307,0.1383,1711.18,219.36,-1468.51
4820,-3.8712,0.3459,0.1499,-1663.82,1703.74,-1031.01
4830,-3.8711,0.3700,0.1592,289.31,-811.83,515.87
4840,-3.8711,0.3972,0.1637,-632.57,375.67,-1499.69
4850,-3.8710,0.4226,0.1646,-1148.19,953.86,78.43
4860,-3.8710,0.4376,0.1697,-1898.19,1063.29,969.06
4870,-3.8710,0.4331,0.1803,23.68,1719.60,1187.81
4880,-3.8710,0.4124,0.1884,-554.44,-921.08,1125.31
4890,-3.8710,0.3845,0.1906,789.31,110.17,1437.87
4900,-3.8710,0.3541,0.1914,1226.81,391.36,-1640.26
4910,-3.8710,0.3223,0.2024,1336.18,500.67,-265.26
4920,-3.8708,0.2926,0.2230,1258.06,1906.86,1219.12
4930,-3.8708,0.2660,0.2373,1461.18,547.42,-1608.95
4940,-3.8708,0.2419,0.2390,-1945.07,-1624.51,-983.95
4950,-3.8708,0.2250,0.2415,-1023.19,-1405.82,-1187.07
4960,-3.8708,0.2133,0.2485,804.93,-1093.32,1578.55
4970,-3.8708,0.1958,0.2476,-695.07,-187.13,0.43
4980,-3.8710,0.1675,0.2366,1070.56,-312.13,-1296.45
4990,-3.8710,0.1338,0.2216,1445.56,-1718.44,1906.68
5000,-3.8710,0.1040,0.2108,1133.06,359.62,-1765.20
5010,-3.8710,0.0813,0.2119,1320.56,-1015.44,-327.76
5020,-3.8708,0.0645,0.2244,-1585.69,-874.88,1078.49
5030,-3.8708,0.0524,0.2357,258.06,718.87,1734.80
5040,-3.8708,0.0482,0.2333,-1288.82,-1828.06,1531.68
5050,-3.8708,0.0542,0.2211,-1820.07,1859.44,500.43
5060,-3.8710,0.0677,0.2104,-1054.44,296.94,-1390.20
5070,-3.8710,0.0825,0.2062,679.93,-1062.38,359.74
5080,-3.8711,0.0906,0.2043,-1429.44,-1609.25,-1593.38
5090,-3.8711,0.0895,0.1991,-398.19,-1843.63,484.74
5100,-3.8712,0.0854,0.1919,-538.82,1484.50,1890.99
5110,-3.8713,0.0859,0.1869,-1054.44,562.62,-1546.51
5120,-3.8715,0.0906,0.1873,-991.94,-78.00,-999.69
5130,-3.8715,0.0962,0.1914,-398.19,-31.13,375.31
5140,-3.8716,0.1028,0.1957,320.56,500.18,-1202.76
5150,-3.8716,0.1080,0.1991,1164.31,1047.06,-1780.88
5160,-3.8716,0.1104,0.1992,1836.18,1484.56,-1359.01
5170,-3.8716,0.1096,0.1938,-1866.94,1500.18,-421.51
5180,-3.8715,0.1036,0.1820,-1960.69,812.68,453.49
5190,-3.8715,0.0883,0.1642,1273.68,-702.94,1609.68
5200,-3.8715,0.0603,0.1431,-695.07,1015.75,-718.44
5210,-3.8713,0.0220,0.1232,-273.19,-1687.44,1031.49
5220,-3.8713,-0.0181,0.1018,-1179.44,-234.38,-1749.82
5230,-3.8713,-0.0521,0.0804,1695.56,1046.81,-1827.94
5240,-3.8713,-0.0734,0.0623,1336.18,-1687.62,1062.62
5250,-3.8715,-0.0844,0.0422,-1382.57,-15.81,-390.56
5260,-3.8715,-0.0966,0.0247,1211.18,1421.69,-1859.31
5270,-3.8715,-0.1146,0.0156,-351.32,-828.37,1609.38
5280,-3.8715,-0.1343,0.0107,1336.18,-1984.62,-1250.00
5290,-3.8713,-0.1472,0.0011,-1179.44,1390.32,1234.38
5300,-3.8712,-0.1530,-0.0166,1164.31,155.94,390.62
5310,-3.8712,-0.1578,-0.0308,429.93,1890.32,-593.81
5320,-3.8711,-0.1619,-0.0342,-195.07,77.76,1328.06
5330,-3.8711,-0.1561,-0.0352,-710.69,-359.74,1999.88
5340,-3.8711,-0.1346,-0.0399,23.68,-484.68,-1500.12
5350,-3.8711,-0.1041,-0.0438,-1226.32,-1094.06,-453.25
5360,-3.8710,-0.0767,-0.0430,-1320.07,-1593.99,687.38
5370,-3.8710,-0.0569,-0.0381,-1804.44,-1484.56,1734.25
5380,-3.8710,-0.0437,-0.0294,726.81,-859.50,-922.00
5390,-3.8708,-0.0364,-0.0177,-1585.69,249.88,1171.81
5400,-3.8707,-0.0321,-0.0004,-648.19,1749.88,296.81
5410,-3.8706,-0.0267,0.0242,-101.32,-31.37,187.44
5420,-3.8705,-0.0168,0.0537,586.18,-890.69,296.88
5430,-3.8704,-0.0049,0.0817,1851.81,-1109.44,281.31
5440,-3.8704,0.0033,0.0997,-616.94,-1531.31,-374.88
5450,-3.8702,0.0060,0.1047,429.93,765.62,1359.56
5460,-3.8702,0.0074,0.1006,773.68,1406.25,1140.81
5470,-3.8704,0.0129,0.0936,961.18,875.00,-796.69
5480,-3.8705,0.0228,0.0875,1664.31,-15.62,-140.50
5490,-3.8706,0.0336,0.0854,-1070.07,-796.88,-390.50
5500,-3.8707,0.0391,0.0870,304.93,-1062.44,-796.75
5510,-3.8708,0.0393,0.0880,1008.06,-859.31,-718.63
5520,-3.8708,0.0382,0.0903,1039.31,-734.31,297.00
5530,-3.8710,0.0376,0.0986,898.68,-437.44,-1359.25
5540,-3.8710,0.0421,0.1104,820.56,625.06,-1562.32
5550,-3.8710,0.0576,0.1202,1398.68,-1874.94,-1077.94
5560,-3.8710,0.0840,0.1245,-616.94,-609.31,-1265.44
5570,-3.8710,0.1129,0.1257,-1241.94,-62.38,1468.93
5580,-3.8711,0.1370,0.1278,-1538.82,93.93,-421.63
5590,-3.8711,0.1537,0.1279,1539.31,359.62,1437.74
5600,-3.8712,0.1617,0.1213,-320.07,375.24,-234.13
5610,-3.8712,0.1544,0.1136,711.18,-468.44,-952.94
5620,-3.8712,0.1229,0.1106,-226.32,-1452.88,-843.57
5630,-3.8712,0.0701,0.1079,-257.57,-1843.57,-31.07
5640,-3.8711,0.0084,0.0989,976.81,1812.62,1125.18
5650,-3.8711,-0.0527,0.0852,1086.18,656.25,-1624.82
5660,-3.8711,-0.0979,0.0789,1258.06,-1078.25,-546.75
5670,-3.8711,-0.1051,0.0878,-523.19,-1890.87,-31.13
5680,-3.8711,-0.0763,0.1002,-1445.07,-750.24,-374.88
5690,-3.8711,-0.0259,0.1077,-1757.57,843.57,-1171.69
5700,-3.8711,0.0314,0.1146,695.56,1796.81,-1577.94
5710,-3.8711,0.0776,0.1255,23.68,-1328.06,-1374.82
5720,-3.8711,0.1116,0.1389,1945.56,62.62,-1281.01
5730,-3.8711,0.1425,0.1481,-1710.69,1781.43,-1734.13
5740,-3.8711,0.1746,0.1555,-1757.57,-1046.63,1734.62
5750,-3.8711,0.2061,0.1670,-1648.19,-93.44,1500.24
5760,-3.8711,0.2328,0.1816,-1616.94,1375.37,1594.06
5770,-3.8711,0.2506,0.1968,1804.93,-749.57,-1937.19
5780,-3.8711,0.2610,0.2131,86.18,1187.99,-1109.01
5790,-3.8711,0.2687,0.2267,1414.31,-718.26,-718.38
5800,-3.8711,0.2799,0.2350,-1601.32,1016.11,-1265.20
5810,-3.8711,0.2977,0.2410,-163.82,-1921.39,1406.68
5820,-3.8712,0.3168,0.2444,-1882.57,-1155.70,-858.95
5830,-3.8712,0.3317,0.2427,554.93,-718.14,31.68
5840,-3.8713,0.3407,0.2363,-1538.82,-936.89,922.30
5850,-3.8715,0.3459,0.2319,-382.57,-1749.39,-1202.70
5860,-3.8715,0.3503,0.2322,289.31,1688.17,1578.55
5870,-3.8715,0.3535,0.2350,851.81,1719.42,1281.68
5880,-3.8715,0.3575,0.2396,1258.06,-1921.20,-1655.82
5890,-3.8713,0.3669,0.2432,1773.68,-1327.45,375.43
5900,-3.8713,0.3828,0.2440,-1023.19,-874.33,-1562.07
5910,-3.8713,0.4010,0.2415,1008.06,-764.89,-343.32
5920,-3.8713,0.4172,0.2291,-663.82,-1093.02,-218.32
5930,-3.8713,0.4282,0.2015,1414.31,1328.92,-1108.95
5940,-3.8713,0.4293,0.1626,-1179.44,1797.67,1359.74
5950,-3.8713,0.4204,0.1279,-1038.82,813.29,125.31
5960,-3.8715,0.4038,0.1113,1820.56,375.79,-281.01
5970,-3.8713,0.3817,0.1118,-304.44,-1749.27,47.06
5980,-3.8713,0.3600,0.1171,867.43,-1686.77,843.93
5990,-3.8713,0.3450,0.1160,-1913.82,-1014.95,1906.43
6000,-3.8713,0.3370,0.1072,164.31,-1155.58,-734.19
6010,-3.8712,0.3350,0.0991,-851.32,1719.36,687.68
6020,-3.8712,0.3413,0.0928,-1116.94,688.11,1406.43
6030,-3.8712,0.3580,0.0839,-304.44,-124.39,906.37
6040,-3.8713,0.3809,0.0781,1836.18,-1264.95,-624.88
6050,-3.8713,0.4045,0.0820,758.06,-1999.27,1359.50
6060,-3.8715,0.4254,0.0951,-210.69,-1499.27,-281.13
6070,-3.8715,0.4420,0.1149,-1538.82,172.67,-671.69
6080,-3.8713,0.4558,0.1385,586.18,-1296.02,406.43
6090,-3.8713,0.4723,0.1656,-1648.19,1735.23,-1749.76
6100,-3.8713,0.4967,0.1942,461.18,1204.04,-93.44
6110,-3.8712,0.5305,0.2124,-413.82,860.29,609.74
6120,-3.8713,0.5671,0.2076,-85.69,-811.52,-124.63
6130,-3.8713,0.5918,0.1812,601.81,-1420.78,1594.12
6140,-3.8715,0.5946,0.1449,-241.94,-811.40,-1687.19
6150,-3.8716,0.5773,0.1104,117.43,-1451.97,-1249.76
6160,-3.8717,0.5503,0.0791,1898.68,-1873.90,-796.69
6170,-3.8717,0.5269,0.0491,-1554.44,-1873.96,359.50
6180,-3.8718,0.5135,0.0234,-554.44,-1717.77,-1343.69
6190,-3.8718,0.5067,0.0049,1742.43,-999.02,1562.50
6200,-3.8718,0.5004,-0.0066,867.43,625.98,796.88
6210,-3.8718,0.4905,-0.0112,54.93,-842.77,874.94
6220,-3.8718,0.4761,-0.0110,-1210.69,-1436.58,-1984.44
6230,-3.8718,0.4611,-0.0137,945.56,-1405.33,-343.81
6240,-3.8717,0.4485,-0.0237,-976.32,-1749.15,1140.56
6250,-3.8717,0.4373,-0.0375,1414.31,969.60,-1843.81
6260,-3.8717,0.4270,-0.0513,-23.19,-796.08,-1343.87
6270,-3.8717,0.4191,-0.0629,-1335.69,1438.29,-1109.50
6280,-3.8717,0.4152,-0.0691,1648.68,-46.08,-672.06
6290,-3.8716,0.4130,-0.0645,1148.68,-842.96,531.07
6300,-3.8716,0.4081,-0.0502,867.43,-249.21,-1187.68
6310,-3.8715,0.4060,-0.0339,242.43,1578.92,1859.25
6320,-3.8713,0.4139,-0.0220,-23.19,-343.02,843.63
6330,-3.8713,0.4326,-0.0129,992.43,1188.29,-671.94
6340,-3.8712,0.4564,-0.0022,-616.94,-1655.46,1078.06
6350,-3.8712,0.4797,0.0093,-1570.07,-280.40,-1953.19
6360,-3.8712,0.4996,0.0203,1414.31,1188.42,-1109.38
6370,-3.8712,0.5129,0.0288,-38.82,-1405.33,-46.88
6380,-3.8711,0.5193,0.0322,1664.31,-311.52,593.75
6390,-3.8711,0.5219,0.0326,-1523.19,125.98,218.81
6400,-3.8712,0.5222,0.0303,-1195.07,172.85,-999.94
6410,-3.8712,0.5188,0.0248,-1148.19,-124.02,1562.50
6420,-3.8712,0.5093,0.0195,-1585.69,-827.15,578.12
6430,-3.8712,0.4943,0.0193,1195.56,-1499.02,250.00
6440,-3.8712,0.4764,0.0211,-726.32,-1530.33,0.00
6450,-3.8713,0.4602,0.0199,992.43,-1295.96,-859.38
6460,-3.8713,0.4493,0.0178,-1085.69,-1452.27,1843.75
6470,-3.8713,0.4440,0.0200,1523.68,-1717.90,718.75
6480,-3.8713,0.4410,0.0277,836.18,-1436.65,0.00
6490,-3.8715,0.4393,0.0394,461.18,-452.27,-312.50
6500,-3.8715,0.4380,0.0536,242.43,1047.73,-171.81
6510,-3.8713,0.4344,0.0679,70.56,-1139.77,296.94
6520,-3.8713,0.4269,0.0833,-382.57,688.29,1062.62
6530,-3.8713,0.4167,0.0988,-1351.32,-1342.96,-1609.25
6540,-3.8712,0.4061,0.1091,1351.81,641.42,218.93
6550,-3.8712,0.3921,0.1135,-7.57,1969.48,-1968.57
6560,-3.8712,0.3726,0.1147,-1804.44,-1468.02,-718.57
6570,-3.8712,0.3492,0.1133,-304.44,-1311.83,-359.19
6580,-3.8712,0.3257,0.1115,711.18,-1499.33,-671.69
6590,-3.8712,0.3049,0.1139,1695.56,-1733.76,-1140.44
6600,-3.8712,0.2885,0.1222,-960.69,-1421.33,-1640.44
6610,-3.8712,0.2821,0.1356,929.93,-358.83,1343.93
6620,-3.8713,0.2930,0.1501,117.43,1359.92,-484.13
6630,-3.8713,0.3165,0.1639,1508.06,-780.70,1437.74
6640,-3.8715,0.3419,0.1826,523.68,984.99,-15.32
6650,-3.8715,0.3607,0.2078,-226.32,-624.39,-530.94
6660,-3.8713,0.3627,0.2375,-1820.07,-1405.58,297.24
6670,-3.8713,0.3417,0.2675,-1570.07,-1593.08,-1374.57
6680,-3.8712,0.3052,0.2853,-257.57,-1765.01,1375.49
6690,-3.8712,0.2695,0.2854,-929.44,516.17,-780.70
6700,-3.8712,0.2401,0.2760,-1491.94,531.74,-702.58
6710,-3.8712,0.2130,0.2620,-1257.57,-671.45,1531.74
6720,-3.8713,0.1932,0.2421,-726.32,1531.62,-1046.39
6730,-3.8713,0.1888,0.2181,742.43,-1015.26,625.43
6740,-3.8715,0.1958,0.1967,179.93,-77.76,-765.26
6750,-3.8715,0.2056,0.1859,1070.56,1172.24,-937.13
6760,-3.8713,0.2123,0.1868,-1679.44,-202.76,125.31
6770,-3.8713,0.2153,0.1904,-820.07,-93.38,-1937.19
6780,-3.8713,0.2218,0.1895,-429.44,375.37,-218.38
6790,-3.8712,0.2393,0.1827,398.68,250.43,187.87
6800,-3.8713,0.2686,0.1692,-1366.94,-608.95,-796.57
6810,-3.8713,0.3013,0.1500,-1616.94,1656.74,1375.31
6820,-3.8715,0.3271,0.1310,-1429.44,-796.33,-281.01
6830,-3.8715,0.3396,0.1202,1883.06,766.24,-593.51
6840,-3.8713,0.3375,0.1230,-523.19,-608.76,593.93
6850,-3.8713,0.3275,0.1362,-788.82,-249.39,-1671.69
6860,-3.8713,0.3164,0.1508,1929.93,1438.11,-312.26
6870,-3.8712,0.3096,0.1627,508.06,-702.51,343.99
6880,-3.8712,0.3108,0.1744,-366.94,828.67,437.81
6890,-3.8712,0.3171,0.1849,-210.69,-1671.33,484.68
6900,-3.8712,0.3254,0.1957,601.81,-327.51,969.06
6910,-3.8712,0.3345,0.2089,1664.31,1047.49,1890.99
6920,-3.8712,0.3436,0.2207,-1179.44,-1265.01,-1062.13
6930,-3.8712,0.3485,0.2233,-7.57,250.61,-46.45
6940,-3.8711,0.3401,0.2174,617.43,578.80,1328.55
6950,-3.8711,0.3101,0.2139,-460.69,-171.26,-499.63
6960,-3.8710,0.2559,0.2169,-304.44,-624.45,-1530.88
6970,-3.8708,0.1908,0.2195,758.06,-233.89,1828.49
6980,-3.8707,0.1312,0.2131,429.93,94.12,922.30
6990,-3.8707,0.0837,0.1958,804.93,-718.51,-1187.13
7000,-3.8707,0.0483,0.1713,-1273.19,1062.62,-827.76
7010,-3.8707,0.0206,0.1482,-1804.44,1921.94,-1374.69
7020,-3.8707,-0.0065,0.1342,-1351.32,-1031.25,1937.74
7030,-3.8707,-0.0344,0.1251,-820.07,1187.44,1718.99
7040,-3.8707,-0.0547,0.1157,-398.19,31.13,-1906.01
7050,-3.8707,-0.0575,0.1069,1008.06,-1172.00,-1671.69
7060,-3.8707,-0.0447,0.1034,648.68,1703.00,1500.18
7070,-3.8708,-0.0276,0.1068,-1710.69,1249.88,-593.57
7080,-3.8708,-0.0116,0.1140,476.81,1687.44,390.81
7090,-3.8710,0.0028,0.1189,-1476.32,-1390.69,1140.81
7100,-3.8711,0.0150,0.1166,367.43,-781.25,-1546.69
7110,-3.8711,0.0234,0.1080,1929.93,-1078.12,578.31
7120,-3.8712,0.0234,0.0992,-991.94,1828.12,-702.94
7130,-3.8712,0.0093,0.0938,-991.94,703.12,-1452.94
7140,-3.8712,-0.0179,0.0900,1195.56,0.00,-1390.44
7150,-3.8712,-0.0480,0.0844,1711.18,-468.81,-624.88
7160,-3.8711,-0.0726,0.0723,1867.43,-1187.62,484.50
7170,-3.8711,-0.0908,0.0579,-1288.82,1265.44,1906.37
7180,-3.8711,-0.1045,0.0499,383.06,-578.31,-703.06
7190,-3.8710,-0.1155,0.0436,-1366.94,-1593.99,78.19
7200,-3.8710,-0.1191,0.0349,1226.81,1593.51,312.56
7210,-3.8710,-0.1129,0.0277,758.06,484.13,62.56
7220,-3.8711,-0.1000,0.0260,1554.93,-437.74,-484.38
7230,-3.8711,-0.0815,0.0299,-788.82,-656.49,-562.50
7240,-3.8710,-0.0597,0.0353,1570.56,-156.43,218.75
7250,-3.8710,-0.0372,0.0400,367.43,531.13,984.44
7260,-3.8710,-0.0117,0.0454,-757.57,1140.50,1046.94
7270,-3.8710,0.0164,0.0542,-1491.94,1828.06,625.06
7280,-3.8710,0.0417,0.0657,-1898.19,-1062.50,46.94
7290,-3.8711,0.0643,0.0790,1351.81,406.31,-343.63
7300,-3.8711,0.0870,0.0955,242.43,-1890.50,-484.25
7310,-3.8711,0.1113,0.1119,-851.32,218.87,-765.44
7320,-3.8711,0.1349,0.1241,-1741.94,-1671.69,-1109.19
7330,-3.8711,0.1533,0.1379,1273.68,-109.13,-1140.44
7340,-3.8711,0.1624,0.1550,-366.94,1656.49,-968.51
7350,-3.8711,0.1650,0.1637,789.31,-155.94,-1218.51
7360,-3.8711,0.1671,0.1572,1133.06,953.43,1875.31
7370,-3.8711,0.1654,0.1423,1398.68,125.31,734.68
7380,-3.8712,0.1592,0.1266,1179.93,-1780.94,-327.88
7390,-3.8712,0.1545,0.1090,383.06,203.43,-1484.13
7400,-3.8712,0.1548,0.0919,-210.69,1953.37,1656.43
7410,-3.8712,0.1514,0.0808,-179.44,-234.13,1203.25
7420,-3.8712,0.1416,0.0775,-616.94,-1656.01,1297.00
7430,-3.8712,0.1301,0.0840,-1866.94,1922.12,-1484.25
7440,-3.8711,0.1202,0.0984,664.31,-1249.76,422.00
7450,-3.8711,0.1165,0.1140,-601.32,593.93,-1734.19
7460,-3.8711,0.1221,0.1267,-1085.69,-1406.07,-202.94
7470,-3.8710,0.1337,0.1357,-366.94,218.93,437.74
7480,-3.8710,0.1454,0.1411,1117.43,1375.24,31.49
7490,-3.8711,0.1553,0.1450,-1382.57,-1937.26,-609.13
7500,-3.8711,0.1669,0.1500,-116.94,-1437.26,-1109.13
7510,-3.8711,0.1804,0.1534,1367.43,-796.57,-1812.26
7520,-3.8711,0.1949,0.1512,-898.19,-359.07,1218.99
7530,-3.8711,0.2128,0.1477,961.18,-640.26,297.12
7540,-3.8712,0.2308,0.1531,-757.57,-1093.38,-593.51
7550,-3.8712,0.2437,0.1655,1554.93,-405.82,-1562.26
7560,-3.8712,0.2511,0.1716,-804.44,1187.93,1765.93
7570,-3.8712,0.2560,0.1615,148.68,1969.24,1687.81
7580,-3.8712,0.2649,0.1484,773.68,672.36,969.06
7590,-3.8713,0.2854,0.1396,1914.31,-999.51,1890.87
7600,-3.8715,0.3143,0.1157,539.31,1875.55,1031.49
7610,-3.8716,0.3453,0.0881,242.43,-1186.89,1265.81
7620,-3.8717,0.3788,0.0868,211.18,-718.08,-31.13
7630,-3.8716,0.4095,0.1187,492.43,-889.89,1156.37
7640,-3.8715,0.4331,0.1622,429.93,-811.71,562.68
7650,-3.8713,0.4545,0.1779,-554.44,766.42,953.43
7660,-3.8712,0.4651,0.1533,-1820.07,-1233.52,1297.18
7670,-3.8711,0.4468,0.1139,-460.69,-374.15,922.12
7680,-3.8711,0.3995,0.0883,1195.56,-1421.02,-312.32
7690,-3.8710,0.3374,0.0845,-851.32,-702.39,-1921.75
7700,-3.8708,0.2836,0.0890,-804.44,-1186.89,578.25
7710,-3.8708,0.2507,0.0870,304.93,-608.83,-874.88
7720,-3.8707,0.2310,0.0780,101.81,-858.89,515.75
7730,-3.8708,0.2126,0.0621,1570.56,1984.80,-203.00
7740,-3.8708,0.1947,0.0397,-773.19,-46.51,1859.44
7750,-3.8708,0.1791,0.0188,929.93,1078.49,78.19
7760,-3.8710,0.1642,0.0072,-1070.07,-1593.44,-1343.75
7770,-3.8710,0.1462,0.0018,1023.68,922.18,1140.62
7780,-3.8711,0.1279,0.0005,-1273.19,234.62,-171.88
7790,-3.8711,0.1166,0.0056,383.06,62.74,-812.50
7800,-3.8711,0.1157,0.0140,-1070.07,718.93,-921.88
7810,-3.8710,0.1271,0.0206,-1179.44,1797.06,296.88
7820,-3.8710,0.1519,0.0244,273.68,-1359.13,-265.62
7830,-3.8707,0.1831,0.0265,-554.44,-874.76,109.38
7840,-3.8707,0.2079,0.0261,-554.44,-609.07,-1015.62
7850,-3.8707,0.2233,0.0231,-1382.57,-655.88,-1109.38
7860,-3.8707,0.2401,0.0149,586.18,-1046.45,296.88
7870,-3.8708,0.2604,-0.0020,-1257.57,1906.68,984.38
7880,-3.8710,0.2731,-0.0228,1336.18,-249.51,-1687.56
7890,-3.8710,0.2711,-0.0378,-1038.82,1078.61,390.56
7900,-3.8711,0.2563,-0.0422,-1288.82,-843.26,-562.62
7910,-3.8711,0.2362,-0.0375,820.56,-1405.76,-359.50
7920,-3.8710,0.2188,-0.0281,-1757.57,-796.45,343.63
7930,-3.8710,0.2095,-0.0194,8.06,406.68,624.94
7940,-3.8710,0.2113,-0.0106,-1179.44,1515.99,31.19
7950,-3.8711,0.2245,0.0006,-945.07,-1359.01,-1937.56
7960,-3.8712,0.2473,0.0073,742.43,78.55,-1328.12
7970,-3.8713,0.2668,0.0050,-335.69,937.93,-1265.62
7980,-3.8715,0.2734,0.0006,-1835.69,641.11,-1312.50
7990,-3.8716,0.2729,-0.0011,-991.94,78.61,-1234.38
8000,-3.8717,0.2682,-0.0018,-1054.44,-140.14,-15.69
8010,-3.8717,0.2615,-0.0034,-1663.82,-233.89,-1187.56
8020,-3.8717,0.2548,-0.0081,1476.81,-437.01,-1421.94
8030,-3.8717,0.2466,-0.0148,617.43,-1030.76,-1312.56
8040,-3.8717,0.2401,-0.0192,-429.44,-1890.20,-921.94
8050,-3.8717,0.2396,-0.0164,-1257.57,1547.30,-281.31
8060,-3.8716,0.2517,-0.0004,-1320.07,1906.68,1078.06
8070,-3.8716,0.2793,0.0273,226.81,-46.39,-406.31
8080,-3.8715,0.3165,0.0579,-241.94,-499.51,-796.88
8090,-3.8713,0.3521,0.0819,523.68,-593.14,-812.44
8100,-3.8712,0.3762,0.0902,1070.56,-1514.95,-1828.00
8110,-3.8712,0.3806,0.0793,164.31,-452.39,-499.88
8120,-3.8712,0.3668,0.0552,726.81,-1843.02,-1062.38
8130,-3.8712,0.3489,0.0308,-1038.82,-936.83,687.56
8140,-3.8713,0.3362,0.0148,664.31,-61.83,1546.88
8150,-3.8715,0.3269,0.0081,-960.69,1891.24,-1187.50
8160,-3.8715,0.3156,0.0054,1851.81,1031.86,1156.25
8170,-3.8715,0.3025,-0.0011,398.68,688.11,218.75
8180,-3.8716,0.2965,-0.0101,-1273.19,-140.08,-203.19
8190,-3.8716,0.3054,-0.0162,1961.18,-1296.33,-437.56
8200,-3.8716,0.3247,-0.0222,-898.19,1922.42,-1531.31
8210,-3.8716,0.3406,-0.0300,1570.56,1156.86,499.94
8220,-3.8717,0.3384,-0.0369,-398.19,156.86,-812.56
8230,-3.8717,0.3145,-0.0442,-679.44,-718.14,-359.50
8240,-3.8716,0.2727,-0.0502,258.06,-1655.64,1906.13
8250,-3.8715,0.2206,-0.0487,-1085.69,1578.61,1281.13
8260,-3.8713,0.1704,-0.0425,242.43,1766.05,1015.50
8270,-3.8712,0.1276,-0.0404,1820.56,-1437.19,843.63
8280,-3.8711,0.0891,-0.0433,336.18,-1171.63,624.88
8290,-3.8711,0.0552,-0.0480,-585.69,-1546.75,-328.25
8300,-3.8710,0.0316,-0.0524,-929.44,1859.44,1593.63
8310,-3.8710,0.0210,-0.0566,54.93,1296.94,-1172.00
8320,-3.8710,0.0248,-0.0602,-1304.44,750.00,-484.50
8330,-3.8710,0.0471,-0.0631,-820.07,296.88,-797.00
8340,-3.8710,0.0878,-0.0677,-1960.69,-78.06,1749.82
8350,-3.8711,0.1379,-0.0665,-757.57,-671.75,-15.81
8360,-3.8711,0.1794,-0.0531,1664.31,-515.38,-1640.81
8370,-3.8711,0.1968,-0.0350,-1023.19,1203.43,1031.13
8380,-3.8711,0.1918,-0.0181,1195.56,-484.01,62.38
8390,-3.8712,0.1808,-0.0033,554.93,1687.87,-765.69
8400,-3.8712,0.1814,0.0052,-851.32,-421.57,-1281.31
8410,-3.8712,0.1964,0.0072,-773.19,672.18,-1406.25
8420,-3.8712,0.2203,0.0040,1148.68,922.24,-1703.12
8430,-3.8712,0.2462,-0.0024,211.18,516.05,1484.38
8440,-3.8712,0.2601,-0.0083,-476.32,-312.07,859.31
8450,-3.8712,0.2526,-0.0142,1304.93,-1062.01,906.19
8460,-3.8712,0.2347,-0.0242,336.18,-1812.01,1406.19
8470,-3.8712,0.2179,-0.0388,-1945.07,906.68,1718.69
8480,-3.8712,0.1987,-0.0442,-101.32,-968.38,1359.25
8490,-3.8712,0.1823,-0.0342,1445.56,-1655.88,468.63
8500,-3.8713,0.1768,-0.0222,-663.82,-374.69,-515.75
8510,-3.8713,0.1814,-0.0165,-1366.94,1156.56,-1406.31
8520,-3.8713,0.1940,-0.0134,-773.19,1890.93,1499.94
8530,-3.8713,0.2148,-0.0085,836.18,-1718.38,453.06
8540,-3.8715,0.2385,-0.0002,-491.94,-1093.38,-46.94
8550,-3.8713,0.2587,0.0084,-1460.69,-30.82,78.06
8560,-3.8713,0.2742,0.0209,1117.43,1078.61,1078.12
8570,-3.8713,0.2839,0.0485,-898.19,-1327.64,-906.25
8580,-3.8712,0.2881,0.0886,351.81,-1796.33,1890.69
8590,-3.8711,0.2897,0.1218,883.06,-655.70,1250.12
8600,-3.8710,0.2859,0.1354,1086.18,-405.70,484.56
8610,-3.8710,0.2742,0.1307,601.81,1328.67,-1624.76
8620,-3.8710,0.2620,0.1158,-898.19,734.86,1968.99
8630,-3.8711,0.2579,0.0988,1539.31,-1171.39,-390.44
8640,-3.8711,0.2615,0.0836,1023.68,641.11,468.93
8650,-3.8712,0.2683,0.0686,1476.81,-1296.39,1640.75
8660,-3.8713,0.2762,0.0562,-1648.19,781.74,-203.00
8670,-3.8713,0.2861,0.0544,-632.57,-812.01,-749.94
8680,-3.8712,0.2957,0.0659,633.06,-1030.70,171.94
8690,-3.8712,0.2994,0.0895,1851.81,438.05,-1406.13
8700,-3.8711,0.2961,0.1191,-1663.82,-546.33,-1953.00
8710,-3.8710,0.2860,0.1418,1914.31,-749.45,-1827.94
8720,-3.8708,0.2701,0.1447,617.43,-1843.20,-1952.88
8730,-3.8708,0.2515,0.1250,-1413.82,-1483.89,-46.63
8740,-3.8708,0.2333,0.0933,195.56,0.49,-1218.51
8750,-3.8710,0.2189,0.0592,1867.43,-62.07,-1187.38
8760,-3.8711,0.2174,0.0309,23.68,-421.45,1781.31
8770,-3.8712,0.2297,0.0210,-163.82,-46.51,-1968.75
8780,-3.8712,0.2466,0.0386,1414.31,-1312.07,1078.12
8790,-3.8712,0.2628,0.0765,-429.44,937.93,-781.19
8800,-3.8711,0.2740,0.1162,1648.68,1797.36,-515.50
8810,-3.8710,0.2786,0.1415,-913.82,-1124.51,-374.82
8820,-3.8708,0.2793,0.1500,-335.69,-1890.14,1703.37
8830,-3.8708,0.2799,0.1473,-241.94,-796.39,1359.62
8840,-3.8710,0.2831,0.1377,-163.82,-1140.14,-656.01
8850,-3.8710,0.2896,0.1254,242.43,1625.55,906.49
8860,-3.8711,0.3011,0.1133,1070.56,47.42,-1452.88
8870,-3.8711,0.3181,0.1066,-1445.07,-1499.45,547.06
8880,-3.8712,0.3383,0.1112,726.81,1641.24,-687.32
8890,-3.8712,0.3571,0.1265,-695.07,-1765.01,-1187.32
8900,-3.8712,0.3712,0.1469,1711.18,188.17,-1390.38
8910,-3.8712,0.3823,0.1678,-476.32,-1202.45,-1749.76
8920,-3.8712,0.3879,0.1814,945.56,1485.11,1672.18
8930,-3.8712,0.3856,0.1821,1664.31,-780.52,875.31
8940,-3.8713,0.3793,0.1731,1367.43,-686.77,-343.44
8950,-3.8713,0.3701,0.1613,554.93,-1843.02,1984.68
8960,-3.8713,0.3567,0.1514,-616.94,641.30,453.43
8970,-3.8715,0.3357,0.1443,1664.31,-624.33,-296.63
8980,-3.8713,0.3032,0.1409,-1023.19,-1530.64,0.24
8990,-3.8713,0.2633,0.1392,-1179.44,-1968.20,1172.12
9000,-3.8713,0.2261,0.1342,1711.18,1812.99,-1421.63
9010,-3.8713,0.1981,0.1233,945.56,1172.30,-687.26
9020,-3.8713,0.1803,0.1064,1367.43,-218.38,-1171.69
9030,-3.8713,0.1737,0.0891,-913.82,1625.31,1406.43
9040,-3.8713,0.1752,0.0778,-1757.57,-593.44,31.37
9050,-3.8715,0.1746,0.0724,-1570.07,1953.43,-281.13
9060,-3.8713,0.1650,0.0691,-1648.19,1265.93,718.87
9070,-3.8713,0.1453,0.0642,1133.06,844.06,-1531.13
9080,-3.8712,0.1204,0.0597,-1398.19,218.99,15.75
9090,-3.8712,0.0974,0.0542,-585.69,-359.19,671.94
9100,-3.8712,0.0813,0.0493,476.81,-1062.32,906.31
9110,-3.8712,0.0723,0.0519,-1585.69,-1687.38,1359.44
9120,-3.8712,0.0690,0.0546,1258.06,-1359.25,1828.19
9130,-3.8712,0.0706,0.0492,836.18,-1015.50,-1765.56
9140,-3.8712,0.0740,0.0405,1039.31,-1703.00,-1593.69
9150,-3.8712,0.0770,0.0332,1476.81,1187.62,-1687.44
9160,-3.8712,0.0797,0.0314,1867.43,250.12,-1531.19
9170,-3.8712,0.0791,0.0360,-1788.82,15.75,-828.06
9180,-3.8711,0.0750,0.0427,-1866.94,609.50,156.31
9190,-3.8711,0.0731,0.0492,1601.81,1468.87,1312.56
9200,-3.8711,0.0767,0.0553,1367.43,-1703.00,-1749.94
9210,-3.8711,0.0837,0.0610,1820.56,-921.75,-1312.44
9220,-3.8711,0.0930,0.0684,-1273.19,-187.38,-968.69
9230,-3.8711,0.1051,0.0782,-85.69,750.12,-265.50
9240,-3.8710,0.1171,0.0928,1461.18,-1984.19,1015.75
9250,-3.8710,0.1226,0.1074,-1007.57,-124.82,-1703.00
9260,-3.8710,0.1254,0.1149,-304.44,1750.18,-1093.57
9270,-3.8710,0.1292,0.1163,54.93,-1296.63,-1265.44
9280,-3.8710,0.1305,0.1172,539.31,-1109.13,1703.31
9290,-3.8711,0.1292,0.1211,711.18,-999.76,-124.82
9300,-3.8711,0.1284,0.1260,539.31,-499.76,-1859.19
9310,-3.8711,0.1283,0.1326,445.56,125.24,1328.37
9320,-3.8711,0.1278,0.1405,429.93,968.99,1140.87
9330,-3.8711,0.1289,0.1454,367.43,1984.62,1015.87
9340,-3.8711,0.1340,0.1471,508.06,-1390.38,843.99
9350,-3.8711,0.1403,0.1462,1164.31,-1171.63,672.12
9360,-3.8711,0.1416,0.1414,1961.18,-1281.01,281.49
9370,-3.8712,0.1373,0.1326,-1866.94,-1906.01,-640.38
9380,-3.8712,0.1333,0.1233,1586.18,968.99,-1859.13
9390,-3.8712,0.1335,0.1188,1070.56,-218.51,1218.93
9400,-3.8712,0.1356,0.1211,1101.81,-796.63,1047.06
9410,-3.8712,0.1383,0.1283,1367.43,-499.76,1859.56
9420,-3.8712,0.1438,0.1367,1711.18,422.12,-859.13
9430,-3.8711,0.1526,0.1456,-1585.69,1500.24,468.99
9440,-3.8711,0.1644,0.1536,-460.69,-1359.13,1859.62
9450,-3.8711,0.1805,0.1541,1054.93,-343.44,-1234.13
9460,-3.8711,0.1997,0.1454,-882.57,-280.94,-1452.88
9470,-3.8711,0.2190,0.1321,1570.56,-1390.26,1093.99
9480,-3.8712,0.2379,0.1198,39.31,906.68,-999.76
9490,-3.8712,0.2574,0.1121,-1538.82,-671.45,1547.06
9500,-3.8712,0.2765,0.1115,961.18,-1655.76,1515.81
9510,-3.8712,0.2920,0.1167,-601.32,-1733.89,-1452.94
9520,-3.8712,0.3038,0.1224,1383.06,-1061.95,-234.19
9530,-3.8711,0.3146,0.1249,-1101.32,-327.58,875.18
9540,-3.8711,0.3265,0.1256,273.68,-15.01,1922.06
9550,-3.8711,0.3368,0.1273,1804.93,78.74,-1327.88
9560,-3.8711,0.3416,0.1300,-882.57,297.49,-843.51
9570,-3.8711,0.3400,0.1318,-273.19,641.24,-281.01
9580,-3.8710,0.3322,0.1279,-476.32,875.61,218.99
9590,-3.8710,0.3202,0.1176,-1476.32,375.61,578.37
9600,-3.8710,0.3064,0.1127,992.43,-952.51,1547.06
9610,-3.8710,0.2902,0.1248,-773.19,-1577.58,-437.32
9620,-3.8708,0.2734,0.1477,1148.68,-30.70,-1781.07
9630,-3.8707,0.2637,0.1675,-991.94,-1093.26,890.87
9640,-3.8707,0.2634,0.1782,1758.06,1437.99,-1077.82
9650,-3.8707,0.2693,0.1780,1726.81,-1187.01,-312.19
9660,-3.8707,0.2795,0.1666,-1523.19,-1218.26,-1062.19
9670,-3.8707,0.2937,0.1493,-210.69,1328.61,547.18
9680,-3.8708,0.3104,0.1315,1601.81,-890.08,1000.24
9690,-3.8710,0.3237,0.1177,-257.57,828.67,1437.74
9700,-3.8711,0.3245,0.1102,1445.56,-936.89,-1109.19
9710,-3.8711,0.3098,0.1058,1539.31,-1890.01,1281.43
9720,-3.8712,0.2866,0.0980,-335.69,1547.42,-249.82
9730,-3.8712,0.2640,0.0846,695.56,547.42,1937.68
9740,-3.8713,0.2478,0.0674,1804.93,-1171.39,-93.63
9750,-3.8713,0.2360,0.0496,-273.19,625.43,1578.25
9760,-3.8715,0.2242,0.0322,-1788.82,-1655.82,-1281.19
9770,-3.8716,0.2112,0.0153,711.18,125.43,-906.19
9780,-3.8717,0.1974,-0.0005,-960.69,1953.49,-468.75
9790,-3.8717,0.1884,-0.0090,1273.68,-62.13,1890.56
9800,-3.8717,0.1849,-0.0024,117.43,-1155.88,-703.19
9810,-3.8716,0.1818,0.0214,-320.07,-312.19,-843.81
9820,-3.8715,0.1827,0.0538,-726.32,-1265.32,-296.88
9830,-3.8712,0.2001,0.0842,-601.32,-1109.07,0.06
9840,-3.8712,0.2356,0.1083,1617.43,-1218.38,-312.38
9850,-3.8711,0.2859,0.1235,-1835.69,1859.80,1859.56
9860,-3.8711,0.3448,0.1274,601.81,-186.95,1906.43
9870,-3.8711,0.3961,0.1191,148.68,313.17,343.99
9880,-3.8712,0.4309,0.1012,-1288.82,-749.27,1734.56
9890,-3.8713,0.4489,0.0850,-835.69,953.92,-874.82
9900,-3.8713,0.4467,0.0775,1461.18,-1124.15,1531.37
9910,-3.8713,0.4249,0.0756,1179.93,1922.73,640.75
9920,-3.8715,0.3909,0.0702,-1601.32,1672.67,-390.50
9930,-3.8715,0.3583,0.0598,-1960.69,985.11,-1531.13
9940,-3.8715,0.3400,0.0499,1867.43,-343.08,1468.81
9950,-3.8715,0.3364,0.0411,-476.32,-1608.76,343.81
9960,-3.8716,0.3419,0.0303,-929.44,1266.24,-1062.44
9970,-3.8716,0.3496,0.0184,-226.32,-124.39,1593.75
9980,-3.8716,0.3533,0.0099,758.06,-1639.95,609.38
9990,-3.8716,0.3511,0.0066,1226.81,1266.30,312.50
10000,-3.8716,0.3470,0.0087,945.56,844.42,890.62
10010,-3.8716,0.3468,0.0168,429.93,1110.05,1968.75
10020,-3.8716,0.3511,0.0297,398.68,-1843.08,-875.00
10030,-3.8715,0.3590,0.0426,945.56,-202.45,468.75
10040,-3.8715,0.3683,0.0542,1961.18,1453.80,-1828.06
10050,-3.8713,0.3738,0.0662,-851.32,-1061.83,109.44
10060,-3.8713,0.3754,0.0748,-148.19,469.42,1562.62
10070,-3.8713,0.3772,0.0737,54.93,1578.86,1843.87
10080,-3.8713,0.3799,0.0640,289.31,1438.23,1312.62
10090,-3.8713,0.3812,0.0488,633.06,188.23,422.00
10100,-3.8715,0.3776,0.0325,804.93,-1749.27,-765.56
10110,-3.8715,0.3644,0.0217,336.18,156.98,-1765.56
10120,-3.8715,0.3416,0.0200,-1351.32,-1218.08,-1781.25
10130,-3.8715,0.3135,0.0221,-273.19,-1436.89,-765.62
10140,-3.8713,0.2866,0.0204,133.06,-1171.26,468.75
10150,-3.8713,0.2697,0.0137,695.56,-1390.08,1421.88
10160,-3.8713,0.2644,0.0061,-1476.32,1750.49,1906.25
10170,-3.8713,0.2657,0.0006,1851.81,781.74,1843.75
10180,-3.8713,0.2677,-0.0024,-1976.32,78.61,1578.12
10190,-3.8713,0.2651,-0.0011,-1726.32,-312.01,1593.69
10200,-3.8713,0.2556,0.0067,1945.56,-140.14,-1562.56
10210,-3.8712,0.2432,0.0179,726.81,859.86,359.38
10220,-3.8712,0.2373,0.0270,-866.94,-1702.70,-1125.00
10230,-3.8711,0.2411,0.0338,-1616.94,-546.45,1000.00
10240,-3.8711,0.2484,0.0387,-1132.57,328.55,-1937.44
10250,-3.8711,0.2585,0.0402,-195.07,953.55,-1765.56
10260,-3.8711,0.2732,0.0425,1101.81,1141.11,-1812.44
10270,-3.8711,0.2860,0.0488,-1023.19,1437.99,-1906.19
10280,-3.8711,0.2938,0.0569,617.43,-1749.45,-1999.94
10290,-3.8711,0.2949,0.0658,1617.43,-718.20,-1812.44
10300,-3.8711,0.2858,0.0747,1758.06,422.42,-1218.63
10310,-3.8711,0.2677,0.0846,586.18,1563.05,-421.75
10320,-3.8710,0.2448,0.0979,-1726.32,-1171.39,328.25
10330,-3.8710,0.2249,0.1086,-663.82,531.68,781.43
10340,-3.8710,0.2166,0.1136,789.31,1906.68,781.43
10350,-3.8710,0.2169,0.1110,-273.19,-1452.76,109.56
10360,-3.8711,0.2185,0.1025,-226.32,-1796.51,-1312.32
10370,-3.8711,0.2222,0.0974,-23.19,1125.37,1078.31
10380,-3.8712,0.2303,0.0967,445.56,469.18,-187.32
10390,-3.8712,0.2408,0.0988,1492.43,375.43,-1156.07
10400,-3.8712,0.2466,0.1045,-1163.82,641.05,1968.93
10410,-3.8712,0.2463,0.1134,-429.44,1375.43,1390.81
10420,-3.8712,0.2422,0.1239,-460.69,-1483.95,1390.81
10430,-3.8712,0.2368,0.1327,-991.94,-140.20,1734.56
10440,-3.8712,0.2362,0.1353,-1679.44,984.80,-1921.63
10450,-3.8712,0.2417,0.1316,-1757.57,1312.93,-1765.38
10460,-3.8712,0.2504,0.1234,-1054.44,844.18,1703.37
10470,-3.8712,0.2567,0.1113,54.93,-202.64,797.06
10480,-3.8712,0.2562,0.0980,867.43,-1749.51,406.43
10490,-3.8712,0.2517,0.0868,804.93,547.36,218.93
10500,-3.8713,0.2473,0.0784,226.81,-890.14,-156.13
10510,-3.8713,0.2448,0.0742,-335.69,-1968.32,-374.88
10520,-3.8713,0.2430,0.0769,-663.82,1500.43,-62.38
10530,-3.8712,0.2419,0.0864,-882.57,1844.18,750.12
10540,-3.8712,0.2417,0.1001,-1023.19,-937.07,1781.37
10550,-3.8712,0.2404,0.1151,-1054.44,812.93,-1218.57
10560,-3.8712,0.2375,0.1270,-1226.32,-1265.20,-609.19
10570,-3.8712,0.2341,0.1335,-1585.69,250.43,-468.51
10580,-3.8712,0.2325,0.1342,1976.81,1094.18,-765.38
10590,-3.8712,0.2351,0.1299,1773.68,1172.30,-1343.51
10600,-3.8712,0.2390,0.1260,-1898.19,625.43,-1531.01
10610,-3.8712,0.2401,0.1240,-1398.19,125.43,-999.76
10620,-3.8712,0.2380,0.1259,-1257.57,-124.57,-234.19
10630,-3.8711,0.2341,0.1295,-1523.19,109.80,343.99
10640,-3.8711,0.2303,0.1296,1976.81,578.55,765.87
10650,-3.8711,0.2272,0.1285,1492.43,594.18,828.37
10660,-3.8711,0.2222,0.1282,1086.18,453.55,390.87
10670,-3.8711,0.2167,0.1292,445.56,406.68,140.87
10680,-3.8711,0.2128,0.1351,-257.57,531.62,1140.87
10690,-3.8711,0.2075,0.1472,-757.57,1297.24,-312.26
10700,-3.8710,0.1993,0.1605,-1429.44,-1155.88,-1156.01
10710,-3.8708,0.1891,0.1663,1523.68,547.24,1265.93
10720,-3.8708,0.1802,0.1598,211.18,1281.62,-1655.94
10730,-3.8708,0.1744,0.1489,-929.44,453.43,-1874.69
10740,-3.8708,0.1738,0.1440,-1663.82,-937.19,890.87
10750,-3.8710,0.1802,0.1464,-1741.94,-1562.19,-859.13
10760,-3.8710,0.1903,0.1543,-929.44,-1265.32,1390.87
10770,-3.8710,0.1995,0.1624,367.43,-249.63,31.49
10780,-3.8711,0.2057,0.1686,1539.31,781.62,-359.07
10790,-3.8710,0.2079,0.1777,-1663.82,1578.49,359.68
10800,-3.8710,0.2042,0.1847,-1382.57,-1249.63,1734.68
10810,-3.8710,0.1901,0.1853,-1851.32,-359.01,-405.94
10820,-3.8708,0.1625,0.1841,336.18,-280.88,1609.68
10830,-3.8708,0.1290,0.1838,804.93,-437.19,-843.44
10840,-3.8708,0.1039,0.1879,523.68,-468.51,-93.44
10850,-3.8708,0.0905,0.1910,1304.93,47.06,-780.88
10860,-3.8708,0.0837,0.1818,-413.82,453.25,640.99
10870,-3.8710,0.0836,0.1595,-1273.19,-734.25,750.31
10880,-3.8711,0.0875,0.1329,-1288.82,422.00,328.43
10890,-3.8712,0.0841,0.1088,-788.82,1015.75,437.74
10900,-3.8713,0.0659,0.0913,-1226.32,1922.00,-1656.07
10910,-3.8713,0.0355,0.0784,445.56,-312.38,1937.62
10920,-3.8713,-0.0023,0.0629,554.93,-1968.69,-1578.00
10930,-3.8713,-0.0416,0.0491,-288.82,62.44,-328.00
10940,-3.8712,-0.0750,0.0472,-1320.07,-1703.25,1671.94
10950,-3.8712,-0.1031,0.0505,-1585.69,-1937.68,-234.31
10960,-3.8711,-0.1351,0.0431,-1195.07,-1515.87,1578.19
10970,-3.8711,-0.1709,0.0201,-1288.82,1530.94,-624.94
10980,-3.8710,-0.2025,-0.0024,-1866.94,-1406.62,1156.25
10990,-3.8710,-0.2278,-0.0109,-1913.82,-297.30,-1375.06
11000,-3.8710,-0.2479,-0.0065,-1148.19,-1375.49,-0.06
11010,-3.8708,-0.2584,0.0050,273.68,-812.99,937.44
11020,-3.8708,-0.2546,0.0164,-1070.07,655.70,1062.50
11030,-3.8708,-0.2349,0.0251,-585.69,-1891.17,921.88
11040,-3.8708,-0.1880,0.0430,1945.56,-766.11,1343.75
11050,-3.8708,-0.1155,0.0754,-54.44,1515.20,-1921.81
11060,-3.8708,-0.0355,0.1168,1226.81,1671.63,-1171.75
11070,-3.8708,0.0394,0.1578,-538.82,-1031.37,-312.32
11080,-3.8708,0.1034,0.1870,1054.93,203.19,-202.82
11090,-3.8708,0.1520,0.1989,1242.43,-62.32,-1452.82
11100,-3.8708,0.1880,0.2002,-538.82,1453.37,187.87
11110,-3.8710,0.2063,0.1971,70.56,1625.37,1187.87
11120,-3.8711,0.2053,0.1910,-1585.69,1234.74,-1749.63
11130,-3.8711,0.1971,0.1874,-1710.69,453.49,187.87
11140,-3.8712,0.1910,0.1892,1242.43,-15.26,-1124.69
11150,-3.8712,0.1925,0.1920,461.18,219.12,1906.62
11160,-3.8712,0.2013,0.1918,648.68,578.49,1250.37
11170,-3.8712,0.2155,0.1901,1773.68,547.24,672.24
11180,-3.8713,0.2327,0.1882,-413.82,328.49,-202.76
11190,-3.8713,0.2522,0.1890,1789.31,94.18,-1187.13
11200,-3.8713,0.2712,0.1912,289.31,187.99,-1749.63
11210,-3.8713,0.2845,0.1891,-1273.19,469.24,-1765.26
11220,-3.8713,0.2902,0.1796,429.93,203.67,-1327.76
11230,-3.8713,0.2874,0.1652,1148.68,-1015.08,-765.32
11240,-3.8713,0.2767,0.1481,789.31,1141.17,-812.19
11250,-3.8713,0.2604,0.1279,-570.07,-1046.39,-1687.26
11260,-3.8713,0.2428,0.1094,1336.18,375.49,1468.99
11270,-3.8713,0.2272,0.1012,-913.82,-1999.57,1500.18
11280,-3.8713,0.2129,0.1005,1086.18,953.55,-1343.57
11290,-3.8712,0.2000,0.0969,-741.94,859.74,937.68
11300,-3.8711,0.1859,0.0895,1601.81,406.62,187.68
11310,-3.8711,0.1688,0.0829,-195.07,-546.57,-296.75
11320,-3.8710,0.1482,0.0828,1617.43,-1390.32,-734.25
11330,-3.8708,0.1222,0.0917,-1023.19,-1406.01,-1031.13
11340,-3.8707,0.0934,0.1094,-351.32,-265.44,-1062.38
11350,-3.8706,0.0692,0.1316,-38.82,-1999.88,-999.82
11360,-3.8705,0.0544,0.1467,867.43,843.87,-1843.51
11370,-3.8705,0.0552,0.1458,-1023.19,-1218.69,-796.63
11380,-3.8705,0.0754,0.1315,-929.44,-1343.69,1672.12
11390,-3.8706,0.1104,0.1143,1664.31,828.25,-1702.88
11400,-3.8707,0.1520,0.1066,-1866.94,-1374.82,-1296.69
11410,-3.8707,0.1953,0.1145,-538.82,1640.87,156.43
11420,-3.8708,0.2351,0.1349,1008.06,-1343.38,-1109.19
11430,-3.8708,0.2706,0.1593,-1898.19,1266.05,-1484.13
11440,-3.8708,0.3090,0.1846,-1351.32,391.11,-890.32
11450,-3.8708,0.3501,0.1967,-445.07,-374.45,-62.19
11460,-3.8708,0.3835,0.1798,820.56,1172.55,-702.76
11470,-3.8708,0.4059,0.1448,1101.81,-983.64,484.68
11480,-3.8711,0.4161,0.1108,-38.82,-1468.02,-374.76
11490,-3.8712,0.4133,0.0834,1273.68,-1811.71,1078.31
11500,-3.8715,0.4017,0.0527,914.31,-1327.33,1734.50
11510,-3.8716,0.3833,0.0188,-570.07,-1249.27,62.56
11520,-3.8717,0.3560,-0.0022,1070.56,-1593.02,-1921.88
11530,-3.8717,0.3248,0.0017,1570.56,-280.58,-562.56
11540,-3.8716,0.3070,0.0221,1586.18,219.36,-1421.88
11550,-3.8715,0.3104,0.0470,-695.07,-1171.33,-1078.12
11560,-3.8713,0.3242,0.0719,-257.57,-1983.83,-187.44
11570,-3.8712,0.3341,0.0880,1508.06,1203.74,-624.88
11580,-3.8711,0.3341,0.0874,-1226.32,-733.76,312.62
11590,-3.8712,0.3243,0.0670,-1226.32,-811.89,-1812.38
11600,-3.8713,0.3143,0.0322,1523.68,578.74,1125.12
11610,-3.8716,0.3156,-0.0052,242.43,125.61,-1624.94
11620,-3.8717,0.3226,-0.0355,398.68,-671.26,968.69
11630,-3.8718,0.3188,-0.0509,1304.93,-546.26,-1015.75
11640,-3.8717,0.3037,-0.0470,820.56,1484.99,46.75
11650,-3.8717,0.2916,-0.0287,-1116.94,1984.92,-968.87
11660,-3.8716,0.2889,-0.0076,1336.18,328.67,-1359.44
11670,-3.8715,0.2947,0.0088,992.43,-968.20,-1781.31
11680,-3.8713,0.3059,0.0189,1726.81,1125.55,1453.12
11690,-3.8713,0.3152,0.0219,-835.69,-1577.58,-500.00
11700,-3.8713,0.3159,0.0150,351.81,-1202.51,-796.88
11710,-3.8713,0.3113,-0.0060,445.56,1922.49,375.00
11720,-3.8715,0.3121,-0.0350,-148.19,-765.08,734.31
11730,-3.8716,0.3231,-0.0521,-38.82,-483.83,-1797.00
11740,-3.8716,0.3385,-0.0507,1367.43,1328.74,1281.13
11750,-3.8716,0.3528,-0.0413,-663.82,1516.24,1609.25
11760,-3.8716,0.3669,-0.0326,1164.31,-1280.58,-1031.37
11770,-3.8715,0.3827,-0.0245,-1023.19,-171.20,874.88
11780,-3.8715,0.4015,-0.0101,992.43,860.11,-1265.69
11790,-3.8713,0.4236,0.0110,-601.32,-1296.14,578.06
11800,-3.8713,0.4454,0.0289,-1773.19,1407.04,-1218.75
11810,-3.8712,0.4635,0.0370,1023.68,-296.02,750.00
11820,-3.8712,0.4771,0.0375,-663.82,735.23,1109.44
11830,-3.8713,0.4885,0.0339,1070.56,797.79,-468.69
11840,-3.8713,0.5029,0.0273,-1460.69,344.67,1015.69
11850,-3.8715,0.5186,0.0206,383.06,-499.02,-1250.00
11860,-3.8715,0.5284,0.0153,-1616.94,-1358.40,812.50
11870,-3.8716,0.5295,0.0078,-351.32,1954.10,-1281.25
11880,-3.8716,0.5243,0.0015,-210.69,1000.98,937.50
11890,-3.8716,0.5115,0.0033,-882.57,188.48,390.62
11900,-3.8716,0.4879,0.0092,1476.81,422.85,1031.25
11910,-3.8716,0.4585,0.0066,-1538.82,1172.79,-1968.75
11920,-3.8716,0.4305,-0.0084,-1304.44,844.60,-1562.50
11930,-3.8716,0.4087,-0.0280,-882.57,-1077.33,1734.31
11940,-3.8716,0.3929,-0.0430,320.56,422.67,109.31
11950,-3.8717,0.3833,-0.0491,-1695.07,-1499.27,-1718.87
11960,-3.8717,0.3796,-0.0463,1070.56,1719.48,1109.25
11970,-3.8717,0.3829,-0.0366,601.81,-1921.14,1203.00
11980,-3.8717,0.3926,-0.0233,1023.68,-686.77,-1656.37
11990,-3.8717,0.4047,-0.0103,-1741.94,1016.36,-281.31
12000,-3.8716,0.4176,0.0017,-195.07,-1311.77,781.19
12010,-3.8716,0.4310,0.0121,1461.18,219.54,1500.00
12020,-3.8716,0.4398,0.0186,-820.07,1547.67,-1828.12
12030,-3.8716,0.4401,0.0217,304.93,-1624.15,-890.62
12040,-3.8715,0.4280,0.0250,336.18,-1217.90,750.00
12050,-3.8715,0.3993,0.0311,-1210.69,-796.08,-546.88
12060,-3.8713,0.3595,0.0366,-882.57,-14.89,-1609.38
12070,-3.8712,0.3203,0.0376,-1976.32,688.17,562.56
12080,-3.8712,0.2878,0.0372,1008.06,813.11,1859.44
12090,-3.8712,0.2634,0.0367,851.81,766.17,-1328.06
12100,-3.8712,0.2487,0.0360,1726.81,703.61,-593.69
12110,-3.8711,0.2452,0.0371,-163.82,609.80,562.56
12120,-3.8711,0.2468,0.0420,-601.32,750.43,-1468.69
12130,-3.8710,0.2445,0.0490,-398.19,1375.43,781.31
12140,-3.8710,0.2377,0.0559,-695.07,-1733.95,-1874.94
12150,-3.8710,0.2317,0.0654,-1570.07,-843.32,-1999.94
12160,-3.8710,0.2316,0.0753,1664.31,375.43,125.12
12170,-3.8711,0.2434,0.0812,1648.68,1641.05,437.62
12180,-3.8713,0.2745,0.0872,-835.69,-1608.95,-140.50
12190,-3.8715,0.3225,0.0986,-851.32,-843.26,-515.50
12200,-3.8715,0.3740,0.1184,1289.31,625.61,281.43
12210,-3.8716,0.4142,0.1448,-116.94,-843.08,-1062.32
12220,-3.8716,0.4336,0.1721,1023.68,-1467.96,-109.13
12230,-3.8715,0.4319,0.1913,-491.94,-1967.96,-1046.57
12240,-3.8713,0.4155,0.1956,-710.69,485.17,-1296.51
12250,-3.8712,0.3860,0.1891,1195.56,1032.04,1406.62
12260,-3.8712,0.3456,0.1787,1414.31,203.86,-1655.88
12270,-3.8712,0.3038,0.1653,242.43,-1124.33,-1952.82
12280,-3.8712,0.2684,0.1503,-1101.32,1156.80,1500.31
12290,-3.8712,0.2407,0.1388,-1632.57,-765.14,1718.99
12300,-3.8712,0.2144,0.1360,-1179.44,1766.05,-499.76
12310,-3.8711,0.1866,0.1438,-554.44,1406.62,-1031.01
12320,-3.8710,0.1617,0.1567,-101.32,-1593.44,-687.26
12330,-3.8708,0.1429,0.1699,711.18,62.81,-765.32
12340,-3.8707,0.1322,0.1819,-1695.07,1750.24,1484.68
12350,-3.8707,0.1300,0.1890,929.93,-718.51,1359.68
12360,-3.8708,0.1373,0.1871,648.68,187.74,-530.88
12370,-3.8708,0.1541,0.1782,1586.18,-46.63,875.31
12380,-3.8710,0.1743,0.1672,-273.19,-1187.26,-1015.32
12390,-3.8710,0.1874,0.1639,-1679.44,1406.56,-1468.44
12400,-3.8710,0.1838,0.1713,-7.57,984.68,-1249.69
12410,-3.8710,0.1692,0.1791,-460.69,1922.18,-1499.69
12420,-3.8710,0.1605,0.1835,1664.31,-1077.82,1328.43
12430,-3.8711,0.1636,0.1865,554.93,-515.32,-718.44
12440,-3.8711,0.1727,0.1870,945.56,-124.69,500.31
12450,-3.8712,0.1859,0.1788,-1882.57,-62.19,1437.81
12460,-3.8713,0.2028,0.1611,-195.07,-1109.07,-859.07
12470,-3.8713,0.2200,0.1431,1961.18,625.37,-1859.07
12480,-3.8713,0.2318,0.1273,164.31,-1687.07,-1952.88
12490,-3.8713,0.2349,0.1165,1679.93,297.30,-1624.76
12500,-3.8713,0.2296,0.1163,-1929.44,-1093.32,-1171.69
12510,-3.8713,0.2217,0.1216,1398.68,-1108.95,-874.82
12520,-3.8713,0.2190,0.1205,383.06,-437.07,-968.57
12530,-3.8713,0.2250,0.1104,39.31,-577.70,-1327.94
12540,-3.8713,0.2379,0.0985,804.93,-1874.57,1750.18
12550,-3.8713,0.2510,0.0944,-1538.82,609.80,343.93
12560,-3.8715,0.2568,0.1007,133.06,78.61,-343.57
12570,-3.8713,0.2562,0.1099,883.06,891.11,359.56
12580,-3.8713,0.2549,0.1163,804.93,-1937.01,-1734.19
12590,-3.8712,0.2533,0.1228,633.06,-1108.89,1125.18
12600,-3.8711,0.2515,0.1335,429.93,-280.76,500.18
12610,-3.8711,0.2529,0.1486,195.56,1094.24,-452.88
12620,-3.8710,0.2572,0.1636,383.06,-983.89,1562.74
12630,-3.8710,0.2593,0.1774,929.93,937.99,-1640.32
12640,-3.8710,0.2583,0.1912,1195.56,-1296.39,-1874.69
12650,-3.8710,0.2596,0.2025,1070.56,469.24,1297.24
12660,-3.8710,0.2646,0.2095,1242.43,1922.36,359.74
12670,-3.8711,0.2694,0.2103,1883.06,-1187.01,-593.38
12680,-3.8711,0.2706,0.2061,-1507.57,-1077.64,-1109.01
12690,-3.8711,0.2645,0.2021,-1351.32,-1624.51,-390.26
12700,-3.8710,0.2457,0.2053,1867.43,1875.49,1562.87
12710,-3.8710,0.2136,0.2124,-538.82,-1718.32,-109.01
12720,-3.8708,0.1759,0.2120,-648.19,-812.13,1828.49
12730,-3.8708,0.1398,0.1987,-1476.32,-859.07,-1187.13
12740,-3.8708,0.1093,0.1759,1898.68,1437.74,-1609.01
12750,-3.8708,0.0846,0.1516,1992.43,-1484.19,562.81
12760,-3.8710,0.0647,0.1300,-1163.82,-593.63,1984.62
12770,-3.8711,0.0490,0.1135,289.31,640.75,-327.88
12780,-3.8711,0.0372,0.1024,-1726.32,-1468.69,-1921.69
12790,-3.8711,0.0295,0.0968,773.68,1109.44,1343.93
12800,-3.8711,0.0256,0.0973,-210.69,390.62,1328.31
12810,-3.8711,0.0256,0.1013,-710.69,453.12,1609.56
12820,-3.8711,0.0286,0.1074,-710.69,968.75,-1968.57
12830,-3.8711,0.0350,0.1140,-335.69,1750.00,-1437.32
12840,-3.8711,0.0460,0.1172,492.43,-1406.19,-937.32
12850,-3.8711,0.0582,0.1158,1898.68,-999.94,-671.69
12860,-3.8711,0.0682,0.1123,-538.82,-1171.81,-859.19
12870,-3.8711,0.0720,0.1041,742.43,-1624.88,-1812.32
12880,-3.8711,0.0699,0.0907,1226.81,1328.25,656.43
12890,-3.8712,0.0652,0.0784,961.18,-390.50,-859.25
12900,-3.8712,0.0598,0.0698,351.81,-1968.63,-1921.75
12910,-3.8712,0.0599,0.0654,-335.69,937.56,1687.62
12920,-3.8712,0.0706,0.0658,-320.07,375.06,1875.12
12930,-3.8712,0.0889,0.0714,1039.31,422.00,-1656.13
12940,-3.8712,0.1093,0.0829,-616.94,1140.75,-1406.13
12950,-3.8712,0.1289,0.0985,1992.43,-1390.44,-1218.63
12960,-3.8712,0.1448,0.1139,508.06,609.62,-656.07
12970,-3.8711,0.1566,0.1260,-1460.69,-1421.63,203.31
12980,-3.8711,0.1680,0.1339,54.93,125.31,968.99
12990,-3.8711,0.1849,0.1384,1508.06,1140.93,1234.62
13000,-3.8711,0.2079,0.1405,-320.07,1719.06,687.74
13010,-3.8712,0.2285,0.1396,-1382.57,1984.74,-843.51
13020,-3.8712,0.2415,0.1337,1258.06,1875.43,797.12
13030,-3.8713,0.2468,0.1254,-1085.69,1109.80,-1890.38
13040,-3.8713,0.2479,0.1202,-398.19,47.30,125.24
13050,-3.8715,0.2472,0.1224,-257.57,-608.95,-718.57
13060,-3.8715,0.2457,0.1316,-351.32,-327.70,-687.32
13070,-3.8715,0.2435,0.1428,-538.82,844.18,-202.88
13080,-3.8713,0.2419,0.1517,-820.07,-1718.32,172.12
13090,-3.8713,0.2445,0.1567,-1023.19,-577.70,375.24
13100,-3.8713,0.2515,0.1591,-695.07,62.93,922.18
13110,-3.8713,0.2605,0.1577,195.56,359.86,1844.06
13120,-3.8713,0.2706,0.1528,1351.81,187.99,-1249.69
13130,-3.8713,0.2786,0.1493,-1351.32,-437.01,-656.01
13140,-3.8713,0.2803,0.1484,-335.69,-890.14,-593.51
13150,-3.8713,0.2738,0.1469,-116.94,-999.51,-702.88
13160,-3.8713,0.2600,0.1404,-945.07,-1202.64,-484.13
13170,-3.8712,0.2441,0.1315,1289.31,1969.24,140.87
13180,-3.8712,0.2316,0.1257,-741.94,828.55,1000.24
13190,-3.8712,0.2239,0.1238,1648.68,94.18,1718.99
13200,-3.8712,0.2178,0.1224,664.31,-155.82,1906.43
13210,-3.8712,0.2130,0.1210,-116.94,-327.76,1797.06
13220,-3.8712,0.2115,0.1211,-726.32,-515.26,1937.68
13230,-3.8712,0.2125,0.1238,-913.82,-499.63,-1906.07
13240,-3.8712,0.2156,0.1283,-788.82,-155.88,-1968.57
13250,-3.8712,0.2198,0.1338,-398.19,422.24,-1781.01
13260,-3.8712,0.2230,0.1390,148.68,1125.43,-843.51
13270,-3.8711,0.2228,0.1396,554.93,1797.30,375.24
13280,-3.8711,0.2216,0.1385,523.68,1875.43,1484.62
13290,-3.8711,0.2203,0.1406,367.43,1734.80,-1421.63
13300,-3.8711,0.2148,0.1416,211.18,-1999.57,-562.26
13310,-3.8711,0.2056,0.1393,-491.94,-1874.63,-15.38
13320,-3.8710,0.2002,0.1346,-1679.44,1828.49,93.99
13330,-3.8711,0.2059,0.1265,1633.06,1234.74,-312.26
13340,-3.8711,0.2180,0.1163,-1632.57,187.87,-1218.51
13350,-3.8711,0.2302,0.1084,-85.69,-1109.01,1375.18
13360,-3.8711,0.2421,0.1090,1476.81,1875.43,422.06
13370,-3.8711,0.2491,0.1176,-1007.57,1953.55,531.43
13380,-3.8711,0.2515,0.1279,-101.32,-952.70,1390.81
13390,-3.8711,0.2510,0.1353,195.56,375.49,-1484.13
13400,-3.8711,0.2478,0.1346,133.06,1312.99,-687.26
13410,-3.8711,0.2469,0.1260,-273.19,1234.80,-546.63
13420,-3.8711,0.2518,0.1134,-382.57,125.43,-1031.01
13430,-3.8711,0.2620,0.1019,242.43,-1483.89,1890.81
13440,-3.8711,0.2737,0.0931,1539.31,1047.36,281.43
13450,-3.8712,0.2822,0.0881,-960.69,-77.64,-1421.75
13460,-3.8712,0.2826,0.0891,133.06,-718.20,1093.87
13470,-3.8713,0.2750,0.0867,179.93,-593.20,-656.13
13480,-3.8713,0.2677,0.0751,-788.82,-905.76,937.62
13490,-3.8715,0.2672,0.0612,-1726.32,1609.86,-1718.63
13500,-3.8715,0.2681,0.0524,-1788.82,-171.39,406.31
13510,-3.8716,0.2665,0.0519,-1679.44,-1296.39,-562.44
13520,-3.8716,0.2677,0.0505,-1882.57,-1358.89,-953.06
13530,-3.8716,0.2755,0.0469,-1726.32,-1530.76,-640.56
13540,-3.8715,0.2864,0.0515,-726.32,-1999.51,375.06
13550,-3.8715,0.2899,0.0636,664.31,-1405.70,1937.56
13560,-3.8713,0.2823,0.0740,1117.43,141.17,47.00
13570,-3.8713,0.2711,0.0801,148.68,1469.30,-1499.88
13580,-3.8712,0.2656,0.0800,-1288.82,-1749.51,281.37
13590,-3.8712,0.2698,0.0720,-1991.94,-1765.14,640.75
13600,-3.8712,0.2870,0.0636,-1460.69,1219.24,297.00
13610,-3.8712,0.3154,0.0671,742.43,141.17,547.00
13620,-3.8712,0.3435,0.0822,383.06,594.36,1656.37
13630,-3.8712,0.3643,0.0948,-23.19,-1483.76,-968.63
13640,-3.8712,0.3771,0.0962,-1366.94,141.30,-62.32
13650,-3.8711,0.3800,0.0931,273.68,313.23,828.31
13660,-3.8711,0.3710,0.0950,648.68,-77.39,-1656.13
13670,-3.8711,0.3571,0.0988,-507.57,156.92,-124.82
13680,-3.8710,0.3491,0.1003,1711.18,641.30,578.31
13690,-3.8710,0.3516,0.1005,695.56,844.42,203.31
13700,-3.8711,0.3632,0.1012,1008.06,860.05,-609.19
13710,-3.8711,0.3760,0.1040,-1507.57,953.80,-1327.94
13720,-3.8711,0.3851,0.1093,133.06,1313.23,1922.06
13730,-3.8711,0.3916,0.1172,1304.93,1985.11,1656.43
13740,-3.8711,0.3927,0.1272,-1866.94,-999.27,-1702.94
13750,-3.8711,0.3842,0.1339,-1726.32,281.98,-984.13
13760,-3.8711,0.3738,0.1306,1179.93,1141.36,-1218.51
13770,-3.8711,0.3739,0.1211,-148.19,719.42,1500.24
13780,-3.8712,0.3853,0.1169,-132.57,-499.33,-296.69
13790,-3.8712,0.4006,0.1224,1320.56,-1030.52,1968.93
13800,-3.8712,0.4136,0.1317,-710.69,-327.39,922.06
13810,-3.8712,0.4177,0.1385,945.56,860.17,547.12
13820,-3.8712,0.4103,0.1396,1476.81,1735.17,125.24
13830,-3.8713,0.3983,0.1344,523.68,1875.79,-593.51
13840,-3.8713,0.3915,0.1241,-1007.57,1203.86,-1890.38
13850,-3.8713,0.3885,0.1108,-1882.57,-108.64,78.31
13860,-3.8715,0.3826,0.0972,1742.43,-1811.77,1640.81
13870,-3.8716,0.3734,0.0822,976.81,438.23,-999.82
13880,-3.8716,0.3649,0.0651,-195.07,-1483.70,484.50
13890,-3.8717,0.3586,0.0475,-1288.82,328.80,-1640.50
13900,-3.8717,0.3547,0.0297,1914.31,-1921.20,437.56
13910,-3.8718,0.3511,0.0140,1414.31,-202.45,-1265.62
13920,-3.8718,0.3451,0.0021,945.56,1797.55,1359.38
13930,-3.8718,0.3367,-0.0060,179.93,266.30,703.12
13940,-3.8718,0.3273,-0.0105,-898.19,-765.01,1093.69
13950,-3.8718,0.3180,-0.0112,1898.68,-1343.14,-1796.94
13960,-3.8718,0.3079,-0.0071,711.18,-1436.89,-609.44
13970,-3.8717,0.2981,0.0009,-585.69,-905.70,484.31
13980,-3.8717,0.2955,0.0088,-1835.69,109.92,1625.00
13990,-3.8717,0.3044,0.0135,1836.18,1125.55,-1265.62
14000,-3.8717,0.3209,0.0149,-1023.19,1734.92,-406.25
14010,-3.8716,0.3358,0.0164,1086.18,1906.86,468.75
14020,-3.8716,0.3425,0.0208,-1007.57,-1905.64,1562.50
14030,-3.8716,0.3407,0.0242,-148.19,-1343.14,-1156.25
14040,-3.8715,0.3325,0.0242,-382.57,-905.64,625.00
14050,-3.8715,0.3215,0.0249,-1429.44,-905.64,-750.00
14060,-3.8713,0.3096,0.0289,1164.31,-811.89,-1656.25
14070,-3.8712,0.2950,0.0320,-366.94,-296.33,937.50
14080,-3.8712,0.2783,0.0295,1773.68,94.30,-1390.56
14090,-3.8711,0.2609,0.0239,-366.94,-218.26,78.12
14100,-3.8711,0.2439,0.0239,1398.68,-937.01,-1890.62
14110,-3.8710,0.2296,0.0354,-773.19,-937.07,531.25
14120,-3.8710,0.2198,0.0535,1398.68,531.68,-1343.69
14130,-3.8710,0.2164,0.0680,148.68,-1155.82,-15.56
14140,-3.8708,0.2198,0.0732,-288.82,703.49,297.00
14150,-3.8710,0.2299,0.0704,148.68,1375.43,-578.00
14160,-3.8710,0.2450,0.0608,1429.93,1016.05,1312.62
14170,-3.8711,0.2582,0.0488,-632.57,-218.32,-921.81
14180,-3.8711,0.2579,0.0414,1054.93,-1749.51,-1843.69
14190,-3.8711,0.2406,0.0427,1023.68,1297.36,-1062.44
14200,-3.8710,0.2080,0.0505,-1195.07,1469.18,906.31
14210,-3.8710,0.1733,0.0588,-1366.94,-1530.88,-1390.56
14220,-3.8710,0.1558,0.0631,-1804.44,-468.44,-1390.56
14230,-3.8710,0.1581,0.0619,-54.44,78.37,765.75
14240,-3.8711,0.1761,0.0607,242.43,-77.82,1515.69
14250,-3.8712,0.2074,0.0652,-1445.07,-234.07,1640.69
14260,-3.8713,0.2452,0.0771,-1445.07,344.12,-1656.13
14270,-3.8713,0.2825,0.0913,-601.32,1875.43,484.50
14280,-3.8713,0.3152,0.1023,164.31,-311.95,406.37
14290,-3.8713,0.3364,0.1099,351.81,1094.36,1750.18
14300,-3.8713,0.3391,0.1140,-929.44,-1936.89,-468.57
14310,-3.8712,0.3223,0.1200,-585.69,-1405.64,1297.06
14320,-3.8712,0.2909,0.1307,1258.06,-640.01,-765.44
14330,-3.8711,0.2614,0.1420,1242.43,734.92,1093.99
14340,-3.8711,0.2521,0.1500,1461.18,-1827.64,-1671.63
14350,-3.8711,0.2717,0.1493,273.68,-796.39,-1921.63
14360,-3.8712,0.3090,0.1378,-1210.69,-890.14,-312.26
14370,-3.8713,0.3427,0.1233,-445.07,1641.17,-296.63
14380,-3.8715,0.3579,0.1128,-132.57,-218.14,-327.94
14390,-3.8715,0.3485,0.1095,1820.56,-1561.83,1422.06
14400,-3.8715,0.3213,0.1145,617.43,-1983.70,1625.18
14410,-3.8715,0.2914,0.1254,1133.06,-1343.14,-437.32
14420,-3.8713,0.2714,0.1359,1304.93,47.42,1703.37
14430,-3.8713,0.2665,0.1381,-1257.57,1391.11,-1546.63
14440,-3.8713,0.2726,0.1287,-1882.57,1672.36,1375.24
14450,-3.8715,0.2828,0.1149,-1101.32,469.24,-343.51
14460,-3.8715,0.2910,0.1082,211.18,-1296.33,-1093.57
14470,-3.8715,0.2927,0.1084,1258.06,1844.30,-312.32
14480,-3.8713,0.2872,0.1104,1476.81,1875.55,1453.31
14490,-3.8713,0.2780,0.1135,773.68,-1874.45,-749.82
14500,-3.8712,0.2679,0.1143,-413.82,-1468.26,31.43
14510,-3.8713,0.2568,0.1080,-1695.07,-1374.51,-15.44
14520,-3.8713,0.2455,0.0996,883.06,1828.61,-171.69
14530,-3.8713,0.2408,0.0969,-570.07,750.43,-609.19
14540,-3.8713,0.2534,0.1008,-1163.82,406.68,-1296.69
14550,-3.8713,0.2844,0.1066,445.56,906.74,1984.56
14560,-3.8713,0.3220,0.1132,414.31,1641.17,1390.81
14570,-3.8713,0.3527,0.1204,1226.81,-1515.01,906.43
14580,-3.8713,0.3710,0.1244,1148.68,-593.08,640.81
14590,-3.8713,0.3757,0.1282,-507.57,-77.45,1703.31
14600,-3.8712,0.3672,0.1405,101.81,406.98,531.49
14610,-3.8711,0.3516,0.1619,-991.94,1985.05,125.24
14620,-3.8711,0.3395,0.1838,1008.06,719.42,-859.07
14630,-3.8710,0.3386,0.2001,-538.82,-468.14,984.68
14640,-3.8710,0.3475,0.2098,-648.19,1609.99,1640.99
14650,-3.8710,0.3567,0.2126,492.43,-1139.95,1390.99
14660,-3.8710,0.3557,0.2086,1664.31,-780.58,672.24
14670,-3.8711,0.3429,0.2010,1539.31,-1296.20,-405.88
14680,-3.8711,0.3186,0.1941,-101.32,1734.99,-1562.13
14690,-3.8711,0.2832,0.1915,789.31,844.36,1828.49
14700,-3.8711,0.2471,0.1901,258.06,516.17,1609.74
14710,-3.8711,0.2183,0.1859,-366.94,328.55,1469.12
14720,-3.8711,0.1915,0.1853,-54.44,-202.76,-1718.44
14730,-3.8710,0.1621,0.1956,523.68,-280.88,515.93
14740,-3.8710,0.1354,0.2114,758.06,1031.56,-202.76
14750,-3.8708,0.1168,0.2200,1336.18,-937.26,-734.01
14760,-3.8707,0.1127,0.2206,-1038.82,156.43,1234.80
14770,-3.8707,0.1239,0.2158,-1570.07,234.56,781.68
14780,-3.8708,0.1368,0.2010,-132.57,-374.82,-1374.63
14790,-3.8710,0.1403,0.1794,1523.68,1734.62,-77.76
14800,-3.8710,0.1304,0.1578,1961.18,-1031.01,1312.81
14810,-3.8711,0.1073,0.1394,695.56,203.37,-780.94
14820,-3.8711,0.0785,0.1245,1742.43,1843.93,1906.49
14830,-3.8711,0.0527,0.1136,-1945.07,-62.38,1078.31
14840,-3.8711,0.0341,0.1077,-1241.94,-1453.06,218.93
14850,-3.8712,0.0226,0.1052,367.43,1781.31,-374.82
14860,-3.8712,0.0183,0.1039,-1101.32,1468.75,-468.57
14870,-3.8712,0.0199,0.1016,-1648.19,1296.88,-327.94
14880,-3.8711,0.0245,0.0991,-1445.07,1000.00,218.93
14890,-3.8711,0.0297,0.0963,-851.32,687.50,1062.68
14900,-3.8711,0.0342,0.0922,-195.07,328.12,1797.06
14910,-3.8711,0.0414,0.0884,383.06,-203.06,1875.12
14920,-3.8711,0.0520,0.0861,1304.93,-687.44,1062.62
14930,-3.8712,0.0659,0.0854,-1335.69,-984.31,-46.75
14940,-3.8712,0.0869,0.0879,445.56,-1062.38,-874.88
14950,-3.8712,0.1162,0.0959,-866.94,-749.88,-1468.63
14960,-3.8712,0.1482,0.1085,-1116.94,281.43,-1562.32
14970,-3.8712,0.1788,0.1221,-1023.19,1890.87,-1062.32
14980,-3.8712,0.2083,0.1389,-1101.32,-374.69,-374.82
14990,-3.8711,0.2327,0.1608,-1335.69,1781.62,234.62
15000,-3.8711,0.2468,0.1825,1789.31,578.55,890.93
15010,-3.8711,0.2533,0.1985,-398.19,-640.20,1906.56
15020,-3.8711,0.2561,0.2080,429.93,1406.74,-734.01
15030,-3.8710,0.2539,0.2117,789.31,-1374.51,219.12
15040,-3.8711,0.2480,0.2100,508.06,-905.76,-30.88
15050,-3.8711,0.2457,0.2052,-241.94,-1124.57,-1780.88
15060,-3.8712,0.2452,0.1987,-538.82,-1733.95,-530.88
15070,-3.8712,0.2407,0.1880,-601.32,1437.93,844.12
15080,-3.8713,0.2340,0.1782,-1179.44,62.93,-374.63
15090,-3.8713,0.2280,0.1805,1961.18,-1187.07,-30.94
15100,-3.8712,0.2239,0.1921,1195.56,-890.20,484.68
15110,-3.8712,0.2251,0.1997,664.31,594.18,765.99
15120,-3.8712,0.2363,0.1963,820.56,1562.93,1125.37
15130,-3.8712,0.2557,0.1865,-1741.94,1125.43,1406.62
15140,-3.8712,0.2787,0.1768,742.43,-124.51,1094.06
15150,-3.8712,0.3007,0.1667,-320.07,-1374.51,109.68
15160,-3.8713,0.3148,0.1565,-1507.57,1344.30,-687.19
15170,-3.8713,0.3149,0.1484,304.93,31.86,-734.07
15180,-3.8713,0.3016,0.1411,320.56,-999.39,-234.13
15190,-3.8712,0.2833,0.1323,-1382.57,-1936.95,531.49
15200,-3.8712,0.2660,0.1215,273.68,938.05,1453.37
15210,-3.8712,0.2491,0.1100,-1945.07,-452.64,-1906.07
15220,-3.8712,0.2330,0.0986,-101.32,-1921.45,-1999.82
15230,-3.8712,0.2214,0.0846,1836.18,625.43,1515.81
15240,-3.8712,0.2190,0.0707,351.81,-1171.45,1297.00
15250,-3.8712,0.2283,0.0612,39.31,1047.30,1156.37
15260,-3.8712,0.2489,0.0530,1226.81,-171.45,593.81
15270,-3.8713,0.2740,0.0436,-132.57,-1218.32,-109.31
15280,-3.8713,0.2906,0.0389,-913.82,1578.61,-749.94
15290,-3.8713,0.2917,0.0413,1211.18,984.92,-1874.94
15300,-3.8713,0.2872,0.0432,1351.81,1281.80,968.81
15310,-3.8713,0.2894,0.0421,773.68,1531.80,1203.19
15320,-3.8713,0.3020,0.0441,1054.93,1391.17,-812.44
15330,-3.8712,0.3213,0.0521,-1335.69,1641.17,-1999.94
15340,-3.8711,0.3389,0.0619,1133.06,-1327.51,609.44
15350,-3.8711,0.3489,0.0662,-616.94,-77.51,1890.69
15360,-3.8711,0.3497,0.0619,664.31,469.42,1109.50
15370,-3.8712,0.3436,0.0507,773.68,-77.45,-1406.19
15380,-3.8713,0.3379,0.0397,-7.57,-1515.01,-421.81
15390,-3.8713,0.3395,0.0370,-741.94,1078.74,1375.06
15400,-3.8713,0.3430,0.0411,-538.82,734.99,1250.06
15410,-3.8713,0.3391,0.0547,-85.69,1266.24,-406.19
15420,-3.8712,0.3263,0.0795,-585.69,-999.39,-499.94
15430,-3.8710,0.3073,0.1036,1773.68,-1827.51,125.12
15440,-3.8708,0.2843,0.1178,-663.82,1266.17,437.68
15450,-3.8708,0.2651,0.1226,398.68,-921.33,-718.57
15460,-3.8707,0.2550,0.1202,1945.56,-312.01,218.93
15470,-3.8708,0.2494,0.1104,648.68,-608.89,-484.19
15480,-3.8708,0.2437,0.0906,-70.07,-1874.57,750.18
15490,-3.8711,0.2385,0.0602,-804.44,-405.82,-656.13
15500,-3.8712,0.2339,0.0228,-1460.69,-296.45,375.06
15510,-3.8715,0.2273,-0.0065,1945.56,-1077.70,-1390.62
15520,-3.8715,0.2134,-0.0104,1101.81,-827.70,140.56
15530,-3.8715,0.1929,0.0065,-679.44,-1327.76,937.44
15540,-3.8713,0.1812,0.0282,695.56,828.49,250.00
15550,-3.8712,0.1858,0.0509,-804.44,-390.32,656.25
15560,-3.8711,0.2017,0.0688,-210.69,-1484.07,515.69
15570,-3.8711,0.2213,0.0773,1820.56,812.87,-656.13
15580,-3.8710,0.2355,0.0824,336.18,1891.05,765.75
15590,-3.8711,0.2439,0.0881,-1851.32,-1452.70,-78.00
15600,-3.8711,0.2579,0.0896,-773.19,-718.32,1031.37
15610,-3.8712,0.2825,0.0880,1023.68,-530.76,1859.50
15620,-3.8713,0.3085,0.0886,164.31,-733.83,-671.75
15630,-3.8713,0.3247,0.0872,-507.57,-655.70,390.75
15640,-3.8715,0.3340,0.0826,1570.56,-843.14,859.50
15650,-3.8716,0.3488,0.0763,-1241.94,-1421.26,1781.37
15660,-3.8716,0.3743,0.0692,648.68,1766.30,125.12
15670,-3.8717,0.4050,0.0681,-85.69,860.05,-140.50
15680,-3.8716,0.4348,0.0748,-148.19,719.48,453.25
15690,-3.8716,0.4608,0.0802,-335.69,1578.92,1406.37
15700,-3.8716,0.4803,0.0750,-1007.57,-1733.52,-1968.63
15710,-3.8716,0.4857,0.0597,1492.43,1594.67,1984.50
15720,-3.8716,0.4697,0.0377,-1820.07,-358.46,1125.06
15730,-3.8717,0.4352,0.0154,133.06,829.04,-15.56
15740,-3.8717,0.3933,0.0037,-288.82,1969.54,-500.00
15750,-3.8717,0.3593,0.0052,-1648.19,469.48,-15.62
15760,-3.8716,0.3452,0.0170,1992.43,672.55,1578.12
15770,-3.8715,0.3523,0.0316,195.56,-1827.45,203.12
15780,-3.8715,0.3732,0.0402,1101.81,47.55,-1046.81
15790,-3.8713,0.4009,0.0414,-226.32,1141.30,359.44
15800,-3.8713,0.4312,0.0402,-679.44,1297.61,15.69
15810,-3.8715,0.4570,0.0367,-804.44,1141.42,-1093.69
15820,-3.8715,0.4714,0.0277,-1491.94,703.98,1796.94
15830,-3.8715,0.4680,0.0150,351.81,-452.21,937.50
15840,-3.8715,0.4445,0.0037,-85.69,1922.73,484.38
15850,-3.8715,0.4077,-0.0054,898.68,469.60,531.25
15860,-3.8715,0.3698,-0.0138,195.56,-686.71,781.19
15870,-3.8715,0.3405,-0.0225,-663.82,-1764.95,734.31
15880,-3.8715,0.3223,-0.0322,-413.82,1125.61,609.31
15890,-3.8715,0.3102,-0.0413,1258.06,-124.39,999.88
15900,-3.8715,0.3021,-0.0435,-288.82,-1280.70,1890.50
15910,-3.8715,0.2994,-0.0366,-1320.07,-1561.95,-984.50
15920,-3.8713,0.3041,-0.0281,-1663.82,-686.95,265.50
15930,-3.8713,0.3136,-0.0264,-1070.07,406.80,1546.81
15940,-3.8713,0.3182,-0.0327,148.68,625.61,-1281.31
15950,-3.8713,0.3124,-0.0402,742.43,-186.89,-656.37
15960,-3.8713,0.3002,-0.0427,-7.57,-1140.08,-937.62
15970,-3.8713,0.2881,-0.0386,-1570.07,-1468.20,-1531.37
15980,-3.8713,0.2804,-0.0254,883.06,-936.95,-1547.00
15990,-3.8713,0.2788,-0.0024,-101.32,750.49,-859.44
16000,-3.8712,0.2844,0.0239,-304.44,-312.01,437.44
16010,-3.8712,0.2966,0.0454,414.31,-936.95,-1796.88
16020,-3.8712,0.3169,0.0583,1976.81,1813.05,-515.56
16030,-3.8712,0.3467,0.0660,570.56,-530.64,-515.56
16040,-3.8712,0.3787,0.0778,383.06,453.80,-1546.75
16050,-3.8712,0.4034,0.0986,476.81,1953.86,765.75
16060,-3.8713,0.4142,0.1261,-351.32,625.73,-1171.69
16070,-3.8713,0.4106,0.1573,1023.68,141.42,1172.12
16080,-3.8713,0.4020,0.1938,570.56,141.42,187.81
16090,-3.8715,0.4037,0.2205,-538.82,813.23,-827.76
16100,-3.8715,0.4293,0.2152,-320.07,219.48,922.30
16110,-3.8716,0.4751,0.1877,-1038.82,-452.33,1437.87
16120,-3.8717,0.5206,0.1638,820.56,32.17,1484.74
16130,-3.8718,0.5424,0.1387,-1351.32,969.73,1890.93
16140,-3.8718,0.5289,0.1042,1429.93,1751.04,0.24
16150,-3.8718,0.4879,0.0829,-288.82,1344.73,1000.18
16160,-3.8717,0.4287,0.0823,-1538.82,-1389.71,531.37
16170,-3.8716,0.3625,0.0859,-1116.94,-1467.96,1047.00
16180,-3.8715,0.3051,0.0858,-1585.69,-999.33,968.87
16190,-3.8715,0.2645,0.0852,-945.07,-1015.08,-499.88
16200,-3.8713,0.2429,0.0848,1867.43,-1093.26,531.37
16210,-3.8713,0.2382,0.0837,-898.19,-1140.20,781.37
16220,-3.8713,0.2521,0.0863,-1507.57,-1280.82,797.00
16230,-3.8713,0.2874,0.0980,273.68,-952.64,906.37
16240,-3.8713,0.3335,0.1182,789.31,547.42,1843.93
16250,-3.8712,0.3735,0.1401,-1304.44,-874.39,125.18
16260,-3.8712,0.3937,0.1566,-179.44,1938.17,-609.13
16270,-3.8711,0.3879,0.1696,-1601.32,47.61,-905.94
16280,-3.8710,0.3578,0.1838,1664.31,1703.86,-1265.32
16290,-3.8708,0.3153,0.1978,1804.93,-468.08,1828.43
16300,-3.8707,0.2773,0.2059,367.43,1313.11,109.74
16310,-3.8707,0.2505,0.2045,-491.94,-1640.14,1203.49
16320,-3.8707,0.2369,0.1927,70.56,-1827.64,750.37
16330,-3.8708,0.2402,0.1790,-1663.82,672.30,-515.26
16340,-3.8708,0.2532,0.1747,-1241.94,-1093.32,-1765.32
16350,-3.8708,0.2617,0.1815,414.31,-1640.14,1094.06
16360,-3.8708,0.2616,0.1965,1508.06,-765.14,47.18
16370,-3.8710,0.2600,0.2173,1492.43,1156.74,-452.76
16380,-3.8708,0.2651,0.2385,1289.31,-187.01,140.99
16390,-3.8708,0.2761,0.2534,1945.56,-1468.26,1437.93
16400,-3.8708,0.2849,0.2606,-648.19,437.99,-1265.14
16410,-3.8708,0.2821,0.2600,476.81,1359.92,-140.14
16420,-3.8707,0.2616,0.2524,117.43,1281.80,1328.61
16430,-3.8707,0.2225,0.2441,1492.43,312.99,-405.76
16440,-3.8706,0.1753,0.2410,492.43,-749.57,-1968.32
16450,-3.8706,0.1375,0.2401,-1554.44,-1155.94,-640.20
16460,-3.8706,0.1173,0.2329,1601.81,-1265.38,-1296.45
16470,-3.8706,0.1149,0.2140,-976.32,1812.68,0.43
16480,-3.8708,0.1215,0.1876,-1288.82,-609.19,-249.63
16490,-3.8710,0.1248,0.1663,-445.07,15.81,-609.01
16500,-3.8710,0.1230,0.1603,-23.19,1281.43,406.56
16510,-3.8711,0.1252,0.1688,-241.94,515.81,-359.07
16520,-3.8710,0.1340,0.1815,39.31,1609.62,812.81
16530,-3.8710,0.1400,0.1917,1164.31,-765.38,-1015.32
16540,-3.8708,0.1407,0.1986,1929.93,531.49,1203.49
16550,-3.8708,0.1412,0.1995,-1976.32,1422.12,-1827.76
16560,-3.8708,0.1448,0.1923,-1913.82,1531.49,1328.49
16570,-3.8710,0.1515,0.1794,-1460.69,609.62,-718.38
16580,-3.8710,0.1580,0.1664,-601.32,-1031.01,890.93
16590,-3.8711,0.1581,0.1594,226.81,1297.18,-1046.57
16600,-3.8711,0.1482,0.1610,242.43,406.56,-1827.82
16610,-3.8711,0.1306,0.1663,-1023.19,609.62,-1530.94
16620,-3.8711,0.1084,0.1680,726.81,1281.49,-1171.57
16630,-3.8711,0.0828,0.1648,1883.06,1500.18,-1452.82
16640,-3.8711,0.0621,0.1603,-1398.19,1093.87,-1968.44
16650,-3.8711,0.0544,0.1539,-38.82,515.69,1500.31
16660,-3.8711,0.0576,0.1427,-1023.19,-296.81,500.24
16670,-3.8712,0.0645,0.1278,-616.94,-1734.31,-656.01
16680,-3.8712,0.0663,0.1121,258.06,359.50,-1562.26
16690,-3.8712,0.0591,0.0988,492.43,-1656.13,-1921.69
16700,-3.8712,0.0437,0.0885,-429.44,640.69,-1421.69
16710,-3.8712,0.0264,0.0789,1601.81,-671.81,-499.88
16720,-3.8712,0.0151,0.0693,-616.94,-1906.25,-15.50
16730,-3.8712,0.0116,0.0605,1945.56,875.00,-124.88
16740,-3.8712,0.0116,0.0558,1492.43,-250.00,-421.81
16750,-3.8712,0.0128,0.0579,1492.43,-859.38,-437.44
16760,-3.8712,0.0142,0.0636,1648.68,-593.75,-31.19
16770,-3.8711,0.0160,0.0670,1820.56,140.62,453.25
16780,-3.8711,0.0200,0.0646,-1945.07,578.12,703.25
16790,-3.8711,0.0260,0.0579,-1429.44,265.62,625.12
16800,-3.8711,0.0339,0.0492,-663.82,-593.75,0.06
16810,-3.8712,0.0433,0.0435,351.81,-1703.06,-843.69
16820,-3.8712,0.0530,0.0461,1554.93,1562.56,-1343.69
16830,-3.8712,0.0640,0.0537,-1210.69,1906.31,-1359.31
16840,-3.8712,0.0767,0.0637,195.56,-1124.88,-828.06
16850,-3.8711,0.0861,0.0790,1820.56,156.37,140.75
16860,-3.8711,0.0903,0.0970,-976.32,-1890.50,1203.25
16870,-3.8711,0.0944,0.1124,-429.44,422.00,-1812.32
16880,-3.8711,0.1008,0.1210,86.18,-1609.19,-1109.19
16890,-3.8711,0.1073,0.1237,914.31,-515.44,-906.07
16900,-3.8711,0.1110,0.1211,1742.43,-171.69,-1468.57
16910,-3.8711,0.1108,0.1136,-1788.82,-499.82,968.93
16920,-3.8712,0.1080,0.1045,-1804.44,-1452.94,-1171.69
16930,-3.8712,0.1014,0.0951,1836.18,1375.18,734.56
16940,-3.8713,0.0903,0.0840,992.43,172.06,-1093.57
16950,-3.8713,0.0769,0.0708,-429.44,-1249.88,1234.50
16960,-3.8715,0.0647,0.0603,1851.81,1062.62,-390.50
16970,-3.8715,0.0591,0.0571,289.31,-281.13,-1609.31
16980,-3.8715,0.0657,0.0638,-429.44,-687.44,1750.06
16990,-3.8715,0.0895,0.0782,414.31,172.00,1531.37
17000,-3.8715,0.1277,0.0986,-538.82,-1984.25,-1890.50
17010,-3.8715,0.1670,0.1222,351.81,625.24,-640.44
17020,-3.8713,0.1980,0.1399,1383.06,-359.07,609.56
17030,-3.8713,0.2185,0.1476,1351.81,1906.62,-1812.26
17040,-3.8712,0.2316,0.1545,-23.19,-1109.01,609.62
17050,-3.8712,0.2410,0.1667,1648.68,-218.32,-468.51
17060,-3.8711,0.2439,0.1802,-1148.19,1344.18,-1484.07
17070,-3.8710,0.2421,0.1903,-773.19,-937.07,1265.93
17080,-3.8710,0.2426,0.1960,-1007.57,359.80,-374.63
17090,-3.8708,0.2515,0.1996,-945.07,1094.18,1594.12
17100,-3.8708,0.2710,0.2025,195.56,1547.36,-999.63
17110,-3.8708,0.2976,0.2052,-1304.44,1922.36,-249.63
17120,-3.8707,0.3224,0.2069,-1898.19,-1733.83,15.99
17130,-3.8707,0.3427,0.2046,1273.68,-1515.01,31.62
17140,-3.8708,0.3632,0.1965,-132.57,-1811.89,-390.26
17150,-3.8708,0.3843,0.1810,-1507.57,1156.92,-1780.88
17160,-3.8710,0.4008,0.1617,1195.56,-827.39,-234.07
17170,-3.8710,0.4099,0.1451,-695.07,703.86,890.93
17180,-3.8711,0.4093,0.1312,476.81,-1421.08,-1749.76
17190,-3.8712,0.3966,0.1112,398.68,797.67,-46.63
17200,-3.8712,0.3751,0.0875,-1226.32,-1764.89,1906.43
17210,-3.8712,0.3518,0.0697,23.68,-796.14,62.62
17220,-3.8713,0.3326,0.0579,1039.31,922.55,-1031.13
17230,-3.8713,0.3202,0.0525,-1413.82,-593.14,-749.94
17240,-3.8712,0.3098,0.0536,992.43,-1280.64,578.19
17250,-3.8712,0.2990,0.0591,-335.69,-1140.08,-1562.44
17260,-3.8711,0.2913,0.0670,-1726.32,-436.95,812.56
17270,-3.8711,0.2834,0.0760,1289.31,578.67,-609.25
17280,-3.8710,0.2721,0.0841,289.31,1734.92,1437.62
17290,-3.8710,0.2621,0.0869,-1163.82,-1233.89,-1624.88
17300,-3.8710,0.2592,0.0844,1554.93,-874.51,-1624.88
17310,-3.8710,0.2644,0.0789,1179.93,-1202.64,1640.75
17320,-3.8710,0.2740,0.0735,1851.81,-1905.76,250.12
17330,-3.8711,0.2848,0.0712,-913.82,1406.74,-1312.38
17340,-3.8711,0.2959,0.0707,461.18,1109.92,1312.62
17350,-3.8711,0.3066,0.0753,1883.06,1047.42,375.12
17360,-3.8711,0.3165,0.0891,-741.94,1641.17,109.50
17370,-3.8711,0.3293,0.1075,523.68,-593.14,406.37
17380,-3.8711,0.3502,0.1313,-1835.69,1766.24,859.56
17390,-3.8711,0.3768,0.1527,836.18,813.17,468.99
17400,-3.8712,0.4061,0.1602,242.43,-452.39,-843.51
17410,-3.8712,0.4432,0.1571,-7.57,500.73,1375.31
17420,-3.8713,0.4866,0.1421,742.43,110.23,-937.19
17430,-3.8713,0.5251,0.1206,-1710.69,-1811.58,515.87
17440,-3.8715,0.5497,0.1013,-773.19,-561.52,-1906.07
17450,-3.8716,0.5498,0.0781,-1632.57,969.79,-62.32
17460,-3.8716,0.5189,0.0529,-1616.94,-1998.96,-1531.13
17470,-3.8716,0.4674,0.0396,-1570.07,-1233.40,-1843.69
17480,-3.8716,0.4149,0.0347,-163.82,1063.35,-1734.31
17490,-3.8716,0.3765,0.0234,1117.43,438.29,1718.81
17500,-3.8716,0.3566,0.0078,195.56,-999.27,312.50
17510,-3.8717,0.3558,-0.0038,1648.68,1000.67,-1593.75
17520,-3.8717,0.3710,-0.0110,1554.93,-483.70,734.31
17530,-3.8717,0.3870,-0.0144,-507.57,-1405.58,62.44
17540,-3.8717,0.3910,-0.0135,1539.31,-1843.02,312.44
17550,-3.8717,0.3861,-0.0081,-1945.07,-1733.64,1109.31
17560,-3.8717,0.3849,-0.0005,1429.93,-1030.52,-1593.81
17570,-3.8717,0.3956,0.0037,1273.68,-61.77,-93.81
17580,-3.8716,0.4175,0.0065,-1351.32,469.48,1375.00
17590,-3.8716,0.4487,0.0170,1445.56,828.92,-1140.62
17600,-3.8715,0.4872,0.0371,1445.56,-1827.27,281.25
17610,-3.8715,0.5265,0.0587,-1632.57,750.92,1640.69
17620,-3.8715,0.5609,0.0729,-601.32,-483.40,-1015.56
17630,-3.8713,0.5865,0.0771,-195.07,1329.16,62.62
17640,-3.8713,0.6014,0.0737,-913.82,1876.10,562.62
17650,-3.8713,0.6071,0.0624,992.43,1438.66,203.25
17660,-3.8715,0.6042,0.0474,1711.18,-14.47,-1031.19
17670,-3.8715,0.5889,0.0341,1351.81,-1936.34,1171.94
17680,-3.8716,0.5616,0.0233,-616.94,360.47,-796.81
17690,-3.8716,0.5289,0.0120,-101.32,-1014.59,1453.12
17700,-3.8717,0.4951,-0.0061,-288.82,1532.23,-31.25
17710,-3.8717,0.4618,-0.0302,-616.94,-780.33,-1078.19
17720,-3.8717,0.4265,-0.0532,-882.57,141.48,-1125.06
17730,-3.8717,0.3887,-0.0720,-1398.19,1188.29,-93.87
17740,-3.8716,0.3524,-0.0865,1758.06,-1218.02,1265.44
17750,-3.8716,0.3197,-0.0966,1117.43,922.55,-1562.68
17760,-3.8716,0.2942,-0.1002,929.93,-358.76,-172.12
17770,-3.8715,0.2793,-0.0913,1664.31,-827.58,1890.38
17780,-3.8713,0.2732,-0.0729,-241.94,312.99,546.69
17790,-3.8713,0.2705,-0.0588,-1023.19,-1327.64,-625.18
17800,-3.8712,0.2695,-0.0469,-1366.94,469.24,1718.63
17810,-3.8712,0.2781,-0.0320,-1491.94,-1999.51,-515.75
17820,-3.8711,0.2999,-0.0164,-398.19,-93.26,687.38
17830,-3.8711,0.3304,-0.0007,-1601.32,1906.80,718.69
17840,-3.8712,0.3666,0.0134,-1695.07,-93.14,-343.81
17850,-3.8712,0.4010,0.0247,-1070.07,1719.42,-1625.00
17860,-3.8712,0.4237,0.0330,-663.82,-843.02,1343.75
17870,-3.8712,0.4340,0.0396,-1757.57,219.54,546.94
17880,-3.8713,0.4333,0.0458,-445.07,1063.29,-46.81
17890,-3.8713,0.4218,0.0513,-523.19,1860.17,-359.31
17900,-3.8713,0.4058,0.0566,1992.43,-1436.71,-968.69
17910,-3.8713,0.3960,0.0635,-54.44,-749.27,1828.19
17920,-3.8713,0.3967,0.0724,-1304.44,125.73,359.50
17930,-3.8715,0.4081,0.0802,-1210.69,1266.36,-1578.00
17940,-3.8716,0.4312,0.0831,242.43,-1733.58,-109.25
17950,-3.8716,0.4606,0.0834,-804.44,-1358.58,1453.25
17960,-3.8717,0.4846,0.0853,-1038.82,-1327.27,-171.75
17970,-3.8717,0.4927,0.0891,-1960.69,-1077.21,-484.25
17980,-3.8716,0.4764,0.0914,-929.44,-592.83,672.00
17990,-3.8716,0.4364,0.0924,992.43,-295.96,-812.38
18000,-3.8715,0.3842,0.0928,-132.57,-171.08,-1546.75
18010,-3.8713,0.3362,0.0898,1179.93,-124.27,1703.25
18020,-3.8712,0.3030,0.0870,-960.69,-499.39,468.87
18030,-3.8712,0.2823,0.0854,-1210.69,-858.83,-1765.50
18040,-3.8712,0.2699,0.0817,148.68,-1061.95,-1296.75
18050,-3.8712,0.2660,0.0785,-1445.07,-1546.39,-1859.25
18060,-3.8712,0.2710,0.0793,-1945.07,-1952.64,1140.75
18070,-3.8712,0.2839,0.0845,-1304.44,-1843.26,234.50
18080,-3.8713,0.3008,0.0920,351.81,-1186.95,-249.88
18090,-3.8713,0.3156,0.1003,-1491.94,-218.20,-328.00
18100,-3.8712,0.3257,0.1102,398.68,844.36,15.81
18110,-3.8712,0.3341,0.1252,1695.56,-1890.01,562.68
18120,-3.8712,0.3438,0.1440,-1226.32,31.86,578.37
18130,-3.8713,0.3560,0.1587,8.06,-1561.83,-452.88
18140,-3.8713,0.3706,0.1639,1570.56,313.17,1875.31
18150,-3.8713,0.3829,0.1611,-554.44,985.05,328.43
18160,-3.8715,0.3879,0.1573,1023.68,625.73,-687.19
18170,-3.8715,0.3854,0.1578,1664.31,141.36,-1093.44
18180,-3.8715,0.3759,0.1598,1336.18,203.86,-968.44
18190,-3.8715,0.3600,0.1553,117.43,453.86,-390.32
18200,-3.8713,0.3403,0.1405,-1913.82,-124.33,515.87
18210,-3.8713,0.3169,0.1218,-429.44,1984.99,-1937.26
18220,-3.8712,0.2870,0.1088,570.56,-405.64,625.18
18230,-3.8712,0.2524,0.1006,742.43,1922.42,-140.44
18240,-3.8711,0.2211,0.0934,320.56,875.49,-1015.44
18250,-3.8710,0.2036,0.0903,304.93,-46.45,1234.50
18260,-3.8710,0.2086,0.0920,-1929.44,-437.13,-1765.50
18270,-3.8710,0.2389,0.0977,-1288.82,-218.38,1812.62
18280,-3.8710,0.2910,0.1082,-1413.82,500.43,234.56
18290,-3.8711,0.3519,0.1229,1258.06,1844.30,-1312.32
18300,-3.8711,0.4036,0.1445,1054.93,-264.95,-1765.44
18310,-3.8711,0.4366,0.1703,-335.69,-1499.27,-1218.51
18320,-3.8711,0.4481,0.1906,-101.32,1797.67,-46.57
18330,-3.8710,0.4388,0.1993,1367.43,391.48,-1921.51
18340,-3.8708,0.4110,0.1953,179.93,1516.48,1187.87
18350,-3.8707,0.3625,0.1881,617.43,1000.79,1000.37
18360,-3.8706,0.2999,0.1871,-1585.69,78.80,890.99
18370,-3.8706,0.2424,0.1870,-1601.32,-46.33,-202.82
18380,-3.8705,0.2073,0.1815,-960.69,-62.07,515.93
18390,-3.8706,0.1969,0.1691,-1460.69,-765.26,-1421.57
18400,-3.8707,0.2013,0.1460,1211.18,1640.99,-1671.57
18410,-3.8708,0.2072,0.1168,1773.68,-1312.13,797.12
18420,-3.8711,0.2064,0.0933,-1476.32,-1046.51,-687.32
18430,-3.8712,0.1985,0.0782,-1570.07,-62.13,-781.13
18440,-3.8712,0.1891,0.0715,1414.31,-1984.01,1547.00
18450,-3.8712,0.1825,0.0768,211.18,1156.62,1922.00
18460,-3.8712,0.1776,0.0912,-632.57,1828.43,-937.38
18470,-3.8711,0.1744,0.1050,-1257.57,-327.82,172.00
18480,-3.8711,0.1764,0.1141,-1663.82,1437.81,765.81
18490,-3.8711,0.1858,0.1205,-1413.82,-1390.32,515.81
18500,-3.8712,0.1982,0.1271,-210.69,-577.82,-702.94
18510,-3.8712,0.2068,0.1312,1383.06,265.99,1547.12
18520,-3.8713,0.2078,0.1266,-1523.19,797.24,-15.38
18530,-3.8713,0.1973,0.1135,-1398.19,203.49,-1359.13
18540,-3.8713,0.1754,0.0969,1258.06,-1468.38,1218.93
18550,-3.8715,0.1482,0.0782,-1538.82,406.56,-140.44
18560,-3.8715,0.1255,0.0571,-1023.19,-1984.13,-1203.00
18570,-3.8715,0.1143,0.0355,70.56,-687.26,1796.94
18580,-3.8715,0.1125,0.0187,-1366.94,547.06,546.94
18590,-3.8716,0.1167,0.0094,-1585.69,-1609.19,-828.12
18600,-3.8716,0.1234,0.0056,-1054.44,1203.31,-1734.38
18610,-3.8716,0.1295,0.0052,-195.07,718.93,-1609.38
18620,-3.8716,0.1343,0.0070,586.18,672.12,-281.25
18630,-3.8715,0.1373,0.0101,1195.56,890.87,-1859.38
18640,-3.8713,0.1395,0.0154,1586.18,1297.12,1000.00
18650,-3.8713,0.1415,0.0223,1867.43,1968.99,-312.50
18660,-3.8712,0.1428,0.0320,-1882.57,-1140.38,-1687.50
18670,-3.8711,0.1447,0.0400,-1710.69,93.99,640.69
18680,-3.8711,0.1482,0.0408,-1476.32,1125.24,-1765.56
18690,-3.8711,0.1542,0.0376,-1023.19,1218.99,-1078.06
18700,-3.8711,0.1599,0.0354,-257.57,812.74,-1265.56
18710,-3.8711,0.1624,0.0325,476.81,531.56,-1999.94
18720,-3.8711,0.1641,0.0286,789.31,156.56,1015.69
18730,-3.8712,0.1676,0.0283,1008.06,-343.44,-125.00
18740,-3.8712,0.1753,0.0334,1461.18,-374.69,-1187.50
18750,-3.8712,0.1899,0.0424,-1554.44,281.56,1765.69
18760,-3.8712,0.2083,0.0563,320.56,1422.24,609.44
18770,-3.8713,0.2242,0.0765,-1335.69,-796.51,-343.69
18780,-3.8713,0.2377,0.0992,711.18,1797.30,-671.75
18790,-3.8713,0.2490,0.1165,-1570.07,703.55,-187.32
18800,-3.8712,0.2566,0.1232,-116.94,-1093.32,578.31
18810,-3.8712,0.2611,0.1195,851.81,-233.89,890.81
18820,-3.8712,0.2629,0.1122,1429.93,-702.64,750.18
18830,-3.8712,0.2623,0.1066,1664.31,-1640.14,359.56
18840,-3.8713,0.2594,0.1008,1586.18,1641.11,-46.69
18850,-3.8713,0.2549,0.0953,1211.18,906.74,-171.69
18860,-3.8712,0.2520,0.0940,633.06,203.61,15.81
18870,-3.8712,0.2520,0.0972,258.06,31.74,500.18
18880,-3.8712,0.2535,0.1040,258.06,437.99,1218.93
18890,-3.8712,0.2577,0.1128,461.18,1312.99,1812.68
18900,-3.8712,0.2670,0.1190,992.43,-1562.01,-1812.32
18910,-3.8712,0.2804,0.1207,-1820.07,-765.14,-1390.44
18920,-3.8712,0.2958,0.1180,-101.32,-546.39,-1234.19
18930,-3.8712,0.3123,0.1125,1867.43,-890.08,-1937.32
18940,-3.8712,0.3274,0.1042,-23.19,-1593.20,437.68
18950,-3.8713,0.3391,0.0947,1914.31,1344.36,-1406.07
18960,-3.8713,0.3457,0.0901,-585.69,125.61,1578.31
18970,-3.8713,0.3461,0.0920,258.06,-468.08,1812.62
18980,-3.8713,0.3408,0.0948,304.93,-218.08,-1187.38
18990,-3.8712,0.3344,0.0984,-366.94,141.24,343.93
19000,-3.8712,0.3318,0.1062,-1195.07,594.36,-1624.82
19010,-3.8711,0.3317,0.1146,-1523.19,1594.36,640.81
19020,-3.8711,0.3302,0.1165,-1538.82,-1327.51,-1156.07
19030,-3.8710,0.3242,0.1115,-1726.32,-1093.14,562.68
19040,-3.8710,0.3118,0.1024,1508.06,-1733.76,1390.81
19050,-3.8710,0.2953,0.0907,-85.69,1109.92,1343.93
19060,-3.8710,0.2806,0.0812,1804.93,-390.08,953.25
19070,-3.8710,0.2738,0.0800,-70.07,-1608.89,734.50
19080,-3.8710,0.2744,0.0865,-945.07,-1765.14,1015.75
19090,-3.8710,0.2776,0.0939,-866.94,-921.39,-1953.00
19100,-3.8710,0.2833,0.0989,-460.69,16.11,-499.82
19110,-3.8708,0.2930,0.1024,273.68,656.80,500.18
19120,-3.8708,0.3053,0.1056,1508.06,1109.92,828.31
19130,-3.8708,0.3191,0.1077,-913.82,1516.17,625.18
19140,-3.8710,0.3336,0.1060,851.81,1781.86,-406.07
19150,-3.8710,0.3450,0.1010,-1288.82,1563.11,1890.81
19160,-3.8711,0.3485,0.0961,164.31,922.55,-202.94
19170,-3.8711,0.3390,0.0906,617.43,297.55,1484.56
19180,-3.8712,0.3158,0.0813,-601.32,-405.64,-671.75
19190,-3.8712,0.2837,0.0675,429.93,-1593.14,1578.25
19200,-3.8712,0.2493,0.0526,320.56,641.17,234.50
19210,-3.8713,0.2191,0.0391,-85.69,-1265.20,-1015.56
19220,-3.8713,0.1948,0.0250,54.93,1000.43,1265.69
19230,-3.8715,0.1769,0.0092,945.56,-796.51,-1734.38
19240,-3.8716,0.1710,-0.0062,-1351.32,1172.18,1781.25
19250,-3.8717,0.1851,-0.0204,1898.68,-796.57,312.44
19260,-3.8719,0.2206,-0.0343,-304.44,1390.93,-859.44
19270,-3.8719,0.2686,-0.0420,242.43,-390.20,937.38
19280,-3.8719,0.3099,-0.0271,-1616.94,-1374.51,-250.12
19290,-3.8717,0.3306,0.0177,-320.07,531.80,-1062.56
19300,-3.8713,0.3368,0.0773,-1679.44,-1733.76,578.12
19310,-3.8711,0.3423,0.1300,-882.57,1891.24,-1140.50
19320,-3.8708,0.3550,0.1624,-179.44,641.24,-468.51
19330,-3.8706,0.3734,0.1681,1445.56,781.92,531.56
19340,-3.8706,0.3900,0.1464,-195.07,1516.30,969.06
19350,-3.8707,0.3992,0.1053,1929.93,-1264.89,1359.62
19360,-3.8710,0.4012,0.0601,-898.19,1485.11,-702.94
19370,-3.8711,0.3950,0.0243,-632.57,-311.77,796.94
19380,-3.8713,0.3793,0.0027,-1429.44,-889.89,-468.75
19390,-3.8713,0.3579,-0.0079,554.93,344.48,484.38
19400,-3.8715,0.3322,-0.0107,1820.56,-1014.95,-203.19
19410,-3.8713,0.3032,-0.0073,-1476.32,-1374.39,546.81
19420,-3.8713,0.2726,-0.0040,-1179.44,-936.95,1656.19
19430,-3.8713,0.2438,-0.0040,-1101.32,-515.14,-1640.69
19440,-3.8713,0.2255,-0.0074,-788.82,-515.20,-1921.94
19450,-3.8713,0.2241,-0.0123,867.43,-952.70,562.44
19460,-3.8715,0.2428,-0.0133,695.56,-1577.70,1984.31
19470,-3.8716,0.2795,-0.0079,-913.82,-1702.70,-734.44
19480,-3.8716,0.3225,0.0057,-210.69,-1015.14,1749.94
19490,-3.8716,0.3608,0.0254,1289.31,734.99,-1953.12
19500,-3.8716,0.3931,0.0443,-1804.44,-749.33,-171.88
19510,-3.8715,0.4226,0.0665,-1679.44,1672.61,-1124.94
19520,-3.8713,0.4529,0.0955,-1898.19,516.42,-984.25
19530,-3.8712,0.4855,0.1234,1976.81,219.60,-687.32
19540,-3.8711,0.5193,0.1454,-1851.32,-202.21,-1015.44
19550,-3.8710,0.5444,0.1614,-1523.19,-1389.65,-1937.26
19560,-3.8710,0.5552,0.1669,1695.56,657.29,-109.07
19570,-3.8710,0.5562,0.1526,-929.44,1360.41,-202.82
19580,-3.8710,0.5500,0.1229,-804.44,-467.71,-1827.88
19590,-3.8711,0.5372,0.0896,-1585.69,-264.59,-437.32
19600,-3.8711,0.5172,0.0593,773.68,-530.21,375.12
19610,-3.8712,0.4901,0.0347,-1788.82,-405.27,859.44
19620,-3.8713,0.4607,0.0135,-1257.57,438.42,1093.81
19630,-3.8715,0.4396,-0.0070,-1023.19,1735.23,1593.75
19640,-3.8716,0.4324,-0.0232,273.68,-889.77,-921.94
19650,-3.8716,0.4377,-0.0300,-648.19,1032.04,1624.94
19660,-3.8716,0.4501,-0.0289,39.31,157.10,1015.56
19670,-3.8716,0.4601,-0.0217,1617.43,297.73,1218.69
19680,-3.8716,0.4589,-0.0088,-1101.32,1219.60,-1953.19
19690,-3.8716,0.4452,0.0045,-1257.57,-1124.15,-1015.69
19700,-3.8715,0.4291,0.0134,992.43,578.98,187.50
19710,-3.8715,0.4222,0.0219,-1070.07,1719.54,-1796.88
19720,-3.8713,0.4293,0.0336,-1945.07,-1202.33,546.88
19730,-3.8713,0.4440,0.0441,-1038.82,297.67,-1703.06
19740,-3.8713,0.4547,0.0504,836.18,1641.48,-828.06
19750,-3.8713,0.4562,0.0533,-1788.82,-1546.02,-1046.81
19760,-3.8713,0.4504,0.0515,-1601.32,-1171.02,1437.56
19770,-3.8715,0.4379,0.0447,1664.31,-1405.40,-687.44
19780,-3.8715,0.4167,0.0323,54.93,1719.60,1359.44
19790,-3.8715,0.3881,0.0200,1351.81,141.42,562.56
19800,-3.8715,0.3535,0.0159,1679.93,-1436.77,1562.50
19810,-3.8715,0.3138,0.0166,1258.06,-1968.08,-375.00
19820,-3.8713,0.2749,0.0272,179.93,-1874.39,1875.00
19830,-3.8713,0.2450,0.0503,-804.44,-515.14,-718.75
19840,-3.8713,0.2263,0.0734,-632.57,-1562.07,-921.81
19850,-3.8713,0.2188,0.0912,976.81,1391.05,1547.00
19860,-3.8715,0.2233,0.1018,8.06,-327.70,-312.38
19870,-3.8715,0.2443,0.1052,586.18,1031.68,-1671.69
19880,-3.8715,0.2793,0.1053,-726.32,1469.18,1781.43
19890,-3.8715,0.3136,0.1047,-241.94,1484.86,1750.18
19900,-3.8715,0.3311,0.1074,148.68,1406.86,-1546.69
19910,-3.8713,0.3206,0.1133,-1616.94,1750.61,359.56
19920,-3.8713,0.2814,0.1196,1039.31,-1499.39,-1327.94
19930,-3.8712,0.2269,0.1296,23.68,-686.95,234.56
19940,-3.8712,0.1772,0.1415,1054.93,594.18,437.74
19950,-3.8713,0.1492,0.1444,-1304.44,-1890.32,-921.63
19960,-3.8713,0.1500,0.1302,-898.19,-1515.38,468.99
19970,-3.8715,0.1743,0.1090,-788.82,672.12,-1890.38
19980,-3.8715,0.2119,0.1024,-1679.44,1953.43,1203.31
19990,-3.8715,0.2523,0.1151,-866.94,1109.74,1547.06
20000,-3.8715,0.2833,0.1395,304.93,-1265.14,-1031.07
20010,-3.8713,0.2987,0.1667,273.68,1859.92,1156.49
20020,-3.8713,0.3027,0.1855,-1757.57,1344.30,-749.69
20030,-3.8712,0.3049,0.1873,-1241.94,-249.45,672.18
20040,-3.8712,0.3107,0.1755,-960.69,-30.70,1719.06
20050,-3.8712,0.3130,0.1610,-226.32,-1530.70,-1046.57
20060,-3.8711,0.3025,0.1517,70.56,609.99,609.68
20070,-3.8711,0.2755,0.1501,-1273.19,-577.58,-1234.13
20080,-3.8710,0.2358,0.1519,-726.32,-780.76,1078.37
20090,-3.8710,0.2015,0.1503,-1804.44,-562.07,-1312.26
20100,-3.8710,0.1904,0.1444,1804.93,-765.26,-1015.38
20110,-3.8710,0.2056,0.1407,383.06,-1515.26,-1749.76
20120,-3.8710,0.2439,0.1429,-1679.44,-1984.01,906.49
20130,-3.8711,0.2958,0.1490,-773.19,-1702.70,-702.88
20140,-3.8711,0.3463,0.1593,1867.43,-921.33,-1656.01
20150,-3.8711,0.3839,0.1754,336.18,391.30,-1265.32
20160,-3.8710,0.4053,0.1970,1148.68,-1546.14,15.93
20170,-3.8710,0.4144,0.2263,-116.94,1219.48,1687.87
20180,-3.8710,0.4176,0.2587,1054.93,969.54,-733.95
20190,-3.8708,0.4227,0.2778,1461.18,1110.17,78.61
20200,-3.8710,0.4314,0.2761,-1882.57,-436.71,-171.39
20210,-3.8710,0.4382,0.2563,-773.19,-655.46,-968.26
20220,-3.8710,0.4341,0.2281,101.81,813.35,1766.11
20230,-3.8710,0.4108,0.2046,-429.44,1203.92,141.05
20240,-3.8711,0.3715,0.1914,586.18,-1811.71,-1093.38
20250,-3.8711,0.3315,0.1838,-445.07,500.67,1922.24
20260,-3.8711,0.3059,0.1733,-1554.44,-468.14,562.81
20270,-3.8712,0.2999,0.1602,-835.69,-1811.95,-1077.82
20280,-3.8712,0.3143,0.1545,-1601.32,500.55,1515.93
20290,-3.8712,0.3392,0.1593,242.43,-218.14,1031.49
20300,-3.8712,0.3612,0.1648,-570.07,391.24,1422.18
20310,-3.8712,0.3798,0.1681,-1757.57,1094.42,1937.81
20320,-3.8712,0.3972,0.1689,617.43,1516.36,1812.81
20330,-3.8712,0.4095,0.1610,-1148.19,1625.73,515.93
20340,-3.8713,0.4141,0.1422,429.93,610.17,-1546.57
20350,-3.8713,0.4111,0.1212,1008.06,-1796.08,953.37
20360,-3.8713,0.3965,0.1089,633.06,-483.58,750.18
20370,-3.8713,0.3680,0.1024,-1241.94,1938.23,1500.18
20380,-3.8713,0.3334,0.0929,-882.57,1110.05,-1531.07
20390,-3.8713,0.3027,0.0807,-1320.07,-108.76,-1265.50
20400,-3.8713,0.2877,0.0745,-1241.94,-1671.33,1890.75
20410,-3.8715,0.2972,0.0834,836.18,1531.80,-265.50
20420,-3.8715,0.3317,0.1115,-1945.07,-1327.58,765.75
20430,-3.8716,0.3845,0.1497,-1538.82,-1733.76,-1374.82
20440,-3.8716,0.4473,0.1829,1226.81,-843.02,-859.13
20450,-3.8715,0.5021,0.2113,1258.06,-592.90,-1468.44
20460,-3.8713,0.5266,0.2433,273.68,-952.15,-1046.51
20470,-3.8712,0.5151,0.2749,-585.69,-858.40,-1280.82
20480,-3.8711,0.4720,0.2910,1945.56,-811.52,1281.74
20490,-3.8711,0.4004,0.2821,429.93,1250.92,-1093.20
20500,-3.8711,0.3099,0.2583,-741.94,110.11,-218.20
20510,-3.8711,0.2231,0.2321,-320.07,1063.05,-577.64
20520,-3.8711,0.1571,0.2046,570.56,1703.55,1703.55
20530,-3.8712,0.1044,0.1816,117.43,-1812.19,-749.63
20540,-3.8712,0.0569,0.1743,1367.43,-749.82,562.81
20550,-3.8713,0.0231,0.1797,-710.69,-1687.44,-1859.07
20560,-3.8713,0.0070,0.1907,-1038.82,-1000.00,781.56
20570,-3.8713,0.0016,0.2074,898.68,406.25,812.87
20580,-3.8713,0.0044,0.2307,211.18,-1453.12,1687.87
20590,-3.8713,0.0121,0.2551,570.56,1531.25,-1218.32
20600,-3.8712,0.0176,0.2703,1554.93,656.25,109.86
20610,-3.8712,0.0236,0.2721,-1741.94,-1406.25,1203.61
20620,-3.8712,0.0359,0.2666,-976.32,-1171.88,1172.36
20630,-3.8713,0.0516,0.2578,601.81,-1874.94,-77.64
20640,-3.8713,0.0626,0.2467,-1382.57,1000.06,-1812.01
20650,-3.8713,0.0636,0.2310,23.68,-421.75,672.30
20660,-3.8715,0.0558,0.2034,148.68,1562.62,-702.70
20670,-3.8715,0.0441,0.1620,-851.32,-1968.69,1562.87
20680,-3.8716,0.0323,0.1143,1648.68,734.44,-952.82
20690,-3.8717,0.0269,0.0667,148.68,-1374.94,-124.82
20700,-3.8717,0.0338,0.0205,-554.44,531.25,828.25
20710,-3.8718,0.0461,-0.0186,336.18,-1374.94,-1328.12
20720,-3.8718,0.0499,-0.0411,1914.31,1625.06,1468.69
20730,-3.8718,0.0394,-0.0455,-1601.32,-1265.56,1156.13
20740,-3.8718,0.0123,-0.0326,1054.93,-1828.06,1937.38
20750,-3.8717,-0.0269,-0.0050,1586.18,-171.88,140.50
20760,-3.8717,-0.0602,0.0309,570.56,-625.06,-15.69
20770,-3.8715,-0.0668,0.0734,304.93,-31.37,546.88
20780,-3.8713,-0.0371,0.1185,-538.82,1406.07,625.12
20790,-3.8713,0.0203,0.1575,-741.94,-812.62,-218.57
20800,-3.8712,0.0880,0.1906,-1398.19,156.25,1812.81
20810,-3.8712,0.1530,0.2220,-726.32,390.75,-890.26
20820,-3.8711,0.2057,0.2493,-413.82,422.12,828.55
20830,-3.8711,0.2432,0.2739,-1663.82,-93.38,-608.95
20840,-3.8710,0.2659,0.2927,-866.94,-937.07,-1905.76
20850,-3.8708,0.2791,0.3037,-1960.69,1469.24,297.42
20860,-3.8708,0.2860,0.3153,-273.19,-1124.51,1453.67
20870,-3.8708,0.2893,0.3264,617.43,359.92,1250.61
20880,-3.8710,0.2982,0.3311,1039.31,1781.80,-15.01
20890,-3.8710,0.3125,0.3268,-1820.07,-1624.45,1891.24
20900,-3.8711,0.3268,0.3116,8.06,1828.74,-483.76
20910,-3.8711,0.3344,0.2948,1836.18,-108.76,1500.55
20920,-3.8712,0.3295,0.2855,-1195.07,1734.99,-77.58
20930,-3.8712,0.3134,0.2830,-1820.07,547.49,-1093.20
20940,-3.8712,0.2926,0.2833,117.43,219.36,-936.95
20950,-3.8711,0.2791,0.2861,1461.18,266.17,953.67
20960,-3.8711,0.2776,0.2905,-273.19,625.49,-358.83
20970,-3.8710,0.2856,0.2894,-460.69,1187.99,1109.92
20980,-3.8710,0.3038,0.2764,570.56,1047.42,94.30
20990,-3.8711,0.3284,0.2520,-1101.32,-624.45,969.24
21000,-3.8712,0.3510,0.2283,-1960.69,250.61,1500.49
21010,-3.8713,0.3676,0.2170,929.93,1219.42,-983.95
21020,-3.8713,0.3738,0.2102,-945.07,-218.08,1531.62
21030,-3.8713,0.3710,0.1992,-148.19,-1093.08,1265.99
21040,-3.8713,0.3673,0.1930,-507.57,1500.67,-1265.26
21050,-3.8712,0.3616,0.1959,-976.32,703.80,1094.12
21060,-3.8712,0.3488,0.1980,-1710.69,1078.80,-1374.63
21070,-3.8712,0.3357,0.1877,648.68,1344.42,-1124.63
21080,-3.8712,0.3284,0.1722,-1023.19,31.86,-874.63
21090,-3.8712,0.3229,0.1625,-1960.69,-1952.51,-593.44
21100,-3.8712,0.3184,0.1571,1336.18,797.49,-1296.57
21110,-3.8712,0.3158,0.1514,758.06,109.99,1453.43
21120,-3.8712,0.3137,0.1427,429.93,-624.39,750.24
21130,-3.8712,0.3115,0.1342,164.31,-1733.76,578.37
21140,-3.8712,0.3085,0.1279,-116.94,1172.42,218.99
21150,-3.8713,0.3065,0.1251,-507.57,375.55,-327.88
21160,-3.8713,0.3053,0.1255,-757.57,16.17,-812.26
21170,-3.8713,0.3011,0.1234,-913.82,63.05,-1687.26
21180,-3.8713,0.2971,0.1140,-1445.07,-202.58,375.18
21190,-3.8715,0.2964,0.0994,-1960.69,-1405.70,1953.31
21200,-3.8715,0.2965,0.0907,1945.56,719.30,531.43
21210,-3.8715,0.2960,0.0973,1961.18,-390.08,687.62
21220,-3.8715,0.2990,0.1150,1898.68,453.67,1890.81
21230,-3.8715,0.3131,0.1372,-1726.32,-1280.70,-46.69
21240,-3.8713,0.3374,0.1562,86.18,1563.11,-1562.26
21250,-3.8712,0.3634,0.1636,-804.44,0.61,328.43
21260,-3.8712,0.3844,0.1600,-1476.32,938.17,1453.43
21270,-3.8712,0.3959,0.1505,1211.18,485.11,1828.43
21280,-3.8712,0.3960,0.1343,-1320.07,-733.64,1093.99
21290,-3.8713,0.3854,0.1166,-1304.44,1188.23,-499.76
21300,-3.8713,0.3685,0.1021,1336.18,-1077.39,1672.06
21310,-3.8713,0.3470,0.0907,-820.07,1063.17,250.18
21320,-3.8715,0.3224,0.0864,429.93,-389.95,-484.25
21330,-3.8715,0.3022,0.0912,1273.68,-936.89,-718.63
21340,-3.8715,0.2964,0.1047,-1304.44,-327.58,-187.38
21350,-3.8713,0.3074,0.1277,1945.56,1406.80,1640.81
21360,-3.8712,0.3292,0.1569,-648.19,344.30,672.12
21370,-3.8712,0.3571,0.1801,-1851.32,78.74,-109.07
21380,-3.8711,0.3881,0.1886,1711.18,-952.45,-1702.82
21390,-3.8711,0.4193,0.1875,1679.93,141.36,-999.63
21400,-3.8711,0.4458,0.1830,1679.93,0.79,1953.49
21410,-3.8711,0.4640,0.1774,1070.56,-577.27,15.93
21420,-3.8712,0.4778,0.1727,-601.32,-1296.02,1812.81
21430,-3.8713,0.4884,0.1683,1164.31,-1889.71,-124.69
21440,-3.8713,0.4950,0.1628,-1476.32,1547.79,-1452.82
21450,-3.8713,0.4983,0.1576,-632.57,844.67,1812.81
21460,-3.8713,0.5023,0.1544,-210.69,172.79,1328.43
21470,-3.8713,0.5138,0.1537,304.93,-233.40,1125.24
21480,-3.8713,0.5284,0.1537,1773.68,-327.15,1500.24
21490,-3.8713,0.5359,0.1492,-351.32,-327.15,1937.74
21500,-3.8713,0.5293,0.1348,601.81,-905.21,1343.99
21510,-3.8715,0.5103,0.1112,-241.94,1250.98,-843.51
21520,-3.8716,0.4885,0.0814,1320.56,-1764.65,-515.44
21530,-3.8717,0.4683,0.0494,-1460.69,-1577.21,-703.00
21540,-3.8718,0.4462,0.0204,-54.44,-1671.02,-656.19
21550,-3.8719,0.4250,0.0011,1117.43,-1389.77,-312.50
21560,-3.8719,0.4106,-0.0062,-1585.69,141.42,984.38
21570,-3.8719,0.4038,-0.0039,570.56,-796.08,218.69
21580,-3.8719,0.4097,0.0046,-304.44,-499.27,1328.06
21590,-3.8718,0.4326,0.0200,445.56,594.54,15.62
21600,-3.8717,0.4626,0.0477,-616.94,-1436.71,218.75
21610,-3.8716,0.4860,0.0819,-773.19,-1889.77,875.06
21620,-3.8715,0.4948,0.1077,-1788.82,-1514.71,1078.25
21630,-3.8713,0.4915,0.1215,-663.82,1782.17,843.93
21640,-3.8712,0.4856,0.1296,-1085.69,-452.21,343.93
21650,-3.8712,0.4849,0.1383,-1835.69,594.67,-281.01
21660,-3.8711,0.4895,0.1456,-1929.44,1704.04,-1531.01
21670,-3.8711,0.4924,0.1450,-1335.69,-1358.46,-343.51
21680,-3.8711,0.4849,0.1340,-960.69,-1436.58,-1015.38
21690,-3.8711,0.4655,0.1155,-1929.44,1157.17,1031.49
21700,-3.8712,0.4369,0.0968,-413.82,-1217.90,-1265.44
21710,-3.8712,0.4028,0.0820,-70.07,391.42,984.56
21720,-3.8713,0.3696,0.0682,-429.44,-1499.27,-78.00
21730,-3.8713,0.3428,0.0535,-679.44,735.05,-999.88
21740,-3.8713,0.3237,0.0446,-116.94,-1155.64,1906.31
21750,-3.8713,0.3116,0.0416,1445.56,1703.74,796.94
21760,-3.8715,0.3055,0.0411,-101.32,1328.67,-624.94
21770,-3.8715,0.3069,0.0414,-882.57,1266.17,1109.44
21780,-3.8716,0.3173,0.0386,-710.69,1297.42,1953.19
21790,-3.8717,0.3346,0.0323,617.43,938.11,-1406.19
21800,-3.8717,0.3567,0.0320,-1163.82,141.24,156.31
21810,-3.8718,0.3821,0.0437,1664.31,94.42,-1156.19
21820,-3.8718,0.4076,0.0623,914.31,1594.48,-1249.94
21830,-3.8717,0.4320,0.0792,179.93,-30.46,359.44
21840,-3.8717,0.4518,0.0908,-695.07,-1858.58,-312.38
21850,-3.8716,0.4575,0.1013,1836.18,-374.15,-156.13
21860,-3.8715,0.4456,0.1134,-1429.44,969.60,-390.44
21870,-3.8713,0.4202,0.1226,1039.31,-1483.52,-1624.82
21880,-3.8712,0.3872,0.1243,1789.31,-311.71,187.68
21890,-3.8712,0.3551,0.1217,1570.56,-93.02,1593.93
21900,-3.8712,0.3314,0.1184,1461.18,-421.20,-1374.82
21910,-3.8712,0.3159,0.1139,-1570.07,-843.14,-1140.44
21920,-3.8712,0.3036,0.1116,445.56,-1421.26,-1593.57
21930,-3.8712,0.2937,0.1112,-1132.57,-1718.20,1672.06
21940,-3.8712,0.2866,0.1093,1601.81,-1765.08,765.81
21950,-3.8713,0.2850,0.1085,695.56,1984.92,-77.94
21960,-3.8713,0.2915,0.1111,492.43,1891.17,-812.32
21970,-3.8713,0.3038,0.1184,1320.56,-1780.70,-1437.32
21980,-3.8713,0.3176,0.1321,-1101.32,-843.20,-1671.69
21990,-3.8713,0.3260,0.1484,664.31,906.86,-1499.76
22000,-3.8713,0.3256,0.1603,1742.43,-999.39,-952.88
22010,-3.8712,0.3240,0.1656,1679.93,516.24,109.68
22020,-3.8712,0.3239,0.1699,1476.81,1203.74,1375.31
22030,-3.8712,0.3191,0.1750,1461.18,1750.61,-1640.32
22040,-3.8712,0.3102,0.1782,851.81,-1593.14,-1077.82
22050,-3.8712,0.3013,0.1731,-288.82,-1186.95,-968.44
22060,-3.8712,0.2964,0.1593,-1429.44,-1843.20,-1249.69
22070,-3.8712,0.3021,0.1462,1945.56,391.17,1828.43
22080,-3.8712,0.3186,0.1415,-1320.07,-1280.70,484.62
22090,-3.8713,0.3386,0.1466,789.31,-1890.01,-312.26
22100,-3.8713,0.3573,0.1613,-648.19,-1233.76,-296.63
22110,-3.8712,0.3700,0.1807,1742.43,641.30,78.43
22120,-3.8712,0.3766,0.1967,-632.57,-874.33,328.43
22130,-3.8713,0.3815,0.2000,211.18,1172.61,-93.38
22140,-3.8713,0.3882,0.1937,836.18,1594.48,-1437.13
22150,-3.8713,0.3956,0.1874,1695.56,797.61,422.24
22160,-3.8715,0.3997,0.1835,-1351.32,-14.89,-1921.57
22170,-3.8715,0.4021,0.1802,-835.69,-514.89,140.93
22180,-3.8716,0.4061,0.1798,-523.19,-936.77,-937.19
22190,-3.8716,0.4126,0.1891,-7.57,-983.64,-546.57
22200,-3.8715,0.4236,0.2043,820.56,203.92,1312.87
22210,-3.8713,0.4413,0.2244,-1773.19,-1842.96,750.37
22220,-3.8712,0.4625,0.2489,492.43,719.60,-1983.95
22230,-3.8710,0.4806,0.2665,-788.82,-139.77,281.68
22240,-3.8708,0.4838,0.2726,1523.68,-1889.71,1969.24
22250,-3.8707,0.4688,0.2704,1929.93,-1108.46,1297.36
22260,-3.8707,0.4468,0.2640,8.06,-1389.71,-1765.14
22270,-3.8707,0.4263,0.2588,1195.56,1797.73,1984.86
22280,-3.8707,0.4082,0.2488,-1429.44,1125.79,1016.11
22290,-3.8708,0.3954,0.2299,258.06,-155.46,-577.70
22300,-3.8708,0.3903,0.2141,-1382.57,1422.61,766.05
22310,-3.8710,0.3918,0.2103,1961.18,-593.02,937.87
22320,-3.8711,0.3986,0.2168,-1835.69,-1077.39,1265.99
22330,-3.8712,0.4000,0.2291,-976.32,-249.27,-1218.38
22340,-3.8712,0.3889,0.2393,-788.82,1328.86,1281.68
22350,-3.8712,0.3672,0.2413,1789.31,-1374.27,391.05
22360,-3.8713,0.3359,0.2363,-991.94,-1108.70,-296.45
22370,-3.8713,0.2981,0.2274,-991.94,-1749.39,-1155.82
22380,-3.8713,0.2601,0.2148,-1835.69,1109.92,-1468.32
22390,-3.8713,0.2240,0.2061,1304.93,-499.51,-702.76
22400,-3.8712,0.1940,0.2140,679.93,-1624.57,1000.37
22410,-3.8712,0.1761,0.2283,836.18,-609.01,-1359.01
22420,-3.8712,0.1680,0.2306,-1445.07,1219.06,-452.70
22430,-3.8712,0.1687,0.2220,1508.06,1515.93,-187.07
22440,-3.8712,0.1788,0.2161,1601.81,422.18,-405.82
22450,-3.8712,0.1892,0.2212,-1101.32,-343.44,-999.63
22460,-3.8712,0.1926,0.2322,226.81,312.87,1891.05
22470,-3.8712,0.1904,0.2433,664.31,1719.12,891.05
22480,-3.8712,0.1882,0.2499,383.06,-859.01,250.43
22490,-3.8713,0.1906,0.2476,101.81,-15.26,-655.82
22500,-3.8713,0.1938,0.2402,398.68,-312.13,-1999.57
22510,-3.8713,0.1923,0.2343,820.56,-1249.63,359.80
22520,-3.8715,0.1830,0.2280,617.43,1984.74,-921.45
22530,-3.8715,0.1647,0.2156,-570.07,1187.81,-1015.20
22540,-3.8715,0.1385,0.1962,1086.18,-405.94,-46.51
22550,-3.8713,0.1067,0.1759,1742.43,1109.62,1734.74
22560,-3.8713,0.0723,0.1627,1664.31,-1484.19,-46.57
22570,-3.8712,0.0448,0.1589,1258.06,828.25,-1687.19
22580,-3.8711,0.0306,0.1581,1742.43,343.81,922.18
22590,-3.8711,0.0270,0.1534,-70.07,234.38,-62.19
22600,-3.8710,0.0272,0.1445,-538.82,-359.38,-1218.51
22610,-3.8708,0.0253,0.1295,-507.57,-1500.00,297.12
22620,-3.8708,0.0217,0.1067,-757.57,578.12,15.87
22630,-3.8710,0.0222,0.0806,-1210.69,1656.25,-1359.19
22640,-3.8710,0.0299,0.0580,-1148.19,-1687.50,515.75
22650,-3.8711,0.0480,0.0439,-163.82,-578.12,1796.94
22660,-3.8712,0.0791,0.0432,-1851.32,1625.06,-406.19
22670,-3.8712,0.1157,0.0570,-1866.94,1531.37,-1265.56
22680,-3.8712,0.1479,0.0804,-1179.44,-702.94,-1062.44
22690,-3.8712,0.1716,0.1019,-1054.44,-1702.88,-734.25
22700,-3.8712,0.1848,0.1144,1976.81,1047.18,-624.82
22710,-3.8712,0.1881,0.1224,-335.69,-1359.07,-468.57
22720,-3.8712,0.1854,0.1334,86.18,-327.76,-156.07
22730,-3.8711,0.1816,0.1494,-257.57,1078.43,343.99
22740,-3.8711,0.1814,0.1649,-741.94,-874.69,734.62
22750,-3.8711,0.1888,0.1765,-773.19,1109.68,94.06
22760,-3.8712,0.2021,0.1849,179.93,-1405.88,-1718.44
22770,-3.8712,0.2133,0.1897,1883.06,-327.76,172.18
22780,-3.8713,0.2201,0.1843,-695.07,281.62,-1702.76
22790,-3.8713,0.2283,0.1653,179.93,-405.82,640.93
22800,-3.8715,0.2432,0.1450,1226.81,1156.68,-687.19
22810,-3.8715,0.2635,0.1390,-866.94,-1437.07,-1531.01
22820,-3.8715,0.2854,0.1489,1742.43,1797.36,1968.99
22830,-3.8715,0.3049,0.1643,539.31,-936.95,1609.62
22840,-3.8715,0.3223,0.1731,-960.69,1031.80,1312.81
22850,-3.8715,0.3472,0.1766,1258.06,-1843.14,-1984.07
22860,-3.8715,0.3835,0.1835,445.56,-1389.95,-77.82
22870,-3.8713,0.4283,0.1932,1101.81,-514.89,1781.56
22880,-3.8713,0.4778,0.1995,-1163.82,735.17,-1124.63
22890,-3.8713,0.5195,0.1967,1164.31,1532.17,-1171.51
22900,-3.8713,0.5397,0.1863,-1491.94,1172.85,1656.62
22910,-3.8715,0.5348,0.1670,1086.18,-155.21,-421.57
22920,-3.8715,0.5127,0.1462,461.18,1376.04,1109.68
22930,-3.8716,0.4803,0.1381,1633.06,-1280.27,-702.88
22940,-3.8716,0.4391,0.1438,1492.43,1672.79,-952.88
22950,-3.8715,0.3960,0.1570,211.18,-1592.90,734.62
22960,-3.8713,0.3646,0.1738,-1304.44,94.48,234.68
22970,-3.8712,0.3499,0.1927,-1320.07,-1749.33,406.56
22980,-3.8712,0.3433,0.2065,789.31,672.55,-202.76
22990,-3.8711,0.3401,0.2131,-54.44,-1561.89,-1890.26
23000,-3.8711,0.3395,0.2134,-460.69,-718.14,-577.76
23010,-3.8711,0.3398,0.2091,-538.82,-686.89,-187.13
23020,-3.8711,0.3429,0.2037,-491.94,-1233.76,-890.26
23030,-3.8711,0.3518,0.2000,-101.32,-1921.26,1484.74
23040,-3.8712,0.3680,0.2026,1039.31,1594.42,-140.26
23050,-3.8712,0.3918,0.2107,-882.57,1938.17,-1202.76
23060,-3.8712,0.4189,0.2202,-1835.69,-1030.52,-1577.76
23070,-3.8712,0.4327,0.2288,1633.06,188.29,-1187.07
23080,-3.8711,0.4207,0.2319,-601.32,1282.04,31.68
23090,-3.8711,0.3904,0.2286,1851.81,1688.29,1531.68
23100,-3.8711,0.3557,0.2190,1976.81,1266.36,-1546.45
23110,-3.8711,0.3311,0.2054,1539.31,31.92,-1468.32
23120,-3.8711,0.3195,0.1927,-1616.94,-1702.51,1687.87
23130,-3.8712,0.3168,0.1816,898.68,672.49,-234.01
23140,-3.8712,0.3241,0.1718,554.93,-749.39,953.43
23150,-3.8713,0.3373,0.1626,1492.43,1984.99,-1749.69
23160,-3.8713,0.3492,0.1588,-820.07,813.11,734.68
23170,-3.8713,0.3549,0.1609,711.18,328.80,875.31
23180,-3.8713,0.3502,0.1628,1429.93,594.42,-1374.69
23190,-3.8712,0.3344,0.1655,836.18,844.42,1531.56
23200,-3.8711,0.3110,0.1685,-1195.07,1188.11,15.93
23210,-3.8711,0.2878,0.1656,-179.44,1563.05,703.43
23220,-3.8712,0.2716,0.1526,851.81,1203.67,-624.69
23230,-3.8712,0.2681,0.1305,-1226.32,-468.26,687.74
23240,-3.8713,0.2769,0.1111,-1679.44,703.61,1703.37
23250,-3.8715,0.2947,0.1022,-554.44,-1780.76,-1015.44
23260,-3.8715,0.3191,0.0979,1726.81,1078.67,968.93
23270,-3.8715,0.3441,0.0951,851.81,531.86,0.18
23280,-3.8716,0.3634,0.0986,54.93,172.55,-171.69
