timestamp_ms,ax,ay,az,gx,gy,gz
0,-3.8716,-0.0704,0.0972,-820.07,-922.06,-1281.07
10,-3.8717,-0.0765,0.0796,-1007.57,452.94,-593.57
20,-3.8717,-0.0951,0.0743,-1788.82,-1797.06,-781.13
30,-3.8716,-0.1310,0.0883,-163.82,1531.01,-1296.75
40,-3.8713,-0.1826,0.1189,-757.57,-687.81,15.75
50,-3.8712,-0.2356,0.1500,633.06,-765.99,1343.93
60,-3.8711,-0.2704,0.1605,1851.81,-781.74,1875.24
70,-3.8710,-0.2792,0.1389,1398.68,561.95,297.18
80,-3.8711,-0.2545,0.0931,273.68,1796.33,-437.26
90,-3.8711,-0.1995,0.0453,-570.07,-63.05,468.87
100,-3.8712,-0.1294,0.0159,-1523.19,1812.07,1343.81
110,-3.8713,-0.0559,0.0135,-554.44,-1953.43,-765.62
120,-3.8713,0.0087,0.0347,851.81,1749.88,-1968.75
130,-3.8713,0.0591,0.0709,1117.43,437.50,1953.19
140,-3.8713,0.0927,0.1096,-429.44,1078.19,-546.75
150,-3.8712,0.1134,0.1382,-132.57,-1968.63,-1374.82
160,-3.8711,0.1270,0.1548,-1476.32,1687.68,-1515.38
170,-3.8710,0.1255,0.1644,258.06,-187.26,1640.87
180,-3.8710,0.1006,0.1624,70.56,1047.12,-671.57
190,-3.8710,0.0514,0.1443,883.06,781.43,-655.94
200,-3.8710,-0.0117,0.1194,-1413.82,-1531.19,-1968.51
210,-3.8711,-0.0747,0.0974,-1491.94,-703.19,-218.57
220,-3.8711,-0.1334,0.0797,-1554.44,484.19,1250.18
230,-3.8712,-0.1863,0.0623,-1070.07,-1781.56,-359.25
240,-3.8712,-0.2292,0.0449,164.31,-15.99,-796.81
250,-3.8712,-0.2688,0.0370,-1335.69,1765.14,-453.06
260,-3.8711,-0.3059,0.0500,1601.81,749.45,703.19
270,-3.8711,-0.3354,0.0793,851.81,-1578.74,-1203.06
280,-3.8710,-0.3560,0.1058,1070.56,-1828.80,1656.37
290,-3.8708,-0.3699,0.1177,-1554.44,1561.77,1062.68
300,-3.8707,-0.3790,0.1111,664.31,-922.61,0.18
310,-3.8707,-0.3818,0.0870,-507.57,-1766.42,1000.18
320,-3.8707,-0.3790,0.0543,-866.94,-844.54,312.62
330,-3.8708,-0.3755,0.0273,-507.57,-1032.04,-1265.56
340,-3.8708,-0.3749,0.0106,-54.44,-485.17,812.50
350,-3.8710,-0.3730,-0.0007,23.68,1374.27,-968.75
360,-3.8710,-0.3652,-0.0038,258.06,-78.86,1999.94
370,-3.8710,-0.3518,0.0092,1258.06,-469.48,-1781.31
380,-3.8710,-0.3357,0.0376,-1023.19,1186.77,-375.00
390,-3.8708,-0.3119,0.0698,1039.31,827.45,1703.19
400,-3.8708,-0.2826,0.0991,86.18,952.51,-359.25
410,-3.8707,-0.2567,0.1270,-163.82,702.51,687.68
420,-3.8707,-0.2367,0.1504,-851.32,265.08,484.62
430,-3.8708,-0.2207,0.1672,1711.18,-734.86,-312.26
440,-3.8708,-0.2103,0.1780,-241.94,1421.39,-968.44
450,-3.8708,-0.2068,0.1794,1086.18,-1203.55,-1296.57
460,-3.8708,-0.2074,0.1659,1539.31,-1016.05,-1796.57
470,-3.8708,-0.2102,0.1415,1461.18,1249.57,547.18
480,-3.8710,-0.2133,0.1204,1101.81,-1875.43,1656.49
490,-3.8711,-0.2137,0.1123,711.18,-578.55,-1531.07
500,-3.8711,-0.2087,0.1212,648.68,-1609.80,281.43
510,-3.8712,-0.1949,0.1447,1289.31,-469.18,-281.07
520,-3.8711,-0.1675,0.1656,-945.07,-1469.18,578.37
530,-3.8711,-0.1321,0.1661,-1429.44,1218.38,1922.18
540,-3.8711,-0.0962,0.1388,-898.19,1280.94,-1984.07
550,-3.8712,-0.0612,0.0854,-304.44,1781.01,-234.13
560,-3.8713,-0.0302,0.0232,179.93,-1047.00,-31.13
570,-3.8715,-0.0081,-0.0360,148.68,-1015.69,-734.38
580,-3.8716,-0.0007,-0.0851,-1023.19,-593.81,-1406.37
590,-3.8716,-0.0031,-0.1028,-85.69,1124.94,156.07
600,-3.8716,-0.0022,-0.0846,-382.57,-1140.69,546.63
610,-3.8716,0.0071,-0.0469,-273.19,1187.44,-1062.68
620,-3.8715,0.0289,-0.0012,914.31,-2000.00,-1062.62
630,-3.8713,0.0669,0.0472,-288.82,-156.25,-78.19
640,-3.8711,0.1162,0.0935,570.56,-1953.00,1203.19
650,-3.8710,0.1583,0.1287,-1116.94,-31.07,1656.37
660,-3.8708,0.1846,0.1501,273.68,469.06,312.74
670,-3.8708,0.1965,0.1630,-366.94,-780.94,-1999.76
680,-3.8708,0.1919,0.1680,1164.31,859.74,-218.44
690,-3.8707,0.1725,0.1700,570.56,1500.37,1828.43
700,-3.8707,0.1503,0.1769,-1913.82,1765.93,-640.32
710,-3.8707,0.1409,0.1829,-757.57,-1359.13,-577.82
720,-3.8707,0.1490,0.1837,-1960.69,-593.51,-1687.19
730,-3.8707,0.1687,0.1848,-913.82,-484.13,875.31
740,-3.8708,0.1869,0.1858,1601.81,-343.44,-249.69
750,-3.8708,0.1947,0.1792,-70.07,-218.44,-1124.69
760,-3.8708,0.1895,0.1658,929.93,-1062.13,-1968.44
770,-3.8708,0.1761,0.1561,258.06,1219.12,1000.31
780,-3.8710,0.1661,0.1538,-1445.07,-15.32,-124.76
790,-3.8710,0.1705,0.1509,1273.68,-312.19,-827.88
800,-3.8710,0.1865,0.1407,1836.18,-687.19,-1421.63
810,-3.8710,0.2062,0.1246,-116.94,-1984.07,1375.24
820,-3.8711,0.2239,0.1077,-1601.32,-46.51,-281.07
830,-3.8711,0.2299,0.0944,664.31,1781.68,-1921.69
840,-3.8711,0.2209,0.0835,1429.93,78.55,453.31
850,-3.8712,0.2046,0.0785,289.31,-1312.07,-531.13
860,-3.8712,0.1897,0.0847,-1804.44,-1952.76,-859.25
870,-3.8712,0.1810,0.0973,289.31,-1155.88,-1171.75
880,-3.8712,0.1818,0.1085,-820.07,453.43,-1906.07
890,-3.8712,0.1919,0.1161,-726.32,1890.93,609.56
900,-3.8713,0.2096,0.1240,570.56,-1140.26,-890.44
910,-3.8713,0.2274,0.1326,-1163.82,-124.63,-1859.19
920,-3.8713,0.2399,0.1365,1117.43,969.18,1265.87
930,-3.8713,0.2504,0.1323,-1288.82,1469.18,172.12
940,-3.8715,0.2607,0.1224,54.93,937.99,-1187.26
950,-3.8715,0.2762,0.1104,1383.06,-327.64,1968.93
960,-3.8715,0.2979,0.0953,-632.57,-1874.51,1797.06
970,-3.8715,0.3152,0.0773,-1866.94,203.67,1843.93
980,-3.8715,0.3230,0.0594,351.81,1891.24,-1906.13
990,-3.8715,0.3197,0.0416,1351.81,-390.01,1875.06
1000,-3.8715,0.3085,0.0245,929.93,1328.74,703.19
1010,-3.8716,0.2921,0.0074,-507.57,-858.83,-1406.25
1020,-3.8716,0.2722,-0.0056,1398.68,953.67,343.75
1030,-3.8717,0.2533,-0.0049,-1148.19,-718.26,-906.31
1040,-3.8717,0.2378,0.0073,429.93,-624.51,-171.94
1050,-3.8716,0.2300,0.0184,-1554.44,937.93,-1000.00
1060,-3.8715,0.2363,0.0167,1445.56,-1640.20,-781.25
1070,-3.8713,0.2556,0.0032,-1741.94,-1858.95,-1921.88
1080,-3.8713,0.2808,-0.0135,726.81,406.74,-1593.75
1090,-3.8713,0.3058,-0.0321,-54.44,-1733.89,1359.31
1100,-3.8713,0.3265,-0.0508,-851.32,-108.83,828.00
1110,-3.8713,0.3475,-0.0594,1804.93,1500.61,1484.25
1120,-3.8713,0.3732,-0.0580,492.43,391.30,-1187.62
1130,-3.8713,0.4010,-0.0577,-226.32,578.80,-62.62
1140,-3.8712,0.4264,-0.0645,-663.82,610.11,734.25
1150,-3.8712,0.4435,-0.0723,-1413.82,-249.21,1921.69
1160,-3.8712,0.4561,-0.0724,773.68,-1249.15,-312.68
1170,-3.8711,0.4778,-0.0646,-1616.94,-1264.77,1562.32
1180,-3.8711,0.5121,-0.0564,1164.31,-264.71,-937.68
1190,-3.8711,0.5524,-0.0554,1554.93,782.23,-140.75
1200,-3.8711,0.5903,-0.0646,-1288.82,907.29,-609.50
1210,-3.8711,0.6189,-0.0825,-429.44,-264.53,1577.94
1220,-3.8712,0.6372,-0.1041,-773.19,1438.66,-937.68
1230,-3.8712,0.6449,-0.1233,1570.56,-1326.90,609.13
1240,-3.8713,0.6404,-0.1367,-1445.07,219.97,-1109.62
1250,-3.8713,0.6312,-0.1401,1976.81,-1498.78,-1828.43
1260,-3.8713,0.6249,-0.1356,804.93,-1936.28,1749.69
1270,-3.8713,0.6205,-0.1310,-7.57,-1358.22,937.19
1280,-3.8715,0.6187,-0.1266,-570.07,-764.47,-47.18
1290,-3.8715,0.6232,-0.1199,-804.44,-201.97,-797.18
1300,-3.8715,0.6289,-0.1116,-226.32,657.41,-1437.74
1310,-3.8715,0.6283,-0.1060,508.06,1719.97,-1781.49
1320,-3.8715,0.6198,-0.1047,429.93,-1561.28,-1672.12
1330,-3.8715,0.6040,-0.1062,-663.82,-1405.09,-1312.74
1340,-3.8715,0.5828,-0.1077,1320.56,-1592.59,-1140.87
1350,-3.8715,0.5593,-0.1063,-1398.19,-1780.15,-1531.49
1360,-3.8715,0.5403,-0.1003,-398.19,-1608.34,1781.01
1370,-3.8715,0.5277,-0.0886,1164.31,-842.71,1124.76
1380,-3.8715,0.5206,-0.0725,-445.07,657.23,781.07
1390,-3.8715,0.5203,-0.0538,-1351.32,-1280.27,1046.69
1400,-3.8715,0.5244,-0.0339,-1398.19,1110.35,1906.13
1410,-3.8715,0.5267,-0.0168,-866.94,-342.77,-968.87
1420,-3.8713,0.5221,-0.0066,-570.07,1844.73,234.31
1430,-3.8713,0.5061,-0.0031,-1163.82,-842.77,1234.31
1440,-3.8713,0.4778,-0.0024,789.31,-389.65,-1968.81
1450,-3.8713,0.4447,0.0000,1164.31,-311.58,-1156.31
1460,-3.8713,0.4155,0.0051,929.93,0.85,-328.12
1470,-3.8712,0.3892,0.0145,1195.56,657.04,812.50
1480,-3.8712,0.3610,0.0273,1820.56,1860.11,-1718.75
1490,-3.8712,0.3323,0.0387,-1788.82,-499.33,-46.88
1500,-3.8711,0.2999,0.0491,-1460.69,953.74,-1812.44
1510,-3.8710,0.2600,0.0599,-1601.32,-1718.20,828.19
1520,-3.8710,0.2146,0.0686,1289.31,-327.64,-812.44
1530,-3.8708,0.1659,0.0710,-523.19,781.62,375.12
1540,-3.8710,0.1191,0.0662,1242.43,1094.06,-124.88
1550,-3.8710,0.0857,0.0588,-741.94,468.93,-1874.88
1560,-3.8711,0.0740,0.0547,-1023.19,-468.63,-124.94
1570,-3.8711,0.0906,0.0598,1476.81,-999.88,1546.94
1580,-3.8712,0.1437,0.0765,-398.19,-343.63,-1234.31
1590,-3.8712,0.2310,0.1000,-1601.32,1797.12,156.37
1600,-3.8713,0.3289,0.1255,1570.56,797.30,-999.82
1610,-3.8713,0.4115,0.1531,-1898.19,63.11,-671.63
1620,-3.8712,0.4628,0.1849,679.93,-405.46,781.49
1630,-3.8712,0.4738,0.2169,-757.57,-327.27,-687.19
1640,-3.8711,0.4517,0.2396,648.68,-233.46,-1655.88
1650,-3.8710,0.4086,0.2501,1820.56,-1327.27,922.30
1660,-3.8710,0.3506,0.2490,304.93,16.42,-1515.14
1670,-3.8710,0.2921,0.2334,883.06,-124.33,-1327.70
1680,-3.8710,0.2484,0.2083,1398.68,1875.55,1594.18
1690,-3.8711,0.2223,0.1849,-195.07,-1343.32,-390.26
1700,-3.8711,0.2111,0.1680,461.18,-327.70,1140.93
1710,-3.8712,0.2140,0.1584,-976.32,1500.37,-1280.94
1720,-3.8712,0.2319,0.1589,-601.32,281.62,719.06
1730,-3.8713,0.2634,0.1732,1695.56,344.18,-921.57
1740,-3.8713,0.3057,0.1995,1726.81,-1827.64,-1968.44
1750,-3.8713,0.3483,0.2225,-866.94,1531.80,1672.24
1760,-3.8713,0.3682,0.2297,586.18,485.05,-1640.20
1770,-3.8712,0.3525,0.2208,-866.94,1406.92,672.30
1780,-3.8711,0.3125,0.2032,1133.06,266.30,219.18
1790,-3.8710,0.2566,0.1836,8.06,-1983.76,62.87
1800,-3.8710,0.1879,0.1659,851.81,-499.51,-562.19
1810,-3.8708,0.1239,0.1533,54.93,1234.74,-1671.57
1820,-3.8707,0.0809,0.1571,-132.57,-374.82,1156.49
1830,-3.8707,0.0637,0.1815,-1632.57,109.50,-905.94
1840,-3.8706,0.0686,0.2040,164.31,-765.50,265.93
1850,-3.8706,0.0908,0.2181,789.31,-1890.50,-1749.63
1860,-3.8705,0.1272,0.2399,-366.94,-78.00,1219.12
1870,-3.8705,0.1580,0.2716,289.31,-1296.63,-77.70
1880,-3.8704,0.1624,0.3031,226.81,-1234.07,1219.24
1890,-3.8704,0.1477,0.3228,789.31,-1202.82,375.55
1900,-3.8705,0.1317,0.3284,-1085.69,1312.74,938.11
1910,-3.8707,0.1246,0.3240,867.43,-1968.51,-546.26
1920,-3.8708,0.1246,0.3075,-38.82,1468.93,1547.49
1930,-3.8710,0.1219,0.2883,-38.82,-640.44,844.30
1940,-3.8711,0.1106,0.2836,-382.57,906.43,-1921.33
1950,-3.8711,0.0873,0.2938,-1835.69,297.06,1547.42
1960,-3.8711,0.0530,0.3132,-820.07,1609.50,-1327.58
1970,-3.8710,0.0204,0.3367,-1210.69,93.81,219.36
1980,-3.8710,0.0024,0.3553,-1382.57,-906.25,1141.24
1990,-3.8710,-0.0002,0.3594,320.56,1484.38,781.92
2000,-3.8711,0.0035,0.3391,-23.19,-1984.44,-1671.20
2010,-3.8712,0.0123,0.2969,461.18,-593.75,-1733.76
2020,-3.8713,0.0287,0.2557,1586.18,-2000.00,-1749.45
2030,-3.8715,0.0468,0.2336,-320.07,734.38,-1468.26
2040,-3.8716,0.0560,0.2291,1992.43,1906.31,-468.32
2050,-3.8716,0.0500,0.2324,-820.07,1328.19,-1640.20
2060,-3.8716,0.0297,0.2375,-1585.69,1750.06,-1015.20
2070,-3.8715,-0.0004,0.2377,-195.07,-1593.75,453.55
2080,-3.8715,-0.0315,0.2244,-38.82,-1562.56,1781.68
2090,-3.8715,-0.0579,0.1987,-23.19,734.25,-1749.57
2100,-3.8715,-0.0792,0.1689,601.81,1453.00,1484.74
2110,-3.8716,-0.0977,0.1403,1867.43,1640.44,-62.19
2120,-3.8716,-0.1174,0.1160,-491.94,1968.51,-1093.51
2130,-3.8716,-0.1426,0.1025,976.81,-1140.87,-656.07
2140,-3.8715,-0.1772,0.1031,1758.06,1140.32,1781.43
2150,-3.8713,-0.2238,0.1132,1320.56,1218.38,1859.56
2160,-3.8712,-0.2747,0.1226,-632.57,-1500.49,-1952.94
2170,-3.8711,-0.3173,0.1270,851.81,-297.42,1422.06
2180,-3.8710,-0.3412,0.1274,-601.32,264.95,172.12
2190,-3.8710,-0.3585,0.1188,336.18,327.45,-1546.63
2200,-3.8710,-0.3800,0.0990,-1882.57,-781.98,-62.32
2210,-3.8708,-0.4015,0.0731,-632.57,686.71,312.68
2220,-3.8710,-0.4197,0.0482,617.43,1374.21,-593.63
2230,-3.8710,-0.4335,0.0327,-1710.69,-1813.35,1609.44
2240,-3.8711,-0.4375,0.0262,523.68,202.27,-312.44
2250,-3.8711,-0.4210,0.0275,8.06,-625.85,-1734.38
2260,-3.8711,-0.3906,0.0383,-1882.57,-469.60,-1718.75
2270,-3.8711,-0.3595,0.0536,-1991.94,921.08,-359.31
2280,-3.8710,-0.3364,0.0638,1992.43,-1125.73,1343.81
2290,-3.8710,-0.3228,0.0671,945.56,186.83,-1046.75
2300,-3.8708,-0.3210,0.0665,-1304.44,608.70,78.25
2310,-3.8708,-0.3302,0.0660,-1085.69,530.58,562.62
2320,-3.8708,-0.3397,0.0646,1742.43,468.08,500.12
2330,-3.8708,-0.3372,0.0594,523.68,280.58,125.12
2340,-3.8708,-0.3245,0.0576,851.81,-375.67,296.94
2350,-3.8708,-0.3149,0.0609,-1523.19,-610.05,250.06
2360,-3.8708,-0.2994,0.0662,-304.44,-188.17,140.69
2370,-3.8708,-0.2719,0.0745,1679.93,483.76,1031.37
2380,-3.8708,-0.2423,0.0859,1211.18,1546.33,-1953.00
2390,-3.8708,-0.2107,0.0995,992.43,-984.86,-1046.75
2400,-3.8708,-0.1787,0.1135,1039.31,749.57,-140.44
2410,-3.8707,-0.1539,0.1252,1133.06,-1453.49,859.56
2420,-3.8707,-0.1404,0.1309,304.93,46.57,1906.49
2430,-3.8707,-0.1306,0.1255,-1960.69,765.32,-1796.63
2440,-3.8707,-0.1193,0.1085,-710.69,77.82,984.62
2450,-3.8708,-0.1082,0.0905,742.43,1906.01,-1546.69
2460,-3.8710,-0.0933,0.0795,-1835.69,-406.49,-703.00
2470,-3.8710,-0.0723,0.0759,70.56,-1812.68,359.50
2480,-3.8711,-0.0509,0.0785,-1241.94,1734.19,-1843.63
2490,-3.8711,-0.0345,0.0874,1492.43,-1937.62,484.50
2500,-3.8712,-0.0229,0.0986,-413.82,-797.00,-921.75
2510,-3.8712,-0.0133,0.1027,1070.56,640.56,1750.18
2520,-3.8712,-0.0079,0.0996,-1695.07,1156.19,781.43
2530,-3.8712,-0.0101,0.0985,-1007.57,765.56,656.43
2540,-3.8712,-0.0164,0.0986,-1288.82,624.94,1187.68
2550,-3.8712,-0.0226,0.0953,1914.31,640.56,-1734.19
2560,-3.8712,-0.0310,0.0918,1117.43,218.69,-93.57
2570,-3.8711,-0.0457,0.0908,39.31,-234.44,1437.62
2580,-3.8711,-0.0658,0.0922,-1835.69,-359.50,-1312.38
2590,-3.8710,-0.0868,0.1023,-413.82,-187.68,422.00
2600,-3.8710,-0.1036,0.1237,898.68,1109.19,-702.94
2610,-3.8708,-0.1147,0.1500,-1257.57,-156.49,-452.94
2620,-3.8706,-0.1213,0.1746,1320.56,-781.49,343.99
2630,-3.8705,-0.1179,0.1877,476.81,-1640.87,187.81
2640,-3.8705,-0.0985,0.1849,914.31,46.63,-1827.76
2650,-3.8705,-0.0665,0.1721,-601.32,-312.74,-1577.82
2660,-3.8705,-0.0265,0.1561,-507.57,-1953.31,1140.93
2670,-3.8706,0.0151,0.1393,617.43,-0.06,-1640.38
2680,-3.8707,0.0493,0.1218,1945.56,1828.12,-1015.38
2690,-3.8708,0.0691,0.1075,-1679.44,-406.19,-46.69
2700,-3.8708,0.0817,0.0978,851.81,1765.75,1234.56
2710,-3.8710,0.0966,0.0931,-1538.82,515.75,-249.82
2720,-3.8708,0.1116,0.0936,367.43,-77.94,156.37
2730,-3.8708,0.1245,0.0935,-1710.69,-15.44,1547.00
2740,-3.8708,0.1366,0.0917,-54.44,-31.07,-1484.25
2750,-3.8708,0.1500,0.0906,1492.43,-265.38,-1609.25
2760,-3.8708,0.1688,0.0911,-788.82,-406.01,1265.75
2770,-3.8710,0.1936,0.0909,1617.43,-343.44,-671.75
2780,-3.8710,0.2186,0.0897,789.31,-359.01,687.62
2790,-3.8711,0.2344,0.0891,-7.57,-515.26,1625.12
2800,-3.8712,0.2347,0.0873,-1991.94,-593.32,-1359.25
2810,-3.8713,0.2245,0.0811,-1945.07,-827.70,-15.50
2820,-3.8713,0.2108,0.0734,742.43,-1624.57,-1640.50
2830,-3.8713,0.1941,0.0677,-1007.57,1390.99,-1921.75
2840,-3.8713,0.1733,0.0616,851.81,672.24,-1843.63
2850,-3.8713,0.1503,0.0520,-1804.44,-109.07,1765.69
2860,-3.8713,0.1327,0.0414,-757.57,-1343.51,1015.69
2870,-3.8713,0.1272,0.0321,992.43,1297.12,390.69
2880,-3.8715,0.1339,0.0221,289.31,109.62,-281.19
2890,-3.8715,0.1488,0.0112,1148.68,-1171.63,-921.88
2900,-3.8715,0.1641,-0.0045,-945.07,1437.74,-1156.25
2910,-3.8715,0.1697,-0.0266,1008.06,-577.82,-1187.56
2920,-3.8715,0.1622,-0.0460,1726.81,594.06,-1218.81
2930,-3.8715,0.1459,-0.0562,773.68,-1890.32,-1281.37
2940,-3.8715,0.1295,-0.0548,-1320.07,812.74,-1078.25
2950,-3.8715,0.1199,-0.0435,586.18,984.62,-375.12
2960,-3.8713,0.1095,-0.0272,-648.19,-1562.32,1374.88
2970,-3.8713,0.0942,-0.0056,-1976.32,515.81,-171.94
2980,-3.8712,0.0811,0.0171,70.56,-718.57,1953.06
2990,-3.8712,0.0751,0.0266,-1616.94,-1812.38,-515.62
3000,-3.8711,0.0792,0.0172,1617.43,-593.63,140.62
3010,-3.8712,0.0912,-0.0046,-1851.32,-1796.75,-171.88
3020,-3.8712,0.1042,-0.0242,-320.07,-593.63,-1187.56
3030,-3.8712,0.1160,-0.0323,1351.81,906.43,1390.56
3040,-3.8712,0.1265,-0.0337,-1148.19,-140.44,46.75
3050,-3.8713,0.1370,-0.0354,195.56,-312.26,-625.12
3060,-3.8713,0.1495,-0.0393,1539.31,-531.01,-547.00
3070,-3.8713,0.1652,-0.0446,-851.32,-1031.01,-297.00
3080,-3.8713,0.1805,-0.0486,1148.68,-1702.82,-187.62
3090,-3.8712,0.1897,-0.0498,-882.57,1781.56,46.75
3100,-3.8712,0.1903,-0.0491,289.31,1625.37,546.75
3110,-3.8712,0.1858,-0.0510,367.43,1719.12,1124.88
3120,-3.8712,0.1794,-0.0596,-210.69,1469.06,1437.38
3130,-3.8712,0.1749,-0.0706,-1023.19,375.31,1296.75
3140,-3.8712,0.1758,-0.0787,-1601.32,-1030.94,577.94
3150,-3.8713,0.1814,-0.0851,-1491.94,1922.18,-937.68
3160,-3.8713,0.1870,-0.0927,-773.19,1109.68,984.19
3170,-3.8715,0.1880,-0.0997,-54.44,140.93,-859.56
3180,-3.8715,0.1859,-0.1001,70.56,-765.26,-1875.24
3190,-3.8715,0.1854,-0.0934,-195.07,-812.19,1515.38
3200,-3.8715,0.1913,-0.0839,-257.57,47.18,1046.69
3210,-3.8715,0.2047,-0.0715,492.43,1265.99,1046.69
3220,-3.8715,0.2216,-0.0596,-1788.82,-1155.88,-1765.81
3230,-3.8713,0.2421,-0.0574,367.43,375.43,468.63
3240,-3.8713,0.2689,-0.0690,-1007.57,656.68,-1937.62
3250,-3.8713,0.2999,-0.0889,-1570.07,-827.64,1593.57
3260,-3.8715,0.3322,-0.1145,-1601.32,625.55,-1125.18
3270,-3.8716,0.3624,-0.1462,-1476.32,1344.36,-797.12
3280,-3.8716,0.3904,-0.1730,-1601.32,1281.92,780.94
3290,-3.8716,0.4210,-0.1830,1976.81,1860.11,155.88
3300,-3.8716,0.4556,-0.1760,1898.68,578.92,593.38
3310,-3.8716,0.4890,-0.1605,-1679.44,1469.60,1577.76
3320,-3.8716,0.5149,-0.1428,-1398.19,-545.96,-765.99
3330,-3.8715,0.5336,-0.1254,1914.31,1719.73,-1625.31
3340,-3.8713,0.5477,-0.1206,304.93,-45.84,-1719.06
3350,-3.8712,0.5496,-0.1368,-1882.57,563.54,952.88
3360,-3.8712,0.5363,-0.1624,-1648.19,-1514.59,1687.19
3370,-3.8712,0.5168,-0.1840,648.68,-780.21,1218.38
3380,-3.8712,0.4945,-0.1940,-1835.69,454.10,999.63
3390,-3.8712,0.4728,-0.1898,-695.07,-827.21,1905.82
3400,-3.8712,0.4541,-0.1804,523.68,-295.96,-656.68
3410,-3.8711,0.4332,-0.1743,-1866.94,907.10,437.13
3420,-3.8711,0.4093,-0.1685,-538.82,1688.29,1390.26
3430,-3.8711,0.3887,-0.1593,398.68,-1561.71,-1547.24
3440,-3.8711,0.3757,-0.1501,1758.06,-389.89,-547.24
3450,-3.8710,0.3684,-0.1434,101.81,781.98,390.32
3460,-3.8710,0.3607,-0.1392,-835.69,1641.30,999.69
3470,-3.8710,0.3519,-0.1403,-1820.07,-1811.83,452.82
3480,-3.8711,0.3477,-0.1451,1054.93,-1952.45,-1250.31
3490,-3.8711,0.3545,-0.1464,508.06,1422.55,468.44
3500,-3.8712,0.3733,-0.1373,1383.06,1266.30,-1625.31
3510,-3.8712,0.3973,-0.1165,-210.69,-1577.45,1171.57
3520,-3.8712,0.4175,-0.0887,-1132.57,1094.48,874.76
3530,-3.8712,0.4213,-0.0627,1445.56,641.42,1296.69
3540,-3.8712,0.4032,-0.0453,1929.93,-30.46,-1625.18
3550,-3.8712,0.3741,-0.0367,-382.57,-1796.14,-125.12
3560,-3.8711,0.3452,-0.0355,-101.32,-702.45,1218.63
3570,-3.8711,0.3223,-0.0375,195.56,-546.20,1828.00
3580,-3.8711,0.3070,-0.0369,1258.06,-796.26,1374.88
3590,-3.8711,0.2939,-0.0322,-695.07,-718.20,406.13
3600,-3.8712,0.2805,-0.0275,1633.06,-124.45,-531.37
3610,-3.8712,0.2705,-0.0258,-85.69,484.86,-1281.31
3620,-3.8712,0.2642,-0.0243,-1366.94,703.61,-1671.94
3630,-3.8712,0.2587,-0.0187,1820.56,891.11,-1609.44
3640,-3.8712,0.2556,-0.0118,1117.43,1609.86,-1250.06
3650,-3.8712,0.2546,-0.0049,726.81,-1515.14,-937.56
3660,-3.8712,0.2479,0.0085,601.81,-624.51,-359.44
3670,-3.8711,0.2356,0.0282,-257.57,1094.18,1000.00
3680,-3.8711,0.2252,0.0457,-1835.69,-390.20,-828.12
3690,-3.8710,0.2157,0.0516,836.18,1844.18,953.19
3700,-3.8710,0.2069,0.0446,-382.57,-1390.26,1062.56
3710,-3.8711,0.2076,0.0338,-1507.57,1703.49,-421.81
3720,-3.8711,0.2196,0.0308,-1413.82,328.49,-1999.94
3730,-3.8711,0.2324,0.0393,117.43,-62.07,1609.38
3740,-3.8711,0.2393,0.0581,1758.06,1031.68,-1468.69
3750,-3.8710,0.2405,0.0815,-1366.94,-562.07,125.06
3760,-3.8710,0.2391,0.1035,-1210.69,-1562.07,-1734.25
3770,-3.8708,0.2367,0.1212,-1382.57,1250.43,718.93
3780,-3.8708,0.2305,0.1329,-1695.07,-483.95,-1765.44
3790,-3.8708,0.2159,0.1362,1508.06,1016.05,-1359.13
3800,-3.8708,0.1919,0.1312,-351.32,1437.87,-1531.01
3810,-3.8708,0.1613,0.1241,570.56,797.24,1875.24
3820,-3.8708,0.1259,0.1215,648.68,-109.07,922.06
3830,-3.8710,0.0905,0.1246,117.43,-452.88,-327.94
3840,-3.8710,0.0577,0.1287,-413.82,-46.75,-1984.19
3850,-3.8710,0.0293,0.1356,-601.32,468.81,875.24
3860,-3.8710,0.0105,0.1501,-241.94,1359.38,734.62
3870,-3.8710,0.0048,0.1647,1351.81,-781.25,828.37
3880,-3.8710,0.0161,0.1704,617.43,1078.12,484.68
3890,-3.8711,0.0476,0.1699,-1929.44,1812.50,-484.07
3900,-3.8711,0.0967,0.1715,-1898.19,1750.06,-1952.82
3910,-3.8711,0.1534,0.1769,383.06,1953.31,359.68
3920,-3.8712,0.2056,0.1853,-351.32,-1359.13,-1546.57
3930,-3.8712,0.2429,0.1920,-1679.44,-280.88,250.31
3940,-3.8713,0.2683,0.1926,-898.19,578.55,1781.62
3950,-3.8715,0.2888,0.1880,-1648.19,656.74,-687.13
3960,-3.8715,0.3040,0.1780,976.81,63.05,1640.99
3970,-3.8715,0.3135,0.1641,-1085.69,-1218.20,969.06
3980,-3.8715,0.3149,0.1556,133.06,1000.61,1453.43
3990,-3.8715,0.3042,0.1610,320.56,-77.51,-577.88
4000,-3.8713,0.2854,0.1805,-1054.44,609.92,-1405.94
4010,-3.8712,0.2684,0.2065,539.31,-890.08,-1780.94
4020,-3.8711,0.2559,0.2279,-1632.57,-1562.01,1422.24
4030,-3.8710,0.2407,0.2407,758.06,1172.36,78.55
4040,-3.8710,0.2189,0.2449,-1179.44,-1187.07,-1687.07
4050,-3.8710,0.1935,0.2401,23.68,-655.82,-390.20
4060,-3.8710,0.1665,0.2284,773.68,-1265.26,-546.45
4070,-3.8710,0.1425,0.2177,1320.56,1234.68,-1530.82
4080,-3.8710,0.1283,0.2139,-1757.57,-140.38,1609.74
4090,-3.8710,0.1255,0.2181,429.93,-624.76,1312.87
4100,-3.8710,0.1284,0.2261,70.56,-77.88,1500.37
4110,-3.8710,0.1329,0.2355,445.56,937.74,-1937.07
4120,-3.8710,0.1400,0.2498,1023.68,-1859.13,-1327.70
4130,-3.8710,0.1436,0.2665,1929.93,-31.01,-983.95
4140,-3.8710,0.1364,0.2803,-1616.94,-1890.38,-1108.89
4150,-3.8710,0.1202,0.2871,1461.18,-124.76,-1983.89
4160,-3.8710,0.1044,0.2848,-601.32,750.18,172.42
4170,-3.8711,0.0978,0.2744,1367.43,453.31,1406.80
4180,-3.8712,0.1062,0.2584,523.68,-874.82,-1968.26
4190,-3.8713,0.1313,0.2358,1601.81,1078.31,-1577.64
4200,-3.8715,0.1621,0.2063,820.56,-1812.26,-296.45
4210,-3.8715,0.1829,0.1820,758.06,-1593.44,-640.26
4220,-3.8713,0.1816,0.1721,-585.69,-702.82,1344.06
4230,-3.8712,0.1516,0.1818,-741.94,-1968.44,656.56
4240,-3.8711,0.0962,0.2090,-585.69,-734.13,422.18
4250,-3.8711,0.0292,0.2280,320.56,-1249.82,-171.51
4260,-3.8710,-0.0283,0.2242,-257.57,1187.50,-1358.95
4270,-3.8708,-0.0643,0.2090,383.06,718.69,375.43
4280,-3.8708,-0.0839,0.1931,-226.32,-1234.56,531.62
4290,-3.8710,-0.0938,0.1780,1273.68,734.19,-202.76
4300,-3.8710,-0.1002,0.1636,8.06,-1203.31,-1155.94
4310,-3.8710,-0.1122,0.1512,-820.07,952.88,1422.18
4320,-3.8711,-0.1326,0.1394,1648.68,-625.24,-327.88
4330,-3.8711,-0.1576,0.1306,-960.69,1859.07,-1562.26
4340,-3.8711,-0.1863,0.1309,-163.82,734.01,-1827.88
4350,-3.8711,-0.2211,0.1432,164.31,765.26,-874.76
4360,-3.8710,-0.2590,0.1593,-288.82,-1656.74,1234.62
4370,-3.8710,-0.2964,0.1631,-1148.19,405.70,-93.44
4380,-3.8708,-0.3291,0.1516,-1929.44,890.01,-1937.19
4390,-3.8708,-0.3542,0.1315,1883.06,-578.80,-1468.51
4400,-3.8708,-0.3713,0.1085,-1335.69,843.02,1203.37
4410,-3.8710,-0.3787,0.0879,476.81,1905.52,-1202.94
4420,-3.8710,-0.3801,0.0729,-460.69,-735.17,172.00
4430,-3.8711,-0.3828,0.0665,-648.19,1342.96,-1828.00
4440,-3.8711,-0.3870,0.0702,-991.94,530.46,1515.75
4450,-3.8711,-0.3884,0.0823,-1523.19,999.21,-1624.88
4460,-3.8710,-0.3867,0.1000,-1710.69,-1453.92,578.25
4470,-3.8710,-0.3789,0.1147,-1491.94,811.71,-406.07
4480,-3.8708,-0.3611,0.1171,-491.94,-1297.67,-1687.32
4490,-3.8708,-0.3335,0.1085,1789.31,-1000.73,-296.69
4500,-3.8708,-0.3018,0.0966,1320.56,1905.58,-312.32
4510,-3.8708,-0.2742,0.0861,1383.06,374.39,-781.07
4520,-3.8708,-0.2559,0.0813,914.31,-969.30,-1203.00
4530,-3.8708,-0.2487,0.0813,-741.94,-1578.67,1953.25
4540,-3.8708,-0.2484,0.0823,179.93,-1578.61,609.50
4550,-3.8710,-0.2495,0.0817,211.18,-1453.61,-749.88
4560,-3.8710,-0.2466,0.0811,70.56,-1531.74,-1734.25
4570,-3.8710,-0.2380,0.0885,445.56,-1609.86,-1640.50
4580,-3.8708,-0.2258,0.1094,1539.31,-656.74,78.25
4590,-3.8708,-0.2094,0.1339,-898.19,-1984.86,-1531.07
4600,-3.8707,-0.1873,0.1472,1211.18,1155.82,172.12
4610,-3.8707,-0.1637,0.1489,39.31,-1140.99,250.24
4620,-3.8708,-0.1418,0.1436,-945.07,-922.24,-1687.26
4630,-3.8710,-0.1198,0.1328,1851.81,-1609.68,-374.76
4640,-3.8710,-0.0980,0.1234,679.93,1015.38,1453.37
4650,-3.8711,-0.0818,0.1204,-538.82,-187.74,-15.44
4660,-3.8711,-0.0741,0.1226,1539.31,-578.31,-859.19
4670,-3.8711,-0.0710,0.1279,-1476.32,-297.06,-1140.44
4680,-3.8711,-0.0679,0.1360,-1085.69,390.44,-1124.76
4690,-3.8711,-0.0616,0.1469,-679.44,1421.69,-1062.26
4700,-3.8711,-0.0479,0.1558,117.43,-1187.62,-1031.01
4710,-3.8711,-0.0262,0.1548,1883.06,-47.00,-1437.26
4720,-3.8711,-0.0063,0.1450,648.68,-171.94,1297.12
4730,-3.8712,0.0078,0.1317,-804.44,-1421.94,-640.38
4740,-3.8712,0.0186,0.1178,1008.06,859.38,1453.37
4750,-3.8712,0.0288,0.1036,-1616.94,-921.88,15.81
4760,-3.8713,0.0416,0.0867,-304.44,1265.62,-624.82
4770,-3.8712,0.0559,0.0760,1336.18,-906.19,0.12
4780,-3.8712,0.0721,0.0823,-835.69,1734.44,1734.50
4790,-3.8711,0.0927,0.0988,1242.43,-1468.63,218.87
4800,-3.8711,0.1117,0.1130,-132.57,640.75,-781.07
4810,-3.8710,0.1190,0.1207,-1695.07,-1531.07,1765.81
4820,-3.8710,0.1097,0.1263,-757.57,-546.69,-1218.57
4830,-3.8710,0.0908,0.1364,-1945.07,172.06,-1906.01
4840,-3.8710,0.0767,0.1504,-366.94,1453.25,578.37
4850,-3.8711,0.0797,0.1685,1820.56,-749.88,-671.63
4860,-3.8711,0.0981,0.1899,-1788.82,1562.62,-1593.44
4870,-3.8711,0.1212,0.2079,570.56,312.68,1828.49
4880,-3.8711,0.1442,0.2147,-476.32,-1390.44,-1671.51
4890,-3.8710,0.1660,0.2061,-1538.82,-515.38,62.87
4900,-3.8710,0.1810,0.1866,1258.06,-1624.69,1719.12
4910,-3.8710,0.1826,0.1655,-820.07,-109.07,1765.93
4920,-3.8710,0.1719,0.1481,-616.94,1187.81,328.43
4930,-3.8711,0.1548,0.1376,-1991.94,-1046.57,-1109.13
4940,-3.8711,0.1411,0.1361,-179.44,1609.62,-1437.26
4950,-3.8711,0.1382,0.1385,-1929.44,1422.12,-1077.88
4960,-3.8711,0.1410,0.1370,1695.56,1734.62,-1281.01
4970,-3.8711,0.1439,0.1304,-1945.07,1531.49,1234.62
4980,-3.8712,0.1459,0.1217,-1570.07,687.74,-906.01
4990,-3.8712,0.1477,0.1145,-1320.07,-421.63,1343.93
5000,-3.8712,0.1553,0.1108,-1085.69,-1343.51,187.68
5010,-3.8713,0.1707,0.1104,-116.94,-1812.26,-281.07
5020,-3.8713,0.1884,0.1121,1851.81,-1874.69,-31.07
5030,-3.8712,0.2045,0.1139,117.43,-1655.88,578.31
5040,-3.8712,0.2155,0.1132,-1820.07,-1421.51,1062.68
5050,-3.8712,0.2148,0.1107,-413.82,-1515.26,750.18
5060,-3.8713,0.2050,0.1067,-491.94,-1827.76,-734.19
5070,-3.8713,0.1931,0.1019,-1757.57,1656.62,1312.68
5080,-3.8715,0.1887,0.1010,726.81,1047.24,-15.44
5090,-3.8715,0.1985,0.1034,164.31,922.24,-374.82
5100,-3.8715,0.2211,0.1027,1414.31,1234.74,-156.07
5110,-3.8713,0.2474,0.0951,304.93,1141.05,0.18
5120,-3.8715,0.2657,0.0823,-320.07,172.30,-531.07
5130,-3.8715,0.2686,0.0634,-1976.32,-1468.26,-1953.00
5140,-3.8715,0.2585,0.0400,-1616.94,109.86,859.50
5150,-3.8715,0.2435,0.0243,1101.81,1125.49,1109.44
5160,-3.8715,0.2229,0.0227,-820.07,-890.20,-1437.50
5170,-3.8713,0.1992,0.0310,539.31,-1093.32,265.62
5180,-3.8713,0.1858,0.0422,1508.06,-30.88,-2000.00
5190,-3.8712,0.1857,0.0483,-210.69,1406.56,156.31
5200,-3.8712,0.1898,0.0457,-226.32,-1812.19,-1703.06
5210,-3.8712,0.1927,0.0353,304.93,1844.12,-859.31
5220,-3.8712,0.1963,0.0215,679.93,515.99,-1578.06
5230,-3.8712,0.2043,0.0110,1133.06,-1249.63,968.75
5240,-3.8713,0.2189,0.0079,-1835.69,1406.62,-343.75
5250,-3.8713,0.2406,0.0134,23.68,1016.05,-531.25
5260,-3.8712,0.2655,0.0277,-1195.07,1719.18,875.00
5270,-3.8712,0.2859,0.0487,1992.43,-452.64,-828.12
5280,-3.8711,0.2990,0.0671,601.81,-1765.08,875.06
5290,-3.8711,0.3119,0.0753,-1726.32,594.30,1922.00
5300,-3.8711,0.3256,0.0774,-70.07,1641.17,-1234.25
5310,-3.8711,0.3395,0.0837,1679.93,1906.86,-859.25
5320,-3.8711,0.3572,0.0920,-538.82,-1280.64,-812.38
5330,-3.8711,0.3815,0.0885,1726.81,-218.08,-1046.75
5340,-3.8711,0.4132,0.0686,836.18,-671.14,-1703.00
5350,-3.8711,0.4408,0.0345,898.68,782.04,625.12
5360,-3.8712,0.4548,-0.0084,429.93,422.73,1953.19
5370,-3.8713,0.4563,-0.0505,-1773.19,-1077.27,-1265.69
5380,-3.8715,0.4475,-0.0846,-1585.69,1532.10,-453.25
5390,-3.8715,0.4333,-0.1102,1289.31,1172.73,1218.57
5400,-3.8715,0.4244,-0.1274,-523.19,1891.42,249.76
5410,-3.8715,0.4296,-0.1370,-1663.82,-311.71,390.32
5420,-3.8715,0.4454,-0.1442,-1007.57,-1530.46,921.57
5430,-3.8715,0.4652,-0.1512,1023.68,1547.73,1437.19
5440,-3.8715,0.4873,-0.1580,-445.07,641.48,1999.69
5450,-3.8715,0.5122,-0.1649,-1616.94,-217.83,-1406.62
5460,-3.8715,0.5371,-0.1716,1570.56,-1108.40,-859.74
5470,-3.8715,0.5537,-0.1759,758.06,-1967.71,-187.87
5480,-3.8713,0.5559,-0.1746,-1116.94,1485.41,843.38
5490,-3.8713,0.5530,-0.1666,-835.69,1657.29,-1344.12
5500,-3.8712,0.5540,-0.1525,-1210.69,-1327.09,1109.01
5510,-3.8712,0.5520,-0.1377,-1085.69,485.41,-328.43
5520,-3.8711,0.5428,-0.1271,-1335.69,-1623.96,1890.32
5530,-3.8711,0.5300,-0.1198,1492.43,-264.59,-640.93
5540,-3.8710,0.5171,-0.1115,-148.19,672.85,421.63
5550,-3.8710,0.5072,-0.1003,-1804.44,1735.35,1437.26
5560,-3.8710,0.5000,-0.0863,929.93,-842.77,-1718.99
5570,-3.8710,0.4941,-0.0710,8.06,954.10,-968.93
5580,-3.8710,0.4890,-0.0616,-741.94,-1092.83,-656.43
5590,-3.8710,0.4830,-0.0616,-1398.19,110.29,-1328.25
5600,-3.8710,0.4747,-0.0667,1836.18,110.29,890.50
5610,-3.8711,0.4661,-0.0699,773.68,-530.33,-1390.81
5620,-3.8711,0.4608,-0.0679,-335.69,-952.27,515.44
5630,-3.8712,0.4573,-0.0594,-1007.57,-686.65,-1015.81
5640,-3.8712,0.4469,-0.0494,-1460.69,391.48,-1859.50
5650,-3.8712,0.4263,-0.0413,1211.18,1672.73,-1890.75
5660,-3.8712,0.3990,-0.0328,-1429.44,-1280.46,-1328.25
5670,-3.8712,0.3708,-0.0250,-913.82,-202.39,-1015.75
5680,-3.8712,0.3513,-0.0209,-523.19,797.55,-1562.56
5690,-3.8712,0.3491,-0.0215,976.81,1328.80,1031.19
5700,-3.8713,0.3651,-0.0239,695.56,1250.67,-1062.56
5710,-3.8713,0.3896,-0.0247,-1257.57,938.17,687.44
5720,-3.8715,0.4077,-0.0198,1883.06,844.48,-984.44
5730,-3.8715,0.4126,-0.0078,195.56,1469.54,-1671.94
5740,-3.8715,0.4066,0.0083,820.56,-999.21,-937.56
5750,-3.8713,0.3905,0.0298,54.93,1063.29,1093.75
5760,-3.8713,0.3711,0.0570,1992.43,-186.77,-781.25
5770,-3.8712,0.3606,0.0807,-491.94,-702.45,765.69
5780,-3.8712,0.3634,0.0956,-1835.69,-1671.20,1875.12
5790,-3.8712,0.3745,0.1079,-1476.32,235.05,-1734.19
5800,-3.8712,0.3875,0.1250,-54.44,1813.17,-1624.82
5810,-3.8712,0.4047,0.1442,1601.81,0.73,-1515.38
5820,-3.8712,0.4268,0.1610,-195.07,-1546.14,-1859.13
5830,-3.8712,0.4430,0.1781,-1366.94,610.17,1844.06
5840,-3.8712,0.4484,0.1970,711.18,-1202.27,1656.56
5850,-3.8712,0.4485,0.2167,1398.68,1219.60,1234.74
5860,-3.8712,0.4420,0.2377,1414.31,-264.77,1406.62
5870,-3.8712,0.4260,0.2605,586.18,-1577.27,-1343.32
5880,-3.8711,0.4047,0.2792,-1460.69,1344.54,531.74
5890,-3.8711,0.3795,0.2914,-195.07,-264.89,-1343.26
5900,-3.8710,0.3522,0.3016,586.18,1297.61,672.42
5910,-3.8710,0.3289,0.3093,1086.18,-1389.95,1859.92
5920,-3.8710,0.3149,0.3092,-1898.19,-405.64,1859.92
5930,-3.8710,0.3057,0.2979,320.56,-421.26,594.30
5940,-3.8711,0.2949,0.2808,-866.94,-1874.45,-1483.83
5950,-3.8711,0.2842,0.2678,1758.06,-61.95,328.61
5960,-3.8712,0.2695,0.2655,383.06,-1718.20,-1249.51
5970,-3.8712,0.2462,0.2738,-1491.94,1984.86,-1108.89
5980,-3.8711,0.2220,0.2870,-476.32,-952.70,1016.11
5990,-3.8710,0.2030,0.2977,429.93,734.80,63.05
6000,-3.8710,0.1835,0.3018,1992.43,-1890.26,-936.95
6010,-3.8708,0.1597,0.3070,-507.57,-1374.69,1281.80
6020,-3.8708,0.1366,0.3187,445.56,-702.82,-1624.45
6030,-3.8708,0.1184,0.3252,1492.43,797.12,-1218.14
6040,-3.8708,0.1079,0.3203,-835.69,1625.18,-936.89
6050,-3.8708,0.1069,0.3093,1820.56,1000.18,-1171.26
6060,-3.8708,0.1169,0.2965,1695.56,-406.07,1688.05
6070,-3.8708,0.1331,0.2870,-1023.19,1953.31,156.80
6080,-3.8710,0.1454,0.2871,1039.31,734.62,-1343.20
6090,-3.8710,0.1520,0.2982,-1382.57,750.24,1375.55
6100,-3.8710,0.1559,0.3134,-538.82,-1827.88,469.30
6110,-3.8711,0.1604,0.3212,-38.82,109.62,-155.64
6120,-3.8711,0.1621,0.3114,539.31,1109.68,-905.64
6130,-3.8711,0.1572,0.2902,758.06,-140.32,-1905.70
6140,-3.8711,0.1509,0.2705,133.06,1140.93,891.17
6150,-3.8712,0.1450,0.2552,-679.44,-1374.76,-452.64
6160,-3.8712,0.1427,0.2484,-1429.44,672.12,1859.86
6170,-3.8713,0.1500,0.2516,-1726.32,-202.88,-437.07
6180,-3.8713,0.1624,0.2610,-788.82,203.37,969.24
6190,-3.8715,0.1676,0.2720,789.31,1406.56,-1108.89
6200,-3.8715,0.1615,0.2805,1461.18,-1187.19,-1765.14
6210,-3.8715,0.1509,0.2882,679.93,-93.44,-718.26
6220,-3.8713,0.1405,0.2910,-679.44,890.87,1391.17
6230,-3.8713,0.1320,0.2828,1992.43,1250.24,-796.33
6240,-3.8713,0.1227,0.2656,898.68,203.37,-140.08
6250,-3.8713,0.1041,0.2430,-288.82,-1999.82,-655.76
6260,-3.8713,0.0739,0.2184,1336.18,-890.44,-1687.07
6270,-3.8713,0.0405,0.1984,1461.18,-46.75,1703.49
6280,-3.8713,0.0071,0.1866,1195.56,1390.69,1906.62
6290,-3.8713,-0.0272,0.1801,914.31,-109.38,-968.44
6300,-3.8712,-0.0531,0.1733,523.68,-937.56,312.81
6310,-3.8712,-0.0636,0.1593,1211.18,-1797.00,687.81
6320,-3.8712,-0.0645,0.1361,-132.57,406.07,31.56
6330,-3.8713,-0.0645,0.1129,-241.94,1437.32,-859.13
6340,-3.8713,-0.0697,0.1013,-241.94,-1531.43,-1234.19
6350,-3.8713,-0.0830,0.1035,-913.82,984.19,-906.07
6360,-3.8712,-0.0994,0.1117,1383.06,1265.44,281.43
6370,-3.8712,-0.1094,0.1119,-710.69,-1687.74,-1781.07
6380,-3.8711,-0.1134,0.0962,-1991.94,-1656.49,625.18
6390,-3.8711,-0.1166,0.0740,1492.43,327.88,-1202.94
6400,-3.8711,-0.1200,0.0562,1086.18,1484.13,-93.63
6410,-3.8710,-0.1211,0.0439,648.68,-797.12,234.44
6420,-3.8710,-0.1208,0.0338,508.06,1640.38,953.19
6430,-3.8710,-0.1265,0.0249,539.31,343.51,-1718.69
6440,-3.8710,-0.1405,0.0209,-179.44,-797.18,-546.88
6450,-3.8708,-0.1594,0.0201,-1976.32,-1312.81,62.50
6460,-3.8708,-0.1792,0.0201,-398.19,-1406.62,1531.25
6470,-3.8707,-0.2018,0.0228,1070.56,-1406.62,31.25
6480,-3.8707,-0.2256,0.0236,-1820.07,-1062.93,-1781.25
6490,-3.8707,-0.2485,0.0177,-866.94,-969.24,-203.12
6500,-3.8706,-0.2698,0.0079,195.56,-1719.24,390.62
6510,-3.8706,-0.2872,0.0005,1476.81,1030.70,109.38
6520,-3.8707,-0.2991,-0.0001,-757.57,77.51,-375.00
6530,-3.8707,-0.3019,0.0049,1726.81,-0.61,-484.44
6540,-3.8706,-0.2971,0.0106,1367.43,640.01,46.88
6550,-3.8706,-0.2849,0.0190,1976.81,1374.39,921.88
6560,-3.8706,-0.2678,0.0305,-460.69,-1547.49,1468.75
6570,-3.8706,-0.2490,0.0428,1726.81,-78.67,1484.38
6580,-3.8706,-0.2279,0.0573,133.06,1499.51,1140.69
6590,-3.8706,-0.2052,0.0730,-1163.82,-656.74,593.81
6600,-3.8707,-0.1849,0.0845,1742.43,1358.95,-249.88
6610,-3.8707,-0.1694,0.0875,336.18,-1172.24,-1656.13
6620,-3.8707,-0.1594,0.0878,-1679.44,-781.62,437.62
6630,-3.8708,-0.1561,0.0905,-398.19,-750.37,1984.50
6640,-3.8710,-0.1562,0.0969,23.68,-406.56,-609.25
6650,-3.8710,-0.1556,0.1094,8.06,421.57,1484.56
6660,-3.8710,-0.1510,0.1257,86.18,-1984.68,93.93
6670,-3.8711,-0.1401,0.1360,679.93,109.07,-1327.88
6680,-3.8711,-0.1224,0.1338,-1929.44,1421.57,984.62
6690,-3.8712,-0.1002,0.1243,336.18,1140.38,-999.76
6700,-3.8712,-0.0776,0.1162,-820.07,-78.37,1109.56
6710,-3.8713,-0.0581,0.1152,-1929.44,-1109.56,-515.44
6720,-3.8713,-0.0405,0.1224,570.56,-1234.50,-1202.94
6730,-3.8713,-0.0243,0.1383,-1179.44,-312.62,-265.44
6740,-3.8712,-0.0111,0.1576,898.68,1718.69,1750.24
6750,-3.8712,0.0009,0.1687,-1413.82,187.44,-62.19
6760,-3.8711,0.0111,0.1680,117.43,1593.75,1469.06
6770,-3.8711,0.0186,0.1602,1429.93,1500.00,1828.43
6780,-3.8711,0.0267,0.1490,-1616.94,500.00,1406.56
6790,-3.8711,0.0369,0.1396,-570.07,-921.88,1000.24
6800,-3.8711,0.0481,0.1404,726.81,1875.06,1203.37
6810,-3.8711,0.0604,0.1523,-1835.69,1968.81,-1937.26
6820,-3.8711,0.0758,0.1688,-257.57,-499.94,-546.63
6830,-3.8710,0.0919,0.1855,1711.18,1609.50,1344.06
6840,-3.8710,0.1042,0.1982,-226.32,-249.88,-859.07
6850,-3.8708,0.1161,0.2059,1351.81,1375.18,203.49
6860,-3.8708,0.1288,0.2139,-1132.57,-1640.44,453.49
6870,-3.8708,0.1394,0.2233,492.43,-624.76,281.62
6880,-3.8708,0.1541,0.2311,1851.81,578.37,219.18
6890,-3.8708,0.1761,0.2334,-273.19,1578.37,203.55
6900,-3.8710,0.1965,0.2279,-1445.07,1875.31,-327.70
6910,-3.8710,0.2075,0.2198,1164.31,1172.24,-1546.45
6920,-3.8710,0.2109,0.2131,-1429.44,140.99,781.68
6930,-3.8711,0.2083,0.2090,-991.94,-718.38,-577.76
6940,-3.8711,0.2018,0.2095,-1335.69,-1249.63,-952.76
6950,-3.8711,0.1943,0.2085,1836.18,-1187.13,-718.38
6960,-3.8711,0.1831,0.1963,883.06,-1312.13,-124.63
6970,-3.8710,0.1670,0.1779,-554.44,1125.31,906.62
6980,-3.8710,0.1494,0.1628,1383.06,-1234.07,-1546.57
6990,-3.8708,0.1312,0.1584,-866.94,843.99,703.43
7000,-3.8708,0.1139,0.1667,804.93,281.49,-952.82
7010,-3.8707,0.1056,0.1786,-1413.82,1343.93,750.31
7020,-3.8707,0.1154,0.1835,1523.68,-1140.44,1515.93
7030,-3.8707,0.1451,0.1797,-1226.32,-515.44,1172.18
7040,-3.8708,0.1882,0.1722,-1413.82,-999.76,-46.57
7050,-3.8708,0.2346,0.1664,101.81,-1952.76,-1577.82
7060,-3.8708,0.2727,0.1642,-1960.69,1297.30,750.31
7070,-3.8710,0.2924,0.1615,-1085.69,1016.11,-1374.69
7080,-3.8710,0.2928,0.1509,1429.93,672.42,31.56
7090,-3.8711,0.2859,0.1364,1492.43,-686.95,1375.24
7100,-3.8712,0.2767,0.1233,601.81,1453.67,-1281.01
7110,-3.8712,0.2634,0.1121,-570.07,-218.26,140.81
7120,-3.8713,0.2485,0.1047,1726.81,-1655.76,-1921.69
7130,-3.8713,0.2351,0.1028,-179.44,1406.68,1062.68
7140,-3.8713,0.2296,0.1066,-1898.19,1156.68,1172.06
7150,-3.8713,0.2352,0.1097,1398.68,1641.05,1890.81
7160,-3.8713,0.2468,0.1051,-1882.57,-1952.70,-1421.69
7170,-3.8713,0.2555,0.0936,-398.19,1453.55,-1265.44
7180,-3.8713,0.2543,0.0807,711.18,-15.14,-1656.13
7190,-3.8713,0.2426,0.0675,554.93,-1671.39,1437.62
7200,-3.8713,0.2285,0.0524,-945.07,641.05,234.50
7210,-3.8715,0.2205,0.0396,1258.06,-1296.45,-874.94
7220,-3.8715,0.2217,0.0347,226.81,1062.93,-1328.06
7230,-3.8715,0.2299,0.0383,383.06,437.93,-859.31
7240,-3.8715,0.2444,0.0470,1429.93,906.68,-78.06
7250,-3.8713,0.2633,0.0542,-710.69,-1983.95,750.06
7260,-3.8713,0.2798,0.0566,1711.18,-1062.01,-1296.81
7270,-3.8712,0.2881,0.0571,-179.44,-749.51,1656.31
7280,-3.8711,0.2810,0.0527,883.06,-686.95,31.31
7290,-3.8711,0.2565,0.0438,-23.19,-1249.51,1859.44
7300,-3.8711,0.2163,0.0402,836.18,1609.86,-531.19
7310,-3.8711,0.1669,0.0439,-304.44,1140.99,-46.81
7320,-3.8711,0.1305,0.0470,1367.43,1625.31,-968.69
7330,-3.8711,0.1345,0.0444,711.18,-1984.13,1328.19
7340,-3.8712,0.1871,0.0416,1226.81,1687.74,-874.94
7350,-3.8712,0.2711,0.0381,-38.82,1328.43,328.19
7360,-3.8713,0.3594,0.0369,-1288.82,875.49,1656.31
7370,-3.8715,0.4329,0.0417,-1991.94,719.42,-78.06
7380,-3.8715,0.4783,0.0430,-585.69,1344.54,-1203.06
7390,-3.8715,0.4982,0.0374,1226.81,1500.92,-1828.06
7400,-3.8715,0.5134,0.0297,-226.32,782.17,-1671.81
7410,-3.8715,0.5332,0.0195,1726.81,-202.15,-1578.12
7420,-3.8715,0.5518,0.0011,258.06,-1498.96,1312.50
7430,-3.8716,0.5668,-0.0256,-1366.94,141.66,-1281.25
7440,-3.8717,0.5785,-0.0536,554.93,719.85,-390.69
7450,-3.8717,0.5774,-0.0808,-1945.07,1141.72,859.25
7460,-3.8718,0.5537,-0.1146,1914.31,1657.35,-1734.56
7470,-3.8719,0.5134,-0.1571,-1116.94,1329.16,-406.49
7480,-3.8719,0.4750,-0.2007,1726.81,-108.40,921.51
7490,-3.8721,0.4492,-0.2363,804.93,-1686.58,-1625.43
7500,-3.8721,0.4376,-0.2552,1508.06,1750.85,812.01
7510,-3.8721,0.4413,-0.2502,23.68,-671.02,1077.58
7520,-3.8721,0.4664,-0.2203,492.43,-30.40,-875.55
7530,-3.8719,0.5193,-0.1793,-288.82,-202.27,-1406.74
7540,-3.8718,0.5892,-0.1399,-1523.19,1047.85,-1437.87
7550,-3.8717,0.6541,-0.1083,-570.07,-1905.15,1921.57
7560,-3.8716,0.6985,-0.0889,-273.19,-1858.15,624.76
7570,-3.8716,0.7212,-0.0782,1414.31,626.34,-1328.31
7580,-3.8715,0.7349,-0.0747,320.56,1985.78,156.07
7590,-3.8715,0.7434,-0.0792,-1929.44,-1561.10,1312.32
7600,-3.8715,0.7365,-0.0874,-835.69,1860.78,-1625.18
7610,-3.8715,0.7179,-0.0908,-1726.32,813.90,-547.06
7620,-3.8713,0.6952,-0.0864,-101.32,376.34,702.94
7630,-3.8713,0.6669,-0.0803,992.43,938.84,-1234.56
7640,-3.8712,0.6357,-0.0801,1367.43,1720.03,1468.57
7650,-3.8711,0.6030,-0.0870,1383.06,1751.22,62.32
7660,-3.8711,0.5656,-0.0962,1195.56,860.53,1999.82
7670,-3.8711,0.5256,-0.1041,398.68,-311.40,-750.24
7680,-3.8711,0.4878,-0.1107,-710.69,-1327.15,-125.24
7690,-3.8711,0.4558,-0.1172,-1554.44,1829.04,-187.74
7700,-3.8711,0.4310,-0.1235,-1648.19,1000.85,-1062.74
7710,-3.8711,0.4152,-0.1277,-820.07,188.29,1093.51
7720,-3.8712,0.4120,-0.1288,1148.68,-342.96,-1781.56
7730,-3.8713,0.4274,-0.1273,742.43,-483.58,-1781.56
7740,-3.8715,0.4626,-0.1233,-1288.82,-296.08,1624.69
7750,-3.8716,0.5065,-0.1180,-773.19,219.60,1437.26
7760,-3.8717,0.5425,-0.1050,836.18,891.60,-1609.62
7770,-3.8717,0.5632,-0.0776,1445.56,-1436.46,1452.88
7780,-3.8717,0.5710,-0.0424,101.81,-1936.40,-1000.18
7790,-3.8716,0.5708,-0.0070,1101.81,-1420.78,-1218.87
7800,-3.8713,0.5613,0.0276,1070.56,-889.53,296.81
7810,-3.8712,0.5371,0.0634,-148.19,-467.71,-2000.00
7820,-3.8711,0.5021,0.1006,758.06,110.41,-796.75
7830,-3.8710,0.4592,0.1348,273.68,875.98,-109.19
7840,-3.8708,0.4099,0.1549,-1210.69,1250.85,-218.51
7850,-3.8707,0.3646,0.1586,476.81,-171.08,-1218.51
7860,-3.8706,0.3285,0.1489,-1320.07,297.55,484.68
7870,-3.8706,0.3020,0.1315,-1945.07,-936.89,937.74
7880,-3.8706,0.2849,0.1174,-1335.69,828.67,187.74
7890,-3.8707,0.2748,0.1136,476.81,-968.20,-1812.32
7900,-3.8708,0.2733,0.1205,-820.07,-1452.64,-546.69
7910,-3.8708,0.2826,0.1353,-1007.57,-577.64,359.56
7920,-3.8710,0.3022,0.1561,179.93,1313.05,1468.99
7930,-3.8711,0.3256,0.1776,-1304.44,-15.08,-906.01
7940,-3.8711,0.3439,0.1893,1679.93,-1265.01,781.56
7950,-3.8712,0.3523,0.1903,23.68,235.05,-1343.38
7960,-3.8712,0.3499,0.1876,1101.81,360.05,1000.37
7970,-3.8713,0.3378,0.1891,789.31,16.30,-155.88
7980,-3.8713,0.3163,0.1969,-757.57,203.74,-1093.38
7990,-3.8713,0.2882,0.2063,492.43,1203.74,1969.12
8000,-3.8713,0.2585,0.2111,898.68,-1593.20,969.12
8010,-3.8715,0.2260,0.2078,1101.81,-983.89,-93.38
8020,-3.8715,0.1892,0.2021,929.93,-1405.82,-1124.63
8030,-3.8715,0.1533,0.1970,226.81,1875.37,1875.37
8040,-3.8715,0.1228,0.1901,-366.94,1218.99,1484.74
8050,-3.8715,0.0950,0.1821,-273.19,328.31,1531.62
8060,-3.8715,0.0754,0.1769,164.31,-687.32,1250.31
8070,-3.8715,0.0719,0.1813,1664.31,-1359.25,234.68
8080,-3.8716,0.0807,0.1959,1211.18,-796.75,-905.94
8090,-3.8716,0.1053,0.2112,-1663.82,1078.25,-155.88
8100,-3.8715,0.1467,0.2188,1492.43,-968.57,-1812.13
8110,-3.8715,0.1918,0.2206,-1210.69,0.24,-77.70
8120,-3.8715,0.2261,0.2163,554.93,234.74,-452.70
8130,-3.8715,0.2462,0.1981,945.56,-312.07,-1827.76
8140,-3.8715,0.2507,0.1787,-476.32,1359.80,1859.74
8150,-3.8715,0.2318,0.1755,101.81,-1124.51,-1530.94
8160,-3.8715,0.1995,0.1837,1679.93,-1530.82,-468.44
8170,-3.8713,0.1746,0.1941,1539.31,-484.01,1062.81
8180,-3.8713,0.1611,0.2036,-1648.19,844.06,-1280.88
8190,-3.8712,0.1572,0.2148,633.06,-1937.19,0.37
8200,-3.8712,0.1650,0.2279,133.06,-499.69,828.49
8210,-3.8712,0.1824,0.2396,1133.06,1172.18,1828.55
8220,-3.8712,0.1943,0.2462,-648.19,-1327.82,-858.95
8230,-3.8711,0.1887,0.2502,883.06,-484.01,687.93
8240,-3.8711,0.1719,0.2543,164.31,31.62,-1937.01
8250,-3.8711,0.1534,0.2570,-1991.94,547.18,-1296.39
8260,-3.8711,0.1414,0.2600,-351.32,890.87,-1890.14
8270,-3.8711,0.1449,0.2568,-1898.19,1281.49,172.36
8280,-3.8712,0.1589,0.2400,-1445.07,875.24,1625.49
8290,-3.8713,0.1670,0.2157,351.81,-1280.94,-593.32
8300,-3.8713,0.1633,0.1920,1383.06,-390.32,-1796.51
8310,-3.8713,0.1484,0.1732,914.31,578.43,-1546.51
8320,-3.8713,0.1268,0.1696,-991.94,-1827.88,-280.94
8330,-3.8712,0.1143,0.1779,242.43,1703.37,750.31
8340,-3.8712,0.1187,0.1874,-1366.94,-1234.19,1172.18
8350,-3.8712,0.1310,0.1942,-804.44,-15.44,969.06
8360,-3.8712,0.1458,0.1991,773.68,859.62,297.24
8370,-3.8713,0.1616,0.1987,-1335.69,1484.62,-530.88
8380,-3.8713,0.1737,0.1931,695.56,1437.81,-1093.38
8390,-3.8713,0.1815,0.1956,-1757.57,719.06,-1140.26
8400,-3.8713,0.1870,0.2124,-757.57,1031.56,-1234.01
8410,-3.8713,0.1908,0.2349,-54.44,-812.19,-1546.51
8420,-3.8713,0.1945,0.2551,429.93,-1937.13,-1327.70
8430,-3.8713,0.1948,0.2739,898.68,656.62,-93.26
8440,-3.8712,0.1841,0.2909,945.56,-937.13,1953.61
8450,-3.8711,0.1572,0.3011,-429.44,1234.68,281.80
8460,-3.8711,0.1157,0.2955,133.06,-1452.82,1938.05
8470,-3.8711,0.0659,0.2799,-1179.44,1828.31,-640.08
8480,-3.8710,0.0181,0.2681,445.56,-171.75,766.11
8490,-3.8710,-0.0153,0.2666,-1679.44,-1687.50,1437.99
8500,-3.8710,-0.0315,0.2740,-1945.07,-1859.44,1687.99
8510,-3.8710,-0.0448,0.2772,-23.19,-906.37,1609.86
8520,-3.8710,-0.0670,0.2740,-1726.32,-500.12,-1858.89
8530,-3.8708,-0.0984,0.2734,-570.07,-906.43,625.49
8540,-3.8707,-0.1353,0.2755,-585.69,-984.62,672.36
8550,-3.8706,-0.1714,0.2761,-1304.44,-719.06,937.99
8560,-3.8705,-0.2008,0.2725,-1929.44,-640.99,31.74
8570,-3.8705,-0.2209,0.2582,-1695.07,-1109.80,1203.61
8580,-3.8705,-0.2396,0.2332,-273.19,1062.01,656.74
8590,-3.8706,-0.2590,0.2064,1336.18,1858.89,-999.57
8600,-3.8706,-0.2750,0.1860,-1148.19,-1563.05,937.87
8610,-3.8707,-0.2881,0.1757,804.93,-172.42,-577.82
8620,-3.8707,-0.3002,0.1678,-866.94,-1500.61,-1046.57
8630,-3.8707,-0.3077,0.1594,1586.18,1499.39,-452.82
8640,-3.8706,-0.3065,0.1582,617.43,421.26,547.18
8650,-3.8706,-0.3002,0.1636,773.68,265.01,1172.18
8660,-3.8706,-0.2939,0.1675,1586.18,952.51,1031.56
8670,-3.8706,-0.2876,0.1692,-1616.94,1452.51,125.31
8680,-3.8707,-0.2838,0.1674,-804.44,1671.26,-1171.57
8690,-3.8707,-0.2869,0.1639,-320.07,1436.89,1875.31
8700,-3.8707,-0.2931,0.1636,-710.69,999.39,1500.31
8710,-3.8707,-0.2985,0.1600,-1507.57,952.51,1203.43
8720,-3.8707,-0.2990,0.1481,1804.93,499.39,781.56
8730,-3.8708,-0.2944,0.1321,1742.43,-1031.86,-202.88
8740,-3.8708,-0.2854,0.1183,-1679.44,921.26,-1812.26
8750,-3.8708,-0.2732,0.1149,-523.19,-844.36,718.93
8760,-3.8710,-0.2584,0.1251,1039.31,-1281.80,-77.94
8770,-3.8710,-0.2418,0.1403,-1070.07,30.70,-359.13
8780,-3.8710,-0.2255,0.1503,1054.93,1968.26,-187.26
8790,-3.8708,-0.2073,0.1536,-851.32,-750.49,187.74
8800,-3.8708,-0.1862,0.1526,1476.81,-328.55,156.49
8810,-3.8710,-0.1643,0.1498,179.93,-453.49,-546.63
8820,-3.8710,-0.1440,0.1456,-1023.19,-812.87,-1656.01
8830,-3.8710,-0.1279,0.1377,1570.56,-1344.06,1172.12
8840,-3.8711,-0.1195,0.1260,-366.94,1640.32,-46.63
8850,-3.8711,-0.1162,0.1162,711.18,140.38,-874.76
8860,-3.8711,-0.1129,0.1133,1133.06,-1109.62,-937.32
8870,-3.8711,-0.1052,0.1133,1554.93,-1484.62,-718.57
8880,-3.8711,-0.0914,0.1125,-1460.69,-1484.62,-577.94
8890,-3.8711,-0.0752,0.1156,304.93,-1578.31,-437.32
8900,-3.8710,-0.0625,0.1254,-1616.94,-1187.68,140.81
8910,-3.8710,-0.0576,0.1423,8.06,62.38,1593.99
8920,-3.8710,-0.0604,0.1638,633.06,-1765.75,-499.76
8930,-3.8708,-0.0674,0.1775,273.68,984.25,1015.93
8940,-3.8708,-0.0742,0.1797,-616.94,-1265.81,1781.56
8950,-3.8708,-0.0771,0.1782,-1491.94,-984.56,1984.68
8960,-3.8708,-0.0726,0.1760,-1866.94,-1172.06,1359.68
8970,-3.8710,-0.0602,0.1733,-1288.82,-1453.31,-218.44
8980,-3.8710,-0.0431,0.1731,304.93,-1797.00,1687.81
8990,-3.8711,-0.0238,0.1772,-1507.57,-1828.25,-827.82
9000,-3.8711,-0.0011,0.1819,961.18,-1296.94,515.93
9010,-3.8712,0.0220,0.1831,-132.57,-703.19,-1577.82
9020,-3.8712,0.0408,0.1831,-1179.44,-562.50,1125.31
9030,-3.8712,0.0551,0.1859,1226.81,-562.44,359.68
9040,-3.8712,0.0647,0.1909,-945.07,-203.06,172.18
9050,-3.8712,0.0708,0.1938,289.31,437.62,625.37
9060,-3.8712,0.0737,0.1945,1070.56,812.62,1437.87
9070,-3.8712,0.0742,0.1940,1445.56,890.75,1984.74
9080,-3.8712,0.0742,0.1910,1508.06,828.25,1828.49
9090,-3.8712,0.0753,0.1852,1508.06,453.25,1062.87
9100,-3.8713,0.0789,0.1775,1648.68,-296.75,-15.32
9110,-3.8713,0.0842,0.1703,-1898.19,-1281.13,-1140.32
9120,-3.8713,0.0913,0.1659,-1210.69,1797.00,1875.31
9130,-3.8713,0.0991,0.1648,-304.44,1234.50,1469.06
9140,-3.8713,0.1055,0.1647,695.56,1093.93,-1905.94
9150,-3.8713,0.1086,0.1614,1508.06,1078.31,-343.44
9160,-3.8712,0.1096,0.1550,1914.31,656.43,1656.56
9170,-3.8712,0.1118,0.1464,-1960.69,-156.07,-531.01
9180,-3.8711,0.1163,0.1387,-1679.44,-1265.44,672.12
9190,-3.8711,0.1241,0.1385,-1101.32,1750.18,1172.12
9200,-3.8711,0.1340,0.1459,-101.32,1734.56,1312.74
9210,-3.8711,0.1440,0.1556,1164.31,-1327.88,1093.99
9220,-3.8711,0.1537,0.1617,-1554.44,-77.88,406.49
9230,-3.8712,0.1632,0.1625,-320.07,703.37,-343.44
9240,-3.8712,0.1722,0.1620,898.68,797.18,-1015.32
9250,-3.8712,0.1797,0.1613,-1945.07,734.68,-1937.19
9260,-3.8712,0.1920,0.1578,-991.94,640.93,922.18
9270,-3.8713,0.2085,0.1493,586.18,203.49,-484.07
9280,-3.8713,0.2190,0.1346,-1304.44,-890.26,1515.87
9290,-3.8715,0.2250,0.1180,39.31,1234.80,-359.13
9300,-3.8715,0.2294,0.1023,804.93,-890.20,-1468.57
9310,-3.8715,0.2292,0.0906,1367.43,1094.18,1875.18
9320,-3.8715,0.2250,0.0847,1351.81,-405.82,1203.25
9330,-3.8715,0.2200,0.0819,804.93,-1155.82,359.50
9340,-3.8716,0.2159,0.0758,164.31,-1515.20,-624.88
9350,-3.8716,0.2148,0.0613,-351.32,1703.49,-1734.25
9360,-3.8716,0.2186,0.0421,-491.94,-155.88,1171.94
9370,-3.8716,0.2236,0.0256,-7.57,1390.99,296.94
9380,-3.8716,0.2251,0.0190,633.06,-718.32,218.75
9390,-3.8716,0.2252,0.0280,820.56,-1562.07,1281.25
9400,-3.8716,0.2280,0.0460,836.18,-421.45,-1000.00
9410,-3.8715,0.2352,0.0585,1195.56,1891.05,640.69
9420,-3.8715,0.2467,0.0568,-1882.57,-515.20,1765.69
9430,-3.8715,0.2600,0.0460,-413.82,-733.95,-1890.56
9440,-3.8715,0.2711,0.0341,1289.31,1891.11,1562.56
9450,-3.8715,0.2767,0.0216,-1288.82,359.86,515.69
9460,-3.8716,0.2764,0.0103,-570.07,-1233.89,-46.88
9470,-3.8715,0.2749,0.0029,-616.94,1312.99,546.88
9480,-3.8715,0.2780,-0.0024,-804.44,375.49,1843.75
9490,-3.8715,0.2856,-0.0079,-413.82,-312.01,-687.56
9500,-3.8713,0.2965,-0.0121,570.56,-1015.08,624.94
9510,-3.8713,0.3103,-0.0129,1961.18,-1546.33,1687.44
9520,-3.8713,0.3264,-0.0079,-273.19,-1655.70,-1265.69
9530,-3.8713,0.3429,-0.0013,1789.31,-1015.01,-171.94
9540,-3.8712,0.3588,-0.0016,-101.32,-171.26,1078.06
9550,-3.8712,0.3718,-0.0103,1929.93,-202.45,-1546.94
9560,-3.8712,0.3799,-0.0211,-398.19,-1311.83,-718.81
9570,-3.8712,0.3870,-0.0294,633.06,1297.61,-640.69
9580,-3.8712,0.3992,-0.0377,1539.31,235.11,-1062.56
9590,-3.8712,0.4205,-0.0485,-898.19,-827.39,1828.00
9600,-3.8712,0.4492,-0.0625,1836.18,1797.67,109.25
9610,-3.8713,0.4789,-0.0784,1508.06,0.85,-1343.87
9620,-3.8713,0.5039,-0.0876,1304.93,1969.67,-1750.18
9630,-3.8713,0.5231,-0.0869,508.06,782.23,-1250.18
9640,-3.8713,0.5421,-0.0787,-1038.82,875.98,-93.93
9650,-3.8712,0.5614,-0.0697,1398.68,1922.91,1109.19
9660,-3.8712,0.5752,-0.0680,-132.57,-920.84,1796.69
9670,-3.8712,0.5878,-0.0735,1633.06,-702.03,1874.82
9680,-3.8712,0.5984,-0.0845,-757.57,-1405.15,1296.69
9690,-3.8712,0.6049,-0.0996,601.81,1188.66,484.19
9700,-3.8712,0.6102,-0.1145,1429.93,-748.84,93.51
9710,-3.8712,0.6141,-0.1215,-1882.57,1344.91,265.38
9720,-3.8712,0.6112,-0.1155,-1382.57,454.28,1234.13
9730,-3.8712,0.5999,-0.1035,-1757.57,1219.91,-1125.24
9740,-3.8711,0.5858,-0.0955,789.31,-1248.84,218.51
9750,-3.8711,0.5765,-0.0959,-1007.57,-217.65,702.88
9760,-3.8711,0.5787,-0.1038,1804.93,-280.15,218.51
9770,-3.8712,0.5924,-0.1128,-1913.82,-1280.15,-1156.49
9780,-3.8712,0.6094,-0.1184,-163.82,1563.60,827.88
9790,-3.8713,0.6202,-0.1185,-1991.94,844.91,-906.49
9800,-3.8713,0.6213,-0.1116,-601.32,829.28,-1812.74
9810,-3.8713,0.6139,-0.1001,-460.69,1719.91,1968.51
9820,-3.8713,0.6007,-0.0859,-1413.82,-811.34,-1468.99
9830,-3.8713,0.5867,-0.0698,898.68,1001.16,-437.68
9840,-3.8712,0.5742,-0.0532,-898.19,-936.40,656.07
9850,-3.8712,0.5649,-0.0408,1508.06,1188.60,1468.63
9860,-3.8712,0.5592,-0.0374,320.56,-1217.65,1312.38
9870,-3.8712,0.5540,-0.0410,-413.82,-780.21,265.50
9880,-3.8713,0.5455,-0.0439,-1085.69,-1248.96,-1062.62
9890,-3.8713,0.5327,-0.0431,1836.18,-1623.96,1578.00
9900,-3.8713,0.5151,-0.0391,195.56,-1514.59,765.50
9910,-3.8713,0.4938,-0.0291,1945.56,-999.02,874.88
9920,-3.8713,0.4738,-0.0122,-788.82,282.17,1781.19
9930,-3.8713,0.4579,0.0071,648.68,-1561.58,-812.56
9940,-3.8712,0.4452,0.0228,-1382.57,907.10,531.25
9950,-3.8712,0.4342,0.0332,992.43,-1077.27,1281.25
9960,-3.8712,0.4246,0.0361,-413.82,250.79,890.69
9970,-3.8713,0.4169,0.0305,-1648.19,625.79,-812.44
9980,-3.8713,0.4131,0.0203,1367.43,-92.96,312.50
9990,-3.8715,0.4141,0.0105,883.06,-1405.46,578.12
10000,-3.8716,0.4193,0.0067,1008.06,1344.54,593.75
10010,-3.8717,0.4285,0.0132,1679.93,860.17,687.50
10020,-3.8718,0.4379,0.0255,-1148.19,1688.29,1171.88
10030,-3.8719,0.4443,0.0397,54.93,-733.52,-531.25
10040,-3.8718,0.4441,0.0598,883.06,1078.98,781.31
10050,-3.8717,0.4331,0.0897,851.81,-342.90,625.06
10060,-3.8716,0.4082,0.1252,-554.44,-514.83,1562.62
10070,-3.8715,0.3707,0.1564,258.06,32.04,-1640.38
10080,-3.8713,0.3284,0.1783,-538.82,16.30,-999.69
10090,-3.8711,0.2876,0.1945,-1960.69,-1171.26,156.56
10100,-3.8710,0.2527,0.2106,820.56,891.17,1703.49
10110,-3.8708,0.2301,0.2308,351.81,-1046.39,-1437.13
10120,-3.8707,0.2224,0.2531,1461.18,1547.30,1500.43
10130,-3.8707,0.2239,0.2675,476.81,391.05,-1374.51
10140,-3.8707,0.2329,0.2683,664.31,-1765.20,-1015.14
10150,-3.8707,0.2504,0.2646,1820.56,-1655.82,-874.51
10160,-3.8707,0.2648,0.2640,54.93,1875.49,-468.26
10170,-3.8706,0.2664,0.2648,1898.68,1797.36,641.11
10180,-3.8706,0.2542,0.2688,-1898.19,1891.11,1703.61
10190,-3.8706,0.2307,0.2742,539.31,-1593.26,1391.11
10200,-3.8707,0.2028,0.2733,1539.31,-905.82,-1155.76
10210,-3.8708,0.1835,0.2625,1961.18,-1015.26,1828.61
10220,-3.8711,0.1884,0.2446,-507.57,1594.06,-1296.39
10230,-3.8713,0.2220,0.2296,117.43,-687.13,-1390.20
10240,-3.8716,0.2765,0.2231,429.93,1391.05,-1421.45
10250,-3.8718,0.3333,0.2235,-601.32,562.99,-187.07
10260,-3.8719,0.3807,0.2275,-1335.69,609.99,-124.57
10270,-3.8719,0.4126,0.2357,742.43,1125.73,-202.70
10280,-3.8718,0.4149,0.2592,820.56,-1827.33,-1062.07
10290,-3.8717,0.3896,0.2906,1117.43,1172.67,-1187.01
10300,-3.8716,0.3512,0.3090,1883.06,1203.86,1500.55
10310,-3.8716,0.3057,0.3077,961.18,-452.45,-1655.70
10320,-3.8716,0.2620,0.2948,-866.94,-608.83,1266.17
10330,-3.8717,0.2374,0.2809,1539.31,1734.86,-1233.83
10340,-3.8717,0.2316,0.2692,-1601.32,-46.45,609.86
10350,-3.8717,0.2283,0.2628,1648.68,-1546.45,391.11
10360,-3.8717,0.2234,0.2690,1226.81,1641.05,-1733.89
10370,-3.8716,0.2194,0.2872,601.81,-1562.07,1875.49
10380,-3.8715,0.2118,0.3091,86.18,766.05,1891.17
10390,-3.8713,0.1991,0.3263,-882.57,-437.13,1172.42
10400,-3.8713,0.1805,0.3356,1492.43,1765.99,-233.76
10410,-3.8712,0.1509,0.3357,-882.57,-1046.57,1672.49
10420,-3.8712,0.1139,0.3273,-679.44,-1031.01,-733.76
10430,-3.8711,0.0754,0.3167,-1413.82,1890.81,984.99
10440,-3.8711,0.0411,0.3041,1664.31,531.37,-1296.26
10450,-3.8710,0.0103,0.2930,1273.68,-1078.06,531.80
10460,-3.8710,-0.0223,0.2889,1320.56,1500.00,-1936.95
10470,-3.8710,-0.0498,0.2899,1148.68,999.94,-1046.33
10480,-3.8710,-0.0667,0.2889,1633.06,1124.88,-515.08
10490,-3.8708,-0.0781,0.2837,-523.19,999.82,203.67
10500,-3.8708,-0.0885,0.2816,-1991.94,327.94,1563.05
10510,-3.8708,-0.1010,0.2875,679.93,62.32,-827.58
10520,-3.8707,-0.1182,0.2927,-913.82,812.26,578.67
10530,-3.8707,-0.1395,0.2893,883.06,1484.13,1453.67
10540,-3.8707,-0.1617,0.2802,-1851.32,1046.57,1156.80
10550,-3.8708,-0.1785,0.2699,-695.07,-125.37,-468.26
10560,-3.8708,-0.1886,0.2555,1164.31,-1437.87,1344.24
10570,-3.8710,-0.1991,0.2367,-132.57,718.32,-296.39
10580,-3.8710,-0.2129,0.2197,-1476.32,-1687.93,-1218.32
10590,-3.8710,-0.2321,0.2047,758.06,140.20,1875.43
10600,-3.8710,-0.2552,0.1920,-1695.07,-1781.74,1140.99
10610,-3.8710,-0.2825,0.1792,-663.82,593.20,328.49
10620,-3.8711,-0.3110,0.1625,-148.19,-1047.49,-640.32
10630,-3.8711,-0.3324,0.1426,195.56,811.89,-1265.32
10640,-3.8711,-0.3430,0.1263,1461.18,-1735.05,-1484.13
10650,-3.8711,-0.3429,0.1218,101.81,186.83,-921.63
10660,-3.8710,-0.3385,0.1259,117.43,-391.30,234.56
10670,-3.8710,-0.3331,0.1310,679.93,124.33,1703.37
10680,-3.8710,-0.3260,0.1367,1367.43,780.58,-749.76
10690,-3.8708,-0.3188,0.1432,-1726.32,1514.95,359.62
10700,-3.8708,-0.3104,0.1483,-804.44,-1656.92,906.49
10710,-3.8708,-0.3027,0.1548,273.68,-1000.61,1547.12
10720,-3.8708,-0.2957,0.1598,1258.06,-172.49,-1265.38
10730,-3.8707,-0.2837,0.1528,-1835.69,468.14,62.81
10740,-3.8707,-0.2719,0.1346,-304.44,-422.49,890.87
10750,-3.8707,-0.2701,0.1179,1211.18,1249.45,578.37
10760,-3.8708,-0.2815,0.1085,1429.93,-891.17,-968.57
10770,-3.8708,-0.2971,0.1086,-23.19,1905.64,1718.93
10780,-3.8708,-0.3041,0.1199,1976.81,1921.26,1953.31
10790,-3.8708,-0.2975,0.1361,1086.18,-641.24,-718.57
10800,-3.8707,-0.2797,0.1508,1929.93,1436.89,531.49
10810,-3.8707,-0.2587,0.1575,211.18,-688.05,609.62
10820,-3.8708,-0.2397,0.1572,-1101.32,171.33,-515.32
10830,-3.8708,-0.2229,0.1560,1320.56,140.14,1765.93
10840,-3.8708,-0.2039,0.1550,-523.19,-16.11,187.74
10850,-3.8710,-0.1808,0.1539,1914.31,-141.05,-874.76
10860,-3.8710,-0.1555,0.1504,867.43,-281.62,1922.12
10870,-3.8710,-0.1340,0.1448,101.81,-734.68,109.62
10880,-3.8711,-0.1235,0.1422,-1148.19,-1453.43,1765.87
10890,-3.8712,-0.1213,0.1418,195.56,-1781.49,-687.26
10900,-3.8712,-0.1228,0.1382,476.81,-1828.37,1781.49
10910,-3.8712,-0.1256,0.1375,289.31,1702.88,1765.87
10920,-3.8712,-0.1257,0.1448,-70.07,1609.07,-1406.01
10930,-3.8712,-0.1195,0.1514,-85.69,-1453.43,-343.51
10940,-3.8711,-0.1067,0.1500,711.18,-609.62,640.87
10950,-3.8711,-0.0884,0.1445,-1648.19,-781.49,828.37
10960,-3.8712,-0.0691,0.1404,695.56,-1484.56,-140.38
10970,-3.8712,-0.0524,0.1377,-835.69,1984.19,-1702.88
10980,-3.8712,-0.0385,0.1389,1304.93,1640.50,1031.49
10990,-3.8712,-0.0275,0.1439,-913.82,1796.75,390.87
11000,-3.8712,-0.0167,0.1466,492.43,-1562.56,140.87
11010,-3.8712,-0.0043,0.1494,1867.43,-1218.81,140.87
11020,-3.8712,0.0090,0.1555,-538.82,-859.44,437.74
11030,-3.8712,0.0234,0.1615,1164.31,-93.75,1125.24
11040,-3.8712,0.0398,0.1661,-991.94,671.88,1734.68
11050,-3.8712,0.0579,0.1707,1101.81,1265.69,1703.43
11060,-3.8712,0.0769,0.1760,-585.69,1843.81,1187.81
11070,-3.8712,0.0946,0.1823,1851.81,-1468.63,750.31
11080,-3.8712,0.1084,0.1886,117.43,-671.69,547.18
11090,-3.8712,0.1198,0.1953,1883.06,140.81,406.62
11100,-3.8712,0.1332,0.2000,-663.82,1000.18,344.12
11110,-3.8712,0.1484,0.2015,1054.93,1593.99,515.99
11120,-3.8712,0.1631,0.2035,-991.94,1797.12,812.87
11130,-3.8712,0.1821,0.2065,883.06,-1952.82,1187.87
11140,-3.8712,0.2090,0.2054,-679.44,-1562.19,1812.87
11150,-3.8712,0.2371,0.1962,-1241.94,-1702.76,-1780.88
11160,-3.8712,0.2595,0.1824,-1648.19,1109.80,1640.99
11170,-3.8713,0.2775,0.1697,1226.81,-655.76,-62.19
11180,-3.8713,0.2894,0.1589,-476.32,1719.24,1703.43
11190,-3.8715,0.2937,0.1495,1054.93,344.30,-265.32
11200,-3.8715,0.2942,0.1399,1601.81,-858.83,-1249.76
11210,-3.8715,0.2937,0.1302,1664.31,1906.80,-1062.26
11220,-3.8715,0.2937,0.1268,1601.81,672.42,-156.01
11230,-3.8713,0.2943,0.1316,1601.81,234.92,843.99
11240,-3.8713,0.2963,0.1370,1679.93,844.30,1547.12
11250,-3.8713,0.3021,0.1372,1929.93,1531.80,-1937.26
11260,-3.8713,0.3104,0.1326,-1320.07,1563.05,-1687.26
11270,-3.8713,0.3132,0.1216,-257.57,969.30,-1999.76
11280,-3.8713,0.3063,0.1039,101.81,-436.89,1125.18
11290,-3.8713,0.2943,0.0858,-788.82,1297.42,172.06
11300,-3.8715,0.2823,0.0739,1679.93,-1015.08,-468.63
11310,-3.8715,0.2749,0.0657,148.68,1453.67,-671.75
11320,-3.8715,0.2769,0.0575,-804.44,406.74,-671.75
11330,-3.8715,0.2871,0.0472,-554.44,-640.14,-406.19
11340,-3.8713,0.3025,0.0360,758.06,-1952.58,187.56
11350,-3.8713,0.3224,0.0271,-1273.19,609.92,718.81
11360,-3.8713,0.3459,0.0192,1273.68,-530.64,1203.12
11370,-3.8713,0.3682,0.0133,289.31,-1546.20,1937.50
11380,-3.8713,0.3850,0.0123,-866.94,1703.80,-1281.25
11390,-3.8713,0.3979,0.0153,1289.31,1578.86,-546.88
11400,-3.8712,0.4056,0.0170,-1054.44,1953.86,359.38
11410,-3.8712,0.4045,0.0143,-70.07,-1827.39,1500.00
11420,-3.8712,0.3979,0.0111,-210.69,1828.86,-1406.25
11430,-3.8712,0.3922,0.0128,-1054.44,1422.61,-453.12
11440,-3.8711,0.3917,0.0184,-1788.82,1641.36,687.50
11450,-3.8711,0.4004,0.0220,-1851.32,-1639.89,1859.38
11460,-3.8711,0.4231,0.0186,-741.94,-1186.77,-1734.38
11470,-3.8711,0.4634,0.0061,-1835.69,-1624.21,1468.75
11480,-3.8712,0.5115,-0.0134,-679.44,782.10,-484.38
11490,-3.8712,0.5502,-0.0344,1476.81,-1717.77,1062.44
11500,-3.8713,0.5736,-0.0505,-1570.07,-405.21,-1343.87
11510,-3.8713,0.5907,-0.0568,1429.93,1532.35,906.13
11520,-3.8713,0.6003,-0.0598,-382.57,735.47,78.00
11530,-3.8715,0.5974,-0.0713,851.81,344.91,-47.00
11540,-3.8715,0.5854,-0.0876,476.81,-1123.84,-0.18
11550,-3.8715,0.5685,-0.1006,-1054.44,782.35,-265.81
11560,-3.8715,0.5553,-0.1052,773.68,-873.90,-734.62
11570,-3.8715,0.5511,-0.1056,-913.82,-1467.71,-1015.87
11580,-3.8715,0.5527,-0.1084,-1445.07,-1514.59,-734.62
11590,-3.8715,0.5548,-0.1106,-1241.94,-1873.96,-31.49
11600,-3.8713,0.5529,-0.1078,-976.32,1844.79,452.88
11610,-3.8713,0.5476,-0.1021,-1226.32,-1795.84,515.38
11620,-3.8713,0.5435,-0.0984,-1898.19,-1061.46,484.13
11630,-3.8713,0.5393,-0.0994,1570.56,-592.71,421.63
11640,-3.8713,0.5322,-0.1007,1039.31,-717.71,484.13
11650,-3.8713,0.5227,-0.0989,133.06,-889.59,515.38
11660,-3.8713,0.5120,-0.0970,-1085.69,-655.27,296.63
11670,-3.8715,0.5016,-0.0972,1539.31,-420.90,-156.49
11680,-3.8715,0.4939,-0.0981,211.18,-436.52,-781.49
11690,-3.8715,0.4899,-0.1012,-773.19,-561.58,-1422.12
11700,-3.8715,0.4899,-0.1063,-1288.82,-952.21,-1968.99
11710,-3.8715,0.4972,-0.1099,-1288.82,-1608.46,1749.76
11720,-3.8715,0.5126,-0.1073,-351.32,1938.42,1984.13
11730,-3.8715,0.5321,-0.0952,1617.43,-1733.40,-1172.12
11740,-3.8715,0.5525,-0.0753,117.43,-186.46,-62.74
11750,-3.8713,0.5691,-0.0524,-1273.19,-1639.59,1187.32
11760,-3.8713,0.5771,-0.0281,851.81,1297.97,-1000.12
11770,-3.8712,0.5739,-0.0018,1883.06,407.35,1296.81
11780,-3.8712,0.5613,0.0221,1461.18,-233.28,-500.06
11790,-3.8711,0.5452,0.0380,-148.19,-1170.84,1390.62
11800,-3.8711,0.5306,0.0483,1789.31,860.41,-1218.69
11810,-3.8711,0.5215,0.0582,-70.07,-1811.52,-1046.81
11820,-3.8711,0.5220,0.0649,-1241.94,-545.90,1656.31
11830,-3.8712,0.5308,0.0670,-1179.44,313.48,-515.50
11840,-3.8712,0.5389,0.0710,-54.44,579.10,1281.37
11850,-3.8713,0.5393,0.0846,992.43,1094.79,-359.25
11860,-3.8713,0.5315,0.1071,1039.31,-1170.84,-1687.38
11870,-3.8713,0.5211,0.1313,39.31,1704.16,922.06
11880,-3.8715,0.5160,0.1503,-1288.82,813.48,-843.51
11890,-3.8715,0.5188,0.1624,-1945.07,-764.65,328.37
11900,-3.8716,0.5288,0.1711,-1585.69,782.23,531.56
11910,-3.8717,0.5380,0.1802,-304.44,1907.23,765.93
11920,-3.8718,0.5330,0.1880,867.43,-936.46,1969.06
11930,-3.8718,0.5107,0.1976,226.81,63.54,734.74
11940,-3.8718,0.4772,0.2148,1383.06,1297.85,1078.49
11950,-3.8718,0.4374,0.2324,1086.18,-499.08,-1999.63
11960,-3.8718,0.3942,0.2433,-7.57,1750.79,-890.20
11970,-3.8717,0.3489,0.2524,-1538.82,-858.64,844.18
11980,-3.8717,0.3102,0.2646,664.31,313.17,-874.51
11990,-3.8716,0.2843,0.2744,-288.82,1875.55,1781.74
12000,-3.8715,0.2684,0.2751,398.68,-874.45,1219.24
12010,-3.8713,0.2572,0.2709,-1632.57,-780.76,1422.36
12020,-3.8712,0.2418,0.2705,929.93,-1327.64,1266.11
12030,-3.8712,0.2170,0.2772,-1038.82,-1374.57,-202.64
12040,-3.8711,0.1824,0.2863,-210.69,-515.26,953.61
12050,-3.8711,0.1460,0.2958,-648.19,640.93,984.92
12060,-3.8711,0.1234,0.3080,-1304.44,1859.62,234.92
12070,-3.8712,0.1289,0.3195,-195.07,-577.94,-921.33
12080,-3.8712,0.1667,0.3257,508.06,890.87,1672.49
12090,-3.8712,0.2264,0.3292,1351.81,1687.81,234.99
12100,-3.8713,0.2892,0.3331,992.43,-1858.95,-546.26
12110,-3.8713,0.3334,0.3411,1023.68,-1358.83,-218.14
12120,-3.8712,0.3450,0.3562,-1320.07,-343.14,875.61
12130,-3.8712,0.3251,0.3730,164.31,1594.42,-1874.33
12140,-3.8712,0.2841,0.3865,1617.43,-249.39,-577.45
12150,-3.8711,0.2343,0.3961,367.43,1469.30,844.48
12160,-3.8711,0.1930,0.4001,1992.43,-1296.45,-1702.39
12170,-3.8711,0.1754,0.3969,711.18,-780.88,-561.77
12180,-3.8711,0.1746,0.3839,-1538.82,-1202.82,-1061.77
12190,-3.8711,0.1781,0.3639,-1648.19,1140.93,547.61
12200,-3.8712,0.1833,0.3511,-1195.07,-1421.57,1594.42
12210,-3.8713,0.1873,0.3523,-523.19,937.81,-1374.33
12220,-3.8715,0.1879,0.3640,-23.19,1094.06,-139.95
12230,-3.8715,0.1852,0.3813,54.93,-1405.88,1516.30
12240,-3.8716,0.1737,0.3949,-288.82,812.81,-624.27
12250,-3.8716,0.1466,0.4015,-1757.57,-1452.82,1485.11
12260,-3.8716,0.1023,0.4033,-1226.32,-609.13,563.23
12270,-3.8716,0.0458,0.4043,1101.81,-374.82,1766.36
12280,-3.8715,-0.0128,0.4139,1867.43,-249.94,1235.11
12290,-3.8713,-0.0619,0.4359,-1632.57,999.94,1407.04
12300,-3.8712,-0.0964,0.4529,86.18,-187.62,500.79
12310,-3.8712,-0.1199,0.4469,-335.69,1984.13,-1921.02
12320,-3.8712,-0.1305,0.4249,664.31,1218.51,-1983.52
12330,-3.8713,-0.1311,0.3979,-695.07,-1594.06,-249.21
12340,-3.8713,-0.1339,0.3700,-773.19,-1047.18,391.36
12350,-3.8715,-0.1448,0.3489,-1132.57,-625.31,-1639.95
12360,-3.8715,-0.1599,0.3472,1476.81,671.57,-733.70
12370,-3.8713,-0.1724,0.3672,-460.69,452.76,-1343.08
12380,-3.8712,-0.1753,0.3922,1945.56,-984.74,-1030.58
12390,-3.8711,-0.1652,0.3997,1570.56,-1781.62,-874.27
12400,-3.8710,-0.1500,0.3855,-1132.57,-828.49,-1171.14
12410,-3.8708,-0.1389,0.3574,804.93,1359.07,1156.98
12420,-3.8708,-0.1328,0.3223,-1773.19,1765.32,1672.55
12430,-3.8708,-0.1356,0.2920,-991.94,1265.32,938.11
12440,-3.8710,-0.1534,0.2719,-1351.32,1390.32,-358.83
12450,-3.8710,-0.1814,0.2573,367.43,-1187.81,-1140.14
12460,-3.8710,-0.2117,0.2471,789.31,952.76,-827.64
12470,-3.8708,-0.2421,0.2438,914.31,-359.80,391.05
12480,-3.8708,-0.2739,0.2487,1023.68,-781.74,-1858.95
12490,-3.8707,-0.3063,0.2572,945.56,-156.80,437.93
12500,-3.8707,-0.3417,0.2632,804.93,936.89,-452.64
12510,-3.8706,-0.3811,0.2633,273.68,1702.45,-374.51
12520,-3.8705,-0.4161,0.2551,-773.19,1717.96,-171.39
12530,-3.8704,-0.4460,0.2391,-1257.57,671.02,-1468.26
12540,-3.8704,-0.4740,0.2189,-1085.69,-1375.92,-1140.20
12550,-3.8704,-0.4966,0.1986,-663.82,30.27,1281.68
12560,-3.8705,-0.5087,0.1797,445.56,1436.52,-968.38
12570,-3.8705,-0.5063,0.1699,-1101.32,-985.41,1453.43
12580,-3.8705,-0.4865,0.1765,-804.44,1764.59,765.93
12590,-3.8705,-0.4481,0.1954,1742.43,-1391.60,375.31
12600,-3.8705,-0.3961,0.2183,-1351.32,1030.33,578.49
12610,-3.8705,-0.3411,0.2391,1304.93,-47.67,1562.87
12620,-3.8705,-0.2915,0.2568,351.81,-1375.67,-1640.20
12630,-3.8705,-0.2527,0.2710,-1304.44,890.01,-1999.51
12640,-3.8705,-0.2258,0.2816,-335.69,-1297.42,516.11
12650,-3.8706,-0.2081,0.2932,-898.19,62.01,-1733.83
12660,-3.8707,-0.1952,0.3054,1367.43,1546.45,-186.95
12670,-3.8707,-0.1848,0.3116,-976.32,-891.05,1391.17
12680,-3.8708,-0.1764,0.3049,351.81,-94.12,-1077.58
12690,-3.8708,-0.1686,0.2852,1429.93,-953.49,625.55
12700,-3.8710,-0.1582,0.2631,-1570.07,515.26,-1374.45
12710,-3.8710,-0.1417,0.2472,-241.94,1687.13,953.61
12720,-3.8710,-0.1184,0.2400,1867.43,-344.06,562.93
12730,-3.8710,-0.0916,0.2422,851.81,-1265.87,1812.93
12740,-3.8710,-0.0653,0.2501,289.31,-984.56,-546.45
12750,-3.8708,-0.0437,0.2560,-351.32,31.07,406.74
12760,-3.8708,-0.0293,0.2544,-1585.69,781.13,375.49
12770,-3.8710,-0.0161,0.2415,258.06,578.06,-233.89
12780,-3.8710,-0.0052,0.2159,1945.56,-1078.19,-1124.57
12790,-3.8710,-0.0057,0.1892,-663.82,-343.81,-1999.63
12800,-3.8710,-0.0181,0.1755,-726.32,234.31,1703.49
12810,-3.8710,-0.0352,0.1781,1695.56,-1515.69,-1812.19
12820,-3.8710,-0.0496,0.1932,-491.94,-1187.62,-546.57
12830,-3.8708,-0.0566,0.2200,1664.31,749.88,1234.74
12840,-3.8708,-0.0504,0.2548,758.06,171.75,-1030.82
12850,-3.8707,-0.0297,0.2881,1554.93,624.88,781.74
12860,-3.8707,-0.0006,0.3167,211.18,890.56,-1390.08
12870,-3.8707,0.0289,0.3408,-70.07,546.81,-515.01
12880,-3.8707,0.0503,0.3595,-288.82,-375.00,-1311.89
12890,-3.8707,0.0634,0.3691,-1554.44,-1984.31,156.92
12900,-3.8708,0.0762,0.3689,117.43,-749.88,672.55
12910,-3.8710,0.0876,0.3616,1758.06,-781.13,1000.67
12920,-3.8711,0.0970,0.3524,-773.19,-1718.63,1813.17
12930,-3.8712,0.1064,0.3464,429.93,1109.56,-639.95
12940,-3.8712,0.1171,0.3462,1633.06,343.93,1156.92
12950,-3.8713,0.1299,0.3459,-1007.57,312.68,-1468.08
12960,-3.8715,0.1458,0.3384,633.06,281.49,-593.08
12970,-3.8715,0.1628,0.3297,-1335.69,-687.26,219.36
12980,-3.8716,0.1801,0.3267,851.81,-1796.57,1266.24
12990,-3.8717,0.1979,0.3279,-945.07,1812.81,-1358.76
13000,-3.8718,0.2157,0.3258,1336.18,1969.12,-155.64
13010,-3.8718,0.2363,0.3135,-382.57,1703.49,703.74
13020,-3.8719,0.2607,0.2861,-1741.94,125.43,1391.24
13030,-3.8721,0.2842,0.2445,1383.06,625.49,-1671.33
13040,-3.8721,0.3069,0.2050,383.06,-702.58,422.30
13050,-3.8721,0.3301,0.1791,-710.69,-1765.08,390.99
13060,-3.8721,0.3499,0.1638,-1741.94,-1077.51,-1718.44
13070,-3.8719,0.3595,0.1538,789.31,969.42,1297.18
13080,-3.8718,0.3524,0.1428,-1976.32,-311.83,297.12
13090,-3.8718,0.3296,0.1309,1117.43,-1718.08,-1249.76
13100,-3.8717,0.3002,0.1198,-1804.44,750.61,468.99
13110,-3.8717,0.2716,0.1128,-1570.07,-671.33,1609.56
13120,-3.8717,0.2522,0.1155,-1226.32,-1562.01,-1437.32
13130,-3.8717,0.2527,0.1257,289.31,-1218.26,-93.57
13140,-3.8716,0.2719,0.1328,351.81,94.24,1906.49
13150,-3.8716,0.2980,0.1300,-1195.07,1000.49,-156.01
13160,-3.8715,0.3262,0.1243,-1851.32,641.17,968.99
13170,-3.8715,0.3547,0.1232,1758.06,-93.14,1234.56
13180,-3.8715,0.3779,0.1228,1414.31,-233.70,953.31
13190,-3.8715,0.3896,0.1190,383.06,-280.52,718.93
13200,-3.8715,0.3936,0.1147,1883.06,-764.89,843.93
13210,-3.8715,0.3997,0.1129,-1616.94,-1311.77,1062.68
13220,-3.8715,0.4095,0.1068,-835.69,-1546.14,906.43
13230,-3.8715,0.4186,0.0925,429.93,1672.67,437.68
13240,-3.8716,0.4241,0.0758,1586.18,-155.46,-406.13
13250,-3.8716,0.4286,0.0598,-1710.69,1703.92,-1968.63
13260,-3.8716,0.4325,0.0443,-1132.57,-342.96,437.56
13270,-3.8717,0.4291,0.0292,-632.57,1672.67,-484.31
13280,-3.8717,0.4164,0.0189,-1070.07,-264.83,-515.62
13290,-3.8716,0.3999,0.0173,1304.93,-1577.33,406.25
13300,-3.8716,0.3860,0.0190,-804.44,-1780.52,1781.25
13310,-3.8716,0.3793,0.0133,1414.31,-1561.77,-890.62
13320,-3.8715,0.3810,0.0037,554.93,1703.86,328.12
13330,-3.8715,0.3877,-0.0015,773.68,469.48,1296.88
13340,-3.8715,0.3997,-0.0045,1633.06,-186.77,-1859.44
13350,-3.8715,0.4163,-0.0109,-835.69,-577.39,-921.94
13360,-3.8713,0.4327,-0.0208,1289.31,-1389.83,156.19
13370,-3.8713,0.4508,-0.0295,-601.32,1344.54,1062.44
13380,-3.8713,0.4738,-0.0375,1711.18,219.60,1437.44
13390,-3.8713,0.4946,-0.0490,648.68,-795.96,1453.00
13400,-3.8713,0.5105,-0.0581,-679.44,1735.29,1578.00
13410,-3.8713,0.5234,-0.0565,1351.81,563.48,-1937.62
13420,-3.8713,0.5410,-0.0435,-991.94,766.60,-672.00
13430,-3.8712,0.5712,-0.0286,1258.06,-1561.46,953.00
13440,-3.8712,0.6073,-0.0251,1117.43,344.85,1796.81
13450,-3.8712,0.6411,-0.0380,1742.43,782.41,1546.81
13460,-3.8712,0.6727,-0.0590,-1929.44,-858.15,437.38
13470,-3.8713,0.7018,-0.0780,-1882.57,454.41,-1406.37
13480,-3.8713,0.7251,-0.0909,1836.18,-1983.03,390.44
13490,-3.8715,0.7410,-0.1007,820.56,360.78,-1531.43
13500,-3.8715,0.7467,-0.1097,-1148.19,-889.22,781.01
13510,-3.8716,0.7408,-0.1165,-413.82,1954.53,-625.24
13520,-3.8716,0.7238,-0.1191,-1163.82,1095.15,-1187.74
13530,-3.8716,0.6965,-0.1180,648.68,751.40,-718.99
13540,-3.8715,0.6633,-0.1206,1164.31,891.97,390.38
13550,-3.8715,0.6318,-0.1313,914.31,563.78,1499.76
13560,-3.8715,0.6062,-0.1445,883.06,-811.28,-1797.18
13570,-3.8715,0.5862,-0.1533,1601.81,1501.16,-1328.43
13580,-3.8715,0.5728,-0.1553,-960.69,376.10,-625.31
13590,-3.8713,0.5692,-0.1516,1320.56,126.10,124.69
13600,-3.8713,0.5728,-0.1448,867.43,594.85,671.57
13610,-3.8713,0.5767,-0.1368,1320.56,1469.85,1280.94
13620,-3.8713,0.5801,-0.1285,1820.56,-1514.53,-1953.43
13630,-3.8713,0.5825,-0.1168,-1741.94,-452.03,-1140.93
13640,-3.8713,0.5817,-0.0974,-1429.44,1047.97,-375.24
13650,-3.8712,0.5803,-0.0739,-1538.82,-467.65,312.26
13660,-3.8712,0.5812,-0.0533,-1710.69,-1452.03,1077.94
13670,-3.8712,0.5841,-0.0383,-1601.32,1172.97,1390.50
13680,-3.8712,0.5900,-0.0272,-1226.32,-905.15,593.63
13690,-3.8713,0.6013,-0.0182,-476.32,516.72,-859.44
13700,-3.8713,0.6166,-0.0105,976.81,1673.03,1296.81
13710,-3.8715,0.6285,-0.0031,-1070.07,-1342.59,-1234.44
13720,-3.8716,0.6335,0.0032,461.18,-389.40,-62.56
13730,-3.8716,0.6316,0.0082,1101.81,407.47,1453.12
13740,-3.8717,0.6261,0.0144,851.81,1048.10,-437.50
13750,-3.8717,0.6216,0.0233,148.68,1844.97,-1515.62
13760,-3.8717,0.6171,0.0342,-429.44,-1014.47,-1671.88
13770,-3.8717,0.6086,0.0492,-1007.57,376.16,-1046.81
13780,-3.8716,0.5923,0.0693,1914.31,-1701.97,390.69
13790,-3.8716,0.5680,0.0897,-179.44,876.10,-1687.38
13800,-3.8715,0.5416,0.1038,711.18,-514.53,359.50
13810,-3.8715,0.5150,0.1095,1336.18,1282.29,-1515.44
13820,-3.8713,0.4906,0.1125,1929.93,-1983.40,375.18
13830,-3.8713,0.4766,0.1157,-1195.07,-1592.83,1547.06
13840,-3.8713,0.4745,0.1191,1008.06,-1186.58,-1906.07
13850,-3.8713,0.4799,0.1282,742.43,-749.08,-1562.32
13860,-3.8713,0.4833,0.1473,1429.93,407.17,-1124.76
13870,-3.8713,0.4800,0.1744,1867.43,-1139.71,-281.01
13880,-3.8712,0.4724,0.1997,1445.56,-1670.96,1203.43
13890,-3.8712,0.4624,0.2126,476.81,1563.42,-1171.51
13900,-3.8712,0.4509,0.2075,-804.44,-780.40,-577.76
13910,-3.8712,0.4352,0.1910,1726.81,-1436.65,-1171.51
13920,-3.8712,0.4105,0.1812,-288.82,453.92,1640.99
13930,-3.8712,0.3781,0.1844,554.93,-811.71,578.43
13940,-3.8712,0.3387,0.1956,398.68,-389.89,328.43
13950,-3.8712,0.2996,0.2102,-632.57,1031.86,875.37
13960,-3.8712,0.2731,0.2222,-1648.19,-1093.20,1344.12
13970,-3.8712,0.2629,0.2258,-1038.82,437.99,797.30
13980,-3.8713,0.2693,0.2186,1664.31,906.74,-858.95
13990,-3.8713,0.2892,0.2072,-1523.19,-15.14,1234.74
14000,-3.8713,0.3119,0.2041,1023.68,-1483.83,219.12
14010,-3.8713,0.3252,0.2144,-70.07,-1874.45,15.99
14020,-3.8715,0.3264,0.2305,1633.06,-561.89,-77.76
14030,-3.8715,0.3265,0.2448,1789.31,1500.61,-405.82
14040,-3.8715,0.3367,0.2540,1804.93,-671.26,-1437.07
14050,-3.8715,0.3563,0.2588,-898.19,516.24,172.36
14060,-3.8716,0.3796,0.2635,1617.43,1125.67,375.49
14070,-3.8718,0.3981,0.2692,601.81,1735.11,-15.14
14080,-3.8718,0.4017,0.2776,-1038.82,-1546.14,516.11
14090,-3.8719,0.3921,0.2911,-570.07,-468.02,-358.89
14100,-3.8718,0.3745,0.3098,-1804.44,1266.36,-1921.33
14110,-3.8717,0.3502,0.3326,-54.44,-343.08,-905.70
14120,-3.8715,0.3228,0.3501,836.18,-1421.20,906.86
14130,-3.8713,0.2933,0.3495,1320.56,813.11,1703.80
14140,-3.8712,0.2593,0.3271,1554.93,734.92,531.92
14150,-3.8712,0.2129,0.2899,1195.56,1875.49,1484.99
14160,-3.8712,0.1553,0.2512,-741.94,1109.74,1094.30
14170,-3.8712,0.0988,0.2201,-116.94,156.49,203.61
14180,-3.8713,0.0537,0.2012,648.68,172.06,-187.07
14190,-3.8712,0.0262,0.1980,-1116.94,1750.06,469.12
14200,-3.8712,0.0212,0.2054,-632.57,1343.75,1984.74
14210,-3.8712,0.0361,0.2137,-1273.19,-1703.12,-484.01
14220,-3.8711,0.0648,0.2206,633.06,-640.56,500.37
14230,-3.8711,0.0981,0.2235,304.93,234.50,1437.93
14240,-3.8711,0.1261,0.2225,570.56,609.56,-1390.20
14250,-3.8711,0.1487,0.2230,148.68,484.62,-952.70
14260,-3.8711,0.1659,0.2217,-960.69,547.12,-1874.57
14270,-3.8711,0.1770,0.2139,1242.43,375.31,969.18
14280,-3.8711,0.1864,0.2045,-1335.69,-624.69,672.24
14290,-3.8711,0.1925,0.2014,-132.57,-1827.82,1172.24
14300,-3.8711,0.1844,0.2068,648.68,1781.62,-1671.51
14310,-3.8710,0.1525,0.2170,-382.57,-1530.94,515.99
14320,-3.8708,0.0988,0.2329,-476.32,-218.51,234.74
14330,-3.8707,0.0375,0.2521,648.68,1812.68,766.05
14340,-3.8706,-0.0162,0.2620,804.93,265.69,172.36
14350,-3.8706,-0.0597,0.2573,1929.93,1546.81,1937.99
14360,-3.8706,-0.0973,0.2446,367.43,953.00,-1062.01
14370,-3.8706,-0.1285,0.2327,-445.07,-672.12,-765.20
14380,-3.8706,-0.1556,0.2185,-445.07,1796.57,-1687.07
14390,-3.8706,-0.1857,0.1925,86.18,-15.93,328.49
14400,-3.8707,-0.2128,0.1622,242.43,655.88,-1952.76
14410,-3.8707,-0.2291,0.1405,773.68,780.82,234.68
14420,-3.8708,-0.2301,0.1309,-1320.07,1999.51,-1031.01
14430,-3.8708,-0.2164,0.1302,-1445.07,765.14,-1656.01
14440,-3.8708,-0.1940,0.1340,304.93,687.07,-1296.63
14450,-3.8708,-0.1744,0.1385,-820.07,1171.45,-296.63
14460,-3.8707,-0.1699,0.1415,1679.93,1749.63,703.37
14470,-3.8707,-0.1792,0.1414,-1741.94,-1875.37,1172.12
14480,-3.8707,-0.1938,0.1378,1070.56,-1890.99,1406.49
14490,-3.8707,-0.2061,0.1305,-804.44,1655.82,1500.24
14500,-3.8707,-0.2147,0.1193,1633.06,718.32,1187.74
14510,-3.8707,-0.2239,0.1011,523.68,-719.18,281.43
14520,-3.8708,-0.2355,0.0765,-648.19,952.64,-1343.57
14530,-3.8708,-0.2465,0.0537,1867.43,1812.01,609.50
14540,-3.8710,-0.2515,0.0391,461.18,-1109.86,-999.94
14550,-3.8710,-0.2520,0.0348,-179.44,1015.08,-1546.81
14560,-3.8710,-0.2484,0.0414,-241.94,468.20,-921.81
14570,-3.8708,-0.2385,0.0583,211.18,1312.01,765.69
14580,-3.8708,-0.2206,0.0822,1476.81,-516.11,-1218.69
14590,-3.8707,-0.1936,0.1058,-226.32,-1469.24,531.37
14600,-3.8707,-0.1631,0.1287,-773.19,1562.07,1843.93
14610,-3.8707,-0.1329,0.1510,-866.94,484.01,-1484.13
14620,-3.8707,-0.1047,0.1630,-1007.57,-656.56,-1577.88
14630,-3.8707,-0.0797,0.1572,-1398.19,874.76,1672.18
14640,-3.8707,-0.0596,0.1371,1804.93,140.44,297.18
14650,-3.8708,-0.0468,0.1135,383.06,1562.38,-1562.26
14660,-3.8708,-0.0405,0.0997,-1976.32,-1453.25,765.81
14670,-3.8710,-0.0378,0.0961,-1179.44,781.13,-171.69
14680,-3.8710,-0.0344,0.0981,-835.69,312.38,-468.57
14690,-3.8710,-0.0239,0.1025,-398.19,578.00,-468.57
14700,-3.8710,-0.0029,0.1084,945.56,1140.56,-515.44
14710,-3.8710,0.0237,0.1162,-366.94,1890.56,-812.32
14720,-3.8710,0.0532,0.1235,-960.69,-1125.00,-1374.82
14730,-3.8710,0.0846,0.1251,-1179.44,-187.44,1718.93
14740,-3.8710,0.1100,0.1215,-1163.82,15.75,593.99
14750,-3.8711,0.1250,0.1160,-1913.82,-452.94,-702.94
14760,-3.8711,0.1307,0.1116,8.06,-1156.01,1906.43
14770,-3.8711,0.1277,0.1123,742.43,-1718.51,906.43
14780,-3.8711,0.1194,0.1160,351.81,-1624.76,593.93
14790,-3.8711,0.1106,0.1147,-710.69,-1156.07,781.43
14800,-3.8711,0.1041,0.1090,-1835.69,-1312.32,1265.81
14810,-3.8711,0.0988,0.1030,1336.18,1953.31,-1827.94
14820,-3.8711,0.0884,0.1047,648.68,1187.68,-468.57
14830,-3.8710,0.0691,0.1166,-679.44,1406.37,968.93
14840,-3.8710,0.0426,0.1351,851.81,-1078.00,-1609.19
14850,-3.8708,0.0144,0.1593,1461.18,1296.94,15.87
14860,-3.8708,-0.0092,0.1835,1851.81,390.62,-1921.57
14870,-3.8708,-0.0228,0.2006,-1163.82,-500.06,-62.19
14880,-3.8707,-0.0210,0.2045,1086.18,1687.44,250.37
14890,-3.8708,0.0029,0.1948,1320.56,-1812.56,-1702.76
14900,-3.8710,0.0463,0.1740,383.06,937.50,1984.74
14910,-3.8711,0.0970,0.1494,1929.93,-1734.31,531.56
14920,-3.8712,0.1393,0.1342,429.93,-874.82,156.49
14930,-3.8713,0.1604,0.1342,1836.18,1172.12,1984.62
14940,-3.8713,0.1599,0.1482,539.31,1172.18,-1921.63
14950,-3.8713,0.1456,0.1681,476.81,-1030.94,-156.01
14960,-3.8712,0.1270,0.1851,-1351.32,1515.87,-1749.69
14970,-3.8711,0.1102,0.1937,258.06,-312.26,515.93
14980,-3.8711,0.0973,0.1931,-1882.57,797.06,-1859.01
14990,-3.8711,0.0928,0.1866,461.18,718.93,-1171.51
15000,-3.8711,0.1024,0.1802,-116.94,-109.25,-1249.69
15010,-3.8711,0.1245,0.1788,1117.43,-937.32,-1687.19
15020,-3.8711,0.1506,0.1857,-54.44,-1109.19,1906.56
15030,-3.8711,0.1742,0.1987,-710.69,-234.13,1797.18
15040,-3.8711,0.1930,0.2119,-1695.07,1437.81,-1859.01
15050,-3.8711,0.2087,0.2189,711.18,-874.63,-1796.51
15060,-3.8711,0.2256,0.2158,-1273.19,15.99,1375.43
15070,-3.8712,0.2422,0.2072,883.06,-374.57,-187.13
15080,-3.8712,0.2559,0.1964,-991.94,-1483.95,1937.87
15090,-3.8712,0.2679,0.1855,758.06,1141.11,515.99
15100,-3.8713,0.2716,0.1769,-1695.07,-249.51,-437.19
15110,-3.8713,0.2626,0.1688,-1226.32,-1358.89,-968.44
15120,-3.8713,0.2444,0.1575,1617.43,1609.86,-921.57
15130,-3.8713,0.2214,0.1428,-710.69,156.68,-843.44
15140,-3.8713,0.2026,0.1312,351.81,-1718.32,-1546.63
15150,-3.8713,0.1978,0.1252,1945.56,797.24,1047.12
15160,-3.8713,0.2075,0.1233,1320.56,31.62,140.87
15170,-3.8715,0.2235,0.1218,-1429.44,-218.38,-468.57
15180,-3.8715,0.2407,0.1189,617.43,-405.82,-890.44
15190,-3.8715,0.2570,0.1146,-1179.44,-780.82,-515.44
15200,-3.8713,0.2687,0.1108,898.68,-1327.64,47.06
15210,-3.8715,0.2748,0.1088,-1601.32,-1812.01,-77.94
15220,-3.8715,0.2773,0.1051,-820.07,1922.36,-1265.44
15230,-3.8715,0.2788,0.0991,-491.94,1453.61,843.93
15240,-3.8716,0.2821,0.0922,-304.44,687.99,-1421.69
15250,-3.8716,0.2854,0.0823,117.43,-202.58,422.00
15260,-3.8717,0.2827,0.0664,539.31,-1468.20,-765.50
15270,-3.8717,0.2754,0.0500,195.56,500.55,-531.13
15280,-3.8716,0.2662,0.0386,-741.94,-1593.26,531.31
15290,-3.8716,0.2600,0.0261,-1913.82,937.99,1359.44
15300,-3.8716,0.2653,0.0042,1289.31,-655.76,1187.50
15310,-3.8716,0.2817,-0.0284,1961.18,531.74,31.25
15320,-3.8717,0.3030,-0.0614,70.56,359.92,-1250.06
15330,-3.8717,0.3223,-0.0840,-1210.69,141.17,1718.63
15340,-3.8717,0.3392,-0.0938,1258.06,1250.61,1281.07
15350,-3.8717,0.3568,-0.0895,-570.07,0.61,-1843.93
15360,-3.8716,0.3776,-0.0724,1679.93,547.55,390.44
15370,-3.8716,0.4041,-0.0553,336.18,-1264.89,-937.68
15380,-3.8715,0.4365,-0.0496,-273.19,922.61,1437.38
15390,-3.8715,0.4716,-0.0508,-116.94,1657.04,-1000.12
15400,-3.8715,0.5085,-0.0551,367.43,1500.92,-375.12
15410,-3.8715,0.5430,-0.0627,1101.81,954.10,-312.62
15420,-3.8715,0.5707,-0.0690,1508.06,-30.21,-547.06
15430,-3.8715,0.5962,-0.0686,1054.93,-827.03,-1156.43
15440,-3.8715,0.6243,-0.0645,320.56,-780.09,1937.32
15450,-3.8715,0.6553,-0.0652,-85.69,-248.84,1421.69
15460,-3.8715,0.6820,-0.0724,-116.94,-342.53,1421.69
15470,-3.8715,0.6993,-0.0796,-695.07,-1264.34,1515.44
15480,-3.8715,0.7064,-0.0837,1523.68,1813.84,1359.19
15490,-3.8715,0.7076,-0.0820,-1570.07,1282.59,1468.57
15500,-3.8715,0.7140,-0.0726,-1413.82,1501.34,-1515.81
15510,-3.8713,0.7260,-0.0615,-601.32,-1295.53,109.19
15520,-3.8713,0.7402,-0.0590,929.93,126.40,1515.50
15530,-3.8713,0.7604,-0.0708,-1241.94,454.53,1515.50
15540,-3.8715,0.7852,-0.0942,1336.18,-1061.04,-375.18
15550,-3.8715,0.8068,-0.1194,508.06,-60.97,281.01
15560,-3.8716,0.8242,-0.1389,-726.32,720.28,202.88
15570,-3.8717,0.8401,-0.1516,1508.06,-1779.66,155.94
15580,-3.8718,0.8546,-0.1558,-460.69,595.34,593.44
15590,-3.8719,0.8663,-0.1509,1398.68,64.15,1812.19
15600,-3.8719,0.8702,-0.1433,-1101.32,689.15,468.44
15610,-3.8719,0.8644,-0.1344,-601.32,1657.90,452.82
15620,-3.8719,0.8507,-0.1213,-1351.32,-1201.48,1155.94
15630,-3.8719,0.8295,-0.1057,898.68,470.40,-1765.87
15640,-3.8719,0.8027,-0.0927,-1820.07,-1529.66,-703.37
15650,-3.8719,0.7715,-0.0865,-1241.94,142.15,-15.81
15660,-3.8718,0.7360,-0.0840,-1241.94,923.34,234.19
15670,-3.8718,0.7003,-0.0768,-1788.82,1251.40,421.69
15680,-3.8718,0.6702,-0.0612,1648.68,-1826.78,749.82
15690,-3.8718,0.6484,-0.0405,1789.31,173.16,1203.00
15700,-3.8718,0.6335,-0.0209,-991.94,-1186.28,1624.88
15710,-3.8718,0.6234,-0.0048,1101.81,1329.35,1703.06
15720,-3.8718,0.6145,0.0079,-195.07,-608.22,1609.31
15730,-3.8718,0.6038,0.0197,-1335.69,1016.78,1781.25
15740,-3.8718,0.5929,0.0316,1289.31,-1483.22,-1468.75
15750,-3.8718,0.5796,0.0424,-101.32,47.97,-62.44
15760,-3.8717,0.5598,0.0510,-1804.44,1422.97,1937.56
15770,-3.8716,0.5361,0.0615,-335.69,-1467.71,93.81
15780,-3.8716,0.5146,0.0735,633.06,-123.96,1890.69
15790,-3.8716,0.4950,0.0822,1883.06,1407.23,-1109.25
15800,-3.8716,0.4734,0.0896,-632.57,-1483.46,-1328.00
15810,-3.8716,0.4535,0.0968,601.81,-530.33,1203.25
15820,-3.8717,0.4423,0.1001,-1945.07,391.48,-437.32
15830,-3.8717,0.4403,0.1001,617.43,813.35,-1281.07
15840,-3.8717,0.4408,0.1056,367.43,813.35,-546.69
15850,-3.8716,0.4347,0.1263,429.93,1516.48,-1952.94
15860,-3.8715,0.4148,0.1564,-351.32,172.67,1640.87
15870,-3.8713,0.3893,0.1798,1101.81,16.42,1734.68
15880,-3.8712,0.3677,0.1954,1836.18,-983.64,1297.18
15890,-3.8712,0.3560,0.2115,-929.44,1016.30,-968.38
15900,-3.8712,0.3604,0.2269,1570.56,-921.20,-859.01
15910,-3.8712,0.3800,0.2371,-1866.94,1047.55,-1577.70
15920,-3.8712,0.4106,0.2456,648.68,-1655.52,1750.43
15930,-3.8712,0.4430,0.2559,570.56,-561.71,1703.55
15940,-3.8712,0.4634,0.2671,711.18,750.85,-1796.39
15950,-3.8712,0.4648,0.2802,-679.44,-1811.65,-999.51
15960,-3.8712,0.4489,0.2969,-491.94,-139.77,-155.76
15970,-3.8711,0.4205,0.3177,1461.18,-1999.15,0.55
15980,-3.8712,0.3922,0.3390,1836.18,672.67,-905.64
15990,-3.8712,0.3811,0.3507,-1788.82,-608.64,844.36
16000,-3.8713,0.3939,0.3474,789.31,891.36,766.30
16010,-3.8716,0.4209,0.3387,-1570.07,469.48,-1155.58
16020,-3.8718,0.4475,0.3361,1883.06,-639.83,-233.76
16030,-3.8719,0.4679,0.3414,1289.31,-983.52,516.24
16040,-3.8722,0.4835,0.3582,-101.32,-296.02,-1546.26
16050,-3.8723,0.4923,0.3840,1898.68,1844.67,-1186.83
16060,-3.8723,0.4890,0.4076,-976.32,1157.17,-1874.27
16070,-3.8722,0.4637,0.4290,-1398.19,172.79,907.04
16080,-3.8721,0.4106,0.4574,-632.57,-1092.90,-717.96
16090,-3.8718,0.3367,0.4968,570.56,-1452.33,-217.90
16100,-3.8715,0.2539,0.5365,-898.19,-405.64,313.42
16110,-3.8713,0.1719,0.5555,508.06,672.36,-733.34
16120,-3.8712,0.1008,0.5507,-1991.94,-890.32,-123.96
16130,-3.8711,0.0491,0.5205,914.31,-1515.44,1688.54
16140,-3.8711,0.0115,0.4614,-1710.69,-1374.94,1000.98
16150,-3.8712,-0.0201,0.4042,1476.81,-937.50,-202.27
16160,-3.8711,-0.0437,0.3772,1429.93,-250.06,469.48
16170,-3.8710,-0.0526,0.3673,-1585.69,296.75,0.73
16180,-3.8708,-0.0468,0.3655,1273.68,-968.87,1016.30
16190,-3.8707,-0.0304,0.3722,-1976.32,-1203.25,1203.80
16200,-3.8707,-0.0103,0.3763,117.43,-343.81,-796.20
16210,-3.8707,0.0129,0.3715,-1304.44,187.44,-1014.89
16220,-3.8707,0.0448,0.3564,1664.31,-453.12,1641.30
16230,-3.8707,0.0828,0.3383,1742.43,1625.06,547.55
16240,-3.8707,0.1206,0.3236,-1398.19,-703.00,156.86
16250,-3.8707,0.1418,0.3071,-554.44,1422.06,1000.61
16260,-3.8707,0.1349,0.2942,-1835.69,-687.26,-421.33
16270,-3.8706,0.1084,0.2980,1273.68,1656.49,-390.08
16280,-3.8705,0.0685,0.3137,1883.06,-1859.19,-452.58
16290,-3.8704,0.0231,0.3267,773.68,156.37,1484.99
16300,-3.8704,-0.0114,0.3326,-1038.82,1812.50,1219.36
16310,-3.8705,-0.0238,0.3317,-1445.07,-1406.31,-249.39
16320,-3.8705,-0.0223,0.3217,961.18,-1531.31,1688.11
16330,-3.8706,-0.0260,0.3057,1148.68,1187.44,-655.64
16340,-3.8706,-0.0457,0.2933,679.93,-859.44,1313.05
16350,-3.8707,-0.0892,0.2885,-1835.69,1562.38,-171.33
16360,-3.8707,-0.1479,0.2942,586.18,937.32,-1061.95
16370,-3.8707,-0.2020,0.3033,1070.56,1671.57,-1655.70
16380,-3.8707,-0.2383,0.2993,-1851.32,-1156.68,1781.80
16390,-3.8707,-0.2576,0.2789,1508.06,-1672.36,1766.17
16400,-3.8707,-0.2639,0.2515,-960.69,-281.80,-1843.26
16410,-3.8707,-0.2603,0.2272,-1773.19,202.58,-1233.89
16420,-3.8707,-0.2574,0.2090,-1304.44,1093.20,-218.32
16430,-3.8706,-0.2585,0.1978,-945.07,-1234.92,1281.62
16440,-3.8706,-0.2659,0.1925,-1085.69,1327.58,-1015.26
16450,-3.8705,-0.2805,0.1934,1976.81,655.70,797.24
16460,-3.8705,-0.3026,0.1957,101.81,765.08,-1030.88
16470,-3.8704,-0.3276,0.1915,1273.68,1061.89,1125.37
16480,-3.8704,-0.3505,0.1803,-1929.44,530.58,-1140.26
16490,-3.8702,-0.3707,0.1614,-851.32,-906.98,187.81
16500,-3.8702,-0.3785,0.1396,554.93,671.14,562.81
16510,-3.8704,-0.3624,0.1208,-445.07,1889.83,-687.26
16520,-3.8704,-0.3191,0.1019,1617.43,-516.36,875.18
16530,-3.8705,-0.2614,0.0845,-835.69,1061.83,-1874.82
16540,-3.8706,-0.2028,0.0769,-1445.07,-1172.42,-531.13
16550,-3.8706,-0.1497,0.0833,-1945.07,1858.95,1328.25
16560,-3.8706,-0.1079,0.0975,851.81,-1328.43,187.62
16570,-3.8706,-0.0765,0.1136,-1804.44,499.76,62.68
16580,-3.8706,-0.0508,0.1307,-1788.82,-1437.68,609.56
16590,-3.8706,-0.0236,0.1470,1508.06,749.88,1078.37
16600,-3.8706,0.0057,0.1592,992.43,-1171.94,1125.24
16610,-3.8706,0.0316,0.1648,742.43,375.00,594.06
16620,-3.8707,0.0552,0.1621,54.93,1093.81,-640.32
16630,-3.8707,0.0730,0.1548,-929.44,750.06,1375.31
16640,-3.8708,0.0784,0.1471,1351.81,-187.38,-1265.38
16650,-3.8710,0.0720,0.1410,-1960.69,-1171.75,-46.63
16660,-3.8710,0.0571,0.1370,1226.81,-1953.00,1281.49
16670,-3.8711,0.0414,0.1359,-679.44,1531.31,-1187.26
16680,-3.8711,0.0323,0.1378,1304.93,1390.69,750.24
16690,-3.8712,0.0298,0.1445,148.68,1640.69,-577.88
16700,-3.8712,0.0333,0.1603,-179.44,-1500.00,-1171.63
16710,-3.8712,0.0422,0.1821,273.68,515.69,-1030.94
16720,-3.8712,0.0557,0.2025,1414.31,-687.44,-405.94
16730,-3.8712,0.0726,0.2157,-866.94,1921.94,-77.76
16740,-3.8712,0.0873,0.2194,1304.93,-390.50,-780.88
16750,-3.8712,0.0959,0.2180,-820.07,78.25,1016.05
16760,-3.8713,0.1005,0.2175,289.31,-93.57,1734.74
16770,-3.8715,0.0999,0.2175,867.43,-156.07,1687.87
16780,-3.8716,0.0906,0.2118,789.31,-156.07,906.62
16790,-3.8717,0.0739,0.2014,-398.19,-890.50,344.12
16800,-3.8718,0.0558,0.1963,1461.18,1781.37,890.99
16810,-3.8719,0.0416,0.2040,-851.32,1125.06,-812.13
16820,-3.8719,0.0365,0.2319,1336.18,-1890.56,-155.88
16830,-3.8718,0.0514,0.2753,679.93,1687.56,-655.82
16840,-3.8716,0.0947,0.3192,-1413.82,-765.56,1469.24
16850,-3.8713,0.1539,0.3524,133.06,859.56,828.74
16860,-3.8712,0.2078,0.3668,-288.82,1109.62,-561.83
16870,-3.8711,0.2430,0.3625,-1398.19,-1046.51,-421.20
16880,-3.8710,0.2574,0.3491,-882.57,-1593.32,1235.05
16890,-3.8710,0.2556,0.3383,961.18,687.99,1578.80
16900,-3.8710,0.2467,0.3389,726.81,-702.64,1625.61
16910,-3.8710,0.2394,0.3495,-413.82,-624.57,-1655.64
16920,-3.8708,0.2340,0.3646,-1351.32,734.80,203.80
16930,-3.8708,0.2328,0.3820,1961.18,-1327.70,-1389.95
16940,-3.8707,0.2422,0.3949,1804.93,891.05,531.98
16950,-3.8707,0.2625,0.3938,-991.94,-1452.70,1203.86
16960,-3.8707,0.2853,0.3770,1601.81,-1593.26,453.86
16970,-3.8708,0.2992,0.3552,523.68,250.55,-1452.39
16980,-3.8710,0.3019,0.3402,-1695.07,1469.30,-233.70
16990,-3.8710,0.2996,0.3336,-1351.32,-452.58,641.24
17000,-3.8711,0.2974,0.3296,-1648.19,-1296.33,-1624.39
17010,-3.8711,0.2961,0.3240,-1929.44,-1811.95,1047.49
17020,-3.8712,0.2961,0.3164,1914.31,1469.30,-249.39
17030,-3.8712,0.2947,0.3079,1914.31,500.55,-1702.51
17040,-3.8712,0.2885,0.2972,1726.81,-593.20,984.92
17050,-3.8713,0.2780,0.2828,929.93,-1952.58,-499.45
17060,-3.8713,0.2670,0.2649,-413.82,203.61,1375.55
17070,-3.8715,0.2604,0.2469,-1820.07,1906.74,-1218.26
17080,-3.8715,0.2615,0.2307,1336.18,-390.14,31.68
17090,-3.8716,0.2699,0.2166,1476.81,1531.74,1391.05
17100,-3.8717,0.2819,0.2031,-1445.07,-280.76,-1124.63
17110,-3.8717,0.2938,0.1924,86.18,-1999.45,547.24
17120,-3.8718,0.3069,0.1891,1617.43,625.55,-1046.51
17130,-3.8718,0.3224,0.1880,-710.69,203.67,-1859.01
17140,-3.8718,0.3409,0.1830,1273.68,63.11,-1874.63
17150,-3.8718,0.3602,0.1758,-351.32,-577.51,-1609.07
17160,-3.8718,0.3756,0.1678,-1882.57,-1499.33,-1421.57
17170,-3.8718,0.3862,0.1594,86.18,1485.11,-671.57
17180,-3.8717,0.3927,0.1504,1445.56,406.98,765.93
17190,-3.8717,0.3976,0.1426,-1726.32,-749.27,-1702.88
17200,-3.8717,0.4026,0.1375,-1101.32,-1749.27,-281.01
17210,-3.8716,0.4072,0.1333,-460.69,1594.48,1593.99
17220,-3.8715,0.4109,0.1311,133.06,1063.29,250.24
17230,-3.8715,0.4099,0.1360,601.81,782.04,-921.63
17240,-3.8713,0.4043,0.1459,476.81,1407.04,1218.99
17250,-3.8713,0.3992,0.1552,-241.94,-1327.39,-859.13
17260,-3.8712,0.3949,0.1564,-898.19,-139.89,968.99
17270,-3.8712,0.3912,0.1455,-1445.07,16.36,-1687.19
17280,-3.8712,0.3939,0.1299,-1913.82,-1374.27,-1374.76
17290,-3.8712,0.4042,0.1146,-1570.07,625.73,1453.37
17300,-3.8713,0.4182,0.1019,-257.57,-1327.39,-265.44
17310,-3.8713,0.4313,0.0918,1539.31,1047.67,-1999.82
17320,-3.8713,0.4427,0.0830,-788.82,-249.21,265.75
17330,-3.8715,0.4548,0.0768,679.93,-1374.15,-1124.88
17340,-3.8715,0.4641,0.0753,-1773.19,1828.98,-1906.13
17350,-3.8715,0.4722,0.0758,-585.69,1641.48,1859.50
17360,-3.8715,0.4872,0.0734,445.56,1704.04,1656.37
17370,-3.8715,0.5066,0.0642,-1632.57,1391.54,578.25
17380,-3.8716,0.5238,0.0483,851.81,219.73,-1749.88
17390,-3.8717,0.5414,0.0316,-945.07,-1811.52,-546.81
17400,-3.8717,0.5626,0.0198,1304.93,47.91,828.19
17410,-3.8718,0.5909,0.0159,23.68,-1467.65,-1359.38
17420,-3.8718,0.6289,0.0162,-351.32,-1967.65,1062.50
17430,-3.8719,0.6720,0.0100,508.06,-1920.65,-156.25
17440,-3.8719,0.7098,-0.0100,-1976.32,1282.53,-1281.25
17450,-3.8719,0.7380,-0.0369,-1132.57,-1279.91,1484.31
17460,-3.8719,0.7600,-0.0566,-1523.19,-717.35,281.13
17470,-3.8721,0.7828,-0.0648,1289.31,751.46,-593.87
17480,-3.8721,0.8132,-0.0695,211.18,-295.35,-1156.43
17490,-3.8721,0.8488,-0.0782,101.81,-889.04,-1343.93
17500,-3.8721,0.8794,-0.0892,648.68,1986.02,-1015.81
17510,-3.8721,0.8948,-0.0966,570.56,579.83,-312.68
17520,-3.8719,0.8925,-0.1017,-1460.69,-357.67,874.76
17530,-3.8719,0.8744,-0.1089,-1757.57,-1013.92,-1265.87
17540,-3.8718,0.8406,-0.1183,-70.07,-1935.85,827.88
17550,-3.8718,0.8004,-0.1261,-398.19,860.96,-1343.99
17560,-3.8717,0.7654,-0.1289,-1538.82,-139.10,374.69
17570,-3.8717,0.7380,-0.1218,1976.81,-498.54,-1594.06
17580,-3.8716,0.7153,-0.1042,-1523.19,407.65,1046.63
17590,-3.8715,0.6969,-0.0869,-429.44,-1342.41,234.13
17600,-3.8715,0.6837,-0.0792,1211.18,876.34,-593.93
17610,-3.8713,0.6742,-0.0774,-476.32,1860.66,1781.07
17620,-3.8713,0.6658,-0.0723,-1695.07,-1904.97,-1015.81
17630,-3.8713,0.6609,-0.0636,1226.81,-1248.72,-1015.81
17640,-3.8713,0.6614,-0.0592,601.81,-139.34,1937.32
17650,-3.8713,0.6627,-0.0592,664.31,423.16,328.00
17660,-3.8715,0.6619,-0.0558,836.18,423.16,-1734.50
17670,-3.8715,0.6565,-0.0453,726.81,860.66,62.38
17680,-3.8716,0.6504,-0.0322,39.31,-1795.59,-1828.25
17690,-3.8716,0.6512,-0.0243,-741.94,-123.78,578.00
17700,-3.8717,0.6578,-0.0250,-632.57,891.85,-796.94
17710,-3.8717,0.6622,-0.0255,211.18,798.16,-1671.94
17720,-3.8717,0.6595,-0.0137,773.68,735.66,-1593.81
17730,-3.8717,0.6497,0.0099,429.93,-1748.72,-218.81
17740,-3.8716,0.6356,0.0312,-835.69,1266.85,-1687.50
17750,-3.8715,0.6178,0.0394,1367.43,1.22,953.19
17760,-3.8715,0.5944,0.0372,-913.82,1048.03,-1593.69
17770,-3.8715,0.5636,0.0356,86.18,766.78,-1874.94
17780,-3.8715,0.5284,0.0428,148.68,563.60,875.06
17790,-3.8715,0.5001,0.0579,-351.32,1485.35,62.56
17800,-3.8715,0.4844,0.0758,23.68,-592.77,140.69
17810,-3.8715,0.4816,0.0948,-1991.94,1704.04,468.87
17820,-3.8715,0.4888,0.1129,1648.68,141.54,531.43
17830,-3.8715,0.4983,0.1270,-1429.44,-1545.96,781.43
17840,-3.8715,0.5039,0.1370,-210.69,250.92,1375.24
17850,-3.8715,0.5063,0.1461,508.06,1532.23,1625.24
17860,-3.8715,0.5088,0.1558,820.56,-1295.90,1015.87
17870,-3.8716,0.5101,0.1630,1133.06,-61.52,-312.26
17880,-3.8716,0.5077,0.1653,1304.93,860.35,1937.81
17890,-3.8716,0.5007,0.1700,992.43,1157.23,344.06
17900,-3.8717,0.4884,0.1848,101.81,1766.60,-280.94
17910,-3.8716,0.4719,0.2045,-1476.32,-342.83,0.31
17920,-3.8716,0.4595,0.2196,414.31,-1827.21,609.74
17930,-3.8716,0.4585,0.2269,-1179.44,110.23,625.43
17940,-3.8717,0.4714,0.2262,-1304.44,1047.73,-421.45
17950,-3.8717,0.4927,0.2175,351.81,954.04,-1390.20
17960,-3.8717,0.5109,0.2106,-929.44,-155.33,-640.26
17970,-3.8716,0.5168,0.2153,1398.68,-1045.90,-1968.38
17980,-3.8715,0.5046,0.2308,-1835.69,-436.52,1344.12
17990,-3.8713,0.4783,0.2494,601.81,1547.85,125.43
18000,-3.8713,0.4504,0.2627,1226.81,-77.21,1781.68
18010,-3.8713,0.4310,0.2688,1664.31,1625.85,1891.11
18020,-3.8713,0.4254,0.2681,-820.07,-1592.96,672.36
18030,-3.8715,0.4348,0.2585,-1538.82,-1686.71,-1093.26
18040,-3.8715,0.4529,0.2440,-335.69,1094.54,1094.24
18050,-3.8716,0.4692,0.2333,1976.81,-764.77,-577.70
18060,-3.8716,0.4784,0.2317,70.56,1860.29,-1937.07
18070,-3.8716,0.4817,0.2404,1242.43,1657.17,1000.43
18080,-3.8717,0.4863,0.2571,1664.31,-1233.46,-15.20
18090,-3.8717,0.5021,0.2729,-1741.94,907.17,-1562.01
18100,-3.8717,0.5316,0.2833,273.68,-1061.52,62.99
18110,-3.8718,0.5670,0.2928,54.93,266.66,1500.55
18120,-3.8719,0.5939,0.3108,586.18,1485.47,-77.58
18130,-3.8719,0.6002,0.3367,23.68,-217.59,-546.33
18140,-3.8719,0.5850,0.3624,836.18,-905.09,-577.51
18150,-3.8719,0.5621,0.3856,-1116.94,-1608.28,-468.08
18160,-3.8719,0.5496,0.4048,-38.82,1360.41,-218.02
18170,-3.8719,0.5469,0.4167,-1648.19,-186.46,-139.89
18180,-3.8718,0.5402,0.4243,-1991.94,1344.79,485.17
18190,-3.8718,0.5243,0.4275,1148.68,-1686.46,-421.08
18200,-3.8716,0.4990,0.4286,-882.57,-1280.27,1594.54
18210,-3.8713,0.4567,0.4368,-116.94,-1139.71,438.29
18220,-3.8712,0.3979,0.4481,-1538.82,-92.90,1500.79
18230,-3.8711,0.3441,0.4501,-1054.44,1360.11,500.85
18240,-3.8711,0.3120,0.4387,54.93,1610.05,1657.10
18250,-3.8711,0.3002,0.4176,-54.44,156.80,672.73
18260,-3.8712,0.3011,0.3944,-1570.07,1453.67,-1405.46
18270,-3.8712,0.3066,0.3788,-1445.07,-1515.08,-1936.77
18280,-3.8711,0.3080,0.3781,-741.94,484.92,547.61
18290,-3.8710,0.2991,0.3976,-570.07,391.17,1031.98
18300,-3.8708,0.2854,0.4241,-1710.69,-1108.83,1125.73
18310,-3.8708,0.2789,0.4331,539.31,-1718.20,-624.21
18320,-3.8708,0.2805,0.4152,-288.82,-562.01,-561.71
18330,-3.8708,0.2844,0.3755,-85.69,1141.11,1391.42
18340,-3.8710,0.2845,0.3318,414.31,63.05,-1468.02
18350,-3.8710,0.2697,0.3010,429.93,-1530.70,391.24
18360,-3.8711,0.2322,0.2896,-1476.32,-1468.26,-436.95
18370,-3.8711,0.1792,0.3008,1726.81,1062.93,-452.58
18380,-3.8711,0.1361,0.3285,-1054.44,-1499.69,-280.70
18390,-3.8710,0.1169,0.3483,1429.93,-1952.88,531.86
18400,-3.8710,0.1111,0.3462,-1023.19,578.31,-1905.58
18410,-3.8710,0.1118,0.3325,-1773.19,312.68,-546.20
18420,-3.8710,0.1167,0.3107,-1679.44,-1437.32,-905.64
18430,-3.8710,0.1233,0.2782,-1054.44,-234.19,828.67
18440,-3.8711,0.1274,0.2396,-210.69,-390.44,-1593.26
18450,-3.8711,0.1174,0.2054,320.56,-1327.88,1453.55
18460,-3.8711,0.0908,0.1926,-960.69,-1702.94,-1343.38
18470,-3.8710,0.0551,0.1998,-366.94,656.37,1015.99
18480,-3.8710,0.0168,0.2095,-945.07,1578.19,-671.51
18490,-3.8708,-0.0177,0.2117,-1835.69,-1187.50,922.24
18500,-3.8708,-0.0383,0.2047,1742.43,-890.69,1640.99
18510,-3.8708,-0.0416,0.1946,-898.19,-1781.37,1859.74
18520,-3.8708,-0.0383,0.1835,-1320.07,921.75,-1921.51
18530,-3.8708,-0.0386,0.1670,-898.19,-500.12,-1452.82
18540,-3.8708,-0.0481,0.1448,-929.44,1390.50,-905.94
18550,-3.8708,-0.0669,0.1216,1851.81,-1453.25,-687.26
18560,-3.8708,-0.0883,0.1001,-554.44,-422.06,-1015.44
18570,-3.8708,-0.1073,0.0826,711.18,827.94,-1234.19
18580,-3.8708,-0.1235,0.0782,-1726.32,-1406.49,-609.25
18590,-3.8707,-0.1353,0.0885,195.56,-1968.99,843.87
18600,-3.8707,-0.1412,0.1019,-1304.44,-656.56,-1187.38
18610,-3.8706,-0.1431,0.1128,1929.93,1062.19,1047.06
18620,-3.8706,-0.1455,0.1168,1695.56,-1547.18,-999.82
18630,-3.8705,-0.1514,0.1069,1383.06,-1031.56,62.68
18640,-3.8706,-0.1560,0.0859,633.06,1702.82,-77.94
18650,-3.8706,-0.1580,0.0613,39.31,-984.68,-1593.63
18660,-3.8706,-0.1575,0.0371,-210.69,-140.99,15.69
18670,-3.8707,-0.1572,0.0217,-148.19,765.26,-1984.31
18680,-3.8707,-0.1647,0.0281,-116.94,-1203.49,1140.62
18690,-3.8707,-0.1766,0.0554,-1070.07,-390.99,1328.12
18700,-3.8707,-0.1824,0.0900,1398.68,-890.99,-1640.56
18710,-3.8707,-0.1727,0.1250,664.31,-469.12,-171.75
18720,-3.8706,-0.1429,0.1533,1898.68,15.26,515.87
18730,-3.8707,-0.0914,0.1653,1711.18,-359.68,-437.26
18740,-3.8707,-0.0310,0.1631,304.93,1171.69,1265.93
18750,-3.8708,0.0210,0.1592,39.31,890.56,-1718.44
18760,-3.8710,0.0619,0.1606,-1304.44,375.00,-1062.19
18770,-3.8710,0.0979,0.1672,-70.07,562.56,234.68
18780,-3.8711,0.1272,0.1837,539.31,1406.43,-702.82
18790,-3.8710,0.1471,0.2191,289.31,-484.13,125.31
18800,-3.8710,0.1556,0.2659,-1163.82,47.12,-1593.32
18810,-3.8708,0.1514,0.3024,-70.07,-1968.51,1875.49
18820,-3.8707,0.1355,0.3103,-616.94,-1296.63,938.05
18830,-3.8707,0.1093,0.2906,1351.81,-281.01,-1827.58
18840,-3.8707,0.0768,0.2592,1992.43,1203.31,969.30
18850,-3.8708,0.0449,0.2279,1836.18,1172.00,1250.49
18860,-3.8710,0.0233,0.2042,1758.06,1171.94,625.43
18870,-3.8711,0.0172,0.1929,-1007.57,-1859.38,1062.87
18880,-3.8712,0.0238,0.1990,-1788.82,687.50,-562.13
18890,-3.8712,0.0389,0.2231,-945.07,1468.75,-30.88
18900,-3.8711,0.0593,0.2620,992.43,562.56,-1749.57
18910,-3.8710,0.0835,0.3044,-398.19,1531.31,1406.74
18920,-3.8708,0.1066,0.3339,-1304.44,-1031.13,250.55
18930,-3.8708,0.1255,0.3362,1648.68,-1265.44,1359.99
18940,-3.8708,0.1379,0.3096,70.56,-968.51,47.49
18950,-3.8710,0.1357,0.2732,1664.31,-374.76,1188.05
18960,-3.8711,0.1194,0.2506,1383.06,-1031.01,1781.74
18970,-3.8712,0.0999,0.2468,-710.69,78.31,-1327.64
18980,-3.8712,0.0865,0.2566,789.31,-406.07,1047.30
18990,-3.8712,0.0861,0.2754,-913.82,843.87,1016.11
19000,-3.8712,0.1030,0.2972,-976.32,-749.88,1375.49
19010,-3.8712,0.1379,0.3202,1195.56,-1952.94,-1952.58
19020,-3.8712,0.1892,0.3435,1664.31,984.62,-374.39
19030,-3.8711,0.2488,0.3634,226.81,-30.88,-1999.39
19040,-3.8710,0.3022,0.3792,-148.19,-1483.95,375.67
19050,-3.8710,0.3373,0.3831,-1304.44,531.80,1969.48
19060,-3.8710,0.3508,0.3688,-820.07,1031.86,-1639.89
19070,-3.8710,0.3489,0.3491,914.31,-796.20,1328.80
19080,-3.8711,0.3369,0.3365,664.31,688.17,-1171.20
19090,-3.8711,0.3241,0.3344,-866.94,-921.26,0.61
19100,-3.8712,0.3181,0.3425,1492.43,-1202.51,-1671.26
19110,-3.8712,0.3175,0.3580,726.81,-155.64,-1999.39
19120,-3.8712,0.3192,0.3773,648.68,1828.74,-1764.95
19130,-3.8712,0.3212,0.3939,867.43,297.49,-1796.14
19140,-3.8712,0.3218,0.3997,1117.43,-1577.51,1906.98
19150,-3.8712,0.3212,0.3928,1195.56,-843.14,1297.61
19160,-3.8713,0.3247,0.3785,1117.43,-1718.14,-30.52
19170,-3.8713,0.3369,0.3623,1570.56,453.74,1625.73
19180,-3.8715,0.3538,0.3462,-866.94,-1624.39,-1280.58
19190,-3.8716,0.3699,0.3312,1289.31,313.17,-61.83
19200,-3.8716,0.3854,0.3185,-648.19,-1608.70,1766.24
19210,-3.8716,0.3970,0.3074,1336.18,766.36,375.61
19220,-3.8717,0.4019,0.2992,-1179.44,-655.52,-155.70
19230,-3.8717,0.4054,0.2921,-554.44,-1702.39,-233.83
19240,-3.8717,0.4087,0.2825,-101.32,1391.36,-311.95
19250,-3.8717,0.4092,0.2726,320.56,157.04,-93.20
19260,-3.8716,0.4082,0.2654,383.06,-1108.58,391.11
19270,-3.8716,0.4108,0.2607,258.06,1969.54,937.99
19280,-3.8716,0.4182,0.2579,586.18,1375.79,1422.36
19290,-3.8716,0.4283,0.2549,1539.31,1016.42,1516.11
19300,-3.8716,0.4388,0.2478,-1163.82,625.79,1156.74
19310,-3.8716,0.4489,0.2316,179.93,-280.40,516.05
19320,-3.8717,0.4535,0.2078,1461.18,1641.48,-358.95
19330,-3.8717,0.4503,0.1836,-1945.07,-1405.40,-1687.13
19340,-3.8717,0.4414,0.1649,1648.68,-499.15,672.18
19350,-3.8718,0.4285,0.1589,508.06,1110.23,-140.32
19360,-3.8717,0.4141,0.1686,-1148.19,344.54,781.56
19370,-3.8717,0.4008,0.1814,1008.06,1578.92,-1062.19
19380,-3.8716,0.3898,0.1874,-695.07,-780.52,1359.68
19390,-3.8716,0.3826,0.1906,1898.68,-14.89,-437.19
19400,-3.8715,0.3804,0.1924,976.81,391.36,1484.74
19410,-3.8715,0.3838,0.1902,695.56,625.73,-1093.38
19420,-3.8715,0.3948,0.1825,1133.06,344.48,-93.38
19430,-3.8713,0.4077,0.1705,-1460.69,-639.89,531.56
19440,-3.8713,0.4156,0.1564,195.56,1828.92,1047.18
19450,-3.8713,0.4155,0.1429,1211.18,16.42,1765.93
19460,-3.8713,0.4054,0.1340,1195.56,-1702.33,-1531.01
19470,-3.8713,0.3881,0.1309,-101.32,1156.98,-1156.01
19480,-3.8713,0.3685,0.1323,1679.93,750.73,-1062.26
19490,-3.8713,0.3507,0.1367,-820.07,938.17,-749.76
19500,-3.8713,0.3361,0.1405,898.68,1500.67,-421.63
19510,-3.8713,0.3264,0.1416,-976.32,1984.99,-890.38
19520,-3.8713,0.3275,0.1398,1789.31,-1874.39,1422.12
19530,-3.8715,0.3483,0.1311,1929.93,1891.24,-1374.76
19540,-3.8716,0.3950,0.1150,586.18,781.92,-468.51
19550,-3.8716,0.4587,0.0955,-1429.44,-1280.52,328.31
19560,-3.8717,0.5072,0.0667,-1273.19,219.60,531.43
19570,-3.8718,0.5258,0.0287,929.93,532.23,765.75
19580,-3.8719,0.5259,-0.0116,-695.07,-327.15,1859.38
19590,-3.8721,0.5128,-0.0486,-679.44,-1483.40,-265.69
19600,-3.8721,0.4977,-0.0728,1648.68,1782.23,-1422.00
19610,-3.8721,0.4937,-0.0835,-288.82,-1311.58,-1906.43
19620,-3.8721,0.5043,-0.0883,-804.44,1313.42,-1953.31
19630,-3.8721,0.5297,-0.0909,554.93,704.10,-1000.18
19640,-3.8719,0.5687,-0.0902,-195.07,360.35,859.19
19650,-3.8719,0.6149,-0.0859,804.93,454.22,-828.31
19660,-3.8718,0.6576,-0.0829,-1288.82,1001.16,1812.32
19670,-3.8717,0.6956,-0.0801,179.93,1391.91,1140.44
19680,-3.8716,0.7301,-0.0753,1039.31,1751.34,968.57
19690,-3.8715,0.7523,-0.0750,1461.18,-1639.22,468.57
19700,-3.8715,0.7576,-0.0790,304.93,-1592.29,-797.06
19710,-3.8713,0.7487,-0.0800,976.81,1892.09,1609.19
19720,-3.8712,0.7306,-0.0778,-163.82,1767.03,77.94
19730,-3.8712,0.7074,-0.0775,1523.68,-1951.72,-1531.43
19740,-3.8711,0.6827,-0.0790,-1445.07,-1920.53,593.57
19750,-3.8711,0.6621,-0.0813,-601.32,1891.91,-1765.81
19760,-3.8711,0.6492,-0.0836,758.06,1595.03,-1078.31
19770,-3.8711,0.6471,-0.0834,-898.19,1298.10,-1265.81
19780,-3.8711,0.6571,-0.0787,-1163.82,1329.35,-1531.43
19790,-3.8711,0.6786,-0.0690,117.43,1923.16,-1718.93
19800,-3.8711,0.7075,-0.0570,-1132.57,-826.84,1718.57
19810,-3.8711,0.7358,-0.0454,-1429.44,704.47,437.38
19820,-3.8712,0.7546,-0.0367,-1804.44,-1811.10,-1312.62
19830,-3.8712,0.7583,-0.0336,601.81,-701.66,546.75
19840,-3.8713,0.7473,-0.0342,1070.56,-295.41,-1890.75
19850,-3.8715,0.7255,-0.0363,-335.69,-373.60,-15.75
19860,-3.8715,0.6958,-0.0323,867.43,-639.22,-1218.87
19870,-3.8715,0.6609,-0.0154,1070.56,-139.28,-1453.25
19880,-3.8715,0.6261,0.0081,601.81,-1967.47,-906.31
19890,-3.8713,0.5967,0.0286,148.68,1032.47,265.62
19900,-3.8713,0.5747,0.0432,383.06,-342.59,1421.88
19910,-3.8713,0.5588,0.0497,1570.56,1532.35,1671.94
19920,-3.8713,0.5493,0.0502,-460.69,-1639.59,390.69
19930,-3.8715,0.5515,0.0493,-1679.44,-1577.09,1718.81
19940,-3.8716,0.5701,0.0508,-1398.19,-1686.46,-1765.56
19950,-3.8717,0.6023,0.0558,976.81,-1498.90,-1749.94
19960,-3.8718,0.6364,0.0619,1101.81,-858.22,-1812.44
19970,-3.8719,0.6644,0.0699,1461.18,-76.90,-1484.31
19980,-3.8721,0.6831,0.0792,1054.93,954.41,-234.25
19990,-3.8721,0.6882,0.0891,-554.44,-1858.09,-1343.63
20000,-3.8721,0.6748,0.1003,101.81,-592.41,-609.25
20010,-3.8719,0.6357,0.1136,-1616.94,845.03,1359.56
20020,-3.8719,0.5768,0.1298,1383.06,-1451.90,-218.57
20030,-3.8718,0.5159,0.1416,1836.18,610.47,-1702.88
20040,-3.8717,0.4647,0.1410,-1960.69,-1874.02,437.74
20050,-3.8717,0.4276,0.1285,-507.57,-1952.27,1578.37
20060,-3.8717,0.4104,0.1093,-1257.57,453.92,1656.49
20070,-3.8717,0.4137,0.0928,539.31,1985.17,1062.68
20080,-3.8717,0.4288,0.0916,961.18,-124.21,453.25
20090,-3.8717,0.4512,0.1088,-1101.32,-280.46,437.62
20100,-3.8717,0.4783,0.1405,1758.06,1922.73,1047.06
20110,-3.8717,0.5101,0.1774,1226.81,1985.29,1968.99
20120,-3.8717,0.5460,0.2095,1304.93,-1295.90,-1171.57
20130,-3.8717,0.5793,0.2312,1898.68,-1186.46,-718.38
20140,-3.8717,0.5994,0.2468,-1835.69,1594.85,-265.20
20150,-3.8716,0.5990,0.2661,726.81,-405.09,1187.93
20160,-3.8715,0.5815,0.2915,679.93,-1936.34,78.61
20170,-3.8715,0.5537,0.3174,-1554.44,1313.60,-171.33
20180,-3.8713,0.5197,0.3362,-1116.94,626.04,-499.39
20190,-3.8712,0.4823,0.3452,-1476.32,-967.77,-1780.64
20200,-3.8712,0.4453,0.3474,1742.43,188.42,-514.95
20210,-3.8712,0.4137,0.3461,1008.06,469.60,-702.45
20220,-3.8712,0.3940,0.3403,961.18,297.67,-1639.95
20230,-3.8712,0.3912,0.3344,-1554.44,-436.77,1516.24
20240,-3.8712,0.4066,0.3350,-1913.82,-1202.39,875.61
20250,-3.8713,0.4355,0.3400,54.93,-1124.21,-124.39
20260,-3.8713,0.4685,0.3446,-241.94,-483.58,1969.36
20270,-3.8715,0.4968,0.3457,-23.19,110.23,-749.33
20280,-3.8715,0.5148,0.3425,-398.19,250.92,344.42
20290,-3.8716,0.5199,0.3434,1898.68,-155.27,-1811.89
20300,-3.8716,0.5098,0.3513,-1445.07,-45.90,1531.86
20310,-3.8716,0.4811,0.3627,1258.06,969.73,-1343.08
20320,-3.8715,0.4376,0.3768,1586.18,-1577.21,828.80
20330,-3.8715,0.3894,0.3883,23.68,235.23,-1624.27
20340,-3.8715,0.3480,0.3900,1851.81,1703.86,-1718.02
20350,-3.8715,0.3250,0.3773,554.93,1922.55,625.73
20360,-3.8716,0.3226,0.3568,1601.81,297.49,-1530.52
20370,-3.8716,0.3357,0.3473,1304.93,1672.49,953.80
20380,-3.8716,0.3484,0.3541,-1023.19,453.74,641.30
20390,-3.8716,0.3442,0.3683,601.81,1328.80,-1233.70
20400,-3.8715,0.3159,0.3839,70.56,-858.70,-686.83
20410,-3.8712,0.2686,0.3975,445.56,1141.24,438.23
20420,-3.8711,0.2144,0.4052,-1616.94,-1124.51,735.11
20430,-3.8711,0.1664,0.3992,-554.44,-140.26,-936.77
20440,-3.8711,0.1407,0.3772,1304.93,-905.94,-1561.77
20450,-3.8712,0.1405,0.3466,-1976.32,281.49,-1108.64
20460,-3.8713,0.1587,0.3142,1992.43,359.62,-1702.45
20470,-3.8715,0.1875,0.2947,320.56,219.06,-858.76
20480,-3.8715,0.2158,0.2960,8.06,1719.12,-1561.95
20490,-3.8713,0.2366,0.3097,-366.94,1890.99,516.17
20500,-3.8712,0.2407,0.3254,-1710.69,-358.95,266.17
20510,-3.8712,0.2224,0.3364,-1179.44,1656.68,-452.51
20520,-3.8711,0.1885,0.3423,476.81,-937.07,844.36
20530,-3.8711,0.1520,0.3435,133.06,-187.13,203.74
20540,-3.8712,0.1211,0.3376,-538.82,-31.01,-515.01
20550,-3.8712,0.0956,0.3251,-491.94,-781.07,-61.89
20560,-3.8711,0.0724,0.3121,242.43,1609.56,1250.61
20570,-3.8711,0.0535,0.3014,1273.68,-46.75,-1468.20
20580,-3.8711,0.0475,0.2850,-1148.19,-1421.81,-1140.08
20590,-3.8711,0.0579,0.2612,-1913.82,484.44,-1796.33
20600,-3.8711,0.0775,0.2368,-585.69,1437.56,906.74
20610,-3.8712,0.0962,0.2172,1929.93,-1687.38,-640.20
20620,-3.8712,0.1073,0.2062,320.56,-202.94,-1421.51
20630,-3.8712,0.1019,0.2079,1742.43,-1609.19,-765.26
20640,-3.8711,0.0754,0.2207,1054.93,-1390.44,1125.37
20650,-3.8711,0.0414,0.2340,1664.31,250.12,-483.95
20660,-3.8710,0.0182,0.2356,1304.93,1953.19,1875.43
20670,-3.8710,0.0127,0.2229,-1663.82,-1843.75,-30.82
20680,-3.8708,0.0149,0.2008,1633.06,531.25,1000.43
20690,-3.8708,0.0093,0.1768,1914.31,1703.12,1172.24
20700,-3.8708,-0.0088,0.1555,1195.56,-1375.00,1562.81
20710,-3.8708,-0.0363,0.1393,-1116.94,-78.19,-1624.76
20720,-3.8708,-0.0681,0.1313,-632.57,1843.63,-359.13
20730,-3.8707,-0.1008,0.1311,-710.69,827.94,1547.12
20740,-3.8707,-0.1318,0.1321,-898.19,796.63,-156.01
20750,-3.8706,-0.1597,0.1272,-866.94,921.57,-1671.63
20760,-3.8705,-0.1838,0.1212,-429.44,296.51,1047.12
20770,-3.8704,-0.2041,0.1239,476.81,-469.12,265.81
20780,-3.8704,-0.2256,0.1322,1883.06,-125.43,-249.82
20790,-3.8702,-0.2463,0.1403,-866.94,937.01,-921.63
20800,-3.8701,-0.2614,0.1428,476.81,1968.26,1218.99
20810,-3.8701,-0.2709,0.1344,-1445.07,-1703.67,1328.37
20820,-3.8702,-0.2722,0.1193,1336.18,1218.20,-343.51
20830,-3.8702,-0.2596,0.1105,1164.31,-719.30,1312.68
20840,-3.8704,-0.2292,0.1188,-1226.32,-1844.30,-562.32
20850,-3.8704,-0.1838,0.1439,-1335.69,-781.74,-1577.94
20860,-3.8704,-0.1288,0.1774,476.81,-1562.87,-1890.38
20870,-3.8704,-0.0702,0.2145,-476.32,-1281.56,-1749.69
20880,-3.8704,-0.0175,0.2498,-976.32,-531.43,-1421.51
20890,-3.8704,0.0195,0.2771,1773.68,-15.69,-1858.95
20900,-3.8704,0.0415,0.2947,-1491.94,-531.25,0.49
20910,-3.8705,0.0532,0.3002,1320.56,1718.81,656.80
20920,-3.8706,0.0581,0.2966,-1179.44,-1578.06,1078.67
20930,-3.8707,0.0582,0.2904,-554.44,1968.81,1594.30
20940,-3.8708,0.0551,0.2865,-538.82,1171.94,-1608.83
20950,-3.8708,0.0490,0.2866,-945.07,671.94,0.55
20960,-3.8710,0.0422,0.2904,-1726.32,687.56,-1405.70
20970,-3.8710,0.0374,0.2972,1414.31,1171.94,1922.42
20980,-3.8710,0.0342,0.3073,789.31,-1953.06,1641.17
20990,-3.8710,0.0352,0.3197,383.06,-671.81,1422.42
21000,-3.8710,0.0419,0.3309,508.06,921.94,1031.86
21010,-3.8710,0.0522,0.3375,1367.43,-1640.56,281.86
21020,-3.8711,0.0619,0.3412,-1304.44,-796.81,-999.39
21030,-3.8711,0.0691,0.3436,-70.07,-328.06,1172.49
21040,-3.8712,0.0735,0.3447,851.81,-15.50,-1030.64
21050,-3.8712,0.0768,0.3450,1414.31,125.12,547.55
21060,-3.8713,0.0814,0.3450,1836.18,156.37,-1936.83
21070,-3.8715,0.0883,0.3468,-1570.07,156.37,-108.70
21080,-3.8715,0.0962,0.3505,-695.07,390.75,-1343.08
21090,-3.8715,0.1028,0.3564,320.56,859.56,-1608.70
21100,-3.8715,0.1078,0.3663,1164.31,1625.18,-1202.45
21110,-3.8715,0.1089,0.3765,1804.93,-1109.19,-61.83
21120,-3.8713,0.1056,0.3834,1945.56,187.68,1281.98
21130,-3.8713,0.1050,0.3888,1523.68,1078.31,-1827.39
21140,-3.8713,0.1140,0.3933,1445.56,1765.81,-1718.02
21150,-3.8713,0.1321,0.3931,-1398.19,-1656.07,1453.86
21160,-3.8713,0.1567,0.3877,914.31,-1687.26,281.98
21170,-3.8715,0.1853,0.3848,70.56,1625.31,-171.14
21180,-3.8713,0.2118,0.3884,-273.19,1250.31,47.61
21190,-3.8713,0.2343,0.3964,-882.57,1719.12,453.86
21200,-3.8713,0.2544,0.4066,1992.43,-1265.20,1485.11
21210,-3.8713,0.2729,0.4198,570.56,47.36,-546.08
21220,-3.8712,0.2888,0.4327,-1054.44,1734.86,1610.17
21230,-3.8712,0.3008,0.4385,976.81,-608.83,-1186.71
21240,-3.8712,0.3171,0.4327,-1491.94,125.55,-1436.65
21250,-3.8712,0.3419,0.4197,601.81,-608.76,891.42
21260,-3.8713,0.3691,0.4078,-226.32,1719.36,-1702.33
21270,-3.8713,0.3992,0.4023,-741.94,203.80,16.42
21280,-3.8715,0.4282,0.4009,-898.19,-499.27,-1702.39
21290,-3.8715,0.4518,0.3977,-1179.44,-686.71,985.11
21300,-3.8715,0.4729,0.3923,1836.18,-1092.90,172.61
21310,-3.8716,0.4933,0.3894,539.31,-1780.33,-546.14
21320,-3.8716,0.5103,0.3898,-851.32,1844.67,-1327.39
21330,-3.8716,0.5219,0.3904,1320.56,1891.60,1844.48
21340,-3.8716,0.5333,0.3862,-1195.07,1969.73,735.11
21350,-3.8717,0.5521,0.3744,273.68,1438.54,-733.64
21360,-3.8717,0.5758,0.3531,-1320.07,-77.09,1485.05
21370,-3.8718,0.5964,0.3199,1711.18,1204.22,-421.20
21380,-3.8718,0.6108,0.2838,351.81,954.28,-1311.89
21390,-3.8718,0.6141,0.2512,-1804.44,329.28,-921.33
21400,-3.8717,0.6049,0.2271,-1382.57,157.41,234.86
21410,-3.8717,0.5883,0.2197,1429.93,1063.66,1797.30
21420,-3.8717,0.5687,0.2162,-695.07,126.10,-937.07
21430,-3.8716,0.5500,0.2035,804.93,-327.03,109.74
21440,-3.8716,0.5325,0.1892,-1585.69,-1952.09,1172.24
21450,-3.8716,0.5128,0.1793,164.31,219.79,-1968.38
21460,-3.8716,0.4910,0.1727,1648.68,-1045.90,-1280.94
21470,-3.8716,0.4727,0.1686,-1148.19,-1889.71,-671.57
21480,-3.8716,0.4628,0.1631,508.06,1579.04,-296.57
21490,-3.8716,0.4620,0.1508,-757.57,875.85,-234.07
21500,-3.8716,0.4694,0.1327,-851.32,-702.27,-452.88
21510,-3.8716,0.4801,0.1177,86.18,985.29,-937.26
21520,-3.8716,0.4900,0.1129,1461.18,-936.58,-1968.57
21530,-3.8716,0.5022,0.1133,-1273.19,-1545.96,422.06
21540,-3.8717,0.5214,0.1121,289.31,-1499.02,-1109.19
21550,-3.8717,0.5424,0.1083,-1257.57,-1655.27,1953.31
21560,-3.8717,0.5573,0.1031,1429.93,1860.41,1578.31
21570,-3.8717,0.5648,0.0952,-663.82,1204.16,1406.43
21580,-3.8717,0.5677,0.0845,304.93,188.60,1359.56
21590,-3.8717,0.5685,0.0710,679.93,-1186.40,1203.25
21600,-3.8717,0.5693,0.0529,773.68,1094.85,547.00
21610,-3.8718,0.5743,0.0300,883.06,-1233.28,-406.19
21620,-3.8718,0.5831,0.0082,1523.68,-155.15,-1187.50
21630,-3.8718,0.5929,-0.0077,-1351.32,1047.97,-1765.62
21640,-3.8718,0.6050,-0.0183,-101.32,-983.28,1796.81
21650,-3.8718,0.6207,-0.0265,1445.56,1657.41,1515.56
21660,-3.8718,0.6409,-0.0348,-538.82,610.53,1109.31
21670,-3.8718,0.6617,-0.0444,-1960.69,-451.90,281.13
21680,-3.8719,0.6792,-0.0509,711.18,-1686.22,-375.12
21690,-3.8719,0.7012,-0.0511,-1054.44,1485.66,-500.12
21700,-3.8719,0.7281,-0.0515,1758.06,1454.47,-125.12
21710,-3.8718,0.7516,-0.0533,1211.18,1407.65,781.13
21720,-3.8718,0.7733,-0.0569,211.18,1173.34,1703.00
21730,-3.8718,0.7944,-0.0649,-1007.57,720.21,-1843.87
21740,-3.8718,0.8103,-0.0751,1695.56,-310.97,1890.44
21750,-3.8718,0.8198,-0.0814,-273.19,-1607.85,984.19
21760,-3.8718,0.8241,-0.0831,945.56,1579.71,187.32
21770,-3.8719,0.8220,-0.0863,1492.43,1360.96,-47.06
21780,-3.8718,0.8156,-0.0916,1226.81,954.71,296.69
21790,-3.8718,0.8052,-0.0941,398.68,282.84,906.07
21800,-3.8718,0.7903,-0.0925,-929.44,-45.35,1359.13
21810,-3.8718,0.7736,-0.0879,1164.31,157.78,1765.44
21820,-3.8718,0.7562,-0.0823,-976.32,751.46,-1203.31
21830,-3.8717,0.7380,-0.0770,804.93,1470.21,749.82
21840,-3.8717,0.7185,-0.0725,-1523.19,-1857.97,-984.56
21850,-3.8716,0.6980,-0.0671,-23.19,-1279.91,843.57
21860,-3.8716,0.6771,-0.0594,1351.81,-592.41,-1781.43
21870,-3.8716,0.6593,-0.0510,-1320.07,391.91,-640.75
21880,-3.8715,0.6472,-0.0430,398.68,1470.03,296.75
21890,-3.8715,0.6388,-0.0364,-1148.19,-1498.78,703.00
21900,-3.8715,0.6317,-0.0320,1773.68,-655.03,515.50
21910,-3.8716,0.6272,-0.0265,867.43,-92.53,-78.25
21920,-3.8716,0.6283,-0.0173,289.31,610.60,-843.81
21930,-3.8716,0.6350,-0.0077,429.93,1782.47,-1218.81
21940,-3.8716,0.6434,0.0021,1289.31,-983.15,-937.56
21950,-3.8716,0.6459,0.0149,-1632.57,266.85,-359.38
21960,-3.8716,0.6368,0.0277,-1320.07,1907.47,-125.00
21970,-3.8716,0.6201,0.0372,1523.68,-451.90,-812.50
21980,-3.8716,0.6050,0.0439,-616.94,766.78,1546.94
21990,-3.8717,0.5984,0.0502,1445.56,1626.16,-1140.56
22000,-3.8718,0.6073,0.0625,601.81,-1576.97,-656.19
22010,-3.8719,0.6389,0.0837,1742.43,1.16,-265.50
22020,-3.8719,0.6951,0.1096,1789.31,-1280.03,343.87
22030,-3.8721,0.7626,0.1339,976.81,-1967.41,1593.93
22040,-3.8722,0.8124,0.1544,1617.43,1142.09,-156.01
22050,-3.8722,0.8209,0.1749,-7.57,-232.85,-937.26
22060,-3.8722,0.7893,0.2012,1086.18,-1607.79,-999.69
22070,-3.8722,0.7340,0.2280,1039.31,1751.53,-124.63
22080,-3.8721,0.6702,0.2476,1961.18,1188.90,-1968.32
22090,-3.8719,0.6075,0.2646,1789.31,-311.22,750.43
22100,-3.8719,0.5514,0.2816,1773.68,1876.16,-421.39
22110,-3.8718,0.5035,0.2999,-1413.82,47.91,-905.70
22120,-3.8717,0.4598,0.3191,461.18,-1608.40,-343.20
22130,-3.8715,0.4122,0.3361,-1132.57,844.60,1484.99
22140,-3.8712,0.3602,0.3517,773.68,-983.58,172.49
22150,-3.8711,0.3136,0.3644,-1882.57,1016.30,-1577.45
22160,-3.8710,0.2770,0.3713,148.68,-1358.76,-546.20
22170,-3.8708,0.2505,0.3723,-538.82,-468.26,-1327.45
22180,-3.8708,0.2379,0.3680,70.56,-343.26,-593.08
22190,-3.8708,0.2465,0.3589,-1538.82,-890.20,1735.05
22200,-3.8710,0.2817,0.3431,-445.07,1937.93,1828.80
22210,-3.8711,0.3423,0.3214,70.56,-77.58,625.61
22220,-3.8712,0.4056,0.3077,-179.44,1141.24,578.74
22230,-3.8713,0.4430,0.3240,-70.07,-608.64,-233.83
22240,-3.8712,0.4481,0.3652,711.18,1469.60,-1452.51
22250,-3.8711,0.4242,0.4023,1367.43,-1249.15,-389.95
22260,-3.8708,0.3756,0.4153,-1695.07,-499.21,375.73
22270,-3.8708,0.3182,0.4037,86.18,1156.98,-1608.58
22280,-3.8708,0.2729,0.3810,742.43,-327.51,1110.11
22290,-3.8710,0.2544,0.3549,-1054.44,766.11,1328.86
22300,-3.8711,0.2656,0.3245,570.56,1422.36,203.80
22310,-3.8713,0.3009,0.2950,-1991.94,1531.74,-1015.01
22320,-3.8715,0.3478,0.2708,-1476.32,1766.17,-1983.83
22330,-3.8716,0.3905,0.2520,523.68,-1343.08,1406.74
22340,-3.8717,0.4230,0.2460,1992.43,250.73,-1530.76
22350,-3.8717,0.4453,0.2664,-1851.32,-514.83,-780.82
22360,-3.8716,0.4536,0.3159,1008.06,-1905.40,-108.89
22370,-3.8713,0.4413,0.3691,-1929.44,438.35,1953.74
22380,-3.8712,0.4104,0.3945,492.43,-749.15,-968.08
22390,-3.8711,0.3716,0.3823,539.31,-1499.21,1485.11
22400,-3.8711,0.3329,0.3455,-429.44,938.17,375.73
22410,-3.8712,0.2961,0.3007,-1382.57,219.36,31.92
22420,-3.8715,0.2686,0.2638,1914.31,-1515.08,-1358.83
22430,-3.8716,0.2565,0.2451,-1616.94,1766.11,-1202.64
22440,-3.8716,0.2596,0.2402,836.18,-624.51,1312.93
22450,-3.8716,0.2798,0.2488,1242.43,-1249.51,1703.55
22460,-3.8716,0.3157,0.2744,-179.44,-155.76,-499.57
22470,-3.8715,0.3545,0.3060,414.31,-874.39,-1624.51
22480,-3.8713,0.3772,0.3302,1383.06,-827.45,1719.30
22490,-3.8712,0.3705,0.3463,289.31,-1733.64,875.61
22500,-3.8712,0.3328,0.3602,-570.07,328.80,-718.08
22510,-3.8711,0.2777,0.3684,-1398.19,-1890.01,828.80
22520,-3.8711,0.2218,0.3586,-445.07,-843.26,1703.80
22530,-3.8711,0.1747,0.3323,398.68,1906.68,-1733.70
22540,-3.8711,0.1338,0.3025,-1632.57,-1468.44,-1640.01
22550,-3.8711,0.0925,0.2841,1133.06,-1281.01,1953.67
22560,-3.8711,0.0477,0.2820,-148.19,359.50,1484.92
22570,-3.8711,0.0001,0.2806,-1882.57,93.81,1641.17
22580,-3.8711,-0.0416,0.2662,23.68,-78.12,-1155.76
22590,-3.8710,-0.0643,0.2454,-1320.07,-1906.37,797.36
22600,-3.8710,-0.0691,0.2295,-226.32,-578.31,-905.82
22610,-3.8708,-0.0667,0.2252,-835.69,1390.44,1062.93
22620,-3.8708,-0.0527,0.2305,-523.19,843.57,1609.80
22630,-3.8708,-0.0275,0.2314,1258.06,1515.50,203.55
22640,-3.8710,-0.0063,0.2189,492.43,1640.56,1250.43
22650,-3.8711,0.0068,0.2025,-804.44,31.19,1422.30
22660,-3.8712,0.0176,0.1964,883.06,1921.88,-1905.88
22670,-3.8712,0.0282,0.2015,-1741.94,1140.62,1172.24
22680,-3.8712,0.0409,0.2156,-382.57,1796.88,-640.26
22690,-3.8711,0.0547,0.2347,1242.43,-406.19,-218.38
22700,-3.8708,0.0566,0.2443,-991.94,-1953.06,141.05
22710,-3.8708,0.0388,0.2383,-741.94,-734.31,-1452.70
22720,-3.8708,0.0099,0.2255,976.81,-1499.94,-905.82
22730,-3.8708,-0.0177,0.2052,1273.68,859.38,-1312.07
22740,-3.8708,-0.0382,0.1757,1742.43,-1718.81,1859.74
22750,-3.8708,-0.0535,0.1447,-882.57,-1500.12,750.31
22760,-3.8710,-0.0684,0.1200,1164.31,-1468.87,-562.26
22770,-3.8710,-0.0839,0.1041,-741.94,-625.18,1937.68
22780,-3.8710,-0.0980,0.0967,1273.68,1343.57,1312.68
22790,-3.8710,-0.1119,0.1044,-538.82,390.38,-1765.44
22800,-3.8708,-0.1241,0.1284,1679.93,1374.76,343.93
22810,-3.8708,-0.1285,0.1515,117.43,452.88,-718.51
22820,-3.8707,-0.1260,0.1587,-445.07,-594.06,-1702.88
22830,-3.8707,-0.1283,0.1499,-116.94,327.82,-62.19
22840,-3.8707,-0.1422,0.1329,-413.82,-797.18,-374.76
22850,-3.8707,-0.1649,0.1177,1804.93,1030.94,-1515.38
22860,-3.8707,-0.1899,0.1100,-1101.32,-922.24,1593.93
22870,-3.8707,-0.2098,0.1100,-304.44,-1906.68,1437.68
22880,-3.8707,-0.2275,0.1139,1148.68,-1906.68,1859.56
22890,-3.8707,-0.2402,0.1204,-1116.94,-1406.74,-1327.94
22900,-3.8707,-0.2418,0.1238,1258.06,-578.61,-609.19
22910,-3.8707,-0.2374,0.1211,1054.93,-141.11,-515.44
22920,-3.8707,-0.2241,0.1194,1617.43,-484.86,-593.57
22930,-3.8707,-0.1967,0.1218,-679.44,-703.61,-640.44
22940,-3.8707,-0.1594,0.1309,-1163.82,-391.05,-515.44
22950,-3.8707,-0.1230,0.1481,-398.19,765.26,-31.01
22960,-3.8706,-0.0914,0.1711,258.06,-1031.49,984.62
22970,-3.8706,-0.0601,0.1918,304.93,1921.69,-1780.94
22980,-3.8706,-0.0251,0.2046,320.56,562.38,-921.51
22990,-3.8706,0.0111,0.2134,789.31,-1796.94,-593.38
23000,-3.8706,0.0458,0.2173,1429.93,-687.50,-984.01
23010,-3.8706,0.0750,0.2172,1867.43,-187.44,1672.24
23020,-3.8707,0.0936,0.2196,1601.81,-203.00,-468.38
23030,-3.8707,0.1051,0.2286,-7.57,109.50,969.18
23040,-3.8708,0.1173,0.2400,1461.18,1265.81,-1374.57
23050,-3.8708,0.1331,0.2484,-976.32,-1281.07,1203.55
23060,-3.8708,0.1483,0.2551,1039.31,-202.88,422.30
23070,-3.8710,0.1598,0.2604,-1007.57,656.49,-405.76
23080,-3.8710,0.1675,0.2644,461.18,1328.43,-1640.14
23090,-3.8710,0.1721,0.2697,1445.56,1844.06,703.61
23100,-3.8711,0.1761,0.2753,-1960.69,-1484.07,-1046.39
23110,-3.8711,0.1781,0.2799,-1445.07,-765.32,1641.11
23120,-3.8711,0.1748,0.2822,-1195.07,-171.57,812.99
23130,-3.8711,0.1678,0.2788,-1616.94,125.31,78.67
23140,-3.8712,0.1588,0.2736,1492.43,-312.19,-905.76
23150,-3.8712,0.1504,0.2721,336.18,-984.07,1281.74
23160,-3.8713,0.1508,0.2770,-741.94,-1171.63,-905.76
