timestamp_ms,ax,ay,az,gx,gy,gz
0,-3.8713,0.5067,0.3987,867.43,-1748.96,266.36
10,-3.8713,0.4778,0.4136,867.43,-967.77,625.73
20,-3.8713,0.4528,0.4379,1164.31,938.42,-1436.71
30,-3.8712,0.4427,0.4532,1961.18,47.73,1172.73
40,-3.8712,0.4502,0.4418,679.93,-1983.52,-1889.77
50,-3.8712,0.4669,0.4119,1633.06,547.73,1078.98
60,-3.8713,0.4796,0.3849,-226.32,719.60,-889.83
70,-3.8713,0.4744,0.3678,1398.68,1266.54,719.48
80,-3.8715,0.4451,0.3551,726.81,-920.96,-1718.08
90,-3.8715,0.3999,0.3392,976.81,1453.98,141.30
100,-3.8716,0.3561,0.3209,-804.44,-577.39,-1405.64
110,-3.8716,0.3262,0.3073,1586.18,1078.80,1766.24
120,-3.8716,0.3119,0.3003,1758.06,-671.26,1719.30
130,-3.8716,0.3066,0.2992,-70.07,-1561.95,-1108.83
140,-3.8715,0.3044,0.3064,-741.94,-1702.58,1359.92
150,-3.8715,0.3025,0.3176,-1023.19,-780.70,-30.70
160,-3.8713,0.2992,0.3247,-1273.19,656.80,1922.49
170,-3.8713,0.2944,0.3274,-1695.07,1563.05,-608.76
180,-3.8712,0.2872,0.3259,1695.56,1906.80,703.74
190,-3.8712,0.2721,0.3192,773.68,1719.30,-1874.39
200,-3.8712,0.2467,0.3118,-1163.82,859.86,-140.01
210,-3.8711,0.2163,0.3043,-413.82,-93.32,1391.17
220,-3.8711,0.1873,0.2937,-304.44,-1046.51,-1952.58
230,-3.8711,0.1608,0.2806,-23.19,1594.06,1703.67
240,-3.8711,0.1342,0.2675,586.18,-77.82,531.74
250,-3.8712,0.1041,0.2552,1179.93,-1765.38,-655.76
260,-3.8712,0.0714,0.2422,1336.18,672.06,-1140.14
270,-3.8712,0.0410,0.2274,1148.68,-999.88,-1296.45
280,-3.8712,0.0115,0.2124,1258.06,1109.44,-1671.45
290,-3.8712,-0.0199,0.1980,1476.81,-812.50,1594.12
300,-3.8712,-0.0468,0.1837,1461.18,1359.31,469.12
310,-3.8713,-0.0624,0.1709,-1976.32,-468.87,-952.82
320,-3.8713,-0.0671,0.1589,23.68,1890.50,1297.18
330,-3.8715,-0.0659,0.1439,-585.69,359.19,-812.19
340,-3.8715,-0.0632,0.1248,-429.44,-1562.68,890.87
350,-3.8716,-0.0597,0.1071,-85.69,-15.81,-1312.32
360,-3.8716,-0.0597,0.0973,367.43,1718.63,1390.81
370,-3.8716,-0.0686,0.0959,367.43,468.63,1703.31
380,-3.8716,-0.0874,0.1040,-773.19,296.69,-546.69
390,-3.8715,-0.1085,0.1185,820.56,1327.94,1718.93
400,-3.8715,-0.1183,0.1265,-1882.57,-812.74,-437.32
410,-3.8713,-0.1160,0.1230,867.43,202.88,390.87
420,-3.8715,-0.1071,0.1118,1164.31,-234.62,-171.69
430,-3.8715,-0.0935,0.0972,-1695.07,-1672.12,-1812.32
440,-3.8715,-0.0768,0.0850,39.31,452.94,578.31
450,-3.8716,-0.0588,0.0798,-1820.07,-1109.56,-156.13
460,-3.8716,-0.0399,0.0819,476.81,-1765.75,-140.50
470,-3.8715,-0.0183,0.0879,-1101.32,-1500.12,312.62
480,-3.8715,0.0040,0.0964,1664.31,-734.44,953.25
490,-3.8715,0.0245,0.1107,523.68,343.75,1593.93
500,-3.8715,0.0428,0.1382,-851.32,-1828.12,-1171.69
510,-3.8713,0.0604,0.1779,1492.43,1687.56,812.74
520,-3.8713,0.0809,0.2179,-257.57,-1234.31,-1202.82
530,-3.8712,0.1060,0.2450,-1632.57,-109.25,515.99
540,-3.8712,0.1315,0.2524,1570.56,-640.44,-1952.70
550,-3.8712,0.1519,0.2468,836.18,312.74,-1249.51
560,-3.8712,0.1672,0.2424,-554.44,-406.01,-1937.07
570,-3.8712,0.1810,0.2427,1414.31,-968.44,578.55
580,-3.8713,0.1947,0.2440,-820.07,-937.19,-671.45
590,-3.8713,0.2040,0.2479,929.93,-765.26,-1265.20
600,-3.8713,0.2046,0.2565,-1882.57,-265.26,-1077.70
610,-3.8713,0.1968,0.2668,-1804.44,828.49,-187.01
620,-3.8712,0.1854,0.2747,1195.56,-1843.38,1016.11
630,-3.8712,0.1804,0.2817,-257.57,-843.44,-1530.76
640,-3.8711,0.1846,0.2917,-898.19,62.81,0.55
650,-3.8711,0.1934,0.3031,-366.94,1344.06,1422.42
660,-3.8711,0.2072,0.3163,758.06,-1202.76,-1077.58
670,-3.8710,0.2249,0.3302,-1476.32,484.74,234.99
680,-3.8710,0.2406,0.3403,789.31,-1733.95,547.49
690,-3.8711,0.2529,0.3474,-1195.07,-437.07,-46.26
700,-3.8711,0.2635,0.3544,383.06,469.24,-1171.20
710,-3.8711,0.2716,0.3615,1742.43,1359.86,1266.30
720,-3.8712,0.2797,0.3671,-1226.32,-1733.89,-30.58
730,-3.8712,0.2932,0.3667,-195.07,-1015.14,-499.33
740,-3.8712,0.3121,0.3602,1539.31,-1061.95,-311.83
750,-3.8711,0.3334,0.3557,-38.82,-1890.08,391.30
760,-3.8711,0.3508,0.3611,-1320.07,1531.86,1469.42
770,-3.8711,0.3600,0.3743,914.31,-1780.58,-1093.08
780,-3.8710,0.3660,0.3875,-1913.82,-93.08,688.17
790,-3.8710,0.3768,0.3953,-1148.19,1594.42,-1483.64
800,-3.8710,0.3945,0.3959,242.43,-1405.52,-280.52
810,-3.8708,0.4166,0.3928,-1491.94,-1327.39,63.23
820,-3.8708,0.4410,0.3916,1336.18,-1717.96,188.23
830,-3.8708,0.4641,0.3938,461.18,-1874.15,813.23
840,-3.8708,0.4799,0.3969,-585.69,-1592.90,1578.86
850,-3.8708,0.4855,0.3967,1429.93,-1202.21,1703.86
860,-3.8708,0.4821,0.3933,-1851.32,-1217.83,1391.36
870,-3.8708,0.4708,0.3884,1711.18,-1655.33,1422.61
880,-3.8708,0.4540,0.3815,273.68,1719.67,-1905.52
890,-3.8708,0.4371,0.3707,-1882.57,828.98,-718.02
900,-3.8707,0.4277,0.3582,-38.82,-546.08,735.05
910,-3.8707,0.4279,0.3502,-1241.94,1844.54,-1905.58
920,-3.8707,0.4364,0.3489,-1226.32,828.92,-983.70
930,-3.8707,0.4510,0.3518,-132.57,657.04,-639.95
940,-3.8707,0.4706,0.3563,1742.43,1032.10,-968.08
950,-3.8707,0.4935,0.3584,242.43,1610.29,1610.05
960,-3.8708,0.5143,0.3597,-820.07,1875.92,-749.33
970,-3.8708,0.5238,0.3646,1836.18,-1952.15,891.30
980,-3.8710,0.5200,0.3706,-945.07,-1327.15,-593.08
990,-3.8710,0.5121,0.3716,-1429.44,-561.52,-1296.20
1000,-3.8710,0.5051,0.3627,1554.93,-436.52,-1811.83
1010,-3.8710,0.4998,0.3425,664.31,-1577.15,766.30
1020,-3.8711,0.4917,0.3120,-23.19,-155.33,1359.99
1030,-3.8712,0.4755,0.2781,-1054.44,-61.58,125.55
1040,-3.8715,0.4547,0.2496,867.43,-405.33,-1577.64
1050,-3.8716,0.4358,0.2294,-1788.82,-46.02,1797.30
1060,-3.8717,0.4192,0.2170,-210.69,1360.17,-1218.32
1070,-3.8717,0.4010,0.2135,1664.31,-217.96,1156.62
1080,-3.8717,0.3820,0.2158,-663.82,-671.14,844.12
1090,-3.8717,0.3682,0.2192,898.68,-374.27,1500.37
1100,-3.8717,0.3693,0.2201,-866.94,63.17,-1202.70
1110,-3.8716,0.3916,0.2175,-726.32,172.55,406.68
1120,-3.8716,0.4236,0.2133,-1866.94,-155.52,1265.99
1130,-3.8716,0.4524,0.2068,-1773.19,-702.33,469.12
1140,-3.8717,0.4797,0.2008,1914.31,-1530.40,-1452.76
1150,-3.8717,0.5042,0.1985,1414.31,1704.04,1094.12
1160,-3.8717,0.5206,0.2018,539.31,1407.23,1203.49
1170,-3.8717,0.5294,0.2122,-1351.32,1829.10,-1202.76
1180,-3.8716,0.5332,0.2260,-226.32,-842.77,859.74
1190,-3.8716,0.5354,0.2382,258.06,922.91,-1452.70
1200,-3.8716,0.5421,0.2456,539.31,-1514.59,-390.20
1210,-3.8716,0.5593,0.2401,1398.68,-561.46,-499.57
1220,-3.8716,0.5844,0.2173,-398.19,-1264.59,1656.68
1230,-3.8717,0.6029,0.1813,-1195.07,-186.40,1781.62
1240,-3.8718,0.6035,0.1415,1179.93,-795.72,469.06
1250,-3.8721,0.5880,0.1060,1258.06,-1889.47,-1140.38
1260,-3.8722,0.5656,0.0809,-726.32,1563.60,1968.93
1270,-3.8723,0.5443,0.0706,398.68,-1639.53,-1484.25
1280,-3.8723,0.5300,0.0741,1679.93,1032.29,672.00
1290,-3.8724,0.5261,0.0850,-148.19,1485.35,-31.13
1300,-3.8724,0.5354,0.0934,-648.19,-1124.02,-749.88
1310,-3.8724,0.5571,0.0957,539.31,-45.84,1843.87
1320,-3.8726,0.5880,0.0911,-679.44,251.04,-202.94
1330,-3.8726,0.6304,0.0743,-726.32,-342.65,1359.50
1340,-3.8727,0.6810,0.0454,695.56,1516.85,-515.50
1350,-3.8727,0.7308,0.0194,-820.07,1813.78,-1015.56
1360,-3.8726,0.7673,0.0172,1554.93,-1514.22,734.38
1370,-3.8724,0.7762,0.0415,-1773.19,-1795.41,1234.38
1380,-3.8723,0.7572,0.0759,-632.57,1313.96,-796.81
1390,-3.8721,0.7264,0.1056,929.93,1720.21,906.37
1400,-3.8719,0.7031,0.1281,992.43,1517.03,-1749.82
1410,-3.8718,0.6963,0.1450,-1991.94,391.97,-499.76
1420,-3.8716,0.6982,0.1610,1133.06,-1436.16,0.24
1430,-3.8716,0.6982,0.1793,1383.06,610.72,-249.69
1440,-3.8715,0.6924,0.1934,1383.06,-1045.53,-718.44
1450,-3.8713,0.6790,0.1925,633.06,751.34,-1843.38
1460,-3.8713,0.6603,0.1741,-1085.69,641.91,-1124.63
1470,-3.8713,0.6416,0.1455,523.68,-1717.47,1125.31
1480,-3.8715,0.6279,0.1204,-1866.94,-1373.78,-1937.26
1490,-3.8716,0.6228,0.1056,383.06,-592.53,-1249.82
1500,-3.8717,0.6277,0.0990,-273.19,1516.78,-124.82
1510,-3.8717,0.6382,0.0995,351.81,673.10,1812.68
1520,-3.8717,0.6472,0.1073,1695.56,735.60,547.06
1530,-3.8718,0.6515,0.1169,-1148.19,1735.60,-15.44
1540,-3.8717,0.6508,0.1246,-601.32,-1030.03,156.43
1550,-3.8717,0.6436,0.1320,-695.07,-45.65,812.68
1560,-3.8717,0.6276,0.1427,-1616.94,891.85,1984.62
1570,-3.8717,0.6035,0.1580,336.18,-1733.15,-312.26
1580,-3.8716,0.5760,0.1720,1258.06,219.91,1406.56
1590,-3.8716,0.5537,0.1835,1742.43,-1983.28,-984.07
1600,-3.8715,0.5399,0.1952,-1116.94,-514.59,703.43
1610,-3.8715,0.5272,0.2074,1117.43,985.41,-1640.26
1620,-3.8715,0.5126,0.2224,-507.57,-1452.15,-327.76
1630,-3.8713,0.4958,0.2386,1617.43,469.73,422.30
1640,-3.8713,0.4762,0.2482,-523.19,-1452.21,422.30
1650,-3.8715,0.4581,0.2491,961.18,-233.46,-233.95
1660,-3.8715,0.4454,0.2468,-1351.32,-108.52,-718.32
1670,-3.8715,0.4363,0.2472,1023.68,-405.40,-280.82
1680,-3.8713,0.4272,0.2563,-148.19,-358.58,937.93
1690,-3.8713,0.4205,0.2765,-1304.44,813.29,-1530.76
1700,-3.8713,0.4192,0.2983,1836.18,-608.58,-312.01
1710,-3.8713,0.4240,0.3099,1664.31,-1811.71,-140.08
1720,-3.8713,0.4353,0.3105,-1726.32,-327.33,-1124.45
1730,-3.8713,0.4517,0.3058,-273.19,-249.21,1516.17
1740,-3.8713,0.4651,0.3030,1820.56,-858.52,516.17
1750,-3.8713,0.4669,0.3054,-460.69,-1217.90,47.42
1760,-3.8713,0.4583,0.3113,-226.32,-905.40,406.80
1770,-3.8713,0.4434,0.3223,-1335.69,-155.40,1922.42
1780,-3.8712,0.4249,0.3383,758.06,1250.85,234.99
1790,-3.8712,0.4070,0.3524,-1601.32,-702.33,-1718.14
1800,-3.8712,0.3923,0.3595,101.81,1110.17,-202.45
1810,-3.8711,0.3763,0.3644,-1773.19,-1983.64,781.92
1820,-3.8711,0.3579,0.3702,179.93,-1358.64,1203.80
1830,-3.8711,0.3440,0.3722,1820.56,-608.70,1141.30
1840,-3.8711,0.3387,0.3658,39.31,-358.70,735.05
1850,-3.8711,0.3416,0.3544,-632.57,-1171.26,47.55
1860,-3.8712,0.3483,0.3440,-273.19,1359.99,-639.95
1870,-3.8712,0.3538,0.3372,586.18,31.92,-983.70
1880,-3.8712,0.3533,0.3342,1289.31,-843.08,-780.64
1890,-3.8712,0.3447,0.3345,1226.81,-1218.08,-358.76
1900,-3.8712,0.3312,0.3351,133.06,-1186.83,-171.26
1910,-3.8712,0.3182,0.3361,-1601.32,-1108.76,-358.76
1920,-3.8712,0.3136,0.3400,742.43,-983.76,-780.64
1930,-3.8712,0.3240,0.3434,148.68,-483.76,-921.26
1940,-3.8712,0.3479,0.3403,1476.81,-46.26,-843.14
1950,-3.8712,0.3766,0.3325,539.31,-436.83,-858.76
1960,-3.8712,0.3979,0.3279,211.18,-1436.77,-999.39
1970,-3.8712,0.4055,0.3285,-1054.44,1969.48,-1186.89
1980,-3.8712,0.4047,0.3270,-85.69,-1952.39,-1483.76
1990,-3.8712,0.4033,0.3195,-195.07,1860.11,1859.99
2000,-3.8712,0.4044,0.3104,-366.94,891.36,906.86
2010,-3.8713,0.4062,0.3075,-226.32,-264.89,-15.08
2020,-3.8713,0.4094,0.3147,8.06,-639.83,-436.95
2030,-3.8713,0.4182,0.3307,414.31,282.04,-124.39
2040,-3.8712,0.4335,0.3477,1539.31,-1671.08,422.49
2050,-3.8712,0.4513,0.3591,-507.57,500.79,625.67
2060,-3.8712,0.4680,0.3617,1773.68,1969.60,63.17
2070,-3.8713,0.4805,0.3521,-85.69,-1702.27,-1718.08
2080,-3.8715,0.4877,0.3395,1508.06,1063.42,-624.33
2090,-3.8715,0.4937,0.3383,-1570.07,-545.96,172.49
2100,-3.8716,0.5057,0.3484,-804.44,-702.21,1500.61
2110,-3.8717,0.5206,0.3632,742.43,594.73,-639.95
2120,-3.8717,0.5233,0.3715,-1351.32,-1514.65,766.30
2130,-3.8718,0.4991,0.3661,-1007.57,-452.15,1531.92
2140,-3.8719,0.4434,0.3534,-101.32,-1139.71,-1171.20
2150,-3.8719,0.3716,0.3391,758.06,1235.23,1547.55
2160,-3.8719,0.3071,0.3186,-429.44,-593.08,1500.61
2170,-3.8719,0.2703,0.2944,-679.44,781.80,-1999.39
2180,-3.8719,0.2678,0.2706,-1398.19,1687.99,-1374.45
2190,-3.8719,0.2887,0.2493,-1710.69,-1358.89,-546.39
2200,-3.8718,0.3209,0.2408,961.18,-93.20,734.80
2210,-3.8718,0.3510,0.2491,1086.18,-1171.26,-1327.70
2220,-3.8717,0.3679,0.2712,929.93,-108.70,1937.93
2230,-3.8716,0.3745,0.2960,-898.19,-1280.58,-1327.64
2240,-3.8715,0.3763,0.3093,-54.44,1891.30,-374.45
2250,-3.8713,0.3730,0.3077,179.93,-405.52,-530.70
2260,-3.8712,0.3695,0.2981,-241.94,-608.70,1797.42
2270,-3.8712,0.3666,0.2860,-695.07,-1843.08,-1124.45
2280,-3.8712,0.3544,0.2726,-1070.07,610.05,-858.83
2290,-3.8712,0.3302,0.2585,1367.43,-1108.70,-905.76
2300,-3.8712,0.3025,0.2472,-1726.32,1094.36,-858.89
2310,-3.8712,0.2791,0.2434,-1273.19,-358.83,-562.07
2320,-3.8711,0.2634,0.2474,-273.19,-843.26,578.55
2330,-3.8711,0.2542,0.2590,1726.81,-327.64,-937.07
2340,-3.8710,0.2450,0.2734,539.31,1156.74,-1921.39
2350,-3.8708,0.2303,0.2830,-632.57,-999.57,531.74
2360,-3.8708,0.2090,0.2869,1492.43,219.18,-1796.33
2370,-3.8708,0.1833,0.2859,-1241.94,719.12,-546.33
2380,-3.8707,0.1531,0.2780,-523.19,594.06,500.55
2390,-3.8707,0.1141,0.2621,-398.19,-421.63,984.86
2400,-3.8707,0.0669,0.2406,-1382.57,1547.06,562.99
2410,-3.8708,0.0184,0.2174,570.56,-1203.00,-483.95
2420,-3.8708,-0.0214,0.1962,-1632.57,-171.88,-1749.63
2430,-3.8708,-0.0465,0.1775,1273.68,1124.94,797.24
2440,-3.8710,-0.0576,0.1622,-1945.07,-1265.75,-796.57
2450,-3.8710,-0.0610,0.1509,633.06,781.13,1890.93
2460,-3.8710,-0.0626,0.1433,195.56,-672.00,1234.62
2470,-3.8710,-0.0662,0.1392,-7.57,-1640.81,953.37
2480,-3.8710,-0.0720,0.1350,-460.69,1827.94,562.74
2490,-3.8711,-0.0791,0.1288,-1210.69,1296.69,-359.13
2500,-3.8711,-0.0856,0.1213,1883.06,499.82,1906.49
2510,-3.8712,-0.0905,0.1127,1054.93,-453.31,-374.82
2520,-3.8712,-0.0907,0.1019,429.93,-1562.68,1125.18
2530,-3.8713,-0.0826,0.0918,398.68,1062.32,-1218.57
2540,-3.8713,-0.0674,0.0870,1429.93,-234.56,1000.12
2550,-3.8713,-0.0519,0.0905,-616.94,-843.93,62.62
2560,-3.8715,-0.0444,0.1010,1367.43,-406.37,-15.50
2570,-3.8713,-0.0438,0.1129,-1679.44,937.38,297.06
2580,-3.8713,-0.0426,0.1199,-1601.32,-1531.37,515.81
2590,-3.8713,-0.0386,0.1228,-1445.07,-640.75,281.43
2600,-3.8715,-0.0312,0.1298,-929.44,-265.75,-421.69
2610,-3.8715,-0.0175,0.1464,8.06,624.94,-984.13
2620,-3.8715,0.0018,0.1721,1773.68,-1250.06,-734.13
2630,-3.8713,0.0233,0.2045,242.43,-1968.75,719.06
2640,-3.8713,0.0460,0.2378,-1007.57,-1828.12,-921.51
2650,-3.8712,0.0695,0.2625,1898.68,-1562.44,1500.43
2660,-3.8712,0.0924,0.2745,898.68,1593.87,-952.64
2670,-3.8712,0.1132,0.2802,-163.82,-859.25,-640.14
2680,-3.8712,0.1294,0.2854,-1507.57,-140.44,-1233.89
2690,-3.8712,0.1459,0.2896,570.56,531.49,1922.42
2700,-3.8712,0.1682,0.2922,-1320.07,1062.74,1219.30
2710,-3.8712,0.1935,0.2946,1539.31,1406.56,719.30
2720,-3.8712,0.2146,0.2949,773.68,1703.49,297.42
2730,-3.8713,0.2257,0.2975,-523.19,1750.37,-249.45
2740,-3.8713,0.2269,0.3090,898.68,-1921.45,-765.08
2750,-3.8713,0.2266,0.3337,1054.93,-452.70,-671.33
2760,-3.8712,0.2302,0.3704,1008.06,-1280.82,422.49
2770,-3.8712,0.2375,0.4078,1476.81,-593.32,-1952.45
2780,-3.8712,0.2482,0.4374,-1585.69,203.55,-608.58
2790,-3.8712,0.2628,0.4597,-226.32,-15.20,-280.46
2800,-3.8712,0.2811,0.4683,1648.68,-1155.76,-1186.65
2810,-3.8712,0.3044,0.4659,-7.57,-62.01,1360.23
2820,-3.8712,0.3335,0.4725,-1023.19,-358.83,32.10
2830,-3.8713,0.3685,0.4928,-1304.44,484.99,-811.58
2840,-3.8713,0.4113,0.5168,-820.07,-921.20,-1092.83
2850,-3.8713,0.4606,0.5422,648.68,-1842.96,-1233.40
2860,-3.8713,0.5096,0.5579,-1038.82,1407.10,-1905.21
2870,-3.8713,0.5476,0.5558,1242.43,-592.77,891.66
2880,-3.8715,0.5686,0.5481,-1898.19,-858.34,-45.84
2890,-3.8715,0.5731,0.5416,789.31,-1842.65,-295.84
2900,-3.8715,0.5610,0.5366,1367.43,1329.22,-139.59
2910,-3.8713,0.5403,0.5315,-179.44,688.54,79.16
2920,-3.8713,0.5237,0.5253,1164.31,32.29,94.79
2930,-3.8715,0.5135,0.5165,-960.69,-764.65,-155.27
2940,-3.8715,0.5104,0.5028,1742.43,-1889.65,-920.90
2950,-3.8715,0.5159,0.4841,1336.18,360.35,1594.73
2960,-3.8715,0.5249,0.4673,-1960.69,1969.73,16.54
2970,-3.8716,0.5310,0.4591,-804.44,-186.52,-936.65
2980,-3.8716,0.5298,0.4569,-23.19,-1233.40,-827.27
2990,-3.8715,0.5170,0.4536,-179.44,-1514.65,672.73
3000,-3.8715,0.4921,0.4449,-1820.07,-1936.52,-936.65
3010,-3.8713,0.4617,0.4318,-1007.57,954.04,1188.35
3020,-3.8713,0.4323,0.4182,-898.19,-733.52,-1827.33
3030,-3.8713,0.4092,0.4052,-663.82,1532.04,1922.67
3040,-3.8713,0.3959,0.3905,383.06,-139.83,688.23
3050,-3.8715,0.3918,0.3779,-1320.07,1985.11,-780.52
3060,-3.8715,0.3944,0.3743,-1835.69,375.73,-1624.27
3070,-3.8715,0.4049,0.3845,-1507.57,-93.02,-1202.45
3080,-3.8713,0.4304,0.4054,-163.82,1219.48,781.98
3090,-3.8713,0.4696,0.4258,-898.19,-108.58,-702.39
3100,-3.8712,0.5032,0.4379,117.43,-1499.08,1188.29
3110,-3.8712,0.5099,0.4368,414.31,47.85,-1749.15
3120,-3.8712,0.4904,0.4283,1273.68,-92.77,-1249.21
3130,-3.8712,0.4651,0.4229,-1226.32,-1170.96,-1061.71
3140,-3.8712,0.4518,0.4225,-460.69,-1874.15,-1421.08
3150,-3.8712,0.4552,0.4236,1836.18,-1921.02,1219.54
3160,-3.8713,0.4729,0.4224,-1726.32,-1780.40,-811.71
3170,-3.8713,0.4946,0.4222,539.31,-1936.58,1563.29
3180,-3.8713,0.5056,0.4297,-679.44,-1952.21,1719.54
3190,-3.8712,0.4979,0.4448,726.81,-999.02,32.04
3200,-3.8712,0.4757,0.4579,-257.57,938.42,-608.52
3210,-3.8711,0.4521,0.4591,898.68,-1389.71,-1858.52
3220,-3.8711,0.4410,0.4491,1883.06,-1233.52,-967.90
3230,-3.8711,0.4503,0.4364,461.18,1485.23,1610.23
3240,-3.8712,0.4813,0.4279,1648.68,-139.77,-1046.08
3250,-3.8712,0.5284,0.4315,1617.43,-1233.46,797.67
3260,-3.8713,0.5785,0.4436,-351.32,-764.65,-171.08
3270,-3.8713,0.6198,0.4471,-1945.07,782.35,-217.90
3280,-3.8712,0.6488,0.4368,-663.82,1235.53,188.35
3290,-3.8712,0.6624,0.4181,-945.07,-92.53,125.79
3300,-3.8713,0.6636,0.3943,789.31,1516.91,-1249.21
3310,-3.8713,0.6611,0.3649,945.56,-1529.97,406.98
3320,-3.8715,0.6566,0.3333,633.06,-1295.59,1922.55
3330,-3.8716,0.6501,0.3052,54.93,-1342.47,-202.51
3340,-3.8716,0.6398,0.2820,-773.19,-936.28,-1858.83
3350,-3.8716,0.6266,0.2614,1898.68,94.97,281.80
3360,-3.8717,0.6154,0.2423,211.18,1454.35,1984.86
3370,-3.8718,0.6062,0.2266,-1226.32,-983.22,-62.07
3380,-3.8718,0.6016,0.2157,1601.81,1001.16,-1405.82
3390,-3.8718,0.6091,0.2097,1008.06,-389.47,1859.74
3400,-3.8718,0.6317,0.2041,1976.81,-1155.09,1312.87
3410,-3.8718,0.6610,0.1918,867.43,-1873.78,281.62
3420,-3.8719,0.6844,0.1716,617.43,548.16,-1546.51
3430,-3.8719,0.6953,0.1483,-382.57,1970.03,47.18
3440,-3.8721,0.6946,0.1255,1008.06,-1014.28,1406.49
3450,-3.8722,0.6851,0.1062,914.31,63.84,-890.38
3460,-3.8722,0.6732,0.0956,-304.44,1595.03,1578.31
3470,-3.8722,0.6648,0.0940,-1820.07,235.66,734.56
3480,-3.8722,0.6606,0.0990,1101.81,32.53,172.06
3490,-3.8723,0.6653,0.1084,570.56,673.16,-468.57
3500,-3.8723,0.6853,0.1144,1164.31,1876.28,-1359.19
3510,-3.8723,0.7140,0.1113,-273.19,-1358.09,1093.93
3520,-3.8724,0.7347,0.0974,-601.32,-1748.66,-1718.57
3530,-3.8726,0.7428,0.0765,-1945.07,470.15,-1437.32
3540,-3.8727,0.7415,0.0585,-913.82,1798.28,-921.75
3550,-3.8727,0.7323,0.0450,-1085.69,-514.22,78.19
3560,-3.8728,0.7200,0.0371,1742.43,1767.03,1359.44
3570,-3.8729,0.7107,0.0354,164.31,751.40,-937.44
3580,-3.8729,0.7106,0.0364,-1023.19,532.59,1531.31
3590,-3.8729,0.7190,0.0399,-1038.82,657.59,1625.06
3600,-3.8729,0.7249,0.0439,39.31,1110.78,-46.81
3610,-3.8727,0.7253,0.0527,789.31,1626.40,78.19
3620,-3.8726,0.7218,0.0718,851.81,-1248.60,1015.69
3630,-3.8724,0.7120,0.0948,398.68,1188.90,-1593.63
3640,-3.8723,0.6920,0.1149,-851.32,141.97,-140.44
3650,-3.8721,0.6583,0.1288,586.18,-1295.53,781.43
3660,-3.8719,0.6145,0.1389,273.68,485.66,718.99
3670,-3.8719,0.5632,0.1443,-1335.69,1782.41,-718.51
3680,-3.8718,0.5128,0.1434,101.81,-1530.15,640.87
3690,-3.8718,0.4720,0.1400,1648.68,-1639.65,1625.24
3700,-3.8718,0.4412,0.1403,429.93,1922.79,-890.38
3710,-3.8717,0.4210,0.1498,476.81,1953.98,937.74
3720,-3.8717,0.4139,0.1697,1898.68,-827.33,-1827.88
3730,-3.8717,0.4208,0.1917,992.43,1719.54,-1577.82
3740,-3.8717,0.4403,0.2039,1867.43,532.04,1609.74
3750,-3.8718,0.4684,0.2043,367.43,-1905.40,-624.63
3760,-3.8718,0.4961,0.2004,-38.82,-1842.90,234.74
3770,-3.8719,0.5129,0.1990,-491.94,1657.17,1750.37
3780,-3.8719,0.5148,0.2052,1664.31,1469.73,1515.99
3790,-3.8719,0.5009,0.2172,1898.68,-1733.40,-390.26
3800,-3.8718,0.4713,0.2285,117.43,-202.15,-905.88
3810,-3.8717,0.4348,0.2413,336.18,1250.92,-1062.07
3820,-3.8716,0.4022,0.2588,-335.69,-1108.58,-1702.70
3830,-3.8715,0.3782,0.2765,-507.57,1125.73,562.99
3840,-3.8715,0.3633,0.2803,414.31,-608.64,1484.86
3850,-3.8715,0.3550,0.2655,-1491.94,-124.33,1875.49
3860,-3.8715,0.3494,0.2491,1445.56,1985.05,-1577.64
3870,-3.8715,0.3429,0.2418,726.81,-108.70,-640.20
3880,-3.8713,0.3335,0.2427,-101.32,-1046.26,1094.18
3890,-3.8713,0.3198,0.2513,-1304.44,-936.89,-765.20
3900,-3.8712,0.3060,0.2634,945.56,172.49,828.61
3910,-3.8712,0.2990,0.2684,-820.07,1719.30,1094.24
3920,-3.8713,0.2979,0.2594,-1726.32,-1640.08,-358.89
3930,-3.8713,0.3054,0.2448,-1866.94,1203.67,1125.49
3940,-3.8715,0.3290,0.2380,-898.19,-671.33,-1390.20
3950,-3.8715,0.3708,0.2477,-1882.57,-1530.64,844.18
3960,-3.8715,0.4252,0.2727,-523.19,-296.20,437.93
3970,-3.8715,0.4766,0.3048,-1570.07,-1092.96,1578.61
3980,-3.8715,0.5098,0.3390,1008.06,-983.46,-61.95
3990,-3.8713,0.5228,0.3724,1258.06,-608.40,-780.64
4000,-3.8712,0.5250,0.3981,-1070.07,-327.15,-1171.20
4010,-3.8711,0.5299,0.4111,-788.82,-1045.90,1969.48
4020,-3.8710,0.5476,0.4202,-163.82,625.98,235.17
4030,-3.8710,0.5778,0.4375,-1898.19,1782.29,1907.04
4040,-3.8708,0.6097,0.4667,1961.18,1.10,32.10
4050,-3.8708,0.6298,0.5052,-1945.07,-264.47,-530.40
4060,-3.8707,0.6333,0.5399,617.43,673.10,-467.77
4070,-3.8706,0.6274,0.5571,1070.56,1110.60,-1217.71
4080,-3.8705,0.6202,0.5588,320.56,-686.28,282.29
4090,-3.8706,0.6162,0.5520,-601.32,-467.59,-405.21
4100,-3.8706,0.6173,0.5428,-1116.94,-1342.59,1016.66
4110,-3.8707,0.6211,0.5421,-976.32,1485.53,1657.29
4120,-3.8708,0.6241,0.5546,-491.94,1391.78,-1264.59
4130,-3.8708,0.6263,0.5735,-101.32,-1014.47,938.54
4140,-3.8710,0.6268,0.5909,179.93,1407.47,-108.28
4150,-3.8710,0.6271,0.6055,242.43,-358.15,-764.53
4160,-3.8710,0.6271,0.6193,273.68,1501.22,-1248.84
4170,-3.8710,0.6227,0.6311,273.68,-733.15,1860.53
4180,-3.8711,0.6106,0.6393,-288.82,782.41,-217.53
4190,-3.8711,0.5885,0.6401,-1835.69,1829.28,79.35
4200,-3.8713,0.5604,0.6306,-663.82,1938.60,-639.40
4210,-3.8715,0.5350,0.6161,-257.57,719.79,-1280.03
4220,-3.8716,0.5204,0.6060,492.43,-1139.59,-1014.47
4230,-3.8716,0.5183,0.6046,-1382.57,1563.48,626.16
4240,-3.8717,0.5233,0.6101,-1648.19,1391.60,-217.59
4250,-3.8716,0.5281,0.6180,-1007.57,-1905.27,79.28
4260,-3.8716,0.5244,0.6254,-398.19,-889.65,563.66
4270,-3.8716,0.5076,0.6300,-866.94,47.85,204.35
4280,-3.8717,0.4866,0.6290,976.81,641.60,-920.65
4290,-3.8717,0.4711,0.6187,-1710.69,516.54,1907.47
4300,-3.8717,0.4552,0.6007,304.93,-811.58,548.03
4310,-3.8718,0.4291,0.5815,-1726.32,891.48,-1280.09
4320,-3.8718,0.3923,0.5582,-1070.07,-1561.71,876.10
4330,-3.8719,0.3517,0.5233,-1773.19,-546.14,-264.59
4340,-3.8719,0.3126,0.4832,1023.68,-1014.95,-233.40
4350,-3.8718,0.2748,0.4539,23.68,1844.36,1110.29
4360,-3.8718,0.2357,0.4386,-820.07,-1905.76,-171.02
4370,-3.8717,0.1936,0.4298,-1820.07,141.05,-421.02
4380,-3.8715,0.1500,0.4219,789.31,-984.01,94.54
4390,-3.8713,0.1093,0.4127,-788.82,-1999.76,328.92
4400,-3.8713,0.0798,0.3969,1992.43,828.31,-1108.58
4410,-3.8713,0.0668,0.3680,-1773.19,-1203.00,-686.77
4420,-3.8713,0.0680,0.3318,554.93,-890.50,-1624.33
4430,-3.8713,0.0823,0.3016,711.18,-1531.13,906.86
4440,-3.8715,0.1031,0.2874,-1460.69,-1390.50,-202.58
4450,-3.8713,0.1155,0.2904,1211.18,781.43,656.80
4460,-3.8713,0.1138,0.3021,-1210.69,1172.06,-233.83
4470,-3.8712,0.1074,0.3103,-1429.44,-1327.94,-343.20
4480,-3.8711,0.1093,0.3099,1758.06,-281.07,-1624.45
4490,-3.8711,0.1260,0.3049,1992.43,-327.94,-890.08
4500,-3.8711,0.1543,0.3007,133.06,-968.51,1891.17
4510,-3.8712,0.1824,0.2976,-241.94,-1515.38,-421.33
4520,-3.8712,0.2025,0.2936,-648.19,-1905.94,1703.67
4530,-3.8712,0.2102,0.2889,1929.93,1578.49,453.67
4540,-3.8713,0.2014,0.2809,-1085.69,984.74,-1093.20
4550,-3.8713,0.1785,0.2650,1789.31,-46.51,969.24
4560,-3.8715,0.1500,0.2456,-1148.19,1922.18,-765.14
4570,-3.8715,0.1274,0.2286,-788.82,-562.26,-1827.70
4580,-3.8715,0.1168,0.2151,320.56,1265.87,1766.05
4590,-3.8715,0.1135,0.2025,-1038.82,-468.57,1656.62
4600,-3.8715,0.1078,0.1914,-1460.69,1922.06,1797.24
4610,-3.8715,0.0946,0.1819,1804.93,500.18,-1812.13
4620,-3.8715,0.0763,0.1729,117.43,-718.57,-1140.32
4630,-3.8715,0.0586,0.1661,1773.68,-1874.88,-343.44
4640,-3.8713,0.0443,0.1608,-491.94,1265.69,297.18
4650,-3.8713,0.0343,0.1539,1679.93,578.19,484.68
4660,-3.8715,0.0277,0.1445,398.68,-296.81,-62.26
4670,-3.8715,0.0210,0.1320,-445.07,-1500.00,-1234.13
4680,-3.8715,0.0106,0.1196,-1304.44,890.62,1390.87
4690,-3.8715,-0.0065,0.1104,1367.43,-687.50,453.31
4700,-3.8715,-0.0330,0.1060,-820.07,-1859.44,78.31
4710,-3.8715,-0.0634,0.1062,-210.69,1578.00,156.43
4720,-3.8715,-0.0869,0.1099,-101.32,1609.19,750.18
4730,-3.8715,-0.0974,0.1163,883.06,-1922.06,1562.68
4740,-3.8715,-0.0922,0.1261,-460.69,-1093.99,-1718.57
4750,-3.8715,-0.0745,0.1399,211.18,156.07,-1187.26
4760,-3.8715,-0.0540,0.1571,-1523.19,1921.69,-765.38
4770,-3.8713,-0.0336,0.1799,1101.81,124.88,297.18
4780,-3.8713,-0.0088,0.2064,-288.82,-953.25,1906.56
4790,-3.8713,0.0212,0.2310,-1116.94,-1562.56,-749.63
4800,-3.8713,0.0537,0.2529,-1273.19,1562.50,-93.32
4810,-3.8712,0.0852,0.2789,-1116.94,375.06,312.99
4820,-3.8712,0.1169,0.3130,-1085.69,-296.75,797.36
4830,-3.8712,0.1559,0.3508,-1023.19,62.68,1281.86
4840,-3.8712,0.2090,0.3799,-38.82,906.49,1750.67
4850,-3.8712,0.2683,0.3926,-1241.94,625.37,1938.23
4860,-3.8712,0.3160,0.3947,-1648.19,-1749.51,1688.23
4870,-3.8712,0.3445,0.3967,461.18,-1483.76,1406.98
4880,-3.8712,0.3534,0.4078,101.81,-1218.08,1313.23
4890,-3.8712,0.3474,0.4270,1242.43,203.80,1344.54
4900,-3.8712,0.3368,0.4480,476.81,-1343.08,1235.17
4910,-3.8712,0.3372,0.4625,-882.57,1344.36,750.85
4920,-3.8713,0.3613,0.4622,-835.69,-796.26,-77.27
4930,-3.8713,0.4078,0.4473,-1741.94,-843.08,-1217.90
4940,-3.8713,0.4541,0.4253,211.18,1250.79,1188.35
4950,-3.8715,0.4774,0.4094,-1866.94,-1561.65,-436.71
4960,-3.8715,0.4731,0.4120,1117.43,407.17,-1139.83
4970,-3.8715,0.4457,0.4305,570.56,735.29,-499.21
4980,-3.8713,0.4081,0.4528,1054.93,-889.77,1094.54
4990,-3.8713,0.3812,0.4707,242.43,1953.92,-1514.77
5000,-3.8713,0.3763,0.4763,804.93,250.73,-1795.96
5010,-3.8715,0.3861,0.4630,179.93,969.48,-483.46
5020,-3.8716,0.3955,0.4352,1429.93,-733.64,-749.15
5030,-3.8717,0.3918,0.4060,-1366.94,-296.14,-967.96
5040,-3.8718,0.3689,0.3853,-1835.69,-30.52,-280.52
5050,-3.8718,0.3308,0.3798,-773.19,1313.17,-1921.14
5060,-3.8718,0.2910,0.3975,-1648.19,609.99,-1624.27
5070,-3.8717,0.2633,0.4307,1258.06,-1124.45,31.98
5080,-3.8717,0.2551,0.4579,1711.18,-874.51,-1671.08
5090,-3.8716,0.2657,0.4658,664.31,-1390.14,625.85
5100,-3.8716,0.2877,0.4594,-1976.32,-374.51,-1436.65
5110,-3.8716,0.3135,0.4531,836.18,-1202.58,-217.90
5120,-3.8715,0.3439,0.4574,133.06,-1999.39,1172.73
5130,-3.8713,0.3838,0.4736,23.68,-1452.45,344.60
5140,-3.8712,0.4281,0.4968,1133.06,625.73,1360.29
5150,-3.8711,0.4628,0.5201,-1195.07,-405.46,-1030.33
5160,-3.8710,0.4814,0.5410,-757.57,-1421.02,-264.65
5170,-3.8708,0.4871,0.5505,1633.06,1250.92,-1030.21
5180,-3.8707,0.4778,0.5442,-1648.19,-1530.33,969.79
5190,-3.8707,0.4521,0.5375,1164.31,1657.17,-1967.71
5200,-3.8707,0.4193,0.5410,1883.06,797.73,-1561.46
5210,-3.8707,0.3959,0.5514,1679.93,1250.79,-1327.09
5220,-3.8707,0.3927,0.5588,-1320.07,-1421.14,-1670.84
5230,-3.8707,0.4048,0.5576,-1726.32,-468.02,1032.29
5240,-3.8708,0.4200,0.5505,-179.44,-624.27,-717.71
5250,-3.8708,0.4280,0.5381,1773.68,-1530.46,1344.79
5260,-3.8710,0.4230,0.5194,-1210.69,875.79,-858.34
5270,-3.8710,0.4059,0.4993,-1851.32,-1514.83,860.35
5280,-3.8711,0.3823,0.4796,-38.82,-93.02,-1577.21
5290,-3.8712,0.3546,0.4584,945.56,1391.36,-374.08
5300,-3.8712,0.3251,0.4363,1398.68,-1327.45,641.48
5310,-3.8713,0.3040,0.4153,1617.43,-155.64,1922.67
5320,-3.8715,0.2943,0.3999,-1085.69,1156.80,-233.58
5330,-3.8715,0.2903,0.3940,1679.93,-811.95,-1905.52
5340,-3.8715,0.2953,0.4011,1164.31,-1561.95,1250.73
5350,-3.8715,0.3131,0.4208,1804.93,-655.70,1813.23
5360,-3.8713,0.3375,0.4468,86.18,1859.99,0.79
5370,-3.8713,0.3619,0.4718,-788.82,1188.11,-983.52
5380,-3.8712,0.3843,0.4889,-1663.82,391.30,1594.67
5390,-3.8712,0.4036,0.4950,1195.56,-1421.14,-749.08
5400,-3.8711,0.4255,0.4929,-335.69,-639.89,125.92
5410,-3.8711,0.4545,0.4836,-1523.19,-905.46,282.17
5420,-3.8712,0.4802,0.4697,-1820.07,1907.10,-108.46
5430,-3.8712,0.4926,0.4534,1476.81,125.92,-1264.71
5440,-3.8712,0.4929,0.4291,-945.07,-1967.83,657.10
5450,-3.8713,0.4879,0.3964,-898.19,-1077.21,-1686.71
5460,-3.8713,0.4769,0.3616,-1538.82,-1264.71,125.73
5470,-3.8715,0.4545,0.3309,1054.93,-1717.83,-1968.08
5480,-3.8715,0.4218,0.3052,-1820.07,-1639.77,94.36
5490,-3.8716,0.3866,0.2841,1992.43,-936.71,-1061.95
5500,-3.8716,0.3569,0.2717,1492.43,360.11,-1124.45
5510,-3.8716,0.3362,0.2697,1695.56,-1218.08,-374.51
5520,-3.8715,0.3303,0.2709,-960.69,-1483.76,844.24
5530,-3.8715,0.3434,0.2711,-1710.69,-1327.51,-1937.01
5540,-3.8715,0.3676,0.2712,-38.82,-1296.26,-1421.39
5550,-3.8715,0.3923,0.2700,-945.07,-1280.58,1953.61
5560,-3.8715,0.4133,0.2682,-1773.19,-1436.77,734.86
5570,-3.8716,0.4287,0.2693,914.31,-1671.08,-452.64
5580,-3.8716,0.4407,0.2740,-1116.94,-1530.46,-1765.14
5590,-3.8716,0.4543,0.2775,414.31,-921.02,719.24
5600,-3.8717,0.4742,0.2733,-1835.69,-483.52,-1046.39
5610,-3.8717,0.4996,0.2632,711.18,-1014.71,1078.61
5620,-3.8718,0.5226,0.2542,-38.82,1688.42,-218.26
5630,-3.8718,0.5369,0.2527,-1101.32,532.23,-233.89
5640,-3.8717,0.5500,0.2590,726.81,344.79,1500.49
5650,-3.8716,0.5736,0.2651,-1585.69,1157.29,422.36
5660,-3.8716,0.5997,0.2552,1429.93,1938.60,-1062.01
5670,-3.8716,0.6111,0.2207,773.68,673.03,-546.39
5680,-3.8716,0.5978,0.1678,-1773.19,251.16,1375.43
5690,-3.8717,0.5623,0.1133,523.68,1485.53,1453.43
5700,-3.8718,0.5197,0.0670,-23.19,-1498.96,906.43
5710,-3.8719,0.4866,0.0288,-1476.32,579.10,406.37
5720,-3.8721,0.4669,0.0043,-1710.69,-311.58,750.00
5730,-3.8722,0.4594,-0.0029,-226.32,547.73,-1500.00
5740,-3.8722,0.4639,-0.0010,-1195.07,-374.15,1187.44
5750,-3.8722,0.4852,0.0061,-616.94,-124.15,390.56
5760,-3.8722,0.5271,0.0203,-1882.57,782.17,406.25
5770,-3.8722,0.5808,0.0387,-523.19,-1405.27,875.00
5780,-3.8722,0.6338,0.0574,-1648.19,954.22,1250.06
5790,-3.8722,0.6810,0.0720,1133.06,-655.03,1437.56
5800,-3.8722,0.7158,0.0800,-820.07,1220.03,1250.12
5810,-3.8722,0.7345,0.0862,-366.94,-1764.28,1172.00
5820,-3.8722,0.7433,0.0968,-1976.32,-967.35,1750.12
5830,-3.8722,0.7457,0.1116,-851.32,392.03,-1109.19
5840,-3.8721,0.7389,0.1277,-538.82,-1717.35,78.31
5850,-3.8721,0.7234,0.1445,-1413.82,345.15,843.99
5860,-3.8721,0.7051,0.1565,601.81,-1498.60,1375.24
5870,-3.8721,0.6923,0.1582,-1741.94,32.59,1953.43
5880,-3.8721,0.6903,0.1539,617.43,251.34,-1437.19
5890,-3.8721,0.6960,0.1509,367.43,-295.53,-624.76
5900,-3.8719,0.7025,0.1560,1101.81,-686.16,1218.99
5910,-3.8718,0.7059,0.1732,1929.93,-29.91,343.99
5920,-3.8717,0.6973,0.1974,-1632.57,-1826.78,234.68
5930,-3.8716,0.6674,0.2194,1258.06,1266.97,47.24
5940,-3.8716,0.6206,0.2336,1429.93,79.41,-1374.57
5950,-3.8716,0.5688,0.2371,-554.44,1907.41,-530.82
5960,-3.8716,0.5236,0.2296,820.56,-1655.15,-1171.45
5970,-3.8716,0.4946,0.2181,-976.32,1391.60,1422.30
5980,-3.8716,0.4849,0.2040,-679.44,-77.21,31.62
5990,-3.8717,0.4806,0.1917,-1929.44,-1889.71,-702.76
6000,-3.8717,0.4707,0.1943,1523.68,532.17,-405.88
6010,-3.8716,0.4603,0.2074,258.06,875.92,750.37
6020,-3.8716,0.4548,0.2173,-1070.07,-1452.27,-1765.26
6030,-3.8716,0.4552,0.2231,-1773.19,-186.65,-343.38
6040,-3.8715,0.4578,0.2322,-1726.32,563.35,891.05
6050,-3.8715,0.4603,0.2423,-1398.19,1719.60,1891.05
6060,-3.8715,0.4639,0.2478,-1070.07,-983.52,-1483.95
6070,-3.8715,0.4655,0.2507,-616.94,-280.40,-1530.82
6080,-3.8715,0.4613,0.2565,-413.82,94.60,1891.11
6090,-3.8715,0.4490,0.2668,-945.07,828.98,1234.86
6100,-3.8715,0.4283,0.2826,1476.81,-1842.90,891.11
6110,-3.8715,0.4088,0.3030,-1163.82,172.67,953.67
6120,-3.8715,0.3983,0.3198,336.18,-1217.96,1297.42
6130,-3.8715,0.3981,0.3254,-1007.57,938.23,1672.49
6140,-3.8715,0.4066,0.3248,-1038.82,1656.98,1547.49
6150,-3.8715,0.4225,0.3285,54.93,1578.92,1281.86
6160,-3.8715,0.4456,0.3384,-1913.82,-1952.33,1578.74
6170,-3.8715,0.4688,0.3551,1039.31,-686.65,-1515.01
6180,-3.8715,0.4816,0.3759,8.06,1454.04,-93.08
6190,-3.8713,0.4854,0.3927,1648.68,110.29,1813.23
6200,-3.8712,0.4832,0.4037,-1866.94,-1733.46,156.98
6210,-3.8712,0.4703,0.4082,1851.81,-327.21,-999.27
6220,-3.8711,0.4437,0.4097,211.18,250.92,-1671.08
6230,-3.8710,0.4061,0.4165,804.93,438.35,1891.42
6240,-3.8708,0.3606,0.4259,-7.57,1313.23,1422.67
6250,-3.8707,0.3124,0.4346,-1835.69,-1483.70,688.29
6260,-3.8707,0.2753,0.4487,-7.57,-374.45,-358.58
6270,-3.8706,0.2642,0.4657,-757.57,1437.99,1828.98
6280,-3.8706,0.2810,0.4736,1820.56,-390.14,-967.90
6290,-3.8706,0.3245,0.4716,-23.19,625.49,-1186.58
6300,-3.8706,0.3877,0.4664,1539.31,359.99,594.67
6310,-3.8707,0.4534,0.4548,1633.06,-296.14,1657.10
6320,-3.8708,0.5046,0.4419,-1960.69,-1780.40,-421.02
6330,-3.8708,0.5267,0.4371,601.81,563.48,-1108.52
6340,-3.8708,0.5186,0.4387,-570.07,-45.90,-827.33
6350,-3.8708,0.4978,0.4415,-1616.94,157.23,-889.77
6360,-3.8708,0.4790,0.4408,-273.19,516.54,1750.85
6370,-3.8710,0.4636,0.4365,1320.56,422.79,-1139.77
6380,-3.8711,0.4529,0.4318,-648.19,-124.15,-1514.83
6390,-3.8712,0.4536,0.4287,1976.81,-733.52,985.17
6400,-3.8715,0.4727,0.4242,-1929.44,-1124.15,-1249.21
6410,-3.8717,0.5088,0.4150,508.06,-1702.21,-139.83
6420,-3.8718,0.5499,0.4012,1133.06,1125.98,532.04
6430,-3.8721,0.5823,0.3794,-1601.32,-639.59,1860.11
6440,-3.8722,0.5981,0.3649,-1460.69,563.60,-1952.39
6450,-3.8722,0.5902,0.3773,570.56,-1295.72,-1561.83
6460,-3.8721,0.5583,0.3995,-445.07,297.97,1969.48
6470,-3.8719,0.5164,0.4097,-523.19,-858.34,-1499.27
6480,-3.8718,0.4769,0.3994,-1898.19,438.48,1844.54
6490,-3.8718,0.4452,0.3718,1054.93,-874.08,-1093.02
6500,-3.8718,0.4233,0.3412,992.43,-405.40,-1858.70
6510,-3.8718,0.4064,0.3145,-1804.44,-327.33,672.49
6520,-3.8719,0.3903,0.2942,23.68,250.79,-530.64
6530,-3.8719,0.3738,0.2798,1961.18,1656.98,-1140.08
6540,-3.8719,0.3553,0.2697,-148.19,-186.83,-1062.01
6550,-3.8718,0.3406,0.2662,1492.43,-1483.70,203.61
6560,-3.8718,0.3413,0.2732,-398.19,-1921.26,-1124.51
6570,-3.8717,0.3624,0.2902,-304.44,-1030.64,1906.74
6580,-3.8716,0.3950,0.3145,-1601.32,1141.30,547.42
6590,-3.8716,0.4296,0.3462,-1429.44,250.73,-905.64
6600,-3.8715,0.4594,0.3766,-1007.57,313.29,1938.17
6610,-3.8713,0.4734,0.3950,-1195.07,203.98,1078.86
6620,-3.8713,0.4652,0.4045,601.81,-1436.58,-202.39
6630,-3.8712,0.4440,0.4045,-445.07,-217.90,735.11
6640,-3.8713,0.4243,0.3942,836.18,-217.90,-452.39
6650,-3.8713,0.4175,0.3835,-1679.44,-1546.08,922.61
6660,-3.8715,0.4276,0.3748,1445.56,1094.54,1672.61
6670,-3.8716,0.4459,0.3624,-1257.57,-30.46,-1452.45
6680,-3.8716,0.4607,0.3491,1086.18,-1608.52,94.42
6690,-3.8717,0.4633,0.3438,-1023.19,688.35,-608.70
6700,-3.8716,0.4437,0.3477,-695.07,0.85,1172.55
6710,-3.8715,0.4045,0.3606,804.93,500.85,766.30
6720,-3.8713,0.3625,0.3826,-210.69,-1843.02,625.67
6730,-3.8713,0.3284,0.4056,-1585.69,969.42,-343.02
6740,-3.8712,0.3026,0.4207,-1960.69,-77.51,1250.73
6750,-3.8712,0.2834,0.4253,-1257.57,1844.30,875.79
6760,-3.8713,0.2690,0.4185,289.31,-1561.95,-1342.96
6770,-3.8715,0.2561,0.3950,-1554.44,1562.99,-1139.83
6780,-3.8716,0.2450,0.3590,789.31,-1437.01,1781.98
6790,-3.8717,0.2372,0.3237,-632.57,1953.55,328.80
6800,-3.8718,0.2280,0.3005,-1632.57,1437.93,94.36
6810,-3.8719,0.2079,0.2955,1195.56,-1530.82,-1765.08
6820,-3.8719,0.1733,0.3033,-1382.57,1828.49,-999.45
6830,-3.8718,0.1324,0.3173,-1804.44,-1171.57,-1890.08
6840,-3.8717,0.0980,0.3334,961.18,609.62,-1936.89
6850,-3.8716,0.0812,0.3455,554.93,-1327.94,1063.11
6860,-3.8716,0.0852,0.3496,-1601.32,218.87,-1171.20
6870,-3.8716,0.1018,0.3440,-1085.69,750.12,-218.08
6880,-3.8715,0.1212,0.3319,1039.31,31.43,250.67
6890,-3.8715,0.1346,0.3185,-476.32,-1515.44,609.99
6900,-3.8715,0.1353,0.3075,1242.43,765.87,922.49
6910,-3.8715,0.1230,0.2970,1320.56,-640.38,1266.17
6920,-3.8715,0.1044,0.2817,-241.94,-1984.19,1563.05
6930,-3.8715,0.0870,0.2635,1367.43,62.68,1875.55
6940,-3.8715,0.0719,0.2463,-851.32,1734.50,-1780.76
6950,-3.8715,0.0576,0.2283,1211.18,-468.63,-1546.45
6960,-3.8715,0.0449,0.2068,-616.94,1218.81,-1312.07
6970,-3.8715,0.0334,0.1852,1758.06,-1531.19,-1015.26
6980,-3.8715,0.0222,0.1678,289.31,-296.81,-890.32
6990,-3.8715,0.0126,0.1542,-1148.19,1484.38,-1187.19
7000,-3.8715,0.0068,0.1376,1617.43,-265.62,1937.74
7010,-3.8715,0.0077,0.1156,883.06,1609.38,703.37
7020,-3.8716,0.0149,0.0956,992.43,-1203.12,-827.94
7030,-3.8716,0.0256,0.0890,1914.31,234.38,1875.18
7040,-3.8716,0.0413,0.0983,-710.69,-609.38,1656.37
7050,-3.8716,0.0656,0.1130,1289.31,578.19,-1734.19
7060,-3.8716,0.0962,0.1273,398.68,-1531.13,-937.32
7070,-3.8716,0.1260,0.1433,320.56,297.06,-109.13
7080,-3.8715,0.1550,0.1658,133.06,-1656.01,656.49
7090,-3.8715,0.1829,0.1995,-148.19,1218.99,1437.81
7100,-3.8715,0.2065,0.2468,-585.69,1531.56,-1562.13
7110,-3.8715,0.2340,0.3020,-1554.44,-405.88,-62.07
7120,-3.8713,0.2701,0.3528,1961.18,-1343.32,1922.42
7130,-3.8712,0.3080,0.3849,-1413.82,1156.74,266.30
7140,-3.8712,0.3423,0.3934,-570.07,1266.17,-1280.52
7150,-3.8711,0.3713,0.3895,-179.44,-1640.01,188.23
7160,-3.8712,0.3923,0.3772,-460.69,1860.05,-311.77
7170,-3.8712,0.3978,0.3560,-1773.19,281.98,1406.98
7180,-3.8713,0.3810,0.3361,-1070.07,1563.23,-1671.20
7190,-3.8715,0.3413,0.3260,773.68,-983.64,-749.39
7200,-3.8715,0.2853,0.3289,-304.44,1734.99,734.99
7210,-3.8716,0.2227,0.3459,523.68,-1905.70,-1343.14
7220,-3.8716,0.1659,0.3701,508.06,281.68,860.05
7230,-3.8717,0.1295,0.3817,1242.43,-624.69,-671.20
7240,-3.8717,0.1248,0.3688,586.18,859.62,1656.98
7250,-3.8718,0.1519,0.3434,-23.19,-796.69,-624.33
7260,-3.8718,0.1990,0.3287,-554.44,-46.63,703.74
7270,-3.8719,0.2513,0.3295,1476.81,-1921.51,-1811.89
7280,-3.8719,0.2998,0.3398,179.93,-1827.64,609.99
7290,-3.8719,0.3279,0.3590,-1616.94,-499.45,766.24
7300,-3.8719,0.3175,0.3787,1976.81,1953.74,-1514.95
7310,-3.8718,0.2729,0.3871,648.68,469.36,1156.98
7320,-3.8717,0.2192,0.3788,-1054.44,1547.36,516.36
7330,-3.8717,0.1766,0.3606,70.56,484.80,-124.27
7340,-3.8716,0.1591,0.3406,-1382.57,-1843.44,-1593.08
7350,-3.8715,0.1741,0.3221,367.43,-405.94,453.74
7360,-3.8715,0.2039,0.3168,-1710.69,1234.68,-999.39
7370,-3.8713,0.2296,0.3306,-1898.19,547.24,-1780.64
7380,-3.8712,0.2465,0.3544,1398.68,-1687.07,1609.99
7390,-3.8711,0.2490,0.3848,-445.07,1359.80,1047.55
7400,-3.8710,0.2423,0.4252,-116.94,1250.43,672.61
7410,-3.8708,0.2411,0.4729,-976.32,-1577.70,688.29
7420,-3.8707,0.2549,0.5145,-1132.57,531.68,688.42
7430,-3.8707,0.2838,0.5350,633.06,1859.86,-420.90
7440,-3.8706,0.3195,0.5320,336.18,484.92,766.66
7450,-3.8707,0.3500,0.5144,898.68,94.36,-30.21
7460,-3.8707,0.3622,0.4784,804.93,1844.42,907.23
7470,-3.8708,0.3517,0.4290,-1632.57,1235.05,329.04
7480,-3.8711,0.3320,0.3888,1023.68,-1093.08,-405.46
7490,-3.8711,0.3102,0.3638,-1491.94,1766.24,188.23
7500,-3.8712,0.2843,0.3522,-288.82,-1436.95,-1139.95
7510,-3.8712,0.2566,0.3530,398.68,1078.67,-905.58
7520,-3.8711,0.2323,0.3611,851.81,1187.99,547.55
7530,-3.8711,0.2180,0.3680,1742.43,-1780.82,-921.20
7540,-3.8710,0.2137,0.3665,-85.69,-890.26,1719.42
7550,-3.8710,0.2177,0.3551,-632.57,-1093.38,-764.95
7560,-3.8710,0.2271,0.3385,-132.57,1453.49,-983.70
7570,-3.8710,0.2355,0.3215,1070.56,-671.45,1500.61
7580,-3.8710,0.1890,0.3806,-1148.19,375.37,-1436.83
7590,-3.8708,0.1722,0.4143,195.56,719.12,1094.48
7600,-3.8708,0.1671,0.4380,-1945.07,1031.56,-999.21
7610,-3.8708,0.1829,0.4419,1398.68,62.81,-546.02
7620,-3.8708,0.2148,0.4309,-585.69,562.81,-1780.40
7630,-3.8708,0.2445,0.4230,-491.94,-843.38,203.92
7640,-3.8710,0.2557,0.4314,-695.07,-1858.95,-1108.58
7650,-3.8710,0.2441,0.4534,742.43,-780.76,-921.08
7660,-3.8708,0.2153,0.4777,-741.94,-1968.32,500.85
7670,-3.8708,0.1848,0.4952,-429.44,1140.99,-1764.71
7680,-3.8708,0.1681,0.4980,-335.69,-609.07,-811.58
7690,-3.8708,0.1711,0.4849,1523.68,-249.69,-1280.33
7700,-3.8708,0.1902,0.4635,1914.31,-1937.19,954.04
7710,-3.8710,0.2140,0.4414,351.81,-671.51,-1624.15
7720,-3.8711,0.2279,0.4254,-601.32,500.37,-124.15
7730,-3.8711,0.2294,0.4227,1179.93,-1546.45,-1655.46
7740,-3.8711,0.2267,0.4336,1367.43,-1890.20,1875.79
7750,-3.8711,0.2252,0.4515,1023.68,-499.57,-1405.46
7760,-3.8710,0.2329,0.4657,836.18,1797.30,250.85
7770,-3.8710,0.2549,0.4703,1820.56,-390.20,1641.48
7780,-3.8710,0.2822,0.4646,633.06,203.61,1829.04
7790,-3.8710,0.3063,0.4520,133.06,-530.70,703.98
7800,-3.8711,0.3278,0.4403,-788.82,1859.92,-1717.90
7810,-3.8712,0.3470,0.4315,1961.18,359.99,-1436.65
7820,-3.8713,0.3630,0.4241,429.93,-764.95,1938.29
7830,-3.8715,0.3807,0.4126,-1523.19,-1718.08,922.67
7840,-3.8716,0.4044,0.3976,742.43,813.23,797.67
7850,-3.8717,0.4302,0.3894,-226.32,-1108.64,-968.02
7860,-3.8717,0.4500,0.3989,-929.44,1844.54,-218.02
7870,-3.8716,0.4637,0.4254,1601.81,-936.65,-1639.89
7880,-3.8715,0.4789,0.4512,-632.57,-1546.02,1735.17
7890,-3.8713,0.4988,0.4584,1304.93,1750.92,438.35
7900,-3.8713,0.5217,0.4384,-148.19,-1327.21,1172.73
7910,-3.8715,0.5387,0.3928,-1210.69,110.35,-1358.52
7920,-3.8716,0.5400,0.3282,961.18,-1717.71,1219.48
7930,-3.8718,0.5187,0.2543,1133.06,-1983.34,-1186.89
7940,-3.8719,0.4746,0.1874,-1601.32,547.85,562.99
7950,-3.8722,0.4185,0.1432,758.06,-14.71,-640.32
7960,-3.8723,0.3610,0.1191,1570.56,-1671.08,-577.88
7970,-3.8723,0.3130,0.1036,-1788.82,-749.33,547.06
7980,-3.8724,0.2904,0.0900,70.56,1266.24,-1312.32
7990,-3.8724,0.3018,0.0751,1179.93,-483.83,1453.25
8000,-3.8724,0.3425,0.0665,-1366.94,1609.92,703.25
8010,-3.8724,0.3982,0.0702,-148.19,516.24,1187.62
8020,-3.8724,0.4537,0.0856,-1023.19,985.11,-421.75
8030,-3.8723,0.5042,0.1104,-1913.82,-1046.02,-359.25
8040,-3.8721,0.5500,0.1359,539.31,-1874.02,500.18
8050,-3.8719,0.5878,0.1538,-1585.69,1391.66,1125.24
8060,-3.8718,0.6125,0.1660,-757.57,-311.40,1140.87
8070,-3.8717,0.6268,0.1763,-1585.69,1251.16,1078.43
8080,-3.8716,0.6345,0.1823,242.43,-1436.28,890.93
8090,-3.8716,0.6315,0.1813,1226.81,-670.65,-155.94
8100,-3.8715,0.6193,0.1772,836.18,-795.65,1594.06
8110,-3.8715,0.6116,0.1705,-726.32,-1311.34,1937.81
8120,-3.8715,0.6207,0.1594,-1710.69,1829.28,1000.31
8130,-3.8716,0.6423,0.1450,-538.82,407.41,-937.19
8140,-3.8716,0.6628,0.1333,-1773.19,-1436.28,734.62
8150,-3.8717,0.6782,0.1313,851.81,1063.78,-796.63
8160,-3.8717,0.6865,0.1365,-1179.44,813.78,-906.01
8170,-3.8716,0.6824,0.1416,-116.94,1470.03,31.49
8180,-3.8716,0.6671,0.1493,-648.19,-1873.72,1187.74
8190,-3.8716,0.6500,0.1643,1398.68,-889.34,-1640.38
8200,-3.8716,0.6392,0.1813,-788.82,1032.47,-93.44
8210,-3.8715,0.6361,0.1937,1820.56,-795.65,1812.81
8220,-3.8715,0.6354,0.1980,1429.93,798.10,-655.88
8230,-3.8715,0.6290,0.1958,1336.18,1344.97,-202.76
8240,-3.8715,0.6146,0.1940,523.68,1063.72,-874.63
8250,-3.8715,0.5983,0.1968,-1320.07,829.28,1734.74
8260,-3.8715,0.5895,0.2056,586.18,1188.66,219.12
8270,-3.8716,0.5895,0.2206,-538.82,-1686.40,-640.26
8280,-3.8716,0.5919,0.2415,-538.82,235.47,-483.95
8290,-3.8715,0.5891,0.2660,-226.32,-1092.65,281.68
8300,-3.8715,0.5782,0.2897,-585.69,-1952.03,750.49
8310,-3.8715,0.5665,0.3090,-1976.32,1079.22,234.92
8320,-3.8716,0.5631,0.3136,523.68,-452.03,-1311.95
8330,-3.8716,0.5708,0.3021,86.18,141.72,719.36
8340,-3.8717,0.5756,0.2900,1070.56,-1327.03,-811.95
8350,-3.8717,0.5634,0.2910,1679.93,1126.10,-1093.20
8360,-3.8717,0.5419,0.3025,117.43,1251.10,-374.45
8370,-3.8717,0.5247,0.3116,1367.43,-1280.21,-46.33
8380,-3.8717,0.5217,0.3123,-835.69,-108.40,-1421.33
8390,-3.8718,0.5354,0.3053,-1210.69,-30.27,-452.58
8400,-3.8718,0.5543,0.2964,539.31,-920.84,16.17
8410,-3.8719,0.5618,0.2937,-1038.82,1938.54,1328.67
8420,-3.8719,0.5502,0.3020,-85.69,1594.79,250.55
8430,-3.8719,0.5243,0.3204,-1570.07,-1342.71,797.42
8440,-3.8719,0.4929,0.3430,-882.57,1016.60,-1640.01
8450,-3.8719,0.4686,0.3596,-898.19,-92.83,-108.76
8460,-3.8718,0.4647,0.3630,-7.57,-1967.90,391.30
8470,-3.8718,0.4811,0.3521,-507.57,-1530.40,0.67
8480,-3.8719,0.5021,0.3386,1586.18,1063.42,-108.70
8490,-3.8718,0.5087,0.3386,273.68,-655.27,953.74
8500,-3.8718,0.4928,0.3522,1117.43,-655.27,-280.64
8510,-3.8716,0.4623,0.3723,-913.82,1079.04,297.55
8520,-3.8715,0.4270,0.3920,-820.07,-342.90,1719.42
8530,-3.8713,0.3933,0.4069,-1335.69,-1827.33,-1796.14
8540,-3.8712,0.3640,0.4166,-1648.19,78.86,750.79
8550,-3.8712,0.3409,0.4209,-1398.19,1328.80,1344.54
8560,-3.8712,0.3308,0.4233,-351.32,1875.61,641.42
8570,-3.8713,0.3406,0.4272,-1648.19,-1811.89,-546.08
8580,-3.8713,0.3671,0.4365,-398.19,-1311.89,-1577.33
8590,-3.8713,0.3998,0.4536,-1007.57,-124.33,1922.67
8600,-3.8713,0.4320,0.4772,-820.07,-1936.77,1860.23
8610,-3.8713,0.4583,0.5031,-695.07,1078.92,-1827.21
8620,-3.8713,0.4729,0.5255,-1335.69,391.48,-1811.52
8630,-3.8713,0.4739,0.5424,539.31,-733.46,688.48
8640,-3.8715,0.4690,0.5508,664.31,1422.79,1032.29
8650,-3.8717,0.4683,0.5514,39.31,-1499.08,-342.71
8660,-3.8718,0.4713,0.5519,-54.44,-1421.02,1344.79
8670,-3.8721,0.4774,0.5597,336.18,-1358.46,-1061.46
8680,-3.8722,0.4824,0.5787,1117.43,-358.46,1594.79
8690,-3.8723,0.4883,0.6079,1758.06,-1920.96,-1873.90
8700,-3.8723,0.4991,0.6385,-1491.94,1813.42,860.53
8710,-3.8723,0.5114,0.6573,-101.32,1735.29,1688.72
8720,-3.8722,0.5219,0.6636,1461.18,141.60,751.28
8730,-3.8721,0.5231,0.6597,-1195.07,938.48,1438.78
8740,-3.8719,0.5059,0.6447,-1038.82,438.48,-1420.59
8750,-3.8718,0.4706,0.6278,758.06,-1483.40,-358.15
8760,-3.8716,0.4307,0.6172,242.43,360.29,469.97
8770,-3.8715,0.3951,0.6151,-866.94,-999.21,532.41
8780,-3.8715,0.3638,0.6202,-1413.82,-1264.89,-748.84
8790,-3.8713,0.3341,0.6263,-1429.44,-608.70,688.66
8800,-3.8713,0.3046,0.6251,-1226.32,172.49,1251.22
8810,-3.8713,0.2758,0.6118,-1007.57,16.17,1235.60
8820,-3.8713,0.2535,0.5858,-695.07,-1687.01,1001.16
8830,-3.8713,0.2523,0.5537,461.18,-1015.14,1001.10
8840,-3.8713,0.2792,0.5271,304.93,-1124.51,1204.16
8850,-3.8713,0.3230,0.5138,-257.57,-530.76,1750.98
8860,-3.8713,0.3640,0.5150,1351.81,1766.24,-999.02
8870,-3.8712,0.3883,0.5239,-1398.19,1922.55,1329.10
8880,-3.8711,0.3898,0.5326,1711.18,-936.77,750.98
8890,-3.8710,0.3701,0.5402,1898.68,172.61,501.04
8900,-3.8710,0.3417,0.5450,-616.94,1141.30,-202.09
8910,-3.8708,0.3138,0.5431,-257.57,1766.24,-1592.71
8920,-3.8707,0.2908,0.5325,179.93,1516.24,391.66
8930,-3.8707,0.2765,0.5139,1226.81,156.80,1876.04
8940,-3.8707,0.2705,0.4926,-601.32,1781.74,-1639.65
8950,-3.8707,0.2656,0.4707,-1366.94,-952.64,1157.17
8960,-3.8708,0.2582,0.4481,-1991.94,250.49,-1592.83
8970,-3.8710,0.2496,0.4294,1054.93,1359.86,-1061.65
8980,-3.8711,0.2427,0.4135,-38.82,-1030.82,-905.46
8990,-3.8712,0.2405,0.3958,-929.44,922.30,-733.58
9000,-3.8712,0.2422,0.3784,-1210.69,-1343.32,375.73
9010,-3.8713,0.2411,0.3655,-991.94,437.93,-1171.14
9020,-3.8713,0.2341,0.3586,-1132.57,-1218.32,-1858.70
9030,-3.8713,0.2297,0.3593,1976.81,1906.68,1078.80
9040,-3.8715,0.2418,0.3687,1414.31,1984.80,-1218.08
9050,-3.8716,0.2791,0.3888,-1038.82,-812.07,-311.83
9060,-3.8716,0.3323,0.4099,-273.19,1766.11,328.86
9070,-3.8717,0.3773,0.4193,-1460.69,469.36,1188.29
9080,-3.8718,0.3938,0.4189,304.93,1672.61,-952.33
9090,-3.8718,0.3788,0.4131,-1585.69,1625.73,1813.29
9100,-3.8718,0.3479,0.4098,492.43,875.73,1219.54
9110,-3.8718,0.3204,0.4154,539.31,453.80,1438.29
9120,-3.8718,0.3020,0.4237,1023.68,1172.49,-1749.21
9130,-3.8718,0.2836,0.4244,-1335.69,-1765.08,-1139.83
9140,-3.8718,0.2583,0.4149,304.93,-1671.33,-1624.21
9150,-3.8718,0.2253,0.3958,1070.56,1109.86,1000.79
9160,-3.8718,0.1847,0.3705,851.81,-1343.32,578.86
9170,-3.8718,0.1379,0.3500,-351.32,-577.82,-1718.08
9180,-3.8717,0.0931,0.3375,1664.31,797.12,1610.05
9190,-3.8716,0.0562,0.3323,-70.07,-796.75,1781.86
9200,-3.8715,0.0273,0.3298,-804.44,-1468.69,1672.49
9210,-3.8713,0.0081,0.3182,-491.94,-1781.25,578.74
9220,-3.8713,-0.0020,0.2970,1039.31,734.38,-843.14
9230,-3.8712,-0.0073,0.2761,-241.94,-1968.81,1594.30
9240,-3.8712,-0.0159,0.2577,-929.44,-640.69,-405.76
9250,-3.8711,-0.0321,0.2386,1976.81,999.94,1187.99
9260,-3.8711,-0.0538,0.2161,-101.32,-1437.62,-1890.20
9270,-3.8711,-0.0776,0.1895,1117.43,-328.25,-1780.88
9280,-3.8711,-0.1021,0.1639,-1929.44,265.44,-1609.01
9290,-3.8711,-0.1267,0.1478,-1054.44,999.76,-140.32
9300,-3.8710,-0.1514,0.1421,-210.69,-1062.81,-1421.63
9310,-3.8708,-0.1722,0.1395,633.06,-1797.18,1250.24
9320,-3.8708,-0.1843,0.1375,1961.18,1874.63,-1031.01
9330,-3.8708,-0.1849,0.1351,414.31,1609.01,-296.63
9340,-3.8708,-0.1738,0.1301,336.18,1312.13,-452.88
9350,-3.8708,-0.1522,0.1227,1758.06,671.51,-1656.01
9360,-3.8708,-0.1218,0.1157,523.68,-281.56,218.93
9370,-3.8710,-0.0873,0.1118,414.31,-1172.12,-1937.32
9380,-3.8710,-0.0536,0.1116,836.18,-1672.06,422.06
9390,-3.8711,-0.0247,0.1116,1148.68,-1703.25,-781.07
9400,-3.8711,-0.0028,0.1085,851.81,-1703.19,-1718.57
9410,-3.8711,0.0151,0.1019,-351.32,1906.19,1015.81
9420,-3.8712,0.0339,0.0945,1945.56,1046.88,-827.94
9430,-3.8712,0.0548,0.0883,351.81,93.81,1140.81
9440,-3.8713,0.0763,0.0864,-976.32,-703.06,-203.00
9450,-3.8713,0.0914,0.0934,1773.68,-937.38,-437.38
9460,-3.8712,0.0948,0.1085,-288.82,-46.75,62.62
9470,-3.8712,0.0883,0.1272,148.68,1890.81,781.43
9480,-3.8712,0.0780,0.1481,-695.07,281.37,1500.24
9490,-3.8712,0.0709,0.1746,1992.43,-1046.75,-1640.38
9500,-3.8712,0.0724,0.2072,1086.18,-1656.13,-765.32
9510,-3.8712,0.0833,0.2400,1273.68,-1484.25,-452.76
9520,-3.8712,0.0999,0.2686,-1335.69,-1281.13,-608.95
9530,-3.8712,0.1239,0.2908,789.31,-1624.82,-937.01
9540,-3.8712,0.1577,0.3079,-132.57,1218.93,-1577.58
9550,-3.8712,0.1948,0.3208,195.56,-593.44,1250.55
9560,-3.8713,0.2203,0.3278,945.56,1062.87,-358.76
9570,-3.8713,0.2229,0.3300,211.18,1953.55,1906.86
9580,-3.8713,0.2039,0.3329,539.31,-1765.20,500.61
9590,-3.8715,0.1770,0.3392,-1898.19,-1390.26,-46.26
9600,-3.8713,0.1537,0.3555,-1335.69,-577.82,234.99
9610,-3.8713,0.1393,0.3833,-320.07,1500.24,688.17
9620,-3.8713,0.1342,0.4111,1836.18,1062.74,1110.11
9630,-3.8713,0.1349,0.4272,1179.93,625.24,1422.67
9640,-3.8713,0.1381,0.4261,1273.68,-1312.26,1407.04
9650,-3.8713,0.1405,0.4122,1679.93,-1452.88,766.42
9660,-3.8715,0.1403,0.4012,1992.43,765.87,-733.58
9670,-3.8715,0.1384,0.4082,1961.18,-640.38,1063.23
9680,-3.8716,0.1436,0.4351,1726.81,250.24,-608.58
9690,-3.8716,0.1671,0.4700,-1616.94,-312.26,-233.58
9700,-3.8715,0.2114,0.5060,1398.68,156.56,-1733.46
9710,-3.8713,0.2634,0.5326,-929.44,765.99,1047.85
9720,-3.8713,0.3126,0.5306,1726.81,172.36,-1655.21
9730,-3.8713,0.3566,0.5117,23.68,-77.51,-1889.65
9740,-3.8713,0.3936,0.5020,1648.68,1500.67,1204.10
9750,-3.8713,0.4188,0.5046,-1616.94,250.73,532.23
9760,-3.8713,0.4324,0.5121,1617.43,594.54,829.10
9770,-3.8713,0.4384,0.5138,-648.19,1547.67,1938.48
9780,-3.8713,0.4359,0.5061,117.43,1766.48,-1514.65
9790,-3.8713,0.4280,0.4926,-195.07,782.04,1500.98
9800,-3.8715,0.4236,0.4791,-1210.69,-952.33,-592.83
9810,-3.8715,0.4288,0.4730,-1773.19,1328.92,1235.29
9820,-3.8716,0.4451,0.4739,-1101.32,547.67,-249.08
9830,-3.8716,0.4714,0.4741,976.81,657.10,-1217.83
9840,-3.8716,0.4999,0.4708,351.81,688.42,1954.04
9850,-3.8716,0.5204,0.4686,-7.57,266.54,1047.79
9860,-3.8717,0.5289,0.4731,-1382.57,-14.65,-280.40
9870,-3.8717,0.5281,0.4836,-288.82,563.48,-1795.96
9880,-3.8717,0.5181,0.4940,-398.19,1907.23,1047.79
9890,-3.8717,0.5013,0.4976,-1679.44,-764.65,235.29
9900,-3.8718,0.4843,0.4904,179.93,-311.52,-889.71
9910,-3.8718,0.4667,0.4750,1992.43,-1233.46,1563.42
9920,-3.8718,0.4457,0.4592,-257.57,797.73,16.54
9930,-3.8719,0.4227,0.4492,1054.93,-1217.90,-983.52
9940,-3.8719,0.3995,0.4448,-1882.57,1500.79,-936.65
9950,-3.8718,0.3766,0.4435,-851.32,938.23,172.73
9960,-3.8718,0.3545,0.4406,211.18,766.36,1782.10
9970,-3.8718,0.3322,0.4346,1383.06,391.30,-733.52
9980,-3.8717,0.3126,0.4307,-1476.32,-374.39,110.17
9990,-3.8717,0.3007,0.4318,23.68,-874.39,32.04
10000,-3.8718,0.2980,0.4395,-1507.57,-733.83,-780.46
10010,-3.8718,0.3042,0.4498,-1851.32,250.55,-1858.52
10020,-3.8718,0.3156,0.4526,-1054.44,1578.67,1032.10
10030,-3.8719,0.3282,0.4381,398.68,1938.11,-952.27
10040,-3.8721,0.3405,0.4054,-1976.32,78.74,-608.52
10050,-3.8722,0.3466,0.3663,-413.82,-108.76,-952.39
10060,-3.8722,0.3403,0.3397,367.43,-1108.70,250.67
10070,-3.8722,0.3219,0.3370,-429.44,-515.01,578.74
10080,-3.8722,0.2960,0.3521,1211.18,-858.76,-296.26
10090,-3.8719,0.2747,0.3745,1898.68,1063.05,297.55
10100,-3.8718,0.2714,0.3951,-835.69,-62.01,1219.42
10110,-3.8717,0.2885,0.4072,-1257.57,-1421.39,1344.48
10120,-3.8716,0.3185,0.4124,929.93,125.55,469.54
10130,-3.8716,0.3544,0.4128,773.68,781.86,-1092.96
10140,-3.8715,0.3890,0.4100,1367.43,844.42,688.29
10150,-3.8715,0.4113,0.4053,1804.93,485.11,-1936.71
10160,-3.8715,0.4197,0.4053,648.68,-124.21,-343.02
10170,-3.8713,0.4221,0.4128,1726.81,-124.21,1969.48
10180,-3.8712,0.4235,0.4222,-1960.69,844.54,891.42
10190,-3.8711,0.4222,0.4314,-1788.82,-1952.33,125.79
10200,-3.8711,0.4196,0.4371,-1945.07,-780.46,-842.96
10210,-3.8710,0.4160,0.4353,1711.18,-46.08,1532.04
10220,-3.8710,0.4104,0.4309,1258.06,-280.46,-952.33
10230,-3.8710,0.4069,0.4277,539.31,-842.96,-358.58
10240,-3.8710,0.4073,0.4240,86.18,-1249.21,-186.71
10250,-3.8708,0.4094,0.4241,148.68,-1733.58,266.42
10260,-3.8708,0.4156,0.4279,414.31,-1717.96,1000.79
10270,-3.8708,0.4290,0.4288,1211.18,-1233.58,1578.92
10280,-3.8708,0.4473,0.4233,-1085.69,-1108.58,1313.29
10290,-3.8708,0.4657,0.4117,1258.06,-1811.65,78.92
10300,-3.8710,0.4781,0.3926,-382.57,703.98,-1811.71
10310,-3.8711,0.4810,0.3660,1211.18,-1749.08,-249.27
10320,-3.8711,0.4771,0.3430,1570.56,-1155.33,938.17
10330,-3.8712,0.4698,0.3315,1070.56,-92.83,-1999.39
10340,-3.8713,0.4609,0.3275,148.68,-1561.58,-640.01
10350,-3.8713,0.4573,0.3263,-991.94,1922.73,1438.11
10360,-3.8713,0.4648,0.3248,-1460.69,1766.48,234.99
10370,-3.8715,0.4823,0.3223,-491.94,1578.98,-405.64
10380,-3.8715,0.5055,0.3208,1742.43,1250.92,-624.39
10390,-3.8715,0.5306,0.3188,711.18,1063.48,-733.76
10400,-3.8715,0.5538,0.3107,-70.07,813.48,-1218.14
10410,-3.8715,0.5732,0.2936,-1101.32,-233.34,1672.42
10420,-3.8715,0.5886,0.2684,1383.06,1579.22,219.30
10430,-3.8716,0.5936,0.2407,-648.19,-1639.53,-1374.51
10440,-3.8716,0.5841,0.2152,-7.57,-1186.40,828.55
10450,-3.8717,0.5637,0.1935,-1226.32,-452.03,-1171.51
10460,-3.8717,0.5414,0.1763,164.31,766.72,1047.24
10470,-3.8718,0.5269,0.1619,1304.93,-1436.46,-187.19
10480,-3.8718,0.5219,0.1472,-554.44,719.73,-718.44
10490,-3.8718,0.5215,0.1331,-1195.07,-1155.27,-577.88
10500,-3.8717,0.5205,0.1239,-1241.94,1032.23,93.99
10510,-3.8717,0.5161,0.1196,-1366.94,-139.65,812.68
10520,-3.8717,0.5090,0.1158,-1929.44,-686.52,640.81
10530,-3.8718,0.5017,0.1099,1164.31,-1170.90,-437.32
10540,-3.8718,0.4956,0.1021,226.81,-1936.52,-1890.44
10550,-3.8718,0.4913,0.0983,-554.44,1063.42,687.68
10560,-3.8719,0.4923,0.1027,-1101.32,579.04,-390.44
10570,-3.8719,0.5035,0.1095,-976.32,1141.54,-1187.32
10580,-3.8719,0.5232,0.1085,461.18,-1983.40,1562.68
10590,-3.8721,0.5431,0.0959,-1023.19,1891.60,-499.82
10600,-3.8721,0.5569,0.0811,1523.68,282.29,1531.43
10610,-3.8721,0.5614,0.0779,-710.69,-1623.96,1047.00
10620,-3.8721,0.5591,0.0945,-132.57,1969.79,-906.13
10630,-3.8719,0.5536,0.1270,-429.44,94.79,-265.44
10640,-3.8717,0.5479,0.1632,-1132.57,251.04,1703.37
10650,-3.8716,0.5453,0.1930,-1866.94,891.66,-405.94
10660,-3.8713,0.5450,0.2108,1804.93,704.16,672.24
10670,-3.8713,0.5421,0.2167,1773.68,-1014.59,-46.51
10680,-3.8712,0.5363,0.2124,1398.68,-264.59,703.49
10690,-3.8713,0.5308,0.1987,648.68,-811.46,-1077.76
10700,-3.8715,0.5260,0.1841,-54.44,1438.48,-530.88
10710,-3.8716,0.5248,0.1763,-663.82,-436.52,-421.57
10720,-3.8716,0.5300,0.1791,-820.07,-1436.52,375.31
10730,-3.8717,0.5427,0.1923,-148.19,-1077.15,-1859.07
10740,-3.8717,0.5596,0.2097,1476.81,610.41,844.12
10750,-3.8717,0.5746,0.2230,-366.94,-1155.21,484.74
10760,-3.8717,0.5847,0.2296,1554.93,547.97,500.43
10770,-3.8717,0.5881,0.2299,-1148.19,1391.72,312.93
10780,-3.8717,0.5828,0.2241,-710.69,1422.97,219.18
10790,-3.8717,0.5685,0.2180,-1398.19,688.60,859.80
10800,-3.8717,0.5460,0.2211,773.68,-92.65,-1952.76
10810,-3.8717,0.5148,0.2354,1898.68,297.91,-655.82
10820,-3.8716,0.4799,0.2534,1898.68,-1874.02,375.43
10830,-3.8716,0.4513,0.2690,1429.93,438.42,844.24
10840,-3.8716,0.4343,0.2766,1773.68,-1561.65,1016.11
10850,-3.8716,0.4263,0.2760,-398.19,-592.96,1437.99
10860,-3.8716,0.4202,0.2734,-1429.44,-671.08,-1812.01
10870,-3.8716,0.4091,0.2732,1789.31,-999.21,-796.39
10880,-3.8715,0.3910,0.2800,367.43,-1030.46,578.61
10890,-3.8715,0.3710,0.2980,-1945.07,-155.52,-1515.14
10900,-3.8713,0.3594,0.3212,-507.57,-1858.70,563.05
10910,-3.8713,0.3627,0.3361,-1991.94,1110.05,-1749.39
10920,-3.8713,0.3766,0.3367,-1570.07,-983.70,-952.51
10930,-3.8713,0.3903,0.3256,211.18,-905.52,-1577.51
10940,-3.8713,0.3949,0.3087,1961.18,1672.61,1125.61
10950,-3.8713,0.3828,0.2969,-1445.07,-483.64,1047.42
10960,-3.8713,0.3530,0.2926,1008.06,-1999.27,-1093.20
10970,-3.8712,0.3149,0.2882,1195.56,1453.80,1703.67
10980,-3.8712,0.2775,0.2861,320.56,891.24,-15.08
10990,-3.8711,0.2467,0.2904,-476.32,625.49,625.55
11000,-3.8712,0.2289,0.2937,-413.82,1172.30,-311.95
11010,-3.8712,0.2286,0.2833,1304.93,1594.18,1922.42
11020,-3.8713,0.2461,0.2655,1273.68,266.05,-249.45
11030,-3.8713,0.2767,0.2606,-491.94,1984.80,1187.99
11040,-3.8715,0.3181,0.2758,-570.07,1359.86,-1530.76
11050,-3.8715,0.3663,0.3048,726.81,-702.51,375.49
11060,-3.8716,0.4178,0.3453,-1101.32,-983.70,-46.33
11070,-3.8715,0.4741,0.3984,1492.43,203.92,1344.42
11080,-3.8713,0.5337,0.4530,695.56,-999.08,141.36
11090,-3.8713,0.5898,0.4949,320.56,1985.41,-702.27
11100,-3.8712,0.6349,0.5188,-491.94,-655.15,1110.29
11110,-3.8712,0.6626,0.5284,1273.68,-1592.53,1032.23
11120,-3.8713,0.6711,0.5327,820.56,-358.09,-514.65
11130,-3.8713,0.6667,0.5356,1914.31,188.78,1047.91
11140,-3.8715,0.6608,0.5344,1351.81,563.78,-1608.34
11150,-3.8716,0.6608,0.5325,586.18,407.53,-108.34
11160,-3.8716,0.6670,0.5344,586.18,157.53,1829.16
11170,-3.8716,0.6741,0.5439,1383.06,407.53,813.54
11180,-3.8716,0.6735,0.5635,-1710.69,1626.28,1282.29
11190,-3.8716,0.6580,0.5868,-1788.82,126.28,-967.65
11200,-3.8715,0.6302,0.6068,226.81,-889.34,1766.72
11210,-3.8713,0.5986,0.6238,679.93,1673.10,1423.03
11220,-3.8712,0.5703,0.6371,633.06,-155.09,1360.53
11230,-3.8711,0.5463,0.6417,1008.06,1547.97,423.10
11240,-3.8711,0.5249,0.6334,1929.93,-1858.34,1719.97
11250,-3.8711,0.5045,0.6150,-804.44,1079.10,1204.35
11260,-3.8712,0.4840,0.5964,586.18,-1280.27,-530.09
11270,-3.8712,0.4661,0.5814,1961.18,344.67,735.53
11280,-3.8713,0.4520,0.5681,-335.69,-1577.27,1376.10
11290,-3.8715,0.4409,0.5568,1867.43,719.60,1954.22
11300,-3.8716,0.4349,0.5499,445.56,-733.52,-1639.59
11310,-3.8717,0.4362,0.5499,-320.07,-1608.58,-1420.84
11320,-3.8718,0.4429,0.5588,-163.82,-1608.58,-639.59
11330,-3.8718,0.4513,0.5743,695.56,-467.90,1079.16
11340,-3.8719,0.4614,0.5884,1773.68,1516.48,-561.40
11350,-3.8719,0.4720,0.5973,-929.44,-686.65,-1530.15
11360,-3.8719,0.4762,0.5981,429.93,454.04,1532.41
11370,-3.8721,0.4706,0.5903,961.18,563.42,-61.34
11380,-3.8721,0.4590,0.5780,242.43,-436.58,1985.47
11390,-3.8721,0.4464,0.5564,-1241.94,1985.23,157.35
11400,-3.8722,0.4360,0.5255,1148.68,-780.40,-842.71
11410,-3.8722,0.4280,0.4971,-179.44,-733.58,-483.40
11420,-3.8721,0.4218,0.4811,-1210.69,-374.21,1266.54
11430,-3.8719,0.4163,0.4822,1992.43,1578.92,500.92
11440,-3.8718,0.4082,0.4951,1289.31,1719.54,704.04
11450,-3.8717,0.3965,0.5054,258.06,-624.21,813.42
11460,-3.8716,0.3821,0.5048,-1241.94,688.23,32.23
11470,-3.8716,0.3636,0.4950,914.31,610.11,-1983.40
11480,-3.8716,0.3419,0.4749,-1445.07,-639.95,-1124.08
11490,-3.8716,0.3180,0.4403,-226.32,781.86,-1217.83
11500,-3.8716,0.2950,0.3987,711.18,359.99,1688.35
11510,-3.8717,0.2799,0.3643,1773.68,-968.20,-327.39
11520,-3.8717,0.2777,0.3412,-163.82,-1374.51,1641.30
11530,-3.8717,0.2877,0.3356,-445.07,-327.64,1250.61
11540,-3.8717,0.3076,0.3489,836.18,-1046.33,-1233.76
11550,-3.8716,0.3271,0.3685,-616.94,656.80,1094.42
11560,-3.8715,0.3336,0.3875,1883.06,-827.51,63.17
11570,-3.8715,0.3267,0.4043,-1288.82,1594.36,-546.14
11580,-3.8713,0.3132,0.4153,1820.56,-249.39,-1468.02
11590,-3.8712,0.2991,0.4148,101.81,1156.86,1000.79
11600,-3.8712,0.2844,0.4005,-1710.69,1094.30,-1389.83
11610,-3.8712,0.2653,0.3768,414.31,-733.83,-983.64
11620,-3.8712,0.2419,0.3502,1961.18,234.86,1953.86
11630,-3.8713,0.2228,0.3290,-1023.19,828.55,-452.45
11640,-3.8713,0.2146,0.3188,523.68,-1890.20,625.61
11650,-3.8715,0.2162,0.3158,-523.19,812.87,1859.99
11660,-3.8716,0.2174,0.3127,-320.07,422.24,-280.64
11670,-3.8716,0.2031,0.3066,-163.82,31.62,-1015.01
11680,-3.8715,0.1688,0.2988,-1991.94,-749.63,63.05
11690,-3.8715,0.1234,0.2905,1617.43,-1749.69,-1686.95
11700,-3.8713,0.0756,0.2848,-195.07,1187.68,641.17
11710,-3.8713,0.0396,0.2874,1679.93,453.25,-1936.95
11720,-3.8713,0.0337,0.2961,1070.56,781.31,-1640.08
11730,-3.8713,0.0593,0.2981,320.56,1906.31,1469.30
11740,-3.8715,0.1049,0.2871,-398.19,-1843.69,-530.70
11750,-3.8715,0.1552,0.2672,1429.93,750.18,1266.17
11760,-3.8716,0.1874,0.2487,-132.57,-1796.63,-15.14
11770,-3.8715,0.1849,0.2443,-7.57,-171.57,531.68
11780,-3.8715,0.1505,0.2496,-320.07,-734.07,-780.82
11790,-3.8713,0.1010,0.2488,-726.32,-46.63,-1030.82
11800,-3.8712,0.0540,0.2361,929.93,-156.07,-1796.45
11810,-3.8711,0.0203,0.2173,-1085.69,-1781.19,766.05
11820,-3.8711,0.0017,0.1971,-1398.19,-187.50,-1171.51
11830,-3.8710,-0.0051,0.1799,226.81,1234.38,484.74
11840,-3.8710,-0.0033,0.1688,-648.19,-953.19,1781.56
11850,-3.8710,0.0059,0.1621,-413.82,1624.94,-1484.07
11860,-3.8710,0.0186,0.1600,758.06,750.00,-1124.69
11870,-3.8710,0.0303,0.1644,-1616.94,484.38,-905.94
11880,-3.8710,0.0359,0.1699,-116.94,1046.88,-1015.32
11890,-3.8710,0.0354,0.1682,601.81,1750.06,-1780.94
11900,-3.8710,0.0374,0.1581,539.31,1531.31,578.43
11910,-3.8711,0.0477,0.1453,789.31,234.44,-1843.44
11920,-3.8712,0.0673,0.1382,-1882.57,-1406.19,-437.26
11930,-3.8712,0.0958,0.1426,617.43,1687.62,1968.99
11940,-3.8712,0.1307,0.1556,273.68,-1749.82,1890.87
11950,-3.8712,0.1686,0.1710,742.43,-77.88,-1234.13
11960,-3.8712,0.2039,0.1841,1586.18,1890.93,-390.32
11970,-3.8712,0.2269,0.1929,-1898.19,-437.13,-468.44
11980,-3.8712,0.2343,0.2013,1054.93,687.93,-1484.01
11990,-3.8712,0.2307,0.2108,1992.43,1766.05,1406.62
12000,-3.8712,0.2225,0.2223,1539.31,-1015.20,437.87
12010,-3.8713,0.2158,0.2368,492.43,453.55,-843.32
12020,-3.8713,0.2186,0.2490,-366.94,-1687.13,1484.80
12030,-3.8715,0.2365,0.2565,-7.57,-124.63,-249.57
12040,-3.8715,0.2667,0.2666,-1726.32,828.55,-1905.76
12050,-3.8715,0.3024,0.2856,-1851.32,-1874.51,1172.36
12060,-3.8715,0.3389,0.3115,-1288.82,563.05,1609.92
12070,-3.8715,0.3712,0.3406,-616.94,-124.39,-1108.83
12080,-3.8715,0.3910,0.3612,-476.32,-405.58,-249.39
12090,-3.8715,0.3929,0.3623,-1945.07,-1764.89,-343.08
12100,-3.8715,0.3796,0.3490,-1695.07,-1624.27,-1624.33
12110,-3.8716,0.3539,0.3268,601.81,672.61,-186.83
12120,-3.8716,0.3186,0.3068,1304.93,1828.80,875.61
12130,-3.8717,0.2898,0.3037,789.31,-733.76,-1436.95
12140,-3.8717,0.2778,0.3173,1101.81,-1124.45,1313.05
12150,-3.8717,0.2775,0.3453,-429.44,609.86,1156.86
12160,-3.8717,0.2837,0.3838,-476.32,203.61,1500.67
12170,-3.8717,0.2949,0.4126,320.56,1125.55,1938.23
12180,-3.8717,0.3149,0.4191,1758.06,813.05,-1046.08
12190,-3.8716,0.3545,0.4130,320.56,1641.24,985.17
12200,-3.8716,0.4169,0.4077,1383.06,860.05,-514.83
12210,-3.8715,0.4915,0.4153,1367.43,188.29,1516.42
12220,-3.8715,0.5579,0.4404,-1085.69,1157.17,-1421.08
12230,-3.8715,0.5988,0.4775,-585.69,376.04,-1108.52
12240,-3.8715,0.6086,0.5166,648.68,1126.16,-1202.21
12250,-3.8715,0.5914,0.5477,1914.31,-1873.84,-1702.15
12260,-3.8715,0.5575,0.5652,-288.82,-1889.53,1360.41
12270,-3.8716,0.5258,0.5634,-632.57,344.79,-202.03
12280,-3.8716,0.5142,0.5327,-695.07,110.35,1376.10
12290,-3.8717,0.5269,0.4824,1820.56,188.48,-1248.96
12300,-3.8717,0.5510,0.4338,-554.44,1750.98,219.67
12310,-3.8718,0.5718,0.3972,-1460.69,-467.71,1360.17
12320,-3.8719,0.5848,0.3805,1195.56,-1155.15,-1139.89
12330,-3.8719,0.5913,0.3857,-1132.57,704.22,1766.36
12340,-3.8719,0.5931,0.4073,-304.44,1376.10,-1936.77
12350,-3.8719,0.5946,0.4393,-70.07,141.72,-796.08
12360,-3.8718,0.5966,0.4762,117.43,235.53,828.98
12370,-3.8718,0.5963,0.5126,367.43,954.28,-1467.83
12380,-3.8718,0.5908,0.5398,336.18,1610.53,-295.90
12390,-3.8718,0.5776,0.5431,-366.94,1094.85,-123.96
12400,-3.8718,0.5573,0.5205,1945.56,1516.72,-842.71
12410,-3.8718,0.5353,0.4888,-663.82,-1373.96,-1795.90
12420,-3.8718,0.5156,0.4630,523.68,-1436.46,1079.04
12430,-3.8719,0.4957,0.4467,-1991.94,-733.40,-327.27
12440,-3.8719,0.4751,0.4368,-538.82,1172.79,-1561.65
12450,-3.8719,0.4596,0.4324,820.56,-92.83,1907.04
12460,-3.8719,0.4552,0.4358,-1163.82,-655.40,-1811.71
12470,-3.8719,0.4565,0.4429,-1726.32,-217.90,-967.96
12480,-3.8718,0.4556,0.4480,-1554.44,688.35,297.73
12490,-3.8718,0.4578,0.4510,-1679.44,1344.60,1360.23
12500,-3.8718,0.4670,0.4506,-1398.19,1735.23,-1983.52
12510,-3.8718,0.4786,0.4438,-210.69,1672.73,-811.65
12520,-3.8717,0.4900,0.4327,1273.68,813.42,1000.85
12530,-3.8717,0.4991,0.4199,-1273.19,-608.46,-1702.33
12540,-3.8717,0.5018,0.4054,-101.32,1750.92,-1655.46
12550,-3.8717,0.4946,0.3904,242.43,-108.40,1235.11
12560,-3.8718,0.4781,0.3751,-679.44,1969.67,-593.02
12570,-3.8718,0.4554,0.3593,1211.18,16.54,1641.36
12580,-3.8718,0.4283,0.3446,-1695.07,1985.23,797.55
12590,-3.8718,0.4008,0.3367,-1163.82,110.17,1422.55
12600,-3.8718,0.3774,0.3362,-695.07,-905.52,-1046.26
12610,-3.8717,0.3636,0.3365,320.56,-968.02,547.49
12620,-3.8717,0.3627,0.3391,-1445.07,-921.20,-1796.26
12630,-3.8717,0.3677,0.3439,-1570.07,-593.08,-61.89
12640,-3.8716,0.3723,0.3450,-929.44,16.30,1328.80
12650,-3.8716,0.3755,0.3380,-335.69,156.92,-1546.20
12660,-3.8716,0.3768,0.3262,70.56,-733.64,-358.76
12670,-3.8715,0.3779,0.3182,242.43,1750.73,1234.99
12680,-3.8715,0.3855,0.3221,383.06,735.11,-343.14
12690,-3.8713,0.4000,0.3384,1351.81,1235.11,-1202.51
12700,-3.8712,0.4156,0.3580,-788.82,-686.77,1984.99
12710,-3.8711,0.4298,0.3673,1211.18,1828.92,844.42
12720,-3.8711,0.4424,0.3607,-976.32,-983.58,-1218.08
12730,-3.8711,0.4518,0.3473,633.06,-1827.27,-749.33
12740,-3.8711,0.4545,0.3335,1836.18,453.98,-1952.45
12750,-3.8712,0.4564,0.3175,-1820.07,-1311.65,-93.14
12760,-3.8712,0.4612,0.3033,-1570.07,641.48,-1874.39
12770,-3.8712,0.4661,0.3024,-960.69,-1171.02,1578.67
12780,-3.8712,0.4810,0.3198,-335.69,-1296.02,-1374.45
12790,-3.8711,0.5138,0.3418,1570.56,938.42,531.86
12800,-3.8711,0.5574,0.3479,1773.68,-249.02,1625.61
12810,-3.8711,0.5999,0.3347,-648.19,532.29,1125.67
12820,-3.8712,0.6239,0.3066,789.31,-1155.09,-405.64
12830,-3.8712,0.6129,0.2717,-132.57,-748.84,1781.80
12840,-3.8713,0.5659,0.2417,-1538.82,-1217.59,-15.14
12850,-3.8713,0.5022,0.2172,445.56,-1061.40,-1796.45
12860,-3.8713,0.4417,0.1948,289.31,-202.15,734.74
12870,-3.8713,0.3900,0.1810,539.31,938.35,219.12
12880,-3.8713,0.3519,0.1799,1929.93,-827.39,719.06
12890,-3.8713,0.3337,0.1843,1054.93,-968.08,1656.56
12900,-3.8713,0.3260,0.1880,-1273.19,-405.64,-1577.82
12910,-3.8713,0.3188,0.1885,1742.43,63.11,-1468.38
12920,-3.8713,0.3192,0.1842,820.56,125.61,1750.37
12930,-3.8713,0.3325,0.1744,867.43,-421.26,344.06
12940,-3.8715,0.3531,0.1569,-1429.44,-1671.26,-1874.69
12950,-3.8716,0.3689,0.1346,1211.18,78.80,-1265.32
12960,-3.8717,0.3729,0.1173,-773.19,1235.05,-890.38
12970,-3.8717,0.3710,0.1097,-257.57,-983.70,750.18
12980,-3.8718,0.3727,0.1075,-507.57,-1952.45,-77.94
12990,-3.8718,0.3868,0.1046,-288.82,1766.30,-484.19
13000,-3.8718,0.4189,0.1006,1523.68,1391.36,-1124.82
13010,-3.8718,0.4655,0.1022,1633.06,875.79,-1718.57
13020,-3.8718,0.5142,0.1157,-413.82,1078.98,-1327.94
13030,-3.8717,0.5577,0.1399,1820.56,-1186.52,625.18
13040,-3.8717,0.5946,0.1665,-601.32,1907.29,-390.38
13050,-3.8716,0.6208,0.1819,117.43,1313.66,-1609.07
13060,-3.8716,0.6389,0.1813,-523.19,-717.59,-171.57
13070,-3.8716,0.6561,0.1678,1789.31,-795.65,-202.82
13080,-3.8716,0.6724,0.1405,-7.57,1485.60,-1405.94
13090,-3.8716,0.6855,0.1094,-1929.44,1985.66,625.24
13100,-3.8717,0.6969,0.0875,-241.94,-1998.72,-1812.32
13110,-3.8718,0.7031,0.0730,1211.18,-795.53,-15.50
13120,-3.8718,0.6978,0.0653,-1991.94,1345.09,-937.38
13130,-3.8718,0.6804,0.0652,1320.56,360.72,-718.63
13140,-3.8718,0.6545,0.0636,-898.19,345.03,-218.63
13150,-3.8718,0.6249,0.0547,-210.69,141.85,-156.13
13160,-3.8718,0.5964,0.0383,-7.57,-998.84,-1093.69
13170,-3.8718,0.5713,0.0151,351.81,907.41,765.69
13180,-3.8719,0.5507,-0.0125,1133.06,1938.60,1890.62
13190,-3.8721,0.5344,-0.0380,-1507.57,-1592.71,-937.56
13200,-3.8721,0.5194,-0.0553,414.31,-858.34,984.25
13210,-3.8721,0.5042,-0.0610,-1507.57,922.85,687.38
13220,-3.8721,0.4919,-0.0541,539.31,188.48,-1500.12
13230,-3.8719,0.4891,-0.0358,-1023.19,1079.04,1859.25
13240,-3.8718,0.4980,-0.0112,-1382.57,-577.21,-1797.00
13250,-3.8717,0.5107,0.0135,-241.94,-1436.58,-1312.56
13260,-3.8716,0.5145,0.0330,1383.06,1735.35,-1625.00
13270,-3.8715,0.5057,0.0436,1867.43,219.73,1250.06
13280,-3.8715,0.4915,0.0483,742.43,1579.10,-421.81
13290,-3.8713,0.4792,0.0548,-1085.69,-1811.58,1203.19
13300,-3.8713,0.4716,0.0625,1351.81,-983.46,-1828.06
13310,-3.8713,0.4663,0.0646,367.43,0.92,-1499.88
13320,-3.8713,0.4590,0.0608,-304.44,266.48,-1859.25
13330,-3.8713,0.4541,0.0529,-1241.94,-217.90,1265.69
13340,-3.8713,0.4585,0.0433,-1866.94,-1233.52,531.31
13350,-3.8713,0.4653,0.0396,-1304.44,1547.73,421.94
13360,-3.8713,0.4658,0.0441,-429.44,1063.35,750.06
13370,-3.8713,0.4629,0.0541,-366.94,1641.48,1437.56
13380,-3.8713,0.4570,0.0667,-741.94,-1077.27,-1593.69
13390,-3.8713,0.4397,0.0789,-1491.94,532.10,-843.63
13400,-3.8713,0.4083,0.0876,289.31,-1905.40,-562.38
13410,-3.8713,0.3706,0.0902,273.68,-780.46,-640.50
13420,-3.8713,0.3342,0.0842,-554.44,-452.45,-1140.50
13430,-3.8713,0.3086,0.0718,-1210.69,-1218.14,1797.00
13440,-3.8713,0.3020,0.0609,-491.94,1188.05,593.87
13450,-3.8715,0.3073,0.0586,-1335.69,-202.58,-406.19
13460,-3.8715,0.3109,0.0653,-663.82,-499.45,-1140.56
13470,-3.8715,0.3086,0.0791,-195.07,359.92,-1671.75
13480,-3.8715,0.3015,0.1008,-491.94,-1874.45,1984.50
13490,-3.8715,0.2954,0.1250,-1398.19,906.80,1797.06
13500,-3.8715,0.3007,0.1406,1820.56,0.55,1781.49
13510,-3.8715,0.3207,0.1448,-1507.57,-1999.45,1750.24
13520,-3.8715,0.3485,0.1433,1054.93,-1468.14,1234.62
13530,-3.8715,0.3751,0.1464,617.43,-1655.58,78.37
13540,-3.8716,0.3927,0.1595,23.68,-1264.89,-1171.63
13550,-3.8716,0.3953,0.1810,-1726.32,422.61,-1734.07
13560,-3.8716,0.3827,0.2048,-1398.19,-827.39,-1624.69
13570,-3.8716,0.3663,0.2200,992.43,-1780.52,-1280.88
13580,-3.8716,0.3562,0.2213,-1101.32,156.92,-1015.20
13590,-3.8716,0.3534,0.2174,1601.81,328.80,-546.45
13600,-3.8715,0.3527,0.2186,1242.43,-171.20,781.62
13610,-3.8715,0.3495,0.2295,1148.68,-14.95,-1093.38
13620,-3.8713,0.3431,0.2494,742.43,1375.67,1687.93
13630,-3.8712,0.3326,0.2739,-70.07,-77.51,812.93
13640,-3.8712,0.3186,0.2981,-1413.82,-936.89,-452.64
13650,-3.8711,0.3049,0.3184,789.31,-1843.14,1578.67
13660,-3.8711,0.2952,0.3225,-960.69,750.55,-1483.76
13670,-3.8711,0.2963,0.3058,1789.31,1281.80,1922.49
13680,-3.8711,0.3138,0.2875,1929.93,-858.83,344.30
13690,-3.8712,0.3359,0.2869,179.93,797.49,-921.33
13700,-3.8712,0.3475,0.3026,-991.94,719.36,-1296.33
13710,-3.8712,0.3485,0.3215,492.43,-1264.95,-718.20
13720,-3.8711,0.3467,0.3326,617.43,1156.92,859.99
13730,-3.8711,0.3436,0.3315,383.06,-1421.20,-1796.26
13740,-3.8711,0.3370,0.3257,-7.57,-1561.89,-1686.89
13750,-3.8711,0.3235,0.3239,-851.32,1688.11,1906.86
13760,-3.8711,0.3010,0.3237,1414.31,1453.74,-1811.89
13770,-3.8711,0.2739,0.3199,-1460.69,1438.05,-436.89
13780,-3.8710,0.2468,0.3146,-929.44,953.61,1047.49
13790,-3.8710,0.2250,0.3087,-398.19,266.05,1359.99
13800,-3.8710,0.2125,0.3002,804.93,-483.95,125.55
13810,-3.8711,0.2103,0.2885,-788.82,-1577.76,1531.80
13820,-3.8712,0.2228,0.2750,-1070.07,922.24,-1843.20
13830,-3.8713,0.2523,0.2660,523.68,-796.45,-702.64
13840,-3.8713,0.2922,0.2689,304.93,-1952.64,-1921.39
13850,-3.8713,0.3329,0.2860,1414.31,-1577.58,-1468.26
13860,-3.8713,0.3666,0.3112,-1382.57,609.99,-124.45
13870,-3.8712,0.3895,0.3345,-1070.07,-171.20,1219.30
13880,-3.8712,0.3983,0.3505,1867.43,-1186.77,1625.61
13890,-3.8712,0.3962,0.3566,-1007.57,860.11,610.05
13900,-3.8713,0.3907,0.3536,-1273.19,1641.36,-1030.58
13910,-3.8713,0.3835,0.3492,-1976.32,1266.36,1813.17
13920,-3.8713,0.3776,0.3535,1101.81,703.86,1750.67
13930,-3.8713,0.3794,0.3672,336.18,1250.73,-1499.33
13940,-3.8713,0.3905,0.3811,570.56,-999.27,-858.70
13950,-3.8713,0.4015,0.3876,1992.43,781.98,-1202.39
13960,-3.8713,0.4036,0.3861,-601.32,1610.11,1141.36
13970,-3.8715,0.3978,0.3829,-335.69,1422.61,-1405.52
13980,-3.8715,0.3905,0.3815,-1070.07,1016.36,16.36
13990,-3.8716,0.3883,0.3765,1992.43,828.86,1891.36
14000,-3.8716,0.3917,0.3671,1711.18,188.23,422.61
14010,-3.8716,0.3914,0.3589,-1851.32,-1014.89,31.92
14020,-3.8716,0.3795,0.3542,-1898.19,1938.23,906.92
14030,-3.8716,0.3574,0.3558,586.18,1344.48,-889.95
14040,-3.8715,0.3274,0.3629,1758.06,1547.55,-1780.58
14050,-3.8713,0.2920,0.3663,1914.31,-1546.26,1469.42
14060,-3.8712,0.2603,0.3585,1383.06,-1108.83,297.55
14070,-3.8712,0.2450,0.3424,1320.56,1891.11,-1593.08
14080,-3.8712,0.2495,0.3278,-632.57,-171.45,-499.39
14090,-3.8712,0.2662,0.3188,-54.44,1953.55,-436.89
14100,-3.8712,0.2905,0.3186,-1913.82,812.99,-765.01
14110,-3.8712,0.3180,0.3268,1195.56,781.80,-827.51
14120,-3.8712,0.3386,0.3356,711.18,1828.74,-327.51
14130,-3.8711,0.3462,0.3380,-648.19,-1046.26,125.61
14140,-3.8711,0.3409,0.3300,320.56,-733.70,31.86
14150,-3.8712,0.3270,0.3132,-351.32,-1765.01,-874.39
14160,-3.8712,0.3121,0.2993,1867.43,94.36,1359.99
14170,-3.8713,0.3031,0.2957,-38.82,-1686.95,-483.83
14180,-3.8713,0.3009,0.2997,-1195.07,1844.30,-1311.95
14190,-3.8713,0.2994,0.3069,-1476.32,-1640.08,-936.95
14200,-3.8713,0.2920,0.3129,-1663.82,-718.20,-124.45
14210,-3.8712,0.2819,0.3140,1383.06,47.42,594.36
14220,-3.8712,0.2756,0.3083,86.18,188.05,1063.11
14230,-3.8712,0.2705,0.2971,-710.69,-530.76,844.30
14240,-3.8713,0.2631,0.2836,-1366.94,-1968.26,-468.20
14250,-3.8713,0.2567,0.2736,1679.93,297.36,1750.55
14260,-3.8713,0.2522,0.2699,867.43,-983.89,547.36
14270,-3.8713,0.2435,0.2719,289.31,-1452.64,562.99
14280,-3.8713,0.2247,0.2733,-820.07,-1202.70,1781.74
14290,-3.8713,0.1952,0.2670,773.68,-1015.20,-233.89
14300,-3.8712,0.1591,0.2520,992.43,-1827.76,1750.49
14310,-3.8712,0.1223,0.2314,367.43,250.31,-780.76
14320,-3.8712,0.0879,0.2101,-335.69,1625.18,-30.82
14330,-3.8711,0.0554,0.1895,-741.94,-1109.25,250.37
14340,-3.8711,0.0259,0.1696,-898.19,250.06,437.87
14350,-3.8711,0.0010,0.1527,-679.44,1703.12,531.56
14360,-3.8711,-0.0184,0.1433,133.06,-453.12,625.24
14370,-3.8711,-0.0322,0.1396,1648.68,-1640.69,1172.12
14380,-3.8711,-0.0472,0.1348,-116.94,1890.50,-1874.76
14390,-3.8711,-0.0688,0.1271,1961.18,1265.50,-1062.26
14400,-3.8711,-0.0929,0.1182,-804.44,281.07,-640.38
14410,-3.8711,-0.1150,0.1118,117.43,-859.56,-265.44
14420,-3.8710,-0.1321,0.1091,1289.31,-1672.12,312.68
14430,-3.8710,-0.1372,0.1036,-898.19,1984.07,453.31
14440,-3.8711,-0.1293,0.0956,-1554.44,1280.94,-421.69
14450,-3.8711,-0.1104,0.0890,-538.82,249.69,1687.68
14460,-3.8712,-0.0817,0.0873,1883.06,-593.99,-624.88
14470,-3.8712,-0.0530,0.0938,1554.93,-812.68,1359.50
14480,-3.8713,-0.0316,0.1074,1226.81,15.50,-93.57
14490,-3.8713,-0.0153,0.1285,-38.82,1765.50,-593.57
14500,-3.8712,-0.0011,0.1572,-1945.07,468.69,437.74
14510,-3.8712,0.0139,0.1844,-132.57,140.56,-1359.07
14520,-3.8711,0.0308,0.2026,1789.31,-390.62,812.81
14530,-3.8711,0.0435,0.2170,-54.44,1937.50,-1702.76
14540,-3.8711,0.0439,0.2344,1570.56,-218.69,-827.76
14550,-3.8711,0.0319,0.2548,1633.06,-1999.94,-155.82
14560,-3.8710,0.0172,0.2765,86.18,609.44,500.49
14570,-3.8710,0.0076,0.3013,-1788.82,-609.38,1109.86
14580,-3.8710,0.0039,0.3248,976.81,-1437.50,1484.92
14590,-3.8710,0.0068,0.3328,508.06,1578.12,1625.61
14600,-3.8710,0.0198,0.3217,883.06,-1406.25,1563.11
14610,-3.8710,0.0424,0.3058,-1460.69,1171.88,813.11
14620,-3.8711,0.0735,0.2981,1429.93,-859.31,-952.58
14630,-3.8711,0.1151,0.3052,1414.31,-1843.63,953.67
14640,-3.8712,0.1597,0.3291,-1257.57,-937.32,-358.83
14650,-3.8712,0.2019,0.3715,445.56,-1874.69,-249.39
14660,-3.8711,0.2377,0.4252,1851.81,-452.76,1172.55
14670,-3.8711,0.2657,0.4709,-1570.07,-1577.70,-514.83
14680,-3.8710,0.2959,0.4844,-1976.32,281.74,1954.04
14690,-3.8710,0.3293,0.4657,1883.06,-1999.45,-514.71
14700,-3.8710,0.3569,0.4445,-1835.69,-390.01,-483.52
14710,-3.8710,0.3688,0.4374,1695.56,891.30,-1546.02
14720,-3.8710,0.3678,0.4395,-788.82,-14.95,828.92
14730,-3.8711,0.3640,0.4425,-913.82,250.67,-1280.40
14740,-3.8711,0.3666,0.4441,-1398.19,641.30,0.85
14750,-3.8712,0.3799,0.4486,-1070.07,844.42,1375.85
14760,-3.8713,0.3977,0.4587,633.06,1422.61,-608.52
14770,-3.8713,0.4165,0.4672,-1085.69,-1280.52,1969.60
14780,-3.8713,0.4386,0.4625,1320.56,-202.33,985.23
14790,-3.8713,0.4652,0.4399,148.68,-796.02,360.23
14800,-3.8715,0.4941,0.4095,-445.07,313.35,-171.02
14810,-3.8715,0.5176,0.3834,-741.94,422.79,-1124.21
14820,-3.8715,0.5310,0.3616,-1741.94,1079.10,1328.86
14830,-3.8716,0.5305,0.3435,-23.19,-1717.77,-327.45
14840,-3.8716,0.5148,0.3326,-85.69,-30.27,-1436.89
14850,-3.8716,0.4956,0.3289,1898.68,-1420.90,1938.11
14860,-3.8716,0.4850,0.3298,-554.44,-1905.33,1328.74
14870,-3.8716,0.4856,0.3345,-1913.82,-1780.33,719.36
14880,-3.8716,0.4943,0.3383,-1835.69,-1186.58,234.99
14890,-3.8717,0.5068,0.3389,-726.32,-702.21,-186.89
14900,-3.8717,0.5183,0.3397,883.06,-624.02,-249.39
14910,-3.8716,0.5197,0.3457,-1648.19,-514.65,391.24
14920,-3.8716,0.5060,0.3569,-1476.32,250.98,1735.05
14930,-3.8716,0.4811,0.3667,773.68,1688.48,-514.95
14940,-3.8715,0.4586,0.3687,1586.18,-1061.58,1063.17
14950,-3.8715,0.4543,0.3591,-1288.82,-811.65,1453.80
14960,-3.8716,0.4675,0.3392,-1835.69,1969.60,-61.83
14970,-3.8716,0.4836,0.3169,-148.19,-577.27,1281.86
14980,-3.8717,0.4893,0.3052,1914.31,563.42,-811.89
14990,-3.8717,0.4834,0.3087,-1366.94,-936.58,-1202.58
15000,-3.8716,0.4783,0.3182,1883.06,-483.46,0.55
15010,-3.8716,0.4834,0.3250,1226.81,735.29,1781.86
15020,-3.8716,0.4962,0.3267,1883.06,1594.67,-858.76
15030,-3.8716,0.5094,0.3234,-476.32,1813.42,-405.64
15040,-3.8716,0.5182,0.3152,1211.18,1391.60,-765.01
15050,-3.8716,0.5173,0.3013,-1663.82,344.73,-1624.39
15060,-3.8716,0.5050,0.2853,-1773.19,-1436.52,1594.30
15070,-3.8716,0.4874,0.2717,648.68,516.60,1141.17
15080,-3.8716,0.4712,0.2571,-1601.32,-1217.83,406.74
15090,-3.8717,0.4603,0.2415,320.56,907.17,-905.76
15100,-3.8717,0.4569,0.2241,-1070.07,-1092.90,1500.43
15110,-3.8717,0.4604,0.2045,-1507.57,688.35,187.93
15120,-3.8718,0.4681,0.1899,-1054.44,-1827.27,-484.01
15130,-3.8718,0.4778,0.1866,-70.07,313.35,-734.01
15140,-3.8718,0.4879,0.1929,1164.31,-108.46,-452.82
15150,-3.8717,0.4957,0.2019,-1538.82,688.42,484.74
15160,-3.8717,0.5000,0.2074,-538.82,1844.67,1547.24
15170,-3.8717,0.5022,0.2068,8.06,-1452.15,-1749.63
15180,-3.8717,0.5028,0.2012,289.31,-1530.27,-1374.63
15190,-3.8717,0.5012,0.1912,367.43,1750.98,-1530.88
15200,-3.8717,0.4979,0.1780,164.31,469.73,1656.62
15210,-3.8717,0.4960,0.1641,-257.57,-1217.83,406.56
15220,-3.8718,0.5017,0.1521,-507.57,1000.92,-812.19
15230,-3.8718,0.5170,0.1442,226.81,-530.27,-1624.76
15240,-3.8718,0.5382,0.1393,-1820.07,-1545.90,1890.87
15250,-3.8718,0.5620,0.1344,898.68,1829.16,1625.24
15260,-3.8718,0.5835,0.1292,-54.44,1204.16,1797.12
15270,-3.8718,0.5962,0.1238,-1304.44,532.35,-1593.51
15280,-3.8718,0.5972,0.1183,320.56,-155.09,-656.07
15290,-3.8717,0.5887,0.1125,445.56,-858.22,281.43
15300,-3.8717,0.5803,0.1053,-632.57,-1592.65,812.68
15310,-3.8717,0.5806,0.0906,-1710.69,1485.47,718.93
15320,-3.8718,0.5912,0.0654,-1679.44,-405.15,-156.13
15330,-3.8718,0.6061,0.0399,-320.07,376.10,-1593.63
15340,-3.8718,0.6158,0.0249,1586.18,1110.53,875.06
15350,-3.8719,0.6178,0.0181,-1163.82,-811.34,-250.00
15360,-3.8719,0.6193,0.0143,-913.82,-1686.34,-515.62
15370,-3.8718,0.6265,0.0143,-726.32,1829.28,140.62
15380,-3.8718,0.6372,0.0160,195.56,1829.35,1046.88
15390,-3.8718,0.6492,0.0150,1570.56,-1951.90,1578.12
15400,-3.8718,0.6626,0.0117,-898.19,1923.10,1671.88
15410,-3.8718,0.6758,0.0088,820.56,1501.28,1625.00
15420,-3.8718,0.6877,0.0079,-1491.94,1126.28,1546.88
15430,-3.8718,0.6965,0.0103,39.31,1016.97,1421.88
15440,-3.8718,0.6995,0.0161,1164.31,1313.84,1515.62
15450,-3.8718,0.6958,0.0208,1539.31,-1936.16,1953.12
15460,-3.8718,0.6912,0.0204,1070.56,-1342.41,-1531.25
15470,-3.8718,0.6909,0.0200,476.81,-1389.28,-1218.75
15480,-3.8718,0.6941,0.0215,445.56,-1436.16,-1328.12
15490,-3.8718,0.7008,0.0211,851.81,-1248.66,-1671.88
15500,-3.8718,0.7106,0.0195,1711.18,-1295.53,1796.88
15510,-3.8718,0.7196,0.0195,-1038.82,-1498.66,937.50
15520,-3.8718,0.7245,0.0208,117.43,-1498.60,171.88
15530,-3.8718,0.7235,0.0206,742.43,-1342.35,31.25
15540,-3.8718,0.7152,0.0205,617.43,-1357.97,640.62
15550,-3.8718,0.6980,0.0217,-445.07,-1373.66,1593.75
15560,-3.8718,0.6768,0.0223,1351.81,-1217.41,-1609.38
15570,-3.8718,0.6556,0.0203,-1366.94,-1139.34,-1093.75
15580,-3.8718,0.6373,0.0150,-70.07,-1405.03,-765.62
15590,-3.8718,0.6245,0.0096,1586.18,1923.10,-656.25
15600,-3.8718,0.6139,0.0072,-54.44,1235.53,-875.00
15610,-3.8718,0.6010,0.0088,-1413.82,923.03,-1250.00
15620,-3.8718,0.5853,0.0178,929.93,1126.16,-1031.25
15630,-3.8717,0.5720,0.0331,-1070.07,-1717.65,62.50
15640,-3.8717,0.5674,0.0431,1226.81,235.47,1187.56
15650,-3.8717,0.5710,0.0421,633.06,1516.72,1093.81
15660,-3.8718,0.5780,0.0315,1101.81,1391.72,-1171.81
15670,-3.8719,0.5859,0.0173,1992.43,32.35,-1468.69
15680,-3.8721,0.5973,0.0092,-991.94,-1780.15,1437.50
15690,-3.8722,0.6140,0.0143,461.18,1173.03,1046.88
15700,-3.8723,0.6356,0.0344,-1398.19,1829.28,-1453.12
15710,-3.8723,0.6620,0.0647,1367.43,407.47,-1624.94
15720,-3.8722,0.6936,0.1003,742.43,282.53,953.25
15730,-3.8721,0.7283,0.1384,789.31,845.09,1890.81
15740,-3.8719,0.7660,0.1749,1226.81,1720.15,-515.38
15750,-3.8717,0.8003,0.2106,-1945.07,-1607.91,812.81
15760,-3.8716,0.8162,0.2478,-1554.44,-1045.35,1484.74
15770,-3.8715,0.8062,0.2808,476.81,-279.66,875.43
15780,-3.8715,0.7771,0.2985,-804.44,-60.97,-874.51
15790,-3.8713,0.7408,0.3036,-523.19,-1795.41,1000.55
15800,-3.8713,0.7040,0.3059,-1163.82,-1139.22,-1327.58
15810,-3.8713,0.6742,0.3058,-1882.57,-842.41,-218.20
15820,-3.8712,0.6566,0.3005,-1695.07,-858.09,219.30
15830,-3.8713,0.6470,0.2924,54.93,-1529.97,-249.45
15840,-3.8713,0.6405,0.2839,-1179.44,1423.10,-1780.70
15850,-3.8713,0.6355,0.2782,1992.43,344.97,125.55
15860,-3.8715,0.6312,0.2756,1351.81,-389.40,1734.86
15870,-3.8716,0.6261,0.2748,804.93,-717.53,-858.89
15880,-3.8716,0.6202,0.2742,148.68,-826.90,797.36
15890,-3.8717,0.6151,0.2750,-601.32,-905.09,-890.14
15900,-3.8717,0.6093,0.2806,-1257.57,-795.72,-1577.64
15910,-3.8717,0.6014,0.2922,1992.43,-76.97,-1405.76
15920,-3.8717,0.5934,0.3071,992.43,1407.41,-1140.08
15930,-3.8717,0.5862,0.3186,-38.82,-686.40,-1186.95
15940,-3.8717,0.5775,0.3199,-960.69,782.35,-1421.26
15950,-3.8717,0.5632,0.3110,1929.93,954.22,-1499.39
15960,-3.8717,0.5414,0.2985,101.81,-186.40,-1155.70
15970,-3.8717,0.5155,0.2898,1304.93,-1795.84,-827.58
15980,-3.8717,0.4918,0.2898,1992.43,1094.73,-655.70
15990,-3.8717,0.4780,0.2981,-1038.82,1094.67,-593.20
16000,-3.8717,0.4825,0.3086,1195.56,-1842.83,-999.45
16010,-3.8717,0.5045,0.3159,1773.68,-499.08,1672.42
16020,-3.8718,0.5336,0.3252,586.18,438.48,-124.39
16030,-3.8718,0.5623,0.3397,304.93,1626.04,-1452.51
16040,-3.8718,0.5884,0.3518,-23.19,-514.59,1438.11
16050,-3.8718,0.6077,0.3561,-679.44,1032.35,125.67
16060,-3.8719,0.6151,0.3585,1789.31,1579.28,-1577.45
16070,-3.8719,0.6084,0.3604,-1257.57,1891.78,235.05
16080,-3.8721,0.5906,0.3564,1883.06,-1873.84,1953.80
16090,-3.8721,0.5636,0.3490,-398.19,1626.10,844.42
16100,-3.8721,0.5223,0.3451,148.68,672.97,1938.17
16110,-3.8719,0.4653,0.3467,-1132.57,172.85,1422.55
16120,-3.8718,0.3997,0.3505,-429.44,375.85,-1296.20
16130,-3.8716,0.3348,0.3513,-835.69,860.11,422.55
16140,-3.8715,0.2821,0.3455,-1132.57,969.36,1250.67
16150,-3.8715,0.2550,0.3290,117.43,219.30,-139.95
16160,-3.8715,0.2581,0.2991,648.68,-1890.14,-515.01
16170,-3.8715,0.2804,0.2625,1039.31,-1718.26,969.30
16180,-3.8716,0.3016,0.2301,-101.32,1594.24,1750.49
16190,-3.8717,0.3102,0.2065,-1382.57,1453.67,-905.82
16200,-3.8717,0.3071,0.1940,-288.82,-1561.95,1734.74
16210,-3.8717,0.2958,0.1960,-679.44,828.67,1547.24
16220,-3.8717,0.2811,0.2056,1867.43,1094.30,1719.12
16230,-3.8717,0.2704,0.2087,-7.57,-1687.01,1250.37
16240,-3.8718,0.2704,0.2012,-1382.57,-1280.76,-624.63
16250,-3.8719,0.2791,0.1818,-1382.57,1750.49,-296.51
16260,-3.8721,0.2892,0.1527,-273.19,-733.89,-437.19
16270,-3.8721,0.2971,0.1210,1023.68,-452.58,1484.62
16280,-3.8721,0.2848,0.0999,-1960.69,-515.08,-749.82
16290,-3.8718,0.2417,0.1041,461.18,781.80,1062.68
16300,-3.8716,0.1906,0.1284,-1054.44,1328.55,1281.43
16310,-3.8713,0.1588,0.1605,398.68,437.87,1937.74
16320,-3.8711,0.1608,0.1917,336.18,547.18,937.81
16330,-3.8710,0.1967,0.2104,586.18,531.56,594.12
16340,-3.8710,0.2532,0.2111,1179.93,-1062.13,562.87
16350,-3.8711,0.3088,0.1991,414.31,-983.89,1250.37
16360,-3.8712,0.3499,0.1852,-460.69,1484.92,156.62
16370,-3.8715,0.3795,0.1719,789.31,-296.20,-1234.07
16380,-3.8716,0.4049,0.1652,586.18,-1999.27,1812.81
16390,-3.8717,0.4258,0.1731,-163.82,1141.36,-1718.44
16400,-3.8717,0.4379,0.1904,-1491.94,-1842.96,890.93
16410,-3.8717,0.4382,0.2089,54.93,375.85,1719.12
16420,-3.8716,0.4261,0.2277,101.81,-1264.77,547.24
16430,-3.8715,0.4026,0.2488,-1445.07,1141.42,1125.43
16440,-3.8713,0.3737,0.2690,-460.69,-155.52,-1030.82
16450,-3.8711,0.3479,0.2810,-163.82,-1561.83,1172.36
16460,-3.8710,0.3263,0.2799,539.31,-30.58,-1280.76
16470,-3.8708,0.3019,0.2672,1773.68,-171.26,-608.89
16480,-3.8707,0.2684,0.2477,-1351.32,-1796.33,-937.01
16490,-3.8706,0.2290,0.2273,-1632.57,-296.39,1484.80
16500,-3.8706,0.1920,0.2094,1320.56,1094.18,-1124.57
16510,-3.8706,0.1635,0.1952,586.18,-1202.76,-530.88
16520,-3.8706,0.1449,0.1864,929.93,984.68,-140.26
16530,-3.8705,0.1370,0.1836,-1445.07,-140.38,94.06
16540,-3.8706,0.1396,0.1860,1539.31,-499.76,-77.82
16550,-3.8706,0.1533,0.1909,1883.06,-187.26,-530.94
16560,-3.8706,0.1796,0.1975,-366.94,437.74,-890.26
16570,-3.8706,0.2157,0.2103,-1007.57,1281.56,-843.38
16580,-3.8706,0.2479,0.2307,-382.57,-1077.76,-280.88
16590,-3.8705,0.2660,0.2563,-257.57,1531.68,703.55
16600,-3.8705,0.2719,0.2841,-1945.07,812.99,1734.86
16610,-3.8705,0.2727,0.3051,-1195.07,359.86,-1624.45
16620,-3.8705,0.2749,0.3120,-1085.69,-952.64,1922.42
16630,-3.8706,0.2823,0.3098,-804.44,-62.01,-140.08
16640,-3.8706,0.2948,0.3069,148.68,-343.20,500.55
16650,-3.8707,0.3092,0.3086,1742.43,-718.20,891.17
16660,-3.8708,0.3217,0.3180,-413.82,-499.45,-1874.45
16670,-3.8710,0.3318,0.3302,1179.93,703.74,-327.51
16680,-3.8710,0.3400,0.3385,-1523.19,-1733.76,984.99
16690,-3.8711,0.3446,0.3427,-476.32,-671.26,-1843.14
16700,-3.8712,0.3463,0.3470,117.43,-139.95,-608.76
16710,-3.8712,0.3446,0.3551,336.18,422.55,1203.80
16720,-3.8712,0.3387,0.3618,117.43,1453.80,125.67
16730,-3.8713,0.3311,0.3612,-632.57,-1686.89,-218.08
16740,-3.8713,0.3242,0.3542,-1616.94,-1765.01,-780.58
16750,-3.8713,0.3199,0.3466,1508.06,1344.36,-1905.58
16760,-3.8713,0.3182,0.3395,961.18,359.99,281.92
16770,-3.8715,0.3207,0.3336,742.43,-546.26,-1921.26
16780,-3.8716,0.3293,0.3292,1054.93,-1296.26,-140.01
16790,-3.8716,0.3446,0.3229,-1835.69,-1858.76,1406.86
16800,-3.8717,0.3673,0.3135,117.43,1328.80,-1640.01
16810,-3.8718,0.3926,0.3053,-976.32,125.67,-843.14
16820,-3.8718,0.4124,0.3016,-1741.94,-921.14,609.92
16830,-3.8719,0.4253,0.3019,789.31,-1389.83,-999.45
16840,-3.8719,0.4348,0.3008,-1554.44,-1358.58,-1999.45
16850,-3.8719,0.4409,0.2942,-335.69,-1499.21,1281.80
16860,-3.8719,0.4432,0.2899,445.56,1657.10,1297.42
16870,-3.8719,0.4468,0.2976,742.43,1110.23,-1468.20
16880,-3.8718,0.4548,0.3145,1195.56,-1905.40,656.80
16890,-3.8718,0.4667,0.3275,-1773.19,250.85,-999.39
16900,-3.8717,0.4835,0.3287,-257.57,1922.73,859.99
16910,-3.8717,0.5012,0.3174,1898.68,-1920.96,1406.86
16920,-3.8717,0.5110,0.2975,164.31,625.98,344.36
16930,-3.8718,0.5114,0.2703,1414.31,-1920.90,-1936.95
16940,-3.8719,0.5111,0.2419,1461.18,-1405.27,-15.14
16950,-3.8719,0.5123,0.2244,1429.93,-1030.27,-718.32
16960,-3.8719,0.5090,0.2196,1586.18,719.73,-452.70
16970,-3.8718,0.5020,0.2234,1164.31,110.35,391.05
16980,-3.8718,0.4985,0.2300,258.06,594.73,1781.68
16990,-3.8718,0.5084,0.2330,-179.44,1438.42,-1108.95
17000,-3.8718,0.5365,0.2283,1086.18,1829.10,-1093.32
17010,-3.8718,0.5789,0.2280,679.93,1219.79,1922.30
17020,-3.8718,0.6118,0.2384,-1898.19,1188.60,281.68
17030,-3.8719,0.6146,0.2242,-1679.44,-1483.22,-1718.32
17040,-3.8719,0.6029,0.1995,-1320.07,704.28,1672.30
17050,-3.8719,0.5863,0.2030,1179.93,1532.41,-1577.76
17060,-3.8719,0.5586,0.2233,-945.07,1985.47,-1030.88
17070,-3.8719,0.5276,0.2473,-491.94,579.16,-124.57
17080,-3.8718,0.5079,0.2694,-460.69,-342.77,1562.93
17090,-3.8718,0.5087,0.2863,1023.68,-1514.65,-608.89
17100,-3.8717,0.5253,0.2950,1117.43,641.60,984.92
17110,-3.8717,0.5487,0.2954,-757.57,1766.60,-1936.95
17120,-3.8717,0.5759,0.2867,-1757.57,1813.54,1844.30
17130,-3.8717,0.6042,0.2709,1726.81,704.22,344.30
17140,-3.8718,0.6263,0.2500,1351.81,-1326.97,-1937.01
17150,-3.8719,0.6365,0.2229,179.93,1.22,-937.01
17160,-3.8721,0.6350,0.1876,1476.81,532.47,-233.95
17170,-3.8721,0.6281,0.1495,1289.31,16.85,734.74
17180,-3.8722,0.6221,0.1178,398.68,-858.15,-1921.63
17190,-3.8723,0.6219,0.0923,-366.94,-920.72,-93.57
17200,-3.8723,0.6251,0.0735,-382.57,-186.34,-1109.25
17210,-3.8723,0.6241,0.0664,23.68,1407.47,-453.00
17220,-3.8722,0.6166,0.0665,-101.32,501.16,1406.37
17230,-3.8722,0.6061,0.0653,-1070.07,516.78,-374.88
17240,-3.8721,0.6023,0.0609,1586.18,360.53,1703.25
17250,-3.8721,0.6104,0.0571,1101.81,-201.97,-124.94
17260,-3.8719,0.6226,0.0573,-1866.94,-686.34,1921.94
17270,-3.8719,0.6359,0.0552,-304.44,-670.72,-953.06
17280,-3.8719,0.6533,0.0452,1398.68,-936.28,-421.81
17290,-3.8718,0.6707,0.0309,-366.94,1782.47,109.44
17300,-3.8718,0.6843,0.0179,1851.81,-45.59,546.88
17310,-3.8718,0.6947,0.0100,-398.19,-1701.84,1093.75
17320,-3.8718,0.6996,0.0059,929.93,1282.59,-1921.88
17330,-3.8718,0.6989,-0.0007,1554.93,751.34,-765.62
17340,-3.8718,0.6997,-0.0131,1461.18,-92.41,-46.94
17350,-3.8717,0.7057,-0.0273,1570.56,-1670.53,62.44
17360,-3.8718,0.7133,-0.0403,-1663.82,501.34,-406.31
17370,-3.8718,0.7201,-0.0541,-695.07,-1154.91,-1172.00
17380,-3.8718,0.7266,-0.0681,179.93,1079.53,-1875.12
17390,-3.8718,0.7329,-0.0780,1008.06,-717.35,1890.44
17400,-3.8718,0.7367,-0.0800,1820.56,-1982.97,-1734.56
17410,-3.8718,0.7350,-0.0779,-1695.07,1767.03,-1031.43
17420,-3.8718,0.7307,-0.0765,-1913.82,-1967.35,-31.43
17430,-3.8717,0.7324,-0.0781,1539.31,-1795.47,734.19
17440,-3.8717,0.7418,-0.0844,1758.06,-1998.60,468.57
17450,-3.8718,0.7568,-0.0931,-1038.82,1204.53,-718.93
17460,-3.8718,0.7745,-0.1021,883.06,79.59,1624.82
17470,-3.8718,0.7861,-0.1079,-851.32,-1061.04,406.01
17480,-3.8718,0.7816,-0.1055,633.06,-1810.97,437.26
17490,-3.8718,0.7562,-0.0986,54.93,-1498.47,1031.01
17500,-3.8718,0.7181,-0.0961,804.93,-623.54,1359.13
17510,-3.8718,0.6837,-0.0970,-70.07,-295.53,1999.76
17520,-3.8718,0.6587,-0.0978,-476.32,-420.59,-812.74
17530,-3.8717,0.6381,-0.0997,320.56,-514.34,140.38
17540,-3.8717,0.6198,-0.1030,1679.93,-764.40,437.26
17550,-3.8717,0.6040,-0.1047,-663.82,-1186.34,343.51
17560,-3.8717,0.5909,-0.1046,1320.56,-1405.09,187.26
17570,-3.8717,0.5841,-0.1021,-351.32,-1389.53,15.38
17580,-3.8718,0.5851,-0.0956,-1226.32,-1061.40,-156.49
17590,-3.8718,0.5927,-0.0847,-1101.32,-233.28,-562.74
17600,-3.8718,0.6055,-0.0685,-132.57,1157.35,-1078.31
17610,-3.8718,0.6211,-0.0477,1508.06,-764.47,-1562.68
17620,-3.8718,0.6382,-0.0293,-491.94,1891.78,1359.25
17630,-3.8719,0.6572,-0.0175,1695.56,251.22,-593.81
17640,-3.8719,0.6752,-0.0106,133.06,1766.91,1093.69
17650,-3.8721,0.6837,-0.0040,-1570.07,-1358.09,-453.19
17660,-3.8721,0.6741,0.0038,-476.32,-514.34,-843.81
17670,-3.8721,0.6498,0.0117,-1710.69,485.66,-125.00
17680,-3.8719,0.6204,0.0222,-820.07,1501.22,1359.38
17690,-3.8719,0.5919,0.0299,-585.69,-1155.09,-968.75
17700,-3.8718,0.5706,0.0314,-226.32,-170.78,687.50
17710,-3.8718,0.5604,0.0326,1039.31,16.72,-1859.31
17720,-3.8718,0.5641,0.0409,-257.57,172.91,-656.19
17730,-3.8717,0.5803,0.0570,211.18,1235.47,609.44
17740,-3.8717,0.6001,0.0790,-1710.69,-702.03,-1234.31
17750,-3.8716,0.6108,0.1035,820.56,-1889.47,-1734.25
17760,-3.8715,0.6010,0.1235,-1804.44,1251.16,-1734.19
17770,-3.8713,0.5703,0.1348,929.93,-186.34,1531.43
17780,-3.8713,0.5322,0.1350,1008.06,1251.10,-781.01
17790,-3.8713,0.5035,0.1256,133.06,1282.29,-827.88
17800,-3.8713,0.4989,0.1143,461.18,79.10,1734.62
17810,-3.8715,0.5242,0.1089,-132.57,-1374.08,-874.82
17820,-3.8716,0.5697,0.1107,-898.19,1938.48,-249.82
17830,-3.8716,0.6228,0.1191,929.93,-1827.03,625.18
17840,-3.8717,0.6748,0.1384,-273.19,-748.84,-1156.07
17850,-3.8717,0.7151,0.1704,-1616.94,1720.03,-937.26
17860,-3.8716,0.7321,0.2084,-460.69,1813.84,828.43
17870,-3.8716,0.7207,0.2424,1711.18,-1326.72,-1015.26
17880,-3.8715,0.6915,0.2625,258.06,-967.35,406.68
17890,-3.8715,0.6619,0.2629,523.68,1595.09,219.24
17900,-3.8716,0.6443,0.2448,726.81,1657.53,-1749.51
17910,-3.8717,0.6445,0.2146,-1523.19,-670.65,-1015.20
17920,-3.8718,0.6608,0.1899,-1491.94,-530.03,-702.76
17930,-3.8718,0.6877,0.1885,586.18,313.78,172.24
17940,-3.8719,0.7211,0.2091,39.31,126.34,-1671.51
17950,-3.8719,0.7468,0.2456,304.93,-1232.97,-937.13
17960,-3.8718,0.7422,0.2985,-398.19,-561.10,-733.95
17970,-3.8716,0.6990,0.3608,-991.94,-1795.47,1656.80
17980,-3.8713,0.6263,0.4131,1476.81,-1811.16,656.92
17990,-3.8712,0.5394,0.4419,179.93,876.22,-577.33
18000,-3.8710,0.4578,0.4470,1054.93,563.54,94.60
18010,-3.8710,0.4003,0.4314,-1398.19,1219.60,860.23
18020,-3.8711,0.3774,0.4055,-757.57,-780.52,1844.54
18030,-3.8713,0.3867,0.3804,320.56,-93.02,-61.77
18040,-3.8715,0.4133,0.3673,1508.06,688.23,1281.98
18050,-3.8716,0.4386,0.3756,914.31,-983.58,500.67
18060,-3.8717,0.4424,0.3960,148.68,78.98,-1452.39
18070,-3.8717,0.4142,0.4094,633.06,-1311.65,-1030.52
18080,-3.8716,0.3640,0.4089,1023.68,407.04,563.29
18090,-3.8716,0.3057,0.3934,-1398.19,344.42,1797.67
18100,-3.8716,0.2472,0.3708,-866.94,-1640.08,1922.61
18110,-3.8716,0.2015,0.3512,-351.32,-530.82,625.67
18120,-3.8717,0.1823,0.3203,1804.93,953.49,1266.30
18130,-3.8719,0.1934,0.2728,-663.82,1000.31,-30.64
18140,-3.8721,0.2272,0.2325,758.06,-1077.76,-1749.51
18150,-3.8722,0.2649,0.2172,1086.18,1766.05,1937.93
18160,-3.8722,0.2913,0.2214,1914.31,-202.64,719.12
18170,-3.8722,0.2968,0.2394,1289.31,344.30,-46.45
18180,-3.8719,0.2793,0.2776,1992.43,-1358.83,-405.82
18190,-3.8716,0.2469,0.3246,-241.94,-468.26,1703.61
18200,-3.8712,0.2076,0.3584,-382.57,1547.30,375.61
18210,-3.8710,0.1709,0.3673,-1413.82,1875.37,1797.55
18220,-3.8708,0.1545,0.3506,1883.06,-984.07,-999.33
18230,-3.8708,0.1627,0.3105,-210.69,875.24,-1327.45
18240,-3.8710,0.1781,0.2593,836.18,-249.69,-1546.33
18250,-3.8711,0.1863,0.2207,-1195.07,1187.81,719.24
18260,-3.8712,0.1875,0.2062,-148.19,250.31,0.43
18270,-3.8713,0.1808,0.2157,8.06,-1609.01,-1077.76
18280,-3.8712,0.1584,0.2429,-851.32,-390.32,-1734.01
18290,-3.8710,0.1237,0.2794,289.31,-905.94,500.43
18300,-3.8708,0.0969,0.3151,-163.82,-234.19,-765.14
18310,-3.8706,0.0920,0.3386,414.31,328.31,797.49
18320,-3.8706,0.1001,0.3463,-210.69,-656.13,-202.51
18330,-3.8706,0.1072,0.3400,820.56,328.31,-905.58
18340,-3.8707,0.1061,0.3235,1726.81,-484.19,-608.76
18350,-3.8708,0.0928,0.3062,1586.18,1406.43,-1436.89
18360,-3.8710,0.0664,0.2926,-116.94,-812.38,-1749.45
18370,-3.8711,0.0300,0.2809,508.06,1453.25,-15.08
18380,-3.8710,-0.0128,0.2728,-148.19,-46.88,266.11
18390,-3.8710,-0.0565,0.2688,-1632.57,-1062.56,-1593.26
18400,-3.8708,-0.0886,0.2732,773.68,-1578.25,-1874.51
18410,-3.8707,-0.1033,0.2843,664.31,-1015.81,-1155.76
18420,-3.8706,-0.1089,0.2833,-1210.69,406.01,-1093.20
18430,-3.8705,-0.1110,0.2637,-1929.44,281.01,1203.67
18440,-3.8705,-0.1105,0.2355,1804.93,1765.38,1609.86
18450,-3.8705,-0.1115,0.2065,1867.43,-1843.99,203.55
18460,-3.8706,-0.1174,0.1830,1742.43,-1547.12,1609.74
18470,-3.8707,-0.1237,0.1647,976.81,-562.74,-1155.94
18480,-3.8707,-0.1219,0.1501,179.93,1093.51,406.56
18490,-3.8708,-0.1074,0.1428,398.68,-765.87,-1702.88
18500,-3.8708,-0.0773,0.1470,-1741.94,-1703.37,812.74
18510,-3.8708,-0.0322,0.1611,-1882.57,-1172.06,47.12
18520,-3.8710,0.0233,0.1781,-116.94,640.50,-484.07
18530,-3.8710,0.0808,0.1980,-1007.57,-1203.12,-1015.32
18540,-3.8710,0.1337,0.2213,-1648.19,1343.87,-1421.51
18550,-3.8710,0.1785,0.2415,1117.43,328.37,-1437.07
18560,-3.8710,0.2103,0.2570,-1148.19,-1093.44,-1233.95
18570,-3.8710,0.2266,0.2670,-1070.07,890.99,-1171.39
18580,-3.8710,0.2306,0.2737,1008.06,-1827.70,-1124.51
18590,-3.8710,0.2294,0.2815,1523.68,-968.32,-1093.26
18600,-3.8710,0.2299,0.2847,1367.43,31.68,-1093.20
18610,-3.8710,0.2419,0.2836,1429.93,437.93,-780.70
18620,-3.8710,0.2654,0.2820,-1023.19,297.30,-452.58
18630,-3.8710,0.2897,0.2738,1976.81,94.24,-983.83
18640,-3.8710,0.3125,0.2627,1086.18,-952.58,1984.86
18650,-3.8710,0.3325,0.2578,8.06,1625.61,1219.24
18660,-3.8710,0.3466,0.2609,-1429.44,1000.61,625.49
18670,-3.8710,0.3573,0.2681,367.43,1391.30,109.86
18680,-3.8711,0.3667,0.2747,1742.43,-1686.83,-468.26
18690,-3.8711,0.3759,0.2786,-1054.44,-843.08,-1718.26
18700,-3.8712,0.3875,0.2805,117.43,-343.02,-77.64
18710,-3.8712,0.4045,0.2817,1601.81,-93.02,609.86
18720,-3.8713,0.4255,0.2808,-210.69,63.23,625.55
18730,-3.8715,0.4429,0.2759,-1523.19,-61.71,750.49
18740,-3.8716,0.4497,0.2700,695.56,-686.65,-1624.51
18750,-3.8716,0.4480,0.2704,1570.56,-1436.65,1922.36
18760,-3.8716,0.4429,0.2780,1351.81,-1389.77,-1421.39
18770,-3.8716,0.4338,0.2881,695.56,-421.02,-890.14
18780,-3.8716,0.4235,0.2954,-460.69,875.79,-1624.45
18790,-3.8717,0.4183,0.2986,-1788.82,1813.29,-280.70
18800,-3.8718,0.4203,0.3016,1554.93,-1780.46,-327.58
18810,-3.8719,0.4277,0.3066,1804.93,-1389.83,-718.20
18820,-3.8721,0.4406,0.3112,-1241.94,-749.21,-561.95
18830,-3.8721,0.4604,0.3113,398.68,-171.02,781.80
18840,-3.8722,0.4861,0.2925,-1054.44,-155.40,-280.70
18850,-3.8722,0.5067,0.2581,-1773.19,1438.42,-233.83
18860,-3.8721,0.5122,0.2369,867.43,1032.23,641.11
18870,-3.8721,0.4966,0.2329,1570.56,-1670.90,-1624.57
18880,-3.8719,0.4563,0.2363,-429.44,1813.42,984.80
18890,-3.8718,0.3973,0.2404,-1585.69,-1749.15,500.43
18900,-3.8717,0.3313,0.2434,-1132.57,-1233.64,859.80
18910,-3.8716,0.2717,0.2509,-1585.69,-843.14,1781.68
18920,-3.8715,0.2291,0.2633,-1210.69,109.86,-1374.51
18930,-3.8713,0.2014,0.2737,1336.18,1703.55,-874.51
18940,-3.8712,0.1842,0.2739,1789.31,-968.38,-1140.14
18950,-3.8711,0.1781,0.2635,-413.82,-937.19,1453.61
18960,-3.8711,0.1783,0.2520,-1195.07,1734.68,-765.14
18970,-3.8710,0.1809,0.2455,-1163.82,250.31,312.99
18980,-3.8710,0.1873,0.2430,-835.69,-577.82,484.80
18990,-3.8711,0.1975,0.2419,-23.19,-890.32,-15.20
19000,-3.8711,0.2106,0.2426,1289.31,-1030.88,-593.32
19010,-3.8711,0.2283,0.2472,-1038.82,-952.76,-1077.70
19020,-3.8711,0.2505,0.2576,1226.81,-358.95,-1358.95
19030,-3.8711,0.2753,0.2678,70.56,969.24,-1765.14
19040,-3.8711,0.3022,0.2679,-757.57,-1718.26,1109.86
19050,-3.8712,0.3293,0.2622,-1304.44,-1702.58,-249.51
19060,-3.8712,0.3550,0.2596,-1835.69,1563.11,-1405.76
19070,-3.8712,0.3800,0.2599,1445.56,1235.05,1750.49
19080,-3.8712,0.4062,0.2677,648.68,1266.36,1547.36
19090,-3.8712,0.4326,0.2808,8.06,-1733.58,1625.49
19100,-3.8712,0.4548,0.2888,-616.94,-61.71,1328.61
19110,-3.8712,0.4727,0.2987,-1773.19,969.60,750.55
19120,-3.8713,0.4921,0.3188,508.06,-1764.71,-15.08
19130,-3.8713,0.5198,0.3445,-1007.57,813.42,-436.89
19140,-3.8712,0.5552,0.3660,-1460.69,94.73,16.30
19150,-3.8712,0.5963,0.3683,-929.44,-1155.21,406.92
19160,-3.8713,0.6382,0.3445,336.18,-858.22,-780.58
19170,-3.8713,0.6711,0.3048,1695.56,94.97,406.92
19180,-3.8715,0.6898,0.2631,1914.31,-983.09,1094.30
19190,-3.8716,0.6954,0.2262,304.93,1673.22,-1733.89
19200,-3.8716,0.6963,0.1930,1023.68,954.47,609.80
19210,-3.8716,0.7021,0.1635,1133.06,704.47,15.99
19220,-3.8717,0.7157,0.1401,1883.06,923.22,-249.69
19230,-3.8717,0.7314,0.1179,-382.57,1938.84,-687.26
19240,-3.8717,0.7432,0.0919,1633.06,-904.85,-1421.69
19250,-3.8717,0.7544,0.0651,-866.94,-232.97,1765.75
19260,-3.8717,0.7660,0.0419,570.56,329.59,1250.12
19270,-3.8717,0.7738,0.0240,-1945.07,1360.84,718.81
19280,-3.8718,0.7770,0.0052,-945.07,-920.41,-437.50
19290,-3.8718,0.7778,-0.0203,-538.82,673.34,-1781.25
19300,-3.8718,0.7811,-0.0422,-429.44,1407.71,1484.31
19310,-3.8718,0.7859,-0.0518,-7.57,-1404.79,1140.50
19320,-3.8718,0.7896,-0.0509,601.81,1376.53,671.75
19330,-3.8718,0.7931,-0.0457,1070.56,1485.90,15.50
19340,-3.8719,0.7976,-0.0370,1523.68,-1842.22,-578.25
19350,-3.8719,0.8021,-0.0244,-1898.19,-732.85,-1218.87
19360,-3.8719,0.8049,-0.0131,-1320.07,876.53,1562.44
19370,-3.8721,0.8086,-0.0054,-960.69,-1670.35,-453.19
19380,-3.8721,0.8126,-0.0011,-491.94,-685.97,1156.19
19390,-3.8722,0.8132,0.0015,23.68,-139.04,-828.19
19400,-3.8722,0.8102,0.0107,101.81,189.09,-1859.38
19410,-3.8722,0.8033,0.0316,-288.82,1376.53,-1921.88
19420,-3.8722,0.7887,0.0564,-1163.82,48.40,-1328.06
19430,-3.8722,0.7662,0.0741,961.18,-779.72,-156.19
19440,-3.8721,0.7389,0.0809,-1913.82,1485.84,1375.12
19450,-3.8721,0.7065,0.0819,-1413.82,-1639.22,-1374.88
19460,-3.8721,0.6727,0.0802,-1554.44,-1514.28,-968.63
19470,-3.8721,0.6422,0.0737,-1882.57,-1733.09,-984.25
19480,-3.8721,0.6171,0.0630,-1788.82,1438.72,-1062.38
19490,-3.8721,0.6007,0.0541,-1007.57,63.66,-1406.13
19500,-3.8721,0.5956,0.0535,898.68,-1076.97,-1843.69
19510,-3.8721,0.5973,0.0613,242.43,-1155.09,-1749.94
19520,-3.8721,0.5988,0.0717,461.18,-155.09,-765.56
19530,-3.8719,0.5984,0.0818,648.68,1173.03,531.37
19540,-3.8719,0.5979,0.0922,601.81,-1530.09,1609.50
19550,-3.8719,0.6000,0.1022,539.31,-201.97,-1749.88
19560,-3.8719,0.6063,0.1108,804.93,1079.28,-1577.94
19570,-3.8719,0.6158,0.1177,1617.43,-1811.34,-1984.19
19580,-3.8719,0.6250,0.1212,-1163.82,-936.34,1390.81
19590,-3.8719,0.6281,0.1266,8.06,-483.15,1640.81
19600,-3.8719,0.6210,0.1416,398.68,204.35,-593.51
19610,-3.8718,0.6089,0.1663,-507.57,-1873.84,-1406.01
19620,-3.8717,0.5947,0.1957,1945.56,1282.41,-1296.57
19630,-3.8716,0.5752,0.2244,133.06,1048.03,-1234.01
19640,-3.8715,0.5532,0.2501,1633.06,719.85,1687.93
19650,-3.8715,0.5350,0.2720,-1179.44,16.66,-749.51
19660,-3.8713,0.5226,0.2886,492.43,-1186.46,266.11
19670,-3.8713,0.5121,0.3003,-1101.32,938.48,1750.55
19680,-3.8712,0.4958,0.3063,1554.93,-1561.52,219.30
19690,-3.8712,0.4668,0.3074,-523.19,-795.96,-530.70
19700,-3.8711,0.4263,0.2986,-241.94,-655.40,-1218.20
19710,-3.8710,0.3867,0.2896,-1429.44,-1780.46,1547.42
19720,-3.8710,0.3577,0.2935,1508.06,1063.23,-733.83
19730,-3.8710,0.3416,0.3032,1789.31,1563.17,-577.58
19740,-3.8710,0.3459,0.3157,-273.19,-1186.89,-1577.58
19750,-3.8710,0.3813,0.3361,289.31,406.92,766.24
19760,-3.8711,0.4523,0.3734,820.56,-983.64,-1218.14
19770,-3.8711,0.5414,0.4281,1898.68,-202.27,1219.42
19780,-3.8711,0.6189,0.4895,1304.93,-1202.09,516.42
19790,-3.8711,0.6697,0.5448,-773.19,-1342.59,391.54
19800,-3.8711,0.6930,0.5864,1726.81,1735.66,844.79
19810,-3.8711,0.6901,0.6040,711.18,-936.16,1094.85
19820,-3.8711,0.6641,0.5956,336.18,1313.84,1.16
19830,-3.8712,0.6210,0.5745,1008.06,235.66,1532.41
19840,-3.8713,0.5717,0.5483,-507.57,1532.41,1626.10
19850,-3.8715,0.5259,0.5204,1179.93,-1811.40,735.41
19860,-3.8716,0.4880,0.4968,-679.44,-1389.65,297.85
19870,-3.8717,0.4601,0.4836,-1523.19,-405.33,1063.42
19880,-3.8718,0.4365,0.4806,-1101.32,1907.10,-717.83
19890,-3.8718,0.4105,0.4824,-116.94,1516.42,-920.96
19900,-3.8717,0.3815,0.4844,554.93,1750.79,125.92
19910,-3.8717,0.3561,0.4869,836.18,-1999.27,1813.42
19920,-3.8717,0.3462,0.4921,1586.18,-1671.20,-327.21
19930,-3.8716,0.3551,0.4971,320.56,-1014.95,797.79
19940,-3.8716,0.3733,0.4954,1461.18,-374.33,266.54
19950,-3.8717,0.3857,0.4821,-210.69,-593.08,-1545.96
19960,-3.8717,0.3781,0.4584,1383.06,1703.86,750.92
19970,-3.8717,0.3444,0.4324,398.68,-1327.39,125.85
19980,-3.8717,0.2872,0.4041,86.18,-655.58,485.17
19990,-3.8717,0.2194,0.3732,773.68,-280.70,1922.61
20000,-3.8716,0.1598,0.3524,86.18,-233.95,438.17
20010,-3.8716,0.1213,0.3445,461.18,1109.68,-1280.58
20020,-3.8716,0.1077,0.3379,-460.69,93.93,-593.08
20030,-3.8716,0.1207,0.3256,1789.31,-749.82,-1249.39
20040,-3.8716,0.1639,0.3143,-538.82,1672.06,1875.61
20050,-3.8716,0.2258,0.3127,992.43,234.68,1953.74
20060,-3.8716,0.2770,0.3230,914.31,31.68,-30.64
20070,-3.8713,0.2942,0.3463,-538.82,1344.24,672.49
20080,-3.8712,0.2709,0.3801,1664.31,328.67,-124.33
20090,-3.8708,0.2186,0.4136,-1320.07,656.74,219.48
20100,-3.8707,0.1611,0.4391,-7.57,937.87,-30.46
20110,-3.8705,0.1138,0.4519,633.06,203.43,860.23
20120,-3.8705,0.0846,0.4447,-1429.44,1843.93,1547.73
20130,-3.8706,0.0748,0.4138,-1163.82,922.00,-1124.15
20140,-3.8707,0.0754,0.3698,1586.18,968.87,-1264.83
20150,-3.8708,0.0764,0.3347,1664.31,-671.75,-999.33
20160,-3.8708,0.0710,0.3214,1789.31,-1156.13,391.24
20170,-3.8710,0.0602,0.3248,1101.81,1140.75,-1374.39
20180,-3.8710,0.0502,0.3295,-288.82,1578.19,1078.74
20190,-3.8711,0.0438,0.3221,-1570.07,-1828.06,-515.01
20200,-3.8711,0.0378,0.3010,1617.43,1234.44,1984.99
20210,-3.8711,0.0245,0.2775,851.81,-1468.69,953.67
20220,-3.8711,0.0015,0.2593,-851.32,-484.38,141.11
20230,-3.8712,-0.0227,0.2415,195.56,1187.50,-593.26
20240,-3.8712,-0.0425,0.2241,1101.81,-1078.19,-1124.57
20250,-3.8712,-0.0601,0.2140,-1429.44,703.00,-1702.70
20260,-3.8712,-0.0760,0.2084,320.56,-593.87,1625.37
20270,-3.8712,-0.0908,0.2045,-1726.32,-1312.68,1328.49
20280,-3.8712,-0.1038,0.2067,383.06,-1812.68,1687.87
20290,-3.8712,-0.1123,0.2178,-1273.19,-1531.49,-1234.01
20300,-3.8711,-0.1157,0.2352,1633.06,-109.62,703.49
20310,-3.8711,-0.1134,0.2510,1195.56,-1875.24,-1187.07
20320,-3.8711,-0.1046,0.2559,1492.43,140.38,-15.14
20330,-3.8710,-0.0886,0.2479,-1382.57,765.38,0.49
20340,-3.8711,-0.0647,0.2383,664.31,-250.18,-577.70
20350,-3.8711,-0.0397,0.2390,-273.19,-1484.56,-1655.82
20360,-3.8711,-0.0210,0.2539,-1070.07,-1390.75,891.05
20370,-3.8711,-0.0121,0.2832,1320.56,515.56,172.36
20380,-3.8711,-0.0103,0.3228,-1538.82,265.56,672.42
20390,-3.8711,-0.0061,0.3665,-1304.44,1328.06,1547.49
20400,-3.8711,0.0029,0.4070,-773.19,-1078.19,-1811.83
20410,-3.8711,0.0133,0.4368,383.06,93.75,-1514.83
20420,-3.8711,0.0262,0.4557,1711.18,-93.75,1953.92
20430,-3.8711,0.0450,0.4705,-632.57,-1671.88,422.73
20440,-3.8712,0.0718,0.4844,1773.68,218.81,-1311.58
20450,-3.8712,0.1035,0.4944,1195.56,-1999.88,1438.42
20460,-3.8712,0.1322,0.4990,1258.06,-718.57,1079.04
20470,-3.8712,0.1536,0.5020,929.93,-124.76,1469.67
20480,-3.8712,0.1752,0.5089,-335.69,250.24,-1733.40
20490,-3.8712,0.1968,0.5195,-1570.07,1140.93,-905.27
20500,-3.8712,0.2106,0.5281,1195.56,-1499.63,-311.52
20510,-3.8712,0.2136,0.5288,-1038.82,-405.88,-170.90
20520,-3.8712,0.2117,0.5245,-648.19,-312.13,-483.40
20530,-3.8712,0.2136,0.5222,-898.19,-859.01,-1014.65
20540,-3.8712,0.2274,0.5222,-648.19,-1155.88,-1499.02
20550,-3.8712,0.2559,0.5216,1117.43,-1155.82,-1999.02
20560,-3.8712,0.2921,0.5188,758.06,-1233.89,1094.73
20570,-3.8713,0.3313,0.5156,1398.68,-1593.20,-280.27
20580,-3.8713,0.3722,0.5143,-1585.69,-1999.39,-1733.40
20590,-3.8713,0.4105,0.5118,-351.32,1828.80,1141.60
20600,-3.8713,0.4451,0.5040,554.93,1516.42,157.23
20610,-3.8715,0.4763,0.4941,976.81,516.48,-702.15
20620,-3.8715,0.5023,0.4856,976.81,-749.08,-1358.46
20630,-3.8715,0.5188,0.4746,304.93,-1842.77,-1999.08
20640,-3.8715,0.5240,0.4633,-1585.69,750.98,1704.04
20650,-3.8715,0.5221,0.4573,-913.82,-702.15,1938.35
20660,-3.8715,0.5154,0.4553,-1163.82,-1467.77,-1342.90
20670,-3.8715,0.5057,0.4501,1976.81,-1717.77,-483.52
20680,-3.8715,0.4962,0.4407,742.43,1610.35,-249.15
20690,-3.8715,0.4943,0.4315,-476.32,407.17,-1077.27
20700,-3.8715,0.5071,0.4259,-726.32,-764.71,1625.79
20710,-3.8715,0.5354,0.4276,914.31,-1483.40,750.79
20720,-3.8715,0.5728,0.4369,539.31,-1264.59,922.67
20730,-3.8715,0.6066,0.4445,1320.56,-77.03,1750.79
20740,-3.8715,0.6320,0.4442,1648.68,891.78,-1530.40
20750,-3.8715,0.6489,0.4453,898.68,860.60,-1108.52
20760,-3.8715,0.6575,0.4491,-929.44,1001.22,-1249.15
20770,-3.8715,0.6586,0.4460,164.31,1485.66,-1936.65
20780,-3.8715,0.6541,0.4374,304.93,1095.03,1094.60
20790,-3.8716,0.6476,0.4257,-273.19,-14.40,-186.71
20800,-3.8716,0.6415,0.4144,-1101.32,-1514.40,-1483.58
20810,-3.8716,0.6359,0.4091,-1882.57,1048.10,1500.79
20820,-3.8716,0.6331,0.4076,1398.68,360.60,828.92
20830,-3.8716,0.6323,0.4044,1039.31,173.10,422.67
20840,-3.8717,0.6287,0.3960,945.56,-233.15,-233.64
20850,-3.8717,0.6248,0.3843,476.81,-1311.28,-1218.02
20860,-3.8717,0.6307,0.3738,-23.19,1188.66,1672.61
20870,-3.8717,0.6520,0.3691,742.43,-155.03,813.17
20880,-3.8717,0.6768,0.3717,-538.82,-748.78,766.30
20890,-3.8717,0.6860,0.3716,-1366.94,-420.59,1781.92
20900,-3.8717,0.6725,0.3588,-179.44,-436.22,-374.33
20910,-3.8716,0.6381,0.3274,-1913.82,1923.16,906.92
20920,-3.8716,0.5917,0.2793,1679.93,1907.47,234.99
20930,-3.8717,0.5454,0.2253,-257.57,-248.90,1531.74
20940,-3.8718,0.5092,0.1749,1820.56,844.79,1703.55
20950,-3.8719,0.4868,0.1317,1179.93,-1608.40,1844.06
20960,-3.8721,0.4801,0.0995,-1679.44,860.29,-952.88
20970,-3.8721,0.4894,0.0792,1461.18,735.29,1922.06
20980,-3.8721,0.5112,0.0649,-1351.32,-1858.46,-1999.88
20990,-3.8721,0.5411,0.0525,1445.56,313.48,-1609.25
21000,-3.8721,0.5765,0.0420,1273.68,-1280.21,-1374.94
21010,-3.8721,0.6141,0.0366,1804.93,1376.10,-1140.56
21020,-3.8721,0.6470,0.0355,-1382.57,688.66,-484.31
21030,-3.8719,0.6689,0.0394,-1179.44,548.10,1015.69
21040,-3.8719,0.6838,0.0497,1633.06,1048.16,-640.56
21050,-3.8718,0.6993,0.0596,-460.69,-1639.34,1687.56
21060,-3.8718,0.7169,0.0610,1523.68,-373.66,-562.44
21070,-3.8717,0.7322,0.0496,-226.32,-186.16,359.44
21080,-3.8717,0.7406,0.0303,1726.81,-1654.85,156.31
21090,-3.8718,0.7444,0.0123,-1195.07,-123.60,-1156.25
21100,-3.8718,0.7509,0.0033,-710.69,1579.53,1156.25
21110,-3.8719,0.7616,-0.0027,117.43,423.34,-562.50
21120,-3.8719,0.7704,-0.0233,1492.43,-342.29,1453.06
21130,-3.8721,0.7744,-0.0558,-1382.57,1017.09,-828.19
21140,-3.8721,0.7743,-0.0819,-866.94,860.84,937.38
21150,-3.8722,0.7673,-0.0911,-882.57,1517.09,-922.06
21160,-3.8722,0.7526,-0.0808,-1773.19,345.21,1734.19
21170,-3.8722,0.7352,-0.0568,336.18,1657.71,1577.94
21180,-3.8722,0.7181,-0.0327,-1882.57,735.78,-625.12
21190,-3.8721,0.6991,-0.0208,-70.07,-186.16,-1797.00
21200,-3.8719,0.6775,-0.0236,1492.43,1345.09,390.56
21210,-3.8719,0.6571,-0.0326,-1273.19,985.66,1062.44
21220,-3.8719,0.6414,-0.0380,117.43,-170.59,796.75
21230,-3.8719,0.6320,-0.0352,-1898.19,-858.15,734.25
21240,-3.8719,0.6279,-0.0225,898.68,-498.78,1296.75
21250,-3.8719,0.6235,-0.0027,383.06,1126.22,-1546.94
21260,-3.8718,0.6134,0.0177,-179.44,-342.59,468.69
21270,-3.8718,0.5964,0.0330,-1476.32,-1733.22,-546.88
21280,-3.8717,0.5747,0.0400,351.81,219.91,-1437.44
21290,-3.8716,0.5503,0.0410,1570.56,1126.10,562.56
21300,-3.8716,0.5276,0.0421,-1554.44,1251.04,1125.06
21310,-3.8716,0.5143,0.0466,-460.69,1391.60,718.81
21320,-3.8717,0.5154,0.0546,1836.18,1969.73,-328.06
21330,-3.8717,0.5288,0.0649,1976.81,-1014.65,-1546.81
21340,-3.8717,0.5472,0.0760,-304.44,313.48,1765.75
21350,-3.8717,0.5627,0.0845,-1945.07,1735.41,1453.25
21360,-3.8717,0.5702,0.0916,39.31,-1186.40,1000.12
21370,-3.8717,0.5684,0.1007,992.43,-280.15,781.37
21380,-3.8717,0.5593,0.1133,758.06,891.72,1203.31
21390,-3.8717,0.5496,0.1288,-398.19,-1498.96,1718.93
21400,-3.8717,0.5460,0.1443,-1648.19,485.41,1656.49
21410,-3.8717,0.5507,0.1554,1898.68,-1530.21,797.12
21420,-3.8718,0.5604,0.1598,-1507.57,-108.34,-593.51
21430,-3.8718,0.5728,0.1595,-257.57,454.16,1969.06
21440,-3.8718,0.5858,0.1593,1320.56,422.97,875.31
21450,-3.8718,0.5968,0.1658,-1007.57,391.72,797.18
21460,-3.8718,0.5995,0.1814,398.68,1219.91,-1546.57
21470,-3.8717,0.5875,0.2052,742.43,-780.09,1828.43
21480,-3.8716,0.5637,0.2356,-788.82,-1733.28,1703.49
21490,-3.8715,0.5416,0.2661,164.31,-1842.65,1344.18
21500,-3.8713,0.5414,0.2993,1336.18,-1936.46,1203.61
21510,-3.8712,0.5758,0.3390,1304.93,-1686.46,828.67
21520,-3.8712,0.6318,0.3715,1711.18,-608.28,-436.89
21530,-3.8711,0.6875,0.3837,883.06,-451.90,1203.80
21540,-3.8711,0.7283,0.3789,8.06,1110.72,1438.23
21550,-3.8711,0.7401,0.3684,1226.81,501.40,375.73
21560,-3.8712,0.7222,0.3561,-1257.57,-842.35,-1827.45
21570,-3.8713,0.6851,0.3441,445.56,1579.53,-671.20
21580,-3.8713,0.6370,0.3359,-304.44,48.16,641.30
21590,-3.8715,0.5878,0.3308,1539.31,-998.78,-1171.26
21600,-3.8715,0.5458,0.3223,-757.57,-1655.15,-1686.89
21610,-3.8715,0.5138,0.3138,1867.43,1251.04,-1124.39
21620,-3.8715,0.4882,0.3159,1773.68,172.85,-61.89
21630,-3.8713,0.4622,0.3258,-1507.57,438.42,1031.86
21640,-3.8713,0.4384,0.3362,-835.69,1703.98,-1874.39
21650,-3.8713,0.4257,0.3419,117.43,-967.90,-1186.89
21660,-3.8713,0.4312,0.3370,-1507.57,-233.58,1938.11
21670,-3.8715,0.4557,0.3228,-804.44,-858.58,-1265.01
21680,-3.8716,0.4939,0.3085,-1663.82,1313.35,1578.74
21690,-3.8718,0.5386,0.3027,-773.19,-514.71,-155.70
21700,-3.8719,0.5817,0.3112,945.56,-1248.96,-890.08
21710,-3.8719,0.6160,0.3322,-1538.82,-170.78,547.42
21720,-3.8719,0.6353,0.3611,-1148.19,-1483.22,1031.86
21730,-3.8718,0.6274,0.3982,1320.56,-1780.03,610.05
21740,-3.8717,0.5889,0.4346,320.56,-1030.03,-1905.52
21750,-3.8716,0.5305,0.4542,-616.94,-373.90,-686.71
21760,-3.8715,0.4667,0.4459,-85.69,-1858.40,-1796.02
21770,-3.8715,0.4147,0.4132,-257.57,1078.98,1438.35
21780,-3.8716,0.3882,0.3763,1086.18,891.42,1625.79
21790,-3.8717,0.3876,0.3496,1695.56,172.61,1578.86
21800,-3.8718,0.4019,0.3429,1617.43,750.73,-155.58
21810,-3.8717,0.4142,0.3574,-554.44,-108.64,688.11
21820,-3.8717,0.4099,0.3820,1023.68,1750.79,-311.83
21830,-3.8715,0.3817,0.3989,476.81,891.42,172.61
21840,-3.8713,0.3345,0.4020,867.43,-936.77,594.48
21850,-3.8712,0.2783,0.4008,-1179.44,-546.26,0.73
21860,-3.8712,0.2164,0.3901,-366.94,-702.64,-1718.02
21870,-3.8712,0.1506,0.3639,-288.82,1937.87,-155.52
21880,-3.8711,0.0862,0.3304,-710.69,-1421.63,453.80
21890,-3.8712,0.0314,0.3016,-960.69,-1703.00,-93.14
21900,-3.8712,-0.0066,0.2783,23.68,-1390.56,-1311.95
21910,-3.8712,-0.0291,0.2609,-835.69,-359.44,1609.86
21920,-3.8712,-0.0437,0.2551,289.31,1406.19,1484.86
21930,-3.8712,-0.0525,0.2548,-1585.69,671.75,-1687.01
21940,-3.8712,-0.0511,0.2590,1289.31,624.88,-233.89
21950,-3.8711,-0.0409,0.2679,1461.18,1171.75,1500.49
21960,-3.8711,-0.0239,0.2694,-1226.32,-1687.62,-1249.51
21970,-3.8711,-0.0001,0.2576,945.56,-1500.06,-1218.26
21980,-3.8711,0.0249,0.2384,-7.57,984.31,1094.24
21990,-3.8712,0.0449,0.2203,-804.44,-1484.38,1781.68
22000,-3.8713,0.0615,0.2086,1758.06,203.19,-1858.95
22010,-3.8715,0.0786,0.2010,-116.94,-1296.81,-296.51
22020,-3.8715,0.0947,0.1962,-1929.44,1734.50,-1374.63
22030,-3.8715,0.1064,0.1935,133.06,1109.56,-1827.76
22040,-3.8715,0.1118,0.1919,1633.06,765.81,1750.37
22050,-3.8715,0.1130,0.1906,-1679.44,562.68,1109.74
22060,-3.8715,0.1158,0.1868,-1523.19,390.81,422.24
22070,-3.8715,0.1213,0.1785,-1163.82,-93.57,47.18
22080,-3.8716,0.1261,0.1649,-460.69,-1156.07,-77.82
22090,-3.8716,0.1300,0.1462,148.68,1109.62,-780.94
22100,-3.8716,0.1339,0.1263,648.68,-1281.01,1890.87
22110,-3.8716,0.1331,0.1138,1148.68,172.12,937.74
22120,-3.8716,0.1216,0.1123,1039.31,-1437.26,843.93
22130,-3.8716,0.0975,0.1176,-429.44,-1624.82,1953.31
22140,-3.8715,0.0610,0.1265,492.43,-952.94,812.68
22150,-3.8713,0.0170,0.1381,-179.44,187.56,953.37
22160,-3.8712,-0.0298,0.1465,-1820.07,1671.88,1343.99
22170,-3.8711,-0.0769,0.1482,195.56,-1234.44,1453.37
22180,-3.8710,-0.1198,0.1426,-1835.69,-1015.81,922.12
22190,-3.8710,-0.1555,0.1348,679.93,-1734.62,-765.38
22200,-3.8708,-0.1851,0.1355,101.81,1265.32,875.24
22210,-3.8708,-0.2083,0.1469,320.56,1359.01,-1437.26
22220,-3.8707,-0.2245,0.1691,1351.81,-1187.93,547.12
22230,-3.8707,-0.2347,0.2000,-726.32,1655.76,-1109.07
22240,-3.8706,-0.2371,0.2340,1961.18,1608.89,797.24
22250,-3.8706,-0.2307,0.2661,1664.31,1968.26,1484.80
22260,-3.8706,-0.2168,0.2943,-1523.19,-1922.36,1078.61
22270,-3.8707,-0.1927,0.3148,258.06,1687.07,-93.20
22280,-3.8707,-0.1544,0.3236,-663.82,312.07,-1843.14
22290,-3.8708,-0.1029,0.3236,242.43,1437.19,-155.64
22300,-3.8708,-0.0457,0.3175,-1163.82,1437.26,469.36
22310,-3.8710,0.0094,0.3074,-1835.69,656.13,234.99
22320,-3.8711,0.0514,0.2985,1211.18,-656.25,219.30
22330,-3.8712,0.0732,0.2931,-1413.82,-1796.81,1500.55
22340,-3.8712,0.0782,0.2966,1383.06,1515.75,766.17
22350,-3.8712,0.0776,0.3137,-1976.32,1968.87,1641.17
22360,-3.8712,0.0812,0.3345,1945.56,156.37,-358.76
22370,-3.8711,0.0908,0.3486,-1601.32,-1187.38,-1827.51
22380,-3.8711,0.1047,0.3527,-366.94,625.12,-155.58
22390,-3.8710,0.1187,0.3489,1414.31,1140.81,94.42
22400,-3.8711,0.1305,0.3447,-804.44,656.43,-468.08
22410,-3.8711,0.1427,0.3459,711.18,125.24,-1280.58
22420,-3.8711,0.1580,0.3517,-1726.32,281.49,1860.05
22430,-3.8711,0.1776,0.3564,226.81,1015.93,938.17
22440,-3.8711,0.2014,0.3566,-1257.57,1625.31,78.80
22450,-3.8712,0.2246,0.3558,1789.31,1640.99,-686.83
22460,-3.8712,0.2435,0.3578,758.06,1547.30,-1014.95
22470,-3.8712,0.2590,0.3580,-820.07,1797.30,-983.70
22480,-3.8712,0.2712,0.3569,1164.31,1828.61,-921.20
22490,-3.8712,0.2780,0.3580,-1273.19,1687.99,-686.83
22500,-3.8712,0.2800,0.3602,-413.82,1828.61,-233.70
22510,-3.8711,0.2832,0.3622,-148.19,-1890.14,391.30
22520,-3.8711,0.2915,0.3623,258.06,-1640.08,735.05
22530,-3.8711,0.3042,0.3608,1320.56,-1624.45,516.30
22540,-3.8711,0.3219,0.3608,-1054.44,-1811.95,235.05
22550,-3.8711,0.3439,0.3629,1211.18,-1811.89,375.67
22560,-3.8711,0.3654,0.3677,23.68,-1546.20,985.05
22570,-3.8711,0.3828,0.3750,-1226.32,-936.83,1922.55
22580,-3.8711,0.3971,0.3838,1008.06,0.73,-764.89
22590,-3.8710,0.4114,0.3923,-1163.82,1125.73,500.73
22600,-3.8710,0.4287,0.4000,664.31,-1780.46,1438.23
22610,-3.8710,0.4491,0.4054,-1116.94,-796.08,-1702.39
22620,-3.8710,0.4695,0.4070,1492.43,-108.52,-1202.39
22630,-3.8710,0.4851,0.4016,101.81,94.67,-1717.96
22640,-3.8710,0.4961,0.3883,-1898.19,-592.83,906.98
22650,-3.8711,0.5051,0.3705,-491.94,1704.04,-1108.64
22660,-3.8711,0.5123,0.3486,664.31,-577.15,188.17
22670,-3.8712,0.5173,0.3284,1586.18,625.98,1578.80
22680,-3.8712,0.5232,0.3187,-1773.19,-1967.77,63.11
22690,-3.8713,0.5337,0.3152,-1023.19,797.85,-718.14
22700,-3.8713,0.5487,0.3091,320.56,344.79,-1515.01
22710,-3.8713,0.5624,0.2970,-1757.57,-436.46,1703.67
22720,-3.8713,0.5680,0.2782,-7.57,-1983.34,672.42
22730,-3.8715,0.5674,0.2596,711.18,-389.53,-1077.64
22740,-3.8715,0.5674,0.2482,633.06,1235.47,875.49
22750,-3.8716,0.5736,0.2433,633.06,-233.28,-687.07
22760,-3.8716,0.5881,0.2380,1429.93,-858.28,-1687.07
22770,-3.8716,0.6074,0.2242,-710.69,-1530.15,1141.05
22780,-3.8717,0.6228,0.2039,1758.06,704.28,-468.32
22790,-3.8717,0.6313,0.1840,-273.19,-1905.09,-1905.88
22800,-3.8717,0.6382,0.1658,820.56,-451.90,1062.81
22810,-3.8717,0.6449,0.1493,1695.56,1219.97,328.43
22820,-3.8718,0.6487,0.1348,-1445.07,-889.40,-234.13
22830,-3.8718,0.6467,0.1235,-960.69,1251.22,-859.13
22840,-3.8718,0.6387,0.1139,-1210.69,-186.28,-1484.19
22850,-3.8718,0.6265,0.1025,1758.06,-1420.65,-1968.57
22860,-3.8718,0.6156,0.0895,195.56,1126.22,1609.56
22870,-3.8718,0.6108,0.0784,-1195.07,-545.72,1312.62
22880,-3.8718,0.6122,0.0692,-1804.44,-1967.59,1406.37
22890,-3.8718,0.6150,0.0574,-1632.57,860.53,1797.00
22900,-3.8718,0.6179,0.0454,-1273.19,-655.09,-1890.56
22910,-3.8718,0.6215,0.0370,-898.19,1813.66,-1765.56
22920,-3.8718,0.6232,0.0306,-445.07,735.53,1937.56
22930,-3.8718,0.6221,0.0265,-226.32,-76.97,1218.75
22940,-3.8718,0.6206,0.0244,-366.94,-608.22,640.62
22950,-3.8718,0.6201,0.0228,-554.44,-873.84,625.00
22960,-3.8718,0.6177,0.0215,-616.94,-1076.97,1296.88
22970,-3.8718,0.6117,0.0173,-929.44,-1248.84,1812.50
22980,-3.8718,0.6084,0.0112,-1695.07,-1780.09,1250.00
22990,-3.8719,0.6138,0.0032,1883.06,1438.66,-250.00
23000,-3.8719,0.6272,-0.0076,-1429.44,407.41,-2000.00
23010,-3.8719,0.6506,-0.0103,289.31,-967.53,546.81
23020,-3.8721,0.6837,-0.0016,-710.69,-1311.28,-265.69
23030,-3.8721,0.7133,0.0079,-476.32,-201.84,-421.94
23040,-3.8721,0.7260,0.0133,-695.07,1016.97,-265.62
23050,-3.8719,0.7184,0.0178,929.93,1704.53,265.62
23060,-3.8719,0.6927,0.0247,-38.82,-1717.41,1171.88
23070,-3.8719,0.6586,0.0261,679.93,-842.41,-1890.62
23080,-3.8719,0.6281,0.0159,304.93,-654.97,-1656.25
23090,-3.8719,0.6061,0.0002,398.68,-1967.53,1921.88
23100,-3.8719,0.5909,-0.0103,1586.18,32.41,1453.12
23110,-3.8719,0.5792,-0.0118,-351.32,-1311.40,1499.94
23120,-3.8719,0.5704,-0.0035,-1851.32,-1514.53,-1609.44
23130,-3.8719,0.5642,0.0122,1023.68,-452.03,-140.69
23140,-3.8718,0.5592,0.0314,226.81,1563.60,1453.12
23150,-3.8718,0.5562,0.0509,-413.82,16.66,-921.81
23160,-3.8717,0.5526,0.0669,-804.44,-1483.34,812.56
23170,-3.8717,0.5427,0.0758,-1257.57,563.54,-1531.13
23180,-3.8716,0.5228,0.0834,1476.81,1704.16,156.37
23190,-3.8716,0.4938,0.0940,-1070.07,-1327.15,-1812.38
23200,-3.8715,0.4636,0.1017,-788.82,32.17,328.31
23210,-3.8715,0.4432,0.1089,-648.19,1016.48,1953.31
23220,-3.8715,0.4366,0.1147,742.43,1938.35,-1718.57
23230,-3.8715,0.4435,0.1184,-101.32,-1311.71,1031.43
23240,-3.8716,0.4622,0.1285,773.68,-842.90,-937.32
23250,-3.8716,0.4891,0.1504,-835.69,453.98,1531.49
23260,-3.8716,0.5187,0.1865,-1382.57,-749.08,1328.37
23270,-3.8716,0.5446,0.2308,-1601.32,-124.02,-1218.44
23280,-3.8715,0.5652,0.2687,1711.18,1547.91,1312.93
23290,-3.8713,0.5754,0.2939,351.81,-1608.28,281.74
