timestamp_ms,ax,ay,az,gx,gy,gz
0,-3.8712,0.2378,-0.0200,1461.18,422.30,296.81
10,-3.8712,0.2233,-0.0122,-1554.44,1437.93,749.94
20,-3.8712,0.1984,-0.0050,586.18,-1562.07,437.44
30,-3.8713,0.1761,0.0015,1398.68,-640.26,-31.31
40,-3.8712,0.1576,0.0068,-1445.07,187.81,109.38
50,-3.8712,0.1489,0.0126,179.93,875.31,234.38
60,-3.8713,0.1595,0.0247,-929.44,1609.62,-375.00
70,-3.8713,0.1826,0.0367,429.93,-843.44,-718.75
80,-3.8712,0.2040,0.0469,-616.94,703.43,234.44
90,-3.8712,0.2150,0.0575,-1882.57,-1999.63,-1749.94
100,-3.8712,0.2114,0.0645,-476.32,-640.26,-62.44
110,-3.8711,0.1927,0.0688,-929.44,250.37,468.87
120,-3.8712,0.1691,0.0759,679.93,812.87,-46.75
130,-3.8712,0.1548,0.0859,1648.68,1719.06,-1093.63
140,-3.8712,0.1525,0.0927,-179.44,-999.76,-1828.00
150,-3.8712,0.1595,0.0923,-476.32,-140.38,-1703.00
160,-3.8712,0.1740,0.0896,429.93,-187.19,-890.50
170,-3.8711,0.1901,0.0916,-1726.32,-530.94,0.12
180,-3.8711,0.2061,0.1013,336.18,-280.88,547.00
190,-3.8711,0.2268,0.1207,-1616.94,969.12,578.31
200,-3.8711,0.2502,0.1429,1039.31,-546.45,672.06
210,-3.8711,0.2640,0.1484,39.31,-1702.64,1187.74
220,-3.8711,0.2581,0.1283,1804.93,-999.51,1656.49
230,-3.8711,0.2354,0.0938,1039.31,422.36,-1906.01
240,-3.8711,0.2115,0.0632,-1866.94,0.43,-1812.32
250,-3.8711,0.2054,0.0513,-913.82,94.12,1406.37
260,-3.8711,0.2258,0.0598,-1695.07,-1437.13,46.94
270,-3.8712,0.2645,0.0819,914.31,-343.32,-1046.81
280,-3.8712,0.3018,0.1057,1867.43,-1515.14,-953.00
290,-3.8711,0.3134,0.1193,-1366.94,1531.80,437.68
300,-3.8711,0.2899,0.1184,117.43,-733.76,-1609.19
310,-3.8711,0.2521,0.1088,1117.43,-843.20,-46.69
320,-3.8710,0.2218,0.0931,273.68,1922.36,468.93
330,-3.8711,0.2006,0.0648,398.68,-77.70,-15.50
340,-3.8711,0.1898,0.0308,1679.93,297.24,-1031.13
350,-3.8711,0.2056,0.0134,304.93,-62.13,906.25
360,-3.8712,0.2585,0.0291,-1679.44,1719.12,-1406.25
370,-3.8712,0.3239,0.0696,1101.81,-280.76,-1937.50
380,-3.8712,0.3550,0.1029,1461.18,906.86,-609.25
390,-3.8711,0.3328,0.0996,1445.56,1172.55,1125.18
400,-3.8711,0.2770,0.0564,-1398.19,750.61,-1718.57
410,-3.8711,0.2157,-0.0084,-538.82,-780.76,-1406.19
420,-3.8711,0.1677,-0.0768,-382.57,-1077.76,1406.19
430,-3.8712,0.1459,-0.1353,1476.81,-1827.82,-1500.18
440,-3.8713,0.1519,-0.1732,-1320.07,-1312.26,-1172.18
450,-3.8713,0.1744,-0.1849,-554.44,1828.37,124.63
460,-3.8715,0.1962,-0.1692,-1663.82,328.43,-47.24
470,-3.8713,0.2006,-0.1366,1117.43,-1655.88,1843.38
480,-3.8713,0.1835,-0.1115,1679.93,-1484.01,-250.31
490,-3.8712,0.1560,-0.1150,-507.57,1734.68,671.63
500,-3.8712,0.1321,-0.1471,-23.19,1281.49,1015.38
510,-3.8712,0.1183,-0.1903,914.31,1172.12,671.57
520,-3.8713,0.1180,-0.2250,-851.32,-359.19,-687.93
530,-3.8713,0.1335,-0.2429,-882.57,-796.69,-1875.49
540,-3.8713,0.1523,-0.2532,1101.81,906.49,-1875.49
550,-3.8713,0.1627,-0.2654,-491.94,-406.01,-1750.55
560,-3.8713,0.1649,-0.2802,836.18,-1968.44,1936.95
570,-3.8713,0.1577,-0.2992,1117.43,140.93,1968.20
580,-3.8713,0.1345,-0.3293,195.56,1703.43,-1766.24
590,-3.8713,0.0939,-0.3660,1226.81,1843.99,-1735.05
600,-3.8713,0.0546,-0.3932,23.68,1156.43,1077.39
610,-3.8715,0.0370,-0.4149,-1007.57,1671.94,1796.08
620,-3.8716,0.0424,-0.4485,742.43,-1109.31,1358.52
630,-3.8717,0.0664,-0.4846,1429.93,-1406.19,1999.08
640,-3.8717,0.1053,-0.4982,508.06,1968.87,30.27
650,-3.8718,0.1514,-0.4825,1492.43,234.56,1749.02
660,-3.8719,0.1825,-0.4630,-616.94,-1765.38,-1047.85
670,-3.8721,0.1818,-0.4695,-632.57,734.68,-438.42
680,-3.8722,0.1649,-0.5105,-726.32,-93.44,-438.48
690,-3.8723,0.1495,-0.5786,1117.43,-1343.44,-797.91
700,-3.8724,0.1388,-0.6549,-851.32,1937.74,-1454.28
710,-3.8726,0.1366,-0.7164,1773.68,172.12,-1845.03
720,-3.8727,0.1427,-0.7555,1492.43,297.12,-1548.28
730,-3.8728,0.1477,-0.7734,-1726.32,-702.88,-314.03
740,-3.8728,0.1444,-0.7797,-1085.69,1000.24,1576.60
750,-3.8728,0.1353,-0.7870,-1507.57,203.37,29.72
760,-3.8729,0.1257,-0.7998,1320.56,-734.13,-954.71
770,-3.8729,0.1176,-0.8167,101.81,1625.24,1920.29
780,-3.8729,0.1094,-0.8315,-945.07,-531.07,217.10
790,-3.8730,0.1003,-0.8406,-1991.94,1562.68,-1704.77
800,-3.8730,0.0935,-0.8478,851.81,406.43,701.48
810,-3.8732,0.0872,-0.8600,-23.19,-515.50,-689.21
820,-3.8732,0.0769,-0.8748,-835.69,1922.00,1732.67
830,-3.8733,0.0632,-0.8831,1851.81,31.37,-64.21
840,-3.8733,0.0502,-0.8861,101.81,-1031.13,1888.85
850,-3.8733,0.0420,-0.8899,-1570.07,-1421.81,326.35
860,-3.8733,0.0356,-0.8910,1383.06,-1906.19,357.60
870,-3.8733,0.0255,-0.8789,570.56,1953.19,1248.23
880,-3.8733,0.0151,-0.8549,-726.32,-500.00,-1767.40
890,-3.8733,0.0146,-0.8351,1945.56,-1421.88,-704.83
900,-3.8732,0.0236,-0.8335,1883.06,1109.38,388.98
910,-3.8732,0.0304,-0.8519,-976.32,1312.50,701.48
920,-3.8733,0.0261,-0.8849,-101.32,-1046.88,-486.08
930,-3.8733,0.0116,-0.9193,-648.19,-1265.62,1232.60
940,-3.8734,-0.0045,-0.9404,1492.43,-1671.88,-1673.71
950,-3.8735,-0.0146,-0.9386,-570.07,-359.44,-345.64
960,-3.8735,-0.0157,-0.9108,-1866.94,-125.06,1966.86
970,-3.8735,-0.0161,-0.8745,1992.43,-562.56,1076.29
980,-3.8735,-0.0229,-0.8528,1945.56,78.06,967.04
990,-3.8735,-0.0319,-0.8550,1070.56,-1140.69,1248.29
1000,-3.8735,-0.0360,-0.8848,-70.07,-1422.00,623.29
1010,-3.8737,-0.0363,-0.9340,-601.32,-1234.50,-1392.40
1020,-3.8738,-0.0398,-0.9816,-632.57,468.63,-48.71
1030,-3.8738,-0.0518,-1.0088,-1085.69,-1625.12,1404.30
1040,-3.8739,-0.0702,-1.0095,1383.06,-1109.50,-720.76
1050,-3.8739,-0.0853,-0.9930,-976.32,-1203.31,1779.24
1060,-3.8739,-0.0867,-0.9735,1086.18,906.07,1326.17
1070,-3.8739,-0.0757,-0.9607,914.31,-593.93,1841.80
1080,-3.8739,-0.0657,-0.9557,-1679.44,1046.69,-1501.89
1090,-3.8739,-0.0645,-0.9550,-398.19,1687.32,-1205.02
1100,-3.8739,-0.0667,-0.9587,-241.94,1781.07,-1314.39
1110,-3.8739,-0.0670,-0.9669,-523.19,1296.69,-1564.39
1120,-3.8739,-0.0691,-0.9800,-570.07,249.82,1841.86
1130,-3.8739,-0.0726,-0.9993,-835.69,-1422.06,169.92
1140,-3.8740,-0.0668,-1.0138,-1288.82,109.19,1591.80
1150,-3.8741,-0.0503,-1.0098,-538.82,-1750.18,-798.89
1160,-3.8741,-0.0300,-0.9824,1570.56,-1234.50,-1533.26
1170,-3.8740,-0.0137,-0.9391,164.31,-1734.44,419.92
1180,-3.8739,-0.0096,-0.9037,-1741.94,-187.56,13.73
1190,-3.8739,-0.0092,-0.8859,-1226.32,343.69,-704.90
1200,-3.8738,-0.0066,-0.8766,-1163.82,-1375.06,1966.98
1210,-3.8738,-0.0127,-0.8801,-835.69,-187.56,-33.02
1220,-3.8737,-0.0265,-0.9052,-1616.94,-640.69,435.73
1230,-3.8738,-0.0363,-0.9415,617.43,156.19,-1204.90
1240,-3.8739,-0.0350,-0.9705,-632.57,-500.12,-33.14
1250,-3.8739,-0.0245,-0.9757,-476.32,-203.25,-1923.83
1260,-3.8739,-0.0126,-0.9498,867.43,-875.06,1904.30
1270,-3.8739,-0.0039,-0.9052,-1601.32,-1562.56,-1111.27
1280,-3.8738,0.0065,-0.8694,-491.94,156.19,716.98
1290,-3.8738,0.0157,-0.8540,836.18,718.75,-1095.46
1300,-3.8737,0.0164,-0.8591,-1976.32,-1312.50,263.92
1310,-3.8738,0.0109,-0.8895,-1898.19,-1968.75,-251.71
1320,-3.8738,0.0050,-0.9365,1398.68,-1859.38,1576.35
1330,-3.8739,-0.0032,-0.9790,648.68,125.00,-1142.46
1340,-3.8739,-0.0176,-1.0026,-398.19,-1296.94,13.67
1350,-3.8740,-0.0337,-1.0043,1758.06,-312.56,872.99
1360,-3.8741,-0.0408,-0.9838,-304.44,-531.37,-1939.51
1370,-3.8741,-0.0406,-0.9465,-1210.69,-1906.37,607.42
1380,-3.8741,-0.0436,-0.9075,-1195.07,-1140.75,1091.86
1390,-3.8741,-0.0483,-0.8882,-1570.07,-140.75,-1361.21
1400,-3.8741,-0.0442,-0.9056,1820.56,-1672.00,-251.77
1410,-3.8741,-0.0295,-0.9514,-1648.19,93.63,-986.15
1420,-3.8741,-0.0184,-0.9991,226.81,-1765.69,185.61
1430,-3.8743,-0.0234,-1.0333,1648.68,124.94,513.67
1440,-3.8744,-0.0398,-1.0493,1008.06,-250.06,966.67
1450,-3.8745,-0.0536,-1.0457,-1085.69,1703.00,-1767.70
1460,-3.8745,-0.0592,-1.0284,1148.68,-1828.25,451.05
1470,-3.8746,-0.0603,-1.0101,429.93,374.88,-502.01
1480,-3.8746,-0.0594,-1.0007,289.31,-1281.37,-845.76
1490,-3.8746,-0.0547,-1.0022,398.68,-78.25,-1002.01
1500,-3.8746,-0.0471,-1.0100,1008.06,-265.75,-1517.64
1510,-3.8746,-0.0388,-1.0148,1976.81,-1265.75,1607.36
1520,-3.8746,-0.0302,-1.0074,-960.69,-1875.12,826.11
1530,-3.8746,-0.0227,-0.9896,148.68,-937.56,560.49
1540,-3.8746,-0.0190,-0.9761,1101.81,1343.69,1154.30
1550,-3.8746,-0.0197,-0.9752,1570.56,-921.94,-1642.58
1560,-3.8746,-0.0228,-0.9785,1492.43,-812.56,-564.45
1570,-3.8746,-0.0269,-0.9794,1086.18,-1234.44,-408.20
1580,-3.8746,-0.0304,-0.9758,570.56,-1343.81,-1158.20
1590,-3.8746,-0.0310,-0.9695,117.43,-890.69,-1705.08
1600,-3.8746,-0.0283,-0.9678,39.31,-78.19,-1533.20
1610,-3.8746,-0.0245,-0.9711,383.06,140.56,-923.77
1620,-3.8746,-0.0212,-0.9750,867.43,-281.31,-17.58
1630,-3.8745,-0.0195,-0.9774,1289.31,-781.31,810.55
1640,-3.8745,-0.0193,-0.9773,1508.06,-1093.81,1169.92
1650,-3.8745,-0.0183,-0.9769,1539.31,-1078.19,1310.55
1660,-3.8745,-0.0144,-0.9774,1664.31,-1031.31,1669.92
1670,-3.8745,-0.0057,-0.9764,-1835.69,-1093.81,-1908.20
1680,-3.8745,0.0031,-0.9740,-726.32,-968.81,-1626.95
1690,-3.8745,0.0061,-0.9696,398.68,-671.88,-986.33
1700,-3.8744,0.0054,-0.9620,789.31,-109.38,123.05
1710,-3.8744,0.0045,-0.9581,695.56,859.38,1138.73
1720,-3.8744,0.0042,-0.9609,586.18,1359.38,1873.11
1730,-3.8744,0.0042,-0.9653,539.31,1000.00,-1767.52
1740,-3.8744,0.0032,-0.9681,539.31,437.50,-1892.52
1750,-3.8744,-0.0028,-0.9662,414.31,78.12,-1751.89
1760,-3.8744,-0.0132,-0.9633,-351.32,343.69,-845.64
1770,-3.8743,-0.0193,-0.9648,-1679.44,718.69,76.23
1780,-3.8743,-0.0132,-0.9679,1539.31,515.56,232.48
1790,-3.8744,0.0012,-0.9708,-1679.44,124.94,-236.27
1800,-3.8744,0.0112,-0.9763,164.31,-265.62,-955.08
1810,-3.8744,0.0090,-0.9817,1445.56,-968.75,-1439.45
1820,-3.8744,-0.0031,-0.9829,1164.31,-1656.25,-1548.83
1830,-3.8744,-0.0175,-0.9812,-382.57,-1796.94,-1376.95
1840,-3.8744,-0.0239,-0.9767,1773.68,-1578.19,-1158.20
1850,-3.8744,-0.0175,-0.9698,945.56,-1000.06,-892.58
1860,-3.8744,-0.0046,-0.9644,1773.68,-125.06,-392.58
1870,-3.8744,0.0022,-0.9651,-585.69,578.06,-236.27
1880,-3.8744,-0.0028,-0.9728,289.31,468.75,-1095.64
1890,-3.8744,-0.0129,-0.9811,-351.32,-500.06,1435.55
1900,-3.8745,-0.0151,-0.9846,-1648.19,-1562.56,-283.20
1910,-3.8745,-0.0067,-0.9867,-1929.44,1984.31,1779.30
1920,-3.8745,-0.0024,-0.9915,-851.32,1718.69,310.55
1930,-3.8745,-0.0107,-0.9940,-304.44,1109.31,232.42
1940,-3.8745,-0.0209,-0.9860,-1366.94,781.19,1451.17
1950,-3.8745,-0.0240,-0.9711,1336.18,1812.44,-1423.83
1960,-3.8745,-0.0245,-0.9633,929.93,-281.31,-1017.58
1970,-3.8745,-0.0254,-0.9626,867.43,718.69,-345.64
1980,-3.8744,-0.0283,-0.9574,758.06,796.81,919.98
1990,-3.8744,-0.0446,-0.9489,383.06,1468.69,1294.98
2000,-3.8744,-0.0676,-0.9481,-1695.07,-1437.62,451.23
2010,-3.8745,-0.0762,-0.9561,-648.19,-1343.93,-33.14
2020,-3.8744,-0.0784,-0.9708,-1741.94,1640.44,435.61
2030,-3.8744,-0.0862,-0.9862,1976.81,-250.18,1435.55
2040,-3.8744,-0.0842,-0.9989,976.81,1781.07,-1970.70
2050,-3.8744,-0.0659,-1.0048,1226.81,156.07,1169.92
2060,-3.8745,-0.0411,-0.9935,-429.44,-593.93,-1033.26
2070,-3.8745,-0.0172,-0.9733,-1257.57,843.63,248.05
2080,-3.8746,0.0015,-0.9656,1804.93,-562.56,-1330.08
2090,-3.8745,0.0055,-0.9766,195.56,406.25,310.61
2100,-3.8744,-0.0062,-0.9879,711.18,-1000.00,107.42
2110,-3.8744,-0.0210,-0.9847,-788.82,1562.44,-1189.45
2120,-3.8744,-0.0265,-0.9722,1320.56,1968.69,-470.70
2130,-3.8744,-0.0189,-0.9585,617.43,-421.94,-267.58
2140,-3.8743,-0.0038,-0.9503,1586.18,1328.06,748.11
2150,-3.8743,0.0144,-0.9530,-476.32,-1625.06,-1626.89
2160,-3.8743,0.0350,-0.9594,1851.81,-1984.38,-876.89
2170,-3.8743,0.0553,-0.9651,492.43,1203.19,-1220.64
2180,-3.8743,0.0699,-0.9736,-913.82,468.81,-1345.64
2190,-3.8743,0.0758,-0.9813,961.18,-624.88,-955.08
2200,-3.8743,0.0775,-0.9806,1711.18,-1609.25,-736.33
2210,-3.8743,0.0823,-0.9723,1929.93,-1515.50,-751.95
2220,-3.8743,0.0919,-0.9618,-1460.69,-453.00,-564.45
2230,-3.8741,0.1028,-0.9498,-226.32,890.75,451.23
2240,-3.8741,0.1091,-0.9412,1164.31,-1577.94,-1720.64
2250,-3.8741,0.1073,-0.9399,1976.81,-468.57,-1.89
2260,-3.8740,0.1006,-0.9438,1742.43,-312.32,919.98
2270,-3.8740,0.0924,-0.9514,883.06,-812.32,1013.73
2280,-3.8740,0.0840,-0.9606,-163.82,-1781.13,435.61
2290,-3.8741,0.0725,-0.9669,-1241.94,1047.00,-173.77
2300,-3.8740,0.0564,-0.9679,1289.31,234.50,310.61
2310,-3.8740,0.0433,-0.9639,-773.19,109.44,1982.48
2320,-3.8740,0.0374,-0.9579,1554.93,625.06,-517.52
2330,-3.8739,0.0342,-0.9542,789.31,1390.69,232.48
2340,-3.8739,0.0288,-0.9528,383.06,1859.44,498.11
2350,-3.8739,0.0195,-0.9526,-304.44,-1953.12,732.48
2360,-3.8739,0.0094,-0.9528,-1491.94,-1937.50,1185.61
2370,-3.8739,0.0023,-0.9510,1211.18,-1953.12,1544.98
2380,-3.8739,0.0021,-0.9510,304.93,-1734.38,1341.86
2390,-3.8739,0.0107,-0.9565,273.68,-1734.38,529.36
2400,-3.8740,0.0211,-0.9647,1383.06,1562.50,-908.14
2410,-3.8740,0.0240,-0.9722,-1288.82,515.62,1716.86
2420,-3.8740,0.0225,-0.9706,-913.82,-437.50,1388.67
2430,-3.8740,0.0227,-0.9535,-1116.94,-234.38,1857.42
2440,-3.8740,0.0248,-0.9325,-1085.69,1953.12,-1501.89
2450,-3.8740,0.0244,-0.9202,-820.07,640.62,-408.08
2460,-3.8739,0.0212,-0.9178,-866.94,-1781.25,1357.54
2470,-3.8739,0.0190,-0.9236,-1273.19,-1484.38,-1079.96
2480,-3.8739,0.0192,-0.9330,-1554.44,1781.25,-517.46
2490,-3.8739,0.0225,-0.9408,-1538.82,578.12,-658.08
2500,-3.8739,0.0322,-0.9449,-1116.94,-421.88,-1033.14
2510,-3.8739,0.0442,-0.9460,133.06,-953.06,1966.86
2520,-3.8739,0.0518,-0.9504,1664.31,-1093.69,232.48
2530,-3.8740,0.0574,-0.9576,-1366.94,-1656.19,-1033.14
2540,-3.8740,0.0629,-0.9579,-648.19,1421.94,-1376.89
2550,-3.8740,0.0614,-0.9497,54.93,1390.75,-1408.14
2560,-3.8740,0.0519,-0.9408,-132.57,-1562.44,-1533.14
2570,-3.8740,0.0419,-0.9390,-1351.32,-421.81,-1439.39
2580,-3.8740,0.0334,-0.9445,1367.43,-187.44,-720.64
2590,-3.8739,0.0261,-0.9524,289.31,-890.56,216.86
2600,-3.8739,0.0248,-0.9580,-648.19,-1906.25,857.48
2610,-3.8739,0.0337,-0.9584,-820.07,1375.00,794.98
2620,-3.8739,0.0441,-0.9573,320.56,1328.19,29.36
2630,-3.8740,0.0466,-0.9557,1648.68,1468.81,-845.64
2640,-3.8740,0.0443,-0.9497,1976.81,1671.94,-1267.52
2650,-3.8740,0.0435,-0.9421,1679.93,-1562.44,-1080.02
2660,-3.8740,0.0438,-0.9393,1570.56,-593.69,-283.14
2670,-3.8739,0.0482,-0.9386,1617.43,-234.31,1091.86
2680,-3.8739,0.0599,-0.9364,-1820.07,-140.56,1982.48
2690,-3.8739,0.0712,-0.9369,-320.07,140.69,1810.67
2700,-3.8739,0.0753,-0.9409,1117.43,78.25,1373.17
2710,-3.8739,0.0704,-0.9432,1648.68,-437.38,1123.11
2720,-3.8739,0.0587,-0.9445,1023.68,-734.25,841.86
2730,-3.8739,0.0486,-0.9448,-476.32,-890.56,716.86
2740,-3.8739,0.0481,-0.9463,-1773.19,-937.44,841.86
2750,-3.8739,0.0551,-0.9484,-1835.69,-1124.94,998.11
2760,-3.8739,0.0653,-0.9482,-945.07,-1390.56,1279.36
2770,-3.8739,0.0740,-0.9474,367.43,-1374.88,1294.98
2780,-3.8739,0.0631,-0.9478,1476.81,-1265.50,1435.61
2790,-3.8739,0.0377,-0.9467,86.18,-1312.38,-1205.02
2800,-3.8738,0.0278,-0.9409,836.18,-1171.81,701.23
2810,-3.8738,0.0366,-0.9327,-429.44,-437.50,1341.86
2820,-3.8738,0.0481,-0.9292,695.56,609.44,685.67
2830,-3.8739,0.0549,-0.9323,-1835.69,1062.56,-376.83
2840,-3.8739,0.0565,-0.9375,-960.69,671.94,-1189.33
2850,-3.8739,0.0536,-0.9425,-757.57,0.06,-1501.83
2860,-3.8739,0.0483,-0.9468,-1132.57,-640.56,-1580.02
2870,-3.8739,0.0439,-0.9503,-1804.44,-1187.44,-1548.77
2880,-3.8739,0.0385,-0.9512,1633.06,-1640.56,-1408.14
2890,-3.8739,0.0334,-0.9508,929.93,-1749.94,-1267.52
2900,-3.8739,0.0339,-0.9502,289.31,-1703.06,-1142.52
2910,-3.8739,0.0386,-0.9469,351.81,-1624.94,-970.64
2920,-3.8739,0.0436,-0.9393,945.56,-1203.06,-767.52
2930,-3.8739,0.0469,-0.9302,1586.18,-234.31,-548.77
2940,-3.8739,0.0497,-0.9258,-1991.94,937.56,-158.08
2950,-3.8738,0.0541,-0.9271,-1632.57,1500.06,263.79
2960,-3.8738,0.0577,-0.9323,-1070.07,1328.19,482.54
2970,-3.8738,0.0581,-0.9407,-601.32,671.94,373.17
2980,-3.8739,0.0560,-0.9498,-554.44,-406.19,-33.14
2990,-3.8739,0.0535,-0.9545,-820.07,-1578.06,-595.64
3000,-3.8739,0.0503,-0.9529,-1148.19,1828.19,-1158.14
3010,-3.8739,0.0486,-0.9506,-1554.44,-1968.69,-1533.14
3020,-3.8739,0.0480,-0.9489,-1773.19,-1671.81,-1642.52
3030,-3.8739,0.0470,-0.9478,-1851.32,-1453.06,-1580.02
3040,-3.8739,0.0461,-0.9457,-1976.32,-1312.44,-1689.39
3050,-3.8739,0.0463,-0.9399,1914.31,-1046.81,1951.23
3060,-3.8739,0.0488,-0.9344,1929.93,-312.44,1857.48
3070,-3.8739,0.0542,-0.9326,-1741.94,390.69,-1814.33
3080,-3.8739,0.0598,-0.9316,-1054.44,625.06,-1345.58
3090,-3.8739,0.0629,-0.9321,-335.69,750.06,-892.46
3100,-3.8739,0.0625,-0.9353,54.93,687.62,-517.46
3110,-3.8739,0.0599,-0.9381,8.06,281.37,-158.08
3120,-3.8738,0.0573,-0.9396,-320.07,-78.06,44.98
3130,-3.8739,0.0548,-0.9406,-663.82,-265.56,-345.64
3140,-3.8739,0.0537,-0.9425,-976.32,-390.56,-986.27
3150,-3.8739,0.0546,-0.9449,-1116.94,-640.56,-1267.52
3160,-3.8739,0.0562,-0.9442,-1007.57,-953.06,-1064.39
3170,-3.8739,0.0574,-0.9412,-804.44,-859.31,-298.77
3180,-3.8738,0.0554,-0.9374,-648.19,-468.69,857.48
3190,-3.8738,0.0498,-0.9325,-898.19,15.69,1779.42
3200,-3.8738,0.0447,-0.9281,-1616.94,640.69,-1626.83
3210,-3.8738,0.0439,-0.9261,1726.81,1203.19,-1204.96
3220,-3.8738,0.0461,-0.9268,1633.06,1453.19,-1079.96
3230,-3.8738,0.0483,-0.9319,1914.31,1375.06,-1251.83
3240,-3.8738,0.0486,-0.9396,-1804.44,718.81,-1626.83
3250,-3.8738,0.0464,-0.9441,-1773.19,-265.56,-1970.64
3260,-3.8738,0.0424,-0.9449,1945.56,-843.69,1779.36
3270,-3.8738,0.0388,-0.9421,1429.93,-953.06,1654.36
3280,-3.8738,0.0388,-0.9353,976.81,-593.69,1654.36
3290,-3.8738,0.0417,-0.9296,976.81,281.31,1810.67
3300,-3.8738,0.0460,-0.9296,1351.81,1015.69,-1829.96
3310,-3.8738,0.0485,-0.9321,1898.68,1015.69,-1533.08
3320,-3.8738,0.0475,-0.9343,-1788.82,687.56,-1376.83
3330,-3.8738,0.0458,-0.9373,-1913.82,406.31,-1345.58
3340,-3.8738,0.0459,-0.9391,1867.43,31.31,-1423.71
3350,-3.8738,0.0444,-0.9396,1883.06,-203.06,-1455.02
3360,-3.8738,0.0409,-0.9414,1695.56,-265.56,-1626.89
3370,-3.8738,0.0372,-0.9430,1242.43,-499.94,1857.48
3380,-3.8738,0.0339,-0.9424,773.68,-703.06,1357.48
3390,-3.8738,0.0326,-0.9413,351.81,-624.94,982.48
3400,-3.8738,0.0327,-0.9403,179.93,-484.31,748.11
3410,-3.8738,0.0344,-0.9387,195.56,-359.31,904.36
3420,-3.8738,0.0393,-0.9329,414.31,-156.19,1466.86
3430,-3.8738,0.0480,-0.9237,1039.31,593.81,-1876.83
3440,-3.8738,0.0583,-0.9192,-1851.32,1765.69,-1329.96
3450,-3.8738,0.0680,-0.9214,-523.19,-1656.19,-908.08
3460,-3.8738,0.0759,-0.9259,711.18,-1937.38,-814.33
3470,-3.8738,0.0829,-0.9285,1726.81,1484.50,-1095.58
3480,-3.8738,0.0889,-0.9269,-1382.57,1156.37,-1361.21
3490,-3.8738,0.0929,-0.9242,-616.94,1359.50,-1501.83
3500,-3.8738,0.0964,-0.9243,-101.32,1703.25,-1767.46
3510,-3.8738,0.0983,-0.9261,351.81,1687.68,1795.04
3520,-3.8738,0.0967,-0.9276,586.18,1453.31,1373.17
3530,-3.8738,0.0908,-0.9293,383.06,1265.81,904.42
3540,-3.8738,0.0804,-0.9321,-366.94,1047.00,513.79
3550,-3.8738,0.0686,-0.9354,-1695.07,687.62,341.92
3560,-3.8738,0.0587,-0.9388,789.31,265.75,357.54
3570,-3.8738,0.0493,-0.9402,-476.32,-171.81,404.36
3580,-3.8738,0.0397,-0.9426,-1679.44,-343.69,513.73
3590,-3.8738,0.0312,-0.9462,1086.18,-656.19,576.23
3600,-3.8738,0.0238,-0.9480,8.06,-1109.31,466.86
3610,-3.8738,0.0179,-0.9486,-945.07,-1343.75,13.73
3620,-3.8739,0.0165,-0.9476,-1695.07,-1421.88,-642.52
3630,-3.8739,0.0206,-0.9474,-1882.57,-1296.88,-1158.14
3640,-3.8739,0.0260,-0.9451,-1351.32,-1265.62,-1173.77
3650,-3.8739,0.0289,-0.9379,-663.82,-968.75,-439.39
3660,-3.8738,0.0309,-0.9272,-288.82,-46.88,466.86
3670,-3.8738,0.0325,-0.9191,-38.82,1312.50,1091.92
3680,-3.8738,0.0332,-0.9174,164.31,-1640.56,1576.29
3690,-3.8738,0.0331,-0.9210,258.06,-1421.81,1888.79
3700,-3.8738,0.0334,-0.9307,242.43,-1890.56,-1892.46
3710,-3.8738,0.0356,-0.9420,289.31,875.06,-1704.96
3720,-3.8738,0.0414,-0.9484,570.56,-578.06,-1845.64
3730,-3.8738,0.0510,-0.9469,1304.93,-1390.56,1841.86
3740,-3.8738,0.0616,-0.9375,-1460.69,-1203.06,1607.48
3750,-3.8738,0.0713,-0.9276,-101.32,0.06,1560.67
3760,-3.8738,0.0808,-0.9247,1133.06,1265.75,1748.17
3770,-3.8738,0.0894,-0.9277,-1648.19,1640.75,1873.17
3780,-3.8738,0.0939,-0.9333,-554.44,1250.12,1966.92
3790,-3.8738,0.0933,-0.9375,23.68,531.43,-1861.21
3800,-3.8738,0.0879,-0.9379,-54.44,0.12,-1908.08
3810,-3.8738,0.0802,-0.9357,-741.94,-46.75,1826.23
3820,-3.8738,0.0725,-0.9342,-1726.32,234.50,1607.54
3830,-3.8738,0.0656,-0.9355,1289.31,422.00,1560.67
3840,-3.8738,0.0596,-0.9392,398.68,250.12,1482.54
3850,-3.8738,0.0557,-0.9427,-366.94,-218.69,1076.23
3860,-3.8738,0.0543,-0.9447,-866.94,-671.81,623.11
3870,-3.8738,0.0519,-0.9451,-1038.82,-921.81,435.61
3880,-3.8738,0.0468,-0.9438,-1351.32,-968.69,466.86
3890,-3.8738,0.0413,-0.9415,1992.43,-812.44,513.73
3900,-3.8738,0.0365,-0.9390,1289.31,-515.56,373.11
3910,-3.8738,0.0333,-0.9377,679.93,-187.44,232.48
3920,-3.8738,0.0331,-0.9384,273.68,-31.19,185.61
3930,-3.8738,0.0343,-0.9375,242.43,-109.31,294.98
3940,-3.8738,0.0348,-0.9338,398.68,0.06,576.29
3950,-3.8738,0.0305,-0.9304,461.18,468.81,920.04
3960,-3.8738,0.0223,-0.9315,-85.69,906.25,966.92
3970,-3.8738,0.0168,-0.9379,-1132.57,765.62,701.29
3980,-3.8738,0.0138,-0.9430,-1835.69,-46.88,529.36
3990,-3.8738,0.0148,-0.9459,1773.68,-703.12,732.48
4000,-3.8738,0.0239,-0.9454,1898.68,-1078.12,1544.98
4010,-3.8738,0.0372,-0.9375,-929.44,-1015.62,-1205.02
4020,-3.8737,0.0479,-0.9294,773.68,0.06,29.42
4030,-3.8737,0.0533,-0.9260,-1866.94,1031.31,1013.79
4040,-3.8737,0.0544,-0.9231,-1163.82,1468.81,1716.92
4050,-3.8737,0.0498,-0.9189,-1023.19,1843.81,-1986.21
4060,-3.8737,0.0420,-0.9167,-1616.94,-1624.94,1513.79
4070,-3.8737,0.0382,-0.9207,1383.06,-1343.69,513.79
4080,-3.8738,0.0392,-0.9257,898.68,-1843.69,-454.96
4090,-3.8738,0.0381,-0.9249,1023.68,1515.69,-1470.58
4100,-3.8738,0.0338,-0.9446,883.06,1609.44,1576.29
4110,-3.8738,0.0302,-0.9780,336.18,-906.19,591.86
4120,-3.8739,0.0286,-0.9656,-132.57,-1187.50,-908.20
4130,-3.8739,0.0292,-0.9437,-335.69,406.25,1654.36
4140,-3.8739,0.0328,-0.9479,-257.57,-796.88,576.23
4150,-3.8740,0.0459,-0.9431,211.18,-1328.06,-330.02
4160,-3.8740,0.0690,-0.9391,1883.06,-718.69,-1048.77
4170,-3.8740,0.0890,-0.9404,836.18,-203.00,-1095.64
4180,-3.8740,0.0964,-0.9385,-601.32,-374.88,-423.77
4190,-3.8740,0.0892,-0.9353,351.81,-124.82,-220.64
4200,-3.8740,0.0715,-0.9341,-570.07,281.37,-626.83
4210,-3.8740,0.0551,-0.9392,1164.31,437.62,-1236.21
4220,-3.8740,0.0463,-0.9490,-945.07,-218.69,-1751.89
4230,-3.8740,0.0448,-0.9581,1929.93,-1468.69,-1955.02
4240,-3.8740,0.0499,-0.9609,1742.43,1359.44,-1798.77
4250,-3.8740,0.0592,-0.9556,-1601.32,1000.06,-1470.64
4260,-3.8740,0.0690,-0.9464,-413.82,1687.56,-1376.89
4270,-3.8740,0.0795,-0.9414,836.18,-1140.50,-1564.39
4280,-3.8740,0.0927,-0.9424,-1820.07,-499.88,-1626.89
4290,-3.8740,0.1060,-0.9459,-132.57,-624.88,-986.27
4300,-3.8739,0.1140,-0.9480,1570.56,-1077.94,341.86
4310,-3.8739,0.1155,-0.9447,-1398.19,-1343.57,1904.36
4320,-3.8739,0.1125,-0.9374,-1210.69,-921.69,-705.02
4330,-3.8738,0.1050,-0.9324,-1585.69,15.81,248.17
4340,-3.8738,0.0925,-0.9324,1445.56,656.43,545.04
4350,-3.8738,0.0791,-0.9346,-148.19,656.37,279.42
4360,-3.8739,0.0663,-0.9381,-1866.94,375.12,-173.71
4370,-3.8739,0.0566,-0.9413,492.43,-78.00,-548.77
4380,-3.8739,0.0544,-0.9423,-741.94,-484.31,-751.89
4390,-3.8739,0.0593,-0.9409,-1023.19,-609.31,-923.77
4400,-3.8739,0.0699,-0.9401,-398.19,-437.44,-1126.89
4410,-3.8739,0.0850,-0.9425,961.18,-328.00,-1220.64
4420,-3.8739,0.0995,-0.9447,-1116.94,-640.50,-845.64
4430,-3.8739,0.1082,-0.9429,742.43,-921.69,-126.89
4440,-3.8738,0.1099,-0.9364,1851.81,-687.32,560.61
4450,-3.8738,0.1085,-0.9292,-1929.44,140.81,1138.79
4460,-3.8738,0.1034,-0.9270,1898.68,1062.68,1216.92
4470,-3.8738,0.0934,-0.9318,1242.43,1343.93,466.92
4480,-3.8739,0.0829,-0.9406,-38.82,734.50,-533.08
4490,-3.8739,0.0757,-0.9469,-1382.57,-390.50,-1361.27
4500,-3.8739,0.0736,-0.9500,1695.56,-1203.00,1998.11
4510,-3.8739,0.0773,-0.9489,1429.93,-1593.63,1654.36
4520,-3.8739,0.0840,-0.9423,1898.68,-1453.00,1529.36
4530,-3.8739,0.0867,-0.9349,-1241.94,-609.25,1466.86
4540,-3.8739,0.0801,-0.9298,-898.19,328.25,1310.67
4550,-3.8739,0.0657,-0.9277,-1741.94,984.50,1154.42
4560,-3.8739,0.0510,-0.9288,414.31,1250.12,1404.42
4570,-3.8739,0.0394,-0.9303,-1460.69,1109.44,-1658.08
4580,-3.8739,0.0277,-0.9279,1054.93,921.94,-392.46
4590,-3.8738,0.0137,-0.9221,-445.07,1234.38,623.17
4600,-3.8738,-0.0013,-0.9172,1758.06,1968.75,1341.92
4610,-3.8738,-0.0138,-0.9154,-163.82,-1390.69,-1954.96
4620,-3.8738,-0.0206,-0.9192,-1757.57,-1156.31,-1220.58
4630,-3.8738,-0.0221,-0.9249,1367.43,-1640.69,-579.96
4640,-3.8738,-0.0212,-0.9261,1179.93,1624.94,-423.71
4650,-3.8738,-0.0194,-0.9255,1289.31,1468.69,-626.83
4660,-3.8738,-0.0146,-0.9261,1523.68,1546.81,-533.08
4670,-3.8738,-0.0038,-0.9268,-1866.94,1468.69,-251.83
4680,-3.8738,0.0127,-0.9270,-476.32,1390.56,-251.83
4690,-3.8738,0.0332,-0.9259,1633.06,1343.75,-111.21
4700,-3.8737,0.0532,-0.9237,258.06,1484.44,435.67
4710,-3.8737,0.0681,-0.9230,-1179.44,1765.69,998.17
4720,-3.8737,0.0793,-0.9218,726.81,1859.50,1513.79
4730,-3.8737,0.0875,-0.9213,-1835.69,-1984.25,1998.17
4740,-3.8737,0.0892,-0.9222,-788.82,-1921.75,-1642.46
4750,-3.8737,0.0842,-0.9226,-570.07,1953.25,-1673.71
4760,-3.8737,0.0795,-0.9238,-1210.69,1906.37,1685.67
4770,-3.8737,0.0804,-0.9266,-1820.07,1750.12,732.54
4780,-3.8738,0.0834,-0.9254,-1695.07,1390.75,-142.46
4790,-3.8738,0.0865,-0.9225,-1320.07,1547.00,-736.21
4800,-3.8738,0.0929,-0.9222,-913.82,1922.00,-751.83
4810,-3.8738,0.1018,-0.9213,-101.32,1953.25,-173.71
4820,-3.8737,0.1083,-0.9177,1039.31,-1921.69,935.67
4830,-3.8737,0.1086,-0.9135,1867.43,-1468.57,-1548.71
4840,-3.8737,0.1031,-0.9109,1914.31,-921.69,-64.33
4850,-3.8735,0.0961,-0.9092,1211.18,-593.57,1310.67
4860,-3.8735,0.0895,-0.9098,304.93,-374.82,-1845.58
4870,-3.8735,0.0820,-0.9155,-538.82,-453.00,-1611.21
4880,-3.8735,0.0732,-0.9205,-1491.94,-1187.38,-1751.83
4890,-3.8735,0.0681,-0.9213,1383.06,-1828.00,1888.79
4900,-3.8735,0.0730,-0.9197,726.81,-1921.75,1498.17
4910,-3.8735,0.0868,-0.9180,1351.81,-1718.63,1091.92
4920,-3.8735,0.1034,-0.9165,-882.57,-1499.88,545.04
4930,-3.8737,0.1161,-0.9159,1242.43,-1312.32,-173.71
4940,-3.8737,0.1193,-0.9161,-1132.57,-1234.19,-751.83
4950,-3.8737,0.1113,-0.9131,-726.32,-1265.44,-829.96
4960,-3.8737,0.0996,-0.9091,-1741.94,-874.82,-454.96
4970,-3.8737,0.0929,-0.9099,758.06,-359.19,-95.58
4980,-3.8735,0.0927,-0.9160,-101.32,-468.63,185.67
4990,-3.8735,0.0934,-0.9232,-132.57,-1249.88,451.29
5000,-3.8735,0.0906,-0.9232,-38.82,1828.25,623.17
5010,-3.8735,0.0854,-0.9137,-398.19,1828.25,560.67
5020,-3.8735,0.0829,-0.9031,-1054.44,-953.00,232.54
5030,-3.8737,0.0868,-0.9014,-1382.57,406.37,-173.65
5040,-3.8737,0.0945,-0.9081,-882.57,625.12,-376.77
5050,-3.8737,0.0989,-0.9143,101.81,-234.19,-220.58
5060,-3.8735,0.0977,-0.9148,664.31,-1031.07,91.92
5070,-3.8735,0.0953,-0.9127,508.06,-1093.57,513.79
5080,-3.8735,0.0953,-0.9110,211.18,-827.94,1013.79
5090,-3.8735,0.0957,-0.9119,211.18,-609.19,1466.92
5100,-3.8735,0.0947,-0.9143,258.06,-718.57,1935.67
5110,-3.8735,0.0939,-0.9141,133.06,-1031.07,-1564.33
5120,-3.8735,0.0945,-0.9105,23.68,-999.82,-1111.21
5130,-3.8735,0.0968,-0.9087,101.81,-546.69,-861.21
5140,-3.8735,0.1000,-0.9108,398.68,-312.32,-517.46
5150,-3.8734,0.1013,-0.9122,804.93,-577.94,60.67
5160,-3.8734,0.1010,-0.9094,976.81,-765.44,748.17
5170,-3.8734,0.1011,-0.9031,929.93,-406.07,1545.04
5180,-3.8734,0.1044,-0.8961,945.56,406.43,-1517.40
5190,-3.8734,0.1108,-0.8937,1367.43,1297.06,-517.40
5200,-3.8733,0.1158,-0.8975,-1804.44,1609.56,138.85
5210,-3.8733,0.1177,-0.9031,-1163.82,1125.18,216.98
5220,-3.8733,0.1168,-0.9071,-929.44,406.43,29.48
5230,-3.8734,0.1110,-0.9083,-1038.82,-109.19,-33.08
5240,-3.8733,0.1012,-0.9062,-1788.82,-265.44,123.17
5250,-3.8733,0.0905,-0.9023,961.18,0.18,170.10
5260,-3.8733,0.0802,-0.9010,-413.82,500.12,13.85
5270,-3.8734,0.0726,-0.9034,-1726.32,672.00,-345.52
5280,-3.8734,0.0670,-0.9071,1304.93,359.50,-1111.15
5290,-3.8734,0.0640,-0.9062,586.18,-109.25,-1876.83
5300,-3.8734,0.0635,-0.8977,195.56,0.12,1857.60
5310,-3.8734,0.0607,-0.8918,133.06,1093.87,-1908.02
5320,-3.8734,0.0566,-0.8936,-226.32,1843.81,-1689.27
5330,-3.8734,0.0552,-0.8981,-741.94,1625.06,-1720.52
5340,-3.8734,0.0535,-0.9016,-929.44,1046.94,-1704.90
5350,-3.8734,0.0499,-0.9027,-1148.19,593.81,-1939.27
5360,-3.8734,0.0485,-0.9038,-1601.32,453.19,1591.98
5370,-3.8734,0.0504,-0.9055,-1788.82,312.56,1341.98
5380,-3.8734,0.0533,-0.9060,-1538.82,93.81,1123.23
5390,-3.8734,0.0544,-0.9055,-1163.82,31.31,591.98
5400,-3.8735,0.0547,-0.9060,-1023.19,93.81,-579.90
5410,-3.8735,0.0560,-0.9091,-991.94,31.31,1966.98
5420,-3.8735,0.0602,-0.9125,-820.07,-359.31,607.54
5430,-3.8737,0.0681,-0.9144,-288.82,-796.81,-392.46
5440,-3.8737,0.0781,-0.9141,726.81,-1046.75,-642.46
5450,-3.8737,0.0872,-0.9122,-1991.94,-999.88,-204.96
5460,-3.8735,0.0908,-0.9098,-835.69,-765.50,404.42
5470,-3.8735,0.0880,-0.9066,-366.94,-453.00,810.67
5480,-3.8735,0.0837,-0.9059,-726.32,-46.75,982.54
5490,-3.8735,0.0818,-0.9103,-1273.19,47.00,998.23
5500,-3.8735,0.0822,-0.9156,-1523.19,-515.50,841.92
5510,-3.8735,0.0822,-0.9175,-1476.32,-1203.00,623.17
5520,-3.8735,0.0787,-0.9170,-1476.32,-1437.38,357.54
5530,-3.8735,0.0720,-0.9167,-1913.82,-1374.88,45.04
5540,-3.8737,0.0643,-0.9158,1226.81,-1343.63,-220.58
5550,-3.8737,0.0597,-0.9115,242.43,-1218.63,-392.46
5560,-3.8737,0.0616,-0.9072,-351.32,-671.81,-204.96
5570,-3.8735,0.0695,-0.9052,-101.32,-124.94,373.17
5580,-3.8735,0.0779,-0.9043,898.68,140.75,857.60
5590,-3.8735,0.0839,-0.9067,1976.81,250.12,1091.98
5600,-3.8735,0.0862,-0.9115,-1257.57,-62.38,1216.92
5610,-3.8735,0.0834,-0.9144,-960.69,-671.75,1201.29
5620,-3.8735,0.0757,-0.9147,-1320.07,-1046.75,1045.04
5630,-3.8735,0.0687,-0.9128,1695.56,-1078.00,998.17
5640,-3.8735,0.0680,-0.9105,804.93,-843.63,1216.92
5650,-3.8735,0.0710,-0.9110,711.18,-546.75,1404.42
5660,-3.8735,0.0748,-0.9152,1101.81,-609.25,1451.29
5670,-3.8735,0.0789,-0.9175,1586.18,-1140.50,1513.79
5680,-3.8735,0.0798,-0.9146,-1898.19,-1437.38,1748.17
5690,-3.8735,0.0762,-0.9092,-1773.19,-1062.38,1873.17
5700,-3.8735,0.0734,-0.9060,1758.06,-374.88,1670.04
5710,-3.8735,0.0740,-0.9059,1398.68,31.37,1310.73
5720,-3.8735,0.0757,-0.9069,1476.81,47.00,966.98
5730,-3.8735,0.0770,-0.9089,1695.56,-78.00,732.54
5740,-3.8735,0.0750,-0.9122,1867.43,-343.63,466.92
5750,-3.8735,0.0693,-0.9153,1601.81,-765.50,232.54
5760,-3.8735,0.0640,-0.9163,883.06,-1156.13,138.79
5770,-3.8735,0.0625,-0.9143,195.56,-1281.13,341.92
5780,-3.8735,0.0652,-0.9115,8.06,-1031.13,888.79
5790,-3.8735,0.0693,-0.9104,351.81,-671.75,1451.29
5800,-3.8735,0.0730,-0.9099,883.06,-531.13,1654.42
5810,-3.8735,0.0758,-0.9089,1351.81,-468.63,1670.04
5820,-3.8735,0.0763,-0.9066,1711.18,-343.63,1966.92
5830,-3.8735,0.0741,-0.9016,1773.68,-46.75,-1126.83
5840,-3.8735,0.0717,-0.8961,1492.43,593.87,-95.52
5850,-3.8734,0.0717,-0.8940,1179.93,1297.00,498.23
5860,-3.8734,0.0740,-0.8977,1179.93,1562.62,560.73
5870,-3.8734,0.0763,-0.9066,1476.81,1093.87,170.10
5880,-3.8735,0.0774,-0.9165,1773.68,-46.75,-658.08
5890,-3.8735,0.0787,-0.9211,1914.31,-1312.38,-1673.71
5900,-3.8735,0.0819,-0.9185,-1913.82,-1906.13,1623.17
5910,-3.8735,0.0845,-0.9135,-1507.57,-1562.38,1326.29
5920,-3.8735,0.0861,-0.9108,-1179.44,-921.75,1201.29
5930,-3.8735,0.0881,-0.9087,-976.32,-578.00,1060.67
5940,-3.8735,0.0870,-0.9052,-710.69,-312.38,1091.92
5950,-3.8735,0.0831,-0.9050,-851.32,140.75,1435.73
5960,-3.8735,0.0782,-0.9108,-1351.32,156.37,1716.98
5970,-3.8735,0.0724,-0.9164,-1976.32,-578.00,1654.42
5980,-3.8735,0.0656,-0.9156,1273.68,-1296.75,1451.29
5990,-3.8735,0.0613,-0.9073,398.68,-1203.00,1435.67
6000,-3.8735,0.0623,-0.8994,-148.19,-140.56,1638.79
6010,-3.8735,0.0647,-0.9009,-23.19,875.06,1998.23
6020,-3.8735,0.0647,-0.9102,289.31,687.62,-1861.15
6030,-3.8735,0.0602,-0.9208,289.31,-499.88,1810.67
6040,-3.8735,0.0538,-0.9244,-288.82,-1859.31,1420.04
6050,-3.8735,0.0503,-0.9175,-1101.32,1671.94,1138.79
6060,-3.8735,0.0500,-0.9034,-1554.44,-1437.44,1029.42
6070,-3.8735,0.0557,-0.8923,-1585.69,359.44,1435.73
6080,-3.8735,0.0635,-0.8922,-866.94,1781.31,-1689.27
6090,-3.8735,0.0653,-0.9017,133.06,1797.00,-1158.02
6100,-3.8735,0.0616,-0.9149,367.43,578.25,-1470.52
6110,-3.8735,0.0571,-0.9235,-101.32,-1109.31,1966.92
6120,-3.8735,0.0554,-0.9220,-679.44,1796.94,1701.29
6130,-3.8735,0.0590,-0.9130,-898.19,1984.44,1763.79
6140,-3.8735,0.0671,-0.9036,-445.07,-859.31,-1908.08
6150,-3.8735,0.0750,-0.8993,601.81,343.87,-1408.02
6160,-3.8735,0.0786,-0.9037,1601.81,890.75,-1142.40
6170,-3.8735,0.0767,-0.9138,-1929.44,328.25,-1454.90
6180,-3.8735,0.0710,-0.9194,1820.56,-968.63,1888.79
6190,-3.8735,0.0656,-0.9169,1101.81,-1687.38,1326.29
6200,-3.8735,0.0643,-0.9095,398.68,-1359.25,998.17
6210,-3.8735,0.0671,-0.9031,242.43,-421.75,795.04
6220,-3.8735,0.0697,-0.9043,601.81,406.37,623.23
6230,-3.8735,0.0703,-0.9122,929.93,250.12,170.10
6240,-3.8737,0.0709,-0.9200,1008.06,-765.50,-564.33
6250,-3.8737,0.0737,-0.9205,1086.18,-1765.50,-1064.33
6260,-3.8737,0.0760,-0.9132,1445.56,-1828.00,-814.33
6270,-3.8737,0.0768,-0.9044,1742.43,-890.50,-48.71
6280,-3.8735,0.0791,-0.9009,1836.18,234.50,998.23
6290,-3.8735,0.0803,-0.9052,-1866.94,687.62,-1767.40
6300,-3.8735,0.0776,-0.9125,-1710.69,140.75,-986.15
6310,-3.8735,0.0741,-0.9165,1945.56,-796.75,-814.33
6320,-3.8735,0.0729,-0.9167,1492.43,-1312.38,-954.96
6330,-3.8735,0.0740,-0.9143,1336.18,-1343.63,-1064.33
6340,-3.8735,0.0758,-0.9100,1476.81,-1031.13,-923.71
6350,-3.8735,0.0754,-0.9062,1711.18,-484.25,-579.96
6360,-3.8735,0.0719,-0.9044,1664.31,0.12,-267.40
6370,-3.8735,0.0679,-0.9036,1211.18,234.50,-517.40
6380,-3.8735,0.0668,-0.9026,695.56,343.87,-1142.40
6390,-3.8735,0.0690,-0.9026,554.93,468.87,-1704.90
6400,-3.8735,0.0717,-0.9039,836.18,468.87,1951.35
6410,-3.8735,0.0730,-0.9070,1179.93,297.00,1810.73
6420,-3.8735,0.0725,-0.9111,1351.81,-93.63,1826.29
6430,-3.8735,0.0682,-0.9126,1289.31,-624.88,1810.67
6440,-3.8735,0.0612,-0.9117,742.43,-812.38,1795.04
6450,-3.8735,0.0557,-0.9103,-163.82,-703.06,-1970.58
6460,-3.8735,0.0527,-0.9077,-866.94,-515.56,-1626.83
6470,-3.8735,0.0513,-0.9056,-1241.94,-187.44,-1548.71
6480,-3.8735,0.0520,-0.9075,-1429.44,78.19,-1736.15
6490,-3.8735,0.0560,-0.9094,-1335.69,-156.19,-1892.46
6500,-3.8735,0.0601,-0.9073,-820.07,-406.19,-1751.83
6510,-3.8735,0.0615,-0.9044,-304.44,-140.56,-1236.21
6520,-3.8735,0.0621,-0.9034,-116.94,234.44,-595.52
6530,-3.8735,0.0641,-0.9053,-38.82,359.44,-111.15
6540,-3.8734,0.0688,-0.9095,211.18,125.12,170.10
6550,-3.8734,0.0767,-0.9111,820.56,-421.75,170.04
6560,-3.8735,0.0842,-0.9080,1820.56,-624.88,-173.71
6570,-3.8735,0.0884,-0.9038,-1210.69,-218.63,-642.46
6580,-3.8735,0.0892,-0.9014,-679.44,312.62,-1064.27
6590,-3.8735,0.0876,-0.9027,-570.07,625.12,-1361.15
6600,-3.8735,0.0851,-0.9058,-773.19,453.25,-1486.15
6610,-3.8735,0.0820,-0.9089,-1101.32,62.62,-1283.02
6620,-3.8735,0.0801,-0.9114,-1491.94,-343.63,-908.08
6630,-3.8735,0.0806,-0.9116,-1741.94,-656.13,-658.08
6640,-3.8735,0.0814,-0.9103,-1679.44,-687.38,-345.58
6650,-3.8734,0.0807,-0.9089,-1570.07,-515.50,232.54
6660,-3.8734,0.0780,-0.9083,-1663.82,-343.63,826.29
6670,-3.8734,0.0741,-0.9065,1992.43,-265.50,1185.67
6680,-3.8734,0.0714,-0.9023,1492.43,-31.13,1295.04
6690,-3.8734,0.0708,-0.8988,1148.68,500.12,1279.48
6700,-3.8734,0.0699,-0.8988,1070.56,953.25,904.48
6710,-3.8735,0.0676,-0.9030,961.18,953.25,-17.40
6720,-3.8735,0.0654,-0.9082,664.31,422.00,-1220.52
6730,-3.8735,0.0671,-0.9125,383.06,-249.88,1701.29
6740,-3.8735,0.0717,-0.9141,601.81,-796.75,1154.42
6750,-3.8735,0.0723,-0.9114,1179.93,-999.88,1216.92
6760,-3.8735,0.0685,-0.9082,1258.06,-656.13,1326.29
6770,-3.8735,0.0651,-0.9078,773.68,-249.88,1310.67
6780,-3.8735,0.0640,-0.9088,336.18,-203.00,1435.67
6790,-3.8735,0.0629,-0.9088,195.56,-328.00,1451.29
6800,-3.8735,0.0627,-0.9084,54.93,-328.00,1279.42
6810,-3.8735,0.0647,-0.9097,39.31,-281.13,1091.92
6820,-3.8735,0.0670,-0.9108,289.31,-437.38,920.04
6830,-3.8735,0.0706,-0.9111,586.18,-578.00,701.29
6840,-3.8735,0.0752,-0.9119,1039.31,-624.88,560.67
6850,-3.8735,0.0773,-0.9119,1633.06,-718.63,576.29
6860,-3.8735,0.0767,-0.9111,1898.68,-718.63,638.79
6870,-3.8735,0.0747,-0.9106,1820.56,-624.88,763.79
6880,-3.8735,0.0726,-0.9114,1570.56,-562.38,904.42
6890,-3.8735,0.0704,-0.9121,1304.93,-656.13,951.29
6900,-3.8735,0.0682,-0.9114,1023.68,-749.88,779.42
6910,-3.8735,0.0663,-0.9105,742.43,-656.13,341.92
6920,-3.8737,0.0657,-0.9113,492.43,-546.75,-126.83
6930,-3.8737,0.0660,-0.9128,414.31,-640.50,-267.46
6940,-3.8737,0.0658,-0.9132,461.18,-843.63,-158.08
6950,-3.8735,0.0652,-0.9136,429.93,-890.50,201.29
6960,-3.8735,0.0641,-0.9139,351.81,-937.38,701.29
6970,-3.8735,0.0630,-0.9130,211.18,-984.25,1138.79
6980,-3.8735,0.0647,-0.9102,70.56,-859.25,1795.04
6990,-3.8735,0.0703,-0.9069,289.31,-499.88,-1298.71
7000,-3.8735,0.0751,-0.9050,1008.06,-78.00,-501.83
7010,-3.8734,0.0743,-0.9056,1617.43,156.37,13.85
7020,-3.8734,0.0698,-0.9072,1523.68,78.25,107.60
7030,-3.8735,0.0659,-0.9080,945.56,-124.88,-158.08
7040,-3.8735,0.0632,-0.9082,445.56,-218.63,-408.08
7050,-3.8735,0.0596,-0.9087,101.81,-249.88,-486.21
7060,-3.8735,0.0560,-0.9082,-366.94,-312.44,-517.46
7070,-3.8735,0.0553,-0.9075,-820.07,-249.94,-579.96
7080,-3.8735,0.0566,-0.9073,-913.82,-156.19,-814.33
7090,-3.8735,0.0576,-0.9072,-741.94,-140.56,-1220.58
7100,-3.8735,0.0573,-0.9084,-616.94,-124.94,-1611.21
7110,-3.8735,0.0562,-0.9103,-663.82,-281.19,-1767.46
7120,-3.8735,0.0582,-0.9114,-804.44,-515.56,-1798.71
7130,-3.8735,0.0631,-0.9108,-538.82,-656.19,-1892.46
7140,-3.8735,0.0679,-0.9080,86.18,-578.00,1935.67
7150,-3.8735,0.0726,-0.9066,695.56,-218.63,1638.79
7160,-3.8735,0.0760,-0.9080,1304.93,-46.75,1138.79
7170,-3.8735,0.0756,-0.9106,1742.43,-218.63,529.42
7180,-3.8737,0.0729,-0.9138,1679.93,-562.38,-64.33
7190,-3.8737,0.0720,-0.9166,1336.18,-968.63,-579.96
7200,-3.8737,0.0737,-0.9180,1226.81,-1328.00,-783.08
7210,-3.8737,0.0759,-0.9164,1445.56,-1499.88,-579.96
7220,-3.8737,0.0770,-0.9114,1726.81,-1296.75,-298.71
7230,-3.8737,0.0769,-0.9076,1867.43,-656.13,-79.96
7240,-3.8735,0.0784,-0.9083,1851.81,-171.75,107.54
7250,-3.8735,0.0824,-0.9115,-1960.69,-265.50,154.42
7260,-3.8735,0.0862,-0.9146,-1445.07,-671.75,295.04
7270,-3.8735,0.0874,-0.9147,-960.69,-1062.38,716.92
7280,-3.8735,0.0851,-0.9092,-804.44,-1078.00,1326.29
7290,-3.8735,0.0800,-0.9036,-1101.32,-374.88,1982.54
7300,-3.8735,0.0752,-0.9047,-1757.57,343.87,-1564.27
7310,-3.8735,0.0735,-0.9103,1633.06,203.25,-1173.65
7320,-3.8735,0.0737,-0.9131,1414.31,-515.50,-720.58
7330,-3.8735,0.0739,-0.9120,1445.56,-874.88,-501.83
7340,-3.8735,0.0741,-0.9108,1461.18,-734.25,-533.08
7350,-3.8735,0.0745,-0.9097,1492.43,-578.00,-704.96
7360,-3.8735,0.0718,-0.9092,1539.31,-437.38,-1017.46
7370,-3.8735,0.0664,-0.9095,1195.56,-374.88,-1439.33
7380,-3.8735,0.0624,-0.9098,508.06,-421.75,-1939.33
7390,-3.8735,0.0603,-0.9099,-7.57,-453.06,1654.42
7400,-3.8735,0.0580,-0.9083,-273.19,-468.69,1388.79
7410,-3.8735,0.0558,-0.9067,-570.07,-265.56,1373.17
7420,-3.8735,0.0544,-0.9081,-851.32,-62.44,1623.17
7430,-3.8735,0.0529,-0.9102,-1023.19,-234.31,1920.04
7440,-3.8735,0.0508,-0.9100,-1226.32,-499.94,-1814.33
7450,-3.8735,0.0496,-0.9073,-1491.94,-484.31,-1470.58
7460,-3.8735,0.0483,-0.9069,-1648.19,-140.56,-1111.21
7470,-3.8735,0.0492,-0.9088,-1804.44,-78.06,-1204.96
7480,-3.8735,0.0555,-0.9105,-1695.07,-328.06,-1423.71
7490,-3.8735,0.0652,-0.9125,-882.57,-546.81,-1408.08
7500,-3.8735,0.0742,-0.9128,351.81,-796.75,-1283.08
7510,-3.8735,0.0796,-0.9095,1508.06,-843.63,-954.96
7520,-3.8735,0.0823,-0.9048,-1804.44,-421.75,-595.58
7530,-3.8735,0.0814,-0.9032,-1460.69,187.62,-376.77
7540,-3.8735,0.0765,-0.9072,-1570.07,390.75,-454.90
7550,-3.8735,0.0710,-0.9146,1804.93,-124.88,-1064.33
7560,-3.8735,0.0687,-0.9200,1101.81,-1062.38,-1814.33
7570,-3.8735,0.0693,-0.9194,804.93,-1765.50,1763.79
7580,-3.8735,0.0702,-0.9127,883.06,-1687.38,1685.67
7590,-3.8735,0.0712,-0.9043,992.43,-828.00,1857.54
7600,-3.8735,0.0704,-0.9005,1117.43,250.12,1966.98
7610,-3.8735,0.0682,-0.9043,1023.68,734.50,1607.60
7620,-3.8735,0.0684,-0.9133,742.43,250.12,701.35
7630,-3.8737,0.0724,-0.9241,758.06,-906.13,-486.21
7640,-3.8737,0.0781,-0.9308,1273.68,1718.87,-1283.08
7650,-3.8737,0.0822,-0.9271,-1991.94,859.50,-1314.33
7660,-3.8737,0.0829,-0.9159,-1476.32,1328.25,-783.08
7670,-3.8735,0.0800,-0.9064,-1382.57,-1234.25,60.67
7680,-3.8735,0.0741,-0.9037,-1757.57,-15.50,748.17
7690,-3.8735,0.0658,-0.9058,1492.43,328.25,998.23
7700,-3.8735,0.0568,-0.9086,429.93,62.62,810.73
7710,-3.8735,0.0498,-0.9110,-726.32,-296.81,482.54
7720,-3.8735,0.0459,-0.9147,-1616.94,-609.31,279.42
7730,-3.8735,0.0452,-0.9175,1883.06,-1078.06,154.42
7740,-3.8735,0.0482,-0.9169,1789.31,-1437.44,216.92
7750,-3.8735,0.0522,-0.9139,-1820.07,-1359.31,451.29
7760,-3.8735,0.0554,-0.9100,-1304.44,-984.31,826.29
7770,-3.8735,0.0577,-0.9070,-898.19,-484.31,1404.42
7780,-3.8735,0.0565,-0.9065,-601.32,-93.69,-1986.21
7790,-3.8735,0.0504,-0.9089,-757.57,-31.19,-1501.83
7800,-3.8735,0.0433,-0.9116,-1538.82,-343.69,-1361.21
7810,-3.8735,0.0404,-0.9104,1554.93,-687.44,-1579.96
7820,-3.8735,0.0428,-0.9075,1179.93,-531.19,-1829.96
7830,-3.8735,0.0485,-0.9069,1492.43,-156.19,-1845.58
7840,-3.8735,0.0546,-0.9084,-1788.82,-78.06,-1829.96
7850,-3.8735,0.0579,-0.9094,-1007.57,-281.19,-1829.96
7860,-3.8735,0.0570,-0.9098,-585.69,-406.19,-1861.21
7870,-3.8735,0.0575,-0.9104,-695.07,-453.06,-1892.46
7880,-3.8735,0.0614,-0.9095,-632.57,-531.19,-1892.46
7890,-3.8735,0.0673,-0.9097,-132.57,-421.81,1904.42
7900,-3.8735,0.0753,-0.9126,617.43,-437.38,1623.17
7910,-3.8735,0.0818,-0.9144,1648.68,-812.38,1326.29
7920,-3.8735,0.0840,-0.9135,-1523.19,-1046.75,857.54
7930,-3.8735,0.0844,-0.9131,-1241.94,-921.75,310.67
7940,-3.8737,0.0833,-0.9150,-1195.07,-874.88,-251.83
7950,-3.8737,0.0806,-0.9167,-1335.69,-1124.88,-595.58
7960,-3.8737,0.0787,-0.9164,-1679.44,-1343.63,-658.08
7970,-3.8737,0.0780,-0.9163,-1913.82,-1296.75,-626.83
7980,-3.8737,0.0771,-0.9154,1992.43,-1281.13,-470.58
7990,-3.8737,0.0760,-0.9115,1883.06,-1171.75,-48.71
8000,-3.8735,0.0747,-0.9087,1742.43,-671.75,404.42
8010,-3.8735,0.0726,-0.9102,1570.56,-312.38,591.92
8020,-3.8735,0.0704,-0.9138,1304.93,-499.88,763.79
8030,-3.8735,0.0660,-0.9158,1023.68,-968.63,1091.92
8040,-3.8735,0.0591,-0.9143,461.18,-1218.63,1420.04
8050,-3.8735,0.0541,-0.9110,-429.44,-1031.19,1748.17
8060,-3.8735,0.0521,-0.9081,-1070.07,-609.31,-1673.71
8070,-3.8735,0.0516,-0.9058,-1320.07,-234.31,-1064.33
8080,-3.8735,0.0525,-0.9050,-1382.57,62.56,-767.40
8090,-3.8735,0.0542,-0.9065,-1273.19,156.31,-892.40
8100,-3.8735,0.0568,-0.9083,-1054.44,-31.19,-1204.96
8110,-3.8735,0.0603,-0.9097,-726.32,-265.56,-1689.33
8120,-3.8735,0.0670,-0.9117,-273.19,-437.44,1420.04
8130,-3.8735,0.0770,-0.9155,586.18,-703.00,529.42
8140,-3.8735,0.0862,-0.9182,1867.43,-1187.38,295.04
8150,-3.8735,0.0896,-0.9158,-960.69,-1531.13,748.17
8160,-3.8735,0.0863,-0.9103,-523.19,-1218.63,1498.17
8170,-3.8735,0.0795,-0.9054,-945.07,-515.50,-1751.83
8180,-3.8735,0.0726,-0.9038,-1820.07,109.50,-1189.27
8190,-3.8735,0.0667,-0.9076,1304.93,312.62,-986.15
8200,-3.8735,0.0625,-0.9136,539.31,-171.75,-1189.33
8210,-3.8735,0.0613,-0.9148,8.06,-937.38,-1423.71
8220,-3.8735,0.0626,-0.9105,-148.19,-1093.69,-1626.83
8230,-3.8735,0.0652,-0.9054,23.68,-546.75,-1736.21
8240,-3.8735,0.0673,-0.9033,351.81,109.50,-1611.15
8250,-3.8735,0.0680,-0.9036,617.43,375.12,-1611.15
8260,-3.8735,0.0680,-0.9054,711.18,343.87,-1829.90
8270,-3.8735,0.0653,-0.9093,711.18,109.50,1857.60
8280,-3.8735,0.0602,-0.9142,367.43,-390.50,1388.79
8290,-3.8735,0.0559,-0.9152,-288.82,-1015.56,841.92
8300,-3.8735,0.0540,-0.9124,-835.69,-1140.56,435.67
8310,-3.8735,0.0537,-0.9089,-1085.69,-781.19,279.42
8320,-3.8735,0.0555,-0.9069,-1116.94,-343.69,263.79
8330,-3.8735,0.0582,-0.9067,-882.57,-78.06,326.29
8340,-3.8735,0.0612,-0.9072,-538.82,-62.44,560.67
8350,-3.8735,0.0660,-0.9086,-163.82,-124.94,1013.79
8360,-3.8735,0.0721,-0.9120,461.18,-296.75,1513.79
8370,-3.8735,0.0792,-0.9138,1242.43,-734.25,-1814.33
8380,-3.8735,0.0841,-0.9110,-1851.32,-968.63,-954.96
8390,-3.8735,0.0840,-0.9066,-1226.32,-609.25,-64.33
8400,-3.8734,0.0802,-0.9036,-1241.94,-46.75,576.29
8410,-3.8734,0.0728,-0.9016,-1726.32,343.87,591.98
8420,-3.8734,0.0626,-0.9014,1320.56,593.87,216.98
8430,-3.8735,0.0560,-0.9030,23.68,625.12,-204.90
8440,-3.8735,0.0579,-0.9069,-820.07,421.94,-642.40
8450,-3.8735,0.0667,-0.9124,-585.69,-78.06,-970.58
8460,-3.8735,0.0767,-0.9147,539.31,-781.13,-1173.71
8470,-3.8735,0.0824,-0.9108,1820.56,-1078.00,-1158.08
8480,-3.8735,0.0826,-0.9034,-1445.07,-578.00,-736.21
8490,-3.8734,0.0780,-0.8973,-1413.82,359.50,13.85
8500,-3.8734,0.0714,-0.8970,1992.43,1140.75,623.23
8510,-3.8734,0.0670,-0.9022,1148.68,1187.62,732.60
8520,-3.8734,0.0664,-0.9084,586.18,515.75,404.48
8530,-3.8734,0.0667,-0.9110,508.06,-281.13,138.79
8540,-3.8734,0.0669,-0.9081,539.31,-609.25,279.42
8550,-3.8734,0.0663,-0.9031,570.56,-234.25,607.54
8560,-3.8734,0.0641,-0.9012,492.43,406.37,779.48
8570,-3.8734,0.0616,-0.9041,211.18,640.75,763.85
8580,-3.8734,0.0607,-0.9091,-101.32,281.31,607.60
8590,-3.8734,0.0618,-0.9126,-226.32,-359.31,295.04
8600,-3.8735,0.0641,-0.9114,-85.69,-812.44,-48.71
8610,-3.8735,0.0665,-0.9075,211.18,-656.13,-267.46
8620,-3.8735,0.0703,-0.9045,523.68,-156.13,-283.08
8630,-3.8735,0.0739,-0.9028,1008.06,218.87,-111.15
8640,-3.8735,0.0743,-0.9026,1461.18,437.62,-95.52
8650,-3.8735,0.0712,-0.9042,1523.68,468.87,-470.52
8660,-3.8735,0.0647,-0.9064,1117.43,265.75,-1126.77
8670,-3.8735,0.0564,-0.9084,289.31,-15.50,-1533.08
8680,-3.8735,0.0482,-0.9087,-773.19,-281.19,-1611.21
8690,-3.8735,0.0428,-0.9076,-1820.07,-312.44,-1611.21
8700,-3.8735,0.0404,-0.9065,1492.43,-171.81,-1642.46
8710,-3.8735,0.0413,-0.9050,1179.93,-31.19,-1829.96
8720,-3.8735,0.0437,-0.9047,1289.31,156.31,1982.60
8730,-3.8735,0.0465,-0.9072,1601.81,203.19,1873.23
8740,-3.8735,0.0497,-0.9113,1961.18,-124.94,1716.92
8750,-3.8735,0.0516,-0.9131,-1632.57,-640.56,1638.79
8760,-3.8735,0.0519,-0.9111,-1382.57,-874.94,1810.67
8770,-3.8735,0.0521,-0.9060,-1351.32,-624.94,-1908.08
8780,-3.8735,0.0544,-0.9016,-1320.07,31.31,-1689.27
8790,-3.8735,0.0618,-0.9010,-1023.19,593.81,-1642.40
8800,-3.8735,0.0717,-0.9047,-85.69,671.94,-1908.02
8810,-3.8735,0.0793,-0.9093,1179.93,203.25,1654.48
8820,-3.8735,0.0825,-0.9115,-1835.69,-390.50,1232.54
8830,-3.8735,0.0814,-0.9126,-1429.44,-671.75,998.17
8840,-3.8735,0.0780,-0.9136,-1570.07,-812.38,1076.29
8850,-3.8735,0.0750,-0.9127,1992.43,-937.38,1357.54
8860,-3.8735,0.0748,-0.9102,1601.81,-828.00,1670.04
8870,-3.8735,0.0767,-0.9077,1586.18,-499.88,1920.04
8880,-3.8735,0.0786,-0.9059,1820.56,-187.38,-1736.21
8890,-3.8735,0.0780,-0.9049,-1929.44,47.00,-1158.02
8900,-3.8735,0.0736,-0.9050,1992.43,172.00,-548.65
8910,-3.8735,0.0692,-0.9058,1429.93,156.37,-158.02
8920,-3.8734,0.0673,-0.9043,867.43,62.62,60.73
8930,-3.8734,0.0669,-0.9025,617.43,250.12,435.73
8940,-3.8734,0.0681,-0.9033,570.56,484.50,982.60
8950,-3.8734,0.0686,-0.9050,726.81,375.12,1341.98
8960,-3.8734,0.0674,-0.9064,789.31,156.37,1373.23
8970,-3.8734,0.0679,-0.9071,633.06,-15.50,1185.67
8980,-3.8734,0.0723,-0.9072,695.56,-109.25,795.04
8990,-3.8734,0.0773,-0.9062,1258.06,-124.88,529.42
9000,-3.8734,0.0786,-0.9039,1898.68,0.12,591.98
9010,-3.8734,0.0746,-0.9023,-1929.44,297.00,654.48
9020,-3.8734,0.0669,-0.9022,1554.93,500.12,529.48
9030,-3.8734,0.0596,-0.9036,570.56,515.75,123.23
9040,-3.8735,0.0558,-0.9058,-366.94,343.81,-329.90
9050,-3.8735,0.0557,-0.9078,-851.32,62.56,-642.40
9060,-3.8735,0.0570,-0.9087,-866.94,-203.06,-595.58
9070,-3.8735,0.0576,-0.9076,-695.07,-312.44,-329.96
9080,-3.8735,0.0577,-0.9055,-616.94,-171.81,-220.58
9090,-3.8735,0.0581,-0.9034,-601.32,93.81,-189.27
9100,-3.8735,0.0573,-0.9019,-554.44,359.44,-142.40
9110,-3.8735,0.0553,-0.9031,-663.82,562.56,-251.77
9120,-3.8735,0.0541,-0.9066,-913.82,406.31,-642.40
9130,-3.8735,0.0530,-0.9087,-1070.07,-46.81,-1142.46
9140,-3.8735,0.0519,-0.9091,-1210.69,-312.44,-1673.71
9150,-3.8735,0.0533,-0.9084,-1351.32,-359.31,1857.54
9160,-3.8735,0.0542,-0.9061,-1163.82,-281.19,1654.42
9170,-3.8735,0.0502,-0.9042,-1054.44,15.69,1529.48
9180,-3.8735,0.0453,-0.9050,-1570.07,265.69,1248.23
9190,-3.8735,0.0450,-0.9091,1804.93,156.31,826.35
9200,-3.8735,0.0490,-0.9137,1773.68,-359.31,466.92
9210,-3.8735,0.0532,-0.9152,-1726.32,-953.06,170.04
9220,-3.8735,0.0581,-0.9143,-1179.44,-1140.56,91.92
9230,-3.8735,0.0647,-0.9126,-554.44,-1031.19,435.67
9240,-3.8735,0.0695,-0.9095,289.31,-812.38,888.79
9250,-3.8735,0.0696,-0.9072,898.68,-421.75,1060.67
9260,-3.8735,0.0677,-0.9076,914.31,-124.88,1154.42
9270,-3.8735,0.0676,-0.9080,679.93,-171.75,1341.92
9280,-3.8735,0.0691,-0.9077,664.31,-218.63,1482.54
9290,-3.8735,0.0702,-0.9084,851.81,-187.38,1607.54
9300,-3.8735,0.0702,-0.9109,992.43,-281.13,1763.79
9310,-3.8735,0.0688,-0.9132,992.43,-593.63,1904.42
9320,-3.8735,0.0660,-0.9128,820.56,-890.50,-1829.96
9330,-3.8735,0.0621,-0.9097,461.18,-843.63,-1329.96
9340,-3.8735,0.0577,-0.9053,-38.82,-437.44,-783.08
9350,-3.8735,0.0548,-0.9021,-601.32,125.06,-470.52
9360,-3.8735,0.0543,-0.9021,-976.32,531.31,-439.27
9370,-3.8735,0.0554,-0.9047,-1038.82,531.31,-533.02
9380,-3.8735,0.0560,-0.9070,-898.19,203.19,-751.77
9390,-3.8735,0.0566,-0.9075,-820.07,-93.69,-1079.96
9400,-3.8735,0.0583,-0.9069,-741.94,-156.19,-1220.58
9410,-3.8735,0.0624,-0.9053,-523.19,-78.06,-1126.83
9420,-3.8735,0.0676,-0.9038,-7.57,125.06,-1111.15
9430,-3.8735,0.0721,-0.9050,664.31,312.62,-1251.77
9440,-3.8735,0.0745,-0.9067,1242.43,156.37,-1392.40
9450,-3.8735,0.0742,-0.9072,1539.31,-62.38,-1626.83
9460,-3.8735,0.0729,-0.9076,1508.06,-124.88,1935.67
9470,-3.8735,0.0710,-0.9081,1336.18,-171.75,1482.54
9480,-3.8735,0.0704,-0.9094,1101.81,-234.25,1295.04
9490,-3.8735,0.0706,-0.9100,1023.68,-406.13,1310.67
9500,-3.8735,0.0704,-0.9084,1039.31,-484.25,1388.79
9510,-3.8735,0.0691,-0.9064,1023.68,-281.13,1529.42
9520,-3.8735,0.0659,-0.9047,851.81,-15.50,1873.17
9530,-3.8735,0.0626,-0.9045,445.56,203.25,-1814.27
9540,-3.8735,0.0613,-0.9061,23.68,218.87,-1548.65
9550,-3.8735,0.0615,-0.9064,-148.19,15.69,-1095.52
9560,-3.8735,0.0603,-0.9049,-116.94,-15.56,-579.96
9570,-3.8734,0.0565,-0.9028,-273.19,171.94,91.98
9580,-3.8734,0.0522,-0.9009,-757.57,437.56,982.60
9590,-3.8734,0.0481,-0.8999,-1304.44,687.56,1904.48
9600,-3.8734,0.0435,-0.8986,-1835.69,812.56,-1470.52
9610,-3.8734,0.0406,-0.8977,1570.56,984.44,-1173.65
9620,-3.8734,0.0430,-0.8986,1211.18,1093.81,-1048.65
9630,-3.8734,0.0492,-0.8995,1508.06,984.44,-876.77
9640,-3.8734,0.0571,-0.8987,-1695.07,859.44,-673.65
9650,-3.8734,0.0668,-0.8990,-679.44,968.81,-548.65
9660,-3.8734,0.0765,-0.9017,554.93,922.00,-564.27
9670,-3.8734,0.0853,-0.9049,1804.93,578.25,-1111.15
9680,-3.8734,0.0927,-0.9073,-1070.07,172.00,1920.10
9690,-3.8734,0.0970,-0.9077,-132.57,-140.50,1107.54
9700,-3.8734,0.0983,-0.9058,429.93,-187.32,545.04
9710,-3.8734,0.0968,-0.9027,586.18,62.68,91.98
9720,-3.8735,0.0940,-0.9001,398.68,453.31,-329.90
9730,-3.8735,0.0900,-0.9000,39.31,781.43,-876.77
9740,-3.8735,0.0842,-0.9032,-476.32,797.00,-1548.65
9750,-3.8735,0.0771,-0.9075,-1210.69,390.75,1935.73
9760,-3.8735,0.0692,-0.9095,1883.06,-156.13,1732.54
9770,-3.8735,0.0585,-0.9078,867.43,-421.75,1810.67
9780,-3.8735,0.0459,-0.9038,-507.57,-203.06,-1845.58
9790,-3.8735,0.0367,-0.9004,1883.06,312.56,-1392.40
9800,-3.8735,0.0319,-0.8987,711.18,750.06,-1064.27
9810,-3.8735,0.0276,-0.9004,86.18,968.81,-1001.77
9820,-3.8735,0.0261,-0.9036,-460.69,750.00,-1126.77
9830,-3.8735,0.0291,-0.9058,-648.19,343.75,-1111.15
9840,-3.8735,0.0331,-0.9054,-273.19,62.50,-1064.27
9850,-3.8735,0.0404,-0.9037,242.43,109.44,-1048.65
9860,-3.8735,0.0535,-0.9026,1179.93,328.19,-908.02
9870,-3.8735,0.0669,-0.9041,-1148.19,468.81,-548.65
9880,-3.8735,0.0760,-0.9061,570.56,281.37,-111.15
9890,-3.8734,0.0809,-0.9061,1742.43,15.75,45.10
9900,-3.8734,0.0817,-0.9052,-1632.57,15.75,13.85
9910,-3.8735,0.0820,-0.9042,-1538.82,140.75,-48.65
9920,-3.8734,0.0867,-0.9012,-1491.94,265.75,138.85
9930,-3.8734,0.0927,-0.8979,-898.19,640.75,560.73
9940,-3.8734,0.0953,-0.8984,-132.57,1062.62,888.85
9950,-3.8734,0.0958,-0.9037,211.18,1000.18,1123.23
9960,-3.8734,0.0952,-0.9091,273.68,328.31,1357.60
9970,-3.8734,0.0919,-0.9094,195.56,-359.19,1545.04
9980,-3.8734,0.0854,-0.9050,-226.32,-406.13,1716.92
9990,-3.8734,0.0776,-0.9006,-1054.44,156.37,1966.98
10000,-3.8734,0.0693,-0.9000,1945.56,718.87,-1876.77
10010,-3.8734,0.0603,-0.9016,883.06,797.00,1935.73
10020,-3.8734,0.0516,-0.9033,-273.19,593.81,1404.48
10030,-3.8734,0.0455,-0.9033,-1382.57,375.06,810.73
10040,-3.8734,0.0443,-0.9015,1836.18,375.06,388.85
10050,-3.8734,0.0479,-0.9000,1679.93,609.44,341.98
10060,-3.8734,0.0542,-0.9000,-1866.94,796.94,560.73
10070,-3.8734,0.0626,-0.9010,-1054.44,796.94,685.73
10080,-3.8734,0.0713,-0.9022,23.68,672.00,623.23
10090,-3.8734,0.0781,-0.9026,1133.06,515.75,482.60
10100,-3.8734,0.0804,-0.9019,-1991.94,468.87,310.73
10110,-3.8734,0.0779,-0.9004,-1695.07,562.62,138.85
10120,-3.8734,0.0737,-0.9005,1976.81,750.12,76.35
10130,-3.8734,0.0698,-0.9027,1445.56,734.50,123.23
10140,-3.8734,0.0653,-0.9044,945.56,453.25,91.98
10150,-3.8735,0.0599,-0.9054,367.43,234.50,-79.90
10160,-3.8735,0.0562,-0.9056,-320.07,109.44,-361.15
10170,-3.8735,0.0560,-0.9044,-804.44,78.19,-564.27
10180,-3.8735,0.0583,-0.9028,-820.07,234.44,-751.77
10190,-3.8735,0.0610,-0.9019,-523.19,437.56,-986.15
10200,-3.8735,0.0640,-0.9016,-179.44,562.56,-1126.77
10210,-3.8735,0.0659,-0.9027,195.56,593.87,-1142.40
10220,-3.8735,0.0652,-0.9053,445.56,453.25,-1158.02
10230,-3.8735,0.0616,-0.9058,351.81,125.12,-1189.27
10240,-3.8735,0.0599,-0.9036,-101.32,62.56,-1158.02
10250,-3.8735,0.0632,-0.9011,-320.07,343.81,-1079.90
10260,-3.8735,0.0679,-0.9001,101.81,656.37,-845.52
10270,-3.8735,0.0693,-0.9019,695.56,781.37,-486.15
10280,-3.8735,0.0667,-0.9053,883.06,562.62,-392.40
10290,-3.8735,0.0631,-0.9075,539.31,125.12,-408.02
10300,-3.8735,0.0630,-0.9069,86.18,-156.13,-329.96
10310,-3.8735,0.0662,-0.9031,70.56,-78.00,-158.08
10320,-3.8734,0.0714,-0.8989,476.81,406.37,123.23
10330,-3.8734,0.0768,-0.8989,1148.68,937.62,435.73
10340,-3.8734,0.0796,-0.9023,1836.18,937.62,623.23
10350,-3.8734,0.0797,-0.9055,-1804.44,500.12,591.98
10360,-3.8734,0.0780,-0.9061,-1788.82,93.87,623.23
10370,-3.8734,0.0756,-0.9042,1992.43,15.75,841.98
10380,-3.8734,0.0736,-0.9019,1679.93,265.75,1326.35
10390,-3.8734,0.0732,-0.9003,1429.93,562.62,-1970.52
10400,-3.8734,0.0734,-0.8982,1383.06,765.75,-1236.15
10410,-3.8734,0.0720,-0.8966,1398.68,1031.37,-642.40
10420,-3.8734,0.0686,-0.8972,1226.81,1234.50,-298.65
10430,-3.8734,0.0637,-0.8988,789.31,1156.37,-283.02
10440,-3.8734,0.0586,-0.8998,164.31,953.25,-658.02
10450,-3.8734,0.0559,-0.8998,-491.94,828.19,-1158.02
10460,-3.8734,0.0564,-0.8999,-835.69,828.19,-1720.52
10470,-3.8734,0.0574,-0.9009,-773.19,812.56,1654.48
10480,-3.8734,0.0570,-0.9023,-648.19,687.56,841.98
10490,-3.8735,0.0575,-0.9041,-695.07,500.06,-111.15
10500,-3.8735,0.0618,-0.9043,-632.57,281.31,-923.65
10510,-3.8735,0.0682,-0.9031,-85.69,250.06,-1501.77
10520,-3.8735,0.0736,-0.9028,742.43,406.37,-1767.40
10530,-3.8735,0.0768,-0.9045,1429.93,437.62,-1861.15
10540,-3.8735,0.0792,-0.9073,1836.18,218.87,1888.85
10550,-3.8735,0.0808,-0.9083,-1851.32,-140.50,1513.79
10560,-3.8735,0.0796,-0.9093,-1648.19,-265.50,1201.29
10570,-3.8735,0.0771,-0.9110,-1804.44,-390.50,998.17
10580,-3.8735,0.0752,-0.9108,1883.06,-609.25,1029.42
10590,-3.8735,0.0732,-0.9083,1633.06,-578.00,1248.17
10600,-3.8735,0.0726,-0.9048,1383.06,-265.50,1638.79
10610,-3.8735,0.0720,-0.9036,1304.93,187.62,-1814.27
10620,-3.8735,0.0691,-0.9049,1226.81,343.87,-1283.02
10630,-3.8735,0.0649,-0.9058,851.81,172.00,-1001.77
10640,-3.8735,0.0607,-0.9056,320.56,62.62,-829.90
10650,-3.8735,0.0582,-0.9043,-226.32,78.19,-454.90
10660,-3.8734,0.0591,-0.9031,-538.82,250.06,13.85
10670,-3.8734,0.0614,-0.9044,-429.44,406.31,513.85
10680,-3.8734,0.0625,-0.9054,-132.57,234.44,1154.48
10690,-3.8734,0.0609,-0.9034,8.06,109.50,1670.10
10700,-3.8734,0.0576,-0.9004,-195.07,359.44,1716.98
10710,-3.8734,0.0548,-0.8977,-616.94,750.06,1545.10
10720,-3.8734,0.0520,-0.8973,-976.32,1093.81,1341.98
10730,-3.8734,0.0497,-0.9005,-1335.69,1140.69,920.10
10740,-3.8734,0.0505,-0.9047,-1632.57,734.44,357.60
10750,-3.8735,0.0522,-0.9082,-1523.19,203.19,-64.27
10760,-3.8735,0.0515,-0.9094,-1304.44,-249.94,-267.46
10770,-3.8735,0.0513,-0.9065,-1398.19,-406.19,-236.21
10780,-3.8735,0.0563,-0.9011,-1429.44,-31.19,-17.46
10790,-3.8734,0.0656,-0.8978,-788.82,656.31,263.85
10800,-3.8734,0.0739,-0.8993,398.68,1078.25,388.85
10810,-3.8734,0.0782,-0.9034,1461.18,890.75,45.10
10820,-3.8735,0.0787,-0.9081,-1976.32,359.50,-658.02
10830,-3.8735,0.0784,-0.9106,-1913.82,-234.25,-1345.58
10840,-3.8735,0.0798,-0.9102,-1960.69,-562.38,-1876.83
10850,-3.8735,0.0820,-0.9081,-1773.19,-499.88,1920.04
10860,-3.8735,0.0833,-0.9073,-1491.94,-234.25,1920.04
10870,-3.8735,0.0826,-0.9095,-1335.69,-140.50,1826.29
10880,-3.8735,0.0803,-0.9108,-1413.82,-421.75,1716.92
10890,-3.8735,0.0770,-0.9094,-1710.69,-578.00,1920.04
10900,-3.8735,0.0734,-0.9062,1867.43,-406.13,-1501.83
10910,-3.8735,0.0698,-0.9017,1398.68,0.12,-783.02
10920,-3.8735,0.0663,-0.8983,945.56,578.25,-1.77
10930,-3.8734,0.0631,-0.8988,492.43,1015.75,623.23
10940,-3.8734,0.0610,-0.9025,86.18,953.25,810.73
10950,-3.8734,0.0601,-0.9070,-179.44,484.44,670.10
10960,-3.8734,0.0602,-0.9093,-304.44,-93.69,279.42
10970,-3.8735,0.0604,-0.9070,-288.82,-390.56,-48.71
10980,-3.8735,0.0598,-0.9026,-257.57,-93.69,-64.33
10990,-3.8734,0.0594,-0.8993,-335.69,468.81,76.35
11000,-3.8734,0.0598,-0.8977,-382.57,890.69,170.10
11010,-3.8735,0.0593,-0.8990,-335.69,1093.81,-1.77
11020,-3.8735,0.0577,-0.9038,-398.19,921.94,-470.52
11030,-3.8735,0.0553,-0.9097,-601.32,312.56,-1001.77
11040,-3.8735,0.0535,-0.9127,-913.82,-437.44,-1345.58
11050,-3.8735,0.0557,-0.9116,-1148.19,-828.06,-1376.83
11060,-3.8735,0.0610,-0.9076,-866.94,-687.44,-1064.33
11070,-3.8735,0.0663,-0.9026,-179.44,-171.81,-767.46
11080,-3.8735,0.0706,-0.9009,492.43,468.87,-783.02
11090,-3.8735,0.0725,-0.9038,1039.31,687.62,-1033.02
11100,-3.8735,0.0725,-0.9083,1289.31,312.62,-1486.15
11110,-3.8735,0.0732,-0.9122,1289.31,-265.50,-1970.58
11120,-3.8735,0.0756,-0.9130,1383.06,-765.50,1904.42
11130,-3.8735,0.0785,-0.9087,1679.93,-859.25,-1689.33
11140,-3.8735,0.0786,-0.9010,-1945.07,-312.38,-720.58
11150,-3.8734,0.0752,-0.8933,-1929.44,672.00,716.98
11160,-3.8734,0.0696,-0.8893,1633.06,1656.37,-1736.15
11170,-3.8734,0.0613,-0.8903,914.31,-1828.00,-470.52
11180,-3.8733,0.0525,-0.8956,-148.19,-1953.06,45.10
11190,-3.8734,0.0464,-0.9020,-1273.19,1359.44,-95.52
11200,-3.8734,0.0441,-0.9062,1945.56,546.94,-501.77
11210,-3.8734,0.0468,-0.9077,1648.68,0.06,-1158.02
11220,-3.8734,0.0546,-0.9071,1992.43,-187.44,-1814.33
11230,-3.8734,0.0636,-0.9038,-1007.57,-109.31,1841.92
11240,-3.8734,0.0690,-0.8995,148.68,312.62,1779.48
11250,-3.8734,0.0691,-0.8983,836.18,859.50,1732.60
11260,-3.8734,0.0641,-0.8989,851.81,1015.75,1529.48
11270,-3.8734,0.0564,-0.9000,211.18,937.62,1123.23
11280,-3.8734,0.0499,-0.9020,-773.19,796.94,607.60
11290,-3.8734,0.0465,-0.9031,-1601.32,546.94,107.60
11300,-3.8735,0.0453,-0.9038,1961.18,406.31,-314.27
11310,-3.8735,0.0469,-0.9059,1804.93,312.56,-689.27
11320,-3.8735,0.0520,-0.9080,-1991.94,46.94,-1142.40
11330,-3.8735,0.0588,-0.9087,-1335.69,-218.69,-1564.33
11340,-3.8735,0.0645,-0.9072,-460.69,-312.44,-1923.71
11350,-3.8735,0.0703,-0.9062,258.06,-124.88,1701.29
11360,-3.8735,0.0779,-0.9082,1008.06,0.12,1388.85
11370,-3.8735,0.0840,-0.9110,1976.81,-249.88,998.17
11380,-3.8735,0.0868,-0.9132,-1241.94,-609.25,529.42
11390,-3.8735,0.0870,-0.9137,-882.57,-890.50,404.42
11400,-3.8735,0.0840,-0.9109,-851.32,-953.00,732.54
11410,-3.8735,0.0786,-0.9055,-1241.94,-593.63,1216.92
11420,-3.8735,0.0740,-0.9011,-1929.44,93.87,1779.48
11430,-3.8735,0.0695,-0.9001,1476.81,656.37,-1689.27
11440,-3.8735,0.0645,-0.9020,898.68,781.37,-1189.27
11450,-3.8735,0.0607,-0.9054,258.06,547.00,-751.77
11460,-3.8735,0.0581,-0.9077,-226.32,109.44,-470.52
11470,-3.8735,0.0564,-0.9073,-554.44,-187.44,-408.08
11480,-3.8735,0.0552,-0.9059,-773.19,-140.56,-376.83
11490,-3.8735,0.0531,-0.9034,-929.44,46.94,-33.02
11500,-3.8734,0.0494,-0.8998,-1195.07,359.44,513.85
11510,-3.8734,0.0463,-0.8978,-1663.82,828.19,1060.73
11520,-3.8734,0.0449,-0.8984,1929.93,1078.19,1513.85
11530,-3.8734,0.0441,-0.9000,1758.06,1000.06,1670.10
11540,-3.8734,0.0414,-0.9014,1648.68,796.94,1576.35
11550,-3.8734,0.0382,-0.9016,1304.93,625.06,1404.48
11560,-3.8734,0.0359,-0.9017,898.68,593.81,1295.10
11570,-3.8734,0.0352,-0.9034,601.81,578.19,1216.98
11580,-3.8734,0.0370,-0.9055,508.06,359.44,982.60
11590,-3.8734,0.0417,-0.9042,742.43,93.81,685.73
11600,-3.8734,0.0492,-0.8999,1351.81,265.69,435.73
11610,-3.8734,0.0591,-0.8971,-1695.07,812.56,123.23
11620,-3.8735,0.0695,-0.8993,-429.44,1171.94,-220.52
11630,-3.8735,0.0765,-0.9053,898.68,890.75,-564.27
11640,-3.8735,0.0782,-0.9106,1804.93,125.12,-876.77
11650,-3.8735,0.0779,-0.9128,-1976.32,-562.38,-1142.46
11660,-3.8735,0.0778,-0.9121,1976.81,-843.63,-1158.08
11670,-3.8735,0.0764,-0.9098,1961.18,-749.88,-845.58
11680,-3.8735,0.0730,-0.9067,1789.31,-453.00,-548.71
11690,-3.8735,0.0695,-0.9041,1351.81,-62.38,-439.33
11700,-3.8735,0.0660,-0.9031,898.68,281.37,-298.65
11710,-3.8735,0.0629,-0.9037,461.18,406.37,-267.40
11720,-3.8735,0.0625,-0.9041,54.93,328.25,-314.27
11730,-3.8735,0.0631,-0.9032,8.06,281.37,-439.27
11740,-3.8735,0.0624,-0.9039,86.18,390.75,-751.77
11750,-3.8735,0.0618,-0.9056,-7.57,296.94,-1048.65
11760,-3.8735,0.0605,-0.9067,-85.69,78.19,-1220.52
11770,-3.8735,0.0577,-0.9073,-241.94,-62.44,-1158.08
11780,-3.8735,0.0542,-0.9062,-601.32,-140.56,-892.46
11790,-3.8735,0.0515,-0.9037,-1054.44,0.06,-439.27
11800,-3.8735,0.0500,-0.9014,-1398.19,328.19,-1.77
11810,-3.8734,0.0499,-0.9005,-1585.69,625.06,232.60
11820,-3.8734,0.0510,-0.9014,-1601.32,734.44,232.60
11830,-3.8734,0.0509,-0.9027,-1460.69,625.06,123.23
11840,-3.8735,0.0502,-0.9042,-1476.32,453.19,-1.77
11850,-3.8735,0.0510,-0.9055,-1570.07,265.69,-298.65
11860,-3.8735,0.0530,-0.9061,-1460.69,93.81,-611.15
11870,-3.8735,0.0535,-0.9064,-1210.69,15.69,-798.65
11880,-3.8735,0.0541,-0.9065,-1148.19,-15.56,-908.08
11890,-3.8735,0.0565,-0.9055,-1070.07,-31.19,-939.33
11900,-3.8735,0.0594,-0.9043,-757.57,93.81,-1017.40
11910,-3.8735,0.0618,-0.9041,-382.57,250.06,-1048.65
11920,-3.8735,0.0636,-0.9034,-85.69,281.31,-954.90
11930,-3.8735,0.0634,-0.9031,148.68,359.50,-814.27
11940,-3.8735,0.0618,-0.9042,117.43,406.37,-579.90
11950,-3.8735,0.0598,-0.9047,-85.69,265.69,-345.52
11960,-3.8735,0.0576,-0.9034,-335.69,203.19,-126.77
11970,-3.8734,0.0562,-0.9028,-616.94,359.44,201.35
11980,-3.8734,0.0566,-0.9034,-804.44,437.56,435.73
11990,-3.8734,0.0574,-0.9043,-741.94,359.44,482.60
12000,-3.8734,0.0587,-0.9037,-648.19,250.06,529.48
12010,-3.8734,0.0635,-0.9033,-476.32,328.19,560.73
12020,-3.8734,0.0699,-0.9047,133.06,375.12,373.23
12030,-3.8734,0.0734,-0.9050,961.18,203.25,185.73
12040,-3.8734,0.0731,-0.9045,1398.68,156.37,248.23
12050,-3.8734,0.0720,-0.9043,1367.43,218.87,435.73
12060,-3.8734,0.0706,-0.9028,1226.81,250.12,732.60
12070,-3.8734,0.0688,-0.9021,1039.31,437.62,1045.10
12080,-3.8734,0.0685,-0.9037,820.56,531.37,1154.48
12090,-3.8734,0.0674,-0.9058,773.68,328.25,982.60
12100,-3.8734,0.0643,-0.9065,633.06,62.62,638.85
12110,-3.8734,0.0602,-0.9055,242.43,-31.13,279.42
12120,-3.8735,0.0564,-0.9043,-288.82,93.81,-48.65
12130,-3.8735,0.0555,-0.9038,-773.19,250.06,-329.90
12140,-3.8735,0.0563,-0.9038,-882.57,312.56,-533.02
12150,-3.8735,0.0562,-0.9036,-788.82,312.56,-673.65
12160,-3.8735,0.0552,-0.9031,-804.44,343.81,-751.77
12170,-3.8735,0.0537,-0.9028,-929.44,406.31,-736.15
12180,-3.8735,0.0508,-0.9031,-1116.94,437.56,-642.40
12190,-3.8735,0.0482,-0.9034,-1491.94,406.31,-454.90
12200,-3.8735,0.0471,-0.9031,-1820.07,359.44,-517.40
12210,-3.8735,0.0480,-0.9026,-1960.69,406.31,-767.40
12220,-3.8735,0.0519,-0.9047,-1851.32,468.81,-954.90
12230,-3.8735,0.0580,-0.9073,-1351.32,203.19,-1142.40
12240,-3.8735,0.0638,-0.9080,-570.07,-140.56,-1345.58
12250,-3.8735,0.0667,-0.9066,179.93,-218.63,-1408.08
12260,-3.8735,0.0657,-0.9037,539.31,-46.75,-1361.21
12270,-3.8735,0.0625,-0.9012,414.31,328.25,-1142.40
12280,-3.8735,0.0594,-0.9012,8.06,640.75,-845.52
12290,-3.8735,0.0577,-0.9037,-382.57,640.69,-736.15
12300,-3.8735,0.0576,-0.9069,-601.32,328.19,-658.02
12310,-3.8735,0.0602,-0.9077,-616.94,-78.06,-579.96
12320,-3.8735,0.0646,-0.9061,-288.82,-187.44,-329.96
12330,-3.8734,0.0684,-0.9037,273.68,15.75,107.60
12340,-3.8734,0.0708,-0.9015,758.06,328.25,732.60
12350,-3.8734,0.0740,-0.9009,1070.56,609.50,1310.73
12360,-3.8734,0.0782,-0.9026,1476.81,687.62,1529.48
12370,-3.8734,0.0800,-0.9044,-1976.32,468.87,1576.35
12380,-3.8734,0.0760,-0.9047,-1757.57,234.50,1560.73
12390,-3.8734,0.0691,-0.9058,1742.43,203.25,1373.23
12400,-3.8734,0.0636,-0.9075,851.81,62.62,1154.48
12410,-3.8734,0.0601,-0.9060,148.68,-156.13,1138.79
12420,-3.8734,0.0575,-0.9011,-304.44,31.31,1263.85
12430,-3.8734,0.0555,-0.8965,-632.57,656.31,1451.35
12440,-3.8734,0.0540,-0.8955,-882.57,1250.06,1638.85
12450,-3.8734,0.0502,-0.8986,-1085.69,1375.06,1591.98
12460,-3.8734,0.0446,-0.9037,-1570.07,984.44,1170.10
12470,-3.8734,0.0409,-0.9070,1711.18,328.19,545.10
12480,-3.8735,0.0400,-0.9053,1242.43,-93.69,-1.83
12490,-3.8735,0.0410,-0.9027,1133.06,125.06,-267.40
12500,-3.8735,0.0439,-0.9023,1258.06,453.19,-236.15
12510,-3.8735,0.0475,-0.9031,1633.06,500.06,-79.90
12520,-3.8735,0.0490,-0.9037,-1913.82,406.31,-267.40
12530,-3.8735,0.0483,-0.9039,-1726.32,328.19,-767.40
12540,-3.8735,0.0499,-0.9041,-1804.44,296.94,-1189.27
12550,-3.8735,0.0560,-0.9047,-1601.32,281.31,-1439.27
12560,-3.8735,0.0637,-0.9056,-820.07,203.19,-1611.15
12570,-3.8735,0.0693,-0.9065,164.31,78.25,-1876.77
12580,-3.8735,0.0713,-0.9080,883.06,-31.13,1888.79
12590,-3.8735,0.0699,-0.9097,1133.06,-218.63,1654.42
12600,-3.8735,0.0669,-0.9117,961.18,-437.38,1420.04
12610,-3.8735,0.0652,-0.9122,570.56,-703.00,1357.54
12620,-3.8735,0.0643,-0.9089,351.81,-765.50,1560.67
12630,-3.8735,0.0635,-0.9033,242.43,-343.63,-1970.58
12640,-3.8735,0.0643,-0.8997,133.06,375.12,-1345.52
12650,-3.8735,0.0654,-0.9012,242.43,843.87,-939.27
12660,-3.8735,0.0632,-0.9054,383.06,640.75,-1033.02
12670,-3.8735,0.0580,-0.9082,101.81,109.50,-1408.02
12680,-3.8735,0.0532,-0.9092,-570.07,-249.94,-1892.46
12690,-3.8735,0.0513,-0.9083,-1179.44,-374.94,1888.79
12700,-3.8735,0.0508,-0.9059,-1429.44,-265.56,-1845.58
12710,-3.8735,0.0507,-0.9038,-1491.94,46.94,-1329.90
12720,-3.8735,0.0538,-0.9037,-1507.57,312.56,-611.15
12730,-3.8734,0.0594,-0.9041,-1101.32,328.19,91.98
12740,-3.8734,0.0641,-0.9039,-382.57,281.31,716.98
12750,-3.8734,0.0675,-0.9022,211.18,297.00,1232.60
12760,-3.8734,0.0690,-0.9009,648.68,515.75,1513.85
12770,-3.8734,0.0668,-0.9015,836.18,687.62,1529.48
12780,-3.8734,0.0613,-0.9032,554.93,609.50,1373.23
12790,-3.8734,0.0555,-0.9044,-148.19,390.69,1107.60
12800,-3.8734,0.0532,-0.9058,-882.57,234.44,716.98
12810,-3.8734,0.0525,-0.9069,-1179.44,62.56,295.10
12820,-3.8734,0.0527,-0.9056,-1273.19,-78.06,13.79
12830,-3.8735,0.0549,-0.9023,-1241.94,78.19,-1.77
12840,-3.8734,0.0549,-0.8990,-960.69,500.06,76.35
12850,-3.8735,0.0509,-0.8979,-960.69,921.94,-48.65
12860,-3.8735,0.0475,-0.8998,-1476.32,1062.56,-283.02
12870,-3.8735,0.0486,-0.9030,-1913.82,828.19,-408.02
12880,-3.8735,0.0525,-0.9054,-1773.19,421.94,-548.65
12890,-3.8735,0.0574,-0.9069,-1273.19,109.44,-595.52
12900,-3.8735,0.0609,-0.9062,-648.19,-78.06,-408.08
12910,-3.8735,0.0604,-0.9043,-195.07,0.06,-236.15
12920,-3.8735,0.0551,-0.9047,-257.57,250.06,-361.15
12930,-3.8735,0.0481,-0.9067,-945.07,203.19,-720.52
12940,-3.8735,0.0437,-0.9067,-1835.69,-62.44,-1048.71
12950,-3.8735,0.0430,-0.9055,1601.81,-62.44,-1142.46
12960,-3.8735,0.0459,-0.9053,1508.06,93.81,-1111.15
12970,-3.8735,0.0497,-0.9060,1883.06,125.06,-970.52
12980,-3.8735,0.0524,-0.9055,-1632.57,31.31,-829.90
12990,-3.8735,0.0555,-0.9037,-1288.82,93.81,-673.65
13000,-3.8735,0.0594,-0.9021,-882.57,328.19,-548.65
13010,-3.8735,0.0646,-0.9021,-382.57,531.31,-579.90
13020,-3.8735,0.0706,-0.9048,273.68,531.37,-751.77
13030,-3.8735,0.0758,-0.9093,1039.31,187.62,-986.15
13040,-3.8735,0.0798,-0.9110,1711.18,-390.50,-1111.21
13050,-3.8735,0.0813,-0.9082,-1773.19,-609.25,-1001.83
13060,-3.8735,0.0793,-0.9023,-1585.69,-249.88,-548.71
13070,-3.8734,0.0751,-0.8978,-1835.69,500.12,216.98
13080,-3.8734,0.0697,-0.8982,1617.43,1078.25,732.60
13090,-3.8734,0.0637,-0.9027,929.93,1031.37,841.98
13100,-3.8734,0.0573,-0.9075,164.31,453.25,795.10
13110,-3.8734,0.0537,-0.9086,-663.82,-156.19,701.29
13120,-3.8734,0.0557,-0.9059,-1116.94,-296.81,670.04
13130,-3.8734,0.0594,-0.9020,-866.94,46.94,857.60
13140,-3.8734,0.0621,-0.8993,-382.57,546.94,1248.23
13150,-3.8734,0.0620,-0.8997,-38.82,890.69,1420.10
13160,-3.8734,0.0593,-0.9030,-54.44,843.81,1170.10
13170,-3.8734,0.0576,-0.9059,-398.19,421.94,732.60
13180,-3.8734,0.0581,-0.9059,-616.94,46.94,466.98
13190,-3.8734,0.0601,-0.9038,-554.44,46.94,513.85
13200,-3.8734,0.0631,-0.9019,-304.44,312.56,654.48
13210,-3.8734,0.0662,-0.9017,86.18,562.62,716.98
13220,-3.8734,0.0664,-0.9027,476.81,578.25,685.73
13230,-3.8734,0.0640,-0.9030,508.06,453.25,560.73
13240,-3.8734,0.0613,-0.9020,195.56,422.00,388.85
13250,-3.8734,0.0588,-0.9011,-148.19,546.94,248.23
13260,-3.8734,0.0573,-0.9027,-460.69,656.31,154.48
13270,-3.8734,0.0573,-0.9060,-663.82,453.19,45.10
13280,-3.8735,0.0573,-0.9077,-663.82,31.31,-64.27
13290,-3.8735,0.0566,-0.9059,-663.82,-187.44,-126.83
13300,-3.8735,0.0559,-0.9025,-741.94,46.94,-111.15
13310,-3.8734,0.0542,-0.9005,-835.69,484.44,138.85
13320,-3.8734,0.0518,-0.9003,-1054.44,734.44,404.48
13330,-3.8734,0.0496,-0.9012,-1366.94,765.69,420.10
13340,-3.8734,0.0485,-0.9022,-1648.19,640.69,295.10
13350,-3.8734,0.0487,-0.9030,-1788.82,515.69,138.85
13360,-3.8734,0.0500,-0.9045,-1757.57,421.94,60.73
13370,-3.8734,0.0531,-0.9054,-1585.69,218.81,29.48
13380,-3.8735,0.0560,-0.9047,-1195.07,109.44,-33.02
13390,-3.8735,0.0571,-0.9036,-820.07,203.19,-220.52
13400,-3.8735,0.0590,-0.9047,-679.44,343.81,-470.52
13410,-3.8735,0.0612,-0.9062,-445.07,203.19,-470.52
13420,-3.8735,0.0634,-0.9052,-163.82,0.06,-158.02
13430,-3.8734,0.0652,-0.9026,117.43,140.75,326.35
13440,-3.8734,0.0656,-0.9017,351.81,468.87,810.73
13450,-3.8734,0.0664,-0.9031,398.68,578.25,951.35
13460,-3.8734,0.0679,-0.9045,508.06,406.37,545.10
13470,-3.8735,0.0680,-0.9048,695.56,218.87,-204.90
13480,-3.8735,0.0670,-0.9038,711.18,187.62,-1111.15
13490,-3.8735,0.0653,-0.9041,586.18,312.62,-1861.15
13500,-3.8735,0.0626,-0.9060,367.43,281.37,1873.23
13510,-3.8735,0.0577,-0.9067,23.68,31.37,-1954.90
13520,-3.8735,0.0508,-0.9072,-601.32,-62.44,-1689.33
13530,-3.8735,0.0439,-0.9073,-1491.94,-124.94,-1408.08
13540,-3.8735,0.0400,-0.9054,1633.06,-140.56,-1158.08
13550,-3.8735,0.0404,-0.9036,1133.06,109.44,-970.52
13560,-3.8735,0.0453,-0.9033,1179.93,343.81,-798.65
13570,-3.8735,0.0540,-0.9027,1804.93,375.06,-533.02
13580,-3.8735,0.0635,-0.9021,-1085.69,453.19,-111.15
13590,-3.8734,0.0712,-0.9026,133.06,531.37,466.98
13600,-3.8734,0.0746,-0.9036,1117.43,468.87,998.23
13610,-3.8734,0.0729,-0.9047,1554.93,343.87,1154.48
13620,-3.8734,0.0682,-0.9066,1336.18,203.25,982.60
13630,-3.8734,0.0642,-0.9087,742.43,-46.75,716.92
13640,-3.8734,0.0624,-0.9078,226.81,-312.38,451.29
13650,-3.8734,0.0629,-0.9043,-7.57,-203.06,248.17
13660,-3.8734,0.0643,-0.9006,54.93,250.12,279.48
13670,-3.8734,0.0652,-0.8988,242.43,718.87,482.60
13680,-3.8734,0.0634,-0.9001,351.81,953.25,607.60
13690,-3.8734,0.0597,-0.9034,117.43,781.37,701.35
13700,-3.8734,0.0559,-0.9062,-351.32,359.44,826.35
13710,-3.8734,0.0538,-0.9062,-835.69,0.06,998.23
13720,-3.8734,0.0552,-0.9033,-1101.32,0.06,1154.48
13730,-3.8734,0.0582,-0.8998,-929.44,375.06,1091.98
13740,-3.8734,0.0604,-0.8989,-538.82,828.19,795.10
13750,-3.8734,0.0601,-0.9017,-257.57,937.56,295.10
13760,-3.8735,0.0588,-0.9058,-304.44,578.19,-548.65
13770,-3.8735,0.0574,-0.9091,-460.69,62.56,-1501.77
13780,-3.8735,0.0557,-0.9102,-648.19,-359.31,1763.79
13790,-3.8735,0.0541,-0.9086,-866.94,-499.94,1404.42
13800,-3.8735,0.0527,-0.9048,-1070.07,-296.81,1435.67
13810,-3.8735,0.0518,-0.9019,-1241.94,187.56,1779.48
13820,-3.8735,0.0510,-0.9015,-1366.94,562.56,-1658.02
13830,-3.8735,0.0511,-0.9027,-1460.69,609.44,-1001.77
13840,-3.8735,0.0521,-0.9049,-1445.07,453.19,-517.40
13850,-3.8735,0.0544,-0.9073,-1320.07,171.94,-267.40
13860,-3.8735,0.0574,-0.9073,-1023.19,-140.56,-158.08
13870,-3.8735,0.0625,-0.9043,-648.19,-140.56,-95.58
13880,-3.8734,0.0710,-0.9017,8.06,250.12,170.10
13890,-3.8734,0.0795,-0.9011,1101.81,578.25,560.73
13900,-3.8734,0.0845,-0.9021,-1820.07,656.37,888.85
13910,-3.8734,0.0846,-0.9043,-1179.44,531.37,982.60
13920,-3.8734,0.0801,-0.9061,-1163.82,250.12,920.10
13930,-3.8734,0.0712,-0.9064,-1741.94,15.75,857.60
13940,-3.8734,0.0621,-0.9054,1117.43,-15.50,826.29
13950,-3.8734,0.0575,-0.9032,-38.82,109.44,982.60
13960,-3.8734,0.0552,-0.9008,-632.57,390.69,1263.85
13970,-3.8734,0.0538,-0.9005,-929.44,703.19,1404.48
13980,-3.8734,0.0527,-0.9031,-1101.32,734.44,1310.73
13990,-3.8734,0.0518,-0.9053,-1241.94,406.31,1045.10
14000,-3.8734,0.0504,-0.9047,-1366.94,125.06,638.85
14010,-3.8734,0.0482,-0.9033,-1538.82,203.19,263.85
14020,-3.8734,0.0469,-0.9022,-1820.07,375.06,45.10
14030,-3.8735,0.0471,-0.9011,-1991.94,515.69,-17.40
14040,-3.8735,0.0483,-0.9012,-1960.69,656.31,-33.02
14050,-3.8735,0.0494,-0.9034,-1804.44,640.69,-173.65
14060,-3.8735,0.0502,-0.9065,-1663.82,359.44,-533.02
14070,-3.8735,0.0518,-0.9087,-1570.07,-31.19,-1079.96
14080,-3.8735,0.0552,-0.9094,-1366.94,-312.44,-1720.58
14090,-3.8735,0.0598,-0.9081,-929.44,-406.19,1810.67
14100,-3.8735,0.0638,-0.9053,-335.69,-234.31,1560.67
14110,-3.8735,0.0670,-0.9031,179.93,125.12,1607.60
14120,-3.8735,0.0684,-0.9030,586.18,406.37,1904.48
14130,-3.8735,0.0685,-0.9065,758.06,422.00,-1626.77
14140,-3.8735,0.0665,-0.9092,773.68,-31.13,-1017.46
14150,-3.8735,0.0615,-0.9072,523.68,-374.88,-517.46
14160,-3.8735,0.0568,-0.9045,-116.94,-124.94,-158.08
14170,-3.8734,0.0540,-0.9032,-726.32,218.81,170.10
14180,-3.8734,0.0510,-0.9023,-1085.69,390.69,435.73
14190,-3.8734,0.0486,-0.9023,-1460.69,500.06,654.48
14200,-3.8734,0.0494,-0.9042,-1773.19,500.06,763.85
14210,-3.8734,0.0541,-0.9059,-1663.82,265.69,763.85
14220,-3.8734,0.0598,-0.9058,-1070.07,46.94,748.23
14230,-3.8734,0.0638,-0.9030,-335.69,62.56,998.23
14240,-3.8734,0.0634,-0.8987,179.93,422.00,1623.23
14250,-3.8734,0.0582,-0.8970,117.43,968.87,-1736.15
14260,-3.8734,0.0530,-0.8992,-538.82,1187.56,-1408.02
14270,-3.8734,0.0511,-0.9022,-1210.69,906.31,-1486.15
14280,-3.8734,0.0519,-0.9043,-1445.07,515.69,-1798.65
14290,-3.8734,0.0542,-0.9047,-1351.32,250.06,1732.60
14300,-3.8734,0.0575,-0.9039,-1054.44,203.19,1060.73
14310,-3.8734,0.0610,-0.9043,-632.57,296.94,326.35
14320,-3.8735,0.0643,-0.9066,-179.44,250.06,-392.40
14330,-3.8735,0.0663,-0.9086,242.43,-46.75,-1095.58
14340,-3.8735,0.0662,-0.9080,492.43,-296.75,-1783.08
14350,-3.8735,0.0637,-0.9064,476.81,-218.63,1685.67
14360,-3.8735,0.0618,-0.9065,164.31,-15.50,1498.17
14370,-3.8735,0.0621,-0.9083,-85.69,-31.19,1545.04
14380,-3.8735,0.0638,-0.9099,-38.82,-265.56,1701.29
14390,-3.8735,0.0648,-0.9099,179.93,-468.63,1935.67
14400,-3.8735,0.0620,-0.9081,304.93,-468.63,-1908.08
14410,-3.8735,0.0559,-0.9054,-54.44,-234.31,-1970.58
14420,-3.8735,0.0492,-0.9028,-835.69,109.44,1904.48
14430,-3.8735,0.0444,-0.9037,-1695.07,437.56,1795.10
14440,-3.8735,0.0427,-0.9066,1695.56,328.19,1701.35
14450,-3.8735,0.0413,-0.9076,1476.81,-46.81,1654.42
14460,-3.8735,0.0382,-0.9080,1289.31,-171.81,1638.79
14470,-3.8735,0.0365,-0.9080,898.68,-218.69,1701.29
14480,-3.8735,0.0376,-0.9065,679.93,-218.69,1935.67
14490,-3.8735,0.0403,-0.9050,820.56,-31.19,-1767.46
14500,-3.8735,0.0427,-0.9038,1164.31,156.31,-1376.77
14510,-3.8735,0.0469,-0.9027,1476.81,312.56,-1001.77
14520,-3.8735,0.0536,-0.9025,-1991.94,453.19,-767.40
14530,-3.8735,0.0598,-0.9033,-1132.57,484.44,-611.15
14540,-3.8735,0.0643,-0.9045,-335.69,375.06,-501.77
14550,-3.8735,0.0668,-0.9064,242.43,218.87,-439.27
14560,-3.8735,0.0670,-0.9083,554.93,-15.50,-361.21
14570,-3.8735,0.0647,-0.9075,586.18,-265.50,-204.96
14580,-3.8734,0.0586,-0.9049,289.31,-156.13,29.42
14590,-3.8734,0.0524,-0.9027,-491.94,171.94,279.48
14600,-3.8734,0.0494,-0.9011,-1288.82,453.19,404.48
14610,-3.8734,0.0494,-0.9020,-1663.82,656.31,388.85
14620,-3.8734,0.0521,-0.9048,-1663.82,546.94,185.73
14630,-3.8734,0.0571,-0.9058,-1320.07,187.56,29.48
14640,-3.8734,0.0636,-0.9045,-679.44,62.56,29.48
14650,-3.8734,0.0719,-0.9042,148.68,218.87,107.60
14660,-3.8734,0.0802,-0.9042,1211.18,265.75,201.35
14670,-3.8734,0.0841,-0.9038,-1726.32,265.75,248.23
14680,-3.8734,0.0851,-0.9054,-1226.32,312.62,373.23
14690,-3.8734,0.0863,-0.9078,-1101.32,109.50,482.60
14700,-3.8734,0.0854,-0.9077,-945.07,-203.00,498.17
14710,-3.8734,0.0828,-0.9060,-1054.44,-187.38,482.54
14720,-3.8734,0.0792,-0.9041,-1398.19,31.37,576.35
14730,-3.8734,0.0742,-0.9022,-1851.32,281.37,670.10
14740,-3.8734,0.0691,-0.9022,1508.06,515.75,654.48
14750,-3.8734,0.0649,-0.9037,851.81,515.75,576.35
14760,-3.8734,0.0614,-0.9054,320.56,328.25,560.73
14770,-3.8734,0.0570,-0.9064,-132.57,109.44,466.98
14780,-3.8734,0.0537,-0.9064,-695.07,-15.56,279.42
14790,-3.8734,0.0536,-0.9045,-1116.94,-15.56,263.79
14800,-3.8734,0.0536,-0.9019,-1132.57,218.81,326.35
14810,-3.8734,0.0516,-0.8998,-1132.57,562.56,295.10
14820,-3.8734,0.0486,-0.9000,-1382.57,828.19,263.85
14830,-3.8734,0.0450,-0.9028,-1773.19,796.94,45.10
14840,-3.8735,0.0404,-0.9059,1773.68,437.56,-454.90
14850,-3.8735,0.0347,-0.9056,1179.93,46.94,-1048.65
14860,-3.8735,0.0309,-0.9030,445.56,78.19,-1501.77
14870,-3.8735,0.0326,-0.9014,-38.82,421.88,-1626.77
14880,-3.8735,0.0378,-0.9034,179.93,625.06,-1658.02
14890,-3.8735,0.0442,-0.9075,851.81,359.44,-1595.52
14900,-3.8735,0.0486,-0.9081,1664.31,-156.19,-1392.46
14910,-3.8735,0.0500,-0.9062,-1773.19,-234.31,-1173.71
14920,-3.8735,0.0524,-0.9049,-1585.69,0.06,-1079.90
14930,-3.8735,0.0574,-0.9038,-1288.82,171.94,-1142.40
14940,-3.8735,0.0652,-0.9037,-648.19,312.56,-1189.27
14950,-3.8735,0.0745,-0.9048,351.81,328.25,-1189.27
14960,-3.8735,0.0823,-0.9066,1539.31,187.62,-1033.02
14970,-3.8735,0.0873,-0.9076,-1460.69,-46.75,-689.33
14980,-3.8735,0.0889,-0.9075,-820.07,-171.75,-298.71
14990,-3.8734,0.0863,-0.9076,-616.94,-156.13,76.29
15000,-3.8734,0.0798,-0.9084,-945.07,-171.75,248.17
15010,-3.8734,0.0719,-0.9088,-1773.19,-281.13,435.67
15020,-3.8734,0.0641,-0.9075,1211.18,-328.00,716.92
15030,-3.8734,0.0586,-0.9054,211.18,-156.13,904.42
15040,-3.8734,0.0565,-0.9038,-491.94,109.44,920.10
15050,-3.8734,0.0553,-0.9021,-757.57,312.56,795.10
15060,-3.8734,0.0530,-0.9003,-913.82,531.31,607.60
15070,-3.8734,0.0504,-0.8995,-1210.69,765.69,498.23
15080,-3.8734,0.0476,-0.9008,-1538.82,859.44,513.85
15090,-3.8734,0.0447,-0.9030,-1898.19,703.19,404.48
15100,-3.8734,0.0426,-0.9054,1726.81,421.94,279.48
15110,-3.8734,0.0414,-0.9069,1461.18,109.44,248.23
15120,-3.8734,0.0396,-0.9052,1304.93,-78.06,232.54
15130,-3.8734,0.0392,-0.9023,1070.56,140.69,404.48
15140,-3.8734,0.0410,-0.9014,1023.68,500.06,498.23
15150,-3.8734,0.0437,-0.9022,1258.06,625.06,185.73
15160,-3.8735,0.0475,-0.9047,1601.81,515.69,-501.77
15170,-3.8735,0.0526,-0.9076,-1913.82,203.19,-1283.02
15180,-3.8735,0.0581,-0.9082,-1257.57,-171.81,-1954.96
15190,-3.8735,0.0641,-0.9061,-554.44,-249.94,1685.67
15200,-3.8735,0.0696,-0.9044,211.18,15.75,1638.85
15210,-3.8735,0.0713,-0.9065,914.31,234.50,1560.73
15220,-3.8735,0.0706,-0.9110,1133.06,-31.13,1420.04
15230,-3.8735,0.0707,-0.9135,1039.31,-609.25,1388.79
15240,-3.8735,0.0695,-0.9120,1054.93,-921.75,1466.92
15250,-3.8735,0.0642,-0.9080,898.68,-734.25,1560.67
15260,-3.8735,0.0588,-0.9042,226.81,-218.63,1732.54
15270,-3.8735,0.0562,-0.9026,-460.69,265.69,-1923.65
15280,-3.8735,0.0538,-0.9027,-804.44,468.81,-1595.52
15290,-3.8735,0.0511,-0.9049,-1101.32,453.19,-1283.02
15300,-3.8735,0.0503,-0.9075,-1445.07,171.94,-845.52
15310,-3.8735,0.0515,-0.9083,-1554.44,-156.19,-298.71
15320,-3.8734,0.0549,-0.9071,-1398.19,-265.56,185.67
15330,-3.8734,0.0608,-0.9049,-960.69,-109.31,545.04
15340,-3.8734,0.0652,-0.9041,-210.69,171.94,623.23
15350,-3.8734,0.0649,-0.9036,351.81,281.37,404.48
15360,-3.8734,0.0616,-0.9031,320.56,343.87,170.10
15370,-3.8734,0.0587,-0.9042,-101.32,406.31,76.35
15380,-3.8734,0.0562,-0.9054,-476.32,265.69,279.48
15390,-3.8734,0.0542,-0.9047,-804.44,109.44,716.98
15400,-3.8734,0.0540,-0.9019,-1054.44,203.19,1216.98
15410,-3.8734,0.0568,-0.8993,-1085.69,562.56,1623.23
15420,-3.8734,0.0604,-0.8998,-726.32,890.69,1716.98
15430,-3.8734,0.0624,-0.9032,-257.57,828.19,1451.35
15440,-3.8734,0.0626,-0.9072,-7.57,390.69,1076.35
15450,-3.8734,0.0615,-0.9098,23.68,-124.88,623.17
15460,-3.8735,0.0596,-0.9100,-116.94,-453.06,-48.71
15470,-3.8735,0.0582,-0.9084,-366.94,-484.31,-673.71
15480,-3.8735,0.0583,-0.9062,-538.82,-281.19,-1173.71
15490,-3.8735,0.0585,-0.9043,-523.19,0.06,-1579.90
15500,-3.8735,0.0579,-0.9033,-507.57,250.06,-1876.77
15510,-3.8735,0.0576,-0.9047,-585.69,375.06,1982.60
15520,-3.8735,0.0568,-0.9067,-616.94,203.19,1998.23
15530,-3.8735,0.0537,-0.9070,-726.32,-62.44,-1892.46
15540,-3.8735,0.0509,-0.9064,-1116.94,-93.69,-1689.33
15550,-3.8735,0.0499,-0.9055,-1476.32,-15.56,-1314.33
15560,-3.8735,0.0508,-0.9058,-1601.32,93.81,-1048.65
15570,-3.8735,0.0531,-0.9081,-1491.94,62.56,-1017.40
15580,-3.8735,0.0553,-0.9089,-1195.07,-234.31,-1048.71
15590,-3.8735,0.0571,-0.9069,-913.82,-343.69,-1079.96
15600,-3.8735,0.0586,-0.9045,-679.44,-78.06,-1095.58
15610,-3.8735,0.0590,-0.9027,-491.94,218.81,-970.52
15620,-3.8735,0.0575,-0.9016,-445.07,453.19,-595.52
15630,-3.8735,0.0568,-0.9021,-632.57,593.81,-204.90
15640,-3.8735,0.0590,-0.9044,-726.32,531.31,-1.77
15650,-3.8734,0.0627,-0.9072,-445.07,234.44,13.85
15660,-3.8734,0.0664,-0.9088,39.31,-124.88,45.04
15670,-3.8734,0.0682,-0.9080,508.06,-328.00,232.54
15680,-3.8734,0.0671,-0.9052,742.43,-218.63,451.29
15690,-3.8734,0.0642,-0.9028,601.81,140.75,670.10
15700,-3.8734,0.0616,-0.9020,226.81,437.62,670.10
15710,-3.8734,0.0597,-0.9017,-101.32,546.94,420.10
15720,-3.8734,0.0577,-0.9028,-351.32,578.19,107.60
15730,-3.8735,0.0562,-0.9047,-601.32,437.56,-236.15
15740,-3.8735,0.0553,-0.9060,-804.44,203.19,-611.15
15750,-3.8735,0.0541,-0.9066,-913.82,31.31,-939.27
15760,-3.8735,0.0518,-0.9069,-1070.07,-46.81,-1126.83
15770,-3.8735,0.0492,-0.9062,-1366.94,-78.06,-1142.46
15780,-3.8735,0.0465,-0.9038,-1695.07,0.06,-986.15
15790,-3.8735,0.0458,-0.9021,1961.18,312.56,-642.40
15800,-3.8735,0.0487,-0.9027,1867.43,531.31,-345.52
15810,-3.8735,0.0540,-0.9037,-1757.57,453.19,-408.02
15820,-3.8735,0.0592,-0.9053,-1085.69,328.19,-517.40
15830,-3.8735,0.0636,-0.9076,-413.82,125.06,-439.27
15840,-3.8735,0.0673,-0.9086,148.68,-171.75,-408.08
15850,-3.8735,0.0688,-0.9077,617.43,-296.75,-392.46
15860,-3.8735,0.0674,-0.9067,820.56,-187.38,-314.33
15870,-3.8735,0.0656,-0.9053,633.06,-62.38,-298.71
15880,-3.8735,0.0662,-0.9039,398.68,125.12,-439.27
15890,-3.8735,0.0695,-0.9050,476.81,297.00,-689.27
15900,-3.8735,0.0710,-0.9064,898.68,156.37,-767.40
15910,-3.8735,0.0686,-0.9065,1101.81,-15.50,-720.58
15920,-3.8735,0.0636,-0.9053,789.31,-31.13,-767.46
15930,-3.8735,0.0577,-0.9036,148.68,125.12,-829.90
15940,-3.8735,0.0518,-0.9026,-601.32,343.81,-720.52
15950,-3.8735,0.0471,-0.9033,-1366.94,468.81,-486.15
15960,-3.8735,0.0454,-0.9043,-1960.69,375.06,-345.52
15970,-3.8735,0.0461,-0.9045,1820.56,250.06,-470.52
15980,-3.8735,0.0479,-0.9048,1914.31,218.81,-611.15
15990,-3.8735,0.0502,-0.9048,-1866.94,187.56,-673.65
16000,-3.8735,0.0535,-0.9056,-1570.07,187.56,-908.02
16010,-3.8735,0.0577,-0.9066,-1148.19,78.19,-1173.65
16020,-3.8735,0.0604,-0.9062,-601.32,-46.81,-1298.71
16030,-3.8735,0.0603,-0.9065,-257.57,0.06,-1142.40
16040,-3.8735,0.0585,-0.9066,-273.19,-31.19,-595.58
16050,-3.8734,0.0573,-0.9042,-507.57,-46.81,154.42
16060,-3.8734,0.0575,-0.9017,-663.82,265.69,826.35
16070,-3.8734,0.0591,-0.9008,-632.57,578.19,1216.98
16080,-3.8734,0.0605,-0.9004,-429.44,703.19,1232.60
16090,-3.8734,0.0605,-0.9020,-241.94,750.06,826.35
16100,-3.8734,0.0618,-0.9055,-241.94,546.94,154.48
16110,-3.8735,0.0641,-0.9089,-85.69,93.81,-501.77
16120,-3.8735,0.0652,-0.9095,211.18,-343.63,-923.71
16130,-3.8735,0.0648,-0.9071,351.81,-421.75,-1251.83
16140,-3.8735,0.0637,-0.9055,304.93,-109.25,-1470.58
16150,-3.8735,0.0625,-0.9048,164.31,93.87,-1283.02
16160,-3.8735,0.0598,-0.9038,8.06,187.62,-798.65
16170,-3.8735,0.0549,-0.9030,-335.69,312.56,-376.77
16180,-3.8735,0.0503,-0.9022,-960.69,421.94,-204.90
16190,-3.8735,0.0483,-0.9044,-1554.44,515.69,-329.90
16200,-3.8735,0.0498,-0.9082,-1804.44,234.44,-470.52
16210,-3.8735,0.0536,-0.9091,-1616.94,-249.94,-454.96
16220,-3.8735,0.0577,-0.9064,-1132.57,-359.31,-392.46
16230,-3.8735,0.0588,-0.9028,-601.32,-15.56,-283.08
16240,-3.8735,0.0565,-0.9011,-460.69,437.56,-111.15
16250,-3.8735,0.0541,-0.9010,-757.57,656.31,-33.02
16260,-3.8735,0.0524,-0.9028,-1070.07,671.94,-126.77
16270,-3.8735,0.0524,-0.9056,-1288.82,437.56,-376.77
16280,-3.8735,0.0542,-0.9072,-1288.82,78.19,-673.65
16290,-3.8735,0.0574,-0.9070,-1054.44,-124.94,-767.46
16300,-3.8735,0.0615,-0.9053,-648.19,-93.69,-579.96
16310,-3.8735,0.0638,-0.9034,-116.94,125.06,-189.27
16320,-3.8734,0.0629,-0.9025,179.93,359.50,138.85
16330,-3.8734,0.0608,-0.9026,54.93,484.50,107.60
16340,-3.8735,0.0588,-0.9037,-210.69,468.81,-79.90
16350,-3.8735,0.0562,-0.9056,-460.69,328.19,-267.40
16360,-3.8735,0.0540,-0.9070,-804.44,78.19,-470.52
16370,-3.8735,0.0537,-0.9058,-1085.69,-93.69,-548.71
16380,-3.8735,0.0552,-0.9045,-1116.94,62.56,-501.77
16390,-3.8735,0.0553,-0.9050,-929.44,218.81,-439.27
16400,-3.8735,0.0541,-0.9039,-913.82,156.31,-345.52
16410,-3.8735,0.0533,-0.9020,-1070.07,296.94,-329.90
16420,-3.8735,0.0549,-0.9017,-1163.82,546.94,-236.15
16430,-3.8735,0.0602,-0.9030,-960.69,578.19,-158.02
16440,-3.8735,0.0674,-0.9052,-288.82,421.94,-220.52
16450,-3.8735,0.0726,-0.9064,633.06,140.75,-298.65
16460,-3.8735,0.0734,-0.9070,1304.93,-15.50,-439.33
16470,-3.8735,0.0706,-0.9083,1398.68,-93.63,-486.21
16480,-3.8735,0.0667,-0.9075,1039.31,-265.50,-361.21
16490,-3.8735,0.0640,-0.9050,539.31,-156.13,-158.08
16500,-3.8734,0.0635,-0.9033,195.56,156.37,138.85
16510,-3.8734,0.0647,-0.9030,133.06,375.12,341.98
16520,-3.8734,0.0651,-0.9038,289.31,422.00,466.98
16530,-3.8734,0.0619,-0.9045,336.18,312.62,716.98
16540,-3.8734,0.0573,-0.9042,-70.07,218.81,873.23
16550,-3.8734,0.0544,-0.9032,-663.82,265.69,841.98
16560,-3.8734,0.0540,-0.9020,-1023.19,390.69,810.73
16570,-3.8734,0.0551,-0.9014,-1085.69,546.94,763.85
16580,-3.8734,0.0549,-0.9033,-945.07,625.06,654.48
16590,-3.8734,0.0536,-0.9061,-960.69,375.06,623.23
16600,-3.8734,0.0530,-0.9067,-1132.57,15.69,576.35
16610,-3.8734,0.0522,-0.9048,-1210.69,-62.44,482.54
16620,-3.8734,0.0519,-0.9014,-1304.44,187.56,357.60
16630,-3.8734,0.0521,-0.8995,-1351.32,625.06,201.35
16640,-3.8735,0.0522,-0.9015,-1320.07,859.44,-48.65
16650,-3.8735,0.0513,-0.9058,-1304.44,609.44,-454.90
16660,-3.8735,0.0504,-0.9094,-1429.44,62.56,-970.52
16670,-3.8735,0.0518,-0.9115,-1538.82,-406.19,-1392.46
16680,-3.8735,0.0535,-0.9116,-1366.94,-671.81,-1642.46
16690,-3.8735,0.0544,-0.9088,-1148.19,-687.44,-1814.33
16700,-3.8735,0.0558,-0.9044,-1023.19,-328.06,1998.17
16710,-3.8735,0.0577,-0.9023,-851.32,234.44,1748.23
16720,-3.8735,0.0579,-0.9043,-601.32,500.06,1420.10
16730,-3.8735,0.0555,-0.9082,-585.69,250.06,1138.85
16740,-3.8735,0.0535,-0.9103,-882.57,-249.94,982.54
16750,-3.8735,0.0535,-0.9100,-1148.19,-515.56,873.17
16760,-3.8735,0.0554,-0.9084,-1148.19,-484.31,1060.67
16770,-3.8735,0.0577,-0.9060,-898.19,-281.19,1513.79
16780,-3.8735,0.0583,-0.9048,-601.32,31.31,-1954.90
16790,-3.8735,0.0574,-0.9060,-523.19,187.56,-1251.77
16800,-3.8735,0.0562,-0.9066,-648.19,31.31,-626.77
16810,-3.8735,0.0536,-0.9041,-804.44,-46.81,-220.58
16820,-3.8735,0.0509,-0.9020,-1132.57,281.31,-1.77
16830,-3.8734,0.0500,-0.9028,-1476.32,546.94,60.73
16840,-3.8734,0.0521,-0.9060,-1585.69,437.56,91.98
16850,-3.8734,0.0563,-0.9093,-1320.07,31.31,60.73
16860,-3.8734,0.0612,-0.9089,-788.82,-390.56,170.04
16870,-3.8734,0.0656,-0.9048,-163.82,-343.69,545.04
16880,-3.8734,0.0682,-0.8998,398.68,187.62,1138.85
16890,-3.8734,0.0702,-0.8977,742.43,828.25,1779.48
16900,-3.8734,0.0714,-0.9001,992.43,1093.87,-1814.27
16910,-3.8734,0.0710,-0.9053,1148.68,781.37,1982.60
16920,-3.8734,0.0697,-0.9102,1101.81,125.12,1310.73
16930,-3.8734,0.0687,-0.9111,929.93,-499.88,560.67
16940,-3.8734,0.0679,-0.9084,804.93,-624.88,29.42
16950,-3.8735,0.0665,-0.9052,695.56,-281.13,-220.58
16960,-3.8735,0.0647,-0.9027,523.68,140.75,-439.27
16970,-3.8735,0.0624,-0.9021,289.31,453.25,-751.77
16980,-3.8735,0.0588,-0.9049,-7.57,531.31,-1173.65
16990,-3.8735,0.0557,-0.9097,-460.69,171.94,-1564.27
17000,-3.8735,0.0537,-0.9117,-866.94,-437.44,-1595.58
17010,-3.8735,0.0521,-0.9103,-1116.94,-703.06,-1345.58
17020,-3.8735,0.0509,-0.9064,-1320.07,-515.56,-1064.33
17030,-3.8735,0.0502,-0.9025,-1476.32,-15.56,-939.33
17040,-3.8735,0.0497,-0.9023,-1570.07,484.44,-1033.02
17050,-3.8735,0.0493,-0.9055,-1632.57,500.06,-1173.65
17060,-3.8735,0.0497,-0.9081,-1679.44,93.81,-1298.65
17070,-3.8735,0.0493,-0.9087,-1632.57,-234.31,-1486.21
17080,-3.8735,0.0490,-0.9076,-1679.44,-312.44,-1673.71
17090,-3.8735,0.0497,-0.9053,-1726.32,-171.81,-1829.96
17100,-3.8735,0.0515,-0.9041,-1632.57,125.06,-1939.27
17110,-3.8735,0.0535,-0.9050,-1398.19,281.31,-1908.02
17120,-3.8735,0.0532,-0.9078,-1148.19,156.31,-1767.40
17130,-3.8735,0.0513,-0.9097,-1179.44,-203.06,-1673.71
17140,-3.8735,0.0504,-0.9086,-1429.44,-437.44,-1673.71
17150,-3.8735,0.0515,-0.9081,-1538.82,-296.81,-1579.96
17160,-3.8735,0.0547,-0.9084,-1398.19,-234.31,-1408.08
17170,-3.8735,0.0588,-0.9073,-991.94,-281.19,-1079.96
17180,-3.8735,0.0616,-0.9037,-460.69,-140.56,-470.58
17190,-3.8734,0.0620,-0.8986,-101.32,328.19,248.23
17200,-3.8734,0.0603,-0.8961,-54.44,984.44,763.85
17210,-3.8734,0.0590,-0.8987,-273.19,1296.94,904.48
17220,-3.8734,0.0590,-0.9041,-445.07,968.81,654.48
17230,-3.8734,0.0587,-0.9100,-445.07,281.31,170.10
17240,-3.8735,0.0577,-0.9128,-476.32,-484.31,-283.08
17250,-3.8735,0.0590,-0.9099,-601.32,-843.69,-501.83
17260,-3.8735,0.0621,-0.9050,-445.07,-468.69,-454.96
17270,-3.8735,0.0643,-0.9023,-38.82,156.31,-298.65
17280,-3.8735,0.0662,-0.9032,242.43,500.12,-267.40
17290,-3.8735,0.0669,-0.9061,476.81,390.75,-392.40
17300,-3.8735,0.0649,-0.9077,570.56,15.75,-626.77
17310,-3.8735,0.0613,-0.9070,320.56,-187.38,-767.46
17320,-3.8735,0.0573,-0.9050,-148.19,-93.69,-736.21
17330,-3.8735,0.0548,-0.9034,-663.82,156.31,-517.40
17340,-3.8735,0.0537,-0.9032,-976.32,359.44,-251.77
17350,-3.8735,0.0535,-0.9047,-1116.94,390.69,-329.90
17360,-3.8735,0.0541,-0.9070,-1148.19,203.19,-533.02
17370,-3.8735,0.0558,-0.9077,-1070.07,-93.69,-658.08
17380,-3.8735,0.0588,-0.9064,-851.32,-187.44,-908.08
17390,-3.8735,0.0618,-0.9047,-460.69,-15.56,-1095.58
17400,-3.8735,0.0629,-0.9042,-85.69,203.19,-923.65
17410,-3.8735,0.0596,-0.9054,54.93,265.75,-673.65
17420,-3.8735,0.0537,-0.9064,-366.94,109.44,-548.65
17430,-3.8735,0.0498,-0.9061,-1116.94,-15.56,-501.83
17440,-3.8735,0.0498,-0.9044,-1616.94,15.69,-392.40
17450,-3.8735,0.0490,-0.9027,-1616.94,234.44,-329.90
17460,-3.8735,0.0485,-0.9033,-1726.32,453.19,-501.77
17470,-3.8735,0.0520,-0.9066,-1788.82,375.06,-658.02
17480,-3.8735,0.0547,-0.9094,-1335.69,-46.81,-829.96
17490,-3.8735,0.0546,-0.9097,-991.94,-406.19,-1236.21
17500,-3.8735,0.0536,-0.9084,-1007.57,-437.44,-1611.21
17510,-3.8735,0.0536,-0.9070,-1132.57,-281.19,-1814.33
17520,-3.8735,0.0542,-0.9062,-1132.57,-93.69,-1954.96
17530,-3.8735,0.0553,-0.9061,-1054.44,0.06,1982.60
17540,-3.8735,0.0587,-0.9061,-913.82,15.69,-1798.65
17550,-3.8735,0.0634,-0.9050,-476.32,15.69,-1454.90
17560,-3.8735,0.0664,-0.9045,117.43,156.37,-1142.40
17570,-3.8735,0.0654,-0.9062,508.06,218.87,-986.15
17580,-3.8735,0.0624,-0.9092,383.06,0.12,-1033.02
17590,-3.8735,0.0592,-0.9106,-7.57,-374.94,-1158.08
17600,-3.8735,0.0574,-0.9083,-413.82,-562.44,-1158.08
17610,-3.8735,0.0583,-0.9049,-648.19,-265.56,-892.46
17620,-3.8735,0.0610,-0.9036,-523.19,171.94,-579.90
17630,-3.8735,0.0620,-0.9041,-179.44,343.81,-376.77
17640,-3.8735,0.0594,-0.9048,-54.44,281.31,-220.52
17650,-3.8735,0.0536,-0.9052,-382.57,187.56,-48.65
17660,-3.8734,0.0474,-0.9061,-1132.57,140.69,185.73
17670,-3.8734,0.0443,-0.9065,-1929.44,15.69,451.35
17680,-3.8734,0.0448,-0.9053,1679.93,-31.19,701.29
17690,-3.8734,0.0472,-0.9030,1742.43,125.06,1013.85
17700,-3.8734,0.0508,-0.8993,-1945.07,421.94,1388.85
17710,-3.8734,0.0546,-0.8962,-1491.94,890.69,1701.35
17720,-3.8734,0.0580,-0.8982,-1007.57,1281.31,1607.60
17730,-3.8734,0.0627,-0.9060,-570.07,1031.31,1185.73
17740,-3.8734,0.0668,-0.9135,39.31,31.37,623.23
17750,-3.8734,0.0676,-0.9137,554.93,-921.75,76.29
17760,-3.8735,0.0675,-0.9077,664.31,-953.00,-64.33
17770,-3.8734,0.0682,-0.9014,648.68,-187.38,45.04
17780,-3.8734,0.0688,-0.8993,742.43,625.12,76.35
17790,-3.8735,0.0690,-0.9025,820.56,890.75,-95.52
17800,-3.8735,0.0679,-0.9087,836.18,484.50,-533.02
17810,-3.8735,0.0651,-0.9126,695.56,-312.38,-1142.46
17820,-3.8735,0.0615,-0.9124,336.18,-812.38,-1845.58
17830,-3.8735,0.0593,-0.9106,-116.94,-781.19,1685.67
17840,-3.8735,0.0590,-0.9087,-398.19,-562.44,1748.17
17850,-3.8735,0.0583,-0.9064,-445.07,-312.44,-1970.58
17860,-3.8735,0.0563,-0.9056,-523.19,-15.56,-1673.71
17870,-3.8735,0.0521,-0.9065,-788.82,78.19,-1486.15
17880,-3.8735,0.0468,-0.9071,-1320.07,-31.19,-1626.83
17890,-3.8735,0.0433,-0.9084,1992.43,-109.31,1888.79
17900,-3.8735,0.0436,-0.9104,1554.93,-281.19,1373.17
17910,-3.8735,0.0447,-0.9114,1586.18,-531.19,1045.04
17920,-3.8735,0.0441,-0.9095,1726.81,-656.19,998.17
17930,-3.8735,0.0428,-0.9065,1648.68,-421.81,1170.04
17940,-3.8735,0.0424,-0.9052,1492.43,-31.19,1435.67
17950,-3.8735,0.0424,-0.9056,1429.93,140.69,1857.60
17960,-3.8735,0.0422,-0.9058,1429.93,78.19,-1704.90
17970,-3.8735,0.0420,-0.9060,1414.31,62.56,-1470.52
17980,-3.8735,0.0435,-0.9072,1383.06,31.31,-1423.65
17990,-3.8735,0.0475,-0.9070,1570.56,-124.94,-1361.21
18000,-3.8735,0.0530,-0.9048,-1913.82,-93.69,-1048.71
18010,-3.8735,0.0574,-0.9030,-1210.69,187.56,-595.52
18020,-3.8735,0.0576,-0.9032,-648.19,421.94,-345.52
18030,-3.8735,0.0562,-0.9053,-616.94,390.69,-345.52
18040,-3.8735,0.0565,-0.9072,-804.44,125.06,-501.77
18050,-3.8735,0.0580,-0.9073,-757.57,-124.94,-704.96
18060,-3.8735,0.0609,-0.9060,-570.07,-140.56,-783.08
18070,-3.8735,0.0664,-0.9052,-195.07,31.31,-611.15
18080,-3.8735,0.0728,-0.9053,508.06,140.75,-204.90
18090,-3.8734,0.0757,-0.9059,1320.56,125.12,123.23
18100,-3.8734,0.0731,-0.9070,1695.56,47.00,216.98
18110,-3.8734,0.0668,-0.9071,1367.43,-93.63,295.04
18120,-3.8734,0.0588,-0.9055,554.93,-109.25,420.04
18130,-3.8734,0.0524,-0.9036,-460.69,93.81,529.48
18140,-3.8734,0.0500,-0.9026,-1288.82,343.81,545.10
18150,-3.8734,0.0497,-0.9023,-1585.69,468.81,545.10
18160,-3.8734,0.0493,-0.9022,-1632.57,500.06,560.73
18170,-3.8734,0.0485,-0.9027,-1679.44,515.69,435.73
18180,-3.8734,0.0469,-0.9043,-1788.82,453.19,279.48
18190,-3.8734,0.0465,-0.9071,-1991.94,250.06,216.98
18200,-3.8734,0.0492,-0.9091,1961.18,-109.31,91.92
18210,-3.8735,0.0535,-0.9075,-1695.07,-359.31,-17.46
18220,-3.8735,0.0574,-0.9032,-1148.19,-156.19,-95.58
18230,-3.8735,0.0604,-0.9001,-648.19,390.69,-236.15
18240,-3.8735,0.0627,-0.9016,-257.57,781.31,-548.65
18250,-3.8735,0.0636,-0.9060,39.31,593.87,-1017.40
18260,-3.8735,0.0638,-0.9097,148.68,31.37,-1392.40
18270,-3.8735,0.0638,-0.9099,179.93,-437.38,-1689.33
18280,-3.8735,0.0625,-0.9078,179.93,-468.63,1998.17
18290,-3.8735,0.0619,-0.9069,8.06,-203.00,1732.54
18300,-3.8735,0.0637,-0.9070,-70.07,-78.06,1560.67
18310,-3.8735,0.0654,-0.9066,164.31,-93.63,1466.92
18320,-3.8735,0.0646,-0.9069,383.06,-46.75,1466.92
18330,-3.8735,0.0627,-0.9083,273.68,-78.00,1638.79
18340,-3.8735,0.0605,-0.9084,39.31,-265.50,-1954.96
18350,-3.8735,0.0568,-0.9062,-241.94,-281.19,-1220.58
18360,-3.8735,0.0510,-0.9036,-726.32,0.06,-314.27
18370,-3.8734,0.0439,-0.9021,-1460.69,343.81,373.23
18380,-3.8734,0.0387,-0.9017,1633.06,531.31,670.10
18390,-3.8734,0.0367,-0.9021,961.18,578.19,779.48
18400,-3.8734,0.0382,-0.9023,711.18,531.31,779.48
18410,-3.8734,0.0427,-0.9019,898.68,500.06,701.35
18420,-3.8734,0.0485,-0.9019,1476.81,562.56,670.10
18430,-3.8734,0.0541,-0.9038,-1788.82,562.56,732.60
18440,-3.8734,0.0594,-0.9056,-1070.07,312.56,826.35
18450,-3.8734,0.0624,-0.9058,-382.57,78.19,1045.10
18460,-3.8734,0.0620,-0.9043,-7.57,62.56,1435.73
18470,-3.8734,0.0603,-0.9021,-54.44,250.06,1763.85
18480,-3.8734,0.0602,-0.9011,-273.19,531.31,1904.48
18490,-3.8734,0.0629,-0.9022,-288.82,656.31,1920.10
18500,-3.8734,0.0662,-0.9050,54.93,515.75,1701.35
18510,-3.8734,0.0692,-0.9075,476.81,156.37,1295.10
18520,-3.8734,0.0723,-0.9077,867.43,-156.13,873.17
18530,-3.8734,0.0723,-0.9055,1258.06,-187.38,513.79
18540,-3.8734,0.0675,-0.9036,1258.06,93.87,45.10
18550,-3.8735,0.0609,-0.9034,648.68,343.87,-548.65
18560,-3.8735,0.0548,-0.9048,-195.07,359.44,-1001.77
18570,-3.8735,0.0509,-0.9065,-976.32,187.56,-1439.27
18580,-3.8735,0.0497,-0.9065,-1476.32,-31.19,-1767.46
18590,-3.8735,0.0507,-0.9061,-1632.57,-31.19,-1954.96
18600,-3.8735,0.0533,-0.9070,-1507.57,15.69,1857.60
18610,-3.8735,0.0546,-0.9075,-1163.82,-93.69,1654.42
18620,-3.8735,0.0537,-0.9077,-1007.57,-156.19,1638.79
18630,-3.8735,0.0520,-0.9089,-1116.94,-187.44,1685.67
18640,-3.8735,0.0482,-0.9091,-1335.69,-343.69,1513.79
18650,-3.8735,0.0436,-0.9076,-1820.07,-359.31,1341.92
18660,-3.8735,0.0410,-0.9064,1586.18,-171.81,1435.67
18670,-3.8735,0.0426,-0.9050,1258.06,-15.56,1716.92
18680,-3.8735,0.0460,-0.9036,1461.18,156.31,-1970.52
18690,-3.8735,0.0481,-0.9023,1898.68,343.81,-1548.65
18700,-3.8735,0.0493,-0.9019,-1835.69,500.06,-1173.65
18710,-3.8735,0.0518,-0.9037,-1679.44,562.56,-986.15
18720,-3.8735,0.0549,-0.9066,-1366.94,328.19,-939.27
18730,-3.8735,0.0583,-0.9088,-960.69,-46.81,-939.33
18740,-3.8735,0.0631,-0.9099,-523.19,-328.06,-829.96
18750,-3.8735,0.0677,-0.9098,86.18,-468.63,-486.21
18760,-3.8734,0.0701,-0.9061,679.93,-453.00,154.42
18770,-3.8734,0.0698,-0.9004,976.81,15.75,982.60
18780,-3.8734,0.0656,-0.8972,945.56,750.12,1670.10
18790,-3.8734,0.0588,-0.8981,398.68,1156.37,1920.10
18800,-3.8734,0.0530,-0.9026,-460.69,1046.94,1732.60
18810,-3.8734,0.0498,-0.9071,-1210.69,468.81,1185.73
18820,-3.8734,0.0494,-0.9086,-1616.94,-109.31,529.42
18830,-3.8734,0.0516,-0.9071,-1663.82,-296.81,60.67
18840,-3.8735,0.0553,-0.9044,-1382.57,-109.31,-95.58
18850,-3.8735,0.0576,-0.9025,-913.82,234.44,-173.65
18860,-3.8735,0.0562,-0.9025,-616.94,484.44,-329.90
18870,-3.8735,0.0520,-0.9036,-804.44,484.44,-564.27
18880,-3.8735,0.0482,-0.9054,-1335.69,343.81,-798.65
18890,-3.8735,0.0465,-0.9076,-1820.07,109.44,-845.52
18900,-3.8735,0.0481,-0.9102,1961.18,-171.81,-767.46
18910,-3.8735,0.0508,-0.9120,-1835.69,-499.94,-892.46
18920,-3.8735,0.0533,-0.9094,-1491.94,-734.31,-1079.96
18930,-3.8735,0.0560,-0.9044,-1163.82,-406.19,-1204.96
18940,-3.8735,0.0579,-0.9008,-820.07,234.44,-1267.40
18950,-3.8735,0.0594,-0.9020,-585.69,703.19,-1345.52
18960,-3.8735,0.0605,-0.9077,-382.57,546.94,-1408.02
18970,-3.8735,0.0607,-0.9124,-241.94,-187.44,-1501.83
18980,-3.8735,0.0601,-0.9136,-226.32,-781.19,-1767.46
18990,-3.8735,0.0597,-0.9121,-304.44,-937.44,1998.17
19000,-3.8735,0.0608,-0.9088,-351.32,-749.94,-1954.96
19010,-3.8735,0.0605,-0.9049,-210.69,-328.06,-1658.08
19020,-3.8735,0.0576,-0.9034,-241.94,171.94,-1329.90
19030,-3.8735,0.0547,-0.9056,-616.94,359.44,-1173.65
19040,-3.8735,0.0522,-0.9080,-991.94,78.19,-1236.15
19050,-3.8735,0.0499,-0.9086,-1304.44,-218.69,-1220.58
19060,-3.8735,0.0483,-0.9077,-1601.32,-296.81,-1079.96
19070,-3.8735,0.0469,-0.9048,-1804.44,-187.44,-845.58
19080,-3.8735,0.0448,-0.9012,-1991.94,187.56,-501.77
19090,-3.8735,0.0432,-0.9010,1742.43,640.69,-345.52
19100,-3.8735,0.0441,-0.9043,1539.31,671.94,-392.40
19110,-3.8735,0.0471,-0.9066,1648.68,250.06,-454.90
19120,-3.8735,0.0510,-0.9065,-1960.69,-46.81,-548.71
19130,-3.8735,0.0544,-0.9054,-1460.69,-31.19,-611.21
19140,-3.8735,0.0579,-0.9036,-1023.19,109.44,-501.77
19150,-3.8735,0.0612,-0.9036,-585.69,343.81,-204.90
19160,-3.8734,0.0632,-0.9061,-163.82,343.81,91.98
19170,-3.8734,0.0643,-0.9082,101.81,15.75,232.60
19180,-3.8734,0.0652,-0.9087,242.43,-249.88,201.29
19190,-3.8735,0.0642,-0.9078,351.81,-312.38,-1.83
19200,-3.8735,0.0613,-0.9055,226.81,-203.00,-314.33
19210,-3.8735,0.0586,-0.9037,-148.19,93.81,-658.02
19220,-3.8735,0.0581,-0.9038,-491.94,328.19,-986.15
19230,-3.8735,0.0602,-0.9067,-554.44,312.56,-1204.90
19240,-3.8735,0.0627,-0.9114,-288.82,-62.44,-1173.71
19250,-3.8735,0.0613,-0.9125,39.31,-656.13,-939.33
19260,-3.8735,0.0558,-0.9080,-148.19,-796.81,-720.58
19270,-3.8735,0.0503,-0.9020,-851.32,-218.69,-486.21
19280,-3.8735,0.0477,-0.8989,-1554.44,546.94,-236.15
19290,-3.8735,0.0476,-0.9000,-1882.57,937.56,-158.02
19300,-3.8735,0.0479,-0.9042,-1898.19,796.94,-408.02
19310,-3.8735,0.0487,-0.9077,-1866.94,265.69,-829.90
19320,-3.8735,0.0492,-0.9080,-1757.57,-187.44,-1329.96
19330,-3.8735,0.0502,-0.9061,-1695.07,-218.69,-1689.33
19340,-3.8735,0.0522,-0.9055,-1570.07,15.69,-1564.27
19350,-3.8735,0.0530,-0.9064,-1304.44,93.81,-1267.40
19360,-3.8735,0.0530,-0.9077,-1210.69,-15.56,-1158.08
19370,-3.8735,0.0554,-0.9089,-1210.69,-187.44,-1142.46
19380,-3.8735,0.0612,-0.9075,-898.19,-343.69,-939.33
19390,-3.8735,0.0684,-0.9039,-163.82,-156.19,-658.08
19400,-3.8735,0.0735,-0.9022,758.06,297.00,-439.27
19410,-3.8735,0.0739,-0.9052,1414.31,515.75,-470.52
19420,-3.8735,0.0696,-0.9102,1461.18,140.75,-751.77
19430,-3.8735,0.0626,-0.9117,914.31,-499.88,-1001.83
19440,-3.8735,0.0564,-0.9098,23.68,-703.00,-1095.58
19450,-3.8735,0.0527,-0.9075,-773.19,-453.06,-1033.08
19460,-3.8735,0.0518,-0.9064,-1241.94,-156.19,-908.08
19470,-3.8735,0.0509,-0.9052,-1366.94,-15.56,-564.33
19480,-3.8735,0.0496,-0.9034,-1476.32,140.69,-267.40
19490,-3.8735,0.0476,-0.9026,-1648.19,359.44,-314.27
19500,-3.8735,0.0465,-0.9038,-1898.19,468.81,-439.27
19510,-3.8735,0.0488,-0.9069,1961.18,312.56,-486.15
19520,-3.8735,0.0533,-0.9087,-1741.94,-78.06,-392.46
19530,-3.8735,0.0577,-0.9081,-1163.82,-312.44,-142.46
19540,-3.8734,0.0604,-0.9064,-601.32,-234.31,279.42
19550,-3.8734,0.0593,-0.9045,-257.57,-15.56,623.17
19560,-3.8734,0.0569,-0.9039,-398.19,218.81,654.48
19570,-3.8734,0.0559,-0.9044,-710.69,296.94,466.98
19580,-3.8734,0.0565,-0.9049,-835.69,234.44,185.73
19590,-3.8735,0.0570,-0.9054,-757.57,171.94,-158.02
19600,-3.8735,0.0570,-0.9069,-695.07,109.44,-720.52
19610,-3.8735,0.0577,-0.9086,-695.07,-78.06,-1298.71
19620,-3.8735,0.0590,-0.9089,-601.32,-296.81,-1486.21
19630,-3.8735,0.0583,-0.9076,-445.07,-343.69,-1376.83
19640,-3.8735,0.0552,-0.9060,-523.19,-171.81,-1251.83
19650,-3.8735,0.0513,-0.9065,-929.44,31.31,-1283.02
19660,-3.8735,0.0502,-0.9088,-1429.44,-31.19,-1408.08
19670,-3.8735,0.0522,-0.9097,-1570.07,-328.06,-1439.33
19680,-3.8735,0.0552,-0.9073,-1304.44,-437.44,-1345.58
19690,-3.8735,0.0573,-0.9042,-929.44,-140.56,-1173.71
19700,-3.8735,0.0579,-0.9021,-663.82,265.69,-923.65
19710,-3.8735,0.0560,-0.9020,-585.69,531.31,-751.77
19720,-3.8735,0.0529,-0.9042,-820.07,546.94,-767.40
19730,-3.8735,0.0510,-0.9075,-1226.32,265.69,-876.77
19740,-3.8735,0.0510,-0.9105,-1460.69,-156.19,-908.08
19750,-3.8735,0.0520,-0.9115,-1460.69,-546.81,-986.21
19760,-3.8735,0.0560,-0.9093,-1335.69,-671.81,-1001.83
19770,-3.8735,0.0615,-0.9064,-820.07,-390.56,-923.71
19780,-3.8735,0.0638,-0.9045,-116.94,-15.56,-892.46
19790,-3.8735,0.0619,-0.9043,179.93,218.87,-845.52
19800,-3.8735,0.0582,-0.9061,-70.07,250.06,-751.77
19810,-3.8735,0.0558,-0.9072,-538.82,15.69,-626.77
19820,-3.8735,0.0538,-0.9066,-851.32,-124.94,-486.21
19830,-3.8735,0.0527,-0.9047,-1101.32,-46.81,-376.83
19840,-3.8735,0.0516,-0.9025,-1241.94,203.19,-251.77
19850,-3.8735,0.0488,-0.9031,-1382.57,484.44,-251.77
19860,-3.8735,0.0448,-0.9056,-1741.94,406.31,-361.15
19870,-3.8735,0.0424,-0.9075,1742.43,78.19,-579.90
19880,-3.8735,0.0444,-0.9081,1429.93,-156.19,-751.83
19890,-3.8735,0.0505,-0.9076,1695.56,-234.31,-767.46
19900,-3.8735,0.0580,-0.9052,-1523.19,-171.81,-704.96
19910,-3.8735,0.0634,-0.9027,-570.07,140.69,-626.77
19920,-3.8735,0.0636,-0.9036,117.43,453.25,-642.40
19930,-3.8735,0.0588,-0.9064,148.68,343.87,-892.40
19940,-3.8735,0.0552,-0.9089,-460.69,-15.56,-1376.83
19950,-3.8735,0.0574,-0.9105,-929.44,-343.69,-1829.96
19960,-3.8735,0.0627,-0.9104,-648.19,-546.81,1966.92
19970,-3.8735,0.0664,-0.9093,39.31,-531.13,-1954.96
19980,-3.8735,0.0665,-0.9089,508.06,-390.50,-1720.58
19990,-3.8735,0.0621,-0.9089,523.68,-343.63,-1392.46
20000,-3.8735,0.0535,-0.9070,-38.82,-343.69,-1095.58
20010,-3.8735,0.0457,-0.9052,-1148.19,-93.69,-908.08
20020,-3.8735,0.0435,-0.9049,1851.81,140.69,-689.27
20030,-3.8735,0.0476,-0.9055,1570.56,171.94,-329.90
20040,-3.8735,0.0529,-0.9066,-1898.19,93.81,-126.77
20050,-3.8735,0.0568,-0.9069,-1226.32,-46.81,-142.46
20060,-3.8735,0.0594,-0.9058,-726.32,-78.06,-189.33
20070,-3.8735,0.0592,-0.9044,-382.57,62.56,-236.15
20080,-3.8735,0.0563,-0.9038,-413.82,234.44,-392.40
20090,-3.8735,0.0538,-0.9047,-788.82,312.56,-704.90
20100,-3.8735,0.0529,-0.9076,-1101.32,203.19,-1189.27
20110,-3.8735,0.0541,-0.9117,-1226.32,-171.81,-1798.71
20120,-3.8735,0.0591,-0.9142,-1070.07,-703.06,1685.67
20130,-3.8735,0.0641,-0.9126,-429.44,-1015.56,1529.42
20140,-3.8735,0.0632,-0.9080,211.18,-812.38,1779.42
20150,-3.8735,0.0576,-0.9041,101.81,-218.63,-1814.33
20160,-3.8735,0.0525,-0.9042,-616.94,281.31,-1376.77
20170,-3.8735,0.0490,-0.9062,-1273.19,265.69,-1267.40
20180,-3.8735,0.0468,-0.9061,-1726.32,0.06,-1454.90
20190,-3.8735,0.0475,-0.9056,1992.43,15.69,-1642.40
20200,-3.8735,0.0513,-0.9076,-1913.82,78.19,-1673.65
20210,-3.8735,0.0548,-0.9108,-1429.44,-171.81,-1408.08
20220,-3.8735,0.0558,-0.9117,-976.32,-578.06,-861.21
20230,-3.8735,0.0542,-0.9084,-851.32,-703.06,-345.58
20240,-3.8734,0.0522,-0.9041,-1054.44,-281.19,107.54
20250,-3.8734,0.0522,-0.9031,-1304.44,281.31,388.85
20260,-3.8734,0.0540,-0.9049,-1304.44,406.31,279.48
20270,-3.8735,0.0546,-0.9060,-1085.69,171.94,-1.77
20280,-3.8735,0.0541,-0.9048,-1007.57,31.31,-220.52
20290,-3.8735,0.0540,-0.9031,-1070.07,187.56,-158.02
20300,-3.8734,0.0541,-0.9021,-1085.69,406.31,170.10
20310,-3.8734,0.0533,-0.9031,-1070.07,531.31,529.48
20320,-3.8734,0.0530,-0.9043,-1163.82,406.31,763.85
20330,-3.8734,0.0538,-0.9058,-1210.69,250.06,810.73
20340,-3.8734,0.0537,-0.9064,-1101.32,62.56,576.35
20350,-3.8734,0.0529,-0.9050,-1116.94,-15.56,123.17
20360,-3.8735,0.0529,-0.9043,-1226.32,156.31,-423.65
20370,-3.8735,0.0533,-0.9056,-1226.32,250.06,-986.15
20380,-3.8735,0.0560,-0.9084,-1163.82,78.19,-1439.27
20390,-3.8735,0.0602,-0.9099,-820.07,-281.19,-1720.58
20400,-3.8735,0.0629,-0.9080,-288.82,-468.69,-1814.33
20410,-3.8735,0.0641,-0.9060,54.93,-218.63,-1689.33
20420,-3.8735,0.0637,-0.9070,211.18,31.37,-1486.15
20430,-3.8735,0.0623,-0.9082,164.31,-93.63,-1204.96
20440,-3.8735,0.0605,-0.9071,-23.19,-249.94,-876.83
20450,-3.8735,0.0587,-0.9052,-241.94,-109.31,-704.96
20460,-3.8735,0.0563,-0.9045,-476.32,140.69,-814.27
20470,-3.8735,0.0530,-0.9042,-788.82,218.81,-939.27
20480,-3.8735,0.0498,-0.9042,-1210.69,265.69,-1033.02
20490,-3.8735,0.0468,-0.9052,-1616.94,265.69,-1095.52
20500,-3.8735,0.0447,-0.9056,1992.43,140.69,-970.52
20510,-3.8735,0.0453,-0.9062,1726.81,78.19,-814.27
20520,-3.8735,0.0481,-0.9073,1804.93,0.06,-658.02
20530,-3.8735,0.0518,-0.9070,-1835.69,-140.56,-361.21
20540,-3.8735,0.0548,-0.9039,-1366.94,-93.69,-1.83
20550,-3.8734,0.0564,-0.9006,-976.32,296.94,326.35
20560,-3.8734,0.0563,-0.9001,-773.19,718.81,545.10
20570,-3.8734,0.0542,-0.9015,-788.82,781.31,545.10
20580,-3.8734,0.0520,-0.9033,-1054.44,609.44,295.10
20590,-3.8735,0.0516,-0.9050,-1335.69,375.06,-33.02
20600,-3.8735,0.0533,-0.9070,-1382.57,156.31,-189.27
20610,-3.8735,0.0563,-0.9083,-1163.82,-93.69,-220.58
20620,-3.8735,0.0596,-0.9086,-788.82,-265.56,-345.58
20630,-3.8735,0.0615,-0.9081,-366.94,-296.81,-501.83
20640,-3.8735,0.0613,-0.9062,-116.94,-234.31,-548.71
20650,-3.8735,0.0605,-0.9041,-148.19,0.06,-392.40
20660,-3.8735,0.0615,-0.9031,-241.94,281.31,-220.52
20670,-3.8735,0.0634,-0.9036,-116.94,406.31,-173.65
20680,-3.8735,0.0631,-0.9038,117.43,343.87,-79.90
20690,-3.8735,0.0585,-0.9038,86.18,312.62,-17.40
20700,-3.8735,0.0518,-0.9044,-507.57,312.56,-220.52
20710,-3.8735,0.0466,-0.9058,-1366.94,234.44,-533.02
20720,-3.8735,0.0448,-0.9066,1976.81,62.56,-720.52
20730,-3.8735,0.0461,-0.9059,1742.43,-46.81,-751.83
20740,-3.8735,0.0487,-0.9039,1914.31,46.94,-798.65
20750,-3.8735,0.0516,-0.9036,-1757.57,296.94,-908.02
20760,-3.8735,0.0548,-0.9059,-1382.57,343.81,-1064.27
20770,-3.8735,0.0552,-0.9081,-976.32,46.94,-1251.77
20780,-3.8735,0.0521,-0.9080,-929.44,-234.31,-1236.21
20790,-3.8735,0.0496,-0.9067,-1320.07,-218.69,-954.96
20800,-3.8735,0.0497,-0.9055,-1648.19,-62.44,-486.21
20810,-3.8734,0.0527,-0.9047,-1632.57,93.81,201.35
20820,-3.8734,0.0576,-0.9030,-1241.94,203.19,935.73
20830,-3.8734,0.0625,-0.9003,-616.94,421.94,1404.48
20840,-3.8734,0.0658,-0.8995,8.06,765.75,1545.10
20850,-3.8734,0.0667,-0.9016,429.93,859.50,1388.85
20860,-3.8734,0.0652,-0.9060,539.31,593.87,857.60
20870,-3.8734,0.0630,-0.9110,351.81,31.37,170.10
20880,-3.8735,0.0619,-0.9130,70.56,-609.25,-361.21
20890,-3.8735,0.0615,-0.9110,-70.07,-859.31,-736.21
20900,-3.8735,0.0593,-0.9067,-116.94,-609.31,-798.71
20910,-3.8735,0.0542,-0.9026,-398.19,-62.44,-611.21
20920,-3.8735,0.0486,-0.9014,-1054.44,468.81,-454.90
20930,-3.8735,0.0447,-0.9021,-1773.19,625.06,-423.65
20940,-3.8735,0.0432,-0.9030,1726.81,531.31,-454.90
20950,-3.8735,0.0437,-0.9041,1539.31,421.94,-673.65
20960,-3.8735,0.0454,-0.9050,1601.81,281.31,-970.52
20970,-3.8735,0.0494,-0.9056,1820.56,156.31,-1204.90
20980,-3.8735,0.0542,-0.9077,-1663.82,78.19,-1439.27
20990,-3.8735,0.0583,-0.9105,-1054.44,-187.44,-1611.21
21000,-3.8735,0.0604,-0.9104,-523.19,-546.81,-1658.08
21010,-3.8735,0.0596,-0.9075,-257.57,-531.19,-1704.96
21020,-3.8735,0.0573,-0.9049,-366.94,-156.19,-1751.83
21030,-3.8735,0.0552,-0.9039,-663.82,171.94,-1658.02
21040,-3.8735,0.0542,-0.9045,-929.44,296.94,-1361.15
21050,-3.8735,0.0540,-0.9062,-1054.44,218.81,-1079.90
21060,-3.8735,0.0542,-0.9089,-1085.69,0.06,-1064.27
21070,-3.8735,0.0542,-0.9109,-1054.44,-343.69,-1236.21
21080,-3.8735,0.0542,-0.9100,-1054.44,-593.69,-1267.46
21090,-3.8735,0.0546,-0.9071,-1054.44,-484.31,-986.21
21100,-3.8735,0.0548,-0.9038,-1007.57,-109.31,-392.46
21110,-3.8734,0.0544,-0.9006,-976.32,312.56,388.85
21120,-3.8734,0.0533,-0.8990,-1023.19,718.81,1091.98
21130,-3.8734,0.0522,-0.9009,-1163.82,921.94,1357.60
21140,-3.8734,0.0525,-0.9039,-1304.44,687.56,1045.10
21150,-3.8734,0.0540,-0.9055,-1273.19,296.94,482.60
21160,-3.8734,0.0560,-0.9058,-1085.69,93.81,45.10
21170,-3.8735,0.0577,-0.9064,-820.07,62.56,-79.90
21180,-3.8735,0.0579,-0.9080,-601.32,-15.56,-142.46
21190,-3.8735,0.0568,-0.9095,-585.69,-218.69,-173.71
21200,-3.8735,0.0552,-0.9091,-726.32,-421.81,-111.21
21210,-3.8735,0.0532,-0.9050,-929.44,-359.31,-111.21
21220,-3.8735,0.0507,-0.9017,-1179.44,156.31,-111.15
21230,-3.8735,0.0496,-0.9015,-1507.57,578.19,-79.90
21240,-3.8735,0.0526,-0.9036,-1648.19,609.44,-17.40
21250,-3.8735,0.0576,-0.9067,-1257.57,343.81,-64.27
21260,-3.8735,0.0607,-0.9093,-616.94,-62.44,-345.58
21270,-3.8735,0.0613,-0.9094,-226.32,-390.56,-689.33
21280,-3.8735,0.0616,-0.9082,-148.19,-406.19,-892.46
21290,-3.8735,0.0608,-0.9069,-101.32,-249.94,-814.33
21300,-3.8735,0.0591,-0.9047,-210.69,-78.06,-595.58
21310,-3.8735,0.0573,-0.9034,-429.44,203.19,-470.52
21320,-3.8735,0.0543,-0.9041,-663.82,359.44,-454.90
21330,-3.8735,0.0508,-0.9049,-1038.82,281.31,-454.90
21340,-3.8735,0.0482,-0.9049,-1491.94,171.94,-486.15
21350,-3.8735,0.0465,-0.9038,-1820.07,171.94,-501.77
21360,-3.8735,0.0452,-0.9032,1961.18,312.56,-454.90
21370,-3.8735,0.0453,-0.9045,1789.31,390.69,-501.77
21380,-3.8735,0.0466,-0.9065,1804.93,218.81,-783.02
21390,-3.8735,0.0480,-0.9077,1976.81,-31.19,-1189.33
21400,-3.8735,0.0487,-0.9069,-1851.32,-187.44,-1486.21
21410,-3.8735,0.0493,-0.9049,-1757.57,-78.06,-1548.71
21420,-3.8735,0.0510,-0.9053,-1679.44,171.94,-1314.27
21430,-3.8735,0.0554,-0.9075,-1460.69,125.06,-908.02
21440,-3.8735,0.0587,-0.9086,-898.19,-156.19,-626.83
21450,-3.8735,0.0574,-0.9084,-476.32,-296.81,-611.21
21460,-3.8735,0.0546,-0.9066,-648.19,-281.19,-751.83
21470,-3.8735,0.0530,-0.9036,-1007.57,-46.81,-829.96
21480,-3.8735,0.0540,-0.9023,-1210.69,343.81,-767.40
21490,-3.8735,0.0558,-0.9031,-1085.69,500.06,-658.02
21500,-3.8735,0.0569,-0.9045,-851.32,406.31,-517.40
21510,-3.8735,0.0580,-0.9062,-710.69,218.81,-392.40
21520,-3.8735,0.0583,-0.9066,-570.07,0.06,-392.40
21530,-3.8735,0.0573,-0.9058,-523.19,-46.81,-439.33
21540,-3.8735,0.0552,-0.9054,-663.82,62.56,-345.52
21550,-3.8735,0.0521,-0.9064,-929.44,109.44,-267.40
21560,-3.8735,0.0497,-0.9064,-1320.07,-15.56,-251.83
21570,-3.8735,0.0492,-0.9047,-1632.57,-15.56,-314.33
21580,-3.8735,0.0500,-0.9032,-1695.07,203.19,-361.15
21590,-3.8735,0.0513,-0.9023,-1585.69,390.69,-345.52
21600,-3.8735,0.0527,-0.9033,-1429.44,500.06,-517.40
21610,-3.8735,0.0543,-0.9067,-1241.94,375.06,-798.65
21620,-3.8735,0.0563,-0.9103,-1038.82,-62.44,-1033.08
21630,-3.8735,0.0579,-0.9115,-788.82,-515.56,-1173.71
21640,-3.8735,0.0585,-0.9091,-585.69,-671.81,-1079.96
21650,-3.8735,0.0574,-0.9047,-507.57,-359.31,-611.21
21660,-3.8735,0.0547,-0.9010,-648.19,203.19,-79.90
21670,-3.8734,0.0513,-0.8997,-991.94,671.94,248.23
21680,-3.8734,0.0490,-0.9015,-1429.44,843.81,357.60
21690,-3.8734,0.0504,-0.9047,-1726.32,609.44,91.98
21700,-3.8735,0.0548,-0.9072,-1538.82,203.19,-314.27
21710,-3.8735,0.0596,-0.9088,-976.32,-124.94,-439.33
21720,-3.8735,0.0621,-0.9073,-366.94,-328.06,-392.46
21730,-3.8735,0.0604,-0.9041,-38.82,-140.56,-392.46
21740,-3.8735,0.0562,-0.9034,-257.57,281.31,-439.27
21750,-3.8735,0.0525,-0.9048,-804.44,359.44,-517.40
21760,-3.8735,0.0518,-0.9059,-1273.19,187.56,-642.40
21770,-3.8735,0.0521,-0.9067,-1366.94,46.94,-767.40
21780,-3.8735,0.0535,-0.9071,-1320.07,-62.44,-736.21
21790,-3.8735,0.0559,-0.9055,-1148.19,-109.31,-439.33
21800,-3.8735,0.0566,-0.9031,-835.69,93.81,-17.40
21810,-3.8734,0.0541,-0.9014,-741.94,406.31,232.60
21820,-3.8734,0.0503,-0.9012,-1070.07,625.06,357.60
21830,-3.8734,0.0475,-0.9042,-1554.44,640.69,341.98
21840,-3.8734,0.0465,-0.9075,-1913.82,265.69,107.60
21850,-3.8735,0.0474,-0.9084,1961.18,-156.19,-220.58
21860,-3.8735,0.0494,-0.9086,-1929.44,-281.19,-517.46
21870,-3.8735,0.0518,-0.9081,-1663.82,-296.81,-595.58
21880,-3.8735,0.0546,-0.9056,-1366.94,-234.31,-439.33
21890,-3.8735,0.0581,-0.9037,-1007.57,78.19,-298.65
21900,-3.8735,0.0615,-0.9039,-554.44,328.19,-361.15
21910,-3.8735,0.0632,-0.9045,-116.94,296.94,-626.77
21920,-3.8735,0.0616,-0.9056,101.81,218.87,-1111.15
21930,-3.8735,0.0575,-0.9067,-101.32,78.19,-1579.90
21940,-3.8735,0.0519,-0.9065,-632.57,-62.44,-1704.96
21950,-3.8735,0.0457,-0.9061,-1351.32,-31.19,-1439.33
21960,-3.8735,0.0408,-0.9065,1851.81,15.69,-876.77
21970,-3.8735,0.0381,-0.9070,1226.81,-31.19,-345.58
21980,-3.8734,0.0380,-0.9069,883.06,-93.69,91.92
21990,-3.8734,0.0397,-0.9064,867.43,-78.06,357.54
22000,-3.8734,0.0431,-0.9039,1086.18,-15.56,388.79
22010,-3.8734,0.0468,-0.9017,1523.68,296.94,279.48
22020,-3.8734,0.0510,-0.9023,1992.43,578.19,123.23
22030,-3.8735,0.0555,-0.9054,-1460.69,500.06,-173.65
22040,-3.8735,0.0585,-0.9094,-882.57,109.44,-486.15
22050,-3.8735,0.0583,-0.9095,-507.57,-406.19,-626.83
22060,-3.8735,0.0552,-0.9058,-523.19,-421.81,-720.58
22070,-3.8735,0.0522,-0.9033,-929.44,62.56,-736.15
22080,-3.8735,0.0524,-0.9034,-1304.44,375.06,-673.65
22090,-3.8735,0.0549,-0.9047,-1288.82,359.44,-611.15
22100,-3.8735,0.0571,-0.9062,-960.69,203.19,-486.15
22110,-3.8735,0.0564,-0.9075,-679.44,0.06,-392.40
22120,-3.8735,0.0533,-0.9078,-773.19,-156.19,-454.96
22130,-3.8735,0.0496,-0.9072,-1163.82,-203.06,-658.08
22140,-3.8735,0.0471,-0.9050,-1648.19,-124.94,-798.71
22150,-3.8735,0.0476,-0.9030,-1960.69,156.31,-814.27
22160,-3.8735,0.0531,-0.9023,-1898.19,421.94,-986.15
22170,-3.8735,0.0653,-0.8998,-1195.07,500.06,-986.15
22180,-3.8735,0.0715,-0.9000,367.43,828.25,-954.90
22190,-3.8735,0.0717,-0.9049,1164.31,797.00,-1017.40
22200,-3.8735,0.0720,-0.9082,1179.93,172.00,-798.65
22210,-3.8735,0.0643,-0.9088,1226.81,-249.88,-579.96
22220,-3.8735,0.0522,-0.9066,242.43,-328.00,-1158.08
22230,-3.8735,0.0470,-0.9081,-1304.44,-46.81,-1923.71
22240,-3.8735,0.0486,-0.9144,-1976.32,-234.31,-1579.96
22250,-3.8735,0.0477,-0.9158,-1773.19,-1046.81,-720.58
22260,-3.8735,0.0420,-0.9119,-1882.57,-1218.69,-111.21
22270,-3.8735,0.0359,-0.9087,1383.06,-718.69,-95.58
22280,-3.8735,0.0317,-0.9093,601.81,-312.44,-486.21
22290,-3.8735,0.0289,-0.9109,70.56,-390.56,-1095.58
22300,-3.8735,0.0264,-0.9111,-288.82,-593.75,1779.42
22310,-3.8735,0.0273,-0.9116,-616.94,-625.00,466.92
22320,-3.8737,0.0343,-0.9147,-491.94,-687.50,-251.83
22330,-3.8737,0.0424,-0.9159,398.68,-1078.06,-329.96
22340,-3.8737,0.0490,-0.9130,1429.93,-1234.31,-204.96
22350,-3.8737,0.0538,-0.9094,-1726.32,-859.31,-64.33
22360,-3.8735,0.0575,-0.9091,-1101.32,-406.19,185.67
22370,-3.8735,0.0608,-0.9116,-632.57,-359.31,451.29
22380,-3.8735,0.0648,-0.9142,-210.69,-687.44,685.67
22390,-3.8735,0.0659,-0.9146,304.93,-1015.50,1060.67
22400,-3.8735,0.0621,-0.9127,445.56,-1062.38,1232.54
22410,-3.8735,0.0582,-0.9089,-38.82,-828.06,1310.67
22420,-3.8735,0.0583,-0.9054,-538.82,-343.69,1701.29
22430,-3.8735,0.0631,-0.9047,-523.19,109.44,-1892.40
22440,-3.8735,0.0718,-0.9071,86.18,203.25,-1642.40
22450,-3.8735,0.0814,-0.9100,1195.56,-109.25,-1533.08
22460,-3.8735,0.0879,-0.9122,-1570.07,-484.25,-1595.58
22470,-3.8735,0.0913,-0.9136,-741.94,-765.50,-1626.83
22480,-3.8735,0.0934,-0.9126,-304.44,-937.38,-1158.08
22490,-3.8735,0.0914,-0.9091,-38.82,-812.38,-314.33
22500,-3.8734,0.0825,-0.9060,-288.82,-359.25,466.92
22510,-3.8734,0.0669,-0.9047,-1429.44,31.37,998.23
22520,-3.8734,0.0500,-0.9048,570.56,203.25,1263.85
22530,-3.8734,0.0371,-0.9053,-1585.69,187.56,1373.23
22540,-3.8734,0.0302,-0.9059,758.06,125.06,1232.60
22550,-3.8734,0.0250,-0.9064,-132.57,46.88,857.60
22560,-3.8734,0.0190,-0.9052,-788.82,-15.62,591.92
22570,-3.8734,0.0128,-0.9050,-1554.44,140.62,295.10
22580,-3.8735,0.0096,-0.9075,1648.68,156.25,-126.77
22590,-3.8735,0.0133,-0.9083,1242.43,-156.25,-470.58
22600,-3.8735,0.0226,-0.9060,1711.18,-265.62,-533.08
22610,-3.8735,0.0336,-0.9019,-1101.32,31.25,-408.02
22620,-3.8735,0.0424,-0.9004,304.93,562.56,-220.52
22630,-3.8735,0.0474,-0.9036,1429.93,750.06,-173.65
22640,-3.8735,0.0496,-0.9082,-1929.44,343.81,-658.02
22650,-3.8735,0.0488,-0.9108,-1648.19,-249.94,-1548.71
22660,-3.8735,0.0457,-0.9115,-1741.94,-578.06,1685.67
22670,-3.8735,0.0422,-0.9104,1851.81,-671.81,1326.29
22680,-3.8735,0.0409,-0.9089,1414.31,-531.19,1138.79
22690,-3.8735,0.0419,-0.9088,1242.43,-343.69,1216.92
22700,-3.8735,0.0426,-0.9093,1367.43,-328.06,1638.79
22710,-3.8735,0.0431,-0.9091,1461.18,-390.56,-1876.83
22720,-3.8735,0.0449,-0.9081,1523.68,-359.31,-1501.83
22730,-3.8735,0.0475,-0.9083,1758.06,-234.31,-1158.08
22740,-3.8735,0.0492,-0.9100,-1913.82,-265.56,-986.21
22750,-3.8735,0.0509,-0.9124,-1695.07,-484.31,-1111.21
22760,-3.8735,0.0522,-0.9132,-1476.32,-781.19,-1361.21
22770,-3.8735,0.0525,-0.9114,-1304.44,-890.56,-1595.58
22780,-3.8735,0.0529,-0.9080,-1273.19,-656.19,-1720.58
22790,-3.8735,0.0527,-0.9052,-1226.32,-218.69,-1595.58
22800,-3.8735,0.0518,-0.9038,-1241.94,140.69,-1329.90
22810,-3.8735,0.0519,-0.9044,-1366.94,312.56,-1251.77
22820,-3.8735,0.0530,-0.9077,-1351.32,234.44,-1376.77
22830,-3.8735,0.0524,-0.9120,-1210.69,-187.44,-1579.96
22840,-3.8735,0.0496,-0.9136,-1288.82,-734.31,-1595.58
22850,-3.8735,0.0455,-0.9116,-1648.19,-937.44,-1298.71
22860,-3.8735,0.0406,-0.9077,1836.18,-687.44,-720.58
22870,-3.8735,0.0365,-0.9038,1211.18,-187.44,-251.83
22880,-3.8734,0.0358,-0.9022,679.93,312.56,45.10
22890,-3.8734,0.0386,-0.9036,586.18,515.69,185.73
22900,-3.8735,0.0426,-0.9055,945.56,343.81,-79.90
22910,-3.8735,0.0454,-0.9067,1461.18,93.81,-751.77
22920,-3.8735,0.0474,-0.9081,1820.56,-62.44,-1423.71
22930,-3.8735,0.0494,-0.9095,-1929.44,-234.31,-1939.33
22940,-3.8735,0.0511,-0.9109,-1663.82,-421.81,1716.92
22950,-3.8735,0.0513,-0.9113,-1445.07,-593.69,1545.04
22960,-3.8735,0.0514,-0.9103,-1429.44,-640.56,1545.04
22970,-3.8735,0.0527,-0.9093,-1413.82,-515.56,1748.17
22980,-3.8735,0.0544,-0.9086,-1241.94,-390.56,-1986.21
22990,-3.8735,0.0549,-0.9082,-1023.19,-296.81,-1845.58
23000,-3.8735,0.0530,-0.9098,-960.69,-249.94,-1829.96
23010,-3.8735,0.0499,-0.9106,-1210.69,-453.06,-1720.58
23020,-3.8735,0.0468,-0.9093,-1601.32,-562.44,-1486.21
23030,-3.8735,0.0432,-0.9080,1992.43,-390.56,-1267.46
23040,-3.8735,0.0409,-0.9070,1539.31,-218.69,-1048.71
23050,-3.8735,0.0420,-0.9053,1242.43,-93.69,-939.33
23060,-3.8735,0.0464,-0.9049,1383.06,125.06,-1126.77
