timestamp_ms,ax,ay,az,gx,gy,gz
0,-3.8711,0.1517,-0.0975,-1070.07,593.99,-828.31
10,-3.8711,0.1541,-0.1021,-570.07,-484.13,1906.01
20,-3.8712,0.1537,-0.1038,-273.19,-1062.26,-1015.87
30,-3.8712,0.1523,-0.1091,-320.07,-1281.01,124.76
40,-3.8713,0.1489,-0.1158,-491.94,-1968.51,-1359.62
50,-3.8713,0.1417,-0.1151,-929.44,1172.12,-1265.87
60,-3.8713,0.1332,-0.1068,-1851.32,1265.87,-500.24
70,-3.8712,0.1296,-0.0989,1054.93,-1671.63,765.38
80,-3.8712,0.1346,-0.0964,601.81,-656.01,-1640.87
90,-3.8712,0.1428,-0.0964,1242.43,-343.51,-281.49
100,-3.8711,0.1464,-0.0952,-1710.69,-343.51,609.13
110,-3.8711,0.1476,-0.0913,-1257.57,-187.26,1062.26
120,-3.8711,0.1489,-0.0931,-1101.32,312.74,734.19
130,-3.8712,0.1486,-0.1017,-929.44,78.37,-484.56
140,-3.8712,0.1437,-0.1095,-976.32,-1015.38,1656.01
150,-3.8713,0.1356,-0.1268,-1601.32,1984.62,-172.12
160,-3.8713,0.1361,-0.1385,1367.43,-234.13,-406.56
170,-3.8712,0.1418,-0.1263,1429.93,-1734.13,577.82
180,-3.8712,0.1407,-0.1072,-1835.69,-171.63,1296.57
190,-3.8712,0.1385,-0.0958,-1976.32,-1718.51,1718.51
200,-3.8712,0.1396,-0.0959,1742.43,-265.38,-1718.99
210,-3.8712,0.1399,-0.0977,1883.06,-281.01,-890.87
220,-3.8712,0.1399,-0.0931,1914.31,-499.76,-234.62
230,-3.8712,0.1412,-0.0911,1914.31,78.37,-109.56
240,-3.8712,0.1440,-0.0989,-1913.82,343.99,-0.18
250,-3.8711,0.1475,-0.1086,-1554.44,-656.01,343.51
260,-3.8711,0.1478,-0.1115,-1116.94,-1906.01,531.01
270,-3.8712,0.1429,-0.1101,-1070.07,1734.62,-31.49
280,-3.8712,0.1353,-0.1079,-1695.07,1906.49,-843.99
290,-3.8712,0.1301,-0.1050,1320.56,-1812.26,-1531.49
300,-3.8712,0.1321,-0.1052,664.31,-1437.26,1343.51
310,-3.8712,0.1399,-0.1115,914.31,-1468.51,218.51
320,-3.8713,0.1462,-0.1167,1914.31,1734.62,-422.12
330,-3.8713,0.1455,-0.1166,-1273.19,1062.74,-328.37
340,-3.8712,0.1383,-0.1121,-1366.94,1078.37,1031.01
350,-3.8712,0.1277,-0.1042,1711.18,1656.49,-765.87
360,-3.8711,0.1162,-0.0963,351.81,-1343.51,1077.88
370,-3.8711,0.1071,-0.0916,-1116.94,-327.94,-1906.49
380,-3.8711,0.1049,-0.0908,1711.18,281.43,-1968.93
390,-3.8711,0.1100,-0.0919,1429.93,375.18,859.19
400,-3.8712,0.1189,-0.0907,-1913.82,234.56,-687.68
410,-3.8712,0.1266,-0.0883,-773.19,390.81,-1312.68
420,-3.8712,0.1311,-0.0885,211.18,703.37,-468.93
430,-3.8711,0.1357,-0.0918,789.31,672.12,765.44
440,-3.8711,0.1415,-0.0956,1383.06,250.24,1093.57
450,-3.8711,0.1461,-0.0994,-1882.57,-234.13,31.01
460,-3.8712,0.1465,-0.1058,-1288.82,-718.51,1874.76
470,-3.8713,0.1412,-0.1123,-1241.94,-1546.63,-218.99
480,-3.8713,0.1301,-0.1100,-1913.82,1625.24,-1250.24
490,-3.8713,0.1150,-0.1002,664.31,1922.12,-859.62
500,-3.8712,0.1040,-0.0918,-1273.19,-827.94,1046.63
510,-3.8712,0.1017,-0.0870,1320.56,250.18,-453.31
520,-3.8711,0.1051,-0.0859,1023.68,859.56,1390.44
530,-3.8711,0.1105,-0.0874,1461.18,1000.18,1984.19
540,-3.8711,0.1143,-0.0917,-1851.32,812.68,1015.44
550,-3.8712,0.1172,-0.0981,-1366.94,265.81,-593.93
560,-3.8712,0.1205,-0.1007,-991.94,-562.32,-1531.49
570,-3.8712,0.1245,-0.0985,-570.07,-890.44,-1718.99
580,-3.8712,0.1290,-0.0968,-54.44,-609.19,-1656.49
590,-3.8712,0.1326,-0.0961,523.68,-390.38,-1875.24
600,-3.8712,0.1318,-0.0958,976.81,-296.63,1437.26
610,-3.8712,0.1261,-0.0962,883.06,-265.38,562.26
620,-3.8713,0.1212,-0.0945,148.68,-312.26,-62.74
630,-3.8712,0.1249,-0.0914,-476.32,-93.57,265.38
640,-3.8712,0.1346,-0.0912,-7.57,297.06,1374.82
650,-3.8712,0.1421,-0.0928,1242.43,328.37,-1890.81
660,-3.8712,0.1484,-0.0907,-1804.44,125.24,1781.07
670,-3.8712,0.1639,-0.0865,-991.94,390.87,1140.44
680,-3.8712,0.1892,-0.0812,992.43,922.18,-1687.68
690,-3.8711,0.2030,-0.0719,226.81,1609.74,312.32
700,-3.8711,0.2036,-0.0626,1992.43,-1202.76,1609.19
710,-3.8711,0.2059,-0.0598,-1929.44,-15.26,-1234.56
720,-3.8711,0.2073,-0.0620,-1632.57,344.12,-500.12
730,-3.8711,0.2063,-0.0609,-1460.69,62.87,-984.50
740,-3.8711,0.2046,-0.0531,-1585.69,203.49,1312.38
750,-3.8712,0.1954,-0.0641,-1804.44,1203.49,-812.62
760,-3.8712,0.1865,-0.0883,1023.68,-202.76,-1390.81
770,-3.8712,0.1858,-0.0923,-116.94,703.43,-890.81
780,-3.8712,0.1824,-0.0895,-210.69,187.81,-1281.43
790,-3.8712,0.1758,-0.0909,-648.19,547.18,-1765.81
800,-3.8712,0.1692,-0.0916,-1491.94,359.68,1874.82
810,-3.8712,0.1594,-0.0912,1664.31,281.56,1249.82
820,-3.8712,0.1493,-0.0878,414.31,328.43,624.82
830,-3.8712,0.1438,-0.0820,-882.57,765.87,312.32
840,-3.8712,0.1433,-0.0796,-1585.69,1500.24,671.69
850,-3.8712,0.1476,-0.0792,-1648.19,1812.74,1827.94
860,-3.8712,0.1562,-0.0787,-1101.32,1859.62,-859.56
870,-3.8711,0.1658,-0.0787,8.06,1922.18,156.07
880,-3.8711,0.1711,-0.0801,1226.81,1922.18,671.69
890,-3.8711,0.1713,-0.0837,1914.31,1750.31,640.44
900,-3.8711,0.1671,-0.0881,1929.93,1281.56,484.19
910,-3.8711,0.1604,-0.0897,1398.68,719.06,31.07
920,-3.8712,0.1537,-0.0895,539.31,515.93,-734.56
930,-3.8712,0.1484,-0.0911,-320.07,547.12,-1437.68
940,-3.8712,0.1438,-0.0919,-991.94,343.99,1952.94
950,-3.8712,0.1376,-0.0917,-1585.69,234.62,1156.07
960,-3.8712,0.1295,-0.0925,1617.43,265.87,249.82
970,-3.8713,0.1251,-0.0925,586.18,156.49,-265.81
980,-3.8712,0.1267,-0.0908,23.68,156.49,93.57
990,-3.8712,0.1296,-0.0905,226.81,375.24,1156.07
1000,-3.8712,0.1316,-0.0902,601.81,422.12,-1672.06
1010,-3.8712,0.1302,-0.0895,851.81,453.37,-968.93
1020,-3.8712,0.1256,-0.0889,679.93,547.12,-1031.43
1030,-3.8712,0.1228,-0.0885,86.18,625.24,-1437.68
1040,-3.8712,0.1248,-0.0903,-273.19,672.06,-1656.43
1050,-3.8712,0.1310,-0.0909,-23.19,437.68,-1203.31
1060,-3.8712,0.1366,-0.0868,773.68,359.62,-500.18
1070,-3.8712,0.1394,-0.0826,1492.43,890.87,-390.81
1080,-3.8712,0.1410,-0.0831,1851.81,1422.12,-468.93
1090,-3.8712,0.1392,-0.0868,-1945.07,1359.62,-312.68
1100,-3.8712,0.1338,-0.0865,1820.56,890.87,-281.43
1110,-3.8712,0.1260,-0.0796,1133.06,922.12,-484.56
1120,-3.8712,0.1138,-0.0765,133.06,1812.74,-750.18
1130,-3.8712,0.1021,-0.0785,-1429.44,-1796.69,-547.06
1140,-3.8712,0.0964,-0.0778,1070.56,1953.31,-343.93
1150,-3.8712,0.0952,-0.0746,351.81,-1952.94,-672.06
1160,-3.8712,0.0981,-0.0739,195.56,-1546.69,-968.93
1170,-3.8712,0.1041,-0.0762,570.56,-1452.94,-656.43
1180,-3.8712,0.1084,-0.0801,1336.18,-1749.82,-31.43
1190,-3.8711,0.1101,-0.0823,1883.06,1750.18,218.57
1200,-3.8712,0.1140,-0.0791,-1898.19,1468.93,-62.68
1210,-3.8712,0.1213,-0.0742,-1398.19,1875.18,-297.06
1220,-3.8711,0.1266,-0.0701,-460.69,-1499.82,249.82
1230,-3.8711,0.1245,-0.0680,211.18,-968.51,921.69
1240,-3.8711,0.1180,-0.0714,-54.44,-702.94,952.94
1250,-3.8711,0.1140,-0.0796,-882.57,-1140.44,687.32
1260,-3.8711,0.1146,-0.0891,-1398.19,1812.68,296.69
1270,-3.8712,0.1171,-0.0978,-1320.07,593.93,-578.31
1280,-3.8712,0.1174,-0.1046,-1007.57,-515.44,1718.51
1290,-3.8713,0.1123,-0.1055,-960.69,-1390.44,-156.49
1300,-3.8713,0.0991,-0.1017,-1616.94,-1499.82,-1140.87
1310,-3.8713,0.0829,-0.0973,695.56,-1015.44,-734.62
1320,-3.8712,0.0702,-0.0911,-1382.57,-453.00,781.01
1330,-3.8712,0.0659,-0.0808,992.43,343.87,-1234.56
1340,-3.8711,0.0724,-0.0706,445.56,1656.37,968.57
1350,-3.8711,0.0850,-0.0677,1273.68,-1031.13,-1156.43
1360,-3.8711,0.0988,-0.0740,-1116.94,-671.75,-375.18
1370,-3.8711,0.1116,-0.0841,648.68,-1468.57,-1093.93
1380,-3.8711,0.1201,-0.0913,-1710.69,1234.56,906.07
1390,-3.8712,0.1210,-0.0968,-616.94,312.68,-1547.06
1400,-3.8712,0.1155,-0.1013,-507.57,-390.44,546.63
1410,-3.8713,0.1052,-0.1018,-1210.69,-968.57,-343.99
1420,-3.8713,0.0906,-0.0986,1476.81,-1031.07,-93.99
1430,-3.8712,0.0758,-0.0957,-398.19,-624.88,999.76
1440,-3.8712,0.0660,-0.0930,1711.18,-249.88,-1609.62
1450,-3.8712,0.0605,-0.0886,461.18,93.87,-297.06
1460,-3.8711,0.0560,-0.0872,-241.94,656.31,1015.44
1470,-3.8711,0.0587,-0.0835,-820.07,843.81,-1781.43
1480,-3.8711,0.0670,-0.0785,-476.32,1312.56,-1265.81
1490,-3.8711,0.0697,-0.0804,586.18,1953.25,-1593.93
1500,-3.8711,0.0713,-0.0846,929.93,1703.25,1327.94
1510,-3.8712,0.0751,-0.0887,1133.06,1172.00,-187.68
1520,-3.8712,0.0768,-0.0924,1617.43,640.75,-1437.68
1530,-3.8712,0.0784,-0.0936,1836.18,172.00,1984.19
1540,-3.8712,0.0796,-0.0931,-1960.69,15.75,-1843.93
1550,-3.8712,0.0787,-0.0927,-1804.44,78.25,-843.93
1560,-3.8711,0.0776,-0.0935,-1913.82,140.75,484.19
1570,-3.8711,0.0770,-0.0920,1945.56,31.37,1437.32
1580,-3.8711,0.0784,-0.0868,1867.43,218.87,1718.57
1590,-3.8711,0.0847,-0.0819,-1960.69,890.75,1499.82
1600,-3.8711,0.0925,-0.0795,-1148.19,1515.75,1343.57
1610,-3.8711,0.0946,-0.0807,-148.19,1828.25,1374.82
1620,-3.8711,0.0913,-0.0839,117.43,1672.06,1296.69
1630,-3.8711,0.0854,-0.0879,-304.44,1265.75,749.82
1640,-3.8712,0.0792,-0.0930,-1054.44,750.12,-359.56
1650,-3.8712,0.0741,-0.0999,-1851.32,93.87,-1578.31
1660,-3.8712,0.0695,-0.1074,1492.43,-781.13,1687.26
1670,-3.8712,0.0615,-0.1110,898.68,-1749.88,1327.88
1680,-3.8712,0.0502,-0.1085,-116.94,1796.94,1077.88
1690,-3.8712,0.0381,-0.1041,-1570.07,-1890.56,1031.01
1700,-3.8712,0.0282,-0.1001,883.06,-1328.06,1374.76
1710,-3.8712,0.0231,-0.0963,-382.57,-812.50,1952.88
1720,-3.8712,0.0219,-0.0947,-1038.82,-328.12,-1500.24
1730,-3.8712,0.0232,-0.0980,-1195.07,-125.00,-1000.24
1740,-3.8712,0.0281,-0.1035,-1023.19,-546.88,-578.37
1750,-3.8712,0.0356,-0.1060,-398.19,-1250.00,-562.74
1760,-3.8712,0.0449,-0.1064,570.56,-1562.44,-1125.24
1770,-3.8712,0.0558,-0.1078,1758.06,-1624.94,-1812.74
1780,-3.8712,0.0646,-0.1066,-851.32,-1796.81,1890.38
1790,-3.8712,0.0692,-0.1039,273.68,-1640.50,1937.26
1800,-3.8712,0.0739,-0.1022,867.43,-1296.75,-1593.99
1810,-3.8712,0.0801,-0.0986,1461.18,-1078.00,-562.74
1820,-3.8711,0.0823,-0.0946,-1741.94,-624.88,499.76
1830,-3.8711,0.0796,-0.0947,-1460.69,-109.25,952.88
1840,-3.8711,0.0779,-0.0974,-1804.44,-124.88,1077.88
1850,-3.8711,0.0813,-0.0979,1976.81,-468.63,1249.76
1860,-3.8711,0.0927,-0.0961,-1585.69,-531.13,1624.76
1870,-3.8711,0.1063,-0.0919,-132.57,-296.75,-1390.87
1880,-3.8711,0.1111,-0.0908,1617.43,234.56,-390.81
1890,-3.8711,0.1058,-0.0970,-1773.19,375.18,-765.81
1900,-3.8711,0.0940,-0.1027,1554.93,-421.69,1749.76
1910,-3.8711,0.0787,-0.1008,39.31,-1140.44,15.38
1920,-3.8712,0.0612,-0.0952,-1913.82,-906.13,-1375.24
1930,-3.8712,0.0437,-0.0930,-163.82,-187.44,-1875.24
1940,-3.8712,0.0297,-0.0951,1601.81,93.81,-1515.81
1950,-3.8712,0.0220,-0.0996,-195.07,-171.88,-1078.37
1960,-3.8712,0.0203,-0.1028,-1179.44,-750.00,-1172.12
1970,-3.8712,0.0198,-0.1042,-1398.19,-1156.25,-1609.62
1980,-3.8712,0.0172,-0.1056,-1460.69,-1343.75,-1937.74
1990,-3.8712,0.0114,-0.1071,-1788.82,-1515.62,-1797.12
2000,-3.8712,0.0043,-0.1094,1461.18,-1703.12,-1375.24
2010,-3.8712,-0.0009,-0.1101,554.93,-2000.00,-968.99
2020,-3.8712,-0.0023,-0.1072,-101.32,1921.81,-859.62
2030,-3.8712,0.0000,-0.1058,-288.82,-1703.19,-1015.87
2040,-3.8712,0.0072,-0.1074,8.06,-1546.88,-1234.62
2050,-3.8712,0.0192,-0.1088,929.93,-1750.00,-1484.62
2060,-3.8712,0.0319,-0.1075,-1538.82,-1921.88,-1687.74
2070,-3.8712,0.0409,-0.1052,86.18,-1765.56,-1968.99
2080,-3.8712,0.0457,-0.1047,1242.43,-1468.69,1890.38
2090,-3.8712,0.0481,-0.1047,1851.81,-1406.19,-1578.37
2100,-3.8712,0.0497,-0.1047,-1835.69,-1406.19,-531.49
2110,-3.8711,0.0519,-0.1056,-1632.57,-1406.19,499.76
2120,-3.8711,0.0538,-0.1073,-1351.32,-1515.56,937.26
2130,-3.8711,0.0542,-0.1099,-1101.32,-1734.31,702.88
2140,-3.8711,0.0552,-0.1108,-1054.44,1937.56,218.51
2150,-3.8712,0.0570,-0.1080,-929.44,1812.56,-359.62
2160,-3.8712,0.0560,-0.1035,-695.07,-1828.06,-437.74
2170,-3.8711,0.0502,-0.1012,-820.07,-1249.94,15.38
2180,-3.8711,0.0444,-0.1034,-1570.07,-953.06,265.38
2190,-3.8711,0.0446,-0.1079,1695.56,-1234.31,93.51
2200,-3.8712,0.0465,-0.1107,1711.18,-1812.44,-422.12
2210,-3.8712,0.0466,-0.1122,1961.18,1828.19,-1093.99
2220,-3.8712,0.0476,-0.1139,1976.81,1640.69,-1531.49
2230,-3.8712,0.0500,-0.1128,-1898.19,1421.94,-1562.74
2240,-3.8712,0.0510,-0.1079,-1585.69,1562.56,-1250.24
2250,-3.8712,0.0509,-0.1027,-1460.69,-1812.44,-656.49
2260,-3.8712,0.0504,-0.1008,-1476.32,-1140.56,-78.37
2270,-3.8711,0.0483,-0.1016,-1538.82,-906.19,374.76
2280,-3.8711,0.0449,-0.1012,-1804.44,-999.94,749.76
2290,-3.8711,0.0400,-0.1006,1758.06,-953.06,952.88
2300,-3.8711,0.0350,-0.1031,1133.06,-874.94,734.13
2310,-3.8712,0.0330,-0.1086,492.43,-1203.06,-78.37
2320,-3.8712,0.0342,-0.1127,226.81,-1906.19,-1125.24
2330,-3.8712,0.0372,-0.1128,383.06,1578.19,-1953.37
2340,-3.8712,0.0405,-0.1117,773.68,1562.56,1812.26
2350,-3.8712,0.0442,-0.1107,1195.56,1703.19,-1812.74
2360,-3.8712,0.0480,-0.1096,1664.31,1828.19,-1156.49
2370,-3.8712,0.0515,-0.1082,-1851.32,1968.81,-562.74
2380,-3.8712,0.0549,-0.1068,-1398.19,-1843.69,-343.99
2390,-3.8712,0.0573,-0.1053,-960.69,-1671.81,-406.49
2400,-3.8712,0.0574,-0.1042,-663.82,-1484.31,-265.87
2410,-3.8711,0.0563,-0.1040,-648.19,-1343.69,124.76
2420,-3.8711,0.0557,-0.1030,-788.82,-1312.44,499.76
2430,-3.8711,0.0562,-0.1018,-866.94,-1187.44,468.51
2440,-3.8711,0.0555,-0.1031,-804.44,-1031.19,171.63
2450,-3.8712,0.0515,-0.1066,-882.57,-1203.06,-203.37
2460,-3.8712,0.0448,-0.1090,-1398.19,-1640.56,-640.87
2470,-3.8712,0.0364,-0.1101,1742.43,-1953.06,-1031.49
2480,-3.8712,0.0291,-0.1110,664.31,1906.31,-1156.49
2490,-3.8712,0.0261,-0.1113,-273.19,1796.88,-1172.12
2500,-3.8712,0.0283,-0.1096,-648.19,1750.00,-1281.49
2510,-3.8712,0.0345,-0.1057,-366.94,1968.75,-1468.99
2520,-3.8712,0.0422,-0.1001,429.93,-1531.19,-1609.62
2530,-3.8712,0.0488,-0.0936,1414.31,-812.44,-1375.24
2540,-3.8712,0.0533,-0.0900,-1741.94,15.69,-422.06
2550,-3.8711,0.0562,-0.0911,-1163.82,484.44,812.32
2560,-3.8711,0.0581,-0.0953,-804.44,343.81,1562.32
2570,-3.8711,0.0590,-0.1006,-554.44,-203.06,1546.63
2580,-3.8711,0.0566,-0.1052,-445.07,-874.94,999.76
2590,-3.8711,0.0510,-0.1068,-741.94,-1468.69,249.76
2600,-3.8712,0.0433,-0.1046,-1460.69,-1671.81,-453.37
2610,-3.8712,0.0359,-0.1012,1554.93,-1390.56,-765.87
2620,-3.8712,0.0328,-0.0992,601.81,-953.06,-437.74
2630,-3.8711,0.0361,-0.0988,211.18,-703.06,312.26
2640,-3.8711,0.0444,-0.0989,633.06,-640.56,640.38
2650,-3.8711,0.0533,-0.0995,1695.56,-656.19,62.26
2660,-3.8712,0.0566,-0.1013,-1163.82,-734.31,-906.49
2670,-3.8712,0.0514,-0.1031,-741.94,-968.69,-1562.74
2680,-3.8712,0.0422,-0.1045,-1413.82,-1203.06,-1515.87
2690,-3.8712,0.0359,-0.1074,1414.31,-1374.94,-656.49
2700,-3.8711,0.0354,-0.1112,601.81,-1749.94,609.13
2710,-3.8711,0.0404,-0.1121,539.31,1765.69,1452.88
2720,-3.8711,0.0486,-0.1082,1179.93,1656.31,1281.01
2730,-3.8711,0.0563,-0.1031,-1773.19,-1843.69,515.38
2740,-3.8712,0.0587,-0.1018,-788.82,-1203.06,-172.12
2750,-3.8712,0.0553,-0.1047,-476.32,-1031.19,-875.24
2760,-3.8712,0.0494,-0.1073,-913.82,-1406.19,-1578.37
2770,-3.8712,0.0424,-0.1060,-1663.82,-1734.31,1952.88
2780,-3.8712,0.0339,-0.1041,1429.93,-1562.44,1843.51
2790,-3.8712,0.0282,-0.1041,351.81,-1328.06,-1687.74
2800,-3.8712,0.0278,-0.1039,-382.57,-1328.12,-672.12
2810,-3.8711,0.0304,-0.1022,-429.44,-1296.88,499.76
2820,-3.8711,0.0341,-0.0996,-101.32,-1078.12,921.63
2830,-3.8711,0.0377,-0.0979,367.43,-749.94,531.01
2840,-3.8711,0.0400,-0.0984,836.18,-531.19,156.01
2850,-3.8711,0.0408,-0.1003,1133.06,-593.69,156.01
2860,-3.8711,0.0413,-0.1055,1226.81,-843.69,265.38
2870,-3.8711,0.0435,-0.1116,1289.31,-1499.94,171.63
2880,-3.8712,0.0465,-0.1149,1570.56,1718.81,-281.49
2890,-3.8712,0.0475,-0.1144,1961.18,1296.94,-1015.87
2900,-3.8712,0.0455,-0.1125,-1913.82,1359.44,-1609.62
2910,-3.8712,0.0414,-0.1115,1836.18,1593.81,-1625.24
2920,-3.8712,0.0375,-0.1107,1304.93,1734.44,-1156.49
2930,-3.8712,0.0360,-0.1086,804.93,1828.19,-656.49
2940,-3.8712,0.0358,-0.1047,617.43,-1906.19,-297.12
2950,-3.8712,0.0356,-0.1029,586.18,-1406.19,-47.12
2960,-3.8711,0.0355,-0.1052,570.56,-1171.81,140.38
2970,-3.8711,0.0343,-0.1074,554.93,-1468.69,31.01
2980,-3.8712,0.0322,-0.1080,398.68,-1749.94,-297.12
2990,-3.8712,0.0312,-0.1093,133.06,-1828.06,-375.24
3000,-3.8712,0.0304,-0.1119,8.06,-1984.31,-187.74
3010,-3.8712,0.0305,-0.1141,-101.32,1671.88,-250.24
3020,-3.8712,0.0322,-0.1143,-85.69,1390.62,-718.99
3030,-3.8712,0.0330,-0.1123,133.06,1375.06,-1281.49
3040,-3.8712,0.0330,-0.1101,226.81,1625.06,-1718.99
3050,-3.8712,0.0332,-0.1086,226.81,1906.31,-1906.49
3060,-3.8712,0.0331,-0.1067,258.06,-1906.19,-1593.99
3070,-3.8712,0.0338,-0.1056,242.43,-1656.19,-687.74
3080,-3.8711,0.0367,-0.1078,336.18,-1515.56,374.76
3090,-3.8711,0.0406,-0.1108,711.18,-1796.81,1187.26
3100,-3.8711,0.0431,-0.1121,1211.18,1812.56,1390.38
3110,-3.8711,0.0430,-0.1107,1523.68,1656.31,812.26
3120,-3.8712,0.0399,-0.1077,1508.06,1828.19,-140.87
3130,-3.8712,0.0349,-0.1061,1117.43,-1781.19,-984.62
3140,-3.8712,0.0310,-0.1060,476.81,-1578.06,-1343.99
3150,-3.8712,0.0289,-0.1066,-23.19,-1562.50,-1203.37
3160,-3.8712,0.0284,-0.1074,-288.82,-1640.62,-953.37
3170,-3.8712,0.0293,-0.1072,-351.32,-1750.00,-797.12
3180,-3.8712,0.0299,-0.1071,-241.94,-1718.75,-609.62
3190,-3.8712,0.0306,-0.1071,-163.82,-1703.12,-218.99
3200,-3.8711,0.0320,-0.1102,-70.07,-1703.12,343.51
3210,-3.8711,0.0354,-0.1145,101.81,1890.69,671.63
3220,-3.8711,0.0405,-0.1150,539.31,1343.81,531.01
3230,-3.8712,0.0438,-0.1135,1195.56,1281.31,-47.12
3240,-3.8712,0.0425,-0.1123,1617.43,1468.81,-843.99
3250,-3.8712,0.0394,-0.1099,1445.56,1625.06,-1453.37
3260,-3.8712,0.0358,-0.1063,1054.93,1937.56,-1672.12
3270,-3.8712,0.0333,-0.1040,586.18,-1609.31,-1437.74
3280,-3.8712,0.0360,-0.1038,273.68,-1312.44,-765.87
3290,-3.8711,0.0414,-0.1057,617.43,-1281.19,31.01
3300,-3.8711,0.0460,-0.1083,1304.93,-1531.19,593.51
3310,-3.8711,0.0468,-0.1112,1898.68,-1859.31,702.88
3320,-3.8711,0.0435,-0.1144,1992.43,1765.69,343.51
3330,-3.8712,0.0396,-0.1162,1570.56,1359.44,-265.87
3340,-3.8712,0.0363,-0.1146,1070.56,1125.06,-734.62
3350,-3.8712,0.0338,-0.1104,648.68,1328.19,-672.12
3360,-3.8712,0.0328,-0.1079,336.18,1875.06,-281.49
3370,-3.8712,0.0336,-0.1093,211.18,-1812.44,-31.49
3380,-3.8712,0.0344,-0.1105,304.93,-1984.31,-250.24
3390,-3.8712,0.0323,-0.1117,414.31,1859.44,-1109.62
3400,-3.8712,0.0295,-0.1129,148.68,1703.19,1827.88
3410,-3.8712,0.0293,-0.1135,-210.69,1546.88,1343.51
3420,-3.8712,0.0302,-0.1150,-241.94,1468.75,1796.63
3430,-3.8712,0.0337,-0.1157,-132.57,1281.25,-1109.62
3440,-3.8711,0.0397,-0.1152,320.56,1187.56,77.88
3450,-3.8711,0.0424,-0.1138,1086.18,1250.06,937.26
3460,-3.8711,0.0394,-0.1106,1429.93,1437.56,1312.26
3470,-3.8711,0.0334,-0.1071,1054.93,1843.81,1202.88
3480,-3.8711,0.0288,-0.1042,289.31,-1703.06,734.13
3490,-3.8711,0.0273,-0.1045,-304.44,-1343.75,202.88
3500,-3.8712,0.0293,-0.1074,-491.94,-1375.00,-297.12
3510,-3.8712,0.0344,-0.1179,-241.94,-1750.00,-875.24
3520,-3.8712,0.0411,-0.1273,414.31,906.31,-1187.74
3530,-3.8712,0.0458,-0.1252,1273.68,-296.81,-1594.06
3540,-3.8712,0.0453,-0.1215,1867.43,-31.19,1593.44
3550,-3.8712,0.0417,-0.1212,1804.93,453.19,1265.38
3560,-3.8712,0.0361,-0.1223,1351.81,484.44,1671.63
3570,-3.8712,0.0303,-0.1210,633.06,343.81,-1797.12
3580,-3.8712,0.0264,-0.1158,-116.94,515.62,-1203.37
3590,-3.8712,0.0249,-0.1099,-616.94,1171.88,-297.12
3600,-3.8711,0.0255,-0.1047,-804.44,1937.50,781.01
3610,-3.8711,0.0284,-0.1019,-726.32,-1406.25,1562.26
3620,-3.8711,0.0339,-0.1028,-351.32,-1046.88,1702.88
3630,-3.8711,0.0413,-0.1055,351.81,-1156.19,1187.26
3640,-3.8711,0.0471,-0.1097,1289.31,-1499.94,390.38
3650,-3.8712,0.0504,-0.1149,-1960.69,1953.19,-187.74
3660,-3.8712,0.0522,-0.1198,-1538.82,1296.94,-765.87
3670,-3.8712,0.0522,-0.1222,-1304.44,671.94,-1312.74
3680,-3.8712,0.0487,-0.1195,-1304.44,359.44,-1562.74
3690,-3.8712,0.0402,-0.1146,-1757.57,703.19,-1500.24
3700,-3.8712,0.0300,-0.1119,1148.68,1328.19,-1187.74
3710,-3.8712,0.0232,-0.1117,-148.19,1671.88,-812.74
3720,-3.8712,0.0219,-0.1117,-1023.19,1703.12,-484.62
3730,-3.8712,0.0262,-0.1096,-1195.07,1703.12,-140.87
3740,-3.8711,0.0314,-0.1080,-632.57,1968.75,171.63
3750,-3.8711,0.0341,-0.1112,23.68,-1828.06,218.51
3760,-3.8712,0.0356,-0.1165,367.43,1765.69,-62.74
3770,-3.8712,0.0358,-0.1190,570.56,1093.81,-422.12
3780,-3.8712,0.0356,-0.1173,586.18,765.69,-718.99
3790,-3.8712,0.0369,-0.1138,570.56,984.44,-765.87
3800,-3.8712,0.0387,-0.1105,726.81,1437.56,-484.62
3810,-3.8712,0.0409,-0.1083,961.18,1859.44,-78.37
3820,-3.8711,0.0425,-0.1088,1242.43,-1859.31,249.76
3830,-3.8711,0.0422,-0.1107,1445.56,-1921.81,281.01
3840,-3.8712,0.0409,-0.1116,1414.31,1828.19,-47.12
3850,-3.8712,0.0398,-0.1123,1242.43,1718.81,-453.37
3860,-3.8712,0.0388,-0.1138,1101.81,1625.06,-609.62
3870,-3.8712,0.0360,-0.1152,976.81,1437.56,-625.24
3880,-3.8712,0.0327,-0.1166,617.43,1250.06,-812.74
3890,-3.8712,0.0310,-0.1167,195.56,1078.19,-1203.37
3900,-3.8712,0.0303,-0.1156,-23.19,1062.50,-1625.24
3910,-3.8712,0.0306,-0.1157,-116.94,1203.12,-1640.87
3920,-3.8712,0.0337,-0.1173,-70.07,1187.50,-1047.12
3930,-3.8712,0.0380,-0.1179,320.56,984.44,-312.74
3940,-3.8711,0.0389,-0.1165,867.43,906.31,187.26
3950,-3.8711,0.0355,-0.1146,992.43,1093.81,249.76
3960,-3.8712,0.0310,-0.1138,554.93,1328.19,-15.87
3970,-3.8712,0.0283,-0.1132,-23.19,1437.50,-234.62
3980,-3.8712,0.0295,-0.1129,-366.94,1515.62,-359.62
3990,-3.8712,0.0349,-0.1121,-210.69,1546.88,-437.74
4000,-3.8712,0.0428,-0.1072,476.81,1656.31,-625.24
4010,-3.8712,0.0457,-0.1093,1492.43,-1718.69,-1218.99
4020,-3.8712,0.0399,-0.1211,1851.81,-1984.31,-1078.37
4030,-3.8712,0.0332,-0.1266,1117.43,500.06,-234.62
4040,-3.8712,0.0297,-0.1261,258.06,-203.06,-187.81
4050,-3.8712,0.0304,-0.1248,-195.07,-140.62,-422.18
4060,-3.8712,0.0333,-0.1227,-101.32,31.25,-609.62
4070,-3.8712,0.0337,-0.1191,273.68,296.94,-922.12
4080,-3.8712,0.0325,-0.1138,320.56,750.06,-1218.99
4090,-3.8712,0.0304,-0.1104,164.31,1437.56,-1218.99
4100,-3.8712,0.0287,-0.1116,-101.32,1875.00,-875.24
4110,-3.8712,0.0271,-0.1155,-320.07,1718.75,-656.49
4120,-3.8712,0.0260,-0.1190,-523.19,1218.75,-703.37
4130,-3.8712,0.0265,-0.1207,-663.82,765.62,-547.12
4140,-3.8711,0.0294,-0.1202,-601.32,546.88,15.38
4150,-3.8711,0.0344,-0.1171,-226.32,609.38,562.26
4160,-3.8711,0.0398,-0.1130,414.31,1015.69,765.38
4170,-3.8711,0.0426,-0.1101,1101.81,1531.31,640.38
4180,-3.8711,0.0414,-0.1095,1461.18,1906.31,327.88
4190,-3.8711,0.0381,-0.1110,1304.93,1984.44,140.38
4200,-3.8712,0.0334,-0.1152,883.06,1796.94,-47.12
4210,-3.8712,0.0292,-0.1216,289.31,1250.06,-562.74
4220,-3.8712,0.0260,-0.1256,-257.57,437.50,-1343.99
4230,-3.8712,0.0233,-0.1259,-663.82,-78.12,1780.94
4240,-3.8712,0.0212,-0.1248,-1007.57,-109.38,1390.32
4250,-3.8712,0.0215,-0.1237,-1273.19,31.25,1968.51
4260,-3.8712,0.0238,-0.1219,-1241.94,171.88,-875.24
4270,-3.8711,0.0269,-0.1201,-945.07,390.62,46.63
4280,-3.8711,0.0302,-0.1189,-554.44,625.00,234.13
4290,-3.8712,0.0325,-0.1185,-132.57,781.25,-47.12
4300,-3.8712,0.0342,-0.1179,164.31,828.19,-297.12
4310,-3.8712,0.0366,-0.1156,383.06,906.31,-203.37
4320,-3.8711,0.0383,-0.1124,695.56,1203.19,124.76
4330,-3.8711,0.0375,-0.1097,914.31,1609.44,327.88
4340,-3.8711,0.0342,-0.1097,804.93,1953.19,218.51
4350,-3.8712,0.0299,-0.1128,383.06,1953.19,-218.99
4360,-3.8712,0.0262,-0.1169,-163.82,1562.50,-1062.74
4370,-3.8712,0.0248,-0.1201,-632.57,1031.25,1984.13
4380,-3.8712,0.0248,-0.1216,-820.07,625.00,1609.13
4390,-3.8712,0.0261,-0.1228,-820.07,437.50,-1890.87
4400,-3.8712,0.0293,-0.1235,-648.19,281.25,-781.49
4410,-3.8711,0.0338,-0.1230,-241.94,187.50,296.63
4420,-3.8711,0.0364,-0.1224,336.18,250.06,843.51
4430,-3.8711,0.0339,-0.1229,664.31,328.19,859.13
4440,-3.8711,0.0283,-0.1243,351.81,265.69,343.51
4450,-3.8712,0.0238,-0.1245,-366.94,93.75,-437.74
4460,-3.8712,0.0220,-0.1217,-945.07,62.50,-937.74
4470,-3.8712,0.0216,-0.1183,-1179.44,421.88,-1500.24
4480,-3.8712,0.0233,-0.1168,-1226.32,859.38,1812.26
4490,-3.8712,0.0248,-0.1168,-1007.57,1046.88,1609.13
4500,-3.8712,0.0236,-0.1152,-820.07,1046.88,1984.13
4510,-3.8712,0.0223,-0.1111,-976.32,1250.00,-1359.62
4520,-3.8712,0.0232,-0.1067,-1132.57,1781.25,-484.62
4530,-3.8711,0.0265,-0.1063,-1023.19,-1656.25,702.88
4540,-3.8711,0.0332,-0.1110,-601.32,-1609.38,1437.26
4550,-3.8711,0.0431,-0.1184,258.06,1796.94,1124.76
4560,-3.8711,0.0522,-0.1262,1523.68,843.81,171.63
4570,-3.8712,0.0548,-0.1310,-1304.44,-156.19,-828.43
4580,-3.8712,0.0482,-0.1318,-976.32,-765.56,-1547.18
4590,-3.8712,0.0349,-0.1292,-1820.07,-874.94,-1937.81
4600,-3.8712,0.0187,-0.1238,476.81,-531.19,-1953.43
4610,-3.8712,0.0048,-0.1194,-1601.32,156.25,-1375.24
4620,-3.8712,-0.0006,-0.1183,617.43,718.75,-422.12
4630,-3.8711,0.0051,-0.1193,-70.07,874.94,249.76
4640,-3.8711,0.0182,-0.1199,664.31,734.38,374.76
4650,-3.8711,0.0299,-0.1178,-1663.82,656.25,62.26
4660,-3.8712,0.0342,-0.1160,-163.82,921.88,-375.24
4670,-3.8712,0.0321,-0.1165,383.06,1156.31,-656.49
4680,-3.8712,0.0299,-0.1177,117.43,1093.81,-750.24
4690,-3.8712,0.0325,-0.1169,-163.82,937.50,-922.12
4700,-3.8712,0.0399,-0.1128,164.31,1031.31,-1297.12
4710,-3.8712,0.0465,-0.1097,1117.43,1562.56,-1375.24
4720,-3.8712,0.0443,-0.1105,1961.18,1953.19,-765.87
4730,-3.8711,0.0358,-0.1128,1679.93,1859.44,249.76
4740,-3.8711,0.0286,-0.1140,586.18,1562.56,1218.51
4750,-3.8711,0.0239,-0.1136,-335.69,1406.25,1765.38
4760,-3.8711,0.0223,-0.1123,-929.44,1453.12,1281.01
4770,-3.8711,0.0239,-0.1127,-1132.57,1625.00,109.13
4780,-3.8712,0.0262,-0.1151,-929.44,1578.12,-922.12
4790,-3.8712,0.0270,-0.1156,-632.57,1265.62,-1547.12
4800,-3.8712,0.0261,-0.1141,-538.82,1203.12,-1609.62
4810,-3.8712,0.0258,-0.1132,-648.19,1390.62,-968.99
4820,-3.8712,0.0277,-0.1130,-695.07,1515.62,-78.37
4830,-3.8711,0.0310,-0.1146,-445.07,1531.25,296.63
4840,-3.8711,0.0355,-0.1174,-23.19,1328.12,62.26
4850,-3.8712,0.0383,-0.1196,554.93,968.81,-297.12
4860,-3.8712,0.0364,-0.1217,914.31,687.56,-297.12
4870,-3.8712,0.0333,-0.1232,664.31,421.94,-0.24
4880,-3.8711,0.0311,-0.1229,273.68,234.44,124.76
4890,-3.8712,0.0299,-0.1222,-7.57,265.62,-172.12
4900,-3.8712,0.0299,-0.1198,-163.82,359.38,-828.37
4910,-3.8712,0.0276,-0.1177,-163.82,671.88,-1625.24
4920,-3.8712,0.0234,-0.1182,-460.69,937.50,1874.76
4930,-3.8712,0.0212,-0.1187,-991.94,875.00,-1953.37
4940,-3.8712,0.0214,-0.1177,-1273.19,812.50,-1343.99
4950,-3.8712,0.0238,-0.1163,-1257.57,937.50,-656.49
4960,-3.8711,0.0269,-0.1176,-945.07,1109.38,46.63
4970,-3.8711,0.0269,-0.1219,-554.44,953.12,656.01
4980,-3.8711,0.0255,-0.1273,-554.44,390.62,827.88
4990,-3.8711,0.0259,-0.1299,-726.32,-296.88,296.57
5000,-3.8712,0.0269,-0.1287,-679.44,-625.00,-750.31
5010,-3.8712,0.0266,-0.1257,-554.44,-468.75,1890.32
5020,-3.8712,0.0244,-0.1228,-585.69,-93.75,749.69
5030,-3.8712,0.0214,-0.1202,-866.94,281.25,515.38
5040,-3.8712,0.0194,-0.1178,-1257.57,609.38,1077.88
5050,-3.8712,0.0195,-0.1162,-1507.57,921.88,-1906.49
5060,-3.8712,0.0223,-0.1156,-1491.94,1125.00,-687.74
5070,-3.8711,0.0262,-0.1157,-1132.57,1203.12,499.76
5080,-3.8711,0.0275,-0.1154,-632.57,1187.50,1452.88
5090,-3.8711,0.0251,-0.1129,-476.32,1234.38,1906.01
5100,-3.8711,0.0223,-0.1108,-773.19,1546.88,1640.38
5110,-3.8711,0.0228,-0.1111,-1132.57,1812.50,984.13
5120,-3.8711,0.0270,-0.1125,-1070.07,1781.25,124.76
5130,-3.8712,0.0331,-0.1130,-538.82,1593.75,-1000.24
5140,-3.8712,0.0377,-0.1122,242.43,1531.31,-1953.37
5150,-3.8712,0.0369,-0.1108,836.18,1640.69,1796.63
5160,-3.8712,0.0309,-0.1093,726.81,1812.56,-1562.74
5170,-3.8712,0.0238,-0.1086,-38.82,-1984.38,-78.37
5180,-3.8711,0.0214,-0.1094,-945.07,-1906.25,1327.88
5190,-3.8711,0.0244,-0.1118,-1257.57,-2000.00,1656.01
5200,-3.8711,0.0289,-0.1154,-866.94,1687.50,1093.51
5210,-3.8711,0.0314,-0.1196,-288.82,1234.38,343.51
5220,-3.8712,0.0314,-0.1239,23.68,687.56,-515.87
5230,-3.8712,0.0292,-0.1262,23.68,140.69,-1343.99
5240,-3.8712,0.0253,-0.1249,-257.57,-156.25,-1828.43
5250,-3.8712,0.0199,-0.1211,-757.57,15.62,-1812.74
5260,-3.8712,0.0140,-0.1180,-1445.07,500.00,-1406.49
5270,-3.8712,0.0117,-0.1132,1804.93,890.62,-953.37
5280,-3.8712,0.0160,-0.1072,1508.06,1515.62,-656.49
5290,-3.8712,0.0197,-0.1071,-1945.07,-1718.75,-172.12
5300,-3.8711,0.0205,-0.1110,-1476.32,-1703.12,406.01
5310,-3.8711,0.0243,-0.1156,-1366.94,1796.88,593.51
5320,-3.8711,0.0282,-0.1204,-882.57,1203.12,343.51
5330,-3.8712,0.0298,-0.1222,-382.57,593.75,-172.12
5340,-3.8712,0.0289,-0.1234,-179.44,359.38,-797.12
5350,-3.8712,0.0267,-0.1260,-288.82,203.12,-1156.49
5360,-3.8712,0.0244,-0.1276,-570.07,-125.00,-1328.43
5370,-3.8712,0.0222,-0.1273,-866.94,-328.12,-1609.68
5380,-3.8712,0.0192,-0.1244,-1148.19,-296.88,-1906.56
5390,-3.8712,0.0142,-0.1198,-1538.82,78.12,-1906.49
5400,-3.8712,0.0096,-0.1158,1820.56,671.88,-1343.99
5410,-3.8712,0.0088,-0.1132,1242.43,1171.88,-281.49
5420,-3.8711,0.0121,-0.1116,1133.06,1515.62,656.01
5430,-3.8711,0.0170,-0.1128,1554.93,1718.75,937.26
5440,-3.8711,0.0225,-0.1133,-1820.07,1562.50,437.26
5450,-3.8712,0.0284,-0.1116,-1116.94,1500.00,-234.62
5460,-3.8712,0.0322,-0.1116,-351.32,1718.75,-578.37
5470,-3.8712,0.0343,-0.1145,133.06,1718.81,-750.24
5480,-3.8712,0.0352,-0.1182,398.68,1343.81,-937.74
5490,-3.8712,0.0332,-0.1206,508.06,875.06,-906.49
5500,-3.8712,0.0277,-0.1224,258.06,562.56,-718.99
5510,-3.8712,0.0201,-0.1238,-445.07,328.12,-562.74
5520,-3.8712,0.0128,-0.1224,-1413.82,156.25,-531.49
5530,-3.8712,0.0089,-0.1182,1648.68,328.12,-515.87
5540,-3.8712,0.0096,-0.1135,1148.68,875.00,-468.99
5550,-3.8712,0.0133,-0.1101,1242.43,1468.75,-390.87
5560,-3.8712,0.0167,-0.1085,1711.18,1906.25,-281.49
5570,-3.8712,0.0186,-0.1083,-1851.32,-1890.62,-265.87
5580,-3.8712,0.0206,-0.1094,-1616.94,-1859.38,-422.12
5590,-3.8712,0.0249,-0.1119,-1351.32,-2000.00,-562.74
5600,-3.8712,0.0300,-0.1139,-804.44,1671.88,-406.49
5610,-3.8712,0.0321,-0.1161,-148.19,1421.88,-15.87
5620,-3.8711,0.0306,-0.1196,117.43,1140.69,234.13
5630,-3.8711,0.0264,-0.1219,-70.07,687.50,109.13
5640,-3.8712,0.0208,-0.1222,-616.94,390.62,-359.62
5650,-3.8712,0.0184,-0.1217,-1335.69,359.38,-984.62
5660,-3.8712,0.0206,-0.1217,-1632.57,421.88,-1297.12
5670,-3.8712,0.0236,-0.1205,-1351.32,421.88,-1109.62
5680,-3.8712,0.0240,-0.1187,-976.32,578.12,-672.12
5690,-3.8712,0.0228,-0.1182,-913.82,812.50,-250.24
5700,-3.8712,0.0206,-0.1188,-1070.07,875.00,-218.99
5710,-3.8712,0.0184,-0.1189,-1351.32,796.88,-640.87
5720,-3.8712,0.0153,-0.1174,-1632.57,781.25,-1031.49
5730,-3.8712,0.0100,-0.1151,1961.18,968.75,-937.74
5740,-3.8712,0.0051,-0.1145,1289.31,1265.62,-609.62
5750,-3.8712,0.0061,-0.1162,664.31,1343.75,-406.49
5760,-3.8712,0.0131,-0.1172,789.31,1125.00,-375.24
5770,-3.8712,0.0205,-0.1194,1679.93,1000.00,-734.62
5780,-3.8712,0.0256,-0.1248,-1366.94,718.75,-1359.62
5790,-3.8712,0.0276,-0.1289,-710.69,31.25,-1906.49
5800,-3.8712,0.0248,-0.1299,-460.69,-500.00,1952.82
5810,-3.8712,0.0188,-0.1288,-820.07,-625.00,-1531.56
5820,-3.8712,0.0139,-0.1256,-1585.69,-484.38,-703.43
5830,-3.8711,0.0122,-0.1204,1789.31,-78.12,15.32
5840,-3.8711,0.0134,-0.1138,1570.56,593.75,421.63
5850,-3.8711,0.0156,-0.1078,1726.81,1437.50,437.26
5860,-3.8711,0.0168,-0.1047,-1991.94,-1796.88,109.13
5870,-3.8712,0.0166,-0.1035,-1835.69,-1406.25,-328.37
5880,-3.8712,0.0170,-0.1050,-1866.94,-1250.00,-547.12
5890,-3.8712,0.0206,-0.1094,-1820.07,-1437.50,-500.24
5900,-3.8712,0.0253,-0.1144,-1351.32,-2000.00,-328.37
5910,-3.8712,0.0286,-0.1180,-757.57,1359.38,-78.37
5920,-3.8711,0.0299,-0.1198,-335.69,890.62,140.38
5930,-3.8711,0.0294,-0.1204,-163.82,671.88,156.01
5940,-3.8712,0.0283,-0.1202,-226.32,593.75,-62.74
5950,-3.8712,0.0267,-0.1198,-366.94,609.38,-500.24
5960,-3.8712,0.0240,-0.1190,-570.07,671.88,-984.62
5970,-3.8712,0.0203,-0.1188,-913.82,765.62,-1281.49
5980,-3.8712,0.0151,-0.1198,-1398.19,796.88,-1156.49
5990,-3.8712,0.0122,-0.1201,1945.56,671.88,-781.49
6000,-3.8712,0.0129,-0.1193,1570.56,625.00,-500.24
6010,-3.8712,0.0133,-0.1172,1664.31,734.38,-218.99
6020,-3.8711,0.0112,-0.1156,1711.18,1000.00,15.38
6030,-3.8712,0.0098,-0.1156,1445.56,1203.12,-265.87
6040,-3.8712,0.0118,-0.1143,1258.06,1203.12,-703.37
6050,-3.8712,0.0167,-0.1124,1523.68,1375.00,-734.62
6060,-3.8712,0.0226,-0.1140,-1851.32,1609.38,-640.87
6070,-3.8712,0.0275,-0.1188,-1101.32,1406.25,-703.37
6080,-3.8712,0.0286,-0.1240,-476.32,796.88,-781.49
6090,-3.8712,0.0265,-0.1273,-335.69,125.00,-890.87
6100,-3.8712,0.0236,-0.1274,-601.32,-296.88,-1000.31
6110,-3.8712,0.0219,-0.1237,-976.32,-312.50,-750.31
6120,-3.8712,0.0212,-0.1171,-1195.07,171.88,-93.99
6130,-3.8711,0.0199,-0.1108,-1273.19,1015.62,577.88
6140,-3.8711,0.0183,-0.1079,-1445.07,1812.50,765.38
6150,-3.8711,0.0170,-0.1073,-1648.19,-1812.50,421.63
6160,-3.8712,0.0153,-0.1073,-1820.07,-1734.38,-125.24
6170,-3.8712,0.0131,-0.1099,1961.18,-1734.38,-687.74
6180,-3.8712,0.0120,-0.1158,1679.93,1937.50,-1078.37
6190,-3.8712,0.0138,-0.1226,1539.31,1171.88,-1218.99
6200,-3.8712,0.0184,-0.1257,1773.68,312.50,-1187.74
6210,-3.8712,0.0227,-0.1262,-1632.57,-93.75,-1078.43
6220,-3.8712,0.0253,-0.1262,-1085.69,-156.25,-937.81
6230,-3.8712,0.0264,-0.1244,-757.57,-156.25,-640.93
6240,-3.8712,0.0255,-0.1206,-616.94,78.12,-187.74
6250,-3.8711,0.0242,-0.1165,-726.32,562.50,171.63
6260,-3.8711,0.0223,-0.1146,-898.19,1093.75,140.38
6270,-3.8712,0.0183,-0.1155,-1132.57,1328.12,-265.87
6280,-3.8712,0.0139,-0.1173,-1648.19,1218.75,-922.12
6290,-3.8712,0.0109,-0.1188,1789.31,984.38,-1422.12
6300,-3.8712,0.0112,-0.1193,1398.68,796.88,-1406.49
6310,-3.8712,0.0142,-0.1187,1445.56,734.38,-1187.74
6320,-3.8712,0.0159,-0.1176,1820.56,812.50,-984.62
6330,-3.8712,0.0164,-0.1173,-1960.69,953.12,-687.74
6340,-3.8712,0.0177,-0.1176,-1898.19,984.38,-312.74
6350,-3.8711,0.0210,-0.1172,-1726.32,953.12,62.26
6360,-3.8711,0.0249,-0.1171,-1304.44,1000.00,406.01
6370,-3.8711,0.0277,-0.1195,-804.44,1015.62,499.76
6380,-3.8711,0.0289,-0.1235,-445.07,703.12,77.88
6390,-3.8712,0.0270,-0.1260,-288.82,187.50,-547.12
6400,-3.8712,0.0210,-0.1272,-538.82,-125.00,-1125.31
6410,-3.8712,0.0137,-0.1285,-1304.44,-281.25,-1390.93
6420,-3.8712,0.0079,-0.1279,1758.06,-453.12,-1328.43
6430,-3.8712,0.0048,-0.1244,1023.68,-375.00,-1172.18
6440,-3.8712,0.0046,-0.1189,617.43,78.12,-922.12
6450,-3.8712,0.0068,-0.1129,601.81,781.25,-547.12
6460,-3.8712,0.0100,-0.1106,883.06,1546.88,-218.99
6470,-3.8711,0.0149,-0.1117,1289.31,1843.75,93.51
6480,-3.8711,0.0188,-0.1122,1914.31,1703.12,312.26
6490,-3.8711,0.0179,-0.1141,-1585.69,1640.62,156.01
6500,-3.8712,0.0151,-0.1200,-1695.07,1390.62,-172.12
6510,-3.8712,0.0148,-0.1256,1945.56,640.62,-484.62
6520,-3.8712,0.0188,-0.1271,1898.68,-78.12,-844.06
6530,-3.8712,0.0267,-0.1257,-1585.69,-265.62,-1031.56
6540,-3.8712,0.0333,-0.1230,-570.07,-93.75,-890.93
6550,-3.8712,0.0342,-0.1219,273.68,250.06,-562.74
6560,-3.8712,0.0300,-0.1228,383.06,390.69,-265.87
6570,-3.8712,0.0233,-0.1224,-148.19,281.25,-234.62
6580,-3.8712,0.0149,-0.1204,-1007.57,328.12,-515.87
6590,-3.8712,0.0056,-0.1179,1914.31,593.75,-906.49
6600,-3.8712,-0.0024,-0.1165,726.81,906.25,-1218.99
6610,-3.8712,-0.0074,-0.1169,-304.44,1109.31,-1218.99
6620,-3.8712,-0.0066,-0.1202,-945.07,1046.81,-937.74
6630,-3.8712,0.0020,-0.1252,-835.69,624.94,-703.37
6640,-3.8712,0.0142,-0.1288,258.06,-31.25,-765.93
6650,-3.8712,0.0245,-0.1293,1820.56,-484.38,-1062.81
6660,-3.8712,0.0298,-0.1277,-851.32,-546.88,-1312.81
6670,-3.8712,0.0306,-0.1262,-179.44,-343.75,-1000.31
6680,-3.8712,0.0310,-0.1257,-70.07,-156.25,-78.43
6690,-3.8711,0.0330,-0.1250,-23.19,-93.75,734.07
6700,-3.8711,0.0349,-0.1226,226.81,0.06,874.76
6710,-3.8711,0.0330,-0.1182,476.81,312.56,343.51
6720,-3.8712,0.0254,-0.1145,226.81,875.06,-422.12
6730,-3.8712,0.0151,-0.1141,-741.94,1343.75,-781.49
6740,-3.8712,0.0060,-0.1174,1945.56,1390.62,-593.99
6750,-3.8712,-0.0001,-0.1228,773.68,968.75,-359.62
6760,-3.8712,-0.0028,-0.1279,-7.57,296.81,-562.74
6770,-3.8712,-0.0040,-0.1305,-351.32,-359.44,-1219.06
6780,-3.8712,-0.0052,-0.1312,-507.57,-687.56,-1797.18
6790,-3.8712,-0.0055,-0.1313,-663.82,-781.31,-1656.56
6800,-3.8712,-0.0040,-0.1301,-695.07,-796.94,-1031.56
6810,-3.8712,-0.0011,-0.1273,-507.57,-640.69,-687.81
6820,-3.8712,0.0040,-0.1228,-132.57,-281.31,-687.81
6830,-3.8712,0.0106,-0.1195,523.68,281.25,-718.99
6840,-3.8712,0.0177,-0.1198,1367.43,703.12,-640.87
6850,-3.8712,0.0255,-0.1213,-1726.32,671.88,-687.74
6860,-3.8712,0.0319,-0.1201,-726.32,468.75,-968.99
6870,-3.8712,0.0337,-0.1173,86.18,625.06,-1000.24
6880,-3.8712,0.0312,-0.1167,320.56,984.44,-656.49
6890,-3.8712,0.0271,-0.1191,8.06,1062.56,-312.74
6900,-3.8712,0.0233,-0.1237,-523.19,750.00,-203.37
6910,-3.8712,0.0208,-0.1274,-1007.57,171.88,-234.62
6920,-3.8712,0.0192,-0.1298,-1335.69,-312.50,-390.93
6930,-3.8712,0.0189,-0.1327,-1538.82,-609.38,-781.56
6940,-3.8712,0.0186,-0.1343,-1570.07,-984.38,-1250.31
6950,-3.8712,0.0166,-0.1316,-1616.94,-1187.50,-1578.43
6960,-3.8712,0.0149,-0.1261,-1866.94,-843.75,-1578.43
6970,-3.8712,0.0140,-0.1204,1914.31,-140.62,-1140.93
6980,-3.8712,0.0138,-0.1143,1804.93,593.75,-609.62
6990,-3.8712,0.0149,-0.1069,1773.68,1375.00,-62.74
7000,-3.8711,0.0160,-0.1024,1914.31,-1687.50,781.01
7010,-3.8711,0.0176,-0.1052,-1945.07,-1109.38,1843.51
7020,-3.8711,0.0222,-0.1128,-1741.94,-1468.75,-1640.87
7030,-3.8711,0.0275,-0.1212,-1148.19,1562.50,1546.63
7040,-3.8712,0.0326,-0.1316,-476.32,484.38,-437.74
7050,-3.8712,0.0381,-0.1376,179.93,-843.69,1905.94
7060,-3.8712,0.0382,-0.1354,883.06,-1609.31,1468.44
7070,-3.8712,0.0315,-0.1320,898.68,-1328.06,1890.32
7080,-3.8712,0.0259,-0.1283,39.31,-890.56,-1328.43
7090,-3.8712,0.0238,-0.1218,-679.44,-421.88,-765.93
7100,-3.8712,0.0229,-0.1136,-945.07,406.25,-531.49
7110,-3.8712,0.0209,-0.1078,-1054.44,1453.12,-281.49
7120,-3.8711,0.0171,-0.1083,-1320.07,-1796.88,77.88
7130,-3.8711,0.0154,-0.1150,-1804.44,-1859.38,452.88
7140,-3.8711,0.0179,-0.1235,1976.81,1281.25,546.63
7150,-3.8712,0.0245,-0.1306,-1695.07,187.50,-15.87
7160,-3.8712,0.0316,-0.1351,-851.32,-718.75,-969.06
7170,-3.8712,0.0343,-0.1365,54.93,-1296.81,-1734.68
7180,-3.8712,0.0319,-0.1345,398.68,-1468.69,1890.32
7190,-3.8712,0.0277,-0.1288,86.18,-1218.69,-1812.81
7200,-3.8712,0.0233,-0.1199,-445.07,-484.38,-1031.56
7210,-3.8712,0.0190,-0.1115,-1007.57,656.25,-203.37
7220,-3.8711,0.0168,-0.1058,-1554.44,1734.38,343.51
7230,-3.8711,0.0164,-0.1053,-1835.69,-1546.88,515.38
7240,-3.8711,0.0177,-0.1102,-1898.19,-1484.38,640.38
7250,-3.8711,0.0216,-0.1176,-1726.32,1890.62,812.26
7260,-3.8711,0.0242,-0.1240,-1226.32,953.12,781.01
7270,-3.8711,0.0210,-0.1265,-898.19,125.00,296.63
7280,-3.8712,0.0135,-0.1298,-1304.44,-187.50,-359.68
7290,-3.8712,0.0073,-0.1371,1742.43,-609.38,-515.93
7300,-3.8712,0.0083,-0.1394,945.56,-1546.88,-515.93
7310,-3.8712,0.0127,-0.1343,1070.56,-1843.75,-1312.81
7320,-3.8712,0.0153,-0.1288,1633.06,-1187.50,1484.07
7330,-3.8712,0.0164,-0.1249,1961.18,-484.38,843.44
7340,-3.8712,0.0160,-0.1227,-1898.19,15.62,968.51
7350,-3.8712,0.0142,-0.1232,-1945.07,296.88,1749.76
7360,-3.8712,0.0138,-0.1267,1820.56,234.38,-1062.74
7370,-3.8711,0.0166,-0.1321,1773.68,-218.75,155.94
7380,-3.8711,0.0217,-0.1353,-1866.94,-906.25,874.69
7390,-3.8711,0.0259,-0.1333,-1210.69,-1312.50,921.57
7400,-3.8711,0.0272,-0.1277,-679.44,-1062.50,562.19
7410,-3.8712,0.0273,-0.1232,-507.57,-343.75,-94.06
7420,-3.8712,0.0269,-0.1211,-491.94,234.38,-750.24
7430,-3.8712,0.0258,-0.1205,-554.44,500.00,-1093.99
7440,-3.8712,0.0247,-0.1208,-695.07,578.12,-1187.74
7450,-3.8712,0.0227,-0.1222,-835.69,531.25,-1047.12
7460,-3.8712,0.0195,-0.1259,-1085.69,359.38,-687.74
7470,-3.8712,0.0156,-0.1315,-1491.94,-109.38,-484.68
7480,-3.8712,0.0112,-0.1360,-1991.94,-828.12,-703.43
7490,-3.8712,0.0071,-0.1356,1445.56,-1406.25,-1156.56
7500,-3.8712,0.0009,-0.1326,914.31,-1359.38,-1562.81
7510,-3.8712,-0.0077,-0.1322,117.43,-968.75,-1687.81
7520,-3.8712,-0.0109,-0.1331,-976.32,-906.31,-1297.18
7530,-3.8712,-0.0065,-0.1317,-1382.57,-1015.69,-703.43
7540,-3.8712,0.0016,-0.1272,-820.07,-843.81,-453.43
7550,-3.8712,0.0111,-0.1210,211.18,-281.25,-562.81
7560,-3.8712,0.0177,-0.1187,1429.93,515.62,-625.24
7570,-3.8712,0.0216,-0.1221,-1726.32,812.50,-281.49
7580,-3.8711,0.0265,-0.1257,-1226.32,375.00,218.51
7590,-3.8711,0.0309,-0.1271,-601.32,-93.75,437.19
7600,-3.8711,0.0338,-0.1268,-38.82,-265.62,312.19
7610,-3.8711,0.0331,-0.1267,336.18,-234.31,46.57
7620,-3.8712,0.0270,-0.1278,242.43,-218.69,-156.56
7630,-3.8712,0.0183,-0.1285,-538.82,-359.38,-500.31
7640,-3.8712,0.0100,-0.1284,-1648.19,-453.12,-1031.56
7650,-3.8712,0.0043,-0.1274,1289.31,-437.50,-1578.43
7660,-3.8712,0.0018,-0.1252,554.93,-312.50,-1937.81
7670,-3.8712,0.0011,-0.1233,242.43,-31.25,-1797.18
7680,-3.8712,0.0043,-0.1223,148.68,218.75,-984.62
7690,-3.8711,0.0112,-0.1219,554.93,343.75,31.01
7700,-3.8711,0.0184,-0.1244,1445.56,390.62,671.63
7710,-3.8711,0.0242,-0.1293,-1632.57,78.12,609.13
7720,-3.8711,0.0273,-0.1332,-898.19,-546.88,155.94
7730,-3.8712,0.0272,-0.1355,-491.94,-1046.88,-390.93
7740,-3.8712,0.0234,-0.1368,-507.57,-1343.75,-906.56
7750,-3.8712,0.0172,-0.1348,-991.94,-1515.62,-1172.18
7760,-3.8712,0.0104,-0.1300,-1788.82,-1250.00,-1250.31
7770,-3.8712,0.0043,-0.1254,1336.18,-640.62,-1140.93
7780,-3.8712,-0.0012,-0.1237,554.93,-46.88,-890.93
7790,-3.8712,-0.0046,-0.1245,-148.19,187.44,-703.37
7800,-3.8712,-0.0032,-0.1257,-585.69,78.06,-765.87
7810,-3.8712,0.0028,-0.1256,-398.19,-78.19,-1000.31
7820,-3.8712,0.0090,-0.1245,367.43,-78.12,-937.81
7830,-3.8712,0.0142,-0.1245,1164.31,62.50,-547.12
7840,-3.8712,0.0188,-0.1272,1820.56,62.50,-218.99
7850,-3.8712,0.0227,-0.1318,-1585.69,-281.25,-125.31
7860,-3.8712,0.0249,-0.1332,-1085.69,-875.00,-234.68
7870,-3.8712,0.0240,-0.1306,-804.44,-1046.88,-515.93
7880,-3.8712,0.0201,-0.1287,-913.82,-718.75,-734.68
7890,-3.8712,0.0137,-0.1285,-1413.82,-468.75,-875.31
7900,-3.8712,0.0065,-0.1307,1758.06,-453.12,-984.68
7910,-3.8712,0.0026,-0.1331,836.18,-734.38,-937.81
7920,-3.8712,0.0018,-0.1333,336.18,-1031.25,-1015.93
7930,-3.8712,0.0017,-0.1311,242.43,-1062.50,-1187.81
7940,-3.8712,0.0021,-0.1276,226.81,-781.25,-1125.31
7950,-3.8712,0.0028,-0.1256,273.68,-328.12,-890.93
7960,-3.8712,0.0050,-0.1262,367.43,-78.12,-703.43
7970,-3.8712,0.0087,-0.1278,648.68,-156.25,-640.93
7980,-3.8712,0.0131,-0.1294,1117.43,-359.38,-734.68
7990,-3.8712,0.0164,-0.1293,1679.93,-562.50,-594.06
8000,-3.8712,0.0181,-0.1277,-1898.19,-546.88,-125.31
8010,-3.8711,0.0195,-0.1282,-1679.44,-343.75,249.69
8020,-3.8711,0.0200,-0.1298,-1491.94,-406.25,265.32
8030,-3.8712,0.0176,-0.1306,-1429.44,-609.38,-140.93
8040,-3.8712,0.0118,-0.1322,-1741.94,-718.75,-812.81
8050,-3.8712,0.0060,-0.1332,1523.68,-921.88,-1312.81
8060,-3.8712,0.0024,-0.1338,773.68,-1046.88,-1328.43
8070,-3.8712,0.0026,-0.1348,320.56,-1125.00,-1094.06
8080,-3.8712,0.0028,-0.1350,336.18,-1250.00,-1015.93
8090,-3.8712,0.0012,-0.1345,367.43,-1281.25,-984.68
8100,-3.8712,0.0027,-0.1334,164.31,-1218.75,-937.81
8110,-3.8712,0.0072,-0.1335,351.81,-1078.12,-1109.68
8120,-3.8712,0.0117,-0.1335,929.93,-1093.75,-1359.68
8130,-3.8712,0.0143,-0.1327,1508.06,-1093.75,-1453.43
8140,-3.8712,0.0132,-0.1320,1836.18,-984.38,-1297.18
8150,-3.8712,0.0092,-0.1311,1695.56,-890.62,-1062.81
8160,-3.8712,0.0048,-0.1298,1179.93,-781.25,-687.81
8170,-3.8711,0.0028,-0.1295,617.43,-609.38,30.94
8180,-3.8711,0.0032,-0.1309,367.43,-578.12,843.44
8190,-3.8711,0.0042,-0.1323,414.31,-750.00,1062.19
8200,-3.8711,0.0052,-0.1338,539.31,-937.50,655.94
8210,-3.8712,0.0046,-0.1346,679.93,-1125.00,-125.31
8220,-3.8712,0.0013,-0.1337,601.81,-1234.38,-1125.31
8230,-3.8712,-0.0031,-0.1326,179.93,-1109.38,-1984.68
8240,-3.8712,-0.0054,-0.1322,-382.57,-953.19,1671.57
8250,-3.8712,-0.0035,-0.1320,-679.44,-906.31,1890.32
8260,-3.8712,0.0009,-0.1307,-445.07,-875.06,-1531.56
8270,-3.8712,0.0031,-0.1287,117.43,-734.38,-750.31
8280,-3.8711,0.0021,-0.1277,398.68,-468.75,93.44
8290,-3.8711,0.0002,-0.1278,273.68,-343.75,765.32
8300,-3.8711,-0.0018,-0.1307,39.31,-359.38,702.82
8310,-3.8711,-0.0020,-0.1349,-226.32,-718.81,30.94
8320,-3.8712,-0.0013,-0.1354,-241.94,-1250.06,-750.31
8330,-3.8712,-0.0018,-0.1351,-163.82,-1312.56,-1484.68
8340,-3.8712,-0.0021,-0.1350,-226.32,-1281.31,1968.44
8350,-3.8712,-0.0035,-0.1335,-257.57,-1265.69,1640.32
8360,-3.8712,-0.0050,-0.1323,-445.07,-1078.19,1499.69
8370,-3.8712,-0.0048,-0.1321,-632.57,-921.94,1577.82
8380,-3.8712,-0.0013,-0.1315,-601.32,-890.69,-1922.18
8390,-3.8712,0.0059,-0.1318,-163.82,-812.56,-1031.56
8400,-3.8711,0.0126,-0.1333,758.06,-875.00,109.07
8410,-3.8711,0.0145,-0.1343,1617.43,-1062.50,1015.32
8420,-3.8711,0.0137,-0.1348,1867.43,-1187.50,1218.44
8430,-3.8711,0.0128,-0.1332,1758.06,-1250.00,937.19
8440,-3.8711,0.0127,-0.1283,1648.68,-1046.88,202.82
8450,-3.8712,0.0139,-0.1234,1633.06,-421.88,-984.68
8460,-3.8712,0.0151,-0.1208,1789.31,203.12,-1890.87
8470,-3.8712,0.0144,-0.1212,1945.56,531.25,-1843.99
8480,-3.8712,0.0132,-0.1245,1851.81,484.38,-937.74
8490,-3.8711,0.0127,-0.1288,1695.56,62.50,390.38
8500,-3.8711,0.0120,-0.1324,1633.06,-484.38,1359.07
8510,-3.8711,0.0104,-0.1359,1539.31,-953.12,1390.32
8520,-3.8711,0.0077,-0.1387,1336.18,-1390.62,702.82
8530,-3.8712,0.0038,-0.1378,992.43,-1750.00,-219.06
8540,-3.8712,0.0010,-0.1355,492.43,-1640.62,-1187.81
8550,-3.8712,-0.0009,-0.1343,133.06,-1343.75,1890.32
8560,-3.8712,-0.0044,-0.1332,-101.32,-1171.94,1327.82
8570,-3.8712,-0.0104,-0.1323,-554.44,-1031.31,1343.44
8580,-3.8712,-0.0151,-0.1306,-1320.07,-921.94,1905.94
8590,-3.8712,-0.0142,-0.1282,-1929.44,-703.19,-1359.68
8600,-3.8712,-0.0087,-0.1276,-1804.44,-390.69,-937.81
8610,-3.8712,-0.0011,-0.1283,-1101.32,-312.56,-922.18
8620,-3.8712,0.0076,-0.1300,-132.57,-406.31,-1140.93
8630,-3.8712,0.0142,-0.1340,976.81,-640.62,-1000.31
8640,-3.8712,0.0173,-0.1385,1820.56,-1156.25,-312.81
8650,-3.8711,0.0188,-0.1403,-1773.19,-1734.38,468.44
8660,-3.8711,0.0192,-0.1392,-1585.69,-1953.12,718.44
8670,-3.8711,0.0184,-0.1361,-1538.82,-1812.50,265.32
8680,-3.8712,0.0166,-0.1320,-1632.57,-1421.88,-469.06
8690,-3.8712,0.0126,-0.1270,-1866.94,-890.62,-1062.81
8700,-3.8712,0.0061,-0.1241,1617.43,-250.00,-1297.18
8710,-3.8712,-0.0004,-0.1256,789.31,109.38,-1172.12
8720,-3.8712,-0.0043,-0.1289,-38.82,-62.56,-937.81
8730,-3.8712,-0.0052,-0.1320,-538.82,-484.44,-828.43
8740,-3.8712,-0.0043,-0.1340,-663.82,-875.06,-844.06
8750,-3.8712,-0.0048,-0.1356,-538.82,-1140.69,-859.68
8760,-3.8712,-0.0062,-0.1376,-601.32,-1343.81,-750.31
8770,-3.8712,-0.0060,-0.1395,-788.82,-1593.81,-437.81
8780,-3.8712,-0.0040,-0.1399,-757.57,-1843.81,-344.06
8790,-3.8712,0.0000,-0.1387,-507.57,-1890.69,-734.68
8800,-3.8712,0.0031,-0.1376,8.06,-1750.00,-1234.68
8810,-3.8712,0.0015,-0.1365,398.68,-1609.38,-1719.06
8820,-3.8712,-0.0034,-0.1343,195.56,-1468.75,1765.32
8830,-3.8712,-0.0088,-0.1339,-429.44,-1171.94,1374.69
8840,-3.8712,-0.0118,-0.1361,-1116.94,-1125.06,1390.32
8850,-3.8712,-0.0110,-0.1362,-1507.57,-1406.31,1827.82
8860,-3.8712,-0.0071,-0.1334,-1398.19,-1421.94,-1250.31
8870,-3.8711,-0.0002,-0.1312,-898.19,-1062.56,405.94
8880,-3.8711,0.0107,-0.1309,-23.19,-781.31,-1890.93
8890,-3.8711,0.0231,-0.1295,1383.06,-750.00,-1359.68
8900,-3.8711,0.0312,-0.1263,-1038.82,-578.12,1843.44
8910,-3.8711,0.0321,-0.1248,8.06,-171.81,577.82
8920,-3.8712,0.0258,-0.1266,117.43,31.31,-359.62
8930,-3.8712,0.0154,-0.1300,-695.07,-203.12,-890.93
8940,-3.8712,0.0038,-0.1338,1976.81,-640.62,-1250.31
8950,-3.8712,-0.0063,-0.1357,492.43,-1125.00,-1547.18
8960,-3.8712,-0.0142,-0.1360,-804.44,-1359.44,-1594.06
8970,-3.8712,-0.0188,-0.1379,-1804.44,-1390.69,-1437.81
8980,-3.8712,-0.0179,-0.1412,1601.81,-1640.69,-1078.43
8990,-3.8712,-0.0129,-0.1428,1711.18,1937.44,-625.31
9000,-3.8712,-0.0060,-0.1418,-1648.19,1734.31,-281.56
9010,-3.8712,-0.0010,-0.1417,-757.57,1859.31,-109.68
9020,-3.8712,-0.0011,-0.1421,-116.94,1874.94,-109.68
9030,-3.8712,-0.0037,-0.1400,-132.57,1828.06,-469.06
9040,-3.8712,-0.0054,-0.1366,-460.69,-1906.31,-1297.18
9050,-3.8712,-0.0060,-0.1315,-679.44,-1468.81,1968.44
9060,-3.8712,-0.0072,-0.1262,-757.57,-812.56,1812.19
9070,-3.8712,-0.0084,-0.1237,-913.82,-140.69,-1547.18
9080,-3.8712,-0.0082,-0.1249,-1070.07,187.44,-500.24
9090,-3.8711,-0.0066,-0.1290,-1038.82,31.19,156.01
9100,-3.8711,-0.0045,-0.1346,-835.69,-500.06,218.44
9110,-3.8712,-0.0037,-0.1396,-570.07,-1218.81,-31.56
9120,-3.8712,-0.0067,-0.1423,-460.69,-1859.44,-515.93
9130,-3.8712,-0.0138,-0.1439,-851.32,1796.81,-1156.56
9140,-3.8712,-0.0223,-0.1454,-1757.57,1593.69,-1922.18
9150,-3.8712,-0.0295,-0.1466,1148.68,1406.19,1265.32
9160,-3.8712,-0.0337,-0.1447,226.81,1249.94,765.32
9170,-3.8712,-0.0314,-0.1403,-304.44,1499.88,999.69
9180,-3.8712,-0.0219,-0.1376,-7.57,-1937.62,-1875.31
9190,-3.8712,-0.0105,-0.1360,1211.18,-1593.81,-312.81
9200,-3.8711,-0.0022,-0.1328,-1335.69,-1390.69,624.69
9210,-3.8711,0.0005,-0.1300,-273.19,-984.44,327.82
9220,-3.8712,-0.0024,-0.1294,70.56,-640.62,-359.68
9230,-3.8712,-0.0078,-0.1306,-304.44,-546.94,-703.43
9240,-3.8712,-0.0105,-0.1338,-991.94,-703.19,-906.56
9250,-3.8712,-0.0087,-0.1387,-1335.69,-1109.44,-1015.93
9260,-3.8712,-0.0048,-0.1427,-1101.32,-1734.44,-875.31
9270,-3.8712,-0.0038,-0.1459,-601.32,1749.94,-765.93
9280,-3.8712,-0.0068,-0.1477,-476.32,1343.69,-890.93
9290,-3.8712,-0.0111,-0.1465,-866.94,1109.31,-1187.81
9300,-3.8712,-0.0146,-0.1436,-1413.82,1265.56,-1375.31
9310,-3.8712,-0.0167,-0.1390,-1866.94,1640.56,-1109.68
9320,-3.8712,-0.0172,-0.1345,1867.43,-1781.31,-828.43
9330,-3.8712,-0.0160,-0.1328,1804.93,-1203.19,-969.06
9340,-3.8712,-0.0133,-0.1333,1961.18,-984.44,-1344.06
9350,-3.8712,-0.0110,-0.1344,-1695.07,-1046.94,-1687.81
9360,-3.8712,-0.0107,-0.1343,-1398.19,-1187.56,-1719.06
9370,-3.8712,-0.0139,-0.1348,-1366.94,-1171.94,-1219.06
9380,-3.8712,-0.0175,-0.1368,-1773.19,-1234.44,-375.31
9390,-3.8711,-0.0183,-0.1390,1773.68,-1500.06,234.07
9400,-3.8711,-0.0173,-0.1403,1664.31,-1781.31,30.94
9410,-3.8712,-0.0156,-0.1406,1789.31,-1937.56,-765.93
9420,-3.8712,-0.0139,-0.1403,-1991.94,-1984.44,-1609.68
9430,-3.8712,-0.0142,-0.1405,-1773.19,-1937.56,1984.07
9440,-3.8712,-0.0144,-0.1416,-1804.44,-1968.81,-1812.81
9450,-3.8712,-0.0121,-0.1415,-1835.69,1890.56,-1422.18
9460,-3.8712,-0.0061,-0.1406,-1538.82,1906.19,-1156.56
9470,-3.8712,0.0022,-0.1381,-773.19,-1984.44,-937.81
9480,-3.8712,0.0073,-0.1331,289.31,-1671.88,-578.43
9490,-3.8712,0.0066,-0.1292,945.56,-1031.25,-47.18
9500,-3.8711,0.0028,-0.1274,851.81,-531.25,484.07
9510,-3.8711,-0.0013,-0.1287,367.43,-312.50,671.57
9520,-3.8711,-0.0040,-0.1323,-163.82,-453.19,405.94
9530,-3.8712,-0.0059,-0.1368,-507.57,-921.94,-250.31
9540,-3.8712,-0.0077,-0.1414,-741.94,-1500.06,-922.18
9550,-3.8712,-0.0101,-0.1443,-976.32,1921.81,-1219.06
9560,-3.8712,-0.0153,-0.1454,-1288.82,1546.81,-1281.56
9570,-3.8712,-0.0215,-0.1447,-1945.07,1406.19,-1406.56
9580,-3.8712,-0.0245,-0.1412,1258.06,1499.94,-1547.18
9590,-3.8712,-0.0227,-0.1365,867.43,1937.44,-1500.31
9600,-3.8712,-0.0195,-0.1322,1101.81,-1453.19,-1265.93
9610,-3.8712,-0.0173,-0.1306,1508.06,-906.31,-1109.68
9620,-3.8712,-0.0140,-0.1317,1789.31,-703.19,-984.68
9630,-3.8712,-0.0101,-0.1327,-1788.82,-843.81,-922.18
9640,-3.8712,-0.0063,-0.1328,-1288.82,-968.81,-906.56
9650,-3.8712,-0.0027,-0.1343,-804.44,-984.44,-672.18
9660,-3.8712,-0.0017,-0.1385,-335.69,-1171.94,-234.68
9670,-3.8711,-0.0021,-0.1434,-210.69,-1718.81,93.44
9680,-3.8712,-0.0028,-0.1471,-257.57,1656.19,-94.06
9690,-3.8712,-0.0057,-0.1481,-351.32,1187.44,-797.18
9700,-3.8712,-0.0106,-0.1458,-726.32,1062.44,-1547.18
9710,-3.8712,-0.0181,-0.1421,-1351.32,1359.31,1859.07
9720,-3.8712,-0.0266,-0.1372,1695.56,1828.06,1640.32
9730,-3.8712,-0.0339,-0.1315,601.81,-1546.94,1374.69
9740,-3.8712,-0.0380,-0.1277,-335.69,-812.62,687.19
9750,-3.8713,-0.0364,-0.1259,-851.32,-328.25,-47.18
9760,-3.8713,-0.0305,-0.1234,-648.19,-93.87,-156.56
9770,-3.8712,-0.0231,-0.1241,101.81,218.69,1187.26
9780,-3.8711,-0.0120,-0.1301,1054.93,124.94,343.51
9790,-3.8711,0.0057,-0.1362,-1523.19,-640.69,-0.31
9800,-3.8710,0.0240,-0.1398,742.43,-1437.50,-1922.18
9810,-3.8710,0.0371,-0.1405,-913.82,-1890.62,1874.69
9820,-3.8711,0.0413,-0.1382,758.06,-1984.31,-47.18
9830,-3.8711,0.0341,-0.1346,1289.31,-1687.44,1171.57
9840,-3.8712,0.0195,-0.1307,367.43,-1234.31,-1625.31
9850,-3.8712,0.0029,-0.1270,-1491.94,-734.38,312.19
9860,-3.8713,-0.0139,-0.1250,383.06,-250.00,-562.81
9870,-3.8713,-0.0289,-0.1252,-1773.19,15.56,-203.37
9880,-3.8712,-0.0394,-0.1279,304.93,-15.69,1015.32
9890,-3.8712,-0.0442,-0.1327,-1038.82,-359.50,-1437.81
9900,-3.8711,-0.0428,-0.1372,-1648.19,-968.87,30.94
9910,-3.8711,-0.0378,-0.1415,-1476.32,-1547.00,1187.19
9920,-3.8711,-0.0332,-0.1470,-835.69,1906.13,1702.82
9930,-3.8711,-0.0287,-0.1501,-241.94,1203.00,1202.82
9940,-3.8712,-0.0248,-0.1490,336.18,796.81,-172.18
9950,-3.8712,-0.0232,-0.1458,836.18,937.44,-1906.56
9960,-3.8712,-0.0228,-0.1400,1039.31,1359.31,593.44
9970,-3.8713,-0.0225,-0.1332,1086.18,-1906.31,-312.81
9980,-3.8713,-0.0220,-0.1273,1133.06,-1031.31,-312.81
9990,-3.8712,-0.0208,-0.1248,1195.56,-281.31,562.19
10000,-3.8712,-0.0190,-0.1257,1351.81,46.81,1968.51
10010,-3.8712,-0.0159,-0.1279,1570.56,-78.19,-375.31
10020,-3.8711,-0.0101,-0.1312,1976.81,-359.44,1202.82
10030,-3.8711,-0.0027,-0.1350,-1288.82,-781.31,-1656.56
10040,-3.8711,0.0038,-0.1383,-335.69,-1265.69,-1328.43
10050,-3.8711,0.0063,-0.1403,492.43,-1703.12,1921.57
10060,-3.8711,0.0024,-0.1411,820.56,-1953.12,218.44
10070,-3.8712,-0.0074,-0.1406,320.56,1937.50,-1562.81
10080,-3.8712,-0.0176,-0.1379,-945.07,-1984.44,1155.94
10090,-3.8712,-0.0231,-0.1353,1758.06,-1640.69,734.07
10100,-3.8712,-0.0222,-0.1331,1054.93,-1296.94,1405.94
10110,-3.8712,-0.0155,-0.1310,1164.31,-1015.69,-1422.18
10120,-3.8712,-0.0067,-0.1290,-1976.32,-750.06,-344.06
10130,-3.8711,-0.0039,-0.1284,-851.32,-500.06,484.07
10140,-3.8711,-0.0089,-0.1306,-491.94,-421.94,999.69
10150,-3.8711,-0.0151,-0.1348,-1132.57,-703.19,937.19
10160,-3.8711,-0.0186,-0.1389,-1929.44,-1234.44,296.57
10170,-3.8712,-0.0194,-0.1407,1633.06,-1765.69,-531.56
10180,-3.8712,-0.0211,-0.1400,1523.68,1999.94,-1531.56
10190,-3.8712,-0.0258,-0.1409,1304.93,-1906.31,1499.69
10200,-3.8712,-0.0314,-0.1429,711.18,1984.31,1046.57
10210,-3.8712,-0.0366,-0.1439,-7.57,1718.63,1062.19
10220,-3.8712,-0.0381,-0.1440,-679.44,1593.63,1374.69
10230,-3.8712,-0.0349,-0.1428,-866.94,1578.00,1952.82
10240,-3.8712,-0.0306,-0.1388,-460.69,1734.25,-1234.68
10250,-3.8712,-0.0258,-0.1334,86.18,-1750.06,-594.06
10260,-3.8712,-0.0194,-0.1284,711.18,-1062.56,-406.56
10270,-3.8712,-0.0142,-0.1243,1523.68,-421.94,-344.06
10280,-3.8712,-0.0111,-0.1235,-1804.44,109.31,-125.24
10290,-3.8711,-0.0077,-0.1256,-1413.82,203.06,62.26
10300,-3.8711,-0.0033,-0.1294,-976.32,-62.56,77.82
10310,-3.8711,-0.0009,-0.1339,-413.82,-546.94,140.32
10320,-3.8711,-0.0011,-0.1367,-101.32,-1125.06,327.82
10330,-3.8711,-0.0035,-0.1384,-132.57,-1484.44,343.44
10340,-3.8711,-0.0077,-0.1389,-445.07,-1703.19,46.57
10350,-3.8712,-0.0133,-0.1370,-976.32,-1765.69,-344.06
10360,-3.8712,-0.0208,-0.1337,-1695.07,-1515.69,-781.56
10370,-3.8712,-0.0273,-0.1317,1351.81,-1093.81,-1125.31
10380,-3.8712,-0.0322,-0.1332,508.06,-843.81,-1406.56
10390,-3.8712,-0.0355,-0.1361,-116.94,-1031.37,-1844.06
10400,-3.8712,-0.0358,-0.1377,-538.82,-1406.37,1671.57
10410,-3.8712,-0.0326,-0.1385,-570.07,-1609.50,1562.19
10420,-3.8712,-0.0276,-0.1384,-163.82,-1718.87,-1844.06
10430,-3.8712,-0.0233,-0.1362,476.81,-1703.19,-1094.06
10440,-3.8712,-0.0200,-0.1342,1023.68,-1421.94,-469.06
10450,-3.8712,-0.0182,-0.1342,1445.56,-1156.31,-219.06
10460,-3.8712,-0.0176,-0.1340,1679.93,-1156.31,-500.31
10470,-3.8712,-0.0166,-0.1326,1758.06,-1140.69,-734.68
10480,-3.8712,-0.0151,-0.1326,1883.06,-953.19,-594.06
10490,-3.8712,-0.0125,-0.1345,-1929.44,-953.19,-219.06
10500,-3.8711,-0.0095,-0.1353,-1585.69,-1203.19,30.94
10510,-3.8712,-0.0088,-0.1335,-1210.69,-1296.94,-94.06
10520,-3.8712,-0.0122,-0.1324,-1116.94,-1078.19,-469.06
10530,-3.8712,-0.0181,-0.1344,-1554.44,-937.56,-859.68
10540,-3.8712,-0.0237,-0.1382,1695.56,-1187.56,-1312.81
10550,-3.8712,-0.0281,-0.1404,976.81,-1671.94,-1719.06
10560,-3.8712,-0.0299,-0.1404,414.31,-1953.19,-1781.56
10570,-3.8712,-0.0300,-0.1396,179.93,-1953.19,-1453.43
10580,-3.8712,-0.0288,-0.1373,164.31,-1859.44,-922.18
10590,-3.8712,-0.0258,-0.1338,320.56,-1562.56,-422.18
10600,-3.8712,-0.0208,-0.1315,711.18,-1109.44,-0.31
10610,-3.8711,-0.0159,-0.1305,1351.81,-812.56,30.94
10620,-3.8712,-0.0143,-0.1312,1976.81,-687.56,-390.93
10630,-3.8712,-0.0165,-0.1315,-1820.07,-781.31,-875.31
10640,-3.8712,-0.0206,-0.1299,1898.68,-812.56,-1109.68
10650,-3.8712,-0.0238,-0.1290,1367.43,-609.44,-1125.31
10660,-3.8712,-0.0228,-0.1296,961.18,-500.06,-1015.93
10670,-3.8712,-0.0197,-0.1313,1086.18,-578.19,-953.43
10680,-3.8712,-0.0189,-0.1334,1492.43,-796.94,-969.06
10690,-3.8712,-0.0223,-0.1354,1586.18,-1062.56,-1031.56
10700,-3.8712,-0.0270,-0.1381,1148.68,-1312.56,-1109.68
10710,-3.8712,-0.0294,-0.1410,554.93,-1656.31,-1109.68
10720,-3.8712,-0.0291,-0.1426,242.43,1968.69,-1156.56
10730,-3.8712,-0.0260,-0.1427,289.31,1765.56,-1422.18
10740,-3.8712,-0.0227,-0.1395,679.93,1749.94,-1687.81
10750,-3.8712,-0.0225,-0.1342,1101.81,-1843.81,-1562.81
10760,-3.8712,-0.0260,-0.1302,1133.06,-1156.31,-937.81
10770,-3.8712,-0.0287,-0.1277,679.93,-656.31,-109.68
10780,-3.8711,-0.0272,-0.1278,336.18,-328.19,374.69
10790,-3.8711,-0.0217,-0.1305,523.68,-343.81,296.57
10800,-3.8712,-0.0145,-0.1342,1226.81,-687.56,-265.93
10810,-3.8712,-0.0094,-0.1368,-1851.32,-1156.31,-984.68
10820,-3.8712,-0.0105,-0.1378,-1195.07,-1500.06,-1594.06
10830,-3.8712,-0.0184,-0.1378,-1335.69,-1625.06,-1750.31
10840,-3.8712,-0.0278,-0.1366,1648.68,-1625.06,-1422.18
10850,-3.8712,-0.0327,-0.1349,445.56,-1468.81,-969.06
10860,-3.8712,-0.0298,-0.1335,-179.44,-1250.12,-609.68
10870,-3.8712,-0.0220,-0.1328,195.56,-1078.19,-531.56
10880,-3.8712,-0.0161,-0.1328,1195.56,-984.44,-703.43
10890,-3.8712,-0.0162,-0.1342,1945.56,-984.44,-844.06
10900,-3.8712,-0.0211,-0.1362,1929.93,-1156.31,-875.31
10910,-3.8712,-0.0255,-0.1379,1304.93,-1421.94,-922.18
10920,-3.8712,-0.0264,-0.1381,742.43,-1640.69,-1125.31
10930,-3.8712,-0.0238,-0.1371,633.06,-1656.31,-1312.81
10940,-3.8712,-0.0206,-0.1362,961.18,-1531.31,-1109.68
10950,-3.8712,-0.0187,-0.1362,1367.43,-1421.94,-640.93
10960,-3.8712,-0.0177,-0.1351,1617.43,-1421.94,-250.31
10970,-3.8712,-0.0181,-0.1332,1742.43,-1281.31,-156.56
10980,-3.8712,-0.0199,-0.1320,1695.56,-1031.31,-219.06
10990,-3.8712,-0.0234,-0.1309,1461.18,-875.06,-390.93
11000,-3.8712,-0.0288,-0.1302,1008.06,-734.44,-750.31
11010,-3.8712,-0.0326,-0.1321,320.56,-656.31,-1078.43
11020,-3.8712,-0.0311,-0.1348,-163.82,-890.75,-1219.06
11030,-3.8712,-0.0244,-0.1362,23.68,-1234.44,-1328.43
11040,-3.8712,-0.0171,-0.1364,883.06,-1421.94,-1390.93
11050,-3.8712,-0.0137,-0.1355,1820.56,-1437.56,-1406.56
11060,-3.8712,-0.0166,-0.1351,-1741.94,-1328.19,-1390.93
11070,-3.8712,-0.0245,-0.1367,1883.06,-1281.31,-1109.68
11080,-3.8712,-0.0321,-0.1388,867.43,-1484.44,-531.56
11090,-3.8712,-0.0337,-0.1385,-101.32,-1750.12,-109.68
11100,-3.8712,-0.0284,-0.1351,-304.44,-1718.87,-156.56
11110,-3.8712,-0.0216,-0.1307,367.43,-1281.31,-562.81
11120,-3.8712,-0.0190,-0.1282,1242.43,-718.81,-1187.81
11130,-3.8712,-0.0203,-0.1277,1570.56,-390.69,-1562.81
11140,-3.8712,-0.0220,-0.1271,1414.31,-328.19,-1453.43
11150,-3.8712,-0.0222,-0.1278,1195.56,-250.06,-1078.43
11160,-3.8712,-0.0206,-0.1312,1164.31,-343.81,-765.93
11170,-3.8712,-0.0179,-0.1350,1367.43,-781.31,-531.56
11180,-3.8712,-0.0177,-0.1382,1711.18,-1265.69,-406.56
11190,-3.8712,-0.0192,-0.1410,1742.43,-1671.94,-344.06
11200,-3.8712,-0.0212,-0.1410,1554.93,1968.69,-390.93
11210,-3.8712,-0.0242,-0.1392,1289.31,1968.69,-562.81
11220,-3.8712,-0.0256,-0.1371,914.31,-1796.94,-656.56
11230,-3.8712,-0.0259,-0.1351,726.81,-1531.31,-797.18
11240,-3.8712,-0.0267,-0.1334,695.56,-1281.31,-1094.06
11250,-3.8712,-0.0281,-0.1313,586.18,-1062.56,-1484.68
11260,-3.8712,-0.0321,-0.1293,414.31,-796.94,-1594.06
11270,-3.8712,-0.0372,-0.1306,-101.32,-531.37,-1219.06
11280,-3.8712,-0.0399,-0.1346,-757.57,-703.25,-859.68
11290,-3.8712,-0.0408,-0.1383,-1101.32,-1218.87,-1015.93
11300,-3.8712,-0.0406,-0.1396,-1210.69,-1687.62,-1453.43
11310,-3.8712,-0.0399,-0.1399,-1195.07,-1859.50,-1687.81
11320,-3.8712,-0.0378,-0.1411,-1101.32,-1890.75,-1547.18
11330,-3.8712,-0.0338,-0.1423,-835.69,1953.00,-1187.81
11340,-3.8712,-0.0292,-0.1416,-320.07,1796.75,-922.18
11350,-3.8712,-0.0239,-0.1393,273.68,1890.56,-1000.31
11360,-3.8712,-0.0188,-0.1364,945.56,-1812.56,-1281.56
11370,-3.8712,-0.0153,-0.1334,1601.81,-1437.56,-1453.43
11380,-3.8712,-0.0139,-0.1305,-1945.07,-1062.56,-1219.06
11390,-3.8712,-0.0145,-0.1284,-1773.19,-687.56,-625.31
11400,-3.8712,-0.0167,-0.1267,-1851.32,-421.94,-47.18
11410,-3.8711,-0.0195,-0.1261,1867.43,-203.19,280.94
11420,-3.8711,-0.0215,-0.1281,1508.06,-125.06,405.94
11430,-3.8711,-0.0212,-0.1305,1258.06,-375.06,374.69
11440,-3.8711,-0.0208,-0.1318,1289.31,-687.56,77.82
11450,-3.8712,-0.0215,-0.1309,1351.81,-859.44,-344.06
11460,-3.8712,-0.0227,-0.1296,1258.06,-734.44,-640.93
11470,-3.8712,-0.0245,-0.1301,1101.81,-578.19,-640.93
11480,-3.8712,-0.0262,-0.1316,867.43,-640.69,-453.43
11490,-3.8712,-0.0258,-0.1346,648.68,-828.19,-390.93
11500,-3.8712,-0.0238,-0.1377,711.18,-1218.81,-453.43
11510,-3.8712,-0.0228,-0.1392,961.18,-1609.44,-687.81
11520,-3.8712,-0.0247,-0.1396,1086.18,-1796.94,-969.06
11530,-3.8712,-0.0291,-0.1390,851.81,-1859.44,-1219.06
11540,-3.8712,-0.0332,-0.1365,289.31,-1781.31,-1437.81
11550,-3.8712,-0.0347,-0.1334,-241.94,-1453.25,-1390.93
11560,-3.8712,-0.0347,-0.1306,-429.44,-1062.62,-953.43
11570,-3.8712,-0.0356,-0.1304,-429.44,-703.25,-625.31
11580,-3.8712,-0.0359,-0.1349,-554.44,-672.00,-656.56
11590,-3.8712,-0.0352,-0.1407,-585.69,-1250.12,-1000.31
11600,-3.8712,-0.0345,-0.1438,-491.94,1999.88,-1562.81
11610,-3.8712,-0.0341,-0.1442,-413.82,1609.25,-1875.31
11620,-3.8712,-0.0344,-0.1438,-351.32,1562.38,-1890.93
11630,-3.8712,-0.0366,-0.1438,-398.19,1609.25,-1890.93
11640,-3.8712,-0.0409,-0.1436,-679.44,1609.25,-1890.93
11650,-3.8712,-0.0457,-0.1427,-1226.32,1640.50,-1828.43
11660,-3.8712,-0.0475,-0.1403,-1835.69,1749.88,-1656.56
11670,-3.8712,-0.0436,-0.1376,1929.93,-1937.62,-1281.56
11680,-3.8712,-0.0352,-0.1346,-1570.07,-1593.87,-703.43
11690,-3.8712,-0.0237,-0.1315,-491.94,-1218.87,-203.43
11700,-3.8711,-0.0134,-0.1298,976.81,-812.56,30.94
11710,-3.8712,-0.0078,-0.1296,-1710.69,-593.81,-78.43
11720,-3.8712,-0.0088,-0.1311,-991.94,-578.19,-406.56
11730,-3.8712,-0.0156,-0.1328,-1116.94,-765.69,-687.81
11740,-3.8712,-0.0243,-0.1335,-1991.94,-984.44,-656.56
11750,-3.8712,-0.0322,-0.1326,898.68,-1078.19,-406.56
11760,-3.8712,-0.0376,-0.1315,-116.94,-953.25,-312.81
11770,-3.8712,-0.0388,-0.1322,-804.44,-812.62,-344.06
11780,-3.8712,-0.0377,-0.1343,-960.69,-906.37,-437.81
11790,-3.8712,-0.0369,-0.1362,-820.07,-1172.00,-625.31
11800,-3.8712,-0.0365,-0.1382,-710.69,-1422.00,-906.56
11810,-3.8712,-0.0353,-0.1400,-663.82,-1672.00,-1109.68
11820,-3.8712,-0.0336,-0.1407,-507.57,-1906.37,-1344.06
11830,-3.8712,-0.0327,-0.1393,-288.82,1999.88,-1640.93
11840,-3.8712,-0.0320,-0.1366,-179.44,-1812.62,-1656.56
11850,-3.8712,-0.0320,-0.1353,-85.69,-1468.87,-1328.43
11860,-3.8712,-0.0326,-0.1356,-85.69,-1297.00,-922.18
11870,-3.8712,-0.0320,-0.1370,-163.82,-1343.87,-781.56
11880,-3.8712,-0.0311,-0.1372,-85.69,-1515.75,-937.81
11890,-3.8712,-0.0326,-0.1364,23.68,-1546.94,-1094.06
11900,-3.8712,-0.0361,-0.1355,-163.82,-1437.62,-1062.81
11910,-3.8712,-0.0398,-0.1348,-616.94,-1328.25,-922.18
11920,-3.8712,-0.0408,-0.1350,-1085.69,-1234.50,-844.06
11930,-3.8712,-0.0376,-0.1362,-1210.69,-1265.75,-734.68
11940,-3.8712,-0.0320,-0.1377,-804.44,-1422.00,-781.56
11950,-3.8712,-0.0287,-0.1404,-85.69,-1609.50,-1031.56
11960,-3.8712,-0.0276,-0.1433,336.18,-1953.19,-1125.31
11970,-3.8712,-0.0264,-0.1429,476.81,1671.81,-1047.18
11980,-3.8712,-0.0243,-0.1388,633.06,1718.69,-844.06
11990,-3.8712,-0.0216,-0.1339,898.68,-1750.06,-703.43
12000,-3.8712,-0.0203,-0.1311,1242.43,-1125.06,-875.31
12010,-3.8712,-0.0221,-0.1305,1414.31,-765.69,-1265.93
12020,-3.8712,-0.0291,-0.1315,1179.93,-687.56,-1359.68
12030,-3.8712,-0.0396,-0.1350,289.31,-812.56,-1047.18
12040,-3.8712,-0.0463,-0.1400,-1054.44,-1265.75,-562.81
12050,-3.8712,-0.0449,-0.1432,-1913.82,-1906.37,-344.06
12060,-3.8712,-0.0386,-0.1418,-1741.94,1687.38,-578.43
12070,-3.8712,-0.0326,-0.1377,-929.44,1859.25,-953.43
12080,-3.8712,-0.0308,-0.1345,-163.82,-1609.50,-1234.68
12090,-3.8712,-0.0327,-0.1338,70.56,-1203.19,-1281.56
12100,-3.8712,-0.0336,-0.1349,-179.44,-1109.50,-1140.93
12110,-3.8712,-0.0306,-0.1368,-288.82,-1250.12,-1062.81
12120,-3.8712,-0.0275,-0.1389,86.18,-1500.06,-1156.56
12130,-3.8712,-0.0269,-0.1399,492.43,-1765.69,-1250.31
12140,-3.8712,-0.0284,-0.1401,570.56,-1890.69,-1078.43
12150,-3.8712,-0.0297,-0.1392,367.43,-1921.94,-703.43
12160,-3.8712,-0.0292,-0.1372,211.18,-1796.94,-312.81
12170,-3.8712,-0.0265,-0.1351,273.68,-1546.94,-187.81
12180,-3.8712,-0.0229,-0.1342,617.43,-1281.31,-437.81
12190,-3.8712,-0.0205,-0.1346,1070.56,-1156.31,-750.31
12200,-3.8712,-0.0204,-0.1361,1383.06,-1218.81,-890.93
12210,-3.8712,-0.0215,-0.1379,1398.68,-1406.31,-844.06
12220,-3.8712,-0.0237,-0.1384,1258.06,-1640.69,-672.18
12230,-3.8712,-0.0271,-0.1368,976.81,-1703.19,-640.93
12240,-3.8712,-0.0312,-0.1348,539.31,-1500.06,-765.93
12250,-3.8712,-0.0366,-0.1344,8.06,-1234.44,-844.06
12260,-3.8712,-0.0420,-0.1353,-679.44,-1187.62,-640.93
12270,-3.8712,-0.0457,-0.1366,-1366.94,-1297.00,-484.68
12280,-3.8712,-0.0468,-0.1383,-1835.69,-1468.87,-687.81
12290,-3.8712,-0.0441,-0.1387,-1976.32,-1687.62,-1125.31
12300,-3.8712,-0.0386,-0.1387,-1632.57,-1734.50,-1687.81
12310,-3.8712,-0.0321,-0.1414,-929.44,-1734.50,-1922.18
12320,-3.8712,-0.0269,-0.1420,-101.32,1921.75,-1547.18
12330,-3.8712,-0.0267,-0.1404,570.56,1843.69,-1062.81
12340,-3.8712,-0.0286,-0.1409,586.18,-1953.19,-875.31
12350,-3.8712,-0.0283,-0.1407,351.81,1984.31,-750.31
12360,-3.8712,-0.0280,-0.1395,383.06,1999.94,-594.06
12370,-3.8712,-0.0276,-0.1401,429.93,-1843.81,-531.56
12380,-3.8712,-0.0264,-0.1406,476.81,-1921.94,-578.43
12390,-3.8712,-0.0283,-0.1384,633.06,-1984.44,-1031.56
12400,-3.8712,-0.0356,-0.1372,383.06,-1703.19,-1984.68
12410,-3.8712,-0.0452,-0.1390,-554.44,-1547.00,1124.69
12420,-3.8712,-0.0554,-0.1417,-1773.19,-1781.37,780.94
12430,-3.8712,-0.0605,-0.1433,914.31,1874.88,1155.94
12440,-3.8712,-0.0547,-0.1425,258.06,1671.75,1812.19
12450,-3.8712,-0.0410,-0.1392,1008.06,1781.13,-1328.43
12460,-3.8712,-0.0262,-0.1373,-1241.94,-1797.00,-203.43
12470,-3.8711,-0.0144,-0.1364,648.68,-1562.56,702.82
12480,-3.8711,-0.0070,-0.1343,-1835.69,-1437.56,984.07
12490,-3.8711,-0.0045,-0.1310,-882.57,-1171.94,702.82
12500,-3.8711,-0.0061,-0.1289,-570.07,-750.06,280.94
12510,-3.8712,-0.0116,-0.1302,-773.19,-484.44,-31.56
12520,-3.8712,-0.0182,-0.1346,-1476.32,-656.31,-406.56
12530,-3.8712,-0.0236,-0.1406,1679.93,-1218.81,-844.06
12540,-3.8712,-0.0286,-0.1456,992.43,-1984.44,-1062.81
12550,-3.8712,-0.0353,-0.1471,351.81,1374.94,-1281.56
12560,-3.8712,-0.0446,-0.1459,-507.57,1187.38,-1594.06
12570,-3.8712,-0.0526,-0.1440,-1695.07,1343.63,-1703.43
12580,-3.8712,-0.0553,-0.1426,1273.68,1578.00,-1719.06
12590,-3.8712,-0.0531,-0.1409,929.93,1765.50,1952.82
12600,-3.8712,-0.0474,-0.1379,1211.18,1984.25,1421.57
12610,-3.8712,-0.0399,-0.1334,1945.56,-1640.75,1374.69
12620,-3.8712,-0.0341,-0.1304,-1101.32,-1062.62,-1797.18
12630,-3.8712,-0.0295,-0.1317,-351.32,-672.00,-359.68
12640,-3.8711,-0.0227,-0.1355,226.81,-843.81,812.19
12650,-3.8711,-0.0156,-0.1387,1101.81,-1328.19,1155.94
12660,-3.8711,-0.0128,-0.1407,-1991.94,-1734.44,546.57
12670,-3.8712,-0.0154,-0.1409,-1632.57,1999.94,-578.43
12680,-3.8712,-0.0223,-0.1383,-1960.69,1984.31,-1562.81
12690,-3.8712,-0.0302,-0.1346,1148.68,-1687.56,-1875.31
12700,-3.8712,-0.0343,-0.1327,148.68,-1218.81,-1390.93
12710,-3.8712,-0.0343,-0.1334,-382.57,-968.87,-672.18
12720,-3.8712,-0.0319,-0.1362,-382.57,-1062.62,-297.18
12730,-3.8712,-0.0297,-0.1401,-70.07,-1422.00,-406.56
12740,-3.8712,-0.0298,-0.1429,211.18,-1921.94,-937.81
12750,-3.8712,-0.0334,-0.1438,195.56,1718.69,-1578.43
12760,-3.8712,-0.0380,-0.1433,-273.19,1609.25,-1812.81
12770,-3.8712,-0.0396,-0.1420,-851.32,1671.75,-1484.68
12780,-3.8712,-0.0365,-0.1409,-1054.44,1843.63,-1031.56
12790,-3.8712,-0.0314,-0.1404,-663.82,1984.25,-1000.31
12800,-3.8712,-0.0288,-0.1399,-7.57,-1953.25,-1172.18
12810,-3.8712,-0.0302,-0.1399,320.56,-1890.69,-1187.81
12820,-3.8712,-0.0337,-0.1404,148.68,-1890.69,-1359.68
12830,-3.8712,-0.0363,-0.1395,-304.44,-1953.25,-1609.68
12840,-3.8712,-0.0382,-0.1367,-632.57,-1843.87,-1562.81
12850,-3.8712,-0.0397,-0.1340,-882.57,-1484.50,-1265.93
12860,-3.8712,-0.0376,-0.1324,-1070.07,-1140.75,-828.43
12870,-3.8712,-0.0336,-0.1326,-804.44,-937.62,-484.68
12880,-3.8712,-0.0298,-0.1329,-288.82,-953.25,-297.18
12890,-3.8712,-0.0280,-0.1335,195.56,-1000.06,-203.43
12900,-3.8712,-0.0295,-0.1362,429.93,-1078.19,-47.18
12910,-3.8711,-0.0321,-0.1404,226.81,-1421.94,77.82
12920,-3.8712,-0.0332,-0.1443,-101.32,-1953.25,-140.93
12930,-3.8712,-0.0332,-0.1447,-241.94,1546.75,-875.31
12940,-3.8712,-0.0336,-0.1415,-241.94,1499.88,-1625.31
12950,-3.8712,-0.0342,-0.1395,-288.82,1906.13,-1922.18
12960,-3.8712,-0.0338,-0.1392,-366.94,-1843.87,-1719.06
12970,-3.8712,-0.0317,-0.1378,-320.07,-1797.00,-1250.31
12980,-3.8712,-0.0291,-0.1355,-54.44,-1625.12,-750.31
12990,-3.8712,-0.0266,-0.1339,289.31,-1328.19,-297.18
13000,-3.8711,-0.0240,-0.1344,601.81,-1125.06,15.32
13010,-3.8712,-0.0219,-0.1353,929.93,-1187.56,-15.93
13020,-3.8712,-0.0219,-0.1361,1211.18,-1296.94,-359.68
13030,-3.8712,-0.0256,-0.1368,1211.18,-1406.31,-765.93
13040,-3.8712,-0.0315,-0.1372,726.81,-1500.06,-1078.43
13050,-3.8712,-0.0378,-0.1378,-23.19,-1547.00,-1234.68
13060,-3.8712,-0.0424,-0.1389,-835.69,-1625.12,-1406.56
13070,-3.8712,-0.0435,-0.1406,-1413.82,-1765.75,-1656.56
13080,-3.8712,-0.0422,-0.1420,-1554.44,-1984.50,-1844.06
13090,-3.8712,-0.0408,-0.1442,-1398.19,1843.63,-1781.56
13100,-3.8712,-0.0393,-0.1460,-1210.69,1562.38,-1578.43
13110,-3.8712,-0.0370,-0.1460,-1023.19,1328.00,-1297.18
13120,-3.8712,-0.0347,-0.1440,-726.32,1328.00,-859.68
13130,-3.8712,-0.0316,-0.1403,-429.44,1578.00,-375.31
13140,-3.8712,-0.0278,-0.1355,-38.82,-1937.62,-140.93
13150,-3.8712,-0.0244,-0.1328,445.56,-1328.19,-172.18
13160,-3.8712,-0.0217,-0.1323,883.06,-984.44,-328.43
13170,-3.8712,-0.0214,-0.1328,1226.81,-921.94,-765.93
13180,-3.8712,-0.0261,-0.1351,1273.68,-984.44,-1469.06
13190,-3.8712,-0.0350,-0.1375,664.31,-1281.31,-1953.43
13200,-3.8712,-0.0444,-0.1396,-476.32,-1578.25,-1984.68
13210,-3.8712,-0.0500,-0.1417,-1679.44,-1859.50,-1562.81
13220,-3.8712,-0.0505,-0.1416,1601.81,1874.88,-1000.31
13230,-3.8712,-0.0482,-0.1390,1539.31,1890.50,-672.18
13240,-3.8712,-0.0439,-0.1371,1836.18,-1781.37,-687.81
13250,-3.8712,-0.0389,-0.1372,-1616.94,-1531.37,-875.31
13260,-3.8712,-0.0344,-0.1382,-976.32,-1547.00,-1156.56
13270,-3.8712,-0.0311,-0.1385,-398.19,-1672.00,-1437.81
13280,-3.8712,-0.0293,-0.1375,23.68,-1718.81,-1515.93
13290,-3.8712,-0.0281,-0.1359,258.06,-1578.19,-1297.18
13300,-3.8712,-0.0269,-0.1343,414.31,-1375.06,-812.81
13310,-3.8712,-0.0250,-0.1328,570.56,-1171.94,-187.81
13320,-3.8711,-0.0228,-0.1333,804.93,-984.44,296.57
13330,-3.8711,-0.0204,-0.1359,1086.18,-1046.94,452.82
13340,-3.8711,-0.0179,-0.1387,1398.68,-1375.06,140.32
13350,-3.8712,-0.0179,-0.1406,1711.18,-1734.44,-578.43
13360,-3.8712,-0.0228,-0.1418,1711.18,-1984.44,-1359.68
13370,-3.8712,-0.0323,-0.1433,1086.18,1859.31,-1906.56
13380,-3.8712,-0.0442,-0.1439,-132.57,1671.75,1999.69
13390,-3.8712,-0.0535,-0.1434,-1648.19,1593.63,-1734.68
13400,-3.8712,-0.0560,-0.1427,1164.31,1656.13,-1531.56
13410,-3.8712,-0.0531,-0.1407,836.18,1749.88,-1515.93
13420,-3.8712,-0.0472,-0.1377,1211.18,1999.88,-1594.06
13430,-3.8712,-0.0406,-0.1356,1961.18,-1609.50,-1765.93
13440,-3.8712,-0.0363,-0.1354,-1195.07,-1343.87,-1687.81
13450,-3.8712,-0.0336,-0.1361,-632.57,-1312.62,-1297.18
13460,-3.8712,-0.0299,-0.1379,-288.82,-1406.37,-1094.06
13470,-3.8712,-0.0258,-0.1407,179.93,-1640.69,-1078.43
13480,-3.8712,-0.0231,-0.1423,711.18,1999.94,-1047.18
13490,-3.8712,-0.0234,-0.1417,1054.93,1796.81,-1031.56
13500,-3.8712,-0.0264,-0.1396,1008.06,1874.94,-719.06
13510,-3.8712,-0.0302,-0.1378,633.06,-1859.44,-172.18
13520,-3.8711,-0.0323,-0.1372,148.68,-1625.06,124.69
13530,-3.8711,-0.0312,-0.1368,-132.57,-1547.00,155.94
13540,-3.8712,-0.0291,-0.1360,8.06,-1500.06,-140.93
13550,-3.8712,-0.0304,-0.1345,289.31,-1390.69,-828.43
13560,-3.8712,-0.0358,-0.1324,117.43,-1203.19,-1515.93
13570,-3.8712,-0.0420,-0.1316,-570.07,-937.62,-1890.93
13580,-3.8712,-0.0466,-0.1327,-1366.94,-828.25,-1765.93
13590,-3.8712,-0.0490,-0.1348,-1960.69,-968.87,-1422.18
13600,-3.8712,-0.0477,-0.1373,1742.43,-1234.50,-1125.31
13610,-3.8712,-0.0438,-0.1395,1898.68,-1562.62,-937.81
13620,-3.8712,-0.0397,-0.1406,-1601.32,-1843.87,-875.31
13630,-3.8712,-0.0358,-0.1406,-1070.07,-1984.50,-734.68
13640,-3.8712,-0.0308,-0.1403,-570.07,-1984.50,-312.81
13650,-3.8712,-0.0236,-0.1404,70.56,-1937.56,-31.56
13660,-3.8712,-0.0172,-0.1394,992.43,-1953.19,-297.18
13670,-3.8712,-0.0160,-0.1373,1804.93,-1828.19,-937.81
13680,-3.8712,-0.0212,-0.1370,1961.18,-1562.56,-1515.93
13690,-3.8712,-0.0315,-0.1388,1289.31,-1515.69,-1797.18
13700,-3.8712,-0.0437,-0.1400,-23.19,-1750.12,-1906.56
13710,-3.8712,-0.0520,-0.1405,-1585.69,-1906.37,-1890.93
13720,-3.8712,-0.0530,-0.1410,1351.81,-1968.87,-1672.18
13730,-3.8712,-0.0487,-0.1395,1226.81,1968.63,-1390.93
13740,-3.8712,-0.0427,-0.1376,1773.68,-1843.87,-1219.06
13750,-3.8712,-0.0356,-0.1372,-1460.69,-1593.87,-969.06
13760,-3.8712,-0.0280,-0.1371,-554.44,-1547.00,-578.43
13770,-3.8712,-0.0222,-0.1370,429.93,-1531.31,-281.56
13780,-3.8712,-0.0201,-0.1367,1164.31,-1515.69,-203.43
13790,-3.8712,-0.0212,-0.1368,1429.93,-1484.44,-281.56
13800,-3.8712,-0.0259,-0.1387,1289.31,-1500.06,-484.68
13810,-3.8712,-0.0332,-0.1401,695.56,-1734.44,-750.31
13820,-3.8712,-0.0417,-0.1387,-241.94,-1922.00,-1125.31
13830,-3.8712,-0.0493,-0.1362,-1335.69,-1734.50,-1422.18
13840,-3.8712,-0.0536,-0.1356,1695.56,-1422.00,-1562.81
13850,-3.8712,-0.0535,-0.1372,1148.68,-1343.87,-1594.06
13860,-3.8712,-0.0498,-0.1398,1164.31,-1547.00,-1687.81
13870,-3.8712,-0.0439,-0.1414,1633.06,-1875.12,-1734.68
13880,-3.8712,-0.0387,-0.1414,-1616.94,1921.75,-1640.93
13890,-3.8712,-0.0353,-0.1407,-945.07,1921.75,-1562.81
13900,-3.8712,-0.0332,-0.1387,-507.57,1999.88,-1422.18
13910,-3.8712,-0.0326,-0.1346,-241.94,-1734.50,-937.81
13920,-3.8712,-0.0326,-0.1315,-163.82,-1218.87,-203.43
13930,-3.8711,-0.0319,-0.1310,-163.82,-812.62,390.32
13940,-3.8711,-0.0299,-0.1326,-70.07,-750.12,562.19
13950,-3.8711,-0.0293,-0.1342,179.93,-953.19,265.32
13960,-3.8712,-0.0323,-0.1354,258.06,-1156.31,-390.93
13970,-3.8712,-0.0375,-0.1388,-132.57,-1312.62,-1234.68
13980,-3.8712,-0.0420,-0.1447,-788.82,-1750.12,1999.69
13990,-3.8712,-0.0442,-0.1495,-1366.94,1499.88,1749.69
14000,-3.8712,-0.0436,-0.1499,-1648.19,874.88,1999.69
14010,-3.8712,-0.0410,-0.1453,-1570.07,828.00,-1484.68
14020,-3.8712,-0.0389,-0.1379,-1241.94,1421.75,-1062.81
14030,-3.8712,-0.0385,-0.1300,-976.32,-1640.75,-812.81
14040,-3.8712,-0.0386,-0.1245,-913.82,-625.12,-594.06
14050,-3.8712,-0.0383,-0.1251,-929.44,78.00,-437.74
14060,-3.8712,-0.0385,-0.1312,-898.19,-0.12,-562.81
14070,-3.8712,-0.0394,-0.1393,-913.82,-781.37,-953.43
14080,-3.8712,-0.0413,-0.1442,-1038.82,-1812.62,-1250.31
14090,-3.8712,-0.0433,-0.1456,-1273.19,1562.38,-1234.68
14100,-3.8712,-0.0441,-0.1461,-1538.82,1374.88,-1047.18
14110,-3.8712,-0.0417,-0.1469,-1632.57,1312.38,-844.06
14120,-3.8712,-0.0370,-0.1467,-1335.69,1218.63,-953.43
14130,-3.8712,-0.0331,-0.1429,-726.32,1234.25,-1453.43
14140,-3.8712,-0.0321,-0.1375,-226.32,1718.63,-1890.93
14150,-3.8712,-0.0319,-0.1348,-101.32,-1578.25,-1844.06
14160,-3.8712,-0.0305,-0.1354,-70.07,-1234.50,-1359.68
14170,-3.8712,-0.0280,-0.1362,101.81,-1312.56,-844.06
14180,-3.8712,-0.0266,-0.1360,429.93,-1421.94,-469.06
14190,-3.8712,-0.0304,-0.1350,601.81,-1390.69,-328.43
14200,-3.8712,-0.0397,-0.1342,117.43,-1265.69,-453.43
14210,-3.8712,-0.0500,-0.1359,-1070.07,-1156.37,-719.06
14220,-3.8712,-0.0566,-0.1385,1601.81,-1375.12,-859.68
14230,-3.8712,-0.0571,-0.1399,758.06,-1718.87,-828.43
14240,-3.8712,-0.0522,-0.1399,695.56,-1890.75,-844.06
14250,-3.8712,-0.0449,-0.1394,1320.56,-1890.75,-1203.43
14260,-3.8712,-0.0391,-0.1389,-1741.94,-1828.25,-1765.93
14270,-3.8712,-0.0361,-0.1390,-991.94,-1765.75,1905.94
14280,-3.8712,-0.0345,-0.1399,-616.94,-1781.37,1905.94
14290,-3.8712,-0.0320,-0.1396,-413.82,-1890.75,-1640.93
14300,-3.8712,-0.0289,-0.1387,-85.69,-1859.50,-828.43
14310,-3.8712,-0.0264,-0.1381,304.93,-1734.44,-156.56
14320,-3.8711,-0.0254,-0.1370,633.06,-1656.31,46.57
14330,-3.8712,-0.0270,-0.1370,758.06,-1515.69,-0.31
14340,-3.8712,-0.0308,-0.1379,554.93,-1515.69,-62.81
14350,-3.8712,-0.0359,-0.1385,70.56,-1640.69,-359.68
14360,-3.8712,-0.0408,-0.1398,-585.69,-1718.87,-875.31
14370,-3.8712,-0.0455,-0.1405,-1210.69,-1875.12,-1484.68
14380,-3.8712,-0.0515,-0.1394,-1820.07,-1968.87,1984.07
14390,-3.8712,-0.0575,-0.1368,1414.31,-1828.25,1812.19
14400,-3.8712,-0.0609,-0.1349,648.68,-1500.12,-1875.31
14410,-3.8712,-0.0593,-0.1345,211.18,-1250.12,-1234.68
14420,-3.8712,-0.0522,-0.1361,414.31,-1203.25,-656.56
14430,-3.8712,-0.0420,-0.1384,1320.56,-1406.37,-469.06
14440,-3.8712,-0.0328,-0.1398,-1366.94,-1703.25,-609.68
14450,-3.8712,-0.0284,-0.1405,-195.07,-1875.12,-875.31
14460,-3.8712,-0.0277,-0.1420,367.43,-1968.81,-1094.06
14470,-3.8712,-0.0278,-0.1423,461.18,1843.69,-1172.18
14480,-3.8712,-0.0271,-0.1415,445.56,1796.81,-1265.93
14490,-3.8712,-0.0262,-0.1406,539.31,1906.19,-1531.56
14500,-3.8712,-0.0271,-0.1390,648.68,-1984.44,-1781.56
14510,-3.8712,-0.0312,-0.1361,539.31,-1781.31,-1797.18
14520,-3.8712,-0.0375,-0.1322,8.06,-1406.31,-1406.56
14530,-3.8712,-0.0448,-0.1299,-788.82,-906.37,-594.06
14540,-3.8711,-0.0513,-0.1309,-1726.32,-609.50,437.19
14550,-3.8711,-0.0530,-0.1345,1445.56,-734.50,1109.07
14560,-3.8711,-0.0503,-0.1405,1226.81,-1203.25,687.19
14570,-3.8712,-0.0452,-0.1449,1570.56,-1968.87,-625.31
14580,-3.8712,-0.0414,-0.1454,-1773.19,1468.63,1780.94
14590,-3.8712,-0.0413,-0.1437,-1288.82,1406.13,655.94
14600,-3.8712,-0.0420,-0.1406,-1273.19,1624.88,562.19
14610,-3.8712,-0.0409,-0.1367,-1366.94,-1984.50,1437.19
14620,-3.8712,-0.0369,-0.1326,-1226.32,-1484.50,-1203.43
14630,-3.8711,-0.0315,-0.1306,-710.69,-953.25,30.94
14640,-3.8711,-0.0269,-0.1322,-23.19,-703.25,687.19
14650,-3.8711,-0.0238,-0.1356,570.56,-906.31,718.44
14660,-3.8711,-0.0236,-0.1376,961.18,-1343.81,343.44
14670,-3.8712,-0.0264,-0.1375,992.43,-1593.81,-78.43
14680,-3.8712,-0.0315,-0.1366,633.06,-1578.19,-359.68
14690,-3.8712,-0.0392,-0.1370,-23.19,-1468.87,-750.31
14700,-3.8712,-0.0481,-0.1373,-1007.57,-1515.75,-1375.31
14710,-3.8712,-0.0554,-0.1362,1851.81,-1562.62,-1984.68
14720,-3.8712,-0.0588,-0.1346,914.31,-1422.00,1827.82
14730,-3.8712,-0.0583,-0.1353,476.81,-1218.87,-1625.31
14740,-3.8712,-0.0535,-0.1381,539.31,-1297.00,-890.93
14750,-3.8712,-0.0460,-0.1403,1164.31,-1656.37,-640.93
14760,-3.8712,-0.0396,-0.1411,-1882.57,-1937.62,-797.18
14770,-3.8712,-0.0353,-0.1426,-1054.44,1953.00,-937.81
14780,-3.8712,-0.0336,-0.1442,-507.57,1765.50,-1015.93
14790,-3.8712,-0.0319,-0.1434,-288.82,1562.38,-1531.56
14800,-3.8712,-0.0291,-0.1412,-70.07,1656.13,1765.32
14810,-3.8712,-0.0287,-0.1398,289.31,1937.44,1655.94
14820,-3.8712,-0.0314,-0.1381,336.18,-1875.06,-1750.31
14830,-3.8712,-0.0337,-0.1355,-7.57,-1656.37,-812.81
14840,-3.8711,-0.0347,-0.1335,-304.44,-1328.25,155.94
14850,-3.8711,-0.0344,-0.1331,-429.44,-1078.25,827.82
14860,-3.8711,-0.0333,-0.1348,-398.19,-1015.75,827.82
14870,-3.8712,-0.0328,-0.1379,-257.57,-1234.50,-78.43
14880,-3.8712,-0.0360,-0.1395,-195.07,-1640.75,-1437.81
14890,-3.8712,-0.0433,-0.1393,-601.32,-1843.87,1671.57
14900,-3.8712,-0.0510,-0.1396,-1538.82,-1812.62,1702.82
14910,-3.8712,-0.0541,-0.1403,1476.81,-1859.50,-1812.81
14920,-3.8712,-0.0508,-0.1395,1086.18,-1937.62,-1281.56
14930,-3.8712,-0.0447,-0.1379,1508.06,-1843.87,-953.43
14940,-3.8712,-0.0396,-0.1360,-1710.69,-1640.75,-828.43
14950,-3.8712,-0.0352,-0.1345,-1054.44,-1390.75,-687.81
14960,-3.8712,-0.0312,-0.1346,-491.94,-1203.25,-422.18
14970,-3.8712,-0.0298,-0.1355,8.06,-1218.81,-265.93
14980,-3.8712,-0.0312,-0.1362,195.56,-1328.19,-547.18
14990,-3.8712,-0.0350,-0.1370,8.06,-1421.94,-1312.81
15000,-3.8712,-0.0427,-0.1382,-476.32,-1515.75,-1969.06
15010,-3.8712,-0.0510,-0.1387,-1460.69,-1672.00,-1953.43
15020,-3.8712,-0.0525,-0.1382,1476.81,-1734.50,-1344.06
15030,-3.8712,-0.0470,-0.1385,1289.31,-1672.00,-422.18
15040,-3.8711,-0.0394,-0.1399,1992.43,-1718.87,234.07
15050,-3.8711,-0.0333,-0.1412,-1038.82,-1890.75,30.94
15060,-3.8712,-0.0317,-0.1417,-257.57,1937.38,-937.81
15070,-3.8712,-0.0358,-0.1401,-54.44,1874.88,1968.44
15080,-3.8712,-0.0422,-0.1367,-570.07,-1922.00,1312.19
15090,-3.8712,-0.0471,-0.1339,-1398.19,-1484.50,1546.57
15100,-3.8712,-0.0476,-0.1326,1976.81,-1125.12,-1390.93
15110,-3.8712,-0.0438,-0.1328,1914.31,-953.25,-78.43
15120,-3.8711,-0.0386,-0.1351,-1601.32,-984.50,749.69
15130,-3.8711,-0.0349,-0.1387,-929.44,-1281.37,671.57
15140,-3.8712,-0.0338,-0.1414,-460.69,-1734.50,-281.56
15150,-3.8712,-0.0359,-0.1433,-320.07,1921.75,-1531.56
15160,-3.8712,-0.0388,-0.1433,-585.69,1671.75,1780.94
15170,-3.8712,-0.0399,-0.1422,-960.69,1671.75,1843.44
15180,-3.8712,-0.0398,-0.1406,-1101.32,1812.38,-1594.06
15190,-3.8712,-0.0382,-0.1364,-1085.69,-1984.50,-984.68
15200,-3.8712,-0.0369,-0.1333,-882.57,-1437.62,-703.43
15210,-3.8712,-0.0371,-0.1326,-710.69,-1047.00,-750.31
15220,-3.8712,-0.0387,-0.1329,-741.94,-953.25,-1125.31
15230,-3.8712,-0.0422,-0.1351,-945.07,-1000.12,-1500.31
15240,-3.8712,-0.0466,-0.1359,-1398.19,-1281.37,-1265.93
15250,-3.8712,-0.0474,-0.1368,-1960.69,-1375.12,-625.31
15260,-3.8712,-0.0435,-0.1406,1945.56,-1500.12,-187.81
15270,-3.8712,-0.0381,-0.1436,-1554.44,-1984.50,-234.68
15280,-3.8712,-0.0344,-0.1440,-866.94,1640.50,-859.68
15290,-3.8712,-0.0345,-0.1420,-398.19,1578.00,-1781.56
15300,-3.8712,-0.0387,-0.1395,-413.82,1843.63,1749.69
15310,-3.8712,-0.0441,-0.1370,-945.07,-1843.87,1984.07
15320,-3.8712,-0.0469,-0.1349,-1632.57,-1515.75,-1406.56
15330,-3.8712,-0.0471,-0.1340,-1991.94,-1250.12,-828.43
15340,-3.8712,-0.0481,-0.1337,1976.81,-1140.75,-625.31
15350,-3.8712,-0.0510,-0.1338,1851.81,-1093.87,-765.93
15360,-3.8712,-0.0527,-0.1344,1476.81,-1109.50,-969.06
15370,-3.8712,-0.0511,-0.1365,1258.06,-1187.62,-984.68
15380,-3.8712,-0.0460,-0.1395,1461.18,-1453.25,-750.31
15390,-3.8712,-0.0392,-0.1417,-1882.57,-1843.87,-687.81
15400,-3.8712,-0.0331,-0.1420,-1007.57,1874.88,-890.93
15410,-3.8712,-0.0306,-0.1394,-226.32,1843.63,-1109.68
15420,-3.8712,-0.0317,-0.1367,86.18,-1828.19,-1375.31
15430,-3.8712,-0.0343,-0.1354,-54.44,-1484.50,-1672.18
15440,-3.8712,-0.0366,-0.1343,-382.57,-1312.62,-1640.93
15450,-3.8712,-0.0385,-0.1334,-679.44,-1172.00,-1031.56
15460,-3.8712,-0.0391,-0.1338,-913.82,-1062.62,-172.18
15470,-3.8711,-0.0370,-0.1364,-991.94,-1109.50,468.44
15480,-3.8711,-0.0343,-0.1392,-726.32,-1437.62,640.32
15490,-3.8711,-0.0339,-0.1405,-382.57,-1797.00,124.69
15500,-3.8712,-0.0366,-0.1416,-335.69,-1968.87,-1031.56
15510,-3.8712,-0.0406,-0.1426,-679.44,1890.50,1749.69
15520,-3.8712,-0.0449,-0.1410,-1195.07,1765.50,1077.82
15530,-3.8712,-0.0491,-0.1376,-1741.94,1968.63,1249.69
15540,-3.8712,-0.0508,-0.1346,1726.81,-1593.87,1999.69
15550,-3.8712,-0.0479,-0.1340,1508.06,-1218.87,-1187.81
15560,-3.8712,-0.0411,-0.1345,1883.06,-1140.75,-344.06
15570,-3.8711,-0.0345,-0.1354,-1257.57,-1203.25,171.57
15580,-3.8712,-0.0309,-0.1381,-413.82,-1312.62,-15.93
15590,-3.8712,-0.0306,-0.1398,54.93,-1656.31,-578.43
15600,-3.8712,-0.0339,-0.1404,86.18,-1875.06,-1281.56
15610,-3.8712,-0.0391,-0.1412,-335.69,-1953.25,-1719.06
15620,-3.8712,-0.0447,-0.1409,-991.94,1937.38,-1687.81
15630,-3.8712,-0.0497,-0.1392,-1710.69,1984.25,-1453.43
15640,-3.8712,-0.0515,-0.1382,1648.68,-1797.00,-1187.81
15650,-3.8712,-0.0502,-0.1371,1414.31,-1672.00,-1031.56
15660,-3.8712,-0.0480,-0.1346,1586.18,-1531.37,-1062.81
15670,-3.8712,-0.0455,-0.1324,1867.43,-1218.87,-1031.56
15680,-3.8712,-0.0427,-0.1318,-1820.07,-937.62,-719.06
15690,-3.8712,-0.0402,-0.1340,-1460.69,-859.50,-390.93
15700,-3.8712,-0.0376,-0.1373,-1132.57,-1140.75,-453.43
15710,-3.8712,-0.0365,-0.1394,-804.44,-1562.62,-1125.31
15720,-3.8712,-0.0374,-0.1412,-663.82,-1828.25,-1984.68
15730,-3.8712,-0.0393,-0.1421,-773.19,1937.38,1640.32
15740,-3.8712,-0.0411,-0.1407,-1023.19,1828.00,-1828.43
15750,-3.8712,-0.0397,-0.1384,-1257.57,1999.88,-734.68
15760,-3.8711,-0.0345,-0.1377,-1070.07,-1703.25,296.57
15770,-3.8711,-0.0297,-0.1381,-413.82,-1609.50,655.94
15780,-3.8711,-0.0281,-0.1364,211.18,-1656.31,77.82
15790,-3.8712,-0.0305,-0.1327,414.31,-1437.56,-953.43
15800,-3.8712,-0.0352,-0.1307,101.81,-968.81,-1422.18
15810,-3.8712,-0.0378,-0.1334,-491.94,-718.87,-1156.56
15820,-3.8712,-0.0374,-0.1394,-835.69,-1062.62,-828.43
15830,-3.8712,-0.0363,-0.1436,-773.19,-1828.25,-1062.81
15840,-3.8712,-0.0372,-0.1453,-632.57,1640.50,-1687.81
15850,-3.8712,-0.0424,-0.1453,-757.57,1421.75,1921.57
15860,-3.8712,-0.0507,-0.1429,-1413.82,1421.75,-1937.81
15870,-3.8712,-0.0582,-0.1393,1523.68,1718.63,-1547.18
15880,-3.8712,-0.0602,-0.1346,554.93,-1812.62,-1078.43
15890,-3.8712,-0.0559,-0.1326,304.93,-1218.87,-547.18
15900,-3.8712,-0.0471,-0.1340,851.81,-953.25,-156.56
15910,-3.8712,-0.0381,-0.1361,1976.81,-1140.75,-234.68
15920,-3.8712,-0.0337,-0.1375,-866.94,-1406.37,-1000.31
15930,-3.8712,-0.0339,-0.1371,-304.44,-1578.25,-1937.81
15940,-3.8712,-0.0376,-0.1367,-335.69,-1531.37,1827.82
15950,-3.8712,-0.0419,-0.1390,-804.44,-1484.50,-1578.43
15960,-3.8712,-0.0421,-0.1420,-1351.32,-1781.37,-890.93
15970,-3.8712,-0.0389,-0.1429,-1382.57,1843.63,-969.06
15980,-3.8712,-0.0363,-0.1406,-976.32,1718.63,-1469.06
15990,-3.8712,-0.0358,-0.1367,-632.57,-1984.50,-1765.93
16000,-3.8712,-0.0377,-0.1349,-570.07,-1484.50,-1484.68
16010,-3.8712,-0.0400,-0.1365,-820.07,-1250.12,-625.31
16020,-3.8711,-0.0398,-0.1381,-1116.94,-1453.25,62.19
16030,-3.8711,-0.0369,-0.1379,-1085.69,-1656.37,109.07
16040,-3.8712,-0.0333,-0.1373,-710.69,-1640.75,-203.43
16050,-3.8712,-0.0325,-0.1368,-257.57,-1562.62,-406.56
16060,-3.8712,-0.0354,-0.1366,-148.19,-1500.12,-609.68
16070,-3.8712,-0.0404,-0.1366,-523.19,-1468.87,-1172.18
16080,-3.8712,-0.0455,-0.1367,-1163.82,-1468.87,-1875.31
16090,-3.8712,-0.0488,-0.1373,-1820.07,-1484.50,1734.07
16100,-3.8712,-0.0494,-0.1377,1758.06,-1562.62,1702.82
16110,-3.8712,-0.0474,-0.1376,1679.93,-1609.50,1984.07
16120,-3.8712,-0.0439,-0.1381,1945.56,-1593.87,-1328.43
16130,-3.8712,-0.0408,-0.1390,-1616.94,-1656.37,-406.56
16140,-3.8711,-0.0375,-0.1404,-1210.69,-1781.37,140.32
16150,-3.8711,-0.0334,-0.1415,-788.82,-1953.25,62.19
16160,-3.8712,-0.0315,-0.1412,-273.19,1906.13,-437.81
16170,-3.8712,-0.0330,-0.1416,-23.19,1937.38,-984.68
16180,-3.8712,-0.0367,-0.1415,-210.69,1890.50,-1390.93
16190,-3.8712,-0.0417,-0.1401,-695.07,1906.13,-1719.06
16200,-3.8712,-0.0469,-0.1394,-1335.69,-1922.00,-1797.18
16210,-3.8712,-0.0514,-0.1389,-1991.94,-1828.25,-1687.81
16220,-3.8712,-0.0546,-0.1378,1429.93,-1765.75,-1703.43
16230,-3.8712,-0.0569,-0.1362,1023.68,-1625.12,-1937.81
16240,-3.8712,-0.0573,-0.1355,726.81,-1422.00,1796.57
16250,-3.8712,-0.0535,-0.1366,679.93,-1328.25,1937.19
16260,-3.8712,-0.0469,-0.1370,1164.31,-1468.87,-1265.93
16270,-3.8712,-0.0396,-0.1370,-1991.94,-1515.75,-297.18
16280,-3.8711,-0.0321,-0.1378,-1054.44,-1515.75,265.32
16290,-3.8711,-0.0272,-0.1382,-101.32,-1625.12,155.94
16300,-3.8712,-0.0284,-0.1387,523.68,-1671.94,-422.18
16310,-3.8712,-0.0333,-0.1400,367.43,-1734.44,-1015.93
16320,-3.8712,-0.0364,-0.1417,-257.57,-1906.37,-1281.56
16330,-3.8712,-0.0370,-0.1426,-648.19,1874.88,-1172.18
16340,-3.8712,-0.0367,-0.1423,-726.32,1765.50,-890.93
16350,-3.8712,-0.0369,-0.1396,-695.07,1796.75,-594.06
16360,-3.8712,-0.0387,-0.1357,-710.69,-1859.50,-515.93
16370,-3.8712,-0.0417,-0.1333,-945.07,-1359.50,-531.56
16380,-3.8712,-0.0430,-0.1326,-1335.69,-1047.00,-797.18
16390,-3.8712,-0.0419,-0.1332,-1491.94,-953.25,-1344.06
16400,-3.8712,-0.0396,-0.1354,-1351.32,-1031.37,-1656.56
16410,-3.8712,-0.0372,-0.1373,-1054.44,-1312.62,-1562.81
16420,-3.8712,-0.0363,-0.1388,-757.57,-1562.62,-1031.56
16430,-3.8712,-0.0383,-0.1412,-632.57,-1750.12,-312.81
16440,-3.8711,-0.0427,-0.1448,-898.19,1937.38,30.94
16450,-3.8712,-0.0461,-0.1466,-1460.69,1484.25,-375.31
16460,-3.8712,-0.0469,-0.1447,-1898.19,1249.88,-1281.56
16470,-3.8712,-0.0458,-0.1399,-1991.94,1499.88,-1969.06
16480,-3.8712,-0.0454,-0.1367,-1851.32,-1890.75,1921.57
16490,-3.8712,-0.0448,-0.1372,-1804.44,-1484.50,-1875.31
16500,-3.8712,-0.0419,-0.1383,-1726.32,-1547.00,-1594.06
16510,-3.8712,-0.0381,-0.1384,-1351.32,-1687.62,-1328.43
16520,-3.8712,-0.0375,-0.1378,-866.94,-1703.25,-969.06
16530,-3.8712,-0.0416,-0.1378,-788.82,-1625.12,-594.06
16540,-3.8712,-0.0482,-0.1394,-1320.07,-1625.12,-578.43
16550,-3.8712,-0.0541,-0.1410,1836.18,-1828.25,-906.56
16560,-3.8712,-0.0551,-0.1407,1086.18,1968.63,-1297.18
16570,-3.8712,-0.0513,-0.1394,961.18,1999.88,-1578.43
16580,-3.8712,-0.0457,-0.1392,1445.56,-1828.25,-1875.31
16590,-3.8712,-0.0406,-0.1392,-1835.69,-1797.00,1859.07
16600,-3.8712,-0.0393,-0.1373,-1195.07,-1797.00,1905.94
16610,-3.8712,-0.0408,-0.1355,-1023.19,-1562.62,-1484.68
16620,-3.8712,-0.0410,-0.1367,-1210.69,-1328.25,-390.93
16630,-3.8711,-0.0370,-0.1395,-1241.94,-1484.50,609.07
16640,-3.8711,-0.0295,-0.1418,-726.32,-1843.87,874.69
16650,-3.8711,-0.0231,-0.1420,226.81,1859.31,312.19
16660,-3.8712,-0.0234,-0.1390,1054.93,1843.69,-640.93
16670,-3.8712,-0.0308,-0.1364,1008.06,-1781.31,-1297.18
16680,-3.8712,-0.0380,-0.1354,70.56,-1437.56,-1390.93
16690,-3.8712,-0.0413,-0.1355,-851.32,-1312.62,-1234.68
16700,-3.8712,-0.0410,-0.1364,-1273.19,-1328.25,-1094.06
16710,-3.8712,-0.0399,-0.1379,-1241.94,-1437.62,-1234.68
16720,-3.8712,-0.0396,-0.1410,-1101.32,-1640.75,-1609.68
16730,-3.8712,-0.0402,-0.1443,-1054.44,1968.63,-1781.56
16740,-3.8712,-0.0415,-0.1445,-1132.57,1546.75,-1359.68
16750,-3.8712,-0.0431,-0.1415,-1304.44,1515.50,-515.93
16760,-3.8712,-0.0436,-0.1375,-1507.57,1906.13,-125.31
16770,-3.8712,-0.0438,-0.1337,-1570.07,-1578.25,-453.43
16780,-3.8712,-0.0458,-0.1313,-1601.32,-1093.87,-1000.31
16790,-3.8712,-0.0480,-0.1315,-1851.32,-797.00,-1281.56
16800,-3.8712,-0.0486,-0.1331,1867.43,-812.62,-1328.43
16810,-3.8712,-0.0471,-0.1377,1789.31,-1015.75,-1437.81
16820,-3.8712,-0.0437,-0.1431,1976.81,-1609.50,-1547.18
16830,-3.8712,-0.0403,-0.1454,-1585.69,1703.00,-1562.81
16840,-3.8712,-0.0375,-0.1465,-1148.19,1406.13,-1515.93
16850,-3.8712,-0.0355,-0.1483,-788.82,1265.50,-1328.43
16860,-3.8712,-0.0358,-0.1481,-538.82,1031.13,-1234.68
16870,-3.8712,-0.0375,-0.1454,-570.07,1062.38,-1250.31
16880,-3.8712,-0.0391,-0.1409,-788.82,1406.13,-1140.93
16890,-3.8712,-0.0420,-0.1364,-991.94,1984.25,-1015.93
16900,-3.8712,-0.0458,-0.1333,-1366.94,-1437.62,-906.56
16910,-3.8712,-0.0472,-0.1328,-1851.32,-1047.00,-765.93
16920,-3.8712,-0.0468,-0.1349,1961.18,-984.50,-703.43
16930,-3.8712,-0.0465,-0.1372,-1976.32,-1250.12,-969.06
16940,-3.8712,-0.0475,-0.1390,-1945.07,-1547.00,-1578.43
16950,-3.8712,-0.0497,-0.1407,1929.93,-1781.37,1812.19
16960,-3.8712,-0.0519,-0.1421,1648.68,1999.88,1609.07
16970,-3.8712,-0.0518,-0.1422,1367.43,1828.00,1890.32
16980,-3.8712,-0.0491,-0.1383,1383.06,1812.38,-1390.93
16990,-3.8712,-0.0448,-0.1348,1726.81,-1687.62,-250.31
17000,-3.8711,-0.0404,-0.1348,-1726.32,-1234.50,984.07
17010,-3.8711,-0.0361,-0.1359,-1163.82,-1234.50,1530.94
17020,-3.8711,-0.0325,-0.1370,-616.94,-1375.12,1124.69
17030,-3.8711,-0.0305,-0.1365,-148.19,-1515.75,93.44
17040,-3.8712,-0.0298,-0.1351,101.81,-1453.19,-1390.93
17050,-3.8712,-0.0302,-0.1357,195.56,-1281.31,1452.82
17060,-3.8712,-0.0328,-0.1384,148.68,-1359.44,1187.19
17070,-3.8712,-0.0387,-0.1416,-195.07,-1703.25,1530.94
17080,-3.8712,-0.0450,-0.1437,-945.07,1890.50,-1984.68
17090,-3.8712,-0.0504,-0.1432,-1757.57,1624.88,-1547.18
17100,-3.8712,-0.0541,-0.1403,1554.93,1687.38,-937.81
17110,-3.8712,-0.0538,-0.1362,1086.18,-1937.62,-219.06
17120,-3.8711,-0.0505,-0.1348,1117.43,-1422.00,390.32
17130,-3.8711,-0.0454,-0.1370,1539.31,-1234.50,530.94
17140,-3.8712,-0.0396,-0.1392,-1804.44,-1515.75,-62.81
17150,-3.8712,-0.0361,-0.1404,-1054.44,-1797.00,-1109.68
17160,-3.8712,-0.0354,-0.1418,-616.94,-1953.25,1859.07
17170,-3.8712,-0.0371,-0.1420,-523.19,1859.25,1140.32
17180,-3.8712,-0.0405,-0.1414,-741.94,1843.63,1312.19
17190,-3.8712,-0.0432,-0.1406,-1179.44,1921.75,-1562.81
17200,-3.8712,-0.0425,-0.1393,-1523.19,-1984.50,-359.68
17210,-3.8711,-0.0411,-0.1383,-1429.44,-1812.62,109.07
17220,-3.8712,-0.0426,-0.1383,-1257.57,-1687.62,-172.18
17230,-3.8712,-0.0453,-0.1394,-1445.07,-1687.62,-797.18
17240,-3.8712,-0.0480,-0.1404,-1788.82,-1828.25,-1484.68
17250,-3.8712,-0.0500,-0.1415,1867.43,-1953.25,1968.44
17260,-3.8712,-0.0507,-0.1411,1601.81,1906.13,1734.07
17270,-3.8712,-0.0499,-0.1388,1523.68,1953.00,1718.44
17280,-3.8712,-0.0490,-0.1366,1617.43,-1750.12,1890.32
17290,-3.8712,-0.0482,-0.1353,1742.43,-1468.87,-1594.06
17300,-3.8712,-0.0475,-0.1353,1836.18,-1297.00,-750.31
17310,-3.8712,-0.0426,-0.1371,1929.93,-1297.00,-0.31
17320,-3.8711,-0.0320,-0.1396,-1445.07,-1531.37,499.69
17330,-3.8711,-0.0203,-0.1418,-85.69,-1859.50,718.44
17340,-3.8711,-0.0133,-0.1428,1414.31,1859.31,640.32
17350,-3.8711,-0.0148,-0.1412,-1695.07,1734.31,234.07
17360,-3.8712,-0.0237,-0.1384,-1882.57,1937.44,-515.93
17370,-3.8712,-0.0360,-0.1359,976.81,-1703.19,-1390.93
17380,-3.8712,-0.0471,-0.1350,-601.32,-1375.12,1796.57
17390,-3.8712,-0.0526,-0.1351,1976.81,-1265.75,1390.32
17400,-3.8712,-0.0536,-0.1357,1273.68,-1281.37,1562.19
17410,-3.8712,-0.0527,-0.1382,1148.68,-1359.50,-1797.18
17420,-3.8712,-0.0504,-0.1400,1258.06,-1672.00,-984.68
17430,-3.8712,-0.0481,-0.1415,1554.93,-1906.37,-312.81
17440,-3.8711,-0.0469,-0.1426,1851.81,1906.13,46.57
17450,-3.8712,-0.0463,-0.1427,-1991.94,1765.50,-125.31
17460,-3.8712,-0.0442,-0.1422,-1913.82,1749.88,-578.43
17470,-3.8712,-0.0400,-0.1409,-1648.19,1812.38,-1156.56
17480,-3.8712,-0.0376,-0.1396,-1116.94,1984.25,-1781.56
17490,-3.8712,-0.0397,-0.1388,-804.44,-1859.50,-1984.68
17500,-3.8712,-0.0458,-0.1377,-1070.07,-1750.12,-1781.56
17510,-3.8712,-0.0526,-0.1362,-1851.32,-1609.50,-1500.31
17520,-3.8712,-0.0562,-0.1351,1273.68,-1422.00,-1265.93
17530,-3.8712,-0.0533,-0.1362,820.56,-1281.37,-1094.06
17540,-3.8712,-0.0455,-0.1395,1179.93,-1422.00,-890.93
17550,-3.8712,-0.0382,-0.1434,-1820.07,-1843.87,-875.31
17560,-3.8712,-0.0358,-0.1456,-882.57,1656.13,-1140.93
17570,-3.8712,-0.0382,-0.1451,-570.07,1374.88,-1437.81
17580,-3.8712,-0.0424,-0.1436,-882.57,1437.38,-1500.31
17590,-3.8712,-0.0454,-0.1427,-1413.82,1640.50,-1265.93
17600,-3.8712,-0.0447,-0.1405,-1804.44,1749.88,-953.43
17610,-3.8712,-0.0406,-0.1355,-1710.69,-1968.87,-656.56
17620,-3.8712,-0.0354,-0.1310,-1195.07,-1328.25,-297.18
17630,-3.8711,-0.0322,-0.1301,-523.19,-750.12,15.32
17640,-3.8712,-0.0332,-0.1328,-116.94,-640.75,-125.31
17650,-3.8712,-0.0371,-0.1368,-241.94,-984.50,-844.06
17660,-3.8712,-0.0420,-0.1396,-741.94,-1500.12,-1734.68
17670,-3.8712,-0.0476,-0.1410,-1366.94,-1859.50,1718.44
17680,-3.8712,-0.0513,-0.1416,1914.31,1968.63,1812.19
17690,-3.8712,-0.0507,-0.1423,1445.56,1890.50,-1484.68
17700,-3.8712,-0.0464,-0.1423,1523.68,1796.75,-609.68
17710,-3.8712,-0.0415,-0.1418,-1929.44,1796.75,-140.93
17720,-3.8712,-0.0398,-0.1423,-1304.44,1859.25,-484.68
17730,-3.8712,-0.0419,-0.1437,-1085.69,1796.75,-1297.18
17740,-3.8712,-0.0452,-0.1448,-1351.32,1624.88,-1922.18
17750,-3.8712,-0.0457,-0.1426,-1773.19,1484.25,1968.44
17760,-3.8712,-0.0428,-0.1389,-1835.69,1765.50,-1672.18
17770,-3.8712,-0.0387,-0.1373,-1476.32,-1765.75,-1031.56
17780,-3.8712,-0.0358,-0.1365,-945.07,-1562.62,-515.93
17790,-3.8712,-0.0338,-0.1357,-570.07,-1453.25,-453.43
17800,-3.8712,-0.0334,-0.1360,-320.07,-1359.50,-703.43
17810,-3.8712,-0.0364,-0.1377,-273.19,-1390.75,-953.43
17820,-3.8712,-0.0411,-0.1406,-648.19,-1609.50,-1000.31
17830,-3.8712,-0.0457,-0.1432,-1257.57,-1984.50,-937.81
17840,-3.8712,-0.0485,-0.1447,-1835.69,1687.38,-984.68
17850,-3.8712,-0.0494,-0.1436,1804.93,1499.88,-1297.18
17860,-3.8712,-0.0494,-0.1414,1679.93,1640.50,-1562.81
17870,-3.8712,-0.0482,-0.1403,1679.93,1921.75,-1469.06
17880,-3.8712,-0.0450,-0.1401,1836.18,-1937.62,-1312.81
17890,-3.8712,-0.0427,-0.1398,-1757.57,-1922.00,-1406.56
17900,-3.8712,-0.0431,-0.1385,-1460.69,-1875.12,-1562.81
17910,-3.8712,-0.0464,-0.1375,-1507.57,-1718.87,-1703.43
17920,-3.8712,-0.0511,-0.1360,-1929.44,-1578.25,-1859.68
17930,-3.8712,-0.0531,-0.1354,1461.18,-1390.75,-1578.43
17940,-3.8712,-0.0490,-0.1370,1211.18,-1312.62,-672.18
17950,-3.8711,-0.0403,-0.1395,1742.43,-1515.75,171.57
17960,-3.8711,-0.0300,-0.1426,-1148.19,-1843.87,296.57
17970,-3.8712,-0.0236,-0.1445,164.31,1765.56,-219.06
17980,-3.8712,-0.0259,-0.1443,992.43,1515.56,-1062.81
17990,-3.8712,-0.0349,-0.1429,695.56,1546.81,-1797.18
18000,-3.8712,-0.0439,-0.1415,-460.69,1718.63,1999.69
18010,-3.8712,-0.0497,-0.1404,-1616.94,1906.13,-1828.43
18020,-3.8712,-0.0519,-0.1388,1648.68,-1953.25,-1609.68
18030,-3.8712,-0.0509,-0.1378,1367.43,-1750.12,-1250.31
18040,-3.8712,-0.0500,-0.1370,1492.43,-1625.12,-765.93
18050,-3.8712,-0.0516,-0.1371,1601.81,-1515.75,-594.06
18060,-3.8712,-0.0526,-0.1398,1398.68,-1531.37,-828.43
18070,-3.8712,-0.0513,-0.1426,1273.68,-1875.12,-1312.81
18080,-3.8712,-0.0483,-0.1436,1445.56,1765.50,-1922.18
18090,-3.8712,-0.0443,-0.1421,1820.56,1640.50,1640.32
18100,-3.8712,-0.0414,-0.1395,-1663.82,1828.00,1780.94
18110,-3.8712,-0.0389,-0.1381,-1288.82,-1843.87,-1406.56
18120,-3.8712,-0.0350,-0.1373,-976.32,-1656.37,-359.68
18130,-3.8711,-0.0289,-0.1370,-476.32,-1562.62,359.07
18140,-3.8711,-0.0244,-0.1373,304.93,-1515.69,468.44
18150,-3.8712,-0.0261,-0.1379,883.06,-1562.56,-0.31
18160,-3.8712,-0.0331,-0.1392,664.31,-1640.69,-765.93
18170,-3.8712,-0.0422,-0.1399,-226.32,-1797.00,-1594.06
18180,-3.8712,-0.0510,-0.1393,-1398.19,-1890.75,1984.07
18190,-3.8712,-0.0560,-0.1393,1476.81,-1812.62,-1797.18
18200,-3.8712,-0.0547,-0.1398,836.18,-1812.62,-1312.81
18210,-3.8712,-0.0481,-0.1398,1008.06,-1875.12,-1031.56
18220,-3.8712,-0.0413,-0.1393,1851.81,-1875.12,-1078.43
18230,-3.8712,-0.0393,-0.1396,-1273.19,-1812.62,-1219.06
18240,-3.8712,-0.0421,-0.1404,-1023.19,-1859.50,-1328.43
18250,-3.8712,-0.0466,-0.1404,-1382.57,-1953.25,-1453.43
18260,-3.8712,-0.0485,-0.1389,-1960.69,-1953.25,-1187.81
18270,-3.8712,-0.0463,-0.1362,1804.93,-1765.75,-594.06
18280,-3.8712,-0.0413,-0.1353,-1913.82,-1422.00,-140.93
18290,-3.8712,-0.0352,-0.1362,-1273.19,-1297.00,-187.81
18300,-3.8712,-0.0317,-0.1376,-491.94,-1422.00,-828.43
18310,-3.8712,-0.0333,-0.1379,-54.44,-1593.87,-1547.18
18320,-3.8712,-0.0394,-0.1385,-257.57,-1640.75,-1890.93
18330,-3.8712,-0.0464,-0.1407,-1038.82,-1718.87,-1734.68
18340,-3.8712,-0.0497,-0.1426,-1929.44,1999.88,-1250.31
18350,-3.8712,-0.0480,-0.1426,1648.68,1765.50,-812.81
18360,-3.8712,-0.0443,-0.1412,1867.43,1765.50,-531.56
18370,-3.8712,-0.0431,-0.1394,-1663.82,1937.38,-500.31
18380,-3.8712,-0.0442,-0.1390,-1507.57,-1828.25,-672.18
18390,-3.8712,-0.0446,-0.1394,-1648.19,-1781.37,-1015.93
18400,-3.8712,-0.0436,-0.1384,-1695.07,-1828.25,-1547.18
18410,-3.8712,-0.0417,-0.1368,-1570.07,-1703.25,-1969.06
18420,-3.8712,-0.0411,-0.1366,-1335.69,-1500.12,-1875.31
18430,-3.8712,-0.0422,-0.1373,-1257.57,-1468.87,-1406.56
18440,-3.8712,-0.0427,-0.1377,-1398.19,-1562.62,-953.43
18450,-3.8712,-0.0416,-0.1371,-1460.69,-1609.50,-640.93
18460,-3.8712,-0.0403,-0.1365,-1320.07,-1531.37,-453.43
18470,-3.8712,-0.0408,-0.1377,-1148.19,-1453.25,-437.81
18480,-3.8712,-0.0421,-0.1403,-1210.69,-1609.50,-484.68
18490,-3.8712,-0.0416,-0.1422,-1382.57,-1937.62,-578.43
18500,-3.8712,-0.0406,-0.1437,-1320.07,1812.38,-859.68
18510,-3.8712,-0.0404,-0.1447,-1195.07,1624.88,-1359.68
18520,-3.8712,-0.0411,-0.1437,-1163.82,1499.88,-1922.18
18530,-3.8712,-0.0443,-0.1407,-1257.57,1624.88,1702.82
18540,-3.8712,-0.0493,-0.1375,-1663.82,1999.88,1749.69
18550,-3.8712,-0.0533,-0.1351,1695.56,-1578.25,-1797.18
18560,-3.8712,-0.0536,-0.1343,1179.93,-1281.37,-1109.68
18570,-3.8712,-0.0498,-0.1351,1148.68,-1172.00,-640.93
18580,-3.8712,-0.0436,-0.1367,1633.06,-1281.37,-500.31
18590,-3.8712,-0.0383,-0.1390,-1570.07,-1484.50,-609.68
18600,-3.8712,-0.0367,-0.1417,-898.19,-1781.37,-828.43
18610,-3.8712,-0.0371,-0.1433,-695.07,1874.88,-1015.93
18620,-3.8712,-0.0374,-0.1438,-741.94,1671.75,-1140.93
18630,-3.8712,-0.0377,-0.1431,-773.19,1609.25,-1219.06
18640,-3.8712,-0.0391,-0.1414,-820.07,1703.00,-1156.56
18650,-3.8712,-0.0402,-0.1395,-991.94,1921.75,-969.06
18660,-3.8712,-0.0409,-0.1385,-1132.57,-1843.87,-781.56
18670,-3.8712,-0.0425,-0.1383,-1226.32,-1718.87,-734.68
18680,-3.8712,-0.0453,-0.1384,-1429.44,-1687.62,-797.18
18690,-3.8712,-0.0479,-0.1379,-1788.82,-1703.25,-875.31
18700,-3.8712,-0.0488,-0.1381,1883.06,-1640.75,-1062.81
18710,-3.8712,-0.0482,-0.1389,1758.06,-1656.37,-1422.18
18720,-3.8712,-0.0459,-0.1390,1836.18,-1765.75,-1719.06
18730,-3.8712,-0.0437,-0.1390,-1866.94,-1781.37,-1640.93
18740,-3.8712,-0.0435,-0.1387,-1585.69,-1781.37,-1219.06
18750,-3.8712,-0.0449,-0.1393,-1554.44,-1734.50,-672.18
18760,-3.8712,-0.0452,-0.1411,-1741.94,-1812.62,-406.56
18770,-3.8712,-0.0439,-0.1429,-1773.19,1953.00,-703.43
18780,-3.8712,-0.0439,-0.1431,-1616.94,1718.63,-1390.93
18790,-3.8712,-0.0466,-0.1406,-1616.94,1703.00,1952.82
18800,-3.8712,-0.0490,-0.1389,-1960.69,-1984.50,1859.07
18810,-3.8712,-0.0470,-0.1383,1742.43,-1765.75,-1562.81
18820,-3.8712,-0.0403,-0.1371,1992.43,-1687.62,-734.68
18830,-3.8712,-0.0337,-0.1370,-1148.19,-1531.37,-172.18
18840,-3.8712,-0.0314,-0.1383,-304.44,-1515.75,-172.18
18850,-3.8712,-0.0341,-0.1392,-7.57,-1687.62,-703.43
18860,-3.8712,-0.0396,-0.1390,-351.32,-1797.00,-1265.93
18870,-3.8712,-0.0441,-0.1387,-1054.44,-1781.37,-1390.93
18880,-3.8712,-0.0460,-0.1382,-1632.57,-1734.50,-1094.06
18890,-3.8712,-0.0459,-0.1372,-1882.57,-1672.00,-719.06
18900,-3.8712,-0.0441,-0.1372,-1866.94,-1547.00,-656.56
18910,-3.8712,-0.0415,-0.1387,-1632.57,-1547.00,-797.18
18920,-3.8712,-0.0394,-0.1398,-1304.44,-1734.50,-859.68
18930,-3.8712,-0.0382,-0.1399,-1038.82,-1875.12,-969.06
18940,-3.8712,-0.0382,-0.1404,-882.57,-1890.75,-1265.93
18950,-3.8712,-0.0388,-0.1409,-882.57,-1953.25,-1453.43
18960,-3.8712,-0.0382,-0.1393,-960.69,1984.25,-1250.31
18970,-3.8712,-0.0370,-0.1376,-882.57,-1812.62,-719.06
18980,-3.8712,-0.0365,-0.1370,-726.32,-1593.87,-203.43
18990,-3.8712,-0.0377,-0.1372,-663.82,-1515.75,-109.68
19000,-3.8712,-0.0402,-0.1384,-820.07,-1547.00,-406.56
19010,-3.8712,-0.0430,-0.1403,-1132.57,-1703.25,-969.06
19020,-3.8712,-0.0463,-0.1409,-1491.94,-1937.62,-1672.18
19030,-3.8712,-0.0500,-0.1403,-1913.82,1984.25,1702.82
19040,-3.8712,-0.0536,-0.1395,1601.81,-1937.62,1452.82
19050,-3.8712,-0.0557,-0.1383,1148.68,-1843.87,1921.57
19060,-3.8712,-0.0548,-0.1382,883.06,-1687.62,-1047.18
19070,-3.8712,-0.0514,-0.1389,992.43,-1672.00,-234.68
19080,-3.8712,-0.0455,-0.1394,1429.93,-1765.75,-94.06
19090,-3.8712,-0.0398,-0.1401,-1820.07,-1828.25,-640.93
19100,-3.8712,-0.0376,-0.1403,-1085.69,-1922.00,-1265.93
19110,-3.8712,-0.0377,-0.1398,-804.44,-1937.62,-1640.93
19120,-3.8712,-0.0378,-0.1395,-820.07,-1875.12,-1687.81
19130,-3.8712,-0.0385,-0.1393,-835.69,-1843.87,-1281.56
19140,-3.8712,-0.0404,-0.1394,-913.82,-1812.62,-734.68
19150,-3.8712,-0.0435,-0.1398,-1163.82,-1828.25,-297.18
19160,-3.8712,-0.0468,-0.1404,-1554.44,-1875.12,-172.18
19170,-3.8712,-0.0491,-0.1405,-1976.32,-1953.25,-500.31
19180,-3.8712,-0.0492,-0.1406,1726.81,-1968.87,-1031.56
19190,-3.8712,-0.0482,-0.1411,1711.18,-1984.50,-1562.81
19200,-3.8712,-0.0475,-0.1409,1836.18,1953.00,1968.44
19210,-3.8712,-0.0471,-0.1387,1929.93,1984.25,1671.57
19220,-3.8712,-0.0469,-0.1361,1976.81,-1734.50,1812.19
19230,-3.8712,-0.0457,-0.1356,-1991.94,-1406.37,-1422.18
19240,-3.8712,-0.0435,-0.1381,-1835.69,-1343.87,-390.93
19250,-3.8711,-0.0404,-0.1414,-1554.44,-1656.37,155.94
19260,-3.8712,-0.0370,-0.1434,-1163.82,1921.75,-125.31
19270,-3.8712,-0.0356,-0.1431,-726.32,1656.13,-1094.06
19280,-3.8712,-0.0386,-0.1401,-554.44,1703.00,1984.07
19290,-3.8712,-0.0449,-0.1359,-929.44,-1922.00,1843.44
19300,-3.8712,-0.0503,-0.1338,-1741.94,-1375.12,-1422.18
19310,-3.8712,-0.0502,-0.1354,1570.56,-1109.50,-156.56
19320,-3.8711,-0.0460,-0.1381,1586.18,-1312.62,624.69
19330,-3.8711,-0.0417,-0.1406,-1882.57,-1656.37,171.57
19340,-3.8712,-0.0408,-0.1418,-1335.69,-1984.50,-1078.43
19350,-3.8712,-0.0432,-0.1407,-1210.69,1859.25,1859.07
19360,-3.8712,-0.0459,-0.1383,-1523.19,1999.88,1546.57
19370,-3.8712,-0.0469,-0.1356,-1866.94,-1687.62,-1984.68
19380,-3.8712,-0.0461,-0.1351,-1991.94,-1343.87,-1015.93
19390,-3.8712,-0.0442,-0.1371,-1898.19,-1281.37,-187.81
19400,-3.8712,-0.0421,-0.1396,-1648.19,-1531.37,-109.68
19410,-3.8712,-0.0408,-0.1423,-1382.57,-1859.50,-578.43
19420,-3.8712,-0.0386,-0.1448,-1210.69,1796.75,-1062.81
19430,-3.8712,-0.0352,-0.1455,-929.44,1484.25,-1328.43
19440,-3.8712,-0.0320,-0.1448,-491.94,1390.50,-1234.68
19450,-3.8712,-0.0303,-0.1429,-85.69,1484.25,-922.18
19460,-3.8712,-0.0310,-0.1401,133.06,1718.69,-812.81
19470,-3.8712,-0.0353,-0.1372,39.31,-1921.94,-1078.43
19480,-3.8712,-0.0435,-0.1365,-507.57,-1547.00,-1578.43
19490,-3.8712,-0.0511,-0.1371,-1554.44,-1453.25,1905.94
19500,-3.8712,-0.0538,-0.1375,1461.18,-1531.37,1812.19
19510,-3.8712,-0.0513,-0.1373,1117.43,-1578.25,-1703.43
19520,-3.8712,-0.0463,-0.1357,1445.56,-1562.62,-781.56
19530,-3.8711,-0.0422,-0.1345,-1913.82,-1359.50,77.82
19540,-3.8711,-0.0402,-0.1362,-1398.19,-1203.25,499.69
19550,-3.8711,-0.0386,-0.1404,-1132.57,-1422.00,327.82
19560,-3.8712,-0.0374,-0.1443,-929.44,-1953.25,-328.43
19570,-3.8712,-0.0378,-0.1455,-773.19,1546.75,-1172.18
19580,-3.8712,-0.0416,-0.1444,-835.69,1390.50,-1844.06
19590,-3.8712,-0.0488,-0.1428,-1320.07,1531.13,1812.19
19600,-3.8712,-0.0574,-0.1407,1758.06,1734.25,1734.07
19610,-3.8712,-0.0643,-0.1399,664.31,1999.88,1843.44
19620,-3.8712,-0.0668,-0.1411,-226.32,-1890.81,-1875.31
19630,-3.8712,-0.0620,-0.1433,-538.82,1952.94,-1656.56
19640,-3.8712,-0.0511,-0.1453,70.56,1671.75,-1578.43
19650,-3.8712,-0.0403,-0.1454,1461.18,1421.75,-1375.31
19660,-3.8712,-0.0342,-0.1434,-1148.19,1406.13,-1140.93
19670,-3.8712,-0.0333,-0.1405,-366.94,1656.13,-859.68
19680,-3.8712,-0.0361,-0.1384,-257.57,-1968.87,-484.68
19690,-3.8712,-0.0403,-0.1384,-616.94,-1703.25,-359.68
19700,-3.8712,-0.0432,-0.1398,-1148.19,-1703.25,-625.31
19710,-3.8712,-0.0437,-0.1410,-1523.19,-1875.12,-1000.31
19720,-3.8712,-0.0422,-0.1406,-1585.69,1968.63,-1297.18
19730,-3.8712,-0.0397,-0.1388,-1398.19,-1984.50,-1422.18
19740,-3.8712,-0.0377,-0.1368,-1070.07,-1750.12,-1422.18
19750,-3.8712,-0.0388,-0.1360,-820.07,-1500.12,-1390.93
19760,-3.8712,-0.0437,-0.1359,-960.69,-1390.75,-1172.18
19770,-3.8712,-0.0481,-0.1353,-1585.69,-1375.12,-890.93
19780,-3.8712,-0.0486,-0.1349,1851.81,-1297.00,-594.06
19790,-3.8712,-0.0461,-0.1349,1789.31,-1250.12,-156.56
19800,-3.8712,-0.0437,-0.1361,-1898.19,-1250.12,-0.31
19810,-3.8712,-0.0420,-0.1384,-1585.69,-1406.37,-234.68
19820,-3.8712,-0.0430,-0.1403,-1366.94,-1703.25,-640.93
19830,-3.8712,-0.0466,-0.1411,-1491.94,-1937.62,-1125.31
19840,-3.8712,-0.0487,-0.1428,-1960.69,1953.00,-1672.18
19850,-3.8712,-0.0470,-0.1464,1773.68,1734.25,1952.82
19860,-3.8712,-0.0422,-0.1482,1992.43,1281.13,1905.94
19870,-3.8712,-0.0372,-0.1466,-1398.19,1046.75,1984.07
19880,-3.8712,-0.0343,-0.1433,-757.57,1249.88,-1781.56
19890,-3.8712,-0.0328,-0.1403,-382.57,1671.75,-1390.93
19900,-3.8712,-0.0310,-0.1375,-195.07,-1937.62,-1219.06
19910,-3.8712,-0.0294,-0.1360,39.31,-1578.19,-1281.56
19920,-3.8712,-0.0312,-0.1360,242.43,-1390.69,-1109.68
19930,-3.8712,-0.0369,-0.1359,8.06,-1390.69,-594.06
19940,-3.8712,-0.0428,-0.1357,-710.69,-1375.12,-78.43
19950,-3.8711,-0.0466,-0.1359,-1476.32,-1359.50,312.19
19960,-3.8711,-0.0490,-0.1353,-1960.69,-1375.12,296.57
19970,-3.8712,-0.0499,-0.1350,1742.43,-1297.00,-265.93
19980,-3.8712,-0.0493,-0.1364,1617.43,-1265.75,-1078.43
19990,-3.8712,-0.0479,-0.1378,1695.56,-1437.62,-1906.56
20000,-3.8712,-0.0469,-0.1388,1883.06,-1625.12,1609.07
20010,-3.8712,-0.0480,-0.1393,-1991.94,-1750.12,1718.44
20020,-3.8712,-0.0488,-0.1401,1867.43,-1812.62,-1859.68
20030,-3.8712,-0.0465,-0.1417,1758.06,-1922.00,-1422.18
20040,-3.8712,-0.0431,-0.1445,-1945.07,1874.88,-984.68
20050,-3.8712,-0.0404,-0.1473,-1507.57,1515.50,-750.31
20060,-3.8712,-0.0400,-0.1484,-1163.82,1156.13,-922.18
20070,-3.8712,-0.0417,-0.1454,-1116.94,1015.50,-1203.43
20080,-3.8712,-0.0442,-0.1392,-1335.69,1406.13,-1187.81
20090,-3.8712,-0.0463,-0.1344,-1648.19,-1797.00,-906.56
20100,-3.8712,-0.0460,-0.1337,-1913.82,-1187.62,-672.18
20110,-3.8712,-0.0424,-0.1357,-1882.57,-1093.87,-687.81
20120,-3.8712,-0.0383,-0.1388,-1413.82,-1359.50,-875.31
20130,-3.8712,-0.0377,-0.1426,-898.19,-1750.12,-1250.31
20140,-3.8712,-0.0392,-0.1440,-820.07,1765.50,-1750.31
20150,-3.8712,-0.0399,-0.1415,-1007.57,1578.00,-1984.68
20160,-3.8712,-0.0389,-0.1366,-1101.32,1906.13,-1656.56
20170,-3.8712,-0.0355,-0.1318,-976.32,-1468.87,-890.93
20180,-3.8712,-0.0308,-0.1290,-538.82,-859.50,-125.31
20190,-3.8711,-0.0256,-0.1287,70.56,-500.06,421.57
20200,-3.8711,-0.0223,-0.1311,726.81,-453.19,671.57
20210,-3.8711,-0.0240,-0.1364,1148.68,-765.69,515.32
20220,-3.8712,-0.0323,-0.1420,929.93,-1437.56,-187.81
20230,-3.8712,-0.0453,-0.1464,-132.57,1843.63,-1390.93
20240,-3.8712,-0.0596,-0.1494,-1788.82,1281.13,1546.57
20250,-3.8712,-0.0719,-0.1500,383.06,890.50,1077.82
20260,-3.8712,-0.0774,-0.1483,-1195.07,812.32,1015.32
20270,-3.8712,-0.0746,-0.1445,-1898.19,1031.07,1234.07
20280,-3.8712,-0.0660,-0.1387,-1538.82,1515.44,1874.69
20290,-3.8712,-0.0540,-0.1333,-445.07,-1734.56,-1094.06
20300,-3.8712,-0.0416,-0.1295,1101.81,-1047.00,-15.93
20310,-3.8711,-0.0308,-0.1271,-1320.07,-562.62,655.94
20320,-3.8711,-0.0221,-0.1285,70.56,-250.06,734.07
20330,-3.8711,-0.0167,-0.1333,1179.93,-437.56,499.69
20340,-3.8712,-0.0166,-0.1371,1867.43,-1046.94,-15.93
20350,-3.8712,-0.0217,-0.1387,1883.06,-1531.31,-875.31
20360,-3.8712,-0.0298,-0.1394,1226.81,-1734.44,-1609.68
20370,-3.8712,-0.0381,-0.1409,195.56,-1828.19,-1890.93
20380,-3.8712,-0.0438,-0.1426,-866.94,1984.25,-1625.31
20390,-3.8712,-0.0444,-0.1425,-1601.32,1765.50,-1203.43
20400,-3.8712,-0.0415,-0.1416,-1679.44,1781.13,-984.68
20410,-3.8712,-0.0406,-0.1416,-1304.44,1890.50,-1062.81
20420,-3.8712,-0.0447,-0.1422,-1195.07,1890.50,-1265.93
20430,-3.8712,-0.0503,-0.1427,-1710.69,1812.38,-1531.56
20440,-3.8712,-0.0520,-0.1411,1570.56,1749.88,-1844.06
20450,-3.8712,-0.0485,-0.1377,1351.81,1953.00,-1984.68
20460,-3.8712,-0.0425,-0.1345,1804.93,-1609.50,-1765.93
20470,-3.8712,-0.0393,-0.1331,-1429.44,-1203.25,-1047.18
20480,-3.8712,-0.0398,-0.1335,-1023.19,-1015.75,-62.81
20490,-3.8711,-0.0409,-0.1344,-1085.69,-1078.25,671.57
20500,-3.8711,-0.0409,-0.1349,-1226.32,-1187.62,859.07
20510,-3.8711,-0.0405,-0.1368,-1226.32,-1250.12,312.19
20520,-3.8712,-0.0421,-0.1410,-1179.44,-1500.12,-953.43
20530,-3.8712,-0.0455,-0.1447,-1382.57,1968.63,1484.07
20540,-3.8712,-0.0493,-0.1450,-1820.07,1499.88,296.57
20550,-3.8712,-0.0527,-0.1417,1695.56,1453.00,30.94
20560,-3.8712,-0.0553,-0.1370,1258.06,1874.88,999.69
20570,-3.8712,-0.0554,-0.1329,929.93,-1515.75,-1281.56
20580,-3.8711,-0.0494,-0.1310,914.31,-1000.12,343.44
20590,-3.8711,-0.0380,-0.1309,1679.93,-750.12,1327.82
20600,-3.8711,-0.0251,-0.1317,-851.32,-734.50,1530.94
20610,-3.8711,-0.0186,-0.1335,789.31,-843.81,796.57
20620,-3.8712,-0.0236,-0.1372,1633.06,-1078.19,-515.93
20630,-3.8712,-0.0333,-0.1376,992.43,-1546.94,-1484.68
20640,-3.8712,-0.0409,-0.1383,-257.57,-1593.87,-1797.18
20650,-3.8712,-0.0453,-0.1425,-1226.32,-1687.62,-1578.43
20660,-3.8712,-0.0424,-0.1439,-1788.82,1781.13,-1406.56
20670,-3.8712,-0.0371,-0.1444,-1413.82,1593.63,-1734.68
20680,-3.8712,-0.0369,-0.1443,-741.94,1531.13,-1937.81
20690,-3.8712,-0.0428,-0.1403,-710.69,1546.75,-1547.18
20700,-3.8712,-0.0513,-0.1346,-1476.32,-1937.62,-687.81
20710,-3.8711,-0.0544,-0.1312,1445.56,-1218.87,171.57
20720,-3.8711,-0.0508,-0.1307,1039.31,-781.37,390.32
20730,-3.8712,-0.0464,-0.1324,1508.06,-718.87,-219.06
20740,-3.8712,-0.0453,-0.1354,-1929.44,-937.62,-1125.31
20750,-3.8712,-0.0474,-0.1377,-1788.82,-1312.62,-1906.56
20760,-3.8712,-0.0508,-0.1385,1945.56,-1609.50,1718.44
20770,-3.8712,-0.0535,-0.1385,1508.06,-1718.87,-1984.68
20780,-3.8712,-0.0521,-0.1403,1164.31,-1718.87,-1312.81
20790,-3.8712,-0.0458,-0.1438,1336.18,-1937.62,-906.56
20800,-3.8712,-0.0381,-0.1467,-1851.32,1609.25,-1172.18
20810,-3.8712,-0.0325,-0.1455,-866.94,1234.25,-1625.31
20820,-3.8712,-0.0303,-0.1383,-148.19,1390.50,-1578.43
20830,-3.8712,-0.0317,-0.1289,133.06,-1687.56,-1250.31
20840,-3.8712,-0.0367,-0.1338,-54.44,-484.50,-359.68
20850,-3.8711,-0.0405,-0.1412,-695.07,-1109.50,999.69
20860,-3.8711,-0.0413,-0.1378,-1179.44,1937.38,999.69
20870,-3.8712,-0.0410,-0.1346,-1273.19,-1625.12,-328.43
20880,-3.8712,-0.0404,-0.1323,-1241.94,-1218.87,-1531.56
20890,-3.8712,-0.0430,-0.1340,-1163.82,-922.00,1609.07
20900,-3.8712,-0.0457,-0.1373,-1491.94,-1140.75,1312.19
20910,-3.8712,-0.0460,-0.1416,-1835.69,-1562.62,1671.57
20920,-3.8712,-0.0454,-0.1448,-1882.57,1890.50,-1344.06
20930,-3.8712,-0.0436,-0.1442,-1804.44,1484.25,-422.18
20940,-3.8712,-0.0410,-0.1450,-1570.07,1562.38,-140.93
20950,-3.8712,-0.0378,-0.1445,-1241.94,1453.00,-140.93
20960,-3.8712,-0.0380,-0.1404,-835.69,1515.50,-562.81
20970,-3.8712,-0.0420,-0.1375,-851.32,-1953.25,-1297.18
20980,-3.8712,-0.0465,-0.1345,-1366.94,-1578.25,-1734.68
20990,-3.8712,-0.0477,-0.1310,-1945.07,-1203.25,-1719.06
21000,-3.8712,-0.0437,-0.1294,1898.68,-750.12,-1406.56
21010,-3.8712,-0.0387,-0.1305,-1585.69,-547.00,-922.18
21020,-3.8712,-0.0356,-0.1345,-945.07,-687.62,-359.68
21030,-3.8712,-0.0325,-0.1393,-554.44,-1203.25,-109.68
21040,-3.8712,-0.0305,-0.1437,-148.19,-1812.62,-453.43
21050,-3.8712,-0.0319,-0.1469,101.81,1624.94,-1281.56
21060,-3.8712,-0.0360,-0.1471,-70.07,1218.63,1671.57
21070,-3.8712,-0.0427,-0.1442,-601.32,1187.38,984.07
21080,-3.8712,-0.0493,-0.1407,-1460.69,1562.38,1343.44
21090,-3.8712,-0.0518,-0.1383,1695.56,1999.88,-1359.68
21100,-3.8711,-0.0527,-0.1379,1383.06,-1687.62,296.57
21110,-3.8711,-0.0554,-0.1389,1258.06,-1640.75,1359.07
21120,-3.8711,-0.0594,-0.1403,914.31,-1765.75,1093.44
21130,-3.8712,-0.0638,-0.1418,398.68,-1937.62,-234.68
21140,-3.8712,-0.0667,-0.1429,-163.82,1859.19,-1969.06
21150,-3.8712,-0.0654,-0.1445,-523.19,1718.57,640.32
21160,-3.8712,-0.0580,-0.1448,-366.94,1515.44,155.94
21170,-3.8712,-0.0443,-0.1412,586.18,1484.25,687.19
21180,-3.8712,-0.0287,-0.1351,-1663.82,1937.38,-1969.06
21190,-3.8712,-0.0184,-0.1300,336.18,-1281.31,-281.56
21200,-3.8711,-0.0171,-0.1299,1648.68,-625.06,1140.32
21210,-3.8711,-0.0253,-0.1351,1820.56,-609.44,1702.82
21220,-3.8711,-0.0386,-0.1410,773.68,-1281.31,1187.19
21230,-3.8711,-0.0494,-0.1455,-929.44,1968.63,30.94
21240,-3.8712,-0.0526,-0.1478,1679.93,1390.50,-1297.18
21250,-3.8712,-0.0511,-0.1475,1273.68,1093.63,1530.94
21260,-3.8712,-0.0521,-0.1451,1461.18,1140.50,749.69
21270,-3.8712,-0.0570,-0.1417,1336.18,1437.38,530.94
21280,-3.8712,-0.0634,-0.1381,711.18,1874.88,952.82
21290,-3.8712,-0.0648,-0.1340,-101.32,-1656.43,1827.82
21300,-3.8712,-0.0557,-0.1299,-288.82,-1140.81,-1203.43
21310,-3.8712,-0.0385,-0.1270,883.06,-609.50,-203.43
21320,-3.8711,-0.0205,-0.1266,-913.82,-234.50,843.44
21330,-3.8711,-0.0084,-0.1293,1383.06,-187.56,1749.69
21340,-3.8711,-0.0057,-0.1350,-1070.07,-531.31,-1953.43
21350,-3.8711,-0.0116,-0.1414,-726.32,-1265.69,1312.19
21360,-3.8712,-0.0233,-0.1461,-1476.32,1921.81,-328.43
21370,-3.8712,-0.0382,-0.1479,1023.68,1312.44,1718.44
21380,-3.8712,-0.0544,-0.1470,-882.57,1078.00,359.07
21390,-3.8712,-0.0686,-0.1447,1039.31,1203.00,280.94
21400,-3.8712,-0.0789,-0.1444,-773.19,1499.82,1218.44
21410,-3.8712,-0.0850,-0.1458,1914.31,1531.07,-1594.06
21420,-3.8712,-0.0850,-0.1456,1133.06,1359.19,-953.43
21430,-3.8712,-0.0779,-0.1454,1133.06,1374.82,-1219.06
21440,-3.8712,-0.0668,-0.1440,-1960.69,1406.07,-1953.43
21450,-3.8712,-0.0554,-0.1426,-538.82,1577.94,1359.07
21460,-3.8712,-0.0441,-0.1428,914.31,1765.50,1077.82
21470,-3.8712,-0.0315,-0.1417,-1632.57,1734.25,1530.94
21480,-3.8712,-0.0197,-0.1377,-23.19,1874.88,-1328.43
21490,-3.8712,-0.0126,-0.1322,1492.43,-1609.44,-15.93
21500,-3.8711,-0.0114,-0.1272,-1601.32,-906.31,749.69
21510,-3.8711,-0.0154,-0.1252,-1445.07,-265.69,734.07
21520,-3.8711,-0.0232,-0.1270,-1960.69,-15.69,421.57
21530,-3.8711,-0.0311,-0.1326,1039.31,-234.44,77.82
21540,-3.8712,-0.0356,-0.1414,23.68,-953.19,-359.68
21550,-3.8712,-0.0371,-0.1488,-554.44,1921.75,-859.68
21560,-3.8712,-0.0420,-0.1498,-741.94,968.63,-1281.56
21570,-3.8712,-0.0529,-0.1460,-1366.94,843.63,-1437.81
21580,-3.8712,-0.0649,-0.1438,1242.43,1328.00,-1390.93
21590,-3.8712,-0.0703,-0.1427,-304.44,1609.19,-1250.31
21600,-3.8712,-0.0654,-0.1390,-991.94,1749.82,-1375.31
21610,-3.8712,-0.0537,-0.1340,-366.94,-1781.43,-1890.93
21620,-3.8712,-0.0424,-0.1309,1133.06,-1140.75,1609.07
21630,-3.8712,-0.0369,-0.1305,-1413.82,-734.50,1562.19
21640,-3.8712,-0.0354,-0.1326,-710.69,-687.62,-1781.56
21650,-3.8712,-0.0328,-0.1348,-523.19,-953.25,-765.93
21660,-3.8711,-0.0288,-0.1354,-195.07,-1234.50,140.32
21670,-3.8711,-0.0278,-0.1365,320.56,-1312.56,421.57
21680,-3.8711,-0.0320,-0.1398,445.56,-1453.19,46.57
21690,-3.8712,-0.0383,-0.1433,-85.69,-1875.12,-672.18
21700,-3.8712,-0.0431,-0.1434,-898.19,1671.75,-1406.56
21710,-3.8712,-0.0437,-0.1404,-1507.57,1656.13,-1922.18
21720,-3.8712,-0.0404,-0.1372,-1585.69,-1953.25,-1984.68
21730,-3.8712,-0.0341,-0.1346,-1163.82,-1547.00,-1500.31
21740,-3.8712,-0.0265,-0.1320,-351.32,-1218.87,-719.06
21750,-3.8712,-0.0229,-0.1299,617.43,-875.06,-140.93
21760,-3.8711,-0.0271,-0.1289,1070.56,-609.44,30.94
21770,-3.8712,-0.0378,-0.1302,539.31,-484.44,-265.93
21780,-3.8712,-0.0516,-0.1339,-835.69,-656.37,-828.43
21790,-3.8712,-0.0621,-0.1382,1398.68,-1125.12,-1406.56
21800,-3.8712,-0.0651,-0.1431,54.93,-1672.00,-1765.93
21810,-3.8712,-0.0609,-0.1479,-320.07,1702.94,-1812.81
21820,-3.8712,-0.0525,-0.1500,211.18,1078.00,-1547.18
21830,-3.8712,-0.0444,-0.1489,1289.31,812.38,-1187.81
21840,-3.8712,-0.0393,-0.1467,-1679.44,953.00,-922.18
21850,-3.8712,-0.0374,-0.1437,-1023.19,1234.25,-890.93
21860,-3.8712,-0.0385,-0.1400,-773.19,1624.88,-1109.68
21870,-3.8712,-0.0422,-0.1348,-913.82,-1906.37,-1078.43
21880,-3.8712,-0.0465,-0.1313,-1398.19,-1234.50,-578.43
21890,-3.8712,-0.0476,-0.1334,-1945.07,-797.00,-31.56
21900,-3.8712,-0.0457,-0.1385,1914.31,-1062.62,-125.31
21910,-3.8712,-0.0433,-0.1437,-1835.69,-1718.87,-1015.93
21920,-3.8712,-0.0439,-0.1471,-1538.82,1624.88,1984.07
21930,-3.8712,-0.0480,-0.1479,-1616.94,1187.38,1327.82
21940,-3.8712,-0.0516,-0.1456,1867.43,1078.00,1124.69
21950,-3.8712,-0.0538,-0.1418,1398.68,1374.88,1499.69
21960,-3.8712,-0.0541,-0.1381,1117.43,1859.25,-1547.18
21970,-3.8712,-0.0503,-0.1355,1086.18,-1656.37,-312.81
21980,-3.8711,-0.0458,-0.1353,1570.56,-1328.25,343.44
21990,-3.8712,-0.0450,-0.1370,-1851.32,-1297.00,-15.93
22000,-3.8712,-0.0476,-0.1390,-1757.57,-1515.75,-984.68
22010,-3.8712,-0.0520,-0.1392,1914.31,-1781.37,1999.69
22020,-3.8712,-0.0544,-0.1372,1351.81,-1797.00,1499.69
22030,-3.8712,-0.0521,-0.1339,1039.31,-1547.00,1749.69
22040,-3.8712,-0.0477,-0.1293,1336.18,-1125.12,-1453.43
22050,-3.8712,-0.0426,-0.1270,1898.68,-531.37,-437.81
22060,-3.8711,-0.0354,-0.1290,-1445.07,-234.50,484.07
22070,-3.8711,-0.0265,-0.1318,-523.19,-500.12,937.19
22080,-3.8711,-0.0214,-0.1350,617.43,-859.44,702.82
22090,-3.8712,-0.0238,-0.1390,1273.68,-1265.69,-94.06
22100,-3.8712,-0.0332,-0.1432,961.18,-1781.31,-1109.68
22110,-3.8712,-0.0474,-0.1471,-241.94,1687.38,1984.07
22120,-3.8712,-0.0608,-0.1479,1945.56,1187.38,1499.69
22130,-3.8712,-0.0707,-0.1449,226.81,1078.00,1499.69
22140,-3.8712,-0.0768,-0.1415,-1038.82,1468.57,1812.19
22150,-3.8712,-0.0782,-0.1401,-1820.07,1906.07,-1734.68
22160,-3.8712,-0.0737,-0.1393,1992.43,-1922.06,-1422.18
22170,-3.8712,-0.0638,-0.1375,-1429.44,-1812.68,-1375.31
22180,-3.8712,-0.0503,-0.1350,-163.82,-1578.31,-1390.93
22190,-3.8712,-0.0383,-0.1351,1570.56,-1265.75,-1422.18
22200,-3.8712,-0.0316,-0.1375,-898.19,-1281.37,-1453.43
22210,-3.8712,-0.0284,-0.1382,-38.82,-1578.25,-1515.93
22220,-3.8712,-0.0265,-0.1371,367.43,-1671.94,-1437.81
22230,-3.8712,-0.0244,-0.1338,617.43,-1531.31,-906.56
22240,-3.8711,-0.0231,-0.1300,883.06,-1109.44,30.94
22250,-3.8711,-0.0234,-0.1323,1054.93,-625.06,968.44
22260,-3.8711,-0.0251,-0.1399,1008.06,-921.94,1421.57
22270,-3.8711,-0.0284,-0.1448,789.31,-1890.69,1046.57
22280,-3.8712,-0.0347,-0.1428,367.43,1484.31,-15.93
22290,-3.8712,-0.0430,-0.1334,-429.44,1734.25,-859.68
22300,-3.8712,-0.0532,-0.1228,-1491.94,-1062.62,-1172.18
22310,-3.8712,-0.0648,-0.1218,1195.56,296.75,-1593.99
22320,-3.8712,-0.0741,-0.1317,-288.82,421.69,1765.38
22330,-3.8712,-0.0800,-0.1451,-1476.32,-843.93,1249.69
22340,-3.8712,-0.0826,-0.1549,1773.68,1437.32,984.07
22350,-3.8712,-0.0790,-0.1581,1429.93,187.32,1109.07
22360,-3.8712,-0.0682,-0.1565,1898.68,-218.93,1484.01
22370,-3.8712,-0.0518,-0.1504,-726.32,-15.81,-1969.12
22380,-3.8712,-0.0348,-0.1401,1383.06,765.50,-1219.06
