timestamp_ms,ax,ay,az,gx,gy,gz
0,-3.8711,-0.0294,-0.1296,476.81,-671.94,390.32
10,-3.8711,-0.0317,-0.1313,242.43,-578.19,921.57
20,-3.8711,-0.0345,-0.1334,-54.44,-797.00,1030.94
30,-3.8711,-0.0364,-0.1346,-413.82,-1062.62,546.57
40,-3.8712,-0.0363,-0.1340,-648.19,-1218.87,-484.68
50,-3.8712,-0.0360,-0.1334,-632.57,-1140.75,-1734.68
60,-3.8712,-0.0363,-0.1335,-601.32,-1062.62,1234.07
70,-3.8712,-0.0354,-0.1340,-632.57,-1078.25,624.69
80,-3.8712,-0.0328,-0.1361,-523.19,-1140.75,202.82
90,-3.8712,-0.0302,-0.1381,-195.07,-1406.37,30.94
100,-3.8712,-0.0289,-0.1370,148.68,-1656.31,265.32
110,-3.8712,-0.0295,-0.1343,304.93,-1515.69,749.69
120,-3.8712,-0.0322,-0.1333,226.81,-1171.94,1343.44
130,-3.8712,-0.0372,-0.1326,-116.94,-1047.00,-1984.68
140,-3.8712,-0.0428,-0.1306,-757.57,-953.25,-1281.56
150,-3.8712,-0.0459,-0.1298,-1476.32,-703.25,-922.18
160,-3.8712,-0.0439,-0.1321,-1866.94,-593.87,-1031.56
170,-3.8712,-0.0392,-0.1355,-1616.94,-890.75,-1594.06
180,-3.8712,-0.0349,-0.1377,-1007.57,-1328.25,1452.82
190,-3.8712,-0.0323,-0.1392,-460.69,-1609.50,468.44
200,-3.8713,-0.0323,-0.1400,-132.57,-1797.00,-187.81
210,-3.8713,-0.0345,-0.1396,-132.57,-1906.37,-250.31
220,-3.8712,-0.0393,-0.1372,-413.82,-1859.50,280.94
230,-3.8712,-0.0453,-0.1326,-1023.19,-1547.00,1249.69
240,-3.8712,-0.0490,-0.1298,-1788.82,-953.25,-1562.81
250,-3.8712,-0.0477,-0.1316,1742.43,-593.87,-422.18
260,-3.8711,-0.0422,-0.1348,1898.68,-828.25,312.19
270,-3.8711,-0.0376,-0.1355,-1398.19,-1234.50,405.94
280,-3.8711,-0.0388,-0.1342,-804.44,-1328.25,46.57
290,-3.8712,-0.0453,-0.1333,-960.69,-1156.37,-234.68
300,-3.8712,-0.0527,-0.1311,-1788.82,-1047.00,-47.18
310,-3.8711,-0.0552,-0.1261,1258.06,-765.75,484.07
320,-3.8711,-0.0493,-0.1229,945.56,-125.12,999.69
330,-3.8711,-0.0367,-0.1251,1695.56,281.13,1109.13
340,-3.8711,-0.0236,-0.1285,-695.07,-0.12,640.32
350,-3.8712,-0.0160,-0.1283,992.43,-437.56,-94.06
360,-3.8712,-0.0153,-0.1272,1961.18,-406.31,-672.18
370,-3.8712,-0.0184,-0.1279,-1945.07,-265.69,-1172.18
380,-3.8712,-0.0237,-0.1294,1648.68,-359.44,-1625.31
390,-3.8712,-0.0303,-0.1307,976.81,-546.94,-1922.18
400,-3.8712,-0.0365,-0.1292,133.06,-718.81,-1531.56
410,-3.8712,-0.0420,-0.1261,-663.82,-515.75,-484.68
420,-3.8711,-0.0449,-0.1235,-1366.94,-125.12,530.94
430,-3.8711,-0.0431,-0.1229,-1741.94,203.00,1249.76
440,-3.8711,-0.0382,-0.1245,-1507.57,281.13,1452.88
450,-3.8711,-0.0338,-0.1250,-882.57,78.00,1109.13
460,-3.8711,-0.0338,-0.1241,-320.07,15.50,374.76
470,-3.8712,-0.0385,-0.1240,-320.07,124.88,-406.49
480,-3.8712,-0.0431,-0.1249,-913.82,140.50,-1093.99
490,-3.8712,-0.0433,-0.1262,-1507.57,31.13,-1578.37
500,-3.8712,-0.0391,-0.1281,-1538.82,-140.75,-1750.31
510,-3.8712,-0.0325,-0.1299,-991.94,-375.12,-1781.56
520,-3.8712,-0.0261,-0.1301,-148.19,-609.50,-1812.81
530,-3.8712,-0.0227,-0.1290,664.31,-640.69,-1703.43
540,-3.8712,-0.0220,-0.1283,1101.81,-500.06,-1281.56
550,-3.8712,-0.0231,-0.1284,1195.56,-406.31,-781.56
560,-3.8712,-0.0272,-0.1285,1054.93,-421.94,-594.06
570,-3.8712,-0.0334,-0.1290,523.68,-437.56,-844.06
580,-3.8712,-0.0378,-0.1300,-273.19,-500.12,-1109.68
590,-3.8712,-0.0385,-0.1307,-835.69,-625.12,-937.81
600,-3.8712,-0.0365,-0.1327,-913.82,-718.87,-594.06
610,-3.8712,-0.0342,-0.1345,-663.82,-968.87,-234.68
620,-3.8711,-0.0352,-0.1322,-366.94,-1203.25,249.69
630,-3.8711,-0.0397,-0.1283,-491.94,-906.37,593.44
640,-3.8711,-0.0427,-0.1279,-1070.07,-406.37,499.69
650,-3.8711,-0.0406,-0.1305,-1460.69,-359.50,62.19
660,-3.8712,-0.0361,-0.1327,-1195.07,-687.62,-703.43
670,-3.8712,-0.0323,-0.1321,-616.94,-968.87,-1547.18
680,-3.8712,-0.0289,-0.1289,-132.57,-890.75,1859.07
690,-3.8712,-0.0259,-0.1259,304.93,-484.44,1671.57
700,-3.8712,-0.0244,-0.1239,695.56,-93.81,-1875.31
710,-3.8712,-0.0245,-0.1232,883.06,156.19,-1047.12
720,-3.8712,-0.0248,-0.1243,867.43,249.94,-297.12
730,-3.8711,-0.0261,-0.1249,836.18,109.31,140.38
740,-3.8711,-0.0303,-0.1245,664.31,31.19,171.63
750,-3.8711,-0.0344,-0.1246,133.06,78.06,77.88
760,-3.8711,-0.0370,-0.1246,-398.19,62.38,187.26
770,-3.8711,-0.0378,-0.1235,-726.32,62.38,390.38
780,-3.8711,-0.0377,-0.1232,-835.69,203.00,546.63
790,-3.8711,-0.0374,-0.1244,-820.07,249.88,656.01
800,-3.8711,-0.0353,-0.1266,-773.19,93.63,406.01
810,-3.8712,-0.0316,-0.1296,-507.57,-187.62,-219.06
820,-3.8712,-0.0292,-0.1322,-38.82,-578.25,-906.56
830,-3.8712,-0.0305,-0.1322,273.68,-906.31,-1406.56
840,-3.8712,-0.0349,-0.1316,101.81,-906.31,-1719.06
850,-3.8712,-0.0381,-0.1328,-460.69,-828.25,-1984.68
860,-3.8712,-0.0370,-0.1349,-866.94,-984.50,1827.82
870,-3.8712,-0.0331,-0.1342,-726.32,-1250.12,1968.44
880,-3.8712,-0.0281,-0.1316,-226.32,-1156.37,-1453.43
890,-3.8712,-0.0222,-0.1300,414.31,-828.19,-844.06
900,-3.8712,-0.0181,-0.1292,1164.31,-625.06,-281.56
910,-3.8711,-0.0201,-0.1278,1695.56,-515.69,749.69
920,-3.8711,-0.0270,-0.1244,1429.93,-343.81,-1765.93
930,-3.8711,-0.0336,-0.1206,554.93,93.69,-656.49
940,-3.8711,-0.0353,-0.1206,-288.82,578.00,-547.12
950,-3.8711,-0.0304,-0.1240,-507.57,578.00,-1375.24
960,-3.8711,-0.0237,-0.1274,117.43,140.56,1156.01
970,-3.8712,-0.0190,-0.1299,976.81,-296.94,-344.06
980,-3.8712,-0.0192,-0.1313,1570.56,-609.44,-1437.81
990,-3.8712,-0.0244,-0.1322,1554.93,-796.94,1843.44
1000,-3.8712,-0.0332,-0.1304,883.06,-906.31,1421.57
1010,-3.8712,-0.0409,-0.1277,-241.94,-672.00,1343.44
1020,-3.8712,-0.0431,-0.1273,-1226.32,-328.25,1718.44
1030,-3.8712,-0.0397,-0.1277,-1507.57,-281.37,-1515.93
1040,-3.8712,-0.0338,-0.1277,-1070.07,-328.25,-734.68
1050,-3.8712,-0.0275,-0.1271,-320.07,-328.25,-187.81
1060,-3.8711,-0.0232,-0.1261,492.43,-250.06,77.82
1070,-3.8711,-0.0231,-0.1270,1039.31,-125.06,77.82
1080,-3.8712,-0.0248,-0.1281,1054.93,-234.44,-172.18
1090,-3.8712,-0.0269,-0.1281,836.18,-375.06,-594.06
1100,-3.8712,-0.0286,-0.1273,570.56,-375.06,-953.43
1110,-3.8712,-0.0286,-0.1279,351.81,-281.31,-1203.43
1120,-3.8712,-0.0273,-0.1296,351.81,-359.44,-1390.93
1130,-3.8712,-0.0251,-0.1315,508.06,-578.19,-1734.68
1140,-3.8712,-0.0232,-0.1338,789.31,-812.56,1687.19
1150,-3.8712,-0.0221,-0.1367,1039.31,-1109.44,1015.32
1160,-3.8712,-0.0231,-0.1388,1179.93,-1484.44,484.07
1170,-3.8712,-0.0270,-0.1375,1054.93,-1750.06,265.32
1180,-3.8712,-0.0314,-0.1345,554.93,-1578.19,249.69
1190,-3.8712,-0.0321,-0.1355,-7.57,-1203.25,265.32
1200,-3.8712,-0.0303,-0.1394,-101.32,-1328.25,452.82
1210,-3.8712,-0.0305,-0.1409,133.06,-1828.19,702.82
1220,-3.8712,-0.0328,-0.1389,101.81,1984.31,1015.32
1230,-3.8712,-0.0355,-0.1365,-195.07,-1765.75,1405.94
1240,-3.8712,-0.0370,-0.1355,-538.82,-1453.25,1562.19
1250,-3.8712,-0.0360,-0.1342,-726.32,-1328.25,1484.07
1260,-3.8712,-0.0337,-0.1312,-601.32,-1156.37,1359.07
1270,-3.8712,-0.0325,-0.1284,-304.44,-781.37,1468.44
1280,-3.8712,-0.0332,-0.1246,-148.19,-422.00,-1859.68
1290,-3.8712,-0.0341,-0.1201,-241.94,62.38,-703.37
1300,-3.8711,-0.0322,-0.1190,-351.32,640.50,312.26
1310,-3.8711,-0.0281,-0.1211,-116.94,781.13,749.76
1320,-3.8711,-0.0271,-0.1228,414.31,515.56,921.63
1330,-3.8711,-0.0309,-0.1233,539.31,296.81,1093.51
1340,-3.8711,-0.0364,-0.1250,54.93,234.31,1218.51
1350,-3.8711,-0.0397,-0.1267,-648.19,15.50,906.01
1360,-3.8711,-0.0393,-0.1276,-1070.07,-203.25,93.44
1370,-3.8712,-0.0375,-0.1307,-1023.19,-312.62,-1078.43
1380,-3.8712,-0.0377,-0.1360,-788.82,-718.87,1812.19
1390,-3.8712,-0.0417,-0.1407,-820.07,-1390.75,1280.94
1400,-3.8712,-0.0486,-0.1403,-1335.69,1999.88,1562.19
1410,-3.8712,-0.0562,-0.1349,1789.31,-1937.62,-1375.31
1420,-3.8711,-0.0616,-0.1300,820.56,-1250.12,109.07
1430,-3.8711,-0.0629,-0.1266,117.43,-625.12,1515.32
1440,-3.8711,-0.0576,-0.1239,-38.82,-187.68,-1719.06
1450,-3.8711,-0.0466,-0.1233,633.06,156.13,-1703.37
1460,-3.8711,-0.0345,-0.1257,-1960.69,234.25,1796.63
1470,-3.8711,-0.0250,-0.1285,-413.82,-78.25,937.19
1480,-3.8712,-0.0228,-0.1301,804.93,-437.56,-31.56
1490,-3.8712,-0.0292,-0.1302,1086.18,-640.69,-734.68
1500,-3.8712,-0.0399,-0.1288,273.68,-656.31,-1125.31
1510,-3.8712,-0.0492,-0.1276,-1101.32,-468.87,-1437.81
1520,-3.8712,-0.0532,-0.1268,1711.18,-312.62,-1750.31
1530,-3.8712,-0.0519,-0.1256,1195.56,-218.87,-1953.43
1540,-3.8712,-0.0479,-0.1246,1367.43,-62.62,1827.82
1550,-3.8712,-0.0433,-0.1261,1883.06,62.38,1374.76
1560,-3.8712,-0.0377,-0.1300,-1538.82,-125.12,671.57
1570,-3.8713,-0.0323,-0.1318,-820.07,-625.12,-15.93
1580,-3.8713,-0.0305,-0.1306,-132.57,-859.50,-422.18
1590,-3.8713,-0.0343,-0.1282,101.81,-703.19,-15.93
1600,-3.8712,-0.0419,-0.1244,-382.57,-390.75,1515.32
1610,-3.8712,-0.0480,-0.1210,-1351.32,93.63,-250.24
1620,-3.8711,-0.0477,-0.1204,1867.43,531.13,1874.76
1630,-3.8711,-0.0404,-0.1218,1898.68,609.25,-859.62
1640,-3.8711,-0.0304,-0.1235,-1163.82,421.75,-765.87
1650,-3.8711,-0.0240,-0.1252,117.43,203.06,-1734.62
1660,-3.8711,-0.0245,-0.1262,929.93,-15.69,780.94
1670,-3.8712,-0.0305,-0.1277,867.43,-140.69,-375.31
1680,-3.8712,-0.0369,-0.1302,101.81,-328.19,-1109.68
1690,-3.8712,-0.0400,-0.1320,-710.69,-656.37,-1672.18
1700,-3.8712,-0.0402,-0.1327,-1116.94,-875.12,1921.57
1710,-3.8712,-0.0387,-0.1335,-1132.57,-968.87,1343.44
1720,-3.8712,-0.0371,-0.1351,-945.07,-1078.25,734.07
1730,-3.8712,-0.0367,-0.1353,-741.94,-1281.37,655.94
1740,-3.8712,-0.0375,-0.1342,-695.07,-1297.00,1218.44
1750,-3.8712,-0.0369,-0.1335,-788.82,-1156.37,-1906.56
1760,-3.8712,-0.0338,-0.1318,-710.69,-1078.25,-984.68
1770,-3.8712,-0.0305,-0.1293,-320.07,-859.50,-125.31
1780,-3.8711,-0.0295,-0.1293,101.81,-531.31,452.82
1790,-3.8711,-0.0316,-0.1311,226.81,-531.31,468.44
1800,-3.8712,-0.0349,-0.1310,-38.82,-765.75,-94.06
1810,-3.8712,-0.0372,-0.1300,-460.69,-750.12,-906.56
1820,-3.8712,-0.0366,-0.1302,-757.57,-625.12,-1500.31
1830,-3.8712,-0.0345,-0.1305,-679.44,-656.37,-1578.43
1840,-3.8712,-0.0354,-0.1290,-413.82,-687.62,-1172.18
1850,-3.8712,-0.0400,-0.1265,-523.19,-500.12,-531.56
1860,-3.8711,-0.0448,-0.1234,-1116.94,-172.00,77.82
1870,-3.8711,-0.0457,-0.1205,-1726.32,218.63,624.76
1880,-3.8711,-0.0428,-0.1189,-1835.69,593.63,1124.76
1890,-3.8711,-0.0398,-0.1191,-1476.32,796.75,1312.26
1900,-3.8711,-0.0375,-0.1198,-1085.69,765.50,1046.63
1910,-3.8711,-0.0372,-0.1200,-788.82,687.38,671.63
1920,-3.8712,-0.0393,-0.1211,-757.57,656.13,-0.24
1930,-3.8712,-0.0410,-0.1245,-1023.19,515.50,-1125.24
1940,-3.8712,-0.0415,-0.1284,-1241.94,78.00,1687.26
1950,-3.8712,-0.0414,-0.1298,-1304.44,-422.00,655.94
1960,-3.8713,-0.0397,-0.1296,-1288.82,-593.87,-234.68
1970,-3.8713,-0.0364,-0.1321,-1070.07,-578.25,-1015.93
1980,-3.8713,-0.0321,-0.1362,-648.19,-890.75,-1703.43
1990,-3.8713,-0.0312,-0.1392,-101.32,-1422.00,1796.57
2000,-3.8713,-0.0376,-0.1392,8.06,-1796.94,1671.57
2010,-3.8713,-0.0490,-0.1389,-804.44,-1797.00,1999.69
2020,-3.8713,-0.0616,-0.1418,1742.43,-1765.75,-1203.43
2030,-3.8713,-0.0697,-0.1434,117.43,1859.25,-15.93
2040,-3.8712,-0.0701,-0.1422,-913.82,1656.07,1077.82
2050,-3.8712,-0.0640,-0.1398,-960.69,1812.32,1937.19
2060,-3.8712,-0.0549,-0.1356,-179.44,-1875.18,-984.68
2070,-3.8711,-0.0479,-0.1315,976.81,-1343.87,296.57
2080,-3.8711,-0.0428,-0.1289,1883.06,-812.62,1374.69
2090,-3.8711,-0.0374,-0.1273,-1476.32,-484.50,1890.32
2100,-3.8711,-0.0325,-0.1256,-773.19,-281.37,1593.44
2110,-3.8711,-0.0320,-0.1273,-148.19,-62.62,734.07
2120,-3.8712,-0.0358,-0.1289,-85.69,-281.37,-312.81
2130,-3.8712,-0.0383,-0.1261,-570.07,-484.50,-1406.56
2140,-3.8712,-0.0366,-0.1251,-898.19,-125.12,1359.07
2150,-3.8712,-0.0316,-0.1243,-679.44,-0.12,421.57
2160,-3.8712,-0.0281,-0.1205,-38.82,109.25,187.26
2170,-3.8712,-0.0273,-0.1169,414.31,593.69,406.01
2180,-3.8712,-0.0283,-0.1180,508.06,1046.81,1171.63
2190,-3.8712,-0.0312,-0.1199,383.06,906.19,-1406.49
2200,-3.8711,-0.0348,-0.1168,8.06,671.81,249.76
2210,-3.8711,-0.0367,-0.1145,-445.07,1062.38,1390.38
2220,-3.8711,-0.0353,-0.1165,-695.07,1359.25,1452.88
2230,-3.8711,-0.0330,-0.1198,-507.57,1109.25,718.51
2240,-3.8712,-0.0332,-0.1212,-210.69,687.38,-343.99
2250,-3.8712,-0.0356,-0.1218,-241.94,499.88,-1453.37
2260,-3.8712,-0.0370,-0.1235,-554.44,421.75,1609.13
2270,-3.8712,-0.0341,-0.1260,-726.32,203.00,1015.38
2280,-3.8712,-0.0298,-0.1273,-351.32,-109.50,905.94
2290,-3.8712,-0.0282,-0.1262,195.56,-281.31,1468.44
2300,-3.8712,-0.0300,-0.1208,398.68,-140.69,-1234.68
2310,-3.8711,-0.0343,-0.1141,164.31,546.81,671.63
2320,-3.8711,-0.0382,-0.1105,-382.57,1406.13,-1015.87
2330,-3.8710,-0.0402,-0.1100,-882.57,1874.88,1124.76
2340,-3.8710,-0.0410,-0.1095,-1132.57,1937.38,-1703.37
2350,-3.8710,-0.0408,-0.1075,-1241.94,1999.88,-1750.24
2360,-3.8710,-0.0406,-0.1064,-1210.69,-1750.12,1156.01
2370,-3.8711,-0.0404,-0.1064,-1195.07,-1609.50,-281.49
2380,-3.8711,-0.0389,-0.1073,-1163.82,-1609.50,-1687.74
2390,-3.8711,-0.0371,-0.1094,-976.32,-1718.87,1015.38
2400,-3.8712,-0.0361,-0.1117,-741.94,-1984.50,-31.49
2410,-3.8712,-0.0363,-0.1136,-616.94,1718.63,-797.12
2420,-3.8712,-0.0388,-0.1135,-632.57,1468.63,-1015.87
2430,-3.8712,-0.0444,-0.1099,-960.69,1484.25,-531.49
2440,-3.8711,-0.0508,-0.1073,-1679.44,1953.00,484.13
2450,-3.8711,-0.0538,-0.1069,1508.06,-1718.87,1812.26
2460,-3.8711,-0.0537,-0.1064,1117.43,-1672.00,-1000.24
2470,-3.8711,-0.0527,-0.1066,1133.06,-1609.50,-453.37
2480,-3.8711,-0.0505,-0.1078,1258.06,-1625.12,-703.37
2490,-3.8711,-0.0461,-0.1113,1539.31,-1781.37,-1687.74
2500,-3.8711,-0.0405,-0.1145,-1898.19,1765.50,1077.88
2510,-3.8712,-0.0372,-0.1143,-1179.44,1359.25,-125.24
2520,-3.8712,-0.0360,-0.1129,-757.57,1390.50,-1187.74
2530,-3.8712,-0.0356,-0.1129,-601.32,1562.38,-1687.74
2540,-3.8712,-0.0371,-0.1127,-554.44,1562.38,-1562.74
2550,-3.8712,-0.0394,-0.1105,-741.94,1593.63,-1015.87
2560,-3.8712,-0.0388,-0.1089,-1038.82,1874.88,-406.49
2570,-3.8712,-0.0332,-0.1089,-960.69,-1922.00,-78.37
2580,-3.8712,-0.0258,-0.1097,-241.94,-1922.00,-78.37
2590,-3.8712,-0.0236,-0.1140,711.18,1968.69,-62.74
2600,-3.8711,-0.0295,-0.1232,992.43,1421.81,749.76
2610,-3.8711,-0.0405,-0.1320,226.81,249.94,-1000.24
2620,-3.8710,-0.0509,-0.1320,-1179.44,-875.12,-1484.68
2630,-3.8708,-0.0564,-0.1229,1492.43,-875.12,-1687.81
2640,-3.8707,-0.0574,-0.1134,789.31,281.13,1390.38
2650,-3.8707,-0.0554,-0.1057,664.31,1499.88,-734.62
2660,-3.8707,-0.0507,-0.0983,914.31,-1515.75,-187.74
2670,-3.8707,-0.0425,-0.0958,1523.68,-562.62,-1312.74
2680,-3.8708,-0.0312,-0.0990,-1429.44,-250.12,-281.49
2690,-3.8710,-0.0217,-0.1016,8.06,-656.31,-906.49
2700,-3.8711,-0.0137,-0.1014,1226.81,-984.44,1390.38
2710,-3.8713,-0.0029,-0.1033,-1741.94,-968.81,-562.74
2720,-3.8715,0.0076,-0.1099,-366.94,-1203.19,-1703.37
2730,-3.8716,0.0104,-0.1190,976.81,1937.50,-1047.12
2740,-3.8716,0.0022,-0.1268,1336.18,765.62,1984.13
2750,-3.8716,-0.0146,-0.1311,289.31,-234.38,-687.81
2760,-3.8715,-0.0333,-0.1327,-1866.94,-765.69,1546.57
2770,-3.8715,-0.0475,-0.1350,-257.57,-968.87,-1047.18
2780,-3.8715,-0.0558,-0.1389,1929.93,-1265.75,-734.68
2790,-3.8715,-0.0575,-0.1418,867.43,-1765.75,-656.56
2800,-3.8715,-0.0554,-0.1426,648.68,1859.25,-250.31
2810,-3.8713,-0.0527,-0.1412,914.31,1765.50,609.07
2820,-3.8713,-0.0500,-0.1405,1258.06,1937.38,1765.32
2830,-3.8713,-0.0481,-0.1412,1601.81,-1968.87,-859.68
2840,-3.8712,-0.0454,-0.1407,1851.81,1937.38,999.69
2850,-3.8712,-0.0402,-0.1389,-1804.44,1999.88,-859.68
2860,-3.8711,-0.0323,-0.1394,-1132.57,-1765.75,1077.82
2870,-3.8711,-0.0231,-0.1434,-132.57,-1828.25,-1265.93
2880,-3.8710,-0.0159,-0.1464,1054.93,1656.19,109.07
2890,-3.8710,-0.0153,-0.1461,1976.81,1281.19,1093.44
2900,-3.8710,-0.0204,-0.1444,-1945.07,1312.44,1546.57
2910,-3.8710,-0.0276,-0.1422,1398.68,1531.19,1405.94
2920,-3.8710,-0.0326,-0.1414,476.81,1812.44,234.07
2930,-3.8711,-0.0337,-0.1411,-163.82,1921.75,1843.44
2940,-3.8712,-0.0305,-0.1411,-304.44,1953.00,-1265.93
2950,-3.8713,-0.0245,-0.1440,101.81,1953.06,-312.81
2960,-3.8713,-0.0199,-0.1498,867.43,1578.06,1327.82
2970,-3.8715,-0.0220,-0.1556,1461.18,843.69,-281.56
2980,-3.8715,-0.0316,-0.1580,1195.56,93.69,-1172.18
2990,-3.8715,-0.0448,-0.1566,-38.82,-203.25,-1031.62
3000,-3.8715,-0.0568,-0.1550,-1726.32,-31.37,-47.24
3010,-3.8713,-0.0614,-0.1533,742.43,171.75,1515.32
3020,-3.8713,-0.0568,-0.1523,148.68,390.50,-656.56
3030,-3.8712,-0.0453,-0.1525,742.43,515.50,999.69
3040,-3.8712,-0.0323,-0.1495,-1788.82,499.88,-1515.93
3050,-3.8712,-0.0228,-0.1427,-132.57,874.88,-219.06
3060,-3.8711,-0.0172,-0.1366,1086.18,1749.94,702.82
3070,-3.8711,-0.0138,-0.1357,1804.93,-1468.81,1046.57
3080,-3.8711,-0.0128,-0.1378,-1757.57,-1359.44,749.69
3090,-3.8712,-0.0132,-0.1389,-1632.57,-1625.06,-78.43
3100,-3.8712,-0.0129,-0.1395,-1679.44,-1765.69,-1406.56
3110,-3.8712,-0.0115,-0.1409,-1648.19,-1843.81,1171.57
3120,-3.8712,-0.0095,-0.1428,-1460.69,1984.31,359.07
3130,-3.8712,-0.0099,-0.1440,-1210.69,1734.31,187.19
3140,-3.8712,-0.0143,-0.1458,-1257.57,1578.06,484.07
3150,-3.8712,-0.0206,-0.1495,-1820.07,1359.31,984.07
3160,-3.8712,-0.0253,-0.1523,1367.43,874.94,1280.94
3170,-3.8712,-0.0273,-0.1527,773.68,515.56,1093.44
3180,-3.8712,-0.0266,-0.1544,508.06,468.69,327.82
3190,-3.8713,-0.0228,-0.1575,601.81,249.94,-656.56
3200,-3.8713,-0.0194,-0.1578,1086.18,-140.69,-1484.74
3210,-3.8713,-0.0200,-0.1566,1523.68,-187.56,-1890.99
3220,-3.8713,-0.0226,-0.1570,1445.56,-31.31,-1578.49
3230,-3.8713,-0.0249,-0.1584,1117.43,-78.19,-640.99
3240,-3.8712,-0.0267,-0.1583,820.56,-265.69,718.38
3250,-3.8712,-0.0281,-0.1573,586.18,-250.06,-1922.24
3260,-3.8712,-0.0292,-0.1573,414.31,-125.06,-1015.99
3270,-3.8712,-0.0305,-0.1564,273.68,-125.06,-625.37
3280,-3.8712,-0.0345,-0.1514,101.81,-0.06,-547.24
3290,-3.8712,-0.0414,-0.1437,-413.82,640.50,-375.31
3300,-3.8711,-0.0463,-0.1377,-1288.82,1624.88,171.57
3310,-3.8711,-0.0466,-0.1339,-1913.82,-1609.50,1062.19
3320,-3.8711,-0.0415,-0.1307,-1960.69,-1125.12,1780.94
3330,-3.8711,-0.0339,-0.1295,-1304.44,-718.87,-1984.68
3340,-3.8711,-0.0282,-0.1294,-335.69,-562.62,1937.19
3350,-3.8711,-0.0264,-0.1272,398.68,-546.94,1655.94
3360,-3.8711,-0.0284,-0.1233,633.06,-265.69,984.07
3370,-3.8712,-0.0319,-0.1210,367.43,234.31,-125.24
3380,-3.8712,-0.0343,-0.1196,-70.07,531.13,-1593.99
3390,-3.8712,-0.0365,-0.1189,-382.57,703.00,1015.38
3400,-3.8712,-0.0400,-0.1208,-663.82,796.75,124.76
3410,-3.8713,-0.0459,-0.1259,-1116.94,546.75,-187.74
3420,-3.8713,-0.0531,-0.1329,-1866.94,-93.87,-140.93
3430,-3.8712,-0.0588,-0.1382,1211.18,-1000.12,124.69
3440,-3.8712,-0.0632,-0.1409,476.81,-1672.00,562.19
3450,-3.8712,-0.0677,-0.1433,-85.69,1984.19,1077.82
3460,-3.8712,-0.0723,-0.1458,-663.82,1671.69,1765.32
3470,-3.8712,-0.0757,-0.1476,-1241.94,1359.19,-1422.18
3480,-3.8712,-0.0768,-0.1487,-1679.44,1124.82,-750.31
3490,-3.8712,-0.0739,-0.1500,-1820.07,984.19,-234.68
3500,-3.8711,-0.0663,-0.1511,-1445.07,812.32,109.07
3510,-3.8711,-0.0574,-0.1530,-476.32,671.69,265.32
3520,-3.8711,-0.0521,-0.1534,664.31,437.38,437.19
3530,-3.8711,-0.0524,-0.1533,1336.18,374.88,843.44
3540,-3.8711,-0.0549,-0.1569,1304.93,390.50,1452.82
3550,-3.8711,-0.0547,-0.1588,976.81,-62.62,-1922.24
3560,-3.8711,-0.0505,-0.1566,1008.06,-312.62,-1750.37
3570,-3.8711,-0.0438,-0.1533,1539.31,-31.37,1671.51
3580,-3.8711,-0.0386,-0.1461,-1601.32,390.50,546.57
3590,-3.8712,-0.0399,-0.1362,-929.44,1312.38,-719.06
3600,-3.8712,-0.0455,-0.1292,-1101.32,-1422.00,-1578.43
3610,-3.8712,-0.0507,-0.1255,-1820.07,-515.75,-1859.68
3620,-3.8712,-0.0524,-0.1222,1523.68,-47.00,-1687.81
3630,-3.8712,-0.0492,-0.1166,1304.93,374.88,-937.74
3640,-3.8711,-0.0406,-0.1095,1711.18,1093.63,343.51
3650,-3.8711,-0.0291,-0.1030,-1195.07,1999.88,1843.51
3660,-3.8711,-0.0197,-0.0994,289.31,-1171.94,-1047.12
3670,-3.8711,-0.0162,-0.0988,1492.43,-703.19,-656.49
3680,-3.8711,-0.0189,-0.0977,1929.93,-625.06,-937.74
3690,-3.8711,-0.0234,-0.0964,1586.18,-484.44,1999.76
3700,-3.8711,-0.0243,-0.1011,1008.06,-328.19,171.63
3710,-3.8712,-0.0211,-0.1113,898.68,-921.94,1906.01
3720,-3.8713,-0.0177,-0.1206,1304.93,1765.56,-78.37
3730,-3.8713,-0.0172,-0.1262,1742.43,578.06,-1359.62
3740,-3.8713,-0.0198,-0.1316,1804.93,-140.69,-1969.06
3750,-3.8713,-0.0237,-0.1364,1476.81,-828.19,-1781.56
3760,-3.8713,-0.0283,-0.1385,976.81,-1437.56,-578.43
3770,-3.8712,-0.0342,-0.1393,383.06,-1718.81,1484.07
3780,-3.8711,-0.0402,-0.1388,-366.94,-1812.62,62.19
3790,-3.8711,-0.0461,-0.1383,-1132.57,-1750.12,-1359.68
3800,-3.8710,-0.0491,-0.1395,-1898.19,-1687.62,546.57
3810,-3.8710,-0.0465,-0.1425,1726.81,-1843.87,1296.57
3820,-3.8710,-0.0409,-0.1439,-1945.07,1781.13,1155.94
3830,-3.8710,-0.0342,-0.1420,-1226.32,1593.63,843.44
3840,-3.8710,-0.0289,-0.1400,-366.94,1843.63,562.19
3850,-3.8711,-0.0259,-0.1414,304.93,-1906.31,-47.18
3860,-3.8711,-0.0233,-0.1436,695.56,1921.81,-1359.68
3870,-3.8711,-0.0226,-0.1442,1023.68,1640.56,671.57
3880,-3.8712,-0.0250,-0.1438,1117.43,1562.44,-1515.93
3890,-3.8712,-0.0287,-0.1420,804.93,1609.31,609.07
3900,-3.8713,-0.0309,-0.1400,336.18,1843.69,-781.56
3910,-3.8713,-0.0303,-0.1415,54.93,-1906.31,-1640.93
3920,-3.8713,-0.0266,-0.1453,133.06,1906.19,-1906.56
3930,-3.8713,-0.0227,-0.1449,601.81,1421.81,-1578.43
3940,-3.8713,-0.0229,-0.1394,1101.81,1468.69,-672.18
3950,-3.8712,-0.0277,-0.1360,1070.56,-1828.19,671.57
3960,-3.8712,-0.0334,-0.1356,461.18,-1390.69,1999.69
3970,-3.8712,-0.0359,-0.1337,-273.19,-1343.87,-1078.43
3980,-3.8712,-0.0345,-0.1318,-585.69,-1093.87,-969.06
3990,-3.8712,-0.0319,-0.1318,-413.82,-859.50,-1484.68
4000,-3.8712,-0.0309,-0.1304,-70.07,-859.50,-1875.31
4010,-3.8712,-0.0323,-0.1289,54.93,-671.94,-1687.81
4020,-3.8712,-0.0345,-0.1307,-132.57,-484.50,-1094.06
4030,-3.8712,-0.0347,-0.1355,-413.82,-718.87,-594.06
4040,-3.8712,-0.0331,-0.1417,-429.44,-1328.25,-219.06
4050,-3.8711,-0.0337,-0.1451,-226.32,1874.88,140.32
4060,-3.8711,-0.0369,-0.1426,-304.44,1437.38,265.32
4070,-3.8711,-0.0403,-0.1384,-710.69,1765.50,187.19
4080,-3.8711,-0.0419,-0.1366,-1148.19,-1703.25,280.94
4090,-3.8711,-0.0398,-0.1359,-1351.32,-1468.87,499.69
4100,-3.8711,-0.0366,-0.1359,-1085.69,-1375.12,530.94
4110,-3.8711,-0.0367,-0.1379,-679.44,-1375.12,405.94
4120,-3.8711,-0.0433,-0.1412,-695.07,-1640.75,171.57
4130,-3.8712,-0.0519,-0.1433,-1538.82,1937.38,-297.18
4140,-3.8712,-0.0547,-0.1440,1367.43,1671.75,-797.18
4150,-3.8712,-0.0511,-0.1436,1008.06,1578.00,-1297.18
4160,-3.8712,-0.0454,-0.1433,1461.18,1640.50,-1890.93
4170,-3.8712,-0.0411,-0.1436,-1804.44,1671.75,1374.69
4180,-3.8712,-0.0402,-0.1423,-1257.57,1640.50,640.32
4190,-3.8712,-0.0403,-0.1403,-1132.57,1796.75,93.44
4200,-3.8713,-0.0383,-0.1410,-1148.19,-1937.62,-156.56
4210,-3.8712,-0.0330,-0.1423,-898.19,1968.63,15.32
4220,-3.8712,-0.0273,-0.1415,-210.69,1796.75,718.44
4230,-3.8712,-0.0250,-0.1383,508.06,1906.19,-1906.56
4240,-3.8712,-0.0254,-0.1345,804.93,-1687.56,-406.56
4250,-3.8711,-0.0270,-0.1340,758.06,-1203.19,499.69
4260,-3.8711,-0.0272,-0.1370,554.93,-1140.69,562.19
4270,-3.8712,-0.0254,-0.1390,523.68,-1515.69,-62.81
4280,-3.8712,-0.0223,-0.1390,758.06,-1781.31,-1344.06
4290,-3.8712,-0.0190,-0.1399,1148.68,-1781.31,1124.69
4300,-3.8712,-0.0177,-0.1412,1570.56,-1890.69,93.44
4310,-3.8713,-0.0192,-0.1418,1742.43,1937.44,-15.93
4320,-3.8712,-0.0234,-0.1443,1554.93,1859.31,843.44
4330,-3.8712,-0.0284,-0.1460,1008.06,1546.81,-1578.43
4340,-3.8711,-0.0315,-0.1432,367.43,1328.06,202.82
4350,-3.8711,-0.0331,-0.1405,-23.19,1687.38,1609.07
4360,-3.8711,-0.0319,-0.1411,-226.32,-1968.87,-1672.18
4370,-3.8711,-0.0282,-0.1409,-70.07,1953.00,-1547.18
4380,-3.8711,-0.0249,-0.1372,398.68,1984.31,-1719.06
4390,-3.8711,-0.0240,-0.1329,820.56,-1546.94,1952.82
4400,-3.8711,-0.0255,-0.1311,929.93,-1000.06,1452.82
4410,-3.8711,-0.0264,-0.1312,742.43,-765.69,593.44
4420,-3.8712,-0.0240,-0.1346,633.06,-781.31,-859.68
4430,-3.8712,-0.0182,-0.1389,929.93,-1218.81,1390.32
4440,-3.8713,-0.0127,-0.1405,1679.93,-1765.69,-172.18
4450,-3.8713,-0.0116,-0.1392,-1616.94,-1968.81,-1187.81
4460,-3.8713,-0.0151,-0.1366,-1476.32,-1796.94,-1687.81
4470,-3.8713,-0.0204,-0.1351,-1929.44,-1468.81,-1672.18
4480,-3.8713,-0.0256,-0.1348,1398.68,-1281.31,-890.93
4490,-3.8712,-0.0304,-0.1340,726.81,-1234.44,687.19
4500,-3.8712,-0.0330,-0.1338,117.43,-1140.69,-1344.06
4510,-3.8711,-0.0336,-0.1340,-210.69,-1109.50,390.32
4520,-3.8711,-0.0325,-0.1348,-288.82,-1140.75,1312.19
4530,-3.8711,-0.0297,-0.1366,-148.19,-1234.50,1374.69
4540,-3.8711,-0.0278,-0.1390,211.18,-1468.81,905.94
4550,-3.8711,-0.0299,-0.1400,445.56,-1781.31,218.44
4560,-3.8712,-0.0359,-0.1396,179.93,-1906.31,-234.68
4570,-3.8712,-0.0444,-0.1412,-585.69,-1859.50,-203.43
4580,-3.8711,-0.0525,-0.1440,-1679.44,1937.38,171.57
4590,-3.8711,-0.0565,-0.1444,1289.31,1578.00,577.82
4600,-3.8711,-0.0538,-0.1442,773.68,1531.13,765.32
4610,-3.8711,-0.0444,-0.1445,1117.43,1562.38,671.57
4620,-3.8711,-0.0323,-0.1432,-1679.44,1515.50,484.07
4630,-3.8711,-0.0231,-0.1376,-132.57,1687.38,484.07
4640,-3.8711,-0.0181,-0.1299,1054.93,-1593.81,687.19
4650,-3.8711,-0.0161,-0.1268,1695.56,-609.44,859.07
4660,-3.8711,-0.0148,-0.1290,1945.56,-218.81,640.32
4670,-3.8712,-0.0134,-0.1331,-1882.57,-500.06,-62.81
4680,-3.8712,-0.0145,-0.1372,-1710.69,-1015.69,-875.31
4690,-3.8712,-0.0194,-0.1379,-1851.32,-1546.94,-1484.68
4700,-3.8712,-0.0256,-0.1353,1523.68,-1640.69,-1828.43
4710,-3.8712,-0.0305,-0.1348,726.81,-1296.94,-1906.56
4720,-3.8712,-0.0333,-0.1367,101.81,-1234.44,-1828.43
4730,-3.8712,-0.0333,-0.1382,-257.57,-1484.50,-1812.81
4740,-3.8712,-0.0308,-0.1387,-257.57,-1672.00,1843.44
4750,-3.8712,-0.0286,-0.1388,70.56,-1734.44,1155.94
4760,-3.8712,-0.0284,-0.1383,351.81,-1750.06,374.69
4770,-3.8713,-0.0303,-0.1381,367.43,-1687.56,-312.81
4780,-3.8713,-0.0328,-0.1395,133.06,-1656.31,-1094.06
4790,-3.8713,-0.0344,-0.1405,-195.07,-1843.87,-1672.18
4800,-3.8713,-0.0347,-0.1392,-398.19,-1968.87,-1453.43
4810,-3.8713,-0.0331,-0.1382,-429.44,-1797.00,-687.81
4820,-3.8712,-0.0295,-0.1436,-226.32,-1672.00,15.32
4830,-3.8712,-0.0231,-0.1549,226.81,1640.56,562.19
4840,-3.8712,-0.0168,-0.1631,1054.93,187.44,1452.82
4850,-3.8712,-0.0175,-0.1672,1851.81,-859.44,-922.24
4860,-3.8711,-0.0253,-0.1644,1773.68,-1390.69,1812.13
4870,-3.8710,-0.0348,-0.1503,773.68,-1031.31,1234.01
4880,-3.8708,-0.0404,-0.1362,-445.07,781.13,218.44
4890,-3.8708,-0.0404,-0.1233,-1163.82,-1422.00,-1265.93
4900,-3.8707,-0.0393,-0.1078,-1163.82,234.25,1124.76
4910,-3.8707,-0.0391,-0.0950,-1023.19,-1781.37,-1015.87
4920,-3.8707,-0.0344,-0.0907,-991.94,-140.75,-265.87
4930,-3.8707,-0.0233,-0.0919,-398.19,406.13,-1422.06
4940,-3.8708,-0.0096,-0.0908,1023.68,249.94,-1218.93
4950,-3.8710,0.0004,-0.0898,-1226.32,390.56,609.19
4960,-3.8712,0.0038,-0.0959,54.93,500.00,1218.57
4970,-3.8715,0.0009,-0.1101,492.43,-281.25,1999.76
4980,-3.8716,-0.0077,-0.1265,117.43,1906.25,109.13
4990,-3.8717,-0.0215,-0.1404,-976.32,-171.94,155.94
5000,-3.8718,-0.0393,-0.1510,1258.06,-1953.19,-1515.93
5010,-3.8718,-0.0577,-0.1558,-1023.19,687.38,-656.56
5020,-3.8717,-0.0743,-0.1552,617.43,78.00,-1578.43
5030,-3.8716,-0.0857,-0.1536,-1507.57,156.07,-828.43
5040,-3.8713,-0.0865,-0.1528,1039.31,359.19,1077.82
5050,-3.8712,-0.0754,-0.1562,929.93,452.94,-1094.06
5060,-3.8711,-0.0553,-0.1659,-1648.19,15.44,-812.81
5070,-3.8710,-0.0299,-0.1775,929.93,-1218.87,1187.13
5080,-3.8710,-0.0087,-0.1855,179.93,1296.81,1249.63
5090,-3.8710,0.0016,-0.1846,-1101.32,265.56,405.88
5100,-3.8711,0.0012,-0.1772,211.18,375.00,-422.24
5110,-3.8711,-0.0066,-0.1675,164.31,1312.50,-422.24
5120,-3.8710,-0.0187,-0.1550,-835.69,-1421.94,905.88
5130,-3.8710,-0.0305,-0.1389,1617.43,171.81,-844.06
5140,-3.8708,-0.0348,-0.1233,101.81,-1765.69,1030.94
5150,-3.8708,-0.0231,-0.1165,-445.07,234.25,1421.63
5160,-3.8708,0.0066,-0.1205,1054.93,1109.31,187.26
5170,-3.8710,0.0410,-0.1270,851.81,578.12,1624.76
5180,-3.8711,0.0593,-0.1295,1258.06,-249.94,-1594.06
5190,-3.8712,0.0524,-0.1300,-398.19,-578.06,-750.31
5200,-3.8712,0.0282,-0.1299,-1288.82,-640.56,359.07
5210,-3.8713,-0.0002,-0.1290,-382.57,-625.00,1609.07
5220,-3.8715,-0.0248,-0.1257,-23.19,-500.06,-1328.43
5230,-3.8716,-0.0415,-0.1226,836.18,-78.19,-609.68
5240,-3.8716,-0.0488,-0.1241,-1304.44,328.00,31.01
5250,-3.8717,-0.0465,-0.1288,1758.06,124.88,1452.88
5260,-3.8717,-0.0414,-0.1353,-1945.07,-468.87,359.07
5270,-3.8717,-0.0410,-0.1449,-1288.82,-1297.00,1124.69
5280,-3.8717,-0.0455,-0.1580,-1241.94,1468.63,-219.06
5290,-3.8715,-0.0510,-0.1699,-1820.07,-203.25,30.88
5300,-3.8713,-0.0521,-0.1702,1476.81,-1734.50,1359.01
5310,-3.8712,-0.0459,-0.1580,1336.18,-1765.75,-937.87
5320,-3.8710,-0.0316,-0.1420,-1866.94,-203.25,468.38
5330,-3.8708,-0.0151,-0.1251,-38.82,1843.63,1218.44
5340,-3.8707,-0.0018,-0.1117,-1929.44,-0.06,1343.44
5350,-3.8706,0.0084,-0.1075,-226.32,1718.69,624.76
5360,-3.8706,0.0182,-0.1107,1086.18,-1765.62,-1484.62
5370,-3.8706,0.0300,-0.1165,-1663.82,1828.12,-1562.74
5380,-3.8706,0.0441,-0.1255,-148.19,1093.75,15.38
5390,-3.8708,0.0554,-0.1416,1648.68,-62.44,-750.31
5400,-3.8710,0.0569,-0.1570,-898.19,1875.06,890.32
5410,-3.8712,0.0453,-0.1613,-710.69,-93.69,-1734.74
5420,-3.8713,0.0236,-0.1576,1804.93,-640.56,187.13
5430,-3.8716,-0.0006,-0.1525,-976.32,-171.88,-1156.62
5440,-3.8717,-0.0237,-0.1454,-70.07,499.94,-1562.81
5450,-3.8718,-0.0485,-0.1368,976.81,1406.19,-656.56
5460,-3.8718,-0.0729,-0.1307,1804.93,-1500.12,1999.69
5470,-3.8718,-0.0908,-0.1268,-1320.07,-718.93,-1344.06
5480,-3.8717,-0.1011,-0.1276,383.06,-218.93,1046.57
5490,-3.8716,-0.1038,-0.1282,-929.44,-312.74,843.44
5500,-3.8715,-0.0979,-0.1227,-1273.19,-390.87,1624.69
5510,-3.8713,-0.0839,-0.1177,-523.19,312.26,-1437.74
5520,-3.8712,-0.0604,-0.1198,1273.68,952.94,-906.49
5530,-3.8711,-0.0314,-0.1310,273.68,687.38,-1187.74
5540,-3.8710,-0.0046,-0.1415,-7.57,-750.12,1765.32
5550,-3.8708,0.0134,-0.1382,-585.69,1906.19,530.94
5560,-3.8708,0.0186,-0.1229,1726.81,-1687.50,-609.68
5570,-3.8707,0.0128,-0.1069,-1616.94,265.62,-1703.37
5580,-3.8706,0.0038,-0.0988,1648.68,-1687.50,812.26
5590,-3.8706,-0.0002,-0.0983,492.43,-640.62,-1547.12
5600,-3.8706,0.0044,-0.0999,-23.19,-562.56,-1031.49
5610,-3.8706,0.0160,-0.1014,570.56,-781.25,-1890.87
5620,-3.8707,0.0299,-0.1042,-1945.07,-984.38,-359.62
5630,-3.8708,0.0400,-0.1104,-163.82,-1343.75,-406.49
5640,-3.8710,0.0413,-0.1205,1133.06,1875.06,-1453.37
5650,-3.8711,0.0330,-0.1318,1289.31,578.19,1327.88
5660,-3.8712,0.0160,-0.1370,226.81,-874.94,671.57
5670,-3.8713,-0.0085,-0.1349,-1945.07,-1531.25,1046.57
5680,-3.8715,-0.0345,-0.1306,-1085.69,-1250.06,-1234.68
5690,-3.8715,-0.0552,-0.1305,-413.82,-703.25,1624.69
5700,-3.8715,-0.0669,-0.1377,945.56,-687.62,1468.44
5710,-3.8715,-0.0676,-0.1475,-554.44,-1609.56,-1187.81
5720,-3.8713,-0.0586,-0.1533,-648.19,1140.44,1421.57
5730,-3.8712,-0.0419,-0.1504,508.06,390.50,187.19
5740,-3.8712,-0.0217,-0.1437,-1351.32,765.50,-1812.81
5750,-3.8712,-0.0027,-0.1427,1226.81,1624.94,-469.06
5760,-3.8711,0.0090,-0.1445,-335.69,1749.94,1124.69
5770,-3.8711,0.0100,-0.1412,1164.31,1500.00,-656.56
5780,-3.8710,0.0055,-0.1359,1289.31,1921.88,1827.82
5790,-3.8708,0.0043,-0.1364,711.18,-1390.62,202.82
5800,-3.8708,0.0114,-0.1395,554.93,-1453.12,-1937.81
5810,-3.8708,0.0231,-0.1376,1461.18,-1859.38,-1047.18
5820,-3.8708,0.0330,-0.1332,-1038.82,-1609.38,-1390.93
5830,-3.8708,0.0376,-0.1340,226.81,-1046.81,671.57
5840,-3.8710,0.0376,-0.1396,820.56,-1156.19,968.44
5850,-3.8712,0.0325,-0.1428,820.56,-1874.94,-312.81
5860,-3.8713,0.0216,-0.1399,164.31,1718.81,1624.69
5870,-3.8716,0.0055,-0.1328,-1226.32,-1906.25,-359.68
5880,-3.8717,-0.0144,-0.1248,711.18,-1000.00,-1562.81
5890,-3.8718,-0.0328,-0.1173,-1835.69,46.81,-1328.37
5900,-3.8718,-0.0472,-0.1095,-195.07,999.88,1171.63
5910,-3.8718,-0.0553,-0.1031,1961.18,1999.88,-1922.12
5920,-3.8717,-0.0548,-0.1071,929.93,-1187.62,390.38
5930,-3.8717,-0.0480,-0.1167,992.43,-1687.62,-562.74
5940,-3.8716,-0.0417,-0.1213,1867.43,1078.00,-656.49
5950,-3.8713,-0.0416,-0.1243,-1335.69,484.25,515.38
5960,-3.8712,-0.0483,-0.1315,-1320.07,109.25,-1093.99
5970,-3.8710,-0.0602,-0.1423,1820.56,-812.62,1577.82
5980,-3.8708,-0.0724,-0.1467,304.93,1796.75,-500.31
5990,-3.8707,-0.0759,-0.1376,-1257.57,1234.19,-140.93
6000,-3.8706,-0.0609,-0.1255,-1710.69,-1593.93,-1656.56
6010,-3.8706,-0.0283,-0.1210,211.18,-47.00,-890.93
6020,-3.8706,0.0071,-0.1206,383.06,531.19,-1390.87
6030,-3.8706,0.0289,-0.1200,914.31,562.50,1234.13
6040,-3.8707,0.0370,-0.1201,-288.82,640.62,-1047.12
6050,-3.8708,0.0404,-0.1234,742.43,625.06,-125.24
6060,-3.8708,0.0441,-0.1321,1179.93,203.19,734.13
6070,-3.8710,0.0482,-0.1417,1648.68,-906.19,1984.07
6080,-3.8711,0.0507,-0.1476,-1820.07,1859.44,-594.06
6090,-3.8711,0.0496,-0.1534,-1507.57,1109.44,609.07
6100,-3.8712,0.0446,-0.1586,-1648.19,359.44,1499.69
6110,-3.8713,0.0338,-0.1602,1711.18,-296.81,1968.38
6120,-3.8715,0.0182,-0.1595,336.18,-499.94,-1797.24
6130,-3.8716,0.0035,-0.1587,-1663.82,-421.88,-1172.24
6140,-3.8716,-0.0071,-0.1567,461.18,-312.50,109.01
6150,-3.8717,-0.0159,-0.1509,-898.19,-46.94,1968.38
6160,-3.8717,-0.0271,-0.1403,1976.81,703.06,718.44
6170,-3.8717,-0.0405,-0.1313,539.31,-1937.56,499.69
6180,-3.8717,-0.0511,-0.1295,-1179.44,-797.00,1421.57
6190,-3.8717,-0.0537,-0.1285,1461.18,-562.62,-219.06
6200,-3.8716,-0.0470,-0.1226,1133.06,-437.62,-719.06
6210,-3.8715,-0.0315,-0.1134,1992.43,328.00,-640.87
6220,-3.8713,-0.0089,-0.1058,-23.19,1499.88,-422.12
6230,-3.8712,0.0150,-0.1029,-1132.57,-1531.31,-781.49
6240,-3.8711,0.0336,-0.1035,1929.93,-1171.88,1827.88
6250,-3.8711,0.0446,-0.1046,304.93,-1249.94,-703.37
6260,-3.8711,0.0476,-0.1096,1711.18,-1390.56,-468.99
6270,-3.8711,0.0447,-0.1227,-1898.19,1968.81,-1140.87
6280,-3.8711,0.0392,-0.1392,1726.81,296.94,1968.51
6290,-3.8711,0.0306,-0.1525,1023.68,-1812.44,1859.07
6300,-3.8711,0.0168,-0.1599,-70.07,484.38,-609.68
6310,-3.8710,-0.0001,-0.1620,-1835.69,-468.75,-1375.37
6320,-3.8708,-0.0170,-0.1615,-7.57,-718.81,-1047.24
6330,-3.8707,-0.0310,-0.1598,1836.18,-656.31,-547.24
6340,-3.8706,-0.0377,-0.1564,39.31,-437.56,-828.49
6350,-3.8705,-0.0341,-0.1494,-820.07,-0.12,843.38
6360,-3.8706,-0.0206,-0.1377,-351.32,890.50,-844.06
6370,-3.8707,-0.0029,-0.1243,1367.43,-1609.44,1968.44
6380,-3.8710,0.0122,-0.1157,-366.94,109.31,-1531.49
6390,-3.8712,0.0211,-0.1122,1570.56,1187.50,-1453.37
6400,-3.8715,0.0237,-0.1090,-1288.82,1640.62,-187.74
6410,-3.8716,0.0244,-0.1063,-960.69,-1953.12,-890.87
6420,-3.8716,0.0254,-0.1062,-866.94,-1609.38,562.26
6430,-3.8716,0.0275,-0.1069,-741.94,-1593.75,234.13
6440,-3.8716,0.0332,-0.1044,-476.32,-1687.50,-1781.49
6450,-3.8715,0.0403,-0.1016,258.06,-1359.31,1890.38
6460,-3.8713,0.0459,-0.1036,1164.31,-999.94,-1547.12
6470,-3.8712,0.0496,-0.1107,1883.06,-1265.56,-1265.87
6480,-3.8711,0.0498,-0.1190,-1648.19,1828.19,1656.01
6490,-3.8711,0.0452,-0.1228,-1616.94,765.69,-812.74
6500,-3.8711,0.0321,-0.1201,1789.31,281.31,-31.49
6510,-3.8710,0.0103,-0.1177,117.43,625.06,687.26
6520,-3.8710,-0.0142,-0.1216,1320.56,937.50,1531.01
6530,-3.8710,-0.0311,-0.1327,-1804.44,453.06,-1797.12
6540,-3.8710,-0.0342,-0.1477,23.68,-968.81,-1765.93
6550,-3.8710,-0.0254,-0.1615,-366.94,1109.25,1015.32
6560,-3.8711,-0.0131,-0.1697,758.06,-656.31,-1000.37
6570,-3.8711,-0.0081,-0.1682,-1663.82,-1703.19,1140.26
6580,-3.8712,-0.0167,-0.1581,-1023.19,-1515.69,-500.37
6590,-3.8712,-0.0343,-0.1478,1867.43,-218.81,1859.01
6600,-3.8713,-0.0490,-0.1431,-382.57,1093.63,-0.31
6610,-3.8713,-0.0537,-0.1414,1742.43,1703.00,1577.82
6620,-3.8715,-0.0494,-0.1390,1133.06,1921.75,-812.81
6630,-3.8715,-0.0382,-0.1331,1679.93,-1781.37,1499.69
6640,-3.8715,-0.0245,-0.1256,-882.57,-1015.75,687.19
6650,-3.8715,-0.0120,-0.1202,867.43,-62.56,874.69
6660,-3.8715,-0.0024,-0.1168,-1523.19,624.94,-1828.37
6670,-3.8713,-0.0020,-0.1156,-304.44,1062.44,171.63
6680,-3.8713,-0.0092,-0.1158,-241.94,1218.69,-1515.87
6690,-3.8712,-0.0162,-0.1151,-1163.82,1187.44,1046.63
6700,-3.8712,-0.0184,-0.1136,1929.93,1281.19,-297.12
6710,-3.8711,-0.0148,-0.1134,1648.68,1468.69,1843.51
6720,-3.8711,-0.0076,-0.1136,-1882.57,1499.94,-890.87
6730,-3.8711,-0.0031,-0.1160,-960.69,1468.69,-406.49
6740,-3.8711,-0.0057,-0.1216,-382.57,1171.81,-62.74
6750,-3.8710,-0.0142,-0.1293,-726.32,453.06,499.76
6760,-3.8710,-0.0226,-0.1364,-1804.44,-531.31,765.32
6770,-3.8710,-0.0264,-0.1393,1117.43,-1437.56,437.19
6780,-3.8711,-0.0272,-0.1392,633.06,-1812.56,-234.68
6790,-3.8711,-0.0286,-0.1372,523.68,-1796.94,-828.43
6800,-3.8711,-0.0309,-0.1350,351.81,-1546.94,-1312.81
6810,-3.8711,-0.0323,-0.1365,54.93,-1265.69,-1953.43
6820,-3.8711,-0.0312,-0.1410,-132.57,-1453.25,1077.82
6830,-3.8712,-0.0265,-0.1455,8.06,1968.69,-78.43
6840,-3.8712,-0.0198,-0.1462,617.43,1390.56,-1078.43
6850,-3.8712,-0.0156,-0.1415,1476.81,1296.81,-1812.81
6860,-3.8712,-0.0153,-0.1349,-1991.94,1906.19,1780.94
6870,-3.8712,-0.0149,-0.1298,-1945.07,-1250.06,1405.94
6880,-3.8712,-0.0115,-0.1281,-1898.19,-593.81,812.19
6890,-3.8712,-0.0032,-0.1279,-1460.69,-375.06,155.94
6900,-3.8713,0.0050,-0.1281,-398.19,-359.44,-359.68
6910,-3.8713,0.0062,-0.1278,648.68,-390.62,-390.93
6920,-3.8712,-0.0023,-0.1279,804.93,-359.38,359.07
6930,-3.8712,-0.0177,-0.1300,-288.82,-359.44,1843.44
6940,-3.8712,-0.0310,-0.1300,1742.43,-625.06,-734.68
6950,-3.8712,-0.0356,-0.1277,39.31,-625.06,-375.31
6960,-3.8712,-0.0297,-0.1311,-554.44,-328.25,-1578.43
6970,-3.8713,-0.0155,-0.1428,211.18,-765.69,-312.81
6980,-3.8715,-0.0009,-0.1531,-1976.32,1734.31,-47.18
6990,-3.8715,0.0051,-0.1582,-101.32,421.81,312.19
7000,-3.8716,-0.0012,-0.1595,664.31,-250.00,1827.76
7010,-3.8716,-0.0161,-0.1580,-148.19,-406.31,1155.88
7020,-3.8716,-0.0328,-0.1561,1945.56,-203.19,-1562.87
7030,-3.8715,-0.0463,-0.1537,-195.07,31.13,1921.57
7040,-3.8713,-0.0585,-0.1495,-1913.82,343.63,-469.06
7050,-3.8711,-0.0715,-0.1438,523.68,874.88,-1469.06
7060,-3.8708,-0.0834,-0.1361,-1148.19,1609.19,-1922.18
7070,-3.8706,-0.0911,-0.1254,1336.18,-1406.43,1390.32
7080,-3.8705,-0.0909,-0.1084,351.81,-31.43,-719.06
7090,-3.8704,-0.0811,-0.0856,367.43,-1859.56,-1703.37
7100,-3.8704,-0.0626,-0.0645,1633.06,1062.32,1796.69
7110,-3.8705,-0.0402,-0.0533,-7.57,-234.56,1906.07
7120,-3.8707,-0.0182,-0.0541,-1132.57,1187.38,-609.50
7130,-3.8710,0.0013,-0.0624,1679.93,1093.69,-203.25
7140,-3.8711,0.0175,-0.0720,179.93,15.62,765.50
7150,-3.8713,0.0275,-0.0812,-1757.57,-1218.75,-593.93
7160,-3.8713,0.0295,-0.0879,-476.32,1609.38,62.32
7170,-3.8715,0.0228,-0.0913,-210.69,750.00,-1500.18
7180,-3.8715,0.0098,-0.0952,-1070.07,312.50,-1765.81
7190,-3.8715,-0.0057,-0.1036,1258.06,-187.50,-1187.74
7200,-3.8715,-0.0184,-0.1179,-726.32,-1250.06,-562.74
7210,-3.8715,-0.0229,-0.1334,1648.68,921.81,-703.37
7220,-3.8715,-0.0234,-0.1455,1070.56,-1062.56,-1515.93
7230,-3.8715,-0.0299,-0.1521,1008.06,1390.56,1952.82
7240,-3.8715,-0.0480,-0.1542,179.93,546.81,-1719.06
7250,-3.8715,-0.0746,-0.1572,1867.43,281.13,-656.56
7260,-3.8713,-0.0980,-0.1670,-1538.82,-109.56,1030.88
7270,-3.8713,-0.1062,-0.1819,-538.82,-1359.62,-859.74
7280,-3.8712,-0.0931,-0.1942,-1585.69,734.13,1077.76
7290,-3.8712,-0.0627,-0.1996,86.18,-843.93,-1625.43
7300,-3.8712,-0.0294,-0.1996,-23.19,-1531.43,-594.18
7310,-3.8711,-0.0122,-0.1931,242.43,-1531.31,968.32
7320,-3.8711,-0.0210,-0.1765,-1554.44,-703.19,-125.43
7330,-3.8710,-0.0475,-0.1544,1320.56,1421.81,-62.87
7340,-3.8708,-0.0692,-0.1353,1929.93,249.88,-203.43
7350,-3.8707,-0.0642,-0.1221,-851.32,-1297.06,1780.94
7360,-3.8707,-0.0299,-0.1133,-210.69,390.44,609.13
7370,-3.8708,0.0166,-0.1068,179.93,1515.56,327.88
7380,-3.8711,0.0536,-0.1021,-1866.94,-1671.88,-1828.37
7390,-3.8713,0.0693,-0.0985,-1132.57,-1062.44,-62.74
7400,-3.8715,0.0642,-0.0957,883.06,-609.25,-875.24
7410,-3.8716,0.0455,-0.0964,226.81,-249.88,-140.87
7420,-3.8716,0.0221,-0.1034,1836.18,-343.69,1452.88
7430,-3.8717,0.0000,-0.1143,-1163.82,-1234.38,-265.87
7440,-3.8717,-0.0190,-0.1237,8.06,1375.00,-906.49
7450,-3.8717,-0.0353,-0.1284,1570.56,187.44,-218.99
7460,-3.8716,-0.0450,-0.1305,-507.57,-422.00,1905.94
7470,-3.8715,-0.0457,-0.1357,-1757.57,-687.62,1093.44
7480,-3.8713,-0.0416,-0.1479,-1835.69,-1359.50,562.19
7490,-3.8713,-0.0386,-0.1603,-1320.07,1078.00,-297.18
7500,-3.8712,-0.0396,-0.1647,-929.44,-500.12,-1828.49
7510,-3.8711,-0.0428,-0.1614,-1054.44,-1062.62,187.13
7520,-3.8711,-0.0442,-0.1528,-1476.32,-640.75,-1312.87
7530,-3.8710,-0.0422,-0.1440,-1648.19,453.00,1827.82
7540,-3.8708,-0.0376,-0.1375,-1398.19,1578.00,687.19
7550,-3.8708,-0.0289,-0.1302,-804.44,-1578.25,-1359.68
7560,-3.8708,-0.0142,-0.1218,304.93,-656.31,-625.31
7570,-3.8708,0.0044,-0.1176,-1804.44,421.81,-1281.49
7580,-3.8708,0.0215,-0.1167,570.56,953.12,999.76
7590,-3.8710,0.0288,-0.1152,-1241.94,1062.50,-1390.87
7600,-3.8710,0.0233,-0.1127,-304.44,1250.00,31.01
7610,-3.8711,0.0099,-0.1118,-1007.57,1578.12,1718.51
7620,-3.8712,-0.0048,-0.1141,1273.68,1687.50,-203.37
7630,-3.8712,-0.0140,-0.1193,-601.32,1406.19,-1984.62
7640,-3.8712,-0.0165,-0.1265,-1788.82,749.94,124.76
7650,-3.8713,-0.0149,-0.1311,1898.68,-171.94,-1609.68
7660,-3.8713,-0.0134,-0.1310,-1898.19,-765.69,1437.19
7670,-3.8713,-0.0166,-0.1278,-1710.69,-750.06,1968.44
7680,-3.8712,-0.0243,-0.1228,1883.06,-343.81,109.07
7690,-3.8712,-0.0321,-0.1187,898.68,296.81,-781.49
7700,-3.8711,-0.0342,-0.1172,-101.32,828.00,-1812.74
7710,-3.8711,-0.0284,-0.1206,-366.94,1015.50,-15.87
7720,-3.8710,-0.0190,-0.1248,367.43,578.06,156.01
7730,-3.8711,-0.0129,-0.1210,1570.56,46.81,-1047.12
7740,-3.8711,-0.0133,-0.1135,-1648.19,531.19,812.26
7750,-3.8712,-0.0160,-0.1123,-1695.07,1484.31,-1937.74
7760,-3.8713,-0.0177,-0.1217,1961.18,1640.56,-937.74
7770,-3.8713,-0.0184,-0.1356,1742.43,437.44,327.88
7780,-3.8715,-0.0178,-0.1451,1648.68,-1343.81,-1547.18
7790,-3.8715,-0.0193,-0.1523,1726.81,1437.44,1546.57
7800,-3.8715,-0.0259,-0.1548,1539.31,515.56,1921.57
7810,-3.8713,-0.0377,-0.1458,695.56,203.06,140.32
7820,-3.8712,-0.0543,-0.1318,-820.07,1359.25,124.69
7830,-3.8711,-0.0645,-0.1221,1054.93,-859.50,843.44
7840,-3.8710,-0.0587,-0.1196,-241.94,390.44,859.13
7850,-3.8710,-0.0393,-0.1202,492.43,703.00,-828.37
7860,-3.8710,-0.0126,-0.1183,-1023.19,624.88,-328.37
7870,-3.8710,0.0118,-0.1198,-1601.32,874.94,-1468.99
7880,-3.8710,0.0273,-0.1323,1523.68,671.88,109.13
7890,-3.8711,0.0328,-0.1486,-491.94,-937.50,1124.69
7900,-3.8712,0.0276,-0.1537,211.18,984.44,-1297.18
7910,-3.8712,0.0120,-0.1466,-460.69,328.12,1405.94
7920,-3.8712,-0.0094,-0.1360,1539.31,1234.38,1327.82
7930,-3.8712,-0.0311,-0.1263,-1195.07,-1390.69,-1687.81
7940,-3.8712,-0.0494,-0.1185,23.68,-156.31,-15.93
7950,-3.8711,-0.0596,-0.1145,1679.93,843.63,1734.13
7960,-3.8711,-0.0555,-0.1138,383.06,1359.25,-937.74
7970,-3.8711,-0.0406,-0.1140,898.68,1453.00,-531.49
7980,-3.8711,-0.0253,-0.1154,-1195.07,1421.75,-1328.37
7990,-3.8711,-0.0165,-0.1173,773.68,1249.94,937.26
8000,-3.8712,-0.0176,-0.1215,1898.68,999.94,-1312.74
8010,-3.8712,-0.0270,-0.1287,1758.06,468.69,452.88
8020,-3.8713,-0.0383,-0.1339,554.93,-453.19,-1109.68
8030,-3.8713,-0.0455,-0.1340,-898.19,-1125.12,-1953.43
8040,-3.8713,-0.0461,-0.1306,-1820.07,-1140.75,1562.19
8050,-3.8713,-0.0421,-0.1256,-1898.19,-703.25,1359.07
8060,-3.8713,-0.0378,-0.1198,-1382.57,-62.62,1593.44
8070,-3.8713,-0.0360,-0.1141,-835.69,687.38,-1640.87
8080,-3.8713,-0.0369,-0.1124,-601.32,1406.13,-484.62
8090,-3.8712,-0.0393,-0.1156,-710.69,1624.88,812.26
8100,-3.8712,-0.0420,-0.1193,-1023.19,1218.63,-1937.74
8110,-3.8712,-0.0439,-0.1221,-1366.94,749.88,-890.87
8120,-3.8712,-0.0452,-0.1239,-1616.94,390.50,-47.12
8130,-3.8711,-0.0471,-0.1234,-1773.19,156.13,1109.13
8140,-3.8711,-0.0515,-0.1190,1976.81,218.63,-1281.49
8150,-3.8710,-0.0581,-0.1107,1414.31,781.13,265.38
8160,-3.8710,-0.0629,-0.1033,570.56,1843.63,1156.01
8170,-3.8710,-0.0640,-0.1011,-38.82,-1203.31,1187.26
8180,-3.8710,-0.0615,-0.1034,-179.44,-922.06,406.01
8190,-3.8711,-0.0544,-0.1079,133.06,-1218.87,-937.74
8200,-3.8711,-0.0411,-0.1121,1039.31,-1797.00,1562.26
8210,-3.8711,-0.0229,-0.1141,-1257.57,1671.75,218.51
8220,-3.8712,-0.0079,-0.1149,1070.56,1406.19,-859.62
8230,-3.8712,-0.0022,-0.1158,-1007.57,1312.44,-1656.49
8240,-3.8712,-0.0055,-0.1147,-273.19,1187.44,1952.88
8250,-3.8712,-0.0154,-0.1118,-695.07,1328.06,-1906.49
8260,-3.8712,-0.0286,-0.1102,-1960.69,1703.06,-1390.87
8270,-3.8712,-0.0399,-0.1107,351.81,1906.19,-843.99
8280,-3.8712,-0.0438,-0.1135,-1101.32,1843.63,-578.37
8290,-3.8712,-0.0392,-0.1171,-1601.32,1484.25,-703.37
8300,-3.8712,-0.0281,-0.1205,-1007.57,1031.13,-890.87
8310,-3.8712,-0.0151,-0.1227,414.31,593.69,-937.74
8320,-3.8712,-0.0056,-0.1233,-1929.44,312.44,-828.37
8330,-3.8712,0.0005,-0.1241,-710.69,234.31,-656.49
8340,-3.8712,0.0026,-0.1263,70.56,109.38,-593.99
8350,-3.8712,0.0004,-0.1306,336.18,-171.88,-890.93
8360,-3.8712,-0.0056,-0.1349,54.93,-718.75,-1500.31
8370,-3.8712,-0.0165,-0.1357,-710.69,-1250.06,1968.44
8380,-3.8712,-0.0314,-0.1346,1898.68,-1359.44,-1953.43
8390,-3.8712,-0.0464,-0.1327,-7.57,-1218.87,-812.81
8400,-3.8711,-0.0542,-0.1283,-1929.44,-968.87,1265.32
8410,-3.8711,-0.0513,-0.1222,1070.56,-406.37,-484.68
8420,-3.8710,-0.0391,-0.1161,1445.56,374.88,1281.01
8430,-3.8710,-0.0200,-0.1104,-991.94,1156.13,-1718.99
8440,-3.8710,-0.0006,-0.1068,1445.56,1890.56,-1734.62
8450,-3.8710,0.0134,-0.1066,-70.07,-1656.31,1546.63
8460,-3.8710,0.0182,-0.1061,1726.81,-1640.62,624.76
8470,-3.8711,0.0116,-0.1052,-1663.82,-1578.12,-375.24
8480,-3.8711,0.0006,-0.1036,1492.43,-1468.75,-1343.99
8490,-3.8711,-0.0066,-0.1013,86.18,-1265.62,1687.26
8500,-3.8711,-0.0084,-0.1016,-835.69,-953.19,749.76
8510,-3.8711,-0.0050,-0.1036,-1070.07,-984.44,156.01
8520,-3.8712,0.0013,-0.1064,-632.57,-1250.06,-78.37
8530,-3.8711,0.0055,-0.1084,179.93,-1625.00,93.51
8540,-3.8711,0.0028,-0.1068,711.18,-1875.00,499.76
8550,-3.8711,-0.0061,-0.1040,367.43,-1671.88,999.76
8560,-3.8711,-0.0165,-0.1036,-773.19,-1296.94,1562.26
8570,-3.8711,-0.0253,-0.1064,1898.68,-1250.06,1984.13
8580,-3.8711,-0.0320,-0.1097,773.68,-1609.44,-1781.49
8590,-3.8711,-0.0375,-0.1121,-85.69,1968.63,-1843.99
8600,-3.8711,-0.0420,-0.1147,-788.82,1671.75,1671.63
8610,-3.8711,-0.0453,-0.1160,-1366.94,1328.00,937.26
8620,-3.8711,-0.0470,-0.1171,-1788.82,1171.75,46.63
8630,-3.8712,-0.0460,-0.1213,1992.43,1031.13,-922.12
8640,-3.8712,-0.0416,-0.1268,-1882.57,484.25,1812.26
8650,-3.8712,-0.0355,-0.1309,-1320.07,-218.87,280.94
8660,-3.8713,-0.0314,-0.1338,-538.82,-734.50,-1062.81
8670,-3.8713,-0.0338,-0.1349,-7.57,-1109.50,-1672.18
8680,-3.8713,-0.0441,-0.1329,-320.07,-1250.12,-1359.68
8690,-3.8713,-0.0577,-0.1294,-1632.57,-1000.12,-547.18
8700,-3.8712,-0.0681,-0.1276,617.43,-547.00,312.19
8710,-3.8712,-0.0703,-0.1307,-710.69,-312.68,812.19
8720,-3.8712,-0.0623,-0.1360,-991.94,-718.93,593.44
8730,-3.8713,-0.0472,-0.1396,39.31,-1390.75,-265.93
8740,-3.8713,-0.0343,-0.1422,1961.18,-1859.50,-1094.06
8750,-3.8713,-0.0308,-0.1423,-382.57,1812.38,-1515.93
8760,-3.8713,-0.0366,-0.1403,70.56,1796.81,-1687.81
8770,-3.8713,-0.0457,-0.1395,-679.44,-1937.62,-1844.06
8780,-3.8713,-0.0476,-0.1403,-1835.69,-1843.87,-1953.43
8790,-3.8713,-0.0402,-0.1400,1914.31,-1937.62,-1859.68
8800,-3.8713,-0.0295,-0.1381,-1132.57,-1906.37,-1453.43
8810,-3.8713,-0.0216,-0.1348,226.81,-1656.31,-484.68
8820,-3.8712,-0.0193,-0.1313,1242.43,-1234.44,1155.94
8830,-3.8712,-0.0204,-0.1279,1539.31,-796.94,-734.68
8840,-3.8711,-0.0200,-0.1245,1398.68,-359.44,1202.82
8850,-3.8711,-0.0162,-0.1237,1445.56,78.06,-1656.49
8860,-3.8711,-0.0095,-0.1255,1929.93,187.44,-1562.74
8870,-3.8711,-0.0040,-0.1265,-1210.69,-46.94,1562.19
8880,-3.8711,-0.0027,-0.1257,-507.57,-171.94,77.82
8890,-3.8712,-0.0052,-0.1254,-335.69,-78.19,-1531.56
8900,-3.8712,-0.0082,-0.1251,-663.82,-31.31,1140.32
8910,-3.8712,-0.0107,-0.1239,-1038.82,-0.06,374.69
8920,-3.8712,-0.0131,-0.1211,-1366.94,156.19,468.51
8930,-3.8712,-0.0137,-0.1166,-1663.82,515.56,1140.38
8940,-3.8712,-0.0114,-0.1150,-1741.94,1093.69,1702.88
8950,-3.8712,-0.0063,-0.1167,-1445.07,1296.81,-1922.12
8960,-3.8712,-0.0021,-0.1178,-804.44,1078.06,-1484.62
8970,-3.8712,-0.0013,-0.1160,-257.57,937.44,-859.62
8980,-3.8711,-0.0059,-0.1154,-163.82,1171.81,93.51
8990,-3.8711,-0.0120,-0.1172,-741.94,1249.94,1109.13
9000,-3.8711,-0.0145,-0.1194,-1523.19,1015.56,1702.88
9010,-3.8711,-0.0120,-0.1228,-1851.32,734.31,1718.51
9020,-3.8711,-0.0056,-0.1262,-1523.19,296.81,1484.13
9030,-3.8711,-0.0023,-0.1272,-710.69,-140.69,1359.07
9040,-3.8711,-0.0060,-0.1260,-288.82,-265.69,1718.44
9050,-3.8711,-0.0140,-0.1238,-757.57,-109.44,-1281.56
9060,-3.8711,-0.0221,-0.1223,-1788.82,171.81,-15.87
9070,-3.8710,-0.0267,-0.1228,1179.93,359.31,827.88
9080,-3.8710,-0.0270,-0.1255,586.18,296.81,624.76
9090,-3.8711,-0.0255,-0.1281,554.93,-46.94,-594.06
9100,-3.8711,-0.0267,-0.1279,742.43,-375.06,1718.44
9110,-3.8711,-0.0315,-0.1248,586.18,-359.44,30.94
9120,-3.8712,-0.0363,-0.1228,-23.19,46.75,-1593.99
9130,-3.8712,-0.0371,-0.1238,-632.57,296.75,1077.88
9140,-3.8712,-0.0350,-0.1257,-741.94,171.75,484.13
9150,-3.8712,-0.0323,-0.1261,-476.32,-78.25,484.07
9160,-3.8712,-0.0294,-0.1245,-132.57,-125.12,702.82
9170,-3.8712,-0.0256,-0.1230,242.43,78.06,1140.38
9180,-3.8712,-0.0203,-0.1212,726.81,265.56,1765.38
9190,-3.8712,-0.0149,-0.1176,1414.31,499.94,-1703.37
9200,-3.8712,-0.0115,-0.1145,-1898.19,968.69,-1765.87
9210,-3.8712,-0.0096,-0.1155,-1460.69,1359.31,1249.76
9220,-3.8713,-0.0095,-0.1199,-1226.32,1234.31,-140.87
9230,-3.8713,-0.0132,-0.1248,-1210.69,671.81,-1156.49
9240,-3.8713,-0.0200,-0.1273,-1679.44,46.81,-1390.87
9250,-3.8713,-0.0294,-0.1287,1445.56,-281.31,-890.93
9260,-3.8712,-0.0406,-0.1306,242.43,-453.19,46.57
9270,-3.8712,-0.0509,-0.1312,-1195.07,-703.25,1359.07
9280,-3.8712,-0.0570,-0.1293,1492.43,-781.37,-1047.18
9290,-3.8711,-0.0560,-0.1259,711.18,-531.37,530.94
9300,-3.8711,-0.0475,-0.1229,836.18,-93.87,1734.07
9310,-3.8711,-0.0349,-0.1210,1929.93,281.13,-1500.24
9320,-3.8711,-0.0219,-0.1195,-460.69,531.13,-1187.74
9330,-3.8711,-0.0129,-0.1188,1211.18,718.69,-1359.62
9340,-3.8711,-0.0100,-0.1187,-1648.19,812.44,1984.13
9350,-3.8711,-0.0105,-0.1183,-1273.19,828.06,1109.13
9360,-3.8711,-0.0128,-0.1180,-1335.69,874.94,452.88
9370,-3.8711,-0.0170,-0.1195,-1632.57,906.19,46.63
9380,-3.8712,-0.0219,-0.1226,1836.18,718.69,-125.24
9390,-3.8711,-0.0262,-0.1243,1211.18,328.06,77.88
9400,-3.8711,-0.0299,-0.1241,648.68,109.31,624.76
9410,-3.8711,-0.0326,-0.1230,179.93,124.94,1171.63
9420,-3.8711,-0.0333,-0.1202,-163.82,265.50,1499.76
9430,-3.8711,-0.0345,-0.1168,-257.57,624.88,1734.13
9440,-3.8711,-0.0382,-0.1136,-413.82,1062.38,1827.88
9450,-3.8711,-0.0400,-0.1097,-882.57,1468.63,1593.51
9460,-3.8711,-0.0365,-0.1058,-1116.94,1968.63,999.76
9470,-3.8711,-0.0293,-0.1057,-663.82,-1531.37,374.76
9480,-3.8711,-0.0227,-0.1090,258.06,-1515.69,15.38
9490,-3.8712,-0.0205,-0.1119,1101.81,-1937.56,-125.24
9500,-3.8712,-0.0228,-0.1144,1383.06,1687.44,-203.37
9510,-3.8712,-0.0262,-0.1161,1086.18,1374.94,-234.62
9520,-3.8712,-0.0280,-0.1160,648.68,1156.19,-156.49
9530,-3.8712,-0.0289,-0.1158,429.93,1171.81,-125.24
9540,-3.8712,-0.0319,-0.1180,304.93,1187.44,-62.74
9550,-3.8711,-0.0371,-0.1210,-70.07,906.13,77.88
9560,-3.8711,-0.0438,-0.1218,-741.94,531.13,46.63
9570,-3.8712,-0.0518,-0.1224,-1601.32,421.75,-328.37
9580,-3.8712,-0.0565,-0.1262,1383.06,343.63,-1015.87
9590,-3.8712,-0.0537,-0.1327,773.68,-140.75,-1750.31
9600,-3.8712,-0.0446,-0.1378,1133.06,-968.87,1562.19
9610,-3.8712,-0.0332,-0.1390,-1695.07,-1625.12,1015.32
9620,-3.8712,-0.0258,-0.1376,-241.94,-1781.37,796.57
9630,-3.8712,-0.0262,-0.1357,711.18,-1593.81,1030.94
9640,-3.8712,-0.0331,-0.1339,648.68,-1359.44,1655.94
9650,-3.8712,-0.0393,-0.1312,-226.32,-1125.12,-1484.68
9660,-3.8712,-0.0400,-0.1287,-1023.19,-781.37,-859.68
9670,-3.8712,-0.0350,-0.1279,-1116.94,-453.25,-953.43
9680,-3.8712,-0.0261,-0.1282,-476.32,-359.50,-1750.31
9690,-3.8712,-0.0166,-0.1294,664.31,-390.69,1234.07
9700,-3.8712,-0.0085,-0.1305,1883.06,-546.94,484.07
9710,-3.8712,-0.0038,-0.1294,-1085.69,-687.56,202.82
9720,-3.8712,-0.0033,-0.1273,-476.32,-546.94,327.82
9730,-3.8712,-0.0032,-0.1263,-413.82,-281.31,859.07
9740,-3.8712,-0.0026,-0.1272,-398.19,-156.31,1624.69
9750,-3.8712,-0.0033,-0.1272,-320.07,-265.69,-1500.31
9760,-3.8712,-0.0055,-0.1254,-413.82,-265.69,-515.93
9770,-3.8711,-0.0078,-0.1244,-695.07,-31.31,218.44
9780,-3.8711,-0.0088,-0.1259,-991.94,93.69,249.76
9790,-3.8712,-0.0066,-0.1282,-1116.94,-93.81,-422.18
9800,-3.8712,-0.0013,-0.1289,-835.69,-390.69,-1328.43
9810,-3.8712,0.0051,-0.1294,-163.82,-484.44,1765.32
9820,-3.8712,0.0111,-0.1300,664.31,-562.50,734.07
9830,-3.8712,0.0149,-0.1285,1429.93,-640.62,46.57
9840,-3.8712,0.0151,-0.1251,1914.31,-453.12,202.82
9850,-3.8712,0.0126,-0.1229,1945.56,-15.62,1312.19
9860,-3.8712,0.0100,-0.1238,1617.43,265.62,-1078.37
9870,-3.8711,0.0085,-0.1260,1289.31,156.25,327.88
9880,-3.8711,0.0056,-0.1273,1101.81,-125.00,1015.32
9890,-3.8711,0.0011,-0.1271,726.81,-296.88,874.69
9900,-3.8711,-0.0018,-0.1260,148.68,-265.62,312.19
9910,-3.8712,-0.0005,-0.1252,-226.32,-109.44,-234.68
9920,-3.8712,0.0043,-0.1254,-54.44,-15.69,-578.43
9930,-3.8712,0.0081,-0.1254,554.93,-46.88,-484.68
9940,-3.8711,0.0079,-0.1250,1039.31,-46.88,30.94
9950,-3.8711,0.0051,-0.1237,1023.68,0.00,781.01
9960,-3.8711,0.0015,-0.1207,664.31,171.88,1499.76
9970,-3.8711,-0.0011,-0.1190,195.56,546.88,1827.88
9980,-3.8711,-0.0001,-0.1210,-132.57,781.19,1593.51
9990,-3.8711,0.0044,-0.1246,-7.57,531.19,1062.26
10000,-3.8711,0.0095,-0.1250,570.56,46.88,562.26
10010,-3.8711,0.0104,-0.1232,1226.81,0.00,124.76
10020,-3.8712,0.0060,-0.1228,1336.18,234.38,-15.87
10030,-3.8711,-0.0015,-0.1223,773.68,281.25,265.38
10040,-3.8711,-0.0101,-0.1201,-179.44,359.31,906.01
10050,-3.8711,-0.0166,-0.1184,-1288.82,640.56,1749.76
10060,-3.8711,-0.0199,-0.1182,1883.06,859.31,-1468.99
10070,-3.8711,-0.0195,-0.1176,1461.18,890.56,-937.74
10080,-3.8711,-0.0145,-0.1174,1508.06,968.69,-875.24
10090,-3.8711,-0.0070,-0.1201,-1851.32,984.31,-1343.99
10100,-3.8711,-0.0017,-0.1235,-882.57,640.56,1812.26
10110,-3.8711,-0.0040,-0.1255,-210.69,203.06,749.76
10120,-3.8712,-0.0135,-0.1270,-507.57,-46.94,-328.43
10130,-3.8712,-0.0227,-0.1292,-1726.32,-234.44,-1344.06
10140,-3.8712,-0.0239,-0.1318,1101.81,-515.69,1515.32
10150,-3.8712,-0.0175,-0.1334,945.56,-859.44,312.19
10160,-3.8713,-0.0067,-0.1317,1773.68,-1062.56,-500.31
10170,-3.8713,0.0033,-0.1279,-851.32,-843.81,-640.93
10180,-3.8712,0.0098,-0.1249,429.93,-375.00,93.44
10190,-3.8712,0.0118,-0.1230,1258.06,15.62,1327.88
10200,-3.8712,0.0094,-0.1221,1523.68,250.00,-1500.24
10210,-3.8712,0.0044,-0.1224,1211.18,375.00,-547.12
10220,-3.8711,-0.0022,-0.1243,570.56,328.12,156.01
10230,-3.8711,-0.0083,-0.1254,-273.19,109.31,452.88
10240,-3.8711,-0.0089,-0.1259,-1054.44,-31.31,109.07
10250,-3.8712,-0.0027,-0.1279,-1132.57,-93.81,-890.93
10260,-3.8712,0.0042,-0.1302,-335.69,-359.44,-1984.68
10270,-3.8712,0.0035,-0.1307,539.31,-671.88,1437.19
10280,-3.8712,-0.0037,-0.1288,461.18,-734.38,1515.32
10290,-3.8712,-0.0121,-0.1268,-460.69,-468.81,-1765.93
10300,-3.8712,-0.0178,-0.1257,-1538.82,-218.81,-812.81
10310,-3.8711,-0.0212,-0.1241,1726.81,-78.19,62.19
10320,-3.8711,-0.0243,-0.1238,1289.31,124.94,827.88
10330,-3.8711,-0.0275,-0.1244,898.68,171.81,1374.76
10340,-3.8711,-0.0304,-0.1256,492.43,93.69,1249.76
10350,-3.8711,-0.0303,-0.1285,117.43,-62.56,140.32
10360,-3.8712,-0.0255,-0.1316,133.06,-437.56,-1390.93
10370,-3.8712,-0.0190,-0.1307,742.43,-828.19,1374.69
10380,-3.8712,-0.0149,-0.1250,1570.56,-718.81,843.44
10390,-3.8712,-0.0142,-0.1195,-1898.19,15.56,1140.38
10400,-3.8712,-0.0131,-0.1163,-1804.44,718.69,-1812.74
10410,-3.8712,-0.0107,-0.1145,-1663.82,1124.94,-500.24
10420,-3.8711,-0.0112,-0.1149,-1366.94,1359.31,718.51
10430,-3.8711,-0.0161,-0.1171,-1429.44,1312.44,1812.26
10440,-3.8711,-0.0250,-0.1188,1945.56,1031.19,-1453.37
10450,-3.8711,-0.0336,-0.1195,804.93,812.44,-1234.62
10460,-3.8711,-0.0376,-0.1195,-288.82,718.63,-1562.74
10470,-3.8711,-0.0375,-0.1189,-804.44,718.63,1827.88
10480,-3.8711,-0.0350,-0.1174,-788.82,796.75,1265.38
10490,-3.8711,-0.0316,-0.1172,-476.32,984.25,859.13
10500,-3.8711,-0.0282,-0.1187,-38.82,1015.50,656.01
10510,-3.8711,-0.0250,-0.1194,398.68,828.06,749.76
10520,-3.8711,-0.0237,-0.1188,804.93,734.31,890.38
10530,-3.8711,-0.0247,-0.1176,976.81,812.44,968.51
10540,-3.8711,-0.0266,-0.1195,851.81,968.69,890.38
10550,-3.8711,-0.0291,-0.1235,601.81,718.69,593.51
10560,-3.8711,-0.0320,-0.1250,289.31,203.06,202.88
10570,-3.8712,-0.0355,-0.1243,-85.69,15.50,-250.24
10580,-3.8712,-0.0386,-0.1233,-538.82,109.25,-828.37
10590,-3.8712,-0.0388,-0.1238,-929.44,234.25,-1625.24
10600,-3.8712,-0.0372,-0.1270,-960.69,171.75,1624.76
10610,-3.8712,-0.0345,-0.1313,-757.57,-234.50,1312.19
10620,-3.8712,-0.0321,-0.1334,-413.82,-797.00,1327.82
10630,-3.8712,-0.0321,-0.1310,-101.32,-1062.62,1374.69
10640,-3.8712,-0.0330,-0.1265,-101.32,-750.12,1593.44
10650,-3.8712,-0.0316,-0.1230,-210.69,-172.00,-1781.56
10660,-3.8712,-0.0286,-0.1213,-38.82,265.50,-875.24
10670,-3.8712,-0.0254,-0.1211,351.81,484.31,-125.24
10680,-3.8711,-0.0227,-0.1235,758.06,515.56,109.13
10690,-3.8712,-0.0198,-0.1293,1101.81,203.06,-250.24
10700,-3.8712,-0.0157,-0.1328,1476.81,-531.31,-1109.68
10710,-3.8712,-0.0134,-0.1318,1992.43,-984.44,1827.82
10720,-3.8712,-0.0142,-0.1304,-1710.69,-859.44,1171.57
10730,-3.8712,-0.0188,-0.1311,-1804.44,-671.94,1234.07
10740,-3.8712,-0.0281,-0.1326,1601.81,-765.69,1780.94
10750,-3.8712,-0.0380,-0.1344,414.31,-953.19,-1750.31
10760,-3.8712,-0.0425,-0.1378,-851.32,-1187.62,-1765.93
10770,-3.8712,-0.0403,-0.1394,-1429.44,-1625.12,1780.94
10780,-3.8712,-0.0356,-0.1375,-1148.19,-1828.25,1280.94
10790,-3.8712,-0.0308,-0.1351,-554.44,-1578.25,999.69
10800,-3.8712,-0.0273,-0.1357,70.56,-1281.31,1109.07
10810,-3.8712,-0.0262,-0.1381,508.06,-1359.44,1515.32
10820,-3.8712,-0.0261,-0.1376,648.68,-1656.31,-1875.31
10830,-3.8712,-0.0253,-0.1344,664.31,-1593.81,-1109.68
10840,-3.8712,-0.0229,-0.1313,773.68,-1187.56,-297.18
10850,-3.8711,-0.0195,-0.1268,1070.56,-796.94,405.94
10860,-3.8711,-0.0164,-0.1237,1508.06,-218.81,702.82
10870,-3.8711,-0.0126,-0.1256,1914.31,187.44,468.51
10880,-3.8712,-0.0088,-0.1295,-1601.32,-62.56,-203.43
10890,-3.8712,-0.0063,-0.1316,-1116.94,-562.56,-1312.81
10900,-3.8712,-0.0050,-0.1337,-804.44,-828.19,1405.94
10910,-3.8712,-0.0050,-0.1368,-632.57,-1093.81,577.82
10920,-3.8712,-0.0084,-0.1395,-632.57,-1500.06,265.32
10930,-3.8712,-0.0160,-0.1394,-1070.07,-1843.81,343.44
10940,-3.8712,-0.0247,-0.1348,1961.18,-1828.19,921.57
10950,-3.8712,-0.0308,-0.1285,851.81,-1234.44,1984.07
10960,-3.8712,-0.0323,-0.1251,70.56,-437.56,-562.81
10970,-3.8711,-0.0280,-0.1254,-132.57,-0.12,999.69
10980,-3.8711,-0.0195,-0.1268,429.93,-31.31,1890.32
10990,-3.8711,-0.0109,-0.1272,1508.06,-218.81,1780.94
11000,-3.8711,-0.0051,-0.1285,-1382.57,-265.69,890.32
11010,-3.8712,-0.0035,-0.1311,-648.19,-437.56,-297.18
11020,-3.8712,-0.0043,-0.1320,-445.07,-765.69,-1453.43
11030,-3.8712,-0.0078,-0.1316,-538.82,-875.06,1780.94
11040,-3.8712,-0.0114,-0.1304,-991.94,-828.19,1734.07
11050,-3.8712,-0.0117,-0.1298,-1445.07,-671.94,-1797.18
11060,-3.8712,-0.0092,-0.1296,-1491.94,-593.81,-1281.56
11070,-3.8712,-0.0062,-0.1270,-1163.82,-578.19,-984.68
11080,-3.8712,-0.0071,-0.1241,-788.82,-234.44,-1000.31
11090,-3.8712,-0.0111,-0.1218,-898.19,124.94,-953.37
11100,-3.8712,-0.0167,-0.1200,-1413.82,421.81,-640.87
11110,-3.8712,-0.0223,-0.1211,1867.43,656.19,-218.99
11120,-3.8711,-0.0234,-0.1246,1148.68,515.56,202.88
11130,-3.8711,-0.0201,-0.1300,1008.06,62.44,484.13
11140,-3.8711,-0.0173,-0.1343,1429.93,-625.06,593.44
11150,-3.8711,-0.0195,-0.1335,1789.31,-1171.94,609.07
11160,-3.8711,-0.0269,-0.1307,1508.06,-1078.19,609.07
11170,-3.8711,-0.0334,-0.1300,570.56,-718.81,468.44
11180,-3.8712,-0.0347,-0.1312,-273.19,-625.12,-187.81
11190,-3.8712,-0.0311,-0.1327,-429.44,-781.37,-1375.31
11200,-3.8712,-0.0260,-0.1337,23.68,-968.81,1046.57
11210,-3.8713,-0.0220,-0.1351,679.93,-1093.81,-453.43
11220,-3.8713,-0.0199,-0.1373,1195.56,-1281.31,-1156.56
11230,-3.8713,-0.0205,-0.1372,1461.18,-1562.56,-812.81
11240,-3.8712,-0.0236,-0.1348,1383.06,-1546.94,155.94
11250,-3.8712,-0.0271,-0.1329,992.43,-1234.44,1187.19
11260,-3.8712,-0.0294,-0.1315,539.31,-1000.06,-1859.68
11270,-3.8712,-0.0302,-0.1288,242.43,-812.56,-844.06
11280,-3.8712,-0.0293,-0.1254,148.68,-468.81,-109.68
11290,-3.8712,-0.0275,-0.1248,258.06,-31.31,-172.18
11300,-3.8712,-0.0248,-0.1254,492.43,46.81,-734.62
11310,-3.8712,-0.0249,-0.1246,836.18,-31.31,-1281.56
11320,-3.8712,-0.0310,-0.1233,820.56,62.44,-1531.49
11330,-3.8712,-0.0398,-0.1208,39.31,234.31,-1312.74
11340,-3.8712,-0.0459,-0.1189,-1085.69,546.75,-843.99
11350,-3.8712,-0.0442,-0.1189,-1866.94,796.75,-187.74
11360,-3.8711,-0.0359,-0.1200,-1648.19,796.75,609.13
11370,-3.8711,-0.0259,-0.1199,-585.69,656.13,1406.01
11380,-3.8711,-0.0168,-0.1194,695.56,671.81,-1937.74
11390,-3.8711,-0.0107,-0.1204,1851.81,734.31,-1453.37
11400,-3.8711,-0.0100,-0.1215,-1366.94,609.31,-1109.62
11410,-3.8711,-0.0151,-0.1211,-1273.19,468.69,-906.49
11420,-3.8711,-0.0215,-0.1205,-1929.44,515.56,-953.37
11430,-3.8711,-0.0231,-0.1208,1258.06,593.69,-1437.74
11440,-3.8711,-0.0199,-0.1202,1054.93,546.81,1656.01
11450,-3.8711,-0.0179,-0.1172,1461.18,624.94,687.26
11460,-3.8711,-0.0206,-0.1140,1711.18,1015.56,46.63
11470,-3.8712,-0.0265,-0.1135,1367.43,1421.81,-62.74
11480,-3.8711,-0.0305,-0.1149,617.43,1484.31,124.76
11490,-3.8711,-0.0277,-0.1177,101.81,1312.44,202.88
11500,-3.8712,-0.0188,-0.1228,461.18,953.06,-156.49
11510,-3.8712,-0.0103,-0.1279,1601.81,296.81,-937.74
11520,-3.8712,-0.0085,-0.1306,-1304.44,-359.44,-1890.93
11530,-3.8712,-0.0148,-0.1307,-1085.69,-703.19,1359.07
11540,-3.8712,-0.0236,-0.1289,-1882.57,-718.81,1062.19
11550,-3.8712,-0.0298,-0.1268,992.43,-484.44,1234.07
11560,-3.8712,-0.0311,-0.1237,195.56,-218.81,1812.19
11570,-3.8712,-0.0287,-0.1200,23.68,187.44,-1297.12
11580,-3.8712,-0.0254,-0.1172,336.18,656.19,-328.37
11590,-3.8711,-0.0223,-0.1166,758.06,1015.56,562.26
11600,-3.8711,-0.0182,-0.1191,1148.68,1093.69,1265.38
11610,-3.8711,-0.0133,-0.1248,1679.93,765.56,1484.13
11620,-3.8711,-0.0100,-0.1302,-1695.07,46.81,1031.01
11630,-3.8711,-0.0107,-0.1326,-1273.19,-656.31,140.32
11640,-3.8712,-0.0166,-0.1323,-1366.94,-953.19,-828.43
11650,-3.8712,-0.0229,-0.1326,1883.06,-921.94,-1672.18
11660,-3.8712,-0.0266,-0.1331,1070.56,-953.19,1702.82
11670,-3.8712,-0.0303,-0.1315,601.81,-1015.69,1202.82
11680,-3.8712,-0.0358,-0.1287,133.06,-812.56,687.19
11690,-3.8712,-0.0393,-0.1278,-570.07,-453.25,280.94
11700,-3.8712,-0.0370,-0.1290,-1023.19,-343.87,249.69
11710,-3.8712,-0.0315,-0.1306,-726.32,-500.12,812.19
11720,-3.8712,-0.0272,-0.1311,-23.19,-703.25,-1859.68
11730,-3.8712,-0.0280,-0.1313,523.68,-765.69,-62.81
11740,-3.8711,-0.0339,-0.1310,429.93,-796.94,1671.57
11750,-3.8711,-0.0433,-0.1274,-335.69,-750.12,-1047.18
11760,-3.8711,-0.0511,-0.1235,-1538.82,-297.00,-812.81
11770,-3.8711,-0.0510,-0.1224,1461.18,203.00,-1937.74
11780,-3.8712,-0.0425,-0.1235,1476.81,343.63,-47.12
11790,-3.8712,-0.0303,-0.1243,-1429.44,203.00,1499.76
11800,-3.8713,-0.0211,-0.1237,133.06,109.31,-593.99
11810,-3.8713,-0.0177,-0.1227,1304.93,187.44,-1656.49
11820,-3.8713,-0.0197,-0.1215,1742.43,312.44,-1453.37
11830,-3.8713,-0.0251,-0.1200,1492.43,468.69,-343.99
11840,-3.8712,-0.0303,-0.1194,789.31,656.19,1109.13
11850,-3.8712,-0.0333,-0.1199,133.06,734.31,-1422.12
11860,-3.8711,-0.0364,-0.1198,-257.57,671.75,31.01
11870,-3.8711,-0.0414,-0.1191,-648.19,687.38,1234.13
11880,-3.8711,-0.0479,-0.1201,-1288.82,765.50,1796.63
11890,-3.8711,-0.0533,-0.1234,1883.06,640.50,-1968.99
11900,-3.8711,-0.0560,-0.1262,1179.93,218.63,-1609.62
11910,-3.8711,-0.0559,-0.1266,836.18,-140.75,-1156.56
11920,-3.8711,-0.0511,-0.1268,851.81,-187.62,-969.06
11930,-3.8711,-0.0417,-0.1284,1461.18,-218.87,-1265.93
11940,-3.8711,-0.0317,-0.1313,-1335.69,-422.00,1796.57
11950,-3.8711,-0.0258,-0.1329,-54.44,-797.00,421.57
11960,-3.8712,-0.0261,-0.1317,711.18,-1000.06,-969.06
11970,-3.8712,-0.0309,-0.1295,664.31,-843.81,1874.69
11980,-3.8712,-0.0355,-0.1283,54.93,-562.56,1077.82
11990,-3.8712,-0.0363,-0.1290,-538.82,-406.37,593.44
12000,-3.8712,-0.0330,-0.1296,-632.57,-500.12,234.07
12010,-3.8712,-0.0281,-0.1289,-210.69,-578.25,93.44
12020,-3.8712,-0.0244,-0.1273,414.31,-484.44,405.94
12030,-3.8712,-0.0237,-0.1249,883.06,-281.31,1187.19
12040,-3.8712,-0.0249,-0.1232,976.81,31.19,-1812.74
12050,-3.8712,-0.0249,-0.1235,820.56,249.94,-672.12
12060,-3.8711,-0.0227,-0.1245,820.56,203.06,327.88
12070,-3.8711,-0.0206,-0.1257,1101.81,78.06,749.76
12080,-3.8711,-0.0195,-0.1282,1367.43,-78.19,343.44
12090,-3.8712,-0.0198,-0.1322,1508.06,-390.69,-1015.93
12100,-3.8712,-0.0219,-0.1354,1476.81,-906.31,1234.07
12110,-3.8713,-0.0258,-0.1359,1211.18,-1312.56,-125.31
12120,-3.8713,-0.0286,-0.1345,711.18,-1375.06,-672.18
12130,-3.8713,-0.0261,-0.1304,351.81,-1203.19,-281.56
12140,-3.8712,-0.0193,-0.1270,664.31,-671.94,890.32
12150,-3.8712,-0.0134,-0.1273,1539.31,-234.44,-1578.43
12160,-3.8712,-0.0115,-0.1282,-1710.69,-281.31,-390.93
12170,-3.8711,-0.0127,-0.1277,-1460.69,-390.69,77.82
12180,-3.8711,-0.0153,-0.1271,-1616.94,-328.19,15.32
12190,-3.8712,-0.0172,-0.1259,-1945.07,-250.06,-328.43
12200,-3.8712,-0.0190,-0.1250,1804.93,-93.81,-797.18
12210,-3.8712,-0.0223,-0.1259,1570.56,15.56,-1172.12
12220,-3.8712,-0.0275,-0.1246,1148.68,-93.81,-1390.93
12230,-3.8712,-0.0330,-0.1210,492.43,62.44,-1500.24
12240,-3.8712,-0.0355,-0.1202,-210.69,531.13,-1218.99
12250,-3.8712,-0.0337,-0.1229,-538.82,624.88,-578.37
12260,-3.8712,-0.0283,-0.1237,-304.44,281.13,-140.87
12270,-3.8712,-0.0203,-0.1224,383.06,187.44,-234.62
12280,-3.8712,-0.0122,-0.1239,1414.31,343.69,-765.87
12290,-3.8712,-0.0079,-0.1277,-1554.44,156.19,-1484.62
12300,-3.8712,-0.0109,-0.1296,-1007.57,-328.19,1905.94
12310,-3.8712,-0.0210,-0.1295,-1382.57,-578.19,1984.07
12320,-3.8712,-0.0322,-0.1285,1320.56,-562.56,-1172.18
12330,-3.8712,-0.0374,-0.1284,-116.94,-437.62,-219.06
12340,-3.8711,-0.0356,-0.1301,-773.19,-422.00,515.32
12350,-3.8711,-0.0320,-0.1318,-554.44,-640.75,1062.19
12360,-3.8711,-0.0319,-0.1309,-85.69,-859.50,1546.57
12370,-3.8711,-0.0361,-0.1284,-70.07,-734.50,1952.82
12380,-3.8711,-0.0410,-0.1256,-616.94,-422.00,-1781.56
12390,-3.8711,-0.0420,-0.1223,-1241.94,-62.62,-1797.18
12400,-3.8711,-0.0377,-0.1204,-1366.94,359.25,1796.63
12410,-3.8711,-0.0298,-0.1200,-820.07,609.25,1077.88
12420,-3.8711,-0.0219,-0.1205,195.56,656.19,249.76
12430,-3.8712,-0.0162,-0.1201,1211.18,593.69,-453.37
12440,-3.8712,-0.0135,-0.1180,1929.93,640.56,-968.99
12450,-3.8712,-0.0135,-0.1179,-1726.32,906.19,-1297.12
12460,-3.8712,-0.0153,-0.1205,-1726.32,921.81,-1422.12
12470,-3.8712,-0.0190,-0.1211,-1945.07,593.69,-1640.87
12480,-3.8712,-0.0239,-0.1210,1570.56,515.56,-1937.74
12490,-3.8712,-0.0264,-0.1216,945.56,531.19,1890.38
12500,-3.8712,-0.0250,-0.1210,633.06,453.06,-1984.62
12510,-3.8712,-0.0232,-0.1193,804.93,531.19,-1625.24
12520,-3.8712,-0.0238,-0.1184,1039.31,749.94,-1078.37
12530,-3.8712,-0.0265,-0.1178,961.18,859.31,-312.74
12540,-3.8711,-0.0304,-0.1171,617.43,937.44,577.88
12550,-3.8711,-0.0328,-0.1166,117.43,1031.19,1343.51
12560,-3.8711,-0.0315,-0.1178,-195.07,1093.63,1531.01
12570,-3.8711,-0.0267,-0.1212,-23.19,937.38,1046.63
12580,-3.8711,-0.0208,-0.1241,586.18,499.94,265.38
12590,-3.8712,-0.0168,-0.1246,1351.81,124.94,-422.12
12600,-3.8712,-0.0157,-0.1283,1851.81,62.44,-1062.74
12610,-3.8712,-0.0181,-0.1354,1992.43,-406.31,-1734.68
12620,-3.8712,-0.0206,-0.1362,1695.56,-1312.56,1640.32
12630,-3.8712,-0.0195,-0.1331,1367.43,-1421.94,921.57
12640,-3.8712,-0.0142,-0.1332,1508.06,-1015.69,437.19
12650,-3.8712,-0.0095,-0.1332,-1804.44,-1031.31,874.69
12660,-3.8712,-0.0115,-0.1306,-1210.69,-1031.31,1984.07
12670,-3.8712,-0.0182,-0.1289,-1460.69,-703.19,-734.68
12680,-3.8711,-0.0255,-0.1274,1679.93,-484.44,484.07
12690,-3.8711,-0.0317,-0.1259,742.43,-296.94,1405.94
12700,-3.8711,-0.0333,-0.1250,-54.44,-93.87,1905.94
12710,-3.8711,-0.0278,-0.1229,-257.57,15.50,1749.76
12720,-3.8711,-0.0194,-0.1218,445.56,281.19,952.88
12730,-3.8712,-0.0121,-0.1227,1523.68,421.81,-140.87
12740,-3.8712,-0.0081,-0.1233,-1538.82,312.44,-1297.12
12750,-3.8712,-0.0078,-0.1233,-1023.19,234.31,1812.26
12760,-3.8712,-0.0100,-0.1238,-991.94,234.31,1296.63
12770,-3.8712,-0.0131,-0.1233,-1273.19,171.81,1202.88
12780,-3.8712,-0.0166,-0.1228,-1663.82,234.31,1531.01
12790,-3.8712,-0.0190,-0.1229,1883.06,296.81,1952.88
12800,-3.8712,-0.0195,-0.1222,1570.56,281.19,-1593.99
12810,-3.8712,-0.0187,-0.1213,1508.06,374.94,-1047.12
12820,-3.8712,-0.0146,-0.1205,1617.43,484.31,-468.99
12830,-3.8711,-0.0093,-0.1188,-1866.94,593.69,171.63
12840,-3.8711,-0.0073,-0.1174,-1179.44,812.44,687.26
12850,-3.8711,-0.0090,-0.1190,-929.44,984.31,968.51
12860,-3.8711,-0.0137,-0.1216,-1148.19,781.19,906.01
12870,-3.8711,-0.0189,-0.1235,-1741.94,453.06,484.13
12880,-3.8712,-0.0216,-0.1257,1586.18,203.06,-140.87
12890,-3.8712,-0.0227,-0.1284,1242.43,-78.19,-859.68
12900,-3.8712,-0.0240,-0.1306,1101.81,-421.94,-1469.06
12910,-3.8712,-0.0278,-0.1318,929.93,-703.19,-1719.06
12920,-3.8712,-0.0344,-0.1321,445.56,-859.44,-1344.06
12930,-3.8712,-0.0405,-0.1305,-398.19,-890.75,-390.93
12940,-3.8711,-0.0427,-0.1279,-1179.44,-687.62,640.32
12950,-3.8711,-0.0394,-0.1266,-1460.69,-359.50,1421.57
12960,-3.8711,-0.0297,-0.1260,-1038.82,-187.62,1796.57
12970,-3.8711,-0.0178,-0.1249,211.18,-109.44,1499.69
12980,-3.8711,-0.0103,-0.1228,1726.81,31.19,671.63
12990,-3.8712,-0.0089,-0.1206,-1304.44,296.81,-93.99
13000,-3.8712,-0.0129,-0.1208,-1132.57,578.06,-500.24
13010,-3.8712,-0.0204,-0.1224,-1648.19,546.81,-656.49
13020,-3.8712,-0.0278,-0.1235,1398.68,343.69,-640.87
13030,-3.8712,-0.0311,-0.1250,445.56,203.06,-625.24
13040,-3.8712,-0.0289,-0.1262,23.68,15.56,-797.12
13050,-3.8712,-0.0236,-0.1262,304.93,-140.69,-1062.81
13060,-3.8712,-0.0210,-0.1261,992.43,-140.69,-1219.06
13070,-3.8712,-0.0234,-0.1254,1320.56,-125.06,-1265.93
13080,-3.8712,-0.0273,-0.1240,1008.06,-31.31,-1375.31
13090,-3.8712,-0.0287,-0.1232,508.06,140.56,-1625.24
13100,-3.8712,-0.0259,-0.1238,336.18,249.94,-1781.49
13110,-3.8712,-0.0208,-0.1260,695.56,171.81,-1906.49
13120,-3.8712,-0.0170,-0.1293,1351.81,-109.44,1827.82
13130,-3.8712,-0.0170,-0.1322,1836.18,-531.31,1530.94
13140,-3.8712,-0.0194,-0.1334,1836.18,-906.31,1452.82
13150,-3.8712,-0.0211,-0.1339,1523.68,-1062.56,1655.94
13160,-3.8712,-0.0210,-0.1348,1304.93,-1125.06,1968.44
13170,-3.8712,-0.0205,-0.1351,1320.56,-1234.44,-1765.93
13180,-3.8712,-0.0201,-0.1333,1383.06,-1281.31,-1703.43
13190,-3.8712,-0.0195,-0.1312,1429.93,-1046.94,-1906.56
13200,-3.8712,-0.0181,-0.1305,1508.06,-781.31,1734.07
13210,-3.8712,-0.0183,-0.1293,1695.56,-687.56,1687.19
13220,-3.8712,-0.0223,-0.1273,1664.31,-531.31,-1828.43
13230,-3.8712,-0.0275,-0.1249,1148.68,-281.31,-1094.06
13240,-3.8712,-0.0302,-0.1229,492.43,31.19,-406.49
13250,-3.8712,-0.0277,-0.1218,148.68,281.19,-78.37
13260,-3.8712,-0.0209,-0.1223,461.18,421.81,-218.99
13270,-3.8712,-0.0122,-0.1240,1336.18,359.31,-843.99
13280,-3.8712,-0.0073,-0.1251,-1554.44,140.56,-1531.49
13290,-3.8712,-0.0109,-0.1268,-929.44,-0.06,-1781.56
13300,-3.8712,-0.0208,-0.1290,-1382.57,-218.81,-1515.93
13310,-3.8712,-0.0309,-0.1290,1351.81,-500.06,-1000.31
13320,-3.8712,-0.0370,-0.1263,54.93,-500.06,-640.93
13330,-3.8712,-0.0391,-0.1234,-726.32,-156.37,-390.93
13340,-3.8712,-0.0388,-0.1208,-991.94,218.63,-62.74
13350,-3.8711,-0.0353,-0.1194,-960.69,546.75,281.01
13360,-3.8711,-0.0282,-0.1189,-507.57,734.25,421.63
13370,-3.8711,-0.0209,-0.1188,398.68,796.81,312.26
13380,-3.8712,-0.0151,-0.1218,1336.18,812.44,-0.24
13390,-3.8712,-0.0128,-0.1265,-1929.44,421.81,-406.49
13400,-3.8712,-0.0177,-0.1279,-1632.57,-171.94,-828.43
13410,-3.8712,-0.0294,-0.1263,1742.43,-359.44,-1140.93
13420,-3.8712,-0.0403,-0.1251,242.43,-156.31,-1344.06
13430,-3.8712,-0.0435,-0.1262,-1148.19,-0.12,-1640.93
13440,-3.8712,-0.0392,-0.1270,-1554.44,-140.75,1921.57
13450,-3.8712,-0.0330,-0.1250,-1007.57,-234.50,1812.19
13460,-3.8712,-0.0294,-0.1228,-210.69,15.50,-1500.24
13470,-3.8712,-0.0292,-0.1210,242.43,296.81,-453.37
13480,-3.8711,-0.0293,-0.1190,273.68,531.19,390.38
13490,-3.8711,-0.0278,-0.1168,258.06,781.19,1031.01
13500,-3.8711,-0.0269,-0.1156,445.56,1062.44,1671.63
13510,-3.8711,-0.0272,-0.1169,570.56,1218.69,-1890.87
13520,-3.8711,-0.0276,-0.1201,523.68,1046.81,1952.88
13530,-3.8711,-0.0278,-0.1227,476.81,640.56,1124.76
13540,-3.8711,-0.0286,-0.1238,445.56,312.44,93.51
13550,-3.8712,-0.0289,-0.1246,351.81,171.81,-953.37
13560,-3.8712,-0.0283,-0.1260,304.93,62.44,-1906.49
13570,-3.8712,-0.0275,-0.1263,383.06,-109.44,1484.07
13580,-3.8712,-0.0272,-0.1251,492.43,-156.31,1468.44
13590,-3.8712,-0.0280,-0.1239,523.68,-0.06,-1875.31
13600,-3.8712,-0.0288,-0.1251,429.93,156.19,-828.37
13610,-3.8711,-0.0283,-0.1279,320.56,-0.06,62.19
13620,-3.8711,-0.0271,-0.1299,383.06,-359.44,249.69
13630,-3.8712,-0.0270,-0.1304,539.31,-609.44,-187.81
13640,-3.8712,-0.0286,-0.1301,554.93,-671.94,-734.68
13650,-3.8712,-0.0304,-0.1301,351.81,-640.69,-890.93
13660,-3.8712,-0.0309,-0.1294,117.43,-640.69,-562.81
13670,-3.8712,-0.0291,-0.1262,54.93,-546.94,-187.81
13680,-3.8711,-0.0253,-0.1211,289.31,-140.69,46.57
13690,-3.8711,-0.0214,-0.1182,773.68,515.56,202.88
13700,-3.8711,-0.0167,-0.1189,1273.68,890.56,281.01
13710,-3.8711,-0.0128,-0.1217,1867.43,796.81,124.76
13720,-3.8712,-0.0120,-0.1239,-1632.57,437.44,-328.37
13730,-3.8712,-0.0138,-0.1244,-1523.19,156.19,-1093.99
13740,-3.8712,-0.0181,-0.1245,-1757.57,93.69,1984.13
13750,-3.8712,-0.0210,-0.1234,1695.56,78.06,1359.13
13760,-3.8712,-0.0214,-0.1200,1320.56,218.69,1202.88
13770,-3.8712,-0.0209,-0.1172,1273.68,656.19,1624.76
13780,-3.8712,-0.0206,-0.1177,1336.18,1015.56,-1453.37
13790,-3.8712,-0.0210,-0.1191,1367.43,953.06,-406.49
13800,-3.8711,-0.0210,-0.1206,1320.56,765.56,265.38
13810,-3.8711,-0.0194,-0.1237,1320.56,578.06,359.13
13820,-3.8711,-0.0192,-0.1266,1523.68,187.44,46.63
13830,-3.8712,-0.0242,-0.1276,1554.93,-187.56,-453.43
13840,-3.8712,-0.0332,-0.1281,914.31,-312.56,-1031.56
13850,-3.8712,-0.0409,-0.1305,-241.94,-375.12,-1750.31
13860,-3.8712,-0.0432,-0.1335,-1226.32,-687.62,1593.44
13870,-3.8712,-0.0405,-0.1343,-1523.19,-1078.25,1155.94
13880,-3.8712,-0.0343,-0.1323,-1179.44,-1172.00,1030.94
13890,-3.8712,-0.0269,-0.1302,-382.57,-922.00,1421.57
13900,-3.8712,-0.0215,-0.1287,570.56,-656.31,-1640.93
13910,-3.8712,-0.0186,-0.1257,1258.06,-453.19,-515.93
13920,-3.8711,-0.0181,-0.1232,1633.06,-78.19,421.57
13930,-3.8711,-0.0193,-0.1228,1695.56,249.94,1046.63
13940,-3.8711,-0.0217,-0.1234,1539.31,296.81,1281.01
13950,-3.8711,-0.0245,-0.1238,1226.81,218.69,1077.88
13960,-3.8711,-0.0272,-0.1238,867.43,171.81,656.01
13970,-3.8711,-0.0300,-0.1237,523.68,171.81,156.01
13980,-3.8712,-0.0316,-0.1237,164.31,187.44,-218.99
13990,-3.8712,-0.0309,-0.1240,-38.82,187.38,-500.24
14000,-3.8712,-0.0291,-0.1222,54.93,140.56,-734.62
14010,-3.8712,-0.0277,-0.1182,289.31,374.94,-718.99
14020,-3.8712,-0.0261,-0.1160,461.18,890.56,-547.12
14030,-3.8712,-0.0220,-0.1169,664.31,1171.81,-406.49
14040,-3.8712,-0.0159,-0.1187,1195.56,1046.81,-297.12
14050,-3.8712,-0.0112,-0.1200,1976.81,828.06,-406.49
14060,-3.8712,-0.0101,-0.1218,-1429.44,656.19,-703.37
14070,-3.8712,-0.0137,-0.1241,-1288.82,421.81,-828.37
14080,-3.8712,-0.0210,-0.1256,-1741.94,124.94,-640.87
14090,-3.8712,-0.0298,-0.1254,1320.56,-62.56,-359.68
14100,-3.8712,-0.0349,-0.1243,195.56,-31.31,-156.56
14110,-3.8711,-0.0343,-0.1241,-460.69,109.25,124.76
14120,-3.8711,-0.0310,-0.1263,-382.57,124.88,499.76
14130,-3.8711,-0.0269,-0.1288,39.31,-156.31,749.69
14140,-3.8711,-0.0242,-0.1313,570.56,-468.81,827.82
14150,-3.8711,-0.0217,-0.1312,914.31,-796.94,687.19
14160,-3.8711,-0.0164,-0.1272,1226.81,-781.31,234.07
14170,-3.8712,-0.0088,-0.1260,1914.31,-265.69,-359.68
14180,-3.8712,-0.0026,-0.1278,-1116.94,-109.44,-828.43
14190,-3.8712,-0.0022,-0.1279,-320.07,-343.81,-1094.06
14200,-3.8712,-0.0078,-0.1259,-273.19,-359.44,-1047.18
14210,-3.8712,-0.0155,-0.1245,-991.94,-93.81,-828.43
14220,-3.8712,-0.0214,-0.1234,-1976.32,78.06,-703.37
14230,-3.8712,-0.0225,-0.1227,1273.68,218.69,-703.37
14240,-3.8712,-0.0187,-0.1240,1133.06,312.44,-797.12
14250,-3.8712,-0.0126,-0.1259,1617.43,140.56,-1093.99
14260,-3.8712,-0.0074,-0.1257,-1601.32,-93.81,-1484.68
14270,-3.8712,-0.0061,-0.1245,-945.07,-78.19,-1781.56
14280,-3.8712,-0.0087,-0.1238,-773.19,78.06,-1687.74
14290,-3.8712,-0.0142,-0.1252,-1101.32,171.81,-1218.99
14300,-3.8712,-0.0204,-0.1267,-1804.44,-15.69,-687.81
14310,-3.8712,-0.0232,-0.1266,1398.68,-203.19,-375.31
14320,-3.8712,-0.0225,-0.1254,1039.31,-187.56,-219.06
14330,-3.8711,-0.0220,-0.1233,1133.06,-31.31,15.32
14340,-3.8711,-0.0232,-0.1213,1195.56,234.31,202.88
14350,-3.8711,-0.0233,-0.1204,1039.31,484.31,77.88
14360,-3.8712,-0.0208,-0.1218,1023.68,609.31,-437.74
14370,-3.8712,-0.0148,-0.1260,1351.81,421.81,-1312.74
14380,-3.8712,-0.0079,-0.1292,-1882.57,-109.44,1577.82
14390,-3.8712,-0.0093,-0.1317,-1007.57,-515.69,655.94
14400,-3.8712,-0.0203,-0.1321,-1179.44,-843.81,109.07
14410,-3.8713,-0.0315,-0.1298,1414.31,-890.69,-297.18
14420,-3.8713,-0.0366,-0.1307,-23.19,-593.87,-875.31
14430,-3.8713,-0.0374,-0.1339,-679.44,-718.87,-1250.31
14440,-3.8713,-0.0393,-0.1335,-773.19,-1125.12,-656.56
14450,-3.8712,-0.0437,-0.1306,-1023.19,-1078.25,984.07
14460,-3.8712,-0.0449,-0.1272,-1585.69,-703.25,-687.81
14470,-3.8711,-0.0388,-0.1216,-1741.94,-265.75,1796.57
14480,-3.8711,-0.0276,-0.1174,-960.69,453.00,-172.12
14490,-3.8710,-0.0150,-0.1168,476.81,984.31,921.63
14500,-3.8710,-0.0074,-0.1187,-1913.82,1062.44,921.63
14510,-3.8710,-0.0112,-0.1199,-945.07,828.06,156.01
14520,-3.8711,-0.0221,-0.1195,-1429.44,671.81,-1156.49
14530,-3.8711,-0.0311,-0.1195,1179.93,718.69,1234.13
14540,-3.8712,-0.0326,-0.1211,23.68,718.69,-406.49
14550,-3.8712,-0.0261,-0.1241,-163.82,515.50,-1984.62
14560,-3.8712,-0.0170,-0.1265,664.31,124.94,984.13
14570,-3.8712,-0.0092,-0.1262,1836.18,-171.94,921.57
14580,-3.8712,-0.0063,-0.1239,-1163.82,-140.69,1609.07
14590,-3.8712,-0.0096,-0.1206,-804.44,156.19,-1328.37
14600,-3.8712,-0.0166,-0.1184,-1226.32,578.06,-187.74
14610,-3.8711,-0.0239,-0.1183,1883.06,859.31,624.76
14620,-3.8711,-0.0293,-0.1199,945.56,874.94,937.26
14630,-3.8711,-0.0312,-0.1221,258.06,671.81,781.01
14640,-3.8711,-0.0303,-0.1249,8.06,390.56,437.26
14650,-3.8711,-0.0276,-0.1283,133.06,31.19,218.51
14660,-3.8711,-0.0248,-0.1284,476.81,-406.31,202.82
14670,-3.8711,-0.0239,-0.1259,836.18,-421.94,140.32
14680,-3.8712,-0.0251,-0.1259,945.56,-93.81,-281.56
14690,-3.8712,-0.0273,-0.1295,789.31,-93.81,-1015.93
14700,-3.8712,-0.0300,-0.1335,508.06,-562.56,1937.19
14710,-3.8712,-0.0311,-0.1350,164.31,-1078.19,468.44
14720,-3.8713,-0.0283,-0.1351,23.68,-1265.69,-1062.81
14730,-3.8713,-0.0236,-0.1346,383.06,-1281.31,1952.82
14740,-3.8713,-0.0200,-0.1317,992.43,-1218.81,1937.19
14750,-3.8713,-0.0193,-0.1268,1445.56,-843.81,-1219.06
14760,-3.8712,-0.0198,-0.1222,1539.31,-218.81,312.19
14770,-3.8712,-0.0189,-0.1190,1476.81,374.94,-1656.49
14780,-3.8711,-0.0164,-0.1177,1586.18,781.19,156.01
14790,-3.8711,-0.0125,-0.1183,1914.31,953.06,1093.51
14800,-3.8711,-0.0089,-0.1191,-1585.69,874.94,1202.88
14810,-3.8711,-0.0101,-0.1191,-1132.57,765.56,718.51
14820,-3.8712,-0.0160,-0.1221,-1288.82,765.56,-109.62
14830,-3.8712,-0.0222,-0.1261,1961.18,390.56,-984.62
14840,-3.8712,-0.0275,-0.1278,1164.31,-125.06,-1781.56
14850,-3.8712,-0.0311,-0.1282,492.43,-343.81,1687.19
14860,-3.8712,-0.0310,-0.1278,23.68,-390.69,1655.94
14870,-3.8712,-0.0276,-0.1278,39.31,-343.81,1999.69
14880,-3.8712,-0.0228,-0.1274,476.81,-343.81,-1406.56
14890,-3.8712,-0.0172,-0.1265,1086.18,-296.94,-937.81
14900,-3.8712,-0.0132,-0.1263,1804.93,-171.94,-906.56
14910,-3.8712,-0.0129,-0.1257,-1679.44,-156.31,-969.06
14920,-3.8712,-0.0171,-0.1248,-1648.19,-78.19,-797.18
14930,-3.8712,-0.0227,-0.1246,1820.56,46.81,-203.37
14940,-3.8711,-0.0258,-0.1248,1101.81,62.44,452.88
14950,-3.8711,-0.0261,-0.1252,711.18,46.81,952.88
14960,-3.8711,-0.0244,-0.1250,664.31,-15.69,1452.82
14970,-3.8711,-0.0219,-0.1226,883.06,15.56,1984.13
14980,-3.8711,-0.0208,-0.1193,1211.18,328.06,-1718.99
14990,-3.8711,-0.0201,-0.1160,1351.81,749.94,-1797.12
15000,-3.8711,-0.0200,-0.1111,1429.93,1171.81,1890.38
15010,-3.8711,-0.0228,-0.1049,1445.56,1796.81,1562.26
15020,-3.8711,-0.0267,-0.1023,1086.18,-1406.31,1218.51
15030,-3.8711,-0.0266,-0.1052,586.18,-1078.19,906.01
15040,-3.8711,-0.0206,-0.1107,601.81,-1453.19,531.01
15050,-3.8712,-0.0133,-0.1149,1367.43,1843.69,-172.12
15060,-3.8712,-0.0106,-0.1169,-1695.07,1312.44,-1047.12
15070,-3.8712,-0.0139,-0.1185,-1351.32,1046.81,-1562.74
15080,-3.8712,-0.0217,-0.1182,-1773.19,843.69,-1468.99
15090,-3.8712,-0.0306,-0.1162,1226.81,890.56,-1109.62
15100,-3.8712,-0.0372,-0.1179,86.18,1140.56,-890.87
15110,-3.8712,-0.0383,-0.1227,-757.57,921.75,-1156.49
15120,-3.8712,-0.0336,-0.1245,-898.19,312.38,1859.13
15130,-3.8712,-0.0273,-0.1241,-288.82,78.00,624.76
15140,-3.8712,-0.0223,-0.1235,508.06,124.94,31.01
15150,-3.8712,-0.0209,-0.1204,1148.68,203.06,749.76
15160,-3.8712,-0.0237,-0.1160,1336.18,609.31,-1484.62
15170,-3.8711,-0.0283,-0.1145,976.81,1171.81,531.01
15180,-3.8711,-0.0316,-0.1156,383.06,1359.31,1906.01
15190,-3.8711,-0.0304,-0.1189,-38.82,1218.63,-1828.37
15200,-3.8711,-0.0255,-0.1216,117.43,796.81,1593.51
15210,-3.8711,-0.0222,-0.1222,742.43,453.06,624.76
15220,-3.8712,-0.0228,-0.1216,1164.31,374.94,-218.99
15230,-3.8712,-0.0265,-0.1202,1086.18,453.06,-922.12
15240,-3.8712,-0.0305,-0.1184,617.43,624.94,-1515.87
15250,-3.8712,-0.0323,-0.1171,101.81,859.31,-1609.62
15260,-3.8712,-0.0316,-0.1180,-132.57,1031.13,-1047.12
15270,-3.8712,-0.0300,-0.1213,-38.82,906.13,-406.49
15280,-3.8711,-0.0289,-0.1232,164.31,484.31,31.01
15290,-3.8711,-0.0278,-0.1215,304.93,249.94,187.26
15300,-3.8711,-0.0280,-0.1187,445.56,468.69,202.88
15310,-3.8711,-0.0286,-0.1166,429.93,828.06,327.88
15320,-3.8711,-0.0293,-0.1154,351.81,1093.69,702.88
15330,-3.8711,-0.0297,-0.1144,258.06,1249.94,1249.76
15340,-3.8711,-0.0270,-0.1146,211.18,1374.94,1546.63
15350,-3.8711,-0.0212,-0.1180,554.93,1343.69,1249.76
15360,-3.8711,-0.0159,-0.1221,1289.31,906.19,406.01
15370,-3.8712,-0.0139,-0.1259,1976.81,390.56,-828.37
15380,-3.8712,-0.0178,-0.1294,-1773.19,-93.81,1749.69
15390,-3.8712,-0.0262,-0.1315,1726.81,-546.94,546.57
15400,-3.8713,-0.0353,-0.1310,648.68,-812.56,-0.31
15410,-3.8712,-0.0415,-0.1282,-507.57,-750.12,265.32
15420,-3.8712,-0.0426,-0.1254,-1304.44,-390.75,999.69
15430,-3.8712,-0.0383,-0.1233,-1445.07,-31.37,1921.57
15440,-3.8712,-0.0316,-0.1198,-898.19,234.25,-1140.87
15450,-3.8712,-0.0250,-0.1172,-38.82,687.38,-390.87
15460,-3.8712,-0.0186,-0.1174,804.93,1015.56,-0.24
15470,-3.8712,-0.0125,-0.1189,1633.06,984.31,-47.12
15480,-3.8712,-0.0090,-0.1212,-1585.69,796.81,-375.24
15490,-3.8712,-0.0089,-0.1245,-1148.19,499.94,-765.87
15500,-3.8712,-0.0129,-0.1276,-1132.57,78.06,-1359.62
15510,-3.8712,-0.0203,-0.1289,-1648.19,-312.56,1827.82
15520,-3.8712,-0.0273,-0.1283,1414.31,-484.44,1109.07
15530,-3.8712,-0.0319,-0.1281,508.06,-406.31,655.94
15540,-3.8712,-0.0316,-0.1273,-70.07,-375.12,530.94
15550,-3.8712,-0.0277,-0.1270,-38.82,-281.37,796.57
15560,-3.8712,-0.0243,-0.1271,461.18,-234.44,1390.32
15570,-3.8712,-0.0247,-0.1271,898.68,-250.06,-1844.06
15580,-3.8712,-0.0281,-0.1273,851.81,-250.06,-1265.93
15590,-3.8712,-0.0303,-0.1262,414.31,-281.31,-922.18
15600,-3.8712,-0.0304,-0.1248,133.06,-140.69,-875.31
15610,-3.8712,-0.0298,-0.1228,117.43,46.81,-1047.12
15620,-3.8712,-0.0292,-0.1200,195.56,296.81,-1062.74
15630,-3.8712,-0.0282,-0.1189,273.68,656.19,-515.87
15640,-3.8711,-0.0240,-0.1177,398.68,796.81,531.01
15650,-3.8711,-0.0188,-0.1163,929.93,953.06,1531.01
15660,-3.8711,-0.0161,-0.1176,1601.81,1124.94,1999.76
15670,-3.8711,-0.0153,-0.1204,1945.56,968.69,1640.38
15680,-3.8711,-0.0157,-0.1232,-1945.07,609.31,609.13
15690,-3.8712,-0.0175,-0.1248,1992.43,249.94,-453.37
15700,-3.8712,-0.0195,-0.1244,1773.68,46.81,-1015.87
15710,-3.8712,-0.0215,-0.1230,1508.06,93.69,-1172.12
15720,-3.8712,-0.0236,-0.1222,1258.06,265.56,-1172.12
15730,-3.8712,-0.0258,-0.1204,992.43,374.94,-906.49
15740,-3.8712,-0.0277,-0.1173,711.18,609.31,-265.87
15750,-3.8711,-0.0297,-0.1156,461.18,999.94,671.63
15760,-3.8711,-0.0293,-0.1152,211.18,1218.69,1640.38
15770,-3.8711,-0.0262,-0.1156,258.06,1265.56,-1859.62
15780,-3.8711,-0.0211,-0.1156,648.68,1218.69,1952.88
15790,-3.8711,-0.0165,-0.1135,1304.93,1218.69,1468.51
15800,-3.8711,-0.0161,-0.1140,1898.68,1484.31,921.63
15810,-3.8711,-0.0208,-0.1179,1945.56,1421.81,577.88
15820,-3.8711,-0.0288,-0.1196,1351.81,921.81,437.26
15830,-3.8711,-0.0353,-0.1184,320.56,703.06,109.13
15840,-3.8712,-0.0348,-0.1176,-507.57,859.25,-562.74
15850,-3.8712,-0.0278,-0.1188,-445.07,968.63,-1328.37
15860,-3.8712,-0.0194,-0.1194,445.56,812.44,-1797.12
15870,-3.8712,-0.0149,-0.1187,1523.68,734.31,-1828.37
15880,-3.8712,-0.0135,-0.1195,-1898.19,828.06,-1515.87
15890,-3.8712,-0.0122,-0.1216,-1726.32,718.69,-1062.74
15900,-3.8712,-0.0117,-0.1223,-1554.44,453.06,-515.87
15910,-3.8711,-0.0148,-0.1219,-1491.94,359.31,109.13
15920,-3.8711,-0.0204,-0.1244,-1882.57,406.19,765.38
15930,-3.8711,-0.0265,-0.1279,1398.68,93.69,1171.63
15940,-3.8711,-0.0317,-0.1287,617.43,-359.44,999.69
15950,-3.8711,-0.0350,-0.1283,-54.44,-453.25,327.82
15960,-3.8712,-0.0337,-0.1281,-476.32,-406.37,-484.68
15970,-3.8712,-0.0287,-0.1265,-304.44,-375.12,-1172.18
15980,-3.8712,-0.0232,-0.1241,336.18,-171.94,-1515.93
15990,-3.8712,-0.0177,-0.1230,1039.31,124.94,-1500.24
16000,-3.8712,-0.0137,-0.1226,1742.43,265.56,-1343.99
16010,-3.8712,-0.0116,-0.1212,-1741.94,328.06,-1312.74
16020,-3.8712,-0.0106,-0.1213,-1476.32,499.94,-1562.74
16030,-3.8712,-0.0128,-0.1239,-1351.32,484.31,1937.26
16040,-3.8712,-0.0176,-0.1266,-1632.57,156.19,1281.01
16050,-3.8712,-0.0234,-0.1267,1758.06,-187.56,749.69
16060,-3.8712,-0.0294,-0.1250,1008.06,-203.19,655.94
16070,-3.8712,-0.0325,-0.1241,242.43,15.56,1077.88
16080,-3.8712,-0.0310,-0.1254,-148.19,124.88,1734.13
16090,-3.8712,-0.0262,-0.1267,39.31,-31.31,-1703.43
16100,-3.8712,-0.0211,-0.1252,648.68,-203.19,-1250.31
16110,-3.8712,-0.0192,-0.1224,1304.93,-15.69,-765.93
16120,-3.8712,-0.0201,-0.1206,1554.93,343.69,-156.49
16130,-3.8711,-0.0222,-0.1205,1429.93,578.06,359.13
16140,-3.8711,-0.0248,-0.1207,1164.31,593.69,484.13
16150,-3.8711,-0.0270,-0.1207,836.18,562.44,234.13
16160,-3.8712,-0.0266,-0.1227,554.93,562.44,-343.99
16170,-3.8712,-0.0223,-0.1265,601.81,312.44,-968.99
16180,-3.8712,-0.0162,-0.1293,1148.68,-171.94,-1375.31
16190,-3.8712,-0.0121,-0.1290,1929.93,-531.31,-1469.06
16200,-3.8712,-0.0120,-0.1268,-1538.82,-500.06,-1203.43
16210,-3.8712,-0.0160,-0.1256,-1523.19,-218.81,-953.43
16220,-3.8712,-0.0210,-0.1252,1961.18,-62.56,-984.68
16230,-3.8712,-0.0253,-0.1260,1320.56,-15.69,-1297.18
16240,-3.8712,-0.0273,-0.1274,773.68,-109.44,-1812.81
16250,-3.8712,-0.0280,-0.1260,508.06,-296.94,1921.57
16260,-3.8712,-0.0305,-0.1212,429.93,-109.44,-1687.81
16270,-3.8712,-0.0333,-0.1156,101.81,499.94,-703.37
16280,-3.8711,-0.0339,-0.1129,-257.57,1218.63,484.13
16290,-3.8711,-0.0320,-0.1135,-335.69,1562.38,1390.38
16300,-3.8711,-0.0269,-0.1165,-85.69,1484.25,1531.01
16310,-3.8711,-0.0208,-0.1218,570.56,1109.31,656.01
16320,-3.8712,-0.0164,-0.1259,1351.81,421.81,-640.87
16330,-3.8712,-0.0155,-0.1268,1914.31,-93.81,-1953.43
16340,-3.8712,-0.0184,-0.1270,-1976.32,-218.81,827.82
16350,-3.8712,-0.0244,-0.1265,1648.68,-234.44,109.07
16360,-3.8712,-0.0305,-0.1257,883.06,-171.94,280.94
16370,-3.8712,-0.0333,-0.1248,101.81,-78.19,1374.69
16380,-3.8712,-0.0325,-0.1228,-257.57,46.75,-1047.12
16390,-3.8711,-0.0295,-0.1206,-148.19,296.75,390.38
16400,-3.8711,-0.0254,-0.1182,226.81,578.06,1327.88
16410,-3.8711,-0.0233,-0.1163,758.06,890.56,1687.26
16420,-3.8711,-0.0266,-0.1150,1023.68,1124.94,1702.88
16430,-3.8711,-0.0343,-0.1144,601.81,1296.81,1765.38
16440,-3.8711,-0.0414,-0.1151,-382.57,1374.88,1843.51
16450,-3.8711,-0.0426,-0.1178,-1288.82,1281.13,1484.13
16460,-3.8711,-0.0363,-0.1223,-1445.07,937.38,624.76
16470,-3.8712,-0.0265,-0.1255,-632.57,359.25,-515.87
16480,-3.8712,-0.0195,-0.1248,617.43,-46.94,-1547.18
16490,-3.8712,-0.0167,-0.1219,1508.06,46.81,1843.51
16500,-3.8712,-0.0166,-0.1204,1867.43,406.19,1781.01
16510,-3.8712,-0.0183,-0.1206,1883.06,609.31,-1937.74
16520,-3.8712,-0.0219,-0.1204,1664.31,578.06,-1547.12
16530,-3.8712,-0.0272,-0.1202,1211.18,609.31,-1156.49
16540,-3.8712,-0.0321,-0.1215,523.68,624.94,-687.74
16550,-3.8712,-0.0359,-0.1217,-101.32,468.63,-250.24
16560,-3.8711,-0.0389,-0.1218,-585.69,437.38,46.63
16570,-3.8711,-0.0388,-0.1217,-976.32,421.75,265.38
16580,-3.8711,-0.0353,-0.1211,-960.69,437.38,531.01
16590,-3.8711,-0.0331,-0.1227,-507.57,515.50,843.51
16600,-3.8711,-0.0348,-0.1235,-226.32,312.38,999.76
16610,-3.8711,-0.0380,-0.1207,-445.07,203.00,624.76
16620,-3.8712,-0.0383,-0.1211,-851.32,562.38,-390.87
16630,-3.8712,-0.0343,-0.1254,-898.19,515.50,-1640.87
16640,-3.8712,-0.0302,-0.1273,-382.57,-31.37,1390.32
16650,-3.8712,-0.0288,-0.1251,148.68,-281.31,780.94
16660,-3.8712,-0.0281,-0.1211,320.56,-0.06,655.94
16670,-3.8712,-0.0259,-0.1190,414.31,515.56,890.38
16680,-3.8712,-0.0216,-0.1190,695.56,781.19,1327.88
16690,-3.8712,-0.0181,-0.1180,1242.43,781.19,1999.76
16700,-3.8712,-0.0184,-0.1176,1695.56,906.19,-1218.99
16710,-3.8712,-0.0226,-0.1190,1648.68,968.69,-437.74
16720,-3.8711,-0.0286,-0.1217,1117.43,781.19,202.88
16730,-3.8711,-0.0347,-0.1229,351.81,437.44,765.38
16740,-3.8711,-0.0385,-0.1219,-429.44,281.13,1109.13
16750,-3.8711,-0.0388,-0.1218,-913.82,406.13,796.63
16760,-3.8712,-0.0372,-0.1238,-960.69,421.75,-156.49
16770,-3.8712,-0.0358,-0.1249,-757.57,171.75,-1312.74
16780,-3.8712,-0.0343,-0.1244,-570.07,31.13,1718.51
16790,-3.8712,-0.0312,-0.1235,-382.57,93.63,1077.88
16800,-3.8712,-0.0264,-0.1238,8.06,203.06,781.01
16810,-3.8712,-0.0215,-0.1249,633.06,171.81,859.13
16820,-3.8712,-0.0184,-0.1274,1258.06,31.19,1249.76
16830,-3.8712,-0.0179,-0.1301,1648.68,-296.94,1718.44
16840,-3.8712,-0.0205,-0.1288,1711.18,-640.69,-1656.56
16850,-3.8712,-0.0269,-0.1244,1383.06,-468.81,-625.31
16860,-3.8711,-0.0350,-0.1206,570.56,93.69,781.01
16870,-3.8711,-0.0409,-0.1184,-476.32,578.00,-1922.12
16880,-3.8711,-0.0409,-0.1172,-1226.32,859.25,-1297.12
16890,-3.8711,-0.0360,-0.1156,-1226.32,1015.50,-1250.24
16900,-3.8711,-0.0284,-0.1135,-601.32,1218.63,-1656.49
16910,-3.8711,-0.0201,-0.1128,367.43,1484.31,1624.76
16920,-3.8711,-0.0135,-0.1144,1429.93,1578.06,749.76
16930,-3.8712,-0.0117,-0.1168,-1726.32,1374.94,-297.12
16940,-3.8712,-0.0145,-0.1191,-1491.94,1062.44,-1390.87
16950,-3.8712,-0.0204,-0.1219,-1851.32,765.56,1593.51
16960,-3.8712,-0.0269,-0.1239,1398.68,406.19,890.38
16970,-3.8712,-0.0327,-0.1240,570.56,156.19,921.63
16980,-3.8712,-0.0364,-0.1228,-179.44,140.50,1624.76
16990,-3.8712,-0.0365,-0.1205,-648.19,296.75,-1265.87
17000,-3.8712,-0.0334,-0.1169,-663.82,593.63,-0.24
17010,-3.8711,-0.0281,-0.1139,-273.19,1046.75,1249.76
17020,-3.8711,-0.0225,-0.1130,414.31,1437.44,-1843.99
17030,-3.8711,-0.0197,-0.1146,1133.06,1546.81,-1343.99
17040,-3.8711,-0.0214,-0.1165,1492.43,1343.69,-1281.49
17050,-3.8711,-0.0276,-0.1176,1273.68,1109.31,-1797.12
17060,-3.8711,-0.0345,-0.1193,476.81,968.69,1327.88
17070,-3.8711,-0.0380,-0.1226,-413.82,749.88,140.38
17080,-3.8712,-0.0358,-0.1276,-851.32,328.00,-1422.12
17090,-3.8712,-0.0291,-0.1306,-570.07,-312.62,1109.07
17100,-3.8712,-0.0226,-0.1289,289.31,-703.19,218.44
17110,-3.8713,-0.0200,-0.1270,1117.43,-484.44,-31.56
17120,-3.8712,-0.0206,-0.1276,1445.56,-234.44,140.32
17130,-3.8712,-0.0222,-0.1268,1367.43,-312.56,546.57
17140,-3.8712,-0.0239,-0.1238,1164.31,-218.81,1249.69
17150,-3.8712,-0.0250,-0.1221,945.56,171.81,-1968.99
17160,-3.8712,-0.0261,-0.1227,804.93,390.56,-1250.24
17170,-3.8712,-0.0287,-0.1244,664.31,312.44,-515.87
17180,-3.8711,-0.0319,-0.1259,336.18,93.69,15.38
17190,-3.8712,-0.0341,-0.1265,-70.07,-93.87,-15.93
17200,-3.8712,-0.0350,-0.1267,-351.32,-172.00,-562.81
17210,-3.8712,-0.0350,-0.1262,-476.32,-203.25,-1234.68
17220,-3.8712,-0.0349,-0.1255,-476.32,-140.75,-1640.93
17230,-3.8712,-0.0333,-0.1248,-460.69,-47.00,-1953.43
17240,-3.8712,-0.0299,-0.1244,-257.57,46.75,1484.13
17250,-3.8712,-0.0269,-0.1248,179.93,93.69,874.76
17260,-3.8712,-0.0251,-0.1250,570.56,46.81,390.38
17270,-3.8713,-0.0247,-0.1256,789.31,15.56,-31.49
17280,-3.8713,-0.0253,-0.1261,851.81,-62.56,-375.31
17290,-3.8713,-0.0272,-0.1256,773.68,-125.06,-687.81
17300,-3.8713,-0.0315,-0.1259,523.68,-62.56,-797.18
17310,-3.8713,-0.0375,-0.1255,-23.19,-93.87,-62.81
17320,-3.8712,-0.0436,-0.1215,-788.82,-47.00,1718.44
17330,-3.8711,-0.0472,-0.1155,-1570.07,468.63,156.01
17340,-3.8711,-0.0435,-0.1122,1961.18,1234.25,-1547.12
17350,-3.8711,-0.0317,-0.1127,-1554.44,1656.13,-62.74
17360,-3.8710,-0.0186,-0.1134,-54.44,1593.63,327.88
17370,-3.8711,-0.0109,-0.1121,1633.06,1499.94,-140.87
17380,-3.8711,-0.0117,-0.1123,-1382.57,1671.81,-1109.62
17390,-3.8711,-0.0190,-0.1132,-1491.94,1640.56,1718.51
17400,-3.8711,-0.0283,-0.1119,1570.56,1531.19,984.13
17410,-3.8711,-0.0338,-0.1113,383.06,1687.44,781.01
17420,-3.8711,-0.0312,-0.1123,-320.07,1765.50,781.01
17430,-3.8711,-0.0229,-0.1146,8.06,1640.56,812.26
17440,-3.8711,-0.0154,-0.1167,1070.56,1343.69,812.26
17450,-3.8711,-0.0115,-0.1171,-1960.69,1078.06,843.51
17460,-3.8711,-0.0122,-0.1180,-1460.69,1031.19,749.76
17470,-3.8711,-0.0168,-0.1218,-1554.44,906.19,499.76
17480,-3.8711,-0.0243,-0.1241,1851.81,421.81,218.51
17490,-3.8711,-0.0327,-0.1227,898.68,124.94,15.38
17500,-3.8711,-0.0391,-0.1204,-179.44,312.38,156.01
17510,-3.8711,-0.0415,-0.1198,-991.94,609.25,593.51
17520,-3.8711,-0.0419,-0.1202,-1304.44,687.38,1171.63
17530,-3.8711,-0.0409,-0.1212,-1351.32,624.88,1734.13
17540,-3.8711,-0.0376,-0.1223,-1226.32,499.88,1999.76
17550,-3.8711,-0.0308,-0.1230,-804.44,359.25,1515.38
17560,-3.8711,-0.0221,-0.1243,70.56,265.56,77.88
17570,-3.8712,-0.0186,-0.1267,1179.93,109.31,-1812.74
17580,-3.8712,-0.0195,-0.1263,1633.06,-203.19,952.82
17590,-3.8712,-0.0199,-0.1249,1508.06,-156.31,343.44
17600,-3.8712,-0.0203,-0.1257,1461.18,31.19,77.88
17610,-3.8712,-0.0217,-0.1232,1414.31,-78.19,437.19
17620,-3.8712,-0.0247,-0.1177,1226.81,249.94,1218.51
17630,-3.8712,-0.0275,-0.1141,851.81,953.06,-1734.62
17640,-3.8712,-0.0302,-0.1143,492.43,1406.19,-531.49
17650,-3.8711,-0.0339,-0.1162,148.68,1390.56,484.13
17660,-3.8711,-0.0369,-0.1194,-335.69,1140.50,937.26
17670,-3.8711,-0.0358,-0.1234,-710.69,734.25,734.13
17680,-3.8712,-0.0303,-0.1268,-570.07,218.63,-93.99
17690,-3.8712,-0.0249,-0.1279,133.06,-218.81,-1219.06
17700,-3.8712,-0.0237,-0.1256,820.56,-359.44,1843.44
17710,-3.8712,-0.0260,-0.1227,976.81,-62.56,1390.32
17720,-3.8712,-0.0293,-0.1221,679.93,312.44,1359.13
17730,-3.8712,-0.0311,-0.1228,258.06,390.56,1702.88
17740,-3.8712,-0.0323,-0.1230,23.68,296.81,-1640.87
17750,-3.8712,-0.0322,-0.1235,-132.57,265.50,-750.24
17760,-3.8712,-0.0299,-0.1230,-116.94,203.00,-125.24
17770,-3.8711,-0.0270,-0.1221,179.93,265.56,93.51
17780,-3.8712,-0.0256,-0.1223,554.93,390.56,-31.49
17790,-3.8712,-0.0273,-0.1228,726.81,359.31,-281.49
17800,-3.8712,-0.0323,-0.1222,508.06,296.81,-656.49
17810,-3.8712,-0.0376,-0.1216,-132.57,374.88,-1234.62
17820,-3.8712,-0.0392,-0.1229,-804.44,453.00,-1859.62
17830,-3.8712,-0.0359,-0.1245,-1007.57,281.13,1656.01
17840,-3.8712,-0.0289,-0.1240,-585.69,78.00,1437.26
17850,-3.8712,-0.0222,-0.1235,304.93,140.56,1546.63
17860,-3.8712,-0.0195,-0.1237,1164.31,203.06,1968.51
17870,-3.8712,-0.0212,-0.1230,1508.06,187.44,-1609.62
17880,-3.8712,-0.0255,-0.1218,1289.31,265.56,-1375.24
17890,-3.8712,-0.0306,-0.1216,742.43,421.81,-1156.49
17900,-3.8712,-0.0352,-0.1227,86.18,453.06,-703.37
17910,-3.8712,-0.0367,-0.1243,-491.94,312.38,-187.74
17920,-3.8712,-0.0348,-0.1261,-695.07,109.25,-140.87
17930,-3.8712,-0.0315,-0.1279,-445.07,-125.12,-375.31
17940,-3.8712,-0.0289,-0.1296,-23.19,-359.50,-562.81
17950,-3.8712,-0.0286,-0.1301,304.93,-578.19,-812.81
17960,-3.8712,-0.0293,-0.1278,351.81,-640.69,-953.43
17970,-3.8712,-0.0305,-0.1245,258.06,-343.81,-797.18
17980,-3.8712,-0.0303,-0.1215,101.81,78.06,-484.62
17990,-3.8712,-0.0277,-0.1196,133.06,468.69,-359.62
18000,-3.8712,-0.0243,-0.1194,461.18,703.06,-562.74
18010,-3.8712,-0.0212,-0.1199,898.68,734.31,-906.49
18020,-3.8712,-0.0198,-0.1219,1289.31,671.81,-1234.62
18030,-3.8712,-0.0209,-0.1250,1476.81,406.19,-1515.87
18040,-3.8712,-0.0248,-0.1271,1336.18,15.56,-1718.99
18050,-3.8712,-0.0292,-0.1263,836.18,-250.06,-1781.56
18060,-3.8712,-0.0316,-0.1250,273.68,-156.31,-1484.68
18070,-3.8712,-0.0308,-0.1240,-38.82,15.50,-890.87
18080,-3.8712,-0.0260,-0.1217,70.56,140.56,-265.87
18090,-3.8711,-0.0197,-0.1199,679.93,437.44,249.76
18100,-3.8711,-0.0145,-0.1191,1492.43,671.81,702.88
18110,-3.8711,-0.0131,-0.1184,-1851.32,765.56,952.88
18120,-3.8711,-0.0150,-0.1167,-1663.82,859.31,937.26
18130,-3.8711,-0.0166,-0.1149,-1913.82,1078.06,843.51
18140,-3.8711,-0.0160,-0.1171,1883.06,1312.44,687.26
18150,-3.8711,-0.0142,-0.1219,1961.18,1031.19,421.63
18160,-3.8712,-0.0140,-0.1241,-1804.44,406.19,-62.74
18170,-3.8712,-0.0183,-0.1230,-1788.82,124.94,-703.37
18180,-3.8712,-0.0254,-0.1239,1664.31,265.56,-1359.62
18190,-3.8712,-0.0314,-0.1282,758.06,156.19,-1890.87
18200,-3.8712,-0.0354,-0.1309,-7.57,-390.75,1812.19
18210,-3.8712,-0.0377,-0.1300,-523.19,-734.50,1796.57
18220,-3.8712,-0.0371,-0.1263,-820.07,-625.12,-1781.56
18230,-3.8712,-0.0344,-0.1210,-741.94,-156.37,-594.06
18240,-3.8711,-0.0311,-0.1163,-398.19,531.13,1062.26
18250,-3.8711,-0.0265,-0.1130,23.68,1124.94,-1437.74
18260,-3.8711,-0.0200,-0.1108,617.43,1546.81,-578.37
18270,-3.8711,-0.0137,-0.1107,1445.56,1828.06,-593.99
18280,-3.8711,-0.0099,-0.1130,-1741.94,1843.69,-1484.62
18290,-3.8711,-0.0090,-0.1162,-1257.57,1546.81,999.76
18300,-3.8712,-0.0107,-0.1189,-1148.19,1140.56,-609.62
18310,-3.8712,-0.0142,-0.1202,-1366.94,796.81,-1953.37
18320,-3.8712,-0.0178,-0.1211,-1804.44,624.94,1234.13
18330,-3.8712,-0.0205,-0.1230,1726.81,515.56,1062.26
18340,-3.8712,-0.0212,-0.1250,1383.06,265.56,1421.63
18350,-3.8712,-0.0214,-0.1251,1289.31,15.56,-1984.62
18360,-3.8712,-0.0221,-0.1261,1273.68,-0.06,-1625.31
18370,-3.8712,-0.0229,-0.1292,1179.93,-125.06,-1812.81
18380,-3.8712,-0.0250,-0.1322,1070.56,-515.69,1734.07
18390,-3.8712,-0.0300,-0.1338,804.93,-906.31,1405.94
18400,-3.8712,-0.0374,-0.1329,164.31,-1109.44,1562.19
18410,-3.8712,-0.0446,-0.1311,-773.19,-1000.12,-1875.31
18420,-3.8712,-0.0496,-0.1306,-1695.07,-765.75,-1219.06
18430,-3.8712,-0.0503,-0.1283,1664.31,-703.25,-515.93
18440,-3.8711,-0.0454,-0.1233,1570.56,-406.37,30.94
18450,-3.8711,-0.0365,-0.1202,-1804.44,234.25,77.88
18460,-3.8712,-0.0277,-0.1219,-663.82,624.88,-640.87
18470,-3.8712,-0.0228,-0.1245,461.18,406.19,-1937.74
18480,-3.8712,-0.0237,-0.1255,1086.18,78.06,656.01
18490,-3.8713,-0.0302,-0.1252,976.81,-46.94,-140.93
18500,-3.8713,-0.0385,-0.1237,148.68,-15.69,-219.06
18510,-3.8712,-0.0448,-0.1223,-913.82,187.38,46.63
18520,-3.8712,-0.0469,-0.1211,-1726.32,359.25,437.26
18530,-3.8712,-0.0433,-0.1191,-1991.94,515.50,999.76
18540,-3.8712,-0.0349,-0.1173,-1538.82,765.50,1874.76
18550,-3.8712,-0.0254,-0.1165,-460.69,999.88,-859.62
18560,-3.8711,-0.0208,-0.1158,758.06,1109.31,609.13
18570,-3.8711,-0.0223,-0.1141,1351.81,1187.44,1859.13
18580,-3.8711,-0.0255,-0.1118,1148.68,1406.19,-1203.37
18590,-3.8711,-0.0259,-0.1112,742.43,1703.06,-656.49
18600,-3.8711,-0.0220,-0.1139,695.56,1781.19,-843.99
18610,-3.8711,-0.0167,-0.1167,1195.56,1437.44,-1718.99
18620,-3.8711,-0.0157,-0.1180,1867.43,1078.06,1062.26
18630,-3.8712,-0.0205,-0.1210,1992.43,906.19,-140.87
18640,-3.8712,-0.0283,-0.1243,1383.06,531.19,-968.99
18650,-3.8712,-0.0358,-0.1256,383.06,109.31,-1234.62
18660,-3.8712,-0.0408,-0.1254,-570.07,-62.62,-1219.06
18670,-3.8712,-0.0417,-0.1228,-1210.69,-31.37,-922.18
18680,-3.8712,-0.0394,-0.1191,-1335.69,296.75,-78.37
18690,-3.8711,-0.0353,-0.1167,-1038.82,765.50,1156.01
18700,-3.8711,-0.0292,-0.1141,-507.57,1078.00,-1703.37
18710,-3.8711,-0.0239,-0.1112,273.68,1406.19,-1093.99
18720,-3.8711,-0.0219,-0.1108,945.56,1781.19,-1047.12
18730,-3.8711,-0.0219,-0.1125,1211.18,1828.06,-1406.49
18740,-3.8711,-0.0226,-0.1146,1211.18,1609.31,1593.51
18750,-3.8711,-0.0236,-0.1165,1117.43,1343.69,62.26
18760,-3.8712,-0.0244,-0.1171,992.43,1109.31,-1390.87
18770,-3.8712,-0.0253,-0.1178,883.06,1031.19,1499.76
18780,-3.8712,-0.0262,-0.1200,773.68,937.44,843.51
18790,-3.8712,-0.0282,-0.1223,648.68,656.19,515.38
18800,-3.8712,-0.0319,-0.1233,398.68,359.31,452.88
18810,-3.8712,-0.0352,-0.1227,-70.07,234.25,656.01
18820,-3.8712,-0.0360,-0.1213,-491.94,312.38,1171.63
18830,-3.8712,-0.0341,-0.1202,-601.32,484.25,1749.76
18840,-3.8712,-0.0314,-0.1193,-351.32,624.88,-1781.49
18850,-3.8712,-0.0311,-0.1187,-7.57,749.88,-1281.49
18860,-3.8712,-0.0342,-0.1184,23.68,828.06,-609.62
18870,-3.8711,-0.0381,-0.1187,-366.94,859.25,15.38
18880,-3.8711,-0.0397,-0.1193,-866.94,828.00,437.26
18890,-3.8711,-0.0371,-0.1211,-1070.07,749.88,609.13
18900,-3.8711,-0.0320,-0.1228,-741.94,515.50,421.63
18910,-3.8712,-0.0270,-0.1230,-85.69,296.75,-109.62
18920,-3.8712,-0.0233,-0.1232,554.93,265.56,-906.49
18930,-3.8712,-0.0215,-0.1239,1023.68,249.94,-1734.62
18940,-3.8712,-0.0234,-0.1249,1258.06,156.19,1718.51
18950,-3.8712,-0.0295,-0.1250,1008.06,31.19,1765.38
18960,-3.8712,-0.0376,-0.1240,226.81,15.56,-1687.74
18970,-3.8712,-0.0453,-0.1230,-804.44,140.50,-859.62
18980,-3.8712,-0.0510,-0.1212,-1788.82,265.50,-47.12
18990,-3.8711,-0.0535,-0.1183,1476.81,499.88,437.26
19000,-3.8711,-0.0497,-0.1168,1164.31,874.88,593.51
19010,-3.8711,-0.0397,-0.1161,1648.68,1062.38,531.01
19020,-3.8711,-0.0276,-0.1158,-1070.07,1156.13,249.76
19030,-3.8712,-0.0179,-0.1163,476.81,1187.44,-203.37
19040,-3.8712,-0.0139,-0.1163,1711.18,1124.94,-625.24
19050,-3.8712,-0.0156,-0.1166,-1773.19,1124.94,-1172.12
19060,-3.8712,-0.0215,-0.1178,-1991.94,1093.69,-1797.12
19070,-3.8712,-0.0294,-0.1194,1258.06,937.44,1812.26
19080,-3.8712,-0.0375,-0.1207,242.43,734.31,1702.88
19090,-3.8712,-0.0433,-0.1216,-788.82,562.38,1656.01
19100,-3.8712,-0.0461,-0.1228,-1538.82,453.00,1452.88
19110,-3.8712,-0.0459,-0.1235,-1898.19,296.75,1249.76
19120,-3.8712,-0.0449,-0.1229,-1866.94,203.00,1312.26
19130,-3.8712,-0.0463,-0.1219,-1741.94,281.13,1827.88
19140,-3.8712,-0.0487,-0.1200,-1913.82,406.13,-1359.62
19150,-3.8712,-0.0488,-0.1166,1773.68,656.13,-515.87
19160,-3.8711,-0.0441,-0.1139,1758.06,1093.63,124.76
19170,-3.8711,-0.0343,-0.1128,-1632.57,1437.38,359.13
19180,-3.8711,-0.0222,-0.1143,-382.57,1578.00,171.63
19190,-3.8712,-0.0137,-0.1162,1164.31,1390.56,-437.74
19200,-3.8712,-0.0128,-0.1169,-1741.94,1140.56,-1468.99
19210,-3.8712,-0.0194,-0.1182,-1632.57,1046.81,1562.26
19220,-3.8712,-0.0299,-0.1206,1523.68,890.56,1343.51
19230,-3.8712,-0.0394,-0.1227,179.93,578.06,1734.13
19240,-3.8712,-0.0452,-0.1232,-1038.82,312.38,-1750.24
19250,-3.8712,-0.0460,-0.1223,-1773.19,249.88,-1547.12
19260,-3.8712,-0.0438,-0.1215,-1882.57,359.25,-1734.62
19270,-3.8712,-0.0411,-0.1188,-1601.32,468.63,-1625.24
19280,-3.8712,-0.0409,-0.1150,-1257.57,812.38,-968.99
19290,-3.8711,-0.0433,-0.1124,-1226.32,1296.75,46.63
19300,-3.8711,-0.0447,-0.1100,-1538.82,1624.88,1077.88
19310,-3.8711,-0.0425,-0.1075,-1710.69,1937.38,1593.51
19320,-3.8711,-0.0367,-0.1082,-1429.44,-1750.12,1140.38
19330,-3.8711,-0.0287,-0.1129,-695.07,-1828.25,15.38
19340,-3.8712,-0.0220,-0.1173,336.18,1562.44,-1328.37
19350,-3.8712,-0.0215,-0.1230,1195.56,999.94,1609.13
19360,-3.8712,-0.0260,-0.1339,1258.06,265.56,1452.88
19370,-3.8712,-0.0245,-0.1361,679.93,-1125.06,1749.69
19380,-3.8712,-0.0231,-0.1099,867.43,-1406.31,1655.94
19390,-3.8712,-0.0375,-0.0756,1054.93,1953.06,1374.76
19400,-3.8712,-0.0536,-0.0729,-788.82,-1656.37,-1828.31
19410,-3.8711,-0.0541,-0.0974,1148.68,-1312.62,656.07
19420,-3.8711,-0.0433,-0.1112,1086.18,-453.25,-718.99
19430,-3.8710,-0.0320,-0.1033,-1538.82,1781.13,171.63
19440,-3.8711,-0.0255,-0.0964,-85.69,-1203.25,-609.62
19450,-3.8711,-0.0227,-0.1007,742.43,-328.19,-1468.99
19460,-3.8711,-0.0229,-0.1060,1101.81,-875.06,1999.76
19470,-3.8711,-0.0266,-0.1063,1070.56,-1546.94,1249.76
19480,-3.8711,-0.0317,-0.1063,601.81,-1593.81,77.88
19490,-3.8712,-0.0347,-0.1084,-54.44,-1593.87,-937.74
19500,-3.8712,-0.0353,-0.1107,-429.44,-1859.50,-1359.62
19510,-3.8712,-0.0343,-0.1107,-507.57,1843.63,-1375.24
19520,-3.8712,-0.0325,-0.1095,-382.57,1843.63,-890.87
19530,-3.8711,-0.0310,-0.1089,-148.19,1999.88,15.38
19540,-3.8711,-0.0304,-0.1067,39.31,-1921.94,1031.01
19550,-3.8711,-0.0316,-0.1023,117.43,-1640.69,-1953.37
19560,-3.8711,-0.0328,-0.0997,-38.82,-1078.25,-953.37
19570,-3.8711,-0.0306,-0.1018,-195.07,-750.12,-328.37
19580,-3.8711,-0.0244,-0.1060,86.18,-1015.69,-656.49
19590,-3.8711,-0.0171,-0.1084,883.06,-1546.94,-1953.37
19600,-3.8711,-0.0134,-0.1088,1820.56,-1859.44,452.88
19610,-3.8712,-0.0142,-0.1102,-1710.69,-1906.31,-765.87
19620,-3.8712,-0.0183,-0.1118,-1804.44,1906.19,-1250.24
19630,-3.8712,-0.0256,-0.1105,1664.31,1703.06,-937.74
19640,-3.8712,-0.0337,-0.1082,726.81,1874.94,-93.99
19650,-3.8711,-0.0385,-0.1066,-304.44,-1828.25,749.76
19660,-3.8711,-0.0375,-0.1057,-913.82,-1625.12,937.26
19670,-3.8711,-0.0312,-0.1061,-788.82,-1515.75,452.88
19680,-3.8712,-0.0256,-0.1053,8.06,-1562.56,-93.99
19690,-3.8712,-0.0240,-0.1046,726.81,-1468.81,-453.37
19700,-3.8712,-0.0258,-0.1052,929.93,-1375.06,-672.12
19710,-3.8712,-0.0292,-0.1071,711.18,-1453.19,-750.24
19720,-3.8712,-0.0320,-0.1095,273.68,-1687.56,-828.37
19730,-3.8712,-0.0328,-0.1119,-85.69,1999.88,-1140.87
19740,-3.8712,-0.0331,-0.1160,-195.07,1687.38,-1625.24
19750,-3.8712,-0.0333,-0.1194,-226.32,1171.75,1984.13
19760,-3.8712,-0.0339,-0.1190,-257.57,734.25,1734.13
19770,-3.8712,-0.0355,-0.1165,-335.69,781.13,1452.88
19780,-3.8712,-0.0374,-0.1155,-538.82,1109.25,1265.38
19790,-3.8712,-0.0383,-0.1172,-773.19,1234.25,1218.51
19800,-3.8712,-0.0382,-0.1194,-898.19,1015.50,1296.63
19810,-3.8712,-0.0349,-0.1204,-882.57,734.25,1265.38
19820,-3.8712,-0.0293,-0.1202,-460.69,609.25,1015.38
19830,-3.8712,-0.0240,-0.1194,258.06,624.94,843.51
19840,-3.8712,-0.0219,-0.1187,929.93,734.31,874.76
19850,-3.8712,-0.0245,-0.1179,1211.18,828.06,1062.26
19860,-3.8712,-0.0308,-0.1180,867.43,921.81,1265.38
19870,-3.8712,-0.0377,-0.1195,70.56,906.19,1421.63
19880,-3.8712,-0.0444,-0.1217,-820.07,718.63,1656.01
19890,-3.8712,-0.0465,-0.1228,-1679.44,437.38,1874.76
19900,-3.8712,-0.0420,-0.1221,-1945.07,296.75,1968.51
19910,-3.8712,-0.0353,-0.1199,-1366.94,390.50,-1859.62
19920,-3.8712,-0.0321,-0.1161,-507.57,671.75,-1312.74
19930,-3.8712,-0.0331,-0.1113,-101.32,1156.13,-562.74
19940,-3.8711,-0.0345,-0.1058,-226.32,1765.50,140.38
19950,-3.8711,-0.0332,-0.1003,-413.82,-1531.37,593.51
19960,-3.8711,-0.0291,-0.0985,-241.94,-828.25,843.51
19970,-3.8711,-0.0248,-0.1012,289.31,-593.81,1062.26
19980,-3.8711,-0.0232,-0.1044,836.18,-937.56,1140.38
19990,-3.8711,-0.0250,-0.1055,1039.31,-1343.81,671.63
20000,-3.8712,-0.0289,-0.1067,804.93,-1484.44,-250.24
20010,-3.8712,-0.0327,-0.1083,304.93,-1640.69,-922.12
20020,-3.8712,-0.0354,-0.1090,-179.44,-1843.87,-1203.37
20030,-3.8712,-0.0367,-0.1097,-523.19,-1937.62,-1234.62
20040,-3.8712,-0.0364,-0.1111,-695.07,1968.63,-937.74
20050,-3.8712,-0.0350,-0.1122,-648.19,1796.75,-515.87
20060,-3.8712,-0.0341,-0.1121,-476.32,1656.13,-31.49
20070,-3.8711,-0.0352,-0.1110,-351.32,1671.75,671.63
20080,-3.8711,-0.0388,-0.1093,-491.94,1812.38,1656.01
20090,-3.8711,-0.0420,-0.1086,-960.69,-1968.87,-1203.37
20100,-3.8711,-0.0422,-0.1093,-1366.94,-1890.75,-265.87
20110,-3.8710,-0.0394,-0.1088,-1398.19,-1968.87,249.76
20120,-3.8710,-0.0361,-0.1061,-1038.82,-1906.37,359.13
20130,-3.8711,-0.0331,-0.1046,-616.94,-1562.62,-156.49
20140,-3.8711,-0.0299,-0.1072,-226.32,-1375.12,-1578.37
20150,-3.8711,-0.0272,-0.1122,179.93,-1703.19,296.63
20160,-3.8712,-0.0262,-0.1161,523.68,1656.19,1921.63
20170,-3.8712,-0.0280,-0.1167,648.68,1156.19,31.01
20180,-3.8713,-0.0295,-0.1144,429.93,1078.06,-812.74
20190,-3.8713,-0.0314,-0.1104,226.81,1374.94,-437.74
20200,-3.8712,-0.0354,-0.1057,-7.57,1890.50,1124.76
20210,-3.8712,-0.0397,-0.1024,-523.19,-1515.75,-797.12
20220,-3.8711,-0.0416,-0.1029,-1070.07,-1093.87,937.26
20230,-3.8711,-0.0405,-0.1058,-1320.07,-1156.37,1781.01
20240,-3.8711,-0.0380,-0.1075,-1179.44,-1531.37,1796.63
20250,-3.8711,-0.0352,-0.1086,-851.32,-1750.12,1296.63
20260,-3.8711,-0.0304,-0.1107,-491.94,-1890.75,437.26
20270,-3.8712,-0.0248,-0.1144,117.43,1843.69,-640.87
20280,-3.8712,-0.0236,-0.1178,836.18,1374.94,-1562.74
20290,-3.8712,-0.0294,-0.1189,992.43,937.44,-1953.37
20300,-3.8712,-0.0385,-0.1187,242.43,796.81,-1953.37
20310,-3.8712,-0.0430,-0.1172,-913.82,828.00,-1781.49
20320,-3.8712,-0.0399,-0.1157,-1491.94,1015.50,-1625.24
20330,-3.8712,-0.0331,-0.1161,-1101.32,1203.00,-1437.74
20340,-3.8712,-0.0270,-0.1171,-226.32,1156.13,-1187.74
20350,-3.8712,-0.0250,-0.1166,554.93,1031.19,-1015.87
20360,-3.8712,-0.0269,-0.1160,804.93,1093.69,-859.62
20370,-3.8712,-0.0287,-0.1163,570.56,1171.81,-781.49
20380,-3.8712,-0.0284,-0.1176,336.18,1124.94,-1078.37
20390,-3.8712,-0.0278,-0.1189,367.43,968.69,-1781.49
20400,-3.8712,-0.0300,-0.1185,445.56,796.81,1577.88
20410,-3.8712,-0.0336,-0.1174,164.31,843.69,1531.01
20420,-3.8712,-0.0349,-0.1161,-288.82,984.25,1999.76
20430,-3.8712,-0.0323,-0.1139,-460.69,1156.13,-1390.87
20440,-3.8712,-0.0282,-0.1129,-132.57,1437.38,-1015.87
20450,-3.8712,-0.0248,-0.1128,398.68,1562.44,-906.49
20460,-3.8712,-0.0215,-0.1123,836.18,1578.06,-1031.49
20470,-3.8712,-0.0188,-0.1125,1258.06,1640.56,-1453.37
20480,-3.8712,-0.0178,-0.1140,1601.81,1609.31,1937.26
20490,-3.8712,-0.0193,-0.1165,1726.81,1421.81,1249.76
20500,-3.8712,-0.0237,-0.1183,1539.31,1109.31,687.26
20510,-3.8712,-0.0293,-0.1188,976.81,874.94,359.13
20520,-3.8712,-0.0348,-0.1198,258.06,812.44,296.63
20530,-3.8712,-0.0381,-0.1191,-445.07,687.38,577.88
20540,-3.8712,-0.0381,-0.1155,-866.94,765.50,1265.38
20550,-3.8712,-0.0353,-0.1124,-866.94,1234.25,-1765.87
20560,-3.8712,-0.0322,-0.1107,-507.57,1624.88,-656.49
20570,-3.8711,-0.0330,-0.1112,-116.94,1843.63,421.63
20580,-3.8711,-0.0366,-0.1146,-210.69,1781.13,906.01
20590,-3.8711,-0.0404,-0.1174,-679.44,1343.63,515.38
20600,-3.8712,-0.0443,-0.1190,-1163.82,984.25,-531.49
20610,-3.8712,-0.0480,-0.1210,-1663.82,781.13,-1625.24
20620,-3.8712,-0.0511,-0.1206,1867.43,531.13,1718.51
20630,-3.8712,-0.0535,-0.1172,1461.18,578.00,1624.76
20640,-3.8712,-0.0538,-0.1132,1164.31,1015.50,-1906.49
20650,-3.8712,-0.0536,-0.1093,1117.43,1531.13,-1062.74
20660,-3.8711,-0.0536,-0.1069,1148.68,-1968.87,31.01
20670,-3.8711,-0.0518,-0.1051,1148.68,-1672.00,1218.51
20680,-3.8711,-0.0477,-0.1022,1383.06,-1437.62,-1937.74
20690,-3.8711,-0.0430,-0.1006,1898.68,-1062.62,-1890.87
20700,-3.8711,-0.0381,-0.1019,-1491.94,-859.50,1312.26
20710,-3.8711,-0.0350,-0.1046,-866.94,-1031.37,62.26
20720,-3.8712,-0.0353,-0.1060,-476.32,-1375.12,-1000.24
20730,-3.8712,-0.0382,-0.1056,-507.57,-1547.00,-1375.24
20740,-3.8712,-0.0422,-0.1041,-882.57,-1500.12,-875.24
20750,-3.8711,-0.0439,-0.1007,-1398.19,-1312.62,62.26
20760,-3.8711,-0.0406,-0.0973,-1616.94,-875.12,1218.51
20770,-3.8711,-0.0342,-0.0963,-1195.07,-437.62,-1453.37
20780,-3.8711,-0.0289,-0.0969,-366.94,-312.62,-218.99
20790,-3.8710,-0.0271,-0.0988,304.93,-390.69,671.63
20800,-3.8710,-0.0269,-0.1017,539.31,-625.06,968.51
20810,-3.8710,-0.0267,-0.1051,570.56,-1000.06,452.88
20820,-3.8711,-0.0250,-0.1099,586.18,-1437.56,-640.87
20830,-3.8711,-0.0217,-0.1141,804.93,1953.06,-1875.24
20840,-3.8711,-0.0188,-0.1162,1226.81,1406.19,1031.01
20850,-3.8711,-0.0162,-0.1179,1601.81,1140.56,77.88
20860,-3.8712,-0.0134,-0.1191,1929.93,921.81,-828.37
20870,-3.8712,-0.0092,-0.1184,-1710.69,765.56,-1718.99
20880,-3.8712,-0.0054,-0.1169,-1163.82,859.31,1609.13
20890,-3.8712,-0.0057,-0.1151,-679.44,1046.81,1718.51
20900,-3.8712,-0.0118,-0.1144,-726.32,1281.19,-828.37
20910,-3.8711,-0.0219,-0.1167,-1507.57,1374.94,-1906.49
20920,-3.8710,-0.0288,-0.1157,1211.18,1078.06,1937.26
20930,-3.8708,-0.0305,-0.1078,320.56,1203.06,1718.51
20940,-3.8707,-0.0306,-0.0962,101.81,-1781.31,765.38
20950,-3.8707,-0.0316,-0.0858,86.18,-296.94,-1359.62
20960,-3.8707,-0.0319,-0.0824,-38.82,1031.13,-1281.43
20970,-3.8707,-0.0253,-0.0848,-70.07,1468.63,702.94
20980,-3.8708,-0.0116,-0.0887,773.68,1156.19,702.94
20990,-3.8711,0.0017,-0.0951,-1476.32,656.19,-640.81
21000,-3.8712,0.0095,-0.1022,226.81,-171.88,1656.01
21010,-3.8713,0.0082,-0.1082,1226.81,-1078.12,218.51
21020,-3.8716,-0.0012,-0.1133,1054.93,-1843.75,-297.12
21030,-3.8716,-0.0142,-0.1166,-148.19,1515.56,890.38
21040,-3.8716,-0.0284,-0.1174,-1804.44,1093.69,124.76
21050,-3.8716,-0.0421,-0.1161,367.43,984.31,1077.88
21060,-3.8716,-0.0544,-0.1157,-1382.57,1156.13,-1234.62
21070,-3.8715,-0.0634,-0.1202,1039.31,1203.00,124.76
21080,-3.8715,-0.0637,-0.1278,-101.32,624.82,843.51
21090,-3.8715,-0.0544,-0.1365,-148.19,-343.93,1265.32
21100,-3.8715,-0.0422,-0.1447,1039.31,-1453.25,1671.57
21110,-3.8715,-0.0386,-0.1476,-1398.19,1499.88,-1375.31
21120,-3.8713,-0.0505,-0.1465,-929.44,1124.88,687.19
21130,-3.8713,-0.0728,-0.1460,1539.31,1265.50,-422.18
21140,-3.8712,-0.0907,-0.1447,-1304.44,1327.94,-1453.43
21150,-3.8711,-0.0945,-0.1443,398.68,1499.82,874.69
21160,-3.8711,-0.0826,-0.1467,-85.69,1546.63,-1765.93
21170,-3.8711,-0.0601,-0.1476,1429.93,1234.19,-1531.56
21180,-3.8711,-0.0356,-0.1458,320.56,1124.88,1687.19
21190,-3.8711,-0.0165,-0.1428,-554.44,1359.25,405.94
21200,-3.8712,-0.0056,-0.1381,1898.68,1734.31,-797.18
21210,-3.8712,-0.0031,-0.1311,-710.69,-1656.31,-1437.81
21220,-3.8712,-0.0065,-0.1232,-382.57,-765.69,-1453.43
21230,-3.8712,-0.0110,-0.1178,-820.07,249.94,-1172.12
21240,-3.8712,-0.0138,-0.1172,-1398.19,937.44,-828.37
21250,-3.8712,-0.0155,-0.1182,-1757.57,1015.56,-734.62
21260,-3.8712,-0.0175,-0.1163,-1976.32,890.56,-890.87
21270,-3.8712,-0.0188,-0.1121,1773.68,1124.94,-1125.24
21280,-3.8712,-0.0205,-0.1083,1601.81,1671.81,-1000.24
21290,-3.8712,-0.0231,-0.1038,1383.06,-1843.81,-375.24
21300,-3.8711,-0.0248,-0.0990,1054.93,-1265.69,406.01
21310,-3.8711,-0.0219,-0.0974,836.18,-656.31,1093.51
21320,-3.8711,-0.0131,-0.0994,1211.18,-453.19,1406.01
21330,-3.8711,-0.0033,-0.1016,-1663.82,-703.19,1187.26
21340,-3.8711,0.0029,-0.1027,-413.82,-984.44,734.13
21350,-3.8711,0.0033,-0.1038,383.06,-1140.62,312.26
21360,-3.8711,-0.0016,-0.1047,429.93,-1281.25,327.88
21370,-3.8711,-0.0121,-0.1053,-195.07,-1390.69,1046.63
21380,-3.8711,-0.0258,-0.1052,-1538.82,-1468.81,-1765.87
21390,-3.8711,-0.0376,-0.1063,711.18,-1453.19,-359.62
21400,-3.8710,-0.0459,-0.1104,-804.44,-1593.87,1140.38
21410,-3.8710,-0.0482,-0.1146,-1866.94,1890.50,-1781.49
21420,-3.8710,-0.0449,-0.1168,1836.18,1343.63,-1640.87
21430,-3.8710,-0.0365,-0.1200,-1741.94,1062.38,1234.13
21440,-3.8711,-0.0280,-0.1265,-663.82,656.13,-984.62
21450,-3.8711,-0.0273,-0.1309,429.93,-171.94,609.07
21460,-3.8712,-0.0339,-0.1299,508.06,-734.44,-1078.43
21470,-3.8712,-0.0413,-0.1272,-335.69,-609.50,-1844.06
21480,-3.8712,-0.0411,-0.1241,-1273.19,-265.75,-1922.18
21490,-3.8712,-0.0337,-0.1215,-1257.57,124.88,-1625.24
21500,-3.8712,-0.0217,-0.1196,-304.44,468.63,-1390.87
21510,-3.8712,-0.0103,-0.1187,1226.81,703.06,-1343.99
21520,-3.8712,-0.0050,-0.1188,-1304.44,828.06,-1359.62
21530,-3.8712,-0.0048,-0.1172,-632.57,812.44,-1734.62
21540,-3.8712,-0.0061,-0.1174,-601.32,1015.56,1484.13
21550,-3.8712,-0.0082,-0.1205,-773.19,984.31,640.38
21560,-3.8712,-0.0125,-0.1201,-1038.82,593.69,77.88
21570,-3.8713,-0.0195,-0.1166,-1585.69,640.56,-187.74
21580,-3.8713,-0.0273,-0.1162,1508.06,1093.69,-390.87
21590,-3.8713,-0.0328,-0.1193,508.06,1140.56,-297.12
21600,-3.8712,-0.0367,-0.1199,-195.07,749.88,562.26
21610,-3.8712,-0.0378,-0.1165,-695.07,671.75,1968.51
21620,-3.8712,-0.0316,-0.1145,-835.69,1109.25,-687.74
21630,-3.8711,-0.0198,-0.1185,-38.82,1359.25,31.01
21640,-3.8712,-0.0081,-0.1226,1476.81,843.69,-31.49
21650,-3.8712,-0.0024,-0.1204,-1023.19,328.06,-609.62
21660,-3.8712,-0.0043,-0.1174,-304.44,609.31,-1515.87
21670,-3.8712,-0.0088,-0.1173,-538.82,984.31,1593.51
21680,-3.8712,-0.0161,-0.1167,-1116.94,999.94,1031.01
21690,-3.8712,-0.0266,-0.1183,1945.56,1078.06,906.01
21700,-3.8712,-0.0344,-0.1194,601.81,874.94,1015.38
21710,-3.8712,-0.0331,-0.1169,-398.19,734.25,1156.01
21720,-3.8712,-0.0214,-0.1185,-226.32,1046.75,1046.63
21730,-3.8712,-0.0044,-0.1235,1273.68,843.69,781.01
21740,-3.8712,0.0066,-0.1250,-554.44,203.06,1077.88
21750,-3.8712,0.0040,-0.1222,851.81,0.00,-1765.87
21760,-3.8712,-0.0082,-0.1196,523.68,359.38,-109.62
21770,-3.8711,-0.0199,-0.1158,-1038.82,703.06,1515.38
21780,-3.8711,-0.0253,-0.1113,1461.18,1187.44,-1406.49
21790,-3.8711,-0.0234,-0.1115,773.68,1765.56,-1422.12
21800,-3.8711,-0.0177,-0.1167,1008.06,1749.94,1406.01
21810,-3.8712,-0.0117,-0.1219,1742.43,1078.06,-343.99
21820,-3.8712,-0.0066,-0.1238,-1491.94,406.19,-1890.87
21830,-3.8712,-0.0039,-0.1217,-835.69,171.81,1249.76
21840,-3.8712,-0.0049,-0.1193,-491.94,437.44,1452.88
21850,-3.8712,-0.0095,-0.1193,-616.94,749.94,-1234.62
21860,-3.8711,-0.0161,-0.1185,-1210.69,749.94,468.51
21870,-3.8711,-0.0217,-0.1163,1945.56,843.69,1609.13
21880,-3.8711,-0.0249,-0.1147,1226.81,1124.94,-1968.99
21890,-3.8711,-0.0265,-0.1135,820.56,1328.06,1843.51
21900,-3.8711,-0.0269,-0.1122,617.43,1484.31,1265.38
21910,-3.8711,-0.0253,-0.1112,570.56,1656.19,593.51
21920,-3.8712,-0.0216,-0.1112,773.68,1781.19,-109.62
21930,-3.8712,-0.0175,-0.1106,1242.43,1781.19,-750.24
21940,-3.8712,-0.0137,-0.1088,1773.68,1859.31,-1375.24
21950,-3.8712,-0.0110,-0.1095,-1741.94,-1906.31,1890.38
21960,-3.8712,-0.0083,-0.1133,-1398.19,1999.94,1109.13
21970,-3.8712,-0.0052,-0.1157,-1054.44,1515.56,593.51
21980,-3.8712,-0.0050,-0.1162,-663.82,1203.06,390.38
21990,-3.8712,-0.0081,-0.1163,-632.57,1140.56,577.88
22000,-3.8712,-0.0137,-0.1155,-1023.19,1124.94,1296.63
22010,-3.8712,-0.0209,-0.1147,-1741.94,1234.31,-1687.74
22020,-3.8712,-0.0245,-0.1160,1336.18,1328.06,-578.37
22030,-3.8711,-0.0221,-0.1179,867.43,1171.81,421.63
22040,-3.8711,-0.0177,-0.1182,1179.93,921.81,1140.38
22050,-3.8711,-0.0156,-0.1163,1742.43,890.56,1624.76
22060,-3.8711,-0.0181,-0.1144,-1991.94,1124.94,-1953.37
22070,-3.8711,-0.0243,-0.1162,1695.56,1374.94,-1625.24
22080,-3.8711,-0.0316,-0.1200,898.68,1140.56,-1734.62
22090,-3.8711,-0.0353,-0.1193,-38.82,656.13,1687.26
22100,-3.8711,-0.0323,-0.1183,-507.57,749.88,718.51
22110,-3.8712,-0.0226,-0.1207,-132.57,874.88,-343.99
22120,-3.8712,-0.0098,-0.1213,1117.43,562.44,-922.12
22130,-3.8712,-0.0015,-0.1171,-1241.94,484.31,-843.99
22140,-3.8712,0.0005,-0.1107,-179.44,1031.19,-187.74
22150,-3.8711,-0.0009,-0.1057,70.56,1828.12,843.51
22160,-3.8711,-0.0015,-0.1029,-101.32,-1515.69,1765.38
22170,-3.8711,0.0017,-0.1017,-179.44,-1156.31,-1859.62
22180,-3.8711,0.0079,-0.1016,226.81,-1015.62,-1906.49
22190,-3.8711,0.0149,-0.1033,1023.68,-1000.00,1812.26
22200,-3.8711,0.0198,-0.1058,1914.31,-1218.75,1484.13
22210,-3.8711,0.0186,-0.1072,-1460.69,-1546.88,1202.88
22220,-3.8711,0.0120,-0.1084,-1616.94,-1718.75,765.38
22230,-3.8711,0.0060,-0.1107,1539.31,-1875.00,77.88
22240,-3.8712,0.0028,-0.1127,773.68,1828.12,-843.99
22250,-3.8712,0.0012,-0.1132,367.43,1578.12,-1890.87
22260,-3.8712,0.0007,-0.1119,164.31,1515.62,1359.13
22270,-3.8712,0.0001,-0.1118,101.81,1671.88,1031.01
22280,-3.8712,-0.0007,-0.1147,23.68,1687.50,906.01
22290,-3.8712,-0.0020,-0.1189,-85.69,1328.06,843.51
22300,-3.8712,-0.0054,-0.1213,-241.94,796.81,656.01
22310,-3.8712,-0.0107,-0.1228,-679.44,484.31,312.26
22320,-3.8712,-0.0172,-0.1240,-1366.94,296.81,15.38
22330,-3.8713,-0.0240,-0.1238,1804.93,140.56,-47.12
22340,-3.8712,-0.0298,-0.1234,929.93,171.81,140.38
22350,-3.8712,-0.0352,-0.1255,195.56,218.69,624.76
22360,-3.8712,-0.0396,-0.1282,-491.94,-47.00,1327.82
22370,-3.8712,-0.0392,-0.1266,-1054.44,-390.75,-1937.81
22380,-3.8712,-0.0330,-0.1238,-1007.57,-187.62,-1500.31
22390,-3.8712,-0.0237,-0.1228,-210.69,171.75,-1406.49
22400,-3.8712,-0.0164,-0.1205,976.81,296.81,-1218.99
22410,-3.8712,-0.0154,-0.1174,1914.31,593.69,-937.74
22420,-3.8712,-0.0199,-0.1150,-1960.69,984.31,-578.37
22430,-3.8712,-0.0259,-0.1128,1461.18,1296.81,-78.37
22440,-3.8711,-0.0272,-0.1099,695.56,1578.06,359.13
22450,-3.8711,-0.0225,-0.1060,523.68,1953.06,687.26
22460,-3.8711,-0.0149,-0.1038,1133.06,-1546.94,968.51
22470,-3.8711,-0.0081,-0.1042,-1898.19,-1265.69,1374.76
22480,-3.8711,-0.0044,-0.1055,-1023.19,-1328.19,1812.26
22490,-3.8711,-0.0050,-0.1053,-554.44,-1484.44,1874.76
22500,-3.8711,-0.0062,-0.1047,-632.57,-1468.81,1640.38
22510,-3.8711,-0.0056,-0.1060,-788.82,-1390.69,1234.13
22520,-3.8711,-0.0050,-0.1072,-710.69,-1546.94,827.88
22530,-3.8711,-0.0060,-0.1071,-632.57,-1703.19,437.26
22540,-3.8711,-0.0078,-0.1068,-757.57,-1687.56,93.51
22550,-3.8711,-0.0094,-0.1062,-991.94,-1656.31,140.38
22560,-3.8711,-0.0096,-0.1047,-1195.07,-1578.19,546.63
22570,-3.8711,-0.0074,-0.1023,-1226.32,-1390.69,1140.38
22580,-3.8711,-0.0035,-0.1018,-945.07,-1078.19,1484.13
22590,-3.8711,-0.0013,-0.1049,-445.07,-1015.69,1031.01
22600,-3.8712,-0.0027,-0.1086,-163.82,-1406.31,-125.24
22610,-3.8712,-0.0071,-0.1113,-335.69,-1890.69,-1625.24
22620,-3.8712,-0.0118,-0.1145,-898.19,1765.56,859.13
