timestamp_ms,ax,ay,az,gx,gy,gz
0,-3.8466,1.9502,-0.3136,-1960.69,-980.65,1671.26
10,-3.8457,1.9690,-0.3837,1633.06,-136.84,-1438.17
20,-3.8446,1.9674,-0.4670,39.31,-1105.53,858.58
30,-3.8749,1.9458,-0.5394,-163.82,222.53,1342.83
40,-3.8741,1.9128,-0.5941,1070.56,-1043.09,1998.90
50,-3.8737,1.8737,-0.6221,851.81,-43.15,155.03
60,-3.8737,1.8335,-0.6177,-163.82,378.60,-63.72
70,-3.8738,1.8026,-0.5814,-1304.44,941.04,-891.85
80,-3.8740,1.7892,-0.5389,-1257.57,1581.60,-969.91
90,-3.8741,1.7925,-0.5394,1023.68,-980.90,-204.22
100,-3.8739,1.8011,-0.5922,1445.56,-1043.40,1592.65
110,-3.8735,1.8043,-0.6708,-1445.07,206.60,-1188.66
120,-3.8729,1.8005,-0.7571,-1038.82,-1855.90,389.28
130,-3.8724,1.7883,-0.8248,-1523.19,-902.77,-407.78
140,-3.8719,1.7635,-0.8470,914.31,-1574.65,-64.15
150,-3.8716,1.7214,-0.8230,1742.43,-418.46,810.79
160,-3.8716,1.6626,-0.7860,351.81,-1340.39,1748.35
170,-3.8717,1.5914,-0.7739,820.56,-606.14,-1610.96
180,-3.8718,1.5068,-0.7970,-288.82,940.55,-532.78
190,-3.8718,1.4081,-0.8411,883.06,1987.30,-470.34
200,-3.8717,1.2994,-0.8832,242.43,346.50,1967.10
210,-3.8716,1.1831,-0.9059,-1663.82,-1044.37,1123.23
220,-3.8715,1.0658,-0.9045,-554.44,49.13,13.85
230,-3.8715,0.9581,-0.8768,429.93,220.83,1982.60
240,-3.8715,0.8646,-0.8193,-1351.32,-232.54,-1845.52
250,-3.8716,0.7816,-0.7428,-1320.07,-873.35,-564.15
260,-3.8717,0.7008,-0.6697,54.93,923.40,-1938.96
270,-3.8719,0.6160,-0.6177,1711.18,-1717.41,-110.72
280,-3.8721,0.5260,-0.5867,-1148.19,938.66,-1532.47
290,-3.8722,0.4359,-0.5623,-663.82,907.23,1967.59
300,-3.8723,0.3544,-0.5325,-195.07,32.04,1702.03
310,-3.8724,0.2908,-0.4921,1367.43,-155.58,1295.78
320,-3.8726,0.2449,-0.4412,1226.81,1016.17,874.02
330,-3.8727,0.2123,-0.3887,-648.19,-468.32,686.58
340,-3.8728,0.1908,-0.3380,-820.07,-1749.63,483.58
350,-3.8730,0.1768,-0.2882,429.93,734.74,-531.92
360,-3.8732,0.1610,-0.2424,-1366.94,-890.32,733.76
370,-3.8735,0.1302,-0.1952,617.43,969.06,-31.74
380,-3.8738,0.0790,-0.1477,679.93,-984.13,1546.45
390,-3.8741,0.0154,-0.1095,-1882.57,1093.87,-1422.18
400,-3.8744,-0.0460,-0.0817,1976.81,1984.38,1031.01
410,-3.8746,-0.0948,-0.0706,-1882.57,1562.38,-1093.93
420,-3.8746,-0.1223,-0.0742,-132.57,-1015.87,1156.07
430,-3.8746,-0.1254,-0.0698,351.81,-1484.62,-1672.06
440,-3.8746,-0.1122,-0.0514,-38.82,-922.18,-78.31
450,-3.8745,-0.0892,-0.0363,1648.68,1437.26,921.75
460,-3.8745,-0.0632,-0.0310,586.18,-625.18,1296.75
470,-3.8746,-0.0396,-0.0284,-85.69,46.69,-93.81
480,-3.8748,-0.0166,-0.0295,-1054.44,374.88,-390.69
490,-3.8749,0.0074,-0.0363,1883.06,234.31,1093.69
500,-3.8439,0.0319,-0.0391,961.18,-640.62,-1922.00
510,-3.8441,0.0551,-0.0374,86.18,-999.94,-750.12
520,-3.8442,0.0812,-0.0408,-945.07,-781.19,499.88
530,-3.8445,0.1145,-0.0509,-1601.32,-1218.63,-328.25
540,-3.8445,0.1636,-0.0660,-1335.69,1484.56,-1109.50
550,-3.8444,0.2313,-0.0883,945.56,-452.82,1031.07
560,-3.8444,0.3026,-0.1223,1617.43,703.55,-1500.18
570,-3.8444,0.3701,-0.1654,-1257.57,344.30,968.51
580,-3.8445,0.4404,-0.2021,-616.94,-1171.20,1077.76
590,-3.8446,0.5138,-0.2222,383.06,-1874.15,265.20
600,-3.8448,0.5779,-0.2374,1773.68,-436.52,-406.74
610,-3.8450,0.6348,-0.2701,1976.81,1610.47,-234.86
620,-3.8450,0.6998,-0.3142,1258.06,1423.10,624.45
630,-3.8451,0.7800,-0.3500,1586.18,-217.41,-1469.42
640,-3.8451,0.8768,-0.3835,-148.19,-795.41,-766.36
650,-3.8450,0.9807,-0.4225,242.43,-1092.04,-578.92
660,-3.8447,1.0664,-0.4523,1539.31,1923.77,-1625.85
670,-3.8445,1.1193,-0.4570,508.06,-1888.55,-1313.42
680,-3.8442,1.1418,-0.4431,-726.32,1502.14,-235.29
690,-3.8439,1.1353,-0.4366,-1835.69,-716.55,1608.46
700,-3.8749,1.0942,-0.4532,1320.56,111.57,-1110.23
710,-3.8746,1.0348,-0.4785,70.56,1986.51,1233.46
720,-3.8746,1.0018,-0.5068,461.18,-1247.99,-1016.60
730,-3.8748,1.0503,-0.5557,242.43,-873.05,-626.04
740,-3.8750,1.2111,-0.6083,-1554.44,877.01,-1094.85
750,-3.8440,1.4402,-0.6293,-976.32,-1857.06,233.15
760,-3.8444,1.6663,-0.5963,351.81,-544.07,1311.22
770,-3.8447,1.8431,-0.5162,1289.31,-324.89,1967.53
780,-3.8451,1.9495,-0.4423,-70.07,1925.42,-954.16
790,-3.8453,2.0498,-0.4220,1539.31,-605.59,-1594.67
800,-3.8455,2.2325,-0.4296,-1616.94,1988.34,733.52
810,-3.8457,2.4606,-0.3994,1773.68,1019.96,1858.52
820,-3.8461,2.6255,-0.3137,-1038.82,879.76,108.58
830,-3.8467,2.6649,-0.2026,70.56,-151.12,311.83
840,-3.8474,2.5699,-0.1129,1117.43,-1932.31,-969.18
850,-3.8479,2.3711,-0.0793,961.18,1551.88,921.63
860,-3.8483,2.1313,-0.0967,-491.94,1848.33,-1515.81
870,-3.8483,1.9061,-0.1333,820.56,-370.85,749.76
880,-3.8481,1.7095,-0.1704,-7.57,-1058.84,687.19
890,-3.8480,1.5394,-0.2062,-1179.44,-1809.20,-1140.99
900,-3.8478,1.3857,-0.2349,1054.93,1612.37,187.07
910,-3.8478,1.2300,-0.2524,1383.06,1940.19,1390.14
920,-3.8479,1.0980,-0.2786,1445.56,-310.12,-1813.05
930,-3.8480,1.0778,-0.3383,554.93,345.89,-1453.67
940,-3.8480,1.1738,-0.4127,1961.18,705.20,858.70
950,-3.8480,1.2621,-0.4590,-1741.94,-825.87,202.27
960,-3.8480,1.2421,-0.4562,1554.93,1252.44,780.33
970,-3.8480,1.1055,-0.4316,-1007.57,1611.76,-1704.04
980,-3.8480,0.9027,-0.4312,1508.06,752.14,-266.48
990,-3.8479,0.6936,-0.4447,-445.07,814.21,1624.15
1000,-3.8478,0.4950,-0.4531,789.31,-920.53,45.96
1010,-3.8478,0.2870,-0.4756,-632.57,-1999.08,-1454.04
1020,-3.8477,0.0688,-0.5332,742.43,-874.45,-1391.60
1030,-3.8474,-0.1444,-0.6080,820.56,-249.88,-1438.60
1040,-3.8470,-0.3336,-0.6592,1523.68,-1812.81,608.15
1050,-3.8468,-0.4604,-0.6824,1304.93,-360.05,76.78
1060,-3.8468,-0.4990,-0.7056,1070.56,670.96,-1313.84
1070,-3.8468,-0.4758,-0.7446,133.06,1702.15,326.72
1080,-3.8470,-0.4459,-0.7976,-898.19,702.15,1998.54
1090,-3.8473,-0.4265,-0.8556,-1070.07,1920.96,-1157.84
1100,-3.8474,-0.3843,-0.9066,1414.31,-1500.85,1310.79
1110,-3.8475,-0.2944,-0.9482,-1179.44,-32.04,560.67
1120,-3.8477,-0.1461,-0.9724,-1679.44,-1359.99,701.23
1130,-3.8478,0.0746,-0.9609,1304.93,-453.43,1169.92
1140,-3.8480,0.3666,-0.9276,1554.93,1000.12,1154.36
1150,-3.8485,0.7002,-0.9303,-1070.07,1266.30,-1251.83
1160,-3.8489,1.0542,-0.9908,1633.06,923.22,1295.04
1170,-3.8490,1.4369,-1.0341,-1054.44,1173.89,1982.42
1180,-3.8489,1.8069,-0.9882,-70.07,-356.63,-1533.33
1190,-3.8488,2.0774,-0.8882,-710.69,1519.10,341.80
1200,-3.8490,2.2125,-0.8102,1914.31,-1683.47,-64.27
1210,-3.8491,2.2363,-0.7877,-788.82,301.15,-1892.21
1220,-3.8492,2.1978,-0.8220,-1741.94,-823.79,-689.09
1230,-3.8491,2.1534,-0.8962,1320.56,-1214.48,-17.27
1240,-3.8485,2.1184,-0.9623,-351.32,1285.40,248.23
1250,-3.8478,2.0668,-0.9789,-835.69,832.21,169.98
1260,-3.8472,1.9811,-0.9504,554.93,-1292.85,-1564.45
1270,-3.8467,1.8713,-0.9075,1586.18,-1652.40,-1611.27
1280,-3.8463,1.7629,-0.8698,-460.69,-152.65,-1486.21
1290,-3.8459,1.6592,-0.8309,1664.31,675.29,1842.04
1300,-3.8457,1.5375,-0.7803,383.06,1643.86,-157.90
1310,-3.8455,1.3905,-0.7399,804.93,127.99,-235.90
1320,-3.8452,1.2406,-0.7384,1992.43,1299.56,-63.96
1330,-3.8447,1.1089,-0.7598,-1195.07,1486.76,389.16
1340,-3.8442,1.0007,-0.7537,1945.56,-1247.86,967.22
1350,-3.8750,0.9114,-0.6863,101.81,-466.80,342.22
1360,-3.8748,0.8331,-0.5742,664.31,158.02,1045.53
1370,-3.8748,0.7560,-0.4535,-1351.32,-1498.41,1248.84
1380,-3.8749,0.6703,-0.3490,773.68,1954.59,155.33
1390,-3.8439,0.5796,-0.2798,1804.93,-670.59,-1266.36
1400,-3.8439,0.5011,-0.2478,-1804.44,188.60,421.33
1410,-3.8439,0.4478,-0.2424,148.68,282.23,-1656.74
1420,-3.8750,0.4014,-0.2593,1320.56,969.60,-250.49
1430,-3.8748,0.3313,-0.2854,-616.94,-1186.77,-1953.67
1440,-3.8746,0.2334,-0.2937,-1585.69,-530.64,-1281.86
1450,-3.8745,0.1248,-0.2722,1883.06,-1593.32,358.76
1460,-3.8746,0.0352,-0.2302,-23.19,1156.43,-719.30
1470,-3.8746,-0.0161,-0.1750,508.06,-1468.69,1843.26
1480,-3.8746,-0.0421,-0.1310,1945.56,1609.31,1109.01
1490,-3.8746,-0.0587,-0.1472,-1382.57,-750.12,1702.82
1500,-3.8745,-0.0632,-0.2225,492.43,1171.75,-984.68
1510,-3.8741,-0.0632,-0.2871,-85.69,-468.93,1343.26
1520,-3.8739,-0.0968,-0.2946,-85.69,-734.56,671.26
1530,-3.8740,-0.1884,-0.2551,-382.57,-1687.74,1733.76
1540,-3.8744,-0.3148,-0.2028,-101.32,-641.05,-1875.55
1550,-3.8749,-0.4355,-0.1738,-288.82,-1938.17,-266.05
1560,-3.8439,-0.5197,-0.1931,258.06,1764.77,46.51
1570,-3.8441,-0.5623,-0.2480,1492.43,-704.16,-1406.68
1580,-3.8441,-0.5822,-0.2997,39.31,264.53,1515.14
1590,-3.8442,-0.5983,-0.3276,1492.43,1655.09,-1391.24
1600,-3.8445,-0.6223,-0.3568,-570.07,-1923.10,-328.80
1610,-3.8447,-0.6554,-0.4208,351.81,-1657.47,-406.98
1620,-3.8450,-0.6882,-0.5060,117.43,-1845.03,-1125.85
1630,-3.8453,-0.7183,-0.5726,-85.69,-751.40,-344.79
1640,-3.8457,-0.7423,-0.6016,70.56,-1282.65,655.09
1650,-3.8463,-0.7432,-0.5964,992.43,-985.84,-1673.10
1660,-3.8469,-0.7388,-0.5963,883.06,-329.59,-282.47
1670,-3.8474,-0.7648,-0.6415,1445.56,-313.96,-1579.35
1680,-3.8479,-0.8175,-0.7274,-1882.57,1904.72,1936.22
1690,-3.8484,-0.8907,-0.8422,-632.57,-1095.40,1623.54
1700,-3.8490,-0.9758,-0.9585,1992.43,216.98,-32.90
1710,-3.8496,-1.0382,-1.0463,-898.19,1326.17,-1392.52
1720,-3.8503,-1.0566,-1.1107,-882.57,-1908.33,716.67
1730,-3.8513,-1.0316,-1.1561,758.06,1841.67,-33.45
1740,-3.8522,-0.9631,-1.1702,-38.82,29.17,-1752.26
1750,-3.8530,-0.8511,-1.1460,726.81,-1767.52,1310.18
1760,-3.8538,-0.6899,-1.0906,-929.44,1326.42,1466.49
1770,-3.8542,-0.4723,-1.0199,-304.44,420.47,-17.76
1780,-3.8542,-0.2141,-0.9415,-445.07,1467.77,497.99
1790,-3.8542,0.0477,-0.8571,601.81,-500.43,904.36
1800,-3.8542,0.3026,-0.7704,-1882.57,-1703.06,1092.04
1810,-3.8542,0.5566,-0.6650,-1257.57,1391.17,14.10
1820,-3.8544,0.7908,-0.5294,-741.94,-1123.96,701.78
1830,-3.8546,0.9785,-0.3923,1226.81,235.90,-94.79
1840,-3.8546,1.1074,-0.3213,1258.06,1783.14,983.58
1850,-3.8546,1.1924,-0.3461,1758.06,-1122.86,-1375.67
1860,-3.8544,1.2748,-0.4205,633.06,-294.56,124.27
1870,-3.8542,1.3993,-0.4895,-820.07,-1825.68,-1391.48
1880,-3.8540,1.5770,-0.5175,-882.57,1346.44,717.77
1890,-3.8539,1.7773,-0.5071,1867.43,1768.68,-188.54
1900,-3.8535,1.9457,-0.4932,-491.94,-902.83,1233.34
1910,-3.8531,2.0291,-0.5010,1054.93,878.78,155.27
1920,-3.8529,2.0085,-0.5375,-273.19,-121.09,-110.41
1930,-3.8524,1.9142,-0.5808,1101.81,-792.97,1420.78
1940,-3.8519,1.8000,-0.5970,1023.68,1659.97,436.34
1950,-3.8516,1.7041,-0.5925,-1585.69,-418.40,-1001.22
1960,-3.8511,1.6237,-0.6055,-1866.94,159.55,826.97
1970,-3.8506,1.5295,-0.6570,-163.82,-1496.89,608.15
1980,-3.8501,1.4053,-0.7339,-210.69,-90.82,-204.47
1990,-3.8495,1.2544,-0.8062,-116.94,-1934.81,-907.71
2000,-3.8490,1.0959,-0.8552,570.56,814.94,-1939.09
2010,-3.8486,0.9592,-0.8696,289.31,-1466.61,732.67
2020,-3.8484,0.8621,-0.8481,-1210.69,689.33,-1548.58
2030,-3.8480,0.7991,-0.8138,-1648.19,-560.85,154.54
2040,-3.8478,0.7632,-0.7900,-1710.69,-170.35,1529.60
2050,-3.8475,0.7526,-0.7772,1695.56,-1123.54,-282.84
2060,-3.8472,0.7543,-0.7649,336.18,517.09,-501.53
2070,-3.8467,0.7588,-0.7571,554.93,-1904.79,1232.85
2080,-3.8462,0.7715,-0.7623,1133.06,-904.79,1967.22
2090,-3.8456,0.7823,-0.7667,-1241.94,-1576.66,1889.10
2100,-3.8450,0.7645,-0.7462,148.68,1860.90,-1860.90
2110,-3.8445,0.7141,-0.6981,1867.43,485.84,-1517.09
2120,-3.8441,0.6570,-0.6348,-585.69,-1358.03,1607.97
2130,-3.8439,0.6133,-0.5648,101.81,-1248.72,1373.72
2140,-3.8749,0.5773,-0.5006,-1491.94,-295.72,76.97
2150,-3.8748,0.5410,-0.4559,1898.68,-77.03,-219.79
2160,-3.8744,0.5027,-0.4387,1258.06,1641.66,-1907.17
2170,-3.8740,0.4581,-0.4471,351.81,-155.27,-1016.54
2180,-3.8735,0.4012,-0.4625,-1351.32,-1233.52,1077.21
2190,-3.8732,0.3210,-0.4614,-632.57,797.61,1889.71
2200,-3.8729,0.2172,-0.4421,1101.81,938.11,-1329.04
2210,-3.8728,0.1040,-0.4128,-195.07,-593.38,-625.92
2220,-3.8727,-0.0022,-0.3687,1320.56,-843.57,936.65
2230,-3.8728,-0.0854,-0.3058,-273.19,828.06,-1422.61
2240,-3.8729,-0.1273,-0.2422,1070.56,874.82,15.01
2250,-3.8733,-0.1239,-0.2026,-288.82,1015.32,-187.99
2260,-3.8734,-0.0956,-0.1880,148.68,-1922.12,1327.70
2270,-3.8735,-0.0626,-0.1829,-226.32,-47.12,1046.45
2280,-3.8737,-0.0404,-0.1731,-7.57,609.19,1452.76
2290,-3.8738,-0.0469,-0.1499,-1163.82,1859.25,1140.26
2300,-3.8740,-0.0895,-0.1184,-1991.94,828.00,-890.93
2310,-3.8743,-0.1639,-0.0922,554.93,859.19,-1234.62
2320,-3.8745,-0.2645,-0.0844,-976.32,218.38,406.07
2330,-3.8749,-0.3721,-0.0986,-1851.32,1218.20,1031.07
2340,-3.8440,-0.4492,-0.1191,383.06,-610.11,1562.26
2350,-3.8444,-0.4573,-0.1172,-1491.94,764.71,-890.87
2360,-3.8446,-0.3944,-0.0790,1476.81,1014.71,-1250.24
2370,-3.8448,-0.3037,-0.0327,1523.68,1905.46,-484.56
2380,-3.8451,-0.2356,-0.0098,1133.06,-172.49,-953.25
2390,-3.8453,-0.2081,-0.0220,1851.81,-1234.86,1156.19
2400,-3.8457,-0.1946,-0.0790,1367.43,1202.70,-1984.44
2410,-3.8461,-0.1622,-0.1573,-898.19,1905.82,343.57
2420,-3.8467,-0.1127,-0.2172,-757.57,-125.37,-187.87
2430,-3.8472,-0.0657,-0.2491,1586.18,218.51,1046.45
2440,-3.8478,-0.0254,-0.2612,-398.19,124.82,1296.39
2450,-3.8483,0.0244,-0.2714,758.06,-1421.94,968.20
2460,-3.8485,0.0950,-0.2979,-866.94,1265.62,1655.70
2470,-3.8485,0.1809,-0.3304,164.31,1875.18,-500.61
2480,-3.8483,0.2571,-0.3536,-835.69,1703.43,-1594.42
2490,-3.8480,0.2896,-0.3811,914.31,-1265.14,-1016.36
2500,-3.8478,0.2877,-0.4176,1070.56,-780.70,-594.54
2510,-3.8475,0.2908,-0.4514,836.18,-1452.58,-969.60
2520,-3.8473,0.3210,-0.4941,1226.81,-1780.70,1592.83
2530,-3.8472,0.3690,-0.5598,1101.81,750.61,-860.35
2540,-3.8470,0.4196,-0.6431,-757.57,344.42,-1672.97
2550,-3.8472,0.4912,-0.7140,1711.18,1688.29,-1438.78
2560,-3.8477,0.6052,-0.7406,-1116.94,610.29,-1360.78
2570,-3.8485,0.7649,-0.7279,1476.81,1204.28,-282.71
2580,-3.8494,0.9731,-0.6936,1914.31,-1170.41,920.41
2590,-3.8503,1.2297,-0.6447,570.56,-779.36,-1048.28
2600,-3.8512,1.5217,-0.5913,1414.31,1486.76,-1048.16
2610,-3.8519,1.8372,-0.5494,-1210.69,315.43,1076.97
2620,-3.8527,2.1759,-0.5219,-835.69,1675.42,967.65
2630,-3.8534,2.4771,-0.4764,-1476.32,1207.34,1202.09
2640,-3.8542,2.6205,-0.3652,1070.56,-979.55,-47.85
2650,-3.8550,2.5612,-0.1934,-570.07,1255.07,1843.02
2660,-3.8558,2.3561,-0.0027,-163.82,-745.06,-547.30
2670,-3.8566,2.1056,0.1815,1586.18,-339.17,1921.81
2680,-3.8571,1.9081,0.3101,1523.68,-761.54,140.93
2690,-3.8572,1.8135,0.3175,242.43,-308.78,-999.45
2700,-3.8566,1.7996,0.2015,133.06,644.17,563.11
2710,-3.8557,1.8097,0.0273,-1648.19,1800.35,-187.13
2720,-3.8545,1.8009,-0.1460,-351.32,-496.52,1906.25
2730,-3.8534,1.7570,-0.2908,-1476.32,1315.98,-531.56
2740,-3.8524,1.6796,-0.3972,898.68,-1215.33,-1359.99
2750,-3.8517,1.5634,-0.4672,-1007.57,1159.48,1046.08
2760,-3.8513,1.4142,-0.5029,117.43,206.18,-125.92
2770,-3.8510,1.2769,-0.5219,1023.68,-372.25,-204.16
2780,-3.8505,1.1779,-0.5430,-554.44,1205.57,1389.59
2790,-3.8500,1.0852,-0.5668,-1226.32,-1497.74,623.90
2800,-3.8496,0.9681,-0.5782,-1085.69,-544.80,1514.47
2810,-3.8494,0.8533,-0.5704,-70.07,1986.21,-813.66
2820,-3.8490,0.7764,-0.5599,1226.81,-1013.98,1014.47
2830,-3.8486,0.7363,-0.5684,-616.94,329.59,827.03
2840,-3.8481,0.7405,-0.6041,-1741.94,-748.60,514.47
2850,-3.8475,0.7819,-0.6284,-1210.69,-1326.72,-766.85
2860,-3.8467,0.8138,-0.5857,86.18,-435.97,1029.97
2870,-3.8461,0.8032,-0.4790,179.93,1032.84,1280.09
2880,-3.8457,0.7585,-0.3540,-1179.44,-1310.97,-1297.85
2890,-3.8453,0.6965,-0.2516,1101.81,-1311.04,-1438.23
2900,-3.8448,0.6206,-0.2014,1164.31,-201.78,749.45
2910,-3.8444,0.5388,-0.2098,-554.44,-1780.09,-1719.18
2920,-3.8750,0.4622,-0.2539,976.81,1141.66,1796.45
2930,-3.8744,0.3999,-0.3140,-835.69,-499.15,468.20
2940,-3.8739,0.3707,-0.3763,-804.44,-186.77,-1578.80
2950,-3.8733,0.3873,-0.4135,-538.82,-171.20,1014.83
2960,-3.8728,0.4321,-0.3954,1586.18,-921.14,-1047.73
2970,-3.8723,0.4575,-0.3026,-679.44,1391.42,1452.33
2980,-3.8721,0.4248,-0.1598,-1429.44,1266.48,-1750.61
2990,-3.8719,0.3340,-0.0406,-1616.94,-452.33,1999.63
3000,-3.8718,0.2174,-0.0123,-1241.94,-1202.51,578.00
3010,-3.8717,0.1119,-0.0800,-163.82,-1577.76,1671.81
3020,-3.8715,0.0309,-0.1855,-1663.82,1765.81,1702.94
3030,-3.8712,-0.0378,-0.2552,-38.82,250.00,874.63
3040,-3.8712,-0.1068,-0.2627,-835.69,-656.37,1968.20
3050,-3.8715,-0.1740,-0.2378,-1663.82,-1609.62,-172.42
3060,-3.8717,-0.2394,-0.2183,1742.43,1577.76,1155.76
3070,-3.8721,-0.3077,-0.2252,1367.43,77.64,1437.07
3080,-3.8724,-0.3737,-0.2775,617.43,-813.11,-672.36
3090,-3.8726,-0.4260,-0.3909,179.93,499.27,1530.70
3100,-3.8726,-0.4775,-0.5403,1476.81,1983.52,139.83
3110,-3.8727,-0.5637,-0.6570,-1116.94,-1141.60,1327.03
3120,-3.8730,-0.6906,-0.6897,-148.19,-79.28,233.03
3130,-3.8740,-0.8326,-0.6508,-382.57,-267.03,-673.28
3140,-3.8440,-0.9603,-0.6080,1429.93,717.10,-1751.28
3150,-3.8452,-1.0441,-0.6466,1086.18,-1814.39,1842.53
3160,-3.8461,-1.0724,-0.7781,-1632.57,1247.92,-1673.16
3170,-3.8466,-1.0743,-0.9326,-1257.57,419.74,-204.65
3180,-3.8469,-1.0779,-1.0703,-1507.57,638.49,1138.79
3190,-3.8477,-1.0753,-1.2114,-1960.69,-986.51,1685.36
3200,-3.8485,-1.0634,-1.3529,-1632.57,950.99,-1283.63
3210,-3.8492,-1.0502,-1.4526,-101.32,-1158.39,653.56
3220,-3.8502,-1.0389,-1.5083,1586.18,-1923.95,1997.13
3230,-3.8514,-1.0280,-1.5537,-976.32,-1048.95,-1159.24
3240,-3.8527,-0.9897,-1.6199,429.93,1138.61,-1924.93
3250,-3.8536,-0.8733,-1.7051,1320.56,669.92,1371.83
3260,-3.8542,-0.6660,-1.7656,226.81,1763.92,74.77
3270,-3.8547,-0.3959,-1.7626,-1241.94,-1985.72,762.15
3280,-3.8553,-0.0707,-1.7028,1336.18,-1594.54,168.40
3290,-3.8563,0.3118,-1.6100,-1038.82,-1937.68,-1550.23
3300,-3.8572,0.7147,-1.4799,-85.69,1922.42,590.58
3310,-3.8579,1.0786,-1.3577,-507.57,-1420.53,-1784.18
3320,-3.8583,1.3970,-1.3047,-1929.44,-1779.17,75.44
3330,-3.8586,1.7053,-1.2723,-1179.44,1002.69,-424.44
3340,-3.8589,2.0005,-1.2374,-1710.69,1143.92,-1127.50
3350,-3.8591,2.2758,-1.2955,70.56,1613.28,-18.07
3360,-3.8588,2.5255,-1.4365,-695.07,-1823.73,-1783.81
3370,-3.8578,2.6721,-1.5109,-726.32,129.88,-34.06
3380,-3.8564,2.6505,-1.4612,-1960.69,-1385.44,-1127.99
3390,-3.8553,2.5084,-1.3356,-726.32,973.88,-1518.49
3400,-3.8546,2.3240,-1.1813,1086.18,1051.76,-1815.12
3410,-3.8541,2.1350,-1.0740,1476.81,801.39,1013.31
3420,-3.8538,1.9655,-1.0791,1289.31,-1464.60,-1580.26
3430,-3.8530,1.8462,-1.2112,-413.82,1878.78,607.24
3440,-3.8519,1.8011,-1.4418,320.56,972.35,-721.13
3450,-3.8502,1.7886,-1.6365,-1445.07,-543.40,-1784.12
3460,-3.8484,1.7251,-1.6567,945.56,-1465.27,1918.64
3470,-3.8469,1.5676,-1.5159,820.56,-59.14,-768.92
3480,-3.8459,1.3364,-1.3337,664.31,1971.80,-706.12
3490,-3.8453,1.0868,-1.2051,-929.44,1283.81,-1205.75
3500,-3.8447,0.8794,-1.1215,-882.57,1752.08,638.24
3510,-3.8441,0.7596,-1.0155,570.56,454.83,1372.80
3520,-3.8749,0.7216,-0.8708,1242.43,-1982.91,-142.64
3530,-3.8744,0.7184,-0.7343,367.43,532.65,482.67
3540,-3.8741,0.6948,-0.6650,-38.82,-1983.03,-1970.21
3550,-3.8738,0.6072,-0.6906,945.56,-1123.66,779.91
3560,-3.8734,0.4468,-0.7517,1726.81,-389.47,-1095.15
3570,-3.8730,0.2415,-0.7549,1195.56,-217.90,-17.15
3580,-3.8729,0.0172,-0.6840,-1085.69,-624.57,-657.78
3590,-3.8732,-0.2125,-0.5918,-1788.82,453.12,-204.47
3600,-3.8734,-0.3997,-0.5211,804.93,265.20,842.59
3610,-3.8737,-0.4926,-0.4851,851.81,1311.71,920.84
3620,-3.8738,-0.5142,-0.4781,961.18,1920.90,1420.90
3630,-3.8738,-0.5068,-0.4692,-1804.44,-1188.54,952.15
3640,-3.8739,-0.4756,-0.4175,-866.94,-47.91,-141.60
3650,-3.8740,-0.4303,-0.3326,-866.94,-1422.85,-1078.98
3660,-3.8743,-0.3925,-0.2822,929.93,1436.65,-531.92
3670,-3.8744,-0.3586,-0.3094,1773.68,-110.17,1608.76
3680,-3.8745,-0.3212,-0.3927,-1898.19,405.52,-484.99
3690,-3.8745,-0.3174,-0.4965,-1101.32,1749.33,-891.42
3700,-3.8745,-0.3986,-0.5967,-616.94,468.08,1655.27
3710,-3.8746,-0.5431,-0.6541,992.43,-360.17,1295.65
3720,-3.8750,-0.6713,-0.6429,-1507.57,295.78,-720.03
3730,-3.8442,-0.7318,-0.5844,-1913.82,1717.41,-485.66
3740,-3.8447,-0.7148,-0.5361,-1663.82,1217.29,1217.59
3750,-3.8452,-0.5815,-0.5508,508.06,-610.78,1327.03
3760,-3.8455,-0.3314,-0.6171,1570.56,1514.47,-454.22
3770,-3.8453,-0.0353,-0.6846,1586.18,1030.58,-32.47
3780,-3.8451,0.2646,-0.7296,-507.57,390.50,-1626.34
3790,-3.8450,0.5022,-0.7825,1883.06,-1390.14,1420.41
3800,-3.8451,0.6101,-0.8732,289.31,-155.27,748.41
3810,-3.8457,0.6472,-0.9534,-1898.19,235.53,-923.58
3820,-3.8467,0.7191,-0.9386,-1148.19,1969.97,669.98
3830,-3.8481,0.8713,-0.8278,54.93,-139.22,-767.52
3840,-3.8494,1.1293,-0.6956,-460.69,-1951.48,-657.90
3850,-3.8500,1.4703,-0.5804,554.93,-1029.05,217.35
3860,-3.8505,1.8254,-0.5022,211.18,1705.99,-219.91
3870,-3.8507,2.1785,-0.4926,1664.31,-277.71,530.21
3880,-3.8508,2.5441,-0.5402,-1148.19,957.34,1624.02
3890,-3.8503,2.8439,-0.6183,1648.68,-1135.68,-1.10
3900,-3.8491,3.0063,-0.6924,23.68,864.93,-1360.60
3910,-3.8477,3.0681,-0.7119,820.56,-619.14,-126.40
3920,-3.8461,3.0470,-0.6725,726.81,880.98,-220.15
3930,-3.8445,2.9424,-0.6241,-1976.32,1927.80,1436.16
3940,-3.8744,2.8104,-0.6012,633.06,115.11,-48.10
3950,-3.8730,2.7306,-0.6107,-257.57,-947.69,-48.10
3960,-3.8717,2.7701,-0.6763,1523.68,1833.44,-1329.35
3970,-3.8704,2.9126,-0.7821,-1413.82,1442.87,1561.16
3980,-3.8693,3.0305,-0.8636,820.56,-103.70,-532.84
3990,-3.8684,3.0212,-0.9203,-85.69,1458.98,-579.83
4000,-3.8677,2.8734,-1.0142,-1273.19,-1791.02,1123.17
4010,-3.8672,2.6046,-1.1499,-195.07,-1806.95,466.74
4020,-3.8672,2.2502,-1.2728,1398.68,817.57,-1549.13
4030,-3.8676,1.8729,-1.3512,39.31,1082.52,-1518.13
4040,-3.8680,1.5339,-1.3933,-257.57,-949.52,-502.69
4050,-3.8680,1.2626,-1.4333,351.81,1659.24,403.50
4060,-3.8677,1.0494,-1.5221,1617.43,533.69,-518.43
4070,-3.8668,0.8674,-1.6627,-1663.82,1173.89,-346.74
4080,-3.8658,0.7065,-1.8376,-960.69,-826.48,-753.30
4090,-3.8649,0.5590,-2.0363,-1554.44,782.59,1043.27
4100,-3.8641,0.3921,-2.1958,-445.07,-639.59,-1488.40
4110,-3.8636,0.1830,-2.2524,-1804.44,-1061.77,589.42
4120,-3.8638,-0.0536,-2.2036,-570.07,-312.19,479.92
4130,-3.8645,-0.2958,-2.0903,1148.68,1953.00,-1879.33
4140,-3.8655,-0.5479,-1.9526,-1851.32,452.51,714.66
4150,-3.8666,-0.8015,-1.8091,1883.06,-1922.97,-1910.10
4160,-3.8676,-1.0206,-1.6603,1414.31,451.54,-612.92
4170,-3.8683,-1.1755,-1.5146,1367.43,-502.01,762.33
4180,-3.8690,-1.2556,-1.3910,1539.31,-1861.69,1856.38
4190,-3.8696,-1.2672,-1.2845,-710.69,1966.25,-1018.37
4200,-3.8701,-1.2324,-1.1803,1804.93,-408.75,-1283.81
4210,-3.8706,-1.1749,-1.0896,-1741.94,935.06,-1142.94
4220,-3.8711,-1.1018,-1.0261,1617.43,544.56,-345.89
4230,-3.8715,-1.0127,-0.9680,-1023.19,669.68,451.11
4240,-3.8721,-0.9120,-0.8921,-1616.94,107.36,-1501.89
4250,-3.8727,-0.8044,-0.8081,-726.32,1826.29,1326.35
4260,-3.8734,-0.6938,-0.7390,1039.31,576.54,-298.46
4270,-3.8739,-0.5872,-0.6904,-804.44,1420.47,1014.16
4280,-3.8744,-0.4899,-0.6528,851.81,-360.53,-1673.28
4290,-3.8748,-0.3993,-0.6204,1304.93,452.15,-970.03
4300,-3.8750,-0.3169,-0.5874,898.68,608.58,-1813.72
4310,-3.8440,-0.2546,-0.5565,-554.44,827.45,1717.59
4320,-3.8442,-0.2167,-0.5364,-585.69,780.70,936.40
4330,-3.8445,-0.1947,-0.5092,273.68,-641.05,1748.90
4340,-3.8447,-0.1824,-0.4507,-913.82,-1156.68,-266.66
4350,-3.8448,-0.1807,-0.3721,664.31,-1672.24,233.46
4360,-3.8452,-0.1868,-0.2889,883.06,390.26,-781.98
4370,-3.8455,-0.1935,-0.2089,101.81,-969.12,-1547.49
4380,-3.8457,-0.2042,-0.1505,-757.57,1280.82,-1609.80
4390,-3.8459,-0.2328,-0.1300,1867.43,749.57,-328.43
4400,-3.8459,-0.2843,-0.1588,-1788.82,-625.49,1562.19
4410,-3.8458,-0.3433,-0.2260,-382.57,-313.11,1984.01
4420,-3.8456,-0.3894,-0.2931,70.56,-906.92,1015.14
4430,-3.8455,-0.4061,-0.3292,-1835.69,-1500.79,265.01
4440,-3.8456,-0.3816,-0.3275,23.68,1874.21,1764.95
4450,-3.8458,-0.3229,-0.3101,-835.69,-1907.04,-781.92
4460,-3.8461,-0.2512,-0.3137,-1320.07,327.45,1921.26
4470,-3.8464,-0.1819,-0.3608,-148.19,-141.17,-860.05
4480,-3.8467,-0.1096,-0.4481,726.81,1827.76,280.52
4490,-3.8470,-0.0146,-0.5585,1976.81,-1343.99,1811.58
4500,-3.8474,0.1273,-0.6702,-1866.94,531.19,-954.22
4510,-3.8477,0.3336,-0.7637,304.93,-1781.01,498.66
4520,-3.8480,0.5942,-0.8365,-1288.82,-1749.39,-767.15
4530,-3.8483,0.8872,-0.9086,70.56,923.03,-798.52
4540,-3.8484,1.1799,-0.9884,1570.56,-295.17,1435.67
4550,-3.8485,1.4230,-1.0596,-960.69,1486.63,-1814.45
4560,-3.8486,1.5944,-1.1177,-1851.32,377.75,982.30
4570,-3.8490,1.7239,-1.1716,86.18,940.61,-1002.20
4580,-3.8492,1.8445,-1.2299,664.31,-1965.39,544.56
4590,-3.8494,1.9656,-1.3043,101.81,-1418.27,1435.06
4600,-3.8490,2.0801,-1.4066,-398.19,1050.66,-1658.81
4610,-3.8480,2.1547,-1.5519,-1741.94,-42.85,-65.31
4620,-3.8463,2.1486,-1.7496,-195.07,1363.53,-690.55
4630,-3.8439,2.0516,-1.9672,-976.32,51.03,668.46
4640,-3.8724,1.9034,-2.1344,-1382.57,207.09,-1456.97
4650,-3.8698,1.7894,-2.1971,-351.32,-1199.46,433.29
4660,-3.8677,1.7914,-2.1025,1054.93,-1230.90,-1566.83
4670,-3.8662,1.9100,-1.8297,1304.93,-1121.52,-1519.78
4680,-3.8654,2.0751,-1.4866,492.43,1800.60,730.77
4690,-3.8650,2.2123,-1.2340,1617.43,1722.78,-1768.55
4700,-3.8646,2.2653,-1.1211,-820.07,-1948.85,-643.07
4710,-3.8640,2.1893,-1.1093,1961.18,504.39,-1674.07
4720,-3.8633,1.9668,-1.1832,242.43,-1980.10,-533.45
4730,-3.8624,1.6290,-1.3074,-241.94,550.66,-361.69
4740,-3.8616,1.2301,-1.4240,523.68,659.42,1528.69
4750,-3.8610,0.8340,-1.4980,1461.18,1736.76,1059.69
4760,-3.8607,0.5222,-1.4843,-1241.94,251.59,262.70
4770,-3.8612,0.3540,-1.3602,-1148.19,-1983.40,-1799.80
4780,-3.8623,0.3223,-1.1896,1320.56,1891.30,-1987.06
4790,-3.8638,0.3536,-1.0695,1258.06,-265.01,-205.51
4800,-3.8650,0.3806,-1.0393,1273.68,-889.95,-1955.26
4810,-3.8660,0.3879,-1.0748,726.81,-1030.52,1966.67
4820,-3.8668,0.3895,-1.1309,1664.31,-1577.39,-611.51
4830,-3.8676,0.3962,-1.1757,1867.43,-749.27,232.12
4840,-3.8685,0.3910,-1.2107,-1273.19,1516.36,-1705.44
4850,-3.8694,0.3381,-1.2563,-1945.07,1031.98,1263.24
4860,-3.8701,0.2207,-1.3129,-710.69,-811.89,-33.75
4870,-3.8704,0.0604,-1.3456,258.06,-46.45,872.38
4880,-3.8706,-0.1044,-1.3292,-257.57,-234.31,1841.06
4890,-3.8708,-0.2383,-1.2865,-1351.32,1874.76,763.00
4900,-3.8712,-0.3219,-1.2386,1508.06,-656.74,-1299.44
4910,-3.8715,-0.3607,-1.1700,-1195.07,1468.08,528.81
4920,-3.8718,-0.3666,-1.0625,1836.18,-1750.73,13.31
4930,-3.8723,-0.3483,-0.9298,1086.18,14.89,763.55
4940,-3.8728,-0.3218,-0.8043,-570.07,999.27,1529.42
4950,-3.8732,-0.3131,-0.7015,-1179.44,1061.83,295.29
4960,-3.8735,-0.3365,-0.6178,-70.07,-1781.92,1436.10
4970,-3.8738,-0.3856,-0.5400,929.93,936.83,748.78
4980,-3.8740,-0.4460,-0.4648,-1351.32,-1110.17,1358.28
4990,-3.8743,-0.5046,-0.4103,-1085.69,514.71,-844.67
5000,-3.8744,-0.5477,-0.3887,-585.69,-501.04,-422.73
5010,-3.8744,-0.5652,-0.3782,1898.68,-1735.47,-797.67
5020,-3.8744,-0.5593,-0.3389,-335.69,-391.78,1624.21
5030,-3.8746,-0.5447,-0.2637,414.31,639.53,1843.08
5040,-3.8750,-0.5330,-0.1753,-1710.69,-1735.47,733.83
5050,-3.8442,-0.5248,-0.0963,-210.69,1577.03,-1328.49
5060,-3.8446,-0.5186,-0.0422,836.18,-313.54,-1125.24
5070,-3.8448,-0.5117,-0.0140,1633.06,-1391.66,1624.88
5080,-3.8451,-0.4972,-0.0020,-1491.94,-1782.29,-1312.56
5090,-3.8452,-0.4686,0.0009,367.43,-235.35,1906.19
5100,-3.8453,-0.4263,-0.0071,23.68,124.08,-1421.88
5110,-3.8453,-0.3831,-0.0226,1445.56,-891.48,140.56
5120,-3.8455,-0.3560,-0.0439,-1023.19,1124.21,-1703.19
5130,-3.8455,-0.3494,-0.0812,-1554.44,-1610.11,1218.63
5140,-3.8455,-0.3521,-0.1244,-710.69,1624.27,1406.07
5150,-3.8455,-0.3481,-0.1509,-1054.44,93.02,-1953.37
5160,-3.8456,-0.3308,-0.1655,-554.44,702.39,-344.06
5170,-3.8457,-0.3048,-0.1937,1664.31,-1172.55,655.88
5180,-3.8461,-0.2705,-0.2625,992.43,-781.86,-375.43
5190,-3.8463,-0.2100,-0.3834,1383.06,-1578.67,-875.55
5200,-3.8464,-0.1014,-0.5343,1133.06,-1062.93,1139.83
5210,-3.8466,0.0574,-0.6742,-976.32,-375.24,-1126.10
5220,-3.8466,0.2509,-0.7866,-648.19,1703.19,-1766.97
5230,-3.8467,0.4712,-0.8999,117.43,-687.01,-720.34
5240,-3.8468,0.7250,-1.0524,320.56,813.42,-1954.90
5250,-3.8469,1.0323,-1.2479,804.93,1298.28,1357.30
5260,-3.8470,1.4064,-1.4344,148.68,267.64,1153.81
5270,-3.8472,1.8129,-1.5581,23.68,393.37,1450.32
5280,-3.8473,2.1898,-1.6173,54.93,566.04,-1112.43
5290,-3.8473,2.4957,-1.6273,304.93,988.65,28.08
5300,-3.8474,2.7125,-1.6107,-538.82,-292.05,762.39
5310,-3.8475,2.8354,-1.5938,-788.82,1833.37,-1471.92
5320,-3.8475,2.8907,-1.5873,-1054.44,5.49,-1831.24
5330,-3.8474,2.9293,-1.5819,-1976.32,833.74,1262.51
5340,-3.8472,2.9742,-1.5344,-1038.82,1521.30,1809.39
5350,-3.8468,3.0074,-1.3990,711.18,-400.45,-1049.93
5360,-3.8463,3.0017,-1.2067,961.18,927.73,-1299.62
5370,-3.8456,2.9276,-1.0919,226.81,1552.73,-752.38
5380,-3.8442,2.7615,-1.1685,-1257.57,240.05,-1470.89
5390,-3.8735,2.5442,-1.4204,1476.81,-1557.13,810.18
5400,-3.8712,2.3523,-1.7385,1664.31,-1807.56,-1846.56
5410,-3.8684,2.1904,-1.9808,1101.81,1473.33,215.33
5420,-3.8656,1.9994,-2.0723,383.06,-1542.60,1730.47
5430,-3.8632,1.7467,-2.0560,-70.07,-1246.15,-1160.34
5440,-3.8615,1.4713,-2.0021,-413.82,831.48,-910.28
5450,-3.8606,1.2402,-1.9312,336.18,-262.76,1417.91
5460,-3.8607,1.0930,-1.8313,-1241.94,814.88,-1175.66
5470,-3.8615,1.0220,-1.7150,-85.69,1595.83,-1472.35
5480,-3.8625,0.9806,-1.6294,-1179.44,486.33,-362.73
5490,-3.8636,0.9266,-1.5842,1523.68,-560.61,-362.61
5500,-3.8646,0.8477,-1.5497,-1382.57,1220.52,-1034.36
5510,-3.8655,0.7526,-1.5154,508.06,1642.27,1356.32
5520,-3.8663,0.6483,-1.4987,336.18,-1967.29,1481.38
5530,-3.8672,0.5253,-1.5074,-1007.57,173.10,-643.55
5540,-3.8679,0.3833,-1.5249,-757.57,-952.15,-18.62
5550,-3.8685,0.2345,-1.5238,1070.56,813.23,-659.24
5560,-3.8691,0.0913,-1.4774,-1976.32,953.55,-862.37
5570,-3.8698,-0.0385,-1.3810,-304.44,-1109.25,700.20
5580,-3.8705,-0.1544,-1.2605,-913.82,-750.12,294.13
5590,-3.8712,-0.2559,-1.1486,242.43,-1328.43,1044.37
5600,-3.8718,-0.3384,-1.0590,-741.94,999.45,1732.12
5610,-3.8723,-0.3993,-0.9852,695.56,468.08,-1205.20
5620,-3.8727,-0.4376,-0.9138,898.68,1905.46,-845.70
5630,-3.8729,-0.4589,-0.8420,-7.57,-954.04,1482.54
5640,-3.8732,-0.4711,-0.7833,1273.68,233.46,1982.73
5650,-3.8733,-0.4740,-0.7349,-288.82,-250.98,1779.66
5660,-3.8734,-0.4739,-0.6744,-663.82,1952.15,-1251.46
5670,-3.8735,-0.4796,-0.5955,-648.19,1686.52,514.28
5680,-3.8739,-0.4873,-0.5063,-1382.57,-204.10,-1657.47
5690,-3.8743,-0.4873,-0.4155,1633.06,-797.85,-1579.16
5700,-3.8746,-0.4767,-0.3280,1633.06,-1172.85,1936.65
5710,-3.8750,-0.4641,-0.2510,-1007.57,-1969.73,1311.83
5720,-3.8441,-0.4595,-0.1869,601.81,-110.29,1186.95
5730,-3.8445,-0.4623,-0.1335,1195.56,92.83,-1781.62
5740,-3.8447,-0.4668,-0.0909,836.18,-1079.04,1015.32
5750,-3.8450,-0.4698,-0.0576,258.06,374.08,1656.07
5760,-3.8452,-0.4707,-0.0297,-132.57,639.65,-390.75
5770,-3.8453,-0.4685,-0.0098,-241.94,217.77,-1734.44
5780,-3.8455,-0.4574,-0.0012,39.31,-1235.29,-1656.31
5790,-3.8455,-0.4349,0.0022,1461.18,-141.54,984.31
5800,-3.8455,-0.4122,0.0027,336.18,296.02,640.62
5810,-3.8456,-0.4009,-0.0106,-757.57,358.52,-531.25
5820,-3.8456,-0.4006,-0.0417,695.56,-1344.54,-1296.94
5830,-3.8456,-0.3994,-0.0768,726.81,-1328.92,-1312.62
5840,-3.8456,-0.3844,-0.1040,883.06,-1813.29,656.07
5850,-3.8458,-0.3562,-0.1484,-1195.07,-1297.67,-297.12
5860,-3.8459,-0.3171,-0.2406,-1585.69,1014.89,-78.43
5870,-3.8458,-0.2625,-0.3363,-585.69,1218.08,624.51
5880,-3.8458,-0.1987,-0.3827,-1585.69,968.20,-563.17
5890,-3.8458,-0.1327,-0.4121,-1429.44,-969.18,-985.17
5900,-3.8459,-0.0413,-0.4767,-976.32,-734.68,-1985.23
5910,-3.8461,0.1010,-0.5844,-1273.19,-1000.12,1202.15
5920,-3.8461,0.2776,-0.7289,929.93,1203.31,14.47
5930,-3.8461,0.4614,-0.9075,-460.69,-1296.39,545.41
5940,-3.8461,0.6620,-1.0868,-929.44,-155.40,-1845.58
5950,-3.8459,0.8890,-1.2286,742.43,891.91,-1424.01
5960,-3.8457,1.1185,-1.3297,1804.93,-1263.92,497.56
5970,-3.8456,1.3196,-1.3971,-820.07,1799.01,1575.50
5980,-3.8455,1.4752,-1.4473,914.31,1174.44,-1799.62
5990,-3.8453,1.5919,-1.5098,836.18,-1247.13,-1221.62
6000,-3.8452,1.6953,-1.5839,-226.32,-1246.95,-346.74
6010,-3.8450,1.8033,-1.6389,1008.06,1268.92,-1706.24
6020,-3.8447,1.9138,-1.6512,-1163.82,-1777.77,1246.77
6030,-3.8446,2.0209,-1.6152,976.81,644.35,1590.52
6040,-3.8446,2.1226,-1.5684,-1320.07,1253.91,-50.05
6050,-3.8445,2.2329,-1.5652,-304.44,-745.91,-1487.49
6060,-3.8442,2.3577,-1.6255,1820.56,-339.42,1340.64
6070,-3.8750,2.4663,-1.7534,1789.31,-57.92,965.52
6080,-3.8743,2.5315,-1.9298,-304.44,-432.74,1699.65
6090,-3.8733,2.5378,-2.1130,39.31,989.32,-1503.78
6100,-3.8719,2.4473,-2.2908,851.81,1536.19,448.97
6110,-3.8705,2.2173,-2.4742,1258.06,-1213.99,-4.52
6120,-3.8688,1.8375,-2.6392,-179.44,-698.85,-567.38
6130,-3.8673,1.3497,-2.7144,-788.82,-1808.96,1854.19
6140,-3.8666,0.8418,-2.6409,773.68,565.12,1760.31
6150,-3.8666,0.4064,-2.4485,-241.94,1970.34,-1270.81
6160,-3.8667,0.1078,-2.2493,23.68,-1405.46,401.43
6170,-3.8667,-0.0468,-2.1399,1804.93,93.93,-1504.39
6180,-3.8662,-0.0870,-2.1388,-1976.32,-1890.75,42.66
6190,-3.8657,-0.0375,-2.2052,867.43,-1750.18,-801.09
6200,-3.8651,0.0746,-2.2831,-788.82,1749.88,620.67
6210,-3.8649,0.2106,-2.3365,1554.93,-234.25,-1363.89
6220,-3.8649,0.3290,-2.3585,-1038.82,922.24,-770.20
6230,-3.8651,0.3810,-2.3517,-1882.57,-1890.01,1589.11
6240,-3.8657,0.3354,-2.3149,773.68,-1014.89,807.86
6250,-3.8667,0.2086,-2.2507,-1054.44,-311.89,-426.45
6260,-3.8677,0.0496,-2.1674,-1288.82,-93.38,-566.96
6270,-3.8685,-0.0917,-2.0723,-1648.19,-1421.81,605.10
6280,-3.8694,-0.1879,-1.9677,273.68,-1234.56,808.41
6290,-3.8701,-0.2434,-1.8571,-38.82,155.82,261.78
6300,-3.8708,-0.2882,-1.7495,851.81,-1687.99,-253.66
6310,-3.8712,-0.3417,-1.6526,-882.57,77.51,1027.83
6320,-3.8715,-0.3918,-1.5657,273.68,483.70,637.39
6330,-3.8716,-0.4281,-1.4851,1851.81,-391.42,825.01
6340,-3.8717,-0.4592,-1.4081,1211.18,1921.02,-1424.80
6350,-3.8718,-0.4980,-1.3347,1226.81,-219.67,-830.93
6360,-3.8719,-0.5503,-1.2654,258.06,1170.90,-1924.50
6370,-3.8722,-0.6093,-1.1947,1570.56,-1954.22,-315.00
6380,-3.8724,-0.6611,-1.1154,-1976.32,-907.47,-424.26
6390,-3.8727,-0.6967,-1.0239,-616.94,1248.66,904.05
6400,-3.8732,-0.7158,-0.9244,-1163.82,951.72,-345.76
6410,-3.8735,-0.7213,-0.8269,383.06,1686.10,1482.54
6420,-3.8739,-0.7125,-0.7421,-320.07,-1829.59,451.48
6430,-3.8743,-0.6907,-0.6726,804.93,1029.85,1232.91
6440,-3.8746,-0.6631,-0.6119,-398.19,1920.47,-891.97
6450,-3.8749,-0.6322,-0.5525,-866.94,1686.16,983.15
6460,-3.8440,-0.5925,-0.4990,-913.82,1295.59,-391.72
6470,-3.8441,-0.5435,-0.4592,164.31,139.47,170.90
6480,-3.8444,-0.4890,-0.4240,-1554.44,1233.28,-1719.67
6490,-3.8445,-0.4327,-0.3818,1414.31,1749.02,1280.40
6500,-3.8446,-0.3816,-0.3375,617.43,-860.23,796.08
6510,-3.8447,-0.3416,-0.3009,-835.69,811.71,405.58
6520,-3.8450,-0.3134,-0.2733,289.31,1499.33,-94.36
6530,-3.8451,-0.2936,-0.2509,-101.32,1030.58,-453.67
6540,-3.8452,-0.2814,-0.2268,-1570.07,-94.36,-188.05
6550,-3.8452,-0.2749,-0.1976,-7.57,-1016.24,874.51
6560,-3.8453,-0.2725,-0.1697,820.56,-1281.80,-1609.80
6570,-3.8453,-0.2736,-0.1528,1133.06,-1703.67,77.76
6580,-3.8455,-0.2732,-0.1472,992.43,452.58,-1515.93
6590,-3.8455,-0.2670,-0.1461,1039.31,1171.33,-1484.68
6600,-3.8455,-0.2543,-0.1505,1836.18,1311.95,-437.81
6610,-3.8453,-0.2373,-0.1672,-538.82,749.45,234.07
6620,-3.8455,-0.2175,-0.1945,1633.06,-1391.11,-281.62
6630,-3.8455,-0.1956,-0.2238,164.31,-875.43,-1766.05
6640,-3.8455,-0.1670,-0.2632,-1023.19,-625.43,421.39
6650,-3.8456,-0.1251,-0.3243,-1366.94,-1672.24,1921.33
6660,-3.8457,-0.0669,-0.3950,-7.57,-1500.31,1749.33
6670,-3.8458,0.0105,-0.4600,-554.44,1452.94,311.71
6680,-3.8461,0.1056,-0.5366,1351.81,1125.00,-297.79
6690,-3.8461,0.2152,-0.6686,1523.68,-687.32,1358.28
6700,-3.8461,0.3595,-0.8671,-445.07,-1577.76,1592.41
6710,-3.8459,0.5677,-1.0746,-1976.32,1016.30,498.29
6720,-3.8458,0.8298,-1.2188,679.93,-1545.78,888.49
6730,-3.8458,1.1030,-1.2838,-1773.19,1.59,-1189.88
6740,-3.8459,1.3386,-1.3130,1195.56,-325.99,1934.94
6750,-3.8463,1.5153,-1.3466,-648.19,-59.94,-705.75
6760,-3.8466,1.6610,-1.3865,1961.18,-356.45,59.81
6770,-3.8468,1.8091,-1.4248,617.43,-1465.52,387.88
6780,-3.8469,1.9739,-1.4518,-429.44,1628.48,-1721.56
6790,-3.8468,2.1571,-1.4498,664.31,-1824.28,1294.01
6800,-3.8467,2.3413,-1.4116,117.43,-1573.91,-502.87
6810,-3.8464,2.4932,-1.3586,-304.44,-682.98,-768.43
6820,-3.8461,2.5890,-1.3202,-866.94,-1901.43,1106.69
6830,-3.8457,2.6284,-1.3041,-601.32,-979.37,-127.62
6840,-3.8451,2.6301,-1.3068,445.56,1083.25,-96.31
6850,-3.8444,2.6213,-1.3254,664.31,739.50,-174.44
6860,-3.8746,2.6110,-1.3732,-460.69,-1651.18,1591.13
6870,-3.8734,2.5750,-1.4674,-1788.82,239.44,528.56
6880,-3.8721,2.4884,-1.5942,1601.81,176.88,-127.87
6890,-3.8705,2.3435,-1.7134,-1476.32,-57.68,-1909.42
6900,-3.8691,2.1427,-1.7882,-23.19,692.02,-472.11
6910,-3.8680,1.9050,-1.8036,-1726.32,-886.47,1762.08
6920,-3.8674,1.6655,-1.7645,-148.19,1144.29,1183.96
6930,-3.8673,1.4584,-1.6934,1195.56,-1856.14,-1753.48
6940,-3.8674,1.3058,-1.6420,-1320.07,-747.19,-487.73
6950,-3.8674,1.2227,-1.6398,-851.32,1830.63,840.52
6960,-3.8674,1.1998,-1.6699,508.06,-1888.24,621.77
6970,-3.8676,1.2079,-1.7125,1586.18,-1747.68,-690.80
6980,-3.8677,1.2292,-1.7549,-1382.57,799.19,621.64
6990,-3.8680,1.2413,-1.7909,1351.81,-622.62,90.27
7000,-3.8685,1.2051,-1.8176,-1101.32,-1231.99,1777.71
7010,-3.8689,1.1149,-1.8186,-1741.94,-653.93,-1253.60
7020,-3.8691,1.0077,-1.7788,-1288.82,-779.11,-1862.98
7030,-3.8695,0.9106,-1.7142,992.43,314.45,1949.65
7040,-3.8701,0.8228,-1.6632,570.56,579.90,-378.36
7050,-3.8707,0.7396,-1.6389,1320.56,-889.04,-1300.17
7060,-3.8712,0.6664,-1.6239,-1320.07,-1779.85,824.89
7070,-3.8716,0.6018,-1.6061,1304.93,141.91,153.08
7080,-3.8719,0.5342,-1.5776,1039.31,-1576.97,-1393.80
7090,-3.8722,0.4552,-1.5319,383.06,-1936.46,-1034.36
7100,-3.8723,0.3651,-1.4680,-1726.32,-77.27,965.70
7110,-3.8726,0.2659,-1.3905,-1257.57,94.42,-1424.74
7120,-3.8728,0.1621,-1.3027,-1960.69,-1983.89,-1893.37
7130,-3.8730,0.0635,-1.2084,758.06,1250.31,216.19
7140,-3.8734,-0.0219,-1.1090,133.06,1328.25,-611.76
7150,-3.8735,-0.0905,-1.0052,1211.18,-1937.56,1388.43
7160,-3.8737,-0.1481,-0.9044,429.93,-656.43,-1830.14
7170,-3.8737,-0.2052,-0.8120,1054.93,249.69,1248.23
7180,-3.8737,-0.2648,-0.7325,1742.43,77.70,-1454.71
7190,-3.8735,-0.3187,-0.6648,-1882.57,-1750.55,826.66
7200,-3.8735,-0.3569,-0.5964,-788.82,-1078.80,-1891.97
7210,-3.8735,-0.3784,-0.5171,-1679.44,-328.86,1686.28
7220,-3.8737,-0.3942,-0.4293,-429.44,1827.33,-891.66
7230,-3.8738,-0.4142,-0.3411,1554.93,1061.71,1842.90
7240,-3.8740,-0.4459,-0.2645,-1007.57,358.52,-1531.92
7250,-3.8743,-0.4939,-0.2130,-1070.07,-1844.67,-1516.17
7260,-3.8745,-0.5439,-0.1869,789.31,749.02,-31.68
7270,-3.8745,-0.5775,-0.1753,-1616.94,92.65,765.26
7280,-3.8746,-0.5898,-0.1541,-1913.82,1576.97,-203.49
7290,-3.8746,-0.5823,-0.1029,508.06,295.72,1874.69
7300,-3.8748,-0.5559,-0.0364,1476.81,-1157.41,1765.38
7310,-3.8749,-0.5173,0.0131,851.81,-641.72,234.25
7320,-3.8439,-0.4779,0.0328,1789.31,1686.46,-1546.88
7330,-3.8440,-0.4424,0.0278,-1163.82,217.77,1578.19
7340,-3.8441,-0.4135,0.0028,-616.94,-422.79,1921.88
7350,-3.8442,-0.3951,-0.0411,-913.82,374.15,-734.38
7360,-3.8442,-0.3881,-0.0920,1429.93,-1250.79,1296.75
7370,-3.8444,-0.3827,-0.1284,-1663.82,233.58,-1437.68
7380,-3.8445,-0.3627,-0.1431,-976.32,-422.67,1109.07
7390,-3.8447,-0.3158,-0.1506,1586.18,1702.39,999.69
7400,-3.8451,-0.2427,-0.1646,-413.82,733.70,-47.18
7410,-3.8453,-0.1527,-0.1721,945.56,-1047.36,-1187.87
7420,-3.8456,-0.0536,-0.1614,461.18,1984.07,-1094.12
7430,-3.8457,0.0454,-0.1484,1148.68,-640.75,968.38
7440,-3.8459,0.1442,-0.1577,1820.56,1000.06,-906.56
7450,-3.8461,0.2469,-0.1982,-1538.82,-187.26,343.38
7460,-3.8463,0.3510,-0.2654,-382.57,-1374.57,1499.57
7470,-3.8466,0.4426,-0.3500,929.93,-1968.08,-984.92
7480,-3.8467,0.5146,-0.4421,664.31,-796.02,296.14
7490,-3.8469,0.5924,-0.5352,1883.06,-592.77,-1719.67
7500,-3.8469,0.7057,-0.6238,-163.82,-498.90,-1985.47
7510,-3.8467,0.8534,-0.7311,-1663.82,157.59,1201.90
7520,-3.8464,1.0278,-0.8693,1242.43,-1576.48,-1501.46
7530,-3.8462,1.2190,-0.9929,-429.44,736.33,842.04
7540,-3.8462,1.3959,-1.0835,39.31,908.63,-986.33
7550,-3.8462,1.5519,-1.1875,-1320.07,1315.19,-580.26
7560,-3.8461,1.7312,-1.3198,-1351.32,2.99,-1564.82
7570,-3.8458,1.9487,-1.4270,1601.81,-934.14,1872.38
7580,-3.8456,2.1631,-1.4614,1445.56,1347.53,-190.31
7590,-3.8452,2.3384,-1.4344,883.06,941.71,-1721.62
7600,-3.8448,2.4669,-1.4055,-679.44,395.14,1778.44
7610,-3.8444,2.5509,-1.4192,-226.32,98.51,-1737.12
7620,-3.8749,2.5785,-1.4612,-1476.32,-1651.31,-65.31
7630,-3.8738,2.5441,-1.4984,-1945.07,973.75,-1159.12
7640,-3.8726,2.4739,-1.5123,1648.68,208.07,-424.80
7650,-3.8712,2.3973,-1.5022,664.31,-1573.30,1106.38
7660,-3.8701,2.3123,-1.5043,-1132.57,-276.61,-971.74
7670,-3.8691,2.2084,-1.5520,-23.19,-542.42,-1049.87
7680,-3.8684,2.1001,-1.6284,-1320.07,1348.02,-284.30
7690,-3.8678,2.0070,-1.7012,820.56,-433.41,1434.27
7700,-3.8674,1.9257,-1.7566,898.68,-1746.09,1356.02
7710,-3.8672,1.8352,-1.8036,-1507.57,-840.03,590.27
7720,-3.8672,1.7150,-1.8546,-1085.69,1144.17,-253.54
7730,-3.8672,1.5542,-1.9100,-476.32,-1387.33,-409.91
7740,-3.8672,1.3553,-1.9653,-1054.44,-481.38,980.59
7750,-3.8673,1.1376,-2.0096,1492.43,440.12,199.28
7760,-3.8676,0.9307,-2.0330,1617.43,-1232.18,855.41
7770,-3.8679,0.7556,-2.0343,-866.94,-216.98,-1582.15
7780,-3.8683,0.6161,-2.0166,726.81,-389.16,1277.22
7790,-3.8688,0.5127,-1.9825,-1132.57,1876.16,-1691.47
7800,-3.8693,0.4464,-1.9315,1633.06,-1764.65,-1847.66
7810,-3.8698,0.4119,-1.8654,1148.68,766.48,1511.84
7820,-3.8702,0.3933,-1.7991,726.81,1235.17,777.59
7830,-3.8708,0.3604,-1.7480,-1648.19,1719.48,-425.42
7840,-3.8713,0.2927,-1.7142,-1866.94,250.67,-800.29
7850,-3.8717,0.1921,-1.6884,1476.81,578.67,1652.89
7860,-3.8721,0.0597,-1.6570,601.81,-109.01,-1284.61
7870,-3.8723,-0.0919,-1.6086,-351.32,-93.69,-940.80
7880,-3.8724,-0.2272,-1.5345,242.43,-1890.81,-143.80
7890,-3.8724,-0.3186,-1.4270,-1070.07,-406.74,-784.30
7900,-3.8724,-0.3665,-1.2853,-773.19,1358.70,1794.07
7910,-3.8726,-0.3953,-1.1322,1101.81,-500.73,1997.44
7920,-3.8727,-0.4343,-1.0050,1414.31,-907.04,1013.37
7930,-3.8728,-0.4888,-0.9210,414.31,-625.85,482.36
7940,-3.8729,-0.5388,-0.8673,1445.56,-1875.98,966.92
7950,-3.8730,-0.5656,-0.8221,-960.69,998.90,-1439.21
7960,-3.8730,-0.5646,-0.7781,-382.57,-1219.91,810.85
7970,-3.8732,-0.5437,-0.7346,-257.57,420.72,-689.03
7980,-3.8732,-0.5131,-0.6871,-1585.69,1983.28,-1329.59
7990,-3.8732,-0.4753,-0.6304,-1663.82,61.46,1529.91
8000,-3.8733,-0.4346,-0.5674,-835.69,-672.85,858.09
8010,-3.8737,-0.4125,-0.5077,383.06,-610.23,-173.03
8020,-3.8740,-0.4230,-0.4510,-788.82,-969.60,-1032.29
8030,-3.8745,-0.4513,-0.3964,1867.43,-1719.60,-469.67
8040,-3.8749,-0.4751,-0.3551,-1757.57,1280.33,421.08
8050,-3.8440,-0.4841,-0.3284,-804.44,-1438.48,1343.02
8060,-3.8442,-0.4841,-0.3073,-1960.69,1983.40,-156.92
8070,-3.8442,-0.4795,-0.2867,-1960.69,686.52,1046.26
8080,-3.8444,-0.4633,-0.2622,-1366.94,-688.48,1499.39
8090,-3.8445,-0.4302,-0.2329,711.18,-1547.79,640.08
8100,-3.8447,-0.3892,-0.2067,945.56,-1797.73,-391.11
8110,-3.8448,-0.3517,-0.1921,-1804.44,1561.71,-281.68
8120,-3.8448,-0.3206,-0.1892,-1007.57,-578.86,1030.82
8130,-3.8450,-0.2922,-0.1906,-1023.19,-203.80,-1719.18
8140,-3.8451,-0.2581,-0.1938,-1398.19,-375.61,-1391.05
8150,-3.8452,-0.2086,-0.2010,-1023.19,-797.42,-1453.55
8160,-3.8453,-0.1503,-0.2035,1304.93,-1719.18,-1687.93
8170,-3.8455,-0.1021,-0.1912,773.68,1968.44,1202.70
8180,-3.8457,-0.0706,-0.1658,-1054.44,-453.37,-328.55
8190,-3.8458,-0.0422,-0.1431,-1023.19,-1203.31,-672.24
8200,-3.8459,-0.0033,-0.1418,-1398.19,1703.00,-281.56
8210,-3.8461,0.0465,-0.1693,-413.82,1859.31,-344.06
8220,-3.8462,0.1047,-0.2340,1961.18,-1671.81,-422.24
8230,-3.8463,0.1810,-0.3450,1414.31,-1952.94,-672.36
8240,-3.8464,0.2957,-0.4865,-820.07,-155.94,-797.61
8250,-3.8464,0.4623,-0.6223,1851.81,1734.92,-1969.73
8260,-3.8463,0.6835,-0.7220,-820.07,344.60,1280.03
8270,-3.8462,0.9451,-0.7827,-507.57,-420.59,-1329.59
8280,-3.8459,1.1968,-0.8383,976.81,-185.67,107.79
8290,-3.8458,1.3903,-0.9282,1195.56,705.44,107.73
8300,-3.8458,1.5299,-1.0479,1961.18,1190.19,935.67
8310,-3.8459,1.6437,-1.1534,-163.82,1877.93,-830.20
8320,-3.8459,1.7458,-1.2190,-1601.32,362.55,419.62
8330,-3.8461,1.8799,-1.2423,-523.19,-27.89,1419.43
8340,-3.8461,2.1127,-1.2361,633.06,988.04,1091.31
8350,-3.8459,2.4102,-1.2163,-1570.07,1785.34,-1908.69
8360,-3.8457,2.6487,-1.1796,508.06,317.20,-1471.13
8370,-3.8455,2.7632,-1.1218,-960.69,1020.75,-705.44
8380,-3.8452,2.7810,-1.0510,1695.56,411.62,-252.20
8390,-3.8448,2.7427,-0.9727,-23.19,1474.12,1388.55
8400,-3.8445,2.6615,-0.9011,-929.44,-494.69,1216.80
8410,-3.8441,2.5492,-0.8759,679.93,661.44,1685.73
8420,-3.8750,2.4325,-0.9182,-1695.07,-104.43,935.73
8430,-3.8748,2.3452,-1.0210,-632.57,-1526.55,-704.96
8440,-3.8743,2.3070,-1.1805,195.56,1317.08,91.74
8450,-3.8738,2.3004,-1.3934,-695.07,895.08,-877.32
8460,-3.8729,2.2748,-1.6456,-1538.82,1645.08,1528.50
8470,-3.8719,2.1708,-1.9058,-820.07,1363.77,-1253.23
8480,-3.8707,1.9597,-2.1364,1867.43,66.71,1886.90
8490,-3.8694,1.6663,-2.2965,-1148.19,-1449.34,183.29
8500,-3.8683,1.3381,-2.3563,1289.31,-1949.89,-301.39
8510,-3.8673,1.0074,-2.3126,-710.69,-1606.81,1276.61
8520,-3.8668,0.7064,-2.1918,961.18,-13.67,-1676.45
8530,-3.8666,0.4738,-2.0409,-1570.07,-545.53,42.54
8540,-3.8667,0.3240,-1.8978,648.68,-1233.46,527.22
8550,-3.8671,0.2471,-1.7804,1476.81,1078.74,-784.97
8560,-3.8674,0.2240,-1.6868,-366.94,109.80,-1284.73
8570,-3.8678,0.2213,-1.6155,679.93,94.18,606.08
8580,-3.8683,0.2056,-1.5703,336.18,1219.18,-1050.05
8590,-3.8687,0.1591,-1.5465,-1679.44,-999.63,-799.99
8600,-3.8689,0.0787,-1.5352,367.43,-1952.82,1840.70
8610,-3.8691,-0.0178,-1.5236,-1913.82,-499.88,-1737.43
8620,-3.8694,-0.0964,-1.5006,1726.81,999.94,-1299.87
8630,-3.8696,-0.1281,-1.4543,-335.69,-62.74,1200.13
8640,-3.8700,-0.1086,-1.3790,-382.57,1859.07,715.88
8650,-3.8705,-0.0609,-1.2883,-1898.19,-500.24,1434.75
8660,-3.8710,-0.0133,-1.2024,211.18,-890.75,872.44
8670,-3.8715,0.0170,-1.1313,-1695.07,-1890.69,1075.74
8680,-3.8719,0.0269,-1.0753,-1820.07,-812.50,-642.88
8690,-3.8722,0.0166,-1.0342,-554.44,-1640.62,91.61
8700,-3.8726,-0.0165,-0.9967,-1866.94,-375.00,-392.70
8710,-3.8727,-0.0682,-0.9429,1898.68,437.44,1810.55
8720,-3.8728,-0.1237,-0.8672,-726.32,-672.06,1451.23
8730,-3.8729,-0.1718,-0.7872,179.93,1015.38,1701.42
8740,-3.8730,-0.2108,-0.7212,-1976.32,-750.37,-1017.21
8750,-3.8730,-0.2411,-0.6643,1023.68,-297.30,1701.66
8760,-3.8730,-0.2627,-0.6012,1148.68,-1016.11,420.53
8770,-3.8732,-0.2825,-0.5336,-1616.94,-938.05,1561.28
8780,-3.8733,-0.3148,-0.4823,-148.19,-281.86,-1829.22
8790,-3.8733,-0.3623,-0.4565,-288.82,-1719.42,420.90
8800,-3.8733,-0.4133,-0.4451,1633.06,1577.39,139.71
8810,-3.8734,-0.4606,-0.4387,-898.19,-953.98,-594.67
8820,-3.8734,-0.4952,-0.4232,1054.93,-141.54,967.83
8830,-3.8735,-0.5121,-0.3842,617.43,1842.77,530.40
8840,-3.8738,-0.5225,-0.3319,-1538.82,-1157.29,1921.08
8850,-3.8740,-0.5266,-0.2811,1133.06,1530.21,421.20
8860,-3.8744,-0.5107,-0.2334,601.81,30.21,483.83
8870,-3.8748,-0.4716,-0.1902,-1366.94,-1860.41,640.14
8880,-3.8439,-0.4181,-0.1609,-351.32,-329.10,-1344.18
8890,-3.8441,-0.3641,-0.1544,-1507.57,-578.98,-1078.49
8900,-3.8442,-0.3188,-0.1660,1398.68,249.27,1296.57
8910,-3.8444,-0.2799,-0.1792,-804.44,-1235.05,1218.38
8920,-3.8445,-0.2384,-0.1787,179.93,1077.58,-1203.49
8930,-3.8445,-0.1902,-0.1688,1492.43,1140.14,1437.13
8940,-3.8446,-0.1375,-0.1609,-335.69,-1594.18,-844.12
8950,-3.8447,-0.0887,-0.1632,-1585.69,-578.43,-1250.37
8960,-3.8448,-0.0522,-0.1927,648.68,-875.18,530.88
8970,-3.8451,-0.0292,-0.2480,1320.56,-656.37,1640.20
8980,-3.8453,-0.0089,-0.2960,273.68,265.56,-1141.11
8990,-3.8455,0.0232,-0.3228,-1132.57,-1875.06,155.64
9000,-3.8457,0.0652,-0.3534,-1023.19,-1312.50,1483.70
9010,-3.8459,0.1060,-0.4122,351.81,-1234.25,-453.86
9020,-3.8461,0.1479,-0.5011,1570.56,-765.44,-657.10
9030,-3.8461,0.2100,-0.6145,-1054.44,-140.38,1170.84
9040,-3.8461,0.3135,-0.7539,-1116.94,1344.12,-1844.97
9050,-3.8459,0.4688,-0.9087,133.06,-499.39,1576.60
9060,-3.8458,0.6624,-1.0479,8.06,-311.58,295.04
9070,-3.8458,0.8628,-1.1678,789.31,1876.28,607.30
9080,-3.8459,1.0552,-1.2920,-1554.44,-1482.73,1966.43
9090,-3.8461,1.2428,-1.4099,-929.44,-1372.99,559.94
9100,-3.8463,1.4316,-1.4908,-913.82,-466.37,700.32
9110,-3.8467,1.6327,-1.5234,-741.94,1174.62,-784.18
9120,-3.8469,1.8557,-1.5148,992.43,1003.17,-1784.24
9130,-3.8472,2.0950,-1.4883,1539.31,-1887.02,-252.99
9140,-3.8472,2.3350,-1.4489,164.31,1504.09,1231.45
9150,-3.8472,2.5474,-1.3732,-1116.94,-1448.61,-549.74
9160,-3.8469,2.6891,-1.2772,-1929.44,239.32,403.56
9170,-3.8468,2.7424,-1.2062,211.18,520.87,841.25
9180,-3.8467,2.7311,-1.1859,-960.69,1614.69,-1455.51
9190,-3.8463,2.6938,-1.2164,1586.18,208.44,-642.94
9200,-3.8456,2.6575,-1.2872,820.56,302.12,-1502.38
9210,-3.8446,2.6260,-1.4031,164.31,-760.44,-1018.19
9220,-3.8746,2.5817,-1.5690,133.06,411.38,-784.00
9230,-3.8732,2.4937,-1.7670,-1538.82,-823.12,-237.49
9240,-3.8715,2.3417,-1.9476,-804.44,1832.95,-800.35
9250,-3.8698,2.1282,-2.0632,-257.57,-1292.36,-1785.10
9260,-3.8684,1.8779,-2.1016,414.31,-89.60,-582.21
9270,-3.8674,1.6267,-2.0695,383.06,-996.34,58.35
9280,-3.8672,1.4081,-1.9882,226.81,-887.45,-1972.84
9290,-3.8674,1.2523,-1.8857,242.43,1518.37,-82.03
9300,-3.8679,1.1661,-1.7815,304.93,-1372.56,-316.22
9310,-3.8685,1.1244,-1.6938,1273.68,-28.99,-1691.04
9320,-3.8693,1.0892,-1.6287,-70.07,-810.36,-1284.61
9330,-3.8700,1.0338,-1.5756,-570.07,-466.67,-268.86
9340,-3.8706,0.9580,-1.5300,336.18,-1669.86,-549.99
9350,-3.8711,0.8759,-1.4937,-1366.94,158.08,-1877.99
9360,-3.8716,0.7959,-1.4681,117.43,814.21,-190.43
9370,-3.8718,0.7133,-1.4541,1883.06,79.65,1778.38
9380,-3.8719,0.6222,-1.4452,-695.07,1876.34,1106.51
9390,-3.8719,0.5240,-1.4298,-351.32,-983.22,59.63
9400,-3.8721,0.4218,-1.3984,-913.82,985.35,-1768.43
9410,-3.8722,0.3236,-1.3472,1992.43,1000.79,731.63
9420,-3.8724,0.2382,-1.2821,1429.93,-436.89,872.31
9430,-3.8727,0.1644,-1.2108,-1507.57,-108.95,1325.56
9440,-3.8729,0.0966,-1.1425,1054.93,1015.93,-689.88
9450,-3.8730,0.0306,-1.0879,367.43,1765.81,-611.63
9460,-3.8730,-0.0378,-1.0502,-70.07,750.00,-1345.89
9470,-3.8729,-0.1117,-1.0244,-835.69,1593.63,-1923.95
9480,-3.8727,-0.1896,-0.9954,1711.18,890.38,1544.86
9490,-3.8724,-0.2675,-0.9567,-257.57,608.95,-642.58
9500,-3.8721,-0.3392,-0.9153,1773.68,1561.95,1607.48
9510,-3.8718,-0.3981,-0.8695,586.18,-1141.30,-954.96
9520,-3.8716,-0.4403,-0.8096,1054.93,717.96,1560.79
9530,-3.8716,-0.4677,-0.7421,-351.32,389.71,-657.84
9540,-3.8716,-0.4952,-0.6836,148.68,1030.33,1436.04
9550,-3.8717,-0.5396,-0.6384,617.43,514.65,-548.22
9560,-3.8717,-0.5991,-0.6005,-1054.44,-1704.22,-454.41
9570,-3.8717,-0.6576,-0.5635,-679.44,-844.97,-282.47
9580,-3.8717,-0.6971,-0.5294,-163.82,-110.72,1701.97
9590,-3.8718,-0.7139,-0.5029,-1226.32,248.60,-1829.16
9600,-3.8719,-0.7151,-0.4851,633.06,-360.78,-1438.54
9610,-3.8721,-0.7012,-0.4712,476.81,1920.47,-1032.23
9620,-3.8722,-0.6746,-0.4474,-1741.94,-298.28,1561.52
9630,-3.8724,-0.6465,-0.4028,1664.31,-1251.34,217.83
9640,-3.8729,-0.6179,-0.3419,1258.06,451.84,-563.29
9650,-3.8733,-0.5800,-0.2809,914.31,248.78,1639.95
9660,-3.8737,-0.5308,-0.2336,1773.68,61.34,296.33
9670,-3.8741,-0.4729,-0.2039,70.56,-1891.66,-234.86
9680,-3.8745,-0.4059,-0.1862,-523.19,1920.90,-172.30
9690,-3.8749,-0.3324,-0.1748,54.93,186.71,-47.24
9700,-3.8439,-0.2594,-0.1704,1461.18,1639.95,609.01
9710,-3.8442,-0.1926,-0.1752,-1195.07,-1797.42,-1312.87
9720,-3.8445,-0.1304,-0.1801,-648.19,1593.32,-1594.12
9730,-3.8447,-0.0709,-0.1725,-679.44,968.44,-594.12
9740,-3.8448,-0.0164,-0.1512,-1070.07,1937.32,843.38
9750,-3.8451,0.0300,-0.1185,1914.31,656.19,-1469.06
9760,-3.8452,0.0596,-0.0813,-148.19,828.12,952.88
9770,-3.8455,0.0668,-0.0637,-366.94,1593.81,-359.56
9780,-3.8456,0.0624,-0.0868,554.93,-156.13,-1765.81
9790,-3.8457,0.0641,-0.1444,-7.57,890.69,1671.69
9800,-3.8458,0.0862,-0.2089,211.18,1515.75,-1515.93
9810,-3.8458,0.1350,-0.2574,-960.69,1265.75,796.45
9820,-3.8458,0.2056,-0.2948,1289.31,-952.88,358.83
9830,-3.8459,0.2856,-0.3383,-1679.44,-1734.01,-297.49
9840,-3.8459,0.3638,-0.4032,570.56,703.67,1499.33
9850,-3.8461,0.4427,-0.5088,-1429.44,391.30,-1844.54
9860,-3.8461,0.5514,-0.6589,679.93,-1124.15,452.09
9870,-3.8461,0.7262,-0.8156,-1413.82,-342.71,-1423.22
9880,-3.8459,0.9701,-0.9264,961.18,-389.22,1732.73
9890,-3.8459,1.2396,-0.9851,179.93,1423.77,-1814.33
9900,-3.8459,1.4724,-1.0271,-1320.07,1908.63,138.67
9910,-3.8461,1.6202,-1.0736,476.81,534.12,-1095.76
9920,-3.8459,1.6814,-1.1146,-601.32,-1418.76,1357.24
9930,-3.8458,1.6956,-1.1367,-773.19,1331.36,1482.18
9940,-3.8458,1.7053,-1.1359,1039.31,-1496.70,-1939.76
9950,-3.8459,1.7390,-1.1206,-1710.69,-1387.33,716.49
9960,-3.8463,1.8203,-1.1187,-1398.19,565.86,-720.95
9970,-3.8466,1.9576,-1.1593,1008.06,816.04,-1830.32
9980,-3.8467,2.1309,-1.2474,-1413.82,-386.84,-1517.94
9990,-3.8464,2.3071,-1.3663,758.06,332.28,403.81
10000,-3.8459,2.4452,-1.4891,-679.44,1113.83,1356.69
10010,-3.8452,2.4972,-1.5940,992.43,1395.39,-1987.30
10020,-3.8444,2.4324,-1.6730,-351.32,-26.43,340.58
10030,-3.8749,2.2457,-1.7502,-648.19,1864.07,-1440.80
10040,-3.8739,1.9727,-1.8666,-538.82,-26.92,1777.77
10050,-3.8727,1.6851,-2.0134,508.06,1081.97,-300.54
10060,-3.8711,1.4492,-2.1292,-304.44,-1715.52,1949.16
10070,-3.8696,1.2894,-2.1615,1508.06,-528.44,1448.91
10080,-3.8687,1.1841,-2.1139,1054.93,-669.37,-35.52
10090,-3.8680,1.0999,-2.0341,-429.44,1424.13,-457.28
10100,-3.8677,0.9916,-1.9668,789.31,-357.24,1370.97
10110,-3.8674,0.8063,-1.9426,-1070.07,251.89,-644.47
10120,-3.8668,0.5503,-1.9651,-788.82,-654.72,1277.40
