timestamp_ms,ax,ay,az,gx,gy,gz
0,-3.8667,1.0658,-1.6766,1289.31,-435.06,-1815.80
10,-3.8667,0.9248,-1.6650,429.93,1392.70,-800.17
20,-3.8669,0.8701,-1.6221,-1616.94,-1123.23,-1315.80
30,-3.8674,0.8837,-1.5504,-616.94,376.65,-1831.30
40,-3.8680,0.9237,-1.4612,1117.43,1548.58,1403.20
50,-3.8688,0.9567,-1.3805,-1757.57,970.52,-1784.12
60,-3.8695,0.9735,-1.3267,-1538.82,-701.29,1528.50
70,-3.8702,0.9771,-1.2994,617.43,-1810.61,1950.50
80,-3.8708,0.9694,-1.2881,1070.56,1673.77,-1658.81
90,-3.8713,0.9467,-1.2855,86.18,-873.11,-924.44
100,-3.8717,0.9001,-1.2887,1179.93,-545.04,-1065.06
110,-3.8719,0.8365,-1.2863,-773.19,-951.42,763.06
120,-3.8723,0.7723,-1.2775,-913.82,-639.04,-330.69
130,-3.8726,0.7080,-1.2654,-1132.57,485.84,-2.50
140,-3.8727,0.6292,-1.2418,-1366.94,-1967.41,-1143.13
150,-3.8728,0.5239,-1.1931,539.31,1048.10,-1549.32
160,-3.8729,0.3868,-1.1093,-929.44,-717.77,794.49
170,-3.8732,0.2258,-1.0009,1523.68,-1983.64,-314.70
180,-3.8732,0.0653,-0.8876,914.31,-108.95,857.36
190,-3.8733,-0.0756,-0.7780,367.43,-1609.25,-204.90
200,-3.8733,-0.1936,-0.6752,-1663.82,437.32,-1220.28
210,-3.8733,-0.2849,-0.5804,-773.19,1593.32,1326.78
220,-3.8733,-0.3450,-0.5012,-460.69,1718.14,1233.22
230,-3.8733,-0.3774,-0.4436,-148.19,-141.36,-626.04
240,-3.8732,-0.3914,-0.3989,-304.44,-766.42,-1297.79
250,-3.8733,-0.4250,-0.1976,-1085.69,-1860.23,124.45
260,-3.8737,-0.4279,-0.1339,1601.81,-1282.10,-859.80
270,-3.8739,-0.4285,-0.0824,1242.43,-1125.85,405.94
280,-3.8743,-0.4198,-0.0444,1164.31,1467.90,1281.07
290,-3.8746,-0.3931,-0.0088,-1726.32,-1672.73,-890.75
300,-3.8749,-0.3536,0.0327,1695.56,-1110.17,1546.81
310,-3.8439,-0.3131,0.0701,-1257.57,202.39,312.56
320,-3.8441,-0.2772,0.0944,-70.07,983.70,312.62
330,-3.8444,-0.2493,0.1012,523.68,93.20,-1421.69
340,-3.8445,-0.2262,0.0946,101.81,968.26,-812.32
350,-3.8445,-0.1952,0.0870,-945.07,124.51,1625.18
360,-3.8445,-0.1566,0.0841,-976.32,-844.18,781.37
370,-3.8446,-0.1167,0.0779,-38.82,-1219.12,-281.13
380,-3.8446,-0.0793,0.0615,1070.56,1984.13,-703.00
390,-3.8446,-0.0476,0.0454,1851.81,-109.56,-796.81
400,-3.8446,-0.0247,0.0361,1914.31,1828.00,1000.06
410,-3.8448,-0.0050,0.0259,851.81,640.56,-1031.19
420,-3.8451,0.0294,0.0126,-632.57,-671.94,-953.12
430,-3.8452,0.0891,-0.0006,-226.32,1609.38,359.38
440,-3.8455,0.1646,-0.0114,-585.69,-78.00,-500.06
450,-3.8455,0.2332,-0.0269,1070.56,-1452.82,78.06
460,-3.8456,0.2823,-0.0659,1851.81,562.93,-1312.56
470,-3.8455,0.3311,-0.1470,148.68,-436.95,343.57
480,-3.8453,0.4073,-0.2566,-1616.94,1188.11,1687.19
490,-3.8451,0.5011,-0.3528,148.68,-842.96,1921.33
500,-3.8448,0.5769,-0.4229,148.68,-1155.27,1905.52
510,-3.8447,0.6309,-0.4825,1851.81,1876.10,-1485.23
520,-3.8447,0.6857,-0.5298,758.06,-1764.40,-297.85
530,-3.8447,0.7429,-0.5590,-226.32,188.78,-844.79
540,-3.8447,0.7921,-0.6030,-898.19,454.53,-1610.47
550,-3.8447,0.8512,-0.6827,1398.68,-1185.97,-532.47
560,-3.8446,0.9373,-0.7744,961.18,611.02,-235.72
570,-3.8444,1.0411,-0.8579,-23.19,876.77,-1423.40
580,-3.8441,1.1526,-0.9341,1273.68,-1810.49,-736.08
590,-3.8750,1.2644,-1.0017,-460.69,439.70,1107.54
600,-3.8748,1.3660,-1.0555,1851.81,-216.31,1529.24
610,-3.8746,1.4685,-1.0933,-1148.19,893.25,1841.67
620,-3.8746,1.5957,-1.1084,-23.19,65.31,-1564.64
630,-3.8746,1.7417,-1.0881,258.06,-1871.89,-1720.95
640,-3.8745,1.8811,-1.0454,-1054.44,722.11,763.49
650,-3.8744,2.0029,-0.9999,789.31,-1808.84,1310.42
660,-3.8743,2.1089,-0.9388,383.06,19.53,1013.67
670,-3.8743,2.2061,-0.8557,1945.56,-167.79,-1017.52
680,-3.8743,2.3007,-0.7473,-1616.94,-1526.98,1373.29
690,-3.8744,2.3793,-0.6316,-1507.57,348.21,61.04
700,-3.8746,2.4373,-0.5485,554.93,-839.11,-1188.78
710,-3.8746,2.4949,-0.5222,-23.19,1801.57,-532.35
720,-3.8743,2.5601,-0.5527,-648.19,1161.07,1905.21
730,-3.8737,2.6276,-0.6108,-304.44,1254.94,264.53
740,-3.8730,2.6998,-0.6626,336.18,1817.63,920.65
750,-3.8726,2.7678,-0.7157,1586.18,-807.25,-891.97
760,-3.8721,2.7871,-0.8004,-1710.69,396.00,-1360.78
770,-3.8716,2.7087,-0.9198,758.06,1552.31,-220.34
780,-3.8708,2.5338,-1.0388,-1273.19,-1729.13,1685.67
790,-3.8701,2.2941,-1.1210,336.18,-963.81,1013.55
800,-3.8695,2.0104,-1.1835,1648.68,520.08,-1549.07
810,-3.8688,1.6902,-1.2657,1336.18,519.53,1075.81
820,-3.8680,1.3640,-1.3569,351.81,1987.67,-908.75
830,-3.8673,1.0876,-1.4210,-1398.19,-1684.88,-18.31
840,-3.8667,0.9075,-1.4486,-773.19,-1888.55,465.94
850,-3.8666,0.8285,-1.4452,164.31,-1420.10,1809.63
860,-3.8667,0.8087,-1.4249,-1945.07,-982.79,-1377.87
870,-3.8669,0.8131,-1.4014,-476.32,1610.90,-1705.93
880,-3.8673,0.8361,-1.3813,86.18,626.59,-705.87
890,-3.8676,0.8745,-1.3820,-976.32,-810.91,575.38
900,-3.8678,0.9204,-1.4056,-54.44,-888.98,247.25
910,-3.8680,0.9640,-1.4298,1820.56,79.90,44.13
920,-3.8684,0.9912,-1.4520,-601.32,986.21,544.07
930,-3.8689,0.9894,-1.4946,-1116.94,-1857.48,1872.13
940,-3.8694,0.9536,-1.5497,-1351.32,689.39,-1237.30
950,-3.8699,0.8806,-1.5726,-1929.44,1642.46,-471.80
960,-3.8704,0.7737,-1.5380,726.81,-1295.17,1778.14
970,-3.8711,0.6416,-1.4495,-960.69,-857.91,-18.68
980,-3.8718,0.4937,-1.3275,-1866.94,-1530.03,-893.49
990,-3.8726,0.3380,-1.1954,-804.44,-1920.96,-846.37
1000,-3.8730,0.1805,-1.0691,-726.32,-1015.01,981.99
1010,-3.8734,0.0300,-0.9585,-882.57,-843.44,-845.89
1020,-3.8734,-0.0966,-0.8735,-148.19,1312.50,-1986.27
1030,-3.8732,-0.1855,-0.8243,-351.32,202.88,1295.17
1040,-3.8728,-0.2416,-0.8081,258.06,-1500.37,-282.90
1050,-3.8722,-0.2731,-0.7968,1086.18,577.64,795.29
1060,-3.8718,-0.2837,-0.7537,1054.93,-1969.30,-970.34
1070,-3.8716,-0.2876,-0.6787,-304.44,-453.74,-1267.15
1080,-3.8716,-0.3015,-0.5959,-804.44,1140.01,-845.09
1090,-3.8717,-0.3359,-0.5126,1414.31,-266.24,-1719.97
1100,-3.8719,-0.3845,-0.4279,1008.06,-1594.42,-1688.54
1110,-3.8722,-0.4255,-0.3516,-1210.69,1249.21,1108.52
1120,-3.8724,-0.4492,-0.3035,1539.31,-985.23,905.52
1130,-3.8727,-0.4542,-0.2856,-1491.94,1170.96,-453.74
1140,-3.8727,-0.4438,-0.2764,1867.43,-547.79,77.51
1150,-3.8728,-0.4264,-0.2628,-804.44,639.71,499.45
1160,-3.8729,-0.4014,-0.2484,1429.93,-1625.85,546.33
1170,-3.8730,-0.3712,-0.2372,633.06,217.96,718.26
1180,-3.8732,-0.3434,-0.2341,492.43,1655.52,1390.14
1190,-3.8733,-0.3248,-0.2325,54.93,-1953.80,-1203.61
1200,-3.8733,-0.3257,-0.2164,-1570.07,-1750.67,187.01
1210,-3.8735,-0.3534,-0.1782,-1679.44,311.83,-94.18
1220,-3.8737,-0.3989,-0.1218,-1226.32,1202.39,1140.26
1230,-3.8740,-0.4408,-0.0620,945.56,421.08,-343.99
1240,-3.8743,-0.4691,-0.0151,-413.82,77.21,1374.88
1250,-3.8745,-0.4796,0.0120,-38.82,-1922.85,1296.81
1260,-3.8748,-0.4603,0.0216,-1382.57,1545.90,-656.25
1270,-3.8749,-0.4172,0.0214,1086.18,-1219.67,-1984.38
1280,-3.8750,-0.3649,0.0149,-1398.19,-1250.85,703.12
1290,-3.8439,-0.3075,0.0034,1304.93,1921.14,625.00
1300,-3.8440,-0.2488,0.0017,648.68,452.51,1968.75
1310,-3.8441,-0.1935,0.0270,164.31,233.89,-1890.62
1320,-3.8444,-0.1433,0.0690,-757.57,-531.68,-1421.88
1330,-3.8446,-0.0967,0.1071,1664.31,843.44,562.62
1340,-3.8450,-0.0581,0.1299,-366.94,1718.51,-656.07
1350,-3.8451,-0.0369,0.1318,570.56,640.50,297.12
1360,-3.8452,-0.0276,0.1105,-710.69,890.50,375.24
1370,-3.8452,-0.0105,0.0597,476.81,-1843.81,640.81
1380,-3.8452,0.0192,-0.0112,-1335.69,-343.81,-171.81
1390,-3.8451,0.0509,-0.0748,-1538.82,-1437.50,-203.19
1400,-3.8450,0.0951,-0.1244,-1476.32,-1578.06,-922.06
1410,-3.8448,0.1611,-0.1738,179.93,78.31,609.13
1420,-3.8448,0.2310,-0.2396,633.06,1750.31,15.26
1430,-3.8450,0.2985,-0.3381,1570.56,1328.55,-1547.36
1440,-3.8450,0.3701,-0.4521,-1788.82,719.30,514.95
1450,-3.8451,0.4335,-0.5612,-616.94,-1874.33,1670.96
1460,-3.8452,0.4781,-0.6794,-507.57,172.67,-1735.47
1470,-3.8453,0.5446,-0.7994,1211.18,1032.17,-454.47
1480,-3.8453,0.6770,-0.8990,1711.18,1672.91,-579.71
1490,-3.8452,0.8541,-0.9752,-1335.69,923.16,-814.27
1500,-3.8450,1.0310,-1.0199,1336.18,-826.48,1029.30
1510,-3.8448,1.1775,-1.0383,-23.19,1455.08,951.11
1520,-3.8448,1.2736,-1.0582,-1273.19,-903.99,1669.80
1530,-3.8448,1.3074,-1.0911,-976.32,549.32,1357.30
1540,-3.8448,1.2921,-1.1248,-648.19,346.25,-1924.01
1550,-3.8448,1.2769,-1.1272,1398.68,33.75,-205.32
1560,-3.8447,1.3009,-1.1106,-554.44,-278.81,-1205.38
1570,-3.8445,1.3630,-1.1206,-1476.32,1846.25,1966.55
1580,-3.8441,1.4554,-1.1565,-1523.19,565.12,-1361.57
1590,-3.8749,1.5945,-1.1938,-1695.07,-28.44,-924.19
1600,-3.8743,1.7891,-1.2256,101.81,-809.39,-1768.01
1610,-3.8737,2.0068,-1.2654,1008.06,-871.52,-1299.32
1620,-3.8730,2.1910,-1.3228,883.06,-1964.84,747.50
1630,-3.8727,2.3260,-1.3689,461.18,-1308.23,1825.50
1640,-3.8724,2.4485,-1.3563,1742.43,785.77,-799.56
1650,-3.8722,2.5696,-1.2825,1414.31,-1604.61,-237.06
1660,-3.8718,2.6423,-1.2081,914.31,-151.25,-1986.94
1670,-3.8713,2.6244,-1.2076,-1773.19,1364.50,1169.49
1680,-3.8706,2.5409,-1.3058,-70.07,1426.94,1247.62
1690,-3.8696,2.4541,-1.4618,1242.43,864.32,747.44
1700,-3.8688,2.4087,-1.6189,-1866.94,895.39,-549.74
1710,-3.8680,2.4187,-1.7278,320.56,785.95,-1565.67
1720,-3.8677,2.4412,-1.7709,1601.81,-1151.55,-487.79
1730,-3.8676,2.3999,-1.7909,476.81,1332.89,-253.48
1740,-3.8676,2.2733,-1.8164,-804.44,-1229.74,-1941.04
1750,-3.8677,2.0786,-1.8521,-1007.57,-495.61,-1331.73
1760,-3.8677,1.8224,-1.9279,-1929.44,-1058.47,-816.16
1770,-3.8674,1.5424,-2.0375,1273.68,1237.92,-1644.41
1780,-3.8672,1.3026,-2.1134,1429.93,-793.88,-1832.15
1790,-3.8672,1.1266,-2.1199,-1257.57,1486.88,1730.22
1800,-3.8676,1.0062,-2.0808,211.18,658.45,-332.28
1810,-3.8679,0.9312,-2.0264,804.93,1658.20,1214.66
1820,-3.8684,0.8846,-1.9681,-804.44,626.77,-535.22
1830,-3.8687,0.8424,-1.9103,1242.43,79.83,839.90
1840,-3.8689,0.7859,-1.8623,-163.82,-514.04,-1722.53
1850,-3.8690,0.7170,-1.8306,601.81,1626.53,-456.79
1860,-3.8690,0.6577,-1.8081,-210.69,1688.84,-1925.48
1870,-3.8691,0.6340,-1.7832,195.56,563.78,-1956.67
1880,-3.8694,0.6425,-1.7577,1164.31,-248.78,-1581.67
1890,-3.8696,0.6494,-1.7504,-1757.57,-983.15,449.65
1900,-3.8700,0.6260,-1.7695,-866.94,-45.65,1527.77
1910,-3.8704,0.5500,-1.8000,133.06,1501.22,-1206.60
1920,-3.8706,0.4000,-1.8215,-1585.69,1594.79,1012.08
1930,-3.8708,0.1798,-1.8130,-788.82,-1155.52,1137.02
1940,-3.8711,-0.0762,-1.7433,-976.32,-62.19,-1003.60
1950,-3.8712,-0.3372,-1.5961,-1741.94,874.82,355.96
1960,-3.8716,-0.5815,-1.3960,851.81,-281.92,-1893.80
1970,-3.8721,-0.7728,-1.1860,1570.56,1326.97,-34.00
1980,-3.8724,-0.8940,-1.0046,1086.18,201.60,1607.06
1990,-3.8728,-0.9625,-0.8732,1570.56,-579.90,-533.26
2000,-3.8729,-0.9895,-0.7888,804.93,248.11,-517.33
2010,-3.8729,-0.9734,-0.7390,1351.81,-955.08,-32.84
2020,-3.8728,-0.9186,-0.7024,-585.69,1419.92,1357.91
2030,-3.8728,-0.8368,-0.6667,-1570.07,-1892.46,1436.10
2040,-3.8729,-0.7405,-0.6296,898.68,-1329.77,-1001.34
2050,-3.8730,-0.6470,-0.5825,1226.81,-579.59,842.47
2060,-3.8734,-0.5740,-0.5208,1195.56,1451.84,-1001.16
2070,-3.8738,-0.5244,-0.4438,-1460.69,1358.22,1983.34
2080,-3.8743,-0.4958,-0.3629,883.06,-797.91,-438.42
2090,-3.8746,-0.4889,-0.2927,539.31,1561.52,1999.27
2100,-3.8750,-0.4961,-0.2426,1429.93,-1454.10,-1172.49
2110,-3.8440,-0.5060,-0.2129,508.06,967.77,-172.36
2120,-3.8440,-0.5098,-0.1936,-757.57,764.59,1140.20
2130,-3.8440,-0.5016,-0.1818,-1241.94,-766.66,608.95
2140,-3.8440,-0.4766,-0.1738,-195.07,748.96,234.01
2150,-3.8440,-0.4362,-0.1609,-991.94,1764.65,62.13
2160,-3.8441,-0.3892,-0.1394,179.93,-578.98,-187.87
2170,-3.8441,-0.3483,-0.1083,-1804.44,-1828.92,1499.69
2180,-3.8442,-0.3190,-0.0679,-570.07,-1844.48,484.13
2190,-3.8445,-0.2987,-0.0236,-820.07,-672.55,-1422.06
2200,-3.8446,-0.2808,0.0106,1773.68,999.39,1624.94
2210,-3.8447,-0.2621,0.0310,70.56,1374.45,1828.12
2220,-3.8448,-0.2452,0.0526,-1538.82,-16.17,-1453.12
2230,-3.8450,-0.2351,0.0819,617.43,-1250.49,-171.81
2240,-3.8450,-0.2344,0.1088,1914.31,-1500.49,-1703.00
2250,-3.8450,-0.2412,0.1188,-1991.94,1937.01,859.56
2260,-3.8451,-0.2423,0.1051,1133.06,-781.74,1453.31
2270,-3.8452,-0.2222,0.0812,992.43,1468.26,437.68
2280,-3.8455,-0.1790,0.0601,-429.44,-1594.24,-874.88
2290,-3.8456,-0.1248,0.0339,1101.81,-297.24,1750.06
2300,-3.8457,-0.0698,-0.0084,39.31,359.13,1281.31
2310,-3.8458,-0.0099,-0.0598,-929.44,-1062.68,-1515.69
2320,-3.8458,0.0626,-0.1095,-1257.57,359.31,921.75
2330,-3.8458,0.1464,-0.1476,23.68,1984.50,640.38
2340,-3.8458,0.2316,-0.1860,-1257.57,1109.62,1062.19
2350,-3.8458,0.3279,-0.2732,1648.68,187.93,405.88
2360,-3.8459,0.4543,-0.4274,1976.81,1031.86,-1906.80
2370,-3.8459,0.6002,-0.6050,-1835.69,1297.73,592.90
2380,-3.8459,0.7510,-0.7688,836.18,-1436.34,-1313.72
2390,-3.8457,0.9135,-0.9211,133.06,1595.21,76.60
2400,-3.8456,1.0897,-1.0540,929.93,-1904.48,-33.08
2410,-3.8452,1.2671,-1.1644,-507.57,1095.83,1607.30
2420,-3.8450,1.4357,-1.2544,-1804.44,-1044.43,-814.82
2430,-3.8447,1.5824,-1.3087,-226.32,-559.75,-940.00
2440,-3.8446,1.6954,-1.3386,-1445.07,487.43,-2.56
2450,-3.8445,1.7694,-1.3912,1023.68,659.55,-1768.25
2460,-3.8445,1.8229,-1.4650,-1507.57,1925.29,-455.87
2470,-3.8444,1.8903,-1.4883,1336.18,487.92,-424.74
2480,-3.8440,1.9751,-1.4500,1961.18,1503.66,-1940.43
2490,-3.8748,2.0526,-1.4076,820.56,-1589.90,1559.63
2500,-3.8743,2.0995,-1.3862,-1257.57,-167.91,-1612.18
2510,-3.8738,2.1130,-1.3667,742.43,-1433.41,1372.25
2520,-3.8735,2.1256,-1.3058,-1523.19,1066.59,-1862.06
2530,-3.8735,2.1846,-1.1936,86.18,863.53,-1424.44
2540,-3.8737,2.2920,-1.0768,-366.94,-777.04,-955.51
2550,-3.8737,2.4158,-1.0098,1383.06,-1823.67,-33.39
2560,-3.8732,2.5498,-1.0360,1226.81,-1245.30,60.49
2570,-3.8726,2.6981,-1.1450,-1616.94,-604.43,-1595.83
2580,-3.8718,2.8499,-1.2804,1367.43,1442.75,-1221.01
2590,-3.8712,2.9775,-1.3942,789.31,114.93,1466.25
2600,-3.8708,3.0146,-1.4768,1133.06,1552.67,1794.13
2610,-3.8705,2.8939,-1.5530,1883.06,-1025.39,-1893.55
2620,-3.8699,2.6224,-1.6405,-1570.07,1224.37,-1909.30
2630,-3.8689,2.2615,-1.7483,-320.07,-1979.31,1590.52
2640,-3.8678,1.8928,-1.8536,1476.81,223.14,-487.79
2650,-3.8668,1.5970,-1.9095,-1710.69,-1261.96,-1034.91
2660,-3.8663,1.4102,-1.8994,429.93,-418.76,152.47
2670,-3.8666,1.3002,-1.8274,508.06,877.75,527.53
2680,-3.8672,1.1930,-1.7227,-1570.07,-1903.75,1246.40
2690,-3.8677,1.0616,-1.6416,711.18,-497.68,1168.46
2700,-3.8678,0.9475,-1.6113,-101.32,1877.01,1903.02
2710,-3.8676,0.8922,-1.6184,1289.31,1751.83,246.83
2720,-3.8673,0.8969,-1.6448,-1788.82,845.46,168.70
2730,-3.8672,0.9335,-1.6672,-1195.07,1470.46,293.64
2740,-3.8674,0.9712,-1.6531,-507.57,-1404.48,-112.67
2750,-3.8679,0.9977,-1.5969,320.56,408.14,-456.36
2760,-3.8687,1.0084,-1.5326,-288.82,-404.36,512.45
2770,-3.8696,0.9802,-1.4939,1086.18,-169.92,1278.20
2780,-3.8705,0.8909,-1.4899,1476.81,783.14,778.32
2790,-3.8712,0.7500,-1.4937,-1960.69,1298.58,-1659.18
2800,-3.8717,0.5929,-1.4733,8.06,813.96,1512.70
2810,-3.8721,0.4497,-1.4342,-101.32,-577.03,543.95
2820,-3.8724,0.3351,-1.3918,1570.56,422.73,-799.68
2830,-3.8726,0.2441,-1.3610,-1101.32,1844.36,1841.00
2840,-3.8726,0.1522,-1.3527,-741.94,1797.30,653.56
2850,-3.8726,0.0383,-1.3458,-507.57,-1140.38,-362.06
2860,-3.8723,-0.1036,-1.3071,914.31,-265.56,919.19
2870,-3.8722,-0.2628,-1.2288,-1257.57,702.88,1200.56
2880,-3.8722,-0.4232,-1.1245,-1632.57,-1266.17,-955.57
2890,-3.8722,-0.5688,-1.0081,1836.18,77.27,-970.95
2900,-3.8722,-0.6875,-0.8893,-804.44,-1016.78,1529.24
2910,-3.8723,-0.7738,-0.7728,8.06,-1813.84,-1611.15
2920,-3.8724,-0.8197,-0.6543,961.18,1092.22,935.97
2930,-3.8727,-0.8140,-0.5392,-913.82,263.98,936.22
2940,-3.8729,-0.7593,-0.4521,-179.44,-1001.65,1030.15
2950,-3.8730,-0.6820,-0.4026,-1179.44,-1860.90,92.83
2960,-3.8732,-0.6122,-0.3794,711.18,483.03,-735.17
2970,-3.8730,-0.5591,-0.3632,1648.68,-548.10,686.71
2980,-3.8730,-0.5150,-0.3358,445.56,1530.15,686.77
2990,-3.8732,-0.4735,-0.2980,-1913.82,1030.21,1483.70
3000,-3.8734,-0.4374,-0.2552,-601.32,1874.02,-969.36
3010,-3.8737,-0.4148,-0.2065,23.68,-657.10,-1813.05
3020,-3.8740,-0.4041,-0.1437,-1085.69,1577.27,-16.05
3030,-3.8743,-0.3911,-0.0671,289.31,1624.21,1015.32
3040,-3.8746,-0.3684,-0.0004,1945.56,-578.92,1968.57
3050,-3.8749,-0.3420,0.0284,851.81,-31.98,1234.31
3060,-3.8750,-0.3146,0.0231,226.81,-344.42,1015.62
3070,-3.8750,-0.2861,0.0077,-257.57,-1031.92,453.12
3080,-3.8750,-0.2578,0.0012,-616.94,999.39,125.00
3090,-3.8439,-0.2306,0.0060,-991.94,171.33,-1890.62
3100,-3.8440,-0.2079,0.0005,-1507.57,780.76,-906.25
3110,-3.8440,-0.1863,-0.0205,1398.68,77.70,46.88
3120,-3.8441,-0.1558,-0.0308,164.31,1390.26,749.94
3130,-3.8442,-0.1090,-0.0033,70.56,77.82,343.69
3140,-3.8445,-0.0544,0.0520,-1945.07,-406.49,-500.06
3150,-3.8445,-0.0145,0.0878,1039.31,-1328.25,125.06
3160,-3.8446,-0.0046,0.0734,-1851.32,-750.06,-1031.13
3170,-3.8446,-0.0145,0.0204,-585.69,1406.19,-1140.50
3180,-3.8446,-0.0045,-0.0364,-1851.32,-1375.06,1640.62
3190,-3.8447,0.0505,-0.0800,-570.07,-640.69,968.63
3200,-3.8450,0.1365,-0.1266,-1523.19,1765.69,249.82
3210,-3.8453,0.2288,-0.1763,1476.81,-202.88,-562.81
3220,-3.8453,0.3083,-0.1975,1289.31,1437.93,62.13
3230,-3.8453,0.3644,-0.1946,-523.19,-1280.70,-125.43
3240,-3.8451,0.3944,-0.2128,-1351.32,-905.58,-422.30
3250,-3.8448,0.4152,-0.2891,-1507.57,766.36,1718.32
3260,-3.8448,0.4481,-0.4080,1148.68,-999.21,-266.24
3270,-3.8448,0.5038,-0.5386,1367.43,-217.90,-1469.60
3280,-3.8448,0.5988,-0.6689,492.43,-936.52,623.90
3290,-3.8448,0.7338,-0.7911,648.68,-1623.84,467.41
3300,-3.8448,0.8884,-0.8849,1929.93,-1264.22,-1814.09
3310,-3.8447,1.0399,-0.9186,1726.81,-1263.92,951.35
3320,-3.8446,1.1542,-0.9226,1117.43,-1576.11,1373.17
3330,-3.8444,1.1987,-0.9585,-257.57,1908.45,185.67
3340,-3.8441,1.1812,-1.0398,1445.56,1314.82,1201.23
3350,-3.8439,1.1454,-1.1323,-804.44,-1091.49,1826.05
3360,-3.8750,1.1309,-1.2059,-1382.57,-935.30,1528.99
3370,-3.8439,1.1667,-1.2637,758.06,1642.82,-455.51
3380,-3.8440,1.2523,-1.2943,1351.81,-1747.74,-205.63
3390,-3.8440,1.3494,-1.2805,304.93,-1669.43,-1643.19
3400,-3.8439,1.4181,-1.2594,726.81,96.37,606.87
3410,-3.8750,1.4419,-1.2876,1523.68,-1200.38,1513.12
3420,-3.8749,1.4384,-1.3719,570.56,-809.69,-283.81
3430,-3.8746,1.4493,-1.4723,117.43,393.43,-1737.06
3440,-3.8745,1.4972,-1.5552,1523.68,-450.32,-1159.18
3450,-3.8745,1.5818,-1.6017,-351.32,940.37,-628.05
3460,-3.8745,1.6788,-1.5890,-1523.19,-1012.57,1168.70
3470,-3.8745,1.7460,-1.5304,-1101.32,612.61,496.89
3480,-3.8744,1.7712,-1.4619,-507.57,112.73,1543.88
3490,-3.8739,1.7610,-1.4211,-1273.19,878.42,434.63
3500,-3.8732,1.7418,-1.4467,1414.31,-1902.83,872.19
3510,-3.8724,1.7554,-1.5624,-1038.82,-1168.52,-1674.74
3520,-3.8719,1.8245,-1.7253,695.56,19.04,-815.55
3530,-3.8717,1.9590,-1.8605,1539.31,-840.21,371.58
3540,-3.8717,2.1295,-1.9526,-1241.94,1863.16,918.21
3550,-3.8716,2.2593,-1.9935,586.18,-1933.35,-144.47
3560,-3.8708,2.2751,-1.9865,1195.56,832.52,1636.72
3570,-3.8698,2.1217,-1.9950,-773.19,1738.77,-503.91
3580,-3.8683,1.8035,-2.0719,-413.82,644.71,11.72
3590,-3.8672,1.4391,-2.1680,-1148.19,-1199.65,761.54
3600,-3.8668,1.1720,-2.1832,211.18,-1497.19,-35.52
3610,-3.8671,1.0312,-2.0929,-1976.32,549.13,1933.23
3620,-3.8677,0.9125,-1.9744,8.06,111.39,-1675.96
3630,-3.8678,0.7246,-1.9023,804.93,-716.98,324.22
3640,-3.8673,0.4855,-1.8893,758.06,501.40,1465.03
3650,-3.8665,0.2764,-1.9084,-1851.32,-1827.21,1527.53
3660,-3.8658,0.1725,-1.9016,-616.94,-280.76,793.09
3670,-3.8658,0.2129,-1.8368,-1913.82,594.06,-1722.47
3680,-3.8662,0.3744,-1.7534,-741.94,890.99,887.02
3690,-3.8668,0.5773,-1.7042,-70.07,-436.83,652.77
3700,-3.8674,0.7521,-1.6985,1898.68,1860.47,43.52
3710,-3.8680,0.8613,-1.7206,273.68,-1404.79,1215.39
3720,-3.8687,0.8928,-1.7524,-1741.94,-232.73,-1425.29
3730,-3.8693,0.8540,-1.7764,-1710.69,-310.79,1637.15
3740,-3.8700,0.7557,-1.7932,1320.56,626.65,-1581.60
3750,-3.8707,0.6067,-1.8180,742.43,-1529.79,-191.04
3760,-3.8712,0.4299,-1.8411,1664.31,-701.97,-1581.73
3770,-3.8716,0.2672,-1.8292,-960.69,344.54,-1175.48
3780,-3.8718,0.1448,-1.7728,-1788.82,1859.86,480.77
3790,-3.8722,0.0549,-1.6958,-1460.69,1078.37,840.27
3800,-3.8726,-0.0161,-1.6323,-960.69,-1062.44,-1456.48
3810,-3.8727,-0.0814,-1.5890,1945.56,-921.94,1590.52
3820,-3.8727,-0.1561,-1.5281,1586.18,624.82,1606.26
3830,-3.8727,-0.2360,-1.4276,23.68,421.57,-1971.74
3840,-3.8728,-0.3040,-1.2982,1804.93,1280.76,-612.18
3850,-3.8729,-0.3605,-1.1560,1101.81,1843.14,1372.44
3860,-3.8732,-0.4155,-1.0233,1867.43,46.14,-1674.13
3870,-3.8733,-0.4674,-0.9066,-1179.44,1030.40,1497.99
3880,-3.8734,-0.5055,-0.7949,179.93,-32.17,-1564.33
3890,-3.8735,-0.5288,-0.6860,-695.07,-1735.41,-1282.84
3900,-3.8737,-0.5463,-0.5818,320.56,202.09,1123.66
3910,-3.8739,-0.5562,-0.4878,-1913.82,1545.78,1326.97
3920,-3.8741,-0.5538,-0.4106,820.56,1577.03,733.40
3930,-3.8744,-0.5399,-0.3511,1117.43,-547.97,811.65
3940,-3.8746,-0.5123,-0.3025,-1101.32,-922.97,-1453.86
3950,-3.8748,-0.4689,-0.2567,-1570.07,1295.84,1811.89
3960,-3.8749,-0.4191,-0.2188,-7.57,-844.73,1577.58
3970,-3.8750,-0.3745,-0.1864,-1632.57,14.77,-1750.43
3980,-3.8750,-0.3427,-0.1508,70.56,155.52,452.76
3990,-3.8439,-0.3324,-0.1085,148.68,718.08,-734.68
4000,-3.8439,-0.3480,-0.0568,1461.18,-1875.67,734.13
4010,-3.8440,-0.3876,-0.0076,-538.82,749.27,671.75
4020,-3.8441,-0.4407,0.0242,-1601.32,-953.92,1078.06
4030,-3.8442,-0.4884,0.0397,-398.19,-891.54,-1078.12
4040,-3.8442,-0.5137,0.0425,1492.43,1092.77,1093.81
4050,-3.8444,-0.5081,0.0372,-1741.94,1452.09,-1046.81
4060,-3.8444,-0.4777,0.0354,-1023.19,780.21,1046.94
4070,-3.8445,-0.4470,0.0393,-1132.57,545.90,-1046.81
4080,-3.8445,-0.4309,0.0339,-1210.69,1045.96,390.69
4090,-3.8446,-0.4225,0.0048,851.81,358.52,-1234.31
4100,-3.8446,-0.3994,-0.0349,1929.93,624.15,-1703.12
4110,-3.8446,-0.3407,-0.0619,883.06,-453.92,656.13
4120,-3.8448,-0.2603,-0.0825,398.68,93.08,-156.37
4130,-3.8450,-0.1865,-0.1254,-1304.44,1452.58,827.94
4140,-3.8452,-0.1204,-0.1946,133.06,-31.62,-828.43
4150,-3.8452,-0.0453,-0.2725,601.81,-890.87,1233.95
4160,-3.8452,0.0437,-0.3451,-1788.82,1140.50,1796.33
4170,-3.8452,0.1381,-0.4012,1601.81,-171.81,-1031.98
4180,-3.8452,0.2261,-0.4458,1679.93,640.87,-0.79
4190,-3.8452,0.3048,-0.5128,945.56,-1062.07,-235.29
4200,-3.8452,0.3905,-0.6205,-976.32,-1640.08,1670.84
4210,-3.8453,0.5066,-0.7415,1992.43,578.86,-563.72
4220,-3.8453,0.6542,-0.8567,851.81,1094.73,1811.04
4230,-3.8453,0.8169,-0.9594,-257.57,-1655.03,1123.29
4240,-3.8453,0.9683,-1.0249,570.56,1204.71,-158.14
4250,-3.8451,1.0626,-1.0709,-54.44,814.33,-1736.39
4260,-3.8448,1.0908,-1.1467,23.68,-1076.05,1341.61
4270,-3.8447,1.1135,-1.2406,-366.94,1220.83,-1705.38
4280,-3.8446,1.1757,-1.3241,-1460.69,1205.26,810.06
4290,-3.8446,1.2655,-1.4224,-1507.57,-1482.12,1169.25
4300,-3.8446,1.3868,-1.5505,1992.43,1939.94,840.94
4310,-3.8446,1.5570,-1.6615,1523.68,1533.94,-1799.93
4320,-3.8445,1.7556,-1.7129,-695.07,-668.88,840.45
4330,-3.8445,1.9515,-1.7101,726.81,753.42,-1909.61
4340,-3.8446,2.1368,-1.6671,1804.93,1113.16,-1503.36
4350,-3.8448,2.3143,-1.5944,1523.68,-1386.47,1731.08
4360,-3.8452,2.4774,-1.5074,242.43,-73.61,-315.67
4370,-3.8453,2.6053,-1.4149,1117.43,-948.30,59.51
4380,-3.8456,2.6785,-1.3097,1492.43,-1104.31,-1221.56
4390,-3.8457,2.6814,-1.1832,-1148.19,364.56,1872.44
4400,-3.8458,2.6202,-1.0906,-773.19,552.06,-1361.69
4410,-3.8457,2.5328,-1.1141,-601.32,411.32,1341.61
4420,-3.8455,2.4548,-1.2467,211.18,1395.57,-517.82
4430,-3.8450,2.4077,-1.4125,-1773.19,426.64,-111.82
4440,-3.8442,2.3705,-1.5565,195.56,-792.18,1700.32
4450,-3.8746,2.2883,-1.6638,-570.07,770.20,293.82
4460,-3.8737,2.1292,-1.7505,914.31,-964.29,1074.83
4470,-3.8723,1.9004,-1.8783,539.31,-58.35,762.15
4480,-3.8706,1.6483,-2.0448,-741.94,-418.21,1918.15
4490,-3.8688,1.4476,-2.1479,-1007.57,-1731.20,1714.72
4500,-3.8676,1.3535,-2.1375,1304.93,1065.31,-863.59
4510,-3.8671,1.3519,-2.0801,1258.06,-1591.13,308.29
4520,-3.8673,1.3761,-2.0588,1054.93,1752.62,-129.09
4530,-3.8674,1.3655,-2.0756,148.68,471.44,-285.28
4540,-3.8673,1.2965,-2.1162,-1210.69,-1669.25,-316.59
4550,-3.8669,1.1771,-2.1814,1961.18,1127.50,402.10
4560,-3.8668,1.0457,-2.2469,-1320.07,783.51,-1879.27
4570,-3.8668,0.9447,-2.2732,1851.81,392.64,511.23
4580,-3.8672,0.8850,-2.2274,929.93,1033.08,-51.33
4590,-3.8676,0.8566,-2.1246,1289.31,-1107.67,-1754.39
4600,-3.8680,0.8494,-2.0210,1648.68,48.52,1214.60
4610,-3.8687,0.8539,-1.9501,726.81,1314.15,-988.34
4620,-3.8691,0.8621,-1.9049,1304.93,-1607.73,-1878.85
4630,-3.8696,0.8698,-1.8732,-1648.19,173.52,-1878.72
4640,-3.8701,0.8756,-1.8480,-663.82,236.02,1418.21
4650,-3.8706,0.8690,-1.8237,86.18,-545.17,230.71
4660,-3.8711,0.8271,-1.8063,-757.57,-1435.85,637.02
4670,-3.8715,0.7375,-1.7982,1883.06,798.46,746.46
4680,-3.8717,0.6174,-1.7791,-1585.69,1829.53,215.21
4690,-3.8719,0.5062,-1.7161,-960.69,282.41,230.90
4700,-3.8723,0.4202,-1.6155,804.93,344.73,1965.39
4710,-3.8727,0.3275,-1.5133,1789.31,1219.54,1496.83
4720,-3.8730,0.1924,-1.4218,1929.93,-1702.51,-877.99
4730,-3.8732,0.0171,-1.3378,633.06,-1984.01,-1549.68
4740,-3.8732,-0.1652,-1.2455,-1804.44,765.62,1888.00
4750,-3.8732,-0.3276,-1.1281,-1132.57,593.38,-1768.07
4760,-3.8732,-0.4711,-0.9928,-1929.44,-375.67,-1486.63
4770,-3.8732,-0.5936,-0.8524,-288.82,936.52,-1689.45
4780,-3.8732,-0.6860,-0.7064,23.68,-1094.91,138.92
4790,-3.8734,-0.7426,-0.5583,195.56,1592.41,-1548.28
4800,-3.8737,-0.7571,-0.4271,961.18,545.41,-1532.35
4810,-3.8739,-0.7349,-0.3306,-898.19,1342.22,-891.48
4820,-3.8740,-0.6938,-0.2769,1945.56,1701.66,-1485.05
4830,-3.8740,-0.6437,-0.2594,-804.44,576.72,1483.83
4840,-3.8740,-0.5826,-0.2566,1617.43,-1188.78,-1844.30
4850,-3.8740,-0.5192,-0.2517,1429.93,-829.28,1593.20
4860,-3.8741,-0.4615,-0.2373,1554.93,-204.16,-1219.30
4870,-3.8743,-0.4161,-0.2147,929.93,1639.71,-203.61
4880,-3.8743,-0.3927,-0.1866,-1257.57,530.40,921.45
4890,-3.8744,-0.3950,-0.1580,1742.43,124.21,77.76
4900,-3.8746,-0.4171,-0.1327,1445.56,-203.92,1218.38
4910,-3.8749,-0.4396,-0.1033,-1382.57,-969.60,1859.07
4920,-3.8439,-0.4403,-0.0842,-257.57,-1204.04,-203.37
4930,-3.8439,-0.4167,-0.1082,-351.32,1233.46,1343.57
4940,-3.8439,-0.3820,-0.1589,-1335.69,-1828.98,-656.49
4950,-3.8750,-0.3352,-0.1957,-882.57,-328.92,-1765.99
4960,-3.8750,-0.2743,-0.2006,1101.81,-1031.92,-1891.05
4970,-3.8439,-0.2079,-0.1871,898.68,-1656.80,-719.18
4980,-3.8440,-0.1456,-0.1781,1398.68,62.07,-609.74
4990,-3.8441,-0.0978,-0.1849,1367.43,1218.44,-609.74
5000,-3.8442,-0.0673,-0.2120,-507.57,343.51,-47.24
5010,-3.8442,-0.0426,-0.2468,-601.32,874.82,1015.20
5020,-3.8444,-0.0098,-0.2754,-1445.07,421.75,-828.61
5030,-3.8444,0.0371,-0.2910,-1241.94,765.56,-1906.80
5040,-3.8444,0.0977,-0.2937,758.06,-1249.94,499.39
5050,-3.8445,0.1614,-0.2936,508.06,-1593.57,1733.76
5060,-3.8446,0.2188,-0.2981,664.31,-1577.82,-1844.36
5070,-3.8447,0.2614,-0.3120,8.06,1844.18,-1156.86
5080,-3.8447,0.2776,-0.3525,1461.18,62.99,765.01
5090,-3.8447,0.2802,-0.4391,-460.69,-1124.51,155.52
5100,-3.8448,0.3187,-0.5615,-132.57,-202.64,-797.79
5110,-3.8448,0.4277,-0.6882,804.93,125.61,-1672.97
5120,-3.8447,0.6041,-0.8082,-1241.94,-92.96,639.22
5130,-3.8445,0.8378,-0.9172,1336.18,548.03,764.04
5140,-3.8441,1.0863,-0.9789,-757.57,-1404.66,1732.54
5150,-3.8750,1.2773,-0.9753,-945.07,-1294.80,435.55
5160,-3.8750,1.3793,-0.9463,-491.94,-841.31,-626.95
5170,-3.8750,1.4109,-0.9371,554.93,-1122.31,623.11
5180,-3.8439,1.3997,-0.9675,601.81,49.62,1748.17
5190,-3.8439,1.3759,-1.0120,-835.69,158.94,-1580.02
5200,-3.8750,1.3729,-1.0291,117.43,-1528.56,-1095.76
5210,-3.8748,1.4032,-1.0067,-257.57,283.87,1232.36
5220,-3.8746,1.4512,-0.9677,-382.57,-856.69,-517.64
5230,-3.8744,1.4980,-0.9443,1758.06,143.43,1279.36
5240,-3.8743,1.5310,-0.9399,-241.94,-872.13,498.11
5250,-3.8744,1.5447,-0.9509,-23.19,-309.57,-1470.64
5260,-3.8745,1.5525,-0.9723,1726.81,-1715.76,29.36
5270,-3.8749,1.5782,-0.9861,-1273.19,-450.13,-970.70
5280,-3.8439,1.6241,-0.9812,-1976.32,1784.30,763.67
5290,-3.8442,1.6743,-0.9351,-101.32,-1590.64,904.30
5300,-3.8447,1.7191,-0.8160,-1679.44,315.73,-48.71
5310,-3.8450,1.7356,-0.7080,54.93,-449.77,1779.60
5320,-3.8451,1.7079,-0.7455,-1835.69,1378.36,-188.90
5330,-3.8448,1.6661,-0.9122,-1382.57,581.42,-1282.71
5340,-3.8445,1.6550,-1.1067,1273.68,-762.39,466.92
5350,-3.8444,1.7021,-1.2743,-148.19,-1653.08,-1002.20
5360,-3.8442,1.8065,-1.4185,1883.06,893.92,1138.12
5370,-3.8442,1.9359,-1.5198,-757.57,-1559.02,-643.43
5380,-3.8440,2.0233,-1.5426,-195.07,1472.47,-346.74
5390,-3.8746,2.0078,-1.5472,-1007.57,-1449.22,840.70
5400,-3.8739,1.8969,-1.6237,1008.06,1957.03,809.45
5410,-3.8730,1.7534,-1.7657,-1195.07,175.54,637.45
5420,-3.8722,1.6455,-1.9011,445.56,1987.79,887.15
5430,-3.8716,1.6237,-1.9729,-1366.94,659.42,636.90
5440,-3.8715,1.6770,-1.9724,-163.82,-528.14,605.47
5450,-3.8717,1.7262,-1.9569,-1335.69,-465.52,-800.78
5460,-3.8716,1.7108,-1.9951,961.18,1518.98,1714.90
5470,-3.8710,1.6283,-2.0964,-1007.57,628.30,1949.22
5480,-3.8699,1.4861,-2.2393,429.93,-340.58,-1629.15
5490,-3.8685,1.2930,-2.3821,-1773.19,1377.87,-66.89
5500,-3.8672,1.1035,-2.4497,1508.06,-903.75,1182.80
5510,-3.8665,0.9740,-2.3917,1258.06,-1560.36,151.43
5520,-3.8665,0.8904,-2.2435,679.93,1861.27,1792.18
5530,-3.8667,0.8005,-2.1024,1976.81,829.83,-1738.77
5540,-3.8668,0.6971,-2.0325,-1523.19,-1107.85,-566.65
5550,-3.8666,0.6102,-2.0144,1242.43,-154.91,480.35
5560,-3.8665,0.5500,-2.0071,-1882.57,-1842.59,-269.59
5570,-3.8663,0.5085,-1.9901,-1585.69,-905.21,1839.78
5580,-3.8666,0.4709,-1.9659,1101.81,1266.60,-566.41
5590,-3.8669,0.4270,-1.9442,289.31,360.29,-1128.85
5600,-3.8673,0.3730,-1.9147,-1335.69,-858.58,464.90
5610,-3.8678,0.3075,-1.8643,-241.94,-1077.45,1011.84
5620,-3.8684,0.2301,-1.7919,-632.57,1375.55,-1644.29
5630,-3.8690,0.1495,-1.7043,1461.18,-1358.95,215.21
5640,-3.8698,0.0814,-1.6189,-851.32,1843.99,1590.39
5650,-3.8704,0.0249,-1.5497,-1570.07,781.37,1965.58
5660,-3.8708,-0.0255,-1.4897,-804.44,1640.62,1950.07
5670,-3.8712,-0.0667,-1.4292,742.43,1328.06,28.32
5680,-3.8717,-0.0942,-1.3689,-523.19,1077.94,-18.43
5690,-3.8719,-0.1113,-1.3094,-54.44,796.63,-971.44
5700,-3.8721,-0.1241,-1.2484,1758.06,406.01,1106.81
5710,-3.8722,-0.1310,-1.1743,117.43,218.51,888.18
5720,-3.8724,-0.1355,-1.0754,-757.57,1702.82,-455.44
5730,-3.8727,-0.1487,-0.9613,-1335.69,-1640.93,-1174.01
5740,-3.8730,-0.1737,-0.8407,976.81,968.44,-1001.89
5750,-3.8734,-0.2089,-0.7280,1773.68,405.88,1935.85
5760,-3.8738,-0.2452,-0.6508,1273.68,-1172.30,-1173.34
5770,-3.8740,-0.2728,-0.5957,617.43,718.26,-1438.78
5780,-3.8743,-0.2856,-0.5302,1086.18,-234.92,-32.47
5790,-3.8744,-0.2793,-0.4475,-554.44,155.64,-1844.79
5800,-3.8745,-0.2584,-0.3575,258.06,-1266.17,311.58
5810,-3.8748,-0.2311,-0.2682,-1070.07,-1750.55,1733.64
5820,-3.8750,-0.2010,-0.1825,-1570.07,1687.01,-1250.55
5830,-3.8439,-0.1816,-0.1150,-1726.32,655.82,609.01
5840,-3.8440,-0.1853,-0.0796,758.06,1296.51,202.88
5850,-3.8441,-0.2062,-0.0704,289.31,1827.76,-781.43
5860,-3.8440,-0.2313,-0.0693,1617.43,-1000.43,-1703.31
5870,-3.8439,-0.2491,-0.0508,-1601.32,-859.86,-1734.56
5880,-3.8750,-0.2537,-0.0183,117.43,1515.14,93.63
5890,-3.8750,-0.2488,-0.0021,-460.69,1671.33,1203.06
5900,-3.8750,-0.2435,-0.0071,164.31,-250.49,-437.56
5910,-3.8749,-0.2421,-0.0106,836.18,-891.11,796.81
5920,-3.8750,-0.2393,0.0056,1023.68,-1344.24,-1453.19
5930,-3.8439,-0.2250,0.0364,1383.06,733.89,1015.62
5940,-3.8441,-0.1930,0.0653,-788.82,671.39,625.06
5950,-3.8445,-0.1472,0.0693,-695.07,374.57,-609.25
5960,-3.8446,-0.1035,0.0458,1164.31,890.32,1265.75
5970,-3.8447,-0.0740,0.0095,-1241.94,1874.76,-609.31
5980,-3.8447,-0.0548,-0.0344,-1460.69,1234.19,-890.62
5990,-3.8447,-0.0355,-0.0845,992.43,-390.75,-765.75
6000,-3.8447,-0.0051,-0.1190,-538.82,1203.00,-140.81
6010,-3.8447,0.0414,-0.1072,-648.19,781.19,-47.12
6020,-3.8447,0.0935,-0.0670,1304.93,-1718.69,1281.01
6030,-3.8450,0.1285,-0.0477,-23.19,-578.00,-1109.56
6040,-3.8452,0.1282,-0.0858,461.18,1890.87,-47.00
6050,-3.8452,0.1079,-0.1797,414.31,1015.87,624.82
6060,-3.8452,0.1025,-0.2852,1820.56,1000.18,1265.26
6070,-3.8451,0.1320,-0.3732,1133.06,-499.82,249.39
6080,-3.8450,0.1969,-0.4379,898.68,234.62,1389.89
6090,-3.8448,0.2769,-0.4723,1211.18,-46.51,-47.79
6100,-3.8446,0.3372,-0.4821,-554.44,-452.64,-1313.48
6110,-3.8444,0.3591,-0.5096,-835.69,-1702.51,-1157.23
6120,-3.8441,0.3464,-0.5890,1976.81,-1233.70,-610.41
6130,-3.8439,0.2982,-0.7375,351.81,610.05,-1048.03
6140,-3.8748,0.2466,-0.9565,-1820.07,1594.30,654.79
6150,-3.8744,0.2567,-1.1794,-429.44,1562.93,-1236.27
6160,-3.8739,0.3562,-1.3401,867.43,1031.74,-252.32
6170,-3.8734,0.5197,-1.4315,1601.81,469.42,-346.37
6180,-3.8730,0.7074,-1.5015,-1476.32,766.60,-643.43
6190,-3.8728,0.9005,-1.6028,-1445.07,-186.16,1731.38
6200,-3.8728,1.0980,-1.7347,-726.32,-1154.54,-221.92
6210,-3.8728,1.3103,-1.8547,554.93,1955.26,-425.29
6220,-3.8728,1.5454,-1.9205,-273.19,-1403.75,1293.21
6230,-3.8729,1.7765,-1.9126,1820.56,-1825.13,371.22
6240,-3.8733,1.9586,-1.8293,-601.32,-809.08,-519.41
6250,-3.8737,2.0565,-1.7028,-1288.82,1847.53,-1691.10
6260,-3.8741,2.0559,-1.5897,-757.57,-1949.16,-1034.61
6270,-3.8746,1.9911,-1.5103,-835.69,519.59,-534.36
6280,-3.8750,1.9108,-1.4475,-1132.57,-1308.65,1372.01
6290,-3.8441,1.8312,-1.4047,586.18,-1277.53,1544.01
6300,-3.8444,1.7561,-1.4125,-1601.32,206.67,934.75
6310,-3.8445,1.6962,-1.4735,789.31,-793.46,1762.82
6320,-3.8444,1.6600,-1.5392,1117.43,-606.08,-1221.68
6330,-3.8439,1.6393,-1.5928,492.43,-1012.39,1653.20
6340,-3.8745,1.6154,-1.6410,1836.18,128.17,-440.61
6350,-3.8738,1.5778,-1.6460,-1226.32,1956.24,1059.27
6360,-3.8733,1.4933,-1.6382,1961.18,1315.55,-815.73
6370,-3.8727,1.3507,-1.7106,-851.32,-1684.63,-1675.11
6380,-3.8719,1.2343,-1.8481,898.68,1049.50,449.77
6390,-3.8715,1.2257,-1.9343,1992.43,-560.12,-175.54
6400,-3.8710,1.2885,-1.9485,898.68,408.63,949.34
6410,-3.8706,1.3197,-1.9736,929.93,-1403.75,152.40
6420,-3.8702,1.2460,-2.0444,929.93,-622.44,-847.66
6430,-3.8695,1.0695,-2.1469,-507.57,-1685.12,1558.47
6440,-3.8687,0.8689,-2.2482,898.68,1205.20,-1504.21
6450,-3.8677,0.6805,-2.3228,-773.19,236.02,1636.23
6460,-3.8667,0.4763,-2.3651,-882.57,-1311.22,-1504.58
6470,-3.8657,0.2804,-2.3512,976.81,1266.54,-4.64
6480,-3.8649,0.1613,-2.2615,-101.32,-952.64,1979.74
6490,-3.8645,0.1465,-2.1379,648.68,-1468.44,808.04
6500,-3.8646,0.2063,-2.0463,-1241.94,-1656.01,42.66
6510,-3.8651,0.2966,-1.9977,-1585.69,-1921.51,1933.47
6520,-3.8656,0.3906,-1.9698,1976.81,297.42,1433.59
6530,-3.8661,0.4641,-1.9703,-1991.94,-139.89,-1691.41
6540,-3.8665,0.4781,-2.0149,-585.69,-202.27,1808.59
6550,-3.8667,0.4379,-2.0721,1211.18,-1905.33,-1675.84
6560,-3.8668,0.4066,-2.0706,54.93,-1233.52,-1629.09
6570,-3.8672,0.4009,-1.9924,54.93,-1030.46,-254.09
6580,-3.8678,0.3796,-1.8868,-679.44,969.48,917.97
6590,-3.8687,0.3254,-1.7880,601.81,-1514.89,308.78
6600,-3.8695,0.2534,-1.6925,1664.31,-858.76,-1862.92
6610,-3.8701,0.1769,-1.5842,445.56,-640.14,1465.39
6620,-3.8706,0.1063,-1.4606,-1351.32,1219.06,1059.39
6630,-3.8711,0.0507,-1.3362,1617.43,1047.06,-1752.87
6640,-3.8716,0.0074,-1.2183,-1507.57,968.81,-158.87
6650,-3.8718,-0.0079,-1.1062,961.18,62.50,638.24
6660,-3.8719,0.0117,-1.0135,-1007.57,-1578.19,154.05
6670,-3.8721,0.0242,-0.9421,1508.06,-1734.38,-767.64
6680,-3.8721,-0.0162,-0.8676,-898.19,-593.75,873.11
6690,-3.8723,-0.1075,-0.7797,1929.93,968.69,-17.33
6700,-3.8724,-0.2142,-0.7009,-1757.57,218.51,-1610.90
6710,-3.8726,-0.3060,-0.6344,586.18,-1703.55,1951.72
6720,-3.8727,-0.3632,-0.5652,836.18,-1188.11,1858.09
6730,-3.8729,-0.3757,-0.4918,1523.68,-328.86,-110.53
6740,-3.8732,-0.3501,-0.4150,-85.69,1061.71,-1360.35
6750,-3.8735,-0.3153,-0.3394,-804.44,-1110.11,-969.60
6760,-3.8738,-0.3076,-0.2721,-351.32,577.45,14.95
6770,-3.8741,-0.3397,-0.2317,633.06,1186.89,-469.30
6780,-3.8743,-0.3899,-0.2473,523.68,-1641.30,-1375.49
6790,-3.8741,-0.4170,-0.3127,-1898.19,358.58,1108.89
6800,-3.8739,-0.3997,-0.3663,-1366.94,-16.48,1124.33
6810,-3.8738,-0.3566,-0.3414,851.81,1124.21,952.39
6820,-3.8740,-0.3226,-0.2477,-1632.57,311.77,-1281.92
6830,-3.8744,-0.3127,-0.1794,-1288.82,311.83,-1969.24
6840,-3.8748,-0.3158,-0.1854,-23.19,1046.20,-484.74
6850,-3.8749,-0.3152,-0.2183,-413.82,280.58,-1453.49
6860,-3.8750,-0.3016,-0.2217,-335.69,77.45,-1094.18
6870,-3.8439,-0.2778,-0.1912,1398.68,-359.99,62.01
6880,-3.8442,-0.2502,-0.1472,445.56,-453.67,1624.57
6890,-3.8446,-0.2250,-0.1012,-23.19,1171.33,-1640.93
6900,-3.8448,-0.2057,-0.0609,-788.82,-937.99,1077.88
6910,-3.8451,-0.1873,-0.0339,1679.93,218.32,-1515.75
6920,-3.8452,-0.1636,-0.0404,39.31,-328.49,-312.62
6930,-3.8451,-0.1426,-0.0618,-929.44,-1156.62,406.13
6940,-3.8452,-0.1350,-0.0516,1758.06,109.07,-406.37
6950,-3.8453,-0.1340,-0.0197,-1273.19,1405.94,-1609.50
6960,-3.8456,-0.1256,0.0068,-1148.19,1499.69,-250.06
6970,-3.8457,-0.1040,0.0211,-70.07,890.32,-1015.62
6980,-3.8458,-0.0729,0.0183,-1304.44,-1281.49,-281.25
6990,-3.8458,-0.0378,-0.0073,-1320.07,-1640.81,1765.62
7000,-3.8458,0.0059,-0.0492,-835.69,-922.00,-1015.69
7010,-3.8457,0.0596,-0.0829,758.06,1703.12,1546.75
7020,-3.8457,0.1046,-0.0973,-366.94,1390.69,796.69
7030,-3.8458,0.1322,-0.1119,1398.68,-452.94,15.38
7040,-3.8461,0.1545,-0.1416,929.93,1672.12,-1640.87
7050,-3.8462,0.1853,-0.1854,-210.69,1875.24,-1953.43
7060,-3.8463,0.2329,-0.2399,-273.19,265.93,-172.24
7070,-3.8463,0.2906,-0.2971,1820.56,1297.30,-937.99
7080,-3.8463,0.3473,-0.3710,1211.18,1969.30,-1281.86
7090,-3.8462,0.4037,-0.4786,461.18,516.30,-1938.23
7100,-3.8458,0.4624,-0.6034,-320.07,-1264.89,1139.65
7110,-3.8453,0.5176,-0.7531,-804.44,-1233.52,1014.40
7120,-3.8448,0.5806,-0.9427,-1741.94,-389.65,-392.15
7130,-3.8441,0.6809,-1.1172,-1679.44,-670.78,-798.77
7140,-3.8746,0.8307,-1.2134,-835.69,1001.28,-611.57
7150,-3.8741,1.0049,-1.2238,-1663.82,689.09,-596.13
7160,-3.8739,1.1534,-1.2000,633.06,-638.67,388.18
7170,-3.8740,1.2511,-1.2100,-351.32,-1591.55,1778.87
7180,-3.8741,1.3219,-1.2706,148.68,1127.44,1778.87
7190,-3.8741,1.3925,-1.3329,1211.18,1361.94,1606.87
7200,-3.8740,1.4702,-1.3154,-1757.57,1393.31,1247.38
7210,-3.8739,1.5614,-1.2164,195.56,-372.13,1559.88
7220,-3.8738,1.6752,-1.1520,-132.57,299.87,1528.87
7230,-3.8735,1.8086,-1.1859,-1570.07,550.11,60.24
7240,-3.8732,1.9498,-1.2703,-491.94,206.60,75.81
7250,-3.8728,2.0945,-1.3250,1586.18,1410.03,544.37
7260,-3.8727,2.2444,-1.2871,101.81,-1589.66,497.38
7270,-3.8728,2.3901,-1.1698,-710.69,-745.67,513.06
7280,-3.8729,2.5052,-1.0610,1945.56,-1729.74,1544.56
7290,-3.8728,2.5812,-1.0166,679.93,192.38,982.30
7300,-3.8726,2.6316,-1.0143,-1601.32,1880.00,1044.86
7310,-3.8723,2.6627,-1.0522,851.81,-1823.00,-1564.51
7320,-3.8719,2.6763,-1.1434,836.18,1317.69,497.92
7330,-3.8716,2.6978,-1.2639,-1429.44,1645.81,1560.24
7340,-3.8710,2.7373,-1.3850,1320.56,-1776.00,-674.38
7350,-3.8700,2.7423,-1.4915,-1616.94,-1275.94,-471.50
7360,-3.8689,2.6405,-1.5735,-976.32,1099.06,-346.68
7370,-3.8679,2.4087,-1.6307,1992.43,-1401.12,-706.24
7380,-3.8672,2.0950,-1.6750,320.56,-729.68,246.77
7390,-3.8669,1.7944,-1.7134,164.31,1597.84,762.33
7400,-3.8671,1.5944,-1.7416,1695.56,690.98,-815.86
7410,-3.8672,1.5338,-1.7411,86.18,1081.24,1590.33
7420,-3.8673,1.5791,-1.7172,336.18,1143.62,1793.46
7430,-3.8673,1.6356,-1.7114,-1866.94,206.18,465.39
7440,-3.8674,1.6323,-1.7498,1367.43,940.67,-393.98
7450,-3.8674,1.5598,-1.8171,945.56,34.42,-1362.79
7460,-3.8674,1.4283,-1.8722,-335.69,-590.76,90.15
7470,-3.8677,1.2511,-1.8829,-1163.82,362.12,683.84
7480,-3.8682,1.0486,-1.8486,148.68,-1013.18,-300.60
7490,-3.8687,0.8555,-1.7977,-1773.19,-622.99,-222.41
7500,-3.8690,0.7164,-1.7578,1508.06,1892.27,1371.46
7510,-3.8694,0.6583,-1.7352,-288.82,-998.66,-269.10
7520,-3.8695,0.6730,-1.7189,273.68,1891.91,-425.29
7530,-3.8695,0.7328,-1.6973,-1851.32,-14.34,-1128.42
7540,-3.8695,0.8051,-1.6682,1804.93,-1248.60,996.64
7550,-3.8698,0.8497,-1.6187,-945.07,-1529.72,1996.70
7560,-3.8701,0.8434,-1.5312,773.68,814.15,278.08
7570,-3.8707,0.7968,-1.4136,-38.82,1.59,278.26
7580,-3.8715,0.7339,-1.2933,1992.43,-935.97,1465.94
7590,-3.8721,0.6776,-1.1989,1945.56,-1545.47,-1783.81
7600,-3.8724,0.6382,-1.1366,-1257.57,-1451.84,-1299.26
7610,-3.8726,0.6073,-1.0881,1695.56,-1483.15,-1986.63
7620,-3.8726,0.5646,-1.0453,1742.43,719.91,388.49
7630,-3.8727,0.5039,-1.0009,273.68,-1795.78,-1720.83
7640,-3.8728,0.4333,-0.9426,508.06,-108.40,1919.86
7650,-3.8730,0.3551,-0.8680,-523.19,-655.46,-720.64
7660,-3.8732,0.2648,-0.7844,1461.18,891.30,795.17
7670,-3.8733,0.1558,-0.7001,1898.68,-405.76,1685.91
7680,-3.8733,0.0314,-0.6260,-54.44,-1609.13,-1579.53
7690,-3.8732,-0.0957,-0.5721,23.68,-124.94,1436.22
7700,-3.8730,-0.2159,-0.5330,-241.94,-1218.99,1186.34
7710,-3.8729,-0.3282,-0.4944,367.43,-203.55,655.15
7720,-3.8729,-0.4479,-0.4440,1992.43,733.70,-1563.48
7730,-3.8729,-0.5764,-0.3864,-1320.07,-813.42,1108.46
7740,-3.8730,-0.6727,-0.3407,-1773.19,-1438.66,936.71
7750,-3.8733,-0.6991,-0.3065,1898.68,404.91,-1516.30
7760,-3.8735,-0.6655,-0.2794,-1476.32,779.85,1171.26
7770,-3.8739,-0.6082,-0.2642,-1179.44,248.66,1124.45
7780,-3.8743,-0.5521,-0.2557,-1835.69,-1798.10,468.20
7790,-3.8746,-0.4978,-0.2523,1336.18,-719.85,1249.45
7800,-3.8749,-0.4335,-0.2555,289.31,-282.23,202.58
7810,-3.8439,-0.3650,-0.2513,523.68,-688.35,1343.20
7820,-3.8441,-0.3132,-0.2307,1289.31,-156.98,-141.17
7830,-3.8442,-0.2827,-0.1953,-85.69,-1516.30,-891.11
7840,-3.8444,-0.2701,-0.1523,-179.44,-984.99,-1156.68
7850,-3.8445,-0.2637,-0.1119,1429.93,515.08,-1390.93
7860,-3.8446,-0.2484,-0.0775,-1741.94,1686.95,1906.01
7870,-3.8447,-0.2290,-0.0449,211.18,-1906.74,484.19
7880,-3.8450,-0.2213,-0.0142,-1304.44,-1734.86,-734.50
7890,-3.8451,-0.2216,-0.0031,-320.07,-1797.36,-78.19
7900,-3.8451,-0.2075,-0.0166,-351.32,-375.49,-1093.81
7910,-3.8451,-0.1759,-0.0291,1445.56,1890.20,-1390.69
7920,-3.8451,-0.1382,-0.0204,1492.43,296.51,999.94
7930,-3.8452,-0.1055,-0.0027,-1679.44,1405.94,1453.06
7940,-3.8455,-0.0800,0.0050,-1491.94,-328.37,-125.06
7950,-3.8456,-0.0536,0.0015,1773.68,656.07,953.12
7960,-3.8458,-0.0276,-0.0079,1148.68,203.00,-1296.88
7970,-3.8459,-0.0035,-0.0332,476.81,-1000.06,-1718.81
7980,-3.8459,0.0359,-0.0961,-445.07,-234.44,468.63
7990,-3.8459,0.1042,-0.1956,601.81,-296.81,-1484.62
8000,-3.8457,0.1927,-0.3107,1351.81,-1031.07,483.95
8010,-3.8455,0.2931,-0.4160,679.93,234.74,46.26
8020,-3.8453,0.3977,-0.4797,1523.68,-1249.45,1155.40
8030,-3.8453,0.4849,-0.5028,-1085.69,-1405.52,-1766.60
8040,-3.8453,0.5332,-0.5326,-1929.44,-358.46,827.09
8050,-3.8455,0.5790,-0.6021,258.06,-170.84,1686.40
8060,-3.8456,0.6945,-0.7041,-1882.57,-1061.40,451.90
8070,-3.8458,0.8898,-0.8068,898.68,1876.34,1295.47
8080,-3.8461,1.1125,-0.8741,1898.68,736.08,-1735.96
8090,-3.8462,1.3214,-0.8999,-1585.69,111.51,-1720.46
8100,-3.8462,1.5083,-0.9075,1148.68,815.06,-501.77
8110,-3.8459,1.6583,-0.9086,1070.56,-153.32,1045.04
8120,-3.8458,1.7351,-0.8834,273.68,-293.64,-1064.33
8130,-3.8457,1.7290,-0.8367,-1898.19,-1074.77,-1548.65
8140,-3.8457,1.6805,-0.8091,1320.56,909.61,-1189.15
8150,-3.8457,1.6332,-0.8131,-882.57,440.73,279.66
8160,-3.8459,1.6060,-0.8306,1054.93,-74.95,-845.40
8170,-3.8462,1.6039,-0.8467,1570.56,1690.61,-1157.90
8180,-3.8466,1.6392,-0.8638,1304.93,-371.89,-173.58
8190,-3.8468,1.7565,-0.8684,1820.56,1440.67,1513.92
8200,-3.8469,1.9918,-0.8387,836.18,847.17,1357.67
8210,-3.8468,2.3047,-0.8083,-1038.82,644.47,1295.23
8220,-3.8466,2.6069,-0.8243,-991.94,535.71,-17.21
8230,-3.8459,2.8290,-0.9005,1695.56,-1510.56,-1782.90
8240,-3.8451,2.9342,-1.0122,-1882.57,739.87,1310.73
8250,-3.8441,2.9108,-1.0966,-413.82,-1556.82,-1939.51
8260,-3.8744,2.8120,-1.1152,586.18,-353.70,1341.55
8270,-3.8737,2.7446,-1.0875,-54.44,1255.43,1513.43
8280,-3.8732,2.7791,-1.0542,-679.44,802.19,700.99
8290,-3.8729,2.9135,-1.0497,-273.19,1067.87,966.67
8300,-3.8728,3.0972,-1.0996,929.93,1646.30,-220.83
8310,-3.8724,3.2590,-1.2023,445.56,-743.96,-924.07
8320,-3.8718,3.3368,-1.3292,1164.31,-1884.28,138.24
8330,-3.8713,3.3281,-1.4451,-882.57,1865.84,-799.50
8340,-3.8707,3.2576,-1.5331,-1991.94,-962.28,1356.51
8350,-3.8702,3.1187,-1.6034,976.81,-228.03,1606.32
8360,-3.8698,2.9272,-1.6774,-804.44,-1228.33,59.33
8370,-3.8694,2.7317,-1.7360,-1304.44,1302.55,1168.58
8380,-3.8691,2.5641,-1.7468,1664.31,1802.19,-987.79
8390,-3.8690,2.4282,-1.7284,211.18,411.25,-1269.04
8400,-3.8691,2.2987,-1.7145,-1179.44,-1229.68,-1034.67
8410,-3.8694,2.1399,-1.7197,-1757.57,551.33,1168.52
8420,-3.8698,1.9493,-1.7393,1914.31,-120.85,824.71
8430,-3.8701,1.7524,-1.7653,1523.68,1378.78,855.96
8440,-3.8705,1.5679,-1.7886,320.56,-1949.71,-1331.60
8450,-3.8707,1.4038,-1.8014,695.56,-934.45,-1675.42
8460,-3.8710,1.2605,-1.7968,-304.44,1424.56,-1175.42
8470,-3.8712,1.1232,-1.7681,1351.81,-1981.93,-691.04
8480,-3.8713,0.9841,-1.7208,-226.32,1689.64,402.77
8490,-3.8716,0.8501,-1.6595,1976.81,-263.73,-1019.04
8500,-3.8717,0.7213,-1.5686,820.56,-420.23,1856.08
8510,-3.8719,0.5835,-1.4525,336.18,-779.85,-1471.86
8520,-3.8723,0.4314,-1.3302,-1304.44,-1920.78,-112.24
8530,-3.8726,0.2981,-1.2090,-773.19,1735.17,684.88
8540,-3.8728,0.2136,-1.1035,-1835.69,1250.55,1263.24
8550,-3.8729,0.1666,-1.0144,-648.19,-1249.63,1857.18
8560,-3.8729,0.1307,-0.9323,1336.18,-1843.44,372.99
8570,-3.8730,0.0978,-0.8574,742.43,672.12,-189.33
8580,-3.8730,0.0723,-0.7876,523.68,-1749.82,-626.71
8590,-3.8730,0.0503,-0.7234,1258.06,-812.38,-767.21
8600,-3.8730,0.0399,-0.6715,-1554.44,-593.69,-376.46
8610,-3.8730,0.0490,-0.6204,1117.43,-1953.06,-641.97
8620,-3.8730,0.0514,-0.5560,-1726.32,593.81,1561.28
8630,-3.8732,0.0220,-0.4819,-1413.82,828.19,-1954.22
8640,-3.8733,-0.0415,-0.4100,-1179.44,-1687.50,1358.40
8650,-3.8734,-0.1278,-0.3527,-1304.44,-468.87,1139.77
8660,-3.8735,-0.2235,-0.3065,-351.32,-1125.31,-1516.36
8670,-3.8735,-0.3177,-0.2570,-601.32,780.76,530.64
8680,-3.8737,-0.3987,-0.1948,-663.82,-875.67,1015.08
8690,-3.8739,-0.4500,-0.1310,976.81,-922.67,-141.05
8700,-3.8740,-0.4659,-0.0840,-1585.69,-750.92,-1344.06
8710,-3.8741,-0.4528,-0.0583,367.43,1264.71,1202.94
8720,-3.8743,-0.4177,-0.0536,-1945.07,545.96,218.63
8730,-3.8744,-0.3767,-0.0682,-1460.69,1155.40,1624.88
8740,-3.8744,-0.3356,-0.1047,-210.69,-719.54,-1484.56
8750,-3.8743,-0.2860,-0.1425,1054.93,-1391.30,1249.76
8760,-3.8743,-0.2345,-0.1421,-601.32,1780.64,468.44
8770,-3.8746,-0.1951,-0.0988,1992.43,1827.64,-94.06
8780,-3.8750,-0.1691,-0.0430,-960.69,-625.43,-1672.12
8790,-3.8441,-0.1414,-0.0060,-1632.57,-1484.74,1749.88
8800,-3.8444,-0.0997,0.0106,1914.31,-750.31,468.69
8810,-3.8446,-0.0521,0.0178,-757.57,1374.76,-1890.62
8820,-3.8447,-0.0171,0.0229,1336.18,-1703.25,1140.62
8830,-3.8448,0.0038,0.0216,1820.56,-1046.94,500.00
8840,-3.8450,0.0156,0.0049,492.43,-1234.38,625.00
8850,-3.8451,0.0159,-0.0269,-1991.94,625.00,-2000.00
8860,-3.8451,0.0148,-0.0656,-1960.69,562.50,843.69
8870,-3.8451,0.0303,-0.1062,1898.68,-390.62,1499.82
8880,-3.8451,0.0704,-0.1447,-116.94,-1593.75,-765.87
8890,-3.8451,0.1318,-0.1670,1023.68,1484.50,-344.06
8900,-3.8451,0.2073,-0.1694,883.06,-1374.76,1234.01
8910,-3.8452,0.2863,-0.1779,-1460.69,-1687.13,515.26
8920,-3.8455,0.3527,-0.2228,648.68,1234.92,-265.99
8930,-3.8455,0.3921,-0.3184,1148.68,-514.95,-1516.11
8940,-3.8453,0.4169,-0.4648,-1804.44,-749.27,-16.30
8950,-3.8448,0.4762,-0.6290,1367.43,500.79,1530.33
8960,-3.8442,0.6018,-0.7544,961.18,-514.71,858.09
8970,-3.8750,0.7660,-0.8193,1039.31,-561.34,-407.78
8980,-3.8745,0.9264,-0.8560,-1945.07,-873.54,1420.23
8990,-3.8743,1.0574,-0.8875,-1413.82,-1560.73,-32.96
9000,-3.8739,1.1414,-0.8955,-648.19,-1591.74,13.85
9010,-3.8739,1.1714,-0.8658,-1898.19,1377.20,-1923.65
9020,-3.8740,1.1577,-0.8279,1945.56,1174.13,123.29
9030,-3.8744,1.1281,-0.8311,195.56,-1966.49,-1986.02
9040,-3.8745,1.1237,-0.8906,398.68,1627.20,623.35
9050,-3.8744,1.1664,-0.9724,-163.82,-1997.86,-1267.40
9060,-3.8739,1.2430,-1.0219,1304.93,-466.49,1138.67
9070,-3.8735,1.3219,-1.0089,-882.57,1205.51,-1173.89
9080,-3.8733,1.3799,-0.9524,1211.18,-1138.06,-1705.14
9090,-3.8732,1.4243,-0.9053,633.06,-1903.56,654.36
9100,-3.8732,1.4744,-0.9152,-1679.44,127.75,-283.02
9110,-3.8729,1.5198,-0.9700,726.81,-1137.76,-533.08
9120,-3.8726,1.5353,-1.0137,-1460.69,-153.32,1701.17
9130,-3.8723,1.5245,-1.0040,523.68,-1747.01,-720.76
9140,-3.8719,1.5082,-0.9407,-851.32,-512.70,919.86
9150,-3.8717,1.5028,-0.8729,1054.93,-403.32,-408.14
9160,-3.8713,1.5310,-0.8718,367.43,268.55,-1314.21
9170,-3.8710,1.6110,-0.9384,-23.19,409.18,-79.83
9180,-3.8705,1.7393,-1.0233,-1788.82,-106.26,-423.77
9190,-3.8700,1.9005,-1.1387,-1366.94,1018.98,-1064.51
9200,-3.8695,2.0653,-1.2792,-726.32,-1746.34,-1596.01
9210,-3.8690,2.1853,-1.3654,367.43,269.65,1981.87
9220,-3.8685,2.2251,-1.3563,-273.19,1238.59,91.06
9230,-3.8682,2.1586,-1.3247,820.56,-1605.04,-1127.69
9240,-3.8674,1.9648,-1.3939,304.93,-1558.29,856.75
9250,-3.8665,1.6805,-1.5758,-491.94,1581.91,-1987.12
9260,-3.8654,1.4124,-1.7515,-882.57,-1699.89,-18.74
9270,-3.8644,1.2626,-1.8217,789.31,-184.75,324.65
9280,-3.8641,1.2548,-1.7610,1617.43,-1169.43,1496.40
9290,-3.8643,1.3246,-1.6250,617.43,-1403.81,1246.52
9300,-3.8644,1.3738,-1.5419,1554.93,2.56,-1143.80
9310,-3.8641,1.3489,-1.6003,-148.19,-1356.75,-331.18
9320,-3.8635,1.2528,-1.7965,664.31,-841.13,403.08
9330,-3.8630,1.1023,-2.0127,367.43,-1950.68,1715.21
9340,-3.8625,0.9304,-2.0890,1101.81,-1622.86,511.66
9350,-3.8625,0.7581,-1.9856,-898.19,611.15,1839.66
9360,-3.8633,0.5879,-1.7747,1039.31,1845.21,1964.84
9370,-3.8645,0.4529,-1.5835,-741.94,844.85,-1581.60
9380,-3.8655,0.3848,-1.5157,1976.81,1313.35,246.89
9390,-3.8661,0.3793,-1.5463,1258.06,1985.11,-1456.12
9400,-3.8663,0.4141,-1.5964,554.93,-1921.14,-1768.68
9410,-3.8667,0.4624,-1.6295,1008.06,-342.96,-1034.42
9420,-3.8672,0.5026,-1.6337,-804.44,-577.27,1621.77
9430,-3.8678,0.5245,-1.6047,336.18,-1108.40,1496.77
9440,-3.8684,0.5184,-1.5564,-851.32,-1405.27,-1753.17
9450,-3.8689,0.4792,-1.5006,-1632.57,782.23,1543.82
9460,-3.8694,0.4171,-1.4285,1351.81,-77.21,-1565.49
9470,-3.8699,0.3442,-1.3230,1398.68,1157.04,-1440.31
9480,-3.8705,0.2743,-1.1768,70.56,-1343.08,-674.50
9490,-3.8711,0.2200,-1.0317,-882.57,1375.49,1841.43
9500,-3.8717,0.1742,-0.9308,164.31,-62.07,-173.95
9510,-3.8719,0.1049,-0.8601,-1695.07,859.68,1248.17
9520,-3.8722,-0.0057,-0.7864,1429.93,1906.43,-345.46
9530,-3.8723,-0.1263,-0.7003,-726.32,-640.69,1889.04
9540,-3.8726,-0.2155,-0.6143,-163.82,-1625.31,-1673.28
9550,-3.8728,-0.2627,-0.5421,429.93,1390.20,1905.03
9560,-3.8730,-0.2828,-0.4838,-1616.94,-1375.55,-1563.60
9570,-3.8732,-0.2931,-0.4248,-195.07,-1906.86,717.77
9580,-3.8734,-0.2954,-0.3539,-1507.57,1640.01,-469.60
9590,-3.8735,-0.2878,-0.2904,-1804.44,-1281.86,-1047.61
9600,-3.8737,-0.2742,-0.2594,-835.69,-1156.86,-281.86
9610,-3.8737,-0.2579,-0.2534,914.31,-1188.05,-1469.30
9620,-3.8737,-0.2494,-0.2474,-1007.57,-422.42,-719.30
9630,-3.8735,-0.2549,-0.2190,86.18,343.26,30.76
9640,-3.8737,-0.2753,-0.1715,-616.94,-16.17,-1297.36
9650,-3.8738,-0.3119,-0.1360,773.68,-1938.05,-937.87
9660,-3.8739,-0.3519,-0.1324,86.18,-1391.24,-672.18
9670,-3.8739,-0.3767,-0.1470,-1038.82,-938.23,640.32
9680,-3.8740,-0.3834,-0.1667,-210.69,1202.33,-1875.31
9690,-3.8741,-0.3789,-0.1953,-1070.07,-1328.92,-78.49
9700,-3.8741,-0.3698,-0.2263,-491.94,-985.17,-797.30
9710,-3.8741,-0.3575,-0.2408,679.93,-953.86,-797.36
9720,-3.8741,-0.3463,-0.2222,-1757.57,1186.77,1265.14
9730,-3.8744,-0.3441,-0.1715,-320.07,-422.61,-812.99
9740,-3.8746,-0.3464,-0.0975,-38.82,-1938.23,405.88
9750,-3.8439,-0.3317,-0.0232,-335.69,-469.48,-906.49
9760,-3.8442,-0.2910,0.0217,1554.93,1046.20,-796.94
9770,-3.8445,-0.2465,0.0283,-1241.94,-1203.74,-234.38
9780,-3.8445,-0.2222,0.0101,461.18,-359.86,953.12
9790,-3.8445,-0.2170,-0.0148,-429.44,1312.01,1031.25
9800,-3.8445,-0.2072,-0.0354,226.81,-1875.43,1515.56
9810,-3.8446,-0.1733,-0.0430,1492.43,-516.05,-31.37
9820,-3.8447,-0.1277,-0.0175,1820.56,-1484.74,-640.75
9830,-3.8450,-0.0986,0.0396,-335.69,1780.94,-296.94
9840,-3.8452,-0.0945,0.0776,-616.94,1077.88,1875.06
9850,-3.8455,-0.0995,0.0646,-85.69,1952.88,1718.87
9860,-3.8456,-0.0988,0.0165,-726.32,281.01,-484.25
9870,-3.8455,-0.0923,-0.0360,-632.57,-1875.24,1687.50
9880,-3.8455,-0.0791,-0.0852,195.56,-593.93,-312.62
9890,-3.8455,-0.0436,-0.1505,1883.06,1109.19,-62.68
9900,-3.8453,0.0277,-0.2375,-1570.07,749.88,718.44
9910,-3.8452,0.1265,-0.3300,-445.07,1593.75,421.39
9920,-3.8451,0.2386,-0.4265,195.56,1765.87,-422.55
9930,-3.8447,0.3458,-0.5299,-1445.07,1406.68,-1375.85
9940,-3.8444,0.4166,-0.6069,273.68,172.55,-219.79
9950,-3.8440,0.4424,-0.6365,1336.18,-1686.71,1076.90
9960,-3.8440,0.4443,-0.6520,633.06,-1467.90,-813.78
9970,-3.8440,0.4490,-0.7058,883.06,547.73,-1610.66
9980,-3.8439,0.4807,-0.8263,1476.81,1657.10,701.72
9990,-3.8749,0.5535,-0.9698,1539.31,-1764.71,404.60
10000,-3.8745,0.6742,-1.0708,-1148.19,-139.59,1451.17
10010,-3.8740,0.8430,-1.1173,-1695.07,-1061.22,904.11
10020,-3.8738,1.0248,-1.1127,-85.69,985.96,-1299.07
10030,-3.8739,1.1677,-1.0618,-820.07,1580.08,-283.45
10040,-3.8743,1.2416,-1.0143,1476.81,96.01,1654.17
10050,-3.8748,1.2629,-1.0459,-1070.07,-1825.74,1560.49
10060,-3.8750,1.2784,-1.1467,1664.31,-1872.56,-548.95
10070,-3.8748,1.2900,-1.2191,-351.32,1221.19,-611.63
10080,-3.8744,1.2959,-1.2205,1133.06,-44.37,-752.44
10090,-3.8741,1.3358,-1.1809,1883.06,-216.25,-299.32
