timestamp_ms,ax,ay,az,gx,gy,gz
0,-3.8656,0.8004,-1.8191,-1929.44,-1326.72,-597.29
10,-3.8662,0.8375,-1.8383,-1538.82,-842.22,-1737.98
20,-3.8669,0.8168,-1.8431,-788.82,704.71,949.52
30,-3.8678,0.7388,-1.8333,554.93,79.71,1996.40
40,-3.8687,0.6095,-1.8138,-1429.44,1345.15,-1097.35
50,-3.8694,0.4449,-1.7930,-1976.32,-170.72,-1675.48
60,-3.8700,0.2711,-1.7737,961.18,-1499.15,-1097.29
70,-3.8704,0.1088,-1.7502,-1288.82,969.24,1777.77
80,-3.8706,-0.0391,-1.7163,1929.93,-31.07,-1972.23
90,-3.8707,-0.1727,-1.6713,-991.94,328.00,887.27
100,-3.8710,-0.2854,-1.6191,1898.68,-1906.62,-175.17
110,-3.8711,-0.3726,-1.5594,-523.19,765.01,-1596.92
120,-3.8712,-0.4402,-1.4871,320.56,405.52,200.07
130,-3.8716,-0.5027,-1.3987,-335.69,1670.96,-268.55
140,-3.8718,-0.5652,-1.2957,-335.69,983.34,825.38
150,-3.8722,-0.6149,-1.1831,-335.69,-1829.28,1169.31
160,-3.8726,-0.6381,-1.0726,1304.93,576.90,-1502.32
170,-3.8728,-0.6367,-0.9729,-1663.82,-1282.53,1560.36
180,-3.8730,-0.6219,-0.8800,-1491.94,-516.91,1654.30
190,-3.8733,-0.6039,-0.7938,398.68,-626.22,1248.23
200,-3.8735,-0.5879,-0.7197,-1288.82,-1594.97,435.91
210,-3.8739,-0.5731,-0.6552,758.06,-110.53,-17.09
220,-3.8741,-0.5565,-0.5903,-1351.32,155.09,-1345.03
230,-3.8745,-0.5310,-0.5200,773.68,452.03,-1016.78
240,-3.8749,-0.4896,-0.4496,39.31,1452.09,1530.21
250,-3.8441,-0.4326,-0.3864,1336.18,-1532.23,-94.67
260,-3.8444,-0.3676,-0.3347,633.06,-1438.35,92.96
270,-3.8447,-0.3053,-0.2954,961.18,1171.14,-531.92
280,-3.8448,-0.2521,-0.2686,929.93,-1797.49,1890.01
290,-3.8450,-0.2087,-0.2502,-257.57,1640.08,-1219.30
300,-3.8450,-0.1771,-0.2314,1289.31,-16.05,1952.58
310,-3.8450,-0.1580,-0.2048,1336.18,-1609.74,-1547.36
320,-3.8450,-0.1490,-0.1669,-210.69,1796.51,-1969.18
330,-3.8451,-0.1500,-0.1199,929.93,-1344.06,-1047.24
340,-3.8452,-0.1573,-0.0725,804.93,671.57,1327.88
350,-3.8455,-0.1654,-0.0359,-132.57,-1265.99,-1406.43
360,-3.8456,-0.1740,-0.0178,-1163.82,-578.49,671.75
370,-3.8457,-0.1863,-0.0194,1742.43,1734.01,874.94
380,-3.8457,-0.1984,-0.0435,164.31,1530.88,78.06
390,-3.8457,-0.1975,-0.0826,-1382.57,-1547.30,-1468.87
400,-3.8456,-0.1774,-0.1113,-1273.19,1437.07,-1672.06
410,-3.8455,-0.1466,-0.1260,1304.93,1765.26,171.63
420,-3.8456,-0.1074,-0.1577,1242.43,-109.68,-1765.93
430,-3.8457,-0.0459,-0.2135,-1741.94,-172.12,-1531.62
440,-3.8458,0.0289,-0.2747,-1866.94,687.38,-125.43
450,-3.8458,0.0880,-0.3627,-288.82,843.75,1921.33
460,-3.8458,0.1450,-0.5153,-726.32,1578.25,858.64
470,-3.8457,0.2505,-0.7280,-1429.44,-1952.88,-1532.29
480,-3.8452,0.4398,-0.9602,70.56,-1187.01,1982.91
490,-3.8446,0.7174,-1.1597,304.93,1094.60,1654.36
500,-3.8441,1.0514,-1.2797,-163.82,-436.16,-1892.94
510,-3.8750,1.3811,-1.3319,-1413.82,205.14,1075.62
520,-3.8749,1.6534,-1.3743,789.31,1518.31,-1783.87
530,-3.8749,1.8433,-1.4336,-351.32,96.92,-1018.31
540,-3.8749,1.9824,-1.4845,-54.44,503.54,-440.31
550,-3.8748,2.1399,-1.4869,1758.06,1988.22,1731.45
560,-3.8746,2.3595,-1.4423,1914.31,1676.03,981.45
570,-3.8745,2.6379,-1.3706,-1976.32,-604.80,1622.13
580,-3.8744,2.9288,-1.2842,1664.31,567.63,-440.19
590,-3.8741,3.1775,-1.1915,-1101.32,-369.32,1825.56
600,-3.8740,3.3422,-1.0940,-1273.19,-509.46,-18.01
610,-3.8738,3.4072,-1.0035,-195.07,-24.78,1747.80
620,-3.8735,3.3838,-0.9529,133.06,-446.47,732.36
630,-3.8732,3.2747,-0.9591,1133.06,-1962.16,-1330.02
640,-3.8723,3.0819,-1.0212,-835.69,1240.72,-1205.02
650,-3.8708,2.8176,-1.1431,-1507.57,1287.23,544.86
660,-3.8690,2.4940,-1.3046,664.31,1692.99,1435.24
670,-3.8669,2.1185,-1.4436,-757.57,1020.45,825.56
680,-3.8651,1.6964,-1.5088,-820.07,-777.16,-784.12
690,-3.8636,1.2754,-1.5021,1148.68,-1121.70,1872.01
700,-3.8629,0.9518,-1.4617,-741.94,-263.18,-1127.99
710,-3.8627,0.8007,-1.4149,1836.18,908.08,497.13
720,-3.8629,0.8018,-1.3630,-1507.57,-1107.85,1950.32
730,-3.8633,0.8739,-1.3271,-1366.94,1532.78,1731.69
740,-3.8638,0.9592,-1.3314,-132.57,-1873.35,934.88
750,-3.8645,1.0271,-1.3658,-1210.69,1579.96,-1158.87
760,-3.8652,1.0505,-1.4177,-523.19,1173.83,-1330.81
770,-3.8658,1.0116,-1.4827,-1523.19,-1466.74,1028.44
780,-3.8665,0.9106,-1.5431,1492.43,-1779.30,1934.57
790,-3.8671,0.7632,-1.5740,570.56,-1513.85,-1596.80
800,-3.8677,0.6003,-1.5602,1695.56,-1467.29,1090.64
810,-3.8684,0.4631,-1.5032,851.81,298.03,-1409.30
820,-3.8690,0.3776,-1.4249,-710.69,-405.40,356.38
830,-3.8698,0.3270,-1.3574,336.18,1610.11,-393.43
840,-3.8702,0.2673,-1.3118,1867.43,-1749.39,1169.19
850,-3.8707,0.1721,-1.2706,-1773.19,94.24,1700.56
860,-3.8711,0.0460,-1.2120,-1960.69,1359.68,700.62
870,-3.8715,-0.0879,-1.1260,1898.68,859.44,778.87
880,-3.8718,-0.2008,-1.0168,758.06,-109.56,1497.74
890,-3.8721,-0.2766,-0.9027,-1695.07,1858.95,294.86
900,-3.8723,-0.3207,-0.8008,601.81,468.20,-1814.27
910,-3.8724,-0.3444,-0.7144,-1038.82,1514.95,1810.91
920,-3.8726,-0.3580,-0.6361,-70.07,577.39,811.10
930,-3.8728,-0.3711,-0.5614,-1820.07,-1406.98,1467.47
940,-3.8732,-0.3914,-0.4888,508.06,155.52,-172.97
950,-3.8734,-0.4215,-0.4175,1914.31,1452.33,545.90
960,-3.8738,-0.4536,-0.3503,-1945.07,-1422.73,374.15
970,-3.8741,-0.4834,-0.2916,1945.56,-829.04,327.39
980,-3.8745,-0.5092,-0.2422,-1866.94,-1313.48,1296.26
990,-3.8749,-0.5266,-0.2029,-1163.82,1014.59,-234.86
1000,-3.8439,-0.5338,-0.1790,601.81,-1954.16,-641.05
1010,-3.8440,-0.5295,-0.1735,-320.07,1108.28,296.51
1020,-3.8442,-0.5135,-0.1788,226.81,1811.46,-797.24
1030,-3.8442,-0.4894,-0.1816,-1726.32,1123.96,218.38
1040,-3.8444,-0.4653,-0.1699,1367.43,764.65,-1312.87
1050,-3.8444,-0.4436,-0.1366,445.56,-1735.29,140.26
1060,-3.8446,-0.4218,-0.0925,-773.19,-1469.67,-781.56
1070,-3.8447,-0.4023,-0.0554,-1976.32,171.02,1140.44
1080,-3.8450,-0.3900,-0.0321,508.06,921.08,-531.37
1090,-3.8451,-0.3853,-0.0239,-1913.82,-94.54,-375.12
1100,-3.8451,-0.3844,-0.0254,-1304.44,952.33,-1453.19
1110,-3.8451,-0.3811,-0.0272,-1195.07,764.83,-796.94
1120,-3.8451,-0.3708,-0.0247,-773.19,530.46,-515.69
1130,-3.8451,-0.3545,-0.0208,539.31,858.64,1906.19
1140,-3.8452,-0.3364,-0.0269,-1366.94,1358.64,-1875.06
1150,-3.8453,-0.3235,-0.0635,945.56,577.45,1640.56
1160,-3.8455,-0.3136,-0.1438,-1398.19,-110.05,-562.68
1170,-3.8453,-0.2897,-0.2446,-132.57,1608.70,1734.07
1180,-3.8452,-0.2399,-0.3292,-1070.07,702.51,-953.61
1190,-3.8451,-0.1594,-0.3810,1304.93,1874.51,-156.92
1200,-3.8450,-0.0447,-0.4033,-398.19,-750.37,1905.46
1210,-3.8450,0.0975,-0.4250,-1710.69,390.50,1186.71
1220,-3.8451,0.2515,-0.4886,492.43,1593.93,-360.23
1230,-3.8450,0.3903,-0.6169,195.56,1453.61,1499.02
1240,-3.8447,0.4797,-0.8026,1961.18,1031.98,-1766.85
1250,-3.8442,0.5232,-1.0319,1414.31,1266.54,1670.29
1260,-3.8749,0.5970,-1.2710,-1023.19,-77.15,-1673.95
1270,-3.8741,0.7743,-1.4565,429.93,1313.66,856.87
1280,-3.8737,1.0569,-1.5485,-882.57,1563.96,-1612.24
1290,-3.8733,1.3783,-1.5687,-710.69,1798.89,403.20
1300,-3.8732,1.6350,-1.5593,429.93,-794.19,-1612.49
1310,-3.8730,1.7721,-1.5325,1289.31,409.42,-1846.80
1320,-3.8730,1.8307,-1.4858,-1163.82,-152.83,-346.80
1330,-3.8729,1.8893,-1.4236,-1663.82,1816.04,918.95
1340,-3.8728,1.9855,-1.3329,1836.18,1784.91,372.19
1350,-3.8727,2.1157,-1.2039,-1851.32,1394.47,-1112.00
1360,-3.8723,2.2590,-1.0753,-1179.44,1910.34,1450.74
1370,-3.8719,2.3760,-0.9828,1164.31,-1636.23,-1517.76
1380,-3.8717,2.4344,-0.9052,133.06,-1792.24,-80.08
1390,-3.8716,2.4447,-0.8186,-382.57,145.32,873.23
1400,-3.8718,2.4510,-0.7341,929.93,-776.49,-798.52
1410,-3.8719,2.4871,-0.6682,1742.43,-1963.99,1014.16
1420,-3.8719,2.5411,-0.6530,-1648.19,-1526.43,-938.84
1430,-3.8713,2.5864,-0.7129,1273.68,426.82,483.09
1440,-3.8705,2.6234,-0.8191,-929.44,755.00,1420.47
1450,-3.8696,2.6458,-0.9413,-195.07,-838.68,-236.02
1460,-3.8687,2.6226,-1.0820,-1335.69,-479.25,560.61
1470,-3.8678,2.5446,-1.2184,-304.44,1505.07,435.36
1480,-3.8672,2.4250,-1.3112,1711.18,51.82,-1377.38
1490,-3.8668,2.2622,-1.3672,-1585.69,176.57,-1877.56
1500,-3.8667,2.0421,-1.4258,1570.56,1004.39,966.06
1510,-3.8667,1.7719,-1.4990,1398.68,1503.97,1715.94
1520,-3.8666,1.4736,-1.5710,-1195.07,128.42,-1971.68
1530,-3.8663,1.1732,-1.6403,633.06,-1090.88,-299.99
1540,-3.8660,0.9088,-1.6979,-1820.07,-1950.87,-425.11
1550,-3.8657,0.7351,-1.7225,336.18,-1326.35,-440.86
1560,-3.8657,0.6871,-1.7159,-1898.19,-482.97,-253.42
1570,-3.8660,0.7273,-1.6996,-38.82,360.66,-18.98
1580,-3.8663,0.7717,-1.6830,1101.81,-1545.47,1731.02
1590,-3.8669,0.7651,-1.6653,-1210.69,579.59,-1581.42
1600,-3.8676,0.7008,-1.6501,1945.56,-1154.79,496.70
1610,-3.8682,0.5863,-1.6405,1711.18,782.59,74.89
1620,-3.8687,0.4303,-1.6255,-945.07,-1983.28,43.64
1630,-3.8690,0.2517,-1.5854,-913.82,-61.71,356.14
1640,-3.8694,0.0781,-1.5107,226.81,1062.99,-1018.74
1650,-3.8696,-0.0771,-1.4124,-1991.94,-1374.88,1668.88
1660,-3.8700,-0.2233,-1.3054,-1866.94,-765.81,-1424.68
1670,-3.8704,-0.3605,-1.1915,-570.07,921.39,1403.69
1680,-3.8708,-0.4773,-1.0718,1867.43,-500.73,-158.63
1690,-3.8712,-0.5719,-0.9614,-1085.69,-1172.85,-64.64
1700,-3.8715,-0.6459,-0.8687,-1195.07,951.97,-1080.02
1710,-3.8716,-0.7026,-0.7883,1336.18,826.84,279.54
1720,-3.8718,-0.7473,-0.7166,-1929.44,-892.03,-1798.46
1730,-3.8721,-0.7743,-0.6482,351.81,295.41,-938.90
1740,-3.8723,-0.7725,-0.5825,898.68,1045.35,-1516.91
1750,-3.8726,-0.7377,-0.5233,1133.06,1451.60,1155.09
1760,-3.8729,-0.6804,-0.4689,1586.18,1029.79,-235.41
1770,-3.8732,-0.6196,-0.4189,914.31,-1.34,-1469.73
1780,-3.8734,-0.5641,-0.3744,695.56,-1610.60,952.27
1790,-3.8738,-0.5074,-0.3326,-195.07,92.59,-1047.61
1800,-3.8740,-0.4525,-0.2930,-945.07,1436.46,1218.08
1810,-3.8743,-0.4164,-0.2606,-1913.82,-1485.29,780.64
1820,-3.8745,-0.4093,-0.2430,-1288.82,-1344.60,-1484.92
1830,-3.8746,-0.4241,-0.2349,-382.57,905.40,-1953.61
1840,-3.8748,-0.4460,-0.2186,1726.81,1952.27,1530.76
1850,-3.8750,-0.4624,-0.1862,-1085.69,30.33,-1469.18
1860,-3.8440,-0.4642,-0.1488,820.56,186.58,624.63
1870,-3.8444,-0.4501,-0.1156,586.18,967.83,1562.19
1880,-3.8447,-0.4222,-0.0870,-1601.32,1217.83,-1562.74
1890,-3.8451,-0.3812,-0.0679,1961.18,874.15,-109.56
1900,-3.8453,-0.3325,-0.0623,-788.82,-672.67,-1156.43
1910,-3.8456,-0.2880,-0.0712,1445.56,46.20,-0.12
1920,-3.8457,-0.2543,-0.1000,-851.32,-1094.36,-234.56
1930,-3.8457,-0.2242,-0.1453,-538.82,-781.80,-672.12
1940,-3.8456,-0.1880,-0.1910,-695.07,1421.39,-1078.43
1950,-3.8453,-0.1471,-0.2190,-54.44,-437.93,249.57
1960,-3.8453,-0.1129,-0.2184,1179.93,-15.93,-672.36
1970,-3.8453,-0.0927,-0.2024,1554.93,62.26,155.82
1980,-3.8457,-0.0819,-0.2057,148.68,-1890.81,-1109.80
1990,-3.8461,-0.0667,-0.2552,1523.68,1687.32,-750.43
2000,-3.8463,-0.0299,-0.3459,-523.19,-656.43,1202.58
2010,-3.8466,0.0410,-0.4604,179.93,-265.69,-406.98
2020,-3.8466,0.1682,-0.5883,1258.06,1062.56,-0.92
2030,-3.8463,0.3682,-0.7178,1539.31,703.43,-438.66
2040,-3.8458,0.6147,-0.8268,-866.94,125.67,279.85
2050,-3.8456,0.8667,-0.8934,-1304.44,-1826.97,-892.27
2060,-3.8455,1.0973,-0.9365,-1054.44,1642.27,1841.98
2070,-3.8456,1.2833,-1.0016,461.18,127.14,154.42
2080,-3.8459,1.4177,-1.1067,273.68,-200.62,-1127.01
2090,-3.8462,1.5382,-1.2209,1476.81,-1653.50,-486.57
2100,-3.8462,1.7186,-1.3101,898.68,-278.26,-1549.32
2110,-3.8459,1.9928,-1.3488,-7.57,315.80,-1674.44
2120,-3.8455,2.3098,-1.3152,-913.82,-636.78,1919.19
2130,-3.8448,2.5891,-1.2385,-335.69,-339.29,1216.13
2140,-3.8442,2.7700,-1.1700,-585.69,1473.75,-1533.69
2150,-3.8746,2.8303,-1.1205,-1429.44,-1760.25,169.56
2160,-3.8738,2.7994,-1.0884,-1710.69,583.62,-1955.32
2170,-3.8729,2.7297,-1.0911,-1663.82,692.93,-345.89
2180,-3.8721,2.6573,-1.1283,1414.31,349.06,-142.76
2190,-3.8711,2.5895,-1.1776,148.68,-416.69,1966.49
2200,-3.8700,2.5190,-1.2350,-538.82,1270.63,-1346.07
2210,-3.8685,2.4449,-1.3094,-1554.44,1926.76,325.68
2220,-3.8671,2.3702,-1.3938,961.18,395.39,-1221.31
2230,-3.8657,2.3010,-1.4612,-601.32,1598.33,-268.37
2240,-3.8649,2.2465,-1.4718,-1460.69,973.21,-65.37
2250,-3.8646,2.2046,-1.4241,-445.07,-386.29,-1471.68
2260,-3.8649,2.1561,-1.3722,-1804.44,1723.02,-1830.93
2270,-3.8652,2.0771,-1.3613,-7.57,363.53,-1502.69
2280,-3.8655,1.9482,-1.3931,1883.06,1754.03,-830.81
2290,-3.8655,1.7649,-1.4583,1383.06,1691.28,-127.75
2300,-3.8651,1.5325,-1.5470,1914.31,1347.17,-1940.37
2310,-3.8646,1.2605,-1.6339,164.31,1987.37,-1581.18
2320,-3.8641,0.9768,-1.6952,1351.81,-1138.18,1246.77
2330,-3.8640,0.7213,-1.7097,1039.31,-982.48,-1300.23
2340,-3.8643,0.5189,-1.6647,336.18,1157.65,-940.86
2350,-3.8649,0.3733,-1.5667,-1570.07,-1077.15,-987.67
2360,-3.8657,0.2828,-1.4352,-210.69,-530.58,1809.39
2370,-3.8668,0.2352,-1.3046,211.18,297.42,-127.81
2380,-3.8678,0.2017,-1.1938,-1882.57,1016.05,981.81
2390,-3.8688,0.1550,-1.0931,1820.56,-812.13,481.99
2400,-3.8696,0.0864,-1.0012,-148.19,78.37,1591.61
2410,-3.8702,0.0051,-0.9257,-929.44,-156.13,1529.24
2420,-3.8707,-0.0690,-0.8549,664.31,1515.62,-1095.58
2430,-3.8711,-0.1205,-0.7769,-820.07,-1406.43,-1032.96
2440,-3.8715,-0.1580,-0.6932,586.18,577.88,-923.40
2450,-3.8718,-0.2072,-0.6073,-210.69,-719.12,-1392.03
2460,-3.8722,-0.2797,-0.5293,1492.43,-1719.18,-688.72
2470,-3.8724,-0.3555,-0.4690,211.18,265.08,-938.54
2480,-3.8726,-0.4047,-0.4213,-1491.94,-16.36,-1985.35
2490,-3.8727,-0.4165,-0.3839,211.18,-1907.04,-1563.35
2500,-3.8728,-0.3992,-0.3644,-1304.44,-1125.85,-907.04
2510,-3.8729,-0.3744,-0.3544,914.31,1374.21,-31.98
2520,-3.8730,-0.3650,-0.3325,86.18,-1344.48,-610.11
2530,-3.8733,-0.3796,-0.2964,1289.31,1452.39,-1156.92
2540,-3.8737,-0.4100,-0.2588,-585.69,-1922.67,-1500.61
2550,-3.8740,-0.4398,-0.2218,-476.32,-1110.23,905.70
2560,-3.8744,-0.4611,-0.1868,-288.82,-375.92,312.01
2570,-3.8748,-0.4814,-0.1671,992.43,108.46,687.13
2580,-3.8439,-0.5051,-0.1638,-1616.94,-1375.98,1327.76
2590,-3.8442,-0.5148,-0.1544,-648.19,-954.16,-1000.37
2600,-3.8445,-0.4915,-0.1320,-1882.57,248.96,-1812.81
2610,-3.8447,-0.4369,-0.1223,1101.81,-875.98,-1015.93
2620,-3.8448,-0.3634,-0.1509,86.18,358.52,-218.99
2630,-3.8446,-0.2869,-0.2098,1492.43,702.39,155.94
2640,-3.8442,-0.1353,-0.2198,-1804.44,-969.12,-1063.05
2650,-3.8444,-0.1162,-0.1820,-1304.44,-125.31,108.89
2660,-3.8447,-0.1107,-0.1583,1133.06,718.51,-500.37
2670,-3.8450,-0.1021,-0.1493,1836.18,-250.24,-609.74
2680,-3.8451,-0.0669,-0.1602,-1054.44,906.01,359.07
2690,-3.8453,-0.0012,-0.1976,-554.44,-484.56,-828.49
2700,-3.8453,0.0829,-0.2533,-148.19,-1281.31,765.20
2710,-3.8453,0.1718,-0.3032,-1382.57,-421.75,921.33
2720,-3.8453,0.2432,-0.3358,1992.43,1187.81,-1688.11
2730,-3.8453,0.2710,-0.3486,-866.94,1016.05,-594.42
2740,-3.8453,0.2516,-0.3503,-1304.44,-624.51,-1219.48
2750,-3.8455,0.2179,-0.3672,211.18,-843.26,-735.11
2760,-3.8456,0.2125,-0.4131,-101.32,1000.37,1671.14
2770,-3.8457,0.2529,-0.4679,-788.82,-874.63,311.65
2780,-3.8458,0.3226,-0.5190,383.06,109.86,295.96
2790,-3.8459,0.4030,-0.5828,1304.93,1563.11,1983.34
2800,-3.8459,0.5045,-0.6437,-413.82,1406.98,-766.78
2810,-3.8457,0.6245,-0.6755,586.18,1610.35,-1907.53
2820,-3.8453,0.7275,-0.6962,-54.44,1532.41,1498.66
2830,-3.8450,0.8052,-0.7433,1133.06,-1107.97,1982.97
2840,-3.8446,0.9005,-0.8395,-929.44,860.90,404.79
2850,-3.8445,1.0629,-0.9758,-726.32,548.58,-532.90
2860,-3.8442,1.2946,-1.1243,54.93,-904.17,873.05
2870,-3.8441,1.5641,-1.2389,1711.18,96.25,-502.20
2880,-3.8750,1.8448,-1.2831,211.18,1424.93,1263.18
2890,-3.8746,2.1130,-1.2925,148.68,-230.77,-1955.69
2900,-3.8741,2.3431,-1.3319,-1523.19,-1433.41,1528.69
2910,-3.8735,2.5140,-1.4177,-70.07,1520.14,1684.88
2920,-3.8728,2.6351,-1.5098,1804.93,-1463.87,-1627.81
2930,-3.8721,2.7588,-1.5408,1304.93,-1244.87,-1143.62
2940,-3.8715,2.9042,-1.4784,1133.06,-1213.38,-1487.43
2950,-3.8710,3.0312,-1.3466,-257.57,-1228.76,1137.70
2960,-3.8706,3.1044,-1.2091,8.06,-353.45,1278.56
2970,-3.8702,3.1226,-1.1340,1367.43,1240.42,1669.49
2980,-3.8698,3.1053,-1.1334,-304.44,-1150.21,653.99
2990,-3.8691,3.0712,-1.1647,1492.43,-1072.08,544.62
3000,-3.8684,3.0132,-1.2087,1117.43,-1072.14,-674.19
3010,-3.8673,2.8967,-1.2792,1695.56,1287.11,-1955.51
3020,-3.8661,2.6945,-1.3519,-1210.69,271.24,-1393.13
3030,-3.8649,2.4124,-1.3960,898.68,-1041.63,512.94
3040,-3.8643,2.0880,-1.4167,789.31,1317.20,-127.75
3050,-3.8641,1.7662,-1.4324,-726.32,-1339.72,-299.68
3060,-3.8644,1.4816,-1.4529,-1913.82,659.67,1856.57
3070,-3.8649,1.2551,-1.4728,1648.68,-1965.88,-455.99
3080,-3.8652,1.1061,-1.4830,664.31,-513.18,856.45
3090,-3.8657,1.0330,-1.4768,1586.18,-1825.99,278.32
3100,-3.8665,1.0076,-1.4635,226.81,-1029.24,-768.55
3110,-3.8672,1.0104,-1.4695,976.81,673.83,-1830.99
3120,-3.8679,1.0355,-1.4913,1336.18,-91.80,1825.20
3130,-3.8685,1.0576,-1.4941,554.93,1111.39,1512.70
3140,-3.8691,1.0363,-1.4581,-616.94,752.01,-1612.30
3150,-3.8698,0.9556,-1.3955,648.68,1361.39,1372.13
3160,-3.8705,0.8307,-1.3293,-1679.44,1376.83,-518.37
3170,-3.8711,0.6851,-1.2723,-1663.82,1845.34,-940.12
3180,-3.8716,0.5320,-1.2222,-304.44,1141.91,-1955.63
3190,-3.8719,0.3716,-1.1683,101.81,-436.46,1185.06
3200,-3.8723,0.2042,-1.1003,-429.44,-1546.20,-96.07
3210,-3.8724,0.0408,-1.0156,-1851.32,-843.38,1247.80
3220,-3.8726,-0.1023,-0.9202,1226.81,-1999.94,919.86
3230,-3.8727,-0.2130,-0.8251,-1085.69,-1765.87,-954.96
3240,-3.8727,-0.2949,-0.7467,742.43,-1594.18,-1423.52
3250,-3.8727,-0.3538,-0.6969,-1741.94,436.89,-1501.46
3260,-3.8727,-0.3914,-0.6595,-1273.19,-1188.23,-1392.03
3270,-3.8727,-0.4078,-0.6018,1914.31,-407.04,1108.03
3280,-3.8728,-0.4070,-0.5236,-195.07,-1016.48,248.78
3290,-3.8730,-0.4023,-0.4463,-85.69,999.15,733.34
3300,-3.8733,-0.4032,-0.3801,508.06,-1110.17,311.58
3310,-3.8735,-0.4133,-0.3309,398.68,-641.42,61.71
3320,-3.8739,-0.4265,-0.2875,-898.19,1655.40,-141.30
3330,-3.8741,-0.4244,-0.2303,1414.31,-782.10,-1859.99
3340,-3.8745,-0.3998,-0.1667,1679.93,-1469.60,-1156.74
3350,-3.8748,-0.3571,-0.1171,836.18,-1328.92,124.63
3360,-3.8750,-0.3049,-0.0951,-1695.07,1030.52,202.88
3370,-3.8439,-0.2592,-0.1000,976.81,-156.86,796.63
3380,-3.8439,-0.2335,-0.1132,-1163.82,-781.80,1765.38
3390,-3.8439,-0.2330,-0.1138,-1882.57,1530.76,-297.12
3400,-3.8439,-0.2535,-0.1003,-1820.07,1452.64,-890.87
3410,-3.8439,-0.2826,-0.0829,-445.07,-828.67,202.88
3420,-3.8440,-0.3083,-0.0691,-163.82,1405.64,437.32
3430,-3.8441,-0.3250,-0.0564,539.31,-828.74,31.07
3440,-3.8444,-0.3331,-0.0398,-1585.69,796.20,-1562.62
3450,-3.8445,-0.3284,-0.0256,1367.43,-1078.80,15.50
3460,-3.8447,-0.3029,-0.0272,1976.81,733.70,-1671.94
3470,-3.8448,-0.2592,-0.0555,1242.43,530.64,-187.56
3480,-3.8447,-0.2009,-0.0981,-1163.82,905.70,1218.63
3490,-3.8446,-0.1241,-0.1196,-1710.69,-547.30,312.26
3500,-3.8446,-0.0349,-0.1095,117.43,702.88,-1531.49
3510,-3.8446,0.0443,-0.0940,-460.69,1999.88,-1656.49
3520,-3.8446,0.0975,-0.0953,1679.93,-31.19,1109.13
3530,-3.8446,0.1210,-0.1173,492.43,-202.94,62.26
3540,-3.8447,0.1199,-0.1561,-507.57,984.56,-437.74
3550,-3.8447,0.1138,-0.2043,-648.19,15.81,-437.81
3560,-3.8447,0.1310,-0.2649,-1429.44,1843.93,-844.18
3570,-3.8447,0.1837,-0.3589,773.68,-1906.01,-1375.55
3580,-3.8447,0.2812,-0.4868,-476.32,-1937.19,-141.36
3590,-3.8446,0.4336,-0.6069,8.06,1688.05,-47.85
3600,-3.8444,0.6177,-0.6865,-491.94,-1686.71,764.40
3610,-3.8444,0.7948,-0.7410,-929.44,126.16,-1610.72
3620,-3.8444,0.9590,-0.7941,1742.43,1157.78,623.54
3630,-3.8445,1.1239,-0.8406,-1241.94,-1638.79,-501.59
3640,-3.8444,1.3054,-0.8778,-132.57,408.39,1920.23
3650,-3.8442,1.5204,-0.9204,-898.19,-356.87,-1689.27
3660,-3.8441,1.7505,-0.9740,-1382.57,-1809.57,-1517.46
3670,-3.8440,1.9580,-1.0270,70.56,-668.46,1341.80
3680,-3.8440,2.1315,-1.0687,-1366.94,550.66,997.99
3690,-3.8441,2.2880,-1.0958,836.18,-792.72,638.49
3700,-3.8444,2.4434,-1.0972,867.43,-261.17,1779.05
3710,-3.8446,2.5914,-1.0575,758.06,-432.74,-939.70
3720,-3.8447,2.7148,-0.9867,-288.82,645.63,-48.95
3730,-3.8446,2.7994,-0.9324,-491.94,1708.37,-1080.08
3740,-3.8444,2.8511,-0.9270,-1663.82,661.68,-1564.33
3750,-3.8441,2.8867,-0.9387,945.56,1349.30,-1392.46
3760,-3.8439,2.9103,-0.9243,1508.06,-150.63,466.86
3770,-3.8439,2.9226,-0.8983,523.68,1693.18,-95.58
3780,-3.8750,2.9233,-0.9064,-1898.19,1021.30,-470.52
3790,-3.8746,2.8944,-0.9868,-1804.44,-9.95,-1767.46
3800,-3.8738,2.8073,-1.1652,-1507.57,1693.12,-1314.45
3810,-3.8721,2.6481,-1.4292,-663.82,-1135.19,653.93
3820,-3.8698,2.4058,-1.7008,-1038.82,1067.63,-346.56
3830,-3.8668,2.0746,-1.8547,-54.44,-1698.49,1152.89
3840,-3.8643,1.7146,-1.8112,1554.93,-1402.22,-1113.04
3850,-3.8627,1.4131,-1.6229,-523.19,175.17,-409.79
3860,-3.8622,1.2090,-1.4384,883.06,268.37,371.83
3870,-3.8625,1.0983,-1.3370,-1241.94,-107.06,544.01
3880,-3.8632,1.0571,-1.2937,586.18,861.51,-1580.75
3890,-3.8636,1.0503,-1.2903,-679.44,-1591.74,-611.94
3900,-3.8639,1.0430,-1.3250,-1554.44,-1154.24,122.44
3910,-3.8643,1.0037,-1.3771,1508.06,-1591.74,513.00
3920,-3.8647,0.9032,-1.4196,476.81,-263.67,1247.25
3930,-3.8667,0.2806,-1.4269,-1288.82,-577.15,325.26
3940,-3.8674,0.0454,-1.3907,-70.07,1359.86,419.07
3950,-3.8682,-0.1542,-1.3160,1820.56,1984.44,169.13
3960,-3.8690,-0.2915,-1.1962,273.68,-437.81,1200.50
3970,-3.8700,-0.3596,-1.0513,-1304.44,-1094.36,-393.01
3980,-3.8708,-0.3801,-0.9133,1976.81,1452.39,-1080.20
3990,-3.8716,-0.3802,-0.7977,-648.19,-891.42,-1470.58
4000,-3.8722,-0.3776,-0.6975,-663.82,1905.46,-673.46
4010,-3.8727,-0.3757,-0.6072,-320.07,-1266.42,-485.78
4020,-3.8730,-0.3749,-0.5309,-85.69,-1703.92,1389.40
4030,-3.8734,-0.3798,-0.4669,23.68,61.77,1389.59
4040,-3.8737,-0.3885,-0.4142,-601.32,249.21,467.83
4050,-3.8739,-0.3842,-0.3746,-1726.32,-1000.79,-1344.60
4060,-3.8740,-0.3512,-0.3412,-1163.82,61.71,-1266.36
4070,-3.8741,-0.2964,-0.3024,-945.07,343.02,-1563.17
4080,-3.8744,-0.2389,-0.2560,-1929.44,1311.89,-313.11
4090,-3.8746,-0.1959,-0.2133,1429.93,-750.49,-1750.55
4100,-3.8749,-0.1796,-0.1848,-1070.07,718.32,155.82
4110,-3.8440,-0.1918,-0.1689,1023.68,359.01,-297.24
4120,-3.8441,-0.2181,-0.1519,-538.82,-1609.80,1405.88
4130,-3.8444,-0.2457,-0.1252,86.18,577.70,-31.56
4140,-3.8445,-0.2698,-0.0968,554.93,-16.11,-1562.81
4150,-3.8446,-0.2803,-0.0803,1476.81,-375.55,-1468.99
4160,-3.8446,-0.2690,-0.0803,133.06,1733.83,1843.57
4170,-3.8446,-0.2450,-0.0851,1570.56,1733.83,-781.43
4180,-3.8445,-0.2194,-0.0908,648.68,1124.51,515.44
4190,-3.8445,-0.1962,-0.0997,-70.07,390.14,499.82
4200,-3.8446,-0.1803,-0.1030,-1101.32,-750.43,-625.24
4210,-3.8446,-0.1721,-0.0957,929.93,-1172.24,1671.63
4220,-3.8447,-0.1680,-0.0844,1976.81,-234.74,-484.62
4230,-3.8447,-0.1652,-0.0740,-1491.94,1218.38,734.19
4240,-3.8448,-0.1631,-0.0709,-1132.57,-1453.49,1062.32
4250,-3.8450,-0.1584,-0.0903,-866.94,-1062.87,1218.57
4260,-3.8451,-0.1455,-0.1451,-273.19,452.76,-297.06
4270,-3.8450,-0.1193,-0.2272,1383.06,1437.19,-1719.06
4280,-3.8448,-0.0729,-0.3212,742.43,-1062.74,-312.99
4290,-3.8446,-0.0029,-0.4210,-1320.07,-1093.93,-1875.67
4300,-3.8444,0.0857,-0.5100,-366.94,-1875.06,1389.77
4310,-3.8441,0.1854,-0.5673,-1023.19,-1281.13,1827.09
4320,-3.8439,0.2863,-0.6151,-257.57,-609.07,-1376.16
4330,-3.8749,0.3972,-0.7018,648.68,1266.17,1467.53
4340,-3.8748,0.5654,-0.8337,-1148.19,-1827.39,-1938.90
4350,-3.8746,0.8212,-0.9697,383.06,1282.35,-329.77
4360,-3.8744,1.1300,-1.0757,1117.43,-123.41,-814.45
4370,-3.8743,1.4321,-1.1498,648.68,-1685.30,-330.26
4380,-3.8743,1.6844,-1.1993,-679.44,830.87,-1705.38
4390,-3.8744,1.8643,-1.2328,-382.57,-1512.39,-518.01
4400,-3.8744,1.9904,-1.2504,-1366.94,-1793.27,-1064.94
4410,-3.8744,2.1173,-1.2225,-1226.32,-43.03,-1846.25
4420,-3.8745,2.2693,-1.1427,-976.32,-480.29,1106.93
4430,-3.8749,2.4276,-1.0568,-1523.19,1738.77,-455.38
4440,-3.8439,2.5745,-1.0140,-1257.57,739.07,1201.05
4450,-3.8441,2.7057,-1.0153,1539.31,-1791.87,-1127.01
4460,-3.8441,2.8109,-1.0167,-1663.82,-1947.88,-595.76
4470,-3.8439,2.8683,-0.9890,-195.07,1864.81,1560.49
4480,-3.8749,2.8727,-0.9518,-851.32,1411.80,-689.45
4490,-3.8744,2.8312,-0.9465,-288.82,-1822.57,1029.36
4500,-3.8739,2.7504,-0.9937,-1601.32,-1150.76,-455.02
4510,-3.8732,2.6411,-1.0829,54.93,817.87,-1767.58
4520,-3.8724,2.5187,-1.1931,-1929.44,1395.75,-736.51
4530,-3.8716,2.3925,-1.3141,-1601.32,-713.87,1060.12
4540,-3.8707,2.2708,-1.4355,-1757.57,-198.49,731.75
4550,-3.8698,2.1477,-1.5410,-1335.69,254.39,887.82
4560,-3.8687,2.0043,-1.6272,-1085.69,-1245.85,1090.70
4570,-3.8676,1.8392,-1.7029,554.93,-277.34,1387.39
4580,-3.8666,1.6687,-1.7739,-570.07,-1965.21,1543.52
4590,-3.8658,1.5077,-1.8328,1601.81,940.73,-1440.98
4600,-3.8652,1.3521,-1.8655,992.43,1409.18,43.27
4610,-3.8649,1.1887,-1.8646,1070.56,1221.37,683.84
4620,-3.8646,1.0114,-1.8381,164.31,1330.44,918.21
4630,-3.8646,0.8153,-1.8027,1461.18,720.70,-1128.60
4640,-3.8646,0.5939,-1.7720,367.43,1251.59,808.96
4650,-3.8647,0.3597,-1.7482,23.68,1188.66,-1534.73
4660,-3.8649,0.1332,-1.7203,-1945.07,235.05,-1206.54
4670,-3.8651,-0.0706,-1.6707,1054.93,-202.88,824.71
4680,-3.8657,-0.2396,-1.5859,-1023.19,-1828.31,1074.83
4690,-3.8666,-0.3767,-1.4744,1336.18,1015.14,1215.64
4700,-3.8676,-0.4789,-1.3531,-210.69,-703.92,-1409.18
4710,-3.8684,-0.5377,-1.2347,-1288.82,-1188.48,-1908.94
4720,-3.8691,-0.5532,-1.1274,-820.07,1967.65,1653.81
4730,-3.8698,-0.5258,-1.0319,1195.56,-297.97,607.12
4740,-3.8704,-0.4640,-0.9398,711.18,-63.54,1435.42
4750,-3.8710,-0.4019,-0.8473,617.43,-282.17,-845.64
4760,-3.8715,-0.3704,-0.7593,570.56,-438.29,-1845.46
4770,-3.8719,-0.3665,-0.6812,601.81,-1172.61,-876.53
4780,-3.8723,-0.3693,-0.6182,1101.81,827.39,-1001.34
4790,-3.8726,-0.3707,-0.5710,742.43,889.89,1936.28
4800,-3.8728,-0.3792,-0.5309,554.93,-1078.86,1498.84
4810,-3.8732,-0.3995,-0.4883,-523.19,61.71,-110.41
4820,-3.8734,-0.4258,-0.4453,867.43,1514.83,1311.52
4830,-3.8738,-0.4497,-0.4094,1508.06,-985.23,-1829.04
4840,-3.8741,-0.4596,-0.3727,-1554.44,-391.54,-1563.35
4850,-3.8745,-0.4447,-0.3276,1179.93,311.58,1874.27
4860,-3.8749,-0.4078,-0.2800,-913.82,-1922.79,1093.08
4870,-3.8440,-0.3545,-0.2424,-195.07,171.02,936.95
4880,-3.8444,-0.2877,-0.2253,-1366.94,983.64,-1578.61
4890,-3.8446,-0.2252,-0.2235,-820.07,-828.74,-1016.11
4900,-3.8447,-0.1918,-0.2249,-820.07,-594.24,-1609.86
4910,-3.8448,-0.1901,-0.2140,-538.82,-766.05,1718.26
4920,-3.8451,-0.2001,-0.1802,-320.07,624.57,-1094.18
4930,-3.8453,-0.2017,-0.1385,-1601.32,952.70,-844.12
4940,-3.8455,-0.1930,-0.1105,-1804.44,-1719.18,796.57
4950,-3.8456,-0.1870,-0.1016,-695.07,1874.57,140.38
4960,-3.8457,-0.1870,-0.1096,70.56,-984.74,1031.01
4970,-3.8457,-0.1787,-0.1288,70.56,1984.01,1015.38
4980,-3.8457,-0.1606,-0.1418,1133.06,-469.12,-203.43
4990,-3.8456,-0.1477,-0.1393,-554.44,1859.01,1077.82
5000,-3.8457,-0.1478,-0.1350,1101.81,-1812.81,-1828.43
5010,-3.8458,-0.1550,-0.1431,1086.18,-1265.93,1484.07
5020,-3.8459,-0.1667,-0.1681,164.31,1702.82,1749.69
5030,-3.8461,-0.1814,-0.2164,-1335.69,-1500.37,-1859.74
5040,-3.8462,-0.1744,-0.2887,789.31,312.13,1546.45
5050,-3.8463,-0.1180,-0.3823,1679.93,-937.87,-1938.11
5060,-3.8463,0.0062,-0.4962,898.68,-922.12,-735.17
5070,-3.8459,0.2046,-0.6157,804.93,484.38,499.02
5080,-3.8455,0.4307,-0.7211,-1804.44,1187.87,623.78
5090,-3.8450,0.6235,-0.8268,-866.94,-296.08,389.16
5100,-3.8447,0.7845,-0.9500,-179.44,-1826.97,-111.02
5110,-3.8444,0.9347,-1.0725,429.93,-1592.22,1498.11
5120,-3.8441,1.0709,-1.1907,-351.32,-1279.48,-767.76
5130,-3.8750,1.1904,-1.2891,1086.18,-404.17,91.37
5140,-3.8749,1.3007,-1.3293,383.06,-997.68,-877.56
5150,-3.8746,1.4094,-1.3242,-1507.57,1846.25,-1955.75
5160,-3.8744,1.5322,-1.3286,414.31,-1497.25,-565.12
5170,-3.8740,1.6890,-1.3761,133.06,1940.49,-205.75
5180,-3.8735,1.8818,-1.4525,195.56,-137.33,872.25
5190,-3.8732,2.0952,-1.5189,883.06,-1918.21,340.88
5200,-3.8729,2.3073,-1.5266,195.56,1582.21,1387.63
5210,-3.8728,2.4844,-1.4569,-663.82,598.21,-237.37
5220,-3.8726,2.6022,-1.3615,-1991.94,1520.45,90.88
5230,-3.8726,2.6744,-1.2971,1086.18,1739.44,-268.31
5240,-3.8724,2.7261,-1.2920,-1663.82,1973.94,-65.06
5250,-3.8721,2.7667,-1.3573,945.56,-1369.69,325.56
5260,-3.8716,2.7903,-1.4462,-1851.32,-1729.00,903.56
5270,-3.8708,2.7759,-1.4954,1164.31,-1103.94,747.13
5280,-3.8700,2.6991,-1.5299,-679.44,599.12,262.70
5290,-3.8691,2.5482,-1.6056,1492.43,177.12,-1956.12
5300,-3.8680,2.3276,-1.7323,-1820.07,-1510.68,465.58
5310,-3.8667,2.0520,-1.8967,1945.56,-1729.86,1246.58
5320,-3.8650,1.7526,-2.0460,-1335.69,1222.72,168.15
5330,-3.8635,1.4803,-2.1107,336.18,-1887.21,-738.40
5340,-3.8625,1.2686,-2.0859,1492.43,1830.99,1839.60
5350,-3.8623,1.0990,-2.0314,-1616.94,1002.44,89.66
5360,-3.8625,0.9269,-2.0070,679.93,-13.49,1542.85
5370,-3.8627,0.7328,-2.0261,-1351.32,-888.85,105.41
5380,-3.8628,0.5262,-2.0679,1804.93,657.65,-503.97
5390,-3.8628,0.3259,-2.1068,-632.57,-686.52,-1379.09
5400,-3.8630,0.1504,-2.1202,1726.81,-1671.26,-238.53
5410,-3.8634,0.0096,-2.1005,-741.94,609.62,823.97
5420,-3.8641,-0.0951,-2.0496,1242.43,-859.38,-1410.40
5430,-3.8650,-0.1716,-1.9734,-163.82,1671.63,-1910.28
5440,-3.8660,-0.2356,-1.8889,-1960.69,-578.49,1449.22
5450,-3.8669,-0.2971,-1.8070,1851.81,-1766.11,1043.15
5460,-3.8679,-0.3539,-1.7212,1976.81,718.14,-222.29
5470,-3.8687,-0.3986,-1.6310,-1288.82,-297.61,-1940.92
5480,-3.8693,-0.4276,-1.5416,992.43,-750.79,28.02
5490,-3.8699,-0.4448,-1.4502,1273.68,-1313.35,1340.70
5500,-3.8704,-0.4529,-1.3529,-929.44,-1610.29,934.63
5510,-3.8708,-0.4580,-1.2531,-1960.69,-1157.17,-1065.19
5520,-3.8712,-0.4686,-1.1589,1383.06,-375.92,-596.25
5530,-3.8715,-0.4834,-1.0709,23.68,-329.04,200.81
5540,-3.8719,-0.5026,-0.9822,-1866.94,-1063.48,-1189.64
5550,-3.8724,-0.5247,-0.8873,-320.07,-1704.16,-1455.08
5560,-3.8729,-0.5428,-0.7894,851.81,-1563.54,920.10
5570,-3.8734,-0.5531,-0.7021,-1476.32,-1032.35,123.41
5580,-3.8739,-0.5452,-0.6322,1211.18,-1860.47,842.35
5590,-3.8744,-0.5143,-0.5675,-1773.19,-907.35,1951.84
5600,-3.8749,-0.4690,-0.4935,-1820.07,-626.04,1420.72
5610,-3.8442,-0.4175,-0.4099,-23.19,842.77,-954.10
5620,-3.8447,-0.3599,-0.3273,-1429.44,-453.98,1217.90
5630,-3.8452,-0.3000,-0.2563,1945.56,-1875.73,-1469.42
5640,-3.8455,-0.2511,-0.2064,1601.81,-797.49,61.95
5650,-3.8457,-0.2145,-0.1823,-132.57,1593.20,1655.82
5660,-3.8458,-0.1871,-0.1847,554.93,687.07,-1250.37
5670,-3.8458,-0.1692,-0.2142,54.93,374.63,-734.74
5680,-3.8457,-0.1566,-0.2512,-1648.19,593.38,-375.43
5690,-3.8455,-0.1532,-0.2651,-38.82,-140.99,1921.33
5700,-3.8453,-0.1670,-0.2488,398.68,-1922.18,1405.70
5710,-3.8455,-0.1908,-0.2112,-1366.94,171.51,-406.74
5720,-3.8456,-0.2131,-0.1698,-413.82,983.95,-1359.80
5730,-3.8457,-0.2307,-0.1410,726.81,-1719.18,1827.76
5740,-3.8458,-0.2444,-0.1323,-1523.19,1968.26,-1750.31
5750,-3.8459,-0.2551,-0.1481,726.81,-922.36,-422.18
5760,-3.8459,-0.2589,-0.1929,-648.19,1061.95,-1859.68
5770,-3.8459,-0.2505,-0.2736,-1132.57,-672.42,-391.05
5780,-3.8457,-0.2175,-0.3787,-54.44,999.45,468.20
5790,-3.8456,-0.1521,-0.4728,164.31,-453.55,-688.29
5800,-3.8453,-0.0706,-0.5254,539.31,-500.31,1358.40
5810,-3.8453,0.0115,-0.5338,-1023.19,765.44,-94.79
5820,-3.8453,0.0950,-0.5288,1476.81,-328.12,-1110.47
5830,-3.8453,0.1758,-0.5546,164.31,312.68,280.21
5840,-3.8455,0.2480,-0.6371,-1491.94,1015.93,-782.35
5850,-3.8453,0.3303,-0.7800,-241.94,-1546.45,-1345.03
5860,-3.8451,0.4594,-0.9600,-1710.69,156.86,-1001.53
5870,-3.8447,0.6731,-1.1343,-1195.07,1125.85,1482.48
5880,-3.8444,0.9816,-1.2795,-1835.69,-1186.22,1216.49
5890,-3.8440,1.3494,-1.3806,1648.68,220.64,-190.00
5900,-3.8748,1.7258,-1.4185,726.81,-716.13,-1065.25
5910,-3.8744,2.0614,-1.4087,914.31,-1559.14,-1377.81
5920,-3.8741,2.3148,-1.3993,-132.57,-308.53,-252.81
5930,-3.8738,2.4817,-1.3992,304.93,895.14,1200.38
5940,-3.8737,2.5963,-1.3484,1664.31,911.07,-471.50
5950,-3.8738,2.6891,-1.1946,336.18,-588.68,-830.81
5960,-3.8743,2.7549,-0.9656,211.18,-901.00,-611.76
5970,-3.8748,2.7754,-0.7319,633.06,411.62,1294.98
5980,-3.8439,2.7507,-0.5668,-741.94,-1682.13,-345.21
5990,-3.8750,2.7158,-0.5276,101.81,-541.50,-1063.66
6000,-3.8746,2.7134,-0.6007,-366.94,474.00,-266.66
6010,-3.8741,2.7605,-0.7129,-679.44,-885.38,-1048.10
6020,-3.8737,2.8309,-0.8196,1351.81,755.37,1592.35
6030,-3.8732,2.8679,-0.9288,-1632.57,-900.76,1763.98
6040,-3.8726,2.8354,-1.0404,-898.19,1114.93,248.17
6050,-3.8719,2.7278,-1.1350,-1054.44,-1166.38,341.67
6060,-3.8713,2.5470,-1.2201,1164.31,-1275.94,-799.13
6070,-3.8705,2.3048,-1.3126,-1976.32,-166.93,-471.19
6080,-3.8694,2.0261,-1.3990,-976.32,-11.17,-971.37
6090,-3.8682,1.7428,-1.4578,-648.19,925.78,-409.00
6100,-3.8669,1.4989,-1.4916,-913.82,1409.61,1606.51
6110,-3.8662,1.3314,-1.5009,-132.57,1080.99,-518.55
6120,-3.8660,1.2349,-1.4666,-1570.07,-106.81,-221.74
6130,-3.8661,1.1737,-1.3999,-1929.44,283.63,497.13
6140,-3.8666,1.1183,-1.3461,-1757.57,814.76,1841.00
6150,-3.8669,1.0573,-1.3348,-851.32,-294.74,44.19
6160,-3.8673,0.9884,-1.3555,-663.82,1142.64,-1174.50
6170,-3.8674,0.9155,-1.3837,-1476.32,-1498.11,762.94
6180,-3.8677,0.8385,-1.4058,1195.56,-1107.60,1841.00
6190,-3.8679,0.7463,-1.4160,-663.82,64.09,356.63
6200,-3.8683,0.6359,-1.4181,-460.69,-1248.60,-1752.81
6210,-3.8685,0.5100,-1.4127,1398.68,-1514.40,1419.07
6220,-3.8688,0.3717,-1.3904,1289.31,-827.15,1169.07
6230,-3.8691,0.2277,-1.3464,-413.82,-1968.08,-190.25
6240,-3.8694,0.0900,-1.2838,1148.68,-343.32,1262.94
6250,-3.8698,-0.0269,-1.2078,-476.32,-328.00,-908.81
6260,-3.8700,-0.1188,-1.1265,570.56,1421.81,-1939.88
6270,-3.8702,-0.2036,-1.0420,804.93,-172.12,1716.49
6280,-3.8705,-0.3064,-0.9591,1945.56,-1359.80,1201.05
6290,-3.8707,-0.4282,-0.8872,789.31,1249.39,310.61
6300,-3.8711,-0.5428,-0.8198,1195.56,-1547.73,-579.90
6310,-3.8713,-0.6298,-0.7430,-1476.32,-922.97,1685.85
6320,-3.8717,-0.6821,-0.6598,-601.32,904.97,1826.66
6330,-3.8721,-0.6960,-0.5804,695.56,-438.84,201.78
6340,-3.8726,-0.6776,-0.5112,-1085.69,1717.35,1764.47
6350,-3.8730,-0.6439,-0.4514,1273.68,-1423.22,-1079.16
6360,-3.8735,-0.6052,-0.3917,1586.18,-1766.91,-141.54
6370,-3.8739,-0.5625,-0.3254,-1460.69,1873.78,999.21
6380,-3.8744,-0.5122,-0.2550,8.06,-1641.72,-1110.05
6390,-3.8748,-0.4534,-0.1978,-1554.44,-626.04,-1719.30
6400,-3.8750,-0.3925,-0.1705,1976.81,-1297.79,749.57
6410,-3.8440,-0.3390,-0.1606,1773.68,-1813.29,-219.12
6420,-3.8440,-0.3064,-0.1459,617.43,-547.55,-1250.37
6430,-3.8440,-0.3020,-0.1255,789.31,1343.14,-922.18
6440,-3.8440,-0.3206,-0.1061,1351.81,-47.49,-1281.56
6450,-3.8440,-0.3477,-0.0914,-1023.19,-1563.17,906.01
6460,-3.8441,-0.3676,-0.0819,-491.94,311.77,1624.82
6470,-3.8442,-0.3712,-0.0775,961.18,1530.52,1499.82
6480,-3.8444,-0.3564,-0.0798,492.43,-1906.98,1843.57
6490,-3.8445,-0.3279,-0.0875,-1616.94,1796.14,-62.68
6500,-3.8445,-0.2955,-0.0950,-1960.69,811.83,-953.31
6510,-3.8445,-0.2659,-0.1008,-1820.07,-141.24,1452.88
6520,-3.8446,-0.2411,-0.1036,1976.81,-891.17,-656.49
6530,-3.8446,-0.2163,-0.1040,1148.68,-1250.49,1593.51
6540,-3.8446,-0.1780,-0.1167,320.56,-1297.30,93.51
6550,-3.8447,-0.1189,-0.1550,1226.81,1077.76,-1047.12
6560,-3.8447,-0.0446,-0.2128,789.31,171.63,1859.07
6570,-3.8448,0.0369,-0.2802,-1695.07,781.13,-31.68
6580,-3.8448,0.1167,-0.3588,726.81,140.69,671.33
6590,-3.8450,0.1946,-0.4357,-1054.44,-1921.69,827.39
6600,-3.8451,0.2830,-0.4912,914.31,234.74,-1282.10
6610,-3.8451,0.3994,-0.5367,226.81,1125.55,-594.73
6620,-3.8450,0.5673,-0.5959,-866.94,-702.39,-1672.97
6630,-3.8448,0.7783,-0.6891,617.43,-280.15,-1173.10
6640,-3.8447,0.9972,-0.8245,-366.94,-201.66,-142.03
6650,-3.8445,1.2126,-0.9717,-351.32,-1529.36,404.60
6660,-3.8444,1.4318,-1.0853,-773.19,-372.68,998.05
6670,-3.8442,1.6521,-1.1332,-726.32,1080.87,-1955.26
6680,-3.8441,1.8347,-1.0984,-523.19,-1043.70,-1705.38
6690,-3.8441,1.9446,-0.9935,-1148.19,-590.21,-517.82
6700,-3.8441,2.0045,-0.8650,914.31,831.91,1091.80
6710,-3.8442,2.0563,-0.7650,586.18,1285.16,1685.79
6720,-3.8444,2.1249,-0.6981,-788.82,-1917.91,-860.90
6730,-3.8444,2.2264,-0.6202,-7.57,-1355.29,123.60
6740,-3.8446,2.3706,-0.4990,992.43,613.71,-954.35
6750,-3.8447,2.5663,-0.3435,-554.44,129.58,452.15
6760,-3.8450,2.8030,-0.1934,492.43,36.25,-891.30
6770,-3.8450,3.0389,-0.1154,-1210.69,-744.57,1921.45
6780,-3.8448,3.2385,-0.1455,992.43,1240.30,1281.01
6790,-3.8446,3.3873,-0.2426,-1460.69,1381.29,468.44
6800,-3.8442,3.4940,-0.3513,1586.18,959.72,108.89
6810,-3.8750,3.5588,-0.4684,-757.57,-961.98,-1547.61
6820,-3.8741,3.5491,-0.6428,-460.69,53.77,1874.08
6830,-3.8730,3.4409,-0.8961,-1710.69,1725.65,-173.16
6840,-3.8716,3.2311,-1.1658,445.56,1303.59,-1017.40
6850,-3.8701,2.9149,-1.3727,1586.18,-1212.46,-330.44
6860,-3.8689,2.5012,-1.4756,1117.43,302.55,1887.94
6870,-3.8683,2.0308,-1.4791,164.31,-870.12,-721.68
6880,-3.8680,1.5795,-1.4305,-54.44,-1324.22,-627.93
6890,-3.8679,1.2346,-1.3824,-1820.07,893.68,-1346.56
6900,-3.8677,1.0364,-1.3635,-1960.69,-950.74,637.88
6910,-3.8674,0.9537,-1.3766,664.31,1470.76,-1221.44
6920,-3.8671,0.9154,-1.4031,-1913.82,-201.29,247.25
6930,-3.8671,0.8555,-1.4170,1179.93,408.02,-565.25
6940,-3.8672,0.7449,-1.4100,1508.06,-1373.35,-1487.18
6950,-3.8676,0.5972,-1.3883,-648.19,-482.97,-815.31
6960,-3.8679,0.4331,-1.3539,445.56,-1701.97,419.13
6970,-3.8684,0.2633,-1.3035,-554.44,-1296.08,1450.44
6980,-3.8688,0.0959,-1.2390,1711.18,1156.74,622.44
6990,-3.8691,-0.0643,-1.1711,289.31,1406.43,1888.18
7000,-3.8694,-0.2057,-1.1058,-226.32,-1890.81,75.81
7010,-3.8698,-0.3136,-1.0382,1679.93,-1531.68,-1439.70
7020,-3.8700,-0.3896,-0.9584,-132.57,-875.67,654.17
7030,-3.8704,-0.4409,-0.8613,-1866.94,1342.96,966.86
7040,-3.8708,-0.4774,-0.7559,-429.44,1764.71,-642.33
7050,-3.8712,-0.5114,-0.6598,-1101.32,-735.35,1951.60
7060,-3.8716,-0.5431,-0.5845,-1445.07,-438.54,-532.59
7070,-3.8717,-0.5675,-0.5276,-1507.57,1202.03,639.47
7080,-3.8718,-0.5793,-0.4834,-632.57,483.22,561.46
7090,-3.8719,-0.5778,-0.4506,1851.81,-1860.53,-1625.98
7100,-3.8721,-0.5659,-0.4242,-1945.07,-1657.41,-94.67
7110,-3.8722,-0.5442,-0.3942,-429.44,1717.59,-1375.85
7120,-3.8724,-0.5127,-0.3521,-1648.19,1561.40,1530.46
7130,-3.8728,-0.4761,-0.3059,-1616.94,-1047.91,1139.89
7140,-3.8733,-0.4445,-0.2695,-929.44,858.40,-1406.86
7150,-3.8738,-0.4243,-0.2375,-882.57,1514.71,-1359.92
7160,-3.8743,-0.4076,-0.1993,1695.56,1608.52,-1937.99
7170,-3.8748,-0.3798,-0.1624,-163.82,-1500.85,1905.82
7180,-3.8440,-0.3368,-0.1406,-601.32,-766.42,-187.87
7190,-3.8442,-0.2924,-0.1350,898.68,-1985.05,1312.19
7200,-3.8445,-0.2600,-0.1346,-1413.82,-1266.24,1937.19
7210,-3.8446,-0.2374,-0.1335,-1273.19,-1219.30,343.44
7220,-3.8447,-0.2200,-0.1321,1617.43,-1078.61,93.44
7230,-3.8448,-0.2131,-0.1281,-148.19,-891.11,1468.44
7240,-3.8450,-0.2209,-0.1255,726.81,-375.43,-31.56
7250,-3.8450,-0.2345,-0.1289,-273.19,-47.36,-1609.68
7260,-3.8451,-0.2465,-0.1338,1992.43,-484.86,-265.93
7270,-3.8452,-0.2539,-0.1461,461.18,-1109.86,-922.18
7280,-3.8453,-0.2454,-0.1754,-491.94,1311.95,812.19
7290,-3.8456,-0.2114,-0.2128,601.81,1562.01,-1203.49
7300,-3.8457,-0.1556,-0.2433,945.56,780.82,-1297.30
7310,-3.8457,-0.0797,-0.2700,86.18,874.69,812.01
7320,-3.8457,0.0115,-0.3085,1804.93,1452.94,202.58
7330,-3.8457,0.0980,-0.3728,1476.81,515.62,202.51
7340,-3.8457,0.1720,-0.4666,554.93,281.43,796.14
7350,-3.8457,0.2473,-0.5682,-1976.32,281.56,1295.96
7360,-3.8458,0.3281,-0.6570,-335.69,-733.95,-32.41
7370,-3.8459,0.4158,-0.7321,-1991.94,-93.14,-345.09
7380,-3.8461,0.5311,-0.7992,1226.81,-1702.33,-1563.96
7390,-3.8461,0.6926,-0.8739,-7.57,1704.10,607.79
7400,-3.8459,0.8944,-0.9691,664.31,141.97,435.79
7410,-3.8457,1.1108,-1.0786,-1507.57,-45.17,638.67
7420,-3.8455,1.3065,-1.1868,-1804.44,1939.64,-970.89
7430,-3.8451,1.4559,-1.2772,-757.57,96.25,-861.69
7440,-3.8446,1.5580,-1.3243,-1632.57,518.43,653.75
7450,-3.8442,1.6233,-1.3125,-570.07,-1512.63,356.75
7460,-3.8441,1.6750,-1.2607,-210.69,3.11,1700.56
7470,-3.8441,1.7433,-1.2061,-1585.69,-1371.77,1606.87
7480,-3.8441,1.8365,-1.1774,-851.32,1628.36,1997.62
7490,-3.8440,1.9670,-1.1632,-913.82,1300.42,1653.93
7500,-3.8750,2.1530,-1.1306,-210.69,-886.84,1060.18
7510,-3.8746,2.3805,-1.0868,-413.82,-714.60,482.12
7520,-3.8743,2.6213,-1.0638,711.18,895.26,1575.99
7530,-3.8739,2.8558,-1.0526,-460.69,-166.81,544.74
7540,-3.8738,3.0802,-1.0275,1554.93,1271.18,-298.95
7550,-3.8735,3.2931,-0.9833,-1726.32,490.36,1919.86
7560,-3.8733,3.4757,-0.9347,1523.68,-1852.97,-423.83
7570,-3.8728,3.6093,-0.9120,898.68,366.15,1185.67
7580,-3.8723,3.6832,-0.9331,1992.43,-727.36,1326.29
7590,-3.8717,3.6854,-1.0004,-538.82,569.64,841.92
7600,-3.8710,3.6086,-1.1204,-257.57,-39.73,779.24
7610,-3.8701,3.4501,-1.2754,1914.31,600.77,841.55
7620,-3.8693,3.2045,-1.4257,1617.43,756.71,-268.13
7630,-3.8683,2.8734,-1.5608,-1820.07,1521.85,-1690.31
7640,-3.8674,2.4673,-1.6816,-195.07,224.30,1028.20
7650,-3.8668,2.0222,-1.7719,-179.44,754.76,-1753.30
7660,-3.8663,1.6005,-1.8103,-1148.19,1207.03,449.65
7670,-3.8662,1.2640,-1.7883,867.43,284.36,918.33
7680,-3.8665,1.0592,-1.7271,1804.93,-903.81,-972.29
7690,-3.8668,0.9698,-1.6659,-413.82,-1060.49,-1144.04
7700,-3.8672,0.9170,-1.6315,148.68,-1232.48,1981.08
7710,-3.8676,0.8323,-1.6251,1383.06,-826.35,-1268.86
7720,-3.8679,0.7037,-1.6195,-1460.69,-14.04,-893.86
7730,-3.8683,0.5521,-1.5947,-1913.82,704.47,293.70
7740,-3.8689,0.3920,-1.5642,-1320.07,-123.96,-1190.67
7750,-3.8694,0.2341,-1.5376,-1820.07,-218.02,1481.26
7760,-3.8699,0.0952,-1.5026,1976.81,-812.07,-1518.68
7770,-3.8702,-0.0149,-1.4413,195.56,-327.94,1403.26
7780,-3.8706,-0.1003,-1.3503,-1898.19,-468.81,528.38
7790,-3.8711,-0.1713,-1.2402,-835.69,-828.37,-783.94
7800,-3.8715,-0.2346,-1.1200,-1913.82,1265.26,1997.56
7810,-3.8718,-0.2946,-0.9966,1976.81,655.76,1700.93
7820,-3.8722,-0.3533,-0.8784,-1695.07,452.51,-1376.95
7830,-3.8724,-0.4081,-0.7699,-1210.69,-422.61,591.98
7840,-3.8728,-0.4576,-0.6759,-226.32,1467.90,-360.90
7850,-3.8729,-0.5005,-0.6035,1429.93,1499.08,670.53
7860,-3.8730,-0.5298,-0.5453,-54.44,-1235.41,108.15
7870,-3.8732,-0.5409,-0.4868,195.56,-1782.29,311.40
7880,-3.8734,-0.5336,-0.4257,-1226.32,1702.03,-407.23
7890,-3.8735,-0.5140,-0.3655,-288.82,1530.15,1952.27
7900,-3.8738,-0.4880,-0.3087,-1788.82,1233.34,-219.48
7910,-3.8739,-0.4640,-0.2598,1539.31,499.02,1686.89
7920,-3.8740,-0.4537,-0.2192,617.43,-1235.29,140.08
7930,-3.8743,-0.4576,-0.1859,1929.93,-47.79,-984.86
7940,-3.8744,-0.4667,-0.1628,1429.93,217.83,-1515.99
7950,-3.8745,-0.4714,-0.1460,273.68,-829.04,-1172.24
7960,-3.8745,-0.4697,-0.1301,-335.69,1327.15,187.19
7970,-3.8746,-0.4607,-0.1179,-116.94,-641.60,-922.18
7980,-3.8746,-0.4417,-0.1057,1039.31,920.96,-1000.24
7990,-3.8746,-0.4113,-0.0875,-523.19,-1516.54,-1734.62
8000,-3.8746,-0.3684,-0.0743,-632.57,811.65,609.19
8010,-3.8748,-0.3258,-0.0796,851.81,-1500.73,-859.56
8020,-3.8748,-0.3007,-0.0992,-1695.07,1827.45,-1703.31
8030,-3.8748,-0.2947,-0.1221,1523.68,-688.11,1827.88
8040,-3.8748,-0.2994,-0.1417,-1710.69,390.01,1437.26
8050,-3.8748,-0.3047,-0.1589,1679.93,1874.39,530.94
8060,-3.8749,-0.2935,-0.1761,1008.06,-328.74,-1469.12
8070,-3.8750,-0.2572,-0.1964,-1554.44,1468.14,-687.87
8080,-3.8439,-0.2101,-0.2277,-913.82,-1125.55,-1297.30
8090,-3.8440,-0.1624,-0.2759,1117.43,-1125.43,827.64
8100,-3.8442,-0.1082,-0.3461,-773.19,702.76,-1203.67
8110,-3.8444,-0.0420,-0.4406,-1835.69,-281.49,-1969.48
8120,-3.8445,0.0310,-0.5471,-1366.94,-375.12,-563.42
8130,-3.8445,0.1166,-0.6423,-23.19,1968.75,-1532.35
8140,-3.8445,0.2365,-0.7081,-1070.07,1781.43,-1798.16
8150,-3.8445,0.4030,-0.7601,-1726.32,1359.80,-1126.40
8160,-3.8445,0.6156,-0.8206,-413.82,-1296.14,-48.40
8170,-3.8444,0.8523,-0.8767,-1195.07,-1030.09,263.98
8180,-3.8445,1.0668,-0.9257,1101.81,-217.10,-845.52
8190,-3.8445,1.2344,-0.9921,554.93,1517.70,873.17
8200,-3.8446,1.3649,-1.0696,-1991.94,1018.01,-486.33
8210,-3.8446,1.4653,-1.1288,-1288.82,-903.63,-174.01
8220,-3.8446,1.5428,-1.1580,-429.44,-481.57,-939.76
8230,-3.8447,1.6263,-1.1744,1492.43,-215.76,-814.82
8240,-3.8448,1.7531,-1.2030,179.93,1675.05,1763.31
8250,-3.8450,1.9301,-1.2385,398.68,-1980.96,1685.12
8260,-3.8450,2.1361,-1.2596,-945.07,1472.47,91.31
8270,-3.8451,2.3444,-1.2479,1429.93,-1230.22,-1065.00
8280,-3.8452,2.5100,-1.1904,86.18,270.20,-299.32
8290,-3.8453,2.5981,-1.0905,1289.31,-370.12,1700.74
8300,-3.8456,2.6261,-0.9769,570.56,426.94,-1611.51
8310,-3.8457,2.6293,-0.8810,148.68,-1041.75,232.42
8320,-3.8459,2.6287,-0.8224,554.93,-760.50,-251.77
8330,-3.8459,2.6293,-0.8365,476.81,-1260.50,1560.85
8340,-3.8459,2.6213,-0.9465,554.93,927.00,-189.15
8350,-3.8457,2.6106,-1.1052,-460.69,-1151.18,-1095.64
8360,-3.8453,2.6222,-1.2589,-1835.69,-1463.68,-1970.95
8370,-3.8448,2.6488,-1.4216,-351.32,-1135.56,-1424.38
8380,-3.8440,2.6447,-1.6371,-945.07,-1963.62,1200.32
8390,-3.8739,2.5697,-1.9240,-1476.32,-1541.75,1356.14
8400,-3.8718,2.4050,-2.2422,929.93,1739.38,793.09
8410,-3.8693,2.1567,-2.4902,-148.19,1004.64,729.98
8420,-3.8669,1.8572,-2.5720,70.56,1254.21,-301.76
8430,-3.8651,1.5566,-2.5127,1726.81,-1215.15,604.31
8440,-3.8640,1.2930,-2.4106,-741.94,-1622.01,10.68
8450,-3.8634,1.0798,-2.3004,1508.06,-560.00,1245.24
8460,-3.8632,0.9196,-2.1913,-1773.19,1548.95,-160.77
8470,-3.8630,0.8065,-2.1157,1711.18,-482.60,-1801.21
8480,-3.8632,0.7374,-2.0815,-757.57,1189.03,-972.90
8490,-3.8634,0.6941,-2.0630,-1601.32,1563.90,-925.96
8500,-3.8638,0.6440,-2.0443,851.81,-61.16,-910.34
8510,-3.8641,0.5673,-2.0309,-1554.44,-1670.65,495.97
8520,-3.8646,0.4697,-2.0261,617.43,47.97,589.78
8530,-3.8651,0.3740,-2.0071,133.06,657.17,1074.16
8540,-3.8657,0.2904,-1.9475,-116.94,-905.58,-707.09
8550,-3.8665,0.2097,-1.8594,1179.93,-1280.70,-1691.35
8560,-3.8674,0.1229,-1.7687,-1148.19,-1999.63,-1331.79
8570,-3.8684,0.0356,-1.6823,-257.57,1609.56,1621.52
8580,-3.8694,-0.0404,-1.5952,570.56,671.94,-690.80
8590,-3.8701,-0.1028,-1.5050,-1163.82,-172.00,465.58
8600,-3.8708,-0.1567,-1.4169,-1148.19,-625.24,1309.51
8610,-3.8715,-0.1998,-1.3303,-54.44,-1344.12,-1690.31
8620,-3.8719,-0.2234,-1.2350,-1570.07,1733.95,-1002.62
8630,-3.8723,-0.2267,-1.1340,-585.69,1937.01,1638.18
8640,-3.8727,-0.2185,-1.0499,-1007.57,-1141.11,966.49
8650,-3.8730,-0.2086,-0.9891,39.31,1624.57,1294.80
8660,-3.8734,-0.1984,-0.9288,1304.93,1405.82,-1939.45
8670,-3.8738,-0.1865,-0.8463,-1382.57,1124.57,1529.42
8680,-3.8743,-0.1843,-0.7412,133.06,-312.87,-1001.71
8690,-3.8748,-0.1990,-0.6311,414.31,1140.26,-688.96
8700,-3.8440,-0.2244,-0.5342,-1460.69,-766.05,-110.66
8710,-3.8444,-0.2500,-0.4563,-710.69,-359.86,-1907.35
8720,-3.8447,-0.2656,-0.3906,8.06,1608.89,-1000.92
8730,-3.8450,-0.2653,-0.3325,-1991.94,-1984.92,-828.92
8740,-3.8451,-0.2524,-0.2817,-1945.07,1452.58,-1703.80
8750,-3.8452,-0.2389,-0.2373,-304.44,-47.42,-734.99
8760,-3.8452,-0.2339,-0.2002,1429.93,1640.14,1015.14
8770,-3.8453,-0.2415,-0.1771,-1929.44,-1609.86,-406.68
8780,-3.8453,-0.2598,-0.1704,1101.81,1343.26,-406.62
8790,-3.8452,-0.2850,-0.1685,-1241.94,-1797.42,765.26
8800,-3.8452,-0.3134,-0.1567,-476.32,-1547.49,1859.01
8810,-3.8452,-0.3420,-0.1394,-101.32,-47.55,1640.26
8820,-3.8452,-0.3660,-0.1267,226.81,-1828.80,624.69
8830,-3.8453,-0.3763,-0.1152,1164.31,-203.86,-281.56
8840,-3.8453,-0.3718,-0.0992,-163.82,1264.83,1796.63
8850,-3.8455,-0.3574,-0.0880,414.31,-688.23,-1797.12
8860,-3.8456,-0.3309,-0.0969,-1741.94,749.27,-1281.43
8870,-3.8456,-0.2903,-0.1249,1648.68,-391.30,827.88
8880,-3.8457,-0.2483,-0.1572,-1148.19,30.64,-406.49
8890,-3.8457,-0.2128,-0.1873,226.81,-109.86,1562.13
8900,-3.8458,-0.1777,-0.2220,773.68,46.45,-1453.49
8910,-3.8459,-0.1361,-0.2708,1258.06,-406.62,-469.24
8920,-3.8459,-0.0791,-0.3304,-1413.82,1359.07,921.33
8930,-3.8461,-0.0040,-0.3954,1883.06,1718.57,-1047.55
8940,-3.8461,0.0787,-0.4784,-507.57,1406.19,1717.96
8950,-3.8461,0.1632,-0.5918,-1913.82,-1234.25,780.27
8960,-3.8461,0.2595,-0.7240,898.68,250.31,905.09
8970,-3.8461,0.3799,-0.8580,1226.81,-671.39,-923.34
8980,-3.8459,0.5300,-1.0007,633.06,-1827.39,-1454.83
8990,-3.8458,0.7091,-1.1533,-148.19,-92.77,1201.11
9000,-3.8458,0.9105,-1.3011,-1226.32,376.34,1013.37
9010,-3.8461,1.1425,-1.4352,554.93,1454.90,-299.44
9020,-3.8463,1.4058,-1.5471,-1757.57,299.07,684.69
9030,-3.8468,1.6749,-1.6445,-54.44,1971.44,-753.05
9040,-3.8472,1.9509,-1.7051,-1601.32,1503.23,1496.77
9050,-3.8477,2.2506,-1.6981,1726.81,1753.78,-659.61
9060,-3.8480,2.5464,-1.6542,86.18,-1354.98,1402.89
9070,-3.8484,2.8015,-1.5790,1945.56,270.57,1746.77
9080,-3.8486,2.9999,-1.4521,-1398.19,1896.06,-362.49
9090,-3.8485,3.1193,-1.3014,-7.57,-1869.20,419.01
9100,-3.8484,3.1558,-1.1672,-726.32,1427.92,-96.31
9110,-3.8478,3.1417,-1.0688,-54.44,-1400.15,825.81
9120,-3.8469,3.1038,-1.0405,-1851.32,-806.40,-1908.39
9130,-3.8457,3.0524,-1.1215,1289.31,-1181.46,-2.08
9140,-3.8440,3.0011,-1.2540,-1288.82,459.05,1310.30
9150,-3.8734,2.9504,-1.3145,148.68,-509.77,-1705.63
9160,-3.8715,2.8749,-1.2830,1664.31,-244.26,-1549.50
9170,-3.8695,2.7415,-1.2631,-7.57,-213.20,-1096.31
9180,-3.8676,2.5511,-1.3254,-1085.69,-1666.56,-1330.63
9190,-3.8657,2.3539,-1.4115,-1445.07,-1651.31,-908.87
9200,-3.8643,2.2035,-1.4138,1304.93,-667.30,-1893.43
9210,-3.8635,2.1195,-1.3308,-1945.07,-964.48,778.44
9220,-3.8635,2.0836,-1.2543,-695.07,1660.34,59.88
9230,-3.8640,2.0580,-1.2336,-1288.82,-542.85,-877.50
9240,-3.8645,2.0134,-1.2633,-570.07,-1902.28,-111.82
9250,-3.8649,1.9298,-1.3114,1726.81,-1699.22,528.75
9260,-3.8655,1.7976,-1.3390,-976.32,144.35,1450.56
9270,-3.8663,1.6334,-1.3325,-1898.19,612.85,-237.00
9280,-3.8672,1.4664,-1.2979,1086.18,1440.67,1044.25
9290,-3.8682,1.3099,-1.2509,-288.82,1877.81,825.56
9300,-3.8691,1.1670,-1.2092,-320.07,-106.87,1794.37
9310,-3.8700,1.0419,-1.1847,1383.06,1221.01,-1486.76
9320,-3.8706,0.9355,-1.1711,1367.43,361.39,1497.68
9330,-3.8711,0.8439,-1.1586,-241.94,-1904.48,-158.57
9340,-3.8712,0.7659,-1.1522,23.68,-295.23,294.56
9350,-3.8715,0.7014,-1.1549,-1960.69,517.09,-1377.26
9360,-3.8716,0.6429,-1.1625,1789.31,173.22,403.99
9370,-3.8718,0.5767,-1.1638,-1695.07,-795.65,-689.82
9380,-3.8719,0.4915,-1.1355,1820.56,-967.65,-1236.69
9390,-3.8721,0.3826,-1.0640,-1085.69,-1342.83,341.49
9400,-3.8723,0.2520,-0.9742,976.81,-186.77,1325.99
9410,-3.8724,0.1139,-0.9004,258.06,-702.64,1904.30
9420,-3.8724,-0.0118,-0.8457,-1413.82,750.18,-751.77
9430,-3.8723,-0.1100,-0.7941,-1507.57,-234.44,-1861.08
9440,-3.8723,-0.1777,-0.7377,1929.93,-1625.24,-595.34
9450,-3.8723,-0.2240,-0.6819,1258.06,1593.38,-1751.46
9460,-3.8724,-0.2617,-0.6287,-663.82,733.89,-1079.47
9470,-3.8726,-0.2944,-0.5695,-1491.94,-453.67,1514.34
9480,-3.8728,-0.3276,-0.4960,-1679.44,-875.61,1780.09
9490,-3.8732,-0.3749,-0.4143,-1929.44,530.58,-1532.23
9500,-3.8737,-0.4349,-0.3328,23.68,-1016.36,-703.98
9510,-3.8741,-0.4873,-0.2537,336.18,1421.02,1999.33
9520,-3.8746,-0.5118,-0.1890,1633.06,-454.10,-1813.05
9530,-3.8750,-0.5051,-0.1517,-1507.57,-172.91,-859.80
9540,-3.8439,-0.4794,-0.1345,-648.19,592.71,202.82
9550,-3.8441,-0.4521,-0.1217,-1351.32,-1204.10,-797.18
9560,-3.8442,-0.4348,-0.1119,-1866.94,436.58,-718.99
9570,-3.8442,-0.4285,-0.1133,351.81,1686.65,749.76
9580,-3.8444,-0.4258,-0.1289,1164.31,1514.77,-312.74
9590,-3.8444,-0.4208,-0.1559,1508.06,-485.23,-906.56
9600,-3.8444,-0.4141,-0.1902,-1851.32,61.65,1484.07
9610,-3.8445,-0.4058,-0.2291,-991.94,-328.98,-875.43
9620,-3.8445,-0.3933,-0.2681,70.56,-1313.29,905.76
9630,-3.8446,-0.3710,-0.3030,1664.31,1702.33,-1375.55
9640,-3.8446,-0.3325,-0.3273,523.68,1233.64,765.01
9650,-3.8447,-0.2738,-0.3386,1445.56,-1875.67,-438.17
9660,-3.8447,-0.2036,-0.3441,961.18,671.33,-1875.67
9670,-3.8447,-0.1427,-0.3527,1945.56,-31.68,46.14
9680,-3.8448,-0.1049,-0.3700,1742.43,-1125.31,1171.14
9690,-3.8450,-0.0874,-0.4000,-1413.82,656.01,874.27
9700,-3.8452,-0.0847,-0.4612,820.56,812.32,-1157.04
9710,-3.8455,-0.0736,-0.5697,1164.31,984.19,-16.54
9720,-3.8456,0.0085,-0.7096,-1413.82,-906.43,-1501.16
9730,-3.8456,0.2103,-0.8525,1101.81,1171.88,951.72
9740,-3.8455,0.5084,-0.9703,-1070.07,-1124.63,498.29
9750,-3.8453,0.8318,-1.0430,1086.18,-202.15,-1111.33
9760,-3.8452,1.1176,-1.0897,-1523.19,-1498.41,-377.08
9770,-3.8451,1.3385,-1.1517,-945.07,517.76,1169.74
9780,-3.8451,1.5081,-1.2284,-663.82,580.69,1591.49
9790,-3.8451,1.6559,-1.2888,1039.31,-1231.45,372.56
9800,-3.8453,1.8143,-1.3029,-38.82,-965.58,-1830.69
9810,-3.8457,1.9958,-1.2565,242.43,1237.92,-361.94
9820,-3.8459,2.1802,-1.1777,-523.19,-824.28,-1377.50
9830,-3.8461,2.3359,-1.0950,-929.44,1254.21,-1767.94
9840,-3.8461,2.4453,-1.0131,-991.94,-151.73,200.93
9850,-3.8462,2.5343,-0.9384,1008.06,-1667.11,1841.74
9860,-3.8463,2.6201,-0.8833,398.68,-104.43,-1486.27
9870,-3.8464,2.6910,-0.8368,-616.94,-1057.43,1466.98
9880,-3.8467,2.7584,-0.7577,461.18,895.87,1326.48
9890,-3.8470,2.8318,-0.6395,1086.18,-979.00,-1314.03
9900,-3.8473,2.8872,-0.5353,-1523.19,-1853.88,1264.34
9910,-3.8473,2.9016,-0.5208,1570.56,-510.01,1186.40
9920,-3.8467,2.8846,-0.6218,-585.69,1349.37,530.21
9930,-3.8453,2.8617,-0.7981,1242.43,411.87,920.65
9940,-3.8745,2.8196,-1.0343,-1695.07,1849.30,1045.29
9950,-3.8719,2.7043,-1.3291,914.31,-385.13,-1423.95
9960,-3.8691,2.5078,-1.6030,-1835.69,1880.25,1106.75
9970,-3.8668,2.2809,-1.7188,1008.06,-1182.62,1293.70
9980,-3.8655,2.0762,-1.6267,-38.82,4.39,-1612.73
9990,-3.8651,1.9264,-1.4364,1758.06,-214.72,949.89
10000,-3.8655,1.8474,-1.2954,-1413.82,144.35,-80.93
10010,-3.8656,1.8340,-1.2690,476.81,-1808.90,-1252.56
10020,-3.8652,1.8517,-1.3491,-1241.94,1566.04,-1268.13
10030,-3.8645,1.8417,-1.4845,1023.68,-683.90,-408.94
10040,-3.8638,1.7487,-1.6097,-257.57,1987.92,1434.57
10050,-3.8636,1.5592,-1.6864,-163.82,1956.48,-659.42
10060,-3.8640,1.3058,-1.6993,-413.82,143.62,-222.05
10070,-3.8646,1.0365,-1.6581,-851.32,-1513.12,74.77
10080,-3.8656,0.7930,-1.6011,679.93,-232.36,-1347.05
