timestamp_ms,ax,ay,az,gx,gy,gz
0,-3.8450,0.1506,1.0503,-820.07,625.37,-497.99
10,-3.8448,0.0576,1.0851,-710.69,-1562.26,-1185.49
20,-3.8447,0.0211,1.0946,-616.94,-1109.31,892.70
30,-3.8447,0.0295,1.0892,-1288.82,109.38,377.14
40,-3.8448,0.0500,1.0894,-210.69,-578.12,-794.80
50,-3.8448,0.0848,1.1060,-1585.69,-562.44,-1857.30
60,-3.8448,0.1189,1.1193,-1132.57,1562.62,377.14
70,-3.8450,0.1188,1.1025,-773.19,-734.19,-591.61
80,-3.8448,0.0948,1.0646,-788.82,1125.18,1283.39
90,-3.8447,0.0948,1.0204,148.68,265.81,470.83
100,-3.8446,0.1438,0.9630,148.68,-1390.44,455.08
110,-3.8444,0.2313,0.9144,-1585.69,-734.13,673.71
120,-3.8441,0.3112,0.9298,1617.43,1047.30,704.90
130,-3.8442,0.3459,1.0139,-163.82,-983.83,-248.23
140,-3.8445,0.3350,1.1021,289.31,1781.92,-1763.67
150,-3.8448,0.2885,1.1394,-1116.94,1063.11,-857.24
160,-3.8450,0.2203,1.1229,929.93,1844.30,845.95
170,-3.8450,0.1533,1.0913,211.18,-265.20,830.26
180,-3.8450,0.1346,1.1016,-366.94,-312.26,-1560.42
190,-3.8451,0.1705,1.1631,1242.43,1000.24,-279.11
200,-3.8452,0.1904,1.2272,1836.18,875.31,1127.26
210,-3.8453,0.1580,1.2531,383.06,1078.49,33.63
220,-3.8453,0.1063,1.2434,226.81,390.93,189.94
230,-3.8452,0.0730,1.2284,1617.43,-843.57,752.38
240,-3.8451,0.0515,1.2231,1351.81,1234.50,-450.74
250,-3.8448,0.0110,1.2256,-1398.19,562.56,-1013.24
260,-3.8446,-0.0541,1.2300,1414.31,875.00,1752.38
270,-3.8445,-0.1403,1.2274,1086.18,1453.00,-888.24
280,-3.8444,-0.2533,1.2164,-1945.07,1124.69,1877.38
290,-3.8444,-0.3700,1.1960,-413.82,-281.80,1564.82
300,-3.8445,-0.4550,1.1556,648.68,1108.64,-185.18
310,-3.8445,-0.5054,1.0862,1773.68,-63.42,-1169.68
320,-3.8444,-0.5258,0.9852,-679.44,-954.16,33.33
330,-3.8442,-0.5133,0.8699,711.18,-1876.04,439.39
340,-3.8440,-0.4803,0.7565,-1695.07,-641.66,1.65
350,-3.8750,-0.4489,0.6245,-1476.32,842.77,-1779.79
360,-3.8745,-0.4189,0.4657,-1445.07,-47.79,1.16
370,-3.8740,-0.3849,0.3213,-1616.94,-375.85,547.73
380,-3.8737,-0.3466,0.2394,-1257.57,1139.83,-1468.14
390,-3.8734,-0.3127,0.2146,-351.32,-1344.48,1937.93
400,-3.8734,-0.2882,0.2146,-23.19,-516.30,-562.13
410,-3.8734,-0.2675,0.2195,-882.57,-516.24,-1999.63
420,-3.8735,-0.2485,0.2107,1773.68,108.83,-46.45
430,-3.8735,-0.2266,0.1802,195.56,-1016.11,-1437.13
440,-3.8735,-0.2002,0.1388,-991.94,-922.36,-1499.69
450,-3.8735,-0.1637,0.1102,-1616.94,1780.82,-421.63
460,-3.8734,-0.1027,0.1133,-945.07,-1875.37,1156.43
470,-3.8734,-0.0128,0.1532,-1132.57,-1484.62,-1359.19
480,-3.8733,0.0906,0.2218,-1632.57,-375.06,578.37
490,-3.8733,0.1831,0.3036,-398.19,390.75,-233.95
500,-3.8732,0.2488,0.3894,-554.44,-1140.32,-265.08
510,-3.8730,0.2985,0.4866,-148.19,1844.18,-264.89
520,-3.8729,0.3556,0.6022,-1788.82,-1718.20,-295.96
530,-3.8728,0.4288,0.7341,1523.68,1078.80,-561.34
540,-3.8727,0.5050,0.8801,-1101.32,1969.54,1642.03
550,-3.8727,0.5681,1.0350,648.68,657.23,579.83
560,-3.8729,0.6051,1.1814,726.81,485.47,-638.61
570,-3.8732,0.5969,1.3052,1461.18,-780.09,1971.01
580,-3.8735,0.5388,1.4050,414.31,-936.34,1158.75
590,-3.8740,0.4506,1.4788,976.81,-155.21,-1887.94
600,-3.8745,0.3600,1.5145,1679.93,1282.10,-372.13
610,-3.8748,0.2860,1.5020,-1913.82,1860.05,1237.30
620,-3.8749,0.2358,1.4550,617.43,250.55,690.43
630,-3.8749,0.2040,1.3958,-1804.44,-1765.20,-1934.69
640,-3.8748,0.1713,1.3354,-1882.57,-1343.38,-809.81
650,-3.8745,0.1234,1.2814,1929.93,-1062.19,565.06
660,-3.8744,0.0714,1.2263,-195.07,15.81,80.63
670,-3.8744,0.0399,1.1538,1148.68,968.87,-560.12
680,-3.8741,0.0447,1.0625,1117.43,-312.44,1939.70
690,-3.8739,0.0638,0.9625,1726.81,0.06,-638.55
700,-3.8735,0.0631,0.8568,179.93,-796.75,-1170.04
710,-3.8732,0.0599,0.7875,86.18,1672.00,-842.10
720,-3.8729,0.0790,0.7739,-320.07,796.94,814.03
730,-3.8730,0.1073,0.7740,-1882.57,-937.38,1001.46
740,-3.8733,0.1428,0.7679,1742.43,-921.69,-1373.54
750,-3.8734,0.1720,0.7732,-1710.69,-1702.88,720.21
760,-3.8737,0.1171,0.8303,-1976.32,-1030.94,1376.46
770,-3.8740,0.0311,0.9357,-1007.57,-1718.57,-45.29
780,-3.8744,0.0289,1.0105,-7.57,-234.38,-685.73
790,-3.8746,0.0732,1.0062,-288.82,1343.75,1001.95
800,-3.8748,0.1138,0.9647,1383.06,797.00,-904.30
810,-3.8746,0.1433,0.9343,-1429.44,-515.44,1814.33
820,-3.8745,0.1716,0.9285,-1648.19,-406.01,1626.77
830,-3.8744,0.2095,0.9524,1976.81,-1155.94,548.65
840,-3.8744,0.2407,0.9972,-1179.44,1906.62,1423.71
850,-3.8744,0.2399,1.0284,-1179.44,-358.95,1173.77
860,-3.8744,0.2000,1.0250,-1288.82,-358.95,1642.58
870,-3.8744,0.1407,0.9983,1601.81,-796.51,-888.67
880,-3.8743,0.0956,0.9758,-1976.32,-218.51,517.52
890,-3.8744,0.0740,0.9795,242.43,906.43,-29.36
900,-3.8744,0.0374,1.0085,1476.81,1375.12,220.64
910,-3.8745,-0.0320,1.0261,789.31,1093.81,1642.58
920,-3.8744,-0.1071,0.9949,-85.69,-640.75,861.33
930,-3.8741,-0.1594,0.9294,-1695.07,-640.87,298.77
940,-3.8739,-0.1610,0.8691,-398.19,-1015.99,1923.65
950,-3.8737,-0.1161,0.8434,-601.32,-734.74,-1201.48
960,-3.8734,-0.0751,0.8419,1148.68,-31.49,142.21
970,-3.8734,-0.0736,0.8378,-1601.32,-218.93,-873.41
980,-3.8733,-0.1006,0.8333,-1413.82,-750.18,1485.96
990,-3.8733,-0.1256,0.8500,-866.94,-1328.37,1985.96
1000,-3.8734,-0.1404,0.8938,-70.07,812.19,1907.90
1010,-3.8737,-0.1797,0.9392,-1960.69,-1578.43,329.83
1020,-3.8740,-0.2607,0.9674,1008.06,234.01,329.96
1030,-3.8744,-0.3538,0.9768,-1366.94,-156.80,-998.17
1040,-3.8745,-0.4093,0.9583,-1273.19,1046.14,-779.36
1050,-3.8745,-0.4021,0.9127,-382.57,-1328.98,-560.67
1060,-3.8744,-0.3481,0.8606,539.31,842.96,1923.65
1070,-3.8743,-0.2644,0.8250,-554.44,-1828.86,-1076.48
1080,-3.8740,-0.1714,0.8131,-1835.69,1608.83,1782.84
1090,-3.8738,-0.0968,0.8167,-1929.44,93.38,173.46
1100,-3.8737,-0.0422,0.8269,-382.57,546.63,439.09
1110,-3.8737,0.0133,0.8475,-1398.19,1859.25,-795.29
1120,-3.8735,0.0684,0.8765,1711.18,484.38,704.77
1130,-3.8735,0.1112,0.8983,758.06,187.62,1173.58
1140,-3.8735,0.1501,0.9097,-1757.57,-1015.44,-1935.79
1150,-3.8734,0.1868,0.9138,-773.19,437.74,126.77
1160,-3.8734,0.2085,0.9128,-85.69,969.06,-1435.73
1170,-3.8733,0.2148,0.9095,-1304.44,844.12,720.52
1180,-3.8733,0.2141,0.9025,-491.94,422.24,-1435.73
1190,-3.8732,0.2067,0.8862,-585.69,-484.01,189.21
1200,-3.8732,0.2047,0.8618,-1538.82,1437.87,1579.83
1210,-3.8732,0.2323,0.8409,-1788.82,-1687.13,-1732.73
1220,-3.8735,0.3024,0.7701,1179.93,-1999.39,-467.22
1230,-3.8734,0.2850,0.7355,-1288.82,-1421.33,720.21
1240,-3.8733,0.2815,0.6982,492.43,-1858.83,173.28
1250,-3.8733,0.2821,0.6703,39.31,1375.55,-295.53
1260,-3.8732,0.2444,0.6433,117.43,1797.42,-1342.47
1270,-3.8730,0.1339,0.6045,-710.69,-1655.82,1298.10
1280,-3.8730,-0.0133,0.5608,1148.68,1375.24,-170.72
1290,-3.8729,-0.1284,0.5219,-1695.07,-203.19,782.29
1300,-3.8730,-0.1849,0.4908,-429.44,-1187.81,-1842.77
1310,-3.8732,-0.1927,0.4795,336.18,-1156.62,250.92
1320,-3.8735,-0.1627,0.4923,-663.82,1390.20,-483.46
1330,-3.8739,-0.1244,0.5140,-820.07,-969.12,-92.83
1340,-3.8743,-0.1064,0.5404,86.18,1812.26,-1561.52
1350,-3.8746,-0.0901,0.5627,-1616.94,1187.26,-1920.84
1360,-3.8749,-0.0490,0.5587,476.81,46.69,1204.22
1370,-3.8439,0.0087,0.5238,1742.43,-468.87,-827.09
1380,-3.8440,0.0730,0.4598,1117.43,-953.12,1500.98
1390,-3.8442,0.1426,0.3589,1351.81,-1140.50,-827.27
1400,-3.8444,0.2095,0.2347,-1741.94,1937.74,-1827.45
1410,-3.8444,0.2811,0.1263,-1179.44,-1952.76,62.93
1420,-3.8444,0.3729,0.0574,-7.57,172.36,187.74
1430,-3.8444,0.4717,0.0221,-257.57,-655.58,-1859.31
1440,-3.8442,0.5389,-0.0193,383.06,-1170.96,312.50
1450,-3.8444,0.5552,-0.0952,992.43,1532.29,1265.56
1460,-3.8446,0.5338,-0.2037,-929.44,-186.46,281.01
1470,-3.8448,0.5071,-0.3392,336.18,1922.91,874.57
1480,-3.8450,0.5115,-0.4766,914.31,579.10,-1828.80
1490,-3.8450,0.5555,-0.5796,1476.81,-999.02,420.90
1500,-3.8451,0.6295,-0.6287,-882.57,1813.54,1655.09
1510,-3.8451,0.7736,-0.6111,586.18,-467.53,233.09
1520,-3.8451,1.0272,-0.5396,-976.32,1782.71,280.03
1530,-3.8452,1.2598,-0.4850,-507.57,-1060.55,1327.03
1540,-3.8455,1.3197,-0.4858,1258.06,1924.32,-1641.60
1550,-3.8457,1.2218,-0.5105,929.93,1815.06,-1969.73
1560,-3.8461,1.0338,-0.5446,398.68,-1341.37,-1251.04
1570,-3.8466,0.8435,-0.5927,336.18,-1701.11,-172.97
1580,-3.8470,0.7562,-0.6333,-23.19,142.21,-735.53
1590,-3.8475,0.8115,-0.6360,804.93,-1061.04,1186.22
1600,-3.8481,0.9552,-0.5975,-116.94,-1404.72,-1923.16
1610,-3.8488,1.1260,-0.5231,-1726.32,-482.54,-1141.85
1620,-3.8494,1.2780,-0.4207,133.06,1049.07,-641.66
1630,-3.8500,1.3799,-0.3136,-413.82,-1841.31,-860.23
1640,-3.8505,1.4659,-0.2267,633.06,-137.94,1999.33
1650,-3.8507,1.5826,-0.1802,-351.32,-1012.82,-1750.49
1660,-3.8506,1.7301,-0.1725,-1413.82,940.55,-1984.74
1670,-3.8502,1.8850,-0.1643,1461.18,1925.23,921.51
1680,-3.8500,2.0233,-0.1133,1289.31,-1027.59,-828.49
1690,-3.8497,2.1239,-0.0337,-1007.57,1503.91,1984.13
1700,-3.8495,2.1942,0.0564,-132.57,-308.41,1953.00
1710,-3.8491,2.2395,0.1721,867.43,-776.98,-1062.44
1720,-3.8489,2.2469,0.2781,-1335.69,-1964.42,1984.68
1730,-3.8489,2.2208,0.3402,-382.57,-401.92,797.36
1740,-3.8488,2.1484,0.3806,273.68,-448.79,172.49
1750,-3.8485,2.0299,0.4259,-991.94,722.90,922.61
1760,-3.8483,1.9137,0.4840,-163.82,-1480.47,-1671.08
1770,-3.8480,1.8417,0.5366,961.18,1956.85,1875.92
1780,-3.8479,1.8109,0.5681,-257.57,691.04,-1311.46
1790,-3.8479,1.8180,0.6150,-195.07,722.23,-1342.65
1800,-3.8480,1.8699,0.7208,711.18,-1277.71,344.91
1810,-3.8484,1.8999,0.8444,-648.19,269.23,1501.40
1820,-3.8488,1.8384,0.9061,-804.44,81.79,-435.85
1830,-3.8488,1.7014,0.8667,-679.44,-12.08,782.96
1840,-3.8486,1.5144,0.7424,1789.31,-1059.20,1626.65
1850,-3.8484,1.2729,0.5950,1851.81,-965.82,1423.28
1860,-3.8483,0.9880,0.4622,-1054.44,158.69,-811.34
1870,-3.8481,0.7125,0.3280,-1523.19,-841.86,-1514.77
1880,-3.8480,0.4904,0.1891,-788.82,1985.72,-499.39
1890,-3.8477,0.3121,0.0695,-1226.32,204.04,125.37
1900,-3.8474,0.1436,-0.0251,-38.82,891.17,1703.25
1910,-3.8472,-0.0267,-0.1090,-1616.94,781.49,-1453.19
1920,-3.8469,-0.1890,-0.2009,586.18,-1937.56,-687.74
1930,-3.8466,-0.3416,-0.3179,-179.44,-1703.55,1530.82
1940,-3.8462,-0.4801,-0.4513,289.31,-672.55,-1422.55
1950,-3.8457,-0.5970,-0.5714,-1445.07,-1750.98,-1407.17
1960,-3.8451,-0.6847,-0.6581,-413.82,-1126.22,123.84
1970,-3.8447,-0.7216,-0.7103,367.43,-220.09,-938.84
1980,-3.8445,-0.7002,-0.7375,-351.32,1092.29,-1454.53
1990,-3.8445,-0.6394,-0.7535,-1616.94,1607.97,1670.41
2000,-3.8446,-0.5510,-0.7699,-1835.69,-438.78,1982.85
2010,-3.8446,-0.4331,-0.7836,1476.81,1467.65,326.60
2020,-3.8447,-0.3080,-0.7720,570.56,-282.10,732.79
2030,-3.8451,-0.2275,-0.7307,586.18,1202.51,-470.28
2040,-3.8455,-0.2104,-0.6815,-1116.94,-1516.11,-563.96
2050,-3.8458,-0.2097,-0.6334,1070.56,780.82,-1313.84
2060,-3.8462,-0.1827,-0.5961,1164.31,-1062.93,-1876.28
2070,-3.8466,-0.1504,-0.5908,617.43,-281.62,-251.22
2080,-3.8467,-0.1399,-0.6240,758.06,390.32,561.34
2090,-3.8468,-0.1432,-0.6779,-1898.19,140.32,92.53
2100,-3.8469,-0.1383,-0.7242,1679.93,1249.69,201.78
2110,-3.8472,-0.0979,-0.7443,-1695.07,-687.81,1607.91
2120,-3.8475,0.0054,-0.7432,-523.19,749.76,-813.96
2130,-3.8478,0.1525,-0.7472,695.56,875.00,498.54
2140,-3.8480,0.2834,-0.7633,-476.32,359.62,-907.71
2150,-3.8480,0.3815,-0.7546,289.31,-1702.58,-689.03
2160,-3.8480,0.4878,-0.6802,836.18,-593.02,-345.28
2170,-3.8481,0.6150,-0.5562,-1554.44,938.42,717.41
2180,-3.8486,0.7518,-0.4388,-1273.19,813.66,1920.78
2190,-3.8490,0.9449,-0.3536,242.43,-170.41,311.58
2200,-3.8492,1.2722,-0.2681,961.18,-1263.79,905.52
2210,-3.8495,1.7412,-0.1255,-1148.19,1689.94,-31.80
2220,-3.8496,2.2699,0.0964,-1116.94,-59.14,-703.43
2230,-3.8497,2.7189,0.3613,-1445.07,348.14,-749.82
2240,-3.8497,2.9960,0.6162,23.68,-1744.69,1219.42
2250,-3.8499,3.1288,0.8423,-507.57,-1119.20,-1123.84
2260,-3.8500,3.1501,1.0417,492.43,-181.40,767.21
2270,-3.8502,3.0536,1.1990,-773.19,1349.85,1705.14
2280,-3.8503,2.8724,1.3013,-1132.57,1474.67,1830.44
2290,-3.8502,2.6842,1.3722,-320.07,-1431.95,-1341.25
2300,-3.8500,2.5244,1.3440,-413.82,-354.19,-1950.50
2310,-3.8499,2.4095,1.1321,-866.94,36.13,1830.75
2320,-3.8495,2.3132,0.8218,429.93,910.95,408.45
2330,-3.8489,2.1685,0.5453,101.81,1192.02,439.09
2340,-3.8484,1.9762,0.3628,1570.56,1801.09,1704.16
2350,-3.8483,1.7897,0.2616,961.18,-1558.65,1875.67
2360,-3.8484,1.6501,0.2065,1086.18,1487.85,234.86
2370,-3.8488,1.5432,0.1721,-773.19,-1559.33,-1062.13
2380,-3.8491,1.4100,0.1317,1539.31,-1965.76,-937.19
2390,-3.8495,1.2042,0.0577,492.43,862.12,-1187.26
2400,-3.8497,0.9534,-0.0638,-1851.32,-607.06,-1374.94
2410,-3.8496,0.7506,-0.2167,-1960.69,-170.04,1062.32
2420,-3.8492,0.6378,-0.3647,86.18,267.09,-516.05
2430,-3.8488,0.5411,-0.4794,1648.68,1313.72,-500.73
2440,-3.8484,0.3848,-0.5516,1273.68,-1358.34,1686.52
2450,-3.8481,0.1881,-0.5958,1258.06,1391.36,1405.15
2460,-3.8479,0.0133,-0.6300,86.18,-265.26,-860.60
2470,-3.8475,-0.1273,-0.6648,1711.18,-640.62,-360.66
2480,-3.8470,-0.2852,-0.6942,-288.82,-1078.43,-188.84
2490,-3.8463,-0.4810,-0.7046,-491.94,-844.36,-407.65
2500,-3.8456,-0.6571,-0.7029,-1554.44,1827.15,-938.90
2510,-3.8450,-0.7598,-0.7139,-101.32,-1954.47,623.60
2520,-3.8445,-0.8157,-0.7480,-1241.94,639.10,-313.90
2530,-3.8439,-0.8726,-0.7762,-398.19,263.98,-1517.09
2540,-3.8748,-0.9353,-0.7612,320.56,654.54,-657.78
2550,-3.8745,-0.9945,-0.7262,289.31,-1423.71,-1814.03
2560,-3.8744,-1.0425,-0.7098,711.18,-939.45,1561.04
2570,-3.8744,-1.0688,-0.7109,-1429.44,1154.17,1842.35
2580,-3.8745,-1.0609,-0.7278,-804.44,1013.49,-423.28
2590,-3.8746,-1.0183,-0.7491,211.18,-1142.70,-48.34
2600,-3.8748,-0.9268,-0.7372,1664.31,122.99,342.29
2610,-3.8440,-0.7708,-0.6864,1383.06,1654.42,1529.79
2620,-3.8446,-0.5796,-0.6505,1351.81,154.72,-1235.72
2630,-3.8451,-0.4026,-0.6877,1820.56,748.84,-470.03
2640,-3.8452,-0.2601,-0.8021,476.81,-16.42,561.10
2650,-3.8453,-0.1304,-0.9441,-1288.82,1343.20,-1767.21
2660,-3.8455,-0.0005,-1.0610,-679.44,-828.43,294.98
2670,-3.8459,0.1460,-1.1545,-54.44,203.06,-548.95
2680,-3.8464,0.3861,-1.2467,-1304.44,218.99,1872.74
2690,-3.8470,0.7534,-1.3109,1429.93,422.61,-908.69
2700,-3.8475,1.1787,-1.3214,445.56,204.59,981.81
2710,-3.8481,1.6080,-1.2946,-1116.94,-1138.37,-565.12
2720,-3.8488,2.0664,-1.2216,1836.18,-1700.01,-1721.31
2730,-3.8496,2.5542,-1.0536,508.06,-355.35,638.18
2740,-3.8507,2.9602,-0.7770,-1054.44,1145.57,-595.83
2750,-3.8513,3.1562,-0.4921,-1085.69,552.61,951.60
2760,-3.8514,3.1183,-0.3230,8.06,1021.79,-735.35
2770,-3.8508,2.9147,-0.2609,-851.32,-1337.71,30.58
2780,-3.8501,2.6238,-0.2015,1086.18,-1384.95,1890.08
2790,-3.8494,2.3212,-0.0905,-148.19,-1791.81,-625.43
2800,-3.8486,2.0903,0.0250,1117.43,426.39,671.69
2810,-3.8480,1.9658,0.0887,-429.44,-792.85,1875.00
2820,-3.8473,1.9115,0.1230,-366.94,-636.84,-671.75
2830,-3.8466,1.8792,0.1885,679.93,-246.28,-1156.07
2840,-3.8462,1.8292,0.3046,539.31,128.66,1453.49
2850,-3.8463,1.7290,0.4603,-1851.32,-1012.08,953.67
2860,-3.8467,1.5798,0.6282,1320.56,-1074.77,32.10
2870,-3.8472,1.4304,0.7670,-1773.19,409.30,-530.03
2880,-3.8473,1.3351,0.8690,-898.19,-1825.38,298.34
2890,-3.8474,1.2915,0.9583,-1101.32,-763.06,1642.27
2900,-3.8475,1.2676,1.0416,1320.56,-1341.25,-1185.67
2910,-3.8478,1.2705,1.1005,-1741.94,1330.57,-841.74
2920,-3.8481,1.3152,1.1100,-1366.94,861.82,-872.86
2930,-3.8485,1.3831,1.0710,351.81,-1919.31,-263.49
2940,-3.8488,1.4403,1.0045,1039.31,1096.44,-435.42
2950,-3.8490,1.4722,0.9272,367.43,580.93,-248.05
2960,-3.8492,1.4756,0.8414,445.56,-1309.63,-1904.48
2970,-3.8495,1.4419,0.7250,883.06,-294.01,-1560.91
2980,-3.8495,1.3855,0.5602,570.56,799.68,1798.28
2990,-3.8494,1.3527,0.3672,1351.81,-294.19,-842.71
3000,-3.8491,1.3499,0.1805,1148.68,-997.38,-858.70
3010,-3.8488,1.3148,0.0170,789.31,-888.00,31.56
3020,-3.8485,1.2120,-0.1237,304.93,-1825.56,328.12
3030,-3.8484,1.0765,-0.2401,-851.32,174.19,-453.37
3040,-3.8481,0.9413,-0.3241,1804.93,1267.70,1421.39
3050,-3.8480,0.7959,-0.3854,492.43,-1482.54,-1656.92
3060,-3.8479,0.6517,-0.4642,1883.06,-1326.60,-547.67
3070,-3.8477,0.5540,-0.5691,-570.07,579.35,1608.46
3080,-3.8474,0.5039,-0.6549,-1085.69,-842.71,1233.22
3090,-3.8472,0.4733,-0.7175,508.06,172.85,-563.78
3100,-3.8467,0.4304,-0.7867,586.18,157.17,-79.53
3110,-3.8459,0.3496,-0.8167,-898.19,-702.33,1201.54
3120,-3.8455,0.2433,-0.7529,758.06,-530.58,810.85
3130,-3.8455,0.1334,-0.6459,-851.32,-374.57,-360.90
3140,-3.8456,0.0115,-0.5867,1086.18,1328.37,-1485.66
3150,-3.8457,-0.1465,-0.6147,1476.81,906.25,-376.16
3160,-3.8455,-0.3361,-0.7094,1258.06,1327.82,1608.15
3170,-3.8450,-0.5115,-0.8300,992.43,1218.08,-704.53
3180,-3.8442,-0.6407,-0.9291,-1460.69,1780.21,-282.90
3190,-3.8749,-0.7478,-0.9712,1992.43,1092.47,1295.04
3200,-3.8748,-0.8591,-0.9701,289.31,-298.34,1638.67
3210,-3.8748,-0.9734,-0.9564,-1960.69,-157.96,544.92
3220,-3.8749,-1.0870,-0.9187,-585.69,1591.80,-1751.89
3230,-3.8439,-1.1831,-0.8359,867.43,-1580.26,-1751.83
3240,-3.8444,-1.2305,-0.7454,570.56,1013.31,-1079.77
3250,-3.8448,-1.1997,-0.7163,-1491.94,606.93,1389.16
3260,-3.8452,-1.0740,-0.7844,-1554.44,325.74,436.10
3270,-3.8455,-0.8860,-0.9172,-1460.69,-392.76,-860.96
3280,-3.8455,-0.7074,-1.0374,-1398.19,-1392.40,-861.21
3290,-3.8455,-0.5947,-1.1028,1461.18,-767.03,1091.67
3300,-3.8458,-0.5468,-1.1293,-116.94,-1141.85,-1142.82
3310,-3.8464,-0.5182,-1.1477,-1976.32,-532.35,-142.88
3320,-3.8472,-0.4923,-1.1732,1679.93,1108.34,-674.13
3330,-3.8480,-0.4315,-1.2162,992.43,1842.77,1278.93
3340,-3.8491,-0.2445,-1.2950,773.68,342.90,997.62
3350,-3.8503,0.1393,-1.4034,711.18,-1750.49,1231.81
3360,-3.8516,0.7164,-1.5024,1836.18,359.62,106.63
3370,-3.8528,1.3956,-1.5681,-288.82,-311.16,-1549.87
3380,-3.8536,2.1154,-1.5989,-1351.32,-716.06,1746.89
3390,-3.8544,2.8708,-1.5450,-1226.32,-652.16,871.83
3400,-3.8552,3.5586,-1.3510,-523.19,-1760.07,-331.18
3410,-3.8555,3.9930,-1.0547,-491.94,-914.98,28.56
3420,-3.8550,3.9999,-0.7606,-882.57,1007.75,1935.42
3430,-3.8536,3.9640,-0.5712,-7.57,-1351.62,-1204.65
3440,-3.8519,3.6498,-0.4961,-601.32,-1101.68,-1204.28
3450,-3.8502,3.2690,-0.4619,-820.07,507.08,1295.90
3460,-3.8489,2.8549,-0.3999,-1554.44,881.35,-1063.42
3470,-3.8477,2.4401,-0.3094,1429.93,818.05,217.96
3480,-3.8467,2.1051,-0.2407,336.18,395.39,-1797.49
3490,-3.8457,1.9125,-0.2065,1461.18,1191.59,-1594.24
3500,-3.8447,1.8751,-0.1656,804.93,1566.22,593.32
3510,-3.8441,1.9276,-0.0725,23.68,-1199.46,1202.76
3520,-3.8440,2.0231,0.0723,-1257.57,-1277.53,-375.18
3530,-3.8441,2.1454,0.2406,-1038.82,1253.91,1687.62
3540,-3.8446,2.2422,0.4059,-1382.57,-1198.97,-687.07
3550,-3.8450,2.2676,0.5187,-991.94,-42.54,110.11
3560,-3.8453,2.2164,0.5370,-1741.94,-1604.98,1297.85
3570,-3.8455,2.1141,0.4934,-288.82,738.65,672.91
3580,-3.8456,1.9452,0.4280,-1382.57,-839.66,1485.29
3590,-3.8458,1.8141,0.4165,992.43,-1214.97,-1467.96
3600,-3.8463,1.7843,0.5056,211.18,1316.04,-1296.08
3610,-3.8470,1.6046,0.4965,398.68,722.23,266.60
3620,-3.8477,1.2346,0.2205,1398.68,-450.01,1625.92
3630,-3.8475,0.9979,-0.0372,-1960.69,221.13,969.18
3640,-3.8473,0.9960,0.0013,-257.57,-763.73,1609.25
3650,-3.8475,1.0245,0.1580,-507.57,173.77,-1703.12
3660,-3.8479,0.7738,0.1193,-851.32,220.70,469.06
3670,-3.8480,0.5228,0.0436,-945.07,-732.91,406.43
3680,-3.8479,0.6036,0.0806,-1070.07,1579.10,-453.06
3690,-3.8478,0.6095,0.0103,1273.68,-1686.34,-15.50
3700,-3.8477,0.4285,-0.1783,-1976.32,1313.66,-1828.12
3710,-3.8473,0.1948,-0.3883,-1148.19,1172.67,1796.51
3720,-3.8468,-0.0989,-0.5636,945.56,-1702.76,-188.29
3730,-3.8459,-0.2478,-0.6276,-648.19,-125.24,326.97
3740,-3.8455,0.0112,-0.3903,289.31,-312.99,-876.28
3750,-3.8459,0.1216,-0.0363,1445.56,-1953.12,530.46
3760,-3.8470,-0.3654,0.0280,-429.44,-640.44,640.50
3770,-3.8473,-0.8583,-0.1674,1242.43,-406.98,1546.88
3780,-3.8469,-1.0063,-0.4318,-1851.32,-1407.96,-1875.37
3790,-3.8466,-0.9467,-0.6578,-804.44,747.99,-1110.23
3800,-3.8462,-0.8123,-0.8339,-1163.82,-189.39,-1595.09
3810,-3.8459,-0.6724,-1.0020,39.31,1279.66,-1470.40
3820,-3.8459,-0.5062,-1.1875,1945.56,-235.72,-283.26
3830,-3.8457,-0.2667,-1.3873,-788.82,14.59,357.06
3840,-3.8452,-0.0017,-1.5437,1867.43,-1563.05,1747.25
3850,-3.8445,0.1663,-1.5886,-210.69,-1578.19,-1924.93
3860,-3.8439,0.2224,-1.5275,1289.31,656.56,-81.24
3870,-3.8746,0.2670,-1.4210,476.81,484.80,1747.01
3880,-3.8746,0.3434,-1.3038,-1820.07,-1890.14,-1549.68
3890,-3.8750,0.3792,-1.1771,-38.82,1109.99,1919.31
3900,-3.8444,0.2793,-1.0450,539.31,1328.86,-502.32
3910,-3.8450,0.0881,-0.8998,-241.94,-1765.14,1638.55
3920,-3.8459,0.0129,-0.7400,-710.69,828.25,-376.77
3930,-3.8470,0.1212,-0.5839,1664.31,1281.25,232.91
3940,-3.8481,0.4291,-0.5311,-476.32,1265.81,155.09
3950,-3.8484,0.9541,-0.6478,-1070.07,16.42,905.21
3960,-3.8481,1.2653,-0.7468,-1866.94,1079.96,1608.09
3970,-3.8479,1.3094,-0.7495,1961.18,408.69,-1126.46
3980,-3.8475,1.4006,-0.7518,-382.57,65.00,-1954.59
3990,-3.8473,1.6271,-0.7893,-710.69,-231.69,-345.28
4000,-3.8470,1.8920,-0.8134,273.68,-1028.08,-1.59
4010,-3.8467,2.0396,-0.7822,-1820.07,-105.71,1029.60
4020,-3.8466,2.0364,-0.7269,1070.56,-121.03,1842.16
4030,-3.8466,1.8650,-0.6460,664.31,-1042.91,-1423.34
4040,-3.8464,1.7535,-0.4763,-1273.19,1316.10,-110.66
4050,-3.8463,1.9392,-0.2588,461.18,-965.33,-1422.85
4060,-3.8463,2.3368,-0.1202,226.81,-1121.22,-297.42
4070,-3.8461,2.6698,-0.0853,-882.57,613.89,-1515.87
4080,-3.8453,2.8545,-0.1327,1742.43,1083.31,952.94
4090,-3.8444,3.0077,-0.1986,1383.06,-978.82,-1906.56
4100,-3.8749,3.1599,-0.2090,992.43,-1416.02,999.57
4110,-3.8749,3.2194,-0.1437,476.81,1256.16,-1375.43
4120,-3.8441,3.1471,-0.0297,86.18,1615.66,452.82
4130,-3.8451,3.0276,0.1168,-1163.82,209.23,-593.81
4140,-3.8459,2.9386,0.2712,-460.69,-1041.02,328.31
4150,-3.8468,2.8947,0.3715,148.68,-1275.51,109.86
4160,-3.8477,2.8763,0.4004,-1476.32,-447.51,-1905.58
4170,-3.8485,2.7949,0.3759,179.93,-744.38,-561.77
4180,-3.8491,2.5771,0.3035,1758.06,114.81,16.36
4190,-3.8496,2.2472,0.2074,1883.06,-1151.25,1797.42
4200,-3.8499,1.8451,0.1141,-351.32,-1448.79,-999.63
4210,-3.8500,1.4194,0.0320,179.93,-1387.02,390.81
4220,-3.8502,1.0052,-0.0425,1695.56,96.50,343.81
4230,-3.8505,0.5764,-0.1062,679.93,-1435.55,921.75
4240,-3.8506,0.1240,-0.1632,1789.31,-1592.65,-1093.99
4250,-3.8502,-0.2783,-0.2140,-116.94,-890.44,-1734.74
4260,-3.8496,-0.5813,-0.2263,383.06,624.45,-172.30
4270,-3.8489,-0.8367,-0.1956,1601.81,-954.28,-1687.99
4280,-3.8483,-1.0723,-0.1664,914.31,-1017.27,-1109.80
4290,-3.8477,-1.2739,-0.1958,-1241.94,-1283.39,-1359.74
4300,-3.8469,-1.4546,-0.2988,945.56,-1049.38,874.57
4310,-3.8462,-1.6204,-0.4076,1820.56,1762.76,-1313.11
4320,-3.8455,-1.7793,-0.4617,601.81,-159.42,1874.15
4330,-3.8450,-1.9589,-0.4802,258.06,918.40,-1688.42
4340,-3.8446,-2.1384,-0.4637,1273.68,-1456.97,1311.52
4350,-3.8444,-2.2152,-0.4154,-1710.69,652.04,1092.83
4360,-3.8441,-2.1216,-0.4259,461.18,-1160.58,186.65
4370,-3.8439,-1.9011,-0.5588,445.56,1495.85,-1657.10
4380,-3.8748,-1.6293,-0.7418,664.31,480.65,-1126.10
4390,-3.8745,-1.3621,-0.8561,-538.82,1059.27,732.91
4400,-3.8748,-1.1135,-0.8514,1664.31,-1565.19,1592.04
4410,-3.8441,-0.8706,-0.7601,1476.81,-970.95,607.67
4420,-3.8451,-0.6444,-0.6718,570.56,-1282.96,1998.47
4430,-3.8461,-0.4333,-0.6626,1523.68,-1970.03,-720.09
4440,-3.8467,-0.1765,-0.7314,539.31,-797.73,154.91
4450,-3.8472,0.1570,-0.8040,1414.31,-1609.74,1654.79
4460,-3.8475,0.5381,-0.8055,101.81,1094.06,-298.46
4470,-3.8477,0.9470,-0.7649,883.06,891.66,1842.16
4480,-3.8475,1.3484,-0.7671,1226.81,-1904.42,1310.97
4490,-3.8473,1.6708,-0.8253,601.81,1815.12,-751.53
4500,-3.8472,1.9751,-0.8651,1867.43,-1637.39,388.98
4510,-3.8478,2.4089,-0.7585,820.56,1269.47,123.29
4520,-3.8490,2.9559,-0.4829,351.81,-1089.05,1154.72
4530,-3.8502,3.5035,-0.1527,-1632.57,-1806.76,733.40
4540,-3.8511,3.9220,0.1324,461.18,459.96,1155.94
4550,-3.8513,3.9999,0.2975,-1976.32,960.75,1562.74
4560,-3.8510,3.9999,0.3712,-7.57,-1914.12,-1515.08
4570,-3.8501,3.9999,0.4084,-7.57,-476.62,547.55
4580,-3.8491,3.9885,0.3501,-7.57,289.00,719.54
4590,-3.8481,3.9630,0.1724,-1460.69,820.25,1672.55
4600,-3.8472,3.8119,-0.0890,-726.32,-1929.81,-77.82
4610,-3.8461,3.5231,-0.3711,-70.07,616.76,-140.81
4620,-3.8451,3.2555,-0.5596,-1038.82,506.84,-1000.73
4630,-3.8446,3.0470,-0.5753,711.18,381.35,-1907.35
4640,-3.8448,2.8206,-0.4758,-1976.32,-1634.70,1701.97
4650,-3.8456,2.5461,-0.3625,1039.31,-900.76,749.02
4660,-3.8464,2.2402,-0.2740,1914.31,1598.69,546.14
4670,-3.8472,1.9442,-0.2158,-1241.94,926.21,1436.95
4680,-3.8477,1.6635,-0.1965,867.43,378.78,1515.20
4690,-3.8480,1.3385,-0.2065,929.93,-1153.02,-234.80
4700,-3.8481,0.9559,-0.2046,-663.82,1565.06,-1906.68
4710,-3.8483,0.5432,-0.1876,-1632.57,1814.33,1796.45
4720,-3.8484,0.1224,-0.1904,1539.31,-14.59,-1281.68
4730,-3.8483,-0.2814,-0.2102,-320.07,-374.82,233.95
4740,-3.8481,-0.6447,-0.2036,-7.57,1108.76,-1578.55
4750,-3.8479,-0.9648,-0.1536,1492.43,1951.84,1140.20
4760,-3.8477,-1.2708,-0.0931,508.06,357.48,765.32
4770,-3.8473,-1.5682,-0.0493,1351.81,91.25,468.57
4780,-3.8468,-1.8274,-0.0236,-726.32,1700.01,1624.88
4790,-3.8461,-2.0476,-0.0437,-1898.19,996.40,484.31
4800,-3.8453,-2.2383,-0.1290,1914.31,-1582.15,-640.75
4810,-3.8444,-2.3563,-0.2474,1508.06,-504.39,234.07
4820,-3.8748,-2.3752,-0.3748,-1601.32,339.11,1140.14
4830,-3.8740,-2.2870,-0.4987,-23.19,42.18,1374.27
4840,-3.8735,-2.0496,-0.6019,-726.32,182.98,14.65
4850,-3.8735,-1.6987,-0.6703,1664.31,-1035.28,733.15
4860,-3.8739,-1.3142,-0.6974,-1429.44,-1784.61,201.78
4870,-3.8745,-0.9758,-0.6962,-210.69,-1252.62,123.60
4880,-3.8440,-0.7887,-0.6846,-898.19,-1095.70,1123.60
4890,-3.8448,-0.7445,-0.6643,-945.07,389.04,-360.72
4900,-3.8458,-0.7084,-0.6255,711.18,-1017.09,-298.22
4910,-3.8469,-0.5515,-0.5931,1336.18,-48.28,1795.59
4920,-3.8479,-0.2725,-0.6501,1414.31,92.65,1733.22
4930,-3.8484,0.0702,-0.7913,1133.06,796.33,1873.72
4940,-3.8486,0.4130,-0.8656,992.43,-1281.13,1107.79
4950,-3.8492,0.7446,-0.8253,867.43,1203.92,-1454.83
4960,-3.8503,1.1555,-0.7625,-679.44,-1639.22,-767.27
4970,-3.8516,1.5654,-0.7577,-85.69,-1591.55,1904.72
4980,-3.8523,1.7808,-0.8704,383.06,-981.32,-1267.15
4990,-3.8519,1.7820,-1.0693,-54.44,597.17,-126.71
5000,-3.8508,1.7064,-1.2002,101.81,-871.52,1513.49
5010,-3.8502,1.7765,-1.1914,-1570.07,-1621.70,-861.76
5020,-3.8502,2.3011,-1.0901,-601.32,-496.58,-1143.01
5030,-3.8502,3.2236,-0.9718,-1445.07,473.21,1122.86
5040,-3.8500,3.9264,-0.8564,633.06,-384.34,1154.30
5050,-3.8500,3.9999,-0.6227,-1413.82,-1617.37,-1486.08
5060,-3.8501,3.8173,-0.2909,-7.57,304.63,-954.35
5070,-3.8501,3.3030,0.0649,617.43,-1226.93,-1000.61
5080,-3.8501,2.7367,0.4263,-1210.69,318.91,-609.25
5090,-3.8499,2.2443,0.6248,-1695.07,-1432.19,547.67
5100,-3.8495,1.8910,0.6232,-726.32,-26.92,-1811.34
5110,-3.8489,1.6849,0.5753,-1945.07,-230.71,1423.03
5120,-3.8483,1.6029,0.5615,-320.07,1643.86,1532.35
5130,-3.8478,1.5802,0.5615,1179.93,-121.89,532.29
5140,-3.8477,1.5513,0.5397,-1726.32,-121.95,-498.96
5150,-3.8475,1.5466,0.4722,-1429.44,1081.12,-1983.34
5160,-3.8474,1.6174,0.3407,1976.81,440.49,-1920.96
5170,-3.8472,1.7638,0.1836,-960.69,-387.51,906.86
5180,-3.8470,1.9249,0.0771,1773.68,-496.58,-1749.69
5190,-3.8470,2.0277,0.0394,-1601.32,1878.72,562.62
5200,-3.8474,2.0720,0.0376,-445.07,1050.78,-1234.31
5210,-3.8478,2.0968,0.0480,1226.81,816.53,750.06
5220,-3.8483,2.1074,0.0428,398.68,-1855.29,-1140.56
5230,-3.8485,2.0913,-0.0010,1758.06,1488.46,1406.31
5240,-3.8486,2.0269,-0.0717,-304.44,-120.97,1593.69
5250,-3.8488,1.8798,-0.1467,-554.44,-1167.97,-187.68
5260,-3.8488,1.6449,-0.2169,617.43,1222.41,1624.69
5270,-3.8488,1.3734,-0.2854,-1445.07,237.55,265.20
5280,-3.8488,1.1149,-0.3561,-195.07,-528.63,1686.89
5290,-3.8486,0.8911,-0.4170,-1288.82,-1575.99,-1063.23
5300,-3.8484,0.6947,-0.4576,-1929.44,-1373.29,-63.35
5310,-3.8480,0.4995,-0.4825,929.93,1423.22,-188.42
5320,-3.8475,0.2936,-0.4995,-54.44,-1764.71,1639.65
5330,-3.8470,0.0775,-0.5056,1586.18,63.05,858.40
5340,-3.8466,-0.1432,-0.4861,1929.93,-718.63,264.59
5350,-3.8462,-0.3525,-0.4402,1679.93,1796.57,-1094.73
5360,-3.8457,-0.5367,-0.4056,-1116.94,-328.86,-1641.54
5370,-3.8451,-0.6968,-0.4286,-695.07,92.65,46.08
5380,-3.8446,-0.8334,-0.4882,-1179.44,1154.85,-1516.48
5390,-3.8441,-0.9558,-0.5065,1336.18,1529.60,1186.52
5400,-3.8440,-1.0894,-0.4502,1664.31,-814.39,-16.66
5410,-3.8440,-1.2283,-0.3306,570.56,-1611.51,-1704.04
5420,-3.8442,-1.3422,-0.1776,-1210.69,1700.68,-203.80
5430,-3.8444,-1.4366,-0.0809,211.18,1278.63,1062.13
5440,-3.8445,-1.5005,-0.0947,117.43,1653.44,1031.07
5450,-3.8445,-1.4744,-0.1699,-54.44,-112.37,1937.26
5460,-3.8444,-1.3372,-0.2601,-710.69,-1737.30,-1875.37
5470,-3.8442,-1.1360,-0.3610,851.81,-1283.87,1296.33
5480,-3.8442,-0.9374,-0.4604,-1398.19,1810.24,1077.39
5490,-3.8444,-0.7733,-0.5402,23.68,1076.29,14.71
5500,-3.8447,-0.6210,-0.6077,1023.68,-1126.53,1717.65
5510,-3.8451,-0.4429,-0.6808,523.68,-1766.85,655.03
5520,-3.8456,-0.2357,-0.7657,-679.44,874.08,-673.22
5530,-3.8459,-0.0183,-0.8623,1836.18,1999.51,-657.78
5540,-3.8462,0.2240,-0.9653,1664.31,1640.56,-532.96
5550,-3.8463,0.5125,-1.0507,679.93,437.93,-486.27
5560,-3.8464,0.8337,-1.0858,1601.81,1516.60,1857.30
5570,-3.8468,1.2549,-1.0708,-1273.19,1017.21,544.74
5580,-3.8475,1.8826,-1.0258,633.06,-1060.06,-830.26
5590,-3.8483,2.6177,-0.9460,976.81,706.79,-423.89
5600,-3.8488,3.2689,-0.8118,-929.44,-1088.68,1123.11
5610,-3.8491,3.7563,-0.5842,-1570.07,100.10,904.66
5620,-3.8496,3.9999,-0.2089,820.56,1226.07,-16.78
5630,-3.8500,3.9999,0.2253,-7.57,1273.38,155.82
5640,-3.8503,3.9999,0.5187,-7.57,851.50,1547.30
5650,-3.8502,3.9291,0.5735,-7.57,-1601.62,860.35
5660,-3.8496,3.6841,0.4419,-1070.07,1413.88,485.47
5670,-3.8486,3.3439,0.2434,-429.44,569.64,157.10
5680,-3.8475,3.0396,0.0741,23.68,-837.22,172.30
5690,-3.8467,2.8601,-0.0125,1070.56,1490.30,-1359.25
5700,-3.8462,2.7969,-0.0143,-1898.19,-1588.20,-984.44
5710,-3.8462,2.7386,0.0298,-1991.94,-1822.69,-453.19
5720,-3.8464,2.6082,0.0829,-1445.07,-182.19,656.25
5730,-3.8469,2.4287,0.1294,1851.81,-1385.56,593.87
5740,-3.8475,2.2229,0.1598,-1116.94,567.20,-46.63
5750,-3.8479,1.9784,0.1530,539.31,457.46,-1530.94
5760,-3.8480,1.6876,0.0852,1242.43,-418.03,718.99
5770,-3.8479,1.3652,-0.0336,23.68,-1090.45,218.87
5780,-3.8477,1.0491,-0.1631,-1241.94,-294.25,1765.50
5790,-3.8473,0.7493,-0.2703,-1710.69,-872.99,796.51
5800,-3.8470,0.4473,-0.3451,-85.69,1407.65,-594.30
5810,-3.8467,0.1345,-0.3895,1258.06,-171.02,1483.64
5820,-3.8464,-0.1788,-0.4064,1226.81,-1859.13,-1563.29
5830,-3.8462,-0.4563,-0.3915,1117.43,-0.37,-1547.73
5840,-3.8459,-0.6633,-0.3468,1601.81,1905.33,-1766.42
5850,-3.8457,-0.8038,-0.2954,-898.19,-376.34,-1156.98
5860,-3.8453,-0.9032,-0.2639,1117.43,-1798.46,-547.49
5870,-3.8447,-0.9834,-0.2620,398.68,-1767.40,1874.45
5880,-3.8441,-1.0472,-0.2770,-1866.94,-1517.58,-1078.67
5890,-3.8748,-1.0800,-0.2902,1961.18,560.42,-1422.42
5900,-3.8743,-1.0834,-0.2771,1773.68,-1127.14,-1875.61
5910,-3.8740,-1.0948,-0.2179,1336.18,544.74,1171.33
5920,-3.8741,-1.1432,-0.1320,-132.57,122.80,1968.32
5930,-3.8744,-1.2065,-0.0698,1679.93,-877.26,1093.44
5940,-3.8748,-1.2206,-0.0612,1570.56,-924.26,-31.43
5950,-3.8749,-1.1448,-0.0969,-226.32,185.06,937.38
5960,-3.8439,-1.0231,-0.1554,1476.81,-392.88,-1187.74
5970,-3.8440,-0.9062,-0.2245,1054.93,122.99,1202.82
5980,-3.8441,-0.8118,-0.3029,8.06,-720.52,1640.14
5990,-3.8442,-0.7471,-0.3860,101.81,1248.41,-906.86
6000,-3.8444,-0.6935,-0.4727,383.06,-1392.09,-1328.92
6010,-3.8446,-0.6245,-0.5747,-757.57,-485.78,-954.10
6020,-3.8448,-0.5161,-0.6866,70.56,-1548.10,-1876.16
6030,-3.8452,-0.3726,-0.7732,1945.56,123.96,-1110.72
6040,-3.8457,-0.2145,-0.8147,320.56,1046.14,-1485.90
6050,-3.8463,-0.0083,-0.8263,554.93,-266.05,-1236.02
6060,-3.8469,0.2969,-0.8252,-1054.44,-1750.06,-1954.77
6070,-3.8475,0.6864,-0.8236,-1991.94,-1624.45,482.73
6080,-3.8481,1.1534,-0.8390,-132.57,-1420.59,123.35
6090,-3.8486,1.7220,-0.8424,-351.32,611.57,-1439.15
6100,-3.8489,2.3435,-0.7795,429.93,175.23,-657.90
6110,-3.8491,2.9789,-0.5978,-23.19,223.27,1873.47
6120,-3.8497,3.5460,-0.2946,1304.93,-509.83,-469.97
6130,-3.8505,3.9178,0.0336,1898.68,-1696.23,-453.74
6140,-3.8510,3.9999,0.2506,1492.43,304.50,-171.81
6150,-3.8508,3.9999,0.2971,-7.57,85.88,1437.99
6160,-3.8503,3.9999,0.2440,-7.57,-1961.00,625.55
6170,-3.8496,3.9923,0.1515,-7.57,-757.87,375.43
6180,-3.8486,3.9436,0.0110,-976.32,-601.62,1547.12
6190,-3.8473,3.7062,-0.1887,789.31,1413.94,1671.88
6200,-3.8458,3.2478,-0.4370,-1601.32,-149.05,-359.80
6210,-3.8444,2.7999,-0.6765,-273.19,68.79,717.90
6220,-3.8748,2.5575,-0.8243,-1601.32,1411.68,670.53
6230,-3.8746,2.5007,-0.8436,-632.57,-1510.68,498.35
6240,-3.8440,2.4980,-0.7610,101.81,20.51,-111.02
6250,-3.8447,2.4316,-0.6522,-241.94,-1401.43,1857.85
6260,-3.8455,2.2886,-0.5837,-741.94,520.32,811.22
6270,-3.8461,2.1302,-0.5450,945.56,1285.71,717.59
6280,-3.8466,1.9586,-0.5055,679.93,-1761.47,748.90
6290,-3.8470,1.7367,-0.4728,-1288.82,-699.34,-501.04
6300,-3.8473,1.4701,-0.4452,-1695.07,-512.27,670.90
6310,-3.8475,1.1786,-0.4119,179.93,-981.51,858.46
6320,-3.8477,0.8746,-0.3745,-1132.57,-716.49,546.02
6330,-3.8478,0.5613,-0.3287,-38.82,64.15,-1188.23
6340,-3.8478,0.2253,-0.2797,-148.19,1922.91,-1922.55
6350,-3.8478,-0.1283,-0.2405,851.81,203.55,-1125.55
6360,-3.8477,-0.4562,-0.1965,-413.82,1234.07,-1266.11
6370,-3.8474,-0.7395,-0.1333,1617.43,-1141.54,343.32
6380,-3.8473,-1.0051,-0.0767,1351.81,-1048.34,-797.18
6390,-3.8469,-1.2563,-0.0590,-648.19,-1798.89,-375.18
6400,-3.8462,-1.4807,-0.0886,-804.44,466.25,265.50
6410,-3.8455,-1.6816,-0.1449,-1523.19,668.95,-1687.68
6420,-3.8446,-1.8459,-0.1910,758.06,1465.45,390.32
6430,-3.8440,-1.9653,-0.2308,-273.19,-441.16,1905.82
6440,-3.8748,-2.0554,-0.2872,445.56,-1535.10,1249.51
6450,-3.8745,-2.0911,-0.3439,914.31,-754.03,-63.11
6460,-3.8743,-2.0105,-0.3901,351.81,-4.09,-1031.98
6470,-3.8741,-1.7970,-0.4441,-1335.69,-1925.84,639.83
6480,-3.8743,-1.5074,-0.5189,1992.43,-831.67,14.71
6490,-3.8746,-1.2170,-0.6063,-945.07,1590.76,-1297.91
6500,-3.8750,-0.9714,-0.6696,226.81,-1596.13,639.40
6510,-3.8444,-0.7850,-0.6980,-335.69,-1689.45,686.16
6520,-3.8451,-0.6359,-0.7303,-476.32,-1329.71,1451.72
6530,-3.8458,-0.4744,-0.7904,-1382.57,-1470.03,-876.46
6540,-3.8464,-0.2767,-0.8645,-710.69,-1157.23,-407.84
6550,-3.8469,-0.0444,-0.9403,586.18,1358.83,1732.67
6560,-3.8474,0.2523,-1.0320,-1679.44,-343.87,388.73
6570,-3.8479,0.6619,-1.1254,304.93,-93.26,263.55
6580,-3.8485,1.2209,-1.2021,726.81,-45.59,1466.49
6590,-3.8494,1.9871,-1.2678,289.31,-1872.62,-1283.63
6600,-3.8503,2.8726,-1.2296,-1648.19,1722.60,-721.25
6610,-3.8512,3.5902,-1.0104,-304.44,-1385.07,-1705.57
6620,-3.8519,3.9816,-0.6594,-445.07,-1321.17,-689.51
6630,-3.8524,3.9999,-0.2987,1648.68,-398.50,-1032.59
6640,-3.8525,3.9999,-0.0752,-7.57,1773.38,702.51
6650,-3.8523,3.9855,-0.0157,-7.57,-1617.25,-812.68
6660,-3.8514,3.8186,-0.0427,-1851.32,1992.13,-890.69
6670,-3.8501,3.4733,-0.1118,789.31,-1461.30,984.25
6680,-3.8485,2.9922,-0.2307,586.18,1694.27,-1437.74
6690,-3.8467,2.5074,-0.3873,-991.94,-1525.45,968.26
6700,-3.8452,2.1558,-0.5266,961.18,-1573.24,-641.42
6710,-3.8441,1.9790,-0.6019,-54.44,597.90,108.34
6720,-3.8750,1.9082,-0.6028,1320.56,-1043.03,-1735.60
6730,-3.8750,1.8457,-0.5490,258.06,-1152.53,-563.72
6740,-3.8439,1.7543,-0.4677,258.06,1737.98,-1391.72
6750,-3.8441,1.6632,-0.3711,554.93,144.04,-1172.79
6760,-3.8444,1.6030,-0.2568,898.68,503.23,968.02
6770,-3.8447,1.5773,-0.1405,1195.56,-871.89,-1703.67
6780,-3.8451,1.5918,-0.0559,1898.68,-1981.32,-422.18
6790,-3.8452,1.6375,-0.0140,-241.94,846.80,656.13
6800,-3.8452,1.6722,0.0186,1601.81,-1793.70,1531.19
6810,-3.8451,1.6512,0.0811,-1945.07,-1621.77,1562.50
6820,-3.8451,1.5565,0.1788,-632.57,-1621.83,937.62
6830,-3.8453,1.4131,0.2932,-757.57,-1106.38,-1671.57
6840,-3.8456,1.2472,0.3998,883.06,1534.00,1219.30
6850,-3.8458,1.0677,0.4884,-351.32,-825.74,1391.36
6860,-3.8461,0.8933,0.5710,679.93,-1482.30,-139.71
6870,-3.8462,0.7369,0.6720,-1648.19,1095.46,1657.35
6880,-3.8464,0.5774,0.7938,-1663.82,-1982.97,-1998.72
6890,-3.8466,0.3973,0.9091,1914.31,1610.47,267.15
6900,-3.8467,0.2084,0.9973,-1132.57,360.11,-1373.23
6910,-3.8466,0.0223,1.0583,-1320.07,-343.38,314.39
6920,-3.8466,-0.1469,1.0934,-1132.57,-531.25,-1263.61
6930,-3.8464,-0.2665,1.1090,1211.18,-31.56,252.08
6940,-3.8464,-0.3218,1.1167,1898.68,1968.20,705.26
6950,-3.8466,-0.3445,1.1075,-1179.44,-1047.55,-263.49
6960,-3.8466,-0.3666,1.0614,-85.69,1780.52,-966.61
6970,-3.8464,-0.4025,0.9727,1086.18,-125.73,1673.89
6980,-3.8463,-0.4519,0.8623,492.43,514.83,-451.23
6990,-3.8461,-0.5026,0.7502,-1835.69,-1610.29,-1888.98
7000,-3.8459,-0.5476,0.6399,-320.07,45.84,-1576.66
7010,-3.8459,-0.5924,0.5284,1914.31,1920.78,-186.28
7020,-3.8458,-0.6470,0.4197,179.93,-344.91,1110.35
7030,-3.8458,-0.7150,0.3165,1195.56,1733.09,-655.46
7040,-3.8457,-0.7825,0.2136,492.43,529.85,578.74
7050,-3.8458,-0.8162,0.1144,-148.19,-642.21,-827.76
7060,-3.8459,-0.8169,0.0200,-460.69,-1345.40,1406.43
7070,-3.8462,-0.8097,-0.0798,-554.44,-1423.52,265.62
7080,-3.8464,-0.7935,-0.1892,367.43,1795.29,171.69
7090,-3.8467,-0.7582,-0.3175,-1554.44,-204.71,-266.05
7100,-3.8466,-0.7034,-0.4902,-1038.82,-626.53,30.58
7110,-3.8464,-0.6210,-0.7118,1976.81,1264.22,-969.73
7120,-3.8461,-0.4910,-0.9329,523.68,905.03,-813.90
7130,-3.8457,-0.3278,-1.0978,1164.31,608.40,-1829.96
7140,-3.8456,-0.1575,-1.1849,-1945.07,-500.67,-95.95
7150,-3.8456,0.0199,-1.1913,-148.19,343.38,1810.18
7160,-3.8459,0.2190,-1.1367,-1445.07,-484.38,1481.99
7170,-3.8466,0.4780,-1.0743,39.31,-1499.57,1732.12
7180,-3.8472,0.8342,-1.0435,1195.56,-1514.71,357.24
7190,-3.8478,1.3096,-1.0510,-1210.69,-1560.91,-1845.83
7200,-3.8481,1.9337,-1.0793,-366.94,1471.25,185.42
7210,-3.8486,2.6678,-1.0486,-476.32,1847.47,325.99
7220,-3.8495,3.3875,-0.8630,1492.43,1786.44,-455.20
7230,-3.8505,3.9110,-0.5316,1601.81,1537.84,-1861.08
7240,-3.8516,3.9999,-0.1355,617.43,-39.25,-1610.47
7250,-3.8524,3.9999,0.2467,-7.57,-1336.00,765.32
7260,-3.8529,3.9999,0.5283,-7.57,-414.12,-1343.32
7270,-3.8525,3.9810,0.6339,-7.57,-367.25,532.23
7280,-3.8514,3.8801,0.5519,1570.56,1148.38,516.85
7290,-3.8499,3.6097,0.3585,664.31,-1351.81,-202.09
7300,-3.8479,3.2778,0.1637,-1945.07,1897.64,-1780.58
7310,-3.8462,3.0585,0.0614,-429.44,959.47,140.93
7320,-3.8452,2.9464,0.0704,-507.57,-134.70,890.69
7330,-3.8450,2.8473,0.1470,1148.68,1021.36,1453.25
7340,-3.8453,2.7153,0.2548,461.18,-1181.95,-1906.01
7350,-3.8461,2.5437,0.3613,-429.44,614.62,-687.01
7360,-3.8468,2.3480,0.4547,1601.81,-1745.06,-1936.83
7370,-3.8475,2.1125,0.5386,554.93,-1792.30,-561.65
7380,-3.8480,1.7985,0.5853,-1585.69,941.59,1626.04
7390,-3.8484,1.4246,0.5734,-1788.82,-1074.65,1829.22
7400,-3.8485,1.0341,0.5151,-1648.19,1393.37,297.97
7410,-3.8485,0.6459,0.4305,367.43,1939.51,0.98
7420,-3.8484,0.2898,0.3567,-1320.07,-889.40,141.42
7430,-3.8483,-0.0168,0.3141,1101.81,1656.80,-780.58
7440,-3.8479,-0.2795,0.2882,1851.81,218.69,188.11
7450,-3.8475,-0.5020,0.2675,226.81,905.70,125.55
7460,-3.8472,-0.6929,0.2391,-241.94,-1751.04,-1515.14
7470,-3.8467,-0.8593,0.1779,-679.44,-1376.40,-577.70
7480,-3.8459,-0.9772,0.0969,-1976.32,-1220.46,1687.81
7490,-3.8452,-1.0239,0.0409,-1070.07,419.92,1593.93
7500,-3.8447,-1.0105,0.0132,945.56,1247.99,-609.31
7510,-3.8444,-0.9786,-0.0148,-1335.69,1701.11,-1484.38
7520,-3.8441,-0.9651,-0.0374,-1257.57,-1876.95,-1468.81
7530,-3.8439,-0.9777,-0.0394,476.81,-767.52,1578.00
7540,-3.8749,-1.0112,-0.0310,-1132.57,-1033.20,515.50
7550,-3.8748,-1.0651,-0.0264,-1429.44,44.86,-1140.69
7560,-3.8745,-1.1268,-0.0339,-320.07,638.49,1671.81
7570,-3.8743,-1.1606,-0.0521,-226.32,-330.38,-1547.00
7580,-3.8740,-1.1533,-0.0741,-554.44,1341.43,-718.87
7590,-3.8738,-1.1189,-0.0735,383.06,-1471.01,968.57
7600,-3.8738,-1.1000,-0.0557,789.31,-1392.82,-1781.43
7610,-3.8739,-1.1343,-0.0707,-788.82,888.43,-750.12
7620,-3.8740,-1.1746,-0.1376,-1179.44,-1033.51,-734.56
7630,-3.8740,-1.1373,-0.2345,1664.31,-1596.07,1296.57
7640,-3.8741,-1.0038,-0.3207,-1570.07,1997.74,-594.24
7650,-3.8743,-0.8202,-0.3586,-476.32,-1033.26,593.08
7660,-3.8748,-0.6449,-0.3575,-976.32,-1892.27,1639.89
7670,-3.8441,-0.5157,-0.3707,1461.18,-1751.28,1358.64
7680,-3.8447,-0.4382,-0.4319,1992.43,561.46,1968.02
7690,-3.8452,-0.3506,-0.5386,-85.69,733.46,-657.10
7700,-3.8456,-0.1650,-0.6757,-866.94,-922.61,-204.22
7710,-3.8458,0.1189,-0.8092,-1116.94,1530.88,1967.41
7720,-3.8459,0.4353,-0.8859,-773.19,422.06,951.54
7730,-3.8459,0.7771,-0.9052,-273.19,-1389.83,107.60
7740,-3.8459,1.2200,-0.9435,-523.19,142.09,1560.73
7750,-3.8458,1.8561,-1.0482,164.31,-763.24,-673.77
7760,-3.8457,2.6975,-1.1943,1586.18,1831.73,-767.70
7770,-3.8461,3.5543,-1.2377,1289.31,-869.75,-768.01
7780,-3.8468,3.9999,-0.9861,-1038.82,1585.02,653.81
7790,-3.8477,3.9999,-0.5002,-7.57,1789.00,1810.55
7800,-3.8481,3.9999,-0.0614,-7.57,-23.50,1186.46
7810,-3.8481,3.9965,0.1588,-7.57,148.38,-1031.37
7820,-3.8474,3.9762,0.1722,-445.07,335.88,-1030.94
7830,-3.8461,3.9872,0.0558,961.18,-1945.37,859.68
7840,-3.8446,3.9292,-0.1198,-1632.57,-851.62,-859.31
7850,-3.8744,3.6793,-0.2847,-1054.44,679.50,593.51
7860,-3.8735,3.3387,-0.3967,-1038.82,-430.36,936.89
7870,-3.8733,3.1028,-0.4746,-632.57,1225.22,624.21
7880,-3.8735,2.9622,-0.5297,1164.31,-743.96,77.15
7890,-3.8741,2.8140,-0.5405,-835.69,208.86,1639.59
7900,-3.8749,2.6184,-0.4907,195.56,-1182.01,1873.90
7910,-3.8444,2.3741,-0.4091,-835.69,1192.57,311.52
7920,-3.8451,2.0831,-0.3518,-101.32,-354.80,452.27
7930,-3.8457,1.7585,-0.3364,-1351.32,-1027.22,1702.39
7940,-3.8461,1.4030,-0.3524,1101.81,940.92,718.08
7950,-3.8464,1.0336,-0.3857,-413.82,-1106.69,-547.61
7960,-3.8466,0.6859,-0.4163,304.93,-1372.99,1749.21
7970,-3.8467,0.3749,-0.4202,-195.07,-1279.97,-1125.85
7980,-3.8468,0.0963,-0.3832,-7.57,-1780.58,-157.10
7990,-3.8468,-0.1595,-0.3210,336.18,-1046.69,14.83
8000,-3.8469,-0.4042,-0.2620,-413.82,-1078.49,-1672.55
8010,-3.8468,-0.6328,-0.2141,273.68,-1516.42,1671.33
8020,-3.8466,-0.8323,-0.1714,-991.94,608.09,1124.57
8030,-3.8463,-1.0010,-0.1460,1476.81,-1923.52,-1922.24
8040,-3.8459,-1.1233,-0.1696,-116.94,1326.11,921.57
8050,-3.8455,-1.1666,-0.2412,226.81,-1689.70,984.01
8060,-3.8448,-1.1516,-0.3224,-1320.07,1138.31,1312.01
8070,-3.8444,-1.1432,-0.3634,601.81,-1252.26,-1391.30
8080,-3.8441,-1.1912,-0.3352,1679.93,1497.74,-1828.86
8090,-3.8442,-1.3063,-0.2715,-460.69,1106.99,-94.42
8100,-3.8444,-1.4672,-0.2332,804.93,1263.06,1858.83
8110,-3.8445,-1.6172,-0.2357,211.18,-1830.99,-1797.36
8120,-3.8444,-1.6932,-0.2767,1008.06,1840.58,1124.51
8130,-3.8441,-1.6825,-0.3846,-726.32,590.39,-531.80
8140,-3.8750,-1.6144,-0.5450,648.68,-1222.05,-219.54
8150,-3.8748,-1.5088,-0.6836,1367.43,-1753.17,-938.60
8160,-3.8748,-1.3561,-0.7513,-1116.94,512.63,-657.59
8170,-3.8749,-1.1755,-0.7611,-1570.07,-158.94,1732.85
8180,-3.8440,-0.9974,-0.7677,1539.31,-1408.57,1014.10
8190,-3.8446,-0.8092,-0.8300,336.18,1748.05,154.72
8200,-3.8453,-0.5962,-0.9680,429.93,1779.66,1029.60
8210,-3.8458,-0.3748,-1.1675,-304.44,108.15,1685.61
8220,-3.8459,-0.1417,-1.4010,39.31,-1422.61,1669.56
8230,-3.8459,0.1361,-1.6230,1867.43,687.19,-721.50
8240,-3.8458,0.4814,-1.7823,1429.93,250.24,1653.08
8250,-3.8458,0.9058,-1.8571,1633.06,-139.71,543.33
8260,-3.8462,1.4536,-1.8606,-54.44,-1701.42,277.59
8270,-3.8469,2.1666,-1.8160,-1929.44,1846.56,-128.66
8280,-3.8473,3.0259,-1.7515,1336.18,-448.91,1840.15
8290,-3.8472,3.7908,-1.6791,-679.44,-181.64,1512.15
8300,-3.8463,3.9999,-1.5516,1226.81,1085.51,-1893.92
8310,-3.8448,3.9999,-1.3212,-7.57,1398.38,1418.82
8320,-3.8749,3.9999,-1.0015,-7.57,-1101.62,-1955.75
8330,-3.8743,3.9835,-0.6544,-7.57,-179.75,-1627.01
8340,-3.8738,3.9785,-0.3832,1898.68,242.13,-876.28
8350,-3.8728,3.9264,-0.2401,1258.06,-1039.12,30.46
8360,-3.8716,3.6511,-0.1960,-1413.82,1273.25,1296.39
8370,-3.8701,3.1525,-0.2070,-648.19,-1086.67,1171.45
8380,-3.8689,2.6475,-0.2340,-476.32,1506.10,-687.93
8390,-3.8682,2.3240,-0.2412,-1116.94,-1948.00,-1312.99
8400,-3.8682,2.1951,-0.2233,1476.81,1129.52,1249.51
8410,-3.8688,2.1486,-0.2117,976.81,-573.85,1015.14
8420,-3.8696,2.1194,-0.2109,-976.32,910.40,-1625.43
8430,-3.8705,2.0801,-0.1965,-710.69,1004.09,-1234.80
8440,-3.8713,1.9912,-0.1691,-1741.94,-1152.22,1858.95
8450,-3.8722,1.8746,-0.1625,-1116.94,-1636.78,1265.26
8460,-3.8729,1.7809,-0.1936,-38.82,-793.27,984.01
8470,-3.8735,1.6996,-0.2534,-38.82,-777.83,-437.93
8480,-3.8738,1.6028,-0.3345,1554.93,-434.20,186.95
8490,-3.8741,1.4894,-0.4170,1164.31,1190.61,-281.92
8500,-3.8744,1.3578,-0.4626,-1351.32,-1372.13,-1672.73
8510,-3.8748,1.1958,-0.4431,1804.93,783.87,1889.71
8520,-3.8440,1.0031,-0.3639,1070.56,-716.43,-297.79
8530,-3.8444,0.8121,-0.2687,398.68,1423.83,1733.64
8540,-3.8447,0.6594,-0.2063,-38.82,1610.90,-1875.55
8550,-3.8448,0.5585,-0.1932,414.31,1595.03,124.57
8560,-3.8448,0.5111,-0.2059,-507.57,-733.34,1405.82
8570,-3.8447,0.5005,-0.1974,1429.93,1641.60,1405.82
8580,-3.8447,0.4929,-0.1287,70.56,-1264.65,1890.20
8590,-3.8448,0.4501,-0.0023,-898.19,-467.83,234.07
8600,-3.8453,0.3396,0.1371,1617.43,-296.02,-812.56
8610,-3.8458,0.1506,0.2413,-523.19,1547.49,1797.12
8620,-3.8463,-0.0947,0.2706,-710.69,-1109.13,-1952.70
8630,-3.8466,-0.3307,0.1996,-116.94,-1343.99,906.74
8640,-3.8466,-0.4436,0.0631,1679.93,1561.83,-984.01
8650,-3.8462,-0.3789,-0.0493,-773.19,92.83,-1671.75
8660,-3.8458,-0.2322,-0.0892,-491.94,1702.33,1515.50
8670,-3.8457,-0.1282,-0.0735,-1710.69,593.26,-125.18
8680,-3.8456,-0.1189,-0.0433,-398.19,-1390.93,1749.82
8690,-3.8457,-0.1868,-0.0483,789.31,-1531.49,-281.37
8700,-3.8457,-0.2722,-0.1021,101.81,1827.76,843.63
8710,-3.8457,-0.3289,-0.1775,1164.31,-1047.42,1234.13
8720,-3.8456,-0.3447,-0.2622,1914.31,1296.20,-1562.87
8730,-3.8452,-0.3336,-0.3635,-116.94,-1547.61,733.83
8740,-3.8447,-0.3278,-0.4977,1304.93,1483.70,1483.64
8750,-3.8440,-0.3362,-0.6736,-1945.07,311.83,1233.40
8760,-3.8744,-0.3419,-0.8475,976.81,1796.20,-985.72
8770,-3.8734,-0.3491,-0.9698,242.43,-469.42,-767.33
8780,-3.8726,-0.3524,-1.0286,-679.44,-125.73,-830.08
8790,-3.8719,-0.3380,-1.0308,-1101.32,358.64,1919.86
8800,-3.8717,-0.3156,-1.0262,742.43,77.45,1966.74
8810,-3.8717,-0.2755,-1.0670,-382.57,655.58,-1627.01
8820,-3.8717,-0.1752,-1.1241,742.43,-563.05,1482.24
8830,-3.8717,0.0154,-1.1398,1586.18,124.63,607.18
8840,-3.8718,0.4263,-1.5668,1976.81,-1890.62,1060.24
8850,-3.8694,1.1465,-2.3513,-1429.44,-546.08,-628.11
8860,-3.8662,2.0448,-2.6121,-1241.94,-966.55,-614.01
8870,-3.8646,2.9050,-2.0367,1742.43,1660.22,-239.50
8880,-3.8655,2.9221,-0.7759,-148.19,-697.51,1808.47
8890,-3.8691,1.8983,0.4764,-1960.69,693.18,14.10
8900,-3.8722,0.9199,0.9135,-1007.57,988.04,-530.33
8910,-3.8727,0.8282,0.4783,1758.06,923.65,-748.23
8920,-3.8705,1.1981,-0.0830,-1976.32,1220.34,-686.58
8930,-3.8685,1.0917,-0.1132,1367.43,1377.32,-1609.56
8940,-3.8687,0.5455,0.0903,-257.57,1517.70,312.26
8950,-3.8700,0.1237,0.0364,1836.18,-436.46,1640.75
8960,-3.8710,0.0365,-0.2889,-163.82,656.43,-1765.56
8970,-3.8711,0.1243,-0.6088,679.93,-984.31,1921.26
8980,-3.8708,0.2684,-0.7286,-85.69,-1921.69,-1454.35
8990,-3.8706,0.4359,-0.6959,-1632.57,-1265.14,-126.46
9000,-3.8704,0.5989,-0.6562,-195.07,-1077.33,1545.47
9010,-3.8704,0.7601,-0.6982,664.31,1.16,-110.66
9020,-3.8702,0.8921,-0.7914,1304.93,-1373.54,1420.47
9030,-3.8702,0.9607,-0.8351,-1804.44,-1295.17,-1360.96
9040,-3.8704,0.9829,-0.7737,-1023.19,1111.21,-1907.90
9050,-3.8708,1.0062,-0.6484,1820.56,970.64,-860.90
9060,-3.8713,1.0461,-0.5366,804.93,1001.95,373.72
9070,-3.8718,1.0776,-0.4681,1914.31,-685.49,-1594.85
9080,-3.8721,1.0731,-0.4169,1945.56,80.20,1936.58
9090,-3.8723,1.0267,-0.3556,1367.43,-1357.30,-657.10
9100,-3.8726,0.9551,-0.2791,-570.07,-1513.67,-313.23
9110,-3.8728,0.8777,-0.1958,-1741.94,283.08,1968.20
9120,-3.8732,0.8086,-0.1095,351.81,-1060.79,-1094.18
9130,-3.8734,0.7568,-0.0168,-491.94,1985.90,109.13
9140,-3.8738,0.7178,0.0724,883.06,1845.21,-1546.94
9150,-3.8740,0.6765,0.1414,-116.94,1266.97,-1390.50
9160,-3.8741,0.6147,0.1749,-1398.19,-1904.97,-1984.13
9170,-3.8741,0.5328,0.1862,-1304.44,-1608.22,-1905.94
9180,-3.8740,0.4540,0.2119,211.18,-170.84,1344.06
9190,-3.8740,0.3939,0.2620,-1882.57,-874.15,-499.63
9200,-3.8740,0.3474,0.3192,-1570.07,1531.98,-1812.01
9210,-3.8741,0.2982,0.3663,476.81,860.05,1594.36
9220,-3.8744,0.2533,0.4075,-1820.07,-1108.83,-358.70
9230,-3.8745,0.2322,0.4623,429.93,156.74,-952.33
9240,-3.8745,0.2228,0.5259,1726.81,-827.70,703.98
9250,-3.8745,0.1901,0.5551,523.68,-687.07,1516.60
9260,-3.8744,0.1196,0.5151,336.18,-952.76,-748.96
9270,-3.8740,0.0270,0.4194,-679.44,1937.68,1266.60
9280,-3.8737,-0.0581,0.3171,-538.82,1687.50,766.42
9290,-3.8734,-0.1132,0.2594,570.56,609.25,-1655.64
9300,-3.8733,-0.1398,0.2584,1523.68,1218.51,-1187.01
9310,-3.8733,-0.1594,0.2744,-1882.57,1093.44,-1937.01
9320,-3.8734,-0.2007,0.2566,-398.19,-859.74,-624.51
9330,-3.8734,-0.2740,0.1923,-1679.44,858.95,-1515.14
9340,-3.8734,-0.3677,0.1107,929.93,624.45,-312.13
9350,-3.8734,-0.4641,0.0327,945.56,-1813.23,-234.19
9360,-3.8734,-0.5312,-0.0413,601.81,202.21,1343.81
9370,-3.8735,-0.5566,-0.1121,8.06,-1266.66,968.63
9380,-3.8738,-0.5801,-0.2000,758.06,1670.78,-1484.62
9390,-3.8740,-0.6337,-0.3425,1758.06,-1579.28,-234.80
9400,-3.8740,-0.6809,-0.5533,-1101.32,170.59,639.95
9410,-3.8740,-0.6465,-1.1168,851.81,1186.16,1842.65
9420,-3.8721,0.2742,-2.5012,1258.06,1061.22,1685.30
9430,-3.8661,1.6434,-3.4707,-898.19,-155.76,713.81
9440,-3.8628,1.6158,-2.4442,-1632.57,-246.83,-53.71
9450,-3.8651,0.3669,-1.0415,-1163.82,-856.26,-411.07
9460,-3.8677,-0.4385,-0.2201,-1023.19,-1311.83,1966.67
9470,-3.8708,-0.4725,0.4955,-116.94,-157.17,218.26
9480,-3.8737,-0.2856,0.2509,-476.32,-563.48,-1514.71
9490,-3.8719,0.2457,-0.6144,-554.44,124.39,1484.86
9500,-3.8695,0.7540,-0.8748,-538.82,1359.80,1311.28
9510,-3.8699,0.7461,-0.6780,523.68,32.71,-986.08
9520,-3.8710,0.5353,-0.6570,-491.94,1220.15,-1782.59
9530,-3.8716,0.4452,-0.7812,523.68,-92.71,-360.72
9540,-3.8713,0.4419,-0.8835,992.43,0.85,60.97
9550,-3.8710,0.4919,-0.9337,570.56,-1092.90,-142.40
9560,-3.8704,0.6101,-0.9332,-1023.19,485.29,232.54
9570,-3.8702,0.7156,-0.8888,-1898.19,548.03,-64.33
9580,-3.8704,0.7666,-0.8297,-398.19,-1764.28,-1126.77
9590,-3.8707,0.7963,-0.7881,-1866.94,1798.34,-298.52
9600,-3.8710,0.8081,-0.7894,1929.93,-873.47,1514.04
9610,-3.8711,0.8047,-0.8165,-554.44,-1045.35,139.04
9620,-3.8712,0.7937,-0.8212,-991.94,-514.10,-861.02
9630,-3.8712,0.7631,-0.7795,1601.81,-1107.85,1248.35
9640,-3.8715,0.7061,-0.7076,1679.93,220.21,-110.90
9650,-3.8717,0.6334,-0.6245,-1616.94,1423.22,-423.28
9660,-3.8719,0.5533,-0.5331,1086.18,63.72,123.78
9670,-3.8724,0.4642,-0.4392,-1163.82,-233.34,-1563.60
9680,-3.8728,0.3793,-0.3488,-570.07,-217.90,1155.33
9690,-3.8732,0.3068,-0.2627,554.93,-639.89,-1688.23
9700,-3.8734,0.2401,-0.1804,-726.32,-1624.45,-1953.67
9710,-3.8737,0.1720,-0.1034,-1257.57,906.68,-250.37
9720,-3.8738,0.0919,-0.0270,-1976.32,-1234.07,-1625.24
9730,-3.8739,-0.0131,0.0591,-226.32,547.00,859.31
9740,-3.8741,-0.1350,0.1707,-1663.82,-421.94,1500.06
9750,-3.8745,-0.2565,0.3147,-1273.19,1859.07,-1374.69
9760,-3.8749,-0.3680,0.4681,-820.07,296.33,1781.86
9770,-3.8440,-0.4545,0.5909,898.68,-63.23,-61.65
9780,-3.8440,-0.4974,0.6619,1836.18,-344.67,751.10
9790,-3.8440,-0.4996,0.6710,336.18,733.40,-1358.09
9800,-3.8439,-0.4971,0.6091,54.93,1905.27,1563.78
9810,-3.8439,-0.5272,0.5009,383.06,1983.40,-1061.34
9820,-3.8439,-0.5879,0.3793,523.68,123.96,-1983.40
9830,-3.8439,-0.6383,0.2356,758.06,561.34,31.98
9840,-3.8439,-0.6432,0.0591,-1695.07,-1829.41,984.80
9850,-3.8750,-0.6145,-0.1176,1679.93,-423.16,1656.31
9860,-3.8749,-0.5909,-0.2878,1351.81,967.53,1218.51
9870,-3.8749,-0.5743,-0.4934,367.43,-829.28,-1328.74
9880,-3.8748,-0.5577,-0.9431,-1507.57,858.22,249.02
9890,-3.8733,0.0610,-2.0842,617.43,-704.22,732.48
9900,-3.8713,1.5380,-3.5101,-179.44,1218.81,-394.71
9910,-3.8683,2.6362,-4.0000,867.43,-1293.88,774.35
9920,-3.8660,2.0872,-3.0914,1445.56,5.13,-1414.06
9930,-3.8696,0.5677,-0.8937,-835.69,300.90,9.58
9940,-3.8739,-0.1942,0.6769,679.93,1610.47,201.35
9950,-3.8744,0.0809,0.8772,-851.32,-1344.18,-76.84
9960,-3.8740,0.6252,0.2814,-1632.57,281.37,892.33
9970,-3.8734,0.8623,-0.4575,39.31,16.85,-374.45
9980,-3.8723,0.8015,-0.9353,-1616.94,1439.15,483.46
9990,-3.8717,0.7153,-1.1345,-1398.19,282.78,1920.04
10000,-3.8710,0.6793,-1.3115,-429.44,-1217.41,1607.12
10010,-3.8702,0.6021,-1.4639,-1038.82,126.28,1466.19
10020,-3.8702,0.4360,-1.4392,1070.56,626.16,840.88
10030,-3.8708,0.3059,-1.2930,-179.44,-217.96,1887.76
10040,-3.8716,0.2721,-1.1068,-835.69,-1499.45,1919.31
10050,-3.8722,0.3055,-0.9393,-1163.82,-1671.39,1279.05
10060,-3.8724,0.3516,-0.8657,-882.57,-233.83,419.98
10070,-3.8724,0.3622,-0.8894,1008.06,1188.17,998.29
10080,-3.8723,0.3347,-0.9580,-1632.57,-1843.08,-1001.77
10090,-3.8721,0.2782,-1.0042,-1148.19,1375.61,-1080.02
