timestamp_ms,ax,ay,az,gx,gy,gz
0,-3.8728,0.8906,-0.0393,-1054.44,345.70,390.32
10,-3.8732,0.8392,0.1069,-1991.94,-1029.54,562.38
20,-3.8737,0.8463,0.2314,-570.07,1689.09,1625.18
30,-3.8741,0.8694,0.2819,336.18,1626.65,-1296.45
40,-3.8744,0.8832,0.2377,-710.69,79.77,391.17
50,-3.8745,0.9021,0.1128,1054.93,-1576.42,-1390.20
60,-3.8743,0.9418,-0.0516,-523.19,-1560.79,1093.93
70,-3.8740,0.9766,-0.1959,554.93,1392.46,-672.00
80,-3.8737,0.9811,-0.2720,1008.06,-1076.23,483.95
90,-3.8735,0.9608,-0.2732,1586.18,1189.39,655.70
100,-3.8737,0.9482,-0.2380,-1007.57,1033.08,-1047.42
110,-3.8738,0.9633,-0.2128,1383.06,1533.08,-1859.86
120,-3.8739,0.9941,-0.2035,-695.07,767.46,-1969.18
130,-3.8739,1.0331,-0.2020,-741.94,1955.02,358.95
140,-3.8739,1.0757,-0.2081,242.43,-1857.36,733.95
150,-3.8739,1.1002,-0.2167,1695.56,1361.45,-1781.68
160,-3.8738,1.0936,-0.2291,836.18,267.76,140.20
170,-3.8738,1.0642,-0.2399,-7.57,-1326.05,-1359.86
180,-3.8737,1.0088,-0.2202,226.81,1298.95,874.51
190,-3.8737,0.9254,-0.1550,1133.06,-185.55,171.39
200,-3.8739,0.8445,-0.0631,-1538.82,158.02,-1031.56
210,-3.8741,0.8025,0.0240,101.81,-76.48,-1609.56
220,-3.8744,0.8066,0.0759,-1273.19,-920.35,1093.75
230,-3.8746,0.8315,0.0857,-741.94,1720.28,-1046.75
240,-3.8746,0.8459,0.0706,-1554.44,-1029.66,-1781.13
250,-3.8745,0.8447,0.0519,289.31,1032.90,890.75
260,-3.8745,0.8347,0.0377,133.06,-1357.73,-828.06
270,-3.8745,0.8354,0.0148,-1148.19,829.71,-374.94
280,-3.8745,0.8785,-0.0309,-1054.44,1892.21,-968.75
290,-3.8745,0.9735,-0.0837,461.18,48.58,-484.44
300,-3.8744,1.0872,-0.1088,617.43,1283.14,1734.19
310,-3.8744,1.1613,-0.1030,-835.69,-1919.80,-453.37
320,-3.8743,1.1627,-0.0947,648.68,-1185.24,156.01
330,-3.8743,1.1086,-0.1023,836.18,-122.74,1343.51
340,-3.8743,1.0482,-0.1219,1914.31,-1091.61,-125.24
350,-3.8741,1.0177,-0.1475,-1820.07,392.64,-859.62
360,-3.8740,1.0265,-0.1866,-1726.32,1126.95,-719.06
370,-3.8738,1.0680,-0.2294,-601.32,111.33,249.63
380,-3.8738,1.1267,-0.2462,711.18,-1357.30,-172.36
390,-3.8738,1.1816,-0.2329,226.81,486.57,-328.61
400,-3.8738,1.2065,-0.2211,-741.94,-1810.24,437.01
410,-3.8739,1.1852,-0.2510,-1554.44,-294.56,1093.26
420,-3.8739,1.1320,-0.3392,-288.82,-122.74,936.95
430,-3.8738,1.0768,-0.4497,898.68,580.32,-1594.42
440,-3.8735,1.0311,-0.5266,1836.18,-1560.42,-110.29
450,-3.8732,0.9930,-0.5585,-7.57,595.70,905.21
460,-3.8730,0.9657,-0.5391,-882.57,517.52,-1204.22
470,-3.8730,0.9491,-0.4535,-382.57,-998.17,-344.85
480,-3.8732,0.9193,-0.3403,1492.43,1954.96,1999.08
490,-3.8734,0.8528,-0.2681,1679.93,439.27,1046.20
500,-3.8737,0.7584,-0.2625,1164.31,1689.15,-953.67
510,-3.8737,0.6567,-0.3018,1086.18,-1592.29,-1531.80
520,-3.8735,0.5723,-0.3483,70.56,1376.28,1546.26
530,-3.8734,0.5227,-0.3615,1258.06,-577.03,1718.02
540,-3.8733,0.5050,-0.3185,-1085.69,1735.35,93.02
550,-3.8734,0.5073,-0.2361,648.68,-764.65,-1672.55
560,-3.8735,0.5139,-0.1552,945.56,1782.23,390.14
570,-3.8738,0.5126,-0.1063,1789.31,141.60,1390.32
580,-3.8739,0.5004,-0.0945,1617.43,-1608.40,359.13
590,-3.8740,0.4758,-0.1080,54.93,-92.77,1796.63
600,-3.8740,0.4465,-0.1420,914.31,-1827.21,1640.38
610,-3.8740,0.4324,-0.2092,1164.31,1828.98,-328.43
620,-3.8739,0.4429,-0.3079,-648.19,1219.54,-281.68
630,-3.8737,0.4664,-0.4045,695.56,594.60,921.26
640,-3.8735,0.4886,-0.4752,-288.82,219.60,671.08
650,-3.8735,0.4987,-0.5267,-1445.07,-827.21,1467.77
660,-3.8737,0.4840,-0.5741,-163.82,579.04,-594.79
670,-3.8738,0.4460,-0.6288,1961.18,-1483.46,-1126.16
680,-3.8739,0.4087,-0.6979,1101.81,-483.52,1326.84
690,-3.8740,0.3885,-0.7811,320.56,-1327.33,607.97
700,-3.8741,0.3899,-0.8795,1742.43,16.36,1998.47
710,-3.8741,0.4181,-1.0060,1914.31,-577.39,1373.23
720,-3.8741,0.4624,-1.1674,1523.68,-764.83,-1830.14
730,-3.8740,0.5022,-1.3483,-804.44,-1421.02,1263.31
740,-3.8739,0.5338,-1.5256,289.31,-577.15,-658.94
750,-3.8737,0.5723,-1.6794,336.18,719.79,-799.87
760,-3.8733,0.6223,-1.8164,1258.06,1032.35,496.70
770,-3.8729,0.6776,-1.9723,-335.69,-498.84,1105.77
780,-3.8724,0.7433,-2.1356,-1257.57,-451.84,-566.41
790,-3.8717,0.8213,-2.2251,-851.32,-1357.97,542.66
800,-3.8713,0.9006,-2.1554,1133.06,-810.91,1323.73
810,-3.8715,0.9917,-1.9218,-710.69,111.08,1370.79
820,-3.8719,1.0891,-1.6252,-1054.44,-1982.48,277.47
830,-3.8727,1.1382,-1.3595,-585.69,-29.17,-393.86
840,-3.8732,1.1290,-1.1545,1695.56,1986.57,-315.19
850,-3.8733,1.0862,-1.0468,523.68,220.95,1716.49
860,-3.8732,1.0126,-1.0535,-960.69,-1982.30,935.42
870,-3.8729,0.9131,-1.1317,1617.43,1158.20,1560.42
880,-3.8727,0.8004,-1.2231,883.06,-857.60,-2.26
890,-3.8723,0.6794,-1.2854,-1538.82,-560.97,1091.31
900,-3.8722,0.5496,-1.3075,-1023.19,-529.97,-1002.56
910,-3.8721,0.4178,-1.2969,-1648.19,641.66,1606.81
920,-3.8721,0.2880,-1.2649,1492.43,-1999.21,1606.81
930,-3.8722,0.1552,-1.2302,867.43,-1905.70,-596.25
940,-3.8722,0.0206,-1.2057,-132.57,-1468.51,794.43
950,-3.8722,-0.0962,-1.1963,-1351.32,1671.88,91.37
960,-3.8722,-0.1829,-1.1954,-304.44,-1109.62,-1033.63
970,-3.8719,-0.2421,-1.1918,601.81,-1000.37,1700.74
980,-3.8717,-0.2794,-1.1702,1023.68,-531.74,325.74
990,-3.8717,-0.2963,-1.1235,242.43,-1766.17,-721.07
1000,-3.8717,-0.2826,-1.0674,-1913.82,202.51,-814.70
1010,-3.8717,-0.2295,-1.0131,-163.82,-609.99,-1595.89
1020,-3.8717,-0.1572,-0.9623,-1366.94,-1656.74,-1377.01
1030,-3.8717,-0.0969,-0.9110,-116.94,843.38,-814.39
1040,-3.8717,-0.0598,-0.8468,-398.19,-593.99,1873.17
1050,-3.8718,-0.0372,-0.7738,351.81,-375.12,-1689.21
1060,-3.8719,-0.0078,-0.7179,-757.57,968.63,-860.90
1070,-3.8719,0.0444,-0.7001,-991.94,124.94,-1220.15
1080,-3.8718,0.1139,-0.7125,1695.56,-1609.31,920.47
1090,-3.8718,0.1711,-0.7178,-1413.82,797.06,-657.65
1100,-3.8717,0.1943,-0.6921,1914.31,125.31,326.72
1110,-3.8718,0.1957,-0.6456,883.06,-593.38,-829.53
1120,-3.8718,0.1962,-0.5991,1054.93,1359.74,170.59
1130,-3.8719,0.2101,-0.5795,1117.43,-687.13,1233.15
1140,-3.8719,0.2434,-0.5912,-1101.32,1828.49,717.59
1150,-3.8719,0.2782,-0.6112,-835.69,328.55,-1719.91
1160,-3.8718,0.2953,-0.6287,-382.57,1766.11,76.90
1170,-3.8718,0.2970,-0.6415,1804.93,-468.20,-1641.91
1180,-3.8717,0.2875,-0.6169,-1976.32,1891.17,108.09
1190,-3.8718,0.2684,-0.5205,804.93,1031.80,1561.28
1200,-3.8721,0.2588,-0.3636,-1632.57,1375.49,967.71
1210,-3.8726,0.2660,-0.1841,1133.06,1453.61,-203.86
1220,-3.8729,0.2582,-0.0312,-1945.07,437.99,1390.26
1230,-3.8733,0.2150,0.0444,1054.93,0.49,1703.06
1240,-3.8735,0.1582,0.0356,-476.32,1687.87,-671.81
1250,-3.8735,0.1217,-0.0176,258.06,562.81,1671.94
1260,-3.8735,0.1226,-0.0765,-413.82,1750.18,-1750.06
1270,-3.8735,0.1420,-0.1173,-304.44,-1796.69,-531.43
1280,-3.8734,0.1599,-0.1252,-1820.07,984.62,93.51
1290,-3.8735,0.1779,-0.1074,476.81,-30.94,-1625.31
1300,-3.8737,0.2015,-0.0790,-1226.32,-1749.69,1921.63
1310,-3.8738,0.2202,-0.0563,1804.93,1890.99,718.57
1320,-3.8740,0.2112,-0.0450,195.56,797.30,-375.12
1330,-3.8741,0.1758,-0.0364,-960.69,-1765.26,-1281.37
1340,-3.8743,0.1333,-0.0294,-1491.94,-655.94,-843.87
1350,-3.8743,0.0980,-0.0293,1070.56,234.62,765.56
1360,-3.8744,0.0736,-0.0457,554.93,250.18,-781.31
1370,-3.8743,0.0603,-0.0909,1429.93,-1843.63,78.00
1380,-3.8741,0.0609,-0.1477,-273.19,359.44,624.82
1390,-3.8740,0.0857,-0.1740,-195.07,1093.81,-1578.43
1400,-3.8739,0.1375,-0.1624,-1023.19,1734.50,780.88
1410,-3.8740,0.2090,-0.1438,1601.81,-781.01,1999.63
1420,-3.8741,0.2886,-0.1537,-1241.94,1594.12,1499.69
1430,-3.8743,0.3544,-0.2040,945.56,328.67,-203.43
1440,-3.8741,0.3804,-0.2860,1367.43,1891.30,-1031.68
1450,-3.8739,0.3500,-0.4000,695.56,-608.64,-156.86
1460,-3.8734,0.2632,-0.5269,804.93,797.55,1358.58
1470,-3.8730,0.1407,-0.6121,1695.56,562.99,-1297.91
1480,-3.8728,0.0238,-0.6072,-1976.32,1656.49,436.28
1490,-3.8730,-0.0593,-0.5077,-945.07,-1718.75,764.40
1500,-3.8737,-0.1158,-0.3867,414.31,-968.87,1358.34
1510,-3.8744,-0.1527,-0.3350,1179.93,-1484.62,-1407.04
1520,-3.8749,-0.1737,-0.3702,461.18,1140.32,639.95
1530,-3.8440,-0.1416,-0.5044,1773.68,624.63,952.39
1540,-3.8440,0.7194,-1.6210,1883.06,-547.18,483.34
1550,-3.8707,2.1912,-2.9084,86.18,517.03,-1237.55
1560,-3.8665,2.2297,-2.1140,476.81,-276.98,213.01
1570,-3.8690,0.4963,-0.1190,1414.31,1410.58,-35.40
1580,-3.8718,-0.6851,0.7660,-460.69,766.54,281.01
1590,-3.8712,-0.1893,0.4062,320.56,-1938.84,-1764.16
1600,-3.8694,0.5043,0.1522,-226.32,15.20,-233.58
1610,-3.8696,0.2688,0.2413,554.93,-514.65,1953.37
1620,-3.8704,-0.0422,-0.0568,-1585.69,-1108.89,797.30
1630,-3.8699,0.2307,-0.3427,-1398.19,749.88,968.63
1640,-3.8699,0.4282,-0.2450,1539.31,141.05,-1766.30
1650,-3.8706,0.3386,-0.2341,-1179.44,641.42,-1594.24
1660,-3.8708,0.1759,-0.2751,-648.19,-1968.14,1452.64
1670,-3.8710,0.0891,-0.2020,-1476.32,781.56,-1156.80
1680,-3.8712,0.1736,-0.1222,-585.69,-1859.25,-234.80
1690,-3.8712,0.3119,-0.1667,-1773.19,359.68,31.01
1700,-3.8712,0.3517,-0.2710,-70.07,-1343.20,-1687.87
1710,-3.8712,0.3102,-0.3467,1023.68,1313.17,-813.05
1720,-3.8712,0.2708,-0.3755,-288.82,-374.45,-1797.61
1730,-3.8712,0.2589,-0.3857,-1335.69,-62.01,-1141.42
1740,-3.8711,0.2719,-0.4080,1148.68,-1374.51,-594.54
1750,-3.8708,0.3241,-0.4290,-1195.07,-218.26,-1844.60
1760,-3.8707,0.3961,-0.4543,1492.43,1094.36,30.40
1770,-3.8708,0.4084,-0.5055,-1288.82,1844.48,-79.04
1780,-3.8707,0.3824,-0.5642,289.31,-702.33,-1657.29
1790,-3.8705,0.4501,-0.6368,961.18,-218.02,1155.09
1800,-3.8700,0.5928,-0.7424,1617.43,-1514.77,-1766.91
1810,-3.8695,0.6378,-0.7861,-116.94,969.85,420.41
1820,-3.8696,0.5800,-0.6924,1648.68,-623.78,-1064.09
1830,-3.8700,0.5294,-0.5216,-1757.57,-623.90,-954.53
1840,-3.8705,0.5059,-0.3536,-226.32,1235.35,-1891.66
1850,-3.8710,0.4893,-0.2465,758.06,-1264.65,-1985.11
1860,-3.8713,0.4686,-0.2078,-1366.94,454.04,-391.11
1870,-3.8715,0.4508,-0.2034,-7.57,1407.10,-406.68
1880,-3.8715,0.4429,-0.1954,1711.18,1969.60,-312.93
1890,-3.8713,0.4369,-0.1642,695.56,-1014.77,890.20
1900,-3.8713,0.4198,-0.1189,-70.07,-1014.83,1249.63
1910,-3.8713,0.3937,-0.0754,1742.43,782.04,140.38
1920,-3.8715,0.3677,-0.0353,-1601.32,-1655.52,1374.82
1930,-3.8716,0.3446,-0.0035,-929.44,-514.95,1234.25
1940,-3.8717,0.3187,0.0063,117.43,-452.45,828.06
1950,-3.8718,0.2844,0.0045,804.93,813.11,906.25
1960,-3.8719,0.2426,0.0081,414.31,578.67,1031.25
1970,-3.8721,0.1971,0.0181,-945.07,1031.68,1156.25
1980,-3.8722,0.1538,0.0256,1242.43,-1687.13,-1765.62
1990,-3.8722,0.1172,0.0356,-304.44,-718.51,390.62
2000,-3.8723,0.0817,0.0586,-991.94,562.68,-1249.94
2010,-3.8723,0.0392,0.0845,-1538.82,-499.88,93.81
2020,-3.8726,-0.0096,0.0983,1023.68,-1187.44,-656.13
2030,-3.8727,-0.0552,0.0947,-1226.32,593.69,578.31
2040,-3.8729,-0.0887,0.0842,945.56,140.50,812.68
2050,-3.8732,-0.1055,0.0834,648.68,-1203.31,422.00
2060,-3.8735,-0.1031,0.0975,-1491.94,-1312.74,-1499.88
2070,-3.8739,-0.0791,0.1171,-1195.07,499.76,-609.19
2080,-3.8741,-0.0370,0.1270,1883.06,-1000.18,765.81
2090,-3.8745,0.0140,0.1217,-726.32,265.50,-140.38
2100,-3.8746,0.0802,0.1167,1804.93,-421.88,1281.43
2110,-3.8748,0.1577,0.1158,-1726.32,-1062.38,656.43
2120,-3.8749,0.2161,0.0814,195.56,-1171.57,-1874.82
2130,-3.8749,0.2415,-0.0039,-335.69,-1577.76,-874.88
2140,-3.8748,0.2415,-0.0906,-1085.69,-499.57,-1015.69
2150,-3.8746,0.2030,-0.1434,-1085.69,406.68,-687.68
2160,-3.8745,0.1138,-0.1652,1992.43,1640.99,1515.32
2170,-3.8745,-0.0057,-0.1694,-1429.44,-1140.44,249.63
2180,-3.8748,-0.1200,-0.1685,-726.32,-1671.94,-531.62
2190,-3.8750,-0.2162,-0.1782,648.68,-1547.12,-1406.62
2200,-3.8441,-0.3101,-0.2472,336.18,1202.70,-406.62
2210,-3.8444,-0.3417,-0.5627,320.56,374.39,1624.51
2220,-3.8750,0.4266,-1.8739,273.68,-16.30,280.09
2230,-3.8696,1.8030,-2.9751,-1382.57,141.42,1277.59
2240,-3.8651,1.8560,-1.6936,-1210.69,-809.02,884.77
2250,-3.8678,0.5575,0.3134,1570.56,-777.65,-1690.86
2260,-3.8707,-0.2360,0.6207,-632.57,110.41,1516.24
2270,-3.8707,-0.0083,-0.0743,1804.93,-531.74,1860.53
2280,-3.8701,0.4309,-0.3842,-1054.44,-1500.06,46.69
2290,-3.8704,0.9055,-0.5691,-835.69,-1171.08,-875.79
2300,-3.8695,1.2499,-0.7999,-85.69,-842.04,-126.16
2310,-3.8690,0.9999,-0.5510,-7.57,1611.76,-48.46
2320,-3.8705,0.5107,-0.2045,-7.57,1470.64,-329.22
2330,-3.8717,0.1400,-0.2865,1383.06,1829.10,1140.20
2340,-3.8719,-0.0604,-0.5922,1929.93,-671.63,1874.39
2350,-3.8716,-0.1086,-0.7880,273.68,218.63,-1766.78
2360,-3.8713,-0.0354,-0.8190,-1898.19,-843.99,-1657.84
2370,-3.8712,0.0968,-0.8130,-523.19,-812.62,310.85
2380,-3.8712,0.2263,-0.8273,398.68,-62.32,810.85
2390,-3.8712,0.3627,-0.8323,976.81,-1890.20,-1282.90
2400,-3.8712,0.4724,-0.7830,-1570.07,1469.42,-751.65
2410,-3.8713,0.5034,-0.6906,476.81,-217.83,-1829.71
2420,-3.8716,0.4645,-0.6050,445.56,-389.65,-970.15
2430,-3.8717,0.3987,-0.5538,-538.82,-1436.65,-1329.35
2440,-3.8717,0.3499,-0.5391,-960.69,1110.11,1405.15
2450,-3.8717,0.3308,-0.5400,789.31,-999.33,-1563.60
2460,-3.8716,0.3193,-0.5414,-1648.19,-1124.39,1233.28
2470,-3.8716,0.2969,-0.5387,883.06,-1296.26,-94.85
2480,-3.8715,0.2690,-0.5140,-1991.94,-952.58,561.40
2490,-3.8716,0.2474,-0.4476,-1554.44,-1796.39,1967.71
2500,-3.8718,0.2362,-0.3585,-320.07,-1296.45,-188.42
2510,-3.8719,0.2365,-0.2871,-1757.57,-1890.20,577.39
2520,-3.8722,0.2434,-0.2524,-1726.32,-749.57,-578.74
2530,-3.8722,0.2452,-0.2488,-835.69,-312.07,1046.33
2540,-3.8722,0.2328,-0.2664,-601.32,156.68,812.01
2550,-3.8722,0.2102,-0.2994,1804.93,1906.68,-1844.30
2560,-3.8721,0.1914,-0.3313,-1085.69,1672.24,405.64
2570,-3.8721,0.1787,-0.3344,508.06,1594.12,1952.45
2580,-3.8721,0.1729,-0.3003,-1116.94,1203.43,686.83
2590,-3.8722,0.1852,-0.2445,-1866.94,1562.81,46.26
2600,-3.8724,0.2279,-0.1852,-288.82,703.43,1843.26
2610,-3.8726,0.2838,-0.1450,1179.93,297.30,234.01
2620,-3.8727,0.3152,-0.1414,336.18,1438.05,796.57
2630,-3.8727,0.3085,-0.1729,351.81,1906.86,405.94
2640,-3.8727,0.2781,-0.2271,-507.57,1875.55,-1453.49
2650,-3.8726,0.2427,-0.2921,-398.19,-1062.01,-1516.11
2660,-3.8724,0.2169,-0.3497,-929.44,-1390.20,-31.86
2670,-3.8722,0.2168,-0.3776,-226.32,-765.26,-1828.86
2680,-3.8721,0.2415,-0.3683,-241.94,-327.76,-125.79
2690,-3.8719,0.2638,-0.3342,-1085.69,859.80,-610.11
2700,-3.8719,0.2695,-0.3011,1773.68,1219.24,-78.80
2710,-3.8719,0.2760,-0.2836,-1491.94,1453.61,-1375.61
2720,-3.8719,0.2911,-0.2845,-663.82,-296.39,-1719.36
2730,-3.8718,0.3046,-0.3043,1273.68,-421.33,390.01
2740,-3.8718,0.3132,-0.3391,-1007.57,1047.42,-31.86
2750,-3.8716,0.3215,-0.3835,101.81,594.36,936.83
2760,-3.8715,0.3309,-0.4186,1164.31,-1093.14,-1110.17
2770,-3.8713,0.3384,-0.4397,-1632.57,-1577.51,-110.23
2780,-3.8712,0.3469,-0.4608,-679.44,-280.64,-704.04
2790,-3.8711,0.3536,-0.4816,414.31,1016.30,-1657.17
2800,-3.8710,0.3497,-0.4971,1273.68,-1639.95,952.15
2810,-3.8710,0.3418,-0.4991,773.68,375.67,545.90
2820,-3.8711,0.3412,-0.4944,-241.94,109.99,1311.52
2830,-3.8712,0.3538,-0.4991,-320.07,719.36,-1547.85
2840,-3.8712,0.3870,-0.5083,1289.31,110.05,1514.65
2850,-3.8712,0.4402,-0.5051,1539.31,-1061.77,-797.91
2860,-3.8711,0.4863,-0.4606,351.81,-655.40,577.09
2870,-3.8712,0.4913,-0.3713,-1741.94,1047.79,952.21
2880,-3.8716,0.4467,-0.2703,-1101.32,469.67,-203.86
2890,-3.8718,0.3728,-0.2018,1179.93,1407.10,358.83
2900,-3.8722,0.3018,-0.1857,-273.19,-1827.45,-1078.55
2910,-3.8723,0.2588,-0.1902,-1366.94,234.92,859.01
2920,-3.8726,0.2413,-0.1801,1133.06,-343.26,-109.80
2930,-3.8727,0.2217,-0.1456,-1101.32,953.55,640.26
2940,-3.8730,0.1860,-0.0842,383.06,1359.80,1155.94
2950,-3.8735,0.1407,0.0149,-179.44,1219.06,656.07
2960,-3.8743,0.0957,0.1729,-1976.32,1906.49,-1953.12
2970,-3.8439,0.0620,0.4086,258.06,-1874.82,922.18
2980,-3.8448,0.0182,0.6680,-54.44,296.94,1860.17
2990,-3.8456,-0.0719,0.7811,-1663.82,1500.00,1532.53
3000,-3.8459,-0.1938,0.6273,-1195.07,-0.18,-154.79
3010,-3.8458,-0.3119,0.3113,-804.44,312.07,-201.90
3020,-3.8456,-0.4260,-0.1954,86.18,-141.24,1500.55
3030,-3.8445,0.4667,-1.6707,1476.81,-1000.85,-594.18
3040,-3.8702,1.7158,-2.4301,-257.57,-1842.90,-862.67
3050,-3.8672,1.2900,-0.8879,-366.94,956.42,-1754.76
3060,-3.8699,-0.0847,0.6415,1133.06,-1653.75,-236.15
3070,-3.8711,-0.7688,0.2427,1164.31,-1875.18,173.10
3080,-3.8690,-0.0427,-1.1630,1601.81,-923.40,-530.82
3090,-3.8671,1.1957,-1.2548,-1460.69,-843.87,-408.57
3100,-3.8693,1.3658,-0.1199,1054.93,-607.06,1872.50
3110,-3.8719,0.5891,0.3142,-1163.82,658.87,-328.37
3120,-3.8718,-0.0630,-0.1404,-585.69,219.85,1391.24
3130,-3.8710,-0.2000,-0.5302,-54.44,-1953.31,1546.57
3140,-3.8708,-0.0364,-0.6090,-1585.69,155.82,1764.59
3150,-3.8710,0.2008,-0.5950,-648.19,-1937.62,811.28
3160,-3.8713,0.3750,-0.5801,1711.18,-155.88,-1579.35
3170,-3.8717,0.4036,-0.5815,8.06,1750.73,1608.22
3180,-3.8719,0.3225,-0.6111,-335.69,1563.23,576.97
3190,-3.8721,0.2324,-0.6360,1289.31,1781.86,264.40
3200,-3.8722,0.2026,-0.6550,1758.06,-1405.82,-1548.16
3210,-3.8722,0.2065,-0.6884,1945.56,156.62,-126.28
3220,-3.8721,0.1943,-0.7130,-1554.44,-109.01,-892.03
3230,-3.8719,0.1749,-0.7136,883.06,734.74,1154.85
3240,-3.8719,0.1786,-0.6980,-1601.32,656.56,1936.10
3250,-3.8719,0.2023,-0.6895,-1132.57,-1343.44,1107.97
3260,-3.8719,0.2421,-0.7107,1898.68,-249.63,-1157.65
3270,-3.8718,0.2727,-0.6774,-1007.57,1031.68,1873.60
3280,-3.8719,0.2717,-0.5846,-1085.69,1297.36,1420.53
3290,-3.8722,0.2629,-0.5287,-1210.69,1172.36,-798.03
3300,-3.8722,0.2493,-0.5120,1664.31,328.61,327.09
3310,-3.8722,0.2329,-0.5272,-85.69,-1530.82,1030.21
3320,-3.8721,0.2279,-0.5621,1820.56,516.05,-1594.79
3330,-3.8718,0.2397,-0.5785,1179.93,47.30,530.15
3340,-3.8717,0.2577,-0.5657,-1304.44,1953.55,248.84
3350,-3.8717,0.2585,-0.5312,992.43,-405.76,1014.47
3360,-3.8718,0.2341,-0.4830,1101.81,0.49,-469.79
3370,-3.8718,0.1980,-0.4338,1976.81,-1827.70,327.15
3380,-3.8719,0.1727,-0.3993,1351.81,469.12,1530.40
3390,-3.8719,0.1667,-0.3806,-1882.57,890.93,717.96
3400,-3.8719,0.1749,-0.3622,1351.81,-718.44,733.58
3410,-3.8719,0.1975,-0.3400,-1601.32,1640.93,30.52
3420,-3.8721,0.2378,-0.3390,1289.31,484.74,-1328.80
3430,-3.8721,0.2888,-0.3881,-1554.44,609.80,-766.30
3440,-3.8718,0.3309,-0.4752,976.81,-1671.33,389.83
3450,-3.8716,0.3541,-0.5599,-1632.57,-827.51,999.02
3460,-3.8713,0.3687,-0.6454,1336.18,328.80,1592.65
3470,-3.8711,0.3757,-0.7595,-804.44,1391.30,-1641.91
3480,-3.8708,0.3662,-0.8527,101.81,-1218.02,-48.40
3490,-3.8706,0.3418,-0.8452,-1116.94,-1139.95,1670.17
3500,-3.8707,0.3118,-0.7395,-241.94,-186.89,-1423.58
3510,-3.8711,0.2783,-0.5906,-85.69,1344.30,-1470.21
3520,-3.8716,0.2404,-0.4496,-366.94,406.74,1592.59
3530,-3.8721,0.2096,-0.3392,-1226.32,-1546.45,905.33
3540,-3.8726,0.1964,-0.2444,-1163.82,578.49,-610.05
3550,-3.8729,0.1809,-0.1218,1148.68,719.12,-812.99
3560,-3.8734,0.1239,0.0620,-835.69,406.56,-453.37
3570,-3.8741,0.0049,0.3110,-132.57,-62.32,-390.56
3580,-3.8439,-0.1741,0.6165,633.06,-187.50,125.55
3590,-3.8452,-0.3818,0.9170,1726.81,-1078.49,1844.91
3600,-3.8464,-0.5566,1.0962,-866.94,1389.83,1126.77
3610,-3.8475,-0.6514,1.0015,758.06,327.03,-1247.86
3620,-3.8480,-0.6250,0.5641,633.06,201.84,-685.55
3630,-3.8478,-0.1722,-0.5637,8.06,217.53,1079.22
3640,-3.8441,1.0625,-2.0852,1961.18,-140.99,530.09
3650,-3.8706,1.7780,-1.5828,8.06,1095.83,-504.09
3660,-3.8710,1.0613,0.5464,-413.82,1409.67,668.76
3670,-3.8726,0.0009,0.9159,-148.19,1939.51,235.41
3680,-3.8700,-0.2408,-0.7303,117.43,1234.38,-576.35
3690,-3.8671,0.4442,-1.6113,1179.93,-1469.24,-1688.96
3700,-3.8680,0.8575,-0.7595,867.43,1750.85,981.20
3710,-3.8700,0.5016,0.0425,1773.68,-1217.10,810.97
3720,-3.8710,0.0035,0.0920,211.18,1438.48,-1859.31
3730,-3.8718,-0.1487,-0.1381,461.18,-218.75,-1031.13
3740,-3.8722,0.0742,-0.4210,976.81,-1656.56,-1390.93
3750,-3.8719,0.3611,-0.6512,1508.06,-1890.50,-485.23
3760,-3.8716,0.4314,-0.6744,-1773.19,641.30,842.47
3770,-3.8717,0.3010,-0.5879,-773.19,1672.67,-891.97
3780,-3.8718,0.1552,-0.5514,-1460.69,750.55,-1766.78
3790,-3.8719,0.0879,-0.5620,-132.57,1422.12,-1688.60
3800,-3.8719,0.0626,-0.5834,-741.94,62.62,-1282.35
3810,-3.8719,0.0393,-0.5907,23.68,1328.25,1983.22
3820,-3.8721,0.0111,-0.5811,1039.31,390.69,826.97
3830,-3.8723,0.0009,-0.5663,1429.93,1625.00,-1704.28
3840,-3.8724,0.0297,-0.5620,117.43,-484.38,-1735.53
3850,-3.8724,0.0837,-0.5724,-195.07,62.50,1686.40
3860,-3.8724,0.1389,-0.5842,-1273.19,-1265.50,-1.16
3870,-3.8722,0.1805,-0.5468,1789.31,1218.99,30.09
3880,-3.8723,0.1980,-0.5062,-882.57,-1984.07,-844.85
3890,-3.8719,0.2476,-0.5969,1351.81,-796.51,1577.09
3900,-3.8715,0.2640,-0.5414,-304.44,-405.82,1561.28
3910,-3.8716,0.2198,-0.3654,1804.93,-1296.39,920.78
3920,-3.8717,0.2277,-0.4243,148.68,1234.80,-1797.61
3930,-3.8713,0.2546,-0.4967,1148.68,1687.93,171.02
3940,-3.8711,0.2548,-0.4197,601.81,422.36,827.15
3950,-3.8712,0.2300,-0.3459,617.43,-1718.26,483.52
3960,-3.8715,0.2047,-0.3832,1445.56,-280.82,1311.77
3970,-3.8715,0.2037,-0.4249,-1788.82,-1046.51,-1907.04
3980,-3.8715,0.2208,-0.4221,-1913.82,1609.74,1327.27
3990,-3.8715,0.2397,-0.4479,273.68,1969.18,608.52
4000,-3.8715,0.2537,-0.4706,-1304.44,-1327.70,1577.21
4010,-3.8715,0.2606,-0.4651,476.81,-233.89,1124.02
4020,-3.8716,0.2493,-0.4552,1367.43,469.24,-1532.17
4030,-3.8717,0.2317,-0.4668,-85.69,1734.80,-438.42
4040,-3.8717,0.2302,-0.4934,1664.31,250.43,-1235.29
4050,-3.8717,0.2404,-0.5050,1476.81,844.18,-1188.48
4060,-3.8717,0.2532,-0.4917,-1226.32,-640.20,-1422.91
4070,-3.8717,0.2710,-0.4641,414.31,1062.99,-969.73
4080,-3.8716,0.2985,-0.4576,-1304.44,594.24,983.46
4090,-3.8715,0.3275,-0.5005,-1788.82,1422.42,1999.08
4100,-3.8713,0.3530,-0.5646,1929.93,-61.89,-219.79
4110,-3.8712,0.3724,-0.6183,1195.56,-264.95,-1048.03
4120,-3.8711,0.3798,-0.6606,-320.07,860.05,155.03
4130,-3.8712,0.3818,-0.6885,617.43,-561.77,-1329.47
4140,-3.8713,0.4277,-0.6932,883.06,-124.27,1232.97
4150,-3.8716,0.6986,-0.6235,-1241.94,-733.58,654.85
4160,-3.8721,1.0647,-0.5719,1429.93,188.84,1045.65
4170,-3.8726,1.1952,-0.6704,289.31,-1201.05,-438.66
4180,-3.8723,1.1346,-0.7920,992.43,-1810.18,326.78
4190,-3.8719,1.0450,-0.8024,1242.43,-1372.80,-282.84
4200,-3.8717,1.0026,-0.6888,1773.68,1298.89,-1579.71
4210,-3.8719,0.9865,-0.5054,336.18,-169.92,701.72
4220,-3.8726,0.9397,-0.3516,-1726.32,-685.61,-1047.91
4230,-3.8730,0.8546,-0.2811,289.31,-998.17,-391.36
4240,-3.8733,0.7559,-0.2709,1398.68,17.27,-1344.30
4250,-3.8733,0.6691,-0.2782,758.06,1329.59,702.58
4260,-3.8732,0.6136,-0.2953,1648.68,391.91,374.45
4270,-3.8729,0.5913,-0.3525,-1445.07,-1795.72,421.26
4280,-3.8726,0.5665,-0.4646,-304.44,-1123.90,1249.27
4290,-3.8722,0.5062,-0.5869,523.68,532.35,-32.17
4300,-3.8718,0.4165,-0.6707,804.93,875.98,-173.03
4310,-3.8716,0.3196,-0.7008,1320.56,-1842.96,-1470.09
4320,-3.8716,0.2382,-0.6757,914.31,-1702.51,-392.03
4330,-3.8717,0.1798,-0.6038,-1507.57,1516.05,-204.47
4340,-3.8718,0.1361,-0.5085,-976.32,-1280.94,451.90
4350,-3.8722,0.0984,-0.4200,1429.93,-1093.51,-251.04
4360,-3.8723,0.0645,-0.3684,601.81,-1765.44,858.52
4370,-3.8724,0.0333,-0.3588,258.06,843.87,-1328.86
4380,-3.8723,-0.0005,-0.3663,273.68,-1921.81,1030.52
4390,-3.8722,-0.0361,-0.3658,-54.44,1124.94,764.89
4400,-3.8722,-0.0713,-0.3562,-616.94,1187.38,-985.11
4410,-3.8722,-0.1055,-0.3416,-1116.94,-1578.31,-1047.61
4420,-3.8722,-0.1384,-0.3156,-1491.94,296.63,1389.95
4430,-3.8723,-0.1730,-0.2765,-1710.69,-375.31,-1422.55
4440,-3.8724,-0.2050,-0.2264,1867.43,624.63,1546.33
4450,-3.8727,-0.2317,-0.1719,1773.68,-969.18,-1969.24
4460,-3.8729,-0.2694,-0.1299,-1648.19,-1984.86,1062.13
4470,-3.8732,-0.3217,-0.1039,1523.68,-609.92,171.57
4480,-3.8735,-0.3624,-0.0580,-1163.82,-1281.92,-1625.24
4490,-3.8739,-0.3743,0.0360,1617.43,593.02,203.00
4500,-3.8745,-0.3667,0.1422,101.81,624.27,296.94
4510,-3.8440,-0.3447,0.1943,1070.56,-1781.98,1609.62
4520,-3.8446,-0.3036,0.1714,-116.94,889.89,-1859.01
4530,-3.8450,-0.2538,0.1021,1148.68,1952.51,1094.06
4540,-3.8452,-0.2490,-0.0515,-476.32,1077.58,812.68
4550,-3.8444,0.0676,-0.9874,133.06,1421.39,812.38
4560,-3.8707,0.7314,-2.8047,664.31,1609.50,1404.30
4570,-3.8656,0.9465,-3.9010,1633.06,1001.40,-161.74
4580,-3.8662,0.4254,-3.1028,1164.31,673.71,633.00
4590,-3.8698,-0.2446,-1.4243,-1538.82,-1155.46,-959.23
4600,-3.8713,-0.3942,-0.3431,695.56,1702.64,-174.68
4610,-3.8707,-0.1709,0.0605,1554.93,92.96,218.08
4620,-3.8717,-0.1193,0.1978,-1866.94,-234.74,-156.19
4630,-3.8728,-0.1814,0.2069,742.43,1327.88,1047.24
4640,-3.8719,-0.1504,0.0981,789.31,-1500.37,250.37
4650,-3.8713,-0.0927,-0.0259,758.06,577.82,547.06
4660,-3.8715,0.0244,-0.0923,148.68,702.94,-1937.56
4670,-3.8715,0.1267,-0.1587,-866.94,187.50,-1625.18
4680,-3.8713,0.0762,-0.2440,226.81,-312.26,-1781.62
4690,-3.8713,0.0022,-0.3372,1758.06,765.75,827.64
4700,-3.8715,-0.0133,-0.4218,289.31,843.75,-1938.17
4710,-3.8716,0.0228,-0.4662,-1695.07,-1968.81,-282.10
4720,-3.8716,0.1017,-0.4926,-1070.07,328.12,327.21
4730,-3.8718,0.1392,-0.5303,1023.68,953.31,-454.10
4740,-3.8718,0.1232,-0.5742,1820.56,125.24,1295.84
4750,-3.8718,0.0865,-0.5900,-226.32,-1499.82,-1469.91
4760,-3.8717,0.0587,-0.5527,-913.82,484.50,108.22
4770,-3.8718,0.0601,-0.4961,-476.32,1250.06,1498.90
4780,-3.8717,0.0732,-0.5143,-304.44,500.06,233.40
4790,-3.8715,0.0521,-0.5372,1383.06,-1828.00,1530.21
4800,-3.8716,-0.0275,-0.4966,-1320.07,-765.56,-313.60
4810,-3.8717,-0.1229,-0.5027,492.43,453.06,-1219.73
4820,-3.8717,-0.2126,-0.5479,273.68,-328.37,-1407.29
4830,-3.8717,-0.2994,-0.5659,789.31,1890.20,-1922.97
4840,-3.8719,-0.3923,-0.5367,1679.93,-422.49,-469.91
4850,-3.8723,-0.4324,-0.5244,1789.31,-688.29,-1532.35
4860,-3.8721,-0.4034,-0.6530,664.31,889.77,1498.96
4870,-3.8716,-0.3688,-0.8259,367.43,436.71,-157.53
4880,-3.8716,-0.3689,-0.8879,804.93,-1703.86,1670.23
4890,-3.8717,-0.3577,-0.9066,789.31,-1641.36,-1329.90
4900,-3.8713,-0.2745,-0.9686,-1773.19,-31.98,-564.33
4910,-3.8708,-0.2318,-1.0587,867.43,30.70,-1423.77
4920,-3.8705,-0.3503,-1.0970,-1663.82,499.51,1169.80
4930,-3.8706,-0.4946,-0.9838,-835.69,-406.98,-1439.70
4940,-3.8710,-0.5261,-0.7620,695.56,-1907.23,404.30
4950,-3.8715,-0.5367,-0.5763,664.31,-1516.66,-939.03
4960,-3.8718,-0.5695,-0.4794,-695.07,-1751.10,-1704.28
4970,-3.8722,-0.6160,-0.4540,-882.57,-1344.91,-829.10
4980,-3.8723,-0.6619,-0.4473,1164.31,1905.03,1264.71
4990,-3.8723,-0.6527,-0.4176,-710.69,-1235.72,514.71
5000,-3.8723,-0.5964,-0.3748,461.18,-1438.78,-1969.60
5010,-3.8723,-0.5391,-0.3378,-335.69,45.65,1999.27
5020,-3.8723,-0.5045,-0.3206,-991.94,780.15,733.70
5030,-3.8723,-0.4979,-0.3383,-570.07,-1016.66,1233.70
5040,-3.8722,-0.4993,-0.3790,273.68,717.77,983.70
5050,-3.8721,-0.4923,-0.3979,101.81,-500.98,1155.46
5060,-3.8721,-0.4861,-0.3729,992.43,1077.15,796.08
5070,-3.8722,-0.4752,-0.3264,1789.31,280.27,483.64
5080,-3.8724,-0.4474,-0.2866,-820.07,-1766.60,-453.80
5090,-3.8726,-0.4177,-0.2698,-1257.57,-672.79,-1672.49
5100,-3.8727,-0.4016,-0.2870,-1460.69,1483.52,-1297.42
5110,-3.8726,-0.3849,-0.3219,601.81,-719.54,202.51
5120,-3.8724,-0.3544,-0.3381,-1257.57,-1188.29,1249.33
5130,-3.8723,-0.3196,-0.3308,-1351.32,733.64,764.95
5140,-3.8723,-0.2837,-0.3270,-898.19,1671.20,1780.58
5150,-3.8723,-0.2283,-0.3334,-304.44,-1844.36,-1985.05
5160,-3.8723,-0.1425,-0.3365,-1210.69,1343.26,796.20
5170,-3.8724,-0.0353,-0.3499,1773.68,937.19,718.08
5180,-3.8726,0.0970,-0.3921,-507.57,-765.75,1811.77
5190,-3.8724,0.2557,-0.4573,429.93,1812.68,327.33
5200,-3.8723,0.4137,-0.5471,742.43,1469.24,-1438.42
5210,-3.8721,0.5479,-0.6577,961.18,1969.54,-422.97
5220,-3.8717,0.6458,-0.7461,-1866.94,-186.46,-1485.72
5230,-3.8713,0.6930,-0.7971,-1335.69,501.22,998.54
5240,-3.8711,0.6993,-0.8398,711.18,1970.09,-1189.09
5250,-3.8708,0.6964,-0.8542,1523.68,501.34,-48.52
5260,-3.8706,0.7010,-0.7964,1148.68,-1342.41,842.04
5270,-3.8707,0.7032,-0.6942,1742.43,-1936.16,-1689.09
5280,-3.8710,0.6827,-0.6155,-1976.32,-858.03,-438.90
5290,-3.8711,0.6414,-0.5842,-601.32,1220.03,-1969.97
5300,-3.8712,0.6024,-0.5685,-1898.19,1219.97,-938.66
5310,-3.8713,0.5745,-0.5305,1117.43,-764.47,-344.91
5320,-3.8715,0.5669,-0.4637,1539.31,94.85,952.09
5330,-3.8718,0.6035,-0.3688,570.56,641.72,-1875.92
5340,-3.8723,0.6996,-0.2362,1258.06,798.03,1843.02
5350,-3.8730,0.8409,-0.0571,1554.93,1766.97,-1812.99
5360,-3.8739,0.9896,0.1437,-351.32,689.09,281.13
5370,-3.8749,1.0978,0.3009,-1320.07,-1607.48,1203.37
5380,-3.8444,1.1204,0.3313,523.68,-1482.24,297.42
5390,-3.8448,1.0500,0.2190,-585.69,-1591.61,-530.64
5400,-3.8448,0.9208,0.0670,-1585.69,33.26,-1265.20
5410,-3.8447,0.7534,-0.0559,1867.43,579.90,1828.25
5420,-3.8444,0.6592,-0.6395,445.56,845.21,-437.62
5430,-3.8712,0.6277,-1.8900,383.06,-1858.09,-720.03
5440,-3.8672,0.2399,-2.3309,351.81,-1920.65,-1706.85
5450,-3.8668,-0.5728,-1.1472,-1288.82,1641.05,667.30
5460,-3.8677,-0.9811,0.2502,-1304.44,1170.72,-549.13
5470,-3.8695,-0.3157,0.3511,-1570.07,44.92,-155.76
5480,-3.8704,0.7698,-0.2990,-398.19,952.45,-905.58
5490,-3.8711,1.2509,-0.5775,-1460.69,1735.84,874.39
5500,-3.8711,1.1622,-0.5593,117.43,-1919.43,-423.03
5510,-3.8704,0.8960,-0.4556,773.68,408.51,-1829.22
5520,-3.8707,0.5200,-0.3596,-1304.44,1689.21,14.71
5530,-3.8712,0.1760,-0.3542,-1429.44,1969.73,-641.36
5540,-3.8711,0.0358,-0.3678,-1460.69,-1343.44,1999.27
5550,-3.8713,0.0867,-0.3132,586.18,921.94,-1313.23
5560,-3.8719,0.2031,-0.2953,-898.19,-93.63,889.95
5570,-3.8722,0.2098,-0.3884,-1991.94,-1796.51,593.14
5580,-3.8718,0.0784,-0.5037,-1132.57,-1718.38,1249.21
5590,-3.8713,-0.0076,-0.5500,-1960.69,-468.63,-657.29
5600,-3.8711,0.0348,-0.5238,-960.69,1609.31,-1157.35
5610,-3.8713,0.1146,-0.4600,461.18,953.19,-1032.29
5620,-3.8717,0.1415,-0.4138,-1320.07,1125.18,-1860.29
5630,-3.8721,0.1191,-0.4200,-1882.57,-968.51,-719.60
5640,-3.8721,0.0884,-0.4869,-741.94,-1765.44,577.27
5650,-3.8719,0.0734,-0.5903,-679.44,1672.00,-1391.60
5660,-3.8717,0.0717,-0.6799,1398.68,437.62,326.97
5670,-3.8717,0.0669,-0.7416,1179.93,968.87,1936.16
5680,-3.8717,0.0691,-0.7797,570.56,1078.25,-1423.34
5690,-3.8716,0.0969,-0.7991,851.81,203.25,-1579.65
5700,-3.8715,0.1683,-0.8126,414.31,1718.93,-189.09
5710,-3.8712,0.2513,-0.8385,1554.93,-15.32,826.48
5720,-3.8711,0.2749,-0.8807,179.93,672.36,1029.60
5730,-3.8711,0.2494,-0.9192,-804.44,-733.89,-1158.02
5740,-3.8711,0.2271,-0.9327,-70.07,-1655.82,-1048.71
5750,-3.8712,0.2314,-0.9059,1070.56,609.80,-79.96
5760,-3.8713,0.2688,-0.8397,1633.06,47.30,1045.10
5770,-3.8716,0.3367,-0.7451,-1585.69,516.11,326.48
5780,-3.8719,0.4160,-0.6428,-898.19,625.61,-673.34
5790,-3.8722,0.4805,-0.5564,1258.06,1719.54,-1704.41
5800,-3.8724,0.5244,-0.5002,1508.06,782.17,-641.72
5810,-3.8724,0.5632,-0.4755,-866.94,-30.27,639.59
5820,-3.8726,0.6086,-0.4728,101.81,-858.28,-266.60
5830,-3.8726,0.6426,-0.4811,1914.31,-514.47,889.65
5840,-3.8727,0.6278,-0.4957,-1741.94,-1576.90,764.65
5850,-3.8728,0.5510,-0.5223,367.43,548.10,-688.48
5860,-3.8727,0.4418,-0.5525,-1460.69,1141.66,-1876.04
5870,-3.8726,0.3381,-0.5616,554.93,1282.10,-876.10
5880,-3.8724,0.2578,-0.5281,-710.69,109.99,-1954.22
5890,-3.8726,0.2023,-0.4426,1008.06,406.74,-1063.54
5900,-3.8728,0.1663,-0.3309,1898.68,-655.88,-1485.29
5910,-3.8732,0.1421,-0.2277,1289.31,1640.93,-469.42
5920,-3.8735,0.1144,-0.1288,-1804.44,-1140.38,-969.24
5930,-3.8739,0.0629,-0.0178,-1351.32,-484.19,1780.94
5940,-3.8743,-0.0211,0.1011,54.93,1718.87,562.44
5950,-3.8746,-0.1493,0.1984,1304.93,953.06,93.93
5960,-3.8750,-0.3322,0.2360,898.68,1405.94,-1968.38
5970,-3.8439,-0.5355,0.2117,1492.43,-1781.92,1094.18
5980,-3.8439,-0.7009,0.1466,-538.82,-891.72,-1874.63
5990,-3.8750,-0.7905,0.0566,-1710.69,-1220.15,-1499.76
6000,-3.8749,-0.8010,-0.0590,-1179.44,-735.96,-484.31
6010,-3.8748,-0.9792,-0.5864,1476.81,467.16,-922.00
6020,-3.8711,-1.2161,-1.9642,-1335.69,951.17,1561.34
6030,-3.8647,-0.8850,-3.0609,351.81,591.37,574.28
6040,-3.8635,-0.4043,-2.4102,-1273.19,216.98,-1584.11
6050,-3.8673,-0.3860,-0.5824,258.06,-485.17,-1176.64
6060,-3.8716,-0.5416,0.7015,-1398.19,1467.96,1295.72
6070,-3.8729,-0.8475,0.3348,-1320.07,1811.40,501.34
6080,-3.8707,-1.0895,-0.8000,-476.32,-1126.71,-890.01
6090,-3.8698,-0.7725,-1.0216,554.93,1607.24,-314.09
6100,-3.8715,-0.1935,-0.4061,1133.06,1248.47,1872.99
6110,-3.8729,0.1951,-0.0248,-757.57,30.82,-172.67
6120,-3.8707,0.2366,-0.7797,195.56,1219.30,123.47
6130,-3.8712,0.1942,-0.6628,-1710.69,203.55,-767.15
6140,-3.8717,0.0962,-0.5873,867.43,-843.38,420.53
6150,-3.8719,-0.0132,-0.5931,320.56,828.31,-1766.78
6160,-3.8718,-0.0724,-0.6295,-1679.44,93.69,-735.53
6170,-3.8716,-0.0778,-0.6716,-1257.57,-562.68,-1329.41
6180,-3.8713,-0.0542,-0.7292,-1945.07,-1953.31,14.28
6190,-3.8712,-0.0208,-0.8127,1070.56,-1328.25,1342.29
6200,-3.8708,-0.0084,-0.9246,1351.81,-15.69,1670.23
6210,-3.8704,0.0139,-1.0131,-1070.07,1671.81,-1626.83
6220,-3.8701,0.0508,-1.0326,1789.31,-1671.88,-689.51
6230,-3.8701,0.0638,-0.9865,-1491.94,-171.81,1966.67
6240,-3.8704,0.0565,-0.9135,179.93,1734.50,1826.17
6250,-3.8706,0.0483,-0.8519,-757.57,-921.81,951.29
6260,-3.8708,0.0479,-0.8177,-1804.44,-1046.81,1435.79
6270,-3.8711,0.0334,-0.8093,-1866.94,-671.81,-1251.65
6280,-3.8712,0.0188,-0.7926,289.31,406.31,-1126.59
6290,-3.8712,0.0439,-0.7350,-1585.69,-1453.12,1217.16
6300,-3.8713,0.1075,-0.6389,1633.06,1921.94,795.41
6310,-3.8717,0.1650,-0.5314,1773.68,-1781.07,-220.03
6320,-3.8719,0.1824,-0.4368,1133.06,-15.32,748.90
6330,-3.8723,0.1583,-0.3632,-648.19,94.06,-1407.10
6340,-3.8726,0.1149,-0.2994,273.68,1515.93,-1313.23
6350,-3.8727,0.0826,-0.2321,-1288.82,1672.06,1436.89
6360,-3.8728,0.0797,-0.1603,-1413.82,-1703.00,-1578.61
6370,-3.8728,0.0957,-0.0990,-1788.82,-515.50,359.01
6380,-3.8729,0.0969,-0.0669,258.06,-671.69,-1843.99
6390,-3.8730,0.0657,-0.0577,414.31,-562.32,-15.81
6400,-3.8730,0.0287,-0.0448,414.31,609.50,-1078.25
6410,-3.8730,0.0256,-0.0109,-320.07,-1734.38,-1890.75
6420,-3.8732,0.0676,0.0403,-710.69,-1390.62,-812.56
6430,-3.8733,0.1382,0.0941,664.31,1156.37,1625.06
6440,-3.8735,0.2244,0.1360,1695.56,47.12,-827.94
6450,-3.8737,0.3054,0.1497,726.81,1406.68,1718.99
6460,-3.8738,0.3469,0.1189,-898.19,-843.20,-1156.01
6470,-3.8737,0.3351,0.0420,414.31,-780.58,343.93
6480,-3.8735,0.2738,-0.0695,-1101.32,1375.61,-1374.94
6490,-3.8733,0.1743,-0.1921,-945.07,-890.14,-375.18
6500,-3.8729,0.0602,-0.2903,-1679.44,-593.44,155.82
6510,-3.8728,-0.0389,-0.3346,-288.82,-1156.19,-1922.49
6520,-3.8727,-0.1007,-0.3293,-976.32,1187.38,93.08
6530,-3.8728,-0.1349,-0.3190,-882.57,1859.13,1624.33
6540,-3.8730,-0.1785,-0.3442,-1257.57,-812.81,-110.05
6550,-3.8732,-0.2473,-0.4049,1164.31,-47.24,1624.27
6560,-3.8733,-0.3234,-0.4817,351.81,187.01,1030.46
6570,-3.8734,-0.3757,-0.5555,-1382.57,-1641.30,-1547.85
6580,-3.8734,-0.3850,-0.6112,-85.69,905.46,514.53
6590,-3.8737,-0.3540,-0.6326,-1273.19,1780.46,-376.22
6600,-3.8740,-0.3297,-0.7135,-1304.44,-953.86,-188.78
6610,-3.8730,-0.3822,-1.6047,1804.93,686.83,-1563.90
6620,-3.8689,-0.4003,-3.0205,-913.82,-1391.42,-815.67
6630,-3.8667,-0.4373,-3.1300,773.68,1389.83,1994.08
6640,-3.8688,-0.6636,-1.6505,39.31,-625.85,-1678.04
6650,-3.8712,-0.8911,0.0247,-929.44,748.66,543.64
6660,-3.8732,-0.9243,0.4996,1945.56,-829.90,-875.00
6670,-3.8721,-0.6096,-0.3607,1695.56,-33.08,579.04
6680,-3.8708,-0.0482,-1.1023,1976.81,1842.53,-1891.36
6690,-3.8712,0.2778,-1.0336,1836.18,-1078.25,1810.30
6700,-3.8711,0.2091,-0.7094,-429.44,-296.39,-95.83
6710,-3.8708,-0.0830,-0.4949,-1226.32,1203.49,404.85
6720,-3.8715,-0.3148,-0.4110,1383.06,671.69,1670.90
6730,-3.8724,-0.2673,-0.4254,-288.82,-594.42,-891.48
6740,-3.8729,-0.0081,-0.5580,1789.31,1561.95,-797.73
6750,-3.8727,0.2704,-0.7531,-1023.19,593.69,1077.03
6760,-3.8721,0.3898,-0.9419,-1382.57,-390.14,14.10
6770,-3.8717,0.3253,-1.0680,1898.68,-561.77,-361.27
6780,-3.8715,0.2070,-1.1005,1648.68,-702.51,1154.11
6790,-3.8715,0.1221,-1.0930,-1491.94,-859.01,544.68
6800,-3.8715,0.1003,-1.1184,-366.94,93.93,-1799.01
6810,-3.8712,0.1879,-1.1576,851.81,843.93,-1658.45
6820,-3.8711,0.2993,-1.1648,54.93,-171.51,-189.82
6830,-3.8711,0.3213,-1.1304,-1679.44,-1093.20,75.81
6840,-3.8715,0.2703,-1.0844,1133.06,-686.89,-392.88
6850,-3.8717,0.2002,-1.0531,-1398.19,1203.61,-580.26
6860,-3.8718,0.1403,-1.0189,1633.06,1203.49,60.42
6870,-3.8721,0.0986,-0.9591,1961.18,1578.37,1388.61
6880,-3.8723,0.0759,-0.8766,633.06,1234.56,-111.27
6890,-3.8723,0.0710,-0.7968,1726.81,-203.00,732.60
6900,-3.8724,0.0790,-0.7310,1101.81,-1984.25,-64.09
6910,-3.8724,0.0956,-0.6698,-1882.57,-1562.38,-79.59
6920,-3.8724,0.1133,-0.6217,242.43,-1734.19,-798.22
6930,-3.8723,0.1169,-0.6191,-1491.94,422.06,436.28
6940,-3.8722,0.1080,-0.6516,-1023.19,750.18,-548.10
6950,-3.8719,0.0966,-0.6555,1836.18,593.93,-766.91
6960,-3.8718,0.0725,-0.6050,367.43,93.93,342.47
6970,-3.8719,0.0303,-0.5310,1289.31,-1437.38,248.78
6980,-3.8722,-0.0253,-0.4648,-116.94,31.25,-594.79
6990,-3.8722,-0.0890,-0.4207,773.68,515.56,14.71
7000,-3.8723,-0.1376,-0.3835,617.43,-1828.31,-985.23
7010,-3.8723,-0.1517,-0.3185,-1601.32,-1078.43,-1703.92
7020,-3.8724,-0.1400,-0.2184,586.18,-750.31,1843.08
7030,-3.8727,-0.1194,-0.1084,-1913.82,62.19,1030.82
7040,-3.8730,-0.1035,-0.0267,726.81,-1859.62,-1281.49
7050,-3.8733,-0.1013,-0.0140,-1241.94,593.51,-156.31
7060,-3.8733,-0.0959,-0.0453,-960.69,-1781.49,-875.06
7070,-3.8733,-0.0695,-0.0319,-273.19,-1781.49,-547.00
7080,-3.8734,-0.0328,0.0679,-882.57,-62.68,1890.50
7090,-3.8738,-0.0020,0.2230,-195.07,703.00,-1656.13
7100,-3.8741,-0.0116,0.3666,-241.94,562.44,-608.95
7110,-3.8743,-0.0895,0.4357,-1476.32,-1062.56,-1764.95
7120,-3.8743,-0.1958,0.4211,554.93,-218.93,-1186.71
7130,-3.8741,-0.2795,0.3640,-1054.44,1921.45,-1155.46
7140,-3.8740,-0.3455,0.2911,226.81,-1391.17,-921.20
7150,-3.8739,-0.4149,0.2025,-210.69,1280.52,-827.58
7160,-3.8737,-0.4712,0.1213,-1101.32,1936.65,1219.12
7170,-3.8735,-0.4857,0.0789,-304.44,-454.10,-843.57
7180,-3.8734,-0.4674,0.0663,1836.18,-1891.60,1484.50
7190,-3.8734,-0.4493,0.0529,179.93,499.08,515.75
7200,-3.8735,-0.4508,0.0203,-1507.57,-1219.67,-999.94
7210,-3.8735,-0.4711,-0.0293,-1695.07,-1391.54,578.12
7220,-3.8738,-0.4974,-0.0874,-288.82,264.65,-1890.69
7230,-3.8741,-0.5223,-0.1667,336.18,827.15,-1422.06
7240,-3.8745,-0.5892,-0.4180,1148.68,-1329.16,687.13
7250,-3.8730,-0.7039,-1.5874,586.18,-1485.53,608.52
7260,-3.8674,-0.4354,-3.2172,1914.31,826.72,184.39
7270,-3.8643,0.0586,-3.2161,273.68,217.90,540.59
7280,-3.8677,0.1047,-1.2456,-491.94,343.81,-1115.66
7290,-3.8721,-0.2635,0.6871,1414.31,562.68,-705.57
7300,-3.8726,-0.6553,0.8414,-1726.32,-31.80,501.28
7310,-3.8707,-0.6095,-0.2842,133.06,-282.53,1345.34
7320,-3.8700,-0.2578,-0.9885,1992.43,-360.60,921.26
7330,-3.8696,-0.0140,-0.8530,-991.94,1483.83,1232.42
7340,-3.8694,0.1940,-0.5153,-1788.82,-1171.94,1107.67
7350,-3.8701,0.3324,-0.3119,836.18,-1952.76,561.46
7360,-3.8715,0.2825,-0.3652,-1445.07,78.74,-484.99
7370,-3.8722,0.2439,-0.6301,164.31,1250.55,-125.73
7380,-3.8717,0.1945,-0.8779,-773.19,-655.82,1545.59
7390,-3.8710,-0.0552,-0.9911,898.68,-374.63,1951.35
7400,-3.8706,-0.3324,-1.0391,1445.56,1264.89,1216.43
7410,-3.8712,-0.4568,-0.9012,1461.18,-985.05,669.80
7420,-3.8712,-0.5096,-0.8925,1539.31,655.33,326.35
7430,-3.8711,-0.4366,-0.8744,-1226.32,1780.21,-1783.02
7440,-3.8712,-0.3535,-0.7942,117.43,92.90,-1470.46
7450,-3.8716,-0.3010,-0.7051,-1241.94,-1641.36,-1689.09
7460,-3.8719,-0.3002,-0.6619,1476.81,1765.01,-1532.65
7470,-3.8721,-0.3458,-0.6851,1586.18,-703.74,1029.91
7480,-3.8721,-0.4027,-0.7205,-257.57,327.39,-1204.47
7490,-3.8719,-0.4543,-0.7029,461.18,-203.92,1326.66
7500,-3.8721,-0.4961,-0.6288,1851.81,-1954.04,-642.03
7510,-3.8722,-0.5131,-0.5255,508.06,-469.73,-954.41
7520,-3.8723,-0.5063,-0.4233,-1663.82,748.96,-485.41
7530,-3.8724,-0.4930,-0.3485,-804.44,1827.09,-63.35
7540,-3.8724,-0.4834,-0.3180,898.68,-594.73,61.77
7550,-3.8726,-0.4725,-0.3417,-1866.94,-688.48,-1688.17
7560,-3.8724,-0.4546,-0.4062,-476.32,280.27,14.95
7570,-3.8724,-0.4360,-0.4772,1820.56,14.71,-953.92
7580,-3.8723,-0.4243,-0.5254,195.56,-1063.35,780.27
7590,-3.8723,-0.4139,-0.5251,1695.56,764.77,858.34
7600,-3.8724,-0.3953,-0.4647,-976.32,796.02,-204.16
7610,-3.8724,-0.3654,-0.3806,1414.31,530.46,-1735.29
7620,-3.8726,-0.3348,-0.3164,1242.43,-703.86,-782.04
7630,-3.8727,-0.3159,-0.2863,1148.68,-485.05,764.95
7640,-3.8729,-0.3068,-0.3054,-429.44,-625.67,796.26
7650,-3.8730,-0.2899,-0.3652,742.43,921.26,1171.26
7660,-3.8730,-0.2461,-0.4095,-1101.32,1265.01,-1281.98
7670,-3.8729,-0.1711,-0.4008,508.06,-406.74,655.40
7680,-3.8729,-0.0718,-0.3641,-1898.19,718.38,639.83
7690,-3.8730,0.0244,-0.3612,-1179.44,1406.07,-485.11
7700,-3.8729,0.1096,-0.4139,-866.94,1765.62,780.52
7710,-3.8728,0.2181,-0.4913,-1960.69,-984.19,-1891.48
7720,-3.8726,0.3595,-0.5629,-70.07,1109.74,999.02
7730,-3.8723,0.4965,-0.5878,-1976.32,-46.20,561.34
7740,-3.8722,0.5884,-0.5444,-445.07,766.54,-1141.78
7750,-3.8722,0.6344,-0.4659,-679.44,-1686.40,-266.72
7760,-3.8723,0.6594,-0.3833,1211.18,360.60,-360.29
7770,-3.8724,0.6783,-0.2980,414.31,-1061.22,-1360.17
7780,-3.8726,0.7117,-0.1945,-1163.82,1860.66,765.01
7790,-3.8729,0.7837,-0.0640,-898.19,-889.28,-1437.93
7800,-3.8734,0.8929,0.0801,320.56,-185.97,-656.43
7810,-3.8739,1.0067,0.2195,-1695.07,-1748.29,-1874.88
7820,-3.8744,1.0676,0.3203,867.43,95.70,-1452.70
7830,-3.8748,1.0620,0.3507,664.31,1002.08,-593.14
7840,-3.8749,1.0259,0.2821,-54.44,892.64,-499.33
7850,-3.8748,0.9890,0.1385,-679.44,111.33,1094.30
7860,-3.8748,0.9446,-0.0278,-1398.19,1736.27,-1781.01
7870,-3.8740,1.1207,-0.5780,914.31,439.33,-1484.44
7880,-3.8698,1.6383,-1.4652,-538.82,-1982.24,-1173.03
7890,-3.8678,1.9934,-1.6056,1711.18,456.30,75.26
7900,-3.8705,1.7961,-0.7223,-835.69,-1511.78,887.45
7910,-3.8711,1.3273,0.0850,1914.31,-449.65,186.04
7920,-3.8694,1.1105,0.1218,1898.68,-1122.44,1125.12
7930,-3.8684,1.1603,-0.0865,-1851.32,-404.11,-1656.07
7940,-3.8699,1.1313,0.0055,523.68,924.13,-1656.43
7950,-3.8711,1.0154,0.0770,820.56,705.32,-1015.62
7960,-3.8707,0.9314,-0.1062,1976.81,1861.33,-1734.25
7970,-3.8704,0.7682,-0.3149,-773.19,-1591.98,406.01
7980,-3.8701,0.4995,-0.4113,-1663.82,-311.04,249.33
7990,-3.8699,0.3175,-0.3517,-54.44,-639.71,811.65
8000,-3.8706,0.2926,-0.2109,648.68,-1015.01,1061.77
8010,-3.8715,0.2711,-0.1682,1461.18,1000.55,93.32
8020,-3.8717,0.1865,-0.2789,-1288.82,-1530.76,749.63
8030,-3.8715,0.1392,-0.4304,-116.94,297.18,108.83
8040,-3.8712,0.1445,-0.5486,1820.56,906.49,1999.15
8050,-3.8710,0.1466,-0.6536,-1491.94,1781.49,-1235.47
8060,-3.8706,0.1270,-0.6952,-1226.32,343.99,1561.22
8070,-3.8708,0.0581,-0.4912,258.06,-984.13,61.10
8080,-3.8722,-0.0015,-0.1614,-554.44,1125.06,-782.23
8090,-3.8729,-0.0312,-0.1516,-179.44,-640.69,-875.37
8100,-3.8724,-0.0667,-0.4745,8.06,609.31,-62.81
8110,-3.8715,-0.0253,-0.7623,-523.19,-718.93,-844.73
8120,-3.8707,0.1007,-0.8619,773.68,-1562.56,-1017.15
8130,-3.8705,0.2355,-0.8396,898.68,1672.06,-704.83
8140,-3.8705,0.3254,-0.7842,-1851.32,531.68,154.60
8150,-3.8707,0.3486,-0.7285,1664.31,-374.39,1357.79
8160,-3.8710,0.3196,-0.6578,633.06,-1249.33,1264.16
8170,-3.8713,0.2698,-0.5619,914.31,-202.51,-1970.09
8180,-3.8718,0.2289,-0.4445,-1460.69,78.61,-297.97
8190,-3.8722,0.2144,-0.3292,1304.93,-890.20,124.08
8200,-3.8727,0.2313,-0.2473,-554.44,1859.74,-1360.05
8210,-3.8729,0.2847,-0.2020,1617.43,344.18,-1906.74
8220,-3.8730,0.3674,-0.1631,445.56,-1858.83,1187.07
8230,-3.8732,0.4387,-0.1088,-960.69,-874.33,1187.13
8240,-3.8733,0.4609,-0.0538,164.31,-1921.02,1202.88
8250,-3.8734,0.4425,-0.0255,-991.94,1110.23,1015.50
8260,-3.8735,0.4069,-0.0245,648.68,735.23,1203.06
8270,-3.8737,0.3604,-0.0338,86.18,860.17,-1578.19
8280,-3.8737,0.3085,-0.0521,-1866.94,-327.45,374.88
8290,-3.8738,0.2875,-0.0829,-507.57,1328.67,-1406.37
8300,-3.8739,0.3257,-0.1050,804.93,1391.17,-31.43
8310,-3.8740,0.4172,-0.0811,1695.56,-1436.89,1968.51
8320,-3.8744,0.5895,0.0068,1414.31,1625.79,-1531.43
8330,-3.8749,0.8726,0.1434,-538.82,876.10,-1921.88
8340,-3.8442,1.1869,0.2906,-304.44,-1638.98,-1531.01
8350,-3.8448,1.3756,0.4072,-70.07,1205.38,-202.58
8360,-3.8451,1.3901,0.4658,86.18,127.69,1063.29
8370,-3.8452,1.3142,0.4506,1945.56,-372.31,-14.77
8380,-3.8451,1.2428,0.3822,226.81,1674.44,-514.77
8390,-3.8450,1.2351,0.3132,-913.82,924.26,1219.48
8400,-3.8451,1.2455,0.2781,-1898.19,96.13,-452.51
8410,-3.8451,1.1798,0.2753,-570.07,-403.87,-1343.26
8420,-3.8450,1.0358,0.2548,-976.32,-763.37,1656.74
8430,-3.8447,0.8733,0.1649,586.18,611.39,687.99
8440,-3.8445,0.7012,0.0417,-210.69,1111.02,-702.82
8450,-3.8441,0.5096,-0.0518,1758.06,1345.09,-812.44
8460,-3.8750,0.4695,-0.2784,1242.43,1375.98,-1984.50
8470,-3.8724,0.8152,-0.9052,101.81,360.29,1843.20
8480,-3.8678,1.1912,-1.5829,351.81,142.21,-1939.27
8490,-3.8661,1.0216,-1.4037,476.81,1392.94,-299.99
8500,-3.8683,0.2446,-0.3873,-1226.32,330.08,1012.88
8510,-3.8708,-0.6320,0.3329,-679.44,-1577.70,1842.96
8520,-3.8712,-0.9564,0.3143,-882.57,-1376.28,-1077.51
8530,-3.8705,-0.6523,0.0684,1586.18,248.11,250.61
8540,-3.8701,-0.0577,-0.2029,508.06,764.34,1422.00
8550,-3.8691,0.5366,-0.4373,617.43,-1953.25,1374.57
8560,-3.8685,0.9203,-0.2979,695.56,32.29,186.65
8570,-3.8698,0.9596,0.0593,1804.93,1876.77,-1813.11
8580,-3.8713,0.7561,0.1821,-1163.82,-404.42,265.69
8590,-3.8723,0.5029,0.0352,789.31,-686.04,453.43
8600,-3.8724,0.2914,-0.1909,383.06,500.98,734.44
8610,-3.8721,0.1327,-0.4030,1304.93,-436.95,-1672.30
8620,-3.8713,0.0420,-0.5404,992.43,422.12,-922.67
8630,-3.8706,0.0471,-0.5621,1383.06,-1171.81,998.90
8640,-3.8705,0.0801,-0.5742,-1960.69,46.94,-1735.47
8650,-3.8706,0.0736,-0.6270,-1741.94,-1499.88,-1704.28
8660,-3.8706,0.0298,-0.6545,1429.93,-249.88,1061.22
8670,-3.8706,-0.0337,-0.6328,-179.44,218.75,-766.91
8680,-3.8706,-0.0775,-0.5944,-304.44,-984.50,-1595.03
8690,-3.8707,-0.0804,-0.5634,-1913.82,-62.68,-610.60
8700,-3.8708,-0.0508,-0.5100,1711.18,-93.93,-63.66
8710,-3.8710,0.0105,-0.4064,1508.06,-1265.75,-1157.29
8720,-3.8712,0.0972,-0.2748,1351.81,-15.62,-735.23
8730,-3.8715,0.1873,-0.1486,445.56,828.31,-1922.42
8740,-3.8717,0.2556,-0.0541,-23.19,984.68,-1969.06
8750,-3.8718,0.2974,-0.0057,726.81,1078.61,562.38
8760,-3.8721,0.3199,0.0161,-1929.44,-733.83,-515.69
8770,-3.8722,0.3269,0.0488,961.18,-1936.89,781.25
8780,-3.8724,0.3278,0.1039,1851.81,-1749.39,187.56
8790,-3.8728,0.3308,0.1609,1961.18,1297.49,-1374.82
8800,-3.8730,0.3467,0.1967,-1648.19,594.36,-1249.69
8810,-3.8732,0.3767,0.1986,383.06,1172.55,-1218.38
8820,-3.8732,0.4121,0.1713,226.81,1422.61,1875.37
8830,-3.8732,0.4591,0.1368,758.06,1922.67,-1124.69
8840,-3.8730,0.5183,0.1102,-1226.32,1516.48,1593.99
8850,-3.8729,0.5712,0.0898,-1648.19,-1889.65,1593.93
8860,-3.8728,0.5831,0.0679,1117.43,-498.90,-1734.25
8870,-3.8727,0.5253,0.0353,-1351.32,688.60,-1359.25
8880,-3.8726,0.4180,-0.0026,-757.57,516.60,-1531.19
8890,-3.8724,0.3018,-0.0316,1508.06,-327.33,1453.06
8900,-3.8723,0.1895,-0.0636,-1366.94,-46.33,234.25
8910,-3.8722,0.0861,-0.1096,258.06,-140.26,781.07
8920,-3.8721,-0.0031,-0.1359,-976.32,1968.87,515.38
8930,-3.8721,-0.0823,-0.1211,-382.57,-1375.06,155.94
8940,-3.8722,-0.1409,-0.1144,1476.81,515.44,-1734.62
8950,-3.8722,-0.1414,-0.1713,1976.81,1374.69,-687.74
8960,-3.8721,-0.0803,-0.2405,1914.31,-1906.56,-390.99
8970,-3.8719,0.0360,-0.3276,1726.81,1234.19,-297.36
8980,-3.8708,0.3302,-0.7349,617.43,-1937.44,-485.05
8990,-3.8679,0.6913,-1.2496,-1726.32,1938.11,1514.16
9000,-3.8661,0.7637,-0.9965,492.43,48.22,-1080.57
9010,-3.8682,0.4510,-0.0433,1758.06,454.59,-1298.83
9020,-3.8718,0.0157,0.5132,1742.43,-1546.02,968.63
9030,-3.8734,-0.1726,0.3212,-1976.32,1687.50,-545.90
9040,-3.8724,-0.0153,-0.0361,1914.31,1124.63,-1890.01
9050,-3.8712,0.2628,-0.1447,-1945.07,-609.44,-1797.00
9060,-3.8704,0.4996,-0.4000,1648.68,1484.86,359.07
9070,-3.8682,0.7032,-0.7355,-38.82,797.79,467.96
9080,-3.8679,0.7672,-0.5035,-1976.32,1860.72,154.79
9090,-3.8705,0.5771,-0.0208,-1788.82,-451.66,1842.71
9100,-3.8719,0.2648,0.1534,1883.06,1344.85,999.94
9110,-3.8722,0.0388,0.0114,1898.68,-358.89,-1906.01
9120,-3.8716,-0.0778,-0.2301,976.81,1453.19,-1078.12
9130,-3.8708,-0.1458,-0.3495,-1945.07,-1437.68,608.89
9140,-3.8706,-0.2344,-0.2633,1351.81,-719.06,1843.02
9150,-3.8710,-0.3168,-0.1624,-1991.94,-1687.99,-63.05
9160,-3.8712,-0.2865,-0.1874,-538.82,-766.30,202.76
9170,-3.8713,-0.1379,-0.2788,-663.82,30.64,-219.12
9180,-3.8712,0.0504,-0.3500,-1648.19,327.82,-234.92
9190,-3.8712,0.1589,-0.3682,-1538.82,-796.81,-1360.11
9200,-3.8715,0.1313,-0.3446,351.81,875.31,1655.52
9210,-3.8717,0.0610,-0.3618,820.56,-109.13,999.27
9220,-3.8716,0.0399,-0.4882,-179.44,1687.56,1546.14
9230,-3.8712,0.0265,-0.5997,1117.43,1515.69,1420.90
9240,-3.8712,-0.0677,-0.5853,-601.32,-765.62,-1829.35
9250,-3.8713,-0.2236,-0.5450,-663.82,1093.57,1764.47
9260,-3.8712,-0.3485,-0.5793,-616.94,-1750.49,1905.15
9270,-3.8710,-0.3949,-0.6622,-601.32,1858.64,-610.53
9280,-3.8706,-0.3560,-0.7234,1461.18,-750.79,1920.53
9290,-3.8704,-0.2841,-0.7206,-1554.44,-578.86,686.04
9300,-3.8704,-0.2397,-0.6587,-351.32,-219.36,1076.66
9310,-3.8705,-0.2258,-0.5714,1320.56,-297.36,170.53
9320,-3.8708,-0.2327,-0.4690,-898.19,-1125.49,-1438.66
9330,-3.8712,-0.2681,-0.3613,-1773.19,-16.11,-750.98
9340,-3.8715,-0.3186,-0.2856,1695.56,1765.08,-1094.48
9350,-3.8716,-0.3414,-0.2389,-773.19,-547.55,1827.51
9360,-3.8718,-0.3175,-0.1927,304.93,1436.83,-109.86
9370,-3.8721,-0.2582,-0.1445,-632.57,-656.92,-187.93
9380,-3.8722,-0.1782,-0.0907,-1038.82,1515.08,1062.19
9390,-3.8723,-0.1035,-0.0292,1195.56,405.88,1359.19
9400,-3.8724,-0.0721,0.0215,-1241.94,281.01,-1453.19
9410,-3.8726,-0.1031,0.0543,-1226.32,-1234.56,-968.75
9420,-3.8726,-0.1798,0.0725,-1195.07,-1031.49,62.56
9430,-3.8727,-0.2623,0.0690,992.43,1296.51,-1234.25
9440,-3.8727,-0.3152,0.0355,-1570.07,843.20,-1359.25
9450,-3.8726,-0.3577,-0.0592,-335.69,561.83,562.56
9460,-3.8722,-0.3650,-0.2040,-1773.19,436.77,124.88
9470,-3.8719,-0.2792,-0.3271,1289.31,1905.52,-1469.18
9480,-3.8721,-0.1393,-0.3812,273.68,-1859.92,655.58
9490,-3.8726,0.0184,-0.3599,-1820.07,-781.56,811.71
9500,-3.8732,0.1996,-0.3000,-1632.57,1937.50,-110.11
9510,-3.8735,0.3936,-0.2327,1554.93,1594.12,1061.89
9520,-3.8740,0.5837,-0.1533,-1616.94,-1780.52,-1656.74
9530,-3.8745,0.7686,-0.0885,-1273.19,376.10,1515.32
9540,-3.8748,1.2223,-0.2355,-1616.94,673.34,1468.57
9550,-3.8726,2.1425,-0.7245,461.18,1861.76,1546.39
9560,-3.8687,2.8607,-1.2465,-1757.57,-730.22,1154.79
9570,-3.8683,2.6715,-1.3641,-1820.07,458.68,966.31
9580,-3.8716,1.7423,-0.9359,1961.18,1395.81,-1705.81
9590,-3.8439,0.7885,-0.4011,-976.32,206.48,-1439.33
9600,-3.8743,0.4323,-0.3059,929.93,657.78,-1000.79
9610,-3.8705,0.6415,-0.4075,-663.82,844.54,640.01
9620,-3.8698,0.9238,-0.4493,-1882.57,-155.03,-1422.73
9630,-3.8696,0.8704,-0.4468,-1741.94,-1513.85,545.96
9640,-3.8707,0.4598,-0.2554,-585.69,-1185.85,1483.46
9650,-3.8726,-0.0354,-0.0793,-1132.57,-686.65,1327.58
9660,-3.8724,-0.3708,-0.1870,-523.19,1859.25,1202.94
9670,-3.8718,-0.4553,-0.4150,539.31,77.39,-953.49
9680,-3.8715,-0.3516,-0.5454,1726.81,-1110.29,1811.65
9690,-3.8712,-0.2405,-0.6115,-991.94,-1797.61,577.03
9700,-3.8711,-0.2458,-0.6848,1226.81,1749.51,1248.78
9710,-3.8711,-0.3129,-0.7461,539.31,358.89,342.41
9720,-3.8712,-0.3440,-0.7797,-38.82,514.95,-438.96
9730,-3.8712,-0.3170,-0.7977,-23.19,218.02,-1829.65
9740,-3.8713,-0.2446,-0.8251,-570.07,1905.58,1232.79
9750,-3.8715,-0.1672,-0.8898,695.56,-1594.24,1826.48
9760,-3.8713,-0.1183,-0.9918,-1398.19,-1875.37,-1376.77
9770,-3.8708,-0.0530,-1.0831,867.43,1062.26,373.05
9780,-3.8706,0.0477,-1.1307,1226.81,1374.88,-64.64
9790,-3.8705,0.1483,-1.1371,-1882.57,-734.31,1450.87
9800,-3.8707,0.2235,-1.0864,-1007.57,-1546.63,-439.76
9810,-3.8710,0.2484,-0.9749,617.43,937.93,1357.24
9820,-3.8715,0.2219,-0.8163,-195.07,-780.82,1919.92
9830,-3.8722,0.1626,-0.6202,414.31,-483.95,-548.52
9840,-3.8730,0.0778,-0.3965,820.56,609.68,-813.72
9850,-3.8739,-0.0176,-0.1653,1961.18,1250.12,-407.04
9860,-3.8744,-0.0953,0.0437,1758.06,-1140.69,265.26
9870,-3.8748,-0.1371,0.2059,-195.07,1609.13,-1343.69
9880,-3.8748,-0.1425,0.3024,-1538.82,-1625.31,156.62
9890,-3.8748,-0.1141,0.3260,1773.68,-1281.56,-1202.58
9900,-3.8746,-0.0615,0.2971,1398.68,1749.76,-874.39
9910,-3.8745,-0.0331,0.2297,133.06,-1953.25,344.30
9920,-3.8746,-0.0649,0.1166,-226.32,1421.75,-952.70
9930,-3.8746,-0.1053,-0.0310,-304.44,-1062.68,-1374.82
9940,-3.8746,-0.0814,-0.1654,-1476.32,46.63,1874.94
9950,-3.8749,0.0090,-0.2517,1586.18,-1156.43,-812.87
9960,-3.8440,0.1226,-0.3120,1164.31,-218.75,327.58
9970,-3.8445,0.2499,-0.4974,-304.44,62.68,1405.64
9980,-3.8740,0.7209,-1.3374,-7.57,328.55,577.15
9990,-3.8676,1.5859,-2.4856,289.31,813.90,1950.50
10000,-3.8647,1.8821,-2.4077,-991.94,1846.80,-989.26
10010,-3.8711,1.2971,-1.0923,914.31,-183.84,-98.51
10020,-3.8442,0.5658,-0.0768,-1960.69,190.00,700.99
10030,-3.8717,0.2659,-0.2692,429.93,-1827.03,-515.81
10040,-3.8663,0.4735,-0.9399,-1960.69,1547.36,140.08
10050,-3.8682,0.7323,-0.9275,617.43,-311.58,-1173.77
10060,-3.8730,0.6853,-0.3579,1742.43,1282.65,1404.42
