timestamp_ms,ax,ay,az,gx,gy,gz
0,-3.8723,0.5035,0.2849,258.06,-61.40,-796.39
10,-3.8722,0.3885,0.2894,461.18,469.73,656.80
20,-3.8721,0.2974,0.2904,1742.43,1047.61,219.30
30,-3.8721,0.3203,0.2882,-1929.44,1172.42,641.17
40,-3.8722,0.4198,0.2811,1008.06,891.24,125.55
50,-3.8723,0.4993,0.2557,1742.43,-14.83,703.61
60,-3.8723,0.5142,0.2316,-85.69,735.29,156.74
70,-3.8723,0.4768,0.2301,1820.56,1641.60,266.05
80,-3.8724,0.4358,0.2491,1039.31,1454.04,-1140.20
90,-3.8726,0.4314,0.2708,-210.69,-108.58,-358.95
100,-3.8727,0.4510,0.2909,-773.19,-1342.96,-1218.26
110,-3.8728,0.4316,0.3140,1742.43,1235.23,1234.92
120,-3.8729,0.3627,0.3450,-741.94,188.29,516.24
130,-3.8732,0.3357,0.3707,-1570.07,156.92,-1671.20
140,-3.8734,0.4061,0.3757,-1023.19,-546.26,1078.80
150,-3.8737,0.4969,0.3800,-7.57,94.48,266.36
160,-3.8739,0.5138,0.4026,-382.57,641.54,-1546.14
170,-3.8740,0.4647,0.4327,1773.68,-467.77,-1764.89
180,-3.8741,0.4005,0.4612,-507.57,-608.52,1625.79
190,-3.8744,0.3354,0.5029,-726.32,-968.02,-921.02
200,-3.8746,0.2747,0.5624,-1054.44,375.61,-1639.65
210,-3.8749,0.2806,0.6029,-835.69,-15.14,344.79
220,-3.8440,0.4583,0.5914,-70.07,1172.36,-1201.97
230,-3.8441,0.7727,0.5422,-1335.69,-296.02,1235.47
240,-3.8441,1.0354,0.5072,-1085.69,1407.71,-1748.96
250,-3.8440,1.1344,0.5316,539.31,923.89,-1483.40
260,-3.8439,1.1127,0.6437,1211.18,49.07,297.91
270,-3.8441,1.0485,0.8048,-1570.07,-1607.24,1594.97
280,-3.8445,1.0033,0.8657,-1788.82,-982.36,1689.03
290,-3.8446,1.0417,0.7922,429.93,-1185.55,548.52
300,-3.8445,1.1775,0.7010,1351.81,1408.26,1282.78
310,-3.8442,1.3539,0.6503,-1273.19,1736.63,1345.09
320,-3.8441,1.4949,0.6283,1304.93,-763.00,-608.15
330,-3.8440,1.5298,0.6316,-648.19,424.74,-1342.53
340,-3.8440,1.4650,0.6693,-179.44,846.68,-608.15
350,-3.8440,1.3711,0.7430,-476.32,1674.68,-1451.84
360,-3.8441,1.2777,0.8193,-491.94,-888.00,-1154.85
370,-3.8442,1.1808,0.8218,-445.07,877.44,-1904.66
380,-3.8442,1.1036,0.7405,-851.32,1189.76,564.09
390,-3.8442,1.0769,0.6364,1273.68,-1216.61,1813.90
400,-3.8441,1.0979,0.5854,1851.81,1455.20,516.85
410,-3.8440,1.1178,0.5468,539.31,-1060.36,891.72
420,-3.8439,1.1069,0.4713,-913.82,1986.51,-936.46
430,-3.8750,1.0900,0.4323,1695.56,330.26,469.67
440,-3.8750,1.0602,0.4225,-476.32,-669.80,672.67
450,-3.8750,1.0336,0.4064,-288.82,-1919.86,-61.71
460,-3.8749,1.0337,0.3804,304.93,17.64,-1999.21
470,-3.8748,1.0529,0.3280,320.56,689.51,1844.48
480,-3.8745,1.0927,0.2567,-1226.32,1986.39,1094.36
490,-3.8743,1.1365,0.1857,-132.57,861.45,469.24
500,-3.8741,1.1542,0.1313,1476.81,-232.18,-1843.44
510,-3.8740,1.1265,0.1249,-257.57,814.70,-312.26
520,-3.8739,1.0560,0.1652,195.56,-13.43,-1109.19
530,-3.8739,0.9604,0.1943,-820.07,1142.64,-1234.07
540,-3.8739,0.8765,0.1803,-1054.44,876.83,1765.99
550,-3.8739,0.8528,0.1492,195.56,-920.17,1297.18
560,-3.8739,0.7794,0.2468,-148.19,-154.66,-1109.07
570,-3.8739,0.7091,0.2881,-226.32,-404.79,453.55
580,-3.8740,0.6366,0.2864,-1226.32,876.34,-1577.58
590,-3.8740,0.5911,0.2253,1492.43,657.47,1297.42
600,-3.8740,0.6276,0.1028,-335.69,844.85,-1015.20
610,-3.8738,0.7235,-0.0314,336.18,1157.47,1968.93
620,-3.8735,0.8108,-0.1116,617.43,-14.22,-1390.75
630,-3.8734,0.8864,-0.1200,-210.69,1720.28,1359.13
640,-3.8735,0.9681,-0.0936,1461.18,642.33,156.01
650,-3.8739,1.0540,-0.0647,-70.07,17.46,-343.93
660,-3.8740,1.1169,-0.0312,-1085.69,-279.24,406.07
670,-3.8743,1.1302,0.0061,-1023.19,2.14,-46.94
680,-3.8743,1.0902,0.0249,679.93,783.45,-515.62
690,-3.8741,0.9963,0.0065,-445.07,-810.42,-1406.25
700,-3.8740,0.8778,-0.0262,-460.69,830.02,-1296.88
710,-3.8739,0.7805,-0.0570,367.43,642.33,1421.81
720,-3.8738,0.7207,-0.1132,-85.69,704.59,718.63
730,-3.8735,0.6820,-0.2325,258.06,1517.03,515.38
740,-3.8730,0.7000,-0.3922,-695.07,-1764.34,-1031.74
750,-3.8727,0.8021,-0.4395,1601.81,1798.22,-1266.42
760,-3.8732,0.8898,-0.2686,-1320.07,-248.47,1795.96
770,-3.8740,0.9075,-0.0090,1898.68,1626.71,140.08
780,-3.8748,0.8947,0.1184,164.31,-1154.48,-1953.19
790,-3.8439,0.8998,0.0620,-1476.32,-842.04,1234.56
800,-3.8440,1.0027,-0.0571,-820.07,-60.79,515.69
810,-3.8440,1.1965,-0.1597,351.81,689.45,-125.12
820,-3.8750,1.3966,-0.2449,1164.31,-435.18,280.88
830,-3.8750,1.5178,-0.3059,-1226.32,658.94,-1391.11
840,-3.8746,1.4965,-0.3556,-1710.69,846.68,1061.89
850,-3.8740,1.4003,-0.4260,-445.07,-1512.76,-1156.98
860,-3.8735,1.3527,-0.5045,-757.57,1471.44,-1188.35
870,-3.8734,1.3508,-0.5339,1148.68,-575.50,-313.54
880,-3.8732,1.2966,-0.4916,914.31,-341.13,1092.65
890,-3.8730,1.1798,-0.3916,1976.81,1080.63,-1235.35
900,-3.8730,1.0842,-0.2069,-976.32,1877.26,280.46
910,-3.8737,0.9951,0.0559,-1210.69,1517.70,-125.43
920,-3.8743,0.8594,0.2821,-616.94,-841.86,281.31
930,-3.8749,0.7390,0.3953,-1991.94,111.02,-1015.08
940,-3.8750,0.7250,0.3938,-1398.19,-1404.85,-1749.27
950,-3.8748,0.7920,0.3269,804.93,-1592.35,1891.36
960,-3.8744,0.8396,0.2953,1383.06,1845.28,-1093.14
970,-3.8741,0.8022,0.3784,-523.19,1798.46,-1155.70
980,-3.8743,0.6974,0.5471,-1304.44,439.03,-1749.27
990,-3.8746,0.6699,0.6395,1273.68,-1967.41,-1186.46
1000,-3.8749,0.7406,0.6503,1758.06,1860.66,-1389.40
1010,-3.8439,0.8151,0.6852,-1195.07,-764.22,-655.03
1020,-3.8441,0.8840,0.7202,336.18,-295.29,-1811.22
1030,-3.8444,0.9631,0.7410,1164.31,189.21,-857.97
1040,-3.8445,1.0293,0.7501,-710.69,-1154.42,1532.65
1050,-3.8446,1.0367,0.7629,-241.94,17.58,-1248.54
1060,-3.8446,0.9747,0.8229,711.18,1658.26,-1357.91
1070,-3.8446,0.8479,0.9025,773.68,1330.02,204.71
1080,-3.8448,0.7474,0.8993,539.31,-482.73,1673.58
1090,-3.8450,0.7609,0.7550,-320.07,-889.22,626.71
1100,-3.8450,0.8318,0.6041,1398.68,642.09,-1029.79
1110,-3.8447,0.8809,0.5728,-1523.19,1329.71,407.41
1120,-3.8446,0.9076,0.5994,758.06,1314.21,219.85
1130,-3.8446,0.9259,0.6188,179.93,720.52,1766.78
1140,-3.8446,0.9451,0.6154,-1476.32,-795.10,-1905.09
1150,-3.8446,0.9865,0.5791,976.81,-1232.54,-561.34
1160,-3.8445,1.0374,0.5458,-1726.32,-1873.11,-1170.78
1170,-3.8444,1.0692,0.5521,789.31,1861.39,1204.16
1180,-3.8445,1.0718,0.5631,867.43,-1326.05,-280.21
1190,-3.8445,1.0642,0.5389,1195.56,80.20,1188.60
1200,-3.8444,1.0455,0.4193,226.81,986.45,-1295.84
1210,-3.8750,1.0040,0.2817,1836.18,1673.89,313.29
1220,-3.8744,0.9573,0.2349,523.68,64.45,1375.55
1230,-3.8740,0.8739,0.2540,-1460.69,-1935.67,-1937.07
1240,-3.8740,0.7537,0.3279,-132.57,517.27,-1437.01
1250,-3.8741,0.6857,0.3481,476.81,1970.21,422.49
1260,-3.8743,0.7052,0.2479,-226.32,563.78,-1249.33
1270,-3.8740,0.7551,0.1150,-1726.32,-264.28,-280.82
1280,-3.8735,0.7683,0.0607,664.31,-1279.79,468.93
1290,-3.8733,0.7333,0.1066,-1648.19,-232.91,31.31
1300,-3.8733,0.6285,0.2008,1867.43,1642.03,812.68
1310,-3.8735,0.4503,0.2994,461.18,1704.35,-1702.76
1320,-3.8739,0.3782,0.2670,1648.68,-1671.02,-296.33
1330,-3.8739,0.5568,-0.0365,414.31,-1827.39,953.61
1340,-3.8733,0.8163,-0.3925,-726.32,-670.84,-1672.00
1350,-3.8723,0.8979,-0.4186,492.43,1767.21,717.96
1360,-3.8721,0.7125,-0.2028,-1054.44,-1576.42,233.52
1370,-3.8724,0.4729,-0.0709,-788.82,-1951.78,-953.55
1380,-3.8727,0.4144,-0.0876,539.31,-1077.21,-468.93
1390,-3.8727,0.4908,-0.1849,1054.93,782.04,1656.07
1400,-3.8727,0.5505,-0.3108,-1163.82,329.04,874.63
1410,-3.8727,0.5867,-0.4307,-1523.19,219.79,233.76
1420,-3.8727,0.7167,-0.5084,-898.19,876.10,-1469.60
1430,-3.8726,0.9161,-0.5415,-257.57,-1076.78,1858.34
1440,-3.8727,1.0425,-0.5576,1273.68,-1310.73,-1297.97
1450,-3.8727,1.0573,-0.6436,1445.56,627.01,1577.03
1460,-3.8724,1.0160,-0.7642,-663.82,1627.01,592.47
1470,-3.8726,0.9138,-0.7432,-1945.07,-1810.55,-454.65
1480,-3.8727,0.7915,-0.6371,976.81,876.77,-1204.59
1490,-3.8727,0.7603,-0.5907,1320.56,-1545.35,-391.91
1500,-3.8726,0.8267,-0.5975,1320.56,392.09,-1173.03
1510,-3.8724,0.8921,-0.5946,1820.56,-482.79,-1219.97
1520,-3.8723,0.8798,-0.5497,-1804.44,-107.67,873.78
1530,-3.8723,0.7588,-0.4559,617.43,1642.33,717.65
1540,-3.8724,0.4368,-0.5634,304.93,203.86,1155.46
1550,-3.8721,0.5282,-0.7080,-85.69,-108.58,873.84
1560,-3.8719,0.5658,-0.7343,-382.57,1375.98,842.35
1570,-3.8724,0.5728,-0.5752,429.93,-1983.28,-610.84
1580,-3.8730,0.6842,-0.3452,1320.56,-1623.90,155.09
1590,-3.8738,0.9908,-0.2612,-413.82,-186.22,1718.02
1600,-3.8743,1.3986,-0.4238,-1163.82,-1435.61,-1453.67
1610,-3.8743,1.5908,-0.7029,-976.32,1752.69,452.27
1620,-3.8738,1.3850,-0.8024,-366.94,-1965.70,1795.47
1630,-3.8730,1.0317,-0.5751,1289.31,1299.56,-470.34
1640,-3.8728,0.7721,-0.2908,70.56,-1607.36,1045.72
1650,-3.8730,0.6038,-0.2972,-1163.82,-1217.29,1280.64
1660,-3.8729,0.5377,-0.5190,1289.31,1954.28,-1563.11
1670,-3.8726,0.5946,-0.6649,836.18,1563.54,-1688.54
1680,-3.8726,0.7124,-0.6333,117.43,-1108.22,-1704.47
1690,-3.8729,0.8307,-0.5236,-804.44,-1061.16,1342.47
1700,-3.8734,0.9114,-0.4771,-1663.82,985.96,-376.04
1710,-3.8735,0.9307,-0.5107,664.31,-1060.73,-485.35
1720,-3.8734,0.8927,-0.5615,-866.94,-1373.23,1905.21
1730,-3.8733,0.8523,-0.5989,-1726.32,126.71,155.15
1740,-3.8733,0.8560,-0.6074,1101.81,-654.60,498.78
1750,-3.8734,0.8610,-0.6045,1570.56,-1748.35,-376.22
1760,-3.8734,0.8162,-0.6096,-1788.82,-1373.35,-235.60
1770,-3.8733,0.7374,-0.5935,476.81,1970.34,1139.40
1780,-3.8734,0.6818,-0.5398,-1601.32,32.65,1951.97
1790,-3.8738,0.6833,-0.4806,-726.32,-1092.47,-344.85
1800,-3.8740,0.7305,-0.4353,-523.19,-1514.34,1920.90
1810,-3.8743,0.8242,-0.4346,1508.06,282.65,1311.65
1820,-3.8745,0.9017,-0.4961,1508.06,376.59,-1750.85
1830,-3.8744,0.8794,-0.5659,-570.07,501.71,202.15
1840,-3.8741,0.8514,-0.5730,570.56,-435.79,1467.59
1850,-3.8741,0.9161,-0.4957,992.43,-1342.10,-1.16
1860,-3.8744,0.9841,-0.4362,1273.68,548.65,795.90
1870,-3.8746,0.9221,-0.4658,1976.81,173.77,1889.77
1880,-3.8743,0.8157,-0.4982,-1960.69,376.77,1170.96
1890,-3.8739,0.8252,-0.4706,414.31,235.96,764.65
1900,-3.8741,0.9042,-0.4709,1633.06,-232.79,1670.90
1910,-3.8745,0.9624,-0.5411,-257.57,-279.54,-1547.85
1920,-3.8745,1.0010,-0.5808,-804.44,-1263.79,-969.85
1930,-3.8744,1.0261,-0.5560,133.06,1658.20,936.34
1940,-3.8745,1.0103,-0.5264,-648.19,830.08,-1860.47
1950,-3.8745,0.9984,-0.5021,1320.56,626.95,1655.21
1960,-3.8746,1.0327,-0.4772,-195.07,-263.73,-1297.91
1970,-3.8749,1.0649,-0.4784,195.56,-1076.11,624.02
1980,-3.8439,1.0598,-0.5013,320.56,-1232.30,1311.52
1990,-3.8439,1.0353,-0.5238,-335.69,-169.86,967.71
2000,-3.8439,1.0065,-0.5309,523.68,955.14,717.71
2010,-3.8440,0.9744,-0.5031,836.18,48.83,1295.84
2020,-3.8442,0.9623,-0.4495,726.81,-388.73,-657.29
2030,-3.8445,0.9994,-0.4165,-820.07,-1529.42,-79.04
2040,-3.8446,1.0721,-0.4380,-70.07,-1310.61,1999.15
2050,-3.8446,1.0958,-0.4668,1242.43,-60.42,577.21
2060,-3.8446,1.0339,-0.4408,273.68,252.14,-1860.29
2070,-3.8447,0.9873,-0.3843,351.81,-419.86,-1235.29
2080,-3.8450,1.0066,-0.3641,-1616.94,-1185.61,780.46
2090,-3.8452,1.0472,-0.3744,851.81,1392.58,1093.02
2100,-3.8452,1.0608,-0.3485,-1945.07,80.14,358.64
2110,-3.8452,1.0178,-0.2526,-210.69,-607.36,-1141.36
2120,-3.8452,0.9244,-0.1030,-1710.69,-326.17,-859.92
2130,-3.8453,0.8026,0.0676,-1663.82,-1185.73,-343.99
2140,-3.8455,0.6794,0.2324,-1257.57,657.78,-1218.63
2150,-3.8456,0.5748,0.3599,-1023.19,1751.28,1031.68
2160,-3.8458,0.5068,0.4391,1586.18,-1936.40,1766.30
2170,-3.8461,0.4789,0.4861,883.06,204.10,-1014.77
2180,-3.8461,0.4855,0.5118,1304.93,-1780.33,219.67
2190,-3.8461,0.5093,0.5356,-1851.32,1516.54,-811.52
2200,-3.8458,0.5099,0.5846,1195.56,563.48,829.16
2210,-3.8457,0.4719,0.6508,1273.68,-1170.90,94.85
2220,-3.8457,0.4229,0.6946,414.31,-702.21,1079.35
2230,-3.8457,0.3795,0.7024,-1866.94,907.04,-1108.03
2240,-3.8456,0.3396,0.7244,586.18,1906.98,-1858.03
2250,-3.8455,0.3134,0.8044,-523.19,719.36,813.90
2260,-3.8455,0.2963,0.9071,117.43,-1030.64,1423.40
2270,-3.8455,0.2819,0.9922,1929.93,109.92,579.90
2280,-3.8456,0.2756,1.0669,86.18,-999.45,-1279.36
2290,-3.8457,0.2766,1.1383,-710.69,562.99,-263.55
2300,-3.8457,0.2876,1.1843,-585.69,1703.61,236.57
2310,-3.8458,0.3190,1.1722,820.56,-405.70,1955.38
2320,-3.8458,0.3723,1.1097,836.18,-1952.51,-325.87
2330,-3.8456,0.4336,1.0504,-335.69,-1952.45,470.89
2340,-3.8456,0.4728,1.0280,-491.94,-1546.08,1892.64
2350,-3.8457,0.4825,1.0394,523.68,-420.96,-701.17
2360,-3.8457,0.4858,1.0537,1773.68,1047.79,158.26
2370,-3.8458,0.5032,1.0139,-1804.44,-1124.08,1830.14
2380,-3.8458,0.5406,0.9233,414.31,1782.23,-341.80
2390,-3.8456,0.5782,0.8778,1211.18,-1811.46,1204.90
2400,-3.8456,0.5704,0.8787,-1976.32,360.47,-1279.54
2410,-3.8456,0.5223,0.8575,1023.68,469.85,95.46
2420,-3.8457,0.4778,0.8462,-1132.57,1766.60,-1295.23
2430,-3.8457,0.4244,0.8762,1164.31,313.42,767.27
2440,-3.8458,0.3533,0.8964,-1663.82,157.04,1173.58
2450,-3.8458,0.3242,0.8386,1226.81,-1264.95,1595.46
2460,-3.8456,0.3782,0.6705,1508.06,-655.64,376.59
2470,-3.8453,0.4313,0.4692,414.31,1828.86,1173.16
2480,-3.8451,0.4105,0.3510,-788.82,63.29,1860.29
2490,-3.8448,0.3522,0.2651,554.93,922.67,750.67
2500,-3.8447,0.3173,0.1241,1086.18,1938.17,-577.64
2510,-3.8445,0.3252,-0.1008,617.43,-108.76,-421.69
2520,-3.8441,0.4624,-0.4307,1633.06,-905.64,-453.37
2530,-3.8749,0.7358,-0.8005,-804.44,875.85,-1500.85
2540,-3.8745,0.9910,-1.0854,-1804.44,1532.65,-1142.21
2550,-3.8743,1.1676,-1.2421,-1148.19,1064.39,-1064.64
2560,-3.8741,1.2858,-1.3236,1461.18,1017.88,-1299.32
2570,-3.8743,1.4010,-1.3218,586.18,-1419.37,-143.25
2580,-3.8745,1.5193,-1.2216,-663.82,-1184.81,450.50
2590,-3.8750,1.6044,-1.1040,-1523.19,-356.45,-1143.07
2600,-3.8441,1.5824,-1.0580,1367.43,-1309.39,-314.70
2610,-3.8445,1.5237,-1.0376,-1445.07,581.18,-17.70
2620,-3.8447,1.5072,-0.9938,-960.69,-809.57,-455.20
2630,-3.8448,1.3597,-0.9785,929.93,799.80,-814.45
2640,-3.8448,1.1450,-0.9437,-1945.07,-1247.38,498.05
2650,-3.8450,1.0422,-0.9021,-1429.44,-794.68,1591.86
2660,-3.8450,1.0726,-0.9252,1414.31,533.26,-1533.02
2670,-3.8447,1.1525,-0.9133,1304.93,1580.20,-454.96
2680,-3.8446,1.1849,-0.8254,-476.32,-904.05,-861.21
2690,-3.8446,1.1671,-0.7432,-320.07,-1653.99,1482.73
2700,-3.8446,1.1066,-0.6377,1398.68,877.26,1857.91
2710,-3.8447,1.0107,-0.5066,1648.68,-1622.86,576.84
2720,-3.8451,0.9175,-0.4607,1383.06,-841.80,-829.16
2730,-3.8451,0.8813,-0.5040,1445.56,1033.02,1452.21
2740,-3.8448,0.8599,-0.5369,820.56,-513.92,-1844.79
2750,-3.8445,0.7644,-0.4784,-1929.44,-717.10,858.28
2760,-3.8444,0.5760,-0.2965,1851.81,-1232.91,1233.40
2770,-3.8445,0.3409,-0.0149,1742.43,-1952.03,1155.64
2780,-3.8448,0.1099,0.3070,-351.32,-1905.64,-250.06
2790,-3.8451,0.0399,0.6339,-1929.44,-702.94,-1436.95
2800,-3.8451,0.0347,0.9664,1117.43,1140.69,626.22
2810,-3.8451,-0.2618,1.2169,445.56,-296.81,486.21
2820,-3.8455,-0.6788,1.3446,-1507.57,-219.30,-1185.18
2830,-3.8457,-0.7438,1.4739,1117.43,123.66,-919.25
2840,-3.8458,-0.5621,1.4917,804.93,670.41,-919.01
2850,-3.8461,-0.3057,1.3024,54.93,-1047.97,-1262.76
2860,-3.8459,0.0698,1.0365,883.06,-1281.86,643.13
2870,-3.8458,0.2537,0.8378,945.56,672.00,-1857.36
2880,-3.8461,0.1935,0.8203,476.81,-765.14,-732.79
2890,-3.8463,0.2533,0.8964,773.68,1000.37,-1326.54
2900,-3.8463,0.5106,0.9415,429.93,-1265.14,1095.46
2910,-3.8463,0.7101,0.9277,1367.43,516.60,501.83
2920,-3.8464,0.7427,0.8815,-1101.32,-1248.66,1408.02
2930,-3.8466,0.7239,0.8693,-929.44,829.53,-154.54
2940,-3.8466,0.7563,0.9174,664.31,-732.97,1611.02
2950,-3.8467,0.8097,0.9835,820.56,1423.34,564.27
2960,-3.8469,0.8086,1.0209,-351.32,1892.15,-1794.98
2970,-3.8470,0.8408,0.9795,-491.94,-1326.60,1455.08
2980,-3.8470,0.9531,0.8745,-366.94,1376.59,267.52
2990,-3.8470,1.0364,0.7994,-1991.94,-60.67,798.52
3000,-3.8470,1.0674,0.6965,664.31,-1669.86,-1279.72
3010,-3.8468,1.0587,0.5513,633.06,1158.33,79.47
3020,-3.8466,1.0259,0.4879,-476.32,-1435.49,641.66
3030,-3.8464,1.0385,0.5381,-679.44,-1544.92,-1483.46
3040,-3.8464,1.0583,0.6356,929.93,877.01,-1967.71
3050,-3.8466,0.9854,0.6986,-523.19,1361.39,-1170.65
3060,-3.8466,0.8711,0.7189,-1866.94,1423.77,423.22
3070,-3.8467,0.8213,0.7086,-491.94,17.27,-498.60
3080,-3.8467,0.8171,0.6610,1133.06,-1295.29,-451.78
3090,-3.8466,0.8284,0.5754,601.81,610.96,-1529.97
3100,-3.8463,0.8690,0.4900,-1960.69,1657.84,422.97
3110,-3.8462,0.9265,0.4377,-757.57,-1279.60,-1186.58
3120,-3.8461,0.9633,0.4294,-1398.19,33.02,-1264.77
3130,-3.8461,0.9668,0.4382,-695.07,-1029.42,-530.46
3140,-3.8461,0.9379,0.4419,-241.94,95.58,1563.35
3150,-3.8462,0.8807,0.4696,54.93,564.33,1172.73
3160,-3.8463,0.8219,0.5328,742.43,111.08,797.79
3170,-3.8464,0.7600,0.6193,1211.18,204.71,1188.54
3180,-3.8467,0.6843,0.7395,1289.31,-732.91,-1280.09
3190,-3.8470,0.6382,0.8912,-398.19,-1342.47,-1186.10
3200,-3.8473,0.6724,0.9839,1695.56,-1920.65,814.21
3210,-3.8474,0.7076,0.9885,-1929.44,1938.78,658.14
3220,-3.8474,0.6873,0.9678,-1413.82,-1467.41,-1076.23
3230,-3.8473,0.5607,1.0286,-23.19,-123.72,-810.67
3240,-3.8473,0.3975,1.1749,-226.32,-342.71,736.33
3250,-3.8475,0.3947,1.2046,-1116.94,-1608.64,-544.62
3260,-3.8474,0.5557,1.0446,-1476.32,-1811.77,955.44
3270,-3.8472,0.6798,0.8477,-866.94,1704.16,-185.49
3280,-3.8468,0.6589,0.7178,-976.32,501.28,-732.73
3290,-3.8464,0.6476,0.6245,351.81,-123.72,423.22
3300,-3.8462,0.6796,0.5691,-1101.32,-61.28,204.28
3310,-3.8459,0.6418,0.5227,-1007.57,845.03,391.72
3320,-3.8457,0.5490,0.4403,-1835.69,-1092.53,1000.98
3330,-3.8455,0.5061,0.3573,-1726.32,360.41,985.23
3340,-3.8453,0.4963,0.2799,789.31,1735.35,-1546.20
3350,-3.8452,0.4550,0.1986,-460.69,-170.96,1687.99
3360,-3.8450,0.3823,0.1189,-1757.57,1422.73,-1655.88
3370,-3.8445,0.3132,-0.0015,945.56,-780.52,-406.07
3380,-3.8750,0.2576,-0.1504,101.81,-186.89,-1984.44
3390,-3.8744,0.1549,-0.2699,976.81,750.49,-109.68
3400,-3.8733,-0.0256,-0.3857,-163.82,1453.37,77.58
3410,-3.8722,-0.2388,-0.5374,726.81,-1359.44,-94.54
3420,-3.8712,-0.3711,-0.7357,1445.56,-766.11,1983.28
3430,-3.8707,-0.3652,-0.9303,508.06,1843.02,936.04
3440,-3.8708,-0.3143,-1.0549,1258.06,936.77,-751.83
3450,-3.8711,-0.2755,-1.0846,-226.32,983.70,-33.33
3460,-3.8711,-0.2046,-1.0833,742.43,1186.95,-955.26
3470,-3.8707,0.0558,-1.4631,1820.56,1358.95,1029.11
3480,-3.8696,0.6783,-2.5590,-851.32,718.81,450.26
3490,-3.8679,1.2625,-3.0457,-1163.82,454.41,-536.25
3500,-3.8672,1.1240,-2.0336,1601.81,-1841.31,-615.36
3510,-3.8684,0.3944,-0.8442,-116.94,-294.74,-1285.28
3520,-3.8704,-0.1841,-0.4872,-1507.57,-61.77,-1064.21
3530,-3.8716,-0.2520,-0.7374,445.56,1655.88,217.77
3540,-3.8718,-0.0282,-0.9935,-241.94,1624.45,-17.09
3550,-3.8715,0.2223,-0.9556,398.68,843.69,-1080.08
3560,-3.8718,0.4752,-0.6893,461.18,1687.93,-455.02
3570,-3.8730,0.7740,-0.4797,836.18,-233.46,123.60
3580,-3.8745,1.0070,-0.4977,-913.82,-1404.79,1280.27
3590,-3.8750,1.0782,-0.6184,898.68,298.83,1499.02
3600,-3.8746,1.0603,-0.6277,-1976.32,845.83,467.53
3610,-3.8743,1.0214,-0.4751,-273.19,-341.74,92.47
3620,-3.8744,1.0288,-0.2836,-1257.57,-810.55,655.27
3630,-3.8748,1.0820,-0.2231,-304.44,-294.92,1249.39
3640,-3.8746,1.0239,-0.3966,-1491.94,-560.42,1952.64
3650,-3.8737,0.8049,-0.6479,-929.44,1236.33,108.58
3660,-3.8727,0.6146,-0.7408,-960.69,1064.03,233.09
3670,-3.8723,0.5670,-0.6759,-1320.07,1173.03,-1907.71
3680,-3.8723,0.6056,-0.5751,586.18,1485.47,-266.97
3690,-3.8723,0.6869,-0.5039,1523.68,-1608.22,1201.97
3700,-3.8724,0.7673,-0.4872,-70.07,-498.72,30.21
3710,-3.8727,0.7733,-0.4971,-1773.19,1642.09,-829.10
3720,-3.8729,0.7129,-0.4884,-1007.57,376.46,-672.85
3730,-3.8734,0.6039,-0.5930,-741.94,1485.72,1045.90
3740,-3.8737,0.4669,-0.8169,1304.93,94.91,-1844.91
3750,-3.8730,0.4199,-0.9644,-226.32,-561.65,-548.52
3760,-3.8723,0.5647,-0.9532,1758.06,563.29,826.23
3770,-3.8726,0.8768,-0.8588,289.31,1985.47,435.61
3780,-3.8734,1.1167,-0.9121,242.43,-1920.17,623.29
3790,-3.8738,1.1356,-1.1118,-1054.44,-747.86,-1251.83
3800,-3.8734,1.0726,-1.2346,1367.43,1689.70,-17.82
3810,-3.8730,0.9747,-1.2692,1304.93,1970.83,-986.82
3820,-3.8730,0.8383,-1.3191,773.68,1548.77,-252.50
3830,-3.8729,0.7495,-1.4255,-695.07,-842.16,-1080.75
3840,-3.8724,0.7332,-1.4584,-54.44,1532.65,1590.94
3850,-3.8722,0.7583,-1.3114,1851.81,1329.53,997.13
3860,-3.8724,0.7450,-1.0985,1070.56,142.09,1216.19
3870,-3.8728,0.6683,-0.8859,-632.57,-607.97,-1361.57
3880,-3.8732,0.5874,-0.6610,1554.93,-1389.34,185.73
3890,-3.8738,0.4901,-0.4423,-804.44,-608.28,1045.53
3900,-3.8744,0.3619,-0.2299,-1257.57,-608.46,-625.92
3910,-3.8748,0.2434,-0.0077,-1663.82,-1421.20,-1906.74
3920,-3.8439,0.1615,0.2297,-835.69,-983.95,1906.19
3930,-3.8442,0.1024,0.4834,679.93,1406.56,1672.30
3940,-3.8446,0.0504,0.7516,1117.43,1875.18,-1811.58
3950,-3.8450,-0.0103,0.9939,-1538.82,203.19,-1732.91
3960,-3.8453,-0.0208,1.1608,-1304.44,-765.69,189.39
3970,-3.8459,0.0836,1.2339,1351.81,593.69,-638.37
3980,-3.8464,0.2458,1.2299,-1288.82,1937.62,721.13
3990,-3.8469,0.4174,1.1991,-523.19,1422.30,-700.74
4000,-3.8470,0.6158,1.1903,1429.93,1485.17,564.82
4010,-3.8473,0.8700,1.2109,-1163.82,360.53,486.69
4020,-3.8477,1.1323,1.2307,-632.57,-998.35,-435.18
4030,-3.8479,1.3092,1.2444,945.56,1533.45,-763.24
4040,-3.8480,1.3409,1.2366,-413.82,-716.25,80.51
4050,-3.8480,1.1829,1.2318,-351.32,-1716.19,1768.01
4060,-3.8479,0.9838,1.2305,-585.69,1674.13,-1466.37
4070,-3.8481,1.0198,1.0867,1929.93,1501.89,736.76
4080,-3.8488,1.2214,0.7617,-1460.69,-904.30,-154.17
4090,-3.8481,1.4677,0.3669,351.81,1502.38,-1623.54
4100,-3.8464,1.4708,0.2900,-132.57,-1028.44,1438.17
4110,-3.8458,0.9432,0.8311,273.68,1127.87,-1280.70
4120,-3.8464,0.2645,1.3263,742.43,-1623.17,-1498.41
4130,-3.8466,-0.0585,1.1685,1867.43,1766.11,-1966.19
4140,-3.8458,0.0470,0.8063,523.68,1578.00,674.13
4150,-3.8455,0.2582,0.6415,-1976.32,-796.81,1814.03
4160,-3.8457,0.3928,0.5769,1054.93,-1890.14,-123.78
4170,-3.8457,0.4755,0.4486,-1710.69,1844.48,-1123.90
4180,-3.8452,0.5103,0.1774,867.43,1422.79,-1217.90
4190,-3.8442,0.5253,-0.1522,1320.56,-1295.90,1094.06
4200,-3.8745,0.5452,-0.4313,-757.57,516.60,437.19
4210,-3.8739,0.5922,-0.5840,1789.31,797.91,-32.10
4220,-3.8734,0.6570,-0.5776,-195.07,1251.10,1217.59
4230,-3.8733,0.6754,-0.4869,101.81,-1936.22,-1579.28
4240,-3.8732,0.5925,-0.4240,-1538.82,1673.16,1374.02
4250,-3.8730,0.4133,-0.4612,-148.19,1735.47,-891.48
4260,-3.8727,0.2114,-0.6407,914.31,969.54,-610.29
4270,-3.8721,0.0747,-0.9397,-929.44,1984.74,-1829.41
4280,-3.8715,0.0546,-1.2722,1570.56,-281.13,373.11
4290,-3.8711,0.1498,-1.5376,-1007.57,1156.31,91.25
4300,-3.8710,0.3234,-1.6519,-820.07,-812.26,-1003.05
4310,-3.8707,0.5381,-1.5966,1398.68,563.11,-1581.36
4320,-3.8705,0.7262,-1.4242,883.06,-358.34,1403.08
4330,-3.8705,0.8140,-1.2096,961.18,1704.53,-1784.06
4340,-3.8706,0.7797,-1.0054,195.56,1173.46,685.12
4350,-3.8708,0.6351,-0.8392,-195.07,-686.04,747.99
4360,-3.8711,0.4342,-0.7167,1304.93,579.35,-1517.27
4370,-3.8712,0.2578,-0.6140,-413.82,266.42,-735.78
4380,-3.8713,0.1454,-0.5122,1008.06,1406.74,-673.10
4390,-3.8716,0.0739,-0.4165,-1382.57,-1562.26,14.59
4400,-3.8722,0.0420,-0.3419,1461.18,-1312.38,139.77
4410,-3.8729,0.1257,-0.3131,1383.06,234.44,-250.67
4420,-3.8732,0.4031,-0.3794,101.81,-77.88,-1844.42
4430,-3.8729,0.7565,-0.5526,-398.19,-561.77,249.21
4440,-3.8726,0.9329,-0.7480,836.18,1267.09,-1735.47
4450,-3.8722,0.9043,-0.8643,-585.69,251.77,-1720.21
4460,-3.8718,0.8248,-0.8577,-241.94,1376.71,-1626.71
4470,-3.8715,0.7837,-0.7354,1586.18,-1779.66,1060.79
4480,-3.8716,0.7682,-0.5582,320.56,1876.53,1498.54
4490,-3.8721,0.7812,-0.4025,-1663.82,548.34,1686.40
4500,-3.8724,0.7703,-0.3142,8.06,485.90,905.46
4510,-3.8729,0.6597,-0.3030,-1398.19,-217.29,-1500.67
4520,-3.8734,0.5248,-0.3533,445.56,1220.03,1405.64
4530,-3.8734,0.4521,-0.4418,-820.07,-1217.77,124.27
4540,-3.8729,0.4512,-0.5422,1883.06,-546.02,-1110.29
4550,-3.8721,0.4677,-0.6462,1758.06,-1405.40,1155.15
4560,-3.8715,0.4397,-0.7439,-132.57,1282.10,-1751.28
4570,-3.8711,0.3951,-0.7888,289.31,782.10,1779.79
4580,-3.8710,0.3962,-0.7401,-1413.82,-968.02,1451.54
4590,-3.8711,0.4359,-0.6188,-1273.19,1266.36,-1188.96
4600,-3.8713,0.4401,-0.5116,-195.07,797.67,-1391.85
4610,-3.8717,0.3573,-0.5134,336.18,-1483.52,-157.29
4620,-3.8718,0.2363,-0.6343,1742.43,-1718.08,405.21
4630,-3.8718,0.1610,-0.8019,-1741.94,-1187.07,1545.59
4640,-3.8716,0.1681,-0.9327,617.43,1359.68,1092.16
4650,-3.8713,0.2338,-0.9827,1523.68,609.68,341.92
4660,-3.8713,0.3102,-0.9498,1929.93,-1780.82,1623.05
4670,-3.8715,0.3929,-0.8691,-288.82,-1577.58,123.11
4680,-3.8717,0.4803,-0.7677,-1695.07,750.73,982.67
4690,-3.8718,0.5562,-0.6324,1492.43,1735.29,-1892.15
4700,-3.8718,0.6082,-0.4797,-804.44,-952.09,-1501.28
4710,-3.8718,0.6121,-0.3574,1851.81,-1405.09,1061.52
4720,-3.8721,0.5742,-0.2234,-1648.19,-1748.84,14.89
4730,-3.8729,0.5040,-0.0007,1508.06,-592.65,1796.39
4740,-3.8741,0.4121,0.2809,523.68,-92.77,-1625.06
4750,-3.8440,0.3219,0.5189,758.06,-46.08,-733.89
4760,-3.8446,0.2423,0.6292,1211.18,-1577.51,563.48
4770,-3.8451,0.2073,0.6044,-976.32,531.68,1219.97
4780,-3.8456,0.2584,0.4889,-1460.69,1359.74,-1389.47
4790,-3.8459,0.3959,0.3184,1086.18,-1421.39,1188.42
4800,-3.8463,0.6031,0.1674,-1320.07,750.73,-1702.51
4810,-3.8466,0.8722,0.1011,1211.18,1423.03,0.31
4820,-3.8469,1.1501,0.1377,-351.32,939.15,1797.06
4830,-3.8472,1.3373,0.2666,-773.19,1627.20,828.37
4840,-3.8475,1.3864,0.4153,-820.07,-1872.44,-343.26
4850,-3.8479,1.3289,0.5209,1461.18,1158.94,-967.96
4860,-3.8483,1.2100,0.5608,-1898.19,-1325.56,1313.48
4870,-3.8486,1.0873,0.5233,-1116.94,-216.43,1297.91
4880,-3.8490,1.0323,0.4205,-820.07,-1013.55,1907.23
4890,-3.8492,1.0807,0.2875,148.68,1830.14,-1733.58
4900,-3.8491,1.1934,0.1674,-1663.82,798.95,-1015.08
4910,-3.8485,1.2806,0.0916,758.06,1424.19,-1655.94
4920,-3.8478,1.3079,0.0558,-70.07,-278.81,-890.50
4930,-3.8472,1.3290,0.0389,-585.69,-856.87,-1671.81
4940,-3.8469,1.3774,0.0391,-1882.57,986.94,-109.31
4950,-3.8467,1.4327,0.0562,320.56,1002.69,984.44
4960,-3.8464,1.4607,0.0387,-601.32,-809.75,-1531.19
4970,-3.8461,1.4525,-0.0721,-1023.19,955.93,1843.81
4980,-3.8458,1.4268,-0.2405,1929.93,-1231.57,-640.81
4990,-3.8453,1.3685,-0.3915,-1366.94,1221.50,312.01
5000,-3.8450,1.2600,-0.5034,-820.07,1893.25,-157.04
5010,-3.8445,1.1361,-0.5857,1289.31,-435.06,1092.71
5020,-3.8442,1.0547,-0.6332,1429.93,1033.45,-1641.78
5030,-3.8440,1.0500,-0.6356,-991.94,-1044.86,61.22
5040,-3.8440,1.1079,-0.5970,-1585.69,-1357.36,-501.28
5050,-3.8439,1.1858,-0.5323,1820.56,-419.74,-1876.22
5060,-3.8439,1.2429,-0.4691,-210.69,-138.37,-407.35
5070,-3.8439,1.2578,-0.4231,-898.19,-44.49,-1797.85
5080,-3.8440,1.2365,-0.3907,1008.06,1846.19,-1188.35
5090,-3.8440,1.1925,-0.3762,-1726.32,1986.76,436.71
5100,-3.8440,1.1323,-0.3881,648.68,-153.93,1061.71
5110,-3.8439,1.0530,-0.4124,945.56,-1669.68,467.96
5120,-3.8750,0.9570,-0.4265,-1210.69,-779.24,1327.27
5130,-3.8749,0.8644,-0.4136,-1491.94,1408.08,952.27
5140,-3.8749,0.7960,-0.3677,-1351.32,-935.85,1530.40
5150,-3.8749,0.7573,-0.2976,1898.68,939.03,61.77
5160,-3.8750,0.7339,-0.2251,945.56,1907.71,-1297.49
5170,-3.8750,0.7053,-0.1667,1945.56,-811.10,1968.26
5180,-3.8750,0.6654,-0.1206,-1710.69,-1342.41,1124.63
5190,-3.8750,0.6241,-0.0938,1179.93,563.78,1812.26
5200,-3.8749,0.5917,-0.0977,-101.32,1.16,1687.32
5210,-3.8748,0.5631,-0.1224,-257.57,-498.90,-1406.49
5220,-3.8746,0.5322,-0.1418,86.18,329.22,1156.01
5230,-3.8748,0.5123,-0.1357,133.06,1844.79,-172.18
5240,-3.8749,0.5237,-0.1042,1586.18,-1374.02,-1312.81
5250,-3.8439,0.5659,-0.0601,-960.69,-1342.77,-875.24
5260,-3.8441,0.6169,-0.0260,445.56,313.60,-1484.50
5270,-3.8444,0.6649,-0.0074,-1023.19,673.03,1453.06
5280,-3.8446,0.7144,0.0118,1117.43,-951.84,1390.56
5290,-3.8448,0.7708,0.0386,-554.44,1516.97,-109.38
5300,-3.8448,0.8347,0.0698,-1335.69,938.96,218.81
5310,-3.8450,0.8965,0.1033,-1148.19,939.09,62.62
5320,-3.8452,0.9443,0.1415,-1241.94,1220.46,-1874.82
5330,-3.8455,0.9806,0.1874,883.06,-1888.79,-1921.63
5340,-3.8457,1.0173,0.2432,1523.68,-13.73,78.43
5350,-3.8461,1.0604,0.3047,-1773.19,-873.05,1687.93
5360,-3.8463,1.1047,0.3644,-257.57,-997.99,1000.55
5370,-3.8466,1.1381,0.4188,1414.31,-1357.24,-233.70
5380,-3.8466,1.1520,0.4595,1679.93,1611.57,-1624.21
5390,-3.8466,1.1443,0.4708,-538.82,-1185.30,-389.77
5400,-3.8464,1.1248,0.4475,-1523.19,267.82,1750.92
5410,-3.8463,1.1179,0.4004,-23.19,1283.39,110.23
5420,-3.8463,1.1365,0.3494,-898.19,-747.86,-311.77
5430,-3.8461,1.1692,0.3126,1476.81,720.95,1297.55
5440,-3.8459,1.1989,0.2880,1664.31,17.88,-327.51
5450,-3.8457,1.2083,0.2711,1461.18,861.69,31.80
5460,-3.8457,1.1798,0.2681,-1335.69,-1294.56,1187.99
5470,-3.8458,1.1089,0.2745,-976.32,-1685.24,-749.51
5480,-3.8459,1.0112,0.2830,1945.56,-857.24,-1874.51
5490,-3.8462,0.9163,0.2928,1445.56,220.70,-218.20
5500,-3.8463,0.8656,0.2942,1289.31,1486.15,-796.33
5510,-3.8463,0.8944,0.2794,-1195.07,1657.90,719.30
5520,-3.8464,0.9707,0.2827,-1507.57,-232.67,-1046.39
5530,-3.8464,1.0140,0.3383,258.06,189.39,234.92
5540,-3.8467,0.9836,0.4133,1804.93,-701.17,-1108.76
5550,-3.8469,0.9049,0.4520,1914.31,908.14,-1311.71
5560,-3.8470,0.8252,0.4377,-163.82,1861.08,78.98
5570,-3.8470,0.7643,0.3761,1633.06,32.84,1375.85
5580,-3.8467,0.7137,0.2656,1836.18,142.09,1219.48
5590,-3.8461,0.6635,0.1112,-632.57,-1998.66,-843.26
5600,-3.8451,0.6295,-0.0688,929.93,-1764.34,953.31
5610,-3.8441,0.6613,-0.2478,586.18,-811.28,-1593.93
5620,-3.8744,0.7772,-0.3738,648.68,282.53,-1672.36
5630,-3.8737,0.9092,-0.4043,-507.57,157.71,-141.36
5640,-3.8732,0.9695,-0.3787,383.06,251.77,-985.17
5650,-3.8730,0.9471,-0.3655,101.81,-466.86,1374.21
5660,-3.8733,0.8962,-0.3727,1242.43,1220.58,764.89
5670,-3.8737,0.8621,-0.3756,-1273.19,298.58,1046.14
5680,-3.8739,0.8370,-0.3505,-1648.19,-76.48,-1844.54
5690,-3.8739,0.7806,-0.2904,-851.32,-857.79,-1672.61
5700,-3.8738,0.6760,-0.2395,-70.07,-1170.41,-828.74
5710,-3.8735,0.5583,-0.3096,-1460.69,1345.03,1187.01
5720,-3.8730,0.5460,-0.6067,-523.19,376.04,1655.64
5730,-3.8718,0.6018,-0.9459,1898.68,-1655.21,748.78
5740,-3.8710,0.4626,-0.8920,1039.31,-1076.97,-345.64
5750,-3.8713,0.1334,-0.4678,-773.19,1828.98,-1814.27
5760,-3.8726,-0.1532,-0.0939,1086.18,125.24,-1110.29
5770,-3.8735,-0.3241,0.0239,398.68,-0.31,-172.12
5780,-3.8738,-0.4326,-0.1033,-1476.32,-922.55,-1156.25
5790,-3.8734,-0.5420,-0.3458,633.06,-1203.98,-1953.37
5800,-3.8727,-0.6603,-0.5690,-1366.94,-251.10,124.27
5810,-3.8718,-0.7025,-0.7238,-507.57,-813.84,-1469.91
5820,-3.8708,-0.6449,-0.8051,-1913.82,-626.40,-142.09
5830,-3.8701,-0.5554,-0.8112,1461.18,967.47,-689.09
5840,-3.8698,-0.4749,-0.7340,914.31,186.40,-1595.34
5850,-3.8696,-0.4368,-0.5974,-773.19,-1938.48,623.54
5860,-3.8700,-0.4363,-0.4734,101.81,-453.98,-1266.85
5870,-3.8706,-0.4363,-0.4147,164.31,-578.98,-1985.35
5880,-3.8712,-0.4227,-0.4215,164.31,-1063.35,296.02
5890,-3.8717,-0.4053,-0.4847,1898.68,-1938.35,671.02
5900,-3.8719,-0.3751,-0.5792,133.06,1967.96,1202.15
5910,-3.8719,-0.3147,-0.6630,-7.57,1874.21,1155.09
5920,-3.8718,-0.2518,-0.7122,-273.19,-844.42,-1235.72
5930,-3.8716,-0.2081,-0.7303,-226.32,858.83,-1876.40
5940,-3.8715,-0.1696,-0.7235,1367.43,-1469.18,1639.16
5950,-3.8716,-0.1429,-0.6741,-1695.07,-594.12,-720.21
5960,-3.8717,-0.1385,-0.5992,1711.18,1734.07,-1595.09
5970,-3.8718,-0.1395,-0.5546,-1726.32,-687.81,14.40
5980,-3.8722,-0.1108,-0.5636,-1851.32,1030.94,-1782.35
5990,-3.8726,-0.0198,-0.6270,1820.56,-125.24,-1751.16
6000,-3.8727,0.1285,-0.7345,1476.81,-234.44,1529.97
6010,-3.8724,0.2673,-0.8446,461.18,1984.62,1545.41
6020,-3.8721,0.3309,-0.9012,-1773.19,-108.89,60.79
6030,-3.8721,0.3295,-0.8805,-1632.57,641.24,-1142.40
6040,-3.8722,0.3246,-0.8164,-1820.07,-702.51,-1704.90
6050,-3.8724,0.3546,-0.7675,1554.93,-499.39,1607.73
6060,-3.8727,0.3981,-0.7610,1398.68,1766.30,1889.10
6070,-3.8728,0.4178,-0.7828,-1038.82,-1405.52,-142.15
6080,-3.8727,0.4180,-0.7885,1492.43,-202.33,1529.66
6090,-3.8727,0.4319,-0.7513,1508.06,-921.08,1889.04
6100,-3.8728,0.4542,-0.6858,-710.69,-171.08,1201.60
6110,-3.8730,0.4413,-0.6356,-1851.32,219.60,1795.53
6120,-3.8733,0.4110,-0.6403,492.43,-1358.52,1248.72
6130,-3.8734,0.3716,-0.7039,617.43,-1952.33,-735.66
6140,-3.8732,0.3000,-0.7922,-429.44,1906.92,-548.28
6150,-3.8730,0.2876,-0.8114,-1585.69,-1405.70,185.91
6160,-3.8735,0.4077,-0.7842,820.56,141.17,-329.71
6170,-3.8737,0.6115,-0.8256,195.56,-374.21,1342.16
6180,-3.8734,0.7421,-0.8055,-1726.32,-1670.72,263.98
6190,-3.8735,0.6656,-0.7147,-1007.57,892.03,-64.09
6200,-3.8734,0.4720,-0.7655,1211.18,516.91,-1173.28
6210,-3.8727,0.3623,-0.8663,429.93,-1983.46,326.60
6220,-3.8722,0.3701,-0.8936,-1616.94,1110.05,-564.21
6230,-3.8719,0.3718,-0.8423,-616.94,1625.67,-658.02
6240,-3.8721,0.4258,-0.7043,-398.19,188.17,826.48
6250,-3.8727,0.4937,-0.6598,-1491.94,1844.54,-407.65
6260,-3.8730,0.3895,-0.7585,-804.44,-452.21,-345.09
6270,-3.8733,0.1172,-0.7977,1867.43,-1093.02,-1610.90
6280,-3.8737,-0.1707,-0.7529,-991.94,1890.81,-314.09
6290,-3.8738,-0.2416,-0.6588,-1835.69,-359.74,-1235.90
6300,-3.8739,-0.0995,-0.4662,1086.18,-312.99,1295.53
6310,-3.8745,0.1443,-0.2068,-726.32,343.51,1983.46
6320,-3.8442,0.4365,0.0088,-1523.19,1531.49,-1422.30
6330,-3.8451,0.6951,0.1252,-116.94,1125.79,-812.50
6340,-3.8456,0.8950,0.2075,976.81,32.59,-1906.01
6350,-3.8459,0.9729,0.2483,-1429.44,-1435.79,-46.51
6360,-3.8459,0.8628,0.2355,539.31,-216.86,1266.05
6370,-3.8461,0.6360,0.2288,-1554.44,-1857.73,-108.95
6380,-3.8462,0.4768,0.2301,1414.31,1282.47,375.43
6390,-3.8467,0.4713,0.2548,1039.31,1454.04,1469.18
6400,-3.8472,0.5123,0.3741,336.18,610.29,1109.86
6410,-3.8478,0.4971,0.6227,1586.18,-108.40,-1639.95
6420,-3.8483,0.5007,0.8378,-366.94,-295.96,766.78
6430,-3.8485,0.6748,0.8865,101.81,-764.65,-1701.54
6440,-3.8485,0.8323,0.8578,-1616.94,1470.03,392.33
6450,-3.8486,0.8036,0.6844,-1460.69,1798.46,-670.23
6460,-3.8480,0.7405,0.4287,-1132.57,-389.10,970.03
6470,-3.8470,0.6788,0.4279,-1210.69,-1123.60,-733.58
6480,-3.8466,0.5709,0.6936,-1101.32,-1233.09,-249.21
6490,-3.8468,0.4376,0.9030,1086.18,782.35,860.72
6500,-3.8472,0.3341,0.8832,23.68,-421.02,1595.46
6510,-3.8470,0.2582,0.7783,-1226.32,1047.49,-560.79
6520,-3.8467,0.1667,0.7474,1054.93,-374.51,-857.91
6530,-3.8464,0.0680,0.8163,1351.81,-327.82,298.28
6540,-3.8466,0.0095,0.7738,711.18,484.50,814.09
6550,-3.8464,0.0299,0.5175,1226.81,-953.12,-545.41
6560,-3.8456,0.0393,0.3118,-163.82,-1765.62,1360.35
6570,-3.8448,-0.0255,0.2887,1039.31,-93.69,-1296.33
6580,-3.8446,-0.0537,0.3409,742.43,968.69,-77.58
6590,-3.8447,0.0299,0.3267,1133.06,-343.87,1906.86
6600,-3.8451,0.1967,0.2594,-163.82,1812.50,1844.36
6610,-3.8453,0.3085,0.2114,1179.93,1203.49,797.36
6620,-3.8456,0.2994,0.2267,-507.57,-936.95,1890.99
6630,-3.8461,0.2290,0.3419,-1663.82,1016.17,328.55
6640,-3.8470,0.1200,0.4989,1320.56,-233.95,-1780.64
6650,-3.8479,0.0402,0.6252,-632.57,-140.44,1782.17
6660,-3.8484,0.0555,0.6665,1148.68,31.31,-1780.03
6670,-3.8484,0.1350,0.5933,-882.57,1312.56,1.28
6680,-3.8481,0.2852,0.3972,1289.31,-62.26,1563.60
6690,-3.8479,0.4486,0.3220,508.06,-1155.70,-1030.52
6700,-3.8481,0.4094,0.3126,1429.93,1219.60,-1265.01
6710,-3.8466,-0.1407,0.0920,-1054.44,968.87,-1749.82
6720,-3.8468,-0.2230,0.1055,1992.43,-203.43,-890.50
6730,-3.8473,-0.1111,0.2288,-538.82,1515.14,672.06
6740,-3.8478,0.1060,0.2963,1789.31,1296.63,-1983.95
6750,-3.8479,0.3052,0.2001,1570.56,1922.06,-1093.20
6760,-3.8474,0.3766,-0.0515,-929.44,1609.92,-249.63
6770,-3.8466,0.3146,-0.3566,211.18,1406.98,-1859.50
6780,-3.8461,0.2524,-0.5681,273.68,-1640.01,-1813.23
6790,-3.8461,0.3497,-0.6272,320.56,-718.26,1655.09
6800,-3.8466,0.6486,-0.5752,773.68,-280.58,-1720.03
6810,-3.8472,1.0016,-0.5046,-976.32,-1623.78,311.34
6820,-3.8478,1.2202,-0.4467,211.18,-591.80,1452.09
6830,-3.8484,1.2322,-0.4102,195.56,-1169.49,-1735.29
6840,-3.8490,1.0922,-0.4434,1726.81,-497.62,-1500.85
6850,-3.8495,0.9160,-0.5183,-195.07,-747.92,-547.79
6860,-3.8497,0.7686,-0.5427,1258.06,1658.02,1217.71
6870,-3.8500,0.6340,-0.4923,-1616.94,-1467.29,-1876.10
6880,-3.8502,0.4681,-0.4142,1164.31,985.60,-985.35
6890,-3.8505,0.2609,-0.3333,-70.07,-1014.77,-344.60
6900,-3.8506,0.0510,-0.2499,1398.68,1344.24,-578.80
6910,-3.8505,-0.1158,-0.1753,-1460.69,15.69,171.39
6920,-3.8503,-0.1913,-0.1068,1179.93,1577.88,1109.01
6930,-3.8502,-0.1592,-0.0024,-476.32,-1656.68,-812.74
6940,-3.8501,-0.0990,0.1561,-366.94,-297.24,1578.06
6950,-3.8502,-0.1144,0.3104,-663.82,-0.24,-827.88
6960,-3.8503,-0.2256,0.4062,1367.43,-250.24,-1202.58
6970,-3.8503,-0.3594,0.4642,-866.94,15.14,1485.17
6980,-3.8502,-0.4209,0.5201,-1991.94,-563.23,-249.15
6990,-3.8497,-0.3801,0.5726,-1866.94,-1407.10,407.23
7000,-3.8494,-0.3135,0.5948,-648.19,1311.71,1969.85
7010,-3.8491,-0.3138,0.5717,-116.94,155.58,-748.84
7020,-3.8489,-0.3691,0.5414,-163.82,1186.83,391.72
7030,-3.8488,-0.4189,0.5464,758.06,1311.77,157.29
7040,-3.8488,-0.4453,0.5773,-1616.94,1952.27,-545.84
7050,-3.8486,-0.4543,0.6078,-991.94,1905.33,1516.72
7060,-3.8486,-0.4493,0.6296,1851.81,1811.58,1704.28
7070,-3.8486,-0.4253,0.6483,-1507.57,608.46,704.35
7080,-3.8488,-0.3657,0.6885,1570.56,-1000.85,-1264.40
7090,-3.8489,-0.2753,0.7637,1195.56,139.89,-904.91
7100,-3.8490,-0.1691,0.8488,773.68,1765.08,767.09
7110,-3.8492,-0.0389,0.9470,-1632.57,655.88,157.90
7120,-3.8494,0.1110,1.0552,-976.32,1234.25,-529.42
7130,-3.8491,0.2306,1.0771,-1788.82,-937.32,1423.89
7140,-3.8491,0.2904,0.9785,1523.68,1875.43,-107.30
7150,-3.8489,0.3209,0.8090,1179.93,1250.55,-607.48
7160,-3.8483,0.3743,0.6077,1086.18,-452.51,1314.03
7170,-3.8477,0.4928,0.4432,-85.69,1781.92,-951.97
7180,-3.8470,0.6565,0.3625,-913.82,735.29,-327.27
7190,-3.8464,0.7833,0.3473,39.31,-1592.47,1547.55
7200,-3.8461,0.7970,0.3484,273.68,454.65,-1296.20
7210,-3.8458,0.6777,0.3113,-1976.32,595.28,-1452.45
7220,-3.8457,0.5063,0.2391,-1241.94,-154.97,-811.95
7230,-3.8456,0.4178,0.2072,820.56,-1389.65,375.43
7240,-3.8458,0.4542,0.2477,1492.43,-1483.58,-1093.38
7250,-3.8462,0.5588,0.3207,-1851.32,-296.02,1266.05
7260,-3.8468,0.6720,0.3770,-460.69,1047.91,-1874.39
7270,-3.8474,0.7179,0.3947,-1976.32,251.28,-1671.14
7280,-3.8479,0.6494,0.3715,-101.32,-1483.03,-1280.52
7290,-3.8481,0.5107,0.3123,-866.94,-451.90,-1874.33
7300,-3.8481,0.3751,0.2340,1383.06,-30.27,313.05
7310,-3.8481,0.2709,0.1532,23.68,1953.86,-187.07
7320,-3.8479,0.1991,0.0916,-1320.07,-390.14,-1671.63
7330,-3.8477,0.1450,0.0337,1492.43,-280.88,-515.50
7340,-3.8474,0.0547,-0.0477,-1429.44,312.74,1812.56
7350,-3.8473,-0.0200,-0.1378,-991.94,1890.69,-31.37
7360,-3.8466,0.0011,-0.2001,1445.56,-1625.06,30.94
7370,-3.8455,0.1426,-0.3425,148.68,-1609.38,-1281.68
7380,-3.8445,0.4630,-0.5261,-1741.94,156.49,1999.33
7390,-3.8448,0.7162,-0.4470,-726.32,657.10,-610.41
7400,-3.8452,0.6849,-0.1251,-320.07,-1217.41,1967.83
7410,-3.8448,0.4663,0.1819,-320.07,-14.34,-953.43
7420,-3.8448,0.1340,0.4332,-304.44,-717.90,-546.57
7430,-3.8453,-0.1133,0.7229,1164.31,-546.63,375.79
7440,-3.8462,-0.0430,1.0400,1508.06,546.63,-1623.60
7450,-3.8472,0.2399,1.2717,-1491.94,1140.50,1236.39
7460,-3.8483,0.4600,1.3436,-1288.82,-1218.32,-106.93
7470,-3.8489,0.4917,1.3263,-1116.94,-14.77,1643.19
7480,-3.8489,0.3514,1.3285,-1054.44,1766.54,1893.19
7490,-3.8480,0.1428,1.3126,992.43,-1952.45,377.56
7500,-3.8469,-0.0079,1.1893,-1710.69,15.87,-1263.06
7510,-3.8461,-0.0062,1.0618,-1007.57,249.94,-1591.43
7520,-3.8458,0.1388,1.0873,-788.82,-78.19,-1154.24
7530,-3.8459,0.3561,1.2051,1773.68,-827.88,1361.45
7540,-3.8463,0.5835,1.2308,1586.18,-1749.33,-450.81
7550,-3.8464,0.7689,1.2026,-1304.44,1547.97,861.76
7560,-3.8468,0.9019,1.2850,-1570.07,1938.96,1658.57
7570,-3.8472,0.9890,1.4220,-554.44,486.08,471.25
7580,-3.8473,1.0308,1.5162,-1398.19,-1982.48,-403.50
7590,-3.8469,1.0479,1.6140,-54.44,-1919.92,1331.05
7600,-3.8466,1.0591,1.7917,-1866.94,-1404.24,1143.74
7610,-3.8463,1.0382,2.0631,-429.44,1345.76,-480.90
7620,-3.8461,0.8998,2.3502,898.68,80.14,238.40
7630,-3.8462,0.6071,2.5342,-820.07,829.83,-370.42
7640,-3.8462,0.2529,2.5741,1711.18,376.16,-995.06
7650,-3.8463,-0.0690,2.5151,383.06,1484.86,-1620.00
7660,-3.8467,-0.3027,2.4255,-820.07,1952.94,1786.13
7670,-3.8473,-0.4283,2.3259,1258.06,-1516.24,-1760.93
7680,-3.8480,-0.5066,2.1246,1179.93,1733.52,-1229.86
7690,-3.8485,-0.5784,1.7563,-835.69,-32.29,-230.29
7700,-3.8485,-0.6118,1.3121,1976.81,826.97,-1809.08
7710,-3.8485,-0.5610,0.8909,1695.56,-32.47,-138.12
7720,-3.8485,-0.3843,0.4878,195.56,-1954.22,-1013.92
7730,-3.8486,-0.1377,0.0861,-1179.44,-1547.67,-358.46
7740,-3.8488,0.0089,-0.3337,-1616.94,-969.06,-1171.75
7750,-3.8488,-0.0306,-0.7684,1148.68,1281.25,1155.58
7760,-3.8484,-0.1876,-1.1257,86.18,1656.19,1857.85
7770,-3.8469,-0.3818,-1.3480,-7.57,-78.55,1763.37
7780,-3.8450,-0.5848,-1.4509,-866.94,-532.04,1841.06
7790,-3.8442,-0.7166,-1.4785,1148.68,-1704.28,-1455.99
7800,-3.8441,-0.7693,-1.5533,289.31,-1235.78,434.57
7810,-3.8749,-0.8419,-1.6382,1539.31,1185.97,1075.07
7820,-3.8741,-0.9319,-1.5924,242.43,-1673.52,-1956.36
7830,-3.8735,-0.9407,-1.4252,726.81,185.67,-909.36
7840,-3.8734,-0.8016,-1.1987,-398.19,1591.86,-1393.43
7850,-3.8741,-0.5486,-0.9423,1398.68,-1423.46,-439.88
7860,-3.8440,-0.2792,-0.6780,1789.31,-594.85,138.73
7870,-3.8451,-0.0375,-0.4686,273.68,1233.83,1670.53
7880,-3.8456,0.1620,-0.3575,-788.82,31.13,1967.83
7890,-3.8451,0.2919,-0.3582,742.43,-1765.32,1827.39
7900,-3.8750,0.3800,-0.4585,1367.43,-1843.20,405.52
7910,-3.8738,0.4597,-0.6158,648.68,1313.23,-141.54
7920,-3.8729,0.5131,-0.7722,-1148.19,1172.73,717.53
7930,-3.8728,0.5035,-0.9047,1679.93,1157.23,201.60
7940,-3.8730,0.4297,-1.0585,461.18,204.10,1701.35
7950,-3.8729,0.5446,-1.5652,-991.94,516.42,-658.33
7960,-3.8702,0.5272,-2.1017,1711.18,-342.71,-1096.86
7970,-3.8688,0.0935,-1.7456,-507.57,-1014.65,-129.15
7980,-3.8715,-0.1643,-0.9071,-23.19,562.62,-690.92
7990,-3.8743,-0.1573,-0.5248,-1023.19,-94.12,1373.17
8000,-3.8441,-0.0524,-0.6342,-132.57,843.38,1358.34
8010,-3.8749,0.1510,-0.8633,1304.93,-1156.37,889.34
8020,-3.8739,0.3594,-0.9646,-663.82,1500.24,232.67
8030,-3.8732,0.5021,-0.9159,-1991.94,531.92,1185.61
8040,-3.8727,0.5526,-0.8136,273.68,-1233.40,-283.08
8050,-3.8721,0.4855,-0.7148,-1257.57,-139.59,76.48
8060,-3.8717,0.3522,-0.6331,-1851.32,500.92,1139.22
8070,-3.8716,0.2426,-0.5785,1086.18,-1030.58,-688.78
8080,-3.8716,0.1581,-0.5389,-945.07,1953.55,842.59
8090,-3.8719,0.0989,-0.4965,242.43,-984.07,905.15
8100,-3.8726,0.0746,-0.4562,664.31,453.31,-47.85
8110,-3.8729,0.1194,-0.4508,1554.93,1609.50,1030.33
8120,-3.8732,0.2628,-0.4918,-710.69,-1702.94,1999.08
8130,-3.8730,0.4701,-0.5674,1648.68,1047.36,-969.73
8140,-3.8726,0.6494,-0.6548,179.93,-624.08,-1673.03
8150,-3.8721,0.7324,-0.7162,-866.94,188.72,-1001.28
8160,-3.8717,0.7111,-0.7362,1758.06,329.53,1186.10
8170,-3.8717,0.6279,-0.7330,-976.32,1766.97,-845.21
8180,-3.8718,0.5463,-0.7218,383.06,-1826.90,-1720.21
8190,-3.8722,0.5092,-0.6931,1929.93,-389.59,-735.84
8200,-3.8726,0.5387,-0.6503,1179.93,-717.77,404.85
8210,-3.8730,0.6404,-0.6333,961.18,766.66,-1235.66
8220,-3.8733,0.7877,-0.6571,1976.81,-1061.28,-1907.53
8230,-3.8734,0.9229,-0.6658,836.18,-107.85,1951.78
8240,-3.8734,0.9808,-0.6267,-1866.94,-1216.98,1483.03
8250,-3.8734,0.9359,-0.5604,1554.93,-216.86,-188.78
8260,-3.8733,0.8094,-0.4663,-195.07,267.40,-1891.72
8270,-3.8733,0.6724,-0.3662,-382.57,314.03,-1938.42
8280,-3.8733,0.6274,-0.3323,-1929.44,1126.28,-1985.11
8290,-3.8732,0.7048,-0.3588,320.56,1469.97,-953.80
8300,-3.8729,0.8374,-0.3567,-1773.19,-1920.53,1702.39
8310,-3.8729,0.9437,-0.2961,-804.44,-1654.66,1624.27
8320,-3.8732,0.9910,-0.2198,804.93,-1904.42,1733.76
8330,-3.8734,0.9889,-0.1674,-1148.19,-138.73,233.89
8340,-3.8737,0.9635,-0.1464,-1413.82,-1419.98,1593.38
8350,-3.8738,0.9460,-0.1558,-663.82,1267.46,718.44
8360,-3.8739,0.9457,-0.2030,1101.81,64.33,452.82
8370,-3.8740,0.9550,-0.2855,1054.93,-1982.54,1733.95
8380,-3.8740,0.9802,-0.3947,-1757.57,-545.04,-1766.24
8390,-3.8739,1.0149,-0.5127,1476.81,1486.27,-1219.54
8400,-3.8738,1.0236,-0.5884,1914.31,-1623.05,-1516.66
8410,-3.8739,0.9797,-0.5759,-976.32,689.45,-1923.03
8420,-3.8743,0.8781,-0.4908,1414.31,-1716.86,1280.09
8430,-3.8748,0.7458,-0.3997,398.68,1173.58,655.27
8440,-3.8440,0.6450,-0.3674,-523.19,845.15,405.46
8450,-3.8445,0.6259,-0.4106,-1429.44,969.97,-297.61
8460,-3.8447,0.6948,-0.4932,117.43,-561.28,-360.23
8470,-3.8448,0.8293,-0.5594,945.56,876.34,-1032.23
8480,-3.8448,0.9740,-0.5835,-1835.69,392.21,545.78
8490,-3.8450,1.0475,-0.5828,679.93,1314.39,-1376.16
8500,-3.8450,1.0089,-0.5784,-1913.82,1408.26,467.59
8510,-3.8451,0.8910,-0.5701,1148.68,1970.70,1498.84
8520,-3.8453,0.7544,-0.5348,-1945.07,-967.04,-1876.16
8530,-3.8457,0.6515,-0.4666,570.56,-451.66,-1469.85
8540,-3.8461,0.6195,-0.3905,-601.32,282.47,-110.29
8550,-3.8462,0.6462,-0.3350,-695.07,-1983.22,1483.58
8560,-3.8463,0.6990,-0.3331,-1273.19,1126.22,-125.67
8570,-3.8462,0.7833,-0.3999,1476.81,1360.72,-1203.80
8580,-3.8459,0.9008,-0.5090,273.68,814.03,77.33
8590,-3.8459,1.0293,-0.6063,-695.07,-1154.54,-376.04
8600,-3.8459,1.1304,-0.6526,-241.94,-1607.42,-407.47
8610,-3.8461,1.1494,-0.6394,695.56,470.95,-298.16
8620,-3.8463,1.0878,-0.5779,-866.94,-1841.55,-688.78
8630,-3.8467,1.0162,-0.5035,-757.57,-1966.67,-766.78
8640,-3.8470,1.0074,-0.4399,-1913.82,-451.17,-1485.41
8650,-3.8473,1.0931,-0.3835,961.18,-310.55,327.21
8660,-3.8475,1.2657,-0.3439,-70.07,-1091.67,717.96
8670,-3.8478,1.4945,-0.3279,-1976.32,-13.18,-1047.61
8680,-3.8479,1.7322,-0.3092,-695.07,-1965.88,-94.42
8690,-3.8479,1.9402,-0.2623,1726.81,425.23,-297.49
8700,-3.8478,2.0874,-0.1997,351.81,-1574.34,1358.83
8710,-3.8477,2.1437,-0.1758,-804.44,-1558.47,671.45
8720,-3.8475,2.1171,-0.2324,-1601.32,1504.15,1093.38
8730,-3.8474,2.0608,-0.3271,-1007.57,-1745.91,-1203.61
8740,-3.8470,1.9910,-0.3721,-210.69,-1871.03,-719.42
8750,-3.8463,1.8523,-0.3473,-1148.19,378.85,-1219.48
8760,-3.8453,1.6335,-0.3025,1101.81,-449.52,421.14
8770,-3.8444,1.4097,-0.2738,1101.81,1284.42,593.14
8780,-3.8746,1.2567,-0.2554,445.56,955.87,-16.17
8790,-3.8734,1.2218,-0.2562,867.43,-685.06,952.58
8800,-3.8723,1.2760,-0.3192,398.68,-794.49,-1203.67
8810,-3.8711,1.2789,-0.4553,-663.82,-856.93,1093.08
8820,-3.8700,1.1193,-0.6163,-288.82,1721.19,452.21
8830,-3.8691,0.8352,-0.7233,-726.32,1111.51,-1923.10
8840,-3.8684,0.5405,-0.7448,-1085.69,-576.54,-1735.84
8850,-3.8678,0.3131,-0.7217,1195.56,672.91,1592.29
8860,-3.8674,0.1885,-0.7030,86.18,-374.39,-1548.34
8870,-3.8672,0.1598,-0.7036,133.06,-1984.01,-1673.28
8880,-3.8671,0.1946,-0.6921,461.18,1937.81,-1735.78
8890,-3.8672,0.2699,-0.6222,914.31,-593.38,764.22
8900,-3.8678,0.3621,-0.4733,-1445.07,359.86,1842.53
8910,-3.8688,0.4512,-0.2651,-1648.19,-577.45,-204.10
8920,-3.8698,0.5311,-0.0498,1758.06,-1936.65,233.83
8930,-3.8708,0.5967,0.1179,-7.57,1625.98,843.63
8940,-3.8718,0.6532,0.2048,383.06,-905.09,1640.81
8950,-3.8726,0.7129,0.2111,-382.57,-1780.03,437.87
8960,-3.8732,0.7495,0.1759,-741.94,-983.03,562.87
8970,-3.8737,0.7086,0.1456,-54.44,-1482.97,734.68
8980,-3.8740,0.5773,0.1138,-1288.82,-1358.03,1172.12
8990,-3.8743,0.4045,0.0533,1898.68,-1436.40,-1093.57
9000,-3.8743,0.2302,-0.0231,-210.69,-1171.14,1843.81
9010,-3.8743,0.0615,-0.0884,1476.81,1047.30,-359.44
9020,-3.8741,-0.0952,-0.1390,-116.94,687.56,-1906.43
9030,-3.8740,-0.2313,-0.1775,-179.44,-1781.49,952.82
9040,-3.8740,-0.3431,-0.1913,-1601.32,1296.39,-1156.62
9050,-3.8740,-0.4316,-0.1643,86.18,-469.42,1733.95
9060,-3.8741,-0.4817,-0.1031,758.06,-1016.48,1499.63
9070,-3.8743,-0.4742,-0.0504,-1648.19,-1188.48,77.88
9080,-3.8744,-0.4218,-0.0488,-695.07,1561.52,874.88
9090,-3.8744,-0.3722,-0.1014,-1976.32,1764.77,1874.88
9100,-3.8743,-0.3636,-0.1833,367.43,-969.48,-703.37
9110,-3.8739,-0.3948,-0.2754,1461.18,546.14,359.01
9120,-3.8737,-0.4485,-0.3618,1476.81,764.83,-1438.05
9130,-3.8734,-0.5123,-0.4308,-1398.19,1702.21,-688.23
9140,-3.8732,-0.5806,-0.4893,-1570.07,873.96,-1578.98
9150,-3.8729,-0.6534,-0.5333,1695.56,1389.47,405.27
9160,-3.8728,-0.7253,-0.5469,367.43,-251.28,1358.28
9170,-3.8727,-0.7911,-0.5330,-835.69,-1985.84,-1829.22
9180,-3.8726,-0.8589,-0.4961,-1257.57,-204.71,-1876.10
9190,-3.8726,-0.9358,-0.4352,-1929.44,513.92,-282.23
9200,-3.8726,-1.0135,-0.3658,226.81,310.67,-78.98
9210,-3.8724,-1.0776,-0.3170,-1726.32,1185.49,1905.52
9220,-3.8722,-1.1245,-0.2985,-1929.44,-564.64,514.95
9230,-3.8719,-1.1527,-0.2964,70.56,1810.30,-594.36
9240,-3.8715,-1.1495,-0.2946,461.18,-1924.13,218.14
9250,-3.8711,-1.1046,-0.2968,867.43,-1689.76,1718.14
9260,-3.8707,-1.0261,-0.2986,-1382.57,-1970.95,-1813.11
9270,-3.8704,-0.7380,-0.1375,-1601.32,982.73,1296.45
9280,-3.8705,-0.6722,-0.0708,1539.31,-1579.59,-437.81
9290,-3.8705,-0.6168,-0.0256,1961.18,-1048.22,-1750.18
9300,-3.8705,-0.5585,-0.0217,1054.93,733.15,-1828.19
9310,-3.8705,-0.4862,-0.0737,523.68,1233.28,-656.31
9320,-3.8704,-0.4001,-0.1581,1773.68,-1422.85,1687.32
9330,-3.8704,-0.3237,-0.2250,789.31,-219.54,-906.62
9340,-3.8704,-0.2789,-0.2385,-1429.44,-781.92,1390.14
9350,-3.8705,-0.2517,-0.2010,304.93,1483.83,1343.26
9360,-3.8706,-0.2003,-0.1554,-210.69,-1719.30,718.32
9370,-3.8708,-0.1130,-0.1276,-1632.57,124.57,-203.43
9380,-3.8710,-0.0386,-0.1058,1539.31,-312.74,1890.32
9390,-3.8712,-0.0206,-0.0741,-929.44,-1531.37,-312.74
9400,-3.8713,-0.0397,-0.0249,1367.43,-1468.81,-1187.68
9410,-3.8713,-0.0474,0.0280,-1070.07,828.00,124.94
9420,-3.8715,-0.0244,0.0657,1945.56,-406.37,-1609.38
9430,-3.8716,-0.0015,0.0828,883.06,421.81,-15.50
9440,-3.8716,-0.0143,0.0886,-179.44,-1390.69,1031.37
9450,-3.8717,-0.0654,0.1027,-1820.07,-640.69,-1046.75
9460,-3.8717,-0.1301,0.1262,-366.94,1156.07,-1109.19
9470,-3.8716,-0.1718,0.1313,-648.19,171.57,609.62
9480,-3.8716,-0.1786,0.1046,-1976.32,827.76,-1140.38
9490,-3.8715,-0.1764,0.0679,1148.68,1405.88,468.93
9500,-3.8715,-0.1897,0.0455,1429.93,702.76,1609.50
9510,-3.8715,-0.2109,0.0298,-273.19,1843.32,-843.69
9520,-3.8713,-0.2129,-0.0065,1008.06,-172.30,1937.50
9530,-3.8712,-0.1901,-0.0574,758.06,-812.93,-1890.69
9540,-3.8711,-0.1630,-0.0833,-320.07,671.45,-1593.87
9550,-3.8710,-0.1426,-0.0699,-851.32,1359.01,1562.32
9560,-3.8710,-0.1228,-0.0416,1758.06,-937.81,-531.43
9570,-3.8708,-0.0979,-0.0183,289.31,-1312.74,31.13
9580,-3.8710,-0.0679,0.0021,-523.19,1671.63,-750.06
9590,-3.8710,-0.0321,0.0215,-679.44,281.07,1890.62
9600,-3.8710,0.0082,0.0358,-101.32,-1234.50,453.12
9610,-3.8711,0.0406,0.0479,1054.93,578.12,-921.81
9620,-3.8711,0.0579,0.0626,1211.18,-1874.94,1578.19
9630,-3.8711,0.0728,0.0763,-585.69,15.69,343.87
9640,-3.8712,0.0923,0.0869,1320.56,1765.75,-390.50
9650,-3.8712,0.1035,0.0957,-179.44,-874.88,-1187.38
9660,-3.8712,0.0992,0.1012,1258.06,250.18,1843.93
9670,-3.8712,0.0907,0.0994,711.18,953.31,875.18
9680,-3.8712,0.0898,0.0923,-382.57,718.87,93.93
9690,-3.8713,0.0907,0.0955,-491.94,-187.38,-718.63
9700,-3.8713,0.0830,0.1219,-382.57,218.87,1968.93
9710,-3.8715,0.0686,0.1688,-1366.94,-390.50,-62.32
9720,-3.8715,0.0529,0.2175,789.31,1609.50,1203.43
9730,-3.8716,0.0416,0.2495,-1226.32,-156.19,-1359.01
9740,-3.8716,0.0376,0.2634,1336.18,-62.44,1187.93
9750,-3.8716,0.0369,0.2725,820.56,1718.81,594.24
9760,-3.8717,0.0355,0.2853,726.81,-1124.94,-15.14
9770,-3.8717,0.0392,0.2970,554.93,515.69,-874.45
9780,-3.8717,0.0547,0.3026,1023.68,-1984.31,-1421.33
9790,-3.8717,0.0746,0.3082,-991.94,-1265.56,-1311.95
9800,-3.8717,0.0872,0.3167,1554.93,-546.75,-280.70
9810,-3.8716,0.0914,0.3219,-835.69,531.37,1969.36
9820,-3.8715,0.0959,0.3210,-288.82,1203.25,1094.36
9830,-3.8713,0.1084,0.3131,289.31,1093.93,375.61
9840,-3.8713,0.1307,0.2926,1883.06,78.31,-436.89
9850,-3.8712,0.1577,0.2581,742.43,1453.37,-1108.83
9860,-3.8711,0.1758,0.2244,195.56,1031.56,-1405.76
9870,-3.8710,0.1804,0.2013,-1491.94,719.06,-1858.95
9880,-3.8708,0.1826,0.1740,-898.19,1765.93,1312.87
9890,-3.8707,0.1852,0.1309,-616.94,-1734.07,1140.93
9900,-3.8706,0.1898,0.0754,-288.82,750.31,-1718.51
9910,-3.8704,0.2076,0.0023,304.93,1656.62,1015.75
9920,-3.8701,0.2297,-0.0704,-1413.82,297.24,265.62
9930,-3.8700,0.2297,-0.0878,1414.31,-1015.20,546.69
9940,-3.8701,0.2003,-0.0338,1414.31,766.05,-375.18
9950,-3.8702,0.1543,0.0481,1648.68,-327.76,-1703.25
9960,-3.8705,0.1044,0.1217,-241.94,-1843.51,-1687.44
9970,-3.8707,0.0631,0.1709,1367.43,-421.69,-1593.57
9980,-3.8708,0.0359,0.1851,86.18,1875.12,1515.93
9990,-3.8710,0.0090,0.1796,601.81,-312.44,-280.94
10000,-3.8710,-0.0270,0.1848,1164.31,-1015.62,-984.07
10010,-3.8710,-0.0629,0.2083,554.93,-328.19,-1593.44
