timestamp_ms,ax,ay,az,gx,gy,gz
0,-3.8611,2.4475,-0.3629,-1585.69,989.26,1124.21
10,-3.8613,2.2362,-0.3589,1289.31,1551.64,-266.36
20,-3.8618,1.9563,-0.3453,-1757.57,-1933.17,-1813.23
30,-3.8625,1.6661,-0.3043,-1585.69,-199.34,1233.64
40,-3.8634,1.4065,-0.2544,1273.68,1050.11,1858.76
50,-3.8641,1.1854,-0.2314,39.31,-559.75,1390.08
60,-3.8647,1.0242,-0.2719,-257.57,-1622.74,-516.11
70,-3.8650,0.9594,-0.3673,-898.19,1205.08,1577.58
80,-3.8651,0.9700,-0.4591,-1195.07,986.21,671.14
90,-3.8654,0.9965,-0.4860,164.31,1236.27,655.33
100,-3.8660,1.0153,-0.4291,-445.07,1798.77,-1235.35
110,-3.8668,1.0287,-0.3181,1961.18,1080.08,-532.10
120,-3.8678,1.0270,-0.2035,-320.07,-716.80,-641.30
130,-3.8688,1.0120,-0.1136,-538.82,1955.08,1921.45
140,-3.8698,1.0259,-0.0551,1539.31,1455.08,1312.26
150,-3.8707,1.1104,-0.0321,-679.44,955.08,-890.75
160,-3.8716,1.2388,-0.0258,-1866.94,-107.24,-312.62
170,-3.8723,1.3352,0.0007,-1429.44,705.51,953.06
180,-3.8732,1.3422,0.0686,-1085.69,96.31,421.88
190,-3.8741,1.2573,0.1737,-195.07,783.81,-1609.25
200,-3.8750,1.1208,0.3042,945.56,-1763.18,875.31
210,-3.8446,0.9745,0.4349,-523.19,-1060.36,1453.67
220,-3.8453,0.8685,0.5145,742.43,-326.23,-1764.83
230,-3.8458,0.8500,0.4974,-820.07,1861.02,-1077.15
240,-3.8459,0.9083,0.3939,804.93,-326.48,-655.33
250,-3.8457,0.9895,0.2767,273.68,-1576.35,-749.27
260,-3.8452,1.1146,0.2167,-1335.69,-576.23,1641.11
270,-3.8447,1.3749,0.2076,-1320.07,-263.49,219.12
280,-3.8445,1.7278,0.1991,-7.57,-1419.25,-905.88
290,-3.8441,1.9879,0.1527,1164.31,1487.73,78.49
300,-3.8439,2.0428,0.0771,-1538.82,-449.28,-1515.38
310,-3.8748,1.9265,0.0228,1492.43,1878.97,-187.38
320,-3.8741,1.7448,-0.0046,-1398.19,-1074.40,62.50
330,-3.8737,1.5856,-0.0580,-663.82,-590.39,15.56
340,-3.8734,1.4653,-0.1526,-1038.82,581.18,-875.12
350,-3.8733,1.3722,-0.2401,-429.44,471.56,-937.81
360,-3.8733,1.2958,-0.2906,-351.32,1268.25,483.89
370,-3.8735,1.1907,-0.3073,1867.43,-1200.62,1655.64
380,-3.8738,1.0161,-0.3000,414.31,674.19,1796.26
390,-3.8739,0.7770,-0.3024,-1929.44,1595.70,-1922.49
400,-3.8738,0.4843,-0.3351,-538.82,1298.34,405.64
410,-3.8737,0.1764,-0.3486,1992.43,1110.29,1843.08
420,-3.8735,-0.0712,-0.3275,-1413.82,-624.69,-516.36
430,-3.8734,-0.2571,-0.3322,-1101.32,-1906.43,-1063.17
440,-3.8733,-0.4542,-0.3810,-898.19,1499.45,1780.58
450,-3.8718,-1.6469,0.3334,226.81,1763.06,-1922.06
460,-3.8721,-1.8639,0.7866,1211.18,-1315.73,94.36
470,-3.8726,-1.9530,1.1013,1429.93,699.46,360.90
480,-3.8729,-2.0509,1.2090,-1976.32,980.53,1095.89
490,-3.8732,-2.1830,1.2245,1492.43,-1238.40,-575.81
500,-3.8733,-2.2673,1.2209,586.18,745.73,-1294.49
510,-3.8734,-2.2697,1.1556,1789.31,292.42,627.38
520,-3.8737,-2.2167,1.0481,1492.43,-66.96,-1747.80
530,-3.8738,-2.1860,0.9644,273.68,-1832.46,-1310.49
540,-3.8738,-2.2247,0.9299,195.56,-551.15,1470.58
550,-3.8739,-2.2607,0.9327,-757.57,-957.52,-654.48
560,-3.8740,-2.1914,0.9481,-1366.94,-598.21,-263.85
570,-3.8741,-2.0284,0.9592,-491.94,1370.67,1454.96
580,-3.8745,-1.8540,0.9324,367.43,-1207.09,1939.33
590,-3.8750,-1.6991,0.8147,-1304.44,-644.29,939.27
600,-3.8444,-1.5582,0.6073,-1476.32,293.52,1298.46
610,-3.8450,-1.4330,0.3511,554.93,1746.95,-1186.34
620,-3.8453,-1.3029,0.0837,586.18,950.32,313.17
630,-3.8457,-1.1521,-0.1576,1242.43,-1268.19,-374.88
640,-3.8458,-0.9860,-0.3663,539.31,-158.51,-500.37
650,-3.8458,-0.8063,-0.5532,1804.93,1123.05,-1235.11
660,-3.8457,-0.6075,-0.6953,804.93,1201.54,-1360.47
670,-3.8455,-0.3922,-0.7789,-1757.57,-985.60,-1470.15
680,-3.8451,-0.2013,-0.8180,1804.93,311.71,717.22
690,-3.8448,-0.0953,-0.8077,-1757.57,-687.93,-1204.77
700,-3.8450,0.0558,-0.7046,1336.18,-750.12,1107.97
710,-3.8452,0.2467,-0.7734,-851.32,1812.56,-1110.78
720,-3.8452,0.4329,-0.8563,-413.82,1000.43,295.35
730,-3.8453,0.5798,-0.9242,-585.69,-1608.58,-220.46
740,-3.8452,0.6854,-0.9590,-1773.19,1704.22,607.54
750,-3.8452,0.7310,-0.9646,-257.57,1251.28,-892.52
760,-3.8451,0.7433,-0.9540,1570.56,532.65,919.98
770,-3.8451,0.7583,-0.9407,-851.32,1892.03,1373.11
780,-3.8451,0.7798,-0.9315,1070.56,-404.79,-1205.02
790,-3.8450,0.7985,-0.8993,-179.44,767.09,-1626.83
800,-3.8448,0.8297,-0.8055,-1788.82,892.15,-486.15
810,-3.8446,0.8594,-0.6967,-1788.82,892.21,545.29
820,-3.8446,0.8508,-0.6169,-1991.94,-1170.23,1873.60
830,-3.8446,0.8422,-0.5685,914.31,1032.90,-1204.35
840,-3.8444,0.8550,-0.5616,-195.07,-764.04,1936.34
850,-3.8440,0.8715,-0.5729,1445.56,111.02,-1469.85
860,-3.8748,0.9287,-0.5758,-445.07,-1326.48,-1157.41
870,-3.8740,1.0365,-0.5801,-1116.94,-1701.35,61.34
880,-3.8733,1.1007,-0.5908,679.93,1752.01,-1641.78
890,-3.8726,1.0526,-0.5505,898.68,377.14,-657.41
900,-3.8719,0.9191,-0.4331,-1257.57,1533.26,-1860.47
910,-3.8713,0.7267,-0.3086,1648.68,564.27,155.40
920,-3.8706,0.4795,-0.2522,1023.68,501.40,-78.74
930,-3.8691,0.2334,-0.2715,1383.06,-280.33,858.83
940,-3.8673,0.1401,-0.2761,1883.06,1250.43,-641.17
950,-3.8650,0.3224,-0.1790,1945.56,656.49,1843.20
960,-3.8629,0.6952,0.0287,1273.68,1094.36,-484.74
970,-3.8615,1.0673,0.2928,992.43,-326.78,812.50
980,-3.8607,1.3186,0.4536,617.43,1486.45,563.05
990,-3.8602,1.4622,0.3595,789.31,-1934.94,-1077.27
1000,-3.8596,1.5771,0.0774,-835.69,-1981.57,328.80
1010,-3.8595,1.6382,-0.1926,1883.06,1909.30,-15.50
1020,-3.8595,1.5591,-0.3972,1695.56,-653.08,-0.43
1030,-3.8595,1.3636,-0.5858,-429.44,1159.24,-0.79
1040,-3.8595,1.1740,-0.7419,-1445.07,1018.25,-204.28
1050,-3.8595,1.1019,-0.8589,-1726.32,1033.51,-501.46
1060,-3.8595,1.1844,-0.9938,1054.93,-1935.36,-236.08
1070,-3.8595,1.3859,-1.1721,-382.57,799.13,-1.95
1080,-3.8595,1.6504,-1.3148,1398.68,1971.44,-252.32
1090,-3.8597,1.9132,-1.3029,-741.94,-293.70,763.00
1100,-3.8608,2.1071,-1.1001,898.68,1238.10,216.19
1110,-3.8627,2.1921,-0.7799,1711.18,-808.41,-1220.95
1120,-3.8644,2.1614,-0.4753,601.81,176.15,654.72
1130,-3.8657,2.0416,-0.3129,664.31,-839.54,452.15
1140,-3.8666,1.8762,-0.3289,1336.18,-42.91,-1938.17
1150,-3.8669,1.6864,-0.4518,164.31,1909.91,686.83
1160,-3.8673,1.4961,-0.6138,-132.57,-1824.89,-1641.54
1170,-3.8677,1.3513,-0.8230,-491.94,1440.37,170.65
1180,-3.8683,1.2523,-1.0765,976.81,-1341.13,1435.85
1190,-3.8690,1.1490,-1.2979,304.93,-1794.43,1513.49
1200,-3.8700,1.0310,-1.4269,-913.82,1877.20,1559.94
1210,-3.8712,0.9415,-1.4789,-23.19,1361.33,-924.68
1220,-3.8724,0.8998,-1.4843,523.68,-1295.04,-409.18
1230,-3.8735,0.8822,-1.4508,-820.07,-1982.67,-627.93
1240,-3.8744,0.8572,-1.3923,929.93,-1701.42,528.38
1250,-3.8440,0.8165,-1.3319,1726.81,1782.90,-1346.50
1260,-3.8446,0.7792,-1.3005,523.68,1517.21,-1158.87
1270,-3.8450,0.7692,-1.3114,-257.57,1532.71,-1705.69
1280,-3.8452,0.8046,-1.3418,-1538.82,142.09,-1627.56
1290,-3.8453,0.8752,-1.3680,-1007.57,251.53,981.75
1300,-3.8455,0.9312,-1.3756,39.31,892.33,1809.81
1310,-3.8456,0.9305,-1.3568,-804.44,-76.35,-96.50
1320,-3.8456,0.8840,-1.3054,-882.57,-1670.10,794.19
1330,-3.8458,0.8347,-1.2299,1164.31,907.96,-736.94
1340,-3.8459,0.8119,-1.1472,-1148.19,-1420.29,513.18
1350,-3.8462,0.7977,-1.0795,-70.07,1157.78,-1471.01
1360,-3.8463,0.7219,-1.0475,-1882.57,1829.65,-252.14
1370,-3.8462,0.5093,-1.0238,414.31,1923.28,935.42
1380,-3.8461,0.1531,-0.9214,1195.56,954.10,372.99
1390,-3.8461,-0.2500,-0.6877,-398.19,-1937.26,-1048.71
1400,-3.8459,-0.5431,-0.3691,8.06,-16.11,1186.10
1410,-3.8458,-0.6455,-0.0477,-1507.57,764.53,-953.86
1420,-3.8455,-0.6056,0.2181,1383.06,1904.97,640.50
1430,-3.8452,-0.5377,0.3939,-1507.57,-63.72,-1030.88
1440,-3.8448,-0.6064,0.4880,-820.07,-1563.60,391.36
1450,-3.8446,-0.9216,0.5172,-1616.94,-1516.85,-77.21
1460,-3.8440,-1.4757,0.4517,-1960.69,-1783.08,-1655.27
1470,-3.8746,-2.1704,0.3983,-882.57,1825.20,-1858.52
1480,-3.8746,-2.7820,0.6930,-1804.44,-1004.27,-30.52
1490,-3.8442,-3.1315,1.4880,-85.69,713.26,-1545.53
1500,-3.8458,-3.2610,2.4603,-820.07,-1521.79,-887.76
1510,-3.8473,-3.2943,3.1071,-1398.19,-1068.91,-1073.36
1520,-3.8483,-3.1981,3.2219,-1663.82,1712.28,-1681.46
1530,-3.8489,-2.8287,2.9812,-1351.32,415.59,693.79
1540,-3.8494,-2.1932,2.6107,1929.93,1603.82,-1041.08
1550,-3.8495,-1.5348,2.2286,-726.32,-1816.83,1661.32
1560,-3.8492,-1.1135,1.8950,-445.07,1278.20,1223.08
1570,-3.8486,-0.9792,1.6084,1476.81,-1424.07,-418.21
1580,-3.8477,-1.0071,1.3400,-1335.69,1888.67,159.36
1590,-3.8470,-1.0531,1.0676,-898.19,-470.76,-1575.56
1600,-3.8468,-1.0397,0.7832,1211.18,669.80,-388.55
1610,-3.8469,-0.9258,0.4858,-1070.07,263.55,-248.47
1620,-3.8473,-0.7125,0.1599,1508.06,-1798.71,-749.08
1630,-3.8477,-0.4707,-0.1957,804.93,482.97,78.43
1640,-3.8481,-0.2662,-0.5593,-241.94,-1032.23,1562.07
1650,-3.8485,-0.1138,-0.8979,1929.93,421.33,-1766.72
1660,-3.8486,-0.0138,-1.1597,1445.56,1077.88,-548.65
1670,-3.8483,0.0067,-1.2977,-1757.57,-421.94,1419.56
1680,-3.8477,-0.0483,-1.3054,867.43,1890.62,-1299.44
1690,-3.8469,-0.1014,-1.2426,1820.56,921.75,-705.69
1700,-3.8463,-0.0886,-1.2030,-976.32,968.51,1419.43
1710,-3.8461,0.0167,-1.2303,664.31,-1968.93,1153.87
1720,-3.8461,0.2069,-1.3295,-1851.32,-1484.38,-908.69
1730,-3.8459,0.4111,-1.4706,-1507.57,1828.49,1591.13
1740,-3.8458,0.5685,-1.5665,633.06,-233.58,1153.32
1750,-3.8458,0.7010,-1.5873,773.68,-514.53,1153.14
1760,-3.8461,0.8341,-1.5970,1742.43,829.47,-96.86
1770,-3.8461,0.9182,-1.6272,-1226.32,-420.29,121.83
1780,-3.8459,0.9126,-1.6906,1539.31,-279.48,-1800.11
1790,-3.8455,0.8574,-1.7917,820.56,-388.85,559.14
1800,-3.8450,0.8005,-1.8440,1758.06,-1342.10,855.83
1810,-3.8445,0.7927,-1.8275,-1523.19,-29.72,-1566.16
1820,-3.8440,0.8253,-1.7898,1476.81,-1920.35,-1206.73
1830,-3.8748,0.8625,-1.6775,1648.68,-1092.16,-175.42
1840,-3.8739,0.9031,-1.5010,-1585.69,1282.90,215.45
1850,-3.8730,0.9462,-1.4034,-398.19,-123.29,403.26
1860,-3.8722,0.9951,-1.4523,1117.43,361.21,-924.62
1870,-3.8710,0.9937,-1.5651,-616.94,-1888.73,1512.76
1880,-3.8696,0.9009,-1.6349,-804.44,-326.23,-1956.24
1890,-3.8683,0.7314,-1.6359,-679.44,-1263.92,168.64
1900,-3.8674,0.5139,-1.5732,1633.06,-1389.22,1668.64
1910,-3.8671,0.3075,-1.3896,1789.31,-1374.02,450.01
1920,-3.8669,0.1920,-1.0707,-632.57,-1874.45,1450.38
1930,-3.8662,0.1700,-0.8075,586.18,-1046.51,1513.49
1940,-3.8649,0.1581,-0.7815,1773.68,640.93,-32.84
1950,-3.8633,0.1482,-0.8903,242.43,-30.94,-1923.46
1960,-3.8621,0.1918,-0.9956,-1023.19,-1952.88,1623.23
1970,-3.8613,0.2952,-1.1592,554.93,562.87,1013.67
1980,-3.8608,0.4719,-1.4727,1789.31,-374.45,513.31
1990,-3.8602,0.7379,-1.9188,414.31,-499.08,-1409.18
2000,-3.8595,1.0140,-2.3452,-1538.82,-1607.97,214.97
2010,-3.8595,1.1440,-2.6056,1804.93,-185.55,-4.64
2020,-3.8595,1.0612,-2.6925,-1554.44,-1513.43,-5.13
2030,-3.8595,0.8234,-2.6786,-163.82,-638.61,-5.31
2040,-3.8595,0.5757,-2.6365,1398.68,1142.21,-614.62
2050,-3.8595,0.4851,-2.6019,1695.56,-1467.65,72.94
2060,-3.8600,0.6179,-2.5677,-1898.19,-1045.96,260.50
2070,-3.8610,0.9379,-2.4855,-898.19,-670.72,229.31
2080,-3.8623,1.3396,-2.3240,54.93,1861.21,-192.38
2090,-3.8635,1.6876,-2.1005,-523.19,-1466.19,-1488.95
2100,-3.8647,1.8693,-1.8240,23.68,-856.08,-238.53
2110,-3.8658,1.8669,-1.5084,-726.32,-1465.15,-784.85
2120,-3.8669,1.7517,-1.2220,-1023.19,-1074.52,-252.99
2130,-3.8679,1.5833,-1.0353,226.81,-418.46,-1689.94
2140,-3.8688,1.3950,-0.9794,-1335.69,-512.57,-1939.58
2150,-3.8694,1.2125,-1.0648,-1429.44,-1356.69,1310.55
2160,-3.8700,1.0494,-1.2460,-788.82,-294.56,-2.14
2170,-3.8706,0.9198,-1.4370,-1663.82,517.64,-1502.44
2180,-3.8715,0.8455,-1.5879,1742.43,64.27,-1518.43
2190,-3.8724,0.8379,-1.6794,226.81,751.65,-628.11
2200,-3.8733,0.8678,-1.7113,-741.94,1032.84,1215.45
2210,-3.8741,0.8861,-1.6915,-913.82,954.77,-1128.36
2220,-3.8748,0.8784,-1.6304,1429.93,-513.92,293.52
2230,-3.8442,0.8662,-1.5581,445.56,-685.79,-612.61
2240,-3.8447,0.8630,-1.5150,-1116.94,564.15,371.95
2250,-3.8452,0.8638,-1.5204,-1523.19,-1920.23,1856.38
2260,-3.8455,0.8730,-1.5564,-1429.44,1392.27,887.63
2270,-3.8457,0.8982,-1.5773,-241.94,782.90,-409.30
2280,-3.8458,0.9265,-1.5699,-1023.19,-1888.92,-284.36
2290,-3.8458,0.9502,-1.5646,-1398.19,-951.35,450.01
2300,-3.8459,0.9818,-1.5656,1633.06,-263.79,1731.26
2310,-3.8461,1.0167,-1.5505,1679.93,-388.73,-1440.61
2320,-3.8462,1.0396,-1.5074,-1851.32,1533.20,-1643.68
2330,-3.8463,1.0377,-1.4541,1070.56,-951.11,-1252.99
2340,-3.8463,1.0249,-1.4509,836.18,1877.01,1856.51
2350,-3.8463,1.0397,-1.5090,-804.44,-1716.80,-315.37
2360,-3.8461,1.0614,-1.5675,1086.18,-1154.24,122.01
2370,-3.8458,0.9861,-1.5754,-132.57,-638.61,1950.01
2380,-3.8453,0.7162,-1.4907,-1773.19,-1654.36,-1268.74
2390,-3.8447,0.2462,-1.2772,-320.07,1188.84,215.82
2400,-3.8446,-0.3550,-0.9154,-476.32,516.05,310.00
2410,-3.8452,-0.9689,-0.3890,-1429.44,-1156.98,-1486.21
2420,-3.8463,-1.5216,0.2484,-7.57,-1783.20,-391.42
2430,-3.8474,-2.0765,0.8252,1242.43,-190.49,-343.32
2440,-3.8480,-2.6411,1.2142,-1788.82,1636.54,126.59
2450,-3.8483,-3.0813,1.4064,1945.56,-567.69,408.57
2460,-3.8483,-3.2946,1.4874,1601.81,25.21,-1012.88
2470,-3.8483,-3.2922,1.6169,-1695.07,-1600.22,-1794.01
2480,-3.8488,-3.1481,1.8964,-1398.19,-1022.09,-1028.14
2490,-3.8496,-2.9888,2.2466,1054.93,-1256.16,1909.91
2500,-3.8506,-2.9249,2.5039,1445.56,-427.73,-761.29
2510,-3.8513,-2.8896,2.6112,1617.43,509.89,-1166.99
2520,-3.8521,-2.7332,2.5668,-1866.94,-1755.68,-823.06
2530,-3.8528,-2.4133,2.3572,-1835.69,557.13,1317.50
2540,-3.8533,-1.9784,1.9921,-898.19,1729.61,598.33
2550,-3.8533,-1.4941,1.5123,-1226.32,-1003.91,-1261.78
2560,-3.8527,-1.0537,1.0018,758.06,1590.82,1065.43
2570,-3.8519,-0.7385,0.5466,1133.06,247.92,501.95
2580,-3.8514,-0.5760,0.1669,1476.81,1982.91,-405.21
2590,-3.8510,-0.5144,-0.1530,-1726.32,1373.84,1094.06
2600,-3.8506,-0.4478,-0.4452,-1835.69,436.46,109.07
2610,-3.8502,-0.3264,-0.7424,-1304.44,-969.67,1217.83
2620,-3.8497,-0.1799,-1.0222,-1773.19,983.70,-642.09
2630,-3.8490,-0.0559,-1.2161,976.81,1171.51,1326.11
2640,-3.8484,0.0370,-1.2837,851.81,359.25,-1033.63
2650,-3.8478,0.1228,-1.2792,742.43,-312.44,981.81
2660,-3.8474,0.2148,-1.2838,-273.19,265.81,1075.62
2670,-3.8473,0.3495,-1.3331,-491.94,-327.76,1934.94
2680,-3.8473,0.5522,-1.4189,742.43,1360.05,1153.63
2690,-3.8475,0.7660,-1.4755,-1304.44,-1623.96,-565.31
2700,-3.8478,0.9282,-1.4611,-1945.07,-857.91,1606.45
2710,-3.8481,1.0219,-1.4391,-1179.44,986.15,-1252.87
2720,-3.8484,1.0441,-1.4845,-1195.07,-201.17,-1940.37
2730,-3.8485,1.0142,-1.5845,1648.68,1986.39,-1659.18
2740,-3.8484,0.9689,-1.6753,1820.56,1189.45,231.26
2750,-3.8483,0.9343,-1.7493,23.68,1564.39,-1534.55
2760,-3.8479,0.9175,-1.8528,-398.19,95.52,730.96
2770,-3.8474,0.9146,-1.9982,1445.56,-1154.48,293.21
2780,-3.8468,0.9237,-2.1383,1070.56,236.15,667.97
2790,-3.8462,0.9240,-2.2496,-1757.57,-1701.35,-332.34
2800,-3.8455,0.9252,-2.3293,-1726.32,48.65,1839.36
2810,-3.8450,0.9717,-2.3414,-1570.07,1845.52,-1192.08
2820,-3.8446,1.0576,-2.2808,383.06,298.77,-1129.58
2830,-3.8442,1.1581,-2.2009,-616.94,64.51,-1973.21
2840,-3.8750,1.2294,-2.1847,242.43,-1716.49,-457.46
2850,-3.8740,1.2091,-2.2684,1367.43,361.76,370.73
2860,-3.8732,1.1182,-2.3889,-1226.32,1642.94,1667.42
2870,-3.8728,1.0372,-2.4508,-866.94,-1779.11,-223.45
2880,-3.8728,1.0039,-2.3907,773.68,-1701.11,-1520.45
2890,-3.8729,1.0225,-2.2557,508.06,1986.33,-723.45
2900,-3.8727,1.0677,-2.1733,-1116.94,-732.42,1464.29
2910,-3.8721,1.0741,-2.1924,679.93,1814.58,151.98
2920,-3.8712,0.9980,-2.2307,1492.43,-622.92,1386.29
2930,-3.8678,1.4517,-2.0643,-1132.57,-1232.42,58.72
2940,-3.8672,2.1798,-2.5034,1820.56,-231.57,245.91
2950,-3.8655,2.9807,-3.1473,-976.32,-433.29,-1379.94
2960,-3.8625,3.4719,-3.7847,1539.31,1146.42,-818.66
2970,-3.8599,3.4557,-4.0000,414.31,-430.73,1430.05
2980,-3.8595,3.0112,-4.0000,-1663.82,6.71,-7.81
2990,-3.8595,2.3593,-4.0000,1445.56,5.86,-7.81
3000,-3.8595,1.7460,-3.9884,1992.43,4.58,-7.81
3010,-3.8595,1.3577,-3.9817,-507.57,1487.73,1570.31
3020,-3.8595,1.2610,-3.9927,1789.31,-1653.63,1617.19
3030,-3.8599,1.3894,-3.9404,1414.31,939.94,-617.19
3040,-3.8615,1.6260,-3.6267,1851.81,-372.31,1711.00
3050,-3.8645,1.8314,-3.0105,133.06,-215.58,1695.98
3060,-3.8678,1.8887,-2.3505,-1570.07,-1340.21,-1412.17
3070,-3.8702,1.7896,-1.8757,1758.06,-855.71,-1379.64
3080,-3.8716,1.5991,-1.6222,1070.56,-90.27,-1144.35
3090,-3.8721,1.3950,-1.5170,695.56,362.49,1653.08
3100,-3.8722,1.2346,-1.4893,-1429.44,1830.81,1872.01
3110,-3.8722,1.1162,-1.4930,-1960.69,1377.38,1309.57
3120,-3.8723,1.0277,-1.4937,-1116.94,892.76,-1784.18
3130,-3.8726,0.9843,-1.4841,-445.07,814.45,1934.57
3140,-3.8730,0.9623,-1.4728,1992.43,-1966.86,-221.68
3150,-3.8735,0.9237,-1.4489,-820.07,-513.79,778.32
3160,-3.8743,0.8815,-1.4067,-1757.57,-1451.35,1856.51
3170,-3.8750,0.8723,-1.3730,836.18,-60.79,372.19
3180,-3.8446,0.8995,-1.3738,-335.69,251.65,-33.94
3190,-3.8451,0.9453,-1.3940,-851.32,157.96,1247.31
3200,-3.8456,1.0116,-1.4128,1008.06,1564.33,-80.87
3210,-3.8458,1.1027,-1.4459,1492.43,-841.80,231.57
3220,-3.8462,1.1931,-1.5043,1148.68,-1075.99,1184.63
3230,-3.8466,1.2319,-1.5630,726.81,-544.56,-159.24
3240,-3.8468,1.1881,-1.6003,1695.56,-60.12,-143.74
3250,-3.8469,1.0890,-1.6227,86.18,-841.43,996.83
3260,-3.8470,0.9977,-1.6346,-601.32,298.95,731.20
3270,-3.8472,0.9667,-1.6255,-288.82,-1232.48,-190.73
3280,-3.8470,0.9954,-1.5901,-257.57,-60.67,-1628.23
3290,-3.8468,1.0497,-1.5381,-585.69,470.64,153.14
3300,-3.8467,1.0980,-1.4749,-1632.57,-872.99,-1643.68
3310,-3.8466,1.1005,-1.3986,554.93,-779.11,1778.32
3320,-3.8466,1.0298,-1.3041,867.43,986.51,-1752.75
3330,-3.8466,0.9110,-1.1857,-179.44,1080.08,1231.81
3340,-3.8467,0.8043,-1.0494,617.43,236.15,-49.19
3350,-3.8467,0.7460,-0.8877,-1038.82,1673.40,-752.08
3360,-3.8467,0.7289,-0.7177,-507.57,-1623.60,-439.27
3370,-3.8466,0.7240,-0.5997,1304.93,142.03,1857.97
3380,-3.8464,0.6821,-0.5269,679.93,-764.22,-141.85
3390,-3.8462,0.5417,-0.4382,-679.44,563.78,-63.54
3400,-3.8461,0.2867,-0.3362,1351.81,-92.71,-329.04
3410,-3.8461,-0.0420,-0.2479,711.18,969.30,-1985.05
3420,-3.8461,-0.4153,-0.1832,-1366.94,281.13,-1484.86
3430,-3.8458,-0.7968,-0.2015,-1148.19,561.65,-1515.99
3440,-3.8455,-1.1023,-0.3215,-1976.32,-1782.84,1296.45
3450,-3.8453,-1.2472,-0.4487,-1085.69,-1142.82,1421.20
3460,-3.8455,-1.1960,-0.5656,367.43,-1424.32,-1407.17
3470,-3.8453,-1.0809,-0.6667,-1085.69,-377.38,30.09
3480,-3.8452,-1.1263,-0.5941,1648.68,-1330.26,1561.16
3490,-3.8453,-1.3722,-0.2979,-163.82,-33.51,-188.72
3500,-3.8457,-1.6670,0.0922,367.43,1887.94,-1203.74
3510,-3.8462,-1.8514,0.4487,-1366.94,-190.80,1047.00
3520,-3.8467,-1.8434,0.6890,-976.32,1449.46,-921.02
3530,-3.8469,-1.6016,0.7667,54.93,199.52,-936.16
3540,-3.8469,-1.1571,0.6676,-991.94,-1846.92,-1764.16
3550,-3.8466,-0.6519,0.3949,-101.32,1466.43,313.78
3560,-3.8457,-0.2615,-0.0273,570.56,-1438.78,1953.86
3570,-3.8442,-0.1041,-0.4875,-1460.69,515.08,-875.06
3580,-3.8738,-0.1913,-0.8130,-1320.07,1609.13,358.40
3590,-3.8726,-0.4309,-0.8937,-476.32,-47.30,873.35
3600,-3.8721,-0.6118,-0.7969,851.81,1624.15,1576.35
3610,-3.8723,-0.5509,-0.6927,1695.56,-1985.60,-1782.84
3620,-3.8728,-0.3595,-0.7236,1492.43,-657.35,201.72
3630,-3.8733,-0.2698,-0.9122,1992.43,-610.11,1107.91
3640,-3.8735,-0.3022,-1.1490,1476.81,-750.55,795.04
3650,-3.8737,-0.3387,-1.3163,1320.56,936.89,153.99
3660,-3.8739,-0.2928,-1.3862,648.68,-469.42,138.00
3670,-3.8744,-0.1398,-1.3763,-1476.32,-1422.49,-1565.25
3680,-3.8749,0.0583,-1.2585,-1882.57,-156.56,-1596.50
3690,-3.8441,0.1873,-1.0364,-523.19,-1093.69,-440.00
3700,-3.8444,0.2136,-0.7845,-23.19,-655.94,60.42
3710,-3.8446,0.2207,-0.6259,-648.19,-421.51,1060.91
3720,-3.8447,0.2789,-0.6793,258.06,-108.95,1092.47
3730,-3.8450,0.4246,-0.9080,-288.82,1047.36,1639.28
3740,-3.8455,0.6904,-1.1764,-1648.19,-217.96,-1048.71
3750,-3.8458,0.9745,-1.3926,383.06,1423.22,794.56
3760,-3.8461,1.1230,-1.4762,742.43,1751.89,-1174.62
3770,-3.8462,1.1676,-1.4067,-241.94,-950.99,1309.57
3780,-3.8467,1.2325,-1.2654,1461.18,-60.24,-112.18
3790,-3.8470,1.3717,-1.1588,1773.68,-1966.37,981.87
3800,-3.8474,1.6113,-1.1008,-413.82,-325.50,-1346.07
3810,-3.8477,1.9523,-1.0603,-1741.94,-903.14,-205.32
3820,-3.8477,2.3105,-1.0554,1898.68,285.03,779.17
3830,-3.8475,2.5441,-1.1150,-241.94,910.71,1841.67
3840,-3.8470,2.5784,-1.2366,1648.68,1286.19,-1970.95
3850,-3.8464,2.5032,-1.3693,-1960.69,1723.75,-314.94
3860,-3.8458,2.4629,-1.4871,414.31,739.26,-1205.81
3870,-3.8453,2.5348,-1.6010,-741.94,1661.01,1293.95
3880,-3.8450,2.6978,-1.7056,461.18,-916.93,-362.55
3890,-3.8444,2.8590,-1.7661,1320.56,1692.75,-1940.86
3900,-3.8750,2.9286,-1.7329,1961.18,1943.05,1059.02
3910,-3.8746,2.8380,-1.5751,-1132.57,-1806.82,-753.42
3920,-3.8744,2.6025,-1.3097,-726.32,-1603.88,1137.51
3930,-3.8745,2.3474,-1.0314,1133.06,364.44,997.44
3940,-3.8749,2.2415,-0.8750,476.81,-11.05,-533.33
3950,-3.8749,2.4121,-0.8864,-1085.69,4.33,779.54
3960,-3.8746,2.7837,-0.9116,758.06,-1448.43,529.48
3970,-3.8745,3.0668,-0.7382,320.56,-682.07,1513.79
3980,-3.8749,3.0557,-0.3474,554.93,1521.61,-532.71
3990,-3.8441,2.7968,0.0665,-866.94,-462.83,-1860.11
4000,-3.8444,2.4552,0.3267,1992.43,521.06,1531.37
4010,-3.8442,2.1483,0.4227,-1726.32,1817.26,1766.24
4020,-3.8440,1.9111,0.4399,-1007.57,-1886.47,-1421.08
4030,-3.8439,1.7448,0.4282,633.06,316.22,-499.15
4040,-3.8750,1.6400,0.3802,-663.82,-1184.14,-842.96
4050,-3.8748,1.5853,0.2927,1929.93,675.05,-1014.89
4060,-3.8744,1.5790,0.1813,-1070.07,1471.80,-733.83
4070,-3.8739,1.5885,0.0864,-1882.57,-793.82,1437.81
4080,-3.8735,1.5439,0.0510,-663.82,-934.45,1359.50
4090,-3.8733,1.4171,0.0741,1633.06,-1465.76,359.44
4100,-3.8733,1.2473,0.1156,1398.68,1487.12,-859.25
4110,-3.8732,1.1182,0.1384,-335.69,-1200.74,359.56
4120,-3.8732,1.0901,0.1239,-866.94,1720.89,-31.01
4130,-3.8729,1.1633,0.0695,-460.69,-138.55,-171.69
4140,-3.8726,1.2922,-0.0201,914.31,892.88,-1687.38
4150,-3.8722,1.3788,-0.1267,1414.31,1424.38,-1703.19
4160,-3.8718,1.3429,-0.2020,492.43,-216.06,-1672.18
4170,-3.8716,1.2202,-0.2052,-101.32,-1856.81,-766.05
4180,-3.8715,1.0901,-0.1525,195.56,1736.76,1827.70
4190,-3.8716,0.9681,-0.1045,-460.69,486.45,-812.81
4200,-3.8717,0.8481,-0.1039,-70.07,-1373.17,-609.62
4210,-3.8717,0.7567,-0.1300,570.56,-1295.23,796.63
4220,-3.8718,0.7224,-0.1492,867.43,-639.16,-1187.81
4230,-3.8719,0.7649,-0.1915,476.81,907.65,-531.56
4240,-3.8719,0.9034,-0.2959,1914.31,-514.16,890.20
4250,-3.8721,1.0798,-0.4471,-351.32,-1873.29,-156.86
4260,-3.8721,1.1693,-0.5830,-1773.19,-1232.30,249.08
4270,-3.8723,1.1174,-0.6456,1679.93,1377.26,1873.84
4280,-3.8726,0.9655,-0.6143,-960.69,1361.51,-1204.41
4290,-3.8727,0.7920,-0.4620,-413.82,1376.83,1108.15
4300,-3.8728,0.6759,-0.1714,1383.06,860.90,1764.71
4310,-3.8730,0.6837,0.1873,-1476.32,-1936.22,-203.49
4320,-3.8734,0.8364,0.4984,-476.32,-29.97,-1062.19
4330,-3.8739,1.0839,0.6702,-929.44,-201.54,-327.21
4340,-3.8741,1.3617,0.6304,-1257.57,1783.33,-1733.09
4350,-3.8741,1.5634,0.3840,-1695.07,690.12,1907.47
4360,-3.8739,1.5659,0.0502,117.43,1159.30,531.98
4370,-3.8737,1.3512,-0.2203,445.56,-1575.07,-1890.56
4380,-3.8733,0.9740,-0.3356,961.18,-200.50,-1734.86
4390,-3.8728,0.5223,-0.2847,679.93,1048.77,1889.95
4400,-3.8723,0.1187,-0.1069,-1132.57,-436.52,1249.39
4410,-3.8719,-0.1228,0.1365,-804.44,-1687.32,437.26
4420,-3.8718,-0.1309,0.3481,289.31,1484.13,-1343.51
4430,-3.8718,0.0927,0.4043,-741.94,577.82,-46.20
4440,-3.8718,0.4490,0.2627,-132.57,-249.88,-1046.14
4450,-3.8717,0.7375,0.0557,1476.81,1625.85,1734.86
4460,-3.8716,0.7738,-0.0646,-1585.69,-873.60,-265.56
4470,-3.8715,0.5255,-0.0863,-945.07,-264.16,1515.44
4480,-3.8716,0.1046,-0.0688,-726.32,954.10,1437.32
4490,-3.8717,-0.3291,-0.0664,1398.68,-812.32,1843.57
4500,-3.8717,-0.6708,-0.0950,1883.06,-485.05,-1140.81
4510,-3.8716,-0.8842,-0.1509,-1851.32,-141.97,1156.01
4520,-3.8716,-0.9552,-0.2700,-1163.82,701.35,327.82
4530,-3.8716,-0.8920,-0.4934,1742.43,1451.23,343.20
4540,-3.8713,-0.7488,-0.7717,1836.18,857.60,1108.40
4550,-3.8710,-0.5887,-0.9780,164.31,1232.91,-1626.53
4560,-3.8708,-0.4857,-1.0387,648.68,-1173.03,-345.70
4570,-3.8710,-0.5054,-1.0004,1836.18,-938.48,-1642.70
4580,-3.8712,-0.6300,-0.9323,-679.44,-32.29,544.86
4590,-3.8716,-0.8019,-0.8550,-632.57,686.22,-1314.33
4600,-3.8718,-0.9636,-0.7859,1367.43,-1423.46,513.92
4610,-3.8722,-1.0417,-0.7373,664.31,-580.02,1232.79
4620,-3.8726,-0.9738,-0.7289,-1335.69,1638.55,232.91
4630,-3.8732,-0.7572,-0.7843,-632.57,-1283.20,-1345.21
4640,-3.8738,-0.4646,-0.8945,-913.82,-376.53,1482.79
4650,-3.8744,-0.2024,-1.0204,539.31,1514.71,-751.77
4660,-3.8748,-0.0372,-1.1060,-1898.19,1405.82,-1158.26
4670,-3.8750,0.0115,-1.1136,-757.57,-1547.00,1232.18
4680,-3.8441,-0.0156,-1.0603,1476.81,1453.12,1669.68
4690,-3.8446,-0.0231,-1.0004,-1991.94,296.81,-1158.33
4700,-3.8450,0.0380,-0.9683,1054.93,-31.31,966.74
4710,-3.8453,0.1606,-0.9749,867.43,62.56,-533.14
4720,-3.8455,0.3601,-1.0305,570.56,-780.94,-830.08
4730,-3.8455,0.6100,-1.1158,-1898.19,94.42,-64.51
4740,-3.8452,0.8163,-1.1882,-1913.82,1173.03,200.93
4750,-3.8451,0.9165,-1.2379,492.43,-92.16,1403.87
4760,-3.8450,0.9360,-1.2875,1320.56,1548.65,-1408.69
4770,-3.8447,0.9689,-1.3438,-179.44,-795.10,106.81
4780,-3.8446,1.0984,-1.4043,23.68,1.89,1575.50
4790,-3.8445,1.3143,-1.4764,601.81,252.14,1794.13
4800,-3.8444,1.4858,-1.5498,242.43,-981.81,-1862.30
4810,-3.8442,1.4895,-1.5690,-1804.44,1627.87,-940.55
4820,-3.8442,1.3350,-1.4973,-1335.69,-825.26,-768.74
4830,-3.8445,1.1147,-1.3683,-1116.94,346.31,-1221.68
4840,-3.8448,0.8950,-1.2413,-1304.44,861.51,294.19
4850,-3.8453,0.6995,-1.1522,-1429.44,1111.08,-1721.19
4860,-3.8455,0.5428,-1.0782,1539.31,516.97,325.87
4870,-3.8453,0.4139,-0.9764,1492.43,1985.41,-1783.39
4880,-3.8448,0.2758,-0.8448,992.43,-983.58,201.17
4890,-3.8445,0.1669,-0.7030,-695.07,-140.14,123.29
4900,-3.8442,0.1665,-0.5657,1367.43,-1984.07,201.72
4910,-3.8439,0.2172,-0.4591,1320.56,-405.94,-751.16
4920,-3.8744,0.2095,-0.3800,-195.07,1234.74,1780.33
4930,-3.8739,0.1431,-0.2969,-1179.44,-640.26,1389.83
4940,-3.8740,0.0903,-0.2198,-1679.44,-1999.76,-1516.24
4950,-3.8746,0.1317,-0.1935,-429.44,-140.50,-359.86
4960,-3.8439,0.2793,-0.1680,867.43,-765.38,1077.70
4970,-3.8750,0.4113,-0.0250,-241.94,-1499.51,155.88
4980,-3.8741,0.4779,0.2098,648.68,797.67,-1750.06
4990,-3.8732,0.6691,0.4169,1179.93,-1139.71,-468.38
5000,-3.8726,1.1376,0.4381,1648.68,1360.66,1844.54
5010,-3.8724,1.8046,0.0789,1617.43,80.32,-171.02
5020,-3.8726,2.4893,-0.5359,-1007.57,-1902.77,-812.38
5030,-3.8727,2.9723,-0.9982,-1366.94,-588.93,-1766.72
5040,-3.8724,3.0664,-1.1312,461.18,240.17,-392.58
5050,-3.8718,2.8231,-1.0408,508.06,-790.89,-424.13
5060,-3.8712,2.4854,-0.8937,1367.43,-1213.26,1591.67
5070,-3.8710,2.2147,-0.8031,-1866.94,1614.20,-626.77
5080,-3.8708,2.0258,-0.7991,-507.57,1207.40,-657.84
5090,-3.8707,1.8850,-0.8711,-695.07,1722.66,-532.84
5100,-3.8706,1.8187,-0.9884,1289.31,503.66,-579.83
5110,-3.8706,1.8771,-1.0635,804.93,1487.92,-1673.83
5120,-3.8708,1.9849,-0.9840,273.68,-121.34,-1455.26
5130,-3.8712,2.0208,-0.7347,-1929.44,-1949.28,13.67
5140,-3.8719,1.9813,-0.4160,-1335.69,1957.03,-1485.84
5150,-3.8727,1.9325,-0.1520,1617.43,-1246.15,-250.85
5160,-3.8730,1.8994,-0.0052,-632.57,550.60,530.94
5170,-3.8732,1.8555,0.0355,-866.94,-668.21,937.44
5180,-3.8730,1.7798,0.0176,1508.06,550.48,-1437.44
5190,-3.8728,1.6876,0.0061,-179.44,-1746.58,-1093.75
5200,-3.8726,1.5975,0.0271,23.68,784.55,1171.88
5210,-3.8726,1.5176,0.0597,492.43,-528.14,-78.12
5220,-3.8726,1.4467,0.1080,-1741.94,-356.45,-406.19
5230,-3.8726,1.3615,0.1818,1179.93,1830.93,1234.56
5240,-3.8727,1.2448,0.2614,-1726.32,-731.75,-1874.69
5250,-3.8728,1.0916,0.3317,-663.82,1455.51,-171.39
5260,-3.8728,0.9116,0.3909,-273.19,-1544.80,-1249.39
5270,-3.8728,0.7362,0.4320,695.56,-1966.98,-1561.77
5280,-3.8728,0.5944,0.4449,-1757.57,-701.72,-1233.58
5290,-3.8727,0.5150,0.4216,86.18,954.28,94.60
5300,-3.8727,0.5156,0.3416,1929.93,1969.73,-905.46
5310,-3.8724,0.5874,0.1746,-1991.94,-280.27,1703.74
5320,-3.8721,0.7028,-0.0631,-804.44,-1655.15,-1593.44
5330,-3.8716,0.8149,-0.2550,1961.18,-76.78,-422.06
5340,-3.8711,0.8822,-0.2842,320.56,-639.04,-828.67
5350,-3.8707,0.9008,-0.1703,929.93,-373.29,546.26
5360,-3.8707,0.9161,-0.0344,-695.07,-1795.17,-31.62
5370,-3.8706,0.9838,0.0360,1273.68,-404.48,-1593.87
5380,-3.8705,1.1193,0.0358,1929.93,611.27,-203.06
5390,-3.8702,1.3329,-0.0117,-726.32,580.26,-578.06
5400,-3.8700,1.6205,-0.1255,-1382.57,-1497.44,-390.69
5410,-3.8696,1.9253,-0.3525,-570.07,-59.39,-1672.18
5420,-3.8693,2.1489,-0.6360,-1554.44,-1121.28,-281.98
5430,-3.8690,2.2170,-0.8121,-929.44,-1402.10,-266.91
5440,-3.8691,2.1516,-0.7798,-210.69,51.15,1951.54
5450,-3.8698,2.0300,-0.6204,-585.69,191.65,-767.15
5460,-3.8704,1.9058,-0.5140,-148.19,597.66,-641.85
5470,-3.8706,1.7667,-0.5348,-54.44,-1793.21,-891.66
5480,-3.8705,1.5731,-0.6118,-1851.32,-449.71,-141.72
5490,-3.8702,1.3278,-0.6669,1367.43,1690.55,-188.72
5500,-3.8701,1.0864,-0.6859,1961.18,-1356.81,-1266.97
5510,-3.8701,0.9076,-0.6726,-929.44,205.20,998.66
5520,-3.8702,0.7882,-0.6027,179.93,1908.02,139.28
5530,-3.8706,0.6676,-0.4508,898.68,-1139.10,-110.60
5540,-3.8707,0.5123,-0.2639,1461.18,-1701.84,217.83
5550,-3.8708,0.3521,-0.1115,1586.18,-1780.27,1155.70
5560,-3.8708,0.2411,0.0020,1070.56,1735.05,-1172.12
5570,-3.8706,0.2104,0.0660,-1132.57,250.43,828.12
5580,-3.8705,0.2548,0.0485,-1054.44,453.49,312.62
5590,-3.8708,0.3003,-0.0522,617.43,-1796.39,-46.81
5600,-3.8713,0.2594,-0.2261,-1554.44,1313.05,-250.12
5610,-3.8717,0.1316,-0.4370,1211.18,-937.01,-375.49
5620,-3.8718,-0.0491,-0.6022,851.81,62.74,-1485.23
5630,-3.8719,-0.2474,-0.6671,1726.81,-1062.62,1389.40
5640,-3.8724,-0.4122,-0.6400,336.18,-1375.49,-251.34
5650,-3.8730,-0.4875,-0.5594,-757.57,-1907.10,-1516.91
5660,-3.8737,-0.4465,-0.5403,1601.81,405.27,-657.35
5670,-3.8740,-0.3265,-0.6996,-1148.19,-1141.54,-594.85
5680,-3.8741,-0.2245,-0.9299,-1788.82,-1531.92,607.97
5690,-3.8744,-0.2079,-1.0389,-726.32,983.89,-220.58
5700,-3.8746,-0.2115,-1.0067,1398.68,-969.18,-1095.83
5710,-3.8439,-0.1388,-0.9274,929.93,-844.18,-298.89
5720,-3.8442,-0.0212,-0.8981,-1757.57,1312.19,-204.96
5730,-3.8442,0.0375,-0.9429,1289.31,1062.44,1263.85
5740,-3.8442,0.0043,-1.0441,804.93,-687.44,419.98
5750,-3.8445,-0.0486,-1.1942,554.93,-1640.62,982.30
5760,-3.8448,-0.0251,-1.3757,1789.31,-843.87,1841.37
5770,-3.8451,0.1411,-1.5476,789.31,-78.19,-299.62
5780,-3.8448,0.4906,-1.6372,-1929.44,1906.49,231.32
5790,-3.8444,0.9635,-1.5536,-1195.07,-1561.58,731.14
5800,-3.8749,1.4022,-1.2717,-663.82,1142.46,996.95
5810,-3.8743,1.7080,-0.9055,-507.57,1221.44,-330.63
5820,-3.8739,1.8563,-0.6028,-1366.94,97.05,1701.35
5830,-3.8743,1.7711,-0.3976,1617.43,-1152.65,1670.65
5840,-3.8440,1.3909,-0.2334,-1288.82,1112.79,-1688.29
5850,-3.8451,0.8191,-0.0858,-1960.69,-1872.31,-1187.99
5860,-3.8459,0.2684,0.0039,851.81,1017.21,-1500.18
5870,-3.8466,-0.0439,0.0087,-1632.57,500.49,-140.62
5880,-3.8468,-0.0028,-0.0872,-1616.94,1124.88,1734.38
5890,-3.8469,0.2972,-0.2866,-351.32,859.31,-1968.93
5900,-3.8469,0.6389,-0.5139,-1945.07,-686.95,-1156.86
5910,-3.8468,0.8593,-0.7070,1789.31,-1780.03,-1313.54
5920,-3.8467,0.9432,-0.8883,1992.43,1501.65,-517.03
5930,-3.8466,0.9541,-1.0502,742.43,-1701.29,1841.98
5940,-3.8467,0.9186,-1.1343,-1866.94,1579.96,1404.17
5950,-3.8470,0.8290,-1.1223,1586.18,-1185.73,1888.37
5960,-3.8474,0.6743,-1.0474,-1882.57,345.34,1435.30
5970,-3.8475,0.4766,-0.9221,-1679.44,1938.78,-1939.58
5980,-3.8470,0.2921,-0.7849,1008.06,1969.67,1498.17
5990,-3.8461,0.2031,-0.7080,1398.68,-468.20,1264.04
6000,-3.8450,0.2279,-0.7129,-1991.94,1375.37,-970.15
6010,-3.8749,0.2889,-0.8428,1179.93,750.43,61.10
6020,-3.8735,0.2855,-1.0417,992.43,125.55,1873.35
6030,-3.8722,0.1589,-1.1315,554.93,-1343.20,341.67
6040,-3.8715,-0.0437,-1.0596,351.81,-827.82,841.49
6050,-3.8713,-0.2347,-0.9076,-1585.69,390.50,1560.42
6060,-3.8715,-0.3375,-0.7520,1961.18,-156.74,91.92
6070,-3.8717,-0.2559,-0.6171,804.93,-235.05,1623.47
6080,-3.8718,0.0726,-0.5215,-741.94,1030.70,-110.60
6090,-3.8717,0.6155,-0.4636,1304.93,1250.12,280.21
6100,-3.8717,1.2279,-0.4093,-1210.69,657.41,1967.83
6110,-3.8713,1.6810,-0.2842,1179.93,-388.24,-1500.85
6120,-3.8707,1.7971,-0.0824,-820.07,-371.77,749.39
6130,-3.8710,1.5806,0.0298,-1960.69,1456.60,218.57
6140,-3.8726,1.3921,-0.0125,-1679.44,-184.45,-1281.25
6150,-3.8744,1.7341,-0.1492,-1804.44,-1591.06,-203.19
6160,-3.8441,2.6467,-0.3617,1976.81,909.61,-1156.56
6170,-3.8444,3.6256,-0.4791,-1210.69,1708.25,-500.73
6180,-3.8444,3.9999,-0.2472,86.18,-1321.04,-1579.10
6190,-3.8444,3.9999,0.3063,-7.57,367.13,-1734.86
6200,-3.8442,3.8912,0.8662,-7.57,-789.12,-1233.83
6210,-3.8441,3.2655,1.1897,-1913.82,-1117.43,345.40
6220,-3.8445,2.4495,1.3148,1992.43,287.60,1877.32
6230,-3.8451,1.8674,1.4421,1539.31,301.64,-91.19
6240,-3.8456,1.7689,1.6713,-960.69,597.35,690.31
6250,-3.8462,1.9399,1.8672,-1570.07,1925.29,-1528.02
6260,-3.8466,2.0400,1.8917,320.56,-996.22,1081.73
6270,-3.8467,1.8932,1.7362,1133.06,-1855.41,691.16
6280,-3.8466,1.5443,1.4415,-1663.82,-1761.96,-637.27
6290,-3.8462,1.1926,1.1355,1679.93,518.62,-434.69
6300,-3.8459,0.9597,0.9434,664.31,1346.07,1345.95
6310,-3.8462,0.8292,0.8618,-1148.19,751.83,-1373.17
6320,-3.8467,0.7350,0.8263,-1851.32,-1685.91,532.90
6330,-3.8474,0.6299,0.7844,-1913.82,1767.03,470.34
6340,-3.8481,0.5115,0.6976,633.06,407.47,407.78
6350,-3.8488,0.4163,0.5697,1476.81,1297.85,1891.97
6360,-3.8490,0.4003,0.4678,1289.31,922.67,344.85
6370,-3.8491,0.4337,0.3988,-757.57,-124.27,1875.85
6380,-3.8491,0.4567,0.3104,-476.32,-952.33,-1686.77
6390,-3.8491,0.4850,0.2169,-1538.82,-264.77,766.17
6400,-3.8494,0.5149,0.1298,-1913.82,-233.46,-124.63
6410,-3.8494,0.5024,0.0144,1914.31,610.35,1187.74
6420,-3.8492,0.4629,-0.1476,320.56,1844.73,-687.50
6430,-3.8488,0.4094,-0.3226,-741.94,1110.23,-1844.06
6440,-3.8483,0.2565,-0.4414,414.31,-1296.08,1608.70
6450,-3.8480,-0.0565,-0.4270,836.18,-499.51,1733.46
6460,-3.8480,-0.4240,-0.2172,773.68,1359.25,1139.77
6470,-3.8481,-0.6418,0.1196,1742.43,217.90,1421.45
6480,-3.8483,-0.6470,0.4022,1851.81,-673.16,-1968.57
6490,-3.8485,-0.5898,0.5790,1195.56,-501.28,-1389.89
6500,-3.8489,-0.5616,0.7280,508.06,-1876.16,-1420.78
6510,-3.8492,-0.5203,0.8918,117.43,1202.03,110.78
6520,-3.8499,-0.4387,1.0951,1414.31,-1829.16,-1388.92
6530,-3.8505,-0.3009,1.3188,-148.19,186.58,-966.61
6540,-3.8511,-0.1134,1.4413,1492.43,827.51,-888.06
6550,-3.8517,0.0736,1.3871,1492.43,499.76,-137.82
6560,-3.8522,0.2616,1.2355,1429.93,1547.00,-575.44
6570,-3.8525,0.4746,1.1627,1492.43,-1858.89,-1622.62
6580,-3.8529,0.6561,1.2678,758.06,829.04,627.26
6590,-3.8535,0.7288,1.4305,-7.57,-1717.53,-1325.68
6600,-3.8541,0.6136,1.5021,1289.31,-889.22,1955.87
6610,-3.8546,0.2861,1.4717,-1445.07,266.78,-1981.45
6620,-3.8547,-0.1541,1.3510,633.06,375.55,-372.13
6630,-3.8542,-0.5508,1.1222,289.31,937.19,-1653.63
6640,-3.8534,-0.7997,0.8632,1508.06,-344.85,-1732.24
6650,-3.8524,-0.9172,0.7456,1648.68,-1501.59,-1795.23
6660,-3.8516,-0.9659,0.8423,-1398.19,-548.71,1860.78
6670,-3.8511,-0.9354,1.0814,367.43,-173.77,-654.66
6680,-3.8507,-0.6692,1.4032,273.68,-1564.33,-747.92
6690,-3.8502,-0.1924,1.6292,-1648.19,-376.34,-575.44
6700,-3.8499,0.1737,1.4471,-616.94,546.45,-1418.70
6710,-3.8499,0.3456,0.9041,-1757.57,1234.68,-247.19
6720,-3.8495,0.3680,0.2654,242.43,-280.58,1329.83
6730,-3.8488,0.1848,-0.3599,-882.57,1969.42,47.36
6740,-3.8481,-0.1176,-0.9127,-335.69,1937.81,-1797.61
6750,-3.8475,-0.2899,-1.3595,961.18,-812.74,1935.67
6760,-3.8466,-0.1774,-1.7493,-1101.32,1999.39,-752.69
6770,-3.8448,0.1302,-2.1428,1304.93,109.01,27.83
6780,-3.8748,0.4116,-2.3030,679.93,1718.99,-1972.96
6790,-3.8739,0.5592,-1.9695,695.56,1219.54,620.48
6800,-3.8737,0.4453,-1.4115,-413.82,-92.71,1042.97
6810,-3.8743,0.0822,-0.9822,1008.06,-671.02,-1596.56
6820,-3.8440,-0.2745,-0.7551,-1476.32,-1718.63,-1064.45
6830,-3.8446,-0.4926,-0.7302,867.43,-641.17,-1689.03
6840,-3.8446,-0.5095,-0.9036,961.18,-1454.10,-1938.96
6850,-3.8440,-0.3370,-1.1809,-1210.69,358.34,-720.52
6860,-3.8743,-0.0956,-1.3605,867.43,858.70,-174.19
6870,-3.8734,0.1063,-1.3368,-226.32,1874.76,497.31
6880,-3.8733,0.2499,-1.1682,1617.43,890.81,-658.87
6890,-3.8735,0.3556,-0.9851,-7.57,-1530.82,-127.32
6900,-3.8738,0.4360,-0.8889,1523.68,1906.92,529.30
6910,-3.8740,0.4890,-0.8887,-179.44,-1780.46,-923.65
6920,-3.8739,0.5193,-0.9210,-1398.19,-1749.08,45.10
6930,-3.8739,0.5430,-0.9167,-1523.19,-1889.65,560.67
6940,-3.8741,0.5984,-0.8711,1508.06,-1342.71,-1251.83
6950,-3.8745,0.7086,-0.8492,601.81,501.16,-329.83
6960,-3.8748,0.8324,-0.8896,-1288.82,-701.78,-1423.58
6970,-3.8749,0.9198,-0.9833,-1445.07,-1873.41,-736.15
6980,-3.8749,0.9459,-1.1350,1742.43,-1857.60,513.67
6990,-3.8439,0.8915,-1.3135,1086.18,-1279.42,903.99
7000,-3.8442,0.7627,-1.5194,-1882.57,-123.29,-127.62
7010,-3.8441,0.6183,-1.7649,1633.06,1517.09,825.13
7020,-3.8749,0.5297,-1.9927,-851.32,-1905.09,-753.48
7030,-3.8740,0.5309,-2.1140,-195.07,938.48,1324.22
7040,-3.8734,0.6249,-2.0269,-38.82,1407.23,980.22
7050,-3.8733,0.7827,-1.7389,-7.57,563.66,-660.22
7060,-3.8737,0.9581,-1.3928,195.56,1423.40,-3.42
7070,-3.8744,1.1095,-1.1301,-1351.32,1720.58,1794.13
7080,-3.8442,1.2174,-0.9890,-1976.32,-654.11,-221.01
7090,-3.8453,1.2964,-0.9375,-163.82,1408.57,-1158.20
7100,-3.8464,1.3390,-0.9003,1945.56,2.50,-1001.83
7110,-3.8473,1.3018,-0.8602,-601.32,768.19,-1048.65
7120,-3.8475,1.1787,-0.8928,-1366.94,1893.13,29.54
7130,-3.8474,1.0074,-0.9905,-1116.94,1721.01,-845.52
7140,-3.8470,0.8425,-1.0664,961.18,1220.70,-1376.95
7150,-3.8470,0.7346,-1.0979,-148.19,-498.41,388.49
7160,-3.8492,0.8881,-1.2250,-38.82,-826.66,-299.19
7170,-3.8495,0.9641,-1.2739,1679.93,-795.17,-1064.94
7180,-3.8496,0.9647,-1.2656,-585.69,939.33,-80.63
7190,-3.8497,0.8883,-1.1732,-507.57,-1998.17,-252.50
7200,-3.8499,0.7655,-1.0134,1711.18,1829.83,13.31
7210,-3.8501,0.6434,-0.8636,1992.43,-1717.29,1185.49
7220,-3.8501,0.5607,-0.7983,-1632.57,1454.35,-1736.08
7230,-3.8497,0.5101,-0.8207,-226.32,1813.54,560.91
7240,-3.8494,0.4507,-0.8990,1304.93,-1045.90,-814.15
7250,-3.8488,0.3578,-1.0000,1695.56,922.73,123.23
7260,-3.8481,0.2585,-1.0690,1804.93,0.67,154.30
7270,-3.8477,0.2029,-1.0684,1101.81,-827.64,-314.64
7280,-3.8472,0.2183,-1.0270,1976.81,-749.63,-611.51
7290,-3.8467,0.2911,-1.0024,-54.44,547.24,1872.99
7300,-3.8462,0.3636,-1.0162,1273.68,-311.95,-1564.51
7310,-3.8457,0.3856,-1.0448,-1445.07,1922.55,-736.39
7320,-3.8452,0.3600,-1.0516,1367.43,-1733.64,607.30
7330,-3.8450,0.3151,-1.0271,-1913.82,1391.30,841.67
7340,-3.8448,0.2672,-0.9928,336.18,531.86,1138.61
7350,-3.8447,0.2261,-0.9409,-1788.82,922.36,185.55
7360,-3.8447,0.1993,-0.8430,945.56,-437.07,513.73
7370,-3.8450,0.1746,-0.7212,1523.68,94.12,-907.90
7380,-3.8452,0.1434,-0.6433,-1648.19,-312.19,748.54
7390,-3.8456,0.1339,-0.6332,-1632.57,1656.49,1217.47
7400,-3.8458,0.1757,-0.6534,1148.68,-1046.63,576.84
7410,-3.8459,0.2614,-0.6989,-1507.57,359.68,311.22
7420,-3.8461,0.3691,-0.7798,1461.18,-1452.64,-360.78
7430,-3.8461,0.4670,-0.8468,-741.94,188.17,1482.85
7440,-3.8466,0.4738,-0.8341,-210.69,-389.77,-1689.21
7450,-3.8475,0.3302,-0.7416,648.68,1235.29,-1704.77
7460,-3.8486,0.0695,-0.6487,-1726.32,1078.74,1389.16
7470,-3.8495,-0.2107,-0.6293,898.68,968.87,-1204.41
7480,-3.8499,-0.3627,-0.6969,1039.31,-531.68,-1548.16
7490,-3.8500,-0.3206,-0.8053,1586.18,-1188.23,1139.22
7500,-3.8502,-0.1852,-0.8956,-1023.19,936.83,232.79
7510,-3.8508,-0.0559,-0.9308,304.93,1374.63,-1204.90
7520,-3.8514,0.0459,-0.8875,851.81,874.88,1904.42
7530,-3.8521,0.0977,-0.7864,1883.06,-1593.69,-595.52
7540,-3.8524,0.0945,-0.7041,508.06,-656.07,-1720.34
7550,-3.8525,0.0931,-0.7234,101.81,1875.18,-1142.03
7560,-3.8523,0.1565,-0.8461,-70.07,-593.63,-1001.46
7570,-3.8519,0.2773,-1.0256,39.31,-296.57,-236.08
7580,-3.8517,0.4021,-1.2263,-491.94,719.24,1997.99
7590,-3.8519,0.5094,-1.3837,-523.19,-968.02,-1158.69
7600,-3.8524,0.6450,-1.4131,1211.18,-1108.40,1950.38
7610,-3.8529,0.8478,-1.3051,-1429.44,-873.78,731.57
7620,-3.8534,1.0970,-1.1486,523.68,954.77,-1049.44
7630,-3.8536,1.3499,-1.0460,429.93,986.51,-392.88
7640,-3.8535,1.5208,-1.0469,789.31,-1888.00,1044.80
7650,-3.8534,1.5642,-1.1537,-1335.69,-1997.07,-95.83
7660,-3.8530,1.5607,-1.3507,226.81,331.18,-1205.38
7670,-3.8525,1.5815,-1.6284,-226.32,-887.63,-658.94
7680,-3.8519,1.6233,-1.9567,-1554.44,-434.45,-909.48
7690,-3.8513,1.6150,-2.2201,-210.69,1549.99,-1847.60
7700,-3.8508,1.4607,-2.3059,-1273.19,-168.76,964.36
7710,-3.8506,1.1644,-2.2014,-1023.19,846.56,-1926.39
7720,-3.8505,0.8181,-1.9642,1054.93,-1778.99,-941.83
7730,-3.8503,0.5071,-1.7158,726.81,579.71,-128.85
7740,-3.8500,0.3182,-1.6149,914.31,375.98,-956.48
7750,-3.8494,0.3569,-1.7083,742.43,1297.49,-721.92
7760,-3.8485,0.6140,-1.8595,1695.56,1344.42,-1175.23
7770,-3.8475,0.8901,-1.9037,-1398.19,1985.53,1168.21
7780,-3.8468,0.9482,-1.7939,1945.56,329.83,543.15
7790,-3.8466,0.7135,-1.5980,1383.06,-1623.17,590.21
7800,-3.8468,0.2825,-1.4075,-663.82,-545.53,1824.95
7810,-3.8473,-0.1743,-1.2615,164.31,-155.70,372.19
7820,-3.8480,-0.5150,-1.1510,1695.56,-1453.49,388.12
7830,-3.8489,-0.6888,-1.0497,-1913.82,686.46,669.62
7840,-3.8499,-0.6846,-0.9651,-163.82,1654.85,-236.45
7850,-3.8505,-0.5365,-0.9304,383.06,483.03,138.73
7860,-3.8510,-0.3323,-0.9395,-663.82,920.78,-689.33
7870,-3.8511,-0.1387,-0.9261,1476.81,-235.05,-1486.27
7880,-3.8512,0.0265,-0.8065,-1741.94,1468.44,-1267.46
7890,-3.8513,0.1503,-0.5554,-601.32,765.62,-954.71
7900,-3.8513,0.1943,-0.2510,-757.57,906.49,-329.22
7910,-3.8511,0.1617,-0.0033,883.06,-124.63,-578.67
7920,-3.8507,0.1305,0.1683,711.18,-421.57,-1109.44
7930,-3.8503,0.1687,0.2993,711.18,1547.12,-1312.19
7940,-3.8499,0.2378,0.4050,1601.81,-1687.19,-1390.08
7950,-3.8491,0.2269,0.4410,-1554.44,-155.82,1922.61
7960,-3.8481,0.0724,0.3087,1054.93,453.55,563.35
7970,-3.8470,-0.1725,-0.0277,1273.68,-484.25,1219.30
7980,-3.8458,-0.3391,-0.4690,1929.93,468.38,-1437.56
7990,-3.8445,-0.3407,-0.8231,601.81,-16.30,1311.52
8000,-3.8748,-0.2661,-0.9314,398.68,-1344.42,-798.52
8010,-3.8744,-0.2137,-0.7844,1945.56,796.33,-298.71
8020,-3.8748,-0.2094,-0.4840,648.68,-391.05,-1189.09
8030,-3.8445,-0.2079,-0.1530,1211.18,-1937.93,-1063.48
8040,-3.8456,-0.1448,0.0507,1398.68,437.07,1140.32
8050,-3.8467,-0.0585,0.0233,1476.81,-1500.31,-1593.69
8060,-3.8477,-0.0566,-0.1426,523.68,-1000.12,-718.75
8070,-3.8484,-0.1758,-0.3008,758.06,1765.50,390.32
8080,-3.8490,-0.3496,-0.4312,1508.06,1515.26,-1625.61
8090,-3.8491,-0.4772,-0.6003,-741.94,827.39,749.15
8100,-3.8490,-0.4658,-0.8740,-1070.07,-829.10,1451.90
8110,-3.8488,-0.3055,-1.1659,383.06,139.71,-1392.33
8120,-3.8486,-0.0906,-1.2804,898.68,-1219.36,-846.07
8130,-3.8489,0.0669,-1.1976,414.31,124.82,-1174.38
8140,-3.8495,0.0747,-1.0823,570.56,-1296.75,466.37
8150,-3.8505,-0.1008,-1.0183,1570.56,1468.87,888.49
8160,-3.8516,-0.4192,-0.9514,-898.19,1671.63,763.61
8170,-3.8527,-0.7897,-0.8813,-1648.19,-1766.48,-1798.77
8180,-3.8535,-1.1016,-0.9067,-1070.07,-798.46,-17.40
8190,-3.8539,-1.2770,-1.0725,-991.94,-49.07,-548.71
8200,-3.8538,-1.3181,-1.2682,554.93,-1268.13,1357.24
8210,-3.8535,-1.2562,-1.4348,-710.69,1684.88,1091.25
8220,-3.8534,-1.0769,-1.6511,-788.82,356.87,544.07
8230,-3.8534,-0.7979,-1.8688,-1835.69,669.74,-1800.11
8240,-3.8531,-0.5292,-1.9401,1883.06,810.91,1980.71
8250,-3.8529,-0.3462,-1.8524,273.68,-313.54,-691.35
8260,-3.8529,-0.2283,-1.6847,-304.44,-1094.48,-1659.91
8270,-3.8533,-0.1497,-1.4886,-1210.69,374.51,-1222.05
8280,-3.8536,-0.1206,-1.3173,851.81,1468.44,1809.57
8290,-3.8539,-0.1519,-1.2310,570.56,-593.99,-1362.00
8300,-3.8536,-0.2324,-1.2334,570.56,-1547.18,-1236.82
8310,-3.8528,-0.2644,-1.3157,-1741.94,-1859.86,-846.19
8320,-3.8516,-0.1693,-1.4453,-1835.69,-391.17,-502.62
8330,-3.8503,-0.0320,-1.5427,-1663.82,-984.74,1825.26
8340,-3.8496,0.1381,-1.5975,-85.69,-1453.25,778.20
8350,-3.8496,0.4312,-1.6366,1679.93,-484.13,-831.30
8360,-3.8499,0.7449,-1.6431,-804.44,-1483.58,418.64
8370,-3.8503,0.9606,-1.5522,-648.19,1688.90,1340.52
8380,-3.8510,1.1135,-1.3311,-1038.82,1314.33,-315.55
8390,-3.8506,0.6968,-1.4755,133.06,-482.85,-1252.56
8400,-3.8500,0.7506,-1.4849,1195.56,-858.03,731.45
8410,-3.8501,0.8484,-1.3126,86.18,1938.96,1950.20
8420,-3.8506,0.9214,-1.0930,601.81,-13.98,1606.75
8430,-3.8511,0.9341,-0.9331,1945.56,95.52,-142.76
8440,-3.8511,0.8988,-0.8495,-429.44,564.27,-267.46
8450,-3.8506,0.8782,-0.8240,-945.07,-732.67,1185.79
8460,-3.8500,0.9062,-0.8499,414.31,-1467.04,1623.35
8470,-3.8494,0.9252,-0.9174,8.06,-779.48,-1017.33
8480,-3.8488,0.8788,-1.0048,-1570.07,-1420.10,-829.96
8490,-3.8481,0.8195,-1.0847,492.43,-607.67,-1877.01
8500,-3.8477,0.8151,-1.0984,898.68,1157.84,-1783.39
8510,-3.8474,0.8250,-0.9572,336.18,-592.16,-33.45
8520,-3.8473,0.8129,-0.6418,1601.81,1485.96,-1501.89
8530,-3.8473,0.8479,-0.2850,54.93,1845.34,858.09
8540,-3.8473,0.9452,-0.0842,539.31,-482.73,1202.51
8550,-3.8470,0.9884,-0.0922,992.43,1220.58,-1453.31
8560,-3.8464,0.8757,-0.2151,-1476.32,205.02,1687.32
8570,-3.8457,0.6333,-0.3655,101.81,470.46,-1891.05
8580,-3.8450,0.4194,-0.4811,1070.56,1219.97,-969.48
8590,-3.8442,0.3419,-0.5137,1695.56,-1577.33,780.27
8600,-3.8439,0.3641,-0.4729,-226.32,-1749.39,-1047.91
8610,-3.8749,0.4117,-0.4120,-1382.57,-530.58,1967.77
8620,-3.8746,0.4196,-0.3760,711.18,-733.58,-1469.60
8630,-3.8741,0.3688,-0.3790,1711.18,-124.21,1624.21
8640,-3.8735,0.2983,-0.4240,-788.82,-514.95,1108.58
8650,-3.8729,0.2343,-0.4811,-1804.44,1734.92,561.65
8660,-3.8726,0.1799,-0.4685,1992.43,-1577.70,-16.60
8670,-3.8723,0.1505,-0.3365,-960.69,31.56,-657.17
8680,-3.8724,0.1748,-0.1082,-726.32,922.12,-203.80
8690,-3.8727,0.2773,0.1382,-1616.94,-1843.44,-1875.24
8700,-3.8729,0.4362,0.3280,-491.94,1687.99,-499.76
8710,-3.8728,0.6067,0.4514,-163.82,1985.17,484.99
8720,-3.8727,0.7461,0.5271,1664.31,1782.41,-780.40
8730,-3.8724,0.8093,0.5446,-491.94,-529.85,1313.48
8740,-3.8724,0.7991,0.4584,-398.19,1704.65,172.91
8750,-3.8726,0.8193,0.2180,-1710.69,-1326.60,922.73
8760,-3.8726,0.9348,-0.1151,883.06,-92.16,-874.63
8770,-3.8724,1.0679,-0.3484,-335.69,1267.40,-1500.24
8780,-3.8726,1.1388,-0.3756,695.56,-591.67,-360.11
8790,-3.8728,1.1549,-0.2788,1773.68,-75.93,1139.83
8800,-3.8732,1.1226,-0.1786,-163.82,314.70,1265.08
8810,-3.8733,0.9985,-0.1146,-304.44,1142.76,1390.26
8820,-3.8730,0.8005,-0.0997,-179.44,1330.02,46.63
8830,-3.8727,0.5587,-0.1251,-1523.19,-764.10,1765.38
8840,-3.8722,0.2919,-0.1312,-476.32,-14.59,-1094.06
8850,-3.8717,0.0836,-0.0957,1367.43,-796.33,-1953.43
8860,-3.8715,-0.0195,-0.0389,-1288.82,-249.88,1234.13
8870,-3.8716,-0.0685,0.0067,1508.06,-968.81,671.75
8880,-3.8721,-0.1024,0.0061,-757.57,874.82,-812.50
8890,-3.8726,-0.0985,-0.0564,-1101.32,796.63,-937.50
8900,-3.8729,-0.0896,-0.1865,-601.32,796.63,-890.75
8910,-3.8730,-0.1230,-0.3438,539.31,140.44,-1250.37
8920,-3.8732,-0.1758,-0.4801,258.06,15.38,-1406.92
8930,-3.8735,-0.2633,-0.6677,1508.06,-1437.87,-1532.23
8940,-3.8743,-0.3738,-0.9801,-1695.07,-1453.67,-923.22
8950,-3.8441,-0.3618,-1.3469,164.31,-1438.23,-1439.45
8960,-3.8453,-0.1505,-1.6846,1695.56,-391.36,247.31
8970,-3.8464,0.1862,-1.9982,742.43,390.32,-1534.55
8980,-3.8469,0.5814,-2.2914,-163.82,234.68,1277.34
8990,-3.8469,0.9387,-2.5269,-1570.07,-1295.78,229.86
9000,-3.8468,1.1536,-2.6521,164.31,564.33,-1067.44
9010,-3.8466,1.1907,-2.5923,-335.69,533.45,494.81
9020,-3.8466,1.0587,-2.2950,414.31,189.82,823.06
9030,-3.8467,0.8478,-1.8455,-476.32,-1763.61,1011.11
9040,-3.8468,0.6398,-1.4448,523.68,-217.10,90.09
9050,-3.8470,0.4596,-1.2271,1898.68,-936.28,-1924.74
9060,-3.8473,0.3528,-1.1688,-1163.82,-1061.65,-361.82
9070,-3.8473,0.3540,-1.1818,1164.31,-1608.70,-1377.32
9080,-3.8470,0.4330,-1.1934,1320.56,735.05,-1408.57
9090,-3.8467,0.5336,-1.1461,-570.07,-749.21,-111.76
9100,-3.8461,0.6115,-1.0277,304.93,1297.91,950.87
9110,-3.8455,0.6505,-0.8705,-1726.32,454.28,1794.86
9120,-3.8447,0.6691,-0.7019,-726.32,579.35,107.67
9130,-3.8441,0.6698,-0.5416,1648.68,-1842.47,1654.85
9140,-3.8749,0.6469,-0.3817,1742.43,-1326.84,-626.10
9150,-3.8744,0.6241,-0.2026,-1195.07,-858.15,-94.54
9160,-3.8735,0.6224,-0.0232,-101.32,-1936.34,374.57
9170,-3.8726,0.6680,0.1440,-320.07,1032.41,-1984.44
9180,-3.8713,0.8105,0.3000,1508.06,-1561.22,656.49
9190,-3.8701,1.0577,0.4312,-241.94,-1592.22,1047.42
9200,-3.8690,1.3356,0.4819,-601.32,-810.49,-1327.33
9210,-3.8680,1.4814,0.3424,-1038.82,1690.06,-1358.46
9220,-3.8672,1.3173,-0.0779,1633.06,-169.01,125.61
9230,-3.8667,0.8600,-0.6783,617.43,-1966.19,281.07
9240,-3.8665,0.3352,-1.2328,-1913.82,1173.52,467.41
9250,-3.8663,-0.0436,-1.6112,-1085.69,-1796.26,575.68
9260,-3.8665,-0.1854,-1.8090,-1570.07,1781.13,-1425.05
9270,-3.8668,-0.0852,-1.8593,273.68,468.38,-1066.04
9280,-3.8674,0.1919,-1.7755,1101.81,-1968.93,1761.96
9290,-3.8682,0.4921,-1.6083,570.56,734.74,777.77
9300,-3.8689,0.6713,-1.4246,-1007.57,-1858.46,-596.92
9310,-3.8693,0.6907,-1.2413,1929.93,1657.53,247.19
9320,-3.8696,0.5946,-1.0575,414.31,1110.72,1606.93
9330,-3.8699,0.4712,-0.8761,117.43,641.78,451.05
9340,-3.8702,0.3868,-0.6979,320.56,-139.71,-1845.52
9350,-3.8706,0.3323,-0.5225,1523.68,-1327.39,904.85
9360,-3.8712,0.2421,-0.3429,-1460.69,1125.61,-735.41
9370,-3.8719,0.0958,-0.1493,-1007.57,109.80,-1922.55
9380,-3.8729,-0.0463,0.0424,273.68,890.81,640.32
9390,-3.8740,-0.1155,0.1665,-1913.82,1437.38,1015.69
9400,-3.8750,-0.0961,0.1511,1226.81,1327.88,-1937.19
9410,-3.8445,-0.0215,-0.0082,-288.82,-640.87,1437.74
9420,-3.8451,0.0515,-0.2809,1258.06,-1031.31,-234.44
9430,-3.8453,0.0808,-0.6423,-1398.19,46.94,-1281.80
9440,-3.8453,0.0660,-1.0618,-1648.19,1781.37,358.09
9450,-3.8456,0.0217,-1.4658,461.18,93.87,1247.92
9460,-3.8463,-0.0153,-1.7500,-1210.69,375.00,-799.74
9470,-3.8472,0.0057,-1.9453,-1945.07,15.56,480.96
9480,-3.8480,0.1249,-2.1545,742.43,-1000.00,683.65
9490,-3.8484,0.3517,-2.3781,-7.57,218.93,417.66
9500,-3.8480,0.6322,-2.5201,1023.68,-389.95,1510.93
9510,-3.8470,0.8508,-2.4635,929.93,1423.10,-145.57
9520,-3.8458,0.8855,-2.2181,914.31,673.52,-1707.95
9530,-3.8452,0.7125,-1.8950,1351.81,79.83,823.79
9540,-3.8456,0.4458,-1.5812,-788.82,1438.84,-1644.35
9550,-3.8463,0.2328,-1.3047,1070.56,1610.23,981.26
9560,-3.8469,0.1732,-1.0398,1804.93,1000.43,1216.19
9570,-3.8469,0.2987,-0.8082,-1820.07,-1093.44,1888.55
9580,-3.8462,0.5764,-0.6891,-1757.57,547.42,14.04
9590,-3.8451,0.9070,-0.7078,1789.31,-202.03,420.47
9600,-3.8750,1.1217,-0.7789,101.81,1408.02,201.72
9610,-3.8737,1.0760,-0.7891,-413.82,299.01,123.47
9620,-3.8727,0.7751,-0.6846,1742.43,-997.92,-267.21
9630,-3.8719,0.4087,-0.4442,-773.19,376.46,1858.03
9640,-3.8716,0.2045,-0.0782,320.56,-858.58,-1750.92
9650,-3.8712,0.2803,0.3485,-1820.07,1984.74,562.32
9660,-3.8707,0.5808,0.6797,-116.94,609.86,203.80
9670,-3.8700,0.9237,0.7317,-1648.19,-998.90,438.78
9680,-3.8690,1.1144,0.4845,-1757.57,1658.02,1063.90
9690,-3.8678,1.0509,0.0374,-1351.32,-1982.24,-1264.71
9700,-3.8665,0.8058,-0.4606,-1476.32,783.26,-687.44
9710,-3.8654,0.5431,-0.8480,-851.32,1048.40,1999.08
9720,-3.8650,0.3650,-1.0801,1523.68,-545.84,-95.46
9730,-3.8654,0.3005,-1.2051,-1273.19,1750.67,-752.14
9740,-3.8665,0.3634,-1.2612,-1523.19,1750.55,-1033.63
9750,-3.8679,0.5342,-1.2406,-1476.32,-1436.83,-752.50
9760,-3.8691,0.7317,-1.1449,383.06,1204.16,1138.18
9770,-3.8700,0.8600,-1.0201,1664.31,1454.53,-1283.51
9780,-3.8704,0.8947,-0.9069,-1913.82,1423.52,-33.26
9790,-3.8702,0.8822,-0.8033,-1476.32,-76.42,107.54
9800,-3.8702,0.8473,-0.6954,929.93,1173.58,-704.71
9810,-3.8702,0.7648,-0.5720,461.18,-1013.98,-1751.40
9820,-3.8705,0.6290,-0.4325,1898.68,-1217.29,1467.59
9830,-3.8710,0.4772,-0.3060,523.68,641.85,561.65
9840,-3.8717,0.3585,-0.2131,1086.18,829.04,1858.76
9850,-3.8724,0.3002,-0.1451,1898.68,719.42,-531.68
9860,-3.8729,0.2706,-0.0956,-1570.07,1422.42,-1344.06
9870,-3.8733,0.2369,-0.0659,-1351.32,-233.89,-1765.87
9880,-3.8735,0.2148,-0.0865,-1663.82,-437.07,359.19
9890,-3.8738,0.1624,-0.2015,-491.94,922.24,-1109.56
9900,-3.8738,0.0249,-0.3811,789.31,-1796.57,1015.20
9910,-3.8740,-0.1693,-0.6040,-804.44,-781.25,-344.54
9920,-3.8746,-0.3551,-0.8885,-1663.82,-1297.24,873.78
9930,-3.8447,-0.3978,-1.1466,-1445.07,-1719.48,701.35
9940,-3.8461,-0.2040,-1.3496,1086.18,1249.21,1450.87
9950,-3.8468,0.1189,-1.5861,1898.68,-734.80,1169.19
9960,-3.8470,0.3726,-1.8367,-773.19,984.56,1450.01
9970,-3.8469,0.4576,-2.0526,-304.44,906.92,246.40
9980,-3.8468,0.4679,-2.2347,-1413.82,1266.48,433.47
9990,-3.8468,0.5289,-2.3521,-101.32,1953.98,-1520.02
