timestamp_ms,ax,ay,az,gx,gy,gz
0,-3.8716,0.4429,-0.1937,-1445.07,1032.04,-281.80
10,-3.8716,0.4460,-0.1414,695.56,-796.02,1577.70
20,-3.8717,0.4305,-0.1204,1101.81,1907.10,1452.82
30,-3.8718,0.4061,-0.1313,-882.57,594.54,1031.01
40,-3.8719,0.3909,-0.1823,-7.57,-811.77,-844.06
50,-3.8718,0.3951,-0.2646,-1960.69,672.61,-1797.24
60,-3.8716,0.4113,-0.3346,-1413.82,-1874.27,1374.45
70,-3.8715,0.4291,-0.3646,648.68,1172.67,-203.80
80,-3.8713,0.4470,-0.3870,-1070.07,1328.92,-844.48
90,-3.8712,0.4578,-0.4283,1226.81,-1530.40,-1750.79
100,-3.8711,0.4457,-0.4550,-1398.19,1172.73,1467.90
110,-3.8711,0.4121,-0.4397,1054.93,1766.48,1092.83
120,-3.8713,0.3811,-0.4032,758.06,-280.46,-32.17
130,-3.8715,0.3805,-0.3706,789.31,391.36,1467.96
140,-3.8716,0.4166,-0.3490,711.18,563.23,1374.27
150,-3.8716,0.4612,-0.3359,1336.18,-671.08,483.64
160,-3.8716,0.4773,-0.3251,-960.69,1000.85,1483.70
170,-3.8716,0.4601,-0.3224,1101.81,-1608.46,1280.58
180,-3.8717,0.4298,-0.3451,-1101.32,-1264.77,-1281.92
190,-3.8717,0.3979,-0.3829,-976.32,-171.08,514.89
200,-3.8718,0.3698,-0.4061,-1054.44,-1014.89,-360.17
210,-3.8718,0.3582,-0.4177,-663.82,16.30,-47.67
220,-3.8717,0.3601,-0.4285,1851.81,-1468.08,-1047.73
230,-3.8716,0.3558,-0.4110,-1898.19,1156.92,-1110.23
240,-3.8716,0.3411,-0.3497,1554.93,-608.70,-1141.48
250,-3.8717,0.3217,-0.2789,-335.69,-765.01,-1266.36
260,-3.8718,0.2927,-0.2261,1179.93,297.49,1468.20
270,-3.8721,0.2517,-0.1779,1476.81,-936.95,-812.99
280,-3.8723,0.2164,-0.1305,226.81,1234.86,-484.74
290,-3.8724,0.2166,-0.1183,-288.82,-702.76,1702.82
300,-3.8724,0.2593,-0.1479,-273.19,859.74,-609.62
310,-3.8722,0.3224,-0.1664,1195.56,1062.99,-547.18
320,-3.8719,0.3862,-0.1307,1273.68,-1296.26,-312.87
330,-3.8717,0.4377,-0.0502,1445.56,-733.64,1968.44
340,-3.8715,0.4717,0.0509,39.31,1578.98,265.50
350,-3.8712,0.5006,0.1492,383.06,-1483.46,1140.69
360,-3.8708,0.5471,0.1760,86.18,-905.27,250.24
370,-3.8706,0.6123,0.0746,-1960.69,-1467.71,-1796.57
380,-3.8705,0.6436,-0.0696,-1616.94,1548.03,1125.12
390,-3.8707,0.5999,-0.1062,-1616.94,-905.03,827.94
400,-3.8712,0.5078,-0.0153,789.31,-1592.59,1374.76
410,-3.8717,0.4247,0.1029,1008.06,-1952.15,-1953.19
420,-3.8721,0.3771,0.1674,-1632.57,1172.67,1375.18
430,-3.8724,0.3475,0.1622,273.68,1422.61,-1468.44
440,-3.8727,0.3085,0.1078,492.43,766.30,422.18
450,-3.8730,0.2542,0.0494,-507.57,1797.42,-999.82
460,-3.8732,0.1979,0.0325,539.31,-1671.39,890.69
470,-3.8730,0.1757,0.0378,1336.18,156.62,234.44
480,-3.8726,0.2294,0.0028,-1507.57,844.06,-421.81
490,-3.8715,0.3346,-0.0913,1367.43,359.80,1640.62
500,-3.8704,0.4203,-0.2012,-1163.82,313.11,1656.07
510,-3.8696,0.4548,-0.2982,1804.93,-1749.21,-1141.05
520,-3.8693,0.4524,-0.3751,-1773.19,1828.98,1468.14
530,-3.8694,0.4415,-0.3944,1914.31,-14.77,-1203.92
540,-3.8699,0.4324,-0.3184,523.68,1516.48,-1938.29
550,-3.8707,0.4021,-0.1619,-648.19,-749.21,1514.95
560,-3.8716,0.3481,-0.0013,-523.19,-718.02,905.88
570,-3.8722,0.3086,0.0754,570.56,-171.20,-921.94
580,-3.8724,0.3081,0.0580,-491.94,1656.80,-484.25
590,-3.8726,0.3342,0.0017,-554.44,-577.58,-312.44
600,-3.8726,0.3644,-0.0487,-1210.69,219.36,1515.62
610,-3.8726,0.3936,-0.0709,-1351.32,1766.30,1999.88
620,-3.8724,0.4540,-0.1003,-1616.94,-1077.39,-562.68
630,-3.8718,0.5697,-0.1759,-1882.57,-842.90,296.63
640,-3.8711,0.6780,-0.2443,929.93,1485.47,1140.26
650,-3.8706,0.7128,-0.2393,-1210.69,735.66,-172.36
660,-3.8704,0.6914,-0.1619,-757.57,1376.34,702.64
670,-3.8706,0.6533,-0.0621,508.06,-717.41,421.51
680,-3.8711,0.6172,0.0023,-366.94,48.10,1812.38
690,-3.8715,0.5835,-0.0062,-991.94,298.03,1140.62
700,-3.8717,0.5334,-0.0653,-1304.44,-795.78,-234.44
710,-3.8717,0.4642,-0.1259,289.31,-358.34,-78.31
720,-3.8716,0.4049,-0.1610,-570.07,-108.52,-1109.68
730,-3.8715,0.3577,-0.1416,-163.82,-608.64,-562.87
740,-3.8713,0.3193,-0.0638,1789.31,1875.67,171.57
750,-3.8716,0.3148,0.0201,883.06,-171.26,874.82
760,-3.8719,0.3420,0.0475,304.93,-1421.26,1718.75
770,-3.8722,0.3727,0.0293,-210.69,-1921.26,-1515.56
780,-3.8723,0.3834,0.0249,-288.82,-249.33,-421.88
790,-3.8724,0.3655,0.0563,1086.18,-811.77,-93.75
800,-3.8726,0.3253,0.0725,-1210.69,-796.20,1000.06
810,-3.8726,0.2894,-0.0107,1648.68,1281.86,297.00
820,-3.8722,0.2660,-0.1890,1054.93,-1374.45,1624.94
830,-3.8715,0.2395,-0.4077,-1945.07,-187.01,-250.43
840,-3.8705,0.2150,-0.5110,-1335.69,-187.07,-625.85
850,-3.8700,0.1879,-0.3850,-476.32,-1405.88,1186.46
860,-3.8704,0.1241,-0.2108,54.93,-1280.88,-1344.54
870,-3.8708,0.0580,-0.1736,-101.32,1015.81,-1906.68
880,-3.8711,0.0667,-0.2493,-570.07,1781.31,-1906.62
890,-3.8711,0.1567,-0.3583,539.31,93.87,-562.99
900,-3.8708,0.3035,-0.4534,70.56,-1859.07,468.02
910,-3.8708,0.4307,-0.4952,-1148.19,1969.30,-719.67
920,-3.8710,0.4725,-0.5089,-866.94,610.17,1749.02
930,-3.8712,0.4525,-0.5548,492.43,-1139.71,1561.46
940,-3.8713,0.3691,-0.6733,1929.93,985.23,264.53
950,-3.8713,0.3075,-0.8583,-741.94,1813.17,-1048.22
960,-3.8708,0.3456,-1.0038,-632.57,-1858.83,-532.96
970,-3.8704,0.3811,-0.9766,242.43,-483.70,-1736.39
980,-3.8705,0.3529,-0.7842,789.31,-999.27,-673.83
990,-3.8710,0.2963,-0.5674,1179.93,-374.33,1935.91
1000,-3.8716,0.2574,-0.4146,1929.93,-624.45,1701.97
1010,-3.8719,0.2483,-0.2997,961.18,-1062.01,108.52
1020,-3.8722,0.2557,-0.1790,-210.69,1641.05,265.01
1030,-3.8724,0.2715,-0.0588,742.43,1094.24,1609.01
1040,-3.8727,0.2793,0.0269,-1241.94,469.24,-1734.50
1050,-3.8728,0.2592,0.0505,-241.94,-562.01,375.00
1060,-3.8729,0.2153,0.0304,1179.93,-1530.76,-1890.56
1070,-3.8729,0.1761,0.0375,-429.44,-109.01,156.25
1080,-3.8732,0.1553,0.0895,-1445.07,797.18,1000.06
1090,-3.8735,0.1476,0.1361,-116.94,-546.63,-1328.00
1100,-3.8738,0.1469,0.1678,-1101.32,1422.12,1906.49
1110,-3.8740,0.1411,0.2013,-1195.07,1484.62,1640.93
1120,-3.8743,0.1226,0.2190,-1929.44,1765.87,156.62
1130,-3.8746,0.0911,0.1926,-304.44,31.43,-265.20
1140,-3.8748,0.0608,0.0612,-335.69,656.37,-780.88
1150,-3.8739,0.2131,-0.5300,-210.69,-171.81,1015.69
1160,-3.8706,0.7487,-1.4941,-710.69,156.62,1577.09
1170,-3.8673,1.2603,-2.1624,-163.82,751.40,950.20
1180,-3.8667,1.1665,-2.0343,1320.56,-778.81,-35.52
1190,-3.8674,0.6849,-1.2019,1320.56,-388.37,1370.97
1200,-3.8693,0.2997,-0.3861,-320.07,-1842.47,-674.26
1210,-3.8710,0.0575,-0.0519,-1632.57,-1421.33,186.71
1220,-3.8721,-0.0750,-0.1182,-632.57,1359.44,-937.62
1230,-3.8722,-0.0116,-0.3308,-1585.69,890.44,1124.76
1240,-3.8721,0.1738,-0.5344,-1476.32,1671.81,-235.05
1250,-3.8718,0.3130,-0.6715,-1741.94,-405.94,-204.22
1260,-3.8716,0.3787,-0.7360,70.56,-1952.51,-1813.84
1270,-3.8713,0.4150,-0.7369,476.81,1797.61,107.91
1280,-3.8713,0.4395,-0.6549,1133.06,1672.67,-454.59
1290,-3.8715,0.4453,-0.5001,258.06,172.73,-688.78
1300,-3.8717,0.4283,-0.3434,1008.06,-14.77,-204.16
1310,-3.8718,0.3948,-0.2194,-1163.82,47.67,-1328.80
1320,-3.8719,0.3479,-0.1277,-1460.69,-77.39,1421.39
1330,-3.8721,0.3081,-0.1122,539.31,-343.08,-1937.81
1340,-3.8719,0.2855,-0.1688,-554.44,1641.17,890.38
1350,-3.8718,0.2633,-0.2008,554.93,-1608.83,1671.51
1360,-3.8718,0.2423,-0.1554,1711.18,-1702.64,-1750.43
1370,-3.8719,0.2325,-0.0656,-976.32,109.80,1421.57
1380,-3.8722,0.2310,0.0304,1773.68,-390.20,562.32
1390,-3.8726,0.2206,0.1311,1570.56,-108.95,234.38
1400,-3.8730,0.1940,0.2302,242.43,781.68,547.12
1410,-3.8735,0.1611,0.3015,836.18,1469.12,1266.05
1420,-3.8739,0.1346,0.3468,633.06,-1405.94,969.30
1430,-3.8743,0.1052,0.3671,1242.43,390.87,1016.30
1440,-3.8746,0.0597,0.3210,1476.81,-1015.44,985.05
1450,-3.8749,0.0726,-0.0613,-351.32,1093.81,-468.14
1460,-3.8726,0.3002,-1.0184,1304.93,156.37,140.50
1470,-3.8684,0.7242,-2.0547,-1570.07,1641.17,-1298.89
1480,-3.8660,0.9042,-2.2102,711.18,1001.40,355.35
1490,-3.8665,0.6765,-1.3717,-257.57,1095.46,1792.54
1500,-3.8688,0.4163,-0.3866,-1398.19,423.16,1216.06
1510,-3.8715,0.2903,0.1331,1289.31,-1483.58,374.21
1520,-3.8729,0.2195,0.1593,1164.31,1031.80,0.24
1530,-3.8730,0.1958,-0.0898,101.81,391.05,1234.68
1540,-3.8726,0.2642,-0.3945,1070.56,500.37,-359.56
1550,-3.8719,0.3767,-0.6108,1820.56,1500.49,-469.54
1560,-3.8715,0.4539,-0.6819,226.81,1813.23,170.65
1570,-3.8715,0.4678,-0.6399,-1898.19,719.60,-32.59
1580,-3.8715,0.4344,-0.5616,-116.94,-1905.40,842.47
1590,-3.8717,0.4004,-0.5099,-382.57,110.17,1670.78
1600,-3.8719,0.4348,-0.4927,-741.94,-1264.89,-376.04
1610,-3.8719,0.5242,-0.5062,-335.69,938.29,-1282.23
1620,-3.8717,0.5704,-0.5513,-898.19,-795.90,77.09
1630,-3.8716,0.5509,-0.5487,1023.68,1438.60,-672.97
1640,-3.8716,0.4971,-0.4283,-1476.32,1766.66,-594.85
1650,-3.8718,0.4330,-0.2510,-366.94,1172.79,-1313.35
1660,-3.8722,0.3788,-0.1165,-570.07,-124.21,-1141.17
1670,-3.8726,0.3304,-0.0458,492.43,1094.48,-109.62
1680,-3.8728,0.2747,-0.0074,-1695.07,-1858.76,-375.12
1690,-3.8729,0.2124,0.0243,-835.69,-952.64,1937.44
1700,-3.8730,0.1603,0.0596,-804.44,-890.26,437.50
1710,-3.8733,0.1350,0.0840,523.68,-374.69,-1843.69
1720,-3.8734,0.1355,0.0802,1289.31,-1249.76,375.12
1730,-3.8737,0.1555,0.0253,1351.81,-1734.13,-546.75
1740,-3.8733,0.2228,-0.2933,-85.69,-765.38,1484.38
1750,-3.8716,0.3937,-0.9183,523.68,-1546.45,-1641.24
1760,-3.8694,0.5836,-1.3816,-1601.32,-1546.14,341.92
1770,-3.8682,0.5879,-1.2778,-1288.82,-842.65,-1596.50
1780,-3.8682,0.4028,-0.7437,-741.94,438.60,1091.25
1790,-3.8698,0.2137,-0.2456,-429.44,813.23,-595.21
1800,-3.8713,0.1476,-0.0682,-632.57,562.87,-1422.36
1810,-3.8721,0.1971,-0.1689,-1101.32,-734.13,265.44
1820,-3.8722,0.2922,-0.3783,1242.43,-1624.63,-1234.74
1830,-3.8718,0.3694,-0.5531,1414.31,-421.33,1124.21
1840,-3.8716,0.3901,-0.6281,-710.69,1203.80,-704.22
1850,-3.8715,0.3766,-0.6372,1945.56,-389.89,-251.28
1860,-3.8715,0.3809,-0.6415,211.18,-1561.77,-470.03
1870,-3.8715,0.4354,-0.6335,758.06,1891.36,233.09
1880,-3.8717,0.4916,-0.5931,-257.57,-1092.96,-1.28
1890,-3.8717,0.4939,-0.5190,-1070.07,79.04,14.47
1900,-3.8719,0.4695,-0.4120,-773.19,1563.42,-1735.41
1910,-3.8722,0.4457,-0.3049,101.81,-733.46,-1860.23
1920,-3.8724,0.4299,-0.2308,1054.93,969.60,-1219.36
1930,-3.8726,0.4196,-0.1965,-960.69,-1546.08,-1234.86
1940,-3.8726,0.4125,-0.1929,1711.18,-1155.46,-1953.55
1950,-3.8726,0.4137,-0.2083,804.93,-686.71,-641.05
1960,-3.8724,0.4255,-0.2428,961.18,1344.54,-1703.55
1970,-3.8723,0.4512,-0.2986,-1523.19,922.67,-312.99
1980,-3.8721,0.4869,-0.3668,1758.06,1782.10,-516.24
1990,-3.8718,0.5211,-0.4181,-1663.82,1047.79,-110.11
2000,-3.8716,0.5464,-0.4208,-1288.82,-1514.65,-1907.10
2010,-3.8715,0.5667,-0.3741,1945.56,-1858.34,327.27
2020,-3.8716,0.5852,-0.3052,539.31,110.47,-1906.98
2030,-3.8717,0.6014,-0.2428,-1085.69,938.60,343.14
2040,-3.8719,0.6183,-0.1986,992.43,923.03,1858.89
2050,-3.8722,0.6376,-0.1766,-851.32,-1420.72,-187.93
2060,-3.8723,0.6658,-0.1978,1617.43,1391.85,-219.12
2070,-3.8722,0.7124,-0.2654,1226.81,-1311.22,1390.20
2080,-3.8721,0.7667,-0.3280,-804.44,-1967.41,-516.17
2090,-3.8718,0.7996,-0.3334,-1851.32,-1982.91,936.83
2100,-3.8718,0.7915,-0.2856,-1648.19,1329.65,-1297.55
2110,-3.8718,0.7531,-0.2229,1320.56,-560.97,1186.89
2120,-3.8719,0.7164,-0.1781,398.68,-529.79,-1531.74
2130,-3.8719,0.7012,-0.1614,-288.82,1204.47,530.88
2140,-3.8721,0.6969,-0.1584,1758.06,-654.91,-578.49
2150,-3.8721,0.6819,-0.1533,1211.18,-279.91,-1109.74
2160,-3.8721,0.6479,-0.1458,-710.69,376.28,-719.06
2170,-3.8719,0.6064,-0.1440,-1054.44,1344.97,624.69
2180,-3.8719,0.5767,-0.1599,1633.06,1563.66,-375.31
2190,-3.8718,0.5679,-0.1912,1820.56,-467.65,-265.99
2200,-3.8717,0.5773,-0.2159,695.56,-467.65,-1672.30
2210,-3.8717,0.5928,-0.2198,1898.68,360.47,-1844.18
2220,-3.8717,0.6097,-0.2155,-116.94,-139.53,124.51
2230,-3.8718,0.6422,-0.2261,-1945.07,423.03,-1719.18
2240,-3.8718,0.6945,-0.2568,-1788.82,-936.28,1187.01
2250,-3.8718,0.7437,-0.3033,898.68,-873.66,421.33
2260,-3.8718,0.7646,-0.3612,-804.44,1173.28,671.26
2270,-3.8718,0.7462,-0.4119,1883.06,1767.09,1030.52
2280,-3.8719,0.6932,-0.4335,-476.32,-717.35,-828.98
2290,-3.8721,0.6346,-0.4280,742.43,516.97,-1485.23
2300,-3.8722,0.5963,-0.4106,1242.43,1219.97,624.15
2310,-3.8724,0.5665,-0.3933,336.18,-561.34,-797.73
2320,-3.8726,0.5243,-0.3903,523.68,1657.35,-1282.04
2330,-3.8727,0.4685,-0.4088,-882.57,-1952.15,-125.79
2340,-3.8727,0.4133,-0.4434,-23.19,-327.27,-469.60
2350,-3.8726,0.3735,-0.4841,914.31,-749.21,749.08
2360,-3.8726,0.3485,-0.5286,-179.44,-1968.08,-1063.48
2370,-3.8724,0.3274,-0.5714,617.43,344.42,-1672.91
2380,-3.8723,0.3116,-0.6010,1914.31,-1140.01,-1594.91
2390,-3.8722,0.3090,-0.6179,-101.32,-921.33,-1188.72
2400,-3.8721,0.3123,-0.6182,-445.07,906.80,-719.97
2410,-3.8719,0.3016,-0.5913,-23.19,875.55,1311.28
2420,-3.8721,0.2719,-0.5455,-1382.57,313.05,-673.03
2430,-3.8722,0.2384,-0.4976,-1195.07,-1827.64,-626.10
2440,-3.8722,0.2150,-0.4619,-1476.32,312.93,311.52
2450,-3.8723,0.2000,-0.4458,-476.32,875.37,-1282.17
2460,-3.8723,0.1921,-0.4480,1601.81,-1062.13,1717.83
2470,-3.8723,0.2037,-0.4729,601.81,-1343.38,1811.58
2480,-3.8722,0.2393,-0.5316,-1913.82,-530.88,61.52
2490,-3.8721,0.2869,-0.6248,-1366.94,-46.45,1623.90
2500,-3.8718,0.3365,-0.7296,726.81,31.80,-1673.10
2510,-3.8715,0.3787,-0.8141,-913.82,-1390.01,154.79
2520,-3.8712,0.3956,-0.8547,476.81,-202.39,92.10
2530,-3.8711,0.3698,-0.8530,-1351.32,-1405.52,201.42
2540,-3.8711,0.2991,-0.8309,-663.82,-1186.83,638.92
2550,-3.8712,0.2064,-0.8016,-1710.69,1641.17,1701.48
2560,-3.8713,0.1229,-0.7626,-1570.07,1390.99,185.91
2570,-3.8716,0.0682,-0.7164,-257.57,-1609.19,1092.22
2580,-3.8718,0.0463,-0.6799,742.43,297.00,1373.60
2590,-3.8721,0.0492,-0.6604,1929.93,968.81,-1673.22
2600,-3.8722,0.0699,-0.6505,-1695.07,-531.19,451.78
2610,-3.8723,0.1035,-0.6440,961.18,734.50,29.97
2620,-3.8724,0.1437,-0.6409,1258.06,1562.68,1983.09
2630,-3.8724,0.1848,-0.6295,-1601.32,1968.99,-1204.41
2640,-3.8723,0.2177,-0.5823,-335.69,-577.82,889.34
2650,-3.8723,0.2336,-0.4943,-132.57,1469.12,1217.59
2660,-3.8724,0.2361,-0.4009,1914.31,734.80,-1813.48
2670,-3.8726,0.2397,-0.3450,-1773.19,687.93,1999.21
2680,-3.8726,0.2550,-0.3420,-1304.44,-155.82,546.14
2690,-3.8726,0.2793,-0.3738,648.68,219.24,-1125.67
2700,-3.8724,0.3093,-0.4163,-241.94,156.74,-828.86
2710,-3.8723,0.3528,-0.4767,-398.19,-1280.70,-16.48
2720,-3.8721,0.4143,-0.5719,1164.31,-1014.95,-688.48
2730,-3.8717,0.4777,-0.6682,1039.31,-1202.33,-1673.03
2740,-3.8713,0.5162,-0.6949,1148.68,-1530.33,623.66
2750,-3.8712,0.5234,-0.6267,-1913.82,-952.15,248.60
2760,-3.8715,0.5155,-0.5106,-991.94,-217.77,-360.66
2770,-3.8717,0.5083,-0.4106,1992.43,-1358.40,-1204.16
2780,-3.8719,0.5017,-0.3561,1070.56,-561.52,-625.85
2790,-3.8721,0.4915,-0.3468,226.81,-1577.15,-63.23
2800,-3.8721,0.4849,-0.3729,-1085.69,-389.71,-156.98
2810,-3.8719,0.4868,-0.4142,-1929.44,266.54,-1516.36
2820,-3.8718,0.4885,-0.4429,-1679.44,-1014.71,-985.23
2830,-3.8717,0.4785,-0.4471,-1460.69,-686.58,-563.42
2840,-3.8716,0.4548,-0.4379,1258.06,-1233.46,-1297.79
2850,-3.8715,0.4287,-0.4254,-1773.19,-46.02,764.71
2860,-3.8715,0.4114,-0.4075,-1116.94,1547.67,1827.27
2870,-3.8715,0.4021,-0.3795,664.31,-155.46,1702.27
2880,-3.8715,0.3948,-0.3534,-523.19,-577.39,249.21
2890,-3.8716,0.3921,-0.3494,-1460.69,-1233.64,-1531.98
2900,-3.8716,0.3994,-0.3673,-1804.44,-718.02,1827.39
2910,-3.8716,0.4128,-0.3905,-866.94,985.11,-1047.61
2920,-3.8715,0.4263,-0.4054,851.81,-1983.58,780.46
2930,-3.8715,0.4407,-0.4093,-1429.44,110.17,1733.58
2940,-3.8715,0.4565,-0.4094,414.31,-389.77,1827.27
2950,-3.8715,0.4689,-0.4086,-1554.44,-405.40,1452.27
2960,-3.8715,0.4733,-0.3997,23.68,-295.96,546.02
2970,-3.8716,0.4746,-0.3831,586.18,844.67,-953.92
2980,-3.8716,0.4752,-0.3691,758.06,-1030.33,1077.33
2990,-3.8717,0.4708,-0.3641,836.18,750.92,-750.73
3000,-3.8717,0.4585,-0.3668,273.68,1391.54,1999.27
3010,-3.8717,0.4393,-0.3745,-1304.44,1047.73,1124.27
3020,-3.8717,0.4274,-0.3840,242.43,63.35,218.02
3030,-3.8718,0.4377,-0.3921,-1288.82,-1155.46,-641.42
3040,-3.8718,0.4688,-0.3995,39.31,1813.35,-1594.54
3050,-3.8718,0.5096,-0.4097,8.06,860.29,1217.96
3060,-3.8718,0.5586,-0.4224,1242.43,-436.52,202.27
3070,-3.8718,0.6157,-0.4359,-491.94,1938.54,61.65
3080,-3.8718,0.6628,-0.4443,-1179.44,204.28,546.02
3090,-3.8718,0.6802,-0.4359,851.81,-873.72,233.46
3100,-3.8719,0.6683,-0.4062,-929.44,204.41,1921.02
3110,-3.8721,0.6414,-0.3596,1554.93,1.28,1514.83
3120,-3.8723,0.6163,-0.3118,-1898.19,1969.97,-235.11
3130,-3.8724,0.6014,-0.2827,-1101.32,94.91,1968.14
3140,-3.8726,0.5985,-0.2736,992.43,-186.34,1733.76
3150,-3.8727,0.6119,-0.2666,617.43,985.53,-1094.30
3160,-3.8727,0.6399,-0.2568,-1663.82,1876.16,124.45
3170,-3.8728,0.6796,-0.2607,1914.31,-873.78,1811.95
3180,-3.8728,0.7335,-0.2957,-1007.57,-1373.72,890.08
3190,-3.8728,0.7942,-0.3599,1898.68,-1842.35,-1984.99
3200,-3.8727,0.8435,-0.4305,1664.31,1939.03,1358.64
3210,-3.8726,0.8739,-0.4819,-23.19,892.21,1796.02
3220,-3.8724,0.8926,-0.4976,-132.57,-1685.85,1436.52
3230,-3.8724,0.8979,-0.4772,-1741.94,314.21,1749.02
3240,-3.8726,0.8849,-0.4396,-1054.44,-1076.42,1405.27
3250,-3.8728,0.8701,-0.4037,1273.68,-263.92,-1641.54
3260,-3.8730,0.8678,-0.3724,-616.94,329.77,-375.79
3270,-3.8732,0.8608,-0.3416,-913.82,329.77,-1906.98
3280,-3.8733,0.8486,-0.3126,-1804.44,282.90,1124.33
3290,-3.8735,0.8391,-0.3195,633.06,-13.98,-172.55
3300,-3.8735,0.7460,-0.3684,-585.69,-889.04,1921.20
3310,-3.8733,0.5801,-0.4316,-507.57,845.15,-328.86
3320,-3.8727,0.4896,-0.5314,-1741.94,751.10,-813.35
3330,-3.8722,0.4971,-0.6301,-1320.07,-14.71,-141.72
3340,-3.8718,0.5499,-0.6628,-366.94,-655.33,1529.97
3350,-3.8717,0.6293,-0.6344,-1601.32,-842.71,842.41
3360,-3.8718,0.7139,-0.5784,554.93,-1201.90,279.97
3370,-3.8721,0.7549,-0.5612,-616.94,1970.09,1920.72
3380,-3.8722,0.7800,-0.5455,633.06,173.34,-204.22
3390,-3.8722,0.8243,-0.4619,-148.19,-1826.66,1842.65
3400,-3.8723,0.8723,-0.3539,1523.68,876.59,1249.08
3410,-3.8727,0.9139,-0.2711,-335.69,-1295.23,-203.86
3420,-3.8729,0.9448,-0.2827,992.43,1298.65,-1219.30
3430,-3.8727,1.0000,-0.3845,945.56,-185.67,1686.89
3440,-3.8723,0.9540,-0.3964,8.06,-1216.80,-953.92
3450,-3.8723,0.6636,-0.2656,-1882.57,1267.46,1389.83
3460,-3.8726,0.3232,-0.1665,945.56,-1998.72,1374.45
3470,-3.8726,0.2208,-0.1770,1383.06,-1311.89,1530.88
3480,-3.8723,0.3998,-0.2327,273.68,1344.18,327.76
3490,-3.8722,0.6359,-0.2548,-820.07,-1780.52,1890.14
3500,-3.8723,0.6118,-0.2100,1398.68,-608.15,1983.83
3510,-3.8726,0.3397,-0.1128,-1679.44,1126.16,1843.32
3520,-3.8729,0.2693,0.0369,-507.57,1563.11,-172.12
3530,-3.8734,0.4951,0.1573,-1523.19,719.24,-1671.81
3540,-3.8738,0.6219,0.1233,-616.94,141.54,672.18
3550,-3.8735,0.5293,-0.0190,-382.57,-217.59,734.56
3560,-3.8730,0.4053,-0.1018,-241.94,1563.48,-1859.44
3570,-3.8729,0.3809,-0.0612,-116.94,-1030.52,1327.88
3580,-3.8733,0.4666,0.0349,758.06,172.61,1343.63
3590,-3.8738,0.6053,0.1016,-273.19,469.60,-1703.06
3600,-3.8740,0.7001,0.1317,1492.43,1001.16,-1671.69
3610,-3.8741,0.7006,0.1758,1617.43,860.72,297.12
3620,-3.8746,0.7130,0.2023,1679.93,-1498.66,-609.07
3630,-3.8749,0.7672,0.1511,-726.32,1891.97,1297.24
3640,-3.8750,0.7744,0.1296,-1788.82,-654.79,-452.88
3650,-3.8440,0.7842,0.2196,-866.94,595.21,-1343.51
3660,-3.8446,0.8861,0.2915,383.06,110.90,-1046.45
3670,-3.8451,1.0913,0.2635,1429.93,1314.21,-1749.45
3680,-3.8453,1.3278,0.1969,-304.44,1736.45,-733.89
3690,-3.8453,1.4961,0.1747,1961.18,1205.69,-1312.13
3700,-3.8452,1.5575,0.2179,-491.94,-1637.76,906.56
3710,-3.8452,1.5322,0.2823,-632.57,-106.38,-1390.26
3720,-3.8452,1.4697,0.3375,133.06,143.62,625.55
3730,-3.8453,1.3837,0.3485,133.06,-794.01,406.86
3740,-3.8452,1.2073,0.0526,1117.43,612.06,1703.80
3750,-3.8750,1.0530,-0.4625,-1460.69,-1263.31,1437.56
3760,-3.8730,1.1117,-0.6301,-1210.69,798.89,-1704.04
3770,-3.8724,1.2217,-0.3279,-1695.07,-654.11,92.47
3780,-3.8735,1.1648,0.1151,383.06,-1966.37,999.33
3790,-3.8439,0.9739,0.3911,1101.81,-1263.37,1422.06
3800,-3.8448,0.7968,0.4629,664.31,-1935.61,922.61
3810,-3.8452,0.7241,0.4500,1992.43,-748.47,-874.15
3820,-3.8451,0.7343,0.4113,695.56,1595.15,719.60
3830,-3.8450,0.7903,0.3580,1992.43,642.03,47.67
3840,-3.8450,0.8604,0.3026,1164.31,1829.65,-608.70
3850,-3.8448,0.9124,0.2781,-1866.94,-1263.98,-702.58
3860,-3.8447,0.9319,0.2946,789.31,-404.48,1125.49
3870,-3.8448,0.8998,0.3230,-710.69,1704.90,-30.70
3880,-3.8448,0.7778,0.3362,-820.07,1345.46,-780.64
3890,-3.8448,0.6399,0.3480,-429.44,-967.29,1531.86
3900,-3.8451,0.6333,0.3857,1914.31,548.10,-1655.58
3910,-3.8453,0.7355,0.4399,1070.56,1376.22,1203.86
3920,-3.8455,0.8738,0.4794,-1851.32,313.90,-249.15
3930,-3.8451,1.1531,0.5225,-148.19,1361.02,-61.58
3940,-3.8451,1.2675,0.6028,-398.19,-1122.80,-327.15
3950,-3.8455,0.8630,0.6204,-1757.57,1158.69,-1936.34
3960,-3.8455,0.4316,0.5232,-1523.19,-592.10,-1405.09
3970,-3.8452,0.3817,0.4598,-741.94,-1030.46,-1561.52
3980,-3.8451,0.5239,0.4988,867.43,-1139.89,1094.60
3990,-3.8452,0.6072,0.5359,-929.44,-155.27,-1405.33
4000,-3.8452,0.5782,0.5441,1726.81,594.91,251.04
4010,-3.8453,0.5382,0.5724,-1976.32,1641.72,938.54
4020,-3.8456,0.5466,0.5997,898.68,1266.66,-1108.28
4030,-3.8457,0.5707,0.6090,1976.81,766.66,876.16
4040,-3.8458,0.5612,0.6202,1054.93,1954.22,1891.78
4050,-3.8459,0.5142,0.6298,-163.82,-608.34,-92.59
4060,-3.8459,0.4655,0.6293,1820.56,610.35,344.97
4070,-3.8462,0.4280,0.6342,-413.82,547.73,-1436.28
4080,-3.8464,0.4044,0.6512,-1210.69,1172.67,-1233.15
4090,-3.8467,0.3994,0.6675,-226.32,-639.89,-1373.78
4100,-3.8469,0.3953,0.6780,-866.94,1438.23,-373.72
4110,-3.8470,0.3706,0.6979,-1398.19,-1218.02,-1436.22
4120,-3.8472,0.3165,0.7316,-554.44,1328.80,-639.28
4130,-3.8472,0.2554,0.7661,523.68,1641.24,126.40
4140,-3.8474,0.2208,0.7855,695.56,-1937.01,-717.29
4150,-3.8475,0.2241,0.7825,273.68,547.30,1829.65
4160,-3.8477,0.2628,0.7537,695.56,156.68,-1248.47
4170,-3.8477,0.3186,0.7032,1648.68,469.24,-1467.29
4180,-3.8477,0.3483,0.6531,789.31,-1983.76,-701.78
4190,-3.8475,0.3228,0.6133,586.18,-405.58,1454.35
4200,-3.8474,0.2611,0.5840,1320.56,-1499.39,782.41
4210,-3.8473,0.1980,0.5670,1429.93,-1249.51,422.97
4220,-3.8472,0.1528,0.5618,1351.81,578.49,32.35
4230,-3.8472,0.1271,0.5685,-429.44,-93.51,-795.84
4240,-3.8470,0.1028,0.5894,273.68,765.87,-1420.78
4250,-3.8469,0.0516,0.6136,1164.31,-562.32,1579.22
4260,-3.8469,-0.0175,0.6335,-1382.57,-1453.06,-1733.22
4270,-3.8469,-0.0767,0.6560,1773.68,1109.31,1844.97
4280,-3.8469,-0.1239,0.6669,-1804.44,-15.81,-1795.65
4290,-3.8469,-0.1570,0.6567,148.68,1374.76,-311.22
4300,-3.8468,-0.1793,0.6411,-85.69,77.76,1782.53
4310,-3.8467,-0.1637,0.6029,1054.93,-1922.24,501.22
4320,-3.8467,-0.1210,0.5585,-945.07,1187.13,-842.59
4330,-3.8466,-0.0939,0.5498,523.68,-500.24,1219.79
4340,-3.8466,-0.0826,0.5573,-7.57,-1609.62,1860.41
4350,-3.8466,-0.0720,0.5653,1429.93,-656.43,1172.91
4360,-3.8466,-0.0256,0.5858,-1210.69,374.82,1016.72
4370,-3.8466,0.0482,0.6149,726.81,-1000.06,438.60
4380,-3.8467,0.1143,0.6395,-1820.07,-1296.81,-1358.22
4390,-3.8468,0.1664,0.6591,-1366.94,1859.56,-217.53
4400,-3.8468,0.1969,0.6661,1304.93,359.68,907.53
4410,-3.8469,0.1971,0.6493,1211.18,1265.99,-904.97
4420,-3.8469,0.1772,0.6107,1242.43,-890.26,1704.35
4430,-3.8470,0.1589,0.5636,-1304.44,-1827.82,-30.09
4440,-3.8470,0.1771,0.5189,351.81,140.93,1954.22
4450,-3.8470,0.2446,0.4869,-1320.07,-1577.82,594.73
4460,-3.8472,0.3188,0.4727,-679.44,-1671.45,-686.58
4470,-3.8472,0.3916,0.4619,820.56,500.61,1219.67
4480,-3.8473,0.4458,0.4674,-1866.94,-874.27,-1842.90
4490,-3.8474,0.4612,0.5079,1070.56,-171.02,719.60
4500,-3.8477,0.4828,0.5822,-960.69,1016.48,1454.10
4510,-3.8479,0.5085,0.6526,1804.93,-1483.46,157.35
4520,-3.8483,0.5137,0.6740,1101.81,-467.77,-1576.90
4530,-3.8484,0.4941,0.6746,1758.06,-1733.40,423.16
4540,-3.8485,0.4313,0.6960,-741.94,-1655.33,720.03
4550,-3.8486,0.3160,0.7133,-788.82,1094.54,1532.59
4560,-3.8486,0.1570,0.6748,461.18,-702.51,1704.47
4570,-3.8486,-0.0016,0.5974,101.81,-1624.69,-420.59
4580,-3.8485,-0.0525,0.5295,-195.07,484.31,1110.53
4590,-3.8484,0.0491,0.4546,1289.31,-203.25,1344.73
4600,-3.8481,0.2407,0.3230,-1710.69,-1812.44,-842.90
4610,-3.8475,0.4550,0.1433,-1179.44,1344.18,1063.11
4620,-3.8468,0.6808,-0.0159,-1757.57,-1655.40,-359.13
4630,-3.8459,0.8690,-0.0834,-851.32,1970.03,1749.94
4640,-3.8456,0.9436,-0.0640,-757.57,1329.77,-922.06
4650,-3.8455,0.9631,-0.0297,789.31,-185.67,-1109.56
4660,-3.8453,1.0034,-0.0110,-710.69,204.96,-1781.31
4670,-3.8452,1.0640,0.0134,445.56,-1404.30,1781.19
4680,-3.8452,1.1312,0.0609,195.56,1720.83,-1656.25
4690,-3.8453,1.1736,0.1229,804.93,-200.93,-1171.81
4700,-3.8455,1.1637,0.1702,-1773.19,-263.37,1515.81
4710,-3.8456,1.1135,0.1886,961.18,1783.51,-1937.19
4720,-3.8456,1.0577,0.1936,-1460.69,142.76,1625.37
4730,-3.8456,1.0142,0.2009,-601.32,783.26,1594.12
4740,-3.8456,0.9894,0.2002,1820.56,1720.70,625.37
4750,-3.8456,0.9979,0.1915,-1351.32,1626.89,1156.62
4760,-3.8455,1.0197,0.1946,-257.57,517.52,297.24
4770,-3.8453,1.0267,0.2009,-1476.32,908.20,1828.49
4780,-3.8451,1.0199,0.1882,-570.07,1720.70,-1202.76
4790,-3.8447,1.0000,0.1553,-1445.07,95.70,-1280.88
4800,-3.8444,0.9719,0.1177,8.06,-123.05,-1202.88
4810,-3.8440,0.9609,0.0852,414.31,-935.61,640.81
4820,-3.8750,0.9626,0.0421,-991.94,-1091.92,1843.87
4830,-3.8746,0.9435,-0.0282,-773.19,1392.46,-1546.81
4840,-3.8741,0.9022,-0.1062,773.68,392.46,-1906.31
4850,-3.8738,0.8462,-0.1433,-507.57,-1592.04,-1453.37
4860,-3.8735,0.7809,-0.1088,320.56,1657.90,77.82
4870,-3.8735,0.7223,-0.0239,-38.82,-1920.41,1577.88
4880,-3.8735,0.6752,0.0667,461.18,938.90,1421.81
4890,-3.8735,0.6183,0.1132,-1570.07,532.53,422.00
4900,-3.8735,0.5409,0.0759,-851.32,-1514.47,1375.18
4910,-3.8734,0.4492,-0.0314,1242.43,1719.79,1906.37
4920,-3.8733,0.3369,-0.1436,1508.06,-14.77,-1140.75
4930,-3.8733,0.2129,-0.2000,-866.94,1625.61,-640.93
4940,-3.8734,0.1157,-0.1763,-741.94,-1593.38,-1187.93
4950,-3.8735,0.0789,-0.0850,-1179.44,1437.68,46.51
4960,-3.8738,0.0889,0.0229,-1898.19,1125.12,1952.94
4970,-3.8739,0.1011,0.0947,-616.94,-1062.38,281.25
4980,-3.8741,0.0859,0.1254,945.56,125.18,1531.43
4990,-3.8744,0.0369,0.1439,-991.94,47.00,1578.37
5000,-3.8746,-0.0242,0.1680,726.81,-1578.06,1968.99
5010,-3.8748,-0.0375,0.1825,914.31,1515.56,-1437.19
5020,-3.8746,0.0264,0.1647,-788.82,-625.12,-1640.32
5030,-3.8744,0.1122,0.1398,-616.94,1078.12,1047.18
5040,-3.8743,0.1603,0.1582,-1632.57,1890.81,1734.62
5050,-3.8741,0.1658,0.2280,523.68,250.31,172.18
5060,-3.8741,0.1591,0.3110,1226.81,1187.81,1281.68
5070,-3.8740,0.1881,0.3362,367.43,-187.19,-1796.33
5080,-3.8737,0.2676,0.2601,86.18,-968.38,-1280.64
5090,-3.8732,0.3451,0.1377,-1741.94,1297.36,-1577.64
5100,-3.8727,0.3639,0.0496,179.93,1625.67,437.74
5110,-3.8724,0.3101,0.0229,-1413.82,-1655.58,-1734.31
5120,-3.8723,0.2135,0.0499,-304.44,-1061.95,1812.50
5130,-3.8723,0.1445,0.0894,-663.82,-1609.01,-656.19
5140,-3.8721,0.1671,0.0914,-1491.94,-562.26,1953.25
5150,-3.8717,0.2833,0.0482,1398.68,-296.57,-1515.50
5160,-3.8712,0.4485,-0.0239,273.68,-1827.58,953.19
5170,-3.8708,0.6072,-0.1089,1414.31,938.35,-1859.44
5180,-3.8706,0.7009,-0.1707,1726.81,-1936.34,-1984.62
5190,-3.8706,0.7107,-0.1660,1726.81,-1842.41,1265.26
5200,-3.8708,0.7085,-0.1099,-1023.19,-1248.66,-1000.37
5210,-3.8710,0.7885,-0.0818,-1304.44,1938.84,1874.76
5220,-3.8710,0.9696,-0.1266,929.93,1532.78,1624.82
5230,-3.8708,1.1904,-0.2228,117.43,-201.23,-1469.06
5240,-3.8706,1.3715,-0.3315,383.06,-513.31,1671.39
5250,-3.8705,1.4703,-0.4110,-445.07,1565.12,1671.20
5260,-3.8706,1.4894,-0.4298,211.18,-606.51,-563.35
5270,-3.8708,1.4513,-0.3914,-1351.32,987.24,-578.98
5280,-3.8711,1.3883,-0.3367,1773.68,1909.06,30.46
5290,-3.8715,1.4532,-0.3768,1711.18,908.94,1264.95
5300,-3.8707,1.8461,-0.6764,-1976.32,-231.57,1030.46
5310,-3.8689,2.1273,-0.9899,304.93,1425.48,1483.03
5320,-3.8682,1.7434,-0.9124,304.93,1301.03,-1876.95
5330,-3.8690,0.9517,-0.5192,-835.69,-777.89,482.54
5340,-3.8701,0.2982,-0.1284,1820.56,1548.71,-1110.41
5350,-3.8708,0.0155,0.0829,-1820.07,-436.95,-562.81
5360,-3.8715,-0.0178,0.1097,1992.43,-1390.62,-1078.00
5370,-3.8715,0.0527,-0.0040,1726.81,-1937.56,1937.68
5380,-3.8711,0.1481,-0.1547,-1241.94,-515.56,-1406.31
5390,-3.8708,0.1912,-0.2626,-1038.82,203.37,-1875.31
5400,-3.8707,0.1780,-0.3180,476.81,-1609.01,1265.08
5410,-3.8708,0.1635,-0.3479,-1210.69,-702.82,-1297.55
5420,-3.8710,0.1968,-0.3689,929.93,-530.94,733.64
5430,-3.8713,0.2820,-0.3519,1195.56,781.62,-47.61
5440,-3.8716,0.3531,-0.3090,101.81,-1046.33,186.77
5450,-3.8718,0.3616,-0.2903,1211.18,453.80,530.64
5460,-3.8719,0.3386,-0.2983,-1710.69,-1155.58,-31.86
5470,-3.8717,0.3287,-0.3036,-648.19,1813.11,124.39
5480,-3.8716,0.3376,-0.2904,-1913.82,1141.24,530.64
5490,-3.8716,0.3485,-0.2670,-773.19,-1171.26,-859.99
5500,-3.8715,0.3555,-0.2446,617.43,1828.80,483.83
5510,-3.8715,0.3677,-0.2271,1508.06,688.17,1608.89
5520,-3.8715,0.3872,-0.2155,-929.44,-1061.83,-1000.49
5530,-3.8713,0.4011,-0.2113,1570.56,422.61,671.45
5540,-3.8713,0.3998,-0.2147,-648.19,953.86,-1906.68
5550,-3.8713,0.3904,-0.2279,-820.07,516.36,-1047.30
5560,-3.8712,0.3855,-0.2505,1976.81,-1171.14,1296.39
5570,-3.8711,0.3883,-0.2611,1351.81,-61.77,-500.55
5580,-3.8708,0.3906,-0.2382,1711.18,-1421.14,-1047.42
5590,-3.8707,0.3831,-0.1931,-1991.94,1516.36,-1875.49
5600,-3.8708,0.3616,-0.1581,1039.31,-718.02,-750.43
5610,-3.8710,0.3292,-0.1516,-1710.69,-233.70,968.38
5620,-3.8712,0.2938,-0.1705,-1851.32,594.36,-937.81
5630,-3.8713,0.2595,-0.1993,1617.43,-1827.58,-812.87
5640,-3.8713,0.2266,-0.2229,1226.81,-1515.14,921.45
5650,-3.8715,0.2021,-0.2351,1008.06,-530.82,-359.86
5660,-3.8715,0.1794,-0.2405,1883.06,1906.62,-1625.49
5670,-3.8716,0.1635,-0.2601,-1023.19,1219.06,-16.11
5680,-3.8716,0.1907,-0.3081,929.93,-1296.57,1390.08
5690,-3.8716,0.2582,-0.3787,414.31,562.87,421.26
5700,-3.8716,0.3013,-0.4695,1054.93,-468.26,-1563.29
5710,-3.8715,0.3516,-0.5365,-1429.44,-93.20,-516.60
5720,-3.8712,0.5134,-0.5421,1008.06,-671.20,-126.10
5730,-3.8708,0.6777,-0.5830,1726.81,-1389.65,577.03
5740,-3.8705,0.7216,-0.7467,-1241.94,1376.28,-469.91
5750,-3.8695,0.7018,-0.9487,367.43,423.28,764.16
5760,-3.8687,0.6720,-1.0474,1836.18,-1436.16,982.48
5770,-3.8683,0.6613,-0.9882,-1976.32,1938.78,1622.92
5780,-3.8683,0.6805,-0.8270,648.68,1516.91,1123.05
5790,-3.8685,0.7170,-0.6595,-882.57,-1858.09,1560.85
5800,-3.8688,0.7540,-0.5303,-210.69,-420.53,248.66
5810,-3.8690,0.7926,-0.4233,523.68,126.46,-1672.91
5820,-3.8690,0.8523,-0.3112,1461.18,1814.03,811.65
5830,-3.8690,0.9351,-0.1931,1101.81,173.52,858.76
5840,-3.8690,1.0212,-0.0986,-304.44,-716.98,1530.82
5850,-3.8689,1.0891,-0.0466,-1273.19,-623.05,1906.01
5860,-3.8685,1.1257,-0.0293,-585.69,-1966.67,687.38
5870,-3.8680,1.1273,-0.0398,101.81,252.20,-1656.31
5880,-3.8674,1.0990,-0.0632,304.93,-1091.55,1671.75
5890,-3.8671,1.0630,-0.0647,679.93,-91.61,1796.69
5900,-3.8671,1.0671,-0.0227,70.56,-279.17,-250.18
5910,-3.8672,1.1395,0.0411,601.81,1095.83,1343.69
5920,-3.8676,1.2380,0.0903,1867.43,1267.82,-1796.81
5930,-3.8679,1.3234,0.1219,-1523.19,-435.12,1531.37
5940,-3.8684,1.3943,0.1460,1398.68,-388.06,-1140.44
5950,-3.8689,1.4473,0.1475,-1523.19,-1309.81,375.24
5960,-3.8696,1.4664,0.1113,1258.06,-1122.19,1890.87
5970,-3.8705,1.4510,0.0682,-288.82,-1747.19,-249.82
5980,-3.8713,1.4240,0.0575,1742.43,737.18,1953.25
5990,-3.8723,1.3804,0.0763,-1726.32,-637.88,875.06
6000,-3.8734,1.2947,0.1152,695.56,1768.31,984.50
6010,-3.8745,1.2010,0.1801,1726.81,-1247.50,828.31
6020,-3.8442,1.1571,0.2560,1742.43,-950.81,578.43
6030,-3.8451,1.1322,0.3044,117.43,767.88,-1983.89
6040,-3.8457,1.0599,0.3085,929.93,-1029.05,1469.30
6050,-3.8462,0.9349,0.2744,-320.07,-513.61,-327.58
6060,-3.8463,0.7843,0.2034,-320.07,-873.23,469.24
6070,-3.8464,0.6293,0.1022,398.68,-1967.22,-1827.76
6080,-3.8464,0.4999,-0.0039,554.93,1079.35,-312.32
6090,-3.8462,0.4004,-0.0861,-7.57,-499.08,78.06
6100,-3.8461,0.2974,-0.1392,-741.94,985.11,-1906.43
6110,-3.8458,0.1927,-0.1746,-1929.44,-1811.95,109.07
6120,-3.8457,0.1055,-0.2047,679.93,1656.62,437.13
6130,-3.8455,-0.3668,-0.2692,-1070.07,77.64,1796.33
6140,-3.8455,-0.5219,-0.2502,1054.93,1561.77,-0.55
6150,-3.8452,-0.6802,-0.2611,1211.18,-16.66,-109.92
6160,-3.8447,-0.8149,-0.3086,945.56,-1407.59,1155.70
6170,-3.8444,-0.9236,-0.3440,-304.44,513.98,-1781.86
6180,-3.8441,-1.0294,-0.3236,1789.31,-17.46,-391.36
6190,-3.8439,-1.1356,-0.2544,242.43,-1408.26,1702.45
6200,-3.8750,-1.2268,-0.1976,-1351.32,-549.13,-172.42
6210,-3.8745,-1.2863,-0.1969,-1023.19,-1283.69,233.95
6220,-3.8743,-1.3240,-0.1575,-632.57,-1190.06,1155.82
6230,-3.8745,-1.4349,-0.0287,-1460.69,-143.25,-1203.49
6240,-3.8745,-1.6700,0.0085,336.18,340.94,-1890.69
6250,-3.8738,-1.9092,-0.1616,-1757.57,1106.08,-734.38
6260,-3.8726,-2.0206,-0.3519,-366.94,-675.66,1046.51
6270,-3.8718,-1.9773,-0.3101,1367.43,-1035.22,61.77
6280,-3.8721,-1.8317,-0.0298,-1085.69,324.22,-1219.36
6290,-3.8728,-1.6577,0.2760,1554.93,199.52,-62.56
6300,-3.8734,-1.4686,0.4534,-179.44,-659.55,641.11
6310,-3.8738,-1.2704,0.4888,23.68,-1955.99,969.60
6320,-3.8738,-1.0679,0.4500,1398.68,-1424.38,1079.04
6330,-3.8737,-0.8441,0.4415,-679.44,1607.24,578.98
6340,-3.8737,-0.6184,0.4769,-38.82,529.54,-1467.90
6350,-3.8737,-0.4369,0.4844,851.81,1061.28,-374.08
6360,-3.8735,-0.2880,0.4283,86.18,-1985.23,-1452.21
6370,-3.8734,-0.1533,0.3453,-851.32,-1156.86,-780.46
6380,-3.8732,-0.0581,0.2672,383.06,218.44,391.30
6390,-3.8730,0.0258,0.1990,570.56,-1781.37,703.61
6400,-3.8730,0.1573,0.1663,-695.07,1468.75,-1749.63
6410,-3.8732,0.3442,0.1792,148.68,1281.56,-1921.57
6420,-3.8735,0.5448,0.2126,70.56,-1061.83,-405.94
6430,-3.8738,0.6952,0.1974,1742.43,-780.21,-1812.13
6440,-3.8737,0.7545,0.1204,992.43,1266.97,1687.87
6450,-3.8732,0.7152,0.0724,586.18,-592.29,-1859.19
6460,-3.8727,0.5486,0.0852,-445.07,1266.97,-218.63
6470,-3.8723,0.2787,0.1370,-1773.19,-1092.71,1609.50
6480,-3.8724,-0.0243,0.2241,-320.07,1531.74,-296.63
6490,-3.8729,-0.3467,0.3396,898.68,703.06,-46.45
6500,-3.8737,-0.6459,0.4664,-366.94,-516.36,1922.49
6510,-3.8744,-0.9015,0.5365,1336.18,-282.53,-1905.40
6520,-3.8748,-1.1150,0.5625,617.43,685.73,532.29
6530,-3.8745,-1.4218,0.3475,1289.31,13.43,1782.35
6540,-3.8729,-1.7186,0.0563,-1976.32,497.19,797.55
6550,-3.8716,-1.8021,0.1573,23.68,-784.61,-1234.31
6560,-3.8716,-1.8599,0.4102,1336.18,152.71,-1859.07
6570,-3.8722,-2.0122,0.5161,1945.56,511.96,-421.08
6580,-3.8724,-2.1882,0.5117,-1554.44,-1925.84,1125.98
6590,-3.8724,-2.2059,0.5311,-85.69,1511.29,813.48
6600,-3.8726,-2.0217,0.5883,1648.68,-4.33,-1374.02
6610,-3.8727,-1.7606,0.5815,1226.81,-691.47,-1748.90
6620,-3.8726,-1.4683,0.5132,-1351.32,-1550.35,32.35
6630,-3.8724,-1.1448,0.4501,70.56,1700.26,-92.77
6640,-3.8722,-0.8287,0.4163,1476.81,1622.74,-983.52
6650,-3.8721,-0.6166,0.3882,1929.93,1295.23,1219.54
6660,-3.8721,-0.5076,0.3414,1086.18,1701.90,391.36
6670,-3.8721,-0.4387,0.2772,-960.69,-282.29,844.36
6680,-3.8722,-0.4318,0.2662,-148.19,-500.92,1922.36
6690,-3.8724,-0.4662,0.3245,742.43,-1907.10,328.61
6700,-3.8730,-0.4838,0.4073,336.18,1545.96,-93.14
6710,-3.8738,-0.4581,0.5121,-1913.82,155.27,-1530.46
6720,-3.8746,-0.3861,0.5604,1367.43,1561.58,1532.23
6730,-3.8439,-0.2440,0.4459,-1413.82,-250.79,813.54
6740,-3.8749,0.0144,0.1880,773.68,1093.26,-1561.65
6750,-3.8738,0.3595,-0.0385,1851.81,62.50,297.24
6760,-3.8728,0.6592,-0.0640,-1976.32,-921.20,859.25
6770,-3.8726,0.7914,0.0762,383.06,-186.22,1999.82
6780,-3.8727,0.7401,0.1943,1304.93,1751.53,1640.75
6790,-3.8727,0.5437,0.2109,-1257.57,876.40,1859.74
6800,-3.8726,0.2573,0.2375,1601.81,-998.96,-1952.76
6810,-3.8726,-0.0552,0.3077,945.56,-1593.26,594.18
6820,-3.8727,-0.3485,0.3794,945.56,-593.87,813.05
6830,-3.8730,-0.6248,0.5015,-601.32,577.39,-1858.64
6840,-3.8739,-0.8701,0.6737,39.31,201.90,-1670.90
6850,-3.8744,-1.0854,0.6846,633.06,-1751.71,-951.84
6860,-3.8739,-1.3285,0.3851,1070.56,-361.51,-1795.59
6870,-3.8727,-1.4257,0.1869,1961.18,1309.88,-655.52
6880,-3.8717,-1.3167,0.3893,1523.68,-65.31,-1921.57
6890,-3.8717,-1.2755,0.5758,-523.19,1841.13,-1639.89
6900,-3.8715,-1.3920,0.4927,742.43,1716.25,876.10
6910,-3.8710,-1.5079,0.4135,1836.18,-924.62,63.42
6920,-3.8708,-1.5031,0.5237,-1007.57,934.51,-858.58
6930,-3.8712,-1.3989,0.6919,-382.57,-956.12,-530.27
6940,-3.8717,-1.2640,0.7205,945.56,575.38,1251.34
6950,-3.8718,-1.1189,0.5999,-1788.82,231.87,-1607.97
6960,-3.8715,-0.9431,0.4889,789.31,794.68,1126.16
6970,-3.8712,-0.7596,0.4696,-710.69,-1408.14,-1467.83
6980,-3.8711,-0.6251,0.5005,-1226.32,123.47,94.67
6990,-3.8713,-0.5493,0.5634,-7.57,76.84,-1405.27
7000,-3.8717,-0.5093,0.6656,1695.56,123.90,-1889.53
7010,-3.8722,-0.4973,0.7375,-1179.44,1217.71,-904.97
7020,-3.8724,-0.5074,0.6981,351.81,-1579.10,1095.15
7030,-3.8726,-0.5092,0.6162,-945.07,1373.96,735.72
7040,-3.8727,-0.4910,0.5693,-1163.82,-1110.41,-1108.22
7050,-3.8727,-0.4414,0.5770,1164.31,889.65,391.72
7060,-3.8732,-0.3708,0.7240,-491.94,1874.08,-795.78
7070,-3.8740,-0.3347,0.9427,539.31,686.77,423.28
7080,-3.8749,-0.3179,0.9414,1164.31,686.83,1564.33
7090,-3.8746,-0.2698,0.6185,-679.44,514.95,-435.67
7100,-3.8733,-0.2108,0.3036,1476.81,-813.05,1641.78
7110,-3.8723,-0.2483,0.2693,1023.68,-1125.43,-327.58
7120,-3.8721,-0.4688,0.3926,226.81,-1516.11,578.61
7130,-3.8727,-0.8284,0.4828,8.06,-1735.29,406.98
7140,-3.8734,-1.1572,0.4401,1976.81,1810.85,1235.29
7150,-3.8738,-1.3350,0.3357,-116.94,341.43,-936.65
7160,-3.8740,-1.4080,0.3418,1133.06,-1018.25,344.36
7170,-3.8744,-1.4006,0.3959,-210.69,-237.18,94.36
7180,-3.8745,-1.2911,0.3807,726.81,-1315.25,391.36
7190,-3.8744,-1.1146,0.3134,-1257.57,747.44,1344.48
7200,-3.8739,-0.9148,0.1970,1336.18,122.80,703.74
7210,-3.8733,-0.7317,0.0675,-1085.69,1232.54,-1218.38
7220,-3.8727,-0.6213,-0.0269,-1648.19,654.79,-1906.13
7230,-3.8723,-0.5997,-0.1025,476.81,576.90,1468.69
7240,-3.8724,-0.6494,-0.1492,-757.57,-1110.60,1093.51
7250,-3.8729,-0.7017,-0.1681,883.06,920.59,-344.06
7260,-3.8733,-0.6919,-0.1818,-1804.44,-1501.40,-1672.24
7270,-3.8735,-0.6210,-0.2628,-554.44,748.60,-625.37
7280,-3.8729,-0.5115,-0.3877,523.68,-1626.22,-906.80
7290,-3.8723,-0.4698,-0.3467,-1460.69,-1610.41,-578.92
7300,-3.8724,-0.4989,-0.2361,-132.57,-360.35,-828.86
7310,-3.8724,-0.4655,-0.2921,148.68,1795.90,1765.14
7320,-3.8721,-0.3818,-0.4017,429.93,-1375.92,374.39
7330,-3.8718,-0.3932,-0.3805,-866.94,592.96,233.58
7340,-3.8722,-0.5162,-0.2753,1679.93,-688.29,-703.92
7350,-3.8727,-0.5876,-0.2526,1929.93,780.21,-1875.55
7360,-3.8728,-0.5399,-0.3328,789.31,-313.66,1124.45
7370,-3.8727,-0.4777,-0.4133,-1101.32,1420.78,-1922.55
7380,-3.8726,-0.4889,-0.4602,-1132.57,-891.60,-328.98
7390,-3.8727,-0.6102,-0.4567,1429.93,1108.40,-1235.29
7400,-3.8732,-0.6956,-0.4921,1898.68,1561.28,-500.92
7410,-3.8732,-0.5657,-0.6255,-1023.19,1029.85,-641.60
7420,-3.8728,-0.3810,-0.6912,-398.19,-48.03,14.34
7430,-3.8729,-0.3323,-0.6504,-757.57,-453.92,-267.03
7440,-3.8730,-0.3291,-0.6455,1476.81,764.95,-126.28
7450,-3.8729,-0.2429,-0.7008,1883.06,1389.95,-1938.78
7460,-3.8729,-0.1523,-0.7269,914.31,-1687.99,-313.90
7470,-3.8732,-0.1213,-0.7190,508.06,-1031.56,-1017.09
7480,-3.8734,-0.0968,-0.7219,476.81,-15.87,-1079.59
7490,-3.8735,-0.0991,-0.7275,-382.57,-390.87,-188.96
7500,-3.8737,-0.1418,-0.7137,-679.44,-1109.62,-1485.84
7510,-3.8738,-0.1305,-0.7047,1851.81,655.94,-1048.28
7520,-3.8737,-0.0548,-0.7118,-695.07,1812.19,467.35
7530,-3.8737,0.0825,-0.7103,992.43,906.13,389.22
7540,-3.8739,0.3232,-0.7100,-1429.44,1078.25,201.72
7550,-3.8744,0.6855,-0.7708,1383.06,1125.61,-48.28
7560,-3.8740,1.1198,-0.9381,-241.94,1345.03,295.35
7570,-3.8734,1.3196,-1.1150,-663.82,-75.99,13.73
7580,-3.8734,1.1998,-1.2164,914.31,1283.81,-252.20
7590,-3.8733,1.0328,-1.2533,1586.18,299.19,997.62
7600,-3.8733,0.9104,-1.2361,211.18,-419.86,1091.25
7610,-3.8734,0.8369,-1.2158,539.31,1783.02,-658.69
7620,-3.8733,0.7977,-1.1804,-866.94,376.59,-1705.51
7630,-3.8734,0.7319,-1.0411,-1882.57,907.78,-1267.94
7640,-3.8737,0.6942,-0.8339,1695.56,-1264.22,1060.42
7650,-3.8739,0.7689,-0.6582,867.43,1266.97,998.35
7660,-3.8738,0.9127,-0.5905,-1570.07,-248.54,358.03
7670,-3.8733,0.9628,-0.5995,836.18,423.65,-1391.78
7680,-3.8727,0.8441,-0.5566,-757.57,-732.54,1030.03
7690,-3.8726,0.5984,-0.4414,54.93,751.65,1858.28
7700,-3.8727,0.3503,-0.3374,601.81,-498.84,-1735.29
7710,-3.8727,0.2184,-0.2968,851.81,813.17,-391.30
7720,-3.8722,0.2144,-0.2416,-38.82,-1984.01,218.14
7730,-3.8719,0.2528,-0.1342,-554.44,1078.49,-609.86
7740,-3.8718,0.2632,-0.0696,367.43,-1171.39,-1484.68
7750,-3.8717,0.2657,-0.0598,1695.56,-905.76,1468.57
7760,-3.8716,0.2845,-0.0564,-1976.32,344.24,1671.75
7770,-3.8713,0.3237,-0.0463,429.93,781.80,1796.75
7780,-3.8711,0.3622,-0.0206,1445.56,-1921.26,-953.25
7790,-3.8708,0.3898,0.0117,-1632.57,1360.05,46.81
7800,-3.8710,0.3911,0.0175,1898.68,1500.73,-109.38
7810,-3.8710,0.3560,-0.0387,-1929.44,-1764.89,31.25
7820,-3.8712,0.3168,-0.1639,1570.56,-952.45,-1281.37
7830,-3.8713,0.3190,-0.3361,554.93,-983.76,155.88
7840,-3.8717,0.3685,-0.4977,836.18,984.99,-781.92
7850,-3.8721,0.4292,-0.6338,-820.07,297.55,-860.35
7860,-3.8723,0.5184,-0.7069,-1054.44,-1124.21,1576.84
7870,-3.8727,0.6536,-0.6401,-1632.57,1516.60,-1345.15
7880,-3.8730,0.7635,-0.5114,-335.69,-1936.28,451.84
7890,-3.8734,0.8085,-0.4369,1742.43,-1451.66,-1719.79
7900,-3.8735,0.8115,-0.4421,-507.57,79.65,-0.85
7910,-3.8734,0.7640,-0.5204,-116.94,-592.22,-1860.29
7920,-3.8732,0.6975,-0.6440,1804.93,1392.09,452.09
7930,-3.8729,0.6648,-0.7721,1289.31,1563.84,811.22
7940,-3.8729,0.6591,-0.8669,1101.81,1173.16,-126.53
7950,-3.8729,0.6597,-0.9264,367.43,1032.53,-954.83
7960,-3.8729,0.6433,-0.9684,445.56,1423.16,1341.92
7970,-3.8729,0.5935,-0.9932,-1648.19,48.10,-1501.89
7980,-3.8727,0.5243,-0.9918,-23.19,876.10,779.30
7990,-3.8724,0.4729,-0.9696,-882.57,1047.85,-1736.33
8000,-3.8722,0.4545,-0.9487,539.31,-108.46,44.92
8010,-3.8723,0.4279,-0.9010,-1820.07,-1436.65,1998.11
8020,-3.8727,0.3784,-0.7797,-1226.32,672.67,-1595.52
8030,-3.8732,0.3730,-0.6631,445.56,203.86,-642.15
8040,-3.8734,0.4442,-0.5452,-241.94,-874.33,592.41
8050,-3.8739,0.5376,-0.3695,867.43,-1780.40,-1047.97
8060,-3.8740,0.5948,-0.3630,820.56,704.16,-1516.36
8070,-3.8735,0.6259,-0.4636,148.68,1532.41,733.64
8080,-3.8733,0.6768,-0.3988,117.43,657.47,-891.54
8090,-3.8734,0.7502,-0.1373,-1366.94,954.41,-266.42
8100,-3.8746,0.6992,0.1211,39.31,-1576.66,-1515.93
8110,-3.8440,0.6438,-0.0289,1508.06,-498.66,1609.56
8120,-3.8739,0.7443,-0.3269,-1585.69,298.10,1703.06
8130,-3.8727,0.8378,-0.3317,-726.32,-1842.35,-1813.17
8140,-3.8722,0.9420,-0.2218,-757.57,1548.46,-1250.67
8150,-3.8722,1.0570,-0.1639,586.18,-388.79,1812.01
8160,-3.8724,1.1168,-0.1791,-695.07,-982.36,-1328.49
8170,-3.8724,1.1644,-0.2600,-1038.82,1080.26,-1234.74
8180,-3.8723,1.2111,-0.3253,1054.93,-1278.99,-1234.92
8190,-3.8722,1.2194,-0.3348,-976.32,-1638.31,124.33
8200,-3.8721,1.1196,-0.3571,86.18,1143.01,343.08
8210,-3.8716,0.8918,-0.4662,-679.44,-1700.99,-1938.23
8220,-3.8708,0.6443,-0.6105,-1835.69,329.83,999.08
8230,-3.8705,0.5471,-0.6848,-1523.19,1860.60,-1657.47
8240,-3.8705,0.5988,-0.6686,-1960.69,344.79,-1798.22
8250,-3.8707,0.6448,-0.6346,648.68,-1576.97,498.66
8260,-3.8710,0.6592,-0.6366,-1460.69,-1233.15,217.47
8270,-3.8711,0.6868,-0.6199,383.06,-1483.09,-938.78
8280,-3.8711,0.6941,-0.5170,-85.69,657.53,-532.47
8290,-3.8711,0.6277,-0.3682,851.81,1829.47,1608.34
8300,-3.8711,0.4900,-0.2574,351.81,876.22,-891.36
8310,-3.8708,0.2463,-0.1829,-1273.19,-952.21,-469.30
8320,-3.8705,-0.1063,-0.1196,-460.69,594.18,1187.13
8330,-3.8702,-0.4333,-0.0648,-1601.32,702.88,1796.63
8340,-3.8701,-0.7004,0.0356,539.31,-282.10,1859.19
8350,-3.8705,-0.9622,0.1761,-1648.19,576.72,1156.31
8360,-3.8712,-1.1375,0.2604,851.81,-1439.39,1672.18
8370,-3.8717,-1.1384,0.2695,-1585.69,1341.49,812.99
8380,-3.8719,-1.0071,0.2520,-1710.69,-1486.63,297.36
8390,-3.8722,-0.7987,0.2246,-898.19,263.61,484.86
8400,-3.8726,-0.5735,0.1118,1773.68,764.04,-687.07
8410,-3.8726,-0.3820,-0.0955,-1398.19,-1673.03,781.43
8420,-3.8724,-0.2068,-0.2882,-882.57,-203.92,-1531.49
8430,-3.8723,-0.0353,-0.4352,1539.31,-875.43,-1594.36
8440,-3.8723,0.1063,-0.5037,-507.57,312.38,46.02
8450,-3.8727,0.2253,-0.4700,1617.43,-468.57,-1235.41
8460,-3.8732,0.3470,-0.3898,851.81,-155.82,-266.60
8470,-3.8738,0.4202,-0.2615,429.93,-1889.95,733.58
8480,-3.8748,0.4298,-0.2029,1789.31,-1467.96,1311.95
8490,-3.8440,0.5048,-0.3434,-976.32,-1967.96,-1344.18
8500,-3.8749,0.7217,-0.6172,617.43,47.85,-1391.30
8510,-3.8734,1.0131,-0.9076,383.06,1001.40,701.90
8520,-3.8716,1.2450,-0.9595,1679.93,-169.92,1841.92
8530,-3.8710,1.3284,-0.7039,-632.57,1189.88,-1095.64
8540,-3.8717,1.3105,-0.4521,-1960.69,1908.81,-1485.78
8550,-3.8726,1.2462,-0.3306,-241.94,-1872.50,655.33
8560,-3.8730,1.1086,-0.2004,-476.32,1689.88,-1094.42
8570,-3.8730,0.8976,-0.0887,1914.31,-1654.11,1374.57
8580,-3.8729,0.7610,0.0734,-1101.32,642.33,-1578.31
8590,-3.8732,0.6904,0.3043,1414.31,1392.09,-1921.75
8600,-3.8737,0.6193,0.5100,383.06,-1045.53,-1608.83
8610,-3.8741,0.4492,0.4991,-726.32,1282.41,-1967.77
8620,-3.8735,0.2999,0.0902,1508.06,-108.52,1047.79
8630,-3.8716,0.4550,-0.0369,-1601.32,-452.58,31.37
8640,-3.8712,0.6146,0.3096,-1757.57,-717.90,1687.38
8650,-3.8718,0.5585,0.4236,-1320.07,-373.84,-1124.45
8660,-3.8718,0.3545,0.2662,-507.57,-1780.21,1922.67
8670,-3.8715,0.1262,0.0084,1383.06,-1921.20,-577.64
8680,-3.8702,0.0977,-0.2784,164.31,1078.37,-406.25
8690,-3.8691,0.1963,-0.4757,508.06,359.56,-703.67
8700,-3.8684,0.2529,-0.6169,1133.06,-890.26,1045.90
8710,-3.8678,0.2449,-0.6888,383.06,1031.74,-1641.85
8720,-3.8674,0.1660,-0.6405,-648.19,-171.45,1107.97
8730,-3.8679,0.0396,-0.4261,1258.06,-1984.07,-360.66
8740,-3.8690,-0.0767,-0.1163,1070.56,1453.19,-172.73
8750,-3.8701,-0.1516,0.0728,-1804.44,1124.82,-703.37
8760,-3.8706,-0.1680,0.1023,601.81,1327.82,718.87
8770,-3.8708,-0.1553,0.1277,-1491.94,1109.01,234.56
8780,-3.8713,-0.1919,0.1924,133.06,359.07,-1984.13
8790,-3.8717,-0.2162,0.2037,-554.44,640.20,94.12
8800,-3.8719,-0.1077,0.1642,336.18,-1906.68,-62.13
8810,-3.8719,0.0310,0.1777,-1773.19,1031.01,-1265.32
8820,-3.8722,0.1096,0.2537,-23.19,-1250.00,1906.56
8830,-3.8727,0.2084,0.3363,-1960.69,468.93,-1874.51
8840,-3.8732,0.2419,0.3357,-1320.07,-952.76,-1686.89
8850,-3.8733,0.1667,0.2526,-1023.19,-1030.82,891.24
8860,-3.8730,0.0403,0.1466,1351.81,328.43,1547.36
8870,-3.8727,-0.0765,0.0986,1164.31,-1234.31,1375.24
8880,-3.8727,-0.0785,0.1794,-1788.82,640.44,-406.07
8890,-3.8730,-0.0851,0.2490,1961.18,-1015.81,-1421.57
8900,-3.8735,-0.2289,0.1797,1117.43,-109.56,-1046.45
8910,-3.8735,-0.4392,0.0095,-1288.82,-984.86,1859.68
8920,-3.8732,-0.5836,-0.0925,-210.69,1233.46,859.38
8930,-3.8730,-0.5958,-0.0283,1304.93,170.72,-1203.31
8940,-3.8733,-0.5980,0.0203,-257.57,389.40,-1359.44
8950,-3.8734,-0.6464,-0.0439,-538.82,-1391.85,-1593.75
8960,-3.8733,-0.7483,-0.1440,1273.68,-1610.66,-15.75
8970,-3.8729,-0.8787,-0.2457,226.81,1576.66,1093.44
8980,-3.8727,-0.9642,-0.3927,-460.69,560.73,124.51
8990,-3.8723,-1.0597,-0.6453,586.18,1748.11,-1922.67
9000,-3.8712,-1.2126,-0.9310,367.43,1419.80,-1766.91
9010,-3.8700,-1.3793,-1.0588,789.31,841.37,45.04
9020,-3.8698,-1.4331,-0.9177,-538.82,481.63,-1158.33
9030,-3.8706,-1.2977,-0.6473,570.56,-1455.93,-189.33
9040,-3.8718,-1.0374,-0.5039,1898.68,1153.69,1279.97
9050,-3.8726,-0.7428,-0.5210,-773.19,-486.45,655.21
9060,-3.8728,-0.4974,-0.5432,929.93,1326.66,-922.91
9070,-3.8728,-0.4087,-0.5342,336.18,-1516.60,-1907.35
9080,-3.8728,-0.4615,-0.5123,-304.44,-360.23,-1344.85
9090,-3.8728,-0.5236,-0.4451,929.93,-1563.42,-1797.91
9100,-3.8729,-0.5725,-0.4038,992.43,-954.16,1905.33
9110,-3.8728,-0.6326,-0.4874,-1273.19,326.97,233.58
9120,-3.8724,-0.6426,-0.6183,-960.69,1623.72,1936.52
9130,-3.8721,-0.5961,-0.6893,1758.06,873.72,545.65
9140,-3.8722,-0.5504,-0.7351,-288.82,-219.97,-1860.78
9150,-3.8724,-0.4939,-0.7941,1554.93,1920.78,1857.91
9160,-3.8726,-0.3782,-0.8254,789.31,-1625.98,935.91
9170,-3.8727,-0.2356,-0.8015,-398.19,-1641.42,-626.65
9180,-3.8726,-0.1600,-0.7378,1851.81,1421.39,-939.09
9190,-3.8724,-0.0465,-0.5920,-476.32,1577.76,1920.41
9200,-3.8728,0.2345,-0.3923,-1945.07,234.25,-1938.66
9210,-3.8733,0.3859,-0.3223,-1976.32,1781.68,1233.58
9220,-3.8733,0.1229,-0.4980,1398.68,-1249.27,-1203.80
9230,-3.8727,-0.3232,-0.8364,-257.57,250.18,-625.98
9240,-3.8719,-0.5763,-1.1224,-1366.94,952.45,935.85
9250,-3.8716,-0.5668,-1.2474,-1757.57,342.59,-1970.95
9260,-3.8723,-0.3278,-0.9437,-1195.07,-1985.05,-142.82
9270,-3.8727,-0.3518,-0.8184,-1945.07,-781.92,248.11
9280,-3.8730,-0.1630,-0.7626,-1023.19,-735.11,-923.52
9290,-3.8734,0.0205,-0.6287,-851.32,-1594.12,1076.60
9300,-3.8734,-0.2598,-0.5699,-1366.94,-468.75,-1251.28
9310,-3.8730,-0.5667,-0.7192,-1241.94,-938.05,-1407.41
9320,-3.8728,-0.5679,-0.8757,-523.19,-48.03,389.16
9330,-3.8726,-0.5162,-0.9567,-679.44,-79.28,-1892.40
9340,-3.8724,-0.5406,-0.9362,1929.93,1561.46,-1658.14
9350,-3.8726,-0.6489,-0.8809,-1195.07,186.40,-1876.83
9360,-3.8728,-0.6475,-0.8851,945.56,-735.66,-673.65
9370,-3.8726,-0.3966,-0.9849,1133.06,-1282.53,-1095.52
9380,-3.8718,-0.0258,-1.0952,1242.43,1952.33,-1220.70
9390,-3.8712,0.1997,-1.0632,711.18,-171.94,1122.80
9400,-3.8713,0.1580,-0.9009,1570.56,-93.38,-1720.89
9410,-3.8718,-0.0281,-0.7599,226.81,687.81,-1079.90
9420,-3.8722,-0.1912,-0.7301,414.31,-1250.06,-392.15
9430,-3.8722,-0.2911,-0.7880,-460.69,-1437.93,-1923.34
9440,-3.8721,-0.3608,-0.8318,-1257.57,-844.36,873.41
9450,-3.8721,-0.4274,-0.7794,1820.56,1546.14,592.10
9460,-3.8722,-0.5498,-0.6804,1304.93,249.15,123.47
9470,-3.8721,-0.7863,-0.6290,1633.06,920.78,1576.78
9480,-3.8721,-0.8837,-0.5786,-632.57,-501.59,1342.47
9490,-3.8723,-0.7072,-0.5044,-1101.32,1951.35,733.22
9500,-3.8723,-0.5789,-0.4868,1492.43,-548.28,-1016.66
9510,-3.8722,-0.6653,-0.4861,1914.31,1701.97,1749.02
9520,-3.8722,-0.7841,-0.4491,-1148.19,1795.53,-1750.98
9530,-3.8722,-0.8480,-0.4246,-351.32,-1470.34,-1657.17
9540,-3.8722,-0.8993,-0.4451,-538.82,1670.17,905.40
9550,-3.8717,-0.6373,-0.5802,1008.06,-298.34,936.34
9560,-3.8716,-0.5271,-0.5317,-1570.07,1748.72,1123.84
9570,-3.8716,-0.3208,-0.4360,539.31,-47.91,-329.22
9580,-3.8717,-0.0975,-0.3479,-1054.44,202.45,-1360.23
9590,-3.8721,0.0607,-0.3141,-476.32,-515.87,-1422.61
9600,-3.8724,0.1346,-0.3396,-226.32,-203.06,-485.05
9610,-3.8727,0.0874,-0.3656,1242.43,531.49,-1578.80
9620,-3.8729,-0.0300,-0.3411,-804.44,1203.25,-656.98
9630,-3.8729,-0.0967,-0.2805,164.31,359.31,436.83
9640,-3.8729,-0.0319,-0.2148,-366.94,109.13,952.58
9650,-3.8730,0.1256,-0.1407,-70.07,515.50,1858.95
9660,-3.8734,0.2686,-0.0416,86.18,1984.62,1890.32
9670,-3.8739,0.3527,0.0367,-1616.94,-1327.64,1406.13
9680,-3.8743,0.4160,0.0332,1148.68,703.80,-953.06
9690,-3.8743,0.4540,-0.0682,1258.06,250.79,-62.44
9700,-3.8739,0.4055,-0.2299,-1882.57,-733.52,-1031.43
9710,-3.8734,0.2565,-0.3484,-85.69,-1421.14,-953.61
9720,-3.8730,0.0463,-0.3756,836.18,-593.26,999.27
9730,-3.8729,-0.2206,-0.4623,1929.93,-78.06,-1422.67
9740,-3.8724,-0.5454,-0.7274,-226.32,843.26,1030.33
9750,-3.8717,-0.8066,-0.9928,-1804.44,-1094.85,279.79
9760,-3.8713,-1.0308,-1.1354,758.06,935.91,-158.20
9770,-3.8711,-1.3311,-1.1605,70.56,-1314.51,-174.13
9780,-3.8711,-1.4985,-0.9829,1633.06,-533.87,1482.06
9790,-3.8718,-1.4781,-0.7213,195.56,-1799.80,-580.08
9800,-3.8724,-1.5166,-0.5990,-1195.07,-315.43,-579.59
9810,-3.8724,-1.6270,-0.5759,1883.06,-659.24,1139.40
9820,-3.8723,-1.7041,-0.5010,-241.94,-1706.36,-938.66
9830,-3.8722,-1.7206,-0.3622,1883.06,-112.73,592.71
9840,-3.8724,-1.6896,-0.2787,-226.32,1652.83,-938.23
9850,-3.8724,-1.6372,-0.3347,-257.57,340.39,311.95
9860,-3.8722,-1.5165,-0.4526,-1554.44,1168.64,905.58
9870,-3.8718,-1.3773,-0.5258,1898.68,-1924.87,920.96
9880,-3.8717,-1.3086,-0.5159,-288.82,716.00,905.21
9890,-3.8719,-1.1979,-0.4683,508.06,1981.81,-735.41
9900,-3.8719,-0.9606,-0.4983,-1320.07,75.74,-1454.04
9910,-3.8715,-0.7012,-0.6058,1054.93,232.48,327.15
9920,-3.8710,-0.5254,-0.6541,-1741.94,-1532.65,139.40
9930,-3.8710,-0.4321,-0.5691,758.06,295.84,123.72
9940,-3.8715,-0.3604,-0.4260,695.56,-828.98,1280.09
9950,-3.8721,-0.2970,-0.3066,1883.06,1483.64,-610.23
9960,-3.8724,-0.2406,-0.2537,1992.43,765.01,577.51
9970,-3.8727,-0.2056,-0.2434,1211.18,-453.61,921.33
9980,-3.8728,-0.2068,-0.1803,1695.56,858.95,468.26
9990,-3.8732,-0.2198,-0.0171,1539.31,937.07,-1625.37
10000,-3.8737,-0.2157,0.1761,-132.57,1827.64,1562.44
10010,-3.8741,-0.0988,0.2402,398.68,-1437.93,-1796.57
10020,-3.8743,0.1282,0.1702,-632.57,-1234.62,1984.80
10030,-3.8741,0.3735,0.0764,414.31,1781.49,625.31
10040,-3.8740,0.6189,-0.0371,-179.44,1781.92,1172.00
10050,-3.8738,0.8473,-0.1467,-773.19,-748.84,-1078.25
