timestamp_ms,ax,ay,az,gx,gy,gz
0,-3.8707,0.7241,-1.1493,-960.69,-154.72,-1924.19
10,-3.8708,0.6241,-1.1600,695.56,892.03,-455.38
20,-3.8708,0.5261,-1.1965,-101.32,-483.22,-1892.94
30,-3.8708,0.4448,-1.2424,-648.19,-1155.27,169.49
40,-3.8710,0.3835,-1.2764,945.56,969.60,231.93
50,-3.8712,0.3268,-1.2804,1101.81,625.73,-1580.63
60,-3.8713,0.2446,-1.2455,1836.18,109.99,1028.75
70,-3.8715,0.1136,-1.1879,-679.44,578.55,-893.07
80,-3.8713,-0.0708,-1.1417,-1445.07,-46.69,-1596.13
90,-3.8711,-0.2958,-1.1277,-1054.44,1874.82,-1783.51
100,-3.8708,-0.5371,-1.1312,-1851.32,-328.74,-111.63
110,-3.8705,-0.7595,-1.1191,-741.94,-782.35,200.87
120,-3.8705,-0.9108,-1.0717,-1210.69,764.10,-33.45
130,-3.8705,-0.9518,-0.9874,-570.07,-1158.08,435.36
140,-3.8708,-0.8943,-0.8796,-1820.07,1623.11,1591.80
150,-3.8713,-0.7897,-0.7632,1539.31,-579.90,-1689.27
160,-3.8718,-0.6952,-0.6543,-1070.07,-1673.46,-470.28
170,-3.8721,-0.6528,-0.5760,-976.32,264.22,1951.84
180,-3.8722,-0.6891,-0.5448,445.56,-1720.03,-344.91
190,-3.8719,-0.7942,-0.5558,-195.07,-1720.15,373.90
200,-3.8717,-0.9185,-0.5854,-1648.19,873.41,1686.40
210,-3.8715,-1.0189,-0.6033,-1554.44,1076.29,-938.66
220,-3.8712,-1.0790,-0.5934,1586.18,-1205.14,498.78
230,-3.8712,-1.0942,-0.5477,1898.68,60.36,920.72
240,-3.8713,-1.0815,-0.4667,-54.44,1904.05,1092.65
250,-3.8716,-1.0685,-0.3760,1570.56,279.11,1999.08
260,-3.8718,-1.0626,-0.3011,-757.57,-111.51,874.21
270,-3.8721,-1.0514,-0.2476,-7.57,1466.61,265.01
280,-3.8723,-1.0199,-0.2150,1429.93,326.05,1983.89
290,-3.8724,-0.9655,-0.2045,1461.18,497.99,1890.20
300,-3.8726,-0.8954,-0.2200,429.93,1841.86,-1062.93
310,-3.8726,-0.8197,-0.2623,1398.68,-142.40,608.89
320,-3.8727,-0.7474,-0.3218,-913.82,-1564.15,-453.67
330,-3.8726,-0.6793,-0.3855,336.18,-1173.34,639.95
340,-3.8726,-0.6088,-0.4407,1054.93,-1329.47,-500.79
350,-3.8724,-0.5359,-0.4851,-1913.82,-391.85,-1422.79
360,-3.8723,-0.4666,-0.5375,-585.69,1920.78,952.15
370,-3.8723,-0.4009,-0.6074,289.31,-782.17,-876.10
380,-3.8722,-0.3418,-0.6803,695.56,-1735.17,1623.78
390,-3.8721,-0.2906,-0.7430,258.06,936.83,233.03
400,-3.8721,-0.2399,-0.7960,-1195.07,905.64,-1329.59
410,-3.8719,-0.1917,-0.8440,1304.93,-1875.49,1670.29
420,-3.8718,-0.1550,-0.8938,-523.19,-16.05,-1939.21
430,-3.8717,-0.1283,-0.9496,164.31,1609.07,-658.02
440,-3.8715,-0.1035,-0.9945,-413.82,-1531.56,185.61
450,-3.8715,-0.0758,-1.0140,-1241.94,718.51,-345.70
460,-3.8713,-0.0397,-1.0206,-1695.07,-1781.43,1388.61
470,-3.8713,0.0059,-1.0272,-1070.07,1374.88,1419.86
480,-3.8713,0.0525,-1.0350,758.06,515.62,1122.99
490,-3.8713,0.0927,-1.0435,-1273.19,-484.31,1841.67
500,-3.8713,0.1201,-1.0518,-132.57,-1562.38,-2.08
510,-3.8712,0.1290,-1.0588,-616.94,1375.18,-158.33
520,-3.8710,0.1284,-1.0712,523.68,468.99,1076.05
530,-3.8708,0.1359,-1.0906,445.56,-1109.13,-1502.14
540,-3.8707,0.1581,-1.1077,1398.68,406.49,-1174.01
550,-3.8706,0.1985,-1.1250,242.43,-1780.94,1404.05
560,-3.8706,0.2642,-1.1428,1414.31,0.37,-1595.95
570,-3.8706,0.3470,-1.1490,1820.56,1719.24,-1299.13
580,-3.8706,0.4309,-1.1395,429.93,922.55,-1486.63
590,-3.8706,0.5042,-1.1213,-835.69,-1858.58,1857.12
600,-3.8706,0.5532,-1.1008,539.31,469.73,1575.93
610,-3.8706,0.5730,-1.0787,-1179.44,-905.21,-1564.70
620,-3.8706,0.5763,-1.0458,1351.81,1922.97,-142.76
630,-3.8706,0.5828,-0.9977,1773.68,-1858.28,-33.33
640,-3.8706,0.6094,-0.9424,-1398.19,297.97,1685.55
650,-3.8707,0.6644,-0.8838,-1991.94,-623.84,1544.98
660,-3.8708,0.7460,-0.8193,1054.93,-1123.72,560.73
670,-3.8711,0.8387,-0.7461,-507.57,-873.60,-814.15
680,-3.8712,0.9226,-0.6685,-632.57,501.59,1826.66
690,-3.8713,0.9889,-0.5892,-1898.19,-1560.73,1389.28
700,-3.8715,1.0350,-0.4984,-1413.82,580.02,-1969.91
710,-3.8716,1.0626,-0.3962,492.43,205.14,-766.60
720,-3.8716,1.0791,-0.2970,23.68,1283.33,249.21
730,-3.8717,1.0957,-0.2094,-1866.94,1986.45,1015.01
740,-3.8718,1.1217,-0.1353,258.06,1205.26,-1766.05
750,-3.8718,1.1586,-0.0784,-413.82,-1310.36,124.69
760,-3.8719,1.2061,-0.0381,304.93,1971.01,1999.82
770,-3.8721,1.2621,-0.0120,-1616.94,-872.68,-937.62
780,-3.8721,1.3210,-0.0042,1554.93,-1528.81,765.56
790,-3.8721,1.3724,-0.0123,1101.81,-528.69,874.94
800,-3.8721,1.4008,-0.0284,-320.07,-1575.50,-953.19
810,-3.8719,1.3981,-0.0441,-695.07,362.06,1859.31
820,-3.8718,1.3635,-0.0510,-1038.82,-1637.94,46.75
830,-3.8718,1.2999,-0.0514,-1460.69,1471.37,1124.88
840,-3.8718,1.2126,-0.0593,-1601.32,1424.38,968.63
850,-3.8719,1.1172,-0.0837,-773.19,408.57,-234.50
860,-3.8719,1.0308,-0.1135,-991.94,1283.39,1968.57
870,-3.8719,0.9542,-0.1421,-54.44,1470.70,140.38
880,-3.8721,0.8821,-0.1752,-1851.32,1814.33,-609.68
890,-3.8719,0.8142,-0.2169,914.31,1579.83,687.13
900,-3.8719,0.7548,-0.2649,226.81,235.96,-719.18
910,-3.8718,0.7083,-0.3171,617.43,-1904.79,-1766.17
920,-3.8717,0.6761,-0.3624,-1335.69,-592.41,1327.45
930,-3.8717,0.6595,-0.3845,-1445.07,1610.66,-610.11
940,-3.8717,0.6606,-0.3917,429.93,-1217.47,-547.67
950,-3.8717,0.6748,-0.4094,570.56,1860.66,-1688.29
960,-3.8717,0.6942,-0.4456,-1616.94,-404.97,1358.52
970,-3.8717,0.7158,-0.4878,867.43,-1029.91,717.83
980,-3.8718,0.7406,-0.5265,-366.94,1563.84,-407.23
990,-3.8718,0.7689,-0.5648,-1195.07,610.78,1623.96
1000,-3.8719,0.7999,-0.6086,-1570.07,-295.41,-719.91
1010,-3.8719,0.8344,-0.6610,-1601.32,-1904.72,1920.65
1020,-3.8719,0.8672,-0.7255,-1195.07,-607.79,-720.09
1030,-3.8718,0.8867,-0.7980,-991.94,-857.73,-204.59
1040,-3.8716,0.8842,-0.8685,1508.06,1861.08,-1907.84
1050,-3.8713,0.8547,-0.9247,1179.93,829.83,498.29
1060,-3.8712,0.8083,-0.9613,1414.31,1642.27,1373.17
1070,-3.8712,0.7625,-0.9956,-523.19,954.65,-408.14
1080,-3.8712,0.7239,-1.0354,1601.81,563.96,-1236.33
1090,-3.8713,0.6940,-1.0701,664.31,-529.85,-33.33
1100,-3.8713,0.6765,-1.0952,836.18,-967.41,700.99
1110,-3.8715,0.6687,-1.1006,-1398.19,-186.22,1279.05
1120,-3.8716,0.6360,-1.0953,1601.81,-873.72,-705.32
1130,-3.8715,0.5442,-1.1123,1414.31,-201.90,1325.93
1140,-3.8713,0.4033,-1.1484,1664.31,1626.04,-205.32
1150,-3.8711,0.2502,-1.1753,-366.94,1000.73,-346.01
1160,-3.8708,0.1150,-1.1782,39.31,1562.99,513.31
1170,-3.8708,0.0084,-1.1550,-1273.19,1187.68,513.31
1180,-3.8710,-0.0735,-1.1101,1086.18,156.25,763.37
1190,-3.8712,-0.1385,-1.0580,-1398.19,1921.69,-517.82
1200,-3.8713,-0.1862,-1.0128,-1726.32,593.44,-1767.70
1210,-3.8715,-0.2106,-0.9814,179.93,-1625.37,1169.86
1220,-3.8716,-0.2103,-0.9590,1054.93,-1609.80,13.67
1230,-3.8718,-0.1946,-0.9333,1086.18,1265.20,-1158.14
1240,-3.8719,-0.1825,-0.8989,-898.19,546.45,1920.04
1250,-3.8721,-0.2030,-0.8604,648.68,952.76,-845.52
1260,-3.8719,-0.2736,-0.8318,-1976.32,1890.20,779.54
1270,-3.8718,-0.3800,-0.8173,992.43,1546.33,-1704.77
1280,-3.8716,-0.5028,-0.8060,-632.57,-594.54,1748.35
1290,-3.8713,-0.6278,-0.7876,-351.32,842.71,1498.41
1300,-3.8712,-0.7333,-0.7551,-351.32,-798.16,-220.34
1310,-3.8711,-0.8064,-0.7087,-1851.32,-642.09,-1548.40
1320,-3.8711,-0.8551,-0.6488,789.31,1295.29,107.97
1330,-3.8713,-0.8901,-0.5770,-1445.07,967.04,1654.97
1340,-3.8716,-0.9156,-0.5046,-1929.44,-1845.52,-1813.66
1350,-3.8718,-0.9380,-0.4440,-1195.07,-579.96,-63.54
1360,-3.8719,-0.9612,-0.3923,-54.44,-814.39,-516.54
1370,-3.8719,-0.9861,-0.3418,976.81,1794.98,1499.21
1380,-3.8719,-1.0118,-0.2933,1789.31,263.67,1733.70
1390,-3.8719,-1.0310,-0.2534,-1507.57,-1533.26,-906.86
1400,-3.8718,-1.0334,-0.2236,39.31,-423.89,624.45
1410,-3.8718,-1.0127,-0.2002,-273.19,-611.45,937.01
1420,-3.8719,-0.9709,-0.1895,-1616.94,-1611.39,-422.30
1430,-3.8719,-0.9113,-0.2032,-273.19,-236.33,1780.82
1440,-3.8719,-0.8357,-0.2456,-632.57,1998.17,733.95
1450,-3.8719,-0.7446,-0.3168,1039.31,576.48,562.01
1460,-3.8719,-0.6372,-0.4126,695.56,-532.71,1499.33
1470,-3.8719,-0.5243,-0.5109,-1554.44,-798.16,-672.73
1480,-3.8718,-0.4191,-0.5873,898.68,-1376.04,483.34
1490,-3.8718,-0.3287,-0.6287,-1632.57,842.90,983.22
1500,-3.8718,-0.2605,-0.6411,1929.93,-453.80,-1579.41
1510,-3.8717,-0.2234,-0.6492,-1335.69,1952.58,873.72
1520,-3.8717,-0.2117,-0.6667,-585.69,921.39,-501.28
1530,-3.8716,-0.2014,-0.6921,914.31,-1328.55,1654.91
1540,-3.8716,-0.1772,-0.7115,-1773.19,-578.55,-1970.15
1550,-3.8716,-0.1450,-0.7158,1320.56,937.13,76.72
1560,-3.8717,-0.1086,-0.7184,1445.56,390.32,1186.10
1570,-3.8718,-0.0668,-0.7340,-1898.19,62.26,-438.90
1580,-3.8717,-0.0266,-0.7690,-538.82,-1937.68,920.41
1590,-3.8716,0.0103,-0.8191,601.81,1578.06,-1939.03
1600,-3.8713,0.0562,-0.8568,1320.56,-843.75,1670.23
1610,-3.8711,0.1112,-0.8562,-804.44,-1671.81,404.54
1620,-3.8711,0.1587,-0.8218,-1757.57,-1593.57,-392.33
1630,-3.8711,0.1903,-0.7871,320.56,-1187.19,-361.02
1640,-3.8711,0.2101,-0.7804,367.43,-749.63,-860.96
1650,-3.8710,0.2258,-0.7958,-1101.32,109.74,92.22
1660,-3.8710,0.2450,-0.8132,914.31,-1858.95,-1454.71
1670,-3.8708,0.2739,-0.8262,-632.57,-93.32,1685.85
1680,-3.8707,0.3151,-0.8345,-929.44,-1749.51,779.60
1690,-3.8706,0.3625,-0.8385,336.18,1188.11,123.35
1700,-3.8705,0.4062,-0.8344,-1585.69,672.55,201.48
1710,-3.8704,0.4326,-0.8174,8.06,1203.92,482.73
1720,-3.8702,0.4343,-0.7882,-616.94,-624.21,92.10
1730,-3.8702,0.4287,-0.7526,-398.19,-889.83,-1517.21
1740,-3.8702,0.4373,-0.7122,-1116.94,-327.33,-970.28
1750,-3.8702,0.4600,-0.6700,-23.19,844.54,982.97
1760,-3.8704,0.4879,-0.6410,-1116.94,-1764.77,608.03
1770,-3.8705,0.5171,-0.6346,-1538.82,1954.04,342.47
1780,-3.8706,0.5505,-0.6326,-1804.44,-1233.40,-1813.78
1790,-3.8706,0.5912,-0.6042,-1523.19,-967.71,936.22
1800,-3.8707,0.6382,-0.5496,-320.07,-1342.65,-1548.10
1810,-3.8708,0.6932,-0.4934,1695.56,1657.47,-1813.60
1820,-3.8710,0.7567,-0.4515,742.43,845.09,1045.90
1830,-3.8711,0.8265,-0.4156,867.43,-1795.41,780.33
1840,-3.8712,0.8956,-0.3700,1804.93,-1201.54,1702.27
1850,-3.8713,0.9507,-0.3137,-1351.32,642.33,-1797.61
1860,-3.8715,0.9852,-0.2543,1695.56,-154.42,-1860.05
1870,-3.8716,1.0006,-0.2024,-1882.57,-544.98,1890.08
1880,-3.8717,1.0010,-0.1652,86.18,-1904.30,1358.95
1890,-3.8718,0.9955,-0.1349,133.06,-1138.67,1155.88
1900,-3.8719,0.9924,-0.1000,-570.07,-1263.73,1109.07
1910,-3.8721,0.9962,-0.0587,-960.69,-794.98,562.26
1920,-3.8723,1.0035,-0.0168,-476.32,486.27,-375.12
1930,-3.8724,1.0155,0.0138,461.18,1845.70,-828.19
1940,-3.8724,1.0344,0.0237,1992.43,1767.58,156.25
1950,-3.8726,1.0570,0.0222,414.31,-966.74,-1796.88
1960,-3.8726,1.0769,0.0134,-695.07,-1154.24,718.75
1970,-3.8726,1.0850,-0.0065,1851.81,1720.83,500.00
1980,-3.8726,1.0690,-0.0308,-1116.94,-826.05,-1843.81
1990,-3.8724,1.0222,-0.0487,836.18,64.58,656.19
2000,-3.8724,0.9498,-0.0590,-1148.19,1767.58,-1343.87
2010,-3.8723,0.8640,-0.0625,1586.18,454.96,281.13
2020,-3.8723,0.7762,-0.0579,-1398.19,1.65,-1812.62
2030,-3.8722,0.6965,-0.0615,-632.57,595.21,234.25
2040,-3.8722,0.6412,-0.0889,1164.31,126.34,-1328.25
2050,-3.8721,0.6207,-0.1340,-1913.82,626.22,-1218.93
2060,-3.8718,0.6282,-0.1852,-538.82,-1155.09,734.07
2070,-3.8717,0.6534,-0.2340,414.31,298.10,-750.37
2080,-3.8715,0.6866,-0.2769,-351.32,-1951.90,515.14
2090,-3.8715,0.7197,-0.3123,-101.32,563.78,-422.42
2100,-3.8713,0.7540,-0.3322,133.06,32.65,1171.26
2110,-3.8713,0.7909,-0.3359,523.68,1485.84,1983.70
2120,-3.8713,0.8280,-0.3384,1242.43,1001.53,-1781.92
2130,-3.8713,0.8621,-0.3555,1992.43,689.09,-1422.55
2140,-3.8713,0.8855,-0.3903,-1648.19,-1498.35,-531.98
2150,-3.8712,0.8893,-0.4424,1351.81,-1951.42,1217.96
2160,-3.8711,0.8788,-0.5020,1836.18,-623.29,139.71
2170,-3.8711,0.8689,-0.5569,492.43,-248.29,-47.91
2180,-3.8710,0.8662,-0.6122,-773.19,720.40,-157.35
2190,-3.8708,0.8685,-0.6721,-1116.94,1642.27,-782.47
2200,-3.8707,0.8691,-0.7250,-820.07,1970.40,1967.41
2210,-3.8706,0.8540,-0.7653,-741.94,-795.23,248.54
2220,-3.8706,0.8116,-0.8033,1320.56,-1951.48,1998.47
2230,-3.8706,0.7395,-0.8440,-101.32,1173.40,-532.84
2240,-3.8705,0.6434,-0.8821,-1335.69,-29.85,1513.92
2250,-3.8705,0.5454,-0.9131,-1632.57,-905.03,-501.77
2260,-3.8705,0.4652,-0.9426,1820.56,-873.96,-251.83
2270,-3.8705,0.4023,-0.9707,-445.07,-655.40,-1595.64
2280,-3.8705,0.3328,-0.9983,-491.94,-249.27,1810.55
2290,-3.8705,0.2372,-1.0264,-1398.19,219.36,-533.20
2300,-3.8704,0.1188,-1.0443,-1632.57,625.43,-1814.51
2310,-3.8702,-0.0074,-1.0387,-788.82,-1671.69,341.67
2320,-3.8702,-0.1223,-1.0033,-945.07,-937.56,294.80
2330,-3.8704,-0.2124,-0.9473,351.81,-406.49,185.49
2340,-3.8707,-0.2703,-0.8845,820.56,-1234.80,-126.89
2350,-3.8710,-0.2987,-0.8278,1414.31,-1203.67,1576.35
2360,-3.8712,-0.3173,-0.7885,1773.68,-1938.11,685.85
2370,-3.8715,-0.3597,-0.7671,-601.32,-906.92,-32.84
2380,-3.8713,-0.4485,-0.7559,1961.18,1827.39,701.60
2390,-3.8712,-0.5776,-0.7456,-1398.19,-735.29,1857.85
2400,-3.8710,-0.7225,-0.7338,-1929.44,576.97,451.66
2410,-3.8708,-0.8518,-0.7156,-476.32,-1907.71,1654.79
2420,-3.8708,-0.9458,-0.6755,-1023.19,420.17,-720.15
2430,-3.8710,-0.9891,-0.6091,-1054.44,1544.98,-626.34
2440,-3.8712,-0.9799,-0.5254,1398.68,-1955.08,1358.15
2450,-3.8716,-0.9365,-0.4412,-1413.82,763.67,280.21
2460,-3.8719,-0.8838,-0.3760,133.06,-454.96,952.21
2470,-3.8722,-0.8466,-0.3348,-1116.94,-111.15,1139.83
2480,-3.8724,-0.8369,-0.3198,-351.32,1154.54,-0.67
2490,-3.8724,-0.8492,-0.3241,883.06,-923.52,889.95
2500,-3.8726,-0.8743,-0.3279,-695.07,-1470.46,-328.80
2510,-3.8726,-0.9054,-0.3201,101.81,-1954.83,-63.17
2520,-3.8724,-0.9291,-0.3003,117.43,-954.90,639.95
2530,-3.8726,-0.9335,-0.2708,1086.18,1576.29,-203.74
2540,-3.8726,-0.9115,-0.2421,523.68,1357.54,140.08
2550,-3.8728,-0.8641,-0.2295,-663.82,1029.42,-781.74
2560,-3.8729,-0.8070,-0.2439,1398.68,-1361.08,-1172.36
2570,-3.8730,-0.7551,-0.2843,711.18,795.29,-281.74
2580,-3.8730,-0.7139,-0.3376,-648.19,-376.53,-859.99
2590,-3.8729,-0.6885,-0.4050,633.06,795.47,-1610.05
2600,-3.8727,-0.6772,-0.5071,-116.94,170.47,1967.96
2610,-3.8723,-0.6561,-0.6279,1320.56,-891.97,1280.21
2620,-3.8719,-0.6042,-0.7140,23.68,-360.66,-1641.91
2630,-3.8716,-0.5302,-0.7595,-1335.69,623.78,1592.35
2640,-3.8713,-0.4526,-0.8096,148.68,-1204.16,1826.60
2650,-3.8711,-0.3865,-0.8855,-1929.44,389.71,1170.29
2660,-3.8708,-0.3386,-0.9742,-1460.69,-1328.92,1060.73
2670,-3.8706,-0.3044,-1.0559,664.31,-688.17,1326.17
2680,-3.8704,-0.2793,-1.1237,1039.31,858.76,1529.17
2690,-3.8701,-0.2594,-1.1910,258.06,186.95,919.68
2700,-3.8700,-0.2323,-1.2505,-1195.07,-438.05,-518.01
2710,-3.8698,-0.1835,-1.2736,-1726.32,-47.36,1450.62
2720,-3.8696,-0.1118,-1.2557,523.68,999.63,325.62
2730,-3.8698,-0.0347,-1.2188,1695.56,-718.99,1935.00
2740,-3.8699,0.0262,-1.1862,-429.44,15.50,341.37
2750,-3.8701,0.0629,-1.1760,-632.57,171.88,-861.69
2760,-3.8701,0.0800,-1.1998,54.93,1468.87,1450.81
2770,-3.8700,0.0883,-1.2480,-1757.57,-1578.00,716.37
2780,-3.8699,0.1035,-1.2961,-695.07,250.12,-1143.07
2790,-3.8696,0.1384,-1.3354,1258.06,-1906.07,731.81
2800,-3.8695,0.1993,-1.3580,1726.81,1062.74,544.25
2810,-3.8695,0.2747,-1.3525,1523.68,-1827.76,1762.94
2820,-3.8696,0.3512,-1.3173,-835.69,-1124.51,-33.94
2830,-3.8698,0.4326,-1.2559,961.18,-608.70,-1033.87
2840,-3.8700,0.5160,-1.1816,-616.94,-749.21,-268.13
2850,-3.8701,0.5918,-1.1160,-1945.07,750.98,763.31
2860,-3.8702,0.6740,-1.0706,-241.94,1157.35,1466.55
2870,-3.8702,0.7772,-1.0276,-1726.32,-1029.97,-1361.51
2880,-3.8701,0.8969,-0.9612,-507.57,470.21,685.49
2890,-3.8702,1.0205,-0.8596,-1195.07,970.46,-673.77
2900,-3.8704,1.1383,-0.7357,-1366.94,1970.70,1717.04
2910,-3.8706,1.2494,-0.6068,1711.18,1830.32,1404.79
2920,-3.8710,1.3523,-0.4753,-70.07,-1669.49,-485.60
2930,-3.8712,1.4559,-0.3417,1101.81,-841.13,967.77
2940,-3.8716,1.5707,-0.1962,-1632.57,268.43,-1000.67
2950,-3.8718,1.6777,-0.0367,1054.93,-1106.32,1796.45
2960,-3.8721,1.7449,0.1162,-1241.94,-699.89,78.00
2970,-3.8724,1.7614,0.2303,-648.19,-1121.64,1781.43
2980,-3.8727,1.7424,0.2871,1461.18,1487.79,953.55
2990,-3.8729,1.7050,0.2998,-960.69,753.36,-874.45
3000,-3.8730,1.6541,0.2949,-1757.57,-1621.70,-561.95
3010,-3.8730,1.5999,0.2882,-273.19,1753.17,281.80
3020,-3.8732,1.5497,0.2900,789.31,893.74,953.67
3030,-3.8733,1.5021,0.2986,-1632.57,1127.99,203.67
3040,-3.8735,1.4619,0.3031,273.68,-1778.32,1984.92
3050,-3.8737,1.4291,0.2961,-866.94,-1200.32,984.92
3060,-3.8738,1.3931,0.2731,-1070.07,1909.00,-593.20
3070,-3.8737,1.3369,0.2230,-1679.44,-1044.19,1500.49
3080,-3.8735,1.2501,0.1392,-866.94,549.44,-1218.32
3090,-3.8733,1.1415,0.0397,23.68,1814.94,-421.63
3100,-3.8729,1.0251,-0.0525,-1882.57,1080.32,-765.56
3110,-3.8726,0.9119,-0.1321,-773.19,1283.20,-328.25
3120,-3.8721,0.8136,-0.2061,726.81,-904.48,77.82
3130,-3.8718,0.7366,-0.2720,148.68,1626.59,-344.18
3140,-3.8715,0.6923,-0.3271,-1710.69,1188.90,796.33
3150,-3.8713,0.6947,-0.3700,617.43,-1873.66,-531.92
3160,-3.8712,0.7424,-0.3923,929.93,641.97,-31.98
3170,-3.8711,0.8207,-0.4014,-960.69,1782.65,-1875.79
3180,-3.8711,0.9120,-0.4198,1054.93,626.59,-1782.04
3190,-3.8711,1.0005,-0.4595,742.43,-1732.60,952.27
3200,-3.8712,1.0740,-0.5077,70.56,1189.45,-704.04
3210,-3.8712,1.1262,-0.5496,1476.81,-982.30,1483.34
3220,-3.8713,1.1667,-0.5945,164.31,1658.45,-188.60
3230,-3.8712,1.2083,-0.6665,1351.81,-91.49,45.65
3240,-3.8712,1.2401,-0.7705,-1335.69,-1310.18,-1391.97
3250,-3.8711,1.2474,-0.8782,-1257.57,1377.38,1482.85
3260,-3.8711,1.2285,-0.9691,-320.07,-403.87,-220.52
3270,-3.8710,1.1816,-1.0518,1258.06,-44.49,-1205.08
3280,-3.8708,1.1034,-1.1350,-741.94,1377.26,-330.20
3290,-3.8706,0.9935,-1.2218,1242.43,-1279.11,-799.13
3300,-3.8702,0.8595,-1.3077,-820.07,-388.73,1450.68
3310,-3.8700,0.7195,-1.3765,-1976.32,611.02,-174.44
3320,-3.8698,0.5970,-1.4099,101.81,-186.10,1794.13
3330,-3.8698,0.5100,-1.4062,429.93,-467.59,137.82
3340,-3.8701,0.4609,-1.3817,1289.31,0.98,-409.00
3350,-3.8704,0.4165,-1.3522,-991.94,-858.52,825.38
3360,-3.8706,0.3191,-1.3331,1320.56,-1077.33,-1440.19
3370,-3.8705,0.1421,-1.3313,851.81,1359.99,1013.00
3380,-3.8702,-0.0934,-1.3353,-1804.44,1593.99,1497.38
3390,-3.8700,-0.3403,-1.3341,54.93,1093.57,747.38
3400,-3.8700,-0.5547,-1.3241,445.56,1249.33,1997.38
3410,-3.8701,-0.7125,-1.3007,1008.06,-1469.85,1559.88
3420,-3.8704,-0.8125,-1.2462,804.93,1529.85,-1565.06
3430,-3.8706,-0.8724,-1.1519,8.06,498.41,-1096.19
3440,-3.8707,-0.9229,-1.0339,336.18,576.42,966.49
3450,-3.8708,-0.9890,-0.9136,1883.06,-329.96,1451.05
3460,-3.8710,-1.0762,-0.8126,1414.31,-923.83,-17.46
3470,-3.8708,-1.1748,-0.7435,-1741.94,-2.14,232.73
3480,-3.8708,-1.2622,-0.6967,1633.06,841.43,1279.79
3490,-3.8708,-1.3175,-0.6443,-1554.44,-1158.75,1951.72
3500,-3.8710,-1.3333,-0.5729,-632.57,1544.25,-141.91
3510,-3.8711,-1.3145,-0.4918,1351.81,-1315.12,1764.47
3520,-3.8713,-1.2786,-0.4116,-241.94,1059.88,1077.15
3530,-3.8717,-1.2412,-0.3378,351.81,-674.38,-641.48
3540,-3.8719,-1.2059,-0.2728,1133.06,778.81,1405.58
3550,-3.8723,-1.1669,-0.2222,1648.68,1091.37,-266.17
3560,-3.8726,-1.1169,-0.1935,-1351.32,-424.19,-672.36
3570,-3.8727,-1.0566,-0.1909,1039.31,-752.20,1421.45
3580,-3.8728,-0.9883,-0.2151,758.06,-423.95,1749.57
3590,-3.8729,-0.9080,-0.2585,1508.06,482.42,-406.68
3600,-3.8729,-0.8157,-0.3076,-210.69,-1079.96,-1328.67
3610,-3.8729,-0.7241,-0.3616,-398.19,638.98,-1250.61
3620,-3.8728,-0.6475,-0.4271,-679.44,1732.91,61.77
3630,-3.8728,-0.5890,-0.4960,1133.06,1342.47,-0.85
3640,-3.8726,-0.5454,-0.5552,617.43,530.09,-938.48
3650,-3.8723,-0.5092,-0.6160,-1804.44,952.03,-579.22
3660,-3.8719,-0.4696,-0.6968,-1163.82,1170.84,233.15
3670,-3.8717,-0.4125,-0.7821,-101.32,-1172.85,-1313.90
3680,-3.8713,-0.3347,-0.8389,-788.82,-94.60,1217.16
3690,-3.8711,-0.2491,-0.8669,1164.31,639.95,76.48
3700,-3.8711,-0.1678,-0.8942,117.43,1046.39,-751.71
3710,-3.8710,-0.1041,-0.9365,-1476.32,1562.13,-1704.90
3720,-3.8708,-0.0704,-0.9878,-1320.07,140.38,-673.71
3730,-3.8706,-0.0615,-1.0347,-1007.57,1577.94,1419.92
3740,-3.8705,-0.0576,-1.0642,133.06,-422.00,-908.33
3750,-3.8704,-0.0421,-1.0682,633.06,-203.25,-658.39
3760,-3.8702,-0.0089,-1.0509,-1382.57,-718.87,904.11
3770,-3.8704,0.0396,-1.0254,-1132.57,1499.94,-798.95
3780,-3.8705,0.0914,-1.0028,1070.56,750.06,-283.26
3790,-3.8705,0.1323,-0.9854,-288.82,-359.25,841.74
3800,-3.8705,0.1591,-0.9733,945.56,1875.24,263.67
3810,-3.8705,0.1832,-0.9677,367.43,-577.82,-1564.45
3820,-3.8704,0.2170,-0.9613,-538.82,140.93,-1439.39
3830,-3.8702,0.2573,-0.9429,-210.69,953.49,-1517.52
3840,-3.8701,0.2924,-0.9155,945.56,-687.01,763.73
3850,-3.8701,0.3204,-0.8975,1429.93,-1186.95,1732.54
3860,-3.8701,0.3403,-0.9011,1023.68,1125.61,-1579.90
3870,-3.8701,0.3597,-0.9221,-429.44,656.86,-189.27
3880,-3.8700,0.3989,-0.9418,-1945.07,1969.42,1654.42
3890,-3.8700,0.4624,-0.9338,-929.44,-546.14,-1173.77
3900,-3.8700,0.5322,-0.8912,-804.44,469.60,-1579.96
3910,-3.8700,0.5979,-0.8481,133.06,1922.91,576.35
3920,-3.8701,0.6765,-0.8260,539.31,-561.34,-1236.08
3930,-3.8701,0.7830,-0.8022,-1398.19,-1733.09,1248.35
3940,-3.8702,0.9045,-0.7474,226.81,1314.03,1592.16
3950,-3.8705,1.0183,-0.6520,-210.69,329.83,1826.66
3960,-3.8708,1.1105,-0.5291,-1648.19,548.83,-1626.28
3970,-3.8712,1.1794,-0.3972,-1851.32,283.39,717.71
3980,-3.8717,1.2274,-0.2773,-1023.19,1158.51,-875.79
3990,-3.8721,1.2610,-0.1823,1117.43,502.38,-344.30
4000,-3.8723,1.2886,-0.1018,1414.31,674.32,-1094.12
4010,-3.8724,1.3157,-0.0205,945.56,-1028.75,343.51
4020,-3.8727,1.3408,0.0620,414.31,1377.56,-1281.31
4030,-3.8728,1.3579,0.1313,-366.94,-59.94,890.69
4040,-3.8730,1.3604,0.1736,1820.56,815.12,-702.88
4050,-3.8732,1.3525,0.1832,-1866.94,-1778.63,-702.82
4060,-3.8732,1.3451,0.1583,1133.06,-544.25,-1359.07
4070,-3.8730,1.3292,0.1095,179.93,268.25,1687.81
4080,-3.8729,1.2974,0.0653,-1851.32,-1981.81,-1827.94
4090,-3.8728,1.2563,0.0508,-1929.44,361.88,1047.00
4100,-3.8728,1.2102,0.0614,820.56,-1497.56,812.56
4110,-3.8729,1.1604,0.0693,-1085.69,-138.31,-921.81
4120,-3.8729,1.1067,0.0541,539.31,877.26,-1656.13
4130,-3.8729,1.0443,0.0181,1664.31,-1075.99,-656.19
4140,-3.8728,0.9740,-0.0247,1679.93,-1685.49,1328.12
4150,-3.8728,0.9023,-0.0652,679.93,845.64,-109.44
4160,-3.8727,0.8330,-0.1007,-491.94,-342.04,-1218.93
4170,-3.8726,0.7731,-0.1368,-1366.94,-889.04,1140.38
4180,-3.8726,0.7362,-0.1849,-1038.82,-1514.16,-750.31
4190,-3.8724,0.7275,-0.2330,-1757.57,329.53,-1656.62
4200,-3.8723,0.7399,-0.2531,1133.06,-1826.72,1280.76
4210,-3.8723,0.7654,-0.2446,-1288.82,-389.22,1827.58
4220,-3.8724,0.7943,-0.2345,1976.81,688.96,-484.86
4230,-3.8724,0.8180,-0.2498,1679.93,1985.90,374.51
4240,-3.8726,0.8362,-0.2997,711.18,32.84,-1062.99
4250,-3.8724,0.8555,-0.3740,-960.69,1642.21,515.01
4260,-3.8723,0.8805,-0.4473,1508.06,126.65,608.64
4270,-3.8722,0.9093,-0.5042,711.18,-1248.29,1405.33
4280,-3.8721,0.9338,-0.5540,398.68,-529.48,1577.09
4290,-3.8721,0.9438,-0.5990,-460.69,1095.52,-126.10
4300,-3.8721,0.9380,-0.6307,820.56,-670.04,-391.85
4310,-3.8721,0.9293,-0.6619,70.56,-732.54,-1813.78
4320,-3.8721,0.9287,-0.7197,-1038.82,-716.98,1998.66
4330,-3.8719,0.9341,-0.8085,-1116.94,-123.23,1295.41
4340,-3.8718,0.9368,-0.9147,-429.44,517.40,-32.84
4350,-3.8716,0.9264,-1.0167,-85.69,-1076.35,-923.71
4360,-3.8713,0.8989,-1.1047,-1413.82,1861.15,826.11
4370,-3.8712,0.8662,-1.1879,-929.44,-1404.54,1138.43
4380,-3.8711,0.8352,-1.2653,-1116.94,-45.23,294.49
4390,-3.8710,0.7892,-1.3220,-1085.69,-1951.54,185.00
4400,-3.8708,0.7107,-1.3522,1023.68,-1217.22,-1799.50
4410,-3.8706,0.5962,-1.3615,-1023.19,-1076.78,825.44
4420,-3.8705,0.4346,-1.3553,320.56,1735.53,-1205.81
4430,-3.8702,0.2262,-1.3507,-366.94,-1483.58,997.31
4440,-3.8701,0.0107,-1.3524,961.18,-890.20,-705.81
4450,-3.8700,-0.1532,-1.3405,1383.06,-1109.38,-1549.56
4460,-3.8701,-0.2256,-1.3009,398.68,437.19,1997.38
4470,-3.8705,-0.2202,-1.2333,-866.94,1499.51,1122.44
4480,-3.8710,-0.2034,-1.1573,-179.44,-1844.24,-1549.32
4490,-3.8712,-0.2206,-1.1077,1976.81,-125.43,-1986.69
4500,-3.8712,-0.2766,-1.0851,-226.32,-1766.11,1263.43
4510,-3.8711,-0.3942,-1.0743,601.81,1124.45,-877.14
4520,-3.8707,-0.5726,-1.0776,1554.93,-1500.79,-1892.76
4530,-3.8704,-0.7638,-1.0887,-1288.82,-1923.03,-1830.26
4540,-3.8701,-0.9159,-1.0822,-1757.57,654.72,-1752.14
4550,-3.8701,-0.9939,-1.0371,-1226.32,1498.17,-1095.89
4560,-3.8704,-0.9951,-0.9570,789.31,-736.33,-17.70
4570,-3.8707,-0.9425,-0.8618,633.06,1513.67,-470.64
4580,-3.8711,-0.8707,-0.7729,-632.57,1701.23,873.29
4590,-3.8715,-0.8075,-0.7018,554.93,1076.42,154.72
4600,-3.8718,-0.7678,-0.6465,648.68,-1814.09,-751.40
4610,-3.8719,-0.7659,-0.6042,1726.81,1264.10,1748.72
4620,-3.8721,-0.8181,-0.5780,1976.81,-1329.65,-173.10
4630,-3.8719,-0.9242,-0.5624,-710.69,-1970.40,-1501.16
4640,-3.8717,-1.0563,-0.5410,1711.18,29.42,233.28
4650,-3.8716,-1.1760,-0.5035,804.93,-1236.45,498.90
4660,-3.8716,-1.2511,-0.4468,1476.81,-439.82,45.84
4670,-3.8718,-1.2758,-0.3835,-132.57,-1174.38,-1032.17
4680,-3.8721,-1.2581,-0.3351,711.18,-1080.63,-438.29
4690,-3.8722,-1.2056,-0.3073,-1023.19,1122.50,124.33
4700,-3.8724,-1.1279,-0.3064,1695.56,685.12,1655.64
4710,-3.8726,-1.0366,-0.3387,-366.94,794.62,499.39
4720,-3.8727,-0.9453,-0.3997,-679.44,654.17,889.95
4730,-3.8728,-0.8618,-0.4680,-991.94,857.48,-1532.04
4740,-3.8728,-0.7872,-0.5291,1695.56,107.67,561.58
4750,-3.8729,-0.7266,-0.5865,-757.57,295.29,-1016.66
4760,-3.8729,-0.6853,-0.6444,-991.94,936.04,-1516.78
4770,-3.8728,-0.6558,-0.7062,289.31,1529.91,623.72
4780,-3.8727,-0.6217,-0.7795,70.56,1623.72,1514.22
4790,-3.8724,-0.5737,-0.8685,429.93,233.15,482.85
4800,-3.8722,-0.5129,-0.9626,-1429.44,842.59,1295.17
4810,-3.8719,-0.4451,-1.0499,-1648.19,795.84,-1205.02
4820,-3.8717,-0.3696,-1.1348,-960.69,1624.08,-658.33
4830,-3.8715,-0.2825,-1.2129,695.56,-1235.11,-892.88
4840,-3.8712,-0.1917,-1.2668,-148.19,765.01,-939.88
4850,-3.8710,-0.1124,-1.2936,-523.19,1858.95,1997.50
4860,-3.8708,-0.0536,-1.3053,1617.43,-1562.74,-1252.56
4870,-3.8707,-0.0105,-1.3115,1148.68,937.38,1638.06
4880,-3.8707,0.0339,-1.3121,-1335.69,140.56,-1471.31
4890,-3.8707,0.0979,-1.3098,351.81,46.94,1731.81
4900,-3.8707,0.1843,-1.3037,539.31,343.93,606.81
4910,-3.8707,0.2842,-1.2822,-398.19,1125.31,59.94
4920,-3.8708,0.3837,-1.2350,383.06,-124.45,-361.94
4930,-3.8708,0.4673,-1.1685,1117.43,1922.61,-1486.82
4940,-3.8708,0.5264,-1.1019,-179.44,-1561.65,950.81
4950,-3.8710,0.5599,-1.0457,-616.94,-1045.90,-455.32
4960,-3.8710,0.5780,-1.0021,-320.07,-1842.71,-1955.20
4970,-3.8710,0.5985,-0.9731,1992.43,-264.53,435.49
4980,-3.8711,0.6354,-0.9576,617.43,-561.34,-376.95
4990,-3.8710,0.6908,-0.9468,1336.18,1423.10,357.48
5000,-3.8710,0.7537,-0.9265,429.93,-1186.16,-1658.14
5010,-3.8708,0.8127,-0.8889,476.81,1407.71,91.92
5020,-3.8708,0.8623,-0.8448,39.31,-1779.66,1123.23
5030,-3.8708,0.9032,-0.7983,-1616.94,-138.98,-1282.96
5040,-3.8707,0.9397,-0.7406,-382.57,1814.21,1420.29
5050,-3.8707,0.9738,-0.6674,289.31,1204.96,-548.34
5060,-3.8707,1.0001,-0.5791,648.68,-1419.98,-1251.34
5070,-3.8708,1.0117,-0.4857,23.68,1876.95,-704.28
5080,-3.8710,1.0084,-0.3954,1508.06,1830.08,-1610.35
5090,-3.8711,0.9983,-0.3156,1086.18,1392.58,1030.46
5100,-3.8712,0.9917,-0.2583,-210.69,-388.73,77.45
5110,-3.8713,0.9980,-0.2252,-1054.44,-1060.61,296.33
5120,-3.8715,1.0179,-0.2006,-241.94,-826.23,1452.64
5130,-3.8716,1.0450,-0.1711,-1695.07,-1669.92,-1641.05
5140,-3.8717,1.0792,-0.1299,1773.68,-1904.24,1999.63
5150,-3.8718,1.1234,-0.0718,-1851.32,-622.92,202.82
5160,-3.8721,1.1718,-0.0032,-195.07,-1185.36,1687.32
5170,-3.8723,1.2183,0.0663,1992.43,-403.99,-1421.94
5180,-3.8726,1.2568,0.1198,-54.44,486.69,-703.00
5190,-3.8727,1.2866,0.1521,883.06,-669.43,656.43
5200,-3.8729,1.3042,0.1676,695.56,-528.75,-31.01
5210,-3.8729,1.2993,0.1556,-1054.44,1455.63,-874.69
5220,-3.8728,1.2723,0.1190,-1679.44,-75.62,1312.74
5230,-3.8728,1.2258,0.0730,-1132.57,-763.18,-15.44
5240,-3.8727,1.1665,0.0353,914.31,1346.13,-1937.38
5250,-3.8727,1.1034,0.0206,1320.56,517.88,-984.31
5260,-3.8727,1.0424,0.0303,1242.43,-1357.24,-484.38
5270,-3.8726,0.9873,0.0461,1429.93,-122.99,875.00
5280,-3.8726,0.9442,0.0391,-1616.94,1908.14,-859.31
5290,-3.8724,0.9175,-0.0026,867.43,1001.83,1765.69
5300,-3.8723,0.9062,-0.0663,1445.56,-326.35,874.94
5310,-3.8722,0.9038,-0.1283,8.06,-482.60,406.07
5320,-3.8721,0.9039,-0.1797,-304.44,-420.17,155.94
5330,-3.8719,0.9071,-0.2249,-288.82,1001.71,515.26
5340,-3.8718,0.9098,-0.2546,117.43,-779.48,1015.14
5350,-3.8718,0.9060,-0.2614,461.18,-591.98,-234.92
5360,-3.8718,0.8953,-0.2633,-23.19,-1451.42,-641.17
5370,-3.8718,0.8885,-0.2871,-1398.19,-1701.42,1108.83
5380,-3.8719,0.9017,-0.3344,1742.43,-748.29,-641.24
5390,-3.8719,0.9341,-0.3864,-570.07,1204.83,-1406.92
5400,-3.8719,0.9742,-0.4343,-429.44,-1451.35,1405.46
5410,-3.8721,1.0088,-0.4934,711.18,408.14,-766.48
5420,-3.8721,1.0331,-0.5653,1133.06,845.70,889.65
5430,-3.8722,1.0493,-0.6407,242.43,-357.36,-688.66
5440,-3.8722,1.0552,-0.7269,-1679.44,1986.39,-891.91
5450,-3.8721,1.0460,-0.8167,-929.44,-1044.86,982.91
5460,-3.8719,1.0088,-0.8999,1898.68,-529.24,1982.73
5470,-3.8717,0.9340,-0.9816,1133.06,814.45,-1767.40
5480,-3.8715,0.8284,-1.0597,-445.07,-1638.85,-48.83
5490,-3.8711,0.6997,-1.1162,-1960.69,360.96,1138.55
5500,-3.8708,0.5507,-1.1306,1570.56,1126.34,1013.43
5510,-3.8707,0.3848,-1.1047,-1507.57,-717.71,-314.76
5520,-3.8705,0.2097,-1.0585,1258.06,-1405.52,1388.43
5530,-3.8704,0.0382,-1.0049,-1148.19,515.99,-1798.95
5540,-3.8702,-0.1194,-0.9543,898.68,-624.94,1935.49
5550,-3.8701,-0.2524,-0.9143,726.81,1859.13,529.36
5560,-3.8701,-0.3475,-0.8826,-304.44,-1016.17,-1579.96
5570,-3.8701,-0.3848,-0.8566,-476.32,-953.86,-1142.40
5580,-3.8701,-0.3485,-0.8334,-1241.94,-1625.79,13.92
5590,-3.8704,-0.2518,-0.8113,-601.32,1343.02,1248.35
5600,-3.8707,-0.1346,-0.7957,-226.32,171.33,-845.34
5610,-3.8711,-0.0397,-0.7964,-1226.32,-1828.43,-95.34
5620,-3.8713,0.0046,-0.8223,-1070.07,-1922.00,-532.84
5630,-3.8713,-0.0170,-0.8694,601.81,-1250.00,-1673.52
5640,-3.8711,-0.1106,-0.9279,1836.18,734.31,-1236.08
5650,-3.8706,-0.2664,-0.9943,1851.81,1249.76,1841.92
5660,-3.8701,-0.4543,-1.0579,1914.31,749.45,1154.30
5670,-3.8699,-0.6376,-1.0869,1851.81,608.46,-314.58
5680,-3.8698,-0.7927,-1.0555,-1601.32,889.34,-502.14
5690,-3.8698,-0.9185,-0.9769,-1460.69,904.66,1154.17
5700,-3.8700,-1.0204,-0.8777,-1554.44,-1033.08,-1126.95
5710,-3.8702,-1.0919,-0.7676,1398.68,-330.14,-1079.90
5720,-3.8705,-1.1188,-0.6473,242.43,1763.49,1998.47
5730,-3.8707,-1.1036,-0.5364,804.93,1154.05,342.47
5740,-3.8711,-1.0662,-0.4583,-1257.57,-642.82,-1329.22
5750,-3.8713,-1.0231,-0.4095,-460.69,1357.24,1858.46
5760,-3.8716,-0.9857,-0.3724,1054.93,-408.26,-1594.60
5770,-3.8718,-0.9601,-0.3390,1836.18,341.80,-110.11
5780,-3.8719,-0.9424,-0.3182,1117.43,623.11,1139.95
5790,-3.8722,-0.9192,-0.3199,-616.94,-720.64,1514.95
5800,-3.8724,-0.8800,-0.3350,-1648.19,-939.33,-1891.30
5810,-3.8726,-0.8239,-0.3519,-632.57,1138.85,889.95
5820,-3.8727,-0.7582,-0.3744,-1445.07,-1032.90,-1313.23
5830,-3.8727,-0.6875,-0.4060,-1038.82,92.22,-1313.23
5840,-3.8726,-0.6140,-0.4452,8.06,45.53,46.08
5850,-3.8726,-0.5479,-0.4915,1414.31,-969.97,-1250.92
5860,-3.8724,-0.4998,-0.5435,1883.06,1108.28,-829.10
5870,-3.8722,-0.4662,-0.6038,39.31,-1547.85,1186.40
5880,-3.8719,-0.4343,-0.6731,336.18,-1266.54,889.40
5890,-3.8717,-0.3927,-0.7474,414.31,1858.52,-1970.09
5900,-3.8715,-0.3269,-0.8181,1742.43,342.96,-1392.09
5910,-3.8712,-0.2313,-0.8730,-1835.69,-703.80,842.10
5920,-3.8711,-0.1150,-0.9080,-1601.32,265.14,435.79
5930,-3.8711,0.0093,-0.9332,1289.31,-203.37,1966.92
5940,-3.8711,0.1206,-0.9559,1195.56,546.88,-1204.96
5950,-3.8710,0.1915,-0.9789,-554.44,1640.81,576.23
5960,-3.8708,0.2155,-1.0193,523.68,-1296.51,326.17
5970,-3.8707,0.2169,-1.0836,-413.82,1531.62,-877.01
5980,-3.8704,0.2230,-1.1418,-226.32,1297.24,966.61
5990,-3.8701,0.2544,-1.1512,554.93,1844.18,-1830.38
6000,-3.8700,0.3181,-1.1012,570.56,641.11,1638.37
6010,-3.8701,0.3962,-1.0205,726.81,-952.51,1622.80
6020,-3.8704,0.4709,-0.9478,-1273.19,1375.73,1716.74
6030,-3.8706,0.5409,-0.9003,289.31,-1311.58,-1283.14
6040,-3.8707,0.6022,-0.8651,1242.43,766.66,-1923.65
6050,-3.8708,0.6431,-0.8323,1086.18,1266.78,-923.58
6060,-3.8708,0.6649,-0.8108,-1679.44,1469.97,1763.98
6070,-3.8708,0.6802,-0.8042,1117.43,220.03,-860.96
6080,-3.8707,0.6982,-0.7991,-929.44,1063.78,-1126.59
6090,-3.8706,0.7231,-0.7760,1383.06,1720.09,-1126.59
6100,-3.8705,0.7561,-0.7223,570.56,673.28,951.60
6110,-3.8705,0.7939,-0.6473,789.31,-451.66,342.29
6120,-3.8706,0.8242,-0.5732,1633.06,1142.15,1951.84
6130,-3.8707,0.8384,-0.5125,1508.06,-1373.41,-891.78
6140,-3.8707,0.8403,-0.4679,-679.44,-1592.16,827.09
6150,-3.8708,0.8402,-0.4324,-429.44,110.96,-360.29
6160,-3.8708,0.8462,-0.3906,-445.07,657.84,-1235.23
6170,-3.8708,0.8613,-0.3369,320.56,-1998.35,827.33
6180,-3.8710,0.8914,-0.2765,-1741.94,876.65,1702.45
6190,-3.8711,0.9337,-0.2158,-1898.19,611.08,-1969.30
6200,-3.8712,0.9740,-0.1584,-476.32,376.77,-1828.55
6210,-3.8713,1.0060,-0.1045,679.93,-279.36,-1750.37
6220,-3.8715,1.0334,-0.0566,773.68,-1373.05,1906.01
6230,-3.8716,1.0616,-0.0179,289.31,752.01,1062.38
6240,-3.8717,1.0955,0.0012,-101.32,1705.14,624.94
6250,-3.8718,1.1365,0.0079,226.81,158.39,1375.00
6260,-3.8719,1.1732,0.0310,1476.81,1017.82,-1093.75
6270,-3.8721,1.1915,0.0713,-1820.07,-28.99,-328.12
6280,-3.8722,1.1951,0.1017,523.68,1127.32,-937.38
6290,-3.8723,1.1936,0.1097,976.81,1017.94,-1484.19
6300,-3.8726,1.1440,0.0642,1726.81,-13.37,1281.37
6310,-3.8726,1.1069,0.0139,-1554.44,220.95,-1468.63
6320,-3.8724,1.0615,-0.0366,1695.56,1783.39,1312.50
6330,-3.8723,1.0161,-0.0674,-116.94,-685.49,124.88
6340,-3.8723,0.9801,-0.0793,-1929.44,-623.05,1718.57
6350,-3.8723,0.9545,-0.0913,1461.18,1845.64,1999.82
6360,-3.8723,0.9369,-0.1210,-1820.07,314.33,-1953.31
6370,-3.8723,0.9265,-0.1627,-70.07,517.40,-500.24
6380,-3.8722,0.9218,-0.2009,-1398.19,-826.35,-1953.49
6390,-3.8722,0.9166,-0.2360,1992.43,-1716.98,-187.93
6400,-3.8721,0.9078,-0.2751,1336.18,1798.65,468.26
6410,-3.8721,0.8989,-0.3182,211.18,783.02,874.45
6420,-3.8721,0.8972,-0.3629,-929.44,-732.67,1202.45
6430,-3.8721,0.9054,-0.4084,-1148.19,1548.58,1780.52
6440,-3.8721,0.9164,-0.4498,-101.32,-279.54,-1969.60
6450,-3.8721,0.9240,-0.4890,1304.93,-1576.35,702.21
6460,-3.8722,0.9321,-0.5361,-1726.32,1408.02,-1532.23
6470,-3.8722,0.9453,-0.5942,-679.44,-623.23,1170.78
6480,-3.8722,0.9651,-0.6554,1008.06,-60.67,1280.03
6490,-3.8722,0.9910,-0.7183,-460.69,111.21,1842.47
6500,-3.8722,1.0178,-0.7932,-1148.19,64.39,-1188.90
6510,-3.8721,1.0376,-0.8778,-1710.69,-1529.30,310.91
6520,-3.8721,1.0342,-0.9713,820.56,-357.36,-954.90
6530,-3.8718,0.9930,-1.0782,383.06,-326.11,544.92
6540,-3.8716,0.9116,-1.1849,-882.57,1986.27,888.49
6550,-3.8713,0.7996,-1.2738,695.56,329.90,-1799.19
6560,-3.8711,0.6691,-1.3418,-1648.19,954.65,-1518.13
6570,-3.8708,0.5311,-1.3849,1648.68,251.28,1794.25
6580,-3.8707,0.3921,-1.3944,-7.57,-1264.65,-346.50
6590,-3.8706,0.2450,-1.3755,-1804.44,1516.36,-1143.37
6600,-3.8705,0.0667,-1.3472,-632.57,-62.07,1903.50
6610,-3.8702,-0.1659,-1.3267,539.31,-437.38,1512.94
6620,-3.8699,-0.4364,-1.3094,-1226.32,-1797.24,-1862.00
6630,-3.8695,-0.6820,-1.2723,148.68,405.40,-1596.31
6640,-3.8694,-0.8285,-1.1969,711.18,1154.91,-768.13
6650,-3.8695,-0.8473,-1.0936,1961.18,-1189.15,841.37
6660,-3.8700,-0.7761,-0.9960,-445.07,29.54,1591.61
6670,-3.8705,-0.6774,-0.9307,664.31,529.72,794.92
6680,-3.8708,-0.5997,-0.9016,1304.93,889.28,1873.17
6690,-3.8710,-0.5684,-0.8990,-757.57,608.15,1748.23
6700,-3.8710,-0.5945,-0.9032,-741.94,936.34,513.85
6710,-3.8710,-0.6864,-0.8943,-85.69,405.03,357.60
6720,-3.8710,-0.8339,-0.8711,148.68,1545.53,-1923.65
6730,-3.8708,-0.9999,-0.8439,1273.68,513.98,1342.04
6740,-3.8708,-1.1476,-0.8051,23.68,-1.95,-79.83
6750,-3.8708,-1.2607,-0.7438,1117.43,966.49,-876.59
6760,-3.8710,-1.3328,-0.6694,-1366.94,810.00,-1938.96
6770,-3.8712,-1.3617,-0.5917,1414.31,-1674.50,-1954.47
6780,-3.8715,-1.3481,-0.5161,1711.18,278.56,951.97
6790,-3.8717,-1.2916,-0.4502,-554.44,1950.44,623.96
6800,-3.8719,-1.2013,-0.3989,-1320.07,-1611.94,-1938.42
6810,-3.8721,-1.0972,-0.3667,-1757.57,950.74,1342.96
6820,-3.8722,-0.9928,-0.3477,-429.44,1075.93,1514.89
6830,-3.8723,-0.8917,-0.3313,929.93,-486.33,-1938.23
6840,-3.8724,-0.8035,-0.3192,1867.43,1607.60,-703.80
6850,-3.8724,-0.7349,-0.3246,1164.31,-845.34,733.70
6860,-3.8726,-0.6699,-0.3634,1945.56,-1532.71,-1078.80
6870,-3.8724,-0.5975,-0.4381,-1741.94,1498.66,218.02
6880,-3.8723,-0.5281,-0.5309,-476.32,-63.72,577.21
6890,-3.8722,-0.4598,-0.6222,414.31,61.46,1623.96
6900,-3.8721,-0.3816,-0.7094,1148.68,374.08,-1016.85
6910,-3.8718,-0.3003,-0.7905,-835.69,1217.96,1217.35
6920,-3.8717,-0.2262,-0.8485,1570.56,-1172.49,-829.71
6930,-3.8716,-0.1605,-0.8721,-945.07,-594.24,-986.08
6940,-3.8715,-0.1014,-0.8674,-538.82,390.26,357.67
6950,-3.8716,-0.0424,-0.8430,-976.32,984.13,-845.46
6960,-3.8717,0.0170,-0.8064,-1413.82,109.25,-673.52
6970,-3.8718,0.0648,-0.7679,-1820.07,781.25,-1548.46
6980,-3.8719,0.0935,-0.7490,304.93,1703.25,-579.65
6990,-3.8718,0.1125,-0.7649,-23.19,125.12,357.91
7000,-3.8717,0.1364,-0.7998,-1585.69,-1906.07,623.47
7010,-3.8716,0.1747,-0.8258,1461.18,1625.24,1967.16
7020,-3.8715,0.2329,-0.8290,-1632.57,-1702.82,-1548.52
7030,-3.8713,0.3074,-0.8108,1820.56,1891.05,717.10
7040,-3.8713,0.3927,-0.7797,-648.19,219.30,404.66
7050,-3.8715,0.4840,-0.7450,-1726.32,203.86,-1423.40
7060,-3.8715,0.5737,-0.7168,1961.18,641.54,1139.16
7070,-3.8715,0.6577,-0.6949,1445.56,251.10,1467.35
7080,-3.8713,0.7340,-0.6705,195.56,-951.84,186.10
7090,-3.8712,0.7942,-0.6377,1961.18,-1826.72,904.91
7100,-3.8711,0.8318,-0.6018,1664.31,-1623.47,-1095.03
7110,-3.8708,0.8506,-0.5754,-1523.19,-1029.66,1295.65
7120,-3.8707,0.8593,-0.5592,883.06,-1654.60,-1282.41
7130,-3.8706,0.8654,-0.5438,1992.43,423.52,-1282.35
7140,-3.8705,0.8751,-0.5184,-1226.32,-1607.73,998.90
7150,-3.8705,0.8870,-0.4740,23.68,1642.33,1405.21
7160,-3.8705,0.8893,-0.4114,1539.31,-670.17,420.90
7170,-3.8706,0.8724,-0.3433,1836.18,-654.54,-641.48
7180,-3.8706,0.8400,-0.2826,-320.07,64.15,-688.17
7190,-3.8706,0.8118,-0.2383,-476.32,-170.29,-484.99
7200,-3.8706,0.8096,-0.2122,-85.69,1501.53,-1484.86
7210,-3.8707,0.8365,-0.1974,-366.94,845.28,-172.30
7220,-3.8708,0.8787,-0.1810,-913.82,-1264.04,-359.80
7230,-3.8710,0.9268,-0.1560,476.81,829.83,-1531.62
7240,-3.8711,0.9781,-0.1279,-1366.94,33.02,968.44
7250,-3.8713,1.0277,-0.1002,1211.18,-373.11,-812.81
7260,-3.8715,1.0673,-0.0789,-445.07,-826.17,1156.01
7270,-3.8717,1.0991,-0.0553,617.43,1908.33,-1125.18
7280,-3.8718,1.1292,-0.0183,695.56,924.01,546.75
7290,-3.8721,1.1503,0.0155,539.31,1658.45,-1218.81
7300,-3.8722,1.1537,0.0382,-757.57,1986.57,1687.50
7310,-3.8723,1.1323,0.0549,-320.07,892.82,781.31
7320,-3.8726,1.0918,0.0658,945.56,-966.55,-171.81
7330,-3.8727,1.0543,0.0645,-241.94,423.95,-671.75
7340,-3.8727,1.0358,0.0486,-1038.82,252.01,453.25
7350,-3.8728,1.0273,0.0298,586.18,-1779.24,-1218.69
7360,-3.8728,1.0188,0.0155,-491.94,-185.55,750.00
7370,-3.8729,1.0170,0.0022,-1585.69,1986.33,-1531.25
7380,-3.8729,1.0282,-0.0187,-1820.07,283.20,-1953.12
7390,-3.8728,1.0415,-0.0452,-382.57,1611.33,78.06
7400,-3.8728,1.0435,-0.0653,1320.56,-1779.24,-1437.62
7410,-3.8727,1.0413,-0.0813,1570.56,-357.36,109.19
7420,-3.8727,1.0477,-0.1125,1289.31,1595.76,1156.07
7430,-3.8727,1.0597,-0.1648,-1882.57,1595.76,-1687.74
7440,-3.8727,1.0668,-0.2212,-351.32,-1091.74,-719.12
7450,-3.8727,1.0669,-0.2747,554.93,-310.42,-562.99
7460,-3.8727,1.0669,-0.3409,570.56,845.83,-781.80
7470,-3.8727,1.0710,-0.4180,570.56,361.45,-250.67
7480,-3.8726,1.0791,-0.4740,1101.81,-1497.92,1342.90
7490,-3.8726,1.0886,-0.5012,-1866.94,-669.80,-1766.60
7500,-3.8726,1.0869,-0.5254,-648.19,-154.17,780.21
7510,-3.8727,1.0643,-0.5703,-866.94,752.08,-1016.66
7520,-3.8727,1.0269,-0.6414,242.43,-997.92,-485.53
7530,-3.8726,0.9717,-0.7349,-554.44,1908.20,-485.66
7540,-3.8723,0.8900,-0.8325,383.06,1939.39,-1017.09
7550,-3.8719,0.7881,-0.9106,1929.93,1439.21,779.60
7560,-3.8717,0.6757,-0.9601,883.06,-560.97,-1798.71
7570,-3.8715,0.5596,-0.9805,-1507.57,1110.66,998.11
7580,-3.8713,0.4440,-0.9662,-366.94,-1498.96,1935.55
7590,-3.8712,0.3232,-0.9310,836.18,328.98,-1173.77
7600,-3.8710,0.1871,-0.9059,1383.06,828.74,966.92
7610,-3.8707,0.0311,-0.8975,-38.82,47.18,1029.48
7620,-3.8705,-0.1296,-0.8921,-7.57,1125.00,1935.73
7630,-3.8702,-0.2637,-0.8654,-585.69,1827.82,826.35
7640,-3.8702,-0.3405,-0.8057,-1741.94,1249.45,-1657.96
7650,-3.8705,-0.3468,-0.7288,429.93,889.95,-142.21
7660,-3.8708,-0.2958,-0.6658,-382.57,-1266.36,-1454.59
7670,-3.8713,-0.2269,-0.6417,-1851.32,-1203.74,-16.97
7680,-3.8716,-0.1841,-0.6617,-1038.82,1874.51,-1548.16
7690,-3.8716,-0.1897,-0.7156,445.56,-687.87,1483.03
7700,-3.8713,-0.2490,-0.7958,-273.19,421.45,936.10
7710,-3.8710,-0.3478,-0.8966,133.06,-1844.24,1529.66
7720,-3.8706,-0.4530,-0.9891,-507.57,1249.27,1779.48
7730,-3.8704,-0.5411,-1.0280,-1976.32,1405.33,-1861.33
7740,-3.8702,-0.6123,-0.9932,-1257.57,436.40,-1923.89
7750,-3.8702,-0.6775,-0.9120,1633.06,889.40,1029.30
7760,-3.8705,-0.7479,-0.8237,1289.31,-720.09,-876.83
7770,-3.8707,-0.8330,-0.7478,273.68,-1423.34,-329.77
7780,-3.8708,-0.9296,-0.6924,1383.06,295.23,-1751.46
7790,-3.8710,-1.0217,-0.6497,1023.68,-611.21,-798.28
7800,-3.8710,-1.0948,-0.6033,1226.81,857.36,983.09
7810,-3.8711,-1.1426,-0.5488,-132.57,-1205.32,-1876.22
7820,-3.8712,-1.1620,-0.4987,1758.06,1763.37,-1422.97
7830,-3.8713,-1.1481,-0.4624,-726.32,185.18,-907.23
7840,-3.8715,-1.0997,-0.4366,1054.93,825.87,-813.42
7850,-3.8716,-1.0193,-0.4225,-757.57,122.80,1577.27
7860,-3.8718,-0.9185,-0.4296,1539.31,1935.49,-1297.73
7870,-3.8719,-0.8135,-0.4595,-1554.44,1029.42,389.77
7880,-3.8722,-0.7136,-0.5051,-116.94,1201.48,-0.92
7890,-3.8722,-0.6218,-0.5702,664.31,-642.03,-1844.79
7900,-3.8722,-0.5353,-0.6533,414.31,-969.97,-1094.91
7910,-3.8721,-0.4496,-0.7278,-507.57,389.53,1717.47
7920,-3.8719,-0.3678,-0.7739,-1538.82,-1141.54,904.79
7930,-3.8719,-0.2982,-0.8038,929.93,952.39,-673.40
7940,-3.8718,-0.2450,-0.8285,1836.18,1124.39,1232.79
7950,-3.8718,-0.2087,-0.8400,648.68,1968.26,-1736.02
7960,-3.8718,-0.1841,-0.8365,1289.31,499.57,1654.60
7970,-3.8719,-0.1525,-0.8342,445.56,937.13,-79.77
7980,-3.8719,-0.1005,-0.8473,492.43,1234.07,-1814.15
7990,-3.8719,-0.0311,-0.8766,-851.32,-437.74,1576.42
8000,-3.8719,0.0471,-0.9126,23.68,-187.56,-1079.90
8010,-3.8718,0.1257,-0.9456,-1960.69,-812.44,-1704.96
8020,-3.8717,0.1918,-0.9729,101.81,-1031.01,-845.64
8030,-3.8715,0.2356,-0.9989,554.93,-530.88,482.42
8040,-3.8713,0.2644,-1.0222,-1835.69,141.05,1498.05
8050,-3.8712,0.2916,-1.0306,1851.81,1156.74,-1970.76
8060,-3.8711,0.3306,-1.0183,1336.18,78.67,1326.11
8070,-3.8711,0.3823,-0.9866,-1679.44,1656.86,1904.24
8080,-3.8712,0.4318,-0.9430,945.56,1719.48,-626.95
8090,-3.8713,0.4703,-0.9019,-726.32,-702.33,-345.64
8100,-3.8713,0.4991,-0.8749,211.18,563.42,1513.85
8110,-3.8713,0.5200,-0.8590,-101.32,16.54,1654.54
8120,-3.8713,0.5339,-0.8400,-1429.44,-1952.15,-1486.08
8130,-3.8713,0.5419,-0.8129,351.81,485.41,-657.90
8140,-3.8712,0.5439,-0.7893,1367.43,-45.84,779.60
8150,-3.8712,0.5461,-0.7799,1633.06,-1030.21,-360.96
8160,-3.8711,0.5574,-0.7728,1914.31,172.91,-251.53
8170,-3.8710,0.5784,-0.7445,-648.19,1079.16,-1204.65
8180,-3.8710,0.6068,-0.6934,-1960.69,704.22,-860.84
8190,-3.8710,0.6443,-0.6403,1679.93,-748.84,1529.85
8200,-3.8711,0.6923,-0.6000,-1523.19,-1951.90,-860.66
8210,-3.8711,0.7498,-0.5669,617.43,-795.53,248.78
8220,-3.8712,0.8152,-0.5365,-23.19,-561.10,998.84
8230,-3.8713,0.8936,-0.5131,351.81,-670.29,-1422.97
8240,-3.8713,0.9877,-0.4801,-1616.94,-1670.17,1858.34
8250,-3.8713,1.0839,-0.4175,-1570.07,-1451.23,1045.90
8260,-3.8715,1.1628,-0.3330,-1257.57,-1435.42,1421.02
8270,-3.8717,1.2186,-0.2483,851.81,1377.26,-656.92
8280,-3.8718,1.2615,-0.1755,-7.57,221.07,905.76
8290,-3.8721,1.3026,-0.1193,1476.81,1533.69,-719.12
8300,-3.8722,1.3408,-0.0781,-1257.57,736.88,-500.24
8310,-3.8722,1.3673,-0.0449,-366.94,-1997.44,-1875.18
8320,-3.8722,1.3745,-0.0115,-976.32,-1747.38,1593.63
8330,-3.8722,1.3651,0.0198,-54.44,-1466.13,265.56
8340,-3.8723,1.3492,0.0371,-1257.57,-1466.13,-1765.62
8350,-3.8723,1.3344,0.0361,711.18,752.62,140.69
8360,-3.8724,1.3177,0.0221,-1195.07,627.56,-1640.56
8370,-3.8724,1.2910,-0.0005,679.93,-1169.31,1328.12
8380,-3.8724,1.2489,-0.0283,1258.06,-60.00,1765.56
8390,-3.8724,1.1929,-0.0586,-132.57,377.38,-265.69
8400,-3.8723,1.1290,-0.0897,695.56,502.32,-1500.12
8410,-3.8722,1.0623,-0.1237,523.68,517.82,1452.94
8420,-3.8721,0.9961,-0.1642,-23.19,173.89,171.63
8430,-3.8721,0.9384,-0.2126,-491.94,-1013.73,-1422.24
8440,-3.8719,0.8961,-0.2616,117.43,783.08,1077.70
8450,-3.8719,0.8683,-0.2971,-1288.82,-1482.67,-625.55
8460,-3.8718,0.8503,-0.3164,-851.32,1970.40,296.26
8470,-3.8719,0.8452,-0.3318,851.81,-498.35,-844.42
8480,-3.8719,0.8568,-0.3529,195.56,1532.90,1327.45
8490,-3.8719,0.8827,-0.3795,1679.93,-1170.23,577.39
8500,-3.8719,0.9167,-0.4086,992.43,-576.42,1108.58
8510,-3.8719,0.9512,-0.4436,1351.81,-295.10,1905.40
8520,-3.8719,0.9756,-0.4866,1758.06,-779.42,1670.96
8530,-3.8721,0.9877,-0.5349,883.06,1720.64,-79.10
8540,-3.8721,0.9967,-0.5919,-1570.07,-466.86,1264.53
8550,-3.8722,1.0100,-0.6602,-413.82,236.27,-1438.66
8560,-3.8722,1.0277,-0.7302,1289.31,-498.05,264.28
8570,-3.8723,1.0413,-0.7888,-445.07,-1466.80,-1642.09
8580,-3.8723,1.0405,-0.8335,1289.31,-966.74,529.66
8590,-3.8724,1.0160,-0.8820,1195.56,1314.51,-1095.40
8600,-3.8724,0.9609,-0.9417,-1945.07,-888.67,-1954.90
8610,-3.8724,0.8658,-1.0061,-991.94,-529.42,-17.52
8620,-3.8722,0.7296,-1.0757,-1163.82,-779.60,-1064.51
8630,-3.8718,0.5725,-1.1425,1398.68,-1686.10,1935.36
8640,-3.8715,0.4257,-1.1897,1289.31,1766.72,1028.99
8650,-3.8712,0.3262,-1.2107,-1507.57,-280.46,325.74
8660,-3.8712,0.2820,-1.2083,1758.06,1031.86,-1346.13
8670,-3.8712,0.2518,-1.1960,101.81,1344.30,-1393.01
8680,-3.8711,0.1932,-1.1888,242.43,-1093.26,1294.49
8690,-3.8708,0.0930,-1.1752,742.43,-171.51,1122.62
8700,-3.8706,-0.0458,-1.1436,-85.69,1578.25,-17.94
8710,-3.8702,-0.1935,-1.1045,-1851.32,1640.50,1419.62
8720,-3.8701,-0.3022,-1.0648,-757.57,-1359.80,1357.18
8730,-3.8702,-0.3391,-1.0175,1320.56,-281.86,1982.24
8740,-3.8706,-0.3085,-0.9517,601.81,1780.58,-158.26
8750,-3.8710,-0.2488,-0.8711,523.68,-1797.49,-1830.02
8760,-3.8713,-0.2090,-0.7975,164.31,515.14,1701.42
8770,-3.8716,-0.2273,-0.7539,1258.06,1937.07,-1595.34
8780,-3.8716,-0.3127,-0.7439,-1085.69,-484.86,-1626.53
8790,-3.8713,-0.4465,-0.7561,-23.19,796.20,904.79
8800,-3.8711,-0.5989,-0.7715,-1148.19,-766.54,-1564.03
8810,-3.8708,-0.7402,-0.7739,-648.19,1264.40,-829.65
8820,-3.8706,-0.8384,-0.7568,1258.06,951.66,951.60
8830,-3.8706,-0.8862,-0.7169,695.56,-861.02,-1470.28
8840,-3.8707,-0.9067,-0.6622,-1429.44,248.23,-548.28
8850,-3.8708,-0.9175,-0.6042,-54.44,-751.83,1561.16
8860,-3.8711,-0.9275,-0.5469,-1429.44,-1329.96,-829.35
8870,-3.8712,-0.9417,-0.4976,1289.31,-1986.21,1202.03
8880,-3.8713,-0.9596,-0.4628,-523.19,326.23,342.77
8890,-3.8715,-0.9757,-0.4374,1179.93,779.36,217.83
8900,-3.8716,-0.9835,-0.4146,-882.57,29.30,624.15
8910,-3.8717,-0.9755,-0.3912,-1882.57,-1048.83,1499.15
8920,-3.8718,-0.9484,-0.3655,-851.32,1935.55,1530.46
8930,-3.8721,-0.9033,-0.3379,-1382.57,1232.48,-188.23
8940,-3.8722,-0.8452,-0.3156,383.06,763.85,1186.83
8950,-3.8724,-0.7803,-0.3142,-179.44,-376.71,-547.55
8960,-3.8726,-0.7159,-0.3464,133.06,-204.65,-313.17
8970,-3.8726,-0.6443,-0.4082,367.43,-329.53,-969.48
8980,-3.8724,-0.5616,-0.4821,1539.31,-235.66,-1735.23
8990,-3.8722,-0.4832,-0.5471,117.43,-1688.60,92.77
9000,-3.8721,-0.4147,-0.5826,-1835.69,1983.40,-1641.72
9010,-3.8719,-0.3523,-0.5861,-1070.07,1436.65,-954.28
9020,-3.8718,-0.2867,-0.5803,-1085.69,999.27,905.09
9030,-3.8718,-0.2130,-0.5854,-695.07,1733.76,936.34
9040,-3.8718,-0.1406,-0.6021,742.43,1077.70,670.72
9050,-3.8718,-0.0807,-0.6187,-1991.94,-1047.18,295.65
9060,-3.8719,-0.0355,-0.6305,1679.93,827.94,-16.85
9070,-3.8718,-0.0051,-0.6384,-538.82,-687.62,717.47
9080,-3.8718,0.0168,-0.6401,-648.19,-1703.19,-1220.03
9090,-3.8717,0.0415,-0.6383,-1835.69,-1937.50,1811.22
9100,-3.8716,0.0790,-0.6449,1320.56,-1703.06,1279.97
9110,-3.8715,0.1331,-0.6697,-1882.57,1453.25,1326.84
9120,-3.8713,0.1968,-0.7103,1039.31,-1718.51,-1595.09
9130,-3.8712,0.2648,-0.7587,1195.56,1078.49,-345.15
9140,-3.8710,0.3405,-0.7986,1898.68,-1108.89,404.72
9150,-3.8710,0.4232,-0.8014,-413.82,1781.86,-17.21
9160,-3.8708,0.5072,-0.7566,-1820.07,1422.67,764.04
9170,-3.8710,0.5844,-0.6864,929.93,-842.77,-1079.65
9180,-3.8710,0.6453,-0.6161,-1195.07,141.72,342.41
9190,-3.8711,0.6846,-0.5548,-1398.19,1141.85,-1594.97
9200,-3.8711,0.7065,-0.5028,-366.94,985.66,1358.28
9210,-3.8711,0.7183,-0.4653,-1554.44,-358.03,1139.59
9220,-3.8711,0.7231,-0.4441,-54.44,438.84,-1969.67
9230,-3.8710,0.7247,-0.4329,570.56,-842.35,77.21
9240,-3.8710,0.7291,-0.4252,773.68,595.15,-1141.48
9250,-3.8708,0.7400,-0.4104,1336.18,1579.53,1030.40
9260,-3.8708,0.7600,-0.3823,-1273.19,-529.85,1608.52
9270,-3.8708,0.7931,-0.3467,1289.31,-936.04,1514.83
9280,-3.8708,0.8350,-0.3083,1523.68,-373.47,1280.52
9290,-3.8708,0.8759,-0.2649,-1116.94,532.84,77.51
9300,-3.8710,0.9058,-0.2250,117.43,-1904.54,1999.45
9310,-3.8711,0.9263,-0.1913,-54.44,-795.17,-125.49
9320,-3.8711,0.9437,-0.1587,-1429.44,-482.60,-1937.93
9330,-3.8711,0.9534,-0.1295,804.93,-310.67,687.13
9340,-3.8712,0.9524,-0.1047,-1960.69,-576.29,-500.31
9350,-3.8712,0.9446,-0.0850,1914.31,-1404.42,-1890.87
9360,-3.8713,0.9351,-0.0696,914.31,1126.83,-0.18
9370,-3.8713,0.9283,-0.0562,-304.44,-904.48,1452.94
9380,-3.8715,0.9252,-0.0430,-1163.82,814.27,-843.87
9390,-3.8715,0.9226,-0.0293,-1570.07,-1498.23,687.38
9400,-3.8716,0.9187,-0.0153,-1898.19,251.77,1468.69
9410,-3.8717,0.9139,-0.0046,1601.81,-1951.35,1640.56
9420,-3.8718,0.9114,-0.0034,992.43,-591.98,1390.56
9430,-3.8719,0.9181,-0.0140,664.31,-435.73,1359.31
9440,-3.8721,0.9337,-0.0308,1523.68,-1795.10,-1640.69
9450,-3.8721,0.9502,-0.0483,-476.32,64.27,78.06
9460,-3.8722,0.9673,-0.0763,1633.06,1814.33,-1484.50
9470,-3.8722,0.9846,-0.1224,-179.44,-1763.79,-1234.56
9480,-3.8721,0.9930,-0.1664,-1960.69,330.02,671.63
9490,-3.8721,0.9893,-0.1884,-882.57,-1294.98,-1906.62
9500,-3.8721,0.9819,-0.1976,-1366.94,-107.48,1171.45
9510,-3.8722,0.9797,-0.2126,1695.56,-1294.98,-1672.30
9520,-3.8723,0.9814,-0.2378,1414.31,783.14,-922.30
9530,-3.8723,0.9807,-0.2761,1633.06,1564.39,796.39
9540,-3.8724,0.9735,-0.3223,1539.31,658.14,-156.80
9550,-3.8724,0.9578,-0.3684,617.43,-1248.11,-16.30
9560,-3.8723,0.9353,-0.4222,-1398.19,845.58,1499.27
9570,-3.8722,0.9119,-0.4891,-273.19,1954.90,155.40
9580,-3.8722,0.8875,-0.5609,726.81,1392.40,-157.23
9590,-3.8719,0.8545,-0.6270,1601.81,204.83,483.28
9600,-3.8718,0.8135,-0.6827,1383.06,-248.35,-1860.66
9610,-3.8716,0.7620,-0.7225,133.06,610.96,936.16
9620,-3.8713,0.6851,-0.7579,1539.31,-482.91,654.79
9630,-3.8711,0.5806,-0.8037,-304.44,-1014.34,1076.60
9640,-3.8708,0.4640,-0.8538,-1679.44,1126.10,1967.16
9650,-3.8706,0.3564,-0.8900,-601.32,-1280.40,1654.54
9660,-3.8705,0.2786,-0.9008,1633.06,-1921.20,1326.35
9670,-3.8706,0.2408,-0.8876,-335.69,703.61,-1189.27
9680,-3.8708,0.2242,-0.8569,-1163.82,-1608.95,-1158.02
9690,-3.8711,0.1945,-0.8282,711.18,-1687.07,-1439.21
9700,-3.8712,0.1471,-0.8260,898.68,1984.74,-1204.77
9710,-3.8712,0.0929,-0.8416,-1163.82,-1734.13,-548.52
9720,-3.8711,0.0248,-0.8446,-101.32,281.37,1873.35
9730,-3.8711,-0.0586,-0.8351,-820.07,-109.38,-1.71
9740,-3.8710,-0.1394,-0.8318,508.06,1124.88,529.60
9750,-3.8711,-0.2029,-0.8308,-1835.69,1546.57,-642.27
9760,-3.8711,-0.2458,-0.8168,-1960.69,1671.45,1045.23
9770,-3.8712,-0.2726,-0.7930,539.31,-531.74,1842.10
9780,-3.8713,-0.2916,-0.7722,1117.43,-1484.92,-1954.71
9790,-3.8715,-0.3240,-0.7552,-1320.07,1171.26,-1157.78
9800,-3.8715,-0.3911,-0.7382,-1460.69,-656.92,-1189.03
9810,-3.8713,-0.4924,-0.7194,1945.56,1530.46,-1063.96
9820,-3.8711,-0.6134,-0.7023,976.81,-63.48,1139.16
9830,-3.8710,-0.7375,-0.6960,1492.43,-1876.22,-1485.78
9840,-3.8708,-0.8450,-0.6919,1601.81,-1079.59,1186.10
9850,-3.8708,-0.9198,-0.6636,-148.19,-548.58,576.72
9860,-3.8710,-0.9597,-0.6023,-1726.32,-923.71,279.91
9870,-3.8712,-0.9752,-0.5275,1164.31,-1080.02,1358.15
9880,-3.8715,-0.9797,-0.4647,-820.07,498.05,-1344.79
9890,-3.8716,-0.9839,-0.4290,-1398.19,529.30,1733.46
9900,-3.8717,-0.9908,-0.4259,-1929.44,1107.42,-1063.35
9910,-3.8717,-0.9948,-0.4459,1179.93,1498.05,-1922.73
9920,-3.8717,-0.9891,-0.4681,679.93,-1064.45,-1954.04
9930,-3.8717,-0.9675,-0.4808,1398.68,91.80,1045.96
9940,-3.8718,-0.9258,-0.4802,164.31,-1533.14,1733.40
9950,-3.8719,-0.8702,-0.4736,1508.06,-1454.96,1014.65
9960,-3.8721,-0.8080,-0.4883,617.43,-611.08,952.15
9970,-3.8721,-0.7476,-0.5443,586.18,1514.04,405.27
9980,-3.8719,-0.6959,-0.6329,320.56,-1657.71,-1407.35
9990,-3.8716,-0.6498,-0.7197,-1070.07,-1001.40,-1329.41
10000,-3.8711,-0.6002,-0.7809,836.18,-110.66,482.91
10010,-3.8707,-0.5435,-0.8264,-820.07,61.28,1560.97
10020,-3.8704,-0.4836,-0.8677,-1554.44,-1766.72,1451.48
10030,-3.8701,-0.4165,-0.8917,-1898.19,952.15,-1173.58
10040,-3.8699,-0.3475,-0.8738,-1304.44,1874.15,420.10
10050,-3.8699,-0.2960,-0.8264,-476.32,171.14,810.79
10060,-3.8700,-0.2643,-0.7911,-1882.57,-1766.24,435.85
10070,-3.8702,-0.2454,-0.7834,-1820.07,-1250.55,-564.09
10080,-3.8702,-0.2401,-0.7789,601.81,-266.11,248.41
10090,-3.8704,-0.2546,-0.7411,1273.68,312.01,1967.22
