timestamp_ms,ax,ay,az,gx,gy,gz
0,-3.8723,1.1625,-0.1189,1242.43,-1153.99,-890.93
10,-3.8723,1.1461,-0.1108,804.93,783.51,-1078.37
20,-3.8723,1.1248,-0.0966,-1288.82,1814.70,1781.01
30,-3.8724,1.1030,-0.0758,-23.19,-357.24,-640.87
40,-3.8724,1.0852,-0.0513,1195.56,-1700.99,296.69
50,-3.8726,1.0710,-0.0323,-1085.69,1439.58,1374.88
60,-3.8727,1.0513,-0.0325,1101.81,-138.55,-687.62
70,-3.8727,1.0179,-0.0581,-1429.44,-154.24,-593.87
80,-3.8726,0.9729,-0.1062,-1695.07,564.45,-1578.25
90,-3.8724,0.9232,-0.1630,539.31,-1591.86,-234.62
100,-3.8722,0.8766,-0.2084,-1820.07,-857.60,1780.88
110,-3.8721,0.8380,-0.2297,211.18,1329.83,-1375.43
120,-3.8719,0.8051,-0.2323,-726.32,-1404.66,1093.26
130,-3.8719,0.7738,-0.2333,-945.07,-1732.85,1702.64
140,-3.8719,0.7421,-0.2494,-945.07,-1857.91,-1359.86
150,-3.8718,0.7084,-0.2864,-1007.57,79.53,1468.26
160,-3.8717,0.6749,-0.3315,-1320.07,-654.91,1702.51
170,-3.8716,0.6472,-0.3673,-1601.32,1563.78,1514.95
180,-3.8716,0.6317,-0.3918,-1148.19,985.60,-641.36
190,-3.8716,0.6353,-0.4172,867.43,1844.97,-813.29
200,-3.8716,0.6591,-0.4503,1320.56,-1405.03,-1953.98
210,-3.8716,0.6968,-0.4862,367.43,-1639.34,592.83
220,-3.8717,0.7400,-0.5146,1195.56,1766.97,-704.10
230,-3.8717,0.7749,-0.5315,-1273.19,-1873.60,-1329.16
240,-3.8717,0.7930,-0.5470,-804.44,-29.79,-1344.85
250,-3.8717,0.8005,-0.5741,1508.06,1985.90,-1641.72
260,-3.8717,0.8052,-0.6149,-1523.19,-1482.85,748.84
270,-3.8718,0.8037,-0.6622,-929.44,1298.40,1858.15
280,-3.8719,0.7910,-0.7087,-1116.94,-764.10,-1001.34
290,-3.8719,0.7695,-0.7511,1258.06,1282.78,1264.22
300,-3.8719,0.7397,-0.7925,-1491.94,-139.16,764.10
310,-3.8719,0.6932,-0.8439,-1304.44,-1436.10,1639.04
320,-3.8719,0.6276,-0.9001,742.43,-14.28,-376.71
330,-3.8718,0.5476,-0.9426,336.18,782.47,-1673.65
340,-3.8717,0.4637,-0.9635,-1898.19,-655.21,1279.36
350,-3.8717,0.3929,-0.9666,-632.57,672.73,-1220.64
360,-3.8717,0.3459,-0.9630,-1695.07,281.98,1591.86
370,-3.8718,0.3173,-0.9567,289.31,735.05,-1111.27
380,-3.8718,0.2904,-0.9463,617.43,1547.49,982.48
390,-3.8718,0.2460,-0.9329,1179.93,-1124.45,1685.61
400,-3.8717,0.1642,-0.9202,-507.57,594.18,-1923.71
410,-3.8715,0.0394,-0.9094,1023.68,-1780.94,-1751.83
420,-3.8711,-0.1089,-0.8947,1054.93,-406.19,388.79
430,-3.8708,-0.2474,-0.8732,-1929.44,1499.76,1279.48
440,-3.8707,-0.3442,-0.8457,336.18,249.51,1904.54
450,-3.8707,-0.3817,-0.8064,-54.44,-235.11,1404.54
460,-3.8708,-0.3568,-0.7563,-851.32,796.08,279.66
470,-3.8712,-0.2885,-0.7067,-1663.82,-797.61,-360.90
480,-3.8715,-0.2231,-0.6605,-913.82,1561.89,-1251.40
490,-3.8716,-0.2012,-0.6320,-554.44,-531.74,1467.41
500,-3.8716,-0.2325,-0.6313,-1741.94,-875.43,936.22
510,-3.8716,-0.3096,-0.6418,-1757.57,-797.36,-126.28
520,-3.8713,-0.4059,-0.6504,383.06,1858.76,326.84
530,-3.8712,-0.4888,-0.6644,54.93,764.83,686.22
540,-3.8711,-0.5458,-0.6870,1445.56,-1032.23,889.28
550,-3.8710,-0.5784,-0.6985,-1851.32,77.03,498.66
560,-3.8710,-0.5968,-0.6810,1976.81,-1391.78,1607.97
570,-3.8711,-0.6205,-0.6337,-382.57,842.53,-704.47
580,-3.8712,-0.6620,-0.5680,586.18,-1094.97,-641.91
590,-3.8712,-0.7256,-0.5125,-726.32,-688.84,233.22
600,-3.8713,-0.8097,-0.4872,-866.94,-1579.59,-1438.54
610,-3.8713,-0.9014,-0.4749,367.43,1654.66,1530.27
620,-3.8715,-0.9830,-0.4489,633.06,-767.40,-204.10
630,-3.8715,-1.0409,-0.4053,-1820.07,-1439.45,655.33
640,-3.8716,-1.0718,-0.3596,-1226.32,138.55,717.96
650,-3.8717,-1.0731,-0.3279,-1179.44,1982.24,952.39
660,-3.8718,-1.0378,-0.3167,-1351.32,-1955.26,1952.45
670,-3.8719,-0.9700,-0.3263,-835.69,-517.70,-1031.92
680,-3.8721,-0.8888,-0.3514,-148.19,-1751.95,-1031.92
690,-3.8722,-0.8154,-0.3892,-1757.57,-970.52,-1438.23
700,-3.8723,-0.7545,-0.4431,-366.94,-1798.52,-328.92
710,-3.8723,-0.6914,-0.5089,-570.07,-704.65,-204.04
720,-3.8722,-0.6169,-0.5719,-491.94,-1126.40,-1032.29
730,-3.8721,-0.5400,-0.6292,1039.31,-1188.72,-579.28
740,-3.8719,-0.4688,-0.6827,-1116.94,-516.72,-938.78
750,-3.8718,-0.4022,-0.7223,8.06,624.08,1748.66
760,-3.8718,-0.3414,-0.7479,523.68,-438.29,-173.34
770,-3.8717,-0.2947,-0.7766,304.93,280.58,1045.41
780,-3.8717,-0.2651,-0.8209,-1710.69,608.76,1389.10
790,-3.8717,-0.2408,-0.8832,-1929.44,-1063.05,1842.10
800,-3.8716,-0.2008,-0.9536,1179.93,-1031.74,13.85
810,-3.8716,-0.1307,-1.0076,-1695.07,1952.70,-314.39
820,-3.8715,-0.0358,-1.0311,-726.32,-953.43,-1236.39
830,-3.8713,0.0725,-1.0402,-570.07,31.13,372.99
840,-3.8713,0.1815,-1.0505,1289.31,-1140.50,1591.67
850,-3.8713,0.2749,-1.0621,-757.57,1531.56,-502.08
860,-3.8712,0.3417,-1.0713,-804.44,47.36,-1611.45
870,-3.8711,0.3794,-1.0673,-257.57,-1124.39,1779.11
880,-3.8710,0.3942,-1.0482,570.56,-608.64,794.74
890,-3.8710,0.4019,-1.0211,-1538.82,1828.86,-1595.83
900,-3.8710,0.4106,-0.9784,-554.44,1297.61,-1970.76
910,-3.8711,0.4208,-0.9249,570.56,-1233.58,-33.20
920,-3.8711,0.4357,-0.8800,1867.43,1610.17,1216.92
930,-3.8712,0.4615,-0.8545,-226.32,-639.83,-1173.65
940,-3.8712,0.5026,-0.8461,-913.82,-1374.15,1295.17
950,-3.8712,0.5569,-0.8400,336.18,-295.90,560.79
960,-3.8712,0.6200,-0.8241,-710.69,485.41,279.60
970,-3.8713,0.6859,-0.7954,-632.57,-1483.22,-1.65
980,-3.8713,0.7463,-0.7551,-195.07,-1811.22,-220.34
990,-3.8713,0.7993,-0.7006,-460.69,-654.85,-1220.28
1000,-3.8715,0.8525,-0.6342,-1679.44,-1670.35,-610.78
1010,-3.8716,0.9121,-0.5605,1133.06,-1170.23,1217.47
1020,-3.8718,0.9763,-0.4868,758.06,251.77,1373.90
1030,-3.8721,1.0461,-0.4191,976.81,1689.39,889.65
1040,-3.8723,1.1284,-0.3542,1914.31,-1638.61,499.15
1050,-3.8726,1.2191,-0.2938,445.56,-1341.55,1358.64
1060,-3.8727,1.3018,-0.2498,54.93,-1606.99,702.51
1070,-3.8728,1.3639,-0.2311,-1366.94,33.75,-422.36
1080,-3.8727,1.4006,-0.2175,-1413.82,-1575.50,1562.01
1090,-3.8726,1.4061,-0.1819,-710.69,158.94,171.45
1100,-3.8726,1.3813,-0.1338,-7.57,721.44,718.38
1110,-3.8727,1.3423,-0.0939,820.56,-1122.31,-1281.56
1120,-3.8728,1.3020,-0.0637,-179.44,-13.06,-547.12
1130,-3.8728,1.2589,-0.0382,-1335.69,-153.75,109.19
1140,-3.8729,1.2128,-0.0170,1148.68,-888.18,1499.88
1150,-3.8729,1.1696,-0.0028,-757.57,1830.44,78.06
1160,-3.8730,1.1351,-0.0034,1711.18,-357.12,-296.94
1170,-3.8729,1.1143,-0.0242,1304.93,-435.30,249.94
1180,-3.8729,1.1058,-0.0557,-1366.94,908.39,1859.31
1190,-3.8728,1.1017,-0.0890,1554.93,877.14,437.38
1200,-3.8728,1.0968,-0.1322,1023.68,611.51,-343.93
1210,-3.8727,1.0958,-0.1743,398.68,-919.74,-203.43
1220,-3.8724,1.0919,-0.1863,273.68,1689.64,77.76
1230,-3.8724,1.0762,-0.1698,-226.32,158.33,-1750.37
1240,-3.8724,1.0530,-0.1528,1758.06,-1732.30,1671.51
1250,-3.8726,1.0275,-0.1584,-1210.69,439.51,-172.18
1260,-3.8726,1.0005,-0.1931,-476.32,-279.30,-1453.49
1270,-3.8726,0.9778,-0.2469,70.56,-716.80,-969.18
1280,-3.8724,0.9747,-0.3081,1164.31,392.52,1843.26
1290,-3.8723,0.9923,-0.3751,773.68,564.39,1890.01
1300,-3.8722,1.0181,-0.4489,-976.32,-13.73,1530.46
1310,-3.8721,1.0450,-0.5249,-1679.44,-1451.17,1108.46
1320,-3.8719,1.0703,-0.5913,1773.68,814.51,420.84
1330,-3.8719,1.0845,-0.6392,1008.06,314.58,1639.47
1340,-3.8719,1.0765,-0.6761,-1179.44,-1810.42,983.09
1350,-3.8721,1.0452,-0.7230,1804.93,1455.20,-1.34
1360,-3.8721,0.9899,-0.7990,1789.31,-544.86,-32.71
1370,-3.8719,0.9137,-0.8970,-1288.82,1736.27,-1876.59
1380,-3.8718,0.8409,-0.9854,961.18,1189.27,1263.85
1390,-3.8718,0.7958,-1.0491,-351.32,1876.59,-1611.33
1400,-3.8718,0.7634,-1.0907,1867.43,1720.28,13.55
1410,-3.8719,0.7135,-1.1113,1726.81,392.09,482.24
1420,-3.8721,0.6306,-1.1207,-663.82,1751.34,-377.20
1430,-3.8719,0.5092,-1.1321,726.81,548.10,-939.70
1440,-3.8717,0.3464,-1.1455,1179.93,-905.27,-1721.01
1450,-3.8715,0.1560,-1.1582,351.81,1375.67,-705.38
1460,-3.8711,-0.0261,-1.1693,-23.19,-249.76,903.93
1470,-3.8708,-0.1606,-1.1652,664.31,-1656.31,1575.81
1480,-3.8707,-0.2235,-1.1222,-554.44,-1125.37,-1627.32
1490,-3.8707,-0.2235,-1.0421,-601.32,374.51,607.18
1500,-3.8710,-0.2034,-0.9526,-601.32,-1375.49,841.67
1510,-3.8712,-0.2174,-0.8849,1976.81,-1922.30,888.73
1520,-3.8713,-0.2858,-0.8650,179.93,-1250.43,-1720.52
1530,-3.8712,-0.3922,-0.8860,-570.07,1296.26,-1923.58
1540,-3.8710,-0.5122,-0.9164,1804.93,-1391.42,1201.35
1550,-3.8708,-0.6185,-0.9281,-1554.44,-1282.29,-1626.83
1560,-3.8708,-0.6906,-0.9116,836.18,1217.53,-1611.21
1570,-3.8710,-0.7201,-0.8684,-382.57,-673.28,1357.54
1580,-3.8712,-0.7168,-0.8059,-163.82,857.91,1326.42
1590,-3.8715,-0.7043,-0.7396,258.06,857.97,826.54
1600,-3.8717,-0.7004,-0.6774,1851.81,1342.35,857.91
1610,-3.8719,-0.7101,-0.6228,-1648.19,1311.10,-1829.47
1620,-3.8721,-0.7354,-0.5797,1117.43,295.47,1889.40
1630,-3.8721,-0.7817,-0.5485,1883.06,1811.04,139.47
1640,-3.8721,-0.8491,-0.5238,-54.44,1810.91,436.40
1650,-3.8721,-0.9268,-0.4968,-679.44,967.04,1873.96
1660,-3.8721,-0.9984,-0.4581,1383.06,420.04,-1079.10
1670,-3.8721,-1.0492,-0.4086,211.18,1373.05,-1844.67
1680,-3.8722,-1.0718,-0.3561,1711.18,-283.33,-1219.60
1690,-3.8723,-1.0662,-0.3112,-1179.44,-1564.64,1686.77
1700,-3.8724,-1.0332,-0.2837,-460.69,185.36,374.39
1710,-3.8727,-0.9720,-0.2737,-241.94,-298.95,-125.61
1720,-3.8727,-0.8910,-0.2847,-413.82,982.42,1436.95
1730,-3.8727,-0.8043,-0.3066,1961.18,-423.65,-1938.11
1740,-3.8726,-0.7266,-0.3250,1054.93,764.04,874.39
1750,-3.8724,-0.6641,-0.3600,-991.94,-1579.59,468.08
1760,-3.8723,-0.6200,-0.4288,-991.94,1936.16,733.64
1770,-3.8722,-0.5966,-0.5150,648.68,1123.78,1686.65
1780,-3.8721,-0.5753,-0.6000,-351.32,-1907.47,-1735.41
1790,-3.8719,-0.5339,-0.6748,-1632.57,-782.41,1983.15
1800,-3.8718,-0.4677,-0.7312,-335.69,1639.53,1483.03
1810,-3.8717,-0.3925,-0.7694,148.68,-1579.04,920.41
1820,-3.8716,-0.3280,-0.8145,1773.68,1530.46,310.97
1830,-3.8715,-0.2827,-0.8890,-1976.32,-235.05,654.60
1840,-3.8713,-0.2526,-0.9762,-179.44,-1781.86,-736.15
1850,-3.8711,-0.2229,-1.0414,-320.07,-938.05,-423.83
1860,-3.8708,-0.1796,-1.0696,-523.19,-1281.74,-1111.45
1870,-3.8707,-0.1251,-1.0677,1023.68,-890.99,-1408.39
1880,-3.8707,-0.0715,-1.0464,-7.57,-656.56,-1658.39
1890,-3.8708,-0.0200,-1.0184,-1148.19,-1922.06,-658.33
1900,-3.8710,0.0364,-0.9985,1445.56,1656.19,-220.76
1910,-3.8710,0.1001,-0.9863,664.31,187.56,1232.42
1920,-3.8711,0.1663,-0.9739,820.56,1750.18,-1064.45
1930,-3.8711,0.2250,-0.9579,1289.31,-655.94,638.67
1940,-3.8712,0.2679,-0.9484,804.93,1391.05,-126.89
1950,-3.8711,0.2954,-0.9537,-1695.07,-1390.14,1623.11
1960,-3.8710,0.3103,-0.9629,1820.56,1922.42,701.23
1970,-3.8710,0.3208,-0.9673,-273.19,750.55,-1033.14
1980,-3.8710,0.3477,-0.9612,1070.56,188.11,-705.02
1990,-3.8710,0.4055,-0.9401,508.06,969.42,1904.36
2000,-3.8711,0.4938,-0.9054,-85.69,-327.39,-1330.02
2010,-3.8712,0.5999,-0.8579,-788.82,110.29,1779.48
2020,-3.8713,0.7031,-0.8062,789.31,-1811.34,482.67
2030,-3.8716,0.7939,-0.7604,-1991.94,813.84,-1.59
2040,-3.8716,0.8705,-0.7249,1633.06,-1326.60,1045.35
2050,-3.8717,0.9397,-0.7010,-570.07,-779.60,-563.96
2060,-3.8717,1.0089,-0.6802,289.31,-1732.54,-626.40
2070,-3.8717,1.0753,-0.6411,1148.68,939.45,-595.09
2080,-3.8717,1.1360,-0.5732,1648.68,1939.58,1154.97
2090,-3.8718,1.1879,-0.4879,1414.31,-1372.80,701.97
2100,-3.8721,1.2228,-0.4022,54.93,1549.19,-860.35
2110,-3.8722,1.2350,-0.3239,523.68,518.01,1874.21
2120,-3.8723,1.2297,-0.2533,-1913.82,-1450.74,1561.83
2130,-3.8724,1.2206,-0.1929,1414.31,-419.49,1765.08
2140,-3.8726,1.2190,-0.1509,242.43,-685.12,-1625.43
2150,-3.8726,1.2258,-0.1261,39.31,689.88,46.57
2160,-3.8727,1.2292,-0.1050,914.31,-138.24,-1125.31
2170,-3.8727,1.2214,-0.0847,1351.81,-1435.12,-1968.99
2180,-3.8727,1.2068,-0.0734,351.81,1158.63,1874.82
2190,-3.8727,1.1833,-0.0701,-1523.19,-1388.31,-1031.43
2200,-3.8726,1.1458,-0.0667,-523.19,-966.49,452.94
2210,-3.8726,1.1017,-0.0557,-1335.69,-529.05,1484.19
2220,-3.8726,1.0590,-0.0377,1023.68,877.14,1499.88
2230,-3.8726,1.0168,-0.0219,-445.07,-826.11,484.25
2240,-3.8727,0.9791,-0.0114,-1835.69,1205.08,-906.31
2250,-3.8727,0.9521,-0.0084,1336.18,-1451.23,-1343.81
2260,-3.8727,0.9294,-0.0200,1883.06,-1076.29,-187.56
2270,-3.8726,0.9015,-0.0459,-1023.19,1439.27,1953.06
2280,-3.8724,0.8779,-0.0884,-601.32,-1873.29,671.75
2290,-3.8723,0.8801,-0.1508,383.06,689.21,1187.32
2300,-3.8721,0.9070,-0.2086,664.31,704.83,218.44
2310,-3.8719,0.9340,-0.2360,101.81,1298.65,-1359.80
2320,-3.8718,0.9480,-0.2404,-445.07,1798.65,733.89
2330,-3.8719,0.9597,-0.2461,1351.81,1236.21,-828.61
2340,-3.8719,0.9825,-0.2693,-1148.19,501.83,-1937.99
2350,-3.8719,1.0128,-0.3162,1773.68,1533.14,-344.30
2360,-3.8718,1.0466,-0.3859,1648.68,-466.80,-1047.55
2370,-3.8717,1.0836,-0.4731,1976.81,-1388.61,-891.42
2380,-3.8716,1.1149,-0.5679,-1288.82,-560.42,-641.60
2390,-3.8715,1.1294,-0.6602,-1288.82,-685.36,-1548.03
2400,-3.8713,1.1239,-0.7377,570.56,-497.80,311.16
2410,-3.8713,1.0997,-0.7828,-132.57,1580.26,654.79
2420,-3.8715,1.0532,-0.8022,773.68,-200.99,-1329.71
2430,-3.8716,0.9851,-0.8237,-1179.44,1314.51,-923.46
2440,-3.8717,0.9030,-0.8652,-1898.19,-1435.61,-17.27
2450,-3.8717,0.8116,-0.9203,-413.82,1251.71,-1220.46
2460,-3.8717,0.7166,-0.9789,-101.32,-1795.35,-658.08
2470,-3.8716,0.6246,-1.0388,-273.19,-1295.53,701.17
2480,-3.8716,0.5426,-1.0909,-38.82,-967.59,-1845.83
2490,-3.8715,0.4709,-1.1279,1461.18,360.41,60.36
2500,-3.8715,0.3988,-1.1554,289.31,-374.08,-830.38
2510,-3.8713,0.3138,-1.1753,-945.07,110.11,-861.63
2520,-3.8712,0.2134,-1.1746,179.93,1563.11,-1002.32
2530,-3.8711,0.1001,-1.1469,-679.44,1656.62,1685.18
2540,-3.8711,-0.0186,-1.1023,820.56,1203.31,-1424.13
2550,-3.8711,-0.1335,-1.0530,1633.06,-1078.19,-1674.07
2560,-3.8711,-0.2439,-1.0074,-1085.69,1234.07,-1752.08
2570,-3.8711,-0.3510,-0.9696,789.31,-937.99,-658.26
2580,-3.8710,-0.4503,-0.9399,-913.82,-94.48,1107.42
2590,-3.8710,-0.5336,-0.9113,-1632.57,-297.79,1935.61
2600,-3.8710,-0.5973,-0.8713,-288.82,-626.10,841.92
2610,-3.8711,-0.6517,-0.8214,-445.07,483.15,-1892.33
2620,-3.8712,-0.7125,-0.7769,586.18,-1126.28,-1032.90
2630,-3.8712,-0.7805,-0.7435,804.93,576.72,748.47
2640,-3.8713,-0.8434,-0.7141,101.81,842.22,-454.59
2650,-3.8713,-0.8862,-0.6818,54.93,607.73,-1907.65
2660,-3.8715,-0.9042,-0.6412,-1429.44,748.23,-860.72
2670,-3.8716,-0.9070,-0.5959,273.68,1935.73,-1298.16
2680,-3.8717,-0.9060,-0.5553,-85.69,-267.46,1780.03
2690,-3.8718,-0.9077,-0.5281,39.31,935.73,1655.15
2700,-3.8719,-0.9131,-0.5142,-179.44,420.04,-1282.29
2710,-3.8719,-0.9204,-0.4960,-866.94,-1798.71,733.34
2720,-3.8721,-0.9308,-0.4633,-1804.44,529.42,-1579.10
2730,-3.8722,-0.9517,-0.4280,867.43,716.92,-829.04
2740,-3.8722,-0.9872,-0.4060,-1804.44,1232.48,1061.65
2750,-3.8722,-1.0215,-0.3966,1648.68,44.92,1264.83
2760,-3.8722,-1.0222,-0.3801,1258.06,1247.99,1983.58
2770,-3.8722,-0.9729,-0.3499,1164.31,-642.64,967.96
2780,-3.8723,-0.8904,-0.3208,-523.19,-767.58,1780.52
2790,-3.8724,-0.8040,-0.3041,-1960.69,-1048.65,1249.33
2800,-3.8726,-0.7299,-0.2998,1101.81,1092.16,1015.01
2810,-3.8727,-0.6718,-0.3116,-1413.82,1639.16,-953.74
2820,-3.8727,-0.6239,-0.3466,-1976.32,123.66,-375.61
2830,-3.8726,-0.5823,-0.3861,148.68,-344.97,1264.89
2840,-3.8726,-0.5514,-0.4080,1476.81,-1407.41,-1828.92
2850,-3.8726,-0.5330,-0.4156,1429.93,-204.22,1811.65
2860,-3.8726,-0.5305,-0.4312,-210.69,-1188.60,1108.52
2870,-3.8726,-0.5372,-0.4769,101.81,827.09,1374.15
2880,-3.8724,-0.5341,-0.5626,-757.57,-1032.35,608.40
2890,-3.8722,-0.4955,-0.6796,-351.32,-1.10,280.09
2900,-3.8719,-0.4174,-0.7887,586.18,1030.27,-235.72
2910,-3.8716,-0.3352,-0.8624,-1413.82,-938.35,-220.34
2920,-3.8712,-0.2751,-0.9203,1101.81,1624.33,1295.17
2930,-3.8710,-0.2339,-0.9836,789.31,-1781.80,310.67
2940,-3.8708,-0.2013,-1.0454,-1929.44,-1891.11,1998.05
2950,-3.8707,-0.1663,-1.0885,-1757.57,-1797.30,-1658.33
2960,-3.8706,-0.1265,-1.0999,-1273.19,687.13,404.11
2970,-3.8707,-0.0890,-1.0903,-179.44,-765.93,-142.82
2980,-3.8707,-0.0486,-1.0831,617.43,452.94,1185.36
2990,-3.8708,0.0031,-1.0918,1789.31,1374.88,-1674.01
3000,-3.8708,0.0675,-1.1213,398.68,250.00,1216.61
3010,-3.8708,0.1464,-1.1687,648.68,468.87,-1861.57
3020,-3.8707,0.2362,-1.2228,-1257.57,-1593.51,1435.18
3030,-3.8706,0.3236,-1.2560,-1757.57,-515.20,-1533.69
3040,-3.8705,0.3965,-1.2469,1429.93,-765.01,-1471.25
3050,-3.8704,0.4552,-1.2003,-1241.94,391.36,341.31
3060,-3.8705,0.5070,-1.1299,-1726.32,-1639.77,-643.01
3070,-3.8706,0.5685,-1.0490,898.68,-624.02,-1142.88
3080,-3.8708,0.6559,-0.9648,773.68,1735.47,-752.08
3090,-3.8711,0.7634,-0.8866,-38.82,501.22,-1642.52
3100,-3.8713,0.8760,-0.8197,1726.81,-1482.91,-1204.90
3110,-3.8715,0.9836,-0.7562,133.06,-920.17,1623.35
3120,-3.8716,1.0798,-0.6885,1914.31,-794.98,-1814.03
3130,-3.8716,1.1632,-0.6182,-1773.19,-122.92,248.60
3140,-3.8716,1.2336,-0.5582,898.68,877.26,764.40
3150,-3.8715,1.2821,-0.5116,1914.31,549.26,108.28
3160,-3.8713,1.2987,-0.4606,117.43,-1481.87,264.59
3170,-3.8713,1.2908,-0.3898,-1757.57,1049.38,1874.08
3180,-3.8715,1.2761,-0.3026,1226.81,-1888.12,-766.42
3190,-3.8716,1.2717,-0.2175,-648.19,1268.07,1327.51
3200,-3.8718,1.2834,-0.1525,-1210.69,158.69,-1172.30
3210,-3.8719,1.3011,-0.1113,289.31,486.88,1937.19
3220,-3.8721,1.3114,-0.0844,-1445.07,1752.50,-890.87
3230,-3.8721,1.3096,-0.0604,-132.57,1205.63,1390.44
3240,-3.8722,1.2977,-0.0392,-366.94,268.13,-78.25
3250,-3.8722,1.2833,-0.0293,-1882.57,-1013.12,-1406.37
3260,-3.8722,1.2720,-0.0336,273.68,252.50,-1906.31
3270,-3.8722,1.2550,-0.0439,-1179.44,-294.43,-1515.75
3280,-3.8722,1.2186,-0.0543,648.68,-1622.56,-1922.00
3290,-3.8722,1.1638,-0.0637,-7.57,1049.19,156.13
3300,-3.8723,1.1075,-0.0732,976.81,-153.99,1577.94
3310,-3.8724,1.0625,-0.0859,1773.68,-1372.86,-578.31
3320,-3.8724,1.0304,-0.1039,8.06,1002.08,-1343.93
3330,-3.8724,1.0052,-0.1270,-101.32,-1294.92,-468.99
3340,-3.8723,0.9794,-0.1555,679.93,-248.05,1905.94
3350,-3.8722,0.9509,-0.1906,1367.43,95.64,1015.32
3360,-3.8721,0.9209,-0.2279,1726.81,-388.79,312.07
3370,-3.8721,0.8887,-0.2631,1883.06,-1170.10,-234.86
3380,-3.8719,0.8575,-0.2974,1758.06,-1670.17,-1359.92
3390,-3.8718,0.8329,-0.3329,1773.68,1939.15,499.39
3400,-3.8718,0.8182,-0.3663,-1382.57,1392.21,1311.83
3410,-3.8718,0.8169,-0.3934,742.43,1110.96,780.52
3420,-3.8719,0.8289,-0.4150,570.56,1642.21,-1125.79
3430,-3.8719,0.8456,-0.4366,-1898.19,-1123.41,952.27
3440,-3.8719,0.8539,-0.4695,242.43,111.02,967.90
3450,-3.8719,0.8533,-0.5193,1304.93,-92.10,-1219.73
3460,-3.8718,0.8534,-0.5834,1226.81,1532.90,905.21
3470,-3.8718,0.8557,-0.6591,1242.43,1329.77,-1548.03
3480,-3.8718,0.8558,-0.7354,1539.31,-357.73,-579.47
3490,-3.8717,0.8511,-0.7997,1554.93,1876.65,279.79
3500,-3.8718,0.8412,-0.8401,945.56,1642.27,-126.59
3510,-3.8718,0.8225,-0.8553,-320.07,470.34,1060.85
3520,-3.8719,0.7789,-0.8625,1289.31,-1482.79,1732.67
3530,-3.8719,0.6825,-0.8848,-288.82,1595.21,1670.17
3540,-3.8718,0.5200,-0.9341,-632.57,-1248.72,-1.77
3550,-3.8713,0.3098,-0.9977,-1429.44,438.48,388.79
3560,-3.8710,0.0850,-1.0428,-335.69,297.42,-1408.20
3570,-3.8706,-0.1125,-1.0442,-1116.94,-1484.25,1669.80
3580,-3.8705,-0.2401,-0.9996,1601.81,-1640.87,1794.80
3590,-3.8706,-0.2800,-0.9215,1273.68,62.01,1138.67
3600,-3.8710,-0.2490,-0.8286,164.31,-1938.05,1373.17
3610,-3.8713,-0.1927,-0.7460,133.06,1952.64,545.23
3620,-3.8716,-0.1681,-0.7051,-663.82,530.82,-1720.21
3630,-3.8715,-0.2056,-0.7158,-1507.57,1765.26,1170.47
3640,-3.8712,-0.2902,-0.7474,1695.56,390.20,1717.35
3650,-3.8710,-0.3905,-0.7744,-1132.57,343.14,-1532.71
3660,-3.8708,-0.4836,-0.7927,-1976.32,889.83,-173.40
3670,-3.8707,-0.5525,-0.7993,-1898.19,-1454.10,1717.16
3680,-3.8708,-0.5930,-0.7867,1289.31,1702.03,-235.96
3690,-3.8710,-0.6187,-0.7476,101.81,-688.66,1264.04
3700,-3.8712,-0.6584,-0.6947,820.56,326.90,998.54
3710,-3.8715,-0.7402,-0.6471,-273.19,-907.59,-1142.03
3720,-3.8715,-0.8597,-0.6053,1258.06,1186.04,779.97
3730,-3.8715,-0.9888,-0.5676,1961.18,-1470.46,1998.78
3740,-3.8713,-1.1055,-0.5378,1445.56,-642.58,76.97
3750,-3.8713,-1.1979,-0.5094,-1491.94,-830.32,920.78
3760,-3.8715,-1.2592,-0.4709,-1320.07,-1189.88,-266.66
3770,-3.8715,-1.2863,-0.4200,-1163.82,-268.13,545.90
3780,-3.8717,-1.2812,-0.3635,-632.57,-1752.56,-360.23
3790,-3.8718,-1.2467,-0.3119,8.06,1481.87,1999.27
3800,-3.8719,-1.1803,-0.2780,429.93,91.31,468.14
3810,-3.8722,-1.0848,-0.2688,929.93,435.18,-672.42
3820,-3.8723,-0.9733,-0.2839,1148.68,1607.24,-1000.55
3830,-3.8723,-0.8553,-0.3242,-570.07,-330.08,515.01
3840,-3.8723,-0.7365,-0.3806,-1476.32,-1486.08,733.70
3850,-3.8723,-0.6313,-0.4282,1742.43,-704.59,-953.92
3860,-3.8722,-0.5525,-0.4507,-804.44,1201.84,1546.02
3870,-3.8722,-0.4958,-0.4539,1289.31,-1672.97,-1266.54
3880,-3.8722,-0.4534,-0.4578,539.31,1920.90,-532.17
3890,-3.8721,-0.4231,-0.4781,1976.81,1420.96,858.46
3900,-3.8721,-0.4049,-0.5173,1851.81,-1188.35,-1250.98
3910,-3.8719,-0.3979,-0.5636,179.93,1796.08,1327.09
3920,-3.8718,-0.3975,-0.6069,1070.56,-125.79,1061.34
3930,-3.8717,-0.3868,-0.6543,1133.06,-1672.67,-1938.72
3940,-3.8715,-0.3585,-0.7155,-1507.57,264.83,670.59
3950,-3.8712,-0.3246,-0.7891,-1882.57,436.77,1326.72
3960,-3.8710,-0.2955,-0.8507,-1538.82,-985.05,-1189.09
3970,-3.8707,-0.2683,-0.8779,-1820.07,-875.61,-1720.46
3980,-3.8706,-0.2325,-0.8904,1664.31,-359.92,-1673.65
3990,-3.8705,-0.1896,-0.9017,-1757.57,-1953.61,232.60
4000,-3.8705,-0.1516,-0.8956,-257.57,593.32,1341.98
4010,-3.8705,-0.1195,-0.8746,601.81,1374.69,1529.48
4020,-3.8705,-0.0792,-0.8561,711.18,62.26,1013.92
4030,-3.8705,-0.0295,-0.8430,1867.43,-1562.68,826.42
4040,-3.8705,0.0155,-0.8314,226.81,109.31,904.60
4050,-3.8705,0.0568,-0.8258,1992.43,1578.12,154.60
4060,-3.8706,0.1056,-0.8367,-726.32,-1703.06,-1095.40
4070,-3.8706,0.1638,-0.8652,1523.68,906.43,-1595.40
4080,-3.8706,0.2299,-0.8940,976.81,1250.31,-1064.21
4090,-3.8705,0.3013,-0.9093,1429.93,1562.93,545.10
4100,-3.8705,0.3763,-0.9198,-1429.44,-390.08,-1439.33
4110,-3.8705,0.4609,-0.9302,179.93,-1733.64,-798.71
4120,-3.8705,0.5583,-0.9248,-991.94,938.35,1185.67
4130,-3.8706,0.6654,-0.8936,-523.19,1626.04,310.67
4140,-3.8708,0.7847,-0.8453,1179.93,1626.28,1279.48
4150,-3.8711,0.9222,-0.7875,445.56,-201.60,1545.17
4160,-3.8713,1.0697,-0.7103,-1945.07,-795.10,1014.04
4170,-3.8717,1.2069,-0.6093,929.93,1080.20,-1220.15
4180,-3.8721,1.3219,-0.4973,-1507.57,-1982.06,-266.85
4190,-3.8723,1.4131,-0.3879,1211.18,346.31,1561.52
4200,-3.8726,1.4844,-0.2900,883.06,-1653.50,1233.58
4210,-3.8728,1.5419,-0.2046,-1991.94,-1122.13,-1172.49
4220,-3.8729,1.5840,-0.1273,1367.43,1815.49,1812.07
4230,-3.8730,1.6039,-0.0537,-1241.94,-293.82,1015.32
4240,-3.8733,1.6030,0.0159,1304.93,1128.11,-797.00
4250,-3.8734,1.5870,0.0742,1195.56,-1965.64,671.88
4260,-3.8737,1.5559,0.1106,-851.32,1503.05,-1296.75
4270,-3.8738,1.5122,0.1201,-835.69,-1840.76,-1484.19
4280,-3.8738,1.4656,0.1060,1570.56,-622.07,1109.56
4290,-3.8738,1.4185,0.0747,-398.19,1565.31,-1359.19
4300,-3.8737,1.3636,0.0306,1570.56,1565.25,-1687.38
4310,-3.8735,1.2941,-0.0211,-1445.07,-75.50,-218.75
4320,-3.8733,1.2091,-0.0645,1648.68,1299.38,-1875.06
4330,-3.8732,1.1198,-0.0873,-1226.32,-247.68,-562.68
4340,-3.8730,1.0414,-0.1016,-663.82,830.26,-625.18
4350,-3.8729,0.9763,-0.1232,1304.93,-997.99,-593.99
4360,-3.8727,0.9142,-0.1514,976.81,236.27,109.13
4370,-3.8726,0.8541,-0.1821,1023.68,626.77,562.19
4380,-3.8724,0.8060,-0.2184,1336.18,689.15,468.38
4390,-3.8723,0.7769,-0.2655,-820.07,48.40,155.82
4400,-3.8723,0.7700,-0.3229,-554.44,-1982.91,-859.92
4410,-3.8722,0.7898,-0.3827,-1429.44,-1326.66,608.70
4420,-3.8722,0.8383,-0.4358,1101.81,-982.85,1030.46
4430,-3.8722,0.8994,-0.4690,-695.07,220.34,1405.40
4440,-3.8722,0.9459,-0.4816,-866.94,-29.54,-1782.23
4450,-3.8722,0.9620,-0.4934,1086.18,-1638.79,-688.48
4460,-3.8721,0.9513,-0.5258,-851.32,845.58,202.15
4470,-3.8721,0.9308,-0.5837,1773.68,704.96,686.46
4480,-3.8721,0.9146,-0.6530,-851.32,1283.02,1264.47
4490,-3.8721,0.9069,-0.7227,1070.56,423.65,-1813.78
4500,-3.8721,0.9050,-0.7943,86.18,-498.23,-1423.34
4510,-3.8721,0.9036,-0.8615,-148.19,-1670.17,-1626.59
4520,-3.8721,0.8939,-0.9111,-335.69,1736.08,-1611.08
4530,-3.8721,0.8733,-0.9464,-1570.07,-623.29,-1095.58
4540,-3.8721,0.8451,-0.9825,-210.69,-1138.98,-814.39
4550,-3.8721,0.8093,-1.0293,179.93,-1763.98,-1173.83
4560,-3.8721,0.7568,-1.0837,-398.19,251.53,-1377.01
4570,-3.8721,0.6752,-1.1460,883.06,1282.71,-267.76
4580,-3.8719,0.5642,-1.2178,-1570.07,1313.78,-1189.76
4590,-3.8718,0.4380,-1.2832,226.81,126.10,-549.26
4600,-3.8716,0.3164,-1.3254,70.56,-249.15,747.44
4610,-3.8715,0.2112,-1.3394,508.06,-1655.64,1419.25
4620,-3.8713,0.1115,-1.3346,-960.69,562.87,1622.38
4630,-3.8711,-0.0123,-1.3282,-1726.32,1172.06,153.63
4640,-3.8708,-0.1826,-1.3196,-1570.07,1999.94,-1299.50
4650,-3.8705,-0.3905,-1.2964,633.06,-890.99,-612.00
4660,-3.8701,-0.5974,-1.2559,-1976.32,-1922.67,1716.19
4670,-3.8700,-0.7583,-1.1934,-460.69,-735.60,1403.75
4680,-3.8701,-0.8497,-1.1162,-1054.44,-735.90,1372.62
4690,-3.8704,-0.8854,-1.0499,-757.57,1138.92,169.68
4700,-3.8707,-0.9087,-0.9999,-1320.07,1623.23,-689.58
4710,-3.8707,-0.9556,-0.9584,-304.44,29.42,138.67
4720,-3.8707,-1.0363,-0.9233,1695.56,1341.86,-720.64
4730,-3.8705,-1.1434,-0.8929,-632.57,1826.05,1013.79
4740,-3.8704,-1.2529,-0.8575,1648.68,1716.49,1216.98
4750,-3.8704,-1.3383,-0.8114,-366.94,-1752.50,1670.17
4760,-3.8705,-1.3827,-0.7504,711.18,153.63,1435.91
4770,-3.8707,-1.3878,-0.6672,-976.32,-34.00,154.72
4780,-3.8712,-1.3683,-0.5647,-1632.57,-1393.37,-1032.59
4790,-3.8716,-1.3335,-0.4559,867.43,-268.31,451.97
4800,-3.8721,-1.2865,-0.3573,1320.56,1653.63,-1235.29
4810,-3.8724,-1.2313,-0.2844,-663.82,-1721.31,-1000.73
4820,-3.8727,-1.1617,-0.2461,-1601.32,-393.07,1827.51
4830,-3.8729,-1.0675,-0.2390,-695.07,513.31,-266.11
4840,-3.8729,-0.9591,-0.2581,-632.57,1419.74,905.76
4850,-3.8729,-0.8577,-0.3032,1242.43,-1017.52,983.83
4860,-3.8728,-0.7719,-0.3756,-1773.19,1201.42,280.64
4870,-3.8727,-0.6938,-0.4601,1211.18,-64.03,-1953.92
4880,-3.8726,-0.6141,-0.5349,-804.44,1123.60,-0.92
4890,-3.8723,-0.5358,-0.5956,1398.68,-454.35,1123.90
4900,-3.8722,-0.4696,-0.6510,-570.07,-219.85,1639.40
4910,-3.8721,-0.4164,-0.7089,-101.32,686.52,1670.59
4920,-3.8719,-0.3700,-0.7616,-1288.82,1280.40,576.72
4930,-3.8719,-0.3224,-0.8025,648.68,-1469.48,1748.47
4940,-3.8719,-0.2672,-0.8297,-1257.57,1296.20,1357.79
4950,-3.8719,-0.2148,-0.8468,1804.93,1811.95,1404.60
4960,-3.8719,-0.1788,-0.8756,508.06,-375.43,-111.08
4970,-3.8717,-0.1536,-0.9288,1117.43,-62.87,545.10
4980,-3.8716,-0.1213,-0.9901,351.81,1124.69,1826.29
4990,-3.8715,-0.0688,-1.0360,476.81,1281.01,-1439.45
5000,-3.8713,0.0063,-1.0598,-804.44,-593.93,-1502.08
5010,-3.8712,0.0948,-1.0626,820.56,343.75,-1861.45
5020,-3.8711,0.1786,-1.0476,148.68,-15.44,1997.86
5030,-3.8710,0.2463,-1.0253,-1132.57,1906.56,1388.55
5040,-3.8710,0.3060,-1.0065,-460.69,766.05,-392.64
5050,-3.8708,0.3712,-0.9967,-820.07,-827.58,763.61
5060,-3.8708,0.4500,-0.9966,-476.32,422.55,-1798.83
5070,-3.8707,0.5386,-0.9900,1601.81,438.35,1060.55
5080,-3.8707,0.6204,-0.9564,945.56,1282.29,-455.08
5090,-3.8707,0.6746,-0.8953,-585.69,1579.28,-158.14
5100,-3.8707,0.6917,-0.8245,-1648.19,1407.53,-986.15
5110,-3.8707,0.6829,-0.7609,539.31,-1529.91,-1564.15
5120,-3.8707,0.6731,-0.7074,-585.69,-1389.34,1654.72
5130,-3.8708,0.6853,-0.6581,-1835.69,1454.41,-63.90
5140,-3.8708,0.7219,-0.6123,-273.19,-233.09,-1766.97
5150,-3.8708,0.7703,-0.5770,414.31,1626.40,1811.28
5160,-3.8708,0.8242,-0.5475,-1398.19,-1857.91,-1923.03
5170,-3.8708,0.8856,-0.5135,1508.06,1923.46,1389.53
5180,-3.8710,0.9525,-0.4745,1367.43,-1732.67,-797.91
5190,-3.8711,1.0149,-0.4244,1929.93,-732.54,-344.73
5200,-3.8712,1.0641,-0.3528,1914.31,1673.83,-1500.85
5210,-3.8713,1.0986,-0.2712,211.18,-1154.17,155.52
5220,-3.8716,1.1251,-0.2024,633.06,1283.39,-1938.05
5230,-3.8717,1.1492,-0.1556,23.68,-1904.05,1765.20
5240,-3.8718,1.1710,-0.1251,-898.19,80.32,-140.93
5250,-3.8718,1.1836,-0.1028,1898.68,-13.37,-1234.68
5260,-3.8718,1.1804,-0.0839,-491.94,-1153.99,765.38
5270,-3.8719,1.1704,-0.0624,-898.19,1267.88,1687.32
5280,-3.8721,1.1681,-0.0403,1820.56,17.88,1921.75
5290,-3.8722,1.1731,-0.0328,1523.68,-1153.99,-1390.75
5300,-3.8722,1.1621,-0.0405,-1835.69,-200.87,281.13
5310,-3.8723,1.1166,-0.0442,758.06,-1185.24,-1265.75
5320,-3.8723,1.0502,-0.0385,-1070.07,-1654.11,1390.50
5330,-3.8724,0.9883,-0.0315,-1570.07,-919.86,-984.50
5340,-3.8726,0.9417,-0.0288,-1491.94,-29.36,-875.12
5350,-3.8727,0.9056,-0.0312,539.31,314.33,-921.94
5360,-3.8727,0.8688,-0.0371,-70.07,1.71,546.81
5370,-3.8728,0.8292,-0.0465,-788.82,-748.35,-609.50
5380,-3.8728,0.7990,-0.0623,-1851.32,-1951.54,-265.75
5390,-3.8727,0.7845,-0.0863,-1726.32,32.78,-1453.25
5400,-3.8726,0.7800,-0.1132,429.93,954.65,-1375.18
5410,-3.8724,0.7770,-0.1387,-148.19,1517.09,1624.76
5420,-3.8724,0.7717,-0.1700,-538.82,-1748.54,-562.81
5430,-3.8723,0.7644,-0.2039,-1210.69,-1764.16,1546.51
5440,-3.8723,0.7631,-0.2316,1851.81,1907.71,-562.93
5450,-3.8723,0.7792,-0.2616,1679.93,-1639.16,-187.99
5460,-3.8723,0.8092,-0.3042,-257.57,-1482.91,-1203.67
5470,-3.8723,0.8405,-0.3561,-413.82,1064.03,1171.26
5480,-3.8723,0.8643,-0.4080,-413.82,-1576.54,405.52
5490,-3.8723,0.8794,-0.4543,-1366.94,-217.10,1436.65
5500,-3.8723,0.8905,-0.5009,570.56,1845.46,-375.92
5510,-3.8722,0.9062,-0.5538,1992.43,-107.67,1748.96
5520,-3.8722,0.9253,-0.6112,8.06,1111.15,-579.22
5530,-3.8721,0.9377,-0.6678,-1554.44,1767.40,420.65
5540,-3.8722,0.9357,-0.7219,39.31,-1482.54,-63.84
5550,-3.8722,0.9121,-0.7750,-226.32,-404.48,-1548.34
5560,-3.8722,0.8622,-0.8335,758.06,798.65,1404.72
5570,-3.8722,0.7938,-0.8986,-1632.57,1314.15,1232.73
5580,-3.8722,0.7277,-0.9614,1617.43,985.90,1404.48
5590,-3.8722,0.6763,-1.0221,1148.68,938.90,1388.73
5600,-3.8722,0.6340,-1.0811,-1429.44,1173.16,1279.24
5610,-3.8722,0.5824,-1.1228,1164.31,1626.22,-1877.14
5620,-3.8721,0.4974,-1.1461,-1445.07,282.35,1247.80
5630,-3.8719,0.3730,-1.1741,-320.07,1297.79,-455.38
5640,-3.8716,0.2172,-1.2178,-241.94,1719.42,1138.31
5650,-3.8712,0.0354,-1.2645,-195.07,125.37,1044.49
5660,-3.8708,-0.1514,-1.2958,539.31,-1859.31,1591.25
5670,-3.8705,-0.3066,-1.2968,633.06,-1844.06,1528.69
5680,-3.8702,-0.4172,-1.2590,758.06,-1969.36,-940.06
5690,-3.8701,-0.4952,-1.1912,-1398.19,-1141.48,-627.50
5700,-3.8701,-0.5546,-1.1183,617.43,-454.10,-1877.38
5710,-3.8702,-0.6179,-1.0570,1023.68,873.90,-1674.07
5720,-3.8704,-0.7111,-1.0076,914.31,717.53,-705.20
5730,-3.8704,-0.8287,-0.9683,992.43,-954.53,-1252.01
5740,-3.8704,-0.9333,-0.9342,1929.93,76.48,-455.02
5750,-3.8704,-0.9934,-0.8967,539.31,435.67,-1423.71
5760,-3.8705,-1.0038,-0.8495,851.81,1232.42,1654.48
5770,-3.8707,-0.9773,-0.7969,-476.32,-720.76,1092.04
5780,-3.8711,-0.9331,-0.7487,-1085.69,-1986.33,-985.96
5790,-3.8713,-0.8895,-0.7083,570.56,185.67,1248.54
5800,-3.8716,-0.8605,-0.6763,-1851.32,1357.60,576.72
5810,-3.8718,-0.8507,-0.6533,1867.43,1451.42,1514.28
5820,-3.8719,-0.8533,-0.6384,-882.57,388.92,436.22
5830,-3.8721,-0.8582,-0.6165,-1210.69,-1704.83,1029.97
5840,-3.8722,-0.8622,-0.5702,-1835.69,1107.67,1451.90
5850,-3.8723,-0.8636,-0.5104,1648.68,-970.46,655.09
5860,-3.8726,-0.8571,-0.4613,1461.18,-1314.21,-188.54
5870,-3.8727,-0.8402,-0.4276,-1695.07,967.04,-0.92
5880,-3.8727,-0.8108,-0.4011,461.18,1279.60,905.40
5890,-3.8728,-0.7687,-0.3831,226.81,670.29,1842.96
5900,-3.8729,-0.7195,-0.3818,1617.43,-1017.15,-1578.92
5910,-3.8730,-0.6685,-0.3962,-85.69,-860.84,-953.92
5920,-3.8730,-0.6206,-0.4249,-1554.44,1295.53,811.71
5930,-3.8730,-0.5793,-0.4795,570.56,1623.78,499.15
5940,-3.8730,-0.5323,-0.5610,1851.81,-1360.53,-1032.23
5950,-3.8728,-0.4639,-0.6481,-132.57,202.03,373.90
5960,-3.8727,-0.3762,-0.7285,633.06,1061.58,-985.66
5970,-3.8724,-0.2800,-0.8118,-148.19,-1235.17,1811.04
5980,-3.8722,-0.1885,-0.8949,164.31,108.83,1295.29
5990,-3.8719,-0.1152,-0.9586,-116.94,1468.32,1748.23
6000,-3.8717,-0.0682,-0.9949,1258.06,1312.26,1794.98
6010,-3.8716,-0.0436,-1.0138,-726.32,671.69,-830.08
6020,-3.8715,-0.0249,-1.0339,-1570.07,-1750.12,1966.74
6030,-3.8715,0.0046,-1.0630,820.56,-328.19,-298.95
6040,-3.8713,0.0419,-1.0858,601.81,-62.50,685.36
6050,-3.8713,0.0767,-1.0917,1367.43,1015.69,825.99
6060,-3.8713,0.1069,-1.0892,1820.56,265.75,216.61
6070,-3.8715,0.1348,-1.0869,1695.56,578.31,-1236.51
6080,-3.8715,0.1737,-1.0830,1258.06,875.24,1310.36
6090,-3.8715,0.2330,-1.0724,-1757.57,1375.31,1138.49
6100,-3.8715,0.3022,-1.0472,1836.18,-1265.20,-1845.89
6110,-3.8715,0.3602,-1.0087,-1304.44,1953.67,-1017.70
6120,-3.8715,0.3934,-0.9791,-1882.57,-1108.70,-439.51
6130,-3.8713,0.4070,-0.9711,-1632.57,-1327.39,1169.92
6140,-3.8713,0.4104,-0.9702,101.81,-296.08,-205.08
6150,-3.8712,0.4062,-0.9625,539.31,-186.71,-1501.95
6160,-3.8711,0.3933,-0.9495,8.06,797.67,982.48
6170,-3.8711,0.3842,-0.9436,-1648.19,-1530.52,-517.52
6180,-3.8710,0.4008,-0.9419,1179.93,-780.52,1388.73
6190,-3.8710,0.4410,-0.9312,-695.07,-561.77,1482.48
6200,-3.8711,0.4938,-0.9139,461.18,813.35,-486.21
6210,-3.8711,0.5609,-0.8945,-788.82,-983.46,841.92
6220,-3.8712,0.6418,-0.8593,-195.07,1501.04,-1814.27
6230,-3.8713,0.7300,-0.7979,-1835.69,-1983.15,-1798.58
6240,-3.8716,0.8175,-0.7236,1445.56,1876.40,-142.21
6250,-3.8717,0.8923,-0.6499,648.68,-623.41,76.66
6260,-3.8719,0.9470,-0.5789,-1773.19,814.21,733.09
6270,-3.8722,0.9890,-0.5114,1226.81,1908.08,-954.28
6280,-3.8723,1.0289,-0.4457,-1398.19,-1451.23,-1579.16
6290,-3.8724,1.0646,-0.3801,-288.82,-1044.92,-1907.17
6300,-3.8726,1.0880,-0.3202,273.68,-654.17,-1797.67
6310,-3.8727,1.1011,-0.2708,-726.32,-982.30,-610.05
6320,-3.8727,1.1090,-0.2260,945.56,1345.89,1796.33
6330,-3.8727,1.1119,-0.1804,1961.18,-919.74,405.76
6340,-3.8728,1.1097,-0.1428,-1663.82,908.39,-1328.49
6350,-3.8728,1.1079,-0.1227,-1945.07,1720.89,1452.82
6360,-3.8728,1.1093,-0.1200,1820.56,299.01,1577.88
6370,-3.8728,1.1083,-0.1343,1992.43,642.76,-922.12
6380,-3.8727,1.1003,-0.1648,1867.43,-1185.36,-1984.68
6390,-3.8726,1.0853,-0.2007,851.81,-1091.61,1890.26
6400,-3.8724,1.0682,-0.2334,-1070.07,-1685.42,1233.95
6410,-3.8723,1.0531,-0.2579,742.43,-1872.92,515.14
6420,-3.8722,1.0265,-0.2639,-1195.07,-1013.61,265.08
6430,-3.8722,0.9758,-0.2540,-601.32,-1779.30,-1594.30
6440,-3.8722,0.9155,-0.2394,914.31,-513.73,-1734.92
6450,-3.8722,0.8616,-0.2291,1195.56,1361.15,1187.01
6460,-3.8722,0.8097,-0.2305,-1710.69,-1326.48,421.39
6470,-3.8722,0.7527,-0.2452,-351.32,-1498.47,843.26
6480,-3.8722,0.6973,-0.2798,351.81,610.84,-781.74
6490,-3.8719,0.6592,-0.3331,1258.06,188.84,343.20
6500,-3.8718,0.6454,-0.3848,383.06,1360.66,-813.17
6510,-3.8716,0.6582,-0.4222,-1382.57,-1248.78,858.58
6520,-3.8715,0.6979,-0.4503,258.06,1954.41,327.27
6530,-3.8715,0.7480,-0.4711,1336.18,-1639.28,-1375.92
6540,-3.8713,0.7948,-0.4865,-241.94,-295.47,61.52
6550,-3.8713,0.8359,-0.5006,1742.43,1735.90,202.15
6560,-3.8715,0.8685,-0.5201,-991.94,-76.54,-485.41
6570,-3.8715,0.8896,-0.5500,-820.07,1423.52,-1907.29
6580,-3.8716,0.9010,-0.5891,1883.06,1595.46,-141.72
6590,-3.8716,0.9097,-0.6370,-663.82,595.46,1936.34
6600,-3.8716,0.9192,-0.6897,445.56,-1529.48,1264.34
6610,-3.8716,0.9281,-0.7396,1664.31,-279.48,1232.97
6620,-3.8716,0.9404,-0.7870,-1195.07,1329.90,326.66
6630,-3.8717,0.9583,-0.8342,383.06,-732.54,1685.91
6640,-3.8718,0.9733,-0.8927,-1335.69,1220.58,1592.10
6650,-3.8719,0.9792,-0.9658,586.18,1736.27,1045.10
6660,-3.8721,0.9679,-1.0361,1351.81,376.89,1310.61
6670,-3.8722,0.9200,-1.0928,-101.32,-623.17,-1455.20
6680,-3.8722,0.8215,-1.1355,1773.68,126.77,357.24
6690,-3.8723,0.6735,-1.1669,1164.31,-1342.16,-533.51
6700,-3.8722,0.4884,-1.1919,-1788.82,-1358.09,1450.81
6710,-3.8721,0.2788,-1.2206,-1476.32,-561.58,-939.88
6720,-3.8718,0.0613,-1.2517,-304.44,-233.89,-346.19
6730,-3.8715,-0.1362,-1.2634,-148.19,-218.69,1247.50
6740,-3.8712,-0.2864,-1.2344,-1429.44,-1703.43,825.62
6750,-3.8711,-0.3749,-1.1675,-648.19,-1984.99,606.93
6760,-3.8711,-0.4135,-1.0869,23.68,-1422.61,716.43
6770,-3.8712,-0.4332,-1.0170,-913.82,889.77,-986.51
6780,-3.8712,-0.4592,-0.9690,554.93,1842.90,1857.36
6790,-3.8712,-0.4996,-0.9396,1226.81,-16.54,-1783.20
6800,-3.8712,-0.5515,-0.9207,54.93,-250.98,-564.39
6810,-3.8711,-0.6069,-0.9003,1414.31,-1829.22,341.92
6820,-3.8711,-0.6582,-0.8732,-1679.44,780.03,232.60
6830,-3.8712,-0.7021,-0.8414,-241.94,248.66,-1204.83
6840,-3.8712,-0.7466,-0.8047,-1866.94,311.10,92.10
6850,-3.8713,-0.8033,-0.7616,445.56,1014.16,639.04
6860,-3.8715,-0.8743,-0.7124,1179.93,-1470.34,1123.47
6870,-3.8716,-0.9515,-0.6611,101.81,826.42,1670.47
6880,-3.8717,-1.0240,-0.6096,-1788.82,-611.27,1998.66
6890,-3.8718,-1.0791,-0.5564,929.93,1982.36,1889.40
6900,-3.8719,-1.1072,-0.4994,1883.06,794.74,1405.15
6910,-3.8721,-1.1074,-0.4371,-1710.69,91.55,577.15
6920,-3.8723,-1.0853,-0.3749,-1741.94,60.30,-375.85
6930,-3.8724,-1.0479,-0.3251,1086.18,29.11,-1094.48
6940,-3.8726,-0.9966,-0.2996,1883.06,-1595.83,-1328.80
6950,-3.8727,-0.9325,-0.3071,445.56,1669.92,-375.61
6960,-3.8727,-0.8577,-0.3425,648.68,701.29,-1766.24
6970,-3.8727,-0.7775,-0.3857,-1773.19,170.17,1202.45
6980,-3.8728,-0.7008,-0.4264,492.43,-1360.90,-516.42
6990,-3.8728,-0.6307,-0.4799,-1695.07,1436.10,-1938.35
7000,-3.8728,-0.5579,-0.5630,-726.32,-1407.53,-1704.10
7010,-3.8727,-0.4728,-0.6642,601.81,-47.97,1326.97
7020,-3.8726,-0.3734,-0.7626,-507.57,-1000.98,-1235.72
7030,-3.8723,-0.2581,-0.8500,211.18,-1594.48,810.97
7040,-3.8722,-0.1357,-0.9275,-1023.19,-781.80,-1642.33
7050,-3.8721,-0.0273,-0.9943,-1366.94,1296.57,-392.46
7060,-3.8718,0.0552,-1.0428,508.06,749.94,560.55
7070,-3.8717,0.1104,-1.0641,-929.44,-1484.31,451.05
7080,-3.8717,0.1418,-1.0608,-1866.94,-202.94,1872.86
7090,-3.8717,0.1588,-1.0435,-1835.69,218.99,232.30
7100,-3.8718,0.1677,-1.0222,336.18,-1562.19,388.55
7110,-3.8721,0.1776,-1.0067,1476.81,1156.56,-658.26
7120,-3.8722,0.2040,-0.9944,-1257.57,-859.07,-1923.89
7130,-3.8723,0.2559,-0.9906,-1882.57,719.12,1810.55
7140,-3.8723,0.3306,-1.0192,758.06,1203.61,326.17
7150,-3.8722,0.4150,-1.0760,-1679.44,1547.49,138.61
7160,-3.8719,0.4861,-1.1283,1133.06,-1733.58,-1408.39
7170,-3.8715,0.5253,-1.1622,-1773.19,-420.96,1185.24
7180,-3.8711,0.5221,-1.1771,-757.57,-764.65,-1096.07
7190,-3.8707,0.4839,-1.1665,-1163.82,1329.10,435.18
7200,-3.8706,0.4434,-1.1361,1945.56,-1311.58,1107.06
7210,-3.8706,0.4332,-1.0996,758.06,-1421.02,1903.99
7220,-3.8706,0.4628,-1.0656,-538.82,-749.21,1185.30
7230,-3.8706,0.5176,-1.0334,-757.57,-389.77,1044.74
7240,-3.8706,0.5769,-0.9955,-1741.94,-280.27,1341.67
7250,-3.8706,0.6311,-0.9468,1851.81,579.22,904.30
7260,-3.8707,0.6761,-0.8918,789.31,-1186.28,-564.39
7270,-3.8707,0.7069,-0.8429,-1445.07,1845.03,-1908.02
7280,-3.8707,0.7284,-0.8063,-1507.57,110.72,1560.85
7290,-3.8707,0.7598,-0.7793,1242.43,798.28,1123.41
7300,-3.8707,0.8180,-0.7513,1258.06,251.46,279.72
7310,-3.8708,0.8994,-0.7045,711.18,-170.29,-1782.78
7320,-3.8710,0.9850,-0.6339,-866.94,1829.83,1889.22
7330,-3.8712,1.0614,-0.5455,-1913.82,-1138.73,-376.28
7340,-3.8715,1.1243,-0.4457,-132.57,-1826.11,-32.35
7350,-3.8717,1.1708,-0.3516,-85.69,-1044.74,-282.17
7360,-3.8718,1.2026,-0.2776,1867.43,-997.74,686.77
7370,-3.8721,1.2242,-0.2212,1945.56,471.07,-297.42
7380,-3.8722,1.2416,-0.1758,711.18,-310.12,-125.49
7390,-3.8722,1.2599,-0.1466,-1070.07,1502.38,702.76
7400,-3.8723,1.2725,-0.1327,1273.68,1236.82,-1687.81
7410,-3.8724,1.2699,-0.1202,-1116.94,-981.93,-203.43
7420,-3.8724,1.2542,-0.1058,-1445.07,611.82,343.51
7430,-3.8726,1.2306,-0.0961,539.31,-1544.43,468.51
7440,-3.8727,1.2085,-0.0933,1523.68,-294.49,1343.51
7450,-3.8727,1.1936,-0.0999,-1304.44,64.82,171.69
7460,-3.8727,1.1729,-0.1211,789.31,-778.93,1343.51
7470,-3.8727,1.1259,-0.1559,-1866.94,502.26,-515.87
7480,-3.8726,1.0533,-0.1991,117.43,49.07,1562.19
7490,-3.8724,0.9769,-0.2472,-1163.82,-1482.36,296.45
7500,-3.8724,0.9104,-0.2894,1054.93,361.27,-547.36
7510,-3.8723,0.8573,-0.3147,539.31,-1045.10,1608.76
7520,-3.8723,0.8225,-0.3254,1742.43,-279.60,-1375.67
7530,-3.8723,0.8042,-0.3295,1289.31,-1654.66,-797.55
7540,-3.8723,0.7958,-0.3342,-1054.44,1829.65,-250.67
7550,-3.8722,0.7979,-0.3475,1867.43,1220.28,514.95
7560,-3.8722,0.8079,-0.3719,-1866.94,-482.85,1608.64
7570,-3.8722,0.8170,-0.4011,-585.69,392.15,-1797.61
7580,-3.8722,0.8302,-0.4382,586.18,657.84,1842.96
7590,-3.8722,0.8557,-0.4993,-1726.32,-92.16,-1750.92
7600,-3.8721,0.8866,-0.5701,1539.31,95.40,874.02
7610,-3.8721,0.9124,-0.6135,1492.43,-967.04,-360.53
7620,-3.8721,0.9355,-0.6222,789.31,1470.52,-735.60
7630,-3.8722,0.9614,-0.6223,-241.94,361.15,-32.47
7640,-3.8722,0.9814,-0.6418,-929.44,345.58,467.53
7650,-3.8723,0.9851,-0.6823,1633.06,1845.64,-1595.03
7660,-3.8723,0.9706,-0.7341,-1898.19,673.77,1279.91
7670,-3.8724,0.8613,-0.9337,-554.44,970.46,560.79
7680,-3.8726,0.8181,-1.0031,-1741.94,486.02,-1204.96
7690,-3.8726,0.7725,-1.0765,726.81,-389.04,-1955.14
7700,-3.8726,0.7111,-1.1353,-1116.94,-1795.41,-174.01
7710,-3.8723,0.5990,-1.1760,-976.32,-1311.16,1997.74
7720,-3.8719,0.4097,-1.2192,679.93,1469.91,1450.81
7730,-3.8715,0.1465,-1.2705,445.56,-61.71,935.06
7740,-3.8710,-0.1545,-1.3009,-1241.94,1375.24,1560.00
7750,-3.8706,-0.4320,-1.2766,226.81,1499.69,-1518.19
7760,-3.8705,-0.6206,-1.1932,711.18,608.52,-1424.38
7770,-3.8706,-0.6918,-1.0764,570.56,-719.97,1106.99
7780,-3.8710,-0.6775,-0.9561,-538.82,-1767.03,1638.49
7790,-3.8713,-0.6405,-0.8468,1289.31,1639.28,1888.73
7800,-3.8716,-0.6333,-0.7635,-1976.32,-376.28,-157.96
7810,-3.8715,-0.6771,-0.7242,-1054.44,-1720.03,1842.22
7820,-3.8712,-0.7621,-0.7223,1336.18,-688.84,1076.66
7830,-3.8710,-0.8663,-0.7278,-1538.82,-439.03,607.91
7840,-3.8708,-0.9683,-0.7161,1117.43,-1142.33,639.16
7850,-3.8708,-1.0490,-0.6808,70.56,357.48,311.10
7860,-3.8710,-1.0975,-0.6274,1742.43,872.92,467.41
7870,-3.8712,-1.1177,-0.5658,-476.32,-299.07,-1891.91
7880,-3.8715,-1.1256,-0.5032,945.56,-408.45,-1876.16
7890,-3.8717,-1.1357,-0.4419,-70.07,-392.88,1967.71
7900,-3.8719,-1.1476,-0.3865,-1366.94,-549.13,-954.04
7910,-3.8721,-1.1527,-0.3434,1117.43,-1455.38,1483.58
7920,-3.8722,-1.1453,-0.3214,461.18,60.24,1014.95
7930,-3.8723,-1.1157,-0.3293,1414.31,-1127.26,-1625.67
7940,-3.8723,-1.0665,-0.3623,1195.56,1857.18,-1922.55
7950,-3.8723,-1.0070,-0.3960,-507.57,1638.49,-1625.73
7960,-3.8723,-0.9341,-0.4193,-882.57,1326.11,1671.08
7970,-3.8723,-0.8513,-0.4498,445.56,-1658.08,671.02
7980,-3.8723,-0.7660,-0.5111,-960.69,-1564.21,686.58
7990,-3.8723,-0.6741,-0.6110,1961.18,-1407.78,-876.04
8000,-3.8721,-0.5719,-0.7268,1726.81,1811.16,1311.28
8010,-3.8718,-0.4648,-0.8280,-1195.07,-1016.78,-1970.21
8020,-3.8716,-0.3518,-0.9126,508.06,-1969.67,-501.65
8030,-3.8712,-0.2358,-0.9916,-1023.19,-797.61,1998.17
8040,-3.8708,-0.1406,-1.0627,1820.56,1093.26,654.30
8050,-3.8706,-0.0834,-1.1215,-1991.94,-15.93,1997.86
8060,-3.8704,-0.0558,-1.1665,1336.18,468.57,1607.18
8070,-3.8702,-0.0328,-1.1945,867.43,-1297.00,-1564.82
8080,-3.8702,0.0062,-1.2046,-195.07,-875.12,-236.76
8090,-3.8702,0.0615,-1.1938,804.93,1812.50,-1783.63
8100,-3.8704,0.1232,-1.1639,-116.94,-812.44,-658.63
8110,-3.8705,0.1785,-1.1234,-226.32,-984.19,-455.44
8120,-3.8706,0.2134,-1.0797,-1148.19,203.43,-1361.57
8130,-3.8707,0.2292,-1.0457,-679.44,1797.24,-1736.51
8140,-3.8708,0.2413,-1.0203,1351.81,-1843.32,-767.70
8150,-3.8708,0.2583,-0.9906,-1101.32,1406.68,560.49
8160,-3.8710,0.2849,-0.9541,1070.56,1203.61,1560.55
8170,-3.8711,0.3209,-0.9147,476.81,1875.55,-1861.27
8180,-3.8712,0.3632,-0.8756,1086.18,-1077.51,-1908.08
8190,-3.8713,0.4135,-0.8386,-1507.57,-77.45,1638.85
8200,-3.8715,0.4734,-0.8058,929.93,657.04,1498.35
8210,-3.8716,0.5393,-0.7740,601.81,860.29,1951.54
8220,-3.8717,0.6068,-0.7443,1039.31,922.91,-782.78
8230,-3.8717,0.6797,-0.7240,1679.93,735.53,1873.54
8240,-3.8717,0.7631,-0.6989,-991.94,-670.59,1092.29
8250,-3.8718,0.8531,-0.6498,1679.93,-1451.66,-907.65
8260,-3.8719,0.9458,-0.5804,1211.18,829.77,-485.66
8270,-3.8721,1.0377,-0.4985,1070.56,1704.96,-1188.66
8280,-3.8722,1.1198,-0.4105,836.18,189.51,1733.40
8290,-3.8723,1.1837,-0.3252,-663.82,-544.74,1171.02
8300,-3.8724,1.2251,-0.2487,-476.32,-1622.74,1436.83
8310,-3.8726,1.2422,-0.1873,820.56,174.26,-1578.61
8320,-3.8726,1.2474,-0.1440,-991.94,33.63,499.63
8330,-3.8726,1.2507,-0.1174,-320.07,1564.88,437.19
8340,-3.8726,1.2474,-0.0996,101.81,971.19,1499.76
8350,-3.8726,1.2301,-0.0857,-320.07,-747.62,-1797.12
8360,-3.8726,1.2003,-0.0835,1461.18,1033.63,-1140.81
8370,-3.8724,1.1694,-0.0890,1648.68,1314.82,93.57
8380,-3.8724,1.1499,-0.0818,1695.56,611.63,1015.44
8390,-3.8724,1.1418,-0.0533,-804.44,1533.45,343.57
8400,-3.8726,1.1263,-0.0205,-1835.69,1174.07,-1812.62
8410,-3.8726,1.0884,-0.0072,179.93,1377.20,499.94
8420,-3.8726,1.0311,-0.0177,-679.44,-919.80,781.19
8430,-3.8726,0.9688,-0.0398,-7.57,1736.33,-1531.31
8440,-3.8724,0.9141,-0.0632,8.06,-1091.86,62.38
8450,-3.8724,0.8755,-0.0864,1008.06,-91.98,1265.44
8460,-3.8724,0.8508,-0.1088,70.56,939.21,-859.56
8470,-3.8723,0.8312,-0.1283,914.31,-1920.23,1984.13
8480,-3.8722,0.8145,-0.1508,-1601.32,-420.29,890.32
8490,-3.8722,0.8064,-0.1830,258.06,704.71,-312.81
8500,-3.8721,0.8119,-0.2184,-773.19,579.65,-1031.62
8510,-3.8719,0.8298,-0.2502,-70.07,48.40,-1703.55
8520,-3.8718,0.8584,-0.2800,-1773.19,-29.66,530.70
8530,-3.8718,0.8960,-0.3121,1883.06,157.90,1358.83
8540,-3.8718,0.9376,-0.3508,-1304.44,48.58,1671.26
8550,-3.8718,0.9731,-0.3949,23.68,-904.42,1655.52
8560,-3.8719,0.9999,-0.4358,570.56,1455.02,-0.79
8570,-3.8719,1.0227,-0.4609,-7.57,220.64,421.02
8580,-3.8721,1.0449,-0.4756,-1085.69,1001.95,1124.08
8590,-3.8721,1.0677,-0.5076,1758.06,-872.99,420.90
8600,-3.8721,1.0872,-0.5708,679.93,-966.67,1686.46
8610,-3.8721,1.0977,-0.6501,-835.69,-1060.42,-1563.66
8620,-3.8721,1.0997,-0.7312,508.06,783.39,1373.72
8630,-3.8722,1.0969,-0.8140,773.68,-1591.61,-892.09
8640,-3.8722,1.0869,-0.9032,414.31,-185.36,873.35
8650,-3.8723,1.0648,-0.9905,-866.94,392.70,-1001.77
8660,-3.8723,1.0243,-1.0652,304.93,1220.83,1591.80
8670,-3.8723,0.9547,-1.1243,-882.57,-341.80,1216.61
8680,-3.8723,0.8418,-1.1573,-1788.82,95.58,-1095.95
8690,-3.8721,0.6754,-1.1675,-241.94,-139.04,919.56
8700,-3.8717,0.4575,-1.1846,-1538.82,-1436.22,232.06
8710,-3.8713,0.2081,-1.2283,-1429.44,375.85,-1002.32
8720,-3.8708,-0.0320,-1.2799,-1351.32,-1218.38,-1096.19
8730,-3.8704,-0.2061,-1.3014,-85.69,187.38,1044.37
8740,-3.8701,-0.2640,-1.2759,1633.06,1437.07,1294.31
8750,-3.8701,-0.1986,-1.2192,-1788.82,702.58,1450.62
8760,-3.8704,-0.0575,-1.1531,-1413.82,-47.30,-1064.94
8770,-3.8706,0.0861,-1.0917,648.68,421.75,997.74
8780,-3.8710,0.1665,-1.0487,-976.32,265.75,-142.76
8790,-3.8710,0.1378,-1.0415,1320.56,1765.93,732.30
8800,-3.8708,-0.0114,-1.0814,1648.68,-1312.26,1513.55
8810,-3.8706,-0.2589,-1.1500,-1445.07,1593.69,-845.89
8820,-3.8702,-0.5432,-1.1953,-1132.57,811.95,-564.76
8830,-3.8699,-0.7657,-1.1832,-1523.19,-985.47,-346.13
8840,-3.8696,-0.8536,-1.1165,1992.43,560.97,232.06
8850,-3.8700,-0.8242,-1.0013,-1257.57,1107.67,-1049.07
8860,-3.8706,-0.7699,-0.8577,-1491.94,-157.90,-1220.76
8870,-3.8712,-0.7545,-0.7233,1461.18,-1767.15,138.92
8880,-3.8718,-0.7792,-0.6218,-570.07,-564.03,1764.16
8890,-3.8722,-0.8368,-0.5472,273.68,420.35,-1938.72
8900,-3.8723,-0.9116,-0.4744,898.68,1967.10,358.28
8910,-3.8724,-0.9857,-0.4003,-679.44,-704.96,-1000.98
8920,-3.8723,-1.0563,-0.3364,1836.18,779.30,327.33
8930,-3.8723,-1.1155,-0.2781,804.93,951.05,-1063.17
8940,-3.8722,-1.1447,-0.2240,1226.81,419.68,561.95
8950,-3.8723,-1.1323,-0.1846,1492.43,-658.51,-609.86
8960,-3.8724,-1.0892,-0.1715,-929.44,388.37,-500.37
8970,-3.8726,-1.0305,-0.1954,586.18,-1939.64,-1906.62
8980,-3.8727,-0.9596,-0.2577,101.81,-1002.01,718.32
8990,-3.8728,-0.8806,-0.3414,1179.93,-970.64,905.70
9000,-3.8729,-0.7943,-0.4211,-710.69,310.73,-547.55
9010,-3.8728,-0.6952,-0.4960,-1663.82,-1892.21,264.77
9020,-3.8728,-0.5874,-0.5862,-976.32,529.85,-1204.10
9030,-3.8727,-0.4757,-0.6936,820.56,983.22,-1266.78
9040,-3.8724,-0.3629,-0.8057,-882.57,-766.60,561.10
9050,-3.8722,-0.2568,-0.9119,1554.93,889.89,326.54
9060,-3.8719,-0.1609,-1.0059,-866.94,-703.67,1123.17
9070,-3.8717,-0.0817,-1.0916,-585.69,-734.74,-1783.26
9080,-3.8715,-0.0292,-1.1763,1554.93,296.69,-486.51
9090,-3.8711,0.0016,-1.2567,273.68,1453.06,841.43
9100,-3.8708,0.0214,-1.3083,211.18,-859.38,810.00
9110,-3.8707,0.0398,-1.3158,-1257.57,531.25,1013.06
9120,-3.8707,0.0824,-1.2941,1101.81,-421.81,575.50
9130,-3.8708,0.1630,-1.2610,-1445.07,-1640.50,1981.81
9140,-3.8710,0.2570,-1.2255,867.43,-1405.94,-533.75
9150,-3.8710,0.3284,-1.1956,898.68,-858.89,-1955.57
9160,-3.8710,0.3550,-1.1837,-1960.69,-1030.64,-455.51
9170,-3.8707,0.3470,-1.1949,1445.56,485.05,1185.18
9180,-3.8705,0.3378,-1.2109,429.93,-952.45,1888.24
9190,-3.8702,0.3505,-1.1987,-757.57,1000.61,1122.62
9200,-3.8702,0.3807,-1.1472,867.43,-1436.83,-986.76
9210,-3.8702,0.4176,-1.0762,742.43,1156.98,450.87
9220,-3.8704,0.4636,-1.0134,1461.18,-1749.21,247.86
9230,-3.8705,0.5260,-0.9758,-648.19,-1717.90,826.11
9240,-3.8706,0.5966,-0.9565,-663.82,-905.27,-861.33
9250,-3.8706,0.6632,-0.9436,367.43,1563.66,-939.39
9260,-3.8705,0.7268,-0.9408,898.68,-779.97,1138.73
9270,-3.8704,0.7920,-0.9388,1039.31,-420.47,1216.86
9280,-3.8702,0.8586,-0.9069,1383.06,-170.35,435.61
9290,-3.8704,0.9252,-0.8298,1914.31,-76.48,-1470.58
9300,-3.8706,0.9935,-0.7283,-1570.07,1783.02,-1861.02
9310,-3.8710,1.0688,-0.6310,-820.07,-1216.86,-1329.59
9320,-3.8712,1.1505,-0.5474,820.56,-763.55,576.84
9330,-3.8715,1.2319,-0.4680,-726.32,1939.70,1139.53
9340,-3.8717,1.3033,-0.3840,1695.56,96.13,-875.92
9350,-3.8718,1.3580,-0.2974,-1163.82,-1153.75,1358.58
9360,-3.8721,1.3927,-0.2207,1836.18,1940.12,-344.36
9370,-3.8722,1.4081,-0.1621,-1726.32,-247.31,-1562.99
9380,-3.8723,1.4027,-0.1149,242.43,-747.25,-1937.87
9390,-3.8724,1.3760,-0.0686,-445.07,1299.56,-1875.24
9400,-3.8726,1.3347,-0.0192,133.06,-778.56,1406.07
9410,-3.8728,1.2920,0.0297,-1148.19,1549.44,-625.06
9420,-3.8729,1.2593,0.0724,1383.06,-200.62,703.12
9430,-3.8732,1.2349,0.1022,1195.56,1268.07,-1499.88
9440,-3.8733,1.2090,0.1143,-1929.44,1080.51,1172.06
9450,-3.8734,1.1764,0.1058,-1241.94,-1372.68,1047.06
9460,-3.8735,1.1360,0.0819,-1413.82,1549.13,-906.07
9470,-3.8735,1.0854,0.0557,1414.31,-1513.43,-984.25
9480,-3.8735,1.0264,0.0284,-1054.44,-872.92,-203.06
9490,-3.8734,0.9725,-0.0138,-616.94,-357.42,-1453.12
9500,-3.8732,0.9363,-0.0645,492.43,-1763.73,531.19
9510,-3.8730,0.9166,-0.0995,-148.19,-248.23,-203.31
9520,-3.8728,0.9039,-0.1169,1336.18,-732.60,1296.63
9530,-3.8727,0.8911,-0.1353,-288.82,1032.96,187.26
9540,-3.8727,0.8762,-0.1666,-1929.44,-1310.79,1749.69
9550,-3.8727,0.8643,-0.2108,164.31,-1326.42,-640.99
9560,-3.8726,0.8671,-0.2670,-1366.94,1017.27,1499.57
9570,-3.8724,0.8856,-0.3342,-1007.57,1829.77,202.58
9580,-3.8724,0.9128,-0.4005,1367.43,1220.46,-1156.92
9590,-3.8723,0.9484,-0.4541,851.81,736.15,546.08
9600,-3.8723,0.9902,-0.4938,1398.68,1876.83,-1860.29
9610,-3.8722,1.0284,-0.5275,-1241.94,798.77,1264.65
9620,-3.8721,1.0570,-0.5695,-351.32,486.33,1045.84
9630,-3.8721,1.0750,-0.6294,-695.07,-888.61,-1204.28
9640,-3.8721,1.0790,-0.7048,1601.81,-560.42,1451.84
9650,-3.8722,1.0719,-0.7838,-1882.57,1783.33,-1454.53
9660,-3.8723,1.0651,-0.8560,1211.18,-326.05,-79.71
9670,-3.8723,1.0637,-0.9226,336.18,-1560.42,-1689.21
9680,-3.8723,1.0636,-0.9921,164.31,1908.33,1920.04
9690,-3.8723,1.0376,-1.0760,148.68,1017.70,-236.33
9700,-3.8721,0.9457,-1.1802,820.56,-1732.36,-1705.26
9710,-3.8717,0.7821,-1.2886,1054.93,939.33,-1658.57
9720,-3.8712,0.5804,-1.3741,117.43,-935.97,903.69
9730,-3.8708,0.3893,-1.4185,-1695.07,110.47,1387.94
9740,-3.8706,0.2500,-1.4128,1836.18,-1561.77,919.07
9750,-3.8706,0.1746,-1.3601,8.06,-843.26,-330.93
9760,-3.8706,0.1400,-1.2833,-1648.19,1906.56,-893.31
9770,-3.8706,0.1042,-1.2158,1929.93,-265.38,1434.94
9780,-3.8706,0.0388,-1.1776,1351.81,375.18,-1893.01
9790,-3.8705,-0.0582,-1.1654,976.81,1265.69,-1658.57
9800,-3.8704,-0.1675,-1.1630,554.93,-1156.37,-361.69
9810,-3.8702,-0.2555,-1.1589,-1429.44,-844.12,-767.94
9820,-3.8702,-0.2990,-1.1481,-695.07,-328.67,-924.19
9830,-3.8704,-0.3101,-1.1241,1742.43,1061.89,-1705.38
9840,-3.8706,-0.3322,-1.0875,320.56,124.39,-1111.57
9850,-3.8708,-0.3958,-1.0493,1492.43,811.83,-64.64
9860,-3.8708,-0.5017,-1.0199,1351.81,1702.33,44.80
9870,-3.8708,-0.6407,-1.0037,-210.69,1467.71,388.61
9880,-3.8708,-0.7887,-0.9954,1992.43,-454.41,-767.64
9890,-3.8707,-0.9141,-0.9764,-945.07,607.79,1513.67
9900,-3.8707,-1.0033,-0.9291,-991.94,-970.58,591.80
9910,-3.8710,-1.0542,-0.8491,-413.82,1091.74,-1720.58
9920,-3.8713,-1.0691,-0.7485,1070.56,-673.95,-1126.71
9930,-3.8717,-1.0625,-0.6426,-835.69,200.99,1076.66
9940,-3.8722,-1.0491,-0.5398,8.06,1763.55,-141.91
9950,-3.8724,-1.0319,-0.4523,1726.81,-1080.20,452.03
9960,-3.8728,-1.0087,-0.3846,-70.07,-1877.08,-157.17
9970,-3.8729,-0.9821,-0.3333,-1101.32,-1220.76,1046.08
9980,-3.8732,-0.9471,-0.2985,-1695.07,1357.42,-391.30
9990,-3.8733,-0.9000,-0.2821,-1226.32,1810.61,-203.74
10000,-3.8733,-0.8433,-0.2961,804.93,-95.52,1093.14
10010,-3.8733,-0.7789,-0.3446,70.56,-1892.27,1577.51
10020,-3.8732,-0.7141,-0.4130,304.93,-95.28,1983.64
10030,-3.8729,-0.6506,-0.5011,601.81,-845.15,467.90
10040,-3.8728,-0.5869,-0.6033,726.81,-126.28,-141.66
10050,-3.8726,-0.5236,-0.6888,883.06,-1204.28,-813.72
10060,-3.8724,-0.4602,-0.7415,992.43,-157.29,-95.15
10070,-3.8723,-0.3914,-0.7811,1101.81,1108.46,1576.66
10080,-3.8722,-0.3101,-0.8403,1914.31,30.46,295.35
10090,-3.8721,-0.2185,-0.9182,320.56,452.51,-1814.15
10100,-3.8718,-0.1315,-0.9813,39.31,-1516.05,732.54
