timestamp_ms,ax,ay,az,gx,gy,gz
0,-3.8718,0.3007,-0.1434,773.68,1656.80,-328.37
10,-3.8717,0.3274,-0.1686,-1507.57,1641.17,-1937.81
20,-3.8716,0.3607,-0.1548,1914.31,-1577.51,468.38
30,-3.8716,0.3882,-0.1149,-1820.07,188.17,-922.18
40,-3.8715,0.3997,-0.0897,1695.56,1297.61,-1922.12
50,-3.8713,0.3949,-0.1031,-835.69,516.36,624.82
60,-3.8713,0.3796,-0.1449,-1445.07,-1202.39,1546.63
70,-3.8713,0.3567,-0.1858,601.81,1453.86,312.19
80,-3.8715,0.3270,-0.2015,1664.31,219.42,1280.88
90,-3.8716,0.2975,-0.1827,1867.43,-1796.26,1749.57
100,-3.8717,0.2786,-0.1432,-1913.82,609.92,-875.37
110,-3.8717,0.2754,-0.1143,-335.69,1672.36,1921.57
120,-3.8717,0.2881,-0.1135,-741.94,1375.49,1796.63
130,-3.8717,0.3124,-0.1312,883.06,1469.30,-1750.24
140,-3.8717,0.3397,-0.1487,-7.57,-796.33,-750.31
150,-3.8716,0.3645,-0.1610,-507.57,969.36,1171.57
160,-3.8716,0.3854,-0.1693,-1335.69,-608.70,-156.62
170,-3.8715,0.4003,-0.1689,1336.18,-1671.14,-1672.24
180,-3.8715,0.4076,-0.1592,-757.57,-1624.27,-312.87
190,-3.8715,0.4054,-0.1473,179.93,-374.21,-140.99
200,-3.8715,0.3933,-0.1405,-101.32,1141.36,-1172.18
210,-3.8715,0.3757,-0.1418,-1648.19,-1983.64,937.19
220,-3.8716,0.3594,-0.1490,101.81,1844.48,-547.18
230,-3.8716,0.3518,-0.1500,-1991.94,922.55,-906.56
240,-3.8716,0.3563,-0.1343,1039.31,797.55,-609.68
250,-3.8715,0.3735,-0.1008,54.93,-280.52,-1718.99
260,-3.8715,0.3551,-0.1194,-179.44,-905.58,-515.87
270,-3.8713,0.3210,-0.1387,1461.18,719.42,546.63
280,-3.8713,0.2832,-0.1504,1101.81,-1749.39,905.94
290,-3.8713,0.2563,-0.1434,258.06,750.55,155.94
300,-3.8715,0.2501,-0.1135,820.56,1641.11,-1172.18
310,-3.8715,0.2603,-0.0844,23.68,1469.24,1937.26
320,-3.8715,0.2771,-0.0878,1320.56,1203.61,1827.94
330,-3.8715,0.2972,-0.1246,-523.19,766.11,-1640.81
340,-3.8715,0.3195,-0.1667,-1945.07,47.42,-390.87
350,-3.8713,0.3425,-0.1906,898.68,-1343.14,1218.38
360,-3.8713,0.3666,-0.1936,-148.19,-390.01,-1625.43
370,-3.8713,0.3892,-0.1853,-1070.07,-780.58,-1109.80
380,-3.8713,0.4014,-0.1848,1820.56,281.98,-812.87
390,-3.8713,0.3990,-0.2079,-616.94,344.48,-734.74
400,-3.8713,0.3893,-0.2434,-913.82,1391.36,-1297.30
410,-3.8713,0.3817,-0.2629,1836.18,844.48,1702.64
420,-3.8713,0.3771,-0.2545,867.43,-1655.52,702.58
430,-3.8715,0.3702,-0.2308,273.68,-577.39,-297.42
440,-3.8715,0.3593,-0.2136,-601.32,-1546.20,-1187.99
450,-3.8715,0.3445,-0.2196,1992.43,656.92,-1391.05
460,-3.8715,0.3315,-0.2465,101.81,-108.70,-453.61
470,-3.8713,0.3235,-0.2706,-1554.44,453.74,999.51
480,-3.8713,0.3151,-0.2764,1414.31,1359.99,1858.83
490,-3.8713,0.3018,-0.2688,336.18,625.61,1780.70
500,-3.8713,0.2836,-0.2482,-1366.94,1594.30,624.45
510,-3.8715,0.2623,-0.2153,304.93,234.92,-891.11
520,-3.8715,0.2428,-0.1826,1586.18,437.99,-1469.18
530,-3.8713,0.2056,-0.2225,-70.07,-1359.01,577.70
540,-3.8715,0.1903,-0.2305,-1679.44,-484.01,-1156.74
550,-3.8715,0.1827,-0.2155,367.43,-1499.63,327.64
560,-3.8716,0.1912,-0.1853,-601.32,422.18,-1187.93
570,-3.8716,0.2186,-0.1593,476.81,281.62,-390.99
580,-3.8715,0.2594,-0.1584,-7.57,-390.26,-1422.24
590,-3.8713,0.3002,-0.1858,1211.18,-280.76,-1687.87
600,-3.8712,0.3286,-0.2203,-1570.07,219.30,921.51
610,-3.8712,0.3412,-0.2418,-1929.44,-202.51,1343.26
620,-3.8713,0.3447,-0.2465,-320.07,1047.49,-297.36
630,-3.8713,0.3475,-0.2416,133.06,453.80,1155.76
640,-3.8715,0.3523,-0.2341,492.43,1078.80,-734.86
650,-3.8715,0.3579,-0.2240,1101.81,-1968.08,-1344.24
660,-3.8715,0.3666,-0.2106,1820.56,-671.20,-1203.61
670,-3.8715,0.3738,-0.1995,-1070.07,1047.55,-719.18
680,-3.8715,0.3687,-0.2030,-148.19,-1530.58,-125.43
690,-3.8713,0.3490,-0.2257,-804.44,-1983.70,343.32
700,-3.8713,0.3218,-0.2516,679.93,-889.95,187.01
710,-3.8715,0.2986,-0.2594,1195.56,-202.51,-984.92
720,-3.8715,0.2867,-0.2477,-1773.19,-1202.58,1421.33
730,-3.8715,0.2850,-0.2275,711.18,297.42,530.76
740,-3.8715,0.2867,-0.2076,492.43,-1124.45,733.89
750,-3.8715,0.2889,-0.1938,711.18,1422.42,1577.70
760,-3.8715,0.2899,-0.1896,992.43,-811.95,-1406.68
770,-3.8715,0.2860,-0.1982,1117.43,-265.08,-422.30
780,-3.8713,0.2765,-0.2129,617.43,-1374.45,171.45
790,-3.8713,0.2635,-0.2202,-601.32,750.49,265.20
800,-3.8713,0.2531,-0.2189,1742.43,-187.01,171.39
810,-3.8713,0.2512,-0.2203,398.68,-15.14,624.51
820,-3.8713,0.2581,-0.2297,164.31,-202.64,-1625.49
830,-3.8712,0.2704,-0.2395,1039.31,-1405.76,921.39
840,-3.8712,0.2820,-0.2443,-1382.57,1344.24,-734.86
850,-3.8711,0.2848,-0.2450,101.81,734.92,749.51
860,-3.8711,0.2780,-0.2437,461.18,641.17,796.39
870,-3.8712,0.2653,-0.2378,-413.82,812.99,-875.49
880,-3.8713,0.2534,-0.2217,1961.18,1562.99,-125.49
890,-3.8713,0.2511,-0.1963,445.56,-374.51,77.64
900,-3.8715,0.2621,-0.1766,148.68,-1124.51,1405.82
910,-3.8715,0.2842,-0.1782,1554.93,1391.11,984.01
920,-3.8715,0.3104,-0.1987,383.06,1188.05,-1250.37
930,-3.8713,0.3285,-0.2249,-257.57,-1436.95,1593.32
940,-3.8713,0.3307,-0.2467,-1945.07,-780.64,-62.99
950,-3.8712,0.3225,-0.2623,-1663.82,422.49,593.26
960,-3.8713,0.3143,-0.2676,1289.31,-1577.51,-156.80
970,-3.8713,0.3109,-0.2515,242.43,1750.61,-1609.92
980,-3.8713,0.3105,-0.2129,-195.07,-186.95,608.83
990,-3.8715,0.3115,-0.1747,-241.94,750.55,-687.93
1000,-3.8715,0.3162,-0.1616,-116.94,1641.17,-734.74
1010,-3.8713,0.3230,-0.1760,476.81,-686.89,62.13
1020,-3.8713,0.3220,-0.2047,1351.81,1469.36,1015.26
1030,-3.8713,0.3086,-0.2273,1226.81,1797.49,1280.82
1040,-3.8713,0.2872,-0.2256,-491.94,-1093.20,515.14
1050,-3.8715,0.2651,-0.2064,773.68,-874.45,-516.11
1060,-3.8715,0.2511,-0.1951,1945.56,1578.61,-797.30
1070,-3.8713,0.2509,-0.2004,148.68,-968.26,155.82
1080,-3.8713,0.2620,-0.2147,117.43,-1655.76,-1953.55
1090,-3.8713,0.2765,-0.2262,1539.31,516.11,-719.18
1100,-3.8713,0.2864,-0.2230,-601.32,-952.64,-1562.99
1110,-3.8716,0.2803,-0.1643,226.81,1172.42,-578.49
1120,-3.8716,0.2821,-0.1675,-116.94,-1030.76,-1156.62
1130,-3.8716,0.2877,-0.1838,117.43,-1436.95,-625.37
1140,-3.8715,0.2942,-0.2036,836.18,469.30,530.88
1150,-3.8715,0.2987,-0.2141,1664.31,1938.05,1890.20
1160,-3.8715,0.3008,-0.2092,-1757.57,594.30,-1016.05
1170,-3.8715,0.2982,-0.2003,-1491.94,1219.30,-125.43
1180,-3.8713,0.2930,-0.2029,-1820.07,-1640.08,968.32
1190,-3.8713,0.2880,-0.2153,1508.06,-1968.20,-1687.93
1200,-3.8713,0.2819,-0.2281,867.43,438.05,-578.55
1210,-3.8713,0.2767,-0.2308,86.18,-1202.58,-344.24
1220,-3.8713,0.2780,-0.2133,-570.07,-1546.39,-1328.61
1230,-3.8713,0.2865,-0.1824,-413.82,703.61,937.07
1240,-3.8715,0.2987,-0.1592,679.93,656.80,-797.24
1250,-3.8715,0.3087,-0.1566,-1757.57,-374.45,1937.13
1260,-3.8715,0.3109,-0.1707,-476.32,-46.33,1421.51
1270,-3.8715,0.3053,-0.1873,-195.07,-1843.20,1405.88
1280,-3.8715,0.2963,-0.1952,-913.82,31.80,1655.88
1290,-3.8715,0.2888,-0.2015,1929.93,-983.83,-1375.43
1300,-3.8713,0.2877,-0.2164,976.81,-1796.33,437.07
1310,-3.8713,0.2914,-0.2335,836.18,297.42,-1453.55
1320,-3.8712,0.2949,-0.2412,1304.93,-1890.08,155.76
1330,-3.8712,0.2949,-0.2369,1758.06,1125.55,530.76
1340,-3.8713,0.2906,-0.2247,1758.06,1672.42,-703.61
1350,-3.8713,0.2844,-0.2063,1211.18,-765.08,733.89
1360,-3.8715,0.2805,-0.1837,414.31,1594.30,1733.95
1370,-3.8716,0.2831,-0.1650,-85.69,484.86,-359.74
1380,-3.8716,0.2917,-0.1606,242.43,-1124.45,-484.74
1390,-3.8715,0.2983,-0.1777,1351.81,-561.95,1077.76
1400,-3.8713,0.2749,-0.2338,836.18,-1999.45,171.39
1410,-3.8715,0.2654,-0.2133,-804.44,-1921.39,-937.99
1420,-3.8715,0.2600,-0.1918,1976.81,703.61,1780.82
1430,-3.8715,0.2627,-0.1831,1289.31,-546.39,921.45
1440,-3.8715,0.2780,-0.1841,1633.06,562.99,749.63
1450,-3.8715,0.3016,-0.1849,-413.82,437.99,1015.26
1460,-3.8715,0.3192,-0.1840,-1382.57,328.67,1499.63
1470,-3.8715,0.3199,-0.1897,867.43,453.74,-1812.87
1480,-3.8715,0.3080,-0.2059,961.18,-280.64,-844.18
1490,-3.8713,0.2915,-0.2241,-570.07,1641.17,483.95
1500,-3.8713,0.2742,-0.2358,1320.56,-686.95,1812.01
1510,-3.8713,0.2604,-0.2393,-898.19,1812.99,-1719.24
1520,-3.8713,0.2560,-0.2295,1336.18,1375.49,1374.51
1530,-3.8715,0.2615,-0.2050,773.68,-1374.51,-219.24
1540,-3.8715,0.2694,-0.1813,1476.81,1766.11,-1375.43
1550,-3.8715,0.2750,-0.1787,-1507.57,797.36,-1328.49
1560,-3.8715,0.2777,-0.1980,-788.82,1125.49,-219.12
1570,-3.8713,0.2770,-0.2222,-445.07,-1343.26,1155.82
1580,-3.8713,0.2753,-0.2362,-538.82,-437.01,1999.51
1590,-3.8713,0.2762,-0.2374,-757.57,1766.11,1921.39
1600,-3.8713,0.2784,-0.2328,-632.57,1609.86,1374.51
1610,-3.8713,0.2805,-0.2301,-351.32,-1796.39,1265.14
1620,-3.8713,0.2850,-0.2286,-85.69,-1452.64,1858.89
1630,-3.8713,0.2933,-0.2246,492.43,-1265.08,-1281.74
1640,-3.8713,0.3032,-0.2190,1554.93,-749.45,-750.49
1650,-3.8713,0.3113,-0.2152,-1179.44,-30.70,-687.99
1660,-3.8713,0.3148,-0.2177,-148.19,453.67,-969.18
1670,-3.8713,0.3110,-0.2261,304.93,141.24,-1344.18
1680,-3.8713,0.3024,-0.2340,-179.44,-936.95,-1891.11
1690,-3.8713,0.2804,-0.2128,711.18,-843.20,858.89
1700,-3.8713,0.2734,-0.2010,-101.32,766.11,343.32
1710,-3.8715,0.2675,-0.1959,-991.94,-1733.89,-94.18
1720,-3.8715,0.2686,-0.2031,-1757.57,-1077.64,-266.05
1730,-3.8713,0.2791,-0.2177,-1616.94,-1999.51,108.95
1740,-3.8713,0.2893,-0.2274,-273.19,141.11,937.07
1750,-3.8713,0.2902,-0.2269,1039.31,-1108.83,1796.39
1760,-3.8713,0.2855,-0.2196,1148.68,-1046.33,-1781.74
1770,-3.8713,0.2816,-0.2061,554.93,-108.83,1765.14
1780,-3.8713,0.2769,-0.1929,54.93,1625.55,905.82
1790,-3.8713,0.2698,-0.1967,-554.44,-687.01,671.45
1800,-3.8713,0.2632,-0.2170,-1460.69,-1171.39,1483.95
1810,-3.8713,0.2567,-0.2351,1695.56,219.24,-1078.55
1820,-3.8713,0.2485,-0.2402,867.43,1906.74,-156.74
1830,-3.8713,0.2424,-0.2365,-179.44,1250.43,-656.74
1840,-3.8713,0.2435,-0.2273,-960.69,1734.80,1452.64
1850,-3.8715,0.2549,-0.2117,-820.07,-1093.32,-562.99
1860,-3.8715,0.2745,-0.1958,633.06,906.74,-1359.80
1870,-3.8715,0.2941,-0.1919,-851.32,-1062.01,-797.30
1880,-3.8713,0.3076,-0.2042,1648.68,-561.95,483.95
1890,-3.8713,0.3135,-0.2235,-616.94,1859.92,1827.70
1900,-3.8713,0.3105,-0.2328,133.06,-608.76,-1453.61
1910,-3.8713,0.2996,-0.2252,-241.94,-1796.33,1999.51
1920,-3.8713,0.2834,-0.2090,-1648.19,-827.58,108.89
1930,-3.8715,0.2690,-0.1946,289.31,1250.55,1687.07
1940,-3.8716,0.2638,-0.1854,-1554.44,-905.76,-141.05
1950,-3.8716,0.2682,-0.1810,1773.68,266.11,-734.74
1960,-3.8716,0.2762,-0.1838,-1663.82,828.61,-31.62
1970,-3.8715,0.2820,-0.1959,-632.57,469.24,1796.51
1980,-3.8713,0.2827,-0.2119,101.81,-1077.58,155.82
1990,-3.8713,0.2798,-0.2224,195.56,875.55,1921.45
2000,-3.8713,0.2773,-0.2234,-179.44,-468.26,-1609.86
2010,-3.8713,0.2769,-0.2195,-491.94,-593.26,-1984.86
2020,-3.8713,0.2770,-0.2169,-554.44,-93.26,1468.26
2030,-3.8713,0.2806,-0.2173,-538.82,234.86,968.32
2040,-3.8713,0.2897,-0.2163,-70.07,187.99,640.20
2050,-3.8713,0.2998,-0.2101,1086.18,313.05,437.07
2060,-3.8713,0.3055,-0.2028,-1616.94,1109.92,249.57
2070,-3.8713,0.3044,-0.1985,-882.57,-1952.58,30.82
2080,-3.8715,0.2966,-0.1982,-1023.19,-1405.70,-219.18
2090,-3.8715,0.2837,-0.2047,1976.81,-1374.45,-375.43
2100,-3.8715,0.2700,-0.2167,320.56,1797.42,-391.05
2110,-3.8715,0.2618,-0.2272,-1429.44,266.11,-422.30
2120,-3.8715,0.2599,-0.2273,1523.68,-1077.64,-562.99
2130,-3.8715,0.2601,-0.2130,1273.68,-1093.26,-953.61
2140,-3.8715,0.2623,-0.1914,1304.93,734.86,-1422.30
2150,-3.8715,0.2678,-0.1801,1586.18,-499.51,-1250.43
2160,-3.8715,0.2732,-0.1891,-1710.69,953.61,-94.12
2170,-3.8713,0.2775,-0.2096,-1023.19,-202.64,1765.20
2180,-3.8713,0.2810,-0.2263,-476.32,1172.36,-406.68
2190,-3.8712,0.2814,-0.2329,-23.19,-968.26,827.64
2200,-3.8712,0.2764,-0.2339,23.68,-1811.95,1108.89
2210,-3.8712,0.2701,-0.2311,-616.94,-1937.01,249.51
2220,-3.8713,0.2700,-0.2214,-1413.82,-1577.64,-1453.61
2230,-3.8713,0.2758,-0.2042,-1429.44,-343.26,624.51
2240,-3.8715,0.2805,-0.1874,-695.07,1859.86,-812.93
2250,-3.8715,0.2810,-0.1818,-85.69,16.11,-1484.74
2260,-3.8715,0.2789,-0.1901,-23.19,734.86,-1344.12
2270,-3.8715,0.2744,-0.2061,-288.82,-327.64,-812.93
2280,-3.8715,0.2689,-0.2178,-866.94,1625.49,-828.55
2290,-3.8715,0.2650,-0.2153,-1570.07,125.49,-1516.05
2300,-3.8715,0.2660,-0.2021,1929.93,437.99,1640.20
2310,-3.8715,0.2761,-0.1909,-1945.07,-1874.51,1062.07
2320,-3.8715,0.2926,-0.1938,-648.19,-437.01,1327.70
2330,-3.8715,0.3081,-0.2136,1461.18,-811.95,-969.18
2340,-3.8713,0.3148,-0.2374,-554.44,656.80,1687.07
2350,-3.8713,0.3094,-0.2487,304.93,1609.99,-203.61
2360,-3.8712,0.2954,-0.2477,-382.57,172.42,390.14
2370,-3.8713,0.2797,-0.2439,1820.56,297.42,-234.86
2380,-3.8713,0.2668,-0.2338,-195.07,781.74,-1437.99
2390,-3.8713,0.2587,-0.2135,-1835.69,-1921.39,1155.76
2400,-3.8715,0.2568,-0.1929,1117.43,672.36,-172.30
2410,-3.8715,0.2609,-0.1859,883.06,-687.01,-781.68
2420,-3.8715,0.2664,-0.1943,1398.68,203.61,-265.99
2430,-3.8713,0.2673,-0.2040,-1898.19,-874.51,1062.07
2440,-3.8713,0.2629,-0.2069,-1773.19,1891.11,-1703.55
2450,-3.8713,0.2583,-0.2101,1664.31,1516.11,-1125.43
2460,-3.8713,0.2582,-0.2203,1070.56,1109.86,-734.80
2470,-3.8713,0.2633,-0.2310,1054.93,-202.64,-109.86
2480,-3.8712,0.2714,-0.2327,1711.18,-1562.01,499.51
2490,-3.8712,0.2797,-0.2242,-1257.57,-1780.76,358.89
2500,-3.8713,0.2871,-0.2139,-195.07,-702.64,-469.24
2510,-3.8713,0.2941,-0.2089,758.06,625.55,-1156.68
2520,-3.8713,0.3011,-0.2070,1648.68,1266.17,-1484.80
2530,-3.8713,0.3054,-0.2062,-1445.07,1500.55,-1297.30
2540,-3.8713,0.3033,-0.2108,-898.19,1609.92,-672.30
2550,-3.8712,0.2963,-0.2225,-1163.82,1016.17,77.70
2560,-3.8712,0.2892,-0.2347,1929.93,-483.83,905.76
2570,-3.8712,0.2803,-0.2311,39.31,1719.30,312.01
2580,-3.8713,0.2816,-0.2242,-116.94,-1577.64,-1000.49
2590,-3.8713,0.2830,-0.2144,54.93,-702.58,1968.26
2600,-3.8713,0.2838,-0.2059,226.81,563.05,1374.57
2610,-3.8713,0.2861,-0.2037,336.18,1641.17,1062.07
2620,-3.8713,0.2855,-0.2090,633.06,1922.42,1093.32
2630,-3.8713,0.2775,-0.2192,554.93,1250.55,1358.95
2640,-3.8713,0.2625,-0.2286,-476.32,-62.01,1296.39
2650,-3.8713,0.2463,-0.2308,1601.81,-1265.14,577.64
2660,-3.8715,0.2358,-0.2202,-460.69,-1546.45,-766.11
2670,-3.8715,0.2334,-0.1980,-1804.44,-187.07,1593.26
2680,-3.8715,0.2397,-0.1785,1883.06,-1343.32,343.32
2690,-3.8715,0.2539,-0.1780,-1304.44,1156.68,405.88
2700,-3.8715,0.2675,-0.1945,508.06,1219.24,1905.88
2710,-3.8715,0.2704,-0.2123,-1757.57,-890.14,-312.93
2720,-3.8713,0.2611,-0.2208,-1382.57,828.61,562.07
2730,-3.8713,0.2468,-0.2178,1429.93,-265.14,171.39
2740,-3.8715,0.2372,-0.2094,-398.19,125.43,-625.43
2750,-3.8715,0.2380,-0.2041,-1632.57,1203.55,-891.05
2760,-3.8715,0.2506,-0.2026,-1523.19,1875.43,-656.68
2770,-3.8715,0.2665,-0.1984,86.18,-1937.01,-406.68
2780,-3.8715,0.2727,-0.1892,-1882.57,-1390.14,-672.30
2790,-3.8715,0.2664,-0.1763,-1085.69,-218.26,-1766.05
2800,-3.8715,0.2544,-0.1632,-1898.19,1437.99,843.38
2810,-3.8715,0.2473,-0.1599,570.56,-890.14,140.26
2820,-3.8715,0.2501,-0.1743,-335.69,-468.32,749.63
2830,-3.8715,0.2581,-0.2021,23.68,1687.99,-1453.49
2840,-3.8713,0.2620,-0.2292,1039.31,-1874.51,874.57
2850,-3.8713,0.2561,-0.2418,1539.31,-1343.26,-1266.11
2860,-3.8713,0.2419,-0.2328,789.31,1047.36,-1141.11
2870,-3.8713,0.2288,-0.2075,-1023.19,-1796.45,1249.51
2880,-3.8715,0.2262,-0.1838,1289.31,1437.93,-719.18
2890,-3.8715,0.2367,-0.1798,961.18,469.18,-1687.87
2900,-3.8715,0.2550,-0.2006,-1695.07,984.80,-828.49
2910,-3.8713,0.2694,-0.2294,648.68,-1671.39,1624.57
2920,-3.8712,0.2722,-0.2457,-1507.57,-1358.89,468.26
2930,-3.8712,0.2631,-0.2458,-1148.19,547.36,-1406.74
2940,-3.8712,0.2493,-0.2394,1679.93,531.74,-875.49
2950,-3.8712,0.2415,-0.2294,-85.69,1359.80,1968.26
2960,-3.8712,0.2467,-0.2144,-1085.69,-1358.95,108.89
2970,-3.8713,0.2639,-0.2003,-413.82,562.93,-1828.55
2980,-3.8713,0.2839,-0.1968,1789.31,-1640.14,296.45
2990,-3.8715,0.2981,-0.2048,351.81,-1186.95,-1531.68
3000,-3.8715,0.2998,-0.2134,-1835.69,1781.80,780.82
3010,-3.8716,0.2880,-0.2155,-1616.94,688.05,-625.43
3020,-3.8716,0.2667,-0.2111,867.43,422.42,-1766.05
3030,-3.8716,0.2428,-0.1997,-1851.32,984.86,1312.07
3040,-3.8716,0.2236,-0.1886,-913.82,-1562.07,937.07
3050,-3.8716,0.2150,-0.1874,633.06,-140.20,1577.70
3060,-3.8716,0.2197,-0.1960,-476.32,15.99,-828.49
3070,-3.8715,0.2345,-0.2073,133.06,-1093.32,1515.20
3080,-3.8715,0.2523,-0.2124,-1976.32,1469.18,-172.30
3090,-3.8713,0.2645,-0.2094,304.93,812.99,1077.70
3100,-3.8713,0.2642,-0.2069,1867.43,1203.61,1312.07
3110,-3.8713,0.2520,-0.2136,1820.56,1516.11,1390.20
3120,-3.8713,0.2344,-0.2224,258.06,656.74,1530.82
3130,-3.8713,0.2190,-0.2218,-1991.94,-468.32,1530.76
3140,-3.8713,0.2100,-0.2135,39.31,-390.20,1421.39
3150,-3.8713,0.2087,-0.2090,-1116.94,672.24,1421.45
3160,-3.8713,0.2595,-0.2373,-1726.32,-1015.20,-484.86
3170,-3.8712,0.2780,-0.2405,1226.81,1625.49,515.14
3180,-3.8712,0.2882,-0.2362,-413.82,1219.24,937.01
3190,-3.8712,0.2909,-0.2286,898.68,1766.17,749.51
3200,-3.8712,0.2876,-0.2227,1242.43,-1265.08,327.64
3210,-3.8713,0.2797,-0.2223,820.56,-499.45,-31.74
3220,-3.8713,0.2675,-0.2271,-195.07,-452.64,-359.86
3230,-3.8713,0.2527,-0.2316,-1757.57,-1062.01,-672.36
3240,-3.8713,0.2365,-0.2308,351.81,-1640.14,-953.61
3250,-3.8713,0.2219,-0.2261,-1726.32,-1546.45,-1359.86
3260,-3.8713,0.2207,-0.2086,-741.94,797.24,968.32
3270,-3.8713,0.2318,-0.2087,258.06,1297.30,1249.57
3280,-3.8713,0.2445,-0.2148,1679.93,1281.68,1937.07
3290,-3.8713,0.2585,-0.2262,-695.07,500.43,-734.80
3300,-3.8712,0.2705,-0.2397,1101.81,-952.64,1140.14
3310,-3.8712,0.2767,-0.2513,-1366.94,1312.99,-1094.24
3320,-3.8712,0.2755,-0.2548,-570.07,-171.39,-109.92
3330,-3.8712,0.2677,-0.2480,-726.32,-608.89,-156.80
3340,-3.8712,0.2557,-0.2374,-1726.32,250.49,-1234.86
3350,-3.8712,0.2432,-0.2283,742.43,1609.86,765.14
3360,-3.8713,0.2344,-0.2195,-866.94,-1218.32,-1672.36
3370,-3.8713,0.2317,-0.2101,-1991.94,-93.32,218.26
3380,-3.8715,0.2330,-0.2039,1664.31,1109.80,-922.30
3390,-3.8715,0.2351,-0.2012,1836.18,1906.68,-1359.80
3400,-3.8715,0.2341,-0.2004,-1898.19,-1749.57,-1437.93
3410,-3.8715,0.2294,-0.2051,1976.81,-1655.82,-1125.43
3420,-3.8715,0.2242,-0.2172,1367.43,1750.43,-437.93
3430,-3.8713,0.2236,-0.2319,711.18,203.55,249.57
3440,-3.8713,0.2266,-0.2423,633.06,-1687.07,702.64
3450,-3.8713,0.2286,-0.2428,1008.06,984.80,687.01
3460,-3.8715,0.2305,-0.2310,1273.68,922.30,-141.11
3470,-3.8715,0.2351,-0.2098,1508.06,-1562.07,-1453.61
3480,-3.8715,0.2439,-0.1893,-1898.19,1141.05,1655.82
3490,-3.8715,0.2559,-0.1836,-773.19,-233.95,1562.07
3500,-3.8715,0.2684,-0.1959,758.06,500.49,-1937.87
3510,-3.8715,0.2759,-0.2147,-1632.57,-1077.64,-1141.05
3520,-3.8715,0.2734,-0.2278,-679.44,516.11,-391.05
3530,-3.8713,0.2621,-0.2324,-991.94,-1155.76,327.64
3540,-3.8713,0.2477,-0.2316,1554.93,-1749.51,999.51
3550,-3.8713,0.2365,-0.2263,-288.82,-1640.20,1358.89
3560,-3.8713,0.2314,-0.2186,-1726.32,-968.32,1343.26
3570,-3.8713,0.2319,-0.2140,1633.06,16.05,1280.82
3580,-3.8713,0.2358,-0.2152,1695.56,609.80,1265.20
3590,-3.8713,0.2419,-0.2216,-1804.44,453.55,1421.45
3600,-3.8713,0.2491,-0.2281,-1023.19,-358.95,1858.89
3610,-3.8713,0.2552,-0.2312,-101.32,-1202.70,-1719.24
3620,-3.8713,0.2583,-0.2321,679.93,-1593.26,-1500.49
3630,-3.8713,0.2579,-0.2322,1070.56,-1702.64,-1453.61
3640,-3.8713,0.2545,-0.2310,1023.68,-1718.26,-1641.11
3650,-3.8713,0.2487,-0.2301,586.18,-1562.01,-1922.36
3660,-3.8713,0.2424,-0.2305,-163.82,-1452.70,1812.01
3670,-3.8713,0.2384,-0.2292,-960.69,-1499.57,1530.76
3680,-3.8713,0.2388,-0.2242,-1476.32,-1343.32,1077.64
3690,-3.8713,0.2433,-0.2205,-1429.44,-702.70,562.01
3700,-3.8713,0.2491,-0.2239,-851.32,-218.32,546.39
3710,-3.8713,0.2531,-0.2324,-101.32,-655.82,1343.26
3720,-3.8713,0.2539,-0.2404,398.68,-1749.51,-1516.11
3730,-3.8713,0.2515,-0.2424,508.06,1234.86,-578.61
3740,-3.8713,0.2460,-0.2405,195.56,969.24,-47.36
3750,-3.8712,0.2394,-0.2413,-507.57,1219.18,15.14
3760,-3.8713,0.2341,-0.2476,-1351.32,1109.80,-203.61
3770,-3.8713,0.2321,-0.2488,1976.81,312.93,-547.36
3780,-3.8713,0.2330,-0.2355,1711.18,156.68,-969.24
3790,-3.8713,0.2365,-0.2192,1836.18,1859.80,-1375.49
3800,-3.8713,0.2407,-0.2158,-1726.32,-62.07,-1656.74
3810,-3.8713,0.2422,-0.2267,-1179.44,375.43,-1641.05
3820,-3.8713,0.2390,-0.2393,-991.94,-1015.20,-1484.86
3830,-3.8713,0.2312,-0.2440,-1398.19,1375.43,-1656.74
3840,-3.8713,0.2208,-0.2429,1601.81,766.05,1796.39
3850,-3.8713,0.2118,-0.2427,273.68,906.68,1374.51
3860,-3.8713,0.2084,-0.2429,-882.57,937.87,1249.51
3870,-3.8713,0.2112,-0.2400,-1320.07,906.62,1499.51
3880,-3.8713,0.2169,-0.2373,-960.69,1281.62,-1969.24
3890,-3.8713,0.2219,-0.2384,-226.32,1625.37,-1641.11
3900,-3.8713,0.2220,-0.2399,414.31,1484.80,-1672.36
3910,-3.8713,0.2163,-0.2360,429.93,1297.30,-1875.49
3920,-3.8713,0.2095,-0.2285,-304.44,1797.24,1905.76
3930,-3.8713,0.2080,-0.2268,-1179.44,-1249.63,1765.14
3940,-3.8713,0.2141,-0.2343,-1366.94,-1030.88,1874.51
3950,-3.8713,0.2228,-0.2457,-585.69,-1984.01,-1969.24
3960,-3.8713,0.2273,-0.2520,523.68,547.30,1608.89
3970,-3.8713,0.2266,-0.2454,1101.81,-249.57,218.20
3980,-3.8715,0.2255,-0.2250,1008.06,594.18,-1422.36
3990,-3.8715,0.2283,-0.2045,867.43,-796.45,-1984.86
4000,-3.8715,0.2346,-0.2051,1226.81,1828.55,-875.43
4010,-3.8713,0.2411,-0.2297,-1960.69,1750.43,1358.95
4020,-3.8712,0.2236,-0.2667,-1601.32,1125.43,905.70
4030,-3.8713,0.2136,-0.2441,633.06,1859.80,-1047.42
4040,-3.8713,0.2168,-0.2178,-648.19,750.37,843.26
4050,-3.8715,0.2333,-0.2053,-241.94,125.37,-312.93
4060,-3.8715,0.2534,-0.2142,1867.43,1719.18,-172.30
4070,-3.8713,0.2668,-0.2349,445.56,578.61,983.95
4080,-3.8713,0.2662,-0.2513,-1835.69,1937.99,-1578.61
4090,-3.8713,0.2531,-0.2550,-1913.82,-171.39,-844.30
4100,-3.8713,0.2369,-0.2456,398.68,-640.14,-1422.42
4110,-3.8713,0.2255,-0.2310,-1663.82,562.93,1093.26
4120,-3.8715,0.2205,-0.2225,867.43,-1562.07,-312.99
4130,-3.8715,0.2239,-0.2244,226.81,-483.95,-844.24
4140,-3.8715,0.2344,-0.2324,664.31,-718.32,-125.49
4150,-3.8713,0.2444,-0.2399,-1991.94,-1749.57,1452.64
4160,-3.8713,0.2480,-0.2428,-710.69,1297.30,-1156.74
4170,-3.8713,0.2463,-0.2402,-241.94,922.30,-703.61
4180,-3.8713,0.2435,-0.2345,-460.69,1250.43,-1234.86
4190,-3.8713,0.2435,-0.2332,-820.07,1984.80,1905.76
4200,-3.8713,0.2457,-0.2374,-820.07,-1843.32,1374.51
4210,-3.8713,0.2455,-0.2394,-538.82,1609.80,1093.26
4220,-3.8713,0.2419,-0.2339,-570.07,1359.80,780.76
4230,-3.8713,0.2334,-0.2262,-1023.19,-1937.07,437.01
4240,-3.8713,0.2211,-0.2236,1883.06,-952.70,62.01
4250,-3.8715,0.2133,-0.2289,304.93,-624.57,-0.49
4260,-3.8713,0.2139,-0.2375,-695.07,-1296.51,608.89
4270,-3.8713,0.2183,-0.2389,-616.94,1594.12,1437.01
4280,-3.8713,0.2228,-0.2310,-54.44,1422.24,1624.51
4290,-3.8713,0.2288,-0.2233,523.68,-1562.07,1140.14
4300,-3.8713,0.2318,-0.2423,-1382.57,1281.68,-1656.74
4310,-3.8713,0.2216,-0.2374,1679.93,984.80,1671.39
4320,-3.8713,0.2135,-0.2277,367.43,1609.80,421.39
4330,-3.8715,0.2103,-0.2188,-663.82,-1140.26,-906.74
4340,-3.8715,0.2137,-0.2150,-1070.07,0.37,-1766.05
4350,-3.8715,0.2251,-0.2158,-632.57,484.74,-1859.80
4360,-3.8715,0.2416,-0.2203,820.56,375.43,-812.93
4370,-3.8713,0.2561,-0.2299,-1070.07,-202.70,1140.14
4380,-3.8713,0.2618,-0.2429,789.31,-1421.39,-828.61
4390,-3.8712,0.2544,-0.2529,1523.68,906.74,483.89
4400,-3.8712,0.2374,-0.2546,570.56,-374.51,608.83
4410,-3.8713,0.2206,-0.2498,-1601.32,-593.32,-266.17
4420,-3.8713,0.2118,-0.2399,242.43,31.68,-1687.99
4430,-3.8713,0.2151,-0.2252,-882.57,1297.24,858.89
4440,-3.8715,0.2272,-0.2139,-460.69,-827.76,-312.99
4450,-3.8715,0.2394,-0.2135,1086.18,625.43,-1016.05
4460,-3.8715,0.2454,-0.2228,-1351.32,672.30,-969.18
4470,-3.8715,0.2456,-0.2340,-585.69,-515.20,-203.61
4480,-3.8713,0.2411,-0.2433,-554.44,-1952.70,796.39
4490,-3.8713,0.2313,-0.2494,-1132.57,859.80,1327.64
4500,-3.8713,0.2209,-0.2499,1617.43,78.55,1202.64
4510,-3.8713,0.2150,-0.2438,289.31,16.05,687.01
4520,-3.8713,0.2148,-0.2303,-476.32,797.24,77.64
4530,-3.8715,0.2214,-0.2159,-491.94,-1484.01,-297.36
4540,-3.8713,0.2336,-0.2133,351.81,359.80,140.20
4550,-3.8713,0.2476,-0.2288,1914.31,703.55,1530.82
4560,-3.8713,0.2562,-0.2544,-304.44,-1280.82,-562.99
4570,-3.8712,0.2539,-0.2761,804.93,-562.01,1124.45
4580,-3.8713,0.2134,-0.2485,883.06,1312.93,-828.67
4590,-3.8713,0.2111,-0.2245,-679.44,187.87,437.01
4600,-3.8715,0.2168,-0.2056,-976.32,-734.01,1968.26
4610,-3.8715,0.2250,-0.1982,-241.94,1687.87,858.95
4620,-3.8715,0.2323,-0.2064,804.93,-1374.57,1327.70
4630,-3.8715,0.2355,-0.2235,1742.43,1578.55,-1297.30
4640,-3.8713,0.2332,-0.2408,-1851.32,-608.95,468.26
4650,-3.8713,0.2294,-0.2566,1851.81,1172.30,-1625.49
4660,-3.8713,0.2266,-0.2667,1367.43,-843.32,-391.17
4670,-3.8713,0.2249,-0.2649,1008.06,1859.80,-578.67
4680,-3.8713,0.2258,-0.2507,789.31,-1905.82,1968.20
4690,-3.8713,0.2296,-0.2325,914.31,-93.32,124.45
4700,-3.8715,0.2351,-0.2178,1398.68,-1765.20,-1031.74
4710,-3.8715,0.2416,-0.2107,-1898.19,125.43,-781.68
4720,-3.8713,0.2488,-0.2153,-1070.07,1031.68,452.70
4730,-3.8713,0.2555,-0.2294,-148.19,437.93,1796.45
4740,-3.8713,0.2568,-0.2446,711.18,-1358.89,-1328.61
4750,-3.8713,0.2471,-0.2544,883.06,687.99,-1078.61
4760,-3.8713,0.2279,-0.2549,-366.94,-562.07,-1563.05
4770,-3.8713,0.2074,-0.2446,1179.93,-624.57,1218.20
4780,-3.8715,0.1957,-0.2299,-1445.07,687.87,-47.36
4790,-3.8715,0.1980,-0.2228,1054.93,-1421.51,-734.86
4800,-3.8715,0.2115,-0.2303,1351.81,-515.26,-547.36
4810,-3.8713,0.2277,-0.2521,-913.82,-1484.01,780.76
4820,-3.8713,0.2385,-0.2773,1148.68,-265.20,-734.92
4830,-3.8712,0.2433,-0.2909,-1460.69,500.43,1655.70
4840,-3.8712,0.2426,-0.2872,-851.32,-1233.95,-1484.99
4850,-3.8712,0.2362,-0.2704,-945.07,-765.20,1421.26
4860,-3.8715,0.2520,-0.2195,-1195.07,484.80,1390.20
4870,-3.8715,0.2572,-0.2327,258.06,-93.26,-1562.99
4880,-3.8713,0.2516,-0.2500,929.93,-1780.76,421.39
4890,-3.8713,0.2378,-0.2684,211.18,0.49,-1344.24
4900,-3.8712,0.2205,-0.2832,-1554.44,1641.05,483.83
4910,-3.8712,0.2043,-0.2878,226.81,-249.57,1280.64
4920,-3.8712,0.1954,-0.2782,-1835.69,-843.38,718.14
4930,-3.8713,0.1979,-0.2568,1023.68,390.99,-891.17
4940,-3.8713,0.2104,-0.2341,1336.18,-874.63,1311.95
4950,-3.8715,0.2281,-0.2214,-1054.44,-1968.38,-47.36
4960,-3.8715,0.2423,-0.2209,1211.18,-343.32,-750.49
4970,-3.8715,0.2456,-0.2295,-976.32,-280.82,-766.11
4980,-3.8715,0.2384,-0.2419,-554.44,-1374.57,-156.74
4990,-3.8713,0.2246,-0.2488,-1476.32,1031.68,452.64
5000,-3.8713,0.2094,-0.2461,758.06,156.68,499.51
5010,-3.8713,0.2001,-0.2415,-1195.07,500.37,93.26
5020,-3.8715,0.2012,-0.2434,1617.43,1094.12,-16.11
5030,-3.8713,0.2117,-0.2511,1758.06,844.12,874.51
5040,-3.8713,0.2268,-0.2594,-898.19,-140.26,-1375.55
5050,-3.8712,0.2397,-0.2637,1039.31,-1202.70,280.70
5060,-3.8712,0.2471,-0.2648,-1304.44,-1749.57,1124.45
5070,-3.8712,0.2501,-0.2690,-366.94,-1890.20,1171.33
5080,-3.8712,0.2512,-0.2728,23.68,1562.99,765.08
5090,-3.8713,0.2493,-0.2640,164.31,1078.61,-281.80
5100,-3.8713,0.2429,-0.2408,-85.69,-1796.45,1749.45
5110,-3.8715,0.2343,-0.2185,-898.19,1172.30,-328.61
5120,-3.8715,0.2269,-0.2145,1992.43,31.68,-1516.05
5130,-3.8715,0.2229,-0.2268,1054.93,547.30,-1375.43
5140,-3.8713,0.2170,-0.2562,54.93,62.93,-1734.86
5150,-3.8713,0.2144,-0.2639,-210.69,-796.51,-531.80
5160,-3.8712,0.2097,-0.2673,-554.44,-1780.88,280.70
5170,-3.8712,0.2050,-0.2601,-1148.19,1781.62,15.08
5180,-3.8713,0.2051,-0.2444,-1757.57,-1296.51,-1125.55
5190,-3.8713,0.2111,-0.2339,-1741.94,719.12,1687.01
5200,-3.8713,0.2181,-0.2432,-976.32,-1937.13,1140.14
5210,-3.8713,0.2223,-0.2634,-70.07,875.37,1187.01
5220,-3.8713,0.2228,-0.2689,461.18,-1718.32,796.33
5230,-3.8715,0.2186,-0.2509,523.68,1578.55,-891.17
5240,-3.8715,0.2142,-0.2209,-7.57,-109.01,233.83
5250,-3.8716,0.2159,-0.1984,-570.07,-280.88,1499.51
5260,-3.8716,0.2261,-0.2017,-351.32,-1390.26,1015.20
5270,-3.8716,0.2416,-0.2317,945.56,-1812.07,-484.80
5280,-3.8715,0.2529,-0.2635,-1070.07,-1655.82,-422.36
5290,-3.8713,0.2506,-0.2738,383.06,-1733.89,-984.92
5300,-3.8712,0.2358,-0.2651,86.18,953.61,343.20
5310,-3.8713,0.2211,-0.2531,-1804.44,-1937.07,-453.67
5320,-3.8713,0.2186,-0.2465,304.93,-390.20,1858.83
5330,-3.8713,0.2291,-0.2440,-7.57,453.49,624.51
5340,-3.8713,0.2432,-0.2423,1336.18,766.05,421.39
5350,-3.8713,0.2515,-0.2429,-866.94,984.80,999.51
5360,-3.8713,0.2516,-0.2489,195.56,906.74,1952.64
5370,-3.8713,0.2448,-0.2582,211.18,141.11,-969.24
5380,-3.8713,0.2339,-0.2625,-663.82,-1046.45,-250.55
5390,-3.8713,0.2225,-0.2562,1945.56,-1593.32,-375.55
5400,-3.8713,0.2133,-0.2432,492.43,-796.45,-1250.55
5410,-3.8713,0.2091,-0.2349,-695.07,875.37,1921.39
5420,-3.8713,0.2343,-0.2612,1586.18,-1296.45,-359.92
5430,-3.8713,0.2313,-0.2594,1992.43,-1437.07,-641.17
5440,-3.8713,0.2234,-0.2573,1617.43,-1202.70,-1344.30
5450,-3.8713,0.2119,-0.2523,601.81,-937.07,1921.33
5460,-3.8713,0.2018,-0.2455,-866.94,-296.51,1468.20
5470,-3.8713,0.2004,-0.2412,1836.18,578.49,1390.14
5480,-3.8713,0.2098,-0.2438,1664.31,1125.37,-1984.86
5490,-3.8713,0.2238,-0.2538,-1132.57,797.24,-859.86
5500,-3.8712,0.2341,-0.2651,648.68,-483.95,30.70
5510,-3.8712,0.2361,-0.2703,1976.81,-1937.07,186.95
5520,-3.8713,0.2308,-0.2633,-1773.19,1406.68,-609.92
5530,-3.8713,0.2241,-0.2476,1554.93,-1702.70,1905.70
5540,-3.8713,0.2195,-0.2345,695.56,312.93,358.89
5550,-3.8715,0.2173,-0.2313,101.81,1984.80,-750.49
5560,-3.8715,0.2170,-0.2346,-179.44,-1609.01,-1250.49
5570,-3.8715,0.2167,-0.2395,-210.69,1969.12,-1250.49
5580,-3.8715,0.2134,-0.2443,-257.57,1344.12,-937.99
5590,-3.8715,0.2073,-0.2445,-679.44,734.74,-906.74
5600,-3.8715,0.2028,-0.2410,-1460.69,703.49,-1078.61
5610,-3.8715,0.2043,-0.2416,1961.18,1156.62,-562.99
5620,-3.8713,0.2125,-0.2480,-1835.69,1078.49,640.14
5630,-3.8713,0.2224,-0.2551,-788.82,250.37,1999.51
5640,-3.8713,0.2295,-0.2585,476.81,-655.82,-1094.30
5650,-3.8713,0.2302,-0.2538,1383.06,-1093.32,-1219.30
5660,-3.8713,0.2234,-0.2399,1476.81,-483.95,1718.20
5670,-3.8713,0.2147,-0.2261,601.81,1297.30,233.89
5680,-3.8715,0.2111,-0.2217,-507.57,-937.13,-1062.99
5690,-3.8713,0.2267,-0.2640,633.06,47.30,-1719.24
5700,-3.8713,0.2261,-0.2683,1023.68,-1796.45,-266.17
5710,-3.8712,0.2208,-0.2610,945.56,1656.68,327.58
5720,-3.8713,0.2159,-0.2504,273.68,-1405.82,-16.17
5730,-3.8713,0.2172,-0.2434,-351.32,-46.51,-984.92
5740,-3.8713,0.2234,-0.2400,-195.07,844.12,-1937.99
5750,-3.8713,0.2291,-0.2394,601.81,1281.68,1546.39
5760,-3.8713,0.2300,-0.2418,1336.18,1359.80,1358.89
5770,-3.8713,0.2261,-0.2449,1445.56,1047.30,1124.51
5780,-3.8713,0.2196,-0.2418,945.56,656.68,483.89
5790,-3.8715,0.2113,-0.2335,117.43,1047.30,-484.86
5800,-3.8715,0.2057,-0.2336,-945.07,-1890.26,-1250.49
5810,-3.8715,0.2061,-0.2457,-1663.82,-1905.88,-1281.74
5820,-3.8715,0.2112,-0.2563,-1616.94,547.24,-531.74
5830,-3.8713,0.2172,-0.2538,-960.69,-812.13,655.70
5840,-3.8713,0.2207,-0.2448,-195.07,-484.01,1640.08
5850,-3.8713,0.2227,-0.2432,258.06,672.30,-1781.74
5860,-3.8713,0.2211,-0.2539,508.06,875.43,-1094.24
5870,-3.8713,0.2140,-0.2671,304.93,-499.57,-422.42
5880,-3.8713,0.2043,-0.2695,-601.32,1812.87,-609.92
5890,-3.8713,0.1948,-0.2588,-1835.69,1500.37,1780.70
5900,-3.8715,0.1884,-0.2406,945.56,-1124.63,-828.67
5910,-3.8715,0.1876,-0.2211,117.43,1203.49,640.14
5920,-3.8716,0.1963,-0.2111,23.68,-296.51,-500.49
5930,-3.8715,0.2129,-0.2192,1133.06,984.74,343.32
5940,-3.8715,0.2305,-0.2396,-741.94,-62.13,-1719.24
5950,-3.8713,0.2437,-0.2551,1508.06,1328.55,124.51
5960,-3.8713,0.2476,-0.2576,-804.44,-655.82,1561.95
5970,-3.8712,0.2296,-0.2775,1320.56,484.80,702.58
5980,-3.8713,0.2317,-0.2643,1398.68,484.80,-203.67
5990,-3.8713,0.2312,-0.2415,1664.31,-1827.70,-1953.67
6000,-3.8713,0.2267,-0.2251,1601.81,1094.18,452.64
6010,-3.8715,0.2225,-0.2299,1023.68,-812.07,-47.36
6020,-3.8713,0.2219,-0.2458,492.43,-1421.45,577.64
6030,-3.8713,0.2214,-0.2573,414.31,531.68,1874.51
6040,-3.8713,0.2177,-0.2642,351.81,-937.07,-797.42
6050,-3.8713,0.2137,-0.2701,-132.57,-1812.13,-0.55
6060,-3.8712,0.2129,-0.2747,-632.57,1422.24,421.33
6070,-3.8712,0.2137,-0.2750,-741.94,844.12,593.20
6080,-3.8712,0.2167,-0.2695,-632.57,797.24,327.58
6090,-3.8713,0.2197,-0.2605,-257.57,1500.37,-641.17
6100,-3.8713,0.2195,-0.2509,133.06,-1343.32,1890.08
6110,-3.8713,0.2153,-0.2415,101.81,-108.95,436.95
6120,-3.8715,0.2114,-0.2362,-429.44,1094.12,-687.99
6130,-3.8715,0.2134,-0.2419,-929.44,1765.99,-766.11
6140,-3.8713,0.2208,-0.2572,-679.44,1031.62,515.14
6150,-3.8713,0.2274,-0.2723,273.68,-921.45,-1625.55
6160,-3.8713,0.2285,-0.2782,1117.43,1141.05,-313.05
6170,-3.8713,0.2236,-0.2721,1258.06,391.05,-234.92
6180,-3.8713,0.2153,-0.2574,633.06,1172.30,-1078.67
6190,-3.8713,0.2080,-0.2434,-429.44,-952.76,-1984.92
6200,-3.8713,0.2072,-0.2369,-1366.94,844.12,1483.89
6210,-3.8713,0.2137,-0.2390,-1476.32,1672.24,1171.39
6220,-3.8713,0.2214,-0.2439,-632.57,1406.62,687.01
6230,-3.8715,0.2241,-0.2432,351.81,781.68,-47.36
6240,-3.8715,0.2222,-0.2357,695.56,875.43,-672.36
6250,-3.8713,0.2153,-0.2712,-398.19,312.87,-1094.24
6260,-3.8712,0.2179,-0.2867,-429.44,1281.62,530.70
6270,-3.8712,0.2186,-0.2834,-101.32,-702.76,546.26
6280,-3.8713,0.2151,-0.2612,-7.57,-280.88,-1328.74
6290,-3.8715,0.2102,-0.2303,-460.69,-1437.13,-203.67
6300,-3.8715,0.2083,-0.2103,-1085.69,-1484.01,1655.76
6310,-3.8715,0.2112,-0.2118,-1335.69,1078.49,1155.82
6320,-3.8715,0.2155,-0.2258,-960.69,890.99,1858.95
6330,-3.8715,0.2147,-0.2405,-413.82,-905.88,-969.24
6340,-3.8713,0.2061,-0.2546,-507.57,1219.12,374.51
6350,-3.8713,0.1941,-0.2692,-1616.94,-593.38,1890.08
6360,-3.8713,0.1865,-0.2798,851.81,1547.24,-813.05
6370,-3.8713,0.1858,-0.2795,-116.94,187.81,-516.17
6380,-3.8713,0.1906,-0.2628,-210.69,219.06,-1516.17
6390,-3.8713,0.1985,-0.2349,398.68,-1640.26,702.58
6400,-3.8715,0.2063,-0.2163,1414.31,1937.87,-672.36
6410,-3.8715,0.2117,-0.2208,-1585.69,312.87,-719.18
6420,-3.8713,0.2135,-0.2410,-898.19,-265.26,405.76
6430,-3.8713,0.2109,-0.2610,-663.82,1156.62,1733.89
6440,-3.8713,0.2059,-0.2739,-991.94,-1405.88,-1500.55
6450,-3.8713,0.1990,-0.2794,-1632.57,937.87,-1422.42
6460,-3.8713,0.1932,-0.2734,1476.81,234.74,1983.83
6470,-3.8713,0.1973,-0.2538,742.43,1000.37,921.33
6480,-3.8713,0.2118,-0.2329,1258.06,-484.01,171.33
6490,-3.8713,0.2297,-0.2275,-882.57,-1812.13,358.89
6500,-3.8713,0.2437,-0.2388,1414.31,-1124.57,1155.76
6510,-3.8713,0.2472,-0.2548,-804.44,1437.93,1937.01
6520,-3.8713,0.2395,-0.2657,-351.32,-608.95,-1750.55
6530,-3.8713,0.2218,-0.2590,-195.07,-1890.26,1858.83
6540,-3.8713,0.2272,-0.2510,398.68,-1155.82,-1000.55
6550,-3.8713,0.2291,-0.2429,1086.18,-124.57,-125.55
6560,-3.8713,0.2262,-0.2389,1336.18,906.68,-47.36
6570,-3.8713,0.2216,-0.2412,961.18,1422.30,-797.36
6580,-3.8713,0.2170,-0.2468,367.43,1125.43,-1875.49
6590,-3.8713,0.2118,-0.2489,-210.69,406.62,1062.01
6600,-3.8713,0.2074,-0.2454,-882.57,140.99,77.64
6610,-3.8715,0.2039,-0.2412,-1445.07,594.12,-422.36
6620,-3.8715,0.2009,-0.2429,-1898.19,1125.37,-31.74
6630,-3.8713,0.1998,-0.2528,1726.81,906.62,1124.51
6640,-3.8713,0.1979,-0.2638,1586.18,-359.01,-1625.55
6650,-3.8713,0.1929,-0.2670,1336.18,-1765.26,-875.55
6660,-3.8713,0.1873,-0.2628,695.56,1828.49,-1000.55
6670,-3.8713,0.1852,-0.2573,-23.19,-1640.32,-1781.80
6680,-3.8713,0.1886,-0.2524,-288.82,-937.19,1343.20
6690,-3.8713,0.1996,-0.2461,148.68,-312.13,780.70
6700,-3.8713,0.2148,-0.2400,1554.93,500.37,718.26
6710,-3.8713,0.2284,-0.2399,-491.94,1281.62,1077.64
6720,-3.8713,0.2345,-0.2471,1242.43,1297.30,1874.51
6730,-3.8713,0.2295,-0.2593,-1976.32,375.43,-1062.99
6740,-3.8713,0.2178,-0.2709,1383.06,-1187.07,-359.92
6750,-3.8713,0.2075,-0.2747,-116.94,1328.49,-516.17
6760,-3.8713,0.2061,-0.2678,-1429.44,844.12,-1375.55
6770,-3.8713,0.2131,-0.2546,-1616.94,1719.12,1593.20
6780,-3.8713,0.2236,-0.2407,-710.69,-593.38,733.83
6790,-3.8713,0.2327,-0.2347,633.06,1187.93,327.64
6800,-3.8713,0.2362,-0.2423,1789.31,1953.55,624.51
6810,-3.8713,0.2323,-0.2543,-1757.57,984.80,1124.51
6820,-3.8713,0.2231,-0.2600,1742.43,-546.45,1140.08
6830,-3.8713,0.2140,-0.2562,570.56,-1280.82,905.70
6840,-3.8713,0.2080,-0.2454,-601.32,-796.51,702.58
6850,-3.8713,0.2053,-0.2384,-1366.94,594.12,546.39
6860,-3.8713,0.2068,-0.2452,-1710.69,1484.74,608.89
6870,-3.8713,0.2112,-0.2600,-1523.19,609.74,1140.14
6880,-3.8713,0.2153,-0.2675,-960.69,-1280.88,1811.95
6890,-3.8713,0.2184,-0.2594,-429.44,1765.99,1718.20
6900,-3.8713,0.2244,-0.2399,-38.82,-1202.76,452.58
6910,-3.8715,0.2344,-0.2208,726.81,1297.30,-953.61
6920,-3.8715,0.2429,-0.2185,-1991.94,-265.20,-1062.99
6930,-3.8713,0.2476,-0.2395,-898.19,31.68,593.32
6940,-3.8713,0.2477,-0.2732,-304.44,1344.18,-844.24
6950,-3.8712,0.2412,-0.2975,-288.82,1031.68,1202.58
6960,-3.8712,0.2260,-0.2953,-1116.94,1922.30,1405.64
6970,-3.8713,0.2059,-0.2709,929.93,-1796.45,-625.61
6980,-3.8713,0.1918,-0.2406,-1632.57,1328.49,468.20
6990,-3.8715,0.1904,-0.2183,554.93,1203.49,-1719.24
7000,-3.8715,0.2003,-0.2134,383.06,62.87,1608.95
7010,-3.8715,0.2156,-0.2280,1648.68,687.87,-1187.93
7020,-3.8713,0.2284,-0.2521,-398.19,-1187.13,1171.39
7030,-3.8713,0.2330,-0.2700,1242.43,-265.20,-813.05
7040,-3.8713,0.2291,-0.2736,1836.18,1437.93,-63.05
7050,-3.8713,0.2188,-0.2660,1336.18,984.80,-516.17
7060,-3.8713,0.2065,-0.2549,8.06,1953.55,-1656.80
7070,-3.8713,0.1993,-0.2487,-1554.44,-624.63,1218.20
7080,-3.8713,0.2012,-0.2506,1523.68,172.24,780.76
7090,-3.8713,0.2090,-0.2550,1758.06,-77.76,1077.58
7100,-3.8713,0.2161,-0.2400,304.93,-1952.70,108.89
7110,-3.8713,0.2109,-0.2516,-335.69,1281.62,968.26
7120,-3.8713,0.2067,-0.2562,-991.94,-202.76,1765.08
7130,-3.8713,0.2039,-0.2552,-1538.82,-796.51,1796.33
7140,-3.8713,0.2051,-0.2570,-1898.19,-671.51,1155.70
7150,-3.8713,0.2087,-0.2610,-1741.94,-890.26,671.33
7160,-3.8713,0.2118,-0.2568,-1273.19,-1405.88,499.45
7170,-3.8713,0.2147,-0.2428,-882.57,-874.63,436.95
7180,-3.8713,0.2368,-0.2576,1086.18,1531.68,1812.01
7190,-3.8713,0.2408,-0.2738,-1679.44,-968.32,-891.17
7200,-3.8713,0.2339,-0.2744,-1163.82,953.55,-250.55
7210,-3.8713,0.2189,-0.2612,1945.56,875.43,-781.80
7220,-3.8713,0.2039,-0.2479,23.68,-1437.07,1890.08
7230,-3.8713,0.1962,-0.2456,-1898.19,265.99,796.39
7240,-3.8713,0.1981,-0.2490,1117.43,562.87,468.26
7250,-3.8713,0.2052,-0.2467,1367.43,125.37,577.64
7260,-3.8713,0.2113,-0.2375,-1726.32,422.24,405.76
7270,-3.8715,0.2152,-0.2334,-945.07,1594.12,-141.11
7280,-3.8715,0.2164,-0.2396,-445.07,-1874.63,-453.61
7290,-3.8715,0.2142,-0.2457,-288.82,1328.49,-297.36
7300,-3.8713,0.2120,-0.2485,-570.07,547.24,124.51
7310,-3.8713,0.2130,-0.2523,-851.32,187.87,671.39
7320,-3.8713,0.2166,-0.2532,-726.32,-296.51,1108.83
7330,-3.8713,0.2190,-0.2493,-273.19,-405.88,1405.70
7340,-3.8713,0.2195,-0.2496,39.31,94.18,1749.51
7350,-3.8713,0.2186,-0.2587,101.81,47.30,-1828.61
7360,-3.8713,0.2161,-0.2673,-7.57,-1109.01,-1328.67
7370,-3.8713,0.2107,-0.2688,-335.69,1781.62,-875.55
7380,-3.8713,0.2028,-0.2661,-1023.19,1594.12,-828.67
7390,-3.8713,0.1954,-0.2653,1961.18,1937.87,-1203.67
7400,-3.8713,0.1925,-0.2650,1023.68,-1952.76,-1547.42
7410,-3.8713,0.1947,-0.2582,648.68,-1921.51,-1813.05
7420,-3.8713,0.2012,-0.2435,929.93,-1046.51,1655.70
7430,-3.8713,0.2087,-0.2329,1758.06,828.49,890.14
7440,-3.8713,0.2137,-0.2395,-1273.19,-1812.13,843.26
7450,-3.8713,0.2155,-0.2584,-632.57,1344.12,-1922.36
7460,-3.8713,0.2148,-0.2703,-413.82,-1077.76,-469.30
7470,-3.8713,0.2102,-0.2667,-491.94,1406.62,-266.17
7480,-3.8713,0.2026,-0.2551,-1085.69,1859.74,-1484.92
7490,-3.8713,0.1971,-0.2438,1945.56,-655.88,796.33
7500,-3.8715,0.1984,-0.2380,1242.43,797.24,-328.61
7510,-3.8713,0.2067,-0.2432,1398.68,1531.62,62.01
7520,-3.8713,0.2170,-0.2557,-1538.82,875.37,1749.51
7530,-3.8713,0.2216,-0.2649,-210.69,-734.01,-391.17
7540,-3.8712,0.2139,-0.2656,367.43,-1905.82,390.08
7550,-3.8713,0.1981,-0.2629,-616.94,-1999.63,-344.30
7560,-3.8713,0.1835,-0.2581,1367.43,-1655.88,1921.33
7570,-3.8715,0.1790,-0.2463,-507.57,-1030.94,-0.55
7580,-3.8715,0.1893,-0.2339,-1085.69,469.06,-1203.61
7590,-3.8715,0.2087,-0.2310,242.43,-1937.13,-1203.61
7600,-3.8715,0.2269,-0.2386,-1273.19,-1562.13,-0.49
7610,-3.8713,0.2371,-0.2505,1054.93,1453.55,1515.14
7620,-3.8713,0.2361,-0.2595,-1648.19,-62.07,-1406.80
7630,-3.8713,0.2258,-0.2648,-1773.19,-1218.32,-1219.30
7640,-3.8713,0.2145,-0.2650,914.31,-1890.20,-1844.30
7650,-3.8713,0.2086,-0.2600,-538.82,-1921.51,1624.45
7660,-3.8713,0.2094,-0.2538,-1288.82,-1280.88,1608.83
7670,-3.8713,0.2136,-0.2518,-1195.07,-484.01,1780.70
7680,-3.8713,0.2192,-0.2529,-648.19,-234.01,1811.95
7690,-3.8713,0.2239,-0.2506,70.56,-374.57,1702.58
7700,-3.8713,0.2245,-0.2455,664.31,-77.70,1546.33
7710,-3.8713,0.2201,-0.2457,742.43,578.55,1327.64
7720,-3.8713,0.2133,-0.2537,179.93,547.30,1140.14
7730,-3.8713,0.2078,-0.2634,-695.07,-468.38,1296.33
7740,-3.8713,0.2026,-0.2671,-1398.19,-1718.38,1811.95
7750,-3.8713,0.1941,-0.2610,1945.56,1812.87,1952.58
7760,-3.8713,0.1835,-0.2498,851.81,-1405.88,1280.70
7770,-3.8713,0.1755,-0.2400,-507.57,31.56,265.14
7780,-3.8715,0.1763,-0.2346,-1523.19,1281.56,-312.99
7790,-3.8715,0.1865,-0.2379,-1429.44,1969.06,-0.49
7800,-3.8713,0.2007,-0.2516,-116.94,1547.18,1421.39
7810,-3.8713,0.2112,-0.2693,1695.56,-202.76,-625.55
7820,-3.8712,0.2144,-0.2788,-960.69,1531.62,843.20
7830,-3.8712,0.2096,-0.2736,-554.44,312.87,1140.08
7840,-3.8712,0.1997,-0.2629,-1163.82,984.74,296.33
7850,-3.8713,0.1915,-0.2573,1570.56,-1655.88,-1078.67
7860,-3.8713,0.1902,-0.2537,523.68,-937.13,1593.20
7870,-3.8713,0.1971,-0.2493,351.81,-468.38,1046.33
7880,-3.8713,0.2089,-0.2488,1242.43,94.12,1390.14
7890,-3.8713,0.2209,-0.2533,-1257.57,156.62,-1969.24
7900,-3.8713,0.2290,-0.2571,289.31,-421.45,-1625.55
7910,-3.8713,0.2306,-0.2571,1320.56,-905.82,-1891.17
7920,-3.8713,0.2262,-0.2552,1523.68,-905.82,1311.95
7930,-3.8713,0.2189,-0.2531,961.18,-671.45,499.45
7940,-3.8713,0.2142,-0.2511,23.68,-390.20,77.58
7950,-3.8713,0.2128,-0.2520,-570.07,-140.26,280.70
7960,-3.8713,0.2108,-0.2581,-757.57,-249.63,1061.95
7970,-3.8713,0.2069,-0.2634,-1007.57,-1030.88,1890.08
7980,-3.8713,0.1996,-0.2581,-1507.57,-1718.38,-1859.92
7990,-3.8713,0.1901,-0.2462,1554.93,-1030.88,1749.45
8000,-3.8713,0.1851,-0.2401,336.18,484.74,1015.14
8010,-3.8713,0.1886,-0.2428,-304.44,1265.93,358.89
8020,-3.8713,0.1976,-0.2480,148.68,922.24,108.89
8030,-3.8715,0.2051,-0.2501,1304.93,250.37,-109.86
8040,-3.8715,0.2074,-0.2500,-1741.94,-15.26,-578.67
8050,-3.8715,0.2061,-0.2491,-1445.07,0.37,-1109.86
8060,-3.8715,0.2056,-0.2480,-1616.94,109.74,-1312.99
8070,-3.8715,0.2083,-0.2493,-1679.44,250.37,-859.86
8080,-3.8713,0.2133,-0.2532,-1335.69,94.12,187.01
8090,-3.8713,0.2191,-0.2583,-695.07,-405.88,1296.33
8100,-3.8713,0.2213,-0.2649,54.93,-1062.07,-1891.17
8110,-3.8713,0.2177,-0.2717,336.18,-1905.82,-1453.67
8120,-3.8713,0.2123,-0.2723,-132.57,1219.12,-1734.92
8130,-3.8713,0.2092,-0.2623,-820.07,1140.99,1421.33
8140,-3.8713,0.2104,-0.2498,-1210.69,-1577.76,530.70
8150,-3.8713,0.2168,-0.2450,-1054.44,31.62,46.39
8160,-3.8713,0.2256,-0.2480,-241.94,640.99,265.14
8170,-3.8713,0.2319,-0.2551,883.06,250.43,1171.39
8180,-3.8713,0.2316,-0.2660,1695.56,-655.82,-1531.80
8190,-3.8713,0.2224,-0.2765,1648.68,1953.55,-453.67
8200,-3.8713,0.2063,-0.2784,476.81,609.80,-141.17
8210,-3.8713,0.1902,-0.2679,-1585.69,359.74,-1063.05
8220,-3.8713,0.1810,-0.2472,351.81,1703.49,1061.95
8230,-3.8715,0.1804,-0.2280,-820.07,359.68,-531.74
8240,-3.8715,0.1863,-0.2264,-898.19,-1187.19,-859.86
8250,-3.8713,0.1951,-0.2435,-148.19,-984.07,124.51
8260,-3.8713,0.2023,-0.2637,976.81,828.49,1765.14
8270,-3.8713,0.2053,-0.2758,1898.68,-1749.63,-734.92
8280,-3.8712,0.2051,-0.2823,-1710.69,703.49,265.08
8290,-3.8712,0.2045,-0.2858,-1741.94,-140.26,608.76
8300,-3.8712,0.2080,-0.2786,-1820.07,-577.76,608.76
8310,-3.8712,0.2148,-0.2611,-1366.94,344.12,468.20
8320,-3.8712,0.2225,-0.2461,-491.94,-1421.51,77.58
8330,-3.8713,0.2295,-0.2415,492.43,500.43,-687.99
8340,-3.8713,0.2318,-0.2440,1383.06,1094.18,-1641.11
8350,-3.8713,0.2263,-0.2477,1679.93,766.05,1468.26
8360,-3.8713,0.2148,-0.2512,976.81,297.30,624.51
8370,-3.8715,0.2028,-0.2527,-491.94,-155.88,-0.55
8380,-3.8715,0.1946,-0.2493,1961.18,-343.38,-63.05
8390,-3.8713,0.1923,-0.2461,914.31,94.12,437.01
8400,-3.8713,0.1947,-0.2512,617.43,500.37,1233.89
8410,-3.8713,0.1982,-0.2606,929.93,-155.88,1858.83
8420,-3.8713,0.1987,-0.2653,1383.06,-1359.01,-1750.55
8430,-3.8713,0.1967,-0.2620,1445.56,-1952.76,-1828.67
8440,-3.8713,0.1967,-0.2521,1179.93,-1530.88,1327.58
8450,-3.8713,0.2002,-0.2417,1179.93,-265.26,390.08
8460,-3.8713,0.2068,-0.2383,1633.06,1062.87,155.76
8470,-3.8713,0.2167,-0.2407,-1523.19,1500.37,483.89
8480,-3.8713,0.2247,-0.2440,-257.57,1187.87,968.26
8490,-3.8713,0.2266,-0.2485,773.68,766.05,1437.01
8500,-3.8713,0.2223,-0.2561,1008.06,187.93,1812.01
8510,-3.8713,0.2131,-0.2637,461.18,-780.82,1921.33
8520,-3.8713,0.2019,-0.2659,-710.69,-1749.63,1608.83
8530,-3.8713,0.1949,-0.2596,1851.81,1969.12,686.95
8540,-3.8715,0.1965,-0.2484,961.18,-1234.01,-469.30
8550,-3.8715,0.2032,-0.2384,1164.31,203.49,-1281.74
8560,-3.8715,0.2114,-0.2351,-1976.32,1484.74,-1531.74
8570,-3.8715,0.2174,-0.2394,-929.44,1906.62,-1172.36
8580,-3.8715,0.2162,-0.2487,-163.82,1359.74,-375.49
8590,-3.8713,0.2063,-0.2581,-320.07,172.24,483.89
8600,-3.8713,0.1924,-0.2627,-1585.69,-1030.88,890.08
8610,-3.8713,0.1831,-0.2611,633.06,-1624.63,593.20
8620,-3.8715,0.1841,-0.2527,-554.44,-1421.57,-344.30
8630,-3.8715,0.1932,-0.2406,-429.44,-343.44,-1266.17
8640,-3.8715,0.2042,-0.2357,742.43,1203.49,-1234.86
8650,-3.8713,0.2133,-0.2434,-1851.32,1828.49,15.14
8660,-3.8713,0.2188,-0.2592,-695.07,844.12,-1953.61
8670,-3.8713,0.2170,-0.2738,8.06,-1171.45,-141.17
8680,-3.8712,0.2081,-0.2803,-210.69,953.49,499.45
8690,-3.8713,0.2000,-0.2726,-1351.32,125.37,-469.30
8700,-3.8713,0.2001,-0.2529,1601.81,1109.74,1499.45
8710,-3.8715,0.2067,-0.2366,1617.43,-374.63,-188.05
8720,-3.8715,0.2141,-0.2371,-1538.82,1719.12,-391.11
8730,-3.8713,0.2186,-0.2516,-585.69,1656.62,671.39
8740,-3.8713,0.2161,-0.2672,-7.57,-202.76,-1859.92
8750,-3.8713,0.2059,-0.2747,-335.69,1797.24,-797.42
8760,-3.8713,0.1926,-0.2747,-1632.57,844.12,-578.67
8770,-3.8713,0.1835,-0.2720,664.31,844.12,-1172.42
8780,-3.8713,0.1852,-0.2664,-507.57,1187.81,1858.83
8790,-3.8713,0.1990,-0.2573,-288.82,1906.56,1327.58
8800,-3.8713,0.2195,-0.2509,1476.81,-937.13,1624.45
8810,-3.8713,0.2390,-0.2528,101.81,-108.95,-1234.92
8820,-3.8712,0.2487,-0.2645,-1398.19,-358.95,546.33
8830,-3.8712,0.2440,-0.2810,-163.82,-1858.95,-1906.80
8840,-3.8712,0.2288,-0.2948,-757.57,31.68,-1219.30
8850,-3.8712,0.2100,-0.2960,1289.31,-1733.95,-1547.49
8860,-3.8712,0.1951,-0.2814,-1116.94,-1890.26,1124.39
8870,-3.8713,0.1919,-0.2618,976.81,-15.26,-594.36
8880,-3.8713,0.2018,-0.2521,570.56,-1515.26,-1922.42
8890,-3.8713,0.2173,-0.2584,1836.18,-265.26,1733.83
8900,-3.8713,0.2278,-0.2744,-179.44,-1077.76,-1578.67
8910,-3.8713,0.2261,-0.2841,1164.31,875.43,-797.42
8920,-3.8713,0.2136,-0.2753,945.56,-358.95,-1172.49
8930,-3.8713,0.1991,-0.2528,-648.19,765.99,1077.58
8940,-3.8715,0.1920,-0.2336,1492.43,-359.01,-797.42
8950,-3.8715,0.1959,-0.2319,586.18,-1905.88,-1391.11
8960,-3.8715,0.2084,-0.2487,1086.18,-1687.13,-375.49
8970,-3.8713,0.2212,-0.2727,-1320.07,172.24,1640.14
8980,-3.8713,0.2245,-0.2886,320.56,1094.18,-500.55
8990,-3.8713,0.2139,-0.2882,742.43,-937.07,-16.24
9000,-3.8713,0.1957,-0.2740,-616.94,-890.26,-1344.36
9010,-3.8715,0.1824,-0.2522,1054.93,922.24,-0.55
9020,-3.8715,0.1804,-0.2294,-648.19,-280.94,1249.45
9030,-3.8716,0.1886,-0.2150,-898.19,-1359.07,-375.49
9040,-3.8716,0.2014,-0.2194,148.68,484.74,-187.93
9050,-3.8715,0.2119,-0.2433,1789.31,-77.76,1780.76
9060,-3.8713,0.2146,-0.2721,-866.94,859.74,515.14
9070,-3.8713,0.2081,-0.2876,-523.19,1172.24,-1375.55
9080,-3.8713,0.1962,-0.2849,-1351.32,-812.13,-719.36
9090,-3.8713,0.1866,-0.2692,1117.43,-468.38,-1438.11
9100,-3.8713,0.1864,-0.2489,-101.32,1547.18,1374.45
9110,-3.8713,0.1975,-0.2374,-132.57,140.93,483.89
9120,-3.8713,0.2148,-0.2417,1289.31,1609.74,218.26
9130,-3.8713,0.2288,-0.2557,-491.94,1062.87,655.76
9140,-3.8713,0.2313,-0.2683,1289.31,-733.95,1483.83
9150,-3.8713,0.2222,-0.2706,1617.43,1656.68,1905.70
9160,-3.8713,0.2072,-0.2609,445.56,1359.80,1436.95
9170,-3.8713,0.1951,-0.2452,-1476.32,-1390.26,452.58
9180,-3.8715,0.1921,-0.2355,976.81,609.74,-344.24
9190,-3.8715,0.1982,-0.2397,601.81,1859.74,-328.61
9200,-3.8713,0.2078,-0.2546,1383.06,1312.87,702.64
9210,-3.8713,0.2144,-0.2689,-1398.19,-593.38,-1813.05
9220,-3.8713,0.2128,-0.2764,-554.44,1578.49,-781.80
9230,-3.8713,0.2040,-0.2753,-757.57,625.37,-531.80
9240,-3.8713,0.1935,-0.2666,-1882.57,765.99,-1047.42
9250,-3.8713,0.1882,-0.2540,773.68,1875.37,1749.45
9260,-3.8713,0.1925,-0.2433,101.81,-515.26,327.58
9270,-3.8715,0.2032,-0.2416,648.68,859.74,-484.86
9280,-3.8715,0.2131,-0.2491,-1976.32,1078.49,-172.36
9290,-3.8713,0.2167,-0.2584,-710.69,109.74,858.89
9300,-3.8713,0.2142,-0.2629,-257.57,-1077.76,1671.33
9310,-3.8713,0.2087,-0.2632,-570.07,-1655.88,1858.83
9320,-3.8713,0.2025,-0.2601,-1273.19,-1687.13,1577.58
9330,-3.8713,0.1992,-0.2542,1929.93,-1296.51,1077.58
9340,-3.8713,0.2017,-0.2499,1508.06,-530.88,640.08
9350,-3.8713,0.2064,-0.2501,1820.56,15.99,280.76
9360,-3.8715,0.2081,-0.2510,-1570.07,-15.26,-0.55
9370,-3.8715,0.2062,-0.2496,-1351.32,-124.63,-172.42
9380,-3.8715,0.2035,-0.2473,-1601.32,47.24,-453.61
9390,-3.8715,0.2026,-0.2454,-1945.07,344.12,-781.74
9400,-3.8715,0.2046,-0.2465,1945.56,594.12,-719.24
9410,-3.8715,0.2051,-0.2502,-1804.44,453.49,-109.86
9420,-3.8713,0.1997,-0.2561,-1741.94,-30.88,686.95
9430,-3.8713,0.1913,-0.2639,1570.56,-780.88,1499.45
9440,-3.8713,0.1869,-0.2686,492.43,-1780.88,-1719.30
9450,-3.8713,0.1899,-0.2645,-70.07,1625.31,-1328.67
9460,-3.8713,0.1989,-0.2557,320.56,-1859.01,-1438.05
9470,-3.8713,0.2108,-0.2501,1461.18,-734.01,-1844.30
9480,-3.8713,0.2217,-0.2522,-1007.57,-15.26,1577.58
9490,-3.8713,0.2263,-0.2578,383.06,-280.82,1093.20
9500,-3.8713,0.2231,-0.2604,976.81,-999.57,983.83
9510,-3.8713,0.2140,-0.2617,570.56,-1327.70,1280.70
9520,-3.8713,0.2050,-0.2688,-601.32,-1499.63,-1953.67
9530,-3.8713,0.2013,-0.2828,-1757.57,1594.12,-797.42
9540,-3.8712,0.2023,-0.2935,1773.68,-202.76,358.76
9550,-3.8712,0.2043,-0.2902,1898.68,-1562.13,671.26
9560,-3.8713,0.2076,-0.2721,-1835.69,-1140.26,-453.74
9570,-3.8713,0.2131,-0.2518,-1413.82,1172.24,1749.45
9580,-3.8713,0.2188,-0.2440,-710.69,-234.01,733.83
9590,-3.8713,0.2239,-0.2512,8.06,766.05,968.26
9600,-3.8713,0.2272,-0.2640,664.31,-155.82,1811.95
9610,-3.8713,0.2238,-0.2714,1086.18,-1796.45,-1750.55
9620,-3.8713,0.2140,-0.2726,648.68,1266.05,-1984.92
9630,-3.8713,0.2051,-0.2675,-601.32,1109.74,1655.70
