timestamp_ms,ax,ay,az,gx,gy,gz
0,-3.8715,0.2812,-0.2749,-585.69,266.11,1968.20
10,-3.8715,0.2853,-0.2712,8.06,813.05,-1766.17
20,-3.8715,0.2852,-0.2709,523.68,1281.80,-1328.67
30,-3.8715,0.2832,-0.2734,508.06,1328.67,-1328.67
40,-3.8715,0.2806,-0.2772,258.06,1000.55,-1609.92
50,-3.8715,0.2787,-0.2794,-70.07,516.11,-1797.42
60,-3.8715,0.2770,-0.2788,-320.07,234.86,-1656.80
70,-3.8715,0.2758,-0.2773,-538.82,312.99,-1406.80
80,-3.8715,0.2765,-0.2749,-695.07,500.49,-1359.92
90,-3.8715,0.2767,-0.2747,-601.32,812.99,-1469.30
100,-3.8715,0.2744,-0.2780,-570.07,844.24,-1500.55
110,-3.8715,0.2711,-0.2803,-866.94,422.36,-1453.67
120,-3.8715,0.2695,-0.2772,-1288.82,125.49,-1328.67
130,-3.8715,0.2737,-0.2734,-1491.94,516.11,-1281.80
140,-3.8715,0.2839,-0.2745,-960.69,1000.49,-1453.67
150,-3.8715,0.2936,-0.2755,351.81,859.92,-1578.67
160,-3.8715,0.2957,-0.2738,1586.18,734.92,-1547.42
170,-3.8715,0.2897,-0.2728,1851.81,953.67,-1719.30
180,-3.8715,0.2806,-0.2740,1086.18,1078.67,-1938.05
190,-3.8715,0.2742,-0.2742,-70.07,922.36,-1781.80
200,-3.8715,0.2739,-0.2712,-898.19,906.74,-1328.67
210,-3.8715,0.2792,-0.2714,-929.44,1281.74,-1109.92
220,-3.8715,0.2837,-0.2776,-257.57,1266.11,-1438.05
230,-3.8715,0.2820,-0.2833,320.56,469.30,-1953.67
240,-3.8715,0.2753,-0.2814,101.81,-265.08,1890.01
250,-3.8715,0.2695,-0.2726,-757.57,-15.14,-1563.11
260,-3.8715,0.2689,-0.2649,-1491.94,1109.86,-813.05
270,-3.8715,0.2759,-0.2651,-1570.07,-1905.76,-656.80
280,-3.8715,0.2854,-0.2732,-679.44,-1937.01,-891.17
290,-3.8715,0.2878,-0.2805,539.31,1031.80,-1219.30
300,-3.8715,0.2821,-0.2823,851.81,94.30,-1875.55
310,-3.8715,0.2755,-0.2820,117.43,-140.08,1780.64
320,-3.8715,0.2740,-0.2805,-726.32,-93.26,-1891.24
330,-3.8715,0.2744,-0.2782,-913.82,94.24,-1453.67
340,-3.8715,0.2710,-0.2769,-866.94,391.11,-1234.92
350,-3.8715,0.2650,-0.2788,-1304.44,562.99,-1328.67
360,-3.8715,0.2609,-0.2834,1929.93,312.99,-1719.30
370,-3.8715,0.2618,-0.2860,1398.68,-280.76,-1969.36
380,-3.8715,0.2678,-0.2843,1523.68,-608.89,-1906.86
390,-3.8715,0.2745,-0.2810,-1710.69,-390.14,-1766.24
400,-3.8715,0.2751,-0.2792,-851.32,31.74,-1859.92
410,-3.8715,0.2698,-0.2756,-773.19,266.11,1890.08
420,-3.8715,0.2626,-0.2751,-1460.69,719.24,1186.95
430,-3.8715,0.2645,-0.2823,1617.43,781.74,1890.08
440,-3.8715,0.2766,-0.2853,1867.43,-140.14,-547.49
450,-3.8715,0.2872,-0.2823,-585.69,-515.14,-1172.49
460,-3.8715,0.2980,-0.2836,773.68,-140.08,1983.76
470,-3.8715,0.3038,-0.2877,-1851.32,-296.33,-1969.36
480,-3.8715,0.2977,-0.2880,-1101.32,-827.58,1827.51
490,-3.8715,0.2900,-0.2841,-1882.57,-858.83,1561.89
500,-3.8715,0.2877,-0.2821,1133.06,-358.83,1702.51
510,-3.8715,0.2849,-0.2828,836.18,-108.83,-1953.74
520,-3.8715,0.2776,-0.2833,476.81,-202.58,-1969.36
530,-3.8715,0.2708,-0.2826,-460.69,-265.14,1890.01
540,-3.8715,0.2673,-0.2797,-1335.69,-171.39,-1844.36
550,-3.8715,0.2676,-0.2794,-1773.19,203.61,-1531.80
560,-3.8715,0.2742,-0.2828,-1741.94,234.86,-1484.92
570,-3.8715,0.2832,-0.2838,-898.19,-202.64,-1656.86
580,-3.8715,0.2860,-0.2828,258.06,-327.58,1999.39
590,-3.8715,0.2830,-0.2815,617.43,-202.58,1936.89
600,-3.8715,0.2788,-0.2808,226.81,-30.70,-1766.24
610,-3.8715,0.2772,-0.2806,-304.44,62.99,-1563.05
620,-3.8715,0.2787,-0.2816,-507.57,78.61,-1547.42
630,-3.8715,0.2808,-0.2833,-320.07,-46.39,-1609.99
640,-3.8715,0.2805,-0.2853,-54.44,-265.14,-1719.36
650,-3.8715,0.2806,-0.2865,-85.69,-515.14,1858.76
660,-3.8715,0.2823,-0.2853,-70.07,-671.39,1765.01
670,-3.8715,0.2854,-0.2822,148.68,-515.08,1890.01
680,-3.8715,0.2889,-0.2803,539.31,-124.45,1858.76
690,-3.8715,0.2876,-0.2820,992.43,125.55,1890.08
700,-3.8715,0.2817,-0.2858,820.56,-93.20,1780.64
710,-3.8715,0.2782,-0.2883,70.56,-577.58,1608.76
720,-3.8715,0.2806,-0.2871,-382.57,-905.76,1483.76
730,-3.8715,0.2843,-0.2839,-70.07,-749.51,1608.76
740,-3.8715,0.2848,-0.2825,398.68,-343.20,1811.89
750,-3.8715,0.2827,-0.2831,461.18,-155.70,1936.89
760,-3.8715,0.2804,-0.2839,195.56,-233.83,-1969.36
770,-3.8715,0.2786,-0.2834,-101.32,-343.26,-1969.36
780,-3.8715,0.2792,-0.2815,-335.69,-280.76,-1875.61
790,-3.8715,0.2825,-0.2797,-257.57,-30.76,-1734.99
800,-3.8715,0.2856,-0.2799,164.31,203.67,-1781.80
810,-3.8715,0.2860,-0.2822,570.56,172.42,-1938.05
820,-3.8715,0.2834,-0.2844,617.43,-124.45,1905.64
830,-3.8715,0.2799,-0.2831,289.31,-405.70,1874.39
840,-3.8715,0.2794,-0.2784,-163.82,-233.89,1936.89
850,-3.8715,0.2825,-0.2755,-226.32,359.86,-1891.17
860,-3.8715,0.2864,-0.2773,164.31,734.92,-1625.55
870,-3.8715,0.2883,-0.2817,664.31,500.55,-1531.80
880,-3.8715,0.2870,-0.2852,914.31,-61.95,-1750.61
890,-3.8715,0.2848,-0.2856,742.43,-499.45,1827.51
900,-3.8715,0.2811,-0.2847,461.18,-561.95,1577.51
910,-3.8715,0.2753,-0.2836,-7.57,-437.01,1765.01
920,-3.8715,0.2712,-0.2821,-757.57,-296.39,-1828.74
930,-3.8715,0.2731,-0.2806,-1273.19,-108.89,-1531.86
940,-3.8715,0.2788,-0.2812,-1038.82,78.61,-1484.92
950,-3.8715,0.2821,-0.2834,-304.44,0.49,-1766.17
960,-3.8715,0.2827,-0.2843,117.43,-280.70,1811.89
970,-3.8715,0.2842,-0.2832,195.56,-390.08,1640.01
980,-3.8715,0.2850,-0.2804,383.06,-249.45,1796.26
990,-3.8715,0.2853,-0.2771,492.43,109.92,-1922.42
1000,-3.8715,0.2897,-0.2736,523.68,531.80,-1859.92
1010,-3.8715,0.2922,-0.2739,1086.18,984.92,-1891.17
1020,-3.8715,0.2902,-0.2833,1414.31,938.05,1890.08
1030,-3.8715,0.2911,-0.2894,1148.68,-265.08,1733.76
1040,-3.8715,0.2927,-0.2872,1273.68,-1046.33,1671.26
1050,-3.8715,0.2898,-0.2836,1476.81,-765.08,1483.76
1060,-3.8715,0.2847,-0.2821,1101.81,-296.33,1499.39
1070,-3.8715,0.2830,-0.2819,445.56,-108.83,1733.76
1080,-3.8715,0.2863,-0.2788,226.81,-77.58,1952.51
1090,-3.8715,0.2883,-0.2770,648.68,313.05,1936.95
1100,-3.8715,0.2882,-0.2762,914.31,547.42,-1953.67
1110,-3.8715,0.2870,-0.2720,898.68,641.17,-1516.17
1120,-3.8715,0.2828,-0.2695,742.43,1188.05,-1203.67
1130,-3.8715,0.2767,-0.2709,211.18,1500.55,-1047.42
1140,-3.8715,0.2704,-0.2744,-570.07,1328.61,-1063.05
1150,-3.8715,0.2689,-0.2783,-1382.57,875.49,-1234.92
1160,-3.8715,0.2734,-0.2805,-1570.07,375.49,-1563.05
1170,-3.8715,0.2797,-0.2805,-991.94,94.24,-1938.05
1180,-3.8715,0.2830,-0.2794,-195.07,94.24,1936.95
1190,-3.8715,0.2828,-0.2775,226.81,234.92,-1938.05
1200,-3.8715,0.2821,-0.2759,211.18,484.92,-1734.92
1210,-3.8715,0.2812,-0.2748,117.43,688.05,-1672.42
1220,-3.8715,0.2780,-0.2777,8.06,828.67,-1766.17
1230,-3.8715,0.2767,-0.2830,-413.82,453.61,-1719.30
1240,-3.8715,0.2811,-0.2822,-570.07,-218.26,-1750.61
1250,-3.8715,0.2853,-0.2788,-7.57,-124.51,-1891.24
1260,-3.8715,0.2870,-0.2776,523.68,313.05,1999.45
1270,-3.8715,0.2863,-0.2777,742.43,469.30,1905.70
1280,-3.8715,0.2844,-0.2784,648.68,453.67,1858.83
1290,-3.8715,0.2842,-0.2788,414.31,359.92,1843.20
1300,-3.8715,0.2844,-0.2777,383.06,313.05,-1984.92
1310,-3.8715,0.2826,-0.2766,414.31,453.67,-1672.42
1320,-3.8715,0.2810,-0.2766,179.93,594.30,-1516.17
1330,-3.8715,0.2823,-0.2781,-23.19,594.24,-1484.92
1340,-3.8715,0.2848,-0.2797,148.68,406.80,-1500.55
1350,-3.8715,0.2863,-0.2808,461.18,203.67,-1641.17
1360,-3.8715,0.2889,-0.2806,648.68,63.05,-1859.92
1370,-3.8715,0.2936,-0.2799,992.43,78.67,1905.70
1380,-3.8715,0.2952,-0.2804,1586.18,172.42,1686.95
1390,-3.8715,0.2919,-0.2805,1789.31,109.92,1452.58
1400,-3.8715,0.2859,-0.2797,1367.43,94.30,1515.08
1410,-3.8715,0.2795,-0.2784,601.81,203.67,1905.70
1420,-3.8715,0.2755,-0.2765,-210.69,359.86,-1688.05
1430,-3.8715,0.2729,-0.2754,-726.32,609.86,-1328.67
1440,-3.8715,0.2714,-0.2770,-1054.44,750.49,-1172.42
1450,-3.8715,0.2745,-0.2791,-1257.57,547.36,-1359.92
1460,-3.8715,0.2825,-0.2802,-851.32,281.74,-1703.67
1470,-3.8715,0.2905,-0.2808,164.31,141.17,1983.83
1480,-3.8715,0.2950,-0.2804,1195.56,63.05,1811.95
1490,-3.8715,0.2949,-0.2803,1773.68,109.92,1718.20
1500,-3.8715,0.2920,-0.2808,1758.06,125.55,1686.95
1510,-3.8715,0.2871,-0.2799,1383.06,63.05,1749.45
1520,-3.8715,0.2811,-0.2777,758.06,172.42,1952.58
1530,-3.8715,0.2769,-0.2759,-7.57,453.61,-1828.67
1540,-3.8715,0.2775,-0.2769,-554.44,687.99,-1656.80
1550,-3.8715,0.2825,-0.2797,-476.32,562.99,-1594.30
1560,-3.8715,0.2887,-0.2809,164.31,203.67,-1703.67
1570,-3.8715,0.2953,-0.2806,961.18,47.42,1968.20
1580,-3.8715,0.2991,-0.2798,1804.93,78.67,1593.20
1590,-3.8715,0.2975,-0.2786,-1710.69,188.05,1546.33
1600,-3.8715,0.2927,-0.2783,-1913.82,344.30,1733.83
1610,-3.8715,0.2861,-0.2804,1476.81,375.55,1827.58
1620,-3.8715,0.2800,-0.2825,633.06,109.92,1827.58
1630,-3.8715,0.2786,-0.2826,-148.19,-155.76,1858.76
1640,-3.8715,0.2814,-0.2816,-335.69,-171.39,1968.14
1650,-3.8715,0.2853,-0.2805,23.68,-46.33,-1938.11
1660,-3.8715,0.2888,-0.2794,523.68,94.30,1999.45
1670,-3.8715,0.2902,-0.2782,976.81,234.92,1905.70
1680,-3.8715,0.2894,-0.2781,1148.68,391.17,1905.70
1690,-3.8715,0.2865,-0.2804,1054.93,406.80,1936.95
1700,-3.8715,0.2830,-0.2817,679.93,109.92,1968.20
1710,-3.8715,0.2823,-0.2798,226.81,-61.95,-1969.36
1720,-3.8715,0.2855,-0.2787,148.68,188.05,1999.45
1730,-3.8715,0.2897,-0.2821,554.93,328.67,1640.08
1740,-3.8715,0.2908,-0.2872,1086.18,-108.83,1093.14
1750,-3.8715,0.2872,-0.2871,1226.81,-765.08,952.51
1760,-3.8715,0.2842,-0.2811,773.68,-749.45,1515.01
1770,-3.8715,0.2882,-0.2760,383.06,16.17,-1875.55
1780,-3.8715,0.2972,-0.2754,898.68,672.42,-1875.55
1790,-3.8715,0.3014,-0.2776,-1945.07,750.55,1702.58
1800,-3.8715,0.2950,-0.2794,-1413.82,469.30,1483.83
1810,-3.8715,0.2834,-0.2786,1773.68,234.92,1733.83
1820,-3.8715,0.2742,-0.2765,289.31,344.30,-1734.92
1830,-3.8715,0.2708,-0.2742,-898.19,609.86,-1297.42
1840,-3.8715,0.2716,-0.2708,-1335.69,906.74,-1047.42
1850,-3.8715,0.2761,-0.2671,-1226.32,1344.24,-953.67
1860,-3.8715,0.2808,-0.2659,-648.19,1812.99,-1031.80
1870,-3.8715,0.2815,-0.2671,-54.44,1969.24,-1188.05
1880,-3.8715,0.2800,-0.2686,39.31,1813.05,-1391.17
1890,-3.8715,0.2792,-0.2688,-148.19,1625.49,-1391.17
1900,-3.8715,0.2800,-0.2673,-257.57,1594.24,-1172.42
1910,-3.8715,0.2809,-0.2668,-148.19,1781.74,-1063.05
1920,-3.8715,0.2803,-0.2693,-38.82,1844.24,-1172.42
1930,-3.8715,0.2792,-0.2727,-116.94,1531.74,-1328.67
1940,-3.8715,0.2772,-0.2748,-257.57,1094.24,-1453.67
1950,-3.8715,0.2755,-0.2747,-507.57,828.61,-1500.55
1960,-3.8715,0.2748,-0.2739,-726.32,844.24,-1422.42
1970,-3.8715,0.2737,-0.2731,-820.07,937.99,-1344.30
1980,-3.8715,0.2731,-0.2722,-960.69,1047.36,-1297.42
1990,-3.8715,0.2747,-0.2717,-1038.82,1156.74,-1266.17
2000,-3.8715,0.2775,-0.2714,-835.69,1219.24,-1281.80
2010,-3.8715,0.2800,-0.2703,-476.32,1266.11,-1313.05
2020,-3.8715,0.2814,-0.2686,-148.19,1406.74,-1328.67
2030,-3.8715,0.2802,-0.2673,23.68,1625.55,-1313.05
2040,-3.8715,0.2769,-0.2675,-132.57,1781.74,-1219.30
2050,-3.8715,0.2748,-0.2692,-554.44,1766.11,-1094.30
2060,-3.8715,0.2761,-0.2710,-820.07,1547.36,-1094.30
2070,-3.8715,0.2802,-0.2715,-648.19,1312.99,-1234.92
2080,-3.8715,0.2832,-0.2723,-132.57,1250.49,-1391.17
2090,-3.8715,0.2836,-0.2740,258.06,1141.17,-1516.17
2100,-3.8715,0.2799,-0.2754,304.93,922.42,-1578.67
2110,-3.8715,0.2733,-0.2753,-163.82,750.49,-1531.80
2120,-3.8715,0.2699,-0.2734,-1007.57,766.11,-1406.80
2130,-3.8715,0.2711,-0.2721,-1445.07,1000.49,-1344.30
2140,-3.8715,0.2738,-0.2732,-1288.82,1172.36,-1328.67
2150,-3.8715,0.2764,-0.2756,-945.07,1031.74,-1422.42
2160,-3.8715,0.2775,-0.2770,-616.94,719.24,-1578.67
2170,-3.8715,0.2751,-0.2773,-476.32,547.36,-1641.17
2180,-3.8715,0.2723,-0.2771,-773.19,500.49,-1594.30
2190,-3.8715,0.2714,-0.2767,-1132.57,531.74,-1578.67
2200,-3.8715,0.2714,-0.2761,-1257.57,578.61,-1531.80
2210,-3.8715,0.2728,-0.2755,-1257.57,656.74,-1484.92
2220,-3.8715,0.2760,-0.2762,-1070.07,734.86,-1484.92
2230,-3.8715,0.2798,-0.2772,-663.82,641.11,-1531.80
2240,-3.8715,0.2827,-0.2771,-179.44,516.11,-1688.05
2250,-3.8715,0.2842,-0.2762,195.56,531.80,-1828.67
2260,-3.8715,0.2838,-0.2761,383.06,641.17,-1844.30
2270,-3.8715,0.2834,-0.2758,336.18,656.80,-1875.55
2280,-3.8715,0.2817,-0.2745,289.31,703.67,-1891.17
2290,-3.8715,0.2776,-0.2731,70.56,859.92,-1734.92
2300,-3.8715,0.2744,-0.2712,-460.69,1047.36,-1375.55
2310,-3.8715,0.2729,-0.2714,-866.94,1281.74,-1109.92
2320,-3.8715,0.2723,-0.2722,-1054.44,1266.11,-1094.30
2330,-3.8715,0.2723,-0.2719,-1132.57,1156.74,-1125.55
2340,-3.8715,0.2706,-0.2716,-1132.57,1203.61,-1094.30
2350,-3.8715,0.2692,-0.2726,-1351.32,1234.86,-1141.17
2360,-3.8715,0.2708,-0.2736,-1538.82,1109.86,-1156.80
2370,-3.8715,0.2742,-0.2732,-1335.69,984.86,-1141.17
2380,-3.8715,0.2781,-0.2725,-898.19,1031.74,-1219.30
2390,-3.8715,0.2799,-0.2725,-398.19,1125.49,-1313.05
2400,-3.8715,0.2786,-0.2727,-163.82,1125.49,-1328.67
2410,-3.8715,0.2751,-0.2716,-335.69,1094.24,-1297.42
2420,-3.8715,0.2714,-0.2708,-773.19,1234.86,-1234.92
2430,-3.8715,0.2695,-0.2716,-1257.57,1344.24,-1188.05
2440,-3.8715,0.2706,-0.2738,-1491.94,1234.86,-1297.42
2450,-3.8715,0.2738,-0.2759,-1351.32,953.61,-1484.92
2460,-3.8715,0.2786,-0.2760,-945.07,687.99,-1531.80
2470,-3.8715,0.2834,-0.2739,-335.69,672.36,-1547.42
2480,-3.8715,0.2855,-0.2716,289.31,938.05,-1547.42
2490,-3.8715,0.2831,-0.2708,554.93,1234.92,-1578.67
2500,-3.8715,0.2781,-0.2711,242.43,1344.30,-1516.17
2510,-3.8715,0.2729,-0.2709,-398.19,1297.36,-1297.42
2520,-3.8715,0.2701,-0.2700,-1054.44,1328.61,-1172.42
2530,-3.8715,0.2714,-0.2701,-1413.82,1437.99,-1125.55
2540,-3.8715,0.2750,-0.2710,-1257.57,1422.36,-1141.17
2550,-3.8715,0.2778,-0.2720,-788.82,1312.99,-1250.55
2560,-3.8715,0.2782,-0.2717,-429.44,1187.99,-1297.42
2570,-3.8715,0.2758,-0.2708,-382.57,1219.24,-1281.80
2580,-3.8715,0.2736,-0.2699,-695.07,1344.24,-1250.55
2590,-3.8715,0.2737,-0.2693,-976.32,1453.61,-1156.80
2600,-3.8715,0.2758,-0.2695,-960.69,1531.74,-1094.30
2610,-3.8715,0.2788,-0.2704,-695.07,1500.49,-1156.80
2620,-3.8715,0.2814,-0.2719,-304.44,1391.11,-1359.92
2630,-3.8715,0.2815,-0.2731,23.68,1203.67,-1500.55
2640,-3.8715,0.2783,-0.2731,39.31,1047.42,-1453.67
2650,-3.8715,0.2745,-0.2722,-366.94,1047.36,-1391.17
2660,-3.8715,0.2731,-0.2708,-851.32,1156.74,-1375.55
2670,-3.8715,0.2760,-0.2698,-1038.82,1344.24,-1375.55
2680,-3.8715,0.2810,-0.2701,-663.82,1469.24,-1328.67
2690,-3.8715,0.2836,-0.2706,-23.19,1422.36,-1266.17
2700,-3.8715,0.2817,-0.2708,304.93,1359.92,-1359.92
2710,-3.8715,0.2791,-0.2709,70.56,1344.30,-1453.67
2720,-3.8715,0.2787,-0.2705,-273.19,1328.61,-1391.17
2730,-3.8715,0.2802,-0.2709,-320.07,1375.49,-1375.55
2740,-3.8715,0.2822,-0.2721,-132.57,1328.61,-1406.80
2750,-3.8715,0.2837,-0.2731,133.06,1172.42,-1438.05
2760,-3.8715,0.2827,-0.2729,320.56,1047.42,-1453.67
2770,-3.8715,0.2794,-0.2723,195.56,1063.05,-1453.67
2780,-3.8715,0.2760,-0.2716,-226.32,1141.11,-1453.67
2790,-3.8715,0.2745,-0.2703,-663.82,1234.86,-1422.42
2800,-3.8715,0.2748,-0.2694,-851.32,1406.74,-1359.92
2810,-3.8715,0.2754,-0.2697,-820.07,1516.11,-1266.17
2820,-3.8715,0.2750,-0.2710,-741.94,1484.86,-1281.80
2830,-3.8715,0.2744,-0.2727,-788.82,1312.99,-1328.67
2840,-3.8715,0.2755,-0.2731,-866.94,1094.24,-1344.30
2850,-3.8715,0.2776,-0.2723,-726.32,1047.36,-1391.17
2860,-3.8715,0.2794,-0.2715,-460.69,1141.11,-1406.80
2870,-3.8715,0.2799,-0.2709,-226.32,1250.49,-1469.30
2880,-3.8715,0.2783,-0.2704,-163.82,1328.61,-1453.67
2890,-3.8715,0.2759,-0.2694,-366.94,1391.11,-1359.92
2900,-3.8715,0.2729,-0.2687,-679.44,1516.11,-1266.17
2910,-3.8715,0.2704,-0.2687,-1054.44,1609.86,-1094.30
2920,-3.8715,0.2694,-0.2692,-1382.57,1609.86,-1047.42
2930,-3.8715,0.2703,-0.2695,-1507.57,1547.36,-1109.92
2940,-3.8715,0.2738,-0.2688,-1398.19,1500.49,-1141.17
2950,-3.8715,0.2781,-0.2675,-945.07,1594.24,-1109.92
2960,-3.8715,0.2783,-0.2667,-398.19,1766.11,-1109.92
2970,-3.8715,0.2754,-0.2666,-366.94,1859.86,-1063.05
2980,-3.8715,0.2727,-0.2667,-741.94,1875.49,-984.92
2990,-3.8715,0.2706,-0.2671,-1085.69,1859.86,-938.05
3000,-3.8715,0.2684,-0.2673,-1351.32,1812.99,-906.80
3010,-3.8715,0.2672,-0.2666,-1632.57,1781.74,-938.05
3020,-3.8715,0.2677,-0.2662,-1788.82,1875.49,-859.92
3030,-3.8715,0.2701,-0.2671,-1726.32,1922.36,-734.92
3040,-3.8715,0.2731,-0.2684,-1413.82,1812.99,-813.05
3050,-3.8715,0.2739,-0.2700,-1038.82,1641.11,-1063.05
3060,-3.8715,0.2726,-0.2699,-929.44,1437.99,-1234.92
3070,-3.8715,0.2700,-0.2677,-1101.32,1453.61,-1234.92
3080,-3.8715,0.2693,-0.2653,-1429.44,1734.86,-1109.92
3090,-3.8715,0.2708,-0.2642,-1523.19,-1952.64,-906.80
3100,-3.8715,0.2729,-0.2639,-1335.69,-1812.01,-703.67
3110,-3.8715,0.2753,-0.2644,-1054.44,-1780.76,-750.55
3120,-3.8715,0.2759,-0.2654,-757.57,-1843.26,-813.05
3130,-3.8715,0.2738,-0.2655,-679.44,-1968.26,-781.80
3140,-3.8715,0.2703,-0.2655,-945.07,-1983.89,-797.42
3150,-3.8715,0.2679,-0.2662,-1398.19,-1983.89,-891.17
3160,-3.8715,0.2677,-0.2671,-1695.07,1922.36,-922.42
3170,-3.8715,0.2693,-0.2675,-1726.32,1812.99,-891.17
3180,-3.8715,0.2704,-0.2665,-1523.19,1766.11,-797.42
3190,-3.8715,0.2709,-0.2654,-1382.57,1891.11,-719.30
3200,-3.8715,0.2712,-0.2643,-1320.07,-1968.26,-734.92
3210,-3.8715,0.2711,-0.2634,-1273.19,-1827.64,-766.17
3220,-3.8715,0.2711,-0.2637,-1288.82,-1718.26,-859.92
3230,-3.8715,0.2708,-0.2649,-1288.82,-1749.51,-938.05
3240,-3.8715,0.2708,-0.2653,-1335.69,-1905.76,-922.42
3250,-3.8715,0.2716,-0.2643,-1335.69,-1952.64,-906.80
3260,-3.8715,0.2722,-0.2640,-1226.32,-1827.64,-938.05
3270,-3.8715,0.2721,-0.2649,-1148.19,-1796.39,-984.92
3280,-3.8715,0.2712,-0.2655,-1163.82,-1905.76,-953.67
3290,-3.8715,0.2706,-0.2657,-1273.19,-1983.89,-906.80
3300,-3.8715,0.2714,-0.2651,-1351.32,1984.86,-891.17
3310,-3.8715,0.2728,-0.2640,-1257.57,-1937.01,-797.42
3320,-3.8715,0.2733,-0.2642,-1070.07,-1796.39,-750.55
3330,-3.8715,0.2727,-0.2651,-1007.57,-1812.01,-766.17
3340,-3.8715,0.2721,-0.2651,-1085.69,-1937.01,-766.17
3350,-3.8715,0.2712,-0.2644,-1163.82,-1937.01,-781.80
3360,-3.8715,0.2714,-0.2642,-1273.19,-1843.26,-859.92
3370,-3.8715,0.2717,-0.2638,-1257.57,-1812.01,-891.17
3380,-3.8715,0.2705,-0.2633,-1210.69,-1765.14,-797.42
3390,-3.8715,0.2690,-0.2635,-1366.94,-1702.64,-703.67
3400,-3.8715,0.2689,-0.2640,-1554.44,-1733.89,-656.80
3410,-3.8715,0.2698,-0.2635,-1570.07,-1796.39,-719.30
3420,-3.8715,0.2716,-0.2633,-1460.69,-1733.89,-891.17
3430,-3.8715,0.2729,-0.2635,-1226.32,-1702.64,-1016.17
3440,-3.8715,0.2729,-0.2635,-1054.44,-1733.89,-1031.80
3450,-3.8715,0.2714,-0.2638,-1054.44,-1733.89,-984.92
3460,-3.8715,0.2694,-0.2638,-1257.57,-1765.14,-781.80
3470,-3.8715,0.2687,-0.2637,-1507.57,-1765.14,-641.17
3480,-3.8715,0.2700,-0.2640,-1601.32,-1749.51,-797.42
3490,-3.8715,0.2720,-0.2640,-1429.44,-1796.39,-922.42
3500,-3.8715,0.2732,-0.2639,-1179.44,-1796.39,-984.92
3510,-3.8715,0.2737,-0.2638,-1023.19,-1780.76,-1000.55
3520,-3.8715,0.2731,-0.2638,-960.69,-1765.14,-906.80
3530,-3.8715,0.2703,-0.2634,-1038.82,-1765.14,-813.05
3540,-3.8715,0.2684,-0.2635,-1398.19,-1718.26,-781.80
3550,-3.8715,0.2689,-0.2642,-1632.57,-1733.89,-719.30
3560,-3.8715,0.2706,-0.2638,-1570.07,-1812.01,-781.80
3570,-3.8715,0.2725,-0.2634,-1351.32,-1765.14,-891.17
3580,-3.8715,0.2726,-0.2638,-1116.94,-1718.26,-906.80
3590,-3.8715,0.2714,-0.2634,-1101.32,-1765.14,-922.42
3600,-3.8715,0.2699,-0.2623,-1257.57,-1718.26,-922.42
3610,-3.8715,0.2687,-0.2620,-1445.07,-1577.64,-844.30
3620,-3.8715,0.2687,-0.2626,-1601.32,-1530.76,-719.30
3630,-3.8715,0.2705,-0.2631,-1601.32,-1608.89,-609.92
3640,-3.8715,0.2722,-0.2631,-1366.94,-1671.39,-688.05
3650,-3.8715,0.2722,-0.2625,-1148.19,-1671.39,-828.67
3660,-3.8715,0.2710,-0.2621,-1148.19,-1593.26,-797.42
3670,-3.8715,0.2692,-0.2645,-1304.44,-1546.39,-625.55
3680,-3.8715,0.2684,-0.2668,-1538.82,-1858.89,-297.42
3690,-3.8715,0.2678,-0.2611,-1632.57,1844.24,-453.67
3700,-3.8715,0.2697,-0.2548,-1710.69,-1421.39,-1047.42
3710,-3.8715,0.2706,-0.2595,-1476.32,-608.89,-1109.92
3720,-3.8715,0.2677,-0.2651,-1351.32,-1218.26,-609.92
3730,-3.8715,0.2665,-0.2634,-1726.32,-1937.01,-375.55
3740,-3.8715,0.2687,-0.2616,-1882.57,-1718.26,-531.80
3750,-3.8715,0.2720,-0.2611,-1601.32,-1483.89,-531.80
3760,-3.8715,0.2732,-0.2598,-1179.44,-1421.39,-609.92
3770,-3.8715,0.2734,-0.2601,-1023.19,-1249.51,-750.55
3780,-3.8715,0.2732,-0.2609,-991.94,-1296.39,-734.92
3790,-3.8715,0.2716,-0.2609,-1023.19,-1390.14,-703.67
3800,-3.8715,0.2686,-0.2611,-1226.32,-1390.14,-719.30
3810,-3.8715,0.2657,-0.2610,-1616.94,-1421.39,-672.42
3820,-3.8715,0.2664,-0.2614,-1976.32,-1405.76,-641.17
3830,-3.8715,0.2697,-0.2620,-1898.19,-1452.64,-734.92
3840,-3.8715,0.2717,-0.2616,-1476.32,-1530.76,-844.30
3850,-3.8715,0.2708,-0.2606,-1210.69,-1483.89,-719.30
3860,-3.8715,0.2686,-0.2605,-1335.69,-1358.89,-469.30
3870,-3.8715,0.2692,-0.2611,-1616.94,-1343.26,-344.30
3880,-3.8715,0.2719,-0.2614,-1538.82,-1421.39,-484.92
3890,-3.8715,0.2732,-0.2612,-1195.07,-1452.64,-688.05
3900,-3.8715,0.2721,-0.2620,-1023.19,-1437.01,-813.05
3910,-3.8715,0.2692,-0.2625,-1163.82,-1530.76,-859.92
3920,-3.8715,0.2665,-0.2623,-1538.82,-1593.26,-844.30
3930,-3.8715,0.2656,-0.2618,-1882.57,-1577.64,-688.05
3940,-3.8715,0.2672,-0.2618,-1991.94,-1515.14,-547.42
3950,-3.8715,0.2698,-0.2617,-1788.82,-1515.14,-531.80
3960,-3.8715,0.2725,-0.2607,-1460.69,-1499.51,-531.80
3970,-3.8715,0.2747,-0.2603,-1116.94,-1374.51,-594.30
3980,-3.8715,0.2748,-0.2611,-835.69,-1312.01,-672.42
3990,-3.8715,0.2729,-0.2617,-820.07,-1421.39,-750.55
4000,-3.8715,0.2697,-0.2615,-1054.44,-1499.51,-844.30
4010,-3.8715,0.2661,-0.2617,-1476.32,-1468.26,-922.42
4020,-3.8715,0.2645,-0.2621,-1929.44,-1499.51,-906.80
4030,-3.8715,0.2729,-0.2601,-1288.82,-1327.64,-703.67
4040,-3.8715,0.2733,-0.2605,-1054.44,-1296.39,-719.30
4050,-3.8715,0.2727,-0.2612,-1007.57,-1343.26,-641.17
4060,-3.8715,0.2711,-0.2618,-1085.69,-1437.01,-609.92
4070,-3.8715,0.2689,-0.2621,-1288.82,-1515.14,-719.30
4080,-3.8715,0.2678,-0.2617,-1570.07,-1546.39,-813.05
4090,-3.8715,0.2682,-0.2611,-1710.69,-1499.51,-828.67
4100,-3.8715,0.2694,-0.2607,-1663.82,-1421.39,-750.55
4110,-3.8715,0.2708,-0.2604,-1507.57,-1374.51,-672.42
4120,-3.8715,0.2716,-0.2601,-1335.69,-1327.64,-625.55
4130,-3.8715,0.2715,-0.2604,-1226.32,-1296.39,-625.55
4140,-3.8715,0.2705,-0.2615,-1241.94,-1327.64,-656.80
4150,-3.8715,0.2699,-0.2622,-1366.94,-1468.26,-750.55
4160,-3.8715,0.2697,-0.2620,-1445.07,-1562.01,-797.42
4170,-3.8715,0.2689,-0.2615,-1476.32,-1530.76,-703.67
4180,-3.8715,0.2682,-0.2611,-1570.07,-1468.26,-609.92
4190,-3.8715,0.2686,-0.2603,-1663.82,-1421.39,-625.55
4200,-3.8715,0.2699,-0.2599,-1616.94,-1312.01,-656.80
4210,-3.8715,0.2708,-0.2609,-1445.07,-1265.14,-625.55
4220,-3.8715,0.2706,-0.2614,-1335.69,-1390.14,-578.67
4230,-3.8715,0.2694,-0.2611,-1351.32,-1452.64,-625.55
4240,-3.8715,0.2684,-0.2612,-1507.57,-1421.39,-672.42
4250,-3.8715,0.2683,-0.2622,-1632.57,-1437.01,-625.55
4260,-3.8715,0.2684,-0.2632,-1648.19,-1562.01,-641.17
4270,-3.8715,0.2688,-0.2633,-1632.57,-1687.01,-734.92
4280,-3.8715,0.2693,-0.2622,-1585.69,-1702.64,-828.67
4290,-3.8715,0.2700,-0.2606,-1523.19,-1562.01,-875.55
4300,-3.8715,0.2704,-0.2605,-1429.44,-1358.89,-797.42
4310,-3.8715,0.2700,-0.2622,-1382.57,-1343.26,-688.05
4320,-3.8715,0.2699,-0.2637,-1429.44,-1562.01,-656.80
4330,-3.8715,0.2703,-0.2637,-1445.07,-1749.51,-641.17
4340,-3.8715,0.2695,-0.2628,-1398.19,-1749.51,-641.17
4350,-3.8715,0.2677,-0.2623,-1491.94,-1640.14,-594.30
4360,-3.8715,0.2675,-0.2627,-1726.32,-1577.64,-641.17
4370,-3.8715,0.2689,-0.2627,-1757.57,-1624.51,-719.30
4380,-3.8715,0.2703,-0.2617,-1570.07,-1624.51,-750.55
4390,-3.8715,0.2706,-0.2616,-1398.19,-1499.51,-813.05
4400,-3.8715,0.2703,-0.2628,-1351.32,-1483.89,-875.55
4410,-3.8715,0.2698,-0.2639,-1398.19,-1640.14,-891.17
4420,-3.8715,0.2694,-0.2639,-1460.69,-1780.76,-813.05
4430,-3.8715,0.2689,-0.2620,-1507.57,-1780.76,-688.05
4440,-3.8715,0.2679,-0.2603,-1570.07,-1530.76,-563.05
4450,-3.8715,0.2675,-0.2596,-1695.07,-1312.01,-500.55
4460,-3.8715,0.2683,-0.2604,-1757.57,-1233.89,-609.92
4470,-3.8715,0.2694,-0.2626,-1648.19,-1327.64,-734.92
4480,-3.8715,0.2711,-0.2637,-1507.57,-1608.89,-859.92
4490,-3.8715,0.2726,-0.2633,-1288.82,-1749.51,-984.92
4500,-3.8715,0.2719,-0.2627,-1101.32,-1702.64,-984.92
4510,-3.8715,0.2697,-0.2628,-1195.07,-1624.51,-828.67
4520,-3.8715,0.2667,-0.2637,-1476.32,-1640.14,-828.67
4530,-3.8715,0.2649,-0.2639,-1851.32,-1749.51,-906.80
4540,-3.8715,0.2657,-0.2627,1914.31,-1780.76,-828.67
4550,-3.8715,0.2683,-0.2611,-1976.32,-1624.51,-641.17
4560,-3.8715,0.2714,-0.2599,-1648.19,-1421.39,-578.67
4570,-3.8715,0.2729,-0.2605,-1257.57,-1265.14,-641.17
4580,-3.8715,0.2725,-0.2632,-1054.44,-1343.26,-797.42
4590,-3.8715,0.2714,-0.2646,-1116.94,-1687.01,-922.42
4600,-3.8715,0.2664,-0.2635,-1851.32,-1687.01,-875.55
4610,-3.8715,0.2677,-0.2631,-1898.19,-1733.89,-844.30
4620,-3.8715,0.2698,-0.2625,-1726.32,-1671.39,-719.30
4630,-3.8715,0.2722,-0.2618,-1460.69,-1593.26,-641.17
4640,-3.8715,0.2725,-0.2612,-1148.19,-1515.14,-609.92
4650,-3.8715,0.2705,-0.2620,-1116.94,-1437.01,-672.42
4660,-3.8715,0.2698,-0.2632,-1366.94,-1530.76,-781.80
4670,-3.8715,0.2714,-0.2632,-1460.69,-1687.01,-750.55
4680,-3.8715,0.2717,-0.2625,-1257.57,-1687.01,-703.67
4690,-3.8715,0.2701,-0.2617,-1210.69,-1593.26,-750.55
4700,-3.8715,0.2679,-0.2617,-1413.82,-1499.51,-766.17
4710,-3.8715,0.2667,-0.2617,-1695.07,-1499.51,-641.17
4720,-3.8715,0.2667,-0.2621,-1851.32,-1499.51,-563.05
4730,-3.8715,0.2681,-0.2625,-1851.32,-1546.39,-625.55
4740,-3.8715,0.2694,-0.2631,-1679.44,-1593.26,-703.67
4750,-3.8715,0.2703,-0.2639,-1507.57,-1671.39,-734.92
4760,-3.8715,0.2706,-0.2632,-1398.19,-1780.76,-781.80
4770,-3.8715,0.2701,-0.2620,-1351.32,-1687.01,-813.05
4780,-3.8715,0.2695,-0.2612,-1413.82,-1530.76,-797.42
4790,-3.8715,0.2697,-0.2612,-1491.94,-1437.01,-750.55
4800,-3.8715,0.2697,-0.2616,-1476.32,-1437.01,-750.55
4810,-3.8715,0.2692,-0.2616,-1476.32,-1483.89,-828.67
4820,-3.8715,0.2689,-0.2620,-1538.82,-1483.89,-828.67
4830,-3.8715,0.2693,-0.2615,-1570.07,-1530.76,-750.55
4840,-3.8715,0.2698,-0.2605,-1523.19,-1468.26,-703.67
4850,-3.8715,0.2690,-0.2605,-1460.69,-1343.26,-625.55
4860,-3.8715,0.2688,-0.2609,-1554.44,-1343.26,-516.17
4870,-3.8715,0.2690,-0.2607,-1585.69,-1390.14,-453.67
4880,-3.8715,0.2720,-0.2617,-1257.57,-1421.39,-688.05
4890,-3.8715,0.2711,-0.2618,-1179.44,-1499.51,-578.67
4900,-3.8715,0.2701,-0.2610,-1288.82,-1515.14,-625.55
4910,-3.8715,0.2692,-0.2605,-1413.82,-1405.76,-781.80
4920,-3.8715,0.2679,-0.2606,-1538.82,-1343.26,-797.42
4930,-3.8715,0.2677,-0.2606,-1695.07,-1358.89,-672.42
4940,-3.8715,0.2692,-0.2607,-1726.32,-1358.89,-516.17
4950,-3.8715,0.2710,-0.2610,-1538.82,-1374.51,-500.55
4960,-3.8715,0.2719,-0.2612,-1304.44,-1405.76,-641.17
4970,-3.8715,0.2706,-0.2606,-1195.07,-1437.01,-719.30
4980,-3.8715,0.2687,-0.2594,-1351.32,-1358.89,-672.42
4990,-3.8715,0.2671,-0.2587,-1601.32,-1202.64,-641.17
5000,-3.8715,0.2668,-0.2590,-1804.44,-1108.89,-609.92
5010,-3.8715,0.2686,-0.2605,-1835.69,-1155.76,-656.80
5020,-3.8715,0.2719,-0.2617,-1616.94,-1343.26,-781.80
5030,-3.8715,0.2742,-0.2617,-1195.07,-1499.51,-844.30
5040,-3.8715,0.2726,-0.2606,-898.19,-1499.51,-766.17
5050,-3.8715,0.2684,-0.2595,-1101.32,-1358.89,-625.55
5060,-3.8715,0.2655,-0.2592,-1632.57,-1218.26,-594.30
5070,-3.8715,0.2659,-0.2590,1992.43,-1171.39,-578.67
5080,-3.8715,0.2684,-0.2585,-1960.69,-1155.76,-516.17
5090,-3.8715,0.2714,-0.2579,-1632.57,-1093.26,-516.17
5100,-3.8715,0.2738,-0.2581,-1257.57,-1015.14,-563.05
5110,-3.8715,0.2740,-0.2588,-945.07,-1030.76,-547.42
5120,-3.8715,0.2720,-0.2593,-913.82,-1124.51,-500.55
5130,-3.8715,0.2686,-0.2594,-1179.44,-1187.01,-594.30
5140,-3.8715,0.2655,-0.2596,-1616.94,-1202.64,-688.05
5150,-3.8715,0.2657,-0.2598,1992.43,-1233.89,-672.42
5160,-3.8715,0.2683,-0.2588,-1976.32,-1249.51,-547.42
5170,-3.8715,0.2699,-0.2577,-1648.19,-1124.51,-406.80
5180,-3.8715,0.2703,-0.2583,-1445.07,-983.89,-438.05
5190,-3.8715,0.2704,-0.2593,-1398.19,-1062.01,-531.80
5200,-3.8715,0.2705,-0.2596,-1382.57,-1187.01,-609.92
5210,-3.8715,0.2710,-0.2594,-1366.94,-1233.89,-609.92
5220,-3.8715,0.2719,-0.2589,-1304.44,-1202.64,-625.55
5230,-3.8715,0.2709,-0.2584,-1195.07,-1140.14,-672.42
5240,-3.8715,0.2683,-0.2588,-1320.07,-1077.64,-719.30
5250,-3.8715,0.2668,-0.2598,-1648.19,-1124.51,-719.30
5260,-3.8715,0.2672,-0.2598,-1835.69,-1249.51,-656.80
5270,-3.8715,0.2688,-0.2589,-1788.82,-1249.51,-578.67
5280,-3.8715,0.2705,-0.2585,-1585.69,-1140.14,-563.05
5290,-3.8715,0.2716,-0.2587,-1366.94,-1093.26,-656.80
5300,-3.8715,0.2736,-0.2584,-1226.32,-1108.89,-688.05
5310,-3.8715,0.2747,-0.2582,-976.32,-1077.64,-734.92
5320,-3.8715,0.2726,-0.2588,-835.69,-1046.39,-750.55
5330,-3.8715,0.2682,-0.2592,-1101.32,-1124.51,-656.80
5340,-3.8715,0.2649,-0.2593,-1663.82,-1171.39,-547.42
5350,-3.8715,0.2649,-0.2589,1914.31,-1187.01,-516.17
5360,-3.8715,0.2677,-0.2593,1914.31,-1140.14,-563.05
5370,-3.8715,0.2708,-0.2593,-1726.32,-1187.01,-641.17
5380,-3.8715,0.2722,-0.2578,-1335.69,-1187.01,-625.55
5390,-3.8715,0.2721,-0.2570,-1148.19,-999.51,-594.30
5400,-3.8715,0.2715,-0.2577,-1163.82,-890.14,-578.67
5410,-3.8715,0.2705,-0.2585,-1241.94,-983.89,-641.17
5420,-3.8715,0.2701,-0.2589,-1366.94,-1093.26,-688.05
5430,-3.8715,0.2711,-0.2590,-1413.82,-1140.14,-703.67
5440,-3.8715,0.2726,-0.2587,-1288.82,-1155.76,-750.55
5450,-3.8715,0.2726,-0.2578,-1101.32,-1108.89,-828.67
5460,-3.8715,0.2705,-0.2570,-1101.32,-999.51,-781.80
5470,-3.8715,0.2672,-0.2572,-1366.94,-890.14,-531.80
5480,-3.8715,0.2644,-0.2585,-1788.82,-921.39,-344.30
5490,-3.8715,0.2643,-0.2592,1851.81,-1093.26,-344.30
5500,-3.8715,0.2672,-0.2587,1836.18,-1171.39,-438.05
5510,-3.8715,0.2719,-0.2573,-1788.82,-1108.89,-594.30
5520,-3.8715,0.2759,-0.2563,-1195.07,-937.01,-672.42
5530,-3.8715,0.2759,-0.2574,-679.44,-812.01,-688.05
5540,-3.8715,0.2719,-0.2583,-679.44,-952.64,-719.30
5550,-3.8715,0.2667,-0.2574,-1195.07,-1062.01,-734.92
5560,-3.8715,0.2639,-0.2570,-1851.32,-952.64,-688.05
5570,-3.8715,0.2654,-0.2576,1789.31,-890.14,-516.17
5580,-3.8715,0.2697,-0.2578,1976.81,-968.26,-391.17
5590,-3.8715,0.2738,-0.2572,-1476.32,-999.51,-391.17
5600,-3.8715,0.2749,-0.2567,-945.07,-921.39,-422.42
5610,-3.8715,0.2717,-0.2567,-804.44,-858.89,-484.92
5620,-3.8715,0.2677,-0.2568,-1210.69,-858.89,-469.30
5630,-3.8715,0.2648,-0.2581,-1726.32,-874.51,-406.80
5640,-3.8715,0.2637,-0.2631,1898.68,-1030.76,-328.67
5650,-3.8715,0.2650,-0.2604,1758.06,-1671.39,-281.80
5660,-3.8715,0.2682,-0.2511,1929.93,-1327.64,-734.92
5670,-3.8715,0.2753,-0.2515,-1663.82,-140.14,-1109.92
5680,-3.8715,0.2789,-0.2571,-757.57,-187.01,-719.30
5690,-3.8715,0.2727,-0.2588,-288.82,-905.76,-453.67
5700,-3.8715,0.2657,-0.2573,-1085.69,-1124.51,-563.05
5710,-3.8715,0.2632,-0.2561,-1976.32,-937.01,-469.30
5720,-3.8715,0.2645,-0.2550,1695.56,-780.76,-219.30
5730,-3.8715,0.2694,-0.2548,1867.43,-640.14,-234.92
5740,-3.8715,0.2748,-0.2559,-1507.57,-608.89,-453.67
5750,-3.8715,0.2762,-0.2576,-820.07,-749.51,-656.80
5760,-3.8715,0.2727,-0.2578,-632.57,-968.26,-781.80
5770,-3.8715,0.2672,-0.2563,-1085.69,-999.51,-766.17
5780,-3.8715,0.2643,-0.2554,-1788.82,-812.01,-641.17
5790,-3.8715,0.2656,-0.2560,1836.18,-687.01,-563.05
5800,-3.8715,0.2679,-0.2574,-1991.94,-765.14,-609.92
5810,-3.8715,0.2699,-0.2582,-1695.07,-952.64,-641.17
5820,-3.8715,0.2717,-0.2578,-1445.07,-1046.39,-594.30
5830,-3.8715,0.2734,-0.2560,-1210.69,-999.51,-516.17
5840,-3.8715,0.2737,-0.2543,-991.94,-765.14,-500.55
5850,-3.8715,0.2717,-0.2545,-960.69,-546.39,-547.42
5860,-3.8715,0.2693,-0.2552,-1210.69,-577.64,-578.67
5870,-3.8715,0.2686,-0.2559,-1523.19,-671.39,-578.67
5880,-3.8715,0.2686,-0.2559,-1616.94,-749.51,-547.42
5890,-3.8715,0.2690,-0.2555,-1616.94,-749.51,-531.80
5900,-3.8715,0.2704,-0.2554,-1554.44,-702.64,-578.67
5910,-3.8715,0.2703,-0.2549,-1382.57,-687.01,-609.92
5920,-3.8715,0.2698,-0.2549,-1398.19,-624.51,-578.67
5930,-3.8715,0.2705,-0.2559,-1460.69,-624.51,-594.30
5940,-3.8715,0.2711,-0.2566,-1366.94,-749.51,-641.17
5950,-3.8715,0.2705,-0.2566,-1288.82,-843.26,-641.17
5960,-3.8715,0.2687,-0.2563,-1366.94,-843.26,-563.05
5970,-3.8715,0.2671,-0.2562,-1601.32,-812.01,-453.67
5980,-3.8715,0.2664,-0.2556,-1804.44,-796.39,-406.80
5990,-3.8715,0.2664,-0.2550,-1898.19,-718.26,-453.67
6000,-3.8715,0.2682,-0.2548,-1898.19,-640.14,-484.92
6010,-3.8715,0.2715,-0.2540,-1663.82,-608.89,-516.17
6020,-3.8715,0.2739,-0.2539,-1241.94,-515.14,-578.67
6030,-3.8715,0.2737,-0.2546,-929.44,-499.51,-578.67
6040,-3.8715,0.2703,-0.2551,-960.69,-593.26,-484.92
6050,-3.8715,0.2659,-0.2548,-1398.19,-655.76,-375.55
6060,-3.8715,0.2642,-0.2545,-1960.69,-608.89,-313.05
6070,-3.8715,0.2656,-0.2545,1820.56,-577.64,-281.80
6080,-3.8715,0.2683,-0.2543,-1991.94,-577.64,-297.42
6090,-3.8715,0.2709,-0.2539,-1648.19,-546.39,-375.55
6100,-3.8715,0.2726,-0.2544,-1320.07,-499.51,-438.05
6110,-3.8715,0.2727,-0.2556,-1101.32,-562.01,-500.55
6120,-3.8715,0.2711,-0.2555,-1085.69,-718.26,-547.42
6130,-3.8715,0.2688,-0.2544,-1288.82,-702.64,-438.05
6140,-3.8715,0.2673,-0.2537,-1585.69,-562.01,-344.30
6150,-3.8715,0.2672,-0.2534,-1773.19,-468.26,-375.55
6160,-3.8715,0.2684,-0.2545,-1788.82,-437.01,-406.80
6170,-3.8715,0.2703,-0.2562,-1632.57,-577.64,-547.42
6180,-3.8715,0.2705,-0.2572,-1398.19,-796.39,-672.42
6190,-3.8715,0.2683,-0.2568,-1366.94,-921.39,-641.17
6200,-3.8715,0.2666,-0.2555,-1648.19,-874.51,-484.92
6210,-3.8715,0.2678,-0.2542,-1866.94,-702.64,-359.92
6220,-3.8715,0.2711,-0.2537,-1710.69,-530.76,-313.05
6230,-3.8715,0.2726,-0.2543,-1288.82,-468.26,-406.80
6240,-3.8715,0.2717,-0.2557,-1101.32,-546.39,-578.67
6250,-3.8715,0.2701,-0.2566,-1210.69,-733.89,-625.55
6260,-3.8715,0.2689,-0.2571,-1413.82,-843.26,-609.92
6270,-3.8715,0.2692,-0.2572,-1570.07,-905.76,-641.17
6280,-3.8715,0.2694,-0.2566,-1538.82,-921.39,-578.67
6290,-3.8715,0.2686,-0.2554,-1507.57,-843.26,-453.67
6300,-3.8715,0.2679,-0.2534,-1616.94,-687.01,-375.55
6310,-3.8715,0.2681,-0.2521,-1695.07,-437.01,-219.30
6320,-3.8715,0.2686,-0.2527,-1679.44,-265.14,-188.05
6330,-3.8715,0.2695,-0.2543,-1616.94,-343.26,-281.80
6340,-3.8715,0.2709,-0.2556,-1491.94,-546.39,-391.17
6350,-3.8715,0.2711,-0.2563,-1320.07,-718.26,-594.30
6360,-3.8715,0.2694,-0.2555,-1288.82,-812.01,-688.05
6370,-3.8715,0.2673,-0.2544,-1507.57,-702.64,-578.67
6380,-3.8715,0.2677,-0.2540,-1773.19,-562.01,-375.55
6390,-3.8715,0.2693,-0.2540,-1726.32,-515.14,-297.42
6400,-3.8715,0.2700,-0.2539,-1523.19,-515.14,-484.92
6410,-3.8715,0.2700,-0.2540,-1429.44,-499.51,-563.05
6420,-3.8715,0.2700,-0.2549,-1429.44,-515.14,-453.67
6430,-3.8715,0.2710,-0.2559,-1429.44,-624.51,-438.05
6440,-3.8715,0.2722,-0.2568,-1304.44,-749.51,-578.67
6450,-3.8715,0.2719,-0.2568,-1148.19,-874.51,-641.17
6460,-3.8715,0.2697,-0.2560,-1195.07,-874.51,-578.67
6470,-3.8715,0.2664,-0.2551,-1476.32,-765.14,-500.55
6480,-3.8715,0.2639,-0.2550,-1898.19,-655.76,-391.17
6490,-3.8715,0.2640,-0.2550,1789.31,-640.14,-359.92
6500,-3.8715,0.2664,-0.2551,1804.93,-640.14,-484.92
6510,-3.8715,0.2699,-0.2556,-1898.19,-655.76,-531.80
6520,-3.8715,0.2732,-0.2562,-1445.07,-718.26,-563.05
6530,-3.8715,0.2744,-0.2563,-1023.19,-796.39,-594.30
6540,-3.8715,0.2721,-0.2556,-866.94,-812.01,-563.05
6550,-3.8715,0.2675,-0.2548,-1163.82,-718.26,-516.17
6560,-3.8715,0.2646,-0.2546,-1757.57,-608.89,-438.05
6570,-3.8715,0.2657,-0.2549,1883.06,-593.26,-328.67
6580,-3.8715,0.2699,-0.2555,-1976.32,-624.51,-297.42
6590,-3.8715,0.2726,-0.2556,-1445.07,-702.64,-391.17
6600,-3.8715,0.2709,-0.2548,-1101.32,-718.26,-484.92
6610,-3.8715,0.2668,-0.2533,-1320.07,-608.89,-469.30
6620,-3.8715,0.2639,-0.2529,-1835.69,-421.39,-344.30
6630,-3.8715,0.2640,-0.2538,1789.31,-374.51,-250.55
6640,-3.8715,0.2675,-0.2549,1804.93,-483.89,-266.17
6650,-3.8715,0.2709,-0.2556,-1757.57,-624.51,-344.30
6660,-3.8715,0.2719,-0.2557,-1320.07,-718.26,-484.92
6670,-3.8715,0.2704,-0.2552,-1195.07,-733.89,-594.30
6680,-3.8715,0.2665,-0.2554,-1913.82,-624.51,-438.05
6690,-3.8715,0.2677,-0.2560,-1882.57,-687.01,-500.55
6700,-3.8715,0.2694,-0.2554,-1726.32,-765.14,-422.42
6710,-3.8715,0.2708,-0.2546,-1507.57,-687.01,-359.92
6720,-3.8715,0.2701,-0.2549,-1335.69,-593.26,-406.80
6730,-3.8715,0.2681,-0.2550,-1413.82,-624.51,-484.92
6740,-3.8715,0.2665,-0.2546,-1679.44,-640.14,-500.55
6750,-3.8715,0.2661,-0.2550,-1882.57,-593.26,-438.05
6760,-3.8715,0.2671,-0.2556,-1929.44,-640.14,-406.80
6770,-3.8715,0.2695,-0.2552,-1804.44,-718.26,-453.67
6780,-3.8715,0.2727,-0.2546,-1491.94,-671.39,-578.67
6790,-3.8715,0.2742,-0.2545,-1085.69,-593.26,-625.55
6800,-3.8715,0.2714,-0.2544,-898.19,-577.64,-563.05
6810,-3.8715,0.2659,-0.2545,-1257.57,-562.01,-469.30
6820,-3.8715,0.2625,-0.2545,-1960.69,-577.64,-313.05
6830,-3.8715,0.2635,-0.2542,1601.81,-577.64,-281.80
6840,-3.8715,0.2673,-0.2543,1742.43,-530.76,-344.30
6850,-3.8715,0.2709,-0.2552,-1773.19,-546.39,-438.05
6860,-3.8715,0.2720,-0.2567,-1320.07,-671.39,-578.67
6870,-3.8715,0.2705,-0.2571,-1179.44,-858.89,-594.30
6880,-3.8715,0.2681,-0.2559,-1366.94,-905.76,-406.80
6890,-3.8715,0.2664,-0.2544,-1679.44,-749.51,-250.55
6900,-3.8715,0.2659,-0.2538,-1898.19,-562.01,-234.92
6910,-3.8715,0.2664,-0.2543,-1960.69,-483.89,-313.05
6920,-3.8715,0.2689,-0.2551,-1898.19,-546.39,-453.67
6930,-3.8715,0.2722,-0.2561,-1570.07,-655.76,-641.17
6940,-3.8715,0.2737,-0.2567,-1148.19,-780.76,-766.17
6950,-3.8715,0.2721,-0.2567,-960.69,-858.89,-719.30
6960,-3.8715,0.2684,-0.2565,-1163.82,-858.89,-547.42
6970,-3.8715,0.2655,-0.2533,1711.18,-562.01,-344.30
6980,-3.8715,0.2692,-0.2535,1992.43,-421.39,-375.55
6990,-3.8715,0.2719,-0.2549,-1538.82,-452.64,-375.55
7000,-3.8715,0.2725,-0.2557,-1195.07,-624.51,-438.05
7010,-3.8715,0.2709,-0.2555,-1116.94,-733.89,-469.30
7020,-3.8715,0.2679,-0.2548,-1320.07,-702.64,-391.17
7030,-3.8715,0.2651,-0.2544,-1695.07,-608.89,-453.67
7040,-3.8715,0.2638,-0.2545,1945.56,-562.01,-578.67
7050,-3.8715,0.2649,-0.2543,1773.68,-577.64,-500.55
7060,-3.8715,0.2673,-0.2544,1914.31,-546.39,-328.67
7070,-3.8715,0.2698,-0.2551,-1773.19,-562.01,-234.92
7080,-3.8715,0.2714,-0.2554,-1460.69,-655.76,-281.80
7090,-3.8715,0.2711,-0.2550,-1257.57,-687.01,-391.17
7100,-3.8715,0.2684,-0.2548,-1288.82,-640.14,-484.92
7110,-3.8715,0.2655,-0.2554,-1632.57,-608.89,-531.80
7120,-3.8715,0.2649,-0.2563,1992.43,-687.01,-500.55
7130,-3.8715,0.2667,-0.2562,1914.31,-812.01,-531.80
7140,-3.8715,0.2699,-0.2552,-1851.32,-796.39,-547.42
7150,-3.8715,0.2717,-0.2542,-1445.07,-671.39,-453.67
7160,-3.8715,0.2714,-0.2533,-1210.69,-530.76,-438.05
7170,-3.8715,0.2694,-0.2532,-1257.57,-421.39,-484.92
7180,-3.8715,0.2667,-0.2540,-1507.57,-405.76,-391.17
7190,-3.8715,0.2656,-0.2544,-1851.32,-515.14,-250.55
7200,-3.8715,0.2673,-0.2544,-1991.94,-562.01,-266.17
7210,-3.8715,0.2692,-0.2552,-1773.19,-562.01,-469.30
7220,-3.8715,0.2698,-0.2565,-1538.82,-671.39,-594.30
7230,-3.8715,0.2699,-0.2566,-1460.69,-827.64,-688.05
7240,-3.8715,0.2694,-0.2555,-1445.07,-843.26,-688.05
7250,-3.8715,0.2661,-0.2552,1914.31,-530.76,-141.17
7260,-3.8715,0.2693,-0.2560,-1929.44,-671.39,-297.42
7270,-3.8715,0.2721,-0.2560,-1523.19,-765.14,-422.42
7280,-3.8715,0.2722,-0.2552,-1163.82,-765.14,-500.55
7290,-3.8715,0.2699,-0.2545,-1148.19,-671.39,-516.17
7300,-3.8715,0.2667,-0.2543,-1445.07,-577.64,-438.05
7310,-3.8715,0.2645,-0.2545,-1851.32,-546.39,-297.42
7320,-3.8715,0.2646,-0.2550,1867.43,-577.64,-328.67
7330,-3.8715,0.2661,-0.2548,1883.06,-640.14,-406.80
7340,-3.8715,0.2679,-0.2546,-1929.44,-608.89,-422.42
7350,-3.8715,0.2701,-0.2552,-1695.07,-593.26,-547.42
7360,-3.8715,0.2723,-0.2555,-1413.82,-671.39,-594.30
7370,-3.8715,0.2721,-0.2546,-1132.57,-702.64,-484.92
7380,-3.8715,0.2687,-0.2543,-1163.82,-593.26,-375.55
7390,-3.8715,0.2646,-0.2544,-1601.32,-546.39,-375.55
7400,-3.8715,0.2635,-0.2550,1883.06,-562.01,-391.17
7410,-3.8715,0.2664,-0.2559,1742.43,-640.14,-469.30
7420,-3.8715,0.2695,-0.2557,-1898.19,-749.51,-516.17
7430,-3.8715,0.2699,-0.2548,-1491.94,-733.89,-453.67
7440,-3.8715,0.2690,-0.2542,-1445.07,-608.89,-406.80
7450,-3.8715,0.2694,-0.2550,-1554.44,-530.76,-422.42
7460,-3.8715,0.2694,-0.2557,-1507.57,-640.14,-453.67
7470,-3.8715,0.2681,-0.2554,-1507.57,-733.89,-359.92
7480,-3.8715,0.2665,-0.2549,-1679.44,-687.01,-297.42
7490,-3.8715,0.2655,-0.2542,-1882.57,-624.51,-281.80
7500,-3.8715,0.2659,-0.2535,1992.43,-530.76,-297.42
7510,-3.8715,0.2678,-0.2533,-1960.69,-452.64,-266.17
7520,-3.8715,0.2695,-0.2534,-1710.69,-421.39,-328.67
7530,-3.8715,0.2703,-0.2539,-1491.94,-437.01,-406.80
7540,-3.8715,0.2704,-0.2542,-1398.19,-499.51,-359.92
7550,-3.8715,0.2697,-0.2548,-1382.57,-530.76,-359.92
7560,-3.8715,0.2679,-0.2552,-1476.32,-608.89,-406.80
7570,-3.8715,0.2657,-0.2550,-1695.07,-671.39,-391.17
7580,-3.8715,0.2650,-0.2540,-1976.32,-640.14,-391.17
7590,-3.8715,0.2667,-0.2537,1929.93,-515.14,-453.67
7600,-3.8715,0.2695,-0.2537,-1851.32,-468.26,-422.42
7610,-3.8715,0.2720,-0.2538,-1491.94,-468.26,-344.30
7620,-3.8715,0.2732,-0.2544,-1179.44,-483.89,-391.17
7630,-3.8715,0.2716,-0.2550,-1023.19,-562.01,-516.17
7640,-3.8715,0.2678,-0.2549,-1226.32,-640.14,-516.17
7650,-3.8715,0.2654,-0.2542,-1710.69,-624.51,-438.05
7660,-3.8715,0.2655,-0.2535,1976.81,-530.76,-391.17
7670,-3.8715,0.2672,-0.2534,1992.43,-452.64,-406.80
7680,-3.8715,0.2688,-0.2537,-1788.82,-437.01,-453.67
7690,-3.8715,0.2698,-0.2539,-1585.69,-468.26,-484.92
7700,-3.8715,0.2711,-0.2537,-1460.69,-499.51,-500.55
7710,-3.8715,0.2721,-0.2538,-1288.82,-468.26,-516.17
7720,-3.8715,0.2720,-0.2542,-1163.82,-483.89,-531.80
7730,-3.8715,0.2704,-0.2537,-1179.44,-530.76,-547.42
7740,-3.8715,0.2683,-0.2524,-1382.57,-468.26,-484.92
7750,-3.8715,0.2671,-0.2520,-1648.19,-312.01,-391.17
7760,-3.8715,0.2665,-0.2521,-1804.44,-249.51,-344.30
7770,-3.8715,0.2671,-0.2520,-1882.57,-265.14,-313.05
7780,-3.8715,0.2689,-0.2518,-1804.44,-249.51,-234.92
7790,-3.8715,0.2705,-0.2518,-1570.07,-233.89,-266.17
7800,-3.8715,0.2712,-0.2521,-1366.94,-233.89,-344.30
7810,-3.8715,0.2710,-0.2526,-1273.19,-265.14,-328.67
7820,-3.8715,0.2694,-0.2559,-1304.44,-327.64,-250.55
7830,-3.8713,0.2681,-0.2552,-1507.57,-749.51,155.70
7840,-3.8713,0.2644,-0.2435,-1679.44,-671.39,108.83
7850,-3.8715,0.2605,-0.2418,1851.81,828.61,-641.11
7860,-3.8715,0.2673,-0.2515,1351.81,1047.36,-687.99
7870,-3.8715,0.2759,-0.2531,-1773.19,-187.01,-188.05
7880,-3.8715,0.2762,-0.2502,-679.44,-390.14,-172.42
7890,-3.8715,0.2734,-0.2489,-632.57,-30.76,-453.67
7900,-3.8715,0.2689,-0.2490,-991.94,141.11,-375.49
7910,-3.8715,0.2654,-0.2495,-1570.07,125.49,-203.61
7920,-3.8715,0.2656,-0.2504,1976.81,62.99,-281.74
7930,-3.8715,0.2677,-0.2500,-1991.94,-46.39,-359.92
7940,-3.8715,0.2695,-0.2487,-1726.32,0.49,-344.24
7950,-3.8715,0.2708,-0.2488,-1491.94,172.36,-281.74
7960,-3.8715,0.2706,-0.2502,-1335.69,156.74,-172.36
7970,-3.8715,0.2695,-0.2518,-1351.32,-30.76,-203.67
7980,-3.8715,0.2679,-0.2516,-1491.94,-233.89,-328.67
7990,-3.8715,0.2672,-0.2495,-1695.07,-202.64,-375.55
8000,-3.8715,0.2682,-0.2482,-1788.82,62.99,-297.36
8010,-3.8715,0.2694,-0.2482,-1663.82,234.86,-141.11
8020,-3.8715,0.2699,-0.2485,-1507.57,234.86,-109.86
8030,-3.8715,0.2706,-0.2491,-1445.07,187.99,-234.86
8040,-3.8715,0.2728,-0.2504,-1351.32,109.86,-453.61
8050,-3.8715,0.2742,-0.2511,-1070.07,-46.39,-547.42
8060,-3.8715,0.2722,-0.2498,-898.19,-140.14,-438.05
8070,-3.8715,0.2689,-0.2482,-1148.19,31.74,-266.11
8080,-3.8715,0.2668,-0.2480,-1570.07,234.86,-94.24
8090,-3.8715,0.2667,-0.2485,-1835.69,250.49,-47.36
8100,-3.8715,0.2679,-0.2488,-1851.32,187.99,-187.99
8110,-3.8715,0.2697,-0.2488,-1695.07,156.74,-406.74
8120,-3.8715,0.2706,-0.2488,-1476.32,156.74,-437.99
8130,-3.8715,0.2703,-0.2488,-1351.32,156.74,-375.49
8140,-3.8715,0.2695,-0.2489,-1398.19,156.74,-344.24
8150,-3.8715,0.2687,-0.2494,-1491.94,141.11,-312.99
8160,-3.8715,0.2688,-0.2491,-1601.32,78.61,-250.49
8170,-3.8715,0.2700,-0.2478,-1585.69,109.86,-141.11
8180,-3.8715,0.2706,-0.2473,-1429.44,281.74,-94.24
8190,-3.8715,0.2710,-0.2485,-1351.32,344.24,-219.24
8200,-3.8715,0.2710,-0.2489,-1304.44,187.99,-359.86
8210,-3.8715,0.2708,-0.2487,-1304.44,141.11,-312.99
8220,-3.8715,0.2699,-0.2494,-1335.69,172.36,-219.24
8230,-3.8715,0.2684,-0.2496,-1445.07,78.61,-156.74
8240,-3.8715,0.2676,-0.2487,-1632.57,47.36,-172.36
8250,-3.8715,0.2682,-0.2477,-1741.94,172.36,-250.49
8260,-3.8715,0.2706,-0.2471,-1663.82,297.36,-312.99
8270,-3.8715,0.2733,-0.2477,-1351.32,375.49,-297.36
8280,-3.8715,0.2731,-0.2484,-1007.57,297.36,-250.49
8290,-3.8715,0.2711,-0.2484,-1038.82,203.61,-234.86
8300,-3.8715,0.2699,-0.2482,-1288.82,203.61,-250.49
8310,-3.8715,0.2695,-0.2485,-1445.07,234.86,-297.36
8320,-3.8715,0.2693,-0.2489,-1491.94,187.99,-250.49
8330,-3.8715,0.2689,-0.2488,-1523.19,141.11,-125.49
8340,-3.8715,0.2695,-0.2483,-1570.07,156.74,-125.49
8350,-3.8715,0.2709,-0.2482,-1491.94,219.24,-203.61
8360,-3.8715,0.2719,-0.2485,-1320.07,234.86,-344.24
8370,-3.8715,0.2714,-0.2490,-1195.07,187.99,-422.36
8380,-3.8715,0.2699,-0.2491,-1257.57,125.49,-359.86
8390,-3.8715,0.2681,-0.2482,-1445.07,109.86,-219.24
8400,-3.8715,0.2681,-0.2474,-1679.44,234.86,-78.61
8410,-3.8715,0.2704,-0.2483,-1679.44,328.61,-125.49
8420,-3.8715,0.2723,-0.2493,-1382.57,219.24,-203.61
8430,-3.8715,0.2731,-0.2490,-1132.57,94.24,-250.49
8440,-3.8715,0.2729,-0.2484,-1038.82,125.49,-359.86
8450,-3.8715,0.2720,-0.2483,-1054.44,203.61,-344.24
8460,-3.8715,0.2697,-0.2476,-1179.44,219.24,-219.24
8470,-3.8715,0.2670,-0.2465,-1476.32,312.99,-203.61
8480,-3.8715,0.2667,-0.2467,-1820.07,453.61,-203.61
8490,-3.8715,0.2686,-0.2477,-1851.32,422.36,-141.11
8500,-3.8715,0.2701,-0.2482,-1616.94,297.36,-109.86
8510,-3.8715,0.2715,-0.2483,-1413.82,234.86,-172.36
8520,-3.8715,0.2721,-0.2482,-1241.94,219.24,-203.61
8530,-3.8715,0.2711,-0.2477,-1163.82,234.86,-172.36
8540,-3.8715,0.2689,-0.2473,-1288.82,297.36,-234.86
8550,-3.8715,0.2671,-0.2469,-1570.07,344.24,-312.99
8560,-3.8715,0.2670,-0.2469,-1804.44,391.11,-328.61
8570,-3.8715,0.2681,-0.2473,-1820.07,391.11,-375.49
8580,-3.8715,0.2710,-0.2476,-1679.44,344.24,-422.36
8590,-3.8715,0.2743,-0.2480,-1304.44,312.99,-406.74
8600,-3.8715,0.2748,-0.2484,-882.57,250.49,-359.86
8610,-3.8715,0.2722,-0.2484,-820.07,203.61,-344.24
8620,-3.8715,0.2686,-0.2479,-1148.19,203.61,-375.49
8630,-3.8715,0.2662,-0.2472,-1616.94,266.11,-375.49
8640,-3.8715,0.2662,-0.2468,-1913.82,359.86,-281.74
8650,-3.8715,0.2681,-0.2472,-1913.82,406.74,-172.36
8660,-3.8715,0.2705,-0.2473,-1679.44,359.86,-109.86
8670,-3.8715,0.2719,-0.2478,-1366.94,344.24,-203.61
8680,-3.8715,0.2725,-0.2488,-1195.07,281.74,-391.11
8690,-3.8715,0.2725,-0.2484,-1116.94,156.74,-453.61
8700,-3.8715,0.2711,-0.2473,-1116.94,203.61,-359.86
8710,-3.8715,0.2699,-0.2468,-1288.82,344.24,-250.49
8720,-3.8715,0.2687,-0.2478,-1445.07,406.74,-172.36
8730,-3.8715,0.2705,-0.2478,-1523.19,94.24,-156.74
8740,-3.8715,0.2716,-0.2469,-1366.94,281.74,-234.86
8750,-3.8715,0.2731,-0.2469,-1226.32,391.11,-281.74
8760,-3.8715,0.2736,-0.2480,-1038.82,391.11,-359.86
8770,-3.8715,0.2725,-0.2498,-976.32,250.49,-406.74
8780,-3.8715,0.2705,-0.2504,-1116.94,31.74,-328.61
8790,-3.8715,0.2686,-0.2498,-1366.94,-46.39,-281.80
8800,-3.8715,0.2673,-0.2487,-1616.94,31.74,-266.11
8810,-3.8715,0.2668,-0.2482,-1773.19,172.36,-141.11
8820,-3.8715,0.2679,-0.2478,-1835.69,234.86,-31.74
8830,-3.8715,0.2698,-0.2474,-1695.07,281.74,-141.11
8840,-3.8715,0.2721,-0.2474,-1460.69,328.61,-312.99
8850,-3.8715,0.2744,-0.2479,-1163.82,328.61,-391.11
8860,-3.8715,0.2742,-0.2489,-866.94,266.11,-344.24
8870,-3.8715,0.2712,-0.2504,-898.19,141.11,-266.11
8880,-3.8715,0.2683,-0.2509,-1273.19,-46.39,-188.05
8890,-3.8715,0.2677,-0.2498,-1648.19,-108.89,-78.67
8900,-3.8715,0.2689,-0.2483,-1726.32,31.74,-141.11
8910,-3.8715,0.2708,-0.2487,-1570.07,219.24,-344.24
8920,-3.8715,0.2719,-0.2502,-1335.69,172.36,-391.11
8930,-3.8715,0.2721,-0.2501,-1195.07,-30.76,-344.30
8940,-3.8715,0.2716,-0.2495,-1163.82,-15.14,-453.67
8950,-3.8715,0.2706,-0.2490,-1226.32,62.99,-531.74
8960,-3.8715,0.2701,-0.2487,-1351.32,125.49,-359.86
8970,-3.8715,0.2694,-0.2485,-1413.82,172.36,-203.61
8980,-3.8715,0.2679,-0.2485,-1507.57,187.99,-203.61
8990,-3.8715,0.2678,-0.2488,-1695.07,187.99,-250.49
9000,-3.8715,0.2692,-0.2487,-1710.69,156.74,-219.24
9010,-3.8715,0.2716,-0.2485,-1320.07,234.86,-391.11
9020,-3.8715,0.2700,-0.2490,-1226.32,187.99,-406.74
9030,-3.8715,0.2670,-0.2499,-1429.44,125.49,-406.74
9040,-3.8715,0.2659,-0.2505,-1820.07,16.11,-406.74
9050,-3.8715,0.2682,-0.2499,-1960.69,-62.01,-406.80
9060,-3.8715,0.2721,-0.2488,-1663.82,16.11,-391.11
9070,-3.8715,0.2747,-0.2483,-1163.82,156.74,-312.99
9080,-3.8715,0.2750,-0.2489,-835.69,219.24,-219.24
9090,-3.8715,0.2739,-0.2498,-788.82,141.11,-234.86
9100,-3.8715,0.2719,-0.2500,-929.44,31.74,-328.61
9110,-3.8715,0.2700,-0.2487,-1195.07,0.49,-422.36
9120,-3.8715,0.2697,-0.2473,-1429.44,172.36,-406.74
9130,-3.8715,0.2706,-0.2473,-1476.32,344.24,-266.11
9140,-3.8715,0.2705,-0.2478,-1351.32,344.24,-141.11
9150,-3.8715,0.2701,-0.2484,-1366.94,281.74,-109.86
9160,-3.8715,0.2723,-0.2485,-1413.82,203.61,-141.11
9170,-3.8715,0.2748,-0.2484,-1132.57,187.99,-266.11
9180,-3.8715,0.2737,-0.2488,-820.07,203.61,-312.99
9190,-3.8715,0.2693,-0.2491,-960.69,156.74,-219.24
9200,-3.8715,0.2650,-0.2491,-1523.19,109.86,-141.11
9210,-3.8715,0.2646,-0.2491,1929.93,109.86,-125.49
9220,-3.8715,0.2678,-0.2490,1883.06,109.86,-141.11
9230,-3.8715,0.2720,-0.2484,-1710.69,125.49,-187.99
9240,-3.8715,0.2755,-0.2491,-1179.44,203.61,-234.86
9250,-3.8715,0.2761,-0.2510,-726.32,109.86,-281.74
9260,-3.8715,0.2738,-0.2511,-648.19,-124.51,-250.55
9270,-3.8715,0.2708,-0.2496,-945.07,-140.14,-219.30
9280,-3.8715,0.2687,-0.2489,-1335.69,47.36,-187.99
9290,-3.8715,0.2679,-0.2494,-1601.32,141.11,-203.61
9300,-3.8715,0.2688,-0.2494,-1695.07,78.61,-297.36
9310,-3.8715,0.2711,-0.2487,-1585.69,78.61,-344.24
9320,-3.8715,0.2728,-0.2485,-1288.82,172.36,-344.24
9330,-3.8715,0.2737,-0.2495,-1070.07,187.99,-375.49
9340,-3.8715,0.2733,-0.2506,-960.69,62.99,-359.86
9350,-3.8715,0.2711,-0.2509,-1007.57,-77.64,-328.67
9360,-3.8715,0.2693,-0.2501,-1288.82,-108.89,-313.05
9370,-3.8715,0.2686,-0.2487,-1523.19,-15.14,-203.67
9380,-3.8715,0.2683,-0.2488,-1616.94,172.36,-125.49
9390,-3.8715,0.2688,-0.2506,-1648.19,156.74,-141.11
9400,-3.8715,0.2697,-0.2516,-1585.69,-77.64,-250.55
9410,-3.8715,0.2701,-0.2507,-1476.32,-202.64,-328.67
9420,-3.8715,0.2717,-0.2484,-1413.82,-93.26,-281.80
9430,-3.8715,0.2717,-0.2458,-1210.69,203.61,-172.36
9440,-3.8715,0.2700,-0.2471,-1210.69,531.74,-187.99
9450,-3.8715,0.2697,-0.2504,-1429.44,375.49,-281.74
9460,-3.8715,0.2700,-0.2507,-1476.32,-46.39,-328.67
9470,-3.8715,0.2705,-0.2493,-1429.44,-93.26,-313.05
9480,-3.8715,0.2716,-0.2488,-1366.94,94.24,-266.11
9490,-3.8715,0.2717,-0.2496,-1226.32,156.74,-234.86
9500,-3.8715,0.2706,-0.2500,-1210.69,47.36,-281.74
9510,-3.8715,0.2716,-0.2496,-1351.32,0.49,-391.11
9520,-3.8715,0.2732,-0.2482,-1226.32,47.36,-406.74
9530,-3.8715,0.2728,-0.2471,-1023.19,234.86,-375.49
9540,-3.8715,0.2708,-0.2480,-1070.07,375.49,-297.36
9550,-3.8715,0.2683,-0.2493,-1335.69,250.49,-187.99
9560,-3.8715,0.2675,-0.2489,-1648.19,94.24,-250.49
9570,-3.8715,0.2694,-0.2483,-1757.57,141.11,-375.49
9580,-3.8715,0.2723,-0.2485,-1507.57,219.24,-375.49
9590,-3.8715,0.2740,-0.2493,-1132.57,187.99,-422.36
9600,-3.8715,0.2740,-0.2491,-913.82,94.24,-437.99
9610,-3.8715,0.2726,-0.2483,-913.82,109.86,-312.99
9620,-3.8715,0.2700,-0.2471,-1101.32,219.24,-219.24
9630,-3.8715,0.2672,-0.2465,-1429.44,375.49,-187.99
9640,-3.8715,0.2661,-0.2473,-1788.82,453.61,-156.74
9650,-3.8715,0.2676,-0.2490,-1929.44,344.24,-172.36
9660,-3.8715,0.2700,-0.2502,-1741.94,125.49,-250.49
9670,-3.8715,0.2709,-0.2501,-1429.44,-30.76,-297.42
9680,-3.8715,0.2703,-0.2495,-1320.07,-15.14,-328.67
9690,-3.8715,0.2688,-0.2491,-1398.19,62.99,-312.99
9700,-3.8715,0.2679,-0.2488,-1585.69,109.86,-266.11
9710,-3.8715,0.2688,-0.2482,-1695.07,156.74,-234.86
9720,-3.8715,0.2716,-0.2482,-1585.69,234.86,-203.61
9730,-3.8715,0.2740,-0.2495,-1226.32,234.86,-297.36
9740,-3.8715,0.2732,-0.2507,-913.82,62.99,-359.86
9750,-3.8715,0.2705,-0.2510,-1023.19,-93.26,-328.67
9760,-3.8715,0.2687,-0.2502,-1366.94,-124.51,-344.30
9770,-3.8715,0.2689,-0.2493,-1601.32,-30.76,-391.17
9780,-3.8715,0.2710,-0.2490,-1570.07,94.24,-359.86
9790,-3.8715,0.2720,-0.2491,-1304.44,125.49,-328.61
9800,-3.8715,0.2712,-0.2489,-1179.44,109.86,-344.24
9810,-3.8715,0.2706,-0.2487,-1273.19,141.11,-375.49
9820,-3.8715,0.2703,-0.2483,-1351.32,172.36,-406.74
9830,-3.8715,0.2695,-0.2483,-1398.19,219.24,-406.74
9840,-3.8715,0.2686,-0.2483,-1491.94,219.24,-344.24
9850,-3.8715,0.2684,-0.2480,-1616.94,219.24,-266.11
9860,-3.8715,0.2692,-0.2482,-1632.57,250.49,-234.86
9870,-3.8715,0.2700,-0.2491,-1538.82,234.86,-297.36
9880,-3.8715,0.2712,-0.2504,-1429.44,109.86,-375.49
9890,-3.8715,0.2717,-0.2505,-1273.19,-46.39,-375.55
9900,-3.8715,0.2711,-0.2494,-1210.69,-62.01,-344.30
9910,-3.8715,0.2705,-0.2484,-1288.82,78.61,-312.99
