timestamp_ms,ax,ay,az,gx,gy,gz
0,-3.8441,-0.2183,0.3114,-1257.57,-1453.74,-452.51
10,-3.8440,-0.1536,0.3113,70.56,-125.43,-1155.70
20,-3.8439,-0.0939,0.3202,351.81,-140.93,1266.17
30,-3.8439,-0.0411,0.3358,-7.57,999.76,-1296.26
40,-3.8439,0.0066,0.3546,-1257.57,-1000.12,-1561.89
50,-3.8439,0.0557,0.3756,851.81,1390.62,1547.55
60,-3.8439,0.1055,0.4038,-866.94,78.19,391.36
70,-3.8440,0.1558,0.4304,1508.06,-312.32,1938.23
80,-3.8441,0.2083,0.4427,-54.44,-906.01,-1389.83
90,-3.8441,0.2603,0.4496,-1335.69,672.24,297.73
100,-3.8442,0.3031,0.4664,1320.56,1547.36,-717.90
110,-3.8442,0.3401,0.4819,-1195.07,-296.33,-1499.15
120,-3.8442,0.3795,0.4778,-460.69,1688.11,-889.71
130,-3.8441,0.4050,0.4733,586.18,1156.98,1344.67
140,-3.8441,0.3998,0.4916,-148.19,578.86,-717.83
150,-3.8440,0.3750,0.5194,-820.07,-1077.39,391.54
160,-3.8440,0.3420,0.5416,8.06,-1514.89,1282.23
170,-3.8440,0.3027,0.5609,-210.69,1328.74,-1655.21
180,-3.8439,0.2614,0.5917,-1241.94,-202.58,626.04
190,-3.8750,0.2250,0.6462,1461.18,-265.14,985.47
200,-3.8749,0.2037,0.7065,804.93,-1280.82,-920.65
210,-3.8746,0.2126,0.7501,-1913.82,-1562.13,1938.84
220,-3.8744,0.2560,0.7759,-773.19,15.99,142.09
230,-3.8743,0.3252,0.7859,773.68,-687.01,1767.09
240,-3.8741,0.3994,0.8004,1633.06,594.36,-170.35
250,-3.8739,0.4458,0.8468,-866.94,-1546.14,1282.78
260,-3.8738,0.4537,0.9174,1070.56,391.48,798.52
270,-3.8738,0.4414,0.9830,-1913.82,1422.73,-1029.48
280,-3.8738,0.4178,1.0352,508.06,1828.98,-107.48
290,-3.8738,0.3861,1.0812,1492.43,500.79,-1029.24
300,-3.8738,0.3640,1.1127,1429.93,-1608.64,-1997.92
310,-3.8737,0.3622,1.1344,-1398.19,-1577.45,174.01
320,-3.8735,0.3629,1.1750,-1632.57,1203.80,1345.95
330,-3.8734,0.3518,1.2385,-1538.82,-1593.08,-810.24
340,-3.8733,0.3416,1.3020,1039.31,-1468.08,-13.24
350,-3.8732,0.3438,1.3497,-273.19,-1343.14,-263.12
360,-3.8730,0.3503,1.3893,8.06,766.30,-622.38
370,-3.8729,0.3632,1.4150,851.81,1828.80,-669.19
380,-3.8727,0.3981,1.4027,-1507.57,1125.67,1330.87
390,-3.8724,0.4556,1.3650,-1038.82,-452.39,-1028.56
400,-3.8721,0.5085,1.3442,-1679.44,-1280.40,-341.13
410,-3.8716,0.5168,1.3647,1101.81,63.48,862.00
420,-3.8713,0.4558,1.4113,-1835.69,-1311.52,-794.25
430,-3.8711,0.3455,1.4517,-1648.19,641.48,268.37
440,-3.8711,0.2280,1.4735,226.81,1813.17,752.81
450,-3.8711,0.1350,1.4692,1195.56,609.80,1284.12
460,-3.8710,0.0775,1.4396,1289.31,62.74,1877.87
470,-3.8707,0.0383,1.4069,1929.93,265.75,1877.81
480,-3.8705,-0.0074,1.3840,914.31,78.19,1674.62
490,-3.8704,-0.0743,1.3660,-945.07,1171.81,1971.44
500,-3.8704,-0.1609,1.3422,-1507.57,-1140.81,-1513.00
510,-3.8704,-0.2509,1.3082,-585.69,-187.87,1596.31
520,-3.8704,-0.3252,1.2689,-101.32,-531.80,783.75
530,-3.8704,-0.3687,1.2303,-1616.94,-1563.17,377.44
540,-3.8704,-0.3782,1.1996,820.56,1499.27,189.88
550,-3.8705,-0.3619,1.1824,-398.19,1561.71,-1278.93
560,-3.8706,-0.3386,1.1655,1679.93,-641.36,-919.62
570,-3.8707,-0.3330,1.1337,664.31,1202.45,-935.24
580,-3.8707,-0.3573,1.0898,1383.06,1124.33,80.32
590,-3.8708,-0.4120,1.0460,-1726.32,-485.11,1314.58
600,-3.8710,-0.4838,1.0068,-726.32,1905.40,1002.01
610,-3.8712,-0.5477,0.9635,-1913.82,889.65,-1669.92
620,-3.8715,-0.5834,0.9059,1898.68,-657.35,-1326.29
630,-3.8716,-0.5872,0.8298,1336.18,-32.41,689.21
640,-3.8717,-0.5790,0.7533,851.81,-1766.78,564.09
650,-3.8719,-0.5828,0.7019,1898.68,436.34,-264.16
660,-3.8721,-0.6006,0.6724,1414.31,1858.22,735.72
670,-3.8724,-0.6246,0.6465,-866.94,-1923.10,-154.97
680,-3.8727,-0.6484,0.6150,54.93,-1235.60,-1998.78
690,-3.8729,-0.6666,0.5759,1008.06,-1266.91,798.03
700,-3.8732,-0.6777,0.5421,-1320.07,1733.03,1235.47
710,-3.8734,-0.6866,0.5277,1258.06,1404.91,-1483.34
720,-3.8737,-0.6913,0.5170,117.43,-438.84,-108.40
730,-3.8738,-0.6794,0.4906,-476.32,-1813.90,-1405.27
740,-3.8739,-0.6492,0.4613,1039.31,-1188.84,-936.58
750,-3.8739,-0.6021,0.4333,914.31,-938.78,688.35
760,-3.8739,-0.5369,0.3967,-1054.44,-516.85,313.29
770,-3.8739,-0.4691,0.3740,-710.69,-1204.22,1188.23
780,-3.8739,-0.4260,0.3883,-38.82,-110.35,172.55
790,-3.8741,-0.4102,0.4313,1476.81,1717.90,-561.77
800,-3.8743,-0.4047,0.4781,-491.94,-782.10,0.79
810,-3.8746,-0.4014,0.5063,211.18,1217.96,-30.33
820,-3.8748,-0.3953,0.5067,633.06,827.33,469.73
830,-3.8750,-0.3817,0.4846,1414.31,874.21,-1420.90
840,-3.8439,-0.3584,0.4574,-851.32,-1953.92,-858.46
850,-3.8439,-0.3171,0.4230,-1866.94,-1438.23,-1452.27
860,-3.8750,-0.2566,0.3848,-585.69,-1844.42,-1952.33
870,-3.8749,-0.2017,0.3767,-835.69,1265.08,-155.52
880,-3.8748,-0.1774,0.4098,-1804.44,233.95,-671.14
890,-3.8748,-0.1775,0.4590,1304.93,468.38,-1389.83
900,-3.8749,-0.1829,0.4928,1289.31,-1234.74,-1061.65
910,-3.8750,-0.1809,0.5043,601.81,-906.62,-1889.71
920,-3.8439,-0.1656,0.5089,851.81,562.13,1547.85
930,-3.8440,-0.1360,0.5171,-1195.07,1155.88,-1670.90
940,-3.8440,-0.0884,0.5195,-1398.19,-1797.18,1079.10
950,-3.8440,-0.0199,0.5087,695.56,-1484.56,-1436.52
960,-3.8439,0.0608,0.5022,1461.18,1124.94,-1592.77
970,-3.8750,0.1351,0.5144,-210.69,281.31,-1045.90
980,-3.8749,0.1893,0.5392,1304.93,1843.99,-1405.27
990,-3.8748,0.2191,0.5641,242.43,1015.99,579.16
1000,-3.8748,0.2340,0.5812,54.93,203.55,829.22
1010,-3.8748,0.2382,0.5964,1961.18,-1608.95,469.85
1020,-3.8748,0.2297,0.6216,-1507.57,344.18,563.66
1030,-3.8748,0.2148,0.6541,1414.31,-437.07,641.78
1040,-3.8748,0.2074,0.6803,-491.94,-280.88,329.35
1050,-3.8748,0.2166,0.6991,-1445.07,-921.51,454.41
1060,-3.8748,0.2411,0.7172,-273.19,1484.74,-1576.78
1070,-3.8746,0.2745,0.7343,-1132.57,-202.70,-1404.91
1080,-3.8745,0.3042,0.7557,-851.32,1984.86,-576.72
1090,-3.8744,0.3212,0.7914,-1054.44,734.92,-1295.41
1100,-3.8744,0.3264,0.8309,1117.43,1297.49,-232.85
1110,-3.8744,0.3324,0.8531,1789.31,-1640.01,-310.91
1120,-3.8743,0.3483,0.8580,-1445.07,1203.74,236.02
1130,-3.8743,0.3690,0.8665,586.18,1828.80,-1279.60
1140,-3.8741,0.3853,0.8893,-757.57,-1093.08,-795.23
1150,-3.8739,0.3920,0.9227,1320.56,1828.86,251.71
1160,-3.8738,0.3971,0.9595,-1820.07,-1889.89,673.65
1170,-3.8737,0.4108,0.9878,-1163.82,-1186.77,1142.46
1180,-3.8735,0.4309,1.0076,586.18,-1561.71,-1716.86
1190,-3.8734,0.4534,1.0276,-835.69,969.54,-388.67
1200,-3.8732,0.4735,1.0525,-1960.69,-467.90,923.83
1210,-3.8730,0.4844,1.0825,617.43,-1280.33,-1716.74
1220,-3.8728,0.4832,1.1104,-1991.94,-1436.58,298.95
1230,-3.8727,0.4734,1.1241,1851.81,-1874.08,-263.49
1240,-3.8723,0.4606,1.1239,601.81,-108.46,33.39
1250,-3.8722,0.4452,1.1259,-1038.82,-139.77,-44.74
1260,-3.8719,0.4265,1.1406,992.43,110.23,-1825.93
1270,-3.8718,0.4117,1.1572,-1398.19,-1999.21,1627.20
1280,-3.8718,0.4104,1.1616,711.18,125.79,-622.74
1290,-3.8717,0.4216,1.1537,539.31,688.29,-1997.74
1300,-3.8716,0.4308,1.1445,1976.81,-327.33,-1904.05
1310,-3.8715,0.4203,1.1460,-851.32,-1499.21,1627.20
1320,-3.8715,0.3845,1.1592,1804.93,-1311.71,-1263.43
1330,-3.8715,0.3328,1.1715,1226.81,375.73,-1763.37
1340,-3.8715,0.2772,1.1742,-1398.19,1953.74,1658.51
1350,-3.8715,0.2235,1.1704,-507.57,-1702.64,1158.51
1360,-3.8715,0.1725,1.1603,617.43,1812.93,658.51
1370,-3.8715,0.1248,1.1405,-1913.82,515.93,564.76
1380,-3.8715,0.0825,1.1191,-23.19,1984.56,1361.57
1390,-3.8715,0.0393,1.1093,-1429.44,-749.88,-1216.61
1400,-3.8713,-0.0148,1.1085,1039.31,1984.44,95.89
1410,-3.8713,-0.0792,1.1000,-1882.57,1906.19,1627.14
1420,-3.8712,-0.1465,1.0782,1867.43,812.32,2.14
1430,-3.8712,-0.2109,1.0519,1258.06,-1969.06,-997.92
1440,-3.8711,-0.2675,1.0251,1008.06,-1344.18,-1466.74
1450,-3.8710,-0.3164,1.0044,1773.68,-766.17,-1857.42
1460,-3.8708,-0.3650,0.9940,-491.94,577.45,642.58
1470,-3.8708,-0.4153,0.9891,1289.31,-750.73,814.39
1480,-3.8710,-0.4619,0.9836,-1148.19,-1375.85,-1341.86
1490,-3.8711,-0.5005,0.9722,883.06,1920.96,-388.73
1500,-3.8711,-0.5282,0.9535,-54.44,452.09,611.27
1510,-3.8712,-0.5461,0.9333,398.68,-1938.54,1548.71
1520,-3.8713,-0.5551,0.9159,-1898.19,-516.72,-1701.35
1530,-3.8715,-0.5474,0.9001,961.18,1248.90,-1170.10
1540,-3.8716,-0.5255,0.8795,1945.56,-766.72,-717.04
1550,-3.8716,-0.5039,0.8496,742.43,592.71,64.21
1560,-3.8717,-0.4971,0.8177,-491.94,764.59,1189.15
1570,-3.8718,-0.5098,0.7938,383.06,686.52,1392.21
1580,-3.8721,-0.5359,0.7817,-1241.94,1623.96,-529.72
1590,-3.8722,-0.5619,0.7775,-585.69,77.03,95.28
1600,-3.8724,-0.5776,0.7703,86.18,-469.85,1032.71
1610,-3.8727,-0.5813,0.7543,-1929.44,-1391.78,-576.66
1620,-3.8728,-0.5745,0.7307,1601.81,561.34,-545.41
1630,-3.8728,-0.5656,0.7058,-1523.19,1545.72,438.90
1640,-3.8729,-0.5635,0.6906,-382.57,-1641.78,876.34
1650,-3.8732,-0.5647,0.6902,-116.94,405.09,-342.41
1660,-3.8733,-0.5605,0.6981,-273.19,358.22,1345.09
1670,-3.8735,-0.5505,0.7024,258.06,1373.90,-639.28
1680,-3.8737,-0.5408,0.6896,1539.31,1920.78,-1201.78
1690,-3.8737,-0.5266,0.6509,-1210.69,280.15,376.34
1700,-3.8738,-0.5046,0.6044,601.81,-672.91,-108.15
1710,-3.8738,-0.4888,0.5782,-585.69,1373.96,-670.72
1720,-3.8738,-0.4886,0.5723,1445.56,-1969.73,329.22
1730,-3.8740,-0.5022,0.5691,1461.18,1264.65,-1608.28
1740,-3.8743,-0.5219,0.5587,-273.19,858.34,-1014.53
1750,-3.8744,-0.5386,0.5436,1211.18,-469.79,32.29
1760,-3.8746,-0.5450,0.5273,-929.44,1592.65,-1514.59
1770,-3.8748,-0.5365,0.5101,-1757.57,-485.47,-1374.02
1780,-3.8748,-0.5107,0.4919,-663.82,1311.40,219.73
1790,-3.8749,-0.4684,0.4718,-1366.94,-1016.66,-1139.71
1800,-3.8749,-0.4156,0.4517,54.93,405.33,-1233.46
1810,-3.8749,-0.3634,0.4385,-1195.07,1827.27,-577.27
1820,-3.8749,-0.3167,0.4360,1492.43,139.89,-1061.65
1830,-3.8749,-0.2732,0.4452,-523.19,-172.55,719.54
1840,-3.8750,-0.2334,0.4615,1039.31,999.45,1610.23
1850,-3.8439,-0.1968,0.4772,-1866.94,-906.74,-1811.65
1860,-3.8440,-0.1591,0.4863,-1179.44,1093.32,-952.21
1870,-3.8440,-0.1183,0.4929,-351.32,-1734.74,610.29
1880,-3.8441,-0.0745,0.4993,867.43,-890.87,-952.21
1890,-3.8441,-0.0262,0.4980,-1523.19,-78.31,-1561.58
1900,-3.8441,0.0261,0.4872,648.68,-234.44,-1295.96
1910,-3.8441,0.0787,0.4720,-648.19,-1640.62,-202.21
1920,-3.8440,0.1270,0.4590,-1913.82,422.00,1282.17
1930,-3.8440,0.1660,0.4485,258.06,-1249.76,-1467.90
1940,-3.8440,0.1914,0.4441,1258.06,1406.56,-1108.52
1950,-3.8440,0.1998,0.4600,508.06,844.12,1625.85
1960,-3.8441,0.1974,0.4900,1586.18,-1124.63,-874.15
1970,-3.8441,0.1974,0.5084,1273.68,-1280.88,1250.92
1980,-3.8441,0.2117,0.5028,1273.68,1078.49,1438.48
1990,-3.8441,0.2372,0.4818,-898.19,359.74,-295.90
2000,-3.8440,0.2609,0.4714,-1632.57,1672.30,-545.96
2010,-3.8439,0.2737,0.4807,1398.68,344.24,-45.96
2020,-3.8749,0.2776,0.5031,-960.69,1531.74,672.79
2030,-3.8748,0.2786,0.5356,-460.69,391.11,1047.85
2040,-3.8746,0.2740,0.5723,-335.69,562.99,641.66
2050,-3.8746,0.2629,0.6133,-913.82,1250.49,-514.53
2060,-3.8745,0.2523,0.6638,1664.31,-1499.51,1532.41
2070,-3.8745,0.2531,0.7151,304.93,969.24,-967.47
2080,-3.8744,0.2722,0.7524,398.68,-468.26,391.97
2090,-3.8744,0.3081,0.7800,-1148.19,312.99,-1904.79
2100,-3.8743,0.3512,0.8136,-554.44,-155.70,954.59
2110,-3.8741,0.3940,0.8544,961.18,141.30,829.71
2120,-3.8740,0.4344,0.8971,-1554.44,1360.11,767.27
2130,-3.8739,0.4634,0.9517,-382.57,-1171.08,17.33
2140,-3.8739,0.4734,1.0200,-679.44,1813.35,-1841.92
2150,-3.8739,0.4762,1.0830,601.81,-1436.58,-685.55
2160,-3.8738,0.4888,1.1323,961.18,-1374.08,736.45
2170,-3.8738,0.5149,1.1796,-1429.44,938.42,-216.55
2180,-3.8735,0.5566,1.2274,1914.31,-1014.65,361.63
2190,-3.8734,0.6169,1.2664,-741.94,1110.41,-1981.99
2200,-3.8732,0.6963,1.2937,-1023.19,-1905.09,1971.19
2210,-3.8728,0.7849,1.3170,1133.06,1595.09,815.00
2220,-3.8724,0.8544,1.3473,476.81,579.65,2.56
2230,-3.8722,0.8843,1.3823,1367.43,454.77,862.00
2240,-3.8721,0.8684,1.4127,1195.56,939.21,-1387.94
2250,-3.8719,0.8081,1.4333,-835.69,829.77,1174.62
2260,-3.8719,0.7214,1.4457,-554.44,-529.72,1159.00
2270,-3.8719,0.6334,1.4559,351.81,1048.28,221.56
2280,-3.8719,0.5626,1.4565,1086.18,-1639.40,205.93
2290,-3.8719,0.5168,1.4315,23.68,-1561.40,-1544.07
2300,-3.8718,0.4880,1.3861,-1835.69,-764.65,-247.25
2310,-3.8715,0.4596,1.3362,-1523.19,1422.79,2.69
2320,-3.8712,0.4186,1.2899,-1163.82,-967.90,1736.94
2330,-3.8710,0.3589,1.2546,1586.18,1110.17,-1778.75
2340,-3.8708,0.2775,1.2336,1945.56,594.42,-763.18
2350,-3.8708,0.1747,1.2256,-476.32,1906.74,-341.37
2360,-3.8708,0.0602,1.2251,-1632.57,875.31,533.63
2370,-3.8710,-0.0479,1.2214,-288.82,812.56,658.63
2380,-3.8711,-0.1378,1.2002,1883.06,359.25,-1763.24
2390,-3.8711,-0.2087,1.1613,-1632.57,1640.32,1611.69
2400,-3.8711,-0.2610,1.1134,1289.31,655.82,1877.26
2410,-3.8711,-0.2971,1.0634,-1398.19,-1469.30,-1310.36
2420,-3.8711,-0.3251,1.0222,1976.81,124.39,-544.80
2430,-3.8711,-0.3536,0.9958,-1601.32,-1141.30,-748.05
2440,-3.8711,-0.3868,0.9783,-1257.57,-516.36,-1998.11
2450,-3.8712,-0.4236,0.9712,-1507.57,1233.58,-716.86
2460,-3.8713,-0.4598,0.9803,1789.31,327.27,-1763.73
2470,-3.8716,-0.4908,0.9908,1148.68,1499.08,-998.11
2480,-3.8718,-0.5122,0.9835,1179.93,-1157.23,-779.36
2490,-3.8719,-0.5155,0.9617,-1554.44,1905.21,689.39
2500,-3.8721,-0.4977,0.9296,-1976.32,-891.66,1.83
2510,-3.8722,-0.4692,0.8875,304.93,-1000.98,876.77
2520,-3.8723,-0.4478,0.8442,-54.44,1608.40,-1482.67
2530,-3.8724,-0.4451,0.8076,-1304.44,77.21,-357.73
2540,-3.8724,-0.4603,0.7728,-960.69,-610.29,1.53
2550,-3.8726,-0.4869,0.7354,1086.18,-1063.42,1188.96
2560,-3.8727,-0.5217,0.7058,1679.93,-1860.35,-654.85
2570,-3.8727,-0.5574,0.6912,1226.81,-1641.66,610.72
2580,-3.8728,-0.5793,0.6727,664.31,483.28,407.59
2590,-3.8729,-0.5818,0.6350,1851.81,-1876.16,548.16
2600,-3.8730,-0.5745,0.6000,1539.31,1295.72,-1795.65
2610,-3.8730,-0.5675,0.5938,-1523.19,811.34,298.03
2620,-3.8732,-0.5571,0.6086,-632.57,14.47,1454.28
2630,-3.8733,-0.5383,0.6111,695.56,1920.78,1969.91
2640,-3.8734,-0.5184,0.5922,-898.19,-1766.72,-1248.84
2650,-3.8735,-0.5067,0.5759,1648.68,-188.54,-514.53
2660,-3.8737,-0.5024,0.5743,-851.32,1733.34,-608.28
2670,-3.8738,-0.4949,0.5742,-304.44,1530.21,-1561.40
2680,-3.8739,-0.4786,0.5651,664.31,1514.65,1860.47
2690,-3.8740,-0.4635,0.5548,-1257.57,342.77,1813.60
2700,-3.8741,-0.4631,0.5519,679.93,-969.67,1251.04
2710,-3.8743,-0.4802,0.5518,726.81,-1344.67,157.29
2720,-3.8745,-0.5094,0.5469,-1460.69,-1360.35,-983.34
2730,-3.8746,-0.5442,0.5483,-1195.07,-1985.41,1891.66
2740,-3.8748,-0.5748,0.5690,-1648.19,-1797.97,1001.04
2750,-3.8749,-0.5894,0.5946,-1570.07,842.59,1204.22
2760,-3.8750,-0.5819,0.6080,570.56,123.84,-1139.47
2770,-3.8750,-0.5443,0.5970,1523.68,1842.59,-1733.22
2780,-3.8749,-0.4769,0.5646,-1663.82,436.40,1235.53
2790,-3.8748,-0.3986,0.5387,-1038.82,280.27,-155.15
2800,-3.8745,-0.3278,0.5358,992.43,967.96,-748.96
2810,-3.8743,-0.2729,0.5535,-1945.07,593.08,1110.41
2820,-3.8743,-0.2329,0.5848,1070.56,-1141.17,-155.21
2830,-3.8743,-0.2068,0.6208,-1804.44,-1125.49,-1811.40
2840,-3.8744,-0.1912,0.6509,1539.31,-516.05,1063.66
2850,-3.8746,-0.1810,0.6677,-460.69,-672.30,-842.53
2860,-3.8748,-0.1608,0.6639,836.18,1484.01,-1779.97
2870,-3.8748,-0.1129,0.6313,-570.07,999.63,266.91
2880,-3.8748,-0.0454,0.5918,1554.93,827.88,-1545.65
2890,-3.8746,0.0188,0.5712,-1804.44,-234.50,-1452.03
2900,-3.8745,0.0594,0.5701,-1585.69,1109.38,1094.85
2910,-3.8746,0.0609,0.5895,-382.57,968.81,-186.40
2920,-3.8748,0.0223,0.6229,-195.07,-546.81,-1217.65
2930,-3.8749,-0.0260,0.6458,-1132.57,-265.62,126.16
2940,-3.8439,-0.0463,0.6368,679.93,-1328.19,-1311.28
2950,-3.8440,-0.0364,0.6057,-1913.82,1531.13,-123.78
2960,-3.8440,-0.0167,0.5823,-648.19,1546.75,-811.34
2970,-3.8440,0.0056,0.5881,1867.43,-1453.19,-280.15
2980,-3.8439,0.0347,0.6149,726.81,-718.75,1251.10
2990,-3.8750,0.0735,0.6368,445.56,-1296.81,344.91
3000,-3.8749,0.1179,0.6423,1414.31,1515.75,891.85
3010,-3.8748,0.1565,0.6395,-898.19,-1781.07,1751.22
3020,-3.8746,0.1770,0.6467,39.31,1859.68,-1983.15
3030,-3.8745,0.1724,0.6746,-1335.69,-1218.44,1235.60
3040,-3.8745,0.1492,0.7196,-1929.44,-1655.94,-858.09
3050,-3.8744,0.1257,0.7716,-898.19,109.62,610.78
3060,-3.8744,0.1161,0.8188,101.81,-1234.13,-779.79
3070,-3.8743,0.1270,0.8523,-1132.57,812.68,-998.41
3080,-3.8741,0.1655,0.8660,258.06,1093.99,-1107.73
3090,-3.8740,0.2299,0.8621,1195.56,-1155.94,-857.73
3100,-3.8738,0.3031,0.8629,1429.93,-1655.82,48.52
3110,-3.8737,0.3700,0.8835,-1195.07,-1546.33,1126.65
3120,-3.8735,0.4261,0.9154,-632.57,1094.42,-1217.04
3130,-3.8733,0.4618,0.9550,-1445.07,1172.67,408.02
3140,-3.8732,0.4678,0.9990,-882.57,-1764.77,267.46
3150,-3.8732,0.4551,1.0365,-116.94,-124.15,1611.27
3160,-3.8732,0.4403,1.0562,-1741.94,672.73,845.76
3170,-3.8733,0.4358,1.0524,367.43,-811.65,-357.36
3180,-3.8733,0.4445,1.0410,-210.69,-1296.08,-591.74
3190,-3.8732,0.4636,1.0352,898.68,1250.85,783.26
3200,-3.8730,0.4910,1.0323,-648.19,500.85,220.76
3210,-3.8729,0.5161,1.0381,-1148.19,141.54,705.14
3220,-3.8728,0.5217,1.0619,-1929.44,875.98,2.01
3230,-3.8728,0.4963,1.0973,-1210.69,-77.15,752.01
3240,-3.8729,0.4432,1.1283,-460.69,454.04,-404.11
3250,-3.8729,0.3827,1.1405,742.43,422.73,-1232.18
3260,-3.8728,0.3444,1.1233,992.43,1985.11,127.20
3270,-3.8727,0.3506,1.0746,86.18,-218.08,1674.01
3280,-3.8723,0.3898,1.0187,883.06,1547.55,580.20
3290,-3.8719,0.4198,0.9908,1898.68,-1608.64,1439.45
3300,-3.8717,0.4121,0.9921,1742.43,-1171.08,-1310.61
3310,-3.8716,0.3726,0.9958,758.06,-1014.83,1533.14
3320,-3.8717,0.3212,0.9906,-304.44,-530.58,-841.86
3330,-3.8718,0.2733,0.9863,1117.43,-1202.51,-1248.11
3340,-3.8719,0.2389,0.9949,-1007.57,-1749.51,-1013.73
3350,-3.8719,0.2155,1.0129,-1413.82,-655.82,1017.52
3360,-3.8719,0.1936,1.0267,-413.82,1656.62,439.45
3370,-3.8719,0.1680,1.0295,789.31,-577.76,939.45
3380,-3.8719,0.1348,1.0236,1508.06,-218.44,-1560.55
3390,-3.8718,0.0936,1.0131,1258.06,-984.13,564.45
3400,-3.8718,0.0499,0.9976,-7.57,1672.00,-1544.92
3410,-3.8717,0.0105,0.9751,-1601.32,-312.44,205.02
3420,-3.8717,-0.0253,0.9524,1351.81,812.50,-1123.11
3430,-3.8716,-0.0637,0.9368,773.68,1921.81,-1123.17
3440,-3.8715,-0.1069,0.9270,-148.19,-78.31,-295.10
3450,-3.8712,-0.1558,0.9298,-1679.44,-1328.37,579.90
3460,-3.8712,-0.2137,0.9547,70.56,-969.06,-482.60
3470,-3.8712,-0.2787,1.0001,648.68,-1781.68,-1435.67
3480,-3.8713,-0.3445,1.0553,336.18,30.70,1876.95
3490,-3.8716,-0.4030,1.1042,-85.69,-906.98,-154.24
3500,-3.8717,-0.4514,1.1426,429.93,1358.58,-1388.49
3510,-3.8718,-0.4801,1.1705,-1773.19,-1735.29,-1435.30
3520,-3.8718,-0.4669,1.1737,-1445.07,1842.77,142.88
3530,-3.8718,-0.4044,1.1322,242.43,-1750.92,658.51
3540,-3.8717,-0.3151,1.0605,242.43,936.71,1830.32
3550,-3.8715,-0.2432,1.0038,-320.07,-235.05,-810.49
3560,-3.8711,-0.2206,0.9869,883.06,499.51,798.83
3570,-3.8710,-0.2531,1.0048,-226.32,-1656.74,-1716.86
3580,-3.8710,-0.3229,1.0327,-382.57,624.45,1923.83
3590,-3.8711,-0.3955,1.0461,-1320.07,202.45,1548.89
3600,-3.8712,-0.4476,1.0446,1383.06,1921.08,111.39
3610,-3.8715,-0.4760,1.0348,-1288.82,1717.83,-513.61
3620,-3.8716,-0.4855,1.0067,-913.82,467.77,-122.99
3630,-3.8716,-0.4871,0.9590,1867.43,874.02,486.33
3640,-3.8717,-0.4889,0.9021,1664.31,-1235.35,1220.58
3650,-3.8718,-0.4869,0.8394,1429.93,-516.60,-1060.79
3660,-3.8718,-0.4780,0.7776,1679.93,-547.85,1860.96
3670,-3.8718,-0.4719,0.7299,-1179.44,-454.10,688.96
3680,-3.8719,-0.4825,0.7003,-398.19,1436.52,1017.03
3690,-3.8722,-0.5143,0.6810,-1757.57,1655.27,-1920.53
3700,-3.8724,-0.5612,0.6593,-1820.07,-813.54,1110.66
3710,-3.8727,-0.6049,0.6284,179.93,405.15,1.28
3720,-3.8730,-0.6287,0.5953,-1413.82,451.90,-123.78
3730,-3.8732,-0.6300,0.5726,-460.69,217.47,657.41
3740,-3.8734,-0.6122,0.5609,-632.57,1311.22,-1952.03
3750,-3.8737,-0.5812,0.5482,1648.68,-188.72,-45.84
3760,-3.8738,-0.5452,0.5303,1617.43,-1813.66,-1483.34
3770,-3.8739,-0.5135,0.5133,-1773.19,-110.47,-1983.40
3780,-3.8740,-0.4949,0.5016,-1726.32,1717.71,-1577.15
3790,-3.8741,-0.4895,0.4948,664.31,217.77,-952.15
3800,-3.8743,-0.4904,0.4857,1351.81,-657.23,-749.08
3810,-3.8744,-0.4918,0.4659,1242.43,-1813.48,-858.46
3820,-3.8745,-0.4945,0.4379,1054.93,-344.73,-889.77
3830,-3.8746,-0.5001,0.4169,711.18,61.52,-1014.77
3840,-3.8748,-0.5050,0.4139,-7.57,1373.96,-1171.08
3850,-3.8749,-0.5043,0.4244,-632.57,998.96,-1077.33
3860,-3.8750,-0.4943,0.4363,-538.82,-1657.29,-686.71
3870,-3.8750,-0.4730,0.4430,742.43,-141.60,16.42
3880,-3.8439,-0.4427,0.4429,-538.82,717.77,1016.48
3890,-3.8440,-0.4089,0.4424,-663.82,702.21,-1561.65
3900,-3.8440,-0.3755,0.4493,-335.69,639.77,547.73
3910,-3.8441,-0.3424,0.4630,-54.44,1530.46,-749.15
3920,-3.8441,-0.3054,0.4803,179.93,-719.42,-1874.15
3930,-3.8441,-0.2604,0.4960,914.31,1499.39,1016.54
3940,-3.8441,-0.2072,0.5077,-1320.07,-500.55,235.29
3950,-3.8441,-0.1512,0.5212,1492.43,999.57,63.48
3960,-3.8441,-0.0994,0.5420,648.68,-1265.93,610.35
3970,-3.8441,-0.0553,0.5651,-710.69,1390.38,1563.54
3980,-3.8441,-0.0187,0.5814,929.93,343.63,-1733.28
3990,-3.8441,0.0162,0.5909,1617.43,-1562.56,-1233.28
4000,-3.8441,0.0555,0.5948,-1913.82,-359.38,-452.03
4010,-3.8440,0.0951,0.5977,-882.57,140.69,688.66
4020,-3.8440,0.1300,0.6060,179.93,500.18,1423.03
4030,-3.8440,0.1615,0.6100,648.68,1562.74,1594.91
4040,-3.8440,0.1896,0.6085,679.93,-1921.57,1782.41
4050,-3.8440,0.2120,0.6199,273.68,1890.99,1891.78
4060,-3.8440,0.2288,0.6476,-851.32,-655.88,-1530.09
4070,-3.8439,0.2443,0.6729,1289.31,-1108.95,235.60
4080,-3.8439,0.2604,0.6766,-726.32,-1874.57,-1186.22
4090,-3.8750,0.2776,0.6672,1336.18,-1390.14,1673.16
4100,-3.8749,0.2950,0.6693,-460.69,1406.74,938.78
4110,-3.8748,0.3112,0.6946,1773.68,1672.42,298.16
4120,-3.8748,0.3279,0.7355,-163.82,906.80,-1139.28
4130,-3.8746,0.3503,0.7731,1976.81,-1858.76,688.90
4140,-3.8746,0.3860,0.8014,851.81,-1046.20,-1686.04
4150,-3.8745,0.4324,0.8390,1414.31,-1421.14,251.53
4160,-3.8745,0.4800,0.8950,-648.19,-608.58,-1201.54
4170,-3.8744,0.5248,0.9498,1445.56,-1436.58,1486.08
4180,-3.8744,0.5630,0.9894,-820.07,1579.10,-654.42
4190,-3.8744,0.5898,1.0210,70.56,-1358.28,-123.11
4200,-3.8744,0.6069,1.0549,-491.94,-1311.40,-591.80
4210,-3.8744,0.6260,1.0914,1695.56,-967.59,-1544.86
4220,-3.8744,0.6587,1.1263,133.06,-295.65,1720.83
4230,-3.8744,0.7100,1.1565,320.56,173.16,1986.57
4240,-3.8744,0.7755,1.1802,-1116.94,32.59,-325.87
4250,-3.8743,0.8407,1.2029,-726.32,-936.04,-1403.99
4260,-3.8741,0.8932,1.2291,-382.57,1970.34,1892.94
4270,-3.8740,0.9230,1.2550,-1663.82,1329.83,33.63
4280,-3.8740,0.9296,1.2775,-1851.32,642.40,236.82
4290,-3.8741,0.9205,1.2947,-1007.57,-482.60,-981.93
4300,-3.8741,0.8909,1.3052,1836.18,1720.52,1611.88
4310,-3.8741,0.8458,1.3041,-1960.69,-935.79,1080.63
4320,-3.8741,0.8041,1.2848,273.68,-1076.48,1986.88
4330,-3.8740,0.7684,1.2523,-1070.07,454.65,299.38
4340,-3.8740,0.7279,1.2213,-1632.57,298.34,-731.93
4350,-3.8739,0.6837,1.1980,1179.93,329.53,-1872.62
4360,-3.8738,0.6445,1.1785,-476.32,1345.03,1111.69
4370,-3.8737,0.6075,1.1659,-1491.94,-1155.03,908.51
4380,-3.8735,0.5619,1.1649,1773.68,1235.53,892.88
4390,-3.8735,0.5006,1.1722,-70.07,1110.41,-278.99
4400,-3.8734,0.4269,1.1816,86.18,-1952.15,658.51
4410,-3.8734,0.3602,1.1779,-1351.32,-749.21,189.76
4420,-3.8734,0.3186,1.1605,-1882.57,-1233.70,971.01
4430,-3.8733,0.2916,1.1661,789.31,547.49,752.26
4440,-3.8732,0.2589,1.1981,1336.18,1266.17,-1794.62
4450,-3.8730,0.2113,1.2194,1148.68,1359.86,-138.31
4460,-3.8728,0.1410,1.2278,-945.07,78.49,908.63
4470,-3.8727,0.0480,1.2421,-1945.07,1156.49,1674.26
4480,-3.8726,-0.0544,1.2546,-1851.32,-1015.56,-763.24
4490,-3.8723,-0.1505,1.2595,1039.31,609.25,1346.19
4500,-3.8722,-0.2371,1.2676,742.43,1234.07,-1091.31
4510,-3.8721,-0.3158,1.2711,1664.31,-1734.86,-294.43
4520,-3.8719,-0.3862,1.2562,-413.82,-1281.92,-481.93
4530,-3.8718,-0.4595,1.2209,-1429.44,811.71,-1872.56
4540,-3.8718,-0.5386,1.1729,1195.56,295.96,-75.74
4550,-3.8717,-0.6094,1.1145,-929.44,-1860.47,689.76
4560,-3.8718,-0.6570,1.0421,-1991.94,-1329.35,-13.49
4570,-3.8718,-0.6774,0.9634,-85.69,1404.91,1689.51
4580,-3.8719,-0.6794,0.8887,1304.93,-673.22,1658.08
4590,-3.8722,-0.6742,0.8190,1039.31,1764.28,-263.92
4600,-3.8723,-0.6654,0.7469,1711.18,842.41,704.71
4610,-3.8726,-0.6488,0.6671,-1163.82,-376.34,1829.53
4620,-3.8728,-0.6232,0.5869,961.18,1404.97,-733.09
4630,-3.8729,-0.5957,0.5210,242.43,-860.60,376.10
4640,-3.8733,-0.5743,0.4730,-241.94,-1298.10,-217.77
4650,-3.8735,-0.5564,0.4351,-1507.57,561.34,735.29
4660,-3.8739,-0.5365,0.3995,789.31,-297.97,172.67
4670,-3.8743,-0.5118,0.3658,-663.82,-844.85,16.36
4680,-3.8746,-0.4835,0.3413,-1507.57,-1157.29,1531.92
4690,-3.8749,-0.4569,0.3317,-1882.57,-297.85,578.74
4700,-3.8439,-0.4308,0.3282,1523.68,-1532.17,766.24
4710,-3.8441,-0.3992,0.3198,867.43,-1969.60,1875.61
4720,-3.8444,-0.3583,0.3057,914.31,952.33,-61.89
4730,-3.8445,-0.3071,0.2878,-1851.32,-860.11,-186.95
4740,-3.8445,-0.2495,0.2798,695.56,858.76,1781.80
4750,-3.8445,-0.1948,0.2919,70.56,-172.36,969.24
4760,-3.8445,-0.1483,0.3086,-929.44,1374.57,1078.67
4770,-3.8445,-0.1068,0.3174,1023.68,-484.68,-1952.58
4780,-3.8445,-0.0701,0.3221,-1663.82,640.38,-1015.01
4790,-3.8445,-0.0358,0.3306,-960.69,1249.82,-1015.01
4800,-3.8445,0.0034,0.3469,-570.07,-1672.00,-1608.76
4810,-3.8445,0.0481,0.3706,445.56,406.25,-1827.45
4820,-3.8445,0.0956,0.4012,-1835.69,-562.44,-1296.20
4830,-3.8445,0.1444,0.4360,242.43,-640.44,-530.52
4840,-3.8445,0.1917,0.4661,-1507.57,-187.26,-421.08
4850,-3.8445,0.2328,0.4860,539.31,-343.38,-1264.77
4860,-3.8445,0.2693,0.4963,1804.93,-1796.45,1782.17
4870,-3.8445,0.3029,0.5033,-1523.19,-468.26,-1405.33
4880,-3.8444,0.3242,0.5306,-1226.32,422.42,1875.98
4890,-3.8442,0.3228,0.5875,1508.06,-77.51,-1983.40
4900,-3.8441,0.3027,0.6418,1320.56,-796.26,1469.85
4910,-3.8440,0.2794,0.6644,-1241.94,-1843.20,423.10
4920,-3.8440,0.2570,0.6725,-226.32,1047.36,-904.97
4930,-3.8439,0.2439,0.7025,898.68,-1921.39,1595.03
4940,-3.8750,0.2550,0.7578,-773.19,1922.30,1579.47
4950,-3.8749,0.2830,0.8280,648.68,1000.49,-311.04
4960,-3.8746,0.3134,0.8988,226.81,1984.92,-1576.54
4970,-3.8744,0.3678,0.9388,117.43,-952.51,1017.33
4980,-3.8741,0.4779,0.9417,-913.82,172.55,1095.58
4990,-3.8739,0.6233,0.9553,1179.93,532.17,-388.79
5000,-3.8735,0.7505,1.0170,-210.69,-1717.59,-1373.17
5010,-3.8732,0.8373,1.1014,70.56,-1826.66,236.33
5020,-3.8729,0.8912,1.1775,-820.07,985.96,252.14
5030,-3.8728,0.9156,1.2441,-1913.82,-1279.54,-1372.74
5040,-3.8727,0.9220,1.3021,1211.18,-748.23,-481.99
5050,-3.8726,0.9232,1.3490,-1976.32,-1326.35,-231.87
5060,-3.8724,0.9065,1.3879,-1820.07,673.65,-216.13
5070,-3.8723,0.8644,1.4121,39.31,1658.02,-637.94
5080,-3.8722,0.8134,1.4083,-1351.32,751.65,-12.88
5090,-3.8719,0.7611,1.3912,117.43,267.21,-622.25
5100,-3.8717,0.7114,1.3848,1429.93,-1920.41,-356.69
5110,-3.8715,0.6815,1.3857,-929.44,1251.34,-1887.94
5120,-3.8713,0.6736,1.3887,-757.57,1376.28,-1903.56
5130,-3.8712,0.6672,1.3938,-1773.19,1751.28,80.81
5140,-3.8712,0.6512,1.3855,1414.31,-1592.47,-1966.06
5150,-3.8711,0.6147,1.3582,-632.57,1344.97,-1403.56
5160,-3.8708,0.5435,1.3276,-1304.44,1844.91,1627.62
5170,-3.8706,0.4418,1.3033,1570.56,1938.54,440.06
5180,-3.8705,0.3251,1.2769,554.93,-1171.02,1236.88
5190,-3.8704,0.2017,1.2446,1617.43,-561.89,33.69
5200,-3.8704,0.0728,1.2102,1820.56,-687.13,-1966.37
5210,-3.8702,-0.0563,1.1710,1320.56,-1093.63,1471.07
5220,-3.8701,-0.1759,1.1324,804.93,1906.13,-935.24
5230,-3.8699,-0.2780,1.1047,1492.43,968.38,408.45
5240,-3.8699,-0.3529,1.0892,429.93,1421.33,-1310.36
5250,-3.8699,-0.3948,1.0852,-1163.82,-563.23,595.83
5260,-3.8701,-0.4082,1.0809,1476.81,-1078.92,-263.55
5270,-3.8702,-0.4004,1.0551,-241.94,-1625.85,-294.80
5280,-3.8702,-0.3878,1.0110,758.06,-938.29,1908.26
5290,-3.8702,-0.3866,0.9767,-1632.57,1421.08,1376.95
5300,-3.8702,-0.3983,0.9597,-1476.32,1030.46,392.52
5310,-3.8704,-0.4169,0.9329,1023.68,-1141.42,1236.21
5320,-3.8705,-0.4353,0.8724,-1351.32,-578.98,189.27
5330,-3.8707,-0.4563,0.7874,289.31,-313.35,-1029.60
5340,-3.8708,-0.4897,0.7097,1601.81,795.96,-1639.10
5350,-3.8710,-0.5369,0.6584,1320.56,-1141.60,985.72
5360,-3.8712,-0.5868,0.6271,-710.69,295.78,438.78
5370,-3.8716,-0.6335,0.6058,898.68,280.09,344.97
5380,-3.8721,-0.6710,0.5911,-1085.69,1561.22,-1342.59
5390,-3.8724,-0.6871,0.5677,-1882.57,-329.47,1829.22
5400,-3.8728,-0.6711,0.5226,54.93,686.16,-1061.40
5410,-3.8730,-0.6293,0.4620,-1898.19,-1095.09,-1827.15
5420,-3.8733,-0.5840,0.4078,-538.82,-845.03,-358.52
5430,-3.8734,-0.5540,0.3756,1258.06,217.59,-1827.33
5440,-3.8737,-0.5417,0.3595,1101.81,92.65,-233.64
5450,-3.8739,-0.5427,0.3521,-1335.69,-1969.85,-155.58
5460,-3.8741,-0.5560,0.3507,-1460.69,1077.03,-921.20
5470,-3.8744,-0.5732,0.3514,836.18,905.15,-1905.58
5480,-3.8746,-0.5789,0.3516,-1366.94,998.84,1469.42
5490,-3.8749,-0.5645,0.3441,1914.31,1014.47,1610.05
5500,-3.8439,-0.5294,0.3309,-241.94,61.34,-1139.95
5510,-3.8440,-0.4802,0.3207,242.43,-1626.04,1281.86
5520,-3.8441,-0.4244,0.3159,-1460.69,1061.52,484.99
5530,-3.8442,-0.3639,0.3168,1679.93,452.27,891.24
5540,-3.8444,-0.3016,0.3239,1429.93,561.77,-1124.39
5550,-3.8444,-0.2433,0.3370,1398.68,1468.14,1344.36
5560,-3.8445,-0.1902,0.3552,867.43,-844.24,-780.64
5570,-3.8445,-0.1410,0.3739,-335.69,1483.95,656.92
5580,-3.8446,-0.0962,0.3845,1961.18,-125.31,-1702.45
5590,-3.8446,-0.0555,0.3861,-304.44,1234.13,328.86
5600,-3.8447,-0.0168,0.3800,898.68,1437.38,-796.14
5610,-3.8447,0.0197,0.3702,1851.81,656.19,-468.02
5620,-3.8446,0.0527,0.3658,-1476.32,-609.38,1297.55
5630,-3.8445,0.0894,0.3708,-1241.94,-1171.81,469.42
5640,-3.8444,0.1351,0.3824,-554.44,-531.13,1469.42
5650,-3.8442,0.1815,0.4026,1304.93,953.37,-561.77
5660,-3.8441,0.2180,0.4321,-757.57,-468.44,-30.52
5670,-3.8440,0.2445,0.4619,-85.69,-687.13,1672.67
5680,-3.8440,0.2659,0.4817,-695.07,-874.57,985.23
5690,-3.8441,0.2788,0.4973,-1960.69,1656.74,-1186.58
5700,-3.8441,0.2843,0.5265,-304.44,-343.26,407.17
5710,-3.8442,0.2882,0.5708,398.68,-608.83,-530.27
5720,-3.8441,0.2930,0.6143,898.68,1063.05,563.60
5730,-3.8441,0.3037,0.6460,1508.06,-1374.45,-1295.72
5740,-3.8440,0.3245,0.6641,-1116.94,-1311.95,1407.47
5750,-3.8439,0.3519,0.6836,1539.31,1000.61,938.78
5760,-3.8750,0.3763,0.7300,1054.93,-499.33,1407.53
5770,-3.8749,0.3870,0.8055,179.93,1438.23,-1357.97
5780,-3.8746,0.3835,0.8760,1539.31,-889.89,48.40
5790,-3.8745,0.3783,0.9097,1101.81,125.73,1814.21
5800,-3.8744,0.3801,0.9191,429.93,438.23,-248.23
5810,-3.8741,0.3983,0.9232,664.31,1641.36,939.27
5820,-3.8740,0.4463,0.9362,-1007.57,-1827.39,-1560.73
5830,-3.8738,0.4979,0.9956,1133.06,-171.02,814.27
5840,-3.8737,0.5168,1.1017,-257.57,-561.58,-1794.98
5850,-3.8735,0.5106,1.1985,-1835.69,1016.60,1752.14
5860,-3.8734,0.4922,1.2612,1367.43,1407.23,252.32
5870,-3.8734,0.4679,1.2980,-991.94,1438.42,-1622.56
5880,-3.8733,0.4680,1.3042,-101.32,-1858.52,236.88
5890,-3.8733,0.5129,1.2876,-85.69,-1061.65,-1466.25
5900,-3.8732,0.5782,1.2819,1664.31,813.48,1783.75
5910,-3.8730,0.6287,1.3041,-1976.32,79.22,1033.75
5920,-3.8730,0.6478,1.3491,476.81,-1076.90,-185.00
5930,-3.8729,0.6393,1.4041,-1070.07,688.72,-1528.63
5940,-3.8728,0.6223,1.4373,1836.18,-280.03,1440.19
5950,-3.8727,0.6113,1.4303,-335.69,-30.09,815.25
5960,-3.8726,0.5989,1.4045,-1741.94,-920.72,455.87
5970,-3.8726,0.5757,1.3883,664.31,-217.59,-341.06
5980,-3.8724,0.5441,1.3931,1695.56,1704.22,-1934.81
5990,-3.8723,0.5004,1.4213,1648.68,-1686.46,1143.31
6000,-3.8722,0.4409,1.4578,54.93,1922.85,1830.87
6010,-3.8721,0.3771,1.4731,445.56,-1405.40,-419.07
6020,-3.8718,0.3167,1.4691,273.68,563.23,-1887.76
6030,-3.8716,0.2556,1.4684,539.31,47.49,1018.49
6040,-3.8715,0.1938,1.4708,726.81,-46.39,-653.44
6050,-3.8712,0.1296,1.4714,820.56,265.99,518.49
6060,-3.8711,0.0521,1.4669,601.81,343.99,1112.24
6070,-3.8710,-0.0439,1.4508,-1320.07,-234.31,1596.56
6080,-3.8708,-0.1499,1.4180,-1616.94,1718.63,-1919.07
6090,-3.8707,-0.2556,1.3678,820.56,1515.32,-1169.13
6100,-3.8706,-0.3638,1.3075,-710.69,-906.80,-903.63
6110,-3.8705,-0.4799,1.2439,1445.56,-625.73,1658.75
6120,-3.8705,-0.5973,1.1774,-1413.82,-766.60,1830.51
6130,-3.8705,-0.6940,1.0984,-445.07,-1282.47,49.13
6140,-3.8706,-0.7629,1.0050,-820.07,607.97,1455.26
6150,-3.8707,-0.8177,0.9164,-1648.19,654.72,1861.33
6160,-3.8708,-0.8698,0.8445,-663.82,1310.85,111.15
6170,-3.8712,-0.9170,0.7826,679.93,107.67,-420.23
6180,-3.8715,-0.9504,0.7281,-1366.94,185.67,501.53
6190,-3.8719,-0.9680,0.6892,-1648.19,1216.86,-232.97
6200,-3.8723,-0.9701,0.6686,101.81,232.48,-1498.66
6210,-3.8727,-0.9581,0.6473,-163.82,1591.80,1720.03
6220,-3.8730,-0.9258,0.5958,1367.43,-1126.89,-780.03
6230,-3.8732,-0.8739,0.5094,1508.06,279.42,1298.03
6240,-3.8733,-0.8210,0.4249,148.68,1217.04,-702.15
6250,-3.8733,-0.7828,0.3793,-1085.69,-1595.40,-1655.46
6260,-3.8734,-0.7592,0.3757,-195.07,560.91,-124.27
6270,-3.8735,-0.7432,0.3958,-1163.82,107.85,-1952.39
6280,-3.8738,-0.7322,0.4133,883.06,-1329.59,625.73
6290,-3.8741,-0.7264,0.4158,-1710.69,920.41,1500.79
6300,-3.8745,-0.7258,0.4017,-976.32,1232.91,-139.83
6310,-3.8746,-0.7162,0.3820,-898.19,-563.96,1672.61
6320,-3.8748,-0.6846,0.3754,336.18,904.85,-1702.39
6330,-3.8748,-0.6332,0.3766,383.06,61.16,453.86
6340,-3.8748,-0.5625,0.3645,-1038.82,217.47,406.98
6350,-3.8748,-0.4849,0.3347,8.06,-1329.22,-1952.45
6360,-3.8748,-0.4169,0.3027,1945.56,-1141.60,-358.76
6370,-3.8746,-0.3621,0.2860,-1351.32,-1235.23,234.92
6380,-3.8748,-0.3212,0.2924,1664.31,624.27,-265.08
6390,-3.8748,-0.2914,0.3206,-1101.32,1436.83,1297.42
6400,-3.8749,-0.2629,0.3568,-1288.82,1046.26,656.86
6410,-3.8439,-0.2250,0.3821,-1648.19,1686.95,-889.95
6420,-3.8440,-0.1675,0.3951,-788.82,921.39,-1093.02
6430,-3.8440,-0.0959,0.4036,-1429.44,-1406.62,1235.11
6440,-3.8440,-0.0236,0.4052,-273.19,-328.37,1219.48
6450,-3.8440,0.0410,0.4026,992.43,-125.06,1922.61
6460,-3.8440,0.0914,0.4022,1258.06,-468.69,-1046.14
6470,-3.8439,0.1294,0.4015,-288.82,-515.50,0.73
6480,-3.8439,0.1603,0.4003,570.56,-609.13,797.61
6490,-3.8439,0.1859,0.4001,523.68,-765.32,1000.73
6500,-3.8439,0.2091,0.4032,-195.07,-780.94,985.11
6510,-3.8439,0.2325,0.4191,-1226.32,-390.26,1531.98
6520,-3.8439,0.2489,0.4468,1773.68,1641.05,1891.42
6530,-3.8439,0.2606,0.4730,-132.57,1187.93,1078.98
6540,-3.8440,0.2771,0.4976,1367.43,547.36,-295.96
6550,-3.8440,0.3014,0.5183,-523.19,-312.01,-936.58
6560,-3.8440,0.3302,0.5386,-1413.82,-1655.70,-139.65
6570,-3.8439,0.3490,0.5886,-1726.32,938.11,1407.29
6580,-3.8439,0.3508,0.6715,679.93,-655.58,-795.78
6590,-3.8750,0.3433,0.7430,914.31,1953.80,1313.78
6600,-3.8750,0.3408,0.7764,-54.44,-890.01,-951.72
6610,-3.8749,0.3524,0.7844,-366.94,-624.39,1220.21
6620,-3.8748,0.3849,0.7885,1117.43,406.92,1892.15
6630,-3.8745,0.4384,0.7975,1273.68,922.61,1267.15
6640,-3.8743,0.4948,0.8213,117.43,-1921.02,-1701.60
6650,-3.8740,0.5190,0.8760,-663.82,1125.92,-685.91
6660,-3.8738,0.4924,0.9528,-1554.44,125.98,1032.96
6670,-3.8738,0.4431,1.0156,-960.69,1954.04,1861.21
6680,-3.8738,0.4092,1.0466,726.81,-1999.15,64.45
6690,-3.8739,0.4089,1.0573,383.06,1969.54,-1060.49
6700,-3.8738,0.4441,1.0643,351.81,-671.08,627.01
6710,-3.8737,0.4966,1.0780,851.81,235.23,736.45
6720,-3.8735,0.5442,1.0967,-429.44,1985.29,1595.83
6730,-3.8734,0.5710,1.1145,1664.31,376.04,-1607.24
6740,-3.8733,0.5688,1.1404,1101.81,-1342.65,-1341.61
6750,-3.8732,0.5453,1.1857,820.56,1969.85,1252.20
6760,-3.8732,0.5095,1.2427,1804.93,-233.34,1064.76
6770,-3.8733,0.4724,1.2972,1226.81,-936.52,-669.49
6780,-3.8733,0.4567,1.3285,476.81,-1952.21,-403.75
6790,-3.8730,0.4718,1.3429,-1538.82,-1952.27,768.19
6800,-3.8728,0.5043,1.3607,398.68,-108.46,1674.44
6810,-3.8726,0.5381,1.3727,554.93,-1827.15,-1606.75
6820,-3.8724,0.5602,1.3810,883.06,-295.84,-466.13
6830,-3.8723,0.5649,1.4073,-288.82,766.66,65.19
6840,-3.8724,0.5659,1.4446,320.56,141.72,1440.25
6850,-3.8726,0.5767,1.4697,445.56,907.35,-1372.19
6860,-3.8726,0.5862,1.4907,1820.56,126.10,1565.37
6870,-3.8726,0.5730,1.5199,-960.69,-1186.40,1237.24
6880,-3.8726,0.5319,1.5455,1351.81,-1452.03,643.55
6890,-3.8726,0.4675,1.5443,86.18,1829.16,518.62
6900,-3.8726,0.3788,1.5045,-148.19,1672.73,1909.24
6910,-3.8724,0.2610,1.4210,492.43,578.86,-1872.07
6920,-3.8722,0.1122,1.3124,1414.31,1891.11,1424.62
6930,-3.8719,-0.0579,1.2203,-1632.57,-15.44,1768.13
6940,-3.8717,-0.2284,1.1553,601.81,218.63,1611.76
6950,-3.8715,-0.3876,1.1019,-1226.32,-109.86,267.82
6960,-3.8713,-0.5392,1.0549,-1601.32,1061.71,564.64
6970,-3.8713,-0.6930,1.0179,-1007.57,-954.22,-1982.36
6980,-3.8713,-0.8424,0.9847,-695.07,-1688.90,1486.33
6990,-3.8715,-0.9761,0.9465,179.93,-1939.15,-498.11
7000,-3.8715,-1.0813,0.9005,-929.44,1169.92,329.96
7010,-3.8716,-1.1326,0.8407,1601.81,-720.89,-1779.54
7020,-3.8716,-1.1240,0.7764,-960.69,-377.26,-920.29
7030,-3.8715,-1.0815,0.7426,133.06,-611.57,251.46
7040,-3.8716,-1.0420,0.7528,1570.56,-939.64,1517.03
7050,-3.8718,-1.0186,0.7869,-1366.94,372.92,1438.96
7060,-3.8722,-1.0074,0.8326,1633.06,732.36,1392.15
7070,-3.8727,-0.9974,0.8767,-945.07,-1408.26,-467.16
7080,-3.8730,-0.9645,0.8827,336.18,232.42,-435.79
7090,-3.8732,-0.9033,0.8380,554.93,998.11,1736.08
7100,-3.8732,-0.8363,0.7769,383.06,-720.52,-1951.54
7110,-3.8730,-0.7802,0.7306,961.18,-548.52,1485.84
7120,-3.8729,-0.7231,0.7008,148.68,1529.72,1673.28
7130,-3.8728,-0.6627,0.6848,-554.44,1717.29,813.84
7140,-3.8728,-0.6173,0.6915,-820.07,-329.47,501.28
7150,-3.8730,-0.5890,0.7103,992.43,530.03,-45.53
7160,-3.8733,-0.5717,0.7219,617.43,-1063.66,-29.91
7170,-3.8735,-0.5693,0.7281,-1163.82,420.72,1876.40
7180,-3.8738,-0.5732,0.7244,-866.94,1217.59,79.53
7190,-3.8740,-0.5642,0.7029,-1366.94,733.22,923.28
7200,-3.8741,-0.5394,0.6527,-210.69,1983.22,1032.59
7210,-3.8741,-0.4962,0.5436,-1038.82,-438.60,1407.47
7220,-3.8740,-0.4421,0.4119,492.43,1592.77,-311.46
7230,-3.8738,-0.4030,0.3435,-585.69,733.46,-14.83
7240,-3.8735,-0.3840,0.3533,429.93,-16.42,1703.74
7250,-3.8735,-0.3685,0.3931,-1148.19,1233.58,-1389.95
7260,-3.8737,-0.3448,0.4253,836.18,-1672.61,906.98
7270,-3.8740,-0.3162,0.4480,-132.57,-1547.61,-1608.58
7280,-3.8744,-0.2874,0.4659,-460.69,1358.70,-1092.90
7290,-3.8746,-0.2517,0.4768,-773.19,-344.36,953.98
7300,-3.8749,-0.1938,0.4735,-210.69,1046.33,1157.17
7310,-3.8750,-0.1085,0.4575,-804.44,624.57,47.79
7320,-3.8439,-0.0120,0.4344,-1882.57,-1422.12,1844.60
7330,-3.8439,0.0828,0.3920,-1523.19,-375.06,-1514.83
7340,-3.8750,0.1686,0.3326,-1398.19,-1828.00,-1749.27
7350,-3.8749,0.2267,0.3055,1586.18,-1421.57,-280.64
7360,-3.8748,0.2439,0.3287,1023.68,-890.20,-46.33
7370,-3.8746,0.2357,0.3628,-773.19,-1921.45,1234.99
7380,-3.8748,0.2209,0.3881,-1820.07,-1562.07,-608.70
7390,-3.8749,0.2103,0.4124,289.31,1672.30,-780.52
7400,-3.8750,0.2162,0.4316,-1070.07,781.62,-1436.71
7410,-3.8439,0.2368,0.4495,-320.07,-749.63,-1186.71
7420,-3.8440,0.2614,0.4751,-1679.44,1531.68,-514.77
7430,-3.8441,0.2881,0.4965,1461.18,812.99,-311.58
7440,-3.8441,0.3241,0.5096,883.06,-452.58,407.17
7450,-3.8442,0.3712,0.5211,1492.43,1234.99,-780.27
7460,-3.8441,0.4210,0.5320,-476.32,-1296.20,469.73
7470,-3.8441,0.4623,0.5469,1898.68,94.54,-436.46
7480,-3.8440,0.4824,0.5627,-820.07,-1999.15,-295.84
7490,-3.8750,0.4752,0.5726,1758.06,32.17,141.72
7500,-3.8749,0.4524,0.5781,836.18,1297.79,938.60
7510,-3.8748,0.4296,0.5920,1914.31,-1999.15,-1811.40
7520,-3.8746,0.4166,0.6199,-1007.57,-217.96,-436.40
7530,-3.8744,0.4166,0.6522,1336.18,-655.46,1251.16
7540,-3.8743,0.4325,0.6765,1336.18,-514.83,-1639.40
7550,-3.8741,0.4775,0.6831,-632.57,-1405.46,-920.59
7560,-3.8739,0.5452,0.6978,1133.06,-561.58,954.41
7570,-3.8738,0.5928,0.7639,1789.31,1313.54,-1170.53
7580,-3.8737,0.5996,0.8630,-116.94,1782.35,-1373.54
7590,-3.8735,0.5927,0.9371,758.06,-1530.09,126.65
7600,-3.8735,0.5936,0.9763,-132.57,-45.78,95.52
7610,-3.8735,0.6141,0.9971,-7.57,969.85,564.39
7620,-3.8734,0.6776,0.9958,-1382.57,-373.84,1017.52
7630,-3.8732,0.7747,1.0043,-1257.57,-529.97,-1029.36
7640,-3.8727,0.8484,1.0634,-835.69,548.34,408.20
7650,-3.8723,0.8600,1.1528,601.81,111.02,1548.95
7660,-3.8721,0.8179,1.2224,-1913.82,-435.85,1955.32
7670,-3.8721,0.7524,1.2471,695.56,470.34,-13.24
7680,-3.8721,0.6902,1.2540,320.56,-373.54,1814.88
7690,-3.8722,0.6519,1.2638,351.81,516.97,-1013.18
7700,-3.8722,0.6493,1.2670,-554.44,1766.85,1283.69
7710,-3.8722,0.6782,1.2654,-882.57,-1826.90,924.32
7720,-3.8722,0.7157,1.2709,-1179.44,1970.03,-1122.56
7730,-3.8721,0.7212,1.2899,-382.57,-1326.78,-1122.56
7740,-3.8719,0.6791,1.3204,320.56,1110.78,-1825.62
7750,-3.8719,0.6085,1.3544,-1070.07,1016.91,-1544.31
7760,-3.8719,0.5287,1.3827,1898.68,1360.53,737.00
7770,-3.8721,0.4530,1.3885,-320.07,985.35,-684.81
7780,-3.8719,0.3932,1.3560,1992.43,1735.23,877.69
7790,-3.8718,0.3402,1.3087,-1663.82,1563.23,-1606.75
7800,-3.8716,0.2781,1.2762,-445.07,-483.76,1440.00
7810,-3.8715,0.2108,1.2557,-398.19,-640.14,-1138.18
7820,-3.8713,0.1448,1.2336,-1007.57,734.74,1486.82
7830,-3.8713,0.0800,1.2087,-1460.69,1906.49,-1138.24
7840,-3.8712,0.0144,1.1891,-1757.57,-1281.13,892.94
7850,-3.8712,-0.0604,1.1731,1851.81,203.12,-44.56
7860,-3.8711,-0.1493,1.1533,273.68,-1828.25,-419.62
7870,-3.8710,-0.2423,1.1256,898.68,-359.68,-919.68
7880,-3.8708,-0.3226,1.0886,992.43,93.26,-1919.68
7890,-3.8707,-0.3818,1.0431,-1288.82,-641.30,345.83
7900,-3.8707,-0.4277,1.0026,-866.94,1530.46,1345.76
7910,-3.8707,-0.4725,0.9744,1258.06,342.90,1173.83
7920,-3.8707,-0.5183,0.9491,-476.32,733.40,111.27
7930,-3.8708,-0.5596,0.9250,1664.31,1498.96,1767.46
7940,-3.8710,-0.5851,0.9060,383.06,-1579.22,-1998.23
7950,-3.8711,-0.5856,0.8990,1117.43,-16.78,532.96
7960,-3.8713,-0.5685,0.9084,1054.93,-907.41,767.33
7970,-3.8717,-0.5513,0.9186,-757.57,295.72,-779.48
7980,-3.8719,-0.5502,0.9158,1445.56,1592.65,1017.40
7990,-3.8723,-0.5685,0.8988,1586.18,1233.28,-935.73
8000,-3.8726,-0.5857,0.8549,-757.57,-938.66,-1045.17
8010,-3.8727,-0.5845,0.7870,1039.31,1436.34,-1842.10
8020,-3.8727,-0.5750,0.7209,1195.56,748.84,439.03
8030,-3.8727,-0.5657,0.6702,-1585.69,295.72,392.03
8040,-3.8728,-0.5570,0.6426,-398.19,1795.72,-123.72
8050,-3.8728,-0.5552,0.6388,711.18,-1735.47,954.35
8060,-3.8729,-0.5614,0.6328,945.56,1780.15,298.10
8070,-3.8730,-0.5752,0.6075,148.68,1014.53,454.35
8080,-3.8732,-0.6005,0.5906,-1616.94,1780.09,1204.28
8090,-3.8733,-0.6254,0.5956,-851.32,-391.85,594.85
8100,-3.8735,-0.6273,0.6031,-38.82,248.72,-1639.47
8110,-3.8738,-0.6075,0.6093,-288.82,1217.47,-1217.59
8120,-3.8740,-0.5791,0.6116,-1757.57,1998.78,-1342.59
8130,-3.8743,-0.5447,0.5892,1883.06,-1704.28,-139.47
8140,-3.8743,-0.5023,0.5419,-1710.69,-563.60,204.22
8150,-3.8744,-0.4594,0.4951,-288.82,1373.96,-545.84
8160,-3.8744,-0.4285,0.4663,1211.18,-610.29,-327.21
8170,-3.8744,-0.4102,0.4581,1164.31,-297.73,-952.27
8180,-3.8744,-0.3978,0.4644,-491.94,-1344.60,532.10
8190,-3.8746,-0.3889,0.4766,1086.18,-547.67,-171.02
8200,-3.8748,-0.3796,0.4850,-1773.19,1014.83,1704.04
8210,-3.8750,-0.3663,0.4890,-585.69,-1907.04,-311.58
8220,-3.8439,-0.3433,0.4895,1117.43,-1391.36,-1405.33
8230,-3.8440,-0.2974,0.4666,70.56,-1328.80,-327.21
8240,-3.8439,-0.2220,0.4149,1945.56,-266.24,235.23
8250,-3.8439,-0.1306,0.3669,-413.82,1124.51,-233.58
8260,-3.8749,-0.0464,0.3461,-710.69,-1015.93,969.42
8270,-3.8748,0.0151,0.3472,-1929.44,312.38,1563.17
8280,-3.8748,0.0479,0.3606,1945.56,437.50,-1389.95
8290,-3.8749,0.0527,0.3788,-1866.94,-1843.69,-577.45
8300,-3.8750,0.0438,0.3949,-1241.94,484.44,1781.98
8310,-3.8440,0.0393,0.4050,1617.43,-1453.06,-358.64
8320,-3.8441,0.0515,0.4028,1039.31,-156.19,1906.98
8330,-3.8442,0.0840,0.3748,-1398.19,-437.44,1469.48
8340,-3.8444,0.1260,0.3251,-1241.94,-31.13,-686.83
8350,-3.8442,0.1678,0.2797,133.06,1609.62,156.86
8360,-3.8441,0.2045,0.2607,1492.43,-202.82,94.24
8370,-3.8440,0.2228,0.2799,-1820.07,1375.37,891.11
8380,-3.8440,0.2223,0.3337,523.68,-171.45,-202.64
8390,-3.8439,0.2141,0.3967,461.18,-1280.82,63.11
8400,-3.8440,0.2191,0.4301,-585.69,-1218.38,-1608.64
8410,-3.8440,0.2546,0.4254,54.93,-952.70,1578.92
8420,-3.8440,0.3120,0.4244,601.81,-1546.39,-30.46
8430,-3.8750,0.3765,0.4592,-54.44,-1671.33,1719.54
8440,-3.8748,0.4385,0.5193,195.56,-1218.02,1657.10
8450,-3.8745,0.4868,0.5929,133.06,-1530.40,1313.48
8460,-3.8744,0.5234,0.6591,-1679.44,-108.46,-217.65
8470,-3.8741,0.5695,0.6927,-991.94,360.35,-1233.09
8480,-3.8739,0.6248,0.7286,898.68,672.97,-936.16
8490,-3.8737,0.6593,0.8136,-23.19,1266.78,-1107.97
8500,-3.8734,0.6639,0.9156,398.68,141.91,439.09
8510,-3.8733,0.6635,0.9819,992.43,1204.41,720.52
8520,-3.8732,0.6759,1.0227,929.93,1688.78,1720.64
8530,-3.8729,0.7141,1.0519,-1476.32,-1092.47,970.70
8540,-3.8727,0.7820,1.0726,-585.69,-1358.03,-29.24
8550,-3.8722,0.8514,1.1132,101.81,1298.40,1189.58
8560,-3.8718,0.8910,1.1753,992.43,-1513.98,345.89
8570,-3.8717,0.8942,1.2351,-1945.07,-1560.79,-528.99
8580,-3.8716,0.8655,1.2802,-1538.82,-1904.54,-1153.87
8590,-3.8716,0.8214,1.3097,-1210.69,-138.98,-1060.06
8600,-3.8716,0.7937,1.3336,1148.68,-357.79,471.25
8610,-3.8717,0.7993,1.3562,1601.81,-1295.35,1143.19
8620,-3.8718,0.8263,1.3826,-1679.44,1595.28,-1325.50
8630,-3.8718,0.8502,1.4114,1773.68,970.34,1721.44
8640,-3.8718,0.8455,1.4441,836.18,657.90,-1028.50
8650,-3.8717,0.7919,1.4812,226.81,845.40,1237.18
8660,-3.8717,0.6967,1.5049,1367.43,1595.28,-1919.01
8670,-3.8717,0.5839,1.5190,1179.93,626.34,1206.05
8680,-3.8718,0.4655,1.5326,-1257.57,-1561.40,-918.95
8690,-3.8718,0.3500,1.5305,-413.82,172.73,940.49
8700,-3.8718,0.2563,1.4948,804.93,-93.08,784.18
8710,-3.8718,0.1858,1.4377,820.56,-671.39,-137.76
8720,-3.8716,0.1169,1.3914,-210.69,31.56,580.93
8730,-3.8716,0.0358,1.3721,-1023.19,-1906.07,-184.81
8740,-3.8715,-0.0551,1.3668,586.18,-374.94,455.75
8750,-3.8716,-0.1475,1.3617,961.18,-1031.37,-950.50
8760,-3.8716,-0.2367,1.3547,1133.06,-1687.81,143.25
8770,-3.8717,-0.3191,1.3291,1711.18,1421.39,830.75
8780,-3.8718,-0.3789,1.2694,-835.69,-1860.05,-325.56
8790,-3.8717,-0.4124,1.1953,-491.94,-1500.79,-1903.81
8800,-3.8716,-0.4336,1.1376,-773.19,1014.77,-1653.93
8810,-3.8715,-0.4526,1.1008,508.06,1624.15,1345.95
8820,-3.8715,-0.4775,1.0762,-1929.44,920.96,1283.39
8830,-3.8716,-0.5203,1.0581,-1116.94,1764.65,-1763.55
8840,-3.8717,-0.5815,1.0436,1414.31,-547.91,798.89
8850,-3.8719,-0.6422,1.0247,1570.56,1592.59,1923.89
8860,-3.8722,-0.6873,1.0005,1804.93,-829.41,-1029.30
8870,-3.8723,-0.7146,0.9760,39.31,76.78,798.83
8880,-3.8726,-0.7261,0.9503,539.31,936.10,-638.73
8890,-3.8727,-0.7208,0.9191,-929.44,1654.79,-1654.42
8900,-3.8728,-0.7008,0.8772,-257.57,1654.79,-1888.85
8910,-3.8729,-0.6714,0.8330,-1695.07,295.47,-1232.67
8920,-3.8730,-0.6417,0.7979,-1929.44,-1360.72,-217.16
8930,-3.8730,-0.6191,0.7725,1867.43,-1860.66,251.53
8940,-3.8732,-0.5925,0.7356,758.06,-1110.60,767.09
8950,-3.8732,-0.5471,0.6787,164.31,-1829.28,751.40
8960,-3.8730,-0.4999,0.6296,1976.81,-1110.47,704.41
8970,-3.8730,-0.4766,0.6121,23.68,608.40,-139.40
8980,-3.8730,-0.4731,0.6268,-991.94,-1641.60,1548.03
8990,-3.8733,-0.4778,0.6503,-554.44,249.02,1485.60
9000,-3.8737,-0.4846,0.6625,-1148.19,-750.98,-1545.65
9010,-3.8740,-0.4888,0.6627,1976.81,811.52,-1014.34
9020,-3.8743,-0.4896,0.6558,1445.56,842.77,1032.53
9030,-3.8745,-0.4874,0.6534,1336.18,-47.85,985.60
9040,-3.8748,-0.4746,0.6411,1617.43,-344.73,-1795.65
9050,-3.8749,-0.4417,0.5812,-741.94,-1922.85,-1092.53
9060,-3.8748,-0.3994,0.4937,-523.19,-1594.67,751.10
9070,-3.8746,-0.3728,0.4377,883.06,-797.67,1079.04
9080,-3.8745,-0.3680,0.4283,289.31,46.14,625.85
9090,-3.8745,-0.3676,0.4417,898.68,-1156.98,1203.92
9100,-3.8746,-0.3519,0.4482,961.18,546.14,1891.48
9110,-3.8748,-0.3152,0.4319,-1038.82,1389.89,594.60
9120,-3.8749,-0.2686,0.4122,-335.69,-703.80,110.17
9130,-3.8750,-0.2346,0.4205,1633.06,780.70,344.54
9140,-3.8439,-0.2216,0.4523,1976.81,1843.26,172.67
9150,-3.8440,-0.2141,0.4724,-351.32,1905.76,157.10
9160,-3.8441,-0.1965,0.4613,601.81,483.95,1391.54
9170,-3.8441,-0.1633,0.4230,-1148.19,-937.93,719.60
9180,-3.8441,-0.1201,0.3740,-898.19,-1844.12,-1561.71
9190,-3.8440,-0.0756,0.3463,633.06,-109.62,1328.80
9200,-3.8440,-0.0310,0.3485,-1663.82,343.57,-296.20
9210,-3.8439,0.0177,0.3650,39.31,624.94,922.55
9220,-3.8439,0.0710,0.3905,-1726.32,-1281.25,1766.30
9230,-3.8439,0.1187,0.4197,1101.81,1984.50,-1296.14
9240,-3.8439,0.1499,0.4392,-804.44,1718.93,-1311.71
9250,-3.8439,0.1731,0.4387,-804.44,218.99,-1889.77
9260,-3.8439,0.1957,0.4286,-1835.69,156.56,-389.77
9270,-3.8750,0.2190,0.4308,1054.93,-1140.26,-124.21
9280,-3.8748,0.2400,0.4496,39.31,-858.95,1047.67
9290,-3.8746,0.2515,0.4843,-1273.19,1547.30,1250.85
9300,-3.8746,0.2538,0.5305,195.56,1984.86,-217.83
9310,-3.8745,0.2595,0.5681,492.43,-93.26,1032.23
9320,-3.8745,0.2756,0.5969,1226.81,719.24,1782.35
9330,-3.8745,0.2936,0.6383,-710.69,406.74,-1795.72
9340,-3.8745,0.3077,0.6917,1586.18,1703.67,-1795.65
9350,-3.8745,0.3156,0.7440,-601.32,531.80,1970.09
9360,-3.8745,0.3184,0.7871,398.68,-765.01,1954.53
9370,-3.8745,0.3271,0.8009,758.06,750.61,-967.22
9380,-3.8744,0.3418,0.7933,1883.06,-1483.76,-1951.60
9390,-3.8743,0.3491,0.7990,-241.94,1547.49,-1779.72
9400,-3.8741,0.3507,0.8134,695.56,-1733.70,1782.78
9410,-3.8740,0.3669,0.8123,898.68,110.05,579.71
9420,-3.8740,0.4043,0.8131,-1023.19,-30.58,-326.60
9430,-3.8739,0.4377,0.8569,-241.94,78.86,-592.16
9440,-3.8738,0.4459,0.9458,39.31,1688.35,-920.23
9450,-3.8737,0.4393,1.0391,1086.18,1063.35,1111.21
9460,-3.8737,0.4519,1.0902,242.43,1000.85,767.64
9470,-3.8738,0.5077,1.0906,1851.81,-452.27,-122.92
9480,-3.8737,0.6005,1.0676,992.43,-405.27,1298.95
9490,-3.8735,0.7095,1.0498,867.43,657.41,-1044.80
9500,-3.8732,0.8073,1.0649,-1179.44,-1623.66,189.51
9510,-3.8729,0.8615,1.1406,-663.82,314.03,1580.20
9520,-3.8728,0.8582,1.2572,-1726.32,-1998.35,-107.18
9530,-3.8727,0.8234,1.3479,1851.81,923.52,-1403.81
9540,-3.8727,0.7915,1.3806,1398.68,532.84,-638.00
9550,-3.8726,0.7690,1.3804,1320.56,720.28,924.56
9560,-3.8724,0.7562,1.3718,-1554.44,688.96,924.56
9570,-3.8723,0.7622,1.3419,804.93,-404.79,-153.63
9580,-3.8719,0.7749,1.2898,1570.56,-232.91,1658.81
9590,-3.8716,0.7633,1.2524,-804.44,1095.21,596.25
9600,-3.8713,0.7078,1.2546,1711.18,313.96,1814.94
9610,-3.8712,0.6117,1.2854,-1398.19,595.09,-591.31
9620,-3.8711,0.5013,1.3141,-1695.07,532.41,1205.63
9630,-3.8711,0.4039,1.3147,179.93,204.10,1049.44
9640,-3.8711,0.3265,1.2910,-288.82,281.98,1940.06
9650,-3.8710,0.2550,1.2720,1804.93,1250.61,986.88
9660,-3.8708,0.1759,1.2698,648.68,-1187.01,596.19
9670,-3.8708,0.0901,1.2626,-1476.32,-1468.44,-872.56
9680,-3.8707,0.0052,1.2321,-460.69,1609.50,1393.07
9690,-3.8706,-0.0802,1.1902,679.93,1703.12,283.63
9700,-3.8706,-0.1704,1.1517,1742.43,359.19,-294.56
9710,-3.8705,-0.2600,1.1218,-1804.44,-562.87,-872.80
9720,-3.8704,-0.3451,1.1007,-1273.19,-391.17,1517.76
9730,-3.8704,-0.4220,1.0839,-163.82,905.52,-1638.49
9740,-3.8704,-0.4895,1.0610,1992.43,-1250.85,1252.08
9750,-3.8705,-0.5444,1.0253,1351.81,-172.85,1939.51
9760,-3.8706,-0.5856,0.9838,-1679.44,-751.10,986.33
9770,-3.8708,-0.6226,0.9554,1054.93,1936.34,-1498.11
9780,-3.8711,-0.6548,0.9403,320.56,-1688.72,1970.58
9790,-3.8713,-0.6658,0.9056,195.56,373.72,689.33
9800,-3.8716,-0.6476,0.8416,-1210.69,-63.84,657.96
9810,-3.8718,-0.6123,0.7711,1117.43,-266.91,-1217.16
9820,-3.8719,-0.5748,0.7158,1633.06,-1282.47,-1248.54
9830,-3.8721,-0.5482,0.6929,-1570.07,-360.53,-1389.28
9840,-3.8723,-0.5392,0.6987,1836.18,702.03,-217.41
9850,-3.8726,-0.5463,0.7152,-1007.57,1452.03,1735.72
9860,-3.8729,-0.5681,0.7292,-1913.82,-438.60,-733.03
9870,-3.8730,-0.6028,0.7355,-710.69,1358.22,157.65
9880,-3.8732,-0.6376,0.7316,-1148.19,-1844.97,954.53
9890,-3.8733,-0.6553,0.7135,-1601.32,1654.97,-76.72
9900,-3.8733,-0.6477,0.6746,133.06,-657.53,-217.41
9910,-3.8732,-0.6130,0.6149,1101.81,-1641.91,704.41
9920,-3.8732,-0.5603,0.5522,1539.31,-1282.47,-951.97
9930,-3.8730,-0.5054,0.5073,289.31,-1297.97,1532.29
9940,-3.8730,-0.4589,0.4928,-679.44,952.09,-1358.40
9950,-3.8730,-0.4126,0.4956,1273.68,-907.17,1688.42
9960,-3.8732,-0.3563,0.4878,-804.44,-547.73,-514.71
9970,-3.8732,-0.3076,0.4708,-1601.32,-1547.61,1344.67
9980,-3.8733,-0.2892,0.4578,633.06,280.64,-1217.83
9990,-3.8734,-0.3032,0.4529,-1007.57,-1391.24,1719.60
10000,-3.8737,-0.3307,0.4580,1195.56,1983.76,1485.23
10010,-3.8739,-0.3469,0.4640,1679.93,-1360.05,1141.48
10020,-3.8741,-0.3474,0.4589,-398.19,-594.48,-389.77
10030,-3.8741,-0.3438,0.4435,-460.69,-1250.73,16.48
10040,-3.8743,-0.3419,0.4257,8.06,780.58,188.35
10050,-3.8745,-0.3359,0.4117,242.43,-1500.67,-436.71
10060,-3.8746,-0.3149,0.4020,1008.06,718.08,-1124.21
10070,-3.8748,-0.2747,0.3870,-304.44,-531.92,-577.39
10080,-3.8748,-0.2279,0.3705,851.81,1546.33,-1718.02
10090,-3.8748,-0.1885,0.3695,-1163.82,-562.99,-1186.83
10100,-3.8748,-0.1556,0.3856,-116.94,-687.93,-1280.58
10110,-3.8748,-0.1229,0.4126,86.18,1374.69,0.73
10120,-3.8750,-0.0844,0.4443,273.68,827.88,-1296.08
10130,-3.8439,-0.0360,0.4746,1211.18,890.44,438.35
10140,-3.8441,0.0233,0.4994,-601.32,765.50,-1280.33
10150,-3.8442,0.0883,0.5181,-1007.57,-78.12,-1717.83
10160,-3.8444,0.1512,0.5345,-695.07,-1687.38,-170.90
10170,-3.8444,0.2031,0.5524,-632.57,422.12,-1233.34
10180,-3.8444,0.2472,0.5598,-1991.94,-1296.51,1704.16
10190,-3.8444,0.2954,0.5385,-351.32,-343.32,1422.91
10200,-3.8444,0.3406,0.5040,1820.56,922.42,-764.59
10210,-3.8442,0.3645,0.4952,-398.19,516.24,-1092.77
10220,-3.8441,0.3595,0.5272,-1335.69,-608.70,-827.21
10230,-3.8440,0.3274,0.5853,-1976.32,-514.95,-1624.02
10240,-3.8439,0.2924,0.6274,1914.31,-1077.51,126.10
10250,-3.8439,0.2913,0.6167,1429.93,313.05,1813.72
10260,-3.8750,0.3235,0.5814,1289.31,-1061.95,407.41
10270,-3.8750,0.3584,0.5726,1414.31,-1577.51,-280.15
10280,-3.8749,0.3766,0.5886,1883.06,1297.55,-405.15
10290,-3.8746,0.3748,0.6169,211.18,-655.52,516.72
10300,-3.8745,0.3522,0.6702,-23.19,-1030.58,-1920.72
10310,-3.8744,0.3182,0.7424,1086.18,1781.92,-858.09
10320,-3.8743,0.3047,0.7985,742.43,-968.14,-529.85
10330,-3.8741,0.3370,0.8097,-991.94,-1796.33,-607.85
10340,-3.8740,0.3971,0.7878,-851.32,-358.76,-60.97
10350,-3.8738,0.4473,0.7745,-1163.82,844.48,1376.53
10360,-3.8737,0.4720,0.7892,1258.06,-858.52,-1795.41
10370,-3.8735,0.4813,0.8217,429.93,1016.54,954.65
10380,-3.8735,0.4917,0.8583,1617.43,1172.79,1782.84
10390,-3.8735,0.5110,0.8932,-1054.44,1860.29,1689.15
10400,-3.8735,0.5366,0.9274,1414.31,-1670.90,1361.08
10410,-3.8735,0.5608,0.9645,695.56,-1295.84,658.02
10420,-3.8737,0.5729,1.0168,-210.69,-545.84,-873.17
10430,-3.8737,0.5675,1.0979,1336.18,-1842.65,1267.58
10440,-3.8738,0.5553,1.1902,648.68,532.35,-341.61
10450,-3.8738,0.5580,1.2570,-913.82,344.79,1642.94
10460,-3.8738,0.6047,1.2739,-570.07,891.66,814.94
10470,-3.8737,0.7021,1.2599,1414.31,-936.34,611.82
10480,-3.8734,0.8120,1.2565,1883.06,1266.97,1346.19
10490,-3.8730,0.8884,1.2814,-54.44,829.65,424.32
10500,-3.8728,0.9095,1.3298,1726.81,17.33,-1513.12
10510,-3.8726,0.8871,1.3812,429.93,-1779.48,-1966.19
10520,-3.8724,0.8462,1.4194,1554.93,798.58,-1153.56
10530,-3.8723,0.8052,1.4408,320.56,1689.15,909.00
10540,-3.8723,0.7672,1.4479,-929.44,423.40,-1872.19
10550,-3.8722,0.7172,1.4471,-1788.82,1329.59,143.43
10560,-3.8722,0.6475,1.4374,-195.07,1235.72,-1059.69
10570,-3.8721,0.5582,1.4276,-1116.94,-14.40,1518.37
10580,-3.8721,0.4528,1.4307,-538.82,-1264.59,-1528.50
10590,-3.8721,0.3494,1.4264,1961.18,-874.15,-1387.88
10600,-3.8719,0.2709,1.3876,726.81,-1421.20,846.50
10610,-3.8718,0.2189,1.3336,-1320.07,1609.86,-387.94
10620,-3.8715,0.1649,1.2997,23.68,-1296.45,-1731.81
10630,-3.8711,0.0817,1.2900,1117.43,-1640.32,471.25
10640,-3.8710,-0.0278,1.2864,-1538.82,1125.12,-997.50
10650,-3.8708,-0.1436,1.2737,445.56,671.81,-1794.37
10660,-3.8708,-0.2488,1.2537,1633.06,-953.43,-1388.18
10670,-3.8708,-0.3383,1.2295,164.31,483.89,205.57
10680,-3.8710,-0.4089,1.1906,711.18,1389.95,96.13
10690,-3.8711,-0.4583,1.1320,-335.69,405.40,408.57
10700,-3.8712,-0.4933,1.0753,1351.81,905.33,-1154.05
10710,-3.8712,-0.5303,1.0448,867.43,1655.27,-1404.17
10720,-3.8712,-0.5737,1.0309,133.06,1748.96,877.01
10730,-3.8713,-0.6141,1.0001,-1429.44,-32.41,861.33
10740,-3.8715,-0.6426,0.9453,1398.68,30.03,580.08
10750,-3.8716,-0.6611,0.8929,1758.06,1014.34,1142.46
10760,-3.8717,-0.6746,0.8662,-616.94,-1688.84,751.71
10770,-3.8719,-0.6826,0.8666,1664.31,-1110.72,1142.27
10780,-3.8723,-0.6853,0.8745,633.06,-1063.84,-1513.98
10790,-3.8727,-0.6779,0.8573,289.31,-48.22,-404.60
10800,-3.8728,-0.6571,0.7964,1242.43,1748.66,79.77
10810,-3.8729,-0.6272,0.7059,-101.32,1951.78,1876.53
10820,-3.8729,-0.6033,0.6298,-273.19,-1626.28,-998.66
10830,-3.8729,-0.5928,0.6055,-1210.69,623.78,-842.53
10840,-3.8730,-0.5875,0.6194,133.06,1514.47,-780.09
10850,-3.8733,-0.5786,0.6287,804.93,-704.28,-920.72
10860,-3.8735,-0.5673,0.6157,1945.56,483.22,1766.85
10870,-3.8738,-0.5634,0.5969,-601.32,-1173.03,-1780.09
10880,-3.8739,-0.5673,0.5896,-101.32,420.72,751.16
10890,-3.8740,-0.5701,0.5906,-601.32,-516.78,94.85
10900,-3.8743,-0.5596,0.5864,-960.69,-391.78,-358.28
10910,-3.8744,-0.5311,0.5698,383.06,-922.97,-77.03
10920,-3.8744,-0.4960,0.5490,23.68,952.09,735.47
10930,-3.8745,-0.4652,0.5353,523.68,-1719.73,829.16
10940,-3.8746,-0.4377,0.5225,461.18,530.33,188.54
10950,-3.8748,-0.4064,0.4934,-23.19,-1110.29,813.48
10960,-3.8749,-0.3696,0.4547,-7.57,-828.98,-61.58
10970,-3.8748,-0.3336,0.4301,695.56,-1781.98,985.23
10980,-3.8748,-0.3032,0.4252,1304.93,-938.17,-1046.08
10990,-3.8748,-0.2778,0.4314,1195.56,-1563.11,-92.96
11000,-3.8748,-0.2559,0.4380,445.56,-766.17,-1342.96
11010,-3.8748,-0.2384,0.4380,-741.94,77.58,1532.10
11020,-3.8748,-0.2262,0.4340,1492.43,77.64,-1592.90
11030,-3.8748,-0.2156,0.4332,-945.07,-437.99,-389.83
11040,-3.8748,-0.1991,0.4351,414.31,-531.68,-483.58
11050,-3.8748,-0.1687,0.4380,-1476.32,-297.30,-1296.08
11060,-3.8748,-0.1238,0.4464,-1585.69,77.76,1875.85
11070,-3.8748,-0.0723,0.4604,164.31,1156.01,469.60
11080,-3.8749,-0.0168,0.4736,-1241.94,-1047.06,-1842.90
11090,-3.8749,0.0425,0.4768,1851.81,640.56,16.54
11100,-3.8750,0.0997,0.4733,1445.56,1031.31,-717.83
11110,-3.8750,0.1448,0.4728,773.68,578.31,-608.46
11120,-3.8750,0.1713,0.4750,-1460.69,515.87,-577.21
11130,-3.8750,0.1851,0.4729,1929.93,797.18,-545.96
11140,-3.8749,0.1904,0.4609,-304.44,531.56,157.17
11150,-3.8749,0.1890,0.4348,383.06,-999.63,1828.98
11160,-3.8748,0.1788,0.4076,195.56,-343.38,594.54
11170,-3.8746,0.1553,0.4113,-1101.32,172.18,0.79
11180,-3.8746,0.1287,0.4435,-116.94,640.87,-1280.46
11190,-3.8745,0.1099,0.4792,476.81,765.87,78.98
11200,-3.8746,0.1027,0.5216,-1929.44,1343.93,-108.46
11210,-3.8746,0.1125,0.5729,1148.68,-1234.19,-1170.90
11220,-3.8746,0.1428,0.6187,-1585.69,1328.31,-1702.03
11230,-3.8746,0.1912,0.6522,-1710.69,-812.26,-1405.09
11240,-3.8746,0.2518,0.6722,476.81,-515.26,-326.90
11250,-3.8745,0.3193,0.6797,242.43,-1952.64,-1389.34
11260,-3.8744,0.3853,0.6840,883.06,-999.39,-186.22
11270,-3.8741,0.4363,0.7004,1320.56,-452.39,-1811.22
11280,-3.8739,0.4606,0.7350,-148.19,1657.04,438.84
11290,-3.8738,0.4596,0.7787,-1038.82,-1921.02,1595.15
11300,-3.8737,0.4454,0.8192,-1163.82,-327.27,1001.46
11310,-3.8737,0.4287,0.8560,1023.68,860.23,-1576.54
11320,-3.8737,0.4163,0.8989,-1116.94,1563.29,-1951.48
11330,-3.8737,0.4142,0.9486,1289.31,-936.71,986.08
11340,-3.8737,0.4312,1.0006,1023.68,1422.67,1283.08
11350,-3.8735,0.4733,1.0557,-804.44,78.92,298.83
11360,-3.8734,0.5414,1.1062,586.18,-874.08,-1466.74
11370,-3.8732,0.6316,1.1486,1304.93,1594.79,-638.49
11380,-3.8728,0.7211,1.2061,851.81,-983.15,502.20
11390,-3.8726,0.7820,1.2859,304.93,-1623.60,330.44
11400,-3.8724,0.8126,1.3517,101.81,595.28,-888.12
11410,-3.8722,0.8236,1.3760,23.68,1017.21,1455.75
11420,-3.8721,0.8168,1.3794,1429.93,126.59,-169.19
11430,-3.8718,0.7854,1.3926,554.93,564.09,1846.44
11440,-3.8717,0.7341,1.4160,539.31,-1748.47,-1559.81
11450,-3.8716,0.6754,1.4410,1976.81,1251.40,1330.87
11460,-3.8716,0.6189,1.4692,-1538.82,454.41,-465.94
11470,-3.8715,0.5792,1.4987,-773.19,63.66,1799.74
11480,-3.8715,0.5592,1.5208,-1851.32,-170.78,-731.51
11490,-3.8715,0.5433,1.5266,-413.82,-1342.71,-278.32
11500,-3.8713,0.5085,1.5181,1554.93,-592.71,2.93
11510,-3.8713,0.4432,1.5044,1101.81,-1686.52,596.68
11520,-3.8713,0.3606,1.4794,742.43,563.35,-1356.45
11530,-3.8712,0.2842,1.4325,-1835.69,1360.05,-622.13
11540,-3.8710,0.2300,1.3673,383.06,-640.08,-309.75
11550,-3.8706,0.1938,1.3041,1445.56,-983.95,-1622.38
11560,-3.8704,0.1522,1.2627,820.56,-1077.76,-575.62
11570,-3.8702,0.0818,1.2422,-507.57,1625.24,-481.93
11580,-3.8702,-0.0238,1.2345,-1523.19,-999.88,1736.76
11590,-3.8705,-0.1487,1.2358,961.18,-1968.81,-528.87
11600,-3.8707,-0.2653,1.2345,976.81,-1797.18,-1372.62
11610,-3.8710,-0.3563,1.2321,-1945.07,-1969.30,64.88
11620,-3.8713,-0.4202,1.2274,-1601.32,1718.02,893.01
11630,-3.8716,-0.4615,1.2089,-1773.19,1124.15,299.26
11640,-3.8718,-0.4789,1.1755,929.93,-1250.92,-247.68
11650,-3.8718,-0.4697,1.1195,-1288.82,-1516.60,-1763.37
11660,-3.8718,-0.4353,1.0334,-116.94,-688.48,-279.11
11670,-3.8717,-0.3998,0.9493,289.31,296.02,-216.74
11680,-3.8716,-0.3993,0.9077,836.18,1530.46,-435.67
11690,-3.8716,-0.4349,0.9023,898.68,202.33,-1060.73
11700,-3.8717,-0.4825,0.9075,336.18,-485.23,689.21
11710,-3.8721,-0.5179,0.9041,-1757.57,170.90,-1123.23
11720,-3.8724,-0.5330,0.8826,1711.18,-266.66,-60.79
11730,-3.8727,-0.5347,0.8511,-210.69,983.28,1642.33
11740,-3.8729,-0.5344,0.8263,-429.44,952.03,564.15
11750,-3.8732,-0.5314,0.8030,-398.19,1780.15,782.84
11760,-3.8734,-0.5148,0.7593,-7.57,-1204.22,-1232.85
11770,-3.8735,-0.4841,0.6736,-1882.57,1202.09,-357.91
11780,-3.8734,-0.4498,0.5627,-1960.69,-1766.60,829.41
11790,-3.8733,-0.4313,0.4847,-1570.07,45.96,110.47
11800,-3.8733,-0.4325,0.4642,804.93,-1938.35,657.17
11810,-3.8734,-0.4386,0.4727,648.68,-563.35,297.73
11820,-3.8738,-0.4429,0.4750,-132.57,514.71,-139.71
11830,-3.8740,-0.4468,0.4609,-679.44,811.58,1219.67
11840,-3.8744,-0.4482,0.4360,-1179.44,-985.29,-1108.52
11850,-3.8746,-0.4421,0.4056,-1366.94,-172.79,-1327.33
11860,-3.8748,-0.4303,0.3766,-585.69,-63.42,266.36
11870,-3.8750,-0.4158,0.3560,929.93,217.90,-1499.27
11880,-3.8439,-0.3987,0.3347,-1210.69,1577.27,1438.17
11890,-3.8440,-0.3774,0.3003,976.81,-1141.42,-1890.01
11900,-3.8440,-0.3580,0.2566,-304.44,-1547.67,1344.30
11910,-3.8440,-0.3481,0.2190,-1820.07,858.64,-1562.01
11920,-3.8440,-0.3439,0.2031,-554.44,46.14,-421.45
11930,-3.8440,-0.3381,0.2117,-7.57,-1985.11,-687.13
11940,-3.8440,-0.3218,0.2394,726.81,-891.30,844.12
11950,-3.8441,-0.2920,0.2750,-1179.44,-1344.42,766.05
11960,-3.8442,-0.2504,0.3058,-1366.94,-781.86,594.24
11970,-3.8444,-0.1986,0.3217,-38.82,-844.30,1063.05
11980,-3.8445,-0.1378,0.3198,-1413.82,1187.07,-1671.26
11990,-3.8445,-0.0736,0.3121,-1632.57,952.82,1047.49
12000,-3.8445,-0.0117,0.3073,-1413.82,-31.43,1641.17
12010,-3.8445,0.0485,0.3019,-1491.94,-656.31,-343.20
12020,-3.8444,0.1052,0.2961,-1788.82,-1359.31,-1202.58
12030,-3.8442,0.1525,0.3004,1476.81,1906.43,-1858.83
12040,-3.8441,0.1869,0.3191,-476.32,-1546.63,0.55
12050,-3.8441,0.2152,0.3357,-70.07,844.06,672.49
12060,-3.8441,0.2388,0.3511,-445.07,-1030.88,-1905.64
12070,-3.8440,0.2456,0.3835,-1429.44,937.93,156.92
12080,-3.8440,0.2369,0.4220,-554.44,1094.18,1203.86
12090,-3.8440,0.2305,0.4471,-1663.82,-1983.95,1750.79
12100,-3.8440,0.2340,0.4672,1508.06,1234.80,-327.27
12110,-3.8439,0.2512,0.4908,1961.18,-202.70,-889.77
12120,-3.8749,0.2961,0.5051,164.31,-1171.39,172.79
12130,-3.8748,0.3680,0.5146,1914.31,656.80,-764.65
12140,-3.8745,0.4392,0.5524,-882.57,1875.67,1922.85
12150,-3.8744,0.5010,0.6067,226.81,-1296.02,-1748.96
12160,-3.8743,0.5605,0.6456,133.06,1657.23,1751.16
12170,-3.8741,0.6047,0.6907,-241.94,-1358.34,766.85
12180,-3.8741,0.6208,0.7621,1414.31,407.41,-1654.91
12190,-3.8741,0.6232,0.8370,-523.19,1548.03,-1451.66
12200,-3.8741,0.6407,0.8917,-226.32,-858.22,1517.21
12210,-3.8743,0.6796,0.9326,-1976.32,-1858.15,-232.67
12220,-3.8743,0.7295,0.9773,-1007.57,-623.72,-1420.10
12230,-3.8743,0.7904,1.0215,1383.06,1095.15,-1310.61
12240,-3.8743,0.8597,1.0564,1179.93,-1248.47,-341.80
12250,-3.8741,0.9266,1.0872,-1945.07,-779.60,1877.01
12260,-3.8740,0.9868,1.1097,-1382.57,-841.98,-1529.17
12270,-3.8738,1.0365,1.1224,-1679.44,-1951.23,1127.14
12280,-3.8735,1.0684,1.1353,679.93,-326.11,877.14
12290,-3.8733,1.0808,1.1508,758.06,1314.58,1564.70
12300,-3.8730,1.0865,1.1703,-1648.19,-701.05,-247.80
12310,-3.8727,1.0964,1.2043,-913.82,1798.95,-1794.62
12320,-3.8724,1.0992,1.2649,351.81,-1841.61,-1982.06
12330,-3.8723,1.0908,1.3451,711.18,1908.39,-1794.43
12340,-3.8723,1.0742,1.4316,-366.94,173.95,-653.63
12350,-3.8723,1.0383,1.5140,1508.06,-747.92,-216.00
12360,-3.8722,0.9702,1.5713,914.31,1798.89,-1465.82
12370,-3.8719,0.8743,1.5839,195.56,1126.89,409.30
12380,-3.8717,0.7822,1.5327,-85.69,-1263.98,-1481.32
12390,-3.8712,0.7063,1.4474,133.06,189.03,-1340.76
12400,-3.8706,0.6158,1.3995,-1585.69,1266.97,-1575.32
12410,-3.8701,0.4901,1.3988,-1163.82,-858.22,-294.19
12420,-3.8698,0.3395,1.4036,-1257.57,-952.21,-1419.19
12430,-3.8696,0.1812,1.3955,-538.82,-343.14,-966.06
12440,-3.8696,0.0295,1.3822,-804.44,-1374.69,-1278.56
12450,-3.8698,-0.1060,1.3712,-210.69,921.88,-91.06
12460,-3.8699,-0.2200,1.3594,-1554.44,-468.99,-91.13
12470,-3.8700,-0.3041,1.3369,-148.19,-1984.86,-794.25
12480,-3.8701,-0.3575,1.3046,1086.18,-859.99,-1294.31
12490,-3.8702,-0.3937,1.2648,-1757.57,-1000.73,-1138.12
12500,-3.8704,-0.4229,1.2167,1617.43,1905.46,-638.18
12510,-3.8705,-0.4512,1.1652,1883.06,-250.85,-1153.93
12520,-3.8706,-0.4858,1.1191,-1741.94,1155.33,205.38
12530,-3.8710,-0.5264,1.0862,1820.56,-735.35,-169.74
12540,-3.8712,-0.5629,1.0649,633.06,-954.16,-1435.42
12550,-3.8715,-0.5828,1.0446,-38.82,326.97,1423.95
12560,-3.8717,-0.5770,1.0154,1414.31,1717.59,1627.01
12570,-3.8719,-0.5475,0.9825,-1851.32,1983.22,-404.30
12580,-3.8721,-0.5123,0.9572,1929.93,1780.15,1955.02
12590,-3.8723,-0.4852,0.9408,-1570.07,-1469.79,-373.17
12600,-3.8724,-0.4646,0.9307,1898.68,436.52,892.46
12610,-3.8727,-0.4500,0.9260,539.31,-860.29,1814.27
12620,-3.8729,-0.4420,0.9236,-1585.69,-1454.04,1970.52
12630,-3.8732,-0.4351,0.9056,-570.07,-1766.54,1517.40
12640,-3.8734,-0.4172,0.8450,320.56,-63.35,-1388.92
12650,-3.8734,-0.3900,0.7498,-1398.19,171.02,673.52
12660,-3.8733,-0.3680,0.6606,-1913.82,-16.42,329.53
12670,-3.8732,-0.3551,0.6094,898.68,577.39,-1779.97
12680,-3.8730,-0.3510,0.5956,-1445.07,-1985.11,1516.78
12690,-3.8732,-0.3553,0.6063,-913.82,249.27,-1014.47
12700,-3.8734,-0.3621,0.6324,-1476.32,1624.27,-1373.84
12710,-3.8738,-0.3588,0.6520,1664.31,968.02,-217.53
12720,-3.8740,-0.3414,0.6484,-1913.82,-531.98,-1405.03
12730,-3.8743,-0.3250,0.6305,304.93,-985.05,-155.03
12740,-3.8744,-0.3195,0.6150,-1585.69,718.08,1235.60
12750,-3.8746,-0.3160,0.6018,-882.57,-1266.30,1813.66
12760,-3.8749,-0.3016,0.5790,-445.07,1046.20,-1217.59
12770,-3.8750,-0.2771,0.5448,1398.68,-1875.61,985.47
12780,-3.8439,-0.2485,0.4906,539.31,1749.45,1344.79
12790,-3.8439,-0.2220,0.4111,195.56,-1187.99,-1749.08
12800,-3.8750,-0.2073,0.3400,-413.82,640.14,-546.08
12810,-3.8748,-0.2068,0.3049,1476.81,-469.18,391.24
12820,-3.8748,-0.2123,0.3016,1539.31,-953.55,1500.55
12830,-3.8749,-0.2150,0.3153,836.18,-1375.43,-1905.70
12840,-3.8439,-0.2117,0.3241,492.43,374.57,-311.89
12850,-3.8440,-0.2039,0.3210,914.31,1499.57,1391.24
12860,-3.8441,-0.1910,0.3195,1914.31,1108.95,844.36
12870,-3.8442,-0.1671,0.3243,-445.07,905.82,1500.61
12880,-3.8444,-0.1307,0.3286,-1382.57,1530.88,-1202.51
12890,-3.8444,-0.0876,0.3230,-726.32,-1922.18,750.61
12900,-3.8444,-0.0422,0.3003,789.31,1359.19,31.86
12910,-3.8444,0.0029,0.2662,-1398.19,-1547.00,1375.55
12920,-3.8442,0.0430,0.2404,383.06,-1921.88,578.61
12930,-3.8441,0.0728,0.2393,1508.06,-1234.31,406.68
12940,-3.8441,0.0985,0.2556,1320.56,-1374.88,-749.57
12950,-3.8440,0.1282,0.2750,617.43,718.93,156.74
12960,-3.8441,0.1605,0.2988,414.31,-796.63,-702.64
12970,-3.8441,0.1917,0.3199,554.93,-1749.69,1906.80
12980,-3.8441,0.2219,0.3279,539.31,953.49,1000.61
12990,-3.8441,0.2491,0.3347,414.31,1969.18,1359.99
13000,-3.8441,0.2719,0.3583,-101.32,-1155.82,-843.14
13010,-3.8440,0.2920,0.3951,-1195.07,1859.86,1735.05
13020,-3.8439,0.3123,0.4327,1383.06,-1421.33,641.36
13030,-3.8750,0.3335,0.4683,-23.19,-608.83,32.04
13040,-3.8750,0.3534,0.4980,-1304.44,-61.89,-655.40
13050,-3.8749,0.3812,0.5183,1242.43,-249.33,-1561.58
13060,-3.8748,0.4231,0.5477,804.93,-1655.52,-874.02
13070,-3.8745,0.4666,0.6038,-1835.69,-1889.83,1532.29
13080,-3.8744,0.5032,0.6759,-273.19,1282.10,-780.09
13090,-3.8743,0.5382,0.7446,414.31,-1483.40,-1248.72
13100,-3.8741,0.5778,0.8042,898.68,-686.46,454.53
13110,-3.8741,0.6169,0.8650,1961.18,-1061.40,1579.65
13120,-3.8741,0.6624,0.9248,-1023.19,-1280.09,-279.60
13130,-3.8740,0.7383,0.9730,789.31,-1623.72,-201.35
13140,-3.8738,0.8438,1.0220,-1491.94,548.28,1033.14
13150,-3.8737,0.9592,1.0814,8.06,-1185.85,-1466.80
13160,-3.8734,1.0677,1.1436,-1210.69,-1576.29,595.83
13170,-3.8733,1.1405,1.2167,679.93,-1622.92,-1450.93
13180,-3.8732,1.1509,1.3136,1992.43,-263.43,-591.43
13190,-3.8730,1.1024,1.4104,-679.44,142.82,-1028.69
13200,-3.8729,1.0352,1.4653,1117.43,533.39,1721.50
13210,-3.8728,0.9950,1.4607,508.06,-435.49,-1184.69
13220,-3.8724,0.9788,1.4434,-632.57,-1029.36,1784.06
13230,-3.8719,0.9490,1.4725,1289.31,751.89,315.31
13240,-3.8716,0.9030,1.5331,1476.81,486.21,1080.99
13250,-3.8713,0.8655,1.5720,-413.82,236.08,-1293.88
13260,-3.8711,0.8446,1.5709,-1210.69,1220.40,-340.70
13270,-3.8707,0.8252,1.5474,117.43,1079.77,1409.30
13280,-3.8705,0.7828,1.5074,1633.06,-1935.91,-1215.76
13290,-3.8702,0.7073,1.4597,211.18,954.65,-1918.95
13300,-3.8701,0.5972,1.4352,-1460.69,-1154.91,-997.19
13310,-3.8700,0.4595,1.4341,445.56,-295.72,1987.12
13320,-3.8700,0.3248,1.4152,-1179.44,-436.65,-497.25
13330,-3.8699,0.2233,1.3605,1586.18,1141.24,1065.25
13340,-3.8699,0.1490,1.3033,586.18,-1858.95,-606.75
13350,-3.8698,0.0792,1.2803,-913.82,-1171.63,236.88
13360,-3.8699,0.0070,1.2831,-1851.32,-124.88,1283.69
13370,-3.8701,-0.0626,1.2759,898.68,234.38,-1372.50
13380,-3.8704,-0.1263,1.2383,-7.57,-672.06,-1138.18
13390,-3.8705,-0.1876,1.1763,-163.82,-1484.68,721.13
13400,-3.8706,-0.2511,1.1122,-7.57,-1422.30,721.01
13410,-3.8707,-0.3134,1.0652,-132.57,-1625.55,1595.89
13420,-3.8708,-0.3671,1.0372,-101.32,358.70,1627.08
13430,-3.8711,-0.4092,1.0211,1023.68,780.52,-622.99
13440,-3.8713,-0.4463,1.0057,-366.94,-1282.10,-1466.80
13450,-3.8716,-0.4825,0.9819,-1116.94,749.08,595.70
13460,-3.8719,-0.5153,0.9471,-1757.57,1702.15,-1091.86
13470,-3.8722,-0.5381,0.9027,-1945.07,1248.96,-1920.04
13480,-3.8724,-0.5406,0.8474,-866.94,-438.60,-498.29
13490,-3.8726,-0.5271,0.7871,-1195.07,483.28,-451.48
13500,-3.8726,-0.5162,0.7333,539.31,764.59,845.28
13510,-3.8727,-0.5221,0.6901,1929.93,1873.96,1642.03
13520,-3.8728,-0.5436,0.6584,1179.93,342.71,845.09
13530,-3.8730,-0.5724,0.6406,-1570.07,295.78,-1858.09
13540,-3.8733,-0.6042,0.6332,-1257.57,-1985.53,-1905.03
13550,-3.8735,-0.6295,0.6287,-1335.69,1061.28,1719.97
13560,-3.8738,-0.6383,0.6206,-570.07,483.09,1516.85
13570,-3.8740,-0.6274,0.5997,-1695.07,-548.16,1735.53
13580,-3.8743,-0.5975,0.5592,-304.44,779.97,-1030.09
13590,-3.8744,-0.5513,0.5049,-476.32,-407.47,-1264.59
13600,-3.8744,-0.5024,0.4536,1445.56,639.53,1844.73
13610,-3.8744,-0.4705,0.4205,-304.44,-1922.91,-1046.02
13620,-3.8744,-0.4619,0.4070,-210.69,1842.77,-702.33
13630,-3.8744,-0.4709,0.4001,883.06,108.46,844.54
13640,-3.8745,-0.4857,0.3882,-273.19,-766.60,16.36
13650,-3.8748,-0.4937,0.3706,1836.18,1702.15,-968.02
13660,-3.8749,-0.4852,0.3466,820.56,-547.85,-421.20
13670,-3.8749,-0.4579,0.3179,1898.68,374.02,1922.55
13680,-3.8749,-0.4187,0.3022,1398.68,702.21,1297.49
13690,-3.8749,-0.3743,0.3066,-1585.69,-1297.73,500.55
13700,-3.8750,-0.3273,0.3176,101.81,-735.11,-1124.45
13710,-3.8750,-0.2795,0.3270,-1882.57,671.20,219.36
13720,-3.8439,-0.2344,0.3348,226.81,1874.45,1016.24
13730,-3.8440,-0.1935,0.3364,-1991.94,-1125.49,-1468.14
13740,-3.8440,-0.1509,0.3250,-757.57,-922.30,1531.86
13750,-3.8440,-0.1013,0.3046,695.56,1609.07,1922.49
13760,-3.8440,-0.0475,0.2968,-960.69,-1000.24,-749.45
13770,-3.8439,0.0042,0.3158,1929.93,1999.88,469.30
13780,-3.8439,0.0479,0.3489,539.31,421.88,188.11
13790,-3.8440,0.0807,0.3839,-1866.94,656.31,1953.80
13800,-3.8441,0.1060,0.4106,-1663.82,1140.75,-1733.64
13810,-3.8442,0.1320,0.4205,1570.56,562.68,-905.46
13820,-3.8442,0.1608,0.4235,898.68,1828.37,-1514.83
13830,-3.8442,0.1857,0.4298,586.18,-1796.57,-796.08
13840,-3.8442,0.2018,0.4427,-226.32,-984.07,-1280.46
13850,-3.8442,0.2107,0.4602,1836.18,672.24,891.48
13860,-3.8444,0.2161,0.4784,-1023.19,-1093.38,-655.40
13870,-3.8444,0.2207,0.5071,-335.69,1234.74,-717.83
13880,-3.8442,0.2294,0.5453,258.06,906.68,938.48
13890,-3.8441,0.2412,0.5740,1367.43,1797.30,344.79
13900,-3.8440,0.2557,0.5769,-1116.94,1469.18,1235.47
13910,-3.8439,0.2777,0.5597,742.43,1844.24,-530.15
13920,-3.8749,0.3051,0.5602,-445.07,-358.89,-1467.71
13930,-3.8746,0.3351,0.5952,-945.07,-296.33,610.41
13940,-3.8745,0.3683,0.6525,-1101.32,188.11,1719.91
13950,-3.8744,0.3998,0.7227,-851.32,-483.70,-1326.90
13960,-3.8743,0.4304,0.7755,-820.07,500.73,-1092.35
13970,-3.8740,0.4747,0.7805,-898.19,-733.58,313.96
13980,-3.8738,0.5287,0.7764,773.68,-92.83,548.34
13990,-3.8735,0.5746,0.8215,-320.07,-624.02,407.71
14000,-3.8734,0.6138,0.9113,1554.93,1157.35,329.71
14010,-3.8735,0.6620,1.0068,-1429.44,641.78,-91.98
14020,-3.8735,0.7166,1.0952,742.43,876.28,1533.20
14030,-3.8735,0.7673,1.1694,-273.19,188.84,267.76
14040,-3.8735,0.8289,1.2032,-1773.19,1688.96,-1747.74
14050,-3.8733,0.9059,1.2128,-1898.19,-1982.79,17.94
14060,-3.8730,0.9768,1.2438,-38.82,-763.92,283.57
14070,-3.8728,1.0273,1.2882,1039.31,-794.98,-1903.87
14080,-3.8724,1.0522,1.3162,-491.94,892.58,799.38
14090,-3.8722,1.0411,1.3293,-1304.44,470.76,-1044.31
14100,-3.8719,0.9961,1.3468,1273.68,-1841.74,-528.69
14110,-3.8717,0.9448,1.3761,-491.94,392.52,-825.50
14120,-3.8715,0.9034,1.4113,945.56,142.46,-1153.56
14130,-3.8712,0.8676,1.4448,-351.32,642.33,1409.00
14140,-3.8711,0.8312,1.4734,-945.07,939.15,-1887.82
14150,-3.8710,0.7887,1.4918,-1601.32,595.34,1799.74
14160,-3.8708,0.7367,1.4954,961.18,-1045.35,1237.24
14170,-3.8707,0.6820,1.4830,-1695.07,-592.35,284.12
14180,-3.8707,0.6271,1.4539,-695.07,1829.41,-856.51
14190,-3.8706,0.5634,1.4103,273.68,-1905.03,-1294.07
14200,-3.8705,0.4865,1.3604,117.43,516.72,-1028.50
14210,-3.8704,0.3948,1.3156,-1726.32,-1874.08,-1341.13
14220,-3.8702,0.2853,1.2816,-1460.69,391.36,486.94
14230,-3.8704,0.1541,1.2570,523.68,47.42,-247.50
14240,-3.8704,0.0062,1.2343,-273.19,890.87,1189.94
14250,-3.8705,-0.1400,1.2078,804.93,1984.38,-1888.24
14260,-3.8706,-0.2623,1.1757,-1913.82,-1390.93,-950.81
14270,-3.8707,-0.3501,1.1398,-1570.07,-1500.55,-216.49
14280,-3.8708,-0.4104,1.1044,-804.44,1905.52,-107.18
14290,-3.8710,-0.4570,1.0664,-523.19,1374.15,-294.74
14300,-3.8711,-0.4926,1.0219,1508.06,514.71,-310.42
14310,-3.8712,-0.5167,0.9796,961.18,-1188.48,-169.92
14320,-3.8713,-0.5293,0.9535,1867.43,1405.21,-138.73
14330,-3.8715,-0.5283,0.9388,258.06,-1938.54,-1310.67
14340,-3.8717,-0.5149,0.9219,383.06,186.46,-388.79
14350,-3.8719,-0.4961,0.9027,-1898.19,-1985.41,-779.48
14360,-3.8722,-0.4813,0.8850,508.06,-438.48,-1748.29
14370,-3.8724,-0.4824,0.8643,-1601.32,1295.90,1126.71
14380,-3.8727,-0.5043,0.8367,-1741.94,-1360.35,204.77
14390,-3.8729,-0.5311,0.8031,-538.82,-891.66,314.09
14400,-3.8732,-0.5470,0.7714,23.68,-1188.54,1782.78
14410,-3.8733,-0.5494,0.7460,1992.43,-1251.10,48.34
14420,-3.8735,-0.5459,0.7175,1679.93,-501.10,-873.60
14430,-3.8735,-0.5416,0.6757,-1866.94,-141.72,360.72
14440,-3.8735,-0.5391,0.6219,-1320.07,-1501.10,688.78
14450,-3.8735,-0.5375,0.5712,-991.94,-376.10,-670.72
14460,-3.8734,-0.5305,0.5378,-788.82,1123.90,-1639.53
14470,-3.8734,-0.5175,0.5200,101.81,858.34,-686.46
14480,-3.8734,-0.5031,0.5121,1773.68,-1422.91,1188.48
14490,-3.8735,-0.4941,0.5146,-382.57,1561.46,516.60
14500,-3.8738,-0.4884,0.5200,758.06,1889.65,-1952.15
14510,-3.8740,-0.4771,0.5133,1492.43,-1422.85,-1452.15
14520,-3.8743,-0.4525,0.4835,-1054.44,1717.77,-827.15
14530,-3.8744,-0.4181,0.4393,-1913.82,1905.33,1125.92
14540,-3.8745,-0.3850,0.4005,-1507.57,249.15,469.60
14550,-3.8746,-0.3594,0.3740,-1273.19,-719.54,1110.11
14560,-3.8748,-0.3461,0.3574,-1991.94,-110.11,-577.45
14570,-3.8748,-0.3464,0.3480,-288.82,1764.89,-1749.33
14580,-3.8749,-0.3527,0.3428,-335.69,561.77,-171.20
14590,-3.8750,-0.3522,0.3385,-1132.57,-110.11,-265.01
14600,-3.8439,-0.3363,0.3323,-1070.07,-656.98,-593.14
14610,-3.8440,-0.3018,0.3279,961.18,-1453.80,-15.01
14620,-3.8440,-0.2496,0.3337,1383.06,1983.76,922.49
14630,-3.8441,-0.1844,0.3445,54.93,-1266.11,-1999.39
14640,-3.8441,-0.1085,0.3491,398.68,109.01,250.67
14650,-3.8441,-0.0287,0.3453,-1882.57,702.88,172.55
14660,-3.8441,0.0457,0.3306,336.18,218.69,1313.17
14670,-3.8441,0.1027,0.3114,1851.81,-1687.44,-702.51
14680,-3.8440,0.1311,0.2996,1148.68,-140.44,1859.92
14690,-3.8439,0.1342,0.3016,789.31,-1656.01,609.92
14700,-3.8439,0.1316,0.3151,1179.93,-1390.38,-874.45
14710,-3.8750,0.1428,0.3307,851.81,328.37,1500.61
14720,-3.8750,0.1682,0.3533,-1710.69,-1671.63,-624.39
14730,-3.8750,0.1985,0.3872,1539.31,1219.06,-499.33
14740,-3.8750,0.2307,0.4249,1414.31,1562.87,1828.86
14750,-3.8750,0.2679,0.4642,1539.31,-1608.95,469.54
14760,-3.8750,0.3110,0.5107,-1695.07,-577.64,407.10
14770,-3.8750,0.3568,0.5548,-179.44,1375.55,782.23
14780,-3.8750,0.3977,0.5872,1679.93,-983.70,1844.79
14790,-3.8750,0.4196,0.6196,-1085.69,-843.02,-92.65
14800,-3.8749,0.4189,0.6641,1711.18,-686.71,1798.03
14810,-3.8749,0.4076,0.7241,1633.06,1000.79,-858.09
14820,-3.8748,0.4026,0.7904,179.93,688.29,1063.90
14830,-3.8746,0.4199,0.8400,-460.69,1172.61,485.90
14840,-3.8745,0.4607,0.8663,1758.06,-483.58,1923.46
14850,-3.8743,0.5106,0.8909,-1023.19,-1108.52,407.90
14860,-3.8741,0.5605,0.9288,1367.43,-1967.77,1954.83
14870,-3.8740,0.6093,0.9812,-241.94,-1108.34,-1982.60
14880,-3.8739,0.6477,1.0459,1992.43,1594.91,580.02
14890,-3.8739,0.6736,1.1091,-1085.69,1876.22,1361.39
14900,-3.8739,0.6968,1.1556,-1773.19,1970.03,970.89
14910,-3.8739,0.7203,1.1838,1195.56,-76.78,439.70
14920,-3.8739,0.7448,1.1957,211.18,-467.35,1189.76
14930,-3.8739,0.7690,1.1997,-663.82,1048.28,-185.18
14940,-3.8738,0.7869,1.2113,-1554.44,1563.96,-607.06
14950,-3.8735,0.7922,1.2407,726.81,-951.60,64.82
14960,-3.8734,0.7870,1.2871,1414.31,-1185.97,1986.76
14970,-3.8733,0.7863,1.3341,742.43,751.53,-13.12
14980,-3.8730,0.8065,1.3629,648.68,-1232.85,-1950.56
14990,-3.8728,0.8462,1.3715,-757.57,-1545.35,1158.87
15000,-3.8726,0.8823,1.3750,320.56,-451.48,533.87
15010,-3.8724,0.8931,1.3843,945.56,1.71,-1231.69
15020,-3.8723,0.8737,1.3960,-1679.44,1189.21,-169.19
15030,-3.8721,0.8326,1.4092,-163.82,-1310.85,299.56
15040,-3.8721,0.7734,1.4337,-1413.82,376.59,-481.63
15050,-3.8719,0.6969,1.4669,-991.94,-482.91,315.25
15060,-3.8721,0.6201,1.4823,1211.18,-233.03,-403.44
15070,-3.8721,0.5535,1.4685,-616.94,1735.53,-294.01
15080,-3.8719,0.4858,1.4421,-1148.19,-30.21,-1934.69
15090,-3.8718,0.4082,1.4178,-1804.44,594.67,-1372.19
15100,-3.8717,0.3254,1.3988,258.06,1485.17,-59.75
15110,-3.8715,0.2495,1.3755,1664.31,-952.51,658.94
15120,-3.8713,0.1877,1.3417,-54.44,62.93,580.81
15130,-3.8713,0.1365,1.3068,39.31,-265.26,-216.19
15140,-3.8712,0.0839,1.2820,1476.81,-734.13,-1575.62
15150,-3.8711,0.0234,1.2684,-1257.57,93.87,18.13
15160,-3.8712,-0.0421,1.2579,-991.94,-1640.62,-44.43
15170,-3.8712,-0.1096,1.2419,-1382.57,1031.13,-1263.18
15180,-3.8712,-0.1776,1.2189,1976.81,-1015.87,1049.26
15190,-3.8713,-0.2422,1.1897,1273.68,30.88,-810.12
15200,-3.8713,-0.2975,1.1475,1008.06,296.39,1502.32
15210,-3.8713,-0.3408,1.0930,1929.93,-1109.99,533.45
15220,-3.8715,-0.3734,1.0457,383.06,-78.80,-232.30
15230,-3.8715,-0.3995,1.0143,211.18,1858.64,1689.51
15240,-3.8716,-0.4191,0.9928,867.43,1842.96,1330.08
15250,-3.8718,-0.4358,0.9746,-1632.57,-907.10,-529.36
15260,-3.8719,-0.4515,0.9557,226.81,764.77,1548.77
15270,-3.8722,-0.4587,0.9357,-1788.82,-1657.17,-435.67
15280,-3.8723,-0.4567,0.9155,1289.31,-219.67,736.15
15290,-3.8726,-0.4491,0.8964,1554.93,1202.21,829.90
15300,-3.8728,-0.4435,0.8800,-1476.32,-1250.92,454.83
15310,-3.8730,-0.4459,0.8634,-757.57,655.33,236.08
15320,-3.8733,-0.4619,0.8364,-1070.07,-1469.67,189.15
15330,-3.8735,-0.4855,0.7928,883.06,-922.79,1235.96
15340,-3.8737,-0.4967,0.7288,1867.43,1499.02,892.15
15350,-3.8738,-0.4883,0.6552,429.93,1295.90,-29.85
15360,-3.8737,-0.4712,0.6064,1508.06,-125.98,641.85
15370,-3.8738,-0.4574,0.5952,-304.44,1639.65,-264.47
15380,-3.8739,-0.4492,0.6029,1461.18,202.21,-233.22
15390,-3.8740,-0.4482,0.6108,-1491.94,1186.58,563.66
15400,-3.8744,-0.4530,0.6134,-1366.94,-1797.79,-483.22
15410,-3.8746,-0.4562,0.6099,-1976.32,-1469.67,-1217.59
15420,-3.8749,-0.4574,0.6036,1617.43,-1922.79,-795.72
15430,-3.8750,-0.4541,0.6000,1461.18,1280.33,360.53
15440,-3.8440,-0.4327,0.5887,1883.06,811.58,-1498.84
15450,-3.8441,-0.3827,0.5558,617.43,-625.85,-702.03
15460,-3.8441,-0.3132,0.5115,-976.32,-844.54,-452.09
15470,-3.8440,-0.2402,0.4703,-85.69,1483.70,1735.35
15480,-3.8439,-0.1777,0.4313,1258.06,218.26,1860.29
15490,-3.8749,-0.1445,0.3979,1258.06,-781.62,328.92
15500,-3.8748,-0.1522,0.3829,1508.06,-1047.18,1360.11
15510,-3.8748,-0.1833,0.3950,523.68,1030.94,828.86
15520,-3.8750,-0.2052,0.4318,539.31,-1422.24,-218.02
15530,-3.8439,-0.2101,0.4767,1742.43,-719.18,1485.17
15540,-3.8441,-0.2029,0.5098,1117.43,1030.82,-874.08
15550,-3.8442,-0.1746,0.5234,-1960.69,1265.20,1204.10
15560,-3.8444,-0.1149,0.5229,1664.31,-984.74,-1967.77
15570,-3.8444,-0.0288,0.5137,1304.93,-1047.12,-1092.77
15580,-3.8442,0.0677,0.4984,320.56,1765.56,-1764.65
15590,-3.8441,0.1556,0.4861,679.93,-203.00,-1686.58
15600,-3.8440,0.2137,0.4843,-70.07,-1781.01,-1842.83
15610,-3.8439,0.2380,0.4882,-632.57,1984.74,391.54
15620,-3.8439,0.2379,0.4877,-1523.19,-1515.20,1157.17
15630,-3.8439,0.2229,0.4845,-1538.82,-1577.70,1657.17
15640,-3.8439,0.2046,0.4817,539.31,-1983.95,1438.42
15650,-3.8439,0.2002,0.4808,-1804.44,1656.62,94.67
15660,-3.8440,0.2183,0.4916,1633.06,1547.24,-670.96
15670,-3.8439,0.2500,0.5105,-54.44,-1077.76,547.79
15680,-3.8439,0.2854,0.5198,8.06,1344.24,-1030.27
15690,-3.8750,0.3173,0.5100,539.31,-1468.20,1719.73
15700,-3.8749,0.3372,0.4978,617.43,1281.86,422.85
15710,-3.8749,0.3472,0.4995,-835.69,-280.64,-1264.71
15720,-3.8748,0.3547,0.5156,445.56,-61.83,1172.79
15730,-3.8748,0.3575,0.5476,1414.31,-1999.33,-14.65
15740,-3.8746,0.3563,0.5898,1773.68,-1905.58,-1670.84
15750,-3.8745,0.3550,0.6310,1617.43,-499.33,329.22
15760,-3.8745,0.3607,0.6610,1445.56,766.30,-1030.03
15770,-3.8744,0.3804,0.6764,-1820.07,610.05,-1076.84
15780,-3.8741,0.4105,0.6947,695.56,-1421.14,1157.53
15790,-3.8739,0.4318,0.7428,554.93,922.67,-1889.28
15800,-3.8737,0.4358,0.8182,-726.32,-921.08,-45.47
15810,-3.8733,0.4501,0.8920,-210.69,735.17,454.71
15820,-3.8732,0.4948,0.9532,1617.43,-1827.27,-638.92
15830,-3.8729,0.5631,1.0118,-663.82,-1983.46,1236.21
15840,-3.8728,0.6467,1.0769,86.18,1516.72,-1451.17
15850,-3.8727,0.7318,1.1573,-1210.69,1844.97,-60.42
15860,-3.8724,0.7944,1.2531,1679.93,142.03,658.51
15870,-3.8724,0.8273,1.3378,1695.56,392.15,-325.68
15880,-3.8723,0.8350,1.3962,1898.68,-764.04,1565.06
15890,-3.8723,0.8093,1.4513,-1116.94,-1279.66,-700.44
15900,-3.8722,0.7485,1.5134,-398.19,1767.15,534.06
15910,-3.8722,0.6814,1.5638,-179.44,1720.15,909.18
15920,-3.8722,0.6323,1.5972,-773.19,173.16,1940.55
15930,-3.8721,0.5927,1.6195,945.56,438.72,1034.36
15940,-3.8719,0.5579,1.6172,-132.57,-702.03,1971.86
15950,-3.8717,0.5342,1.5933,-585.69,-998.96,128.11
15960,-3.8716,0.5101,1.5714,383.06,-61.46,1237.43
15970,-3.8716,0.4703,1.5641,1304.93,1141.60,-1262.57
15980,-3.8716,0.4069,1.5905,211.18,204.04,331.18
15990,-3.8718,0.3251,1.6405,86.18,-421.08,-996.95
16000,-3.8719,0.2408,1.6655,1617.43,1984.99,-1090.58
16010,-3.8719,0.1534,1.6528,-1163.82,1187.93,-1153.02
16020,-3.8718,0.0521,1.6116,-351.32,-437.26,-1543.70
16030,-3.8716,-0.0627,1.5535,-1320.07,-1718.69,3.11
16040,-3.8715,-0.1804,1.4930,-23.19,-1140.81,659.24
16050,-3.8713,-0.2841,1.4287,914.31,-875.37,455.99
16060,-3.8712,-0.3611,1.3459,-351.32,-1109.99,518.37
16070,-3.8711,-0.4170,1.2382,1789.31,296.14,1690.12
16080,-3.8708,-0.4635,1.1187,-1366.94,-1500.85,471.13
16090,-3.8707,-0.5042,1.0078,679.93,-797.79,-1185.36
16100,-3.8706,-0.5439,0.9387,-523.19,1014.59,1048.83
16110,-3.8707,-0.5825,0.9313,-1616.94,170.78,142.46
16120,-3.8712,-0.6072,0.9666,1445.56,-782.41,-748.23
16130,-3.8717,-0.6193,1.0107,-1710.69,-266.85,1454.96
16140,-3.8722,-0.6223,1.0331,742.43,1389.40,455.08
16150,-3.8726,-0.6055,1.0084,351.81,248.78,158.26
16160,-3.8728,-0.5637,0.9329,-1491.94,1092.53,1611.33
16170,-3.8728,-0.5006,0.8287,-148.19,-579.28,79.90
16180,-3.8728,-0.4218,0.7180,-70.07,-1907.29,-1107.79
16190,-3.8726,-0.3486,0.6288,-1976.32,-78.98,845.09
16200,-3.8724,-0.3099,0.5940,-616.94,499.27,1157.47
16210,-3.8726,-0.3082,0.6064,336.18,46.26,-1045.72
16220,-3.8728,-0.3315,0.6334,554.93,1640.01,1594.91
16230,-3.8733,-0.3790,0.6520,1570.56,1093.08,-1514.40
16240,-3.8738,-0.4443,0.6521,-507.57,-532.04,407.47
16250,-3.8744,-0.4952,0.6248,-866.94,-516.54,-608.15
16260,-3.8748,-0.4957,0.5555,617.43,-16.60,-811.34
16270,-3.8749,-0.4384,0.4448,554.93,-875.98,-1702.09
16280,-3.8748,-0.3365,0.3330,-101.32,952.21,250.85
16290,-3.8746,-0.2112,0.2614,929.93,-1360.05,1641.24
16300,-3.8745,-0.0873,0.2360,976.81,1468.32,-1546.39
16310,-3.8745,0.0094,0.2528,836.18,-1781.43,-155.82
16320,-3.8745,0.0566,0.2910,1211.18,359.38,578.61
16330,-3.8748,0.0475,0.3169,-741.94,1250.06,375.55
16340,-3.8439,-0.0060,0.3286,-1913.82,562.56,375.61
16350,-3.8444,-0.0750,0.3484,-757.57,-1921.94,-1249.39
16360,-3.8447,-0.1252,0.3788,-1585.69,609.19,-1889.95
16370,-3.8450,-0.1354,0.4017,-23.19,499.69,938.23
16380,-3.8451,-0.1028,0.3905,-1320.07,-562.81,891.36
16390,-3.8451,-0.0428,0.3370,-1148.19,1999.76,-827.39
16400,-3.8448,0.0215,0.2764,-1476.32,-843.87,-702.51
16410,-3.8445,0.0760,0.2496,-1241.94,-625.00,1766.11
16420,-3.8442,0.1188,0.2635,1742.43,-46.75,1531.68
16430,-3.8441,0.1472,0.2981,-788.82,1734.56,250.49
16440,-3.8442,0.1619,0.3430,-1148.19,-1843.51,-1327.58
16450,-3.8444,0.1643,0.4011,726.81,-93.44,-1311.89
16460,-3.8445,0.1550,0.4780,1039.31,-655.94,1594.48
16470,-3.8446,0.1448,0.5538,-148.19,1187.74,32.17
16480,-3.8448,0.1498,0.6000,-1460.69,-1109.13,-92.71
16490,-3.8448,0.1864,0.6196,-820.07,797.12,-1639.47
16500,-3.8448,0.2661,0.6036,-132.57,-687.19,-280.09
16510,-3.8446,0.3713,0.5793,-1929.44,1266.11,1001.16
16520,-3.8444,0.4623,0.6151,-460.69,-1843.08,407.35
16530,-3.8442,0.5055,0.7067,-820.07,-1264.77,-1358.22
16540,-3.8441,0.4908,0.7966,711.18,-1545.90,-670.53
16550,-3.8440,0.4674,0.8259,-1163.82,1969.67,-576.60
16560,-3.8750,0.4897,0.7905,-163.82,1719.60,32.84
16570,-3.8749,0.5430,0.7742,-1304.44,1188.42,-1826.60
16580,-3.8746,0.5780,0.8275,1508.06,-905.21,1673.34
16590,-3.8744,0.5802,0.9121,1992.43,1922.97,1032.84
16600,-3.8743,0.5825,0.9781,-1726.32,751.10,970.52
16610,-3.8743,0.6168,1.0104,-1429.44,1204.22,1158.14
16620,-3.8743,0.6825,1.0178,-1038.82,1329.28,1783.20
16630,-3.8741,0.7554,1.0098,-632.57,-1717.47,1923.83
16640,-3.8739,0.7896,1.0127,695.56,1251.46,658.20
16650,-3.8738,0.7590,1.0383,1070.56,1626.53,-998.05
16660,-3.8735,0.6995,1.0460,1164.31,907.71,189.51
16670,-3.8734,0.6493,1.0311,1539.31,1891.97,1517.64
16680,-3.8732,0.5967,1.0387,-882.57,-14.40,1064.45
16690,-3.8729,0.5114,1.0972,383.06,954.28,1970.76
16700,-3.8727,0.3938,1.1931,1461.18,438.48,95.89
16710,-3.8727,0.2767,1.2859,-1585.69,719.48,-997.68
16720,-3.8726,0.2050,1.3358,-570.07,594.24,-1575.62
16730,-3.8724,0.2003,1.3422,-1757.57,-1015.26,-856.81
16740,-3.8723,0.2533,1.3427,1648.68,-202.76,-731.81
16750,-3.8722,0.3406,1.3583,429.93,-140.14,-1950.56
16760,-3.8722,0.4314,1.3927,-398.19,1859.99,-966.13
16770,-3.8722,0.5037,1.4366,-773.19,-1733.58,-1231.69
16780,-3.8722,0.5496,1.4651,476.81,-108.40,-559.75
16790,-3.8721,0.5635,1.4675,-1648.19,-467.71,1862.18
16800,-3.8719,0.5413,1.4589,133.06,-155.15,440.31
16810,-3.8719,0.4871,1.4572,1289.31,-1264.59,1127.81
16820,-3.8721,0.4137,1.4685,-1648.19,-1483.46,-1309.69
16830,-3.8722,0.3429,1.4836,961.18,-30.46,1877.81
16840,-3.8723,0.2863,1.4825,-101.32,1906.86,643.49
16850,-3.8724,0.2463,1.4537,648.68,1766.17,1237.24
16860,-3.8724,0.2196,1.4128,-460.69,-1921.45,1174.68
16870,-3.8724,0.1880,1.3905,117.43,844.18,-1012.88
16880,-3.8723,0.1394,1.3885,70.56,1984.74,96.44
16890,-3.8724,0.0806,1.3778,1851.81,1734.62,-231.69
16900,-3.8724,0.0160,1.3505,-1679.44,359.50,-1309.81
16910,-3.8724,-0.0593,1.3259,-1945.07,859.38,1955.75
16920,-3.8724,-0.1340,1.3021,414.31,1734.25,-1763.06
16930,-3.8724,-0.1912,1.2600,-1148.19,-1312.81,-716.25
16940,-3.8723,-0.2305,1.1897,-460.69,1296.45,1783.69
16950,-3.8722,-0.2622,1.0933,-1491.94,296.39,-888.31
16960,-3.8719,-0.2910,0.9895,-1554.44,-47.42,-654.17
16970,-3.8716,-0.3215,0.9067,-1241.94,-1328.74,1564.39
16980,-3.8713,-0.3707,0.8741,-1148.19,77.45,-1810.73
16990,-3.8712,-0.4497,0.8817,554.93,-94.48,954.77
17000,-3.8713,-0.5510,0.8955,-1554.44,874.08,470.46
17010,-3.8717,-0.6608,0.9064,1476.81,-1360.47,1267.33
17020,-3.8722,-0.7546,0.9110,-570.07,29.91,1845.52
17030,-3.8727,-0.8097,0.8798,-585.69,623.47,-966.98
17040,-3.8729,-0.8290,0.8063,367.43,623.41,704.83
17050,-3.8732,-0.8262,0.7341,1898.68,-782.90,-873.47
17060,-3.8732,-0.8007,0.6914,-1741.94,1982.73,1001.40
17070,-3.8732,-0.7531,0.6733,1523.68,514.04,157.59
17080,-3.8733,-0.6956,0.6656,-382.57,-1798.40,1923.16
17090,-3.8734,-0.6337,0.6475,-1023.19,1217.35,1907.53
17100,-3.8735,-0.5740,0.6182,-1101.32,-1110.66,1532.47
17110,-3.8738,-0.5298,0.6064,-1460.69,-860.53,-342.59
17120,-3.8740,-0.5084,0.6216,195.56,1639.59,-1467.59
17130,-3.8743,-0.5016,0.6393,-1070.07,-422.91,360.53
17140,-3.8745,-0.4989,0.6333,-195.07,1842.71,32.47
17150,-3.8748,-0.4949,0.5955,148.68,1077.15,-1623.78
17160,-3.8748,-0.4816,0.5310,664.31,233.40,204.28
17170,-3.8748,-0.4565,0.4576,-1632.57,-16.60,-1139.65
17180,-3.8745,-0.4263,0.4110,1570.56,-1407.17,266.48
17190,-3.8745,-0.3926,0.4070,1445.56,624.15,-327.33
17200,-3.8745,-0.3556,0.4365,1758.06,108.58,-1264.83
17210,-3.8746,-0.3125,0.4777,-1507.57,-110.11,1610.17
17220,-3.8749,-0.2614,0.5051,8.06,1155.64,1625.92
17230,-3.8439,-0.2095,0.5216,-1445.07,671.33,1344.73
17240,-3.8441,-0.1635,0.5361,1195.56,-1219.18,-1764.65
17250,-3.8442,-0.1217,0.5430,-913.82,640.26,516.66
17260,-3.8444,-0.0811,0.5360,429.93,1515.38,1219.79
17270,-3.8444,-0.0349,0.5129,1633.06,624.82,1563.54
17280,-3.8442,0.0229,0.4797,-460.69,1671.75,1375.98
17290,-3.8441,0.0925,0.4431,-1054.44,1406.25,-1467.83
17300,-3.8440,0.1663,0.4108,-148.19,718.87,-1030.40
17310,-3.8439,0.2203,0.3984,1289.31,578.43,-1952.33
17320,-3.8439,0.2426,0.4126,211.18,-999.57,-1108.64
17330,-3.8439,0.2385,0.4457,-945.07,812.93,1047.67
17340,-3.8440,0.2145,0.4823,-1460.69,1047.30,1422.73
17350,-3.8441,0.1860,0.5051,-538.82,1734.74,1172.79
17360,-3.8442,0.1764,0.5038,-179.44,656.56,1813.48
17370,-3.8442,0.1985,0.4919,-1413.82,484.68,1125.98
17380,-3.8442,0.2424,0.4891,1414.31,-1030.88,-952.21
17390,-3.8441,0.2894,0.4952,-960.69,-1390.20,-1920.96
17400,-3.8440,0.3184,0.5101,1054.93,-608.83,1516.54
17410,-3.8439,0.3190,0.5237,758.06,1297.49,1297.85
17420,-3.8750,0.3097,0.5159,836.18,-968.14,1500.98
17430,-3.8749,0.3145,0.4921,-351.32,-1968.20,-1639.65
17440,-3.8746,0.3341,0.4911,258.06,-1015.01,516.54
17450,-3.8745,0.3507,0.5515,-1226.32,-1140.01,-827.21
17460,-3.8743,0.3416,0.6708,898.68,-1405.58,344.79
17470,-3.8743,0.3042,0.7999,-273.19,1859.99,-389.34
17480,-3.8741,0.2946,0.8579,-1054.44,-1608.83,-1592.22
17490,-3.8740,0.3606,0.8364,1711.18,1813.05,-1060.85
17500,-3.8738,0.4646,0.8352,-1835.69,-936.83,-685.91
17510,-3.8734,0.5483,0.8998,-523.19,-1092.90,-1545.29
17520,-3.8730,0.5947,0.9791,-1804.44,-827.09,345.46
17530,-3.8729,0.6221,1.0284,133.06,1329.28,-451.23
17540,-3.8727,0.6520,1.0396,-366.94,-358.22,1658.20
17550,-3.8726,0.6824,1.0292,-538.82,1063.72,-747.99
17560,-3.8724,0.7003,1.0441,-648.19,-264.34,-482.42
17570,-3.8723,0.6967,1.1046,1648.68,1641.97,48.89
17580,-3.8726,0.6681,1.1860,1179.93,1391.97,-388.49
17590,-3.8728,0.6213,1.2749,1523.68,-186.22,-966.49
17600,-3.8730,0.5762,1.3430,-460.69,-811.34,-1731.93
17610,-3.8730,0.5555,1.3574,1758.06,-92.65,111.94
17620,-3.8729,0.5583,1.3433,-882.57,1751.04,1393.25
17630,-3.8728,0.5703,1.3418,-523.19,-61.46,-59.94
17640,-3.8727,0.5759,1.3550,1008.06,-248.90,-591.19
17650,-3.8727,0.5625,1.3679,1726.81,1438.60,-184.88
17660,-3.8727,0.5294,1.3798,8.06,-905.15,1658.87
17670,-3.8728,0.4688,1.3936,-226.32,610.35,1033.94
17680,-3.8729,0.3925,1.4053,8.06,-1624.08,487.06
17690,-3.8729,0.3331,1.4089,-1757.57,-124.27,674.56
17700,-3.8728,0.2954,1.3893,-1351.32,344.36,-731.63
17710,-3.8724,0.2468,1.3492,1820.56,1828.67,-1716.06
17720,-3.8721,0.1718,1.3231,-398.19,703.55,-1747.38
17730,-3.8717,0.1075,1.3091,1992.43,1359.68,1377.56
17740,-3.8713,0.0791,1.2762,1773.68,-437.32,408.75
17750,-3.8711,0.0680,1.2290,-1866.94,-640.50,-1138.18
17760,-3.8708,0.0538,1.2015,711.18,1312.62,1971.13
17770,-3.8707,0.0267,1.2102,-1101.32,1796.94,283.57
17780,-3.8708,-0.0134,1.2466,-570.07,-1093.75,1299.19
17790,-3.8711,-0.0443,1.2666,-1710.69,-421.94,1299.26
17800,-3.8713,-0.0436,1.2181,-1663.82,-1859.50,768.07
17810,-3.8715,-0.0270,1.1403,-1570.07,-62.62,205.44
17820,-3.8716,-0.0269,1.0980,554.93,1968.69,-872.80
17830,-3.8716,-0.0563,1.1095,570.56,562.44,-1997.86
17840,-3.8717,-0.1183,1.1686,804.93,-1968.87,564.64
17850,-3.8721,-0.2102,1.2439,867.43,1593.51,1439.76
17860,-3.8726,-0.3184,1.3002,1101.81,-766.05,-997.62
17870,-3.8730,-0.4174,1.2950,-741.94,-1563.17,-28.75
17880,-3.8733,-0.4877,1.1483,-1413.82,1780.40,-403.75
17890,-3.8729,-0.5364,0.8888,1586.18,-1000.98,283.45
17900,-3.8723,-0.5551,0.6923,-648.19,1780.15,532.96
17910,-3.8718,-0.5476,0.6600,961.18,623.90,1485.72
17920,-3.8716,-0.5526,0.7377,1914.31,498.90,1485.66
17930,-3.8717,-0.5656,0.8281,1273.68,-1563.60,-654.85
17940,-3.8721,-0.5542,0.8854,-382.57,-1985.53,-498.41
17950,-3.8726,-0.5281,0.8956,1070.56,1342.65,-279.54
17960,-3.8728,-0.5121,0.8617,414.31,-1344.79,173.58
17970,-3.8729,-0.5040,0.7953,-1538.82,-1688.54,907.90
17980,-3.8728,-0.4932,0.7012,-507.57,1811.46,501.53
17990,-3.8727,-0.4681,0.6024,883.06,1764.65,-1967.41
18000,-3.8726,-0.4470,0.5172,86.18,1124.08,469.91
18010,-3.8727,-0.4508,0.4634,-1210.69,-1782.17,-967.77
18020,-3.8728,-0.4644,0.4612,-1695.07,-672.79,-1764.77
18030,-3.8730,-0.4773,0.5084,570.56,-954.04,1391.48
18040,-3.8734,-0.4910,0.5784,-1085.69,1092.77,1110.35
18050,-3.8738,-0.4985,0.6353,1164.31,-1954.10,485.47
18060,-3.8741,-0.4963,0.6711,195.56,1327.15,-1889.40
18070,-3.8744,-0.4788,0.6866,476.81,1920.90,-1686.22
18080,-3.8745,-0.4357,0.6914,-1273.19,-94.73,345.03
18090,-3.8748,-0.3730,0.6931,242.43,514.77,-1358.03
18100,-3.8749,-0.2946,0.6809,258.06,733.64,1610.72
18110,-3.8749,-0.1984,0.6422,-1695.07,-828.74,298.16
18120,-3.8749,-0.1053,0.5856,-1382.57,-1781.68,-451.90
18130,-3.8746,-0.0439,0.5365,-1476.32,-1031.49,47.97
18140,-3.8746,-0.0166,0.5081,-1616.94,687.38,-1217.71
18150,-3.8746,-0.0083,0.5009,1883.06,1046.81,-920.90
18160,-3.8746,-0.0072,0.5106,-1054.44,124.94,969.73
18170,-3.8748,0.0034,0.5281,-913.82,1374.94,1594.73
18180,-3.8749,0.0356,0.5419,445.56,-406.25,-1608.40
18190,-3.8750,0.0928,0.5334,570.56,1359.44,-217.71
18200,-3.8750,0.1714,0.4841,-116.94,281.37,-983.34
18210,-3.8749,0.2424,0.4216,1945.56,1969.06,1094.67
18220,-3.8749,0.2786,0.3953,-960.69,1969.18,-249.21
18230,-3.8748,0.2927,0.4058,-335.69,-1405.76,250.73
18240,-3.8749,0.2899,0.4388,1476.81,-61.95,1688.23
18250,-3.8750,0.2812,0.4879,1117.43,172.42,1032.10
18260,-3.8440,0.2856,0.5319,8.06,-1546.33,-842.83
18270,-3.8441,0.3005,0.5573,570.56,78.67,1344.79
18280,-3.8442,0.3276,0.5597,-1523.19,-671.33,-1045.84
18290,-3.8441,0.3726,0.5427,1945.56,-358.76,1376.04
18300,-3.8440,0.4307,0.5170,-304.44,1469.42,-420.84
18310,-3.8750,0.4749,0.5051,-866.94,-1827.33,-436.52
18320,-3.8748,0.5013,0.5132,789.31,657.17,-1280.27
18330,-3.8745,0.5262,0.5115,179.93,1688.48,969.73
18340,-3.8744,0.5377,0.5099,-632.57,1469.73,-936.52
18350,-3.8743,0.5311,0.5413,836.18,1266.66,-327.15
18360,-3.8741,0.5381,0.5790,-7.57,1282.23,1891.66
18370,-3.8741,0.5776,0.5822,883.06,-1889.59,-592.65
18380,-3.8740,0.6372,0.5592,1945.56,-1483.28,-405.15
18390,-3.8738,0.6906,0.5621,1570.56,-420.65,-998.96
18400,-3.8735,0.7018,0.6189,398.68,-45.53,-1561.46
18410,-3.8734,0.6570,0.7084,1836.18,-779.91,-436.34
18420,-3.8733,0.5709,0.8153,101.81,-1326.84,907.59
18430,-3.8734,0.4569,0.9193,1086.18,360.47,392.21
18440,-3.8737,0.3389,0.9991,-1507.57,1672.73,1.77
18450,-3.8739,0.2617,1.0471,-616.94,-108.76,533.14
18460,-3.8740,0.2631,1.0479,1508.06,-1968.26,1845.76
18470,-3.8738,0.3260,1.0315,1679.93,-1874.51,80.14
18480,-3.8734,0.4020,1.0420,1742.43,31.86,-1544.86
18490,-3.8729,0.4667,1.0793,-538.82,1375.73,-1201.11
18500,-3.8726,0.5076,1.1387,-257.57,-1842.90,-185.42
18510,-3.8722,0.5228,1.1975,976.81,1750.98,127.20
18520,-3.8721,0.5081,1.2383,-1070.07,1282.23,580.44
18530,-3.8721,0.4580,1.2758,1039.31,-1499.02,314.88
18540,-3.8723,0.4008,1.3182,-1366.94,-702.27,-763.18
18550,-3.8724,0.3676,1.3628,-695.07,735.11,736.94
18560,-3.8727,0.3649,1.4072,-945.07,-1561.83,-13.00
18570,-3.8727,0.3774,1.4490,-1288.82,125.67,1737.12
18580,-3.8727,0.3815,1.4856,320.56,1469.48,1268.43
18590,-3.8727,0.3612,1.5160,836.18,-1843.02,565.37
18600,-3.8728,0.3165,1.5360,-1757.57,-1952.45,1877.93
18610,-3.8729,0.2616,1.5410,523.68,609.99,1471.74
18620,-3.8730,0.2069,1.5311,1492.43,1250.49,456.12
18630,-3.8733,0.1560,1.5137,-1507.57,-15.26,-606.45
18640,-3.8734,0.1173,1.4987,-23.19,1750.24,-1059.57
18650,-3.8734,0.0920,1.4850,-976.32,-171.69,705.99
18660,-3.8734,0.0647,1.4567,-210.69,-1921.75,-1903.38
18670,-3.8733,0.0201,1.4156,289.31,-1546.75,-1278.44
18680,-3.8732,-0.0396,1.3936,-1413.82,1203.12,-216.00
18690,-3.8730,-0.1141,1.3910,-1054.44,-1609.50,-1466.06
18700,-3.8730,-0.2114,1.3813,1398.68,-1937.74,-950.44
18710,-3.8730,-0.3130,1.3698,945.56,827.70,-1169.19
18720,-3.8730,-0.3944,1.3636,-54.44,-656.92,893.25
18730,-3.8732,-0.4460,1.3293,1523.68,-1438.29,237.00
18740,-3.8733,-0.4764,1.2517,-1085.69,-1829.04,1080.69
18750,-3.8733,-0.5096,1.1875,-976.32,233.40,1611.82
18760,-3.8733,-0.5621,1.1881,-1226.32,14.59,1814.82
18770,-3.8733,-0.6221,1.2521,54.93,92.65,64.82
18780,-3.8734,-0.6669,1.3475,383.06,280.03,1939.94
18790,-3.8735,-0.6879,1.4084,-1351.32,498.66,-403.63
18800,-3.8735,-0.6934,1.3795,-38.82,295.47,-841.00
18810,-3.8734,-0.6971,1.2964,-741.94,592.35,-1044.19
18820,-3.8732,-0.6898,1.2177,-1226.32,1951.72,815.00
18830,-3.8730,-0.6542,1.1282,-288.82,-126.40,1971.07
18840,-3.8729,-0.5903,1.0129,273.68,420.59,-435.30
18850,-3.8727,-0.5201,0.9138,445.56,1670.72,-1732.42
18860,-3.8726,-0.4607,0.8534,1429.93,983.34,-1435.73
18870,-3.8726,-0.4066,0.8029,1039.31,1249.08,-1279.60
18880,-3.8726,-0.3677,0.7603,-38.82,-1219.60,298.40
18890,-3.8728,-0.3687,0.7594,945.56,1327.39,-1201.66
18900,-3.8732,-0.4128,0.7980,820.56,1218.02,-670.41
18910,-3.8737,-0.4774,0.8374,-835.69,-1844.60,-1107.85
18920,-3.8741,-0.5349,0.8394,-1101.32,-797.85,-1420.29
18930,-3.8745,-0.5656,0.8026,-460.69,-547.97,-1295.29
18940,-3.8748,-0.5619,0.7469,-382.57,-1251.16,-326.60
18950,-3.8748,-0.5270,0.6716,86.18,-376.10,923.28
18960,-3.8748,-0.4719,0.5852,554.93,1983.34,1735.66
18970,-3.8748,-0.4053,0.5072,-398.19,-1079.10,-1202.03
18980,-3.8748,-0.3284,0.4340,133.06,936.71,-764.65
18990,-3.8746,-0.2544,0.3717,1976.81,-438.17,657.04
19000,-3.8746,-0.2040,0.3517,-554.44,-406.80,969.42
19010,-3.8748,-0.1813,0.3859,1898.68,1030.82,94.42
19020,-3.8439,-0.1741,0.4460,804.93,1405.88,-1936.77
19030,-3.8442,-0.1700,0.4983,1726.81,1109.01,-1077.27
19040,-3.8445,-0.1584,0.5526,-1757.57,-203.49,-827.21
19050,-3.8444,-0.1677,0.6123,-273.19,-1250.37,1313.54
19060,-3.8441,-0.2124,0.5991,-1460.69,-1609.74,-905.09
19070,-3.8441,-0.2178,0.4911,820.56,702.70,-467.59
19080,-3.8444,-0.1772,0.3746,133.06,-1125.43,-1436.58
19090,-3.8445,-0.1395,0.3086,1320.56,-31.62,-202.45
19100,-3.8442,-0.0957,0.3014,-1851.32,-484.68,-1515.08
19110,-3.8439,-0.0553,0.3086,-241.94,-1406.49,1547.42
19120,-3.8749,-0.0377,0.2993,929.93,-484.50,328.67
19130,-3.8750,-0.0223,0.3057,-820.07,-1672.00,-1468.20
19140,-3.8439,0.0154,0.3405,1148.68,-859.44,469.30
19150,-3.8441,0.0708,0.3815,1976.81,-421.88,-999.39
19160,-3.8442,0.1323,0.4139,1070.56,828.25,-249.27
19170,-3.8442,0.2018,0.4369,945.56,984.62,1953.92
19180,-3.8442,0.2683,0.4530,1836.18,-77.76,1344.54
19190,-3.8442,0.3235,0.4691,-1648.19,1984.86,-1811.65
19200,-3.8441,0.3639,0.4841,1414.31,47.49,516.54
19210,-3.8441,0.3889,0.4813,-1413.82,1969.42,-764.71
19220,-3.8440,0.4098,0.4640,1789.31,1610.11,1641.54
19230,-3.8440,0.4249,0.4613,461.18,-608.58,-46.02
19240,-3.8439,0.4204,0.5024,-1601.32,-952.33,1922.73
19250,-3.8750,0.4032,0.5850,1820.56,313.29,110.35
19260,-3.8750,0.4022,0.6545,-382.57,-1124.27,-1436.40
19270,-3.8749,0.4243,0.6765,-507.57,-218.02,79.35
19280,-3.8749,0.4548,0.6802,-1679.44,-1405.46,876.28
19290,-3.8749,0.4867,0.7076,-1773.19,-936.65,1220.03
19300,-3.8749,0.5278,0.7548,-1695.07,-1420.96,1001.34
19310,-3.8749,0.5833,0.8002,-429.44,610.35,-1686.04
19320,-3.8748,0.6400,0.8453,-1335.69,-1577.03,1673.40
19330,-3.8746,0.6888,0.8860,1929.93,204.35,1126.65
19340,-3.8745,0.7432,0.9122,179.93,1407.59,892.33
19350,-3.8744,0.7968,0.9482,-866.94,767.03,1283.02
19360,-3.8743,0.8198,1.0142,1992.43,1376.53,1986.21
19370,-3.8741,0.7930,1.0940,945.56,1814.09,-1951.17
19380,-3.8740,0.7324,1.1659,1508.06,32.78,658.39
19390,-3.8740,0.6793,1.2194,1758.06,1235.78,-1216.49
19400,-3.8739,0.6572,1.2411,-1038.82,79.41,-794.49
19410,-3.8735,0.6553,1.2246,133.06,-1139.34,439.88
19420,-3.8732,0.6493,1.1830,-116.94,751.22,-1638.24
19430,-3.8727,0.6271,1.1503,-882.57,-576.90,-1685.24
19440,-3.8722,0.5861,1.1641,273.68,-764.40,1095.95
19450,-3.8718,0.5472,1.2118,-976.32,1001.10,924.13
19460,-3.8716,0.5518,1.2537,-1945.07,-889.59,1814.82
19470,-3.8713,0.5969,1.2889,-1366.94,469.79,1393.07
19480,-3.8711,0.6265,1.3278,414.31,985.53,283.75
19490,-3.8710,0.6057,1.3507,195.56,1954.35,768.19
19500,-3.8710,0.5522,1.3457,1539.31,891.78,-1075.50
19510,-3.8710,0.4979,1.3192,-1304.44,251.04,-59.88
19520,-3.8710,0.4523,1.2887,-257.57,860.29,-106.81
19530,-3.8710,0.4103,1.2668,1898.68,953.98,1690.00
19540,-3.8711,0.3707,1.2556,523.68,-1842.96,752.44
19550,-3.8713,0.3347,1.2655,-538.82,719.42,939.94
19560,-3.8717,0.3107,1.2965,-1148.19,1984.99,-1028.81
19570,-3.8719,0.3011,1.3306,-226.32,1953.67,533.75
19580,-3.8723,0.2949,1.3629,-1445.07,-1686.95,-1716.19
19590,-3.8726,0.2880,1.3942,1758.06,-1546.33,1190.12
19600,-3.8728,0.2777,1.3972,867.43,-1546.33,-856.69
19610,-3.8728,0.2545,1.3584,-445.07,-1155.76,-1044.19
19620,-3.8727,0.2029,1.3093,586.18,1875.49,-684.88
19630,-3.8726,0.1151,1.2675,1976.81,-405.88,-356.87
19640,-3.8724,0.0056,1.2357,-1257.57,-1765.44,1752.44
19650,-3.8724,-0.1053,1.2192,726.81,-1828.12,1705.51
19660,-3.8724,-0.2084,1.2103,-1476.32,77.88,1908.63
19670,-3.8723,-0.3011,1.2032,1336.18,-1062.93,471.07
19680,-3.8722,-0.3831,1.1934,1461.18,-1969.36,142.94
19690,-3.8722,-0.4539,1.1783,-1023.19,764.83,-1935.18
19700,-3.8722,-0.5021,1.1716,1914.31,-1157.17,1158.51
19710,-3.8723,-0.5178,1.1654,-257.57,1983.34,-1028.99
19720,-3.8723,-0.5035,1.1278,1726.81,1186.46,1846.01
19730,-3.8723,-0.4746,1.0605,-445.07,373.96,-997.80
19740,-3.8722,-0.4557,1.0009,-741.94,-235.35,1345.76
19750,-3.8722,-0.4581,0.9664,1679.93,124.08,1923.83
19760,-3.8723,-0.4678,0.9432,1367.43,-282.17,-826.29
19770,-3.8724,-0.4740,0.9197,133.06,749.08,1829.96
19780,-3.8727,-0.4849,0.8971,-663.82,1733.40,-654.48
19790,-3.8728,-0.5095,0.8724,1945.56,-1157.23,329.83
19800,-3.8730,-0.5439,0.8312,-1210.69,-313.54,1782.90
19810,-3.8732,-0.5703,0.7708,-1616.94,-1594.85,1251.59
19820,-3.8733,-0.5808,0.7106,-991.94,-1329.28,-1545.41
19830,-3.8733,-0.5734,0.6692,1664.31,-1032.41,16.97
19840,-3.8734,-0.5453,0.6406,-1382.57,1670.72,1220.03
19850,-3.8735,-0.5042,0.6210,-1788.82,-1985.47,-1998.78
19860,-3.8737,-0.4664,0.6188,-523.19,-501.04,1376.16
19870,-3.8739,-0.4410,0.6315,304.93,-782.17,-1498.84
19880,-3.8741,-0.4199,0.6432,-445.07,842.83,-1701.90
19890,-3.8744,-0.3959,0.6396,-1741.94,-1657.10,-1561.28
19900,-3.8746,-0.3745,0.6276,1336.18,1889.83,-545.65
19910,-3.8748,-0.3610,0.6050,70.56,343.02,1079.35
19920,-3.8749,-0.3473,0.5453,1804.93,1452.39,1204.28
19930,-3.8749,-0.3285,0.4589,-445.07,1811.77,-1577.09
19940,-3.8748,-0.3131,0.3975,1961.18,-1250.67,-905.40
19950,-3.8746,-0.3079,0.3864,-70.07,-1110.05,-1608.64
19960,-3.8746,-0.3057,0.4053,601.81,1468.14,1485.11
19970,-3.8749,-0.2987,0.4307,883.06,-109.99,-14.89
19980,-3.8439,-0.2852,0.4525,1773.68,-859.99,-889.83
19990,-3.8441,-0.2605,0.4655,-491.94,1936.89,1922.73
20000,-3.8444,-0.2223,0.4731,-1335.69,-406.80,-764.77
20010,-3.8445,-0.1732,0.4788,-445.07,577.64,-655.33
20020,-3.8445,-0.1194,0.4818,1836.18,1296.51,1016.54
20030,-3.8445,-0.0667,0.4855,726.81,1687.26,16.54
20040,-3.8445,-0.0148,0.4843,-523.19,-1843.93,469.67
20050,-3.8445,0.0370,0.4658,-1882.57,1999.94,-1827.21
20060,-3.8444,0.0826,0.4347,742.43,-374.94,1235.23
20070,-3.8442,0.1118,0.4148,-1413.82,-359.25,828.92
20080,-3.8442,0.1193,0.4186,-1679.44,1093.93,-1530.46
20090,-3.8442,0.1106,0.4332,-726.32,1578.31,1250.79
20100,-3.8444,0.0957,0.4420,-1835.69,-546.69,-1077.33
20110,-3.8444,0.0862,0.4424,258.06,578.31,1016.48
20120,-3.8444,0.0918,0.4386,-960.69,625.12,32.10
20130,-3.8444,0.1176,0.4353,-241.94,140.75,313.35
20140,-3.8444,0.1558,0.4429,-945.07,-281.07,-1171.08
20150,-3.8442,0.1940,0.4707,-54.44,687.74,-874.15
20160,-3.8441,0.2301,0.4999,836.18,250.37,-61.58
20170,-3.8439,0.2628,0.5042,1461.18,-15.20,922.79
20180,-3.8750,0.2783,0.4969,1648.68,531.74,1032.23
20190,-3.8750,0.2764,0.5006,-366.94,-390.14,-764.71
20200,-3.8749,0.2716,0.5212,-616.94,78.61,532.23
20210,-3.8749,0.2773,0.5583,-1226.32,-1280.76,-1780.27
20220,-3.8748,0.3085,0.5995,-491.94,-530.76,829.16
20230,-3.8746,0.3656,0.6326,-507.57,734.92,829.28
20240,-3.8745,0.4304,0.6622,-1195.07,969.42,-1826.90
20250,-3.8744,0.4752,0.6996,-898.19,766.42,-826.84
20260,-3.8743,0.4872,0.7415,836.18,1547.79,1751.34
20270,-3.8743,0.4846,0.7744,-1632.57,-1092.83,-1686.10
20280,-3.8743,0.4890,0.8070,-1960.69,-874.08,-1654.79
20290,-3.8743,0.5107,0.8654,-1398.19,-702.21,-998.47
20300,-3.8741,0.5543,0.9465,1383.06,-1233.40,-1826.48
20310,-3.8740,0.6169,1.0204,-1038.82,1157.29,-607.54
20320,-3.8738,0.7020,1.0616,-1023.19,-1389.47,486.33
20330,-3.8737,0.8134,1.0762,1867.43,-108.03,-1154.24
20340,-3.8733,0.9207,1.1133,117.43,1751.59,158.33
20350,-3.8730,0.9843,1.2007,1851.81,-1498.23,-1935.36
20360,-3.8728,0.9866,1.3041,1992.43,1689.39,1736.69
20370,-3.8727,0.9418,1.3741,-1710.69,-1076.23,-341.25
20380,-3.8724,0.8866,1.3798,554.93,-107.54,1440.12
20390,-3.8722,0.8506,1.3195,1492.43,611.08,1018.31
20400,-3.8718,0.8434,1.2448,883.06,892.27,940.06
20410,-3.8715,0.8600,1.2271,-38.82,-670.29,-435.12
20420,-3.8711,0.8889,1.2844,-1913.82,1064.15,-1466.37
20430,-3.8710,0.9033,1.3851,1789.31,407.96,940.00
20440,-3.8712,0.8750,1.4885,-366.94,1298.58,-559.81
20450,-3.8715,0.8062,1.5612,8.06,-1467.04,-1122.13
20460,-3.8717,0.7217,1.5826,-804.44,-170.35,-668.88
20470,-3.8718,0.6478,1.5587,383.06,-1420.47,-1481.32
20480,-3.8718,0.6024,1.5015,-1070.07,-483.15,659.24
20490,-3.8718,0.5923,1.4292,1117.43,188.66,-1809.57
20500,-3.8717,0.5869,1.3700,-179.44,-1061.40,-1778.50
20510,-3.8716,0.5449,1.3331,-866.94,-639.53,1112.00
20520,-3.8717,0.4751,1.3091,1758.06,-1358.34,-28.69
20530,-3.8718,0.4011,1.2936,820.56,-436.58,-1575.62
20540,-3.8721,0.3220,1.2993,-648.19,1578.86,-1731.87
20550,-3.8723,0.2278,1.3190,1226.81,-1686.89,1721.25
20560,-3.8726,0.1218,1.3186,1164.31,828.55,-1372.44
20570,-3.8727,0.0149,1.2653,-398.19,781.43,-13.06
20580,-3.8726,-0.0906,1.1873,1914.31,1953.12,-669.43
20590,-3.8723,-0.1985,1.1360,414.31,-15.81,986.63
20600,-3.8722,-0.3020,1.1023,-1398.19,1421.45,1642.82
20610,-3.8721,-0.3881,1.0696,1351.81,1108.76,1830.26
20620,-3.8719,-0.4633,1.0500,-1663.82,921.08,1923.95
20630,-3.8718,-0.5300,1.0581,711.18,-1579.04,439.51
20640,-3.8719,-0.5775,1.0895,164.31,-547.91,-372.99
20650,-3.8721,-0.5980,1.1277,-1913.82,-532.41,-247.92
20660,-3.8722,-0.5928,1.1582,-538.82,358.15,-950.93
20670,-3.8723,-0.5742,1.1666,133.06,264.47,-1341.49
20680,-3.8724,-0.5580,1.1315,-1491.94,1342.59,-1716.49
20690,-3.8726,-0.5573,1.0453,586.18,842.65,-1529.05
20700,-3.8726,-0.5653,0.9375,679.93,1811.40,1064.51
20710,-3.8726,-0.5693,0.8407,-351.32,14.47,-795.04
20720,-3.8724,-0.5673,0.7720,-866.94,-376.16,-279.66
20730,-3.8723,-0.5669,0.7332,-601.32,-1173.03,-654.79
20740,-3.8723,-0.5802,0.7043,-554.44,1858.22,-342.35
20750,-3.8724,-0.6165,0.6879,1742.43,-1829.28,-186.16
20760,-3.8727,-0.6685,0.6974,1101.81,61.28,-998.66
20770,-3.8730,-0.7072,0.7209,-1554.44,1279.91,1751.34
20780,-3.8735,-0.7151,0.7411,1492.43,295.47,-1732.97
20790,-3.8740,-0.7020,0.7533,476.81,-1126.40,-686.10
20800,-3.8744,-0.6816,0.7489,-1851.32,436.10,-686.04
20810,-3.8746,-0.6549,0.7191,758.06,-126.34,-1170.47
20820,-3.8748,-0.6167,0.6688,179.93,61.22,1438.90
20830,-3.8749,-0.5588,0.5906,1070.56,1623.78,-233.09
20840,-3.8748,-0.4846,0.4829,476.81,-391.72,-217.65
20850,-3.8744,-0.4237,0.4011,1976.81,1827.15,63.42
20860,-3.8743,-0.4017,0.3971,1773.68,-641.48,1485.11
20870,-3.8744,-0.4080,0.4513,586.18,-1157.04,-1077.39
20880,-3.8746,-0.4152,0.5074,-210.69,1780.40,1516.48
20890,-3.8750,-0.4181,0.5256,-1132.57,967.90,1516.60
20900,-3.8441,-0.4249,0.5117,-1507.57,-703.98,-1108.40
20910,-3.8444,-0.4313,0.4950,1617.43,1514.77,-842.77
20920,-3.8445,-0.4185,0.4827,804.93,-625.85,-1670.96
20930,-3.8445,-0.3748,0.4680,-1554.44,1796.02,719.67
20940,-3.8445,-0.3167,0.4569,39.31,-78.86,1610.23
20950,-3.8445,-0.2650,0.4431,-523.19,-1500.67,-217.90
20960,-3.8444,-0.2279,0.4189,-1913.82,733.83,-952.27
20970,-3.8442,-0.2030,0.3959,-1163.82,1640.14,-1046.08
20980,-3.8441,-0.1790,0.3824,-1976.32,-1312.93,-1843.02
20990,-3.8440,-0.1421,0.3745,1101.81,968.38,0.73
21000,-3.8440,-0.0819,0.3701,1820.56,-47.18,1391.30
21010,-3.8440,-0.0035,0.3744,1523.68,-609.56,-1108.70
21020,-3.8440,0.0703,0.3900,-445.07,-62.56,-405.58
21030,-3.8440,0.1208,0.4113,1008.06,1922.00,-1936.77
21040,-3.8441,0.1505,0.4297,-523.19,640.81,-1702.33
21050,-3.8442,0.1718,0.4387,-726.32,-999.76,1828.92
21060,-3.8444,0.1901,0.4432,1992.43,156.56,-1639.77
21070,-3.8444,0.2039,0.4534,336.18,734.74,797.73
21080,-3.8444,0.2141,0.4640,-1898.19,-1968.38,1266.48
21090,-3.8444,0.2213,0.4662,-585.69,-609.01,-327.27
21100,-3.8442,0.2206,0.4626,336.18,-327.70,-686.65
21110,-3.8441,0.2151,0.4592,242.43,-780.82,-842.90
21120,-3.8440,0.2094,0.4568,-460.69,-1218.38,-1671.02
21130,-3.8439,0.1992,0.4617,-1195.07,-1530.88,16.48
21140,-3.8439,0.1870,0.4868,1508.06,-905.88,313.35
21150,-3.8439,0.1848,0.5342,-54.44,-1687.19,969.67
21160,-3.8750,0.2025,0.5822,-335.69,375.31,282.29
21170,-3.8749,0.2463,0.6062,1929.93,-1484.01,-983.28
21180,-3.8746,0.3083,0.6222,-460.69,1594.18,-1373.84
21190,-3.8745,0.3711,0.6549,-523.19,-358.83,-76.97
21200,-3.8744,0.4288,0.7010,-491.94,-171.20,-811.28
21210,-3.8743,0.4794,0.7571,-1101.32,1735.17,-1936.16
21220,-3.8741,0.5256,0.8188,1367.43,907.17,1376.46
21230,-3.8740,0.5828,0.8652,-710.69,813.48,-1014.04
21240,-3.8738,0.6378,0.8987,-1398.19,-1248.90,-1873.35
21250,-3.8737,0.6577,0.9514,1648.68,-967.53,-1951.42
21260,-3.8737,0.6453,1.0247,195.56,1782.53,1173.71
21270,-3.8738,0.6265,1.0968,-1398.19,-842.53,-1998.05
21280,-3.8739,0.6104,1.1660,195.56,391.85,-1513.49
21290,-3.8739,0.6101,1.2169,-1866.94,1251.16,877.26
21300,-3.8738,0.6393,1.2268,-1898.19,-233.22,283.57
21310,-3.8735,0.6711,1.2207,1836.18,1032.47,314.88
21320,-3.8733,0.6693,1.2354,1914.31,251.28,1439.88
21330,-3.8730,0.6223,1.2722,1679.93,-1873.72,1502.38
21340,-3.8728,0.5424,1.3196,-335.69,-1155.09,1299.32
21350,-3.8726,0.4536,1.3657,1429.93,907.29,971.31
21360,-3.8724,0.3907,1.3846,-1929.44,-1186.65,-638.00
21370,-3.8722,0.3938,1.3601,-1976.32,1235.11,1596.44
21380,-3.8719,0.4578,1.3176,-1585.69,-1905.52,815.12
21390,-3.8717,0.5487,1.2885,-1398.19,657.10,846.31
21400,-3.8715,0.6365,1.2802,-1757.57,922.91,1924.38
21410,-3.8712,0.6799,1.3000,1476.81,-139.40,1314.94
21420,-3.8712,0.6573,1.3514,-960.69,-1592.47,-1403.75
21430,-3.8713,0.5834,1.4296,148.68,985.66,377.62
21440,-3.8717,0.4906,1.5110,-1320.07,-1014.53,1080.87
21450,-3.8721,0.4080,1.5604,-1195.07,1407.17,690.43
21460,-3.8724,0.3527,1.5792,226.81,-264.83,-997.01
21470,-3.8726,0.3149,1.5817,1148.68,-1858.70,-1825.07
21480,-3.8726,0.2808,1.5516,320.56,-1546.26,-778.20
21490,-3.8723,0.2590,1.4781,-54.44,-1390.14,-1309.51
21500,-3.8719,0.2466,1.3925,1164.31,1203.61,-1434.63
21510,-3.8716,0.2311,1.3320,-429.44,-1765.20,-1028.56
21520,-3.8712,0.2023,1.2990,1586.18,-1499.57,815.06
21530,-3.8711,0.1412,1.2795,1898.68,-1734.01,-1638.12
21540,-3.8711,0.0315,1.2681,-1913.82,-218.51,-763.18
21550,-3.8711,-0.1184,1.2574,39.31,-1687.44,314.94
21560,-3.8713,-0.2787,1.2424,851.81,968.51,1971.19
21570,-3.8716,-0.4135,1.2205,336.18,-953.67,1783.63
21580,-3.8718,-0.4998,1.1736,-913.82,233.52,-1013.24
21590,-3.8719,-0.5482,1.0869,39.31,-1766.60,-44.62
21600,-3.8718,-0.5751,0.9761,1836.18,-860.47,1064.58
21610,-3.8717,-0.5940,0.8738,-1601.32,951.97,1126.89
21620,-3.8716,-0.6119,0.8088,-23.19,-141.85,-1998.35
21630,-3.8715,-0.6198,0.7909,1679.93,-454.35,1126.53
21640,-3.8715,-0.6228,0.8080,679.93,1248.78,235.90
21650,-3.8717,-0.6344,0.8386,289.31,-563.72,-1810.97
21660,-3.8719,-0.6608,0.8596,-1195.07,-641.91,392.21
21670,-3.8723,-0.6974,0.8644,-570.07,-1954.47,1095.40
21680,-3.8727,-0.7278,0.8617,-1257.57,-1345.15,1173.52
21690,-3.8730,-0.7310,0.8251,-1148.19,-1688.96,1689.15
21700,-3.8733,-0.6891,0.7123,-1554.44,1623.54,-1514.04
21710,-3.8733,-0.6179,0.5530,-195.07,-813.90,-467.41
21720,-3.8730,-0.5660,0.4409,914.31,-1204.35,-1202.09
21730,-3.8728,-0.5596,0.4332,-445.07,451.97,516.48
21740,-3.8729,-0.5730,0.4952,383.06,-532.35,-1546.08
21750,-3.8733,-0.5791,0.5574,-1335.69,-594.91,-124.08
21760,-3.8737,-0.5789,0.5889,1883.06,-641.78,1563.54
21770,-3.8740,-0.5712,0.5966,1914.31,-610.53,922.97
21780,-3.8744,-0.5509,0.5963,-1101.32,373.84,-1295.72
21790,-3.8746,-0.5165,0.5968,1492.43,342.65,1141.78
21800,-3.8749,-0.4641,0.5767,1898.68,405.21,219.91
21810,-3.8439,-0.3978,0.5221,601.81,1827.21,-1545.78
21820,-3.8439,-0.3431,0.4652,1086.18,-1157.04,1235.35
21830,-3.8439,-0.3173,0.4329,86.18,-438.17,-1108.52
21840,-3.8750,-0.3099,0.4221,-601.32,-578.80,532.04
21850,-3.8750,-0.3052,0.4250,336.18,-1953.74,63.29
21860,-3.8439,-0.2985,0.4325,945.56,-1578.74,1016.42
21870,-3.8440,-0.2894,0.4379,1804.93,-625.61,360.17
21880,-3.8442,-0.2726,0.4447,-1038.82,61.89,-889.77
21890,-3.8444,-0.2396,0.4520,1117.43,936.95,1719.60
21900,-3.8445,-0.1855,0.4475,1336.18,1874.51,1203.98
21910,-3.8446,-0.1199,0.4340,258.06,1296.51,-1092.90
21920,-3.8446,-0.0482,0.4139,664.31,-437.74,-1061.71
21930,-3.8445,0.0222,0.3927,1836.18,999.88,1313.29
21940,-3.8444,0.0807,0.3894,-1148.19,-1734.38,1188.23
21950,-3.8442,0.1266,0.4000,-1663.82,1843.87,16.36
21960,-3.8442,0.1555,0.4114,211.18,-796.63,203.86
21970,-3.8444,0.1716,0.4182,-85.69,656.49,-1092.96
21980,-3.8444,0.1816,0.4207,1976.81,1531.56,-1717.96
21990,-3.8444,0.1786,0.4283,-741.94,1844.06,-1421.08
22000,-3.8444,0.1720,0.4381,-1132.57,-1171.57,-1592.96
22010,-3.8444,0.1805,0.4401,-1976.32,78.43,1844.60
22020,-3.8444,0.2074,0.4449,-882.57,328.43,-1405.40
22030,-3.8442,0.2444,0.4620,-1445.07,953.49,985.23
22040,-3.8442,0.2882,0.4771,-710.69,-858.95,-14.77
22050,-3.8441,0.3395,0.4803,898.68,1063.05,-233.46
22060,-3.8439,0.3887,0.4968,-538.82,1484.99,766.54
22070,-3.8750,0.4323,0.5465,1758.06,-405.52,-1936.58
22080,-3.8749,0.4756,0.5947,-663.82,1953.92,-795.84
22090,-3.8746,0.5117,0.6163,883.06,125.92,266.78
22100,-3.8746,0.5347,0.6362,1508.06,-1108.40,-45.72
22110,-3.8745,0.5568,0.6738,445.56,1438.54,-1748.78
22120,-3.8744,0.5765,0.7274,-726.32,-1748.96,1298.16
22130,-3.8743,0.5887,0.7847,1804.93,1110.47,548.28
22140,-3.8743,0.6101,0.8228,-632.57,438.60,-576.60
22150,-3.8741,0.6370,0.8538,-1898.19,1313.66,-576.54
22160,-3.8740,0.6393,0.9128,1539.31,1282.47,-388.98
22170,-3.8739,0.6196,0.9884,1836.18,844.97,-1482.60
22180,-3.8738,0.6030,1.0529,-679.44,-1483.22,845.64
22190,-3.8738,0.5935,1.1041,1195.56,-1233.22,-482.36
22200,-3.8737,0.5908,1.1450,-23.19,1329.22,-200.99
22210,-3.8734,0.5933,1.1742,-366.94,-1436.40,-1372.80
22220,-3.8732,0.5861,1.1930,-54.44,-1702.03,-1325.87
22230,-3.8729,0.5675,1.2004,-976.32,704.22,1642.94
22240,-3.8728,0.5441,1.1984,648.68,1657.35,-513.31
22250,-3.8726,0.5062,1.2010,1648.68,1391.66,-1950.81
22260,-3.8723,0.4535,1.2114,804.93,1735.35,1455.44
22270,-3.8721,0.4100,1.2181,-1945.07,-936.65,486.69
22280,-3.8719,0.3844,1.2308,492.43,-77.33,-997.68
22290,-3.8717,0.3582,1.2777,1211.18,1547.61,1580.51
22300,-3.8715,0.3263,1.3500,1851.81,-452.45,2.44
22310,-3.8713,0.2937,1.4110,1773.68,797.49,1908.87
22320,-3.8712,0.2498,1.4525,1601.81,609.92,-247.25
22330,-3.8710,0.1854,1.4800,-23.19,1922.30,1924.68
22340,-3.8707,0.1075,1.4966,-257.57,1437.81,2.87
22350,-3.8706,0.0425,1.4933,1773.68,-437.32,1034.12
22360,-3.8705,0.0077,1.4644,1445.56,-859.31,393.49
22370,-3.8705,-0.0040,1.4302,992.43,-562.50,1909.06
22380,-3.8705,0.0043,1.4067,-507.57,-921.94,1268.37
22390,-3.8706,0.0242,1.3983,554.93,62.50,-1419.13
22400,-3.8707,0.0410,1.3997,-898.19,-1015.62,-966.06
22410,-3.8708,0.0522,1.3969,1258.06,-843.69,-1122.31
22420,-3.8710,0.0549,1.3779,-1304.44,-1203.06,-1872.31
22430,-3.8711,0.0426,1.3345,-960.69,375.06,1815.19
22440,-3.8712,0.0051,1.2733,1461.18,-1187.44,-1388.06
22450,-3.8713,-0.0690,1.2183,664.31,-1015.62,-544.43
22460,-3.8715,-0.1737,1.1814,-820.07,-47.06,-1513.31
22470,-3.8717,-0.2820,1.1444,1773.68,-765.99,-388.37
22480,-3.8718,-0.3767,1.0887,-85.69,-1500.61,892.82
22490,-3.8721,-0.4703,1.0366,-210.69,-625.79,-216.67
22500,-3.8722,-0.5593,1.0101,-195.07,702.15,-607.36
22510,-3.8723,-0.6252,0.9950,414.31,1311.40,-1998.05
22520,-3.8726,-0.6547,0.9647,-23.19,-626.28,-263.73
22530,-3.8727,-0.6500,0.9034,211.18,-501.28,-1373.17
22540,-3.8727,-0.6345,0.8146,804.93,-345.03,376.71
22550,-3.8727,-0.6266,0.7280,-1210.69,279.97,876.59
22560,-3.8727,-0.6342,0.6780,-195.07,1201.84,1298.28
22570,-3.8728,-0.6498,0.6641,-1163.82,-1204.41,-1326.84
22580,-3.8729,-0.6620,0.6641,836.18,1014.34,595.03
22590,-3.8732,-0.6722,0.6639,-726.32,1014.28,204.41
22600,-3.8735,-0.6863,0.6508,1961.18,998.66,-483.09
22610,-3.8737,-0.6937,0.5984,164.31,-688.84,1610.60
22620,-3.8737,-0.6780,0.5082,-788.82,607.97,891.78
22630,-3.8735,-0.6399,0.4286,1226.81,1061.16,235.35
22640,-3.8734,-0.6011,0.3854,-1898.19,-1126.28,469.54
22650,-3.8734,-0.5895,0.3755,-929.44,1342.53,-827.39
22660,-3.8734,-0.6100,0.4099,554.93,76.97,110.11
22670,-3.8738,-0.6447,0.4816,1929.93,483.15,1188.29
22680,-3.8743,-0.6665,0.5482,1492.43,1654.97,-670.96
22690,-3.8746,-0.6571,0.5720,-1304.44,-1813.84,-280.21
22700,-3.8749,-0.6213,0.5581,-101.32,1233.03,-686.40
22710,-3.8750,-0.5760,0.5354,476.81,-548.10,1469.79
22720,-3.8439,-0.5339,0.5172,-1726.32,545.72,1563.54
22730,-3.8440,-0.4982,0.5065,-335.69,-1782.35,-1545.90
22740,-3.8441,-0.4615,0.4919,242.43,842.77,-1124.02
22750,-3.8441,-0.4194,0.4600,929.93,-1016.54,1141.54
22760,-3.8440,-0.3794,0.4275,-1679.44,-1110.23,282.10
22770,-3.8439,-0.3459,0.4120,-554.44,-1266.42,1500.79
22780,-3.8439,-0.3152,0.4139,-273.19,749.27,-124.21
22790,-3.8439,-0.2816,0.4330,-335.69,999.33,-1311.71
22800,-3.8440,-0.2435,0.4628,-38.82,-563.11,-561.71
22810,-3.8441,-0.2058,0.4945,836.18,-750.49,-1421.02
22820,-3.8442,-0.1715,0.5215,1664.31,-687.93,594.67
22830,-3.8445,-0.1409,0.5405,-1945.07,-1234.74,-1749.02
22840,-3.8446,-0.1099,0.5463,1976.81,1202.82,172.91
22850,-3.8447,-0.0736,0.5261,1945.56,1937.26,157.29
22860,-3.8447,-0.0402,0.4813,-1413.82,-640.81,485.35
22870,-3.8446,-0.0231,0.4377,-1132.57,1624.88,1391.54
22880,-3.8444,-0.0225,0.4114,1054.93,46.81,16.48
22890,-3.8442,-0.0264,0.4010,1133.06,671.81,1125.79
22900,-3.8442,-0.0209,0.4087,633.06,-656.31,-202.39
22910,-3.8441,0.0074,0.4219,1336.18,328.06,578.92
22920,-3.8441,0.0632,0.4291,961.18,-2000.00,1110.17
22930,-3.8441,0.1309,0.4449,101.81,-1078.00,-796.08
22940,-3.8440,0.1892,0.4794,758.06,953.37,-1592.90
22950,-3.8439,0.2324,0.5245,226.81,1359.74,1407.17
22960,-3.8750,0.2620,0.5612,1758.06,-858.95,204.10
22970,-3.8750,0.2935,0.5629,1539.31,-171.39,-1264.59
22980,-3.8749,0.3502,0.5193,1570.56,47.42,-1795.78
22990,-3.8746,0.4232,0.4835,836.18,-1530.58,1547.85
23000,-3.8744,0.4895,0.5153,-1820.07,1891.42,-280.33
23010,-3.8740,0.5444,0.5966,-1335.69,1954.04,860.35
23020,-3.8739,0.5981,0.6768,1695.56,360.41,-1123.84
23030,-3.8738,0.6605,0.7390,570.56,-1373.84,1329.41
23040,-3.8738,0.7362,0.7926,554.93,-1404.97,1485.78
23050,-3.8738,0.8259,0.8431,-1757.57,1454.53,1907.78
23060,-3.8738,0.9177,0.8937,1726.81,-76.54,-232.79
23070,-3.8737,1.0100,0.9390,1476.81,-1607.60,-1638.92
23080,-3.8735,1.1086,0.9744,1289.31,189.45,-1951.29
23090,-3.8734,1.1866,1.0105,1914.31,720.89,-1076.23
23100,-3.8733,1.2101,1.0513,-101.32,1346.01,-951.17
23110,-3.8732,1.1881,1.0863,-1101.32,-1435.18,1298.89
23120,-3.8732,1.1569,1.1084,86.18,-950.81,-1685.42
23130,-3.8732,1.1449,1.1212,86.18,1877.26,-810.36
23140,-3.8730,1.1688,1.1398,-1445.07,-482.18,-1872.86
23150,-3.8729,1.2084,1.1891,1617.43,1892.88,-138.43
