timestamp_ms,ax,ay,az,gx,gy,gz
0,-3.8702,-0.4265,-0.3667,429.93,-219.60,1577.45
10,-3.8700,-0.4340,-0.4009,1414.31,1077.27,-1469.48
20,-3.8698,-0.4515,-0.4164,461.18,702.27,1421.08
30,-3.8696,-0.4673,-0.4236,-1788.82,-1282.17,1811.65
40,-3.8695,-0.4658,-0.4243,195.56,1795.96,889.77
50,-3.8695,-0.4396,-0.4198,383.06,1702.21,-235.23
60,-3.8694,-0.3926,-0.4154,-257.57,-1719.67,1827.27
70,-3.8694,-0.3315,-0.4104,1758.06,-1157.04,-1891.48
80,-3.8694,-0.2631,-0.4012,1570.56,-516.30,842.90
90,-3.8695,-0.1935,-0.3839,-1663.82,655.70,-453.92
100,-3.8694,-0.1257,-0.3602,-757.57,-1125.43,171.08
110,-3.8694,-0.0625,-0.3412,-85.69,1905.94,-844.48
120,-3.8693,-0.0082,-0.3394,8.06,343.63,-1156.92
130,-3.8691,0.0338,-0.3500,-1038.82,578.06,1436.83
140,-3.8691,0.0702,-0.3546,336.18,-796.81,-1688.23
150,-3.8691,0.1072,-0.3508,992.43,-1390.50,-1891.36
160,-3.8691,0.1454,-0.3451,1726.81,-906.07,-1860.11
170,-3.8691,0.1816,-0.3401,-1382.57,-171.63,-938.23
180,-3.8691,0.2042,-0.3351,-741.94,469.06,-453.80
190,-3.8691,0.2091,-0.3260,-1851.32,1109.74,1780.58
200,-3.8693,0.2065,-0.3119,-1226.32,-1734.01,1718.08
210,-3.8694,0.2128,-0.2957,-1554.44,78.49,858.76
220,-3.8695,0.2307,-0.2756,-757.57,-1843.38,390.01
230,-3.8698,0.2570,-0.2467,1539.31,719.18,-188.05
240,-3.8699,0.2889,-0.2098,898.68,422.36,-1562.99
250,-3.8700,0.3226,-0.1718,992.43,1141.17,62.07
260,-3.8702,0.3577,-0.1373,1304.93,-1983.76,859.01
270,-3.8705,0.3915,-0.1064,1789.31,-1577.45,1280.94
280,-3.8707,0.4238,-0.0745,-1882.57,-1624.27,-1843.99
290,-3.8708,0.4556,-0.0394,-1741.94,-1530.46,124.82
300,-3.8711,0.4827,-0.0056,-1679.44,-1046.02,-1172.00
310,-3.8712,0.5038,0.0267,1789.31,-717.83,1921.81
320,-3.8713,0.5209,0.0587,492.43,-577.15,1312.50
330,-3.8715,0.5337,0.0861,-1320.07,-483.40,734.44
340,-3.8716,0.5371,0.1071,320.56,-983.34,375.12
350,-3.8717,0.5281,0.1276,758.06,1704.16,312.68
360,-3.8718,0.5142,0.1544,-398.19,329.10,578.37
370,-3.8719,0.5081,0.1865,1820.56,-233.40,1515.87
380,-3.8721,0.5142,0.2147,1039.31,-124.02,-1077.82
390,-3.8721,0.5258,0.2344,1820.56,-514.65,328.49
400,-3.8722,0.5350,0.2477,-695.07,-1999.02,1422.30
410,-3.8723,0.5369,0.2560,492.43,-295.84,-1499.57
420,-3.8724,0.5275,0.2612,726.81,766.66,-15.14
430,-3.8724,0.5051,0.2626,-476.32,1438.48,-1999.51
440,-3.8724,0.4757,0.2585,664.31,1610.35,297.36
450,-3.8726,0.4536,0.2531,898.68,1094.67,-1968.26
460,-3.8727,0.4480,0.2435,-1929.44,391.48,-718.26
470,-3.8727,0.4573,0.2239,1351.81,-827.27,1281.68
480,-3.8727,0.4694,0.1956,-1460.69,657.10,766.05
490,-3.8727,0.4686,0.1694,86.18,1032.17,1531.62
500,-3.8727,0.4451,0.1604,-7.57,1688.35,-1312.19
510,-3.8727,0.3994,0.1741,976.81,532.10,-640.32
520,-3.8727,0.3466,0.1991,-866.94,-1718.02,-937.19
530,-3.8727,0.3051,0.2119,367.43,1485.05,1750.37
540,-3.8728,0.2815,0.2015,-945.07,-874.45,-15.26
550,-3.8728,0.2651,0.1808,39.31,1797.42,-1421.51
560,-3.8728,0.2438,0.1675,1945.56,-858.89,1734.68
570,-3.8728,0.2159,0.1654,-788.82,1437.93,1187.81
580,-3.8728,0.1855,0.1669,-351.32,1172.24,594.06
590,-3.8729,0.1591,0.1630,-241.94,1359.68,-140.32
600,-3.8729,0.1388,0.1497,367.43,859.68,-1015.32
610,-3.8729,0.1198,0.1276,1773.68,-843.51,-1921.63
620,-3.8729,0.1008,0.0962,-663.82,328.31,1265.87
630,-3.8729,0.0885,0.0500,914.31,312.68,1172.06
640,-3.8729,0.0830,-0.0139,-663.82,-1593.63,-1203.06
650,-3.8728,0.0741,-0.0812,-1366.94,-1781.13,-1203.19
660,-3.8726,0.0498,-0.1218,1492.43,1609.50,968.57
670,-3.8723,0.0034,-0.1166,-1616.94,406.31,281.01
680,-3.8722,-0.0590,-0.0801,445.56,1078.12,-484.62
690,-3.8719,-0.1243,-0.0477,461.18,1765.50,1874.82
700,-3.8718,-0.1841,-0.0399,101.81,1906.01,-515.75
710,-3.8716,-0.2396,-0.0571,445.56,-1094.12,703.00
720,-3.8715,-0.2985,-0.0895,1336.18,702.64,1203.00
730,-3.8713,-0.3662,-0.1100,1804.93,561.89,15.44
740,-3.8713,-0.4390,-0.0961,1133.06,1936.77,218.51
750,-3.8715,-0.5079,-0.0592,-179.44,-282.17,1999.76
760,-3.8716,-0.5685,-0.0244,-1007.57,436.46,-1281.37
770,-3.8717,-0.6172,-0.0029,-757.57,889.47,-359.44
780,-3.8717,-0.6436,0.0085,1008.06,-360.60,968.69
790,-3.8718,-0.6396,0.0145,1633.06,1108.09,-1250.00
800,-3.8718,-0.6133,0.0156,-1866.94,1873.72,1921.88
810,-3.8718,-0.5845,0.0167,1508.06,-1985.60,-1843.75
820,-3.8718,-0.5627,0.0238,1195.56,-1844.91,-1718.75
830,-3.8718,-0.5520,0.0304,-23.19,-938.66,-1046.88
840,-3.8717,-0.5629,0.0225,1351.81,-94.85,-1921.88
850,-3.8716,-0.5891,0.0137,-38.82,-1110.53,-1234.38
860,-3.8715,-0.6118,0.0280,601.81,1764.47,-1343.75
870,-3.8713,-0.6232,0.0510,1695.56,-407.47,1640.62
880,-3.8712,-0.6183,0.0438,242.43,-1454.35,453.19
890,-3.8711,-0.5872,-0.0209,867.43,1623.78,734.44
900,-3.8710,-0.5355,-0.1249,851.81,1342.59,-140.69
910,-3.8706,-0.4871,-0.2141,-538.82,30.15,687.26
920,-3.8705,-0.4554,-0.2396,1664.31,608.40,-156.68
930,-3.8704,-0.4408,-0.1978,1711.18,1342.83,-906.74
940,-3.8704,-0.4346,-0.1378,-413.82,-1297.79,-750.43
950,-3.8704,-0.4266,-0.1040,383.06,-1625.85,-1890.93
960,-3.8704,-0.4114,-0.1033,1398.68,-1297.73,-1703.37
970,-3.8702,-0.3860,-0.1260,-648.19,-1203.98,-1437.74
980,-3.8700,-0.3525,-0.1606,-1398.19,-110.17,1734.07
990,-3.8699,-0.3197,-0.1888,-1116.94,-547.61,-219.12
1000,-3.8698,-0.2898,-0.1910,-913.82,-156.92,-766.05
1010,-3.8696,-0.2603,-0.1732,-1085.69,-438.11,1218.32
1020,-3.8696,-0.2310,-0.1591,-1304.44,1843.20,-1312.87
1030,-3.8696,-0.2021,-0.1663,-1554.44,-344.24,-469.12
1040,-3.8695,-0.1782,-0.1917,-1866.94,-1266.05,671.51
1050,-3.8695,-0.1672,-0.2128,1195.56,-515.99,-109.80
1060,-3.8693,-0.1636,-0.2162,-1398.19,780.88,421.45
1070,-3.8693,-0.1510,-0.2026,-929.44,343.38,-859.80
1080,-3.8693,-0.1211,-0.1801,679.93,-1922.18,-1422.30
1090,-3.8693,-0.0774,-0.1655,508.06,968.51,15.26
1100,-3.8694,-0.0317,-0.1707,-1898.19,-1172.06,1140.26
1110,-3.8695,0.0035,-0.1886,-54.44,-1828.25,-1062.87
1120,-3.8695,0.0298,-0.2068,461.18,-140.62,1515.20
1130,-3.8696,0.0521,-0.2144,-179.44,1531.25,-484.80
1140,-3.8696,0.0679,-0.2013,-1320.07,562.56,62.07
1150,-3.8698,0.0770,-0.1650,695.56,-1765.50,30.82
1160,-3.8699,0.0878,-0.1174,1867.43,-1124.88,30.88
1170,-3.8700,0.1079,-0.0773,-757.57,968.87,62.26
1180,-3.8702,0.1394,-0.0562,1820.56,-1890.44,-31.43
1190,-3.8704,0.1786,-0.0510,1851.81,812.74,-484.50
1200,-3.8705,0.2207,-0.0508,-1132.57,1469.06,-906.37
1210,-3.8706,0.2568,-0.0487,258.06,1500.43,-547.00
1220,-3.8706,0.2819,-0.0455,883.06,1766.11,703.00
1230,-3.8707,0.2981,-0.0458,86.18,-1827.58,-1984.50
1240,-3.8708,0.3094,-0.0475,-1835.69,-1858.83,-1250.12
1250,-3.8710,0.3243,-0.0444,-382.57,1922.42,-984.50
1260,-3.8711,0.3513,-0.0327,1523.68,-1686.89,-703.25
1270,-3.8711,0.3921,-0.0125,976.81,-186.83,171.75
1280,-3.8712,0.4459,0.0098,-1804.44,-1593.02,1812.44
1290,-3.8712,0.5062,0.0282,1086.18,1250.85,390.62
1300,-3.8713,0.5614,0.0472,804.93,-389.65,-609.38
1310,-3.8713,0.5927,0.0718,-132.57,-1952.09,1593.81
1320,-3.8715,0.5819,0.0988,-132.57,1188.60,-921.75
1330,-3.8716,0.5398,0.1244,-1507.57,641.72,-31.07
1340,-3.8717,0.4929,0.1492,1101.81,-77.09,-15.44
1350,-3.8718,0.4583,0.1742,-898.19,-905.33,-593.51
1360,-3.8719,0.4316,0.1960,-1335.69,-1702.27,-1218.44
1370,-3.8721,0.4020,0.2126,-741.94,1094.54,-1484.01
1380,-3.8722,0.3723,0.2251,-538.82,-780.52,-1327.76
1390,-3.8723,0.3484,0.2354,-335.69,813.17,-843.32
1400,-3.8723,0.3298,0.2427,601.81,-1874.33,344.18
1410,-3.8724,0.3130,0.2443,-1773.19,-936.89,-1718.32
1420,-3.8724,0.2952,0.2413,70.56,-733.76,703.55
1430,-3.8726,0.2755,0.2363,1789.31,-1108.83,-562.07
1440,-3.8726,0.2540,0.2300,-726.32,-1749.51,-1827.70
1450,-3.8726,0.2351,0.2252,523.68,1437.99,969.18
1460,-3.8727,0.2209,0.2260,-1898.19,828.55,-265.20
1470,-3.8727,0.2053,0.2310,289.31,922.30,-1483.95
1480,-3.8727,0.1835,0.2340,-1710.69,1562.87,1516.05
1490,-3.8727,0.1580,0.2318,-507.57,1953.43,297.30
1500,-3.8728,0.1313,0.2280,226.81,1672.18,-1140.20
1510,-3.8728,0.1057,0.2247,820.56,1187.74,1406.68
1520,-3.8729,0.0856,0.2200,1539.31,765.81,-171.45
1530,-3.8729,0.0717,0.2118,-1038.82,156.37,-1812.07
1540,-3.8729,0.0645,0.2010,1179.93,-890.50,469.12
1550,-3.8730,0.0687,0.1934,258.06,1734.50,-1484.01
1560,-3.8730,0.0863,0.1938,804.93,750.12,297.24
1570,-3.8732,0.1061,0.2003,-945.07,812.62,-1765.26
1580,-3.8732,0.1077,0.2081,1586.18,1640.81,469.12
1590,-3.8733,0.0795,0.2111,1789.31,-1359.19,-624.63
1600,-3.8733,0.0266,0.2018,-1820.07,-984.25,-327.76
1610,-3.8732,-0.0349,0.1808,-585.69,1828.12,859.74
1620,-3.8732,-0.0929,0.1508,-460.69,-843.87,-1671.57
1630,-3.8730,-0.1462,0.1180,117.43,-687.68,172.12
1640,-3.8730,-0.1976,0.0941,1289.31,-875.31,-1499.82
1650,-3.8729,-0.2501,0.0881,-1288.82,62.07,1703.31
1660,-3.8728,-0.3042,0.1024,-7.57,-703.67,1906.37
1670,-3.8727,-0.3495,0.1282,1070.56,1124.39,-1109.19
1680,-3.8724,-0.3802,0.1464,-726.32,421.14,47.12
1690,-3.8723,-0.3925,0.1405,-663.82,-1250.79,1422.12
1700,-3.8721,-0.3859,0.1005,1773.68,1999.21,453.37
1710,-3.8718,-0.3707,0.0378,-1382.57,874.21,1593.93
1720,-3.8716,-0.3602,-0.0106,554.93,858.64,-1249.94
1730,-3.8713,-0.3685,-0.0139,1898.68,-1344.48,-1640.69
1740,-3.8711,-0.3921,0.0238,836.18,-1766.36,703.06
1750,-3.8710,-0.4087,0.0621,1820.56,-938.29,1921.88
1760,-3.8708,-0.3977,0.0701,-304.44,-32.10,-1296.81
1770,-3.8706,-0.3689,0.0564,1101.81,983.58,312.62
1780,-3.8705,-0.3412,0.0234,789.31,-766.36,-1968.69
1790,-3.8704,-0.3148,-0.0410,336.18,-985.05,1750.00
1800,-3.8704,-0.2965,-0.1088,-288.82,-1235.05,-843.87
1810,-3.8704,-0.2979,-0.1262,-1945.07,-1906.86,-797.12
1820,-3.8704,-0.3147,-0.0817,1883.06,-141.24,-1344.06
1830,-3.8704,-0.3334,-0.0225,-273.19,1561.83,-1953.31
1840,-3.8704,-0.3446,0.0029,1336.18,1139.95,1640.56
1850,-3.8704,-0.3470,-0.0032,-101.32,389.89,1218.75
1860,-3.8704,-0.3430,-0.0120,-413.82,-391.36,1312.44
1870,-3.8704,-0.3337,-0.0148,101.81,-1516.30,-578.19
1880,-3.8701,-0.3147,-0.0245,1289.31,-1875.67,609.31
1890,-3.8700,-0.2814,-0.0487,-273.19,874.33,-609.44
1900,-3.8698,-0.2355,-0.0784,-7.57,1780.64,1578.00
1910,-3.8696,-0.1896,-0.1064,1867.43,1983.89,-1609.56
1920,-3.8695,-0.1548,-0.1285,-257.57,-1609.80,1796.63
1930,-3.8694,-0.1312,-0.1381,195.56,-437.81,327.82
1940,-3.8694,-0.1176,-0.1383,-788.82,-1656.56,-1281.56
1950,-3.8693,-0.1049,-0.1383,961.18,-1687.74,1734.07
1960,-3.8691,-0.0774,-0.1428,-1413.82,-1687.74,749.69
1970,-3.8691,-0.0316,-0.1464,-1898.19,1734.19,1687.19
1980,-3.8693,0.0228,-0.1381,-38.82,1281.13,-140.93
1990,-3.8693,0.0784,-0.1201,-1070.07,-1671.88,405.94
2000,-3.8694,0.1335,-0.0997,-1960.69,625.12,827.88
2010,-3.8695,0.1854,-0.0747,1101.81,-765.38,1499.76
2020,-3.8696,0.2340,-0.0430,-257.57,-1562.19,-1578.31
2030,-3.8696,0.2836,-0.0076,1961.18,-1499.57,218.63
2040,-3.8698,0.3257,0.0277,304.93,-968.20,-859.44
2050,-3.8696,0.3564,0.0641,1695.56,-452.51,15.62
2060,-3.8696,0.3876,0.0898,1633.06,203.80,-1281.13
2070,-3.8695,0.4232,0.0807,1617.43,-499.27,718.87
2080,-3.8695,0.4600,0.0359,-1820.07,-1671.08,937.62
2090,-3.8696,0.4976,-0.0134,-1116.94,594.60,-546.81
2100,-3.8696,0.5306,-0.0354,-304.44,-1717.83,109.31
2110,-3.8699,0.5515,-0.0262,-70.07,-530.27,-47.00
2120,-3.8699,0.5607,-0.0015,-1398.19,641.66,203.06
2130,-3.8700,0.5665,0.0240,-226.32,-186.46,249.94
2140,-3.8702,0.5758,0.0383,523.68,-920.78,-1203.12
2150,-3.8705,0.5836,0.0383,1711.18,907.35,-156.19
2160,-3.8707,0.5839,0.0311,-1288.82,907.35,-140.56
2170,-3.8710,0.5808,0.0254,-1257.57,-14.53,-125.00
2180,-3.8711,0.5818,0.0221,-1648.19,-748.90,750.00
2190,-3.8713,0.5896,0.0195,-1523.19,-1170.78,-1015.62
2200,-3.8715,0.5986,0.0187,-523.19,-1498.90,-1281.25
2210,-3.8716,0.6006,0.0190,633.06,-1608.22,-531.25
2220,-3.8716,0.5951,0.0171,883.06,-1561.34,328.12
2230,-3.8717,0.5884,0.0048,179.93,-1811.34,1296.88
2240,-3.8718,0.5819,-0.0203,-679.44,610.47,-1000.00
2250,-3.8718,0.5604,-0.0338,-1507.57,1407.35,1765.56
2260,-3.8718,0.5144,-0.0100,-257.57,-327.09,1687.38
2270,-3.8718,0.4590,0.0436,1851.81,-1280.27,1609.31
2280,-3.8718,0.4137,0.0981,-1241.94,1578.98,765.69
2290,-3.8719,0.3988,0.1317,961.18,563.29,-1015.44
2300,-3.8721,0.4197,0.1428,-945.07,860.11,-749.76
2310,-3.8722,0.4520,0.1461,1726.81,-1717.96,1234.62
2320,-3.8724,0.4677,0.1547,1867.43,-1296.02,-1999.76
2330,-3.8727,0.4606,0.1647,-132.57,-202.27,-656.01
2340,-3.8728,0.4403,0.1665,-1038.82,1078.98,-952.82
2350,-3.8728,0.4150,0.1613,367.43,1313.35,1844.06
2360,-3.8728,0.3934,0.1533,1133.06,641.42,-1640.32
2370,-3.8728,0.3883,0.1405,-1632.57,-374.27,-1218.51
2380,-3.8728,0.3953,0.1251,1711.18,1985.11,-1187.26
2390,-3.8728,0.3972,0.1154,-1398.19,16.36,-640.38
2400,-3.8727,0.3872,0.1113,-1148.19,-1233.64,703.31
2410,-3.8727,0.3657,0.1080,1570.56,-1749.27,1843.93
2420,-3.8727,0.3330,0.1088,-1179.44,1828.80,1718.93
2430,-3.8728,0.2955,0.1172,-1366.94,1922.49,-31.07
2440,-3.8728,0.2604,0.1313,1836.18,-999.45,1656.43
2450,-3.8728,0.2264,0.1501,1336.18,812.99,172.12
2460,-3.8729,0.1918,0.1699,992.43,-780.82,-421.63
2470,-3.8729,0.1606,0.1815,554.93,1750.37,-624.69
2480,-3.8729,0.1396,0.1783,570.56,-765.32,-749.69
2490,-3.8729,0.1289,0.1583,1883.06,-1171.63,-843.44
2500,-3.8729,0.1212,0.1278,508.06,265.87,-796.57
2510,-3.8729,0.1101,0.1030,-476.32,359.56,-687.26
2520,-3.8729,0.0900,0.0906,-1898.19,1187.68,-171.69
2530,-3.8728,0.0601,0.0764,-476.32,-406.13,1140.75
2540,-3.8728,0.0280,0.0482,-304.44,1781.31,-1109.25
2550,-3.8727,-0.0046,0.0105,-413.82,-1828.12,812.56
2560,-3.8727,-0.0447,-0.0243,-585.69,1359.31,-1546.88
2570,-3.8727,-0.0956,-0.0465,-1710.69,906.13,-328.19
2580,-3.8726,-0.1506,-0.0503,-226.32,-1937.74,343.63
2590,-3.8726,-0.1954,-0.0404,726.81,1577.82,437.38
2600,-3.8726,-0.2267,-0.0341,-1007.57,-1156.68,1359.25
2610,-3.8726,-0.2555,-0.0425,-1007.57,-344.24,-547.00
2620,-3.8724,-0.2916,-0.0597,-695.07,-1422.42,890.50
2630,-3.8724,-0.3322,-0.0724,-1320.07,374.39,953.00
2640,-3.8724,-0.3600,-0.0814,1492.43,-1250.67,1671.69
2650,-3.8723,-0.3689,-0.0999,1929.93,1593.02,1499.82
2660,-3.8721,-0.3723,-0.1283,789.31,-766.36,609.13
2670,-3.8718,-0.3906,-0.1398,351.81,-406.98,921.57
2680,-3.8717,-0.4338,-0.1030,-1991.94,-1875.79,-547.18
2690,-3.8716,-0.4935,-0.0195,476.81,-1172.73,-1062.74
2700,-3.8715,-0.5507,0.0901,836.18,1514.65,374.94
2710,-3.8715,-0.5905,0.1752,1523.68,-454.22,-1593.63
2720,-3.8713,-0.5939,0.1661,429.93,-1563.66,-62.19
2730,-3.8711,-0.5663,0.0385,-7.57,1280.03,-234.07
2740,-3.8708,-0.5532,-0.1327,-476.32,936.34,-1562.44
2750,-3.8706,-0.5526,-0.2213,1195.56,-969.85,562.19
2760,-3.8705,-0.5396,-0.1984,1273.68,-313.60,-891.11
2770,-3.8704,-0.5297,-0.1331,-1054.44,-1376.10,-94.18
2780,-3.8702,-0.5339,-0.0897,211.18,-1016.66,-1984.68
2790,-3.8702,-0.5358,-0.0786,-335.69,530.15,-1922.06
2800,-3.8702,-0.5140,-0.0847,-570.07,1952.03,874.82
2810,-3.8702,-0.4598,-0.0975,-1788.82,1170.84,1468.57
2820,-3.8701,-0.3854,-0.1206,1148.68,-469.67,-156.49
2830,-3.8698,-0.3185,-0.1510,-1320.07,577.33,-828.37
2840,-3.8694,-0.2795,-0.1699,-757.57,686.83,1905.94
2850,-3.8693,-0.2706,-0.1708,226.81,-1734.92,-219.12
2860,-3.8691,-0.2759,-0.1580,1367.43,-1844.30,609.01
2870,-3.8693,-0.2711,-0.1437,695.56,-203.67,-609.74
2880,-3.8693,-0.2468,-0.1476,1304.93,1624.45,-203.43
2890,-3.8691,-0.2144,-0.1621,414.31,1124.51,1921.57
2900,-3.8691,-0.1819,-0.1619,570.56,-734.80,-640.99
2910,-3.8690,-0.1442,-0.1526,726.81,-703.49,280.88
2920,-3.8690,-0.0969,-0.1466,1554.93,484.07,1609.07
2930,-3.8690,-0.0459,-0.1359,-398.19,1249.76,-1203.43
2940,-3.8690,0.0017,-0.1221,-1866.94,-1375.12,-78.43
2950,-3.8689,0.0514,-0.1077,226.81,375.00,406.01
2960,-3.8690,0.1134,-0.0874,-1413.82,-1781.19,-812.74
2970,-3.8690,0.1920,-0.0746,-1476.32,812.68,-1765.81
2980,-3.8690,0.2690,-0.0824,586.18,-1546.51,-343.93
2990,-3.8689,0.3174,-0.0938,-1554.44,1453.61,1796.69
3000,-3.8689,0.3364,-0.0947,633.06,0.61,-1093.93
3010,-3.8689,0.3492,-0.0966,-929.44,-124.39,-31.49
3020,-3.8688,0.3719,-0.0956,711.18,-358.70,1187.26
3030,-3.8688,0.3939,-0.0754,-382.57,-233.70,671.63
3040,-3.8689,0.4041,-0.0442,-1570.07,-1655.52,937.32
3050,-3.8691,0.4047,-0.0193,-273.19,-1655.52,-1593.87
3060,-3.8694,0.4006,-0.0051,-195.07,1531.98,-1421.94
3070,-3.8696,0.3993,-0.0002,-710.69,-655.52,-734.44
3080,-3.8698,0.4052,-0.0051,-882.57,-30.52,1578.06
3090,-3.8699,0.4127,-0.0115,-132.57,-655.52,640.56
3100,-3.8701,0.4104,-0.0084,836.18,-1467.96,-1109.44
3110,-3.8704,0.3934,0.0021,539.31,-1077.33,-375.06
3120,-3.8706,0.3707,0.0132,-1632.57,266.36,-921.88
3130,-3.8708,0.3556,0.0221,-538.82,1688.17,-1796.88
3140,-3.8711,0.3500,0.0247,1523.68,-1171.20,-1578.12
3150,-3.8712,0.3422,0.0203,804.93,-843.08,1250.00
3160,-3.8713,0.3191,0.0145,-195.07,-1405.64,-546.88
3170,-3.8713,0.2833,0.0143,851.81,1859.99,-1000.00
3180,-3.8713,0.2549,0.0254,273.68,1828.67,359.38
3190,-3.8716,0.2540,0.0516,633.06,-749.51,-1640.62
3200,-3.8718,0.2847,0.0909,523.68,-1390.14,-1421.81
3210,-3.8721,0.3326,0.1348,445.56,-358.83,-984.25
3220,-3.8722,0.3832,0.1750,-1413.82,1250.61,547.12
3230,-3.8724,0.4303,0.2097,1054.93,-1593.02,-1015.32
3240,-3.8726,0.4691,0.2389,-913.82,-1155.46,1937.87
3250,-3.8727,0.4958,0.2628,54.93,-1420.96,-1999.57
3260,-3.8728,0.5059,0.2847,-523.19,1641.54,-218.26
3270,-3.8728,0.4962,0.3062,758.06,438.48,-1171.33
3280,-3.8728,0.4800,0.3237,-476.32,-811.58,-1796.33
3290,-3.8728,0.4747,0.3359,1445.56,1438.42,1531.86
3300,-3.8728,0.4894,0.3408,773.68,-999.08,1516.24
3310,-3.8728,0.5156,0.3362,-1351.32,-374.08,-1843.14
3320,-3.8728,0.5194,0.3428,-1991.94,-967.77,-1702.51
3330,-3.8728,0.4869,0.3695,-1507.57,-124.02,1656.86
3340,-3.8728,0.4375,0.3931,-1663.82,-702.21,360.05
3350,-3.8729,0.3862,0.3997,8.06,-1686.65,-1827.39
3360,-3.8730,0.3431,0.3905,1445.56,-843.02,-671.14
3370,-3.8730,0.3098,0.3701,-70.07,1984.99,328.86
3380,-3.8732,0.2800,0.3369,-335.69,-624.45,1844.42
3390,-3.8732,0.2494,0.2905,-148.19,-874.51,563.11
3400,-3.8732,0.2140,0.2496,-70.07,1187.93,453.67
3410,-3.8732,0.1704,0.2356,-601.32,-46.51,703.55
3420,-3.8732,0.1217,0.2455,1820.56,-1843.44,359.80
3430,-3.8733,0.0730,0.2594,-413.82,-577.94,-421.45
3440,-3.8733,0.0281,0.2629,1351.81,1203.25,-702.64
3450,-3.8733,-0.0092,0.2550,-398.19,1656.25,-437.01
3460,-3.8733,-0.0391,0.2371,-1163.82,656.19,-499.51
3470,-3.8733,-0.0643,0.2091,-991.94,-1640.75,-1218.32
3480,-3.8733,-0.0865,0.1741,-226.32,-1218.93,-1859.01
3490,-3.8733,-0.1091,0.1411,929.93,-1703.31,-1749.69
3500,-3.8733,-0.1351,0.1201,-1960.69,-1922.12,-1109.13
3510,-3.8733,-0.1622,0.1176,-1288.82,-609.68,-218.57
3520,-3.8732,-0.1849,0.1298,-757.57,-937.87,1047.06
3530,-3.8732,-0.2035,0.1392,336.18,624.63,-968.51
3540,-3.8730,-0.2196,0.1334,1961.18,1827.70,1562.74
3550,-3.8729,-0.2317,0.1127,-101.32,1093.26,531.49
3560,-3.8728,-0.2388,0.0826,-1648.19,-1562.99,1218.93
3570,-3.8727,-0.2422,0.0505,1445.56,-1406.74,-296.75
3580,-3.8724,-0.2434,0.0217,1008.06,-1516.11,-1749.94
3590,-3.8723,-0.2444,-0.0013,851.81,-1203.61,-171.88
3600,-3.8721,-0.2496,-0.0145,726.81,-156.74,546.81
3610,-3.8719,-0.2616,-0.0101,54.93,-1844.24,749.94
3620,-3.8718,-0.2847,0.0154,-1476.32,-1281.80,31.19
3630,-3.8718,-0.3210,0.0592,-429.44,1983.76,-1718.75
3640,-3.8717,-0.3589,0.1031,-1085.69,-406.92,890.69
3650,-3.8716,-0.3843,0.0992,-1929.44,1218.02,1406.43
3660,-3.8715,-0.3894,0.0259,-1179.44,717.96,-1109.19
3670,-3.8713,-0.3834,-0.0645,-1835.69,-672.67,-1125.00
3680,-3.8712,-0.3757,-0.1097,-1070.07,-235.17,1046.69
3690,-3.8712,-0.3688,-0.0966,-85.69,1967.96,-1453.37
3700,-3.8711,-0.3662,-0.0593,804.93,-344.48,171.63
3710,-3.8711,-0.3704,-0.0404,1133.06,421.14,-1468.87
3720,-3.8710,-0.3800,-0.0432,601.81,-1156.98,-1828.25
3730,-3.8708,-0.3826,-0.0406,-632.57,-1516.42,-1047.00
3740,-3.8707,-0.3710,-0.0240,-960.69,-1188.29,-703.25
3750,-3.8706,-0.3522,-0.0082,523.68,936.77,1281.19
3760,-3.8707,-0.3331,-0.0035,-1070.07,-1031.98,-46.94
3770,-3.8707,-0.3032,-0.0243,1367.43,-438.17,62.44
3780,-3.8708,-0.2526,-0.0809,1195.56,905.64,-1984.44
3790,-3.8707,-0.1934,-0.1560,-320.07,1655.70,-1953.31
3800,-3.8705,-0.1461,-0.2286,-741.94,46.45,-1812.81
3810,-3.8702,-0.1265,-0.2949,1304.93,-1250.31,-1187.99
3820,-3.8700,-0.1284,-0.3513,-179.44,-1734.68,-609.99
3830,-3.8696,-0.1281,-0.3853,-429.44,-953.43,-1938.23
3840,-3.8691,-0.1030,-0.3865,-382.57,-1297.18,1061.71
3850,-3.8687,-0.0541,-0.3630,-1179.44,-1453.37,-1813.29
3860,-3.8683,-0.0042,-0.3452,1086.18,1546.75,-766.36
3870,-3.8680,0.0243,-0.3503,-523.19,-171.94,343.02
3880,-3.8682,0.0187,-0.3540,-882.57,-843.75,-1813.23
3890,-3.8684,-0.0078,-0.3290,-1601.32,-1312.50,-0.73
3900,-3.8685,-0.0251,-0.2832,-991.94,1906.19,1108.70
3910,-3.8688,-0.0103,-0.2343,789.31,-234.44,-313.11
3920,-3.8688,0.0328,-0.1935,-1304.44,-1968.81,390.14
3930,-3.8689,0.0868,-0.1663,211.18,-765.56,-1516.05
3940,-3.8689,0.1451,-0.1417,-882.57,-1281.13,1687.13
3950,-3.8689,0.2007,-0.1232,-1413.82,1859.62,-1297.18
3960,-3.8688,0.2439,-0.1233,1695.56,234.74,1468.51
3970,-3.8687,0.2732,-0.1411,-773.19,219.18,1281.01
3980,-3.8685,0.2943,-0.1725,-1023.19,1937.99,-1734.68
3990,-3.8684,0.3083,-0.2028,1679.93,1922.42,-875.37
4000,-3.8683,0.3136,-0.2145,-523.19,-1952.58,718.32
4010,-3.8684,0.3135,-0.2107,148.68,547.49,1921.45
4020,-3.8685,0.3102,-0.2025,133.06,1031.86,108.95
4030,-3.8688,0.3092,-0.1943,-288.82,-1921.33,968.32
4040,-3.8690,0.3210,-0.1909,-413.82,-874.45,1780.82
4050,-3.8693,0.3506,-0.1932,1101.81,-436.89,-469.18
4060,-3.8694,0.3914,-0.1938,883.06,-733.70,-1875.43
4070,-3.8695,0.4337,-0.1952,-1898.19,-811.77,843.32
4080,-3.8698,0.4729,-0.2031,-476.32,-983.58,-953.55
4090,-3.8699,0.5050,-0.2081,539.31,-1999.08,937.07
4100,-3.8701,0.5254,-0.1973,648.68,1360.35,-953.55
4110,-3.8702,0.5327,-0.1735,-741.94,-1249.02,749.57
4120,-3.8705,0.5281,-0.1509,195.56,1797.91,1640.26
4130,-3.8707,0.5131,-0.1276,-398.19,688.48,-1328.43
4140,-3.8708,0.4915,-0.0924,1679.93,-327.15,390.32
4150,-3.8711,0.4707,-0.0485,-1085.69,172.79,-1906.43
4160,-3.8713,0.4585,-0.0066,258.06,1797.79,-703.25
4170,-3.8715,0.4567,0.0284,-1304.44,-842.90,328.06
4180,-3.8717,0.4624,0.0583,-1538.82,-358.52,1859.38
4190,-3.8718,0.4700,0.0854,-804.44,-530.40,93.81
4200,-3.8721,0.4760,0.1104,164.31,-1061.58,-1078.00
4210,-3.8722,0.4823,0.1401,929.93,-1874.08,-1781.07
4220,-3.8723,0.4839,0.1764,1742.43,1938.42,-1812.26
4230,-3.8724,0.4771,0.2102,1945.56,-1420.96,-968.44
4240,-3.8724,0.4631,0.2365,1070.56,-1092.83,437.87
4250,-3.8726,0.4448,0.2583,-710.69,-1733.52,1766.05
4260,-3.8727,0.4333,0.2778,945.56,1063.35,-1249.51
4270,-3.8727,0.4358,0.2915,-523.19,-436.71,500.49
4280,-3.8728,0.4407,0.3030,-210.69,1313.29,-577.58
4290,-3.8728,0.4310,0.3192,414.31,-1217.90,-1655.70
4300,-3.8728,0.4028,0.3390,-820.07,860.17,78.74
4310,-3.8729,0.3601,0.3560,-429.44,-608.64,531.86
4320,-3.8730,0.3116,0.3700,-1898.19,1563.17,735.05
4330,-3.8732,0.2712,0.3887,-101.32,-640.08,1500.67
4340,-3.8733,0.2439,0.4135,-1273.19,1750.49,-1155.52
4350,-3.8733,0.2242,0.4366,-773.19,922.30,688.29
4360,-3.8734,0.2102,0.4508,711.18,-108.95,-936.71
4370,-3.8734,0.2078,0.4462,-1085.69,1703.49,-1936.65
4380,-3.8734,0.2192,0.4202,-1398.19,1109.74,1985.23
4390,-3.8734,0.2355,0.3885,70.56,1781.68,-1092.96
4400,-3.8733,0.2408,0.3651,-1851.32,1734.80,31.98
4410,-3.8733,0.2238,0.3512,-1163.82,-1265.20,438.17
4420,-3.8734,0.1830,0.3447,648.68,953.55,-46.20
4430,-3.8734,0.1279,0.3396,-570.07,125.31,-1171.20
4440,-3.8734,0.0718,0.3282,383.06,-531.01,1797.49
4450,-3.8734,0.0234,0.3070,1195.56,-1984.25,1828.74
4460,-3.8734,-0.0166,0.2812,-991.94,-703.12,-1061.95
4470,-3.8733,-0.0490,0.2589,1883.06,15.56,281.80
4480,-3.8733,-0.0739,0.2388,1742.43,1156.13,1766.11
4490,-3.8733,-0.0956,0.2147,-1445.07,-1422.06,-405.82
4500,-3.8732,-0.1188,0.1833,-226.32,-500.24,1797.24
4510,-3.8730,-0.1439,0.1436,804.93,-515.87,344.06
4520,-3.8730,-0.1703,0.0936,1586.18,-1609.68,-1234.13
4530,-3.8729,-0.2002,0.0415,-1788.82,-0.37,1343.87
4540,-3.8728,-0.2386,0.0095,-1616.94,1327.70,140.69
4550,-3.8728,-0.2859,0.0085,1461.18,1233.89,-1578.12
4560,-3.8727,-0.3342,0.0210,-585.69,1108.76,234.38
4570,-3.8727,-0.3734,0.0253,1226.81,-1297.55,1812.50
4580,-3.8727,-0.3956,0.0145,211.18,-750.73,-921.88
4590,-3.8726,-0.3982,-0.0121,1367.43,1874.21,625.00
4600,-3.8726,-0.3881,-0.0454,1039.31,-1532.04,-593.81
4610,-3.8724,-0.3749,-0.0609,-1663.82,-1797.67,-937.62
4620,-3.8723,-0.3611,-0.0531,23.68,218.02,-875.12
4630,-3.8722,-0.3453,-0.0381,1789.31,1218.02,-218.87
4640,-3.8719,-0.3268,-0.0198,-195.07,-860.11,515.50
4650,-3.8718,-0.2996,-0.0057,-1820.07,1483.70,171.81
4660,-3.8718,-0.2610,-0.0159,1664.31,-719.36,-765.69
4670,-3.8717,-0.2222,-0.0558,-1398.19,1983.83,-843.81
4680,-3.8715,-0.1995,-0.1163,-429.44,874.51,578.00
4690,-3.8713,-0.2018,-0.1740,-1523.19,1124.57,-47.12
4700,-3.8710,-0.2213,-0.2156,-1820.07,1749.57,343.38
4710,-3.8707,-0.2455,-0.2617,-320.07,421.39,265.20
4720,-3.8706,-0.2775,-0.3085,586.18,-1484.86,-688.05
4730,-3.8704,-0.3229,-0.3295,492.43,530.70,905.64
4740,-3.8702,-0.3732,-0.3348,-1320.07,1843.08,1124.33
4750,-3.8701,-0.4192,-0.3392,242.43,1155.52,1499.33
4760,-3.8700,-0.4591,-0.3364,-1648.19,592.90,1718.08
4770,-3.8700,-0.4863,-0.3278,1242.43,952.21,-0.67
4780,-3.8700,-0.4907,-0.3191,1758.06,-1938.48,-47.55
4790,-3.8700,-0.4635,-0.3119,1195.56,-829.10,-1297.55
4800,-3.8700,-0.4037,-0.3179,679.93,92.83,-1672.49
4810,-3.8699,-0.3256,-0.3265,336.18,-672.67,608.70
4820,-3.8698,-0.2493,-0.3160,-1663.82,-1781.92,1389.95
4830,-3.8696,-0.1907,-0.3004,101.81,-437.99,-1719.42
4840,-3.8695,-0.1600,-0.3018,-398.19,1562.07,780.64
4850,-3.8695,-0.1591,-0.3141,-476.32,1390.26,749.39
4860,-3.8696,-0.1780,-0.3212,-351.32,-187.87,-141.30
4870,-3.8696,-0.2009,-0.3146,1226.81,-1094.12,-735.05
4880,-3.8696,-0.2123,-0.2948,-1710.69,-250.43,-1313.17
4890,-3.8696,-0.1984,-0.2662,836.18,-1719.18,1968.14
4900,-3.8696,-0.1547,-0.2399,-1382.57,1937.07,1624.45
4910,-3.8696,-0.0898,-0.2321,211.18,1312.19,1780.76
4920,-3.8696,-0.0181,-0.2426,508.06,-1687.68,-1609.86
4930,-3.8696,0.0477,-0.2592,1695.56,968.69,-187.99
4940,-3.8695,0.0995,-0.2760,-1882.57,-1171.81,-1828.67
4950,-3.8694,0.1379,-0.2966,742.43,672.06,1140.08
4960,-3.8693,0.1616,-0.3270,1664.31,-1968.51,483.76
4970,-3.8693,0.1674,-0.3640,695.56,-1859.07,-0.67
4980,-3.8691,0.1560,-0.3945,1429.93,1406.56,-844.48
4990,-3.8690,0.1338,-0.4067,-23.19,1500.24,827.33
5000,-3.8690,0.1195,-0.4043,1133.06,-62.26,1092.90
5010,-3.8690,0.1282,-0.3992,-695.07,250.18,1217.96
5020,-3.8690,0.1599,-0.3928,414.31,906.49,1592.96
5030,-3.8690,0.2070,-0.3855,476.81,1719.06,1452.33
5040,-3.8691,0.2589,-0.3845,-1491.94,-1343.38,-328.92
5050,-3.8691,0.3062,-0.3851,1148.68,-1218.26,139.83
5060,-3.8694,0.3450,-0.3754,-804.44,-1296.33,-63.29
5070,-3.8695,0.3811,-0.3573,164.31,-46.20,-172.67
5080,-3.8695,0.4211,-0.3445,789.31,-1733.64,202.39
5090,-3.8696,0.4642,-0.3383,1914.31,-92.96,1358.64
5100,-3.8698,0.5043,-0.3290,-570.07,703.98,-1125.67
5110,-3.8699,0.5344,-0.3160,554.93,1891.60,-110.05
5120,-3.8700,0.5507,-0.3058,414.31,-452.09,-203.80
5130,-3.8701,0.5499,-0.2963,-1507.57,860.41,-1453.74
5140,-3.8702,0.5337,-0.2795,-1601.32,-1920.84,390.01
5150,-3.8705,0.5085,-0.2593,320.56,219.79,1608.83
5160,-3.8707,0.4844,-0.2407,1101.81,-1186.52,-1219.30
5170,-3.8708,0.4696,-0.2151,-1991.94,1188.42,390.14
5180,-3.8711,0.4668,-0.1790,117.43,469.67,-1453.55
5190,-3.8712,0.4729,-0.1431,-241.94,1094.60,952.76
5200,-3.8715,0.4818,-0.1149,539.31,1688.42,-500.31
5210,-3.8716,0.4884,-0.0941,1679.93,1297.79,-1547.12
5220,-3.8717,0.4880,-0.0735,-1476.32,-45.96,1906.01
5230,-3.8718,0.4777,-0.0476,-1523.19,-1405.33,1640.44
5240,-3.8719,0.4558,-0.0193,1148.68,1907.17,1499.88
5250,-3.8721,0.4260,0.0099,-1648.19,1532.10,1609.31
5260,-3.8722,0.3973,0.0383,-1460.69,1266.42,1843.75
5270,-3.8723,0.3765,0.0631,-1132.57,906.98,-1874.94
5280,-3.8724,0.3638,0.0856,195.56,78.86,-1187.38
5290,-3.8724,0.3560,0.1062,-1429.44,-1046.20,406.37
5300,-3.8726,0.3527,0.1183,1570.56,1594.42,-1249.82
5310,-3.8726,0.3491,0.1195,1148.68,-858.70,984.56
5320,-3.8727,0.3378,0.1233,695.56,-702.45,-1327.94
5330,-3.8727,0.3197,0.1366,-757.57,-218.14,78.31
5340,-3.8728,0.2999,0.1483,929.93,1484.99,1547.12
5350,-3.8729,0.2810,0.1478,-1601.32,-1015.08,-1218.51
5360,-3.8730,0.2617,0.1379,-23.19,-1077.64,-249.76
5370,-3.8730,0.2399,0.1350,1508.06,1656.74,1078.37
5380,-3.8732,0.2161,0.1476,-1288.82,1281.68,-609.13
5390,-3.8732,0.1917,0.1609,-335.69,-1109.01,-1046.63
5400,-3.8732,0.1637,0.1626,539.31,594.12,-859.07
5410,-3.8732,0.1298,0.1627,961.18,812.81,-780.94
5420,-3.8732,0.0930,0.1718,617.43,828.37,-984.07
5430,-3.8732,0.0566,0.1880,-85.69,1984.50,-1734.07
5440,-3.8732,0.0205,0.2026,-741.94,62.56,734.74
5450,-3.8733,-0.0183,0.2063,-1366.94,1937.50,-1343.38
5460,-3.8733,-0.0647,0.1979,1664.31,-1578.19,328.49
5470,-3.8734,-0.1171,0.1946,-273.19,1343.57,1890.99
5480,-3.8735,-0.1641,0.2134,1023.68,921.63,-390.26
5490,-3.8735,-0.2000,0.2400,-991.94,-672.24,-1890.26
5500,-3.8735,-0.2236,0.2589,-1585.69,-1266.05,-1983.95
5510,-3.8735,-0.2347,0.2666,-616.94,1155.76,-812.01
5520,-3.8734,-0.2407,0.2480,1961.18,-1859.86,1672.36
5530,-3.8733,-0.2451,0.1973,1195.56,-234.86,1969.18
5540,-3.8730,-0.2488,0.1409,633.06,1265.14,47.24
5550,-3.8729,-0.2544,0.1083,164.31,-1953.61,-1124.76
5560,-3.8727,-0.2614,0.1042,-554.44,1874.45,406.43
5570,-3.8727,-0.2657,0.1271,-1445.07,1358.83,-1109.19
5580,-3.8727,-0.2664,0.1659,1992.43,280.70,-1484.13
5590,-3.8727,-0.2643,0.1895,1914.31,1249.45,1547.18
5600,-3.8727,-0.2588,0.1805,-1820.07,265.08,-1546.51
5610,-3.8726,-0.2479,0.1448,-1116.94,-875.55,-1937.19
5620,-3.8724,-0.2335,0.0939,273.68,-1453.61,-421.63
5630,-3.8722,-0.2219,0.0363,-1882.57,30.76,1781.43
5640,-3.8721,-0.2214,-0.0228,-398.19,655.76,-812.44
5650,-3.8719,-0.2408,-0.0702,-335.69,1093.26,-1187.56
5660,-3.8718,-0.2842,-0.0933,1179.93,-969.24,968.57
5670,-3.8718,-0.3475,-0.1064,-366.94,77.51,-1609.56
5680,-3.8718,-0.4221,-0.1342,-476.32,-1610.11,-859.62
5690,-3.8718,-0.4946,-0.1786,1976.81,-1157.10,-344.06
5700,-3.8717,-0.5591,-0.2241,695.56,1155.27,1624.63
5710,-3.8716,-0.6184,-0.2554,445.56,-672.97,1843.26
5720,-3.8713,-0.6648,-0.2664,851.81,-673.10,30.70
5730,-3.8712,-0.6897,-0.2568,-1085.69,1920.53,-1344.30
5740,-3.8711,-0.6941,-0.2407,-273.19,-860.78,-859.92
5750,-3.8710,-0.6844,-0.2518,-835.69,1201.72,780.76
5760,-3.8710,-0.6676,-0.2963,398.68,-220.09,1249.45
5770,-3.8710,-0.6493,-0.3488,-1445.07,-1907.59,-1656.86
5780,-3.8708,-0.6344,-0.3921,898.68,-626.28,327.39
5790,-3.8708,-0.6252,-0.4152,-1195.07,1826.84,-1266.42
5800,-3.8707,-0.6228,-0.4193,-23.19,-1126.28,1405.40
5810,-3.8706,-0.6265,-0.4120,289.31,-1657.47,77.27
5820,-3.8706,-0.6309,-0.4026,-179.44,-720.03,-1891.48
5830,-3.8706,-0.6310,-0.4093,-741.94,483.09,-813.29
5840,-3.8706,-0.6287,-0.4331,-757.57,-376.28,-375.85
5850,-3.8705,-0.6241,-0.4503,-460.69,576.84,280.40
5860,-3.8705,-0.6134,-0.4535,117.43,-1626.22,1827.21
5870,-3.8704,-0.5945,-0.4607,1492.43,1967.53,342.83
5880,-3.8704,-0.5663,-0.4777,-85.69,1045.65,-16.54
5890,-3.8701,-0.5300,-0.4987,-476.32,-1126.16,749.02
5900,-3.8700,-0.4899,-0.5273,164.31,186.46,-1438.48
5910,-3.8698,-0.4475,-0.5573,1304.93,514.65,1186.46
5920,-3.8696,-0.4027,-0.5707,-1273.19,686.58,-985.47
5930,-3.8695,-0.3555,-0.5657,461.18,-1032.04,-1657.41
5940,-3.8695,-0.3075,-0.5532,-1491.94,-391.36,-923.03
5950,-3.8695,-0.2635,-0.5333,648.68,1202.51,-1657.35
5960,-3.8695,-0.2209,-0.5022,-1726.32,-250.55,827.03
5970,-3.8696,-0.1744,-0.4727,-273.19,-266.11,-1516.66
5980,-3.8698,-0.1234,-0.4534,1679.93,-484.74,-313.48
5990,-3.8698,-0.0698,-0.4431,211.18,1984.13,1733.46
6000,-3.8698,-0.0183,-0.4476,-929.44,-703.31,1717.83
6010,-3.8696,0.0198,-0.4651,1664.31,-1281.31,202.21
6020,-3.8695,0.0417,-0.4849,-1460.69,468.75,952.21
6030,-3.8694,0.0575,-0.5054,1351.81,1937.56,1889.65
6040,-3.8693,0.0817,-0.5231,-632.57,-687.44,1811.46
6050,-3.8691,0.1173,-0.5249,-1538.82,1047.00,748.96
6060,-3.8691,0.1473,-0.5050,-976.32,812.68,1905.21
6070,-3.8691,0.1613,-0.4725,-1132.57,-640.38,795.84
6080,-3.8693,0.1641,-0.4412,648.68,-484.07,1342.77
6090,-3.8694,0.1738,-0.4103,1008.06,-468.44,295.96
6100,-3.8696,0.2104,-0.3707,-1741.94,-515.32,-282.10
6110,-3.8696,0.2771,-0.3274,-1054.44,547.24,811.77
6120,-3.8698,0.3585,-0.2922,-523.19,-1905.76,-1219.42
6130,-3.8698,0.4368,-0.2643,1898.68,-1405.58,468.14
6140,-3.8699,0.5065,-0.2385,-85.69,-1827.33,1561.95
6150,-3.8700,0.5646,-0.2168,836.18,1469.73,-1781.74
6160,-3.8701,0.6084,-0.1992,273.68,251.10,-1406.68
6170,-3.8702,0.6385,-0.1846,1883.06,-1498.84,-1094.18
6180,-3.8704,0.6575,-0.1707,1742.43,376.22,-812.87
6190,-3.8705,0.6656,-0.1559,164.31,-1842.47,-609.74
6200,-3.8706,0.6600,-0.1459,1211.18,48.16,-390.93
6210,-3.8706,0.6392,-0.1407,492.43,1329.41,187.19
6220,-3.8707,0.6016,-0.1312,1820.56,1985.60,1030.94
6230,-3.8708,0.5493,-0.1143,1008.06,-795.72,1390.32
6240,-3.8710,0.4928,-0.0950,-1679.44,1376.04,609.13
6250,-3.8712,0.4421,-0.0780,-913.82,-155.33,-1078.37
6260,-3.8713,0.4012,-0.0609,601.81,-1983.52,656.07
6270,-3.8716,0.3728,-0.0393,-632.57,203.86,-1968.87
6280,-3.8718,0.3599,-0.0137,-273.19,-1030.58,-797.00
6290,-3.8719,0.3615,0.0120,-1929.44,-1749.33,453.06
6300,-3.8722,0.3688,0.0349,-1726.32,1531.92,-1625.00
6310,-3.8723,0.3726,0.0552,-788.82,469.42,750.06
6320,-3.8726,0.3694,0.0726,-304.44,-936.83,-1093.69
6330,-3.8727,0.3597,0.0873,-710.69,1297.55,828.25
6340,-3.8729,0.3475,0.0964,-1945.07,-827.45,-1015.50
6350,-3.8730,0.3367,0.0931,492.43,344.42,-1984.19
6360,-3.8732,0.3271,0.0796,-898.19,-77.51,-1749.88
6370,-3.8733,0.3137,0.0719,1883.06,-1811.89,-406.13
6380,-3.8733,0.2908,0.0765,164.31,1203.74,1562.62
6390,-3.8734,0.2596,0.0865,1226.81,1797.42,-437.38
6400,-3.8734,0.2251,0.0920,1242.43,-921.39,1765.75
6410,-3.8734,0.1888,0.0923,820.56,-218.32,703.25
6420,-3.8734,0.1504,0.0973,179.93,-187.13,406.37
6430,-3.8734,0.1122,0.1121,-741.94,453.37,31.43
6440,-3.8735,0.0809,0.1274,-1632.57,-1656.07,-1046.69
6450,-3.8735,0.0618,0.1299,-1632.57,312.62,1375.24
6460,-3.8735,0.0527,0.1199,-85.69,625.06,718.99
6470,-3.8735,0.0437,0.1121,-1241.94,-656.19,1672.06
6480,-3.8735,0.0244,0.1138,1601.81,-1656.19,-1359.19
6490,-3.8735,-0.0034,0.1189,-866.94,-1437.50,-1749.82
6500,-3.8735,-0.0333,0.1152,-429.44,-765.69,1562.68
6510,-3.8735,-0.0669,0.0989,-257.57,-1234.50,-1687.32
6520,-3.8734,-0.1100,0.0844,-554.44,671.69,703.31
6530,-3.8733,-0.1611,0.0862,1929.93,-1187.74,281.37
6540,-3.8732,-0.2113,0.0995,-616.94,-953.49,406.37
6550,-3.8730,-0.2489,0.1066,961.18,749.57,687.68
6560,-3.8729,-0.2727,0.1046,148.68,1655.76,1328.31
6570,-3.8728,-0.2908,0.1104,1101.81,1405.70,-1999.82
6580,-3.8727,-0.3054,0.1246,-1210.69,-1859.99,-1749.82
6590,-3.8726,-0.3137,0.1241,914.31,-31.86,-1296.69
6600,-3.8723,-0.3138,0.0933,-148.19,-94.42,422.06
6610,-3.8721,-0.3094,0.0442,-163.82,-47.55,93.87
6620,-3.8718,-0.3054,-0.0028,398.68,1671.26,1250.06
6630,-3.8716,-0.3080,-0.0416,914.31,-344.36,-1921.94
6640,-3.8713,-0.3246,-0.0713,586.18,-1313.11,812.38
6650,-3.8712,-0.3519,-0.0876,-1538.82,-1110.05,1437.32
6660,-3.8711,-0.3805,-0.0908,-1038.82,796.14,1187.32
6670,-3.8710,-0.4050,-0.0835,-695.07,389.83,1171.69
6680,-3.8708,-0.4258,-0.0685,164.31,1327.33,1202.94
6690,-3.8708,-0.4407,-0.0571,1508.06,-750.85,-437.68
6700,-3.8708,-0.4457,-0.0607,-398.19,702.21,-656.37
6710,-3.8708,-0.4399,-0.0710,-1038.82,249.08,968.63
6720,-3.8710,-0.4207,-0.0769,-304.44,-1079.04,1656.07
6730,-3.8710,-0.3873,-0.0897,-1835.69,-1828.98,265.44
6740,-3.8710,-0.3558,-0.1196,-1570.07,530.46,-1734.56
6750,-3.8708,-0.3461,-0.1488,-1538.82,702.39,1671.63
6760,-3.8707,-0.3582,-0.1660,-288.82,968.02,202.82
6770,-3.8707,-0.3823,-0.1783,-1835.69,-1235.11,1484.01
6780,-3.8707,-0.4110,-0.1866,-929.44,1186.71,-1781.62
6790,-3.8707,-0.4370,-0.1904,-601.32,124.15,-890.99
6800,-3.8706,-0.4579,-0.1945,70.56,-360.23,374.57
6810,-3.8706,-0.4680,-0.2017,1398.68,-875.92,1483.95
6820,-3.8706,-0.4537,-0.2179,101.81,-1797.79,-1984.80
6830,-3.8706,-0.4111,-0.2440,1929.93,124.08,-1406.68
6840,-3.8706,-0.3527,-0.2712,-616.94,780.40,-203.61
6850,-3.8705,-0.2983,-0.2941,-1132.57,1296.14,1561.95
6860,-3.8705,-0.2627,-0.3132,1820.56,-1625.61,-500.61
6870,-3.8704,-0.2466,-0.3210,-1616.94,-78.67,1296.20
6880,-3.8704,-0.2413,-0.3115,445.56,-1078.61,-516.30
6890,-3.8702,-0.2378,-0.2888,1117.43,140.14,-1453.74
6900,-3.8701,-0.2214,-0.2648,1570.56,-953.61,-1203.74
6910,-3.8700,-0.1818,-0.2500,-335.69,-1875.49,-406.80
6920,-3.8698,-0.1235,-0.2478,742.43,15.26,202.64
6930,-3.8696,-0.0571,-0.2633,195.56,296.63,1296.39
6940,-3.8695,0.0081,-0.2910,695.56,-1687.62,-734.92
6950,-3.8693,0.0632,-0.3098,1039.31,-1250.00,1296.26
6960,-3.8691,0.1075,-0.3091,101.81,343.87,1874.39
6970,-3.8690,0.1414,-0.2913,1773.68,437.68,233.76
6980,-3.8690,0.1705,-0.2648,-1898.19,-1281.01,1374.39
6990,-3.8690,0.2076,-0.2435,1836.18,-1890.32,-1859.92
7000,-3.8690,0.2523,-0.2296,-1413.82,828.49,-1094.24
7010,-3.8689,0.2955,-0.2196,304.93,-1390.14,327.64
7020,-3.8689,0.3278,-0.2173,1836.18,-108.83,-1656.74
7030,-3.8689,0.3477,-0.2172,1961.18,188.11,-391.05
7040,-3.8689,0.3638,-0.2120,508.06,203.80,-1094.18
7050,-3.8689,0.3817,-0.2041,-1429.44,860.05,93.32
7060,-3.8690,0.4078,-0.1963,867.43,1875.73,155.82
7070,-3.8691,0.4393,-0.1906,211.18,-1124.21,171.45
7080,-3.8694,0.4543,-0.1771,242.43,-389.77,-109.80
7090,-3.8695,0.4336,-0.1490,-1835.69,1328.98,-1265.99
7100,-3.8696,0.4023,-0.1245,-491.94,922.67,1421.57
7110,-3.8699,0.4160,-0.1350,-491.94,63.23,-1031.49
7120,-3.8701,0.4814,-0.1796,1258.06,-1280.46,1234.07
7130,-3.8705,0.5645,-0.2208,1633.06,1016.54,1999.63
7140,-3.8708,0.6373,-0.2330,258.06,-264.53,-31.74
7150,-3.8711,0.6863,-0.2184,1586.18,-1826.90,-422.36
7160,-3.8712,0.7094,-0.1963,-148.19,48.16,452.70
7170,-3.8715,0.7047,-0.1765,-1195.07,-1123.66,1562.07
7180,-3.8717,0.6777,-0.1532,-1788.82,1407.59,-1140.99
7190,-3.8718,0.6432,-0.1176,-1241.94,391.91,1077.82
7200,-3.8719,0.6123,-0.0714,-1663.82,954.35,187.26
7210,-3.8721,0.5924,-0.0269,-1616.94,-1139.47,31.07
7220,-3.8722,0.5775,0.0076,-163.82,563.60,703.06
7230,-3.8723,0.5447,0.0306,1929.93,969.85,-1734.38
7240,-3.8723,0.4839,0.0525,1726.81,-77.09,421.88
7250,-3.8724,0.4171,0.0802,1945.56,-1280.33,-1499.94
7260,-3.8726,0.3812,0.1034,1398.68,-1733.58,-453.00
7270,-3.8727,0.3907,0.1082,804.93,1235.11,-171.69
7280,-3.8727,0.4177,0.1011,-1976.32,1844.48,1250.18
7290,-3.8727,0.4232,0.1085,1476.81,938.29,640.81
7300,-3.8727,0.3993,0.1438,-1820.07,1891.42,1422.06
7310,-3.8727,0.3674,0.1907,-882.57,-1593.02,-1656.01
7320,-3.8727,0.3466,0.2284,-960.69,406.92,-1734.01
7330,-3.8727,0.3352,0.2522,367.43,1235.05,1312.93
7340,-3.8727,0.3280,0.2644,-1085.69,281.86,484.86
7350,-3.8727,0.3292,0.2628,1992.43,1844.36,297.36
7360,-3.8727,0.3367,0.2461,-1851.32,1641.24,750.49
7370,-3.8727,0.3402,0.2197,-898.19,-499.39,1406.68
7380,-3.8727,0.3331,0.1832,-445.07,125.61,1687.93
7390,-3.8727,0.3118,0.1415,-1351.32,-546.26,1640.93
7400,-3.8727,0.2733,0.1147,-85.69,-1890.08,1484.62
7410,-3.8727,0.2196,0.1101,-1007.57,-1312.01,1187.68
7420,-3.8727,0.1669,0.1118,117.43,-1905.82,562.68
7430,-3.8728,0.1326,0.1036,1367.43,-1687.19,-46.69
7440,-3.8727,0.1160,0.0802,976.81,1265.87,375.18
7450,-3.8727,0.1049,0.0522,-1148.19,-1734.19,-1921.75
7460,-3.8726,0.0891,0.0372,1429.93,-1312.32,531.31
7470,-3.8726,0.0610,0.0400,-585.69,765.75,-1093.69
7480,-3.8724,0.0197,0.0500,-179.44,1125.06,328.19
7490,-3.8724,-0.0244,0.0521,-1476.32,-1593.75,1046.94
7500,-3.8724,-0.0588,0.0383,883.06,-1312.56,-1843.69
7510,-3.8723,-0.0819,0.0100,476.81,921.75,515.69
7520,-3.8722,-0.1039,-0.0208,1523.68,1296.69,15.62
7530,-3.8722,-0.1361,-0.0333,-1288.82,1359.13,-593.81
7540,-3.8721,-0.1759,-0.0243,-1413.82,-250.31,1343.63
7550,-3.8721,-0.2109,-0.0170,1492.43,905.88,-1828.19
7560,-3.8721,-0.2374,-0.0278,1008.06,1843.32,-937.56
7570,-3.8719,-0.2656,-0.0399,1617.43,452.64,406.19
7580,-3.8719,-0.2999,-0.0216,-1991.94,-1094.30,1921.75
7590,-3.8719,-0.3352,0.0321,1617.43,1249.39,-375.06
7600,-3.8718,-0.3605,0.0808,1101.81,124.33,1906.31
7610,-3.8717,-0.3658,0.0864,1867.43,-1641.36,15.75
7620,-3.8717,-0.3535,0.0609,1179.93,-922.61,1172.00
7630,-3.8717,-0.3308,0.0328,-1241.94,-188.23,-1531.19
7640,-3.8716,-0.3021,0.0049,1664.31,218.08,1703.19
7650,-3.8715,-0.2742,-0.0325,1336.18,640.01,-406.25
7660,-3.8712,-0.2594,-0.0651,914.31,-141.17,-1625.12
7670,-3.8711,-0.2645,-0.0701,-1195.07,-313.05,-1422.06
7680,-3.8711,-0.2856,-0.0514,-1851.32,-953.67,-1078.31
7690,-3.8711,-0.3146,-0.0242,-554.44,1436.89,718.63
7700,-3.8712,-0.3418,0.0024,-257.57,921.20,1671.81
7710,-3.8713,-0.3540,0.0149,258.06,327.45,-484.38
7720,-3.8713,-0.3511,0.0085,-1304.44,1921.14,-1046.88
7730,-3.8713,-0.3453,0.0000,-929.44,1108.64,-1312.50
7740,-3.8713,-0.3420,0.0034,-195.07,14.89,1718.75
7750,-3.8715,-0.3440,0.0193,226.81,452.45,-234.38
7760,-3.8715,-0.3503,0.0381,-23.19,-1516.36,1281.25
7770,-3.8716,-0.3566,0.0461,-835.69,889.89,-640.56
7780,-3.8716,-0.3618,0.0455,-1632.57,1921.14,-1156.19
7790,-3.8715,-0.3678,0.0472,1695.56,1843.02,46.94
7800,-3.8715,-0.3760,0.0509,929.93,-1938.23,-1203.06
7810,-3.8713,-0.3826,0.0452,-116.94,-1469.54,-874.94
7820,-3.8711,-0.3768,0.0194,-960.69,1796.08,546.94
7830,-3.8710,-0.3501,-0.0151,-226.32,-1500.79,-1953.12
7840,-3.8708,-0.3112,-0.0415,-804.44,-1922.61,-296.94
7850,-3.8706,-0.2750,-0.0605,179.93,-1297.49,1406.13
7860,-3.8705,-0.2461,-0.0822,804.93,265.08,-1718.87
7870,-3.8704,-0.2228,-0.1056,508.06,1499.51,1734.19
7880,-3.8702,-0.2061,-0.1117,-507.57,-1500.49,202.88
7890,-3.8702,-0.2002,-0.0886,1633.06,1718.32,-1406.49
7900,-3.8701,-0.2009,-0.0536,-1616.94,671.45,1499.82
7910,-3.8700,-0.1915,-0.0410,-1710.69,1155.82,734.25
7920,-3.8700,-0.1639,-0.0652,-507.57,-1234.80,-172.00
7930,-3.8699,-0.1282,-0.1083,-976.32,-328.49,-437.68
7940,-3.8696,-0.0968,-0.1443,-398.19,-1844.06,62.26
7950,-3.8696,-0.0742,-0.1588,-382.57,1546.63,-422.18
7960,-3.8695,-0.0558,-0.1531,-1491.94,-312.68,937.13
7970,-3.8695,-0.0371,-0.1313,867.43,421.75,827.82
7980,-3.8695,-0.0205,-0.1018,-741.94,-797.00,655.94
7990,-3.8695,0.0046,-0.0778,1383.06,-1015.69,1374.76
8000,-3.8695,0.0419,-0.0634,601.81,-1953.12,-1343.93
8010,-3.8695,0.0757,-0.0522,1367.43,-109.31,-484.56
8020,-3.8694,0.1060,-0.0358,1695.56,1312.62,218.63
8030,-3.8694,0.1409,-0.0151,1570.56,-577.94,1687.38
8040,-3.8694,0.1775,0.0002,-1960.69,-1937.26,-343.81
8050,-3.8693,0.2106,0.0032,-1273.19,31.56,1046.88
8060,-3.8693,0.2426,-0.0088,-1038.82,406.62,1203.12
8070,-3.8693,0.2728,-0.0304,-945.07,-1124.57,578.06
8080,-3.8693,0.2957,-0.0444,-1070.07,109.86,15.56
8090,-3.8694,0.3063,-0.0421,1851.81,-1686.95,-953.25
8100,-3.8694,0.3018,-0.0309,-788.82,-1390.08,578.00
8110,-3.8695,0.2856,-0.0188,-1366.94,47.42,578.06
8120,-3.8698,0.2643,-0.0085,570.56,1594.30,-296.94
8130,-3.8699,0.2438,-0.0004,1836.18,-1093.26,-1750.06
8140,-3.8700,0.2289,0.0059,-788.82,-46.45,593.69
8150,-3.8702,0.2228,0.0135,1304.93,750.43,-843.75
8160,-3.8704,0.2252,0.0256,523.68,1734.80,-2000.00
8170,-3.8705,0.2288,0.0405,836.18,-718.32,1000.00
8180,-3.8706,0.2273,0.0554,1289.31,1187.93,31.31
8190,-3.8708,0.2220,0.0706,1101.81,-905.82,-874.94
8200,-3.8710,0.2161,0.0873,429.93,1031.68,-1624.88
8210,-3.8711,0.2135,0.1028,-335.69,-827.76,-1734.25
8220,-3.8712,0.2169,0.1145,-663.82,1156.62,-593.57
8230,-3.8712,0.2261,0.1257,-226.32,-1343.38,1593.93
8240,-3.8713,0.2412,0.1376,945.56,94.18,-171.63
8250,-3.8713,0.2594,0.1469,-1116.94,1609.80,1422.12
8260,-3.8715,0.2775,0.1533,1211.18,-1202.64,-1202.88
8270,-3.8715,0.2936,0.1631,-476.32,-374.51,656.49
8280,-3.8716,0.3052,0.1766,1586.18,875.55,-734.07
8290,-3.8716,0.3101,0.1859,-929.44,-1390.08,-1780.94
8300,-3.8716,0.3064,0.1892,-304.44,-202.58,984.68
8310,-3.8717,0.2938,0.1935,-773.19,219.30,-546.51
8320,-3.8717,0.2769,0.2051,1617.43,766.17,1750.37
8330,-3.8717,0.2615,0.2216,-554.44,-1749.51,31.62
8340,-3.8718,0.2505,0.2385,1476.81,359.86,-1812.07
8350,-3.8718,0.2423,0.2537,70.56,-1468.26,109.80
8360,-3.8719,0.2346,0.2616,-976.32,469.18,1516.11
8370,-3.8721,0.2278,0.2583,-1960.69,1484.80,-1796.39
8380,-3.8722,0.2220,0.2494,1164.31,1062.93,-1530.76
8390,-3.8723,0.2184,0.2372,429.93,-77.70,-858.95
8400,-3.8723,0.2192,0.2166,-38.82,-1640.26,1047.30
8410,-3.8723,0.2172,0.1953,70.56,-280.82,390.99
8420,-3.8723,0.1982,0.1876,-195.07,1000.37,203.49
8430,-3.8724,0.1597,0.1884,1383.06,15.99,-843.38
8440,-3.8724,0.1101,0.1852,445.56,109.68,719.12
8450,-3.8726,0.0590,0.1792,-1898.19,-296.69,1422.18
8460,-3.8727,0.0132,0.1796,-445.07,-1062.44,-1390.32
8470,-3.8727,-0.0183,0.1851,1695.56,-1015.62,1000.31
8480,-3.8727,-0.0288,0.1844,1664.31,-296.94,687.81
8490,-3.8727,-0.0277,0.1764,320.56,-375.06,1344.06
8500,-3.8727,-0.0298,0.1661,461.18,-1406.31,-1624.69
8510,-3.8727,-0.0417,0.1522,195.56,1281.19,-812.19
8520,-3.8727,-0.0614,0.1351,-1335.69,-500.12,-624.76
8530,-3.8727,-0.0878,0.1289,148.68,1312.38,-1234.13
8540,-3.8727,-0.1213,0.1460,773.68,515.44,1218.99
8550,-3.8728,-0.1564,0.1779,476.81,-1297.12,-781.01
8560,-3.8728,-0.1862,0.2001,-7.57,-1219.12,1531.56
8570,-3.8728,-0.2074,0.1953,179.93,1624.63,453.49
8580,-3.8729,-0.2205,0.1687,1461.18,1015.20,-62.13
8590,-3.8728,-0.2291,0.1345,-210.69,1608.89,62.81
8600,-3.8728,-0.2378,0.1045,-1320.07,1233.89,687.74
8610,-3.8728,-0.2512,0.0892,1570.56,1390.14,1125.18
8620,-3.8728,-0.2722,0.0947,-148.19,-563.05,953.25
8630,-3.8728,-0.2938,0.1122,1164.31,140.08,531.43
8640,-3.8728,-0.3055,0.1277,-1601.32,-1625.61,953.31
8650,-3.8728,-0.3079,0.1382,898.68,358.76,-1702.88
8660,-3.8727,-0.3060,0.1433,601.81,1702.51,812.74
8670,-3.8726,-0.3043,0.1428,836.18,-1641.24,968.99
8680,-3.8724,-0.3058,0.1377,1054.93,-1703.74,-1937.26
8690,-3.8723,-0.3097,0.1219,867.43,1640.01,-531.01
8700,-3.8721,-0.3142,0.0935,367.43,-375.61,984.56
8710,-3.8719,-0.3206,0.0664,-210.69,-16.30,1797.00
8720,-3.8718,-0.3276,0.0548,-1023.19,514.95,1250.12
8730,-3.8717,-0.3347,0.0592,-1929.44,-969.42,437.56
8740,-3.8716,-0.3478,0.0725,1164.31,-406.92,484.44
8750,-3.8715,-0.3687,0.0845,-507.57,1296.14,281.37
8760,-3.8715,-0.3918,0.0807,820.56,-1172.61,-1093.63
8770,-3.8713,-0.4156,0.0581,1851.81,-1657.04,953.25
8780,-3.8713,-0.4375,0.0304,-1195.07,-547.73,-999.94
8790,-3.8712,-0.4453,0.0082,8.06,-94.60,1984.38
8800,-3.8711,-0.4277,-0.0072,-991.94,1061.58,-1156.25
8810,-3.8708,-0.3868,-0.0095,1258.06,-907.10,296.81
8820,-3.8708,-0.3354,0.0114,-1507.57,-1203.92,-31.31
8830,-3.8707,-0.2896,0.0454,1070.56,1468.08,1031.25
8840,-3.8707,-0.2531,0.0670,-1054.44,1827.51,484.44
8850,-3.8707,-0.2201,0.0613,-382.57,593.20,453.25
8860,-3.8707,-0.1914,0.0446,-163.82,-141.11,-1171.81
8870,-3.8706,-0.1766,0.0439,-491.94,1718.32,-921.81
8880,-3.8705,-0.1776,0.0487,1398.68,1640.26,-718.69
8890,-3.8704,-0.1887,0.0358,1273.68,-1750.37,-1328.06
8900,-3.8702,-0.2059,0.0150,-148.19,593.32,1125.06
8910,-3.8702,-0.2205,0.0016,1648.68,1937.07,-281.25
8920,-3.8700,-0.2207,-0.0089,-210.69,218.26,640.62
8930,-3.8699,-0.2106,-0.0264,-241.94,-1125.49,-703.19
8940,-3.8696,-0.2021,-0.0540,1054.93,640.20,1296.81
8950,-3.8695,-0.1998,-0.0842,-1866.94,1108.95,953.00
8960,-3.8695,-0.1969,-0.1106,-1570.07,1233.95,-1859.56
8970,-3.8695,-0.1831,-0.1376,-1195.07,1858.95,-1265.87
8980,-3.8695,-0.1589,-0.1614,570.56,-1594.12,-109.68
8990,-3.8694,-0.1394,-0.1689,-335.69,-640.99,1109.01
9000,-3.8694,-0.1359,-0.1580,-1835.69,-1609.68,484.01
9010,-3.8695,-0.1454,-0.1365,-1382.57,-203.43,921.51
9020,-3.8698,-0.1564,-0.1143,1398.68,-1453.43,-0.31
9030,-3.8699,-0.1521,-0.0991,-7.57,1390.26,-453.37
9040,-3.8699,-0.1218,-0.0918,539.31,-672.18,859.13
9050,-3.8699,-0.0728,-0.0900,414.31,265.38,781.07
9060,-3.8699,-0.0221,-0.0936,-1304.44,499.82,-1593.93
9070,-3.8698,0.0179,-0.1016,1179.93,31.19,109.19
9080,-3.8698,0.0481,-0.1073,-1695.07,-1000.00,1562.26
9090,-3.8698,0.0754,-0.1042,-1835.69,-1734.31,-765.87
9100,-3.8696,0.1027,-0.0966,1664.31,-1343.63,1577.88
9110,-3.8695,0.1284,-0.0942,1148.68,-359.19,546.63
9120,-3.8695,0.1473,-0.0936,445.56,-62.26,-1234.62
9130,-3.8695,0.1573,-0.0867,-1132.57,15.87,-265.81
9140,-3.8694,0.1655,-0.0841,148.68,906.56,109.19
9150,-3.8695,0.1803,-0.0973,1195.56,1234.68,-31.43
9160,-3.8695,0.2042,-0.1187,-913.82,-452.82,-718.99
9170,-3.8695,0.2345,-0.1387,-1851.32,812.87,-1843.99
9180,-3.8695,0.2646,-0.1501,-1976.32,-1749.57,234.07
9190,-3.8696,0.2863,-0.1454,1883.06,781.74,905.94
9200,-3.8698,0.2961,-0.1310,648.68,1391.17,390.32
9210,-3.8700,0.3007,-0.1221,1914.31,-765.08,-453.43
9220,-3.8701,0.3060,-0.1201,-1507.57,375.55,-1312.74
9230,-3.8702,0.3146,-0.1157,-820.07,625.55,1827.88
9240,-3.8704,0.3242,-0.1030,273.68,1188.11,656.01
9250,-3.8706,0.3269,-0.0818,1508.06,-1186.89,-1062.74
9260,-3.8707,0.3208,-0.0546,1851.81,1531.86,765.44
9270,-3.8710,0.3186,-0.0240,1070.56,1016.24,-1937.62
9280,-3.8712,0.3385,-0.0082,789.31,922.49,-734.44
9290,-3.8713,0.3888,-0.0209,-663.82,-1046.26,1843.69
9300,-3.8715,0.4601,-0.0458,1773.68,1328.86,-1937.56
9310,-3.8716,0.5317,-0.0609,-1101.32,-1858.52,-875.12
9320,-3.8716,0.5853,-0.0620,70.56,204.16,453.00
9330,-3.8717,0.6083,-0.0518,-1070.07,63.60,1453.00
9340,-3.8718,0.5986,-0.0302,1867.43,1376.16,-1937.62
9350,-3.8719,0.5574,-0.0001,633.06,141.78,-1484.44
9360,-3.8721,0.4872,0.0397,-648.19,-14.59,-890.69
9370,-3.8722,0.4073,0.0911,-1632.57,1079.04,-78.06
9380,-3.8722,0.3362,0.1401,148.68,-342.96,968.87
9390,-3.8723,0.2800,0.1792,-960.69,1938.11,1937.74
9400,-3.8724,0.2445,0.2159,-148.19,-1062.01,-1655.94
9410,-3.8726,0.2277,0.2489,-695.07,-358.95,-1327.76
9420,-3.8726,0.2189,0.2692,1148.68,-140.20,62.93
9430,-3.8727,0.2072,0.2742,23.68,-1546.45,-1280.76
9440,-3.8727,0.1884,0.2689,-1476.32,-905.88,-1765.14
9450,-3.8727,0.1664,0.2573,117.43,-1577.76,-1827.64
9460,-3.8727,0.1451,0.2396,1304.93,937.81,-1640.14
9470,-3.8727,0.1195,0.2262,-1413.82,-1327.88,-1374.57
9480,-3.8727,0.0878,0.2294,-695.07,953.31,-1405.82
9490,-3.8727,0.0605,0.2423,-757.57,1359.50,-1577.70
9500,-3.8727,0.0420,0.2482,-241.94,-984.31,-1358.95
9510,-3.8727,0.0261,0.2411,1383.06,-234.31,-921.45
9520,-3.8727,0.0109,0.2207,-648.19,-1140.62,-483.95
9530,-3.8726,-0.0050,0.1903,1398.68,250.00,234.80
9540,-3.8726,-0.0260,0.1732,-632.57,374.94,1219.12
9550,-3.8726,-0.0603,0.1987,679.93,-1812.56,-1937.19
9560,-3.8726,-0.1053,0.2583,289.31,1453.00,-1812.13
9570,-3.8726,-0.1399,0.2970,-1476.32,1077.88,1078.61
9580,-3.8727,-0.1533,0.2759,-1898.19,-1969.06,-1515.08
9590,-3.8728,-0.1594,0.2201,383.06,-672.18,-1030.76
9600,-3.8729,-0.1678,0.1732,-398.19,187.13,-140.20
9610,-3.8729,-0.1746,0.1449,-1476.32,-1812.87,1859.68
9620,-3.8729,-0.1779,0.1248,1664.31,-1437.87,922.12
9630,-3.8729,-0.1833,0.1028,1242.43,-15.99,1000.18
9640,-3.8729,-0.1946,0.0739,539.31,1171.51,-1859.19
9650,-3.8728,-0.2157,0.0469,-898.19,1468.32,62.62
9660,-3.8728,-0.2506,0.0344,398.68,-1984.80,-1828.06
9670,-3.8728,-0.2971,0.0316,-70.07,421.33,-31.19
9680,-3.8727,-0.3457,0.0269,1976.81,61.89,1515.69
9690,-3.8727,-0.3839,0.0171,-241.94,-547.61,-343.75
9700,-3.8726,-0.4038,0.0060,-1132.57,-1797.67,-781.25
9710,-3.8723,-0.4064,-0.0009,320.56,780.46,93.75
9720,-3.8722,-0.3940,-0.0094,-7.57,-94.60,1453.06
9730,-3.8721,-0.3740,-0.0308,1570.56,-1188.29,-1109.44
9740,-3.8718,-0.3556,-0.0620,133.06,77.39,734.31
9750,-3.8717,-0.3409,-0.0979,-1507.57,77.39,-375.12
9760,-3.8713,-0.3380,-0.1346,367.43,-516.30,15.38
9770,-3.8711,-0.3555,-0.1545,742.43,-1219.42,780.94
9780,-3.8710,-0.3915,-0.1447,-1491.94,233.64,-422.18
9790,-3.8708,-0.4312,-0.1177,1898.68,1499.21,-1140.93
9800,-3.8708,-0.4570,-0.0975,820.56,952.27,-593.99
9810,-3.8708,-0.4602,-0.0977,1508.06,-469.67,-281.49
9820,-3.8707,-0.4430,-0.1107,1101.81,-485.29,1390.38
9830,-3.8707,-0.4174,-0.1161,-695.07,1842.83,-47.12
9840,-3.8706,-0.3916,-0.1060,-1413.82,1155.40,-1593.99
9850,-3.8705,-0.3618,-0.1049,1883.06,-1547.67,999.76
9860,-3.8704,-0.3245,-0.1278,1695.56,-1406.98,827.88
9870,-3.8702,-0.2908,-0.1543,-1523.19,-344.42,-1828.43
9880,-3.8701,-0.2731,-0.1628,-1210.69,265.01,-359.68
9890,-3.8700,-0.2748,-0.1451,1054.93,-828.67,-406.62
9900,-3.8699,-0.2858,-0.1146,836.18,1436.95,-1594.06
9910,-3.8698,-0.2870,-0.0999,-570.07,1343.14,906.01
9920,-3.8698,-0.2665,-0.1044,-726.32,-766.24,-1156.49
9930,-3.8696,-0.2249,-0.1143,1898.68,-1344.30,31.01
9940,-3.8696,-0.1759,-0.1216,-773.19,1390.14,265.38
9950,-3.8698,-0.1353,-0.1248,1492.43,452.76,-703.37
9960,-3.8698,-0.1074,-0.1294,-1304.44,46.57,1921.63
9970,-3.8698,-0.0879,-0.1357,-1741.94,-547.12,1718.44
9980,-3.8698,-0.0707,-0.1388,758.06,-1359.56,-984.68
9990,-3.8696,-0.0509,-0.1383,-1038.82,-1750.18,780.94
10000,-3.8696,-0.0223,-0.1338,1492.43,-1687.62,-1109.68
10010,-3.8695,0.0144,-0.1277,1148.68,-1109.44,1562.19
10020,-3.8695,0.0507,-0.1227,1851.81,-343.75,-47.18
10030,-3.8694,0.0792,-0.1205,-1507.57,296.94,1031.01
10040,-3.8694,0.0963,-0.1268,-1851.32,578.25,796.63
10050,-3.8695,0.0980,-0.1394,336.18,-234.19,-531.56
10060,-3.8695,0.0850,-0.1423,554.93,-1843.57,1218.44
10070,-3.8696,0.0637,-0.1311,-1116.94,1781.37,-1500.31
10080,-3.8698,0.0450,-0.1140,164.31,-781.13,-390.93
10090,-3.8698,0.0399,-0.0974,1773.68,1406.31,749.76
10100,-3.8699,0.0559,-0.0865,1117.43,-468.69,-1578.37
10110,-3.8699,0.0983,-0.0862,-835.69,921.94,-1937.68
10120,-3.8698,0.1586,-0.0895,586.18,968.93,734.19
10130,-3.8696,0.2128,-0.0815,304.93,547.18,593.57
10140,-3.8696,0.2474,-0.0647,-757.57,1562.87,-1093.93
10150,-3.8696,0.2686,-0.0627,-320.07,-280.82,-1031.43
10160,-3.8696,0.2803,-0.0847,-1616.94,-30.76,-1578.31
10170,-3.8696,0.2772,-0.1060,-116.94,1156.74,-1390.81
10180,-3.8696,0.2618,-0.0979,-507.57,-1562.01,-1484.62
10190,-3.8696,0.2524,-0.0658,1523.68,-530.76,952.88
10200,-3.8698,0.2638,-0.0334,320.56,-421.39,1515.44
10210,-3.8699,0.2957,-0.0063,1773.68,-280.76,796.75
10220,-3.8701,0.3369,0.0165,1851.81,-811.95,-171.94
10230,-3.8702,0.3754,0.0308,-866.94,-1890.01,-1328.12
10240,-3.8704,0.4036,0.0426,54.93,-61.77,734.38
10250,-3.8706,0.4181,0.0603,-335.69,1453.86,1250.06
10260,-3.8708,0.4224,0.0829,1523.68,-280.46,640.69
10270,-3.8711,0.4257,0.1085,-1929.44,-1389.83,406.37
10280,-3.8713,0.4302,0.1327,-1507.57,1891.42,1765.81
10290,-3.8715,0.4283,0.1511,-929.44,985.17,875.24
10300,-3.8716,0.4156,0.1697,-1163.82,-655.46,1015.87
10310,-3.8717,0.3955,0.1884,1211.18,1719.54,1344.06
10320,-3.8718,0.3745,0.2006,-1366.94,110.11,1390.99
10330,-3.8719,0.3544,0.2102,-54.44,1672.55,1531.62
10340,-3.8721,0.3352,0.2236,1367.43,-1093.08,-1593.38
10350,-3.8721,0.3199,0.2371,-1085.69,625.61,94.18
10360,-3.8722,0.3076,0.2460,961.18,-1655.64,-1765.20
10370,-3.8722,0.2959,0.2526,-616.94,-515.08,375.43
10380,-3.8723,0.2858,0.2579,1883.06,328.67,-1640.14
10390,-3.8723,0.2775,0.2562,586.18,1016.17,359.86
10400,-3.8724,0.2678,0.2500,-476.32,797.36,-1327.64
10410,-3.8724,0.2543,0.2451,-1710.69,0.49,1109.86
10420,-3.8726,0.2405,0.2352,554.93,-624.51,-483.95
10430,-3.8726,0.2317,0.2178,-1210.69,-1890.20,-1624.57
10440,-3.8726,0.2239,0.2086,1664.31,-124.57,1640.99
10450,-3.8726,0.2062,0.2230,664.31,-1296.45,344.12
10460,-3.8727,0.1743,0.2544,-1601.32,547.24,1734.80
10470,-3.8728,0.1338,0.2808,-1679.44,562.81,1766.11
10480,-3.8729,0.0942,0.2861,1133.06,-62.26,1594.24
10490,-3.8730,0.0605,0.2805,70.56,625.18,-1280.70
10500,-3.8730,0.0309,0.2791,-241.94,-93.69,1344.24
10510,-3.8730,0.0042,0.2744,-38.82,-281.25,562.99
10520,-3.8732,-0.0159,0.2542,539.31,-875.00,-687.01
10530,-3.8732,-0.0305,0.2247,1976.81,546.81,1562.99
10540,-3.8733,-0.0504,0.2107,101.81,781.19,-233.95
10550,-3.8733,-0.0831,0.2202,1554.93,-1015.75,-1999.63
10560,-3.8733,-0.1224,0.2323,1367.43,202.94,125.43
10570,-3.8734,-0.1552,0.2297,336.18,1749.76,-1046.45
10580,-3.8734,-0.1790,0.2184,148.68,1421.57,-733.95
10590,-3.8734,-0.1984,0.2048,1101.81,-31.62,-77.76
10600,-3.8733,-0.2085,0.1842,-1382.57,-1766.05,31.62
10610,-3.8733,-0.2106,0.1573,1320.56,-406.68,78.43
10620,-3.8733,-0.2206,0.1393,1054.93,155.82,656.56
10630,-3.8733,-0.2524,0.1420,-226.32,1843.26,1297.12
10640,-3.8733,-0.3024,0.1553,-304.44,-1813.05,1218.99
10650,-3.8733,-0.3578,0.1619,1304.93,-109.99,531.49
10660,-3.8733,-0.4043,0.1611,-1788.82,733.64,265.93
10670,-3.8733,-0.4291,0.1461,258.06,639.83,1937.81
10680,-3.8732,-0.4241,0.1051,1086.18,-1282.10,-1421.63
10690,-3.8729,-0.4008,0.0560,1726.81,1467.90,1547.06
10700,-3.8727,-0.3864,0.0244,711.18,-813.29,984.44
10710,-3.8726,-0.3888,0.0104,-1445.07,-860.17,-93.75
10720,-3.8723,-0.4037,0.0010,-1757.57,1342.96,-1718.75
10730,-3.8722,-0.4247,-0.0103,336.18,139.83,-390.62
10740,-3.8719,-0.4382,-0.0330,1648.68,-1297.73,187.44
10750,-3.8718,-0.4408,-0.0717,-85.69,-204.04,874.88
10760,-3.8717,-0.4491,-0.1111,-413.82,-1157.17,-1984.56
10770,-3.8716,-0.4761,-0.1360,-1476.32,1795.96,-375.24
10780,-3.8713,-0.5161,-0.1527,-929.44,-1391.60,1624.69
10790,-3.8712,-0.5549,-0.1758,1945.56,467.71,-437.81
10800,-3.8710,-0.5781,-0.2124,976.81,1514.53,1140.26
10810,-3.8708,-0.5792,-0.2628,-1991.94,826.97,-1141.05
10820,-3.8706,-0.5598,-0.3152,1867.43,-1626.16,1936.95
10830,-3.8702,-0.5277,-0.3484,351.81,-329.22,233.70
10840,-3.8699,-0.5039,-0.3500,461.18,-579.16,1108.64
10850,-3.8695,-0.5081,-0.3220,-491.94,-782.29,639.89
10860,-3.8694,-0.5378,-0.2822,-1023.19,-1204.16,-938.17
10870,-3.8694,-0.5745,-0.2548,-835.69,-110.47,-547.49
10880,-3.8694,-0.5947,-0.2390,-1523.19,-594.91,155.70
10890,-3.8695,-0.5736,-0.2175,-116.94,1420.65,1515.14
10900,-3.8695,-0.4998,-0.1987,-1413.82,170.72,-625.43
10910,-3.8693,-0.3955,-0.1952,39.31,-1422.85,1952.70
10920,-3.8690,-0.2979,-0.1907,1383.06,-969.54,-1672.30
10930,-3.8688,-0.2279,-0.1774,1883.06,-391.24,1140.20
10940,-3.8687,-0.1865,-0.1741,-1163.82,1312.01,171.51
10950,-3.8687,-0.1650,-0.1816,133.06,1734.01,265.26
10960,-3.8688,-0.1575,-0.1787,-1116.94,765.26,-328.49
10970,-3.8688,-0.1600,-0.1642,-148.19,1140.26,-1234.74
10980,-3.8688,-0.1664,-0.1470,-476.32,-1000.37,921.51
10990,-3.8689,-0.1655,-0.1251,-1288.82,1202.76,-1828.43
11000,-3.8690,-0.1448,-0.0978,-1179.44,-0.37,-672.18
11010,-3.8690,-0.0973,-0.0800,1476.81,-500.31,1640.38
11020,-3.8690,-0.0258,-0.0883,-445.07,1781.01,-1515.81
11030,-3.8689,0.0555,-0.1171,711.18,718.69,1921.69
11040,-3.8688,0.1290,-0.1461,-882.57,1015.69,-1843.99
11050,-3.8687,0.1880,-0.1613,523.68,1297.12,890.32
11060,-3.8687,0.2280,-0.1611,70.56,-640.26,999.63
11070,-3.8688,0.2457,-0.1456,1195.56,-624.57,-1406.62
11080,-3.8689,0.2490,-0.1217,-538.82,1359.80,-1640.93
11090,-3.8690,0.2502,-0.1060,-116.94,422.30,1093.51
11100,-3.8693,0.2596,-0.1029,39.31,-1562.01,-375.24
11110,-3.8694,0.2750,-0.1041,1242.43,-1171.39,-1562.74
11120,-3.8695,0.2860,-0.0997,-788.82,-1327.64,1046.63
11130,-3.8698,0.2877,-0.0842,617.43,-765.08,-1531.49
11140,-3.8700,0.2782,-0.0651,836.18,1219.30,-1406.43
11150,-3.8702,0.2603,-0.0511,-382.57,-327.64,1749.82
11160,-3.8705,0.2407,-0.0370,1320.56,1453.61,874.88
11170,-3.8707,0.2273,-0.0138,-1179.44,-733.95,1031.13
11180,-3.8710,0.2222,0.0156,1101.81,-1765.20,-1875.06
11190,-3.8712,0.2262,0.0420,445.56,-1999.57,-515.62
11200,-3.8713,0.2448,0.0541,961.18,1375.43,1625.06
11210,-3.8715,0.2770,0.0559,-663.82,-1077.70,1750.06
11220,-3.8716,0.3110,0.0686,-538.82,-843.26,-218.69
11230,-3.8716,0.3407,0.0961,-179.44,781.80,-1468.63
11240,-3.8716,0.3699,0.1172,-382.57,297.49,968.93
11250,-3.8717,0.3949,0.1199,-648.19,-999.33,-796.69
11260,-3.8717,0.4066,0.1233,-1445.07,-655.52,1515.81
11270,-3.8718,0.4034,0.1429,54.93,-217.96,-343.57
11280,-3.8718,0.3895,0.1633,-351.32,-1702.39,1515.87
11290,-3.8719,0.3635,0.1714,1867.43,906.98,-1124.69
11300,-3.8721,0.3219,0.1793,-1460.69,1938.17,-374.69
11310,-3.8721,0.2766,0.2009,1211.18,-1046.26,312.81
11320,-3.8722,0.2484,0.2296,-585.69,1719.24,1312.87
11330,-3.8723,0.2455,0.2512,-195.07,1391.05,-1374.57
11340,-3.8723,0.2607,0.2601,-570.07,156.68,469.24
11350,-3.8724,0.2822,0.2592,1383.06,1297.36,-468.26
11360,-3.8724,0.2966,0.2544,133.06,1172.42,-171.39
11370,-3.8723,0.2969,0.2505,1976.81,563.05,156.74
11380,-3.8724,0.2836,0.2491,-1991.94,63.05,-312.01
11390,-3.8724,0.2625,0.2450,304.93,-108.83,-1530.82
11400,-3.8724,0.2434,0.2294,1601.81,-640.14,859.80
11410,-3.8726,0.2256,0.2048,-835.69,1359.80,-515.20
11420,-3.8726,0.1979,0.1797,883.06,-1780.82,-937.13
11430,-3.8726,0.1539,0.1600,1336.18,-999.63,-671.57
11440,-3.8726,0.0981,0.1475,-288.82,484.62,-984.07
11450,-3.8726,0.0414,0.1388,570.56,-1124.82,1578.37
11460,-3.8727,-0.0072,0.1317,1304.93,1765.69,-702.88
11470,-3.8727,-0.0416,0.1276,-913.82,874.94,843.99
11480,-3.8728,-0.0592,0.1294,-1320.07,343.63,-1702.88
11490,-3.8729,-0.0608,0.1416,429.93,578.00,-718.51
11500,-3.8729,-0.0515,0.1616,226.81,-1859.50,156.49
11510,-3.8730,-0.0422,0.1765,1414.31,703.00,1625.31
11520,-3.8732,-0.0477,0.1771,-1398.19,-1390.75,-171.57
11530,-3.8732,-0.0710,0.1638,1898.68,-1312.62,-1405.94
11540,-3.8732,-0.1023,0.1388,-1085.69,984.19,-1749.69
11550,-3.8732,-0.1382,0.1075,-1085.69,1781.01,-765.38
11560,-3.8730,-0.1849,0.0792,-1679.44,1780.94,812.68
11570,-3.8730,-0.2401,0.0551,336.18,-1844.12,1797.00
11580,-3.8730,-0.2942,0.0341,1273.68,-937.99,1875.06
11590,-3.8730,-0.3446,0.0206,-1648.19,374.39,1734.44
11600,-3.8730,-0.3920,0.0220,-101.32,-1344.48,-1640.62
11610,-3.8730,-0.4332,0.0343,1836.18,-1172.67,-15.62
11620,-3.8729,-0.4562,0.0338,554.93,405.40,-999.94
11630,-3.8728,-0.4545,0.0020,1617.43,342.83,-593.69
11640,-3.8726,-0.4381,-0.0532,1836.18,264.71,265.62
11650,-3.8724,-0.4241,-0.1093,-70.07,1202.21,1968.63
11660,-3.8722,-0.4249,-0.1455,1726.81,-1969.60,874.76
11670,-3.8721,-0.4391,-0.1554,1617.43,1389.77,-422.18
11680,-3.8718,-0.4587,-0.1488,-195.07,124.08,749.69
11690,-3.8717,-0.4758,-0.1395,1289.31,967.83,515.32
11700,-3.8716,-0.4846,-0.1384,-898.19,-1844.73,62.19
11710,-3.8715,-0.4839,-0.1516,1976.81,-1704.10,1109.07
11720,-3.8712,-0.4791,-0.1743,-1929.44,608.40,640.32
11730,-3.8710,-0.4805,-0.1924,-1320.07,1702.15,609.01
11740,-3.8708,-0.4922,-0.1934,-1491.94,-610.35,1937.07
11750,-3.8708,-0.5087,-0.1812,1008.06,-735.35,-62.93
11760,-3.8708,-0.5210,-0.1688,-1101.32,827.09,-156.62
11770,-3.8707,-0.5227,-0.1605,1320.56,-1594.79,202.76
11780,-3.8707,-0.5081,-0.1581,1101.81,-532.29,-109.74
11790,-3.8705,-0.4813,-0.1597,-1023.19,-219.79,-937.87
11800,-3.8702,-0.4558,-0.1652,-1601.32,-422.85,-859.74
11810,-3.8700,-0.4414,-0.1871,1664.31,-1125.92,1124.63
11820,-3.8699,-0.4462,-0.2236,-491.94,61.58,265.26
11830,-3.8699,-0.4720,-0.2413,-1101.32,-610.29,1640.14
11840,-3.8699,-0.5028,-0.2251,-413.82,1124.02,-531.74
11850,-3.8698,-0.5122,-0.1997,-351.32,-797.91,-1562.99
11860,-3.8696,-0.4891,-0.1710,-1554.44,-1547.91,921.45
11870,-3.8696,-0.4369,-0.1353,1398.68,-1875.98,-562.87
11880,-3.8695,-0.3622,-0.1171,86.18,-1297.73,-500.31
11890,-3.8693,-0.2844,-0.1237,1648.68,1030.52,484.13
11900,-3.8691,-0.2228,-0.1185,-398.19,186.89,-1984.62
11910,-3.8689,-0.1709,-0.0812,-507.57,843.26,624.76
11920,-3.8688,-0.1089,-0.0299,-1866.94,1624.63,-765.81
11930,-3.8685,-0.0308,0.0162,-1929.44,187.26,859.31
11940,-3.8684,0.0549,0.0485,70.56,-1906.31,-1875.00
11950,-3.8683,0.1350,0.0605,-960.69,-1796.81,-1109.31
11960,-3.8682,0.1959,0.0574,1289.31,-249.76,-1390.56
11970,-3.8680,0.2274,0.0544,1086.18,-655.88,1312.56
11980,-3.8680,0.2393,0.0559,1117.43,-1030.82,-1687.44
11990,-3.8680,0.2559,0.0515,-1366.94,-843.32,765.69
12000,-3.8682,0.2826,0.0251,758.06,-1405.76,718.81
12010,-3.8684,0.3099,-0.0142,179.93,-780.70,-1484.38
12020,-3.8687,0.3385,-0.0359,-320.07,-1811.95,-921.94
12030,-3.8689,0.3732,-0.0388,-663.82,-593.14,-359.50
12040,-3.8690,0.4071,-0.0394,-226.32,-968.08,546.75
12050,-3.8693,0.4335,-0.0392,117.43,-1046.08,1468.63
12060,-3.8695,0.4548,-0.0339,-507.57,-1014.83,1921.75
12070,-3.8698,0.4714,-0.0297,-1773.19,-342.90,1703.00
12080,-3.8700,0.4841,-0.0352,351.81,204.04,1093.69
12090,-3.8702,0.5018,-0.0460,1976.81,-499.08,499.88
12100,-3.8705,0.5216,-0.0538,242.43,-1889.65,874.88
12110,-3.8707,0.5294,-0.0565,-1226.32,1110.35,-1422.00
12120,-3.8708,0.5212,-0.0453,-226.32,766.60,734.25
12130,-3.8711,0.5050,-0.0182,-1273.19,-1795.90,-1437.62
12140,-3.8712,0.4890,0.0099,648.68,1672.85,328.06
12150,-3.8715,0.4697,0.0330,-1398.19,1266.54,-984.38
12160,-3.8716,0.4395,0.0602,133.06,219.67,-1296.81
12170,-3.8717,0.4027,0.0944,258.06,-296.02,-1765.56
12180,-3.8718,0.3729,0.1288,-445.07,78.86,1125.18
12190,-3.8719,0.3596,0.1541,-257.57,485.05,297.12
12200,-3.8721,0.3613,0.1726,-1960.69,-280.58,468.99
12210,-3.8722,0.3710,0.1948,-1741.94,-1905.58,1750.31
12220,-3.8722,0.3831,0.2186,-507.57,938.17,47.24
12230,-3.8723,0.4004,0.2345,1039.31,-14.89,-1249.63
12240,-3.8723,0.4325,0.2274,-741.94,-1983.64,1687.93
12250,-3.8723,0.4763,0.1873,-632.57,1110.17,-1765.20
12260,-3.8722,0.5044,0.1451,976.81,-30.33,1000.31
12270,-3.8721,0.4862,0.1434,570.56,-1420.90,547.12
12280,-3.8721,0.4250,0.1741,-1757.57,-1639.71,-843.51
12290,-3.8721,0.3522,0.1984,-1585.69,-1717.96,-734.07
12300,-3.8721,0.2903,0.1990,1086.18,1391.30,687.87
12310,-3.8722,0.2471,0.1847,1164.31,1469.30,734.74
12320,-3.8723,0.2236,0.1727,-366.94,-358.95,547.18
12330,-3.8724,0.2126,0.1737,633.06,-1890.20,547.18
12340,-3.8726,0.2039,0.1847,-773.19,-1765.26,625.31
12350,-3.8727,0.1923,0.1979,-1898.19,-359.01,484.68
12360,-3.8728,0.1760,0.2048,617.43,1328.49,687.87
12370,-3.8729,0.1525,0.2006,-1460.69,-1780.94,-1937.13
12380,-3.8729,0.1191,0.1871,-476.32,1672.12,187.87
12390,-3.8730,0.0795,0.1698,-741.94,-46.69,1890.93
12400,-3.8732,0.0416,0.1536,-1820.07,1734.50,-1280.94
12410,-3.8733,0.0081,0.1453,1336.18,-343.69,-984.13
12420,-3.8734,-0.0254,0.1492,1039.31,-1406.25,-359.13
12430,-3.8734,-0.0610,0.1594,758.06,-890.69,906.49
12440,-3.8735,-0.0995,0.1658,195.56,421.75,-1249.69
12450,-3.8735,-0.1368,0.1595,-726.32,1234.13,1219.06
12460,-3.8737,-0.1696,0.1366,-1507.57,437.19,-15.32
12470,-3.8737,-0.2023,0.1095,-1695.07,1499.63,-1077.88
12480,-3.8737,-0.2386,0.0972,-1882.57,-1969.18,-1484.19
12490,-3.8737,-0.2738,0.1044,1461.18,452.64,-1171.69
12500,-3.8737,-0.3066,0.1227,961.18,1374.45,-156.07
12510,-3.8735,-0.3378,0.1437,758.06,-281.86,1156.43
12520,-3.8735,-0.3635,0.1588,773.68,-1594.42,-1874.76
12530,-3.8735,-0.3860,0.1636,1476.81,343.02,-1015.32
12540,-3.8734,-0.4095,0.1681,-1398.19,952.33,969.06
12550,-3.8733,-0.4390,0.1752,-413.82,1530.40,953.43
12560,-3.8732,-0.4655,0.1604,-179.44,-1563.42,-1780.94
12570,-3.8730,-0.4680,0.1089,429.93,545.96,-718.44
12580,-3.8729,-0.4482,0.0438,101.81,1952.21,-218.57
12590,-3.8727,-0.4229,-0.0043,-1366.94,1624.08,1093.81
12600,-3.8724,-0.3960,-0.0327,1883.06,-532.10,124.94
12610,-3.8722,-0.3726,-0.0669,1320.56,-172.67,390.50
12620,-3.8719,-0.3690,-0.1193,320.56,-547.61,1265.44
12630,-3.8717,-0.3938,-0.1698,773.68,749.27,1999.76
12640,-3.8715,-0.4441,-0.1942,1601.81,-1719.54,1593.38
12650,-3.8712,-0.5117,-0.1854,-835.69,-844.67,562.07
12660,-3.8710,-0.5765,-0.1704,-1491.94,280.21,1655.88
12670,-3.8706,-0.6194,-0.1963,-1788.82,-1798.03,-1765.99
12680,-3.8701,-0.6371,-0.2726,726.81,-1110.60,437.07
12690,-3.8698,-0.6381,-0.3624,-1538.82,1123.72,1311.95
12700,-3.8695,-0.6349,-0.4183,-1663.82,1623.72,-688.23
12710,-3.8693,-0.6387,-0.4148,-1257.57,-1532.53,-1782.10
12720,-3.8691,-0.6528,-0.3655,-1741.94,-1079.41,1342.90
12730,-3.8691,-0.6631,-0.2986,445.56,1233.09,655.52
12740,-3.8693,-0.6472,-0.2358,-866.94,1795.53,1593.14
12750,-3.8694,-0.5948,-0.1953,1164.31,1826.84,1843.26
12760,-3.8695,-0.5142,-0.1876,-132.57,-985.60,-687.93
12770,-3.8694,-0.4219,-0.2030,-1804.44,-1.04,312.07
12780,-3.8693,-0.3367,-0.2220,-1991.94,-1969.60,-1875.43
12790,-3.8690,-0.2778,-0.2321,914.31,-406.92,-672.36
12800,-3.8688,-0.2549,-0.2235,445.56,-1688.05,-656.74
12810,-3.8687,-0.2610,-0.2024,-616.94,-594.30,-1750.49
12820,-3.8687,-0.2759,-0.1870,-1398.19,-1891.17,218.32
12830,-3.8689,-0.2755,-0.1802,695.56,77.58,-344.12
12840,-3.8690,-0.2490,-0.1702,742.43,952.58,-1172.24
12850,-3.8691,-0.2012,-0.1553,133.06,-1766.11,-1203.49
12860,-3.8693,-0.1423,-0.1488,-1741.94,140.20,-265.93
12870,-3.8693,-0.0834,-0.1556,1789.31,968.44,1749.69
12880,-3.8693,-0.0270,-0.1720,1336.18,93.57,874.69
12890,-3.8693,0.0304,-0.1995,554.93,1999.94,1452.76
12900,-3.8693,0.0829,-0.2192,-101.32,-1531.25,-1047.30
12910,-3.8691,0.1190,-0.2111,-1382.57,-62.38,296.39
12920,-3.8691,0.1321,-0.1923,-757.57,984.56,1030.82
12930,-3.8691,0.1190,-0.1807,914.31,-609.13,671.45
12940,-3.8693,0.0817,-0.1713,-757.57,875.18,-1297.24
12950,-3.8694,0.0388,-0.1555,-1538.82,-1921.75,-1594.12
12960,-3.8695,0.0204,-0.1302,976.81,93.81,187.19
12970,-3.8698,0.0439,-0.0946,-1382.57,-671.88,1718.44
12980,-3.8699,0.1012,-0.0536,1633.06,-109.31,452.88
12990,-3.8700,0.1667,-0.0162,961.18,1140.81,968.63
13000,-3.8701,0.2238,0.0117,1351.81,1922.18,-984.44
13010,-3.8701,0.2684,0.0259,648.68,1500.43,1687.50
13020,-3.8701,0.3071,0.0238,-1632.57,-687.01,15.62
13030,-3.8702,0.3481,0.0092,-679.44,-952.58,-1671.88
13040,-3.8702,0.3850,0.0016,570.56,1172.55,1187.50
13050,-3.8704,0.4048,0.0154,1289.31,203.86,-93.75
13060,-3.8704,0.4020,0.0398,-179.44,1969.48,1359.38
13070,-3.8705,0.3788,0.0609,-538.82,1094.48,671.94
13080,-3.8707,0.3429,0.0743,492.43,-202.39,1984.44
13090,-3.8710,0.3096,0.0826,-101.32,1516.24,-890.50
13100,-3.8711,0.2909,0.0894,-366.94,-1421.33,1718.87
13110,-3.8712,0.2838,0.0948,1242.43,-561.95,1734.50
13120,-3.8713,0.2800,0.0981,336.18,141.17,-1812.32
13130,-3.8715,0.2750,0.1018,-148.19,562.99,-1718.57
13140,-3.8716,0.2672,0.1096,-788.82,1031.74,1797.06
13150,-3.8717,0.2583,0.1216,-1788.82,-1968.26,1125.18
13160,-3.8718,0.2523,0.1309,1070.56,-437.01,750.18
13170,-3.8719,0.2511,0.1346,304.93,750.49,687.74
13180,-3.8721,0.2520,0.1420,148.68,1234.86,1062.74
13190,-3.8722,0.2532,0.1620,258.06,-1827.64,1468.99
13200,-3.8723,0.2548,0.1904,414.31,734.86,1437.81
13210,-3.8724,0.2526,0.2144,617.43,375.49,594.12
13220,-3.8727,0.2440,0.2321,336.18,-562.01,-1062.13
13230,-3.8728,0.2307,0.2528,-757.57,1703.55,1250.43
13240,-3.8730,0.2163,0.2769,1539.31,359.80,-46.39
13250,-3.8732,0.2080,0.2979,-304.44,-562.13,-1124.51
13260,-3.8733,0.2045,0.3130,-1366.94,-1874.63,-1468.20
13270,-3.8734,0.1962,0.3226,-1820.07,62.87,-265.01
13280,-3.8734,0.1768,0.3301,1117.43,1297.24,-1765.01
13290,-3.8734,0.1456,0.3363,-1366.94,-1749.69,813.11
13300,-3.8735,0.1116,0.3412,-1351.32,-952.88,-1093.14
13310,-3.8735,0.0861,0.3405,-1710.69,-327.94,1203.74
13320,-3.8737,0.0745,0.3236,-976.32,-421.75,-61.89
13330,-3.8737,0.0742,0.2905,1539.31,1422.00,-546.26
13340,-3.8735,0.0747,0.2539,1508.06,1187.62,594.30
13350,-3.8735,0.0636,0.2283,1570.56,500.12,-1421.39
13360,-3.8734,0.0388,0.2101,148.68,1218.87,16.05
13370,-3.8734,0.0021,0.1877,976.81,-1109.31,1156.62
13380,-3.8734,-0.0487,0.1593,273.68,31.25,-1765.26
13390,-3.8734,-0.1123,0.1289,1773.68,406.13,-1187.19
13400,-3.8734,-0.1808,0.1044,1633.06,515.38,-781.01
13410,-3.8734,-0.2432,0.0880,867.43,1374.63,-109.19
13420,-3.8733,-0.2845,0.0609,883.06,-719.24,1672.00
13430,-3.8732,-0.3031,0.0115,-413.82,-188.11,-1828.06
13440,-3.8729,-0.3176,-0.0326,1211.18,1483.76,828.12
13450,-3.8728,-0.3394,-0.0494,-648.19,-156.92,-109.50
13460,-3.8726,-0.3676,-0.0518,570.56,1686.83,1593.63
13470,-3.8724,-0.4006,-0.0563,961.18,1389.89,1468.63
13480,-3.8723,-0.4287,-0.0775,726.81,811.71,1265.50
13490,-3.8722,-0.4377,-0.1262,1133.06,-1907.10,-750.18
13500,-3.8718,-0.4348,-0.1808,-23.19,-141.54,187.19
13510,-3.8716,-0.4403,-0.2048,351.81,874.15,999.63
13520,-3.8715,-0.4607,-0.1964,-351.32,1795.96,-1984.80
13530,-3.8715,-0.4912,-0.1729,1039.31,-1125.92,-344.18
13540,-3.8713,-0.5264,-0.1505,1133.06,1889.65,734.01
13550,-3.8713,-0.5464,-0.1523,633.06,748.96,-875.31
13560,-3.8711,-0.5316,-0.1862,-1929.44,514.53,171.57
13570,-3.8708,-0.4954,-0.2211,-38.82,186.40,77.76
13580,-3.8706,-0.4663,-0.2225,601.81,-282.23,390.14
13590,-3.8705,-0.4567,-0.1921,320.56,-469.67,-1000.49
13600,-3.8702,-0.4614,-0.1597,1554.93,-579.04,843.32
13610,-3.8700,-0.4690,-0.1565,945.56,-422.79,390.26
13620,-3.8698,-0.4641,-0.1898,-23.19,-16.60,-1969.12
13630,-3.8694,-0.4419,-0.2385,601.81,-282.17,530.82
13640,-3.8691,-0.4149,-0.2793,-554.44,1483.46,-1234.86
13650,-3.8688,-0.3929,-0.2997,-1101.32,264.77,218.20
13660,-3.8685,-0.3707,-0.2963,1711.18,1655.46,1436.89
13670,-3.8683,-0.3409,-0.2815,554.93,-1906.98,-1641.24
13680,-3.8680,-0.3083,-0.2695,367.43,-16.30,827.51
13690,-3.8680,-0.2789,-0.2625,539.31,1515.01,-1000.55
13700,-3.8680,-0.2551,-0.2684,304.93,-1578.67,-1531.80
13710,-3.8680,-0.2435,-0.2975,-648.19,1655.70,1577.58
13720,-3.8680,-0.2478,-0.3243,836.18,1937.01,530.64
13730,-3.8682,-0.2487,-0.3115,289.31,-1500.49,-328.80
13740,-3.8682,-0.2135,-0.2756,179.93,140.14,-656.86
13750,-3.8682,-0.1305,-0.2479,679.93,733.95,-1422.42
13760,-3.8682,-0.0170,-0.2290,-695.07,280.94,1405.76
13770,-3.8683,0.1024,-0.2169,1836.18,-1296.94,-62.99
13780,-3.8683,0.2185,-0.2128,1117.43,234.56,1374.57
13790,-3.8684,0.3274,-0.2091,-23.19,765.99,1671.45
13800,-3.8685,0.4247,-0.2009,1914.31,1234.99,1358.95
13810,-3.8687,0.5137,-0.1931,-1632.57,-1717.96,999.57
13820,-3.8688,0.5889,-0.1891,1758.06,-717.77,327.70
13830,-3.8690,0.6459,-0.1847,-616.94,-202.03,-1750.43
13840,-3.8693,0.6897,-0.1753,-1320.07,360.60,-1250.37
13850,-3.8695,0.7178,-0.1573,289.31,1563.84,-1359.74
13860,-3.8698,0.7258,-0.1356,-116.94,-139.28,-1672.24
13870,-3.8700,0.7104,-0.1193,914.31,-1357.97,1374.69
13880,-3.8704,0.6752,-0.1035,-1054.44,735.72,-890.87
13890,-3.8707,0.6315,-0.0781,-1570.07,-1248.72,-187.74
13900,-3.8710,0.5917,-0.0446,836.18,-1998.78,687.32
13910,-3.8713,0.5682,-0.0110,-257.57,-1702.03,-1578.25
13920,-3.8716,0.5659,0.0170,742.43,-1405.15,890.56
13930,-3.8718,0.5786,0.0405,445.56,-1827.03,31.25
13940,-3.8721,0.5956,0.0649,-1929.44,1188.60,109.44
13950,-3.8723,0.6073,0.0974,242.43,313.66,1234.50
13960,-3.8726,0.6100,0.1375,1742.43,469.91,-765.44
13970,-3.8727,0.6016,0.1755,-1913.82,1594.91,1765.87
13980,-3.8728,0.5833,0.2043,1008.06,-1530.09,734.68
13990,-3.8729,0.5608,0.2238,-1335.69,-1842.65,609.74
14000,-3.8730,0.5383,0.2408,-210.69,641.66,1922.30
14010,-3.8730,0.5178,0.2567,914.31,-1170.84,531.68
14020,-3.8732,0.5000,0.2649,-1710.69,860.35,-577.64
14030,-3.8732,0.4807,0.2640,8.06,1907.23,1578.61
14040,-3.8733,0.4574,0.2610,1539.31,1797.79,-718.26
14050,-3.8733,0.4288,0.2626,-1445.07,1407.10,1031.74
14060,-3.8734,0.3926,0.2687,-1101.32,1610.17,-1030.76
14070,-3.8734,0.3502,0.2753,-1741.94,-1608.64,1469.24
14080,-3.8734,0.3069,0.2786,836.18,-764.95,641.11
14090,-3.8734,0.2683,0.2797,-710.69,-343.20,16.11
14100,-3.8735,0.2373,0.2820,-1648.19,-202.64,-233.89
14110,-3.8735,0.2134,0.2814,-1616.94,94.18,-46.33
14120,-3.8735,0.1929,0.2719,-679.44,15.99,-61.95
14130,-3.8735,0.1659,0.2533,695.56,-1202.76,-999.51
14140,-3.8735,0.1263,0.2301,1242.43,422.18,1031.74
14150,-3.8737,0.0782,0.2070,179.93,1453.37,1969.18
14160,-3.8738,0.0332,0.1836,-1976.32,-1499.88,-1624.63
14170,-3.8738,-0.0042,0.1659,258.06,-499.94,687.81
14180,-3.8738,-0.0432,0.1649,-523.19,1249.94,1765.93
14190,-3.8738,-0.0881,0.1740,-1523.19,1124.88,-62.19
14200,-3.8737,-0.1320,0.1783,726.81,-1718.93,1656.56
14210,-3.8737,-0.1660,0.1711,-882.57,-1156.56,-1296.57
14220,-3.8735,-0.1799,0.1465,-1241.94,1921.51,734.68
14230,-3.8734,-0.1710,0.1018,976.81,-1234.74,609.62
14240,-3.8733,-0.1477,0.0491,-1882.57,1046.51,1765.81
14250,-3.8732,-0.1282,0.0023,1101.81,-1703.43,-218.69
14260,-3.8729,-0.1334,-0.0367,-398.19,312.19,1640.62
14270,-3.8728,-0.1649,-0.0682,-1070.07,-687.81,-656.37
14280,-3.8726,-0.2067,-0.0906,-1101.32,-719.12,937.32
14290,-3.8724,-0.2443,-0.1155,1554.93,421.45,1827.94
14300,-3.8723,-0.2731,-0.1548,742.43,1233.89,-1500.24
14310,-3.8722,-0.2935,-0.2098,1054.93,202.58,-375.31
14320,-3.8719,-0.3104,-0.2800,-1554.44,1155.64,1765.20
14330,-3.8717,-0.3394,-0.3458,273.68,171.26,1515.08
14340,-3.8715,-0.4012,-0.3746,570.56,-250.67,1577.39
14350,-3.8713,-0.4962,-0.3517,648.68,61.71,-375.73
14360,-3.8712,-0.6007,-0.2942,492.43,-1000.98,-969.48
14370,-3.8711,-0.6821,-0.2424,-882.57,-1641.85,546.26
14380,-3.8711,-0.7115,-0.2288,695.56,983.03,1530.76
14390,-3.8711,-0.6820,-0.2489,929.93,-1267.03,-219.24
14400,-3.8708,-0.6040,-0.2836,711.18,154.91,468.26
14410,-3.8707,-0.4941,-0.3160,-1304.44,-282.47,-500.61
14420,-3.8704,-0.3721,-0.3188,758.06,-438.48,1811.83
14430,-3.8699,-0.2700,-0.2915,383.06,-797.61,1952.45
14440,-3.8693,-0.2239,-0.2717,1445.56,-1297.42,1749.39
14450,-3.8688,-0.2510,-0.2744,-648.19,1233.89,-1688.05
14460,-3.8684,-0.3350,-0.2819,-116.94,890.08,30.70
14470,-3.8683,-0.4307,-0.2806,1133.06,-63.17,999.39
14480,-3.8682,-0.4896,-0.2756,883.06,92.90,827.58
14490,-3.8680,-0.4811,-0.2810,1336.18,733.40,-969.30
14500,-3.8677,-0.4025,-0.3102,-1570.07,45.90,1921.33
14510,-3.8673,-0.2806,-0.3582,492.43,311.71,-500.61
14520,-3.8668,-0.1581,-0.3983,86.18,-1828.67,14.89
14530,-3.8666,-0.0708,-0.4248,-226.32,1030.88,1827.33
14540,-3.8663,-0.0283,-0.4454,-1054.44,1640.44,108.52
14550,-3.8663,-0.0045,-0.4465,383.06,-1000.06,-1375.92
14560,-3.8663,0.0404,-0.4182,-570.07,-1140.69,-1610.29
14570,-3.8663,0.1283,-0.3827,1179.93,-1531.19,280.40
14580,-3.8665,0.2512,-0.3615,429.93,-984.13,499.21
14590,-3.8667,0.3817,-0.3496,164.31,1734.86,-1516.36
14600,-3.8669,0.4968,-0.3453,867.43,-749.27,1233.64
14610,-3.8673,0.5863,-0.3444,-398.19,-202.21,530.52
14620,-3.8678,0.6488,-0.3378,-945.07,-77.03,1921.14
14630,-3.8683,0.6837,-0.3291,-945.07,766.85,-485.05
14640,-3.8687,0.6910,-0.3245,-476.32,1876.28,1921.20
14650,-3.8690,0.6752,-0.3169,461.18,-1529.91,952.45
14660,-3.8694,0.6431,-0.2958,-1570.07,-561.22,343.08
14670,-3.8699,0.5997,-0.2589,-1679.44,-1858.15,-47.49
14680,-3.8701,0.5510,-0.2147,773.68,-1139.47,265.08
14690,-3.8705,0.5059,-0.1776,-1460.69,516.66,1140.20
14700,-3.8708,0.4730,-0.1562,758.06,1266.60,-1922.24
14710,-3.8712,0.4581,-0.1381,554.93,0.92,-281.56
14720,-3.8715,0.4576,-0.1066,-1351.32,-1671.02,-984.68
14730,-3.8717,0.4598,-0.0653,-1413.82,-1639.77,-156.49
14740,-3.8718,0.4554,-0.0221,-1132.57,-358.52,1437.32
14750,-3.8721,0.4430,0.0197,-1695.07,1172.73,-1031.31
14760,-3.8722,0.4308,0.0582,711.18,-1483.52,62.50
14770,-3.8724,0.4257,0.0997,-851.32,-546.08,1453.19
14780,-3.8726,0.4266,0.1472,-1507.57,766.42,31.43
14790,-3.8728,0.4291,0.1904,-1382.57,-1155.46,-156.01
14800,-3.8728,0.4325,0.2230,-1070.07,375.79,640.99
14810,-3.8729,0.4359,0.2509,-632.57,547.67,1891.05
14820,-3.8730,0.4331,0.2767,-195.07,110.17,-452.64
14830,-3.8730,0.4216,0.2969,-554.44,-577.33,-1843.26
14840,-3.8730,0.4042,0.3099,1976.81,-1999.21,1109.92
14850,-3.8732,0.3854,0.3213,-257.57,-327.39,-311.95
14860,-3.8732,0.3676,0.3389,1336.18,1125.73,-1702.51
14870,-3.8732,0.3551,0.3584,-945.07,-624.33,1391.24
14880,-3.8732,0.3516,0.3687,1461.18,1875.67,906.92
14890,-3.8732,0.3511,0.3690,1008.06,-811.83,969.42
14900,-3.8732,0.3425,0.3615,945.56,-764.95,1031.92
14910,-3.8733,0.3151,0.3502,-148.19,-1733.76,-546.20
14920,-3.8734,0.2670,0.3469,336.18,828.74,-796.20
14930,-3.8735,0.2101,0.3479,-1820.07,406.74,1250.67
14940,-3.8738,0.1571,0.3417,-1101.32,531.62,-1077.45
14950,-3.8739,0.1128,0.3275,117.43,-265.32,766.24
14960,-3.8741,0.0801,0.3049,-1554.44,1922.06,-640.01
14970,-3.8743,0.0634,0.2693,-1741.94,-968.63,-999.45
14980,-3.8744,0.0537,0.2340,117.43,-1531.13,-233.89
14990,-3.8744,0.0266,0.2141,-1116.94,1953.19,-1702.70
15000,-3.8744,-0.0319,0.1949,-585.69,-593.75,-1265.26
15010,-3.8744,-0.1168,0.1624,-70.07,968.63,-30.88
15020,-3.8743,-0.2163,0.1238,1054.93,796.63,1265.93
15030,-3.8743,-0.3121,0.0862,320.56,-141.05,-765.44
15040,-3.8741,-0.3909,0.0438,54.93,-953.74,-718.63
15050,-3.8739,-0.4446,-0.0082,1976.81,1624.21,-1359.31
15060,-3.8735,-0.4701,-0.0767,-898.19,-1032.17,1453.06
15070,-3.8732,-0.4767,-0.1573,-163.82,-1797.85,1781.07
15080,-3.8728,-0.4893,-0.2167,-1007.57,-125.98,-1734.74
15090,-3.8724,-0.5237,-0.2345,1383.06,280.27,-766.05
15100,-3.8721,-0.5713,-0.2322,976.81,1998.96,-1000.49
15110,-3.8718,-0.6193,-0.2454,-1116.94,-1704.28,-0.49
15120,-3.8716,-0.6639,-0.2902,742.43,608.15,-94.24
15130,-3.8712,-0.7111,-0.3475,-976.32,-1126.34,655.64
15140,-3.8710,-0.7612,-0.3875,992.43,-470.15,1952.39
15150,-3.8707,-0.8085,-0.3986,-1429.44,-1579.65,-1797.67
15160,-3.8705,-0.8444,-0.3760,523.68,998.41,124.21
15170,-3.8704,-0.8571,-0.3232,-70.07,-111.08,186.71
15180,-3.8702,-0.8401,-0.2722,-1695.07,-1361.08,46.20
15190,-3.8701,-0.8030,-0.2565,476.81,1170.23,1218.20
15200,-3.8700,-0.7664,-0.2733,1226.81,-814.09,-188.05
15210,-3.8698,-0.7472,-0.2999,1914.31,1029.72,1577.58
15220,-3.8696,-0.7437,-0.3187,367.43,1623.54,686.89
15230,-3.8696,-0.7419,-0.3176,820.56,-782.71,-156.92
15240,-3.8694,-0.7449,-0.2974,1039.31,-642.09,-1844.42
15250,-3.8691,-0.7599,-0.2758,664.31,1951.66,1843.14
15260,-3.8690,-0.7755,-0.2769,-1257.57,717.22,-578.67
15270,-3.8689,-0.7756,-0.3048,742.43,576.60,1624.45
15280,-3.8689,-0.7501,-0.3242,726.81,998.47,1561.89
15290,-3.8689,-0.6869,-0.3175,-7.57,-1485.90,-1906.92
15300,-3.8688,-0.5815,-0.3064,86.18,-626.34,874.33
15310,-3.8687,-0.4510,-0.3018,1570.56,795.72,1186.89
15320,-3.8685,-0.3203,-0.2836,-1726.32,1389.71,1811.89
15330,-3.8684,-0.2021,-0.2281,-991.94,-281.92,1390.01
15340,-3.8684,-0.0981,-0.1520,-1866.94,-1187.93,1874.51
15350,-3.8685,-0.0084,-0.0880,-554.44,562.26,1968.44
15360,-3.8688,0.0697,-0.0389,-1070.07,749.94,-828.31
15370,-3.8689,0.1477,0.0052,929.93,-984.25,124.88
15380,-3.8691,0.2328,0.0452,-1085.69,672.12,-1765.62
15390,-3.8693,0.3242,0.0771,1804.93,1781.68,1531.31
15400,-3.8694,0.4126,0.0999,1508.06,1875.61,1078.25
15410,-3.8695,0.4907,0.1116,820.56,782.04,422.06
15420,-3.8696,0.5569,0.1085,-1179.44,-1717.83,828.31
15430,-3.8696,0.6038,0.0972,-710.69,1891.66,93.93
15440,-3.8696,0.6244,0.0941,1289.31,438.66,1390.81
15450,-3.8696,0.6169,0.1075,-70.07,48.03,1843.93
15460,-3.8698,0.5933,0.1332,-1023.19,1766.78,-281.07
15470,-3.8699,0.5662,0.1620,-54.44,1047.97,-1671.63
15480,-3.8701,0.5425,0.1917,476.81,735.47,1719.06
15490,-3.8705,0.5286,0.2218,1445.56,532.29,-984.01
15500,-3.8708,0.5251,0.2461,-335.69,391.60,-358.95
15510,-3.8711,0.5289,0.2634,-773.19,-499.02,516.05
15520,-3.8715,0.5333,0.2823,-288.82,1719.73,1859.86
15530,-3.8717,0.5354,0.3053,273.68,141.66,203.67
15540,-3.8719,0.5420,0.3259,539.31,-920.84,484.92
15550,-3.8722,0.5540,0.3344,1383.06,1719.79,-1015.01
15560,-3.8723,0.5637,0.3226,-1085.69,-1202.09,-358.76
15570,-3.8723,0.5626,0.3013,164.31,1297.97,-1577.51
15580,-3.8723,0.5459,0.2852,23.68,-1436.40,-1499.45
15590,-3.8723,0.5142,0.2709,1883.06,501.04,-1374.45
15600,-3.8723,0.4662,0.2522,1820.56,-1327.15,-1608.89
15610,-3.8723,0.4052,0.2363,-320.07,282.10,1969.24
15620,-3.8723,0.3424,0.2297,-132.57,-1749.27,1547.30
15630,-3.8723,0.2896,0.2260,-163.82,1406.86,797.30
15640,-3.8724,0.2533,0.2173,1070.56,922.42,-1077.70
15650,-3.8724,0.2319,0.2042,429.93,-187.01,0.37
15660,-3.8726,0.2104,0.1903,1695.56,-1858.95,578.49
15670,-3.8727,0.1752,0.1761,-1054.44,359.74,406.62
15680,-3.8729,0.1259,0.1654,-1570.07,-1452.82,-1015.32
15690,-3.8730,0.0785,0.1582,117.43,1172.12,812.81
15700,-3.8733,0.0577,0.1375,-1945.07,250.12,-452.82
15710,-3.8733,0.0741,0.1017,-601.32,1593.81,1156.49
15720,-3.8733,0.0986,0.0757,1492.43,1015.75,-1687.32
15730,-3.8732,0.0925,0.0620,633.06,1687.68,1312.62
15740,-3.8732,0.0487,0.0419,-148.19,-62.38,-671.81
15750,-3.8732,-0.0227,0.0143,-1757.57,1359.44,-1421.81
15760,-3.8733,-0.1090,-0.0106,1101.81,1843.69,-390.62
15770,-3.8733,-0.2003,-0.0322,-1945.07,-1343.99,484.31
15780,-3.8734,-0.2881,-0.0521,-1632.57,-109.80,-1547.00
15790,-3.8734,-0.3650,-0.0680,-866.94,1343.14,1406.13
15800,-3.8734,-0.4196,-0.0713,1289.31,-688.23,1577.94
15810,-3.8734,-0.4458,-0.0590,-1695.07,-1110.23,-1015.81
15820,-3.8733,-0.4452,-0.0442,-1054.44,467.83,1046.75
15830,-3.8733,-0.4236,-0.0375,-976.32,-1641.54,-187.62
15840,-3.8732,-0.3931,-0.0425,1789.31,-782.10,-593.87
15850,-3.8730,-0.3633,-0.0675,1695.56,-1422.67,-78.25
15860,-3.8728,-0.3424,-0.1135,1508.06,-625.73,1843.57
15870,-3.8726,-0.3380,-0.1616,179.93,1483.70,1265.38
15880,-3.8723,-0.3573,-0.1899,742.43,-672.55,1796.51
15890,-3.8721,-0.3964,-0.1959,-1726.32,-297.61,-1406.68
15900,-3.8718,-0.4446,-0.2003,1273.68,-1063.29,-1656.68
15910,-3.8716,-0.4901,-0.2241,-898.19,-1625.92,577.70
15920,-3.8715,-0.5298,-0.2593,1273.68,-672.85,-1641.11
15930,-3.8712,-0.5662,-0.2800,195.56,-1172.91,218.20
15940,-3.8711,-0.5956,-0.2809,-460.69,170.72,-1813.05
15950,-3.8708,-0.6085,-0.2719,-226.32,61.28,671.33
15960,-3.8707,-0.5936,-0.2552,-1882.57,1217.53,-344.30
15970,-3.8705,-0.5431,-0.2322,23.68,-657.41,-1172.42
15980,-3.8702,-0.4635,-0.2058,-1507.57,-1704.22,-1703.61
15990,-3.8700,-0.3798,-0.1797,679.93,1670.96,1655.82
16000,-3.8699,-0.3090,-0.1653,-601.32,1014.83,-187.87
16010,-3.8696,-0.2511,-0.1693,461.18,-1141.24,1905.88
16020,-3.8694,-0.2078,-0.1816,-132.57,-1656.80,-1687.87
16030,-3.8690,-0.1829,-0.1934,1414.31,765.20,374.63
16040,-3.8688,-0.1722,-0.2109,601.81,-734.74,905.82
16050,-3.8687,-0.1682,-0.2347,1961.18,1015.26,1358.95
16060,-3.8687,-0.1677,-0.2557,-1523.19,1968.38,718.26
16070,-3.8689,-0.1696,-0.2742,-1460.69,-719.12,-641.17
16080,-3.8691,-0.1693,-0.2830,-1695.07,921.51,-1047.42
16090,-3.8694,-0.1510,-0.2700,-1663.82,-203.49,-1828.74
16100,-3.8696,-0.1035,-0.2422,679.93,1452.82,-391.17
16110,-3.8698,-0.0356,-0.2122,-1241.94,1015.38,-156.74
16120,-3.8698,0.0404,-0.1886,-554.44,859.25,-1937.93
16130,-3.8698,0.1158,-0.1721,1179.93,-140.56,1437.07
16140,-3.8698,0.1843,-0.1539,-1163.82,1968.93,1874.63
16150,-3.8696,0.2496,-0.1345,-398.19,297.18,30.94
16160,-3.8695,0.3196,-0.1257,-38.82,-1218.32,1640.32
16170,-3.8693,0.3849,-0.1312,914.31,-93.14,-734.68
16180,-3.8689,0.4255,-0.1428,1273.68,-796.14,1171.57
16190,-3.8688,0.4283,-0.1515,-1523.19,1719.54,-1453.43
16200,-3.8688,0.3956,-0.1493,-1163.82,610.17,-1797.18
16210,-3.8689,0.3522,-0.1292,-1351.32,891.36,-1594.06
16220,-3.8690,0.3273,-0.1010,1086.18,-530.58,-1750.31
16230,-3.8691,0.3350,-0.0883,1898.68,-921.26,-359.62
16240,-3.8691,0.3610,-0.0964,-1116.94,703.74,-1531.43
16250,-3.8691,0.3812,-0.1091,-1788.82,-343.08,1031.01
16260,-3.8693,0.3888,-0.1134,804.93,-1968.02,-1359.62
16270,-3.8694,0.3922,-0.1115,1773.68,1485.11,-375.24
16280,-3.8694,0.4060,-0.1127,-1788.82,1735.11,234.13
16290,-3.8695,0.4348,-0.1190,-23.19,1578.86,1046.63
16300,-3.8696,0.4648,-0.1223,-335.69,766.42,-1953.37
16310,-3.8698,0.4783,-0.1189,-491.94,344.60,-1547.12
16320,-3.8699,0.4701,-0.1162,1226.81,782.17,1218.51
16330,-3.8701,0.4537,-0.1206,179.93,1125.92,-1640.87
16340,-3.8704,0.4403,-0.1239,-1913.82,563.35,-734.62
16350,-3.8705,0.4275,-0.1096,367.43,141.48,452.88
16360,-3.8707,0.4160,-0.0778,-1273.19,1969.54,-1953.37
16370,-3.8710,0.4132,-0.0428,1258.06,-1952.33,-250.18
16380,-3.8711,0.4208,-0.0122,898.68,-1483.58,906.13
16390,-3.8713,0.4330,0.0150,1867.43,-1561.71,1890.56
16400,-3.8716,0.4490,0.0344,-570.07,1922.67,-734.38
16410,-3.8717,0.4794,0.0375,1476.81,407.10,1484.44
16420,-3.8718,0.5220,0.0315,1367.43,797.79,281.31
16430,-3.8721,0.5634,0.0325,-1179.44,32.23,-171.81
16440,-3.8721,0.5867,0.0397,117.43,157.35,250.06
16450,-3.8722,0.5850,0.0358,-898.19,1079.22,1093.81
16460,-3.8723,0.5673,0.0271,-1116.94,579.22,-1406.19
16470,-3.8723,0.5415,0.0355,617.43,-530.15,1218.75
16480,-3.8723,0.5115,0.0521,1320.56,547.91,656.31
16490,-3.8723,0.4739,0.0635,1476.81,-1327.15,156.31
16500,-3.8724,0.4231,0.0747,664.31,125.92,-734.25
16510,-3.8724,0.3606,0.0929,-1835.69,1563.29,1453.25
16520,-3.8726,0.2921,0.1196,-1835.69,-108.70,-1687.38
16530,-3.8727,0.2234,0.1482,1398.68,-686.95,1968.93
16540,-3.8728,0.1768,0.1648,601.81,-1030.82,1593.99
16550,-3.8729,0.1819,0.1573,-1366.94,1094.06,1672.18
16560,-3.8730,0.2319,0.1289,-710.69,140.93,-1843.44
16570,-3.8730,0.2820,0.1040,1695.56,500.43,31.49
16580,-3.8732,0.2969,0.1013,101.81,1313.05,-640.44
16590,-3.8732,0.2742,0.1193,-1991.94,969.30,-1640.44
16600,-3.8732,0.2255,0.1411,-898.19,-733.89,93.93
16610,-3.8733,0.1649,0.1484,867.43,-1937.07,1515.87
16620,-3.8734,0.1099,0.1382,1117.43,-999.69,-46.63
16630,-3.8733,0.0720,0.1147,-1929.44,1687.68,187.74
16640,-3.8733,0.0488,0.0826,1226.81,-1312.38,-1546.69
16650,-3.8732,0.0291,0.0499,-1741.94,-1421.81,1578.25
16660,-3.8732,0.0029,0.0283,-273.19,-1609.38,-78.06
16670,-3.8730,-0.0323,0.0302,383.06,-375.00,609.38
16680,-3.8732,-0.0740,0.0538,-132.57,-125.12,-281.25
16690,-3.8732,-0.1180,0.0800,-1460.69,-1093.93,-1281.19
16700,-3.8732,-0.1589,0.0897,898.68,-1750.24,-1390.50
16710,-3.8732,-0.1874,0.0765,-335.69,-500.37,-906.13
16720,-3.8730,-0.2026,0.0459,23.68,1812.13,781.37
16730,-3.8729,-0.2158,0.0146,-1929.44,1890.20,531.31
16740,-3.8728,-0.2352,-0.0035,383.06,1890.20,1484.38
16750,-3.8727,-0.2606,-0.0077,1898.68,-437.99,1937.44
16760,-3.8726,-0.2906,0.0021,-1351.32,-969.30,874.94
16770,-3.8726,-0.3236,0.0260,-1195.07,280.64,-1593.75
16780,-3.8726,-0.3511,0.0493,-1413.82,-656.92,-125.00
16790,-3.8724,-0.3591,0.0461,-929.44,-1672.61,-859.31
16800,-3.8722,-0.3463,0.0063,-1960.69,1921.14,687.56
16810,-3.8719,-0.3259,-0.0513,-320.07,827.39,187.50
16820,-3.8717,-0.3127,-0.1012,-1710.69,1452.45,749.88
16830,-3.8716,-0.3147,-0.1311,-23.19,-938.17,-0.24
16840,-3.8713,-0.3339,-0.1348,-273.19,-766.30,202.82
16850,-3.8713,-0.3705,-0.1121,1273.68,-1235.05,-1781.56
16860,-3.8712,-0.4202,-0.0790,586.18,1671.14,124.76
16870,-3.8712,-0.4633,-0.0625,-1773.19,1905.40,-500.18
16880,-3.8710,-0.4739,-0.0793,711.18,14.71,1031.13
16890,-3.8707,-0.4518,-0.1199,-648.19,1858.40,1015.44
16900,-3.8705,-0.4165,-0.1542,-1820.07,670.96,-1281.49
16910,-3.8701,-0.3827,-0.1704,-1304.44,280.40,437.19
16920,-3.8699,-0.3601,-0.1747,-976.32,-1797.67,890.26
16930,-3.8698,-0.3524,-0.1749,1914.31,1655.52,-297.24
16940,-3.8695,-0.3508,-0.1791,-1101.32,1624.27,1109.01
16950,-3.8694,-0.3401,-0.1897,-898.19,1093.02,1218.38
16960,-3.8693,-0.3171,-0.2117,476.81,-266.30,93.32
16970,-3.8693,-0.2919,-0.2393,-585.69,921.20,1843.32
16980,-3.8693,-0.2633,-0.2532,-1351.32,1390.01,-781.74
16990,-3.8691,-0.2213,-0.2527,-1695.07,-391.17,1640.08
17000,-3.8690,-0.1680,-0.2539,-320.07,-328.61,1390.08
17010,-3.8689,-0.1116,-0.2604,-1491.94,-484.74,1780.70
17020,-3.8688,-0.0546,-0.2728,1726.81,-1312.74,-1828.67
17030,-3.8687,-0.0039,-0.2965,1023.68,1093.63,-1359.92
17040,-3.8685,0.0319,-0.3213,-491.94,-1937.56,-656.86
17050,-3.8684,0.0516,-0.3356,86.18,-1124.94,-469.42
17060,-3.8683,0.0715,-0.3452,-1382.57,1046.94,-1063.17
17070,-3.8682,0.1060,-0.3539,1164.31,-187.38,1155.52
17080,-3.8682,0.1521,-0.3506,1570.56,-1296.69,1671.14
17090,-3.8682,0.2045,-0.3250,-523.19,-874.76,968.02
17100,-3.8683,0.2625,-0.2863,-1820.07,-1593.38,-828.80
17110,-3.8683,0.3253,-0.2595,1601.81,-640.14,327.51
17120,-3.8684,0.3840,-0.2595,1648.68,-1218.14,436.95
17130,-3.8687,0.4276,-0.2739,1164.31,-1218.02,-234.92
17140,-3.8688,0.4520,-0.2816,-1257.57,938.29,-1125.55
17150,-3.8689,0.4692,-0.2764,1867.43,-46.02,-1719.36
17160,-3.8690,0.4995,-0.2599,70.56,625.92,1280.70
17170,-3.8693,0.5469,-0.2423,-54.44,-1264.71,-1734.92
17180,-3.8695,0.5942,-0.2354,-1991.94,985.41,1202.64
17190,-3.8699,0.6244,-0.2369,70.56,1876.16,-1562.99
17200,-3.8702,0.6340,-0.2432,-70.07,1673.03,-1750.49
17210,-3.8706,0.6343,-0.2555,1164.31,876.22,-1156.74
17220,-3.8708,0.6304,-0.2766,1195.56,-701.90,-891.17
17230,-3.8710,0.6138,-0.2980,695.56,594.97,-1109.92
17240,-3.8710,0.5730,-0.2944,-1429.44,1860.53,61.89
17250,-3.8711,0.5154,-0.2502,1351.81,-1686.40,811.89
17260,-3.8713,0.4686,-0.1858,1976.81,-30.27,-188.05
17270,-3.8715,0.4413,-0.1289,-7.57,219.60,1390.26
17280,-3.8717,0.4254,-0.0842,492.43,-499.15,-1156.56
17290,-3.8718,0.4146,-0.0487,-1538.82,1219.54,1171.69
17300,-3.8719,0.4030,-0.0214,1070.56,1766.42,140.50
17310,-3.8722,0.3912,0.0071,-413.82,1266.36,-796.94
17320,-3.8723,0.3844,0.0457,-1913.82,906.98,-1296.88
17330,-3.8724,0.3872,0.0863,1211.18,1844.48,-656.19
17340,-3.8724,0.3983,0.1129,1570.56,-952.39,1156.37
17350,-3.8726,0.4136,0.1208,-1007.57,-1546.14,-93.57
17360,-3.8726,0.4258,0.1256,945.56,-530.46,-812.32
17370,-3.8726,0.4255,0.1434,-1491.94,78.92,-1687.26
17380,-3.8726,0.4109,0.1702,-1523.19,-1639.83,687.74
17390,-3.8727,0.3893,0.1910,601.81,1782.04,-1827.82
17400,-3.8728,0.3678,0.1981,1836.18,453.86,-687.13
17410,-3.8728,0.3462,0.1964,-913.82,1360.05,781.62
17420,-3.8729,0.3226,0.1908,320.56,1141.30,-734.01
17430,-3.8729,0.3015,0.1764,1304.93,422.49,-812.13
17440,-3.8729,0.2878,0.1512,-1398.19,-1421.33,-280.94
17450,-3.8729,0.2759,0.1299,851.81,-640.08,-437.26
17460,-3.8729,0.2614,0.1248,-679.44,625.49,-1515.38
17470,-3.8729,0.2489,0.1268,1461.18,-30.76,1015.81
17480,-3.8730,0.2383,0.1238,-132.57,234.80,-781.01
17490,-3.8730,0.2214,0.1174,-1491.94,-155.82,1172.06
17500,-3.8732,0.1940,0.1151,351.81,-968.32,-484.19
17510,-3.8732,0.1566,0.1144,836.18,-1265.26,-1515.44
17520,-3.8732,0.1112,0.1046,54.93,-1359.07,1687.68
17530,-3.8732,0.0616,0.0862,-1757.57,1390.81,156.43
17540,-3.8733,0.0150,0.0726,-101.32,-968.69,1484.50
17550,-3.8734,-0.0232,0.0715,1929.93,1296.88,-1656.13
17560,-3.8735,-0.0554,0.0785,1039.31,1171.81,-359.25
17570,-3.8735,-0.0842,0.0874,914.31,-1937.62,1953.25
17580,-3.8735,-0.1090,0.0969,1226.81,-797.06,1250.12
17590,-3.8735,-0.1335,0.1097,-1945.07,421.63,1562.68
17600,-3.8735,-0.1594,0.1238,-1085.69,-1937.81,-1749.82
17610,-3.8735,-0.1818,0.1304,-398.19,-140.99,-952.94
17620,-3.8734,-0.1975,0.1204,742.43,702.76,484.62
17630,-3.8734,-0.2140,0.0948,-1273.19,-578.55,-1390.44
17640,-3.8733,-0.2426,0.0724,617.43,155.82,843.93
17650,-3.8733,-0.2866,0.0695,961.18,1280.76,-1343.63
17660,-3.8732,-0.3326,0.0875,-679.44,905.64,31.37
17670,-3.8732,-0.3696,0.1121,1429.93,-781.92,1062.62
17680,-3.8732,-0.3965,0.1199,695.56,-1641.36,-1374.82
17690,-3.8730,-0.4093,0.1039,1258.06,-641.42,1640.81
17700,-3.8729,-0.4094,0.0825,-382.57,1311.65,-1281.07
17710,-3.8727,-0.4111,0.0940,-398.19,-1422.73,-1734.25
17720,-3.8724,-0.4237,0.1686,-616.94,46.02,-1171.69
17730,-3.8722,-0.4369,0.2346,1773.68,1592.90,-1437.19
17740,-3.8721,-0.4274,0.1716,86.18,-1953.98,1203.55
17750,-3.8722,-0.4092,-0.0040,1304.93,1983.52,1859.68
17760,-3.8722,-0.4380,-0.1677,-366.94,-500.85,921.81
17770,-3.8719,-0.5131,-0.2317,-54.44,-1454.04,187.13
17780,-3.8716,-0.5645,-0.2086,-1663.82,-1641.66,968.26
17790,-3.8712,-0.5725,-0.1749,-241.94,1311.34,-1594.18
17800,-3.8708,-0.6012,-0.1877,-1273.19,1623.84,-734.74
17810,-3.8704,-0.6746,-0.2576,-945.07,-16.85,343.32
17820,-3.8701,-0.7625,-0.3521,1664.31,-954.47,-172.42
17830,-3.8699,-0.8477,-0.4171,-1585.69,-1048.40,-422.61
17840,-3.8696,-0.9033,-0.4341,-491.94,-1376.71,1280.40
17850,-3.8695,-0.9020,-0.4344,383.06,451.35,-532.10
17860,-3.8693,-0.8441,-0.4419,554.93,404.48,-344.60
17870,-3.8689,-0.7452,-0.4456,-38.82,-548.58,1436.58
17880,-3.8687,-0.6266,-0.4390,617.43,-1017.09,-1782.17
17890,-3.8684,-0.5076,-0.4323,-195.07,-173.16,108.46
17900,-3.8684,-0.4082,-0.4252,-960.69,686.46,-891.48
17910,-3.8683,-0.3467,-0.4109,-241.94,1592.90,749.15
17920,-3.8683,-0.3124,-0.3923,-366.94,-578.86,-1610.23
17930,-3.8683,-0.2731,-0.3705,23.68,1796.26,-407.04
17940,-3.8683,-0.2141,-0.3447,1054.93,593.20,-16.36
17950,-3.8683,-0.1439,-0.3193,601.81,-109.80,-266.36
17960,-3.8683,-0.0763,-0.3011,1586.18,-859.68,-1125.67
17970,-3.8683,-0.0160,-0.2883,-1757.57,1468.57,1843.14
17980,-3.8683,0.0437,-0.2780,1961.18,-890.69,827.51
17990,-3.8684,0.1108,-0.2755,1601.81,421.94,-531.80
18000,-3.8684,0.1918,-0.2928,-1804.44,734.56,1577.58
18010,-3.8684,0.2990,-0.3409,554.93,-1484.01,702.51
18020,-3.8684,0.4368,-0.4000,-1726.32,359.92,-1469.42
18030,-3.8683,0.5834,-0.4225,-85.69,797.67,1046.08
18040,-3.8683,0.7015,-0.4049,-1320.07,1922.97,1061.65
18050,-3.8684,0.7719,-0.3868,1804.93,173.22,1592.96
18060,-3.8685,0.7933,-0.3940,-1195.07,-1514.16,327.33
18070,-3.8688,0.7545,-0.4167,1554.93,1564.03,-766.42
18080,-3.8689,0.6536,-0.4252,586.18,-1342.29,952.27
18090,-3.8693,0.5269,-0.4080,-335.69,1579.35,-422.73
18100,-3.8696,0.4178,-0.3715,-554.44,-217.77,-1282.10
18110,-3.8701,0.3530,-0.3289,1492.43,453.92,-328.86
18120,-3.8705,0.3396,-0.2931,1195.56,1906.92,1421.20
18130,-3.8708,0.3638,-0.2612,-523.19,-1515.01,-1844.36
18140,-3.8711,0.4021,-0.2263,-1429.44,-1436.83,-1969.30
18150,-3.8712,0.4406,-0.1919,-523.19,-968.02,187.01
18160,-3.8715,0.4746,-0.1667,398.68,-561.65,-187.93
18170,-3.8715,0.5009,-0.1516,758.06,-1342.83,155.88
18180,-3.8716,0.5186,-0.1400,117.43,594.73,374.69
18190,-3.8717,0.5244,-0.1191,-1616.94,-1920.90,343.44
18200,-3.8718,0.5139,-0.0765,-866.94,750.98,124.76
18210,-3.8721,0.4921,-0.0206,1789.31,-1795.90,-625.18
18220,-3.8722,0.4728,0.0277,-1007.57,1360.29,1843.69
18230,-3.8724,0.4645,0.0608,523.68,-452.21,-406.25
18240,-3.8726,0.4669,0.0865,-538.82,-217.90,1718.81
18250,-3.8727,0.4755,0.1132,-226.32,-921.02,1437.62
18260,-3.8728,0.4830,0.1444,867.43,-1514.71,-1656.07
18270,-3.8729,0.4852,0.1790,1836.18,-1514.71,-687.26
18280,-3.8730,0.4825,0.2106,-1882.57,-1092.83,-296.57
18290,-3.8732,0.4740,0.2358,1773.68,-1045.96,-718.38
18300,-3.8733,0.4620,0.2577,679.93,-1811.58,-1108.95
18310,-3.8734,0.4529,0.2742,-851.32,985.23,-280.76
18320,-3.8734,0.4487,0.2817,1976.81,-905.40,1906.74
18330,-3.8734,0.4463,0.2867,1445.56,63.35,859.92
18340,-3.8734,0.4399,0.2964,1133.06,703.98,125.55
18350,-3.8735,0.4238,0.3079,320.56,1938.35,-593.20
18360,-3.8735,0.3982,0.3143,-1741.94,-592.96,-1374.45
18370,-3.8735,0.3673,0.3131,-1023.19,235.11,1719.36
18380,-3.8735,0.3376,0.3059,-976.32,78.80,828.74
18390,-3.8735,0.3121,0.2948,-773.19,-843.14,891.17
18400,-3.8735,0.2853,0.2827,-38.82,1734.92,-1046.33
18410,-3.8734,0.2476,0.2725,523.68,188.05,1859.92
18420,-3.8734,0.1938,0.2628,-304.44,-1124.57,-499.51
18430,-3.8734,0.1295,0.2528,820.56,1640.99,-562.01
18440,-3.8734,0.0623,0.2462,586.18,359.62,-1874.51
18450,-3.8734,-0.0023,0.2527,-23.19,-484.31,375.43
18460,-3.8735,-0.0542,0.2749,-288.82,359.31,-1108.89
18470,-3.8735,-0.0878,0.2938,1070.56,-797.00,-1968.26
18480,-3.8735,-0.1038,0.2882,773.68,1624.82,-1905.70
18490,-3.8735,-0.1110,0.2548,-1273.19,906.01,-765.08
18500,-3.8734,-0.1226,0.1980,1804.93,624.76,1672.36
18510,-3.8733,-0.1456,0.1261,320.56,1359.13,1453.49
18520,-3.8732,-0.1847,0.0681,1367.43,155.94,1953.37
18530,-3.8730,-0.2400,0.0461,367.43,734.01,1937.62
18540,-3.8729,-0.3049,0.0487,1289.31,1921.39,515.69
18550,-3.8729,-0.3712,0.0574,976.81,-1750.61,1546.94
18560,-3.8729,-0.4349,0.0612,492.43,-641.36,1953.19
18570,-3.8729,-0.4880,0.0535,336.18,-157.10,-312.44
18580,-3.8727,-0.5273,0.0295,1539.31,-1141.60,265.69
18590,-3.8726,-0.5565,-0.0134,508.06,-204.16,-921.88
18600,-3.8723,-0.5681,-0.0702,773.68,-1704.22,-1718.81
18610,-3.8721,-0.5574,-0.1289,-710.69,-969.91,1031.07
18620,-3.8719,-0.5337,-0.1635,664.31,-485.47,-1203.43
18630,-3.8718,-0.5099,-0.1528,-304.44,-907.35,-1406.62
18640,-3.8717,-0.4885,-0.1204,-1257.57,452.09,655.94
18650,-3.8717,-0.4705,-0.0989,1476.81,608.40,-1859.62
18660,-3.8717,-0.4656,-0.0892,-210.69,-641.60,-93.99
18670,-3.8716,-0.4744,-0.0933,414.31,592.83,-781.43
18680,-3.8713,-0.4846,-0.1178,-710.69,77.15,609.19
18690,-3.8712,-0.4860,-0.1552,1976.81,936.52,-875.24
18700,-3.8710,-0.4775,-0.1945,1804.93,155.27,1234.07
18710,-3.8708,-0.4612,-0.2214,-1116.94,-875.98,1546.45
18720,-3.8708,-0.4474,-0.2126,976.81,-329.04,-453.61
18730,-3.8707,-0.4493,-0.1620,-1257.57,795.96,46.45
18740,-3.8707,-0.4537,-0.1130,-1507.57,-719.67,1234.01
18750,-3.8706,-0.4341,-0.1119,1929.93,1545.96,62.26
18760,-3.8705,-0.3805,-0.1478,445.56,1686.65,968.51
18770,-3.8704,-0.3032,-0.1898,-695.07,1092.96,-47.18
18780,-3.8701,-0.2229,-0.2249,1195.56,-281.86,-1609.80
18790,-3.8700,-0.1573,-0.2491,-523.19,-766.11,1483.89
18800,-3.8700,-0.1150,-0.2518,-132.57,124.63,718.26
18810,-3.8701,-0.0923,-0.2264,1289.31,-218.99,1936.95
18820,-3.8702,-0.0822,-0.1932,195.56,-968.93,-31.74
18830,-3.8701,-0.0815,-0.1681,1492.43,-718.93,593.32
18840,-3.8701,-0.0857,-0.1621,1570.56,-1500.18,-640.99
18850,-3.8699,-0.0737,-0.1954,1039.31,-734.56,155.88
18860,-3.8698,-0.0256,-0.2657,-1429.44,-1000.18,-359.80
18870,-3.8694,0.0520,-0.3495,726.81,1999.94,1515.08
18880,-3.8690,0.1328,-0.4229,-1335.69,-734.31,1280.52
18890,-3.8687,0.1937,-0.4761,1008.06,1875.24,1702.27
18900,-3.8683,0.2183,-0.5104,804.93,-937.13,967.77
18910,-3.8680,0.2041,-0.5364,-54.44,-1327.76,1420.84
18920,-3.8679,0.1746,-0.5686,-1866.94,-655.88,-485.47
18930,-3.8677,0.1533,-0.6047,-1648.19,-780.94,1373.84
18940,-3.8676,0.1486,-0.6224,-366.94,-1406.01,-1110.60
18950,-3.8674,0.1582,-0.6071,-976.32,328.37,1576.90
18960,-3.8676,0.1816,-0.5719,258.06,-1702.82,-548.10
18970,-3.8677,0.2114,-0.5380,-741.94,-1202.82,1170.72
18980,-3.8679,0.2378,-0.5089,-929.44,-859.01,1108.28
18990,-3.8682,0.2676,-0.4812,-1554.44,-1140.20,1155.21
19000,-3.8684,0.3091,-0.4578,-1741.94,-1593.26,1795.90
19010,-3.8687,0.3585,-0.4380,-429.44,1406.80,-1750.92
19020,-3.8689,0.4043,-0.4149,1898.68,-61.83,1889.71
19030,-3.8691,0.4413,-0.3849,-241.94,-1108.64,1296.02
19040,-3.8694,0.4731,-0.3542,492.43,-1264.77,1077.33
19050,-3.8696,0.5016,-0.3345,570.56,-1342.83,827.39
19060,-3.8699,0.5250,-0.3273,211.18,1188.48,577.45
19070,-3.8701,0.5372,-0.3192,-788.82,-1889.65,1014.95
19080,-3.8704,0.5305,-0.2979,773.68,-858.34,1655.58
19090,-3.8706,0.5071,-0.2675,-85.69,1875.98,1468.14
19100,-3.8708,0.4769,-0.2341,914.31,1766.60,265.08
19110,-3.8712,0.4517,-0.1954,1054.93,-1967.83,-1328.61
19120,-3.8715,0.4387,-0.1516,1820.56,-1014.77,1640.20
19130,-3.8717,0.4398,-0.1102,164.31,594.60,1812.19
19140,-3.8719,0.4543,-0.0729,304.93,1891.48,-1172.12
19150,-3.8721,0.4769,-0.0370,-1835.69,-1327.27,218.57
19160,-3.8723,0.4999,-0.0013,1054.93,-733.46,-1922.00
19170,-3.8724,0.5220,0.0350,-7.57,-170.96,937.44
19180,-3.8726,0.5421,0.0695,-1179.44,485.35,1312.56
19190,-3.8727,0.5573,0.0980,1398.68,891.66,-765.50
19200,-3.8727,0.5613,0.1211,-663.82,547.91,1937.68
19210,-3.8727,0.5500,0.1400,-148.19,-498.96,625.18
19220,-3.8728,0.5289,0.1539,-1585.69,1922.91,-1296.63
19230,-3.8728,0.5089,0.1643,-288.82,-295.90,281.49
19240,-3.8729,0.4982,0.1705,1148.68,1032.23,1531.56
19250,-3.8730,0.4949,0.1736,-226.32,1829.04,-1327.82
19260,-3.8730,0.4907,0.1855,-648.19,-1780.33,94.06
19270,-3.8732,0.4781,0.2100,-1179.44,-249.08,1640.93
19280,-3.8733,0.4552,0.2288,1211.18,-1124.08,-968.38
19290,-3.8734,0.4210,0.2325,-1726.32,1282.10,-93.32
19300,-3.8734,0.3812,0.2312,1898.68,1766.42,812.93
19310,-3.8735,0.3459,0.2274,804.93,1594.48,-937.07
19320,-3.8735,0.3214,0.2150,289.31,1110.05,-1468.32
19330,-3.8735,0.3038,0.1960,1148.68,-483.76,-1984.01
19340,-3.8735,0.2811,0.1791,-1101.32,1094.30,1390.99
19350,-3.8735,0.2457,0.1718,-7.57,-1077.64,1187.81
19360,-3.8735,0.2019,0.1724,-538.82,1984.80,844.06
19370,-3.8737,0.1538,0.1677,1851.81,-1937.13,-109.07
19380,-3.8737,0.0980,0.1497,-304.44,1468.99,-1312.19
19390,-3.8737,0.0342,0.1283,554.93,-843.57,1484.62
19400,-3.8737,-0.0288,0.1095,383.06,421.94,640.87
19410,-3.8737,-0.0862,0.0880,320.56,-1968.81,562.68
19420,-3.8737,-0.1459,0.0758,976.81,-718.93,1109.50
19430,-3.8737,-0.2128,0.0896,1336.18,1718.44,1734.50
19440,-3.8737,-0.2759,0.1150,773.68,-516.05,1890.75
19450,-3.8737,-0.3231,0.1187,695.56,-1266.17,-1937.32
19460,-3.8737,-0.3502,0.0823,-1351.32,-797.55,-359.19
19470,-3.8735,-0.3612,0.0208,-820.07,-1453.86,-843.63
19480,-3.8734,-0.3649,-0.0291,1773.68,-1328.86,-296.88
19490,-3.8732,-0.3785,-0.0427,1304.93,296.14,62.44
19500,-3.8732,-0.4125,-0.0278,-445.07,-1453.92,-390.75
19510,-3.8730,-0.4575,-0.0120,-788.82,452.27,-140.69
19520,-3.8728,-0.5050,-0.0229,1445.56,-1516.54,-484.44
19530,-3.8724,-0.5459,-0.0741,-632.57,1077.09,-687.56
19540,-3.8719,-0.5734,-0.1429,-1866.94,-1469.85,249.82
19550,-3.8717,-0.5873,-0.1993,-1382.57,1717.59,-1000.31
19560,-3.8715,-0.5883,-0.2288,836.18,-1501.16,-953.55
19570,-3.8712,-0.5775,-0.2256,711.18,-1266.78,296.39
19580,-3.8712,-0.5568,-0.2100,-1913.82,-860.53,-984.86
19590,-3.8711,-0.5321,-0.2067,742.43,1139.53,1077.70
19600,-3.8710,-0.5129,-0.2189,-101.32,1561.40,780.82
19610,-3.8708,-0.5105,-0.2402,-1648.19,-1.04,-1359.86
19620,-3.8706,-0.5260,-0.2659,-1335.69,1264.59,-1844.24
19630,-3.8704,-0.5432,-0.2871,679.93,1983.34,-781.80
19640,-3.8700,-0.5433,-0.2881,-1523.19,-735.47,155.64
19650,-3.8699,-0.5129,-0.2600,-1538.82,-860.47,-703.74
19660,-3.8696,-0.4468,-0.2108,-1648.19,-1266.66,936.95
19670,-3.8695,-0.3568,-0.1643,-1179.44,1030.33,1374.57
19680,-3.8695,-0.2681,-0.1377,-1663.82,-1016.36,-453.49
19690,-3.8695,-0.1934,-0.1307,1695.56,-1609.92,-1750.31
19700,-3.8696,-0.1323,-0.1437,-741.94,-719.18,-1203.43
19710,-3.8696,-0.0847,-0.1771,-929.44,1624.69,1359.07
19720,-3.8695,-0.0598,-0.2300,1164.31,1343.57,1437.13
19730,-3.8693,-0.0703,-0.3018,351.81,-1422.00,-1703.61
19740,-3.8689,-0.1160,-0.3744,-991.94,1390.44,296.26
19750,-3.8687,-0.1738,-0.4353,1164.31,93.51,-1422.61
19760,-3.8683,-0.2107,-0.4978,1758.06,296.51,-328.98
19770,-3.8678,-0.2152,-0.5605,1039.31,296.45,1483.40
19780,-3.8676,-0.1986,-0.5968,461.18,265.20,-1547.97
19790,-3.8674,-0.1653,-0.5931,-1413.82,-375.43,873.78
19800,-3.8676,-0.1217,-0.5714,-1148.19,93.38,-641.78
19810,-3.8676,-0.0782,-0.5526,429.93,-1125.24,608.22
19820,-3.8677,-0.0298,-0.5319,1992.43,1281.07,1014.53
19830,-3.8678,0.0372,-0.4969,195.56,-62.56,295.78
19840,-3.8680,0.1226,-0.4512,773.68,390.69,-782.23
19850,-3.8682,0.2168,-0.4093,-304.44,-1749.82,-1407.17
19860,-3.8683,0.3047,-0.3842,-241.94,-390.26,-1813.35
19870,-3.8684,0.3750,-0.3729,-991.94,-1171.33,1030.46
19880,-3.8687,0.4231,-0.3622,8.06,266.36,-1375.73
19890,-3.8689,0.4470,-0.3470,-1835.69,1641.42,-1125.73
19900,-3.8691,0.4529,-0.3304,1226.81,-421.02,-1766.36
19910,-3.8694,0.4448,-0.3147,1976.81,1703.98,1796.20
19920,-3.8696,0.4310,-0.3007,945.56,-280.40,-1703.80
19930,-3.8699,0.4164,-0.2876,-820.07,1516.42,-625.61
19940,-3.8700,0.4004,-0.2745,1304.93,-811.71,124.39
19950,-3.8704,0.3848,-0.2588,-741.94,860.11,-281.80
19960,-3.8706,0.3716,-0.2369,1258.06,-1124.27,-1656.80
19970,-3.8708,0.3663,-0.2106,-429.44,1672.55,983.89
19980,-3.8711,0.3729,-0.1871,-1101.32,1047.55,405.82
19990,-3.8713,0.3864,-0.1669,-257.57,47.55,968.38
20000,-3.8716,0.4012,-0.1436,1461.18,-1358.64,-984.74
20010,-3.8717,0.4189,-0.1228,-632.57,1625.73,-1484.68
20020,-3.8718,0.4441,-0.1147,1633.06,282.04,-1281.49
20030,-3.8719,0.4679,-0.1086,851.81,1313.35,-640.87
20040,-3.8719,0.4736,-0.0857,-101.32,-1905.40,1015.38
20050,-3.8721,0.4586,-0.0477,633.06,1032.17,-328.31
20060,-3.8721,0.4290,-0.0100,-1288.82,1891.48,-1797.00
20070,-3.8722,0.3920,0.0184,-1085.69,-1280.46,-234.44
20080,-3.8722,0.3582,0.0405,-1820.07,-1639.89,625.00
20090,-3.8723,0.3370,0.0624,1851.81,1188.17,1875.06
20100,-3.8724,0.3344,0.0811,-851.32,-15.01,-140.56
20110,-3.8724,0.3464,0.0889,-1195.07,-1624.39,1703.25
20120,-3.8726,0.3607,0.0897,351.81,-624.33,-937.38
20130,-3.8726,0.3661,0.0909,-1820.07,-514.95,922.00
20140,-3.8727,0.3571,0.0936,-1132.57,-358.70,-390.50
20150,-3.8727,0.3280,0.0991,1711.18,-14.95,1984.50
20160,-3.8728,0.2771,0.1105,1992.43,688.11,-687.32
20170,-3.8729,0.2163,0.1285,-523.19,-1858.89,-281.07
20180,-3.8730,0.1661,0.1475,-304.44,453.49,-468.51
20190,-3.8732,0.1407,0.1639,1273.68,-1124.69,-968.51
20200,-3.8733,0.1350,0.1790,-1976.32,984.62,-1187.19
20210,-3.8734,0.1321,0.1907,1289.31,-1093.51,-984.07
20220,-3.8735,0.1204,0.2029,914.31,406.49,-718.38
20230,-3.8737,0.0988,0.2228,-585.69,1968.93,-46.51
20240,-3.8737,0.0697,0.2455,648.68,515.81,1578.55
20250,-3.8738,0.0343,0.2579,929.93,-578.00,-77.70
20260,-3.8738,-0.0050,0.2570,398.68,1015.69,-1468.26
20270,-3.8738,-0.0464,0.2485,-632.57,906.19,1281.74
20280,-3.8738,-0.0895,0.2406,-1929.44,-172.00,422.30
20290,-3.8739,-0.1321,0.2386,554.93,-1187.68,-155.82
20300,-3.8739,-0.1671,0.2439,-898.19,-1437.81,-562.07
20310,-3.8739,-0.1829,0.2578,-1382.57,-765.99,-421.45
20320,-3.8738,-0.1758,0.2771,601.81,1015.26,703.61
20330,-3.8738,-0.1586,0.2867,1508.06,-515.99,-530.76
20340,-3.8737,-0.1455,0.2773,-288.82,718.38,-452.58
20350,-3.8735,-0.1410,0.2515,1383.06,-484.68,-46.39
20360,-3.8733,-0.1460,0.2081,1961.18,202.82,1141.11
20370,-3.8730,-0.1605,0.1483,1320.56,-1344.06,281.62
20380,-3.8728,-0.1837,0.0826,-538.82,-1000.37,1156.49
20390,-3.8726,-0.2175,0.0348,492.43,-1406.62,1843.87
20400,-3.8723,-0.2654,0.0198,164.31,468.32,703.19
20410,-3.8722,-0.3228,0.0256,-1960.69,-1453.67,1687.50
20420,-3.8721,-0.3737,0.0332,-1304.44,-703.80,703.12
20430,-3.8721,-0.4025,0.0265,179.93,264.89,-1390.56
20440,-3.8719,-0.4060,-0.0101,492.43,-594.54,-1156.25
20450,-3.8717,-0.3970,-0.0712,39.31,-1282.04,-468.81
20460,-3.8713,-0.3997,-0.1251,1195.56,-1094.54,-859.56
20470,-3.8710,-0.4265,-0.1565,851.81,-0.79,1734.07
20480,-3.8708,-0.4695,-0.1796,1414.31,-16.48,-453.49
20490,-3.8707,-0.5204,-0.1932,-85.69,1030.27,218.38
20500,-3.8708,-0.5760,-0.1783,1398.68,-719.79,-1609.80
20510,-3.8708,-0.6304,-0.1393,-1726.32,1186.34,1624.63
20520,-3.8707,-0.6653,-0.1116,-679.44,-1813.78,218.44
20530,-3.8706,-0.6632,-0.1306,-1148.19,1733.03,-1875.24
20540,-3.8704,-0.6233,-0.1893,-882.57,-704.47,-1969.06
20550,-3.8701,-0.5629,-0.2512,226.81,-219.97,-1531.68
20560,-3.8699,-0.5031,-0.2950,-38.82,-141.78,-1906.80
20570,-3.8698,-0.4519,-0.3157,-382.57,-1751.04,-172.49
20580,-3.8696,-0.3993,-0.3142,-1835.69,-391.54,-94.42
20590,-3.8695,-0.3336,-0.3007,898.68,-203.92,-63.17
20600,-3.8693,-0.2654,-0.2838,1304.93,1530.58,765.01
20610,-3.8691,-0.2078,-0.2731,-1960.69,-313.05,1577.51
20620,-3.8690,-0.1622,-0.2770,1414.31,1062.07,1015.08
20630,-3.8690,-0.1279,-0.2906,-757.57,562.13,-1406.80
20640,-3.8690,-0.1035,-0.3032,-366.94,-1187.81,-656.86
20650,-3.8689,-0.0845,-0.3115,-1241.94,1202.88,374.39
20660,-3.8689,-0.0638,-0.3154,1195.56,140.44,1546.26
20670,-3.8689,-0.0325,-0.3105,-163.82,-359.56,1874.33
20680,-3.8689,0.0157,-0.3032,-148.19,265.50,1202.51
20690,-3.8689,0.0851,-0.2994,-1976.32,1187.50,436.89
20700,-3.8689,0.1788,-0.2998,-1101.32,1672.00,968.14
20710,-3.8688,0.2981,-0.3097,-1101.32,1625.31,421.26
20720,-3.8687,0.4338,-0.3319,-1835.69,359.92,-125.61
20730,-3.8683,0.5552,-0.3699,-460.69,1516.42,1952.45
20740,-3.8680,0.6267,-0.4128,-929.44,657.29,-563.23
20750,-3.8678,0.6328,-0.4351,226.81,-842.53,1311.65
20760,-3.8678,0.5885,-0.4307,1008.06,313.72,1811.65
20770,-3.8679,0.5326,-0.4113,-663.82,876.10,1092.90
20780,-3.8682,0.5037,-0.3867,179.93,-639.59,827.27
20790,-3.8685,0.5151,-0.3604,476.81,-1499.02,-672.67
20800,-3.8688,0.5531,-0.3347,1945.56,1875.98,1608.64
20810,-3.8691,0.5955,-0.3136,-1195.07,1157.29,-141.30
20820,-3.8694,0.6300,-0.2959,226.81,-139.47,-1797.55
20830,-3.8696,0.6521,-0.2765,648.68,-1873.78,624.39
20840,-3.8700,0.6597,-0.2518,-523.19,610.60,-1109.92
20850,-3.8702,0.6505,-0.2220,445.56,-233.09,1155.70
20860,-3.8705,0.6237,-0.1925,-726.32,-420.65,93.26
20870,-3.8707,0.5858,-0.1694,-163.82,-639.47,30.82
20880,-3.8711,0.5524,-0.1552,-1007.57,-1686.40,-0.37
20890,-3.8713,0.5289,-0.1440,-1288.82,141.66,-672.18
20900,-3.8716,0.5125,-0.1270,-288.82,1563.48,-1140.93
20910,-3.8718,0.5054,-0.0994,1601.81,-249.02,-812.81
20920,-3.8719,0.5077,-0.0590,695.56,-717.77,77.88
20930,-3.8722,0.5127,-0.0083,992.43,454.10,1453.00
20940,-3.8724,0.5199,0.0413,1633.06,-1061.52,-328.19
20950,-3.8726,0.5299,0.0789,-1445.07,1282.23,-1390.56
20960,-3.8727,0.5369,0.1023,-163.82,-1905.27,1875.12
20970,-3.8728,0.5332,0.1184,726.81,1094.79,1984.56
20980,-3.8729,0.5140,0.1388,258.06,-842.71,-593.57
20990,-3.8729,0.4847,0.1631,1804.93,1766.60,1437.74
21000,-3.8730,0.4534,0.1823,-1945.07,875.92,-702.82
21010,-3.8730,0.4210,0.1929,-1960.69,-671.02,625.31
21020,-3.8732,0.3883,0.1979,1898.68,688.29,1609.74
21030,-3.8733,0.3599,0.2035,1711.18,1328.86,-1499.63
21040,-3.8734,0.3363,0.2124,-1929.44,-1952.45,-609.01
21050,-3.8734,0.3103,0.2185,-945.07,-811.89,656.62
21060,-3.8735,0.2783,0.2119,-273.19,-30.70,-1359.01
21070,-3.8735,0.2437,0.1888,-366.94,-874.51,1594.12
21080,-3.8735,0.2053,0.1573,-804.44,172.30,1875.37
21090,-3.8735,0.1613,0.1344,-1710.69,140.99,-702.82
21100,-3.8734,0.1150,0.1293,648.68,1203.43,828.37
21110,-3.8734,0.0728,0.1360,-1273.19,547.06,1390.87
21120,-3.8734,0.0385,0.1461,1320.56,1406.37,765.87
21130,-3.8735,0.0138,0.1523,929.93,-1296.81,-421.63
21140,-3.8735,0.0000,0.1426,1773.68,-500.00,-1406.01
21150,-3.8735,-0.0094,0.1176,8.06,-1750.00,-1984.13
21160,-3.8735,-0.0304,0.0992,-1195.07,-937.56,-1968.57
21170,-3.8735,-0.0679,0.0942,117.43,718.69,-1312.32
21180,-3.8735,-0.1118,0.0875,-679.44,77.94,-859.19
21190,-3.8735,-0.1548,0.0730,1695.56,-781.49,-1265.50
21200,-3.8735,-0.1924,0.0610,195.56,1359.07,-1921.75
21210,-3.8735,-0.2184,0.0535,-616.94,-172.30,-1312.44
21220,-3.8734,-0.2375,0.0441,54.93,-1141.05,1593.81
21230,-3.8733,-0.2638,0.0396,1601.81,1655.76,-1999.94
21240,-3.8732,-0.3049,0.0446,-1757.57,1077.58,-1968.69
21250,-3.8730,-0.3568,0.0441,976.81,1718.14,515.69
21260,-3.8730,-0.4082,0.0292,-1663.82,1655.52,1953.19
21270,-3.8730,-0.4465,0.0109,-241.94,-250.85,-312.50
21280,-3.8729,-0.4655,-0.0060,-1148.19,1405.33,-1046.88
21290,-3.8727,-0.4686,-0.0293,429.93,-750.92,249.94
21300,-3.8726,-0.4681,-0.0548,23.68,264.71,-1437.56
21310,-3.8724,-0.4819,-0.0696,86.18,999.08,-218.87
21320,-3.8722,-0.5132,-0.0737,-1679.44,-891.60,202.94
21330,-3.8721,-0.5461,-0.0819,-1679.44,-1422.91,-1281.43
21340,-3.8718,-0.5641,-0.0980,-1898.19,1530.15,-937.68
21350,-3.8716,-0.5583,-0.1140,-195.07,-532.41,1640.38
21360,-3.8715,-0.5233,-0.1382,539.31,1420.78,827.88
21370,-3.8715,-0.4608,-0.1793,1023.68,-1672.91,-1828.43
21380,-3.8713,-0.3893,-0.2281,1023.68,1061.58,780.88
21390,-3.8712,-0.3365,-0.2615,-1820.07,-1188.29,-1094.24
21400,-3.8710,-0.3237,-0.2578,929.93,-1453.80,-1219.30
21410,-3.8707,-0.3439,-0.2235,-1429.44,-985.05,1280.70
21420,-3.8706,-0.3695,-0.1898,-7.57,-594.48,-687.99
21430,-3.8702,-0.3884,-0.1747,711.18,-281.98,187.07
21440,-3.8699,-0.4048,-0.1630,-1710.69,1655.46,827.76
21450,-3.8695,-0.4108,-0.1552,195.56,-844.54,-844.12
21460,-3.8690,-0.3833,-0.1718,-570.07,155.40,1952.82
21470,-3.8685,-0.3114,-0.2059,-1054.44,-1969.54,-844.12
21480,-3.8679,-0.2106,-0.2499,148.68,1655.64,-1516.05
21490,-3.8674,-0.1088,-0.3016,1054.93,30.82,-766.11
21500,-3.8671,-0.0310,-0.3433,-1913.82,1406.01,-1625.61
21510,-3.8669,0.0171,-0.3630,39.31,78.06,-31.92
21520,-3.8668,0.0437,-0.3679,-1804.44,1531.25,546.14
21530,-3.8669,0.0598,-0.3646,1601.81,906.31,1655.52
21540,-3.8671,0.0664,-0.3503,-335.69,1328.19,718.02
21550,-3.8673,0.0602,-0.3258,508.06,-843.63,1405.52
21560,-3.8677,0.0508,-0.3015,-288.82,-1703.06,-453.80
21570,-3.8679,0.0586,-0.2852,-1491.94,1406.31,702.51
21580,-3.8683,0.1066,-0.2717,-491.94,-499.94,-1125.61
21590,-3.8685,0.1962,-0.2561,1648.68,1218.93,-156.80
21600,-3.8687,0.3053,-0.2390,1117.43,-780.88,-266.17
21610,-3.8687,0.4088,-0.2244,-913.82,1406.80,765.14
21620,-3.8688,0.4922,-0.2197,336.18,-717.96,1562.01
21630,-3.8689,0.5480,-0.2286,-991.94,-124.08,-1781.74
21640,-3.8690,0.5696,-0.2385,-1851.32,-1264.59,-1547.36
21650,-3.8691,0.5630,-0.2371,914.31,1469.85,1218.26
21660,-3.8694,0.5509,-0.2230,70.56,1657.35,-1719.24
21670,-3.8696,0.5508,-0.1962,-1476.32,-545.84,-1547.36
21680,-3.8699,0.5571,-0.1604,-1491.94,-1108.34,-1500.43
21690,-3.8701,0.5557,-0.1263,-679.44,-530.21,-1422.24
21700,-3.8704,0.5466,-0.1033,-866.94,-170.84,-1687.81
21710,-3.8706,0.5386,-0.0922,1976.81,-1217.71,1999.76
21720,-3.8708,0.5305,-0.0848,945.56,204.16,-1047.06
21730,-3.8710,0.5167,-0.0734,-85.69,1141.60,1984.19
21740,-3.8711,0.4972,-0.0587,-1851.32,-1389.65,-1875.18
21750,-3.8712,0.4779,-0.0452,-351.32,485.29,-1953.25
21760,-3.8713,0.4639,-0.0311,1179.93,-1780.33,1609.25
21770,-3.8715,0.4578,-0.0117,-616.94,16.48,1218.69
21780,-3.8716,0.4622,0.0092,-1398.19,-1499.15,765.56
21790,-3.8717,0.4786,0.0210,-835.69,1172.73,171.88
21800,-3.8718,0.4984,0.0223,1273.68,-1311.58,281.25
21810,-3.8719,0.5084,0.0243,-195.07,-1139.71,1500.00
21820,-3.8721,0.5052,0.0350,1086.18,-889.65,-890.62
21830,-3.8721,0.4957,0.0510,679.93,485.35,187.56
21840,-3.8722,0.4850,0.0626,-538.82,-1467.83,328.19
21850,-3.8723,0.4706,0.0695,-1913.82,16.54,312.62
21860,-3.8724,0.4521,0.0812,242.43,891.54,1125.12
21870,-3.8726,0.4340,0.1007,1883.06,-1608.52,-1734.25
21880,-3.8727,0.4219,0.1223,-445.07,891.42,-1234.19
21890,-3.8728,0.4186,0.1344,-1991.94,-342.96,-1109.19
21900,-3.8729,0.4176,0.1323,1586.18,1203.92,-265.38
21910,-3.8729,0.4122,0.1261,1461.18,938.29,1734.62
21920,-3.8729,0.4027,0.1222,773.68,141.42,234.62
21930,-3.8730,0.3917,0.1110,-445.07,-358.64,1859.56
21940,-3.8732,0.3744,0.0957,-1851.32,-1796.14,-1327.94
21950,-3.8733,0.3402,0.1005,-70.07,250.67,-62.32
21960,-3.8733,0.2911,0.1243,-445.07,859.99,-1984.19
21970,-3.8733,0.2411,0.1361,1273.68,-93.20,578.31
21980,-3.8734,0.1924,0.1208,-1132.57,1422.30,-577.88
21990,-3.8734,0.1371,0.0940,633.06,-530.88,-1890.44
22000,-3.8734,0.0752,0.0760,1554.93,31.49,406.43
22010,-3.8735,0.0179,0.0730,1633.06,1734.50,-1312.38
22020,-3.8735,-0.0248,0.0737,-1695.07,1343.75,1265.75
22030,-3.8735,-0.0551,0.0691,836.18,1453.06,125.12
22040,-3.8737,-0.0826,0.0608,961.18,859.25,-781.13
22050,-3.8737,-0.1163,0.0557,1429.93,-203.31,-1734.31
22060,-3.8737,-0.1572,0.0618,1117.43,-859.62,1171.94
22070,-3.8737,-0.1984,0.0757,-116.94,-78.49,406.31
22080,-3.8737,-0.2318,0.0817,-1382.57,1702.70,922.00
22090,-3.8737,-0.2535,0.0709,-1663.82,-1531.74,-1171.75
22100,-3.8735,-0.2634,0.0452,-445.07,1093.20,1984.50
22110,-3.8734,-0.2650,0.0172,-1710.69,1796.33,-1078.06
22120,-3.8732,-0.2664,0.0009,-1913.82,-1781.80,812.50
22130,-3.8730,-0.2678,-0.0142,1914.31,124.45,1953.12
22140,-3.8729,-0.2628,-0.0427,1726.81,-1797.42,-1109.44
22150,-3.8727,-0.2607,-0.0687,-1632.57,-1453.67,1093.63
22160,-3.8724,-0.2758,-0.0667,-1366.94,-781.80,46.69
22170,-3.8723,-0.3055,-0.0433,711.18,-516.17,1484.19
22180,-3.8722,-0.3444,-0.0220,898.68,-1531.86,640.50
22190,-3.8722,-0.3914,-0.0127,-70.07,1202.39,-1562.56
22200,-3.8722,-0.4375,-0.0215,1914.31,-1610.17,-281.31
22210,-3.8721,-0.4653,-0.0592,8.06,1264.77,-1671.94
22220,-3.8719,-0.4639,-0.1250,445.56,436.58,-484.50
22230,-3.8717,-0.4371,-0.1926,633.06,14.71,-1093.99
22240,-3.8713,-0.4027,-0.2351,54.93,-641.48,108.95
22250,-3.8711,-0.3811,-0.2452,461.18,1921.08,1624.51
22260,-3.8708,-0.3824,-0.2310,-773.19,624.21,1202.64
22270,-3.8707,-0.4038,-0.2059,-945.07,-1547.67,-1562.99
22280,-3.8706,-0.4347,-0.1819,320.56,1655.46,-1250.43
22290,-3.8705,-0.4592,-0.1677,367.43,733.52,-344.12
22300,-3.8702,-0.4658,-0.1702,1226.81,-1454.04,1093.38
22310,-3.8701,-0.4521,-0.1810,383.06,-1766.54,-937.87
22320,-3.8699,-0.4110,-0.2035,-1866.94,842.83,-844.12
22330,-3.8695,-0.3408,-0.2408,-601.32,1967.90,1671.45
22340,-3.8691,-0.2657,-0.2567,383.06,1186.83,655.76
22350,-3.8689,-0.2135,-0.2347,1992.43,-844.30,-1813.05
22360,-3.8687,-0.1924,-0.2148,679.93,1968.32,1015.14
22370,-3.8685,-0.2002,-0.2291,-616.94,515.20,905.82
22380,-3.8685,-0.2277,-0.2642,-1616.94,-1312.93,-875.49
22390,-3.8684,-0.2562,-0.2869,-1132.57,-1797.36,1093.20
22400,-3.8684,-0.2656,-0.2838,-788.82,-703.67,-1063.11
22410,-3.8683,-0.2416,-0.2751,-1991.94,-313.05,655.64
22420,-3.8683,-0.1863,-0.2828,1086.18,796.39,-1266.17
22430,-3.8682,-0.1149,-0.3055,164.31,-187.87,1749.39
22440,-3.8680,-0.0448,-0.3341,1304.93,906.01,936.89
22450,-3.8680,0.0114,-0.3597,-1726.32,1249.88,-1219.42
22460,-3.8680,0.0519,-0.3678,1461.18,1953.12,-813.23
22470,-3.8680,0.0891,-0.3516,-1351.32,921.94,-1016.36
22480,-3.8680,0.1353,-0.3295,-585.69,-999.88,-1235.11
22490,-3.8680,0.1945,-0.3167,1320.56,1828.37,-1860.05
22500,-3.8680,0.2640,-0.3140,898.68,-530.88,608.70
22510,-3.8682,0.3361,-0.3181,1804.93,-187.01,1968.08
22520,-3.8683,0.4028,-0.3196,-976.32,-718.14,1952.45
22530,-3.8684,0.4565,-0.3093,-429.44,-905.52,624.33
22540,-3.8687,0.4906,-0.2833,-1554.44,407.10,-1938.11
22550,-3.8689,0.5073,-0.2510,-1195.07,-264.71,-1563.11
22560,-3.8691,0.5156,-0.2295,945.56,-124.02,-1656.80
22570,-3.8694,0.5200,-0.2184,-1991.94,-1374.02,1983.89
22580,-3.8696,0.5170,-0.2039,-1429.44,47.85,1218.32
22590,-3.8699,0.5084,-0.1813,-1820.07,1907.23,437.07
22600,-3.8702,0.5045,-0.1560,1086.18,797.85,-15.99
22610,-3.8705,0.5089,-0.1252,586.18,32.23,-328.43
22620,-3.8707,0.5187,-0.0857,1148.68,-30.27,-47.18
22630,-3.8708,0.5289,-0.0504,-1601.32,1032.23,1593.57
22640,-3.8710,0.5297,-0.0304,-288.82,1547.85,546.75
22650,-3.8711,0.5115,-0.0193,-195.07,110.35,562.44
22660,-3.8712,0.4781,-0.0088,1476.81,1532.23,1093.69
22670,-3.8713,0.4554,0.0021,1211.18,-1124.08,859.31
22680,-3.8716,0.4741,0.0084,-1695.07,266.48,-1109.38
22690,-3.8717,0.5266,0.0074,695.56,1079.04,500.00
22700,-3.8719,0.5779,0.0067,-585.69,954.10,-93.75
22710,-3.8719,0.6069,0.0137,1976.81,860.47,1312.50
22720,-3.8721,0.5988,0.0269,1695.56,1751.16,-687.50
22730,-3.8721,0.5526,0.0376,648.68,-561.34,875.00
22740,-3.8722,0.4891,0.0374,-1257.57,813.54,1671.94
22750,-3.8723,0.4257,0.0295,-1382.57,782.17,1921.94
22760,-3.8724,0.3702,0.0238,-1507.57,-217.96,1921.88
22770,-3.8726,0.3259,0.0288,-601.32,-952.45,1984.38
22780,-3.8727,0.2971,0.0555,1726.81,-311.89,-1531.25
22790,-3.8728,0.2832,0.0964,-1960.69,-890.08,-328.06
22800,-3.8728,0.2776,0.1262,258.06,344.30,1312.68
22810,-3.8729,0.2789,0.1350,-460.69,156.74,-1531.01
22820,-3.8730,0.2859,0.1305,-288.82,1281.74,-1531.01
22830,-3.8732,0.2898,0.1260,601.81,703.67,-1859.13
22840,-3.8733,0.2828,0.1338,1101.81,125.55,-890.38
22850,-3.8733,0.2653,0.1517,211.18,1125.55,1172.12
22860,-3.8734,0.2397,0.1663,1961.18,-577.64,-406.01
22870,-3.8734,0.2041,0.1771,-1304.44,1281.68,1937.81
22880,-3.8735,0.1565,0.1937,-1866.94,-1327.76,-405.94
22890,-3.8735,0.1033,0.2173,39.31,797.18,31.62
22900,-3.8738,0.0547,0.2389,1226.81,-187.32,-609.01
22910,-3.8739,0.0177,0.2513,-991.94,-1421.81,-1593.32
