timestamp_ms,ax,ay,az,gx,gy,gz
0,-3.8711,-0.3760,0.2965,945.56,-172.67,-1639.95
10,-3.8712,-0.3672,0.2345,-116.94,1967.96,578.67
20,-3.8713,-0.3756,0.1917,1008.06,-1969.48,297.30
30,-3.8715,-0.3888,0.1689,-70.07,546.08,1109.74
40,-3.8716,-0.4054,0.1550,-1757.57,1639.83,469.06
50,-3.8718,-0.4287,0.1370,117.43,-141.42,1187.74
60,-3.8722,-0.4617,0.1097,1133.06,1546.02,-890.38
70,-3.8726,-0.5006,0.0736,914.31,-1938.42,-1702.94
80,-3.8729,-0.5308,0.0328,-70.07,1436.46,1828.25
90,-3.8732,-0.5361,-0.0043,70.56,217.71,1328.19
100,-3.8733,-0.5194,-0.0361,-616.94,-532.35,203.06
110,-3.8734,-0.4902,-0.0718,1523.68,-610.41,593.63
120,-3.8735,-0.4543,-0.1158,1258.06,-1172.85,1781.07
130,-3.8737,-0.4221,-0.1555,1851.81,1186.58,-1843.99
140,-3.8738,-0.3969,-0.1796,1976.81,108.52,171.57
150,-3.8740,-0.3662,-0.1906,1211.18,1030.46,937.13
160,-3.8743,-0.3182,-0.1935,1133.06,-375.73,-1047.30
170,-3.8744,-0.2640,-0.1957,-726.32,-750.67,-1047.30
180,-3.8744,-0.2144,-0.2062,-1788.82,-1031.80,577.70
190,-3.8745,-0.1682,-0.2268,570.56,1624.57,-516.05
200,-3.8745,-0.1294,-0.2489,-1523.19,-1015.99,-1766.11
210,-3.8745,-0.1047,-0.2594,-554.44,155.94,265.14
220,-3.8746,-0.0833,-0.2543,-1398.19,-1187.74,-516.17
230,-3.8746,-0.0513,-0.2506,1351.81,-531.43,-609.92
240,-3.8746,-0.0087,-0.2634,1445.56,-62.62,1890.08
250,-3.8746,0.0406,-0.2875,-1101.32,-1703.19,311.95
260,-3.8746,0.0898,-0.3087,1211.18,-796.81,1202.51
270,-3.8745,0.1392,-0.3214,-491.94,484.50,1140.01
280,-3.8744,0.1941,-0.3361,1820.56,-1140.38,-1125.67
290,-3.8741,0.2529,-0.3579,851.81,984.74,389.95
300,-3.8740,0.3090,-0.3676,383.06,-1812.01,405.52
310,-3.8740,0.3567,-0.3445,-445.07,953.67,-156.98
320,-3.8738,0.3828,-0.2961,1664.31,-93.08,999.27
330,-3.8735,0.3922,-0.2344,1008.06,-1905.52,468.14
340,-3.8733,0.3943,-0.1586,-1788.82,-1999.27,-1125.49
350,-3.8729,0.3866,-0.0908,-1523.19,-296.14,-109.74
360,-3.8724,0.3790,-0.0686,1492.43,375.73,31.07
370,-3.8722,0.3931,-0.0698,523.68,-780.52,-1265.81
380,-3.8717,0.4348,-0.0568,-1679.44,-936.77,906.07
390,-3.8711,0.4957,-0.0502,-335.69,735.17,796.75
400,-3.8706,0.5721,-0.0654,-538.82,1579.04,-578.25
410,-3.8702,0.6533,-0.0768,1242.43,-373.90,765.44
420,-3.8704,0.7162,-0.0618,-366.94,-1826.90,-78.31
430,-3.8705,0.7350,-0.0354,-320.07,95.09,1609.25
440,-3.8706,0.7186,-0.0182,-1913.82,-529.85,1562.38
450,-3.8706,0.6882,-0.0089,-7.57,1673.22,-78.19
460,-3.8704,0.6538,0.0027,101.81,-1139.28,1562.44
470,-3.8701,0.6335,0.0183,-304.44,344.97,468.75
480,-3.8699,0.6349,0.0468,1101.81,-1655.03,-1781.25
490,-3.8695,0.6525,0.1056,1273.68,1985.60,1062.56
500,-3.8693,0.6777,0.1858,-476.32,1516.85,1156.43
510,-3.8691,0.7024,0.2625,-1241.94,-217.47,-1796.57
520,-3.8690,0.7156,0.3171,1914.31,1595.09,1250.49
530,-3.8689,0.7100,0.3563,-398.19,595.09,797.49
540,-3.8688,0.6962,0.4049,-1116.94,1610.72,-405.58
550,-3.8685,0.6864,0.4625,1117.43,-170.53,-1639.89
560,-3.8684,0.6888,0.5200,-132.57,-795.59,1657.10
570,-3.8684,0.7130,0.5775,179.93,-1436.16,-1327.15
580,-3.8684,0.7482,0.6309,-726.32,1923.22,-561.40
590,-3.8683,0.7638,0.6824,-226.32,751.40,1438.72
600,-3.8683,0.7371,0.7463,1773.68,-654.79,-358.09
610,-3.8683,0.6549,0.8204,-1648.19,-467.35,-107.97
620,-3.8683,0.5063,0.8671,-163.82,1016.85,-1607.79
630,-3.8683,0.3083,0.8564,820.56,-1014.65,954.77
640,-3.8683,0.1202,0.8021,-523.19,1625.55,1032.90
650,-3.8683,-0.0040,0.7358,-601.32,-1327.94,1017.15
660,-3.8684,-0.0630,0.6713,-507.57,-1796.94,32.65
670,-3.8688,-0.0804,0.6068,-54.44,1937.32,-1467.47
680,-3.8689,-0.0613,0.5571,1711.18,1687.32,360.53
690,-3.8690,-0.0393,0.5460,164.31,-672.00,-1327.09
700,-3.8691,-0.0728,0.5632,-1023.19,1906.13,1626.04
710,-3.8695,-0.1647,0.5699,-1304.44,109.19,-1639.53
720,-3.8699,-0.2761,0.5352,-1070.07,968.38,1079.22
730,-3.8702,-0.3713,0.4613,664.31,515.08,1094.79
740,-3.8706,-0.4368,0.3705,476.81,-938.23,-1467.90
750,-3.8708,-0.4791,0.2773,101.81,-563.35,1094.42
760,-3.8711,-0.5032,0.1953,-1320.07,-485.35,1062.99
770,-3.8713,-0.5021,0.1357,-398.19,1014.59,-1577.76
780,-3.8715,-0.4880,0.0961,-257.57,1389.59,750.24
790,-3.8717,-0.4761,0.0707,1539.31,311.52,-671.69
800,-3.8718,-0.4734,0.0569,-929.44,1061.52,1062.62
810,-3.8721,-0.4758,0.0482,-585.69,-704.10,1734.44
820,-3.8723,-0.4694,0.0350,-898.19,-1813.48,500.06
830,-3.8727,-0.4537,0.0068,-70.07,499.02,1921.94
840,-3.8729,-0.4349,-0.0397,1929.93,889.71,1218.75
850,-3.8732,-0.4216,-0.1010,336.18,-1063.35,-265.75
860,-3.8732,-0.4102,-0.1656,-1960.69,-907.10,1109.13
870,-3.8732,-0.3975,-0.2201,-491.94,-1188.35,671.51
880,-3.8732,-0.3839,-0.2622,1133.06,-157.04,437.01
890,-3.8733,-0.3761,-0.2983,-1132.57,-1547.67,1718.20
900,-3.8734,-0.3694,-0.3260,-132.57,1827.33,936.89
910,-3.8735,-0.3436,-0.3402,726.81,-1719.48,718.08
920,-3.8737,-0.2937,-0.3517,23.68,468.08,1171.20
930,-3.8738,-0.2416,-0.3691,-1585.69,-1000.61,1889.89
940,-3.8738,-0.2045,-0.3759,1086.18,765.14,889.89
950,-3.8738,-0.1653,-0.3619,1836.18,-94.18,1421.08
960,-3.8738,-0.1077,-0.3408,-1148.19,1687.13,764.89
970,-3.8739,-0.0360,-0.3174,-1773.19,390.38,-969.42
980,-3.8739,0.0291,-0.2908,-601.32,-609.50,421.20
990,-3.8740,0.0751,-0.2673,-273.19,-1218.75,1015.01
1000,-3.8741,0.1152,-0.2523,1617.43,1781.37,-1297.42
1010,-3.8741,0.1669,-0.2435,-1241.94,-296.69,-938.05
1020,-3.8740,0.2310,-0.2323,1367.43,828.43,843.26
1030,-3.8740,0.3014,-0.2162,1570.56,-1733.95,-1141.11
1040,-3.8739,0.3718,-0.2047,-1413.82,328.67,1155.82
1050,-3.8739,0.4457,-0.1989,-398.19,1797.55,-672.30
1060,-3.8738,0.5197,-0.1907,1054.93,-1452.27,1827.70
1070,-3.8737,0.5858,-0.1752,-1476.32,-405.27,-969.18
1080,-3.8734,0.6422,-0.1597,-1007.57,1579.22,1780.88
1090,-3.8733,0.6791,-0.1469,-1788.82,-436.28,-953.49
1100,-3.8730,0.6985,-0.1205,-1070.07,1204.41,171.57
1110,-3.8729,0.7067,-0.0815,1414.31,579.47,1999.76
1120,-3.8727,0.6982,-0.0425,-1538.82,1563.84,1046.69
1130,-3.8723,0.6727,-0.0010,1383.06,-1436.16,406.13
1140,-3.8719,0.6361,0.0415,-1882.57,-123.72,-1859.44
1150,-3.8716,0.6160,0.0631,1429.93,1313.72,-765.56
1160,-3.8711,0.6528,0.0453,-1148.19,79.28,750.12
1170,-3.8707,0.7461,0.0118,-429.44,1798.10,-1031.19
1180,-3.8704,0.8577,0.0067,-491.94,1517.03,-593.75
1190,-3.8701,0.9525,0.0475,1789.31,861.02,-250.00
1200,-3.8699,1.0140,0.1464,1929.93,-1920.04,515.69
1210,-3.8699,1.0319,0.3119,1804.93,-1263.67,-1765.38
1220,-3.8699,0.9941,0.4973,86.18,-76.11,1563.05
1230,-3.8699,0.9120,0.6298,-741.94,-341.86,313.42
1240,-3.8699,0.8158,0.6685,742.43,611.15,1923.10
1250,-3.8695,0.7374,0.6306,429.93,1564.09,1876.28
1260,-3.8688,0.6986,0.5878,-1601.32,720.15,1344.97
1270,-3.8682,0.6809,0.6012,1429.93,-764.28,-170.78
1280,-3.8678,0.6335,0.6724,-835.69,954.41,-795.72
1290,-3.8678,0.5415,0.7676,1101.81,-1936.28,-529.97
1300,-3.8679,0.4222,0.8455,1320.56,-1748.96,438.96
1310,-3.8683,0.2729,0.8641,-1945.07,219.54,-45.23
1320,-3.8684,0.1105,0.8414,-1054.44,-1390.14,-545.23
1330,-3.8683,-0.0171,0.8339,-1851.32,-296.69,985.96
1340,-3.8682,-0.1055,0.8519,1820.56,-1250.06,-748.41
1350,-3.8679,-0.1879,0.8660,-1491.94,1062.26,-1435.85
1360,-3.8678,-0.2670,0.8593,-38.82,-1141.05,-763.98
1370,-3.8678,-0.3300,0.8408,1836.18,1999.45,-1888.98
1380,-3.8680,-0.3792,0.8071,1773.68,-360.05,1173.46
1390,-3.8685,-0.4247,0.7401,-523.19,-672.67,1704.65
1400,-3.8691,-0.4677,0.6373,1648.68,-1250.85,-29.85
1410,-3.8696,-0.4937,0.5264,148.68,1592.83,-436.28
1420,-3.8700,-0.5084,0.4304,820.56,-610.35,391.60
1430,-3.8705,-0.5344,0.3495,-1070.07,-891.66,813.29
1440,-3.8710,-0.5720,0.2704,-398.19,748.90,1281.92
1450,-3.8715,-0.6021,0.1841,-1210.69,-1376.16,-374.51
1460,-3.8717,-0.6150,0.1025,-1054.44,-423.10,1125.31
1470,-3.8719,-0.6199,0.0403,1289.31,1139.40,1687.68
1480,-3.8721,-0.6257,0.0002,664.31,1170.65,250.06
1490,-3.8722,-0.6290,-0.0266,-85.69,45.59,531.25
1500,-3.8723,-0.6233,-0.0479,-507.57,608.09,1562.44
1510,-3.8724,-0.6036,-0.0660,226.81,1889.40,812.38
1520,-3.8727,-0.5599,-0.0892,-1257.57,-438.72,1390.44
1530,-3.8729,-0.4935,-0.1268,336.18,592.65,1687.32
1540,-3.8730,-0.4232,-0.1711,836.18,-219.73,640.32
1550,-3.8732,-0.3638,-0.2096,1836.18,-1891.48,-1359.74
1560,-3.8732,-0.3168,-0.2379,1445.56,1186.77,-1687.93
1570,-3.8732,-0.2874,-0.2465,-538.82,1561.83,-891.11
1580,-3.8730,-0.2797,-0.2251,-773.19,468.14,1062.01
1590,-3.8730,-0.2900,-0.1849,211.18,-797.42,-1953.61
1600,-3.8730,-0.3040,-0.1487,-1116.94,343.14,437.13
1610,-3.8732,-0.3048,-0.1284,1101.81,983.76,530.94
1620,-3.8734,-0.2859,-0.1287,992.43,-422.49,-390.93
1630,-3.8735,-0.2522,-0.1504,-585.69,-453.74,-250.31
1640,-3.8735,-0.2120,-0.1873,-273.19,765.08,1968.44
1650,-3.8735,-0.1705,-0.2299,867.43,46.45,1452.76
1660,-3.8735,-0.1310,-0.2670,-1820.07,-1406.62,405.76
1670,-3.8737,-0.0898,-0.2935,-757.57,1843.44,1390.08
1680,-3.8738,-0.0399,-0.3168,508.06,-1547.06,280.64
1690,-3.8740,0.0197,-0.3446,-1101.32,-531.37,-1500.67
1700,-3.8741,0.0814,-0.3701,-1476.32,-109.38,-1797.61
1710,-3.8741,0.1324,-0.3785,-1570.07,625.12,1030.52
1720,-3.8741,0.1661,-0.3605,961.18,-452.88,-907.04
1730,-3.8740,0.1897,-0.3204,1273.68,1859.68,1858.64
1740,-3.8740,0.2191,-0.2772,289.31,-1015.26,-641.30
1750,-3.8739,0.2650,-0.2441,54.93,516.05,140.08
1760,-3.8739,0.3267,-0.2202,1929.93,750.49,983.89
1770,-3.8739,0.3839,-0.2061,1820.56,-186.89,-1500.49
1780,-3.8738,0.4106,-0.1954,1148.68,1625.73,1874.57
1790,-3.8735,0.4078,-0.1559,570.56,-1014.83,-1328.55
1800,-3.8730,0.4087,-0.0647,211.18,47.67,-906.56
1810,-3.8726,0.4250,0.0371,320.56,-280.46,1702.94
1820,-3.8723,0.4530,0.0939,-1585.69,750.79,-1671.81
1830,-3.8719,0.4958,0.0829,1992.43,16.48,1359.56
1840,-3.8715,0.5421,0.0203,-523.19,-1389.71,500.12
1850,-3.8711,0.5834,-0.0415,1398.68,-1405.21,-1218.75
1860,-3.8708,0.6093,-0.0577,-1320.07,-1311.40,-625.12
1870,-3.8707,0.5974,-0.0232,1992.43,610.53,1609.25
1880,-3.8707,0.5474,0.0272,476.81,1032.41,531.19
1890,-3.8707,0.4912,0.0613,-1929.44,-514.59,78.12
1900,-3.8707,0.4467,0.0818,-1116.94,-155.33,-343.69
1910,-3.8705,0.4055,0.1049,1179.93,-1530.40,-1328.00
1920,-3.8702,0.3695,0.1296,-85.69,1422.61,953.31
1930,-3.8701,0.3501,0.1372,-695.07,594.42,703.37
1940,-3.8700,0.3523,0.1211,820.56,1563.17,1765.87
1950,-3.8696,0.3695,0.1252,1101.81,-499.33,15.81
1960,-3.8694,0.3799,0.1909,-695.07,31.92,-546.63
1970,-3.8691,0.3705,0.2971,633.06,438.23,-1687.13
1980,-3.8690,0.3552,0.3995,-570.07,-1968.08,1031.80
1990,-3.8690,0.3644,0.4611,1476.81,-858.70,-405.52
2000,-3.8689,0.4031,0.4799,-1351.32,-983.70,-311.65
2010,-3.8688,0.4401,0.4930,-398.19,1422.61,-124.08
2020,-3.8687,0.4570,0.5321,336.18,-889.77,-780.33
2030,-3.8685,0.4548,0.5983,-1491.94,110.23,-1702.09
2040,-3.8684,0.4255,0.6720,-1773.19,578.98,891.78
2050,-3.8684,0.3615,0.7238,-1523.19,-1983.58,-1529.97
2060,-3.8684,0.2589,0.7300,-1726.32,641.30,-967.35
2070,-3.8684,0.1342,0.6963,1148.68,1437.99,-1107.97
2080,-3.8684,0.0190,0.6447,1179.93,1125.24,-983.03
2090,-3.8684,-0.0626,0.5939,-1554.44,-1484.38,-733.15
2100,-3.8684,-0.1045,0.5521,-7.57,31.07,-576.97
2110,-3.8684,-0.1221,0.5209,-1366.94,-1312.74,-1623.96
2120,-3.8685,-0.1355,0.5031,383.06,-1312.74,-1624.02
2130,-3.8688,-0.1548,0.4943,-1335.69,405.94,-967.77
2140,-3.8690,-0.1724,0.4740,195.56,-719.06,-1045.96
2150,-3.8691,-0.1737,0.4259,1945.56,687.13,1704.04
2160,-3.8693,-0.1641,0.3647,1773.68,-1469.12,-1296.08
2170,-3.8694,-0.1627,0.3156,-991.94,-1297.24,-1952.45
2180,-3.8696,-0.1744,0.2874,-820.07,405.88,-1780.64
2190,-3.8699,-0.1935,0.2745,1679.93,796.51,1281.80
2200,-3.8701,-0.2201,0.2667,-757.57,-844.18,1359.86
2210,-3.8704,-0.2524,0.2487,-163.82,-1844.24,-1062.01
2220,-3.8705,-0.2811,0.2126,-304.44,-156.80,-1921.45
2230,-3.8706,-0.2980,0.1671,23.68,-766.17,1953.49
2240,-3.8707,-0.3071,0.1208,1867.43,1405.64,203.43
2250,-3.8711,-0.3119,0.0746,695.56,-516.24,-187.32
2260,-3.8713,-0.3175,0.0244,86.18,1561.89,-1859.25
2270,-3.8716,-0.3276,-0.0205,-632.57,-860.05,843.75
2280,-3.8718,-0.3367,-0.0503,-1929.44,1389.95,796.81
2290,-3.8721,-0.3463,-0.0715,914.31,1577.45,1843.63
2300,-3.8723,-0.3622,-0.0930,-320.07,-1141.36,-140.81
2310,-3.8724,-0.3806,-0.1169,1648.68,108.64,-1437.68
2320,-3.8726,-0.3986,-0.1442,-710.69,1046.08,687.26
2330,-3.8728,-0.4141,-0.1768,992.43,1561.71,1749.69
2340,-3.8730,-0.4255,-0.2161,-991.94,1389.77,-1484.74
2350,-3.8732,-0.4338,-0.2606,1539.31,358.52,655.82
2360,-3.8733,-0.4396,-0.3016,476.81,-1344.60,983.83
2370,-3.8734,-0.4492,-0.3257,-257.57,1405.33,-1922.49
2380,-3.8735,-0.4653,-0.3273,-1491.94,-1672.79,-953.80
2390,-3.8735,-0.4833,-0.3160,445.56,-1875.92,218.08
2400,-3.8737,-0.4922,-0.3026,-1851.32,-438.48,1530.58
2410,-3.8738,-0.4816,-0.2880,1008.06,1280.27,-1391.24
2420,-3.8739,-0.4540,-0.2754,-1632.57,-844.73,-844.36
2430,-3.8740,-0.4144,-0.2745,1898.68,764.71,-31.80
2440,-3.8740,-0.3586,-0.2865,-1038.82,874.15,-1688.05
2450,-3.8740,-0.2852,-0.3043,-1898.19,-656.98,1718.14
2460,-3.8740,-0.2004,-0.3218,-491.94,1061.89,858.76
2470,-3.8741,-0.1106,-0.3362,-1648.19,-1172.30,-1172.55
2480,-3.8743,-0.0162,-0.3474,1851.81,984.13,-31.92
2490,-3.8743,0.0792,-0.3602,1929.93,-453.19,1483.64
2500,-3.8744,0.1635,-0.3813,-1851.32,1890.75,-281.98
2510,-3.8744,0.2200,-0.4087,929.93,-812.19,-1203.92
2520,-3.8744,0.2374,-0.4333,164.31,-312.07,-875.85
2530,-3.8743,0.2358,-0.4454,-1601.32,531.68,1796.02
2540,-3.8741,0.2417,-0.4484,-1804.44,-1015.20,-1110.29
2550,-3.8739,0.2506,-0.4470,-1054.44,-1390.20,295.96
2560,-3.8738,0.2620,-0.4337,86.18,-1218.26,1624.08
2570,-3.8735,0.2845,-0.4016,1539.31,484.86,546.02
2580,-3.8733,0.3256,-0.3480,429.93,594.30,1889.83
2590,-3.8730,0.3864,-0.2802,1679.93,-546.26,-125.73
2600,-3.8727,0.4694,-0.2141,1461.18,141.36,1952.58
2610,-3.8724,0.5767,-0.1469,86.18,594.67,-234.80
2620,-3.8722,0.6805,-0.0717,1820.56,1204.22,-1265.93
2630,-3.8719,0.7616,-0.0167,-882.57,-1170.59,1859.19
2640,-3.8717,0.8326,-0.0055,1492.43,1860.84,-468.81
2650,-3.8713,0.9093,-0.0232,-1413.82,-701.54,-1593.81
2660,-3.8710,1.0006,-0.0387,398.68,1033.02,-640.69
2670,-3.8705,1.0948,-0.0162,86.18,-951.17,1953.00
2680,-3.8701,1.1627,0.0612,148.68,1924.01,453.06
2690,-3.8700,1.1930,0.1820,836.18,-169.62,1250.06
2700,-3.8699,1.1871,0.3220,711.18,-700.81,-1952.82
2710,-3.8696,1.1443,0.4484,-38.82,1221.01,922.49
2720,-3.8694,1.0834,0.5297,-1523.19,1392.82,1453.98
2730,-3.8690,1.0381,0.5624,-1320.07,-201.05,1266.60
2740,-3.8685,1.0157,0.5839,883.06,-13.61,626.04
2750,-3.8682,0.9882,0.6273,-1976.32,-1263.67,-1420.78
2760,-3.8679,0.9261,0.6786,-1507.57,298.77,-1186.28
2770,-3.8678,0.8350,0.7335,-1445.07,-1138.85,-1592.47
2780,-3.8678,0.7339,0.7834,-1116.94,1892.21,-123.60
2790,-3.8677,0.6213,0.8148,1945.56,282.65,1.53
2800,-3.8678,0.4836,0.8379,-460.69,298.03,1220.34
2810,-3.8680,0.3224,0.8417,1914.31,-749.08,1985.96
2820,-3.8684,0.1576,0.8212,1273.68,-265.01,-201.54
2830,-3.8687,0.0013,0.7864,179.93,1109.68,1204.71
2840,-3.8689,-0.1395,0.7557,179.93,656.25,1017.15
2850,-3.8691,-0.2729,0.7418,-1851.32,749.69,-1576.66
2860,-3.8694,-0.4144,0.7266,1070.56,-1031.80,-1811.10
2870,-3.8696,-0.5511,0.6791,-1038.82,1014.77,626.40
2880,-3.8700,-0.6486,0.5862,1461.18,-1063.60,-623.72
2890,-3.8702,-0.6909,0.4707,992.43,-954.41,-1483.28
2900,-3.8705,-0.7001,0.3673,-429.44,264.22,1063.42
2910,-3.8708,-0.7018,0.2825,-1601.32,-970.15,-1514.95
2920,-3.8712,-0.6981,0.2119,-1820.07,170.47,-843.20
2930,-3.8716,-0.6810,0.1548,-1351.32,-860.78,-280.88
2940,-3.8718,-0.6506,0.1071,836.18,-173.22,687.74
2950,-3.8722,-0.6156,0.0670,726.81,1717.47,-1109.19
2960,-3.8724,-0.5826,0.0364,1211.18,592.53,-249.88
2970,-3.8724,-0.5487,0.0140,1429.93,670.72,62.56
2980,-3.8726,-0.5085,-0.0089,1773.68,1811.40,-1718.75
2990,-3.8727,-0.4662,-0.0358,-1085.69,-1126.04,-234.44
3000,-3.8728,-0.4286,-0.0598,336.18,-563.42,-375.12
3010,-3.8729,-0.4004,-0.0830,1148.68,358.52,-937.62
3020,-3.8730,-0.3804,-0.1169,758.06,1389.83,-781.43
3030,-3.8730,-0.3639,-0.1605,-679.44,1046.08,343.51
3040,-3.8732,-0.3486,-0.1993,1429.93,-531.98,-1453.49
3050,-3.8732,-0.3376,-0.2228,-616.94,-1500.73,1999.57
3060,-3.8732,-0.3311,-0.2273,789.31,-500.67,-1141.11
3070,-3.8730,-0.3237,-0.2234,1633.06,-1078.80,77.64
3080,-3.8732,-0.3092,-0.2321,-1429.44,-578.80,-266.11
3090,-3.8732,-0.2833,-0.2578,429.93,-1688.11,1905.76
3100,-3.8732,-0.2506,-0.2867,-257.57,-984.99,249.45
3110,-3.8733,-0.2192,-0.3102,-70.07,-688.05,-531.86
3120,-3.8733,-0.1902,-0.3271,-54.44,312.01,-1141.24
3130,-3.8733,-0.1581,-0.3328,-335.69,-1859.80,1733.70
3140,-3.8733,-0.1208,-0.3259,-226.32,1421.51,30.58
3150,-3.8734,-0.0806,-0.3146,539.31,-1703.37,1671.20
3160,-3.8735,-0.0392,-0.3075,1695.56,-250.18,-1219.42
3170,-3.8737,0.0032,-0.3058,-1007.57,656.13,-469.36
3180,-3.8738,0.0499,-0.3085,414.31,859.38,-78.74
3190,-3.8738,0.1019,-0.3207,-1601.32,515.69,61.89
3200,-3.8739,0.1526,-0.3507,1054.93,-1046.69,327.45
3210,-3.8740,0.1943,-0.3909,-460.69,-890.38,1358.64
3220,-3.8740,0.2268,-0.4164,883.06,1969.12,561.71
3230,-3.8740,0.2513,-0.4174,1039.31,-1296.45,-1297.73
3240,-3.8739,0.2570,-0.4021,179.93,-1421.39,-1047.73
3250,-3.8737,0.2526,-0.3693,898.68,531.74,296.08
3260,-3.8735,0.2526,-0.3287,336.18,734.86,1249.27
3270,-3.8734,0.2499,-0.2921,336.18,1922.36,-1969.42
3280,-3.8733,0.2570,-0.2566,-7.57,-1390.20,-438.11
3290,-3.8730,0.2811,-0.2355,898.68,-843.26,358.83
3300,-3.8729,0.3226,-0.2318,-7.57,1859.86,640.14
3310,-3.8728,0.3971,-0.2256,1304.93,-1671.26,-1781.74
3320,-3.8726,0.5007,-0.2174,-1163.82,-874.27,483.89
3330,-3.8724,0.6025,-0.2189,101.81,172.85,-750.43
3340,-3.8722,0.6853,-0.2120,1133.06,-14.47,-234.86
3350,-3.8718,0.7576,-0.1748,-273.19,860.66,843.32
3360,-3.8716,0.8254,-0.1068,976.81,1626.46,296.51
3370,-3.8715,0.8778,-0.0267,1664.31,-1670.29,1640.38
3380,-3.8713,0.9155,0.0331,367.43,579.83,-796.94
3390,-3.8711,0.9594,0.0500,1195.56,236.15,-531.19
3400,-3.8707,1.0155,0.0306,-1195.07,-1591.92,-703.06
3410,-3.8702,1.0723,0.0134,1992.43,-76.17,-375.00
3420,-3.8696,1.1195,0.0510,1258.06,1720.83,812.50
3430,-3.8694,1.1494,0.1732,-695.07,-1466.61,1968.81
3440,-3.8694,1.1617,0.3423,-866.94,-1825.93,1890.93
3450,-3.8694,1.1602,0.4698,711.18,-185.24,391.24
3460,-3.8693,1.1448,0.5238,508.06,142.88,282.17
3470,-3.8690,1.1105,0.5417,-1460.69,-950.93,610.35
3480,-3.8689,1.0562,0.5547,-1851.32,1345.89,-30.21
3490,-3.8688,0.9941,0.5704,-804.44,-997.99,-623.96
3500,-3.8688,0.9319,0.5979,-741.94,1017.52,-983.28
3510,-3.8688,0.8639,0.6449,-710.69,533.02,-1686.34
3520,-3.8688,0.7772,0.6973,-1413.82,-1451.48,-76.90
3530,-3.8685,0.6807,0.7429,-507.57,1251.46,970.09
3540,-3.8684,0.5861,0.7920,-866.94,-904.97,1704.53
3550,-3.8684,0.4855,0.8508,-976.32,1376.10,501.53
3560,-3.8687,0.3679,0.8917,-1851.32,907.17,1814.15
3570,-3.8689,0.2325,0.8901,-898.19,-1858.70,-1763.92
3580,-3.8690,0.0956,0.8401,1773.68,1937.93,314.21
3590,-3.8691,-0.0089,0.7484,242.43,-468.57,1267.21
3600,-3.8691,-0.0663,0.6567,-1132.57,-187.56,188.90
3610,-3.8693,-0.1140,0.6024,-476.32,77.94,188.78
3620,-3.8696,-0.1851,0.5656,1414.31,1124.76,-30.09
3630,-3.8698,-0.2600,0.5223,320.56,405.88,735.47
3640,-3.8699,-0.3121,0.4705,-1273.19,-1125.55,-1920.90
3650,-3.8699,-0.3419,0.4089,54.93,233.76,1079.04
3660,-3.8700,-0.3644,0.3430,242.43,358.70,1000.79
3670,-3.8704,-0.3839,0.2705,1367.43,-78.86,-46.26
3680,-3.8706,-0.3909,0.1967,-1132.57,-1360.17,609.86
3690,-3.8710,-0.3789,0.1366,1976.81,1186.71,-1718.38
3700,-3.8712,-0.3575,0.0936,-491.94,1499.21,1312.74
3710,-3.8715,-0.3418,0.0604,-1757.57,-0.73,906.37
3720,-3.8717,-0.3386,0.0280,258.06,-250.67,1015.69
3730,-3.8719,-0.3435,-0.0129,664.31,-406.92,-1421.88
3740,-3.8721,-0.3480,-0.0592,39.31,-1641.30,1749.94
3750,-3.8722,-0.3558,-0.1001,-538.82,436.77,1156.13
3760,-3.8723,-0.3679,-0.1293,-1538.82,-797.61,515.38
3770,-3.8726,-0.3778,-0.1484,914.31,-531.98,-265.93
3780,-3.8727,-0.3795,-0.1671,-351.32,1014.83,-1937.81
3790,-3.8729,-0.3737,-0.1959,-570.07,-1375.79,-390.99
3800,-3.8730,-0.3606,-0.2323,179.93,-1063.23,1749.57
3810,-3.8732,-0.3455,-0.2643,1851.81,-1719.48,1530.76
3820,-3.8733,-0.3333,-0.2855,-210.69,-1813.23,-1063.05
3830,-3.8733,-0.3275,-0.2943,1351.81,-531.92,936.89
3840,-3.8734,-0.3276,-0.2909,-1913.82,-1656.92,-1172.49
3850,-3.8734,-0.3257,-0.2842,-1929.44,-1219.42,577.51
3860,-3.8735,-0.3170,-0.2814,-1679.44,-360.05,-1813.11
3870,-3.8735,-0.3036,-0.2810,-570.07,-0.67,155.64
3880,-3.8737,-0.2853,-0.2789,1148.68,46.26,-1016.17
3890,-3.8737,-0.2604,-0.2739,-507.57,311.89,-1547.42
3900,-3.8737,-0.2297,-0.2687,-1320.07,952.58,-1766.17
3910,-3.8737,-0.1931,-0.2679,-1398.19,1624.51,1483.83
3920,-3.8738,-0.1493,-0.2764,-710.69,1718.32,-469.30
3930,-3.8738,-0.0944,-0.2925,898.68,640.32,1452.58
3940,-3.8738,-0.0319,-0.3105,-70.07,-1422.12,249.39
3950,-3.8739,0.0251,-0.3243,-70.07,265.50,-250.61
3960,-3.8739,0.0752,-0.3290,-773.19,-1515.62,-688.17
3970,-3.8739,0.1265,-0.3221,1633.06,1890.75,-1266.30
3980,-3.8739,0.1848,-0.3069,195.56,-1234.13,-1500.67
3990,-3.8739,0.2430,-0.2900,-335.69,719.06,-1047.49
4000,-3.8739,0.2922,-0.2776,-882.57,-1124.57,-359.99
4010,-3.8738,0.3411,-0.2760,1414.31,469.30,1546.33
4020,-3.8737,0.3966,-0.2925,-335.69,672.49,-1469.30
4030,-3.8734,0.4652,-0.3188,-1226.32,-1436.77,-1203.74
4040,-3.8730,0.5427,-0.3369,-445.07,-811.65,1046.20
4050,-3.8728,0.6072,-0.3318,1476.81,876.04,-1125.67
4060,-3.8726,0.6508,-0.2916,1726.81,1532.41,-1531.92
4070,-3.8723,0.6821,-0.2068,-695.07,-1326.90,843.14
4080,-3.8722,0.6973,-0.0797,-679.44,1532.53,-812.93
4090,-3.8719,0.6787,0.0444,1258.06,1798.22,1609.19
4100,-3.8717,0.6445,0.1196,-1116.94,1688.78,-1187.44
4110,-3.8713,0.6327,0.1487,-1491.94,-686.28,-984.19
4120,-3.8710,0.6492,0.1647,992.43,-967.53,-1062.26
4130,-3.8706,0.6755,0.1843,-898.19,1079.35,265.93
4140,-3.8705,0.7008,0.2072,-1523.19,-404.97,1594.06
4150,-3.8705,0.7213,0.2379,1711.18,-1483.03,-15.26
4160,-3.8704,0.7328,0.2980,336.18,-1545.47,-421.45
4170,-3.8701,0.7242,0.3956,1804.93,-1857.97,1016.17
4180,-3.8700,0.6964,0.4901,711.18,-1357.97,1453.86
4190,-3.8699,0.6782,0.5422,1148.68,-1264.28,-1952.21
4200,-3.8696,0.6788,0.5670,-1179.44,1407.53,1766.66
4210,-3.8694,0.6747,0.6261,-1101.32,579.41,-1608.28
4220,-3.8693,0.6514,0.7444,-1632.57,141.91,-1061.28
4230,-3.8691,0.6123,0.8802,-616.94,-717.53,860.78
4240,-3.8690,0.5593,0.9844,-1616.94,673.03,470.46
4250,-3.8689,0.4824,1.0515,-398.19,-1998.96,1970.64
4260,-3.8688,0.3663,1.0924,1758.06,-1405.33,-1544.86
4270,-3.8687,0.2208,1.1035,-1101.32,-171.20,1517.70
4280,-3.8685,0.0808,1.0939,273.68,1250.43,-1310.36
4290,-3.8683,-0.0392,1.0809,-1648.19,15.75,1142.76
4300,-3.8683,-0.1464,1.0630,-1007.57,-1625.12,-1935.42
4310,-3.8685,-0.2295,1.0267,1273.68,77.82,-29.17
4320,-3.8687,-0.2821,0.9807,-1366.94,-562.99,361.33
4330,-3.8689,-0.3279,0.9368,-101.32,1546.26,1439.39
4340,-3.8691,-0.3866,0.8772,-1960.69,-78.80,-1841.98
4350,-3.8694,-0.4484,0.7939,-1476.32,296.08,-685.79
4360,-3.8695,-0.4996,0.7087,-1382.57,1639.71,-1826.60
4370,-3.8696,-0.5409,0.6388,54.93,-1266.60,938.84
4380,-3.8699,-0.5704,0.5724,-1226.32,1780.15,1735.60
4390,-3.8701,-0.5897,0.5007,-1007.57,1280.09,1532.35
4400,-3.8704,-0.6045,0.4375,523.68,108.22,1938.48
4410,-3.8706,-0.6168,0.3884,-1366.94,14.40,-1780.40
4420,-3.8708,-0.6257,0.3417,1054.93,1733.15,781.98
4430,-3.8712,-0.6240,0.2855,-85.69,-251.28,-1686.89
4440,-3.8715,-0.6110,0.2231,133.06,561.28,328.67
4450,-3.8717,-0.5903,0.1677,1804.93,576.90,828.55
4460,-3.8718,-0.5656,0.1300,445.56,1483.22,500.31
4470,-3.8719,-0.5441,0.1030,-382.57,655.09,1890.87
4480,-3.8721,-0.5254,0.0691,-1632.57,1202.03,-406.07
4490,-3.8721,-0.5048,0.0291,758.06,858.34,484.50
4500,-3.8723,-0.4854,-0.0015,-601.32,-266.66,-531.25
4510,-3.8724,-0.4709,-0.0214,1883.06,-172.85,609.31
4520,-3.8727,-0.4575,-0.0509,-273.19,1280.27,1937.44
4530,-3.8728,-0.4375,-0.0950,1445.56,1499.08,1374.88
4540,-3.8729,-0.4093,-0.1379,8.06,-141.48,-1297.12
4550,-3.8729,-0.3793,-0.1702,-382.57,-1641.48,546.57
4560,-3.8730,-0.3562,-0.1892,-538.82,-1766.42,-1750.37
4570,-3.8732,-0.3430,-0.1938,-1585.69,-203.86,-250.43
4580,-3.8732,-0.3364,-0.1898,101.81,-797.55,608.95
4590,-3.8733,-0.3337,-0.1886,945.56,-281.92,921.45
4600,-3.8734,-0.3318,-0.1941,1289.31,-125.67,1515.20
4610,-3.8735,-0.3275,-0.1979,1539.31,-828.80,-1422.30
4620,-3.8735,-0.3209,-0.1953,-1913.82,-1313.17,280.82
4630,-3.8737,-0.3085,-0.1895,-1070.07,-985.05,-672.30
4640,-3.8737,-0.2843,-0.1886,523.68,-234.99,-1203.55
4650,-3.8737,-0.2463,-0.1990,-382.57,-125.61,1280.82
4660,-3.8738,-0.1946,-0.2216,476.81,-1453.61,-1469.18
4670,-3.8739,-0.1338,-0.2550,-898.19,-344.18,-609.86
4680,-3.8739,-0.0698,-0.2930,-1116.94,-625.31,1890.08
4690,-3.8739,-0.0017,-0.3232,-929.44,-1484.56,-984.99
4700,-3.8738,0.0668,-0.3375,-210.69,-1359.44,-1797.55
4710,-3.8737,0.1150,-0.3418,554.93,797.00,577.45
4720,-3.8738,0.1232,-0.3516,-1273.19,250.18,-860.05
4730,-3.8738,0.1033,-0.3728,-226.32,-999.82,749.27
4740,-3.8738,0.0826,-0.3983,1226.81,281.43,1624.27
4750,-3.8737,0.0686,-0.4209,-1413.82,1015.75,1217.96
4760,-3.8735,0.0619,-0.4233,789.31,-1874.88,-1578.98
4770,-3.8733,0.0651,-0.3920,-70.07,1812.56,155.40
4780,-3.8732,0.0763,-0.3427,336.18,1828.25,46.08
4790,-3.8732,0.1016,-0.3004,1773.68,140.75,-1094.42
4800,-3.8729,0.1499,-0.2726,1008.06,1547.06,202.51
4810,-3.8727,0.2179,-0.2450,-804.44,1109.62,30.70
4820,-3.8724,0.2927,-0.2080,-101.32,640.99,77.64
4830,-3.8723,0.3713,-0.1661,1476.81,1375.55,-594.18
4840,-3.8722,0.4489,-0.1162,-460.69,-1264.95,-500.37
4850,-3.8722,0.5195,-0.0590,1461.18,1125.85,-1140.87
4860,-3.8722,0.5999,-0.0070,-1491.94,454.10,1343.63
4870,-3.8722,0.6996,0.0455,789.31,-889.47,1859.31
4880,-3.8722,0.7966,0.1049,1554.93,1829.47,-1203.06
4890,-3.8722,0.8649,0.1469,1976.81,1423.40,-234.19
4900,-3.8721,0.9109,0.1559,-1288.82,-1201.48,-124.76
4910,-3.8718,0.9354,0.1462,601.81,-45.10,-437.26
4920,-3.8715,0.9285,0.1505,-257.57,-1279.48,-1671.63
4930,-3.8711,0.9045,0.2008,-1148.19,-732.60,-1343.51
4940,-3.8707,0.8831,0.3264,-210.69,1704.83,875.37
4950,-3.8705,0.8743,0.5048,1039.31,1782.96,469.36
4960,-3.8704,0.8618,0.6371,-85.69,611.02,-1920.90
4970,-3.8701,0.8529,0.6760,-1679.44,1548.52,-795.65
4980,-3.8695,0.8817,0.6512,1179.93,-1467.10,454.41
4990,-3.8690,0.9403,0.6235,867.43,-638.92,-1092.53
5000,-3.8688,0.9861,0.6456,367.43,-185.67,-201.97
5010,-3.8688,0.9917,0.7146,-1773.19,-1357.48,-1936.28
5020,-3.8689,0.9633,0.7949,-1054.44,-529.36,79.47
5030,-3.8691,0.9176,0.8479,-695.07,1751.83,-1935.97
5040,-3.8693,0.8750,0.8618,1461.18,533.02,-1170.23
5050,-3.8693,0.8422,0.8888,8.06,-1685.79,1673.52
5060,-3.8694,0.8007,0.9950,-195.07,1767.21,-1045.17
5070,-3.8695,0.7378,1.1842,-1507.57,-639.10,-1935.61
5080,-3.8696,0.6671,1.4144,-1554.44,-420.47,1736.63
5090,-3.8696,0.5780,1.5825,1398.68,1048.16,-1762.88
5100,-3.8693,0.4407,1.5887,1992.43,-1436.40,128.05
5110,-3.8688,0.2771,1.4658,414.31,-639.77,81.18
5120,-3.8684,0.1570,1.3291,-523.19,-374.51,1909.06
5130,-3.8683,0.1090,1.2434,101.81,-1874.69,846.31
5140,-3.8687,0.1096,1.1923,1961.18,-843.57,-1747.62
5150,-3.8691,0.1431,1.1448,-1960.69,609.56,-1013.31
5160,-3.8695,0.1887,1.0890,-1679.44,-1468.51,-1435.30
5170,-3.8698,0.2087,1.0381,164.31,-609.01,-1357.30
5180,-3.8700,0.1709,1.0020,-1273.19,875.37,-91.74
5190,-3.8702,0.0797,0.9492,1883.06,250.31,-1357.42
5200,-3.8706,-0.0179,0.8514,-1788.82,1500.12,-607.54
5210,-3.8710,-0.0863,0.7057,1711.18,999.94,-1201.48
5220,-3.8713,-0.1223,0.5422,961.18,-1656.43,470.09
5230,-3.8718,-0.1346,0.4033,351.81,1421.63,-1858.34
5240,-3.8722,-0.1373,0.2968,-1226.32,-359.68,1047.61
5250,-3.8726,-0.1382,0.2178,-1570.07,1999.69,-655.70
5260,-3.8727,-0.1427,0.1624,-1679.44,-109.68,-1421.51
5270,-3.8727,-0.1627,0.1196,1742.43,796.57,890.93
5280,-3.8727,-0.1971,0.0817,-820.07,-672.24,406.43
5290,-3.8728,-0.2327,0.0432,-1226.32,-1531.68,-1265.50
5300,-3.8729,-0.2583,-0.0028,-1773.19,1546.39,-1890.56
5310,-3.8730,-0.2699,-0.0613,-1054.44,-344.30,359.31
5320,-3.8733,-0.2677,-0.1316,1461.18,171.33,-15.75
5330,-3.8733,-0.2506,-0.2070,1742.43,-828.67,1577.82
5340,-3.8733,-0.2257,-0.2766,-70.07,1515.08,968.32
5350,-3.8733,-0.1973,-0.3257,-882.57,608.89,-1797.42
5360,-3.8733,-0.1718,-0.3533,-1241.94,-1672.30,-1250.67
5370,-3.8734,-0.1666,-0.3712,-1976.32,-1203.49,-844.48
5380,-3.8737,-0.1876,-0.3788,-1320.07,499.63,-625.73
5390,-3.8739,-0.2186,-0.3701,-7.57,-469.18,-1469.54
5400,-3.8741,-0.2400,-0.3586,23.68,640.20,-188.23
5410,-3.8743,-0.2424,-0.3584,1289.31,-1891.11,-406.98
5420,-3.8743,-0.2294,-0.3790,976.81,-1859.86,171.14
5430,-3.8744,-0.2073,-0.4222,-1351.32,-500.49,530.46
5440,-3.8745,-0.1780,-0.4724,1476.81,1968.32,1655.40
5450,-3.8745,-0.1422,-0.5168,1226.81,-453.49,655.27
5460,-3.8745,-0.1069,-0.5519,1804.93,1859.07,873.96
5470,-3.8745,-0.0801,-0.5743,-1679.44,1374.76,1061.40
5480,-3.8745,-0.0590,-0.5773,1758.06,-1500.18,-1907.41
5490,-3.8744,-0.0374,-0.5551,461.18,-1875.12,-1907.41
5500,-3.8741,-0.0221,-0.5095,-773.19,968.63,1686.40
5510,-3.8740,-0.0312,-0.4597,1179.93,-1203.19,-251.04
5520,-3.8739,-0.0549,-0.4161,8.06,1171.81,764.71
5530,-3.8739,-0.0668,-0.3804,976.81,-1250.12,1530.40
5540,-3.8738,-0.0609,-0.3649,-538.82,-672.06,202.33
5550,-3.8737,-0.0353,-0.3712,211.18,1312.38,264.89
5560,-3.8735,0.0166,-0.3824,-507.57,499.88,-1422.61
5570,-3.8733,0.0885,-0.3801,-1866.94,-953.12,-1875.79
5580,-3.8730,0.1614,-0.3494,-663.82,-656.13,-1094.54
5590,-3.8727,0.2242,-0.2922,664.31,-718.44,1686.77
5600,-3.8724,0.2778,-0.2174,711.18,-1405.82,-1469.36
5610,-3.8723,0.3224,-0.1123,-429.44,172.36,-1437.93
5620,-3.8722,0.3545,0.0212,1273.68,1625.61,1952.88
5630,-3.8721,0.3777,0.1195,1383.06,-1280.58,1796.88
5640,-3.8719,0.4301,0.1263,351.81,-702.39,-1984.19
5650,-3.8717,0.5488,0.0645,-945.07,172.67,-1062.26
5660,-3.8713,0.7159,-0.0077,-1741.94,251.04,-1234.25
5670,-3.8711,0.8743,-0.0422,-351.32,-983.03,-500.06
5680,-3.8708,0.9784,-0.0212,-85.69,-1404.60,1109.25
5690,-3.8707,1.0197,0.0342,1242.43,1283.14,812.44
5700,-3.8707,1.0181,0.0970,-1476.32,376.95,890.69
5710,-3.8708,1.0007,0.1538,-1679.44,423.83,-1421.69
5720,-3.8708,0.9705,0.2126,101.81,-310.55,922.12
5730,-3.8708,0.9254,0.3098,226.81,-779.36,-1984.01
5740,-3.8707,0.8717,0.4265,-1538.82,-341.98,1969.30
5750,-3.8706,0.8168,0.4993,-413.82,-1404.60,-1561.71
5760,-3.8704,0.7686,0.5145,554.93,-92.16,1375.92
5770,-3.8700,0.7449,0.5103,-1616.94,1860.84,-1124.02
5780,-3.8695,0.7703,0.5187,-648.19,1313.90,-1061.52
5790,-3.8691,0.8463,0.5247,-1398.19,-1607.91,1954.10
5800,-3.8689,0.9495,0.5140,336.18,-842.10,141.60
5810,-3.8688,1.0433,0.5137,1539.31,1798.71,297.85
5820,-3.8688,1.1058,0.5315,1554.93,1752.01,1016.60
5830,-3.8688,1.1483,0.5869,1554.93,33.39,126.04
5840,-3.8689,1.1597,0.7234,-1007.57,-872.80,469.85
5850,-3.8693,1.1134,0.9160,445.56,596.01,751.40
5860,-3.8698,1.0532,1.0902,-1476.32,1252.14,126.77
5870,-3.8702,1.0369,1.1969,-1179.44,-451.11,-310.42
5880,-3.8704,1.0305,1.2333,726.81,1205.14,-357.06
5890,-3.8702,0.9424,1.2502,-85.69,1861.33,1814.88
5900,-3.8700,0.7643,1.2832,633.06,33.08,1596.19
5910,-3.8696,0.5739,1.2981,1836.18,251.46,658.75
5920,-3.8695,0.4210,1.2645,1461.18,-1842.65,-169.37
5930,-3.8695,0.3087,1.1837,1898.68,1860.17,-497.56
5940,-3.8696,0.2260,1.0620,-476.32,-483.83,-669.62
5950,-3.8698,0.1555,0.9166,929.93,-62.07,-1060.49
5960,-3.8699,0.0895,0.7966,-85.69,1328.37,-1201.35
5970,-3.8700,0.0336,0.7473,-538.82,1968.87,501.53
5980,-3.8704,-0.0084,0.7543,304.93,-343.69,-717.35
5990,-3.8706,-0.0289,0.7653,-1070.07,562.44,-967.29
6000,-3.8707,-0.0282,0.7424,304.93,1968.69,1251.46
6010,-3.8710,-0.0216,0.6652,398.68,-953.19,-170.47
6020,-3.8711,-0.0317,0.5339,1242.43,1156.19,782.53
6030,-3.8715,-0.0681,0.3800,-54.44,359.25,-467.71
6040,-3.8718,-0.1252,0.2454,-710.69,656.07,-311.77
6050,-3.8722,-0.1931,0.1509,-23.19,-578.43,-1312.07
6060,-3.8724,-0.2552,0.0850,-710.69,-672.30,312.74
6070,-3.8727,-0.3033,0.0304,-663.82,-1109.92,-1718.63
6080,-3.8728,-0.3398,-0.0175,1179.93,-94.36,-1406.25
6090,-3.8729,-0.3656,-0.0648,508.06,1780.58,-328.19
6100,-3.8729,-0.3778,-0.1134,1211.18,-281.98,1437.32
6110,-3.8730,-0.3912,-0.1570,-351.32,1499.21,-1500.24
6120,-3.8732,-0.4104,-0.1969,1929.93,-78.92,1343.38
6130,-3.8734,-0.4242,-0.2424,-523.19,-1188.35,-1500.43
6140,-3.8737,-0.4257,-0.3000,1711.18,983.52,-31.74
6150,-3.8738,-0.4067,-0.3571,1523.68,1608.52,-500.61
6160,-3.8738,-0.3770,-0.3998,-54.44,-1688.35,1186.77
6170,-3.8738,-0.3464,-0.4293,-241.94,842.96,30.46
6180,-3.8739,-0.3168,-0.4447,-335.69,1061.77,1952.27
6190,-3.8740,-0.2965,-0.4436,-538.82,-906.92,-1922.79
6200,-3.8741,-0.2909,-0.4290,-1945.07,-766.24,-1657.17
6210,-3.8741,-0.2952,-0.4092,-1226.32,1108.76,171.02
6220,-3.8743,-0.2930,-0.3851,-1773.19,-359.99,-1188.35
6230,-3.8743,-0.2743,-0.3589,-1491.94,-1281.86,-1953.92
6240,-3.8743,-0.2345,-0.3422,898.68,-1922.42,-1656.98
6250,-3.8743,-0.1707,-0.3400,1992.43,218.26,-750.67
6260,-3.8741,-0.0935,-0.3490,-1835.69,499.63,93.08
6270,-3.8741,-0.0186,-0.3600,39.31,-656.43,421.14
6280,-3.8741,0.0470,-0.3583,1633.06,1937.44,-1469.48
6290,-3.8739,0.1027,-0.3348,-1976.32,-1859.31,1561.77
6300,-3.8737,0.1300,-0.3052,1148.68,1140.81,671.20
6310,-3.8735,0.1251,-0.2847,648.68,937.74,1452.51
6320,-3.8733,0.1289,-0.2598,23.68,-437.26,1671.26
6330,-3.8730,0.1780,-0.2369,508.06,-1249.76,-922.42
6340,-3.8729,0.2595,-0.2557,-1210.69,1672.18,-609.86
6350,-3.8728,0.3538,-0.3134,1226.81,-733.89,1749.45
6360,-3.8726,0.4547,-0.3668,1289.31,-108.70,1764.95
6370,-3.8722,0.5505,-0.3831,-1788.82,1047.73,-813.23
6380,-3.8718,0.6267,-0.3416,-1523.19,-1030.21,-282.04
6390,-3.8716,0.6688,-0.2375,226.81,282.47,530.58
6400,-3.8718,0.6809,-0.1025,1617.43,1595.03,-781.74
6410,-3.8721,0.6749,0.0098,-835.69,-1123.72,-578.37
6420,-3.8721,0.6467,0.0857,-1601.32,1251.28,-1406.25
6430,-3.8717,0.6062,0.1516,-1210.69,-1030.03,281.37
6440,-3.8713,0.5861,0.1903,1601.81,-592.59,-577.88
6450,-3.8708,0.6173,0.1735,-976.32,360.47,-890.26
6460,-3.8704,0.7017,0.1278,-976.32,-1795.72,1828.43
6470,-3.8701,0.7953,0.0996,1820.56,360.72,-437.26
6480,-3.8700,0.8538,0.1075,1804.93,751.53,1234.56
6490,-3.8702,0.8684,0.1373,1289.31,1767.27,-499.82
6500,-3.8705,0.8528,0.1741,-835.69,1579.77,-1593.51
6510,-3.8707,0.8160,0.2104,1164.31,-1717.10,1484.68
6520,-3.8710,0.7659,0.2528,461.18,-1060.91,-1249.63
6530,-3.8711,0.7214,0.3185,-1960.69,360.84,-1593.26
6540,-3.8712,0.7095,0.3905,351.81,767.03,-93.14
6550,-3.8711,0.7595,0.4528,-1179.44,1985.72,-702.39
6560,-3.8707,0.8635,0.5387,1226.81,1954.59,-671.02
6570,-3.8702,0.9771,0.6860,-1460.69,954.77,-327.09
6580,-3.8698,1.0499,0.8842,1070.56,-185.61,1782.53
6590,-3.8695,1.0558,1.0892,-1601.32,1173.89,642.33
6600,-3.8695,1.0111,1.2538,-851.32,-576.11,1564.58
6610,-3.8695,0.9584,1.3438,1429.93,486.33,-794.43
6620,-3.8693,0.9368,1.3834,-1320.07,1.83,143.25
6630,-3.8691,0.9303,1.4093,-85.69,1079.90,-528.56
6640,-3.8689,0.8657,1.4127,-913.82,392.40,-1341.00
6650,-3.8688,0.7056,1.3982,-1179.44,829.77,-544.13
6660,-3.8687,0.5050,1.3932,-1679.44,-1029.91,-1544.19
6670,-3.8687,0.3268,1.3818,648.68,-1670.90,-1919.19
6680,-3.8688,0.1927,1.3247,1836.18,875.61,-1512.94
6690,-3.8689,0.0988,1.2030,679.93,1562.87,1393.19
6700,-3.8691,0.0303,1.0277,648.68,1984.56,-1232.06
6710,-3.8694,-0.0187,0.8370,-116.94,-453.12,-1310.55
6720,-3.8696,-0.0582,0.6821,1617.43,-843.81,767.21
6730,-3.8700,-0.0990,0.6014,554.93,-672.00,-1983.09
6740,-3.8702,-0.1455,0.5752,-663.82,999.76,16.78
6750,-3.8706,-0.1912,0.5460,1383.06,1640.32,-170.78
6760,-3.8707,-0.2161,0.4756,-460.69,1905.82,266.66
6770,-3.8711,-0.2157,0.3673,351.81,890.20,-1499.08
6780,-3.8715,-0.2053,0.2595,398.68,-969.18,-1624.33
6790,-3.8718,-0.2059,0.1782,1726.81,1233.95,1297.36
6800,-3.8722,-0.2324,0.1154,1648.68,-1172.30,1140.93
6810,-3.8726,-0.2823,0.0580,-1741.94,-1219.24,-140.44
6820,-3.8727,-0.3402,0.0073,-132.57,-563.11,-1437.44
6830,-3.8728,-0.3960,-0.0381,461.18,952.45,-343.75
6840,-3.8728,-0.4424,-0.0914,1320.56,-860.17,624.88
6850,-3.8729,-0.4677,-0.1561,-616.94,311.58,1343.57
6860,-3.8730,-0.4713,-0.2225,148.68,30.33,1265.32
6870,-3.8733,-0.4639,-0.2842,-320.07,-469.73,-437.99
6880,-3.8734,-0.4465,-0.3335,633.06,-360.29,1890.01
6890,-3.8735,-0.4154,-0.3668,-1148.19,1327.21,1718.08
6900,-3.8737,-0.3794,-0.3901,-1163.82,1061.65,-1360.11
6910,-3.8737,-0.3513,-0.3989,-554.44,-1922.67,671.08
6920,-3.8738,-0.3387,-0.3931,-960.69,952.39,-891.42
6930,-3.8738,-0.3491,-0.3876,648.68,1702.45,1202.33
6940,-3.8738,-0.3750,-0.3729,-679.44,-1594.48,1967.96
6950,-3.8737,-0.3944,-0.3381,8.06,280.52,-703.86
6960,-3.8734,-0.3939,-0.3071,1523.68,733.58,30.58
6970,-3.8735,-0.3645,-0.3036,1586.18,702.33,-281.86
6980,-3.8737,-0.3059,-0.3285,1351.81,1155.52,-0.61
6990,-3.8737,-0.2316,-0.3658,851.81,1968.14,483.70
7000,-3.8738,-0.1555,-0.4021,-1632.57,1187.01,-985.11
7010,-3.8738,-0.0848,-0.4314,101.81,546.57,-453.92
7020,-3.8738,-0.0237,-0.4481,1148.68,796.69,-297.73
7030,-3.8738,0.0227,-0.4476,976.81,-1343.81,1186.58
7040,-3.8739,0.0521,-0.4305,-1085.69,-1296.88,1452.21
7050,-3.8740,0.0658,-0.4027,-1320.07,890.69,-1485.23
7060,-3.8740,0.0708,-0.3676,429.93,453.25,-1938.29
7070,-3.8739,0.0787,-0.3259,1070.56,953.25,1405.52
7080,-3.8738,0.0984,-0.2853,-1913.82,-1718.63,-1766.30
7090,-3.8737,0.1320,-0.2539,601.81,-515.44,-1859.99
7100,-3.8735,0.1857,-0.2340,898.68,-499.76,-1406.80
7110,-3.8733,0.2664,-0.2208,-226.32,-1952.82,218.26
7120,-3.8733,0.3762,-0.2023,-1898.19,-265.14,-141.11
7130,-3.8732,0.5242,-0.1951,164.31,-1889.89,-719.18
7140,-3.8729,0.6844,-0.2269,-898.19,-967.77,1515.20
7150,-3.8727,0.7970,-0.2643,-382.57,-1045.59,1327.64
7160,-3.8724,0.8398,-0.2444,-1976.32,-1826.60,-1453.67
7170,-3.8722,0.8319,-0.1538,-491.94,720.34,874.51
7180,-3.8722,0.8090,-0.0289,-1507.57,314.09,-1937.81
7190,-3.8722,0.8063,0.0884,-445.07,298.40,-406.31
7200,-3.8719,0.8210,0.1688,-788.82,-685.97,62.62
7210,-3.8718,0.8328,0.1930,1101.81,1610.96,-1280.94
7220,-3.8716,0.8450,0.1816,-1398.19,704.71,-1452.76
7230,-3.8713,0.8595,0.1863,164.31,-748.35,-1968.44
7240,-3.8711,0.8693,0.2202,-1976.32,-154.60,562.81
7250,-3.8710,0.8843,0.2661,-726.32,189.15,-374.57
7260,-3.8706,0.9105,0.3130,1195.56,-1935.79,656.74
7270,-3.8704,0.9434,0.3569,554.93,64.27,1078.74
7280,-3.8702,0.9884,0.3868,758.06,1689.33,-1921.20
7290,-3.8701,1.0480,0.4014,-1476.32,1517.52,-1858.64
7300,-3.8700,1.0997,0.4435,-1851.32,-622.99,-327.39
7310,-3.8698,1.1259,0.5564,773.68,767.76,1735.23
7320,-3.8695,1.1266,0.6910,117.43,-779.05,719.79
7330,-3.8693,1.1069,0.7767,211.18,455.32,-623.66
7340,-3.8688,1.0587,0.8226,1695.56,-575.99,407.71
7350,-3.8685,0.9719,0.8553,-476.32,1298.89,-1545.29
7360,-3.8684,0.8813,0.8945,414.31,1486.27,-529.60
7370,-3.8683,0.8163,0.9467,820.56,-1498.29,329.83
7380,-3.8684,0.7583,0.9945,492.43,1173.46,-279.42
7390,-3.8684,0.6827,1.0200,1070.56,-701.66,-1482.48
7400,-3.8684,0.5822,1.0229,-601.32,-1436.22,1986.33
7410,-3.8684,0.4504,1.0171,-1476.32,-1061.40,-607.42
7420,-3.8683,0.2841,0.9929,1664.31,-1811.65,814.45
7430,-3.8683,0.1166,0.9222,367.43,-905.70,1501.89
7440,-3.8683,0.0049,0.8053,-1070.07,-1952.94,1470.52
7450,-3.8683,-0.0381,0.6798,633.06,-921.88,579.65
7460,-3.8684,-0.0520,0.5778,-866.94,-968.87,1845.03
7470,-3.8687,-0.0713,0.5024,1351.81,1968.63,-123.90
7480,-3.8689,-0.0963,0.4431,-1116.94,327.94,-452.15
7490,-3.8691,-0.1243,0.4037,-320.07,734.13,1469.60
7500,-3.8695,-0.1646,0.3860,101.81,-312.74,1125.73
7510,-3.8700,-0.2126,0.3602,-1054.44,1421.51,-905.52
7520,-3.8704,-0.2531,0.2974,789.31,-1875.43,1375.67
7530,-3.8707,-0.2791,0.2101,-382.57,-1922.42,1672.42
7540,-3.8710,-0.2931,0.1261,289.31,-1094.30,453.49
7550,-3.8712,-0.3096,0.0573,-1507.57,155.64,1250.24
7560,-3.8715,-0.3313,0.0103,383.06,-656.86,-781.19
7570,-3.8716,-0.3480,-0.0178,1601.81,1327.45,1640.62
7580,-3.8718,-0.3628,-0.0388,-538.82,1733.64,-140.69
7590,-3.8719,-0.3743,-0.0531,1570.56,-953.86,890.50
7600,-3.8722,-0.3812,-0.0664,101.81,1218.02,296.75
7610,-3.8726,-0.3838,-0.0944,-788.82,-485.17,-297.06
7620,-3.8727,-0.3738,-0.1392,-1116.94,-63.29,1062.26
7630,-3.8728,-0.3472,-0.1862,164.31,-1797.61,890.32
7640,-3.8729,-0.3120,-0.2250,-429.44,186.77,-1969.12
7650,-3.8730,-0.2791,-0.2603,70.56,-781.86,-1703.61
7660,-3.8732,-0.2463,-0.2933,289.31,-1297.42,858.83
7670,-3.8734,-0.2131,-0.3129,476.81,-1531.74,-781.86
7680,-3.8735,-0.1899,-0.3134,726.81,-31.68,-844.42
7690,-3.8735,-0.1848,-0.3025,-304.44,-94.18,186.83
7700,-3.8737,-0.1914,-0.2899,351.81,1296.51,811.89
7710,-3.8738,-0.1985,-0.2803,-491.94,-1094.18,483.76
7720,-3.8740,-0.2019,-0.2711,-1398.19,140.20,-406.80
7730,-3.8741,-0.2026,-0.2623,-1835.69,1312.07,-672.42
7740,-3.8741,-0.1937,-0.2593,-1929.44,-1562.93,343.20
7750,-3.8743,-0.1616,-0.2689,-788.82,-1172.30,1093.20
7760,-3.8744,-0.1017,-0.2896,-679.44,1593.38,1468.20
7770,-3.8745,-0.0151,-0.3071,-1007.57,-1047.12,-609.99
7780,-3.8745,0.0861,-0.3074,-1929.44,703.06,-1750.61
7790,-3.8745,0.1836,-0.2897,-976.32,656.37,827.51
7800,-3.8746,0.2687,-0.2683,-491.94,-1077.82,-391.24
7810,-3.8746,0.3378,-0.2621,-1601.32,1656.74,-1797.42
7820,-3.8746,0.3816,-0.2753,-757.57,-1546.26,-1984.92
7830,-3.8745,0.4083,-0.2917,851.81,766.36,-1219.30
7840,-3.8743,0.4370,-0.2980,273.68,-1342.96,-78.74
7850,-3.8739,0.4694,-0.2905,-54.44,1860.17,686.89
7860,-3.8738,0.5100,-0.2605,86.18,-1186.58,-250.61
7870,-3.8735,0.5546,-0.2073,1289.31,-1342.77,-1156.80
7880,-3.8733,0.5811,-0.1426,-1007.57,1469.79,1765.20
7890,-3.8730,0.5975,-0.0760,-1616.94,1751.10,1640.32
7900,-3.8728,0.6361,-0.0284,492.43,-1733.22,-312.68
7910,-3.8724,0.6958,-0.0199,1429.93,360.60,-46.94
7920,-3.8719,0.7616,-0.0325,1070.56,1454.47,-93.81
7930,-3.8713,0.8363,-0.0306,1492.43,-154.79,1687.38
7940,-3.8708,0.9130,-0.0123,-945.07,79.71,1015.56
7950,-3.8705,0.9720,0.0031,867.43,-1576.35,1343.69
7960,-3.8701,1.0045,0.0197,429.93,392.52,515.62
7970,-3.8699,1.0132,0.0741,586.18,-1482.42,1890.62
7980,-3.8696,0.9971,0.1664,1695.56,1486.33,515.75
7990,-3.8695,0.9567,0.2393,-366.94,1298.77,-827.82
8000,-3.8693,0.9221,0.2410,-1538.82,-1373.17,-77.70
8010,-3.8689,0.9172,0.1741,-1960.69,-1154.48,-1046.45
8020,-3.8685,0.9171,0.1062,1414.31,-1716.98,1703.43
8030,-3.8684,0.8882,0.0940,1398.68,1595.52,1937.68
8040,-3.8685,0.8311,0.1205,1695.56,32.96,1828.31
8050,-3.8688,0.7654,0.1565,-1616.94,-576.54,-656.07
8060,-3.8689,0.6888,0.2094,1976.81,32.71,-984.07
8070,-3.8689,0.5946,0.2874,179.93,-1201.78,953.49
8080,-3.8689,0.5009,0.3638,117.43,782.41,1516.17
8090,-3.8688,0.4248,0.4171,117.43,-1436.52,-983.70
8100,-3.8684,0.3672,0.4542,-1616.94,1391.42,1844.54
8110,-3.8680,0.3129,0.4855,-991.94,-1858.70,1453.98
8120,-3.8679,0.2406,0.5250,54.93,-1858.76,-61.58
8130,-3.8679,0.1390,0.5587,-1195.07,-796.45,-874.02
8140,-3.8680,0.0281,0.5548,1804.93,-484.13,-764.59
8150,-3.8680,-0.0712,0.5176,-398.19,-984.38,829.16
8160,-3.8680,-0.1595,0.4780,-1101.32,-1734.56,79.10
8170,-3.8682,-0.2346,0.4541,-413.82,1202.76,-1920.96
8180,-3.8684,-0.3009,0.4375,1976.81,-1859.86,-249.15
8190,-3.8687,-0.3663,0.4149,1492.43,15.01,1438.35
8200,-3.8690,-0.4331,0.3811,1117.43,1124.27,1485.17
8210,-3.8694,-0.4976,0.3385,570.56,796.02,-1483.64
8220,-3.8696,-0.5577,0.3115,320.56,-657.23,-1827.51
8230,-3.8699,-0.6218,0.3085,617.43,-110.47,-1280.70
8240,-3.8701,-0.6678,0.3000,414.31,-501.22,-1952.58
8250,-3.8704,-0.6746,0.2606,-1476.32,-1579.47,547.42
8260,-3.8707,-0.6414,0.1974,1664.31,1373.66,-640.14
8270,-3.8710,-0.5980,0.1331,1914.31,1279.97,-1015.26
8280,-3.8712,-0.5695,0.0859,-538.82,1045.65,-93.51
8290,-3.8713,-0.5500,0.0573,-882.57,-985.53,1812.62
8300,-3.8716,-0.5408,0.0332,1601.81,-657.35,-203.06
8310,-3.8717,-0.5430,0.0076,-1210.69,264.53,1781.31
8320,-3.8719,-0.5518,-0.0139,-1491.94,983.28,-109.38
8330,-3.8721,-0.5599,-0.0262,1383.06,-1766.72,1437.44
8340,-3.8723,-0.5695,-0.0382,336.18,655.15,1499.94
8350,-3.8726,-0.5793,-0.0608,-882.57,-876.16,343.63
8360,-3.8729,-0.5864,-0.0959,1851.81,233.22,-265.75
8370,-3.8730,-0.5874,-0.1372,945.56,-266.78,1234.13
8380,-3.8732,-0.5852,-0.1726,820.56,-1548.03,812.19
8390,-3.8733,-0.5765,-0.1971,1101.81,1920.72,1796.51
8400,-3.8734,-0.5555,-0.2144,-1788.82,-1219.91,-1141.05
8410,-3.8735,-0.5176,-0.2295,898.68,577.03,-609.80
8420,-3.8737,-0.4661,-0.2455,1758.06,-1360.41,-172.36
8430,-3.8737,-0.4095,-0.2566,351.81,592.83,452.64
8440,-3.8738,-0.3580,-0.2552,-413.82,-828.98,1343.20
8450,-3.8739,-0.3177,-0.2467,-1820.07,-656.98,1905.70
8460,-3.8740,-0.2859,-0.2452,-663.82,436.83,1874.51
8470,-3.8741,-0.2594,-0.2562,-585.69,624.39,-1859.86
8480,-3.8743,-0.2345,-0.2743,-1195.07,-781.80,-1016.17
8490,-3.8744,-0.2102,-0.2887,1992.43,905.76,-656.80
8500,-3.8745,-0.1846,-0.2913,1101.81,-937.93,-1734.99
8510,-3.8746,-0.1539,-0.2799,383.06,-1265.99,421.26
8520,-3.8749,-0.1174,-0.2621,304.93,187.19,-1328.67
8530,-3.8750,-0.0798,-0.2529,976.81,-1531.49,999.45
8540,-3.8439,-0.0376,-0.2618,1789.31,-359.56,546.33
8550,-3.8440,0.0167,-0.2803,-804.44,-1500.12,-391.17
8560,-3.8439,0.0775,-0.2841,-1851.32,125.00,-1281.80
8570,-3.8750,0.1263,-0.2566,1929.93,-359.25,-141.24
8580,-3.8748,0.1512,-0.2067,179.93,-843.51,1186.95
8590,-3.8746,0.1561,-0.1655,-632.57,1547.12,-1594.18
8600,-3.8744,0.1611,-0.1462,-7.57,-1187.26,-1734.74
8610,-3.8739,0.1722,-0.1190,633.06,1281.56,374.69
8620,-3.8734,0.1843,-0.0449,-1945.07,765.93,-890.87
8630,-3.8728,0.2183,0.0629,-398.19,-1749.69,1671.75
8640,-3.8723,0.2861,0.1492,-54.44,47.24,1375.12
8650,-3.8719,0.3770,0.1697,633.06,-905.70,-968.51
8660,-3.8715,0.4720,0.1222,258.06,1719.48,1297.18
8670,-3.8710,0.5623,0.0653,429.93,-358.46,-1859.19
8680,-3.8705,0.6416,0.0535,-23.19,360.41,-1640.50
8690,-3.8701,0.6938,0.0936,-1866.94,-1155.03,-1796.81
8700,-3.8699,0.7230,0.1870,820.56,-14.28,-343.63
8710,-3.8696,0.7290,0.2749,554.93,-61.10,-109.07
8720,-3.8693,0.7108,0.2885,1320.56,-811.10,641.11
8730,-3.8689,0.6847,0.2484,-1007.57,923.22,750.55
8740,-3.8685,0.6418,0.2070,-351.32,-201.84,-1140.20
8750,-3.8682,0.5734,0.1997,-1835.69,-1498.78,-1077.76
8760,-3.8679,0.4967,0.2284,1398.68,1563.60,-1905.88
8770,-3.8678,0.4261,0.2568,-413.82,1235.29,937.93
8780,-3.8678,0.3767,0.2471,-1445.07,875.79,-1671.39
8790,-3.8678,0.3611,0.2056,226.81,-374.27,-593.32
8800,-3.8678,0.3611,0.1639,-1773.19,-1686.83,-1562.13
8810,-3.8679,0.3488,0.1409,-1773.19,985.05,-1640.32
8820,-3.8680,0.3059,0.1371,648.68,-1968.08,250.24
8830,-3.8683,0.2313,0.1456,-835.69,1547.42,1953.37
8840,-3.8684,0.1455,0.1676,1617.43,-1358.95,297.12
8850,-3.8687,0.0642,0.2046,-1366.94,1453.37,-1187.19
8860,-3.8688,-0.0133,0.2417,226.81,-1812.38,1687.87
8870,-3.8689,-0.0903,0.2645,-1695.07,-1046.94,-1093.32
8880,-3.8689,-0.1644,0.2843,445.56,1874.82,-358.89
8890,-3.8688,-0.2324,0.3104,-1038.82,405.88,-1421.33
8900,-3.8687,-0.2935,0.3384,-1741.94,-250.49,1078.67
8910,-3.8687,-0.3503,0.3585,-1554.44,-672.49,1438.11
8920,-3.8687,-0.4116,0.3625,-835.69,1905.52,360.05
8930,-3.8688,-0.4836,0.3595,-679.44,-1578.98,-1577.45
8940,-3.8689,-0.5587,0.3616,-1898.19,-1969.73,-249.33
8950,-3.8689,-0.6117,0.3663,492.43,-1704.22,844.42
8960,-3.8690,-0.6399,0.3634,1711.18,-1094.97,1500.67
8970,-3.8691,-0.6637,0.3544,-1898.19,-1470.03,531.92
8980,-3.8694,-0.6853,0.3453,-945.07,1373.66,1547.55
8990,-3.8696,-0.7113,0.3356,289.31,217.41,-1624.33
9000,-3.8698,-0.7306,0.3210,961.18,-1032.65,688.11
9010,-3.8700,-0.7345,0.2949,-1507.57,1107.91,-265.01
9020,-3.8701,-0.7294,0.2539,1992.43,1764.16,1688.05
9030,-3.8704,-0.7162,0.2051,-1351.32,514.16,1203.61
9040,-3.8707,-0.6918,0.1615,336.18,-1735.78,-1437.13
9050,-3.8711,-0.6581,0.1289,-538.82,686.10,-952.82
9060,-3.8715,-0.6302,0.1051,-226.32,514.28,-93.51
9070,-3.8717,-0.6069,0.0842,-663.82,1467.47,-1687.32
9080,-3.8719,-0.5837,0.0602,-1679.44,-1204.35,-1859.25
9090,-3.8722,-0.5656,0.0363,1289.31,-282.41,-1968.69
9100,-3.8724,-0.5604,0.0149,-382.57,655.09,1468.81
9110,-3.8727,-0.5574,-0.0122,273.68,1920.78,1078.12
9120,-3.8729,-0.5499,-0.0509,664.31,-1547.97,874.94
9130,-3.8732,-0.5365,-0.0969,1617.43,1498.90,1093.63
9140,-3.8734,-0.5138,-0.1443,-663.82,-391.72,-1922.12
9150,-3.8737,-0.4860,-0.1875,-1757.57,1545.84,-672.18
9160,-3.8738,-0.4586,-0.2168,1804.93,14.65,1437.13
9170,-3.8739,-0.4357,-0.2240,1304.93,264.71,1062.07
9180,-3.8740,-0.4149,-0.2122,242.43,-657.10,1421.39
9190,-3.8741,-0.3884,-0.1971,-1101.32,858.52,-1516.05
9200,-3.8741,-0.3478,-0.1926,-1710.69,-1219.54,1030.82
9210,-3.8741,-0.2980,-0.1970,-507.57,-641.36,983.95
9220,-3.8741,-0.2490,-0.2063,1867.43,-1203.74,968.32
9230,-3.8743,-0.2067,-0.2233,133.06,1608.89,-297.30
9240,-3.8743,-0.1666,-0.2446,1554.93,-562.93,-1625.49
9250,-3.8743,-0.1266,-0.2610,-1320.07,702.76,-1422.36
9260,-3.8743,-0.0868,-0.2700,-195.07,-1390.93,-719.30
9270,-3.8743,-0.0446,-0.2786,898.68,1452.94,-1156.80
9280,-3.8743,-0.0002,-0.2924,-1695.07,359.25,1718.20
9290,-3.8743,0.0393,-0.3082,-23.19,-1406.31,1186.89
9300,-3.8743,0.0697,-0.3202,1039.31,546.94,1702.51
9310,-3.8743,0.0956,-0.3251,929.93,-984.25,-719.42
9320,-3.8741,0.1161,-0.3236,242.43,-1609.19,1655.58
9330,-3.8740,0.1278,-0.3157,-1132.57,-1421.69,202.45
9340,-3.8740,0.1317,-0.3010,367.43,-406.01,-985.05
9350,-3.8739,0.1355,-0.2906,867.43,1468.99,-1422.49
9360,-3.8737,0.1482,-0.2848,1351.81,-1202.88,374.39
9370,-3.8734,0.1624,-0.2705,-1023.19,-452.88,702.51
9380,-3.8732,0.1736,-0.2480,789.31,1375.31,999.45
9390,-3.8730,0.1898,-0.2323,-1773.19,250.31,-812.99
9400,-3.8728,0.2185,-0.2385,304.93,-1734.01,1202.64
9410,-3.8726,0.2600,-0.2620,-23.19,1469.12,-797.36
9420,-3.8721,0.3052,-0.2614,1289.31,-1530.76,311.95
9430,-3.8718,0.3403,-0.2007,-929.44,-1452.58,-813.05
9440,-3.8716,0.3650,-0.1146,-429.44,-1686.89,1077.70
9450,-3.8716,0.3916,-0.0725,-1273.19,1328.80,-437.74
9460,-3.8715,0.4205,-0.0874,-1866.94,-1280.52,-1828.31
9470,-3.8713,0.4407,-0.1183,1836.18,813.29,-93.93
9480,-3.8710,0.4452,-0.1385,414.31,860.23,781.01
9490,-3.8706,0.4490,-0.1332,992.43,-1733.52,140.32
9500,-3.8702,0.4648,-0.0830,1476.81,-1046.02,296.57
9510,-3.8700,0.4789,-0.0166,-491.94,1375.85,-1562.68
9520,-3.8698,0.4814,0.0076,1304.93,1875.92,-1593.81
9530,-3.8695,0.4766,-0.0223,1633.06,969.67,1843.75
9540,-3.8693,0.4694,-0.0688,1008.06,1141.54,-1703.19
9550,-3.8690,0.4651,-0.0929,86.18,-811.58,-437.68
9560,-3.8688,0.4633,-0.0858,-460.69,110.23,-1047.06
9570,-3.8687,0.4645,-0.0627,-695.07,1016.48,-922.06
9580,-3.8685,0.4694,-0.0458,-538.82,-30.40,1890.44
9590,-3.8684,0.4653,-0.0393,86.18,-1858.46,1437.38
9600,-3.8683,0.4396,-0.0314,-429.44,-1030.40,1249.88
9610,-3.8682,0.3977,-0.0140,273.68,-14.77,78.00
9620,-3.8682,0.3495,0.0079,-1085.69,-1796.14,1484.31
9630,-3.8682,0.2982,0.0282,742.43,1016.30,1593.75
9640,-3.8682,0.2452,0.0458,-1820.07,-390.08,281.25
9650,-3.8683,0.1833,0.0541,-601.32,1859.80,937.56
9660,-3.8684,0.1083,0.0425,-523.19,-1077.82,421.94
9670,-3.8685,0.0367,0.0227,1867.43,1437.68,1265.69
9680,-3.8685,-0.0212,0.0267,711.18,-1093.69,78.12
9690,-3.8687,-0.0796,0.0653,1289.31,-562.56,-1781.25
9700,-3.8688,-0.1414,0.1104,1820.56,374.82,-1671.75
9710,-3.8689,-0.1980,0.1390,1914.31,-1859.68,1375.18
9720,-3.8690,-0.2557,0.1597,-1335.69,1812.07,406.49
9730,-3.8691,-0.3220,0.1796,-726.32,452.58,312.81
9740,-3.8693,-0.3857,0.1931,-1210.69,-1000.67,1469.06
9750,-3.8694,-0.4407,0.1997,-1366.94,733.58,-155.88
9760,-3.8694,-0.5040,0.2137,-398.19,1577.21,-1921.51
9770,-3.8695,-0.5836,0.2383,-507.57,-626.04,-1437.13
9780,-3.8696,-0.6682,0.2528,1304.93,-1485.53,-1765.20
9790,-3.8698,-0.7302,0.2466,-1523.19,373.66,-1687.01
9800,-3.8699,-0.7677,0.2300,-1460.69,-423.34,-1108.95
9810,-3.8700,-0.8005,0.2150,1742.43,1451.60,-1468.32
9820,-3.8702,-0.8309,0.1960,1539.31,-470.34,-421.51
9830,-3.8704,-0.8467,0.1648,1648.68,1107.73,47.24
9840,-3.8706,-0.8507,0.1306,-366.94,1107.67,-1343.44
9850,-3.8707,-0.8513,0.1030,-882.57,732.67,-577.88
9860,-3.8707,-0.8394,0.0853,-960.69,1201.42,640.81
9870,-3.8708,-0.8195,0.0809,570.56,-1064.15,390.75
9880,-3.8711,-0.7997,0.0809,-882.57,-1626.65,1797.00
9890,-3.8713,-0.7845,0.0692,1648.68,-1626.59,1093.87
9900,-3.8717,-0.7649,0.0398,-413.82,873.41,-109.25
9910,-3.8719,-0.7310,0.0016,-1898.19,1107.85,-593.69
9920,-3.8722,-0.6796,-0.0381,-1554.44,217.29,-343.75
9930,-3.8723,-0.6200,-0.0774,1023.68,-860.72,484.25
9940,-3.8726,-0.5634,-0.1138,648.68,-1891.85,1656.07
9950,-3.8728,-0.5183,-0.1464,-101.32,1451.97,-922.12
9960,-3.8729,-0.4867,-0.1770,1664.31,1280.21,1062.19
9970,-3.8730,-0.4700,-0.2090,1711.18,1358.40,15.26
9980,-3.8733,-0.4709,-0.2389,-148.19,1264.65,-406.68
9990,-3.8734,-0.4827,-0.2577,-273.19,1436.52,-453.61
10000,-3.8735,-0.4967,-0.2635,-1773.19,-969.73,-141.17
10010,-3.8735,-0.5055,-0.2653,429.93,-1719.73,30.70
10020,-3.8738,-0.5023,-0.2716,-695.07,-1938.54,-78.67
10030,-3.8738,-0.4781,-0.2831,-288.82,1248.96,936.95
10040,-3.8739,-0.4365,-0.2964,-1195.07,-219.73,-688.11
10050,-3.8739,-0.3918,-0.3013,133.06,-1922.73,1843.14
10060,-3.8740,-0.3536,-0.2864,1851.81,1452.33,-563.11
10070,-3.8741,-0.3209,-0.2643,-1257.57,-641.36,-531.86
10080,-3.8743,-0.2852,-0.2594,-1070.07,-1813.17,-344.30
10090,-3.8743,-0.2384,-0.2776,-491.94,-1188.11,-1703.67
10100,-3.8743,-0.1847,-0.3047,1492.43,483.89,-766.17
10110,-3.8741,-0.1315,-0.3232,367.43,1015.26,1030.64
10120,-3.8741,-0.0819,-0.3220,-820.07,-1359.68,-1906.92
10130,-3.8741,-0.0405,-0.3002,1523.68,-1203.31,-1391.30
10140,-3.8741,-0.0082,-0.2717,-1179.44,1593.63,-625.61
10150,-3.8740,0.0239,-0.2531,-1038.82,1234.31,702.58
10160,-3.8740,0.0680,-0.2507,-929.44,-390.62,-266.17
10170,-3.8739,0.1219,-0.2603,711.18,-93.63,-156.80
10180,-3.8738,0.1742,-0.2690,-382.57,-1312.32,-516.17
10190,-3.8737,0.2208,-0.2655,-1695.07,1562.81,-1469.30
10200,-3.8735,0.2623,-0.2388,273.68,-1983.95,655.70
10210,-3.8735,0.2906,-0.1879,1586.18,1437.99,1687.01
10220,-3.8735,0.3090,-0.1332,1211.18,-46.33,-1656.68
10230,-3.8734,0.3326,-0.1003,-445.07,-1046.33,968.44
10240,-3.8732,0.3610,-0.0995,-1413.82,-843.14,437.26
10250,-3.8729,0.3976,-0.1167,-1788.82,-733.70,-453.37
10260,-3.8726,0.4243,-0.1215,-1101.32,1063.23,-515.87
10270,-3.8722,0.4279,-0.0938,-1679.44,453.92,-750.24
10280,-3.8718,0.4288,-0.0547,-1226.32,0.79,-906.43
10290,-3.8713,0.4548,-0.0347,-1101.32,1000.79,874.88
10300,-3.8708,0.5063,-0.0240,-1773.19,-436.65,499.88
10310,-3.8705,0.5588,0.0004,820.56,922.85,-1390.69
10320,-3.8702,0.6075,0.0387,-460.69,47.91,-1390.62
10330,-3.8701,0.6532,0.0786,1773.68,954.28,546.94
10340,-3.8701,0.6898,0.1094,-382.57,-1936.28,343.87
10350,-3.8701,0.7037,0.1167,304.93,-1998.66,422.06
10360,-3.8701,0.6858,0.0985,-1913.82,-1061.16,-1156.07
10370,-3.8699,0.6404,0.0732,-210.69,610.66,203.31
10380,-3.8698,0.5864,0.0466,1976.81,1376.22,-1281.13
10390,-3.8695,0.5485,0.0118,-929.44,1969.85,1031.31
10400,-3.8694,0.5366,-0.0154,-1788.82,1516.66,-578.12
10410,-3.8691,0.5337,-0.0052,695.56,-1967.71,1343.69
10420,-3.8690,0.5146,0.0522,320.56,-670.84,1859.31
10430,-3.8689,0.4752,0.1371,1883.06,-1311.52,-1828.06
10440,-3.8687,0.4335,0.2136,836.18,1547.79,1047.12
10450,-3.8684,0.4025,0.2584,-507.57,-655.46,-1030.88
10460,-3.8680,0.3745,0.2811,-476.32,1078.86,500.49
10470,-3.8679,0.3352,0.3047,-54.44,-14.95,1766.11
10480,-3.8679,0.2770,0.3322,-1085.69,-999.39,1563.05
10490,-3.8680,0.1984,0.3524,-538.82,-1483.89,1953.74
10500,-3.8682,0.1002,0.3702,1398.68,1109.74,-843.08
10510,-3.8682,-0.0140,0.3959,836.18,-609.19,-577.45
10520,-3.8680,-0.1355,0.4199,-1788.82,-1312.56,297.61
10530,-3.8682,-0.2523,0.4207,-1335.69,1765.32,-764.83
10540,-3.8682,-0.3536,0.4000,-288.82,1858.83,1266.42
10550,-3.8683,-0.4429,0.3868,-1257.57,-781.98,-1561.77
10560,-3.8684,-0.5323,0.3973,-679.44,1530.33,172.61
10570,-3.8688,-0.6171,0.4098,-132.57,-1126.10,-233.64
10580,-3.8689,-0.6781,0.3945,1023.68,467.53,-1546.08
10590,-3.8689,-0.6884,0.3569,1211.18,-1485.72,1250.73
10600,-3.8690,-0.6720,0.3149,-101.32,1701.72,-108.70
10610,-3.8691,-0.6661,0.2767,1992.43,326.78,-1765.01
10620,-3.8695,-0.6605,0.2466,-1257.57,-563.84,-827.64
10630,-3.8699,-0.6420,0.2153,-538.82,-423.22,1047.30
10640,-3.8704,-0.6157,0.1774,1836.18,-423.16,-1265.26
10650,-3.8707,-0.5924,0.1459,1195.56,-1282.47,-1796.57
10660,-3.8711,-0.5792,0.1273,179.93,-1313.66,-531.01
10670,-3.8713,-0.5736,0.1040,1867.43,311.34,1781.49
10680,-3.8716,-0.5662,0.0612,-1413.82,1326.97,1781.43
10690,-3.8718,-0.5494,0.0118,-460.69,-157.41,-109.31
10700,-3.8719,-0.5233,-0.0260,1679.93,1530.15,-828.12
10710,-3.8721,-0.4962,-0.0446,1023.68,686.46,-1937.56
10720,-3.8723,-0.4744,-0.0480,492.43,-1688.48,-531.37
10730,-3.8726,-0.4651,-0.0581,-710.69,1874.02,-687.62
10740,-3.8728,-0.4663,-0.0907,476.81,577.21,-890.75
10750,-3.8729,-0.4697,-0.1364,320.56,405.33,46.69
10760,-3.8732,-0.4679,-0.1796,-116.94,-1438.48,-1297.18
10770,-3.8733,-0.4614,-0.2134,117.43,1030.33,-1109.74
10780,-3.8734,-0.4525,-0.2347,945.56,702.21,-875.43
10790,-3.8735,-0.4432,-0.2441,-1913.82,1967.83,-1281.74
10800,-3.8737,-0.4310,-0.2458,-726.32,764.71,-1312.99
10810,-3.8738,-0.4114,-0.2472,836.18,546.02,-94.24
10820,-3.8738,-0.3788,-0.2527,-648.19,374.15,-1547.36
10830,-3.8738,-0.3334,-0.2616,-476.32,-328.92,-1891.17
10840,-3.8738,-0.2819,-0.2733,1336.18,-1469.42,-1719.30
10850,-3.8738,-0.2297,-0.2854,-70.07,1030.64,-1703.67
10860,-3.8738,-0.1812,-0.2892,-1398.19,-516.11,1468.14
10870,-3.8739,-0.1342,-0.2837,820.56,-1000.37,-172.49
10880,-3.8739,-0.0874,-0.2834,-1163.82,-297.18,1561.89
10890,-3.8740,-0.0363,-0.2969,820.56,-265.81,-672.49
10900,-3.8740,0.0186,-0.3159,-632.57,-1984.50,-1922.49
10910,-3.8740,0.0707,-0.3326,-1616.94,-437.50,1436.83
10920,-3.8740,0.1206,-0.3429,1054.93,1422.00,264.95
10930,-3.8741,0.1676,-0.3396,-554.44,109.56,-1141.30
10940,-3.8741,0.2006,-0.3195,1461.18,531.56,-719.42
10950,-3.8740,0.2157,-0.2932,1679.93,-890.26,-1438.17
10960,-3.8739,0.2219,-0.2788,-382.57,-1530.88,-969.36
10970,-3.8738,0.2277,-0.2811,414.31,312.93,-766.17
10980,-3.8737,0.2438,-0.2893,1148.68,16.05,-672.42
10990,-3.8735,0.2672,-0.2903,-788.82,-1030.82,-1438.11
11000,-3.8734,0.2924,-0.2766,-1788.82,-1155.76,936.89
11010,-3.8734,0.3225,-0.2515,1429.93,594.30,-31.80
11020,-3.8732,0.3556,-0.2153,1289.31,-186.89,1077.58
11030,-3.8729,0.3861,-0.1678,1523.68,438.17,-1891.05
11040,-3.8726,0.4070,-0.1143,1429.93,-1483.64,-1672.24
11050,-3.8722,0.4270,-0.0714,101.81,1375.79,-1187.74
11060,-3.8718,0.4667,-0.0435,-1335.69,-1139.83,-547.06
11070,-3.8713,0.5277,-0.0179,-257.57,-1561.65,-578.25
11080,-3.8706,0.5854,0.0165,-445.07,1704.10,609.31
11090,-3.8699,0.6223,0.0707,-1054.44,-1889.53,62.50
11100,-3.8693,0.6476,0.1429,-335.69,1048.03,1812.62
11110,-3.8688,0.6748,0.2233,-1101.32,-1701.90,-499.76
11120,-3.8684,0.6904,0.2823,-1616.94,579.41,-671.45
11130,-3.8682,0.6770,0.2969,383.06,141.97,-1921.33
11140,-3.8680,0.6406,0.2777,-1335.69,-1998.72,1531.80
11150,-3.8680,0.5928,0.2441,-1991.94,-451.90,1656.74
11160,-3.8682,0.5421,0.2045,-116.94,-748.90,-577.70
11170,-3.8682,0.4983,0.1682,1398.68,-1827.09,1484.74
11180,-3.8682,0.4613,0.1406,-210.69,1532.17,390.93
11190,-3.8683,0.4259,0.1252,-945.07,-1999.15,-46.63
11200,-3.8682,0.3787,0.1351,-1476.32,32.04,609.62
11210,-3.8682,0.3068,0.1655,476.81,1297.61,1515.87
11220,-3.8682,0.2252,0.1998,-726.32,1188.05,-1827.82
11230,-3.8682,0.1458,0.2316,836.18,1578.55,-921.51
11240,-3.8682,0.0543,0.2670,-1335.69,1640.87,-421.45
11250,-3.8682,-0.0574,0.3083,-1038.82,-1828.06,-718.26
11260,-3.8682,-0.1758,0.3376,664.31,-515.75,-733.83
11270,-3.8680,-0.2737,0.3378,1508.06,-765.99,266.24
11280,-3.8682,-0.3386,0.3123,976.81,-750.55,-77.51
11290,-3.8683,-0.3778,0.2783,664.31,-16.30,-1499.45
11300,-3.8685,-0.3998,0.2483,-351.32,-360.17,266.11
11310,-3.8690,-0.4176,0.2306,836.18,-203.92,-46.45
11320,-3.8693,-0.4402,0.2277,-1445.07,1530.40,797.30
11330,-3.8695,-0.4730,0.2391,-335.69,1155.33,1297.30
11340,-3.8696,-0.5094,0.2529,-538.82,-1375.98,687.93
11350,-3.8698,-0.5342,0.2515,-1195.07,389.59,47.36
11360,-3.8700,-0.5627,0.2285,-366.94,202.03,1406.74
11370,-3.8702,-0.6023,0.1898,-23.19,1264.47,891.05
11380,-3.8706,-0.6355,0.1511,-1085.69,311.28,-30.88
11390,-3.8708,-0.6505,0.1213,-1335.69,-641.91,-390.38
11400,-3.8711,-0.6505,0.0948,742.43,-454.41,-421.69
11410,-3.8713,-0.6466,0.0649,742.43,154.97,-265.44
11420,-3.8715,-0.6401,0.0341,1242.43,326.84,343.87
11430,-3.8717,-0.6293,0.0103,-1929.44,373.72,984.44
11440,-3.8719,-0.6124,-0.0051,-538.82,1326.84,1031.25
11450,-3.8722,-0.5936,-0.0153,1617.43,-641.85,593.69
11460,-3.8724,-0.5725,-0.0253,23.68,-1938.66,156.19
11470,-3.8727,-0.5480,-0.0461,-1273.19,780.09,218.69
11480,-3.8729,-0.5223,-0.0820,1867.43,-1891.72,1078.00
11490,-3.8732,-0.4974,-0.1227,1148.68,1514.59,-656.43
11500,-3.8733,-0.4751,-0.1539,336.18,311.52,-343.99
11510,-3.8733,-0.4559,-0.1707,-804.44,311.52,1280.94
11520,-3.8734,-0.4413,-0.1776,1648.68,-1829.04,-1187.87
11530,-3.8734,-0.4241,-0.1802,-476.32,1280.33,202.76
11540,-3.8735,-0.4012,-0.1835,1726.81,952.27,1530.88
11550,-3.8737,-0.3773,-0.1892,648.68,530.46,-1500.37
11560,-3.8738,-0.3555,-0.1942,-288.82,-203.92,-875.43
11570,-3.8739,-0.3320,-0.2003,-1491.94,-844.48,-250.43
11580,-3.8739,-0.3077,-0.2136,1508.06,-1625.67,15.20
11590,-3.8740,-0.2826,-0.2334,617.43,671.26,405.82
11600,-3.8741,-0.2557,-0.2528,-163.82,-1859.99,1733.89
11610,-3.8743,-0.2290,-0.2667,-726.32,-344.30,-813.05
11620,-3.8743,-0.1993,-0.2792,-1304.44,1874.51,108.83
11630,-3.8744,-0.1615,-0.2975,-1507.57,280.82,999.45
11640,-3.8745,-0.1140,-0.3186,-663.82,1937.13,-641.24
11650,-3.8744,-0.0626,-0.3335,1414.31,-765.87,186.83
11660,-3.8744,-0.0093,-0.3373,-7.57,1327.94,-985.05
11670,-3.8743,0.0450,-0.3278,-1179.44,843.69,-1969.42
11680,-3.8743,0.0918,-0.3094,1773.68,-1953.06,-110.05
11690,-3.8741,0.1306,-0.2898,-241.94,390.75,1390.01
11700,-3.8741,0.1685,-0.2745,726.81,-1093.51,-766.24
11710,-3.8740,0.2031,-0.2645,1570.56,859.68,780.70
11720,-3.8740,0.2361,-0.2545,-1991.94,-1859.01,-1109.92
11730,-3.8739,0.2727,-0.2433,-1773.19,-577.70,-141.17
11740,-3.8737,0.3217,-0.2266,-1085.69,859.86,-781.74
11750,-3.8734,0.3801,-0.1963,1179.93,-999.39,1155.76
11760,-3.8732,0.4406,-0.1501,664.31,-1124.27,390.20
11770,-3.8728,0.4955,-0.0840,398.68,782.10,609.07
11780,-3.8724,0.5328,0.0007,-570.07,1250.92,1812.32
11790,-3.8721,0.5631,0.0923,211.18,94.79,343.75
11800,-3.8718,0.6088,0.1875,86.18,-186.40,1703.25
11810,-3.8715,0.6724,0.2770,1929.93,1.16,531.62
11820,-3.8711,0.7371,0.3632,-1929.44,-545.59,1484.86
11830,-3.8706,0.7791,0.4359,-1648.19,-1514.22,1703.80
11840,-3.8700,0.7992,0.4573,-273.19,-201.66,-1858.58
11850,-3.8693,0.8165,0.4307,-1695.07,-1467.22,157.10
11860,-3.8688,0.8315,0.4003,523.68,-873.41,-1936.71
11870,-3.8685,0.8351,0.4109,-1554.44,-764.04,-327.39
11880,-3.8684,0.8187,0.4622,-1101.32,595.34,1172.67
11890,-3.8685,0.7817,0.5222,804.93,-842.16,-77.27
11900,-3.8684,0.7256,0.5522,70.56,-1154.72,-1608.40
11910,-3.8682,0.6583,0.5385,883.06,-1311.10,1485.41
11920,-3.8679,0.5919,0.5046,273.68,923.16,407.29
11930,-3.8679,0.5299,0.4817,-226.32,594.85,-1327.15
11940,-3.8680,0.4594,0.4753,-163.82,1657.23,-311.58
11950,-3.8682,0.3688,0.4672,-1195.07,844.60,-1374.08
11960,-3.8683,0.2699,0.4696,-788.82,-202.45,-530.40
11970,-3.8683,0.1656,0.5073,-1445.07,109.86,-905.33
11980,-3.8682,0.0526,0.5570,1211.18,937.81,641.60
11990,-3.8682,-0.0527,0.5770,-1257.57,-703.06,-311.46
12000,-3.8680,-0.1382,0.5521,1258.06,1874.88,1735.47
12010,-3.8682,-0.2023,0.4979,-1679.44,-1312.81,-155.21
12020,-3.8683,-0.2468,0.4435,-1882.57,-250.43,-1780.33
12030,-3.8685,-0.2878,0.4065,414.31,780.76,-1577.27
12040,-3.8688,-0.3470,0.3914,-835.69,46.26,1782.04
12050,-3.8690,-0.4240,0.3914,-413.82,-1891.36,-1936.77
12060,-3.8691,-0.4923,0.3951,1742.43,-1891.48,344.48
12070,-3.8694,-0.5333,0.3894,992.43,-1407.23,-358.64
12080,-3.8695,-0.5637,0.3575,-257.57,1858.28,1172.61
12090,-3.8699,-0.5902,0.3008,-148.19,1780.09,-139.95
12100,-3.8701,-0.6002,0.2329,461.18,-1485.53,1234.92
12110,-3.8704,-0.5973,0.1663,-820.07,1826.90,266.05
12120,-3.8706,-0.5822,0.1306,-445.07,1295.65,-968.44
12130,-3.8706,-0.5643,0.1405,1492.43,733.22,109.62
12140,-3.8708,-0.5503,0.1636,-226.32,1998.84,-515.38
12150,-3.8711,-0.5320,0.1617,1570.56,952.03,-296.57
12160,-3.8713,-0.5123,0.1342,-85.69,717.65,-874.69
12170,-3.8716,-0.4927,0.0985,-1570.07,1186.46,-187.26
12180,-3.8717,-0.4738,0.0559,945.56,624.02,1703.31
12190,-3.8719,-0.4498,0.0123,-632.57,-829.10,-62.44
12200,-3.8721,-0.4207,-0.0187,-1570.07,1592.83,1906.25
12210,-3.8723,-0.3939,-0.0333,-1835.69,1624.15,-640.69
12220,-3.8724,-0.3717,-0.0457,1586.18,-250.79,109.25
12230,-3.8728,-0.3516,-0.0684,429.93,-1828.86,-156.37
12240,-3.8730,-0.3352,-0.1021,-991.94,-735.11,-984.56
12250,-3.8733,-0.3234,-0.1433,1101.81,-1047.55,-781.49
12260,-3.8734,-0.3136,-0.1819,-1382.57,1671.20,1734.07
12270,-3.8735,-0.3057,-0.2102,-132.57,733.70,-1172.24
12280,-3.8735,-0.3018,-0.2313,883.06,1108.76,1077.70
12290,-3.8737,-0.3029,-0.2526,1383.06,-1594.36,-1422.36
12300,-3.8738,-0.2944,-0.2731,1242.43,-313.11,-219.30
12310,-3.8738,-0.2740,-0.2925,-1679.44,1061.89,1718.20
12320,-3.8738,-0.2456,-0.3099,929.93,-1422.42,390.01
12330,-3.8739,-0.2106,-0.3225,570.56,343.26,-844.36
12340,-3.8739,-0.1720,-0.3270,1054.93,-1266.05,1811.83
12350,-3.8739,-0.1387,-0.3204,1992.43,-1844.12,264.95
12360,-3.8740,-0.1174,-0.3083,-1741.94,-1000.31,-1563.17
12370,-3.8740,-0.1033,-0.2977,976.81,546.63,1280.64
12380,-3.8740,-0.0875,-0.2888,-1210.69,1906.01,1265.01
12390,-3.8740,-0.0613,-0.2827,804.93,-953.31,1780.64
12400,-3.8740,-0.0214,-0.2850,164.31,-172.00,-1891.24
12410,-3.8740,0.0266,-0.2972,1273.68,-468.81,-1594.36
12420,-3.8740,0.0680,-0.3131,-585.69,1953.12,-1000.61
12430,-3.8739,0.0973,-0.3126,711.18,-78.00,999.33
12440,-3.8738,0.1240,-0.2799,461.18,-15.44,1546.20
12450,-3.8737,0.1501,-0.2385,-116.94,172.06,1921.33
12460,-3.8735,0.1764,-0.2229,-773.19,1468.99,530.76
12470,-3.8734,0.2173,-0.2383,-1413.82,-530.94,577.64
12480,-3.8733,0.2706,-0.2631,-179.44,1500.37,-125.49
12490,-3.8730,0.3219,-0.2550,-1351.32,-1671.39,-203.67
12500,-3.8728,0.3716,-0.1796,1211.18,-640.01,-1063.05
12510,-3.8726,0.4178,-0.0765,-429.44,1016.30,-422.24
12520,-3.8721,0.4658,-0.0199,1492.43,-1796.08,984.19
12530,-3.8716,0.5248,-0.0165,-366.94,1453.98,-1625.06
12540,-3.8711,0.5880,-0.0183,-820.07,1891.60,-46.94
12550,-3.8706,0.6396,-0.0031,-726.32,1657.35,-796.94
12560,-3.8702,0.6792,0.0089,1883.06,-389.40,-1437.56
12570,-3.8700,0.7207,0.0074,-1054.44,1141.91,-1968.75
12580,-3.8699,0.7566,0.0216,258.06,954.53,-375.00
12590,-3.8696,0.7645,0.0731,851.81,-1232.91,1703.12
12600,-3.8694,0.7437,0.1366,1867.43,1360.84,843.87
12610,-3.8691,0.7084,0.1791,-804.44,1485.78,1875.24
12620,-3.8688,0.6559,0.1887,-1320.07,-1076.78,-1890.32
12630,-3.8684,0.5889,0.1715,-38.82,157.47,-280.88
12640,-3.8680,0.5315,0.1421,-616.94,1954.22,1578.43
12650,-3.8679,0.4867,0.1161,39.31,-1811.46,218.99
12660,-3.8680,0.4362,0.0989,-1695.07,-1139.71,593.93
12670,-3.8683,0.3749,0.0780,-163.82,657.04,1390.81
12680,-3.8685,0.3085,0.0480,-7.57,1985.05,843.87
12690,-3.8688,0.2399,0.0208,-507.57,-1858.83,859.44
12700,-3.8690,0.1646,0.0005,-1288.82,-1343.32,-1640.62
12710,-3.8691,0.0819,-0.0095,1070.56,62.81,1718.75
12720,-3.8693,0.0035,-0.0006,-1507.57,-1218.63,-1921.94
12730,-3.8694,-0.0610,0.0194,461.18,-78.12,-1875.06
12740,-3.8695,-0.1056,0.0411,195.56,-1500.12,-859.38
12750,-3.8695,-0.1344,0.0718,-1507.57,1281.01,-1312.44
12760,-3.8695,-0.1606,0.1101,-1195.07,1202.82,-499.88
12770,-3.8694,-0.1907,0.1393,-554.44,-1890.99,625.18
12780,-3.8693,-0.2207,0.1669,-398.19,1843.32,390.87
12790,-3.8691,-0.2526,0.2136,-241.94,1374.51,-890.32
12800,-3.8689,-0.3014,0.2773,-320.07,-641.17,1234.74
12810,-3.8688,-0.3722,0.3383,1429.93,-484.99,312.99
12820,-3.8688,-0.4417,0.3660,367.43,-688.23,500.61
12830,-3.8689,-0.4863,0.3473,-523.19,-1141.54,-1733.70
12840,-3.8690,-0.5048,0.3010,1758.06,467.77,1922.55
12850,-3.8691,-0.5115,0.2570,-601.32,-1454.16,281.80
12860,-3.8694,-0.5112,0.2377,-1460.69,905.21,1844.24
12870,-3.8696,-0.5057,0.2405,-1429.44,-1563.54,-1093.32
12880,-3.8699,-0.4972,0.2482,-726.32,-1204.16,-546.45
12890,-3.8701,-0.4907,0.2472,367.43,-219.73,-905.82
12900,-3.8704,-0.4938,0.2299,1195.56,-344.73,-1952.70
12910,-3.8706,-0.5033,0.1980,804.93,1436.52,672.30
12920,-3.8710,-0.5087,0.1602,-413.82,1358.34,-515.26
12930,-3.8712,-0.5063,0.1202,-1101.32,514.59,-577.82
12940,-3.8713,-0.5033,0.0861,-804.44,-594.79,500.18
12950,-3.8716,-0.5063,0.0640,-413.82,-969.79,1500.12
12960,-3.8718,-0.5187,0.0471,-804.44,202.09,1547.00
12970,-3.8721,-0.5359,0.0255,1617.43,-1954.16,1031.31
12980,-3.8723,-0.5508,-0.0042,-585.69,-719.85,1093.75
12990,-3.8726,-0.5526,-0.0392,1508.06,-516.72,-1968.81
13000,-3.8728,-0.5398,-0.0812,1273.68,-1001.10,-484.50
13010,-3.8729,-0.5172,-0.1279,-1085.69,1623.90,1827.94
13020,-3.8730,-0.4935,-0.1683,1804.93,-360.41,640.32
13030,-3.8732,-0.4717,-0.1951,836.18,-1532.23,171.51
13040,-3.8733,-0.4518,-0.2164,-366.94,-954.10,843.32
13050,-3.8734,-0.4329,-0.2410,-1820.07,311.58,-1625.43
13060,-3.8734,-0.4119,-0.2601,601.81,1171.02,593.26
13070,-3.8735,-0.3898,-0.2677,-710.69,-1282.10,-703.67
13080,-3.8735,-0.3678,-0.2739,-1882.57,1749.21,-1797.42
13090,-3.8735,-0.3447,-0.2892,929.93,952.39,1202.58
13100,-3.8735,-0.3173,-0.3102,-116.94,-1000.73,265.01
13110,-3.8737,-0.2872,-0.3256,-601.32,311.83,-672.49
13120,-3.8737,-0.2590,-0.3275,-757.57,-1656.86,-1516.30
13130,-3.8737,-0.2328,-0.3164,-1148.19,-1906.80,1577.45
13140,-3.8737,-0.2004,-0.3032,-1788.82,-484.86,249.33
13150,-3.8738,-0.1570,-0.3042,-1648.19,1202.70,-1344.36
13160,-3.8738,-0.1023,-0.3174,-85.69,1077.76,1358.76
13170,-3.8738,-0.0366,-0.3253,-1085.69,-609.62,343.08
13180,-3.8739,0.0354,-0.3212,-679.44,-1625.12,-1016.30
13190,-3.8739,0.1064,-0.3093,539.31,-1109.31,1155.58
13200,-3.8740,0.1683,-0.2891,1633.06,406.43,-547.49
13210,-3.8740,0.2139,-0.2614,1554.93,-999.69,-1844.36
13220,-3.8740,0.2477,-0.2346,-616.94,-1452.76,1358.83
13230,-3.8740,0.2837,-0.2133,-288.82,1969.18,1046.39
13240,-3.8740,0.3142,-0.2006,320.56,703.67,-1734.80
13250,-3.8739,0.3351,-0.2073,226.81,-1671.26,1968.32
13260,-3.8737,0.3623,-0.2275,-1101.32,1469.36,1921.45
13270,-3.8733,0.3956,-0.2151,-1616.94,-1124.33,-1703.61
13280,-3.8728,0.4146,-0.1541,-1351.32,469.48,15.20
13290,-3.8724,0.4154,-0.0908,1070.56,282.04,1796.57
13300,-3.8721,0.4247,-0.0648,1179.93,375.79,-187.68
13310,-3.8716,0.4647,-0.0586,-1632.57,-296.08,1890.44
13320,-3.8712,0.5244,-0.0262,-507.57,500.85,1828.00
13330,-3.8710,0.5792,0.0442,-866.94,641.60,1890.56
13340,-3.8707,0.6194,0.1095,-1851.32,1657.35,1375.06
13350,-3.8704,0.6486,0.1250,-710.69,-1983.22,-1937.32
13360,-3.8699,0.6718,0.1085,-976.32,1.22,-156.01
13370,-3.8693,0.6906,0.0894,1992.43,1891.91,109.56
13380,-3.8690,0.7115,0.0780,398.68,-561.16,-1843.63
13390,-3.8689,0.7323,0.0710,-913.82,1985.72,1812.62
13400,-3.8689,0.7354,0.0651,1742.43,1095.15,1875.12
13410,-3.8689,0.7068,0.0608,-1866.94,329.53,1828.25
13420,-3.8689,0.6490,0.0525,-1523.19,-217.41,-437.44
13430,-3.8688,0.5756,0.0403,-913.82,-1280.03,-1171.81
13440,-3.8687,0.4905,0.0410,1679.93,1157.35,-1609.31
13450,-3.8685,0.3950,0.0592,-1210.69,1250.92,1046.94
13460,-3.8685,0.3000,0.0762,-1429.44,-421.14,-921.81
13470,-3.8684,0.2155,0.0974,-1585.69,1750.55,-1234.25
13480,-3.8682,0.1315,0.1482,-413.82,469.12,1015.81
13490,-3.8680,0.0366,0.2151,836.18,-1031.01,-390.38
13500,-3.8679,-0.0518,0.2540,695.56,-468.69,-109.01
13510,-3.8678,-0.1118,0.2473,1383.06,531.13,828.61
13520,-3.8679,-0.1483,0.2178,1695.56,-328.37,-1890.20
13530,-3.8680,-0.1783,0.1967,1023.68,-109.68,219.12
13540,-3.8683,-0.2167,0.1984,1179.93,1187.13,1015.99
13550,-3.8685,-0.2675,0.2229,273.68,1405.82,-702.76
13560,-3.8685,-0.3184,0.2588,1773.68,546.33,281.68
13570,-3.8687,-0.3669,0.2894,-741.94,1139.95,-1812.01
13580,-3.8688,-0.4225,0.3011,1039.31,1061.77,-1811.95
13590,-3.8690,-0.4813,0.2822,1929.93,-1438.35,-874.45
13600,-3.8693,-0.5327,0.2379,-1601.32,139.65,1406.80
13610,-3.8696,-0.5828,0.1838,-179.44,-1532.35,1844.18
13620,-3.8700,-0.6373,0.1351,1414.31,-454.28,1797.18
13630,-3.8704,-0.6796,0.1079,-1570.07,1311.22,-1343.51
13640,-3.8706,-0.6976,0.1003,1023.68,1826.78,-1984.19
13650,-3.8708,-0.6876,0.0951,-1288.82,857.97,-937.32
13660,-3.8710,-0.6573,0.0812,-7.57,186.10,47.06
13670,-3.8712,-0.6235,0.0576,-132.57,-1595.09,578.25
13680,-3.8715,-0.5872,0.0311,195.56,-610.60,890.69
13690,-3.8717,-0.5504,0.0135,851.81,-1.16,1531.25
13700,-3.8719,-0.5187,0.0076,1554.93,1748.90,-1140.62
13710,-3.8721,-0.4987,-0.0040,1617.43,983.34,1234.38
13720,-3.8722,-0.4872,-0.0298,179.93,-500.98,203.06
13730,-3.8724,-0.4854,-0.0621,1648.68,202.15,-1843.81
13740,-3.8727,-0.4967,-0.0950,1883.06,61.52,-1609.50
13750,-3.8729,-0.5098,-0.1273,429.93,-141.60,1406.01
13760,-3.8733,-0.5145,-0.1606,-1241.94,-282.29,-453.43
13770,-3.8735,-0.5083,-0.1917,-1851.32,-547.91,827.76
13780,-3.8739,-0.4897,-0.2184,-1054.44,-516.66,-1125.43
13790,-3.8741,-0.4539,-0.2480,1320.56,61.52,-391.05
13800,-3.8743,-0.4050,-0.2811,1914.31,264.71,-859.86
13810,-3.8743,-0.3474,-0.2985,164.31,30.46,702.58
13820,-3.8744,-0.2919,-0.2948,-460.69,1811.77,-1938.11
13830,-3.8745,-0.2427,-0.2897,-1351.32,-1719.36,1843.14
13840,-3.8746,-0.1954,-0.2946,945.56,-1062.99,1311.89
13850,-3.8748,-0.1492,-0.3053,-1007.57,-1687.93,-1609.99
13860,-3.8748,-0.1067,-0.3141,914.31,937.19,1436.89
13870,-3.8748,-0.0660,-0.3083,-1648.19,-187.74,1858.70
13880,-3.8748,-0.0254,-0.2811,-445.07,546.69,-1016.24
13890,-3.8748,0.0153,-0.2513,758.06,31.19,-63.05
13900,-3.8746,0.0643,-0.2390,1961.18,-171.88,1593.20
13910,-3.8745,0.1310,-0.2391,242.43,1406.37,1796.39
13920,-3.8744,0.2100,-0.2419,773.68,1390.87,-656.74
13930,-3.8741,0.2814,-0.2417,-1116.94,1031.62,327.64
13940,-3.8740,0.3405,-0.2330,23.68,1063.05,1530.76
13950,-3.8739,0.3920,-0.2091,-413.82,-1827.51,-344.24
13960,-3.8737,0.4357,-0.1644,-1820.07,1235.11,1796.45
13970,-3.8735,0.4768,-0.0936,-226.32,-1046.08,-703.49
13980,-3.8733,0.5284,-0.0049,1039.31,16.54,1718.57
13990,-3.8730,0.5979,0.0917,-351.32,-624.02,-1484.44
14000,-3.8728,0.6735,0.1824,539.31,-264.47,-62.38
14010,-3.8723,0.7529,0.2488,-1788.82,-654.97,422.18
14020,-3.8717,0.8510,0.3091,383.06,-154.79,328.55
14030,-3.8711,0.9457,0.3743,929.93,-435.85,-702.58
14040,-3.8705,1.0081,0.4320,1054.93,-91.92,-1389.95
14050,-3.8701,1.0605,0.4821,1039.31,-701.17,-30.46
14060,-3.8698,1.1252,0.5269,-241.94,1705.14,891.54
14070,-3.8695,1.1820,0.5867,39.31,-560.30,625.98
14080,-3.8694,1.1832,0.6644,-695.07,-903.99,-170.78
14090,-3.8690,1.1022,0.7062,-538.82,1049.13,266.91
14100,-3.8687,0.9788,0.6881,1086.18,-1607.24,579.47
14110,-3.8683,0.8571,0.6396,1289.31,80.02,-1498.66
14120,-3.8679,0.7378,0.5973,1711.18,1876.65,1766.85
14130,-3.8678,0.6138,0.6003,-1554.44,454.53,-1201.97
14140,-3.8678,0.4873,0.6357,-1429.44,844.91,1610.53
14150,-3.8679,0.3707,0.6554,-1616.94,1375.92,-1373.78
14160,-3.8679,0.2703,0.6548,-538.82,-108.70,1016.85
14170,-3.8680,0.1726,0.6584,-1398.19,-187.01,-170.65
14180,-3.8680,0.0598,0.6891,-1898.19,281.56,1766.91
14190,-3.8682,-0.0929,0.7358,-335.69,203.19,-998.66
14200,-3.8682,-0.2677,0.7687,117.43,-1797.06,1142.03
14210,-3.8682,-0.4106,0.7650,1742.43,-1594.30,673.34
14220,-3.8683,-0.5117,0.7183,-554.44,1936.65,-732.91
14230,-3.8684,-0.5929,0.6537,-1491.94,-47.91,-889.28
14240,-3.8685,-0.6675,0.6028,117.43,-313.66,673.10
14250,-3.8688,-0.7378,0.5686,-1429.44,1170.53,610.53
14260,-3.8691,-0.7830,0.5370,1570.56,795.41,-1155.15
14270,-3.8694,-0.7809,0.5028,-210.69,748.41,16.66
14280,-3.8698,-0.7601,0.4586,54.93,373.47,719.73
14290,-3.8701,-0.7499,0.3949,-1288.82,-1282.78,907.10
14300,-3.8705,-0.7408,0.3179,23.68,-1438.96,1641.36
14310,-3.8708,-0.7277,0.2460,1179.93,701.66,-780.64
14320,-3.8711,-0.7229,0.1848,-1132.57,-501.46,750.43
14330,-3.8715,-0.7321,0.1255,-523.19,-329.59,-1062.19
14340,-3.8717,-0.7372,0.0664,-1695.07,76.66,-1531.01
14350,-3.8719,-0.7275,0.0131,1648.68,514.16,-1015.50
14360,-3.8722,-0.7050,-0.0282,-1116.94,1686.04,-656.25
14370,-3.8724,-0.6804,-0.0535,1773.68,404.85,-1875.06
14380,-3.8728,-0.6584,-0.0684,914.31,1170.53,-1062.62
14390,-3.8732,-0.6294,-0.0830,-273.19,-735.72,-343.93
14400,-3.8734,-0.5885,-0.1107,-554.44,1389.34,1812.32
14410,-3.8737,-0.5420,-0.1521,679.93,1842.59,1968.51
14420,-3.8738,-0.5005,-0.1919,-1366.94,545.78,249.69
14430,-3.8740,-0.4658,-0.2188,-54.44,-547.91,-78.55
14440,-3.8740,-0.4327,-0.2189,383.06,14.71,93.32
14450,-3.8741,-0.3904,-0.1912,617.43,-0.85,1202.64
14460,-3.8743,-0.3367,-0.1620,-1960.69,-453.92,-344.18
14470,-3.8743,-0.2736,-0.1510,914.31,-719.42,-844.12
14480,-3.8743,-0.2052,-0.1512,992.43,686.95,-797.18
14490,-3.8743,-0.1373,-0.1490,1742.43,655.82,-672.18
14500,-3.8743,-0.0735,-0.1379,-1570.07,937.19,-1297.18
14510,-3.8743,-0.0138,-0.1110,-1398.19,-1640.81,1577.82
14520,-3.8743,0.0430,-0.0752,-1757.57,1812.44,265.38
14530,-3.8744,0.0963,-0.0558,1508.06,-1624.94,-1609.56
14540,-3.8744,0.1508,-0.0636,336.18,859.56,-1547.00
14550,-3.8743,0.2097,-0.0964,-695.07,-140.38,-1422.06
14560,-3.8740,0.2688,-0.1511,-1148.19,-343.38,1187.26
14570,-3.8738,0.3335,-0.2091,-1585.69,656.74,1921.57
14580,-3.8734,0.3912,-0.2334,-1304.44,1234.99,577.70
14590,-3.8732,0.4235,-0.1948,-1913.82,-1874.27,1390.14
14600,-3.8730,0.4453,-0.1042,-1788.82,-936.71,-16.05
14610,-3.8728,0.4729,-0.0193,1008.06,-1342.90,-1703.37
14620,-3.8726,0.5046,0.0004,539.31,1532.17,-1921.94
14630,-3.8722,0.5367,-0.0311,601.81,47.85,1781.25
14640,-3.8717,0.5719,-0.0636,711.18,16.66,1296.81
14650,-3.8712,0.6161,-0.0847,1211.18,-139.53,1124.82
14660,-3.8708,0.6836,-0.0818,-1132.57,1157.41,-531.43
14670,-3.8704,0.7697,-0.0402,-491.94,1532.53,1202.94
14680,-3.8700,0.8469,0.0310,-1476.32,-1139.16,-1797.00
14690,-3.8696,0.9049,0.0895,414.31,-29.60,890.62
14700,-3.8694,0.9409,0.0991,-163.82,-545.17,109.50
14710,-3.8693,0.9492,0.0811,445.56,689.33,1406.43
14720,-3.8691,0.9368,0.0753,1508.06,-1623.17,-890.50
14730,-3.8689,0.9070,0.1000,-85.69,1642.40,1547.00
14740,-3.8688,0.8560,0.1548,101.81,798.65,-593.57
14750,-3.8687,0.7854,0.2244,1570.56,-185.85,-140.38
14760,-3.8685,0.7000,0.2858,539.31,720.28,-15.20
14770,-3.8683,0.5991,0.3328,1601.81,579.47,1313.05
14780,-3.8682,0.4795,0.3613,695.56,-1405.09,-1186.89
14790,-3.8680,0.3462,0.3842,1383.06,-1749.08,-749.33
14800,-3.8679,0.1917,0.4429,320.56,1172.55,-764.89
14810,-3.8678,0.0098,0.5471,539.31,687.87,-874.15
14820,-3.8677,-0.1736,0.6564,1258.06,-1968.75,-123.96
14830,-3.8674,-0.3428,0.7207,1789.31,30.88,-1686.22
14840,-3.8672,-0.4825,0.7144,133.06,264.95,1267.03
14850,-3.8671,-0.5779,0.6498,-1757.57,-547.85,813.84
14860,-3.8672,-0.6472,0.5718,-1960.69,-813.66,329.35
14870,-3.8677,-0.7051,0.5123,1164.31,1201.84,-1545.78
14880,-3.8683,-0.7617,0.4581,1758.06,1592.35,-1889.65
14890,-3.8689,-0.7982,0.3966,-1491.94,-1345.28,1141.48
14900,-3.8695,-0.7988,0.3386,1836.18,-1220.34,-343.02
14910,-3.8699,-0.7720,0.2952,1758.06,-642.21,-1952.51
14920,-3.8702,-0.7333,0.2677,1195.56,1795.35,-1280.70
14930,-3.8705,-0.6991,0.2404,-1851.32,-1720.21,984.86
14940,-3.8707,-0.6755,0.1925,-1476.32,-1220.15,719.18
14950,-3.8710,-0.6548,0.1281,1539.31,654.91,1578.49
14960,-3.8712,-0.6207,0.0623,195.56,404.97,-921.63
14970,-3.8713,-0.5793,0.0045,554.93,-16.85,109.44
14980,-3.8716,-0.5388,-0.0408,1851.81,592.59,140.62
14990,-3.8719,-0.4996,-0.0724,-960.69,-1204.22,-687.62
15000,-3.8722,-0.4607,-0.0963,54.93,-1250.98,-1859.56
15010,-3.8724,-0.4280,-0.1232,1039.31,-313.42,1093.51
15020,-3.8727,-0.3959,-0.1587,1226.81,249.15,1124.76
15030,-3.8729,-0.3651,-0.2046,1336.18,-297.67,-1219.12
15040,-3.8730,-0.3466,-0.2512,1273.68,1827.39,-1891.05
15050,-3.8732,-0.3464,-0.2759,-351.32,-141.36,-688.05
15060,-3.8732,-0.3585,-0.2668,-335.69,702.39,-1922.42
15070,-3.8732,-0.3718,-0.2429,-1882.57,1858.64,1093.20
15080,-3.8733,-0.3762,-0.2255,414.31,921.14,-422.36
15090,-3.8733,-0.3672,-0.2170,-148.19,-844.54,-1672.36
15100,-3.8733,-0.3503,-0.2131,1008.06,233.64,1999.57
15110,-3.8733,-0.3265,-0.2083,-835.69,733.64,1827.70
15120,-3.8733,-0.2972,-0.1982,-1788.82,1358.70,765.20
15130,-3.8734,-0.2655,-0.1860,1961.18,-1359.99,-1047.30
15140,-3.8734,-0.2321,-0.1818,-1976.32,202.58,484.01
15150,-3.8735,-0.1907,-0.1952,-1695.07,749.51,1921.51
15160,-3.8735,-0.1385,-0.2225,-398.19,-969.18,499.57
15170,-3.8737,-0.0807,-0.2526,-1726.32,-469.06,-109.86
15180,-3.8737,-0.0222,-0.2805,1679.93,-312.68,-1125.55
15190,-3.8737,0.0309,-0.3064,1164.31,109.31,593.20
15200,-3.8738,0.0759,-0.3268,-38.82,781.25,1515.01
15210,-3.8739,0.1122,-0.3347,1726.81,-1828.00,-1094.42
15220,-3.8739,0.1376,-0.3271,-1632.57,1156.43,1546.20
15230,-3.8739,0.1554,-0.3046,1617.43,-1874.76,1155.58
15240,-3.8739,0.1749,-0.2760,-101.32,1015.87,765.01
15250,-3.8739,0.1897,-0.2622,-1601.32,672.18,311.95
15260,-3.8739,0.1929,-0.2677,289.31,-1562.13,436.95
15270,-3.8739,0.1909,-0.2778,695.56,1734.74,1327.58
15280,-3.8739,0.1844,-0.2910,445.56,437.87,-266.17
15290,-3.8737,0.1769,-0.3009,-382.57,-1249.69,296.26
15300,-3.8735,0.1680,-0.2869,-1351.32,1484.68,-1719.36
15310,-3.8733,0.1562,-0.2528,1508.06,-718.44,421.26
15320,-3.8732,0.1531,-0.2142,8.06,-359.07,-1938.05
15330,-3.8730,0.1733,-0.1656,-398.19,578.37,-359.80
15340,-3.8728,0.2031,-0.1069,-1804.44,-1202.82,1937.13
15350,-3.8726,0.2250,-0.0469,-1991.94,-1687.13,-1843.99
15360,-3.8722,0.2412,0.0161,804.93,-1999.57,-1953.25
15370,-3.8717,0.2571,0.0680,-1116.94,-1937.07,1171.88
15380,-3.8712,0.2822,0.0566,914.31,703.61,1218.87
15390,-3.8707,0.3323,-0.0098,133.06,-749.45,-1984.31
15400,-3.8702,0.4028,-0.0323,-1460.69,-1249.39,-1000.06
15410,-3.8698,0.4691,0.0287,-429.44,-139.89,234.25
15420,-3.8695,0.5264,0.1202,54.93,-327.21,1218.75
15430,-3.8693,0.5781,0.2036,-616.94,-608.40,-1390.44
15440,-3.8689,0.6014,0.2664,-1991.94,-1936.40,-1234.01
15450,-3.8684,0.5822,0.3019,992.43,-1905.09,516.11
15460,-3.8680,0.5201,0.3199,-1476.32,-1358.28,1578.67
15470,-3.8678,0.4117,0.3170,-1413.82,954.10,-733.76
15480,-3.8676,0.2720,0.2805,711.18,578.92,391.24
15490,-3.8676,0.1260,0.2119,-1179.44,-93.26,1078.61
15500,-3.8677,-0.0006,0.1412,133.06,-874.76,-1999.63
15510,-3.8679,-0.0972,0.1041,-70.07,-1906.31,-249.76
15520,-3.8682,-0.1788,0.0977,-429.44,1343.51,-1421.69
15530,-3.8685,-0.2527,0.0999,1117.43,515.26,-109.19
15540,-3.8688,-0.3110,0.1005,-335.69,796.33,1312.68
15550,-3.8690,-0.3606,0.0999,195.56,874.39,437.68
15560,-3.8693,-0.4144,0.1014,1851.81,796.14,-1327.94
15570,-3.8693,-0.4604,0.1013,-1038.82,999.15,31.43
15580,-3.8694,-0.4708,0.0995,1070.56,983.46,-1171.69
15590,-3.8694,-0.4492,0.0988,-257.57,749.02,1218.93
15600,-3.8695,-0.4188,0.0968,-1491.94,655.33,-843.57
15610,-3.8695,-0.3899,0.1002,-1601.32,405.40,859.56
15620,-3.8696,-0.3792,0.1086,-1898.19,842.96,1343.93
15630,-3.8698,-0.3844,0.1166,-523.19,1921.08,1750.18
15640,-3.8699,-0.3954,0.1309,-1195.07,-1063.29,-593.57
15650,-3.8699,-0.4081,0.1478,1398.68,764.83,1156.49
15660,-3.8700,-0.4075,0.1483,-226.32,-1063.35,-1593.51
15670,-3.8701,-0.3850,0.1294,-148.19,-1000.85,-249.76
15680,-3.8701,-0.3478,0.1144,-1273.19,577.33,-1765.38
15690,-3.8701,-0.3098,0.1277,-507.57,-1344.48,-406.07
15700,-3.8700,-0.2700,0.1738,351.81,358.76,-327.88
15710,-3.8698,-0.2301,0.2197,1445.56,-1734.92,437.81
15720,-3.8698,-0.2073,0.2341,-1445.07,140.14,-93.32
15730,-3.8698,-0.2157,0.2264,1476.81,1983.95,-577.70
15740,-3.8699,-0.2538,0.2090,398.68,999.57,-1968.32
15750,-3.8701,-0.3064,0.1758,-476.32,-1234.92,1625.37
15760,-3.8704,-0.3604,0.1320,789.31,-1484.99,1109.68
15770,-3.8706,-0.4164,0.0920,1883.06,905.52,1453.37
15780,-3.8708,-0.4639,0.0562,-1288.82,-203.98,1968.87
15790,-3.8711,-0.4769,0.0204,633.06,-797.79,-1296.81
15800,-3.8712,-0.4519,-0.0093,-1038.82,-1375.98,421.88
15810,-3.8715,-0.4147,-0.0320,-1835.69,-1172.79,-1203.19
15820,-3.8716,-0.3890,-0.0543,-1070.07,-78.98,703.00
15830,-3.8718,-0.3710,-0.0768,-1788.82,1061.71,1921.75
15840,-3.8721,-0.3519,-0.0969,523.68,-1813.23,-1562.68
15850,-3.8723,-0.3374,-0.1112,-1038.82,-391.36,1921.63
15860,-3.8726,-0.3353,-0.1265,820.56,1780.58,31.01
15870,-3.8729,-0.3434,-0.1522,1086.18,-172.55,1140.32
15880,-3.8733,-0.3516,-0.1882,54.93,530.58,1437.19
15890,-3.8737,-0.3477,-0.2328,-991.94,-78.86,1468.32
15900,-3.8740,-0.3262,-0.2830,-491.94,-1781.98,-672.36
15910,-3.8743,-0.2942,-0.3306,-1741.94,-203.80,-281.86
15920,-3.8744,-0.2559,-0.3674,-1648.19,1702.51,1436.83
15930,-3.8746,-0.2098,-0.3882,-741.94,983.83,-297.61
15940,-3.8748,-0.1566,-0.3910,1148.68,-1672.30,-1625.79
15950,-3.8749,-0.1010,-0.3877,-38.82,1968.38,-1328.92
15960,-3.8749,-0.0503,-0.3961,-913.82,-1609.62,1796.08
15970,-3.8749,-0.0067,-0.4137,1570.56,1312.38,-875.79
15980,-3.8748,0.0315,-0.4181,-851.32,-937.56,967.90
15990,-3.8748,0.0664,-0.3944,39.31,-1515.56,-1391.48
16000,-3.8746,0.0952,-0.3529,508.06,1515.75,842.96
16010,-3.8745,0.1188,-0.3165,195.56,-1171.69,608.64
16020,-3.8744,0.1510,-0.2977,-788.82,-515.44,-281.92
16030,-3.8740,0.1920,-0.2809,-663.82,1890.87,-672.49
16040,-3.8735,0.2283,-0.2352,586.18,47.24,702.58
16050,-3.8732,0.2494,-0.1531,1226.81,1891.05,15.14
16060,-3.8729,0.2700,-0.0704,-70.07,406.68,1562.19
16070,-3.8727,0.3209,-0.0284,-1429.44,-1015.14,-1156.43
16080,-3.8724,0.3949,-0.0184,1086.18,359.99,1749.94
16090,-3.8723,0.4540,-0.0034,-1445.07,1641.36,-1687.56
16100,-3.8722,0.4863,0.0336,-1882.57,-436.65,-968.81
16110,-3.8719,0.5118,0.0748,-1741.94,297.79,15.69
16120,-3.8718,0.5435,0.0975,1523.68,1579.10,1062.62
16130,-3.8716,0.5779,0.1075,1570.56,485.41,15.81
16140,-3.8713,0.6007,0.1107,1976.81,1766.72,1328.31
16150,-3.8710,0.6146,0.1023,898.68,-1826.97,1093.93
16160,-3.8706,0.6327,0.0939,-1320.07,1094.91,-718.57
16170,-3.8701,0.6466,0.0962,992.43,16.85,1109.56
16180,-3.8698,0.6460,0.1124,-1226.32,313.72,0.18
16190,-3.8695,0.6279,0.1370,-1304.44,-1608.15,703.31
16200,-3.8693,0.5912,0.1458,383.06,1532.47,-1921.63
16210,-3.8690,0.5461,0.1193,-320.07,-1342.65,-577.88
16220,-3.8688,0.5074,0.0665,1914.31,-733.34,1640.81
16230,-3.8687,0.4694,0.0204,961.18,516.60,218.87
16240,-3.8687,0.4163,-0.0028,86.18,-1389.71,1609.38
16250,-3.8685,0.3502,-0.0038,1289.31,-358.58,390.56
16260,-3.8684,0.2811,0.0177,836.18,-483.70,1296.81
16270,-3.8682,0.2087,0.0551,-7.57,-1733.89,265.62
16280,-3.8679,0.1315,0.1055,-1273.19,-952.76,781.31
16290,-3.8677,0.0515,0.1573,836.18,1500.24,843.93
16300,-3.8676,-0.0266,0.1913,-1398.19,140.69,-1671.57
16310,-3.8674,-0.0918,0.2061,601.81,499.94,937.87
16320,-3.8674,-0.1334,0.2172,258.06,-1609.56,-1109.01
16330,-3.8673,-0.1500,0.2345,-1070.07,-187.81,1312.87
16340,-3.8673,-0.1509,0.2524,804.93,-1969.06,-1812.07
16350,-3.8674,-0.1473,0.2665,695.56,327.82,-827.64
16360,-3.8677,-0.1469,0.2716,1148.68,-1875.31,-62.01
16370,-3.8679,-0.1527,0.2642,1211.18,-1219.06,1578.61
16380,-3.8683,-0.1625,0.2607,461.18,1827.82,-1999.51
16390,-3.8687,-0.1821,0.2766,-788.82,1390.26,-937.01
16400,-3.8689,-0.2272,0.2937,695.56,-578.49,1031.74
16410,-3.8693,-0.2949,0.2891,-1070.07,1608.89,-124.45
16420,-3.8695,-0.3611,0.2603,-1741.94,1015.01,-155.70
16430,-3.8696,-0.3975,0.2190,1789.31,1327.39,62.99
16440,-3.8700,-0.4025,0.1831,1133.06,46.08,-1077.70
16450,-3.8702,-0.3940,0.1559,492.43,-547.67,469.06
16460,-3.8706,-0.3781,0.1331,1570.56,-32.04,-1749.76
16470,-3.8708,-0.3629,0.1122,-382.57,1046.08,1015.87
16480,-3.8711,-0.3518,0.0905,1554.93,-1625.73,890.81
16490,-3.8713,-0.3394,0.0621,-1023.19,-406.98,1265.75
16500,-3.8716,-0.3340,0.0253,570.56,-31.92,984.44
16510,-3.8719,-0.3409,-0.0179,1258.06,-750.67,-640.62
16520,-3.8722,-0.3599,-0.0604,367.43,1718.08,734.31
16530,-3.8726,-0.3838,-0.0874,1945.56,280.52,1984.25
16540,-3.8729,-0.4043,-0.1074,-1116.94,827.33,-125.18
16550,-3.8732,-0.4143,-0.1381,258.06,-1735.17,-109.62
16560,-3.8733,-0.4178,-0.1876,-1023.19,-1657.10,1687.19
16570,-3.8735,-0.4330,-0.2463,-1476.32,-0.85,-31.68
16580,-3.8737,-0.4581,-0.2953,586.18,483.52,-672.36
16590,-3.8737,-0.4728,-0.3390,1367.43,-1782.17,421.26
16600,-3.8738,-0.4663,-0.3785,-507.57,624.02,-1125.67
16610,-3.8738,-0.4470,-0.4058,320.56,-438.42,1749.21
16620,-3.8738,-0.4194,-0.4174,-1210.69,77.21,311.71
16630,-3.8739,-0.3784,-0.4161,-1679.44,-1407.10,-1438.35
16640,-3.8739,-0.3202,-0.4066,-429.44,-1250.79,749.15
16650,-3.8740,-0.2524,-0.3960,-976.32,-31.92,-1000.85
16660,-3.8740,-0.1892,-0.3966,-304.44,1327.58,1342.96
16670,-3.8740,-0.1355,-0.4097,-210.69,1249.57,202.33
16680,-3.8741,-0.0908,-0.4288,-1335.69,-422.18,-875.85
16690,-3.8741,-0.0546,-0.4508,383.06,1124.82,1483.52
16700,-3.8743,-0.0226,-0.4708,1023.68,-1687.62,-282.17
16710,-3.8743,0.0103,-0.4800,1117.43,-250.06,-1625.98
16720,-3.8743,0.0454,-0.4705,1320.56,-1437.50,1983.40
16730,-3.8743,0.0828,-0.4507,1820.56,-218.69,-1579.10
16740,-3.8743,0.1272,-0.4313,-1398.19,-1687.38,-1172.79
16750,-3.8743,0.1771,-0.4148,289.31,797.12,-1078.98
16760,-3.8743,0.2208,-0.3916,-1320.07,-1093.44,-750.85
16770,-3.8741,0.2517,-0.3546,273.68,1875.43,264.83
16780,-3.8741,0.2720,-0.3190,226.81,-1390.14,-1281.98
16790,-3.8740,0.2852,-0.2982,-1179.44,-827.64,-360.05
16800,-3.8738,0.2981,-0.2843,508.06,1828.67,-94.36
16810,-3.8734,0.3169,-0.2637,-1835.69,-390.08,-828.74
16820,-3.8729,0.3424,-0.2264,570.56,-1749.39,499.45
16830,-3.8726,0.3678,-0.1586,-163.82,-983.76,-1187.99
16840,-3.8721,0.3855,-0.0870,-913.82,-296.20,452.76
16850,-3.8717,0.4133,-0.0580,1351.81,860.11,390.44
16860,-3.8715,0.4742,-0.0713,914.31,578.92,62.38
16870,-3.8715,0.5587,-0.1042,711.18,-1124.08,-1953.31
16880,-3.8715,0.6426,-0.1331,-476.32,-1342.71,984.13
16890,-3.8716,0.7072,-0.1350,-1741.94,-1030.03,-750.31
16900,-3.8716,0.7372,-0.1014,-1476.32,-1279.91,-719.06
16910,-3.8715,0.7209,-0.0598,-1632.57,-982.97,-109.62
16920,-3.8711,0.6699,-0.0349,289.31,345.15,-1906.37
16930,-3.8707,0.6050,-0.0046,1758.06,-467.47,-578.25
16940,-3.8702,0.5406,0.0444,1445.56,-592.59,374.94
16950,-3.8699,0.5007,0.0854,1211.18,1688.54,328.19
16960,-3.8695,0.5094,0.0931,101.81,-1061.52,390.75
16970,-3.8691,0.5681,0.0833,1211.18,-77.15,-1859.25
16980,-3.8688,0.6429,0.1051,726.81,-1342.65,-703.00
16990,-3.8685,0.6890,0.1852,-1695.07,1454.35,-1140.44
17000,-3.8684,0.6924,0.2955,195.56,-295.53,656.56
17010,-3.8684,0.6571,0.3801,633.06,1829.47,1516.17
17020,-3.8683,0.5845,0.4078,117.43,657.53,1813.23
17030,-3.8680,0.4879,0.3965,-1179.44,204.22,672.67
17040,-3.8679,0.3888,0.3837,-1538.82,-1249.08,1969.48
17050,-3.8679,0.3010,0.3848,1773.68,1110.11,-171.14
17060,-3.8679,0.2308,0.3925,-1460.69,1250.55,-780.52
17070,-3.8679,0.1671,0.3981,1554.93,-1765.20,719.48
17080,-3.8680,0.0944,0.3998,1398.68,-1046.57,360.11
17090,-3.8683,0.0109,0.4054,86.18,-827.94,-1264.89
17100,-3.8684,-0.0787,0.4092,1398.68,-109.38,219.48
17110,-3.8687,-0.1600,0.4031,1929.93,390.44,-1624.21
17120,-3.8688,-0.2319,0.3997,-476.32,-390.99,-1046.14
17130,-3.8688,-0.2994,0.4130,-1679.44,-828.61,-1514.89
17140,-3.8688,-0.3521,0.4401,1679.93,874.39,-30.46
17150,-3.8687,-0.4019,0.4609,-1054.44,343.02,219.60
17160,-3.8688,-0.4685,0.4559,570.56,-985.17,1125.85
17170,-3.8690,-0.5344,0.4215,39.31,-1625.92,-764.77
17180,-3.8693,-0.5719,0.3700,-398.19,1967.65,-608.58
17190,-3.8695,-0.5619,0.3113,-1195.07,-626.16,-1702.45
17200,-3.8698,-0.5219,0.2483,86.18,-141.72,1125.55
17210,-3.8700,-0.4860,0.1915,1211.18,-204.16,1031.68
17220,-3.8702,-0.4656,0.1688,1804.93,530.27,-1124.63
17230,-3.8704,-0.4618,0.1836,414.31,1624.08,1640.93
17240,-3.8706,-0.4648,0.1917,898.68,-485.29,-390.32
17250,-3.8707,-0.4640,0.1626,508.06,545.96,1578.49
17260,-3.8708,-0.4564,0.1075,617.43,827.21,281.56
17270,-3.8711,-0.4474,0.0453,1586.18,1780.33,-937.32
17280,-3.8712,-0.4386,-0.0087,-1257.57,1811.58,578.19
17290,-3.8715,-0.4258,-0.0446,-132.57,-1094.67,218.69
17300,-3.8718,-0.4143,-0.0663,1508.06,-1688.35,-1609.50
17310,-3.8721,-0.4073,-0.0884,-1023.19,-469.60,218.57
17320,-3.8724,-0.3955,-0.1125,-132.57,702.27,-547.06
17330,-3.8726,-0.3767,-0.1357,1383.06,1608.58,734.13
17340,-3.8728,-0.3669,-0.1671,-210.69,-1360.17,-906.56
17350,-3.8729,-0.3744,-0.2053,1039.31,-1375.73,1484.01
17360,-3.8732,-0.3905,-0.2443,86.18,1733.64,-625.43
17370,-3.8733,-0.4030,-0.2714,-1976.32,749.21,1530.76
17380,-3.8734,-0.4038,-0.2775,429.93,1280.46,1515.08
17390,-3.8735,-0.4004,-0.2754,320.56,499.21,-1047.42
17400,-3.8735,-0.3953,-0.2716,758.06,764.83,780.70
17410,-3.8737,-0.3826,-0.2616,1414.31,1249.21,-1266.17
17420,-3.8737,-0.3541,-0.2468,-960.69,-1469.54,1015.08
17430,-3.8737,-0.3153,-0.2366,-1320.07,421.14,62.01
17440,-3.8738,-0.2771,-0.2361,-351.32,1733.70,-1328.61
17450,-3.8739,-0.2384,-0.2397,539.31,1796.33,-203.61
17460,-3.8739,-0.1990,-0.2490,1492.43,1327.64,640.14
17470,-3.8740,-0.1611,-0.2703,-1460.69,140.20,-1953.61
17480,-3.8740,-0.1219,-0.2966,-616.94,1421.51,233.83
17490,-3.8741,-0.0787,-0.3184,398.68,-1953.37,-578.74
17500,-3.8741,-0.0355,-0.3325,1929.93,-734.56,-203.80
17510,-3.8740,0.0026,-0.3344,-538.82,1453.00,1436.83
17520,-3.8740,0.0330,-0.3235,336.18,1203.12,-391.30
17530,-3.8739,0.0603,-0.3103,226.81,-1406.19,1436.83
17540,-3.8739,0.0938,-0.3048,-273.19,281.31,-719.36
17550,-3.8738,0.1367,-0.3068,8.06,984.56,1874.39
17560,-3.8737,0.1890,-0.3158,1508.06,734.62,1733.76
17570,-3.8735,0.2460,-0.3229,195.56,-421.51,-1360.05
17580,-3.8733,0.3011,-0.2881,-507.57,-1327.70,968.08
17590,-3.8730,0.3433,-0.1969,-1445.07,-874.45,1905.64
17600,-3.8727,0.3732,-0.0984,-54.44,-1202.51,312.07
17610,-3.8723,0.4070,-0.0632,-226.32,-593.08,406.01
17620,-3.8719,0.4615,-0.1029,101.81,-92.96,-1125.18
17630,-3.8715,0.5448,-0.1530,-913.82,-1171.02,546.63
17640,-3.8712,0.6354,-0.1632,1742.43,422.91,-1672.18
17650,-3.8711,0.7046,-0.1121,1336.18,-889.40,-1390.99
17660,-3.8711,0.7388,-0.0114,-1804.44,1657.59,-1578.37
17670,-3.8711,0.7308,0.0917,-1429.44,-1451.72,1062.44
17680,-3.8711,0.6887,0.1542,1554.93,-264.22,-1249.88
17690,-3.8708,0.6398,0.1532,164.31,-264.28,-1374.76
17700,-3.8705,0.6025,0.1083,1898.68,-389.40,-374.76
17710,-3.8700,0.5776,0.0646,1133.06,1860.53,1312.68
17720,-3.8698,0.5659,0.0486,1945.56,266.72,-859.25
17730,-3.8695,0.5657,0.0687,445.56,-1780.15,281.31
17740,-3.8695,0.5675,0.1107,414.31,797.97,1797.00
17750,-3.8695,0.5696,0.1321,648.68,-1827.03,406.43
17760,-3.8696,0.5767,0.1188,914.31,907.35,-1343.51
17770,-3.8696,0.5786,0.0989,1820.56,-795.78,-1827.94
17780,-3.8696,0.5623,0.0994,-1929.44,657.35,-1734.19
17790,-3.8696,0.5300,0.1309,-23.19,719.79,-781.07
17800,-3.8695,0.4879,0.1757,-148.19,750.98,-1921.63
17810,-3.8694,0.4462,0.2026,-1538.82,-1514.71,-702.82
17820,-3.8691,0.4146,0.2102,1117.43,1938.35,-1124.63
17830,-3.8688,0.3827,0.2313,1070.56,-1092.96,250.37
17840,-3.8685,0.3298,0.2909,992.43,1610.11,359.80
17850,-3.8685,0.2661,0.3612,-1773.19,1234.99,-374.45
17860,-3.8685,0.2111,0.3999,-1929.44,-1765.14,-249.33
17870,-3.8684,0.1591,0.4073,-976.32,-812.13,1078.86
17880,-3.8683,0.1169,0.4017,367.43,140.93,1125.79
17890,-3.8682,0.0958,0.4205,-1023.19,-577.94,-639.89
17900,-3.8679,0.0603,0.4872,273.68,1828.31,875.79
17910,-3.8679,-0.0156,0.5626,-273.19,-1640.56,-1577.21
17920,-3.8680,-0.1105,0.5959,-1991.94,31.19,-373.90
17930,-3.8682,-0.2065,0.5696,1867.43,296.63,1235.53
17940,-3.8684,-0.2948,0.4976,1570.56,921.45,251.10
17950,-3.8688,-0.3567,0.4078,-1726.32,-297.49,-1217.83
17960,-3.8690,-0.3903,0.3336,-1648.19,218.02,-483.58
17970,-3.8691,-0.4227,0.2911,-1945.07,-1282.04,1266.24
17980,-3.8694,-0.4609,0.2721,1898.68,1280.40,1563.05
17990,-3.8696,-0.4814,0.2585,1008.06,-1157.17,156.74
18000,-3.8700,-0.4937,0.2347,-1616.94,1108.40,-1905.76
18010,-3.8702,-0.5188,0.2043,820.56,-1938.48,187.93
18020,-3.8706,-0.5488,0.1691,1601.81,-1829.16,1937.87
18030,-3.8710,-0.5641,0.1283,1758.06,1655.15,-452.82
18040,-3.8712,-0.5548,0.0864,-195.07,436.34,1734.62
18050,-3.8715,-0.5255,0.0465,992.43,-922.97,1031.37
18060,-3.8717,-0.4907,0.0125,742.43,1967.71,1515.69
18070,-3.8719,-0.4608,-0.0170,1195.56,1608.40,-1000.00
18080,-3.8721,-0.4397,-0.0468,1023.68,1842.83,1171.81
18090,-3.8723,-0.4310,-0.0763,-273.19,-1969.67,-718.87
18100,-3.8724,-0.4290,-0.1001,836.18,-1750.85,499.82
18110,-3.8727,-0.4258,-0.1266,1101.81,-797.73,437.26
18120,-3.8729,-0.4185,-0.1636,1508.06,-188.35,155.94
18130,-3.8732,-0.4082,-0.1984,-1554.44,-922.73,780.88
18140,-3.8734,-0.3948,-0.2192,-241.94,-1375.85,-1406.68
18150,-3.8735,-0.3785,-0.2319,1476.81,-47.67,1421.39
18160,-3.8737,-0.3539,-0.2473,-445.07,-1672.67,952.64
18170,-3.8738,-0.3209,-0.2660,-1288.82,358.64,1218.26
18180,-3.8739,-0.2845,-0.2823,-1070.07,1968.08,-1875.55
18190,-3.8740,-0.2477,-0.2974,-413.82,-125.61,-609.99
18200,-3.8740,-0.2120,-0.3147,304.93,1952.64,1015.01
18210,-3.8741,-0.1786,-0.3315,867.43,-266.05,-1016.30
18220,-3.8741,-0.1479,-0.3405,1148.68,1577.76,1233.70
18230,-3.8743,-0.1155,-0.3363,1070.56,437.19,-219.42
18240,-3.8743,-0.0779,-0.3265,1226.81,968.51,-1094.42
18250,-3.8743,-0.0360,-0.3188,-1960.69,-1781.43,-781.92
18260,-3.8741,0.0090,-0.3019,-601.32,-797.00,655.58
18270,-3.8741,0.0602,-0.2711,1164.31,1359.38,-1047.49
18280,-3.8740,0.1222,-0.2408,-288.82,1296.94,1546.33
18290,-3.8739,0.1873,-0.2137,-351.32,1172.06,124.51
18300,-3.8739,0.2286,-0.1881,-23.19,640.93,-62.93
18310,-3.8737,0.2483,-0.1648,1273.68,-77.70,1671.45
18320,-3.8734,0.2734,-0.1355,-210.69,-1093.32,1609.01
18330,-3.8732,0.3015,-0.0944,-991.94,-1343.26,-781.56
18340,-3.8728,0.3358,-0.0613,-1398.19,-77.58,1765.38
18350,-3.8724,0.3923,-0.0625,-1007.57,156.86,-1797.00
18360,-3.8719,0.4667,-0.0817,-1773.19,0.73,62.38
18370,-3.8716,0.5450,-0.0725,-257.57,1547.73,515.44
18380,-3.8713,0.6095,-0.0137,1773.68,-1280.21,-1953.31
18390,-3.8711,0.6376,0.0585,-1976.32,-1748.84,-1906.31
18400,-3.8708,0.6227,0.0869,1617.43,-514.40,-1218.69
18410,-3.8705,0.5930,0.0632,-288.82,-873.84,328.25
18420,-3.8702,0.5797,0.0178,-85.69,94.85,625.12
18430,-3.8701,0.5876,-0.0127,-1788.82,-1717.65,734.38
18440,-3.8702,0.6006,-0.0029,-773.19,-1623.90,-593.81
18450,-3.8704,0.6057,0.0287,883.06,-373.84,-1343.81
18460,-3.8705,0.6064,0.0472,1539.31,-326.97,-812.50
18470,-3.8704,0.6052,0.0566,1633.06,-1951.97,1281.31
18480,-3.8701,0.5912,0.0752,1476.81,-748.84,765.69
18490,-3.8699,0.5735,0.0984,-320.07,1626.10,-1312.38
18500,-3.8695,0.5791,0.1183,1414.31,594.85,281.43
18510,-3.8693,0.6025,0.1407,-1866.94,-858.28,140.81
18520,-3.8691,0.6188,0.1720,1133.06,-1983.22,1093.99
18530,-3.8691,0.6218,0.2083,-788.82,-1983.22,-1405.94
18540,-3.8691,0.6128,0.2427,-398.19,-1342.59,-905.88
18550,-3.8690,0.5873,0.2703,-1554.44,-936.34,1500.43
18560,-3.8689,0.5435,0.2894,-820.07,-1405.15,1734.86
18570,-3.8688,0.4822,0.2950,1570.56,1047.91,1266.17
18580,-3.8688,0.4131,0.3020,1726.81,1766.54,-765.08
18590,-3.8687,0.3490,0.3260,883.06,-1342.96,1219.30
18600,-3.8685,0.2957,0.3713,679.93,1735.05,609.99
18610,-3.8684,0.2401,0.4521,1851.81,-468.20,1078.80
18620,-3.8683,0.1499,0.5499,-1257.57,1875.43,375.85
18630,-3.8683,0.0253,0.6121,-804.44,-1609.13,-1858.34
18640,-3.8683,-0.1022,0.6155,-757.57,-1656.25,-686.34
18650,-3.8683,-0.2179,0.5752,-1070.07,-1203.37,-951.97
18660,-3.8684,-0.3131,0.5127,117.43,1640.20,-733.28
18670,-3.8687,-0.3623,0.4449,-70.07,1639.95,-874.02
18680,-3.8689,-0.3510,0.3810,1633.06,968.02,1125.85
18690,-3.8693,-0.3102,0.3329,-913.82,780.52,-30.52
18700,-3.8695,-0.2789,0.3124,304.93,-1375.61,-468.14
18710,-3.8698,-0.2681,0.3026,304.93,-0.55,-1343.20
18720,-3.8700,-0.2749,0.2795,1695.56,-1250.55,1422.42
18730,-3.8702,-0.2899,0.2465,820.56,-203.67,828.61
18740,-3.8705,-0.3057,0.2120,-1101.32,-438.11,1422.30
18750,-3.8707,-0.3274,0.1738,883.06,-844.36,-1468.38
18760,-3.8710,-0.3542,0.1335,-1898.19,-1735.05,-952.82
18770,-3.8712,-0.3777,0.0951,-1335.69,1108.64,-1296.63
18780,-3.8715,-0.3928,0.0564,-335.69,186.71,-1546.69
18790,-3.8717,-0.3970,0.0170,1726.81,-766.42,-1015.56
18800,-3.8718,-0.3906,-0.0188,1195.56,-1813.29,296.88
18810,-3.8721,-0.3833,-0.0471,-1991.94,1608.58,1328.06
18820,-3.8723,-0.3846,-0.0690,-1054.44,1983.58,1578.00
18830,-3.8726,-0.3934,-0.0950,-1226.32,-813.29,-1703.31
18840,-3.8727,-0.4028,-0.1288,1648.68,-141.42,734.13
18850,-3.8728,-0.4058,-0.1621,445.56,-469.54,1405.94
18860,-3.8728,-0.4042,-0.1935,70.56,-735.17,921.51
18870,-3.8728,-0.4000,-0.2225,273.68,-750.79,-359.80
18880,-3.8726,-0.3911,-0.2328,804.93,-469.54,765.14
18890,-3.8724,-0.3773,-0.2131,1945.56,-1782.04,-1781.74
18900,-3.8723,-0.3612,-0.1830,-288.82,733.58,-1328.55
18910,-3.8722,-0.3380,-0.1659,1773.68,593.02,-1437.87
18920,-3.8721,-0.3052,-0.1652,742.43,-1219.42,1999.63
18930,-3.8719,-0.2670,-0.1714,945.56,-1125.61,171.51
18940,-3.8721,-0.2277,-0.1780,1836.18,-1922.42,-78.49
18950,-3.8721,-0.1898,-0.1873,-1132.57,1233.89,984.01
18960,-3.8722,-0.1523,-0.2037,-288.82,46.45,280.88
18970,-3.8724,-0.1172,-0.2228,508.06,1937.19,-1344.18
18980,-3.8726,-0.0786,-0.2365,1008.06,-500.24,499.51
18990,-3.8728,-0.0314,-0.2400,1945.56,1749.82,-1812.99
19000,-3.8729,0.0229,-0.2302,-7.57,1296.75,405.76
19010,-3.8732,0.0876,-0.2089,-1054.44,-1468.75,-62.99
19020,-3.8732,0.1686,-0.1863,-773.19,1265.75,952.70
19030,-3.8733,0.2566,-0.1725,1586.18,156.56,-1062.87
19040,-3.8733,0.3367,-0.1683,851.81,1922.36,-1922.24
19050,-3.8733,0.3966,-0.1702,-898.19,-1546.26,-1312.87
19060,-3.8732,0.4308,-0.1672,-1226.32,-1780.52,1062.13
19070,-3.8730,0.4490,-0.1449,-851.32,-1405.46,109.01
19080,-3.8730,0.4642,-0.1023,1476.81,1453.98,-875.31
19090,-3.8729,0.4783,-0.0624,-570.07,-1092.90,-734.62
19100,-3.8727,0.4972,-0.0573,1226.81,16.54,1437.38
19110,-3.8724,0.5369,-0.0851,-351.32,672.79,-1672.00
19120,-3.8721,0.5986,-0.1072,726.81,1110.41,531.07
19130,-3.8718,0.6675,-0.0951,633.06,-1717.59,1624.76
19140,-3.8716,0.7266,-0.0582,1445.56,-170.59,46.63
19150,-3.8716,0.7632,-0.0214,1008.06,548.28,-187.62
19160,-3.8715,0.7708,0.0114,1695.56,1267.09,-1671.94
19170,-3.8713,0.7440,0.0442,-1335.69,1454.59,656.25
19180,-3.8712,0.6849,0.0726,-757.57,1657.65,62.56
19190,-3.8711,0.6133,0.0842,-320.07,1298.16,1422.00
19200,-3.8710,0.5524,0.0754,-1491.94,-1217.59,-156.13
19210,-3.8707,0.5110,0.0613,-1288.82,1657.29,1812.62
19220,-3.8706,0.4874,0.0613,1414.31,-155.27,-1265.56
19230,-3.8705,0.4769,0.0861,-1601.32,-155.33,-1499.94
19240,-3.8704,0.4651,0.1368,1054.93,-983.46,1593.87
19250,-3.8702,0.4434,0.2058,-460.69,1516.48,1375.24
19260,-3.8700,0.4279,0.2675,758.06,-1655.40,234.74
19270,-3.8698,0.4344,0.3126,-1226.32,-1764.83,-171.39
19280,-3.8693,0.4572,0.3627,-382.57,16.42,-1546.26
19290,-3.8689,0.4753,0.4391,-1476.32,-1577.27,-374.33
19300,-3.8687,0.4661,0.5334,851.81,204.04,-1217.90
19310,-3.8687,0.4230,0.6101,-335.69,282.10,-30.21
19320,-3.8687,0.3621,0.6552,-1851.32,-1905.46,-1233.22
19330,-3.8687,0.2966,0.6758,-1648.19,-139.95,-1748.78
19340,-3.8687,0.2205,0.6874,1976.81,-1499.45,-623.72
19350,-3.8685,0.1219,0.7119,226.81,-15.20,360.66
19360,-3.8687,-0.0027,0.7449,-382.57,-874.82,-1108.03
19370,-3.8688,-0.1545,0.7640,-335.69,-640.69,-1061.10
19380,-3.8689,-0.3241,0.7607,226.81,1812.19,-1982.91
19390,-3.8690,-0.4757,0.7238,-1476.32,1389.95,1954.59
19400,-3.8690,-0.5635,0.6569,-882.57,655.27,1657.65
19410,-3.8689,-0.6130,0.5939,-116.94,92.59,563.78
19420,-3.8689,-0.6731,0.5490,1539.31,30.03,1798.03
19430,-3.8690,-0.7223,0.5012,1851.81,-1720.09,1985.41
19440,-3.8693,-0.7273,0.4340,-445.07,170.41,1735.35
19450,-3.8696,-0.6921,0.3560,-1085.69,-438.96,-811.71
19460,-3.8699,-0.6473,0.2850,-585.69,1576.72,719.42
19470,-3.8702,-0.6200,0.2365,1148.68,498.72,-233.83
19480,-3.8704,-0.6121,0.2128,648.68,-1719.97,1187.93
19490,-3.8705,-0.6067,0.2006,1664.31,-751.22,781.62
19500,-3.8706,-0.5867,0.1824,-1648.19,1686.28,875.37
19510,-3.8707,-0.5552,0.1487,914.31,-641.78,1078.43
19520,-3.8708,-0.5237,0.0963,945.56,-954.22,1484.62
19530,-3.8710,-0.4944,0.0374,976.81,342.71,1750.18
19540,-3.8711,-0.4620,-0.0088,726.81,795.90,1687.56
19550,-3.8712,-0.4315,-0.0382,867.43,-1110.29,-1812.56
19560,-3.8712,-0.4059,-0.0525,773.68,-875.85,31.13
19570,-3.8713,-0.3805,-0.0605,54.93,1296.08,-1468.87
19580,-3.8713,-0.3552,-0.0740,-695.07,264.83,515.50
19590,-3.8715,-0.3324,-0.0950,-1460.69,-1453.86,1577.94
19600,-3.8716,-0.3136,-0.1154,1461.18,-141.30,1890.38
19610,-3.8717,-0.3014,-0.1228,-132.57,1249.33,1484.13
19620,-3.8718,-0.3057,-0.1222,1429.93,296.26,734.13
19630,-3.8719,-0.3209,-0.1360,883.06,374.39,781.01
19640,-3.8721,-0.3326,-0.1721,-1070.07,-1391.30,-1890.93
19650,-3.8722,-0.3347,-0.2122,1429.93,1983.70,-219.12
19660,-3.8722,-0.3284,-0.2400,1164.31,858.70,140.20
19670,-3.8724,-0.3109,-0.2584,1976.81,1296.20,-1219.24
19680,-3.8726,-0.2843,-0.2764,211.18,-1063.11,858.83
19690,-3.8728,-0.2578,-0.2963,-382.57,640.01,-828.67
19700,-3.8729,-0.2350,-0.3175,-991.94,-1906.80,983.76
19710,-3.8732,-0.2123,-0.3420,1929.93,-625.49,-1860.05
19720,-3.8734,-0.1821,-0.3691,836.18,233.95,-141.30
19730,-3.8735,-0.1456,-0.3892,695.56,765.26,-1313.23
19740,-3.8737,-0.1090,-0.3911,1367.43,-1797.18,-1688.29
19750,-3.8738,-0.0789,-0.3867,-1945.07,1952.88,-1828.92
19760,-3.8739,-0.0522,-0.3950,1914.31,-1484.56,-1438.29
19770,-3.8739,-0.0181,-0.4153,1320.56,1453.00,202.33
19780,-3.8740,0.0316,-0.4351,1695.56,-1140.69,-1016.48
19790,-3.8740,0.0956,-0.4456,54.93,312.56,1796.02
19800,-3.8741,0.1648,-0.4425,242.43,-1031.07,-79.04
19810,-3.8741,0.2313,-0.4255,1101.81,-640.32,1592.83
19820,-3.8743,0.2864,-0.4033,1617.43,1531.68,-375.85
19830,-3.8743,0.3395,-0.3842,664.31,375.55,-922.67
19840,-3.8741,0.3914,-0.3647,-538.82,-1171.26,311.71
19850,-3.8741,0.4281,-0.3401,-1898.19,1313.23,-1235.11
19860,-3.8740,0.4495,-0.3098,-1195.07,469.54,1936.83
19870,-3.8739,0.4695,-0.2697,1539.31,344.60,-1813.11
19880,-3.8738,0.4999,-0.2124,101.81,1485.29,-234.92
19890,-3.8735,0.5277,-0.1495,-7.57,813.42,-1812.93
19900,-3.8733,0.5433,-0.0970,-445.07,860.35,1827.82
19910,-3.8730,0.5464,-0.0581,1554.93,-420.84,-375.24
19920,-3.8727,0.5403,-0.0297,1945.56,563.54,-468.87
19930,-3.8722,0.5275,0.0062,1164.31,204.16,656.19
19940,-3.8718,0.5133,0.0603,-476.32,797.85,1750.00
19950,-3.8715,0.5135,0.1174,1711.18,-280.27,-1874.94
19960,-3.8711,0.5354,0.1713,1742.43,-967.77,1422.06
19970,-3.8708,0.5734,0.2341,539.31,1922.91,-671.57
19980,-3.8705,0.6151,0.3013,1398.68,1969.85,1328.55
19990,-3.8701,0.6462,0.3710,-1257.57,-1436.34,1438.05
20000,-3.8698,0.6632,0.4502,-1273.19,-514.40,1672.55
20010,-3.8695,0.6676,0.5217,898.68,1626.28,-1217.90
20020,-3.8693,0.6620,0.5774,1461.18,-1217.47,-1983.40
20030,-3.8690,0.6456,0.6417,742.43,1907.53,1329.22
20040,-3.8689,0.6090,0.7252,-1351.32,-1858.15,-1451.90
20050,-3.8689,0.5522,0.7915,1961.18,829.28,-154.85
20060,-3.8689,0.4900,0.8141,-1304.44,1313.54,-779.72
20070,-3.8689,0.4139,0.8141,-1273.19,204.04,-842.16
20080,-3.8689,0.3102,0.8267,992.43,203.92,-639.04
20090,-3.8689,0.2026,0.8600,-288.82,1813.05,-795.29
20100,-3.8688,0.1263,0.9017,1945.56,-1921.51,814.15
20110,-3.8687,0.0731,0.9412,179.93,-577.88,1517.33
20120,-3.8685,0.0161,0.9755,1367.43,468.87,-826.29
20130,-3.8684,-0.0580,0.9935,-1929.44,859.38,-1357.48
20140,-3.8684,-0.1569,0.9846,586.18,-812.62,-1357.48
20150,-3.8684,-0.2618,0.9636,-70.07,-1953.49,1.89
20160,-3.8685,-0.3507,0.9426,-1507.57,-641.17,1189.33
20170,-3.8687,-0.4182,0.9084,-882.57,671.14,-607.54
20180,-3.8687,-0.4526,0.8553,-1523.19,296.02,-1529.48
20190,-3.8687,-0.4692,0.8081,-1929.44,1499.08,-1498.35
20200,-3.8687,-0.5052,0.7686,-54.44,-547.85,1548.40
20210,-3.8688,-0.5433,0.7101,-663.82,-1610.41,1610.84
20220,-3.8690,-0.5648,0.6298,-1538.82,-1094.85,-1295.53
20230,-3.8693,-0.5798,0.5441,-288.82,623.84,938.72
20240,-3.8698,-0.5973,0.4561,1789.31,1655.09,-327.09
20250,-3.8701,-0.6132,0.3636,-445.07,-1610.60,0.85
20260,-3.8706,-0.6205,0.2755,1523.68,-1438.72,688.17
20270,-3.8711,-0.6176,0.1984,586.18,-719.97,-452.64
20280,-3.8713,-0.6022,0.1298,961.18,1405.03,1344.12
20290,-3.8716,-0.5802,0.0653,-1070.07,623.78,1859.62
20300,-3.8718,-0.5596,0.0115,1742.43,373.84,-62.38
20310,-3.8719,-0.5424,-0.0225,383.06,1483.28,-1859.38
20320,-3.8722,-0.5215,-0.0389,-1413.82,1139.53,-421.94
20330,-3.8724,-0.4948,-0.0585,1258.06,-969.79,-156.37
20340,-3.8726,-0.4624,-0.1031,679.93,530.27,15.50
20350,-3.8728,-0.4309,-0.1674,820.56,-1188.42,-1906.49
20360,-3.8729,-0.3989,-0.2253,851.81,-1407.10,-1469.12
20370,-3.8729,-0.3595,-0.2649,945.56,-828.92,108.89
20380,-3.8730,-0.3060,-0.2820,1992.43,-1891.36,-1813.05
20390,-3.8730,-0.2461,-0.2834,836.18,-78.74,202.51
20400,-3.8732,-0.1929,-0.2809,508.06,-266.11,-1906.86
20410,-3.8732,-0.1484,-0.2755,-679.44,62.07,124.45
20420,-3.8733,-0.1106,-0.2760,1008.06,749.69,1749.45
20430,-3.8734,-0.0758,-0.2928,1851.81,687.26,-891.17
20440,-3.8734,-0.0438,-0.3185,-1695.07,-1468.93,452.51
20450,-3.8735,-0.0059,-0.3339,-1601.32,-750.12,1296.20
20460,-3.8737,0.0400,-0.3413,-741.94,1281.19,1343.08
20470,-3.8738,0.0808,-0.3630,1133.06,312.56,1202.45
20480,-3.8739,0.1075,-0.3997,-1648.19,1531.37,1608.64
20490,-3.8740,0.1226,-0.4259,1773.68,843.93,-532.04
20500,-3.8740,0.1233,-0.4320,-304.44,1484.56,-1485.23
20510,-3.8740,0.1100,-0.4240,-210.69,703.31,1780.40
20520,-3.8740,0.0891,-0.4072,-1913.82,1734.56,1921.02
20530,-3.8739,0.0682,-0.3879,-585.69,-124.88,139.77
20540,-3.8738,0.0594,-0.3638,742.43,-1656.13,577.33
20550,-3.8737,0.0647,-0.3313,-382.57,1437.56,-1735.11
20560,-3.8734,0.0812,-0.2959,289.31,1593.87,483.70
20570,-3.8733,0.1119,-0.2609,-1601.32,-1874.88,-453.74
20580,-3.8730,0.1641,-0.2344,-1663.82,-1390.44,-828.67
20590,-3.8728,0.2428,-0.2156,1008.06,-1999.69,-1422.36
20600,-3.8726,0.3374,-0.1885,-913.82,406.68,1562.07
20610,-3.8723,0.4265,-0.1385,-804.44,-124.39,327.70
20620,-3.8722,0.4948,-0.0504,-1398.19,-1733.58,-640.93
20630,-3.8719,0.5339,0.0472,-663.82,1547.79,-1968.87
20640,-3.8717,0.5513,0.1068,351.81,-1952.09,1406.31
20650,-3.8713,0.5494,0.1434,-1429.44,1672.91,859.56
20660,-3.8708,0.5220,0.1764,-1663.82,-1639.59,797.12
20670,-3.8704,0.4919,0.1898,-1179.44,-1420.90,-593.44
20680,-3.8698,0.4923,0.1801,-1023.19,297.79,-1812.13
20690,-3.8693,0.5261,0.1809,-976.32,-952.21,828.43
20700,-3.8691,0.5704,0.2252,-648.19,-842.77,-734.07
20710,-3.8691,0.6117,0.3005,1023.68,829.22,1437.93
20720,-3.8693,0.6481,0.3644,-1695.07,-1530.09,906.80
20730,-3.8694,0.6710,0.3894,-1038.82,-1358.15,-858.70
20740,-3.8694,0.6810,0.3766,1898.68,1845.03,-61.77
20750,-3.8693,0.6798,0.3473,-820.07,204.41,625.73
20760,-3.8693,0.6666,0.3311,-976.32,454.41,438.17
20770,-3.8694,0.6477,0.3381,1336.18,-1623.72,-577.51
20780,-3.8694,0.6320,0.3652,-1085.69,-717.53,-1405.64
20790,-3.8694,0.6067,0.4185,898.68,-1248.78,-483.70
20800,-3.8693,0.5458,0.4895,1664.31,1563.66,438.29
20810,-3.8694,0.4548,0.5328,1867.43,-1342.71,-1920.96
20820,-3.8695,0.3447,0.5306,-1773.19,203.98,1829.16
20830,-3.8696,0.2069,0.5128,133.06,-77.45,-1483.40
20840,-3.8698,0.0599,0.5006,-1507.57,1640.99,-733.40
20850,-3.8698,-0.0475,0.4966,-320.07,78.19,141.60
20860,-3.8699,-0.1033,0.4985,1929.93,-422.00,-889.71
20870,-3.8699,-0.1499,0.4922,-1210.69,-172.12,-280.33
20880,-3.8699,-0.2202,0.4574,820.56,-984.68,-702.21
20890,-3.8699,-0.3031,0.4003,-179.44,-1437.99,750.85
20900,-3.8700,-0.3834,0.3397,1211.18,-750.61,1641.36
20910,-3.8701,-0.4641,0.2888,-1070.07,-500.79,-702.51
20920,-3.8701,-0.5535,0.2578,601.81,983.46,1359.92
20930,-3.8701,-0.6381,0.2423,1164.31,1014.53,312.99
20940,-3.8701,-0.7010,0.2316,-1663.82,-970.03,-1890.20
20950,-3.8700,-0.7323,0.2142,-1726.32,1654.85,1656.68
20960,-3.8700,-0.7251,0.1812,-1726.32,-563.96,-765.26
20970,-3.8700,-0.6915,0.1342,-804.44,-798.34,1390.93
20980,-3.8701,-0.6495,0.0798,-507.57,1186.10,312.74
20990,-3.8704,-0.6094,0.0398,867.43,-1766.91,890.75
21000,-3.8706,-0.5781,0.0262,-1991.94,1108.15,234.44
21010,-3.8708,-0.5603,0.0166,-1991.94,-626.16,78.12
21020,-3.8711,-0.5405,-0.0134,289.31,-1860.47,-1828.12
21030,-3.8712,-0.5095,-0.0635,-1179.44,-1704.22,1515.56
21040,-3.8713,-0.4714,-0.1145,-1210.69,-110.41,109.19
21050,-3.8716,-0.4363,-0.1490,-335.69,1358.40,906.01
21060,-3.8719,-0.4166,-0.1692,164.31,936.65,-375.31
21070,-3.8722,-0.4095,-0.1869,-1320.07,-1641.48,1390.26
21080,-3.8726,-0.3965,-0.1952,-413.82,92.90,-437.87
21090,-3.8728,-0.3838,-0.1958,1258.06,-969.54,1421.45
21100,-3.8732,-0.3888,-0.2115,-1116.94,-1047.67,-1703.55
21110,-3.8734,-0.4004,-0.2474,-1757.57,936.71,374.57
21120,-3.8737,-0.4080,-0.2832,758.06,342.96,-1687.99
21130,-3.8737,-0.4122,-0.3040,-210.69,-235.23,186.89
21140,-3.8738,-0.4240,-0.3027,-757.57,1108.52,-125.61
21150,-3.8737,-0.4467,-0.2705,1742.43,1264.77,296.26
21160,-3.8737,-0.4648,-0.1992,-1163.82,1389.71,1608.83
21170,-3.8735,-0.4558,-0.0944,508.06,-1485.29,1108.95
21180,-3.8734,-0.4161,-0.0062,1664.31,-63.42,1765.38
21190,-3.8733,-0.3453,0.0255,-1257.57,-782.10,-1921.94
21200,-3.8732,-0.2324,0.0049,-195.07,-719.48,-703.12
21210,-3.8729,-0.0873,-0.0536,-1741.94,640.14,1328.12
21220,-3.8728,0.0741,-0.1190,836.18,1156.07,-1234.50
21230,-3.8727,0.2378,-0.1622,1492.43,765.75,1452.88
21240,-3.8727,0.3789,-0.1754,-1554.44,-765.20,124.63
21250,-3.8729,0.4889,-0.1642,508.06,1547.61,-797.24
21260,-3.8730,0.5576,-0.1392,-1413.82,-1014.71,15.26
21270,-3.8733,0.5887,-0.1035,-616.94,-1811.46,984.07
21280,-3.8734,0.5952,-0.0457,-632.57,-1248.90,171.63
21290,-3.8735,0.5664,0.0160,195.56,-1842.59,-890.75
21300,-3.8734,0.5139,0.0310,508.06,-1952.03,-1421.88
21310,-3.8732,0.4745,-0.0034,1789.31,-30.27,-984.38
21320,-3.8728,0.4535,-0.0491,742.43,-436.58,1749.94
21330,-3.8724,0.4457,-0.0737,-1945.07,1719.60,62.38
21340,-3.8722,0.4742,-0.0592,1054.93,-1436.65,327.94
21350,-3.8721,0.5321,-0.0189,711.18,422.79,796.75
21360,-3.8721,0.5840,0.0178,117.43,1579.16,-734.44
21370,-3.8719,0.6167,0.0388,-1241.94,-1717.65,-1234.38
21380,-3.8717,0.6339,0.0586,-1054.44,969.91,984.44
21390,-3.8715,0.6361,0.0894,1148.68,-498.78,-1296.81
21400,-3.8711,0.6226,0.1305,1429.93,-561.28,-624.88
21410,-3.8706,0.6063,0.1725,-304.44,704.28,47.12
21420,-3.8704,0.6014,0.1959,1617.43,-1920.72,-1921.57
21430,-3.8701,0.5991,0.2019,992.43,1079.28,1969.12
21440,-3.8699,0.5972,0.2145,695.56,1844.91,1609.74
21450,-3.8696,0.5833,0.2808,445.56,-545.72,-1140.26
21460,-3.8694,0.5123,0.4312,-1335.69,-61.40,-499.51
21470,-3.8691,0.3879,0.6155,1586.18,-811.52,1922.67
21480,-3.8689,0.2764,0.7609,1664.31,-1218.02,-1748.84
21490,-3.8685,0.2091,0.8479,-616.94,1391.11,-1795.41
21500,-3.8680,0.1736,0.8868,-1226.32,531.62,267.27
21510,-3.8677,0.1752,0.8875,-1773.19,1515.93,-1654.54
21520,-3.8673,0.2091,0.8690,-1570.07,1594.06,-1467.04
21530,-3.8671,0.2285,0.8633,-1226.32,-765.26,-810.85
21540,-3.8669,0.2012,0.8799,1258.06,-1499.57,-1842.10
21550,-3.8669,0.1362,0.8961,1758.06,625.37,751.71
21560,-3.8671,0.0486,0.8928,1445.56,-1296.63,-1513.92
21570,-3.8672,-0.0513,0.8644,-1773.19,-1718.69,-732.67
21580,-3.8673,-0.1444,0.8108,1445.56,-1343.87,1798.52
21590,-3.8676,-0.2090,0.7310,1523.68,-203.43,1110.90
21600,-3.8679,-0.2368,0.6333,1258.06,1577.70,876.40
21610,-3.8684,-0.2399,0.5415,1695.56,1077.64,1516.85
21620,-3.8689,-0.2380,0.4706,1304.93,1327.64,297.91
21630,-3.8695,-0.2515,0.4167,1539.31,249.51,-1358.46
21640,-3.8700,-0.2834,0.3667,-179.44,1358.83,1094.54
21650,-3.8705,-0.3142,0.3105,-273.19,-1047.49,750.67
21660,-3.8710,-0.3344,0.2411,-210.69,-235.05,-1936.95
21670,-3.8713,-0.3490,0.1560,1211.18,-1125.67,641.05
21680,-3.8717,-0.3569,0.0681,-663.82,-16.36,406.49
21690,-3.8721,-0.3593,-0.0061,-1679.44,733.64,1968.87
21700,-3.8723,-0.3595,-0.0637,-1976.32,-766.36,1468.69
21710,-3.8726,-0.3522,-0.1022,1992.43,-141.36,-1640.81
21720,-3.8728,-0.3417,-0.1239,-1070.07,-1063.23,-953.37
21730,-3.8730,-0.3380,-0.1467,273.68,155.58,1671.63
21740,-3.8734,-0.3307,-0.1804,742.43,1233.70,-1219.06
21750,-3.8737,-0.3096,-0.2316,1679.93,921.20,827.76
21760,-3.8739,-0.2893,-0.2810,383.06,-1625.61,1421.39
21770,-3.8740,-0.2751,-0.2944,-1023.19,46.26,218.20
21780,-3.8743,-0.2642,-0.2800,789.31,-1672.42,-391.24
21790,-3.8744,-0.2633,-0.2714,-1804.44,171.33,-1000.55
21800,-3.8745,-0.2678,-0.2841,-1695.07,1280.70,-984.92
21810,-3.8745,-0.2706,-0.3013,1726.81,-344.30,405.64
21820,-3.8746,-0.2704,-0.3057,1367.43,1452.58,-531.86
21830,-3.8746,-0.2646,-0.3044,1398.68,890.08,-1047.49
21840,-3.8746,-0.2450,-0.3115,-1866.94,1046.33,-1719.36
21850,-3.8746,-0.2008,-0.3339,648.68,140.14,-1516.24
21860,-3.8746,-0.1373,-0.3719,-1695.07,1280.82,-453.80
21870,-3.8745,-0.0740,-0.4120,-1570.07,405.94,1421.14
21880,-3.8745,-0.0170,-0.4329,-1460.69,-718.93,-328.98
21890,-3.8744,0.0439,-0.4258,1836.18,609.31,1139.77
21900,-3.8744,0.1061,-0.3972,1633.06,1500.06,1171.02
21910,-3.8744,0.1584,-0.3557,1586.18,1156.43,1936.71
21920,-3.8743,0.2014,-0.3090,289.31,-1530.94,-1469.48
21930,-3.8740,0.2401,-0.2664,1789.31,453.49,1405.64
21940,-3.8738,0.2825,-0.2275,-1257.57,1906.68,811.95
21950,-3.8735,0.3280,-0.1753,164.31,-1124.45,437.01
21960,-3.8734,0.3641,-0.1046,1992.43,1563.11,-797.24
21970,-3.8732,0.3936,-0.0344,-1382.57,-1389.95,-1609.62
21980,-3.8729,0.4227,0.0063,-1616.94,-405.52,-375.12
21990,-3.8724,0.4647,0.0222,-1882.57,813.29,1453.12
22000,-3.8718,0.5214,0.0675,-507.57,-1155.40,312.50
22010,-3.8713,0.5673,0.1633,-1257.57,641.60,-1078.00
22020,-3.8708,0.5972,0.2574,617.43,907.35,1547.18
22030,-3.8705,0.6310,0.2906,445.56,954.28,594.24
22040,-3.8702,0.6783,0.2620,773.68,1204.35,-1483.83
22050,-3.8699,0.7213,0.2374,-1163.82,1532.53,-1499.51
22060,-3.8694,0.7328,0.2849,336.18,-1607.97,453.55
22070,-3.8690,0.7126,0.4001,1804.93,470.15,688.05
22080,-3.8688,0.6908,0.5063,-773.19,-779.91,406.98
22090,-3.8687,0.6919,0.5325,429.93,813.84,1047.85
22100,-3.8685,0.7150,0.5022,570.56,157.59,-1545.84
22110,-3.8683,0.7306,0.4901,-476.32,282.59,0.98
22120,-3.8683,0.7120,0.5237,1523.68,-1264.22,-608.46
22130,-3.8682,0.6624,0.5776,-851.32,-967.41,1235.35
22140,-3.8680,0.6066,0.6260,789.31,1938.78,32.35
22150,-3.8679,0.5505,0.6617,1648.68,126.16,298.10
22160,-3.8679,0.4867,0.6752,-1523.19,704.16,-623.72
22170,-3.8679,0.4172,0.6652,-1695.07,-1577.21,-545.59
22180,-3.8679,0.3346,0.6500,1414.31,1141.42,110.66
22190,-3.8682,0.2325,0.6257,-1163.82,-796.26,-1217.53
22200,-3.8683,0.1182,0.5884,1773.68,94.18,-1858.15
22210,-3.8684,-0.0133,0.5635,-866.94,-687.32,1391.72
22220,-3.8687,-0.1686,0.5564,-1695.07,140.56,1094.85
22230,-3.8690,-0.3317,0.5487,-1570.07,-765.99,-1998.96
22240,-3.8694,-0.4879,0.5232,1554.93,-1750.67,-1452.09
22250,-3.8698,-0.6146,0.4690,1554.93,-1016.60,-170.90
22260,-3.8700,-0.7023,0.3925,1336.18,45.65,-561.58
22270,-3.8701,-0.7623,0.3275,-1882.57,-1751.40,1750.73
22280,-3.8702,-0.8068,0.2922,-1570.07,1935.97,906.86
22290,-3.8705,-0.8363,0.2645,742.43,1420.29,-140.08
22300,-3.8706,-0.8319,0.2238,961.18,1873.35,-437.01
22310,-3.8706,-0.7975,0.1740,1523.68,654.60,125.43
22320,-3.8707,-0.7604,0.1294,1929.93,-1720.34,640.93
22330,-3.8708,-0.7314,0.0973,-1320.07,576.60,593.99
22340,-3.8710,-0.7057,0.0780,-1616.94,467.29,578.31
22350,-3.8711,-0.6763,0.0668,1679.93,1998.60,1484.50
22360,-3.8712,-0.6426,0.0516,1445.56,561.16,-78.00
22370,-3.8712,-0.6068,0.0298,1758.06,-1376.28,-953.06
22380,-3.8712,-0.5723,0.0055,-1663.82,-173.10,921.88
22390,-3.8713,-0.5409,-0.0258,-1241.94,717.59,125.00
22400,-3.8716,-0.5104,-0.0623,-1226.32,717.65,1265.56
22410,-3.8718,-0.4806,-0.0913,-1320.07,45.84,1437.38
22420,-3.8721,-0.4500,-0.1124,-1507.57,327.15,1734.19
22430,-3.8723,-0.4189,-0.1316,-1585.69,1624.08,-562.74
22440,-3.8724,-0.3882,-0.1511,-1616.94,-828.98,-1172.18
22450,-3.8726,-0.3640,-0.1797,-1679.44,671.08,-1375.31
22460,-3.8727,-0.3417,-0.2164,1414.31,1014.89,-1969.12
22470,-3.8728,-0.3193,-0.2496,273.68,311.83,1202.70
22480,-3.8729,-0.3003,-0.2719,-866.94,61.83,452.64
22490,-3.8732,-0.2831,-0.2847,1570.56,1218.14,-31.80
22500,-3.8733,-0.2650,-0.2935,-226.32,-422.49,-141.24
22510,-3.8733,-0.2466,-0.2988,-1913.82,-1547.42,202.51
22520,-3.8734,-0.2295,-0.3080,445.56,1765.14,686.89
22530,-3.8735,-0.2092,-0.3217,-1366.94,593.26,1436.89
22540,-3.8737,-0.1849,-0.3291,1226.81,-1156.68,-1235.05
22550,-3.8737,-0.1625,-0.3284,336.18,1890.26,608.70
22560,-3.8738,-0.1440,-0.3286,-788.82,1984.01,-1250.67
22570,-3.8738,-0.1194,-0.3322,1570.56,1952.82,1733.70
22580,-3.8738,-0.0892,-0.3344,726.81,1499.76,1452.45
22590,-3.8738,-0.0593,-0.3257,586.18,1218.57,1389.95
22600,-3.8738,-0.0295,-0.2966,414.31,-1672.00,1811.83
22610,-3.8738,0.0059,-0.2606,226.81,-1953.19,-922.49
22620,-3.8737,0.0566,-0.2394,758.06,-1359.38,1765.08
22630,-3.8735,0.1200,-0.2323,-741.94,1359.44,1437.01
22640,-3.8734,0.1871,-0.2264,-632.57,-1734.19,515.14
22650,-3.8734,0.2532,-0.2158,-38.82,-984.07,-1609.86
22660,-3.8733,0.3184,-0.2004,414.31,375.49,187.07
22670,-3.8733,0.3857,-0.1830,758.06,-1655.64,-719.18
22680,-3.8730,0.4453,-0.1682,1383.06,578.86,265.26
22690,-3.8729,0.4874,-0.1517,1008.06,-1530.40,-1484.74
22700,-3.8727,0.5090,-0.1344,-1601.32,579.04,827.82
22710,-3.8726,0.5135,-0.1224,1164.31,-1202.15,-765.93
22720,-3.8723,0.5199,-0.1083,1742.43,329.10,-1984.62
22730,-3.8721,0.5347,-0.0876,-1445.07,-1858.40,1249.76
22740,-3.8718,0.5422,-0.0608,445.56,782.29,1656.07
22750,-3.8716,0.5298,-0.0273,1414.31,219.79,-1906.37
22760,-3.8713,0.5031,0.0129,-179.44,500.98,374.94
22770,-3.8713,0.4774,0.0624,398.68,1657.23,-187.50
22780,-3.8712,0.4623,0.1101,1117.43,-14.71,1781.31
22790,-3.8711,0.4541,0.1475,-820.07,-1905.40,1640.81
22800,-3.8708,0.4519,0.1771,-1866.94,-1124.15,-952.88
22810,-3.8704,0.4625,0.2041,1851.81,-1327.27,-1921.57
22820,-3.8699,0.4885,0.2328,-788.82,-1874.15,-1234.01
22830,-3.8694,0.5219,0.2610,-1460.69,1797.79,469.18
22840,-3.8691,0.5474,0.2837,-1195.07,1407.23,812.99
22850,-3.8690,0.5570,0.2924,-1929.44,313.54,469.30
22860,-3.8690,0.5497,0.2971,-695.07,1422.91,-1343.20
22870,-3.8689,0.5164,0.3237,-1632.57,-1967.71,1500.55
22880,-3.8688,0.4600,0.3623,-1898.19,1438.48,813.11
22890,-3.8687,0.4053,0.3827,-1116.94,-1624.15,1141.30
