timestamp_ms,ax,ay,az,gx,gy,gz
0,-3.8740,-0.4037,-0.2174,1117.43,-297.67,-1500.55
10,-3.8738,-0.4122,-0.1782,336.18,186.71,1890.20
20,-3.8735,-0.4093,-0.1704,-757.57,1202.27,1155.88
30,-3.8734,-0.3983,-0.1833,-382.57,-1797.73,1640.26
40,-3.8732,-0.3971,-0.1848,1023.68,546.08,1109.01
50,-3.8728,-0.4161,-0.1725,1179.93,358.58,859.01
60,-3.8726,-0.4565,-0.1482,-1257.57,1936.65,-828.49
70,-3.8723,-0.5096,-0.1156,1570.56,1045.96,-1031.56
80,-3.8721,-0.5673,-0.0990,-1226.32,1217.71,577.88
90,-3.8721,-0.6191,-0.1022,-601.32,-657.41,-625.24
100,-3.8719,-0.6600,-0.0891,758.06,-1063.72,-140.87
110,-3.8716,-0.6982,-0.0469,-476.32,608.03,1093.57
120,-3.8713,-0.7264,-0.0118,-1366.94,-1985.78,-515.75
130,-3.8711,-0.7181,-0.0078,-976.32,-1501.46,-187.56
140,-3.8708,-0.6663,-0.0231,86.18,-985.78,-1296.94
150,-3.8706,-0.5953,-0.0477,-1273.19,1061.16,1765.56
160,-3.8704,-0.5326,-0.0759,-195.07,1905.03,-1812.62
170,-3.8701,-0.4884,-0.0784,-163.82,-1704.22,-172.06
180,-3.8698,-0.4767,-0.0106,1492.43,1983.40,1687.32
190,-3.8695,-0.4911,0.1184,-1007.57,-1344.73,-312.56
200,-3.8691,-0.4858,0.2393,1148.68,-829.10,1156.43
210,-3.8689,-0.4475,0.2998,1820.56,-1360.35,1203.55
220,-3.8688,-0.4019,0.2847,-1273.19,-1610.29,-202.58
230,-3.8685,-0.3677,0.1979,570.56,452.33,328.67
240,-3.8685,-0.3481,0.0714,945.56,1343.02,-593.38
250,-3.8684,-0.3385,-0.0537,-554.44,1155.52,750.12
260,-3.8685,-0.3301,-0.1415,679.93,1139.95,-297.00
270,-3.8685,-0.3124,-0.1744,1758.06,1905.58,1593.44
280,-3.8687,-0.2844,-0.1669,23.68,1686.89,-47.24
290,-3.8687,-0.2479,-0.1516,-398.19,-1344.36,-500.37
300,-3.8685,-0.2010,-0.1520,273.68,608.89,30.94
310,-3.8685,-0.1412,-0.1503,-1726.32,562.07,1812.19
320,-3.8684,-0.0575,-0.1310,1929.93,780.94,577.82
330,-3.8684,0.0510,-0.1160,648.68,-750.12,-1859.68
340,-3.8684,0.1617,-0.1287,-1460.69,1156.31,1812.26
350,-3.8684,0.2555,-0.1705,711.18,-468.44,859.07
360,-3.8685,0.3257,-0.2305,711.18,-1827.64,-1062.87
370,-3.8685,0.3749,-0.2823,1695.56,-1499.39,983.89
380,-3.8685,0.4161,-0.2954,-7.57,-139.95,280.64
390,-3.8687,0.4641,-0.2643,1273.68,-1811.71,-422.49
400,-3.8687,0.5133,-0.2047,-585.69,-1827.27,1749.45
410,-3.8688,0.5487,-0.1375,1711.18,1797.85,-891.05
420,-3.8689,0.5669,-0.0878,-1757.57,-1592.71,-250.31
430,-3.8690,0.5719,-0.0809,570.56,766.72,-1312.68
440,-3.8693,0.5732,-0.1204,1211.18,1641.72,-265.81
450,-3.8694,0.5751,-0.1764,1383.06,594.85,31.01
460,-3.8698,0.5734,-0.2150,1617.43,1422.97,-250.37
470,-3.8700,0.5656,-0.2234,1398.68,485.47,-1016.05
480,-3.8702,0.5527,-0.2100,398.68,-592.65,-1719.24
490,-3.8705,0.5336,-0.2018,-1241.94,1126.04,921.45
500,-3.8708,0.5056,-0.2213,304.93,-1827.09,-1703.55
510,-3.8712,0.4717,-0.2617,726.81,-327.15,-1359.86
520,-3.8716,0.4362,-0.3047,383.06,-1499.08,1530.70
530,-3.8719,0.4117,-0.3428,-163.82,1000.79,1108.76
540,-3.8723,0.4132,-0.3790,711.18,125.79,-250.67
550,-3.8726,0.4336,-0.4127,898.68,-514.83,-360.17
560,-3.8728,0.4539,-0.4390,-491.94,-827.33,-594.60
570,-3.8730,0.4539,-0.4506,-1898.19,-186.65,-1438.42
580,-3.8733,0.4387,-0.4276,-1898.19,-1671.02,-1313.42
590,-3.8734,0.4283,-0.3768,164.31,1266.48,-1141.48
600,-3.8735,0.4126,-0.3379,-1163.82,-233.58,-1000.79
610,-3.8738,0.4031,-0.3314,820.56,750.79,1530.58
620,-3.8741,0.4146,-0.3613,-398.19,1578.86,499.33
630,-3.8745,0.4226,-0.4159,1070.56,1750.79,1452.39
640,-3.8748,0.4076,-0.4714,-1898.19,-1233.58,-875.85
650,-3.8749,0.3701,-0.5131,179.93,-342.96,-110.35
660,-3.8749,0.3271,-0.5349,-616.94,-1671.20,1186.46
670,-3.8750,0.2942,-0.5363,1883.06,-468.14,-188.60
680,-3.8749,0.2660,-0.5197,1664.31,-640.08,983.28
690,-3.8749,0.2236,-0.4995,-1945.07,1484.86,-1672.91
700,-3.8749,0.1508,-0.4934,633.06,62.93,217.77
710,-3.8439,0.0631,-0.4952,-695.07,843.99,-532.23
720,-3.8439,-0.0066,-0.4943,86.18,609.50,1499.02
730,-3.8439,-0.0542,-0.4956,-835.69,749.94,-1110.35
740,-3.8750,-0.0847,-0.4946,1070.56,578.00,1327.15
750,-3.8749,-0.0995,-0.4656,1164.31,702.94,-1907.23
760,-3.8746,-0.1136,-0.4006,-726.32,421.63,-516.54
770,-3.8743,-0.1394,-0.3326,1461.18,734.13,171.08
780,-3.8743,-0.1713,-0.3022,-1835.69,1437.19,968.08
790,-3.8744,-0.2036,-0.3165,-1913.82,1327.76,952.51
800,-3.8745,-0.2380,-0.3560,1945.56,-500.43,1468.08
810,-3.8745,-0.2705,-0.3981,1539.31,-1547.36,1046.14
820,-3.8744,-0.2976,-0.4142,1383.06,1061.95,-1610.17
830,-3.8740,-0.3241,-0.3839,1914.31,-1000.61,327.27
840,-3.8738,-0.3551,-0.3203,-1476.32,-1125.67,-1610.17
850,-3.8735,-0.3939,-0.2531,-1445.07,-985.11,-1453.80
860,-3.8733,-0.4402,-0.2039,1586.18,-375.79,577.58
870,-3.8732,-0.4813,-0.1841,-335.69,1920.96,1437.07
880,-3.8730,-0.5039,-0.1891,-1601.32,452.15,-1781.62
890,-3.8728,-0.5078,-0.2086,-491.94,-188.54,765.20
900,-3.8726,-0.5101,-0.2354,-991.94,1311.46,-1203.55
910,-3.8722,-0.5378,-0.2522,-1288.82,1889.59,843.26
920,-3.8719,-0.5945,-0.2233,-835.69,-266.72,-1672.42
930,-3.8715,-0.6534,-0.1332,-85.69,-563.72,108.89
940,-3.8711,-0.6874,-0.0281,367.43,-1032.53,-656.56
950,-3.8707,-0.6808,0.0521,23.68,420.53,-671.94
960,-3.8704,-0.6509,0.1309,867.43,-1313.84,-124.94
970,-3.8700,-0.6427,0.1940,695.56,764.34,-1640.38
980,-3.8696,-0.6471,0.1868,1742.43,842.47,31.62
990,-3.8693,-0.6395,0.1398,1179.93,-79.41,-405.94
1000,-3.8687,-0.6283,0.1384,-1851.32,1904.97,1468.99
1010,-3.8683,-0.5991,0.2163,-413.82,1733.09,-46.63
1020,-3.8679,-0.5283,0.3213,-679.44,-298.10,328.49
1030,-3.8678,-0.4156,0.3901,383.06,1139.59,1313.11
1040,-3.8677,-0.3043,0.3909,-1195.07,1952.27,1485.11
1050,-3.8676,-0.2362,0.3165,1054.93,-1953.74,422.61
1060,-3.8676,-0.1912,0.1967,1773.68,530.76,1031.86
1070,-3.8676,-0.1368,0.0687,-460.69,1187.07,859.74
1080,-3.8676,-0.0831,-0.0233,-1507.57,812.19,-421.75
1090,-3.8674,-0.0406,-0.0479,1367.43,1031.07,-546.94
1100,-3.8673,0.0157,-0.0215,-1195.07,1890.50,296.75
1110,-3.8674,0.1140,0.0190,-1976.32,1250.00,-734.44
1120,-3.8674,0.2458,0.0542,-1398.19,-1562.32,-796.88
1130,-3.8674,0.3809,0.0726,-523.19,-1062.07,-1390.56
1140,-3.8676,0.4907,0.0643,758.06,1297.61,-1421.75
1150,-3.8677,0.5706,0.0347,-1179.44,235.29,1437.62
1160,-3.8678,0.6226,-0.0100,1039.31,438.60,718.81
1170,-3.8680,0.6416,-0.0826,-304.44,-1280.09,906.19
1180,-3.8684,0.6545,-0.1802,-1866.94,1423.10,1968.57
1190,-3.8688,0.6794,-0.2704,-210.69,938.72,-1078.49
1200,-3.8690,0.6953,-0.3291,-1023.19,1391.91,827.58
1210,-3.8694,0.7002,-0.3583,1008.06,1876.34,-1172.55
1220,-3.8696,0.7129,-0.3619,1633.06,-1858.03,249.27
1230,-3.8700,0.7429,-0.3289,-741.94,1673.22,-1078.86
1240,-3.8702,0.7821,-0.2737,-898.19,1907.65,-1016.30
1250,-3.8705,0.8168,-0.2280,117.43,970.28,-906.80
1260,-3.8707,0.8361,-0.2039,554.93,-1185.91,-1125.49
1270,-3.8710,0.8336,-0.2015,-976.32,1907.84,1671.45
1280,-3.8713,0.8099,-0.2233,-1288.82,-1795.29,-1016.05
1290,-3.8717,0.7673,-0.2708,-320.07,-576.60,-1687.99
1300,-3.8722,0.7124,-0.3298,-1773.19,1345.21,-391.17
1310,-3.8726,0.6635,-0.3811,-804.44,1782.59,-1250.67
1320,-3.8728,0.6339,-0.4191,929.93,-779.97,-313.29
1330,-3.8729,0.6146,-0.4496,1148.68,-1639.40,-203.98
1340,-3.8730,0.5942,-0.4709,-1320.07,-1545.72,1952.21
1350,-3.8733,0.5724,-0.4738,70.56,-280.09,1139.65
1360,-3.8737,0.5405,-0.4645,1273.68,-639.53,-250.98
1370,-3.8739,0.4927,-0.4603,1195.56,547.91,-1579.04
1380,-3.8741,0.4434,-0.4714,-929.44,1079.04,1405.33
1390,-3.8744,0.4093,-0.4965,758.06,-342.90,-1313.48
1400,-3.8745,0.3905,-0.5260,398.68,453.92,-1657.23
1410,-3.8746,0.3719,-0.5476,1992.43,672.61,-485.41
1420,-3.8746,0.3390,-0.5560,-382.57,1906.92,-1204.22
1430,-3.8746,0.2841,-0.5598,-601.32,828.74,-1719.85
1440,-3.8748,0.2133,-0.5594,367.43,344.30,-813.60
1450,-3.8749,0.1479,-0.5402,-695.07,390.99,-219.85
1460,-3.8749,0.0970,-0.5092,-1054.44,-1140.38,-1297.97
1470,-3.8749,0.0536,-0.4926,429.93,-1171.69,-1126.04
1480,-3.8749,0.0179,-0.4980,-1132.57,953.19,-875.98
1490,-3.8749,-0.0129,-0.5199,-1695.07,250.00,-782.23
1500,-3.8748,-0.0472,-0.5416,-1648.19,1468.69,77.09
1510,-3.8748,-0.0894,-0.5381,1961.18,-1312.62,-594.85
1520,-3.8745,-0.1461,-0.5055,570.56,-859.56,873.90
1530,-3.8744,-0.2185,-0.4532,1304.93,-687.81,1436.46
1540,-3.8743,-0.2950,-0.3951,39.31,1999.57,592.83
1550,-3.8743,-0.3612,-0.3572,-1757.57,1436.89,-1828.92
1560,-3.8743,-0.4008,-0.3521,1773.68,-1703.86,1499.27
1570,-3.8743,-0.4083,-0.3562,711.18,-1047.67,-1110.11
1580,-3.8740,-0.3928,-0.3497,-257.57,-1578.98,1155.52
1590,-3.8739,-0.3687,-0.3433,1726.81,-750.79,-235.11
1600,-3.8738,-0.3448,-0.3384,820.56,77.39,-1094.42
1610,-3.8737,-0.3297,-0.3241,-132.57,702.39,389.95
1620,-3.8735,-0.3353,-0.2914,1804.93,-1469.42,311.83
1630,-3.8733,-0.3564,-0.2286,1086.18,-1281.92,1015.01
1640,-3.8729,-0.3768,-0.1368,-1616.94,-1250.73,796.39
1650,-3.8726,-0.3954,-0.0416,-226.32,-1500.79,171.57
1660,-3.8723,-0.4263,0.0376,1398.68,-1313.29,1015.50
1670,-3.8722,-0.4781,0.1102,1445.56,827.27,-984.31
1680,-3.8721,-0.5477,0.1659,-1195.07,-1875.98,-1812.32
1690,-3.8718,-0.6173,0.1963,1898.68,1248.90,828.43
1700,-3.8715,-0.6653,0.2147,992.43,1139.40,-999.63
1710,-3.8710,-0.6793,0.2091,-1148.19,-501.34,-1624.63
1720,-3.8706,-0.6643,0.1837,1054.93,-1220.09,-1155.88
1730,-3.8702,-0.6467,0.1656,-1023.19,-470.09,1906.56
1740,-3.8700,-0.6519,0.1548,1226.81,1217.47,-1468.44
1750,-3.8699,-0.6742,0.1466,570.56,-173.16,-1077.88
1760,-3.8698,-0.6906,0.1495,1711.18,-1220.09,-702.88
1770,-3.8695,-0.6906,0.1539,-382.57,-845.15,-1624.76
1780,-3.8693,-0.6710,0.1572,-382.57,-282.65,1765.87
1790,-3.8690,-0.6299,0.1676,-1882.57,139.28,953.43
1800,-3.8688,-0.5686,0.1771,-616.94,1467.47,156.56
1810,-3.8687,-0.4891,0.1727,-773.19,-1313.66,1656.56
1820,-3.8685,-0.4019,0.1559,1398.68,-1875.98,-1937.19
1830,-3.8684,-0.3335,0.1401,570.56,-32.04,-687.26
1840,-3.8682,-0.2966,0.1487,1320.56,1952.45,-1265.38
1850,-3.8678,-0.2786,0.1765,-1960.69,-953.74,265.87
1860,-3.8677,-0.2483,0.1857,351.81,-1391.17,-187.19
1870,-3.8676,-0.1823,0.1482,226.81,-219.24,-1593.44
1880,-3.8676,-0.0847,0.0757,679.93,-1015.99,1625.24
1890,-3.8676,0.0343,0.0106,1164.31,1702.94,31.37
1900,-3.8677,0.1547,-0.0325,398.68,1359.44,-125.00
1910,-3.8676,0.2590,-0.0598,-195.07,-156.01,765.50
1920,-3.8677,0.3567,-0.0649,1164.31,344.24,-390.75
1930,-3.8678,0.4698,-0.0444,1664.31,-311.83,-859.56
1940,-3.8679,0.6139,-0.0072,148.68,-1686.58,-1890.75
1950,-3.8680,0.7727,0.0184,-1413.82,-920.72,-1250.06
1960,-3.8682,0.9058,0.0138,-1085.69,-1639.16,-1031.25
1970,-3.8684,0.9899,-0.0256,-54.44,1767.33,-468.75
1980,-3.8687,1.0217,-0.0961,-1288.82,720.64,765.56
1990,-3.8690,1.0155,-0.1608,-1210.69,-294.92,1687.26
2000,-3.8693,0.9934,-0.1770,1992.43,-576.17,-1344.12
2010,-3.8693,0.9604,-0.1482,-835.69,1345.64,812.13
2020,-3.8694,0.9172,-0.1193,-1054.44,1033.08,-1656.56
2030,-3.8696,0.8661,-0.1177,1414.31,736.15,-843.99
2040,-3.8699,0.8176,-0.1370,-1132.57,939.15,-1781.49
2050,-3.8701,0.7834,-0.1660,664.31,-1529.66,1718.44
2060,-3.8705,0.7607,-0.2000,289.31,-1248.47,-328.49
2070,-3.8708,0.7451,-0.2296,1383.06,-1592.29,-47.30
2080,-3.8712,0.7246,-0.2527,-616.94,-1389.22,-141.11
2090,-3.8716,0.6918,-0.2775,758.06,-342.35,-469.30
2100,-3.8719,0.6619,-0.3031,554.93,485.72,-1109.92
2110,-3.8723,0.6409,-0.3223,726.81,1204.41,-672.49
2120,-3.8726,0.6145,-0.3315,-1960.69,-1248.78,-1766.30
2130,-3.8728,0.5726,-0.3146,-1335.69,1563.66,-563.17
2140,-3.8729,0.5150,-0.2593,1304.93,-264.53,-1453.80
2150,-3.8730,0.4585,-0.2006,1929.93,-1186.52,1280.70
2160,-3.8733,0.4342,-0.1873,-1304.44,-1671.02,843.32
2170,-3.8737,0.4451,-0.2209,-413.82,32.04,-1609.74
2180,-3.8739,0.4620,-0.2672,976.81,-280.40,124.51
2190,-3.8743,0.4650,-0.3044,-851.32,1797.73,1390.08
2200,-3.8746,0.4637,-0.3302,-476.32,1032.10,-1266.24
2210,-3.8749,0.4736,-0.3420,-632.57,1735.23,-172.55
2220,-3.8749,0.4833,-0.3417,633.06,219.67,-1813.17
2230,-3.8749,0.4711,-0.3322,1867.43,266.54,-1328.80
2240,-3.8748,0.4244,-0.3015,304.93,1485.29,139.95
2250,-3.8748,0.3347,-0.2465,-1663.82,1407.04,-938.11
2260,-3.8748,0.2191,-0.1881,-1148.19,453.74,-625.49
2270,-3.8749,0.1196,-0.1469,54.93,-77.70,-141.05
2280,-3.8750,0.0536,-0.1318,-679.44,1203.31,-359.68
2290,-3.8439,0.0138,-0.1439,-1132.57,-874.94,-625.31
2300,-3.8440,-0.0150,-0.1763,1773.68,1578.12,-453.43
2310,-3.8440,-0.0479,-0.2102,-1913.82,1453.06,-797.24
2320,-3.8439,-0.0927,-0.2292,1883.06,1109.25,-1234.80
2330,-3.8750,-0.1484,-0.2219,148.68,-1328.31,-797.36
2340,-3.8748,-0.2084,-0.1895,1008.06,-390.93,1015.14
2350,-3.8745,-0.2672,-0.1501,1336.18,-234.80,140.20
2360,-3.8744,-0.3225,-0.1067,1804.93,796.33,-1750.31
2370,-3.8743,-0.3751,-0.0681,-1273.19,-1641.30,-625.24
2380,-3.8740,-0.4189,-0.0513,-7.57,-703.92,1843.57
2390,-3.8738,-0.4451,-0.0542,-1616.94,1452.27,1109.25
2400,-3.8737,-0.4573,-0.0688,-960.69,1077.21,-812.62
2410,-3.8734,-0.4685,-0.0836,1476.81,-797.79,-359.56
2420,-3.8730,-0.4838,-0.0846,39.31,1311.58,-1250.18
2430,-3.8728,-0.4994,-0.0695,-1913.82,1186.52,-625.18
2440,-3.8726,-0.5270,-0.0559,86.18,-875.98,906.07
2450,-3.8724,-0.5709,-0.0485,554.93,858.34,1687.38
2460,-3.8723,-0.6144,-0.0267,-1070.07,1811.34,-937.62
2470,-3.8719,-0.6509,0.0209,1367.43,592.53,1609.31
2480,-3.8715,-0.6825,0.0665,695.56,-1313.78,140.62
2490,-3.8712,-0.6906,0.0635,648.68,529.91,-1593.63
2500,-3.8710,-0.6538,0.0132,-382.57,139.22,328.25
2510,-3.8708,-0.5952,-0.0476,320.56,1701.84,-1421.88
2520,-3.8706,-0.5562,-0.0947,-179.44,1920.65,1031.13
2530,-3.8705,-0.5505,-0.1102,820.56,-110.47,-1718.99
2540,-3.8702,-0.5702,-0.0815,1539.31,1905.15,1781.01
2550,-3.8699,-0.6039,-0.0322,-976.32,1576.97,1015.44
2560,-3.8696,-0.6409,0.0012,-1288.82,-110.60,-609.50
2570,-3.8694,-0.6705,0.0140,1976.81,170.59,-1656.25
2580,-3.8693,-0.6842,0.0081,-1820.07,1811.16,781.25
2590,-3.8694,-0.6750,-0.0168,429.93,1045.53,-1296.88
2600,-3.8694,-0.6373,-0.0453,1601.81,1858.03,-1968.81
2610,-3.8693,-0.5760,-0.0680,-1570.07,-1782.53,-1703.25
2620,-3.8690,-0.5072,-0.0874,-1726.32,-688.66,999.82
2630,-3.8688,-0.4410,-0.1012,-913.82,827.09,452.94
2640,-3.8687,-0.3801,-0.1007,-445.07,-938.42,-484.62
2650,-3.8684,-0.3315,-0.0745,-648.19,-875.79,249.76
2660,-3.8684,-0.2997,-0.0247,1570.56,-1516.30,-1000.18
2670,-3.8683,-0.2751,0.0217,1648.68,858.76,1296.81
2680,-3.8682,-0.2340,0.0284,789.31,-1203.67,31.25
2690,-3.8682,-0.1667,-0.0128,-1945.07,-344.24,-1640.62
2700,-3.8682,-0.0791,-0.0829,-1335.69,-1625.37,-437.56
2710,-3.8680,0.0096,-0.1483,1883.06,1406.07,1374.82
2720,-3.8680,0.0680,-0.1768,1242.43,1015.62,-828.43
2730,-3.8680,0.0883,-0.1650,711.18,1375.12,-484.74
2740,-3.8679,0.1011,-0.1343,-695.07,-1124.88,30.88
2750,-3.8679,0.1368,-0.1068,945.56,-1187.32,1702.82
2760,-3.8679,0.1975,-0.0944,1523.68,-1671.63,1749.76
2770,-3.8680,0.2694,-0.0983,1289.31,-77.76,1234.13
2780,-3.8683,0.3560,-0.1158,-1507.57,-577.64,-797.12
2790,-3.8684,0.4541,-0.1392,1570.56,1172.55,-828.37
2800,-3.8685,0.5181,-0.1484,-1866.94,-1811.65,-140.93
2810,-3.8685,0.5160,-0.1312,-1679.44,1000.98,1734.07
2820,-3.8685,0.4659,-0.1088,-1945.07,-795.90,-1578.43
2830,-3.8684,0.4070,-0.1069,-351.32,-1921.02,1015.38
2840,-3.8683,0.3693,-0.1201,101.81,-1686.71,796.63
2850,-3.8682,0.3656,-0.1219,-726.32,625.67,343.51
2860,-3.8683,0.3936,-0.0989,-1195.07,391.30,-531.49
2870,-3.8685,0.4325,-0.0614,-1616.94,-655.52,-1765.87
2880,-3.8690,0.4658,-0.0255,-632.57,141.42,796.75
2890,-3.8698,0.5009,-0.0057,-366.94,735.23,-1093.81
2900,-3.8704,0.5254,-0.0087,117.43,-733.40,906.19
2910,-3.8710,0.5104,-0.0232,-741.94,-1108.40,-1078.19
2920,-3.8713,0.4543,-0.0403,1336.18,1032.23,1624.94
2930,-3.8717,0.3766,-0.0547,-1835.69,-1155.40,-1468.87
2940,-3.8719,0.3043,-0.0646,211.18,1000.73,812.38
2950,-3.8723,0.2584,-0.0842,-1038.82,-265.08,-562.68
2960,-3.8726,0.2357,-0.1166,1086.18,1219.24,1562.32
2970,-3.8729,0.2166,-0.1390,-1820.07,1078.55,-390.87
2980,-3.8733,0.1923,-0.1322,-273.19,-1796.51,-140.93
2990,-3.8737,0.1664,-0.1090,617.43,-921.51,15.32
3000,-3.8743,0.1438,-0.0957,1304.93,-1952.82,-1297.12
3010,-3.8746,0.1335,-0.1064,-1585.69,-249.76,187.26
3020,-3.8750,0.1349,-0.1447,1101.81,-1624.76,843.51
3030,-3.8440,0.1321,-0.1941,1273.68,1484.62,1437.19
3040,-3.8441,0.1105,-0.2362,914.31,-843.51,-1047.30
3050,-3.8440,0.0764,-0.2679,-1851.32,1765.81,124.51
3060,-3.8440,0.0433,-0.2957,1789.31,1703.25,-1688.05
3070,-3.8440,0.0117,-0.3210,1554.93,-1843.69,-578.74
3080,-3.8439,-0.0239,-0.3340,1508.06,-1093.75,530.58
3090,-3.8439,-0.0712,-0.3295,945.56,1265.56,-219.42
3100,-3.8750,-0.1355,-0.3181,-1101.32,1843.57,-63.17
3110,-3.8749,-0.2042,-0.3082,-1335.69,-703.43,-1797.55
3120,-3.8749,-0.2600,-0.2935,1867.43,562.07,-594.36
3130,-3.8748,-0.2957,-0.2744,-1273.19,-1547.42,-1438.11
3140,-3.8746,-0.3175,-0.2670,-1835.69,890.01,-1922.42
3150,-3.8746,-0.3373,-0.2799,-632.57,1843.08,-547.42
3160,-3.8745,-0.3529,-0.2959,836.18,186.83,-1547.42
3170,-3.8743,-0.3601,-0.3035,-1163.82,-1860.11,-1609.99
3180,-3.8740,-0.3629,-0.3141,1914.31,1171.14,-1156.86
3190,-3.8738,-0.3649,-0.3240,1554.93,-188.23,30.58
3200,-3.8737,-0.3643,-0.3176,1304.93,-1453.86,-375.67
3210,-3.8733,-0.3663,-0.3064,1383.06,-641.36,-1031.92
3220,-3.8730,-0.3743,-0.3077,1117.43,796.14,-1063.11
3230,-3.8729,-0.3787,-0.3113,101.81,624.27,-578.74
3240,-3.8727,-0.3708,-0.3068,-460.69,171.08,1436.89
3250,-3.8724,-0.3535,-0.3080,539.31,749.27,46.26
3260,-3.8723,-0.3383,-0.3103,-1241.94,593.02,1702.51
3270,-3.8721,-0.3378,-0.2917,711.18,296.20,-1391.24
3280,-3.8717,-0.3694,-0.2578,773.68,-1328.80,-1438.11
3290,-3.8713,-0.4330,-0.2288,726.81,-985.11,436.95
3300,-3.8712,-0.5033,-0.2073,586.18,-1266.48,-234.86
3310,-3.8710,-0.5510,-0.1821,-413.82,1483.34,-391.05
3320,-3.8706,-0.5605,-0.1624,1476.81,702.03,296.51
3330,-3.8705,-0.5417,-0.1694,258.06,-766.72,-1547.24
3340,-3.8704,-0.5067,-0.1951,-1335.69,-1672.97,1327.76
3350,-3.8704,-0.4650,-0.2192,-851.32,-954.16,-641.05
3360,-3.8702,-0.4274,-0.2394,492.43,-47.79,1983.89
3370,-3.8701,-0.3995,-0.2368,1304.93,1374.15,1390.14
3380,-3.8699,-0.3837,-0.1807,867.43,1702.33,1968.26
3390,-3.8694,-0.3826,-0.0620,-1101.32,889.83,-1265.99
3400,-3.8689,-0.3939,0.0598,-960.69,77.33,171.75
3410,-3.8688,-0.3694,0.1042,1586.18,-328.92,-796.81
3420,-3.8684,-0.2729,0.0773,726.81,1358.64,-1765.44
3430,-3.8679,-0.1421,0.0322,1070.56,1905.70,109.50
3440,-3.8677,-0.0170,0.0024,1820.56,140.32,-1718.69
3450,-3.8676,0.0861,0.0099,1836.18,328.06,-968.75
3460,-3.8674,0.1335,0.0656,-976.32,1265.75,1390.62
3470,-3.8673,0.0983,0.1403,1101.81,390.87,0.12
3480,-3.8673,0.0199,0.1716,586.18,1953.31,1140.87
3490,-3.8674,-0.0183,0.1304,-1445.07,1968.75,-280.94
3500,-3.8674,0.0199,0.0430,1664.31,703.06,1125.24
3510,-3.8676,0.1158,-0.0437,-1445.07,1500.00,-1937.44
3520,-3.8676,0.2487,-0.0953,-1163.82,-1593.57,203.00
3530,-3.8676,0.3831,-0.1046,-163.82,-202.70,499.76
3540,-3.8676,0.4739,-0.0758,1039.31,-1389.89,31.01
3550,-3.8677,0.5099,-0.0167,664.31,-1702.21,156.07
3560,-3.8679,0.5128,0.0436,1273.68,1860.35,-1578.19
3570,-3.8680,0.5131,0.0726,1648.68,1579.10,250.06
3580,-3.8683,0.5326,0.0581,1679.93,1297.85,1625.12
3590,-3.8685,0.5747,0.0090,179.93,-561.46,-984.31
3600,-3.8688,0.6267,-0.0547,1570.56,1157.35,-1078.12
3610,-3.8690,0.6748,-0.1116,226.81,1001.22,1281.13
3620,-3.8693,0.7063,-0.1349,-1616.94,1720.03,1374.76
3630,-3.8694,0.7090,-0.1135,-1585.69,-1264.28,765.32
3640,-3.8695,0.6863,-0.0753,-1241.94,1470.09,265.38
3650,-3.8698,0.6543,-0.0535,-148.19,-1639.34,406.07
3660,-3.8701,0.6238,-0.0507,-241.94,1157.47,-593.87
3670,-3.8702,0.5933,-0.0546,-148.19,1516.78,703.00
3680,-3.8705,0.5630,-0.0594,-54.44,1016.72,-250.12
3690,-3.8706,0.5441,-0.0718,70.56,391.72,1609.25
3700,-3.8710,0.5431,-0.1006,1648.68,-1186.46,-265.81
3710,-3.8713,0.5498,-0.1399,1523.68,-873.96,-1703.37
3720,-3.8718,0.5420,-0.1693,-1616.94,-1905.21,-312.81
3730,-3.8722,0.5157,-0.1844,1383.06,-1670.84,1718.38
3740,-3.8726,0.4897,-0.2037,-1976.32,391.60,1530.88
3750,-3.8729,0.4739,-0.2378,-1304.44,1922.79,-703.55
3760,-3.8732,0.4664,-0.2843,664.31,1563.42,1546.39
3770,-3.8735,0.4608,-0.3312,-288.82,-389.77,-750.61
3780,-3.8738,0.4509,-0.3651,-1007.57,1610.23,1249.33
3790,-3.8740,0.4370,-0.3853,1726.81,1266.48,1780.52
3800,-3.8741,0.4178,-0.4004,-54.44,-1311.71,514.83
3810,-3.8744,0.3978,-0.4036,1492.43,750.79,-1032.04
3820,-3.8744,0.3737,-0.3682,-1070.07,344.48,702.33
3830,-3.8743,0.3105,-0.2985,-163.82,875.67,-1906.98
3840,-3.8743,0.1987,-0.2382,-241.94,1797.42,-1375.61
3850,-3.8746,0.1110,-0.2190,1445.56,1515.99,-922.36
3860,-3.8749,0.1106,-0.2426,-1788.82,-31.07,983.89
3870,-3.8750,0.1658,-0.2980,-1835.69,953.31,-516.11
3880,-3.8749,0.2157,-0.3678,1226.81,1859.68,1686.89
3890,-3.8749,0.2318,-0.4333,-382.57,922.24,-1641.36
3900,-3.8749,0.2076,-0.4775,1679.93,531.68,1436.65
3910,-3.8749,0.1522,-0.4913,-1413.82,-1124.63,-1485.35
3920,-3.8748,0.0787,-0.4838,-507.57,1109.62,-1750.98
3930,-3.8746,-0.0021,-0.4663,-1913.82,-1921.75,717.77
3940,-3.8746,-0.0752,-0.4443,-257.57,328.06,327.21
3950,-3.8748,-0.1377,-0.4254,-1616.94,-859.56,-1016.54
3960,-3.8748,-0.1940,-0.4160,-1616.94,1562.19,-1328.98
3970,-3.8746,-0.2432,-0.4073,-820.07,-1234.80,1124.15
3980,-3.8745,-0.2906,-0.3873,883.06,-125.49,-188.35
3990,-3.8743,-0.3398,-0.3617,-1195.07,-1563.11,-219.54
4000,-3.8740,-0.3704,-0.3430,508.06,1718.08,624.27
4010,-3.8739,-0.3654,-0.3318,601.81,108.64,124.33
4020,-3.8738,-0.3380,-0.3241,1242.43,1546.14,1764.95
4030,-3.8737,-0.3129,-0.3243,742.43,-1469.42,-110.05
4040,-3.8734,-0.3024,-0.3320,-38.82,-1500.67,14.95
4050,-3.8734,-0.3105,-0.3380,1304.93,1515.01,-438.17
4060,-3.8732,-0.3413,-0.3328,258.06,749.39,1108.70
4070,-3.8729,-0.3915,-0.3143,320.56,1421.20,514.95
4080,-3.8728,-0.4501,-0.2924,1898.68,-219.54,-610.05
4090,-3.8726,-0.4998,-0.2668,-1601.32,-1407.17,-609.99
4100,-3.8722,-0.5338,-0.2250,39.31,1858.40,1874.45
4110,-3.8719,-0.5582,-0.1945,-320.07,-782.35,1780.76
4120,-3.8717,-0.5604,-0.2041,554.93,-876.10,546.45
4130,-3.8715,-0.5459,-0.2345,273.68,1889.53,874.57
4140,-3.8712,-0.5443,-0.2568,-1866.94,1998.90,1624.51
4150,-3.8708,-0.5642,-0.2449,-1663.82,-860.47,171.33
4160,-3.8706,-0.5973,-0.1891,-210.69,670.72,-453.61
4170,-3.8702,-0.6169,-0.1191,-445.07,-188.72,765.20
4180,-3.8701,-0.5853,-0.0823,1039.31,764.40,-390.87
4190,-3.8699,-0.4929,-0.0836,1086.18,1483.22,-1484.56
4200,-3.8696,-0.3745,-0.0922,914.31,1311.52,-1812.68
4210,-3.8694,-0.2682,-0.0940,70.56,218.02,1531.07
4220,-3.8691,-0.1935,-0.0961,1679.93,-16.17,1015.38
4230,-3.8688,-0.1500,-0.1001,-757.57,-281.68,390.38
4240,-3.8684,-0.1266,-0.0951,804.93,-797.18,-609.62
4250,-3.8679,-0.1155,-0.0863,-195.07,-156.56,1015.38
4260,-3.8677,-0.1100,-0.0851,1226.81,968.51,-78.31
4270,-3.8673,-0.1006,-0.0813,1929.93,1124.76,1531.07
4280,-3.8671,-0.0807,-0.0685,-866.94,1609.13,1921.69
4290,-3.8668,-0.0326,-0.0548,1679.93,-750.18,827.94
4300,-3.8667,0.0741,-0.0435,-163.82,999.88,-1828.25
4310,-3.8666,0.2301,-0.0345,1492.43,-1562.38,718.63
4320,-3.8667,0.3851,-0.0223,1461.18,-421.45,-62.62
4330,-3.8667,0.5090,0.0117,1304.93,1141.36,1640.56
4340,-3.8668,0.5996,0.0667,1164.31,1500.98,-140.62
4350,-3.8668,0.6664,0.1068,758.06,532.41,1343.87
4360,-3.8669,0.7240,0.1041,1304.93,1673.16,0.18
4370,-3.8672,0.7788,0.0740,679.93,1329.53,812.68
4380,-3.8674,0.8247,0.0420,-304.44,1470.21,109.50
4390,-3.8678,0.8446,0.0150,1570.56,1376.59,187.56
4400,-3.8683,0.8319,-0.0028,117.43,1923.52,-1437.50
4410,-3.8687,0.7976,-0.0094,-1507.57,-357.79,-1203.19
4420,-3.8689,0.7520,-0.0122,-1898.19,-1201.60,1156.19
4430,-3.8691,0.7043,-0.0142,258.06,-1561.04,46.81
4440,-3.8695,0.6683,-0.0150,-1835.69,-1811.16,-1812.56
4450,-3.8699,0.6500,-0.0266,1554.93,-1920.59,-1187.56
4460,-3.8702,0.6509,-0.0602,-788.82,594.97,-1984.44
4470,-3.8706,0.6635,-0.1074,-679.44,298.10,984.25
4480,-3.8710,0.6669,-0.1527,929.93,-1748.72,749.76
4490,-3.8713,0.6482,-0.1866,1367.43,454.41,93.44
4500,-3.8718,0.6127,-0.2123,-1023.19,110.60,1499.63
4510,-3.8723,0.5748,-0.2367,-1570.07,829.28,-766.05
4520,-3.8727,0.5468,-0.2605,1586.18,1704.22,-344.24
4530,-3.8729,0.5367,-0.2810,1992.43,-1342.71,1796.33
4540,-3.8732,0.5500,-0.2941,711.18,32.29,1890.08
4550,-3.8733,0.5781,-0.2981,-1585.69,-1639.59,624.39
4560,-3.8735,0.5988,-0.2991,-1991.94,1844.85,-1031.86
4570,-3.8738,0.5930,-0.3046,648.68,1719.91,-1953.74
4580,-3.8741,0.5543,-0.3145,-85.69,1016.72,-281.86
4590,-3.8744,0.4939,-0.3221,-1038.82,-248.96,-250.67
4600,-3.8745,0.4302,-0.3260,-773.19,-1233.46,-375.67
4610,-3.8745,0.3694,-0.3386,-929.44,-1733.58,733.70
4620,-3.8746,0.3130,-0.3652,-710.69,656.92,374.33
4630,-3.8749,0.2632,-0.3955,70.56,1250.61,-922.61
4640,-3.8750,0.2196,-0.4176,1695.56,1375.49,-1860.17
4650,-3.8439,0.1843,-0.4263,117.43,-1452.70,-1266.48
4660,-3.8439,0.1576,-0.4209,-398.19,1437.81,1827.27
4670,-3.8439,0.1331,-0.4082,179.93,-1874.69,1499.15
4680,-3.8440,0.1075,-0.3990,1039.31,-249.76,-250.85
4690,-3.8440,0.0825,-0.3977,1773.68,922.06,-1907.04
4700,-3.8440,0.0562,-0.4023,-1429.44,1093.87,-1719.54
4710,-3.8439,0.0195,-0.4082,-804.44,500.06,202.33
4720,-3.8439,-0.0289,-0.4081,-1491.94,-250.00,-969.60
4730,-3.8750,-0.0839,-0.3997,304.93,-218.81,-1703.98
4740,-3.8749,-0.1427,-0.3815,1273.68,859.19,-1500.79
4750,-3.8746,-0.2017,-0.3474,1742.43,-812.81,921.08
4760,-3.8744,-0.2593,-0.3000,-1804.44,-453.55,1718.02
4770,-3.8741,-0.3131,-0.2576,-1179.44,1608.83,1608.76
4780,-3.8740,-0.3550,-0.2360,-70.07,-953.80,655.70
4790,-3.8741,-0.3757,-0.2426,-1429.44,1811.77,-281.74
4800,-3.8741,-0.3787,-0.2748,-85.69,967.96,-234.86
4810,-3.8740,-0.3806,-0.3107,-460.69,842.96,-78.67
4820,-3.8737,-0.3831,-0.3258,-710.69,249.21,468.14
4830,-3.8734,-0.3800,-0.3275,-1023.19,-1688.29,1546.20
4840,-3.8733,-0.3751,-0.3352,-632.57,-1907.04,-485.05
4850,-3.8730,-0.3745,-0.3447,-7.57,1108.58,1452.45
4860,-3.8728,-0.3959,-0.3423,70.56,-110.11,1514.89
4870,-3.8726,-0.4490,-0.3243,1336.18,202.33,1249.33
4880,-3.8724,-0.5122,-0.3014,-1460.69,-1500.92,-1203.80
4890,-3.8723,-0.5522,-0.2841,-1554.44,1436.46,-1297.49
4900,-3.8722,-0.5521,-0.2672,1320.56,-344.85,-1797.49
4910,-3.8721,-0.5042,-0.2471,1336.18,1811.40,1936.95
4920,-3.8719,-0.4214,-0.2266,-523.19,389.59,1062.01
4930,-3.8718,-0.3472,-0.2146,-1929.44,-985.23,530.76
4940,-3.8717,-0.3296,-0.2092,-429.44,546.14,-1594.18
4950,-3.8715,-0.3878,-0.1881,1820.56,1233.70,-562.93
4960,-3.8711,-0.4894,-0.1477,-1632.57,-63.29,1593.32
4970,-3.8708,-0.5704,-0.1165,1367.43,1108.40,1593.44
4980,-3.8706,-0.5924,-0.1129,-1007.57,1108.22,390.38
4990,-3.8705,-0.5659,-0.1316,179.93,1561.34,-1359.62
5000,-3.8704,-0.5146,-0.1625,-429.44,-829.28,-1375.31
5010,-3.8702,-0.4589,-0.1874,-1866.94,-782.29,1265.26
5020,-3.8701,-0.4170,-0.1853,1273.68,30.33,1030.88
5030,-3.8700,-0.3872,-0.1571,-1366.94,296.02,-1328.49
5040,-3.8698,-0.3577,-0.1108,-1554.44,-94.54,-1219.12
5050,-3.8694,-0.3403,-0.0461,-1773.19,1827.39,1296.63
5060,-3.8691,-0.3424,0.0206,445.56,-1891.30,-406.37
5070,-3.8689,-0.3423,0.0571,179.93,-1344.42,-343.75
5080,-3.8687,-0.3112,0.0629,195.56,-672.55,-1187.44
5090,-3.8684,-0.2401,0.0653,179.93,61.89,1297.00
5100,-3.8683,-0.1411,0.0781,1273.68,374.51,-1499.88
5110,-3.8682,-0.0315,0.0923,1945.56,-1984.68,-1421.75
5120,-3.8680,0.0594,0.0950,-23.19,-172.00,1500.12
5130,-3.8679,0.1057,0.0835,-382.57,156.31,47.06
5140,-3.8679,0.1113,0.0553,1539.31,-1312.32,-1718.63
5150,-3.8679,0.0961,0.0111,-1741.94,-921.69,-249.94
5160,-3.8678,0.0750,-0.0283,304.93,1422.06,31.25
5170,-3.8679,0.0635,-0.0431,1601.81,375.12,-1078.19
5180,-3.8679,0.0784,-0.0316,133.06,-1515.50,1499.88
5190,-3.8679,0.1310,0.0032,-1960.69,-46.75,-1968.87
5200,-3.8678,0.2186,0.0455,773.68,406.49,203.12
5210,-3.8678,0.3188,0.0625,-7.57,1828.49,734.44
5220,-3.8679,0.4148,0.0392,820.56,0.61,1765.75
5230,-3.8680,0.5040,-0.0131,1101.81,1016.42,15.69
5240,-3.8683,0.5732,-0.0720,523.68,-1670.90,1234.31
5250,-3.8685,0.6107,-0.1130,1383.06,-1217.65,-828.31
5260,-3.8687,0.6184,-0.1228,-1820.07,1532.41,-1890.87
5270,-3.8688,0.6008,-0.1100,-835.69,282.41,1218.51
5280,-3.8689,0.5707,-0.0959,914.31,1923.03,124.76
5290,-3.8691,0.5562,-0.0962,1054.93,-280.15,-968.99
5300,-3.8693,0.5736,-0.1121,-804.44,-311.46,1124.76
5310,-3.8695,0.6121,-0.1301,1429.93,1657.35,1656.01
5320,-3.8698,0.6545,-0.1381,-1648.19,-655.09,515.32
5330,-3.8701,0.6882,-0.1338,-210.69,-1670.65,-1640.93
5340,-3.8704,0.7013,-0.1151,101.81,-1123.66,1874.69
5350,-3.8706,0.6890,-0.0859,1773.68,1266.97,-1109.62
5360,-3.8708,0.6626,-0.0526,195.56,1001.34,-453.31
5370,-3.8710,0.6371,-0.0256,820.56,1266.91,1062.38
5380,-3.8712,0.6189,-0.0251,1554.93,719.97,-1250.06
5390,-3.8715,0.6118,-0.0585,-773.19,782.41,-1093.81
5400,-3.8717,0.6108,-0.1116,-1679.44,516.78,-1922.00
5410,-3.8719,0.6029,-0.1659,-1804.44,1719.91,62.26
5420,-3.8723,0.5852,-0.2124,1179.93,-1233.22,140.26
5430,-3.8727,0.5651,-0.2509,-1085.69,813.60,218.32
5440,-3.8730,0.5402,-0.2802,336.18,-108.28,-563.05
5450,-3.8732,0.5007,-0.3013,1148.68,141.66,-1453.67
5460,-3.8733,0.4512,-0.3162,101.81,1438.48,-1266.24
5470,-3.8734,0.4076,-0.3226,1758.06,-467.90,936.83
5480,-3.8737,0.3801,-0.3237,179.93,-1296.08,-1375.67
5490,-3.8738,0.3660,-0.3232,664.31,-1436.77,1530.58
5500,-3.8739,0.3549,-0.3203,-1148.19,-1374.33,874.33
5510,-3.8740,0.3398,-0.3119,1429.93,-999.33,46.20
5520,-3.8743,0.3207,-0.3007,-491.94,78.74,-984.99
5530,-3.8744,0.3002,-0.2964,1054.93,1516.24,1608.76
5540,-3.8746,0.2808,-0.3055,-1570.07,-1936.95,-188.11
5550,-3.8748,0.2598,-0.3243,-54.44,891.11,-1328.74
5560,-3.8749,0.2325,-0.3439,1258.06,-1515.14,-985.05
5570,-3.8749,0.1938,-0.3583,1773.68,-15.20,1030.52
5580,-3.8749,0.1389,-0.3623,820.56,-1859.01,686.77
5590,-3.8749,0.0714,-0.3568,1789.31,1625.24,1171.14
5600,-3.8749,0.0009,-0.3491,1148.68,-1671.75,-1969.48
5610,-3.8749,-0.0630,-0.3403,117.43,-687.50,-985.11
5620,-3.8748,-0.1135,-0.3273,-54.44,452.94,1046.20
5630,-3.8746,-0.1500,-0.3147,1476.81,-1875.24,702.45
5640,-3.8746,-0.1741,-0.3079,804.93,-265.93,-235.05
5650,-3.8745,-0.1919,-0.3080,1726.81,609.01,1421.26
5660,-3.8745,-0.2166,-0.3118,-554.44,593.32,-16.24
5670,-3.8743,-0.2585,-0.3145,289.31,108.95,780.64
5680,-3.8741,-0.3145,-0.3108,-1085.69,-234.92,-1797.55
5690,-3.8739,-0.3621,-0.2926,-241.94,233.70,311.89
5700,-3.8738,-0.3831,-0.2640,1664.31,-1438.23,-281.86
5710,-3.8735,-0.3776,-0.2509,-1023.19,-1782.04,-1969.30
5720,-3.8734,-0.3654,-0.2708,-320.07,-94.54,-1234.92
5730,-3.8732,-0.3729,-0.3081,1242.43,1358.64,499.45
5740,-3.8729,-0.4078,-0.3409,273.68,577.39,780.64
5750,-3.8728,-0.4604,-0.3656,-195.07,374.15,-281.92
5760,-3.8727,-0.5074,-0.3838,1070.56,1217.83,1749.27
5770,-3.8727,-0.5297,-0.3845,-945.07,-1110.41,-250.79
5780,-3.8724,-0.5332,-0.3611,211.18,-1204.16,-1563.29
5790,-3.8722,-0.5361,-0.3265,-241.94,1795.78,1139.89
5800,-3.8721,-0.5424,-0.2927,-616.94,-1782.35,296.20
5810,-3.8719,-0.5588,-0.2396,-1413.82,-1454.22,1983.76
5820,-3.8717,-0.5977,-0.1738,476.81,1342.65,-984.86
5830,-3.8713,-0.6229,-0.1508,-491.94,1764.40,421.51
5840,-3.8711,-0.6005,-0.1851,273.68,717.53,-1672.18
5850,-3.8708,-0.5575,-0.2432,-851.32,326.90,-1719.12
5860,-3.8707,-0.5262,-0.2964,648.68,889.53,-1000.49
5870,-3.8706,-0.5151,-0.3237,648.68,-1922.91,-906.86
5880,-3.8704,-0.5333,-0.2969,-1929.44,-1422.91,-860.05
5890,-3.8700,-0.5718,-0.2222,-257.57,-1985.47,-859.99
5900,-3.8696,-0.5881,-0.1476,-1179.44,-423.03,-1391.11
5910,-3.8693,-0.5593,-0.1080,726.81,1123.84,702.82
5920,-3.8690,-0.5057,-0.1040,414.31,-1813.60,-734.62
5930,-3.8687,-0.4586,-0.1094,-726.32,-1297.91,-1234.62
5940,-3.8683,-0.4288,-0.0984,1304.93,-1985.29,-1031.49
5950,-3.8679,-0.4058,-0.0696,1117.43,-578.98,-1937.74
5960,-3.8677,-0.3712,-0.0338,70.56,-891.42,-437.68
5970,-3.8673,-0.3199,-0.0004,492.43,-313.23,374.88
5980,-3.8672,-0.2552,0.0177,-945.07,-31.92,-578.19
5990,-3.8671,-0.1749,0.0173,-663.82,-1719.30,-687.50
6000,-3.8671,-0.0835,0.0043,1617.43,-1765.99,-281.25
6010,-3.8671,0.0079,-0.0161,1320.56,562.32,984.38
6020,-3.8672,0.0872,-0.0369,1023.68,1937.50,406.19
6030,-3.8673,0.1504,-0.0518,-835.69,-718.63,468.63
6040,-3.8674,0.2079,-0.0587,-741.94,1375.24,1874.88
6050,-3.8676,0.2733,-0.0626,-1382.57,484.74,-1875.12
6060,-3.8678,0.3506,-0.0723,-1007.57,-15.14,-1031.43
6070,-3.8680,0.4312,-0.0867,883.06,-1249.33,1890.44
6080,-3.8683,0.5023,-0.0911,-804.44,907.04,-1375.18
6090,-3.8684,0.5615,-0.0774,304.93,344.73,-1531.43
6100,-3.8685,0.6149,-0.0576,-116.94,-1905.21,-312.68
6110,-3.8685,0.6586,-0.0457,-1288.82,626.16,46.75
6120,-3.8688,0.6777,-0.0387,304.93,-1842.47,1812.38
6130,-3.8690,0.6705,-0.0325,-1241.94,-951.84,531.13
6140,-3.8694,0.6577,-0.0365,1836.18,-154.97,687.38
6150,-3.8699,0.6628,-0.0604,195.56,-670.59,-828.25
6160,-3.8702,0.6926,-0.0994,851.81,266.91,1999.88
6170,-3.8706,0.7275,-0.1384,664.31,-717.41,-1187.74
6180,-3.8708,0.7433,-0.1653,1133.06,-1717.35,859.07
6190,-3.8712,0.7426,-0.1835,-851.32,-1154.85,-1172.24
6200,-3.8715,0.7394,-0.2034,-945.07,517.03,640.26
6210,-3.8718,0.7325,-0.2240,-1351.32,1970.15,-1609.80
6220,-3.8722,0.7087,-0.2419,1773.68,-670.47,-203.61
6230,-3.8724,0.6653,-0.2533,-1273.19,1032.59,-1359.86
6240,-3.8726,0.6189,-0.2568,1164.31,-420.59,124.45
6250,-3.8728,0.5834,-0.2588,-773.19,-873.84,1796.33
6260,-3.8730,0.5623,-0.2556,-1320.07,-1123.90,-1250.55
6270,-3.8732,0.5491,-0.2438,-23.19,-717.71,1093.20
6280,-3.8733,0.5260,-0.2332,-1710.69,797.91,608.89
6290,-3.8735,0.4937,-0.2357,-663.82,-1842.77,-1031.74
6300,-3.8738,0.4714,-0.2599,-804.44,1829.04,-609.86
6310,-3.8740,0.4612,-0.3054,351.81,-1264.71,-1672.42
6320,-3.8743,0.4465,-0.3584,-960.69,907.10,1780.64
6330,-3.8745,0.4177,-0.4000,1164.31,-1874.15,-625.73
6340,-3.8746,0.3735,-0.4198,1476.81,797.67,-1172.67
6350,-3.8748,0.3180,-0.4220,-179.44,-1733.70,-782.10
6360,-3.8749,0.2650,-0.4167,711.18,1984.99,-453.98
6370,-3.8749,0.2239,-0.4070,1929.93,-1343.26,46.02
6380,-3.8750,0.1873,-0.3865,664.31,-93.32,-1219.60
6390,-3.8749,0.1454,-0.3464,-23.19,-1468.44,-1532.04
6400,-3.8746,0.0907,-0.2952,-1382.57,-343.51,702.39
6410,-3.8746,0.0249,-0.2576,-382.57,-1781.13,-1063.11
6420,-3.8746,-0.0356,-0.2499,-804.44,-968.75,311.95
6430,-3.8748,-0.0874,-0.2714,-554.44,31.13,1515.14
6440,-3.8748,-0.1431,-0.3110,820.56,1281.07,1858.83
6450,-3.8746,-0.2080,-0.3496,1695.56,202.82,1124.39
6460,-3.8745,-0.2745,-0.3676,1383.06,-734.80,1327.39
6470,-3.8744,-0.3291,-0.3557,867.43,968.20,1530.52
6480,-3.8743,-0.3666,-0.3234,1883.06,-1516.30,1702.39
6490,-3.8741,-0.3838,-0.2906,1086.18,-1375.73,1061.83
6500,-3.8740,-0.3734,-0.2715,-1116.94,-1188.29,265.01
6510,-3.8739,-0.3458,-0.2767,211.18,1264.89,30.70
6520,-3.8739,-0.3303,-0.3077,-257.57,593.02,-484.92
6530,-3.8738,-0.3513,-0.3474,1726.81,624.33,-797.49
6540,-3.8735,-0.4065,-0.3751,-960.69,-453.86,1561.77
6550,-3.8733,-0.4772,-0.3828,-23.19,-0.85,1436.71
6560,-3.8732,-0.5427,-0.3777,-1070.07,-985.35,-594.54
6570,-3.8729,-0.5873,-0.3657,-1460.69,-329.22,358.58
6580,-3.8728,-0.6006,-0.3550,836.18,1201.97,1218.02
6590,-3.8727,-0.5785,-0.3622,-866.94,-1423.10,1218.02
6600,-3.8726,-0.5339,-0.3846,1961.18,1655.09,1405.52
6610,-3.8724,-0.4951,-0.4054,-335.69,-1219.85,-1110.17
6620,-3.8722,-0.4865,-0.4104,633.06,124.02,1171.08
6630,-3.8721,-0.5087,-0.3892,1742.43,-516.60,-313.35
6640,-3.8718,-0.5433,-0.3350,-1101.32,-1797.91,-0.79
6650,-3.8716,-0.5848,-0.2706,-1538.82,1139.53,-781.92
6660,-3.8715,-0.6161,-0.2535,1148.68,1373.84,-875.55
6670,-3.8712,-0.6168,-0.2848,1148.68,-438.72,108.83
6680,-3.8711,-0.5907,-0.3197,1054.93,-438.72,-828.74
6690,-3.8707,-0.5571,-0.3359,398.68,-907.41,343.08
6700,-3.8704,-0.5460,-0.3184,695.56,1014.53,264.95
6710,-3.8701,-0.5558,-0.2609,-1882.57,-735.47,-297.55
6720,-3.8699,-0.5585,-0.1869,867.43,-1376.10,-719.30
6730,-3.8696,-0.5355,-0.1241,523.68,92.65,1515.26
6740,-3.8694,-0.4960,-0.0734,-538.82,123.90,-1609.62
6750,-3.8690,-0.4651,-0.0210,523.68,-1375.98,-1812.68
6760,-3.8685,-0.4390,0.0394,476.81,1327.21,171.81
6770,-3.8682,-0.3794,0.0938,-179.44,1061.58,-1312.44
6780,-3.8678,-0.2651,0.1091,-554.44,14.83,-1968.57
6790,-3.8676,-0.1265,0.0802,-1929.44,1983.83,828.31
6800,-3.8674,-0.0095,0.0382,-179.44,-1719.06,1265.75
6810,-3.8674,0.0638,0.0044,-1210.69,906.19,-124.94
6820,-3.8674,0.0936,-0.0140,179.93,562.62,-703.12
6830,-3.8676,0.0962,-0.0138,-7.57,-1796.75,-125.06
6840,-3.8676,0.0968,-0.0004,320.56,-1765.44,328.06
6850,-3.8677,0.1173,0.0110,398.68,-46.69,-1406.31
6860,-3.8677,0.1698,0.0049,-976.32,1406.43,-1968.75
6870,-3.8677,0.2540,-0.0179,1742.43,625.31,1093.75
6880,-3.8678,0.3522,-0.0370,523.68,1703.61,-1343.81
6890,-3.8679,0.4376,-0.0337,1086.18,-733.70,-1093.87
6900,-3.8680,0.4963,-0.0148,23.68,-311.65,-1250.12
6910,-3.8682,0.5292,0.0029,-460.69,-1889.71,-968.81
6920,-3.8683,0.5459,0.0110,-257.57,375.98,-484.38
6930,-3.8684,0.5583,0.0099,1883.06,1407.29,-593.75
6940,-3.8685,0.5713,0.0068,-523.19,1266.66,-1062.50
6950,-3.8687,0.5850,0.0072,1133.06,876.10,-1734.38
6960,-3.8688,0.6006,0.0040,-1116.94,922.97,765.62
6970,-3.8690,0.6190,-0.0129,883.06,516.78,1328.12
6980,-3.8694,0.6339,-0.0443,-757.57,-1655.09,-1328.19
6990,-3.8698,0.6375,-0.0768,1148.68,-1670.65,1031.13
7000,-3.8702,0.6328,-0.0920,1601.81,-1826.90,-906.43
7010,-3.8706,0.6279,-0.0906,1008.06,219.97,-1109.56
7020,-3.8710,0.6296,-0.0945,383.06,407.47,-390.81
7030,-3.8712,0.6466,-0.1188,601.81,-92.53,234.13
7040,-3.8716,0.6709,-0.1553,-1226.32,798.10,734.13
7050,-3.8719,0.6755,-0.1875,1883.06,126.28,1405.94
7060,-3.8723,0.6495,-0.2164,-1523.19,1.28,-1500.37
7070,-3.8726,0.6116,-0.2544,-851.32,298.10,608.95
7080,-3.8729,0.5765,-0.2942,-1710.69,-561.34,-375.55
7090,-3.8730,0.5455,-0.3121,1804.93,-1655.15,-1828.74
7100,-3.8730,0.5166,-0.3015,1836.18,47.91,-1844.36
7110,-3.8730,0.4825,-0.2799,-1866.94,1407.23,1108.76
7120,-3.8733,0.4535,-0.2627,1773.68,172.79,-969.30
7130,-3.8735,0.4390,-0.2480,-1945.07,-1624.15,-297.42
7140,-3.8737,0.4276,-0.2356,195.56,250.85,-906.74
7150,-3.8737,0.4127,-0.2308,-1257.57,1844.54,608.89
7160,-3.8738,0.3967,-0.2324,836.18,-1546.08,1796.39
7170,-3.8739,0.3789,-0.2395,-1210.69,-1749.27,-1734.86
7180,-3.8740,0.3572,-0.2593,508.06,1344.48,1937.01
7190,-3.8741,0.3296,-0.2894,1726.81,-1186.83,1077.58
7200,-3.8743,0.2904,-0.3184,-1804.44,-1046.26,796.26
7210,-3.8744,0.2394,-0.3409,1179.93,-749.45,-1953.80
7220,-3.8744,0.1843,-0.3571,-1351.32,359.80,452.45
7230,-3.8745,0.1306,-0.3663,-398.19,-1702.82,-1047.61
7240,-3.8745,0.0754,-0.3673,726.81,1109.62,-1719.48
7250,-3.8745,0.0135,-0.3619,1664.31,984.50,-610.11
7260,-3.8744,-0.0536,-0.3534,1742.43,1671.88,561.77
7270,-3.8744,-0.1189,-0.3464,1148.68,-1218.87,311.77
7280,-3.8745,-0.1744,-0.3422,789.31,-328.37,-78.86
7290,-3.8744,-0.2147,-0.3352,1679.93,218.38,1108.70
7300,-3.8743,-0.2380,-0.3207,523.68,1108.95,1343.08
7310,-3.8741,-0.2499,-0.3024,1539.31,-1031.74,-94.42
7320,-3.8740,-0.2603,-0.2875,23.68,1312.01,-281.86
7330,-3.8740,-0.2729,-0.2825,-1304.44,-781.80,-1984.99
7340,-3.8741,-0.2869,-0.2959,1070.56,-141.17,1749.39
7350,-3.8743,-0.3051,-0.3270,-710.69,-1859.99,-1234.99
7360,-3.8743,-0.3329,-0.3619,961.18,-1844.36,-469.42
7370,-3.8740,-0.3713,-0.3875,1398.68,1686.83,-1719.48
7380,-3.8737,-0.4209,-0.3976,476.81,-1578.86,1749.21
7390,-3.8734,-0.4803,-0.3988,-1866.94,1124.15,-203.92
7400,-3.8732,-0.5438,-0.3966,-1476.32,967.77,1014.83
7410,-3.8732,-0.6075,-0.3928,-1601.32,1248.90,-719.54
7420,-3.8730,-0.6630,-0.3989,-1757.57,1733.15,452.33
7430,-3.8730,-0.6932,-0.4196,-851.32,951.78,1561.71
7440,-3.8729,-0.6901,-0.4435,-726.32,-1688.90,1983.52
7450,-3.8727,-0.6659,-0.4558,-320.07,-751.40,-188.42
7460,-3.8723,-0.6421,-0.4471,-1226.32,1670.53,-985.29
7470,-3.8719,-0.6331,-0.4166,1820.56,-1220.03,952.21
7480,-3.8717,-0.6414,-0.3745,-1023.19,-1313.78,-1250.85
7490,-3.8715,-0.6565,-0.3342,1914.31,76.84,-1406.98
7500,-3.8713,-0.6711,-0.3058,-23.19,1233.03,1561.83
7510,-3.8713,-0.6832,-0.3081,-1898.19,873.66,-1109.99
7520,-3.8712,-0.6899,-0.3434,554.93,576.78,-1188.11
7530,-3.8710,-0.6940,-0.3761,-304.44,61.10,77.45
7540,-3.8707,-0.6903,-0.3624,-820.07,-126.40,77.33
7550,-3.8705,-0.6705,-0.2992,-351.32,1623.60,-0.73
7560,-3.8700,-0.6371,-0.2155,-1820.07,1717.41,-1984.99
7570,-3.8695,-0.6001,-0.1198,-1538.82,436.22,-1672.30
7580,-3.8690,-0.5643,-0.0201,-804.44,686.28,-953.37
7590,-3.8685,-0.5070,0.0568,-226.32,1436.34,-1921.94
7600,-3.8682,-0.4127,0.1024,-882.57,-719.79,-109.31
7610,-3.8677,-0.3066,0.1279,-820.07,1124.15,1437.68
7620,-3.8673,-0.2224,0.1381,758.06,390.01,1703.37
7630,-3.8671,-0.1781,0.1229,-460.69,1687.01,1687.74
7640,-3.8669,-0.1707,0.0890,1211.18,-250.37,1218.93
7650,-3.8669,-0.1774,0.0536,-1835.69,-594.12,-1703.00
7660,-3.8669,-0.1703,0.0161,1304.93,-1125.37,890.69
7670,-3.8671,-0.1295,-0.0127,-1788.82,-1922.24,781.25
7680,-3.8673,-0.0558,-0.0177,-570.07,-1609.68,-359.44
7690,-3.8674,0.0353,-0.0084,867.43,1749.88,-1406.31
7700,-3.8676,0.1348,0.0000,523.68,-1078.06,-1312.56
7710,-3.8677,0.2340,0.0009,1258.06,0.24,-31.25
7720,-3.8677,0.3188,-0.0042,1961.18,109.80,875.00
7730,-3.8678,0.3779,-0.0038,820.56,-530.64,546.81
7740,-3.8680,0.4098,0.0143,383.06,-483.64,-468.81
7750,-3.8682,0.4188,0.0446,461.18,1828.92,-1046.88
7760,-3.8683,0.4230,0.0677,1617.43,1703.92,-1687.44
7770,-3.8684,0.4463,0.0719,-1851.32,672.67,15.75
7780,-3.8688,0.4910,0.0582,1133.06,1203.98,-828.00
7790,-3.8691,0.5454,0.0354,-1148.19,-545.96,-312.44
7800,-3.8695,0.5988,0.0107,1820.56,532.29,-1296.81
7810,-3.8699,0.6385,-0.0114,648.68,1376.16,-1500.00
7820,-3.8702,0.6582,-0.0316,1742.43,-1451.90,-109.44
7830,-3.8705,0.6620,-0.0536,258.06,-45.59,1703.00
7840,-3.8708,0.6581,-0.0719,742.43,1141.91,-718.87
7850,-3.8711,0.6442,-0.0812,242.43,-1201.84,31.07
7860,-3.8716,0.6166,-0.0820,-1538.82,1610.60,-31.43
7870,-3.8718,0.5963,-0.0797,-1070.07,1501.16,859.19
7880,-3.8722,0.6025,-0.0857,336.18,1798.03,-1656.43
7890,-3.8726,0.6316,-0.1113,1133.06,1032.41,-937.68
7900,-3.8728,0.6714,-0.1558,851.81,1751.22,499.76
7910,-3.8732,0.7036,-0.2075,1945.56,63.78,-422.18
7920,-3.8734,0.7122,-0.2582,-1929.44,1438.84,-1094.18
7930,-3.8737,0.6896,-0.3004,-835.69,-1045.53,-953.67
7940,-3.8738,0.6375,-0.3273,273.68,1548.22,-984.99
7950,-3.8738,0.5642,-0.3379,1601.81,-1889.40,-1985.05
7960,-3.8738,0.4824,-0.3386,226.81,751.10,311.83
7970,-3.8739,0.4004,-0.3370,1758.06,657.17,233.70
7980,-3.8741,0.3243,-0.3362,-741.94,860.11,1358.70
7990,-3.8744,0.2690,-0.3378,1523.68,969.36,1764.95
8000,-3.8745,0.2520,-0.3494,-1554.44,766.11,671.20
8010,-3.8746,0.2635,-0.3792,258.06,-718.26,1030.52
8020,-3.8748,0.2729,-0.4176,1742.43,-530.76,1249.21
8030,-3.8749,0.2660,-0.4459,-1054.44,-1452.64,1702.27
8040,-3.8750,0.2449,-0.4564,-1945.07,-1077.64,-1532.17
8050,-3.8750,0.2161,-0.4524,-648.19,1578.55,1045.96
8060,-3.8750,0.1830,-0.4390,-335.69,-1905.88,-1641.54
8070,-3.8749,0.1317,-0.4209,-570.07,-187.19,1327.21
8080,-3.8748,0.0464,-0.3976,867.43,-1874.76,1171.02
8090,-3.8746,-0.0585,-0.3734,1945.56,1109.44,874.21
8100,-3.8746,-0.1439,-0.3591,523.68,218.63,-1563.23
8110,-3.8746,-0.1790,-0.3578,1586.18,-1953.43,-47.61
8120,-3.8744,-0.1720,-0.3636,1101.81,-1781.62,733.64
8130,-3.8743,-0.1646,-0.3716,1992.43,1468.38,-1000.73
8140,-3.8740,-0.1798,-0.3795,-1054.44,452.76,499.27
8150,-3.8740,-0.2112,-0.3907,992.43,-562.87,-782.04
8160,-3.8740,-0.2513,-0.4131,976.81,1999.57,-625.79
8170,-3.8739,-0.2936,-0.4406,-163.82,-859.92,1264.77
8180,-3.8738,-0.3312,-0.4611,-1570.07,-375.61,-1141.54
8190,-3.8735,-0.3682,-0.4807,1617.43,999.33,624.08
8200,-3.8734,-0.4031,-0.5055,883.06,-1516.36,608.40
8210,-3.8733,-0.4332,-0.5212,414.31,-688.29,686.46
8220,-3.8732,-0.4670,-0.5178,554.93,1296.02,1530.21
8230,-3.8730,-0.5033,-0.5024,226.81,1733.46,-1563.54
8240,-3.8729,-0.5277,-0.4784,-413.82,-297.91,-1672.91
8250,-3.8728,-0.5294,-0.4453,461.18,-1219.79,436.52
8260,-3.8728,-0.5082,-0.4092,242.43,-985.41,1280.33
8270,-3.8728,-0.4689,-0.3687,-1038.82,-360.41,-1203.98
8280,-3.8726,-0.4237,-0.3177,-7.57,827.15,1780.52
8290,-3.8722,-0.3994,-0.2639,1773.68,-657.10,1921.20
8300,-3.8719,-0.4032,-0.2274,883.06,-1766.42,-563.05
8310,-3.8718,-0.4244,-0.2140,398.68,-1094.54,-531.74
8320,-3.8717,-0.4598,-0.2115,1679.93,624.15,1608.95
8330,-3.8716,-0.4930,-0.2194,1148.68,936.58,687.07
8340,-3.8715,-0.5096,-0.2316,898.68,-63.48,-1781.74
8350,-3.8711,-0.5142,-0.2198,-1226.32,-1626.04,1437.01
8360,-3.8706,-0.5182,-0.1758,-1804.44,-126.04,1187.01
8370,-3.8702,-0.5260,-0.1259,1679.93,1514.59,1546.51
8380,-3.8701,-0.5179,-0.0887,679.93,-94.79,-500.31
8390,-3.8699,-0.4772,-0.0551,1711.18,655.21,984.19
8400,-3.8695,-0.4193,-0.0098,-1070.07,967.77,703.00
8410,-3.8690,-0.3730,0.0603,-1663.82,-1235.23,1609.31
8420,-3.8687,-0.3478,0.1368,258.06,-266.36,-453.06
8430,-3.8683,-0.3240,0.1899,-507.57,1530.52,-374.76
8440,-3.8678,-0.3005,0.2104,-1460.69,327.45,562.87
8450,-3.8676,-0.2797,0.1980,1539.31,-1047.49,-874.63
8460,-3.8673,-0.2439,0.1667,211.18,1358.83,-30.88
8470,-3.8669,-0.1874,0.1283,789.31,1358.89,797.18
8480,-3.8667,-0.1215,0.0947,23.68,437.13,312.74
8490,-3.8667,-0.0632,0.1017,461.18,140.38,-843.57
8500,-3.8667,-0.0143,0.1537,-85.69,1031.07,1937.68
8510,-3.8668,0.0382,0.2039,-1820.07,-312.56,-609.13
8520,-3.8668,0.1121,0.2159,898.68,-1906.19,297.24
8530,-3.8669,0.2085,0.1969,-1648.19,-359.19,1140.99
8540,-3.8671,0.3058,0.1696,-1304.44,1203.49,-1624.63
8550,-3.8672,0.3787,0.1389,-851.32,1703.67,-1249.69
8560,-3.8673,0.4115,0.1084,476.81,1781.98,1218.99
8570,-3.8676,0.4122,0.0889,679.93,1875.79,1750.18
8580,-3.8678,0.4044,0.0762,773.68,-624.21,437.62
8590,-3.8682,0.4078,0.0504,-226.32,1750.73,-1796.75
8600,-3.8684,0.4318,0.0114,211.18,-1546.08,500.06
8610,-3.8688,0.4666,-0.0204,-726.32,1453.92,-171.88
8620,-3.8690,0.4926,-0.0383,-273.19,1391.48,-1171.94
8630,-3.8694,0.5107,-0.0552,-945.07,-905.33,-203.25
8640,-3.8698,0.5344,-0.0745,1383.06,938.48,-515.75
8650,-3.8701,0.5614,-0.0863,414.31,-1530.21,-984.56
8660,-3.8705,0.5847,-0.0917,-132.57,954.16,-1203.31
8670,-3.8708,0.6082,-0.0996,-1148.19,266.72,-656.43
8680,-3.8711,0.6354,-0.1121,1851.81,-748.84,718.51
8690,-3.8715,0.6624,-0.1317,1336.18,1657.47,-1109.62
8700,-3.8717,0.6837,-0.1617,789.31,-858.09,1374.69
8710,-3.8721,0.6980,-0.1969,-476.32,-701.84,-406.62
8720,-3.8723,0.7062,-0.2308,1351.81,-1201.78,1421.45
8730,-3.8727,0.7123,-0.2561,-1601.32,-1545.53,-141.11
8740,-3.8728,0.7224,-0.2690,-820.07,-779.91,436.95
8750,-3.8730,0.7275,-0.2769,476.81,1563.90,-1531.80
8760,-3.8732,0.7125,-0.2870,1133.06,563.90,421.33
8770,-3.8734,0.6744,-0.2990,-788.82,-733.03,-1547.49
8780,-3.8735,0.6183,-0.3138,-1663.82,1735.66,640.01
8790,-3.8738,0.5563,-0.3344,-851.32,-170.72,-1188.17
8800,-3.8739,0.5005,-0.3479,-788.82,1204.16,1327.45
8810,-3.8740,0.4547,-0.3333,70.56,-530.27,-1344.48
8820,-3.8740,0.4150,-0.3030,-1788.82,1344.60,1577.45
8830,-3.8741,0.3867,-0.2950,1133.06,1219.54,202.51
8840,-3.8745,0.3781,-0.3202,1508.06,-1764.89,-891.24
8850,-3.8748,0.3761,-0.3634,398.68,-983.64,-156.92
8860,-3.8748,0.3628,-0.4062,148.68,1485.11,874.27
8870,-3.8749,0.3315,-0.4386,-1554.44,0.67,-188.29
8880,-3.8749,0.2874,-0.4601,-1554.44,-140.01,1092.83
8890,-3.8750,0.2397,-0.4706,789.31,1109.92,295.96
8900,-3.8440,0.1886,-0.4705,-1304.44,-233.95,-94.73
8910,-3.8440,0.1289,-0.4620,148.68,-218.38,-1813.48
8920,-3.8440,0.0636,-0.4487,508.06,859.62,-1266.54
8930,-3.8440,0.0026,-0.4392,148.68,-1437.38,-969.67
8940,-3.8440,-0.0430,-0.4406,336.18,-218.75,-1750.92
8950,-3.8440,-0.0662,-0.4453,-1491.94,-375.12,-1813.42
8960,-3.8439,-0.0671,-0.4397,-460.69,-984.56,1483.46
8970,-3.8750,-0.0597,-0.4235,-585.69,-265.81,-94.67
8980,-3.8748,-0.0660,-0.3961,367.43,1812.38,1733.52
8990,-3.8746,-0.1031,-0.3544,-445.07,1312.32,-1532.04
9000,-3.8745,-0.1718,-0.3083,-1195.07,-1343.99,-1250.73
9010,-3.8745,-0.2484,-0.2794,-1976.32,546.51,-266.24
9020,-3.8745,-0.3057,-0.2772,211.18,249.51,-1922.42
9030,-3.8745,-0.3345,-0.3020,883.06,530.64,1702.58
9040,-3.8744,-0.3396,-0.3462,1195.56,1358.70,936.89
9050,-3.8743,-0.3369,-0.3893,539.31,-297.55,-547.61
9060,-3.8740,-0.3488,-0.4148,883.06,-1813.17,-1266.42
9070,-3.8738,-0.3870,-0.4175,-632.57,-1078.86,608.52
9080,-3.8737,-0.4514,-0.3979,-1523.19,-1422.67,655.40
9090,-3.8735,-0.5350,-0.3489,-1773.19,1077.21,-1938.29
9100,-3.8733,-0.6145,-0.2859,-476.32,-641.72,-375.73
9110,-3.8729,-0.6620,-0.2419,1351.81,-579.35,1999.39
9120,-3.8727,-0.6769,-0.2150,-726.32,1045.53,-1344.24
9130,-3.8723,-0.6825,-0.1848,1367.43,498.66,1655.82
9140,-3.8719,-0.7076,-0.1552,648.68,358.03,-781.62
9150,-3.8715,-0.7567,-0.1239,1429.93,154.85,499.69
9160,-3.8710,-0.8013,-0.0516,-851.32,154.72,1093.51
9170,-3.8705,-0.8167,0.0358,1445.56,1404.66,-1078.25
9180,-3.8700,-0.7841,0.0642,-523.19,592.10,1421.94
9190,-3.8696,-0.7159,0.0414,-351.32,232.79,-1578.00
9200,-3.8693,-0.6654,0.0215,367.43,1311.10,-1312.44
9210,-3.8689,-0.6627,0.0337,-1163.82,-1235.72,-1609.38
9220,-3.8685,-0.6858,0.0807,-820.07,326.78,-1718.69
9230,-3.8680,-0.7010,0.1564,226.81,-1657.59,547.00
9240,-3.8677,-0.6879,0.2192,-1726.32,29.85,-671.57
9250,-3.8673,-0.6252,0.2107,-38.82,76.72,1672.30
9260,-3.8672,-0.5237,0.1356,-23.19,-1016.91,-1468.38
9270,-3.8672,-0.4244,0.0590,976.81,1373.96,-765.38
9280,-3.8672,-0.3561,0.0255,1679.93,-438.35,-1437.44
9290,-3.8672,-0.3112,0.0477,-1570.07,-719.48,-859.38
9300,-3.8671,-0.2618,0.1138,179.93,-1875.61,1453.19
9310,-3.8671,-0.1991,0.1752,-1507.57,-1422.42,-921.69
9320,-3.8671,-0.1228,0.1906,-1476.32,-1562.93,1922.18
9330,-3.8672,-0.0280,0.1674,289.31,406.01,-484.01
9340,-3.8672,0.0762,0.1349,429.93,1437.44,1625.31
9350,-3.8673,0.1722,0.1052,1758.06,1265.75,-1218.51
9360,-3.8674,0.2566,0.0765,-1945.07,1469.06,609.56
9370,-3.8677,0.3275,0.0562,851.81,1797.36,1453.25
9380,-3.8678,0.3784,0.0393,1929.93,-811.89,500.06
9390,-3.8679,0.4115,0.0090,445.56,1031.98,109.44
9400,-3.8682,0.4385,-0.0286,679.93,1157.04,-1593.75
9410,-3.8683,0.4617,-0.0565,133.06,344.60,31.19
9420,-3.8685,0.4728,-0.0776,-898.19,766.48,1296.75
9430,-3.8688,0.4762,-0.1090,523.68,-1936.58,718.57
9440,-3.8691,0.4893,-0.1458,961.18,-1952.21,-734.62
9450,-3.8694,0.5150,-0.1649,-1366.94,1344.67,-203.43
9460,-3.8695,0.5394,-0.1584,1929.93,-1108.40,-1797.24
9470,-3.8696,0.5585,-0.1399,1054.93,-280.21,15.26
9480,-3.8700,0.5835,-0.1326,-507.57,-1905.21,-562.81
9490,-3.8702,0.6277,-0.1484,-1304.44,-967.65,609.07
9500,-3.8706,0.6842,-0.1813,351.81,1001.22,687.19
9510,-3.8710,0.7286,-0.2098,-413.82,798.16,1812.13
9520,-3.8712,0.7421,-0.2103,1273.68,1142.03,-875.43
9530,-3.8713,0.7219,-0.1869,-1007.57,1079.53,1905.82
9540,-3.8717,0.6964,-0.1768,414.31,79.53,-265.99
9550,-3.8719,0.7052,-0.2041,1148.68,1376.34,749.63
9560,-3.8722,0.7279,-0.2515,-1726.32,1876.34,-1859.80
9570,-3.8723,0.7115,-0.2975,1179.93,-186.10,93.20
9580,-3.8726,0.6570,-0.3301,-913.82,1923.22,1561.89
9590,-3.8727,0.5959,-0.3345,101.81,1751.28,218.08
9600,-3.8729,0.5483,-0.3187,289.31,1188.66,-688.17
9610,-3.8730,0.5194,-0.3126,-1804.44,-795.84,655.58
9620,-3.8733,0.5060,-0.3174,-1507.57,-14.65,-1860.05
9630,-3.8734,0.4923,-0.3143,773.68,-624.02,-797.55
9640,-3.8734,0.4633,-0.3204,-976.32,-233.46,405.58
9650,-3.8735,0.4269,-0.3472,-695.07,-1014.77,249.33
9660,-3.8737,0.3943,-0.3773,-1351.32,-436.71,796.14
9670,-3.8739,0.3644,-0.4097,-1523.19,-296.14,-235.17
9680,-3.8740,0.3324,-0.4410,-1351.32,-436.83,749.15
9690,-3.8743,0.2997,-0.4592,-1445.07,-452.51,-1954.04
9700,-3.8744,0.2748,-0.4604,-1632.57,1219.30,1733.46
9710,-3.8744,0.2615,-0.4539,-820.07,1062.99,702.21
9720,-3.8744,0.2542,-0.4520,1476.81,1906.74,92.83
9730,-3.8745,0.2424,-0.4526,539.31,-1858.89,1327.21
9740,-3.8746,0.2155,-0.4435,-960.69,-1937.07,-1750.92
9750,-3.8746,0.1769,-0.4191,-413.82,-765.26,1420.96
9760,-3.8746,0.1389,-0.3881,-1351.32,-1640.32,1342.90
9770,-3.8746,0.1023,-0.3610,1789.31,-1671.63,61.71
9780,-3.8748,0.0620,-0.3387,1101.81,1797.06,-110.11
9790,-3.8746,0.0153,-0.3267,-54.44,640.69,1561.83
9800,-3.8746,-0.0299,-0.3239,1961.18,-1812.50,-1172.55
9810,-3.8746,-0.0612,-0.3192,179.93,-1437.56,-94.42
9820,-3.8745,-0.0857,-0.3168,179.93,-843.87,1405.58
9830,-3.8745,-0.1222,-0.3245,1039.31,-531.43,-1500.67
9840,-3.8745,-0.1659,-0.3326,367.43,-1515.87,-781.92
9850,-3.8744,-0.1971,-0.3269,-1226.32,1437.13,1358.70
9860,-3.8743,-0.2103,-0.3002,-1226.32,-1828.55,-1422.55
9870,-3.8740,-0.2197,-0.2552,1086.18,1593.32,749.39
9880,-3.8739,-0.2458,-0.2019,-116.94,-656.74,-1156.80
9890,-3.8737,-0.2883,-0.1538,539.31,-1828.61,593.32
9900,-3.8737,-0.3257,-0.1295,-898.19,327.51,-1015.93
9910,-3.8737,-0.3407,-0.1362,-1679.44,-563.17,-172.18
9920,-3.8734,-0.3427,-0.1641,398.68,-1422.55,140.32
9930,-3.8733,-0.3588,-0.1975,148.68,-985.05,-890.99
9940,-3.8730,-0.4012,-0.2091,-1913.82,-1266.36,-1172.30
9950,-3.8728,-0.4673,-0.1786,648.68,1249.21,-125.43
9960,-3.8726,-0.5421,-0.1346,195.56,1155.33,1624.63
9970,-3.8724,-0.5944,-0.1090,-1382.57,-1219.85,827.82
9980,-3.8722,-0.6158,-0.1001,-70.07,-1938.72,109.13
9990,-3.8719,-0.6228,-0.1074,1179.93,-798.10,-1953.37
10000,-3.8716,-0.6306,-0.1202,289.31,-1735.60,546.63
10010,-3.8712,-0.6570,-0.1135,-710.69,623.72,874.76
10020,-3.8708,-0.7101,-0.0912,-85.69,1483.03,1281.01
10030,-3.8705,-0.7698,-0.0587,1117.43,342.35,1077.94
10040,-3.8701,-0.8153,0.0071,1476.81,498.47,-625.12
10050,-3.8695,-0.8531,0.1031,-351.32,920.23,187.50
10060,-3.8690,-0.8864,0.2054,-1195.07,1217.04,1140.81
10070,-3.8685,-0.9080,0.2788,-1445.07,-1689.27,1922.24
10080,-3.8682,-0.8909,0.2632,-210.69,-298.71,-702.64
10090,-3.8679,-0.7976,0.1455,1976.81,1701.35,-1702.64
10100,-3.8678,-0.6499,-0.0111,1914.31,-1360.96,-484.13
10110,-3.8676,-0.5254,-0.1150,820.56,-1407.53,-1468.81
10120,-3.8673,-0.4761,-0.1385,758.06,1295.84,124.76
10130,-3.8673,-0.4773,-0.1281,-929.44,-1719.73,265.32
10140,-3.8674,-0.4847,-0.1091,-1085.69,-375.98,-1000.31
10150,-3.8673,-0.4919,-0.0875,1961.18,-1954.10,1046.63
10160,-3.8673,-0.4863,-0.0854,1039.31,811.52,-1453.31
10170,-3.8674,-0.4226,-0.1060,1758.06,1077.15,-47.06
10180,-3.8674,-0.2773,-0.1075,1914.31,-1547.73,1421.63
10190,-3.8674,-0.0948,-0.0787,508.06,-1750.55,-1625.24
10200,-3.8674,0.0610,-0.0583,-132.57,1937.26,-968.93
10210,-3.8674,0.1708,-0.0684,-179.44,531.31,62.38
10220,-3.8677,0.2460,-0.1044,1867.43,-749.69,-1359.56
10230,-3.8679,0.3063,-0.1593,-507.57,-1358.95,-15.87
10240,-3.8680,0.3744,-0.2159,-788.82,-390.08,577.76
10250,-3.8683,0.4500,-0.2377,-70.07,360.05,-1641.05
10260,-3.8684,0.5029,-0.2057,1601.81,1578.98,-1859.86
10270,-3.8685,0.5160,-0.1456,383.06,1672.85,-1812.93
10280,-3.8687,0.5094,-0.0978,-1945.07,1360.35,530.94
10290,-3.8689,0.5118,-0.0839,1211.18,-514.65,984.13
10300,-3.8691,0.5304,-0.1050,1523.68,1266.60,109.19
10310,-3.8695,0.5581,-0.1426,-101.32,-1436.52,-828.37
10320,-3.8698,0.5970,-0.1775,-554.44,1751.04,-1578.43
10330,-3.8700,0.6482,-0.2010,429.93,1282.41,812.13
10340,-3.8704,0.7014,-0.2054,-1023.19,-1733.15,-922.30
10350,-3.8706,0.7448,-0.1880,1789.31,1704.47,-1937.93
10360,-3.8708,0.7670,-0.1648,-663.82,-61.10,858.95
10370,-3.8712,0.7614,-0.1577,-1820.07,-1092.29,-1172.24
10380,-3.8715,0.7371,-0.1641,1461.18,-186.04,499.63
10390,-3.8718,0.7109,-0.1658,-1648.19,-998.60,-765.99
10400,-3.8721,0.6857,-0.1539,-991.94,-1217.41,-453.49
10410,-3.8722,0.6533,-0.1409,-226.32,298.16,484.07
10420,-3.8724,0.6145,-0.1504,-366.94,1969.97,593.44
10430,-3.8728,0.5728,-0.1901,-1335.69,751.16,-531.56
10440,-3.8730,0.5262,-0.2499,1320.56,-327.03,1718.32
10450,-3.8733,0.4745,-0.3145,-632.57,16.60,1327.64
10460,-3.8735,0.4200,-0.3685,742.43,-249.08,-110.05
10470,-3.8735,0.3655,-0.4059,1773.68,828.92,483.64
10480,-3.8737,0.3113,-0.4310,-1210.69,47.55,327.33
10490,-3.8739,0.2623,-0.4415,-148.19,828.67,-1203.98
10500,-3.8740,0.2310,-0.4211,1586.18,-515.14,-1157.17
10510,-3.8740,0.2101,-0.3748,1570.56,-1905.82,1327.27
10520,-3.8741,0.1792,-0.3278,-1101.32,31.62,-1063.23
10530,-3.8743,0.1414,-0.2916,-1054.44,-1952.82,-1125.67
10540,-3.8744,0.1127,-0.2747,-1898.19,-1327.88,-1438.11
10550,-3.8745,0.0979,-0.2990,-1570.07,843.93,358.83
10560,-3.8748,0.0936,-0.3667,539.31,1734.56,1483.76
10570,-3.8749,0.0858,-0.4446,-7.57,1062.62,1452.39
10580,-3.8749,0.0566,-0.5015,-1007.57,-906.13,92.83
10590,-3.8749,0.0077,-0.5273,-741.94,-187.44,967.71
10600,-3.8748,-0.0410,-0.5188,992.43,500.00,561.46
10610,-3.8746,-0.0846,-0.4805,-1241.94,1609.25,1514.59
10620,-3.8745,-0.1340,-0.4249,1179.93,-1484.56,983.40
10630,-3.8745,-0.1803,-0.3455,-1148.19,1624.69,-328.98
10640,-3.8743,-0.2107,-0.2523,929.93,-203.49,749.27
10650,-3.8741,-0.2350,-0.1908,1039.31,-281.68,186.95
10660,-3.8743,-0.2567,-0.1896,1929.93,-406.74,-1359.80
10670,-3.8743,-0.2681,-0.2371,-851.32,-250.55,1030.82
10680,-3.8743,-0.2770,-0.3082,1695.56,1671.33,-1266.11
10690,-3.8741,-0.2919,-0.3878,554.93,561.95,-1531.86
10700,-3.8740,-0.3015,-0.4551,-1351.32,-1625.61,-1594.54
10710,-3.8738,-0.3033,-0.4774,1414.31,1765.01,139.71
10720,-3.8735,-0.3210,-0.4369,1179.93,-1094.36,1764.65
10730,-3.8733,-0.3684,-0.3605,-1085.69,93.08,-1453.98
10740,-3.8732,-0.4238,-0.2937,851.81,1874.27,905.52
10750,-3.8732,-0.4572,-0.2566,1758.06,-1578.98,186.89
10760,-3.8732,-0.4625,-0.2439,1492.43,-829.04,-1125.55
10770,-3.8729,-0.4652,-0.2334,804.93,795.96,-1344.24
10780,-3.8726,-0.4867,-0.1891,461.18,-1860.29,-1875.49
10790,-3.8722,-0.5229,-0.1002,1711.18,-188.48,-781.68
10800,-3.8719,-0.5568,-0.0226,1070.56,-813.54,-47.12
10810,-3.8717,-0.5480,-0.0143,742.43,1123.90,187.44
10820,-3.8716,-0.4795,-0.0653,1867.43,-1813.60,828.06
10830,-3.8715,-0.3983,-0.1394,-1366.94,-344.73,1312.32
10840,-3.8713,-0.3542,-0.1938,1023.68,-1828.92,-1250.31
10850,-3.8711,-0.3722,-0.1927,-1335.69,-797.61,-1328.55
10860,-3.8708,-0.4528,-0.1569,367.43,-656.98,1296.45
10870,-3.8707,-0.5592,-0.1365,-1945.07,-63.42,437.13
10880,-3.8707,-0.6561,-0.1384,429.93,-1454.22,-687.81
10890,-3.8705,-0.7167,-0.1306,23.68,-1704.41,1030.94
10900,-3.8702,-0.7119,-0.1025,273.68,-704.53,265.32
10910,-3.8701,-0.6384,-0.0670,883.06,-1110.78,-859.62
10920,-3.8699,-0.5247,-0.0273,-1710.69,-563.78,-1125.18
10930,-3.8696,-0.4072,0.0172,851.81,514.59,-468.81
10940,-3.8694,-0.3083,0.0540,-116.94,-1782.10,-453.12
10950,-3.8691,-0.2317,0.0740,539.31,-1078.74,-1312.44
10960,-3.8689,-0.1892,0.1040,-1648.19,1483.89,-1359.25
10970,-3.8685,-0.1987,0.1748,-210.69,1327.70,1078.31
10980,-3.8682,-0.2369,0.2738,-1429.44,-1609.80,1422.18
10990,-3.8678,-0.2448,0.3628,1679.93,-937.99,750.49
11000,-3.8676,-0.1917,0.3896,679.93,-1547.36,172.55
11010,-3.8676,-0.0931,0.3184,-523.19,1890.20,1828.86
11020,-3.8677,0.0291,0.1722,86.18,765.44,-671.26
11030,-3.8677,0.1482,0.0134,-273.19,-1953.12,344.06
11040,-3.8678,0.2365,-0.0906,-1023.19,1718.99,-1531.25
11050,-3.8678,0.2969,-0.1130,-1726.32,406.68,1249.82
11060,-3.8679,0.3441,-0.0703,-1991.94,1531.80,-140.87
11070,-3.8679,0.3862,0.0094,54.93,-999.33,-1297.06
11080,-3.8679,0.4338,0.0944,1445.56,1203.86,-1687.50
11090,-3.8679,0.4910,0.1566,-460.69,78.92,1750.18
11100,-3.8679,0.5494,0.1821,-1148.19,47.79,203.43
11110,-3.8680,0.6040,0.1816,-1663.82,-686.46,-1843.44
11120,-3.8682,0.6547,0.1719,1320.56,-748.84,-1124.69
11130,-3.8683,0.6985,0.1483,-195.07,-1998.78,844.06
11140,-3.8687,0.7233,0.1021,1414.31,-1014.28,-374.76
11150,-3.8689,0.7197,0.0436,586.18,1063.90,687.68
11160,-3.8693,0.6959,-0.0137,133.06,1579.53,1640.69
11170,-3.8696,0.6705,-0.0635,1086.18,-1748.66,-1015.69
11180,-3.8699,0.6536,-0.1075,1836.18,-123.72,202.94
11190,-3.8702,0.6444,-0.1470,-335.69,-1764.40,531.01
11200,-3.8706,0.6370,-0.1636,-1507.57,1188.72,1296.57
11210,-3.8708,0.6273,-0.1428,1539.31,-936.28,937.13
11220,-3.8711,0.6200,-0.1089,304.93,1719.97,1515.32
11230,-3.8713,0.6190,-0.0861,-632.57,-1936.34,327.88
11240,-3.8717,0.6219,-0.0764,-757.57,985.53,-781.43
11250,-3.8719,0.6229,-0.0840,-382.57,-1780.09,-562.68
11260,-3.8721,0.6293,-0.1072,-257.57,1251.16,890.44
11270,-3.8723,0.6414,-0.1396,554.93,-1717.53,-1531.49
11280,-3.8726,0.6364,-0.1841,-1898.19,-1873.78,-937.81
11290,-3.8727,0.6053,-0.2333,1461.18,438.72,999.63
11300,-3.8728,0.5529,-0.2728,1492.43,-1858.22,1358.89
11310,-3.8729,0.4835,-0.3005,-1226.32,1079.16,1780.70
11320,-3.8730,0.4080,-0.3195,1898.68,1532.17,655.64
11330,-3.8733,0.3402,-0.3306,226.81,-889.83,-1860.05
11340,-3.8735,0.2883,-0.3372,-445.07,1688.11,-469.42
11350,-3.8737,0.2542,-0.3510,914.31,844.30,1186.83
11360,-3.8739,0.2386,-0.3790,539.31,-921.39,-1797.61
11370,-3.8741,0.2380,-0.4158,-1445.07,-515.20,-1422.67
11380,-3.8744,0.2472,-0.4514,-1523.19,-1218.32,-47.73
11390,-3.8744,0.2653,-0.4728,-351.32,-1780.82,374.08
11400,-3.8744,0.2870,-0.4625,1961.18,-515.14,670.90
11410,-3.8744,0.2915,-0.4265,742.43,797.42,-204.04
11420,-3.8743,0.2598,-0.3920,1320.56,1406.80,1014.77
11430,-3.8744,0.2042,-0.3751,1258.06,1828.61,342.96
11440,-3.8746,0.1473,-0.3756,-1851.32,-15.26,155.46
11450,-3.8749,0.0939,-0.3871,-1132.57,-77.88,-1828.92
11460,-3.8749,0.0416,-0.4032,23.68,-1546.69,1014.83
11470,-3.8749,-0.0107,-0.4161,1336.18,390.69,-703.92
11480,-3.8748,-0.0602,-0.4092,-1366.94,-1250.06,-1016.48
11490,-3.8745,-0.1069,-0.3732,304.93,-359.50,749.15
11500,-3.8744,-0.1556,-0.3213,-1679.44,249.76,-422.61
11510,-3.8743,-0.1991,-0.2744,86.18,-1109.68,-891.30
11520,-3.8741,-0.2217,-0.2450,-1476.32,890.20,46.33
11530,-3.8741,-0.2245,-0.2379,-366.94,655.76,1124.51
11540,-3.8741,-0.2186,-0.2542,-726.32,1562.01,1499.51
11550,-3.8741,-0.2131,-0.2789,23.68,-516.05,-1125.55
11560,-3.8739,-0.2260,-0.2880,726.81,312.07,-1703.67
11570,-3.8735,-0.2781,-0.2632,-913.82,-844.24,-1141.24
11580,-3.8732,-0.3682,-0.2069,414.31,-1672.42,-844.30
11590,-3.8729,-0.4662,-0.1525,883.06,1530.52,-297.30
11600,-3.8728,-0.5459,-0.1249,336.18,499.08,905.94
11610,-3.8729,-0.5990,-0.1226,-1866.94,30.15,937.26
11620,-3.8730,-0.6102,-0.1462,-663.82,326.90,-906.49
11630,-3.8729,-0.5770,-0.1897,1898.68,1295.65,-1531.56
11640,-3.8726,-0.5321,-0.2288,-1851.32,-266.78,265.20
11650,-3.8722,-0.5005,-0.2448,-101.32,-1266.72,-1609.86
11660,-3.8718,-0.4990,-0.2261,-54.44,686.46,-1875.49
11670,-3.8716,-0.5359,-0.1731,133.06,-922.85,124.51
11680,-3.8716,-0.5654,-0.1216,-585.69,1858.28,921.51
11690,-3.8716,-0.5392,-0.1078,-366.94,451.97,609.13
11700,-3.8715,-0.4641,-0.1193,-1007.57,-1782.35,1890.38
11710,-3.8711,-0.3772,-0.1237,601.81,749.08,671.63
11720,-3.8707,-0.3138,-0.1044,-273.19,186.71,1218.51
11730,-3.8704,-0.3096,-0.0304,-163.82,-1344.42,-484.62
11740,-3.8698,-0.3739,0.1250,383.06,124.39,640.56
11750,-3.8693,-0.4691,0.3088,148.68,14.89,-890.38
11760,-3.8688,-0.5275,0.4176,-38.82,-454.10,-1374.45
11770,-3.8684,-0.4938,0.3975,492.43,1467.71,63.29
11780,-3.8683,-0.3885,0.2738,804.93,-1110.35,1625.73
11790,-3.8682,-0.3031,0.1139,-1726.32,-938.29,1656.74
11800,-3.8680,-0.2986,-0.0026,1211.18,-1406.86,1812.68
11810,-3.8679,-0.3556,-0.0317,1789.31,-313.11,-781.31
11820,-3.8678,-0.4261,0.0046,-1507.57,-47.61,-1328.25
11830,-3.8678,-0.4749,0.0760,1461.18,608.52,-31.25
11840,-3.8677,-0.4841,0.1584,-773.19,1749.02,-1734.25
11850,-3.8676,-0.4351,0.2046,-1960.69,295.90,375.31
11860,-3.8676,-0.3073,0.1892,320.56,-1797.73,1187.87
11870,-3.8676,-0.1177,0.1373,679.93,233.76,1437.87
11880,-3.8676,0.0844,0.0782,945.56,1593.51,609.62
11890,-3.8677,0.2515,0.0309,-1195.07,-1984.25,-1859.25
11900,-3.8678,0.3638,0.0148,195.56,-46.39,-984.38
11910,-3.8678,0.4216,0.0393,-1429.44,1891.30,1984.38
11920,-3.8678,0.4277,0.1033,1976.81,1032.04,-1921.81
11930,-3.8678,0.4001,0.1985,-1241.94,1219.54,718.93
11940,-3.8680,0.3655,0.2838,-773.19,1406.98,-671.51
11950,-3.8683,0.3514,0.3033,-1210.69,328.80,172.42
11960,-3.8688,0.3837,0.2526,992.43,-1171.20,-171.33
11970,-3.8690,0.4556,0.1703,1117.43,328.86,-312.01
11980,-3.8690,0.5299,0.1007,-1679.44,1797.73,422.18
11990,-3.8691,0.5797,0.0664,-163.82,891.60,-1687.32
12000,-3.8693,0.6011,0.0607,-1788.82,501.10,-1874.88
12010,-3.8695,0.5977,0.0695,945.56,-233.22,-828.06
12020,-3.8698,0.5800,0.0790,508.06,891.78,1890.75
12030,-3.8701,0.5662,0.0756,-1757.57,-1889.53,-1046.75
12040,-3.8705,0.5667,0.0544,476.81,1672.97,-1671.75
12050,-3.8708,0.5779,0.0228,539.31,-1030.15,1750.06
12060,-3.8712,0.5930,-0.0171,1976.81,-1077.03,-1312.50
12070,-3.8715,0.6077,-0.0707,-85.69,1813.60,1140.56
12080,-3.8717,0.6136,-0.1310,1789.31,-1045.72,1468.57
12090,-3.8719,0.6053,-0.1814,-1445.07,-764.47,-469.06
12100,-3.8721,0.5784,-0.2185,1492.43,782.41,-1859.74
12110,-3.8723,0.5336,-0.2507,-1960.69,32.35,-219.18
12120,-3.8726,0.4818,-0.2814,304.93,-92.71,-63.05
12130,-3.8728,0.4354,-0.3124,1679.93,-14.71,-109.99
12140,-3.8729,0.4023,-0.3494,-257.57,16.42,858.76
12150,-3.8732,0.3832,-0.3905,-491.94,-718.02,-1828.86
12160,-3.8734,0.3739,-0.4264,1054.93,-1983.64,-453.92
12170,-3.8735,0.3682,-0.4468,-132.57,1422.55,-1641.48
12180,-3.8737,0.3627,-0.4489,-866.94,-1186.83,-438.42
12190,-3.8737,0.3534,-0.4438,-1570.07,-1452.45,1717.83
12200,-3.8738,0.3350,-0.4374,1242.43,-811.83,-1266.54
12210,-3.8739,0.3119,-0.4277,-1116.94,16.24,-1563.35
12220,-3.8740,0.2887,-0.4220,-70.07,1250.55,1639.77
12230,-3.8741,0.2648,-0.4274,961.18,1984.92,1358.52
12240,-3.8743,0.2404,-0.4423,1898.68,1297.36,1842.90
12250,-3.8744,0.2129,-0.4629,-1226.32,-608.95,-1454.04
12260,-3.8745,0.1814,-0.4839,-741.94,750.37,-938.42
12270,-3.8746,0.1501,-0.4966,-773.19,-1937.19,-188.48
12280,-3.8746,0.1171,-0.4973,-773.19,437.74,1733.40
12290,-3.8746,0.0812,-0.4905,-1007.57,343.93,795.90
12300,-3.8746,0.0521,-0.4847,-1601.32,1218.87,280.27
12310,-3.8746,0.0356,-0.4808,-1320.07,1953.19,327.15
12320,-3.8746,0.0229,-0.4685,570.56,-1546.81,1545.90
12330,-3.8745,0.0023,-0.4352,-1054.44,31.25,452.21
12340,-3.8744,-0.0312,-0.3804,304.93,296.88,1639.77
12350,-3.8743,-0.0762,-0.3187,8.06,-671.94,-78.92
12360,-3.8740,-0.1174,-0.2667,-1741.94,-781.43,733.70
12370,-3.8740,-0.1417,-0.2339,976.81,1874.76,-547.42
12380,-3.8739,-0.1511,-0.2246,1867.43,-1922.18,1171.39
12390,-3.8739,-0.1581,-0.2389,664.31,-734.68,1843.26
12400,-3.8739,-0.1765,-0.2633,-226.32,1437.13,-1891.11
12410,-3.8738,-0.2001,-0.2910,1414.31,-1687.87,530.70
12420,-3.8737,-0.2162,-0.3243,-1601.32,-1234.80,999.39
12430,-3.8735,-0.2301,-0.3474,336.18,-1500.43,1436.83
12440,-3.8734,-0.2566,-0.3386,-1445.07,-453.61,-1031.98
12450,-3.8732,-0.3047,-0.2925,-835.69,671.33,-781.92
12460,-3.8729,-0.3656,-0.2367,1008.06,-1422.49,-594.36
12470,-3.8727,-0.4177,-0.2030,1211.18,1718.02,327.64
12480,-3.8727,-0.4510,-0.1921,-1460.69,-1969.60,-828.55
12490,-3.8726,-0.4673,-0.1917,-1726.32,-579.04,-1156.68
12500,-3.8723,-0.4763,-0.1906,195.56,-516.54,1296.45
12510,-3.8721,-0.4924,-0.1910,-960.69,-375.98,1999.57
12520,-3.8718,-0.5177,-0.1869,976.81,-438.48,-1953.55
12530,-3.8716,-0.5416,-0.1610,1742.43,92.71,-1156.62
12540,-3.8712,-0.5601,-0.1133,-1320.07,-594.85,-797.24
12550,-3.8708,-0.5769,-0.0601,320.56,1514.53,-484.62
12560,-3.8705,-0.5880,-0.0149,-1835.69,326.97,1640.50
12570,-3.8702,-0.5909,0.0193,742.43,-1891.78,-125.06
12580,-3.8699,-0.5842,0.0371,367.43,-1516.78,500.00
12590,-3.8698,-0.5493,0.0294,1226.81,764.47,-1578.06
12600,-3.8695,-0.4822,0.0024,1695.56,-219.85,-1437.50
12610,-3.8691,-0.4198,-0.0168,-1710.69,327.15,-781.25
12620,-3.8687,-0.3927,0.0039,-1726.32,1858.52,765.56
12630,-3.8684,-0.3986,0.0724,1742.43,514.83,-171.88
12640,-3.8680,-0.4198,0.1556,992.43,1280.46,906.37
12650,-3.8678,-0.4354,0.2122,-1726.32,-63.35,31.49
12660,-3.8678,-0.4362,0.2157,273.68,-828.98,-655.88
12670,-3.8678,-0.4216,0.1599,179.93,-375.85,-296.51
12680,-3.8678,-0.3763,0.0542,-1960.69,483.52,-343.44
12690,-3.8678,-0.2860,-0.0579,-163.82,-1047.67,-296.81
12700,-3.8678,-0.1741,-0.1246,-601.32,608.76,-234.50
12710,-3.8678,-0.0790,-0.1388,1726.81,62.13,-312.74
12720,-3.8678,-0.0117,-0.1071,1898.68,-1750.18,-1422.18
12730,-3.8678,0.0454,-0.0240,-1491.94,-1687.56,1968.51
12740,-3.8678,0.1068,0.0820,1820.56,921.94,-1421.94
12750,-3.8678,0.1869,0.1559,1679.93,-1499.82,-1812.38
12760,-3.8678,0.3031,0.1848,-70.07,-46.57,578.37
12770,-3.8679,0.4453,0.1855,-1195.07,-343.20,-249.69
12780,-3.8679,0.5831,0.1578,1008.06,-249.15,-984.07
12790,-3.8680,0.6874,0.0979,-1351.32,204.22,-640.32
12800,-3.8682,0.7393,0.0302,-7.57,532.53,1453.31
12810,-3.8684,0.7377,-0.0088,-1366.94,-139.22,-406.25
12820,-3.8685,0.6974,-0.0054,-1570.07,-1123.60,1421.81
12830,-3.8688,0.6415,0.0294,1273.68,-686.16,-1156.31
12840,-3.8689,0.6012,0.0623,-1882.57,-233.15,1046.88
12850,-3.8691,0.5931,0.0573,961.18,-30.09,1453.19
12860,-3.8695,0.6089,0.0098,-70.07,-670.78,-1671.81
12870,-3.8699,0.6354,-0.0537,1945.56,1251.16,1812.50
12880,-3.8702,0.6567,-0.1083,1336.18,1126.22,624.88
12890,-3.8707,0.6700,-0.1564,70.56,-1858.09,-890.87
12900,-3.8711,0.6854,-0.2062,1773.68,-14.34,-1922.24
12910,-3.8715,0.6962,-0.2532,-257.57,1610.66,-1312.93
12920,-3.8717,0.6824,-0.2948,1117.43,-404.91,-1594.30
12930,-3.8719,0.6453,-0.3250,-648.19,-1733.09,-672.49
12940,-3.8722,0.6140,-0.3264,-1398.19,-1592.53,-672.55
12950,-3.8724,0.5979,-0.3165,-1398.19,-1780.09,-563.17
12960,-3.8727,0.5732,-0.3380,539.31,-514.47,-1891.30
12970,-3.8730,0.5378,-0.4069,1383.06,735.47,1639.95
12980,-3.8734,0.5072,-0.5060,851.81,-77.09,92.90
12990,-3.8738,0.4728,-0.5725,929.93,-764.65,-1297.91
13000,-3.8737,0.4139,-0.5552,523.68,-1280.33,1701.97
13010,-3.8734,0.3243,-0.4858,992.43,938.29,-1501.10
13020,-3.8734,0.2295,-0.4199,1523.68,1813.11,420.90
13030,-3.8738,0.1855,-0.3694,1383.06,-1749.57,-1782.10
13040,-3.8740,0.2208,-0.3309,-241.94,719.06,-797.61
13050,-3.8741,0.2974,-0.3251,273.68,1641.05,-1703.80
13060,-3.8744,0.3629,-0.3647,-1929.44,-1608.83,-672.55
13070,-3.8745,0.4077,-0.4246,-1538.82,1313.17,452.39
13080,-3.8748,0.4285,-0.4840,195.56,1657.04,-657.10
13090,-3.8749,0.4069,-0.5438,-1148.19,-1952.33,-1532.23
13100,-3.8750,0.3483,-0.5929,86.18,-1608.58,-1876.10
13110,-3.8750,0.2704,-0.6068,586.18,110.05,983.22
13120,-3.8750,0.1771,-0.5938,-1382.57,-1671.39,1951.90
13130,-3.8750,0.0839,-0.5847,-1320.07,0.31,170.72
13140,-3.8440,0.0183,-0.5912,-1257.57,1156.37,-1298.03
13150,-3.8441,-0.0172,-0.6052,-1648.19,328.12,1139.47
13160,-3.8442,-0.0378,-0.6177,1804.93,-1453.19,-1344.97
13170,-3.8442,-0.0481,-0.6196,-835.69,953.00,-1.22
13180,-3.8440,-0.0487,-0.5950,1851.81,703.00,811.28
13190,-3.8750,-0.0510,-0.5365,1773.68,-140.75,436.28
13200,-3.8749,-0.0654,-0.4603,1476.81,-656.37,-1251.10
13210,-3.8748,-0.0856,-0.3877,-366.94,1093.57,686.58
13220,-3.8748,-0.1017,-0.3252,1054.93,-1609.56,1483.58
13230,-3.8748,-0.1151,-0.2865,-1007.57,-1609.62,-860.05
13240,-3.8746,-0.1263,-0.2834,1273.68,-656.49,140.01
13250,-3.8746,-0.1299,-0.3003,-163.82,-265.93,-1422.49
13260,-3.8744,-0.1318,-0.3114,-616.94,1577.82,1858.76
13270,-3.8741,-0.1458,-0.3025,-866.94,155.94,-734.99
13280,-3.8739,-0.1729,-0.2739,1351.81,1296.57,-1109.99
13290,-3.8737,-0.2150,-0.2273,1883.06,952.76,1811.95
13300,-3.8734,-0.2773,-0.1606,492.43,-1078.55,-1609.86
13310,-3.8732,-0.3495,-0.0861,508.06,-547.42,-156.62
13320,-3.8728,-0.4052,-0.0242,-726.32,999.27,577.94
13330,-3.8726,-0.4232,0.0127,148.68,921.08,296.81
13340,-3.8724,-0.4154,0.0181,1836.18,1639.77,-1359.38
13350,-3.8722,-0.4099,-0.0151,-1163.82,-1672.73,1109.38
13360,-3.8719,-0.4220,-0.0619,-460.69,-1922.73,890.56
13370,-3.8717,-0.4545,-0.0724,1992.43,92.90,812.38
13380,-3.8715,-0.4985,-0.0333,1836.18,-1250.92,1312.32
13390,-3.8712,-0.5234,0.0450,195.56,-250.98,-1797.00
13400,-3.8708,-0.5013,0.1445,1008.06,1780.21,265.69
13410,-3.8705,-0.4382,0.2264,-163.82,-1485.41,-1812.26
13420,-3.8700,-0.3582,0.2522,-85.69,999.08,1469.18
13430,-3.8696,-0.2798,0.2181,-1835.69,296.14,-1546.39
13440,-3.8693,-0.2046,0.1564,195.56,-63.05,765.99
13450,-3.8690,-0.1305,0.1041,1820.56,30.82,937.81
13460,-3.8689,-0.0807,0.0988,-695.07,1343.44,-15.44
13470,-3.8687,-0.1067,0.1654,1679.93,656.07,-1327.94
13480,-3.8684,-0.2225,0.2856,-1648.19,1187.26,-1327.82
13490,-3.8680,-0.3737,0.4050,-476.32,577.64,516.17
13500,-3.8678,-0.4741,0.4550,179.93,-141.36,1141.36
13510,-3.8677,-0.4420,0.3993,-679.44,-1750.98,-1436.65
13520,-3.8676,-0.2825,0.2769,-570.07,-875.92,-1593.02
13530,-3.8674,-0.1033,0.1664,-148.19,-547.49,1906.74
13540,-3.8674,0.0129,0.1040,-1210.69,1312.26,-1249.69
13550,-3.8674,0.0623,0.0942,1664.31,1312.50,172.06
13560,-3.8676,0.0663,0.1414,-23.19,62.56,-1827.94
13570,-3.8676,0.0430,0.2249,492.43,-1906.13,1187.74
13580,-3.8677,0.0098,0.3188,1508.06,781.31,-421.45
13590,-3.8677,-0.0100,0.3931,1258.06,812.50,-1843.14
13600,-3.8678,0.0077,0.3945,-1273.19,-1671.94,-1389.89
13610,-3.8680,0.0710,0.3153,992.43,-1500.00,-952.39
13620,-3.8683,0.1713,0.2098,1101.81,359.50,-1530.64
13630,-3.8685,0.2853,0.1238,1929.93,-1140.32,-546.51
13640,-3.8687,0.3945,0.0870,523.68,-155.70,968.93
13650,-3.8689,0.5021,0.1134,-1491.94,-858.64,-1328.00
13660,-3.8690,0.6014,0.1763,273.68,-1483.40,-1374.82
13670,-3.8691,0.6815,0.2224,992.43,-1436.34,1703.43
13680,-3.8694,0.7477,0.2269,-757.57,470.03,844.18
13690,-3.8696,0.8004,0.2020,-288.82,1048.28,328.55
13700,-3.8699,0.8275,0.1704,-1538.82,1860.90,-437.13
13710,-3.8699,0.8215,0.1405,1929.93,1814.09,1234.68
13720,-3.8700,0.7845,0.0990,1164.31,1985.96,-1546.63
13730,-3.8701,0.7323,0.0363,429.93,673.40,-1656.07
13740,-3.8702,0.6862,-0.0380,1742.43,642.03,1406.31
13750,-3.8705,0.6616,-0.1045,-163.82,-858.09,-390.75
13760,-3.8706,0.6644,-0.1487,695.56,-1373.72,-1656.49
13770,-3.8707,0.6881,-0.1765,1054.93,970.03,1140.32
13780,-3.8710,0.7195,-0.2026,86.18,1407.59,1624.63
13790,-3.8712,0.7428,-0.2252,101.81,-1936.10,1202.70
13800,-3.8715,0.7495,-0.2374,-913.82,-826.72,-781.74
13810,-3.8716,0.7397,-0.2478,-54.44,1610.78,-1172.36
13820,-3.8717,0.7180,-0.2662,-1304.44,282.65,733.89
13830,-3.8719,0.6858,-0.2952,-85.69,1923.22,124.45
13840,-3.8723,0.6450,-0.3358,-210.69,-1779.97,-0.61
13850,-3.8724,0.6025,-0.3839,-1429.44,1016.85,1827.45
13860,-3.8727,0.5609,-0.4265,1133.06,-1139.47,-0.79
13870,-3.8728,0.5295,-0.4315,-195.07,1407.29,-797.73
13880,-3.8727,0.5237,-0.3684,-210.69,766.60,296.02
13890,-3.8726,0.5278,-0.2783,-960.69,844.73,952.39
13900,-3.8727,0.5106,-0.2368,-429.44,375.98,-1953.67
13910,-3.8730,0.4752,-0.2549,1367.43,1688.48,1421.39
13920,-3.8735,0.4431,-0.3118,836.18,-624.08,-1828.67
13930,-3.8739,0.4164,-0.3928,726.81,94.60,-984.99
13940,-3.8740,0.3795,-0.4733,1304.93,1719.54,-1922.67
13950,-3.8740,0.3270,-0.5352,586.18,-577.39,624.02
13960,-3.8740,0.2701,-0.5750,1867.43,-499.39,264.53
13970,-3.8740,0.2284,-0.5798,-1413.82,-1593.26,811.34
13980,-3.8740,0.2140,-0.5284,1242.43,1781.68,-157.41
13990,-3.8739,0.2172,-0.4382,-601.32,359.74,-16.66
14000,-3.8739,0.2197,-0.3625,-195.07,-93.38,-1360.29
14010,-3.8741,0.2196,-0.3336,133.06,1594.18,1921.14
14020,-3.8745,0.2142,-0.3480,117.43,1297.30,-1094.42
14030,-3.8748,0.1940,-0.3893,-570.07,-546.51,-563.23
14040,-3.8748,0.1608,-0.4401,836.18,-1827.76,-1032.04
14050,-3.8746,0.1151,-0.4845,586.18,-327.82,-125.92
14060,-3.8744,0.0526,-0.4994,-1257.57,1984.56,1577.15
14070,-3.8743,-0.0189,-0.4690,-1257.57,78.19,1670.90
14080,-3.8743,-0.0842,-0.4106,1586.18,-15.69,-1016.60
14090,-3.8743,-0.1348,-0.3632,1226.81,-547.06,374.15
14100,-3.8745,-0.1644,-0.3519,-1241.94,1530.94,-594.48
14110,-3.8746,-0.1696,-0.3650,-1038.82,-1031.62,-203.86
14120,-3.8745,-0.1580,-0.3751,-1695.07,1296.51,983.64
14130,-3.8743,-0.1510,-0.3708,-210.69,-0.37,280.46
14140,-3.8740,-0.1648,-0.3497,679.93,546.57,-1328.86
14150,-3.8738,-0.1906,-0.3055,-1085.69,-750.37,-360.11
14160,-3.8735,-0.2145,-0.2510,-382.57,905.82,1296.26
14170,-3.8735,-0.2319,-0.2076,554.93,-109.80,-1219.30
14180,-3.8735,-0.2520,-0.1709,-1679.44,1437.01,-1250.43
14190,-3.8734,-0.2854,-0.1376,-241.94,-1859.92,-1328.49
14200,-3.8732,-0.3334,-0.1235,-523.19,-1594.36,1421.57
14210,-3.8730,-0.3882,-0.1237,1336.18,202.45,-750.24
14220,-3.8728,-0.4264,-0.1178,-1679.44,186.71,1421.63
14230,-3.8727,-0.4314,-0.1158,1429.93,936.65,-359.62
14240,-3.8726,-0.4066,-0.1305,789.31,1186.65,-297.12
14250,-3.8723,-0.3744,-0.1300,-38.82,-688.35,1249.69
14260,-3.8721,-0.3574,-0.1014,86.18,-625.73,-750.31
14270,-3.8717,-0.3717,-0.0690,-1741.94,-969.48,-1531.49
14280,-3.8713,-0.4249,-0.0428,429.93,-813.23,452.94
14290,-3.8712,-0.4971,-0.0262,1617.43,-1469.60,-47.00
14300,-3.8710,-0.5588,-0.0283,383.06,655.27,859.31
14310,-3.8708,-0.6002,-0.0514,476.81,389.53,1531.19
14320,-3.8706,-0.6331,-0.0524,-820.07,1436.28,1109.25
14330,-3.8701,-0.6772,0.0134,-1023.19,1311.22,562.38
14340,-3.8695,-0.7347,0.1364,1320.56,1733.03,-1125.00
14350,-3.8690,-0.7834,0.2742,1961.18,1467.29,-859.13
14360,-3.8688,-0.7817,0.3517,-273.19,-892.21,-1577.64
14370,-3.8687,-0.7081,0.3047,-54.44,1029.66,-483.70
14380,-3.8685,-0.5984,0.1543,1367.43,-985.78,-608.83
14390,-3.8684,-0.5040,-0.0232,-585.69,-235.60,-1531.01
14400,-3.8683,-0.4453,-0.1595,-507.57,1045.84,1124.94
14410,-3.8682,-0.4248,-0.2024,-991.94,-407.17,124.63
14420,-3.8680,-0.4430,-0.1415,1633.06,-1891.48,733.95
14430,-3.8679,-0.4637,-0.0223,-695.07,1905.33,1718.44
14440,-3.8678,-0.4319,0.0909,648.68,1155.33,1359.31
14450,-3.8678,-0.3347,0.1555,726.81,-344.60,-296.75
14460,-3.8678,-0.2035,0.1686,1164.31,-78.80,-390.38
14470,-3.8678,-0.0739,0.1527,1961.18,1593.32,1765.93
14480,-3.8679,0.0364,0.1237,-1445.07,-437.68,-93.51
14490,-3.8679,0.1233,0.0759,664.31,-171.81,1625.18
14500,-3.8680,0.1864,0.0229,-210.69,1718.93,-1906.13
14510,-3.8682,0.2228,0.0100,-132.57,-1062.19,-953.12
14520,-3.8682,0.2383,0.0459,523.68,1281.68,-1171.88
14530,-3.8682,0.2529,0.0916,-1491.94,1875.43,-203.06
14540,-3.8682,0.2867,0.1168,383.06,-280.76,-968.63
14550,-3.8683,0.3462,0.1185,711.18,-1046.33,-109.19
14560,-3.8684,0.4220,0.1011,320.56,-827.45,-812.32
14570,-3.8685,0.5002,0.0718,-1976.32,938.29,1656.43
14580,-3.8688,0.5710,0.0449,39.31,1188.48,-93.63
14590,-3.8689,0.6306,0.0376,1101.81,1751.10,-1812.44
14600,-3.8691,0.6835,0.0522,726.81,813.72,-374.94
14610,-3.8694,0.7290,0.0737,-507.57,-1311.22,-796.81
14620,-3.8696,0.7584,0.0884,1320.56,1438.90,-1781.13
14630,-3.8699,0.7732,0.0941,1086.18,-686.04,-1374.88
14640,-3.8700,0.7787,0.0930,-1023.19,48.34,468.93
14650,-3.8702,0.7769,0.0880,-320.07,-92.29,1093.87
14660,-3.8706,0.7721,0.0842,-554.44,-732.91,-1156.13
14670,-3.8710,0.7577,0.0809,-1163.82,-1217.29,-593.63
14680,-3.8713,0.7275,0.0679,992.43,-1639.16,-140.50
14690,-3.8716,0.6942,0.0364,1133.06,688.90,62.62
14700,-3.8719,0.6649,-0.0088,867.43,657.59,1390.69
14710,-3.8722,0.6339,-0.0564,1117.43,-1123.72,1828.06
14720,-3.8724,0.5906,-0.1068,1148.68,782.47,-297.00
14730,-3.8727,0.5343,-0.1643,-398.19,-1670.78,-265.87
14740,-3.8729,0.4795,-0.2246,398.68,-1030.21,921.51
14750,-3.8733,0.4423,-0.2799,1383.06,-749.08,1671.39
14760,-3.8735,0.4153,-0.3250,617.43,172.73,561.95
14770,-3.8738,0.3782,-0.3495,1164.31,-1592.96,-1344.42
14780,-3.8738,0.3315,-0.3459,414.31,-733.64,952.39
14790,-3.8739,0.2839,-0.3270,-1554.44,-280.64,-453.86
14800,-3.8740,0.2485,-0.3131,351.81,-1858.83,1796.20
14810,-3.8743,0.2341,-0.3140,-179.44,-77.70,-1735.05
14820,-3.8745,0.2234,-0.3317,1976.81,-187.07,-203.80
14830,-3.8746,0.2039,-0.3619,601.81,1547.30,1718.08
14840,-3.8748,0.1838,-0.4032,-1898.19,1672.24,452.39
14850,-3.8749,0.1663,-0.4551,-460.69,390.93,561.71
14860,-3.8750,0.1423,-0.5049,1289.31,1750.31,1639.71
14870,-3.8750,0.1095,-0.5291,-1773.19,-624.76,467.71
14880,-3.8750,0.0684,-0.5105,-1976.32,281.43,-79.16
14890,-3.8746,0.0166,-0.4598,758.06,-1343.63,405.21
14900,-3.8745,-0.0377,-0.4073,-1866.94,1140.62,1920.96
14910,-3.8746,-0.0753,-0.3760,-820.07,-125.12,-1860.23
14920,-3.8749,-0.0870,-0.3636,-1632.57,-109.56,-1360.17
14930,-3.8750,-0.0908,-0.3599,867.43,1468.57,-750.73
14940,-3.8749,-0.1133,-0.3552,383.06,1952.94,-1860.11
14950,-3.8746,-0.1517,-0.3369,1508.06,-1453.37,-516.36
14960,-3.8743,-0.1837,-0.3114,586.18,890.32,171.20
14970,-3.8743,-0.1973,-0.2883,492.43,155.88,718.14
14980,-3.8744,-0.1913,-0.2753,-1241.94,-891.05,-406.86
14990,-3.8743,-0.1699,-0.2839,-476.32,780.82,1796.33
15000,-3.8741,-0.1510,-0.3110,-1741.94,-328.49,1593.14
15010,-3.8739,-0.1552,-0.3383,679.93,202.82,1546.26
15020,-3.8735,-0.1969,-0.3392,148.68,718.44,-1547.55
15030,-3.8730,-0.2803,-0.2998,-1195.07,593.32,1139.95
15040,-3.8727,-0.3907,-0.2356,133.06,1640.08,1765.01
15050,-3.8724,-0.5040,-0.1691,1992.43,1858.58,1124.51
15060,-3.8723,-0.5933,-0.1134,-507.57,-1626.04,280.88
15070,-3.8724,-0.6378,-0.0824,70.56,1498.84,-156.49
15080,-3.8724,-0.6298,-0.0717,-1632.57,1467.47,-1734.56
15090,-3.8722,-0.5861,-0.0549,-601.32,-1157.53,1015.44
15100,-3.8717,-0.5510,-0.0308,992.43,983.22,-1297.00
15110,-3.8711,-0.5560,0.0017,1476.81,77.03,-1234.44
15120,-3.8706,-0.6005,0.0634,836.18,233.28,1703.12
15130,-3.8704,-0.6573,0.1227,-851.32,123.78,1625.12
15140,-3.8702,-0.6855,0.1261,-132.57,-282.59,-1874.82
15150,-3.8701,-0.6689,0.0918,258.06,154.91,-874.76
15160,-3.8699,-0.6428,0.0757,-1616.94,-235.72,-1187.38
15170,-3.8695,-0.6504,0.0970,1726.81,1701.84,-1218.63
15180,-3.8691,-0.6912,0.1459,758.06,436.22,-656.07
15190,-3.8688,-0.7465,0.2075,-460.69,-1313.90,625.24
15200,-3.8687,-0.8119,0.2616,461.18,-1423.34,-562.13
15210,-3.8684,-0.8741,0.2889,86.18,1498.41,625.49
15220,-3.8684,-0.8876,0.2787,117.43,998.29,-608.83
15230,-3.8684,-0.8158,0.2268,-1601.32,-314.27,-796.39
15240,-3.8684,-0.6758,0.1533,-413.82,1045.23,1437.93
15250,-3.8684,-0.5175,0.1018,1508.06,-360.72,609.62
15260,-3.8684,-0.3843,0.1163,1773.68,1045.84,1875.18
15270,-3.8683,-0.2920,0.2037,-1179.44,-1094.54,765.81
15280,-3.8682,-0.2369,0.3105,-1366.94,-1906.86,390.99
15290,-3.8682,-0.2035,0.3649,1679.93,-234.86,-1874.45
15300,-3.8683,-0.1692,0.3406,1961.18,-1281.68,-577.45
15310,-3.8684,-0.1189,0.2778,-1648.19,-390.99,1859.99
15320,-3.8685,-0.0537,0.2466,789.31,-422.12,-812.01
15330,-3.8684,0.0322,0.2737,1133.06,-422.00,1422.30
15340,-3.8684,0.1555,0.3163,133.06,-968.69,-687.01
15350,-3.8684,0.3033,0.3325,-85.69,484.62,-1640.01
15360,-3.8684,0.4385,0.3164,-1163.82,-1436.95,156.86
15370,-3.8685,0.5321,0.2740,133.06,500.85,1500.61
15380,-3.8687,0.5731,0.2142,117.43,-920.84,-1796.39
15390,-3.8688,0.5632,0.1606,1367.43,-577.03,1125.37
15400,-3.8690,0.5077,0.1577,101.81,563.60,-1171.57
15410,-3.8691,0.4415,0.2180,992.43,188.48,-1187.19
15420,-3.8691,0.4141,0.2928,523.68,-92.90,-1671.51
15430,-3.8691,0.4294,0.3351,1008.06,1485.17,-1624.45
15440,-3.8691,0.4697,0.3481,-1023.19,-1108.58,109.99
15450,-3.8694,0.5297,0.3534,133.06,563.42,-1499.33
15460,-3.8696,0.6014,0.3495,-195.07,1235.35,-1343.08
15470,-3.8699,0.6608,0.3204,992.43,735.53,1078.80
15480,-3.8702,0.6836,0.2565,586.18,1016.91,594.36
15490,-3.8707,0.6667,0.1700,-491.94,829.41,-1140.14
15500,-3.8711,0.6244,0.0918,1351.81,1766.91,-1234.07
15510,-3.8713,0.5752,0.0520,-70.07,-248.84,203.25
15520,-3.8717,0.5393,0.0536,1633.06,-1342.65,-765.56
15530,-3.8719,0.5260,0.0629,1039.31,-1139.59,-781.19
15540,-3.8722,0.5248,0.0426,-663.82,47.85,1547.00
15550,-3.8726,0.5281,-0.0089,-820.07,1454.10,-1187.44
15560,-3.8728,0.5354,-0.0721,-398.19,-1139.65,671.81
15570,-3.8732,0.5413,-0.1366,539.31,-1233.34,-1109.56
15580,-3.8734,0.5447,-0.1973,1289.31,-1483.34,1890.32
15590,-3.8737,0.5447,-0.2499,1726.81,-1248.96,-953.55
15600,-3.8738,0.5316,-0.2946,1726.81,16.66,-578.61
15610,-3.8738,0.4985,-0.3318,54.93,-1702.09,1577.51
15620,-3.8739,0.4497,-0.3461,-179.44,1532.17,-922.55
15630,-3.8739,0.3931,-0.3190,1570.56,-296.02,1046.14
15640,-3.8739,0.3337,-0.2559,-1679.44,-827.39,514.95
15650,-3.8740,0.2773,-0.1960,-1273.19,-749.39,-1609.92
15660,-3.8743,0.2372,-0.1823,-491.94,-1093.26,-578.55
15670,-3.8745,0.2241,-0.2228,-1632.57,672.30,999.63
15680,-3.8748,0.2334,-0.2963,695.56,-515.20,187.01
15690,-3.8749,0.2474,-0.3746,1883.06,-1921.45,1077.51
15700,-3.8749,0.2465,-0.4342,-320.07,47.30,-313.23
15710,-3.8746,0.2203,-0.4646,-445.07,422.30,467.90
15720,-3.8745,0.1750,-0.4633,211.18,531.68,842.83
15730,-3.8744,0.1241,-0.4308,-1585.69,703.43,405.33
15740,-3.8744,0.0725,-0.3715,-101.32,859.56,-1203.98
15750,-3.8744,0.0160,-0.3002,1289.31,453.25,-94.48
15760,-3.8744,-0.0378,-0.2411,-1945.07,1578.12,-578.74
15770,-3.8744,-0.0649,-0.2118,-835.69,1156.13,1812.01
15780,-3.8744,-0.0664,-0.2174,-304.44,906.07,1093.32
15790,-3.8744,-0.0677,-0.2465,-491.94,187.32,-1719.18
15800,-3.8743,-0.0757,-0.2786,-663.82,468.57,1780.76
15810,-3.8740,-0.0940,-0.2955,-1679.44,359.19,280.70
15820,-3.8738,-0.1355,-0.2889,-23.19,-1812.74,1890.01
15830,-3.8735,-0.1969,-0.2594,-1335.69,-969.06,-109.99
15840,-3.8733,-0.2614,-0.2120,-1195.07,-1187.93,-1125.55
15850,-3.8730,-0.3214,-0.1636,-1445.07,874.45,452.70
15860,-3.8729,-0.3809,-0.1313,-1132.57,-922.55,1905.88
15870,-3.8728,-0.4409,-0.1163,-741.94,-797.67,-890.93
15880,-3.8726,-0.5050,-0.1060,-429.44,1124.08,-1015.87
15890,-3.8722,-0.5787,-0.0934,-632.57,-1547.91,1624.76
15900,-3.8719,-0.6644,-0.0795,1929.93,61.34,-1125.18
15910,-3.8717,-0.7676,-0.0571,-1038.82,1842.41,-1187.68
15920,-3.8715,-0.8905,-0.0334,1758.06,701.60,-1234.50
15930,-3.8713,-1.0270,-0.0217,-1976.32,-267.40,-515.75
15940,-3.8712,-1.1476,-0.0189,554.93,1232.36,953.06
15950,-3.8712,-1.2117,-0.0397,1117.43,1591.49,1218.69
15960,-3.8713,-1.1965,-0.1066,914.31,-1064.88,-406.37
15970,-3.8713,-1.1034,-0.1931,-1148.19,-1627.38,-1390.87
15980,-3.8711,-0.9716,-0.2454,-1226.32,-705.32,905.82
15990,-3.8707,-0.8483,-0.2501,-351.32,607.42,-500.49
16000,-3.8701,-0.7511,-0.2136,-570.07,-1.71,515.08
16010,-3.8696,-0.6807,-0.1350,-132.57,670.35,124.57
16020,-3.8694,-0.6383,-0.0240,883.06,-1266.97,1234.07
16030,-3.8694,-0.6248,0.0758,-1695.07,936.22,1046.81
16040,-3.8693,-0.6355,0.1345,39.31,1717.53,734.50
16050,-3.8689,-0.6689,0.1755,-1335.69,1233.09,-1921.63
16060,-3.8685,-0.7020,0.2153,-1616.94,-1516.97,-640.32
16070,-3.8682,-0.6926,0.2455,-1851.32,-423.28,390.99
16080,-3.8682,-0.6173,0.2461,-648.19,-563.90,-46.45
16090,-3.8682,-0.4753,0.2141,992.43,-485.60,-1312.07
16100,-3.8682,-0.2985,0.1841,-835.69,-579.10,1734.74
16110,-3.8682,-0.1344,0.1884,1804.93,-422.49,-718.44
16120,-3.8680,-0.0135,0.2145,-1195.07,124.69,390.99
16130,-3.8682,0.0602,0.2339,-1726.32,-531.31,-609.01
16140,-3.8682,0.0989,0.2317,-288.82,1937.56,16.05
16150,-3.8684,0.1196,0.1984,664.31,1656.43,-1499.57
16160,-3.8685,0.1398,0.1412,-679.44,1390.81,1453.49
16170,-3.8685,0.1664,0.0892,1898.68,-1921.63,62.74
16180,-3.8685,0.1940,0.0762,1304.93,-577.82,-1937.38
16190,-3.8684,0.2256,0.1132,836.18,1750.37,500.12
16200,-3.8684,0.2645,0.1862,883.06,-1515.20,1625.18
16210,-3.8684,0.2955,0.2775,1867.43,-171.39,-1905.94
16220,-3.8684,0.3058,0.3652,1836.18,-483.83,-1468.26
16230,-3.8684,0.3080,0.4131,-851.32,-1249.45,-1468.08
16240,-3.8684,0.3140,0.4055,-570.07,875.55,453.92
16250,-3.8687,0.3195,0.3523,195.56,-93.14,-1264.89
16260,-3.8689,0.3235,0.2693,898.68,1094.36,-1530.58
16270,-3.8691,0.3276,0.1843,1414.31,-1530.64,453.61
16280,-3.8695,0.3351,0.1283,1945.56,-405.64,1969.06
16290,-3.8698,0.3593,0.1162,-1101.32,422.49,1265.87
16300,-3.8700,0.4053,0.1309,1992.43,-1124.33,-1812.32
16310,-3.8702,0.4635,0.1519,-116.94,750.73,-1484.13
16320,-3.8705,0.5242,0.1794,-663.82,-561.65,1484.62
16330,-3.8708,0.5725,0.2030,-898.19,-1030.27,-187.19
16340,-3.8711,0.5979,0.1890,1289.31,1985.47,547.24
16350,-3.8716,0.6101,0.1256,539.31,188.66,-109.01
16360,-3.8719,0.6191,0.0375,-1898.19,79.28,-999.76
16370,-3.8723,0.6176,-0.0507,-741.94,798.03,1156.31
16380,-3.8728,0.5963,-0.1300,-945.07,1516.78,-47.00
16390,-3.8730,0.5510,-0.1953,336.18,-639.47,-1359.68
16400,-3.8732,0.4897,-0.2390,-1460.69,-998.96,1952.70
16410,-3.8732,0.4312,-0.2594,-1304.44,1407.17,124.51
16420,-3.8733,0.3833,-0.2693,-804.44,-1202.33,1311.95
16430,-3.8735,0.3550,-0.2891,1070.56,1531.98,-1500.55
16440,-3.8739,0.3494,-0.3285,1445.56,-999.33,-359.99
16450,-3.8743,0.3530,-0.3789,726.81,1953.80,-94.42
16460,-3.8745,0.3521,-0.4253,1195.56,-499.33,-828.92
16470,-3.8746,0.3407,-0.4584,1070.56,1563.17,-532.10
16480,-3.8746,0.3176,-0.4738,-382.57,1328.74,-0.92
16490,-3.8745,0.2881,-0.4731,664.31,-640.01,1795.90
16500,-3.8745,0.2548,-0.4628,883.06,-561.95,-1204.10
16510,-3.8745,0.2112,-0.4453,617.43,766.11,1936.58
16520,-3.8746,0.1564,-0.4247,-960.69,-999.63,-860.29
16530,-3.8748,0.0986,-0.4044,23.68,1640.93,-266.48
16540,-3.8748,0.0475,-0.3861,633.06,234.56,1780.46
16550,-3.8748,0.0043,-0.3749,-1913.82,-1421.81,-1547.67
16560,-3.8746,-0.0326,-0.3674,554.93,15.62,1389.89
16570,-3.8745,-0.0614,-0.3488,-163.82,984.25,-1875.73
16580,-3.8743,-0.0864,-0.3152,148.68,-625.12,405.52
16590,-3.8741,-0.1138,-0.2845,945.56,-328.31,1046.20
16600,-3.8741,-0.1356,-0.2703,1445.56,-406.49,1155.64
16610,-3.8743,-0.1454,-0.2708,-1351.32,1421.57,-375.55
16620,-3.8741,-0.1549,-0.2744,1398.68,1359.07,983.83
16630,-3.8740,-0.1788,-0.2700,179.93,890.32,-1844.30
16640,-3.8738,-0.2194,-0.2576,1117.43,1452.76,1765.08
16650,-3.8735,-0.2664,-0.2449,-70.07,-953.61,890.08
16660,-3.8734,-0.3099,-0.2372,1914.31,671.33,1733.89
16670,-3.8733,-0.3514,-0.2295,336.18,1655.64,-656.74
16680,-3.8729,-0.4010,-0.2146,-976.32,-1360.11,546.39
16690,-3.8727,-0.4666,-0.1807,679.93,546.08,-766.05
16700,-3.8723,-0.5514,-0.1160,289.31,889.71,1280.88
16710,-3.8721,-0.6532,-0.0281,1429.93,1170.78,1796.63
16720,-3.8719,-0.7642,0.0321,398.68,420.59,1265.56
16730,-3.8718,-0.8613,0.0341,-1804.44,123.47,-843.69
16740,-3.8713,-0.9445,0.0059,1758.06,373.29,1437.56
16750,-3.8710,-1.0194,-0.0355,-882.57,763.73,-1546.88
16760,-3.8707,-1.0570,-0.0859,1523.68,-533.26,484.25
16770,-3.8707,-1.0415,-0.1227,711.18,1013.55,1249.82
16780,-3.8707,-0.9711,-0.1198,-1304.44,310.42,1640.38
16790,-3.8707,-0.8550,-0.0986,-288.82,685.55,-359.62
16800,-3.8706,-0.7285,-0.1035,-1429.44,-611.08,1671.63
16810,-3.8705,-0.6222,-0.1362,-1241.94,-1235.84,468.51
16820,-3.8704,-0.5596,-0.1703,367.43,-1423.10,1780.94
16830,-3.8702,-0.5443,-0.1949,383.06,-1782.35,-703.49
16840,-3.8701,-0.5488,-0.2034,-1663.82,-938.60,-1687.93
16850,-3.8700,-0.5637,-0.1565,1758.06,1983.28,-1016.05
16860,-3.8696,-0.5908,-0.0437,-148.19,-16.78,-1687.87
16870,-3.8691,-0.5968,0.0740,383.06,-1579.28,640.50
16880,-3.8688,-0.5468,0.1349,-382.57,1483.15,1265.75
16890,-3.8685,-0.4448,0.1266,-1976.32,1280.15,-1218.51
16900,-3.8683,-0.3096,0.0752,-929.44,217.83,1453.37
16910,-3.8682,-0.1742,0.0165,383.06,1640.01,-1312.38
16920,-3.8680,-0.0802,-0.0172,1711.18,-1875.37,-1546.88
16930,-3.8679,-0.0411,-0.0179,1742.43,1812.32,671.81
16940,-3.8679,-0.0443,0.0142,-1257.57,1718.63,1796.81
16950,-3.8679,-0.0640,0.0663,-1663.82,1828.00,-1437.50
16960,-3.8679,-0.0609,0.1088,-179.44,499.82,-421.75
16970,-3.8678,-0.0005,0.1345,211.18,1937.38,797.06
16980,-3.8678,0.1029,0.1638,-54.44,1234.31,-1906.01
16990,-3.8678,0.2003,0.2209,1179.93,968.93,-30.94
17000,-3.8677,0.2678,0.2871,1648.68,281.62,1406.68
17010,-3.8677,0.3158,0.3075,-1710.69,750.49,219.30
17020,-3.8679,0.3557,0.2583,429.93,-640.01,-311.95
17030,-3.8680,0.3788,0.1813,1539.31,1063.17,984.86
17040,-3.8683,0.3909,0.1385,492.43,-796.14,-655.94
17050,-3.8683,0.4186,0.1515,-1960.69,1735.11,78.37
17060,-3.8685,0.4685,0.1904,1586.18,-608.58,-343.51
17070,-3.8687,0.5330,0.2209,-23.19,375.85,937.87
17080,-3.8689,0.5989,0.2352,226.81,282.29,500.43
17090,-3.8693,0.6515,0.2358,664.31,-1889.47,-1218.32
17100,-3.8695,0.6809,0.2251,-601.32,-1811.28,1359.80
17110,-3.8698,0.6871,0.2021,-835.69,813.78,312.93
17120,-3.8701,0.6825,0.1724,-38.82,1876.28,-671.51
17130,-3.8704,0.6732,0.1466,-632.57,-1936.22,1828.43
17140,-3.8707,0.6589,0.1254,-1820.07,-1233.09,-202.88
17150,-3.8710,0.6421,0.0990,351.81,48.16,1984.62
17160,-3.8712,0.6202,0.0596,-1804.44,673.10,15.81
17170,-3.8716,0.5872,0.0120,-601.32,-373.84,1296.94
17180,-3.8719,0.5449,-0.0333,-835.69,1532.35,-1859.38
17190,-3.8723,0.4985,-0.0765,1758.06,-264.59,-859.50
17200,-3.8726,0.4515,-0.1241,-179.44,-1795.96,937.32
17210,-3.8728,0.4098,-0.1709,1804.93,110.23,546.63
17220,-3.8730,0.3789,-0.2108,461.18,-1874.21,1671.51
17230,-3.8733,0.3604,-0.2507,508.06,1016.36,-1312.93
17240,-3.8735,0.3542,-0.2928,-1866.94,-93.08,-516.17
17250,-3.8737,0.3560,-0.3313,1351.81,-1483.70,999.39
17260,-3.8739,0.3533,-0.3618,1570.56,1594.42,-47.55
17270,-3.8739,0.3392,-0.3807,1226.81,1688.17,249.27
17280,-3.8740,0.3169,-0.3890,-570.07,-733.76,686.71
17290,-3.8741,0.2898,-0.3973,570.56,-1796.26,499.21
17300,-3.8744,0.2587,-0.4133,1101.81,1141.17,-250.79
17310,-3.8745,0.2256,-0.4320,1117.43,-905.76,-938.35
17320,-3.8746,0.1884,-0.4542,883.06,703.55,-703.98
17330,-3.8746,0.1461,-0.4778,117.43,1859.74,702.21
17340,-3.8748,0.1022,-0.4905,-1288.82,-1156.01,-1266.60
17350,-3.8748,0.0573,-0.4929,1086.18,1218.93,905.27
17360,-3.8749,0.0143,-0.4838,-663.82,906.31,-875.98
17370,-3.8749,-0.0142,-0.4558,1836.18,-1921.88,-63.48
17380,-3.8746,-0.0243,-0.4150,-1804.44,1671.81,702.21
17390,-3.8745,-0.0278,-0.3773,898.68,-1109.44,1639.77
17400,-3.8744,-0.0334,-0.3474,445.56,-281.31,467.96
17410,-3.8744,-0.0441,-0.3152,-273.19,-453.25,-1672.61
17420,-3.8744,-0.0598,-0.2860,-1632.57,-328.25,-78.80
17430,-3.8743,-0.0789,-0.2736,351.81,-593.87,1515.01
17440,-3.8743,-0.0909,-0.2728,1914.31,999.82,-344.30
17450,-3.8741,-0.0947,-0.2743,367.43,1093.57,-1719.30
17460,-3.8740,-0.1094,-0.2733,-116.94,906.01,-1078.67
17470,-3.8738,-0.1478,-0.2639,-1991.94,1031.01,-1563.05
17480,-3.8735,-0.2087,-0.2533,1086.18,-1765.93,1796.33
17490,-3.8734,-0.2883,-0.2472,1289.31,-406.68,-922.42
17500,-3.8733,-0.3667,-0.2379,-898.19,374.39,-1344.24
17510,-3.8733,-0.4188,-0.2430,1070.56,1561.77,-406.74
17520,-3.8733,-0.4364,-0.2822,-1601.32,905.40,-1266.11
17530,-3.8732,-0.4315,-0.3295,148.68,-110.23,608.76
17540,-3.8730,-0.4380,-0.3619,773.68,1842.90,-813.17
17550,-3.8728,-0.4784,-0.3809,-54.44,1686.58,-547.61
17560,-3.8726,-0.5510,-0.3661,-1226.32,-735.35,1858.58
17570,-3.8724,-0.6403,-0.3044,1476.81,1155.15,-703.86
17580,-3.8722,-0.7076,-0.2397,-1945.07,1045.59,1030.64
17590,-3.8721,-0.7224,-0.2054,1429.93,1326.72,1687.01
17600,-3.8719,-0.7065,-0.1984,-460.69,1717.29,15.20
17610,-3.8718,-0.6971,-0.2183,1570.56,-1376.40,952.70
17620,-3.8715,-0.7133,-0.2502,-1226.32,76.72,983.95
17630,-3.8711,-0.7537,-0.2729,711.18,-17.03,-1922.42
17640,-3.8708,-0.7911,-0.2827,-460.69,1076.60,1999.45
17650,-3.8707,-0.8180,-0.2610,-1257.57,-173.46,1421.26
17660,-3.8706,-0.8604,-0.1781,-695.07,-1392.27,-1484.92
17670,-3.8702,-0.9169,-0.0575,1883.06,1217.04,515.26
17680,-3.8699,-0.9462,0.0457,-1351.32,654.42,390.50
17690,-3.8695,-0.9207,0.1079,-1101.32,1857.48,796.94
17700,-3.8691,-0.8419,0.1292,-1835.69,1826.29,1047.06
17710,-3.8689,-0.7249,0.1055,242.43,545.23,-1640.38
17720,-3.8687,-0.5983,0.0461,-773.19,1514.16,-1218.57
17730,-3.8684,-0.5015,-0.0184,-570.07,1920.65,-968.69
17740,-3.8682,-0.4667,-0.0519,-179.44,1655.21,46.81
17750,-3.8682,-0.4926,-0.0112,273.68,1374.08,-875.12
17760,-3.8680,-0.5452,0.1027,961.18,-1422.85,-1156.31
17770,-3.8679,-0.5704,0.2262,-1773.19,1155.15,-1218.57
17780,-3.8678,-0.5061,0.2987,-1007.57,967.59,-1749.57
17790,-3.8677,-0.3328,0.3068,-773.19,-1751.04,1438.05
17800,-3.8677,-0.0951,0.2808,1414.31,-719.42,-1140.08
17810,-3.8677,0.1370,0.2448,-163.82,-47.12,750.49
17820,-3.8678,0.3083,0.2046,1539.31,-671.63,734.80
17830,-3.8679,0.4015,0.1782,-523.19,-1811.95,1234.74
17840,-3.8680,0.4235,0.1830,-601.32,-1186.77,-1249.69
17850,-3.8680,0.3868,0.2131,-1788.82,-577.33,-1874.69
17860,-3.8680,0.3214,0.2665,1523.68,-718.02,-1515.26
17870,-3.8680,0.2935,0.3394,1148.68,-1890.01,1312.99
17880,-3.8682,0.3529,0.4124,1570.56,-561.95,-936.89
17890,-3.8682,0.4640,0.4679,1179.93,781.92,578.92
17900,-3.8683,0.5637,0.4952,-601.32,-108.52,1250.85
17910,-3.8684,0.6361,0.4801,164.31,-608.28,79.04
17920,-3.8687,0.6925,0.4147,1429.93,1454.35,266.54
17930,-3.8690,0.7389,0.3271,648.68,1079.47,-936.71
17940,-3.8693,0.7733,0.2574,-1413.82,1876.40,-1780.64
17950,-3.8695,0.7878,0.2206,-1007.57,954.59,1797.36
17960,-3.8698,0.7820,0.2098,851.81,235.90,250.43
17970,-3.8701,0.7688,0.2150,101.81,-1139.10,750.37
17980,-3.8705,0.7651,0.2177,-1585.69,-482.91,562.87
17990,-3.8708,0.7744,0.1919,1945.56,-139.16,828.49
18000,-3.8712,0.7744,0.1385,-866.94,563.96,-1499.63
18010,-3.8715,0.7455,0.0819,-866.94,1735.84,1515.87
18020,-3.8717,0.6964,0.0309,-570.07,-1514.22,140.75
18030,-3.8721,0.6453,-0.0227,1148.68,-45.53,781.25
18040,-3.8726,0.5992,-0.0811,-1398.19,1094.97,-453.19
18050,-3.8729,0.5549,-0.1393,711.18,1626.16,1702.94
18060,-3.8733,0.5112,-0.1943,-960.69,-1827.09,1812.19
18070,-3.8735,0.4718,-0.2450,1445.56,-874.02,-1969.18
18080,-3.8737,0.4393,-0.2904,398.68,641.54,1296.39
18090,-3.8738,0.4149,-0.3230,242.43,-1171.02,-1953.74
18100,-3.8739,0.3938,-0.3367,1117.43,-1342.96,-16.30
18110,-3.8739,0.3672,-0.3385,-1585.69,906.98,-1703.80
18120,-3.8740,0.3319,-0.3412,-991.94,672.55,-1313.17
18130,-3.8741,0.2904,-0.3531,-1507.57,328.74,171.20
18140,-3.8744,0.2498,-0.3741,1179.93,-1202.58,311.77
18150,-3.8746,0.2081,-0.3820,-23.19,109.80,-1735.11
18160,-3.8746,0.1586,-0.3470,-1351.32,-890.26,-1438.29
18170,-3.8745,0.1085,-0.2943,304.93,-421.57,-1110.11
18180,-3.8745,0.0770,-0.2827,1898.68,-1671.69,-1500.61
18190,-3.8746,0.0803,-0.3209,1867.43,-187.38,1108.76
18200,-3.8749,0.1033,-0.3818,-1710.69,-1078.00,-641.30
18210,-3.8750,0.1063,-0.4430,1226.81,-874.82,-532.04
18220,-3.8750,0.0745,-0.4823,1617.43,-702.94,-532.17
18230,-3.8748,0.0123,-0.4860,1539.31,-1734.25,124.02
18240,-3.8746,-0.0720,-0.4580,1586.18,1796.88,-625.98
18250,-3.8744,-0.1511,-0.4155,-1210.69,1390.44,327.21
18260,-3.8744,-0.2070,-0.3674,664.31,-1172.18,358.52
18270,-3.8744,-0.2427,-0.3134,1508.06,983.95,358.64
18280,-3.8744,-0.2567,-0.2832,945.56,-94.24,-1860.05
18290,-3.8744,-0.2520,-0.2994,-851.32,-234.92,-1406.86
18300,-3.8743,-0.2397,-0.3326,-241.94,1686.95,874.39
18310,-3.8740,-0.2280,-0.3558,1320.56,1437.01,858.70
18320,-3.8738,-0.2236,-0.3811,-1179.44,-1531.74,1421.14
18330,-3.8737,-0.2290,-0.4149,-616.94,-766.11,874.21
18340,-3.8737,-0.2421,-0.4337,-1304.44,-1094.24,-1563.35
18350,-3.8735,-0.2789,-0.4274,1023.68,499.51,-1578.98
18360,-3.8733,-0.3579,-0.4028,304.93,1311.95,499.15
18370,-3.8730,-0.4670,-0.3511,-1804.44,452.39,717.96
18380,-3.8727,-0.5812,-0.2671,226.81,-922.79,327.39
18390,-3.8724,-0.6761,-0.1917,1617.43,1826.97,-1094.30
18400,-3.8723,-0.7253,-0.1698,1461.18,-516.97,1468.32
18410,-3.8724,-0.7114,-0.2001,-835.69,-1720.21,-1937.87
18420,-3.8724,-0.6559,-0.2574,945.56,-1595.15,499.57
18430,-3.8723,-0.5991,-0.3204,54.93,-938.78,1249.45
18440,-3.8719,-0.5717,-0.3640,-679.44,-1001.22,61.83
18450,-3.8716,-0.6008,-0.3486,-1163.82,1420.72,-1094.48
18460,-3.8711,-0.6918,-0.2650,-898.19,-610.60,-781.98
18470,-3.8707,-0.8086,-0.1548,-538.82,-1907.65,-969.30
18480,-3.8706,-0.8976,-0.0482,508.06,201.54,-1781.56
18490,-3.8706,-0.9186,0.0245,1117.43,1841.98,-1468.87
18500,-3.8702,-0.8674,0.0355,-1570.07,-845.58,1078.12
18510,-3.8696,-0.7854,0.0100,976.81,560.79,1156.31
18520,-3.8691,-0.7090,-0.0099,-523.19,1295.29,-953.12
18530,-3.8687,-0.6365,0.0013,1258.06,-1251.40,593.69
18540,-3.8684,-0.5740,0.0605,-1460.69,186.22,-1093.75
18550,-3.8682,-0.5444,0.1675,-1460.69,-235.53,1906.31
18560,-3.8680,-0.5480,0.2959,-1679.44,1452.03,-546.57
18570,-3.8678,-0.5471,0.4010,1867.43,1889.53,1516.17
18580,-3.8677,-0.5076,0.4218,1976.81,-657.35,-1718.02
18590,-3.8677,-0.4264,0.3203,-960.69,1998.96,-1155.46
18600,-3.8678,-0.3129,0.1428,1429.93,1014.77,-374.39
18610,-3.8679,-0.1791,-0.0038,-38.82,-1703.80,-515.38
18620,-3.8679,-0.0410,-0.0670,1086.18,-469.12,-1796.94
18630,-3.8678,0.0895,-0.0548,-1241.94,-562.62,327.94
18640,-3.8678,0.1898,0.0270,-538.82,984.50,-1843.87
18650,-3.8678,0.2434,0.1632,304.93,-546.51,1796.88
18660,-3.8678,0.2648,0.3206,-835.69,891.05,703.43
18670,-3.8678,0.2935,0.4611,1898.68,1031.74,578.74
18680,-3.8678,0.3634,0.5449,1570.56,-983.83,1969.60
18690,-3.8678,0.4651,0.5388,-1476.32,1750.67,-1420.84
18700,-3.8679,0.5623,0.4501,-460.69,969.60,-717.71
18710,-3.8680,0.6251,0.3207,-23.19,1610.41,344.60
18720,-3.8683,0.6345,0.2008,23.68,1048.10,313.11
18730,-3.8685,0.5925,0.1223,1226.81,1704.35,312.87
18740,-3.8689,0.5406,0.0868,-148.19,-342.65,-343.57
18750,-3.8691,0.5223,0.1001,1211.18,-889.59,-1968.63
18760,-3.8694,0.5343,0.1598,-1132.57,813.48,281.43
18770,-3.8698,0.5571,0.2140,398.68,454.16,-1562.19
18780,-3.8700,0.5905,0.2238,-679.44,-608.34,125.37
18790,-3.8702,0.6398,0.2083,-413.82,641.72,250.43
18800,-3.8704,0.7075,0.1895,1898.68,-1342.53,172.24
18810,-3.8706,0.7872,0.1592,-1429.44,251.34,-624.63
18820,-3.8708,0.8518,0.1107,773.68,376.53,1922.18
18830,-3.8712,0.8644,0.0537,1039.31,-1826.48,1187.68
18840,-3.8716,0.8112,-0.0007,-1351.32,-1123.35,406.31
18850,-3.8719,0.7261,-0.0509,-163.82,-92.22,1453.06
18860,-3.8722,0.6536,-0.0981,945.56,1485.78,546.75
18870,-3.8724,0.6033,-0.1366,-335.69,-561.28,749.76
18880,-3.8727,0.5577,-0.1603,1226.81,-1483.22,1702.82
18890,-3.8729,0.5034,-0.1775,-601.32,-514.59,-937.87
18900,-3.8730,0.4485,-0.2000,445.56,1282.23,296.51
18910,-3.8733,0.4027,-0.2260,1414.31,-1592.90,-1812.93
18920,-3.8734,0.3640,-0.2438,-445.07,-921.14,1671.39
18930,-3.8735,0.3320,-0.2457,-1398.19,797.55,-1937.99
18940,-3.8737,0.3085,-0.2424,-1491.94,547.49,-1406.74
18950,-3.8738,0.2906,-0.2540,-507.57,969.30,-953.61
18960,-3.8739,0.2739,-0.2856,1211.18,-515.08,-1281.80
18970,-3.8740,0.2537,-0.3237,-929.44,-562.01,1140.01
18980,-3.8743,0.2334,-0.3535,476.81,-1437.01,-781.92
18990,-3.8744,0.2189,-0.3796,1883.06,-1249.57,-1688.23
19000,-3.8745,0.2035,-0.4108,23.68,-593.32,-1016.42
19010,-3.8745,0.1776,-0.4404,-1945.07,-577.76,811.65
19020,-3.8746,0.1415,-0.4564,-1257.57,-374.69,-985.29
19030,-3.8746,0.0985,-0.4495,-1882.57,1578.37,-1657.17
19040,-3.8746,0.0518,-0.4252,617.43,-1531.07,-672.79
19050,-3.8745,0.0059,-0.3995,-1366.94,1578.19,842.90
19060,-3.8745,-0.0326,-0.3787,758.06,859.38,1546.08
19070,-3.8745,-0.0613,-0.3608,-163.82,-453.25,1296.08
19080,-3.8745,-0.0863,-0.3513,164.31,1828.00,671.14
19090,-3.8745,-0.1139,-0.3580,961.18,-953.31,530.52
19100,-3.8745,-0.1465,-0.3690,1429.93,-1812.74,1858.64
19110,-3.8744,-0.1844,-0.3732,1258.06,780.94,530.52
19120,-3.8744,-0.2200,-0.3772,398.68,249.63,-1203.86
19130,-3.8744,-0.2428,-0.3816,-148.19,-266.11,-610.17
19140,-3.8744,-0.2568,-0.3781,929.93,-828.61,-750.79
19150,-3.8744,-0.2729,-0.3666,-866.94,-375.55,-360.17
19160,-3.8743,-0.2784,-0.3594,1070.56,1093.20,952.39
19170,-3.8741,-0.2698,-0.3578,367.43,-1984.92,1124.27
19180,-3.8739,-0.2717,-0.3452,1476.81,-1781.80,139.89
19190,-3.8738,-0.3085,-0.3087,1226.81,-172.42,-1500.73
19200,-3.8735,-0.3864,-0.2437,523.68,499.39,765.01
19210,-3.8734,-0.4791,-0.1743,-1445.07,827.33,1249.51
19220,-3.8734,-0.5295,-0.1562,-1320.07,1702.15,-1984.74
19230,-3.8733,-0.4982,-0.2178,226.81,14.59,843.44
19240,-3.8732,-0.4062,-0.3298,242.43,139.65,-1562.93
19250,-3.8729,-0.3213,-0.4130,8.06,1796.08,1405.58
19260,-3.8727,-0.3163,-0.3959,-1116.94,-844.42,-282.10
19270,-3.8723,-0.4069,-0.2920,-476.32,1343.08,-1703.92
19280,-3.8719,-0.5621,-0.1451,-70.07,-1360.23,624.39
19290,-3.8716,-0.7557,0.0157,54.93,1436.40,-515.93
19300,-3.8710,-0.9514,0.1399,-726.32,-1970.28,-1468.75
19310,-3.8704,-1.1017,0.1919,-1773.19,1919.98,1406.49
19320,-3.8699,-1.1854,0.1925,-1007.57,575.93,-1765.26
19330,-3.8695,-1.2167,0.1649,273.68,653.93,-530.88
19340,-3.8693,-1.2198,0.1213,273.68,1122.62,-1640.32
19350,-3.8691,-1.2151,0.0967,-132.57,-455.57,640.81
19360,-3.8691,-1.2133,0.1132,476.81,388.24,-781.07
19370,-3.8690,-1.1909,0.1431,711.18,-1502.38,-452.94
19380,-3.8688,-1.1212,0.1440,-429.44,-1674.26,218.99
19390,-3.8687,-1.0139,0.1117,492.43,-1549.07,265.87
19400,-3.8685,-0.9110,0.0876,-1773.19,-1689.51,328.31
19410,-3.8684,-0.8583,0.1005,-601.32,-767.46,937.62
19420,-3.8683,-0.8575,0.1414,-1851.32,873.29,515.81
19430,-3.8683,-0.8740,0.1897,-1757.57,-1892.33,-1546.63
19440,-3.8683,-0.8669,0.2306,133.06,295.17,-405.88
19450,-3.8682,-0.8168,0.2715,1039.31,1529.54,328.55
19460,-3.8682,-0.7288,0.3143,-538.82,-1236.02,766.11
19470,-3.8683,-0.5963,0.3296,-1273.19,248.54,-233.76
19480,-3.8683,-0.4139,0.2988,-320.07,-1798.10,1219.36
19490,-3.8684,-0.2122,0.2439,-976.32,-1735.23,-780.70
19500,-3.8684,-0.0388,0.2026,851.81,-766.05,-858.95
19510,-3.8683,0.0745,0.2023,-960.69,1953.00,234.74
19520,-3.8683,0.1309,0.2502,1539.31,1890.75,1344.12
19530,-3.8683,0.1549,0.3195,758.06,31.49,1094.24
19540,-3.8684,0.1777,0.3678,-163.82,890.87,-515.01
19550,-3.8684,0.2321,0.3789,-1241.94,-921.57,1469.42
19560,-3.8685,0.3235,0.3605,1711.18,500.43,-1014.89
19570,-3.8687,0.4369,0.3297,1414.31,-1858.76,-14.95
19580,-3.8688,0.5571,0.2943,-70.07,-1796.08,-436.89
19590,-3.8689,0.6614,0.2595,-679.44,1672.91,1250.55
19600,-3.8691,0.7281,0.2332,664.31,1220.03,1984.86
19610,-3.8694,0.7455,0.2019,1211.18,1845.15,1266.05
19620,-3.8698,0.7266,0.1473,-570.07,1845.15,-1140.26
19630,-3.8701,0.7042,0.0719,1008.06,-1139.22,-218.51
19640,-3.8704,0.6918,-0.0153,-1851.32,1204.47,343.87
19650,-3.8707,0.6858,-0.1130,554.93,-1951.78,31.19
19660,-3.8712,0.6846,-0.2144,-210.69,1532.53,-203.37
19670,-3.8715,0.6847,-0.2941,-366.94,563.78,1499.57
19680,-3.8717,0.6797,-0.3346,-351.32,-1639.34,515.01
19690,-3.8721,0.6653,-0.3513,-991.94,1173.16,-906.92
19700,-3.8723,0.6447,-0.3569,1164.31,-967.47,921.14
19710,-3.8726,0.6139,-0.3167,-1476.32,-1686.28,1921.14
19720,-3.8726,0.5444,-0.1830,-1413.82,-530.09,-1328.80
19730,-3.8726,0.4346,-0.0210,1695.56,579.16,1405.88
19740,-3.8728,0.3673,0.0505,-366.94,1313.29,1968.69
19750,-3.8729,0.3969,-0.0001,-976.32,-1530.58,546.94
19760,-3.8730,0.4706,-0.1282,-1195.07,-14.89,-1984.44
19770,-3.8732,0.5239,-0.2631,242.43,-405.33,-1750.31
19780,-3.8734,0.5389,-0.3679,-929.44,-1670.90,-906.80
19790,-3.8737,0.5239,-0.4377,992.43,907.29,-500.73
19800,-3.8738,0.4822,-0.4779,-929.44,-30.27,1514.71
19810,-3.8739,0.4139,-0.4919,1726.81,-1170.96,1952.15
19820,-3.8739,0.3270,-0.4611,992.43,1032.04,702.15
19830,-3.8739,0.2236,-0.3744,1867.43,984.99,1358.46
19840,-3.8739,0.1138,-0.2720,633.06,78.55,1155.52
19850,-3.8741,0.0361,-0.2157,-1429.44,1187.68,-766.17
19860,-3.8744,0.0216,-0.2295,633.06,390.69,-1844.18
19870,-3.8745,0.0586,-0.2937,-1226.32,-1375.00,327.64
19880,-3.8746,0.1096,-0.3776,-491.94,-1593.69,-547.49
19890,-3.8745,0.1429,-0.4485,-1960.69,-327.94,1983.58
19900,-3.8744,0.1442,-0.4752,-1695.07,-1406.01,1670.96
19910,-3.8743,0.1079,-0.4526,-1538.82,-827.88,577.15
19920,-3.8743,0.0417,-0.4086,1820.56,-1937.32,1358.46
19930,-3.8744,-0.0383,-0.3584,1351.81,-296.81,-157.10
19940,-3.8744,-0.1305,-0.2914,-898.19,-1859.50,-188.23
19950,-3.8743,-0.2297,-0.2230,-695.07,-1281.56,-1094.36
19960,-3.8743,-0.2996,-0.1920,-1398.19,-531.74,-16.11
19970,-3.8743,-0.3099,-0.2125,1664.31,-563.11,-1125.43
19980,-3.8741,-0.2847,-0.2592,336.18,811.89,702.70
19990,-3.8740,-0.2698,-0.3030,-429.44,-1156.86,-1734.92
20000,-3.8738,-0.2805,-0.3370,1476.81,1233.83,890.01
20010,-3.8737,-0.3120,-0.3533,101.81,874.45,-703.80
20020,-3.8734,-0.3661,-0.3376,70.56,-1203.74,1655.52
20030,-3.8733,-0.4351,-0.2990,1148.68,796.14,-1281.92
20040,-3.8732,-0.4980,-0.2673,320.56,1749.15,1311.89
20050,-3.8732,-0.5477,-0.2494,258.06,1795.90,-1484.92
20060,-3.8730,-0.5970,-0.2340,1898.68,92.65,1249.51
20070,-3.8729,-0.6427,-0.2238,-413.82,-1938.72,-1156.74
20080,-3.8728,-0.6467,-0.2424,1742.43,-626.28,-31.74
20090,-3.8727,-0.5909,-0.3042,1226.81,983.09,-594.24
20100,-3.8724,-0.5137,-0.3776,367.43,1076.97,1296.26
20110,-3.8722,-0.4670,-0.4274,-1741.94,-313.54,-1938.29
20120,-3.8719,-0.4698,-0.4438,226.81,1311.58,1280.40
20130,-3.8718,-0.5206,-0.4182,-132.57,-797.85,-829.04
20140,-3.8716,-0.6013,-0.3506,1367.43,-1516.66,358.52
20150,-3.8715,-0.6759,-0.2788,-960.69,-860.60,93.02
20160,-3.8713,-0.7209,-0.2305,1492.43,326.78,-1297.42
20170,-3.8710,-0.7432,-0.2003,-273.19,-1485.84,1702.64
20180,-3.8706,-0.7549,-0.1857,883.06,-1626.46,-1750.43
20190,-3.8702,-0.7449,-0.1935,-616.94,248.47,1187.13
20200,-3.8700,-0.6949,-0.2229,664.31,-751.46,-1359.80
20210,-3.8696,-0.6129,-0.2498,-945.07,-517.03,-1094.24
20220,-3.8691,-0.5413,-0.2517,1554.93,45.65,1405.76
20230,-3.8688,-0.5151,-0.2185,-1273.19,-204.22,-547.42
20240,-3.8683,-0.5269,-0.1445,-1929.44,45.84,296.45
20250,-3.8680,-0.5334,-0.0486,570.56,1514.59,-578.43
20260,-3.8677,-0.4884,0.0270,-273.19,1795.78,1218.63
20270,-3.8674,-0.3881,0.0559,1492.43,-532.23,-1953.12
20280,-3.8672,-0.2592,0.0457,-1663.82,-828.92,1203.19
20290,-3.8671,-0.1271,0.0289,-1163.82,1858.83,1203.19
20300,-3.8671,-0.0063,0.0275,-257.57,-281.56,1984.38
20310,-3.8672,0.1044,0.0253,-804.44,-468.81,-109.38
20320,-3.8672,0.2113,0.0139,1367.43,-765.44,906.25
20330,-3.8673,0.3076,0.0085,-945.07,1781.62,-703.12
20340,-3.8673,0.3861,0.0183,-616.94,1094.30,1640.62
20350,-3.8674,0.4581,0.0411,1429.93,-1655.52,-1687.50
20360,-3.8676,0.5289,0.0734,-1351.32,1266.48,1031.31
20370,-3.8678,0.5862,0.1021,-288.82,1391.60,-1734.25
20380,-3.8680,0.6228,0.1071,-960.69,1063.60,-1515.44
20390,-3.8683,0.6486,0.0874,-273.19,1704.28,1609.56
20400,-3.8685,0.6703,0.0583,-976.32,-811.28,203.25
20410,-3.8689,0.6855,0.0303,1804.93,-529.97,-1718.69
20420,-3.8693,0.7021,0.0112,-241.94,-123.72,-78.12
20430,-3.8695,0.7201,0.0087,1883.06,1438.84,-1875.00
20440,-3.8698,0.7247,0.0157,179.93,1110.78,796.88
20450,-3.8701,0.7200,0.0157,773.68,-1982.97,-750.00
20460,-3.8704,0.7251,-0.0011,164.31,-1982.97,1140.62
20470,-3.8707,0.7389,-0.0405,820.56,-139.22,1984.31
20480,-3.8711,0.7449,-0.0847,-1413.82,-1186.10,-953.25
20490,-3.8713,0.7490,-0.0977,-648.19,1157.65,-1453.31
20500,-3.8716,0.7642,-0.0870,-116.94,-498.60,-62.74
20510,-3.8717,0.7800,-0.0930,1820.56,860.84,1218.57
20520,-3.8719,0.7749,-0.1211,-148.19,95.21,1546.69
20530,-3.8722,0.7266,-0.1473,-804.44,501.46,1281.01
20540,-3.8724,0.6339,-0.1671,1008.06,1142.03,1187.19
20550,-3.8727,0.5286,-0.1925,1148.68,-1389.40,1234.01
20560,-3.8729,0.4415,-0.2238,-335.69,-639.65,1765.20
20570,-3.8732,0.3795,-0.2634,523.68,-639.77,-1859.86
20580,-3.8734,0.3369,-0.3181,586.18,-1718.02,1468.20
20590,-3.8737,0.3123,-0.3802,-866.94,-718.14,1655.58
20600,-3.8738,0.3093,-0.4353,-23.19,-671.33,249.21
20610,-3.8739,0.3219,-0.4714,-398.19,281.80,967.90
20620,-3.8740,0.3364,-0.4780,1211.18,-343.14,-735.35
20630,-3.8740,0.3434,-0.4459,-929.44,-1186.89,-1016.60
20640,-3.8740,0.3297,-0.3838,-38.82,-1077.51,-1219.67
20650,-3.8741,0.2872,-0.3148,-1788.82,-1124.39,-0.79
20660,-3.8743,0.2249,-0.2587,773.68,-296.33,-1281.92
20670,-3.8744,0.1584,-0.2313,789.31,-1108.95,999.45
20680,-3.8746,0.1018,-0.2502,289.31,-1609.07,-1203.61
20690,-3.8748,0.0668,-0.3113,1039.31,-31.07,1640.08
20700,-3.8748,0.0491,-0.3835,554.93,156.37,202.51
20710,-3.8748,0.0314,-0.4365,-1710.69,-1093.69,1217.96
20720,-3.8748,0.0038,-0.4615,23.68,125.06,1358.52
20730,-3.8749,-0.0293,-0.4677,492.43,921.88,-407.17
20740,-3.8749,-0.0579,-0.4586,258.06,156.19,-1938.42
20750,-3.8749,-0.0875,-0.4266,601.81,1312.38,-282.17
20760,-3.8746,-0.1310,-0.3739,804.93,1406.07,858.52
20770,-3.8745,-0.1796,-0.3101,-757.57,155.94,1280.52
20780,-3.8744,-0.2239,-0.2421,1023.68,327.76,999.39
20790,-3.8743,-0.2616,-0.1981,-648.19,1030.76,608.89
20800,-3.8744,-0.2715,-0.2104,-1476.32,-1344.30,-281.68
20810,-3.8744,-0.2412,-0.2739,1258.06,1077.58,827.70
20820,-3.8743,-0.1976,-0.3486,1133.06,952.64,30.70
20830,-3.8740,-0.1852,-0.4050,-1288.82,-609.80,1764.89
20840,-3.8737,-0.2322,-0.4265,304.93,171.51,764.83
20850,-3.8733,-0.3330,-0.3804,-1710.69,1421.39,686.65
20860,-3.8730,-0.4598,-0.2799,1383.06,-672.55,-735.17
20870,-3.8729,-0.5656,-0.1906,1148.68,186.58,1733.83
20880,-3.8730,-0.6182,-0.1464,-382.57,-376.16,-78.55
20890,-3.8729,-0.6395,-0.1482,883.06,1280.03,-1812.81
20900,-3.8727,-0.6562,-0.2013,-1851.32,1045.59,530.94
20910,-3.8724,-0.6670,-0.2941,8.06,-1751.28,780.82
20920,-3.8722,-0.6780,-0.3805,-1366.94,-1626.34,-1703.74
20930,-3.8719,-0.7040,-0.4188,1226.81,-688.84,-1610.17
20940,-3.8718,-0.7540,-0.3976,1898.68,-1595.15,-1532.10
20950,-3.8717,-0.8103,-0.3191,-507.57,1123.47,1811.71
20960,-3.8716,-0.8335,-0.2108,289.31,-829.71,-985.05
20970,-3.8713,-0.8153,-0.1332,1320.56,1029.60,-1797.30
20980,-3.8710,-0.7764,-0.1149,-351.32,-1032.90,-1984.68
20990,-3.8706,-0.7394,-0.1403,633.06,1310.97,-656.49
21000,-3.8702,-0.7198,-0.1769,1367.43,-1938.96,1780.94
21010,-3.8700,-0.7216,-0.1708,-132.57,1373.54,-1515.99
21020,-3.8698,-0.7349,-0.0851,-351.32,-1845.21,-1094.12
21030,-3.8694,-0.7329,0.0558,1945.56,1123.54,781.07
21040,-3.8690,-0.6937,0.1887,-1804.44,-845.21,1000.06
21050,-3.8687,-0.6182,0.2542,-788.82,170.47,1937.87
21060,-3.8683,-0.5142,0.2410,883.06,545.65,1062.99
21070,-3.8680,-0.3955,0.1951,-1804.44,-1141.66,-937.07
21080,-3.8677,-0.2899,0.1720,1383.06,983.58,1172.24
21090,-3.8674,-0.2268,0.1923,-1101.32,-1969.36,1640.93
21100,-3.8673,-0.2076,0.2384,-1023.19,624.51,-1093.38
21110,-3.8672,-0.2052,0.2740,1429.93,-1469.18,1641.05
21120,-3.8672,-0.1866,0.2684,1742.43,-906.68,-1390.14
21130,-3.8672,-0.1282,0.2223,117.43,-1625.37,-1577.64
21140,-3.8672,-0.0267,0.1711,-398.19,468.44,-1390.20
21150,-3.8672,0.0950,0.1449,586.18,1921.81,-1046.57
21160,-3.8672,0.1970,0.1338,164.31,-1452.94,1687.74
21170,-3.8673,0.2632,0.1237,1226.81,1125.37,1953.37
21180,-3.8674,0.3219,0.1263,1695.56,-171.39,406.43
21190,-3.8677,0.3844,0.1467,1211.18,172.49,-1546.63
21200,-3.8678,0.4276,0.1656,1211.18,-1218.02,531.49
21210,-3.8680,0.4509,0.1676,-1257.57,1203.92,-1687.19
21220,-3.8683,0.4717,0.1462,1726.81,1453.98,-343.44
21230,-3.8685,0.4894,0.0989,383.06,-1280.33,-656.01
21240,-3.8688,0.5006,0.0342,-1351.32,657.17,687.68
21250,-3.8691,0.5083,-0.0258,86.18,375.98,437.56
21260,-3.8695,0.5129,-0.0645,1070.56,704.10,343.69
21270,-3.8699,0.5115,-0.0875,1664.31,-249.02,1343.57
21280,-3.8702,0.5070,-0.1100,1476.81,797.85,-1640.81
21290,-3.8706,0.5082,-0.1373,898.68,1922.85,-406.49
21300,-3.8708,0.5177,-0.1682,1054.93,-1577.15,1702.82
21310,-3.8711,0.5278,-0.2035,-1726.32,-1530.27,187.13
21320,-3.8715,0.5309,-0.2277,-429.44,1954.10,-1156.68
21330,-3.8717,0.5350,-0.2100,-38.82,-1139.65,-687.99
21340,-3.8718,0.5452,-0.1643,492.43,1126.04,-1500.43
21350,-3.8719,0.5527,-0.1467,1789.31,-1030.21,1374.63
21360,-3.8722,0.5585,-0.1791,-1241.94,1219.79,-1359.68
21370,-3.8723,0.5603,-0.2327,-507.57,1079.16,93.38
21380,-3.8726,0.5438,-0.2743,-273.19,-1780.21,-1031.74
21390,-3.8727,0.5039,-0.2969,1617.43,891.66,-797.42
21400,-3.8728,0.4497,-0.3126,508.06,-1999.02,-1313.11
21410,-3.8729,0.3861,-0.3212,1570.56,-14.77,499.33
21420,-3.8732,0.3156,-0.3060,1429.93,-1108.64,-47.55
21430,-3.8732,0.2462,-0.2827,398.68,828.74,905.64
21440,-3.8734,0.1949,-0.2803,-476.32,-187.07,-328.74
21450,-3.8735,0.1759,-0.2911,961.18,125.37,1655.70
21460,-3.8737,0.1766,-0.2988,-1476.32,-1265.32,-1719.36
21470,-3.8738,0.1776,-0.3174,-1382.57,1750.31,-141.24
21480,-3.8738,0.1792,-0.3563,-1257.57,-624.69,671.20
21490,-3.8739,0.1841,-0.3955,-1054.44,-1609.07,-1844.48
21500,-3.8739,0.1818,-0.4225,-429.44,1375.31,296.08
21510,-3.8740,0.1647,-0.4432,-726.32,1922.18,1796.02
21520,-3.8741,0.1366,-0.4574,1086.18,-734.07,1936.58
21530,-3.8743,0.0994,-0.4592,1492.43,1453.37,-1704.04
21540,-3.8743,0.0526,-0.4500,726.81,1218.93,545.96
21550,-3.8744,0.0055,-0.4391,-1257.57,-1593.69,-469.67
21560,-3.8744,-0.0325,-0.4296,711.18,-203.12,-1579.04
21570,-3.8744,-0.0618,-0.4198,-148.19,1031.13,-1688.35
21580,-3.8744,-0.0842,-0.4128,101.81,-1718.87,1983.52
21590,-3.8745,-0.0994,-0.4097,1226.81,-828.31,-844.60
21600,-3.8745,-0.1068,-0.4025,-710.69,-422.12,77.27
21610,-3.8746,-0.1082,-0.3887,-1663.82,499.76,-110.17
21620,-3.8745,-0.1049,-0.3723,-1835.69,-1734.62,-1641.42
21630,-3.8744,-0.1007,-0.3490,-1413.82,359.13,-891.36
21640,-3.8741,-0.1089,-0.3096,-882.57,-656.49,1733.64
21650,-3.8739,-0.1345,-0.2484,-1929.44,390.38,1311.89
21660,-3.8737,-0.1648,-0.1814,-1210.69,218.44,718.26
21670,-3.8735,-0.1864,-0.1426,-1085.69,796.51,405.88
21680,-3.8737,-0.2021,-0.1460,148.68,1765.26,-156.56
21690,-3.8735,-0.2256,-0.1752,-1866.94,1327.70,812.19
21700,-3.8734,-0.2703,-0.2098,-866.94,1593.26,-1578.49
21710,-3.8732,-0.3312,-0.2347,1414.31,1155.70,1718.32
21720,-3.8729,-0.4052,-0.2244,1617.43,1968.08,1390.14
21730,-3.8726,-0.5016,-0.1710,148.68,-703.92,140.14
21740,-3.8723,-0.6073,-0.1178,-195.07,-1876.04,1640.26
21750,-3.8722,-0.6780,-0.0958,-1726.32,936.28,1421.63
21760,-3.8722,-0.6807,-0.1119,1226.81,-251.34,-718.99
21770,-3.8721,-0.6282,-0.1760,883.06,1686.16,718.51
21780,-3.8721,-0.5664,-0.2648,-398.19,1483.09,-1828.49
21790,-3.8719,-0.5426,-0.3357,-491.94,-1876.16,-1375.55
21800,-3.8717,-0.5701,-0.3704,-1445.07,1045.78,952.45
21810,-3.8716,-0.6312,-0.3673,-960.69,608.22,1530.52
21820,-3.8715,-0.7002,-0.3157,-788.82,998.72,1452.39
21830,-3.8713,-0.7654,-0.2205,-1616.94,-392.03,-344.42
21840,-3.8710,-0.8245,-0.1013,-1960.69,-204.65,1187.01
21850,-3.8706,-0.8727,0.0294,-1523.19,-954.77,-1625.24
21860,-3.8701,-0.9039,0.1398,304.93,-220.46,-1296.88
21870,-3.8696,-0.8904,0.1837,304.93,1904.48,468.99
21880,-3.8694,-0.8094,0.1595,-1960.69,-470.52,109.68
21890,-3.8693,-0.6914,0.1125,398.68,435.91,-1390.32
21900,-3.8689,-0.5924,0.0718,-491.94,-1579.53,281.43
21910,-3.8687,-0.5402,0.0358,179.93,1201.97,-1781.13
21920,-3.8685,-0.5220,0.0105,-1132.57,592.65,-640.56
21930,-3.8684,-0.5275,0.0333,1195.56,1358.34,843.75
21940,-3.8684,-0.5632,0.1177,492.43,280.21,-703.06
21950,-3.8683,-0.5988,0.2102,-85.69,-923.03,-577.94
21960,-3.8682,-0.5811,0.2523,-632.57,-1079.35,-343.38
21970,-3.8679,-0.5032,0.2369,1633.06,311.34,109.86
21980,-3.8678,-0.3921,0.1980,-398.19,-1657.29,0.43
21990,-3.8678,-0.2809,0.1664,1820.56,1358.58,765.99
22000,-3.8679,-0.1901,0.1511,54.93,1311.95,-1421.57
22010,-3.8679,-0.1150,0.1487,-320.07,-641.05,187.74
22020,-3.8680,-0.0411,0.1493,1289.31,-953.37,-1296.63
22030,-3.8680,0.0363,0.1467,-1257.57,-875.12,1734.62
22040,-3.8680,0.1168,0.1569,648.68,-1218.69,609.62
22050,-3.8682,0.1957,0.1979,-1038.82,78.31,-1359.07
22060,-3.8682,0.2655,0.2533,1054.93,1328.49,0.37
22070,-3.8683,0.3339,0.2914,1992.43,422.36,1422.36
22080,-3.8684,0.4064,0.3005,-1257.57,1297.49,-1327.58
22090,-3.8685,0.4736,0.2878,23.68,-1530.46,-749.45
22100,-3.8687,0.5258,0.2623,633.06,844.67,-1233.83
22110,-3.8688,0.5623,0.2327,-695.07,1579.10,1250.49
22120,-3.8690,0.5919,0.2024,-23.19,1782.29,-1577.70
22130,-3.8693,0.6282,0.1620,-226.32,1907.35,1875.37
22140,-3.8695,0.6686,0.1061,414.31,735.60,515.93
22150,-3.8699,0.6948,0.0453,1586.18,1579.41,-1312.32
22160,-3.8702,0.6959,-0.0098,945.56,1798.22,-484.31
22170,-3.8706,0.6770,-0.0580,1086.18,-1248.66,-531.31
22180,-3.8710,0.6542,-0.1011,-1335.69,579.41,-718.87
22190,-3.8713,0.6399,-0.1414,-257.57,-936.28,-343.99
22200,-3.8716,0.6320,-0.1763,1914.31,1907.47,1015.32
22210,-3.8719,0.6207,-0.1986,898.68,1438.72,-1312.87
22220,-3.8722,0.6035,-0.1984,-538.82,-1420.72,1483.95
22230,-3.8724,0.5798,-0.1788,1258.06,-1389.47,-1844.18
22240,-3.8727,0.5542,-0.1639,-1773.19,1110.47,-172.24
22250,-3.8728,0.5333,-0.1737,-1054.44,-983.34,1796.51
22260,-3.8730,0.5161,-0.2124,273.68,1766.66,-390.99
22270,-3.8732,0.4961,-0.2723,-1929.44,813.48,1249.57
22280,-3.8734,0.4669,-0.3374,-491.94,1141.54,-766.17
22290,-3.8735,0.4255,-0.3922,-226.32,813.35,1358.70
22300,-3.8738,0.3741,-0.4331,-1523.19,1797.67,-578.92
22310,-3.8739,0.3173,-0.4585,-101.32,563.17,-1063.35
22320,-3.8739,0.2601,-0.4613,617.43,1313.11,842.83
22330,-3.8739,0.2135,-0.4468,1304.93,953.61,155.33
22340,-3.8740,0.1855,-0.4196,-663.82,-1187.13,-907.17
22350,-3.8740,0.1740,-0.3716,-241.94,-1702.82,1639.77
22360,-3.8740,0.1749,-0.3164,-1726.32,437.81,311.77
22370,-3.8741,0.1857,-0.2925,-1601.32,-499.69,1671.20
22380,-3.8743,0.1989,-0.3142,-226.32,-1437.19,1905.64
22390,-3.8744,0.2029,-0.3607,1461.18,-218.38,-1125.67
22400,-3.8744,0.1831,-0.4080,1976.81,1828.49,1608.64
22410,-3.8744,0.1343,-0.4413,-554.44,-218.44,-1953.98
22420,-3.8744,0.0665,-0.4521,1195.56,-484.13,-1094.67
22430,-3.8744,-0.0087,-0.4417,523.68,-1874.88,-1110.29
22440,-3.8744,-0.0840,-0.4105,-1101.32,-515.69,-1735.29
22450,-3.8744,-0.1587,-0.3586,1258.06,-531.43,-922.73
22460,-3.8743,-0.2302,-0.3038,-304.44,-1890.99,1358.64
22470,-3.8743,-0.2737,-0.2712,-1460.69,1124.51,-1828.74
22480,-3.8743,-0.2701,-0.2684,976.81,1296.33,1468.20
22490,-3.8743,-0.2426,-0.2880,1429.93,1655.70,1765.08
22500,-3.8741,-0.2274,-0.3137,961.18,-844.24,530.64
22510,-3.8740,-0.2488,-0.3253,-1101.32,-141.11,-1719.42
22520,-3.8738,-0.3103,-0.3145,164.31,-1625.49,1968.08
22530,-3.8735,-0.3909,-0.2869,289.31,-234.99,811.83
22540,-3.8734,-0.4722,-0.2474,1976.81,-703.92,-1063.11
22550,-3.8732,-0.5529,-0.1949,-429.44,342.77,1733.89
22560,-3.8730,-0.6285,-0.1545,1242.43,-938.60,1187.07
22570,-3.8729,-0.6761,-0.1489,-445.07,233.09,952.82
22580,-3.8727,-0.7017,-0.1560,1461.18,951.78,1984.07
22590,-3.8724,-0.7316,-0.1699,-1804.44,45.47,-1297.18
22600,-3.8722,-0.7562,-0.1932,-1632.57,-1735.84,1109.01
22610,-3.8721,-0.7720,-0.2000,-788.82,-720.28,-969.18
22620,-3.8718,-0.7974,-0.1754,1195.56,-1579.65,1265.20
22630,-3.8717,-0.8424,-0.1344,1945.56,1560.91,-1078.49
22640,-3.8715,-0.8982,-0.0771,179.93,-1189.15,874.69
22650,-3.8712,-0.9371,-0.0028,1039.31,-1861.15,984.19
22660,-3.8710,-0.9271,0.0564,54.93,-345.58,1687.44
22670,-3.8707,-0.8683,0.0950,1336.18,-767.46,-640.56
22680,-3.8704,-0.8054,0.1365,867.43,170.17,-859.19
22690,-3.8700,-0.7666,0.1702,914.31,1482.79,1922.12
22700,-3.8698,-0.7471,0.1796,1883.06,1795.35,-1593.44
22710,-3.8695,-0.7411,0.1865,383.06,-1001.46,-546.57
22720,-3.8691,-0.7379,0.2041,1148.68,-110.84,1656.56
22730,-3.8689,-0.7201,0.2188,1554.93,-1860.84,-1234.01
22740,-3.8687,-0.6730,0.2367,-163.82,14.16,-1296.45
22750,-3.8684,-0.5930,0.2664,1867.43,-1688.84,1609.80
22760,-3.8682,-0.4944,0.3057,101.81,-1891.78,719.24
22770,-3.8679,-0.4039,0.3524,726.81,-860.35,-1530.70
22780,-3.8677,-0.3198,0.4108,304.93,1124.21,-452.45
22790,-3.8676,-0.2310,0.4646,-929.44,593.08,-1139.83
22800,-3.8676,-0.1289,0.4626,-1554.44,-516.11,1844.60
