timestamp_ms,ax,ay,az,gx,gy,gz
0,-3.8733,-0.1360,-0.6248,-601.32,-703.37,-157.29
10,-3.8730,-0.1920,-0.7325,-1398.19,46.57,717.53
20,-3.8728,-0.2689,-0.8190,-570.07,-1750.43,311.04
30,-3.8726,-0.3643,-0.8717,1586.18,-813.05,-595.40
40,-3.8721,-0.4716,-0.9038,1383.06,436.77,1326.42
50,-3.8716,-0.5873,-0.9462,-351.32,327.15,232.60
60,-3.8712,-0.7113,-1.0023,836.18,-1094.91,-673.77
70,-3.8707,-0.8372,-1.0485,961.18,-282.65,-1267.64
80,-3.8702,-0.9384,-1.0730,851.81,1810.85,-1627.08
90,-3.8698,-0.9918,-1.0850,-101.32,-1330.02,216.61
100,-3.8695,-0.9943,-1.0913,1054.93,1138.67,1357.24
110,-3.8694,-0.9569,-1.0850,742.43,326.17,169.74
120,-3.8695,-0.8942,-1.0560,1523.68,1138.73,1841.61
130,-3.8696,-0.8308,-1.0046,1554.93,841.98,544.80
140,-3.8699,-0.7948,-0.9385,1664.31,-579.77,1529.24
150,-3.8701,-0.7892,-0.8638,-1726.32,-110.96,1373.11
160,-3.8704,-0.7988,-0.7920,-1007.57,1451.54,232.67
170,-3.8707,-0.8043,-0.7354,1758.06,-1360.96,-1345.34
180,-3.8710,-0.7892,-0.6893,1054.93,1889.04,1826.66
190,-3.8712,-0.7546,-0.6437,-1007.57,-220.34,-1251.40
200,-3.8713,-0.7164,-0.5928,-585.69,1623.47,1014.34
210,-3.8716,-0.6846,-0.5408,304.93,139.22,-673.03
220,-3.8717,-0.6566,-0.4965,383.06,-1204.47,1202.03
230,-3.8719,-0.6255,-0.4530,-38.82,467.41,-891.60
240,-3.8721,-0.5865,-0.4077,-54.44,-1970.03,1967.83
250,-3.8722,-0.5446,-0.3640,929.93,-173.03,1171.02
260,-3.8724,-0.4998,-0.3215,-1695.07,1420.78,-375.73
270,-3.8726,-0.4432,-0.2916,39.31,-1141.60,1280.58
280,-3.8728,-0.3669,-0.2900,-726.32,-1313.42,-1531.86
290,-3.8730,-0.2717,-0.3192,1039.31,-1110.11,-328.74
300,-3.8732,-0.1647,-0.3580,1226.81,-844.30,1514.95
310,-3.8733,-0.0544,-0.3773,-1070.07,-1812.87,311.77
320,-3.8734,0.0551,-0.3807,1039.31,-281.37,217.96
330,-3.8735,0.1814,-0.4131,-945.07,-734.31,1092.96
340,-3.8737,0.3628,-0.5127,-773.19,-874.69,1608.52
350,-3.8738,0.6323,-0.6683,-1554.44,-1624.33,-1235.41
360,-3.8737,0.9749,-0.8058,945.56,-1545.65,1201.78
370,-3.8733,1.3107,-0.8657,789.31,861.27,1951.54
380,-3.8724,1.5885,-0.8652,-226.32,1190.00,107.67
390,-3.8712,1.7968,-0.8525,-663.82,1253.05,795.17
400,-3.8698,1.9170,-0.8867,1992.43,-1121.52,-1689.21
410,-3.8683,1.9534,-0.9865,1383.06,-1496.28,873.23
420,-3.8672,1.9126,-1.0906,-1960.69,1738.16,763.67
430,-3.8666,1.8146,-1.1182,820.56,409.97,-752.14
440,-3.8662,1.7042,-1.0406,273.68,878.54,529.05
450,-3.8663,1.6145,-0.8965,-1851.32,-1199.83,-1408.33
460,-3.8667,1.5355,-0.7371,-1335.69,1253.11,-970.52
470,-3.8673,1.4520,-0.5951,554.93,1659.24,-1376.46
480,-3.8682,1.3711,-0.4840,1867.43,-169.07,-266.85
490,-3.8690,1.2893,-0.4010,-491.94,-1950.50,-1438.48
500,-3.8698,1.2045,-0.3442,1039.31,674.38,61.71
510,-3.8705,1.1141,-0.3104,-1820.07,-60.18,-1063.23
520,-3.8710,1.0101,-0.2932,-1382.57,267.76,1577.51
530,-3.8715,0.8956,-0.2947,1304.93,-1529.30,-1766.24
540,-3.8718,0.7721,-0.3092,-1351.32,-1717.04,1624.39
550,-3.8721,0.6279,-0.3241,-1163.82,423.34,327.51
560,-3.8723,0.4580,-0.3284,383.06,-1483.15,671.20
570,-3.8726,0.2770,-0.3159,-1366.94,1969.60,858.70
580,-3.8728,0.1196,-0.3008,-538.82,-437.01,93.08
590,-3.8732,0.0039,-0.3038,-679.44,1500.18,-1828.74
600,-3.8734,-0.0813,-0.3350,508.06,1109.38,811.89
610,-3.8737,-0.1526,-0.3909,1601.81,1140.44,1374.33
620,-3.8739,-0.2250,-0.4662,476.81,1984.07,-250.79
630,-3.8739,-0.3024,-0.5701,-788.82,343.26,217.83
640,-3.8740,-0.3884,-0.6965,1304.93,-953.74,-1188.66
650,-3.8739,-0.4918,-0.8127,-1710.69,-1141.42,295.47
660,-3.8738,-0.6185,-0.9064,1054.93,-16.60,1920.23
670,-3.8735,-0.7745,-0.9855,836.18,-1.22,-626.83
680,-3.8730,-0.9462,-1.0557,867.43,1873.47,779.30
690,-3.8724,-1.1154,-1.1232,-1101.32,888.73,91.67
700,-3.8717,-1.2836,-1.1848,1242.43,247.80,-361.57
710,-3.8706,-1.4366,-1.2305,-288.82,356.81,-1877.32
720,-3.8696,-1.5293,-1.2605,117.43,-1487.18,-64.94
730,-3.8688,-1.5248,-1.2902,258.06,-1331.12,1075.62
740,-3.8684,-1.4321,-1.3225,836.18,-1127.99,1372.44
750,-3.8684,-1.2830,-1.3230,695.56,-1268.43,466.13
760,-3.8688,-1.1238,-1.2590,-210.69,-1330.69,1934.88
770,-3.8693,-1.0018,-1.1362,164.31,-1142.82,-1190.00
780,-3.8698,-0.9275,-0.9843,-226.32,-1423.89,-1221.01
790,-3.8702,-0.8767,-0.8428,1289.31,-1970.58,-533.20
800,-3.8707,-0.8197,-0.7240,-210.69,138.85,-142.27
810,-3.8712,-0.7423,-0.6115,-913.82,-657.90,-188.96
820,-3.8716,-0.6537,-0.5005,992.43,1748.54,1670.65
830,-3.8719,-0.5674,-0.3955,336.18,-48.16,-1704.16
840,-3.8722,-0.4915,-0.2994,-616.94,1389.47,764.83
850,-3.8724,-0.4310,-0.2166,1101.81,1686.52,671.26
860,-3.8727,-0.3850,-0.1504,836.18,296.02,-1391.05
870,-3.8728,-0.3539,-0.0952,-1273.19,764.83,-1469.06
880,-3.8729,-0.3322,-0.0415,-1288.82,-172.61,-1297.12
890,-3.8730,-0.3041,0.0076,1492.43,-1297.55,1453.00
900,-3.8733,-0.2548,0.0363,1086.18,983.76,-1000.00
910,-3.8734,-0.1770,0.0378,-601.32,655.70,656.31
920,-3.8737,-0.0710,0.0212,1351.81,859.01,-718.69
930,-3.8737,0.0662,-0.0004,-1085.69,-1265.81,0.00
940,-3.8738,0.2394,-0.0166,476.81,-46.75,-796.94
950,-3.8738,0.4534,-0.0287,-1351.32,1875.43,-15.69
960,-3.8737,0.7218,-0.0366,-1960.69,328.98,-1250.06
970,-3.8734,1.0297,-0.0209,398.68,-686.10,1609.25
980,-3.8730,1.3137,0.0096,-195.07,1330.08,-1984.44
990,-3.8726,1.5400,-0.0120,164.31,1236.94,-578.12
1000,-3.8718,1.6930,-0.1134,1133.06,-1528.26,1140.56
1010,-3.8711,1.7357,-0.2330,711.18,1487.67,-1828.37
1020,-3.8702,1.6760,-0.3131,-1820.07,-1824.77,62.01
1030,-3.8695,1.5636,-0.3441,-1460.69,-74.89,186.83
1040,-3.8689,1.4417,-0.3507,148.68,-43.82,-1563.23
1050,-3.8683,1.3362,-0.3575,539.31,-887.82,1436.77
1060,-3.8679,1.2589,-0.3619,-960.69,-1763.06,-891.36
1070,-3.8677,1.2095,-0.3583,1148.68,1674.32,-1078.86
1080,-3.8676,1.1776,-0.3502,-1179.44,-1857.06,608.64
1090,-3.8677,1.1467,-0.3390,-1257.57,-825.87,202.39
1100,-3.8680,1.1039,-0.3210,-1210.69,611.57,1389.95
1110,-3.8687,1.0414,-0.3016,1304.93,-1091.61,-16.30
1120,-3.8693,0.9578,-0.2964,1304.93,1392.64,1843.14
1130,-3.8700,0.8669,-0.3104,-1398.19,-1935.67,-1734.99
1140,-3.8706,0.7781,-0.3458,-1023.19,267.27,343.14
1150,-3.8712,0.6906,-0.4069,-398.19,-264.16,-1891.36
1160,-3.8716,0.5956,-0.4879,398.68,-76.78,202.27
1170,-3.8719,0.4839,-0.5768,242.43,1548.03,-1313.48
1180,-3.8721,0.3689,-0.6649,1945.56,-1827.21,1248.84
1190,-3.8722,0.2604,-0.7472,-773.19,-1108.70,-610.72
1200,-3.8721,0.1534,-0.8156,1336.18,359.86,592.29
1210,-3.8719,0.0514,-0.8713,-351.32,-390.38,123.35
1220,-3.8718,-0.0431,-0.9171,-1413.82,468.81,857.67
1230,-3.8717,-0.1379,-0.9470,-1507.57,-1375.12,1904.42
1240,-3.8716,-0.2456,-0.9636,-1648.19,-1203.43,-798.77
1250,-3.8713,-0.3752,-0.9749,570.56,671.39,1732.48
1260,-3.8711,-0.5416,-0.9767,-23.19,-766.42,-1611.33
1270,-3.8708,-0.7549,-0.9591,-1320.07,-1001.10,-48.83
1280,-3.8705,-0.9934,-0.9203,-616.94,1248.47,248.11
1290,-3.8704,-1.2017,-0.8840,851.81,-1783.20,-1251.83
1300,-3.8701,-1.3270,-0.8749,-1804.44,-1143.01,310.73
1310,-3.8701,-1.3545,-0.8793,-1851.32,28.63,-736.08
1320,-3.8701,-1.2871,-0.8572,-1366.94,-533.94,138.85
1330,-3.8705,-1.1514,-0.7906,-741.94,-1705.69,-1173.58
1340,-3.8708,-0.9963,-0.7024,633.06,-1189.76,-642.21
1350,-3.8711,-0.8633,-0.6193,476.81,-1892.58,1717.35
1360,-3.8713,-0.7798,-0.5487,1508.06,748.29,-798.10
1370,-3.8715,-0.7537,-0.4860,195.56,1779.72,-1266.72
1380,-3.8716,-0.7650,-0.4281,-460.69,1810.97,-1422.85
1390,-3.8717,-0.7830,-0.3810,-1913.82,1217.22,-1922.73
1400,-3.8718,-0.7904,-0.3495,-210.69,-751.59,1624.21
1410,-3.8719,-0.7806,-0.3289,-1163.82,-720.34,1921.14
1420,-3.8721,-0.7534,-0.3164,86.18,1920.35,-656.92
1430,-3.8721,-0.7177,-0.3018,-429.44,-485.90,1983.70
1440,-3.8721,-0.6796,-0.2861,148.68,1389.22,1108.76
1450,-3.8722,-0.6387,-0.2826,1023.68,-610.72,-484.99
1460,-3.8722,-0.5919,-0.2883,-1741.94,-157.53,1265.01
1470,-3.8723,-0.5385,-0.2891,242.43,-891.78,-781.86
1480,-3.8723,-0.4855,-0.2708,-913.82,-985.47,1077.51
1490,-3.8724,-0.4298,-0.2396,1867.43,1358.40,1483.83
1500,-3.8726,-0.3558,-0.2175,992.43,1342.90,93.26
1510,-3.8728,-0.2521,-0.2214,-1538.82,171.14,1843.32
1520,-3.8730,-0.1056,-0.2581,-257.57,-328.67,-109.86
1530,-3.8732,0.0920,-0.3131,-1507.57,-1015.87,-219.30
1540,-3.8732,0.3278,-0.3562,-210.69,-78.00,1468.08
1550,-3.8732,0.6074,-0.3628,1961.18,-1593.14,139.89
1560,-3.8732,0.9557,-0.3484,1758.06,1563.66,436.77
1570,-3.8732,1.3655,-0.3500,-1663.82,-591.92,-31.98
1580,-3.8729,1.7744,-0.3655,-1210.69,-794.25,-281.98
1590,-3.8726,2.1206,-0.3717,-866.94,1222.17,-188.23
1600,-3.8719,2.3698,-0.3541,-554.44,425.96,-1703.86
1610,-3.8711,2.4619,-0.3280,-663.82,-1323.55,1030.52
1620,-3.8701,2.3876,-0.3420,-866.94,-1979.61,-688.17
1630,-3.8689,2.2073,-0.4047,1617.43,223.39,1296.20
1640,-3.8678,1.9835,-0.4589,-1460.69,207.40,1546.08
1650,-3.8669,1.7720,-0.4777,1898.68,1269.47,-266.54
1660,-3.8663,1.6196,-0.4785,-1179.44,-1137.21,-469.73
1670,-3.8661,1.5378,-0.4677,-679.44,-1246.89,920.90
1680,-3.8665,1.4989,-0.4449,851.81,143.62,-1688.42
1690,-3.8672,1.4709,-0.4009,-132.57,-950.26,-1688.42
1700,-3.8682,1.4087,-0.3368,289.31,690.37,-1141.42
1710,-3.8691,1.2887,-0.2821,320.56,893.37,1108.70
1720,-3.8701,1.1422,-0.2614,961.18,-106.87,1749.39
1730,-3.8708,1.0029,-0.2723,-1788.82,-1450.93,1280.70
1740,-3.8715,0.8756,-0.3020,383.06,1142.58,-0.55
1750,-3.8717,0.7467,-0.3444,86.18,1345.46,46.26
1760,-3.8719,0.6016,-0.4006,-413.82,-76.72,46.14
1770,-3.8722,0.4431,-0.4784,1008.06,719.91,-844.54
1780,-3.8722,0.2825,-0.5730,726.81,-1233.52,608.40
1790,-3.8723,0.1234,-0.6606,164.31,-1343.20,-1063.66
1800,-3.8723,-0.0396,-0.7257,-195.07,-562.32,951.78
1810,-3.8724,-0.2134,-0.7749,-1054.44,-875.12,-1813.96
1820,-3.8726,-0.3934,-0.8184,695.56,827.70,-157.78
1830,-3.8724,-0.5784,-0.8542,1648.68,-735.17,388.98
1840,-3.8723,-0.7732,-0.8568,1976.81,-1329.28,123.29
1850,-3.8722,-0.9585,-0.8070,1039.31,-1657.78,1388.92
1860,-3.8721,-1.0956,-0.7307,1320.56,716.86,-1454.71
1870,-3.8719,-1.1547,-0.6670,-226.32,-1517.82,-1501.46
1880,-3.8718,-1.1301,-0.6313,211.18,-1361.63,-1954.47
1890,-3.8717,-1.0436,-0.6298,-648.19,-799.13,-157.53
1900,-3.8713,-0.9429,-0.6451,-1570.07,-595.83,1701.84
1910,-3.8710,-0.8845,-0.6497,-679.44,1435.61,-1360.66
1920,-3.8706,-0.8962,-0.6403,-1210.69,857.60,-1048.16
1930,-3.8702,-0.9613,-0.6270,1289.31,-1939.27,358.09
1940,-3.8701,-1.0498,-0.6154,961.18,-236.27,-1251.28
1950,-3.8700,-1.1438,-0.5945,1633.06,1247.92,-1782.47
1960,-3.8700,-1.2246,-0.5576,1601.81,-80.38,-1438.72
1970,-3.8701,-1.2703,-0.5111,-741.94,638.18,-1204.22
1980,-3.8704,-1.2595,-0.4625,1414.31,-1408.75,-751.04
1990,-3.8706,-1.1798,-0.4146,-1210.69,810.00,1045.96
2000,-3.8710,-1.0421,-0.3625,992.43,-1049.19,1124.15
2010,-3.8713,-0.8822,-0.3079,-1382.57,1607.30,1061.77
2020,-3.8717,-0.7390,-0.2572,-913.82,607.60,-1469.36
2030,-3.8719,-0.6329,-0.2153,1414.31,-907.71,1733.83
2040,-3.8722,-0.5671,-0.1824,-1007.57,451.84,-1687.93
2050,-3.8723,-0.5315,-0.1641,-585.69,670.72,874.63
2060,-3.8724,-0.5068,-0.1674,-23.19,-985.47,-1875.37
2070,-3.8724,-0.4819,-0.1805,-866.94,-1407.29,1296.51
2080,-3.8724,-0.4542,-0.1837,-1679.44,905.27,390.26
2090,-3.8726,-0.4062,-0.1830,1867.43,499.08,-1875.37
2100,-3.8727,-0.3175,-0.2036,8.06,592.96,-1922.24
2110,-3.8728,-0.1791,-0.2502,-632.57,1952.45,687.07
2120,-3.8730,0.0159,-0.3048,1086.18,-15.99,-531.80
2130,-3.8732,0.2668,-0.3419,-1960.69,984.38,-438.11
2140,-3.8732,0.5596,-0.3489,-1835.69,234.86,1796.20
2150,-3.8732,0.8956,-0.3467,-366.94,-655.21,-1031.98
2160,-3.8729,1.2601,-0.3475,-1351.32,-373.29,421.14
2170,-3.8727,1.5828,-0.3317,1304.93,-481.93,-78.86
2180,-3.8721,1.7855,-0.2927,-1398.19,1549.93,1327.45
2190,-3.8715,1.8578,-0.2534,554.93,-1465.27,1249.39
2200,-3.8708,1.8743,-0.2295,1804.93,-433.90,249.45
2210,-3.8704,1.8918,-0.2196,-85.69,-1371.40,-1937.99
2220,-3.8698,1.9207,-0.2067,-1835.69,-105.71,218.26
2230,-3.8693,1.9607,-0.1750,1851.81,1550.60,1687.07
2240,-3.8689,1.9988,-0.1407,-1023.19,1597.53,-203.49
2250,-3.8685,2.0020,-0.1205,-148.19,1988.22,999.69
2260,-3.8684,1.9480,-0.1193,258.06,582.03,281.01
2270,-3.8685,1.8558,-0.1313,1351.81,738.16,-1812.74
2280,-3.8687,1.7362,-0.1421,1554.93,-808.90,1421.57
2290,-3.8689,1.5776,-0.1528,-1757.57,1815.86,-890.93
2300,-3.8691,1.3926,-0.1667,1945.56,440.55,1265.32
2310,-3.8696,1.2190,-0.1753,-1741.94,-1341.06,-1656.62
2320,-3.8702,1.0792,-0.1683,39.31,1564.88,-328.49
2330,-3.8708,0.9742,-0.1503,-1851.32,-1544.80,-562.87
2340,-3.8713,0.9003,-0.1399,711.18,767.52,171.57
2350,-3.8718,0.8390,-0.1498,-757.57,-1904.54,234.07
2360,-3.8723,0.7661,-0.1829,-601.32,829.71,-156.56
2370,-3.8726,0.6737,-0.2384,-1929.44,595.21,-1828.49
2380,-3.8728,0.5575,-0.3096,-1757.57,1485.66,-1406.74
2390,-3.8729,0.4187,-0.3997,-632.57,376.04,1421.26
2400,-3.8730,0.2642,-0.5115,1601.81,844.54,-1125.79
2410,-3.8730,0.0920,-0.6229,1820.56,-1468.26,-1532.29
2420,-3.8730,-0.0917,-0.7218,-210.69,265.75,-298.10
2430,-3.8729,-0.2737,-0.8137,273.68,-375.18,1998.54
2440,-3.8728,-0.4595,-0.8903,976.81,-141.17,1935.85
2450,-3.8726,-0.6587,-0.9377,1195.56,-1938.42,888.85
2460,-3.8723,-0.8479,-0.9591,-304.44,-16.97,-1236.27
2470,-3.8719,-0.9819,-0.9730,-523.19,1248.29,1779.36
2480,-3.8716,-1.0333,-0.9945,-1679.44,-533.20,998.05
2490,-3.8712,-1.0164,-1.0153,-257.57,716.67,1779.30
2500,-3.8707,-0.9822,-1.0197,1914.31,-1939.51,841.74
2510,-3.8702,-0.9757,-1.0186,-1710.69,1498.05,529.24
2520,-3.8699,-1.0044,-1.0272,-882.57,1638.67,-1861.39
2530,-3.8696,-1.0519,-1.0302,-554.44,529.24,-95.76
2540,-3.8694,-1.1005,-0.9984,1367.43,154.17,1841.74
2550,-3.8694,-1.1390,-0.9303,-851.32,216.55,-220.70
2560,-3.8694,-1.1606,-0.8477,-1788.82,935.24,779.42
2570,-3.8696,-1.1611,-0.7703,-554.44,-486.69,763.92
2580,-3.8700,-1.1217,-0.7009,-616.94,1419.56,1217.22
2590,-3.8705,-1.0360,-0.6243,429.93,-1705.32,-407.65
2600,-3.8708,-0.9265,-0.5360,-601.32,107.30,1264.40
2610,-3.8713,-0.8162,-0.4497,1414.31,-595.58,-251.10
2620,-3.8717,-0.7195,-0.3875,-460.69,-1548.52,-313.42
2630,-3.8719,-0.6505,-0.3584,-85.69,-1579.59,1592.96
2640,-3.8722,-0.6136,-0.3518,742.43,-1860.66,-1735.11
2650,-3.8723,-0.5977,-0.3566,1461.18,-1016.85,1936.77
2660,-3.8724,-0.5862,-0.3645,-491.94,-1626.22,-110.11
2670,-3.8724,-0.5625,-0.3737,976.81,1358.22,-969.48
2680,-3.8724,-0.5189,-0.3800,8.06,186.40,-1766.36
2690,-3.8724,-0.4551,-0.3779,1586.18,-626.04,624.21
2700,-3.8726,-0.3691,-0.3660,1758.06,-360.29,1717.96
2710,-3.8727,-0.2577,-0.3558,758.06,1171.14,1108.64
2720,-3.8729,-0.1206,-0.3640,-976.32,-1531.80,-1000.73
2730,-3.8730,0.0388,-0.3894,570.56,1421.63,421.14
2740,-3.8733,0.2256,-0.4253,976.81,-1843.69,-1360.17
2750,-3.8734,0.4536,-0.4656,883.06,1562.93,-719.60
2760,-3.8734,0.7194,-0.5001,-1929.44,407.10,-16.54
2770,-3.8732,1.0117,-0.5099,86.18,-14.22,1233.34
2780,-3.8729,1.2950,-0.4822,1508.06,-1263.67,-1079.16
2790,-3.8724,1.4996,-0.4281,1773.68,-1716.25,827.15
2800,-3.8719,1.6152,-0.3778,-38.82,1205.99,655.40
2810,-3.8715,1.6951,-0.3633,-1241.94,-356.26,327.33
2820,-3.8710,1.7852,-0.3849,976.81,1503.30,639.89
2830,-3.8705,1.9098,-0.4048,508.06,-1262.15,1296.08
2840,-3.8700,2.0605,-0.3920,461.18,191.22,967.96
2850,-3.8695,2.2035,-0.3521,-241.94,1832.09,483.58
2860,-3.8690,2.3113,-0.3163,-1945.07,-1058.23,483.64
2870,-3.8685,2.3635,-0.3232,-148.19,-479.92,155.58
2880,-3.8682,2.3158,-0.3763,-1460.69,-1370.42,-813.17
2890,-3.8678,2.1387,-0.4397,429.93,-167.36,-594.54
2900,-3.8676,1.8722,-0.4855,1758.06,-277.10,342.83
2910,-3.8678,1.5869,-0.5109,-351.32,1862.98,-532.23
2920,-3.8682,1.3365,-0.5171,-866.94,-1387.57,483.34
2930,-3.8689,1.1477,-0.5018,-913.82,1815.06,1155.21
2940,-3.8698,1.0249,-0.4767,-1085.69,-232.18,1592.71
2950,-3.8706,0.9429,-0.4540,-804.44,-1013.67,1827.15
2960,-3.8713,0.8579,-0.4473,695.56,1892.46,295.96
2970,-3.8721,0.7437,-0.4653,1820.56,-1248.35,-1829.04
2980,-3.8727,0.6003,-0.4980,-804.44,438.90,-266.54
2990,-3.8730,0.4391,-0.5317,851.81,251.16,1483.40
3000,-3.8734,0.2788,-0.5593,211.18,-61.65,-376.10
3010,-3.8735,0.1298,-0.5780,-304.44,406.74,1373.90
3020,-3.8737,-0.0178,-0.5920,617.43,-1984.13,1530.09
3030,-3.8737,-0.1708,-0.6089,1726.81,234.31,61.34
3040,-3.8737,-0.3203,-0.6316,-1851.32,-1922.24,1686.28
3050,-3.8735,-0.4562,-0.6631,-991.94,-828.80,1936.22
3060,-3.8733,-0.5779,-0.7036,1617.43,-860.29,92.41
3070,-3.8730,-0.6917,-0.7363,-1960.69,1951.97,1279.85
3080,-3.8727,-0.8077,-0.7452,-523.19,1764.22,-923.34
3090,-3.8721,-0.9188,-0.7377,617.43,623.41,1139.16
3100,-3.8715,-0.9977,-0.7440,-1601.32,1591.92,139.16
3110,-3.8710,-1.0309,-0.7920,304.93,779.30,732.91
3120,-3.8706,-1.0272,-0.8618,54.93,-1361.39,-1626.59
3130,-3.8702,-1.0100,-0.9094,523.68,1701.11,1138.92
3140,-3.8701,-1.0062,-0.9197,-1273.19,-392.64,-111.21
3150,-3.8700,-1.0208,-0.9010,-788.82,-1705.14,-1845.58
3160,-3.8700,-1.0441,-0.8627,1351.81,685.49,1107.60
3170,-3.8701,-1.0681,-0.8063,-1632.57,1591.67,1779.54
3180,-3.8702,-1.0813,-0.7367,-710.69,810.36,373.41
3190,-3.8705,-1.0658,-0.6605,1601.81,1716.61,1107.91
3200,-3.8707,-1.0183,-0.5790,-413.82,-533.39,748.66
3210,-3.8711,-0.9503,-0.5005,1664.31,1904.24,-282.41
3220,-3.8713,-0.8726,-0.4413,-1632.57,-48.77,-1751.04
3230,-3.8716,-0.7985,-0.4081,320.56,-470.46,655.33
3240,-3.8718,-0.7413,-0.3922,1804.93,-220.34,608.52
3250,-3.8721,-0.7040,-0.3857,1117.43,1811.04,-250.79
3260,-3.8721,-0.6774,-0.3866,1898.68,-1360.78,967.96
3270,-3.8722,-0.6510,-0.3868,1304.93,-1470.09,-1375.79
3280,-3.8722,-0.6199,-0.3788,679.93,-1501.28,358.58
3290,-3.8723,-0.5798,-0.3629,664.31,-469.97,-1985.17
3300,-3.8724,-0.5259,-0.3450,1789.31,1561.34,-485.11
3310,-3.8724,-0.4550,-0.3331,695.56,-141.66,718.02
3320,-3.8726,-0.3656,-0.3291,1773.68,1374.08,1186.83
3330,-3.8727,-0.2499,-0.3374,1211.18,1889.89,936.83
3340,-3.8728,-0.0975,-0.3596,23.68,827.64,1186.83
3350,-3.8729,0.1031,-0.3872,-476.32,1984.13,-1610.11
3360,-3.8730,0.3721,-0.4097,1211.18,-1562.32,-141.42
3370,-3.8730,0.7122,-0.4077,-366.94,-436.83,1436.65
3380,-3.8730,1.0927,-0.3611,-835.69,-186.16,374.15
3390,-3.8730,1.4652,-0.2795,-132.57,1783.33,-1406.98
3400,-3.8728,1.7749,-0.2036,-445.07,221.56,1296.33
3410,-3.8724,2.0115,-0.1664,-804.44,1940.92,874.57
3420,-3.8719,2.1938,-0.1744,1476.81,-1292.97,1187.13
3430,-3.8713,2.3049,-0.2017,820.56,1676.15,1999.63
3440,-3.8706,2.3221,-0.2098,-960.69,-1808.04,-219.18
3450,-3.8696,2.2773,-0.1968,1242.43,1145.14,1171.45
3460,-3.8688,2.2186,-0.1774,-491.94,-1183.11,1108.95
3470,-3.8682,2.1537,-0.1559,-7.57,1301.15,-656.62
3480,-3.8677,2.0657,-0.1371,-320.07,51.03,1984.07
3490,-3.8676,1.9396,-0.1309,414.31,-1542.85,-1031.56
3500,-3.8677,1.7736,-0.1467,273.68,-746.22,249.69
3510,-3.8683,1.5852,-0.1735,-976.32,1222.17,1874.69
3520,-3.8691,1.4034,-0.1918,-1085.69,1799.93,-719.12
3530,-3.8700,1.2450,-0.1943,-351.32,-544.19,-1687.93
3540,-3.8708,1.1056,-0.1942,-632.57,-872.62,-391.05
3550,-3.8715,0.9791,-0.2147,1523.68,-857.24,1312.07
3560,-3.8721,0.8628,-0.2611,1336.18,517.52,-359.80
3570,-3.8724,0.7384,-0.3148,-1554.44,-1420.23,-1891.17
3580,-3.8727,0.5905,-0.3577,-1476.32,-295.47,61.83
3590,-3.8729,0.4333,-0.3932,-413.82,-1780.15,389.89
3600,-3.8732,0.2872,-0.4332,-523.19,1672.67,-1297.67
3610,-3.8733,0.1537,-0.4690,773.68,547.42,-610.23
3620,-3.8733,0.0179,-0.4974,-320.07,-31.01,-1391.60
3630,-3.8733,-0.1245,-0.5306,-1695.07,328.12,-579.10
3640,-3.8732,-0.2758,-0.5604,70.56,93.51,1686.46
3650,-3.8730,-0.4409,-0.5765,711.18,280.70,1702.03
3660,-3.8729,-0.5981,-0.5905,-429.44,-1782.17,1998.84
3670,-3.8728,-0.7150,-0.6066,-554.44,436.28,1264.47
3680,-3.8727,-0.7759,-0.6268,492.43,-1626.40,1233.15
3690,-3.8724,-0.7887,-0.6586,695.56,-220.28,233.09
3700,-3.8722,-0.7834,-0.6971,-945.07,-282.84,-1657.59
3710,-3.8718,-0.7804,-0.7329,-273.19,-1220.34,-1579.53
3720,-3.8715,-0.7885,-0.7706,117.43,-1798.40,-1220.21
3730,-3.8711,-0.8210,-0.8204,-913.82,1373.41,1998.47
3740,-3.8708,-0.8904,-0.8701,-1085.69,-1001.65,-298.52
3750,-3.8706,-1.0012,-0.8939,-1960.69,638.85,-532.96
3760,-3.8704,-1.1344,-0.8843,-148.19,1591.74,295.10
3770,-3.8704,-1.2458,-0.8551,-1195.07,-1174.13,-1876.77
3780,-3.8704,-1.3003,-0.8180,539.31,-1439.94,1013.92
3790,-3.8705,-1.2885,-0.7710,1570.56,-690.06,529.60
3800,-3.8707,-1.2258,-0.7113,-913.82,1325.56,1045.35
3810,-3.8711,-1.1427,-0.6417,-898.19,966.31,-298.28
3820,-3.8713,-1.0603,-0.5769,1742.43,1872.74,1779.97
3830,-3.8716,-0.9838,-0.5309,289.31,-1830.20,326.97
3840,-3.8718,-0.9152,-0.4993,-1913.82,60.55,170.84
3850,-3.8721,-0.8599,-0.4731,-1132.57,107.54,-1891.60
3860,-3.8722,-0.8141,-0.4515,1945.56,-548.58,-1969.73
3870,-3.8723,-0.7633,-0.4391,-195.07,-1782.90,-1297.79
3880,-3.8724,-0.7003,-0.4362,-1695.07,-189.03,-782.17
3890,-3.8726,-0.6323,-0.4337,-1632.57,186.10,-172.73
3900,-3.8726,-0.5721,-0.4218,-929.44,498.72,1358.52
3910,-3.8726,-0.5240,-0.3977,-1226.32,-1969.91,139.77
3920,-3.8727,-0.4709,-0.3735,929.93,1108.34,-469.54
3930,-3.8727,-0.3959,-0.3567,-273.19,202.15,-1453.86
3940,-3.8727,-0.2993,-0.3409,1336.18,-1641.42,624.27
3950,-3.8728,-0.1754,-0.3225,1695.56,374.39,1530.58
3960,-3.8729,-0.0093,-0.3026,1554.93,-1265.99,1671.20
3970,-3.8730,0.2098,-0.2843,-1179.44,1281.19,1624.39
3980,-3.8732,0.4857,-0.2633,-1132.57,-390.26,-1359.99
3990,-3.8732,0.8075,-0.2346,-1820.07,-1702.21,-1047.42
4000,-3.8730,1.1481,-0.1967,-632.57,1970.28,1843.26
4010,-3.8729,1.4900,-0.1469,-1038.82,-1169.68,437.07
4020,-3.8729,1.7832,-0.0820,-1273.19,1205.99,-187.81
4030,-3.8727,1.9612,-0.0146,258.06,1503.48,-937.68
4040,-3.8723,2.0560,0.0159,-960.69,-1871.22,-1765.69
4050,-3.8718,2.1377,-0.0042,-820.07,-1964.78,1234.38
4060,-3.8712,2.2029,-0.0383,1633.06,-527.10,-1359.44
4070,-3.8704,2.2211,-0.0553,1976.81,-901.98,-531.37
4080,-3.8693,2.1848,-0.0809,304.93,926.21,296.75
4090,-3.8684,2.0981,-0.1323,-335.69,1644.84,-359.56
4100,-3.8676,1.9777,-0.1903,570.56,-933.41,15.32
4110,-3.8672,1.8413,-0.2458,1148.68,-355.53,1124.57
4120,-3.8672,1.6963,-0.2913,-304.44,534.79,390.14
4130,-3.8677,1.5632,-0.3212,1133.06,-1277.95,1483.76
4140,-3.8684,1.4691,-0.3389,101.81,-1106.32,264.95
4150,-3.8694,1.3990,-0.3428,54.93,627.87,-125.67
4160,-3.8701,1.3025,-0.3242,-913.82,127.69,1624.33
4170,-3.8708,1.1555,-0.2941,-1273.19,-1497.50,-1750.67
4180,-3.8715,0.9878,-0.2822,-85.69,-1638.43,1468.14
4190,-3.8721,0.8333,-0.3062,-1554.44,-123.11,-375.61
4200,-3.8724,0.6943,-0.3689,-1335.69,814.09,843.14
4210,-3.8728,0.5718,-0.4741,883.06,782.59,1749.27
4220,-3.8730,0.4480,-0.6000,1195.56,-686.40,-579.10
4230,-3.8730,0.2764,-0.7024,1351.81,-796.02,1311.28
4240,-3.8730,0.0603,-0.7612,-616.94,-1905.76,764.22
4250,-3.8732,-0.1534,-0.7960,-273.19,-1437.44,-501.53
4260,-3.8732,-0.3400,-0.8251,367.43,-1875.31,1873.41
4270,-3.8732,-0.5009,-0.8462,492.43,-1594.42,1170.23
4280,-3.8732,-0.6498,-0.8624,-101.32,-297.91,1185.79
4290,-3.8732,-0.7943,-0.8761,836.18,1623.72,-1407.96
4300,-3.8730,-0.9269,-0.8845,-1663.82,-126.59,-64.27
4310,-3.8727,-1.0383,-0.8900,1367.43,-1204.96,-1798.65
4320,-3.8723,-1.1263,-0.9076,-898.19,-1908.33,-64.27
4330,-3.8718,-1.1962,-0.9539,-163.82,-158.51,-923.71
4340,-3.8713,-1.2529,-1.0168,-1101.32,1919.49,-1830.02
4350,-3.8708,-1.2938,-1.0663,-366.94,1856.87,263.61
4360,-3.8705,-1.3145,-1.0900,-1601.32,-471.31,763.49
4370,-3.8702,-1.3156,-1.0808,-241.94,497.38,-720.89
4380,-3.8700,-1.3040,-1.0315,-382.57,1669.25,-1049.01
4390,-3.8699,-1.2758,-0.9562,1101.81,-18.19,1497.92
4400,-3.8700,-1.2202,-0.8810,711.18,1622.50,1560.61
4410,-3.8702,-1.1315,-0.8103,-179.44,-752.44,513.85
4420,-3.8706,-1.0178,-0.7333,-820.07,294.62,1248.41
4430,-3.8710,-0.9073,-0.6545,1726.81,-1845.76,1451.66
4440,-3.8713,-0.8229,-0.5846,-132.57,232.54,1998.72
4450,-3.8717,-0.7629,-0.5277,-1320.07,1185.85,-173.03
4460,-3.8719,-0.7147,-0.4882,-1648.19,467.22,-344.79
4470,-3.8721,-0.6737,-0.4613,523.68,1529.85,1655.27
4480,-3.8722,-0.6378,-0.4423,1773.68,967.41,1155.33
4490,-3.8723,-0.6031,-0.4269,-1632.57,-595.03,1592.83
4500,-3.8724,-0.5679,-0.4055,-1195.07,1373.78,-1344.60
4510,-3.8726,-0.5282,-0.3776,-679.44,108.22,-578.92
4520,-3.8727,-0.4728,-0.3517,398.68,-313.54,-985.17
4530,-3.8728,-0.3948,-0.3341,-507.57,-1000.98,1593.02
4540,-3.8730,-0.2975,-0.3193,1476.81,1249.21,-47.55
4550,-3.8732,-0.1832,-0.3085,1929.93,-859.99,-1547.55
4560,-3.8733,-0.0336,-0.3126,554.93,530.88,999.39
4570,-3.8735,0.1876,-0.3307,-288.82,-0.12,-188.17
4580,-3.8737,0.4955,-0.3456,23.68,1672.24,-844.42
4590,-3.8737,0.8868,-0.3405,-570.07,-233.46,30.52
4600,-3.8737,1.3118,-0.3068,1523.68,423.58,1202.45
4610,-3.8734,1.6887,-0.2424,-85.69,736.88,499.39
4620,-3.8730,1.9453,-0.1748,164.31,972.05,1640.14
4630,-3.8726,2.0526,-0.1508,1008.06,1628.78,-234.74
4640,-3.8718,2.0636,-0.1757,-1257.57,707.09,1890.32
4650,-3.8711,2.0383,-0.2223,148.68,1519.65,-1500.37
4660,-3.8702,2.0216,-0.2651,914.31,-449.16,1905.76
4670,-3.8693,2.0492,-0.2666,-1226.32,-1933.59,671.33
4680,-3.8684,2.1061,-0.2144,-1695.07,1878.97,1593.20
4690,-3.8678,2.1426,-0.1586,1586.18,566.59,-969.18
4700,-3.8674,2.1141,-0.1517,-1741.94,-292.72,-312.87
4710,-3.8673,2.0020,-0.1771,-1382.57,582.21,-703.43
4720,-3.8674,1.8207,-0.1940,258.06,1332.03,1062.13
4730,-3.8679,1.6189,-0.1962,1054.93,-824.58,937.07
4740,-3.8687,1.4344,-0.1936,-773.19,-1106.26,1171.45
4750,-3.8695,1.2726,-0.1904,-382.57,-778.50,1640.20
4760,-3.8704,1.1267,-0.1968,-1101.32,-372.56,-1984.80
4770,-3.8711,0.9816,-0.2241,226.81,-1185.30,1155.82
4780,-3.8717,0.8286,-0.2604,1648.68,-685.61,530.76
4790,-3.8723,0.6670,-0.2927,-1929.44,-1326.54,-141.17
4800,-3.8727,0.5032,-0.3145,1383.06,-1467.47,-1531.86
4810,-3.8730,0.3512,-0.3214,414.31,-249.02,-125.67
4820,-3.8733,0.2117,-0.3129,961.18,-1139.95,-313.17
4830,-3.8734,0.0787,-0.2933,-898.19,-46.51,1374.33
4840,-3.8737,-0.0420,-0.2881,-1913.82,-1546.75,-219.36
4850,-3.8738,-0.1398,-0.3333,-1366.94,-859.50,-1828.74
4860,-3.8739,-0.2156,-0.4413,-1882.57,1359.07,1233.70
4870,-3.8740,-0.2958,-0.5917,414.31,-469.18,-1344.67
4880,-3.8739,-0.4097,-0.7363,-1851.32,280.64,295.72
4890,-3.8738,-0.5730,-0.8287,-429.44,1764.77,1951.66
4900,-3.8735,-0.7699,-0.8732,-1335.69,1936.34,-1345.40
4910,-3.8732,-0.9578,-0.9121,1461.18,248.47,-907.96
4920,-3.8726,-1.1144,-0.9670,1414.31,-736.27,748.17
4930,-3.8719,-1.2245,-1.0283,1367.43,232.18,-1048.77
4940,-3.8712,-1.2714,-1.0880,-726.32,388.18,-533.26
4950,-3.8704,-1.2572,-1.1522,1273.68,747.50,591.61
4960,-3.8698,-1.2012,-1.2260,-913.82,528.75,-549.13
4970,-3.8691,-1.1281,-1.2891,-1741.94,-908.63,341.31
4980,-3.8689,-1.0585,-1.3097,-382.57,-986.63,1372.44
4990,-3.8689,-1.0026,-1.2745,523.68,372.92,1309.94
5000,-3.8691,-0.9542,-1.1942,-320.07,872.99,591.25
5010,-3.8696,-0.9031,-1.0917,1867.43,-845.64,-1268.01
5020,-3.8701,-0.8455,-0.9828,414.31,279.48,-1236.51
5030,-3.8706,-0.7804,-0.8792,-210.69,-1782.96,-1408.20
5040,-3.8711,-0.7159,-0.7834,117.43,-517.15,-548.65
5050,-3.8715,-0.6600,-0.7001,367.43,-267.03,1701.54
5060,-3.8718,-0.6144,-0.6333,-476.32,-1595.09,1623.60
5070,-3.8722,-0.5763,-0.5790,1367.43,-1048.10,-516.91
5080,-3.8724,-0.5377,-0.5327,-1757.57,1905.09,-360.53
5090,-3.8726,-0.4968,-0.4888,-820.07,-172.97,-1844.85
5100,-3.8727,-0.4540,-0.4408,414.31,1452.15,1952.15
5110,-3.8728,-0.4004,-0.3903,1898.68,-407.17,1405.33
5120,-3.8730,-0.3210,-0.3502,758.06,-1938.29,-250.79
5130,-3.8732,-0.2059,-0.3291,-1085.69,-813.17,1421.14
5140,-3.8734,-0.0580,-0.3224,1648.68,1890.20,-860.05
5150,-3.8735,0.1318,-0.3340,586.18,-1250.12,1421.20
5160,-3.8737,0.3928,-0.3735,883.06,1250.24,202.45
5170,-3.8739,0.7322,-0.4154,-1710.69,188.23,-500.73
5180,-3.8739,1.0999,-0.4283,1726.81,-1170.47,1139.77
5190,-3.8738,1.4528,-0.4220,789.31,1174.01,827.27
5200,-3.8734,1.7540,-0.4075,1961.18,1987.18,983.52
5210,-3.8728,1.9318,-0.3922,523.68,-152.83,1577.27
5220,-3.8721,1.9634,-0.4043,-726.32,1800.60,-328.92
5230,-3.8712,1.9014,-0.4474,-679.44,253.78,-422.67
5240,-3.8702,1.8202,-0.5052,-616.94,-1261.96,420.96
5250,-3.8694,1.7670,-0.5648,992.43,-668.33,-1251.04
5260,-3.8684,1.7548,-0.5900,-1820.07,-293.46,842.59
5270,-3.8677,1.7640,-0.5623,617.43,487.79,873.84
5280,-3.8673,1.7594,-0.5114,1804.93,34.67,1764.53
5290,-3.8673,1.7178,-0.4684,1211.18,-1449.71,-1032.29
5300,-3.8676,1.6356,-0.4452,-116.94,50.17,-1891.54
5310,-3.8680,1.5271,-0.4377,1367.43,-981.20,1842.83
5320,-3.8687,1.4034,-0.4303,-523.19,-28.32,1186.58
5330,-3.8694,1.2642,-0.4125,-351.32,924.56,-922.73
5340,-3.8700,1.1064,-0.3906,1820.56,-794.43,889.77
5350,-3.8707,0.9392,-0.3789,1633.06,-1997.86,-1063.29
5360,-3.8713,0.7736,-0.3904,226.81,-498.17,-1891.42
5370,-3.8719,0.6194,-0.4282,-976.32,-1967.29,-953.92
5380,-3.8724,0.4882,-0.4899,-710.69,1188.66,-1282.10
5390,-3.8728,0.3705,-0.5647,-1507.57,1297.79,-1579.10
5400,-3.8730,0.2480,-0.6315,-570.07,-280.58,-1657.41
5410,-3.8732,0.1191,-0.6873,-241.94,-827.70,1436.22
5420,-3.8733,-0.0034,-0.7545,-741.94,31.43,-1220.09
5430,-3.8733,-0.1135,-0.8401,-429.44,-562.56,-1251.53
5440,-3.8732,-0.2247,-0.9254,1476.81,484.13,-1736.02
5450,-3.8729,-0.3550,-0.9841,-757.57,1562.01,873.17
5460,-3.8727,-0.5066,-1.0022,-1429.44,-1953.86,1716.80
5470,-3.8723,-0.6658,-0.9932,-835.69,-266.66,997.99
5480,-3.8719,-0.8180,-0.9877,-1210.69,889.28,-1080.08
5490,-3.8715,-0.9548,-0.9890,-695.07,1592.10,-1080.08
5500,-3.8710,-1.0703,-0.9805,1789.31,1419.98,-1611.33
5510,-3.8706,-1.1565,-0.9611,-991.94,-1486.51,-1986.33
5520,-3.8704,-1.2007,-0.9421,-23.19,997.68,669.98
5530,-3.8704,-1.1957,-0.9266,-1679.44,-580.51,-845.64
5540,-3.8704,-1.1552,-0.8962,-1038.82,1403.87,-1220.58
5550,-3.8704,-1.1027,-0.8396,148.68,1294.62,388.85
5560,-3.8706,-1.0562,-0.7720,-1132.57,544.68,-157.90
5570,-3.8707,-1.0206,-0.7089,820.56,1201.05,1279.72
5580,-3.8710,-0.9919,-0.6483,1367.43,1279.24,1732.97
5590,-3.8712,-0.9667,-0.5872,1039.31,1029.30,-1923.16
5600,-3.8715,-0.9348,-0.5283,273.68,857.48,-1516.78
5610,-3.8717,-0.8882,-0.4760,351.81,388.79,-766.66
5620,-3.8718,-0.8315,-0.4316,-1679.44,-908.02,1217.77
5630,-3.8719,-0.7727,-0.3920,1570.56,763.98,1077.27
5640,-3.8721,-0.7189,-0.3549,1101.81,1842.22,-1860.17
5650,-3.8722,-0.6743,-0.3280,-7.57,-1407.71,-781.98
5660,-3.8723,-0.6357,-0.3243,1695.56,-1970.09,-375.67
5670,-3.8724,-0.5994,-0.3341,-1366.94,-1501.28,-750.67
5680,-3.8726,-0.5623,-0.3331,-710.69,1248.78,-1672.55
5690,-3.8727,-0.5137,-0.3237,39.31,1373.90,1249.33
5700,-3.8728,-0.4401,-0.3208,-1741.94,-1422.91,108.70
5710,-3.8730,-0.3344,-0.3351,-320.07,-1047.79,-235.05
5720,-3.8730,-0.1948,-0.3702,1211.18,1124.33,1327.45
5730,-3.8730,-0.0083,-0.4222,-929.44,624.57,249.27
5740,-3.8732,0.2429,-0.4761,-1054.44,1968.69,-328.98
5750,-3.8730,0.5514,-0.5009,-898.19,-937.07,1108.40
5760,-3.8729,0.9133,-0.4827,-1413.82,-108.34,-1376.04
5770,-3.8726,1.3071,-0.4354,914.31,-1779.48,233.40
5780,-3.8722,1.6654,-0.3553,-679.44,268.13,1092.90
5790,-3.8717,1.9276,-0.2512,1179.93,-1481.14,186.77
5800,-3.8712,2.0593,-0.1689,-1257.57,-152.53,202.58
5810,-3.8708,2.0673,-0.1262,-398.19,-1621.03,-62.87
5820,-3.8704,2.0092,-0.1071,617.43,-152.22,-1172.18
5830,-3.8699,1.9688,-0.0945,1179.93,-1699.22,1952.88
5840,-3.8694,1.9827,-0.0714,8.06,-89.90,1968.51
5850,-3.8689,2.0200,-0.0374,1789.31,-1136.78,1296.69
5860,-3.8685,2.0381,-0.0216,-1429.44,-777.34,1593.63
5870,-3.8683,2.0022,-0.0292,883.06,1238.34,1671.81
5880,-3.8682,1.8933,-0.0375,289.31,269.53,812.44
5890,-3.8683,1.7230,-0.0438,-1648.19,-793.21,1406.13
5900,-3.8687,1.5293,-0.0474,554.93,-1606.02,-1734.50
5910,-3.8693,1.3413,-0.0413,-241.94,1940.43,-172.00
5920,-3.8699,1.1759,-0.0325,-304.44,-1278.69,468.63
5930,-3.8707,1.0450,-0.0295,-1476.32,-153.99,-265.75
5940,-3.8713,0.9377,-0.0377,1773.68,220.76,296.81
5950,-3.8719,0.8331,-0.0588,39.31,-826.29,374.88
5960,-3.8724,0.7238,-0.1057,-1351.32,470.34,484.25
5970,-3.8729,0.6045,-0.1980,648.68,-1529.85,-343.99
5980,-3.8732,0.4689,-0.3311,1383.06,-1342.59,1640.20
5990,-3.8734,0.3185,-0.4821,23.68,1625.92,-1735.05
6000,-3.8735,0.1537,-0.6349,773.68,-1702.51,1920.90
6010,-3.8735,-0.0259,-0.7668,-320.07,-1265.38,1733.09
6020,-3.8734,-0.2090,-0.8605,695.56,1859.31,1951.60
6030,-3.8732,-0.3870,-0.9307,1258.06,1874.57,388.92
6040,-3.8730,-0.5693,-1.0027,-1523.19,889.83,-814.33
6050,-3.8727,-0.7747,-1.0780,-866.94,-329.28,13.61
6060,-3.8723,-1.0021,-1.1357,851.81,-1970.28,1216.61
6070,-3.8718,-1.2205,-1.1615,-257.57,-1361.39,-1158.51
6080,-3.8712,-1.3904,-1.1566,-210.69,-658.69,-627.32
6090,-3.8705,-1.4802,-1.1443,-1960.69,-34.00,60.18
6100,-3.8700,-1.4796,-1.1488,-1460.69,1543.95,825.87
6110,-3.8698,-1.4028,-1.1565,-1382.57,965.82,-1486.63
6120,-3.8696,-1.2806,-1.1389,445.56,-18.37,607.06
6130,-3.8698,-1.1526,-1.0864,86.18,-1768.13,528.99
6140,-3.8700,-1.0560,-1.0032,476.81,950.87,950.99
6150,-3.8704,-1.0002,-0.9003,836.18,-392.70,-2.01
6160,-3.8706,-0.9673,-0.7943,-23.19,779.24,-1689.27
6170,-3.8708,-0.9308,-0.6973,195.56,-1658.14,357.79
6180,-3.8712,-0.8737,-0.6158,867.43,-1236.21,-1595.15
6190,-3.8715,-0.8038,-0.5465,179.93,1185.79,467.53
6200,-3.8718,-0.7408,-0.4839,1117.43,-1939.09,-547.97
6210,-3.8719,-0.6919,-0.4357,1179.93,-1923.34,436.52
6220,-3.8722,-0.6523,-0.4044,-554.44,248.60,-813.35
6230,-3.8723,-0.6143,-0.3810,508.06,248.72,-625.79
6240,-3.8723,-0.5718,-0.3545,1383.06,-751.22,967.96
6250,-3.8724,-0.5272,-0.3209,-1179.44,-1360.53,-1047.61
6260,-3.8726,-0.4830,-0.2841,523.68,-1063.54,-531.92
6270,-3.8727,-0.4264,-0.2523,-1820.07,-344.73,1608.76
6280,-3.8729,-0.3359,-0.2378,1429.93,-282.10,-1438.05
6290,-3.8732,-0.2100,-0.2424,1008.06,1577.45,-391.11
6300,-3.8733,-0.0552,-0.2559,1133.06,983.95,905.76
6310,-3.8735,0.1511,-0.2719,945.56,-734.50,-859.92
6320,-3.8737,0.4482,-0.2932,-648.19,1203.37,-1219.30
6330,-3.8737,0.8479,-0.3043,1383.06,-1530.40,77.51
6340,-3.8737,1.2821,-0.2825,539.31,1048.52,1765.01
6350,-3.8734,1.6342,-0.2087,117.43,-153.75,1546.26
6360,-3.8730,1.8380,-0.1003,1179.93,1284.42,1702.70
6370,-3.8726,1.9152,-0.0293,-726.32,-840.21,671.63
6380,-3.8721,1.9371,-0.0310,1148.68,253.72,1578.06
6390,-3.8716,1.9535,-0.0770,-38.82,34.97,-562.56
6400,-3.8710,1.9823,-0.1198,-1945.07,-1855.59,-765.81
6410,-3.8702,2.0250,-0.1246,1742.43,675.72,1406.01
6420,-3.8696,2.0779,-0.1053,-788.82,50.78,-1203.37
6430,-3.8690,2.1261,-0.1097,1976.81,-1480.35,343.51
6440,-3.8687,2.1245,-0.1587,148.68,1957.28,-1734.62
6450,-3.8683,2.0360,-0.2223,-54.44,-308.41,1374.63
6460,-3.8680,1.8729,-0.2805,617.43,-449.16,1140.14
6470,-3.8679,1.6754,-0.3380,-257.57,97.35,124.45
6480,-3.8682,1.4747,-0.3816,-1538.82,737.61,-344.42
6490,-3.8685,1.2888,-0.3932,773.68,-840.88,-1985.17
6500,-3.8691,1.1299,-0.3835,976.81,1674.38,108.58
6510,-3.8700,1.0035,-0.3833,633.06,-1091.55,1530.46
6520,-3.8708,0.9135,-0.4119,461.18,-1060.55,-1000.79
6530,-3.8716,0.8485,-0.4786,929.93,-716.98,-313.35
6540,-3.8721,0.7762,-0.5812,617.43,-1263.98,1874.02
6550,-3.8724,0.6708,-0.6998,-632.57,1610.84,-1235.53
6560,-3.8726,0.5360,-0.8182,1867.43,-1576.84,1795.47
6570,-3.8726,0.3864,-0.9238,617.43,-733.34,1638.98
6580,-3.8724,0.2313,-0.9945,1461.18,1750.73,310.67
6590,-3.8723,0.0668,-1.0222,1617.43,703.55,107.42
6600,-3.8722,-0.1154,-1.0262,554.93,1156.37,435.49
6610,-3.8721,-0.3065,-1.0288,1242.43,656.01,794.86
6620,-3.8719,-0.4908,-1.0266,773.68,327.51,451.11
6630,-3.8719,-0.6528,-0.9988,1179.93,608.40,-189.51
6640,-3.8718,-0.7797,-0.9386,445.56,170.59,-80.08
6650,-3.8716,-0.8640,-0.8638,211.18,-126.53,1169.98
6660,-3.8715,-0.9038,-0.8036,1414.31,1451.42,-1079.83
6670,-3.8712,-0.9050,-0.7743,320.56,1154.48,576.54
6680,-3.8711,-0.8853,-0.7626,164.31,904.48,-1689.03
6690,-3.8710,-0.8666,-0.7466,-1304.44,-1595.52,-220.28
6700,-3.8708,-0.8658,-0.7209,1086.18,451.42,-345.21
6710,-3.8707,-0.8904,-0.6880,1179.93,-267.33,904.79
6720,-3.8707,-0.9351,-0.6483,-1960.69,-48.65,107.97
6730,-3.8708,-0.9894,-0.6057,320.56,1029.42,-1845.03
6740,-3.8710,-1.0414,-0.5645,1367.43,-1517.58,-876.22
6750,-3.8711,-1.0806,-0.5250,-1288.82,-236.45,-860.53
6760,-3.8712,-1.0919,-0.4795,1695.56,810.36,-1126.04
6770,-3.8713,-1.0673,-0.4222,242.43,-1361.51,-1563.48
6780,-3.8715,-1.0179,-0.3646,-601.32,1966.61,1233.52
6790,-3.8717,-0.9583,-0.3218,1711.18,1341.74,-625.73
6800,-3.8718,-0.9006,-0.2939,1351.81,-1173.77,1421.20
6810,-3.8719,-0.8545,-0.2761,726.81,-1611.15,202.51
6820,-3.8722,-0.8214,-0.2653,-1366.94,670.17,-0.55
6830,-3.8722,-0.7970,-0.2554,-1132.57,-1939.15,624.45
6840,-3.8723,-0.7722,-0.2448,1992.43,-673.46,-1922.42
6850,-3.8724,-0.7365,-0.2339,1164.31,685.97,-94.24
6860,-3.8724,-0.6854,-0.2177,1742.43,-1923.34,1374.51
6870,-3.8726,-0.6200,-0.1940,273.68,154.91,-1750.43
6880,-3.8727,-0.5461,-0.1660,648.68,-813.72,-1469.18
6890,-3.8728,-0.4661,-0.1394,-1898.19,-1235.47,-1875.37
6900,-3.8729,-0.3771,-0.1246,351.81,-1829.04,1187.19
6910,-3.8730,-0.2760,-0.1267,-257.57,61.71,765.38
6920,-3.8732,-0.1536,-0.1421,679.93,-203.67,1546.57
6930,-3.8733,0.0083,-0.1671,351.81,1827.82,-844.06
6940,-3.8733,0.2343,-0.1996,1070.56,-1390.62,796.51
6950,-3.8734,0.5522,-0.2397,1992.43,-1546.45,-1984.80
6960,-3.8735,0.9845,-0.2600,-1304.44,1313.54,-672.36
6970,-3.8734,1.4877,-0.2363,-1976.32,-1279.36,702.58
6980,-3.8732,1.9388,-0.1729,-1570.07,1752.87,-1891.11
6990,-3.8727,2.2140,-0.0758,179.93,1878.78,1984.01
7000,-3.8721,2.2662,0.0206,-601.32,-1698.85,749.82
7010,-3.8715,2.1659,0.0814,-1913.82,-1354.98,906.25
7020,-3.8708,2.0560,0.0791,1242.43,-1573.91,-218.63
7030,-3.8700,2.0309,0.0262,-820.07,-1871.03,-749.88
7040,-3.8690,2.0510,-0.0125,-38.82,-636.72,156.25
7050,-3.8683,2.0437,-0.0270,-1460.69,-1589.78,1140.56
7060,-3.8678,1.9943,-0.0516,1601.81,550.84,-953.19
7070,-3.8674,1.9073,-0.0986,-726.32,1394.47,515.50
7080,-3.8674,1.7878,-0.1573,148.68,-621.28,-1297.12
7090,-3.8676,1.6409,-0.1968,851.81,-137.15,-1734.74
7100,-3.8679,1.4681,-0.1981,-1960.69,-1184.33,1702.70
7110,-3.8687,1.2754,-0.1760,-70.07,-1356.57,-109.80
7120,-3.8695,1.0873,-0.1591,-741.94,1471.19,-890.99
7130,-3.8704,0.9348,-0.1719,-820.07,-357.30,1077.76
7140,-3.8712,0.8209,-0.2225,-335.69,-1998.23,-1078.49
7150,-3.8718,0.7246,-0.3022,1086.18,-482.79,1968.26
7160,-3.8723,0.6239,-0.4021,758.06,1313.90,1077.51
7170,-3.8728,0.5070,-0.5197,-132.57,532.41,-860.17
7180,-3.8730,0.3704,-0.6428,898.68,1485.35,717.71
7190,-3.8733,0.2125,-0.7573,-585.69,1719.42,-1220.03
7200,-3.8733,0.0365,-0.8525,-788.82,-937.13,1420.35
7210,-3.8733,-0.1538,-0.9189,679.93,-1124.94,-126.71
7220,-3.8730,-0.3549,-0.9561,320.56,-1609.68,857.54
7230,-3.8729,-0.5599,-0.9736,-1413.82,1639.89,-189.39
7240,-3.8726,-0.7633,-0.9829,336.18,-610.47,1013.67
7250,-3.8722,-0.9563,-0.9816,-1695.07,-1798.40,1029.30
7260,-3.8718,-1.1147,-0.9683,1601.81,-1626.89,-345.70
7270,-3.8713,-1.2061,-0.9673,1320.56,75.93,-533.14
7280,-3.8708,-1.2229,-0.9985,1633.06,200.74,-1392.52
7290,-3.8705,-1.1920,-1.0338,-523.19,200.68,-533.20
7300,-3.8701,-1.1475,-1.0403,-570.07,-314.88,794.80
7310,-3.8700,-1.1096,-1.0200,1133.06,-1142.88,1935.42
7320,-3.8700,-1.0836,-0.9786,1976.81,1450.93,-1142.64
7330,-3.8701,-1.0693,-0.9160,1304.93,-1252.14,-392.58
7340,-3.8702,-1.0592,-0.8368,-866.94,-1236.51,654.42
7350,-3.8706,-1.0366,-0.7537,429.93,904.17,-439.15
7360,-3.8708,-0.9946,-0.6740,-679.44,-455.20,1982.85
7370,-3.8711,-0.9390,-0.5924,695.56,1748.05,733.03
7380,-3.8713,-0.8768,-0.5161,-179.44,185.61,201.97
7390,-3.8716,-0.8126,-0.4591,-226.32,1951.35,623.96
7400,-3.8718,-0.7496,-0.4178,-7.57,1248.35,-1688.42
7410,-3.8719,-0.6930,-0.3779,54.93,-1470.21,967.90
7420,-3.8721,-0.6440,-0.3339,-695.07,-360.78,155.46
7430,-3.8723,-0.5942,-0.2942,1570.56,1279.97,-266.30
7440,-3.8724,-0.5359,-0.2593,-54.44,-1641.85,-484.99
7450,-3.8726,-0.4670,-0.2190,-585.69,-1172.97,-750.55
7460,-3.8727,-0.3868,-0.1755,226.81,-16.54,-1391.11
7470,-3.8728,-0.2867,-0.1389,-1507.57,1546.08,1843.38
7480,-3.8729,-0.1489,-0.1211,-695.07,-1766.24,1327.82
7490,-3.8730,0.0414,-0.1267,945.56,515.32,1093.51
7500,-3.8732,0.2838,-0.1426,1304.93,-218.69,1499.69
7510,-3.8733,0.5840,-0.1621,336.18,1750.55,-969.06
7520,-3.8733,0.9578,-0.1663,-1241.94,-748.90,1921.51
7530,-3.8733,1.3864,-0.1298,-1398.19,-1279.42,-609.74
7540,-3.8730,1.7859,-0.0768,1461.18,-606.69,-1265.93
7550,-3.8726,2.0504,-0.0367,601.81,-1824.65,-1218.93
7560,-3.8718,2.1444,-0.0127,-1538.82,-699.16,-1781.37
7570,-3.8710,2.1085,-0.0096,-1507.57,-1620.85,1031.19
7580,-3.8701,2.0184,-0.0059,1898.68,-1230.29,1562.44
7590,-3.8693,1.9620,0.0256,-1632.57,-746.09,-1062.56
7600,-3.8684,1.9786,0.0768,-851.32,-714.97,781.25
7610,-3.8679,2.0293,0.1182,1273.68,1831.97,1500.12
7620,-3.8678,2.0435,0.1177,-241.94,-871.09,-702.94
7630,-3.8678,1.9747,0.0809,1570.56,-933.53,47.06
7640,-3.8682,1.8260,0.0336,773.68,-1636.78,-1328.00
7650,-3.8685,1.6355,-0.0177,1742.43,300.42,1843.81
7660,-3.8690,1.4326,-0.0693,1351.81,1737.55,-1125.06
7670,-3.8695,1.2291,-0.1168,-616.94,-872.25,1187.32
7680,-3.8701,1.0398,-0.1705,1336.18,1049.26,171.63
7690,-3.8708,0.8788,-0.2458,1101.81,-1826.11,1343.38
7700,-3.8716,0.7344,-0.3434,492.43,532.96,-891.11
7710,-3.8722,0.5813,-0.4498,-1991.94,48.28,-813.17
7720,-3.8727,0.4200,-0.5555,-1585.69,-1577.03,-704.04
7730,-3.8729,0.2638,-0.6680,1773.68,891.42,1233.28
7740,-3.8730,0.1138,-0.7855,1773.68,-1499.51,1233.03
7750,-3.8730,-0.0510,-0.8767,-1429.44,-546.69,-1345.34
7760,-3.8728,-0.2507,-0.9192,1476.81,-203.25,1482.60
7770,-3.8724,-0.4714,-0.9203,-85.69,-1641.17,216.92
7780,-3.8722,-0.6674,-0.8995,-335.69,-1782.23,-579.96
7790,-3.8718,-0.7917,-0.8776,-1413.82,873.66,591.98
7800,-3.8717,-0.8325,-0.8672,-1335.69,-314.09,-704.90
7810,-3.8715,-0.8177,-0.8706,1445.56,1013.98,810.79
7820,-3.8713,-0.8016,-0.8770,-663.82,576.48,-736.08
7830,-3.8711,-0.8300,-0.8728,1398.68,-235.96,-423.65
7840,-3.8707,-0.9159,-0.8591,1773.68,295.23,654.54
7850,-3.8705,-1.0399,-0.8431,-1226.32,-1954.96,904.54
7860,-3.8704,-1.1669,-0.8232,-1101.32,91.67,-1001.65
7870,-3.8702,-1.2676,-0.7887,-1351.32,-1361.69,1638.98
7880,-3.8702,-1.3270,-0.7339,1758.06,-940.00,60.91
7890,-3.8705,-1.3414,-0.6624,-1851.32,-1924.50,-1767.09
7900,-3.8707,-1.3032,-0.5796,304.93,-768.25,1264.28
7910,-3.8711,-1.2148,-0.4940,1195.56,1825.56,-829.28
7920,-3.8713,-1.1036,-0.4208,508.06,778.87,1139.65
7930,-3.8717,-0.9951,-0.3668,-1257.57,-1845.95,-188.35
7940,-3.8719,-0.9017,-0.3269,633.06,1060.55,-375.73
7950,-3.8721,-0.8282,-0.3019,586.18,-1829.90,311.83
7960,-3.8723,-0.7743,-0.2936,1992.43,1373.35,-1891.24
7970,-3.8724,-0.7346,-0.2963,898.68,-1564.03,1655.64
7980,-3.8726,-0.7017,-0.3041,1976.81,-1907.71,-828.74
7990,-3.8726,-0.6680,-0.3137,-1804.44,1092.35,-1516.24
8000,-3.8726,-0.6248,-0.3220,-1491.94,-141.97,-1344.42
8010,-3.8726,-0.5646,-0.3265,39.31,-1204.35,-1235.05
8020,-3.8726,-0.4849,-0.3271,-257.57,-1782.41,-1469.42
8030,-3.8726,-0.3851,-0.3207,1945.56,-1860.35,1514.95
8040,-3.8727,-0.2655,-0.3057,-1288.82,-1032.04,-625.67
8050,-3.8727,-0.1268,-0.2900,-1976.32,890.08,265.01
8060,-3.8728,0.0355,-0.2852,-226.32,-1109.68,468.14
8070,-3.8729,0.2480,-0.3003,554.93,-499.94,171.26
8080,-3.8730,0.5231,-0.3290,-241.94,1562.93,61.89
8090,-3.8732,0.8381,-0.3541,-1038.82,1891.60,-1797.55
8100,-3.8730,1.1481,-0.3682,-710.69,-1326.54,1264.89
8110,-3.8728,1.4081,-0.3552,-1038.82,877.20,-1125.73
8120,-3.8723,1.5936,-0.3180,242.43,-1466.00,-1172.61
8130,-3.8717,1.7159,-0.2891,-7.57,-700.07,-641.30
8140,-3.8710,1.8138,-0.2937,-351.32,-996.70,1421.26
8150,-3.8704,1.8931,-0.3082,179.93,-1590.21,-1141.24
8160,-3.8698,1.9266,-0.2946,-1679.44,550.54,-1875.61
8170,-3.8693,1.9081,-0.2545,-1382.57,-1699.40,-1453.74
8180,-3.8689,1.8561,-0.2228,242.43,-574.40,-297.42
8190,-3.8685,1.7770,-0.2441,1586.18,-512.02,452.64
8200,-3.8684,1.6688,-0.3036,-538.82,753.42,843.26
8210,-3.8684,1.5474,-0.3495,1617.43,1143.86,1780.64
8220,-3.8684,1.4370,-0.3705,-1929.44,-731.38,264.89
8230,-3.8685,1.3408,-0.3849,-54.44,580.87,936.77
8240,-3.8688,1.2432,-0.4020,-366.94,-1263.06,-1172.67
8250,-3.8691,1.1282,-0.4167,-866.94,549.26,-188.29
8260,-3.8696,1.0018,-0.4220,414.31,-1341.55,-500.85
8270,-3.8702,0.8671,-0.4261,242.43,1986.33,-235.23
8280,-3.8708,0.7328,-0.4407,-1007.57,1454.77,-1438.35
8290,-3.8715,0.6215,-0.4730,1804.93,-404.85,1999.08
8300,-3.8719,0.5367,-0.5183,-445.07,-545.72,936.52
8310,-3.8723,0.4624,-0.5619,711.18,1657.29,686.46
8320,-3.8726,0.3763,-0.6045,-804.44,78.98,186.40
8330,-3.8728,0.2698,-0.6506,179.93,-1374.27,1905.03
8340,-3.8729,0.1549,-0.6995,-1460.69,719.24,-1391.91
8350,-3.8728,0.0494,-0.7496,-163.82,-1531.01,217.35
8360,-3.8727,-0.0536,-0.7889,-1663.82,46.94,-829.59
8370,-3.8723,-0.1781,-0.7972,1148.68,-968.87,-1876.59
8380,-3.8719,-0.3302,-0.7819,1211.18,1968.38,1498.41
8390,-3.8717,-0.4974,-0.7761,1742.43,-63.17,-985.96
8400,-3.8715,-0.6622,-0.7896,336.18,670.90,-142.15
8410,-3.8711,-0.8055,-0.8037,-757.57,-1048.22,1592.16
8420,-3.8708,-0.9128,-0.8076,898.68,1139.04,-985.96
8430,-3.8706,-0.9728,-0.8130,-835.69,638.79,1779.66
8440,-3.8705,-0.9805,-0.8394,-507.57,-48.83,1295.23
8450,-3.8705,-0.9437,-0.8773,-1491.94,576.17,-923.52
8460,-3.8704,-0.8842,-0.8955,-788.82,-283.14,1685.73
8470,-3.8702,-0.8324,-0.8809,-1163.82,1388.85,-1736.15
8480,-3.8701,-0.8114,-0.8395,1461.18,-736.02,-236.15
8490,-3.8700,-0.8269,-0.7784,148.68,560.91,-376.65
8500,-3.8700,-0.8678,-0.7073,-1835.69,373.35,-392.15
8510,-3.8701,-0.9033,-0.6423,929.93,1482.67,-298.28
8520,-3.8702,-0.9025,-0.5896,383.06,1795.10,1170.59
8530,-3.8705,-0.8643,-0.5470,492.43,545.10,670.72
8540,-3.8708,-0.8076,-0.5183,1383.06,1998.29,-969.85
8550,-3.8711,-0.7510,-0.5012,633.06,1670.29,1967.71
8560,-3.8713,-0.7107,-0.4856,-116.94,-142.15,-1501.04
8570,-3.8715,-0.6840,-0.4662,1039.31,1857.97,280.27
8580,-3.8717,-0.6555,-0.4478,461.18,342.41,-438.42
8590,-3.8717,-0.6193,-0.4301,101.81,-1298.16,874.08
8600,-3.8718,-0.5785,-0.4116,742.43,967.53,-625.85
8610,-3.8718,-0.5378,-0.3932,1961.18,-673.03,1827.27
8620,-3.8719,-0.4963,-0.3679,-835.69,1686.40,-500.79
8630,-3.8721,-0.4456,-0.3358,476.81,920.90,-203.86
8640,-3.8722,-0.3774,-0.3031,-1023.19,1030.33,-1235.05
8650,-3.8723,-0.2881,-0.2697,-304.44,1217.96,1186.89
8660,-3.8726,-0.1744,-0.2314,-866.94,1499.39,-797.42
8670,-3.8727,-0.0348,-0.1907,1679.93,-1609.74,577.64
8680,-3.8729,0.1422,-0.1575,-445.07,-390.75,1593.32
8690,-3.8732,0.3699,-0.1399,-1788.82,-156.01,-1172.24
8700,-3.8733,0.6656,-0.1359,-648.19,-1905.58,484.07
8710,-3.8735,1.0375,-0.1273,1211.18,-1389.34,-1640.93
8720,-3.8737,1.4423,-0.0927,804.93,-294.86,-1547.18
8730,-3.8735,1.7852,-0.0447,617.43,143.43,265.44
8740,-3.8733,1.9849,-0.0197,508.06,-1715.27,1218.63
8750,-3.8728,2.0338,-0.0353,-1929.44,1488.22,1562.44
8760,-3.8721,1.9840,-0.0952,336.18,-511.66,937.38
8770,-3.8712,1.9075,-0.1747,1961.18,-183.65,-765.87
8780,-3.8701,1.8522,-0.2198,164.31,1644.35,-1015.99
8790,-3.8690,1.8317,-0.2096,1086.18,-137.02,-1391.11
8800,-3.8682,1.8474,-0.1737,-1538.82,1175.42,-1734.80
8810,-3.8677,1.8885,-0.1454,476.81,1769.23,1280.88
8820,-3.8676,1.9161,-0.1384,1742.43,1394.29,890.32
8830,-3.8677,1.8783,-0.1484,1273.68,-1715.03,952.82
8840,-3.8680,1.7667,-0.1689,429.93,1003.66,-390.93
8850,-3.8684,1.6201,-0.2017,-1851.32,-1621.58,1624.63
8860,-3.8689,1.4666,-0.2332,-616.94,-1809.39,952.70
8870,-3.8695,1.3065,-0.2520,-273.19,-1840.94,-984.86
8880,-3.8701,1.1404,-0.2698,-757.57,-247.50,-234.92
8890,-3.8707,0.9824,-0.3018,1976.81,1470.95,-938.05
8900,-3.8713,0.8446,-0.3553,1758.06,1376.89,-1906.86
8910,-3.8719,0.7299,-0.4264,117.43,-1482.73,-1016.36
8920,-3.8724,0.6218,-0.5033,1429.93,1423.28,-453.98
8930,-3.8727,0.4977,-0.5750,-398.19,-420.72,686.46
8940,-3.8729,0.3627,-0.6429,-288.82,-1592.83,-1860.53
8950,-3.8730,0.2247,-0.7102,-1570.07,1703.80,-766.91
8960,-3.8730,0.0803,-0.7723,773.68,1094.18,-1610.78
8970,-3.8730,-0.0721,-0.8292,-1710.69,1140.75,-1345.28
8980,-3.8729,-0.2429,-0.8694,-1226.32,1874.82,388.98
8990,-3.8729,-0.4441,-0.8743,914.31,733.89,-1439.21
9000,-3.8728,-0.6560,-0.8483,-835.69,108.46,373.29
9010,-3.8728,-0.8381,-0.8130,39.31,-563.78,-345.46
9020,-3.8726,-0.9652,-0.7841,726.81,-48.52,-1673.52
9030,-3.8722,-1.0337,-0.7769,461.18,-345.64,592.16
9040,-3.8718,-1.0579,-0.8047,-304.44,576.05,1201.60
9050,-3.8715,-1.0593,-0.8573,601.81,1013.55,-970.34
9060,-3.8710,-1.0649,-0.9070,414.31,-1720.83,1654.54
9070,-3.8706,-1.1022,-0.9236,-304.44,-80.26,-361.21
9080,-3.8702,-1.1674,-0.9028,-1070.07,1794.68,-1658.08
9090,-3.8701,-1.2286,-0.8672,-1413.82,450.81,-251.77
9100,-3.8701,-1.2587,-0.8268,-1257.57,1013.18,-48.58
9110,-3.8702,-1.2478,-0.7742,-1101.32,-1815.00,-251.65
9120,-3.8705,-1.1981,-0.7014,289.31,919.43,-345.28
9130,-3.8707,-1.1229,-0.6138,-1351.32,-1768.01,561.10
9140,-3.8711,-1.0361,-0.5295,273.68,1450.93,576.90
9150,-3.8715,-0.9500,-0.4596,-616.94,232.30,-1844.79
9160,-3.8717,-0.8734,-0.4028,-1585.69,1185.61,-1829.04
9170,-3.8719,-0.8101,-0.3633,211.18,451.42,-0.79
9180,-3.8721,-0.7583,-0.3427,320.56,1514.04,-625.73
9190,-3.8721,-0.7180,-0.3331,-1054.44,154.72,1108.70
9200,-3.8721,-0.6885,-0.3256,101.81,1373.60,1077.45
9210,-3.8721,-0.6630,-0.3136,-116.94,-1657.65,889.95
9220,-3.8722,-0.6299,-0.3027,-851.32,-126.34,-1063.17
9230,-3.8723,-0.5819,-0.2980,-616.94,1264.34,-516.24
9240,-3.8724,-0.5240,-0.2922,1523.68,1873.84,-500.61
9250,-3.8726,-0.4675,-0.2775,929.93,-1391.66,-375.61
9260,-3.8726,-0.4116,-0.2598,164.31,499.08,561.95
9270,-3.8727,-0.3354,-0.2502,-679.44,-1235.23,-1672.42
9280,-3.8728,-0.2267,-0.2452,1070.56,-16.30,-266.17
9290,-3.8728,-0.0857,-0.2339,-1007.57,624.51,343.26
9300,-3.8729,0.0870,-0.2195,1039.31,-1922.06,796.39
9310,-3.8730,0.3011,-0.2119,-851.32,-93.63,1843.26
9320,-3.8732,0.5574,-0.2050,-1445.07,875.55,-297.30
9330,-3.8732,0.8414,-0.1813,-648.19,1766.66,-1219.18
9340,-3.8730,1.1068,-0.1256,-288.82,798.46,624.63
9350,-3.8729,1.3016,-0.0392,1679.93,-75.99,-1547.18
9360,-3.8727,1.4132,0.0339,-1382.57,-1013.12,-1234.50
9370,-3.8724,1.4690,0.0438,898.68,346.50,-156.19
9380,-3.8721,1.5195,0.0009,39.31,1612.24,-578.06
9390,-3.8716,1.5760,-0.0400,-1491.94,112.30,-906.25
9400,-3.8710,1.6191,-0.0365,1742.43,-1121.95,-1109.50
9410,-3.8702,1.6357,-0.0024,-741.94,-668.76,140.50
9420,-3.8696,1.6323,0.0123,1383.06,-309.33,374.94
9430,-3.8691,1.6295,-0.0214,945.56,1581.30,-1703.12
9440,-3.8687,1.6288,-0.0795,586.18,1268.80,109.31
9450,-3.8684,1.6090,-0.1213,492.43,1831.30,1546.69
9460,-3.8683,1.5535,-0.1365,1961.18,471.86,-609.62
9470,-3.8682,1.4604,-0.1362,-1148.19,-1465.76,1249.69
9480,-3.8683,1.3470,-0.1353,-1054.44,-1434.69,952.82
9490,-3.8687,1.2350,-0.1350,429.93,-1309.88,-1969.06
9500,-3.8691,1.1222,-0.1356,-1913.82,-1278.87,-1469.06
9510,-3.8696,1.0073,-0.1406,-351.32,-1357.24,515.32
9520,-3.8702,0.9110,-0.1423,945.56,-1998.05,1827.82
9530,-3.8707,0.8376,-0.1475,617.43,1783.02,405.94
9540,-3.8712,0.7717,-0.1692,-773.19,1126.59,1249.69
9550,-3.8716,0.6958,-0.2057,-1210.69,-1654.79,827.76
9560,-3.8719,0.6036,-0.2537,1070.56,1673.22,-1359.80
9570,-3.8722,0.5020,-0.3005,1273.68,-467.59,1983.83
9580,-3.8724,0.4019,-0.3497,258.06,1532.23,-359.99
9590,-3.8724,0.3029,-0.4128,-554.44,-764.89,702.39
9600,-3.8724,0.1901,-0.4789,-1226.32,-843.20,514.77
9610,-3.8724,0.0588,-0.5365,336.18,-1296.51,1624.02
9620,-3.8724,-0.0815,-0.5796,-460.69,-671.81,-829.22
9630,-3.8723,-0.2192,-0.6057,1570.56,1827.94,1123.84
9640,-3.8722,-0.3380,-0.6218,-54.44,-1516.11,420.65
9650,-3.8721,-0.4329,-0.6300,742.43,421.20,-1548.10
9660,-3.8718,-0.5111,-0.6293,601.81,-625.85,-516.91
9670,-3.8715,-0.5745,-0.6306,-1413.82,-532.29,-1751.28
9680,-3.8711,-0.6213,-0.6475,-1523.19,-704.28,1436.22
9690,-3.8707,-0.6554,-0.6774,476.81,1139.40,795.59
9700,-3.8704,-0.6852,-0.7100,117.43,1311.22,483.03
9710,-3.8701,-0.7157,-0.7393,304.93,1139.28,-501.40
9720,-3.8698,-0.7544,-0.7542,398.68,1389.22,811.04
9730,-3.8696,-0.8065,-0.7440,-554.44,-517.15,-345.28
9740,-3.8695,-0.8655,-0.7122,773.68,779.66,-1563.96
9750,-3.8695,-0.9166,-0.6680,1226.81,857.67,76.72
9760,-3.8698,-0.9445,-0.6179,-1320.07,-1486.21,1217.41
9770,-3.8701,-0.9415,-0.5646,-882.57,919.98,-563.72
9780,-3.8704,-0.9048,-0.5066,-507.57,-251.89,248.84
9790,-3.8707,-0.8446,-0.4478,195.56,-829.90,1452.09
9800,-3.8710,-0.7820,-0.3978,-101.32,-1298.58,639.71
9810,-3.8712,-0.7335,-0.3613,-85.69,1092.16,1764.83
9820,-3.8713,-0.7007,-0.3363,-1882.57,1764.16,233.64
9830,-3.8716,-0.6764,-0.3226,-1679.44,967.35,-31.92
9840,-3.8716,-0.6597,-0.3179,1429.93,-1282.59,983.70
9850,-3.8717,-0.6514,-0.3066,-429.44,-673.22,-1344.42
9860,-3.8717,-0.6429,-0.2904,633.06,764.34,249.39
9870,-3.8718,-0.6195,-0.2852,1711.18,-1157.53,1452.51
9880,-3.8719,-0.5773,-0.2849,711.18,-485.60,-1938.11
9890,-3.8721,-0.5222,-0.2743,-1882.57,-454.28,1811.89
9900,-3.8722,-0.4580,-0.2540,1164.31,905.21,515.08
9910,-3.8724,-0.3922,-0.2333,1383.06,-500.92,-1422.42
9920,-3.8726,-0.3352,-0.2163,1804.93,-1844.54,499.51
9930,-3.8728,-0.2861,-0.2168,1101.81,327.45,-719.18
9940,-3.8728,-0.2241,-0.2510,-616.94,265.01,718.32
9950,-3.8728,-0.1251,-0.3069,-679.44,-109.86,1421.33
9960,-3.8728,0.0234,-0.3474,-7.57,734.07,-1547.49
9970,-3.8728,0.2280,-0.3499,-991.94,-468.75,889.89
9980,-3.8729,0.4821,-0.3383,1195.56,-780.82,1733.64
9990,-3.8730,0.7905,-0.3445,1711.18,704.04,-453.80
10000,-3.8729,1.1438,-0.3472,1195.56,-92.22,1014.89
10010,-3.8727,1.4691,-0.2937,-1585.69,-435.30,405.52
10020,-3.8723,1.6923,-0.1952,54.93,-1590.88,952.51
10030,-3.8719,1.8051,-0.1266,617.43,-981.08,-422.30
10040,-3.8715,1.8473,-0.1279,-945.07,-199.65,-1312.81
10050,-3.8710,1.8639,-0.1556,461.18,-371.40,-531.56
10060,-3.8704,1.8788,-0.1630,-1413.82,81.73,-344.06
10070,-3.8696,1.8832,-0.1355,492.43,-855.71,-1812.87
10080,-3.8690,1.8746,-0.0753,1054.93,-1340.09,1687.19
10090,-3.8687,1.8743,-0.0309,-38.82,-1637.02,1265.44
10100,-3.8685,1.8875,-0.0319,-85.69,50.48,546.81
10110,-3.8687,1.8845,-0.0458,1601.81,-74.46,1546.75
10120,-3.8689,1.8336,-0.0439,1226.81,-1855.71,-1250.12
10130,-3.8691,1.7280,-0.0427,-1288.82,-1621.46,-1687.62
10140,-3.8694,1.5801,-0.0571,1195.56,-1465.39,562.38
10150,-3.8698,1.4082,-0.0774,-1741.94,690.55,499.88
10160,-3.8702,1.2412,-0.0914,258.06,-1903.50,1406.07
10170,-3.8707,1.1074,-0.0997,-1116.94,299.26,234.19
10180,-3.8713,1.0138,-0.1141,1758.06,-763.49,-718.99
10190,-3.8717,0.9540,-0.1516,1773.68,1392.58,374.76
10200,-3.8721,0.9036,-0.2223,-1882.57,595.58,655.94
10210,-3.8723,0.8235,-0.3213,-335.69,-451.42,780.76
10220,-3.8724,0.6996,-0.4359,1414.31,-1123.41,108.70
10230,-3.8726,0.5419,-0.5503,1554.93,204.47,1717.90
10240,-3.8726,0.3688,-0.6484,1367.43,1563.54,1733.28
10250,-3.8726,0.2078,-0.7203,-788.82,1000.67,-141.91
10260,-3.8724,0.0720,-0.7703,-1398.19,-202.76,-813.96
10270,-3.8723,-0.0460,-0.8070,1226.81,1406.37,-829.65
10280,-3.8722,-0.1526,-0.8369,-1882.57,718.63,-985.96
10290,-3.8721,-0.2537,-0.8599,476.81,890.32,1967.10
10300,-3.8719,-0.3545,-0.8654,-460.69,1952.58,420.17
10310,-3.8718,-0.4556,-0.8438,-1366.94,1249.27,138.92
10320,-3.8717,-0.5480,-0.8016,1695.56,14.71,1873.35
10330,-3.8715,-0.6212,-0.7587,1867.43,1405.15,76.54
10340,-3.8713,-0.6715,-0.7327,492.43,-1094.97,1732.85
10350,-3.8712,-0.7043,-0.7278,-1945.07,-1766.97,-860.84
10360,-3.8710,-0.7231,-0.7339,1851.81,-1142.03,1076.66
10370,-3.8708,-0.7297,-0.7457,-554.44,-1923.34,-345.21
10380,-3.8706,-0.7401,-0.7550,-1398.19,561.04,-1876.46
10390,-3.8705,-0.7712,-0.7449,1273.68,-626.46,-735.90
10400,-3.8704,-0.8229,-0.7135,1289.31,670.35,1889.16
10410,-3.8704,-0.8824,-0.6725,-1320.07,685.85,1717.35
10420,-3.8705,-0.9359,-0.6282,-945.07,1935.73,-1048.22
10430,-3.8706,-0.9786,-0.5808,211.18,-392.46,1748.72
10440,-3.8708,-1.0090,-0.5317,-1257.57,1669.92,-1141.78
10450,-3.8711,-1.0209,-0.4835,-1148.19,-48.89,-594.85
10460,-3.8712,-1.0159,-0.4358,1336.18,-1877.01,186.52
10470,-3.8715,-0.9983,-0.3907,1976.81,232.36,1827.27
10480,-3.8716,-0.9673,-0.3541,226.81,1998.05,530.46
10490,-3.8718,-0.9282,-0.3258,195.56,-1314.39,-110.11
10500,-3.8719,-0.8942,-0.3040,1195.56,-1689.33,-63.17
10510,-3.8719,-0.8711,-0.2898,1554.93,1107.60,1108.76
10520,-3.8721,-0.8517,-0.2773,508.06,-1079.83,-703.74
10530,-3.8721,-0.8258,-0.2635,-1007.57,513.92,1811.95
10540,-3.8722,-0.7892,-0.2578,-1695.07,-1720.40,-219.30
10550,-3.8722,-0.7446,-0.2585,-1007.57,-985.96,1249.45
10560,-3.8723,-0.6964,-0.2555,695.56,-1079.59,-844.30
10570,-3.8723,-0.6498,-0.2495,-1132.57,-688.90,1468.20
10580,-3.8724,-0.6074,-0.2451,836.18,76.84,-469.24
10590,-3.8724,-0.5663,-0.2421,-1741.94,639.40,1655.76
10600,-3.8724,-0.5217,-0.2336,-476.32,1030.09,249.51
10610,-3.8726,-0.4679,-0.2162,1226.81,-1891.66,-1125.49
10620,-3.8726,-0.3997,-0.1963,117.43,342.83,1202.70
10630,-3.8727,-0.3168,-0.1803,851.81,-1110.17,-1141.05
10640,-3.8728,-0.2133,-0.1700,-538.82,936.83,-312.87
10650,-3.8729,-0.0773,-0.1595,711.18,-1750.43,-125.37
10660,-3.8730,0.1040,-0.1372,-1882.57,-406.43,-297.24
10670,-3.8732,0.3484,-0.1134,1320.56,-1562.32,-672.18
10680,-3.8733,0.6550,-0.0975,601.81,1485.05,-1125.24
10690,-3.8734,1.0051,-0.0665,-148.19,-483.15,-140.87
10700,-3.8733,1.3590,-0.0172,664.31,-513.67,452.94
10710,-3.8732,1.6360,0.0411,1961.18,1799.50,-1281.31
10720,-3.8728,1.7728,0.1093,1414.31,1268.80,-1234.31
10730,-3.8723,1.7911,0.1560,-1070.07,1987.79,1578.31
10740,-3.8718,1.7593,0.1501,1273.68,-27.77,1687.74
10750,-3.8712,1.7274,0.1232,1195.56,-777.83,1078.37
10760,-3.8706,1.7252,0.1139,1117.43,-231.02,-452.94
10770,-3.8699,1.7640,0.1108,836.18,-1418.52,1578.31
10780,-3.8694,1.8240,0.0953,1804.93,-1809.08,-593.57
10790,-3.8690,1.8756,0.0640,1476.81,206.67,-1968.57
10800,-3.8689,1.8989,0.0161,86.18,191.16,1859.50
10810,-3.8689,1.8636,-0.0439,-929.44,-1933.84,-265.62
10820,-3.8688,1.7358,-0.0918,-1445.07,-1621.40,-968.87
10830,-3.8687,1.5247,-0.1116,-1804.44,253.36,421.69
10840,-3.8689,1.2896,-0.1193,-835.69,1721.68,-1125.24
10850,-3.8693,1.0869,-0.1307,1070.56,736.88,890.38
10860,-3.8699,0.9493,-0.1553,-866.94,-732.30,1062.19
10870,-3.8706,0.8794,-0.2014,1523.68,126.83,-125.31
10880,-3.8711,0.8346,-0.2661,570.56,-1779.54,843.32
10890,-3.8716,0.7653,-0.3406,-1163.82,1939.09,1733.83
10900,-3.8719,0.6552,-0.4205,1961.18,407.71,-1672.55
10910,-3.8722,0.5155,-0.5085,-132.57,-1826.90,1764.77
10920,-3.8723,0.3679,-0.6027,1992.43,-1092.77,264.59
10930,-3.8724,0.2228,-0.6830,-898.19,-1139.95,-1798.10
10940,-3.8724,0.0856,-0.7344,523.68,578.55,-1220.09
10950,-3.8723,-0.0415,-0.7665,-1038.82,-1999.88,1154.79
10960,-3.8722,-0.1661,-0.7869,-1304.44,1906.13,935.97
10970,-3.8721,-0.2919,-0.7867,-1257.57,-703.49,1576.54
10980,-3.8719,-0.4108,-0.7625,-1351.32,-688.11,-1032.84
10990,-3.8717,-0.5054,-0.7283,-570.07,-1578.98,1014.10
11000,-3.8716,-0.5620,-0.7009,-679.44,-1204.16,-735.84
11010,-3.8713,-0.5845,-0.6853,70.56,-1704.22,1654.85
11020,-3.8711,-0.5942,-0.6815,1195.56,295.72,748.66
11030,-3.8710,-0.6053,-0.6869,-54.44,780.03,-126.34
11040,-3.8707,-0.6061,-0.7048,-1476.32,92.53,-1907.59
11050,-3.8706,-0.5886,-0.7482,-1570.07,1795.65,-532.65
11060,-3.8704,-0.5808,-0.8040,664.31,248.84,139.16
11070,-3.8702,-0.6238,-0.8317,1664.31,1108.22,764.04
11080,-3.8701,-0.7260,-0.8177,164.31,1561.28,1045.23
11090,-3.8701,-0.8612,-0.7865,-913.82,-657.71,-1157.90
11100,-3.8701,-0.9922,-0.7511,1773.68,-657.96,857.79
11110,-3.8704,-1.0795,-0.7059,1008.06,-126.95,-267.15
11120,-3.8706,-1.1025,-0.6489,1836.18,1654.11,-79.53
11130,-3.8708,-1.0721,-0.5831,-1116.94,950.93,1936.22
11140,-3.8712,-1.0123,-0.5164,-1226.32,1372.86,-673.03
11150,-3.8715,-0.9445,-0.4558,-1570.07,1919.86,1748.96
11160,-3.8717,-0.8815,-0.4092,-882.57,1669.98,1514.71
11170,-3.8719,-0.8296,-0.3754,-820.07,-361.15,-1438.35
11180,-3.8721,-0.7910,-0.3459,1820.56,-32.90,1296.08
11190,-3.8722,-0.7603,-0.3179,-1241.94,-267.21,1733.64
11200,-3.8723,-0.7283,-0.2908,-1304.44,-673.40,-125.67
11210,-3.8723,-0.6890,-0.2606,-1210.69,-1204.59,-1031.86
11220,-3.8723,-0.6370,-0.2246,-179.44,-1345.15,1624.45
11230,-3.8724,-0.5673,-0.1886,-1523.19,-735.66,-1031.74
11240,-3.8726,-0.4817,-0.1536,-601.32,-126.16,-1250.43
11250,-3.8727,-0.3851,-0.1135,-1648.19,358.40,1812.19
11260,-3.8728,-0.2860,-0.0685,-1288.82,1483.58,1093.51
11270,-3.8729,-0.1832,-0.0219,-601.32,-750.61,859.19
11280,-3.8730,-0.0681,0.0269,554.93,1218.38,1078.06
11290,-3.8732,0.0671,0.0850,-710.69,-547.06,1546.88
11300,-3.8733,0.2288,0.1488,601.81,-1124.88,-1906.13
11310,-3.8734,0.4275,0.1930,1289.31,-952.70,-1062.26
11320,-3.8735,0.6809,0.2119,-1273.19,703.92,-124.63
11330,-3.8735,0.9738,0.2367,-835.69,-873.72,250.37
11340,-3.8737,1.2684,0.2832,648.68,-1701.23,1766.05
11350,-3.8735,1.5165,0.3323,-1632.57,252.44,500.55
11360,-3.8733,1.6654,0.3804,-1882.57,-1465.82,-1608.76
11370,-3.8728,1.7109,0.4340,1179.93,690.73,875.73
11380,-3.8723,1.6907,0.4692,-991.94,-449.83,1157.04
11390,-3.8717,1.6615,0.4695,414.31,65.80,313.42
11400,-3.8711,1.6754,0.4485,679.93,96.98,-1514.71
11410,-3.8704,1.7426,0.4281,-1538.82,1409.48,94.60
11420,-3.8699,1.8312,0.4215,-945.07,-1199.77,1360.17
11430,-3.8695,1.9080,0.4121,-1601.32,1956.67,422.67
11440,-3.8694,1.9556,0.3578,226.81,753.72,1969.54
11450,-3.8693,1.9576,0.2572,-1679.44,1800.66,1375.67
11460,-3.8691,1.8767,0.1624,-1413.82,925.66,-1827.64
11470,-3.8690,1.6965,0.0950,226.81,784.91,-452.82
11480,-3.8689,1.4635,0.0376,1164.31,159.55,484.56
11490,-3.8691,1.2432,-0.0197,-663.82,815.31,1500.06
11500,-3.8696,1.0791,-0.0786,-866.94,1486.76,-234.44
11510,-3.8701,0.9850,-0.1414,-1866.94,1939.58,-1500.18
11520,-3.8706,0.9425,-0.2086,-1913.82,1908.14,702.82
11530,-3.8711,0.9114,-0.2778,648.68,1298.71,343.32
11540,-3.8716,0.8545,-0.3459,664.31,439.27,-1359.92
11550,-3.8719,0.7540,-0.4095,1383.06,-279.60,-156.98
11560,-3.8722,0.6195,-0.4738,523.68,-420.41,-922.73
11570,-3.8723,0.4734,-0.5442,-695.07,-639.47,499.02
11580,-3.8724,0.3230,-0.6097,601.81,-1655.33,1452.03
11590,-3.8724,0.1636,-0.6598,1351.81,1953.74,1826.90
11600,-3.8724,-0.0059,-0.6847,945.56,-452.82,-329.47
11610,-3.8723,-0.1774,-0.6830,-741.94,374.94,1529.91
11620,-3.8723,-0.3317,-0.6716,1304.93,593.38,-970.09
11630,-3.8722,-0.4482,-0.6630,1554.93,-1953.80,248.66
11640,-3.8722,-0.5209,-0.6571,-1366.94,-844.67,-1782.59
11650,-3.8721,-0.5576,-0.6534,1336.18,-94.79,1889.28
11660,-3.8719,-0.5768,-0.6511,633.06,373.90,-907.53
11670,-3.8717,-0.5864,-0.6567,-1820.07,670.72,1358.09
11680,-3.8715,-0.5892,-0.6826,945.56,-48.03,186.16
11690,-3.8713,-0.5975,-0.7283,586.18,639.47,-1063.84
11700,-3.8711,-0.6292,-0.7791,-476.32,-1204.35,1623.54
11710,-3.8708,-0.6970,-0.8158,-523.19,295.59,623.47
11720,-3.8707,-0.7987,-0.8300,-1210.69,-407.65,-361.02
11730,-3.8705,-0.9175,-0.8265,1773.68,1779.66,1888.98
11740,-3.8704,-1.0264,-0.8079,-1429.44,-1783.08,-1157.90
11750,-3.8702,-1.1029,-0.7734,633.06,607.36,1623.41
11760,-3.8702,-1.1333,-0.7349,-1163.82,1013.43,1170.35
11770,-3.8704,-1.1121,-0.7036,-1054.44,1950.87,1389.16
11780,-3.8706,-1.0577,-0.6680,1664.31,1950.93,-517.03
11790,-3.8707,-0.9974,-0.6219,617.43,-1486.45,1092.41
11800,-3.8710,-0.9413,-0.5840,336.18,404.30,-1219.97
11810,-3.8711,-0.8945,-0.5562,-476.32,1263.73,811.34
11820,-3.8712,-0.8636,-0.5229,1508.06,826.35,45.78
11830,-3.8713,-0.8452,-0.4867,1461.18,1076.42,748.96
11840,-3.8715,-0.8291,-0.4567,-179.44,1717.04,1920.90
11850,-3.8716,-0.8098,-0.4281,1883.06,1560.85,-1329.04
11860,-3.8717,-0.7839,-0.3942,351.81,1217.16,-922.73
11870,-3.8718,-0.7494,-0.3597,-335.69,1560.91,-750.79
11880,-3.8719,-0.7054,-0.3306,86.18,1967.29,-1016.36
11890,-3.8721,-0.6545,-0.3043,1711.18,1701.72,-1750.67
11900,-3.8722,-0.6023,-0.2771,226.81,1061.22,1577.51
11910,-3.8723,-0.5547,-0.2471,-1085.69,545.65,1155.70
11920,-3.8724,-0.5154,-0.2125,1008.06,389.53,483.89
11930,-3.8727,-0.4805,-0.1754,-1960.69,811.46,-953.55
11940,-3.8728,-0.4391,-0.1382,-1491.94,1561.52,1124.63
11950,-3.8730,-0.3799,-0.1007,-195.07,-1672.79,-390.93
11960,-3.8732,-0.3011,-0.0603,-616.94,-875.79,-1500.24
11970,-3.8733,-0.2039,-0.0166,1461.18,296.26,1187.38
11980,-3.8735,-0.0834,0.0303,1914.31,1890.20,-468.81
11990,-3.8737,0.0626,0.0825,1336.18,-109.56,-1390.62
12000,-3.8738,0.2324,0.1338,23.68,-1437.38,-1015.50
12010,-3.8738,0.4288,0.1672,1758.06,1125.43,31.49
12020,-3.8739,0.6597,0.1887,-1101.32,1407.04,1250.31
12030,-3.8740,0.8994,0.2213,445.56,157.53,-1671.51
12040,-3.8740,1.1112,0.2633,-866.94,329.83,359.80
12050,-3.8740,1.2859,0.2949,-1757.57,1705.26,1703.61
12060,-3.8739,1.4292,0.3026,601.81,1752.50,-749.45
12070,-3.8735,1.5438,0.2957,-1054.44,-1262.88,953.67
12080,-3.8732,1.6188,0.2916,1617.43,1846.74,-1343.20
12090,-3.8727,1.6558,0.2810,-788.82,1331.24,-702.58
12100,-3.8721,1.6637,0.2498,-54.44,-28.08,1578.61
12110,-3.8715,1.6537,0.1967,961.18,-28.02,1187.93
12120,-3.8708,1.6572,0.1091,-320.07,1175.05,1625.37
12130,-3.8702,1.6876,0.0103,133.06,1971.98,-921.69
12140,-3.8695,1.7059,-0.0592,23.68,1315.80,1265.62
12150,-3.8689,1.6866,-0.1044,-1632.57,425.17,718.63
12160,-3.8685,1.6467,-0.1464,-101.32,-1356.14,1546.63
12170,-3.8684,1.6035,-0.1989,-1210.69,1268.80,-594.06
12180,-3.8683,1.5508,-0.2552,1258.06,-1450.01,1358.95
12190,-3.8683,1.4698,-0.3015,-1491.94,-668.88,249.45
12200,-3.8685,1.3575,-0.3430,148.68,1409.12,1593.14
12210,-3.8689,1.2378,-0.3906,1773.68,96.37,639.95
12220,-3.8694,1.1371,-0.4426,-1554.44,-1997.62,686.71
12230,-3.8699,1.0590,-0.4901,1554.93,-654.05,1202.21
12240,-3.8704,0.9825,-0.5332,-445.07,1267.64,-469.73
12250,-3.8706,0.8799,-0.5743,1773.68,-248.11,139.53
12260,-3.8710,0.7412,-0.6123,633.06,-1513.92,1873.84
12270,-3.8713,0.5787,-0.6444,-1116.94,1626.40,-891.85
12280,-3.8716,0.4283,-0.6801,-1913.82,1516.72,514.34
12290,-3.8718,0.3060,-0.7289,-1163.82,953.92,733.03
12300,-3.8719,0.1846,-0.7761,-820.07,-1296.33,1311.04
12310,-3.8719,0.0450,-0.7992,-366.94,656.56,1045.35
12320,-3.8719,-0.1031,-0.7996,1773.68,1703.19,-1564.09
12330,-3.8718,-0.2377,-0.8005,-1195.07,1671.63,1185.91
12340,-3.8717,-0.3418,-0.8176,1586.18,1546.39,1389.04
12350,-3.8716,-0.4211,-0.8386,258.06,-641.30,-626.65
12360,-3.8713,-0.4884,-0.8424,-1898.19,671.02,-1251.65
12370,-3.8711,-0.5487,-0.8190,1492.43,186.52,1888.98
12380,-3.8710,-0.6035,-0.7792,1773.68,-813.60,-704.77
12390,-3.8708,-0.6443,-0.7352,-1241.94,280.03,-1439.03
12400,-3.8707,-0.6697,-0.6935,1539.31,1904.97,45.41
12410,-3.8707,-0.6954,-0.6621,-1710.69,-751.34,107.97
12420,-3.8708,-0.7340,-0.6348,-1007.57,-735.78,-798.22
12430,-3.8708,-0.7861,-0.6057,-1945.07,-1235.84,1326.84
12440,-3.8710,-0.8417,-0.5760,-616.94,-1517.21,-1954.35
12450,-3.8711,-0.8888,-0.5448,273.68,-1720.40,1826.97
12460,-3.8712,-0.9176,-0.5115,-1757.57,-1720.52,1702.03
12470,-3.8713,-0.9208,-0.4778,-1445.07,-1454.96,1983.34
12480,-3.8715,-0.9004,-0.4438,-1851.32,-1142.46,-1407.23
12490,-3.8716,-0.8649,-0.4114,758.06,-798.65,-79.04
12500,-3.8716,-0.8228,-0.3823,1304.93,-642.33,1874.15
12510,-3.8717,-0.7815,-0.3568,-1304.44,-923.52,-141.42
12520,-3.8717,-0.7407,-0.3375,-23.19,-1657.84,1624.27
12530,-3.8718,-0.7006,-0.3192,1195.56,811.04,-813.17
12540,-3.8718,-0.6652,-0.2906,-1663.82,-845.15,374.33
12550,-3.8719,-0.6344,-0.2554,-1132.57,-1188.84,827.51
12560,-3.8721,-0.6012,-0.2274,-1195.07,-673.16,733.83
12570,-3.8722,-0.5537,-0.2076,-945.07,-1094.97,921.39
12580,-3.8723,-0.4897,-0.1862,1133.06,1436.40,1796.45
12590,-3.8724,-0.4178,-0.1571,1320.56,186.52,-1219.12
12600,-3.8726,-0.3394,-0.1252,-1476.32,-94.60,-922.24
12610,-3.8727,-0.2426,-0.0997,570.56,-16.30,-1703.43
12620,-3.8728,-0.1184,-0.0796,961.18,-750.49,1202.88
12630,-3.8729,0.0406,-0.0593,851.81,1827.88,1093.57
12640,-3.8730,0.2460,-0.0520,1211.18,406.31,-1984.50
12650,-3.8732,0.5162,-0.0851,-507.57,1344.18,-500.12
12660,-3.8732,0.8657,-0.1434,-1913.82,1110.35,1640.44
12670,-3.8732,1.2715,-0.1675,-1179.44,1642.27,1484.07
12680,-3.8730,1.6565,-0.1240,-1241.94,-1435.06,-1672.24
12690,-3.8727,1.9165,-0.0450,39.31,128.23,-578.37
12700,-3.8721,2.0017,0.0094,1320.56,-1761.90,-203.25
12710,-3.8713,1.9425,0.0078,226.81,1207.03,-671.88
12720,-3.8705,1.8021,-0.0281,648.68,1003.78,62.50
12730,-3.8698,1.6570,-0.0520,-1320.07,409.73,-1468.81
12740,-3.8689,1.5585,-0.0543,101.81,1346.98,93.63
12750,-3.8683,1.5179,-0.0551,-507.57,1049.87,1281.13
12760,-3.8678,1.5209,-0.0559,-1695.07,956.05,515.50
12770,-3.8677,1.5270,-0.0532,-1320.07,846.68,-297.00
12780,-3.8677,1.5117,-0.0605,-538.82,1190.43,1437.38
12790,-3.8680,1.4630,-0.0787,1508.06,252.93,-468.87
12800,-3.8685,1.3616,-0.0890,-726.32,1924.68,-250.18
12810,-3.8691,1.2107,-0.0900,-1710.69,612.00,-968.93
12820,-3.8699,1.0483,-0.1031,-1023.19,486.69,-265.81
12830,-3.8705,0.9125,-0.1453,-1804.44,-1201.11,1015.38
12840,-3.8711,0.8074,-0.2090,804.93,1408.02,-1890.93
12850,-3.8715,0.7122,-0.2791,-648.19,1251.53,155.82
12860,-3.8718,0.6123,-0.3503,-835.69,282.59,1593.20
12870,-3.8721,0.5026,-0.4192,-1616.94,-842.59,1061.77
12880,-3.8723,0.3834,-0.4840,336.18,-1655.27,-1313.35
12890,-3.8724,0.2673,-0.5502,1086.18,-1952.39,-1219.73
12900,-3.8724,0.1530,-0.6244,-1773.19,1578.61,1202.03
12910,-3.8724,0.0232,-0.7008,-413.82,78.37,1592.53
12920,-3.8724,-0.1323,-0.7681,-1023.19,-1703.12,-438.90
12930,-3.8723,-0.3081,-0.8153,-929.44,1702.82,-1095.28
12940,-3.8722,-0.4912,-0.8354,570.56,-344.36,-579.77
12950,-3.8719,-0.6696,-0.8308,1133.06,1077.15,1170.23
12960,-3.8717,-0.8252,-0.8181,-1695.07,1670.53,420.23
12970,-3.8715,-0.9364,-0.8242,-1616.94,-704.77,1357.73
12980,-3.8712,-0.9974,-0.8557,148.68,-1486.21,-939.15
12990,-3.8708,-1.0238,-0.8911,336.18,-1517.58,795.17
13000,-3.8706,-1.0302,-0.9043,961.18,1951.11,-1486.15
13010,-3.8704,-1.0250,-0.8855,148.68,263.61,-1048.65
13020,-3.8701,-1.0177,-0.8451,804.93,-1330.14,295.10
13030,-3.8701,-1.0137,-0.8020,1742.43,-158.26,1623.29
13040,-3.8702,-1.0177,-0.7617,-1741.94,1357.36,-892.21
13050,-3.8704,-1.0325,-0.7129,1742.43,-1486.39,1654.72
13060,-3.8706,-1.0530,-0.6497,-148.19,763.55,-1657.65
13070,-3.8708,-1.0615,-0.5826,1226.81,857.30,-1938.78
13080,-3.8711,-1.0404,-0.5197,133.06,1435.42,1201.97
13090,-3.8713,-0.9918,-0.4556,-1163.82,1497.92,311.46
13100,-3.8716,-0.9282,-0.3903,1054.93,1701.17,374.08
13110,-3.8718,-0.8568,-0.3354,1195.56,-1939.33,1905.46
13120,-3.8719,-0.7852,-0.2924,-1663.82,1076.42,93.08
13130,-3.8722,-0.7227,-0.2539,-491.94,-1407.84,-1563.11
13140,-3.8723,-0.6724,-0.2195,-491.94,-485.84,1030.70
13150,-3.8726,-0.6282,-0.1876,1945.56,-79.47,-62.99
13160,-3.8727,-0.5800,-0.1559,-398.19,-1.28,-531.68
13170,-3.8728,-0.5210,-0.1299,1773.68,61.34,-437.81
13180,-3.8729,-0.4485,-0.1200,1320.56,-610.41,-453.43
13190,-3.8730,-0.3627,-0.1228,-1398.19,655.33,-375.24
13200,-3.8730,-0.2661,-0.1254,1586.18,296.14,906.01
13210,-3.8732,-0.1591,-0.1271,1945.56,-31.80,-859.68
13220,-3.8732,-0.0310,-0.1287,-351.32,-250.37,1124.69
13230,-3.8733,0.1393,-0.1317,39.31,-453.19,-1203.43
13240,-3.8733,0.3706,-0.1517,1836.18,-859.13,609.07
13250,-3.8734,0.6798,-0.1984,-554.44,578.80,-1531.56
13260,-3.8734,1.0667,-0.2467,-976.32,-1389.34,1546.45
13270,-3.8733,1.4850,-0.2609,539.31,423.95,1812.01
13280,-3.8729,1.8340,-0.2346,-1913.82,-1387.76,-906.80
13290,-3.8722,2.0259,-0.1716,-1241.94,1972.29,593.26
13300,-3.8715,2.0507,-0.1145,-679.44,-1964.84,1890.26
13310,-3.8706,1.9680,-0.1183,-1507.57,1347.72,281.01
13320,-3.8698,1.8722,-0.1726,-85.69,863.16,749.76
13330,-3.8689,1.8011,-0.2202,-351.32,1909.85,1640.26
13340,-3.8682,1.7407,-0.2365,-1445.07,-184.02,-1234.86
13350,-3.8676,1.6917,-0.2477,-1179.44,1737.73,1780.76
13360,-3.8672,1.6506,-0.2673,539.31,300.17,1562.01
13370,-3.8671,1.6047,-0.2915,-710.69,1784.42,-1922.42
13380,-3.8672,1.5574,-0.3185,1414.31,-1309.39,-1016.24
13390,-3.8674,1.5077,-0.3389,-648.19,-762.63,108.70
13400,-3.8680,1.4324,-0.3469,992.43,627.93,1921.20
13410,-3.8688,1.3198,-0.3578,-648.19,-403.50,-1735.11
13420,-3.8695,1.1782,-0.3903,945.56,-1794.31,405.52
13430,-3.8704,1.0149,-0.4501,-1179.44,-1950.87,-719.54
13440,-3.8710,0.8485,-0.5304,1914.31,-1607.42,999.08
13450,-3.8716,0.7025,-0.6250,617.43,111.02,-1157.29
13460,-3.8719,0.5765,-0.7261,1929.93,1.34,873.78
13470,-3.8723,0.4586,-0.8215,1804.93,-936.40,-1220.21
13480,-3.8724,0.3381,-0.9052,-1288.82,-1155.40,185.85
13490,-3.8726,0.2095,-0.9762,-710.69,141.24,904.48
13500,-3.8726,0.0692,-1.0251,-1179.44,-952.76,669.92
13510,-3.8726,-0.0875,-1.0382,867.43,781.37,-1189.51
13520,-3.8724,-0.2574,-1.0170,804.93,-875.18,-1595.83
13530,-3.8723,-0.4357,-0.9749,-945.07,1843.20,-845.76
13540,-3.8721,-0.6123,-0.9203,242.43,-766.48,1044.92
13550,-3.8719,-0.7625,-0.8589,1633.06,-1782.47,-626.83
13560,-3.8717,-0.8688,-0.8027,-1585.69,-1923.40,1592.04
13570,-3.8716,-0.9333,-0.7611,804.93,1263.92,-470.34
13580,-3.8713,-0.9702,-0.7327,539.31,-1408.08,279.72
13590,-3.8713,-0.9901,-0.7133,-179.44,-1767.58,-1345.21
13600,-3.8713,-0.9930,-0.7000,1273.68,716.80,-1407.65
13610,-3.8713,-0.9912,-0.6842,898.68,-1580.08,1373.60
13620,-3.8713,-1.0046,-0.6547,1133.06,435.55,45.53
13630,-3.8715,-1.0356,-0.6157,-585.69,216.74,-1282.53
13640,-3.8715,-1.0741,-0.5808,-554.44,1201.05,1326.90
13650,-3.8716,-1.1144,-0.5488,-1476.32,1669.74,-282.41
13660,-3.8716,-1.1528,-0.5104,1367.43,1763.43,1686.40
13670,-3.8717,-1.1777,-0.4624,445.56,-1314.76,-657.29
13680,-3.8717,-1.1788,-0.4104,1258.06,825.81,905.33
13690,-3.8718,-1.1587,-0.3600,1117.43,-517.94,-1719.60
13700,-3.8719,-1.1211,-0.3196,-304.44,1935.18,-438.23
13710,-3.8719,-1.0691,-0.2910,508.06,-892.82,921.20
13720,-3.8721,-1.0160,-0.2687,-835.69,-1236.51,-1250.61
13730,-3.8721,-0.9727,-0.2594,1961.18,1622.99,1405.70
13740,-3.8721,-0.9403,-0.2572,-491.94,-1189.45,765.08
13750,-3.8721,-0.9156,-0.2462,-351.32,-908.14,468.20
13760,-3.8722,-0.8855,-0.2300,-1195.07,498.17,-391.11
13770,-3.8722,-0.8370,-0.2184,-1335.69,-1423.65,1202.64
13780,-3.8723,-0.7727,-0.2068,867.43,60.85,1593.32
13790,-3.8724,-0.7026,-0.1897,1101.81,1545.35,1765.20
13800,-3.8726,-0.6322,-0.1735,-1929.44,-267.03,-1781.68
13810,-3.8727,-0.5636,-0.1550,-913.82,1811.22,-937.87
13820,-3.8727,-0.4948,-0.1250,-132.57,170.72,30.94
13830,-3.8728,-0.4144,-0.0950,679.93,14.65,687.26
13840,-3.8729,-0.3109,-0.0864,-1038.82,-141.48,984.13
13850,-3.8730,-0.1859,-0.0940,211.18,952.51,1624.82
13860,-3.8732,-0.0509,-0.0961,211.18,-15.99,-968.99
13870,-3.8732,0.0996,-0.0935,1492.43,-281.37,1484.13
13880,-3.8732,0.3020,-0.1118,758.06,31.43,906.07
13890,-3.8732,0.5890,-0.1534,-1335.69,1688.05,1093.51
13900,-3.8732,0.9583,-0.1722,-601.32,360.47,-765.93
13910,-3.8729,1.3320,-0.1398,-1335.69,1954.96,1624.63
13920,-3.8726,1.6052,-0.0724,-1491.94,-1888.06,921.57
13930,-3.8722,1.7349,-0.0048,1476.81,-1262.51,-531.43
13940,-3.8717,1.7437,0.0356,-1929.44,-606.02,-140.69
13950,-3.8711,1.6896,0.0493,-804.44,565.86,-1937.44
13960,-3.8705,1.6200,0.0455,273.68,-1684.20,-453.06
13970,-3.8698,1.5525,0.0386,-632.57,1831.24,-906.19
13980,-3.8690,1.4978,0.0339,-1273.19,940.49,171.94
13990,-3.8687,1.4691,0.0162,-273.19,346.62,-781.19
14000,-3.8684,1.4668,-0.0243,54.93,-1919.01,-671.88
14010,-3.8683,1.4757,-0.0709,-241.94,893.43,-1437.56
14020,-3.8683,1.4640,-0.1017,898.68,-1075.26,-375.18
14030,-3.8683,1.4037,-0.1235,-601.32,-1012.82,-1468.99
14040,-3.8684,1.2899,-0.1490,-320.07,190.19,968.51
14050,-3.8688,1.1361,-0.1763,1117.43,924.38,1937.19
14060,-3.8693,0.9697,-0.2003,1429.93,1439.70,-1828.49
14070,-3.8699,0.8180,-0.2196,133.06,-1638.73,-516.05
14080,-3.8704,0.6997,-0.2415,711.18,-107.79,499.51
14090,-3.8710,0.6162,-0.2754,1570.56,1095.09,-422.36
14100,-3.8713,0.5502,-0.3217,-1116.94,751.16,1624.45
14110,-3.8717,0.4905,-0.3785,-1570.07,-1170.84,-1235.05
14120,-3.8719,0.4263,-0.4470,-1210.69,-452.21,-782.04
14130,-3.8721,0.3479,-0.5295,-1429.44,-1217.96,-1157.17
14140,-3.8721,0.2494,-0.6167,539.31,219.42,1233.34
14150,-3.8721,0.1219,-0.6921,-70.07,1062.93,-1891.85
14160,-3.8719,-0.0271,-0.7487,-382.57,-593.57,967.35
14170,-3.8718,-0.1786,-0.7841,539.31,187.44,1232.91
14180,-3.8717,-0.3206,-0.7976,1148.68,-344.12,-1548.46
14190,-3.8715,-0.4478,-0.7944,-1023.19,1921.20,123.41
14200,-3.8713,-0.5553,-0.7780,-1304.44,-1672.79,1654.66
14210,-3.8712,-0.6364,-0.7542,929.93,436.40,-1423.40
14220,-3.8711,-0.6879,-0.7355,-1445.07,-516.91,-1189.03
14230,-3.8710,-0.7195,-0.7189,-38.82,1873.60,-1751.46
14240,-3.8708,-0.7450,-0.6899,-85.69,-1.46,592.29
14250,-3.8708,-0.7694,-0.6470,648.68,-298.34,1436.10
14260,-3.8708,-0.7830,-0.6049,1523.68,1201.60,686.22
14270,-3.8710,-0.7793,-0.5710,-210.69,-1407.84,-1454.35
14280,-3.8711,-0.7688,-0.5387,258.06,-1079.65,-485.53
14290,-3.8711,-0.7653,-0.5018,1601.81,-939.03,92.65
14300,-3.8712,-0.7736,-0.4629,-1945.07,-220.28,561.46
14310,-3.8713,-0.7904,-0.4257,992.43,764.10,1139.71
14320,-3.8715,-0.8107,-0.3870,-1163.82,1529.66,-1953.98
14330,-3.8716,-0.8331,-0.3446,242.43,-1517.21,-969.54
14340,-3.8717,-0.8540,-0.3040,1367.43,-95.40,-0.73
14350,-3.8717,-0.8654,-0.2688,-1304.44,1107.67,1593.14
14360,-3.8718,-0.8673,-0.2365,1242.43,1607.67,-78.67
14370,-3.8718,-0.8665,-0.2051,992.43,1748.29,-1578.61
14380,-3.8718,-0.8661,-0.1766,1101.81,1763.92,749.57
14390,-3.8719,-0.8641,-0.1576,1148.68,1404.54,-1062.87
14400,-3.8719,-0.8578,-0.1504,1398.68,-157.96,1343.38
14410,-3.8721,-0.8461,-0.1458,-1788.82,763.92,-47.18
14420,-3.8721,-0.8282,-0.1355,-288.82,1357.67,-1515.93
14430,-3.8721,-0.8030,-0.1205,1992.43,-1329.77,765.32
14440,-3.8722,-0.7657,-0.1018,1226.81,592.16,-1906.49
14450,-3.8723,-0.7163,-0.0824,1992.43,-1017.15,-1422.12
14460,-3.8724,-0.6614,-0.0613,320.56,1467.35,-1172.06
14470,-3.8726,-0.6078,-0.0352,-648.19,170.53,-1234.50
14480,-3.8727,-0.5585,-0.0049,-1788.82,-485.60,-1672.00
14490,-3.8728,-0.5078,0.0232,523.68,-610.47,-1796.94
14500,-3.8729,-0.4492,0.0428,-991.94,-1016.66,-1250.00
14510,-3.8730,-0.3813,0.0521,-1491.94,1499.08,-124.94
14520,-3.8730,-0.3051,0.0521,-804.44,-1313.29,-1999.94
14530,-3.8730,-0.2214,0.0535,961.18,-1313.11,1218.81
14540,-3.8730,-0.1234,0.0587,-335.69,-1141.11,390.69
14550,-3.8732,0.0142,0.0500,211.18,-468.99,-1390.56
14560,-3.8732,0.2140,0.0184,1820.56,-1593.75,515.69
14570,-3.8732,0.4690,-0.0316,-601.32,-1640.26,265.62
14580,-3.8732,0.7682,-0.0906,39.31,-45.96,-15.75
14590,-3.8728,1.0806,-0.1263,-1663.82,407.71,359.19
14600,-3.8724,1.3373,-0.1016,-1679.44,-169.80,1562.19
14610,-3.8719,1.4850,-0.0355,-820.07,-997.44,-1984.62
14620,-3.8715,1.5249,0.0005,-1913.82,-544.01,-109.50
14630,-3.8708,1.4900,-0.0165,-804.44,65.43,-1203.12
14640,-3.8702,1.4141,-0.0566,-1273.19,1893.49,-1406.31
14650,-3.8696,1.3342,-0.0945,1008.06,752.75,-843.87
14660,-3.8690,1.2657,-0.1194,-1210.69,-91.19,-781.49
14670,-3.8684,1.1991,-0.1368,-1976.32,721.19,218.51
14680,-3.8680,1.1268,-0.1616,1492.43,-1513.31,15.32
14690,-3.8679,1.0529,-0.1993,242.43,-685.30,937.13
14700,-3.8680,0.9832,-0.2344,-1226.32,-1513.61,-812.93
14710,-3.8682,0.9158,-0.2618,1851.81,-1998.11,655.76
14720,-3.8685,0.8436,-0.2952,1226.81,-1513.85,-1594.30
14730,-3.8689,0.7677,-0.3433,-7.57,-1779.66,1608.76
14740,-3.8693,0.6836,-0.4034,-1726.32,63.96,202.45
14750,-3.8698,0.5771,-0.4636,-491.94,360.66,-1000.79
14760,-3.8701,0.4552,-0.5203,1883.06,657.35,-1688.42
14770,-3.8705,0.3362,-0.5690,-1726.32,1407.10,-782.29
14780,-3.8707,0.2363,-0.5955,-960.69,-827.51,-1313.66
14790,-3.8708,0.1628,-0.5979,-1741.94,-218.32,936.28
14800,-3.8710,0.1107,-0.5872,851.81,-530.94,1076.90
14810,-3.8711,0.0782,-0.5739,-1820.07,843.93,-1782.41
14820,-3.8711,0.0564,-0.5564,-1976.32,-1453.00,873.84
14830,-3.8711,0.0211,-0.5326,-773.19,781.31,1030.15
14840,-3.8711,-0.0403,-0.5134,-1288.82,-171.88,952.03
14850,-3.8712,-0.1216,-0.5032,-1148.19,-1703.25,-594.79
14860,-3.8712,-0.2157,-0.4952,445.56,-390.87,702.09
14870,-3.8713,-0.3174,-0.4866,398.68,624.57,1905.27
14880,-3.8715,-0.4237,-0.4789,-616.94,1733.70,-141.60
14890,-3.8715,-0.5317,-0.4707,1773.68,-1282.10,-1344.73
14900,-3.8715,-0.6377,-0.4526,-54.44,-235.47,1967.77
14910,-3.8715,-0.7344,-0.4164,-1616.94,-1923.16,1186.58
14920,-3.8716,-0.8090,-0.3727,-1991.94,-1282.71,-344.60
14930,-3.8716,-0.8533,-0.3385,461.18,310.91,1264.89
14940,-3.8717,-0.8689,-0.3230,-1210.69,685.79,-1360.05
14950,-3.8717,-0.8632,-0.3230,789.31,-1329.83,733.70
14960,-3.8717,-0.8496,-0.3241,1523.68,-1329.83,186.83
14970,-3.8717,-0.8413,-0.3146,-741.94,-1470.46,827.45
14980,-3.8717,-0.8433,-0.2969,320.56,-251.65,1999.33
14990,-3.8717,-0.8544,-0.2805,70.56,-1986.02,-953.74
15000,-3.8717,-0.8655,-0.2664,-1351.32,107.67,-219.30
15010,-3.8716,-0.8682,-0.2544,1226.81,1920.17,327.58
15020,-3.8716,-0.8575,-0.2499,883.06,-548.58,1140.08
15030,-3.8716,-0.8348,-0.2474,-1757.57,29.54,-1219.24
15040,-3.8715,-0.8093,-0.2316,1148.68,342.10,733.89
15050,-3.8715,-0.7865,-0.2008,414.31,-1626.59,-1844.24
15060,-3.8715,-0.7642,-0.1702,-663.82,-1689.09,-1625.43
15070,-3.8715,-0.7360,-0.1461,-1804.44,-1767.15,937.13
15080,-3.8716,-0.6963,-0.1240,1804.93,1311.04,-1922.18
15090,-3.8717,-0.6467,-0.0991,-1116.94,139.22,-1656.49
15100,-3.8718,-0.5940,-0.0695,1226.81,-673.16,1687.26
15110,-3.8719,-0.5430,-0.0371,-23.19,-876.22,93.57
15120,-3.8722,-0.4896,-0.0034,-1491.94,-735.47,-1640.75
15130,-3.8723,-0.4237,0.0231,1336.18,-422.85,1124.94
15140,-3.8724,-0.3396,0.0312,1773.68,-1032.10,609.38
15150,-3.8726,-0.2372,0.0245,539.31,14.95,562.56
15160,-3.8727,-0.1111,0.0116,1648.68,-844.24,796.88
15170,-3.8728,0.0491,-0.0161,1789.31,1499.76,1687.50
15180,-3.8728,0.2535,-0.0735,-1710.69,1937.56,359.31
15190,-3.8728,0.5304,-0.1599,461.18,-1405.76,-1656.43
15200,-3.8726,0.8801,-0.2266,-101.32,-467.77,1765.26
15210,-3.8721,1.2305,-0.2168,664.31,-998.29,280.76
15220,-3.8715,1.4971,-0.1550,1508.06,252.38,390.20
15230,-3.8708,1.6472,-0.1145,-366.94,159.12,-1672.18
15240,-3.8702,1.6969,-0.1244,-1148.19,1346.92,1781.01
15250,-3.8698,1.6517,-0.1443,1211.18,81.42,952.88
15260,-3.8694,1.5266,-0.1425,-570.07,1534.42,1655.94
15270,-3.8690,1.3848,-0.1246,-585.69,1768.55,1921.57
15280,-3.8687,1.2683,-0.1031,1258.06,49.56,1624.76
15290,-3.8684,1.1792,-0.0868,-1648.19,-1200.68,-1922.12
15300,-3.8683,1.1157,-0.0769,-1054.44,892.88,624.82
15310,-3.8684,1.0693,-0.0706,-1179.44,-1841.61,890.44
15320,-3.8688,1.0215,-0.0719,883.06,-1029.17,-15.81
15330,-3.8691,0.9542,-0.0900,-1241.94,-1201.17,-515.81
15340,-3.8695,0.8623,-0.1230,-1851.32,486.21,874.82
15350,-3.8700,0.7510,-0.1625,-1616.94,251.65,1343.51
15360,-3.8705,0.6292,-0.2094,133.06,-795.41,-1594.12
15370,-3.8708,0.5060,-0.2682,539.31,1204.35,1452.70
15380,-3.8712,0.3903,-0.3373,773.68,1672.85,-813.05
15390,-3.8713,0.2931,-0.4084,1961.18,828.86,14.95
15400,-3.8716,0.2053,-0.4740,1523.68,-280.70,-47.73
15410,-3.8716,0.1141,-0.5323,-1710.69,-671.51,-1875.98
15420,-3.8716,0.0238,-0.5823,-1382.57,-140.44,1389.53
15430,-3.8716,-0.0681,-0.6127,-945.07,1468.75,-1938.66
15440,-3.8715,-0.1661,-0.6174,-710.69,1593.57,530.03
15450,-3.8715,-0.2695,-0.6094,-1257.57,984.01,-126.22
15460,-3.8713,-0.3778,-0.5963,1508.06,-1984.92,-391.85
15470,-3.8712,-0.4955,-0.5776,-351.32,-313.29,-16.85
15480,-3.8710,-0.6191,-0.5558,586.18,-1922.85,295.72
15490,-3.8710,-0.7325,-0.5352,758.06,873.78,-829.22
15500,-3.8708,-0.8269,-0.5190,-1757.57,-485.84,202.03
15510,-3.8710,-0.8976,-0.5067,-1835.69,1576.48,-391.66
15520,-3.8710,-0.9402,-0.4869,1117.43,-845.52,1827.09
15530,-3.8711,-0.9587,-0.4539,-335.69,1685.61,-985.35
15540,-3.8712,-0.9552,-0.4144,1289.31,1919.98,-766.54
15550,-3.8713,-0.9310,-0.3721,1742.43,-1033.14,-1016.48
15560,-3.8715,-0.8976,-0.3318,836.18,388.79,-1281.98
15570,-3.8716,-0.8650,-0.2979,1117.43,1545.10,-1000.67
15580,-3.8716,-0.8416,-0.2635,1289.31,1888.92,93.14
15590,-3.8717,-0.8313,-0.2263,289.31,-1720.40,1421.33
15600,-3.8718,-0.8268,-0.1857,1601.81,-954.77,-1234.86
15610,-3.8718,-0.8192,-0.1394,-1820.07,248.35,984.01
15620,-3.8718,-0.8083,-0.0923,-851.32,-1829.77,437.19
15630,-3.8718,-0.7941,-0.0531,539.31,201.54,187.32
15640,-3.8719,-0.7747,-0.0306,-1632.57,1217.16,-672.00
15650,-3.8719,-0.7506,-0.0199,851.81,92.22,1390.56
15660,-3.8721,-0.7246,-0.0088,-70.07,1467.22,-1078.19
15670,-3.8721,-0.6981,0.0017,-741.94,-1110.84,546.81
15680,-3.8722,-0.6720,0.0115,-1351.32,232.97,1937.50
15690,-3.8723,-0.6404,0.0187,1992.43,1483.03,-828.12
15700,-3.8723,-0.5970,0.0205,-1960.69,-1595.03,453.12
15710,-3.8724,-0.5464,0.0258,-413.82,-1360.60,1500.00
15720,-3.8726,-0.4872,0.0365,-1929.44,-688.60,-1546.88
15730,-3.8727,-0.4133,0.0408,1648.68,686.52,-453.06
15740,-3.8727,-0.3276,0.0350,-898.19,1233.52,671.94
15750,-3.8728,-0.2344,0.0197,-1929.44,499.33,1781.31
15760,-3.8729,-0.1295,-0.0171,-1991.94,-1469.24,-656.25
15770,-3.8729,-0.0028,-0.0840,-570.07,1827.82,-1828.19
15780,-3.8729,0.1646,-0.1809,-351.32,1265.56,-656.43
15790,-3.8728,0.4033,-0.3016,1070.56,844.06,-0.37
15800,-3.8724,0.7490,-0.4001,-366.94,1391.36,733.76
15810,-3.8721,1.1715,-0.4116,-116.94,782.65,-1657.04
15820,-3.8715,1.5331,-0.3340,1961.18,-685.24,921.02
15830,-3.8708,1.7141,-0.2437,242.43,1252.99,-1360.05
15840,-3.8701,1.7096,-0.2117,-585.69,815.80,655.76
15850,-3.8695,1.5895,-0.2260,-1163.82,909.55,1671.45
15860,-3.8689,1.4441,-0.2372,-538.82,-918.82,-1281.74
15870,-3.8683,1.3386,-0.2251,851.81,1643.43,-906.74
15880,-3.8678,1.2814,-0.2000,-648.19,-809.94,-1687.99
15890,-3.8676,1.2616,-0.1759,23.68,-1591.25,749.57
15900,-3.8677,1.2627,-0.1547,1492.43,1486.82,1765.26
15910,-3.8680,1.2543,-0.1390,1633.06,205.57,-1890.93
15920,-3.8685,1.2173,-0.1373,554.93,-1794.43,296.57
15930,-3.8691,1.1484,-0.1479,-179.44,-1575.81,421.57
15940,-3.8698,1.0577,-0.1678,-991.94,1064.70,1749.69
15950,-3.8702,0.9613,-0.1980,-601.32,-1482.36,1702.76
15960,-3.8706,0.8685,-0.2332,-945.07,-1341.92,421.45
15970,-3.8710,0.7831,-0.2701,-820.07,-1842.10,1577.64
15980,-3.8712,0.7081,-0.3097,242.43,1423.40,1421.33
15990,-3.8715,0.6458,-0.3523,-1351.32,360.72,-188.11
16000,-3.8716,0.5892,-0.4026,-1335.69,-1092.53,-47.61
16010,-3.8716,0.5146,-0.4656,-570.07,469.85,1686.71
16020,-3.8716,0.4011,-0.5291,1883.06,407.23,420.96
16030,-3.8717,0.2513,-0.5686,-648.19,281.98,-610.41
16040,-3.8717,0.0944,-0.5830,179.93,-780.76,-1485.53
16050,-3.8717,-0.0411,-0.5956,86.18,1375.18,1561.34
16060,-3.8717,-0.1587,-0.6121,-1257.57,-218.87,436.28
16070,-3.8718,-0.2853,-0.6105,-304.44,1671.51,-1219.97
16080,-3.8719,-0.4329,-0.5792,-507.57,1874.39,-579.35
16090,-3.8721,-0.5874,-0.5229,601.81,1874.15,-1688.66
16100,-3.8722,-0.7408,-0.4529,820.56,1076.97,873.96
16110,-3.8724,-0.8921,-0.3812,1179.93,-1954.59,-110.29
16120,-3.8726,-1.0267,-0.3218,1820.56,-783.02,-907.04
16130,-3.8727,-1.1221,-0.2893,586.18,-1173.89,-1110.05
16140,-3.8727,-1.1548,-0.3053,383.06,-1017.82,140.01
16150,-3.8728,-1.1246,-0.3657,195.56,935.24,-656.86
16160,-3.8727,-1.0698,-0.4152,54.93,1200.93,889.89
16170,-3.8726,-1.0258,-0.4210,-929.44,-1127.14,1217.90
16180,-3.8724,-1.0050,-0.4050,711.18,-1877.01,-985.23
16190,-3.8722,-1.0035,-0.4034,-632.57,169.86,671.08
16200,-3.8721,-1.0170,-0.4241,-445.07,372.99,-1985.17
16210,-3.8719,-1.0510,-0.4391,1836.18,1732.36,-1297.73
16220,-3.8718,-1.0997,-0.4363,1476.81,-189.58,-1438.42
16230,-3.8717,-1.1475,-0.4247,-757.57,169.68,1436.65
16240,-3.8717,-1.1821,-0.4070,1133.06,1653.99,-828.98
16250,-3.8716,-1.1969,-0.3876,695.56,-80.44,139.77
16260,-3.8716,-1.1899,-0.3727,-1195.07,-1596.13,717.96
16270,-3.8716,-1.1615,-0.3605,-304.44,310.12,608.64
16280,-3.8717,-1.1155,-0.3453,-663.82,1872.68,-875.73
16290,-3.8718,-1.0581,-0.3276,1226.81,-189.70,-219.48
16300,-3.8719,-0.9988,-0.3065,570.56,-1923.95,-531.92
16310,-3.8721,-0.9420,-0.2756,164.31,779.30,-797.49
16320,-3.8722,-0.8838,-0.2361,-570.07,732.48,-1156.80
16330,-3.8723,-0.8179,-0.1940,-1116.94,1795.10,-1906.74
16340,-3.8724,-0.7437,-0.1549,-679.44,-814.15,1233.95
16350,-3.8726,-0.6633,-0.1259,820.56,186.04,702.82
16360,-3.8727,-0.5760,-0.1097,-898.19,-95.09,765.32
16370,-3.8728,-0.4773,-0.1016,-1726.32,1967.59,1484.13
16380,-3.8729,-0.3556,-0.1017,-1085.69,-985.35,-1359.62
16390,-3.8730,-0.2037,-0.1162,-1507.57,-1000.73,-625.24
16400,-3.8732,-0.0231,-0.1426,1929.93,1140.20,-640.87
16410,-3.8733,0.2085,-0.1880,1054.93,1765.56,-1219.06
16420,-3.8734,0.5283,-0.2739,-1304.44,-62.13,-1484.80
16430,-3.8734,0.9589,-0.3761,-366.94,938.48,686.95
16440,-3.8733,1.4691,-0.4213,-1257.57,-138.79,1171.08
16450,-3.8729,1.8929,-0.3857,54.93,-1919.01,-1110.23
16460,-3.8722,2.0917,-0.3446,-1695.07,-1371.34,233.58
16470,-3.8715,2.0891,-0.3469,-257.57,-105.35,-422.61
16480,-3.8702,1.9515,-0.3794,-585.69,-402.22,483.64
16490,-3.8688,1.7549,-0.4279,1804.93,-558.72,1811.71
16500,-3.8671,1.5601,-0.4636,633.06,1237.79,-1719.60
16510,-3.8654,1.3950,-0.4708,-304.44,659.24,545.96
16520,-3.8643,1.2764,-0.4742,-1429.44,-262.94,-579.10
16530,-3.8639,1.2029,-0.4894,-616.94,-700.68,233.40
16540,-3.8647,1.1615,-0.4847,1976.81,1361.69,-375.98
16550,-3.8661,1.1278,-0.4075,679.93,1955.38,14.65
16560,-3.8678,1.0782,-0.2820,367.43,-154.05,1124.15
16570,-3.8694,1.0154,-0.1959,-1976.32,-91.67,-844.36
16580,-3.8705,0.9467,-0.1860,1976.81,-1076.17,77.70
16590,-3.8713,0.8533,-0.2379,1179.93,189.33,234.01
16600,-3.8719,0.7185,-0.3231,1226.81,1548.52,1812.01
16610,-3.8723,0.5504,-0.4200,-23.19,-1358.03,-1828.80
16620,-3.8726,0.3661,-0.5114,-1538.82,-1764.59,-1766.48
16630,-3.8727,0.1825,-0.5919,-1132.57,-1452.45,686.46
16640,-3.8728,0.0143,-0.6688,-632.57,234.68,1233.22
16650,-3.8729,-0.1237,-0.7509,1836.18,-1609.38,-595.09
16660,-3.8729,-0.2394,-0.8308,179.93,-93.99,-423.40
16670,-3.8728,-0.3672,-0.8846,1367.43,1671.39,1998.35
16680,-3.8727,-0.5168,-0.8987,1008.06,-1219.48,1560.73
16690,-3.8726,-0.6671,-0.8818,1851.81,983.34,1529.48
16700,-3.8724,-0.8059,-0.8519,-1382.57,-860.72,-1501.77
16710,-3.8722,-0.9407,-0.8104,851.81,-1032.84,1185.79
16720,-3.8719,-1.0763,-0.7615,-398.19,279.36,1935.91
16730,-3.8716,-1.1962,-0.7289,-1757.57,-1455.26,139.10
16740,-3.8713,-1.2689,-0.7283,-1101.32,-1283.63,-1704.59
16750,-3.8711,-1.2744,-0.7532,1586.18,-1205.63,-1657.71
16760,-3.8710,-1.2217,-0.7810,883.06,-393.13,-1282.78
16770,-3.8710,-1.1392,-0.7914,-366.94,44.43,-298.40
16780,-3.8710,-1.0566,-0.7780,-1804.44,-1283.51,-1439.09
16790,-3.8710,-0.9984,-0.7389,758.06,435.42,826.60
16800,-3.8711,-0.9680,-0.6849,211.18,1435.55,-313.96
16810,-3.8711,-0.9503,-0.6322,101.81,341.86,-1266.97
16820,-3.8711,-0.9344,-0.5800,-1632.57,-908.14,967.47
16830,-3.8712,-0.9127,-0.5237,398.68,1779.42,-1391.78
16840,-3.8712,-0.8789,-0.4680,-820.07,982.54,14.59
16850,-3.8713,-0.8425,-0.4149,-491.94,107.60,1061.58
16860,-3.8715,-0.8151,-0.3629,164.31,-1095.40,1733.52
16870,-3.8716,-0.7979,-0.3102,-320.07,1560.85,-1922.61
16880,-3.8717,-0.7852,-0.2675,1883.06,310.91,-1891.24
16890,-3.8718,-0.7715,-0.2423,-491.94,1779.66,1671.33
16900,-3.8719,-0.7543,-0.2242,1258.06,998.47,1093.26
16910,-3.8721,-0.7262,-0.2153,-538.82,-689.03,1202.64
16920,-3.8722,-0.6854,-0.2125,-945.07,451.66,-1828.55
16930,-3.8722,-0.6417,-0.1945,273.68,811.16,108.95
16940,-3.8723,-0.6003,-0.1537,1867.43,-876.28,-1078.55
16950,-3.8723,-0.5613,-0.1029,-835.69,342.53,1765.32
16960,-3.8723,-0.5239,-0.0554,164.31,-1157.35,31.01
16970,-3.8724,-0.4883,-0.0120,945.56,920.84,1796.75
16980,-3.8726,-0.4519,0.0273,1508.06,-1516.60,-1109.44
16990,-3.8727,-0.4083,0.0646,-1835.69,-485.29,-1156.25
17000,-3.8728,-0.3500,0.1036,-257.57,280.40,-1890.50
17010,-3.8729,-0.2671,0.1395,-788.82,1280.52,1578.31
17020,-3.8730,-0.1438,0.1624,1820.56,1874.45,-1874.76
17030,-3.8730,0.0312,0.1779,1601.81,796.57,844.06
17040,-3.8730,0.2439,0.2076,8.06,-1234.31,-1296.57
17050,-3.8729,0.4607,0.2557,-773.19,-1421.45,-593.38
17060,-3.8727,0.6674,0.2994,-1023.19,735.23,891.11
17070,-3.8726,0.8917,0.3267,1429.93,-1670.59,1516.17
17080,-3.8724,1.1478,0.3459,-1851.32,1814.21,-1436.89
17090,-3.8722,1.3877,0.3661,-1070.07,283.45,-1155.58
17100,-3.8717,1.5564,0.3960,1633.06,-1137.94,16.30
17110,-3.8712,1.6326,0.4324,-773.19,-1309.51,1469.48
17120,-3.8706,1.6227,0.4446,976.81,-653.08,1469.54
17130,-3.8700,1.5624,0.4207,-288.82,909.36,-577.27
17140,-3.8693,1.4861,0.3820,-7.57,1846.74,1485.17
17150,-3.8687,1.4165,0.3376,-1773.19,893.49,453.86
17160,-3.8683,1.3618,0.2916,1320.56,-778.50,-1343.14
17170,-3.8680,1.3007,0.2494,-1679.44,1330.75,-1561.95
17180,-3.8680,1.2103,0.2167,-1507.57,-75.62,1094.18
17190,-3.8684,1.0946,0.1958,-1070.07,-263.31,1687.87
17200,-3.8690,0.9698,0.1816,117.43,1064.64,-1265.26
17210,-3.8696,0.8451,0.1709,148.68,-748.11,531.56
17220,-3.8704,0.7256,0.1561,179.93,1876.65,-1780.94
17230,-3.8710,0.6171,0.1202,883.06,-14.22,1468.99
17240,-3.8716,0.5120,0.0603,-1007.57,-608.22,-327.94
17250,-3.8719,0.4036,-0.0114,1539.31,-280.27,1062.56
17260,-3.8723,0.2986,-0.0890,-335.69,-1452.39,1843.69
17270,-3.8726,0.1930,-0.1700,-1773.19,609.92,-1062.68
17280,-3.8726,0.0856,-0.2554,711.18,-1765.26,15.26
17290,-3.8727,-0.0182,-0.3444,-1038.82,-687.38,-78.67
17300,-3.8726,-0.1284,-0.4282,1679.93,-62.56,-1828.86
17310,-3.8724,-0.2493,-0.5094,-429.44,1202.82,-1360.23
17320,-3.8723,-0.3735,-0.5919,101.81,-1187.99,-16.66
17330,-3.8721,-0.5022,-0.6658,195.56,249.27,1576.97
17340,-3.8718,-0.6414,-0.7184,-273.19,-1204.16,701.78
17350,-3.8716,-0.7852,-0.7406,1914.31,61.22,1779.85
17360,-3.8713,-0.9126,-0.7380,-491.94,1217.16,-188.96
17370,-3.8710,-0.9995,-0.7399,-804.44,1545.04,1482.91
17380,-3.8707,-1.0280,-0.7638,70.56,1310.55,1170.41
17390,-3.8706,-0.9968,-0.7882,429.93,-1752.01,-1860.90
17400,-3.8705,-0.9287,-0.7932,414.31,-876.95,1420.29
17410,-3.8705,-0.8549,-0.7845,1133.06,-1517.46,-360.96
17420,-3.8705,-0.7997,-0.7634,-1413.82,-407.96,-64.09
17430,-3.8705,-0.7743,-0.7180,1648.68,-1704.71,-1689.03
17440,-3.8706,-0.7770,-0.6519,898.68,107.85,-282.65
17450,-3.8706,-0.7941,-0.5846,554.93,576.60,529.97
17460,-3.8707,-0.8097,-0.5233,-1632.57,1185.91,405.09
17470,-3.8710,-0.8167,-0.4657,367.43,1029.66,-782.29
17480,-3.8711,-0.8098,-0.4158,-523.19,404.60,1545.96
17490,-3.8713,-0.7908,-0.3751,351.81,-1204.71,-219.60
17500,-3.8715,-0.7672,-0.3406,-1210.69,-1.59,-1828.92
17510,-3.8716,-0.7518,-0.3127,1804.93,420.35,983.70
17520,-3.8717,-0.7509,-0.2848,-226.32,-17.15,77.45
17530,-3.8719,-0.7584,-0.2473,-101.32,-439.03,-375.61
17540,-3.8721,-0.7633,-0.2096,-1070.07,357.85,-94.24
17550,-3.8721,-0.7566,-0.1805,-1695.07,1185.97,624.57
17560,-3.8722,-0.7383,-0.1536,-835.69,904.72,1593.38
17570,-3.8723,-0.7157,-0.1218,1508.06,357.91,-1515.93
17580,-3.8724,-0.6914,-0.0801,398.68,420.47,-1312.74
17590,-3.8726,-0.6582,-0.0311,-491.94,1764.22,-1875.18
17600,-3.8727,-0.6089,0.0166,-241.94,29.91,1171.81
17610,-3.8728,-0.5405,0.0607,-1929.44,-1860.60,390.62
17620,-3.8729,-0.4528,0.0917,-1179.44,-219.85,218.81
17630,-3.8730,-0.3458,0.1102,-1945.07,-250.92,984.50
17640,-3.8732,-0.2159,0.1346,-257.57,-1875.73,-1343.57
17650,-3.8732,-0.0485,0.1660,367.43,1249.57,500.24
17660,-3.8733,0.1674,0.1849,1804.93,1265.50,-1702.82
17670,-3.8733,0.4243,0.1780,1429.93,-327.82,1640.93
17680,-3.8732,0.7129,0.1544,-1679.44,-1217.96,844.06
17690,-3.8729,0.9889,0.1512,-741.94,-233.03,625.24
17700,-3.8727,1.1992,0.1924,-1413.82,-638.73,-593.51
17710,-3.8723,1.3501,0.2462,1508.06,627.32,-1343.38
17720,-3.8719,1.4773,0.2727,820.56,-481.75,-1937.07
17730,-3.8716,1.5890,0.2698,1101.81,-1090.88,-46.39
17740,-3.8710,1.6619,0.2529,-601.32,-1465.70,1984.86
17750,-3.8704,1.6802,0.2341,726.81,378.23,-468.26
17760,-3.8696,1.6500,0.2134,-929.44,1971.98,-827.70
17770,-3.8689,1.5901,0.1829,-788.82,-684.33,-671.51
17780,-3.8682,1.5142,0.1399,-460.69,-590.70,312.81
17790,-3.8678,1.4376,0.0872,1820.56,1909.18,-1827.88
17800,-3.8677,1.3696,0.0345,23.68,-840.94,-593.63
17810,-3.8678,1.2983,-0.0059,-679.44,424.50,-468.69
17820,-3.8682,1.2070,-0.0273,-1804.44,-747.50,-1734.44
17830,-3.8688,1.0953,-0.0337,-1491.94,502.32,1609.31
17840,-3.8695,0.9783,-0.0348,211.18,-310.36,1546.75
17850,-3.8702,0.8656,-0.0422,1226.81,-451.23,1499.88
17860,-3.8710,0.7615,-0.0635,-1195.07,-1404.60,-265.75
17870,-3.8715,0.6725,-0.1005,1476.81,-123.54,1515.44
17880,-3.8719,0.5994,-0.1648,-1913.82,-858.09,-187.74
17890,-3.8722,0.5297,-0.2588,726.81,-1092.59,-687.87
17900,-3.8723,0.4443,-0.3656,-195.07,-1124.02,-672.42
17910,-3.8723,0.3381,-0.4711,883.06,1203.98,-1656.98
17920,-3.8723,0.2202,-0.5704,-710.69,-296.26,-469.73
17930,-3.8722,0.0959,-0.6603,195.56,-1015.20,-1282.41
17940,-3.8721,-0.0298,-0.7390,289.31,-515.44,-532.59
17950,-3.8718,-0.1516,-0.8092,195.56,1421.81,1514.16
17960,-3.8716,-0.2706,-0.8706,601.81,437.19,1076.54
17970,-3.8713,-0.3910,-0.9143,1367.43,577.58,1685.79
17980,-3.8711,-0.5188,-0.9302,1961.18,-1016.42,-1517.46
17990,-3.8708,-0.6519,-0.9192,1601.81,952.09,-1392.46
18000,-3.8706,-0.7742,-0.8942,570.56,-1641.91,482.54
18010,-3.8706,-0.8704,-0.8667,914.31,1560.97,-1314.27
18020,-3.8706,-0.9302,-0.8356,601.81,1076.42,810.79
18030,-3.8708,-0.9510,-0.7960,945.56,1060.67,-314.15
18040,-3.8710,-0.9407,-0.7490,-1726.32,-1876.89,560.91
18050,-3.8712,-0.9166,-0.6947,-398.19,138.73,654.79
18060,-3.8715,-0.9027,-0.6359,-1320.07,-908.08,1201.72
18070,-3.8717,-0.9128,-0.5813,461.18,-1376.77,-563.78
18080,-3.8718,-0.9474,-0.5341,-835.69,1607.54,-110.53
18090,-3.8718,-0.9971,-0.4889,-1257.57,-345.64,1608.28
18100,-3.8719,-1.0482,-0.4452,383.06,1435.55,-500.98
18110,-3.8719,-1.0876,-0.4033,1836.18,-970.83,1936.58
18120,-3.8719,-1.1075,-0.3590,789.31,388.49,1217.96
18130,-3.8719,-1.1050,-0.3119,-1757.57,-1939.70,593.02
18140,-3.8721,-1.0789,-0.2667,-1429.44,91.55,-594.36
18150,-3.8721,-1.0359,-0.2311,1914.31,1872.86,1280.70
18160,-3.8722,-0.9885,-0.2001,-585.69,-1564.58,1890.14
18170,-3.8723,-0.9435,-0.1652,1476.81,-1595.70,1671.45
18180,-3.8724,-0.9003,-0.1288,-757.57,-1126.89,1265.26
18190,-3.8726,-0.8547,-0.0957,773.68,-470.52,984.07
18200,-3.8727,-0.8075,-0.0630,-1398.19,-236.08,1062.26
18210,-3.8728,-0.7601,-0.0269,648.68,-48.46,1452.94
18220,-3.8729,-0.7104,0.0104,-1288.82,576.60,-1890.69
18230,-3.8730,-0.6597,0.0485,1070.56,1342.35,-1093.75
18240,-3.8732,-0.6067,0.0903,-429.44,-1782.59,-499.94
18250,-3.8733,-0.5402,0.1354,-1648.19,-423.10,-124.88
18260,-3.8733,-0.4407,0.1716,-1132.57,1342.65,234.62
18270,-3.8734,-0.2843,0.1935,-398.19,1983.46,640.93
18280,-3.8735,-0.0459,0.1990,-382.57,780.64,1797.24
18290,-3.8735,0.2932,0.1935,-1866.94,1484.25,765.99
18300,-3.8735,0.7083,0.2007,1539.31,766.17,-780.88
18310,-3.8733,1.1488,0.2339,-1335.69,1688.84,-1374.63
18320,-3.8729,1.5602,0.2744,-945.07,1939.70,-1874.57
18330,-3.8724,1.8812,0.3047,-288.82,-872.01,984.86
18340,-3.8719,2.0747,0.3253,804.93,-996.34,-171.33
18350,-3.8711,2.1271,0.3323,1570.56,1644.65,1016.24
18360,-3.8701,2.0350,0.3180,273.68,-1464.60,1875.61
18370,-3.8690,1.8422,0.2786,492.43,707.09,-1093.14
18380,-3.8679,1.6426,0.2223,-195.07,-340.21,-1468.26
18390,-3.8671,1.4865,0.1598,-1741.94,456.30,-1687.07
18400,-3.8667,1.3585,0.0959,-1726.32,455.99,-577.82
18410,-3.8668,1.2415,0.0353,1898.68,283.87,-1781.07
18420,-3.8674,1.1295,-0.0099,-1085.69,518.01,1000.06
18430,-3.8684,1.0165,-0.0348,586.18,-1263.43,-1375.06
18440,-3.8694,0.9031,-0.0520,-1882.57,-451.17,-1562.62
18450,-3.8702,0.7919,-0.0790,-398.19,1345.46,1390.50
18460,-3.8710,0.6814,-0.1254,1367.43,1892.15,-1828.31
18470,-3.8715,0.5651,-0.1824,-773.19,-45.59,1390.32
18480,-3.8718,0.4371,-0.2408,336.18,657.35,1718.38
18490,-3.8721,0.3046,-0.2974,-38.82,1172.67,1702.64
18500,-3.8722,0.1763,-0.3475,-1007.57,1938.05,874.39
18510,-3.8723,0.0532,-0.3883,-1429.44,-484.07,-1235.11
18520,-3.8723,-0.0616,-0.4207,-1179.44,-1703.06,-1032.04
18530,-3.8722,-0.1798,-0.4462,117.43,-1828.25,1827.27
18540,-3.8721,-0.3280,-0.4611,992.43,-1094.12,-1454.04
18550,-3.8719,-0.5022,-0.4608,-1976.32,999.33,-922.79
18560,-3.8718,-0.6721,-0.4501,-273.19,1030.21,-1750.92
18570,-3.8717,-0.8121,-0.4431,1976.81,-1595.09,108.46
18580,-3.8717,-0.9084,-0.4463,54.93,-704.71,874.08
18590,-3.8717,-0.9542,-0.4557,-273.19,-1111.21,545.96
18600,-3.8718,-0.9543,-0.4702,1867.43,1685.61,-907.17
18610,-3.8718,-0.9259,-0.4857,1851.81,-173.77,936.52
18620,-3.8719,-0.8976,-0.4851,1492.43,1841.92,-938.48
18630,-3.8719,-0.8893,-0.4563,1117.43,1920.10,-1625.98
18640,-3.8719,-0.8971,-0.4106,-1820.07,1607.60,-625.92
18650,-3.8718,-0.9099,-0.3705,1179.93,-548.65,1452.27
18660,-3.8718,-0.9207,-0.3430,-460.69,591.92,-250.73
18670,-3.8717,-0.9291,-0.3186,-1835.69,107.54,1749.33
18680,-3.8717,-0.9337,-0.2899,1086.18,-767.46,-735.05
18690,-3.8716,-0.9299,-0.2618,492.43,-1095.58,77.51
18700,-3.8717,-0.9175,-0.2349,976.81,-1501.83,-109.92
18710,-3.8717,-0.9036,-0.2064,-1429.44,1951.29,-1406.74
18720,-3.8717,-0.8929,-0.1798,351.81,1591.98,30.82
18730,-3.8718,-0.8822,-0.1564,1711.18,998.23,359.01
18740,-3.8719,-0.8656,-0.1355,-913.82,-1.77,155.88
18750,-3.8722,-0.8427,-0.1144,1211.18,-1329.83,-140.93
18760,-3.8722,-0.8182,-0.0945,148.68,1373.35,124.76
18770,-3.8723,-0.7965,-0.0782,-726.32,-79.77,1296.63
18780,-3.8724,-0.7761,-0.0649,-1945.07,1998.41,-843.93
18790,-3.8724,-0.7538,-0.0569,664.31,-298.40,1671.69
18800,-3.8724,-0.7295,-0.0570,-476.32,732.85,906.13
18810,-3.8724,-0.7054,-0.0565,-1366.94,717.29,703.00
18820,-3.8724,-0.6831,-0.0499,1711.18,779.85,578.00
18830,-3.8724,-0.6588,-0.0424,570.56,1623.66,140.50
18840,-3.8726,-0.6293,-0.0327,-320.07,-1407.59,-750.12
18850,-3.8726,-0.5951,-0.0197,-538.82,-173.16,1890.50
18860,-3.8726,-0.5555,-0.0057,-163.82,1498.78,171.81
18870,-3.8727,-0.5095,0.0089,898.68,-719.85,-1984.44
18880,-3.8728,-0.4530,0.0248,-1210.69,1155.21,-406.25
18890,-3.8728,-0.3730,0.0372,-1976.32,-813.42,1312.50
18900,-3.8729,-0.2546,0.0455,258.06,780.52,-390.56
18910,-3.8729,-0.0945,0.0593,-585.69,1843.20,-937.44
18920,-3.8728,0.0908,0.0889,-85.69,-390.87,500.06
18930,-3.8727,0.2839,0.1384,-366.94,-624.88,156.37
18940,-3.8726,0.4852,0.2043,351.81,1719.30,781.49
18950,-3.8724,0.7023,0.2738,-1882.57,-1842.83,1797.24
18960,-3.8723,0.9299,0.3356,1898.68,-951.78,-702.64
18970,-3.8721,1.1659,0.3843,-960.69,-1045.10,1031.86
18980,-3.8718,1.4016,0.4207,1242.43,1189.76,172.61
18990,-3.8716,1.6041,0.4553,-585.69,1846.44,1907.04
19000,-3.8712,1.7490,0.4795,1336.18,-1715.64,-1108.52
19010,-3.8706,1.8278,0.4551,-116.94,1378.36,422.79
19020,-3.8700,1.8353,0.3813,1961.18,-1746.46,-827.27
19030,-3.8691,1.7867,0.2952,-1070.07,816.04,688.23
19040,-3.8684,1.7125,0.2197,711.18,1784.73,172.42
19050,-3.8679,1.6213,0.1685,-788.82,128.30,625.43
19060,-3.8678,1.5204,0.1377,-460.69,1565.61,-1952.82
19070,-3.8679,1.4308,0.1143,-1382.57,1627.93,203.37
19080,-3.8684,1.3455,0.1035,-851.32,-1372.25,-1968.57
19090,-3.8690,1.2480,0.0970,226.81,1252.62,-1577.94
19100,-3.8698,1.1416,0.0658,-241.94,424.26,-234.19
19110,-3.8704,1.0342,0.0094,-1866.94,424.07,1156.37
19120,-3.8710,0.9293,-0.0519,383.06,1205.14,828.12
19130,-3.8715,0.8168,-0.1161,-1038.82,1361.15,124.88
19140,-3.8719,0.6925,-0.1738,554.93,1142.21,-453.37
19150,-3.8722,0.5656,-0.2177,648.68,1751.34,-1719.12
19160,-3.8724,0.4396,-0.2638,398.68,141.72,-375.43
19170,-3.8726,0.3209,-0.3311,273.68,-1764.77,-938.05
19180,-3.8727,0.2100,-0.4287,1086.18,1625.61,-94.42
19190,-3.8727,0.0938,-0.5411,-1116.94,1125.37,1624.15
19200,-3.8727,-0.0425,-0.6444,8.06,-1265.44,30.15
19210,-3.8728,-0.2032,-0.7294,-1429.44,1531.13,-720.03
19220,-3.8728,-0.3840,-0.7874,1992.43,-1344.18,-985.84
19230,-3.8728,-0.5691,-0.8179,-1148.19,-766.42,-689.09
19240,-3.8727,-0.7352,-0.8322,-835.69,-673.03,1279.60
19250,-3.8726,-0.8700,-0.8374,1898.68,1498.54,1701.48
19260,-3.8723,-0.9630,-0.8436,648.68,826.42,842.10
19270,-3.8721,-1.0055,-0.8641,742.43,29.36,-1970.40
19280,-3.8717,-0.9998,-0.9050,-695.07,1404.24,420.17
19290,-3.8715,-0.9667,-0.9579,39.31,169.92,-111.15
19300,-3.8710,-0.9301,-0.9952,273.68,1404.36,91.86
19310,-3.8707,-0.9133,-1.0026,961.18,623.17,-611.33
19320,-3.8705,-0.9279,-0.9912,-898.19,-314.33,-127.01
19330,-3.8702,-0.9647,-0.9672,1242.43,1138.79,654.30
19340,-3.8702,-1.0154,-0.9319,523.68,216.86,1435.61
19350,-3.8704,-1.0662,-0.8911,-1960.69,732.36,-1704.96
19360,-3.8706,-1.1057,-0.8438,-460.69,1950.99,-64.27
19370,-3.8708,-1.1276,-0.7830,-1523.19,13.43,-548.52
19380,-3.8711,-1.1234,-0.7145,-320.07,-205.38,-1985.96
19390,-3.8713,-1.0953,-0.6511,211.18,560.30,45.47
19400,-3.8717,-1.0566,-0.5972,-195.07,669.68,-1579.41
19410,-3.8719,-1.0208,-0.5543,758.06,-423.95,-1813.72
19420,-3.8722,-0.9919,-0.5276,1351.81,1060.49,-516.72
19430,-3.8723,-0.9701,-0.5126,1039.31,482.42,-1782.29
19440,-3.8724,-0.9542,-0.4983,-163.82,-1595.70,-1438.54
19450,-3.8724,-0.9393,-0.4805,1867.43,232.48,389.65
19460,-3.8726,-0.9208,-0.4567,-226.32,-1486.27,-1188.48
19470,-3.8726,-0.8928,-0.4301,-1851.32,1560.67,889.71
19480,-3.8727,-0.8513,-0.4055,1726.81,966.98,-1922.73
19490,-3.8728,-0.7976,-0.3779,-960.69,107.67,-1735.17
19500,-3.8729,-0.7378,-0.3397,1914.31,-360.96,1936.71
19510,-3.8730,-0.6694,-0.2885,1570.56,529.79,1593.08
19520,-3.8732,-0.5858,-0.2324,-1679.44,-907.59,1405.64
19530,-3.8733,-0.4846,-0.1826,1023.68,-1735.53,1296.39
19540,-3.8734,-0.3606,-0.1411,1976.81,639.65,1530.88
19550,-3.8735,-0.1945,-0.0988,1851.81,1952.39,-1219.06
19560,-3.8735,0.0436,-0.0476,-882.57,-625.43,1484.13
19570,-3.8735,0.3685,0.0256,1586.18,1906.31,-1812.62
19580,-3.8734,0.7675,0.1310,-820.07,-718.08,1843.75
19590,-3.8732,1.2137,0.2477,-1757.57,767.09,484.62
19600,-3.8729,1.6641,0.3567,-632.57,-294.56,375.43
19610,-3.8727,2.0459,0.4540,1008.06,1659.48,-1889.95
19620,-3.8722,2.2832,0.5402,1883.06,-1886.66,688.35
19630,-3.8716,2.3196,0.6041,258.06,1145.08,532.29
19640,-3.8708,2.1708,0.6206,914.31,1332.64,1126.16
19650,-3.8700,1.9432,0.5851,1867.43,-558.29,-936.34
19660,-3.8689,1.7369,0.5139,742.43,-1105.59,782.35
19670,-3.8679,1.5839,0.4282,-1663.82,1784.61,1860.35
19680,-3.8672,1.4642,0.3492,-1257.57,-1184.45,-796.08
19690,-3.8668,1.3439,0.2915,-570.07,705.93,1360.05
19700,-3.8671,1.2089,0.2584,23.68,1315.12,156.80
19710,-3.8679,1.0699,0.2423,-1257.57,1080.44,1344.24
19720,-3.8690,0.9355,0.2328,961.18,-982.30,1750.43
19730,-3.8701,0.8044,0.2286,-241.94,1798.65,-1655.82
19740,-3.8711,0.6829,0.2180,-1023.19,1267.15,-140.20
19750,-3.8717,0.5747,0.1837,-585.69,-92.47,125.37
19760,-3.8723,0.4678,0.1312,1570.56,-483.28,-1327.82
19770,-3.8727,0.3458,0.0742,-116.94,797.73,-1874.76
19780,-3.8729,0.2100,0.0244,273.68,1500.67,1406.37
19790,-3.8730,0.0726,-0.0138,-1116.94,-874.63,156.25
19800,-3.8732,-0.0591,-0.0367,1304.93,-1765.50,-1468.81
19810,-3.8730,-0.1812,-0.0398,445.56,-687.62,328.00
19820,-3.8729,-0.2881,-0.0331,820.56,-1078.49,828.00
19830,-3.8728,-0.3662,-0.0332,-866.94,-219.36,-1281.37
19840,-3.8726,-0.4062,-0.0431,1133.06,-235.11,1218.63
19850,-3.8723,-0.4204,-0.0570,8.06,-1500.79,562.38
19860,-3.8721,-0.4330,-0.0752,-1804.44,717.90,453.00
19870,-3.8719,-0.4354,-0.1190,586.18,-1610.23,-172.06
19880,-3.8717,-0.4164,-0.2076,273.68,780.40,1577.88
19890,-3.8716,-0.4001,-0.3206,-1288.82,1436.65,1233.95
19900,-3.8716,-0.4156,-0.4215,789.31,-1016.42,-219.42
19910,-3.8715,-0.4780,-0.4878,-1195.07,-1938.35,-1485.23
19920,-3.8713,-0.5731,-0.5250,-1179.44,1577.15,1420.90
19930,-3.8713,-0.6697,-0.5662,-1351.32,811.34,-16.66
19940,-3.8712,-0.7521,-0.6270,-1710.69,-454.47,-1923.03
19950,-3.8711,-0.8171,-0.6934,-257.57,-235.90,654.97
19960,-3.8710,-0.8699,-0.7455,-585.69,-736.02,389.22
19970,-3.8708,-0.9182,-0.7766,664.31,592.04,920.41
19980,-3.8707,-0.9586,-0.8049,-1523.19,607.54,1951.60
19990,-3.8706,-0.9863,-0.8328,1304.93,982.48,-1064.09
20000,-3.8705,-1.0088,-0.8412,1758.06,1419.92,-1657.90
20010,-3.8705,-1.0275,-0.8296,-1116.94,341.74,-829.77
20020,-3.8705,-1.0375,-0.8044,492.43,1826.11,1748.35
20030,-3.8706,-1.0393,-0.7650,-788.82,1044.80,-1173.46
20040,-3.8707,-1.0405,-0.7158,-1023.19,-1908.33,-1626.53
20050,-3.8710,-1.0425,-0.6672,-1179.44,388.55,-188.90
20060,-3.8712,-1.0341,-0.6216,-1429.44,-1392.70,-438.84
20070,-3.8715,-1.0062,-0.5760,-351.32,451.05,-1141.85
20080,-3.8717,-0.9613,-0.5314,-788.82,-1720.76,-1313.66
20090,-3.8719,-0.9077,-0.4869,961.18,-1.89,-251.10
20100,-3.8721,-0.8583,-0.4412,-179.44,1685.67,1983.40
20110,-3.8722,-0.8347,-0.3918,-1851.32,-454.83,592.83
20120,-3.8724,-0.8414,-0.3357,1164.31,1857.73,1921.08
20130,-3.8727,-0.8711,-0.2814,304.93,1045.23,796.20
20140,-3.8730,-0.8949,-0.2551,508.06,-1.71,1030.64
20150,-3.8735,-0.8392,-0.2716,1461.18,-642.40,-1266.17
20160,-3.8739,-0.6609,-0.3273,586.18,1248.35,296.33
20170,-3.8743,-0.3809,-0.4287,-585.69,-1876.34,-1750.67
20180,-3.8743,-0.0579,-0.5728,-741.94,1139.83,77.27
20190,-3.8741,0.2585,-0.7351,601.81,-1297.00,1358.22
20200,-3.8739,0.5692,-0.8915,1101.81,1906.74,-1438.96
20210,-3.8735,0.8706,-0.9871,867.43,1891.72,-1736.15
20220,-3.8729,1.0905,-0.9968,-554.44,1657.90,-1517.58
20230,-3.8719,1.2129,-1.0157,-413.82,408.33,-1080.08
20240,-3.8707,1.2909,-1.1030,-741.94,1986.69,-1283.26
20250,-3.8694,1.3070,-1.2104,1242.43,-1185.00,-1486.57
20260,-3.8679,1.2609,-1.3043,-695.07,1065.00,310.12
20270,-3.8665,1.1752,-1.3408,1398.68,1049.32,-1643.19
20280,-3.8647,1.0560,-1.3029,-1570.07,377.26,669.25
20290,-3.8634,0.9503,-1.2443,-820.07,1236.39,-1549.44
20300,-3.8627,0.8861,-1.1733,1648.68,736.21,810.06
20310,-3.8630,0.8423,-1.0471,1429.93,1814.21,1732.06
20320,-3.8644,0.8214,-0.8588,-179.44,1970.34,1185.42
20330,-3.8663,0.8439,-0.6534,1148.68,-1920.29,-1954.83
20340,-3.8682,0.8961,-0.4806,23.68,361.02,326.84
20350,-3.8696,0.9391,-0.3586,-1288.82,-1513.92,967.77
20360,-3.8706,0.9342,-0.2932,211.18,-1904.42,-1922.61
20370,-3.8712,0.8569,-0.2837,-413.82,-1529.48,1999.39
20380,-3.8717,0.7300,-0.3157,1695.56,-310.85,-563.11
20390,-3.8719,0.5812,-0.3734,1445.56,-404.85,452.45
20400,-3.8722,0.3977,-0.4464,-1601.32,204.22,889.89
20410,-3.8723,0.1881,-0.5245,-1085.69,-1139.89,249.08
20420,-3.8724,-0.0132,-0.5923,86.18,859.74,1217.71
20430,-3.8726,-0.1835,-0.6383,-1679.44,203.06,-1048.03
20440,-3.8726,-0.3173,-0.6652,523.68,-1687.87,1529.97
20450,-3.8726,-0.4226,-0.6862,-601.32,-1125.67,1014.28
20460,-3.8726,-0.5122,-0.7139,1914.31,186.65,1967.41
20470,-3.8724,-0.6140,-0.7484,-1554.44,639.59,1764.22
20480,-3.8722,-0.7686,-0.7693,1414.31,217.53,1029.79
20490,-3.8719,-0.9723,-0.7601,1633.06,1545.35,-1860.90
20500,-3.8717,-1.1680,-0.7377,-445.07,-1283.20,-392.15
20510,-3.8713,-1.3002,-0.7449,-1491.94,1591.43,-1642.09
20520,-3.8710,-1.3544,-0.7976,1586.18,669.31,-1282.71
20530,-3.8706,-1.3500,-0.8595,-1351.32,1919.19,-79.71
20540,-3.8702,-1.3195,-0.8881,-788.82,1997.31,-329.83
20550,-3.8700,-1.2798,-0.8661,-882.57,-1658.87,-1533.02
20560,-3.8700,-1.2312,-0.8063,195.56,1153.75,-1767.33
20570,-3.8702,-1.1826,-0.7334,-1585.69,810.06,-48.46
20580,-3.8705,-1.1316,-0.6555,633.06,-1861.69,-1407.71
20590,-3.8707,-1.0853,-0.5708,-835.69,107.12,592.47
20600,-3.8711,-1.0504,-0.4862,1086.18,-1049.01,-735.53
20610,-3.8713,-1.0151,-0.4091,1554.93,1779.17,-813.48
20620,-3.8715,-0.9792,-0.3445,-1929.44,-345.76,405.40
20630,-3.8717,-0.9426,-0.2991,-1335.69,-80.08,-1500.73
20640,-3.8718,-0.9023,-0.2668,-648.19,1732.48,1061.89
20650,-3.8721,-0.8579,-0.2341,508.06,1857.60,-156.80
20660,-3.8722,-0.8115,-0.1943,-1804.44,-1954.83,-1734.86
20670,-3.8723,-0.7645,-0.1501,133.06,-860.96,374.57
20680,-3.8726,-0.7134,-0.1083,-1851.32,795.35,-1609.68
20690,-3.8728,-0.6539,-0.0752,695.56,-1845.15,-47.12
20700,-3.8729,-0.5863,-0.0490,304.93,-1610.66,1171.69
20710,-3.8732,-0.4994,-0.0281,961.18,1748.84,-1593.87
20720,-3.8734,-0.3751,-0.0234,86.18,420.90,-187.56
20730,-3.8735,-0.2161,-0.0374,-7.57,1014.83,765.56
20740,-3.8738,-0.0414,-0.0634,351.81,-766.05,1671.75
20750,-3.8739,0.1476,-0.1056,-1288.82,-93.87,62.32
20760,-3.8740,0.3495,-0.1819,-1101.32,-1515.38,546.63
20770,-3.8741,0.5759,-0.3153,742.43,719.42,-312.87
20780,-3.8740,0.8571,-0.5000,1726.81,-358.28,-953.80
20790,-3.8737,1.2190,-0.6792,1711.18,1.65,1686.52
20800,-3.8729,1.6157,-0.7537,39.31,1064.88,1998.66
20810,-3.8716,1.9307,-0.7150,-1179.44,-465.64,60.97
20820,-3.8701,2.0675,-0.6951,-866.94,488.10,-79.53
20830,-3.8685,1.9989,-0.7583,648.68,-964.72,1967.35
20840,-3.8672,1.7820,-0.8203,-132.57,-1058.65,404.72
20850,-3.8662,1.5244,-0.7994,101.81,-996.52,1545.23
20860,-3.8655,1.3275,-0.7094,-866.94,1674.80,1842.16
20870,-3.8650,1.2195,-0.6080,1929.93,1205.69,889.22
20880,-3.8650,1.1678,-0.5310,101.81,-1825.74,-501.22
20890,-3.8654,1.1327,-0.4783,1492.43,33.51,1983.34
20900,-3.8662,1.0979,-0.4247,992.43,-1216.55,452.15
20910,-3.8674,1.0747,-0.3562,539.31,1642.76,749.15
20920,-3.8687,1.0699,-0.2916,1570.56,-1591.67,530.52
20930,-3.8698,1.0607,-0.2507,961.18,-1326.05,-1313.11
20940,-3.8706,1.0182,-0.2399,-226.32,-91.74,-578.67
20950,-3.8712,0.9330,-0.2550,-1663.82,1298.83,1327.64
20960,-3.8717,0.8114,-0.2875,-570.07,-638.85,765.08
20970,-3.8721,0.6738,-0.3431,-132.57,-795.35,905.64
20980,-3.8723,0.5319,-0.4371,-1741.94,79.41,30.58
20990,-3.8726,0.3835,-0.5636,86.18,47.91,1358.52
21000,-3.8727,0.2441,-0.7080,1101.81,-139.89,248.84
21010,-3.8728,0.1227,-0.8640,-741.94,1375.43,826.72
21020,-3.8728,0.0006,-1.0142,-288.82,1406.43,154.54
21030,-3.8728,-0.1390,-1.1385,86.18,-1812.50,-1970.76
21040,-3.8727,-0.2954,-1.2261,-1788.82,-1719.06,-1752.26
21050,-3.8724,-0.4684,-1.2699,-1804.44,-922.49,1481.93
21060,-3.8722,-0.6624,-1.2698,54.93,1467.83,-174.38
21070,-3.8717,-0.8750,-1.2263,-773.19,1483.03,263.12
21080,-3.8713,-1.0925,-1.1399,8.06,-954.83,1716.31
21090,-3.8708,-1.2994,-1.0294,164.31,-1892.76,341.49
21100,-3.8705,-1.4663,-0.9493,1679.93,247.44,-314.51
21110,-3.8700,-1.5345,-0.9423,320.56,-1502.87,451.23
21120,-3.8699,-1.4725,-0.9840,-413.82,-596.80,-1126.89
21130,-3.8699,-1.3185,-1.0071,-476.32,-1940.43,1482.42
21140,-3.8701,-1.1395,-0.9725,-757.57,-893.25,-1939.51
21150,-3.8705,-0.9908,-0.8910,-1851.32,-471.01,-251.95
21160,-3.8707,-0.9023,-0.7992,1179.93,1966.80,1076.35
21170,-3.8710,-0.8674,-0.7196,508.06,1716.98,60.91
21180,-3.8712,-0.8619,-0.6482,976.81,-95.46,1545.41
21190,-3.8713,-0.8606,-0.5781,1679.93,1045.17,904.97
21200,-3.8715,-0.8610,-0.4972,1851.81,-1986.08,1358.22
21210,-3.8716,-0.8678,-0.4011,1804.93,373.29,-922.85
21220,-3.8716,-0.8683,-0.3063,929.93,670.17,1436.71
21230,-3.8717,-0.8488,-0.2238,867.43,810.79,-1063.11
21240,-3.8718,-0.8077,-0.1497,-632.57,-626.71,-1078.61
21250,-3.8719,-0.7504,-0.0811,617.43,857.79,1859.07
21260,-3.8721,-0.6860,-0.0165,-38.82,1639.10,31.07
21270,-3.8723,-0.6226,0.0475,195.56,1904.91,1437.44
21280,-3.8726,-0.5559,0.1117,320.56,-1907.47,-1421.81
21290,-3.8727,-0.4814,0.1724,851.81,-1688.60,93.93
21300,-3.8729,-0.3975,0.2333,-1616.94,-1922.85,1984.68
21310,-3.8730,-0.3002,0.2959,1133.06,1874.21,187.93
21320,-3.8733,-0.1703,0.3427,1586.18,1890.01,-1686.95
21330,-3.8734,0.0270,0.3490,-1788.82,-125.37,47.49
21340,-3.8737,0.3057,0.3134,-538.82,671.88,-639.95
21350,-3.8735,0.6477,0.2648,-866.94,109.92,453.74
21360,-3.8733,1.0261,0.2294,-1085.69,1891.85,1922.36
21370,-3.8727,1.3726,0.2061,-648.19,1361.33,531.68
21380,-3.8719,1.6014,0.2130,-304.44,-1622.38,-952.76
21390,-3.8710,1.6533,0.2770,992.43,-731.26,1828.49
21400,-3.8700,1.5254,0.3666,-366.94,-543.70,937.99
21410,-3.8691,1.2922,0.4601,-741.94,-1075.20,1172.55
21420,-3.8685,1.0396,0.5609,1414.31,-1106.87,-1342.90
21430,-3.8682,0.8385,0.6494,1070.56,-201.11,-1702.09
21440,-3.8682,0.7261,0.6948,-663.82,-873.41,-889.40
21450,-3.8684,0.6776,0.6815,945.56,938.90,1095.09
21460,-3.8690,0.6550,0.6379,-1257.57,-764.34,-1467.47
21470,-3.8698,0.6353,0.6031,-148.19,1657.47,-1295.65
21480,-3.8705,0.5968,0.5759,1320.56,1204.35,1813.66
21490,-3.8712,0.5187,0.5444,398.68,1719.91,-405.15
21500,-3.8717,0.3867,0.5077,-1601.32,1688.48,860.41
21510,-3.8722,0.2183,0.4641,1508.06,985.11,985.35
21520,-3.8727,0.0583,0.4059,-54.44,-593.38,-655.40
21530,-3.8729,-0.0685,0.3160,-523.19,-46.81,31.98
21540,-3.8733,-0.1688,0.1904,-757.57,468.57,-827.51
21550,-3.8734,-0.2529,0.0549,-1601.32,390.26,625.37
21560,-3.8735,-0.3236,-0.0614,-366.94,-953.67,46.94
21570,-3.8737,-0.3864,-0.1575,-1413.82,155.58,1484.25
21580,-3.8737,-0.4417,-0.2489,-1445.07,-141.42,-1812.87
21590,-3.8735,-0.4928,-0.3411,-523.19,155.33,-109.86
21600,-3.8730,-0.5546,-0.4380,929.93,358.40,186.83
21610,-3.8726,-0.6379,-0.5547,1023.68,-47.97,-204.04
21620,-3.8717,-0.7501,-0.6952,-1648.19,1014.34,811.40
21630,-3.8710,-0.8875,-0.8513,-7.57,-970.28,-32.65
21640,-3.8701,-1.0278,-1.0067,-1585.69,-954.90,-1579.83
21650,-3.8694,-1.1298,-1.1442,445.56,-845.76,-64.51
21660,-3.8687,-1.1644,-1.2465,-601.32,1560.24,-1002.26
21670,-3.8682,-1.1357,-1.2930,-1038.82,466.43,1763.18
21680,-3.8680,-1.0536,-1.2793,-1366.94,-1486.63,44.31
21690,-3.8684,-0.9414,-1.2118,1148.68,263.55,-1721.25
21700,-3.8689,-0.8323,-1.1018,-491.94,904.36,560.12
21710,-3.8696,-0.7438,-0.9658,1476.81,-1017.27,-252.20
21720,-3.8702,-0.6827,-0.8243,804.93,389.16,-1017.52
21730,-3.8708,-0.6500,-0.7015,617.43,-1501.34,-892.27
21740,-3.8713,-0.6399,-0.5934,804.93,-1782.53,873.60
21750,-3.8718,-0.6337,-0.4856,-1898.19,61.22,1905.09
21760,-3.8722,-0.6057,-0.3890,-1101.32,1858.09,-1438.48
21770,-3.8724,-0.5496,-0.3124,-1523.19,-1782.47,1905.46
21780,-3.8727,-0.4738,-0.2445,1664.31,30.15,-313.11
21790,-3.8728,-0.3838,-0.1722,-632.57,717.77,-0.49
21800,-3.8728,-0.2756,-0.1062,-1116.94,1967.96,1562.13
21810,-3.8729,-0.1266,-0.0745,726.81,-1578.67,-1375.24
21820,-3.8730,0.0868,-0.0851,-195.07,-1515.93,-1640.81
21830,-3.8732,0.3651,-0.1271,-882.57,1109.50,1109.19
21840,-3.8733,0.6981,-0.2080,-1257.57,-264.95,718.44
21850,-3.8734,1.0679,-0.3066,1367.43,1376.34,-391.05
21860,-3.8732,1.4282,-0.3872,695.56,752.08,358.76
21870,-3.8729,1.7407,-0.4525,-1179.44,-1559.75,-594.54
21880,-3.8723,1.9856,-0.5066,-1179.44,-1918.52,-1985.29
21890,-3.8713,2.1495,-0.5366,-1835.69,-839.90,248.96
21900,-3.8701,2.1890,-0.5358,-851.32,-683.35,1827.03
21910,-3.8685,2.0471,-0.5337,195.56,-573.85,998.90
21920,-3.8669,1.7849,-0.5328,-1960.69,-308.53,-1016.72
21930,-3.8656,1.5312,-0.5032,476.81,-199.65,952.03
21940,-3.8651,1.3561,-0.4503,8.06,-403.26,-1.04
21950,-3.8652,1.2549,-0.3912,1586.18,-1638.00,-1797.79
21960,-3.8661,1.2003,-0.3268,633.06,1924.32,-172.67
21970,-3.8672,1.1643,-0.2450,1648.68,-1825.81,30.58
21980,-3.8685,1.1226,-0.1547,1039.31,642.88,468.26
21990,-3.8698,1.0785,-0.0952,-304.44,205.26,1655.94
22000,-3.8707,1.0402,-0.0831,-1945.07,-185.42,-468.99
22010,-3.8713,0.9894,-0.1029,1148.68,1361.39,-1875.18
22020,-3.8718,0.8997,-0.1434,-1351.32,-1169.98,-734.62
22030,-3.8721,0.7722,-0.2051,-835.69,1642.33,1171.57
22040,-3.8723,0.6289,-0.2863,-1148.19,1751.46,1890.20
22050,-3.8726,0.4871,-0.3845,508.06,-639.40,-63.11
22060,-3.8727,0.3610,-0.5051,-1648.19,-1217.83,-1235.17
22070,-3.8728,0.2551,-0.6505,-1788.82,-655.58,-1876.04
22080,-3.8729,0.1517,-0.8007,664.31,734.86,-1516.91
22090,-3.8729,0.0233,-0.9354,-570.07,1515.87,560.91
22100,-3.8729,-0.1322,-1.0494,-1007.57,265.62,576.29
22110,-3.8729,-0.3005,-1.1356,-913.82,1687.19,-1314.58
22120,-3.8728,-0.4800,-1.1805,1539.31,-1344.36,-424.13
22130,-3.8726,-0.6758,-1.1716,-1429.44,905.27,-174.19
22140,-3.8722,-0.8837,-1.1166,1508.06,-1954.47,-767.94
22150,-3.8717,-1.0923,-1.0457,-1101.32,1091.98,1247.80
22160,-3.8712,-1.2753,-0.9989,195.56,-1830.26,1060.42
22170,-3.8708,-1.3762,-1.0114,773.68,153.75,-48.83
22180,-3.8705,-1.3562,-1.0754,-148.19,-1440.25,1701.11
22190,-3.8704,-1.2316,-1.1302,-1585.69,-1643.31,450.99
22200,-3.8705,-1.0620,-1.1342,-1632.57,-658.69,-1611.63
22210,-3.8706,-0.9200,-1.0891,70.56,-1158.33,-1158.51
22220,-3.8707,-0.8481,-1.0081,-1757.57,607.54,-424.01
22230,-3.8707,-0.8445,-0.9136,-554.44,-1017.33,857.36
22240,-3.8708,-0.8855,-0.8218,-85.69,-923.58,1982.54
22250,-3.8710,-0.9386,-0.7372,-1335.69,-1173.65,1873.35
22260,-3.8712,-0.9663,-0.6594,-132.57,1654.36,-110.84
22270,-3.8713,-0.9592,-0.5925,320.56,-392.52,576.78
22280,-3.8716,-0.9349,-0.5327,1226.81,169.98,1201.97
22290,-3.8718,-0.9104,-0.4718,336.18,-173.71,-1047.97
22300,-3.8719,-0.8931,-0.4155,-523.19,-376.83,-1750.98
22310,-3.8721,-0.8812,-0.3705,1695.56,-1173.65,-1719.60
22320,-3.8722,-0.8724,-0.3335,-788.82,591.98,-1625.73
22330,-3.8723,-0.8608,-0.3036,336.18,1326.42,-1281.92
22340,-3.8724,-0.8412,-0.2802,1820.56,1154.54,-859.99
22350,-3.8726,-0.8131,-0.2491,336.18,154.60,-391.17
22360,-3.8726,-0.7782,-0.2028,-70.07,123.35,77.64
22370,-3.8728,-0.7328,-0.1469,398.68,-1939.03,-78.55
22380,-3.8729,-0.6737,-0.0927,-1788.82,1217.29,-1328.43
22390,-3.8730,-0.6002,-0.0460,1773.68,154.91,1031.07
22400,-3.8732,-0.5172,-0.0023,-820.07,-1876.22,187.38
22410,-3.8733,-0.4315,0.0441,1804.93,-282.29,343.69
22420,-3.8734,-0.3333,0.0909,773.68,1655.40,1203.19
22430,-3.8735,-0.1958,0.1190,1351.81,-344.42,-1343.63
22440,-3.8735,0.0076,0.1030,-1054.44,-750.43,297.06
22450,-3.8737,0.2953,0.0446,976.81,1187.50,1922.06
22460,-3.8737,0.6959,-0.0327,1804.93,1703.67,1875.06
22470,-3.8735,1.2288,-0.0897,1086.18,-186.16,-62.62
22480,-3.8732,1.8239,-0.0801,1289.31,518.01,-234.56
22490,-3.8727,2.3160,0.0062,1461.18,1753.54,-1390.81
22500,-3.8721,2.5660,0.1202,461.18,801.39,484.38
22510,-3.8713,2.5345,0.1819,461.18,-604.37,875.18
22520,-3.8704,2.2915,0.1636,429.93,-713.81,1844.06
22530,-3.8693,1.9690,0.1160,1320.56,941.96,-93.44
22540,-3.8680,1.6821,0.1000,39.31,-1152.40,593.93
22550,-3.8672,1.4803,0.1222,-679.44,800.11,1078.31
22560,-3.8667,1.3397,0.1226,1492.43,-356.51,1703.31
22570,-3.8666,1.2155,0.0630,-507.57,-309.94,500.18
22580,-3.8671,1.0862,-0.0149,-413.82,64.82,-421.75
22590,-3.8678,0.9493,-0.0577,-960.69,-1904.17,671.81
22600,-3.8689,0.8101,-0.0552,1523.68,611.21,1843.63
22610,-3.8700,0.6785,-0.0480,-304.44,939.03,1593.63
22620,-3.8710,0.5618,-0.0851,-1148.19,1860.66,1093.63
22630,-3.8718,0.4495,-0.1731,-85.69,1110.41,-328.31
22640,-3.8723,0.3215,-0.2930,1539.31,1844.60,1249.63
22650,-3.8727,0.1820,-0.4237,1164.31,-1499.39,561.89
22660,-3.8729,0.0465,-0.5479,-695.07,1765.93,1421.02
22670,-3.8730,-0.0890,-0.6573,1961.18,1875.06,-688.60
22680,-3.8729,-0.2356,-0.7427,617.43,-125.18,1123.66
22690,-3.8728,-0.3938,-0.7933,1851.81,952.64,1920.41
22700,-3.8726,-0.5531,-0.8208,1601.81,-1532.04,904.66
22710,-3.8723,-0.7029,-0.8521,1211.18,-1047.97,-1064.15
22720,-3.8718,-0.8461,-0.8893,-1960.69,-1048.28,1201.42
22730,-3.8712,-1.0032,-0.9132,-288.82,-1814.21,13.85
