timestamp_ms,ax,ay,az,gx,gy,gz
0,-3.8718,0.4484,-0.5902,-1804.44,1625.55,-1048.10
10,-3.8719,0.6410,-0.5956,1398.68,453.98,-1423.03
20,-3.8719,0.8473,-0.5999,-1945.07,-233.15,1155.03
30,-3.8719,1.0223,-0.5745,461.18,-779.60,795.65
40,-3.8721,1.1891,-0.5459,-1132.57,-1529.30,-266.78
50,-3.8721,1.3929,-0.5330,211.18,-1872.68,-1688.60
60,-3.8721,1.6144,-0.5104,-1695.07,-216.06,-922.97
70,-3.8719,1.8231,-0.4728,-1351.32,-1325.01,-1032.29
80,-3.8718,2.0270,-0.4480,1367.43,-512.08,-125.98
90,-3.8717,2.2186,-0.4288,-538.82,-1339.84,-157.17
100,-3.8716,2.3712,-0.3842,-7.57,1113.65,-703.98
110,-3.8715,2.4664,-0.3301,-476.32,-1167.30,-547.67
120,-3.8712,2.4965,-0.2955,-288.82,1754.76,655.58
130,-3.8711,2.4534,-0.2634,-445.07,-1823.30,-1422.49
140,-3.8710,2.3470,-0.2166,-1960.69,-1713.99,-688.05
150,-3.8710,2.2266,-0.1799,429.93,285.83,-281.68
160,-3.8710,2.1302,-0.1626,1008.06,973.08,30.88
170,-3.8712,2.0392,-0.1307,679.93,-808.35,-1625.37
180,-3.8715,1.9180,-0.0911,1023.68,-730.41,-625.31
190,-3.8717,1.7745,-0.0748,1508.06,347.47,-859.56
200,-3.8719,1.6403,-0.0801,-851.32,-1574.71,-1406.43
210,-3.8722,1.5173,-0.0902,1961.18,1753.17,-765.81
220,-3.8723,1.4032,-0.1011,-1773.19,456.05,-1812.68
230,-3.8723,1.3016,-0.1278,-382.57,-934.81,702.88
240,-3.8722,1.1901,-0.1593,-1382.57,-356.87,171.57
250,-3.8721,1.0432,-0.1731,336.18,-388.31,-812.87
260,-3.8718,0.8767,-0.1954,1539.31,1845.76,1468.38
270,-3.8718,0.7219,-0.2432,226.81,-1013.92,-203.55
280,-3.8718,0.5616,-0.2848,414.31,876.40,1468.26
290,-3.8721,0.3444,-0.3101,-101.32,-452.09,-984.99
300,-3.8723,0.0773,-0.3668,86.18,313.17,-625.61
310,-3.8723,-0.2094,-0.4937,1898.68,1047.00,1952.39
320,-3.8721,-0.5203,-0.6674,1211.18,827.70,-125.98
330,-3.8715,-0.8317,-0.8522,1414.31,-1407.29,-1032.59
340,-3.8706,-1.1152,-1.0264,1554.93,-1064.15,13.92
350,-3.8698,-1.3344,-1.1658,1258.06,638.43,-1955.14
360,-3.8688,-1.4537,-1.2424,1211.18,-1205.75,-1299.19
370,-3.8679,-1.5022,-1.2308,1929.93,981.51,-877.44
380,-3.8673,-1.5459,-1.1495,-273.19,-1534.24,1185.06
390,-3.8671,-1.6033,-1.0807,-1866.94,871.95,-1877.26
400,-3.8669,-1.6663,-1.0583,-1210.69,1684.33,-408.39
410,-3.8667,-1.7576,-1.0027,-1273.19,543.58,747.92
420,-3.8667,-1.8571,-0.8755,-960.69,-331.60,716.74
430,-3.8671,-1.8879,-0.7318,-1695.07,-50.54,1248.23
440,-3.8678,-1.8081,-0.6010,-1648.19,-1659.97,-1017.09
450,-3.8687,-1.6439,-0.4769,570.56,-909.79,576.90
460,-3.8698,-1.4463,-0.3716,1586.18,-1034.48,1655.27
470,-3.8707,-1.2582,-0.2892,-1116.94,450.26,1530.52
480,-3.8715,-1.0956,-0.2255,-1038.82,-1002.50,-1969.36
490,-3.8719,-0.9551,-0.1960,-226.32,-845.95,-437.99
500,-3.8721,-0.8293,-0.2112,1758.06,-1080.02,405.82
510,-3.8722,-0.7203,-0.2599,1851.81,982.73,-234.80
520,-3.8719,-0.6141,-0.3250,-195.07,-1251.46,983.83
530,-3.8717,-0.4880,-0.3929,1398.68,-1579.35,1280.58
540,-3.8715,-0.3248,-0.4520,1539.31,1717.77,546.08
550,-3.8715,-0.1296,-0.4845,-1570.07,-1844.42,-375.92
560,-3.8715,0.0681,-0.4874,-585.69,1999.69,1186.52
570,-3.8717,0.2603,-0.4916,726.81,1609.50,-954.10
580,-3.8718,0.4490,-0.5115,1320.56,1078.61,1811.52
590,-3.8718,0.6099,-0.5237,1476.81,-1467.90,77.09
600,-3.8718,0.7509,-0.5186,-1929.44,969.91,639.59
610,-3.8718,0.9174,-0.5219,117.43,1626.46,-1938.54
620,-3.8717,1.1285,-0.5420,1429.93,1204.90,1030.21
630,-3.8716,1.3444,-0.5459,461.18,-1372.80,1655.15
640,-3.8715,1.5199,-0.5177,86.18,-1872.38,1795.78
650,-3.8713,1.6538,-0.4862,-1445.07,1737.30,498.96
660,-3.8713,1.7610,-0.4696,-304.44,1768.80,-1329.10
670,-3.8712,1.8489,-0.4514,1414.31,-105.96,61.52
680,-3.8713,1.9054,-0.4216,664.31,-1777.65,-266.54
690,-3.8713,1.9304,-0.3879,-101.32,-1965.09,1592.90
700,-3.8715,1.9308,-0.3571,-898.19,-1652.53,-1782.04
710,-3.8716,1.9075,-0.3297,-851.32,-1699.40,-1828.86
720,-3.8717,1.8672,-0.3082,164.31,1800.60,1311.83
730,-3.8718,1.8248,-0.2893,-991.94,550.48,108.76
740,-3.8721,1.7773,-0.2644,1586.18,-1027.71,-125.61
750,-3.8721,1.7112,-0.2271,-491.94,-1840.33,733.83
760,-3.8722,1.6240,-0.1870,-960.69,-1059.20,-1922.36
770,-3.8723,1.5249,-0.1525,-116.94,65.61,-328.49
780,-3.8723,1.4313,-0.1173,-804.44,487.30,890.32
790,-3.8724,1.3599,-0.0731,-788.82,987.12,984.13
800,-3.8726,1.3149,-0.0203,-1929.44,-1356.75,499.82
810,-3.8727,1.2737,0.0333,320.56,1408.81,1687.44
820,-3.8727,1.2078,0.0902,-960.69,268.07,-1859.31
830,-3.8726,1.1173,0.1375,-1398.19,-450.81,1218.87
840,-3.8724,1.0131,0.1514,-976.32,1595.89,-1921.63
850,-3.8722,0.8970,0.1324,1679.93,-623.05,281.49
860,-3.8721,0.7817,0.0823,-1179.44,954.83,-1343.51
870,-3.8718,0.6722,0.0035,70.56,-1467.22,1187.62
880,-3.8716,0.5446,-0.0875,-1945.07,454.41,578.12
890,-3.8713,0.3695,-0.1868,1711.18,797.91,171.69
900,-3.8711,0.1318,-0.2943,-695.07,94.42,1515.26
910,-3.8707,-0.1514,-0.3922,883.06,-1671.63,-1531.86
920,-3.8702,-0.4126,-0.4775,633.06,1812.19,874.21
930,-3.8700,-0.6019,-0.5531,-804.44,-1110.23,-79.10
940,-3.8698,-0.7454,-0.6232,-1038.82,1217.53,1608.28
950,-3.8696,-0.8647,-0.7461,601.81,248.54,-876.22
960,-3.8693,-0.9771,-0.9153,1320.56,513.92,-1157.71
970,-3.8688,-1.1141,-1.0372,-1054.44,-1142.58,-64.33
980,-3.8682,-1.2777,-1.0850,1398.68,-752.20,685.42
990,-3.8678,-1.4517,-1.0817,461.18,1138.12,763.49
1000,-3.8677,-1.6145,-1.0334,-1804.44,1559.63,-1127.14
1010,-3.8677,-1.7139,-0.9625,1351.81,-268.80,-423.95
1020,-3.8678,-1.7134,-0.9005,633.06,809.14,-1064.39
1030,-3.8680,-1.6427,-0.8176,695.56,746.64,1326.35
1040,-3.8685,-1.5475,-0.6855,1742.43,-643.86,-907.90
1050,-3.8691,-1.4454,-0.5344,1929.93,262.57,-95.09
1060,-3.8698,-1.3381,-0.4102,-1007.57,-393.49,280.15
1070,-3.8706,-1.2338,-0.3391,726.81,-487.00,-641.48
1080,-3.8712,-1.1375,-0.3049,-1913.82,606.93,-1281.92
1090,-3.8716,-1.0457,-0.2859,-1585.69,982.12,1874.39
1100,-3.8717,-0.9471,-0.2819,-1835.69,-580.20,15.01
1110,-3.8718,-0.8269,-0.2888,-1226.32,-64.39,-1656.86
1120,-3.8718,-0.6882,-0.3011,-1835.69,-954.77,-672.49
1130,-3.8717,-0.5522,-0.3197,-85.69,1467.35,1311.89
1140,-3.8717,-0.4323,-0.3419,1320.56,-907.35,1686.83
1150,-3.8718,-0.3186,-0.3618,679.93,249.15,-250.67
1160,-3.8718,-0.1754,-0.3746,-773.19,1702.45,452.39
1170,-3.8719,0.0115,-0.3718,1554.93,62.13,921.14
1180,-3.8721,0.2015,-0.3530,1476.81,406.25,-1594.48
1190,-3.8721,0.3512,-0.3325,1804.93,-1187.13,77.39
1200,-3.8722,0.4542,-0.3286,961.18,1438.17,249.33
1210,-3.8724,0.5660,-0.3441,-1851.32,1938.35,-16.30
1220,-3.8724,0.7286,-0.3633,461.18,-45.78,-1719.48
1230,-3.8723,0.9323,-0.3673,1273.68,1501.40,389.89
1240,-3.8722,1.1475,-0.3431,-663.82,986.15,655.52
1250,-3.8721,1.3486,-0.2993,-1116.94,80.32,1421.20
1260,-3.8719,1.5317,-0.2617,633.06,1690.12,1061.89
1270,-3.8719,1.7028,-0.2379,70.56,-1497.01,1952.58
1280,-3.8719,1.8759,-0.2134,1961.18,1550.17,1296.39
1290,-3.8719,2.0228,-0.1814,117.43,691.16,-1750.43
1300,-3.8718,2.0847,-0.1395,-1070.07,785.16,1062.13
1310,-3.8718,2.0515,-0.0890,-1148.19,-1855.35,-1094.06
1320,-3.8718,1.9874,-0.0535,-1398.19,613.34,1843.57
1330,-3.8719,1.9540,-0.0426,-1601.32,1160.10,1906.13
1340,-3.8721,1.9407,-0.0275,-1882.57,-1449.34,171.75
1350,-3.8723,1.9143,0.0183,414.31,488.16,1984.31
1360,-3.8724,1.8663,0.0803,1039.31,-1652.53,500.00
1370,-3.8726,1.7953,0.1277,-1101.32,-1715.15,625.12
1380,-3.8727,1.7029,0.1519,1804.93,347.23,-1234.13
1390,-3.8727,1.5986,0.1566,1976.81,-559.20,-749.76
1400,-3.8726,1.5059,0.1581,633.06,49.99,875.31
1410,-3.8726,1.4426,0.1747,758.06,237.30,1797.18
1420,-3.8726,1.4038,0.2029,664.31,-1637.82,-1546.57
1430,-3.8724,1.3784,0.2179,-304.44,1971.44,1125.37
1440,-3.8723,1.3617,0.1997,445.56,-106.69,-1499.63
1450,-3.8722,1.3356,0.1492,-1695.07,1565.12,-609.01
1460,-3.8721,1.2518,0.0739,-1038.82,-903.69,703.37
1470,-3.8722,1.0636,-0.0253,242.43,1455.57,-1468.63
1480,-3.8723,0.7671,-0.1793,148.68,767.70,-1312.56
1490,-3.8724,0.4370,-0.4142,-1804.44,1048.34,-78.49
1500,-3.8723,0.1427,-0.6854,-54.44,-1014.83,-1985.23
1510,-3.8721,-0.1222,-0.9203,-1726.32,265.87,-610.72
1520,-3.8715,-0.3654,-1.1072,367.43,-1781.49,13.79
1530,-3.8708,-0.6002,-1.2540,1242.43,-1703.86,-1908.45
1540,-3.8701,-0.8376,-1.3433,-820.07,-501.22,1497.50
1550,-3.8696,-1.0443,-1.3909,789.31,76.48,-440.12
1560,-3.8694,-1.2236,-1.4210,-1663.82,1982.30,1669.13
1570,-3.8696,-1.3967,-1.4329,-616.94,-1877.44,-565.31
1580,-3.8700,-1.5186,-1.4426,1226.81,606.63,-1362.18
1590,-3.8704,-1.5831,-1.4535,1633.06,-643.62,1372.13
1600,-3.8707,-1.6394,-1.4207,1367.43,1965.64,-1127.87
1610,-3.8710,-1.7050,-1.3257,-1835.69,-1831.36,-34.06
1620,-3.8710,-1.7689,-1.2003,1773.68,-1675.23,341.13
1630,-3.8711,-1.8149,-1.0857,1586.18,-1628.48,-1799.26
1640,-3.8712,-1.8264,-0.9978,-304.44,1043.27,-1142.76
1650,-3.8713,-1.7988,-0.9297,-1773.19,293.27,1919.92
1660,-3.8715,-1.7443,-0.8711,1758.06,1012.08,576.29
1670,-3.8717,-1.6555,-0.8058,742.43,512.21,826.42
1680,-3.8721,-1.5118,-0.7426,101.81,871.77,1029.66
1690,-3.8726,-1.3180,-0.6963,-1507.57,965.76,-938.96
1700,-3.8729,-1.1261,-0.6141,-695.07,-1112.00,-1970.15
1710,-3.8732,-1.0167,-0.4181,-132.57,1403.99,-1204.35
1720,-3.8730,-0.9747,-0.3094,1867.43,-1502.01,-1063.35
1730,-3.8727,-0.8378,-0.5294,-757.57,404.30,-719.36
1740,-3.8723,-0.5375,-0.8655,773.68,248.35,1233.34
1750,-3.8723,-0.1936,-1.0115,-788.82,1233.28,1701.42
1760,-3.8726,0.0780,-0.9247,-773.19,-1453.55,935.49
1770,-3.8730,0.2930,-0.7361,1992.43,1640.75,-970.58
1780,-3.8735,0.5233,-0.5664,1508.06,1781.80,-251.46
1790,-3.8738,0.7781,-0.4485,-1007.57,-499.02,264.47
1800,-3.8739,1.0129,-0.3560,-398.19,-1404.79,-1000.92
1810,-3.8735,1.1653,-0.2678,1664.31,-1560.55,-1672.61
1820,-3.8729,1.2433,-0.2133,1164.31,1721.01,1108.83
1830,-3.8724,1.3279,-0.2126,-851.32,705.51,-437.93
1840,-3.8719,1.4760,-0.2297,1976.81,783.81,1702.70
1850,-3.8716,1.6473,-0.2101,929.93,-1403.38,671.39
1860,-3.8713,1.7506,-0.1484,-1132.57,1112.55,-469.18
1870,-3.8710,1.8046,-0.0886,86.18,1003.42,-594.06
1880,-3.8706,1.8685,-0.0590,-1007.57,659.73,-531.43
1890,-3.8702,1.9277,-0.0344,-820.07,456.73,-1125.12
1900,-3.8700,1.9646,0.0150,-1241.94,-402.53,-234.50
1910,-3.8698,1.9875,0.0864,-523.19,1925.66,109.38
1920,-3.8698,2.0051,0.1445,-1585.69,-933.65,843.87
1930,-3.8698,2.0249,0.1793,664.31,-1496.09,172.12
1940,-3.8699,2.0259,0.2048,-804.44,-1042.97,-609.07
1950,-3.8699,1.9689,0.2205,-679.44,-1777.34,-1124.63
1960,-3.8699,1.8478,0.2251,23.68,222.60,1531.68
1970,-3.8700,1.7028,0.2179,523.68,816.10,1250.43
1980,-3.8702,1.5807,0.1960,1961.18,-106.08,594.12
1990,-3.8706,1.4834,0.1654,-1663.82,1096.80,344.12
2000,-3.8711,1.3766,0.1409,1883.06,1174.74,-1452.82
2010,-3.8715,1.2377,0.1204,211.18,-1966.06,672.12
2020,-3.8719,1.0823,0.0857,-1570.07,-591.37,-93.57
2030,-3.8722,0.9395,0.0331,-1460.69,-1029.17,812.62
2040,-3.8726,0.8088,-0.0338,258.06,236.21,-328.06
2050,-3.8727,0.6654,-0.1152,-460.69,-326.60,1468.63
2060,-3.8728,0.4968,-0.2102,1179.93,1251.28,1671.63
2070,-3.8729,0.3025,-0.3065,-398.19,1094.67,-1844.18
2080,-3.8730,0.0892,-0.3918,-1273.19,766.17,-1922.49
2090,-3.8732,-0.1185,-0.4677,-570.07,1843.87,-1110.17
2100,-3.8732,-0.2937,-0.5331,836.18,156.01,-1141.54
2110,-3.8730,-0.4247,-0.5940,-1585.69,-219.36,-1688.60
2120,-3.8729,-0.5321,-0.6566,1648.68,-16.48,-735.60
2130,-3.8727,-0.6685,-0.7236,-101.32,-32.35,498.66
2140,-3.8726,-0.8910,-0.8113,-1554.44,-610.72,-704.59
2150,-3.8722,-1.1812,-0.9016,1961.18,170.10,779.66
2160,-3.8718,-1.4419,-0.9762,820.56,607.06,1826.35
2170,-3.8713,-1.6289,-1.0327,-554.44,-940.37,-1970.70
2180,-3.8708,-1.7472,-1.0461,-491.94,-175.11,1185.42
2190,-3.8706,-1.7876,-1.0208,367.43,-1894.04,-189.58
2200,-3.8704,-1.7616,-0.9828,-804.44,1355.83,1029.24
2210,-3.8704,-1.7133,-0.9375,-1476.32,-1784.73,873.05
2220,-3.8705,-1.6719,-0.8855,711.18,12.27,1123.17
2230,-3.8706,-1.6340,-0.8258,-1991.94,-1331.42,670.10
2240,-3.8707,-1.5817,-0.7555,-1148.19,-1690.73,623.35
2250,-3.8710,-1.5011,-0.6831,1554.93,-690.61,-376.53
2260,-3.8711,-1.3955,-0.6149,-132.57,575.13,279.91
2270,-3.8715,-1.2729,-0.5540,1383.06,1309.75,-423.10
2280,-3.8717,-1.1455,-0.5038,1070.56,1106.87,-797.97
2290,-3.8719,-1.0349,-0.4601,1383.06,-471.01,-344.79
2300,-3.8721,-0.9473,-0.4172,-460.69,1122.92,1295.96
2310,-3.8723,-0.8654,-0.3879,-1241.94,-1392.52,-47.73
2320,-3.8724,-0.7755,-0.3757,1242.43,-1642.33,-1282.04
2330,-3.8726,-0.6780,-0.3601,742.43,-79.65,-1922.67
2340,-3.8727,-0.5708,-0.3304,1226.81,1920.53,-1141.36
2350,-3.8727,-0.4496,-0.2950,-1054.44,1717.59,93.08
2360,-3.8728,-0.3143,-0.2671,-1538.82,-1750.92,749.39
2370,-3.8729,-0.1627,-0.2429,-226.32,1827.45,952.58
2380,-3.8730,0.0262,-0.2125,-820.07,921.51,1155.76
2390,-3.8732,0.2805,-0.1768,-632.57,796.88,-1844.18
2400,-3.8732,0.5719,-0.1340,-85.69,1375.49,1265.26
2410,-3.8732,0.8311,-0.0691,1211.18,-1155.15,-1140.93
2420,-3.8730,1.0092,0.0162,-1616.94,-842.16,-1297.06
2430,-3.8728,1.1195,0.0797,1179.93,-1919.92,531.25
2440,-3.8727,1.2435,0.0892,-695.07,-1794.74,-406.13
2450,-3.8724,1.4139,0.0688,-820.07,-575.74,-46.75
2460,-3.8721,1.5847,0.0558,992.43,815.25,-1015.50
2470,-3.8716,1.7405,0.0531,-1148.19,-856.32,500.06
2480,-3.8712,1.8761,0.0592,-1210.69,-1199.77,-687.44
2490,-3.8707,1.9576,0.0872,148.68,-418.21,-968.69
2500,-3.8702,1.9987,0.1276,-1413.82,-839.97,1515.75
2510,-3.8699,2.0312,0.1663,-163.82,331.97,578.37
2520,-3.8696,2.0507,0.2047,8.06,1285.22,1359.68
2530,-3.8694,2.0553,0.2391,-1507.57,-1792.91,765.99
2540,-3.8693,2.0408,0.2635,-913.82,-1386.66,-1827.70
2550,-3.8691,1.9724,0.2783,1226.81,1738.34,781.74
2560,-3.8693,1.8300,0.2852,476.81,-371.15,-749.51
2570,-3.8694,1.6373,0.2721,-1757.57,503.54,844.30
2580,-3.8698,1.4236,0.2290,1586.18,-1168.70,1859.86
2590,-3.8702,1.2073,0.1763,-1773.19,1315.25,-1577.70
2600,-3.8708,1.0184,0.1368,-1460.69,-1435.18,-390.32
2610,-3.8715,0.8798,0.1040,-1632.57,1517.58,-124.76
2620,-3.8719,0.7811,0.0719,617.43,1314.21,1484.56
2630,-3.8724,0.6996,0.0425,-7.57,1204.59,1250.12
2640,-3.8729,0.6169,0.0045,1554.93,1438.84,-906.19
2650,-3.8733,0.5142,-0.0542,-1023.19,579.28,-78.12
2660,-3.8734,0.3828,-0.1183,1820.56,1063.48,906.13
2670,-3.8735,0.2394,-0.1654,1008.06,860.11,-1484.62
2680,-3.8734,0.1169,-0.2063,-1351.32,-1171.45,1171.51
2690,-3.8732,0.0260,-0.2700,-1023.19,1593.93,624.57
2700,-3.8729,-0.0552,-0.3639,-663.82,1437.50,-813.05
2710,-3.8724,-0.1411,-0.4762,945.56,1437.38,93.02
2720,-3.8719,-0.2390,-0.5692,1945.56,-937.81,467.77
2730,-3.8715,-0.3513,-0.5950,1414.31,-844.24,-1735.53
2740,-3.8711,-0.4619,-0.5605,-960.69,-141.36,-532.47
2750,-3.8708,-0.5735,-0.5223,883.06,264.71,-1829.22
2760,-3.8707,-0.6975,-0.5308,-1398.19,1155.09,-485.41
2770,-3.8704,-0.8347,-0.5767,-1273.19,76.72,1280.21
2780,-3.8700,-0.9855,-0.6178,1164.31,-1798.52,-251.16
2790,-3.8695,-1.1370,-0.6371,1867.43,935.55,967.53
2800,-3.8694,-1.2600,-0.6355,-1523.19,-1533.51,-173.16
2810,-3.8693,-1.3320,-0.6158,-1273.19,-1330.63,451.84
2820,-3.8694,-1.3624,-0.5869,1508.06,1184.88,1514.40
2830,-3.8695,-1.3715,-0.5519,1617.43,887.94,-1907.41
2840,-3.8696,-1.3746,-0.5115,461.18,1372.31,-626.10
2850,-3.8698,-1.3817,-0.4705,54.93,-1455.81,-516.66
2860,-3.8699,-1.3862,-0.4320,-851.32,-205.87,186.52
2870,-3.8702,-1.3608,-0.3962,-1429.44,716.00,1530.40
2880,-3.8706,-1.2915,-0.3730,1820.56,1294.19,1858.58
2890,-3.8710,-1.1962,-0.3645,-1304.44,263.06,-47.61
2900,-3.8711,-1.1008,-0.3588,-1101.32,1356.99,1343.02
2910,-3.8712,-1.0251,-0.3580,-898.19,-1908.45,1218.02
2920,-3.8713,-0.9684,-0.3657,789.31,-1814.51,1702.39
2930,-3.8715,-0.9171,-0.3811,54.93,1201.23,1718.02
2940,-3.8716,-0.8594,-0.4037,-1382.57,-767.46,1280.46
2950,-3.8717,-0.7865,-0.4290,-1991.94,342.04,749.21
2960,-3.8718,-0.6997,-0.4429,-663.82,1107.79,358.52
2970,-3.8719,-0.6063,-0.4393,-1554.44,-673.28,280.33
2980,-3.8722,-0.5104,-0.4226,-1601.32,-219.97,-360.29
2990,-3.8723,-0.4075,-0.3961,-1320.07,1920.84,1546.02
3000,-3.8726,-0.2871,-0.3650,-148.19,1311.65,-1719.54
3010,-3.8728,-0.1351,-0.3352,-741.94,1296.26,-1438.23
3020,-3.8730,0.0520,-0.3024,-1288.82,1109.07,-860.05
3030,-3.8732,0.2720,-0.2706,-1335.69,1296.94,-1984.99
3040,-3.8732,0.5049,-0.2473,-1179.44,1359.86,749.45
3050,-3.8732,0.7308,-0.2281,633.06,344.73,-1187.99
3060,-3.8730,0.9360,-0.2103,1554.93,-1201.72,-297.36
3070,-3.8728,1.1141,-0.1791,-179.44,1079.90,-1078.55
3080,-3.8726,1.2731,-0.1350,-1382.57,1080.26,-1500.37
3090,-3.8723,1.4221,-0.0895,-1038.82,-1278.81,1780.94
3100,-3.8721,1.5424,-0.0426,-1960.69,549.62,-375.18
3110,-3.8716,1.6158,-0.0035,1429.93,-1450.13,1171.75
3120,-3.8712,1.6675,0.0258,-1163.82,-450.01,1984.31
3130,-3.8710,1.7198,0.0648,1445.56,-699.89,1671.88
3140,-3.8708,1.7947,0.1173,148.68,300.23,78.25
3150,-3.8710,1.9030,0.1573,1726.81,-980.90,-1015.44
3160,-3.8710,2.0299,0.1819,-413.82,144.29,1062.81
3170,-3.8710,2.1426,0.2235,-163.82,-714.84,875.31
3180,-3.8710,2.2101,0.2789,-1741.94,613.53,-1124.57
3190,-3.8708,2.2181,0.3025,-1101.32,-292.60,-1718.26
3200,-3.8707,2.1719,0.2804,-70.07,-1276.98,-1468.20
3210,-3.8706,2.0880,0.2346,-1991.94,-105.16,-702.64
3220,-3.8704,1.9747,0.1854,-726.32,-1964.72,187.93
3230,-3.8702,1.8291,0.1401,773.68,-261.78,656.56
3240,-3.8702,1.6615,0.1014,-1866.94,1941.04,-1015.38
3250,-3.8702,1.4880,0.0764,679.93,987.61,1265.81
3260,-3.8705,1.3263,0.0637,-1523.19,1784.12,-1734.25
3270,-3.8708,1.1873,0.0416,1773.68,158.81,1797.00
3280,-3.8713,1.0750,0.0042,-23.19,1330.38,-1546.81
3290,-3.8717,0.9948,-0.0403,1601.81,533.33,203.12
3300,-3.8721,0.9329,-0.0916,-663.82,-1154.36,1499.88
3310,-3.8723,0.8567,-0.1506,-585.69,283.02,-656.43
3320,-3.8723,0.7404,-0.2114,1664.31,720.40,1077.82
3330,-3.8723,0.5854,-0.2692,-1226.32,938.90,1233.95
3340,-3.8723,0.4076,-0.3346,-1054.44,1547.97,-906.80
3350,-3.8722,0.2268,-0.4059,179.93,1172.67,-1703.80
3360,-3.8721,0.0582,-0.4528,1039.31,47.30,-1907.04
3370,-3.8719,-0.0889,-0.4578,-538.82,-1953.06,1124.08
3380,-3.8719,-0.2053,-0.4312,633.06,1421.69,-938.42
3390,-3.8718,-0.2852,-0.3944,1726.81,827.70,342.90
3400,-3.8718,-0.3300,-0.3806,-491.94,1530.64,1030.46
3410,-3.8718,-0.3564,-0.3953,1773.68,-703.80,1327.33
3420,-3.8718,-0.3822,-0.4176,-1616.94,1421.14,-1422.67
3430,-3.8717,-0.4070,-0.4446,-913.82,-1438.29,-1000.85
3440,-3.8715,-0.4287,-0.4739,-85.69,-891.48,-360.29
3450,-3.8711,-0.4777,-0.4940,1133.06,-641.48,-579.10
3460,-3.8707,-0.5809,-0.5033,-1132.57,780.27,-266.60
3470,-3.8704,-0.7274,-0.5127,1648.68,-407.41,1858.34
3480,-3.8701,-0.8888,-0.5160,-1101.32,-1610.84,764.59
3490,-3.8700,-1.0332,-0.4976,-1757.57,1966.98,498.96
3500,-3.8700,-1.1339,-0.4609,-241.94,326.05,1045.90
3510,-3.8701,-1.1853,-0.4187,-1132.57,1013.37,-1469.67
3520,-3.8702,-1.2047,-0.3821,289.31,-1580.44,1327.27
3530,-3.8705,-1.2103,-0.3536,1804.93,-893.01,-1422.67
3540,-3.8706,-1.2166,-0.3324,1086.18,-1252.38,671.14
3550,-3.8707,-1.2300,-0.3157,289.31,1466.37,780.58
3560,-3.8708,-1.2407,-0.3032,-1429.44,-393.07,-1735.05
3570,-3.8708,-1.2350,-0.2916,1195.56,1200.68,327.51
3580,-3.8710,-1.2052,-0.2758,1929.93,-1314.94,-1094.36
3590,-3.8710,-1.1536,-0.2640,1742.43,716.37,1999.45
3600,-3.8710,-1.0890,-0.2571,351.81,-1783.51,421.33
3610,-3.8711,-1.0195,-0.2415,617.43,-892.76,936.95
3620,-3.8712,-0.9427,-0.2137,1508.06,1107.36,343.26
3630,-3.8715,-0.8530,-0.1864,-663.82,654.36,-422.30
3640,-3.8716,-0.7599,-0.1643,-1179.44,154.54,-1812.87
3650,-3.8717,-0.6794,-0.1429,-1257.57,-1017.15,77.76
3660,-3.8719,-0.6129,-0.1261,1039.31,1717.41,1874.69
3670,-3.8721,-0.5503,-0.1169,1554.93,-126.22,15.32
3680,-3.8723,-0.4796,-0.1102,1570.56,1045.78,-1484.62
3690,-3.8724,-0.3955,-0.0991,-1382.57,1905.27,1812.26
3700,-3.8726,-0.3051,-0.0797,1383.06,-672.67,-1734.62
3710,-3.8727,-0.2141,-0.0571,961.18,1811.89,-1047.06
3720,-3.8728,-0.1097,-0.0397,601.81,702.70,-703.25
3730,-3.8728,0.0264,-0.0231,1961.18,-1062.74,562.38
3740,-3.8729,0.1923,0.0001,-616.94,1046.88,-703.19
3750,-3.8729,0.3914,0.0264,617.43,15.99,-1265.62
3760,-3.8729,0.6390,0.0583,-1898.19,-624.27,-765.62
3770,-3.8728,0.9302,0.1183,1804.93,-530.03,1843.81
3780,-3.8727,1.2242,0.2050,-929.44,-857.60,-1859.19
3790,-3.8726,1.4973,0.2863,711.18,-1763.24,1859.74
3800,-3.8724,1.7463,0.3505,-335.69,643.49,953.67
3810,-3.8723,1.9335,0.4121,-460.69,862.73,1469.42
3820,-3.8722,2.0469,0.4636,-507.57,753.72,-530.46
3830,-3.8719,2.1250,0.4777,-1991.94,-652.28,-1592.90
3840,-3.8717,2.1722,0.4685,8.06,1144.78,-249.08
3850,-3.8713,2.1781,0.4640,-1945.07,-27.04,-358.52
3860,-3.8708,2.1595,0.4625,-1195.07,-605.16,735.23
3870,-3.8705,2.1102,0.4523,429.93,-792.66,-1655.40
3880,-3.8701,2.0114,0.4257,-1882.57,1894.71,-1077.27
3890,-3.8699,1.8826,0.3793,1461.18,-1511.72,-217.96
3900,-3.8698,1.7457,0.3254,976.81,550.54,-296.14
3910,-3.8698,1.5974,0.2817,-538.82,1659.61,-358.76
3920,-3.8699,1.4431,0.2455,476.81,65.61,-1280.70
3930,-3.8701,1.2869,0.2146,726.81,-575.32,47.30
3940,-3.8706,1.1409,0.1909,726.81,-528.75,359.74
3950,-3.8712,1.0081,0.1604,-1960.69,439.70,47.24
3960,-3.8719,0.8834,0.1193,1039.31,533.20,734.68
3970,-3.8727,0.7755,0.0747,1086.18,-732.67,1781.43
3980,-3.8733,0.6663,0.0227,-726.32,1563.96,-1687.38
3990,-3.8737,0.5354,-0.0455,1289.31,-1092.47,375.00
4000,-3.8739,0.3809,-0.1312,539.31,-1827.09,499.88
4010,-3.8740,0.2161,-0.2260,758.06,-796.14,1655.94
4020,-3.8740,0.0552,-0.3276,-335.69,-921.51,-391.11
4030,-3.8738,-0.1139,-0.4268,-929.44,-1937.44,-500.67
4040,-3.8734,-0.3062,-0.5072,1429.93,1390.38,-63.35
4050,-3.8729,-0.4924,-0.5806,820.56,-906.86,1592.71
4060,-3.8726,-0.6459,-0.6561,976.81,1702.15,-266.78
4070,-3.8721,-0.7814,-0.7163,1336.18,29.97,-1016.91
4080,-3.8716,-0.9264,-0.7643,-7.57,326.54,1451.72
4090,-3.8712,-1.0803,-0.8184,1429.93,-1814.33,873.47
4100,-3.8710,-1.2352,-0.8583,1726.81,-736.51,-1001.65
4110,-3.8706,-1.3807,-0.8610,1898.68,-1846.19,-1611.08
4120,-3.8702,-1.4902,-0.8567,-726.32,1809.75,1670.17
4130,-3.8700,-1.5544,-0.8760,1258.06,-1643.55,-1486.08
4140,-3.8698,-1.5862,-0.9047,1039.31,-112.43,560.73
4150,-3.8696,-1.5900,-0.9233,976.81,215.64,920.10
4160,-3.8696,-1.5629,-0.9263,492.43,1825.01,-1.83
4170,-3.8695,-1.5125,-0.9091,-38.82,1450.01,1232.54
4180,-3.8695,-1.4579,-0.8629,-1585.69,-346.74,1045.04
4190,-3.8696,-1.4125,-0.7892,1398.68,1559.63,-329.83
4200,-3.8698,-1.3622,-0.7092,-788.82,-1002.81,-829.71
4210,-3.8700,-1.2904,-0.6450,1648.68,1231.69,1639.22
4220,-3.8705,-1.1923,-0.5940,-1163.82,1450.56,-63.78
4230,-3.8708,-1.0795,-0.5592,-601.32,-18.01,795.65
4240,-3.8713,-0.9689,-0.5447,1836.18,435.36,-1204.22
4250,-3.8717,-0.8707,-0.5316,-7.57,-1705.08,-626.10
4260,-3.8719,-0.7867,-0.5132,554.93,-32.96,-1157.35
4270,-3.8721,-0.7045,-0.4963,-695.07,-1673.46,1311.46
4280,-3.8722,-0.6204,-0.4801,1836.18,482.97,-1438.48
4290,-3.8722,-0.5411,-0.4670,601.81,-1438.72,1358.40
4300,-3.8722,-0.4697,-0.4686,-1257.57,233.28,311.58
4310,-3.8723,-0.4110,-0.4781,-116.94,30.27,1905.33
4320,-3.8724,-0.3578,-0.4803,-601.32,-1188.35,952.15
4330,-3.8727,-0.2874,-0.4753,-1788.82,-1469.48,-1875.98
4340,-3.8729,-0.1881,-0.4641,-773.19,-828.74,-829.10
4350,-3.8730,-0.0519,-0.4474,-70.07,608.95,1436.58
4360,-3.8732,0.1427,-0.4283,1367.43,-1250.12,-1547.79
4370,-3.8732,0.3955,-0.3972,-1726.32,1172.12,-1703.98
4380,-3.8732,0.6869,-0.3539,-1366.94,1156.98,-1407.04
4390,-3.8732,1.0189,-0.3143,-70.07,-1295.59,-1250.73
4400,-3.8730,1.3600,-0.2733,-1570.07,-232.42,1343.08
4410,-3.8728,1.6388,-0.2135,-1913.82,1018.25,780.70
4420,-3.8724,1.8386,-0.1576,1773.68,675.05,249.57
4430,-3.8721,1.9821,-0.1272,-648.19,-168.33,-1031.62
4440,-3.8715,2.0911,-0.0999,1711.18,-277.40,1702.82
4450,-3.8708,2.2062,-0.0637,-335.69,-777.22,-1734.62
4460,-3.8702,2.3389,-0.0364,-1601.32,-151.98,1109.19
4470,-3.8698,2.4602,-0.0123,-616.94,-651.73,-1531.37
4480,-3.8693,2.5414,0.0193,-1085.69,-1573.36,-1484.44
4490,-3.8689,2.5593,0.0416,1304.93,-1526.31,-281.25
4500,-3.8685,2.4899,0.0487,-398.19,1333.07,812.56
4510,-3.8684,2.3302,0.0460,-1288.82,-1760.80,46.94
4520,-3.8685,2.1078,0.0347,-1726.32,1895.14,437.56
4530,-3.8689,1.8838,0.0039,1804.93,441.59,-1781.19
4540,-3.8694,1.7340,-0.0369,1133.06,503.66,-968.75
4550,-3.8699,1.6564,-0.0684,1961.18,-715.39,-1453.25
4560,-3.8704,1.5790,-0.1036,23.68,-746.77,-672.06
4570,-3.8707,1.4520,-0.1627,-1882.57,-1262.57,562.26
4580,-3.8712,1.2709,-0.2336,1867.43,-825.32,390.26
4590,-3.8718,1.0515,-0.2845,-1320.07,-1903.81,1046.39
4600,-3.8726,0.8219,-0.3167,-1398.19,-419.86,-1453.74
4610,-3.8733,0.6202,-0.3591,1211.18,-529.66,-422.55
4620,-3.8739,0.4503,-0.4070,-601.32,-1967.59,-1547.61
4630,-3.8745,0.2855,-0.4242,1648.68,-92.90,-485.23
4640,-3.8750,0.1182,-0.4177,554.93,1703.67,-422.73
4650,-3.8440,-0.0272,-0.4594,-866.94,-1468.57,-1360.23
4660,-3.8439,-0.1505,-0.5760,523.68,1218.69,-1922.79
4670,-3.8746,-0.3102,-0.6998,742.43,-1719.06,-1063.66
4680,-3.8738,-0.5330,-0.7798,304.93,-1563.11,201.72
4690,-3.8730,-0.7750,-0.8461,-210.69,202.03,-1985.90
4700,-3.8724,-0.9719,-0.9237,804.93,-282.78,-954.83
4710,-3.8718,-1.1210,-0.9812,-398.19,1779.30,248.17
4720,-3.8715,-1.2660,-0.9989,523.68,-1580.32,-205.08
4730,-3.8711,-1.4191,-1.0078,1961.18,153.75,-95.70
4740,-3.8708,-1.5626,-1.0343,-1632.57,-987.18,-689.51
4750,-3.8706,-1.6730,-1.0768,-7.57,-378.11,201.05
4760,-3.8705,-1.7363,-1.1284,1867.43,-1815.80,-830.26
4770,-3.8701,-1.7639,-1.1630,1758.06,-425.29,-299.13
4780,-3.8696,-1.7797,-1.1559,-1773.19,-847.23,-908.57
4790,-3.8693,-1.7780,-1.1216,211.18,59.02,-111.63
4800,-3.8690,-1.7426,-1.0814,429.93,449.65,-924.07
4810,-3.8690,-1.6699,-1.0302,961.18,1590.33,-627.14
4820,-3.8691,-1.5637,-0.9646,-1741.94,152.95,904.24
4830,-3.8695,-1.4335,-0.8822,-148.19,543.76,1091.86
4840,-3.8700,-1.2942,-0.7902,523.68,-909.06,1341.98
4850,-3.8706,-1.1595,-0.7167,-1648.19,-1127.56,-1126.59
4860,-3.8711,-1.0416,-0.6742,-413.82,278.93,14.22
4870,-3.8717,-0.9484,-0.6499,-1320.07,1716.67,-345.09
4880,-3.8719,-0.8728,-0.6332,-1382.57,826.23,264.34
4890,-3.8722,-0.8021,-0.6228,289.31,-1032.96,-1657.53
4900,-3.8723,-0.7289,-0.6189,1336.18,295.29,-501.22
4910,-3.8723,-0.6547,-0.6138,-1288.82,795.41,733.15
4920,-3.8724,-0.5815,-0.6002,211.18,1451.84,717.53
4930,-3.8727,-0.5048,-0.5880,1570.56,-813.66,-954.35
4940,-3.8729,-0.4167,-0.5785,-601.32,748.96,-610.53
4950,-3.8732,-0.3114,-0.5676,-1335.69,1967.90,-1110.53
4960,-3.8734,-0.1737,-0.5592,148.68,-641.24,-516.78
4970,-3.8735,0.0050,-0.5491,1773.68,437.13,-1735.47
4980,-3.8737,0.2089,-0.5376,648.68,1718.75,-1047.97
4990,-3.8737,0.4332,-0.5267,-1257.57,-812.13,280.15
5000,-3.8738,0.7108,-0.5004,-538.82,578.92,-1219.79
5010,-3.8737,1.0468,-0.4519,-1007.57,-45.53,123.96
5020,-3.8735,1.4404,-0.4050,1992.43,-1841.74,1905.33
5030,-3.8732,1.8534,-0.3776,383.06,159.06,-1172.67
5040,-3.8726,2.1836,-0.3420,1242.43,-324.52,-469.54
5050,-3.8718,2.3972,-0.2772,-491.94,222.96,-703.80
5060,-3.8711,2.5312,-0.2065,-1148.19,520.26,811.95
5070,-3.8706,2.6260,-0.1511,8.06,1567.44,-656.68
5080,-3.8700,2.6890,-0.1027,133.06,661.38,1484.07
5090,-3.8694,2.7166,-0.0646,195.56,-1135.38,562.26
5100,-3.8689,2.7098,-0.0498,-273.19,-260.38,-437.68
5110,-3.8683,2.6573,-0.0355,-1132.57,1630.25,406.13
5120,-3.8680,2.5480,-0.0098,148.68,-541.69,-1515.75
5130,-3.8680,2.3910,0.0031,-1851.32,-1245.06,1906.19
5140,-3.8684,2.2076,-0.0007,-1945.07,395.26,-1296.88
5150,-3.8690,2.0217,0.0001,-1413.82,-89.48,-484.44
5160,-3.8696,1.8479,-0.0011,-1210.69,19.53,875.00
5170,-3.8704,1.6819,-0.0216,539.31,-137.02,-1718.81
5180,-3.8710,1.4955,-0.0590,-710.69,1237.61,140.56
5190,-3.8717,1.2760,-0.1062,-570.07,455.99,1343.63
5200,-3.8724,1.0516,-0.1598,-663.82,-1591.31,1015.38
5210,-3.8732,0.8604,-0.2410,-1382.57,-451.11,655.88
5220,-3.8739,0.7000,-0.3668,-1866.94,1157.90,-344.24
5230,-3.8744,0.5304,-0.5116,1601.81,1048.22,-1281.98
5240,-3.8749,0.3202,-0.6321,-101.32,-1483.40,-266.66
5250,-3.8440,0.0715,-0.7124,992.43,-905.64,-454.41
5260,-3.8441,-0.1715,-0.7959,1164.31,812.62,1123.60
5270,-3.8441,-0.3806,-0.9049,-1945.07,-1859.74,-1048.46
5280,-3.8750,-0.5790,-1.0063,-710.69,186.71,-79.90
5290,-3.8741,-0.7765,-1.0947,1898.68,-798.03,435.49
5300,-3.8733,-0.9407,-1.1849,617.43,-110.90,-252.20
5310,-3.8722,-1.0756,-1.2668,-398.19,341.86,1200.81
5320,-3.8712,-1.2352,-1.3126,-1663.82,1857.24,-986.88
5330,-3.8702,-1.4430,-1.3202,1898.68,-2.44,1997.38
5340,-3.8695,-1.6458,-1.3306,-695.07,-971.62,434.88
5350,-3.8693,-1.7781,-1.3589,1351.81,1699.89,-18.25
5360,-3.8691,-1.8276,-1.3607,414.31,-1925.35,1575.44
5370,-3.8694,-1.7985,-1.3125,-1929.44,1840.15,-1737.06
5380,-3.8698,-1.7070,-1.2322,1804.93,12.08,1809.94
5390,-3.8701,-1.5948,-1.1222,1508.06,-1706.48,1200.68
5400,-3.8705,-1.4937,-0.9893,-132.57,371.83,-1627.20
5410,-3.8707,-1.4075,-0.8583,820.56,1387.70,498.05
5420,-3.8711,-1.3354,-0.7559,-148.19,-1846.56,-1173.58
5430,-3.8713,-1.2637,-0.6953,1070.56,-737.00,1951.60
5440,-3.8716,-1.1710,-0.6722,-1741.94,-986.88,-1142.03
5450,-3.8717,-1.0614,-0.6660,-1882.57,1966.43,1639.28
5460,-3.8718,-0.9534,-0.6509,148.68,-1236.45,1717.41
5470,-3.8719,-0.8541,-0.6232,1976.81,701.23,-1860.66
5480,-3.8721,-0.7549,-0.5946,-1320.07,248.29,1576.90
5490,-3.8723,-0.6517,-0.5780,-616.94,-95.28,-438.72
5500,-3.8724,-0.5491,-0.5729,586.18,-1970.03,717.59
5510,-3.8727,-0.4557,-0.5604,1726.81,-1313.60,1998.84
5520,-3.8729,-0.3632,-0.5317,1679.93,280.33,-954.22
5530,-3.8732,-0.2432,-0.4995,1523.68,-47.61,-219.85
5540,-3.8733,-0.0814,-0.4730,883.06,77.64,1655.27
5550,-3.8734,0.1226,-0.4430,1586.18,-531.43,1389.65
5560,-3.8735,0.3817,-0.4086,-304.44,-702.94,-1641.54
5570,-3.8735,0.6979,-0.3840,867.43,-296.14,421.02
5580,-3.8735,1.0588,-0.3551,1336.18,-1154.91,717.96
5590,-3.8734,1.4283,-0.2977,-460.69,-1451.11,186.77
5600,-3.8733,1.7794,-0.2216,-1163.82,1893.37,-719.36
5610,-3.8729,2.1030,-0.1617,-226.32,-355.96,-141.11
5620,-3.8723,2.3472,-0.1252,1195.56,-699.04,-1937.87
5630,-3.8717,2.4840,-0.0753,445.56,-26.67,-406.56
5640,-3.8710,2.5455,-0.0159,1961.18,-1635.80,-1672.06
5650,-3.8702,2.5609,0.0210,1836.18,1973.69,1218.69
5660,-3.8696,2.5459,0.0359,-195.07,-1307.56,-281.25
5670,-3.8690,2.5334,0.0496,1883.06,598.69,-640.56
5680,-3.8685,2.5234,0.0640,289.31,-1651.31,1765.69
5690,-3.8683,2.4609,0.0569,-991.94,192.38,1562.62
5700,-3.8683,2.3278,0.0204,-991.94,-713.99,859.44
5710,-3.8687,2.1454,-0.0256,1961.18,-1386.11,-390.62
5720,-3.8691,1.9199,-0.0563,-1382.57,722.90,-234.44
5730,-3.8698,1.6757,-0.0675,1758.06,800.60,-1843.87
5740,-3.8706,1.4602,-0.0798,-1507.57,-637.39,-656.43
5750,-3.8715,1.2960,-0.1095,-1085.69,1784.06,-1812.68
5760,-3.8723,1.1826,-0.1610,1898.68,1986.88,1718.51
5770,-3.8730,1.0978,-0.2380,-616.94,-607.12,62.13
5780,-3.8737,0.9916,-0.3442,523.68,1533.39,296.39
5790,-3.8740,0.8202,-0.4696,-1070.07,-60.61,593.02
5800,-3.8741,0.5795,-0.5918,992.43,-107.79,905.27
5810,-3.8741,0.2980,-0.6953,-1820.07,251.10,-1094.91
5820,-3.8740,0.0209,-0.7766,-1851.32,-999.45,-188.90
5830,-3.8738,-0.2104,-0.8584,-1320.07,593.75,-610.90
5840,-3.8734,-0.3988,-0.9554,1070.56,-1859.80,1592.04
5850,-3.8730,-0.5840,-1.0375,961.18,1717.96,310.61
5860,-3.8728,-0.7649,-1.0725,1258.06,-782.41,-1939.58
5870,-3.8724,-0.9044,-1.0781,-1898.19,-1267.15,419.74
5880,-3.8721,-0.9937,-1.0901,242.43,-1986.15,75.99
5890,-3.8718,-1.0764,-1.1202,820.56,482.42,-1627.14
5900,-3.8716,-1.2124,-1.1609,-1773.19,622.86,-1720.95
5910,-3.8713,-1.3983,-1.2213,820.56,-580.51,1778.93
5920,-3.8710,-1.5814,-1.3126,1023.68,-315.25,138.18
5930,-3.8706,-1.7299,-1.3804,1586.18,-3.11,1825.50
5940,-3.8702,-1.8285,-1.3639,-1413.82,-675.29,-1252.75
5950,-3.8700,-1.8528,-1.2762,1961.18,1433.90,-1893.31
5960,-3.8700,-1.7936,-1.1656,-1148.19,652.59,1372.50
5970,-3.8702,-1.6870,-1.0598,-1570.07,-1191.04,-1533.57
5980,-3.8705,-1.5930,-0.9670,70.56,356.08,1013.55
5990,-3.8708,-1.5392,-0.8912,101.81,231.26,-611.27
6000,-3.8711,-1.5071,-0.8376,-1007.57,1934.45,-1220.52
6010,-3.8713,-1.4661,-0.8060,-898.19,793.88,-626.65
6020,-3.8715,-1.3906,-0.7858,351.81,840.88,1076.54
6030,-3.8717,-1.2740,-0.7626,-1991.94,-565.25,-189.09
6040,-3.8718,-1.1364,-0.7252,929.93,-1596.25,-798.40
6050,-3.8719,-1.0062,-0.6752,-1445.07,-814.76,-1626.46
6060,-3.8722,-0.8975,-0.6284,-788.82,1591.74,-79.47
6070,-3.8724,-0.8075,-0.5928,1133.06,-423.65,-16.91
6080,-3.8726,-0.7257,-0.5667,648.68,139.04,76.97
6090,-3.8728,-0.6433,-0.5486,-882.57,-517.09,264.47
6100,-3.8732,-0.5519,-0.5366,1664.31,1795.59,-110.47
6110,-3.8734,-0.4454,-0.5273,1367.43,-672.97,-641.72
6120,-3.8737,-0.3260,-0.5109,-1007.57,514.71,-391.66
6130,-3.8738,-0.1913,-0.4869,-1726.32,-1375.67,498.96
6140,-3.8740,-0.0400,-0.4645,-476.32,1687.07,1905.27
6150,-3.8741,0.1262,-0.4457,-1116.94,562.38,733.46
6160,-3.8743,0.3297,-0.4344,164.31,-1046.63,1092.83
6170,-3.8744,0.5853,-0.4417,-1788.82,391.24,-1922.73
6180,-3.8744,0.9137,-0.4594,-1070.07,-530.15,30.33
6190,-3.8744,1.2948,-0.4565,961.18,1204.90,1170.96
6200,-3.8743,1.6433,-0.3680,1742.43,1565.00,-516.54
6210,-3.8739,1.9437,-0.1643,-1648.19,893.80,-141.36
6220,-3.8732,2.2404,0.0254,804.93,-1027.47,515.26
6230,-3.8722,2.4967,0.0105,-1226.32,-745.67,156.25
6240,-3.8711,2.6300,-0.1680,-413.82,1348.57,1078.12
6250,-3.8700,2.6403,-0.3032,648.68,-1494.87,359.01
6260,-3.8689,2.5950,-0.3086,1961.18,1192.63,171.26
6270,-3.8678,2.5500,-0.2274,164.31,505.07,202.51
6280,-3.8669,2.4930,-0.1339,-1585.69,-1104.43,1937.01
6290,-3.8665,2.4042,-0.0703,-882.57,-1135.80,-1922.18
6300,-3.8665,2.3113,-0.0518,-257.57,-995.36,1374.82
6310,-3.8669,2.2317,-0.0559,-148.19,1379.46,-1828.25
6320,-3.8677,2.1382,-0.0575,1664.31,848.08,640.50
6330,-3.8687,2.0038,-0.0658,1695.56,644.78,1156.13
6340,-3.8696,1.8436,-0.0828,492.43,-417.97,421.69
6350,-3.8706,1.6774,-0.1119,-7.57,1409.79,-1047.06
6360,-3.8713,1.4937,-0.1621,-1288.82,1675.11,-1640.87
6370,-3.8719,1.2936,-0.2301,-804.44,-747.13,-1844.12
6380,-3.8724,1.0901,-0.3092,1586.18,-1450.62,1483.89
6390,-3.8729,0.8870,-0.3926,-460.69,423.95,-859.99
6400,-3.8733,0.6925,-0.4841,1539.31,1751.71,-1610.17
6410,-3.8735,0.5042,-0.5793,648.68,-1967.41,249.02
6420,-3.8738,0.3138,-0.6670,539.31,1844.73,-1579.28
6430,-3.8738,0.1324,-0.7484,179.93,-1374.39,1842.41
6440,-3.8737,-0.0243,-0.8250,961.18,203.37,-1735.84
6450,-3.8734,-0.1770,-0.8881,898.68,-1578.19,1951.48
6460,-3.8732,-0.3595,-0.9272,1351.81,-1656.62,-1251.77
6470,-3.8728,-0.5509,-0.9431,1992.43,1327.39,60.67
6480,-3.8726,-0.6954,-0.9458,1492.43,-704.22,-689.39
6490,-3.8721,-0.7764,-0.9401,-1007.57,-1048.28,-1783.14
6500,-3.8716,-0.8120,-0.9353,633.06,-314.03,-158.14
6510,-3.8710,-0.8385,-0.9487,70.56,295.29,295.04
6520,-3.8706,-0.8948,-0.9896,679.93,-1423.52,1232.48
6530,-3.8704,-0.9995,-1.0435,1476.81,1341.98,-1080.08
6540,-3.8701,-1.1519,-1.0791,70.56,-1548.83,-1142.70
6550,-3.8699,-1.3259,-1.0847,570.56,1888.37,-1877.14
6560,-3.8698,-1.4824,-1.0646,-1710.69,1169.25,-49.01
6570,-3.8696,-1.5902,-1.0186,-1741.94,-252.93,-1299.01
6580,-3.8696,-1.6337,-0.9509,461.18,1637.51,1341.74
6590,-3.8699,-1.5961,-0.8732,-1101.32,-1706.36,-95.64
6600,-3.8701,-1.4993,-0.7946,-288.82,246.83,-1095.46
6610,-3.8705,-1.3895,-0.7235,101.81,-1690.43,-126.59
6620,-3.8707,-1.2881,-0.6644,-1851.32,-596.50,1529.79
6630,-3.8710,-1.2075,-0.6196,-866.94,-1033.81,1717.41
6640,-3.8711,-1.1486,-0.5931,1445.56,700.74,108.15
6650,-3.8713,-1.0996,-0.5786,992.43,91.49,-548.03
6660,-3.8715,-1.0469,-0.5592,-741.94,1950.93,-673.03
6670,-3.8716,-0.9808,-0.5336,-1991.94,435.42,-563.60
6680,-3.8717,-0.8958,-0.5121,-1538.82,-283.20,-954.22
6690,-3.8718,-0.7925,-0.4958,1351.81,-1533.02,-1891.66
6700,-3.8719,-0.6809,-0.4802,-1429.44,545.29,1030.27
6710,-3.8722,-0.5775,-0.4603,851.81,-1454.47,-204.10
6720,-3.8723,-0.4915,-0.4376,-1913.82,1092.59,-1797.79
6730,-3.8724,-0.4188,-0.4160,1101.81,-0.98,186.58
6740,-3.8727,-0.3540,-0.3979,-1601.32,-1235.23,1577.27
6750,-3.8729,-0.2832,-0.3755,-1304.44,1077.39,-1532.04
6760,-3.8732,-0.1790,-0.3491,-241.94,-47.49,-610.17
6770,-3.8733,-0.0237,-0.3269,1101.81,-672.24,639.89
6780,-3.8735,0.1740,-0.3018,976.81,-1828.19,-1563.17
6790,-3.8737,0.4017,-0.2672,-1726.32,1375.31,1718.14
6800,-3.8738,0.6929,-0.2272,-570.07,1797.61,-906.80
6810,-3.8737,1.0482,-0.1793,695.56,-1076.78,327.64
6820,-3.8734,1.4061,-0.1249,-1820.07,1048.89,1577.76
6830,-3.8728,1.7303,-0.0791,-7.57,18.31,390.38
6840,-3.8721,1.9805,-0.0334,1492.43,1878.36,-1297.06
6850,-3.8711,2.1174,0.0138,1508.06,-277.40,874.88
6860,-3.8702,2.1456,0.0667,-960.69,1769.71,1609.38
6870,-3.8696,2.0895,0.1417,-1351.32,535.40,-1062.38
6880,-3.8693,2.0002,0.2271,-538.82,-1855.35,1672.12
6890,-3.8693,1.9369,0.2987,39.31,1066.41,-1452.70
6900,-3.8694,1.8979,0.3464,-70.07,-1761.90,250.55
6910,-3.8698,1.8585,0.3741,-1054.44,347.41,1766.30
6920,-3.8701,1.8292,0.3815,1898.68,-105.77,1281.92
6930,-3.8705,1.8354,0.3741,-1851.32,831.67,235.11
6940,-3.8708,1.8680,0.3656,-1054.44,-105.83,188.17
6950,-3.8712,1.8818,0.3536,-882.57,-1199.52,1891.30
6960,-3.8715,1.8217,0.3248,883.06,1269.29,1016.30
6970,-3.8717,1.6555,0.2775,1179.93,1581.67,891.24
6980,-3.8719,1.4192,0.2169,-85.69,-481.20,844.24
6990,-3.8722,1.1948,0.1569,1664.31,-231.63,828.49
7000,-3.8724,1.0344,0.1139,945.56,80.44,1437.81
7010,-3.8727,0.9567,0.0890,414.31,-1419.86,-1109.19
7020,-3.8728,0.9382,0.0576,-1538.82,-607.54,1062.62
7030,-3.8729,0.9120,0.0027,101.81,-623.17,250.06
7040,-3.8730,0.8354,-0.0745,742.43,345.52,1406.25
7050,-3.8730,0.7145,-0.1801,-1054.44,-1529.66,1156.07
7060,-3.8730,0.5669,-0.3066,-538.82,954.47,-469.12
7070,-3.8728,0.4050,-0.4226,570.56,751.10,686.89
7080,-3.8727,0.2473,-0.5164,-148.19,1906.98,-532.10
7090,-3.8724,0.1057,-0.6038,-335.69,1906.68,-1188.54
7100,-3.8722,-0.0309,-0.6755,1539.31,-1281.07,-1094.97
7110,-3.8719,-0.1738,-0.7152,54.93,1546.81,-501.34
7120,-3.8716,-0.3196,-0.7329,1758.06,468.38,357.97
7130,-3.8713,-0.4701,-0.7444,-898.19,-1797.55,-1126.46
7140,-3.8708,-0.6293,-0.7480,-163.82,733.40,779.79
7150,-3.8704,-0.7905,-0.7404,-538.82,264.34,701.66
7160,-3.8700,-0.9391,-0.7302,-1179.44,1248.41,-1392.09
7170,-3.8698,-1.0684,-0.7266,-195.07,-1455.02,-1079.59
7180,-3.8696,-1.1794,-0.7312,-741.94,-986.51,639.16
7190,-3.8698,-1.2690,-0.7465,1039.31,-1580.44,139.16
7200,-3.8701,-1.3274,-0.7739,1570.56,466.25,-1407.71
7210,-3.8705,-1.3524,-0.7957,-1898.19,950.50,-876.53
7220,-3.8707,-1.3521,-0.8003,-1101.32,-1830.81,-1814.09
7230,-3.8708,-1.3351,-0.8002,-1054.44,1575.44,-939.09
7240,-3.8707,-1.3143,-0.7944,1117.43,1591.13,-1235.96
7250,-3.8705,-1.2926,-0.7753,-226.32,-1674.50,-79.71
7260,-3.8701,-1.2618,-0.7483,-1445.07,778.69,-1001.53
7270,-3.8699,-1.2139,-0.7222,-1507.57,231.87,-17.09
7280,-3.8696,-1.1414,-0.7012,633.06,-424.26,61.04
7290,-3.8698,-1.0469,-0.6801,1914.31,-1736.63,-1579.53
7300,-3.8700,-0.9426,-0.6532,-1991.94,966.67,-376.34
7310,-3.8702,-0.8420,-0.6267,-648.19,404.36,1108.09
7320,-3.8706,-0.7484,-0.6096,226.81,-204.77,92.47
7330,-3.8711,-0.6654,-0.5999,211.18,1982.91,1967.53
7340,-3.8715,-0.5955,-0.5920,-1163.82,-766.97,186.28
7350,-3.8718,-0.5331,-0.5845,-210.69,233.15,233.22
7360,-3.8722,-0.4717,-0.5801,-226.32,1202.03,-1157.41
7370,-3.8724,-0.4059,-0.5840,-366.94,1764.65,-610.53
7380,-3.8726,-0.3297,-0.5792,54.93,1264.83,1201.97
7390,-3.8728,-0.2330,-0.5508,1804.93,1874.33,-532.41
7400,-3.8729,-0.1161,-0.5122,-1820.07,1515.14,1123.90
7410,-3.8732,0.0148,-0.4886,1148.68,-1547.12,-1844.79
7420,-3.8734,0.1501,-0.4807,1898.68,1453.12,-344.73
7430,-3.8735,0.2896,-0.4591,-773.19,-1531.01,-1782.23
7440,-3.8737,0.4762,-0.4240,1070.56,1234.92,1702.21
7450,-3.8738,0.7595,-0.3989,961.18,1735.29,-1844.60
7460,-3.8738,1.1147,-0.3895,1226.81,938.96,780.46
7470,-3.8737,1.4459,-0.3794,-1304.44,-1857.24,499.21
7480,-3.8734,1.6779,-0.3591,1086.18,-559.69,-1032.04
7490,-3.8729,1.7990,-0.3339,-1226.32,-1965.52,1905.52
7500,-3.8724,1.8615,-0.3021,-1726.32,1269.10,-1688.17
7510,-3.8719,1.9474,-0.2598,-1726.32,1331.73,-797.49
7520,-3.8713,2.0773,-0.2028,1273.68,-1246.22,1124.45
7530,-3.8708,2.2094,-0.1223,1898.68,-1949.10,-141.05
7540,-3.8702,2.3018,-0.0231,-1195.07,348.02,109.13
7550,-3.8700,2.3431,0.0703,-1366.94,1051.33,-1140.69
7560,-3.8698,2.3422,0.1289,-70.07,1004.52,687.62
7570,-3.8698,2.3129,0.1465,-195.07,504.52,-515.38
7580,-3.8696,2.2617,0.1400,54.93,-1245.48,593.99
7590,-3.8696,2.1757,0.1169,1508.06,1926.27,1172.12
7600,-3.8696,2.0424,0.0822,-1507.57,-1027.04,750.18
7610,-3.8698,1.8734,0.0444,1429.93,-1480.41,-1812.38
7620,-3.8699,1.6918,0.0139,-195.07,1691.10,1859.44
7630,-3.8701,1.5110,-0.0096,554.93,1784.55,-796.88
7640,-3.8705,1.3502,-0.0365,1414.31,-1231.45,-15.69
7650,-3.8710,1.2292,-0.0621,836.18,-669.25,-172.00
7660,-3.8715,1.1619,-0.0869,1351.81,49.26,1421.75
7670,-3.8719,1.1415,-0.1313,726.81,877.26,218.57
7680,-3.8724,1.1354,-0.2146,-1882.57,-810.30,-1203.43
7690,-3.8727,1.1062,-0.3486,1336.18,533.45,1796.45
7700,-3.8728,1.0277,-0.5215,1601.81,-622.86,858.64
7710,-3.8729,0.8921,-0.6899,-445.07,1251.95,-438.54
7720,-3.8728,0.7168,-0.8171,-1804.44,-310.79,1982.97
7730,-3.8726,0.5426,-0.8904,-241.94,-592.41,1717.10
7740,-3.8722,0.4038,-0.9279,1461.18,-1967.71,-1642.40
7750,-3.8718,0.3088,-0.9558,-304.44,1235.11,-189.33
7760,-3.8715,0.2283,-0.9773,-460.69,1656.80,1279.36
7770,-3.8713,0.1140,-0.9742,1226.81,-1093.32,1044.92
7780,-3.8715,-0.0515,-0.9384,-1398.19,-702.94,-111.33
7790,-3.8716,-0.2454,-0.8938,1414.31,-93.87,-1283.14
7800,-3.8718,-0.4258,-0.8588,601.81,1608.89,-845.52
7810,-3.8721,-0.5557,-0.8312,1508.06,-1907.10,-282.96
7820,-3.8722,-0.6246,-0.8171,883.06,1623.90,-751.65
7830,-3.8722,-0.6711,-0.8210,54.93,-579.35,-111.02
7840,-3.8719,-0.7728,-0.8389,-1898.19,-1079.47,1623.35
7850,-3.8717,-0.9688,-0.8621,1086.18,639.10,-392.27
7860,-3.8712,-1.2302,-0.8792,8.06,1669.98,1467.04
7870,-3.8707,-1.4850,-0.8912,-1460.69,-518.07,1545.10
7880,-3.8702,-1.6655,-0.8938,1929.93,1934.57,701.35
7890,-3.8700,-1.7468,-0.8749,-1179.44,1606.08,-876.77
7900,-3.8699,-1.7302,-0.8290,414.31,27.83,-892.33
7910,-3.8699,-1.6497,-0.7728,-1460.69,1902.83,1998.35
7920,-3.8700,-1.5603,-0.7375,851.81,1090.52,1998.47
7930,-3.8701,-1.4912,-0.7252,289.31,1606.32,686.04
7940,-3.8704,-1.4261,-0.7196,1133.06,-815.43,-470.21
7950,-3.8705,-1.3397,-0.7089,1461.18,-96.56,-1017.09
7960,-3.8706,-1.2271,-0.6903,523.68,1278.63,-1673.28
7970,-3.8707,-1.0985,-0.6652,-1054.44,-346.19,1217.35
7980,-3.8710,-0.9740,-0.6317,-601.32,-1127.20,-423.22
7990,-3.8711,-0.8732,-0.5970,-663.82,-845.70,764.34
8000,-3.8713,-0.7988,-0.5731,242.43,-407.96,576.90
8010,-3.8717,-0.7373,-0.5563,1758.06,-1345.34,-704.28
8020,-3.8719,-0.6681,-0.5406,1633.06,811.04,1342.65
8030,-3.8723,-0.5797,-0.5284,-1507.57,-1188.84,-704.22
8040,-3.8726,-0.4683,-0.5167,1804.93,373.84,1873.96
8050,-3.8728,-0.3387,-0.4907,70.56,1874.08,1795.84
8060,-3.8730,-0.1857,-0.4524,648.68,1202.45,-1172.85
8070,-3.8732,0.0040,-0.4252,242.43,-1890.99,342.83
8080,-3.8734,0.2313,-0.4075,523.68,1578.12,-1094.60
8090,-3.8735,0.4880,-0.3752,1617.43,-155.82,-47.73
8100,-3.8735,0.7833,-0.3256,-1523.19,-30.33,-125.79
8110,-3.8734,1.1031,-0.2825,273.68,-1670.35,-1516.30
8120,-3.8732,1.3922,-0.2483,1211.18,-154.11,1280.64
8130,-3.8728,1.5955,-0.2207,-1788.82,221.44,1765.14
8140,-3.8723,1.7019,-0.2086,226.81,-246.89,-687.99
8150,-3.8716,1.7430,-0.1985,1851.81,1300.17,171.45
8160,-3.8710,1.7535,-0.1609,-882.57,-1402.89,1983.95
8170,-3.8704,1.7902,-0.0912,461.18,-590.33,562.13
8180,-3.8700,1.8787,-0.0057,1148.68,331.60,327.94
8190,-3.8699,1.9954,0.0944,476.81,-730.71,640.56
8200,-3.8700,2.1249,0.1937,-585.69,81.97,-999.82
8210,-3.8701,2.2599,0.2612,-7.57,800.96,-609.01
8220,-3.8701,2.3462,0.2852,1273.68,1441.89,-1155.76
8230,-3.8700,2.3309,0.2649,320.56,504.58,-686.95
8240,-3.8698,2.2251,0.2029,-1632.57,1910.77,-1421.39
8250,-3.8695,2.0664,0.1160,820.56,1973.08,1687.87
8260,-3.8694,1.8940,0.0172,508.06,-1152.22,-1140.44
8270,-3.8693,1.7111,-0.0846,-1554.44,-1793.21,968.75
8280,-3.8694,1.4862,-0.1816,-976.32,1175.17,1265.44
8290,-3.8698,1.2321,-0.2827,-1757.57,752.87,1249.63
8300,-3.8704,1.0157,-0.3917,1711.18,-185.12,-1625.61
8310,-3.8710,0.8757,-0.4890,-1976.32,1861.33,905.46
8320,-3.8716,0.7937,-0.5654,101.81,1407.96,1983.40
8330,-3.8719,0.7299,-0.6350,1601.81,-373.47,967.59
8340,-3.8722,0.6407,-0.7035,1429.93,-1279.85,-1720.03
8350,-3.8722,0.5096,-0.7675,-1976.32,1954.35,1404.85
8360,-3.8721,0.3417,-0.8164,1242.43,1766.60,795.35
8370,-3.8719,0.1443,-0.8386,-257.57,-499.39,1560.85
8380,-3.8718,-0.0592,-0.8302,-1523.19,656.49,592.10
8390,-3.8718,-0.2339,-0.8036,429.93,1749.88,1388.98
8400,-3.8718,-0.3638,-0.7731,-1929.44,1155.76,1467.16
8410,-3.8718,-0.4569,-0.7375,1445.56,1061.77,1529.72
8420,-3.8718,-0.5369,-0.6949,1523.68,1608.46,1217.29
8430,-3.8718,-0.6149,-0.6578,-710.69,-938.60,279.85
8440,-3.8719,-0.6888,-0.6387,1304.93,-188.72,-438.84
8450,-3.8718,-0.7712,-0.6296,-163.82,-1735.78,451.84
8460,-3.8718,-0.8744,-0.6261,1289.31,-579.65,-470.03
8470,-3.8716,-0.9860,-0.6322,86.18,-126.71,311.22
8480,-3.8715,-1.0941,-0.6346,1804.93,-908.20,-1735.66
8490,-3.8712,-1.1954,-0.6292,-38.82,-1220.95,483.09
8500,-3.8711,-1.2849,-0.6279,-1007.57,-518.01,1608.09
8510,-3.8710,-1.3633,-0.6260,-460.69,-361.94,1389.34
8520,-3.8708,-1.4236,-0.6194,1508.06,-112.06,451.84
8530,-3.8708,-1.4492,-0.6163,1789.31,731.57,-1329.35
8540,-3.8708,-1.4379,-0.6105,-1491.94,1122.13,-141.85
8550,-3.8707,-1.4021,-0.5936,-38.82,1872.13,576.90
8560,-3.8707,-1.3470,-0.5763,539.31,28.50,545.72
8570,-3.8708,-1.2729,-0.5641,-413.82,-1752.69,-829.28
8580,-3.8708,-1.1870,-0.5461,1070.56,-190.00,764.47
8590,-3.8710,-1.0977,-0.5176,70.56,-1892.94,1280.15
8600,-3.8712,-1.0095,-0.4893,-491.94,1763.43,-172.91
8610,-3.8713,-0.9211,-0.4738,-1210.69,1388.61,545.90
8620,-3.8716,-0.8312,-0.4731,-1898.19,-626.83,983.40
8630,-3.8718,-0.7441,-0.4768,1617.43,-548.52,1780.27
8640,-3.8721,-0.6621,-0.4760,758.06,-1017.09,-532.23
8650,-3.8722,-0.5833,-0.4702,-741.94,-907.59,-1016.60
8660,-3.8722,-0.5076,-0.4583,1351.81,-173.03,483.40
8670,-3.8723,-0.4333,-0.4414,-960.69,1358.34,-1157.17
8680,-3.8723,-0.3574,-0.4237,539.31,-485.23,530.33
8690,-3.8724,-0.2793,-0.4022,-1741.94,1780.52,1155.40
8700,-3.8726,-0.1925,-0.3811,258.06,530.70,671.08
8710,-3.8728,-0.1014,-0.3695,-632.57,-766.05,-391.42
8720,-3.8729,0.0077,-0.3643,-976.32,718.51,-1188.23
8730,-3.8730,0.1705,-0.3625,992.43,1375.00,-1766.36
8740,-3.8732,0.3887,-0.3627,1836.18,1594.06,-1813.23
8750,-3.8732,0.6685,-0.3566,1758.06,1578.86,389.89
8760,-3.8732,1.0054,-0.3286,1570.56,-1639.34,-1610.11
8770,-3.8729,1.3582,-0.2700,695.56,1939.45,514.95
8780,-3.8727,1.6663,-0.2112,1851.81,1440.12,-797.42
8790,-3.8722,1.8922,-0.1803,1289.31,971.98,-1687.93
8800,-3.8716,2.0188,-0.1665,-1788.82,925.54,952.76
8810,-3.8710,2.0363,-0.1499,-1585.69,-1308.59,1499.63
8820,-3.8704,1.9912,-0.1305,648.68,816.47,1702.82
8830,-3.8698,1.9481,-0.1133,-1116.94,-699.28,530.94
8840,-3.8693,1.9304,-0.0907,1367.43,1503.78,1781.01
8850,-3.8688,1.9286,-0.0592,-898.19,394.35,499.82
8860,-3.8685,1.9285,-0.0261,-1132.57,425.60,-1781.37
8870,-3.8684,1.9167,-0.0079,-1148.19,659.97,1031.19
8880,-3.8685,1.8881,-0.0049,1351.81,-1011.90,-1812.56
8890,-3.8687,1.8344,-0.0022,1679.93,-621.34,515.56
8900,-3.8689,1.7428,0.0023,-1195.07,-277.71,796.81
8910,-3.8693,1.6116,-0.0002,-913.82,300.23,1296.88
8920,-3.8698,1.4565,-0.0217,-1710.69,-28.14,1328.06
8930,-3.8704,1.3009,-0.0531,-1554.44,1221.56,1656.19
8940,-3.8710,1.1675,-0.0767,-1476.32,1205.63,437.38
8950,-3.8716,1.0673,-0.0956,1445.56,-1810.24,218.57
8960,-3.8722,0.9884,-0.1188,617.43,-232.30,-625.24
8970,-3.8726,0.9167,-0.1543,-1476.32,798.77,-1250.24
8980,-3.8728,0.8470,-0.2157,1351.81,251.77,827.82
8990,-3.8730,0.7633,-0.3164,429.93,392.27,1546.45
9000,-3.8732,0.6539,-0.4445,1711.18,-498.54,1936.83
9010,-3.8732,0.5258,-0.5732,-288.82,-889.40,-1079.04
9020,-3.8729,0.3730,-0.7018,-695.07,-1374.02,1483.22
9030,-3.8727,0.1744,-0.8394,-241.94,-1827.45,-188.90
9040,-3.8723,-0.0753,-0.9644,-1663.82,562.81,-1829.77
9050,-3.8721,-0.3484,-1.0356,-1632.57,577.94,-1314.39
9060,-3.8718,-0.5967,-1.0333,-585.69,-547.61,1732.30
9070,-3.8716,-0.7819,-0.9617,-366.94,-251.22,779.17
9080,-3.8713,-0.8872,-0.8553,-70.07,920.29,732.48
9090,-3.8711,-0.9136,-0.7715,-1554.44,-1470.52,545.17
9100,-3.8710,-0.8799,-0.7474,-929.44,1263.79,-1657.78
9110,-3.8708,-0.8174,-0.7855,-616.94,341.98,-1392.09
9120,-3.8707,-0.7802,-0.8538,-616.94,-532.90,-282.84
9130,-3.8705,-0.8319,-0.9095,148.68,-1267.15,-1345.46
9140,-3.8702,-0.9763,-0.9324,1523.68,-407.90,-1751.83
9150,-3.8700,-1.1451,-0.9297,-960.69,669.92,1154.42
9160,-3.8699,-1.2728,-0.9120,1429.93,1013.37,-1579.96
9170,-3.8698,-1.3340,-0.8708,1086.18,-721.25,1201.29
9180,-3.8699,-1.3250,-0.7910,1258.06,544.25,-48.58
9190,-3.8700,-1.2607,-0.6963,-1585.69,-1237.00,1139.04
9200,-3.8704,-1.1681,-0.6227,-1366.94,-1111.88,1779.85
9210,-3.8707,-1.0748,-0.5713,-1507.57,310.18,1420.65
9220,-3.8711,-1.0052,-0.5375,-1570.07,-1111.51,-579.28
9230,-3.8712,-0.9657,-0.5184,-663.82,-783.26,561.40
9240,-3.8713,-0.9438,-0.5067,398.68,1654.36,139.59
9250,-3.8715,-0.9174,-0.5004,-804.44,-845.64,1186.46
9260,-3.8716,-0.8696,-0.5031,-1413.82,-33.08,-1532.29
9270,-3.8717,-0.7996,-0.5061,695.56,-376.71,-782.29
9280,-3.8718,-0.7183,-0.5023,1664.31,-767.21,-610.41
9290,-3.8719,-0.6364,-0.4972,70.56,-282.65,-563.54
9300,-3.8721,-0.5551,-0.4939,-1445.07,373.72,-813.48
9310,-3.8722,-0.4724,-0.4841,961.18,795.78,1952.15
9320,-3.8724,-0.3890,-0.4583,-460.69,-1954.10,-32.23
9330,-3.8726,-0.3030,-0.4226,-1788.82,1358.58,1858.46
9340,-3.8728,-0.2089,-0.3829,1226.81,1921.26,-313.35
9350,-3.8729,-0.0961,-0.3489,1273.68,-1000.43,639.83
9360,-3.8732,0.0349,-0.3325,-288.82,-640.87,827.39
9370,-3.8734,0.1809,-0.3269,476.81,1437.56,-1766.30
9380,-3.8735,0.3585,-0.3270,-835.69,-1843.44,1671.20
9390,-3.8737,0.5885,-0.3298,1898.68,-1858.70,-1016.30
9400,-3.8737,0.8754,-0.3433,-663.82,1782.35,-1766.30
9410,-3.8737,1.2290,-0.3583,54.93,64.21,-16.30
9420,-3.8734,1.6040,-0.3292,1320.56,-1856.99,-578.86
9430,-3.8728,1.8914,-0.2655,1320.56,1862.49,1358.70
9440,-3.8719,2.0426,-0.2280,-1898.19,-1980.71,624.45
9450,-3.8711,2.0688,-0.2324,1461.18,-1183.53,890.14
9460,-3.8705,2.0117,-0.2294,820.56,-1745.97,-78.61
9470,-3.8699,1.9462,-0.1874,1508.06,-1355.47,-1156.74
9480,-3.8693,1.9197,-0.1238,1117.43,19.41,234.01
9490,-3.8689,1.9325,-0.0660,1726.81,159.97,-1234.62
9500,-3.8685,1.9674,-0.0330,-632.57,-449.40,234.19
9510,-3.8685,2.0009,-0.0266,-163.82,-214.97,-62.62
9520,-3.8685,2.0029,-0.0358,117.43,597.66,-1484.44
9530,-3.8687,1.9592,-0.0557,383.06,-574.22,1703.00
9540,-3.8688,1.8727,-0.0890,-1210.69,878.78,234.25
9550,-3.8690,1.7350,-0.1190,-288.82,612.98,-109.56
9560,-3.8691,1.5499,-0.1368,-1913.82,768.98,1874.76
9570,-3.8695,1.3530,-0.1603,-1601.32,-1512.63,-1656.56
9580,-3.8700,1.1782,-0.1870,1195.56,-513.00,1437.13
9590,-3.8706,1.0411,-0.2040,-1179.44,64.76,-1594.12
9600,-3.8712,0.9397,-0.2164,1273.68,1892.64,-922.30
9610,-3.8717,0.8735,-0.2426,289.31,298.71,171.45
9620,-3.8723,0.8456,-0.2981,-179.44,954.77,-328.61
9630,-3.8727,0.8322,-0.3842,242.43,1845.40,-1313.11
9640,-3.8729,0.7930,-0.4949,-1476.32,-1170.29,-1860.17
9650,-3.8730,0.6877,-0.6062,1508.06,657.78,-844.73
9660,-3.8729,0.4995,-0.6890,39.31,-1592.41,1780.03
9670,-3.8727,0.2617,-0.7338,-54.44,-186.58,920.47
9680,-3.8724,0.0277,-0.7565,1508.06,-1921.39,-1704.59
9690,-3.8721,-0.1718,-0.7778,-445.07,-828.12,139.10
9700,-3.8718,-0.3260,-0.8102,-1976.32,452.76,1889.10
9710,-3.8716,-0.4379,-0.8568,-1726.32,311.83,-1423.46
9720,-3.8715,-0.5217,-0.8978,-38.82,-1657.17,-361.08
9730,-3.8715,-0.5890,-0.9268,1226.81,1092.71,-720.52
9740,-3.8716,-0.6501,-0.9504,617.43,1389.47,-1329.96
9750,-3.8717,-0.7183,-0.9569,789.31,-1641.91,935.61
9760,-3.8718,-0.7961,-0.9602,70.56,1529.85,779.36
9770,-3.8718,-0.8729,-1.0012,-1898.19,1107.79,294.98
9780,-3.8717,-0.9492,-1.0851,273.68,-142.33,-1127.01
9790,-3.8712,-1.0565,-1.1635,-1491.94,1123.11,950.99
9800,-3.8707,-1.2119,-1.1976,773.68,-908.33,1903.93
9810,-3.8702,-1.3802,-1.1965,883.06,-1283.63,888.24
9820,-3.8700,-1.5040,-1.1814,-663.82,-1143.37,-361.76
9830,-3.8698,-1.5376,-1.1626,-507.57,793.88,1872.68
9840,-3.8698,-1.4705,-1.1353,-804.44,-799.93,-721.07
9850,-3.8699,-1.3424,-1.0763,-210.69,-1299.80,-127.26
9860,-3.8700,-1.2015,-0.9889,179.93,-1752.62,591.61
9870,-3.8704,-1.0635,-0.9102,-1788.82,1435.12,1529.30
9880,-3.8707,-0.9315,-0.8635,-116.94,-486.51,216.92
9890,-3.8712,-0.8208,-0.8433,773.68,1482.54,-251.71
9900,-3.8715,-0.7461,-0.8269,-1054.44,76.48,1232.73
9910,-3.8717,-0.7012,-0.8049,508.06,-1829.59,295.23
9920,-3.8719,-0.6560,-0.7800,-1741.94,982.97,185.91
9930,-3.8722,-0.5900,-0.7574,39.31,170.59,982.85
9940,-3.8724,-0.4946,-0.7308,492.43,-938.66,-517.15
9950,-3.8726,-0.3733,-0.6814,695.56,-1532.23,-579.59
9960,-3.8727,-0.2415,-0.5999,226.81,796.14,-1345.09
9970,-3.8729,-0.0925,-0.4965,1101.81,-766.11,-376.22
9980,-3.8732,0.1018,-0.3998,164.31,468.57,-469.73
9990,-3.8734,0.3558,-0.3367,1039.31,828.31,-0.79
10000,-3.8735,0.6617,-0.3007,1554.93,906.92,-1391.30
10010,-3.8735,0.9529,-0.2666,711.18,1516.91,1155.64
10020,-3.8734,1.1633,-0.2388,1976.81,1876.83,515.08
10030,-3.8732,1.2905,-0.2855,914.31,1439.76,530.76
10040,-3.8728,1.3616,-0.4601,1195.56,-544.37,-359.99
10050,-3.8721,1.4464,-0.7029,-1710.69,1112.00,-547.79
10060,-3.8710,1.5632,-0.8802,1148.68,-1965.94,607.97
10070,-3.8698,1.6671,-0.9194,101.81,-668.82,654.48
10080,-3.8687,1.7369,-0.8868,1398.68,-1684.27,-1704.96
10090,-3.8678,1.7725,-0.8597,-1663.82,-1512.27,1201.35
10100,-3.8674,1.7805,-0.8478,-1116.94,1956.54,-1361.08
10110,-3.8672,1.7535,-0.8246,-85.69,-512.21,326.42
10120,-3.8671,1.6825,-0.7870,461.18,-1543.46,467.10
10130,-3.8671,1.5955,-0.7632,-632.57,-731.14,-1173.46
10140,-3.8671,1.5002,-0.7490,226.81,-1684.39,-1970.28
10150,-3.8672,1.3771,-0.7218,39.31,127.93,701.66
10160,-3.8677,1.2375,-0.6802,273.68,-387.94,-95.21
10170,-3.8683,1.1046,-0.6333,-1585.69,939.88,-954.47
10180,-3.8690,0.9996,-0.5974,1398.68,-1060.36,545.59
10190,-3.8699,0.9401,-0.5646,-38.82,-466.86,1467.53
10200,-3.8706,0.8853,-0.5133,336.18,-263.79,-94.91
10210,-3.8711,0.7828,-0.4512,1320.56,-1701.42,-376.04
10220,-3.8716,0.6603,-0.3942,211.18,-1748.47,-157.17
10230,-3.8721,0.5586,-0.3682,523.68,1548.16,-125.79
10240,-3.8724,0.4716,-0.3770,-491.94,876.04,-1891.36
10250,-3.8728,0.3779,-0.4048,367.43,-249.08,-907.04
10260,-3.8730,0.2717,-0.4524,383.06,188.23,-1797.67
10270,-3.8733,0.1558,-0.5093,-1210.69,-1905.76,-672.79
10280,-3.8734,0.0331,-0.5516,-54.44,-1187.26,-1141.66
10290,-3.8734,-0.0721,-0.5983,242.43,1390.69,858.28
10300,-3.8734,-0.1442,-0.6825,-1226.32,-562.68,-1907.47
10310,-3.8733,-0.2234,-0.7800,1554.93,655.94,-548.22
10320,-3.8730,-0.3496,-0.8517,-585.69,171.39,-235.90
10330,-3.8727,-0.5176,-0.9008,-741.94,-1000.73,1670.17
10340,-3.8710,-1.4194,-1.1287,1258.06,1325.74,-1830.20
10350,-3.8705,-1.5138,-1.2000,-1679.44,-455.93,1747.74
10360,-3.8700,-1.4821,-1.2479,-1757.57,-1581.12,1747.62
10370,-3.8695,-1.3859,-1.2789,-1695.07,278.32,-1877.44
10380,-3.8690,-1.3037,-1.3014,-1382.57,309.75,-377.50
10390,-3.8684,-1.2782,-1.2903,1133.06,1434.94,809.94
10400,-3.8682,-1.2933,-1.2220,398.68,-1143.13,-1877.56
10410,-3.8683,-1.2845,-1.1110,-1538.82,-408.81,872.56
10420,-3.8689,-1.1992,-0.9784,-413.82,1809.94,-1939.70
10430,-3.8698,-1.0552,-0.8361,-1491.94,-1221.13,-705.08
10440,-3.8706,-0.9114,-0.6938,945.56,997.92,-1032.90
10450,-3.8713,-0.8007,-0.5725,-648.19,-798.71,1561.10
10460,-3.8719,-0.7229,-0.4934,1523.68,-1267.21,1420.72
10470,-3.8723,-0.6707,-0.4534,-523.19,857.91,217.77
10480,-3.8726,-0.6353,-0.4523,-1835.69,1983.03,1795.96
10490,-3.8726,-0.6111,-0.4873,-1304.44,-1876.28,1045.96
10500,-3.8724,-0.5966,-0.5250,1789.31,1639.40,952.15
10510,-3.8723,-0.5859,-0.5408,-351.32,811.28,-907.29
10520,-3.8722,-0.5720,-0.5328,1008.06,-1204.28,-172.97
10530,-3.8721,-0.5406,-0.5104,-1210.69,-188.66,545.78
10540,-3.8722,-0.4694,-0.4843,-1195.07,-1313.60,170.84
10550,-3.8726,-0.3563,-0.4509,-70.07,-1969.73,-235.35
10560,-3.8728,-0.2156,-0.4150,-1601.32,-1703.86,1795.96
10570,-3.8732,-0.0588,-0.3961,414.31,-1109.80,-94.60
10580,-3.8734,0.1184,-0.3954,476.81,1312.38,-750.79
10590,-3.8735,0.3367,-0.3971,-835.69,1390.81,92.96
10600,-3.8738,0.6421,-0.3922,-898.19,1172.49,-1547.67
10610,-3.8739,1.0345,-0.3723,-1804.44,1798.10,-1188.29
10620,-3.8739,1.4476,-0.3304,429.93,345.76,-344.48
10630,-3.8735,1.8174,-0.3030,1304.93,1705.93,1577.45
10640,-3.8729,2.0652,-0.3058,633.06,1222.29,-1016.24
10650,-3.8719,2.1321,-0.3225,351.81,863.40,686.89
10660,-3.8711,2.0475,-0.3505,914.31,-1277.10,-453.80
10670,-3.8702,1.9375,-0.3815,-1913.82,-855.41,1155.52
10680,-3.8696,1.9102,-0.3822,8.06,-824.34,264.83
10690,-3.8693,1.9747,-0.3286,508.06,-918.15,-1282.04
10700,-3.8689,2.0806,-0.2391,773.68,1941.35,139.95
10710,-3.8689,2.1753,-0.1460,-1679.44,1394.65,-859.86
10720,-3.8690,2.2219,-0.0724,-1554.44,1316.71,-359.68
10730,-3.8691,2.2120,-0.0322,414.31,-1261.29,62.32
10740,-3.8695,2.1429,-0.0261,-851.32,-120.73,-843.87
10750,-3.8698,2.0173,-0.0430,-1695.07,660.40,-1796.94
10760,-3.8700,1.8594,-0.0787,-1773.19,-1496.09,1484.25
10770,-3.8702,1.6797,-0.1273,-1991.94,1925.48,687.32
10780,-3.8706,1.4900,-0.1749,-991.94,-293.64,-1765.93
10790,-3.8710,1.3141,-0.2119,-1273.19,1612.24,577.76
10800,-3.8715,1.1631,-0.2389,211.18,877.56,1124.57
10810,-3.8719,1.0356,-0.2625,883.06,1424.13,1890.14
10820,-3.8724,0.9279,-0.2893,570.56,-1591.74,-219.30
10830,-3.8728,0.8185,-0.3204,-1226.32,-1029.48,-594.36
10840,-3.8730,0.6780,-0.3534,773.68,-1014.04,608.70
10850,-3.8734,0.5072,-0.3900,-1210.69,-1233.09,-1422.61
10860,-3.8737,0.3372,-0.4490,929.93,-1920.90,1499.21
10870,-3.8739,0.1925,-0.5410,-835.69,-1468.14,-1329.04
10880,-3.8740,0.0693,-0.6509,648.68,-1249.63,-344.85
10890,-3.8739,-0.0596,-0.7577,883.06,687.62,-1907.53
10900,-3.8737,-0.2269,-0.8354,383.06,-968.87,1514.10
10910,-3.8734,-0.4432,-0.8666,-1038.82,1077.64,-236.02
10920,-3.8730,-0.6675,-0.8636,-726.32,1092.83,-1157.96
10930,-3.8727,-0.8364,-0.8569,-1429.44,1467.41,-1798.58
10940,-3.8723,-0.9281,-0.8766,945.56,-1673.52,-1282.96
10950,-3.8718,-0.9847,-0.9293,1211.18,-189.33,29.48
10960,-3.8715,-1.0509,-1.0002,1961.18,1060.55,1310.67
10970,-3.8711,-1.1376,-1.0839,1492.43,-17.70,1529.24
10980,-3.8707,-1.2368,-1.1721,-1601.32,1278.99,294.74
10990,-3.8705,-1.3245,-1.2476,1695.56,1981.93,-1283.57
11000,-3.8701,-1.3783,-1.2982,-1523.19,325.50,1544.43
11010,-3.8699,-1.3910,-1.3157,-413.82,1841.00,-236.94
11020,-3.8696,-1.3652,-1.2939,1961.18,-393.37,-80.75
11030,-3.8694,-1.3086,-1.2338,1258.06,-1612.06,1434.94
11040,-3.8694,-1.2336,-1.1427,508.06,-1908.81,-986.82
11050,-3.8695,-1.1522,-1.0311,-1898.19,1747.56,-1096.01
11060,-3.8698,-1.0720,-0.9178,523.68,28.99,841.74
11070,-3.8702,-0.9969,-0.8237,-1210.69,-1470.89,-1236.21
11080,-3.8707,-0.9277,-0.7546,398.68,-1423.83,-720.40
11090,-3.8711,-0.8634,-0.7074,1258.06,-579.96,701.60
11100,-3.8715,-0.8004,-0.6704,1492.43,1467.04,61.10
11110,-3.8718,-0.7319,-0.6364,1554.93,-1798.46,1404.91
11120,-3.8721,-0.6556,-0.6094,-1679.44,-1438.96,1451.84
11130,-3.8722,-0.5804,-0.5841,86.18,-1985.66,233.15
11140,-3.8723,-0.5117,-0.5540,1711.18,1248.84,155.09
11150,-3.8724,-0.4463,-0.5192,-1491.94,1108.34,92.65
11160,-3.8727,-0.3699,-0.4884,-1116.94,1561.58,-485.41
11170,-3.8728,-0.2649,-0.4733,664.31,1499.27,-1954.10
11180,-3.8729,-0.1420,-0.4618,-1898.19,-563.05,1030.27
11190,-3.8730,-0.0314,-0.4360,1836.18,905.94,1202.21
11200,-3.8732,0.0803,-0.4028,-7.57,203.00,1280.40
11210,-3.8734,0.2666,-0.3801,-1710.69,437.62,-47.67
11220,-3.8735,0.5916,-0.3646,-1866.94,-655.76,-1875.79
11230,-3.8737,1.0483,-0.3184,-273.19,1329.22,-1156.98
11240,-3.8735,1.5111,-0.2153,-1804.44,-747.99,1014.95
11250,-3.8733,1.8489,-0.0935,1429.93,440.43,780.82
11260,-3.8729,2.0497,-0.0264,664.31,34.85,1859.19
11270,-3.8724,2.1508,-0.0304,-1632.57,628.97,-0.06
11280,-3.8717,2.1843,-0.0497,-695.07,113.53,1499.94
11290,-3.8710,2.1879,-0.0483,-398.19,1644.84,421.75
11300,-3.8704,2.1936,-0.0364,54.93,1816.77,-484.50
11310,-3.8696,2.2092,-0.0211,789.31,-651.98,1062.38
11320,-3.8691,2.2396,-0.0054,-1210.69,1301.15,-1921.94
11330,-3.8688,2.2761,0.0011,-1320.07,-683.17,859.31
11340,-3.8687,2.2709,-0.0042,-648.19,145.02,1828.12
11350,-3.8687,2.1874,-0.0157,-1320.07,-526.86,1687.44
11360,-3.8689,2.0458,-0.0326,-7.57,1988.59,-93.81
11370,-3.8691,1.8837,-0.0580,1867.43,-167.91,671.75
11380,-3.8696,1.7120,-0.0886,1117.43,581.79,1109.25
11390,-3.8702,1.5294,-0.1147,-851.32,659.55,-1968.93
11400,-3.8708,1.3472,-0.1354,-226.32,1315.43,390.38
11410,-3.8716,1.1827,-0.1525,445.56,-1325.50,1921.57
11420,-3.8722,1.0458,-0.1770,-601.32,486.63,234.07
11430,-3.8728,0.9222,-0.2262,1867.43,1345.76,1843.38
11440,-3.8732,0.7758,-0.2864,-1945.07,-951.35,187.01
11450,-3.8735,0.5967,-0.3440,-695.07,-654.79,-1781.86
11460,-3.8738,0.4131,-0.4060,383.06,-30.09,-953.86
11470,-3.8739,0.2455,-0.4745,883.06,32.04,-985.17
11480,-3.8739,0.0912,-0.5497,-570.07,-733.95,-1219.73
11490,-3.8738,-0.0620,-0.6438,-320.07,1640.75,-1860.47
11500,-3.8735,-0.2257,-0.7548,70.56,1609.25,373.72
11510,-3.8733,-0.4033,-0.8546,-882.57,-594.24,1357.85
11520,-3.8729,-0.5913,-0.9177,383.06,-1375.79,435.79
11530,-3.8727,-0.7639,-0.9380,320.56,-1454.28,-267.46
11540,-3.8723,-0.8873,-0.9333,-1773.19,-48.40,1826.23
11550,-3.8721,-0.9562,-0.9381,-1570.07,545.10,1951.29
11560,-3.8718,-1.0046,-0.9847,1617.43,-64.39,1185.61
11570,-3.8716,-1.0845,-1.0614,-585.69,1966.74,-1423.83
11580,-3.8712,-1.2301,-1.1372,1195.56,154.11,-1595.83
11590,-3.8708,-1.4271,-1.2015,-1445.07,-1549.32,-1346.01
11600,-3.8705,-1.6207,-1.2521,1336.18,-1784.06,1794.49
11610,-3.8702,-1.7643,-1.2908,554.93,-253.17,-1424.38
11620,-3.8700,-1.8314,-1.3107,-1820.07,-1206.60,263.06
11630,-3.8700,-1.8019,-1.2919,1586.18,246.40,-1565.06
11640,-3.8700,-1.6824,-1.2321,1367.43,-1347.29,1153.69
11650,-3.8701,-1.5273,-1.1422,664.31,-1690.80,1388.18
11660,-3.8704,-1.3804,-1.0234,508.06,1809.51,-611.63
11670,-3.8706,-1.2374,-0.9045,-679.44,1012.88,1529.24
11680,-3.8711,-1.0851,-0.8173,1617.43,231.93,-33.02
11690,-3.8715,-0.9358,-0.7505,1117.43,-595.89,701.48
11700,-3.8719,-0.8104,-0.6887,226.81,-48.71,-1267.15
11710,-3.8722,-0.7151,-0.6353,273.68,-142.21,748.60
11720,-3.8724,-0.6442,-0.5951,476.81,-1298.28,1576.84
11730,-3.8727,-0.5815,-0.5728,1554.93,-157.53,-1063.72
11740,-3.8728,-0.5039,-0.5668,1570.56,-1298.03,1030.09
11750,-3.8729,-0.4102,-0.5598,-491.94,-532.29,608.22
11760,-3.8730,-0.3213,-0.5369,-491.94,358.52,967.65
11770,-3.8732,-0.2411,-0.5028,-1116.94,-703.80,1373.90
11780,-3.8733,-0.1483,-0.4683,1148.68,-344.24,1702.09
11790,-3.8734,-0.0077,-0.4391,1023.68,77.82,1436.58
11800,-3.8735,0.2062,-0.4165,-976.32,-187.56,202.21
11810,-3.8738,0.4822,-0.3928,-1601.32,-1312.13,-782.10
11820,-3.8738,0.7908,-0.3527,1726.81,1719.67,1483.58
11830,-3.8737,1.0793,-0.3011,1226.81,-1139.10,1218.02
11840,-3.8734,1.3054,-0.2504,-1835.69,1455.20,1843.14
11850,-3.8730,1.4622,-0.2100,-898.19,-44.37,1624.45
11860,-3.8727,1.5729,-0.1814,-835.69,1127.81,-937.93
11870,-3.8722,1.6655,-0.1655,1336.18,784.30,1171.51
11880,-3.8718,1.7522,-0.1621,1195.56,-1184.27,-62.87
11890,-3.8713,1.8451,-0.1521,289.31,-746.58,-781.62
11900,-3.8708,1.9452,-0.1390,179.93,534.85,-1859.68
11910,-3.8704,2.0491,-0.1237,992.43,-1793.09,593.44
11920,-3.8700,2.1375,-0.0848,-1710.69,175.84,-1640.87
11930,-3.8696,2.1923,-0.0238,1601.81,1144.78,1609.19
11940,-3.8694,2.2166,0.0222,617.43,957.40,1140.56
11950,-3.8693,2.2106,0.0254,-273.19,-1151.98,-1343.75
11960,-3.8691,2.1561,-0.0050,-1038.82,-745.73,-859.38
11970,-3.8690,2.0466,-0.0542,-7.57,-636.47,1031.19
11980,-3.8691,1.8994,-0.1030,1976.81,1066.47,-1172.00
11990,-3.8694,1.7377,-0.1296,-866.94,-1183.84,-547.12
12000,-3.8698,1.5848,-0.1475,-1570.07,-590.39,-1828.43
12010,-3.8702,1.4550,-0.1758,-1132.57,1128.05,687.19
12020,-3.8708,1.3376,-0.2109,-1757.57,1502.81,1374.63
12030,-3.8715,1.2146,-0.2458,-773.19,1002.56,-1844.18
12040,-3.8719,1.0854,-0.2878,-523.19,533.57,1046.39
12050,-3.8724,0.9586,-0.3643,-1054.44,-841.67,-1359.99
12060,-3.8728,0.8301,-0.4734,-1288.82,1376.83,-485.11
12070,-3.8729,0.6837,-0.5807,-1741.94,-592.16,61.52
12080,-3.8730,0.5101,-0.6810,-476.32,1673.16,155.09
12090,-3.8732,0.3126,-0.7876,1304.93,829.10,-345.09
12100,-3.8730,0.0947,-0.8811,23.68,-811.89,1357.79
12110,-3.8729,-0.1306,-0.9463,133.06,-781.07,310.73
12120,-3.8728,-0.3439,-0.9879,-710.69,-1109.68,732.48
12130,-3.8727,-0.5430,-0.9918,-7.57,1561.77,1966.80
12140,-3.8726,-0.7183,-0.9554,-1491.94,1061.40,-1330.08
12150,-3.8724,-0.8414,-0.9174,70.56,1717.35,-1783.14
12160,-3.8723,-0.9185,-0.9032,304.93,-1407.90,966.92
12170,-3.8723,-0.9866,-0.9033,-1554.44,404.42,-236.15
12180,-3.8722,-1.0615,-0.9098,1726.81,388.67,-642.40
12190,-3.8719,-1.1390,-0.9292,133.06,-439.58,1138.79
12200,-3.8717,-1.2286,-0.9491,-1788.82,1075.87,-1267.46
12210,-3.8713,-1.3391,-0.9354,-1257.57,-1471.19,-392.52
12220,-3.8708,-1.4521,-0.8855,601.81,278.63,1357.54
12230,-3.8705,-1.5378,-0.8247,-1866.94,-1330.99,1435.73
12240,-3.8702,-1.5759,-0.7640,-835.69,-1549.93,1560.85
12250,-3.8702,-1.5483,-0.7007,-1710.69,-1784.36,-485.90
12260,-3.8704,-1.4452,-0.6348,1820.56,-1674.93,-1173.28
12270,-3.8706,-1.2981,-0.5707,-976.32,-1237.24,1733.09
12280,-3.8710,-1.1533,-0.5092,1851.81,-1033.81,-735.53
12290,-3.8712,-1.0374,-0.4517,383.06,-1158.51,1045.84
12300,-3.8715,-0.9498,-0.4078,-773.19,-1798.95,233.46
12310,-3.8717,-0.8777,-0.3884,-1570.07,-189.39,-1735.23
12320,-3.8718,-0.8177,-0.3851,-335.69,-1704.90,-453.92
12330,-3.8718,-0.7692,-0.3816,-663.82,-1282.90,-1360.17
12340,-3.8718,-0.7286,-0.3796,1554.93,-829.65,-1532.04
12350,-3.8718,-0.6963,-0.3759,-1257.57,-579.59,-782.04
12360,-3.8718,-0.6711,-0.3517,-1116.94,-95.15,-297.67
12370,-3.8718,-0.6395,-0.3131,-1898.19,-1001.34,1999.27
12380,-3.8719,-0.5824,-0.2919,-1851.32,-63.78,1843.08
12390,-3.8722,-0.5031,-0.2908,1461.18,-1344.91,-109.99
12400,-3.8723,-0.4209,-0.2781,-382.57,-1204.16,655.64
12410,-3.8726,-0.3381,-0.2458,-1866.94,421.02,561.95
12420,-3.8728,-0.2404,-0.2205,726.81,546.20,1077.64
12430,-3.8730,-0.1210,-0.2065,1242.43,-203.61,-250.49
12440,-3.8732,0.0154,-0.1807,523.68,1577.88,-141.05
12450,-3.8732,0.1842,-0.1459,1976.81,875.00,124.63
12460,-3.8733,0.4147,-0.1344,-413.82,1328.43,1593.44
12470,-3.8733,0.7058,-0.1294,1086.18,-1202.33,-781.56
12480,-3.8730,0.9854,-0.0918,-1648.19,-561.16,1640.32
12490,-3.8728,1.1874,-0.0415,-1866.94,251.89,-1437.68
12500,-3.8724,1.3259,-0.0260,-7.57,-1310.24,359.25
12510,-3.8721,1.4497,-0.0562,1726.81,674.44,249.94
12520,-3.8716,1.5789,-0.0939,1570.56,815.31,1171.75
12530,-3.8710,1.6958,-0.1052,-1898.19,-12.57,-78.37
12540,-3.8701,1.7738,-0.0908,1070.56,-1465.45,-1203.37
12550,-3.8693,1.7853,-0.0510,-945.07,378.42,-906.43
12560,-3.8685,1.7441,0.0039,523.68,1472.23,1718.63
12570,-3.8682,1.6993,0.0548,-741.94,503.36,-1859.38
12580,-3.8680,1.6750,0.0973,1523.68,-981.08,-1093.69
12590,-3.8680,1.6584,0.1204,-1585.69,456.36,-1734.19
12600,-3.8682,1.6135,0.1281,289.31,-590.52,1203.31
12610,-3.8685,1.5111,0.1362,-1460.69,393.74,-1359.13
12620,-3.8690,1.3723,0.1403,1429.93,1440.43,922.12
12630,-3.8698,1.2352,0.1285,-335.69,1955.75,-1843.51
12640,-3.8705,1.1223,0.1185,-1882.57,455.51,1968.99
12650,-3.8712,1.0359,0.1080,-335.69,-825.99,-1171.69
12660,-3.8718,0.9486,0.0789,601.81,1830.14,-1093.57
12670,-3.8723,0.8411,0.0367,1429.93,-1904.42,-1124.88
12680,-3.8727,0.7223,-0.0221,-335.69,704.71,-1374.94
12690,-3.8729,0.5972,-0.0972,461.18,1173.28,-515.69
12700,-3.8729,0.4664,-0.1770,445.56,-436.34,-1625.24
12710,-3.8728,0.3392,-0.2517,-288.82,1344.60,-1328.49
12720,-3.8726,0.2085,-0.3207,-570.07,-218.14,-719.30
12730,-3.8722,0.0657,-0.3921,-1304.44,-1046.51,1593.08
12740,-3.8719,-0.0825,-0.4742,414.31,1812.62,-860.17
12750,-3.8717,-0.2323,-0.5433,1445.56,-687.68,-1141.60
12760,-3.8716,-0.3815,-0.5757,-1726.32,-1531.74,-516.72
12770,-3.8715,-0.5172,-0.5807,-820.07,-1672.67,998.84
12780,-3.8715,-0.6188,-0.5695,1804.93,1686.46,1139.47
12790,-3.8715,-0.6785,-0.5575,804.93,-876.22,1873.84
12800,-3.8715,-0.7155,-0.5579,1164.31,654.91,-79.22
12810,-3.8713,-0.7607,-0.5697,429.93,607.97,-766.72
12820,-3.8711,-0.8298,-0.5934,-1366.94,-907.78,30.09
12830,-3.8710,-0.9215,-0.6393,1789.31,60.85,-1219.91
12840,-3.8707,-1.0328,-0.7041,-1945.07,-1814.33,1764.34
12850,-3.8706,-1.1522,-0.7627,-195.07,1888.55,-923.28
12860,-3.8705,-1.2511,-0.7950,523.68,-1611.63,-1454.65
12870,-3.8704,-1.3116,-0.8043,-132.57,-1752.50,154.66
12880,-3.8704,-1.3306,-0.7948,117.43,1059.94,357.79
12890,-3.8705,-1.3113,-0.7617,1695.56,-1721.37,-1095.34
12900,-3.8706,-1.2521,-0.7166,164.31,-1486.94,-939.03
12910,-3.8707,-1.1611,-0.6755,-257.57,294.37,1014.22
12920,-3.8710,-1.0696,-0.6356,-616.94,1544.56,-1579.47
12930,-3.8711,-0.9999,-0.5939,-898.19,-1345.89,592.47
12940,-3.8713,-0.9489,-0.5587,23.68,-1.95,-313.72
12950,-3.8715,-0.9003,-0.5338,-1445.07,498.11,-751.10
12960,-3.8716,-0.8414,-0.5192,773.68,-314.27,-1141.72
12970,-3.8717,-0.7683,-0.5120,304.93,1560.85,-1516.66
12980,-3.8718,-0.6912,-0.5026,1664.31,-1517.15,-1813.54
12990,-3.8719,-0.6230,-0.4834,-460.69,-313.90,1967.71
13000,-3.8721,-0.5656,-0.4556,258.06,-1860.60,1639.65
13010,-3.8722,-0.5028,-0.4283,-382.57,1701.97,780.33
13020,-3.8724,-0.4106,-0.4036,-351.32,1186.46,-235.23
13030,-3.8726,-0.2854,-0.3750,-554.44,358.52,-688.29
13040,-3.8727,-0.1410,-0.3484,-523.19,15.01,-1188.23
13050,-3.8728,0.0256,-0.3353,1961.18,-578.43,1686.77
13060,-3.8729,0.2300,-0.3296,-710.69,1078.12,1186.83
13070,-3.8730,0.4653,-0.3141,1445.56,1812.93,-906.92
13080,-3.8730,0.7327,-0.2793,-429.44,-202.27,-188.17
13090,-3.8729,1.0212,-0.2378,1789.31,251.40,-703.67
13100,-3.8727,1.3011,-0.2109,-1273.19,1564.45,-1469.24
13110,-3.8723,1.5474,-0.2056,-1445.07,1002.50,-1047.30
13120,-3.8717,1.7208,-0.2050,-1929.44,1690.49,-1844.18
13130,-3.8710,1.7972,-0.1848,273.68,1768.98,-281.68
13140,-3.8701,1.7794,-0.1459,-1945.07,347.23,-1000.37
13150,-3.8694,1.7098,-0.0931,-226.32,1331.54,-1156.56
13160,-3.8688,1.6589,-0.0248,-1132.57,81.42,62.32
13170,-3.8685,1.6627,0.0570,351.81,831.36,1406.19
13180,-3.8685,1.7064,0.1393,836.18,-699.89,-624.94
13190,-3.8687,1.7595,0.1996,-1570.07,1831.42,-718.51
13200,-3.8689,1.7833,0.2290,1226.81,1550.29,-1624.63
13210,-3.8693,1.7423,0.2323,273.68,1315.98,1984.80
13220,-3.8698,1.6355,0.2151,-976.32,1737.73,-108.95
13230,-3.8701,1.4907,0.1797,1351.81,-465.58,844.12
13240,-3.8706,1.3341,0.1205,-1179.44,-997.13,1078.43
13250,-3.8711,1.1738,0.0496,-1226.32,-575.56,1718.93
13260,-3.8715,1.0203,-0.0179,-1741.94,-1653.99,31.31
13270,-3.8718,0.8892,-0.0845,-1398.19,1705.08,953.06
13280,-3.8721,0.7808,-0.1498,1820.56,1189.21,921.69
13290,-3.8723,0.6897,-0.2065,-54.44,829.59,-31.56
13300,-3.8723,0.6130,-0.2563,289.31,1563.84,1733.95
13310,-3.8723,0.5479,-0.3105,-1523.19,-811.34,-1859.92
13320,-3.8722,0.4819,-0.3663,-1866.94,251.04,1546.26
13330,-3.8721,0.3923,-0.4103,1695.56,1110.29,-297.61
13340,-3.8718,0.2689,-0.4498,-1773.19,-514.89,-1047.73
13350,-3.8716,0.1230,-0.4945,-1570.07,-1577.64,1249.08
13360,-3.8715,-0.0303,-0.5291,-241.94,703.31,1530.27
13370,-3.8713,-0.1731,-0.5413,133.06,296.81,436.46
13380,-3.8713,-0.2866,-0.5414,1851.81,-1265.99,-1501.10
13390,-3.8713,-0.3678,-0.5365,-679.44,-1281.86,-63.60
13400,-3.8712,-0.4355,-0.5272,929.93,-656.98,1233.28
13410,-3.8712,-0.5128,-0.5264,258.06,530.40,1702.09
13420,-3.8712,-0.5991,-0.5389,-1632.57,639.59,186.46
13430,-3.8713,-0.6781,-0.5421,-679.44,-969.97,1139.53
13440,-3.8715,-0.7411,-0.5297,1211.18,-1376.34,-1188.60
13450,-3.8715,-0.7904,-0.5197,1148.68,217.29,-1454.16
13460,-3.8715,-0.8370,-0.5125,-1163.82,1498.41,-204.16
13470,-3.8713,-0.8911,-0.5016,867.43,-1579.77,-1922.91
13480,-3.8712,-0.9515,-0.4927,1945.56,-189.27,1139.59
13490,-3.8711,-1.0101,-0.4866,-1788.82,951.23,217.77
13500,-3.8711,-1.0593,-0.4764,-1288.82,1732.36,-813.48
13510,-3.8710,-1.0919,-0.4580,414.31,-970.83,-1969.73
13520,-3.8710,-1.1022,-0.4344,242.43,1388.49,-47.79
13530,-3.8708,-1.0912,-0.4077,-1070.07,404.05,77.27
13540,-3.8710,-1.0646,-0.3805,336.18,-174.01,1686.65
13550,-3.8711,-1.0232,-0.3619,-257.57,-689.64,1171.08
13560,-3.8713,-0.9692,-0.3542,1039.31,1685.49,-63.23
13570,-3.8715,-0.9141,-0.3463,-54.44,-1330.08,-688.23
13580,-3.8715,-0.8677,-0.3335,-991.94,-314.33,93.02
13590,-3.8716,-0.8292,-0.3243,945.56,1326.42,-1766.30
13600,-3.8716,-0.7905,-0.3228,1867.43,-1501.65,921.20
13610,-3.8717,-0.7499,-0.3248,-1179.44,-1298.46,-797.55
13620,-3.8717,-0.7061,-0.3302,23.68,-1563.96,1061.83
13630,-3.8718,-0.6527,-0.3396,1633.06,1748.60,-1031.92
13640,-3.8718,-0.5897,-0.3463,461.18,545.59,639.95
13650,-3.8719,-0.5244,-0.3431,523.68,-313.66,1514.89
13660,-3.8721,-0.4595,-0.3291,883.06,92.71,1093.08
13670,-3.8723,-0.3872,-0.3098,1195.56,1889.71,-813.17
13680,-3.8724,-0.3003,-0.2902,-1554.44,358.58,640.01
13690,-3.8727,-0.1973,-0.2758,1570.56,-1125.61,-1406.86
13700,-3.8728,-0.0771,-0.2734,-1241.94,718.32,1718.20
13710,-3.8729,0.0649,-0.2719,-1866.94,1015.44,-1203.67
13720,-3.8729,0.2474,-0.2534,320.56,1203.25,1749.45
13730,-3.8729,0.4946,-0.2206,-320.07,-437.07,1811.95
13740,-3.8729,0.8197,-0.1783,-679.44,-233.46,-656.74
13750,-3.8728,1.1781,-0.1313,929.93,1173.46,-344.12
13760,-3.8726,1.4911,-0.0920,-1195.07,-810.24,-828.43
13770,-3.8722,1.7124,-0.0685,-1132.57,221.62,1781.07
13780,-3.8718,1.8151,-0.0519,-804.44,-762.33,-47.06
13790,-3.8712,1.8134,-0.0370,336.18,1362.92,546.75
13800,-3.8707,1.7758,-0.0393,117.43,-730.83,953.00
13810,-3.8702,1.7560,-0.0544,-695.07,-1027.83,1546.75
13820,-3.8696,1.7573,-0.0475,773.68,1034.67,624.88
13830,-3.8690,1.7634,-0.0127,945.56,1925.29,578.00
13840,-3.8687,1.7572,0.0205,1726.81,-1621.58,-281.31
13850,-3.8684,1.7391,0.0280,929.93,-1371.58,-1312.50
13860,-3.8684,1.7191,0.0197,-1382.57,-418.52,-1812.50
13870,-3.8687,1.6899,0.0179,54.93,-1481.02,-390.62
13880,-3.8689,1.6323,0.0170,320.56,-1699.83,437.50
13890,-3.8694,1.5427,0.0135,945.56,-1824.95,-1937.50
13900,-3.8699,1.4293,0.0101,1476.81,1737.37,1812.50
13910,-3.8704,1.2957,-0.0048,-1038.82,1299.62,625.00
13920,-3.8710,1.1456,-0.0270,1851.81,-606.87,-1125.06
13930,-3.8715,0.9946,-0.0466,-1351.32,549.07,874.94
13940,-3.8721,0.8776,-0.0813,-679.44,-1966.86,-343.87
13950,-3.8724,0.8101,-0.1394,336.18,1595.46,1452.94
13960,-3.8727,0.7605,-0.2106,-304.44,-1842.22,405.94
13970,-3.8728,0.6846,-0.2990,1351.81,1048.34,530.82
13980,-3.8728,0.5620,-0.4052,-366.94,1735.66,155.64
13990,-3.8728,0.3954,-0.5090,-54.44,141.66,1999.21
14000,-3.8727,0.1978,-0.5903,-1382.57,-1155.52,795.84
14010,-3.8727,-0.0044,-0.6395,1320.56,437.87,-969.91
14020,-3.8726,-0.1846,-0.6630,-554.44,-1843.81,451.84
14030,-3.8726,-0.3350,-0.6738,383.06,-844.12,1326.78
14040,-3.8726,-0.4478,-0.6705,1133.06,1764.95,1373.66
14050,-3.8726,-0.5211,-0.6626,-1304.44,-1813.42,1639.28
14060,-3.8724,-0.5585,-0.6615,1304.93,-797.91,342.41
14070,-3.8723,-0.5712,-0.6667,523.68,-657.35,-1845.09
14080,-3.8721,-0.5741,-0.6906,-1101.32,-1329.28,-1220.09
14090,-3.8717,-0.5763,-0.7369,-1476.32,-376.16,1357.97
14100,-3.8713,-0.5911,-0.7958,-1757.57,1686.34,1545.41
14110,-3.8708,-0.6281,-0.8573,351.81,-1844.91,295.29
14120,-3.8704,-0.6855,-0.9176,-382.57,-1720.03,1013.92
14130,-3.8699,-0.7616,-0.9746,258.06,-1438.84,951.29
14140,-3.8695,-0.8528,-1.0192,-1476.32,-735.90,1669.92
14150,-3.8693,-0.9496,-1.0398,-1148.19,1560.79,-1689.51
14160,-3.8691,-1.0409,-1.0345,-1538.82,-1080.02,-1689.58
14170,-3.8691,-1.1118,-1.0093,-1226.32,-408.33,951.05
14180,-3.8694,-1.1509,-0.9683,1695.56,-1174.07,-1283.26
14190,-3.8696,-1.1504,-0.9196,695.56,75.87,1107.48
14200,-3.8700,-1.1105,-0.8680,758.06,-1689.76,1670.04
14210,-3.8704,-1.0499,-0.8068,1867.43,904.05,1920.17
14220,-3.8707,-0.9897,-0.7421,1617.43,747.92,-798.46
14230,-3.8710,-0.9371,-0.6945,1320.56,1029.30,-1735.84
14240,-3.8712,-0.8899,-0.6656,54.93,-876.83,-907.65
14250,-3.8713,-0.8420,-0.6398,-1898.19,-1189.27,1436.16
14260,-3.8715,-0.7905,-0.6095,226.81,-1876.65,451.84
14270,-3.8717,-0.7335,-0.5786,-1179.44,1998.41,-626.22
14280,-3.8718,-0.6705,-0.5469,-1882.57,1951.66,-1641.78
14290,-3.8719,-0.6058,-0.5121,-1820.07,-1985.72,1670.78
14300,-3.8721,-0.5446,-0.4785,-1538.82,-1532.47,811.46
14310,-3.8723,-0.4869,-0.4467,-1695.07,-1235.47,-797.85
14320,-3.8724,-0.4301,-0.4113,1679.93,-1157.23,936.58
14330,-3.8727,-0.3701,-0.3696,961.18,-625.85,-1328.98
14340,-3.8728,-0.2974,-0.3242,633.06,702.39,561.77
14350,-3.8730,-0.2050,-0.2885,1945.56,-1484.99,1936.83
14360,-3.8733,-0.0874,-0.2717,1773.68,-906.68,-875.61
14370,-3.8734,0.0654,-0.2617,820.56,1234.19,1155.70
14380,-3.8735,0.2556,-0.2473,383.06,-1499.88,640.08
14390,-3.8737,0.4875,-0.2333,726.81,344.24,1515.14
14400,-3.8737,0.7588,-0.2278,-1585.69,-1858.46,218.26
14410,-3.8737,1.0546,-0.2396,1133.06,-1154.79,1921.39
14420,-3.8734,1.3671,-0.2675,-1007.57,1330.14,515.14
14430,-3.8730,1.6562,-0.2875,-1007.57,1768.25,-1469.30
14440,-3.8723,1.8411,-0.2987,8.06,-793.64,296.26
14450,-3.8716,1.9128,-0.3219,-335.69,1769.17,-1344.36
14460,-3.8707,1.9275,-0.3574,851.81,-1199.40,1999.33
14470,-3.8699,1.8964,-0.3895,-1273.19,-1746.28,-16.36
14480,-3.8689,1.8256,-0.4027,-1257.57,-1855.71,-282.04
14490,-3.8680,1.7527,-0.3920,1679.93,456.67,-328.92
14500,-3.8673,1.6989,-0.3577,351.81,1831.54,1499.21
14510,-3.8669,1.6658,-0.3148,1461.18,-1777.95,-1063.23
14520,-3.8668,1.6492,-0.2791,1226.81,-293.64,1436.83
14530,-3.8671,1.6260,-0.2516,-898.19,284.42,968.20
14540,-3.8677,1.5731,-0.2419,133.06,-199.95,-125.55
14550,-3.8683,1.4750,-0.2433,1367.43,1034.30,1405.76
14560,-3.8690,1.3281,-0.2501,804.93,862.24,155.76
14570,-3.8699,1.1467,-0.2823,-1991.94,-13.06,-1922.42
14580,-3.8706,0.9607,-0.3451,-1210.69,-138.43,921.26
14590,-3.8713,0.7998,-0.4282,-1023.19,-170.04,-1969.48
14600,-3.8719,0.6699,-0.5074,-1616.94,1189.03,-1297.73
14610,-3.8724,0.5594,-0.5564,1758.06,-951.84,-344.79
14620,-3.8727,0.4589,-0.5894,-382.57,782.29,1280.15
14630,-3.8728,0.3662,-0.6520,-1257.57,563.35,467.59
14640,-3.8728,0.2682,-0.7281,-1116.94,547.55,-1766.91
14650,-3.8726,0.1420,-0.7637,-1663.82,-1202.64,-1110.84
14660,-3.8722,-0.0160,-0.7655,-1820.07,-1749.76,-64.03
14670,-3.8717,-0.1833,-0.7646,1961.18,-1968.81,1123.47
14680,-3.8715,-0.3351,-0.7593,539.31,-1859.74,-173.40
14690,-3.8712,-0.4690,-0.7390,1117.43,-1172.55,-376.53
14700,-3.8710,-0.5902,-0.6984,-23.19,1420.90,342.29
14710,-3.8710,-0.6913,-0.6448,461.18,-1376.16,1607.97
14720,-3.8710,-0.7572,-0.6003,-476.32,1482.97,295.59
14730,-3.8711,-0.7753,-0.5696,-913.82,-829.65,-673.10
14740,-3.8710,-0.7601,-0.5481,773.68,-892.15,905.09
14750,-3.8710,-0.7423,-0.5356,-1288.82,1857.85,-251.10
14760,-3.8708,-0.7460,-0.5248,992.43,-548.34,1530.15
14770,-3.8708,-0.7755,-0.5076,523.68,842.29,1920.84
14780,-3.8708,-0.8156,-0.4894,742.43,-954.65,-1688.54
14790,-3.8708,-0.8571,-0.4753,-382.57,1373.35,-563.48
14800,-3.8707,-0.8989,-0.4557,-1695.07,-829.83,452.15
14810,-3.8707,-0.9360,-0.4275,945.56,1685.73,77.21
14820,-3.8708,-0.9589,-0.4012,195.56,1295.04,1905.40
14830,-3.8710,-0.9667,-0.3823,1273.68,654.36,1921.08
14840,-3.8711,-0.9625,-0.3671,273.68,-923.77,436.71
14850,-3.8713,-0.9471,-0.3622,804.93,1029.36,-1125.73
14860,-3.8715,-0.9261,-0.3718,-1226.32,1654.36,-1360.11
14870,-3.8715,-0.9026,-0.3834,1461.18,420.04,796.14
14880,-3.8715,-0.8761,-0.3879,476.81,-1064.27,1342.96
14890,-3.8715,-0.8461,-0.3875,-132.57,-1642.40,-1016.42
14900,-3.8713,-0.8076,-0.3844,-288.82,-1579.83,577.33
14910,-3.8713,-0.7661,-0.3782,633.06,-1189.09,1061.71
14920,-3.8715,-0.7207,-0.3669,1945.56,-392.15,-141.42
14930,-3.8715,-0.6722,-0.3536,-241.94,1045.41,796.14
14940,-3.8717,-0.6316,-0.3394,1961.18,-1251.34,-406.98
14950,-3.8718,-0.5852,-0.3207,-835.69,576.84,733.70
14960,-3.8721,-0.5212,-0.3027,1101.81,-1032.41,733.70
14970,-3.8724,-0.4396,-0.2861,1289.31,1264.59,-16.24
14980,-3.8727,-0.3468,-0.2673,-257.57,-610.29,-203.74
14990,-3.8728,-0.2520,-0.2456,-382.57,1796.14,1030.70
15000,-3.8730,-0.1523,-0.2396,-241.94,577.58,-1062.99
15010,-3.8732,-0.0350,-0.2629,508.06,1343.44,1749.51
15020,-3.8733,0.1010,-0.2860,-476.32,-1640.75,-1484.92
15030,-3.8733,0.2416,-0.2941,929.93,-609.19,1140.01
15040,-3.8733,0.4175,-0.3158,-1070.07,-1640.20,890.01
15050,-3.8733,0.6541,-0.3796,1445.56,-421.08,1280.58
15060,-3.8732,0.9222,-0.4602,-273.19,-592.53,124.21
15070,-3.8730,1.1478,-0.5200,-1945.07,1095.52,-360.29
15080,-3.8726,1.2889,-0.5835,-1070.07,1439.70,905.21
15090,-3.8721,1.4070,-0.6716,992.43,1315.00,-32.41
15100,-3.8712,1.5199,-0.7644,101.81,-1966.00,-1220.09
15110,-3.8700,1.5746,-0.8461,-1445.07,-1840.82,1764.10
15120,-3.8685,1.5471,-0.9125,1554.93,-293.82,-939.21
15130,-3.8671,1.4788,-0.9379,-1960.69,-793.88,-408.08
15140,-3.8660,1.4399,-0.8925,1289.31,-44.01,-1642.52
15150,-3.8655,1.4536,-0.7803,320.56,1768.43,529.48
15160,-3.8657,1.4838,-0.6415,-1929.44,127.81,-1423.40
15170,-3.8663,1.4856,-0.5314,1929.93,1893.49,639.34
15180,-3.8673,1.4397,-0.4526,-1835.69,-12.76,1030.15
15190,-3.8683,1.3633,-0.3875,289.31,-1934.69,14.71
15200,-3.8693,1.2888,-0.3466,-1491.94,-1591.13,-235.17
15210,-3.8699,1.2207,-0.3339,976.81,-356.87,-1922.61
15220,-3.8704,1.1429,-0.3380,258.06,1268.01,1733.70
15230,-3.8707,1.0608,-0.3519,-1695.07,736.57,124.33
15240,-3.8711,0.9756,-0.3680,-210.69,-1044.86,1124.27
15250,-3.8713,0.8606,-0.3700,883.06,892.52,-1985.11
15260,-3.8715,0.7246,-0.3708,-1835.69,642.27,1639.89
15270,-3.8716,0.6106,-0.3922,758.06,532.65,1296.14
15280,-3.8718,0.5170,-0.4227,-1835.69,1798.03,-1297.67
15290,-3.8721,0.4110,-0.4624,-1820.07,1891.60,1499.15
15300,-3.8724,0.2784,-0.5276,617.43,813.29,-782.17
15310,-3.8727,0.1117,-0.6033,-351.32,469.24,-1282.29
15320,-3.8728,-0.0778,-0.6743,-1695.07,-1218.57,-1344.97
15330,-3.8728,-0.2697,-0.7405,-1945.07,1702.94,-313.84
15340,-3.8726,-0.4501,-0.7744,1492.43,1233.83,686.04
15350,-3.8723,-0.6141,-0.7699,-1601.32,889.71,1482.85
15360,-3.8719,-0.7573,-0.7579,1398.68,1467.53,623.47
15370,-3.8717,-0.8640,-0.7488,-929.44,-1001.53,-1923.40
15380,-3.8715,-0.9113,-0.7377,1414.31,170.17,201.66
15390,-3.8713,-0.8976,-0.7281,-632.57,1591.92,1873.54
15400,-3.8711,-0.8529,-0.7219,1117.43,-1189.27,1545.41
15410,-3.8708,-0.8020,-0.7285,-1163.82,-392.33,-1501.46
15420,-3.8705,-0.7732,-0.7479,1351.81,-1235.96,107.91
15430,-3.8702,-0.8019,-0.7603,1039.31,279.72,-501.46
15440,-3.8698,-0.8884,-0.7644,1367.43,-1298.46,420.35
15450,-3.8695,-0.9984,-0.7566,-1710.69,-1829.90,-189.03
15460,-3.8693,-1.0950,-0.7238,211.18,-830.08,-814.03
15470,-3.8691,-1.1493,-0.6693,-148.19,-627.20,1029.79
15480,-3.8693,-1.1436,-0.6010,898.68,-1658.51,29.91
15490,-3.8696,-1.0758,-0.5204,1633.06,-908.51,45.65
15500,-3.8702,-0.9696,-0.4414,-1695.07,1404.11,-454.16
15510,-3.8707,-0.8593,-0.3882,-101.32,-486.33,-1188.42
15520,-3.8711,-0.7773,-0.3628,-1976.32,-1673.58,1217.96
15530,-3.8713,-0.7401,-0.3472,508.06,1576.60,186.77
15540,-3.8716,-0.7389,-0.3387,1273.68,-423.34,-625.73
15550,-3.8716,-0.7495,-0.3483,1429.93,654.79,1139.95
15560,-3.8717,-0.7454,-0.3755,70.56,-563.96,-641.36
15570,-3.8717,-0.7117,-0.3973,601.81,-48.34,1358.58
15580,-3.8718,-0.6519,-0.3893,914.31,1154.85,-719.54
15590,-3.8719,-0.5739,-0.3588,570.56,-1813.78,-0.79
15600,-3.8721,-0.4757,-0.3265,-1445.07,-1907.41,-1453.86
15610,-3.8723,-0.3601,-0.2982,-882.57,-1782.23,-328.80
15620,-3.8724,-0.2478,-0.2694,1914.31,1843.02,811.89
15630,-3.8727,-0.1511,-0.2390,289.31,1530.76,-1188.05
15640,-3.8728,-0.0508,-0.2242,664.31,1421.57,1718.26
15650,-3.8729,0.0867,-0.2324,1508.06,-687.62,1905.76
15660,-3.8729,0.2815,-0.2352,-898.19,-1749.88,46.39
15670,-3.8729,0.5692,-0.2260,39.31,1891.17,749.51
15680,-3.8728,0.9452,-0.2102,867.43,-920.78,1827.64
15690,-3.8724,1.3143,-0.1647,992.43,1095.58,-1766.05
15700,-3.8718,1.5764,-0.0962,242.43,-1075.56,1468.38
15710,-3.8712,1.7092,-0.0411,1789.31,-309.45,1702.88
15720,-3.8707,1.7653,0.0115,-1210.69,-1262.33,484.25
15730,-3.8705,1.8182,0.0947,1961.18,1472.17,171.88
15740,-3.8705,1.9176,0.1984,742.43,128.54,-874.82
15750,-3.8705,2.0413,0.3024,1461.18,1394.35,-1124.63
15760,-3.8706,2.1323,0.3967,1289.31,-1292.91,-93.20
15770,-3.8707,2.1556,0.4558,945.56,-1214.60,-874.27
15780,-3.8708,2.1082,0.4556,-70.07,-1652.10,-1967.90
15790,-3.8710,2.0149,0.3999,1851.81,-1683.41,-1733.52
15800,-3.8710,1.9052,0.3254,1914.31,-808.59,594.48
15810,-3.8710,1.7899,0.2600,-132.57,1659.91,344.36
15820,-3.8710,1.6722,0.1953,1117.43,1284.73,203.61
15830,-3.8711,1.5522,0.1217,-1945.07,1003.23,-890.26
15840,-3.8711,1.4089,0.0613,-1304.44,-418.88,562.68
15850,-3.8713,1.2374,0.0227,351.81,-153.50,-296.81
15860,-3.8716,1.0754,-0.0125,-1601.32,-1091.37,-750.00
15870,-3.8719,0.9564,-0.0520,1664.31,-1591.67,-546.94
15880,-3.8723,0.8678,-0.1011,-1570.07,1345.58,-1078.25
15890,-3.8726,0.7806,-0.1708,-913.82,-935.85,906.01
15900,-3.8727,0.6826,-0.2588,-70.07,-1857.91,984.01
15910,-3.8726,0.5638,-0.3378,-616.94,-1123.72,686.95
15920,-3.8723,0.4208,-0.4048,179.93,766.72,514.95
15930,-3.8721,0.2592,-0.4740,1867.43,188.29,108.58
15940,-3.8719,0.0792,-0.5428,1179.93,-671.39,-1829.10
15950,-3.8718,-0.1144,-0.6344,-1851.32,-1484.25,-1282.35
15960,-3.8718,-0.3190,-0.7472,1367.43,-1187.74,-735.66
15970,-3.8718,-0.5343,-0.8213,-820.07,374.33,123.54
15980,-3.8719,-0.7389,-0.8403,-382.57,-1110.47,1623.35
15990,-3.8719,-0.8773,-0.8441,1429.93,451.66,-1986.02
16000,-3.8718,-0.9196,-0.8669,-288.82,-33.02,-579.83
16010,-3.8713,-0.8898,-0.9230,-1695.07,1045.04,310.79
16020,-3.8707,-0.8463,-0.9994,-1882.57,1873.23,-1751.83
16030,-3.8699,-0.8444,-1.0643,-320.07,92.04,-1705.08
16040,-3.8690,-0.8917,-1.1012,-70.07,-220.46,1560.36
16050,-3.8684,-0.9742,-1.1101,1867.43,-939.27,-752.20
16060,-3.8679,-1.0632,-1.0981,-695.07,1919.92,1700.93
16070,-3.8677,-1.1271,-1.0751,-85.69,-549.01,310.30
16080,-3.8678,-1.1501,-1.0360,-257.57,-1596.01,-1517.76
16090,-3.8680,-1.1311,-0.9736,789.31,-596.01,1201.05
16100,-3.8685,-1.0702,-0.8943,-773.19,-611.63,-955.08
16110,-3.8690,-0.9797,-0.8134,-976.32,1544.74,1435.73
16120,-3.8696,-0.8784,-0.7493,-1398.19,-95.70,1217.10
16130,-3.8702,-0.7793,-0.7037,-429.44,107.60,732.91
16140,-3.8708,-0.6906,-0.6677,258.06,1935.97,-1142.03
16150,-3.8712,-0.6211,-0.6372,-382.57,-1454.53,1904.91
16160,-3.8715,-0.5773,-0.6110,508.06,-1548.10,1264.34
16170,-3.8717,-0.5465,-0.5908,-1882.57,1811.34,-1391.85
16180,-3.8718,-0.5055,-0.5706,-1945.07,389.53,1201.97
16190,-3.8719,-0.4355,-0.5385,-695.07,-1016.66,170.72
16200,-3.8722,-0.3341,-0.4988,258.06,-907.10,-1829.22
16210,-3.8724,-0.2156,-0.4613,1242.43,171.20,-1110.35
16220,-3.8727,-0.0872,-0.4303,414.31,968.32,-1172.79
16230,-3.8729,0.0743,-0.4073,851.81,937.32,-1110.23
16240,-3.8732,0.2928,-0.3915,1523.68,-140.50,-375.85
16250,-3.8733,0.5741,-0.3774,1492.43,1891.17,1967.96
16260,-3.8734,0.9027,-0.3416,1492.43,-311.40,-766.42
16270,-3.8734,1.2362,-0.2736,-445.07,282.96,-188.17
16280,-3.8732,1.5271,-0.1987,-1757.57,986.76,811.95
16290,-3.8729,1.7535,-0.1476,-523.19,-1434.57,-844.18
16300,-3.8724,1.9069,-0.1265,461.18,1112.79,-1390.93
16310,-3.8718,1.9795,-0.1072,86.18,-183.78,1718.44
16320,-3.8712,1.9894,-0.0624,1383.06,-1714.90,1734.13
16330,-3.8707,1.9857,-0.0004,-1351.32,19.47,-1437.62
16340,-3.8704,2.0065,0.0651,-1820.07,-43.03,-1453.19
16350,-3.8701,2.0602,0.1334,836.18,332.03,-421.75
16360,-3.8699,2.1299,0.1912,-288.82,1082.09,-1859.13
16370,-3.8698,2.1794,0.2140,633.06,472.90,1656.62
16380,-3.8698,2.1809,0.2006,-1023.19,-605.16,-1343.38
16390,-3.8698,2.1125,0.1672,-835.69,1676.09,-1718.38
16400,-3.8698,1.9720,0.1290,-1585.69,1410.34,672.18
16410,-3.8699,1.7878,0.0830,429.93,519.47,937.74
16420,-3.8701,1.5959,0.0266,851.81,-1371.52,-1515.50
16430,-3.8704,1.4094,-0.0182,289.31,-590.64,1421.88
16440,-3.8707,1.2341,-0.0321,414.31,1674.62,1515.56
16450,-3.8712,1.0812,-0.0312,1976.81,-106.99,-1625.12
16460,-3.8717,0.9570,-0.0394,-1601.32,2.08,921.81
16470,-3.8723,0.8591,-0.0553,-1491.94,-1045.04,-1000.12
16480,-3.8728,0.7777,-0.0687,1976.81,923.52,1999.88
16490,-3.8733,0.7072,-0.0881,-445.07,-795.41,-812.68
16500,-3.8737,0.6332,-0.1320,-1476.32,720.09,-406.43
16510,-3.8739,0.5258,-0.2097,1054.93,-889.40,-453.43
16520,-3.8740,0.3667,-0.3287,-695.07,1157.23,-1203.55
16530,-3.8741,0.1587,-0.4978,-1054.44,1922.55,-266.30
16540,-3.8741,-0.0911,-0.7112,320.56,281.56,-1985.35
16550,-3.8741,-0.3676,-0.9265,351.81,984.19,-423.28
16560,-3.8739,-0.6483,-1.0839,961.18,1421.14,1732.54
16570,-3.8735,-0.8918,-1.1427,1023.68,1279.97,-642.76
16580,-3.8728,-1.0400,-1.1261,1851.81,1748.23,-986.63
16590,-3.8718,-1.0618,-1.1265,-1116.94,-127.08,591.49
16600,-3.8708,-0.9824,-1.1942,101.81,-173.95,200.87
16610,-3.8699,-0.8588,-1.2867,-1741.94,-845.70,-1439.88
16620,-3.8688,-0.7340,-1.3658,-1913.82,-689.21,1356.81
16630,-3.8679,-0.6379,-1.4231,-1945.07,1186.04,-658.94
16640,-3.8672,-0.5964,-1.4498,-1648.19,1858.09,1090.94
16650,-3.8668,-0.6194,-1.4431,-335.69,-1563.72,622.13
16660,-3.8668,-0.6924,-1.4092,726.81,-704.35,934.63
16670,-3.8672,-0.7777,-1.3600,-616.94,-360.78,-565.31
16680,-3.8677,-0.8409,-1.2983,461.18,1935.97,-1346.44
16690,-3.8683,-0.8688,-1.2136,367.43,1826.48,919.31
16700,-3.8690,-0.8567,-1.1025,804.93,670.17,935.12
16710,-3.8698,-0.8051,-0.9841,-1648.19,-1111.08,950.93
16720,-3.8705,-0.7272,-0.8845,961.18,-1954.71,-861.33
16730,-3.8710,-0.6504,-0.8027,-1070.07,-1204.59,1107.60
16740,-3.8715,-0.5851,-0.7319,758.06,1264.34,-829.71
16750,-3.8717,-0.5222,-0.6808,1117.43,-1673.03,467.29
16760,-3.8721,-0.4578,-0.6445,1164.31,873.96,-235.72
16770,-3.8722,-0.3961,-0.6113,1414.31,1514.71,279.97
16780,-3.8724,-0.3350,-0.5790,1304.93,1764.83,-1844.97
16790,-3.8726,-0.2720,-0.5485,1133.06,1905.58,-1985.53
16800,-3.8727,-0.2147,-0.5140,1195.56,1811.95,-1297.97
16810,-3.8728,-0.1572,-0.4694,523.68,-1781.68,1608.34
16820,-3.8730,-0.0592,-0.4224,-116.94,-62.87,1639.65
16830,-3.8734,0.1193,-0.3827,429.93,1953.00,-78.98
16840,-3.8737,0.3826,-0.3496,-726.32,-984.19,-1500.79
16850,-3.8739,0.6982,-0.3170,976.81,-749.27,-547.61
16860,-3.8740,1.0084,-0.2765,1383.06,-576.78,-188.17
16870,-3.8739,1.2825,-0.2496,1086.18,611.33,796.33
16880,-3.8737,1.5363,-0.2484,164.31,49.38,358.89
16890,-3.8732,1.7566,-0.2522,648.68,206.12,515.14
16900,-3.8724,1.9009,-0.2610,851.81,-277.83,1249.45
16910,-3.8716,1.9723,-0.2793,-679.44,-1402.59,1265.08
16920,-3.8707,1.9896,-0.2960,461.18,253.85,624.45
16930,-3.8700,1.9576,-0.2959,-1320.07,-1886.78,-328.74
16940,-3.8691,1.9097,-0.2859,-1413.82,-1871.22,77.51
16950,-3.8687,1.8942,-0.2797,445.56,-590.03,-1859.99
16960,-3.8683,1.9191,-0.2634,-1538.82,206.79,1702.58
16970,-3.8680,1.9377,-0.2301,1648.68,-1715.03,858.83
16980,-3.8680,1.9034,-0.1954,39.31,-1449.34,-1391.11
16990,-3.8682,1.8240,-0.1841,-351.32,-1011.96,530.82
17000,-3.8687,1.7344,-0.1952,1476.81,441.04,-500.37
17010,-3.8691,1.6554,-0.2056,-1991.94,-981.02,-1844.18
17020,-3.8698,1.5853,-0.2144,-101.32,1690.67,-531.68
17030,-3.8702,1.5016,-0.2383,-1070.07,565.55,1437.07
17040,-3.8707,1.3875,-0.2870,211.18,1502.93,1171.39
17050,-3.8712,1.2473,-0.3481,1601.81,-731.69,-797.49
17060,-3.8716,1.0911,-0.4210,-335.69,-560.12,-1031.98
17070,-3.8718,0.9286,-0.5229,-335.69,-1888.55,342.90
17080,-3.8722,0.7655,-0.6467,-1132.57,1064.27,-1032.29
17090,-3.8724,0.6017,-0.7765,1992.43,1220.21,-1501.28
17100,-3.8727,0.4346,-0.9017,1023.68,610.53,-282.78
17110,-3.8728,0.2520,-1.0074,-366.94,578.92,-1267.40
17120,-3.8729,0.0513,-1.0823,258.06,-952.64,-1533.26
17130,-3.8730,-0.1433,-1.1312,-1429.44,1468.81,-1580.26
17140,-3.8730,-0.3057,-1.1742,1664.31,-781.56,169.62
17150,-3.8730,-0.4417,-1.2024,883.06,1718.14,-1502.32
17160,-3.8728,-0.5710,-1.1860,-523.19,-1891.54,-1877.38
17170,-3.8724,-0.7101,-1.1191,-1085.69,201.97,1013.31
17180,-3.8721,-0.8488,-1.0314,1117.43,764.22,1091.55
17190,-3.8717,-0.9552,-0.9760,-632.57,-1.71,1060.42
17200,-3.8715,-1.0250,-0.9690,1742.43,-908.14,-564.45
17210,-3.8712,-1.0737,-0.9943,804.93,-17.64,-173.83
17220,-3.8710,-1.1158,-1.0477,-1429.44,747.86,1623.05
17230,-3.8710,-1.1482,-1.0958,1179.93,1904.05,-705.20
17240,-3.8710,-1.1519,-1.0771,1039.31,-252.26,-658.45
17250,-3.8708,-1.1279,-1.0067,570.56,-1861.63,1966.61
17260,-3.8707,-1.0852,-0.9408,-366.94,-846.01,-783.26
17270,-3.8705,-1.0367,-0.8828,1101.81,-408.39,638.73
17280,-3.8705,-1.0139,-0.8258,-695.07,-986.45,-970.52
17290,-3.8705,-1.0350,-0.7783,-1773.19,-1689.51,138.98
17300,-3.8707,-1.0740,-0.7336,-476.32,388.55,373.47
17310,-3.8711,-1.0784,-0.6792,-1460.69,-1892.76,-1595.21
17320,-3.8713,-1.0325,-0.6290,1976.81,1075.99,1639.28
17330,-3.8716,-0.9591,-0.5951,-148.19,-502.08,-673.16
17340,-3.8717,-0.8832,-0.5677,1242.43,-158.14,-1782.47
17350,-3.8718,-0.8220,-0.5352,-1038.82,-658.02,1389.47
17360,-3.8719,-0.7731,-0.5082,-1210.69,-486.02,1405.15
17370,-3.8721,-0.7347,-0.4937,1054.93,-1032.78,-1141.66
17380,-3.8721,-0.7140,-0.4757,1961.18,826.66,1124.02
17390,-3.8722,-0.7015,-0.4528,617.43,-876.40,-1360.35
17400,-3.8723,-0.6710,-0.4351,-1788.82,-1938.90,-1266.54
17410,-3.8724,-0.6086,-0.4214,-1882.57,326.78,1389.77
17420,-3.8727,-0.5195,-0.4027,-1898.19,-1923.10,-1110.23
17430,-3.8729,-0.4102,-0.3783,1508.06,467.71,-32.04
17440,-3.8730,-0.2795,-0.3612,-491.94,-407.10,1061.71
17450,-3.8733,-0.1222,-0.3669,226.81,1780.70,-1688.23
17460,-3.8734,0.0602,-0.3820,367.43,1046.63,171.14
17470,-3.8737,0.2495,-0.3850,-288.82,-890.56,-610.17
17480,-3.8738,0.4567,-0.3850,-54.44,-1280.82,-125.79
17490,-3.8738,0.7361,-0.3768,-1538.82,-1280.40,-1516.42
17500,-3.8737,1.0725,-0.3440,-1773.19,-232.97,-1422.67
17510,-3.8733,1.3809,-0.2848,1289.31,-29.17,1718.02
17520,-3.8728,1.5928,-0.2262,758.06,-450.44,1015.01
17530,-3.8723,1.6887,-0.2081,-116.94,-950.07,858.89
17540,-3.8719,1.7183,-0.2305,164.31,1362.67,-1375.43
17550,-3.8716,1.7358,-0.2736,-54.44,-1496.70,1640.14
17560,-3.8712,1.7740,-0.2988,-1804.44,987.73,-1813.05
17570,-3.8706,1.8417,-0.2900,-913.82,1753.42,358.76
17580,-3.8700,1.9021,-0.2556,-257.57,-1121.46,1952.51
17590,-3.8694,1.9058,-0.2100,-523.19,-715.09,1765.08
17600,-3.8689,1.8409,-0.1953,-54.44,1128.66,812.07
17610,-3.8687,1.7463,-0.2480,-351.32,-996.46,-391.05
17620,-3.8683,1.6559,-0.3477,-460.69,253.36,1624.51
17630,-3.8679,1.5597,-0.4252,-38.82,-496.83,499.27
17640,-3.8677,1.4492,-0.4448,-351.32,1581.12,14.77
17650,-3.8678,1.3440,-0.4227,1508.06,-934.69,1483.46
17660,-3.8683,1.2649,-0.3823,39.31,1893.25,1936.65
17670,-3.8690,1.2002,-0.3324,1914.31,-935.06,1327.33
17680,-3.8699,1.1251,-0.2841,1633.06,1455.44,1702.45
17690,-3.8707,1.0350,-0.2480,23.68,-357.18,-344.36
17700,-3.8713,0.9399,-0.2461,492.43,252.01,1171.39
17710,-3.8719,0.8390,-0.2887,320.56,501.83,-1719.24
17720,-3.8724,0.7234,-0.3632,-601.32,-951.54,-953.74
17730,-3.8728,0.5981,-0.4666,601.81,1517.03,-906.98
17740,-3.8730,0.4607,-0.5834,570.56,282.41,-1922.79
17750,-3.8732,0.3054,-0.6874,-1023.19,1328.98,342.59
17760,-3.8733,0.1587,-0.7719,-898.19,16.17,-1423.22
17770,-3.8732,0.0363,-0.8317,320.56,1203.43,1529.72
17780,-3.8729,-0.0781,-0.8563,648.68,1546.94,654.60
17790,-3.8727,-0.1953,-0.8550,-1991.94,-1593.93,-1611.08
17800,-3.8723,-0.3195,-0.8491,-991.94,-1422.30,1404.54
17810,-3.8719,-0.4534,-0.8571,-882.57,-672.55,1060.79
17820,-3.8716,-0.6023,-0.8771,1976.81,-1688.42,1388.92
17830,-3.8712,-0.7686,-0.8912,-1085.69,-251.22,1216.98
17840,-3.8710,-0.9392,-0.9136,1633.06,1935.97,-1939.27
17850,-3.8708,-1.0884,-0.9529,-210.69,-923.77,1888.79
17860,-3.8708,-1.1929,-0.9894,695.56,-1955.26,1451.23
17870,-3.8710,-1.2294,-1.0135,-679.44,1372.62,-736.33
17880,-3.8710,-1.1913,-1.0259,-1351.32,-1721.19,1091.74
17890,-3.8710,-1.1178,-1.0177,-476.32,700.74,388.61
17900,-3.8710,-1.0536,-0.9713,929.93,1747.80,1607.36
17910,-3.8710,-1.0150,-0.8994,1148.68,-314.58,-595.70
17920,-3.8708,-0.9915,-0.8313,-1913.82,888.61,701.35
17930,-3.8708,-0.9695,-0.7771,1101.81,1607.42,1295.23
17940,-3.8708,-0.9480,-0.7283,-85.69,544.92,498.47
17950,-3.8710,-0.9264,-0.6779,-1335.69,-1205.02,1529.79
17960,-3.8711,-0.8972,-0.6300,1429.93,1248.17,529.91
17970,-3.8713,-0.8549,-0.5857,1164.31,-626.77,-1610.66
17980,-3.8716,-0.8041,-0.5483,-1413.82,1045.17,-219.91
17990,-3.8717,-0.7532,-0.5210,1086.18,1826.54,1623.90
18000,-3.8718,-0.7037,-0.5031,-398.19,1326.60,577.09
18010,-3.8719,-0.6545,-0.4929,1929.93,-376.40,545.84
18020,-3.8721,-0.6045,-0.4836,226.81,920.59,952.15
18030,-3.8722,-0.5544,-0.4685,-1366.94,-1891.85,1702.15
18040,-3.8723,-0.5122,-0.4436,1039.31,45.78,-1235.29
18050,-3.8724,-0.4741,-0.4150,-1554.44,-766.66,-141.54
18060,-3.8724,-0.4150,-0.3962,-679.44,-1110.35,905.40
18070,-3.8726,-0.3176,-0.3931,-1116.94,1296.02,1202.33
18080,-3.8728,-0.1797,-0.4022,-648.19,1702.45,-688.29
18090,-3.8729,-0.0018,-0.4222,1008.06,530.88,124.21
18100,-3.8732,0.2150,-0.4448,-226.32,1968.69,-1391.48
18110,-3.8733,0.4641,-0.4696,-476.32,-937.13,-1094.67
18120,-3.8733,0.7856,-0.4958,-585.69,-108.52,217.77
18130,-3.8733,1.1816,-0.4890,570.56,532.78,780.27
18140,-3.8732,1.5391,-0.3976,-741.94,1408.51,-375.98
18150,-3.8728,1.7568,-0.2540,1008.06,1112.37,-0.79
18160,-3.8723,1.8215,-0.1819,883.06,-512.21,-813.05
18170,-3.8717,1.7921,-0.2227,1164.31,722.29,1155.88
18180,-3.8711,1.7202,-0.3047,1398.68,-496.52,1030.76
18190,-3.8705,1.6207,-0.3615,195.56,1003.36,-734.99
18200,-3.8698,1.4921,-0.3789,-538.82,1737.49,-1360.11
18210,-3.8691,1.3506,-0.3759,-1007.57,-497.13,-1344.54
18220,-3.8687,1.2297,-0.3715,883.06,-106.75,999.21
18230,-3.8684,1.1434,-0.3702,1414.31,455.51,671.14
18240,-3.8684,1.1169,-0.3754,-1632.57,611.57,-1156.98
18250,-3.8684,1.1486,-0.3828,-1023.19,-44.74,-1032.04
18260,-3.8684,1.1945,-0.3824,-976.32,-997.80,-1391.42
18270,-3.8685,1.2366,-0.3805,898.68,-950.81,-313.29
18280,-3.8687,1.2562,-0.3794,-1710.69,-700.74,1124.21
18290,-3.8690,1.2247,-0.3660,804.93,-560.06,-188.29
18300,-3.8693,1.1526,-0.3423,773.68,1158.63,139.89
18310,-3.8698,1.0723,-0.3311,-460.69,189.70,-891.30
18320,-3.8701,1.0026,-0.3342,1258.06,1627.08,-1610.05
18330,-3.8705,0.9528,-0.3411,336.18,1220.70,-1906.92
18340,-3.8708,0.9219,-0.3553,1961.18,345.58,-1281.92
18350,-3.8711,0.8960,-0.3857,-1991.94,-1482.60,1889.89
18360,-3.8713,0.8621,-0.4344,-1304.44,-1373.29,-500.79
18370,-3.8715,0.8010,-0.5010,-1648.19,392.27,1983.52
18380,-3.8716,0.6987,-0.5858,-1460.69,-123.47,405.21
18390,-3.8718,0.5608,-0.6803,1445.56,1016.97,-1704.28
18400,-3.8721,0.3940,-0.7639,-210.69,922.91,-376.34
18410,-3.8722,0.2098,-0.8214,-1554.44,-1780.52,467.22
18420,-3.8724,0.0311,-0.8574,-1132.57,-1140.26,1373.35
18430,-3.8726,-0.1299,-0.8772,-7.57,-1750.00,420.17
18440,-3.8727,-0.2804,-0.8789,-616.94,-265.93,-1392.40
18450,-3.8727,-0.4286,-0.8779,117.43,-484.92,-1470.52
18460,-3.8727,-0.5852,-0.8922,1148.68,-360.23,-454.90
18470,-3.8726,-0.7599,-0.9019,1101.81,1811.34,-1048.65
18480,-3.8723,-0.9297,-0.8894,-1257.57,576.60,-1829.90
18490,-3.8719,-1.0415,-0.8785,1008.06,-1829.96,732.60
18500,-3.8716,-1.0687,-0.8926,-1304.44,-439.58,1701.35
18510,-3.8712,-1.0264,-0.9066,-788.82,1763.49,-533.02
18520,-3.8708,-0.9496,-0.8978,633.06,-33.26,-1048.71
18530,-3.8706,-0.8750,-0.8865,-1538.82,1091.86,-1408.02
18540,-3.8705,-0.8309,-0.8838,8.06,-1454.83,-564.27
18550,-3.8704,-0.8383,-0.8799,1648.68,-1111.02,-814.27
18560,-3.8702,-0.8965,-0.8652,711.18,-611.02,1998.23
18570,-3.8702,-0.9865,-0.8373,1258.06,1263.85,-736.08
18580,-3.8702,-1.0754,-0.7950,1742.43,841.80,-1720.40
18590,-3.8704,-1.1379,-0.7378,-1648.19,-1752.14,1295.29
18600,-3.8707,-1.1561,-0.6740,-1648.19,1575.87,-95.21
18610,-3.8711,-1.1204,-0.6150,23.68,1747.74,-1.34
18620,-3.8715,-1.0453,-0.5665,601.81,1294.68,-407.47
18630,-3.8717,-0.9523,-0.5393,-1788.82,-502.08,1326.97
18640,-3.8719,-0.8660,-0.5312,-1882.57,-1017.52,-891.72
18650,-3.8719,-0.8079,-0.5228,1164.31,13.92,545.84
18660,-3.8721,-0.7815,-0.5112,601.81,1092.16,-282.29
18670,-3.8721,-0.7716,-0.5062,-23.19,-1423.46,-829.16
18680,-3.8721,-0.7583,-0.5068,1242.43,-782.78,-1313.54
18690,-3.8721,-0.7289,-0.5044,-1054.44,-860.90,1952.09
18700,-3.8721,-0.6805,-0.4988,-1288.82,-548.34,30.21
18710,-3.8722,-0.6174,-0.4922,898.68,170.53,577.15
18720,-3.8724,-0.5457,-0.4902,976.81,1014.40,-375.98
18730,-3.8726,-0.4667,-0.4989,-1835.69,1264.53,780.27
18740,-3.8728,-0.3704,-0.5111,273.68,155.33,952.15
18750,-3.8730,-0.2490,-0.5076,601.81,-1406.98,1811.46
18760,-3.8733,-0.1003,-0.4930,133.06,-953.61,-657.29
18770,-3.8734,0.0770,-0.4862,-835.69,906.01,1842.77
18780,-3.8735,0.2787,-0.4868,1867.43,1765.75,1670.90
18790,-3.8737,0.5198,-0.4961,-320.07,1687.99,-1219.73
18800,-3.8737,0.8344,-0.5007,-1460.69,500.98,-1860.35
18810,-3.8735,1.2214,-0.4679,-1195.07,-92.16,1327.09
18820,-3.8733,1.5824,-0.3876,351.81,111.76,-1235.29
18830,-3.8728,1.8125,-0.3092,-1445.07,-1606.32,-1344.54
18840,-3.8722,1.9078,-0.2966,8.06,425.42,-1297.49
18850,-3.8715,1.9163,-0.3390,211.18,-1965.03,1061.89
18860,-3.8707,1.8839,-0.3602,1289.31,613.10,108.70
18870,-3.8701,1.8497,-0.3326,1148.68,1894.29,-1485.11
18880,-3.8694,1.8594,-0.2764,773.68,1425.48,1968.08
18890,-3.8687,1.9194,-0.2052,-1991.94,628.60,-1109.92
18900,-3.8679,1.9810,-0.1531,1695.56,1738.10,265.20
18910,-3.8676,1.9894,-0.1404,1570.56,410.10,1421.57
18920,-3.8674,1.9258,-0.1498,-1351.32,-1964.90,1124.69
18930,-3.8676,1.8175,-0.1694,-1491.94,831.85,718.44
18940,-3.8679,1.7019,-0.1899,648.68,-1683.96,-1140.99
18950,-3.8683,1.5927,-0.1937,1851.81,-309.20,1062.07
18960,-3.8689,1.4899,-0.1740,-132.57,-793.82,-781.68
18970,-3.8695,1.3970,-0.1509,-1288.82,1737.24,1874.63
18980,-3.8702,1.3093,-0.1351,-1179.44,690.19,-594.06
18990,-3.8708,1.2257,-0.1317,-398.19,-1294.37,1890.32
19000,-3.8715,1.1562,-0.1539,898.68,-856.99,-1015.93
19010,-3.8718,1.0884,-0.1951,8.06,299.13,359.07
19020,-3.8722,0.9927,-0.2455,-679.44,-966.67,1905.82
19030,-3.8724,0.8662,-0.3181,-929.44,580.02,-1922.36
19040,-3.8726,0.7273,-0.4297,-1116.94,-717.10,171.20
19050,-3.8727,0.5798,-0.5591,1101.81,1001.40,92.90
19060,-3.8728,0.4178,-0.6876,-1773.19,438.60,1608.28
19070,-3.8728,0.2543,-0.8225,1492.43,-14.83,373.60
19080,-3.8728,0.0997,-0.9633,554.93,-1280.76,1185.85
19090,-3.8727,-0.0765,-1.0801,773.68,703.31,1373.11
19100,-3.8726,-0.3094,-1.1248,-1788.82,1765.44,-361.51
19110,-3.8723,-0.5925,-1.0791,398.68,46.26,732.18
19120,-3.8723,-0.8936,-0.9590,164.31,1889.47,-1095.89
19130,-3.8723,-1.1520,-0.7750,1633.06,1263.85,-626.89
19140,-3.8722,-1.2821,-0.6132,554.93,810.24,1107.85
19150,-3.8721,-1.2218,-0.6176,-101.32,1528.69,-1579.35
19160,-3.8718,-1.0204,-0.7745,-382.57,966.31,-1391.85
19170,-3.8715,-0.8201,-0.9500,1398.68,872.99,357.85
19180,-3.8711,-0.7356,-1.0664,-960.69,-1579.77,451.23
19190,-3.8706,-0.7946,-1.1115,1851.81,-485.84,1388.49
19200,-3.8700,-0.9401,-1.1212,-1695.07,1748.41,1263.43
19210,-3.8695,-1.1022,-1.1241,-320.07,498.11,-127.20
19220,-3.8690,-1.2379,-1.1005,-1070.07,122.80,-1345.95
19230,-3.8688,-1.3177,-1.0508,1554.93,-846.19,-1674.07
19240,-3.8688,-1.3149,-0.9960,-663.82,1513.00,-1877.08
19250,-3.8690,-1.2272,-0.9265,-304.44,528.63,-595.70
19260,-3.8694,-1.0898,-0.8351,-1070.07,1419.43,-95.58
19270,-3.8698,-0.9379,-0.7494,508.06,1122.86,935.85
19280,-3.8704,-0.7903,-0.6858,-38.82,91.86,-173.34
19290,-3.8708,-0.6642,-0.6388,-1148.19,232.79,-938.84
19300,-3.8712,-0.5793,-0.6108,-1007.57,-1751.34,498.72
19310,-3.8716,-0.5430,-0.5951,1851.81,1826.97,655.03
19320,-3.8719,-0.5347,-0.5800,-1491.94,-157.35,-329.35
19330,-3.8721,-0.5237,-0.5656,-429.44,1780.15,1061.34
19340,-3.8723,-0.4930,-0.5531,976.81,-376.04,-204.28
19350,-3.8724,-0.4355,-0.5454,898.68,1217.77,-1141.72
19360,-3.8726,-0.3451,-0.5369,258.06,-1797.73,1873.90
19370,-3.8727,-0.2249,-0.5112,-163.82,-703.86,1139.53
19380,-3.8728,-0.0858,-0.4562,-773.19,-1422.36,717.71
19390,-3.8729,0.0854,-0.3911,1023.68,1624.82,30.33
19400,-3.8732,0.3168,-0.3472,-1054.44,1937.62,-1094.54
19410,-3.8733,0.6073,-0.3313,554.93,-436.89,-1688.23
19420,-3.8733,0.9143,-0.3324,1742.43,1594.91,343.08
19430,-3.8733,1.1820,-0.3490,1039.31,1454.90,-641.30
19440,-3.8729,1.3749,-0.3737,-695.07,-669.62,1421.14
19450,-3.8724,1.5063,-0.3735,-7.57,174.50,-672.61
19460,-3.8717,1.6086,-0.3384,820.56,190.43,-516.36
19470,-3.8708,1.7291,-0.3051,1914.31,690.61,968.08
19480,-3.8702,1.9025,-0.2805,1336.18,956.48,1999.39
19490,-3.8698,2.0737,-0.2189,-476.32,97.41,983.83
19500,-3.8695,2.1689,-0.1185,1445.56,-11.60,1780.76
19510,-3.8694,2.1819,-0.0287,1633.06,832.34,124.76
19520,-3.8695,2.1350,0.0271,-710.69,332.34,1765.56
19530,-3.8696,2.0519,0.0558,1289.31,-527.10,1843.75
19540,-3.8698,1.9581,0.0631,-1351.32,-855.41,-1640.56
19550,-3.8699,1.8564,0.0577,-1351.32,81.91,-953.00
19560,-3.8700,1.7476,0.0486,1633.06,-605.77,-890.56
19570,-3.8701,1.6434,0.0367,-304.44,-1777.89,-1749.94
19580,-3.8702,1.5469,0.0253,-1632.57,706.30,156.31
19590,-3.8705,1.4451,0.0110,-1991.94,-762.63,906.25
19600,-3.8707,1.3307,-0.0066,976.81,1409.06,390.62
19610,-3.8711,1.2173,-0.0273,-1663.82,-841.19,-1437.56
19620,-3.8713,1.1195,-0.0546,-179.44,502.32,46.81
19630,-3.8717,1.0186,-0.0863,-695.07,1017.76,1593.63
19640,-3.8721,0.8907,-0.1287,-1616.94,955.08,-437.68
19650,-3.8723,0.7389,-0.1958,-1976.32,-467.04,1374.69
19660,-3.8727,0.5643,-0.2966,-1413.82,-1061.10,-1281.68
19670,-3.8729,0.3707,-0.4152,242.43,-1967.65,390.01
19680,-3.8733,0.1669,-0.5172,-538.82,-1139.95,-485.23
19690,-3.8734,-0.0417,-0.5829,1367.43,1797.18,1108.34
19700,-3.8735,-0.2416,-0.6146,-1335.69,1406.13,-1813.66
19710,-3.8735,-0.4208,-0.6132,1086.18,1343.26,-532.47
19720,-3.8733,-0.5673,-0.6022,-1851.32,1530.40,1545.65
19730,-3.8729,-0.6578,-0.6295,-601.32,-1063.66,-1876.22
19740,-3.8723,-0.6896,-0.7020,-195.07,-563.84,1576.84
19750,-3.8716,-0.6898,-0.7898,-257.57,-1845.15,1389.22
19760,-3.8708,-0.6949,-0.8594,-288.82,-1079.53,-657.84
19770,-3.8701,-0.7240,-0.9065,-945.07,-1985.78,-501.71
19780,-3.8695,-0.7760,-0.9558,-663.82,-17.09,-1751.83
19790,-3.8691,-0.8423,-1.0060,679.93,1670.35,-236.27
19800,-3.8688,-0.9252,-1.0243,195.56,-751.65,1201.11
19810,-3.8687,-1.0260,-0.9984,1586.18,904.42,-1564.51
19820,-3.8687,-1.1304,-0.9504,679.93,216.74,1998.05
19830,-3.8689,-1.2194,-0.8976,-679.44,-1642.88,-1611.27
19840,-3.8693,-1.2588,-0.8303,-70.07,1122.56,185.73
19850,-3.8699,-1.2198,-0.7480,-1116.94,1731.87,-767.27
19860,-3.8704,-1.0996,-0.6683,-132.57,263.18,-782.71
19870,-3.8707,-0.9348,-0.6041,-741.94,-1533.45,-1938.84
19880,-3.8710,-0.7819,-0.5531,351.81,-1314.33,842.53
19890,-3.8712,-0.6833,-0.5115,-70.07,1217.16,-1126.10
19900,-3.8713,-0.6473,-0.4926,539.31,-1454.47,-1641.66
19910,-3.8715,-0.6458,-0.4932,1148.68,967.47,-1360.35
19920,-3.8716,-0.6500,-0.4910,1351.81,889.34,-188.48
19930,-3.8716,-0.6377,-0.4817,804.93,1170.59,749.02
19940,-3.8717,-0.5913,-0.4678,-1616.94,-1641.91,858.40
19950,-3.8719,-0.5117,-0.4393,320.56,139.47,-125.92
19960,-3.8721,-0.4114,-0.3922,-1491.94,-219.79,983.46
19970,-3.8723,-0.2970,-0.3340,-648.19,1811.65,514.83
19980,-3.8727,-0.1711,-0.2776,1992.43,1265.01,-391.30
19990,-3.8729,-0.0326,-0.2360,-1898.19,484.01,-422.42
20000,-3.8730,0.1290,-0.2091,-163.82,1812.38,1327.64
20010,-3.8732,0.3207,-0.1969,523.68,1234.62,1093.32
20020,-3.8733,0.5696,-0.1997,1054.93,-1202.51,-594.18
20030,-3.8732,0.8846,-0.2135,914.31,-1561.40,390.20
20040,-3.8730,1.2349,-0.2194,1242.43,673.58,702.70
20050,-3.8728,1.5405,-0.1976,-1929.44,-75.74,-1312.99
20060,-3.8723,1.7260,-0.1566,1195.56,-1293.88,-1016.05
20070,-3.8717,1.7950,-0.1320,929.93,-43.52,-906.62
20080,-3.8711,1.7930,-0.1505,1773.68,-887.15,-62.81
20090,-3.8705,1.7689,-0.1826,1508.06,737.85,-375.31
20100,-3.8699,1.7332,-0.1927,-1570.07,628.42,-1906.62
20110,-3.8694,1.6863,-0.1732,1851.81,-668.52,-1812.93
20120,-3.8691,1.6667,-0.1300,-148.19,1831.36,-109.74
20130,-3.8690,1.7063,-0.0719,1351.81,-637.39,655.94
20140,-3.8693,1.7958,-0.0114,-1585.69,-1199.83,-1031.43
20150,-3.8695,1.8927,0.0303,1867.43,-1449.65,-562.56
20160,-3.8696,1.9296,0.0363,-1726.32,-121.34,562.50
20170,-3.8699,1.8639,0.0050,-1007.57,644.35,-468.69
20180,-3.8700,1.7053,-0.0529,-1413.82,644.23,-812.50
20190,-3.8701,1.5009,-0.1274,-1710.69,1237.67,-890.75
20200,-3.8702,1.2888,-0.1897,117.43,-309.57,-797.18
20210,-3.8704,1.0886,-0.2184,976.81,-278.75,1405.82
20220,-3.8706,0.9314,-0.2197,-648.19,48.95,124.57
20230,-3.8711,0.8446,-0.2078,-773.19,-123.23,-156.74
20240,-3.8715,0.8068,-0.2037,117.43,1407.90,-1953.55
20250,-3.8718,0.7640,-0.2302,-726.32,1923.40,437.07
20260,-3.8722,0.6760,-0.2885,1804.93,-1467.29,140.14
20270,-3.8726,0.5271,-0.3616,-1460.69,-920.59,1390.01
20280,-3.8728,0.3385,-0.4578,-523.19,1719.73,1358.64
20290,-3.8729,0.1489,-0.5896,-663.82,1406.86,1077.21
20300,-3.8729,-0.0287,-0.7339,-929.44,531.49,561.34
20310,-3.8729,-0.2067,-0.8405,336.18,-1921.94,-1110.84
20320,-3.8728,-0.3982,-0.8883,1554.93,437.07,-1095.40
20330,-3.8726,-0.5964,-0.9019,1039.31,-1688.29,638.85
20340,-3.8723,-0.7599,-0.9091,-335.69,576.90,810.73
20350,-3.8721,-0.8486,-0.9330,-1257.57,-345.28,-64.33
20360,-3.8716,-0.8632,-0.9697,-616.94,592.04,-1236.21
20370,-3.8711,-0.8413,-0.9844,1523.68,-111.08,-80.08
20380,-3.8706,-0.8241,-0.9674,320.56,-1986.02,-345.70
20390,-3.8702,-0.8416,-0.9512,-1476.32,185.85,-1345.64
20400,-3.8700,-0.9006,-0.9497,289.31,-1736.02,419.98
20410,-3.8700,-0.9891,-0.9407,726.81,-1548.65,-689.39
20420,-3.8699,-1.0890,-0.9110,1398.68,-392.58,1685.61
20430,-3.8699,-1.1774,-0.8700,617.43,-595.89,-392.46
20440,-3.8699,-1.2489,-0.8312,1304.93,653.93,-939.21
20450,-3.8700,-1.3064,-0.8058,148.68,1622.56,1513.98
20460,-3.8704,-1.3296,-0.7830,789.31,872.44,-1126.59
20470,-3.8707,-1.2927,-0.7273,1820.56,-205.75,1732.79
20480,-3.8711,-1.2001,-0.6316,-1460.69,-1080.69,1357.91
20490,-3.8715,-1.0710,-0.5369,-1601.32,-830.51,-16.91
20500,-3.8716,-0.9332,-0.4829,-1085.69,-705.26,1248.90
20510,-3.8718,-0.8174,-0.4655,554.93,-1798.71,-313.48
20520,-3.8719,-0.7472,-0.4600,-616.94,435.85,-875.92
20530,-3.8721,-0.7180,-0.4536,367.43,1139.16,-125.92
20540,-3.8721,-0.6971,-0.4517,101.81,1951.72,1967.83
20550,-3.8721,-0.6587,-0.4561,-1226.32,-1798.28,952.21
20560,-3.8722,-0.5988,-0.4484,-304.44,1639.28,-438.42
20570,-3.8722,-0.5154,-0.4242,-632.57,-1376.22,280.33
20580,-3.8724,-0.4041,-0.3978,-1960.69,1717.71,-1344.60
20590,-3.8727,-0.2742,-0.3688,289.31,1092.96,-532.04
20600,-3.8728,-0.1411,-0.3409,914.31,811.95,77.39
20610,-3.8730,-0.0018,-0.3293,1945.56,374.69,-1719.42
20620,-3.8732,0.1797,-0.3394,-226.32,1859.31,-1344.42
20630,-3.8732,0.4268,-0.3649,-991.94,562.81,1014.95
20640,-3.8732,0.7258,-0.3749,-1366.94,1297.67,-1922.61
20650,-3.8730,1.0518,-0.3389,914.31,17.03,-1031.98
20660,-3.8727,1.3715,-0.2522,-1366.94,627.01,811.83
20670,-3.8722,1.6072,-0.1487,-445.07,-278.63,358.83
20680,-3.8717,1.7015,-0.0951,1726.81,971.86,-1000.31
20690,-3.8712,1.7031,-0.1140,1804.93,-168.58,-0.24
20700,-3.8707,1.6880,-0.1484,-1991.94,1409.55,999.76
20710,-3.8705,1.7123,-0.1373,70.56,1003.30,-1219.06
20720,-3.8702,1.8059,-0.0826,-820.07,-1574.83,-609.68
20730,-3.8699,1.9633,-0.0247,-835.69,1425.35,812.32
20740,-3.8696,2.1279,0.0107,-695.07,847.53,-812.56
20750,-3.8693,2.2194,0.0151,383.06,1379.15,250.00
20760,-3.8691,2.2024,-0.0215,86.18,1941.83,-1437.50
20770,-3.8690,2.0992,-0.0859,1914.31,1254.27,-1453.19
20780,-3.8689,1.9398,-0.1509,711.18,1004.09,234.19
20790,-3.8690,1.7430,-0.2053,304.93,691.28,-1875.31
20800,-3.8693,1.5426,-0.2517,-882.57,1722.11,-47.30
20810,-3.8695,1.3628,-0.2915,1461.18,-215.76,-1344.30
20820,-3.8699,1.1913,-0.3141,-1554.44,-1309.88,-1797.49
20830,-3.8704,1.0265,-0.3170,492.43,-200.81,-1594.42
20840,-3.8710,0.8887,-0.3162,-601.32,-576.17,-344.42
20850,-3.8716,0.7716,-0.3291,1758.06,-467.04,-828.80
20860,-3.8722,0.6536,-0.3640,-1226.32,1876.46,-1094.42
20870,-3.8727,0.5278,-0.4160,-335.69,1407.47,1483.64
20880,-3.8730,0.3885,-0.4696,-429.44,-1249.02,1046.02
20890,-3.8733,0.2386,-0.5210,1742.43,-108.64,-1360.35
20900,-3.8733,0.0822,-0.5760,-1445.07,1312.93,-1563.54
20910,-3.8732,-0.0902,-0.6195,-1476.32,-1734.25,-1501.16
20920,-3.8729,-0.2754,-0.6384,461.18,718.57,358.15
20930,-3.8727,-0.4531,-0.6429,758.06,-1703.67,733.09
20940,-3.8723,-0.6099,-0.6394,-1991.94,1717.83,654.97
20950,-3.8719,-0.7476,-0.6321,1945.56,-1829.35,-329.41
20960,-3.8715,-0.8628,-0.6261,320.56,-892.09,-610.66
20970,-3.8710,-0.9413,-0.6339,1570.56,-126.71,92.47
20980,-3.8707,-0.9741,-0.6722,-476.32,-1126.89,45.59
20990,-3.8707,-0.9717,-0.7328,-679.44,1966.80,-1016.97
21000,-3.8707,-0.9630,-0.7992,-366.94,-1783.20,-1267.09
21010,-3.8707,-0.9819,-0.8523,742.43,1716.86,-1048.46
21020,-3.8706,-1.0394,-0.8784,-1679.44,-1080.08,-1626.71
21030,-3.8704,-1.1165,-0.8845,-1038.82,-423.95,1326.35
21040,-3.8701,-1.1948,-0.8708,1101.81,-1205.32,1841.98
21050,-3.8699,-1.2581,-0.8379,-929.44,544.49,232.67
21060,-3.8699,-1.2798,-0.7972,-1023.19,763.12,1560.85
21070,-3.8700,-1.2458,-0.7543,195.56,1966.25,-1782.84
21080,-3.8701,-1.1708,-0.7058,539.31,-533.69,326.60
21090,-3.8704,-1.0834,-0.6510,-1851.32,1669.56,920.47
21100,-3.8706,-1.0026,-0.6029,1336.18,685.36,154.97
21110,-3.8710,-0.9279,-0.5717,-320.07,-1158.26,-1360.60
21120,-3.8712,-0.8524,-0.5509,1242.43,-1158.08,1811.34
21130,-3.8715,-0.7767,-0.5310,-1101.32,1498.29,-1172.97
21140,-3.8716,-0.7079,-0.5040,586.18,45.35,1311.46
21150,-3.8717,-0.6448,-0.4734,1398.68,-501.40,748.96
21160,-3.8718,-0.5815,-0.4473,1476.81,-579.41,920.90
21170,-3.8719,-0.5161,-0.4252,1570.56,-1235.53,842.83
21180,-3.8722,-0.4448,-0.4032,1945.56,1592.71,-657.10
21190,-3.8723,-0.3516,-0.3799,-929.44,405.33,577.33
21200,-3.8726,-0.2289,-0.3510,-991.94,-610.11,1796.08
21210,-3.8728,-0.0800,-0.3119,-1288.82,-906.74,-735.11
21220,-3.8729,0.1086,-0.2750,1773.68,93.57,655.64
21230,-3.8732,0.3457,-0.2501,1914.31,797.06,-1563.05
21240,-3.8733,0.6362,-0.2344,258.06,-14.95,1311.95
21250,-3.8734,0.9806,-0.2181,1445.56,-1998.78,-1484.86
21260,-3.8733,1.3585,-0.1890,1523.68,80.02,343.32
21270,-3.8730,1.6943,-0.1403,1898.68,-184.88,1921.45
21280,-3.8726,1.9100,-0.0905,883.06,-1949.83,-328.43
21290,-3.8718,2.0065,-0.0847,492.43,425.60,1484.19
21300,-3.8712,2.0276,-0.1215,836.18,1160.16,-515.81
21310,-3.8705,2.0120,-0.1384,-460.69,457.03,1484.13
21320,-3.8699,1.9753,-0.1184,1539.31,-1714.84,-1312.81
21330,-3.8693,1.9301,-0.0990,851.81,847.60,1702.88
21340,-3.8688,1.8889,-0.0862,-945.07,-668.15,1343.51
21350,-3.8685,1.8441,-0.0630,1789.31,972.41,-859.56
21360,-3.8684,1.7836,-0.0359,54.93,-58.90,1874.82
21370,-3.8685,1.7130,-0.0157,304.93,-590.27,1640.50
21380,-3.8688,1.6414,-0.0109,-726.32,1987.67,187.44
21390,-3.8693,1.5736,-0.0267,-1898.19,-1387.45,-125.06
21400,-3.8696,1.5002,-0.0540,1429.93,581.18,-1843.81
21410,-3.8700,1.3975,-0.0723,39.31,1096.68,93.63
21420,-3.8705,1.2524,-0.0839,-1116.94,-1247.31,1796.69
21430,-3.8710,1.0732,-0.1086,320.56,1268.07,-1562.68
21440,-3.8715,0.8826,-0.1433,1383.06,-1904.17,-1953.37
21450,-3.8719,0.7147,-0.1794,976.81,1657.96,-1922.18
21460,-3.8723,0.5911,-0.2178,-507.57,1032.59,1202.76
21470,-3.8726,0.4918,-0.2533,-335.69,126.10,952.70
21480,-3.8728,0.3807,-0.2864,-1038.82,-420.96,-47.42
21490,-3.8729,0.2437,-0.3264,742.43,-655.52,-16.24
21500,-3.8729,0.0862,-0.3756,-804.44,-1780.82,1124.33
21510,-3.8729,-0.0789,-0.4259,-960.69,-78.00,1530.46
21520,-3.8728,-0.2365,-0.4684,1914.31,1499.82,-1250.85
21530,-3.8726,-0.3817,-0.5035,1742.43,62.01,-688.42
21540,-3.8722,-0.5265,-0.5487,-851.32,-438.29,61.46
21550,-3.8721,-0.6707,-0.6014,617.43,1780.21,-1313.60
21560,-3.8719,-0.7953,-0.6345,-1835.69,-970.09,-954.35
21570,-3.8718,-0.8834,-0.6537,-1788.82,-1204.71,-95.03
21580,-3.8716,-0.9402,-0.6873,-1070.07,341.98,-735.66
21590,-3.8712,-0.9871,-0.7396,-335.69,44.98,998.66
21600,-3.8708,-1.0409,-0.7885,1664.31,1341.80,404.79
21610,-3.8705,-1.0959,-0.8226,-1226.32,-908.33,154.66
21620,-3.8702,-1.1434,-0.8508,-273.19,-1283.45,-1111.02
21630,-3.8699,-1.1892,-0.8754,1648.68,-892.88,13.92
21640,-3.8698,-1.2377,-0.8770,-210.69,-33.63,-501.77
21650,-3.8695,-1.2795,-0.8383,1586.18,-236.82,545.10
21660,-3.8695,-1.2850,-0.7750,226.81,716.25,1013.98
21670,-3.8698,-1.2383,-0.7129,-476.32,809.94,-298.40
21680,-3.8700,-1.1598,-0.6571,1508.06,763.18,1686.10
21690,-3.8704,-1.0750,-0.5991,-445.07,-96.07,795.53
21700,-3.8708,-0.9923,-0.5430,-1585.69,-674.01,-985.60
21710,-3.8712,-0.9108,-0.5037,992.43,-1486.33,-1532.35
21720,-3.8715,-0.8339,-0.4845,-570.07,-454.96,389.59
21730,-3.8717,-0.7708,-0.4766,1273.68,1998.35,999.02
21740,-3.8719,-0.7247,-0.4668,1351.81,-985.90,-219.73
21750,-3.8721,-0.6864,-0.4479,-757.57,264.16,-94.67
21760,-3.8721,-0.6389,-0.4265,148.68,-1313.84,608.46
21770,-3.8722,-0.5741,-0.4109,-1773.19,1420.59,936.65
21780,-3.8723,-0.4954,-0.3945,-1476.32,-579.28,327.27
21790,-3.8726,-0.4056,-0.3712,601.81,1514.65,-1266.42
21800,-3.8727,-0.2992,-0.3508,86.18,499.21,514.89
21810,-3.8729,-0.1660,-0.3463,1711.18,-891.24,-1875.73
21820,-3.8732,-0.0015,-0.3539,-1241.94,-312.87,-125.73
21830,-3.8733,0.1965,-0.3568,-179.44,-1281.31,-1360.11
21840,-3.8734,0.4471,-0.3564,1164.31,-1671.51,-1641.36
21850,-3.8735,0.7946,-0.3622,1242.43,-1624.15,-500.73
21860,-3.8734,1.2063,-0.3506,1711.18,1642.15,1811.77
21870,-3.8730,1.5829,-0.3016,-1585.69,-872.68,1139.89
21880,-3.8724,1.8383,-0.2374,-1382.57,1393.68,1030.64
21890,-3.8717,1.9427,-0.1975,-695.07,1612.92,1218.26
21900,-3.8711,1.9724,-0.1941,679.93,-1277.47,-359.80
21910,-3.8705,2.0056,-0.1965,476.81,-839.90,1155.82
21920,-3.8700,2.0734,-0.1641,726.81,-1152.34,1593.32
21930,-3.8695,2.1624,-0.1014,1398.68,-995.97,-422.24
21940,-3.8689,2.2167,-0.0565,789.31,-980.16,812.26
21950,-3.8685,2.1974,-0.0503,-257.57,769.90,-1109.50
21960,-3.8683,2.1112,-0.0767,1273.68,1566.77,-297.00
21970,-3.8682,1.9852,-0.1234,-1757.57,-1808.41,-1062.68
21980,-3.8682,1.8397,-0.1635,-1882.57,206.97,1499.76
21990,-3.8684,1.6908,-0.1809,-507.57,-918.33,-0.37
22000,-3.8687,1.5399,-0.1835,429.93,847.05,-1859.74
22010,-3.8691,1.3711,-0.1832,1117.43,518.62,-922.24
22020,-3.8698,1.1810,-0.1858,-491.94,549.50,-750.37
22030,-3.8704,0.9856,-0.1886,-820.07,221.01,905.88
22040,-3.8711,0.8146,-0.1924,-1835.69,-138.73,-1766.05
22050,-3.8717,0.6929,-0.2004,273.68,-623.41,1171.45
22060,-3.8723,0.6084,-0.2130,695.56,-1654.91,-1453.55
22070,-3.8728,0.5309,-0.2285,1883.06,735.53,-859.80
22080,-3.8732,0.4438,-0.2443,-38.82,-1249.02,-516.11
22090,-3.8734,0.3456,-0.2654,820.56,735.23,-594.24
22100,-3.8735,0.2389,-0.2982,242.43,-1968.08,-688.05
22110,-3.8735,0.1333,-0.3433,-1413.82,1828.55,-953.74
22120,-3.8734,0.0239,-0.3949,1070.56,62.74,1327.45
22130,-3.8733,-0.1056,-0.4448,-929.44,1453.12,1296.08
22140,-3.8732,-0.2629,-0.4877,-1507.57,-922.12,-1438.42
22150,-3.8729,-0.4279,-0.5276,-1648.19,1593.20,1077.15
22160,-3.8727,-0.5640,-0.5740,1242.43,483.52,-1360.41
22170,-3.8722,-0.6671,-0.6254,-179.44,-1454.28,498.84
22180,-3.8717,-0.7498,-0.6741,-1382.57,-32.59,1436.22
22190,-3.8712,-0.8268,-0.7166,39.31,1732.91,-1454.47
22200,-3.8707,-0.9137,-0.7618,-1820.07,295.23,670.47
22210,-3.8705,-1.0076,-0.8232,-945.07,-1501.83,1779.72
22220,-3.8704,-1.0968,-0.8925,-960.69,-1361.39,1545.23
22230,-3.8704,-1.1757,-0.9489,-382.57,1779.05,-1158.02
22240,-3.8702,-1.2450,-0.9800,1523.68,-1439.82,-1767.52
22250,-3.8700,-1.2979,-0.9847,648.68,-1424.32,1669.92
22260,-3.8698,-1.3221,-0.9675,1883.06,1966.19,-1314.45
22270,-3.8695,-1.3168,-0.9320,-1226.32,169.25,1638.73
22280,-3.8694,-1.2888,-0.8837,-538.82,716.13,560.67
22290,-3.8695,-1.2374,-0.8253,-960.69,-1096.31,-1329.90
22300,-3.8696,-1.1554,-0.7625,1617.43,-1627.44,529.60
22310,-3.8700,-1.0527,-0.6941,117.43,-1580.38,-579.65
22320,-3.8704,-0.9539,-0.6228,1258.06,-830.20,-1.40
22330,-3.8707,-0.8708,-0.5625,1914.31,294.98,-1063.72
22340,-3.8711,-0.7988,-0.5179,539.31,13.92,1655.15
22350,-3.8715,-0.7347,-0.4790,1758.06,1717.16,1639.59
22360,-3.8718,-0.6752,-0.4438,1961.18,-1298.34,-969.73
22370,-3.8721,-0.6151,-0.4147,1586.18,-798.22,1624.08
22380,-3.8723,-0.5532,-0.3811,1273.68,-1063.72,1171.02
22390,-3.8726,-0.4836,-0.3400,1195.56,-766.72,1061.71
22400,-3.8728,-0.3969,-0.3004,-1898.19,499.02,1264.95
22410,-3.8730,-0.2905,-0.2694,1211.18,1561.71,-1469.36
22420,-3.8732,-0.1686,-0.2446,-1179.44,1530.64,890.08
22430,-3.8734,-0.0278,-0.2281,-1570.07,702.76,-16.11
22440,-3.8734,0.1512,-0.2198,445.56,-1187.56,405.76
22450,-3.8735,0.3789,-0.2114,-632.57,-140.38,-1406.74
22460,-3.8735,0.6615,-0.2009,508.06,938.23,-1469.18
22470,-3.8734,0.9819,-0.1847,679.93,-1717.47,624.57
22480,-3.8733,1.2828,-0.1659,1695.56,361.27,-875.37
22490,-3.8728,1.5138,-0.1532,211.18,-1231.87,187.13
22500,-3.8723,1.6627,-0.1479,1773.68,393.55,-1234.68
22510,-3.8717,1.7306,-0.1492,836.18,1065.73,-422.18
22520,-3.8710,1.7323,-0.1427,1523.68,909.61,62.19
22530,-3.8705,1.7018,-0.1213,1742.43,1737.73,-515.93
22540,-3.8699,1.6560,-0.0959,1836.18,472.05,1890.38
22550,-3.8694,1.5992,-0.0753,-23.19,-278.08,-922.12
22560,-3.8689,1.5287,-0.0538,711.18,-1637.51,890.44
22570,-3.8687,1.4521,-0.0253,-320.07,1112.30,718.63
22580,-3.8687,1.3896,0.0061,1883.06,768.43,1437.44
22590,-3.8689,1.3479,0.0289,1883.06,783.94,-718.75
22600,-3.8691,1.3168,0.0398,539.31,-294.25,78.12
22610,-3.8696,1.2806,0.0455,554.93,1096.31,-1671.81
22620,-3.8700,1.2188,0.0448,-70.07,1830.57,218.81
22630,-3.8705,1.1190,0.0428,8.06,1736.76,-1265.56
22640,-3.8708,0.9930,0.0316,-757.57,1486.51,-1749.94
22650,-3.8712,0.8676,0.0052,-882.57,48.77,-1156.19
22660,-3.8715,0.7633,-0.0231,-945.07,673.52,625.00
22670,-3.8717,0.6956,-0.0540,1711.18,1048.34,390.56
22680,-3.8719,0.6759,-0.0914,1039.31,1095.09,-890.75
22690,-3.8719,0.6968,-0.1355,-1476.32,298.16,1218.57
22700,-3.8719,0.7244,-0.1869,1195.56,-1342.41,-1250.31
22710,-3.8718,0.7257,-0.2465,726.81,79.53,-1250.37
22720,-3.8716,0.6913,-0.3156,898.68,454.53,171.39
22730,-3.8715,0.6257,-0.3865,492.43,-389.28,-1594.42
