timestamp_ms,ax,ay,az,gx,gy,gz
0,-3.8716,0.2203,-0.5095,-1070.07,-1765.38,-1485.41
10,-3.8719,0.2930,-0.4971,211.18,-1218.32,358.34
20,-3.8724,0.3678,-0.4972,1508.06,375.55,-657.23
30,-3.8727,0.4546,-0.5098,-913.82,360.05,624.02
40,-3.8729,0.5549,-0.5293,-1804.44,-1249.15,-1016.66
50,-3.8729,0.6655,-0.5675,-960.69,251.04,-1047.91
60,-3.8728,0.7848,-0.6237,1195.56,-639.34,1889.47
70,-3.8727,0.9034,-0.6798,461.18,173.40,1780.03
80,-3.8726,1.0243,-0.7251,-351.32,986.08,1826.78
90,-3.8724,1.1403,-0.7627,-882.57,-810.55,1623.54
100,-3.8723,1.2346,-0.8033,1961.18,-1622.80,1639.10
110,-3.8722,1.3042,-0.8458,-1960.69,1174.26,-1282.84
120,-3.8719,1.3492,-0.8770,-1054.44,-263.12,1217.04
130,-3.8718,1.3746,-0.8820,711.18,-247.38,-845.52
140,-3.8717,1.3816,-0.8550,-38.82,-888.00,623.23
150,-3.8718,1.3555,-0.8086,851.81,-1434.81,904.54
160,-3.8721,1.2826,-0.7656,1508.06,502.62,-376.59
170,-3.8721,1.1713,-0.7365,179.93,-1997.50,60.97
180,-3.8722,1.0398,-0.7155,1929.93,1736.63,-1001.46
190,-3.8721,0.9021,-0.6993,1101.81,423.89,326.72
200,-3.8721,0.7743,-0.6897,-523.19,-1513.92,-688.90
210,-3.8719,0.6713,-0.6812,-882.57,-279.79,-860.78
220,-3.8718,0.5930,-0.6648,1929.93,813.78,-1001.34
230,-3.8717,0.5244,-0.6490,-85.69,-1092.65,-1173.22
240,-3.8716,0.4526,-0.6447,-866.94,922.85,-313.78
250,-3.8713,0.3818,-0.6416,1945.56,1485.23,1733.09
260,-3.8712,0.3204,-0.6351,883.06,1875.73,-220.03
270,-3.8710,0.2642,-0.6373,1023.68,-1296.26,264.34
280,-3.8710,0.2078,-0.6488,1820.56,-1577.64,-563.78
290,-3.8708,0.1483,-0.6652,-1398.19,953.49,-938.78
300,-3.8707,0.0765,-0.6788,-1007.57,-1140.38,-235.72
310,-3.8705,-0.0194,-0.6591,1804.93,1109.50,701.78
320,-3.8704,-0.1533,-0.5930,1523.68,-343.81,1779.91
330,-3.8702,-0.3282,-0.5101,383.06,109.07,-63.66
340,-3.8700,-0.5227,-0.4374,1992.43,-1281.92,-907.29
350,-3.8698,-0.7136,-0.3716,1101.81,30.21,-1907.10
360,-3.8695,-0.8982,-0.2827,664.31,451.72,61.77
370,-3.8694,-1.0894,-0.1362,1039.31,-173.65,1765.01
380,-3.8691,-1.3032,0.0536,570.56,-1424.01,999.69
390,-3.8689,-1.5436,0.2373,1195.56,-1127.56,-1578.06
400,-3.8685,-1.7925,0.4020,-1570.07,-1612.43,250.43
410,-3.8684,-2.0154,0.5531,-1429.44,-534.79,-639.89
420,-3.8683,-2.1688,0.6908,-1960.69,-1191.47,594.79
430,-3.8685,-2.2251,0.8170,-1601.32,433.23,-1389.28
440,-3.8689,-2.1936,0.9127,-804.44,589.36,-217.16
450,-3.8691,-2.1182,0.9696,-773.19,839.42,142.40
460,-3.8695,-2.0483,1.0009,883.06,120.85,1267.52
470,-3.8699,-1.9978,0.9967,1820.56,120.97,-1248.05
480,-3.8701,-1.9376,0.9546,289.31,-410.16,111.27
490,-3.8705,-1.8331,0.8917,-7.57,-1800.72,423.71
500,-3.8710,-1.6807,0.8209,1367.43,-1847.35,-592.04
510,-3.8713,-1.5039,0.7450,883.06,1090.45,-1295.29
520,-3.8716,-1.3303,0.6591,-491.94,-627.99,563.90
530,-3.8718,-1.1814,0.5718,1726.81,372.38,-1576.84
540,-3.8718,-1.0723,0.4846,789.31,1200.81,1204.22
550,-3.8717,-1.0001,0.3834,-1241.94,-1955.26,391.54
560,-3.8716,-0.9388,0.2783,-7.57,1091.74,-1530.52
570,-3.8713,-0.8635,0.1899,-163.82,-361.27,1375.49
580,-3.8712,-0.7706,0.1077,1476.81,326.42,-1577.76
590,-3.8711,-0.6711,0.0157,1367.43,1795.35,437.68
600,-3.8711,-0.5702,-0.0747,-1898.19,-1970.09,671.88
610,-3.8711,-0.4646,-0.1522,-976.32,-1548.03,906.07
620,-3.8711,-0.3621,-0.2211,539.31,530.33,-1890.93
630,-3.8710,-0.2820,-0.2891,1664.31,-281.98,1218.26
640,-3.8708,-0.2357,-0.3638,-85.69,-984.99,-781.86
650,-3.8706,-0.2090,-0.4421,1836.18,1452.64,-1203.86
660,-3.8704,-0.1724,-0.5049,1258.06,-578.55,795.96
670,-3.8704,-0.1102,-0.5455,1945.56,-609.74,-1501.04
680,-3.8705,-0.0199,-0.5780,1898.68,-1812.74,-969.85
690,-3.8707,0.1040,-0.6002,1461.18,-1968.81,-219.91
700,-3.8710,0.2551,-0.6117,1320.56,-827.94,-1438.72
710,-3.8712,0.4080,-0.6412,664.31,1703.61,1186.28
720,-3.8715,0.5386,-0.6981,226.81,1922.67,-1454.41
730,-3.8715,0.6418,-0.7559,945.56,-1358.34,-1548.28
740,-3.8712,0.7261,-0.8125,-1835.69,-748.78,1201.60
750,-3.8710,0.8030,-0.8774,945.56,1.40,-1595.34
760,-3.8707,0.8982,-0.9280,-1210.69,-310.97,1966.98
770,-3.8706,1.0253,-0.9478,-1023.19,1220.46,1748.17
780,-3.8706,1.1630,-0.9480,-757.57,-1310.55,1388.73
790,-3.8707,1.2836,-0.9283,867.43,-1341.49,-1689.39
800,-3.8708,1.3621,-0.8794,304.93,1174.38,-1861.21
810,-3.8710,1.3759,-0.8127,-1648.19,-559.88,982.60
820,-3.8712,1.3175,-0.7511,117.43,-28.56,-1329.77
830,-3.8715,1.2052,-0.6998,648.68,-138.06,-314.03
840,-3.8716,1.0677,-0.6543,-1726.32,-1575.81,967.35
850,-3.8718,0.9343,-0.6119,679.93,252.08,-907.53
860,-3.8719,0.8378,-0.5618,-398.19,1673.65,-1673.10
870,-3.8721,0.7955,-0.5120,-757.57,95.34,-672.97
880,-3.8721,0.7949,-0.4762,1836.18,-1529.72,1514.59
890,-3.8721,0.8058,-0.4540,1758.06,-951.60,452.15
900,-3.8721,0.8026,-0.4572,-851.32,1892.15,1686.58
910,-3.8719,0.7750,-0.4972,-1257.57,1485.90,-1313.42
920,-3.8717,0.7329,-0.5532,-788.82,360.84,-782.23
930,-3.8713,0.6899,-0.5980,1820.56,1188.90,-1969.85
940,-3.8710,0.6420,-0.6412,320.56,-545.53,1186.28
950,-3.8707,0.5850,-0.6896,-1820.07,1923.10,-1516.91
960,-3.8705,0.5189,-0.7234,-1116.94,-264.53,1342.35
970,-3.8704,0.4410,-0.7330,-1570.07,-592.77,-1735.84
980,-3.8702,0.3607,-0.7340,461.18,-1827.27,1311.04
990,-3.8702,0.2887,-0.7467,-1820.07,-1952.45,-970.21
1000,-3.8701,0.2206,-0.7698,961.18,422.42,248.54
1010,-3.8701,0.1411,-0.7893,242.43,1469.18,1670.35
1020,-3.8701,0.0320,-0.7958,-1929.44,-1031.01,-1.59
1030,-3.8700,-0.1206,-0.7830,101.81,-1859.31,-704.71
1040,-3.8699,-0.3186,-0.7322,570.56,-203.37,-610.96
1050,-3.8696,-0.5565,-0.6272,-773.19,-1703.80,29.79
1060,-3.8695,-0.8262,-0.4805,773.68,-266.72,639.34
1070,-3.8694,-1.1058,-0.3052,-1741.94,-1486.02,1686.52
1080,-3.8693,-1.3665,-0.1127,-1538.82,950.93,-16.24
1090,-3.8690,-1.5922,0.0714,1101.81,1591.06,-1390.87
1100,-3.8689,-1.7759,0.2274,211.18,1153.14,-999.88
1110,-3.8689,-1.9103,0.3676,695.56,1121.52,-905.82
1120,-3.8690,-2.0042,0.5219,-507.57,-941.28,-749.33
1130,-3.8691,-2.0852,0.6846,-523.19,-1191.47,1250.98
1140,-3.8694,-2.1639,0.8279,1101.81,-363.46,-1826.84
1150,-3.8696,-2.2263,0.9381,-976.32,1980.10,-1420.29
1160,-3.8699,-2.2531,1.0067,-960.69,89.36,-1045.04
1170,-3.8701,-2.2303,1.0295,-382.57,870.54,-1185.55
1180,-3.8704,-2.1573,1.0087,-1476.32,-207.52,1642.58
1190,-3.8707,-2.0430,0.9528,-132.57,1120.73,-13.67
1200,-3.8710,-1.9001,0.8778,-1491.94,1964.72,-357.54
1210,-3.8711,-1.7562,0.7909,789.31,371.28,-1732.67
1220,-3.8712,-1.6335,0.6881,-788.82,1246.52,-123.47
1230,-3.8712,-1.5198,0.5706,-1085.69,90.52,-436.16
1240,-3.8711,-1.3993,0.4492,1476.81,1043.88,391.72
1250,-3.8711,-1.2838,0.3354,898.68,1512.88,1203.98
1260,-3.8711,-1.1847,0.2268,-320.07,-1049.44,750.61
1270,-3.8712,-1.0900,0.1174,367.43,1044.56,-1140.20
1280,-3.8712,-0.9850,0.0096,492.43,-955.26,422.06
1290,-3.8713,-0.8727,-0.1035,1929.93,1248.05,1859.38
1300,-3.8715,-0.7611,-0.2269,304.93,-1236.08,-906.49
1310,-3.8715,-0.6545,-0.3474,-1413.82,-1032.78,1077.64
1320,-3.8715,-0.5583,-0.4576,226.81,-454.41,1061.77
1330,-3.8715,-0.4685,-0.5648,539.31,1436.40,-922.79
1340,-3.8713,-0.3665,-0.6674,39.31,-282.17,1233.22
1350,-3.8713,-0.2411,-0.7545,1101.81,-1406.98,1670.53
1360,-3.8713,-0.0918,-0.8285,1148.68,-562.99,139.10
1370,-3.8715,0.0898,-0.9022,258.06,1968.57,1576.48
1380,-3.8715,0.3036,-0.9717,-491.94,515.75,170.10
1390,-3.8715,0.5210,-1.0209,-1132.57,-374.45,1138.67
1400,-3.8715,0.7145,-1.0591,-1304.44,1329.10,-1267.64
1410,-3.8715,0.8845,-1.1145,-538.82,438.84,-658.33
1420,-3.8715,1.0503,-1.1854,1226.81,1345.46,-314.70
1430,-3.8713,1.2271,-1.2330,-1554.44,267.64,1872.68
1440,-3.8712,1.3964,-1.2405,1070.56,-1825.74,-768.07
1450,-3.8710,1.5128,-1.2292,-1257.57,1221.44,-1174.32
1460,-3.8707,1.5516,-1.2126,1648.68,-1340.82,1872.56
1470,-3.8706,1.5258,-1.1854,-1382.57,784.24,-1924.26
1480,-3.8706,1.4689,-1.1436,-695.07,268.55,-783.57
1490,-3.8706,1.4083,-1.0823,23.68,1627.87,1903.99
1500,-3.8707,1.3447,-1.0040,273.68,1471.50,-1705.26
1510,-3.8708,1.2650,-0.9218,133.06,-513.00,13.61
1520,-3.8711,1.1664,-0.8413,1929.93,-1981.93,76.29
1530,-3.8713,1.0623,-0.7593,1304.93,314.76,357.73
1540,-3.8716,0.9689,-0.6818,-23.19,-1185.49,1326.60
1550,-3.8718,0.8876,-0.6222,23.68,736.27,-1891.97
1560,-3.8721,0.8112,-0.5841,1617.43,361.08,-391.85
1570,-3.8721,0.7394,-0.5740,-163.82,1235.90,1264.47
1580,-3.8719,0.6741,-0.5936,-1351.32,-1467.35,1217.59
1590,-3.8717,0.6052,-0.6366,-1710.69,16.91,-1298.03
1600,-3.8713,0.5302,-0.6895,1476.81,-1483.22,-1173.16
1610,-3.8710,0.4626,-0.7290,-132.57,-249.02,-798.28
1620,-3.8706,0.4010,-0.7542,-773.19,-1311.65,-1688.96
1630,-3.8704,0.3397,-0.7705,-663.82,-530.52,-1454.65
1640,-3.8702,0.2880,-0.7716,-507.57,1375.61,-454.65
1650,-3.8701,0.2400,-0.7698,867.43,1234.92,-1892.15
1660,-3.8701,0.1704,-0.7726,-1273.19,1469.18,-1064.03
1670,-3.8701,0.0516,-0.7533,1820.56,1109.68,-439.03
1680,-3.8700,-0.1331,-0.6959,-1382.57,-421.81,-1392.15
1690,-3.8698,-0.3771,-0.6208,-1023.19,-1062.81,904.85
1700,-3.8695,-0.6542,-0.5336,-257.57,546.08,1076.90
1710,-3.8693,-0.9375,-0.4148,273.68,-282.53,1655.15
1720,-3.8690,-1.2080,-0.2664,8.06,-1079.96,1452.27
1730,-3.8688,-1.4534,-0.1149,1383.06,1919.49,93.20
1740,-3.8687,-1.6680,0.0354,1976.81,1309.63,624.76
1750,-3.8687,-1.8501,0.2041,-1491.94,543.58,1187.56
1760,-3.8688,-2.0001,0.3857,-804.44,-1863.04,984.74
1770,-3.8690,-2.1279,0.5540,-7.57,1386.66,781.98
1780,-3.8694,-2.2449,0.6951,-366.94,-1082.34,-1514.59
1790,-3.8696,-2.3439,0.8048,664.31,979.98,79.47
1800,-3.8700,-2.4017,0.8787,-7.57,-973.39,-1889.10
1810,-3.8702,-2.3997,0.9159,586.18,479.68,95.46
1820,-3.8706,-2.3348,0.9098,851.81,1245.30,-1638.85
1830,-3.8708,-2.2128,0.8584,1148.68,464.17,1173.65
1840,-3.8711,-2.0485,0.7782,773.68,1886.29,392.27
1850,-3.8713,-1.8666,0.6896,1804.93,-379.03,173.34
1860,-3.8716,-1.6932,0.6068,1086.18,277.59,1220.09
1870,-3.8717,-1.5448,0.5326,-726.32,1684.14,48.03
1880,-3.8718,-1.4185,0.4584,-1726.32,184.45,235.41
1890,-3.8719,-1.2991,0.3811,-1554.44,-1315.31,1938.35
1900,-3.8719,-1.1797,0.3040,1726.81,794.31,1656.98
1910,-3.8719,-1.0652,0.2241,1008.06,-1080.44,-1405.70
1920,-3.8719,-0.9586,0.1377,-335.69,700.99,-671.45
1930,-3.8719,-0.8605,0.0529,1304.93,1638.73,-765.38
1940,-3.8719,-0.7682,-0.0199,1867.43,-1220.46,-781.19
1950,-3.8718,-0.6743,-0.0872,1679.93,1467.22,62.44
1960,-3.8718,-0.5773,-0.1678,1695.56,858.03,1062.32
1970,-3.8718,-0.4822,-0.2670,-1882.57,-1469.91,1890.26
1980,-3.8718,-0.3904,-0.3673,-1710.69,1842.77,-453.67
1990,-3.8717,-0.2999,-0.4514,-1960.69,999.21,-703.86
2000,-3.8715,-0.2190,-0.5234,1617.43,-1766.24,811.58
2010,-3.8713,-0.1571,-0.5898,-23.19,1015.14,-1735.41
2020,-3.8712,-0.1038,-0.6422,-101.32,515.26,-1735.53
2030,-3.8712,-0.0385,-0.6750,-1273.19,1812.26,-220.03
2040,-3.8712,0.0497,-0.7009,-913.82,1609.25,1936.16
2050,-3.8713,0.1610,-0.7336,-1632.57,-1718.69,1701.72
2060,-3.8715,0.2939,-0.7721,617.43,-1905.94,857.91
2070,-3.8716,0.4438,-0.8114,1633.06,1172.42,482.85
2080,-3.8717,0.6029,-0.8466,820.56,141.48,-1751.59
2090,-3.8717,0.7555,-0.8729,1179.93,-358.22,-1173.58
2100,-3.8716,0.8837,-0.8875,711.18,267.09,1170.17
2110,-3.8715,0.9800,-0.8894,1117.43,-1592.04,435.73
2120,-3.8715,1.0492,-0.8865,1445.56,-1841.86,-361.15
2130,-3.8713,1.1039,-0.8831,-1695.07,-1466.74,1920.10
2140,-3.8713,1.1464,-0.8713,1304.93,-1029.11,-1376.77
2150,-3.8713,1.1731,-0.8475,-1257.57,470.95,1123.29
2160,-3.8715,1.1791,-0.8130,-1835.69,-482.12,1920.17
2170,-3.8716,1.1516,-0.7714,-1070.07,-60.24,-1111.02
2180,-3.8716,1.0807,-0.7366,-585.69,1267.82,1639.10
2190,-3.8716,0.9773,-0.7084,-1663.82,1720.83,-1532.71
2200,-3.8715,0.8759,-0.6697,1101.81,1330.02,670.47
2210,-3.8715,0.8048,-0.6177,117.43,-1717.04,-1610.72
2220,-3.8715,0.7672,-0.5668,-976.32,939.03,-1969.97
2230,-3.8715,0.7487,-0.5339,-1788.82,-545.41,170.72
2240,-3.8716,0.7301,-0.5200,-163.82,-342.35,-438.60
2250,-3.8715,0.6984,-0.5175,1461.18,1438.90,-1626.04
2260,-3.8712,0.6548,-0.5189,1398.68,1766.97,92.71
2270,-3.8711,0.6088,-0.5190,-179.44,1579.35,-688.54
2280,-3.8708,0.5638,-0.5159,1929.93,1563.66,-47.91
2290,-3.8705,0.5171,-0.5122,179.93,1969.85,1905.21
2300,-3.8701,0.4677,-0.5154,-1804.44,-1561.52,639.59
2310,-3.8699,0.4194,-0.5334,-132.57,-1967.90,-407.29
2320,-3.8695,0.3792,-0.5634,1695.56,-280.46,1248.90
2330,-3.8693,0.3424,-0.5967,539.31,-108.64,326.97
2340,-3.8691,0.2957,-0.6272,-163.82,-374.39,1342.53
2350,-3.8690,0.2235,-0.6471,1851.81,-280.70,1576.84
2360,-3.8689,0.1106,-0.6532,617.43,1172.30,1686.22
2370,-3.8688,-0.0439,-0.6482,-1835.69,390.81,1795.59
2380,-3.8687,-0.2327,-0.6292,-1616.94,1046.75,1295.59
2390,-3.8687,-0.4578,-0.5750,-1773.19,-516.11,-126.28
2400,-3.8685,-0.7235,-0.4729,1414.31,-1579.04,-1048.03
2410,-3.8684,-1.0133,-0.3495,-601.32,-517.09,-219.73
2420,-3.8682,-1.2855,-0.2327,-1695.07,-720.76,1499.27
2430,-3.8680,-1.5027,-0.1052,-538.82,-1768.19,1093.26
2440,-3.8682,-1.6594,0.0588,-335.69,-1456.12,-422.12
2450,-3.8683,-1.7823,0.2440,-398.19,-456.42,625.06
2460,-3.8687,-1.9034,0.4082,-132.57,-753.54,-1640.20
2470,-3.8690,-2.0251,0.5289,367.43,261.90,-608.58
2480,-3.8693,-2.1265,0.6169,789.31,-285.22,188.48
2490,-3.8698,-2.1859,0.6908,-179.44,-1019.84,-920.72
2500,-3.8702,-2.1908,0.7432,211.18,433.23,-311.16
2510,-3.8707,-2.1404,0.7594,-413.82,-863.71,-748.60
2520,-3.8712,-2.0419,0.7416,-1960.69,1214.54,-1061.04
2530,-3.8717,-1.9114,0.7000,-1351.32,-1066.53,-248.60
2540,-3.8721,-1.7650,0.6475,-648.19,1605.59,-1717.41
2550,-3.8724,-1.6165,0.5948,-1913.82,-1112.85,-858.15
2560,-3.8727,-1.4783,0.5437,1101.81,153.08,-1186.34
2570,-3.8728,-1.3517,0.4841,-1210.69,1606.45,672.91
2580,-3.8729,-1.2272,0.4132,-1007.57,1981.69,688.42
2590,-3.8730,-1.0936,0.3422,-1070.07,903.81,-374.21
2600,-3.8729,-0.9535,0.2760,23.68,-189.64,719.36
2610,-3.8729,-0.8197,0.2107,1961.18,-658.14,-1452.64
2620,-3.8728,-0.7006,0.1382,-913.82,-1017.27,422.24
2630,-3.8728,-0.5929,0.0563,-1663.82,1701.72,-1124.76
2640,-3.8727,-0.4922,-0.0212,117.43,-782.41,-1656.19
2650,-3.8726,-0.3992,-0.0933,1008.06,1295.90,-1812.56
2660,-3.8724,-0.3175,-0.1749,914.31,77.33,-1390.81
2670,-3.8722,-0.2574,-0.2714,-632.57,1624.33,874.63
2680,-3.8719,-0.2201,-0.3721,-945.07,1280.70,-1625.55
2690,-3.8716,-0.1879,-0.4576,-163.82,390.14,-1078.86
2700,-3.8712,-0.1398,-0.5127,-38.82,1437.07,-719.67
2710,-3.8710,-0.0643,-0.5420,-1882.57,-1609.68,-1391.66
2720,-3.8710,0.0352,-0.5546,-226.32,-1359.56,-1376.10
2730,-3.8711,0.1569,-0.5502,508.06,1015.69,967.65
2740,-3.8713,0.2933,-0.5402,86.18,1578.43,123.90
2750,-3.8717,0.4332,-0.5448,1554.93,-1140.08,1827.03
2760,-3.8721,0.5792,-0.5602,-538.82,-1733.58,-1282.35
2770,-3.8724,0.7292,-0.5720,-1851.32,297.97,-376.10
2780,-3.8727,0.8593,-0.6021,1351.81,-1217.35,1701.97
2790,-3.8728,0.9611,-0.6599,1992.43,-1060.85,1155.03
2800,-3.8727,1.0521,-0.7054,-976.32,-466.92,-454.47
2810,-3.8722,1.1278,-0.7314,-1320.07,1705.14,-251.40
2820,-3.8716,1.1753,-0.7645,367.43,-1622.80,-923.34
2830,-3.8710,1.1992,-0.8019,-1554.44,-1857.12,217.22
2840,-3.8706,1.2008,-0.8302,1508.06,1361.69,623.41
2850,-3.8705,1.1799,-0.8491,1711.18,1736.69,-314.15
2860,-3.8704,1.1384,-0.8552,-960.69,-685.24,-642.33
2870,-3.8702,1.0764,-0.8405,1726.81,-1466.55,-1517.33
2880,-3.8701,0.9906,-0.8082,1789.31,423.95,1279.60
2890,-3.8701,0.8855,-0.7743,-1195.07,548.77,-1642.21
2900,-3.8701,0.7826,-0.7473,1351.81,892.33,1639.10
2910,-3.8701,0.7091,-0.7188,179.93,345.28,217.29
2920,-3.8702,0.6819,-0.6871,-1226.32,1.34,-423.28
2930,-3.8702,0.6942,-0.6720,-710.69,48.16,-501.34
2940,-3.8702,0.7200,-0.6748,867.43,1985.72,-626.34
2950,-3.8701,0.7274,-0.6766,164.31,1626.40,186.16
2960,-3.8701,0.7031,-0.6733,1117.43,1392.03,-1141.97
2970,-3.8700,0.6528,-0.6747,-1991.94,1813.84,-1141.97
2980,-3.8699,0.5757,-0.6870,-429.44,1641.85,-1048.22
2990,-3.8698,0.4755,-0.7041,1695.56,63.60,1764.28
3000,-3.8698,0.3645,-0.7217,867.43,1875.92,-1251.40
3010,-3.8698,0.2467,-0.7285,-1335.69,-374.33,-1392.09
3020,-3.8698,0.1195,-0.6904,-413.82,-1249.57,-1892.09
3030,-3.8698,-0.0327,-0.5952,-695.07,-374.82,1186.10
3040,-3.8699,-0.2303,-0.4778,-179.44,-172.00,-344.97
3050,-3.8699,-0.4749,-0.3708,-1476.32,-1141.11,-1422.85
3060,-3.8699,-0.7438,-0.2800,-773.19,545.90,-594.48
3070,-3.8698,-0.9966,-0.1934,804.93,170.41,1577.58
3080,-3.8698,-1.2010,-0.0839,445.56,-736.33,-766.05
3090,-3.8698,-1.3678,0.0759,-1726.32,1278.87,-812.68
3100,-3.8698,-1.5480,0.2699,929.93,1731.69,-1546.75
3110,-3.8698,-1.7682,0.4534,1867.43,-1440.55,-702.64
3120,-3.8696,-2.0022,0.6117,1679.93,-1956.60,1625.85
3130,-3.8696,-2.2059,0.7468,-273.19,-1691.47,1673.03
3140,-3.8699,-2.3408,0.8644,1648.68,-394.96,-139.22
3150,-3.8701,-2.3900,0.9642,383.06,-1348.33,392.27
3160,-3.8706,-2.3572,1.0332,-1913.82,-567.20,1970.58
3170,-3.8711,-2.2648,1.0563,-1710.69,260.99,-935.49
3180,-3.8715,-2.1388,1.0304,-1882.57,-785.71,1658.26
3190,-3.8718,-1.9946,0.9681,-1757.57,-97.96,-1294.92
3200,-3.8721,-1.8414,0.8889,695.56,-66.41,1564.33
3210,-3.8723,-1.6843,0.8055,304.93,1793.27,-1935.79
3220,-3.8724,-1.5305,0.7135,414.31,-878.30,423.40
3230,-3.8726,-1.3944,0.6107,101.81,-659.24,610.72
3240,-3.8727,-1.2820,0.5002,1523.68,-1815.25,-1139.47
3250,-3.8727,-1.1755,0.3928,-85.69,44.31,-124.02
3260,-3.8726,-1.0570,0.2939,1539.31,-1705.44,-280.52
3270,-3.8723,-0.9288,0.1903,711.18,1638.55,813.05
3280,-3.8722,-0.7999,0.0770,1117.43,373.17,1547.24
3290,-3.8721,-0.6724,-0.0359,1617.43,1873.41,-1906.13
3300,-3.8719,-0.5505,-0.1436,1945.56,-579.47,-1187.62
3310,-3.8717,-0.4463,-0.2477,1539.31,1639.53,624.69
3320,-3.8715,-0.3700,-0.3505,-1116.94,311.58,1374.51
3330,-3.8711,-0.3158,-0.4512,648.68,-844.48,952.39
3340,-3.8707,-0.2704,-0.5481,-413.82,-1735.05,1030.33
3350,-3.8705,-0.2198,-0.6394,1398.68,1858.83,-1094.85
3360,-3.8702,-0.1445,-0.7195,-132.57,-1828.61,889.34
3370,-3.8701,-0.0194,-0.7780,1508.06,-78.43,29.79
3380,-3.8701,0.1599,-0.8167,1523.68,437.44,1342.22
3390,-3.8702,0.3700,-0.8553,476.81,-530.94,-251.65
3400,-3.8704,0.5923,-0.8995,-632.57,-1483.70,-736.08
3410,-3.8705,0.8073,-0.9307,-179.44,860.47,998.23
3420,-3.8707,0.9875,-0.9351,-663.82,876.53,-767.46
3430,-3.8707,1.1145,-0.9296,-1585.69,314.39,138.79
3440,-3.8708,1.1938,-0.9351,-1335.69,1017.76,-95.58
3450,-3.8707,1.2532,-0.9548,820.56,314.82,-1861.21
3460,-3.8706,1.3096,-0.9845,414.31,1783.69,-1970.64
3470,-3.8705,1.3673,-1.0060,-366.94,1986.88,1826.17
3480,-3.8704,1.4215,-0.9946,-976.32,-763.00,154.24
3490,-3.8705,1.4498,-0.9534,1961.18,690.25,-751.95
3500,-3.8706,1.4293,-0.8990,1586.18,1971.56,1263.73
3510,-3.8710,1.3574,-0.8387,-1038.82,924.62,-658.02
3520,-3.8712,1.2493,-0.7747,1758.06,643.25,295.23
3530,-3.8716,1.1272,-0.7134,-85.69,846.13,-1970.28
3540,-3.8718,1.0101,-0.6636,289.31,689.70,1436.10
3550,-3.8721,0.9062,-0.6262,1304.93,-935.55,-845.09
3560,-3.8722,0.8174,-0.6044,8.06,-154.48,-313.78
3570,-3.8722,0.7457,-0.5995,633.06,-1357.79,-1001.22
3580,-3.8721,0.6893,-0.6056,-538.82,-732.97,280.03
3590,-3.8721,0.6392,-0.6161,242.43,-1514.28,-1391.85
3600,-3.8719,0.5925,-0.6255,1820.56,1141.85,1795.65
3610,-3.8718,0.5497,-0.6356,-148.19,-61.40,-1798.16
3620,-3.8717,0.4967,-0.6549,-1632.57,-1358.34,-157.53
3630,-3.8715,0.4161,-0.6903,-413.82,172.79,1358.09
3640,-3.8713,0.3218,-0.7330,1273.68,-358.58,-1954.53
3650,-3.8712,0.2377,-0.7703,1195.56,-1827.51,-1079.59
3660,-3.8710,0.1611,-0.7966,-1570.07,1406.68,670.35
3670,-3.8708,0.0729,-0.8091,633.06,-1968.44,-1157.84
3680,-3.8706,-0.0433,-0.8035,1336.18,437.62,1060.91
3690,-3.8705,-0.1979,-0.7683,-1538.82,1171.75,-704.71
3700,-3.8702,-0.3981,-0.6904,-1320.07,1671.45,1435.97
3710,-3.8701,-0.6388,-0.5713,1054.93,-360.17,-688.90
3720,-3.8699,-0.9008,-0.4304,-1757.57,-1110.66,951.97
3730,-3.8698,-1.1722,-0.2820,711.18,920.10,-1157.10
3740,-3.8695,-1.4520,-0.1171,1961.18,-80.44,1327.51
3750,-3.8694,-1.7288,0.0774,-1851.32,1028.38,-187.74
3760,-3.8691,-1.9781,0.2898,-1273.19,1918.46,672.00
3770,-3.8691,-2.1804,0.4922,-1195.07,1105.47,-1624.45
3780,-3.8691,-2.3270,0.6584,914.31,-988.65,360.29
3790,-3.8694,-2.4200,0.7787,-1851.32,292.30,-233.09
3800,-3.8695,-2.4659,0.8690,-1757.57,-317.26,-1842.29
3810,-3.8696,-2.4656,0.9392,367.43,-754.82,79.77
3820,-3.8699,-2.4189,0.9768,414.31,229.55,1376.83
3830,-3.8701,-2.3247,0.9719,-1616.94,1042.11,814.39
3840,-3.8705,-2.1855,0.9230,-1554.44,417.30,1939.39
3850,-3.8708,-2.0128,0.8375,258.06,-1848.02,-1982.60
3860,-3.8712,-1.8215,0.7322,-1632.57,-785.22,-1264.04
3870,-3.8715,-1.6305,0.6215,-1148.19,1730.77,1735.78
3880,-3.8717,-1.4614,0.5087,-695.07,-440.73,-92.59
3890,-3.8717,-1.3188,0.3959,945.56,1122.13,954.10
3900,-3.8717,-1.1903,0.2881,-804.44,-1315.12,391.36
3910,-3.8717,-1.0709,0.1818,-351.32,888.24,1703.67
3920,-3.8717,-0.9642,0.0695,-1070.07,-720.89,-46.57
3930,-3.8716,-0.8652,-0.0516,586.18,904.36,-1078.00
3940,-3.8715,-0.7628,-0.1738,1258.06,1404.54,-406.37
3950,-3.8712,-0.6610,-0.2888,-1632.57,1764.10,-1828.49
3960,-3.8710,-0.5775,-0.4076,-601.32,-954.47,1874.39
3970,-3.8707,-0.5166,-0.5389,-1913.82,-157.41,-1985.23
3980,-3.8705,-0.4551,-0.6650,1883.06,-969.79,-1672.97
3990,-3.8702,-0.3645,-0.7601,1758.06,-1110.29,-1985.72
4000,-3.8701,-0.2371,-0.8225,1351.81,-1281.98,-1329.65
4010,-3.8701,-0.0872,-0.8728,1664.31,-1266.11,-579.77
4020,-3.8701,0.0736,-0.9116,851.81,296.69,-1845.46
4030,-3.8702,0.2411,-0.9244,1429.93,-687.38,-486.21
4040,-3.8704,0.4049,-0.9229,-1132.57,1672.30,-1548.71
4050,-3.8706,0.5573,-0.9365,-163.82,1875.73,-689.33
4060,-3.8707,0.7000,-0.9695,-663.82,126.04,529.42
4070,-3.8708,0.8336,-1.0011,1601.81,-92.41,841.80
4080,-3.8708,0.9576,-1.0227,-1288.82,-139.04,357.36
4090,-3.8708,1.0734,-1.0345,-1413.82,1095.58,872.99
4100,-3.8708,1.1770,-1.0336,1398.68,-419.80,497.92
4110,-3.8710,1.2552,-1.0172,-1335.69,-294.62,-1595.83
4120,-3.8711,1.2981,-0.9886,679.93,1799.32,-1314.51
4130,-3.8712,1.3080,-0.9543,-1835.69,1455.63,-1876.95
4140,-3.8713,1.2983,-0.9122,-570.07,1846.25,1435.61
4150,-3.8715,1.2822,-0.8602,-1804.44,-763.12,373.17
4160,-3.8717,1.2582,-0.8007,133.06,1893.13,-1829.83
4170,-3.8719,1.2166,-0.7390,1054.93,1518.07,-1564.09
4180,-3.8722,1.1494,-0.6842,-273.19,1408.57,1982.91
4190,-3.8724,1.0605,-0.6451,-866.94,424.07,-673.22
4200,-3.8724,0.9702,-0.6238,-241.94,1423.89,1123.72
4210,-3.8724,0.8933,-0.6162,195.56,158.14,-844.97
4220,-3.8723,0.8315,-0.6230,-1648.19,1126.71,-1001.22
4230,-3.8722,0.7799,-0.6377,-1554.44,251.59,-766.85
4240,-3.8719,0.7273,-0.6545,-163.82,-1623.54,248.72
4250,-3.8718,0.6705,-0.6731,1101.81,220.15,-1329.41
4260,-3.8716,0.6177,-0.6891,1836.18,1845.03,-1845.09
4270,-3.8713,0.5662,-0.7051,-929.44,-201.97,1389.22
4280,-3.8712,0.4984,-0.7273,476.81,1751.10,-407.65
4290,-3.8710,0.4048,-0.7533,-195.07,-1092.83,748.54
4300,-3.8708,0.2880,-0.7689,-179.44,-421.14,1076.60
4310,-3.8707,0.1509,-0.7512,867.43,1578.67,732.85
4320,-3.8706,-0.0099,-0.6962,-679.44,-156.01,451.60
4330,-3.8705,-0.2020,-0.6152,-1257.57,-1093.81,1061.10
4340,-3.8704,-0.4349,-0.5028,-1851.32,1265.20,-1532.47
4350,-3.8701,-0.7142,-0.3450,336.18,-344.60,1014.59
4360,-3.8699,-1.0369,-0.1447,586.18,-142.03,1311.77
4370,-3.8696,-1.3853,0.0801,-710.69,1497.92,-1484.68
4380,-3.8694,-1.7284,0.3016,-1304.44,-1737.12,-953.00
4390,-3.8691,-2.0255,0.4954,-1226.32,-1378.42,1031.80
4400,-3.8691,-2.2262,0.6602,742.43,-582.09,-420.96
4410,-3.8691,-2.3097,0.7957,-945.07,511.23,-498.72
4420,-3.8691,-2.2932,0.8763,367.43,1854.86,1954.65
4430,-3.8693,-2.2032,0.8981,-1523.19,182.98,-482.67
4440,-3.8694,-2.0730,0.8936,1992.43,-1035.58,-201.42
4450,-3.8695,-1.9390,0.8717,-1335.69,-1613.46,-1873.29
4460,-3.8698,-1.8159,0.8256,-179.44,-410.10,-1888.98
4470,-3.8700,-1.6879,0.7560,-429.44,1683.90,189.09
4480,-3.8704,-1.5396,0.6698,-38.82,777.89,1313.96
4490,-3.8707,-1.3779,0.5820,-1054.44,1746.95,-1608.09
4500,-3.8710,-1.2213,0.5002,-366.94,-1487.12,485.47
4510,-3.8712,-1.0798,0.4248,-320.07,44.43,594.73
4520,-3.8715,-0.9564,0.3579,1789.31,-1611.51,-217.96
4530,-3.8715,-0.8572,0.2949,1586.18,1826.23,1688.17
4540,-3.8715,-0.7845,0.2224,-1710.69,1763.92,719.30
4550,-3.8715,-0.7230,0.1462,-413.82,482.79,578.55
4560,-3.8715,-0.6522,0.0819,-538.82,-1267.09,1687.74
4570,-3.8715,-0.5654,0.0238,523.68,-1501.28,-874.88
4580,-3.8715,-0.4701,-0.0398,-366.94,-938.66,-93.75
4590,-3.8713,-0.3822,-0.1094,-163.82,-1079.10,796.75
4600,-3.8713,-0.3143,-0.1798,-913.82,-1985.17,-828.37
4610,-3.8712,-0.2765,-0.2505,-226.32,999.33,-297.24
4620,-3.8710,-0.2644,-0.3267,617.43,-47.42,-1953.67
4630,-3.8707,-0.2515,-0.4071,-1835.69,-1797.42,1311.83
4640,-3.8706,-0.2150,-0.4810,-179.44,-94.30,-141.48
4650,-3.8705,-0.1517,-0.5376,492.43,-1547.30,-16.60
4660,-3.8704,-0.0648,-0.5667,586.18,-797.18,1170.78
4670,-3.8705,0.0316,-0.5693,-288.82,-515.81,-938.66
4680,-3.8706,0.1219,-0.5552,54.93,-874.94,1358.22
4690,-3.8708,0.1991,-0.5284,-382.57,937.68,1327.03
4700,-3.8711,0.2568,-0.5015,1492.43,359.74,1186.46
4710,-3.8713,0.2991,-0.4813,883.06,-187.01,1936.46
4720,-3.8715,0.3420,-0.4661,-1710.69,-1608.83,233.40
4730,-3.8716,0.3984,-0.4620,-210.69,344.36,639.71
4740,-3.8717,0.4679,-0.4797,-991.94,860.11,-938.42
4750,-3.8717,0.5465,-0.5254,-101.32,-1405.40,-657.23
4760,-3.8716,0.6315,-0.5906,1961.18,751.04,1467.71
4770,-3.8715,0.7251,-0.6423,836.18,407.47,1686.34
4780,-3.8713,0.8298,-0.6599,820.56,1782.65,-1595.03
4790,-3.8712,0.9390,-0.6626,-1773.19,-467.16,764.28
4800,-3.8713,1.0396,-0.6685,195.56,-810.67,-157.59
4810,-3.8713,1.1251,-0.6721,1070.56,-1560.49,920.53
4820,-3.8715,1.1890,-0.6610,23.68,1970.95,1717.41
4830,-3.8716,1.2183,-0.6387,195.56,-607.06,-1470.09
4840,-3.8717,1.2067,-0.6147,-54.44,-1747.68,-891.91
4850,-3.8718,1.1599,-0.5820,-1538.82,1314.82,-469.97
4860,-3.8719,1.0913,-0.5403,476.81,1502.26,-282.41
4870,-3.8721,1.0142,-0.5039,-304.44,-1154.17,-626.10
4880,-3.8722,0.9348,-0.4839,1820.56,-498.05,-594.79
4890,-3.8722,0.8556,-0.4839,-335.69,-1935.73,1905.27
4900,-3.8721,0.7794,-0.4982,1523.68,-1935.85,170.90
4910,-3.8719,0.7081,-0.5149,-226.32,235.84,-1750.98
4920,-3.8717,0.6423,-0.5258,-1351.32,-1904.91,-1172.91
4930,-3.8715,0.5819,-0.5337,-1773.19,704.35,-672.91
4940,-3.8712,0.5262,-0.5500,-1507.57,-311.40,1998.90
4950,-3.8711,0.4730,-0.5776,-632.57,1594.73,-985.47
4960,-3.8710,0.4161,-0.6090,554.93,-1936.58,-298.03
4970,-3.8707,0.3491,-0.6368,1273.68,-1952.33,1201.90
4980,-3.8706,0.2693,-0.6597,695.56,-1514.95,-673.16
4990,-3.8704,0.1774,-0.6713,-1523.19,-437.01,1920.53
5000,-3.8701,0.0747,-0.6696,-1288.82,-1921.57,420.53
5010,-3.8700,-0.0394,-0.6636,1570.56,-1703.00,-1579.47
5020,-3.8699,-0.1616,-0.6475,-1038.82,-922.00,-485.72
5030,-3.8698,-0.2902,-0.6023,-679.44,1140.26,-1798.16
5040,-3.8698,-0.4324,-0.5262,-1132.57,-1078.74,-1735.60
5050,-3.8698,-0.5885,-0.4404,664.31,655.40,1077.09
5060,-3.8698,-0.7494,-0.3613,679.93,-360.53,530.33
5070,-3.8698,-0.9110,-0.2787,86.18,1764.16,1686.77
5080,-3.8696,-1.0657,-0.1794,-601.32,341.92,77.58
5090,-3.8696,-1.1890,-0.0808,-398.19,1044.74,-1578.49
5100,-3.8696,-1.2606,-0.0164,-179.44,1669.49,-343.93
5110,-3.8696,-1.2711,0.0049,-1351.32,1919.37,-1046.94
5120,-3.8696,-1.2120,0.0004,1304.93,638.12,15.62
5130,-3.8699,-1.1039,-0.0007,867.43,60.12,-859.38
5140,-3.8700,-1.0107,0.0365,-1288.82,-80.32,1218.69
5150,-3.8701,-0.9971,0.1292,-1366.94,685.49,156.31
5160,-3.8702,-1.0927,0.2494,383.06,544.92,-1859.13
5170,-3.8702,-1.2709,0.3494,148.68,-64.64,1734.80
5180,-3.8704,-1.4672,0.4307,1336.18,731.87,-702.45
5190,-3.8705,-1.6373,0.5137,211.18,-862.24,1641.42
5200,-3.8707,-1.7709,0.5940,-1570.07,1762.39,-1967.77
5210,-3.8710,-1.8663,0.6692,1336.18,43.40,1641.78
5220,-3.8712,-1.9196,0.7321,1117.43,1668.21,1345.03
5230,-3.8715,-1.9180,0.7605,-1695.07,1714.97,1938.90
5240,-3.8717,-1.8466,0.7450,-1491.94,1355.59,-1592.29
5250,-3.8719,-1.7161,0.7067,-351.32,-628.66,-1764.22
5260,-3.8722,-1.5653,0.6637,351.81,-1534.61,-1514.28
5270,-3.8723,-1.4266,0.6060,-351.32,965.64,1141.91
5280,-3.8723,-1.3109,0.5219,1398.68,1575.32,141.78
5290,-3.8723,-1.2095,0.4163,211.18,-1190.06,-1608.40
5300,-3.8722,-1.1111,0.3043,1195.56,1294.49,1094.54
5310,-3.8722,-1.0171,0.2034,1789.31,-1033.45,-1093.20
5320,-3.8721,-0.9331,0.1079,1820.56,-1955.14,484.74
5330,-3.8721,-0.8508,-0.0026,570.56,1826.29,-312.32
5340,-3.8718,-0.7549,-0.1241,-898.19,-314.21,1468.69
5350,-3.8716,-0.6433,-0.2413,-616.94,123.47,484.13
5360,-3.8715,-0.5281,-0.3442,1664.31,1123.72,-453.61
5370,-3.8712,-0.4281,-0.4395,414.31,-47.91,-1313.23
5380,-3.8710,-0.3485,-0.5345,1211.18,-235.23,-1860.29
5390,-3.8707,-0.2866,-0.6255,-601.32,-406.98,1530.15
5400,-3.8705,-0.2379,-0.7146,-679.44,-47.49,764.34
5410,-3.8704,-0.1848,-0.8019,1554.93,546.39,-454.53
5420,-3.8701,-0.1012,-0.8698,351.81,1374.63,904.66
5430,-3.8701,0.0225,-0.9092,-945.07,687.26,-329.83
5440,-3.8701,0.1772,-0.9319,-1116.94,-375.00,-1595.58
5450,-3.8702,0.3494,-0.9507,-1304.44,719.06,1060.67
5460,-3.8705,0.5253,-0.9688,726.81,-1686.83,1294.98
5470,-3.8707,0.6934,-0.9844,-757.57,0.98,748.11
5480,-3.8710,0.8501,-0.9917,758.06,-1998.66,373.05
5490,-3.8712,0.9985,-0.9888,820.56,1064.15,466.80
5500,-3.8715,1.1377,-0.9858,-179.44,1439.39,810.55
5510,-3.8717,1.2605,-0.9944,1633.06,1814.70,919.92
5520,-3.8719,1.3557,-1.0162,1351.81,721.19,1341.80
5530,-3.8722,1.4211,-1.0419,1539.31,1924.50,-767.64
5540,-3.8723,1.4707,-1.0621,1914.31,-1356.63,-642.70
5550,-3.8723,1.5211,-1.0830,258.06,49.74,-1970.83
5560,-3.8723,1.5736,-1.1085,-1288.82,1377.93,-1283.39
5570,-3.8722,1.6149,-1.1250,1429.93,-1887.57,669.68
5580,-3.8722,1.6237,-1.1066,-1288.82,3.11,-424.07
5590,-3.8721,1.5756,-1.0389,-163.82,-1637.51,1622.80
5600,-3.8721,1.4611,-0.9479,1679.93,-981.32,419.80
5610,-3.8722,1.2942,-0.8606,-976.32,-1325.32,185.61
5620,-3.8724,1.0990,-0.7714,1664.31,1846.25,-1032.96
5630,-3.8726,0.9086,-0.6678,679.93,1267.76,1576.60
5640,-3.8728,0.7546,-0.5547,304.93,-1482.60,-32.59
5650,-3.8729,0.6514,-0.4478,601.81,1001.46,-579.22
5660,-3.8729,0.5970,-0.3727,-616.94,-1311.28,1608.46
5670,-3.8729,0.5769,-0.3593,429.93,298.03,-219.48
5680,-3.8727,0.5640,-0.4102,1851.81,-1983.28,-1406.98
5690,-3.8723,0.5272,-0.4934,195.56,-498.90,1686.65
5700,-3.8719,0.4508,-0.5793,-507.57,844.73,-1000.98
5710,-3.8715,0.3359,-0.6328,1711.18,1844.60,451.97
5720,-3.8711,0.1826,-0.6338,-991.94,-999.39,1483.09
5730,-3.8707,-0.0242,-0.6072,-616.94,-1124.69,-1470.03
5740,-3.8704,-0.3079,-0.5685,914.31,-1703.19,-126.22
5750,-3.8699,-0.6635,-0.5106,601.81,-750.61,1748.84
5760,-3.8695,-1.0492,-0.4368,-913.82,-1345.09,-313.54
5770,-3.8691,-1.4055,-0.3304,1711.18,107.30,-828.98
5780,-3.8689,-1.6885,-0.1656,101.81,1716.00,-1735.05
5790,-3.8688,-1.9056,0.0352,-116.94,-1190.86,1499.63
5800,-3.8688,-2.0759,0.2249,86.18,511.90,-1328.06
5810,-3.8688,-2.1926,0.3773,-1710.69,792.79,-608.95
5820,-3.8688,-2.2496,0.5065,-648.19,308.17,-936.77
5830,-3.8688,-2.2661,0.6350,54.93,839.36,532.23
5840,-3.8690,-2.2642,0.7552,1945.56,1292.42,-498.78
5850,-3.8693,-2.2477,0.8451,-1804.44,683.04,-545.41
5860,-3.8695,-2.2076,0.8911,304.93,183.11,673.52
5870,-3.8700,-2.1343,0.8855,1429.93,-1926.21,-92.04
5880,-3.8704,-2.0149,0.8286,-1179.44,1355.16,1845.46
5890,-3.8708,-1.8441,0.7423,-1898.19,-1925.84,-139.04
5900,-3.8712,-1.6451,0.6476,-38.82,-972.41,-1561.10
5910,-3.8716,-1.4539,0.5537,1429.93,-1096.98,1829.35
5920,-3.8719,-1.2961,0.4717,1914.31,-1112.24,-373.96
5930,-3.8721,-1.1785,0.4023,-1898.19,388.06,1641.54
5940,-3.8722,-1.0989,0.3297,1164.31,-486.69,-30.52
5950,-3.8721,-1.0469,0.2366,-648.19,-1783.45,1266.24
5960,-3.8719,-0.9973,0.1182,-1991.94,-1705.20,672.30
5970,-3.8718,-0.9259,-0.0131,351.81,-861.33,1812.68
5980,-3.8717,-0.8367,-0.1500,1492.43,-1658.08,-15.69
5990,-3.8715,-0.7491,-0.3003,914.31,810.85,-953.43
6000,-3.8711,-0.6675,-0.4569,117.43,1576.66,46.26
6010,-3.8708,-0.5822,-0.5952,-1429.44,1529.91,-1125.92
6020,-3.8705,-0.4838,-0.6973,1492.43,-173.03,1483.15
6030,-3.8702,-0.3691,-0.7665,-1913.82,-1235.35,701.72
6040,-3.8702,-0.2423,-0.8132,758.06,1905.52,-1314.03
6050,-3.8702,-0.1056,-0.8438,992.43,-78.61,342.10
6060,-3.8705,0.0309,-0.8776,-1507.57,15.38,-1064.15
6070,-3.8707,0.1476,-0.9453,-38.82,-328.12,-1064.27
6080,-3.8710,0.2478,-1.0502,-1101.32,-999.76,-1564.39
6090,-3.8711,0.3633,-1.1753,-273.19,1578.55,982.30
6100,-3.8712,0.5322,-1.3225,-1491.94,1563.17,-111.69
6110,-3.8711,0.7850,-1.4943,133.06,-1280.21,1903.63
6120,-3.8710,1.1230,-1.6616,492.43,735.90,1325.20
6130,-3.8708,1.5157,-1.7833,-241.94,-685.36,574.83
6140,-3.8708,1.9041,-1.8226,-1976.32,-262.70,1730.83
6150,-3.8710,2.2090,-1.7670,-273.19,-1293.21,-1144.23
6160,-3.8712,2.3635,-1.6396,-1241.94,1832.40,-628.48
6170,-3.8716,2.3309,-1.4899,-1460.69,-1870.42,-768.86
6180,-3.8721,2.1295,-1.3490,-1632.57,1301.39,-690.43
6190,-3.8726,1.8361,-1.2115,586.18,-667.72,-971.44
6200,-3.8729,1.5269,-1.0736,-976.32,925.42,1794.49
6210,-3.8732,1.2428,-0.9414,-554.44,-1418.95,591.61
6220,-3.8734,0.9989,-0.8224,-913.82,-497.62,-220.64
6230,-3.8734,0.8081,-0.7334,-132.57,-1263.73,-720.40
6240,-3.8733,0.6836,-0.6924,-554.44,-1873.47,-1220.21
6250,-3.8730,0.6190,-0.6981,-491.94,-623.72,-1454.53
6260,-3.8727,0.5970,-0.7220,-757.57,-1358.22,-1360.78
6270,-3.8722,0.5840,-0.7506,429.93,-420.72,-1845.21
6280,-3.8717,0.5399,-0.7893,-1241.94,-77.03,-1548.40
6290,-3.8713,0.4469,-0.8229,1117.43,-1030.21,-235.96
6300,-3.8710,0.3051,-0.8359,1211.18,-1327.27,201.48
6310,-3.8708,0.1257,-0.8286,-945.07,1000.55,1013.98
6320,-3.8707,-0.0757,-0.8075,101.81,1937.74,873.35
6330,-3.8706,-0.2865,-0.7698,-1679.44,656.07,717.16
6340,-3.8706,-0.4907,-0.7059,-663.82,1483.76,-235.90
6350,-3.8705,-0.6755,-0.6300,1195.56,1655.27,-1204.53
6360,-3.8704,-0.8497,-0.5494,1539.31,-626.34,-141.91
6370,-3.8700,-1.0433,-0.4435,-757.57,1685.79,545.78
6380,-3.8696,-1.2782,-0.2935,-1538.82,-752.08,77.21
6390,-3.8694,-1.5466,-0.0984,398.68,-1549.38,-1656.86
6400,-3.8693,-1.8196,0.1198,-1960.69,-581.18,-1187.74
6410,-3.8693,-2.0604,0.3402,-898.19,-659.85,562.68
6420,-3.8695,-2.2271,0.5520,273.68,-441.53,1813.11
6430,-3.8698,-2.2983,0.7366,-1054.44,-1332.52,1141.66
6440,-3.8701,-2.2914,0.8927,1820.56,-1707.64,-686.10
6450,-3.8705,-2.2355,1.0248,-1288.82,-1723.27,-185.79
6460,-3.8708,-2.1555,1.1071,1867.43,-816.89,-794.92
6470,-3.8712,-2.0668,1.1254,101.81,1714.54,-1325.99
6480,-3.8716,-1.9744,1.0857,-538.82,58.41,-1622.80
6490,-3.8719,-1.8719,0.9929,-710.69,-1019.53,-1326.05
6500,-3.8722,-1.7495,0.8633,398.68,-894.29,1080.02
6510,-3.8724,-1.6039,0.7180,70.56,-1487.79,-1076.48
6520,-3.8724,-1.4413,0.5645,-1288.82,-81.30,1563.84
6530,-3.8723,-1.2733,0.4153,-476.32,262.76,1001.10
6540,-3.8722,-1.1166,0.2916,1023.68,1169.37,-1124.21
6550,-3.8719,-0.9860,0.1898,1086.18,1341.55,1563.05
6560,-3.8717,-0.8862,0.0851,1804.93,310.55,1406.62
6570,-3.8715,-0.8163,-0.0237,-1429.44,-1095.52,-1906.13
6580,-3.8712,-0.7729,-0.1102,-476.32,982.73,-1859.44
6590,-3.8710,-0.7607,-0.1846,1070.56,1904.72,624.76
6600,-3.8708,-0.7646,-0.2875,-1366.94,389.10,-609.74
6610,-3.8705,-0.7439,-0.4124,-1866.94,-782.78,171.26
6620,-3.8702,-0.6746,-0.5083,789.31,-767.09,905.40
6630,-3.8701,-0.5691,-0.5417,1664.31,-1048.22,1983.34
6640,-3.8701,-0.4584,-0.5377,-835.69,-1329.28,1342.65
6650,-3.8702,-0.3582,-0.5498,1336.18,-813.42,905.15
6660,-3.8704,-0.2629,-0.5870,-1835.69,1639.89,545.78
6670,-3.8705,-0.1699,-0.6136,-1648.19,874.45,1420.72
6680,-3.8706,-0.0883,-0.6173,-1741.94,1468.38,-1719.97
6690,-3.8707,-0.0188,-0.6205,711.18,999.82,1998.78
6700,-3.8708,0.0560,-0.6379,1601.81,593.69,1686.28
6710,-3.8710,0.1478,-0.6724,-820.07,-1656.19,-438.78
6720,-3.8708,0.2544,-0.7125,-1070.07,1937.74,514.28
6730,-3.8708,0.3712,-0.7415,570.56,797.36,-626.40
6740,-3.8707,0.4912,-0.7620,-476.32,1094.42,-1876.46
6750,-3.8707,0.6097,-0.7830,-1116.94,-1530.33,-985.90
6760,-3.8707,0.7256,-0.8022,-1945.07,-217.59,1576.54
6770,-3.8708,0.8428,-0.8213,883.06,1313.90,-845.34
6780,-3.8708,0.9625,-0.8376,-116.94,-1123.41,1217.10
6790,-3.8710,1.0779,-0.8384,-788.82,783.08,-32.90
6800,-3.8710,1.1699,-0.8300,1976.81,689.58,-1220.40
6810,-3.8710,1.2190,-0.8239,1758.06,1767.88,1498.35
6820,-3.8710,1.2209,-0.8157,39.31,-1450.74,123.35
6830,-3.8711,1.1941,-0.8010,289.31,-403.87,-1829.77
6840,-3.8712,1.1670,-0.7784,851.81,1471.07,-1439.09
6850,-3.8713,1.1532,-0.7493,1383.06,361.63,779.72
6860,-3.8716,1.1494,-0.7180,-382.57,95.95,1920.41
6870,-3.8718,1.1421,-0.6923,-866.94,95.95,-423.28
6880,-3.8719,1.1125,-0.6769,-1804.44,-607.18,-1126.40
6890,-3.8719,1.0525,-0.6661,-1585.69,1361.51,748.66
6900,-3.8719,0.9707,-0.6577,-1273.19,-1263.61,1701.78
6910,-3.8718,0.8777,-0.6577,258.06,-185.61,733.03
6920,-3.8717,0.7777,-0.6665,351.81,-185.79,1014.28
6930,-3.8716,0.6754,-0.6793,-445.07,-1311.04,-1266.97
6940,-3.8713,0.5786,-0.6965,-1538.82,1048.16,1420.53
6950,-3.8711,0.4904,-0.7264,-1929.44,-1155.15,357.97
6960,-3.8710,0.4058,-0.7712,-1226.32,-983.46,-79.59
6970,-3.8706,0.3207,-0.8226,-54.44,1281.98,435.97
6980,-3.8704,0.2294,-0.8745,1054.93,-1296.26,888.98
6990,-3.8701,0.1246,-0.9222,1367.43,62.93,638.92
7000,-3.8700,0.0048,-0.9562,-38.82,1953.31,-736.21
7010,-3.8698,-0.1282,-0.9636,617.43,1609.38,13.73
7020,-3.8698,-0.2750,-0.9323,-398.19,671.57,-1080.02
7030,-3.8696,-0.4423,-0.8431,804.93,686.95,482.54
7040,-3.8696,-0.6469,-0.6760,-601.32,92.83,1232.73
7050,-3.8696,-0.9192,-0.4524,1211.18,1483.09,608.03
7060,-3.8698,-1.2739,-0.2178,-1648.19,-1892.46,-1469.67
7070,-3.8698,-1.6720,0.0293,945.56,138.12,671.45
7080,-3.8699,-2.0581,0.2971,1992.43,-237.67,-531.25
7090,-3.8699,-2.3810,0.5657,570.56,-1957.15,1500.55
7100,-3.8700,-2.5880,0.8107,-757.57,417.18,719.85
7110,-3.8702,-2.6707,1.0046,742.43,-223.82,1.53
7120,-3.8706,-2.6536,1.1290,-1835.69,604.13,1033.20
7130,-3.8710,-2.5605,1.1914,351.81,526.06,-1200.93
7140,-3.8712,-2.4138,1.1917,258.06,510.62,-1263.31
7150,-3.8713,-2.2330,1.1304,-960.69,542.11,314.82
7160,-3.8716,-2.0367,1.0343,-1820.07,698.73,1595.95
7170,-3.8718,-1.8459,0.9141,-695.07,402.22,-1935.49
7180,-3.8721,-1.6702,0.7784,-273.19,1011.96,-201.35
7190,-3.8721,-1.5038,0.6584,-1773.19,-347.05,95.21
7200,-3.8722,-1.3517,0.5731,-476.32,293.88,-1936.22
7210,-3.8722,-1.2249,0.5057,-1007.57,1372.31,563.60
7220,-3.8723,-1.1277,0.4313,-773.19,747.56,-561.52
7230,-3.8723,-1.0576,0.3442,-335.69,-783.51,-1124.21
7240,-3.8723,-1.0020,0.2522,633.06,76.05,-811.83
7250,-3.8722,-0.9447,0.1600,-241.94,294.86,547.36
7260,-3.8722,-0.8711,0.0645,-913.82,498.11,-1562.19
7270,-3.8722,-0.7708,-0.0287,508.06,263.92,-62.38
7280,-3.8721,-0.6483,-0.1139,1351.81,342.22,468.69
7290,-3.8721,-0.5172,-0.2000,1023.68,1436.22,296.63
7300,-3.8721,-0.3945,-0.2894,1804.93,-1579.16,1374.57
7310,-3.8719,-0.2986,-0.3842,1508.06,-1032.04,1452.51
7320,-3.8718,-0.2273,-0.4875,1789.31,-1156.86,-360.17
7330,-3.8716,-0.1553,-0.5878,-1085.69,1608.89,-1360.35
7340,-3.8713,-0.0593,-0.6833,133.06,780.94,-1969.91
7350,-3.8711,0.0745,-0.7861,414.31,546.75,545.53
7360,-3.8710,0.2594,-0.8900,1539.31,-624.88,1045.29
7370,-3.8708,0.4806,-0.9819,1211.18,-1921.39,1763.85
7380,-3.8706,0.6923,-1.0682,1523.68,-1686.58,1638.67
7390,-3.8704,0.8723,-1.1569,617.43,-733.03,-111.51
7400,-3.8700,1.0272,-1.2286,-335.69,-76.48,-1346.07
7410,-3.8696,1.1659,-1.2698,-507.57,-1263.67,403.81
7420,-3.8695,1.2894,-1.2881,1242.43,1471.01,-658.75
7430,-3.8694,1.3887,-1.2917,1054.93,-872.50,1684.94
7440,-3.8695,1.4548,-1.2725,1758.06,-1341.06,-1346.31
7450,-3.8696,1.4753,-1.2183,-1773.19,1127.81,1091.25
7460,-3.8699,1.4369,-1.1410,851.81,65.37,-80.51
7470,-3.8700,1.3428,-1.0599,-70.07,1955.87,1841.49
7480,-3.8702,1.2205,-0.9786,-116.94,330.69,654.17
7490,-3.8706,1.1016,-0.8955,226.81,-1263.24,1201.17
7500,-3.8710,0.9952,-0.8190,1008.06,1377.14,1857.60
7510,-3.8712,0.9011,-0.7560,-601.32,-826.23,13.98
7520,-3.8715,0.8219,-0.7083,-648.19,-763.92,717.22
7530,-3.8716,0.7542,-0.6780,1211.18,1345.34,1092.35
7540,-3.8716,0.6927,-0.6704,539.31,1220.21,1248.66
7550,-3.8715,0.6384,-0.6816,679.93,-1811.16,545.53
7560,-3.8713,0.5862,-0.6968,1726.81,751.22,-1782.59
7570,-3.8711,0.5133,-0.7153,-960.69,-1186.40,514.22
7580,-3.8710,0.4088,-0.7382,1711.18,438.48,-1985.78
7590,-3.8708,0.2924,-0.7526,336.18,1516.42,-1048.34
7600,-3.8707,0.1859,-0.7548,1429.93,-327.58,-892.15
7610,-3.8706,0.0940,-0.7520,-195.07,-609.07,1014.10
7620,-3.8706,0.0104,-0.7528,39.31,-249.82,123.47
7630,-3.8707,-0.0778,-0.7543,1336.18,-359.38,-1767.15
7640,-3.8707,-0.1914,-0.7292,-1945.07,-531.43,-1673.40
7650,-3.8706,-0.3546,-0.6597,-491.94,-1328.55,1779.79
7660,-3.8705,-0.5756,-0.5603,-1382.57,-422.61,-470.09
7670,-3.8702,-0.8373,-0.4561,-1663.82,295.72,1639.53
7680,-3.8701,-1.1042,-0.3669,836.18,1638.98,-1000.92
7690,-3.8700,-1.3354,-0.2788,-1335.69,1044.68,-828.86
7700,-3.8699,-1.5255,-0.1410,1070.56,325.50,1546.33
7710,-3.8699,-1.7137,0.0658,742.43,1965.76,1577.82
7720,-3.8700,-1.9235,0.3109,648.68,434.14,-546.75
7730,-3.8701,-2.1456,0.5488,1804.93,-191.28,-890.08
7740,-3.8704,-2.3672,0.7454,1367.43,-1738.59,-139.59
7750,-3.8706,-2.5609,0.9049,1008.06,-582.76,1532.65
7760,-3.8710,-2.6858,1.0505,211.18,-161.25,1486.08
7770,-3.8715,-2.7063,1.1683,226.81,-1520.87,-310.49
7780,-3.8718,-2.6105,1.2222,1601.81,1557.19,1064.76
7790,-3.8722,-2.4253,1.1891,1867.43,448.00,971.13
7800,-3.8724,-2.1929,1.0742,1570.56,213.99,1392.94
7810,-3.8726,-1.9514,0.9147,-679.44,1511.29,-1451.05
7820,-3.8724,-1.7262,0.7482,-1773.19,1089.90,189.27
7830,-3.8723,-1.5308,0.5923,-945.07,-222.17,1204.53
7840,-3.8722,-1.3771,0.4500,70.56,-174.87,-967.65
7850,-3.8719,-1.2631,0.3209,-257.57,1606.63,157.10
7860,-3.8718,-1.1780,0.2002,-1663.82,1091.25,375.61
7870,-3.8717,-1.1064,0.0729,1226.81,1638.31,15.99
7880,-3.8716,-1.0317,-0.0548,-1616.94,1341.55,703.25
7890,-3.8715,-0.9491,-0.1674,-54.44,997.92,-156.37
7900,-3.8711,-0.8645,-0.2723,-1476.32,-1408.14,562.13
7910,-3.8708,-0.7872,-0.3844,1351.81,1154.54,608.83
7920,-3.8707,-0.7157,-0.5050,-757.57,-1189.09,-1047.67
7930,-3.8706,-0.6304,-0.6134,398.68,-626.40,-16.66
7940,-3.8705,-0.5205,-0.6899,-679.44,1498.72,-1016.85
7950,-3.8705,-0.3834,-0.7429,1383.06,-297.91,-1767.03
7960,-3.8706,-0.2206,-0.7938,-1070.07,921.08,-1845.21
7970,-3.8707,-0.0479,-0.8423,-226.32,-1594.24,-1767.21
7980,-3.8707,0.1119,-0.8705,1883.06,203.00,-1.65
7990,-3.8704,0.2283,-0.8724,-1663.82,578.31,-1782.96
8000,-3.8699,0.2906,-0.8746,1226.81,328.55,779.54
8010,-3.8695,0.3424,-0.9023,1211.18,47.42,1342.04
8020,-3.8694,0.4547,-0.9382,-163.82,500.61,-1111.15
8030,-3.8695,0.6631,-0.9662,-1788.82,-92.90,-95.64
8040,-3.8696,0.9238,-0.9933,883.06,329.41,1623.11
8050,-3.8696,1.1476,-1.0250,-1741.94,861.15,966.80
8060,-3.8694,1.2676,-1.0691,-1101.32,799.07,1013.61
8070,-3.8690,1.2979,-1.1194,-1741.94,-841.31,685.36
8080,-3.8688,1.3014,-1.1580,-1866.94,721.25,1341.55
8090,-3.8688,1.3159,-1.1711,-1413.82,-216.25,1794.56
8100,-3.8690,1.3411,-1.1396,445.56,-1903.69,1122.68
8110,-3.8695,1.3373,-1.0673,-335.69,-1872.44,-314.76
8120,-3.8699,1.2704,-0.9799,-820.07,-606.81,779.11
8130,-3.8704,1.1448,-0.8955,-1382.57,-1419.43,1654.30
8140,-3.8707,0.9910,-0.8267,-1460.69,1377.20,310.73
8150,-3.8711,0.8451,-0.7684,-1148.19,-1810.61,1717.10
8160,-3.8713,0.7246,-0.7146,179.93,1642.27,1326.60
8170,-3.8716,0.6300,-0.6780,758.06,532.65,-938.90
8180,-3.8717,0.5602,-0.6726,648.68,1219.97,-548.22
8190,-3.8717,0.5077,-0.6886,-288.82,1907.29,-1313.84
8200,-3.8716,0.4614,-0.7025,992.43,-139.65,1123.60
8210,-3.8715,0.4177,-0.7057,-929.44,-1921.02,1529.85
8220,-3.8713,0.3679,-0.7010,1476.81,1672.67,795.47
8230,-3.8713,0.3003,-0.6963,-898.19,-1733.70,779.85
8240,-3.8715,0.2115,-0.6948,-1554.44,-1124.45,-1110.78
8250,-3.8715,0.0994,-0.7015,-913.82,-937.13,-1970.15
8260,-3.8715,-0.0236,-0.7147,726.81,-1796.69,-1126.40
8270,-3.8713,-0.1260,-0.7250,992.43,531.19,826.72
8280,-3.8713,-0.2024,-0.7267,-116.94,-781.56,-454.59
8290,-3.8712,-0.2864,-0.7140,-1898.19,-1000.43,-720.21
8300,-3.8710,-0.4202,-0.6844,-648.19,624.39,498.60
8310,-3.8708,-0.6305,-0.6124,-1773.19,405.40,-1220.09
8320,-3.8706,-0.9214,-0.4690,-695.07,1623.72,1920.65
8330,-3.8704,-1.2668,-0.2831,-1929.44,-17.46,1342.77
8340,-3.8701,-1.6002,-0.0956,1851.81,-221.25,421.26
8350,-3.8700,-1.8601,0.0885,-820.07,-221.92,1374.76
8360,-3.8700,-2.0305,0.2609,1914.31,-659.91,718.87
8370,-3.8702,-2.1198,0.4048,101.81,1402.28,1734.86
8380,-3.8706,-2.1608,0.5200,679.93,-176.03,-405.52
8390,-3.8708,-2.1903,0.6100,-570.07,-1426.15,-889.65
8400,-3.8710,-2.2186,0.6699,-351.32,-1910.58,-1264.47
8410,-3.8710,-2.2361,0.7139,23.68,1761.29,1360.66
8420,-3.8710,-2.2288,0.7610,1789.31,-613.77,1079.47
8430,-3.8710,-2.1875,0.8090,-1273.19,1417.48,423.34
8440,-3.8711,-2.1088,0.8362,8.06,-441.77,1532.78
8450,-3.8713,-1.9927,0.8242,-1913.82,-957.28,-326.54
8460,-3.8716,-1.8434,0.7808,945.56,1511.72,-310.91
8470,-3.8718,-1.6746,0.7169,54.93,-50.48,-920.41
8480,-3.8721,-1.5128,0.6365,1664.31,-222.05,-342.41
8490,-3.8722,-1.3838,0.5511,-1632.57,1481.38,-795.65
8500,-3.8722,-1.2987,0.4729,-1116.94,-1440.25,-1436.46
8510,-3.8721,-1.2549,0.4044,1773.68,544.31,1907.17
8520,-3.8718,-1.2406,0.3364,-616.94,-221.25,47.61
8530,-3.8717,-1.2382,0.2495,1211.18,-924.32,-905.64
8540,-3.8715,-1.2218,0.1445,1523.68,-49.32,1906.68
8550,-3.8713,-1.1735,0.0361,-382.57,-1486.82,-624.76
8560,-3.8712,-1.0959,-0.0774,1804.93,638.31,-843.69
8570,-3.8711,-1.0067,-0.2009,-273.19,-1892.82,-843.93
8580,-3.8708,-0.9249,-0.3307,-851.32,-1705.14,1843.32
8590,-3.8706,-0.8566,-0.4613,1617.43,1685.67,-703.80
8600,-3.8702,-0.7904,-0.5886,-1632.57,967.04,827.21
8610,-3.8701,-0.7051,-0.7037,-1163.82,670.29,-485.53
8620,-3.8700,-0.5841,-0.7902,1758.06,1936.10,1842.35
8630,-3.8701,-0.4325,-0.8433,1242.43,-1126.16,-673.46
8640,-3.8702,-0.2739,-0.8795,648.68,77.27,404.60
8650,-3.8706,-0.1263,-0.9071,945.56,-563.05,-408.02
8660,-3.8707,0.0045,-0.9155,-163.82,-94.06,873.17
8670,-3.8708,0.1129,-0.9089,586.18,-1187.50,1576.29
8680,-3.8710,0.2053,-0.9097,-1538.82,-343.57,-376.83
8690,-3.8710,0.3048,-0.9275,-1710.69,-437.13,1170.04
8700,-3.8711,0.4271,-0.9484,-976.32,1281.80,-1579.96
8710,-3.8712,0.5701,-0.9530,-1320.07,-1389.83,-1.89
8720,-3.8712,0.7139,-0.9294,976.81,-1983.28,1388.73
8730,-3.8713,0.8284,-0.8762,-616.94,1032.59,1201.29
8740,-3.8716,0.9039,-0.8069,-1960.69,-154.66,-1220.52
8750,-3.8718,0.9471,-0.7397,-288.82,720.46,-298.46
8760,-3.8719,0.9620,-0.6908,1242.43,1314.33,420.41
8770,-3.8722,0.9586,-0.6569,-851.32,-420.04,1764.22
8780,-3.8723,0.9420,-0.6271,-1288.82,-76.29,1389.28
8790,-3.8724,0.9066,-0.6021,586.18,-263.79,-798.16
8800,-3.8724,0.8502,-0.5874,54.93,-1060.73,-1141.85
8810,-3.8723,0.7798,-0.5909,836.18,814.15,530.09
8820,-3.8722,0.7046,-0.6118,-179.44,360.84,1826.97
8830,-3.8719,0.6377,-0.6404,-1804.44,1688.84,-860.60
8840,-3.8716,0.5959,-0.6621,1633.06,-1967.53,1248.72
8850,-3.8713,0.5837,-0.6742,289.31,-748.84,967.41
8860,-3.8712,0.5895,-0.6852,-1273.19,1704.22,1014.28
8870,-3.8712,0.5938,-0.6965,-538.82,297.97,-1095.09
8880,-3.8711,0.5786,-0.7051,8.06,-1155.09,1404.85
8890,-3.8710,0.5435,-0.7065,-1929.44,1751.10,1295.47
8900,-3.8708,0.4974,-0.6952,1570.56,1563.54,1076.72
8910,-3.8708,0.4437,-0.6721,-320.07,-983.46,1936.10
8920,-3.8710,0.3837,-0.6479,804.93,1969.60,-735.72
8930,-3.8711,0.3242,-0.6385,1117.43,1063.23,-376.28
8940,-3.8711,0.2787,-0.6534,1508.06,-1733.76,-1954.41
8950,-3.8710,0.2498,-0.6909,-320.07,359.86,154.97
8960,-3.8708,0.2253,-0.7423,-23.19,-437.07,1842.35
8970,-3.8706,0.1985,-0.7887,851.81,984.80,1186.04
8980,-3.8705,0.1714,-0.8125,1414.31,-952.76,-32.84
8990,-3.8702,0.1436,-0.8182,1945.56,0.31,920.29
9000,-3.8702,0.1012,-0.8198,-1616.94,-734.13,-392.27
9010,-3.8701,0.0251,-0.8109,961.18,-937.32,592.10
9020,-3.8701,-0.1071,-0.7701,-773.19,203.12,1264.04
9030,-3.8701,-0.3118,-0.6792,-1695.07,1437.26,-782.78
9040,-3.8700,-0.5806,-0.5267,101.81,1077.51,-845.09
9050,-3.8698,-0.9119,-0.3284,1695.56,592.59,358.34
9060,-3.8696,-1.3167,-0.1178,-710.69,1982.54,1811.83
9070,-3.8695,-1.7639,0.1001,-523.19,934.88,-687.74
9080,-3.8694,-2.1891,0.3448,-1773.19,824.65,-906.07
9090,-3.8694,-2.5280,0.6077,-195.07,151.92,906.92
9100,-3.8698,-2.7314,0.8486,429.93,1791.93,-764.47
9110,-3.8701,-2.7865,1.0295,-1616.94,635.25,798.52
9120,-3.8706,-2.7090,1.1476,-663.82,-208.62,908.20
9130,-3.8711,-2.5443,1.2146,1258.06,-1099.06,1924.07
9140,-3.8715,-2.3638,1.2212,-1663.82,-520.63,1299.19
9150,-3.8718,-2.2159,1.1663,1445.56,323.49,-466.37
9160,-3.8719,-2.0984,1.0594,367.43,1292.54,377.26
9170,-3.8721,-1.9773,0.9100,-585.69,-379.15,689.51
9180,-3.8721,-1.8284,0.7428,-1085.69,496.09,1001.77
9190,-3.8721,-1.6553,0.5883,1976.81,-909.85,-467.35
9200,-3.8719,-1.4790,0.4591,133.06,-690.73,-1311.40
9210,-3.8718,-1.3151,0.3489,-1304.44,-1221.68,-1936.65
9220,-3.8717,-1.1676,0.2461,-320.07,669.25,1531.92
9230,-3.8716,-1.0361,0.1465,-1445.07,-486.69,906.68
9240,-3.8715,-0.9182,0.0513,-616.94,-1236.45,328.37
9250,-3.8715,-0.8108,-0.0466,-1523.19,-1423.71,-359.31
9260,-3.8713,-0.7163,-0.1501,226.81,-1954.71,-1031.37
9270,-3.8711,-0.6443,-0.2511,320.56,795.47,93.44
9280,-3.8708,-0.5961,-0.3533,1539.31,-126.28,311.95
9290,-3.8706,-0.5620,-0.4554,-288.82,-1204.35,-1469.48
9300,-3.8702,-0.5226,-0.5396,70.56,1717.65,702.21
9310,-3.8700,-0.4557,-0.5994,1117.43,-1047.91,108.28
9320,-3.8700,-0.3546,-0.6475,1679.93,-704.04,-1688.72
9330,-3.8701,-0.2281,-0.6984,-1382.57,1139.89,-376.28
9340,-3.8702,-0.0859,-0.7466,-1195.07,-1375.49,-1235.78
9350,-3.8704,0.0608,-0.7697,1008.06,452.94,-1735.84
9360,-3.8705,0.1897,-0.7634,-210.69,1484.44,-1298.40
9370,-3.8706,0.2789,-0.7390,289.31,-1718.38,-1079.65
9380,-3.8707,0.3280,-0.6971,-288.82,1406.74,1920.41
9390,-3.8710,0.3529,-0.6406,1992.43,-1233.76,-673.28
9400,-3.8712,0.3729,-0.5754,1179.93,-1999.33,-95.03
9410,-3.8713,0.4006,-0.5061,-257.57,-1655.58,842.59
9420,-3.8716,0.4331,-0.4554,-710.69,-780.52,1545.84
9430,-3.8718,0.4713,-0.4287,-554.44,1703.92,-1438.42
9440,-3.8719,0.5161,-0.4010,336.18,1125.92,1733.52
9450,-3.8721,0.5524,-0.3724,-1929.44,672.85,-1516.42
9460,-3.8722,0.5713,-0.3606,-1288.82,329.16,-906.98
9470,-3.8723,0.5751,-0.3712,1133.06,1844.85,-766.36
9480,-3.8724,0.5778,-0.3975,1617.43,485.47,-469.48
9490,-3.8724,0.6013,-0.4213,1961.18,1126.10,-1719.54
9500,-3.8723,0.6437,-0.4438,976.81,-1920.72,1733.52
9510,-3.8721,0.6854,-0.4940,-1601.32,-811.28,936.58
9520,-3.8718,0.7250,-0.5778,-257.57,766.91,1920.90
9530,-3.8715,0.7849,-0.6718,804.93,-1951.72,61.34
9540,-3.8712,0.8748,-0.7585,476.81,-1982.85,-1938.84
9550,-3.8710,0.9753,-0.8246,-23.19,-1092.10,1670.35
9560,-3.8708,1.0735,-0.8562,851.81,-1544.98,1654.60
9570,-3.8708,1.1578,-0.8553,1414.31,-1591.67,1763.92
9580,-3.8710,1.1984,-0.8481,211.18,-1482.12,-314.21
9590,-3.8710,1.1803,-0.8552,1398.68,-560.18,1013.92
9600,-3.8711,1.1071,-0.8739,-913.82,-1466.49,1623.29
9610,-3.8712,0.9829,-0.8958,1711.18,142.76,1842.04
9620,-3.8713,0.8287,-0.9114,1820.56,1345.64,-267.40
9630,-3.8713,0.6702,-0.9143,-1913.82,-654.66,-1.83
9640,-3.8713,0.5192,-0.9039,1789.31,-1029.97,-267.46
9650,-3.8713,0.3795,-0.8837,-1538.82,297.85,-1361.15
9660,-3.8713,0.2502,-0.8657,586.18,-1108.64,-1095.52
9670,-3.8713,0.1356,-0.8596,39.31,1187.99,-142.33
9680,-3.8712,0.0417,-0.8629,1367.43,1968.99,857.67
9690,-3.8712,-0.0398,-0.8650,1351.81,1546.94,-1361.08
9700,-3.8711,-0.1241,-0.8618,-1085.69,1296.75,795.17
9710,-3.8711,-0.2157,-0.8583,117.43,1702.88,-1814.21
9720,-3.8711,-0.3081,-0.8380,398.68,-1844.18,-1267.33
9730,-3.8711,-0.4041,-0.7563,570.56,749.39,-64.15
9740,-3.8710,-0.5383,-0.5778,289.31,-797.67,-32.78
9750,-3.8707,-0.7515,-0.3351,-898.19,-1938.60,-626.16
9760,-3.8705,-1.0438,-0.1016,-179.44,1123.47,-656.92
9770,-3.8702,-1.3721,0.0957,-1601.32,-986.45,640.38
9780,-3.8702,-1.6855,0.2880,383.06,262.94,-1671.69
9790,-3.8702,-1.9705,0.5117,258.06,871.70,-577.58
9800,-3.8701,-2.2395,0.7609,-210.69,1511.72,-61.52
9810,-3.8698,-2.4857,1.0051,1351.81,1401.86,423.34
9820,-3.8695,-2.6809,1.2294,1836.18,666.99,-1919.92
9830,-3.8694,-2.8040,1.4072,851.81,1369.75,-185.12
9840,-3.8694,-2.8540,1.5056,1101.81,135.13,-1450.38
9850,-3.8695,-2.8311,1.5188,-1304.44,728.76,2.93
9860,-3.8699,-2.7323,1.4497,1633.06,-1583.68,-653.32
9870,-3.8701,-2.5623,1.3184,-1726.32,1572.75,1737.18
9880,-3.8705,-2.3379,1.1646,39.31,760.62,-950.56
9890,-3.8707,-2.0928,1.0027,758.06,1073.55,1017.88
9900,-3.8710,-1.8533,0.8370,133.06,355.29,1689.45
9910,-3.8711,-1.6348,0.6785,-1210.69,-847.41,751.59
9920,-3.8712,-1.4408,0.5228,-1241.94,-1143.86,1876.28
9930,-3.8712,-1.2543,0.3542,-413.82,-1065.37,1250.98
9940,-3.8712,-1.0624,0.1592,-538.82,1356.87,1985.05
9950,-3.8712,-0.8646,-0.0494,23.68,388.55,-593.44
9960,-3.8711,-0.6649,-0.2424,1336.18,1685.79,-1375.12
9970,-3.8708,-0.4774,-0.4131,-1101.32,983.03,155.76
9980,-3.8706,-0.3229,-0.5682,-1101.32,-860.35,764.77
9990,-3.8704,-0.2096,-0.6975,-1320.07,-719.42,-454.28
10000,-3.8700,-0.1205,-0.7849,1179.93,-1266.05,951.72
10010,-3.8699,-0.0247,-0.8348,586.18,-453.37,1826.54
10020,-3.8700,0.0953,-0.8647,851.81,1156.19,-95.40
10030,-3.8702,0.2343,-0.8721,211.18,1312.68,-829.83
10040,-3.8706,0.3755,-0.8716,1992.43,375.43,1763.92
10050,-3.8710,0.4996,-0.8926,70.56,438.23,45.17
10060,-3.8713,0.5922,-0.9250,-38.82,1750.92,-1220.52
10070,-3.8713,0.6531,-0.9561,-195.07,1594.85,123.17
10080,-3.8713,0.6963,-0.9923,-398.19,1626.22,-689.39
10090,-3.8711,0.7440,-1.0342,1133.06,985.72,1529.30
10100,-3.8710,0.8114,-1.0769,-757.57,-373.60,-470.83
10110,-3.8708,0.8876,-1.1189,-132.57,-1842.22,-49.01
10120,-3.8707,0.9445,-1.1628,1617.43,782.96,-1642.82
10130,-3.8707,0.9836,-1.1901,898.68,-841.92,-1221.07
10140,-3.8707,1.0133,-1.1752,1914.31,-326.23,1403.87
10150,-3.8708,1.0269,-1.1241,1711.18,1580.08,1060.18
10160,-3.8711,1.0294,-1.0514,-554.44,111.33,1419.68
10170,-3.8715,1.0234,-0.9694,-226.32,1423.83,-783.33
10180,-3.8718,0.9984,-0.8990,-991.94,-76.17,-470.70
10190,-3.8721,0.9521,-0.8469,-195.07,923.77,13.85
10200,-3.8724,0.8923,-0.8047,1883.06,-404.42,-1329.83
10210,-3.8726,0.8260,-0.7745,-1773.19,1001.71,1076.54
10220,-3.8727,0.7623,-0.7606,1742.43,860.96,-32.78
10230,-3.8726,0.7080,-0.7568,1586.18,-1357.91,1732.85
10240,-3.8726,0.6613,-0.7565,-1366.94,-873.66,-267.15
10250,-3.8724,0.6086,-0.7654,648.68,-826.84,1904.72
10260,-3.8723,0.5396,-0.7891,1914.31,-1967.59,1935.97
10270,-3.8721,0.4506,-0.8286,1070.56,-998.96,1170.29
10280,-3.8718,0.3444,-0.8694,1679.93,1938.35,-1892.27
10290,-3.8716,0.2340,-0.8881,86.18,719.42,-1595.46
10300,-3.8713,0.1378,-0.8868,1961.18,-1671.45,1404.48
10310,-3.8712,0.0692,-0.8785,1648.68,-1515.38,-1673.65
10320,-3.8711,0.0192,-0.8738,867.43,-453.00,716.98
10330,-3.8711,-0.0365,-0.8647,-1538.82,156.25,1654.54
10340,-3.8711,-0.1052,-0.8282,-663.82,1328.00,-1048.58
10350,-3.8710,-0.1976,-0.7739,-1460.69,1999.76,-1111.02
10360,-3.8707,-0.3336,-0.7041,-1288.82,952.70,1920.35
10370,-3.8705,-0.5280,-0.5900,1304.93,1889.95,-907.65
10380,-3.8701,-0.7932,-0.4551,429.93,498.96,1795.72
10390,-3.8698,-1.1094,-0.3566,-1523.19,1764.04,780.33
10400,-3.8695,-1.4210,-0.2792,-1991.94,-1627.20,-0.73
10410,-3.8691,-1.7006,-0.1622,-1882.57,278.44,-172.42
10420,-3.8688,-1.9548,0.0258,-1663.82,-753.36,1921.51
10430,-3.8687,-2.1851,0.2638,1789.31,-691.35,-859.38
10440,-3.8687,-2.3721,0.5046,320.56,1776.98,1406.74
10450,-3.8689,-2.4910,0.7184,383.06,604.74,-1952.15
10460,-3.8691,-2.5502,0.8982,1164.31,-36.13,1063.84
10470,-3.8694,-2.5759,1.0459,1586.18,-1020.63,439.21
10480,-3.8696,-2.5776,1.1476,-1710.69,1885.56,252.01
10490,-3.8700,-2.5403,1.1844,-1929.44,-1098.82,-44.68
10500,-3.8701,-2.4487,1.1469,-1148.19,-380.00,33.51
10510,-3.8704,-2.2970,1.0369,-1429.44,-1192.32,1611.57
10520,-3.8705,-2.0831,0.8800,1992.43,729.86,1033.26
10530,-3.8706,-1.8350,0.7041,1367.43,652.16,1782.96
10540,-3.8707,-1.5941,0.5291,1133.06,-1862.98,-1436.16
10550,-3.8708,-1.3794,0.3765,-38.82,-268.80,-795.90
10560,-3.8708,-1.1956,0.2478,-554.44,200.38,0.73
10570,-3.8710,-1.0476,0.1265,-1023.19,-268.01,1000.43
10580,-3.8711,-0.9353,0.0066,1914.31,201.05,-609.13
10590,-3.8710,-0.8490,-0.1036,289.31,857.54,1125.00
10600,-3.8708,-0.7855,-0.2039,-663.82,-1251.71,-1125.24
10610,-3.8706,-0.7554,-0.3142,-538.82,1920.29,-1391.05
10620,-3.8704,-0.7490,-0.4409,-679.44,-204.65,-1250.67
10630,-3.8701,-0.7207,-0.5599,133.06,-423.34,-125.92
10640,-3.8698,-0.6417,-0.6492,-241.94,342.29,639.53
10650,-3.8696,-0.5266,-0.7008,1867.43,920.59,1154.97
10660,-3.8698,-0.3979,-0.7252,601.81,-1688.54,-813.90
10670,-3.8699,-0.2710,-0.7350,1070.56,-813.29,61.04
10680,-3.8702,-0.1639,-0.7367,1320.56,1936.95,-1360.84
10690,-3.8705,-0.0946,-0.7402,-976.32,1718.38,857.91
10700,-3.8707,-0.0717,-0.7277,-101.32,1265.38,1717.29
10710,-3.8708,-0.0969,-0.6964,-1163.82,-1125.18,-798.34
10720,-3.8708,-0.1545,-0.6750,-398.19,-1125.24,-626.40
10730,-3.8708,-0.2004,-0.6653,226.81,1609.07,-891.97
10740,-3.8708,-0.1978,-0.6571,-1648.19,-1141.05,217.41
10750,-3.8711,-0.1434,-0.6527,-1304.44,-94.18,-1501.34
10760,-3.8713,-0.0576,-0.6460,1648.68,468.44,-1016.91
10770,-3.8716,0.0334,-0.6326,633.06,1328.00,-1173.16
10780,-3.8718,0.1156,-0.6191,289.31,-968.69,-516.91
10790,-3.8719,0.1873,-0.6072,-1195.07,750.18,-1563.72
10800,-3.8721,0.2407,-0.5977,-23.19,-1718.44,-204.35
10810,-3.8721,0.2686,-0.5951,-1179.44,-499.57,1701.90
10820,-3.8722,0.2908,-0.6061,-1616.94,-171.39,-1313.72
10830,-3.8723,0.3434,-0.6339,1226.81,-1577.58,-1032.47
10840,-3.8724,0.4475,-0.6724,-38.82,-1140.01,-1391.91
10850,-3.8726,0.6068,-0.7142,1289.31,1938.35,826.78
10860,-3.8728,0.8059,-0.7498,1679.93,579.28,-1938.90
10870,-3.8729,1.0062,-0.7726,-835.69,32.78,561.04
10880,-3.8730,1.1733,-0.7869,804.93,1111.33,-1579.65
10890,-3.8729,1.2950,-0.7963,-1804.44,-716.49,482.79
10900,-3.8728,1.3593,-0.8092,1773.68,-1919.37,1654.66
10910,-3.8727,1.3594,-0.8311,1992.43,424.50,-110.96
10920,-3.8724,1.3085,-0.8544,-1991.94,1627.62,1560.85
10930,-3.8723,1.2289,-0.8662,-507.57,-1356.87,1638.92
10940,-3.8723,1.1388,-0.8602,1304.93,1127.38,-486.08
10950,-3.8723,1.0479,-0.8419,1773.68,1892.82,-486.08
10960,-3.8723,0.9578,-0.8201,-1866.94,236.39,-798.52
10970,-3.8723,0.8661,-0.8019,-1398.19,-966.92,-501.65
10980,-3.8723,0.7728,-0.7925,-1132.57,1361.02,-157.84
10990,-3.8722,0.6757,-0.7959,-1070.07,-1436.04,685.91
11000,-3.8722,0.5736,-0.8099,-1507.57,-1873.72,-532.84
11010,-3.8719,0.4738,-0.8336,1429.93,329.22,670.29
11020,-3.8718,0.3855,-0.8646,648.68,1297.79,-79.77
11030,-3.8715,0.3121,-0.8949,1351.81,1328.86,279.54
11040,-3.8712,0.2468,-0.9314,-38.82,1453.67,451.35
11050,-3.8711,0.1782,-0.9803,-398.19,781.68,-689.33
11060,-3.8708,0.1014,-1.0298,-1179.44,-1484.07,1685.55
11070,-3.8706,0.0146,-1.0676,992.43,187.68,1107.36
11080,-3.8704,-0.0894,-1.0786,1883.06,-656.25,107.24
11090,-3.8702,-0.2238,-1.0557,570.56,1952.94,794.74
11100,-3.8701,-0.3865,-1.0071,-632.57,890.14,497.92
11110,-3.8700,-0.5720,-0.9240,-1460.69,-891.42,1169.86
11120,-3.8699,-0.7947,-0.8002,-1210.69,1748.84,-1611.21
11130,-3.8698,-1.0624,-0.6444,-1710.69,1592.16,-1689.09
11140,-3.8696,-1.3494,-0.4463,23.68,1529.17,717.47
11150,-3.8696,-1.6233,-0.2114,-710.69,-1112.06,-1000.92
11160,-3.8695,-1.8805,0.0288,226.81,949.95,1577.70
11170,-3.8695,-2.1185,0.2671,-695.07,-300.60,-234.38
11180,-3.8694,-2.3160,0.5026,836.18,-1801.03,1125.49
11190,-3.8694,-2.4561,0.7172,-445.07,339.17,438.48
11200,-3.8695,-2.5312,0.8992,1633.06,-192.32,626.34
11210,-3.8698,-2.5358,1.0414,8.06,-895.57,-1529.54
11220,-3.8700,-2.4839,1.1367,-570.07,1307.50,-747.99
11230,-3.8702,-2.4109,1.1884,-1929.44,1510.74,-169.68
11240,-3.8704,-2.3403,1.1984,-585.69,120.24,314.82
11250,-3.8706,-2.2645,1.1686,445.56,1401.67,1252.32
11260,-3.8708,-2.1661,1.0986,-1851.32,1589.29,-1060.24
11270,-3.8710,-2.0352,0.9886,-1257.57,636.35,142.76
11280,-3.8712,-1.8702,0.8556,-491.94,-1441.53,1111.27
11290,-3.8715,-1.6855,0.7203,617.43,1527.59,-607.73
11300,-3.8716,-1.5065,0.5924,258.06,215.45,-998.60
11310,-3.8717,-1.3502,0.4707,-820.07,-159.24,-186.40
11320,-3.8717,-1.2139,0.3513,-820.07,262.94,-1655.33
11330,-3.8717,-1.0836,0.2390,633.06,981.99,-1436.83
11340,-3.8717,-0.9562,0.1400,1304.93,-1392.76,-343.32
11350,-3.8716,-0.8376,0.0427,1617.43,1935.61,765.87
11360,-3.8716,-0.7272,-0.0731,789.31,1482.73,1578.19
11370,-3.8716,-0.6200,-0.1989,-1070.07,-1345.21,-1500.18
11380,-3.8715,-0.5198,-0.3059,648.68,-1438.72,655.82
11390,-3.8713,-0.4320,-0.3905,1476.81,858.34,1233.76
11400,-3.8712,-0.3582,-0.4713,711.18,-1969.60,-141.42
11410,-3.8710,-0.3009,-0.5634,-1835.69,-313.23,-1204.10
11420,-3.8707,-0.2550,-0.6647,1492.43,-94.36,905.09
11430,-3.8706,-0.1982,-0.7516,-632.57,-1063.05,-1438.84
11440,-3.8705,-0.1134,-0.8051,-1366.94,-187.93,-673.40
11450,-3.8704,-0.0063,-0.8298,1492.43,968.51,826.54
11460,-3.8705,0.1116,-0.8474,-804.44,1796.81,1810.85
11470,-3.8706,0.2393,-0.8706,-1710.69,-468.57,732.67
11480,-3.8707,0.3730,-0.8923,-1366.94,562.93,592.04
11490,-3.8708,0.4996,-0.9084,-241.94,1781.92,1295.10
11500,-3.8710,0.6107,-0.9319,-38.82,-280.33,1357.54
11510,-3.8711,0.7085,-0.9650,-1820.07,719.91,654.42
11520,-3.8712,0.7917,-0.9882,-1304.44,485.72,169.98
11530,-3.8713,0.8618,-0.9982,1351.81,1517.15,466.80
11540,-3.8715,0.9272,-1.0046,-1679.44,236.02,1607.42
11550,-3.8716,0.9973,-1.0054,-1304.44,-591.98,-564.51
11560,-3.8716,1.0684,-1.0114,-335.69,-685.61,919.86
11570,-3.8717,1.1348,-1.0249,758.06,-1451.05,919.86
11580,-3.8719,1.1990,-1.0187,1258.06,814.70,-33.26
11590,-3.8721,1.2476,-0.9840,1476.81,1611.69,-1017.64
11600,-3.8722,1.2557,-0.9360,-304.44,-1950.74,-1861.33
11610,-3.8723,1.1997,-0.8895,742.43,189.94,1529.42
11620,-3.8724,1.0787,-0.8547,1570.56,-1857.06,-1986.15
11630,-3.8724,0.9299,-0.8302,-1913.82,-1404.17,826.42
11640,-3.8724,0.8000,-0.8068,-960.69,1736.15,1810.85
11650,-3.8724,0.7058,-0.7881,-1585.69,735.90,-345.34
11660,-3.8723,0.6394,-0.7798,-1648.19,-873.66,1404.66
11670,-3.8723,0.5930,-0.7760,1851.81,188.72,-814.03
11680,-3.8722,0.5559,-0.7745,-85.69,672.97,1529.72
11690,-3.8721,0.5098,-0.7834,-835.69,860.41,592.22
11700,-3.8719,0.4446,-0.8055,1258.06,-280.27,1264.04
11710,-3.8717,0.3701,-0.8231,914.31,891.48,685.91
11720,-3.8715,0.2976,-0.8297,-616.94,-1358.70,1810.85
11730,-3.8712,0.2240,-0.8511,-1898.19,1797.42,-1689.15
11740,-3.8710,0.1372,-0.8926,679.93,-937.07,1779.54
11750,-3.8707,0.0287,-0.9271,1570.56,1750.24,138.85
11760,-3.8706,-0.1041,-0.9357,-320.07,1328.12,1623.17
11770,-3.8704,-0.2721,-0.9076,-1320.07,249.76,404.42
11780,-3.8701,-0.5015,-0.8258,1179.93,-156.80,716.92
11790,-3.8699,-0.8135,-0.6980,-179.44,-1688.54,1545.23
11800,-3.8696,-1.2039,-0.5573,-116.94,-1329.77,-1657.65
11810,-3.8694,-1.6340,-0.4131,1914.31,685.12,-1407.35
11820,-3.8691,-2.0564,-0.2521,-1148.19,-862.61,-1641.48
11830,-3.8690,-2.4302,-0.0686,789.31,-254.03,-16.17
11840,-3.8689,-2.6990,0.1407,945.56,-770.39,984.19
11850,-3.8690,-2.8313,0.3784,-1460.69,-1974.06,1281.49
11860,-3.8693,-2.8552,0.6151,1601.81,447.57,1766.36
11870,-3.8696,-2.8121,0.8007,-1460.69,-1255.62,-1420.72
11880,-3.8700,-2.7357,0.9232,54.93,-1505.49,798.40
11890,-3.8705,-2.6527,0.9996,1836.18,-1817.87,1564.27
11900,-3.8710,-2.5637,1.0364,461.18,-36.44,1892.52
11910,-3.8715,-2.4520,1.0298,-148.19,666.81,-138.61
11920,-3.8717,-2.2991,0.9702,-1851.32,-176.70,376.95
11930,-3.8721,-2.0947,0.8630,1726.81,198.61,-326.23
11940,-3.8722,-1.8638,0.7327,-116.94,-1519.78,1829.77
11950,-3.8723,-1.6461,0.5924,1445.56,1793.21,1907.65
11960,-3.8723,-1.4647,0.4567,1304.93,-159.48,563.60
11970,-3.8723,-1.3274,0.3411,523.68,-1534.12,-1233.52
11980,-3.8722,-1.2318,0.2345,-1898.19,-330.75,-296.26
11990,-3.8719,-1.1614,0.1187,-1663.82,-1971.19,-1718.32
12000,-3.8717,-1.0953,0.0001,-648.19,-799.19,1609.56
12010,-3.8715,-1.0240,-0.1187,-195.07,29.05,281.25
12020,-3.8713,-0.9380,-0.2527,929.93,826.11,1452.88
12030,-3.8712,-0.8265,-0.3965,-54.44,-330.02,1171.33
12040,-3.8711,-0.6937,-0.5221,-1788.82,1263.98,499.21
12050,-3.8710,-0.5569,-0.6183,-788.82,1186.10,483.34
12060,-3.8708,-0.4309,-0.6946,726.81,873.90,1201.90
12070,-3.8707,-0.3326,-0.7607,851.81,-891.48,1857.97
12080,-3.8706,-0.2745,-0.8203,1429.93,-1360.05,1357.85
12090,-3.8705,-0.2374,-0.8706,867.43,-984.92,217.10
12100,-3.8705,-0.1831,-0.9062,1617.43,577.64,-1314.21
12110,-3.8705,-0.0919,-0.9309,570.56,15.26,-1017.40
12120,-3.8705,0.0291,-0.9679,242.43,859.19,45.04
12130,-3.8707,0.1750,-1.0269,-273.19,109.38,-1251.89
12140,-3.8708,0.3517,-1.0767,-1585.69,562.81,1513.61
12150,-3.8710,0.5463,-1.0994,1023.68,-1811.83,-1627.14
12160,-3.8710,0.7300,-1.1096,1929.93,-717.71,935.30
12170,-3.8711,0.8802,-1.1160,1445.56,1970.15,-174.07
12180,-3.8711,0.9924,-1.1115,679.93,1157.96,-1033.45
12190,-3.8711,1.0828,-1.0905,-960.69,1736.27,-1689.70
12200,-3.8711,1.1580,-1.0702,-1398.19,423.95,732.24
12210,-3.8712,1.2072,-1.0756,226.81,-982.12,404.11
12220,-3.8715,1.2345,-1.0817,-1476.32,-1669.56,1529.11
12230,-3.8717,1.2537,-1.0370,-1976.32,1549.26,-814.64
12240,-3.8718,1.2522,-0.9572,476.81,-731.93,-1830.20
12250,-3.8719,1.2041,-0.8779,289.31,1486.82,185.61
12260,-3.8722,1.1105,-0.8041,-1866.94,-372.68,935.73
12270,-3.8724,0.9949,-0.7476,-1851.32,1080.26,1717.16
12280,-3.8727,0.8907,-0.7013,-648.19,314.39,-1.46
12290,-3.8727,0.8130,-0.6598,-1976.32,-1763.92,232.97
12300,-3.8728,0.7539,-0.6349,70.56,-451.54,-1766.97
12310,-3.8728,0.7057,-0.6152,508.06,-1264.16,-1595.03
12320,-3.8727,0.6523,-0.5946,-1663.82,1251.34,217.53
12330,-3.8727,0.5806,-0.5862,-491.94,-108.15,-829.35
12340,-3.8724,0.4935,-0.5945,-1679.44,969.85,76.97
12350,-3.8722,0.4093,-0.6024,-820.07,-92.83,14.40
12360,-3.8719,0.3363,-0.6047,398.68,-1108.58,1670.65
12370,-3.8717,0.2717,-0.6139,-945.07,-1405.64,-1126.22
12380,-3.8715,0.2130,-0.6359,-1210.69,1422.36,-391.85
12390,-3.8711,0.1444,-0.6814,-726.32,-1390.26,311.22
12400,-3.8708,0.0575,-0.7518,-1507.57,781.49,1404.91
12410,-3.8705,-0.0361,-0.8127,-632.57,-234.31,201.60
12420,-3.8701,-0.1566,-0.8240,-616.94,-15.75,1529.60
12430,-3.8696,-0.3586,-0.7714,-38.82,-1453.49,388.98
12440,-3.8693,-0.6677,-0.6577,-1898.19,1280.52,-564.03
12450,-3.8688,-1.0540,-0.5005,-1460.69,-173.22,1858.03
12460,-3.8684,-1.4580,-0.3202,1101.81,-48.95,1155.21
12470,-3.8683,-1.8250,-0.1128,1383.06,-971.62,-578.80
12480,-3.8682,-2.1288,0.1230,-1585.69,1574.52,187.26
12490,-3.8684,-2.3481,0.3556,-476.32,-238.59,-187.32
12500,-3.8687,-2.4784,0.5493,-554.44,1526.61,-93.08
12510,-3.8689,-2.5397,0.7020,-1226.32,-1676.76,1751.04
12520,-3.8693,-2.5417,0.8273,-1070.07,1870.00,-1139.28
12530,-3.8695,-2.4880,0.9213,-1335.69,1901.25,329.71
12540,-3.8699,-2.3862,0.9709,1539.31,1932.62,1720.52
12550,-3.8702,-2.2561,0.9730,-1429.44,292.18,-1748.11
12560,-3.8706,-2.1172,0.9360,-773.19,558.04,-1935.61
12570,-3.8710,-1.9803,0.8754,1008.06,-176.03,1658.02
12580,-3.8713,-1.8464,0.7943,-1476.32,58.59,1673.58
12590,-3.8717,-1.7107,0.6926,-335.69,1683.84,-529.72
12600,-3.8718,-1.5719,0.5793,1039.31,668.52,173.22
12610,-3.8719,-1.4324,0.4648,-1195.07,-1831.24,235.47
12620,-3.8721,-1.2924,0.3502,664.31,-487.18,-452.27
12630,-3.8719,-1.1554,0.2307,-1413.82,841.19,1125.67
12640,-3.8719,-1.0280,0.1040,117.43,1544.62,-530.82
12650,-3.8718,-0.9121,-0.0387,429.93,1326.11,-1968.57
12660,-3.8717,-0.8003,-0.1971,-741.94,-939.33,1109.25
12670,-3.8716,-0.6890,-0.3611,1570.56,-1220.34,1108.95
12680,-3.8715,-0.5819,-0.5159,-179.44,1795.47,-1281.98
12690,-3.8712,-0.4777,-0.6398,1523.68,1983.22,-1251.04
12700,-3.8708,-0.3783,-0.7277,-1132.57,-1875.98,154.97
12710,-3.8706,-0.2881,-0.7977,-413.82,-1125.79,607.91
12720,-3.8705,-0.2009,-0.8665,-866.94,1905.64,-1204.71
12730,-3.8704,-0.1067,-0.9303,-1710.69,1108.95,-1454.83
12740,-3.8702,0.0013,-0.9775,-1648.19,937.26,560.67
12750,-3.8702,0.1219,-1.0109,179.93,-1125.00,841.80
12760,-3.8704,0.2500,-1.0500,-382.57,-1390.44,-642.64
12770,-3.8704,0.3882,-1.0902,8.06,1594.24,326.05
12780,-3.8706,0.5370,-1.1111,1695.56,453.86,-314.64
12790,-3.8707,0.6920,-1.1176,742.43,1782.29,1810.30
12800,-3.8710,0.8497,-1.1183,586.18,954.47,-142.82
12810,-3.8711,1.0072,-1.1104,773.68,861.02,-1767.82
12820,-3.8712,1.1511,-1.0857,929.93,1876.95,669.68
12830,-3.8715,1.2504,-1.0352,-648.19,1033.45,-830.26
12840,-3.8716,1.2847,-0.9677,54.93,-497.56,1435.42
12850,-3.8718,1.2593,-0.9088,445.56,143.13,-1064.39
12860,-3.8719,1.2020,-0.8641,1195.56,-325.68,45.04
12870,-3.8722,1.1539,-0.8171,1867.43,1392.94,1763.92
12880,-3.8723,1.1229,-0.7615,-288.82,-591.55,904.60
12890,-3.8726,1.0850,-0.7125,-257.57,-1466.61,-485.90
12900,-3.8727,1.0254,-0.6740,-1116.94,798.95,1654.85
12910,-3.8728,0.9481,-0.6398,-741.94,1736.33,-798.22
12920,-3.8727,0.8705,-0.6163,1367.43,-1888.79,529.97
12930,-3.8727,0.7997,-0.6133,-570.07,1111.02,-1094.97
12940,-3.8726,0.7323,-0.6335,-1632.57,1501.53,1030.03
12950,-3.8724,0.6720,-0.6478,1742.43,-1092.35,108.09
12960,-3.8723,0.6154,-0.6348,-1976.32,1079.41,420.59
12970,-3.8722,0.5499,-0.6147,-1226.32,-1248.84,264.34
12980,-3.8722,0.4741,-0.6078,-1601.32,1313.54,-938.72
12990,-3.8721,0.3917,-0.6146,695.56,-1795.96,-1954.35
13000,-3.8719,0.2972,-0.6364,-1851.32,1328.86,1951.90
13010,-3.8718,0.1852,-0.6794,-1945.07,-1452.58,-1470.03
13020,-3.8717,0.0604,-0.7399,-288.82,1031.56,-532.59
13030,-3.8715,-0.0748,-0.7952,-257.57,1296.94,607.91
13040,-3.8713,-0.2363,-0.8070,-1570.07,-1765.81,1639.04
13050,-3.8712,-0.4510,-0.7323,1758.06,718.26,-1064.09
13060,-3.8710,-0.7434,-0.5774,-1726.32,-1719.67,1795.41
13070,-3.8707,-1.1194,-0.3954,851.81,-1892.09,-1563.66
13080,-3.8705,-1.5496,-0.2041,726.81,1404.05,-63.29
13090,-3.8702,-2.0006,0.0186,1664.31,1887.57,-281.68
13100,-3.8701,-2.4534,0.2775,-70.07,-1613.34,-1859.38
13110,-3.8702,-2.8508,0.5509,1976.81,-473.57,-983.89
13120,-3.8704,-3.1030,0.8125,-898.19,-1474.37,1001.04
13130,-3.8706,-3.1565,1.0216,-1179.44,9.52,-1826.54
13140,-3.8707,-3.0183,1.1219,-23.19,-1224.98,455.08
13150,-3.8708,-2.7418,1.0922,1664.31,-380.92,1095.89
13160,-3.8708,-2.4080,0.9760,1054.93,-192.87,267.70
13170,-3.8708,-2.0951,0.8280,-210.69,932.74,1986.27
13180,-3.8707,-1.8403,0.6674,-163.82,1995.85,1985.96
13190,-3.8706,-1.6360,0.5022,445.56,1433.90,-451.84
13200,-3.8704,-1.4622,0.3422,-1398.19,293.64,1797.85
13210,-3.8701,-1.3076,0.1892,851.81,-190.37,641.24
13220,-3.8700,-1.1670,0.0515,633.06,231.81,-249.63
13230,-3.8698,-1.0421,-0.0656,-1366.94,-1392.94,-1968.69
13240,-3.8696,-0.9344,-0.1827,-1382.57,-377.08,-1562.68
13250,-3.8695,-0.8424,-0.3190,398.68,623.17,1280.88
13260,-3.8694,-0.7578,-0.4624,179.93,-814.15,764.95
13270,-3.8693,-0.6667,-0.5874,-991.94,826.60,-657.17
13280,-3.8689,-0.5634,-0.6877,-1335.69,826.78,30.09
13290,-3.8688,-0.4507,-0.7771,-101.32,-16.78,-892.03
13300,-3.8687,-0.3298,-0.8563,-1679.44,545.96,-1798.40
13310,-3.8687,-0.2009,-0.9136,1789.31,-1594.42,920.17
13320,-3.8689,-0.0702,-0.9418,-1710.69,-922.30,-189.33
13330,-3.8691,0.0527,-0.9397,-976.32,-531.43,-548.77
13340,-3.8694,0.1598,-0.9136,-1241.94,-281.19,138.73
13350,-3.8699,0.2430,-0.8767,461.18,-937.19,-954.96
13360,-3.8702,0.3005,-0.8427,-882.57,-218.32,1654.48
13370,-3.8706,0.3430,-0.8069,-1523.19,141.17,888.98
13380,-3.8710,0.3813,-0.7686,-85.69,719.36,-1751.59
13390,-3.8712,0.4221,-0.7495,820.56,1625.73,-1501.53
13400,-3.8715,0.4692,-0.7554,-1960.69,63.29,-142.09
13410,-3.8717,0.5330,-0.7609,70.56,-686.58,-189.03
13420,-3.8719,0.6239,-0.7560,226.81,-1389.59,-1407.78
13430,-3.8722,0.7445,-0.7601,-132.57,-764.47,920.35
13440,-3.8726,0.8997,-0.7742,-695.07,-1295.47,-1298.40
13450,-3.8728,1.0692,-0.7795,-835.69,907.96,857.85
13460,-3.8732,1.2152,-0.7740,867.43,220.83,-79.65
13470,-3.8733,1.3198,-0.7568,-445.07,924.19,748.47
13480,-3.8734,1.3800,-0.7241,945.56,-872.44,639.10
13490,-3.8735,1.3942,-0.6924,648.68,-684.81,-1251.46
13500,-3.8735,1.3701,-0.6821,-1538.82,-622.31,811.10
13510,-3.8737,1.3203,-0.6898,-616.94,690.12,-1345.09
13520,-3.8737,1.2568,-0.6956,1008.06,-294.31,-1313.90
13530,-3.8735,1.1913,-0.7000,883.06,-1028.81,-1720.15
13540,-3.8733,1.1223,-0.7168,492.43,-1591.43,14.22
13550,-3.8732,1.0393,-0.7450,-335.69,252.14,-970.15
13560,-3.8729,0.9390,-0.7739,1039.31,642.64,-313.96
13570,-3.8726,0.8284,-0.8040,195.56,939.33,1701.60
13580,-3.8722,0.7219,-0.8384,-1960.69,1095.34,217.16
13590,-3.8719,0.6307,-0.8669,414.31,688.90,1935.85
13600,-3.8717,0.5488,-0.8923,742.43,1032.47,1810.79
13610,-3.8715,0.4625,-0.9293,-1741.94,1782.29,388.85
13620,-3.8713,0.3658,-0.9718,-788.82,1047.73,-236.21
13630,-3.8710,0.2567,-1.0104,-1163.82,-389.95,451.17
13640,-3.8707,0.1367,-1.0497,867.43,-1327.64,451.11
13650,-3.8706,0.0164,-1.0826,1508.06,1640.87,-798.95
13660,-3.8704,-0.1124,-1.0935,-1898.19,1421.88,1669.74
13670,-3.8702,-0.2837,-1.0706,1617.43,46.63,-95.89
13680,-3.8700,-0.5175,-0.9900,-304.44,-1016.24,-799.01
13690,-3.8696,-0.8195,-0.8464,1773.68,1295.84,-1814.45
13700,-3.8693,-1.2036,-0.6876,-882.57,-329.77,-236.08
13710,-3.8688,-1.6536,-0.5284,1945.56,-2.38,1311.10
13720,-3.8684,-2.1123,-0.3158,351.81,371.77,-1954.16
13730,-3.8682,-2.5323,-0.0223,1633.06,-410.40,-797.55
13740,-3.8680,-2.8756,0.3079,-132.57,1151.25,1390.56
13750,-3.8682,-3.0950,0.6062,-70.07,-583.80,1438.05
13760,-3.8684,-3.1610,0.8318,-148.19,1603.27,1376.16
13770,-3.8688,-3.0939,0.9663,-601.32,-1521.85,1610.96
13780,-3.8693,-2.9376,1.0061,-7.57,-302.98,-576.29
13790,-3.8696,-2.7222,0.9641,-7.57,791.08,986.33
13800,-3.8700,-2.4692,0.8628,-429.44,-583.50,1.83
13810,-3.8704,-2.2030,0.7167,-54.44,-1551.76,1564.15
13820,-3.8706,-1.9452,0.5380,-1976.32,-254.33,1907.59
13830,-3.8707,-1.7089,0.3512,-976.32,871.15,1001.04
13840,-3.8708,-1.4993,0.1796,1273.68,965.39,-1374.33
13850,-3.8708,-1.3163,0.0326,101.81,-1002.93,-1702.82
13860,-3.8708,-1.1589,-0.0923,-476.32,184.88,-671.81
13870,-3.8707,-1.0273,-0.2103,-335.69,200.81,765.44
13880,-3.8707,-0.9177,-0.3458,508.06,1091.74,-1937.93
13890,-3.8707,-0.8135,-0.5090,-1460.69,-251.83,-563.23
13900,-3.8706,-0.6910,-0.6787,-116.94,-1142.27,1764.59
13910,-3.8705,-0.5491,-0.8323,-445.07,1139.22,-1548.22
13920,-3.8702,-0.4081,-0.9785,1726.81,1483.28,-1814.15
13930,-3.8700,-0.2749,-1.1173,-226.32,-1235.23,-439.45
13940,-3.8696,-0.1385,-1.2102,820.56,999.45,138.43
13950,-3.8695,0.0033,-1.2368,-1726.32,1109.07,810.12
13960,-3.8696,0.1412,-1.2249,429.93,1687.50,-1189.94
13970,-3.8699,0.2607,-1.2029,-1913.82,-781.01,-1330.57
13980,-3.8702,0.3544,-1.1821,1383.06,-1968.26,-346.13
13990,-3.8705,0.4395,-1.1667,1367.43,688.17,1044.56
14000,-3.8707,0.5424,-1.1599,258.06,-1342.90,466.43
14010,-3.8710,0.6807,-1.1575,1429.93,-467.71,1028.93
14020,-3.8712,0.8521,-1.1458,-866.94,-154.97,747.68
14030,-3.8716,1.0294,-1.1176,1070.56,1345.40,-1033.51
14040,-3.8719,1.1874,-1.0850,-226.32,955.08,-814.70
14050,-3.8723,1.3164,-1.0592,-7.57,1127.26,-1533.39
14060,-3.8727,1.4253,-1.0228,508.06,424.44,-455.20
14070,-3.8729,1.5122,-0.9608,-1554.44,1080.87,-892.64
14080,-3.8732,1.5568,-0.8750,1570.56,1018.55,-17.52
14090,-3.8733,1.5437,-0.7819,-726.32,2.99,1138.92
14100,-3.8735,1.4810,-0.7073,1601.81,-75.13,-532.84
14110,-3.8735,1.3955,-0.6606,1570.56,1471.62,811.10
14120,-3.8735,1.3019,-0.6405,-1366.94,-559.81,1951.78
14130,-3.8734,1.2083,-0.6353,-1351.32,-1981.87,-1876.28
14140,-3.8732,1.1191,-0.6261,-1335.69,-1310.18,14.34
14150,-3.8730,1.0305,-0.6129,-741.94,-138.49,-1391.91
14160,-3.8728,0.9447,-0.5996,-85.69,1548.83,1358.15
14170,-3.8726,0.8704,-0.5908,929.93,-748.17,201.90
14180,-3.8724,0.8090,-0.5947,-585.69,376.65,-1251.16
14190,-3.8722,0.7635,-0.6019,-445.07,-123.47,373.78
14200,-3.8721,0.7340,-0.6057,1742.43,-1045.41,1061.28
14210,-3.8719,0.7072,-0.6184,1961.18,-1529.85,1405.03
14220,-3.8718,0.6687,-0.6411,-1476.32,845.09,-1532.47
14230,-3.8716,0.6177,-0.6593,1601.81,1938.78,608.09
14240,-3.8715,0.5579,-0.6771,-929.44,-389.47,-766.97
14250,-3.8712,0.4950,-0.7064,-585.69,1329.16,1608.03
14260,-3.8711,0.4329,-0.7477,-632.57,1579.04,-579.53
14270,-3.8710,0.3707,-0.8153,-585.69,297.67,-17.09
14280,-3.8708,0.3055,-0.9292,-538.82,-358.70,-1767.27
14290,-3.8708,0.2294,-1.0881,-882.57,1063.05,-64.33
14300,-3.8706,0.1332,-1.2626,1367.43,719.18,1310.36
14310,-3.8702,0.0088,-1.3944,1054.93,-1609.13,44.37
14320,-3.8699,-0.1635,-1.4501,1133.06,1515.62,-1143.37
14330,-3.8694,-0.4055,-1.4359,-913.82,-1594.12,-893.49
14340,-3.8689,-0.7084,-1.3572,101.81,217.96,1184.69
14350,-3.8687,-1.0532,-1.2169,1336.18,-1704.53,1247.31
14360,-3.8687,-1.4324,-1.0293,1195.56,247.92,-1830.51
14370,-3.8688,-1.8193,-0.8098,664.31,262.82,-1361.39
14380,-3.8689,-2.1735,-0.5599,-866.94,355.77,1357.79
14390,-3.8691,-2.4581,-0.2863,1804.93,339.48,-251.10
14400,-3.8693,-2.6473,-0.0114,1367.43,-629.82,-688.11
14410,-3.8693,-2.7460,0.2311,1148.68,-1442.69,953.06
14420,-3.8693,-2.7764,0.4115,523.68,1588.38,266.05
14430,-3.8693,-2.7488,0.5247,633.06,682.07,328.92
14440,-3.8694,-2.6543,0.5812,164.31,-833.50,-280.27
14450,-3.8694,-2.4908,0.5757,258.06,-1598.94,63.60
14460,-3.8696,-2.2772,0.4940,1179.93,1698.24,501.10
14470,-3.8700,-2.0417,0.3623,523.68,-754.46,-1561.58
14480,-3.8704,-1.8160,0.2246,-1335.69,-1613.40,-124.33
14490,-3.8706,-1.6237,0.1003,-445.07,762.02,-1171.45
14500,-3.8707,-1.4762,-0.0043,179.93,856.20,250.18
14510,-3.8708,-1.3712,-0.0955,-945.07,-534.18,15.56
14520,-3.8710,-1.2909,-0.1851,492.43,-205.81,1515.38
14530,-3.8710,-1.2205,-0.2833,-1226.32,325.56,405.88
14540,-3.8710,-1.1628,-0.4026,-210.69,-252.44,827.51
14550,-3.8710,-1.1101,-0.5521,-835.69,482.06,-703.92
14560,-3.8707,-1.0347,-0.7157,1914.31,1341.55,623.90
14570,-3.8705,-0.9265,-0.8745,-429.44,404.17,1014.22
14580,-3.8702,-0.8024,-1.0299,1414.31,76.29,-861.08
14590,-3.8699,-0.6791,-1.1732,1304.93,185.91,-1939.51
14600,-3.8695,-0.5581,-1.2816,1086.18,1842.41,919.56
14610,-3.8693,-0.4329,-1.3534,570.56,-32.35,1403.69
14620,-3.8691,-0.2931,-1.3945,601.81,-1219.60,1278.56
14630,-3.8693,-0.1327,-1.3933,-1507.57,1515.01,-1065.25
14640,-3.8695,0.0277,-1.3525,-976.32,1671.57,-1549.62
14650,-3.8699,0.1613,-1.2971,-445.07,-1125.00,1669.19
14660,-3.8704,0.2650,-1.2500,648.68,1969.06,-986.94
14670,-3.8707,0.3628,-1.2240,1929.93,0.49,1247.56
14680,-3.8711,0.4868,-1.2124,-1554.44,-671.20,-1471.19
14690,-3.8713,0.6448,-1.2129,-1679.44,813.42,-111.76
14700,-3.8713,0.8240,-1.2297,-1460.69,751.22,1731.99
14710,-3.8713,1.0038,-1.2394,1476.81,-1404.66,-1268.07
14720,-3.8712,1.1692,-1.2305,492.43,1361.33,638.18
14730,-3.8712,1.3098,-1.2271,1664.31,-1497.74,1544.43
14740,-3.8712,1.4240,-1.2375,-335.69,-1060.00,294.43
14750,-3.8713,1.5200,-1.2471,-1726.32,1596.50,1544.43
14760,-3.8715,1.5938,-1.2394,-1429.44,377.93,-1033.69
14770,-3.8715,1.6375,-1.2035,8.06,1362.49,466.31
14780,-3.8716,1.6490,-1.1429,1601.81,1956.30,1013.24
14790,-3.8718,1.6295,-1.0682,-913.82,1706.30,-158.51
14800,-3.8721,1.5710,-0.9863,586.18,-731.20,-127.14
14810,-3.8723,1.4685,-0.9098,1101.81,1753.05,1560.55
14820,-3.8727,1.3423,-0.8441,-23.19,-450.32,-1001.83
14830,-3.8729,1.2228,-0.7942,-179.44,-44.31,1967.04
14840,-3.8730,1.1250,-0.7742,523.68,-1653.87,76.54
14850,-3.8732,1.0509,-0.7889,8.06,908.45,-1595.28
14860,-3.8730,0.9957,-0.8253,-1476.32,-982.36,1451.54
14870,-3.8728,0.9415,-0.8807,-538.82,-1638.73,185.85
14880,-3.8726,0.8705,-0.9546,523.68,-732.54,591.98
14890,-3.8723,0.7795,-1.0165,-570.07,1814.15,1529.36
14900,-3.8721,0.6730,-1.0416,-210.69,1892.09,-1783.26
14910,-3.8718,0.5522,-1.0529,-1851.32,-1326.84,1951.05
14920,-3.8716,0.4236,-1.0728,-1304.44,1235.41,201.05
14930,-3.8715,0.2968,-1.0929,-1773.19,-1311.71,794.74
14940,-3.8713,0.1738,-1.1168,1992.43,109.92,357.24
14950,-3.8712,0.0565,-1.1487,-1741.94,1047.18,310.30
14960,-3.8711,-0.0602,-1.1431,-757.57,968.81,1732.12
14970,-3.8708,-0.2122,-1.0612,304.93,1703.00,138.37
14980,-3.8707,-0.4330,-0.9222,851.81,187.07,-1689.58
14990,-3.8705,-0.7135,-0.7535,586.18,1967.90,295.04
15000,-3.8704,-1.0316,-0.5688,679.93,-438.90,-392.15
15010,-3.8700,-1.3632,-0.3617,-38.82,-798.95,1826.97
15020,-3.8696,-1.6838,-0.1304,1523.68,1716.06,1858.64
15030,-3.8693,-1.9801,0.0999,476.81,-675.17,562.19
15040,-3.8690,-2.2252,0.3096,-1445.07,792.97,437.68
15050,-3.8689,-2.3948,0.4854,-820.07,-363.77,203.67
15060,-3.8690,-2.4877,0.6210,1476.81,-1864.07,-1405.33
15070,-3.8691,-2.5155,0.7334,1586.18,-504.88,141.78
15080,-3.8695,-2.5129,0.8406,-1976.32,1885.68,-1732.97
15090,-3.8699,-2.5084,0.9246,-1648.19,-395.57,1985.96
15100,-3.8702,-2.4965,0.9573,-1070.07,-1645.57,111.15
15110,-3.8707,-2.4564,0.9419,461.18,-1458.01,1783.08
15120,-3.8711,-2.3733,0.8807,1586.18,573.30,345.58
15130,-3.8715,-2.2426,0.7805,226.81,745.36,1470.46
15140,-3.8717,-2.0709,0.6725,961.18,-82.52,-1404.79
15150,-3.8718,-1.8821,0.5737,-1070.07,-1910.34,-186.22
15160,-3.8718,-1.7073,0.4768,-898.19,1449.40,-139.53
15170,-3.8717,-1.5697,0.3751,1476.81,1043.52,1719.67
15180,-3.8716,-1.4692,0.2656,-913.82,28.14,813.23
15190,-3.8715,-1.3829,0.1439,-54.44,-1987.30,62.99
15200,-3.8715,-1.2821,0.0073,-1007.57,-1565.25,-1781.01
15210,-3.8715,-1.1505,-0.1479,-101.32,950.56,-734.38
15220,-3.8713,-0.9905,-0.3204,742.43,1075.87,780.94
15230,-3.8712,-0.8239,-0.4974,1226.81,-1001.95,733.70
15240,-3.8710,-0.6730,-0.6488,-1445.07,342.10,905.27
15250,-3.8706,-0.5438,-0.7648,1867.43,967.41,420.59
15260,-3.8704,-0.4274,-0.8700,-1601.32,-1876.10,-298.40
15270,-3.8700,-0.3020,-0.9589,1304.93,655.40,388.92
15280,-3.8699,-0.1641,-1.0081,1351.81,1280.64,1201.23
15290,-3.8699,-0.0219,-1.0305,-991.94,-1015.99,826.11
15300,-3.8701,0.1362,-1.0493,1211.18,109.31,-767.64
15310,-3.8704,0.3303,-1.0718,1445.56,1687.74,-1814.58
15320,-3.8706,0.5726,-1.0990,-1710.69,-1186.89,44.74
15330,-3.8710,0.8563,-1.1244,1304.93,-670.78,-1502.20
15340,-3.8712,1.1354,-1.1547,1617.43,79.77,1435.30
15350,-3.8715,1.3540,-1.2134,1336.18,205.32,44.62
15360,-3.8717,1.4915,-1.2910,1320.56,690.12,981.99
15370,-3.8717,1.5417,-1.3507,-1085.69,-1247.13,1872.44
15380,-3.8713,1.5120,-1.3873,1351.81,-887.63,481.69
15390,-3.8708,1.4663,-1.4092,1539.31,-1575.20,184.75
15400,-3.8705,1.4772,-1.4058,-304.44,-372.19,-1893.43
15410,-3.8702,1.5400,-1.3743,1086.18,65.37,825.38
15420,-3.8704,1.6005,-1.3107,1133.06,96.74,-1315.19
15430,-3.8706,1.6034,-1.2155,867.43,237.49,1903.69
15440,-3.8710,1.5151,-1.1066,1242.43,424.99,1606.99
15450,-3.8713,1.3604,-0.9961,1945.56,-1637.70,810.30
15460,-3.8717,1.2008,-0.8956,-1866.94,502.62,1169.92
15470,-3.8721,1.0698,-0.8153,1711.18,1361.69,-845.52
15480,-3.8723,0.9567,-0.7657,945.56,-357.30,-173.52
15490,-3.8724,0.8431,-0.7548,-1538.82,1986.21,-657.78
15500,-3.8724,0.7295,-0.7786,-70.07,-607.79,-704.65
15510,-3.8722,0.6266,-0.8279,1383.06,345.15,1389.10
15520,-3.8718,0.5504,-0.8909,211.18,-1967.53,92.10
15530,-3.8715,0.5170,-0.9507,-1538.82,1969.79,1779.48
15540,-3.8710,0.5123,-1.0013,-1820.07,-1686.52,1576.23
15550,-3.8705,0.4849,-1.0560,1586.18,-170.90,232.36
15560,-3.8702,0.3901,-1.1278,-1929.44,829.04,1326.05
15570,-3.8701,0.2369,-1.1879,1945.56,-358.64,247.74
15580,-3.8701,0.0648,-1.2106,-1663.82,-46.45,388.24
15590,-3.8701,-0.1077,-1.1853,304.93,1047.00,-1877.38
15600,-3.8700,-0.3026,-1.0935,-1773.19,296.63,919.56
15610,-3.8700,-0.5496,-0.9426,1273.68,46.26,-1689.64
15620,-3.8700,-0.8431,-0.7548,1664.31,-641.72,-1580.02
15630,-3.8700,-1.1510,-0.5565,86.18,-595.40,1264.10
15640,-3.8700,-1.4552,-0.3705,679.93,778.99,14.53
15650,-3.8700,-1.7540,-0.1992,1742.43,590.88,639.89
15660,-3.8699,-2.0338,-0.0132,-507.57,-1487.85,187.07
15670,-3.8698,-2.2800,0.1941,-320.07,-1675.90,1249.94
15680,-3.8696,-2.4875,0.3883,164.31,854.92,406.62
15690,-3.8698,-2.6304,0.5538,1601.81,1713.87,-1608.64
15700,-3.8700,-2.6785,0.6967,-679.44,-1098.94,1938.54
15710,-3.8704,-2.6411,0.8092,1164.31,1182.25,673.22
15720,-3.8708,-2.5551,0.8811,1945.56,-411.44,1017.15
15730,-3.8713,-2.4430,0.9197,961.18,791.87,861.08
15740,-3.8718,-2.3055,0.9349,-695.07,1729.55,-1982.60
15750,-3.8722,-2.1490,0.9282,898.68,-317.02,-1904.48
15760,-3.8724,-1.9878,0.8884,929.93,-1176.09,970.52
15770,-3.8727,-1.8279,0.8112,1570.56,1730.47,1892.33
15780,-3.8728,-1.6714,0.7115,-1960.69,-159.85,1001.53
15790,-3.8729,-1.5210,0.6144,-1929.44,-909.55,-1858.03
15800,-3.8729,-1.3752,0.5338,1320.56,-1346.74,985.53
15810,-3.8729,-1.2378,0.4648,-23.19,341.00,1079.16
15820,-3.8729,-1.1284,0.3976,1570.56,-486.82,-1249.15
15830,-3.8728,-1.0598,0.3247,-429.44,-1096.01,1625.73
15840,-3.8727,-1.0138,0.2565,351.81,1576.05,766.24
15850,-3.8726,-0.9740,0.1962,-1757.57,841.74,31.74
15860,-3.8726,-0.9438,0.1187,-663.82,1123.05,-812.13
15870,-3.8724,-0.9209,0.0139,-804.44,-798.77,-1124.82
15880,-3.8722,-0.8939,-0.1005,-1866.94,1795.04,671.88
15890,-3.8719,-0.8662,-0.2168,1586.18,-845.52,1499.76
15900,-3.8716,-0.8380,-0.3312,1133.06,263.92,1296.45
15910,-3.8712,-0.8040,-0.4410,742.43,1623.35,-266.30
15920,-3.8707,-0.7645,-0.5604,1101.81,-439.09,-1579.04
15930,-3.8704,-0.7059,-0.6830,-1851.32,279.72,-641.72
15940,-3.8700,-0.6116,-0.7809,1648.68,592.35,1998.66
15950,-3.8698,-0.4884,-0.8379,1726.81,61.28,717.22
15960,-3.8698,-0.3486,-0.8512,1492.43,764.65,1560.85
15970,-3.8699,-0.1946,-0.8440,-616.94,-938.23,263.92
15980,-3.8702,-0.0370,-0.8710,-898.19,-16.05,-1814.21
15990,-3.8706,0.1062,-0.9578,-726.32,531.13,1217.04
16000,-3.8710,0.2256,-1.0555,1601.81,1406.43,-1470.64
16010,-3.8710,0.3025,-1.1163,883.06,891.05,-1892.70
16020,-3.8706,0.3242,-1.1527,-1273.19,1109.92,1966.55
16030,-3.8700,0.3287,-1.1892,1508.06,453.74,778.99
16040,-3.8694,0.3743,-1.2305,-1913.82,-218.14,560.12
16050,-3.8690,0.4896,-1.2727,-85.69,-1499.33,-689.94
16060,-3.8689,0.6705,-1.2947,-1320.07,1094.67,1997.50
16070,-3.8693,0.8811,-1.2764,1836.18,-1717.47,1200.56
16080,-3.8700,1.0664,-1.2118,789.31,626.71,1497.50
16090,-3.8708,1.1755,-1.1014,508.06,892.70,1185.12
16100,-3.8716,1.2012,-0.9584,-1523.19,-982.12,232.18
16110,-3.8719,1.1707,-0.8198,1758.06,1330.44,13.73
16120,-3.8719,1.1149,-0.7401,1851.81,-935.24,1560.85
16130,-3.8717,1.0731,-0.7389,-1288.82,1267.76,-1298.34
16140,-3.8715,1.0735,-0.7810,1367.43,1423.95,-392.09
16150,-3.8713,1.1090,-0.8112,1414.31,33.33,-1345.28
16160,-3.8715,1.1372,-0.8019,1961.18,174.01,-298.46
16170,-3.8716,1.1143,-0.7614,1570.56,1361.57,1982.79
16180,-3.8717,1.0339,-0.6985,-1366.94,-1450.99,29.72
16190,-3.8719,0.9257,-0.6184,351.81,-1404.24,-532.65
16200,-3.8719,0.8229,-0.5389,-1507.57,845.52,1045.65
16210,-3.8719,0.7407,-0.4867,1336.18,-982.79,1092.65
16220,-3.8719,0.6741,-0.4711,-1179.44,1704.53,-297.85
16230,-3.8718,0.6294,-0.4747,-1710.69,-295.59,-438.48
16240,-3.8717,0.6157,-0.4760,570.56,-764.40,-907.23
16250,-3.8716,0.6075,-0.4667,-1179.44,-920.72,-1360.35
16260,-3.8715,0.5833,-0.4683,1773.68,266.78,-985.29
16270,-3.8713,0.5599,-0.4833,-1335.69,63.60,-266.54
16280,-3.8712,0.5492,-0.4769,-320.07,-1858.34,-0.98
16290,-3.8711,0.5302,-0.4595,-1695.07,-1045.84,-1344.73
16300,-3.8711,0.4761,-0.4653,-132.57,1188.48,-797.79
16310,-3.8711,0.3833,-0.4912,945.56,438.42,-891.54
16320,-3.8710,0.2773,-0.5197,1070.56,1125.73,499.02
16330,-3.8710,0.1779,-0.5453,-491.94,1484.86,-126.04
16340,-3.8707,0.0717,-0.5664,-1226.32,-1796.57,14.53
16350,-3.8706,-0.0558,-0.5763,1179.93,-499.88,76.97
16360,-3.8705,-0.2039,-0.5808,867.43,-1750.12,326.97
16370,-3.8704,-0.3560,-0.5918,1914.31,1671.45,467.59
16380,-3.8702,-0.4794,-0.6000,-1554.44,264.89,764.47
16390,-3.8701,-0.5552,-0.5880,-1351.32,-782.23,780.03
16400,-3.8701,-0.6097,-0.5388,945.56,748.90,-1032.41
16410,-3.8701,-0.6963,-0.4537,1961.18,-954.35,-751.10
16420,-3.8701,-0.8386,-0.3569,-1116.94,1936.10,-1891.54
16430,-3.8701,-1.0289,-0.2590,664.31,-1673.52,405.52
16440,-3.8702,-1.2577,-0.1627,304.93,-1142.64,-531.80
16450,-3.8702,-1.5197,-0.0681,-976.32,-815.00,-1031.62
16460,-3.8702,-1.7914,0.0453,1492.43,-706.12,1734.19
16470,-3.8702,-2.0240,0.2054,-1288.82,1808.96,250.06
16480,-3.8704,-2.1971,0.4061,929.93,-1691.47,-1718.38
16490,-3.8705,-2.3094,0.6110,-1226.32,-4.33,1438.23
16500,-3.8707,-2.3485,0.7925,398.68,-1785.77,235.53
16510,-3.8712,-2.3215,0.9291,-601.32,1448.49,-1170.35
16520,-3.8717,-2.2488,1.0101,-1148.19,-1067.08,-716.98
16530,-3.8721,-2.1401,1.0410,164.31,1308.11,220.70
16540,-3.8726,-2.0018,1.0187,-1929.44,1261.41,-872.99
16550,-3.8728,-1.8439,0.9487,-226.32,-1597.72,1001.95
16560,-3.8730,-1.6781,0.8478,-7.57,1449.46,-1482.54
16570,-3.8730,-1.5195,0.7297,1211.18,527.95,157.90
16580,-3.8730,-1.3778,0.6119,1508.06,1418.88,-1701.72
16590,-3.8729,-1.2526,0.5087,-351.32,-1659.00,-389.47
16600,-3.8727,-1.1442,0.4257,-320.07,1122.50,1563.48
16610,-3.8726,-1.0596,0.3572,1554.93,-1502.26,-999.21
16620,-3.8723,-1.0077,0.2864,383.06,1732.30,1000.67
16630,-3.8721,-0.9752,0.2041,-976.32,669.86,750.55
16640,-3.8718,-0.9369,0.1100,-820.07,-1861.33,-249.63
16650,-3.8713,-0.9092,-0.0118,86.18,-1908.08,437.68
16660,-3.8711,-0.9011,-0.1572,-366.94,-1501.83,-984.44
16670,-3.8707,-0.9042,-0.2982,664.31,-111.15,1593.38
16680,-3.8704,-0.9280,-0.4196,273.68,1841.98,1186.89
16690,-3.8700,-0.9290,-0.5315,1226.81,-1689.33,14.77
16700,-3.8698,-0.8489,-0.6487,1101.81,-17.46,358.28
16710,-3.8696,-0.6914,-0.7838,-648.19,982.67,264.34
16720,-3.8696,-0.4971,-0.9496,-491.94,-313.90,639.04
16730,-3.8698,-0.3131,-1.1465,383.06,-1532.23,-1517.52
16740,-3.8699,-0.1387,-1.3530,-70.07,1264.95,-189.76
16750,-3.8699,0.0756,-1.4963,-1741.94,-1172.18,1747.31
16760,-3.8700,0.3345,-1.5092,1679.93,468.87,-1471.68
16770,-3.8701,0.5742,-1.4277,-1179.44,-1171.26,1278.26
16780,-3.8704,0.7428,-1.3448,1508.06,1251.10,1215.94
16790,-3.8707,0.8729,-1.2723,-913.82,-139.22,-455.81
16800,-3.8710,1.0356,-1.1724,-257.57,1142.27,-1455.63
16810,-3.8712,1.2278,-1.0695,570.56,1939.51,1653.93
16820,-3.8716,1.3901,-0.9844,1164.31,-888.24,-689.64
16830,-3.8718,1.4911,-0.9000,1945.56,-1997.31,13.67
16840,-3.8722,1.5358,-0.8202,-1132.57,799.74,-1673.65
16850,-3.8724,1.5541,-0.7655,586.18,-981.38,-470.40
16860,-3.8726,1.5708,-0.7485,-1070.07,-1981.38,-1142.15
16870,-3.8727,1.5929,-0.7400,1070.56,190.55,-454.59
16880,-3.8727,1.6034,-0.6895,-101.32,1284.30,1748.54
16890,-3.8728,1.5701,-0.6040,1242.43,-246.89,-126.40
16900,-3.8728,1.4869,-0.5311,976.81,-1309.45,623.78
16910,-3.8729,1.3773,-0.4884,-1663.82,18.49,1686.46
16920,-3.8729,1.2690,-0.4669,304.93,1487.06,483.40
16930,-3.8729,1.1838,-0.4625,-1554.44,236.82,61.58
16940,-3.8730,1.1167,-0.4932,-460.69,799.13,-454.04
16950,-3.8729,1.0662,-0.5349,-1054.44,877.14,545.90
16960,-3.8728,1.0391,-0.5415,476.81,-466.67,217.65
16970,-3.8727,1.0249,-0.5420,1008.06,-1310.49,-1282.35
16980,-3.8723,1.0127,-0.5620,-804.44,-1373.05,14.53
16990,-3.8721,0.9673,-0.5854,1633.06,64.45,-1282.35
17000,-3.8717,0.8549,-0.6151,-179.44,1064.33,76.97
17010,-3.8716,0.7256,-0.6257,1429.93,1267.27,1951.90
17020,-3.8715,0.6614,-0.5902,883.06,-92.35,623.72
17030,-3.8715,0.6736,-0.5540,664.31,454.41,-1704.28
17040,-3.8715,0.7006,-0.5763,-1773.19,1095.03,-376.10
17050,-3.8713,0.6777,-0.6655,1679.93,-1764.28,1045.72
17060,-3.8712,0.5983,-0.7607,-1241.94,-1186.22,1123.66
17070,-3.8711,0.4977,-0.8086,586.18,-1373.84,-642.15
17080,-3.8708,0.3925,-0.8284,-288.82,500.92,139.04
17090,-3.8708,0.2653,-0.8263,-1757.57,1969.48,-1923.52
17100,-3.8708,0.0857,-0.7769,1961.18,-1765.14,-1611.02
17110,-3.8708,-0.1644,-0.6927,-1023.19,562.62,-454.65
17120,-3.8707,-0.4779,-0.6045,-1038.82,-656.62,-735.78
17130,-3.8705,-0.8066,-0.5082,-1163.82,-1360.35,1342.53
17140,-3.8702,-1.0695,-0.3827,758.06,-1032.84,1639.59
17150,-3.8699,-1.2463,-0.2278,-882.57,-970.89,483.58
17160,-3.8695,-1.3969,-0.0555,476.81,-1143.07,562.01
17170,-3.8693,-1.5718,0.1117,1211.18,903.50,-1484.50
17180,-3.8690,-1.7725,0.2526,-1179.44,-1690.61,1468.93
17190,-3.8689,-1.9792,0.3687,1133.06,340.27,-718.26
17200,-3.8688,-2.1454,0.4956,-1335.69,-800.78,-671.20
17210,-3.8688,-2.2256,0.6510,1398.68,-551.09,-592.83
17220,-3.8689,-2.2386,0.7903,-866.94,-660.64,-1670.65
17230,-3.8693,-2.2150,0.8768,1461.18,1167.48,-60.97
17240,-3.8696,-2.1519,0.9139,492.43,245.67,-1842.04
17250,-3.8700,-2.0596,0.9021,570.56,995.79,189.27
17260,-3.8705,-1.9780,0.8434,383.06,-519.65,-1045.17
17270,-3.8708,-1.8842,0.8036,-1179.44,-35.16,1.59
17280,-3.8715,-1.7167,0.8235,-1163.82,-1128.72,-873.47
17290,-3.8718,-1.5127,0.8514,273.68,1418.52,235.96
17300,-3.8722,-1.3561,0.8569,-1616.94,997.01,814.15
17310,-3.8726,-1.2625,0.8528,-1570.07,1700.44,-201.48
17320,-3.8727,-1.2067,0.8130,-1585.69,1169.37,1517.27
17330,-3.8728,-1.1653,0.6978,1554.93,75.74,-451.54
17340,-3.8727,-1.1008,0.5255,-1148.19,1325.81,-1326.78
17350,-3.8724,-1.0084,0.3311,-898.19,-720.95,-92.77
17360,-3.8719,-0.9297,0.1208,-1070.07,-1611.39,-296.26
17370,-3.8712,-0.8835,-0.0911,1008.06,-517.46,156.43
17380,-3.8706,-0.8578,-0.2814,-1085.69,357.60,-1640.81
17390,-3.8700,-0.8408,-0.4409,-1788.82,-1.71,-1094.36
17400,-3.8695,-0.8025,-0.5752,383.06,-423.52,-1235.29
17410,-3.8691,-0.7125,-0.6926,1289.31,-1610.96,967.59
17420,-3.8690,-0.5887,-0.7961,804.93,-642.03,1998.60
17430,-3.8690,-0.4495,-0.8765,648.68,-1891.78,-1298.46
17440,-3.8691,-0.2963,-0.9044,-1523.19,-172.79,-126.77
17450,-3.8693,-0.1516,-0.8756,-1913.82,249.39,1420.10
17460,-3.8696,-0.0369,-0.8240,601.81,-62.81,-1767.40
17470,-3.8701,0.0568,-0.7830,-710.69,-1453.25,-1329.77
17480,-3.8706,0.1504,-0.7672,-726.32,-218.69,1857.79
17490,-3.8711,0.2366,-0.7935,-741.94,1797.12,-298.40
17500,-3.8713,0.3041,-0.8699,-1710.69,-1562.07,-626.59
17510,-3.8713,0.3778,-0.9595,-1070.07,656.80,1701.42
17520,-3.8712,0.4913,-1.0211,367.43,1188.23,1341.86
17530,-3.8710,0.6588,-1.0548,-1101.32,1297.79,591.74
17540,-3.8707,0.8711,-1.0874,336.18,985.66,-1939.58
17550,-3.8705,1.1058,-1.1211,-491.94,814.15,-377.14
17560,-3.8702,1.3330,-1.1340,1554.93,502.14,1794.68
17570,-3.8702,1.5305,-1.1196,-1366.94,-1153.69,-1892.88
17580,-3.8704,1.6814,-1.0790,-85.69,690.43,482.18
17590,-3.8707,1.7446,-1.0410,-773.19,1893.86,-877.14
17600,-3.8710,1.7021,-1.0375,-679.44,-1246.64,419.80
17610,-3.8713,1.6012,-1.0200,1883.06,-793.58,-1580.20
17620,-3.8716,1.4854,-0.9524,961.18,1440.61,-861.39
17630,-3.8716,1.3687,-0.8718,-1866.94,-1903.38,60.61
17640,-3.8716,1.2672,-0.8123,-804.44,408.87,576.42
17650,-3.8716,1.1854,-0.7811,-1788.82,33.69,1654.66
17660,-3.8716,1.1178,-0.7751,-257.57,17.88,1748.47
17670,-3.8716,1.0596,-0.7834,-913.82,783.39,1732.85
17680,-3.8716,0.9850,-0.7968,-366.94,-279.24,1685.91
17690,-3.8716,0.8831,-0.7991,-1913.82,-1982.48,1326.54
17700,-3.8716,0.7819,-0.7688,1039.31,1720.46,-1860.96
17710,-3.8715,0.7024,-0.7203,86.18,1595.28,107.85
17720,-3.8715,0.6360,-0.6881,1914.31,-201.78,1154.79
17730,-3.8715,0.5677,-0.6824,1414.31,-76.90,967.35
17740,-3.8715,0.4889,-0.7001,679.93,657.35,467.41
17750,-3.8716,0.3976,-0.7426,-1413.82,-1608.46,-157.65
17760,-3.8716,0.3069,-0.8047,-1101.32,953.86,-735.84
17770,-3.8716,0.2166,-0.8680,-710.69,1000.55,-1532.84
17780,-3.8716,0.0939,-0.8990,-273.19,890.99,1654.54
17790,-3.8716,-0.1121,-0.8707,23.68,922.06,-1658.02
17800,-3.8715,-0.4254,-0.7759,1664.31,562.26,1420.17
17810,-3.8713,-0.8175,-0.6183,1554.93,702.27,-1673.40
17820,-3.8711,-1.2316,-0.4097,-632.57,873.35,1717.53
17830,-3.8707,-1.5973,-0.1814,-1632.57,-424.32,249.15
17840,-3.8705,-1.8600,0.0234,-445.07,793.70,-1562.87
17850,-3.8702,-2.0116,0.2004,1929.93,-988.04,125.00
17860,-3.8702,-2.1062,0.3856,-1476.32,1667.91,1203.49
17870,-3.8704,-2.2100,0.6064,-1585.69,1370.85,-827.39
17880,-3.8705,-2.3311,0.8600,1133.06,1636.29,-1045.72
17890,-3.8706,-2.4474,1.1089,1633.06,-1910.83,1314.15
17900,-3.8708,-2.5507,1.2950,-1257.57,1948.30,-622.86
17910,-3.8710,-2.6385,1.3749,1523.68,1776.25,1971.25
17920,-3.8711,-2.6980,1.3695,-1726.32,-5.19,18.25
17930,-3.8715,-2.6885,1.3422,-1335.69,-692.81,-497.38
17940,-3.8717,-2.5765,1.3083,-116.94,-192.81,1315.06
17950,-3.8719,-2.3804,1.2350,-1788.82,-520.69,986.88
17960,-3.8721,-2.1471,1.1127,-679.44,-1910.95,1096.13
17970,-3.8721,-1.9213,0.9700,1179.93,-1566.71,1502.14
17980,-3.8721,-1.7280,0.8291,-1913.82,168.09,-607.48
17990,-3.8721,-1.5717,0.6913,-1179.44,-1862.79,-279.66
18000,-3.8721,-1.4504,0.5635,-1163.82,496.89,-1904.91
18010,-3.8721,-1.3573,0.4482,-1648.19,137.76,1.10
18020,-3.8722,-1.2754,0.3387,-1726.32,1387.94,-1077.27
18030,-3.8722,-1.1882,0.2191,758.06,-627.50,-15.01
18040,-3.8721,-1.0846,0.0670,-85.69,60.12,-593.32
18050,-3.8718,-0.9487,-0.1045,1179.93,591.61,1234.50
18060,-3.8716,-0.7883,-0.2633,-1429.44,-1361.27,1812.26
18070,-3.8713,-0.6484,-0.4066,-898.19,-1689.09,-63.05
18080,-3.8710,-0.5592,-0.5443,1008.06,-32.53,1217.90
18090,-3.8707,-0.5017,-0.6709,429.93,-1657.35,530.15
18100,-3.8706,-0.4297,-0.7635,-210.69,-1860.41,-657.59
18110,-3.8704,-0.3180,-0.8191,1008.06,-1719.60,-173.40
18120,-3.8701,-0.1671,-0.8634,-695.07,-828.80,-579.77
18130,-3.8700,0.0103,-0.9091,-1382.57,1499.63,-1876.71
18140,-3.8700,0.1814,-0.9454,1320.56,-359.38,404.42
18150,-3.8701,0.3210,-0.9706,-773.19,-1015.32,1029.36
18160,-3.8702,0.4403,-0.9722,1101.81,-233.76,1935.55
18170,-3.8704,0.5514,-0.9417,367.43,-436.65,1498.05
18180,-3.8706,0.6595,-0.9222,-1413.82,-530.21,-423.77
18190,-3.8707,0.7739,-0.9401,429.93,1954.41,-611.21
18200,-3.8707,0.8840,-0.9758,-929.44,-326.66,-939.39
18210,-3.8706,0.9706,-1.0101,1164.31,-904.54,-48.83
18220,-3.8702,1.0260,-1.0126,242.43,-1294.98,1497.99
18230,-3.8700,1.0675,-0.9720,-663.82,-1607.42,-377.01
18240,-3.8698,1.1139,-0.9122,648.68,-419.80,1826.17
18250,-3.8698,1.1675,-0.8711,-1413.82,-763.49,-486.21
18260,-3.8698,1.2289,-0.8696,1445.56,502.26,-1267.33
18270,-3.8699,1.2990,-0.8579,1304.93,689.88,-17.33
18280,-3.8700,1.3560,-0.7917,-1726.32,-1810.00,1888.92
18290,-3.8704,1.3806,-0.6865,1570.56,-1341.13,-1376.59
18300,-3.8708,1.3776,-0.5782,726.81,127.69,-1641.97
18310,-3.8713,1.3464,-0.4984,336.18,1987.06,233.22
18320,-3.8718,1.2916,-0.4524,351.81,205.75,702.15
18330,-3.8722,1.2228,-0.4275,1336.18,-1903.75,-1454.04
18340,-3.8723,1.1470,-0.4149,523.68,1283.63,1327.27
18350,-3.8724,1.0725,-0.4093,-1179.44,-1107.18,-328.98
18360,-3.8723,0.9982,-0.4318,1289.31,-388.55,717.90
18370,-3.8722,0.9244,-0.4930,-226.32,736.27,717.90
18380,-3.8719,0.8657,-0.5499,-1663.82,892.40,1233.40
18390,-3.8716,0.8262,-0.5698,-1179.44,1611.02,1748.90
18400,-3.8712,0.7921,-0.5664,1758.06,-935.91,1576.97
18410,-3.8710,0.7378,-0.5750,1398.68,-498.47,686.34
18420,-3.8710,0.6509,-0.6005,-1554.44,-1592.35,-1329.28
18430,-3.8710,0.5547,-0.6066,-679.44,-858.15,1842.53
18440,-3.8710,0.4677,-0.5842,-991.94,-1639.59,311.28
18450,-3.8711,0.3738,-0.5703,-132.57,1219.60,1920.72
18460,-3.8712,0.2539,-0.5991,-148.19,-999.33,-1016.78
18470,-3.8712,0.1293,-0.6490,508.06,-687.01,1451.90
18480,-3.8712,0.0366,-0.6569,554.93,922.12,-1751.28
18490,-3.8711,-0.0410,-0.6136,695.56,-78.06,248.66
18500,-3.8711,-0.1732,-0.5842,-1241.94,1468.63,-532.47
18510,-3.8708,-0.3759,-0.5962,1836.18,1234.01,1576.97
18520,-3.8706,-0.5920,-0.5879,-101.32,-297.67,-94.97
18530,-3.8701,-0.7959,-0.4976,226.81,764.47,1092.59
18540,-3.8698,-0.9967,-0.3240,-1866.94,326.54,420.90
18550,-3.8696,-1.1964,-0.1222,429.93,-1455.08,-1688.17
18560,-3.8696,-1.3960,0.0509,-1132.57,372.62,-1109.62
18570,-3.8698,-1.5972,0.1882,1320.56,-1471.50,-234.31
18580,-3.8699,-1.7988,0.3024,-429.44,106.20,-1515.26
18590,-3.8700,-2.0027,0.3904,1758.06,-1284.79,156.80
18600,-3.8702,-2.1824,0.4686,-335.69,1980.41,-1811.77
18610,-3.8704,-2.2871,0.5724,664.31,-4.27,1750.85
18620,-3.8705,-2.3008,0.6896,-741.94,1276.73,1797.97
18630,-3.8706,-2.2472,0.7712,1508.06,276.73,860.72
18640,-3.8708,-2.1575,0.7952,367.43,-1270.02,-1467.29
18650,-3.8711,-2.0499,0.7797,-148.19,1792.60,-420.35
18660,-3.8712,-1.9357,0.7498,1617.43,-191.53,1329.59
18670,-3.8713,-1.8263,0.7145,242.43,-19.41,548.28
18680,-3.8715,-1.7292,0.6620,-1757.57,-534.85,1548.22
18690,-3.8715,-1.6396,0.5802,-1335.69,746.58,938.78
18700,-3.8715,-1.5448,0.4865,-1866.94,-1721.98,-561.40
18710,-3.8712,-1.4473,0.4004,-1726.32,-1721.80,719.67
18720,-3.8711,-1.3596,0.3171,-1241.94,-737.24,-561.77
18730,-3.8708,-1.2760,0.2365,1976.81,606.69,-1843.14
18740,-3.8706,-1.1815,0.1626,679.93,-1721.25,31.68
18750,-3.8705,-1.0793,0.0928,773.68,825.81,640.93
18760,-3.8705,-0.9854,0.0209,1851.81,-111.51,-812.38
18770,-3.8705,-0.9001,-0.0494,1883.06,-1314.45,-609.38
18780,-3.8705,-0.8184,-0.1012,789.31,1685.73,-1953.25
18790,-3.8706,-0.7380,-0.1305,-741.94,-939.15,-125.24
18800,-3.8706,-0.6591,-0.1484,1539.31,-688.96,1093.44
18810,-3.8707,-0.5846,-0.1665,-351.32,1014.28,1468.44
18820,-3.8708,-0.5089,-0.1846,1179.93,-1298.03,421.51
18830,-3.8711,-0.4296,-0.2084,-1132.57,389.59,1609.01
18840,-3.8713,-0.3516,-0.2612,1023.68,1342.90,1499.57
18850,-3.8716,-0.2655,-0.3370,-991.94,-1422.61,1468.20
18860,-3.8718,-0.1581,-0.3955,-1976.32,874.45,-531.92
18870,-3.8719,-0.0444,-0.4319,-226.32,1390.26,-47.67
18880,-3.8719,0.0544,-0.4714,-1679.44,734.25,1139.77
18890,-3.8721,0.1484,-0.5115,-1023.19,-343.69,-1657.23
18900,-3.8721,0.2693,-0.5408,-991.94,-1468.51,686.46
18910,-3.8721,0.4305,-0.5667,-1523.19,-1218.26,1389.53
18920,-3.8721,0.5981,-0.5961,-882.57,-530.46,-594.91
18930,-3.8719,0.7102,-0.6273,570.56,-295.72,1248.78
18940,-3.8718,0.7426,-0.6671,-1085.69,-295.53,998.72
18950,-3.8716,0.7274,-0.7488,-945.07,-1389.22,1233.03
18960,-3.8712,0.7086,-0.8717,1117.43,157.65,-798.34
18970,-3.8706,0.7057,-0.9850,-1288.82,423.22,-423.58
18980,-3.8699,0.7260,-1.0604,-1663.82,1923.22,-1830.08
18990,-3.8694,0.7799,-1.0740,929.93,267.03,-1002.08
19000,-3.8691,0.8594,-1.0153,-163.82,-1467.29,-1752.14
19010,-3.8691,0.9458,-0.9226,-1991.94,-1951.48,1966.74
19020,-3.8693,1.0259,-0.8396,1070.56,1908.08,1357.54
19030,-3.8695,1.0774,-0.7843,-679.44,533.20,1701.48
19040,-3.8699,1.0806,-0.7528,1914.31,-388.55,-17.21
19050,-3.8701,1.0358,-0.7228,-1679.44,-357.30,-1314.03
19060,-3.8702,0.9615,-0.6736,586.18,-513.61,1217.29
19070,-3.8704,0.8893,-0.6008,-913.82,1783.08,-329.47
19080,-3.8704,0.8407,-0.5190,1836.18,-904.54,1655.03
19090,-3.8706,0.8156,-0.4512,-382.57,1564.09,-251.04
19100,-3.8708,0.8046,-0.4048,398.68,-1748.41,-1329.04
19110,-3.8711,0.7972,-0.3702,-1007.57,189.03,-1032.04
19120,-3.8712,0.7914,-0.3329,-1945.07,610.90,-156.98
19130,-3.8711,0.7892,-0.2953,1304.93,1392.15,202.45
19140,-3.8711,0.7899,-0.2626,1023.68,-1795.35,-1875.61
19150,-3.8710,0.7977,-0.2372,1117.43,-1607.85,827.58
19160,-3.8708,0.8140,-0.2291,-1882.57,1642.15,249.51
19170,-3.8707,0.8330,-0.2372,195.56,-1326.54,1983.89
19180,-3.8705,0.8455,-0.2555,-1366.94,1642.21,-1109.86
19190,-3.8701,0.8350,-0.2902,226.81,-701.48,843.20
19200,-3.8699,0.7869,-0.3455,-1116.94,-1139.04,811.89
19210,-3.8698,0.6958,-0.4222,726.81,-217.22,1280.52
19220,-3.8698,0.5674,-0.5232,1070.56,1954.47,-1860.23
19230,-3.8698,0.4110,-0.6354,633.06,1032.35,155.21
19240,-3.8699,0.2252,-0.7190,617.43,-1327.33,-1891.91
19250,-3.8699,0.0021,-0.7461,836.18,-30.82,-63.96
19260,-3.8696,-0.2550,-0.7313,273.68,500.00,-688.96
19270,-3.8693,-0.5131,-0.7034,-632.57,-1594.30,936.04
19280,-3.8691,-0.7131,-0.6744,-1663.82,1983.34,-563.90
19290,-3.8691,-0.8300,-0.6401,726.81,1686.10,-298.22
19300,-3.8693,-0.9020,-0.5898,1773.68,-1923.52,-1860.66
19310,-3.8695,-0.9872,-0.5194,554.93,513.85,1108.22
19320,-3.8699,-1.1056,-0.4412,1648.68,1529.30,-985.41
19330,-3.8701,-1.2437,-0.3533,-1507.57,-455.32,1514.71
19340,-3.8704,-1.3876,-0.2396,820.56,-1205.57,874.27
19350,-3.8707,-1.5278,-0.1084,-1601.32,1341.00,-297.36
19360,-3.8710,-1.6688,0.0273,445.56,-1862.37,1390.38
19370,-3.8713,-1.8151,0.1682,-1601.32,-487.67,-750.00
19380,-3.8716,-1.9497,0.3048,-320.07,1543.27,-1468.44
19390,-3.8717,-2.0439,0.4230,-1554.44,-972.60,469.30
19400,-3.8718,-2.0828,0.5187,-1616.94,-1847.78,1875.79
19410,-3.8718,-2.0740,0.5931,1414.31,-1597.84,1125.98
19420,-3.8719,-2.0355,0.6387,-1460.69,-66.59,-311.40
19430,-3.8719,-1.9794,0.6429,-538.82,1761.60,766.85
19440,-3.8721,-1.9032,0.6205,-1351.32,-1691.41,688.72
19450,-3.8722,-1.7999,0.5894,398.68,-566.22,266.78
19460,-3.8723,-1.6759,0.5535,1617.43,-550.42,751.10
19470,-3.8724,-1.5486,0.5155,1492.43,-1143.92,-1811.46
19480,-3.8726,-1.4247,0.4734,1789.31,1996.95,-280.27
19490,-3.8726,-1.3030,0.4368,1648.68,606.57,1860.29
19500,-3.8726,-1.1870,0.4155,1226.81,-80.69,1360.17
19510,-3.8726,-1.0873,0.3986,70.56,1200.81,-1358.58
19520,-3.8724,-1.0089,0.3704,836.18,-970.89,1797.61
19530,-3.8723,-0.9393,0.3289,-1132.57,-580.14,1969.42
19540,-3.8722,-0.8658,0.2787,-226.32,-1892.52,-1358.76
19550,-3.8721,-0.7878,0.2153,1179.93,-314.21,-218.26
19560,-3.8718,-0.6990,0.1404,-835.69,-423.46,1937.87
19570,-3.8716,-0.5930,0.0706,-1460.69,1982.97,1687.74
19580,-3.8713,-0.4775,0.0121,101.81,1045.72,-1765.50
19590,-3.8711,-0.3669,-0.0463,-1116.94,1561.52,1828.12
19600,-3.8710,-0.2695,-0.1162,1039.31,-1906.98,-62.62
19610,-3.8707,-0.1859,-0.1915,1508.06,1140.08,1140.38
19620,-3.8706,-0.1116,-0.2452,211.18,-500.37,-1828.55
19630,-3.8704,-0.0411,-0.2717,1726.81,624.76,15.14
19640,-3.8702,0.0201,-0.2982,-1257.57,1234.25,-109.92
19650,-3.8699,0.0753,-0.3337,-1413.82,1828.12,1749.39
19660,-3.8696,0.1439,-0.3568,1648.68,1281.37,-1156.92
19670,-3.8694,0.2355,-0.3597,-1570.07,-1671.63,171.14
19680,-3.8694,0.3386,-0.3740,-1851.32,1953.55,1733.64
19690,-3.8694,0.4406,-0.4326,-648.19,125.61,1468.02
19700,-3.8694,0.5433,-0.5049,398.68,625.85,1233.52
19710,-3.8694,0.6422,-0.5460,1554.93,-623.96,-1938.54
19720,-3.8694,0.7224,-0.5697,-1788.82,-1889.40,-204.22
19730,-3.8693,0.7891,-0.5959,476.81,-920.47,-1469.91
19740,-3.8691,0.8588,-0.6199,1008.06,-279.72,1686.28
19750,-3.8691,0.9402,-0.6445,1929.93,657.90,-954.35
19760,-3.8691,1.0322,-0.6853,351.81,1501.83,858.09
19770,-3.8694,1.1362,-0.7356,133.06,283.26,-985.72
19780,-3.8696,1.2444,-0.7703,1445.56,1845.95,-1485.84
19790,-3.8699,1.3354,-0.7809,-710.69,1408.63,623.47
19800,-3.8702,1.3989,-0.7689,-1054.44,49.44,1889.10
19810,-3.8706,1.4325,-0.7349,-929.44,1580.81,-1423.40
19820,-3.8710,1.4340,-0.6823,-632.57,1940.25,-610.84
19830,-3.8712,1.4116,-0.6149,-445.07,674.62,1483.03
19840,-3.8715,1.3756,-0.5402,695.56,1299.62,1326.90
19850,-3.8717,1.3169,-0.4772,86.18,-1137.94,1608.28
19860,-3.8719,1.2239,-0.4414,570.56,-1075.56,1202.15
19870,-3.8722,1.1121,-0.4231,664.31,-497.62,1030.33
19880,-3.8724,1.0026,-0.4060,-1648.19,1845.89,-563.35
19890,-3.8724,0.8965,-0.3960,336.18,33.20,-1719.54
19900,-3.8723,0.7847,-0.3949,-1241.94,1314.21,1405.46
19910,-3.8722,0.6603,-0.3878,445.56,1454.65,-985.17
19920,-3.8719,0.5166,-0.3822,523.68,-1639.34,1874.21
19930,-3.8717,0.3632,-0.3911,-1866.94,-920.90,-1516.42
19940,-3.8713,0.2325,-0.4004,-1507.57,1938.17,311.71
19950,-3.8711,0.1404,-0.3999,1773.68,750.43,217.96
19960,-3.8711,0.0629,-0.3883,1976.81,812.74,-94.54
19970,-3.8710,-0.0377,-0.3623,54.93,-1703.00,1014.83
19980,-3.8710,-0.1866,-0.3241,-820.07,1640.50,-766.36
19990,-3.8708,-0.3817,-0.2853,117.43,-1469.12,-63.17
20000,-3.8706,-0.5911,-0.2566,-851.32,-500.79,-1266.24
20010,-3.8704,-0.7882,-0.2258,351.81,-829.28,-1609.92
20020,-3.8701,-0.9530,-0.1809,-882.57,-892.21,187.01
20030,-3.8701,-1.0608,-0.1360,-1976.32,857.48,-1531.62
20040,-3.8701,-1.1006,-0.1053,226.81,-1392.70,1859.07
20050,-3.8702,-1.0814,-0.0813,-866.94,-1470.95,-578.37
20060,-3.8704,-1.0292,-0.0526,1586.18,1607.24,-468.93
20070,-3.8705,-0.9808,-0.0284,273.68,1279.24,-1890.75
20080,-3.8707,-0.9537,-0.0144,-1538.82,373.05,-265.69
20090,-3.8708,-0.9425,0.0057,1929.93,-1830.02,1062.44
20100,-3.8711,-0.9633,0.0635,-632.57,748.11,1375.00
20110,-3.8715,-1.0575,0.1832,711.18,138.73,-578.00
20120,-3.8717,-1.2209,0.3334,648.68,-533.33,219.06
20130,-3.8721,-1.3903,0.4747,-273.19,-1314.94,-1265.01
20140,-3.8722,-1.5286,0.6096,-1945.07,778.50,797.79
20150,-3.8723,-1.6414,0.7467,351.81,-1956.12,-1576.97
20160,-3.8723,-1.7312,0.8817,1914.31,-409.48,1579.53
20170,-3.8723,-1.7910,1.0000,-1585.69,871.58,704.83
20180,-3.8723,-1.8208,1.0881,-1241.94,12.08,439.45
20190,-3.8723,-1.8190,1.1349,-1054.44,-706.73,1158.33
20200,-3.8723,-1.7756,1.1199,-820.07,1277.65,-294.68
20210,-3.8721,-1.6870,1.0452,726.81,-644.10,799.01
20220,-3.8719,-1.5746,0.9453,70.56,1793.58,-1326.11
20230,-3.8718,-1.4733,0.8488,-1538.82,1012.51,-748.17
20240,-3.8717,-1.3907,0.7698,-570.07,653.32,-1295.23
20250,-3.8716,-1.3118,0.7047,1992.43,-1455.87,-436.04
20260,-3.8713,-1.2335,0.6381,101.81,-1783.81,-1623.66
20270,-3.8711,-1.1635,0.5688,-1882.57,1685.06,204.35
20280,-3.8711,-1.1014,0.5050,-913.82,825.81,-998.90
20290,-3.8711,-1.0430,0.4473,-976.32,654.05,-452.15
20300,-3.8711,-0.9872,0.3845,-1491.94,1263.55,-749.15
20310,-3.8711,-0.9319,0.2948,1648.68,1232.42,-577.39
20320,-3.8710,-0.8776,0.1744,726.81,1748.17,1828.67
20330,-3.8708,-0.8270,0.0397,-320.07,-1658.02,-140.32
20340,-3.8705,-0.7803,-0.1036,-1851.32,1092.10,1859.44
20350,-3.8701,-0.7289,-0.2455,133.06,-1251.53,-1609.62
20360,-3.8698,-0.6533,-0.3544,-1288.82,592.29,-703.61
20370,-3.8694,-0.5420,-0.4208,383.06,-1345.03,1139.89
20380,-3.8693,-0.3970,-0.4652,-1366.94,-1844.85,514.77
20390,-3.8694,-0.2283,-0.5089,1195.56,467.96,1483.46
20400,-3.8696,-0.0524,-0.5587,-1210.69,-1125.49,-1157.29
20410,-3.8699,0.1078,-0.6046,1304.93,499.88,-1188.60
20420,-3.8701,0.2375,-0.6453,1804.93,-1390.44,1983.15
20430,-3.8704,0.3430,-0.6899,-1585.69,1406.68,1186.22
20440,-3.8706,0.4447,-0.7527,-85.69,-311.89,-1720.15
20450,-3.8707,0.5704,-0.8433,929.93,-342.90,-860.90
20460,-3.8706,0.7450,-0.9454,1023.68,63.60,29.60
20470,-3.8706,0.9648,-1.0347,-632.57,-1014.22,-220.64
20480,-3.8704,1.1943,-1.1036,-491.94,-435.67,1122.92
20490,-3.8702,1.3944,-1.1655,883.06,-1263.31,-1314.70
20500,-3.8701,1.5475,-1.2369,-1507.57,-1184.81,-1361.69
20510,-3.8700,1.6631,-1.3065,-1913.82,1674.87,1013.18
20520,-3.8700,1.7426,-1.3459,883.06,768.86,-1768.19
20530,-3.8700,1.7717,-1.3250,-945.07,-277.89,637.94
20540,-3.8702,1.7404,-1.2343,-1210.69,-1590.33,-1393.25
20550,-3.8706,1.6477,-1.1068,-1226.32,-1981.02,-471.19
20560,-3.8711,1.5062,-0.9867,-1085.69,-1668.70,-299.07
20570,-3.8716,1.3386,-0.8861,804.93,1706.05,482.42
20580,-3.8722,1.1663,-0.7913,-648.19,-1419.31,1513.85
20590,-3.8727,1.0038,-0.7001,1289.31,-1278.99,-407.84
20600,-3.8728,0.8710,-0.6208,492.43,-1607.42,779.85
20610,-3.8729,0.7794,-0.5671,-507.57,532.90,-282.47
20620,-3.8728,0.7251,-0.5414,-226.32,-592.29,-1641.78
20630,-3.8727,0.6921,-0.5278,820.56,-1295.47,-485.47
20640,-3.8724,0.6576,-0.5162,601.81,438.84,-1563.54
20650,-3.8722,0.6025,-0.4960,179.93,1923.16,-1922.91
20660,-3.8719,0.5043,-0.4580,1133.06,516.78,983.40
20670,-3.8718,0.3438,-0.3942,554.93,1375.98,-1094.67
20680,-3.8716,0.1239,-0.2860,8.06,1547.55,889.83
20690,-3.8715,-0.1351,-0.1365,-132.57,-609.19,-734.99
20700,-3.8712,-0.4022,0.0264,-1288.82,-1453.43,-1797.18
20710,-3.8710,-0.6476,0.1808,523.68,-610.17,1515.62
20720,-3.8707,-0.8593,0.3142,1117.43,-845.03,437.81
20730,-3.8706,-1.0447,0.4136,-1976.32,232.67,-749.39
20740,-3.8702,-1.2111,0.4850,-1710.69,951.05,375.79
20750,-3.8699,-1.3499,0.5526,992.43,-1908.63,610.29
20760,-3.8696,-1.4574,0.6323,-773.19,-1252.69,-452.09
20770,-3.8694,-1.5516,0.7184,1461.18,950.26,235.60
20780,-3.8695,-1.6451,0.7977,1398.68,-34.30,-1358.03
20790,-3.8696,-1.7288,0.8701,1429.93,-1878.23,1798.40
20800,-3.8698,-1.7880,0.9277,-1273.19,-612.79,345.40
20810,-3.8700,-1.8214,0.9553,-851.32,-1237.92,-826.35
20820,-3.8701,-1.8373,0.9564,-1132.57,-1706.73,-1951.29
20830,-3.8702,-1.8346,0.9512,836.18,-1566.10,1798.71
20840,-3.8704,-1.8114,0.9492,1179.93,1762.02,-1529.42
20850,-3.8705,-1.7599,0.9412,148.68,1512.08,-1623.17
20860,-3.8706,-1.6631,0.9187,-1257.57,480.90,1251.83
20870,-3.8708,-1.5200,0.8754,-866.94,1606.08,-138.85
20880,-3.8710,-1.3503,0.8129,1445.56,59.51,-1763.92
20890,-3.8712,-1.1874,0.7472,-835.69,59.81,-107.79
20900,-3.8713,-1.0590,0.6821,23.68,-346.07,860.78
20910,-3.8716,-0.9668,0.6118,461.18,-673.95,-1295.59
20920,-3.8717,-0.8917,0.5331,258.06,-1673.77,-983.22
20930,-3.8717,-0.8199,0.4392,1867.43,248.23,1485.41
20940,-3.8717,-0.7469,0.3303,-945.07,232.73,578.98
20950,-3.8718,-0.6636,0.2136,398.68,-1704.59,-390.01
20960,-3.8718,-0.5677,0.1027,-929.44,-641.97,-1405.88
20970,-3.8718,-0.4719,0.0065,-663.82,1155.09,1484.56
20980,-3.8718,-0.3933,-0.0858,-398.19,842.77,218.75
20990,-3.8719,-0.3451,-0.1716,1664.31,1030.46,-468.93
21000,-3.8718,-0.3145,-0.2336,-163.82,-1953.86,1124.63
21010,-3.8717,-0.2732,-0.2803,-241.94,-1891.30,1890.14
21020,-3.8715,-0.2087,-0.3340,1039.31,140.08,796.33
21030,-3.8712,-0.1250,-0.4020,1289.31,1265.20,358.70
21040,-3.8711,-0.0332,-0.4771,8.06,562.26,-985.17
21050,-3.8708,0.0642,-0.5549,-241.94,-1047.00,467.77
21060,-3.8707,0.1781,-0.6313,226.81,968.87,-1688.60
21070,-3.8705,0.3160,-0.6871,-1195.07,-812.19,1154.97
21080,-3.8704,0.4681,-0.7156,461.18,47.49,-876.34
21090,-3.8702,0.6229,-0.7389,-70.07,407.10,-1501.40
21100,-3.8701,0.7772,-0.7773,-257.57,1423.03,45.41
21110,-3.8701,0.9271,-0.8207,-507.57,501.46,-1970.28
21120,-3.8700,1.0712,-0.8440,-1320.07,-1045.10,951.48
21130,-3.8700,1.2091,-0.8400,1117.43,-29.17,-392.33
21140,-3.8699,1.3253,-0.8258,-1226.32,486.69,388.98
21150,-3.8700,1.4036,-0.8191,1648.68,-1700.56,-1657.90
21160,-3.8701,1.4475,-0.8220,-335.69,-841.06,-1376.65
21170,-3.8702,1.4625,-0.8297,1289.31,-1215.94,-845.40
21180,-3.8702,1.4456,-0.8314,-788.82,1799.68,373.35
21190,-3.8704,1.3940,-0.8085,1039.31,1580.93,998.35
21200,-3.8706,1.3162,-0.7565,-1554.44,518.31,-95.34
21210,-3.8707,1.2238,-0.6998,476.81,-825.56,1060.97
21220,-3.8710,1.1261,-0.6604,648.68,-1575.74,1311.10
21230,-3.8712,1.0382,-0.6310,148.68,-529.05,1936.16
21240,-3.8715,0.9731,-0.5956,898.68,-763.61,-345.03
21250,-3.8716,0.9208,-0.5582,570.56,-232.48,-1844.97
21260,-3.8717,0.8629,-0.5350,1867.43,548.65,842.65
21270,-3.8718,0.7957,-0.5275,-1538.82,-482.73,342.65
21280,-3.8719,0.7179,-0.5319,1851.81,485.90,-1876.04
21290,-3.8719,0.6232,-0.5536,-101.32,-76.78,-1001.10
21300,-3.8718,0.5143,-0.5846,-226.32,1141.78,-954.22
21310,-3.8716,0.4037,-0.6012,1836.18,1172.85,1201.97
21320,-3.8715,0.2979,-0.5947,-320.07,-952.39,-751.22
21330,-3.8713,0.2045,-0.5704,-1866.94,-124.45,-485.60
21340,-3.8712,0.1255,-0.5248,-1820.07,-1015.26,1748.84
21350,-3.8712,0.0344,-0.4482,70.56,828.37,-1563.54
21360,-3.8712,-0.1084,-0.3502,414.31,-1374.94,1967.83
21370,-3.8712,-0.3182,-0.2551,-1866.94,-812.74,-1828.86
21380,-3.8711,-0.5645,-0.1508,-726.32,-641.30,1452.58
21390,-3.8710,-0.8101,-0.0052,-241.94,717.59,-265.93
21400,-3.8707,-1.0527,0.1626,320.56,-657.84,-1562.56
21410,-3.8706,-1.3104,0.2991,1258.06,826.05,-202.82
21420,-3.8704,-1.5728,0.3979,273.68,-1705.69,297.42
21430,-3.8702,-1.7981,0.5059,-1304.44,-1049.99,235.11
21440,-3.8702,-1.9706,0.6335,1851.81,762.08,-1561.52
21450,-3.8702,-2.0966,0.7559,-226.32,1105.47,1094.97
21460,-3.8705,-2.1753,0.8750,-351.32,761.47,-311.04
21470,-3.8707,-2.2083,0.9968,1570.56,11.35,-1013.92
21480,-3.8711,-2.2030,1.1047,1351.81,-394.96,-107.48
21490,-3.8715,-2.1639,1.1680,-1976.32,1417.54,-154.11
21500,-3.8717,-2.0789,1.1689,-976.32,1511.35,1486.63
21510,-3.8719,-1.9314,1.1234,1914.31,1636.54,-278.99
21520,-3.8719,-1.7468,1.0443,789.31,-191.28,-1294.74
21530,-3.8719,-1.5612,0.9335,414.31,1684.08,-263.61
21540,-3.8718,-1.3846,0.8036,179.93,-503.05,1298.65
21550,-3.8718,-1.2163,0.6672,-1226.32,-1127.75,-654.72
21560,-3.8717,-1.0695,0.5227,320.56,1419.49,1845.03
21570,-3.8716,-0.9578,0.3734,-882.57,-1080.26,1672.85
21580,-3.8713,-0.8713,0.2321,1414.31,-189.39,500.67
21590,-3.8711,-0.7968,0.1022,476.81,1717.04,-1468.32
21600,-3.8707,-0.7312,-0.0278,-1976.32,1092.16,-1781.07
21610,-3.8704,-0.6796,-0.1763,-1585.69,451.66,-1781.31
21620,-3.8700,-0.6240,-0.3219,1023.68,1451.78,999.63
21630,-3.8699,-0.5343,-0.4183,133.06,-1188.72,-531.92
21640,-3.8699,-0.4047,-0.4589,-382.57,-1532.35,-875.85
21650,-3.8700,-0.2555,-0.4774,211.18,1280.46,1624.08
21660,-3.8702,-0.1252,-0.5056,-695.07,-1094.30,-1329.10
21670,-3.8704,-0.0371,-0.5444,-23.19,-703.43,764.59
21680,-3.8705,0.0074,-0.5748,-741.94,-1672.00,342.65
21690,-3.8706,0.0159,-0.5745,961.18,-1578.12,170.72
21700,-3.8708,-0.0026,-0.5464,-1960.69,-1531.25,-563.66
21710,-3.8710,-0.0354,-0.5189,-320.07,-1921.94,-1563.60
21720,-3.8711,-0.0585,-0.5022,-523.19,1593.63,1639.59
21730,-3.8712,-0.0182,-0.5127,523.68,-265.75,1498.96
21740,-3.8713,0.1349,-0.5647,1679.93,-1609.44,-704.16
21750,-3.8713,0.3912,-0.6345,1273.68,-281.01,-626.16
21760,-3.8713,0.6888,-0.7015,-1913.82,-1218.02,-360.66
21770,-3.8713,0.9479,-0.7622,179.93,-1795.53,-1938.90
21780,-3.8713,1.1177,-0.8165,1336.18,-1560.67,560.97
21790,-3.8713,1.1948,-0.8608,-929.44,-513.49,-126.65
21800,-3.8710,1.2229,-0.8809,945.56,1814.82,1435.79
21810,-3.8706,1.2561,-0.8884,539.31,-747.62,607.60
21820,-3.8705,1.3167,-0.9022,789.31,-1716.31,-704.90
21830,-3.8705,1.4008,-0.9078,539.31,518.19,-783.02
21840,-3.8706,1.4734,-0.8982,-695.07,-200.44,1904.42
21850,-3.8708,1.4906,-0.8762,601.81,1034.12,-1954.90
21860,-3.8711,1.4425,-0.8392,-1195.07,-153.38,-1626.77
21870,-3.8712,1.3507,-0.8015,648.68,580.93,1279.60
21880,-3.8713,1.2467,-0.7875,898.68,1408.87,-829.71
21890,-3.8713,1.1501,-0.7942,-413.82,-794.49,-782.84
21900,-3.8712,1.0618,-0.7987,-773.19,-1654.05,873.41
21910,-3.8712,0.9753,-0.8009,-85.69,1767.64,-735.96
21920,-3.8711,0.8811,-0.8176,851.81,1486.27,1889.04
21930,-3.8710,0.7771,-0.8428,789.31,-654.54,998.35
21940,-3.8708,0.6758,-0.8453,-523.19,126.46,638.98
21950,-3.8708,0.5769,-0.8184,-1491.94,-201.84,-64.21
21960,-3.8707,0.4659,-0.7931,1851.81,-748.90,435.85
21970,-3.8708,0.3479,-0.7816,-351.32,-1514.77,826.54
21980,-3.8711,0.2422,-0.7487,539.31,-46.20,-595.34
21990,-3.8712,0.1390,-0.6704,-991.94,172.30,-313.96
22000,-3.8712,0.0056,-0.5698,1804.93,-1812.26,-1360.72
22010,-3.8712,-0.1838,-0.4625,726.81,-937.50,-188.66
22020,-3.8711,-0.4425,-0.3313,476.81,812.13,-969.67
22030,-3.8710,-0.7693,-0.1648,-632.57,1608.46,-47.55
22040,-3.8707,-1.1422,0.0188,1539.31,-1079.65,-1906.62
22050,-3.8705,-1.5071,0.2216,1804.93,-1580.38,1656.25
22060,-3.8702,-1.8153,0.4542,-898.19,372.01,-1530.82
22070,-3.8700,-2.0580,0.6691,-351.32,-1847.35,1875.85
22080,-3.8699,-2.2334,0.8251,586.18,1652.22,1423.16
22090,-3.8699,-2.3317,0.9408,-1866.94,1620.61,-1310.91
22100,-3.8699,-2.3641,1.0366,1554.93,432.92,-795.04
22110,-3.8699,-2.3621,1.1024,1398.68,698.49,1658.26
22120,-3.8700,-2.3438,1.1315,1664.31,1120.36,752.14
22130,-3.8702,-2.2972,1.1265,8.06,839.17,1111.57
22140,-3.8705,-2.2023,1.0878,1961.18,198.61,408.45
22150,-3.8708,-2.0590,1.0144,-1882.57,-754.33,-154.17
22160,-3.8710,-1.8762,0.9115,461.18,1855.35,236.33
22170,-3.8712,-1.6714,0.7925,-148.19,683.78,-1763.85
22180,-3.8713,-1.4713,0.6721,-1929.44,1449.83,1407.78
22190,-3.8715,-1.2941,0.5634,-320.07,-1956.05,1204.41
22200,-3.8716,-1.1545,0.4678,-1632.57,122.44,1922.97
22210,-3.8717,-1.0597,0.3682,226.81,-111.63,-14.77
22220,-3.8716,-0.9928,0.2511,367.43,-861.45,531.92
22230,-3.8716,-0.9196,0.1245,929.93,154.30,-280.76
22240,-3.8715,-0.8168,-0.0049,-1695.07,-48.71,-734.19
22250,-3.8713,-0.6847,-0.1338,-538.82,-611.02,1906.19
22260,-3.8712,-0.5321,-0.2556,367.43,-1110.72,655.94
22270,-3.8711,-0.3805,-0.3735,-101.32,-704.22,1421.33
22280,-3.8708,-0.2600,-0.4934,-695.07,202.33,827.39
22290,-3.8706,-0.1748,-0.6039,-1273.19,858.83,1686.52
22300,-3.8704,-0.1028,-0.6797,1633.06,-1281.62,-1376.22
22310,-3.8701,-0.0262,-0.7087,-1148.19,1015.38,1623.66
22320,-3.8701,0.0587,-0.7025,648.68,1296.81,-407.65
22330,-3.8702,0.1488,-0.6852,-476.32,-1921.81,-1298.28
22340,-3.8705,0.2419,-0.6809,-945.07,297.12,1045.53
22350,-3.8708,0.3412,-0.6969,-1023.19,844.18,-1063.84
22360,-3.8711,0.4482,-0.7257,-320.07,-1202.51,-142.03
22370,-3.8711,0.5542,-0.7592,1383.06,-889.77,1607.91
22380,-3.8711,0.6433,-0.7828,-1054.44,-1170.84,-48.40
22390,-3.8708,0.7031,-0.7872,-1648.19,-201.90,951.54
22400,-3.8707,0.7388,-0.7837,-1991.94,-764.28,1701.54
22410,-3.8706,0.7626,-0.7947,-1429.44,-311.10,279.66
22420,-3.8706,0.7919,-0.8260,1617.43,-1717.29,-1985.96
22430,-3.8705,0.8562,-0.8615,1367.43,-1732.85,795.23
22440,-3.8705,0.9677,-0.8851,1601.81,1736.02,-470.46
22450,-3.8705,1.1005,-0.8945,-132.57,-1295.04,-142.40
22460,-3.8705,1.2252,-0.8906,867.43,1502.14,1060.73
22470,-3.8707,1.3279,-0.8708,836.18,-1997.62,-158.02
22480,-3.8708,1.3962,-0.8469,1976.81,533.81,1076.42
22490,-3.8711,1.4235,-0.8396,-1273.19,-403.56,1701.42
22500,-3.8713,1.4216,-0.8474,-1788.82,534.00,-1095.40
22510,-3.8715,1.3986,-0.8527,1976.81,-466.00,1982.67
22520,-3.8716,1.3390,-0.8440,-976.32,-1137.94,-32.96
22530,-3.8716,1.2372,-0.8185,-601.32,-28.69,-361.08
22540,-3.8716,1.1136,-0.7861,-1632.57,-763.24,-1814.15
22550,-3.8717,0.9962,-0.7588,-1445.07,-622.86,-1485.96
22560,-3.8718,0.8989,-0.7509,-476.32,-1123.11,1842.22
22570,-3.8719,0.8247,-0.7643,-929.44,-107.67,-1673.40
22580,-3.8719,0.7542,-0.7806,1570.56,-1826.54,1248.47
22590,-3.8719,0.6581,-0.7963,539.31,79.59,-1876.53
22600,-3.8719,0.5327,-0.8132,242.43,-1920.59,-189.09
22610,-3.8718,0.3979,-0.8247,195.56,-92.71,-1470.40
22620,-3.8717,0.2684,-0.8290,-1054.44,-1561.77,-1611.02
22630,-3.8716,0.1425,-0.8153,-1632.57,1891.11,-1970.40
22640,-3.8715,0.0042,-0.7578,-1757.57,-359.13,560.85
22650,-3.8715,-0.1683,-0.6417,539.31,-1000.00,-954.65
22660,-3.8713,-0.3889,-0.4741,-1538.82,1874.63,-360.66
22670,-3.8711,-0.6637,-0.2638,-1773.19,-672.67,-1797.85
22680,-3.8708,-0.9918,-0.0295,-945.07,-1751.34,1421.33
22690,-3.8706,-1.3582,0.2119,1054.93,232.42,-1546.94
22700,-3.8702,-1.7390,0.4772,-1835.69,-862.06,-1187.13
22710,-3.8698,-2.1053,0.7504,1414.31,1090.33,1407.17
22720,-3.8694,-2.4148,0.9628,-1476.32,58.35,-1357.91
22730,-3.8690,-2.6058,1.0826,-1085.69,-754.76,1548.71
22740,-3.8688,-2.6387,1.1267,-1538.82,-1411.38,-560.42
22750,-3.8684,-2.5389,1.0936,-1741.94,229.19,80.32
22760,-3.8683,-2.3501,0.9900,-976.32,-5.00,-1544.80
22770,-3.8682,-2.1058,0.8640,-804.44,-1270.26,1767.52
22780,-3.8682,-1.8474,0.7465,-1538.82,-1394.78,923.52
22790,-3.8684,-1.6051,0.6381,-460.69,-441.16,-732.97
22800,-3.8687,-1.3873,0.5375,-1445.07,1684.33,1454.35
