timestamp_ms,ax,ay,az,gx,gy,gz
0,-3.8732,2.2362,0.0156,-1804.44,1112.92,812.26
10,-3.8728,2.5090,0.1780,-1757.57,-1995.67,-1421.88
20,-3.8722,2.6259,0.2886,1164.31,-1213.87,297.18
30,-3.8716,2.5994,0.3191,117.43,942.63,563.05
40,-3.8710,2.4790,0.3110,726.81,848.82,-1233.76
50,-3.8702,2.3462,0.2883,1320.56,-182.68,-1999.45
60,-3.8695,2.2556,0.2408,320.56,910.83,1297.42
70,-3.8689,2.1943,0.1749,726.81,-1167.48,-530.82
80,-3.8683,2.1053,0.1101,883.06,-1605.10,-1265.32
90,-3.8678,1.9547,0.0494,1492.43,-1902.16,734.56
100,-3.8677,1.7543,-0.0046,-1788.82,-1668.09,1656.31
110,-3.8679,1.5474,-0.0438,554.93,-590.33,1609.31
120,-3.8685,1.3679,-0.0732,-1929.44,-1606.38,468.63
130,-3.8695,1.2306,-0.1141,-898.19,-1372.38,-593.93
140,-3.8704,1.1344,-0.1766,1523.68,1393.01,921.63
150,-3.8712,1.0560,-0.2714,1211.18,1392.82,1030.88
160,-3.8719,0.9640,-0.4042,-820.07,1267.64,-1891.17
170,-3.8724,0.8387,-0.5624,-601.32,267.46,842.96
180,-3.8728,0.6804,-0.7257,-632.57,17.21,452.03
190,-3.8730,0.4968,-0.8679,-898.19,-889.34,1076.66
200,-3.8732,0.3055,-0.9773,-398.19,907.17,-470.46
210,-3.8730,0.1129,-1.0518,-882.57,-1093.20,-767.58
220,-3.8728,-0.0940,-1.0823,-1538.82,1375.18,-736.45
230,-3.8724,-0.3140,-1.0797,-23.19,1484.13,-1689.64
240,-3.8721,-0.5198,-1.0658,-179.44,1811.83,-1095.89
250,-3.8716,-0.6830,-1.0364,1476.81,-407.29,1294.74
260,-3.8711,-0.7977,-1.0043,586.18,-641.97,1685.42
270,-3.8706,-0.8656,-1.0035,1898.68,-532.84,-1970.76
280,-3.8701,-0.8951,-1.0339,1211.18,-439.21,29.24
290,-3.8699,-0.9014,-1.0706,1429.93,-329.90,-1377.08
300,-3.8696,-0.8990,-1.0894,633.06,-1017.40,1685.36
310,-3.8695,-0.9003,-1.0720,929.93,576.35,1654.11
320,-3.8695,-0.9178,-1.0160,773.68,-1204.90,-611.51
330,-3.8695,-0.9556,-0.9294,-1476.32,1966.92,-1173.89
340,-3.8696,-1.0028,-0.8306,1695.56,1044.98,-1251.83
350,-3.8699,-1.0361,-0.7323,-351.32,1701.11,-1282.90
360,-3.8702,-1.0356,-0.6383,-616.94,-1720.83,-157.71
370,-3.8706,-1.0035,-0.5654,-554.44,-1689.58,-360.66
380,-3.8710,-0.9540,-0.5188,-445.07,-361.39,-954.28
390,-3.8713,-0.9028,-0.4764,1898.68,1607.48,-422.91
400,-3.8716,-0.8593,-0.4313,445.56,-970.52,-1329.10
410,-3.8717,-0.8193,-0.4065,-1976.32,810.79,452.27
420,-3.8719,-0.7798,-0.4091,-866.94,-17.27,-282.10
430,-3.8721,-0.7429,-0.4161,195.56,-345.28,-94.60
440,-3.8721,-0.7098,-0.4160,914.31,-1251.46,1421.02
450,-3.8722,-0.6760,-0.4110,1148.68,-1235.78,-813.35
460,-3.8723,-0.6357,-0.3917,1476.81,-595.09,-32.10
470,-3.8724,-0.5850,-0.3612,-1366.94,1873.72,-391.42
480,-3.8726,-0.5220,-0.3372,1133.06,1780.09,-1750.73
490,-3.8727,-0.4553,-0.3162,1195.56,858.34,733.70
500,-3.8729,-0.3932,-0.2812,1726.81,-454.04,-16.30
510,-3.8730,-0.3304,-0.2415,1679.93,14.83,-484.92
520,-3.8732,-0.2559,-0.2220,1711.18,1108.70,-1719.24
530,-3.8733,-0.1603,-0.2231,-741.94,-406.80,1233.89
540,-3.8734,-0.0392,-0.2368,-507.57,-547.24,1858.89
550,-3.8734,0.1157,-0.2753,-1007.57,1703.00,468.26
560,-3.8734,0.3116,-0.3519,-1179.44,765.81,874.45
570,-3.8734,0.5492,-0.4575,-101.32,-1046.33,-1594.48
580,-3.8733,0.8027,-0.5631,-1695.07,1438.54,436.58
590,-3.8732,1.0629,-0.6478,-1241.94,-76.60,1139.47
600,-3.8728,1.3519,-0.7019,54.93,1080.20,1279.97
610,-3.8721,1.6378,-0.6946,1054.93,-1841.13,1545.47
620,-3.8710,1.8776,-0.6378,1648.68,-903.08,1857.97
630,-3.8698,2.0509,-0.5737,336.18,-1636.96,1311.22
640,-3.8688,2.1350,-0.5012,-1476.32,-1433.53,608.22
650,-3.8682,2.1387,-0.4351,1289.31,-152.10,77.09
660,-3.8678,2.0740,-0.3962,1758.06,316.65,733.52
670,-3.8676,1.9449,-0.3721,1476.81,1285.28,-625.79
680,-3.8673,1.7815,-0.3485,961.18,378.78,-1391.36
690,-3.8673,1.6261,-0.3167,39.31,-605.90,-953.86
700,-3.8676,1.5046,-0.2751,148.68,-528.08,-813.17
710,-3.8679,1.4265,-0.2382,601.81,784.18,218.20
720,-3.8685,1.3903,-0.2233,-1398.19,1518.37,1858.89
730,-3.8690,1.3777,-0.2286,1961.18,-575.44,749.51
740,-3.8695,1.3521,-0.2283,351.81,-1262.94,-1187.99
750,-3.8699,1.2872,-0.2150,1070.56,-1216.13,-1578.61
760,-3.8702,1.1931,-0.2170,773.68,486.88,1155.82
770,-3.8707,1.0939,-0.2546,726.81,221.07,-1891.05
780,-3.8712,0.9884,-0.3160,23.68,-591.61,-1438.05
790,-3.8717,0.8564,-0.3877,-1476.32,-451.23,-94.42
800,-3.8721,0.7017,-0.4622,1633.06,-1623.35,-1688.29
810,-3.8724,0.5466,-0.5303,1820.56,845.09,1639.71
820,-3.8728,0.4092,-0.5948,1976.81,126.04,-1641.66
830,-3.8730,0.2980,-0.6628,383.06,-139.83,1467.53
840,-3.8732,0.2064,-0.7338,-1851.32,-843.20,217.41
850,-3.8733,0.1267,-0.8099,-1570.07,-1921.51,-813.96
860,-3.8732,0.0437,-0.8887,226.81,328.37,1982.79
870,-3.8729,-0.0620,-0.9528,1601.81,-1749.94,373.23
880,-3.8727,-0.1962,-0.9938,70.56,-1937.62,-1736.27
890,-3.8723,-0.3578,-1.0131,-1101.32,812.07,-392.58
900,-3.8718,-0.5374,-1.0106,-1788.82,-1656.98,-361.39
910,-3.8713,-0.7072,-1.0028,-773.19,-1344.85,-220.76
920,-3.8708,-0.8374,-1.0142,1492.43,-345.15,-861.39
930,-3.8704,-0.9290,-1.0394,820.56,-1798.52,1544.86
940,-3.8701,-0.9906,-1.0613,1101.81,-1033.08,-142.70
950,-3.8699,-1.0062,-1.0735,1211.18,169.92,169.80
960,-3.8699,-0.9612,-1.0614,-788.82,-1392.64,60.36
970,-3.8700,-0.8768,-1.0134,976.81,154.36,1763.55
980,-3.8701,-0.7926,-0.9315,-226.32,-1704.90,1888.61
990,-3.8702,-0.7350,-0.8248,-1445.07,779.66,154.42
1000,-3.8705,-0.7073,-0.7144,1929.93,-1563.96,951.48
1010,-3.8707,-0.6943,-0.6217,1476.81,576.72,1061.10
1020,-3.8710,-0.6901,-0.5511,-866.94,436.10,561.28
1030,-3.8713,-0.6991,-0.4869,-320.07,1467.35,-297.97
1040,-3.8715,-0.7183,-0.4181,-1476.32,1686.10,77.15
1050,-3.8717,-0.7378,-0.3566,70.56,-1501.40,-1688.35
1060,-3.8718,-0.7462,-0.3198,1570.56,-1626.46,1921.14
1070,-3.8719,-0.7389,-0.3074,492.43,-923.34,-1125.67
1080,-3.8719,-0.7269,-0.2954,1429.93,670.41,1718.14
1090,-3.8719,-0.7245,-0.2668,-1038.82,-1798.34,-1563.11
1100,-3.8719,-0.7258,-0.2350,-726.32,1857.91,-703.67
1110,-3.8719,-0.7145,-0.2211,-898.19,1936.04,-1437.99
1120,-3.8719,-0.6929,-0.2166,554.93,-282.65,343.26
1130,-3.8721,-0.6710,-0.1990,-679.44,295.47,1452.70
1140,-3.8722,-0.6477,-0.1705,-1882.57,-1454.47,-1891.05
1150,-3.8723,-0.6191,-0.1396,1101.81,-1813.78,-1734.74
1160,-3.8724,-0.5807,-0.1138,758.06,-1860.60,1984.07
1170,-3.8726,-0.5302,-0.1005,1679.93,1451.97,1390.38
1180,-3.8727,-0.4707,-0.0924,148.68,-844.79,640.38
1190,-3.8729,-0.4037,-0.0746,-241.94,186.52,-172.06
1200,-3.8730,-0.3242,-0.0443,336.18,-1532.04,-656.43
1210,-3.8732,-0.2253,-0.0203,-1491.94,-1656.92,-953.25
1220,-3.8733,-0.1006,-0.0211,-835.69,1421.39,-640.69
1230,-3.8733,0.0436,-0.0352,-866.94,1312.26,1624.94
1240,-3.8733,0.2002,-0.0458,1586.18,-499.94,1546.75
1250,-3.8733,0.3936,-0.0641,1633.06,-1859.01,-1937.62
1260,-3.8733,0.6383,-0.0912,-1616.94,-202.39,-1062.68
1270,-3.8732,0.8979,-0.0968,1711.18,329.35,734.19
1280,-3.8732,1.1104,-0.0771,-1054.44,-388.92,-203.37
1290,-3.8729,1.2725,-0.0828,-1866.94,-1872.86,93.57
1300,-3.8728,1.4325,-0.1387,-1116.94,1408.69,-656.43
1310,-3.8723,1.5800,-0.2051,-632.57,-1747.25,421.57
1320,-3.8718,1.6511,-0.2494,-1757.57,1753.05,-125.43
1330,-3.8711,1.6178,-0.2922,-648.19,81.30,-297.36
1340,-3.8702,1.5194,-0.3560,-913.82,-1403.14,1796.26
1350,-3.8694,1.3971,-0.4058,-1507.57,-1559.57,-1641.36
1360,-3.8684,1.2643,-0.4181,-1163.82,65.19,1014.83
1370,-3.8676,1.1420,-0.4236,1836.18,-1513.18,1186.65
1380,-3.8669,1.0494,-0.4446,-1820.07,1783.45,1389.77
1390,-3.8667,0.9791,-0.4678,-1663.82,-904.24,-1438.42
1400,-3.8668,0.9136,-0.4742,1336.18,126.89,-516.54
1410,-3.8672,0.8494,-0.4646,945.56,-701.35,202.15
1420,-3.8680,0.7932,-0.4386,726.81,532.90,-235.29
1430,-3.8688,0.7419,-0.4143,1539.31,-139.10,499.08
1440,-3.8696,0.6904,-0.4154,-1023.19,-1029.85,-94.60
1450,-3.8701,0.6342,-0.4254,383.06,-1170.53,546.02
1460,-3.8706,0.5583,-0.4302,1179.93,1548.10,-657.10
1470,-3.8708,0.4653,-0.4305,-523.19,938.54,-969.60
1480,-3.8710,0.3823,-0.4209,-429.44,891.48,1280.40
1490,-3.8711,0.3236,-0.4070,945.56,-1874.27,1186.65
1500,-3.8712,0.2767,-0.4000,1429.93,-93.14,-1328.98
1510,-3.8712,0.2234,-0.3918,-570.07,797.36,1108.58
1520,-3.8713,0.1495,-0.3660,601.81,1844.18,-500.79
1530,-3.8713,0.0573,-0.3252,-851.32,1156.49,733.64
1540,-3.8715,-0.0404,-0.2811,-663.82,-1624.94,655.58
1550,-3.8717,-0.1298,-0.2319,-1163.82,31.13,-16.17
1560,-3.8718,-0.1925,-0.1792,-601.32,-1672.18,-1172.36
1570,-3.8719,-0.2233,-0.1333,-632.57,1077.70,1968.38
1580,-3.8721,-0.2336,-0.1089,-570.07,-1047.36,-1094.06
1590,-3.8721,-0.2346,-0.1080,-1898.19,-1922.36,1937.26
1600,-3.8721,-0.2401,-0.1046,1976.81,-1812.99,-1468.99
1610,-3.8719,-0.2593,-0.0835,1273.68,-1375.49,62.26
1620,-3.8719,-0.2865,-0.0660,-1179.44,1327.58,1671.69
1630,-3.8719,-0.3099,-0.0752,-663.82,-438.11,-1062.68
1640,-3.8718,-0.3220,-0.1123,336.18,-1609.99,374.82
1650,-3.8718,-0.3300,-0.1555,-1210.69,1639.95,-1000.24
1660,-3.8717,-0.3507,-0.1826,1773.68,108.70,-687.81
1670,-3.8715,-0.3899,-0.1921,-882.57,639.89,624.63
1680,-3.8713,-0.4385,-0.1940,-1898.19,-578.92,-1781.68
1690,-3.8712,-0.4883,-0.1915,-116.94,-813.42,-609.80
1700,-3.8711,-0.5364,-0.1853,1508.06,-500.98,-531.68
1710,-3.8710,-0.5806,-0.1770,-648.19,295.78,1952.76
1720,-3.8710,-0.6173,-0.1646,1695.56,1358.22,-1156.62
1730,-3.8710,-0.6438,-0.1433,992.43,-1048.10,-1687.87
1740,-3.8710,-0.6610,-0.1145,1601.81,1670.59,109.07
1750,-3.8712,-0.6686,-0.0885,-601.32,1358.03,-0.24
1760,-3.8713,-0.6667,-0.0720,-1570.07,686.16,-1937.68
1770,-3.8716,-0.6580,-0.0626,-1335.69,-1204.47,-453.31
1780,-3.8717,-0.6476,-0.0571,-210.69,-1.34,-1937.68
1790,-3.8718,-0.6399,-0.0526,1117.43,701.84,-1734.50
1800,-3.8719,-0.6313,-0.0469,-1898.19,1279.97,-437.62
1810,-3.8719,-0.6132,-0.0430,-804.44,-1985.66,1203.00
1820,-3.8721,-0.5814,-0.0393,1523.68,-1485.60,-672.00
1830,-3.8721,-0.5369,-0.0284,1586.18,-1016.78,-1562.62
1840,-3.8721,-0.4824,-0.0137,-710.69,373.90,-1593.81
1850,-3.8721,-0.4259,0.0004,-1741.94,-1735.35,-1953.19
1860,-3.8721,-0.3716,0.0073,1492.43,61.65,703.12
1870,-3.8722,-0.3125,-0.0012,445.56,952.39,-546.88
1880,-3.8722,-0.2423,-0.0197,8.06,-141.24,-1421.94
1890,-3.8722,-0.1555,-0.0409,992.43,1499.51,1249.94
1900,-3.8723,-0.0348,-0.0692,101.81,-1219.06,-156.37
1910,-3.8723,0.1268,-0.0951,-445.07,-843.87,-47.06
1920,-3.8722,0.3080,-0.0966,242.43,-171.63,-1312.74
1930,-3.8721,0.4923,-0.0819,-570.07,-358.83,-687.74
1940,-3.8718,0.6881,-0.0673,-976.32,1516.54,1312.32
1950,-3.8716,0.8721,-0.0288,86.18,-608.03,-1953.31
1960,-3.8712,1.0048,0.0472,-366.94,314.15,703.06
1970,-3.8710,1.0884,0.1213,617.43,-1951.17,921.94
1980,-3.8708,1.1506,0.1554,-679.44,-466.67,843.93
1990,-3.8708,1.2378,0.1449,-710.69,-107.18,-796.63
2000,-3.8706,1.3689,0.1166,-1554.44,-1450.74,234.62
2010,-3.8704,1.4906,0.1050,-773.19,-1075.50,-968.57
2020,-3.8699,1.5367,0.1097,-1195.07,1440.37,1937.68
2030,-3.8694,1.5060,0.1019,711.18,-1950.13,187.68
2040,-3.8691,1.4393,0.0670,773.68,1049.80,-999.82
2050,-3.8689,1.3723,0.0162,242.43,580.93,1875.12
2060,-3.8688,1.3190,-0.0281,-335.69,-1919.25,1406.25
2070,-3.8688,1.2655,-0.0488,836.18,408.81,-1421.94
2080,-3.8688,1.1956,-0.0511,1992.43,1752.44,765.50
2090,-3.8690,1.1206,-0.0596,1039.31,1455.44,1968.63
2100,-3.8694,1.0609,-0.0916,-554.44,377.14,1718.63
2110,-3.8699,1.0138,-0.1445,-195.07,283.26,-1734.56
2120,-3.8704,0.9628,-0.2068,1773.68,1501.95,-1125.31
2130,-3.8707,0.8888,-0.2809,-757.57,1533.08,1671.45
2140,-3.8711,0.7780,-0.3667,1773.68,48.58,-375.55
2150,-3.8712,0.6394,-0.4542,-413.82,1063.96,77.39
2160,-3.8715,0.4950,-0.5375,1851.81,1860.60,1811.58
2170,-3.8716,0.3489,-0.6183,-632.57,-795.96,952.03
2180,-3.8717,0.1906,-0.6985,664.31,860.05,1639.40
2190,-3.8718,0.0082,-0.7677,398.68,-1405.88,-767.03
2200,-3.8718,-0.1962,-0.8104,1054.93,1734.38,1748.47
2210,-3.8718,-0.4127,-0.8241,-1101.32,280.82,1920.29
2220,-3.8717,-0.6205,-0.8186,-820.07,-1469.60,13.98
2230,-3.8716,-0.7844,-0.8079,586.18,-766.85,76.48
2240,-3.8715,-0.8890,-0.8036,-398.19,607.79,-1657.84
2250,-3.8712,-0.9438,-0.8032,-1788.82,1154.48,1935.91
2260,-3.8710,-0.9653,-0.8081,-804.44,1201.23,1154.66
2270,-3.8708,-0.9691,-0.8193,445.56,576.23,-1392.21
2280,-3.8707,-0.9767,-0.8281,-38.82,-861.33,-1782.90
2290,-3.8706,-0.9988,-0.8152,-1007.57,-1986.33,498.35
2300,-3.8706,-1.0376,-0.7770,164.31,-330.08,1326.48
2310,-3.8706,-1.0905,-0.7216,-804.44,560.42,560.97
2320,-3.8707,-1.1407,-0.6504,429.93,-345.89,1795.41
2330,-3.8708,-1.1732,-0.5786,1992.43,763.37,248.72
2340,-3.8711,-1.1692,-0.5171,1836.18,1950.81,155.09
2350,-3.8715,-1.1206,-0.4547,-1648.19,1825.81,-782.29
2360,-3.8717,-1.0447,-0.3912,570.56,1810.30,-860.29
2370,-3.8718,-0.9637,-0.3406,-1710.69,1935.42,249.21
2380,-3.8721,-0.8925,-0.3042,648.68,419.98,-1594.42
2390,-3.8722,-0.8325,-0.2808,1773.68,1076.35,1858.76
2400,-3.8723,-0.7810,-0.2686,1445.56,76.48,-1203.67
2410,-3.8723,-0.7374,-0.2499,39.31,1639.10,843.20
2420,-3.8724,-0.7039,-0.2145,1617.43,29.79,-969.24
2430,-3.8724,-0.6741,-0.1742,1914.31,561.10,233.95
2440,-3.8727,-0.6350,-0.1362,1726.81,1717.41,-359.74
2450,-3.8728,-0.5737,-0.1006,-1273.19,-1423.16,1984.07
2460,-3.8729,-0.4852,-0.0776,-1429.44,-860.53,515.38
2470,-3.8732,-0.3710,-0.0753,1898.68,-1922.85,-453.31
2480,-3.8733,-0.2257,-0.0951,523.68,-1625.73,-765.81
2490,-3.8733,-0.0337,-0.1348,-882.57,-156.74,140.38
2500,-3.8734,0.2227,-0.1849,-304.44,-1234.50,-1000.31
2510,-3.8733,0.5553,-0.2279,508.06,328.55,296.51
2520,-3.8732,0.9708,-0.2385,-913.82,-1170.84,562.01
2530,-3.8730,1.4089,-0.1981,273.68,1470.64,-891.11
2540,-3.8728,1.7794,-0.1338,351.81,-1356.63,-875.43
2550,-3.8724,2.0410,-0.0884,-226.32,-1121.58,-1625.31
2560,-3.8719,2.1836,-0.0479,1258.06,691.47,-672.06
2570,-3.8712,2.1959,0.0018,-491.94,1879.21,1765.50
2580,-3.8704,2.0878,0.0347,1086.18,238.65,0.00
2590,-3.8695,1.9246,0.0372,-757.57,441.53,46.94
2600,-3.8688,1.7726,0.0289,-1648.19,769.35,515.69
2610,-3.8683,1.6644,0.0173,-1101.32,-293.46,875.00
2620,-3.8680,1.6151,-0.0096,1054.93,-1778.02,1093.75
2630,-3.8680,1.6091,-0.0453,-1257.57,-1231.26,-234.44
2640,-3.8680,1.6007,-0.0769,1976.81,-1793.76,-1203.25
2650,-3.8682,1.5520,-0.1096,898.68,-1840.64,1374.82
2660,-3.8685,1.4573,-0.1548,-1335.69,1971.74,-1109.62
2670,-3.8689,1.3264,-0.2034,-1460.69,190.31,155.94
2680,-3.8695,1.1781,-0.2482,1789.31,1971.31,-1516.05
2690,-3.8701,1.0354,-0.2970,-1195.07,236.63,-375.49
2700,-3.8706,0.9128,-0.3589,539.31,1986.39,1905.64
2710,-3.8711,0.8062,-0.4385,851.81,-1935.73,-1031.98
2720,-3.8715,0.7048,-0.5344,-804.44,-123.47,-1016.54
2730,-3.8717,0.6108,-0.6426,-1773.19,-404.91,-1829.22
2740,-3.8718,0.5092,-0.7347,-1804.44,1751.16,1545.59
2750,-3.8718,0.3783,-0.7876,1179.93,1954.10,1607.91
2760,-3.8717,0.2186,-0.8160,429.93,-811.77,889.04
2770,-3.8716,0.0400,-0.8401,-7.57,-452.76,842.10
2780,-3.8715,-0.1488,-0.8506,1133.06,468.81,451.48
2790,-3.8715,-0.3370,-0.8369,961.18,-859.68,-329.83
2800,-3.8713,-0.4972,-0.8191,867.43,889.95,-1439.15
2810,-3.8712,-0.6039,-0.8225,367.43,-829.10,-1923.52
2820,-3.8711,-0.6631,-0.8381,-1288.82,-1266.85,-1736.02
2830,-3.8710,-0.6941,-0.8368,-866.94,733.03,1779.60
2840,-3.8710,-0.7140,-0.8090,-835.69,904.85,-298.52
2850,-3.8710,-0.7316,-0.7634,617.43,467.35,-95.34
2860,-3.8710,-0.7559,-0.7100,-1632.57,-1704.59,-1548.40
2870,-3.8711,-0.8004,-0.6534,-741.94,1139.10,-282.65
2880,-3.8711,-0.8719,-0.5968,1554.93,373.41,373.72
2890,-3.8712,-0.9614,-0.5358,398.68,-376.71,701.90
2900,-3.8713,-1.0500,-0.4725,945.56,-564.39,592.65
2910,-3.8715,-1.1162,-0.4224,1601.81,-470.83,108.40
2920,-3.8717,-1.1470,-0.3846,1133.06,1950.93,-610.23
2930,-3.8718,-1.1490,-0.3467,1195.56,-1221.01,-1719.54
2940,-3.8719,-1.1304,-0.3033,929.93,-361.63,936.77
2950,-3.8721,-1.0911,-0.2571,-679.44,1185.24,93.14
2960,-3.8722,-1.0347,-0.2122,351.81,-892.76,171.33
2970,-3.8723,-0.9731,-0.1741,-429.44,857.30,905.82
2980,-3.8724,-0.9152,-0.1444,-554.44,1732.42,1952.76
2990,-3.8726,-0.8627,-0.1198,-1132.57,1529.42,-469.06
3000,-3.8726,-0.8154,-0.0963,1586.18,685.79,1968.51
3010,-3.8726,-0.7760,-0.0674,-366.94,-314.15,1124.76
3020,-3.8726,-0.7422,-0.0253,679.93,-610.90,624.82
3030,-3.8727,-0.7008,0.0256,1008.06,779.79,-203.19
3040,-3.8727,-0.6378,0.0736,-1695.07,-704.53,1859.38
3050,-3.8728,-0.5452,0.1130,-1632.57,1436.22,-1203.00
3060,-3.8729,-0.4174,0.1426,-1773.19,-1516.72,-859.19
3070,-3.8730,-0.2363,0.1560,-1413.82,-1735.23,-781.01
3080,-3.8732,0.0297,0.1438,1758.06,-16.11,-171.63
3090,-3.8732,0.3845,0.1161,-195.07,-1593.75,-968.51
3100,-3.8730,0.8135,0.0958,1226.81,-1139.89,-93.57
3110,-3.8727,1.3054,0.0936,133.06,267.21,1687.68
3120,-3.8723,1.7731,0.1359,-898.19,-13.12,-1687.38
3130,-3.8718,2.0487,0.2288,-1038.82,1394.04,-1109.13
3140,-3.8712,2.0458,0.3273,-1757.57,1285.22,-983.95
3150,-3.8705,1.8148,0.3727,1867.43,1894.59,391.24
3160,-3.8699,1.4984,0.3451,304.93,-293.33,-1827.45
3170,-3.8693,1.2498,0.2971,-195.07,174.74,1985.05
3180,-3.8689,1.1340,0.2665,-23.19,-1966.37,-171.33
3190,-3.8687,1.1224,0.2358,1164.31,-1888.43,-1390.14
3200,-3.8687,1.1393,0.1897,-320.07,-1810.36,-1124.57
3210,-3.8688,1.1257,0.1339,1836.18,283.45,1547.24
3220,-3.8690,1.0593,0.0737,101.81,1142.82,687.74
3230,-3.8694,0.9479,0.0160,-398.19,1439.51,-1249.88
3240,-3.8696,0.8188,-0.0331,1336.18,-1951.29,218.75
3250,-3.8700,0.6945,-0.0848,820.56,-232.79,562.38
3260,-3.8704,0.5817,-0.1443,898.68,1141.97,62.32
3270,-3.8707,0.4801,-0.1990,-1538.82,1532.35,265.32
3280,-3.8711,0.3883,-0.2380,1461.18,-1467.83,-1234.80
3290,-3.8713,0.2972,-0.2598,1711.18,1531.98,-266.11
3300,-3.8715,0.1998,-0.2684,-1945.07,-1249.45,-1484.92
3310,-3.8716,0.0997,-0.2753,1586.18,1640.99,-1484.92
3320,-3.8717,0.0033,-0.2931,773.68,765.81,-984.92
3330,-3.8717,-0.0879,-0.3246,429.93,-1515.62,140.01
3340,-3.8718,-0.1787,-0.3617,758.06,-1531.43,-1266.30
3350,-3.8718,-0.2755,-0.3911,1133.06,1718.38,-985.11
3360,-3.8717,-0.3833,-0.4045,742.43,1952.58,686.71
3370,-3.8717,-0.4933,-0.4064,-1054.44,233.58,-953.92
3380,-3.8716,-0.5925,-0.4017,867.43,-0.98,1139.77
3390,-3.8716,-0.6730,-0.3899,164.31,592.59,-1391.42
3400,-3.8716,-0.7291,-0.3766,1867.43,-1891.97,-547.67
3410,-3.8716,-0.7572,-0.3676,-1320.07,-188.96,-282.04
3420,-3.8716,-0.7610,-0.3562,-913.82,967.22,-422.61
3430,-3.8716,-0.7556,-0.3414,-1398.19,-1579.65,-453.86
3440,-3.8716,-0.7545,-0.3221,-710.69,310.97,-110.05
3450,-3.8715,-0.7643,-0.2885,-570.07,-1220.28,405.58
3460,-3.8715,-0.7841,-0.2426,-1820.07,-907.78,655.64
3470,-3.8715,-0.8026,-0.2040,-351.32,967.16,77.64
3480,-3.8716,-0.8099,-0.1847,1273.68,1904.66,-1531.68
3490,-3.8716,-0.8090,-0.1724,336.18,373.41,327.76
3500,-3.8717,-0.8083,-0.1578,461.18,1951.54,-1672.24
3510,-3.8717,-0.8118,-0.1455,539.31,-189.09,671.51
3520,-3.8718,-0.8220,-0.1335,101.81,1389.04,-765.93
3530,-3.8718,-0.8389,-0.1195,-1210.69,-1079.77,1827.82
3540,-3.8718,-0.8538,-0.1035,633.06,717.10,468.51
3550,-3.8719,-0.8639,-0.0889,-1273.19,-1236.08,-953.37
3560,-3.8719,-0.8689,-0.0796,1429.93,638.92,1546.69
3570,-3.8719,-0.8680,-0.0703,789.31,1826.42,124.82
3580,-3.8721,-0.8624,-0.0603,898.68,-986.08,-1250.18
3590,-3.8721,-0.8535,-0.0499,1617.43,295.17,1468.63
3600,-3.8721,-0.8414,-0.0381,-1241.94,1623.29,359.25
3610,-3.8722,-0.8241,-0.0247,304.93,-861.02,-562.62
3620,-3.8722,-0.8024,-0.0092,-1476.32,857.73,-1375.06
3630,-3.8722,-0.7775,0.0096,1304.93,-1157.84,1734.31
3640,-3.8722,-0.7483,0.0302,492.43,1248.47,531.25
3650,-3.8723,-0.7134,0.0522,226.81,-126.46,-1031.25
3660,-3.8723,-0.6733,0.0774,695.56,-1298.28,937.56
3670,-3.8724,-0.6282,0.1023,1820.56,1920.53,-1640.50
3680,-3.8726,-0.5719,0.1260,-398.19,1108.09,-390.44
3690,-3.8726,-0.4999,0.1555,-1195.07,139.47,1390.87
3700,-3.8727,-0.4119,0.1965,23.68,-79.10,-109.13
3710,-3.8727,-0.3019,0.2461,-710.69,1171.02,-1312.13
3720,-3.8727,-0.1555,0.2972,1367.43,-484.99,984.80
3730,-3.8728,0.0386,0.3427,101.81,-1937.81,-1218.20
3740,-3.8728,0.2814,0.3855,945.56,-140.56,938.11
3750,-3.8729,0.5830,0.4187,23.68,1344.30,-14.89
3760,-3.8728,0.9523,0.4290,-1366.94,1594.85,1078.92
3770,-3.8727,1.3353,0.4346,1898.68,-1091.92,1266.42
3780,-3.8724,1.6315,0.4545,-1070.07,-372.44,1422.67
3790,-3.8721,1.7640,0.4801,836.18,-1824.95,-1952.27
3800,-3.8716,1.7227,0.4684,1804.93,1456.54,-1467.83
3810,-3.8710,1.5681,0.4031,508.06,-43.52,-1467.90
3820,-3.8702,1.3816,0.3292,726.81,-403.20,1141.36
3830,-3.8696,1.2192,0.2758,851.81,-1856.69,-343.14
3840,-3.8690,1.0963,0.2247,70.56,-700.74,-405.76
3850,-3.8685,1.0067,0.1506,336.18,767.76,-437.07
3860,-3.8682,0.9330,0.0593,867.43,-716.80,1031.49
3870,-3.8682,0.8458,-0.0411,-570.07,-404.48,1312.56
3880,-3.8685,0.7361,-0.1396,273.68,-1263.98,-422.00
3890,-3.8690,0.6168,-0.2135,-1773.19,-1873.60,1765.32
3900,-3.8698,0.5005,-0.2622,-1038.82,673.03,-47.30
3910,-3.8704,0.3944,-0.2992,70.56,-1561.52,-1844.30
3920,-3.8708,0.2882,-0.3345,-1507.57,1703.86,171.26
3930,-3.8713,0.1724,-0.3726,898.68,1188.05,-469.42
3940,-3.8716,0.0520,-0.4110,-1929.44,312.81,-922.61
3950,-3.8717,-0.0654,-0.4460,-1335.69,-609.31,-1782.10
3960,-3.8717,-0.1785,-0.4792,-366.94,-1078.31,655.33
3970,-3.8717,-0.2864,-0.5111,1164.31,-1328.49,1374.02
3980,-3.8717,-0.3901,-0.5348,-648.19,-1406.86,-329.16
3990,-3.8716,-0.4956,-0.5420,-1929.44,-438.29,-688.60
4000,-3.8715,-0.6010,-0.5350,570.56,-1360.35,-766.72
4010,-3.8713,-0.6927,-0.5255,-913.82,-469.97,-1985.47
4020,-3.8713,-0.7609,-0.5220,-663.82,748.60,-751.04
4030,-3.8713,-0.8081,-0.5162,-1382.57,1201.60,-641.66
4040,-3.8713,-0.8414,-0.4977,570.56,1935.91,-1188.54
4050,-3.8713,-0.8676,-0.4714,304.93,310.85,1827.15
4060,-3.8713,-0.8926,-0.4420,961.18,-329.83,249.02
4070,-3.8715,-0.9232,-0.4038,1758.06,-564.27,1999.08
4080,-3.8716,-0.9556,-0.3545,1836.18,326.29,-563.29
4090,-3.8716,-0.9771,-0.3042,1695.56,-1361.27,577.39
4100,-3.8717,-0.9806,-0.2621,-1054.44,1076.17,1249.39
4110,-3.8718,-0.9701,-0.2257,-1507.57,-1533.20,1765.08
4120,-3.8719,-0.9479,-0.1952,-163.82,-876.95,-1594.24
4130,-3.8721,-0.9143,-0.1721,-1320.07,-970.64,-422.30
4140,-3.8721,-0.8785,-0.1461,-1023.19,1982.54,1749.63
4150,-3.8721,-0.8495,-0.1119,-445.07,1310.73,1093.44
4160,-3.8721,-0.8304,-0.0781,-726.32,1685.79,1218.51
4170,-3.8721,-0.8148,-0.0513,1711.18,-1986.02,1124.82
4180,-3.8721,-0.7922,-0.0347,-288.82,1451.48,437.38
4190,-3.8722,-0.7621,-0.0247,-1398.19,-423.46,-468.87
4200,-3.8722,-0.7272,-0.0221,-1538.82,857.85,-906.31
4210,-3.8722,-0.6897,-0.0259,-1070.07,1186.04,-390.69
4220,-3.8721,-0.6609,-0.0173,-273.19,701.72,843.69
4230,-3.8721,-0.6520,0.0106,-585.69,1795.53,-1875.06
4240,-3.8721,-0.6566,0.0406,554.93,1373.72,-1187.50
4250,-3.8721,-0.6591,0.0543,-38.82,1217.41,-1515.56
4260,-3.8721,-0.6560,0.0483,-351.32,-1032.59,1640.69
4270,-3.8721,-0.6449,0.0336,39.31,-1798.16,1031.31
4280,-3.8721,-0.6227,0.0293,1461.18,311.22,390.69
4290,-3.8722,-0.5909,0.0393,304.93,-235.60,-890.62
4300,-3.8722,-0.5454,0.0502,367.43,1045.72,843.81
4310,-3.8723,-0.4928,0.0590,-1804.44,-1563.60,-1984.31
4320,-3.8724,-0.4515,0.0778,929.93,-438.48,-890.56
4330,-3.8724,-0.4207,0.1096,-1788.82,1967.83,47.00
4340,-3.8726,-0.3790,0.1460,-1835.69,-1953.98,687.68
4350,-3.8727,-0.3145,0.1844,-507.57,-1297.67,1093.99
4360,-3.8728,-0.2255,0.2301,-241.94,-375.67,1250.31
4370,-3.8729,-0.1119,0.2811,-851.32,1468.26,953.55
4380,-3.8730,0.0337,0.3256,1679.93,-0.24,703.61
4390,-3.8732,0.2241,0.3579,320.56,1671.94,1469.36
4400,-3.8733,0.4651,0.3754,695.56,1812.93,-155.58
4410,-3.8732,0.7775,0.3715,-460.69,47.73,328.86
4420,-3.8732,1.1426,0.3663,-476.32,-451.66,-296.20
4430,-3.8729,1.4830,0.4088,-1741.94,-1107.18,-1936.83
4440,-3.8727,1.7368,0.4760,1836.18,330.99,-1327.33
4450,-3.8723,1.8835,0.4886,-1679.44,925.23,532.17
4460,-3.8719,1.9283,0.4340,1101.81,-1449.46,-1686.58
4470,-3.8713,1.8745,0.3549,-1163.82,-449.40,-1936.71
4480,-3.8706,1.7448,0.2722,-54.44,1425.48,1360.05
4490,-3.8699,1.5878,0.1848,-663.82,-1152.89,1187.99
4500,-3.8693,1.4526,0.0945,-757.57,-340.70,-984.07
4510,-3.8687,1.3444,-0.0045,1945.56,96.56,-1734.19
4520,-3.8682,1.2263,-0.0974,86.18,-575.50,-687.56
4530,-3.8677,1.0854,-0.1700,976.81,-466.37,874.76
4540,-3.8676,0.9352,-0.2404,-1054.44,-1763.55,-1047.24
4550,-3.8677,0.7794,-0.3101,-288.82,1236.15,1905.76
4560,-3.8682,0.6350,-0.3610,-226.32,313.96,843.14
4570,-3.8690,0.5200,-0.3955,1289.31,1798.10,-1563.23
4580,-3.8699,0.4253,-0.4285,-1429.44,1375.98,1342.96
4590,-3.8706,0.3337,-0.4586,-1554.44,1157.04,77.27
4600,-3.8712,0.2356,-0.4766,-1273.19,1297.49,967.83
4610,-3.8717,0.1317,-0.4890,-1835.69,-999.57,-0.98
4620,-3.8718,0.0233,-0.5023,867.43,1406.49,249.02
4630,-3.8719,-0.0896,-0.5137,-1007.57,-296.88,170.84
4640,-3.8721,-0.2078,-0.5227,539.31,-1734.56,-1016.66
4650,-3.8721,-0.3340,-0.5269,1414.31,1108.95,-47.91
4660,-3.8719,-0.4655,-0.5209,1258.06,577.45,1983.34
4670,-3.8718,-0.5891,-0.5048,429.93,1342.83,123.96
4680,-3.8718,-0.6897,-0.4918,601.81,-594.91,-1610.41
4690,-3.8717,-0.7659,-0.4929,-273.19,1061.10,1155.27
4700,-3.8716,-0.8324,-0.4978,1976.81,920.35,233.40
4710,-3.8716,-0.8975,-0.4886,1461.18,295.23,-1375.98
4720,-3.8716,-0.9507,-0.4633,1133.06,1466.98,-625.98
4730,-3.8716,-0.9855,-0.4369,-1679.44,716.86,-1672.79
4740,-3.8717,-1.0087,-0.4155,1867.43,91.80,-47.73
4750,-3.8717,-1.0316,-0.3932,-1101.32,-1173.89,546.02
4760,-3.8718,-1.0605,-0.3689,-38.82,1685.42,530.46
4770,-3.8719,-1.0891,-0.3441,258.06,794.80,843.02
4780,-3.8721,-1.1080,-0.3180,601.81,-33.39,-1969.48
4790,-3.8721,-1.1107,-0.2854,-1820.07,-689.70,124.33
4800,-3.8722,-1.0983,-0.2454,1836.18,-517.82,-1000.61
4810,-3.8722,-1.0807,-0.2092,-570.07,607.18,-1875.49
4820,-3.8722,-1.0608,-0.1823,1679.93,1232.24,702.70
4830,-3.8723,-1.0334,-0.1694,226.81,685.42,-1187.87
4840,-3.8723,-0.9944,-0.1735,-273.19,-1673.95,1155.88
4850,-3.8723,-0.9467,-0.1804,726.81,1810.55,577.76
4860,-3.8723,-0.8987,-0.1747,-1163.82,919.98,1734.01
4870,-3.8723,-0.8553,-0.1555,976.81,1654.48,-297.24
4880,-3.8722,-0.8131,-0.1343,-1476.32,107.67,999.69
4890,-3.8722,-0.7714,-0.1136,-70.07,-1173.52,968.44
4900,-3.8723,-0.7319,-0.0886,1273.68,1467.22,-484.62
4910,-3.8723,-0.6884,-0.0621,-1679.44,670.41,1109.19
4920,-3.8724,-0.6329,-0.0424,-101.32,61.10,-1265.75
4930,-3.8724,-0.5626,-0.0201,-1007.57,-1407.53,1124.88
4940,-3.8726,-0.4786,0.0208,-7.57,1436.34,-296.94
4950,-3.8726,-0.3741,0.0764,-1257.57,-1329.10,1515.62
4960,-3.8727,-0.2285,0.1309,117.43,1796.14,-1687.38
4970,-3.8728,-0.0238,0.1764,-1241.94,765.14,-1671.63
4980,-3.8729,0.2417,0.2091,961.18,-1406.31,-1765.32
4990,-3.8730,0.5652,0.2274,-1054.44,-1233.95,-327.76
5000,-3.8729,0.9781,0.2380,351.81,1110.47,922.30
5010,-3.8728,1.4552,0.2515,1211.18,-1529.36,391.05
5020,-3.8727,1.8925,0.2838,-1726.32,190.31,1359.86
5030,-3.8724,2.1735,0.3268,-1757.57,331.79,-593.20
5040,-3.8718,2.2006,0.3448,-1788.82,1832.34,1875.61
5050,-3.8710,1.9961,0.3175,1679.93,144.90,1156.92
5060,-3.8700,1.6881,0.2555,-491.94,644.47,1375.61
5070,-3.8690,1.3971,0.2018,86.18,706.42,1078.61
5080,-3.8683,1.1833,0.1765,-1163.82,1830.81,-640.26
5090,-3.8677,1.0520,0.1642,-523.19,-1403.99,453.43
5100,-3.8676,0.9705,0.1465,-1335.69,1017.64,1859.68
5110,-3.8678,0.9060,0.1168,226.81,-1248.11,-1749.76
5120,-3.8684,0.8505,0.0857,-23.19,-1045.17,-1218.57
5130,-3.8691,0.8005,0.0515,867.43,-1029.60,500.12
5140,-3.8700,0.7434,0.0098,-1523.19,-1404.72,1906.31
5150,-3.8707,0.6619,-0.0319,-835.69,1251.40,-1296.88
5160,-3.8713,0.5525,-0.0768,726.81,-76.84,-281.37
5170,-3.8717,0.4271,-0.1232,-1273.19,-1827.09,1249.82
5180,-3.8721,0.2999,-0.1622,-1320.07,235.17,-953.37
5190,-3.8722,0.1848,-0.2006,-1601.32,-765.08,187.13
5200,-3.8723,0.0874,-0.2445,-335.69,-1671.57,124.57
5210,-3.8724,-0.0017,-0.2889,-804.44,703.25,-1203.61
5220,-3.8724,-0.0972,-0.3309,-210.69,-968.81,-63.11
5230,-3.8723,-0.2017,-0.3749,-429.44,1656.01,-1016.30
5240,-3.8722,-0.3121,-0.4213,-1804.44,30.82,-266.36
5250,-3.8719,-0.4272,-0.4611,54.93,-1906.86,-1532.10
5260,-3.8717,-0.5406,-0.4976,1320.56,999.15,-1063.42
5270,-3.8715,-0.6390,-0.5459,-1195.07,327.03,-0.98
5280,-3.8711,-0.7185,-0.6013,-1788.82,-1860.66,545.78
5290,-3.8710,-0.7766,-0.6406,39.31,-954.53,-251.22
5300,-3.8707,-0.8079,-0.6588,601.81,-1985.90,1061.22
5310,-3.8706,-0.8173,-0.6620,601.81,-314.09,733.03
5320,-3.8706,-0.8203,-0.6482,-601.32,-720.40,-1173.22
5330,-3.8706,-0.8297,-0.6188,-991.94,1045.23,-704.41
5340,-3.8706,-0.8406,-0.5856,1804.93,810.85,1873.78
5350,-3.8707,-0.8459,-0.5563,414.31,1060.85,-1548.03
5360,-3.8708,-0.8503,-0.5248,-273.19,810.79,1811.40
5370,-3.8710,-0.8579,-0.4904,-835.69,842.04,795.84
5380,-3.8712,-0.8735,-0.4557,-1804.44,1248.29,-188.48
5390,-3.8713,-0.9019,-0.4215,195.56,1685.79,-797.79
5400,-3.8715,-0.9305,-0.3851,570.56,-1939.27,-875.85
5410,-3.8716,-0.9431,-0.3445,898.68,-1283.08,-469.54
5420,-3.8716,-0.9415,-0.3043,-710.69,-80.02,124.27
5430,-3.8717,-0.9307,-0.2621,-507.57,1060.61,530.64
5440,-3.8718,-0.9076,-0.2107,883.06,-1533.08,890.08
5450,-3.8719,-0.8726,-0.1527,-163.82,1045.04,1421.45
5460,-3.8721,-0.8340,-0.0973,320.56,467.04,1937.19
5470,-3.8722,-0.7987,-0.0507,1258.06,-439.15,-1906.49
5480,-3.8723,-0.7627,-0.0112,1773.68,1529.66,1937.38
5490,-3.8724,-0.7229,0.0231,-1616.94,-1423.40,1812.44
5500,-3.8726,-0.6787,0.0548,-523.19,-1032.71,-1984.38
5510,-3.8727,-0.6273,0.0912,1133.06,-970.09,-1687.44
5520,-3.8728,-0.5673,0.1294,-288.82,-313.78,-1218.63
5530,-3.8729,-0.4966,0.1633,-601.32,576.97,-140.38
5540,-3.8729,-0.4167,0.1948,445.56,920.90,1328.43
5550,-3.8730,-0.3298,0.2240,-1335.69,952.27,-1296.51
5560,-3.8732,-0.2225,0.2439,1789.31,686.83,-30.82
5570,-3.8732,-0.0800,0.2504,-476.32,-766.11,-1765.20
5580,-3.8732,0.0989,0.2468,1773.68,62.32,-1468.26
5590,-3.8730,0.3206,0.2371,664.31,-406.07,1109.80
5600,-3.8729,0.5936,0.2175,1039.31,-1655.64,1437.93
5610,-3.8728,0.9288,0.1897,-7.57,-155.15,-1437.13
5620,-3.8726,1.3016,0.1722,-1101.32,283.02,1609.74
5630,-3.8722,1.6282,0.1786,-1382.57,-1950.62,1656.56
5640,-3.8716,1.8177,0.1938,414.31,-1137.45,750.31
5650,-3.8708,1.8279,0.1912,679.93,816.04,-1609.01
5660,-3.8699,1.6951,0.1525,1976.81,472.29,469.12
5670,-3.8690,1.5085,0.1008,976.81,-481.08,-1265.38
5680,-3.8683,1.3395,0.0658,1101.81,909.18,-406.07
5690,-3.8677,1.1987,0.0374,-538.82,424.44,500.12
5700,-3.8674,1.0699,0.0023,1445.56,783.57,656.31
5710,-3.8676,0.9459,-0.0466,961.18,298.95,-1718.75
5720,-3.8679,0.8223,-0.1024,1086.18,-1966.92,1031.13
5730,-3.8687,0.7024,-0.1387,1258.06,-1107.79,-890.87
5740,-3.8694,0.5839,-0.1583,1914.31,-1748.66,640.32
5750,-3.8702,0.4666,-0.1823,-1257.57,-264.53,-1422.24
5760,-3.8708,0.3546,-0.2123,-273.19,672.73,515.26
5770,-3.8715,0.2434,-0.2405,1398.68,828.80,-94.18
5780,-3.8717,0.1288,-0.2584,-835.69,1219.18,296.39
5790,-3.8719,0.0128,-0.2692,492.43,-1077.88,827.58
5800,-3.8721,-0.0981,-0.2761,1648.68,1546.88,811.95
5810,-3.8722,-0.2046,-0.2811,-554.44,671.63,-375.55
5820,-3.8721,-0.3096,-0.2910,1820.56,30.82,515.08
5830,-3.8721,-0.4178,-0.3063,383.06,-1234.99,-1141.24
5840,-3.8719,-0.5312,-0.3193,-1476.32,811.65,-1500.61
5850,-3.8718,-0.6442,-0.3317,8.06,-860.41,-1219.42
5860,-3.8717,-0.7546,-0.3464,1554.93,1561.22,-1297.55
5870,-3.8716,-0.8661,-0.3562,-585.69,-329.65,1593.02
5880,-3.8716,-0.9731,-0.3533,1148.68,-1579.83,-969.48
5890,-3.8716,-1.0580,-0.3401,-554.44,-1205.08,-922.61
5900,-3.8716,-1.1072,-0.3289,586.18,482.30,-1953.80
5910,-3.8716,-1.1259,-0.3247,-1710.69,1919.68,358.70
5920,-3.8717,-1.1234,-0.3135,-101.32,-1549.13,-1391.30
5930,-3.8717,-1.1089,-0.2839,211.18,-111.57,702.45
5940,-3.8718,-1.0878,-0.2389,-1929.44,-330.32,-1688.11
5950,-3.8719,-1.0557,-0.1887,773.68,1435.36,-562.99
5960,-3.8719,-1.0120,-0.1464,883.06,-142.70,249.57
5970,-3.8721,-0.9628,-0.1133,-1523.19,1279.24,1171.57
5980,-3.8722,-0.9189,-0.0873,773.68,1513.73,-1140.87
5990,-3.8722,-0.8872,-0.0706,-1616.94,841.92,1202.94
6000,-3.8723,-0.8650,-0.0614,-1554.44,-1017.40,-437.68
6010,-3.8723,-0.8411,-0.0562,1289.31,154.54,-1625.12
6020,-3.8723,-0.8052,-0.0538,351.81,826.48,-1937.62
6030,-3.8723,-0.7587,-0.0504,945.56,1123.41,-1922.00
6040,-3.8723,-0.7087,-0.0427,-1101.32,1560.97,1859.25
6050,-3.8723,-0.6566,-0.0283,1289.31,-1454.53,1593.63
6060,-3.8723,-0.5974,-0.0074,-38.82,389.28,1343.69
6070,-3.8723,-0.5248,0.0144,-460.69,-938.72,265.56
6080,-3.8724,-0.4281,0.0343,836.18,1858.34,-1953.12
6090,-3.8726,-0.2935,0.0488,1211.18,405.40,-859.31
6100,-3.8726,-0.1067,0.0472,-1554.44,-1734.99,390.69
6110,-3.8727,0.1498,0.0260,-1648.19,-1937.74,-1406.19
6120,-3.8727,0.4888,0.0048,-820.07,-671.63,-843.75
6130,-3.8724,0.8955,-0.0007,-1429.44,610.29,437.50
6140,-3.8722,1.3076,0.0170,-1366.94,-92.04,-750.06
6150,-3.8717,1.6417,0.0596,-616.94,-1825.62,-906.25
6160,-3.8710,1.8224,0.1045,-1851.32,-371.83,312.56
6170,-3.8702,1.8330,0.1285,1273.68,1378.54,1593.93
6180,-3.8695,1.7373,0.1398,-1366.94,456.67,-859.13
6190,-3.8688,1.6018,0.1538,-1616.94,1893.98,1453.37
6200,-3.8683,1.4760,0.1760,1039.31,-309.39,-1031.01
6210,-3.8679,1.3766,0.2026,929.93,-1465.88,-1921.57
6220,-3.8679,1.2830,0.2051,211.18,1940.19,-62.13
6230,-3.8682,1.1830,0.1785,226.81,-1747.50,-812.13
6240,-3.8687,1.0731,0.1506,-570.07,-1153.99,1328.43
6250,-3.8694,0.9540,0.1281,1367.43,-716.67,-1749.76
6260,-3.8701,0.8461,0.0946,-1882.57,392.46,-1702.88
6270,-3.8707,0.7555,0.0503,304.93,111.02,297.06
6280,-3.8713,0.6631,0.0034,711.18,-1561.04,1828.19
6290,-3.8718,0.5562,-0.0417,883.06,438.78,-640.62
6300,-3.8721,0.4312,-0.0818,-804.44,-1342.71,593.63
6310,-3.8723,0.2969,-0.1183,-804.44,1532.04,937.32
6320,-3.8726,0.1665,-0.1598,-1991.94,859.92,-672.12
6330,-3.8727,0.0400,-0.2120,1320.56,-452.82,-625.37
6340,-3.8727,-0.0935,-0.2705,1133.06,859.44,1374.57
6350,-3.8727,-0.2419,-0.3312,39.31,1390.44,827.58
6360,-3.8727,-0.4045,-0.3910,1039.31,1624.51,1296.20
6370,-3.8727,-0.5698,-0.4471,226.81,1967.96,-485.17
6380,-3.8724,-0.7235,-0.5044,-929.44,-1219.91,295.96
6390,-3.8723,-0.8643,-0.5695,-601.32,-548.34,-422.91
6400,-3.8719,-0.9856,-0.6421,1383.06,-876.71,373.84
6410,-3.8717,-1.0771,-0.7177,1851.81,1826.17,1592.47
6420,-3.8715,-1.1396,-0.7874,-1866.94,154.11,-954.53
6430,-3.8711,-1.1808,-0.8346,-1866.94,-767.88,810.91
6440,-3.8708,-1.2040,-0.8508,867.43,1185.18,-1501.65
6450,-3.8706,-1.2079,-0.8397,1898.68,-893.01,-892.33
6460,-3.8704,-1.1899,-0.8087,1398.68,528.87,1342.10
6470,-3.8702,-1.1451,-0.7610,-304.44,497.62,232.79
6480,-3.8704,-1.0765,-0.6968,1429.93,-1392.88,-845.28
6490,-3.8705,-1.0011,-0.6207,-1788.82,-1174.01,1701.72
6500,-3.8707,-0.9323,-0.5396,-132.57,560.49,608.15
6510,-3.8711,-0.8743,-0.4580,679.93,-1048.71,-1954.22
6520,-3.8713,-0.8264,-0.3813,101.81,1388.92,124.08
6530,-3.8717,-0.7823,-0.3135,-1773.19,-798.52,-188.29
6540,-3.8718,-0.7307,-0.2523,-132.57,-110.96,1374.33
6550,-3.8719,-0.6638,-0.1951,-1523.19,-282.71,749.45
6560,-3.8721,-0.5837,-0.1348,-960.69,-954.47,1358.95
6570,-3.8722,-0.4940,-0.0754,1289.31,-1235.53,-953.43
6580,-3.8722,-0.3965,-0.0234,773.68,-1641.60,1499.82
6590,-3.8722,-0.2883,0.0231,1258.06,1014.83,406.19
6600,-3.8722,-0.1630,0.0642,-898.19,-1031.86,250.00
6610,-3.8722,-0.0238,0.1077,-851.32,234.01,1140.75
6620,-3.8722,0.1289,0.1602,961.18,1796.81,-1124.82
6630,-3.8721,0.3091,0.2191,508.06,500.24,1344.06
6640,-3.8719,0.5109,0.2747,-429.44,47.42,719.18
6650,-3.8718,0.7290,0.3125,1398.68,-842.77,1922.36
6660,-3.8716,0.9447,0.3223,1320.56,1.40,1672.49
6670,-3.8712,1.1090,0.3209,929.93,1251.83,47.49
6680,-3.8708,1.1758,0.3296,1961.18,1080.26,844.36
6690,-3.8705,1.1360,0.3453,-1491.94,-1810.24,-811.89
6700,-3.8700,1.0291,0.3549,1414.31,205.32,953.80
6710,-3.8696,0.9082,0.3502,-273.19,1423.83,63.17
6720,-3.8695,0.8124,0.3357,258.06,829.90,-1061.83
6730,-3.8694,0.7379,0.3171,-7.57,-1029.72,563.11
6740,-3.8695,0.6643,0.3032,-1538.82,595.15,1109.99
6750,-3.8698,0.5743,0.2921,1039.31,-1186.22,844.30
6760,-3.8701,0.4655,0.2743,1523.68,1391.72,750.55
6770,-3.8706,0.3469,0.2484,-413.82,-889.77,-1124.51
6780,-3.8710,0.2284,0.2163,414.31,-202.45,1328.55
6790,-3.8713,0.1171,0.1766,1242.43,-312.07,1594.12
6800,-3.8716,0.0142,0.1317,-1007.57,-1390.44,250.31
6810,-3.8718,-0.0854,0.0911,1820.56,859.38,1531.49
6820,-3.8719,-0.1890,0.0590,1070.56,-328.31,1437.62
6830,-3.8721,-0.2948,0.0320,-179.44,-437.93,-406.19
6840,-3.8721,-0.3988,0.0076,-1726.32,108.76,-765.56
6850,-3.8721,-0.4978,-0.0193,961.18,983.58,-296.88
6860,-3.8719,-0.5906,-0.0547,289.31,1545.90,953.06
6870,-3.8719,-0.6812,-0.0947,414.31,1014.47,-578.25
6880,-3.8718,-0.7748,-0.1305,820.56,-110.72,-640.87
6890,-3.8717,-0.8622,-0.1588,836.18,-689.03,-47.18
6900,-3.8716,-0.9308,-0.1818,1648.68,-314.21,-0.37
6910,-3.8715,-0.9724,-0.2025,867.43,748.17,-1078.49
6920,-3.8713,-0.9801,-0.2203,-460.69,-1908.20,671.45
6930,-3.8713,-0.9537,-0.2321,-1445.07,-189.45,1624.51
6940,-3.8713,-0.9064,-0.2324,1929.93,-1689.39,-1797.36
6950,-3.8713,-0.8568,-0.2128,-7.57,-1736.21,-1687.99
6960,-3.8713,-0.8109,-0.1769,-1663.82,779.54,1608.95
6970,-3.8713,-0.7585,-0.1368,211.18,1373.41,77.76
6980,-3.8715,-0.6907,-0.0963,-1085.69,-1501.53,1952.82
6990,-3.8716,-0.6069,-0.0536,-398.19,-313.90,-609.62
7000,-3.8716,-0.5138,-0.0103,-1679.44,1155.03,484.25
7010,-3.8717,-0.4233,0.0316,-1757.57,-1297.91,1499.94
7020,-3.8718,-0.3423,0.0702,1820.56,61.65,-984.31
7030,-3.8718,-0.2566,0.1029,195.56,999.33,1140.75
7040,-3.8719,-0.1604,0.1304,-835.69,1186.95,-187.32
7050,-3.8719,-0.0470,0.1584,-523.19,702.76,-296.63
7060,-3.8718,0.0999,0.1860,1992.43,296.75,1281.56
7070,-3.8717,0.2693,0.2083,789.31,-187.32,797.18
7080,-3.8716,0.4351,0.2290,-1523.19,-1343.26,-1718.38
7090,-3.8713,0.5848,0.2557,-304.44,1313.29,1703.55
7100,-3.8711,0.7159,0.2844,-1132.57,735.47,-968.26
7110,-3.8707,0.8204,0.3042,-351.32,407.59,906.80
7120,-3.8705,0.8807,0.3120,1023.68,-1060.91,-1702.58
7130,-3.8702,0.8934,0.3110,742.43,-60.79,-749.45
7140,-3.8700,0.8661,0.3042,-1632.57,-185.79,-843.20
7150,-3.8698,0.8030,0.2944,-1132.57,-1060.85,969.30
7160,-3.8698,0.7197,0.2841,-1210.69,1689.03,-905.70
7170,-3.8698,0.6256,0.2692,133.06,360.78,531.80
7180,-3.8700,0.5238,0.2520,86.18,-1545.65,1719.24
7190,-3.8704,0.4128,0.2321,-945.07,250.98,-93.26
7200,-3.8706,0.3002,0.2125,851.81,1703.92,703.55
7210,-3.8710,0.1904,0.1930,-1570.07,-796.33,1515.99
7220,-3.8713,0.0819,0.1655,383.06,703.49,-640.26
7230,-3.8716,-0.0211,0.1294,-1507.57,1187.62,-1187.19
7240,-3.8717,-0.1212,0.0900,1304.93,578.06,78.37
7250,-3.8719,-0.2213,0.0559,492.43,-468.99,-843.63
7260,-3.8721,-0.3251,0.0262,-320.07,-828.61,-31.19
7270,-3.8721,-0.4359,-0.0037,-1601.32,-625.67,-1687.50
7280,-3.8721,-0.5564,-0.0421,211.18,-453.98,1671.81
7290,-3.8721,-0.6794,-0.0980,789.31,-1376.10,1531.13
7300,-3.8721,-0.7953,-0.1647,1039.31,-532.59,-1578.37
7310,-3.8719,-0.9067,-0.2222,-1788.82,-1064.09,937.13
7320,-3.8718,-1.0096,-0.2635,-54.44,-423.71,952.64
7330,-3.8717,-1.0914,-0.3008,-1226.32,-1720.76,1702.58
7340,-3.8716,-1.1403,-0.3457,304.93,1513.49,-1750.61
7350,-3.8715,-1.1481,-0.4023,-1945.07,-236.63,-1703.86
7360,-3.8713,-1.1177,-0.4590,1054.93,513.37,-1891.42
7370,-3.8712,-1.0630,-0.4944,945.56,1263.43,1608.46
7380,-3.8711,-0.9974,-0.5039,-54.44,732.24,358.40
7390,-3.8711,-0.9211,-0.4937,336.18,-486.33,-1672.91
7400,-3.8711,-0.8414,-0.4620,-1898.19,826.29,-969.73
7410,-3.8711,-0.7614,-0.4026,304.93,873.35,1905.33
7420,-3.8712,-0.6664,-0.3203,-1445.07,482.85,-1188.29
7430,-3.8713,-0.5488,-0.2390,-1288.82,-985.72,1780.58
7440,-3.8716,-0.4036,-0.1741,1758.06,1420.78,-250.49
7450,-3.8717,-0.2496,-0.1202,351.81,1733.58,1968.38
7460,-3.8718,-0.0923,-0.0671,54.93,624.51,1406.01
7470,-3.8719,0.0835,-0.0057,195.56,-578.31,-890.81
7480,-3.8719,0.2791,0.0641,-1304.44,-734.25,-734.44
7490,-3.8718,0.4996,0.1310,-273.19,203.61,1625.12
7500,-3.8717,0.7551,0.1877,-38.82,766.54,-1421.63
7510,-3.8715,1.0229,0.2325,664.31,32.71,1719.12
7520,-3.8712,1.2531,0.2715,-1054.44,1767.58,-1390.20
7530,-3.8708,1.4171,0.3088,398.68,-1247.56,-1530.76
7540,-3.8704,1.4996,0.3346,1398.68,-466.00,1531.80
7550,-3.8699,1.5039,0.3405,-38.82,-1169.01,-1655.64
7560,-3.8694,1.4514,0.3315,508.06,-418.95,-1421.26
7570,-3.8690,1.3639,0.3206,1789.31,-1559.69,-124.39
7580,-3.8688,1.2622,0.3134,-1413.82,1033.87,-327.51
7590,-3.8688,1.1606,0.3026,1570.56,111.82,-218.14
7600,-3.8690,1.0613,0.2773,570.56,-1263.37,-436.95
7610,-3.8694,0.9573,0.2334,-148.19,-497.99,359.86
7620,-3.8700,0.8409,0.1775,-1460.69,1876.83,1219.18
7630,-3.8706,0.7148,0.1113,-351.32,-1279.66,1734.68
7640,-3.8711,0.5876,0.0300,-491.94,-1748.66,750.18
7650,-3.8716,0.4585,-0.0573,-773.19,-155.15,-640.62
7660,-3.8718,0.3243,-0.1459,-1304.44,672.73,1218.63
7670,-3.8721,0.1899,-0.2340,1523.68,1328.74,-1953.43
7680,-3.8722,0.0527,-0.3105,320.56,-1952.76,1358.89
7690,-3.8723,-0.0922,-0.3778,-1241.94,250.06,-1969.36
7700,-3.8724,-0.2455,-0.4491,211.18,-343.93,-860.17
7710,-3.8724,-0.4050,-0.5233,586.18,-1469.24,530.33
7720,-3.8726,-0.5717,-0.5912,164.31,1030.46,-1469.79
7730,-3.8726,-0.7474,-0.6454,-1163.82,342.59,1905.09
7740,-3.8726,-0.9319,-0.6826,336.18,1404.79,-454.41
7750,-3.8724,-1.1134,-0.7037,726.81,638.79,-438.84
7760,-3.8722,-1.2694,-0.7260,1492.43,1935.30,1467.35
7770,-3.8719,-1.3798,-0.7634,1523.68,-908.75,1139.16
7780,-3.8717,-1.4374,-0.8021,-601.32,-1705.87,1435.97
7790,-3.8715,-1.4486,-0.8202,23.68,1340.94,795.29
7800,-3.8713,-1.4271,-0.8054,-1413.82,-971.62,-1345.40
7810,-3.8712,-1.3849,-0.7592,1336.18,919.07,-1517.21
7820,-3.8712,-1.3307,-0.6860,-1257.57,-1159.00,-360.90
7830,-3.8712,-1.2689,-0.5952,1679.93,200.50,1889.28
7840,-3.8713,-1.1978,-0.5059,1586.18,-174.38,1342.53
7850,-3.8716,-1.1196,-0.4308,-1304.44,-736.76,-1344.79
7860,-3.8718,-1.0427,-0.3636,695.56,872.80,-672.73
7870,-3.8719,-0.9757,-0.2966,-1460.69,1466.67,264.89
7880,-3.8722,-0.9198,-0.2341,-882.57,-1955.08,1780.64
7890,-3.8723,-0.8684,-0.1787,-1726.32,-1954.96,280.76
7900,-3.8724,-0.8171,-0.1310,851.81,1138.92,202.76
7910,-3.8726,-0.7662,-0.0914,-585.69,-751.65,1780.94
7920,-3.8726,-0.7172,-0.0580,1929.93,310.97,765.44
7930,-3.8726,-0.6711,-0.0291,211.18,592.35,812.38
7940,-3.8726,-0.6276,-0.0023,-1898.19,295.53,1609.31
7950,-3.8726,-0.5818,0.0228,-320.07,-282.53,-1375.06
7960,-3.8726,-0.5262,0.0493,1539.31,-1063.66,-546.88
7970,-3.8726,-0.4537,0.0809,648.68,-1672.91,-62.44
7980,-3.8724,-0.3647,0.1150,1929.93,-1625.92,47.00
7990,-3.8724,-0.2628,0.1484,1320.56,-1266.36,125.18
8000,-3.8724,-0.1572,0.1813,-1632.57,-984.92,797.12
8010,-3.8724,-0.0576,0.2169,-116.94,-781.62,-1749.69
8020,-3.8724,0.0449,0.2548,633.06,-218.87,-187.13
8030,-3.8723,0.1716,0.2905,1758.06,609.44,1641.11
8040,-3.8722,0.3275,0.3265,1976.81,1187.81,656.80
8050,-3.8721,0.4891,0.3616,1929.93,1797.49,1422.49
8060,-3.8718,0.6287,0.3813,-1382.57,-1717.83,63.17
8070,-3.8716,0.7351,0.3772,476.81,813.72,531.98
8080,-3.8713,0.7899,0.3560,-1898.19,282.65,-1327.39
8090,-3.8710,0.7922,0.3357,1117.43,1564.03,-1468.08
8100,-3.8706,0.7599,0.3195,1414.31,-1029.72,-77.51
8110,-3.8701,0.7190,0.3010,1273.68,892.09,1547.49
8120,-3.8698,0.6943,0.2758,39.31,-1467.35,1781.80
8130,-3.8695,0.6825,0.2434,883.06,-701.78,-702.64
8140,-3.8693,0.6678,0.2117,-632.57,-842.47,875.43
8150,-3.8693,0.6310,0.1780,1492.43,-904.97,1594.12
8160,-3.8694,0.5714,0.1411,773.68,-1217.53,1578.43
8170,-3.8696,0.4965,0.1064,1148.68,-1936.40,-1781.01
8180,-3.8699,0.4180,0.0823,-445.07,1625.92,1328.31
8190,-3.8701,0.3424,0.0709,1508.06,-1467.96,62.62
8200,-3.8705,0.2700,0.0663,-163.82,1078.74,-1156.13
8210,-3.8707,0.1987,0.0616,-1429.44,484.86,1953.25
8220,-3.8710,0.1223,0.0532,1445.56,-109.01,-1812.44
8230,-3.8711,0.0375,0.0419,-335.69,-1187.32,421.94
8240,-3.8712,-0.0574,0.0298,804.93,1359.44,328.19
8250,-3.8713,-0.1567,0.0137,664.31,-172.00,656.25
8260,-3.8715,-0.2632,-0.0166,-54.44,1765.26,703.12
8270,-3.8716,-0.3896,-0.0620,-1679.44,1890.08,703.06
8280,-3.8717,-0.5438,-0.1156,-1866.94,77.33,749.88
8290,-3.8718,-0.7162,-0.1729,-1601.32,1217.65,827.88
8300,-3.8719,-0.8849,-0.2252,336.18,1889.22,1218.38
8310,-3.8721,-1.0385,-0.2595,-1257.57,-814.27,-1828.61
8320,-3.8721,-1.1738,-0.2709,-913.82,-1205.20,77.58
8330,-3.8722,-1.2877,-0.2633,1758.06,1341.43,-859.92
8340,-3.8722,-1.3822,-0.2487,-820.07,-1690.06,-781.80
8350,-3.8722,-1.4479,-0.2429,-913.82,184.75,-391.11
8360,-3.8722,-1.4661,-0.2520,-1320.07,919.01,-766.11
8370,-3.8722,-1.4250,-0.2678,351.81,-237.24,1749.45
8380,-3.8723,-1.3259,-0.2819,1601.81,1731.57,-156.80
8390,-3.8723,-1.1913,-0.2966,-1710.69,-65.12,-1219.36
8400,-3.8723,-1.0516,-0.3018,-476.32,-1955.51,-953.74
8410,-3.8722,-0.9227,-0.2777,1398.68,1388.55,108.76
8420,-3.8722,-0.8055,-0.2268,1898.68,466.92,1108.83
8430,-3.8722,-0.6893,-0.1669,898.68,-1017.21,1702.64
8440,-3.8722,-0.5555,-0.1138,-226.32,-1345.15,1812.13
8450,-3.8722,-0.4014,-0.0715,898.68,1452.03,1077.88
8460,-3.8723,-0.2385,-0.0402,633.06,-1141.42,-93.93
8470,-3.8723,-0.0671,-0.0205,1476.81,-1125.49,-672.00
8480,-3.8723,0.1219,-0.0089,-585.69,1390.44,-421.94
8490,-3.8722,0.3239,-0.0023,-382.57,-1140.44,906.19
8500,-3.8721,0.5236,0.0062,1461.18,-296.26,390.56
8510,-3.8719,0.7083,0.0190,-976.32,797.85,-921.88
8520,-3.8716,0.8708,0.0392,-1335.69,-1561.16,875.00
8530,-3.8712,0.9839,0.0707,-523.19,1017.27,921.94
8540,-3.8708,1.0388,0.1056,1945.56,1048.77,-1937.38
8550,-3.8705,1.0538,0.1326,976.81,1517.64,-1187.32
8560,-3.8701,1.0393,0.1516,-1101.32,970.76,-1687.26
8570,-3.8698,1.0200,0.1730,1039.31,-591.74,250.24
8580,-3.8695,1.0100,0.1979,-1429.44,-1857.42,62.81
8590,-3.8694,1.0134,0.2185,1289.31,1330.08,1640.99
8600,-3.8693,1.0221,0.2166,1726.81,-29.30,844.12
8610,-3.8693,1.0132,0.1865,-1163.82,-279.30,1219.12
8620,-3.8694,0.9712,0.1455,1695.56,-123.05,-780.94
8630,-3.8695,0.8912,0.1110,320.56,-1373.11,-374.76
8640,-3.8696,0.7856,0.0840,-1913.82,-1795.17,-1359.19
8650,-3.8698,0.6790,0.0569,570.56,-1248.47,312.62
8660,-3.8700,0.5811,0.0312,-1085.69,-717.47,593.81
8670,-3.8704,0.4937,0.0121,-1616.94,1.10,-171.81
8680,-3.8706,0.4154,-0.0037,-804.44,1547.79,-968.75
8690,-3.8708,0.3435,-0.0251,1179.93,-467.96,-1000.06
8700,-3.8710,0.2838,-0.0482,-23.19,781.86,31.19
8710,-3.8712,0.2156,-0.0668,336.18,1828.67,-1000.12
8720,-3.8712,0.1235,-0.0820,-398.19,-546.51,46.69
8730,-3.8713,0.0214,-0.0967,-179.44,1500.18,-1984.56
8740,-3.8715,-0.0789,-0.1157,-1257.57,-375.00,-15.87
8750,-3.8715,-0.1680,-0.1400,1914.31,1202.94,1702.88
8760,-3.8716,-0.2469,-0.1628,-1491.94,-1906.62,-422.18
8770,-3.8716,-0.3192,-0.1765,398.68,-828.61,1999.63
8780,-3.8716,-0.3870,-0.1840,-851.32,1421.20,1187.13
8790,-3.8716,-0.4521,-0.1927,-1523.19,467.96,968.38
8800,-3.8716,-0.5194,-0.2014,-1866.94,-657.17,1030.82
8810,-3.8716,-0.5902,-0.2092,1523.68,-1766.66,1390.20
8820,-3.8716,-0.6619,-0.2241,461.18,1233.22,-1906.68
8830,-3.8716,-0.7368,-0.2451,-710.69,-673.22,-937.99
8840,-3.8716,-0.8159,-0.2626,1695.56,639.16,-109.86
8850,-3.8715,-0.8926,-0.2725,-429.44,-1595.40,280.70
8860,-3.8715,-0.9613,-0.2766,1758.06,1138.85,202.58
8870,-3.8716,-1.0203,-0.2781,961.18,607.48,-328.67
8880,-3.8716,-1.0604,-0.2750,1414.31,419.86,-1141.17
8890,-3.8716,-1.0732,-0.2656,273.68,810.42,1811.95
8900,-3.8716,-1.0627,-0.2517,-1366.94,-1986.51,577.58
8910,-3.8717,-1.0363,-0.2310,-23.19,-205.26,-1031.80
8920,-3.8717,-0.9949,-0.1962,-632.57,-1548.95,780.76
8930,-3.8718,-0.9373,-0.1470,664.31,-1095.70,-1828.55
8940,-3.8719,-0.8651,-0.0908,39.31,1201.29,-594.06
8950,-3.8719,-0.7759,-0.0341,1273.68,388.92,374.82
8960,-3.8721,-0.6642,0.0166,695.56,-345.28,1015.50
8970,-3.8722,-0.5226,0.0586,-1007.57,-1860.72,1593.75
8980,-3.8723,-0.3590,0.1052,1117.43,-485.41,-1484.31
8990,-3.8724,-0.1779,0.1648,-1945.07,1483.64,-15.44
9000,-3.8724,0.0372,0.2214,1242.43,1109.01,-1609.07
9010,-3.8724,0.2927,0.2560,773.68,343.81,-1202.70
9020,-3.8723,0.5649,0.2679,1476.81,766.17,-1530.76
9030,-3.8721,0.8342,0.2671,320.56,-1702.03,-1812.01
9040,-3.8717,1.0743,0.2566,-1210.69,-1810.91,-1952.64
9050,-3.8712,1.2377,0.2479,1523.68,845.83,-1296.39
9060,-3.8705,1.2880,0.2548,-1570.07,-263.24,344.18
9070,-3.8698,1.2222,0.2708,867.43,611.88,531.74
9080,-3.8691,1.0917,0.2883,445.56,-1341.37,-1015.14
9090,-3.8687,0.9558,0.3013,-257.57,908.33,-1046.33
9100,-3.8684,0.8492,0.3024,-1648.19,-1435.67,1641.17
9110,-3.8685,0.7732,0.2874,711.18,-1295.23,-1265.08
9120,-3.8689,0.7024,0.2511,-1023.19,782.71,-718.20
9130,-3.8694,0.6154,0.1956,1914.31,141.97,1594.24
9140,-3.8700,0.5142,0.1338,-1226.32,1032.41,890.99
9150,-3.8706,0.4047,0.0698,1820.56,1125.98,843.99
9160,-3.8712,0.2854,0.0104,-195.07,938.23,-46.75
9170,-3.8716,0.1711,-0.0365,539.31,1328.67,-1062.50
9180,-3.8718,0.0769,-0.0746,1914.31,-671.57,1406.13
9190,-3.8721,-0.0062,-0.1074,1851.81,-1546.75,-968.93
9200,-3.8722,-0.0938,-0.1420,-788.82,-1734.44,-125.24
9210,-3.8722,-0.1912,-0.1854,8.06,1843.57,-672.18
9220,-3.8721,-0.3011,-0.2322,-460.69,280.82,343.38
9230,-3.8721,-0.4237,-0.2670,1461.18,-1703.74,-1203.61
9240,-3.8719,-0.5481,-0.2920,1773.68,1842.90,-1094.30
9250,-3.8717,-0.6616,-0.3228,1851.81,-1360.47,186.89
9260,-3.8716,-0.7610,-0.3580,-679.44,-1298.22,-1813.17
9270,-3.8713,-0.8455,-0.3859,-1398.19,-1814.03,343.02
9280,-3.8712,-0.9120,-0.4017,-210.69,-1376.71,1780.46
9290,-3.8711,-0.9573,-0.4092,-726.32,591.92,1921.08
9300,-3.8710,-0.9774,-0.4073,1476.81,-361.27,171.02
9310,-3.8710,-0.9708,-0.3859,-1101.32,-126.95,327.27
9320,-3.8711,-0.9370,-0.3413,-257.57,-1376.95,-1203.92
9330,-3.8712,-0.8820,-0.2854,70.56,326.29,-31.92
9340,-3.8712,-0.8243,-0.2327,-882.57,-517.40,93.14
9350,-3.8715,-0.7800,-0.1876,-1507.57,-1767.27,-250.49
9360,-3.8716,-0.7537,-0.1475,164.31,-1.53,-203.55
9370,-3.8716,-0.7429,-0.1097,-460.69,1139.10,452.82
9380,-3.8717,-0.7373,-0.0770,914.31,1967.29,1452.88
9390,-3.8718,-0.7231,-0.0522,1633.06,-1845.21,-1234.56
9400,-3.8718,-0.6968,-0.0270,-554.44,1326.66,718.63
9410,-3.8719,-0.6626,0.0039,-1179.44,561.10,-562.56
9420,-3.8719,-0.6235,0.0347,-804.44,514.28,-1437.50
9430,-3.8719,-0.5811,0.0594,195.56,451.90,1546.94
9440,-3.8719,-0.5345,0.0801,1633.06,-376.16,593.81
9450,-3.8719,-0.4865,0.0999,-413.82,-1735.47,422.00
9460,-3.8719,-0.4407,0.1171,1742.43,795.90,1093.93
9470,-3.8719,-0.3956,0.1298,-398.19,-1000.92,-1843.57
9480,-3.8719,-0.3521,0.1403,1367.43,624.21,-796.63
9490,-3.8718,-0.3109,0.1506,-1054.44,1968.02,109.62
9500,-3.8718,-0.2720,0.1615,211.18,-703.74,922.12
9510,-3.8718,-0.2318,0.1736,1195.56,686.95,1922.18
9520,-3.8718,-0.1876,0.1865,-1663.82,-1766.11,-671.57
9530,-3.8717,-0.1439,0.2000,-7.57,-109.80,1109.68
9540,-3.8717,-0.1041,0.2118,1586.18,1609.07,-968.38
9550,-3.8716,-0.0648,0.2231,-1320.07,-875.24,1109.74
9560,-3.8716,-0.0287,0.2378,-288.82,577.94,-702.70
9570,-3.8715,-0.0029,0.2538,336.18,-1546.94,1391.05
9580,-3.8715,0.0206,0.2697,-366.94,499.94,-530.76
9590,-3.8713,0.0522,0.2836,-1351.32,-1484.38,1187.99
9600,-3.8713,0.0967,0.2908,-1304.44,296.94,-1718.20
9610,-3.8713,0.1511,0.2916,383.06,1218.93,-593.20
9620,-3.8712,0.2081,0.2870,-648.19,1328.37,1078.67
9630,-3.8712,0.2631,0.2736,-1351.32,734.74,-577.58
9640,-3.8711,0.3005,0.2542,1679.93,-983.89,-1499.51
9650,-3.8710,0.3126,0.2358,-1523.19,531.80,-1843.26
9660,-3.8708,0.3047,0.2164,23.68,-1811.89,-1905.82
9670,-3.8707,0.2749,0.1902,-991.94,-296.33,-1905.88
9680,-3.8706,0.2329,0.1638,-804.44,344.24,1875.37
9690,-3.8705,0.1869,0.1406,1820.56,969.18,750.31
9700,-3.8705,0.1350,0.1172,-70.07,-1999.69,-1906.01
9710,-3.8705,0.0815,0.0958,1289.31,-999.76,1687.68
9720,-3.8706,0.0280,0.0780,-1554.44,265.75,-327.94
9730,-3.8706,-0.0309,0.0615,-413.82,1984.38,859.50
9740,-3.8707,-0.0981,0.0409,54.93,-109.44,1875.06
9750,-3.8708,-0.1747,0.0170,-554.44,1249.76,-999.94
9760,-3.8708,-0.2606,-0.0006,1648.68,-1812.87,265.62
9770,-3.8710,-0.3551,-0.0071,-1351.32,-63.05,1656.19
9780,-3.8711,-0.4359,-0.0032,-1445.07,-891.36,-1140.69
9790,-3.8712,-0.5007,0.0039,211.18,-391.48,-890.69
9800,-3.8713,-0.5648,0.0095,-85.69,514.59,-1890.62
9810,-3.8715,-0.6154,0.0156,-288.82,1233.22,640.62
9820,-3.8717,-0.6493,0.0219,1242.43,-1985.60,-250.00
9830,-3.8718,-0.6721,0.0295,898.68,-1188.78,-109.38
9840,-3.8718,-0.6816,0.0414,1976.81,-204.47,890.62
9850,-3.8719,-0.6771,0.0547,758.06,1311.16,-1390.56
9860,-3.8719,-0.6554,0.0751,1336.18,-985.72,1078.19
9870,-3.8719,-0.6106,0.1129,117.43,1623.72,15.75
9880,-3.8721,-0.5398,0.1600,1851.81,-1532.47,-921.69
9890,-3.8721,-0.4398,0.2043,-1085.69,498.90,-1640.32
9900,-3.8721,-0.3090,0.2454,-288.82,-1829.04,1781.62
9910,-3.8721,-0.1345,0.2814,461.18,-578.74,1219.18
9920,-3.8721,0.0669,0.3140,-1210.69,30.94,1156.80
9930,-3.8721,0.2772,0.3420,570.56,187.62,-811.89
9940,-3.8718,0.4849,0.3575,-507.57,-218.26,266.24
9950,-3.8716,0.6531,0.3555,-1929.44,1766.54,94.42
9960,-3.8713,0.7595,0.3400,-398.19,1501.22,-1561.83
9970,-3.8710,0.8027,0.3242,1226.81,-482.91,-1390.01
9980,-3.8706,0.7898,0.3168,-1241.94,1501.53,-843.14
9990,-3.8702,0.7323,0.3131,1101.81,548.40,-1546.26
10000,-3.8700,0.6552,0.3098,1742.43,79.53,-936.89
10010,-3.8699,0.5747,0.3030,-132.57,-342.53,-421.33
10020,-3.8699,0.4976,0.2820,1570.56,-1217.65,-421.33
10030,-3.8700,0.4210,0.2407,-304.44,94.67,-155.70
10040,-3.8701,0.3402,0.1892,1898.68,-1186.71,1328.55
10050,-3.8704,0.2538,0.1405,-445.07,219.36,1047.24
10060,-3.8706,0.1616,0.0972,492.43,1984.86,281.49
10070,-3.8708,0.0817,0.0558,695.56,437.81,265.81
10080,-3.8711,0.0137,0.0115,-1538.82,-859.25,1390.69
10090,-3.8713,-0.0499,-0.0322,1758.06,1468.75,-406.25
10100,-3.8715,-0.1093,-0.0674,1617.43,-109.50,-562.62
10110,-3.8715,-0.1714,-0.0952,-1976.32,-609.62,1218.57
10120,-3.8715,-0.2368,-0.1228,-1929.44,-172.24,406.01
10130,-3.8715,-0.3079,-0.1508,1695.56,296.39,796.63
10140,-3.8715,-0.3840,-0.1743,601.81,718.14,-1312.81
10150,-3.8713,-0.4587,-0.1923,-1148.19,1702.33,1718.38
10160,-3.8712,-0.5226,-0.2072,1289.31,-594.67,921.45
10170,-3.8712,-0.5695,-0.2163,1117.43,1498.96,-344.18
10180,-3.8711,-0.6027,-0.2141,-882.57,326.97,1671.45
10190,-3.8711,-0.6266,-0.2008,-1132.57,608.15,-1281.68
10200,-3.8711,-0.6393,-0.1835,-195.07,-1688.78,-1375.43
10210,-3.8711,-0.6407,-0.1677,-1820.07,529.97,1546.51
10220,-3.8712,-0.6403,-0.1486,1992.43,-1454.41,-312.87
10230,-3.8712,-0.6398,-0.1230,-1945.07,998.72,1343.44
10240,-3.8713,-0.6311,-0.0951,-1882.57,264.34,-1343.99
10250,-3.8715,-0.6102,-0.0668,-773.19,-157.53,-47.12
10260,-3.8715,-0.5822,-0.0365,1898.68,-532.47,1327.94
10270,-3.8716,-0.5519,-0.0038,1492.43,-657.41,-1312.62
10280,-3.8716,-0.5184,0.0253,1367.43,-469.85,124.94
10290,-3.8717,-0.4847,0.0492,1648.68,-751.04,1718.75
10300,-3.8717,-0.4570,0.0688,1961.18,-1688.48,187.56
10310,-3.8717,-0.4330,0.0846,1508.06,827.21,15.75
10320,-3.8717,-0.4109,0.1013,586.18,-1157.10,625.12
10330,-3.8717,-0.3909,0.1205,-585.69,983.52,1125.18
10340,-3.8717,-0.3630,0.1399,1976.81,-563.29,1593.93
10350,-3.8717,-0.3165,0.1570,1539.31,1921.14,-1562.26
10360,-3.8717,-0.2561,0.1738,-507.57,108.70,-702.82
10370,-3.8716,-0.1886,0.1886,-773.19,-1734.92,250.31
10380,-3.8716,-0.1104,0.1965,-132.57,155.82,1875.37
10390,-3.8715,-0.0219,0.2007,1883.06,1171.63,312.87
10400,-3.8715,0.0527,0.2025,1211.18,1703.06,-280.88
10410,-3.8713,0.1074,0.2031,-1241.94,1921.94,-124.63
10420,-3.8711,0.1552,0.2018,1758.06,-1999.82,719.12
10430,-3.8710,0.1907,0.1976,-132.57,1828.37,-1874.63
10440,-3.8708,0.2097,0.1914,414.31,1297.24,-687.13
10450,-3.8707,0.2089,0.1816,-1148.19,500.37,-530.88
10460,-3.8706,0.1899,0.1675,-1257.57,-749.63,-1640.32
10470,-3.8706,0.1562,0.1561,320.56,1437.87,-124.69
10480,-3.8706,0.1035,0.1479,8.06,-15.32,-124.76
10490,-3.8706,0.0371,0.1368,1258.06,-1062.32,1984.62
10500,-3.8707,-0.0282,0.1252,758.06,1515.69,1843.99
10510,-3.8708,-0.0864,0.1157,398.68,46.81,234.62
10520,-3.8711,-0.1396,0.1079,945.56,-1172.06,-1624.82
10530,-3.8712,-0.1923,0.0992,-1866.94,1827.82,937.68
10540,-3.8713,-0.2444,0.0856,-601.32,718.32,47.06
10550,-3.8715,-0.2935,0.0634,726.81,-1031.74,78.25
10560,-3.8716,-0.3407,0.0397,-1554.44,124.39,1625.12
10570,-3.8716,-0.3888,0.0199,398.68,1093.08,484.44
10580,-3.8716,-0.4396,0.0027,-1757.57,-1438.29,296.88
10590,-3.8716,-0.4949,-0.0145,-257.57,358.46,765.62
10600,-3.8716,-0.5387,-0.0292,664.31,-1844.73,1562.44
10610,-3.8716,-0.5698,-0.0426,-945.07,280.15,-1468.81
10620,-3.8716,-0.6028,-0.0597,-929.44,-1438.66,-672.00
10630,-3.8716,-0.6343,-0.0739,-1148.19,373.78,-15.75
10640,-3.8715,-0.6603,-0.0792,-1179.44,-1438.78,577.94
10650,-3.8715,-0.6816,-0.0776,-507.57,1873.66,843.57
10660,-3.8715,-0.6945,-0.0729,758.06,-1923.22,749.82
10670,-3.8715,-0.6993,-0.0641,-882.57,-1313.90,406.07
10680,-3.8716,-0.6995,-0.0493,-1507.57,-188.90,-422.06
10690,-3.8716,-0.6863,-0.0310,-1523.19,1701.72,-1859.50
10700,-3.8716,-0.6562,-0.0148,164.31,45.53,328.06
10710,-3.8717,-0.6179,0.0007,8.06,-1876.28,-1390.69
10720,-3.8717,-0.5806,0.0187,914.31,108.15,1593.75
10730,-3.8717,-0.5436,0.0394,1695.56,-1594.91,1281.25
10740,-3.8717,-0.5027,0.0629,-1570.07,1061.40,984.44
10750,-3.8717,-0.4551,0.0879,-335.69,61.46,390.75
10760,-3.8718,-0.4034,0.1106,1758.06,-735.29,-296.75
10770,-3.8718,-0.3523,0.1232,367.43,-1828.92,-640.44
10780,-3.8718,-0.3035,0.1251,-1085.69,-219.48,-187.32
10790,-3.8717,-0.2620,0.1222,1164.31,30.64,1078.37
10800,-3.8717,-0.2355,0.1168,-1523.19,-344.30,-1171.69
10810,-3.8716,-0.2288,0.1140,1867.43,-1031.74,640.81
10820,-3.8716,-0.2369,0.1111,-1273.19,-1391.11,-1671.69
10830,-3.8716,-0.2465,0.1014,1679.93,-1766.11,-249.82
10840,-3.8715,-0.2509,0.0924,461.18,999.51,859.56
10850,-3.8715,-0.2587,0.0903,-101.32,-156.80,1781.37
10860,-3.8715,-0.2772,0.0900,-1101.32,-422.42,-1687.38
10870,-3.8715,-0.3032,0.0903,523.68,-469.30,-1640.50
10880,-3.8715,-0.3296,0.0945,1195.56,-422.49,1734.50
10890,-3.8715,-0.3505,0.1066,1820.56,108.70,78.31
10900,-3.8716,-0.3517,0.1332,-851.32,1655.52,1609.56
10910,-3.8717,-0.3182,0.1703,-1007.57,1061.77,-1687.26
10920,-3.8718,-0.2495,0.2028,-726.32,1811.83,-1749.69
10930,-3.8719,-0.1599,0.2222,70.56,1968.26,-1359.01
10940,-3.8719,-0.0552,0.2311,-460.69,452.76,594.18
10950,-3.8719,0.0498,0.2379,945.56,1593.63,47.30
10960,-3.8719,0.1504,0.2533,-1616.94,-1546.81,1328.55
10970,-3.8718,0.2581,0.2721,-741.94,422.12,687.99
10980,-3.8717,0.3771,0.2820,1039.31,-1171.39,1187.99
10990,-3.8716,0.5132,0.2838,273.68,94.48,-1733.83
11000,-3.8713,0.6628,0.2843,1695.56,329.10,906.80
11010,-3.8711,0.8052,0.2825,851.81,391.91,-1843.20
11020,-3.8707,0.9104,0.2788,-929.44,157.78,1422.42
11030,-3.8704,0.9600,0.2736,539.31,-310.73,1500.49
11040,-3.8700,0.9556,0.2546,-1116.94,-982.54,1125.49
11050,-3.8698,0.9187,0.2212,-1679.44,595.58,-1202.64
11060,-3.8695,0.8553,0.1774,1601.81,314.27,1703.55
11070,-3.8694,0.7642,0.1315,1492.43,-1295.23,1500.31
11080,-3.8694,0.6531,0.0931,1820.56,829.59,1422.12
11090,-3.8695,0.5316,0.0569,-398.19,-76.90,797.00
11100,-3.8699,0.4167,0.0099,54.93,-717.71,-406.19
11110,-3.8702,0.3184,-0.0525,1351.81,1266.42,-203.12
11120,-3.8705,0.2225,-0.1169,758.06,1281.86,984.25
11130,-3.8707,0.1174,-0.1710,492.43,1031.68,1124.76
11140,-3.8710,0.0007,-0.2211,-960.69,-1890.44,-859.74
11150,-3.8711,-0.1301,-0.2736,101.81,-296.88,1796.39
11160,-3.8712,-0.2681,-0.3291,-648.19,999.69,1561.95
11170,-3.8713,-0.4072,-0.3850,1695.56,1890.08,-1360.05
11180,-3.8713,-0.5492,-0.4307,-116.94,-1266.48,514.83
11190,-3.8715,-0.6914,-0.4572,1711.18,889.53,-907.10
11200,-3.8715,-0.8248,-0.4647,-491.94,1498.60,-1485.29
11210,-3.8715,-0.9370,-0.4641,-1570.07,529.60,-1157.17
11220,-3.8715,-1.0275,-0.4713,70.56,607.54,-125.92
11230,-3.8713,-1.1025,-0.4861,492.43,-314.51,749.02
11240,-3.8713,-1.1531,-0.4896,-1116.94,1794.68,983.40
11250,-3.8713,-1.1630,-0.4775,414.31,1341.49,1014.65
11260,-3.8713,-1.1217,-0.4579,-851.32,-1111.69,920.90
11270,-3.8713,-1.0416,-0.4393,429.93,1404.05,670.96
11280,-3.8713,-0.9550,-0.4229,-1320.07,-220.83,655.33
11290,-3.8713,-0.8865,-0.3947,1773.68,1888.73,608.52
11300,-3.8715,-0.8422,-0.3536,-1460.69,1498.23,-344.54
11310,-3.8715,-0.8129,-0.3086,211.18,-1251.65,1499.27
11320,-3.8716,-0.7781,-0.2649,-38.82,513.98,-1625.61
11330,-3.8717,-0.7205,-0.2257,414.31,-1892.15,-938.05
11340,-3.8717,-0.6449,-0.1771,-210.69,-876.46,577.64
11350,-3.8718,-0.5648,-0.1068,1461.18,1342.47,-1484.74
11360,-3.8719,-0.4795,-0.0262,-288.82,-1657.41,-734.62
11370,-3.8721,-0.3691,0.0420,-1366.94,655.27,1781.19
11380,-3.8723,-0.2245,0.0897,758.06,1389.89,-906.19
11390,-3.8724,-0.0463,0.1234,-726.32,-500.49,1312.62
11400,-3.8726,0.1697,0.1475,-1913.82,-187.62,1484.56
11410,-3.8727,0.4332,0.1517,1726.81,-1124.69,-890.38
11420,-3.8727,0.7583,0.1287,-538.82,-577.33,-1296.63
11430,-3.8726,1.1078,0.0846,1070.56,470.21,1000.24
11440,-3.8724,1.4370,0.0414,1804.93,-1169.74,-343.63
11450,-3.8719,1.6921,0.0264,-54.44,1299.62,-1703.06
11460,-3.8712,1.8030,0.0333,601.81,-621.70,1015.62
11470,-3.8704,1.7723,0.0397,-1210.69,269.10,218.81
11480,-3.8695,1.6460,0.0262,-1132.57,1081.54,1828.19
11490,-3.8687,1.4741,0.0045,-1304.44,-637.45,-1140.62
11500,-3.8679,1.3156,-0.0084,695.56,580.99,1562.50
11510,-3.8674,1.2008,-0.0187,398.68,-1075.56,31.19
11520,-3.8673,1.1208,-0.0396,1711.18,1611.69,-1140.69
11530,-3.8673,1.0565,-0.0868,-523.19,-1060.36,578.00
11540,-3.8678,0.9832,-0.1588,-757.57,892.64,-547.06
11550,-3.8684,0.8788,-0.2487,1851.81,-326.23,1062.13
11560,-3.8693,0.7446,-0.3407,492.43,173.58,-1922.36
11570,-3.8701,0.5867,-0.4286,-679.44,392.03,-110.05
11580,-3.8707,0.4120,-0.5125,-898.19,1141.72,1046.02
11590,-3.8713,0.2423,-0.5863,742.43,-1592.96,1811.46
11600,-3.8718,0.0815,-0.6390,-976.32,953.55,-1298.03
11610,-3.8722,-0.0812,-0.6685,-1554.44,-1796.75,-704.41
11620,-3.8724,-0.2469,-0.7015,1617.43,-1547.06,-845.09
11630,-3.8726,-0.4191,-0.7483,398.68,-1781.74,-813.90
11640,-3.8724,-0.6088,-0.7913,-1632.57,233.52,76.66
11650,-3.8723,-0.8217,-0.8119,-1913.82,-1266.85,1185.91
11660,-3.8721,-1.0419,-0.8062,-1163.82,92.10,1639.04
11670,-3.8718,-1.2334,-0.7959,-1351.32,826.05,-298.46
11680,-3.8715,-1.3639,-0.8103,-1866.94,-1861.82,1435.91
11690,-3.8712,-1.4174,-0.8351,1429.93,294.19,1639.04
11700,-3.8711,-1.4056,-0.8452,-1413.82,1122.19,-1236.02
11710,-3.8710,-1.3533,-0.8308,86.18,-174.62,357.67
11720,-3.8711,-1.2863,-0.7863,-1210.69,1669.19,-189.15
11730,-3.8711,-1.2312,-0.7201,-632.57,-627.56,1764.04
11740,-3.8712,-1.1858,-0.6432,-1585.69,-158.69,1732.91
11750,-3.8713,-1.1276,-0.5608,226.81,1685.18,451.84
11760,-3.8716,-1.0521,-0.4762,-320.07,232.12,-563.60
11770,-3.8717,-0.9738,-0.3920,1336.18,-939.58,-829.10
11780,-3.8718,-0.9032,-0.3094,-632.57,1841.80,-532.04
11790,-3.8719,-0.8446,-0.2279,398.68,404.48,-234.99
11800,-3.8719,-0.7955,-0.1530,-101.32,-1157.96,46.39
11810,-3.8721,-0.7478,-0.0917,-1820.07,435.91,296.57
11820,-3.8722,-0.6946,-0.0382,289.31,279.79,609.19
11830,-3.8723,-0.6342,0.0150,-898.19,-876.40,1234.25
11840,-3.8724,-0.5642,0.0704,-1163.82,1936.22,1750.00
11850,-3.8726,-0.4751,0.1248,-210.69,1030.09,1703.25
11860,-3.8727,-0.3589,0.1754,-804.44,-16.60,1062.68
11870,-3.8729,-0.2168,0.2206,-1929.44,-1531.98,-15.32
11880,-3.8730,-0.0398,0.2493,258.06,249.57,-1155.82
11890,-3.8732,0.2054,0.2407,-1085.69,-78.25,-1062.07
11900,-3.8732,0.5240,0.1981,-1695.07,-1187.13,-1499.57
11910,-3.8730,0.8811,0.1482,-913.82,1360.35,-187.13
11920,-3.8727,1.2383,0.0941,789.31,-1029.54,-1124.76
11930,-3.8722,1.5371,0.0474,-1491.94,49.26,-343.57
11940,-3.8715,1.6987,0.0242,758.06,-1934.51,-218.69
11950,-3.8705,1.6821,0.0096,1445.56,-902.95,-1875.00
11960,-3.8694,1.5244,-0.0031,-679.44,1237.61,640.62
11970,-3.8684,1.2852,0.0063,-866.94,-387.70,-1343.81
11980,-3.8676,1.0309,0.0515,508.06,815.00,812.50
11990,-3.8672,0.8501,0.0917,-38.82,-1404.30,-1281.19
12000,-3.8672,0.7754,0.0715,820.56,-263.98,-859.25
12010,-3.8676,0.7474,0.0031,-741.94,1157.71,-531.13
12020,-3.8682,0.6901,-0.0676,-320.07,392.03,1625.00
12030,-3.8690,0.5764,-0.1346,336.18,-654.91,921.69
12040,-3.8700,0.4246,-0.2107,1789.31,-1233.28,-1031.56
12050,-3.8708,0.2657,-0.2968,-1648.19,1032.04,-422.30
12060,-3.8715,0.1272,-0.3914,-1976.32,-1983.89,811.89
12070,-3.8719,0.0131,-0.4785,289.31,1906.49,530.46
12080,-3.8723,-0.0966,-0.5404,1679.93,-1250.00,-875.98
12090,-3.8724,-0.2155,-0.5754,-351.32,-1156.49,-485.47
12100,-3.8723,-0.3445,-0.5879,429.93,-1641.05,608.22
12110,-3.8722,-0.4789,-0.5957,-85.69,764.89,-1735.53
12120,-3.8719,-0.6135,-0.6147,-1288.82,-235.35,-94.97
12130,-3.8715,-0.7487,-0.6394,1476.81,1326.90,264.40
12140,-3.8711,-0.8824,-0.6726,179.93,-1829.59,1326.84
12150,-3.8707,-1.0123,-0.7161,-945.07,1920.10,1123.66
12160,-3.8705,-1.1273,-0.7535,-1570.07,357.36,1826.72
12170,-3.8704,-1.2009,-0.7712,-288.82,-439.76,-1751.53
12180,-3.8704,-1.2098,-0.7651,-1710.69,1294.49,-1689.03
12190,-3.8705,-1.1631,-0.7416,1148.68,-1924.26,-1782.78
12200,-3.8707,-1.0917,-0.6949,-866.94,1091.43,-860.84
12210,-3.8710,-1.0149,-0.6129,273.68,-939.64,-1095.15
12220,-3.8712,-0.9355,-0.5122,-1898.19,1560.49,-1360.60
12230,-3.8715,-0.8569,-0.4159,258.06,-1548.71,-1094.79
12240,-3.8716,-0.7908,-0.3363,-1679.44,-1220.46,452.27
12250,-3.8718,-0.7438,-0.2737,-1210.69,967.16,-578.80
12260,-3.8719,-0.7157,-0.2192,804.93,982.91,-578.67
12270,-3.8719,-0.7046,-0.1700,398.68,-48.28,280.76
12280,-3.8721,-0.6997,-0.1254,1820.56,-1751.40,1609.01
12290,-3.8722,-0.6862,-0.0850,-1554.44,-32.65,-1203.43
12300,-3.8723,-0.6582,-0.0469,179.93,1139.28,-500.18
12310,-3.8724,-0.6154,-0.0074,-241.94,-1985.72,-203.25
12320,-3.8726,-0.5555,0.0333,1242.43,-938.72,-140.69
12330,-3.8727,-0.4777,0.0676,898.68,280.15,-187.44
12340,-3.8728,-0.3770,0.0880,-1132.57,670.90,-281.13
12350,-3.8729,-0.2458,0.0942,-241.94,-719.54,-203.00
12360,-3.8729,-0.0850,0.0928,539.31,77.64,625.18
12370,-3.8730,0.0972,0.0845,1133.06,-109.56,-1562.38
12380,-3.8730,0.3112,0.0581,445.56,-1187.32,1750.12
12390,-3.8729,0.5906,0.0203,-163.82,-561.95,828.19
12400,-3.8727,0.9086,-0.0013,-398.19,-1405.15,-1125.00
12410,-3.8722,1.1796,-0.0111,304.93,-170.10,-578.19
12420,-3.8716,1.3470,-0.0239,-1007.57,-1419.62,-1296.94
12430,-3.8710,1.4064,-0.0276,429.93,940.12,-687.56
12440,-3.8702,1.3888,-0.0267,23.68,471.50,937.44
12450,-3.8696,1.3466,-0.0366,1773.68,580.81,-546.94
12460,-3.8689,1.3014,-0.0436,367.43,-684.88,-1000.12
12470,-3.8682,1.2280,-0.0327,-1413.82,-1575.62,578.00
12480,-3.8678,1.1200,-0.0171,1195.56,-185.12,-593.87
12490,-3.8676,0.9991,-0.0179,-632.57,1814.64,109.31
12500,-3.8678,0.8855,-0.0457,-101.32,1705.02,1703.06
12510,-3.8683,0.7958,-0.0865,1351.81,-1842.04,1874.88
12520,-3.8689,0.7288,-0.1254,1867.43,923.40,827.94
12530,-3.8696,0.6642,-0.1682,1289.31,-45.47,-734.68
12540,-3.8701,0.5967,-0.2186,1023.68,-1529.97,62.13
12550,-3.8706,0.5223,-0.2708,383.06,16.78,77.70
12560,-3.8711,0.4246,-0.3171,-1132.57,1344.73,-188.05
12570,-3.8713,0.3035,-0.3540,-1648.19,-592.96,-1063.17
12580,-3.8715,0.1835,-0.3868,-1148.19,-1311.95,343.02
12590,-3.8716,0.0779,-0.4220,-507.57,-1515.32,30.46
12600,-3.8717,-0.0190,-0.4547,1976.81,1984.50,-1750.85
12610,-3.8717,-0.1161,-0.4838,1570.56,1812.44,-1297.79
12620,-3.8716,-0.2231,-0.5162,1148.68,-1906.49,1108.40
12630,-3.8715,-0.3468,-0.5505,-554.44,1937.01,1014.59
12640,-3.8713,-0.4852,-0.5790,-382.57,1546.14,1233.28
12650,-3.8712,-0.6271,-0.5948,1898.68,1905.27,1045.72
12660,-3.8711,-0.7627,-0.5995,-257.57,-126.28,686.28
12670,-3.8711,-0.8823,-0.5947,-1616.94,-720.28,-423.10
12680,-3.8710,-0.9727,-0.5781,-929.44,-111.15,576.90
12690,-3.8711,-1.0194,-0.5548,-491.94,-1986.33,-423.03
12700,-3.8711,-1.0168,-0.5267,1523.68,997.99,1327.03
12710,-3.8712,-0.9712,-0.4901,1851.81,591.74,-1407.29
12720,-3.8713,-0.9045,-0.4426,-304.44,1279.30,-204.10
12730,-3.8713,-0.8439,-0.3840,226.81,-642.40,920.96
12740,-3.8715,-0.7977,-0.3217,-7.57,-1142.33,-1860.17
12750,-3.8716,-0.7589,-0.2606,1898.68,-1157.84,-453.80
12760,-3.8716,-0.7244,-0.1989,-1132.57,-1345.28,1155.70
12770,-3.8717,-0.6973,-0.1353,-710.69,-1438.96,-1078.55
12780,-3.8717,-0.6743,-0.0735,-1241.94,-1298.28,702.82
12790,-3.8718,-0.6532,-0.0164,1695.56,-1391.97,-1734.56
12800,-3.8719,-0.6309,0.0402,398.68,1920.59,-515.69
12810,-3.8719,-0.6021,0.0988,-741.94,1154.97,343.81
12820,-3.8721,-0.5638,0.1570,-1054.44,655.03,953.31
12830,-3.8722,-0.5168,0.2106,-163.82,108.22,1359.68
12840,-3.8723,-0.4611,0.2532,1851.81,-1032.29,1656.62
12850,-3.8724,-0.3929,0.2798,992.43,420.96,1781.74
12860,-3.8726,-0.3059,0.2908,1711.18,-172.67,1984.86
12870,-3.8727,-0.1908,0.2849,851.81,1233.76,-1249.45
12880,-3.8727,-0.0447,0.2515,-413.82,483.95,781.80
12890,-3.8727,0.1406,0.1793,-1710.69,203.00,1187.99
12900,-3.8726,0.3862,0.0872,-1991.94,-1046.63,1750.31
12910,-3.8722,0.6927,0.0203,1445.56,-843.02,-1921.75
12920,-3.8715,0.9862,-0.0038,679.93,-1404.91,1046.88
12930,-3.8705,1.1750,-0.0095,-1757.57,-482.48,1109.31
12940,-3.8694,1.2144,-0.0326,-1585.69,-1216.49,999.94
12950,-3.8684,1.0959,-0.0748,-554.44,-169.56,1281.13
12960,-3.8678,0.8700,-0.0986,289.31,-1575.99,1702.94
12970,-3.8677,0.6240,-0.0707,-632.57,-623.35,671.63
12980,-3.8682,0.4384,0.0037,-116.94,-1045.72,-531.43
12990,-3.8688,0.3524,0.0826,117.43,469.60,750.00
13000,-3.8696,0.3459,0.1260,1117.43,-1421.20,-359.25
13010,-3.8702,0.3541,0.1165,289.31,125.67,1281.49
13020,-3.8708,0.3207,0.0715,1336.18,-1093.08,-1265.44
13030,-3.8713,0.2362,0.0151,1054.93,1156.86,-593.63
13040,-3.8716,0.1191,-0.0416,-1757.57,1937.93,234.38
13050,-3.8718,-0.0084,-0.0970,-741.94,-1327.94,1874.88
13060,-3.8719,-0.1298,-0.1519,-1070.07,-406.31,-922.12
13070,-3.8719,-0.2413,-0.1981,-601.32,577.82,1780.94
13080,-3.8719,-0.3464,-0.2280,1117.43,-1344.24,890.20
13090,-3.8719,-0.4452,-0.2465,-335.69,-1172.61,499.51
13100,-3.8719,-0.5410,-0.2667,-976.32,467.83,765.14
13110,-3.8719,-0.6422,-0.2919,-1241.94,1873.90,-1969.30
13120,-3.8718,-0.7590,-0.3163,1804.93,-1345.03,858.76
13130,-3.8717,-0.8953,-0.3407,-1148.19,-470.28,811.83
13140,-3.8716,-1.0422,-0.3781,1414.31,404.48,343.08
13150,-3.8716,-1.1794,-0.4263,-1398.19,-377.08,-1688.29
13160,-3.8716,-1.2791,-0.4662,1039.31,1450.81,-375.85
13170,-3.8715,-1.3221,-0.4943,289.31,341.25,-1969.67
13180,-3.8713,-1.3074,-0.5063,-1226.32,747.38,1045.90
13190,-3.8713,-1.2441,-0.4960,664.31,-799.44,-1094.79
13200,-3.8713,-1.1521,-0.4706,758.06,528.81,-1172.85
13210,-3.8713,-1.0521,-0.4370,539.31,-221.01,811.52
13220,-3.8715,-0.9557,-0.3932,1336.18,76.05,1889.77
13230,-3.8716,-0.8726,-0.3348,1679.93,1685.61,-1094.54
13240,-3.8717,-0.8147,-0.2678,320.56,1154.54,-281.92
13250,-3.8717,-0.7815,-0.2040,-273.19,1732.73,46.33
13260,-3.8719,-0.7588,-0.1497,-23.19,1904.66,-266.05
13270,-3.8721,-0.7358,-0.1080,-1116.94,857.85,-1062.81
13280,-3.8722,-0.7076,-0.0756,1820.56,-1813.96,-1718.99
13290,-3.8723,-0.6692,-0.0449,1429.93,-1657.65,-1468.93
13300,-3.8724,-0.6198,-0.0117,-1648.19,-1735.72,-515.75
13310,-3.8724,-0.5640,0.0236,679.93,-1485.60,437.44
13320,-3.8726,-0.4999,0.0526,-179.44,-969.91,796.88
13330,-3.8727,-0.4196,0.0679,23.68,-1250.98,640.69
13340,-3.8728,-0.3218,0.0710,-1695.07,702.27,484.50
13350,-3.8729,-0.2108,0.0668,-1179.44,1108.70,703.25
13360,-3.8730,-0.0918,0.0537,1023.68,562.07,1468.87
13370,-3.8732,0.0392,0.0186,258.06,-1109.56,-1046.81
13380,-3.8732,0.2028,-0.0536,1023.68,-1624.94,1859.38
13390,-3.8732,0.4088,-0.1586,1961.18,1140.99,-218.87
13400,-3.8729,0.6587,-0.2773,336.18,-296.08,1952.76
13410,-3.8726,0.9259,-0.3831,320.56,501.28,999.45
13420,-3.8721,1.1698,-0.4352,-1476.32,-1029.48,1999.21
13430,-3.8713,1.3418,-0.4375,1742.43,299.13,-1688.35
13440,-3.8704,1.4009,-0.4420,-241.94,2.56,-1438.35
13450,-3.8693,1.3671,-0.4734,-679.44,-575.44,-235.29
13460,-3.8682,1.2811,-0.5079,-1007.57,-591.13,-344.73
13470,-3.8672,1.1703,-0.5166,-7.57,-1013.18,764.59
13480,-3.8667,1.0485,-0.5020,1804.93,1877.26,-438.54
13490,-3.8665,0.9268,-0.4746,-1788.82,-247.99,1561.46
13500,-3.8667,0.8219,-0.4379,-1366.94,-748.23,-1907.23
13510,-3.8673,0.7468,-0.3951,1211.18,-45.29,-1219.67
13520,-3.8682,0.6976,-0.3524,-398.19,1423.28,-125.79
13530,-3.8690,0.6718,-0.3263,1304.93,-1108.03,-656.98
13540,-3.8698,0.6561,-0.3231,1992.43,-1764.34,1530.58
13550,-3.8704,0.6229,-0.3391,-7.57,-1358.15,811.83
13560,-3.8708,0.5542,-0.3652,-257.57,594.91,1796.20
13570,-3.8712,0.4435,-0.3843,-1054.44,1251.04,-594.48
13580,-3.8715,0.3010,-0.3922,773.68,-1186.65,-16.42
13590,-3.8716,0.1576,-0.3881,-1460.69,1797.42,-1672.67
13600,-3.8717,0.0377,-0.3777,179.93,-1671.57,1952.33
13610,-3.8718,-0.0554,-0.3717,836.18,-343.69,-1188.29
13620,-3.8718,-0.1302,-0.3792,914.31,437.38,624.27
13630,-3.8719,-0.2056,-0.4036,-663.82,-515.93,-188.29
13640,-3.8718,-0.3018,-0.4386,1695.56,358.95,1483.58
13650,-3.8717,-0.4286,-0.4813,1383.06,-125.61,1374.08
13660,-3.8716,-0.5822,-0.5306,1148.68,-1594.60,1749.02
13670,-3.8715,-0.7579,-0.5807,1492.43,92.59,1452.09
13680,-3.8715,-0.9578,-0.6250,-1007.57,1685.97,-204.28
13690,-3.8713,-1.1689,-0.6567,1414.31,13.73,701.90
13700,-3.8713,-1.3578,-0.6788,-1616.94,-49.19,1123.66
13710,-3.8713,-1.4901,-0.7026,-1788.82,1122.31,1936.16
13720,-3.8713,-1.5526,-0.7177,1273.68,-1924.80,-1188.90
13730,-3.8713,-1.5526,-0.7026,1273.68,153.20,1607.97
13740,-3.8715,-1.4940,-0.6570,1273.68,-1924.93,529.85
13750,-3.8717,-1.3813,-0.5898,773.68,-81.05,561.16
13760,-3.8719,-1.2404,-0.5206,-804.44,512.88,170.72
13770,-3.8722,-1.0985,-0.4639,1242.43,1372.56,1155.21
13780,-3.8723,-0.9722,-0.4122,-601.32,638.43,249.08
13790,-3.8724,-0.8713,-0.3591,-429.44,-751.95,967.90
13800,-3.8726,-0.7961,-0.3079,476.81,-1954.83,-1719.48
13810,-3.8727,-0.7372,-0.2625,-1898.19,607.79,-688.11
13820,-3.8727,-0.6801,-0.2198,1648.68,-1579.59,15.08
13830,-3.8728,-0.6090,-0.1798,961.18,-126.34,1437.01
13840,-3.8729,-0.5105,-0.1433,-1945.07,998.78,-344.12
13850,-3.8729,-0.3706,-0.1089,-1335.69,1670.84,1874.69
13860,-3.8730,-0.1720,-0.0859,570.56,-1922.61,-609.62
13870,-3.8730,0.1027,-0.0988,1992.43,1015.26,327.94
13880,-3.8732,0.4403,-0.1677,1148.68,-640.44,765.38
13890,-3.8733,0.8058,-0.3003,367.43,-1467.90,312.13
13900,-3.8734,1.1350,-0.4972,-851.32,1564.03,-1734.99
13910,-3.8733,1.3718,-0.7157,1289.31,361.57,-1375.98
13920,-3.8729,1.5168,-0.9186,-398.19,393.25,-485.78
13930,-3.8721,1.5510,-1.0819,-1835.69,-1575.20,1873.17
13940,-3.8707,1.4420,-1.1898,-1460.69,1518.62,1685.36
13950,-3.8690,1.2274,-1.2805,586.18,-294.07,28.87
13960,-3.8674,1.0035,-1.3689,1117.43,96.13,966.25
13970,-3.8661,0.8577,-1.4204,461.18,783.20,1403.56
13980,-3.8651,0.8303,-1.4197,1789.31,-1810.85,1044.07
13990,-3.8646,0.9000,-1.3978,-1710.69,-1717.16,1700.32
14000,-3.8646,0.9949,-1.3801,-788.82,1079.83,-393.37
14010,-3.8650,1.0542,-1.3420,-648.19,-654.36,1762.88
14020,-3.8658,1.0472,-1.2498,-1054.44,220.76,622.38
14030,-3.8671,0.9640,-1.1270,-1945.07,33.26,-439.94
14040,-3.8682,0.8257,-0.9994,-601.32,-248.17,1794.62
14050,-3.8693,0.6740,-0.8828,1695.56,79.71,-1064.45
14060,-3.8701,0.5461,-0.7958,-1726.32,-998.72,841.98
14070,-3.8708,0.4547,-0.7352,1914.31,-1858.34,404.66
14080,-3.8715,0.3877,-0.6985,-1788.82,1891.48,-1688.96
14090,-3.8718,0.3159,-0.6687,1633.06,-1405.52,1420.47
14100,-3.8722,0.2198,-0.6323,445.56,-1593.14,-48.22
14110,-3.8723,0.1162,-0.6094,148.68,-937.07,795.59
14120,-3.8726,0.0177,-0.6130,-1116.94,-1999.82,-1001.22
14130,-3.8727,-0.0830,-0.6285,-1726.32,1531.25,1373.78
14140,-3.8729,-0.1768,-0.6520,1383.06,-437.68,-657.53
14150,-3.8730,-0.2574,-0.6925,1383.06,562.13,1951.84
14160,-3.8732,-0.3452,-0.7422,-945.07,-625.55,-1720.15
14170,-3.8732,-0.4520,-0.7865,-179.44,1014.89,107.91
14180,-3.8732,-0.5781,-0.8217,-1851.32,-657.17,14.04
14190,-3.8732,-0.7377,-0.8293,-1991.94,-1157.41,-1407.90
14200,-3.8730,-0.9330,-0.7936,1586.18,1857.91,-579.77
14210,-3.8728,-1.1271,-0.7412,586.18,-1564.33,-1845.34
14220,-3.8726,-1.2787,-0.7040,-257.57,1138.37,-673.34
14230,-3.8721,-1.3751,-0.7014,336.18,1903.75,61.10
14240,-3.8716,-1.4194,-0.7555,-7.57,-1768.37,1654.85
14250,-3.8710,-1.4335,-0.8488,-1679.44,-690.31,-1017.15
14260,-3.8704,-1.4370,-0.9130,523.68,-627.81,-1345.46
14270,-3.8700,-1.4216,-0.9092,70.56,-846.56,-1751.83
14280,-3.8700,-1.3682,-0.8623,-1960.69,-362.18,-876.83
14290,-3.8702,-1.2822,-0.8058,883.06,1637.94,-111.08
14300,-3.8705,-1.1915,-0.7451,-116.94,872.44,560.91
14310,-3.8710,-1.1129,-0.6744,-507.57,638.24,-204.59
14320,-3.8713,-1.0398,-0.5883,1554.93,1685.30,-532.59
14330,-3.8716,-0.9639,-0.4844,-1085.69,716.67,545.72
14340,-3.8719,-0.8914,-0.3809,633.06,-1986.27,-1266.60
14350,-3.8722,-0.8237,-0.2974,1914.31,-736.15,-1750.79
14360,-3.8724,-0.7565,-0.2394,-1429.44,1951.48,-578.74
14370,-3.8726,-0.6951,-0.2050,-820.07,1373.47,-1203.61
14380,-3.8726,-0.6570,-0.1813,-960.69,1779.85,858.95
14390,-3.8726,-0.6469,-0.1616,-85.69,811.16,905.88
14400,-3.8726,-0.6488,-0.1482,1211.18,-673.16,1593.38
14410,-3.8726,-0.6434,-0.1354,961.18,1045.59,1999.69
14420,-3.8726,-0.6141,-0.1195,1648.68,-1313.78,1655.94
14430,-3.8727,-0.5547,-0.1039,1398.68,717.53,-109.62
14440,-3.8727,-0.4712,-0.1016,1008.06,-1282.35,640.38
14450,-3.8728,-0.3713,-0.1190,-304.44,-985.35,1577.88
14460,-3.8729,-0.2629,-0.1407,476.81,780.52,-422.12
14470,-3.8729,-0.1458,-0.1510,-1648.19,1999.45,1390.32
14480,-3.8730,0.0034,-0.1649,1351.81,687.19,1530.94
14490,-3.8732,0.2175,-0.2195,445.56,-1109.38,234.01
14500,-3.8734,0.5016,-0.3269,-148.19,-93.38,-1578.61
14510,-3.8735,0.8546,-0.4556,211.18,-1842.77,-500.67
14520,-3.8734,1.2113,-0.5444,1398.68,1689.15,-500.92
14530,-3.8730,1.4601,-0.5706,-945.07,-1685.18,-157.35
14540,-3.8723,1.5574,-0.5824,-1101.32,-1028.44,655.09
14550,-3.8715,1.5250,-0.6407,-648.19,1456.12,1717.59
14560,-3.8704,1.4269,-0.7438,-788.82,1987.30,561.22
14570,-3.8693,1.3186,-0.8446,-1351.32,799.62,1217.29
14580,-3.8682,1.2434,-0.9117,789.31,-106.81,-1017.33
14590,-3.8669,1.2241,-0.9337,-835.69,-700.74,76.29
14600,-3.8661,1.2261,-0.9180,695.56,486.76,1795.04
14610,-3.8656,1.2032,-0.8906,945.56,-1497.62,1123.17
14620,-3.8656,1.1559,-0.8690,-1976.32,-1997.68,513.85
14630,-3.8661,1.0936,-0.8390,-38.82,767.82,-767.33
14640,-3.8667,1.0157,-0.7834,-7.57,611.45,467.10
14650,-3.8677,0.9370,-0.7075,-1976.32,-279.30,-360.96
14660,-3.8685,0.8672,-0.6221,-54.44,1439.27,1451.72
14670,-3.8694,0.7950,-0.5405,-991.94,376.65,1420.65
14680,-3.8701,0.7178,-0.4843,1773.68,-1185.97,1202.03
14690,-3.8707,0.6425,-0.4568,-116.94,-1983.03,1061.52
14700,-3.8712,0.5699,-0.4474,-1757.57,1532.47,670.96
14710,-3.8716,0.5001,-0.4514,961.18,-1264.53,30.33
14720,-3.8719,0.4266,-0.4734,23.68,-1780.27,-829.04
14730,-3.8721,0.3419,-0.5176,-1382.57,-592.96,1842.77
14740,-3.8722,0.2335,-0.5737,-226.32,1750.61,-1438.54
14750,-3.8723,0.0961,-0.6283,1898.68,-1437.07,-626.16
14760,-3.8724,-0.0575,-0.6713,304.93,-421.69,-563.78
14770,-3.8726,-0.2139,-0.6974,648.68,-1906.37,-641.97
14780,-3.8726,-0.3585,-0.7190,633.06,-1250.43,545.47
14790,-3.8726,-0.4841,-0.7469,-1882.57,-16.36,92.29
14800,-3.8726,-0.6055,-0.7628,-1960.69,405.27,-1595.21
14810,-3.8724,-0.7435,-0.7393,-1491.94,-1626.22,-1126.53
14820,-3.8723,-0.9047,-0.6791,836.18,1389.16,-579.59
14830,-3.8722,-1.0754,-0.6245,211.18,1091.98,-1595.09
14840,-3.8721,-1.2294,-0.6158,-1648.19,75.99,170.65
14850,-3.8721,-1.3505,-0.6501,-1351.32,1185.06,-1173.10
14860,-3.8718,-1.4409,-0.7028,-851.32,794.19,186.22
14870,-3.8717,-1.5021,-0.7592,-429.44,-1940.37,-892.03
14880,-3.8715,-1.5234,-0.7979,-257.57,-1159.24,1467.22
14890,-3.8713,-1.5039,-0.7927,1008.06,1887.63,1951.54
14900,-3.8713,-1.4580,-0.7439,-491.94,-1456.12,-579.71
14910,-3.8713,-1.3993,-0.6744,1383.06,794.01,-1860.84
14920,-3.8715,-1.3304,-0.6068,898.68,1684.75,-798.22
14930,-3.8716,-1.2501,-0.5514,1711.18,-1658.87,-48.10
14940,-3.8716,-1.1536,-0.5022,-7.57,1435.00,1014.53
14950,-3.8717,-1.0443,-0.4537,351.81,-267.88,1092.71
14960,-3.8719,-0.9379,-0.4056,-1663.82,1935.42,-16.54
14970,-3.8721,-0.8483,-0.3506,-38.82,91.86,-985.17
14980,-3.8722,-0.7805,-0.2908,-570.07,-861.08,-1094.48
14990,-3.8723,-0.7269,-0.2380,101.81,-1204.65,-484.99
15000,-3.8723,-0.6670,-0.2050,-1038.82,1545.41,452.64
15010,-3.8724,-0.5857,-0.1927,-1366.94,1779.91,1718.32
15020,-3.8726,-0.4952,-0.1846,1039.31,-657.41,-859.80
15030,-3.8727,-0.4103,-0.1704,617.43,389.65,-140.99
15040,-3.8728,-0.3271,-0.1636,-507.57,-1797.73,-703.49
15050,-3.8729,-0.2334,-0.1770,-1866.94,-922.55,1843.38
15060,-3.8730,-0.1241,-0.2092,-1866.94,1358.89,1452.76
15070,-3.8732,0.0137,-0.2649,117.43,1234.13,-906.68
15080,-3.8732,0.1949,-0.3544,1758.06,-1906.25,640.08
15090,-3.8733,0.4127,-0.4828,961.18,-1359.01,1624.27
15100,-3.8733,0.6821,-0.6302,836.18,-1796.08,561.52
15110,-3.8732,0.9865,-0.7400,-679.44,-670.59,1295.59
15120,-3.8728,1.2679,-0.7734,-1726.32,1283.14,-63.96
15130,-3.8719,1.4850,-0.7396,-1695.07,1002.44,717.22
15140,-3.8710,1.6106,-0.6915,-1913.82,1330.99,279.79
15150,-3.8700,1.6527,-0.6920,-1835.69,-512.51,717.35
15160,-3.8690,1.6144,-0.7502,-445.07,-574.95,404.85
15170,-3.8680,1.4884,-0.8215,-1351.32,-28.14,-454.65
15180,-3.8669,1.3135,-0.8657,-1476.32,-1153.38,-814.15
15190,-3.8661,1.1730,-0.8718,133.06,1190.06,1513.92
15200,-3.8658,1.1210,-0.8245,-1851.32,408.51,-1532.96
15210,-3.8661,1.1404,-0.7252,-507.57,-1529.11,154.60
15220,-3.8669,1.1863,-0.5953,1976.81,-825.93,-267.09
15230,-3.8678,1.2169,-0.4567,-148.19,-200.87,1686.28
15240,-3.8688,1.2025,-0.3472,-226.32,1549.19,-313.42
15250,-3.8696,1.1320,-0.2872,1929.93,-435.18,-16.36
15260,-3.8702,1.0104,-0.2543,898.68,-763.43,671.26
15270,-3.8708,0.8738,-0.2229,1336.18,-544.92,-1813.05
15280,-3.8713,0.7607,-0.2014,-148.19,-529.60,-578.61
15290,-3.8717,0.6876,-0.2067,1383.06,-1779.79,-328.55
15300,-3.8719,0.6497,-0.2354,23.68,1548.22,-469.18
15310,-3.8721,0.6127,-0.2571,-835.69,1876.22,-969.24
15320,-3.8721,0.5438,-0.2542,-1570.07,-905.09,686.95
15330,-3.8721,0.4364,-0.2578,1617.43,-530.21,327.58
15340,-3.8721,0.3082,-0.3020,-132.57,-999.21,-1844.30
15350,-3.8719,0.1862,-0.3922,-538.82,1344.30,1186.89
15360,-3.8718,0.0649,-0.4966,-163.82,1797.18,217.96
15370,-3.8718,-0.0691,-0.5815,320.56,437.62,811.52
15380,-3.8719,-0.2205,-0.6489,-835.69,1577.94,-1094.91
15390,-3.8719,-0.4072,-0.6913,-210.69,952.64,-688.78
15400,-3.8718,-0.6295,-0.7031,-116.94,-469.60,-1345.15
15410,-3.8717,-0.8394,-0.7128,-570.07,-1985.66,1998.60
15420,-3.8717,-1.0002,-0.7292,570.56,779.60,-313.90
15430,-3.8717,-1.1140,-0.7120,-23.19,-1330.14,951.66
15440,-3.8719,-1.1893,-0.6367,1414.31,872.80,1451.72
15450,-3.8722,-1.2345,-0.5299,-226.32,-1486.76,1342.47
15460,-3.8723,-1.2402,-0.4514,1992.43,185.06,-1719.79
15470,-3.8722,-1.1865,-0.4644,1258.06,-1768.07,1374.08
15480,-3.8719,-1.0918,-0.5515,133.06,575.81,624.08
15490,-3.8717,-1.0197,-0.6243,258.06,1419.74,-797.97
15500,-3.8713,-1.0233,-0.6393,1492.43,107.36,-266.85
15510,-3.8710,-1.0951,-0.6190,1023.68,-1814.51,-298.16
15520,-3.8706,-1.1930,-0.5792,-163.82,779.05,561.28
15530,-3.8705,-1.2648,-0.5228,-695.07,1872.62,1858.22
15540,-3.8705,-1.2579,-0.4796,-1882.57,1091.25,-282.29
15550,-3.8705,-1.1691,-0.4563,-1007.57,-1377.50,467.77
15560,-3.8708,-1.0374,-0.4249,-1632.57,1607.06,-235.29
15570,-3.8712,-0.9022,-0.3723,-773.19,1622.92,-172.73
15580,-3.8716,-0.8010,-0.3022,523.68,357.60,-375.73
15590,-3.8718,-0.7532,-0.2231,1476.81,1326.54,1921.26
15600,-3.8721,-0.7335,-0.1550,-398.19,-548.40,-703.61
15610,-3.8722,-0.7046,-0.1134,-1882.57,170.41,-1906.56
15620,-3.8723,-0.6582,-0.0891,1820.56,1498.60,1077.88
15630,-3.8724,-0.5933,-0.0677,-241.94,608.03,140.44
15640,-3.8727,-0.5013,-0.0486,70.56,-657.41,-1390.81
15650,-3.8728,-0.3853,-0.0347,-163.82,1795.84,78.00
15660,-3.8730,-0.2467,-0.0304,-1304.44,-422.67,1124.88
15670,-3.8733,-0.0817,-0.0240,429.93,124.51,-1171.94
15680,-3.8734,0.0853,0.0186,1554.93,937.32,-828.19
15690,-3.8733,0.2277,0.1030,-1070.07,-1624.88,0.00
15700,-3.8732,0.3815,0.1802,1148.68,1187.93,15.81
15710,-3.8730,0.5807,0.1969,836.18,-936.77,1500.31
15720,-3.8728,0.8053,0.1394,-1663.82,1204.22,-1905.88
15730,-3.8723,1.0253,0.0133,-913.82,1845.28,750.24
15740,-3.8716,1.1959,-0.1207,-757.57,1705.08,406.25
15750,-3.8706,1.2462,-0.1976,1086.18,549.19,702.88
15760,-3.8696,1.2045,-0.2405,-476.32,-1294.49,-1062.93
15770,-3.8688,1.1797,-0.2640,-1820.07,1221.07,-766.11
15780,-3.8682,1.1844,-0.2225,-991.94,-1794.62,-1094.30
15790,-3.8678,1.2137,-0.1008,-382.57,-482.12,1312.01
15800,-3.8678,1.3074,0.0369,-632.57,-903.93,609.13
15810,-3.8682,1.4500,0.1292,-648.19,721.25,1796.94
15820,-3.8687,1.5665,0.1865,1601.81,534.06,1984.62
15830,-3.8691,1.5890,0.2363,523.68,-121.95,-1421.57
15840,-3.8695,1.5048,0.2708,-601.32,-1746.95,-1296.45
15850,-3.8698,1.3579,0.2612,617.43,-1340.82,-874.51
15860,-3.8699,1.2069,0.1992,1820.56,1440.12,-1687.01
15870,-3.8700,1.0925,0.1188,-1507.57,1502.32,1640.99
15880,-3.8702,1.0177,0.0500,-148.19,-794.80,-281.07
15890,-3.8704,0.9706,-0.0370,-1726.32,-1591.80,625.06
15900,-3.8706,0.9275,-0.1797,242.43,-732.48,-1609.50
15910,-3.8707,0.8295,-0.3329,-1273.19,1001.77,-969.12
15920,-3.8707,0.6476,-0.4348,-1820.07,1392.21,1452.45
15930,-3.8708,0.4340,-0.4922,-1101.32,344.97,-1875.85
15940,-3.8711,0.2300,-0.5388,-445.07,1000.79,-141.60
15950,-3.8712,0.0189,-0.5791,1445.56,-968.32,202.03
15960,-3.8716,-0.2007,-0.5936,-1570.07,1875.00,-173.03
15970,-3.8718,-0.4073,-0.5720,-1679.44,30.82,-469.91
15980,-3.8719,-0.5787,-0.5265,-132.57,-1203.98,858.22
15990,-3.8721,-0.7010,-0.4777,1929.93,623.84,1077.09
16000,-3.8721,-0.8043,-0.4177,-1726.32,-1126.40,733.40
16010,-3.8721,-0.9100,-0.3302,1054.93,-1454.71,1936.65
16020,-3.8721,-0.9725,-0.2539,-476.32,1748.17,-828.80
16030,-3.8719,-0.9507,-0.2292,-476.32,-486.33,1202.58
16040,-3.8718,-0.8809,-0.2267,-1679.44,-1330.02,202.64
16050,-3.8718,-0.8317,-0.2137,-741.94,-1001.77,-1266.11
16060,-3.8717,-0.8282,-0.2059,1554.93,654.60,530.82
16070,-3.8717,-0.8726,-0.2172,1992.43,1654.60,-1531.68
16080,-3.8716,-0.9711,-0.2273,320.56,217.04,296.45
16090,-3.8716,-1.1188,-0.2129,-288.82,-1080.08,343.26
16100,-3.8717,-1.2727,-0.1713,804.93,763.43,1858.95
16110,-3.8718,-1.3622,-0.1190,1101.81,-1908.75,-1672.24
16120,-3.8719,-1.3693,-0.0807,1648.68,778.56,-1718.99
16130,-3.8721,-1.3336,-0.0574,742.43,1684.81,1577.94
16140,-3.8722,-1.2782,-0.0410,1304.93,669.25,1015.50
16150,-3.8723,-1.1971,-0.0444,398.68,-1236.88,1421.75
16160,-3.8724,-1.1003,-0.0507,-1226.32,-1674.26,-609.50
16170,-3.8724,-1.0291,-0.0188,-835.69,1529.05,-1578.25
16180,-3.8726,-0.9916,0.0441,289.31,1607.36,-187.56
16190,-3.8727,-0.9518,0.0944,1086.18,1654.30,-1593.69
16200,-3.8728,-0.8907,0.1188,-1820.07,91.86,906.43
16210,-3.8729,-0.8279,0.1375,1992.43,-783.02,984.56
16220,-3.8730,-0.7664,0.1466,-1960.69,1607.73,1312.74
16230,-3.8732,-0.6956,0.1404,1914.31,-1220.28,1859.62
16240,-3.8733,-0.6385,0.1453,-1023.19,1982.97,-218.51
16250,-3.8733,-0.6013,0.1747,-1726.32,-1391.91,1703.37
16260,-3.8734,-0.5471,0.1984,-960.69,-1626.22,-937.19
16270,-3.8734,-0.4530,0.1990,1976.81,1405.15,-1515.26
16280,-3.8733,-0.3230,0.1870,-1976.32,1483.46,1047.24
16290,-3.8732,-0.1555,0.1620,-1335.69,-47.55,1078.43
16300,-3.8730,0.0359,0.1401,101.81,749.69,1984.68
16310,-3.8728,0.2238,0.1504,601.81,1937.56,984.62
16320,-3.8726,0.4303,0.1777,648.68,-749.57,-1546.63
16330,-3.8722,0.7089,0.2002,-913.82,-1249.21,-1718.44
16340,-3.8718,1.0527,0.2408,-1257.57,1626.34,-952.76
16350,-3.8715,1.4106,0.3264,-1241.94,-1169.86,-1687.07
16360,-3.8712,1.7322,0.4390,570.56,1784.00,-780.64
16370,-3.8710,1.9642,0.5537,1726.81,190.86,1547.73
16380,-3.8708,2.0712,0.6615,-570.07,-1121.22,1063.54
16390,-3.8708,2.0607,0.7379,1117.43,675.90,1282.53
16400,-3.8711,1.9932,0.7676,-226.32,-1542.91,-357.97
16410,-3.8715,1.9470,0.7454,-866.94,-1746.15,923.34
16420,-3.8722,1.9435,0.6609,1226.81,-589.97,845.15
16430,-3.8730,1.9244,0.5287,773.68,597.53,673.16
16440,-3.8738,1.8414,0.3994,-1663.82,-324.40,-1905.27
16450,-3.8740,1.6857,0.4376,-288.82,-871.46,1985.11
16460,-3.8738,1.4120,0.7368,-226.32,18.86,985.23
16470,-3.8734,1.1121,0.9232,742.43,-1684.75,1110.78
16480,-3.8730,1.0126,0.5509,-1648.19,-1825.99,1408.02
16490,-3.8724,1.0308,-0.1279,1617.43,-1482.42,-1561.46
16500,-3.8713,0.9028,-0.5596,-54.44,-373.05,952.82
16510,-3.8700,0.6068,-0.5970,-429.44,376.71,405.15
16520,-3.8688,0.2806,-0.4574,1679.93,-420.72,-1829.35
16530,-3.8679,0.0261,-0.4022,-70.07,1453.61,-1422.79
16540,-3.8676,-0.1215,-0.4728,-648.19,515.62,-1969.54
16550,-3.8677,-0.1807,-0.5417,461.18,-500.24,795.90
16560,-3.8683,-0.1801,-0.5314,883.06,-1328.49,1123.90
16570,-3.8691,-0.1208,-0.4933,961.18,-0.37,889.53
16580,-3.8701,-0.0258,-0.4873,539.31,874.76,1405.27
16590,-3.8711,0.0475,-0.5164,711.18,1640.56,-500.98
16600,-3.8717,0.0453,-0.5481,-1913.82,1906.31,92.71
16610,-3.8722,-0.0439,-0.5546,1804.93,1843.81,-1344.85
16620,-3.8722,-0.1779,-0.5648,-1616.94,1031.13,577.03
16630,-3.8719,-0.3049,-0.6429,1242.43,-281.62,1405.09
16640,-3.8715,-0.4296,-0.7753,976.81,1718.14,-79.41
16650,-3.8706,-0.5900,-0.8667,1023.68,780.40,920.35
16660,-3.8699,-0.7778,-0.8905,492.43,1076.97,1076.42
16670,-3.8694,-0.9379,-0.8959,445.56,-1970.28,888.85
16680,-3.8693,-1.0311,-0.9019,-38.82,1341.86,-1986.15
16690,-3.8694,-1.0624,-0.8998,23.68,576.11,-1767.40
16700,-3.8696,-1.0521,-0.8781,23.68,841.67,1029.48
16710,-3.8700,-1.0262,-0.8317,1336.18,-377.08,-1298.65
16720,-3.8702,-1.0111,-0.7719,648.68,1560.49,1935.85
16730,-3.8705,-1.0162,-0.7057,-1413.82,1216.74,-673.40
16740,-3.8706,-1.0311,-0.6401,1929.93,1685.49,-1470.15
16750,-3.8707,-1.0188,-0.5955,23.68,-1923.89,-1766.91
16760,-3.8708,-0.9585,-0.5729,1601.81,-205.14,1748.78
16770,-3.8710,-0.8846,-0.5343,1320.56,-1314.39,1436.34
16780,-3.8711,-0.8418,-0.4658,-1226.32,-376.77,1780.15
16790,-3.8712,-0.8245,-0.3998,258.06,388.98,-1157.17
16800,-3.8713,-0.8008,-0.3621,-1523.19,842.10,-500.79
16810,-3.8715,-0.7615,-0.3503,1508.06,1670.29,-1719.48
16820,-3.8717,-0.7046,-0.3477,-1460.69,-829.65,-1297.61
16830,-3.8719,-0.6281,-0.3345,1820.56,-485.78,1046.14
16840,-3.8723,-0.5459,-0.3081,-382.57,1201.84,-1578.80
16850,-3.8726,-0.4784,-0.2767,-1866.94,577.03,1108.76
16860,-3.8728,-0.4104,-0.2494,-1226.32,592.77,-1422.42
16870,-3.8729,-0.2848,-0.2574,-523.19,92.90,-1875.49
16880,-3.8730,-0.0607,-0.3131,-445.07,-938.11,-1000.55
16890,-3.8730,0.2349,-0.3535,242.43,-62.62,624.33
16900,-3.8732,0.5302,-0.3110,-1929.44,-1249.57,-1578.86
16910,-3.8732,0.7841,-0.1917,-132.57,188.48,358.76
16920,-3.8733,1.0380,-0.0577,367.43,-529.72,-1250.43
16930,-3.8733,1.3468,0.0305,867.43,611.39,-375.12
16940,-3.8730,1.6868,0.0629,398.68,-91.13,-984.38
16950,-3.8726,1.9673,0.0735,-85.69,50.11,-1390.50
16960,-3.8719,2.1156,0.0646,-179.44,1410.03,-1390.50
16970,-3.8713,2.1268,0.0303,-1195.07,269.71,1937.62
16980,-3.8707,2.0383,0.0049,242.43,-120.85,1359.38
16990,-3.8700,1.9120,0.0111,914.31,628.97,515.62
17000,-3.8693,1.8009,0.0337,742.43,1425.60,765.62
17010,-3.8688,1.7208,0.0439,-1476.32,315.98,-296.81
17020,-3.8684,1.6559,0.0292,273.68,1628.36,1796.94
17030,-3.8683,1.5880,-0.0118,-38.82,-262.45,578.12
17040,-3.8683,1.5087,-0.0543,-726.32,-1512.57,578.06
17050,-3.8683,1.4097,-0.0698,1117.43,1049.80,62.38
17060,-3.8684,1.2916,-0.0789,445.56,-934.75,62.32
17070,-3.8688,1.1655,-0.1141,1336.18,1908.75,1218.57
17080,-3.8693,1.0394,-0.1676,1195.56,1392.88,640.38
17090,-3.8699,0.9203,-0.2284,1054.93,-1451.11,1234.01
17100,-3.8705,0.8132,-0.3069,1804.93,-1232.60,1327.64
17110,-3.8711,0.7151,-0.4017,101.81,720.34,-563.11
17120,-3.8715,0.6161,-0.5033,-460.69,579.47,1733.58
17130,-3.8717,0.5111,-0.6161,-1132.57,-420.72,764.59
17140,-3.8719,0.4021,-0.7373,1429.93,1141.60,-313.72
17150,-3.8719,0.2682,-0.8301,-523.19,1625.73,-1017.09
17160,-3.8718,0.0815,-0.8646,-1663.82,1750.49,-1814.15
17170,-3.8717,-0.1444,-0.8579,-1554.44,1328.25,-1829.83
17180,-3.8716,-0.3799,-0.8425,1523.68,-1797.18,1513.92
17190,-3.8715,-0.6019,-0.8304,-616.94,171.08,263.98
17200,-3.8715,-0.7886,-0.8287,-1038.82,1717.53,-642.27
17210,-3.8712,-0.9385,-0.8512,-929.44,1935.91,1029.60
17220,-3.8710,-1.0696,-0.8860,-116.94,-939.39,1670.17
17230,-3.8707,-1.1864,-0.9039,-898.19,-1392.76,-908.02
17240,-3.8705,-1.2686,-0.9034,148.68,310.18,-814.27
17250,-3.8702,-1.3029,-0.8885,1633.06,372.50,466.98
17260,-3.8702,-1.3040,-0.8539,1242.43,-1721.31,-1939.27
17270,-3.8704,-1.2920,-0.8082,1101.81,-1283.81,-345.46
17280,-3.8705,-1.2775,-0.7600,-1366.94,559.94,-1970.34
17290,-3.8707,-1.2634,-0.7028,492.43,-1268.13,-1485.90
17300,-3.8710,-1.2457,-0.6357,-1710.69,-1940.00,1701.72
17310,-3.8712,-1.2007,-0.5699,554.93,-1361.82,1295.59
17320,-3.8715,-1.1163,-0.5073,-1679.44,-939.88,-532.41
17330,-3.8715,-1.0254,-0.4369,1117.43,-924.07,155.21
17340,-3.8716,-0.9521,-0.3606,758.06,91.74,1780.40
17350,-3.8717,-0.8907,-0.2993,-1866.94,1857.48,-1688.23
17360,-3.8718,-0.8275,-0.2627,1992.43,1701.35,999.39
17370,-3.8721,-0.7504,-0.2386,-1913.82,-1611.02,-1172.42
17380,-3.8722,-0.6605,-0.2086,-38.82,1467.22,733.89
17390,-3.8724,-0.5679,-0.1687,-538.82,1311.16,-1297.30
17400,-3.8726,-0.4713,-0.1300,-679.44,-1579.28,218.38
17410,-3.8728,-0.3630,-0.0979,-320.07,-625.98,-1906.56
17420,-3.8729,-0.2373,-0.0732,1539.31,-516.36,1077.88
17430,-3.8732,-0.0823,-0.0587,1633.06,-1359.86,-62.68
17440,-3.8733,0.1345,-0.0612,1476.81,499.82,-1187.62
17450,-3.8734,0.4377,-0.1134,1226.81,172.12,-1375.12
17460,-3.8735,0.8259,-0.2095,39.31,1485.23,-297.12
17470,-3.8734,1.2461,-0.2979,1726.81,1189.09,-1484.80
17480,-3.8729,1.6277,-0.3262,-491.94,1877.38,765.01
17490,-3.8721,1.9098,-0.2645,351.81,-1746.83,1139.95
17500,-3.8710,2.0494,-0.1765,461.18,-1855.65,-531.80
17510,-3.8698,2.0464,-0.1412,-1663.82,1410.22,468.38
17520,-3.8689,1.9347,-0.1516,1945.56,1925.84,421.57
17530,-3.8683,1.7896,-0.1530,-351.32,597.47,1890.32
17540,-3.8678,1.6864,-0.1089,1070.56,425.35,-125.31
17550,-3.8674,1.6407,-0.0475,-132.57,-1934.27,-1750.24
17560,-3.8674,1.6003,-0.0222,-1976.32,1925.05,1437.38
17570,-3.8678,1.5328,-0.0411,851.81,1159.36,-703.19
17580,-3.8682,1.4586,-0.0778,211.18,-1262.63,1109.25
17590,-3.8685,1.3824,-0.1161,-1288.82,-1950.32,343.57
17600,-3.8689,1.2804,-0.1552,961.18,1143.31,-1718.99
17610,-3.8693,1.1505,-0.1924,-101.32,143.07,-453.43
17620,-3.8696,1.0164,-0.2301,-726.32,-622.80,1718.32
17630,-3.8701,0.8872,-0.2770,-1898.19,-1451.17,1562.01
17640,-3.8706,0.7592,-0.3344,1570.56,548.58,983.83
17650,-3.8711,0.6365,-0.3961,1179.93,1204.59,1233.70
17660,-3.8716,0.5231,-0.4552,1476.81,1298.10,-16.42
17670,-3.8718,0.4188,-0.5077,-1038.82,1735.35,-1407.17
17680,-3.8719,0.3149,-0.5457,1617.43,-983.58,811.46
17690,-3.8721,0.2002,-0.5742,320.56,-1843.14,-1797.97
17700,-3.8721,0.0837,-0.6104,1633.06,-1499.63,-1938.66
17710,-3.8721,-0.0361,-0.6443,-1273.19,1875.12,-626.22
17720,-3.8719,-0.1780,-0.6584,-616.94,1546.75,1076.84
17730,-3.8719,-0.3450,-0.6560,1226.81,-265.99,-1704.47
17740,-3.8719,-0.5238,-0.6458,-148.19,46.14,-1266.91
17750,-3.8719,-0.6869,-0.6313,961.18,1358.34,-1001.28
17760,-3.8719,-0.8132,-0.6202,86.18,-798.22,-141.91
17770,-3.8718,-0.8987,-0.6213,-85.69,623.35,1655.03
17780,-3.8717,-0.9478,-0.6383,976.81,482.60,514.40
17790,-3.8717,-0.9790,-0.6700,-1304.44,-1689.39,-204.41
17800,-3.8716,-1.0127,-0.7070,-1304.44,-1751.95,-376.34
17810,-3.8713,-1.0626,-0.7321,-1616.94,1513.61,701.72
17820,-3.8712,-1.1351,-0.7284,-7.57,-1689.64,-1235.84
17830,-3.8710,-1.2183,-0.6929,-1288.82,-1221.01,1107.91
17840,-3.8708,-1.2888,-0.6432,70.56,-674.26,-1610.78
17850,-3.8707,-1.3281,-0.6012,-960.69,1684.94,1014.34
17860,-3.8707,-1.3204,-0.5729,-1991.94,-940.12,451.90
17870,-3.8708,-1.2681,-0.5417,-1007.57,-1315.12,780.09
17880,-3.8711,-1.1947,-0.4895,1695.56,-1330.63,-1501.10
17890,-3.8713,-1.1150,-0.4189,-913.82,1356.99,-1579.10
17900,-3.8716,-1.0327,-0.3574,1289.31,-1611.57,1733.52
17910,-3.8718,-0.9493,-0.3198,-179.44,-1736.45,1593.02
17920,-3.8721,-0.8722,-0.2911,-1507.57,-923.77,-1313.17
17930,-3.8722,-0.8109,-0.2568,367.43,-1251.71,1452.51
17940,-3.8723,-0.7665,-0.2130,211.18,-860.96,1718.20
17950,-3.8724,-0.7297,-0.1664,1898.68,748.47,-297.30
17960,-3.8724,-0.6876,-0.1219,-1398.19,-1282.71,-875.37
17970,-3.8724,-0.6289,-0.0820,-7.57,404.85,-1500.24
17980,-3.8724,-0.5459,-0.0536,-491.94,1514.34,999.82
17990,-3.8726,-0.4414,-0.0328,-1866.94,1155.15,-1281.37
18000,-3.8726,-0.3187,-0.0153,-491.94,-188.42,156.13
18010,-3.8727,-0.1660,-0.0139,-788.82,-1938.17,1828.06
18020,-3.8727,0.0331,-0.0356,-1241.94,-1765.99,296.81
18030,-3.8727,0.2842,-0.0688,242.43,-562.44,859.25
18040,-3.8726,0.5936,-0.1051,383.06,-811.95,1390.44
18050,-3.8723,0.9504,-0.1158,-7.57,-1452.03,-1687.74
18060,-3.8719,1.2888,-0.0737,1664.31,1173.71,-1718.99
18070,-3.8716,1.5436,0.0095,976.81,-1435.00,-47.06
18080,-3.8711,1.6747,0.0977,1586.18,1221.74,-437.50
18090,-3.8705,1.6486,0.1428,-1632.57,503.23,1672.06
18100,-3.8699,1.4937,0.1377,-976.32,-1715.58,1140.87
18110,-3.8693,1.2991,0.1244,-804.44,1627.87,859.62
18120,-3.8688,1.1355,0.1340,-1710.69,-75.62,-1171.69
18130,-3.8684,1.0312,0.1620,1351.81,1158.45,-140.38
18140,-3.8682,0.9777,0.1798,8.06,736.39,1687.81
18150,-3.8683,0.9370,0.1748,1148.68,-982.48,-780.94
18160,-3.8685,0.8776,0.1642,-54.44,-1623.23,922.18
18170,-3.8690,0.7910,0.1554,336.18,1017.33,734.68
18180,-3.8696,0.6849,0.1387,1258.06,-107.85,1734.62
18190,-3.8702,0.5778,0.1091,-320.07,1751.28,-1187.26
18200,-3.8707,0.4839,0.0708,1961.18,1969.85,1797.06
18210,-3.8711,0.3995,0.0316,1945.56,1063.42,78.25
18220,-3.8715,0.3218,-0.0027,-851.32,47.61,1687.56
18230,-3.8717,0.2515,-0.0314,1195.56,-343.14,-1984.44
18240,-3.8718,0.1818,-0.0583,195.56,-15.14,703.00
18250,-3.8719,0.1145,-0.0857,-726.32,531.56,1718.63
18260,-3.8719,0.0564,-0.1078,-1335.69,1031.43,671.69
18270,-3.8719,0.0061,-0.1256,-773.19,-1796.81,1327.88
18280,-3.8719,-0.0415,-0.1401,789.31,-78.12,-312.81
18290,-3.8718,-0.0912,-0.1499,-1304.44,-1922.00,-781.56
18300,-3.8717,-0.1437,-0.1570,336.18,827.94,-672.18
18310,-3.8716,-0.2001,-0.1606,1617.43,-78.43,-15.99
18320,-3.8713,-0.2585,-0.1625,-1601.32,-547.30,921.51
18330,-3.8712,-0.3132,-0.1699,-1085.69,-781.80,1515.26
18340,-3.8711,-0.3618,-0.1865,-85.69,-1735.05,1124.63
18350,-3.8711,-0.4077,-0.2096,1695.56,139.89,-812.87
18360,-3.8711,-0.4602,-0.2366,-179.44,1186.65,-562.93
18370,-3.8711,-0.5184,-0.2578,1101.81,1733.46,-1719.24
18380,-3.8711,-0.5677,-0.2764,1648.68,-985.41,936.95
18390,-3.8712,-0.5974,-0.3090,-663.82,639.47,-0.55
18400,-3.8712,-0.6133,-0.3544,-460.69,467.53,-1313.11
18410,-3.8712,-0.6342,-0.4022,1508.06,-1344.97,499.27
18420,-3.8713,-0.6748,-0.4379,-1163.82,529.97,-1922.67
18430,-3.8713,-0.7400,-0.4479,1633.06,-32.59,202.21
18440,-3.8715,-0.8239,-0.4418,1289.31,-1313.96,-672.79
18450,-3.8715,-0.9120,-0.4390,-1445.07,-532.90,-391.54
18460,-3.8713,-0.9966,-0.4406,-726.32,-173.71,811.58
18470,-3.8713,-1.0765,-0.4344,445.56,-376.95,-1735.29
18480,-3.8713,-1.1467,-0.4183,-1788.82,404.11,-985.23
18490,-3.8713,-1.1869,-0.3943,1226.81,-1533.51,-1625.85
18500,-3.8713,-1.1782,-0.3630,86.18,1544.56,296.08
18510,-3.8715,-1.1282,-0.3273,1195.56,1544.56,1218.02
18520,-3.8716,-1.0571,-0.2947,-398.19,-1877.26,1561.83
18530,-3.8717,-0.9794,-0.2677,695.56,-1705.20,1421.26
18540,-3.8718,-0.9044,-0.2380,-1351.32,1748.05,796.33
18550,-3.8719,-0.8381,-0.1984,242.43,1545.10,280.76
18560,-3.8721,-0.7809,-0.1465,726.81,-1376.65,187.07
18570,-3.8722,-0.7264,-0.0879,54.93,1264.10,499.69
18580,-3.8723,-0.6626,-0.0315,-976.32,764.16,1109.19
18590,-3.8724,-0.5834,0.0128,-804.44,-16.97,1499.88
18600,-3.8726,-0.4943,0.0493,1336.18,1655.09,1453.12
18610,-3.8727,-0.3982,0.0912,742.43,-1672.85,1750.06
18620,-3.8728,-0.2847,0.1248,1039.31,-313.29,-796.75
18630,-3.8728,-0.1328,0.1215,-429.44,-16.24,1640.81
18640,-3.8728,0.0814,0.0703,-991.94,-437.81,797.06
18650,-3.8728,0.3649,-0.0122,-1570.07,1000.12,1437.62
18660,-3.8727,0.7108,-0.0787,-1288.82,-1561.83,1734.31
18670,-3.8724,1.0740,-0.0757,-1007.57,1923.22,-1281.43
18680,-3.8719,1.3745,0.0054,1476.81,-1685.42,624.82
18690,-3.8715,1.5664,0.0936,-54.44,690.12,-1093.75
18700,-3.8708,1.6290,0.1244,508.06,-12.57,-640.50
18710,-3.8702,1.5599,0.1144,523.68,-74.95,-15.44
18720,-3.8695,1.3840,0.1068,-320.07,-1356.38,515.81
18730,-3.8689,1.1638,0.1211,1164.31,1674.56,1343.93
18740,-3.8684,0.9872,0.1443,976.81,-497.74,-640.44
18750,-3.8680,0.8943,0.1617,-1632.57,-1529.36,1922.12
18760,-3.8680,0.8622,0.1665,-1523.19,704.83,-1109.07
18770,-3.8683,0.8531,0.1511,-1632.57,1314.15,-1140.32
18780,-3.8687,0.8392,0.1097,1211.18,-654.60,609.62
18790,-3.8691,0.7953,0.0425,-570.07,-1951.54,218.93
18800,-3.8696,0.7083,-0.0421,1804.93,1439.03,515.69
18810,-3.8701,0.5868,-0.1356,-1335.69,-1389.28,-1765.75
18820,-3.8705,0.4546,-0.2297,-882.57,-1358.28,1874.69
18830,-3.8707,0.3319,-0.3076,-1804.44,-1405.40,202.64
18840,-3.8710,0.2288,-0.3588,-1507.57,625.61,1686.89
18850,-3.8711,0.1439,-0.3844,1289.31,-1921.45,1889.89
18860,-3.8712,0.0676,-0.3885,-1570.07,-1202.88,-485.17
18870,-3.8712,0.0005,-0.3824,664.31,-1734.25,1874.21
18880,-3.8712,-0.0553,-0.3729,70.56,-953.12,1186.71
18890,-3.8712,-0.1157,-0.3607,929.93,281.13,-1828.86
18900,-3.8711,-0.1962,-0.3534,1195.56,1843.51,827.39
18910,-3.8711,-0.2933,-0.3606,-1101.32,-1219.18,-313.23
18920,-3.8710,-0.3979,-0.3726,-1538.82,1858.76,1343.02
18930,-3.8710,-0.4980,-0.3794,1070.56,327.33,1749.27
18940,-3.8710,-0.5853,-0.3807,258.06,-547.85,1499.21
18950,-3.8710,-0.6648,-0.3746,1086.18,-719.91,530.46
18960,-3.8711,-0.7438,-0.3595,-1085.69,61.16,1983.64
18970,-3.8712,-0.8168,-0.3325,804.93,1998.54,1718.02
18980,-3.8713,-0.8666,-0.3042,-538.82,1451.48,921.20
18990,-3.8715,-0.8854,-0.2936,1086.18,1076.42,530.64
19000,-3.8716,-0.8889,-0.2991,-1320.07,-1564.27,515.01
19010,-3.8717,-0.8951,-0.2987,-1773.19,1732.60,827.51
19020,-3.8718,-0.9172,-0.2839,1429.93,1779.48,-1859.99
19030,-3.8718,-0.9591,-0.2665,-1398.19,-329.96,640.01
19040,-3.8718,-1.0081,-0.2518,1242.43,1904.36,15.08
19050,-3.8718,-1.0475,-0.2333,-1023.19,-220.76,311.95
19060,-3.8718,-1.0669,-0.2074,1929.93,-1845.83,1249.51
19070,-3.8718,-1.0667,-0.1786,-554.44,1466.61,1937.07
19080,-3.8718,-1.0516,-0.1495,-523.19,1154.11,1984.01
19090,-3.8718,-1.0284,-0.1232,1398.68,872.92,1405.94
19100,-3.8718,-1.0002,-0.1019,367.43,247.99,124.76
19110,-3.8719,-0.9646,-0.0837,-23.19,-1033.26,-1750.24
19120,-3.8721,-0.9191,-0.0641,539.31,1294.98,-172.06
19130,-3.8721,-0.8627,-0.0405,-1632.57,-189.33,827.94
19140,-3.8722,-0.7974,-0.0125,1586.18,-1173.58,1078.00
19150,-3.8723,-0.7235,0.0127,1945.56,-1579.71,812.44
19160,-3.8724,-0.6388,0.0327,-601.32,1639.16,671.88
19170,-3.8726,-0.5477,0.0558,-1757.57,201.84,1281.31
19180,-3.8727,-0.4452,0.0758,1898.68,-844.85,-937.44
19190,-3.8727,-0.3171,0.0820,-976.32,1717.83,1672.00
19200,-3.8727,-0.1632,0.0765,-585.69,-1485.05,1109.50
19210,-3.8727,0.0120,0.0643,-882.57,1812.13,-1218.63
19220,-3.8726,0.2114,0.0492,1539.31,234.38,-46.75
19230,-3.8722,0.4371,0.0424,-929.44,-1702.76,1328.19
19240,-3.8718,0.6654,0.0543,-38.82,1422.67,-859.31
19250,-3.8713,0.8684,0.0984,1179.93,-1045.59,-374.94
19260,-3.8708,1.0143,0.1824,-835.69,595.40,-484.19
19270,-3.8704,1.0967,0.2917,1836.18,-654.30,890.93
19280,-3.8701,1.1389,0.4003,383.06,1345.89,-296.33
19290,-3.8699,1.1567,0.4874,1789.31,-763.43,-77.39
19300,-3.8696,1.1663,0.5520,70.56,-1607.12,1141.54
19310,-3.8696,1.1686,0.6063,1289.31,-1341.49,-1014.59
19320,-3.8696,1.1622,0.6467,1586.18,1611.63,1563.66
19330,-3.8698,1.1416,0.6627,773.68,-1216.49,1751.22
19340,-3.8700,1.0809,0.6624,-1866.94,830.32,-76.84
19350,-3.8701,0.9722,0.6573,-1632.57,783.33,110.66
19360,-3.8705,0.8383,0.6550,445.56,142.52,-1326.84
19370,-3.8708,0.6995,0.6526,-695.07,-154.66,-45.65
19380,-3.8711,0.5684,0.6414,1539.31,-467.41,63.72
19390,-3.8716,0.4487,0.6147,758.06,-1905.15,-561.28
19400,-3.8719,0.3407,0.5743,1445.56,-1311.65,-748.84
19410,-3.8722,0.2397,0.5286,-382.57,1516.24,594.85
19420,-3.8724,0.1415,0.4738,-1304.44,-343.32,219.73
19430,-3.8727,0.0511,0.3972,-1882.57,640.87,-1733.46
19440,-3.8728,-0.0333,0.2969,-1445.07,-1156.19,-1280.52
19450,-3.8728,-0.1218,0.1886,-257.57,-1984.50,1922.42
19460,-3.8728,-0.2185,0.0881,414.31,156.01,-437.13
19470,-3.8727,-0.3138,-0.0012,39.31,-703.55,-1171.75
19480,-3.8726,-0.4011,-0.0841,-163.82,-141.30,-796.94
19490,-3.8723,-0.4849,-0.1573,664.31,1249.21,562.32
19500,-3.8722,-0.5740,-0.2190,1945.56,-125.98,-531.62
19510,-3.8718,-0.6661,-0.2711,-1460.69,-16.78,171.39
19520,-3.8716,-0.7592,-0.3157,-1257.57,1311.16,1999.45
19530,-3.8712,-0.8552,-0.3538,-1163.82,-392.15,171.20
19540,-3.8710,-0.9485,-0.3911,-1460.69,-1267.33,1655.52
19550,-3.8707,-1.0321,-0.4315,-1398.19,1951.23,1592.96
19560,-3.8706,-1.1025,-0.4631,-101.32,779.17,-547.73
19570,-3.8705,-1.1500,-0.4755,-1116.94,732.18,1874.08
19580,-3.8706,-1.1658,-0.4683,804.93,-846.01,-32.23
19590,-3.8707,-1.1558,-0.4424,-1210.69,75.81,-1922.79
19600,-3.8710,-1.1332,-0.3905,70.56,-611.63,1608.46
19610,-3.8713,-1.1050,-0.3175,-1038.82,-1971.01,-125.79
19620,-3.8716,-1.0668,-0.2428,-1429.44,-627.20,-1969.42
19630,-3.8718,-1.0203,-0.1779,-538.82,935.36,921.39
19640,-3.8721,-0.9723,-0.1210,1414.31,1247.99,968.38
19650,-3.8723,-0.9309,-0.0658,-445.07,529.30,-953.37
19660,-3.8724,-0.9022,-0.0128,851.81,-408.08,-297.06
19670,-3.8724,-0.8822,0.0309,523.68,-1626.77,1890.56
19680,-3.8724,-0.8613,0.0638,-913.82,-33.02,109.38
19690,-3.8726,-0.8308,0.0896,1758.06,185.79,1828.25
19700,-3.8727,-0.7864,0.1110,1664.31,-517.27,-656.13
19710,-3.8727,-0.7321,0.1335,-648.19,-1782.84,1140.81
19720,-3.8728,-0.6782,0.1611,-1695.07,1107.91,-921.63
19730,-3.8728,-0.6243,0.1929,1195.56,639.28,484.68
19740,-3.8729,-0.5649,0.2312,101.81,701.90,1594.12
19750,-3.8730,-0.4941,0.2791,-304.44,1608.22,-905.82
19760,-3.8730,-0.3965,0.3248,758.06,-266.60,812.99
19770,-3.8732,-0.2587,0.3506,1258.06,1592.96,-1655.64
19780,-3.8732,-0.0781,0.3671,-1101.32,890.08,94.42
19790,-3.8733,0.1483,0.4103,-1991.94,-1000.18,-1139.95
19800,-3.8733,0.4324,0.4825,-1007.57,515.87,-1561.71
19810,-3.8733,0.7904,0.5466,-648.19,1766.42,-1014.71
19820,-3.8732,1.2019,0.5680,1179.93,1970.28,1235.41
19830,-3.8730,1.6193,0.5416,1851.81,705.44,-1108.28
19840,-3.8727,1.9597,0.4940,-726.32,1331.24,-1748.96
19850,-3.8721,2.1339,0.4319,-1148.19,-761.84,1063.42
19860,-3.8712,2.1414,0.3488,1148.68,-714.60,-1467.96
19870,-3.8700,2.0209,0.2770,-1898.19,644.78,-389.95
19880,-3.8685,1.8004,0.2284,-1320.07,-542.97,891.11
19890,-3.8673,1.5204,0.1765,-1538.82,1237.85,594.18
19900,-3.8666,1.2461,0.1204,-1382.57,-1403.32,-1015.32
19910,-3.8663,1.0280,0.0688,-491.94,-591.37,875.18
19920,-3.8668,0.8798,0.0197,-413.82,814.45,656.37
19930,-3.8678,0.7898,-0.0416,617.43,-1482.67,484.38
19940,-3.8690,0.7133,-0.1296,1101.81,-1326.60,-1968.87
19950,-3.8701,0.5947,-0.2367,-695.07,-592.41,968.44
19960,-3.8711,0.4169,-0.3401,133.06,1704.28,1171.39
19970,-3.8719,0.2064,-0.4183,1367.43,469.54,-1031.92
19980,-3.8726,0.0190,-0.4847,-1570.07,-1546.51,-1860.23
19990,-3.8729,-0.1119,-0.5588,-1554.44,1953.12,358.40
20000,-3.8732,-0.2170,-0.6296,1679.93,484.13,-782.35
20010,-3.8730,-0.3464,-0.6985,226.81,-578.55,-1266.91
20020,-3.8727,-0.5220,-0.7812,-335.69,-1391.36,1404.85
20030,-3.8722,-0.7460,-0.8788,1195.56,14.59,764.10
20040,-3.8716,-1.0116,-0.9635,523.68,-470.21,201.35
20050,-3.8710,-1.2926,-1.0035,-1476.32,685.49,-1986.27
20060,-3.8704,-1.5420,-1.0183,-1445.07,-440.06,-1111.39
20070,-3.8699,-1.7054,-1.0428,-1366.94,1668.82,-33.26
20080,-3.8695,-1.7579,-1.0892,1711.18,-1472.11,1872.92
20090,-3.8695,-1.7137,-1.1169,-1007.57,590.27,-736.51
20100,-3.8696,-1.6172,-1.0659,648.68,1043.52,1138.43
20110,-3.8700,-1.5118,-0.9406,1008.06,-425.05,1357.24
20120,-3.8705,-1.4027,-0.7988,-1507.57,-377.99,1826.23
20130,-3.8710,-1.2700,-0.6862,461.18,1762.88,1060.91
20140,-3.8715,-1.1143,-0.6024,1445.56,185.00,1967.41
20150,-3.8718,-0.9668,-0.5258,1383.06,-1095.95,-1844.97
20160,-3.8721,-0.8550,-0.4485,258.06,716.86,1467.71
20170,-3.8723,-0.7853,-0.3748,-1429.44,-1392.33,-844.67
20180,-3.8724,-0.7408,-0.3121,-507.57,45.29,-1875.73
20190,-3.8726,-0.6946,-0.2712,1179.93,61.04,1249.39
20200,-3.8727,-0.6399,-0.2439,-898.19,1295.47,421.33
20210,-3.8728,-0.5839,-0.2141,-1898.19,795.59,530.76
20220,-3.8729,-0.5250,-0.1781,1273.68,608.22,1765.20
20230,-3.8730,-0.4580,-0.1383,804.93,1217.71,-875.37
20240,-3.8732,-0.3738,-0.1064,1383.06,-1688.42,-531.56
20250,-3.8733,-0.2560,-0.0999,164.31,-1610.11,-1406.49
20260,-3.8734,-0.0824,-0.1259,-757.57,-766.17,1937.26
20270,-3.8735,0.1693,-0.1769,1461.18,-93.93,-1812.81
20280,-3.8737,0.4958,-0.2438,1679.93,1359.68,-1765.99
20290,-3.8738,0.8621,-0.3175,-523.19,797.79,-1359.86
20300,-3.8738,1.2032,-0.4017,-1648.19,-638.98,-656.92
20310,-3.8735,1.5441,-0.5107,-1976.32,580.44,-547.67
20320,-3.8729,1.8822,-0.5972,1648.68,-1372.01,-1469.79
20330,-3.8718,2.1213,-0.6306,929.93,-433.84,1623.78
20340,-3.8705,2.2515,-0.6644,-460.69,-714.66,-157.53
20350,-3.8689,2.2361,-0.7361,195.56,-1042.48,701.78
20360,-3.8674,2.0438,-0.8136,-1773.19,1785.58,1607.91
20370,-3.8661,1.7700,-0.8439,1617.43,-136.66,1826.48
20380,-3.8651,1.5265,-0.8147,-1429.44,-12.21,-1626.71
20390,-3.8646,1.3685,-0.7494,-601.32,-278.32,-1720.40
20400,-3.8647,1.2876,-0.6825,-820.07,80.75,-892.09
20410,-3.8654,1.2316,-0.6271,820.56,643.13,826.78
20420,-3.8666,1.1671,-0.5753,1648.68,-263.24,-1173.16
20430,-3.8679,1.1067,-0.5122,1398.68,-1638.37,639.47
20440,-3.8693,1.0546,-0.4755,1664.31,-1560.36,733.34
20450,-3.8704,0.9783,-0.5016,-1007.57,-857.36,1717.77
20460,-3.8712,0.8628,-0.5764,1226.81,-201.23,-126.04
20470,-3.8717,0.7229,-0.6870,-1554.44,-1779.60,1092.59
20480,-3.8721,0.5670,-0.8209,539.31,63.90,233.03
20490,-3.8723,0.3855,-0.9628,586.18,-1077.03,1592.10
20500,-3.8724,0.1694,-1.0735,1351.81,766.36,-861.27
20510,-3.8724,-0.0632,-1.1249,1695.56,-1405.94,1872.86
20520,-3.8724,-0.2719,-1.1365,-85.69,31.07,419.68
20530,-3.8726,-0.4353,-1.1510,1211.18,-1453.67,-1846.01
20540,-3.8727,-0.5698,-1.1794,289.31,686.65,-96.01
20550,-3.8727,-0.7333,-1.1915,-929.44,1045.72,-439.82
20560,-3.8726,-0.9736,-1.1500,-1851.32,-501.46,-1518.01
20570,-3.8723,-1.2637,-1.0559,-616.94,810.55,1216.49
20580,-3.8719,-1.5181,-0.9624,-1741.94,856.87,419.80
20590,-3.8715,-1.6696,-0.9302,1695.56,825.13,1044.98
20600,-3.8708,-1.7114,-0.9722,-1695.07,949.83,1466.92
20610,-3.8702,-1.6827,-1.0338,945.56,-425.23,841.80
20620,-3.8699,-1.6313,-1.0603,617.43,-315.80,1669.80
20630,-3.8698,-1.5614,-1.0276,-804.44,293.64,-1236.45
20640,-3.8699,-1.4792,-0.9526,148.68,481.32,-892.64
20650,-3.8701,-1.4032,-0.8682,-1335.69,-1924.80,1076.23
20660,-3.8705,-1.3214,-0.7780,398.68,887.88,-907.96
20670,-3.8707,-1.2228,-0.6709,-1132.57,434.88,1232.85
20680,-3.8711,-1.1167,-0.5428,-507.57,-1861.82,1014.28
20690,-3.8716,-1.0071,-0.4163,1070.56,-1470.95,1936.40
20700,-3.8721,-0.8806,-0.3250,-898.19,-1267.64,-1500.85
20710,-3.8724,-0.7362,-0.2834,-710.69,-1579.90,1608.70
20720,-3.8727,-0.6008,-0.2723,1773.68,-267.09,1530.64
20730,-3.8728,-0.5120,-0.2623,-898.19,1155.03,-1203.67
20740,-3.8728,-0.4845,-0.2421,-1523.19,-1563.54,-844.30
20750,-3.8727,-0.5054,-0.2264,1992.43,1030.27,452.64
20760,-3.8727,-0.5183,-0.2335,-679.44,-969.79,1765.14
20770,-3.8727,-0.4714,-0.2649,1664.31,-1876.04,-1750.49
20780,-3.8727,-0.3658,-0.3030,-335.69,-1891.60,765.08
20790,-3.8728,-0.2139,-0.3303,1179.93,1233.64,733.76
20800,-3.8730,-0.0178,-0.3500,633.06,1733.95,-1047.55
20810,-3.8732,0.2225,-0.3652,1726.81,-781.31,1389.89
20820,-3.8733,0.4985,-0.3625,492.43,1250.43,-1438.23
20830,-3.8733,0.7827,-0.3362,-179.44,1594.67,-563.23
20840,-3.8732,1.0692,-0.3030,195.56,970.28,-766.30
20850,-3.8729,1.3595,-0.2910,867.43,1220.83,1749.39
20860,-3.8726,1.6355,-0.3040,-1976.32,-1247.38,827.51
20870,-3.8721,1.8531,-0.3243,1351.81,1096.92,-1234.99
20880,-3.8713,1.9718,-0.3531,1211.18,-1512.02,-328.80
20890,-3.8704,2.0240,-0.3743,398.68,-1199.28,1671.14
20900,-3.8694,2.0421,-0.3610,-913.82,97.66,1968.02
20910,-3.8684,2.0288,-0.3154,1398.68,1800.84,1030.52
20920,-3.8677,2.0022,-0.2698,-304.44,-371.09,1499.33
20930,-3.8673,1.9769,-0.2477,289.31,1472.66,-1234.92
20940,-3.8673,1.9514,-0.2318,1054.93,300.72,-297.36
20950,-3.8676,1.9196,-0.2119,1789.31,-1668.09,-1703.61
20960,-3.8680,1.8701,-0.2025,1711.18,878.72,-1281.68
20970,-3.8685,1.7899,-0.2125,-616.94,-1918.27,921.45
20980,-3.8690,1.6827,-0.2429,1117.43,800.35,15.20
20990,-3.8695,1.5453,-0.2904,-601.32,909.48,-1922.36
21000,-3.8699,1.3678,-0.3400,1804.93,-1168.88,1890.01
21010,-3.8702,1.1611,-0.3732,-913.82,487.00,827.45
21020,-3.8707,0.9479,-0.3940,633.06,236.63,1733.64
21030,-3.8712,0.7595,-0.4272,1336.18,1564.33,1280.46
21040,-3.8717,0.6035,-0.4880,1226.81,1313.96,1405.40
21050,-3.8722,0.4568,-0.5616,1258.06,1532.41,-141.60
21060,-3.8724,0.2943,-0.6274,-1523.19,110.23,1030.15
21070,-3.8727,0.1096,-0.6801,1679.93,-311.95,529.97
21080,-3.8729,-0.0852,-0.7167,-1960.69,953.31,-860.72
21090,-3.8729,-0.2758,-0.7449,1101.81,281.07,-1501.40
21100,-3.8728,-0.4664,-0.7725,711.18,671.33,-1720.21
21110,-3.8726,-0.6819,-0.7855,304.93,1139.71,529.72
21120,-3.8724,-0.9170,-0.7744,726.81,-532.59,-439.09
21130,-3.8722,-1.1163,-0.7587,-1366.94,888.79,-1517.15
21140,-3.8719,-1.2164,-0.7784,1117.43,-1095.95,1717.22
21150,-3.8717,-1.2142,-0.8531,304.93,372.62,-110.90
21160,-3.8711,-1.1837,-0.9464,586.18,-1189.88,170.17
21170,-3.8705,-1.2086,-1.0039,492.43,-1127.32,1779.36
21180,-3.8699,-1.2994,-1.0099,1304.93,-486.76,-861.39
21190,-3.8694,-1.4010,-0.9768,1679.93,-1252.56,-1455.14
21200,-3.8691,-1.4609,-0.9210,679.93,-1018.37,-1689.45
21210,-3.8691,-1.4641,-0.8584,1008.06,-1877.87,-1533.08
21220,-3.8694,-1.4155,-0.7980,601.81,-1862.24,-814.21
21230,-3.8698,-1.3146,-0.7346,-1179.44,1872.19,1920.29
21240,-3.8702,-1.1715,-0.6637,-257.57,1981.75,1295.41
21250,-3.8707,-1.0134,-0.5913,-1945.07,-939.82,311.16
21260,-3.8712,-0.8628,-0.5269,-1710.69,326.11,1264.47
21270,-3.8716,-0.7336,-0.4727,1570.56,576.42,1389.59
21280,-3.8718,-0.6292,-0.4253,-1898.19,-485.84,686.52
21290,-3.8721,-0.5374,-0.3889,-523.19,1576.84,-1516.48
21300,-3.8722,-0.4468,-0.3663,-773.19,-1766.72,-1828.92
21310,-3.8723,-0.3545,-0.3502,-1179.44,1124.08,-1110.11
21320,-3.8724,-0.2671,-0.3331,-1366.94,-813.23,-750.73
21330,-3.8726,-0.1692,-0.3278,1820.56,1374.45,-1828.80
21340,-3.8727,-0.0327,-0.3452,-1648.19,-1937.87,421.20
21350,-3.8729,0.1603,-0.3790,-179.44,-172.00,-1406.98
21360,-3.8730,0.4321,-0.4299,523.68,-515.32,77.33
21370,-3.8733,0.8390,-0.5020,-679.44,969.54,1530.40
21380,-3.8734,1.3524,-0.5308,-601.32,-248.41,-360.41
21390,-3.8730,1.7946,-0.4579,1117.43,65.12,1702.09
21400,-3.8723,2.0310,-0.3544,1711.18,1394.10,405.33
21410,-3.8715,2.0709,-0.3108,-23.19,-1355.47,1546.14
21420,-3.8706,2.0059,-0.3258,1086.18,222.78,-1109.99
21430,-3.8698,1.9319,-0.3325,758.06,-1699.22,577.45
21440,-3.8691,1.9160,-0.2869,-710.69,1441.22,-1672.55
21450,-3.8685,1.9882,-0.1990,1258.06,-715.03,280.64
21460,-3.8682,2.1135,-0.1133,-1507.57,-1464.90,421.45
21470,-3.8680,2.1945,-0.0651,-1460.69,1504.09,281.01
21480,-3.8683,2.1597,-0.0469,898.68,-323.85,-687.68
21490,-3.8687,2.0215,-0.0387,445.56,-1995.79,-109.50
21500,-3.8690,1.8376,-0.0436,-1241.94,-949.22,-1922.00
21510,-3.8694,1.6528,-0.0702,-773.19,-1574.58,249.88
21520,-3.8699,1.4771,-0.1138,-429.44,-981.20,-1937.68
21530,-3.8704,1.2960,-0.1614,1070.56,1440.37,-1562.74
21540,-3.8708,1.1079,-0.2053,1898.68,-653.75,1562.13
21550,-3.8713,0.9310,-0.2450,1820.56,1720.89,765.20
21560,-3.8718,0.7804,-0.2919,-820.07,642.40,1202.64
21570,-3.8723,0.6594,-0.3651,-101.32,-1357.91,-203.74
21580,-3.8726,0.5511,-0.4602,414.31,1266.91,1186.77
21590,-3.8728,0.4229,-0.5509,-1445.07,1094.79,1483.46
21600,-3.8729,0.2708,-0.6155,-1866.94,1485.17,389.53
21610,-3.8730,0.1195,-0.6552,-1335.69,1219.24,1780.03
21620,-3.8730,-0.0204,-0.6825,-695.07,140.81,1592.47
21630,-3.8730,-0.1495,-0.7032,1398.68,656.19,-63.84
21640,-3.8728,-0.2714,-0.7316,867.43,1999.69,951.72
21650,-3.8726,-0.4056,-0.7758,1273.68,-1625.55,279.79
21660,-3.8723,-0.5900,-0.8364,86.18,717.96,1232.85
21670,-3.8721,-0.8339,-0.9203,492.43,951.97,-1439.15
21680,-3.8718,-1.1093,-1.0161,1273.68,-1782.90,-1923.71
21690,-3.8716,-1.3806,-1.0919,-1976.32,1950.93,560.49
21700,-3.8713,-1.6030,-1.1310,-710.69,247.25,841.61
21710,-3.8711,-1.7325,-1.1536,-1179.44,-753.17,-1189.76
21720,-3.8707,-1.7479,-1.1875,-1757.57,355.96,622.74
21730,-3.8705,-1.6564,-1.2238,273.68,12.21,1091.43
21740,-3.8704,-1.4884,-1.2206,-7.57,-628.30,-1049.32
21750,-3.8702,-1.3038,-1.1648,1492.43,-221.68,497.56
21760,-3.8704,-1.1573,-1.0758,1117.43,-1080.69,1700.81
21770,-3.8705,-1.0582,-0.9689,-132.57,-1689.82,29.11
21780,-3.8707,-0.9882,-0.8651,554.93,-2.08,638.67
21790,-3.8710,-0.9271,-0.7817,1523.68,1279.30,92.04
21800,-3.8713,-0.8702,-0.7112,1336.18,-48.71,-1189.09
21810,-3.8716,-0.8179,-0.6414,617.43,982.67,-1985.78
21820,-3.8718,-0.7577,-0.5730,-679.44,1920.23,-970.03
21830,-3.8719,-0.6808,-0.5067,-976.32,-1329.65,1842.59
21840,-3.8721,-0.5927,-0.4392,867.43,-845.09,842.71
21850,-3.8723,-0.4996,-0.3726,148.68,-204.28,-1079.04
21860,-3.8724,-0.4061,-0.3127,54.93,327.15,561.77
21870,-3.8727,-0.3038,-0.2689,23.68,-16.42,-1203.80
21880,-3.8728,-0.1735,-0.2533,1117.43,1593.14,-1625.55
21890,-3.8729,0.0183,-0.2780,1804.93,-406.62,-1344.30
21900,-3.8730,0.3114,-0.3539,-1648.19,421.88,1327.58
21910,-3.8733,0.7128,-0.4528,-132.57,-1296.33,1155.52
21920,-3.8735,1.1803,-0.5248,-757.57,-1951.78,-532.17
21930,-3.8733,1.6409,-0.5128,-913.82,830.38,-1797.91
21940,-3.8726,1.9988,-0.3773,-1960.69,-1637.45,1920.84
21950,-3.8715,2.2299,-0.2524,-148.19,-293.03,-1000.79
21960,-3.8701,2.3979,-0.2876,1429.93,-308.17,1983.83
21970,-3.8690,2.4885,-0.3940,-1054.44,-807.86,-1172.49
21980,-3.8684,2.4279,-0.4104,-1460.69,1567.32,-1657.04
21990,-3.8683,2.2343,-0.3115,-1226.32,-526.55,702.27
22000,-3.8685,2.0068,-0.1780,1992.43,129.33,-1500.61
22010,-3.8688,1.8097,-0.0682,883.06,1222.66,-1625.37
22020,-3.8690,1.6477,0.0057,-351.32,-730.90,1452.94
22030,-3.8694,1.4996,0.0360,-1085.69,737.55,-1375.00
22040,-3.8698,1.3474,0.0374,-38.82,612.24,1718.81
22050,-3.8701,1.1951,0.0282,476.81,783.87,359.44
22060,-3.8705,1.0504,-0.0015,976.81,-388.31,453.12
22070,-3.8708,0.9194,-0.0577,-1538.82,-185.49,-1531.31
22080,-3.8711,0.7937,-0.1295,1695.56,611.15,1359.25
22090,-3.8715,0.6478,-0.2129,1601.81,-576.60,-828.43
22100,-3.8718,0.4813,-0.3079,-1070.07,751.22,-1578.55
22110,-3.8722,0.3199,-0.4116,1617.43,594.67,61.89
22120,-3.8727,0.1815,-0.5189,961.18,-686.89,-610.23
22130,-3.8729,0.0658,-0.6152,-757.57,1578.43,-422.91
22140,-3.8729,-0.0372,-0.6926,429.93,1250.12,1186.28
22150,-3.8729,-0.1306,-0.7594,-757.57,-640.75,-1.40
22160,-3.8726,-0.2186,-0.8256,-710.69,-1187.81,123.47
22170,-3.8722,-0.3217,-0.8956,23.68,-1656.68,-1970.40
22180,-3.8716,-0.4604,-0.9554,-1163.82,1374.33,-1204.90
22190,-3.8707,-0.6464,-0.9915,1070.56,1717.83,1638.73
22200,-3.8699,-0.8702,-1.0149,1273.68,1108.09,1279.30
22210,-3.8693,-1.0952,-1.0442,617.43,-1892.33,1669.86
22220,-3.8690,-1.2769,-1.0770,-179.44,-1642.82,-1283.33
22230,-3.8690,-1.3650,-1.0780,570.56,-1846.25,1904.11
22240,-3.8693,-1.3384,-1.0183,1289.31,-1971.44,-1783.39
22250,-3.8696,-1.2264,-0.9073,695.56,1669.25,-1627.01
22260,-3.8700,-1.0747,-0.7806,-976.32,-127.44,779.42
22270,-3.8705,-0.9235,-0.6663,-1554.44,91.61,-1095.28
22280,-3.8708,-0.7927,-0.5560,1804.93,-1267.46,-1923.22
22290,-3.8712,-0.7013,-0.4397,-1460.69,842.16,-126.10
22300,-3.8713,-0.6593,-0.3339,-1757.57,-267.03,1124.08
22310,-3.8715,-0.6509,-0.2478,-382.57,1279.91,968.08
22320,-3.8716,-0.6534,-0.1750,695.56,295.59,-1969.24
22330,-3.8717,-0.6534,-0.1082,367.43,1608.09,-875.37
22340,-3.8718,-0.6451,-0.0426,367.43,-1829.41,-422.12
22350,-3.8719,-0.6216,0.0234,1429.93,-1438.78,-859.50
22360,-3.8721,-0.5743,0.0898,445.56,-985.60,1375.00
22370,-3.8723,-0.4939,0.1464,-1507.57,-485.53,-749.88
22380,-3.8724,-0.3711,0.1848,789.31,-1250.98,-1765.38
22390,-3.8726,-0.1968,0.2180,508.06,-328.86,1890.93
22400,-3.8727,0.0422,0.2579,-1179.44,-78.55,422.24
22410,-3.8729,0.3510,0.3082,1414.31,1015.69,1578.61
22420,-3.8732,0.7012,0.3755,929.93,-546.20,-390.08
22430,-3.8732,1.0128,0.4526,1758.06,63.84,922.61
22440,-3.8732,1.2423,0.4994,1648.68,1939.45,-1405.40
22450,-3.8729,1.3906,0.4780,-976.32,-75.74,1891.54
22460,-3.8726,1.4479,0.4182,-1991.94,1190.19,-170.96
22470,-3.8719,1.4314,0.3673,1336.18,1534.06,-1702.33
22480,-3.8713,1.3801,0.3331,-773.19,-981.63,-1749.33
22490,-3.8707,1.3174,0.3156,664.31,-1356.69,-921.26
22500,-3.8701,1.2396,0.3348,633.06,393.19,-515.01
22510,-3.8695,1.1526,0.3933,-1320.07,-1138.24,16.24
22520,-3.8693,1.0670,0.4486,-460.69,-1654.05,-1999.27
22530,-3.8691,0.9845,0.4603,586.18,1423.95,844.60
22540,-3.8693,0.8992,0.4197,-1976.32,-1076.23,1703.98
22550,-3.8695,0.7941,0.3463,-898.19,1720.46,1828.92
22560,-3.8699,0.6597,0.2627,1648.68,329.65,-1561.83
22570,-3.8702,0.5063,0.1769,445.56,1626.28,422.36
22580,-3.8707,0.3550,0.0846,820.56,-1358.40,969.06
22590,-3.8712,0.2278,-0.0194,1445.56,-1171.20,1062.62
22600,-3.8717,0.1256,-0.1353,1164.31,1516.05,1218.69
22610,-3.8722,0.0277,-0.2534,86.18,-1312.26,-859.68
22620,-3.8724,-0.0730,-0.3528,-445.07,-437.50,390.08
22630,-3.8727,-0.1667,-0.4254,-1335.69,-1140.81,1968.02
22640,-3.8727,-0.2512,-0.4965,-1335.69,1562.13,1796.02
22650,-3.8724,-0.3424,-0.5830,-148.19,468.20,358.40
22660,-3.8722,-0.4618,-0.6678,179.93,1389.95,-626.16
22670,-3.8717,-0.6112,-0.7382,898.68,-1469.67,1842.41
22680,-3.8712,-0.7754,-0.8041,1773.68,1530.03,-110.84
22690,-3.8705,-0.9418,-0.8768,758.06,1092.22,514.04
22700,-3.8699,-1.0991,-0.9425,-538.82,-220.64,810.73
22710,-3.8694,-1.2222,-0.9844,-679.44,-627.20,1216.86
22720,-3.8691,-1.2773,-0.9971,-429.44,-1986.82,-908.20
22730,-3.8690,-1.2537,-0.9796,508.06,388.12,576.17
22740,-3.8693,-1.1727,-0.9308,-460.69,-1377.50,-1798.83
22750,-3.8696,-1.0764,-0.8507,1898.68,872.68,-1751.83
22760,-3.8701,-0.9861,-0.7504,-1773.19,-877.14,-907.96
22770,-3.8706,-0.8982,-0.6486,1789.31,-33.20,-1657.78
22780,-3.8711,-0.8171,-0.5587,1039.31,998.23,-1985.66
22790,-3.8716,-0.7500,-0.4788,-585.69,498.35,-63.60
22800,-3.8718,-0.6981,-0.4110,8.06,-1267.09,1139.65
