timestamp_ms,ax,ay,az,gx,gy,gz
0,-3.8735,-0.1389,-0.9161,-1601.32,1952.82,1357.54
10,-3.8735,-0.1401,-0.9092,-1773.19,-1250.31,295.04
20,-3.8737,-0.1409,-0.9028,-1929.44,-359.68,-923.71
30,-3.8737,-0.1415,-0.8975,1976.81,452.82,1763.85
40,-3.8737,-0.1426,-0.8927,1898.68,1140.32,638.85
50,-3.8737,-0.1444,-0.8896,1758.06,1749.69,76.35
60,-3.8738,-0.1464,-0.8905,1523.68,-1859.68,-33.02
70,-3.8737,-0.1478,-0.8953,1273.68,-1969.06,310.73
80,-3.8737,-0.1492,-0.9011,1086.18,1421.57,1060.73
90,-3.8737,-0.1514,-0.9065,914.31,671.57,1888.85
100,-3.8737,-0.1536,-0.9120,633.06,-15.93,-1376.83
110,-3.8737,-0.1544,-0.9165,351.81,-719.06,-767.46
120,-3.8737,-0.1539,-0.9185,242.43,-1297.18,-189.33
130,-3.8735,-0.1522,-0.9191,304.93,-1547.18,498.17
140,-3.8735,-0.1501,-0.9198,523.68,-1625.31,951.29
150,-3.8735,-0.1484,-0.9194,789.31,-1719.06,904.42
160,-3.8735,-0.1477,-0.9170,1008.06,-1672.18,388.79
170,-3.8737,-0.1475,-0.9135,1101.81,-1359.68,-392.46
180,-3.8737,-0.1479,-0.9097,1133.06,-906.56,-1251.83
190,-3.8737,-0.1494,-0.9059,1070.56,-422.18,1873.17
200,-3.8737,-0.1500,-0.9028,883.06,62.19,1091.98
210,-3.8737,-0.1484,-0.9004,804.93,452.82,451.35
220,-3.8738,-0.1464,-0.8977,1008.06,765.32,-189.27
230,-3.8738,-0.1449,-0.8939,1273.68,1109.07,-658.02
240,-3.8738,-0.1432,-0.8912,1461.18,1593.44,-658.02
250,-3.8738,-0.1412,-0.8927,1679.93,1937.19,-345.52
260,-3.8737,-0.1406,-0.8976,1929.93,1749.69,185.73
270,-3.8737,-0.1425,-0.9027,-1991.94,1124.69,1013.85
280,-3.8737,-0.1450,-0.9069,1773.68,468.44,1966.98
290,-3.8737,-0.1475,-0.9109,1445.56,-62.81,-1251.83
300,-3.8737,-0.1487,-0.9137,1133.06,-578.43,-767.46
310,-3.8737,-0.1484,-0.9152,976.81,-937.81,-548.71
320,-3.8737,-0.1467,-0.9174,1008.06,-1125.31,-423.71
330,-3.8737,-0.1439,-0.9197,1226.81,-1406.56,-126.83
340,-3.8735,-0.1423,-0.9203,1586.18,-1703.43,341.92
350,-3.8735,-0.1432,-0.9194,1789.31,-1781.56,779.42
360,-3.8735,-0.1450,-0.9174,1679.93,-1672.18,810.67
370,-3.8735,-0.1472,-0.9147,1445.56,-1406.56,326.29
380,-3.8737,-0.1494,-0.9109,1164.31,-1062.81,-361.21
390,-3.8737,-0.1516,-0.9056,883.06,-578.43,-876.83
400,-3.8737,-0.1525,-0.9016,601.81,93.44,-1173.65
410,-3.8737,-0.1511,-0.9001,492.43,609.07,-1158.02
420,-3.8737,-0.1479,-0.9008,664.31,796.57,-908.02
430,-3.8737,-0.1433,-0.9032,1070.56,718.44,-783.02
440,-3.8737,-0.1392,-0.9059,1664.31,405.94,-736.15
450,-3.8737,-0.1381,-0.9086,-1804.44,62.19,-861.15
460,-3.8737,-0.1401,-0.9093,-1663.82,-281.56,-1251.83
470,-3.8737,-0.1426,-0.9073,-1929.44,-375.31,-1470.58
480,-3.8737,-0.1436,-0.9037,1758.06,-125.31,-1361.21
490,-3.8737,-0.1414,-0.8998,1633.06,343.44,-1329.90
500,-3.8737,-0.1357,-0.8977,1914.31,843.44,-1720.52
510,-3.8737,-0.1285,-0.8975,-1366.94,1109.07,1670.10
520,-3.8737,-0.1216,-0.8987,-445.07,1140.32,1185.73
530,-3.8737,-0.1171,-0.9001,445.56,984.13,904.48
540,-3.8737,-0.1169,-0.9014,1023.68,796.63,795.10
550,-3.8737,-0.1202,-0.9028,1039.31,640.38,1045.10
560,-3.8737,-0.1235,-0.9043,617.43,452.88,1638.85
570,-3.8737,-0.1250,-0.9053,195.56,265.38,-1767.40
580,-3.8737,-0.1244,-0.9061,8.06,140.38,-1158.02
590,-3.8737,-0.1227,-0.9062,86.18,31.01,-564.27
600,-3.8737,-0.1211,-0.9060,304.93,15.38,-283.02
610,-3.8737,-0.1224,-0.9069,508.06,46.63,-251.77
620,-3.8737,-0.1285,-0.9093,336.18,-62.74,-314.33
630,-3.8737,-0.1364,-0.9125,-445.07,-375.31,-392.46
640,-3.8737,-0.1437,-0.9141,-1445.07,-781.56,-439.33
650,-3.8737,-0.1509,-0.9109,1617.43,-984.68,-236.21
660,-3.8735,-0.1565,-0.9053,695.56,-578.43,45.04
670,-3.8737,-0.1573,-0.9027,-23.19,140.26,-267.40
680,-3.8737,-0.1548,-0.9036,-132.57,468.38,-1173.65
690,-3.8737,-0.1522,-0.9070,195.56,359.07,1888.85
700,-3.8737,-0.1523,-0.9136,523.68,-78.43,1170.04
710,-3.8737,-0.1572,-0.9207,508.06,-922.18,904.42
720,-3.8737,-0.1648,-0.9242,-116.94,-1828.49,1341.92
730,-3.8737,-0.1692,-0.9252,-1085.69,1718.38,-1611.21
740,-3.8737,-0.1660,-0.9258,-1648.19,1593.38,-267.46
750,-3.8735,-0.1578,-0.9255,-1241.94,1515.26,716.92
760,-3.8735,-0.1489,-0.9243,-195.07,1546.51,951.29
770,-3.8735,-0.1436,-0.9226,945.56,1702.82,607.54
780,-3.8737,-0.1440,-0.9207,1633.06,1921.57,-1.83
790,-3.8737,-0.1473,-0.9189,1570.56,-1828.43,-579.96
800,-3.8737,-0.1487,-0.9174,1148.68,-1609.68,-954.96
810,-3.8737,-0.1454,-0.9158,976.81,-1406.56,-1298.71
820,-3.8737,-0.1384,-0.9131,1398.68,-1203.43,-1783.08
830,-3.8737,-0.1305,-0.9091,-1710.69,-859.68,1420.04
840,-3.8737,-0.1234,-0.9067,-695.07,-344.06,310.67
850,-3.8738,-0.1191,-0.9080,211.18,-47.12,-673.71
860,-3.8738,-0.1182,-0.9111,758.06,-203.37,-1204.96
870,-3.8738,-0.1189,-0.9142,883.06,-609.62,-1095.58
880,-3.8738,-0.1191,-0.9160,789.31,-1000.24,-283.08
890,-3.8737,-0.1177,-0.9164,758.06,-1234.62,966.92
900,-3.8737,-0.1143,-0.9154,945.56,-1281.49,-1720.58
910,-3.8737,-0.1102,-0.9132,1383.06,-1156.49,-642.46
920,-3.8737,-0.1077,-0.9114,1898.68,-875.24,-126.83
930,-3.8737,-0.1074,-0.9103,-1773.19,-640.87,-111.21
940,-3.8737,-0.1086,-0.9082,-1741.94,-500.24,-345.58
950,-3.8737,-0.1122,-0.9059,-1898.19,-234.62,-611.21
960,-3.8737,-0.1179,-0.9038,1648.68,62.26,-829.90
970,-3.8737,-0.1234,-0.9023,914.31,327.88,-986.15
980,-3.8737,-0.1276,-0.9015,211.18,515.38,-1095.52
990,-3.8737,-0.1306,-0.9008,-320.07,624.69,-1329.90
1000,-3.8737,-0.1332,-0.9014,-710.69,718.44,-1486.15
1010,-3.8737,-0.1346,-0.9030,-1038.82,640.32,-1501.77
1020,-3.8737,-0.1362,-0.9048,-1226.32,437.19,-1423.65
1030,-3.8737,-0.1382,-0.9073,-1429.44,202.82,-1189.27
1040,-3.8737,-0.1393,-0.9103,-1679.44,-125.31,-954.96
1050,-3.8737,-0.1410,-0.9130,-1820.07,-500.31,-845.58
1060,-3.8737,-0.1439,-0.9152,1961.18,-844.06,-689.33
1070,-3.8737,-0.1479,-0.9165,1586.18,-1125.31,-626.83
1080,-3.8737,-0.1516,-0.9165,1070.56,-1297.18,-720.58
1090,-3.8737,-0.1527,-0.9156,601.81,-1297.18,-923.71
1100,-3.8737,-0.1509,-0.9143,461.18,-1187.81,-1189.33
1110,-3.8737,-0.1476,-0.9133,695.56,-1015.93,-1345.58
1120,-3.8737,-0.1451,-0.9126,1117.43,-890.93,-1408.08
1130,-3.8737,-0.1429,-0.9122,1429.93,-797.18,-1486.21
1140,-3.8737,-0.1395,-0.9125,1711.18,-750.31,-1611.21
1150,-3.8737,-0.1362,-0.9122,-1851.32,-781.56,-1783.08
1160,-3.8737,-0.1344,-0.9111,-1429.44,-750.31,-1829.96
1170,-3.8737,-0.1334,-0.9099,-1195.07,-609.68,-1642.46
1180,-3.8737,-0.1331,-0.9088,-1070.07,-453.43,-1329.96
1190,-3.8737,-0.1323,-0.9078,-1023.19,-312.81,-1095.58
1200,-3.8737,-0.1313,-0.9078,-929.44,-187.81,-939.33
1210,-3.8737,-0.1302,-0.9086,-804.44,-187.81,-908.08
1220,-3.8737,-0.1292,-0.9092,-663.82,-281.56,-986.21
1230,-3.8737,-0.1289,-0.9093,-523.19,-359.68,-1095.58
1240,-3.8737,-0.1305,-0.9087,-491.94,-375.31,-1220.58
1250,-3.8737,-0.1326,-0.9070,-695.07,-297.18,-1361.21
1260,-3.8737,-0.1337,-0.9056,-960.69,-78.43,-1579.96
1270,-3.8737,-0.1338,-0.9056,-1101.32,93.44,-1798.65
1280,-3.8737,-0.1339,-0.9054,-1116.94,93.44,-1861.15
1290,-3.8737,-0.1332,-0.9056,-1132.57,124.69,-1876.77
1300,-3.8737,-0.1324,-0.9058,-1038.82,93.44,-1908.02
1310,-3.8737,-0.1328,-0.9050,-945.07,77.82,-1829.90
1320,-3.8737,-0.1342,-0.9056,-991.94,171.57,-1767.40
1330,-3.8737,-0.1366,-0.9071,-1163.82,93.44,-1642.40
1340,-3.8737,-0.1392,-0.9086,-1476.32,-94.06,-1408.08
1350,-3.8737,-0.1415,-0.9099,-1804.44,-281.56,-1017.46
1360,-3.8737,-0.1440,-0.9100,1898.68,-453.43,-454.96
1370,-3.8735,-0.1470,-0.9095,1570.56,-469.06,138.79
1380,-3.8735,-0.1504,-0.9093,1195.56,-406.56,670.04
1390,-3.8735,-0.1526,-0.9092,758.06,-375.31,951.29
1400,-3.8735,-0.1539,-0.9082,476.81,-359.68,888.79
1410,-3.8735,-0.1547,-0.9067,304.93,-234.68,607.54
1420,-3.8735,-0.1543,-0.9054,211.18,-47.18,232.54
1430,-3.8737,-0.1538,-0.9052,258.06,124.69,-173.65
1440,-3.8737,-0.1528,-0.9058,320.56,155.94,-689.27
1450,-3.8737,-0.1514,-0.9069,445.56,77.82,-1329.90
1460,-3.8737,-0.1503,-0.9080,633.06,-62.81,-1892.46
1470,-3.8737,-0.1500,-0.9084,773.68,-203.43,1841.92
1480,-3.8737,-0.1501,-0.9088,804.93,-265.93,1888.79
1490,-3.8737,-0.1495,-0.9095,789.31,-312.81,1998.17
1500,-3.8737,-0.1469,-0.9104,867.43,-406.56,-1892.46
1510,-3.8737,-0.1414,-0.9109,1211.18,-515.93,-1845.58
1520,-3.8737,-0.1350,-0.9105,1914.31,-578.43,1935.67
1530,-3.8737,-0.1304,-0.9091,-1273.19,-531.56,1513.79
1540,-3.8737,-0.1285,-0.9073,-679.44,-344.06,1029.42
1550,-3.8737,-0.1288,-0.9059,-445.07,-125.31,451.29
1560,-3.8738,-0.1283,-0.9043,-476.32,62.19,-48.65
1570,-3.8738,-0.1256,-0.9026,-413.82,265.32,-314.27
1580,-3.8738,-0.1213,-0.9014,-70.07,484.07,-204.90
1590,-3.8737,-0.1176,-0.9017,476.81,640.38,185.73
1600,-3.8737,-0.1161,-0.9037,961.18,593.51,623.23
1610,-3.8737,-0.1169,-0.9064,1148.68,343.51,1045.10
1620,-3.8737,-0.1207,-0.9100,1039.31,-0.24,1654.42
1630,-3.8737,-0.1266,-0.9146,554.93,-468.99,-1470.58
1640,-3.8737,-0.1326,-0.9180,-195.07,-1047.18,-486.21
1650,-3.8735,-0.1383,-0.9189,-960.69,-1484.68,341.92
1660,-3.8735,-0.1436,-0.9175,-1695.07,-1609.68,841.92
1670,-3.8735,-0.1481,-0.9146,1633.06,-1422.18,1029.42
1680,-3.8735,-0.1520,-0.9110,1054.93,-1047.18,841.92
1690,-3.8735,-0.1559,-0.9075,554.93,-594.06,435.67
1700,-3.8735,-0.1602,-0.9048,54.93,-140.93,29.42
1710,-3.8737,-0.1644,-0.9031,-491.94,202.76,-298.65
1720,-3.8737,-0.1675,-0.9023,-1038.82,421.51,-517.40
1730,-3.8737,-0.1686,-0.9026,-1429.44,515.26,-579.90
1740,-3.8737,-0.1686,-0.9033,-1570.07,484.01,-548.65
1750,-3.8737,-0.1674,-0.9044,-1570.07,390.26,-673.65
1760,-3.8737,-0.1650,-0.9058,-1413.82,249.63,-814.27
1770,-3.8737,-0.1622,-0.9065,-1116.94,77.76,-798.65
1780,-3.8737,-0.1603,-0.9067,-757.57,-15.99,-783.08
1790,-3.8737,-0.1587,-0.9061,-507.57,-47.24,-845.58
1800,-3.8737,-0.1561,-0.9056,-304.44,30.88,-954.90
1810,-3.8737,-0.1523,-0.9055,23.68,93.44,-1064.27
1820,-3.8737,-0.1471,-0.9059,508.06,109.07,-1048.65
1830,-3.8737,-0.1417,-0.9067,1179.93,62.19,-1126.77
1840,-3.8737,-0.1372,-0.9073,1867.43,-47.18,-1439.33
1850,-3.8737,-0.1342,-0.9080,-1554.44,-125.31,-1767.46
1860,-3.8737,-0.1329,-0.9083,-1163.82,-203.43,1998.17
1870,-3.8737,-0.1326,-0.9070,-1007.57,-250.31,1920.04
1880,-3.8737,-0.1329,-0.9049,-960.69,-78.43,1951.29
1890,-3.8737,-0.1323,-0.9044,-1007.57,187.19,-1939.27
1900,-3.8737,-0.1305,-0.9067,-929.44,249.69,-1783.02
1910,-3.8737,-0.1289,-0.9100,-695.07,-47.18,-1564.33
1920,-3.8737,-0.1287,-0.9122,-491.94,-469.06,-1267.46
1930,-3.8737,-0.1295,-0.9142,-460.69,-750.31,-1017.46
1940,-3.8737,-0.1318,-0.9161,-570.07,-1000.31,-876.83
1950,-3.8737,-0.1355,-0.9165,-866.94,-1250.31,-814.33
1960,-3.8737,-0.1406,-0.9153,-1335.69,-1297.18,-908.08
1970,-3.8737,-0.1453,-0.9141,-1991.94,-1140.93,-1173.71
1980,-3.8737,-0.1476,-0.9127,1414.31,-984.68,-1454.96
1990,-3.8737,-0.1487,-0.9117,1117.43,-812.81,-1642.46
2000,-3.8737,-0.1494,-0.9117,976.81,-687.81,-1829.96
2010,-3.8737,-0.1497,-0.9115,883.06,-687.81,1966.92
2020,-3.8737,-0.1494,-0.9108,851.81,-656.56,1841.92
2030,-3.8737,-0.1486,-0.9099,883.06,-562.81,1857.54
2040,-3.8737,-0.1477,-0.9097,992.43,-453.43,1966.92
2050,-3.8737,-0.1461,-0.9104,1101.81,-422.18,-1798.71
2060,-3.8737,-0.1448,-0.9106,1304.93,-515.93,-1501.83
2070,-3.8737,-0.1449,-0.9103,1476.81,-547.18,-1204.96
2080,-3.8737,-0.1456,-0.9113,1461.18,-500.31,-1033.08
2090,-3.8737,-0.1454,-0.9132,1367.43,-625.31,-1017.46
2100,-3.8737,-0.1432,-0.9139,1398.68,-875.31,-1001.83
2110,-3.8737,-0.1404,-0.9131,1679.93,-969.06,-767.46
2120,-3.8737,-0.1383,-0.9111,-1960.69,-859.68,-314.33
2130,-3.8737,-0.1379,-0.9073,-1695.07,-609.68,-1.83
2140,-3.8735,-0.1390,-0.9030,-1648.19,-125.31,13.79
2150,-3.8737,-0.1405,-0.9000,-1788.82,437.19,-345.52
2160,-3.8737,-0.1403,-0.8982,-1976.32,812.19,-923.65
2170,-3.8737,-0.1377,-0.8971,-1945.07,1046.57,-1501.77
2180,-3.8737,-0.1344,-0.8979,-1616.94,1187.19,-1970.52
2190,-3.8737,-0.1343,-0.9008,-1195.07,1077.82,1810.73
2200,-3.8737,-0.1375,-0.9038,-1179.44,718.44,1763.85
2210,-3.8737,-0.1420,-0.9070,-1585.69,327.82,1966.98
2220,-3.8737,-0.1460,-0.9116,1836.18,-78.43,-1658.08
2230,-3.8737,-0.1481,-0.9166,1320.56,-672.18,-1251.83
2240,-3.8737,-0.1475,-0.9203,1054.93,-1312.81,-814.33
2250,-3.8737,-0.1451,-0.9207,1133.06,-1781.56,-470.58
2260,-3.8737,-0.1432,-0.9182,1429.93,-1828.43,-220.58
2270,-3.8737,-0.1439,-0.9149,1679.93,-1515.93,-111.21
2280,-3.8737,-0.1459,-0.9109,1586.18,-1094.06,-423.71
2290,-3.8737,-0.1472,-0.9071,1336.18,-578.43,-1001.83
2300,-3.8737,-0.1475,-0.9043,1164.31,-94.06,-1470.58
2310,-3.8737,-0.1467,-0.9025,1133.06,265.32,-1767.40
2320,-3.8737,-0.1458,-0.9011,1226.81,499.69,1982.60
2330,-3.8737,-0.1445,-0.9015,1351.81,671.57,1857.60
2340,-3.8737,-0.1429,-0.9036,1508.06,624.69,1857.60
2350,-3.8737,-0.1412,-0.9058,1711.18,359.07,1888.85
2360,-3.8737,-0.1392,-0.9084,1929.93,77.82,-1861.15
2370,-3.8737,-0.1377,-0.9116,-1804.44,-265.93,-1439.33
2380,-3.8737,-0.1366,-0.9135,-1616.94,-672.18,-1064.33
2390,-3.8737,-0.1355,-0.9139,-1476.32,-906.56,-767.46
2400,-3.8737,-0.1354,-0.9127,-1335.69,-969.06,-564.33
2410,-3.8737,-0.1357,-0.9102,-1320.07,-812.81,-408.08
2420,-3.8737,-0.1367,-0.9078,-1366.94,-484.68,-376.83
2430,-3.8737,-0.1371,-0.9056,-1491.94,-187.81,-548.71
2440,-3.8737,-0.1359,-0.9041,-1538.82,93.44,-970.52
2450,-3.8737,-0.1345,-0.9033,-1382.57,296.57,-1501.77
2460,-3.8737,-0.1344,-0.9031,-1210.69,390.32,1841.98
2470,-3.8737,-0.1351,-0.9036,-1195.07,421.57,1420.10
2480,-3.8737,-0.1366,-0.9044,-1288.82,359.07,1420.10
2490,-3.8737,-0.1392,-0.9047,-1476.32,249.69,1638.85
2500,-3.8737,-0.1422,-0.9042,-1804.44,218.44,-1876.77
2510,-3.8737,-0.1439,-0.9052,1804.93,280.94,-1329.90
2520,-3.8737,-0.1439,-0.9080,1586.18,155.94,-908.02
2530,-3.8737,-0.1438,-0.9109,1586.18,-203.43,-517.46
2540,-3.8737,-0.1440,-0.9137,1601.81,-578.43,-220.58
2550,-3.8737,-0.1448,-0.9152,1570.56,-937.81,-173.71
2560,-3.8737,-0.1458,-0.9147,1476.81,-1125.31,-267.46
2570,-3.8737,-0.1469,-0.9131,1351.81,-1062.81,-236.21
2580,-3.8737,-0.1477,-0.9116,1211.18,-859.68,-251.83
2590,-3.8737,-0.1470,-0.9106,1101.81,-672.18,-579.96
2600,-3.8737,-0.1461,-0.9092,1195.56,-547.18,-845.58
2610,-3.8737,-0.1455,-0.9078,1304.93,-359.68,-1017.46
2620,-3.8737,-0.1433,-0.9066,1383.06,-187.81,-1267.46
2630,-3.8737,-0.1400,-0.9059,1664.31,-31.56,-1564.33
2640,-3.8737,-0.1373,-0.9047,-1913.82,62.19,-1845.52
2650,-3.8737,-0.1349,-0.9033,-1570.07,218.44,-1908.02
2660,-3.8737,-0.1329,-0.9028,-1257.57,390.32,-1923.65
2670,-3.8737,-0.1332,-0.9028,-1007.57,452.82,1951.35
2680,-3.8737,-0.1345,-0.9037,-1038.82,452.82,1888.85
2690,-3.8737,-0.1359,-0.9060,-1210.69,343.44,-1861.15
2700,-3.8737,-0.1367,-0.9093,-1382.57,46.57,-1376.77
2710,-3.8737,-0.1372,-0.9115,-1491.94,-375.31,-767.46
2720,-3.8737,-0.1368,-0.9131,-1554.44,-656.56,-220.58
2730,-3.8735,-0.1356,-0.9137,-1507.57,-859.68,29.42
2740,-3.8735,-0.1353,-0.9132,-1351.32,-937.81,45.04
2750,-3.8737,-0.1356,-0.9120,-1304.44,-875.31,-142.46
2760,-3.8737,-0.1367,-0.9100,-1351.32,-719.06,-408.08
2770,-3.8737,-0.1384,-0.9081,-1491.94,-469.06,-658.08
2780,-3.8737,-0.1412,-0.9060,-1710.69,-219.06,-923.71
2790,-3.8737,-0.1450,-0.9044,1929.93,46.57,-1189.27
2800,-3.8737,-0.1469,-0.9033,1445.56,249.69,-1454.90
2810,-3.8737,-0.1460,-0.9025,1211.18,390.32,-1736.15
2820,-3.8737,-0.1442,-0.9026,1320.56,499.69,1935.73
2830,-3.8737,-0.1425,-0.9045,1554.93,484.07,1826.35
2840,-3.8737,-0.1414,-0.9073,1773.68,234.07,-1954.90
2850,-3.8737,-0.1417,-0.9095,1914.31,-125.31,-1408.08
2860,-3.8737,-0.1432,-0.9120,1867.43,-406.56,-720.58
2870,-3.8737,-0.1449,-0.9152,1679.93,-719.06,-267.46
2880,-3.8737,-0.1451,-0.9177,1461.18,-1125.31,-79.96
2890,-3.8737,-0.1427,-0.9182,1429.93,-1453.43,-64.33
2900,-3.8737,-0.1392,-0.9166,1742.43,-1515.93,-1.83
2910,-3.8735,-0.1370,-0.9137,-1804.44,-1312.81,170.04
2920,-3.8735,-0.1372,-0.9102,-1523.19,-937.81,123.17
2930,-3.8737,-0.1396,-0.9053,-1554.44,-484.68,-376.83
2940,-3.8737,-0.1423,-0.9003,-1866.94,140.32,-1111.15
2950,-3.8737,-0.1427,-0.8970,1789.31,780.94,-1720.52
2960,-3.8737,-0.1405,-0.8961,1742.43,1202.82,1857.60
2970,-3.8737,-0.1376,-0.8978,-1976.32,1312.19,1529.48
2980,-3.8737,-0.1348,-0.9010,-1601.32,1093.44,1404.48
2990,-3.8737,-0.1334,-0.9048,-1241.94,687.19,1529.48
3000,-3.8737,-0.1339,-0.9084,-1070.07,202.82,1873.23
3010,-3.8737,-0.1356,-0.9120,-1132.57,-265.93,-1579.96
3020,-3.8737,-0.1372,-0.9150,-1351.32,-719.06,-814.33
3030,-3.8737,-0.1375,-0.9166,-1554.44,-1109.68,-48.71
3040,-3.8735,-0.1373,-0.9166,-1585.69,-1312.81,529.42
3050,-3.8735,-0.1382,-0.9160,-1570.07,-1312.81,857.54
3060,-3.8735,-0.1398,-0.9142,-1679.44,-1234.68,826.29
3070,-3.8735,-0.1414,-0.9111,-1882.57,-1000.31,420.04
3080,-3.8737,-0.1423,-0.9071,1914.31,-609.68,-220.58
3090,-3.8737,-0.1431,-0.9031,1789.31,-94.06,-939.33
3100,-3.8737,-0.1436,-0.9006,1695.56,421.57,-1579.90
3110,-3.8737,-0.1434,-0.8994,1633.06,734.07,1982.60
3120,-3.8737,-0.1432,-0.8987,1648.68,890.32,1763.85
3130,-3.8737,-0.1425,-0.9001,1679.93,984.07,1716.98
3140,-3.8737,-0.1400,-0.9034,1773.68,796.57,1810.73
3150,-3.8737,-0.1375,-0.9072,-1913.82,374.69,-1954.90
3160,-3.8737,-0.1364,-0.9111,-1585.69,-109.68,-1533.08
3170,-3.8737,-0.1372,-0.9139,-1445.07,-609.68,-861.21
3180,-3.8737,-0.1385,-0.9150,-1554.44,-969.06,-79.96
3190,-3.8735,-0.1404,-0.9148,-1726.32,-1109.68,529.42
3200,-3.8735,-0.1420,-0.9133,-1960.69,-1078.43,857.54
3210,-3.8735,-0.1417,-0.9113,1836.18,-890.93,904.42
3220,-3.8735,-0.1414,-0.9089,1867.43,-625.31,607.54
3230,-3.8735,-0.1418,-0.9065,1914.31,-328.43,107.54
3240,-3.8737,-0.1423,-0.9045,1851.81,-15.93,-439.33
3250,-3.8737,-0.1425,-0.9038,1789.31,234.07,-1173.65
3260,-3.8737,-0.1420,-0.9041,1773.68,327.82,-1798.65
3270,-3.8737,-0.1412,-0.9049,1836.18,296.57,1888.85
3280,-3.8737,-0.1412,-0.9054,1929.93,187.19,1685.73
3290,-3.8737,-0.1417,-0.9059,1929.93,124.69,1623.23
3300,-3.8737,-0.1416,-0.9072,1867.43,62.19,1810.73
3310,-3.8737,-0.1399,-0.9094,1883.06,-109.68,-1923.71
3320,-3.8737,-0.1367,-0.9122,-1898.19,-390.93,-1704.96
3330,-3.8737,-0.1344,-0.9138,-1491.94,-750.31,-1486.21
3340,-3.8737,-0.1335,-0.9133,-1195.07,-953.43,-1361.21
3350,-3.8737,-0.1332,-0.9119,-1085.69,-890.93,-1517.46
3360,-3.8737,-0.1335,-0.9099,-1038.82,-703.43,-1814.33
3370,-3.8737,-0.1337,-0.9077,-1085.69,-453.43,1920.04
3380,-3.8737,-0.1326,-0.9055,-1101.32,-172.18,1748.17
3390,-3.8737,-0.1313,-0.9034,-960.69,109.07,1841.98
3400,-3.8737,-0.1311,-0.9020,-804.44,374.69,-1767.40
3410,-3.8737,-0.1316,-0.9012,-773.19,562.19,-1126.77
3420,-3.8737,-0.1322,-0.9017,-835.69,655.94,-423.65
3430,-3.8735,-0.1328,-0.9047,-913.82,593.44,216.98
3440,-3.8735,-0.1343,-0.9089,-991.94,218.44,763.85
3450,-3.8735,-0.1384,-0.9125,-1179.44,-328.43,1232.54
3460,-3.8735,-0.1447,-0.9135,-1710.69,-781.56,1670.04
3470,-3.8735,-0.1520,-0.9131,1492.43,-906.56,1951.29
3480,-3.8735,-0.1581,-0.9127,554.93,-859.68,1998.17
3490,-3.8735,-0.1604,-0.9122,-226.32,-812.87,1623.17
3500,-3.8735,-0.1586,-0.9116,-523.19,-750.37,857.54
3510,-3.8737,-0.1544,-0.9102,-288.82,-672.24,-204.96
3520,-3.8737,-0.1497,-0.9077,242.43,-484.68,-1501.83
3530,-3.8737,-0.1461,-0.9039,851.81,-172.18,1232.54
3540,-3.8737,-0.1447,-0.9003,1304.93,312.19,216.98
3550,-3.8738,-0.1436,-0.8987,1492.43,780.94,-548.65
3560,-3.8738,-0.1411,-0.8987,1633.06,984.07,-1017.40
3570,-3.8738,-0.1362,-0.8992,1945.56,984.07,-1158.02
3580,-3.8738,-0.1293,-0.9001,-1429.44,921.57,-1126.77
3590,-3.8738,-0.1216,-0.9022,-538.82,796.57,-829.90
3600,-3.8738,-0.1146,-0.9050,445.56,531.01,-173.65
3610,-3.8737,-0.1102,-0.9078,1336.18,171.63,904.48
3620,-3.8737,-0.1099,-0.9114,1898.68,-187.74,-1704.96
3630,-3.8737,-0.1132,-0.9142,1945.56,-640.87,-314.33
3640,-3.8735,-0.1191,-0.9149,1523.68,-1000.24,920.04
3650,-3.8735,-0.1255,-0.9143,758.06,-1093.99,1998.17
3660,-3.8735,-0.1323,-0.9130,-54.44,-1015.93,-1033.08
3670,-3.8735,-0.1399,-0.9114,-929.44,-844.06,-173.71
3680,-3.8734,-0.1477,-0.9116,-1898.19,-640.93,591.92
3690,-3.8734,-0.1554,-0.9148,1101.81,-672.18,998.17
3700,-3.8734,-0.1630,-0.9196,117.43,-1078.43,873.17
3710,-3.8734,-0.1708,-0.9232,-851.32,-1687.87,91.92
3720,-3.8735,-0.1776,-0.9246,-1851.32,1843.38,-1329.96
3730,-3.8735,-0.1816,-0.9237,1273.68,1671.51,779.42
3740,-3.8737,-0.1815,-0.9199,758.06,1780.88,-1376.83
3750,-3.8737,-0.1771,-0.9121,773.68,-1734.74,451.29
3760,-3.8738,-0.1694,-0.9017,1336.18,-734.74,-1548.71
3770,-3.8738,-0.1603,-0.8922,-1679.44,593.38,763.85
3780,-3.8739,-0.1511,-0.8856,-507.57,1812.13,-611.15
3790,-3.8739,-0.1423,-0.8815,664.31,-1344.06,-1517.40
3800,-3.8739,-0.1340,-0.8801,1789.31,-812.81,-1579.90
3810,-3.8739,-0.1263,-0.8837,-1148.19,-640.93,-533.02
3820,-3.8738,-0.1176,-0.8914,-163.82,-1094.06,1451.35
3830,-3.8738,-0.1082,-0.8998,961.18,1921.63,-142.40
3840,-3.8737,-0.1001,-0.9091,-1835.69,843.51,-1564.27
3850,-3.8735,-0.0953,-0.9197,-804.44,-343.99,920.04
3860,-3.8735,-0.0959,-0.9293,-195.07,-1703.37,-798.71
3870,-3.8734,-0.1019,-0.9352,-273.19,1062.26,1170.04
3880,-3.8734,-0.1121,-0.9362,-1038.82,312.26,-1345.58
3890,-3.8734,-0.1237,-0.9332,1664.31,187.26,-470.58
3900,-3.8734,-0.1337,-0.9283,179.93,562.26,-501.83
3910,-3.8734,-0.1405,-0.9218,-1101.32,1187.19,-1579.96
3920,-3.8734,-0.1458,-0.9142,-1976.32,-1969.06,357.54
3930,-3.8735,-0.1514,-0.9065,1351.81,-1000.31,1545.04
3940,-3.8737,-0.1580,-0.8989,633.06,-15.93,-1564.33
3950,-3.8738,-0.1654,-0.8929,-210.69,952.76,-376.77
3960,-3.8738,-0.1718,-0.8888,-1163.82,1718.38,1623.23
3970,-3.8738,-0.1755,-0.8855,-1976.32,-1750.37,529.48
3980,-3.8738,-0.1757,-0.8854,1539.31,-1328.49,138.85
3990,-3.8738,-0.1714,-0.8893,1523.68,-1312.87,170.10
4000,-3.8738,-0.1631,-0.8954,-1929.44,-1812.87,701.35
4010,-3.8738,-0.1527,-0.9030,-866.94,1405.88,1966.98
4020,-3.8738,-0.1442,-0.9104,461.18,437.19,-220.52
4030,-3.8737,-0.1392,-0.9171,1554.93,-515.93,1951.29
4040,-3.8735,-0.1362,-0.9236,-1804.44,-1375.31,91.92
4050,-3.8735,-0.1340,-0.9280,-1429.44,1796.57,1951.29
4060,-3.8735,-0.1323,-0.9290,-1148.19,1234.07,-611.21
4070,-3.8734,-0.1307,-0.9271,-929.44,1109.07,91.92
4080,-3.8734,-0.1289,-0.9236,-726.32,1343.44,45.04
4090,-3.8735,-0.1259,-0.9193,-491.94,1796.57,-642.46
4100,-3.8735,-0.1227,-0.9147,-101.32,-1656.56,-1939.33
4110,-3.8735,-0.1219,-0.9093,304.93,-1062.74,357.54
4120,-3.8737,-0.1243,-0.9033,398.68,-375.24,-1314.33
4130,-3.8737,-0.1283,-0.8973,101.81,390.38,1357.60
4140,-3.8737,-0.1322,-0.8928,-413.82,1155.94,404.48
4150,-3.8738,-0.1349,-0.8904,-913.82,1734.07,-236.15
4160,-3.8738,-0.1383,-0.8910,-1257.57,-1953.43,-454.90
4170,-3.8738,-0.1428,-0.8942,-1695.07,1968.44,-283.02
4180,-3.8737,-0.1473,-0.8989,1726.81,1562.19,216.98
4190,-3.8737,-0.1516,-0.9043,1148.68,952.82,966.98
4200,-3.8737,-0.1550,-0.9094,601.81,265.32,1857.60
4210,-3.8737,-0.1573,-0.9135,164.31,-390.93,-1048.71
4220,-3.8735,-0.1576,-0.9166,-132.57,-906.62,76.29
4230,-3.8735,-0.1566,-0.9197,-163.82,-1312.87,1060.67
4240,-3.8735,-0.1550,-0.9216,-38.82,-1703.49,1810.67
4250,-3.8735,-0.1537,-0.9226,164.31,-1953.43,-1908.08
4260,-3.8735,-0.1532,-0.9219,336.18,1921.57,-1986.21
4270,-3.8735,-0.1533,-0.9196,398.68,-1984.68,1560.67
4280,-3.8735,-0.1534,-0.9160,383.06,-1687.81,810.67
4290,-3.8737,-0.1525,-0.9116,367.43,-1234.68,-33.08
4300,-3.8737,-0.1490,-0.9067,492.43,-672.18,-970.58
4310,-3.8737,-0.1437,-0.9022,929.93,-47.18,-1970.58
4320,-3.8737,-0.1385,-0.8988,1617.43,530.94,1154.48
4330,-3.8737,-0.1355,-0.8973,-1726.32,968.44,623.23
4340,-3.8737,-0.1345,-0.8981,-1335.69,1155.94,591.98
4350,-3.8737,-0.1343,-0.8993,-1210.69,1062.19,966.98
4360,-3.8737,-0.1338,-0.9006,-1179.44,905.94,1466.98
4370,-3.8737,-0.1321,-0.9028,-1116.94,734.07,1888.85
4380,-3.8737,-0.1290,-0.9058,-898.19,452.82,-1814.27
4390,-3.8737,-0.1263,-0.9081,-507.57,77.82,-1642.40
4400,-3.8737,-0.1256,-0.9098,-163.82,-219.06,-1517.46
4410,-3.8737,-0.1270,-0.9109,-70.07,-437.81,-1314.33
4420,-3.8737,-0.1310,-0.9117,-241.94,-578.43,-1048.71
4430,-3.8737,-0.1359,-0.9126,-757.57,-687.81,-814.33
4440,-3.8737,-0.1384,-0.9132,-1382.57,-797.18,-689.33
4450,-3.8737,-0.1377,-0.9128,-1710.69,-875.31,-736.21
4460,-3.8737,-0.1364,-0.9117,-1616.94,-828.43,-923.71
4470,-3.8737,-0.1368,-0.9111,-1445.07,-687.81,-1251.83
4480,-3.8737,-0.1393,-0.9111,-1507.57,-609.68,-1626.83
4490,-3.8737,-0.1440,-0.9105,-1820.07,-609.68,-1954.96
4500,-3.8737,-0.1497,-0.9098,1570.56,-531.56,1873.17
4510,-3.8737,-0.1539,-0.9099,851.81,-437.81,1841.92
4520,-3.8737,-0.1558,-0.9093,304.93,-453.43,1763.79
4530,-3.8737,-0.1541,-0.9073,70.56,-375.31,1685.67
4540,-3.8737,-0.1509,-0.9061,289.31,-125.31,1716.92
4550,-3.8737,-0.1472,-0.9071,695.56,30.94,1841.98
4560,-3.8737,-0.1432,-0.9087,1164.31,-94.06,-1876.83
4570,-3.8737,-0.1406,-0.9089,1679.93,-297.18,-1564.33
4580,-3.8737,-0.1409,-0.9097,-1991.94,-328.43,-1236.21
4590,-3.8737,-0.1421,-0.9120,1976.81,-422.18,-814.33
4600,-3.8737,-0.1427,-0.9137,1820.56,-719.06,-486.21
4610,-3.8737,-0.1428,-0.9137,1742.43,-937.81,-314.33
4620,-3.8737,-0.1434,-0.9117,1726.81,-937.81,-17.46
4630,-3.8735,-0.1438,-0.9094,1648.68,-687.81,310.67
4640,-3.8735,-0.1431,-0.9076,1601.81,-390.93,248.17
4650,-3.8737,-0.1414,-0.9047,1695.56,-156.56,-283.08
4660,-3.8737,-0.1393,-0.9011,1914.31,218.44,-1095.52
4670,-3.8737,-0.1376,-0.8988,-1820.07,671.57,-1720.52
4680,-3.8737,-0.1379,-0.8984,-1601.32,968.44,1982.60
4690,-3.8737,-0.1409,-0.8995,-1648.19,1015.32,1826.35
4700,-3.8737,-0.1444,-0.9023,1976.81,874.69,1795.10
4710,-3.8737,-0.1466,-0.9066,1523.68,515.32,1888.85
4720,-3.8737,-0.1469,-0.9108,1242.43,-31.56,-1814.33
4730,-3.8737,-0.1460,-0.9147,1211.18,-562.81,-1392.46
4740,-3.8737,-0.1451,-0.9176,1320.56,-1062.81,-986.21
4750,-3.8737,-0.1442,-0.9189,1429.93,-1437.81,-611.21
4760,-3.8737,-0.1438,-0.9191,1554.93,-1609.68,-423.71
4770,-3.8737,-0.1438,-0.9172,1601.81,-1625.31,-658.08
4780,-3.8737,-0.1438,-0.9146,1601.81,-1390.93,-1267.46
4790,-3.8737,-0.1438,-0.9106,1601.81,-1047.18,1966.92
4800,-3.8737,-0.1436,-0.9053,1601.81,-547.18,1170.04
4810,-3.8737,-0.1428,-0.9008,1633.06,140.32,670.10
4820,-3.8737,-0.1415,-0.8992,1726.81,718.44,576.35
4830,-3.8737,-0.1390,-0.8995,1898.68,921.57,826.35
4840,-3.8737,-0.1357,-0.9010,-1788.82,874.69,1185.73
4850,-3.8737,-0.1329,-0.9038,-1366.94,687.19,1654.48
4860,-3.8737,-0.1326,-0.9083,-1007.57,327.82,-1783.02
4870,-3.8737,-0.1346,-0.9139,-960.69,-250.31,-1283.08
4880,-3.8737,-0.1379,-0.9191,-1226.32,-969.06,-767.46
4890,-3.8737,-0.1431,-0.9225,-1648.19,-1625.31,-173.71
4900,-3.8735,-0.1483,-0.9231,1695.56,1937.19,529.42
4910,-3.8735,-0.1519,-0.9204,1023.68,1859.07,1076.29
4920,-3.8735,-0.1533,-0.9158,570.56,-1797.18,1138.79
4930,-3.8735,-0.1538,-0.9111,383.06,-1203.43,545.04
4940,-3.8737,-0.1536,-0.9081,320.56,-609.68,-501.83
4950,-3.8737,-0.1521,-0.9070,351.81,-219.06,-1689.33
4960,-3.8737,-0.1501,-0.9064,539.31,-78.43,1341.92
4970,-3.8737,-0.1482,-0.9056,789.31,-0.31,732.54
4980,-3.8737,-0.1481,-0.9044,1039.31,93.44,404.48
4990,-3.8737,-0.1495,-0.9028,1054.93,249.69,341.98
5000,-3.8737,-0.1498,-0.9031,867.43,452.82,529.48
5010,-3.8737,-0.1481,-0.9053,836.18,421.57,857.60
5020,-3.8737,-0.1450,-0.9078,1054.93,140.32,1154.48
5030,-3.8737,-0.1405,-0.9104,1445.56,-187.81,1420.04
5040,-3.8737,-0.1359,-0.9132,-1976.32,-515.93,1732.54
5050,-3.8737,-0.1327,-0.9154,-1382.57,-875.31,1951.29
5060,-3.8737,-0.1316,-0.9155,-976.32,-1156.56,1888.79
5070,-3.8737,-0.1320,-0.9133,-835.69,-1172.18,1638.79
5080,-3.8737,-0.1332,-0.9103,-882.57,-890.93,1466.92
5090,-3.8737,-0.1348,-0.9081,-1038.82,-500.31,1341.92
5100,-3.8737,-0.1359,-0.9065,-1241.94,-219.06,1216.92
5110,-3.8737,-0.1357,-0.9058,-1382.57,-15.93,1326.29
5120,-3.8737,-0.1354,-0.9062,-1366.94,77.82,1591.98
5130,-3.8737,-0.1354,-0.9076,-1320.07,15.32,1763.85
5140,-3.8737,-0.1366,-0.9098,-1320.07,-156.56,1779.42
5150,-3.8737,-0.1396,-0.9125,-1476.32,-437.81,1966.92
5160,-3.8737,-0.1444,-0.9146,-1866.94,-781.56,-1611.21
5170,-3.8737,-0.1500,-0.9159,1523.68,-1047.18,-1220.58
5180,-3.8737,-0.1552,-0.9171,804.93,-1219.06,-751.83
5190,-3.8737,-0.1591,-0.9177,148.68,-1375.31,-251.83
5200,-3.8735,-0.1617,-0.9167,-351.32,-1453.49,76.29
5210,-3.8735,-0.1631,-0.9147,-695.07,-1328.49,107.54
5220,-3.8737,-0.1638,-0.9117,-866.94,-1062.87,-17.46
5230,-3.8737,-0.1646,-0.9082,-960.69,-687.87,-204.96
5240,-3.8737,-0.1650,-0.9053,-1054.44,-234.74,-204.96
5250,-3.8735,-0.1658,-0.9025,-1116.94,140.26,60.73
5260,-3.8735,-0.1664,-0.9009,-1210.69,499.63,513.85
5270,-3.8735,-0.1660,-0.9016,-1288.82,702.76,1045.10
5280,-3.8735,-0.1648,-0.9045,-1241.94,609.01,1466.98
5290,-3.8735,-0.1641,-0.9088,-1085.69,234.01,1763.85
5300,-3.8735,-0.1644,-0.9120,-991.94,-312.87,1654.42
5310,-3.8735,-0.1659,-0.9139,-1038.82,-719.12,998.17
5320,-3.8737,-0.1665,-0.9147,-1226.32,-969.12,-126.83
5330,-3.8737,-0.1632,-0.9135,-1304.44,-1062.87,-1704.96
5340,-3.8737,-0.1565,-0.9108,-882.57,-906.62,482.54
5350,-3.8738,-0.1473,-0.9075,-23.19,-562.87,-1361.21
5360,-3.8738,-0.1368,-0.9036,1148.68,-140.93,841.92
5370,-3.8739,-0.1267,-0.9003,-1507.57,359.07,-689.27
5380,-3.8739,-0.1187,-0.8986,-210.69,780.94,-1798.65
5390,-3.8739,-0.1134,-0.8981,820.56,999.76,1810.73
5400,-3.8739,-0.1094,-0.8995,1492.43,1062.26,-1501.77
5410,-3.8738,-0.1056,-0.9045,-1991.94,874.76,45.10
5420,-3.8738,-0.1021,-0.9128,-1507.57,234.13,-1908.02
5430,-3.8737,-0.0996,-0.9216,-1054.44,-828.37,185.67
5440,-3.8737,-0.1005,-0.9275,-741.94,-1953.37,-1970.58
5450,-3.8737,-0.1052,-0.9296,-851.32,1296.63,-361.21
5460,-3.8735,-0.1122,-0.9287,-1460.69,1031.01,1091.92
5470,-3.8735,-0.1217,-0.9241,1648.68,1140.38,-1689.33
5480,-3.8735,-0.1332,-0.9156,429.93,1734.13,-923.71
5490,-3.8735,-0.1450,-0.9062,-1038.82,-1187.81,-548.71
5500,-3.8735,-0.1572,-0.8992,1445.56,15.32,-376.77
5510,-3.8735,-0.1681,-0.8958,-116.94,921.51,-158.02
5520,-3.8734,-0.1779,-0.8967,-1507.57,1359.01,404.48
5530,-3.8734,-0.1877,-0.9021,1242.43,1234.01,1170.10
5540,-3.8734,-0.1975,-0.9103,-23.19,546.45,1670.10
5550,-3.8734,-0.2067,-0.9183,-1273.19,-500.43,1623.17
5560,-3.8734,-0.2140,-0.9246,1554.93,-1531.68,982.54
5570,-3.8735,-0.2166,-0.9276,617.43,1671.45,-329.96
5580,-3.8735,-0.2137,-0.9253,289.31,1280.82,1763.79
5590,-3.8737,-0.2062,-0.9186,648.68,1577.70,-736.21
5600,-3.8737,-0.1945,-0.9106,1617.43,-1562.93,279.42
5610,-3.8738,-0.1791,-0.9030,-882.57,-547.30,1232.54
5620,-3.8739,-0.1614,-0.8959,1086.18,437.13,-1470.52
5630,-3.8739,-0.1439,-0.8895,-648.19,1343.38,248.23
5640,-3.8740,-0.1287,-0.8862,1586.18,-1844.06,-1236.15
5650,-3.8740,-0.1138,-0.8876,-460.69,-1422.18,-1533.02
5660,-3.8740,-0.0979,-0.8895,1445.56,-1593.99,-814.27
5670,-3.8739,-0.0833,-0.8916,-523.19,-1843.99,888.85
5680,-3.8739,-0.0719,-0.8967,1351.81,1890.44,-454.90
5690,-3.8738,-0.0646,-0.9054,-1195.07,1234.19,-1361.15
5700,-3.8737,-0.0626,-0.9147,-257.57,124.82,1935.73
5710,-3.8735,-0.0663,-0.9209,-7.57,-1062.68,982.54
5720,-3.8735,-0.0745,-0.9227,-476.32,-1859.56,-439.33
5730,-3.8734,-0.0853,-0.9233,-1523.19,1906.07,1748.17
5740,-3.8734,-0.0979,-0.9241,1086.18,1827.94,-517.46
5750,-3.8733,-0.1128,-0.9233,-523.19,1734.13,623.17
5760,-3.8733,-0.1290,-0.9213,1570.56,1827.88,873.17
5770,-3.8733,-0.1455,-0.9192,-507.57,-1906.56,216.92
5780,-3.8734,-0.1616,-0.9183,1383.06,-1640.93,-1314.33
5790,-3.8734,-0.1760,-0.9180,-679.44,-1531.62,435.67
5800,-3.8735,-0.1879,-0.9175,1476.81,-1484.74,1857.54
5810,-3.8737,-0.1959,-0.9153,-38.82,-1422.30,-954.96
5820,-3.8737,-0.2007,-0.9114,-1070.07,-1141.05,154.42
5830,-3.8738,-0.2034,-0.9065,-1679.44,-641.05,1591.92
5840,-3.8739,-0.2020,-0.9010,1976.81,-16.05,-439.33
5850,-3.8739,-0.1964,-0.8954,-1851.32,687.07,-1892.40
5860,-3.8739,-0.1875,-0.8912,-1132.57,1405.82,1248.23
5870,-3.8739,-0.1759,-0.8906,8.06,1937.13,1185.73
5880,-3.8739,-0.1630,-0.8936,1492.43,-1984.74,-1876.77
5890,-3.8739,-0.1506,-0.8975,-851.32,1640.26,-33.02
5900,-3.8738,-0.1399,-0.9020,726.81,1140.32,-1454.90
5910,-3.8737,-0.1306,-0.9082,-1898.19,562.19,1529.48
5920,-3.8735,-0.1226,-0.9156,-710.69,-234.68,341.92
5930,-3.8735,-0.1161,-0.9229,320.56,-1187.74,-1423.71
5940,-3.8734,-0.1115,-0.9280,1148.68,1890.38,154.42
5950,-3.8734,-0.1082,-0.9299,1742.43,1234.13,1310.67
5960,-3.8734,-0.1073,-0.9292,-1835.69,984.13,-1970.58
5970,-3.8734,-0.1089,-0.9259,-1726.32,1077.88,-1954.96
5980,-3.8734,-0.1124,-0.9197,-1929.44,1499.76,1216.92
5990,-3.8735,-0.1176,-0.9113,1617.43,-1703.37,-298.71
6000,-3.8735,-0.1239,-0.9025,961.18,-625.24,1607.54
6010,-3.8737,-0.1315,-0.8962,148.68,499.76,-673.65
6020,-3.8737,-0.1398,-0.8923,-820.07,1296.57,1373.23
6030,-3.8738,-0.1471,-0.8895,-1882.57,1796.57,-220.52
6040,-3.8738,-0.1522,-0.8885,1179.93,-1844.06,-1345.52
6050,-3.8738,-0.1565,-0.8904,523.68,-1719.06,-1923.65
6060,-3.8738,-0.1605,-0.8943,-23.19,-1953.49,1857.60
6070,-3.8738,-0.1630,-0.8993,-538.82,1546.51,1998.23
6080,-3.8738,-0.1637,-0.9048,-851.32,905.88,-1314.27
6090,-3.8738,-0.1636,-0.9109,-945.07,202.76,-267.40
6100,-3.8737,-0.1628,-0.9170,-929.44,-578.49,904.42
6110,-3.8737,-0.1609,-0.9220,-835.69,-1359.74,-1814.33
6120,-3.8737,-0.1578,-0.9250,-585.69,1999.63,-439.33
6130,-3.8735,-0.1549,-0.9270,-195.07,1609.01,779.42
6140,-3.8735,-0.1514,-0.9279,179.93,1359.07,1638.79
6150,-3.8735,-0.1469,-0.9261,633.06,1249.69,-1923.71
6160,-3.8735,-0.1415,-0.9221,1211.18,1468.44,-1954.96
6170,-3.8735,-0.1365,-0.9172,1898.68,1984.07,1513.79
6180,-3.8735,-0.1337,-0.9126,-1460.69,-1390.93,591.92
6190,-3.8737,-0.1331,-0.9076,-1101.32,-797.18,-533.08
6200,-3.8737,-0.1327,-0.9023,-1023.19,-156.56,-1673.71
6210,-3.8737,-0.1315,-0.8981,-976.32,515.32,1341.98
6220,-3.8737,-0.1301,-0.8961,-820.07,1062.19,716.98
6230,-3.8737,-0.1299,-0.8962,-648.19,1312.19,341.98
6240,-3.8737,-0.1310,-0.8966,-616.94,1296.57,154.48
6250,-3.8737,-0.1329,-0.8971,-757.57,1249.69,248.23
6260,-3.8737,-0.1339,-0.9000,-1007.57,1187.19,638.85
6270,-3.8737,-0.1340,-0.9064,-1132.57,812.19,1279.48
6280,-3.8737,-0.1342,-0.9122,-1148.19,-0.31,-1970.58
6290,-3.8737,-0.1356,-0.9149,-1163.82,-750.31,-1142.46
6300,-3.8737,-0.1401,-0.9160,-1351.32,-1094.06,-376.83
6310,-3.8735,-0.1470,-0.9161,-1929.44,-1234.68,232.54
6320,-3.8735,-0.1532,-0.9152,1195.56,-1250.31,545.04
6330,-3.8735,-0.1564,-0.9131,398.68,-1125.31,466.92
6340,-3.8737,-0.1566,-0.9109,-7.57,-859.74,-17.46
6350,-3.8737,-0.1553,-0.9091,-38.82,-578.49,-704.96
6360,-3.8737,-0.1536,-0.9077,133.06,-344.06,-1533.08
6370,-3.8737,-0.1509,-0.9073,351.81,-172.18,1826.29
6380,-3.8737,-0.1486,-0.9086,695.56,-125.31,1482.54
6390,-3.8737,-0.1482,-0.9106,992.43,-281.56,1263.79
6400,-3.8737,-0.1481,-0.9121,1039.31,-547.18,1341.92
6410,-3.8737,-0.1466,-0.9111,1054.93,-734.68,1716.92
6420,-3.8737,-0.1444,-0.9095,1242.43,-609.68,-1814.33
6430,-3.8737,-0.1412,-0.9091,1523.68,-406.56,-1345.58
6440,-3.8737,-0.1373,-0.9086,1929.93,-344.06,-970.58
6450,-3.8737,-0.1340,-0.9082,-1570.07,-281.56,-876.83
6460,-3.8737,-0.1326,-0.9076,-1148.19,-234.68,-1033.08
6470,-3.8737,-0.1327,-0.9055,-960.69,-156.56,-1111.21
6480,-3.8737,-0.1331,-0.9038,-976.32,109.07,-1158.02
6490,-3.8737,-0.1324,-0.9036,-1023.19,327.82,-1204.90
6500,-3.8737,-0.1315,-0.9042,-945.07,359.07,-1142.40
6510,-3.8737,-0.1316,-0.9043,-820.07,280.94,-1204.90
6520,-3.8737,-0.1339,-0.9036,-835.69,265.32,-1314.27
6530,-3.8737,-0.1381,-0.9043,-1132.57,359.07,-1408.02
6540,-3.8737,-0.1421,-0.9069,-1663.82,265.32,-1595.52
6550,-3.8737,-0.1439,-0.9091,1820.56,-62.81,-1720.58
6560,-3.8737,-0.1439,-0.9108,1586.18,-344.06,-1720.58
6570,-3.8737,-0.1444,-0.9131,1586.18,-562.81,-1533.08
6580,-3.8737,-0.1454,-0.9154,1523.68,-859.68,-1236.21
6590,-3.8737,-0.1473,-0.9159,1398.68,-1156.56,-954.96
6600,-3.8737,-0.1503,-0.9144,1148.68,-1219.06,-783.08
6610,-3.8737,-0.1526,-0.9130,773.68,-1031.56,-767.46
6620,-3.8737,-0.1528,-0.9121,476.81,-844.06,-908.08
6630,-3.8737,-0.1512,-0.9104,445.56,-734.68,-1267.46
6640,-3.8737,-0.1484,-0.9086,648.68,-515.93,-1767.46
6650,-3.8737,-0.1450,-0.9080,1008.06,-281.56,1795.04
6660,-3.8737,-0.1421,-0.9080,1445.56,-203.43,1576.29
6670,-3.8737,-0.1404,-0.9077,1820.56,-203.43,1591.92
6680,-3.8737,-0.1396,-0.9067,-1960.69,-172.18,1685.67
6690,-3.8737,-0.1395,-0.9058,-1866.94,-47.18,1935.67
6700,-3.8737,-0.1388,-0.9059,-1851.32,77.82,-1689.27
6710,-3.8737,-0.1368,-0.9067,-1757.57,62.19,-1345.52
6720,-3.8737,-0.1350,-0.9082,-1507.57,-47.18,-954.96
6730,-3.8737,-0.1344,-0.9094,-1273.19,-234.68,-689.33
6740,-3.8737,-0.1345,-0.9094,-1195.07,-390.93,-689.33
6750,-3.8737,-0.1356,-0.9097,-1210.69,-390.93,-814.33
6760,-3.8737,-0.1373,-0.9098,-1351.32,-422.18,-908.08
6770,-3.8737,-0.1392,-0.9092,-1570.07,-437.81,-1158.08
6780,-3.8737,-0.1407,-0.9082,-1804.44,-359.68,-1439.33
6790,-3.8737,-0.1416,-0.9073,1992.43,-234.68,-1564.33
6800,-3.8737,-0.1411,-0.9067,1883.06,-125.31,-1814.33
6810,-3.8737,-0.1409,-0.9062,1945.56,-47.18,1873.17
6820,-3.8737,-0.1422,-0.9061,1976.81,15.32,1763.85
6830,-3.8737,-0.1445,-0.9072,1804.93,30.94,1904.48
6840,-3.8737,-0.1464,-0.9091,1508.06,-109.68,-1783.08
6850,-3.8737,-0.1477,-0.9111,1273.68,-344.06,-1454.96
6860,-3.8737,-0.1486,-0.9128,1101.81,-609.68,-1142.46
6870,-3.8737,-0.1483,-0.9142,992.43,-828.43,-845.58
6880,-3.8737,-0.1470,-0.9143,1023.68,-1000.31,-658.08
6890,-3.8737,-0.1453,-0.9135,1195.56,-1015.93,-658.08
6900,-3.8737,-0.1444,-0.9116,1414.31,-906.56,-736.21
6910,-3.8737,-0.1438,-0.9087,1523.68,-672.18,-861.21
6920,-3.8737,-0.1426,-0.9061,1601.81,-297.18,-1064.33
6930,-3.8737,-0.1423,-0.9042,1758.06,30.94,-1392.40
6940,-3.8737,-0.1425,-0.9031,1789.31,280.94,-1861.15
6950,-3.8737,-0.1416,-0.9034,1773.68,421.57,1810.73
6960,-3.8737,-0.1409,-0.9045,1883.06,374.69,1763.85
6970,-3.8737,-0.1403,-0.9065,1976.81,234.07,1935.73
6980,-3.8737,-0.1398,-0.9088,-1945.07,-15.93,-1704.96
6990,-3.8737,-0.1390,-0.9109,-1882.57,-312.81,-1408.08
7000,-3.8737,-0.1379,-0.9125,-1788.82,-578.43,-1173.71
7010,-3.8737,-0.1375,-0.9132,-1648.19,-781.56,-1001.83
7020,-3.8737,-0.1379,-0.9131,-1585.69,-875.31,-876.83
7030,-3.8737,-0.1393,-0.9127,-1648.19,-859.68,-845.58
7040,-3.8737,-0.1414,-0.9124,-1820.07,-812.81,-923.71
7050,-3.8737,-0.1429,-0.9109,1914.31,-765.93,-1064.33
7060,-3.8737,-0.1433,-0.9088,1711.18,-578.43,-1251.83
7070,-3.8737,-0.1433,-0.9072,1664.31,-312.81,-1408.08
7080,-3.8737,-0.1433,-0.9070,1664.31,-109.68,-1642.46
7090,-3.8737,-0.1432,-0.9073,1664.31,-78.43,1966.92
7100,-3.8737,-0.1431,-0.9070,1679.93,-125.31,1623.17
7110,-3.8737,-0.1427,-0.9064,1695.56,-78.43,1513.79
7120,-3.8737,-0.1427,-0.9060,1742.43,-0.31,1654.42
7130,-3.8737,-0.1436,-0.9075,1742.43,46.57,1951.35
7140,-3.8737,-0.1442,-0.9089,1633.06,-140.93,-1814.33
7150,-3.8737,-0.1436,-0.9094,1554.93,-328.43,-1579.96
7160,-3.8737,-0.1420,-0.9104,1633.06,-390.93,-1298.71
7170,-3.8737,-0.1398,-0.9133,1836.18,-515.93,-1126.83
7180,-3.8737,-0.1371,-0.9169,-1882.57,-890.93,-1079.96
7190,-3.8737,-0.1360,-0.9194,-1538.82,-1344.06,-954.96
7200,-3.8737,-0.1371,-0.9193,-1398.19,-1672.18,-611.21
7210,-3.8737,-0.1398,-0.9161,-1538.82,-1656.56,-283.08
7220,-3.8737,-0.1434,-0.9114,-1882.57,-1250.31,-251.83
7230,-3.8737,-0.1458,-0.9059,1648.68,-640.93,-658.08
7240,-3.8737,-0.1458,-0.9006,1351.81,62.19,-1454.90
7250,-3.8737,-0.1434,-0.8973,1351.81,734.07,1670.10
7260,-3.8737,-0.1407,-0.8970,1648.68,1155.94,966.98
7270,-3.8737,-0.1394,-0.8992,1992.43,1202.82,607.60
7280,-3.8737,-0.1388,-0.9041,-1835.69,921.57,701.35
7290,-3.8737,-0.1393,-0.9106,-1757.57,296.57,1154.48
7300,-3.8737,-0.1410,-0.9159,-1820.07,-547.18,1904.42
7310,-3.8737,-0.1429,-0.9192,1961.18,-1219.06,-1298.71
7320,-3.8737,-0.1439,-0.9202,1711.18,-1640.93,-642.46
7330,-3.8737,-0.1434,-0.9188,1586.18,-1765.93,-33.08
7340,-3.8735,-0.1426,-0.9165,1648.68,-1594.06,466.92
7350,-3.8735,-0.1425,-0.9128,1758.06,-1297.18,591.92
7360,-3.8735,-0.1421,-0.9091,1773.68,-828.43,295.04
7370,-3.8737,-0.1421,-0.9060,1820.56,-344.06,-314.33
7380,-3.8737,-0.1427,-0.9036,1820.56,46.57,-1158.02
7390,-3.8737,-0.1422,-0.9015,1742.43,359.07,1982.60
7400,-3.8737,-0.1405,-0.9004,1804.93,624.69,1310.73
7410,-3.8737,-0.1392,-0.8998,-1976.32,765.32,966.98
7420,-3.8737,-0.1387,-0.9001,-1804.44,843.44,841.98
7430,-3.8737,-0.1392,-0.9026,-1741.94,796.57,873.23
7440,-3.8737,-0.1412,-0.9061,-1804.44,484.07,1216.98
7450,-3.8737,-0.1427,-0.9095,1929.93,30.94,1888.85
7460,-3.8737,-0.1420,-0.9131,1742.43,-406.56,-1439.33
7470,-3.8737,-0.1401,-0.9165,1836.18,-859.68,-861.21
7480,-3.8737,-0.1388,-0.9183,-1929.44,-1297.18,-329.96
7490,-3.8735,-0.1395,-0.9182,-1757.57,-1531.56,13.79
7500,-3.8735,-0.1418,-0.9175,-1851.32,-1515.93,216.92
7510,-3.8735,-0.1437,-0.9161,1851.81,-1422.18,201.29
7520,-3.8737,-0.1442,-0.9121,1617.43,-1250.31,-173.71
7530,-3.8737,-0.1440,-0.9065,1554.93,-734.68,-861.21
7540,-3.8737,-0.1443,-0.9028,1570.56,-15.93,-1579.96
7550,-3.8737,-0.1439,-0.9025,1539.31,452.82,1748.23
7560,-3.8737,-0.1422,-0.9036,1586.18,499.69,1232.60
7570,-3.8737,-0.1401,-0.9049,1804.93,359.07,998.23
7580,-3.8737,-0.1394,-0.9065,-1929.44,187.19,1091.98
7590,-3.8737,-0.1405,-0.9082,-1835.69,-15.93,1466.92
7600,-3.8737,-0.1427,-0.9099,-1976.32,-234.68,1982.54
7610,-3.8737,-0.1439,-0.9114,1742.43,-453.43,-1470.58
7620,-3.8737,-0.1429,-0.9125,1586.18,-640.93,-845.58
7630,-3.8737,-0.1415,-0.9138,1711.18,-781.56,-470.58
7640,-3.8737,-0.1406,-0.9148,1898.68,-953.43,-423.71
7650,-3.8737,-0.1398,-0.9141,-1991.94,-1078.43,-579.96
7660,-3.8737,-0.1390,-0.9125,-1882.57,-984.68,-986.21
7670,-3.8737,-0.1400,-0.9105,-1788.82,-781.56,-1470.58
7680,-3.8737,-0.1415,-0.9078,-1913.82,-531.56,-1798.71
7690,-3.8737,-0.1423,-0.9049,1898.68,-187.81,1904.42
7700,-3.8737,-0.1429,-0.9031,1789.31,187.19,1670.10
7710,-3.8737,-0.1426,-0.9027,1711.18,421.57,1576.35
7720,-3.8737,-0.1403,-0.9038,1758.06,468.44,1560.73
7730,-3.8737,-0.1373,-0.9059,-1945.07,327.82,1560.73
7740,-3.8737,-0.1364,-0.9084,-1570.07,62.19,1638.85
7750,-3.8737,-0.1378,-0.9109,-1445.07,-265.93,1795.04
7760,-3.8737,-0.1411,-0.9126,-1632.57,-578.43,-1767.46
7770,-3.8737,-0.1444,-0.9139,1945.56,-797.18,-1048.71
7780,-3.8737,-0.1466,-0.9141,1523.68,-969.06,-517.46
7790,-3.8737,-0.1464,-0.9135,1242.43,-984.68,-220.58
7800,-3.8737,-0.1436,-0.9132,1273.68,-906.56,-220.58
7810,-3.8737,-0.1401,-0.9127,1633.06,-875.31,-673.71
7820,-3.8737,-0.1384,-0.9115,-1929.44,-812.81,-1314.33
7830,-3.8737,-0.1394,-0.9093,-1710.69,-656.56,-1861.21
7840,-3.8737,-0.1423,-0.9065,-1835.69,-375.31,1779.42
7850,-3.8737,-0.1458,-0.9047,1789.31,-15.93,1748.17
7860,-3.8737,-0.1472,-0.9043,1351.81,218.44,1904.48
7870,-3.8737,-0.1464,-0.9045,1164.31,265.32,1998.23
7880,-3.8737,-0.1434,-0.9056,1273.68,234.07,-1923.65
7890,-3.8737,-0.1398,-0.9073,1648.68,93.44,-1861.15
7900,-3.8737,-0.1373,-0.9099,-1882.57,-125.31,-1908.08
7910,-3.8737,-0.1366,-0.9124,-1570.07,-453.43,-1908.08
7920,-3.8737,-0.1385,-0.9135,-1476.32,-765.93,-1689.33
7930,-3.8737,-0.1418,-0.9138,-1726.32,-906.56,-1376.83
7940,-3.8737,-0.1432,-0.9135,1851.81,-953.43,-1173.71
7950,-3.8737,-0.1422,-0.9126,1679.93,-906.56,-1158.08
7960,-3.8737,-0.1406,-0.9120,1804.93,-797.18,-1251.83
7970,-3.8737,-0.1392,-0.9111,-1991.94,-719.06,-1376.83
7980,-3.8737,-0.1378,-0.9102,-1804.44,-609.68,-1548.71
7990,-3.8737,-0.1381,-0.9083,-1632.57,-484.68,-1954.96
8000,-3.8737,-0.1395,-0.9062,-1663.82,-250.31,1670.04
8010,-3.8737,-0.1416,-0.9060,-1851.32,15.32,1638.85
8020,-3.8737,-0.1429,-0.9075,1883.06,46.57,1701.35
8030,-3.8737,-0.1437,-0.9089,1711.18,-140.93,1779.42
8040,-3.8737,-0.1443,-0.9104,1617.43,-328.43,1920.04
8050,-3.8737,-0.1436,-0.9128,1539.31,-515.93,-1923.71
8060,-3.8737,-0.1420,-0.9159,1633.06,-828.43,-1736.21
8070,-3.8737,-0.1414,-0.9177,1836.18,-1219.06,-1517.46
8080,-3.8737,-0.1416,-0.9172,1914.31,-1453.43,-1236.21
8090,-3.8737,-0.1426,-0.9155,1883.06,-1390.93,-954.96
8100,-3.8737,-0.1447,-0.9133,1758.06,-1172.18,-829.96
8110,-3.8737,-0.1461,-0.9099,1492.43,-890.93,-986.21
8120,-3.8737,-0.1469,-0.9058,1304.93,-453.43,-1501.83
8130,-3.8737,-0.1462,-0.9027,1211.18,77.82,1810.73
8140,-3.8737,-0.1437,-0.9012,1289.31,468.44,1232.60
8150,-3.8737,-0.1416,-0.9015,1617.43,655.94,951.35
8160,-3.8737,-0.1406,-0.9026,1883.06,624.69,1013.85
8170,-3.8737,-0.1404,-0.9053,-1991.94,484.07,1263.85
8180,-3.8737,-0.1407,-0.9103,-1960.69,140.32,1607.60
8190,-3.8737,-0.1412,-0.9156,1992.43,-500.31,-1939.33
8200,-3.8737,-0.1414,-0.9189,1929.93,-1187.81,-1533.08
8210,-3.8737,-0.1418,-0.9196,1914.31,-1609.68,-1173.71
8220,-3.8737,-0.1420,-0.9186,1851.81,-1687.81,-642.46
8230,-3.8737,-0.1415,-0.9169,1836.18,-1562.81,-220.58
8240,-3.8737,-0.1409,-0.9144,1898.68,-1344.06,-376.83
8250,-3.8737,-0.1400,-0.9115,1976.81,-1031.56,-1001.83
8260,-3.8737,-0.1394,-0.9080,-1913.82,-656.56,-1845.58
8270,-3.8737,-0.1399,-0.9044,-1835.69,-203.43,1341.92
8280,-3.8737,-0.1414,-0.9022,-1898.19,249.69,795.10
8290,-3.8737,-0.1429,-0.9012,1914.31,530.94,716.98
8300,-3.8737,-0.1434,-0.9015,1711.18,655.94,873.23
8310,-3.8737,-0.1418,-0.9033,1648.68,624.69,1013.85
8320,-3.8737,-0.1388,-0.9062,1851.81,390.32,1170.10
8330,-3.8737,-0.1366,-0.9098,-1757.57,15.32,1373.23
8340,-3.8737,-0.1362,-0.9136,-1476.32,-437.81,1670.04
8350,-3.8737,-0.1379,-0.9167,-1429.44,-922.18,-1798.71
8360,-3.8737,-0.1412,-0.9180,-1648.19,-1328.43,-970.58
8370,-3.8737,-0.1447,-0.9176,1929.93,-1484.68,-236.21
8380,-3.8737,-0.1465,-0.9165,1492.43,-1437.81,-33.08
8390,-3.8737,-0.1462,-0.9149,1258.06,-1297.18,-470.58
8400,-3.8737,-0.1449,-0.9121,1289.31,-1094.06,-1142.46
8410,-3.8737,-0.1431,-0.9093,1461.18,-734.68,-1704.96
8420,-3.8737,-0.1412,-0.9076,1695.56,-375.31,1873.17
8430,-3.8737,-0.1409,-0.9061,1929.93,-156.56,1560.67
8440,-3.8737,-0.1418,-0.9055,1976.81,30.94,1310.73
8450,-3.8737,-0.1439,-0.9061,1851.81,109.07,1248.23
8460,-3.8737,-0.1451,-0.9076,1586.18,30.94,1185.73
8470,-3.8737,-0.1442,-0.9087,1429.93,-156.56,1263.79
8480,-3.8737,-0.1423,-0.9098,1554.93,-297.18,1638.79
8490,-3.8737,-0.1407,-0.9109,1789.31,-437.81,-1923.71
8500,-3.8737,-0.1399,-0.9115,1992.43,-578.43,-1533.08
8510,-3.8737,-0.1399,-0.9124,-1898.19,-656.56,-1220.58
8520,-3.8737,-0.1407,-0.9137,-1898.19,-765.93,-1095.58
8530,-3.8737,-0.1418,-0.9146,1992.43,-937.81,-1173.71
8540,-3.8737,-0.1418,-0.9137,1851.81,-1047.18,-1361.21
8550,-3.8737,-0.1409,-0.9127,1851.81,-937.81,-1486.21
8560,-3.8737,-0.1403,-0.9122,1976.81,-812.81,-1673.71
8570,-3.8737,-0.1401,-0.9114,-1945.07,-750.31,1920.04
8580,-3.8737,-0.1399,-0.9105,-1929.44,-640.93,1576.29
8590,-3.8737,-0.1400,-0.9100,-1898.19,-531.56,1388.79
8600,-3.8737,-0.1407,-0.9094,-1913.82,-469.06,1373.17
8610,-3.8737,-0.1421,-0.9089,1992.43,-390.93,1451.29
8620,-3.8737,-0.1427,-0.9098,1820.56,-328.43,1560.67
8630,-3.8737,-0.1425,-0.9110,1742.43,-437.81,1685.67
8640,-3.8737,-0.1420,-0.9127,1773.68,-594.06,1904.42
8650,-3.8737,-0.1410,-0.9143,1836.18,-812.81,-1861.21
8660,-3.8737,-0.1409,-0.9148,1961.18,-1015.93,-1611.21
8670,-3.8737,-0.1414,-0.9146,1976.81,-1078.43,-1423.71
8680,-3.8737,-0.1428,-0.9137,1914.31,-1047.18,-1267.46
8690,-3.8737,-0.1445,-0.9121,1726.81,-937.81,-1126.83
8700,-3.8737,-0.1453,-0.9113,1508.06,-734.68,-1111.21
8710,-3.8737,-0.1439,-0.9109,1414.31,-625.31,-1236.21
8720,-3.8737,-0.1410,-0.9103,1586.18,-578.43,-1501.83
8730,-3.8737,-0.1384,-0.9094,1961.18,-500.31,-1861.21
8740,-3.8737,-0.1381,-0.9089,-1710.69,-390.93,1966.92
8750,-3.8737,-0.1396,-0.9089,-1663.82,-328.43,1935.67
8760,-3.8737,-0.1418,-0.9089,-1866.94,-328.43,1763.79
8770,-3.8737,-0.1443,-0.9088,1851.81,-328.43,1607.54
8780,-3.8737,-0.1456,-0.9089,1539.31,-312.81,1748.17
8790,-3.8737,-0.1458,-0.9093,1367.43,-328.43,-1970.58
8800,-3.8737,-0.1442,-0.9088,1351.81,-375.31,-1814.33
8810,-3.8737,-0.1404,-0.9084,1554.93,-312.81,-1876.83
8820,-3.8737,-0.1367,-0.9094,-1960.69,-265.93,1904.42
8830,-3.8737,-0.1364,-0.9104,-1491.94,-390.93,1748.17
8840,-3.8737,-0.1392,-0.9105,-1445.07,-515.93,1841.92
8850,-3.8737,-0.1434,-0.9113,-1804.44,-531.56,-1751.83
8860,-3.8737,-0.1471,-0.9124,1648.68,-625.31,-1189.33
8870,-3.8737,-0.1482,-0.9136,1179.93,-765.93,-892.46
8880,-3.8737,-0.1465,-0.9149,1039.31,-922.18,-1017.46
8890,-3.8737,-0.1425,-0.9159,1258.06,-1094.06,-1345.58
8900,-3.8737,-0.1382,-0.9155,1773.68,-1219.06,-1564.33
8910,-3.8737,-0.1378,-0.9125,-1679.44,-1172.18,-1626.83
8920,-3.8737,-0.1416,-0.9094,-1632.57,-781.56,-1579.96
8930,-3.8737,-0.1461,-0.9070,1883.06,-390.93,-1548.71
8940,-3.8737,-0.1486,-0.9042,1304.93,-78.43,-1783.08
8950,-3.8737,-0.1471,-0.9025,992.43,280.94,1685.73
8960,-3.8737,-0.1425,-0.9026,1179.93,499.69,1170.10
8970,-3.8737,-0.1384,-0.9047,1773.68,484.07,966.98
8980,-3.8737,-0.1365,-0.9082,-1710.69,218.44,1076.35
8990,-3.8737,-0.1362,-0.9113,-1460.69,-234.68,1373.17
9000,-3.8737,-0.1378,-0.9133,-1429.44,-625.31,1857.54
9010,-3.8737,-0.1400,-0.9156,-1632.57,-890.93,-1533.08
9020,-3.8737,-0.1416,-0.9177,-1913.82,-1187.81,-1079.96
9030,-3.8737,-0.1412,-0.9187,1883.06,-1453.43,-704.96
9040,-3.8737,-0.1392,-0.9178,1929.93,-1578.43,-345.58
9050,-3.8737,-0.1370,-0.9150,-1804.44,-1469.06,-220.58
9060,-3.8737,-0.1371,-0.9114,-1523.19,-1109.68,-486.21
9070,-3.8737,-0.1387,-0.9076,-1538.82,-640.93,-1079.96
9080,-3.8737,-0.1407,-0.9053,-1741.94,-156.56,-1689.33
9090,-3.8737,-0.1426,-0.9038,1992.43,140.32,1779.48
9100,-3.8737,-0.1436,-0.9032,1758.06,327.82,1326.35
9110,-3.8737,-0.1437,-0.9032,1633.06,405.94,1170.10
9120,-3.8737,-0.1429,-0.9033,1617.43,405.94,1295.10
9130,-3.8737,-0.1414,-0.9047,1711.18,390.32,1560.73
9140,-3.8737,-0.1396,-0.9071,1914.31,218.44,1732.60
9150,-3.8737,-0.1392,-0.9103,-1866.94,-94.06,1857.54
9160,-3.8737,-0.1398,-0.9125,-1804.44,-500.31,-1767.46
9170,-3.8737,-0.1409,-0.9139,-1882.57,-781.56,-1220.58
9180,-3.8737,-0.1421,-0.9155,1976.81,-969.06,-673.71
9190,-3.8737,-0.1427,-0.9166,1820.56,-1172.18,-236.21
9200,-3.8737,-0.1417,-0.9152,1742.43,-1312.81,-111.21
9210,-3.8737,-0.1404,-0.9121,1867.43,-1125.31,-267.46
9220,-3.8737,-0.1400,-0.9097,-1960.69,-734.68,-658.08
9230,-3.8737,-0.1405,-0.9073,-1913.82,-422.18,-1220.58
9240,-3.8737,-0.1411,-0.9053,-1976.32,-125.31,-1673.71
9250,-3.8737,-0.1406,-0.9043,1945.56,140.32,-1970.52
9260,-3.8737,-0.1393,-0.9048,-1991.94,265.32,1826.35
9270,-3.8737,-0.1392,-0.9069,-1820.07,202.82,1670.10
9280,-3.8737,-0.1401,-0.9089,-1804.44,-62.81,1685.67
9290,-3.8737,-0.1409,-0.9105,-1929.44,-328.43,1920.04
9300,-3.8737,-0.1409,-0.9113,1976.81,-531.56,-1720.58
9310,-3.8737,-0.1400,-0.9102,1976.81,-625.31,-1392.46
9320,-3.8737,-0.1392,-0.9088,-1913.82,-484.68,-1283.08
9330,-3.8737,-0.1394,-0.9091,-1804.44,-312.81,-1267.46
9340,-3.8737,-0.1401,-0.9102,-1835.69,-344.06,-1267.46
9350,-3.8737,-0.1398,-0.9109,-1929.44,-484.68,-1345.58
9360,-3.8737,-0.1389,-0.9108,-1882.57,-578.43,-1423.71
9370,-3.8737,-0.1389,-0.9103,-1773.19,-562.81,-1408.08
9380,-3.8737,-0.1393,-0.9092,-1773.19,-500.31,-1392.46
9390,-3.8737,-0.1399,-0.9082,-1820.07,-359.68,-1486.21
9400,-3.8737,-0.1401,-0.9078,-1898.19,-234.68,-1470.58
9410,-3.8737,-0.1406,-0.9072,-1929.44,-187.81,-1361.21
9420,-3.8737,-0.1412,-0.9073,-1991.94,-109.68,-1423.71
9430,-3.8737,-0.1410,-0.9083,1929.93,-125.31,-1595.58
9440,-3.8737,-0.1399,-0.9100,1961.18,-250.31,-1704.96
9450,-3.8737,-0.1385,-0.9122,-1898.19,-469.06,-1704.96
9460,-3.8737,-0.1383,-0.9131,-1726.32,-750.31,-1579.96
9470,-3.8737,-0.1395,-0.9125,-1695.07,-859.68,-1439.33
9480,-3.8737,-0.1412,-0.9114,-1851.32,-781.56,-1314.33
9490,-3.8737,-0.1418,-0.9100,1929.93,-640.93,-1236.21
9500,-3.8737,-0.1411,-0.9091,1851.81,-469.06,-1236.21
9510,-3.8737,-0.1387,-0.9086,1945.56,-344.06,-1314.33
9520,-3.8737,-0.1360,-0.9087,-1741.94,-281.56,-1423.71
9530,-3.8737,-0.1349,-0.9089,-1398.19,-297.18,-1548.71
9540,-3.8737,-0.1346,-0.9082,-1257.57,-328.43,-1736.21
9550,-3.8737,-0.1349,-0.9066,-1226.32,-234.68,-1876.83
9560,-3.8737,-0.1355,-0.9065,-1257.57,-31.56,-1892.46
9570,-3.8737,-0.1361,-0.9078,-1335.69,-15.93,-1798.71
9580,-3.8737,-0.1365,-0.9097,-1413.82,-187.81,-1564.33
9590,-3.8737,-0.1372,-0.9105,-1460.69,-422.18,-1267.46
9600,-3.8737,-0.1384,-0.9103,-1554.44,-531.56,-1095.58
9610,-3.8737,-0.1399,-0.9106,-1710.69,-500.31,-1079.96
9620,-3.8737,-0.1405,-0.9109,-1898.19,-547.18,-1173.71
9630,-3.8737,-0.1407,-0.9105,-1976.32,-578.43,-1251.83
9640,-3.8737,-0.1407,-0.9092,1992.43,-531.56,-1283.08
9650,-3.8737,-0.1399,-0.9087,1992.43,-359.68,-1267.46
9660,-3.8737,-0.1389,-0.9102,-1898.19,-297.18,-1329.96
9670,-3.8737,-0.1393,-0.9111,-1773.19,-484.68,-1533.08
9680,-3.8737,-0.1410,-0.9102,-1820.07,-609.68,-1689.33
9690,-3.8737,-0.1433,-0.9093,1961.18,-484.68,-1704.96
9700,-3.8737,-0.1442,-0.9105,1664.31,-375.31,-1642.46
9710,-3.8737,-0.1426,-0.9126,1554.93,-531.56,-1533.08
9720,-3.8737,-0.1393,-0.9133,1758.06,-797.18,-1361.21
9730,-3.8737,-0.1371,-0.9124,-1820.07,-890.93,-986.21
9740,-3.8737,-0.1376,-0.9109,-1538.82,-765.93,-626.83
9750,-3.8737,-0.1400,-0.9088,-1601.32,-578.43,-626.83
9760,-3.8737,-0.1421,-0.9065,-1913.82,-312.81,-939.33
9770,-3.8737,-0.1418,-0.9042,1820.56,-15.93,-1439.33
9780,-3.8737,-0.1401,-0.9026,1851.81,280.94,-1876.77
9790,-3.8737,-0.1381,-0.9031,-1929.44,484.07,1904.48
9800,-3.8737,-0.1365,-0.9050,-1663.82,421.57,1810.73
9810,-3.8737,-0.1354,-0.9080,-1460.69,171.57,1763.85
9820,-3.8737,-0.1355,-0.9117,-1320.07,-203.43,1795.04
9830,-3.8737,-0.1368,-0.9142,-1335.69,-687.81,-1939.33
9840,-3.8737,-0.1384,-0.9141,-1507.57,-1000.31,-1423.71
9850,-3.8737,-0.1396,-0.9130,-1710.69,-984.68,-829.96
9860,-3.8737,-0.1400,-0.9122,-1866.94,-844.06,-158.08
9870,-3.8735,-0.1393,-0.9122,-1913.82,-750.31,404.42
9880,-3.8735,-0.1381,-0.9131,-1820.07,-750.31,732.54
9890,-3.8735,-0.1373,-0.9138,-1663.82,-859.68,701.29
9900,-3.8735,-0.1377,-0.9125,-1570.07,-953.43,295.04
9910,-3.8737,-0.1392,-0.9094,-1616.94,-781.56,-486.21
9920,-3.8737,-0.1404,-0.9077,-1804.44,-390.93,-1579.96
9930,-3.8737,-0.1400,-0.9076,-1960.69,-172.18,1263.79
9940,-3.8737,-0.1390,-0.9061,-1913.82,-156.56,232.54
9950,-3.8738,-0.1375,-0.9033,-1788.82,30.94,-548.65
9960,-3.8738,-0.1349,-0.9011,-1585.69,390.32,-954.90
9970,-3.8738,-0.1320,-0.8994,-1257.57,671.57,-970.52
9980,-3.8738,-0.1285,-0.8992,-882.57,890.32,-486.15
9990,-3.8737,-0.1252,-0.9016,-445.07,921.57,576.35
10000,-3.8737,-0.1232,-0.9065,-23.19,609.07,-1908.02
10010,-3.8737,-0.1237,-0.9124,242.43,-15.87,-298.71
10020,-3.8735,-0.1276,-0.9165,179.93,-765.87,1029.42
10030,-3.8735,-0.1337,-0.9178,-320.07,-1297.18,1920.04
10040,-3.8735,-0.1403,-0.9165,-1101.32,-1469.06,-1689.33
10050,-3.8735,-0.1469,-0.9141,-1945.07,-1297.18,-1783.08
10060,-3.8735,-0.1517,-0.9125,1211.18,-984.68,1732.54
10070,-3.8735,-0.1534,-0.9125,586.18,-781.56,935.67
10080,-3.8735,-0.1532,-0.9131,367.43,-781.56,29.42
10090,-3.8737,-0.1541,-0.9136,398.68,-859.68,-892.46
10100,-3.8737,-0.1559,-0.9137,289.31,-922.18,-1814.33
10110,-3.8737,-0.1571,-0.9131,54.93,-937.81,1326.29
10120,-3.8737,-0.1562,-0.9115,-101.32,-859.74,420.04
10130,-3.8738,-0.1523,-0.9092,8.06,-656.56,-408.08
10140,-3.8738,-0.1464,-0.9062,508.06,-359.68,-986.21
10150,-3.8738,-0.1394,-0.9026,1273.68,15.32,-1376.77
10160,-3.8738,-0.1328,-0.8990,-1835.69,484.07,-1439.27
10170,-3.8738,-0.1279,-0.8971,-991.94,937.19,-970.52
10180,-3.8737,-0.1246,-0.8967,-366.94,1187.19,154.48
10190,-3.8737,-0.1229,-0.8992,54.93,1234.13,-1986.15
10200,-3.8735,-0.1230,-0.9044,273.68,921.63,560.73
10210,-3.8735,-0.1251,-0.9120,258.06,249.76,-658.02
10220,-3.8734,-0.1287,-0.9208,-7.57,-719.06,1545.04
10230,-3.8734,-0.1326,-0.9286,-460.69,-1844.06,-1501.83
10240,-3.8734,-0.1359,-0.9337,-960.69,1155.94,-1673.71
10250,-3.8734,-0.1394,-0.9344,-1382.57,499.69,1091.92
10260,-3.8735,-0.1440,-0.9288,-1835.69,405.94,-1126.83
10270,-3.8735,-0.1483,-0.9186,1570.56,1124.69,201.29
10280,-3.8737,-0.1495,-0.9066,1023.68,-1562.81,1310.67
10290,-3.8738,-0.1471,-0.8958,867.43,-31.56,-1658.08
10300,-3.8739,-0.1422,-0.8868,1179.93,1359.07,-486.15
10310,-3.8739,-0.1360,-0.8805,1804.93,-1500.31,1123.23
10320,-3.8740,-0.1287,-0.8766,-1398.19,-687.81,-345.52
10330,-3.8740,-0.1213,-0.8751,-460.69,-187.81,-470.52
10340,-3.8739,-0.1163,-0.8778,476.81,-0.24,1107.60
10350,-3.8738,-0.1147,-0.8857,1117.43,-343.99,232.60
10360,-3.8737,-0.1171,-0.8987,1320.56,-1359.62,513.85
10370,-3.8735,-0.1226,-0.9161,1023.68,984.13,1560.73
10380,-3.8734,-0.1288,-0.9373,320.56,-1250.24,-1423.71
10390,-3.8733,-0.1334,-0.9545,-476.32,46.57,-1642.46
10400,-3.8732,-0.1393,-0.9587,-1070.07,1843.44,138.73
10410,-3.8732,-0.1517,-0.9574,-1820.07,1296.57,498.11
10420,-3.8733,-0.1687,-0.9568,586.18,1468.44,-173.77
10430,-3.8733,-0.1821,-0.9493,-1585.69,1546.51,1482.48
10440,-3.8734,-0.1874,-0.9319,695.56,-1500.37,1294.98
10450,-3.8737,-0.1841,-0.9115,23.68,734.01,-158.08
10460,-3.8738,-0.1733,-0.8961,445.56,-656.62,-1673.71
10470,-3.8739,-0.1591,-0.8829,1820.56,1312.13,1420.10
10480,-3.8740,-0.1471,-0.8671,-351.32,-1000.37,1466.98
10490,-3.8741,-0.1406,-0.8547,1179.93,1030.94,-954.83
10500,-3.8741,-0.1365,-0.8514,-1991.94,-1390.93,-1345.46
10510,-3.8740,-0.1326,-0.8556,-1460.69,-969.06,467.04
10520,-3.8739,-0.1276,-0.8661,-960.69,-1500.31,170.17
10530,-3.8738,-0.1191,-0.8831,-320.07,1155.94,951.42
10540,-3.8737,-0.1078,-0.9045,758.06,-1015.87,1607.60
10550,-3.8735,-0.0980,-0.9250,-1788.82,234.13,1545.10
10560,-3.8734,-0.0955,-0.9426,-538.82,1609.13,1045.04
10570,-3.8733,-0.1016,-0.9563,-210.69,-640.87,185.61
10580,-3.8733,-0.1143,-0.9615,-991.94,1609.13,-1376.89
10590,-3.8733,-0.1307,-0.9568,1383.06,937.26,-158.14
10600,-3.8733,-0.1451,-0.9459,-726.32,1546.57,-767.52
10610,-3.8733,-0.1531,-0.9335,1429.93,-1062.81,763.73
10620,-3.8734,-0.1554,-0.9209,414.31,530.94,904.42
10630,-3.8735,-0.1564,-0.9087,117.43,-1859.68,607.54
10640,-3.8737,-0.1594,-0.8999,-7.57,-297.24,904.42
10650,-3.8738,-0.1655,-0.8955,-398.19,827.76,-1861.15
10660,-3.8738,-0.1732,-0.8942,-1179.44,1390.26,248.23
10670,-3.8739,-0.1825,-0.8960,1836.18,1562.13,-658.02
10680,-3.8739,-0.1919,-0.9014,648.68,1327.76,-220.52
10690,-3.8738,-0.1970,-0.9102,-554.44,640.20,1404.48
10700,-3.8738,-0.1936,-0.9211,-1210.69,-484.80,-345.58
10710,-3.8737,-0.1813,-0.9312,-773.19,-1891.05,1857.54
10720,-3.8737,-0.1638,-0.9374,804.93,827.76,-673.71
10730,-3.8737,-0.1459,-0.9391,-960.69,30.88,-111.21
10740,-3.8737,-0.1309,-0.9363,1336.18,-187.81,-236.27
10750,-3.8737,-0.1195,-0.9272,-741.94,171.57,-501.83
10760,-3.8737,-0.1124,-0.9131,711.18,1327.88,-454.96
10770,-3.8735,-0.1100,-0.8977,1617.43,-859.62,13.79
10780,-3.8735,-0.1102,-0.8844,1929.93,1109.13,482.60
10790,-3.8735,-0.1116,-0.8762,1898.68,-1187.74,326.35
10800,-3.8737,-0.1123,-0.8724,1726.81,-140.87,-689.27
10810,-3.8737,-0.1141,-0.8721,1633.06,343.51,1717.04
10820,-3.8737,-0.1179,-0.8768,1398.68,390.38,295.17
10830,-3.8738,-0.1228,-0.8854,914.31,-218.99,-501.77
10840,-3.8738,-0.1294,-0.8948,289.31,-1312.74,-751.77
10850,-3.8738,-0.1371,-0.9023,-554.44,1484.07,-361.15
10860,-3.8737,-0.1450,-0.9084,-1538.82,515.32,654.48
10870,-3.8737,-0.1528,-0.9114,1445.56,-265.93,1982.54
10880,-3.8737,-0.1595,-0.9115,445.56,-640.93,-501.83
10890,-3.8735,-0.1627,-0.9143,-413.82,-656.62,670.04
10900,-3.8735,-0.1609,-0.9188,-820.07,-1015.99,951.29
10910,-3.8735,-0.1567,-0.9221,-585.69,-1594.12,623.17
10920,-3.8735,-0.1549,-0.9231,-54.44,1984.01,107.54
10930,-3.8737,-0.1592,-0.9224,179.93,1859.07,-439.33
10940,-3.8737,-0.1682,-0.9202,-366.94,1952.76,-1033.08
10950,-3.8737,-0.1772,-0.9165,-1523.19,-1765.99,-1579.96
10960,-3.8737,-0.1812,-0.9128,1320.56,-1297.24,1904.42
10970,-3.8737,-0.1772,-0.9088,820.56,-828.49,1451.29
10980,-3.8737,-0.1674,-0.9043,1320.56,-312.87,1013.79
10990,-3.8737,-0.1556,-0.9008,-1413.82,265.26,529.48
11000,-3.8737,-0.1456,-0.8990,86.18,718.44,201.35
11010,-3.8737,-0.1405,-0.8983,1367.43,937.19,232.60
11020,-3.8737,-0.1403,-0.8987,-1976.32,1030.94,654.48
11030,-3.8737,-0.1417,-0.9001,-1945.07,984.07,1279.48
11040,-3.8737,-0.1412,-0.9016,1867.43,796.57,-1783.02
11050,-3.8737,-0.1375,-0.9028,1929.93,609.07,-345.52
11060,-3.8735,-0.1328,-0.9043,-1585.69,452.82,1201.35
11070,-3.8735,-0.1301,-0.9066,-991.94,265.32,-1783.02
11080,-3.8735,-0.1316,-0.9086,-648.19,-31.56,-1548.71
11090,-3.8735,-0.1371,-0.9078,-835.69,-281.56,1763.79
11100,-3.8735,-0.1447,-0.9050,-1538.82,-187.81,232.54
11110,-3.8737,-0.1514,-0.9016,1492.43,171.57,-1642.40
11120,-3.8737,-0.1555,-0.8973,633.06,609.07,701.35
11130,-3.8738,-0.1583,-0.8928,101.81,1155.94,-189.27
11140,-3.8738,-0.1597,-0.8884,-257.57,1734.01,-236.15
11150,-3.8737,-0.1599,-0.8862,-429.44,-1703.49,60.73
11160,-3.8737,-0.1600,-0.8899,-460.69,-1422.24,326.35
11170,-3.8737,-0.1599,-0.8990,-476.32,-1890.99,560.73
11180,-3.8737,-0.1591,-0.9095,-460.69,937.13,920.10
11190,-3.8737,-0.1586,-0.9183,-351.32,-406.62,1466.92
11200,-3.8737,-0.1598,-0.9248,-288.82,-1531.62,-1736.21
11210,-3.8737,-0.1613,-0.9283,-445.07,1640.26,-1017.46
11220,-3.8737,-0.1604,-0.9290,-632.57,1187.13,-673.71
11230,-3.8737,-0.1581,-0.9277,-523.19,1109.01,-611.21
11240,-3.8737,-0.1569,-0.9253,-226.32,1265.26,-689.33
11250,-3.8737,-0.1567,-0.9222,-70.07,1577.76,-751.83
11260,-3.8737,-0.1570,-0.9181,-54.44,1968.38,-923.71
11270,-3.8737,-0.1576,-0.9132,-85.69,-1500.37,-1204.96
11280,-3.8737,-0.1581,-0.9080,-163.82,-875.37,-1376.83
11290,-3.8737,-0.1584,-0.9039,-226.32,-203.49,-1408.08
11300,-3.8737,-0.1594,-0.9030,-273.19,312.13,-1345.52
11310,-3.8737,-0.1613,-0.9034,-398.19,437.13,-1283.02
11320,-3.8737,-0.1631,-0.9028,-632.57,374.63,-1314.27
11330,-3.8737,-0.1647,-0.9011,-866.94,452.76,-1611.15
11340,-3.8737,-0.1660,-0.9003,-1070.07,671.51,-1892.40
11350,-3.8737,-0.1671,-0.9022,-1241.94,780.88,-1814.27
11360,-3.8737,-0.1669,-0.9065,-1382.57,530.88,-1439.27
11370,-3.8737,-0.1663,-0.9124,-1351.32,-15.99,-986.21
11380,-3.8737,-0.1661,-0.9187,-1273.19,-765.99,-548.71
11390,-3.8737,-0.1653,-0.9215,-1257.57,-1578.49,-329.96
11400,-3.8737,-0.1642,-0.9181,-1148.19,-1937.87,-439.33
11410,-3.8737,-0.1641,-0.9119,-1007.57,-1500.37,-798.71
11420,-3.8737,-0.1635,-0.9066,-991.94,-703.49,-1376.83
11430,-3.8737,-0.1604,-0.9025,-913.82,-31.62,1810.67
11440,-3.8737,-0.1550,-0.8986,-523.19,499.63,826.35
11450,-3.8737,-0.1503,-0.8958,164.31,999.69,107.60
11460,-3.8738,-0.1477,-0.8948,773.68,1359.07,-283.02
11470,-3.8738,-0.1481,-0.8945,1101.81,1484.07,-454.90
11480,-3.8738,-0.1499,-0.8961,1054.93,1515.32,-423.65
11490,-3.8738,-0.1499,-0.8995,820.56,1312.19,-283.02
11500,-3.8738,-0.1466,-0.9054,820.56,874.69,-142.40
11510,-3.8737,-0.1422,-0.9141,1242.43,124.69,154.48
11520,-3.8737,-0.1390,-0.9235,1804.93,-984.68,732.54
11530,-3.8737,-0.1382,-0.9304,-1788.82,1812.19,1701.29
11540,-3.8737,-0.1399,-0.9325,-1679.44,921.57,-1111.21
11550,-3.8737,-0.1427,-0.9310,-1898.19,655.94,-64.33
11560,-3.8735,-0.1451,-0.9268,1742.43,843.44,513.79
11570,-3.8735,-0.1470,-0.9199,1429.93,1390.32,451.29
11580,-3.8737,-0.1479,-0.9135,1195.56,-1734.68,-173.71
11590,-3.8737,-0.1484,-0.9089,1070.56,-906.56,-923.71
11600,-3.8737,-0.1489,-0.9059,1008.06,-328.43,-1626.83
11610,-3.8737,-0.1501,-0.9034,945.56,62.19,1935.73
11620,-3.8737,-0.1525,-0.9021,789.31,374.69,1685.73
11630,-3.8737,-0.1548,-0.9015,492.43,546.57,1279.48
11640,-3.8737,-0.1562,-0.9019,195.56,624.69,826.35
11650,-3.8737,-0.1566,-0.9034,8.06,577.82,591.98
11660,-3.8737,-0.1553,-0.9059,-38.82,374.63,810.73
11670,-3.8737,-0.1533,-0.9084,133.06,62.19,1482.60
11680,-3.8737,-0.1531,-0.9113,383.06,-265.93,-1689.33
11690,-3.8737,-0.1555,-0.9136,414.31,-625.31,-861.21
11700,-3.8737,-0.1592,-0.9142,101.81,-922.18,-142.46
11710,-3.8735,-0.1622,-0.9136,-366.94,-1000.37,341.92
11720,-3.8735,-0.1624,-0.9131,-757.57,-922.24,529.42
11730,-3.8735,-0.1593,-0.9121,-773.19,-859.74,404.42
11740,-3.8735,-0.1549,-0.9105,-382.57,-734.74,60.67
11750,-3.8737,-0.1508,-0.9086,179.93,-531.56,-361.21
11760,-3.8737,-0.1484,-0.9066,711.18,-281.56,-845.58
11770,-3.8737,-0.1484,-0.9047,1008.06,-31.56,-1408.08
11780,-3.8737,-0.1499,-0.9027,1008.06,218.44,-1861.15
11790,-3.8737,-0.1515,-0.9017,820.56,468.44,1810.73
11800,-3.8737,-0.1514,-0.9012,617.43,593.44,1545.10
11810,-3.8737,-0.1501,-0.9010,633.06,655.94,1263.85
11820,-3.8737,-0.1488,-0.9015,789.31,687.19,1091.98
11830,-3.8737,-0.1479,-0.9020,961.18,624.69,1060.73
11840,-3.8737,-0.1476,-0.9026,1070.56,562.19,1154.48
11850,-3.8737,-0.1472,-0.9039,1117.43,484.07,1388.85
11860,-3.8737,-0.1469,-0.9055,1164.31,312.19,1732.60
11870,-3.8737,-0.1467,-0.9066,1211.18,109.07,-1908.02
11880,-3.8737,-0.1479,-0.9071,1226.81,-31.56,-1642.46
11890,-3.8737,-0.1505,-0.9076,1070.56,-94.06,-1408.08
11900,-3.8737,-0.1538,-0.9072,742.43,-156.56,-1298.71
11910,-3.8737,-0.1560,-0.9056,320.56,-109.68,-1251.83
11920,-3.8737,-0.1558,-0.9045,39.31,93.44,-1111.15
11930,-3.8737,-0.1538,-0.9049,70.56,234.07,-1017.40
11940,-3.8737,-0.1517,-0.9055,320.56,187.19,-1048.65
11950,-3.8737,-0.1515,-0.9062,586.18,109.07,-1189.27
11960,-3.8737,-0.1537,-0.9077,617.43,15.32,-1298.65
11970,-3.8737,-0.1569,-0.9089,336.18,-172.18,-1220.58
11980,-3.8737,-0.1588,-0.9088,-70.07,-328.49,-1064.33
11990,-3.8737,-0.1594,-0.9073,-320.07,-312.87,-923.71
12000,-3.8737,-0.1598,-0.9050,-398.19,-125.37,-751.83
12010,-3.8737,-0.1600,-0.9043,-445.07,171.51,-689.27
12020,-3.8737,-0.1602,-0.9052,-476.32,265.26,-908.02
12030,-3.8737,-0.1604,-0.9059,-491.94,155.88,-1439.27
12040,-3.8737,-0.1599,-0.9061,-523.19,62.13,-1923.65
12050,-3.8737,-0.1583,-0.9058,-460.69,30.88,1748.23
12060,-3.8737,-0.1558,-0.9055,-257.57,77.76,1591.98
12070,-3.8737,-0.1530,-0.9054,70.56,109.07,1716.98
12080,-3.8737,-0.1510,-0.9055,429.93,124.69,-1939.27
12090,-3.8737,-0.1497,-0.9065,679.93,109.07,-1517.40
12100,-3.8737,-0.1490,-0.9081,851.81,-15.93,-1204.96
12110,-3.8737,-0.1492,-0.9098,929.93,-219.06,-954.96
12120,-3.8737,-0.1495,-0.9121,914.31,-437.81,-673.71
12130,-3.8737,-0.1497,-0.9150,867.43,-734.68,-423.71
12140,-3.8737,-0.1488,-0.9156,851.81,-1109.68,-267.46
12150,-3.8737,-0.1477,-0.9141,961.18,-1187.81,-142.46
12160,-3.8737,-0.1488,-0.9113,1101.81,-984.68,-126.83
12170,-3.8737,-0.1522,-0.9076,961.18,-625.31,-298.71
12180,-3.8737,-0.1549,-0.9042,523.68,-156.56,-595.58
12190,-3.8737,-0.1562,-0.9006,179.93,280.94,-892.40
12200,-3.8737,-0.1567,-0.8978,8.06,734.07,-1111.15
12210,-3.8737,-0.1566,-0.8970,-54.44,1093.38,-1283.02
12220,-3.8737,-0.1561,-0.8969,-38.82,1202.76,-1486.15
12230,-3.8737,-0.1556,-0.8970,23.68,1218.44,-1579.90
12240,-3.8737,-0.1558,-0.8986,86.18,1202.82,-1595.52
12250,-3.8737,-0.1564,-0.9010,70.56,999.69,-1673.65
12260,-3.8737,-0.1570,-0.9038,-7.57,687.13,-1673.65
12270,-3.8737,-0.1575,-0.9064,-85.69,327.76,-1423.65
12280,-3.8737,-0.1582,-0.9086,-148.19,-0.37,-908.08
12290,-3.8737,-0.1577,-0.9103,-241.94,-281.62,-267.46
12300,-3.8735,-0.1558,-0.9114,-179.44,-500.37,295.04
12310,-3.8735,-0.1533,-0.9121,70.56,-640.93,466.92
12320,-3.8735,-0.1528,-0.9113,383.06,-734.68,185.67
12330,-3.8737,-0.1542,-0.9092,445.56,-625.31,-329.96
12340,-3.8737,-0.1549,-0.9070,273.68,-359.68,-939.33
12350,-3.8737,-0.1538,-0.9043,179.93,-78.43,-1611.21
12360,-3.8737,-0.1522,-0.9017,320.56,265.32,1873.23
12370,-3.8737,-0.1506,-0.8999,523.68,593.44,1607.60
12380,-3.8737,-0.1486,-0.8995,726.81,827.82,1545.10
12390,-3.8737,-0.1471,-0.9012,992.43,874.69,1670.10
12400,-3.8737,-0.1467,-0.9033,1179.93,655.94,1888.85
12410,-3.8737,-0.1471,-0.9045,1226.81,390.32,-1829.90
12420,-3.8737,-0.1475,-0.9049,1179.93,234.07,-1470.52
12430,-3.8737,-0.1483,-0.9054,1133.06,187.19,-1017.40
12440,-3.8737,-0.1498,-0.9060,1023.68,124.69,-423.65
12450,-3.8735,-0.1505,-0.9069,836.18,46.57,107.60
12460,-3.8735,-0.1494,-0.9075,742.43,-62.81,279.42
12470,-3.8735,-0.1481,-0.9071,883.06,-140.93,123.17
12480,-3.8737,-0.1483,-0.9054,1054.93,-94.06,-158.08
12490,-3.8737,-0.1500,-0.9044,1023.68,124.69,-454.90
12500,-3.8737,-0.1530,-0.9043,804.93,249.69,-814.27
12510,-3.8737,-0.1561,-0.9034,429.93,265.32,-1095.52
12520,-3.8737,-0.1580,-0.9023,23.68,374.69,-1173.65
12530,-3.8737,-0.1581,-0.9021,-210.69,515.26,-1204.90
12540,-3.8737,-0.1575,-0.9030,-226.32,546.51,-1314.27
12550,-3.8737,-0.1560,-0.9044,-148.19,437.13,-1486.15
12560,-3.8737,-0.1544,-0.9052,39.31,249.69,-1454.90
12570,-3.8737,-0.1545,-0.9045,242.43,155.94,-1251.77
12580,-3.8737,-0.1550,-0.9044,226.81,234.07,-1095.52
12590,-3.8737,-0.1550,-0.9050,164.31,249.69,-1001.77
12600,-3.8737,-0.1541,-0.9058,164.31,171.57,-954.90
12610,-3.8737,-0.1512,-0.9064,289.31,77.82,-954.90
12620,-3.8737,-0.1481,-0.9072,648.68,-0.31,-1001.83
12630,-3.8737,-0.1467,-0.9080,1054.93,-109.68,-1017.46
12640,-3.8737,-0.1484,-0.9078,1226.81,-203.43,-829.96
12650,-3.8737,-0.1510,-0.9075,1008.06,-187.81,-626.83
12660,-3.8737,-0.1516,-0.9069,679.93,-140.93,-533.08
12670,-3.8737,-0.1500,-0.9059,601.81,-62.81,-642.46
12680,-3.8737,-0.1478,-0.9048,804.93,62.19,-861.15
12690,-3.8737,-0.1455,-0.9038,1086.18,202.82,-1033.02
12700,-3.8737,-0.1445,-0.9034,1383.06,327.82,-1095.52
12710,-3.8737,-0.1464,-0.9037,1508.06,374.69,-1158.02
12720,-3.8737,-0.1498,-0.9047,1273.68,343.44,-1126.77
12730,-3.8737,-0.1530,-0.9054,836.18,218.44,-970.52
12740,-3.8737,-0.1544,-0.9052,429.93,124.69,-892.40
12750,-3.8737,-0.1543,-0.9054,242.43,155.94,-829.90
12760,-3.8737,-0.1537,-0.9062,258.06,124.69,-704.90
12770,-3.8737,-0.1526,-0.9077,336.18,15.32,-642.40
12780,-3.8737,-0.1509,-0.9095,476.81,-172.18,-564.33
12790,-3.8737,-0.1499,-0.9099,695.56,-406.56,-486.21
12800,-3.8737,-0.1503,-0.9082,820.56,-453.43,-454.96
12810,-3.8737,-0.1514,-0.9067,773.68,-234.68,-486.21
12820,-3.8737,-0.1522,-0.9060,633.06,-47.18,-564.33
12830,-3.8737,-0.1514,-0.9045,523.68,46.57,-595.52
12840,-3.8737,-0.1506,-0.9028,633.06,234.07,-751.77
12850,-3.8737,-0.1504,-0.9022,726.81,452.82,-1095.52
12860,-3.8737,-0.1498,-0.9026,758.06,530.94,-1548.65
12870,-3.8737,-0.1486,-0.9032,836.18,484.07,-1829.90
12880,-3.8737,-0.1479,-0.9038,992.43,405.94,-1751.77
12890,-3.8737,-0.1492,-0.9050,1070.56,327.82,-1298.65
12900,-3.8737,-0.1514,-0.9071,914.31,171.57,-689.27
12910,-3.8737,-0.1539,-0.9083,633.06,-94.06,-158.08
12920,-3.8735,-0.1552,-0.9086,304.93,-250.31,60.67
12930,-3.8735,-0.1536,-0.9091,148.68,-281.56,45.04
12940,-3.8737,-0.1504,-0.9098,351.81,-344.06,-33.08
12950,-3.8737,-0.1467,-0.9092,758.06,-437.81,-236.21
12960,-3.8737,-0.1432,-0.9064,1226.81,-359.68,-283.08
12970,-3.8737,-0.1418,-0.9039,1679.93,-0.31,-48.71
12980,-3.8735,-0.1449,-0.9028,1851.81,312.19,154.48
12990,-3.8735,-0.1519,-0.9023,1461.18,452.82,201.35
13000,-3.8735,-0.1595,-0.9023,570.56,515.32,263.85
13010,-3.8735,-0.1642,-0.9017,-413.82,515.26,279.48
13020,-3.8735,-0.1639,-0.8995,-1007.57,593.38,91.98
13030,-3.8737,-0.1593,-0.8953,-976.32,874.63,-423.65
13040,-3.8737,-0.1521,-0.8934,-382.57,1421.51,-1204.90
13050,-3.8737,-0.1440,-0.8964,539.31,1655.94,1873.23
13060,-3.8737,-0.1372,-0.9006,1570.56,1280.94,1013.85
13070,-3.8737,-0.1344,-0.9060,-1554.44,734.07,763.85
13080,-3.8737,-0.1350,-0.9125,-1195.07,46.57,1545.10
13090,-3.8737,-0.1381,-0.9197,-1273.19,-781.56,-908.08
13100,-3.8735,-0.1423,-0.9258,-1663.82,-1703.43,716.92
13110,-3.8735,-0.1461,-0.9294,1789.31,1515.32,1623.17
13120,-3.8735,-0.1477,-0.9309,1304.93,1046.57,1451.29
13130,-3.8735,-0.1460,-0.9285,1101.81,859.07,435.67
13140,-3.8737,-0.1423,-0.9216,1320.56,1171.57,-1017.46
13150,-3.8737,-0.1388,-0.9121,1789.31,-1953.43,1560.67
13160,-3.8737,-0.1377,-0.9020,-1757.57,-734.68,576.29
13170,-3.8737,-0.1389,-0.8936,-1616.94,562.19,60.73
13180,-3.8737,-0.1409,-0.8873,-1773.19,1640.32,13.85
13190,-3.8737,-0.1420,-0.8848,1976.81,-1562.81,216.98
13200,-3.8737,-0.1418,-0.8865,1836.18,-1234.68,310.73
13210,-3.8737,-0.1414,-0.8903,1851.81,-1453.43,607.60
13220,-3.8737,-0.1409,-0.8940,1914.31,-1937.81,1404.48
13230,-3.8737,-0.1418,-0.8979,1976.81,1577.82,-1454.90
13240,-3.8737,-0.1447,-0.9030,1851.81,1077.82,-329.90
13250,-3.8735,-0.1486,-0.9076,1492.43,437.19,654.48
13260,-3.8735,-0.1509,-0.9117,992.43,-156.56,1529.42
13270,-3.8735,-0.1522,-0.9158,695.56,-687.81,-1814.33
13280,-3.8735,-0.1537,-0.9175,523.68,-1203.43,-1345.58
13290,-3.8735,-0.1552,-0.9163,336.18,-1422.18,-1173.71
13300,-3.8735,-0.1581,-0.9126,148.68,-1265.93,-1470.58
13310,-3.8735,-0.1620,-0.9073,-226.32,-797.24,1857.54
13320,-3.8735,-0.1637,-0.9020,-726.32,-125.37,888.79
13330,-3.8737,-0.1628,-0.8977,-945.07,562.13,-95.52
13340,-3.8737,-0.1602,-0.8949,-835.69,1109.01,-751.77
13350,-3.8737,-0.1570,-0.8944,-491.94,1468.38,-986.15
13360,-3.8737,-0.1565,-0.8958,-85.69,1530.88,-689.27
13370,-3.8735,-0.1588,-0.8982,-23.19,1359.01,76.35
13380,-3.8735,-0.1615,-0.9017,-320.07,1046.51,1013.85
13390,-3.8735,-0.1630,-0.9050,-663.82,593.38,1779.48
13400,-3.8735,-0.1609,-0.9084,-851.32,171.51,-1751.77
13410,-3.8735,-0.1558,-0.9121,-585.69,-265.99,-1658.08
13420,-3.8735,-0.1499,-0.9152,70.56,-734.68,1982.54
13430,-3.8735,-0.1462,-0.9170,820.56,-1125.31,1263.79
13440,-3.8735,-0.1462,-0.9169,1289.31,-1359.68,310.67
13450,-3.8737,-0.1478,-0.9147,1289.31,-1344.06,-954.96
13460,-3.8737,-0.1481,-0.9103,1086.18,-1062.81,1576.29
13470,-3.8737,-0.1454,-0.9060,1054.93,-500.31,279.42
13480,-3.8738,-0.1396,-0.9047,1398.68,46.57,-658.02
13490,-3.8738,-0.1335,-0.9061,-1866.94,218.44,-1064.27
13500,-3.8738,-0.1288,-0.9086,-1085.69,30.94,-642.40
13510,-3.8737,-0.1260,-0.9109,-476.32,-281.56,685.67
13520,-3.8737,-0.1255,-0.9126,-116.94,-578.43,-1579.96
13530,-3.8737,-0.1262,-0.9135,-54.44,-797.18,-1.83
13540,-3.8735,-0.1272,-0.9133,-148.19,-906.56,1076.29
13550,-3.8735,-0.1268,-0.9114,-273.19,-890.93,1513.79
13560,-3.8735,-0.1248,-0.9060,-226.32,-640.93,1388.79
13570,-3.8735,-0.1229,-0.8981,39.31,46.63,732.60
13580,-3.8737,-0.1221,-0.8907,273.68,1062.26,-79.90
13590,-3.8737,-0.1233,-0.8876,383.06,1999.76,-642.40
13600,-3.8737,-0.1273,-0.8888,226.81,-1593.99,-892.40
13610,-3.8737,-0.1340,-0.8926,-288.82,-1750.31,-798.65
13620,-3.8737,-0.1416,-0.8972,-1148.19,1765.32,-595.52
13630,-3.8737,-0.1467,-0.9020,1883.06,1171.57,-611.15
13640,-3.8737,-0.1479,-0.9067,1226.81,562.19,-892.40
13650,-3.8737,-0.1454,-0.9099,1070.56,-47.18,-1376.83
13660,-3.8737,-0.1396,-0.9109,1398.68,-453.43,-1814.33
13670,-3.8737,-0.1333,-0.9099,-1866.94,-578.43,-1814.33
13680,-3.8737,-0.1305,-0.9088,-1054.44,-453.43,-1236.21
13690,-3.8737,-0.1326,-0.9087,-695.07,-312.81,-173.71
13700,-3.8735,-0.1375,-0.9093,-960.69,-297.18,1013.79
13710,-3.8735,-0.1414,-0.9094,-1585.69,-375.31,1826.29
13720,-3.8735,-0.1422,-0.9083,1914.31,-390.93,1951.29
13730,-3.8735,-0.1388,-0.9065,1804.93,-250.31,1373.17
13740,-3.8735,-0.1329,-0.9048,-1757.57,-15.93,295.04
13750,-3.8737,-0.1282,-0.9034,-1007.57,202.82,-798.65
13760,-3.8737,-0.1274,-0.9020,-398.19,374.69,-1486.15
13770,-3.8737,-0.1306,-0.9020,-304.44,562.19,-1704.90
13780,-3.8737,-0.1357,-0.9041,-710.69,562.19,-1626.77
13790,-3.8737,-0.1410,-0.9072,-1366.94,296.57,-1501.77
13800,-3.8737,-0.1448,-0.9095,1961.18,-109.68,-1501.83
13810,-3.8737,-0.1471,-0.9103,1476.81,-406.56,-1626.83
13820,-3.8737,-0.1492,-0.9093,1179.93,-500.31,-1720.58
13830,-3.8737,-0.1516,-0.9066,914.31,-375.31,-1736.21
13840,-3.8737,-0.1530,-0.9028,601.81,-31.56,-1783.08
13850,-3.8737,-0.1525,-0.8997,429.93,452.82,-1767.40
13860,-3.8737,-0.1514,-0.8983,492.43,859.07,-1658.02
13870,-3.8737,-0.1498,-0.8984,633.06,1030.94,-1329.90
13880,-3.8737,-0.1479,-0.9001,836.18,1015.32,-673.65
13890,-3.8735,-0.1467,-0.9033,1070.56,796.57,310.73
13900,-3.8735,-0.1479,-0.9066,1226.81,390.32,1513.85
13910,-3.8735,-0.1517,-0.9093,1070.56,-31.56,-1220.58
13920,-3.8735,-0.1582,-0.9109,586.18,-375.31,-204.96
13930,-3.8734,-0.1652,-0.9121,-241.94,-578.49,388.79
13940,-3.8734,-0.1694,-0.9126,-1132.57,-734.74,388.79
13950,-3.8735,-0.1720,-0.9099,-1679.44,-797.24,-95.58
13960,-3.8735,-0.1726,-0.9041,1992.43,-453.49,-892.46
13970,-3.8735,-0.1689,-0.8984,1914.31,296.51,1888.85
13980,-3.8735,-0.1620,-0.8956,-1616.94,1015.26,310.73
13990,-3.8737,-0.1536,-0.8945,-726.32,1374.63,-1001.77
14000,-3.8737,-0.1442,-0.8942,351.81,1515.32,-1751.77
14010,-3.8737,-0.1360,-0.8955,1554.93,1562.19,1951.35
14020,-3.8737,-0.1317,-0.8993,-1398.19,1390.32,-1923.65
14030,-3.8737,-0.1305,-0.9043,-851.32,905.94,-1345.52
14040,-3.8737,-0.1292,-0.9086,-695.07,265.32,-798.65
14050,-3.8737,-0.1263,-0.9121,-523.19,-281.56,-720.58
14060,-3.8737,-0.1237,-0.9139,-163.82,-734.68,-861.21
14070,-3.8737,-0.1217,-0.9132,179.93,-968.99,-861.21
14080,-3.8737,-0.1212,-0.9108,429.93,-875.24,-579.96
14090,-3.8737,-0.1235,-0.9084,492.43,-562.74,-126.83
14100,-3.8735,-0.1285,-0.9073,195.56,-265.87,326.29
14110,-3.8735,-0.1351,-0.9076,-445.07,-125.31,560.67
14120,-3.8735,-0.1403,-0.9073,-1288.82,-156.56,529.42
14130,-3.8735,-0.1444,-0.9058,-1945.07,-125.31,154.42
14140,-3.8737,-0.1483,-0.9043,1523.68,77.82,-533.02
14150,-3.8737,-0.1508,-0.9031,1023.68,265.32,-1376.77
14160,-3.8737,-0.1519,-0.9015,711.18,421.57,1888.85
14170,-3.8737,-0.1534,-0.9000,570.56,624.69,1404.48
14180,-3.8737,-0.1553,-0.8999,367.43,812.19,1279.48
14190,-3.8737,-0.1577,-0.8999,133.06,827.82,1357.60
14200,-3.8737,-0.1609,-0.8997,-179.44,827.76,1607.60
14210,-3.8737,-0.1630,-0.9004,-585.69,859.01,-1939.27
14220,-3.8737,-0.1632,-0.9023,-851.32,765.26,-1454.90
14230,-3.8737,-0.1616,-0.9050,-882.57,515.26,-1001.77
14240,-3.8737,-0.1597,-0.9069,-679.44,171.51,-595.52
14250,-3.8737,-0.1591,-0.9081,-429.44,-62.87,-345.58
14260,-3.8737,-0.1591,-0.9102,-351.32,-219.12,-189.33
14270,-3.8735,-0.1586,-0.9131,-351.32,-484.74,29.42
14280,-3.8735,-0.1583,-0.9144,-288.82,-859.74,185.67
14290,-3.8737,-0.1576,-0.9142,-257.57,-1031.62,-17.46
14300,-3.8737,-0.1553,-0.9132,-163.82,-1000.37,-533.08
14310,-3.8737,-0.1525,-0.9124,133.06,-875.31,-1204.96
14320,-3.8737,-0.1499,-0.9105,492.43,-765.93,-1908.08
14330,-3.8737,-0.1472,-0.9077,820.56,-531.56,1373.17
14340,-3.8737,-0.1447,-0.9049,1164.31,-172.18,748.17
14350,-3.8737,-0.1428,-0.9034,1492.43,187.19,654.48
14360,-3.8737,-0.1414,-0.9044,1726.81,374.69,966.98
14370,-3.8737,-0.1410,-0.9052,1914.31,249.69,1326.35
14380,-3.8737,-0.1416,-0.9050,1961.18,155.94,1763.85
14390,-3.8737,-0.1421,-0.9053,1883.06,171.57,-1642.40
14400,-3.8737,-0.1422,-0.9054,1820.56,140.32,-1111.15
14410,-3.8737,-0.1418,-0.9054,1804.93,124.69,-720.52
14420,-3.8737,-0.1412,-0.9053,1851.81,124.69,-579.90
14430,-3.8737,-0.1409,-0.9053,1929.93,140.32,-564.27
14440,-3.8737,-0.1420,-0.9060,1976.81,140.32,-392.40
14450,-3.8737,-0.1453,-0.9076,1836.18,46.57,-189.27
14460,-3.8737,-0.1506,-0.9086,1414.31,-156.56,-17.46
14470,-3.8737,-0.1566,-0.9080,726.81,-281.56,-1.83
14480,-3.8737,-0.1616,-0.9069,-38.82,-203.49,-142.46
14490,-3.8737,-0.1641,-0.9059,-679.44,-62.87,-267.46
14500,-3.8737,-0.1642,-0.9044,-991.94,62.13,-361.15
14510,-3.8737,-0.1633,-0.9034,-1007.57,249.63,-533.02
14520,-3.8737,-0.1624,-0.9039,-898.19,374.63,-876.77
14530,-3.8737,-0.1621,-0.9053,-773.19,312.13,-1283.02
14540,-3.8737,-0.1632,-0.9062,-741.94,140.26,-1548.65
14550,-3.8737,-0.1642,-0.9060,-882.57,15.26,-1658.02
14560,-3.8737,-0.1649,-0.9055,-1007.57,46.51,-1533.02
14570,-3.8737,-0.1650,-0.9060,-1101.32,109.01,-1142.40
14580,-3.8737,-0.1637,-0.9065,-1116.94,46.51,-751.77
14590,-3.8737,-0.1615,-0.9073,-945.07,-15.99,-611.21
14600,-3.8737,-0.1587,-0.9105,-663.82,-125.37,-704.96
14610,-3.8737,-0.1552,-0.9148,-304.44,-531.62,-783.08
14620,-3.8737,-0.1516,-0.9172,148.68,-1078.43,-704.96
14630,-3.8737,-0.1503,-0.9167,601.81,-1390.93,-486.21
14640,-3.8737,-0.1516,-0.9132,773.68,-1328.43,-251.83
14650,-3.8737,-0.1527,-0.9083,601.81,-875.31,-204.96
14660,-3.8737,-0.1511,-0.9038,461.18,-250.31,-470.58
14670,-3.8737,-0.1486,-0.8999,664.31,327.82,-939.27
14680,-3.8737,-0.1459,-0.8967,992.43,827.82,-1611.15
14690,-3.8737,-0.1448,-0.8945,1336.18,1234.07,1685.73
14700,-3.8737,-0.1460,-0.8942,1476.81,1515.32,1263.85
14710,-3.8737,-0.1481,-0.8960,1320.56,1562.19,1216.98
14720,-3.8737,-0.1503,-0.8993,1054.93,1327.82,1466.98
14730,-3.8737,-0.1532,-0.9038,773.68,905.94,1966.98
14740,-3.8737,-0.1560,-0.9089,398.68,327.82,-1423.65
14750,-3.8737,-0.1564,-0.9139,39.31,-328.43,-767.46
14760,-3.8737,-0.1553,-0.9177,-7.57,-969.12,-142.46
14770,-3.8735,-0.1548,-0.9198,133.06,-1453.43,248.17
14780,-3.8735,-0.1559,-0.9192,195.56,-1719.06,404.42
14790,-3.8735,-0.1587,-0.9164,54.93,-1640.93,341.92
14800,-3.8737,-0.1619,-0.9120,-304.44,-1281.62,-48.71
14810,-3.8737,-0.1641,-0.9058,-710.69,-719.12,-751.83
14820,-3.8737,-0.1632,-0.9006,-991.94,77.76,-1501.77
14830,-3.8737,-0.1599,-0.8983,-882.57,734.01,1795.10
14840,-3.8737,-0.1564,-0.8971,-460.69,1030.88,1295.10
14850,-3.8737,-0.1542,-0.8964,-7.57,1187.13,1263.85
14860,-3.8737,-0.1533,-0.8981,273.68,1280.94,1529.48
14870,-3.8737,-0.1533,-0.9009,383.06,1062.19,1748.23
14880,-3.8737,-0.1523,-0.9042,383.06,702.82,1935.73
14890,-3.8737,-0.1490,-0.9098,508.06,280.94,-1595.52
14900,-3.8737,-0.1466,-0.9164,929.93,-437.81,-845.58
14910,-3.8737,-0.1476,-0.9205,1242.43,-1281.56,-1.83
14920,-3.8735,-0.1505,-0.9214,1117.43,-1812.81,826.29
14930,-3.8735,-0.1533,-0.9204,742.43,-1922.18,1310.67
14940,-3.8735,-0.1548,-0.9175,383.06,-1797.18,1170.04
14950,-3.8735,-0.1542,-0.9130,195.56,-1422.18,466.92
14960,-3.8737,-0.1527,-0.9075,273.68,-844.06,-361.21
14970,-3.8737,-0.1510,-0.9017,461.18,-140.93,-1111.21
14980,-3.8737,-0.1506,-0.8979,679.93,593.44,-1829.90
14990,-3.8737,-0.1523,-0.8965,726.81,1077.82,1732.60
15000,-3.8737,-0.1549,-0.8962,508.06,1265.32,1685.73
15010,-3.8737,-0.1565,-0.8969,179.93,1296.57,1935.73
15020,-3.8737,-0.1561,-0.8987,-23.19,1218.38,-1626.77
15030,-3.8737,-0.1560,-0.9014,23.68,984.07,-1204.90
15040,-3.8737,-0.1573,-0.9042,39.31,640.32,-704.90
15050,-3.8737,-0.1591,-0.9072,-132.57,280.88,-267.40
15060,-3.8737,-0.1603,-0.9098,-351.32,-109.74,-111.21
15070,-3.8737,-0.1605,-0.9103,-507.57,-437.87,-220.58
15080,-3.8737,-0.1599,-0.9091,-538.82,-500.37,-533.08
15090,-3.8737,-0.1588,-0.9075,-460.69,-344.12,-908.08
15100,-3.8737,-0.1560,-0.9066,-320.07,-140.99,-1220.58
15110,-3.8737,-0.1526,-0.9059,39.31,-31.56,-1501.83
15120,-3.8737,-0.1506,-0.9044,476.81,62.19,-1861.15
15130,-3.8737,-0.1504,-0.9036,726.81,249.69,1904.48
15140,-3.8737,-0.1516,-0.9033,758.06,359.07,1857.60
15150,-3.8737,-0.1526,-0.9030,601.81,390.32,1935.73
15160,-3.8737,-0.1523,-0.9028,476.81,437.19,-1829.90
15170,-3.8737,-0.1521,-0.9031,508.06,452.82,-1548.65
15180,-3.8737,-0.1519,-0.9038,539.31,421.57,-1189.27
15190,-3.8737,-0.1512,-0.9044,570.56,327.82,-673.65
15200,-3.8737,-0.1514,-0.9050,648.68,249.69,-236.15
15210,-3.8737,-0.1521,-0.9054,633.06,171.57,-79.90
15220,-3.8737,-0.1534,-0.9059,539.31,124.69,-1.77
15230,-3.8735,-0.1556,-0.9055,367.43,62.19,76.35
15240,-3.8735,-0.1575,-0.9048,86.18,109.07,60.73
15250,-3.8737,-0.1588,-0.9049,-148.19,202.76,-64.27
15260,-3.8737,-0.1598,-0.9050,-320.07,187.13,-173.65
15270,-3.8737,-0.1602,-0.9044,-445.07,171.51,-361.15
15280,-3.8737,-0.1603,-0.9038,-491.94,249.63,-704.90
15290,-3.8737,-0.1605,-0.9031,-507.57,327.76,-1033.02
15300,-3.8737,-0.1611,-0.9015,-538.82,421.51,-1158.02
15310,-3.8737,-0.1614,-0.8998,-616.94,624.63,-1236.15
15320,-3.8737,-0.1605,-0.8998,-648.19,843.38,-1361.15
15330,-3.8737,-0.1594,-0.9010,-538.82,843.38,-1408.02
15340,-3.8737,-0.1592,-0.9022,-398.19,687.13,-1251.77
15350,-3.8737,-0.1598,-0.9038,-366.94,530.88,-923.65
15360,-3.8737,-0.1599,-0.9060,-445.07,327.76,-517.40
15370,-3.8737,-0.1578,-0.9095,-460.69,46.51,-48.65
15380,-3.8735,-0.1541,-0.9131,-195.07,-406.62,466.92
15390,-3.8735,-0.1495,-0.9161,289.31,-859.68,951.29
15400,-3.8735,-0.1472,-0.9169,867.43,-1250.31,1216.92
15410,-3.8735,-0.1489,-0.9143,1164.31,-1344.06,1263.79
15420,-3.8735,-0.1537,-0.9097,945.56,-1015.93,1310.67
15430,-3.8735,-0.1600,-0.9041,336.18,-422.18,1201.29
15440,-3.8735,-0.1638,-0.8983,-476.32,296.51,670.10
15450,-3.8737,-0.1632,-0.8936,-960.69,1030.88,-314.27
15460,-3.8737,-0.1599,-0.8918,-882.57,1640.26,-1564.27
15470,-3.8737,-0.1567,-0.8925,-460.69,1859.01,1248.23
15480,-3.8737,-0.1558,-0.8942,-54.44,1780.88,404.48
15490,-3.8737,-0.1584,-0.8983,70.56,1562.19,466.98
15500,-3.8737,-0.1622,-0.9062,-273.19,1030.88,1482.60
15510,-3.8737,-0.1606,-0.9152,-757.57,15.26,-1408.02
15520,-3.8737,-0.1528,-0.9200,-554.44,-1125.37,-892.46
15530,-3.8737,-0.1436,-0.9207,445.56,-1750.31,-829.96
15540,-3.8737,-0.1372,-0.9198,1633.06,-1828.43,-814.33
15550,-3.8737,-0.1355,-0.9181,-1554.44,-1719.06,-626.83
15560,-3.8737,-0.1372,-0.9138,-1335.69,-1500.31,-189.33
15570,-3.8735,-0.1405,-0.9071,-1554.44,-953.43,170.04
15580,-3.8735,-0.1421,-0.9011,-1976.32,-94.06,91.92
15590,-3.8737,-0.1411,-0.8969,1820.56,671.57,-564.27
15600,-3.8737,-0.1403,-0.8933,1945.56,1218.44,-1533.02
15610,-3.8737,-0.1412,-0.8911,-1945.07,1671.57,1748.23
15620,-3.8737,-0.1442,-0.8905,1929.93,1952.82,1560.73
15630,-3.8737,-0.1486,-0.8914,1554.93,-1969.06,1826.35
15640,-3.8737,-0.1537,-0.8939,992.43,1921.57,-1579.90
15650,-3.8737,-0.1584,-0.8981,336.18,1593.44,-720.52
15660,-3.8737,-0.1611,-0.9030,-273.19,1062.13,-1.77
15670,-3.8735,-0.1620,-0.9073,-616.94,437.13,326.35
15680,-3.8735,-0.1619,-0.9115,-726.32,-125.37,466.92
15690,-3.8735,-0.1609,-0.9143,-710.69,-656.62,545.04
15700,-3.8735,-0.1591,-0.9137,-585.69,-1015.99,529.42
15710,-3.8735,-0.1589,-0.9110,-351.32,-937.87,716.92
15720,-3.8735,-0.1624,-0.9075,-335.69,-594.12,1326.29
15730,-3.8735,-0.1674,-0.9041,-773.19,-140.99,1966.92
15740,-3.8735,-0.1711,-0.9022,-1413.82,296.51,-1829.90
15750,-3.8735,-0.1738,-0.9011,-1898.19,530.88,1873.23
15760,-3.8735,-0.1754,-0.8995,1758.06,671.51,1216.98
15770,-3.8735,-0.1737,-0.8973,1554.93,874.63,201.35
15780,-3.8737,-0.1689,-0.8950,1773.68,1155.88,-892.40
15790,-3.8737,-0.1635,-0.8937,-1616.94,1452.76,-1704.90
15800,-3.8737,-0.1582,-0.8948,-913.82,1624.63,1826.35
15810,-3.8737,-0.1552,-0.8976,-241.94,1484.01,1763.85
15820,-3.8737,-0.1552,-0.9006,148.68,1124.69,-1798.65
15830,-3.8737,-0.1566,-0.9039,148.68,734.07,-923.65
15840,-3.8737,-0.1578,-0.9067,-38.82,312.13,-220.52
15850,-3.8735,-0.1599,-0.9082,-195.07,-47.24,60.67
15860,-3.8735,-0.1609,-0.9082,-460.69,-234.74,170.04
15870,-3.8735,-0.1584,-0.9066,-585.69,-234.74,295.04
15880,-3.8735,-0.1554,-0.9039,-273.19,-31.62,623.17
15890,-3.8735,-0.1555,-0.9009,117.43,312.19,1123.23
15900,-3.8735,-0.1587,-0.8984,101.81,702.82,1451.35
15910,-3.8735,-0.1624,-0.8962,-304.44,1015.26,1420.10
15920,-3.8735,-0.1655,-0.8937,-773.19,1296.51,1029.48
15930,-3.8735,-0.1680,-0.8921,-1179.44,1624.63,341.98
15940,-3.8737,-0.1677,-0.8925,-1491.94,1827.76,-454.90
15950,-3.8737,-0.1658,-0.8944,-1460.69,1780.88,-1079.90
15960,-3.8737,-0.1642,-0.8976,-1210.69,1530.88,-1267.40
15970,-3.8737,-0.1630,-0.9017,-1007.57,1124.63,-1158.02
15980,-3.8737,-0.1630,-0.9045,-851.32,593.38,-986.15
15990,-3.8737,-0.1642,-0.9050,-851.32,234.01,-595.52
16000,-3.8737,-0.1652,-0.9052,-1007.57,171.51,-111.15
16010,-3.8735,-0.1644,-0.9058,-1132.57,155.88,138.85
16020,-3.8735,-0.1626,-0.9071,-1038.82,77.76,232.60
16030,-3.8735,-0.1605,-0.9091,-804.44,-94.12,185.67
16040,-3.8737,-0.1582,-0.9105,-538.82,-344.12,-64.33
16050,-3.8737,-0.1570,-0.9103,-241.94,-531.62,-548.71
16060,-3.8737,-0.1572,-0.9094,-85.69,-500.37,-1001.83
16070,-3.8737,-0.1571,-0.9078,-116.94,-390.99,-1251.83
16080,-3.8737,-0.1556,-0.9054,-101.32,-187.87,-1314.33
16090,-3.8737,-0.1531,-0.9020,86.18,124.69,-1111.15
16100,-3.8737,-0.1504,-0.8989,414.31,562.19,-861.15
16110,-3.8737,-0.1482,-0.8971,758.06,952.82,-673.65
16120,-3.8737,-0.1481,-0.8954,1039.31,1187.19,-517.40
16130,-3.8737,-0.1492,-0.8949,1054.93,1405.94,-392.40
16140,-3.8737,-0.1497,-0.8962,914.31,1468.44,-314.27
16150,-3.8737,-0.1501,-0.8972,851.81,1296.57,-298.65
16160,-3.8737,-0.1512,-0.8959,789.31,1171.57,-501.77
16170,-3.8737,-0.1525,-0.8953,648.68,1343.44,-704.90
16180,-3.8737,-0.1523,-0.8981,492.43,1421.57,-767.40
16190,-3.8737,-0.1511,-0.9022,508.06,1062.19,-611.15
16200,-3.8737,-0.1506,-0.9059,664.31,530.94,-204.90
16210,-3.8735,-0.1522,-0.9080,726.81,62.19,341.98
16220,-3.8735,-0.1559,-0.9094,523.68,-203.43,920.04
16230,-3.8735,-0.1603,-0.9104,54.93,-390.93,1357.54
16240,-3.8735,-0.1635,-0.9094,-507.57,-515.99,1576.29
16250,-3.8735,-0.1650,-0.9066,-913.82,-390.99,1451.29
16260,-3.8735,-0.1637,-0.9048,-1116.94,-31.62,873.17
16270,-3.8737,-0.1597,-0.9032,-945.07,202.76,-95.52
16280,-3.8737,-0.1565,-0.9014,-429.44,405.88,-954.90
16290,-3.8737,-0.1560,-0.8988,-23.19,640.26,-1454.90
16300,-3.8737,-0.1576,-0.8971,39.31,968.44,-1626.77
16310,-3.8737,-0.1593,-0.8977,-163.82,1187.13,-1533.02
16320,-3.8737,-0.1609,-0.8979,-382.57,1109.01,-1173.65
16330,-3.8737,-0.1614,-0.8979,-585.69,1077.76,-829.90
16340,-3.8737,-0.1603,-0.8990,-648.19,1077.76,-642.40
16350,-3.8737,-0.1587,-0.9015,-507.57,937.13,-486.15
16360,-3.8737,-0.1572,-0.9034,-304.44,624.63,-329.90
16370,-3.8737,-0.1558,-0.9045,-116.94,374.63,-126.77
16380,-3.8737,-0.1537,-0.9050,70.56,234.07,-64.27
16390,-3.8737,-0.1512,-0.9042,336.18,171.57,-189.27
16400,-3.8737,-0.1500,-0.9030,648.68,280.94,-204.90
16410,-3.8735,-0.1509,-0.9021,804.93,437.19,170.10
16420,-3.8735,-0.1531,-0.9021,695.56,546.57,998.23
16430,-3.8735,-0.1558,-0.9016,414.31,546.57,1920.10
16440,-3.8735,-0.1588,-0.9000,70.56,609.07,-1423.65
16450,-3.8735,-0.1617,-0.8978,-320.07,812.13,-1095.52
16460,-3.8735,-0.1633,-0.8962,-695.07,1093.38,-1267.40
16470,-3.8735,-0.1626,-0.8965,-898.19,1296.51,1951.35
16480,-3.8735,-0.1605,-0.8981,-804.44,1265.26,873.23
16490,-3.8737,-0.1584,-0.8992,-538.82,1062.13,-33.02
16500,-3.8737,-0.1580,-0.9005,-273.19,921.51,-611.15
16510,-3.8737,-0.1600,-0.9027,-210.69,749.63,-861.15
16520,-3.8737,-0.1637,-0.9049,-476.32,468.38,-861.15
16530,-3.8737,-0.1663,-0.9065,-945.07,187.13,-814.27
16540,-3.8737,-0.1653,-0.9091,-1273.19,-15.99,-845.58
16550,-3.8737,-0.1605,-0.9125,-1148.19,-344.12,-876.83
16560,-3.8737,-0.1537,-0.9142,-538.82,-781.62,-814.33
16570,-3.8737,-0.1484,-0.9139,336.18,-1000.31,-533.08
16580,-3.8737,-0.1464,-0.9131,1008.06,-969.06,-204.96
16590,-3.8735,-0.1473,-0.9120,1273.68,-859.68,76.29
16600,-3.8735,-0.1501,-0.9091,1148.68,-719.06,232.54
16610,-3.8735,-0.1534,-0.9045,789.31,-344.06,170.04
16620,-3.8735,-0.1558,-0.8999,367.43,234.07,29.48
16630,-3.8737,-0.1565,-0.8970,70.56,827.82,-33.02
16640,-3.8737,-0.1570,-0.8953,-23.19,1202.76,-17.40
16650,-3.8737,-0.1588,-0.8932,-85.69,1421.51,-17.40
16660,-3.8737,-0.1597,-0.8921,-320.07,1687.13,-236.15
16670,-3.8737,-0.1591,-0.8928,-429.44,1827.76,-673.65
16680,-3.8737,-0.1599,-0.8942,-351.32,1734.01,-783.02
16690,-3.8737,-0.1620,-0.8949,-460.69,1562.13,-439.27
16700,-3.8737,-0.1636,-0.8956,-726.32,1468.38,-48.65
16710,-3.8735,-0.1635,-0.8967,-929.44,1374.63,185.73
16720,-3.8735,-0.1631,-0.8979,-913.82,1234.01,373.23
16730,-3.8735,-0.1621,-0.8997,-866.94,1077.76,685.73
16740,-3.8735,-0.1597,-0.9019,-741.94,859.01,935.73
16750,-3.8735,-0.1584,-0.9048,-429.44,577.76,1045.10
16760,-3.8735,-0.1600,-0.9065,-273.19,202.76,1216.98
16770,-3.8735,-0.1631,-0.9066,-476.32,-15.99,1341.92
16780,-3.8735,-0.1647,-0.9076,-866.94,-31.62,1123.17
16790,-3.8735,-0.1644,-0.9094,-1070.07,-156.62,560.67
16800,-3.8737,-0.1630,-0.9093,-1038.82,-390.99,-267.46
16810,-3.8737,-0.1589,-0.9075,-851.32,-375.37,-1111.21
16820,-3.8737,-0.1542,-0.9064,-335.69,-140.99,-1861.21
16830,-3.8737,-0.1515,-0.9065,273.68,-0.31,1763.79
16840,-3.8737,-0.1510,-0.9055,617.43,-15.93,1982.54
16850,-3.8737,-0.1514,-0.9034,679.93,109.07,-1470.52
16860,-3.8737,-0.1514,-0.9028,633.06,374.69,-939.27
16870,-3.8737,-0.1509,-0.9027,633.06,452.82,-579.90
16880,-3.8737,-0.1500,-0.9022,695.56,468.44,-423.65
16890,-3.8737,-0.1482,-0.9011,804.93,530.94,-470.52
16900,-3.8737,-0.1472,-0.8993,1039.31,671.57,-470.52
16910,-3.8737,-0.1486,-0.8978,1164.31,905.94,-329.90
16920,-3.8737,-0.1514,-0.8972,992.43,1093.44,-173.65
16930,-3.8737,-0.1559,-0.8969,633.06,1171.57,-1.77
16940,-3.8735,-0.1610,-0.8972,54.93,1218.44,154.48
16950,-3.8737,-0.1642,-0.8972,-601.32,1171.51,-17.40
16960,-3.8737,-0.1650,-0.8955,-1007.57,1171.51,-564.27
16970,-3.8737,-0.1644,-0.8949,-1116.94,1390.26,-751.77
16980,-3.8737,-0.1636,-0.8977,-1038.82,1468.38,-345.52
16990,-3.8735,-0.1644,-0.9017,-929.44,1109.01,404.48
17000,-3.8735,-0.1672,-0.9069,-1038.82,593.38,1248.23
17010,-3.8735,-0.1714,-0.9131,-1398.19,-62.87,1904.42
17020,-3.8735,-0.1744,-0.9186,-1929.44,-859.74,-1939.33
17030,-3.8735,-0.1742,-0.9202,1679.93,-1562.87,1560.67
17040,-3.8735,-0.1713,-0.9176,1711.18,-1765.99,654.42
17050,-3.8737,-0.1660,-0.9133,-1913.82,-1437.87,-126.83
17060,-3.8737,-0.1608,-0.9091,-1241.94,-890.99,-579.96
17070,-3.8737,-0.1584,-0.9061,-570.07,-344.12,-626.83
17080,-3.8737,-0.1583,-0.9038,-273.19,30.88,-486.15
17090,-3.8737,-0.1583,-0.9011,-257.57,327.76,-439.27
17100,-3.8737,-0.1586,-0.8987,-257.57,671.51,-751.77
17110,-3.8737,-0.1591,-0.8965,-288.82,984.01,-1392.40
17120,-3.8737,-0.1578,-0.8939,-351.32,1265.26,1951.35
17130,-3.8737,-0.1539,-0.8928,-195.07,1593.38,1498.23
17140,-3.8737,-0.1483,-0.8951,304.93,1734.07,1357.60
17150,-3.8737,-0.1449,-0.9000,1023.68,1437.19,1576.35
17160,-3.8737,-0.1449,-0.9050,1461.18,812.19,-1783.02
17170,-3.8737,-0.1477,-0.9092,1461.18,171.57,-845.52
17180,-3.8735,-0.1525,-0.9119,1101.81,-359.68,60.67
17190,-3.8735,-0.1564,-0.9116,492.43,-703.43,826.29
17200,-3.8735,-0.1576,-0.9087,-7.57,-672.24,1341.92
17210,-3.8735,-0.1565,-0.9048,-163.82,-297.24,1529.42
17220,-3.8735,-0.1559,-0.9011,-23.19,202.76,1466.98
17230,-3.8735,-0.1567,-0.8975,54.93,671.57,1310.73
17240,-3.8735,-0.1593,-0.8937,-54.44,1140.26,1107.60
17250,-3.8735,-0.1630,-0.8895,-382.57,1624.63,576.35
17260,-3.8737,-0.1670,-0.8865,-851.32,-1844.12,-267.40
17270,-3.8737,-0.1710,-0.8859,-1366.94,-1453.49,-1095.52
17280,-3.8737,-0.1737,-0.8873,-1882.57,-1375.37,-1626.77
17290,-3.8737,-0.1731,-0.8903,1773.68,-1562.87,-1689.27
17300,-3.8737,-0.1709,-0.8949,1851.81,-1937.87,-1314.27
17310,-3.8737,-0.1689,-0.8998,-1866.94,1468.38,-454.90
17320,-3.8735,-0.1682,-0.9045,-1616.94,843.38,795.10
17330,-3.8735,-0.1691,-0.9098,-1523.19,234.01,1982.60
17340,-3.8735,-0.1708,-0.9150,-1632.57,-437.87,-1079.96
17350,-3.8735,-0.1713,-0.9177,-1851.32,-1109.74,-595.58
17360,-3.8735,-0.1700,-0.9160,-1913.82,-1453.49,-626.83
17370,-3.8735,-0.1677,-0.9114,-1757.57,-1234.74,-1236.21
17380,-3.8735,-0.1647,-0.9054,-1460.69,-640.99,1576.29
17390,-3.8735,-0.1626,-0.8994,-1070.07,124.63,107.60
17400,-3.8737,-0.1626,-0.8950,-804.44,890.26,-1158.02
17410,-3.8737,-0.1632,-0.8932,-804.44,1452.76,-1986.15
17420,-3.8737,-0.1643,-0.8932,-882.57,1687.13,1529.48
17430,-3.8737,-0.1647,-0.8943,-1023.19,1687.13,1201.35
17440,-3.8737,-0.1635,-0.8961,-1070.07,1546.51,1232.60
17450,-3.8737,-0.1617,-0.8976,-913.82,1312.13,1591.98
17460,-3.8737,-0.1595,-0.8984,-695.07,1124.63,-1845.52
17470,-3.8737,-0.1570,-0.8997,-413.82,1015.26,-1111.15
17480,-3.8737,-0.1555,-0.9020,-85.69,859.01,-423.65
17490,-3.8735,-0.1564,-0.9043,101.81,562.19,326.35
17500,-3.8735,-0.1593,-0.9064,-7.57,265.26,966.98
17510,-3.8735,-0.1635,-0.9071,-382.57,-0.37,1357.54
17520,-3.8735,-0.1678,-0.9064,-913.82,-94.12,1466.92
17530,-3.8735,-0.1709,-0.9053,-1476.32,-0.37,1232.54
17540,-3.8735,-0.1721,-0.9037,-1866.94,140.26,795.10
17550,-3.8735,-0.1711,-0.9012,1976.81,343.38,216.98
17560,-3.8737,-0.1691,-0.8986,-1898.19,655.88,-439.27
17570,-3.8737,-0.1680,-0.8959,-1632.57,999.63,-1126.77
17580,-3.8737,-0.1678,-0.8928,-1491.94,1343.38,-1689.27
17590,-3.8737,-0.1672,-0.8912,-1476.32,1734.01,-1939.27
17600,-3.8737,-0.1656,-0.8918,-1398.19,1937.13,-1923.65
17610,-3.8737,-0.1644,-0.8929,-1195.07,1859.01,-1658.02
17620,-3.8737,-0.1628,-0.8948,-1038.82,1718.38,-1298.65
17630,-3.8737,-0.1610,-0.8979,-835.69,1484.01,-970.52
17640,-3.8737,-0.1600,-0.9025,-601.32,1077.76,-642.40
17650,-3.8737,-0.1600,-0.9064,-476.32,499.63,-329.90
17660,-3.8735,-0.1615,-0.9088,-476.32,-0.37,60.67
17670,-3.8735,-0.1642,-0.9113,-663.82,-312.87,420.04
17680,-3.8735,-0.1671,-0.9127,-1007.57,-625.37,654.42
17690,-3.8735,-0.1680,-0.9125,-1382.57,-812.87,685.67
17700,-3.8735,-0.1661,-0.9119,-1491.94,-781.62,466.92
17710,-3.8735,-0.1642,-0.9108,-1257.57,-703.49,170.04
17720,-3.8737,-0.1644,-0.9076,-1007.57,-562.87,-17.46
17730,-3.8737,-0.1667,-0.9030,-1038.82,-156.62,-48.71
17740,-3.8737,-0.1705,-0.8988,-1335.69,437.13,-79.90
17750,-3.8737,-0.1737,-0.8955,-1820.07,968.38,-329.90
17760,-3.8737,-0.1749,-0.8931,1773.68,1390.26,-783.02
17770,-3.8737,-0.1741,-0.8917,1617.43,1702.76,-1361.15
17780,-3.8737,-0.1726,-0.8921,1726.81,1874.63,-1845.52
17790,-3.8737,-0.1711,-0.8937,1914.31,1827.76,-1986.15
17800,-3.8737,-0.1698,-0.8962,-1898.19,1624.63,-1626.77
17810,-3.8737,-0.1685,-0.9006,-1726.32,1296.51,-970.52
17820,-3.8737,-0.1670,-0.9049,-1554.44,734.01,-283.02
17830,-3.8735,-0.1650,-0.9078,-1366.94,187.13,263.85
17840,-3.8735,-0.1624,-0.9100,-1116.94,-187.87,591.92
17850,-3.8735,-0.1599,-0.9114,-773.19,-469.12,670.04
17860,-3.8735,-0.1591,-0.9109,-460.69,-640.99,560.67
17870,-3.8735,-0.1595,-0.9094,-351.32,-578.49,248.17
17880,-3.8737,-0.1606,-0.9070,-413.82,-390.99,-220.58
17890,-3.8737,-0.1617,-0.9041,-554.44,-78.49,-767.46
17900,-3.8737,-0.1617,-0.9008,-695.07,296.51,-1111.15
17910,-3.8737,-0.1620,-0.8979,-695.07,718.38,-1095.52
17920,-3.8737,-0.1627,-0.8973,-726.32,1077.76,-923.65
17930,-3.8737,-0.1643,-0.8976,-820.07,1155.88,-892.40
17940,-3.8737,-0.1671,-0.8983,-1023.19,1124.63,-1048.65
17950,-3.8737,-0.1698,-0.8992,-1382.57,1030.88,-1236.15
17960,-3.8737,-0.1715,-0.8993,-1726.32,921.51,-1408.02
17970,-3.8737,-0.1729,-0.8994,-1945.07,905.88,-1376.77
17980,-3.8737,-0.1746,-0.9004,1883.06,890.26,-1001.77
17990,-3.8737,-0.1758,-0.9021,1664.31,765.26,-517.40
18000,-3.8737,-0.1763,-0.9045,1508.06,546.51,-204.90
18010,-3.8737,-0.1763,-0.9066,1445.56,234.01,-1.77
18020,-3.8735,-0.1764,-0.9080,1445.56,-31.62,341.92
18030,-3.8735,-0.1770,-0.9077,1429.93,-203.49,795.04
18040,-3.8735,-0.1768,-0.9056,1351.81,-172.24,1013.79
18050,-3.8735,-0.1743,-0.9026,1383.06,93.38,935.73
18060,-3.8735,-0.1709,-0.8994,1695.56,484.01,576.35
18070,-3.8737,-0.1672,-0.8965,-1866.94,890.26,-126.77
18080,-3.8737,-0.1638,-0.8950,-1398.19,1265.26,-1033.02
18090,-3.8737,-0.1609,-0.8953,-960.69,1452.76,-1783.02
18100,-3.8737,-0.1597,-0.8958,-585.69,1421.51,1795.10
18110,-3.8737,-0.1604,-0.8961,-429.44,1359.01,1732.60
18120,-3.8737,-0.1610,-0.8972,-523.19,1312.13,1966.98
18130,-3.8737,-0.1604,-0.8994,-601.32,1171.51,-1814.27
18140,-3.8737,-0.1597,-0.9020,-523.19,890.26,-1673.65
18150,-3.8737,-0.1586,-0.9049,-429.44,562.13,-1361.15
18160,-3.8737,-0.1572,-0.9083,-288.82,187.13,-767.40
18170,-3.8735,-0.1580,-0.9109,-116.94,-250.37,13.79
18180,-3.8735,-0.1609,-0.9115,-210.69,-578.49,888.79
18190,-3.8735,-0.1643,-0.9104,-585.69,-656.62,1623.17
18200,-3.8735,-0.1669,-0.9082,-1023.19,-515.99,-1970.58
18210,-3.8735,-0.1694,-0.9055,-1351.32,-234.74,-1986.21
18220,-3.8735,-0.1721,-0.9038,-1679.44,109.01,1654.48
18230,-3.8735,-0.1752,-0.9034,1976.81,327.76,1076.35
18240,-3.8735,-0.1787,-0.9030,1586.18,374.63,232.60
18250,-3.8737,-0.1807,-0.9016,1133.06,437.13,-751.77
18260,-3.8737,-0.1810,-0.9003,883.06,609.01,-1658.02
18270,-3.8737,-0.1797,-0.8999,836.18,780.88,1466.98
18280,-3.8737,-0.1760,-0.8997,1008.06,827.76,888.85
18290,-3.8737,-0.1715,-0.8990,1476.81,859.01,951.35
18300,-3.8737,-0.1666,-0.8977,-1945.07,937.13,1654.48
18310,-3.8737,-0.1609,-0.8987,-1320.07,1109.01,-1408.02
18320,-3.8737,-0.1560,-0.9021,-585.69,984.01,-704.90
18330,-3.8737,-0.1530,-0.9049,39.31,546.57,-314.27
18340,-3.8735,-0.1521,-0.9060,429.93,187.19,60.73
18350,-3.8735,-0.1550,-0.9054,539.31,46.57,404.48
18360,-3.8735,-0.1602,-0.9027,164.31,124.69,420.10
18370,-3.8735,-0.1652,-0.8995,-491.94,468.38,185.73
18380,-3.8737,-0.1682,-0.8971,-1132.57,874.63,-95.52
18390,-3.8737,-0.1677,-0.8949,-1523.19,1187.13,-392.40
18400,-3.8737,-0.1650,-0.8927,-1460.69,1468.38,-548.65
18410,-3.8737,-0.1626,-0.8929,-1116.94,1749.63,-579.90
18420,-3.8737,-0.1614,-0.8966,-804.44,1718.38,-564.27
18430,-3.8737,-0.1631,-0.9022,-648.19,1249.63,-423.65
18440,-3.8737,-0.1674,-0.9081,-866.94,530.88,-111.15
18450,-3.8735,-0.1714,-0.9127,-1413.82,-219.12,263.79
18460,-3.8735,-0.1736,-0.9155,-1929.44,-812.87,404.42
18470,-3.8735,-0.1733,-0.9167,1789.31,-1172.24,279.42
18480,-3.8735,-0.1714,-0.9155,1820.56,-1328.49,13.79
18490,-3.8737,-0.1691,-0.9111,-1929.44,-1172.24,-423.71
18500,-3.8737,-0.1670,-0.9055,-1632.57,-609.74,-954.96
18510,-3.8737,-0.1635,-0.9008,-1366.94,109.01,-1611.15
18520,-3.8737,-0.1581,-0.8976,-913.82,718.38,1623.23
18530,-3.8737,-0.1531,-0.8958,-226.32,1124.63,1279.48
18540,-3.8737,-0.1506,-0.8937,414.31,1359.07,1638.85
18550,-3.8737,-0.1510,-0.8910,726.81,1624.69,-1579.90
18560,-3.8737,-0.1522,-0.8889,679.93,1968.44,-626.77
18570,-3.8735,-0.1538,-0.8889,523.68,-1765.93,248.23
18580,-3.8735,-0.1561,-0.8906,320.56,-1765.93,920.10
18590,-3.8735,-0.1595,-0.8936,23.68,-1984.68,1451.35
18600,-3.8735,-0.1639,-0.8977,-413.82,1640.26,1888.85
18610,-3.8735,-0.1682,-0.9016,-976.32,1109.01,-1767.40
18620,-3.8735,-0.1726,-0.9053,-1523.19,609.01,-1751.77
18630,-3.8735,-0.1776,-0.9083,1914.31,140.26,1795.10
18640,-3.8735,-0.1820,-0.9103,1273.68,-250.37,1045.04
18650,-3.8735,-0.1842,-0.9109,711.18,-500.37,170.04
18660,-3.8737,-0.1830,-0.9104,429.93,-578.49,-767.46
18670,-3.8737,-0.1797,-0.9092,586.18,-515.99,-1486.21
18680,-3.8737,-0.1770,-0.9064,1008.06,-359.74,-1861.21
18690,-3.8737,-0.1754,-0.9028,1351.81,-0.37,-1829.96
18700,-3.8737,-0.1755,-0.9000,1554.93,452.76,-1533.02
18710,-3.8737,-0.1755,-0.8981,1539.31,812.13,-1267.40
18720,-3.8737,-0.1730,-0.8961,1539.31,1062.13,-1236.15
18730,-3.8737,-0.1687,-0.8945,1867.43,1312.13,-1439.27
18740,-3.8737,-0.1635,-0.8938,-1585.69,1515.26,-1626.77
18750,-3.8737,-0.1578,-0.8936,-913.82,1609.01,-1548.65
18760,-3.8737,-0.1538,-0.8929,-195.07,1640.26,-1079.90
18770,-3.8737,-0.1520,-0.8933,320.56,1718.44,-251.77
18780,-3.8735,-0.1520,-0.8951,554.93,1671.57,779.48
18790,-3.8735,-0.1539,-0.8979,554.93,1437.19,1779.48
18800,-3.8735,-0.1580,-0.9010,304.93,1077.82,-1361.15
18810,-3.8735,-0.1627,-0.9043,-210.69,687.13,-751.77
18820,-3.8735,-0.1676,-0.9072,-820.07,265.26,-689.27
18830,-3.8735,-0.1727,-0.9084,-1445.07,-109.74,-1204.96
18840,-3.8735,-0.1765,-0.9086,1898.68,-265.99,1935.67
18850,-3.8735,-0.1783,-0.9081,1414.31,-281.62,795.04
18860,-3.8737,-0.1792,-0.9060,1179.93,-219.12,-533.08
18870,-3.8737,-0.1792,-0.9026,1070.56,46.51,-1783.02
18880,-3.8737,-0.1770,-0.9011,1070.56,484.01,1185.73
18890,-3.8737,-0.1738,-0.9019,1351.81,671.51,638.85
18900,-3.8737,-0.1715,-0.9026,1758.06,577.76,701.35
18910,-3.8737,-0.1710,-0.9030,-1945.07,484.01,1326.35
18920,-3.8737,-0.1718,-0.9033,-1882.57,437.13,-1876.77
18930,-3.8737,-0.1715,-0.9038,-1976.32,390.26,-1517.40
18940,-3.8737,-0.1688,-0.9042,-1945.07,327.76,-1533.02
18950,-3.8737,-0.1638,-0.9041,-1601.32,280.88,-1517.40
18960,-3.8737,-0.1600,-0.9022,-960.69,296.51,-1454.90
18970,-3.8737,-0.1605,-0.8986,-476.32,530.88,-1298.65
18980,-3.8737,-0.1654,-0.8954,-538.82,999.63,-861.15
18990,-3.8737,-0.1714,-0.8944,-1163.82,1405.88,-204.90
19000,-3.8735,-0.1744,-0.8938,-1929.44,1530.88,310.73
19010,-3.8735,-0.1718,-0.8927,1679.93,1609.01,466.98
19020,-3.8735,-0.1663,-0.8900,-1976.32,1749.63,654.48
19030,-3.8735,-0.1632,-0.8873,-1273.19,-1906.62,1076.35
19040,-3.8735,-0.1643,-0.8873,-882.57,-1562.87,1482.60
19050,-3.8735,-0.1691,-0.8899,-1023.19,-1562.87,1748.23
19060,-3.8735,-0.1780,-0.8937,-1632.57,-1890.99,-1954.90
19070,-3.8735,-0.1865,-0.8959,1226.81,1624.63,-1704.90
19080,-3.8735,-0.1907,-0.8966,133.06,1343.38,-1923.65
19090,-3.8735,-0.1906,-0.8977,-398.19,1249.57,1435.73
19100,-3.8735,-0.1862,-0.9004,-382.57,1108.95,607.60
19110,-3.8737,-0.1783,-0.9043,179.93,765.26,-220.52
19120,-3.8737,-0.1705,-0.9087,1179.93,265.26,-970.52
19130,-3.8737,-0.1658,-0.9119,-1820.07,-297.24,-1533.08
19140,-3.8737,-0.1635,-0.9153,-1210.69,-703.49,-1829.96
19150,-3.8737,-0.1616,-0.9161,-913.82,-1140.99,-1908.08
19160,-3.8737,-0.1599,-0.9128,-679.44,-1250.37,-1908.08
19170,-3.8737,-0.1553,-0.9104,-460.69,-828.49,1966.92
19180,-3.8737,-0.1462,-0.9105,133.06,-515.93,1591.92
19190,-3.8737,-0.1382,-0.9109,1289.31,-531.56,1279.42
19200,-3.8737,-0.1359,-0.9073,-1679.44,-578.43,1748.17
19210,-3.8737,-0.1372,-0.9031,-1382.57,-125.31,-1314.33
19220,-3.8737,-0.1409,-0.8998,-1554.44,421.57,-876.77
19230,-3.8737,-0.1476,-0.8964,1976.81,843.44,-939.27
19240,-3.8737,-0.1517,-0.8934,1117.43,1280.94,-1376.77
19250,-3.8737,-0.1495,-0.8937,586.18,1655.94,1841.98
19260,-3.8737,-0.1482,-0.8955,867.43,1624.69,1466.98
19270,-3.8737,-0.1550,-0.8937,1039.31,1390.32,-1704.90
19280,-3.8737,-0.1675,-0.8888,164.31,1624.69,-220.52
19290,-3.8735,-0.1792,-0.8872,-1429.44,-1750.37,732.60
19300,-3.8735,-0.1860,-0.8906,1070.56,-1547.24,998.23
19310,-3.8735,-0.1870,-0.8951,195.56,-1984.74,1060.73
19320,-3.8735,-0.1830,-0.8993,70.56,1437.13,966.98
19330,-3.8735,-0.1792,-0.9038,586.18,905.88,920.10
19340,-3.8735,-0.1819,-0.9078,1070.56,327.76,1310.73
19350,-3.8735,-0.1880,-0.9095,726.81,-187.87,-1986.21
19360,-3.8735,-0.1926,-0.9104,-54.44,-406.68,-1548.71
19370,-3.8735,-0.1948,-0.9116,-648.19,-516.05,-1845.58
19380,-3.8735,-0.1919,-0.9121,-929.44,-672.30,1326.29
19390,-3.8735,-0.1826,-0.9109,-554.44,-734.80,263.79
19400,-3.8737,-0.1714,-0.9084,633.06,-578.49,-767.46
19410,-3.8737,-0.1633,-0.9060,-1929.44,-265.99,-1439.33
19420,-3.8737,-0.1584,-0.9038,-898.19,46.51,-1767.40
19430,-3.8737,-0.1560,-0.9022,-273.19,327.76,-1970.52
19440,-3.8737,-0.1549,-0.9017,39.31,530.94,1873.23
19450,-3.8737,-0.1525,-0.9006,179.93,593.44,1795.10
19460,-3.8737,-0.1481,-0.9000,492.43,734.07,1904.48
19470,-3.8737,-0.1425,-0.9012,1054.93,812.19,-1595.52
19480,-3.8737,-0.1388,-0.9031,1773.68,655.94,-751.77
19490,-3.8735,-0.1385,-0.9042,-1757.57,421.57,170.10
19500,-3.8735,-0.1421,-0.9037,-1726.32,280.94,1013.85
19510,-3.8735,-0.1492,-0.9032,1820.56,343.44,1576.35
19520,-3.8735,-0.1577,-0.9028,914.31,405.94,1779.48
19530,-3.8735,-0.1661,-0.9011,-179.44,452.76,1732.60
19540,-3.8735,-0.1738,-0.8998,-1257.57,671.51,1435.73
19550,-3.8735,-0.1803,-0.8984,1758.06,843.38,920.10
19560,-3.8735,-0.1854,-0.8958,929.93,1015.26,373.23
19570,-3.8737,-0.1890,-0.8929,273.68,1359.01,-64.27
19580,-3.8737,-0.1913,-0.8925,-179.44,1718.32,-454.90
19590,-3.8737,-0.1923,-0.8947,-476.32,1780.82,-908.02
19600,-3.8737,-0.1903,-0.8970,-601.32,1499.57,-1251.77
19610,-3.8737,-0.1862,-0.8993,-351.32,1202.70,-1314.27
19620,-3.8737,-0.1812,-0.9030,179.93,905.88,-1048.65
19630,-3.8737,-0.1765,-0.9066,820.56,437.13,-517.40
19640,-3.8735,-0.1731,-0.9091,1414.31,-31.62,154.42
19650,-3.8735,-0.1705,-0.9105,1851.81,-344.12,888.79
19660,-3.8735,-0.1671,-0.9105,-1820.07,-531.62,1357.54
19670,-3.8735,-0.1624,-0.9089,-1382.57,-531.62,1216.92
19680,-3.8735,-0.1571,-0.9060,-773.19,-328.49,701.29
19690,-3.8737,-0.1512,-0.9026,-101.32,46.51,-79.90
19700,-3.8737,-0.1449,-0.8998,648.68,484.07,-1064.27
19710,-3.8737,-0.1405,-0.8966,1461.18,843.44,-1876.77
19720,-3.8737,-0.1403,-0.8922,-1976.32,1249.69,1732.60
19730,-3.8737,-0.1429,-0.8877,-1945.07,1812.19,1732.60
19740,-3.8737,-0.1466,-0.8857,1711.18,-1609.68,1732.60
19750,-3.8737,-0.1501,-0.8868,1242.43,-1359.68,1701.35
19760,-3.8737,-0.1530,-0.8906,789.31,-1500.31,1966.98
19770,-3.8737,-0.1560,-0.8966,429.93,-1984.68,-1329.90
19780,-3.8737,-0.1616,-0.9020,39.31,1249.69,-329.90
19790,-3.8735,-0.1708,-0.9059,-679.44,562.13,763.85
19800,-3.8735,-0.1801,-0.9094,-1851.32,62.13,1716.98
19810,-3.8735,-0.1869,-0.9125,961.18,-390.99,-1783.08
19820,-3.8735,-0.1919,-0.9139,86.18,-781.62,-1736.21
19830,-3.8735,-0.1948,-0.9125,-554.44,-969.18,1888.79
19840,-3.8735,-0.1952,-0.9098,-929.44,-781.68,1060.67
19850,-3.8737,-0.1941,-0.9065,-976.32,-437.93,-79.96
19860,-3.8737,-0.1923,-0.9020,-835.69,-16.05,-1158.08
19870,-3.8737,-0.1888,-0.8972,-601.32,562.07,1966.98
19880,-3.8737,-0.1831,-0.8934,-163.82,1171.45,1373.23
19890,-3.8737,-0.1761,-0.8911,570.56,1655.88,1388.85
19900,-3.8737,-0.1694,-0.8900,1461.18,1952.76,-1954.90
19910,-3.8737,-0.1635,-0.8910,-1679.44,-1906.62,-861.15
19920,-3.8735,-0.1598,-0.8937,-913.82,1968.38,357.60
19930,-3.8735,-0.1600,-0.8972,-445.07,1624.63,1388.85
19940,-3.8735,-0.1617,-0.8995,-476.32,1171.51,1810.73
19950,-3.8735,-0.1615,-0.9006,-695.07,874.63,1529.48
19960,-3.8735,-0.1599,-0.9009,-663.82,734.01,841.98
19970,-3.8735,-0.1576,-0.8993,-460.69,702.76,60.73
19980,-3.8737,-0.1556,-0.8966,-163.82,905.88,-564.27
19990,-3.8737,-0.1559,-0.8951,86.18,1249.69,-939.27
20000,-3.8737,-0.1583,-0.8960,54.93,1437.19,-1111.15
20010,-3.8737,-0.1625,-0.8988,-257.57,1327.76,-1158.02
20020,-3.8737,-0.1667,-0.9027,-788.82,968.38,-1048.65
20030,-3.8737,-0.1693,-0.9064,-1335.69,468.38,-829.90
20040,-3.8737,-0.1711,-0.9088,-1663.82,-0.37,-595.58
20050,-3.8737,-0.1726,-0.9097,-1898.19,-312.87,-408.08
20060,-3.8737,-0.1730,-0.9095,1914.31,-422.24,-267.46
20070,-3.8737,-0.1729,-0.9082,1867.43,-406.62,-64.33
20080,-3.8735,-0.1730,-0.9065,1883.06,-234.74,123.17
20090,-3.8735,-0.1724,-0.9048,1867.43,-15.99,388.79
20100,-3.8735,-0.1709,-0.9031,1945.56,202.76,638.85
20110,-3.8735,-0.1703,-0.9010,-1866.94,421.51,451.35
20120,-3.8737,-0.1705,-0.8994,-1788.82,687.13,-142.40
20130,-3.8737,-0.1702,-0.8982,-1820.07,890.26,-720.52
20140,-3.8737,-0.1687,-0.8973,-1773.19,1046.51,-1079.90
20150,-3.8737,-0.1675,-0.8953,-1585.69,1155.88,-1204.90
20160,-3.8737,-0.1677,-0.8923,-1429.44,1421.51,-1173.65
20170,-3.8737,-0.1693,-0.8912,-1460.69,1796.51,-1033.02
20180,-3.8737,-0.1709,-0.8917,-1663.82,1937.13,-829.90
20190,-3.8737,-0.1726,-0.8927,-1866.94,1874.63,-704.90
20200,-3.8737,-0.1744,-0.8950,1914.31,1749.63,-642.40
20210,-3.8737,-0.1750,-0.8987,1679.93,1452.76,-486.15
20220,-3.8737,-0.1759,-0.9019,1601.81,984.01,-220.52
20230,-3.8735,-0.1782,-0.9038,1492.43,577.76,91.98
20240,-3.8735,-0.1797,-0.9045,1195.56,327.76,310.73
20250,-3.8735,-0.1781,-0.9048,1008.06,234.01,388.85
20260,-3.8735,-0.1753,-0.9054,1211.18,202.76,513.85
20270,-3.8735,-0.1727,-0.9056,1570.56,124.63,576.35
20280,-3.8735,-0.1705,-0.9048,1898.68,93.38,435.73
20290,-3.8735,-0.1697,-0.9034,-1820.07,202.76,107.60
20300,-3.8737,-0.1702,-0.9021,-1710.69,374.63,-204.90
20310,-3.8737,-0.1700,-0.9012,-1773.19,546.51,-376.77
20320,-3.8737,-0.1694,-0.9006,-1757.57,655.88,-408.02
20330,-3.8737,-0.1682,-0.9003,-1679.44,734.01,-267.40
20340,-3.8737,-0.1669,-0.9008,-1523.19,780.88,-17.40
20350,-3.8735,-0.1661,-0.9017,-1351.32,718.38,201.35
20360,-3.8735,-0.1661,-0.9025,-1257.57,593.38,185.73
20370,-3.8737,-0.1678,-0.9020,-1257.57,499.63,-79.90
20380,-3.8737,-0.1704,-0.9000,-1476.32,562.13,-283.02
20390,-3.8737,-0.1724,-0.8978,-1804.44,812.13,-204.90
20400,-3.8737,-0.1737,-0.8964,1945.56,1093.38,-64.27
20410,-3.8735,-0.1742,-0.8960,1773.68,1280.88,13.85
20420,-3.8735,-0.1730,-0.8972,1711.18,1327.76,107.60
20430,-3.8735,-0.1705,-0.9000,1867.43,1171.51,107.60
20440,-3.8737,-0.1691,-0.9039,-1820.07,812.13,-1.77
20450,-3.8735,-0.1697,-0.9065,-1632.57,312.13,138.85
20460,-3.8735,-0.1722,-0.9064,-1710.69,-15.99,482.54
20470,-3.8735,-0.1755,-0.9043,1961.18,-0.37,498.17
20480,-3.8735,-0.1765,-0.9008,1539.31,265.26,123.23
20490,-3.8737,-0.1731,-0.8962,1414.31,718.38,-470.52
20500,-3.8737,-0.1670,-0.8933,1851.81,1296.51,-1329.90
20510,-3.8737,-0.1619,-0.8931,-1366.94,1671.51,1904.48
20520,-3.8737,-0.1598,-0.8947,-710.69,1702.76,1576.35
20530,-3.8737,-0.1613,-0.8969,-445.07,1499.63,1685.73
20540,-3.8737,-0.1637,-0.8989,-632.57,1218.38,-1876.77
20550,-3.8737,-0.1653,-0.9008,-945.07,952.76,-1408.02
20560,-3.8737,-0.1663,-0.9028,-1148.19,718.38,-1158.02
20570,-3.8737,-0.1664,-0.9041,-1273.19,452.76,-1079.90
20580,-3.8737,-0.1656,-0.9038,-1288.82,296.51,-1033.02
20590,-3.8737,-0.1639,-0.9034,-1195.07,327.76,-845.52
20600,-3.8737,-0.1626,-0.9037,-976.32,374.63,-595.52
20610,-3.8737,-0.1635,-0.9038,-804.44,343.38,-345.52
20620,-3.8737,-0.1675,-0.9025,-913.82,327.76,-95.52
20630,-3.8735,-0.1737,-0.9003,-1429.44,499.63,138.85
20640,-3.8735,-0.1796,-0.8972,1773.68,780.88,373.23
20650,-3.8735,-0.1832,-0.8943,1023.68,1171.51,560.73
20660,-3.8735,-0.1849,-0.8934,554.93,1546.51,748.23
20670,-3.8735,-0.1860,-0.8950,336.18,1655.88,873.23
20680,-3.8735,-0.1869,-0.8982,195.56,1452.76,951.35
20690,-3.8735,-0.1869,-0.9015,86.18,1046.51,1123.23
20700,-3.8735,-0.1855,-0.9037,86.18,624.63,1138.85
20710,-3.8735,-0.1840,-0.9052,258.06,343.38,935.73
20720,-3.8735,-0.1829,-0.9067,461.18,155.88,732.60
20730,-3.8735,-0.1819,-0.9067,601.81,-47.24,607.54
20740,-3.8735,-0.1802,-0.9049,726.81,-47.24,545.04
20750,-3.8735,-0.1781,-0.9033,945.56,187.13,310.73
20760,-3.8737,-0.1769,-0.9020,1211.18,390.26,-142.40
20770,-3.8737,-0.1738,-0.8995,1367.43,562.13,-814.27
20780,-3.8737,-0.1674,-0.8958,1758.06,874.63,-1501.77
20790,-3.8737,-0.1597,-0.8917,-1413.82,1359.01,-1814.27
20800,-3.8737,-0.1533,-0.8887,-429.44,1874.63,-1751.77
20810,-3.8737,-0.1505,-0.8870,383.06,-1734.68,-1533.02
20820,-3.8737,-0.1508,-0.8881,742.43,-1515.93,-1220.52
20830,-3.8737,-0.1533,-0.8931,711.18,-1656.56,-876.77
20840,-3.8737,-0.1575,-0.9000,383.06,1702.82,-611.15
20850,-3.8737,-0.1616,-0.9058,-148.19,812.13,-361.15
20860,-3.8737,-0.1660,-0.9092,-679.44,77.76,-64.27
20870,-3.8735,-0.1710,-0.9102,-1241.94,-359.74,201.29
20880,-3.8735,-0.1749,-0.9097,-1882.57,-484.74,232.54
20890,-3.8737,-0.1757,-0.9088,1617.43,-422.24,-33.08
20900,-3.8737,-0.1732,-0.9076,1523.68,-312.87,-361.21
20910,-3.8737,-0.1696,-0.9067,1836.18,-156.62,-704.96
20920,-3.8737,-0.1664,-0.9054,-1695.07,-47.24,-1017.46
20930,-3.8737,-0.1643,-0.9023,-1288.82,124.63,-1361.15
20940,-3.8737,-0.1636,-0.8979,-1023.19,515.26,-1642.40
20950,-3.8737,-0.1639,-0.8950,-929.44,1077.76,-1814.27
20960,-3.8737,-0.1654,-0.8931,-976.32,1452.76,-1954.90
20970,-3.8737,-0.1675,-0.8925,-1163.82,1702.76,1951.35
20980,-3.8737,-0.1680,-0.8936,-1429.44,1780.88,1841.98
20990,-3.8737,-0.1663,-0.8949,-1491.94,1640.26,1841.98
21000,-3.8737,-0.1636,-0.8944,-1273.19,1468.38,-1876.77
21010,-3.8737,-0.1628,-0.8926,-929.44,1530.88,-1470.52
21020,-3.8737,-0.1646,-0.8925,-835.69,1765.26,-1001.77
21030,-3.8737,-0.1670,-0.8948,-1054.44,1780.88,-454.90
21040,-3.8735,-0.1694,-0.8994,-1366.94,1484.01,123.23
21050,-3.8735,-0.1707,-0.9058,-1679.44,890.26,685.73
21060,-3.8735,-0.1710,-0.9125,-1835.69,77.76,1091.98
21070,-3.8735,-0.1726,-0.9175,-1882.57,-781.62,1310.67
21080,-3.8735,-0.1759,-0.9193,1914.31,-1422.24,1341.92
21090,-3.8735,-0.1799,-0.9188,1492.43,-1656.62,1263.79
21100,-3.8735,-0.1832,-0.9177,976.81,-1594.12,1091.92
21110,-3.8735,-0.1842,-0.9165,554.93,-1453.49,670.04
21120,-3.8737,-0.1824,-0.9142,429.93,-1297.24,-95.58
21130,-3.8737,-0.1794,-0.9097,664.31,-1000.37,-970.58
21140,-3.8737,-0.1774,-0.9038,1039.31,-422.24,-1673.71
21150,-3.8737,-0.1768,-0.8979,1304.93,327.76,1998.23
21160,-3.8737,-0.1791,-0.8921,1383.06,1077.76,1998.23
21170,-3.8737,-0.1823,-0.8862,1086.18,1827.76,-1767.40
21180,-3.8737,-0.1826,-0.8818,679.93,-1422.24,-1345.52
21190,-3.8737,-0.1798,-0.8809,633.06,-859.74,-814.27
21200,-3.8737,-0.1750,-0.8844,992.43,-734.74,-95.52
21210,-3.8735,-0.1707,-0.8905,1601.81,-1187.87,888.85
21220,-3.8735,-0.1687,-0.8969,-1835.69,-1969.12,1998.23
21230,-3.8735,-0.1688,-0.9026,-1585.69,1218.38,-1048.65
21240,-3.8735,-0.1709,-0.9070,-1601.32,484.01,-533.02
21250,-3.8735,-0.1741,-0.9099,-1866.94,-78.49,-548.71
21260,-3.8735,-0.1750,-0.9113,1726.81,-453.49,-986.21
21270,-3.8735,-0.1731,-0.9111,1601.81,-625.37,-1798.71
21280,-3.8735,-0.1698,-0.9099,1851.81,-609.74,904.42
21290,-3.8737,-0.1659,-0.9064,-1726.32,-453.49,-704.96
21300,-3.8737,-0.1626,-0.9020,-1226.32,-0.37,1810.67
21310,-3.8737,-0.1599,-0.8990,-804.44,562.13,607.60
21320,-3.8738,-0.1572,-0.8977,-460.69,937.13,-361.15
21330,-3.8738,-0.1528,-0.8964,-116.94,1109.01,-1142.40
21340,-3.8738,-0.1460,-0.8948,445.56,1280.94,-1486.15
21350,-3.8738,-0.1384,-0.8932,1320.56,1484.07,-1298.65
21360,-3.8738,-0.1324,-0.8923,-1710.69,1687.19,-720.52
21370,-3.8737,-0.1301,-0.8943,-945.07,1796.57,185.73
21380,-3.8737,-0.1310,-0.8986,-648.19,1546.57,1388.85
21390,-3.8737,-0.1354,-0.9026,-757.57,999.69,-1126.77
21400,-3.8735,-0.1436,-0.9062,-1320.07,484.07,498.23
21410,-3.8735,-0.1534,-0.9104,1633.06,15.32,-1986.15
21420,-3.8735,-0.1637,-0.9136,367.43,-515.93,-939.33
21430,-3.8735,-0.1722,-0.9143,-945.07,-922.24,-501.83
21440,-3.8735,-0.1793,-0.9130,1961.18,-1015.99,-454.96
21450,-3.8735,-0.1838,-0.9094,1054.93,-844.12,-1017.46
21460,-3.8735,-0.1849,-0.9058,476.81,-390.99,1685.67
21470,-3.8735,-0.1853,-0.9025,336.18,77.76,216.98
21480,-3.8737,-0.1881,-0.8995,289.31,499.63,-845.52
21490,-3.8737,-0.1937,-0.8976,-70.07,874.57,-1517.40
21500,-3.8737,-0.2002,-0.8966,-788.82,1124.57,-1876.77
21510,-3.8737,-0.2045,-0.8955,-1616.94,1249.57,-1908.02
21520,-3.8737,-0.2056,-0.8955,1836.18,1390.20,-1673.65
21530,-3.8737,-0.2037,-0.8965,1695.56,1390.20,-1283.02
21540,-3.8737,-0.1993,-0.8976,1929.93,1265.20,-595.52
21550,-3.8735,-0.1940,-0.8983,-1507.57,1124.57,341.98
21560,-3.8735,-0.1891,-0.8986,-820.07,1030.82,1279.48
21570,-3.8735,-0.1858,-0.8986,-195.07,999.57,-1876.77
21580,-3.8735,-0.1830,-0.8990,226.81,999.63,-1314.27
21590,-3.8735,-0.1785,-0.8998,586.18,937.13,-1220.52
21600,-3.8735,-0.1731,-0.9006,1164.31,843.38,-1454.90
21610,-3.8735,-0.1686,-0.9019,1851.81,734.01,-1673.65
21620,-3.8735,-0.1652,-0.9012,-1570.07,577.76,-1845.52
21630,-3.8735,-0.1633,-0.8983,-1132.57,655.88,1716.98
21640,-3.8735,-0.1627,-0.8944,-898.19,1030.88,920.10
21650,-3.8737,-0.1614,-0.8916,-820.07,1530.88,-236.15
21660,-3.8737,-0.1571,-0.8911,-648.19,1890.26,-1689.27
21670,-3.8737,-0.1501,-0.8925,-101.32,1952.76,748.23
21680,-3.8738,-0.1440,-0.8949,789.31,1780.94,-658.02
21690,-3.8738,-0.1411,-0.8976,1570.56,1468.44,-1579.90
21700,-3.8738,-0.1409,-0.9004,1945.56,1124.69,-1798.65
21710,-3.8738,-0.1426,-0.9030,1976.81,765.32,-1189.27
21720,-3.8737,-0.1453,-0.9044,1758.06,437.19,45.10
21730,-3.8737,-0.1479,-0.9048,1414.31,249.69,1466.98
21740,-3.8737,-0.1514,-0.9052,1070.56,202.82,-1236.15
21750,-3.8737,-0.1545,-0.9054,633.06,155.94,-48.65
21760,-3.8735,-0.1572,-0.9066,226.81,124.69,1248.23
21770,-3.8735,-0.1603,-0.9098,-116.94,-31.62,-1642.46
21780,-3.8735,-0.1648,-0.9131,-507.57,-437.87,-986.21
21790,-3.8735,-0.1729,-0.9139,-1085.69,-859.74,-751.83
21800,-3.8735,-0.1836,-0.9117,1883.06,-969.12,-1001.83
21810,-3.8735,-0.1946,-0.9073,508.06,-687.87,-1626.83
21820,-3.8735,-0.2029,-0.9019,-898.19,-125.43,1420.04
21830,-3.8735,-0.2063,-0.8951,-1960.69,577.70,279.48
21840,-3.8737,-0.2046,-0.8876,1601.81,1437.07,-720.52
21850,-3.8737,-0.1996,-0.8820,1820.56,-1594.18,-1486.15
21860,-3.8737,-0.1926,-0.8822,-1538.82,-875.43,-1954.90
21870,-3.8737,-0.1858,-0.8878,-648.19,-906.68,1966.98
21880,-3.8737,-0.1810,-0.8953,226.81,-1625.37,-1611.15
21890,-3.8737,-0.1777,-0.9016,836.18,1421.51,-970.52
21900,-3.8737,-0.1744,-0.9064,1258.06,609.01,-423.65
21910,-3.8737,-0.1696,-0.9108,1679.93,-0.37,-142.46
21920,-3.8737,-0.1619,-0.9126,-1695.07,-562.87,-1.83
21930,-3.8735,-0.1544,-0.9110,-710.69,-797.24,201.29
21940,-3.8735,-0.1495,-0.9075,242.43,-594.06,279.42
21950,-3.8735,-0.1478,-0.9038,867.43,-140.93,138.79
21960,-3.8737,-0.1488,-0.9008,1086.18,327.82,-64.27
21970,-3.8737,-0.1523,-0.8961,961.18,718.44,-314.27
21980,-3.8737,-0.1581,-0.8916,508.06,1312.19,-486.15
21990,-3.8737,-0.1626,-0.8915,-226.32,1890.26,-486.15
22000,-3.8737,-0.1633,-0.8932,-804.44,1905.88,-704.90
22010,-3.8737,-0.1616,-0.8942,-898.19,1687.13,-1439.27
22020,-3.8737,-0.1588,-0.8976,-679.44,1562.13,1732.60
22030,-3.8737,-0.1584,-0.9025,-320.07,1124.63,1373.23
22040,-3.8737,-0.1631,-0.9058,-273.19,499.63,1685.73
22050,-3.8737,-0.1719,-0.9061,-866.94,77.76,-1501.77
22060,-3.8737,-0.1812,-0.9043,-1991.94,30.88,-564.27
22070,-3.8735,-0.1873,-0.9031,820.56,265.26,60.73
22080,-3.8735,-0.1876,-0.9032,39.31,421.51,279.48
22090,-3.8735,-0.1819,-0.9031,-7.57,405.82,435.73
22100,-3.8735,-0.1740,-0.9032,726.81,421.51,638.85
22110,-3.8735,-0.1689,-0.9037,1742.43,405.88,763.85
22120,-3.8735,-0.1692,-0.9037,-1616.94,343.38,951.35
22130,-3.8735,-0.1742,-0.9032,-1648.19,343.38,1185.73
22140,-3.8735,-0.1797,-0.9019,1711.18,405.88,1435.73
22150,-3.8735,-0.1825,-0.8998,1008.06,577.76,1873.23
22160,-3.8735,-0.1820,-0.8981,648.68,843.38,-1939.27
22170,-3.8735,-0.1801,-0.8961,711.18,1062.13,1654.48
22180,-3.8735,-0.1792,-0.8940,961.18,1312.13,904.48
22190,-3.8735,-0.1798,-0.8945,1070.56,1577.76,60.73
22200,-3.8737,-0.1809,-0.8961,992.43,1515.26,-720.52
22210,-3.8737,-0.1814,-0.8938,851.81,1312.13,-1564.27
22220,-3.8737,-0.1815,-0.8890,789.31,1609.01,1748.23
22230,-3.8737,-0.1805,-0.8854,773.68,-1781.62,1513.85
22240,-3.8737,-0.1766,-0.8840,898.68,-1312.87,1685.73
22250,-3.8737,-0.1718,-0.8848,1398.68,-1140.99,-1876.77
22260,-3.8737,-0.1687,-0.8864,-1976.32,-1234.74,-1298.65
22270,-3.8737,-0.1669,-0.8888,-1585.69,-1437.87,-736.15
22280,-3.8737,-0.1653,-0.8926,-1351.32,-1750.37,-204.90
22290,-3.8735,-0.1650,-0.8954,-1148.19,1765.26,279.48
22300,-3.8735,-0.1664,-0.8965,-1116.94,1405.88,607.60
22310,-3.8735,-0.1678,-0.8984,-1288.82,1265.26,873.23
22320,-3.8735,-0.1685,-0.9009,-1476.32,1015.26,1029.48
22330,-3.8735,-0.1691,-0.9025,-1554.44,702.76,998.23
22340,-3.8735,-0.1694,-0.9028,-1632.57,499.63,935.73
22350,-3.8735,-0.1686,-0.9020,-1679.44,452.76,982.60
22360,-3.8735,-0.1666,-0.9017,-1570.07,562.13,1076.35
22370,-3.8735,-0.1669,-0.9031,-1320.07,593.38,1076.35
22380,-3.8735,-0.1710,-0.9022,-1351.32,421.51,873.23
22390,-3.8735,-0.1775,-0.8986,-1882.57,530.88,779.48
22400,-3.8735,-0.1833,-0.8947,1289.31,999.63,779.48
22410,-3.8735,-0.1862,-0.8918,539.31,1499.63,670.10
22420,-3.8735,-0.1859,-0.8903,179.93,1859.01,576.35
22430,-3.8735,-0.1831,-0.8909,211.18,-1937.87,482.60
22440,-3.8735,-0.1790,-0.8944,570.56,1984.01,154.48
22450,-3.8737,-0.1763,-0.8987,1101.81,1530.88,-1.77
22460,-3.8735,-0.1760,-0.9023,1445.56,984.01,310.73
22470,-3.8735,-0.1775,-0.9054,1476.81,515.26,795.10
22480,-3.8735,-0.1794,-0.9083,1289.31,124.63,1060.73
22490,-3.8735,-0.1797,-0.9113,1039.31,-250.37,1060.67
22500,-3.8735,-0.1765,-0.9131,1008.06,-625.37,1029.42
