timestamp_ms,ax,ay,az,gx,gy,gz
0,-3.8730,-0.1046,-0.8507,-1491.94,-703.37,-1048.58
10,-3.8730,-0.1041,-0.8514,-1382.57,-875.24,-579.83
20,-3.8730,-0.1055,-0.8528,-1320.07,-968.99,-64.21
30,-3.8729,-0.1085,-0.8539,-1491.94,-1140.87,248.29
40,-3.8729,-0.1118,-0.8542,-1882.57,-1281.49,201.42
50,-3.8730,-0.1134,-0.8538,1695.56,-1328.37,-220.46
60,-3.8730,-0.1119,-0.8525,1492.43,-1265.87,-1064.21
70,-3.8730,-0.1078,-0.8505,1679.93,-1109.62,1732.67
80,-3.8730,-0.1014,-0.8472,-1788.82,-843.99,420.17
90,-3.8732,-0.0931,-0.8423,-976.32,-422.12,-673.58
100,-3.8732,-0.0845,-0.8369,86.18,202.94,-1376.65
110,-3.8732,-0.0793,-0.8326,1195.56,890.44,-1579.77
120,-3.8732,-0.0767,-0.8334,1851.81,1437.32,-1173.52
130,-3.8732,-0.0715,-0.8383,-1804.44,1343.57,-782.90
140,-3.8732,-0.0652,-0.8400,-1148.19,718.57,-1017.27
150,-3.8732,-0.0629,-0.8383,-335.69,499.82,-1454.77
160,-3.8732,-0.0673,-0.8379,-38.82,718.57,-1564.15
170,-3.8732,-0.0769,-0.8408,-601.32,765.44,-1079.77
180,-3.8732,-0.0883,-0.8436,-1835.69,390.44,-282.90
190,-3.8730,-0.0991,-0.8451,711.18,31.07,263.98
200,-3.8730,-0.1078,-0.8461,-679.44,-156.49,607.67
210,-3.8730,-0.1123,-0.8467,-1788.82,-281.49,951.42
220,-3.8730,-0.1128,-0.8479,1633.06,-359.62,1467.04
230,-3.8730,-0.1116,-0.8499,1570.56,-515.87,1982.67
240,-3.8730,-0.1093,-0.8522,1726.81,-765.87,-1579.83
250,-3.8730,-0.1053,-0.8550,-1976.32,-1062.74,-1189.21
260,-3.8730,-0.1018,-0.8568,-1476.32,-1422.12,-907.96
270,-3.8730,-0.0995,-0.8556,-1023.19,-1656.49,-626.71
280,-3.8730,-0.0989,-0.8525,-726.32,-1500.24,-501.71
290,-3.8730,-0.1001,-0.8500,-648.19,-1109.62,-642.33
300,-3.8730,-0.1030,-0.8473,-804.44,-781.49,-1064.21
310,-3.8730,-0.1064,-0.8430,-1179.44,-437.74,-1736.08
320,-3.8730,-0.1084,-0.8375,-1616.94,109.13,1513.98
330,-3.8730,-0.1079,-0.8328,-1866.94,812.26,857.73
340,-3.8730,-0.1042,-0.8279,-1804.44,1421.63,451.48
350,-3.8730,-0.0991,-0.8232,-1335.69,-1953.37,248.35
360,-3.8730,-0.0966,-0.8226,-679.44,-1359.62,310.85
370,-3.8730,-0.0985,-0.8271,-351.32,-1281.49,717.10
380,-3.8730,-0.1049,-0.8335,-601.32,-1859.62,1498.35
390,-3.8730,-0.1143,-0.8402,-1413.82,1327.88,-1517.27
400,-3.8730,-0.1224,-0.8475,1383.06,468.51,-720.40
410,-3.8730,-0.1267,-0.8539,336.18,-468.99,-392.33
420,-3.8730,-0.1267,-0.8579,-210.69,-1281.56,-501.71
430,-3.8730,-0.1227,-0.8593,-210.69,-1797.18,-782.96
440,-3.8730,-0.1146,-0.8577,304.93,-1968.99,-1111.08
450,-3.8730,-0.1042,-0.8533,1336.18,-1765.87,-1486.08
460,-3.8730,-0.0957,-0.8490,-1335.69,-1203.37,-1923.58
470,-3.8730,-0.0917,-0.8473,-241.94,-656.49,1763.92
480,-3.8730,-0.0927,-0.8475,273.68,-437.68,1701.42
490,-3.8730,-0.0977,-0.8477,148.68,-468.93,1685.79
500,-3.8730,-0.1033,-0.8480,-491.94,-484.62,1638.92
510,-3.8730,-0.1073,-0.8486,-1210.69,-531.49,1513.92
520,-3.8730,-0.1096,-0.8486,-1726.32,-609.62,1357.67
530,-3.8730,-0.1082,-0.8478,1976.81,-609.62,1232.67
540,-3.8730,-0.1027,-0.8468,-1835.69,-500.24,1013.92
550,-3.8730,-0.0951,-0.8462,-1132.57,-375.24,795.17
560,-3.8730,-0.0889,-0.8468,-163.82,-297.12,560.79
570,-3.8730,-0.0876,-0.8485,633.06,-375.18,467.04
580,-3.8730,-0.0918,-0.8489,789.31,-593.93,779.54
590,-3.8730,-0.0983,-0.8475,258.06,-640.81,1185.79
600,-3.8730,-0.1046,-0.8456,-570.07,-468.99,1248.29
610,-3.8730,-0.1084,-0.8440,-1382.57,-218.99,982.67
620,-3.8730,-0.1085,-0.8434,-1866.94,-15.87,638.92
630,-3.8730,-0.1056,-0.8419,-1882.57,62.26,435.85
640,-3.8730,-0.1016,-0.8400,-1507.57,249.76,560.85
650,-3.8730,-0.0985,-0.8419,-991.94,499.76,904.60
660,-3.8730,-0.0972,-0.8470,-601.32,249.76,1107.73
670,-3.8730,-0.0985,-0.8510,-429.44,-406.49,1107.67
680,-3.8730,-0.1021,-0.8523,-601.32,-906.49,1060.79
690,-3.8730,-0.1068,-0.8519,-1054.44,-1078.37,1217.04
700,-3.8730,-0.1113,-0.8502,-1663.82,-1031.49,1654.54
710,-3.8730,-0.1140,-0.8473,1758.06,-812.74,-1954.83
720,-3.8730,-0.1138,-0.8440,1414.31,-437.74,-1954.83
730,-3.8730,-0.1099,-0.8417,1445.56,-15.87,1810.79
740,-3.8730,-0.1044,-0.8407,1945.56,281.01,1451.48
750,-3.8730,-0.0996,-0.8406,-1351.32,406.01,998.35
760,-3.8730,-0.0964,-0.8411,-741.94,421.63,513.98
770,-3.8730,-0.0958,-0.8413,-335.69,359.13,76.48
780,-3.8732,-0.0984,-0.8417,-257.57,327.88,-95.40
790,-3.8730,-0.1029,-0.8424,-585.69,281.01,107.73
800,-3.8730,-0.1066,-0.8431,-1163.82,187.26,685.85
810,-3.8730,-0.1079,-0.8436,-1632.57,93.51,1451.48
820,-3.8730,-0.1074,-0.8444,-1804.44,31.01,1920.23
830,-3.8730,-0.1072,-0.8452,-1741.94,-62.74,-1736.08
840,-3.8730,-0.1093,-0.8450,-1710.69,-172.12,-1204.83
850,-3.8730,-0.1154,-0.8434,-1976.32,-140.87,-642.33
860,-3.8729,-0.1256,-0.8409,1242.43,62.26,13.98
870,-3.8729,-0.1365,-0.8380,-70.07,374.69,748.35
880,-3.8729,-0.1445,-0.8358,-1460.69,749.69,1201.48
890,-3.8729,-0.1471,-0.8362,1508.06,1030.94,1326.48
900,-3.8729,-0.1421,-0.8390,1179.93,984.07,1185.85
910,-3.8729,-0.1312,-0.8434,1820.56,624.69,623.35
920,-3.8730,-0.1176,-0.8477,-788.82,62.19,-298.52
930,-3.8730,-0.1052,-0.8496,961.18,-484.62,-1173.58
940,-3.8730,-0.0975,-0.8492,-1460.69,-734.62,-1782.96
950,-3.8730,-0.0952,-0.8472,-476.32,-687.74,1873.29
960,-3.8730,-0.0957,-0.8444,-179.44,-422.12,1685.79
970,-3.8730,-0.0955,-0.8419,-241.94,-62.74,1420.17
980,-3.8730,-0.0945,-0.8407,-210.69,249.76,998.35
990,-3.8730,-0.0931,-0.8407,-85.69,406.01,388.98
1000,-3.8732,-0.0913,-0.8411,86.18,406.07,-345.40
1010,-3.8732,-0.0897,-0.8412,320.56,359.19,-892.27
1020,-3.8732,-0.0892,-0.8411,523.68,343.57,-1251.65
1030,-3.8732,-0.0886,-0.8412,586.18,359.19,-1548.52
1040,-3.8732,-0.0874,-0.8414,664.31,343.57,-1532.90
1050,-3.8732,-0.0870,-0.8419,820.56,312.32,-1157.90
1060,-3.8732,-0.0879,-0.8441,867.43,249.82,-486.02
1070,-3.8730,-0.0898,-0.8473,758.06,-31.43,357.67
1080,-3.8730,-0.0925,-0.8506,508.06,-437.68,1123.29
1090,-3.8730,-0.0962,-0.8542,164.31,-859.56,1638.92
1100,-3.8730,-0.1014,-0.8568,-304.44,-1328.37,1920.17
1110,-3.8730,-0.1083,-0.8567,-976.32,-1656.49,-1923.58
1120,-3.8730,-0.1135,-0.8553,-1851.32,-1640.87,-1986.08
1130,-3.8730,-0.1140,-0.8539,1476.81,-1468.99,1685.79
1140,-3.8730,-0.1090,-0.8513,1414.31,-1281.49,1373.29
1150,-3.8730,-0.1006,-0.8486,-1945.07,-953.37,1217.04
1160,-3.8730,-0.0922,-0.8470,-866.94,-609.62,1060.79
1170,-3.8730,-0.0872,-0.8459,211.18,-406.43,795.17
1180,-3.8730,-0.0869,-0.8451,851.81,-265.81,654.54
1190,-3.8730,-0.0905,-0.8447,883.06,-156.43,638.92
1200,-3.8730,-0.0951,-0.8445,429.93,-109.56,576.42
1210,-3.8730,-0.0980,-0.8438,-163.82,-78.37,529.54
1220,-3.8730,-0.0990,-0.8435,-538.82,15.38,576.48
1230,-3.8730,-0.0992,-0.8439,-663.82,46.63,732.73
1240,-3.8730,-0.0994,-0.8435,-695.07,-0.24,888.92
1250,-3.8730,-0.1006,-0.8435,-710.69,46.63,1029.60
1260,-3.8730,-0.1034,-0.8441,-866.94,46.63,1185.85
1270,-3.8730,-0.1064,-0.8441,-1226.32,-31.49,1498.29
1280,-3.8730,-0.1086,-0.8431,-1616.94,-31.49,1951.42
1290,-3.8730,-0.1100,-0.8429,-1898.19,93.51,-1736.02
1300,-3.8730,-0.1100,-0.8446,1929.93,124.76,-1642.27
1310,-3.8730,-0.1093,-0.8470,1929.93,-93.99,-1626.71
1320,-3.8730,-0.1084,-0.8481,-1976.32,-406.49,-1564.21
1330,-3.8730,-0.1071,-0.8477,-1866.94,-547.12,-1486.08
1340,-3.8730,-0.1062,-0.8461,-1695.07,-484.62,-1579.83
1350,-3.8730,-0.1061,-0.8433,-1585.69,-281.49,-1782.96
1360,-3.8730,-0.1071,-0.8406,-1570.07,77.88,1967.10
1370,-3.8730,-0.1078,-0.8384,-1695.07,421.63,1545.23
1380,-3.8730,-0.1079,-0.8362,-1788.82,702.88,1107.73
1390,-3.8730,-0.1072,-0.8352,-1804.44,984.13,920.23
1400,-3.8730,-0.1053,-0.8373,-1710.69,1109.13,1060.85
1410,-3.8730,-0.1028,-0.8411,-1476.32,843.51,1295.23
1420,-3.8730,-0.1010,-0.8444,-1148.19,359.13,1560.85
1430,-3.8730,-0.1014,-0.8474,-913.82,-62.74,-1986.08
1440,-3.8730,-0.1034,-0.8506,-976.32,-453.37,-1501.71
1450,-3.8730,-0.1062,-0.8525,-1226.32,-859.62,-1189.21
1460,-3.8730,-0.1083,-0.8524,-1585.69,-1109.62,-1204.83
1470,-3.8730,-0.1086,-0.8512,-1851.32,-1093.99,-1423.58
1480,-3.8730,-0.1082,-0.8494,-1898.19,-937.74,-1564.21
1490,-3.8730,-0.1072,-0.8468,-1835.69,-703.37,-1751.71
1500,-3.8730,-0.1060,-0.8424,-1710.69,-375.24,-1986.08
1510,-3.8730,-0.1053,-0.8381,-1554.44,187.26,1810.85
1520,-3.8730,-0.1056,-0.8359,-1476.32,734.13,1685.85
1530,-3.8730,-0.1061,-0.8362,-1507.57,1015.38,1685.85
1540,-3.8730,-0.1056,-0.8384,-1570.07,984.13,1607.73
1550,-3.8730,-0.1035,-0.8409,-1507.57,702.88,1451.48
1560,-3.8730,-0.1000,-0.8422,-1241.94,374.76,1342.10
1570,-3.8730,-0.0968,-0.8419,-788.82,218.51,1373.35
1580,-3.8730,-0.0953,-0.8419,-382.57,249.76,1732.73
1590,-3.8730,-0.0966,-0.8429,-195.07,249.76,-1657.90
1600,-3.8730,-0.1008,-0.8453,-351.32,124.76,-954.77
1610,-3.8730,-0.1067,-0.8483,-898.19,-187.74,-298.58
1620,-3.8730,-0.1128,-0.8517,-1648.19,-562.74,-79.83
1630,-3.8730,-0.1163,-0.8545,1570.56,-1000.24,-361.08
1640,-3.8730,-0.1157,-0.8555,1117.43,-1359.62,-845.46
1650,-3.8730,-0.1108,-0.8546,1195.56,-1484.62,-1532.96
1660,-3.8730,-0.1016,-0.8518,1820.56,-1375.24,1607.67
1670,-3.8730,-0.0894,-0.8475,-991.94,-1015.87,857.67
1680,-3.8730,-0.0787,-0.8440,570.56,-468.93,373.29
1690,-3.8730,-0.0732,-0.8419,1929.93,-15.81,138.92
1700,-3.8732,-0.0723,-0.8419,-1366.94,249.82,-17.27
1710,-3.8732,-0.0746,-0.8427,-1241.94,249.82,-204.77
1720,-3.8732,-0.0792,-0.8416,-1538.82,156.07,-361.02
1730,-3.8732,-0.0841,-0.8396,1867.43,296.69,-657.90
1740,-3.8732,-0.0863,-0.8375,1242.43,546.69,-1032.90
1750,-3.8732,-0.0862,-0.8362,961.18,812.32,-1204.77
1760,-3.8732,-0.0846,-0.8351,976.81,984.19,-1048.52
1770,-3.8732,-0.0836,-0.8347,1179.93,1124.82,-407.90
1780,-3.8730,-0.0867,-0.8359,1304.93,1171.69,670.23
1790,-3.8730,-0.0939,-0.8390,914.31,1015.44,1888.98
1800,-3.8730,-0.1025,-0.8429,-7.57,624.76,-1001.65
1810,-3.8730,-0.1105,-0.8474,-1116.94,124.76,-64.15
1820,-3.8729,-0.1163,-0.8513,1867.43,-453.37,513.92
1830,-3.8729,-0.1191,-0.8519,1117.43,-953.37,748.29
1840,-3.8729,-0.1177,-0.8500,758.06,-1031.49,670.17
1850,-3.8729,-0.1121,-0.8481,945.56,-781.49,482.67
1860,-3.8729,-0.1042,-0.8483,1664.31,-547.12,357.67
1870,-3.8729,-0.0963,-0.8484,-1335.69,-562.74,170.17
1880,-3.8730,-0.0914,-0.8466,-320.07,-578.37,-314.21
1890,-3.8730,-0.0906,-0.8436,304.93,-343.93,-1064.21
1900,-3.8730,-0.0907,-0.8413,414.31,31.07,-1907.90
1910,-3.8730,-0.0901,-0.8395,398.68,327.94,1342.10
1920,-3.8730,-0.0880,-0.8370,476.81,562.32,873.35
1930,-3.8730,-0.0833,-0.8342,742.43,874.82,560.85
1940,-3.8730,-0.0768,-0.8330,1351.81,1234.19,388.98
1950,-3.8730,-0.0720,-0.8344,-1820.07,1390.44,248.35
1960,-3.8730,-0.0730,-0.8375,-1210.69,1218.57,279.60
1970,-3.8730,-0.0796,-0.8409,-1335.69,812.32,513.98
1980,-3.8730,-0.0890,-0.8436,1820.56,374.82,779.60
1990,-3.8730,-0.0983,-0.8456,617.43,31.07,779.60
2000,-3.8730,-0.1014,-0.8486,-570.07,-218.99,467.04
2010,-3.8730,-0.0962,-0.8519,-976.32,-609.62,138.92
2020,-3.8730,-0.0864,-0.8533,-304.44,-1031.49,138.92
2030,-3.8730,-0.0780,-0.8522,945.56,-1203.31,529.54
2040,-3.8730,-0.0737,-0.8491,-1976.32,-1062.68,951.42
2050,-3.8730,-0.0731,-0.8462,-1429.44,-672.06,920.17
2060,-3.8730,-0.0768,-0.8450,-1351.32,-297.06,592.04
2070,-3.8730,-0.0850,-0.8446,-1820.07,-140.81,388.92
2080,-3.8730,-0.0945,-0.8439,1133.06,-93.93,482.67
2090,-3.8730,-0.1025,-0.8439,-85.69,-0.24,1013.92
2100,-3.8730,-0.1080,-0.8448,-1116.94,-0.24,1607.67
2110,-3.8730,-0.1097,-0.8451,-1820.07,-125.24,1998.29
2120,-3.8730,-0.1074,-0.8435,1961.18,-156.49,-1845.46
2130,-3.8730,-0.1040,-0.8412,-1741.94,46.63,-1829.77
2140,-3.8730,-0.1033,-0.8402,-1304.44,343.51,-1798.52
2150,-3.8730,-0.1049,-0.8403,-1210.69,468.51,-1611.02
2160,-3.8730,-0.1071,-0.8408,-1413.82,452.88,-1329.77
2170,-3.8730,-0.1101,-0.8418,-1695.07,390.38,-1126.65
2180,-3.8730,-0.1141,-0.8427,1914.31,265.38,-1079.77
2190,-3.8730,-0.1161,-0.8413,1398.68,156.01,-1095.40
2200,-3.8730,-0.1149,-0.8398,1148.68,327.88,-1064.15
2210,-3.8730,-0.1136,-0.8412,1304.93,515.38,-782.90
2220,-3.8730,-0.1133,-0.8438,1461.18,343.51,-345.40
2230,-3.8729,-0.1125,-0.8458,1508.06,15.38,13.98
2240,-3.8729,-0.1130,-0.8495,1601.81,-250.24,92.04
2250,-3.8730,-0.1139,-0.8551,1539.31,-718.99,-95.46
2260,-3.8730,-0.1123,-0.8588,1429.93,-1437.74,-314.21
2270,-3.8730,-0.1089,-0.8607,1633.06,-1906.49,-486.08
2280,-3.8730,-0.1067,-0.8636,-1929.44,1843.51,-673.58
2290,-3.8730,-0.1062,-0.8676,-1648.19,1468.51,-829.83
2300,-3.8730,-0.1068,-0.8701,-1585.69,968.51,-954.83
2310,-3.8730,-0.1083,-0.8691,-1663.82,640.38,-1173.58
2320,-3.8730,-0.1075,-0.8621,-1851.32,765.38,-1486.08
2330,-3.8730,-0.0996,-0.8539,-1757.57,1671.63,1810.79
2340,-3.8730,-0.0881,-0.8459,-741.94,-1281.49,717.04
2350,-3.8732,-0.0791,-0.8348,726.81,-265.81,-361.08
2360,-3.8732,-0.0691,-0.8243,1883.06,1156.07,-1501.65
2370,-3.8732,-0.0597,-0.8208,-835.69,-1500.18,1373.35
2380,-3.8732,-0.0582,-0.8231,367.43,-1047.00,842.10
2390,-3.8732,-0.0648,-0.8225,554.93,-1343.87,1185.85
2400,-3.8732,-0.0746,-0.8207,-288.82,-1265.81,1873.35
2410,-3.8732,-0.0859,-0.8251,-1538.82,-1031.43,-1517.27
2420,-3.8732,-0.0985,-0.8326,1008.06,-1593.93,-751.65
2430,-3.8730,-0.1093,-0.8378,-601.32,1437.26,513.98
2440,-3.8730,-0.1161,-0.8435,-1976.32,781.01,1998.35
2450,-3.8730,-0.1201,-0.8503,1148.68,46.63,-689.15
2460,-3.8729,-0.1223,-0.8550,633.06,-828.37,373.29
2470,-3.8729,-0.1199,-0.8557,351.81,-1422.12,967.04
2480,-3.8729,-0.1138,-0.8552,664.31,-1515.87,842.04
2490,-3.8729,-0.1080,-0.8555,1445.56,-1453.37,107.67
2500,-3.8730,-0.1017,-0.8544,-1820.07,-1484.62,-798.58
2510,-3.8730,-0.0955,-0.8528,-1007.57,-1343.99,-1595.46
2520,-3.8730,-0.0934,-0.8538,-210.69,-1140.87,1654.54
2530,-3.8730,-0.0928,-0.8540,54.93,-1265.81,920.17
2540,-3.8730,-0.0894,-0.8511,133.06,-1297.06,138.92
2550,-3.8732,-0.0846,-0.8505,570.56,-922.06,-720.46
2560,-3.8732,-0.0793,-0.8527,1179.93,-843.93,-1579.83
2570,-3.8732,-0.0736,-0.8524,1851.81,-1125.18,1795.17
2580,-3.8732,-0.0696,-0.8507,-1413.82,-1093.93,1404.54
2590,-3.8732,-0.0695,-0.8494,-898.19,-875.18,1232.67
2600,-3.8732,-0.0732,-0.8481,-882.57,-703.31,1513.92
2610,-3.8732,-0.0791,-0.8472,-1366.94,-547.06,-1673.58
2620,-3.8732,-0.0865,-0.8477,1883.06,-422.06,-611.08
2630,-3.8730,-0.0950,-0.8497,929.93,-484.56,357.67
2640,-3.8730,-0.1016,-0.8525,-148.19,-750.24,1170.17
2650,-3.8730,-0.1058,-0.8555,-991.94,-1109.62,1717.04
2660,-3.8730,-0.1090,-0.8585,-1538.82,-1484.62,-1829.83
2670,-3.8730,-0.1117,-0.8602,-1945.07,-1875.24,-1345.46
2680,-3.8730,-0.1130,-0.8594,1711.18,1906.01,-923.58
2690,-3.8730,-0.1130,-0.8574,1539.31,-1984.62,-657.96
2700,-3.8730,-0.1125,-0.8544,1539.31,-1734.62,-642.33
2710,-3.8730,-0.1106,-0.8502,1601.81,-1343.99,-814.21
2720,-3.8730,-0.1066,-0.8470,1851.81,-812.74,-1251.71
2730,-3.8730,-0.1023,-0.8457,-1632.57,-406.49,-1970.46
2740,-3.8730,-0.0992,-0.8450,-1085.69,-234.62,1357.67
2750,-3.8730,-0.0981,-0.8444,-695.07,-140.87,982.67
2760,-3.8730,-0.0975,-0.8452,-554.44,-62.74,826.42
2770,-3.8730,-0.0955,-0.8467,-476.32,-172.12,1107.67
2780,-3.8730,-0.0925,-0.8457,-210.69,-359.62,1857.67
2790,-3.8730,-0.0909,-0.8429,164.31,-234.56,-1392.33
2800,-3.8730,-0.0919,-0.8428,367.43,124.82,-1189.15
2810,-3.8730,-0.0953,-0.8422,242.43,140.44,-1782.90
2820,-3.8730,-0.1014,-0.8372,-195.07,218.51,1373.35
2830,-3.8730,-0.1099,-0.8323,-976.32,859.13,1013.98
2840,-3.8730,-0.1174,-0.8302,1945.56,1484.13,1170.23
2850,-3.8730,-0.1210,-0.8314,976.81,1749.76,1310.85
2860,-3.8730,-0.1212,-0.8407,523.68,1593.51,1310.85
2870,-3.8730,-0.1173,-0.8464,492.43,406.01,1529.60
2880,-3.8730,-0.1128,-0.8302,992.43,-328.37,-1845.46
2890,-3.8730,-0.1122,-0.8181,1570.56,1749.76,-1142.27
2900,-3.8730,-0.1100,-0.8314,1648.68,-703.37,-939.15
2910,-3.8730,-0.1053,-0.8457,1929.93,1593.51,-1157.90
2920,-3.8730,-0.1034,-0.8447,-1476.32,-234.62,-1017.33
2930,-3.8730,-0.1046,-0.8391,-1226.32,-109.62,-517.33
2940,-3.8730,-0.1050,-0.8385,-1382.57,609.13,-361.02
2950,-3.8730,-0.1027,-0.8401,-1429.44,687.26,-689.15
2960,-3.8730,-0.1003,-0.8396,-1132.57,484.13,-1048.52
2970,-3.8730,-0.1016,-0.8379,-835.69,546.63,-1111.02
2980,-3.8730,-0.1055,-0.8375,-991.94,765.38,-1298.52
2990,-3.8730,-0.1085,-0.8378,-1491.94,812.26,-1673.52
3000,-3.8730,-0.1093,-0.8383,-1882.57,781.01,-1876.65
3010,-3.8730,-0.1074,-0.8401,-1976.32,718.51,-1907.90
3020,-3.8730,-0.1031,-0.8430,-1741.94,484.13,-1845.40
3030,-3.8730,-0.0988,-0.8439,-1195.07,109.13,-1642.27
3040,-3.8730,-0.0961,-0.8422,-632.57,-0.24,-1361.08
3050,-3.8730,-0.0961,-0.8401,-288.82,218.51,-1079.77
3060,-3.8730,-0.0988,-0.8389,-288.82,484.13,-939.15
3070,-3.8730,-0.1022,-0.8386,-632.57,640.38,-1017.27
3080,-3.8730,-0.1044,-0.8378,-1070.07,671.63,-1236.02
3090,-3.8730,-0.1052,-0.8351,-1351.32,781.01,-1517.27
3100,-3.8730,-0.1045,-0.8328,-1460.69,1124.76,-1751.65
3110,-3.8730,-0.1024,-0.8335,-1366.94,1421.63,1998.35
3120,-3.8730,-0.0997,-0.8373,-1101.32,1327.88,1623.35
3130,-3.8730,-0.0969,-0.8406,-757.57,843.51,1373.35
3140,-3.8730,-0.0952,-0.8424,-398.19,421.63,1576.48
3150,-3.8730,-0.0950,-0.8434,-179.44,187.26,-1986.02
3160,-3.8730,-0.0955,-0.8439,-148.19,62.26,-1548.52
3170,-3.8730,-0.0963,-0.8442,-210.69,-0.24,-1173.58
3180,-3.8730,-0.0970,-0.8448,-320.07,-47.12,-1048.58
3190,-3.8730,-0.0975,-0.8453,-413.82,-125.24,-1236.08
3200,-3.8730,-0.0988,-0.8442,-476.32,-187.74,-1517.33
3210,-3.8730,-0.1008,-0.8423,-632.57,-47.12,-1595.46
3220,-3.8730,-0.1029,-0.8409,-898.19,202.88,-1501.65
3230,-3.8730,-0.1035,-0.8412,-1163.82,374.76,-1361.02
3240,-3.8730,-0.1029,-0.8418,-1241.94,343.51,-1345.40
3250,-3.8730,-0.1024,-0.8413,-1163.82,265.38,-1314.15
3260,-3.8730,-0.1007,-0.8403,-1101.32,327.88,-1251.65
3270,-3.8730,-0.0972,-0.8398,-882.57,452.88,-1454.77
3280,-3.8730,-0.0935,-0.8395,-429.44,515.38,-1845.40
3290,-3.8730,-0.0916,-0.8390,39.31,562.32,1967.10
3300,-3.8730,-0.0912,-0.8389,289.31,624.82,-1892.27
3310,-3.8730,-0.0935,-0.8386,336.18,640.44,-1579.77
3320,-3.8730,-0.0981,-0.8389,39.31,671.69,-1282.90
3330,-3.8730,-0.1023,-0.8392,-554.44,640.38,-1095.40
3340,-3.8730,-0.1057,-0.8400,-1085.69,593.51,-1048.52
3350,-3.8730,-0.1075,-0.8420,-1523.19,499.76,-1079.77
3360,-3.8730,-0.1061,-0.8439,-1757.57,234.13,-1048.52
3370,-3.8730,-0.1018,-0.8453,-1570.07,-0.24,-1048.58
3380,-3.8730,-0.0973,-0.8462,-1023.19,-187.74,-1095.46
3390,-3.8730,-0.0951,-0.8461,-445.07,-297.12,-1017.33
3400,-3.8730,-0.0953,-0.8444,-163.82,-281.49,-986.08
3410,-3.8730,-0.0958,-0.8419,-195.07,-62.74,-1220.46
3420,-3.8730,-0.0958,-0.8402,-257.57,249.76,-1548.52
3430,-3.8730,-0.0962,-0.8378,-257.57,468.51,-1782.90
3440,-3.8730,-0.0969,-0.8347,-304.44,781.01,-1986.02
3450,-3.8730,-0.0974,-0.8330,-398.19,1171.63,1748.35
3460,-3.8730,-0.0969,-0.8330,-460.69,1390.38,1545.23
3470,-3.8730,-0.0950,-0.8346,-398.19,1390.38,1513.98
3480,-3.8730,-0.0934,-0.8372,-148.19,1187.26,1685.85
3490,-3.8730,-0.0944,-0.8401,54.93,859.19,1998.35
3500,-3.8730,-0.0970,-0.8431,-70.07,484.13,-1673.52
3510,-3.8730,-0.1001,-0.8451,-413.82,93.51,-1282.90
3520,-3.8730,-0.1027,-0.8455,-804.44,-156.49,-782.96
3530,-3.8730,-0.1045,-0.8450,-1132.57,-203.37,-361.08
3540,-3.8730,-0.1053,-0.8436,-1366.94,-140.87,-142.33
3550,-3.8730,-0.1046,-0.8414,-1476.32,31.01,-282.90
3560,-3.8730,-0.1014,-0.8389,-1382.57,312.26,-814.15
3570,-3.8730,-0.0983,-0.8367,-976.32,640.38,-1439.15
3580,-3.8730,-0.0969,-0.8358,-570.07,921.63,-1798.52
3590,-3.8730,-0.0961,-0.8368,-398.19,1031.01,-1907.90
3600,-3.8730,-0.0948,-0.8390,-288.82,906.01,-1876.65
3610,-3.8730,-0.0941,-0.8406,-132.57,624.76,-1767.27
3620,-3.8730,-0.0951,-0.8418,-38.82,421.63,-1486.02
3630,-3.8730,-0.0988,-0.8423,-163.82,265.38,-1017.27
3640,-3.8730,-0.1030,-0.8412,-632.57,202.88,-611.02
3650,-3.8730,-0.1057,-0.8394,-1179.44,343.51,-376.65
3660,-3.8730,-0.1061,-0.8381,-1523.19,577.88,-392.27
3670,-3.8730,-0.1045,-0.8384,-1570.07,734.13,-564.15
3680,-3.8730,-0.1022,-0.8395,-1366.94,702.88,-704.77
3690,-3.8730,-0.1003,-0.8398,-1070.07,562.26,-798.52
3700,-3.8730,-0.0989,-0.8390,-835.69,515.38,-939.15
3710,-3.8730,-0.0970,-0.8384,-648.19,624.76,-1251.65
3720,-3.8730,-0.0950,-0.8387,-413.82,702.88,-1626.65
3730,-3.8730,-0.0939,-0.8383,-148.19,656.01,-1814.15
3740,-3.8730,-0.0935,-0.8373,-7.57,718.51,-1736.02
3750,-3.8730,-0.0930,-0.8372,39.31,843.57,-1579.77
3760,-3.8730,-0.0924,-0.8370,101.81,859.19,-1532.90
3770,-3.8730,-0.0934,-0.8363,179.93,874.82,-1548.52
3780,-3.8730,-0.0962,-0.8368,54.93,968.57,-1548.52
3790,-3.8730,-0.0978,-0.8386,-304.44,906.01,-1548.52
3800,-3.8730,-0.0977,-0.8406,-507.57,671.63,-1532.90
3810,-3.8730,-0.0968,-0.8430,-491.94,421.63,-1407.90
3820,-3.8730,-0.0955,-0.8457,-382.57,109.13,-1173.52
3830,-3.8730,-0.0930,-0.8484,-210.69,-234.62,-954.83
3840,-3.8730,-0.0902,-0.8501,101.81,-578.31,-814.21
3850,-3.8730,-0.0896,-0.8492,461.18,-797.06,-798.58
3860,-3.8730,-0.0924,-0.8462,539.31,-687.68,-704.83
3870,-3.8730,-0.0966,-0.8431,179.93,-297.06,-564.21
3880,-3.8730,-0.0995,-0.8416,-351.32,93.51,-736.02
3890,-3.8730,-0.0997,-0.8395,-726.32,296.63,-1220.40
3900,-3.8730,-0.0970,-0.8351,-757.57,562.26,-1720.40
3910,-3.8730,-0.0933,-0.8308,-413.82,1124.76,1967.10
3920,-3.8730,-0.0894,-0.8292,70.56,1671.69,1873.35
3930,-3.8730,-0.0858,-0.8301,570.56,1874.82,1857.73
3940,-3.8730,-0.0847,-0.8326,1023.68,1765.44,1842.10
3950,-3.8730,-0.0872,-0.8356,1164.31,1437.32,1998.35
3960,-3.8730,-0.0916,-0.8383,851.81,1062.32,-1564.15
3970,-3.8730,-0.0953,-0.8405,289.31,718.57,-986.02
3980,-3.8730,-0.0973,-0.8425,-195.07,437.26,-439.15
3990,-3.8730,-0.0972,-0.8447,-445.07,171.63,-64.15
4000,-3.8729,-0.0962,-0.8456,-429.44,-109.62,45.17
4010,-3.8730,-0.0945,-0.8451,-304.44,-218.99,-95.46
4020,-3.8730,-0.0931,-0.8441,-85.69,-156.49,-392.33
4030,-3.8730,-0.0934,-0.8425,86.18,-31.43,-798.58
4040,-3.8730,-0.0940,-0.8408,54.93,171.69,-1251.65
4050,-3.8730,-0.0945,-0.8390,-23.19,390.38,-1595.40
4060,-3.8730,-0.0941,-0.8372,-85.69,624.76,-1720.40
4070,-3.8730,-0.0918,-0.8356,-38.82,859.13,-1564.15
4080,-3.8730,-0.0875,-0.8358,258.06,1062.32,-1454.77
4090,-3.8730,-0.0833,-0.8375,804.93,1031.07,-1673.52
4100,-3.8730,-0.0812,-0.8398,1351.81,812.32,-1845.40
4110,-3.8730,-0.0819,-0.8423,1617.43,515.44,-1673.52
4120,-3.8730,-0.0844,-0.8441,1523.68,202.94,-1267.27
4130,-3.8730,-0.0874,-0.8453,1211.18,-31.43,-798.58
4140,-3.8730,-0.0916,-0.8459,820.56,-187.68,-439.21
4150,-3.8730,-0.0951,-0.8459,289.31,-265.81,-345.46
4160,-3.8730,-0.0964,-0.8440,-163.82,-265.87,-486.08
4170,-3.8730,-0.0957,-0.8408,-335.69,-15.87,-673.58
4180,-3.8730,-0.0934,-0.8386,-241.94,390.38,-876.65
4190,-3.8730,-0.0906,-0.8370,54.93,671.69,-1267.27
4200,-3.8730,-0.0875,-0.8365,414.31,874.82,-1626.65
4210,-3.8730,-0.0854,-0.8375,804.93,937.32,-1829.77
4220,-3.8730,-0.0845,-0.8390,1070.56,812.32,-1829.77
4230,-3.8730,-0.0848,-0.8400,1195.56,624.82,-1564.15
4240,-3.8730,-0.0870,-0.8400,1148.68,499.82,-1236.02
4250,-3.8730,-0.0887,-0.8396,867.43,499.82,-954.77
4260,-3.8730,-0.0889,-0.8394,648.68,546.69,-782.90
4270,-3.8730,-0.0878,-0.8380,633.06,577.94,-907.90
4280,-3.8730,-0.0869,-0.8367,773.68,749.82,-1251.65
4290,-3.8730,-0.0872,-0.8370,883.06,921.69,-1517.27
4300,-3.8730,-0.0887,-0.8383,851.81,874.82,-1564.15
4310,-3.8730,-0.0912,-0.8402,648.68,718.57,-1423.52
4320,-3.8730,-0.0930,-0.8419,336.18,468.57,-1111.02
4330,-3.8730,-0.0938,-0.8424,101.81,249.82,-876.65
4340,-3.8730,-0.0938,-0.8412,8.06,187.32,-767.27
4350,-3.8730,-0.0928,-0.8390,8.06,343.57,-642.27
4360,-3.8730,-0.0908,-0.8379,133.06,624.82,-532.90
4370,-3.8730,-0.0887,-0.8376,383.06,765.44,-532.90
4380,-3.8730,-0.0878,-0.8383,648.68,796.69,-501.65
4390,-3.8730,-0.0885,-0.8390,773.68,718.57,-548.52
4400,-3.8730,-0.0903,-0.8398,679.93,624.82,-657.90
4410,-3.8730,-0.0919,-0.8405,445.56,515.44,-751.65
4420,-3.8730,-0.0933,-0.8402,242.43,437.32,-798.52
4430,-3.8730,-0.0935,-0.8390,70.56,468.57,-798.52
4440,-3.8730,-0.0911,-0.8376,39.31,624.82,-782.90
4450,-3.8730,-0.0874,-0.8367,351.81,796.69,-845.40
4460,-3.8730,-0.0848,-0.8367,820.56,921.69,-970.40
4470,-3.8730,-0.0844,-0.8376,1148.68,921.69,-1173.52
4480,-3.8730,-0.0864,-0.8383,1211.18,796.69,-1361.02
4490,-3.8730,-0.0894,-0.8380,945.56,718.57,-1454.77
4500,-3.8730,-0.0905,-0.8378,570.56,749.82,-1376.65
4510,-3.8730,-0.0898,-0.8378,429.93,781.07,-1189.15
4520,-3.8730,-0.0889,-0.8378,508.06,781.07,-970.40
4530,-3.8730,-0.0891,-0.8387,633.06,781.07,-736.02
4540,-3.8730,-0.0897,-0.8403,601.81,656.07,-501.65
4550,-3.8730,-0.0905,-0.8408,523.68,452.94,-329.77
4560,-3.8730,-0.0923,-0.8406,429.93,390.44,-251.65
4570,-3.8730,-0.0939,-0.8405,195.56,421.69,-220.40
4580,-3.8730,-0.0936,-0.8407,-7.57,437.26,-314.15
4590,-3.8730,-0.0918,-0.8397,23.68,406.07,-470.40
4600,-3.8730,-0.0900,-0.8379,258.06,531.07,-642.27
4610,-3.8730,-0.0887,-0.8369,492.43,765.44,-892.27
4620,-3.8730,-0.0874,-0.8369,648.68,890.44,-1173.52
4630,-3.8730,-0.0861,-0.8368,820.56,890.44,-1251.65
4640,-3.8730,-0.0851,-0.8369,992.43,906.07,-1173.52
4650,-3.8730,-0.0846,-0.8383,1117.43,890.44,-1064.15
4660,-3.8730,-0.0851,-0.8402,1179.93,718.57,-845.40
4670,-3.8730,-0.0858,-0.8419,1117.43,468.57,-657.90
4680,-3.8730,-0.0865,-0.8429,1023.68,249.82,-579.77
4690,-3.8730,-0.0886,-0.8434,929.93,124.82,-595.40
4700,-3.8730,-0.0919,-0.8442,664.31,62.32,-517.27
4710,-3.8730,-0.0945,-0.8436,242.43,-47.06,-314.21
4720,-3.8730,-0.0951,-0.8411,-85.69,31.01,-345.40
4730,-3.8730,-0.0935,-0.8378,-163.82,359.13,-657.90
4740,-3.8730,-0.0892,-0.8351,39.31,781.07,-1142.27
4750,-3.8730,-0.0834,-0.8336,586.18,1124.82,-1673.52
4760,-3.8730,-0.0792,-0.8346,1336.18,1312.32,1873.35
4770,-3.8730,-0.0787,-0.8372,1867.43,1187.32,1576.48
4780,-3.8730,-0.0806,-0.8386,1929.93,859.19,1732.73
4790,-3.8730,-0.0826,-0.8395,1695.56,671.69,-1548.52
4800,-3.8730,-0.0837,-0.8403,1429.93,562.32,-736.02
4810,-3.8730,-0.0846,-0.8408,1289.31,452.94,-345.40
4820,-3.8730,-0.0864,-0.8403,1179.93,390.44,-407.90
4830,-3.8730,-0.0885,-0.8394,945.56,452.94,-736.02
4840,-3.8730,-0.0902,-0.8387,679.93,577.94,-986.02
4850,-3.8730,-0.0913,-0.8387,461.18,656.07,-1001.65
4860,-3.8730,-0.0909,-0.8398,320.56,656.07,-954.77
4870,-3.8730,-0.0892,-0.8418,367.43,515.44,-782.90
4880,-3.8730,-0.0870,-0.8431,586.18,265.44,-564.15
4890,-3.8730,-0.0851,-0.8430,867.43,93.57,-517.27
4900,-3.8730,-0.0844,-0.8424,1117.43,109.19,-595.40
4910,-3.8730,-0.0845,-0.8418,1211.18,187.32,-704.77
4920,-3.8730,-0.0840,-0.8406,1195.56,265.44,-970.40
4930,-3.8730,-0.0830,-0.8381,1258.06,421.69,-1314.15
4940,-3.8730,-0.0812,-0.8359,1383.06,734.19,-1642.27
4950,-3.8730,-0.0795,-0.8354,1617.43,1015.44,-1829.77
4960,-3.8730,-0.0798,-0.8364,1836.18,1077.94,-1798.52
4970,-3.8730,-0.0824,-0.8373,1789.31,952.94,-1486.02
4980,-3.8730,-0.0864,-0.8374,1461.18,843.57,-970.40
4990,-3.8730,-0.0897,-0.8380,945.56,827.94,-611.02
5000,-3.8730,-0.0913,-0.8389,523.68,749.82,-486.02
5010,-3.8730,-0.0911,-0.8394,320.56,640.44,-454.77
5020,-3.8730,-0.0890,-0.8395,351.81,577.94,-532.90
5030,-3.8730,-0.0861,-0.8405,617.43,562.32,-814.15
5040,-3.8730,-0.0839,-0.8418,992.43,437.32,-1111.02
5050,-3.8730,-0.0833,-0.8419,1273.68,265.44,-1204.77
5060,-3.8730,-0.0844,-0.8408,1351.81,249.82,-1095.40
5070,-3.8730,-0.0858,-0.8396,1211.18,390.44,-907.90
5080,-3.8730,-0.0869,-0.8387,1023.68,546.69,-704.77
5090,-3.8730,-0.0873,-0.8379,883.06,656.07,-532.90
5100,-3.8730,-0.0869,-0.8373,836.18,765.44,-595.40
5110,-3.8730,-0.0862,-0.8381,883.06,843.57,-829.77
5120,-3.8730,-0.0867,-0.8398,976.81,734.19,-1079.77
5130,-3.8730,-0.0886,-0.8408,914.31,515.44,-1204.77
5140,-3.8730,-0.0907,-0.8413,664.31,390.44,-1251.65
5150,-3.8730,-0.0913,-0.8422,398.68,327.94,-1220.40
5160,-3.8730,-0.0900,-0.8427,320.56,218.57,-1032.90
5170,-3.8730,-0.0872,-0.8422,492.43,156.07,-814.15
5180,-3.8730,-0.0846,-0.8412,851.81,218.57,-657.90
5190,-3.8730,-0.0831,-0.8400,1179.93,343.57,-689.15
5200,-3.8730,-0.0836,-0.8392,1367.43,499.82,-954.77
5210,-3.8730,-0.0857,-0.8387,1304.93,593.57,-1267.27
5220,-3.8730,-0.0878,-0.8386,1039.31,656.07,-1376.65
5230,-3.8730,-0.0887,-0.8396,773.68,671.69,-1236.02
5240,-3.8730,-0.0884,-0.8407,648.68,546.69,-1095.40
5250,-3.8730,-0.0873,-0.8403,695.56,406.07,-1001.65
5260,-3.8730,-0.0869,-0.8396,836.18,452.94,-923.52
5270,-3.8730,-0.0876,-0.8398,883.06,546.69,-954.77
5280,-3.8730,-0.0883,-0.8400,789.31,515.44,-1048.52
5290,-3.8730,-0.0890,-0.8401,711.18,499.82,-1111.02
5300,-3.8730,-0.0892,-0.8413,617.43,484.19,-986.02
5310,-3.8730,-0.0886,-0.8422,586.18,327.94,-782.90
5320,-3.8730,-0.0874,-0.8419,664.31,218.57,-720.40
5330,-3.8730,-0.0856,-0.8412,820.56,249.82,-798.52
5340,-3.8730,-0.0837,-0.8408,1054.93,343.57,-923.52
5350,-3.8730,-0.0831,-0.8402,1289.31,390.44,-1095.40
5360,-3.8730,-0.0837,-0.8391,1367.43,468.57,-1361.02
5370,-3.8730,-0.0851,-0.8383,1289.31,609.19,-1611.02
5380,-3.8730,-0.0876,-0.8378,1117.43,718.57,-1798.52
5390,-3.8730,-0.0906,-0.8381,789.31,781.07,-1798.52
5400,-3.8730,-0.0924,-0.8391,414.31,734.19,-1595.40
5410,-3.8730,-0.0922,-0.8403,179.93,609.19,-1361.02
5420,-3.8730,-0.0909,-0.8423,211.18,452.94,-1095.40
5430,-3.8730,-0.0892,-0.8434,367.43,202.94,-814.15
5440,-3.8730,-0.0883,-0.8428,586.18,62.32,-611.02
5450,-3.8730,-0.0885,-0.8427,711.18,140.44,-501.65
5460,-3.8730,-0.0896,-0.8419,679.93,156.07,-532.90
5470,-3.8730,-0.0911,-0.8398,539.31,249.82,-579.77
5480,-3.8730,-0.0925,-0.8398,351.81,515.44,-704.77
5490,-3.8730,-0.0925,-0.8423,164.31,515.44,-1032.90
5500,-3.8730,-0.0908,-0.8444,164.31,202.94,-1376.65
5510,-3.8730,-0.0892,-0.8436,383.06,-62.68,-1501.71
5520,-3.8730,-0.0887,-0.8402,586.18,31.07,-1361.02
5530,-3.8730,-0.0897,-0.8370,648.68,468.57,-1220.40
5540,-3.8730,-0.0913,-0.8361,523.68,874.82,-1236.02
5550,-3.8730,-0.0913,-0.8376,320.56,999.82,-1423.52
5560,-3.8730,-0.0898,-0.8390,320.56,796.69,-1689.15
5570,-3.8730,-0.0881,-0.8381,508.06,624.82,-1892.27
5580,-3.8730,-0.0861,-0.8372,726.81,734.19,-1892.27
5590,-3.8730,-0.0850,-0.8372,992.43,859.19,-1798.52
5600,-3.8730,-0.0853,-0.8397,1133.06,859.19,-1798.52
5610,-3.8730,-0.0865,-0.8431,1086.18,531.07,-1798.52
5620,-3.8730,-0.0880,-0.8448,929.93,93.57,-1626.65
5630,-3.8730,-0.0896,-0.8452,742.43,-125.18,-1282.96
5640,-3.8730,-0.0911,-0.8450,539.31,-172.06,-986.08
5650,-3.8730,-0.0918,-0.8444,351.81,-140.81,-892.33
5660,-3.8730,-0.0914,-0.8444,258.06,-62.68,-1001.71
5670,-3.8730,-0.0909,-0.8444,304.93,-62.68,-1204.83
5680,-3.8730,-0.0911,-0.8439,367.43,-62.68,-1361.08
5690,-3.8730,-0.0923,-0.8433,351.81,-0.18,-1439.21
5700,-3.8730,-0.0944,-0.8422,195.56,77.94,-1423.52
5710,-3.8730,-0.0948,-0.8400,-70.07,218.51,-1407.90
5720,-3.8730,-0.0933,-0.8378,-132.57,499.76,-1329.77
5730,-3.8730,-0.0916,-0.8369,70.56,781.07,-1361.02
5740,-3.8730,-0.0896,-0.8380,289.31,890.44,-1532.90
5750,-3.8730,-0.0879,-0.8397,539.31,749.82,-1720.40
5760,-3.8730,-0.0875,-0.8409,758.06,531.07,-1892.27
5770,-3.8730,-0.0897,-0.8416,804.93,374.82,-1736.02
5780,-3.8730,-0.0942,-0.8416,523.68,296.69,-1282.90
5790,-3.8730,-0.0975,-0.8413,-54.44,296.63,-767.27
5800,-3.8730,-0.0988,-0.8412,-476.32,327.88,-376.65
5810,-3.8730,-0.0990,-0.8417,-632.57,343.51,-329.77
5820,-3.8730,-0.0990,-0.8427,-663.82,281.01,-595.40
5830,-3.8730,-0.0991,-0.8433,-663.82,156.01,-782.90
5840,-3.8730,-0.0992,-0.8424,-679.44,77.88,-689.15
5850,-3.8730,-0.0992,-0.8408,-695.07,187.26,-470.40
5860,-3.8730,-0.0985,-0.8397,-695.07,390.38,-407.90
5870,-3.8730,-0.0972,-0.8390,-601.32,531.01,-642.27
5880,-3.8730,-0.0956,-0.8389,-429.44,624.76,-1064.15
5890,-3.8730,-0.0939,-0.8395,-226.32,640.38,-1439.15
5900,-3.8730,-0.0929,-0.8401,-7.57,562.26,-1501.65
5910,-3.8730,-0.0924,-0.8400,117.43,484.19,-1282.90
5920,-3.8730,-0.0928,-0.8402,179.93,499.82,-1017.27
5930,-3.8730,-0.0936,-0.8408,133.06,468.57,-923.52
5940,-3.8730,-0.0936,-0.8414,23.68,390.44,-1111.02
5950,-3.8730,-0.0924,-0.8420,23.68,312.32,-1392.27
5960,-3.8730,-0.0909,-0.8417,179.93,234.19,-1579.77
5970,-3.8730,-0.0903,-0.8402,367.43,281.07,-1689.15
5980,-3.8730,-0.0905,-0.8395,445.56,468.57,-1689.15
5990,-3.8730,-0.0908,-0.8392,429.93,562.32,-1657.90
6000,-3.8730,-0.0908,-0.8390,383.06,593.57,-1611.02
6010,-3.8730,-0.0912,-0.8395,383.06,624.82,-1595.40
6020,-3.8730,-0.0919,-0.8401,336.18,562.32,-1673.52
6030,-3.8730,-0.0920,-0.8402,242.43,484.19,-1689.15
6040,-3.8730,-0.0923,-0.8402,226.81,468.57,-1548.52
6050,-3.8730,-0.0923,-0.8402,195.56,468.57,-1361.02
6060,-3.8730,-0.0918,-0.8400,195.56,468.57,-1173.52
6070,-3.8730,-0.0920,-0.8398,258.06,499.82,-986.02
6080,-3.8730,-0.0934,-0.8405,226.81,515.44,-704.77
6090,-3.8730,-0.0952,-0.8412,54.93,437.32,-439.15
6100,-3.8730,-0.0974,-0.8412,-179.44,343.51,-361.02
6110,-3.8730,-0.0989,-0.8397,-460.69,343.51,-392.27
6120,-3.8730,-0.0995,-0.8381,-648.19,531.01,-407.90
6130,-3.8730,-0.0994,-0.8365,-726.32,734.13,-345.40
6140,-3.8730,-0.0978,-0.8354,-710.69,937.26,-329.77
6150,-3.8730,-0.0957,-0.8364,-507.57,1077.88,-407.90
6160,-3.8730,-0.0940,-0.8375,-241.94,952.88,-532.90
6170,-3.8730,-0.0933,-0.8378,-23.19,812.26,-704.77
6180,-3.8730,-0.0934,-0.8381,70.56,781.07,-845.40
6190,-3.8730,-0.0925,-0.8390,54.93,734.19,-892.27
6200,-3.8730,-0.0897,-0.8405,164.31,624.82,-876.65
6210,-3.8730,-0.0857,-0.8405,523.68,437.32,-814.15
6220,-3.8730,-0.0829,-0.8385,1039.31,437.32,-736.02
6230,-3.8730,-0.0836,-0.8369,1398.68,687.32,-720.40
6240,-3.8730,-0.0875,-0.8359,1304.93,890.44,-845.40
6250,-3.8730,-0.0916,-0.8358,804.93,1015.44,-1126.65
6260,-3.8730,-0.0939,-0.8358,289.31,1031.07,-1439.15
6270,-3.8730,-0.0929,-0.8358,-7.57,1031.01,-1657.90
6280,-3.8730,-0.0889,-0.8359,117.43,1031.07,-1798.52
6290,-3.8730,-0.0846,-0.8357,633.06,1015.44,-1954.77
6300,-3.8730,-0.0824,-0.8347,1179.93,1046.69,1998.35
6310,-3.8730,-0.0837,-0.8345,1461.18,1171.69,-1736.02
6320,-3.8730,-0.0869,-0.8344,1289.31,1202.94,-1439.15
6330,-3.8730,-0.0900,-0.8340,883.06,1218.57,-1314.15
6340,-3.8730,-0.0927,-0.8380,492.43,1265.44,-1157.90
6350,-3.8730,-0.0947,-0.8514,148.68,749.82,-923.52
6360,-3.8730,-0.0963,-0.8562,-116.94,-968.99,-642.33
6370,-3.8729,-0.0996,-0.8489,-320.07,-1578.37,326.42
6380,-3.8729,-0.1007,-0.8372,-741.94,-640.87,592.04
6390,-3.8729,-0.0977,-0.8253,-882.57,859.13,45.23
6400,-3.8729,-0.0940,-0.8242,-491.94,-1625.24,560.85
6410,-3.8729,-0.0912,-0.8344,-23.19,-1484.62,982.73
6420,-3.8729,-0.0898,-0.8414,336.18,1218.57,638.98
6430,-3.8729,-0.0898,-0.8389,508.06,312.32,545.23
6440,-3.8729,-0.0911,-0.8401,508.06,640.44,826.48
6450,-3.8729,-0.0923,-0.8412,351.81,484.19,888.98
6460,-3.8729,-0.0941,-0.8333,195.56,343.57,607.73
6470,-3.8729,-0.0977,-0.8234,-38.82,1359.13,326.48
6480,-3.8729,-0.1006,-0.8214,-491.94,-1375.24,201.48
6490,-3.8729,-0.1018,-0.8251,-866.94,-1125.24,45.23
6500,-3.8730,-0.1021,-0.8268,-1023.19,-1593.99,-79.77
6510,-3.8730,-0.1010,-0.8239,-1054.44,-1812.74,-126.65
6520,-3.8730,-0.0986,-0.8195,-913.82,-1437.74,-220.40
6530,-3.8730,-0.0950,-0.8169,-616.94,-875.24,-486.02
6540,-3.8730,-0.0913,-0.8173,-148.19,-547.12,-720.40
6550,-3.8730,-0.0887,-0.8208,320.56,-593.93,-579.77
6560,-3.8730,-0.0890,-0.8242,648.68,-1047.06,-95.40
6570,-3.8729,-0.0923,-0.8252,617.43,-1484.56,529.60
6580,-3.8729,-0.0967,-0.8260,195.56,-1609.56,1201.48
6590,-3.8729,-0.1003,-0.8275,-366.94,-1718.99,1842.10
6600,-3.8729,-0.1041,-0.8290,-835.69,-1906.49,-1736.02
6610,-3.8729,-0.1073,-0.8313,-1320.07,1906.01,-1486.02
6620,-3.8729,-0.1102,-0.8339,-1726.32,1609.13,-1267.27
6630,-3.8729,-0.1149,-0.8339,1898.68,1281.01,-986.02
6640,-3.8729,-0.1187,-0.8329,1304.93,1281.01,-814.15
6650,-3.8729,-0.1190,-0.8322,820.56,1406.01,-986.02
6660,-3.8729,-0.1155,-0.8302,773.68,1499.76,-1361.02
6670,-3.8729,-0.1093,-0.8269,1226.81,1749.76,-1767.27
6680,-3.8729,-0.1023,-0.8239,-1976.32,-1828.37,1795.23
6690,-3.8729,-0.0964,-0.8228,-1085.69,-1437.74,1310.85
6700,-3.8729,-0.0911,-0.8239,-335.69,-1297.12,935.85
6710,-3.8729,-0.0875,-0.8251,351.81,-1437.68,748.35
6720,-3.8729,-0.0872,-0.8252,804.93,-1593.93,670.23
6730,-3.8729,-0.0903,-0.8254,851.81,-1609.56,513.98
6740,-3.8729,-0.0944,-0.8267,445.56,-1640.81,232.73
6750,-3.8729,-0.0953,-0.8278,-70.07,-1797.12,60.85
6760,-3.8729,-0.0935,-0.8276,-195.07,-1937.74,342.10
6770,-3.8729,-0.0923,-0.8270,39.31,-1922.06,857.73
6780,-3.8729,-0.0935,-0.8276,195.56,-1843.93,982.73
6790,-3.8729,-0.0962,-0.8286,39.31,-1922.06,685.85
6800,-3.8729,-0.0990,-0.8308,-304.44,1952.88,467.10
6810,-3.8729,-0.1008,-0.8329,-663.82,1671.63,701.48
6820,-3.8729,-0.1012,-0.8326,-898.19,1406.01,1279.60
6830,-3.8729,-0.1003,-0.8311,-945.07,1437.26,1795.23
6840,-3.8729,-0.0990,-0.8307,-835.69,1640.38,-1986.02
6850,-3.8729,-0.0970,-0.8311,-663.82,1687.26,1935.85
6860,-3.8729,-0.0957,-0.8313,-413.82,1640.38,1857.73
6870,-3.8729,-0.0966,-0.8306,-241.94,1609.13,1888.98
6880,-3.8729,-0.0994,-0.8292,-351.32,1702.88,1842.10
6890,-3.8729,-0.1016,-0.8292,-710.69,1874.76,1685.85
6900,-3.8729,-0.1021,-0.8297,-991.94,1874.76,1373.35
6910,-3.8729,-0.1006,-0.8291,-1054.44,1812.26,1045.23
6920,-3.8729,-0.0980,-0.8289,-866.94,1890.38,873.35
6930,-3.8729,-0.0956,-0.8279,-538.82,1921.63,779.60
6940,-3.8729,-0.0935,-0.8263,-226.32,-1953.37,670.23
6950,-3.8729,-0.0925,-0.8253,39.31,-1750.18,513.98
6960,-3.8729,-0.0929,-0.8243,164.31,-1625.18,435.85
6970,-3.8729,-0.0938,-0.8237,117.43,-1500.18,357.73
6980,-3.8729,-0.0931,-0.8245,8.06,-1422.06,482.73
6990,-3.8729,-0.0927,-0.8256,86.18,-1515.81,951.48
7000,-3.8729,-0.0946,-0.8263,148.68,-1656.43,1529.60
7010,-3.8729,-0.0977,-0.8280,-101.32,-1750.24,1842.10
7020,-3.8729,-0.0996,-0.8318,-491.94,-1968.99,1857.73
7030,-3.8729,-0.0997,-0.8351,-741.94,1546.63,1935.85
7040,-3.8729,-0.0999,-0.8356,-757.57,1124.76,-1751.65
7050,-3.8729,-0.1013,-0.8341,-773.19,1062.26,-1501.65
7060,-3.8729,-0.1045,-0.8313,-960.69,1249.76,-1548.52
7070,-3.8729,-0.1075,-0.8279,-1366.94,1609.13,-1876.65
7080,-3.8729,-0.1078,-0.8243,-1757.57,-1953.37,1795.23
7090,-3.8729,-0.1050,-0.8220,-1788.82,-1500.24,1498.35
7100,-3.8729,-0.1002,-0.8232,-1429.44,-1203.37,951.48
7110,-3.8729,-0.0938,-0.8190,-820.07,-1359.62,420.23
7120,-3.8729,-0.0874,-0.8099,8.06,-812.68,248.35
7130,-3.8729,-0.0841,-0.8123,820.56,343.57,217.16
7140,-3.8729,-0.0839,-0.8228,1242.43,46.69,60.91
7150,-3.8729,-0.0873,-0.8285,1273.68,-1297.06,201.48
7160,-3.8729,-0.0936,-0.8279,836.18,1968.57,920.23
7170,-3.8729,-0.0995,-0.8264,23.68,-1953.31,1701.48
7180,-3.8729,-0.1024,-0.8276,-726.32,-1765.87,-1986.02
7190,-3.8729,-0.1014,-0.8301,-1101.32,-1922.12,-1939.15
7200,-3.8729,-0.0983,-0.8311,-976.32,1765.38,-1736.02
7210,-3.8729,-0.0961,-0.8307,-570.07,1640.38,-1407.90
7220,-3.8729,-0.0966,-0.8304,-288.82,1687.26,-1329.77
7230,-3.8729,-0.0994,-0.8301,-351.32,1718.51,-1517.27
7240,-3.8729,-0.1028,-0.8287,-710.69,1765.38,-1736.02
7250,-3.8729,-0.1047,-0.8264,-1148.19,1937.26,-1876.65
7260,-3.8729,-0.1036,-0.8239,-1398.19,-1765.87,1967.10
7270,-3.8729,-0.0994,-0.8217,-1257.57,-1437.74,1717.10
7280,-3.8729,-0.0939,-0.8210,-710.69,-1156.49,1388.98
7290,-3.8729,-0.0891,-0.8217,-7.57,-1078.37,1045.23
7300,-3.8729,-0.0862,-0.8225,601.81,-1156.43,888.98
7310,-3.8729,-0.0863,-0.8235,976.81,-1265.81,1107.73
7320,-3.8729,-0.0895,-0.8237,961.18,-1390.81,1482.73
7330,-3.8729,-0.0945,-0.8241,554.93,-1422.06,1873.35
7340,-3.8729,-0.1003,-0.8263,-85.69,-1468.99,-1970.40
7350,-3.8729,-0.1052,-0.8281,-835.69,-1750.24,1951.48
7360,-3.8729,-0.1086,-0.8273,-1460.69,-1984.62,-1986.02
7370,-3.8729,-0.1102,-0.8256,-1898.19,-1875.24,-1782.90
7380,-3.8729,-0.1078,-0.8250,1898.68,-1656.49,-1720.40
7390,-3.8729,-0.1012,-0.8246,-1788.82,-1578.37,-1736.02
7400,-3.8729,-0.0944,-0.8231,-945.07,-1531.49,-1782.90
7410,-3.8729,-0.0901,-0.8217,-70.07,-1343.99,-1907.90
7420,-3.8729,-0.0889,-0.8213,476.81,-1156.43,1873.35
7430,-3.8729,-0.0902,-0.8224,633.06,-1109.56,1560.85
7440,-3.8729,-0.0931,-0.8242,461.18,-1250.18,1451.48
7450,-3.8729,-0.0967,-0.8251,86.18,-1484.56,1701.48
7460,-3.8729,-0.0997,-0.8254,-366.94,-1593.99,1998.35
7470,-3.8729,-0.1011,-0.8263,-757.57,-1640.87,-1861.02
7480,-3.8729,-0.1010,-0.8269,-929.44,-1750.24,-1829.77
7490,-3.8729,-0.1002,-0.8270,-913.82,-1828.37,-1736.02
7500,-3.8729,-0.0999,-0.8302,-820.07,-1843.99,-1689.15
7510,-3.8729,-0.0988,-0.8329,-773.19,1749.76,-1876.65
7520,-3.8729,-0.0974,-0.8232,-632.57,1406.01,1888.98
7530,-3.8729,-0.0975,-0.8141,-460.69,-1359.62,1967.10
7540,-3.8729,-0.0963,-0.8173,-476.32,-187.74,-1939.15
7550,-3.8729,-0.0942,-0.8206,-320.07,-593.99,1920.23
7560,-3.8729,-0.0939,-0.8201,-54.44,-1015.87,1592.10
7570,-3.8729,-0.0948,-0.8190,-7.57,-953.37,1388.98
7580,-3.8729,-0.0967,-0.8193,-132.57,-812.74,1310.85
7590,-3.8729,-0.0979,-0.8218,-366.94,-859.62,1404.60
7600,-3.8729,-0.0972,-0.8246,-523.19,-1172.12,1826.48
7610,-3.8729,-0.0953,-0.8267,-429.44,-1531.49,-1579.77
7620,-3.8729,-0.0950,-0.8278,-195.07,-1797.12,-1048.52
7630,-3.8729,-0.0972,-0.8279,-148.19,-1937.74,-798.52
7640,-3.8729,-0.1013,-0.8278,-429.44,-1953.37,-704.77
7650,-3.8729,-0.1051,-0.8362,-960.69,-1937.74,-486.02
7660,-3.8729,-0.1049,-0.8474,-1445.07,984.13,-64.15
7670,-3.8728,-0.1017,-0.8428,-1413.82,-453.37,232.67
7680,-3.8728,-0.0979,-0.8319,-1007.57,140.38,1201.48
7690,-3.8728,-0.0929,-0.8354,-523.19,1531.01,-1392.27
7700,-3.8728,-0.0876,-0.8477,117.43,1077.94,-595.40
7710,-3.8728,-0.0848,-0.8505,789.31,-484.56,-111.08
7720,-3.8727,-0.0865,-0.8414,1148.68,-843.93,826.42
7730,-3.8727,-0.0923,-0.8284,929.93,312.32,-1704.77
7740,-3.8727,-0.0994,-0.8177,195.56,1984.19,-892.27
7750,-3.8727,-0.1047,-0.8073,-710.69,-656.49,-1032.90
7760,-3.8727,-0.1082,-0.7971,-1398.19,687.26,-1814.09
7770,-3.8727,-0.1077,-0.7886,-1835.69,1984.13,1060.91
7780,-3.8728,-0.1064,-0.7815,-1773.19,-922.12,-767.21
7790,-3.8728,-0.1050,-0.7755,-1616.94,-15.87,-1423.46
7800,-3.8728,-0.0991,-0.7684,-1429.44,749.76,-501.53
7810,-3.8728,-0.0917,-0.7625,-679.44,1656.01,-32.78
7820,-3.8728,-0.0839,-0.7548,273.68,-1578.31,-110.90
7830,-3.8728,-0.0781,-0.7449,1273.68,-593.93,-79.65
7840,-3.8727,-0.0763,-0.7415,-1991.94,671.69,498.54
7850,-3.8727,-0.0785,-0.7455,-1757.57,1109.19,1498.54
7860,-3.8727,-0.0826,-0.7448,1961.18,593.57,-1173.34
7870,-3.8727,-0.0889,-0.7361,1429.93,687.32,-95.21
7880,-3.8726,-0.0946,-0.7278,633.06,1796.69,373.54
7890,-3.8726,-0.0959,-0.7247,-101.32,-1140.87,107.91
7900,-3.8727,-0.0939,-0.7261,-273.19,-750.24,-767.09
7910,-3.8727,-0.0900,-0.7330,-7.57,-922.12,-1657.71
7920,-3.8727,-0.0856,-0.7439,492.43,-1812.68,-1720.21
7930,-3.8727,-0.0828,-0.7505,1054.93,796.69,-767.09
7940,-3.8726,-0.0841,-0.7500,1414.31,-47.06,592.22
7950,-3.8726,-0.0875,-0.7478,1242.43,15.44,1654.79
7960,-3.8726,-0.0891,-0.7487,804.93,296.69,-1657.71
7970,-3.8726,-0.0885,-0.7524,601.81,187.32,-970.21
7980,-3.8726,-0.0875,-0.7548,679.93,-297.06,-235.90
7990,-3.8724,-0.0879,-0.7537,804.93,-593.93,185.97
8000,-3.8726,-0.0884,-0.7531,758.06,-453.31,-1.53
8010,-3.8726,-0.0875,-0.7539,695.56,-375.18,-689.03
8020,-3.8726,-0.0881,-0.7523,804.93,-484.56,-1517.15
8030,-3.8726,-0.0930,-0.7479,726.81,-281.43,1889.10
8040,-3.8726,-0.0983,-0.7443,101.81,281.07,1529.79
8050,-3.8726,-0.0988,-0.7456,-570.07,749.76,1389.16
8060,-3.8726,-0.0920,-0.7511,-632.57,577.88,1592.29
8070,-3.8726,-0.0817,-0.7549,226.81,-125.18,-1767.15
8080,-3.8726,-0.0745,-0.7551,1554.93,-609.56,-1017.15
8090,-3.8726,-0.0748,-0.7555,-1523.19,-640.81,-626.53
8100,-3.8726,-0.0819,-0.7571,-1570.07,-687.68,-673.40
8110,-3.8726,-0.0922,-0.7574,1523.68,-890.81,-829.65
8120,-3.8726,-0.1012,-0.7562,211.18,-937.68,-845.28
8130,-3.8726,-0.1050,-0.7542,-945.07,-781.49,-767.15
8140,-3.8726,-0.1035,-0.7521,-1429.44,-515.87,-923.40
8150,-3.8726,-0.0984,-0.7511,-1241.94,-250.24,-1485.90
8160,-3.8726,-0.0920,-0.7520,-585.69,-125.24,1795.35
8170,-3.8726,-0.0862,-0.7532,226.81,-234.56,1170.35
8180,-3.8726,-0.0835,-0.7544,976.81,-390.81,920.35
8190,-3.8726,-0.0837,-0.7557,1320.56,-547.06,1139.10
8200,-3.8726,-0.0858,-0.7566,1289.31,-718.93,1560.97
8210,-3.8726,-0.0879,-0.7568,1023.68,-828.31,-1860.90
8220,-3.8726,-0.0886,-0.7568,758.06,-859.56,-1423.40
8230,-3.8726,-0.0881,-0.7576,664.31,-859.56,-1376.53
8240,-3.8726,-0.0869,-0.7589,726.81,-953.31,-1485.90
8250,-3.8726,-0.0872,-0.7593,883.06,-1125.18,-1548.40
8260,-3.8726,-0.0905,-0.7601,851.81,-1172.06,-1626.53
8270,-3.8726,-0.0952,-0.7617,429.93,-1281.43,-1548.40
8280,-3.8726,-0.0988,-0.7615,-179.44,-1484.62,-1423.40
8290,-3.8726,-0.1005,-0.7611,-632.57,-1453.37,-1532.78
8300,-3.8726,-0.0994,-0.7618,-851.32,-1406.49,-1767.15
8310,-3.8726,-0.0951,-0.7621,-710.69,-1500.24,-1939.03
8320,-3.8726,-0.0897,-0.7611,-163.82,-1531.49,1998.47
8330,-3.8726,-0.0865,-0.7598,523.68,-1406.43,-1985.90
8340,-3.8726,-0.0857,-0.7590,929.93,-1234.56,1732.85
8350,-3.8726,-0.0848,-0.7593,1039.31,-1140.81,1326.60
8360,-3.8726,-0.0837,-0.7587,1148.68,-1172.06,1389.10
8370,-3.8726,-0.0847,-0.7577,1289.31,-1093.93,1732.85
8380,-3.8726,-0.0881,-0.7595,1164.31,-968.93,1842.22
8390,-3.8726,-0.0916,-0.7627,726.81,-1203.31,1779.72
8400,-3.8726,-0.0945,-0.7623,289.31,-1609.56,1967.22
8410,-3.8726,-0.0968,-0.7596,-85.69,-1562.74,-1767.15
8420,-3.8726,-0.0975,-0.7587,-382.57,-1218.99,-1735.90
8430,-3.8726,-0.0964,-0.7583,-476.32,-1093.99,-1923.40
8440,-3.8726,-0.0952,-0.7555,-335.69,-1047.12,1795.35
8450,-3.8726,-0.0945,-0.7526,-179.44,-687.74,1404.72
8460,-3.8726,-0.0936,-0.7520,-85.69,-312.74,982.85
8470,-3.8726,-0.0916,-0.7527,23.68,-234.56,639.10
8480,-3.8726,-0.0886,-0.7543,289.31,-328.31,435.97
8490,-3.8726,-0.0862,-0.7561,664.31,-531.43,576.60
8500,-3.8726,-0.0858,-0.7577,976.81,-765.81,1123.47
8510,-3.8726,-0.0873,-0.7600,1023.68,-968.93,1779.72
8520,-3.8726,-0.0889,-0.7618,836.18,-1265.81,-1626.53
8530,-3.8726,-0.0917,-0.7616,633.06,-1500.18,-1126.53
8540,-3.8726,-0.0964,-0.7605,273.68,-1468.93,-829.65
8550,-3.8726,-0.1000,-0.7600,-335.69,-1328.37,-1032.78
8560,-3.8726,-0.1008,-0.7603,-788.82,-1265.87,-1579.65
8570,-3.8726,-0.1002,-0.7598,-898.19,-1297.12,1935.97
8580,-3.8726,-0.0984,-0.7590,-820.07,-1234.62,1545.35
8590,-3.8726,-0.0950,-0.7594,-585.69,-1140.87,1201.60
8600,-3.8726,-0.0912,-0.7595,-148.19,-1187.74,998.47
8610,-3.8726,-0.0884,-0.7583,336.18,-1203.31,1123.47
8620,-3.8726,-0.0873,-0.7561,695.56,-1047.06,1607.85
8630,-3.8726,-0.0881,-0.7555,836.18,-765.81,1998.47
8640,-3.8726,-0.0903,-0.7563,726.81,-687.68,1920.35
8650,-3.8726,-0.0922,-0.7571,445.56,-797.06,1560.97
8660,-3.8726,-0.0923,-0.7581,211.18,-890.81,1232.85
8670,-3.8726,-0.0917,-0.7594,195.56,-1015.81,1029.72
8680,-3.8726,-0.0911,-0.7601,273.68,-1187.68,1107.85
8690,-3.8726,-0.0913,-0.7601,351.81,-1281.43,1310.97
8700,-3.8726,-0.0918,-0.7607,320.56,-1281.43,1389.10
8710,-3.8726,-0.0907,-0.7623,258.06,-1359.56,1467.22
8720,-3.8726,-0.0891,-0.7629,398.68,-1562.68,1717.22
8730,-3.8726,-0.0900,-0.7626,601.81,-1640.81,1982.85
8740,-3.8726,-0.0930,-0.7627,492.43,-1593.93,-1923.40
8750,-3.8726,-0.0942,-0.7638,101.81,-1609.56,1967.22
8760,-3.8726,-0.0927,-0.7637,-54.44,-1750.24,1764.10
8770,-3.8726,-0.0917,-0.7617,148.68,-1734.56,1576.60
8780,-3.8726,-0.0933,-0.7617,273.68,-1484.56,1373.47
8790,-3.8726,-0.0944,-0.7656,70.56,-1484.56,1154.72
8800,-3.8726,-0.0936,-0.7665,-70.07,-1984.62,1264.10
8810,-3.8726,-0.0936,-0.7621,23.68,1906.07,1717.22
8820,-3.8726,-0.0947,-0.7590,23.68,-1531.43,1889.10
8830,-3.8726,-0.0935,-0.7595,-116.94,-1140.87,1467.22
8840,-3.8726,-0.0895,-0.7606,39.31,-1203.31,998.47
8850,-3.8726,-0.0863,-0.7599,554.93,-1343.93,935.97
8860,-3.8726,-0.0878,-0.7595,961.18,-1250.18,1139.10
8870,-3.8726,-0.0920,-0.7618,773.68,-1203.31,1326.60
8880,-3.8726,-0.0948,-0.7655,226.81,-1500.18,1404.72
8890,-3.8726,-0.0957,-0.7664,-132.57,-1968.99,1607.85
8900,-3.8726,-0.0959,-0.7656,-241.94,1921.63,1920.35
8910,-3.8726,-0.0953,-0.7668,-273.19,-1984.62,-1907.78
8920,-3.8726,-0.0931,-0.7693,-195.07,1859.13,-1923.40
8930,-3.8726,-0.0906,-0.7703,86.18,1546.69,-1923.40
8940,-3.8726,-0.0896,-0.7688,414.31,1421.69,-1845.28
8950,-3.8726,-0.0903,-0.7649,539.31,1609.19,-1939.03
8960,-3.8726,-0.0909,-0.7590,445.56,-1890.81,1685.97
8970,-3.8726,-0.0911,-0.7539,367.43,-1140.81,1154.72
8980,-3.8726,-0.0907,-0.7517,351.81,-484.56,701.60
8990,-3.8726,-0.0897,-0.7520,398.68,-203.31,607.85
9000,-3.8726,-0.0900,-0.7537,523.68,-234.56,904.72
9010,-3.8726,-0.0924,-0.7554,492.43,-453.31,1451.60
9020,-3.8726,-0.0967,-0.7573,179.93,-672.06,-1814.03
9030,-3.8726,-0.1012,-0.7596,-366.94,-922.12,-1110.90
9040,-3.8726,-0.1039,-0.7616,-945.07,-1218.99,-642.15
9050,-3.8726,-0.1035,-0.7626,-1288.82,-1468.99,-439.03
9060,-3.8726,-0.1007,-0.7621,-1241.94,-1593.99,-392.15
9070,-3.8726,-0.0967,-0.7616,-882.57,-1531.49,-376.53
9080,-3.8726,-0.0930,-0.7607,-366.94,-1468.99,-532.78
9090,-3.8726,-0.0906,-0.7584,101.81,-1359.56,-1032.78
9100,-3.8726,-0.0891,-0.7556,414.31,-1062.68,-1720.28
9110,-3.8726,-0.0879,-0.7531,601.81,-703.31,1529.72
9120,-3.8726,-0.0856,-0.7509,758.06,-375.18,779.72
9130,-3.8726,-0.0822,-0.7501,1054.93,-93.93,310.97
9140,-3.8726,-0.0791,-0.7501,1492.43,-0.18,139.10
9150,-3.8726,-0.0773,-0.7506,1883.06,-0.18,45.35
9160,-3.8726,-0.0768,-0.7522,-1882.57,-62.68,29.72
9170,-3.8726,-0.0778,-0.7545,-1820.07,-265.81,60.97
9180,-3.8726,-0.0792,-0.7567,-1945.07,-562.68,279.72
9190,-3.8726,-0.0812,-0.7587,1867.43,-843.93,748.47
9200,-3.8726,-0.0840,-0.7601,1617.43,-1093.93,1326.60
9210,-3.8726,-0.0867,-0.7617,1258.06,-1281.43,1842.22
9220,-3.8726,-0.0881,-0.7633,914.31,-1484.56,-1892.15
9230,-3.8726,-0.0881,-0.7644,726.81,-1687.68,-1782.78
9240,-3.8726,-0.0875,-0.7650,726.81,-1828.31,-1782.78
9250,-3.8726,-0.0878,-0.7651,804.93,-1906.43,-1892.15
9260,-3.8726,-0.0886,-0.7644,773.68,-1922.06,1967.22
9270,-3.8726,-0.0891,-0.7626,664.31,-1828.31,1779.72
9280,-3.8726,-0.0879,-0.7611,601.81,-1593.93,1545.35
9290,-3.8726,-0.0850,-0.7610,758.06,-1406.43,1451.60
9300,-3.8726,-0.0822,-0.7614,1133.06,-1390.81,1482.85
9310,-3.8726,-0.0804,-0.7614,1492.43,-1437.68,1420.35
9320,-3.8726,-0.0793,-0.7628,1711.18,-1437.68,1310.97
9330,-3.8726,-0.0789,-0.7654,1851.81,-1625.18,1201.60
9340,-3.8726,-0.0793,-0.7664,1914.31,-1953.31,1232.85
9350,-3.8726,-0.0809,-0.7651,1851.81,1921.69,1576.60
9360,-3.8726,-0.0844,-0.7639,1648.68,-1922.06,-1985.90
9370,-3.8726,-0.0889,-0.7627,1211.18,-1765.81,-1610.90
9380,-3.8726,-0.0927,-0.7607,633.06,-1609.56,-1282.78
9390,-3.8726,-0.0936,-0.7589,148.68,-1359.56,-1298.40
9400,-3.8726,-0.0914,-0.7565,23.68,-1125.18,-1704.65
9410,-3.8726,-0.0876,-0.7542,304.93,-812.68,1717.22
9420,-3.8726,-0.0826,-0.7537,789.31,-515.81,1107.85
9430,-3.8726,-0.0790,-0.7546,1429.93,-453.31,592.22
9440,-3.8726,-0.0796,-0.7567,1898.68,-578.31,357.85
9450,-3.8726,-0.0839,-0.7595,1820.56,-843.93,310.97
9460,-3.8726,-0.0892,-0.7616,1273.68,-1203.31,498.47
9470,-3.8726,-0.0925,-0.7627,586.18,-1468.93,1045.35
9480,-3.8726,-0.0930,-0.7632,164.31,-1609.56,1967.22
9490,-3.8726,-0.0907,-0.7632,101.81,-1672.06,-985.90
9500,-3.8726,-0.0885,-0.7615,398.68,-1672.06,-267.15
9510,-3.8726,-0.0880,-0.7582,679.93,-1453.31,-79.65
9520,-3.8726,-0.0878,-0.7549,742.43,-1031.43,-376.53
9530,-3.8726,-0.0879,-0.7505,773.68,-609.56,-1017.15
9540,-3.8726,-0.0887,-0.7479,758.06,-47.06,-1876.53
9550,-3.8726,-0.0898,-0.7489,648.68,281.07,1123.54
9560,-3.8726,-0.0916,-0.7496,508.06,156.07,342.29
9570,-3.8726,-0.0935,-0.7504,289.31,62.32,107.91
9580,-3.8726,-0.0933,-0.7520,39.31,-31.43,357.85
9590,-3.8726,-0.0894,-0.7534,70.56,-234.56,748.47
9600,-3.8726,-0.0828,-0.7551,570.56,-422.06,1029.72
9610,-3.8726,-0.0764,-0.7583,1414.31,-640.81,1232.85
9620,-3.8726,-0.0737,-0.7626,-1773.19,-1047.06,1435.97
9630,-3.8726,-0.0754,-0.7651,-1429.44,-1593.93,1826.60
9640,-3.8726,-0.0796,-0.7664,-1648.19,-1922.06,-1485.90
9650,-3.8726,-0.0850,-0.7679,1820.56,1921.69,-767.15
9660,-3.8726,-0.0891,-0.7688,1133.06,1718.57,-298.40
9670,-3.8726,-0.0913,-0.7683,601.81,1609.19,-439.03
9680,-3.8726,-0.0927,-0.7673,320.56,1671.69,-1110.90
9690,-3.8726,-0.0918,-0.7664,148.68,1796.69,-1767.15
9700,-3.8726,-0.0881,-0.7653,258.06,1921.69,1826.60
9710,-3.8726,-0.0845,-0.7637,726.81,-1937.68,1576.60
9720,-3.8726,-0.0824,-0.7614,1195.56,-1734.56,1498.47
9730,-3.8726,-0.0808,-0.7584,1461.18,-1437.68,1529.72
9740,-3.8726,-0.0800,-0.7554,1664.31,-1062.68,1545.35
9750,-3.8726,-0.0814,-0.7532,1773.68,-672.06,1529.72
9760,-3.8726,-0.0844,-0.7522,1586.18,-390.81,1701.60
9770,-3.8726,-0.0875,-0.7520,1211.18,-265.81,-1985.90
9780,-3.8726,-0.0913,-0.7523,804.93,-234.56,-1782.78
9790,-3.8726,-0.0942,-0.7533,320.56,-281.43,-1860.90
9800,-3.8726,-0.0956,-0.7542,-54.44,-406.49,-1939.03
9810,-3.8726,-0.0964,-0.7548,-226.32,-515.87,-1860.90
9820,-3.8726,-0.0968,-0.7554,-335.69,-593.99,-1798.40
9830,-3.8726,-0.0963,-0.7556,-382.57,-672.12,-1782.78
9840,-3.8726,-0.0951,-0.7557,-320.07,-703.37,-1767.15
9850,-3.8726,-0.0935,-0.7565,-163.82,-718.99,-1814.03
9860,-3.8726,-0.0907,-0.7584,39.31,-812.68,-1985.90
9870,-3.8726,-0.0867,-0.7603,398.68,-1062.68,1810.97
9880,-3.8726,-0.0840,-0.7606,914.31,-1297.06,1795.35
9890,-3.8726,-0.0836,-0.7596,1258.06,-1343.93,1779.72
9900,-3.8726,-0.0830,-0.7588,1304.93,-1218.93,1576.60
9910,-3.8726,-0.0807,-0.7584,1383.06,-1109.56,1201.60
9920,-3.8726,-0.0774,-0.7584,1679.93,-1062.68,795.35
9930,-3.8726,-0.0753,-0.7584,-1898.19,-1062.68,545.35
9940,-3.8726,-0.0767,-0.7579,-1632.57,-1062.68,607.85
9950,-3.8726,-0.0818,-0.7571,-1804.44,-1000.18,1060.97
9960,-3.8726,-0.0889,-0.7568,1539.31,-890.81,1545.35
9970,-3.8726,-0.0936,-0.7582,633.06,-859.56,1982.85
9980,-3.8726,-0.0941,-0.7605,23.68,-1031.43,-1595.28
9990,-3.8726,-0.0925,-0.7623,-38.82,-1328.37,-1267.15
10000,-3.8726,-0.0908,-0.7646,164.31,-1562.68,-923.40
10010,-3.8726,-0.0891,-0.7670,383.06,-1859.56,-673.40
10020,-3.8726,-0.0891,-0.7672,601.81,1843.57,-689.03
10030,-3.8726,-0.0911,-0.7660,601.81,1812.32,-907.78
10040,-3.8726,-0.0924,-0.7631,351.81,1968.57,-1220.28
10050,-3.8726,-0.0907,-0.7589,179.93,-1656.43,-1704.65
10060,-3.8726,-0.0865,-0.7563,398.68,-1125.18,1623.47
10070,-3.8726,-0.0811,-0.7554,929.93,-797.06,935.97
10080,-3.8726,-0.0769,-0.7540,1633.06,-672.06,514.10
10090,-3.8726,-0.0768,-0.7528,-1835.69,-500.18,420.35
10100,-3.8726,-0.0798,-0.7540,-1820.07,-343.93,576.60
10110,-3.8726,-0.0829,-0.7570,1789.31,-500.18,795.35
10120,-3.8726,-0.0840,-0.7599,1398.68,-875.18,1060.97
10130,-3.8726,-0.0842,-0.7633,1258.06,-1250.18,1498.47
10140,-3.8726,-0.0848,-0.7656,1226.81,-1687.68,-1907.78
10150,-3.8726,-0.0862,-0.7659,1148.68,-1984.56,-1314.03
10160,-3.8726,-0.0880,-0.7655,976.81,1984.19,-1001.53
10170,-3.8726,-0.0895,-0.7644,742.43,-1968.93,-1204.65
10180,-3.8726,-0.0890,-0.7617,554.93,-1828.31,-1689.03
10190,-3.8726,-0.0862,-0.7587,617.43,-1484.56,1701.60
10200,-3.8726,-0.0830,-0.7561,976.81,-1093.93,1185.97
10210,-3.8726,-0.0800,-0.7550,1383.06,-765.81,810.97
10220,-3.8726,-0.0771,-0.7559,1773.68,-625.18,498.47
10230,-3.8726,-0.0751,-0.7577,-1866.94,-734.56,514.10
10240,-3.8726,-0.0750,-0.7596,-1601.32,-968.93,795.35
10250,-3.8726,-0.0774,-0.7609,-1585.69,-1218.93,1232.85
10260,-3.8726,-0.0813,-0.7614,-1898.19,-1375.18,1685.97
10270,-3.8726,-0.0851,-0.7623,1601.81,-1437.68,1935.97
10280,-3.8726,-0.0865,-0.7628,1117.43,-1562.68,-1892.15
10290,-3.8726,-0.0869,-0.7625,929.93,-1625.18,-1751.53
10300,-3.8726,-0.0875,-0.7621,883.06,-1578.31,-1579.65
10310,-3.8726,-0.0875,-0.7621,804.93,-1531.43,-1532.78
10320,-3.8726,-0.0870,-0.7616,804.93,-1531.43,-1782.78
10330,-3.8726,-0.0863,-0.7598,867.43,-1468.93,1904.72
10340,-3.8726,-0.0862,-0.7567,961.18,-1234.56,1748.47
10350,-3.8726,-0.0864,-0.7544,976.81,-843.93,1826.60
10360,-3.8726,-0.0865,-0.7540,945.56,-547.06,1857.85
10370,-3.8726,-0.0853,-0.7549,929.93,-500.18,1623.47
10380,-3.8726,-0.0830,-0.7567,1086.18,-609.56,1295.35
10390,-3.8726,-0.0800,-0.7582,1383.06,-843.93,1279.72
10400,-3.8726,-0.0776,-0.7600,1773.68,-1031.43,1717.22
10410,-3.8726,-0.0782,-0.7628,-1929.44,-1265.81,-1564.03
10420,-3.8726,-0.0819,-0.7648,1992.43,-1625.18,-1157.78
10430,-3.8726,-0.0869,-0.7651,1523.68,-1875.18,-1204.65
10440,-3.8726,-0.0902,-0.7638,883.06,-1922.06,-1501.53
10450,-3.8726,-0.0900,-0.7618,461.18,-1750.18,-1907.78
10460,-3.8726,-0.0874,-0.7606,492.43,-1500.18,1654.72
10470,-3.8726,-0.0834,-0.7588,820.56,-1343.93,1357.85
10480,-3.8726,-0.0790,-0.7576,1336.18,-1109.56,1264.10
10490,-3.8726,-0.0754,-0.7574,1898.68,-953.31,1295.35
10500,-3.8726,-0.0737,-0.7578,-1648.19,-937.68,1404.72
10510,-3.8726,-0.0746,-0.7583,-1429.44,-984.56,1623.47
10520,-3.8726,-0.0784,-0.7589,-1538.82,-1047.06,1951.60
10530,-3.8726,-0.0837,-0.7592,1976.81,-1125.18,-1876.53
10540,-3.8726,-0.0889,-0.7590,1289.31,-1156.43,-1939.03
10550,-3.8726,-0.0917,-0.7595,633.06,-1140.81,-1907.78
10560,-3.8726,-0.0916,-0.7605,273.68,-1203.31,-1751.53
10570,-3.8726,-0.0896,-0.7604,289.31,-1328.31,-1595.28
10580,-3.8726,-0.0876,-0.7592,539.31,-1312.68,-1579.65
10590,-3.8726,-0.0867,-0.7587,789.31,-1156.43,-1751.53
10600,-3.8726,-0.0858,-0.7593,914.31,-1093.93,-1923.40
10610,-3.8726,-0.0840,-0.7592,1023.68,-1172.06,1904.72
10620,-3.8726,-0.0819,-0.7583,1258.06,-1156.43,1592.22
10630,-3.8726,-0.0817,-0.7578,1523.68,-1047.06,1389.10
10640,-3.8726,-0.0829,-0.7573,1554.93,-984.56,1310.97
10650,-3.8726,-0.0835,-0.7568,1398.68,-922.06,1248.47
10660,-3.8726,-0.0828,-0.7570,1320.56,-859.56,1310.97
10670,-3.8726,-0.0820,-0.7571,1414.31,-875.18,1373.47
10680,-3.8726,-0.0826,-0.7571,1508.06,-890.81,1310.97
10690,-3.8726,-0.0842,-0.7582,1429.93,-890.81,1201.60
10700,-3.8726,-0.0852,-0.7600,1226.81,-1031.43,1248.47
10710,-3.8726,-0.0847,-0.7620,1101.81,-1265.81,1514.10
10720,-3.8726,-0.0846,-0.7632,1164.31,-1515.81,1826.60
10730,-3.8726,-0.0853,-0.7634,1179.93,-1672.06,-1860.90
10740,-3.8726,-0.0858,-0.7632,1086.18,-1703.31,-1720.28
10750,-3.8726,-0.0862,-0.7632,1023.68,-1672.06,-1798.40
10760,-3.8726,-0.0853,-0.7627,976.81,-1672.06,-1892.15
10770,-3.8726,-0.0833,-0.7609,1086.18,-1609.56,-1970.28
10780,-3.8726,-0.0829,-0.7587,1351.81,-1375.18,1982.85
10790,-3.8726,-0.0841,-0.7567,1398.68,-1093.93,1889.10
10800,-3.8726,-0.0850,-0.7556,1242.43,-843.93,1576.60
10810,-3.8726,-0.0853,-0.7556,1133.06,-703.31,1232.85
10820,-3.8726,-0.0861,-0.7568,1086.18,-703.31,982.85
10830,-3.8726,-0.0868,-0.7589,992.43,-859.56,951.60
10840,-3.8726,-0.0864,-0.7594,898.68,-1125.18,1248.47
10850,-3.8726,-0.0856,-0.7585,945.56,-1187.68,1826.60
10860,-3.8726,-0.0847,-0.7601,1054.93,-1078.31,-1642.15
10870,-3.8726,-0.0837,-0.7632,1164.31,-1281.43,-1360.90
10880,-3.8726,-0.0844,-0.7639,1289.31,-1672.06,-1329.65
10890,-3.8726,-0.0873,-0.7635,1211.18,-1765.81,-1548.40
10900,-3.8726,-0.0896,-0.7648,836.18,-1718.93,-1845.28
10910,-3.8726,-0.0883,-0.7653,539.31,-1875.18,1951.60
10920,-3.8726,-0.0839,-0.7629,711.18,-1937.68,1748.47
10930,-3.8726,-0.0807,-0.7603,1273.68,-1640.81,1592.22
10940,-3.8726,-0.0806,-0.7589,1679.93,-1297.06,1607.85
10950,-3.8726,-0.0825,-0.7588,1695.56,-1125.18,1810.97
10960,-3.8726,-0.0842,-0.7581,1445.56,-1109.56,1857.85
10970,-3.8726,-0.0847,-0.7560,1226.81,-1015.81,1654.72
10980,-3.8726,-0.0847,-0.7545,1164.31,-750.18,1326.60
10990,-3.8726,-0.0844,-0.7545,1164.31,-562.68,1060.97
11000,-3.8726,-0.0839,-0.7551,1211.18,-562.68,857.85
11010,-3.8726,-0.0841,-0.7563,1273.68,-640.81,826.60
11020,-3.8726,-0.0858,-0.7579,1242.43,-797.06,1154.72
11030,-3.8726,-0.0881,-0.7590,1023.68,-1000.18,1732.85
11040,-3.8726,-0.0892,-0.7592,726.81,-1140.81,-1829.65
11050,-3.8726,-0.0889,-0.7593,586.18,-1156.43,-1610.90
11060,-3.8726,-0.0879,-0.7601,633.06,-1172.06,-1532.78
11070,-3.8726,-0.0876,-0.7603,758.06,-1281.43,-1485.90
11080,-3.8726,-0.0900,-0.7594,789.31,-1297.06,-1439.03
11090,-3.8726,-0.0933,-0.7585,492.43,-1187.68,-1548.40
11100,-3.8726,-0.0950,-0.7574,70.56,-1078.31,-1767.15
11110,-3.8726,-0.0952,-0.7557,-148.19,-937.74,-1892.15
11120,-3.8726,-0.0946,-0.7551,-179.44,-718.99,1920.35
11130,-3.8726,-0.0933,-0.7554,-101.32,-640.87,1748.47
11140,-3.8726,-0.0902,-0.7555,70.56,-672.06,1685.97
11150,-3.8726,-0.0861,-0.7566,461.18,-687.68,1576.60
11160,-3.8726,-0.0825,-0.7583,992.43,-828.31,1420.35
11170,-3.8726,-0.0809,-0.7604,1445.56,-1047.06,1279.72
11180,-3.8726,-0.0813,-0.7616,1648.68,-1312.68,1248.47
11190,-3.8726,-0.0845,-0.7609,1601.81,-1468.93,1467.22
11200,-3.8726,-0.0898,-0.7599,1195.56,-1375.18,1764.10
11210,-3.8726,-0.0942,-0.7601,508.06,-1250.18,1920.35
11220,-3.8726,-0.0961,-0.7609,-54.44,-1281.49,1810.97
11230,-3.8726,-0.0947,-0.7607,-288.82,-1375.24,1529.72
11240,-3.8726,-0.0903,-0.7592,-116.94,-1359.62,1420.35
11250,-3.8726,-0.0856,-0.7592,445.56,-1156.43,1560.97
11260,-3.8726,-0.0828,-0.7609,1054.93,-1156.43,1857.85
11270,-3.8726,-0.0829,-0.7618,1414.31,-1375.18,-1767.15
11280,-3.8726,-0.0842,-0.7618,1398.68,-1500.18,-1626.53
11290,-3.8726,-0.0861,-0.7604,1226.81,-1500.18,-1689.03
11300,-3.8726,-0.0886,-0.7583,992.43,-1312.68,-1845.28
11310,-3.8726,-0.0913,-0.7581,664.31,-1047.06,-1985.90
11320,-3.8726,-0.0922,-0.7582,320.56,-1015.81,1873.47
11330,-3.8726,-0.0912,-0.7581,211.18,-1031.43,1654.72
11340,-3.8726,-0.0903,-0.7579,336.18,-1015.81,1623.47
11350,-3.8726,-0.0903,-0.7572,445.56,-1000.18,1732.85
11360,-3.8726,-0.0908,-0.7571,445.56,-906.43,1576.60
11370,-3.8726,-0.0913,-0.7579,383.06,-890.81,1420.35
11380,-3.8726,-0.0913,-0.7587,320.56,-1000.18,1482.85
11390,-3.8726,-0.0903,-0.7590,320.56,-1093.93,1654.72
11400,-3.8726,-0.0900,-0.7592,445.56,-1140.81,1873.47
11410,-3.8726,-0.0897,-0.7588,492.43,-1156.43,1982.85
11420,-3.8726,-0.0894,-0.7592,523.68,-1109.56,1779.72
11430,-3.8726,-0.0902,-0.7604,570.56,-1156.43,1404.72
11440,-3.8726,-0.0906,-0.7609,461.18,-1312.68,1201.60
11450,-3.8726,-0.0891,-0.7590,414.31,-1375.18,1232.85
11460,-3.8726,-0.0870,-0.7584,601.81,-1140.81,1310.97
11470,-3.8726,-0.0845,-0.7599,867.43,-1062.68,1279.72
11480,-3.8726,-0.0834,-0.7599,1195.56,-1250.18,1310.97
11490,-3.8726,-0.0862,-0.7587,1336.18,-1250.18,1482.85
11500,-3.8726,-0.0906,-0.7585,976.81,-1093.93,1670.35
11510,-3.8726,-0.0933,-0.7598,414.31,-1078.31,1748.47
11520,-3.8726,-0.0931,-0.7607,70.56,-1234.56,1592.22
11530,-3.8726,-0.0918,-0.7610,86.18,-1359.56,1404.72
11540,-3.8726,-0.0909,-0.7605,258.06,-1390.81,1435.97
11550,-3.8726,-0.0916,-0.7598,367.43,-1328.31,1670.35
11560,-3.8726,-0.0923,-0.7595,289.31,-1234.56,-1954.65
11570,-3.8726,-0.0919,-0.7606,195.56,-1203.31,-1579.65
11580,-3.8726,-0.0902,-0.7620,242.43,-1343.93,-1517.15
11590,-3.8726,-0.0876,-0.7632,461.18,-1515.81,-1814.03
11600,-3.8726,-0.0850,-0.7632,789.31,-1672.06,1779.72
11610,-3.8726,-0.0830,-0.7606,1133.06,-1672.06,1389.10
11620,-3.8726,-0.0826,-0.7579,1383.06,-1343.93,1107.85
11630,-3.8726,-0.0834,-0.7567,1429.93,-1000.18,998.47
11640,-3.8726,-0.0844,-0.7567,1336.18,-843.93,1045.35
11650,-3.8726,-0.0856,-0.7577,1211.18,-843.93,1092.22
11660,-3.8726,-0.0870,-0.7598,1054.93,-968.93,1029.72
11670,-3.8726,-0.0874,-0.7629,867.43,-1234.56,982.85
11680,-3.8726,-0.0867,-0.7653,820.56,-1640.81,1310.97
11690,-3.8726,-0.0867,-0.7649,914.31,-1937.68,1967.22
11700,-3.8726,-0.0881,-0.7623,914.31,-1890.81,-1501.53
11710,-3.8726,-0.0912,-0.7605,726.81,-1562.68,-1267.15
11720,-3.8726,-0.0945,-0.7600,336.18,-1328.31,-1314.03
11730,-3.8726,-0.0958,-0.7585,-85.69,-1265.87,-1610.90
11740,-3.8726,-0.0952,-0.7566,-257.57,-1078.37,-1985.90
11750,-3.8726,-0.0935,-0.7555,-179.44,-828.37,1764.10
11760,-3.8726,-0.0911,-0.7551,39.31,-687.68,1607.85
11770,-3.8726,-0.0879,-0.7567,351.81,-640.81,1435.97
11780,-3.8726,-0.0846,-0.7595,758.06,-843.93,1201.60
11790,-3.8726,-0.0825,-0.7616,1179.93,-1203.31,1029.72
11800,-3.8726,-0.0822,-0.7634,1445.56,-1468.93,1123.47
11810,-3.8726,-0.0840,-0.7648,1492.43,-1703.31,1607.85
11820,-3.8726,-0.0873,-0.7656,1258.06,-1875.18,-1720.28
11830,-3.8726,-0.0885,-0.7656,836.18,-1984.56,-1329.65
11840,-3.8726,-0.0875,-0.7646,679.93,-1984.56,-1423.40
11850,-3.8726,-0.0869,-0.7625,804.93,-1859.56,-1767.15
11860,-3.8726,-0.0875,-0.7594,883.06,-1578.31,1732.85
11870,-3.8726,-0.0881,-0.7567,804.93,-1187.68,1217.22
11880,-3.8726,-0.0876,-0.7542,726.81,-843.93,826.60
11890,-3.8726,-0.0867,-0.7522,789.31,-515.81,576.60
11900,-3.8726,-0.0868,-0.7516,914.31,-265.81,639.10
11910,-3.8726,-0.0880,-0.7539,898.68,-187.68,982.85
11920,-3.8726,-0.0897,-0.7576,742.43,-484.56,1342.22
11930,-3.8726,-0.0903,-0.7614,523.68,-953.31,1717.22
11940,-3.8726,-0.0890,-0.7649,445.56,-1437.68,-1892.15
11950,-3.8726,-0.0873,-0.7677,617.43,-1890.81,-1610.90
11960,-3.8726,-0.0865,-0.7697,836.18,1749.82,-1564.03
11970,-3.8726,-0.0859,-0.7690,929.93,1499.82,-1454.65
11980,-3.8726,-0.0864,-0.7662,1008.06,1577.94,-1142.15
11990,-3.8726,-0.0895,-0.7626,945.56,1937.32,-798.40
12000,-3.8726,-0.0931,-0.7593,554.93,-1593.93,-767.15
12010,-3.8726,-0.0945,-0.7567,86.18,-1172.06,-1267.15
12020,-3.8726,-0.0934,-0.7551,-85.69,-843.99,1951.60
12030,-3.8726,-0.0903,-0.7534,54.93,-640.81,1185.97
12040,-3.8726,-0.0872,-0.7506,445.56,-422.06,779.72
12050,-3.8726,-0.0846,-0.7485,851.81,-62.68,795.35
12060,-3.8726,-0.0829,-0.7490,1179.93,202.94,982.91
12070,-3.8726,-0.0824,-0.7512,1398.68,140.44,1170.41
12080,-3.8726,-0.0829,-0.7528,1461.18,-140.81,1295.35
12090,-3.8726,-0.0841,-0.7516,1398.68,-343.93,1467.22
12100,-3.8726,-0.0848,-0.7512,1242.43,-187.68,1654.72
12110,-3.8726,-0.0862,-0.7533,1148.68,-140.81,1842.22
12120,-3.8726,-0.0897,-0.7559,976.81,-406.43,-1985.90
12130,-3.8726,-0.0931,-0.7593,523.68,-734.56,-1954.65
12140,-3.8726,-0.0930,-0.7631,86.18,-1172.06,-1939.03
12150,-3.8726,-0.0906,-0.7654,101.81,-1656.43,1935.97
12160,-3.8726,-0.0884,-0.7656,414.31,-1953.31,1639.10
12170,-3.8726,-0.0870,-0.7646,695.56,-1984.56,1482.85
12180,-3.8726,-0.0862,-0.7621,867.43,-1859.56,1607.85
12190,-3.8726,-0.0845,-0.7596,976.81,-1531.43,1873.47
12200,-3.8726,-0.0829,-0.7596,1195.56,-1218.93,-1860.90
12210,-3.8726,-0.0834,-0.7605,1398.68,-1218.93,-1626.53
12220,-3.8726,-0.0858,-0.7609,1336.18,-1328.31,-1376.53
12230,-3.8726,-0.0892,-0.7607,1023.68,-1375.18,-1314.03
12240,-3.8726,-0.0928,-0.7588,586.18,-1359.56,-1470.28
12250,-3.8726,-0.0952,-0.7552,133.06,-1109.56,-1673.40
12260,-3.8726,-0.0958,-0.7520,-179.44,-656.49,1998.47
12270,-3.8726,-0.0952,-0.7515,-257.57,-234.62,1545.35
12280,-3.8726,-0.0941,-0.7538,-179.44,-172.12,1295.35
12290,-3.8726,-0.0913,-0.7570,-38.82,-468.99,1389.10
12300,-3.8726,-0.0868,-0.7605,320.56,-875.18,1717.22
12310,-3.8726,-0.0835,-0.7640,898.68,-1328.31,-1860.90
12320,-3.8726,-0.0826,-0.7655,1320.56,-1781.43,-1454.65
12330,-3.8726,-0.0834,-0.7651,1429.93,-1968.93,-1314.03
12340,-3.8726,-0.0844,-0.7644,1336.18,-1922.06,-1564.03
12350,-3.8726,-0.0851,-0.7629,1211.18,-1828.31,1982.85
12360,-3.8726,-0.0854,-0.7595,1117.43,-1640.81,1529.72
12370,-3.8726,-0.0846,-0.7568,1070.56,-1203.31,1295.35
12380,-3.8726,-0.0826,-0.7577,1179.93,-859.56,1217.22
12390,-3.8726,-0.0811,-0.7593,1429.93,-968.93,1357.85
12400,-3.8726,-0.0817,-0.7589,1633.06,-1172.06,1795.35
12410,-3.8726,-0.0835,-0.7570,1554.93,-1125.18,-1735.90
12420,-3.8726,-0.0857,-0.7549,1320.56,-875.18,-1360.90
12430,-3.8726,-0.0883,-0.7542,1039.31,-609.56,-1189.03
12440,-3.8726,-0.0909,-0.7534,711.18,-515.81,-1251.53
12450,-3.8726,-0.0928,-0.7529,367.43,-422.06,-1298.40
12460,-3.8726,-0.0928,-0.7528,133.06,-359.56,-1423.40
12470,-3.8726,-0.0909,-0.7520,133.06,-343.93,-1735.90
12480,-3.8726,-0.0878,-0.7507,367.43,-234.56,1857.85
12490,-3.8726,-0.0840,-0.7509,773.68,-78.31,1560.97
12500,-3.8726,-0.0808,-0.7529,1258.06,-93.93,1592.22
12510,-3.8726,-0.0789,-0.7574,1664.31,-359.56,1935.97
12520,-3.8726,-0.0776,-0.7626,1914.31,-937.68,-1517.15
12530,-3.8726,-0.0774,-0.7656,-1929.44,-1593.93,-1017.15
12540,-3.8726,-0.0771,-0.7671,-1898.19,-1984.56,-923.40
12550,-3.8726,-0.0770,-0.7667,-1866.94,1827.94,-1360.90
12560,-3.8726,-0.0767,-0.7635,-1851.32,1874.82,-1970.28
12570,-3.8726,-0.0758,-0.7590,-1804.44,-1718.93,1607.85
12580,-3.8726,-0.0757,-0.7555,-1695.07,-1140.81,1498.47
12590,-3.8726,-0.0764,-0.7545,-1679.44,-687.68,1373.47
12600,-3.8726,-0.0780,-0.7555,-1773.19,-562.68,1029.72
12610,-3.8726,-0.0801,-0.7568,-1976.32,-687.68,592.22
12620,-3.8726,-0.0820,-0.7567,1758.06,-859.56,295.35
12630,-3.8726,-0.0820,-0.7555,1508.06,-843.93,342.22
12640,-3.8726,-0.0780,-0.7542,1508.06,-687.68,514.10
12650,-3.8726,-0.0719,-0.7533,-1976.32,-515.81,592.22
12660,-3.8726,-0.0677,-0.7524,-1195.07,-406.43,795.35
12670,-3.8726,-0.0680,-0.7510,-663.82,-297.06,1248.47
12680,-3.8726,-0.0731,-0.7499,-695.07,-109.56,1764.10
12690,-3.8726,-0.0825,-0.7506,-1351.32,31.07,-1782.71
12700,-3.8726,-0.0935,-0.7526,1445.56,-62.68,-1345.28
12710,-3.8726,-0.1019,-0.7542,39.31,-312.68,-907.78
12720,-3.8726,-0.1058,-0.7562,-1038.82,-515.87,-579.65
12730,-3.8726,-0.1045,-0.7585,-1538.82,-781.49,-439.03
12740,-3.8726,-0.0983,-0.7587,-1366.94,-1078.37,-485.90
12750,-3.8726,-0.0914,-0.7579,-570.07,-1093.99,-626.53
12760,-3.8726,-0.0863,-0.7567,304.93,-1000.18,-673.40
12770,-3.8726,-0.0826,-0.7555,961.18,-843.93,-657.78
12780,-3.8726,-0.0806,-0.7559,1429.93,-687.68,-595.28
12790,-3.8726,-0.0804,-0.7565,1695.56,-734.56,-501.53
12800,-3.8726,-0.0815,-0.7563,1711.18,-812.68,-610.90
12810,-3.8726,-0.0830,-0.7560,1570.56,-797.06,-1001.53
12820,-3.8726,-0.0840,-0.7565,1383.06,-750.18,-1626.53
12830,-3.8726,-0.0844,-0.7581,1258.06,-812.68,1717.22
12840,-3.8726,-0.0839,-0.7589,1211.18,-1015.81,1139.10
12850,-3.8726,-0.0817,-0.7579,1273.68,-1125.18,748.47
12860,-3.8726,-0.0780,-0.7584,1554.93,-1000.18,623.47
12870,-3.8726,-0.0737,-0.7605,-1976.32,-1062.68,810.97
12880,-3.8726,-0.0715,-0.7634,-1429.44,-1328.31,1123.47
12890,-3.8726,-0.0728,-0.7660,-1148.19,-1703.31,1545.35
12900,-3.8726,-0.0762,-0.7664,-1304.44,1968.57,1935.97
12910,-3.8726,-0.0814,-0.7646,-1741.94,1921.69,-1845.28
12920,-3.8726,-0.0861,-0.7625,1586.18,-1859.56,-1860.90
12930,-3.8726,-0.0868,-0.7603,992.43,-1578.31,1920.35
12940,-3.8726,-0.0846,-0.7578,898.68,-1297.06,1748.47
12950,-3.8726,-0.0830,-0.7556,1179.93,-984.56,1732.85
12960,-3.8726,-0.0841,-0.7545,1383.06,-703.31,1904.72
12970,-3.8726,-0.0870,-0.7539,1242.43,-562.68,-1735.90
12980,-3.8726,-0.0905,-0.7538,867.43,-484.56,-1454.65
12990,-3.8726,-0.0935,-0.7548,429.93,-468.93,-1298.40
13000,-3.8726,-0.0950,-0.7557,39.31,-593.93,-1392.15
13010,-3.8726,-0.0950,-0.7562,-148.19,-718.99,-1642.15
13020,-3.8726,-0.0938,-0.7576,-148.19,-781.49,-1720.28
13030,-3.8726,-0.0916,-0.7585,8.06,-953.31,-1657.78
13040,-3.8726,-0.0894,-0.7574,289.31,-1078.31,-1548.40
13050,-3.8726,-0.0865,-0.7563,570.56,-937.68,-1610.90
13060,-3.8726,-0.0824,-0.7557,929.93,-797.06,-1939.03
13070,-3.8726,-0.0793,-0.7556,1461.18,-718.93,1639.10
13080,-3.8726,-0.0798,-0.7555,1851.81,-703.31,1389.10
13090,-3.8726,-0.0836,-0.7562,1789.31,-687.68,1435.97
13100,-3.8726,-0.0886,-0.7568,1304.93,-781.43,1639.10
13110,-3.8726,-0.0918,-0.7578,664.31,-859.56,1779.72
13120,-3.8726,-0.0917,-0.7607,258.06,-984.56,1842.22
13130,-3.8726,-0.0883,-0.7639,273.68,-1359.56,1857.85
13140,-3.8726,-0.0839,-0.7648,711.18,-1765.81,1889.10
13150,-3.8726,-0.0818,-0.7626,1273.68,-1875.18,-1939.03
13160,-3.8726,-0.0830,-0.7595,1539.31,-1593.93,-1595.28
13170,-3.8726,-0.0859,-0.7576,1383.06,-1203.31,-1329.65
13180,-3.8726,-0.0884,-0.7561,1008.06,-953.31,-1282.78
13190,-3.8726,-0.0901,-0.7546,695.56,-765.81,-1454.65
13200,-3.8726,-0.0905,-0.7538,476.81,-578.31,-1860.90
13210,-3.8726,-0.0881,-0.7542,429.93,-468.93,1639.10
13220,-3.8726,-0.0850,-0.7548,726.81,-515.81,1295.35
13230,-3.8726,-0.0837,-0.7557,1133.06,-593.93,1092.22
13240,-3.8726,-0.0848,-0.7573,1289.31,-718.93,1170.35
13250,-3.8726,-0.0865,-0.7585,1148.68,-922.06,1748.47
13260,-3.8726,-0.0872,-0.7589,929.93,-1078.31,-1548.40
13270,-3.8726,-0.0867,-0.7604,851.81,-1125.18,-1157.78
13280,-3.8726,-0.0851,-0.7629,914.31,-1312.68,-1345.28
13290,-3.8726,-0.0835,-0.7638,1117.43,-1640.81,-1876.53
13300,-3.8726,-0.0837,-0.7628,1320.56,-1750.18,1654.72
13310,-3.8726,-0.0864,-0.7609,1289.31,-1625.18,1357.85
13320,-3.8726,-0.0890,-0.7585,945.56,-1375.18,1248.47
13330,-3.8726,-0.0883,-0.7561,617.43,-1078.31,1357.85
13340,-3.8726,-0.0839,-0.7543,711.18,-765.81,1576.60
13350,-3.8726,-0.0801,-0.7533,1273.68,-531.43,1685.97
13360,-3.8726,-0.0798,-0.7527,1758.06,-406.43,1623.47
13370,-3.8726,-0.0826,-0.7535,1789.31,-328.31,1435.97
13380,-3.8726,-0.0865,-0.7552,1429.93,-437.68,1310.97
13390,-3.8726,-0.0907,-0.7568,929.93,-656.43,1435.97
13400,-3.8726,-0.0936,-0.7581,398.68,-859.56,1826.60
13410,-3.8726,-0.0944,-0.7594,23.68,-1015.81,-1673.40
13420,-3.8726,-0.0929,-0.7614,-70.07,-1187.74,-1157.78
13430,-3.8726,-0.0903,-0.7632,117.43,-1437.68,-814.03
13440,-3.8726,-0.0894,-0.7627,445.56,-1672.06,-673.40
13450,-3.8726,-0.0900,-0.7605,570.56,-1609.56,-735.90
13460,-3.8726,-0.0900,-0.7574,492.43,-1328.31,-1064.03
13470,-3.8726,-0.0897,-0.7540,492.43,-937.68,-1454.65
13480,-3.8726,-0.0897,-0.7520,523.68,-500.18,-1814.03
13490,-3.8726,-0.0901,-0.7517,523.68,-234.56,1920.35
13500,-3.8726,-0.0898,-0.7531,476.81,-203.31,1857.85
13510,-3.8726,-0.0885,-0.7552,508.06,-375.18,1795.35
13520,-3.8726,-0.0864,-0.7570,679.93,-656.43,1639.10
13530,-3.8726,-0.0845,-0.7568,945.56,-875.18,1607.85
13540,-3.8726,-0.0837,-0.7561,1195.56,-859.56,1607.85
13550,-3.8726,-0.0844,-0.7561,1289.31,-765.81,1623.47
13560,-3.8726,-0.0853,-0.7561,1211.18,-765.81,1748.47
13570,-3.8726,-0.0863,-0.7555,1086.18,-765.81,1873.47
13580,-3.8726,-0.0867,-0.7554,961.18,-687.68,1982.85
13590,-3.8726,-0.0864,-0.7571,914.31,-672.06,-1939.03
13600,-3.8726,-0.0868,-0.7598,945.56,-890.81,-1892.15
13610,-3.8726,-0.0885,-0.7614,898.68,-1234.56,-1845.28
13620,-3.8726,-0.0917,-0.7623,679.93,-1437.68,-1782.78
13630,-3.8726,-0.0940,-0.7631,273.68,-1562.68,-1657.78
13640,-3.8726,-0.0934,-0.7629,-23.19,-1656.49,-1548.40
13650,-3.8726,-0.0895,-0.7616,54.93,-1640.81,-1579.65
13660,-3.8726,-0.0840,-0.7593,554.93,-1468.93,-1814.03
13670,-3.8726,-0.0801,-0.7565,1258.06,-1172.06,1857.85
13680,-3.8726,-0.0797,-0.7544,1758.06,-812.68,1545.35
13690,-3.8726,-0.0822,-0.7538,1804.93,-547.06,1373.47
13700,-3.8726,-0.0856,-0.7538,1492.43,-468.93,1373.47
13710,-3.8726,-0.0894,-0.7544,1054.93,-468.93,1623.47
13720,-3.8726,-0.0928,-0.7550,570.56,-547.06,1920.35
13730,-3.8726,-0.0939,-0.7565,133.06,-625.18,1998.47
13740,-3.8726,-0.0917,-0.7585,-7.57,-812.74,1935.97
13750,-3.8726,-0.0884,-0.7596,273.68,-1078.31,1826.60
13760,-3.8726,-0.0861,-0.7599,695.56,-1218.93,1826.60
13770,-3.8726,-0.0851,-0.7598,992.43,-1250.18,-1907.78
13780,-3.8726,-0.0859,-0.7592,1117.43,-1234.56,-1517.15
13790,-3.8726,-0.0878,-0.7584,1008.06,-1156.43,-1470.28
13800,-3.8726,-0.0879,-0.7571,773.68,-1062.68,-1829.65
13810,-3.8726,-0.0872,-0.7543,758.06,-890.81,1732.85
13820,-3.8726,-0.0857,-0.7517,851.81,-531.43,1326.60
13830,-3.8726,-0.0836,-0.7517,1039.31,-203.31,1185.97
13840,-3.8726,-0.0829,-0.7533,1304.93,-203.31,1389.10
13850,-3.8726,-0.0852,-0.7559,1398.68,-406.43,1685.97
13860,-3.8726,-0.0902,-0.7603,1101.81,-734.56,1998.47
13870,-3.8726,-0.0942,-0.7653,461.18,-1297.06,-1782.78
13880,-3.8726,-0.0952,-0.7682,-54.44,-1937.74,-1657.78
13890,-3.8726,-0.0934,-0.7678,-179.44,1687.26,-1517.15
13900,-3.8726,-0.0901,-0.7651,54.93,1734.19,-1314.03
13910,-3.8726,-0.0869,-0.7631,476.81,-1922.06,-1220.28
13920,-3.8726,-0.0846,-0.7620,883.06,-1656.43,-1501.53
13930,-3.8726,-0.0839,-0.7596,1179.93,-1515.81,1998.47
13940,-3.8726,-0.0850,-0.7560,1273.68,-1218.93,1498.47
13950,-3.8726,-0.0864,-0.7534,1133.06,-750.18,1014.10
13960,-3.8726,-0.0857,-0.7522,945.56,-422.06,607.85
13970,-3.8726,-0.0828,-0.7507,1039.31,-265.81,295.35
13980,-3.8726,-0.0798,-0.7507,1414.31,-78.31,139.10
13990,-3.8726,-0.0789,-0.7522,1789.31,-78.31,295.35
14000,-3.8726,-0.0809,-0.7537,1914.31,-265.81,795.35
14010,-3.8726,-0.0858,-0.7554,1648.68,-453.31,1607.85
14020,-3.8726,-0.0920,-0.7578,1023.68,-672.06,-1485.90
14030,-3.8726,-0.0984,-0.7609,226.81,-984.56,-829.65
14040,-3.8726,-0.1018,-0.7631,-585.69,-1375.24,-517.15
14050,-3.8726,-0.1018,-0.7648,-1023.19,-1656.49,-501.53
14060,-3.8726,-0.0990,-0.7656,-1023.19,-1875.24,-626.53
14070,-3.8726,-0.0928,-0.7657,-663.82,-1984.62,-970.28
14080,-3.8726,-0.0854,-0.7646,133.06,1999.82,-1564.03
14090,-3.8726,-0.0808,-0.7606,1070.56,-1859.56,1920.35
14100,-3.8726,-0.0792,-0.7559,1664.31,-1343.93,1482.85
14110,-3.8726,-0.0784,-0.7531,1867.43,-734.56,1123.47
14120,-3.8726,-0.0771,-0.7533,1976.81,-375.18,904.72
14130,-3.8726,-0.0768,-0.7551,-1866.94,-406.43,873.47
14140,-3.8726,-0.0775,-0.7572,-1820.07,-640.81,982.85
14150,-3.8726,-0.0795,-0.7598,-1913.82,-906.43,1232.85
14160,-3.8726,-0.0829,-0.7622,1836.18,-1234.56,1451.60
14170,-3.8726,-0.0874,-0.7640,1398.68,-1547.06,1592.22
14180,-3.8726,-0.0908,-0.7655,820.56,-1781.43,1748.47
14190,-3.8726,-0.0916,-0.7661,383.06,-1968.93,1998.47
14200,-3.8726,-0.0905,-0.7644,289.31,1952.94,-1845.28
14210,-3.8726,-0.0879,-0.7610,429.93,-1828.31,-1939.03
14220,-3.8726,-0.0840,-0.7584,758.06,-1390.81,1889.10
14230,-3.8726,-0.0804,-0.7582,1258.06,-1062.68,1935.97
14240,-3.8726,-0.0787,-0.7593,1711.18,-1031.43,-1970.28
14250,-3.8726,-0.0789,-0.7594,1929.93,-1172.06,1935.97
14260,-3.8726,-0.0802,-0.7578,1914.31,-1187.68,1779.72
14270,-3.8726,-0.0820,-0.7568,1742.43,-984.56,1529.72
14280,-3.8726,-0.0844,-0.7570,1508.06,-859.56,1185.97
14290,-3.8726,-0.0863,-0.7568,1211.18,-875.18,857.85
14300,-3.8726,-0.0862,-0.7565,961.18,-859.56,639.10
14310,-3.8726,-0.0842,-0.7574,976.81,-812.68,654.72
14320,-3.8726,-0.0817,-0.7587,1226.81,-937.68,732.85
14330,-3.8726,-0.0798,-0.7592,1554.93,-1093.93,795.35
14340,-3.8726,-0.0797,-0.7594,1789.31,-1156.43,904.72
14350,-3.8726,-0.0808,-0.7595,1804.93,-1187.68,1154.72
14360,-3.8726,-0.0817,-0.7601,1664.31,-1203.31,1467.22
14370,-3.8726,-0.0825,-0.7609,1554.93,-1281.43,1795.35
14380,-3.8726,-0.0837,-0.7616,1445.56,-1375.18,-1985.90
14390,-3.8726,-0.0859,-0.7617,1289.31,-1468.93,-1814.03
14400,-3.8726,-0.0892,-0.7606,1008.06,-1484.56,-1610.90
14410,-3.8726,-0.0934,-0.7593,586.18,-1343.93,-1470.28
14420,-3.8726,-0.0969,-0.7584,54.93,-1172.06,-1423.40
14430,-3.8726,-0.0972,-0.7584,-398.19,-1062.74,-1407.78
14440,-3.8726,-0.0948,-0.7590,-429.44,-1062.74,-1517.15
14450,-3.8726,-0.0918,-0.7594,-132.57,-1140.87,-1689.03
14460,-3.8726,-0.0891,-0.7599,258.06,-1187.68,-1798.40
14470,-3.8726,-0.0869,-0.7604,601.81,-1250.18,-1876.53
14480,-3.8726,-0.0839,-0.7590,883.06,-1312.68,-1970.28
14490,-3.8726,-0.0814,-0.7584,1273.68,-1140.81,-1939.03
14500,-3.8726,-0.0814,-0.7604,1586.18,-1062.68,-1782.78
14510,-3.8726,-0.0846,-0.7622,1586.18,-1312.68,-1642.15
14520,-3.8726,-0.0884,-0.7631,1179.93,-1547.06,-1735.90
14530,-3.8726,-0.0903,-0.7639,695.56,-1656.43,1873.47
14540,-3.8726,-0.0901,-0.7649,445.56,-1765.81,1310.97
14550,-3.8726,-0.0876,-0.7646,476.81,-1890.81,732.85
14560,-3.8726,-0.0854,-0.7639,789.31,-1859.56,498.47
14570,-3.8726,-0.0848,-0.7638,1070.56,-1765.81,576.60
14580,-3.8726,-0.0839,-0.7640,1148.68,-1750.18,654.72
14590,-3.8726,-0.0818,-0.7653,1273.68,-1781.43,764.10
14600,-3.8726,-0.0800,-0.7662,1539.31,-1937.68,998.47
14610,-3.8726,-0.0793,-0.7660,1773.68,1937.32,1279.72
14620,-3.8726,-0.0811,-0.7644,1851.81,1968.57,1514.10
14630,-3.8726,-0.0862,-0.7629,1633.06,-1828.31,1873.47
14640,-3.8726,-0.0929,-0.7627,976.81,-1640.81,-1610.90
14650,-3.8726,-0.0981,-0.7618,117.43,-1609.56,-1392.15
14660,-3.8726,-0.1008,-0.7599,-554.44,-1500.24,-1517.15
14670,-3.8726,-0.1007,-0.7576,-898.19,-1250.24,-1845.28
14680,-3.8726,-0.0981,-0.7557,-882.57,-953.37,1748.47
14690,-3.8726,-0.0941,-0.7551,-554.44,-718.99,1404.72
14700,-3.8726,-0.0895,-0.7559,-38.82,-640.87,1170.35
14710,-3.8726,-0.0863,-0.7572,554.93,-734.56,951.60
14720,-3.8726,-0.0854,-0.7592,961.18,-906.43,764.10
14730,-3.8726,-0.0862,-0.7614,1070.56,-1156.43,795.35
14740,-3.8726,-0.0868,-0.7633,976.81,-1437.68,1107.85
14750,-3.8726,-0.0865,-0.7642,898.68,-1687.68,1607.85
14760,-3.8726,-0.0858,-0.7643,929.93,-1797.06,1920.35
14770,-3.8726,-0.0846,-0.7655,1023.68,-1812.68,1998.47
14780,-3.8726,-0.0835,-0.7675,1179.93,-1968.93,1826.60
14790,-3.8726,-0.0848,-0.7687,1320.56,1781.07,1420.35
14800,-3.8726,-0.0883,-0.7681,1148.68,1624.82,998.47
14810,-3.8726,-0.0911,-0.7656,711.18,1702.94,717.22
14820,-3.8726,-0.0920,-0.7623,351.81,-1984.56,529.72
14830,-3.8726,-0.0917,-0.7601,226.81,-1562.68,623.47
14840,-3.8726,-0.0900,-0.7595,273.68,-1281.43,873.47
14850,-3.8726,-0.0863,-0.7598,492.43,-1203.31,951.60
14860,-3.8726,-0.0834,-0.7611,961.18,-1234.56,951.60
14870,-3.8726,-0.0848,-0.7626,1336.18,-1406.43,1154.72
14880,-3.8726,-0.0901,-0.7623,1148.68,-1593.93,1576.60
14890,-3.8726,-0.0958,-0.7585,476.81,-1562.68,-1985.90
14900,-3.8726,-0.1008,-0.7585,-257.57,-1078.37,-1751.53
14910,-3.8726,-0.1031,-0.7638,-898.19,-1078.37,-1860.90
14920,-3.8726,-0.1027,-0.7618,-1195.07,-1750.24,1951.60
14930,-3.8726,-0.0994,-0.7562,-1132.57,-1500.24,1779.72
14940,-3.8726,-0.0941,-0.7533,-710.69,-781.49,1717.22
14950,-3.8726,-0.0895,-0.7509,-38.82,-406.49,1560.97
14960,-3.8726,-0.0876,-0.7509,554.93,-93.93,1060.97
14970,-3.8726,-0.0887,-0.7531,789.31,-93.93,576.60
14980,-3.8726,-0.0897,-0.7557,648.68,-375.18,451.60
14990,-3.8726,-0.0892,-0.7579,523.68,-718.93,607.85
15000,-3.8726,-0.0884,-0.7593,586.18,-1000.18,842.22
15010,-3.8726,-0.0886,-0.7609,695.56,-1172.06,1107.85
15020,-3.8726,-0.0891,-0.7629,664.31,-1375.18,1357.85
15030,-3.8726,-0.0905,-0.7649,601.81,-1640.81,1623.47
15040,-3.8726,-0.0927,-0.7662,429.93,-1890.81,1779.72
15050,-3.8726,-0.0950,-0.7670,148.68,1937.32,1826.60
15060,-3.8726,-0.0957,-0.7679,-148.19,1843.51,1685.97
15070,-3.8726,-0.0944,-0.7689,-241.94,1718.51,1404.72
15080,-3.8726,-0.0916,-0.7694,-70.07,1593.51,1232.85
15090,-3.8726,-0.0876,-0.7688,289.31,1531.07,1201.60
15100,-3.8726,-0.0850,-0.7670,789.31,1609.19,1076.60
15110,-3.8726,-0.0846,-0.7646,1133.06,1843.57,904.72
15120,-3.8726,-0.0854,-0.7634,1179.93,-1859.56,857.85
15130,-3.8726,-0.0874,-0.7629,1070.56,-1703.31,982.85
15140,-3.8726,-0.0903,-0.7628,820.56,-1640.81,1123.47
15150,-3.8726,-0.0924,-0.7634,445.56,-1625.18,1170.35
15160,-3.8726,-0.0924,-0.7635,179.93,-1703.31,1076.60
15170,-3.8726,-0.0898,-0.7631,179.93,-1718.93,935.97
15180,-3.8726,-0.0868,-0.7632,508.06,-1656.43,842.22
15190,-3.8726,-0.0865,-0.7627,898.68,-1672.06,842.22
15200,-3.8726,-0.0875,-0.7615,929.93,-1609.56,889.10
15210,-3.8726,-0.0890,-0.7605,804.93,-1453.31,904.72
15220,-3.8726,-0.0907,-0.7603,617.43,-1328.31,810.97
15230,-3.8726,-0.0912,-0.7595,398.68,-1297.06,748.47
15240,-3.8726,-0.0916,-0.7582,336.18,-1203.31,842.22
15250,-3.8726,-0.0920,-0.7576,289.31,-1031.43,889.10
15260,-3.8726,-0.0911,-0.7589,226.81,-953.31,920.35
15270,-3.8726,-0.0891,-0.7605,351.81,-1125.18,1139.10
15280,-3.8726,-0.0879,-0.7612,601.81,-1328.31,1389.10
15290,-3.8726,-0.0892,-0.7622,758.06,-1422.06,1498.47
15300,-3.8726,-0.0920,-0.7638,586.18,-1547.06,1545.35
15310,-3.8726,-0.0946,-0.7646,226.81,-1750.18,1623.47
15320,-3.8726,-0.0962,-0.7644,-101.32,-1859.62,1732.85
15330,-3.8726,-0.0968,-0.7626,-304.44,-1828.37,1779.72
15340,-3.8726,-0.0972,-0.7605,-382.57,-1593.99,1795.35
15350,-3.8726,-0.0964,-0.7598,-429.44,-1328.37,1889.10
15360,-3.8726,-0.0940,-0.7603,-335.69,-1234.62,1873.47
15370,-3.8726,-0.0916,-0.7601,-23.19,-1297.12,1748.47
15380,-3.8726,-0.0907,-0.7600,289.31,-1281.43,1560.97
15390,-3.8726,-0.0900,-0.7614,398.68,-1265.81,1201.60
15400,-3.8726,-0.0887,-0.7629,492.43,-1437.68,732.85
15410,-3.8726,-0.0865,-0.7637,648.68,-1640.81,467.22
15420,-3.8726,-0.0836,-0.7640,929.93,-1734.56,576.60
15430,-3.8726,-0.0813,-0.7635,1304.93,-1781.43,826.60
15440,-3.8726,-0.0806,-0.7629,1601.81,-1718.93,1170.35
15450,-3.8726,-0.0820,-0.7633,1695.56,-1640.81,1560.97
15460,-3.8726,-0.0845,-0.7642,1508.06,-1687.68,1701.60
15470,-3.8726,-0.0865,-0.7644,1195.56,-1797.06,1623.47
15480,-3.8726,-0.0878,-0.7639,929.93,-1828.31,1420.35
15490,-3.8726,-0.0881,-0.7635,773.68,-1765.81,1170.35
15500,-3.8726,-0.0887,-0.7631,726.81,-1718.93,1154.72
15510,-3.8726,-0.0903,-0.7629,648.68,-1656.43,1451.60
15520,-3.8726,-0.0914,-0.7633,445.56,-1640.81,1607.85
15530,-3.8726,-0.0903,-0.7643,304.93,-1687.68,1389.10
15540,-3.8726,-0.0879,-0.7643,445.56,-1812.68,1045.35
15550,-3.8726,-0.0852,-0.7620,758.06,-1812.68,826.60
15560,-3.8726,-0.0822,-0.7590,1101.81,-1515.81,904.72
15570,-3.8726,-0.0796,-0.7576,1492.43,-1140.81,1217.22
15580,-3.8726,-0.0784,-0.7589,1820.56,-953.31,1639.10
15590,-3.8726,-0.0800,-0.7620,1976.81,-1125.18,-1939.03
15600,-3.8726,-0.0850,-0.7649,1773.68,-1515.81,-1642.15
15610,-3.8726,-0.0911,-0.7668,1133.06,-1890.81,-1579.65
15620,-3.8726,-0.0951,-0.7672,351.81,1859.19,-1735.90
15630,-3.8726,-0.0955,-0.7662,-163.82,1812.26,-1985.90
15640,-3.8726,-0.0924,-0.7653,-210.69,1937.26,1764.10
15650,-3.8726,-0.0865,-0.7642,179.93,-1937.68,1545.35
15660,-3.8726,-0.0785,-0.7637,929.93,-1797.06,1435.97
15670,-3.8726,-0.0721,-0.7646,1961.18,-1734.56,1498.47
15680,-3.8726,-0.0696,-0.7661,-1226.32,-1859.56,1639.10
15690,-3.8726,-0.0723,-0.7666,-898.19,1952.94,1670.35
15700,-3.8726,-0.0779,-0.7659,-1241.94,1890.44,1467.22
15710,-3.8726,-0.0819,-0.7633,-1960.69,1984.19,1139.10
15720,-3.8726,-0.0829,-0.7592,1523.68,-1687.68,685.97
15730,-3.8726,-0.0807,-0.7556,1398.68,-1156.43,217.22
15740,-3.8727,-0.0778,-0.7534,1679.93,-703.31,-32.78
15750,-3.8726,-0.0767,-0.7533,-1945.07,-422.06,201.60
15760,-3.8726,-0.0790,-0.7551,-1804.44,-406.43,685.97
15770,-3.8726,-0.0830,-0.7578,1898.68,-640.81,1045.35
15780,-3.8726,-0.0851,-0.7603,1383.06,-984.56,1045.35
15790,-3.8726,-0.0839,-0.7603,1117.43,-1297.06,1014.10
15800,-3.8726,-0.0796,-0.7578,1273.68,-1297.06,1279.72
15810,-3.8726,-0.0752,-0.7551,1820.56,-984.56,1748.47
15820,-3.8726,-0.0748,-0.7544,-1616.94,-640.81,-1595.28
15830,-3.8726,-0.0789,-0.7566,-1570.07,-547.06,-829.65
15840,-3.8726,-0.0851,-0.7603,1914.31,-828.31,-220.28
15850,-3.8726,-0.0903,-0.7645,1117.43,-1297.06,-95.28
15860,-3.8726,-0.0914,-0.7677,445.56,-1843.93,-564.03
15870,-3.8726,-0.0889,-0.7687,304.93,1749.82,-1548.40
15880,-3.8726,-0.0833,-0.7673,633.06,1624.82,1373.47
15890,-3.8726,-0.0754,-0.7638,1351.81,1796.69,514.10
15900,-3.8726,-0.0696,-0.7590,-1648.19,-1750.18,29.72
15910,-3.8727,-0.0675,-0.7557,-898.19,-1140.81,-126.53
15920,-3.8727,-0.0663,-0.7556,-632.57,-718.93,-110.90
15930,-3.8726,-0.0643,-0.7573,-476.32,-703.31,107.85
15940,-3.8726,-0.0624,-0.7589,-226.32,-922.06,389.10
15950,-3.8726,-0.0607,-0.7603,23.68,-1125.12,685.97
15960,-3.8726,-0.0605,-0.7599,242.43,-1297.00,1014.10
15970,-3.8726,-0.0638,-0.7587,258.06,-1250.12,1514.10
15980,-3.8726,-0.0702,-0.7590,-163.82,-1093.93,-1970.28
15990,-3.8726,-0.0776,-0.7589,-976.32,-1140.81,-1751.53
16000,-3.8726,-0.0845,-0.7578,-1929.44,-1125.18,-1845.28
16010,-3.8726,-0.0895,-0.7582,1195.56,-984.56,1795.35
16020,-3.8726,-0.0914,-0.7599,554.93,-1031.43,1560.97
16030,-3.8726,-0.0905,-0.7607,304.93,-1250.18,1529.72
16040,-3.8726,-0.0878,-0.7615,429.93,-1359.56,1514.10
16050,-3.8726,-0.0846,-0.7632,773.68,-1453.31,1560.97
16060,-3.8726,-0.0812,-0.7657,1179.93,-1672.06,1685.97
16070,-3.8726,-0.0778,-0.7682,1617.43,1999.82,1904.72
16080,-3.8726,-0.0745,-0.7694,-1945.07,1687.32,-1782.78
16090,-3.8726,-0.0728,-0.7682,-1523.19,1531.07,-1517.15
16100,-3.8726,-0.0736,-0.7649,-1304.44,1687.32,-1439.03
16110,-3.8726,-0.0757,-0.7601,-1413.82,-1890.81,-1626.53
16120,-3.8726,-0.0776,-0.7546,-1679.44,-1281.43,1842.22
16130,-3.8726,-0.0800,-0.7494,-1929.44,-578.31,1279.72
16140,-3.8726,-0.0826,-0.7463,1773.68,93.57,1029.79
16150,-3.8726,-0.0845,-0.7462,1429.93,484.19,1217.29
16160,-3.8726,-0.0851,-0.7491,1195.56,499.82,1639.16
16170,-3.8726,-0.0853,-0.7539,1117.43,124.82,-1985.84
16180,-3.8726,-0.0863,-0.7594,1086.18,-484.56,-1876.53
16190,-3.8726,-0.0876,-0.7638,961.18,-1187.68,1967.22
16200,-3.8726,-0.0869,-0.7675,789.31,-1750.18,1795.35
16210,-3.8726,-0.0831,-0.7700,883.06,1781.07,1889.10
16220,-3.8726,-0.0784,-0.7704,1367.43,1452.94,-1564.03
16230,-3.8726,-0.0751,-0.7706,1976.81,1406.07,-1017.15
16240,-3.8726,-0.0737,-0.7720,-1601.32,1374.82,-1001.53
16250,-3.8726,-0.0743,-0.7734,-1429.44,1202.94,-1532.78
16260,-3.8726,-0.0764,-0.7732,-1507.57,1015.44,1748.47
16270,-3.8726,-0.0793,-0.7716,-1773.19,1046.69,1092.22
16280,-3.8726,-0.0804,-0.7684,1851.81,1249.82,467.22
16290,-3.8727,-0.0787,-0.7621,1711.18,1656.07,-17.15
16300,-3.8727,-0.0763,-0.7560,1929.93,-1531.43,-110.90
16310,-3.8726,-0.0740,-0.7537,-1757.57,-750.18,139.10
16320,-3.8726,-0.0746,-0.7544,-1460.69,-453.31,623.47
16330,-3.8726,-0.0806,-0.7555,-1538.82,-547.06,1467.22
16340,-3.8726,-0.0878,-0.7566,1695.56,-687.68,-1642.15
16350,-3.8726,-0.0903,-0.7604,773.68,-828.31,-1298.40
16360,-3.8726,-0.0913,-0.7667,445.56,-1312.68,-1392.15
16370,-3.8726,-0.0948,-0.7688,320.56,1874.82,-1407.78
16380,-3.8726,-0.0978,-0.7661,-132.57,1609.13,-1267.15
16390,-3.8726,-0.0969,-0.7646,-507.57,1952.88,-1407.78
16400,-3.8726,-0.0931,-0.7644,-398.19,-1859.62,-1985.90
16410,-3.8726,-0.0889,-0.7627,86.18,-1828.31,1389.10
16420,-3.8726,-0.0840,-0.7612,633.06,-1609.56,1060.97
16430,-3.8726,-0.0782,-0.7617,1258.06,-1422.06,873.47
16440,-3.8726,-0.0734,-0.7628,1992.43,-1484.56,685.97
16450,-3.8726,-0.0695,-0.7631,-1382.57,-1625.18,514.10
16460,-3.8726,-0.0662,-0.7640,-882.57,-1656.43,264.10
16470,-3.8726,-0.0654,-0.7655,-460.69,-1781.43,14.10
16480,-3.8726,-0.0676,-0.7648,-366.94,-1968.93,14.10
16490,-3.8726,-0.0703,-0.7633,-648.19,-1875.18,92.22
16500,-3.8727,-0.0732,-0.7634,-991.94,-1687.68,-17.15
16510,-3.8727,-0.0767,-0.7634,-1366.94,-1703.31,-189.03
16520,-3.8727,-0.0800,-0.7622,-1804.44,-1703.31,-220.28
16530,-3.8727,-0.0823,-0.7625,1773.68,-1547.06,-95.28
16540,-3.8726,-0.0845,-0.7635,1476.81,-1578.31,326.60
16550,-3.8726,-0.0847,-0.7659,1195.56,-1718.93,1014.10
16560,-3.8726,-0.0850,-0.7682,1164.31,1984.19,1717.22
16570,-3.8726,-0.0878,-0.7676,1133.06,1687.32,-1501.53
16580,-3.8726,-0.0875,-0.7654,773.68,1765.44,-1017.15
16590,-3.8726,-0.0834,-0.7668,804.93,-1953.31,-1314.03
16600,-3.8726,-0.0836,-0.7687,1336.18,1859.19,-1751.53
16610,-3.8726,-0.0903,-0.7617,1304.93,1624.82,-1657.78
16620,-3.8726,-0.0972,-0.7539,445.56,-1484.56,-1595.28
16630,-3.8726,-0.0995,-0.7539,-429.44,-484.62,1701.60
16640,-3.8726,-0.0978,-0.7557,-726.32,-484.62,685.97
16650,-3.8727,-0.0920,-0.7543,-507.57,-718.99,-17.15
16660,-3.8727,-0.0820,-0.7537,226.81,-531.43,-329.65
16670,-3.8727,-0.0737,-0.7572,1508.06,-453.31,-282.78
16680,-3.8726,-0.0723,-0.7601,-1429.44,-906.43,201.60
16690,-3.8726,-0.0743,-0.7610,-1241.94,-1281.43,889.10
16700,-3.8726,-0.0790,-0.7634,-1507.57,-1390.81,1357.85
16710,-3.8726,-0.0862,-0.7671,1898.68,-1703.31,1607.85
16720,-3.8726,-0.0909,-0.7678,976.81,1827.94,1826.60
16730,-3.8726,-0.0907,-0.7686,367.43,1734.19,1951.60
16740,-3.8726,-0.0885,-0.7717,398.68,1640.44,1810.97
16750,-3.8726,-0.0856,-0.7721,679.93,1234.19,1467.22
16760,-3.8726,-0.0828,-0.7699,1054.93,1187.32,1076.60
16770,-3.8726,-0.0812,-0.7686,1414.31,1468.57,654.72
16780,-3.8726,-0.0800,-0.7677,1617.43,1640.44,373.47
16790,-3.8726,-0.0792,-0.7657,1773.68,1749.82,435.97
16800,-3.8726,-0.0792,-0.7635,1867.43,1999.82,764.10
16810,-3.8726,-0.0801,-0.7643,1867.43,-1718.93,1139.10
16820,-3.8726,-0.0807,-0.7660,1758.06,-1812.68,1451.60
16830,-3.8726,-0.0811,-0.7655,1679.93,1968.57,1467.22
16840,-3.8726,-0.0835,-0.7646,1633.06,-1968.93,1201.60
16850,-3.8726,-0.0868,-0.7645,1320.56,-1859.56,967.22
16860,-3.8726,-0.0890,-0.7634,898.68,-1843.93,982.85
16870,-3.8726,-0.0902,-0.7623,617.43,-1703.31,1139.10
16880,-3.8726,-0.0917,-0.7618,461.18,-1562.68,1435.97
16890,-3.8726,-0.0934,-0.7606,273.68,-1500.18,1857.85
16900,-3.8726,-0.0950,-0.7606,54.93,-1343.93,-1907.78
16910,-3.8726,-0.0938,-0.7618,-148.19,-1343.99,1857.85
16920,-3.8726,-0.0905,-0.7617,8.06,-1500.18,1373.47
16930,-3.8726,-0.0870,-0.7603,429.93,-1484.56,1045.35
16940,-3.8726,-0.0844,-0.7592,867.43,-1297.06,826.60
16950,-3.8726,-0.0819,-0.7598,1211.18,-1156.43,795.35
16960,-3.8726,-0.0797,-0.7607,1523.68,-1234.56,873.47
16970,-3.8726,-0.0793,-0.7625,1804.93,-1359.56,935.97
16980,-3.8726,-0.0798,-0.7644,1851.81,-1578.31,951.60
16990,-3.8726,-0.0808,-0.7643,1789.31,-1828.31,889.10
17000,-3.8726,-0.0817,-0.7634,1664.31,-1812.68,810.97
17010,-3.8726,-0.0813,-0.7640,1554.93,-1703.31,670.35
17020,-3.8726,-0.0817,-0.7655,1601.81,-1781.43,623.47
17030,-3.8726,-0.0848,-0.7664,1554.93,-1968.93,873.47
17040,-3.8726,-0.0894,-0.7665,1148.68,1921.69,1373.47
17050,-3.8726,-0.0933,-0.7660,570.56,1906.07,1889.10
17060,-3.8726,-0.0944,-0.7655,70.56,1968.57,-1860.90
17070,-3.8726,-0.0913,-0.7648,-70.07,-1968.99,-1939.03
17080,-3.8726,-0.0853,-0.7638,320.56,-1875.18,1810.97
17090,-3.8726,-0.0802,-0.7634,1086.18,-1750.18,1514.10
17100,-3.8726,-0.0787,-0.7631,1742.43,-1703.31,1248.47
17110,-3.8726,-0.0800,-0.7634,1929.93,-1656.43,935.97
17120,-3.8726,-0.0817,-0.7648,1773.68,-1703.31,576.60
17130,-3.8726,-0.0826,-0.7656,1554.93,-1875.18,482.85
17140,-3.8726,-0.0829,-0.7650,1429.93,-1984.56,748.47
17150,-3.8726,-0.0829,-0.7649,1398.68,-1906.43,1107.85
17160,-3.8726,-0.0829,-0.7657,1398.68,-1890.81,1201.60
17170,-3.8726,-0.0824,-0.7644,1398.68,1999.82,1014.10
17180,-3.8726,-0.0823,-0.7620,1461.18,-1828.31,967.22
17190,-3.8726,-0.0837,-0.7618,1476.81,-1515.81,1154.72
17200,-3.8726,-0.0857,-0.7628,1289.31,-1500.18,1389.10
17210,-3.8726,-0.0865,-0.7633,1039.31,-1625.18,1420.35
17220,-3.8726,-0.0869,-0.7643,929.93,-1687.68,1279.72
17230,-3.8726,-0.0864,-0.7648,883.06,-1812.68,1139.10
17240,-3.8726,-0.0858,-0.7640,945.56,-1875.18,1045.35
17250,-3.8726,-0.0854,-0.7625,1023.68,-1781.43,1060.97
17260,-3.8726,-0.0846,-0.7604,1070.56,-1578.31,1139.10
17270,-3.8726,-0.0847,-0.7585,1179.93,-1312.68,1060.97
17280,-3.8726,-0.0872,-0.7579,1164.31,-1078.31,857.85
17290,-3.8726,-0.0894,-0.7587,851.81,-1000.18,748.47
17300,-3.8726,-0.0894,-0.7610,570.56,-1093.93,764.10
17310,-3.8726,-0.0879,-0.7631,570.56,-1390.81,967.22
17320,-3.8726,-0.0856,-0.7635,758.06,-1656.43,1295.35
17330,-3.8726,-0.0840,-0.7629,1054.93,-1718.93,1592.22
17340,-3.8726,-0.0839,-0.7626,1258.06,-1640.81,1748.47
17350,-3.8726,-0.0851,-0.7637,1273.68,-1593.93,1639.10
17360,-3.8726,-0.0874,-0.7667,1117.43,-1734.56,1529.72
17370,-3.8726,-0.0896,-0.7692,820.56,1874.82,1607.85
17380,-3.8726,-0.0900,-0.7712,539.31,1562.32,1545.35
17390,-3.8726,-0.0875,-0.7721,492.43,1296.69,1045.35
17400,-3.8726,-0.0831,-0.7698,804.93,1187.32,404.72
17410,-3.8726,-0.0779,-0.7665,1367.43,1484.19,45.35
17420,-3.8727,-0.0731,-0.7638,-1960.69,1906.07,-79.65
17430,-3.8726,-0.0715,-0.7606,-1351.32,-1750.18,14.10
17440,-3.8726,-0.0737,-0.7588,-1148.19,-1343.93,326.60
17450,-3.8726,-0.0781,-0.7598,-1429.44,-1109.56,592.22
17460,-3.8726,-0.0840,-0.7615,-1991.94,-1234.56,670.35
17470,-3.8726,-0.0902,-0.7622,1258.06,-1453.31,670.35
17480,-3.8726,-0.0941,-0.7625,461.18,-1547.06,873.47
17490,-3.8726,-0.0950,-0.7632,-38.82,-1578.37,1060.97
17500,-3.8726,-0.0931,-0.7649,-148.19,-1672.12,1060.97
17510,-3.8726,-0.0898,-0.7660,86.18,-1890.81,1185.97
17520,-3.8726,-0.0870,-0.7660,508.06,1968.57,1420.35
17530,-3.8726,-0.0847,-0.7666,867.43,1968.57,1654.72
17540,-3.8726,-0.0828,-0.7675,1164.31,1890.44,1842.22
17550,-3.8726,-0.0818,-0.7682,1414.31,1781.07,-1907.78
17560,-3.8726,-0.0834,-0.7686,1539.31,1687.32,-1751.53
17570,-3.8726,-0.0869,-0.7677,1336.18,1640.44,-1954.65
17580,-3.8726,-0.0897,-0.7661,883.06,1749.82,1654.72
17590,-3.8726,-0.0896,-0.7639,523.68,1952.94,1295.35
17600,-3.8726,-0.0872,-0.7622,539.31,-1765.81,998.47
17610,-3.8726,-0.0841,-0.7631,851.81,-1547.06,639.10
17620,-3.8726,-0.0808,-0.7639,1242.43,-1656.43,185.97
17630,-3.8727,-0.0785,-0.7629,1664.31,-1765.81,-64.03
17640,-3.8727,-0.0793,-0.7625,1961.18,-1640.81,-32.78
17650,-3.8726,-0.0822,-0.7646,1851.81,-1578.31,170.35
17660,-3.8726,-0.0842,-0.7659,1492.43,-1859.56,654.72
17670,-3.8726,-0.0862,-0.7646,1226.81,1984.19,1279.72
17680,-3.8726,-0.0887,-0.7629,976.81,-1859.56,1779.72
17690,-3.8726,-0.0919,-0.7615,648.68,-1640.81,-1954.65
17700,-3.8726,-0.0946,-0.7606,242.43,-1453.31,1904.72
17710,-3.8726,-0.0942,-0.7600,-101.32,-1343.99,1560.97
17720,-3.8726,-0.0909,-0.7601,-54.44,-1265.87,1201.60
17730,-3.8726,-0.0876,-0.7603,367.43,-1281.43,889.10
17740,-3.8726,-0.0858,-0.7594,789.31,-1297.06,826.60
17750,-3.8726,-0.0868,-0.7581,1023.68,-1187.68,1029.72
17760,-3.8726,-0.0891,-0.7582,898.68,-1015.81,1217.22
17770,-3.8726,-0.0894,-0.7598,601.81,-1031.43,1248.47
17780,-3.8726,-0.0880,-0.7614,570.56,-1234.56,1170.35
17790,-3.8726,-0.0870,-0.7633,742.43,-1437.68,1076.60
17800,-3.8726,-0.0863,-0.7646,867.43,-1687.68,1060.97
17810,-3.8726,-0.0865,-0.7649,961.18,-1859.56,951.60
17820,-3.8726,-0.0865,-0.7650,929.93,-1890.81,748.47
17830,-3.8726,-0.0846,-0.7653,929.93,-1906.43,764.10
17840,-3.8726,-0.0820,-0.7660,1179.93,-1937.68,1045.35
17850,-3.8726,-0.0807,-0.7668,1508.06,1968.57,1357.85
17860,-3.8726,-0.0807,-0.7682,1679.93,1859.19,1467.22
17870,-3.8726,-0.0814,-0.7690,1679.93,1687.32,1264.10
17880,-3.8726,-0.0826,-0.7682,1586.18,1577.94,1076.60
17890,-3.8726,-0.0846,-0.7661,1429.93,1687.32,967.22
17900,-3.8726,-0.0880,-0.7638,1179.93,1952.94,795.35
17910,-3.8726,-0.0908,-0.7622,742.43,-1750.18,576.60
17920,-3.8726,-0.0908,-0.7612,383.06,-1547.06,373.47
17930,-3.8726,-0.0887,-0.7612,383.06,-1422.06,420.35
17940,-3.8726,-0.0870,-0.7618,648.68,-1422.06,826.60
17950,-3.8726,-0.0868,-0.7631,867.43,-1500.18,1451.60
17960,-3.8726,-0.0875,-0.7643,898.68,-1656.43,-1939.03
17970,-3.8726,-0.0891,-0.7646,804.93,-1812.68,-1564.03
17980,-3.8726,-0.0917,-0.7634,601.81,-1859.56,-1485.90
17990,-3.8726,-0.0930,-0.7615,273.68,-1703.31,-1814.03
18000,-3.8726,-0.0927,-0.7601,101.81,-1453.31,1420.35
18010,-3.8726,-0.0906,-0.7593,148.68,-1281.43,623.47
18020,-3.8726,-0.0870,-0.7594,414.31,-1172.06,201.60
18030,-3.8726,-0.0831,-0.7606,867.43,-1187.68,107.85
18040,-3.8726,-0.0800,-0.7615,1367.43,-1343.93,310.97
18050,-3.8726,-0.0786,-0.7617,1773.68,-1453.31,639.10
18060,-3.8726,-0.0802,-0.7622,1945.56,-1484.56,904.72
18070,-3.8726,-0.0830,-0.7638,1742.43,-1547.06,1107.85
18080,-3.8726,-0.0858,-0.7650,1383.06,-1750.18,1264.10
18090,-3.8726,-0.0875,-0.7660,1023.68,-1906.43,1310.97
18100,-3.8726,-0.0874,-0.7671,804.93,1968.57,1264.10
18110,-3.8726,-0.0859,-0.7670,820.56,1827.94,1154.72
18120,-3.8726,-0.0847,-0.7666,1008.06,1843.57,1076.60
18130,-3.8726,-0.0842,-0.7656,1164.31,1890.44,1060.97
18140,-3.8726,-0.0848,-0.7627,1226.81,-1984.56,1170.35
18150,-3.8726,-0.0867,-0.7603,1148.68,-1609.56,1279.72
18160,-3.8726,-0.0883,-0.7599,914.31,-1297.06,1185.97
18170,-3.8726,-0.0878,-0.7593,711.18,-1250.18,920.35
18180,-3.8726,-0.0847,-0.7595,773.68,-1172.06,482.85
18190,-3.8727,-0.0798,-0.7611,1164.31,-1203.31,-1.53
18200,-3.8727,-0.0760,-0.7627,1789.31,-1406.43,-32.78
18210,-3.8726,-0.0767,-0.7637,-1726.32,-1609.56,717.22
18220,-3.8726,-0.0819,-0.7644,-1804.44,-1734.56,1826.60
18230,-3.8726,-0.0881,-0.7662,1523.68,-1828.31,-1392.15
18240,-3.8726,-0.0918,-0.7679,726.81,1937.32,-1204.65
18250,-3.8726,-0.0923,-0.7676,258.06,1718.57,-1360.90
18260,-3.8726,-0.0905,-0.7657,195.56,1765.44,-1798.40
18270,-3.8726,-0.0876,-0.7629,429.93,1999.82,1639.10
18280,-3.8726,-0.0848,-0.7604,789.31,-1640.81,1248.47
18290,-3.8726,-0.0825,-0.7593,1148.68,-1312.68,1217.22
18300,-3.8726,-0.0824,-0.7587,1445.56,-1172.06,1389.10
18310,-3.8726,-0.0850,-0.7582,1461.18,-1093.93,1373.47
18320,-3.8726,-0.0881,-0.7589,1133.06,-1031.43,967.22
18330,-3.8726,-0.0885,-0.7604,726.81,-1125.18,326.60
18340,-3.8727,-0.0853,-0.7618,679.93,-1312.68,-360.90
18350,-3.8727,-0.0800,-0.7632,1086.18,-1500.18,-829.65
18360,-3.8727,-0.0740,-0.7648,1773.68,-1672.06,-860.90
18370,-3.8727,-0.0687,-0.7678,-1460.69,-1875.18,-626.53
18380,-3.8727,-0.0665,-0.7716,-788.82,1734.19,-235.90
18390,-3.8726,-0.0677,-0.7744,-507.57,1249.82,232.85
18400,-3.8726,-0.0709,-0.7754,-663.82,890.44,607.85
18410,-3.8726,-0.0730,-0.7726,-1070.07,765.44,748.47
18420,-3.8726,-0.0729,-0.7675,-1335.69,1124.82,717.22
18430,-3.8726,-0.0720,-0.7648,-1320.07,1781.07,529.72
18440,-3.8726,-0.0715,-0.7643,-1210.69,-1875.18,139.10
18450,-3.8726,-0.0735,-0.7627,-1148.19,-1812.68,14.10
18460,-3.8726,-0.0789,-0.7610,-1398.19,-1609.56,482.85
18470,-3.8726,-0.0851,-0.7617,1914.31,-1390.81,1342.22
18480,-3.8726,-0.0896,-0.7644,1117.43,-1484.56,1998.47
18490,-3.8726,-0.0922,-0.7670,539.31,-1828.31,-1798.40
18500,-3.8726,-0.0925,-0.7673,211.18,1843.57,1982.85
18510,-3.8726,-0.0902,-0.7662,164.31,1796.69,1514.10
18520,-3.8726,-0.0865,-0.7655,461.18,1937.32,1201.60
18530,-3.8726,-0.0824,-0.7660,929.93,-1968.93,1217.22
18540,-3.8726,-0.0775,-0.7678,1461.18,1968.57,1467.22
18550,-3.8726,-0.0732,-0.7692,-1913.82,1734.19,1779.72
18560,-3.8726,-0.0708,-0.7693,-1366.94,1562.32,1935.97
18570,-3.8726,-0.0712,-0.7684,-1054.44,1546.69,1748.47
18580,-3.8726,-0.0739,-0.7664,-1101.32,1656.07,1373.47
18590,-3.8726,-0.0768,-0.7639,-1445.07,1921.69,1107.85
18600,-3.8726,-0.0791,-0.7620,-1820.07,-1765.81,1045.35
18610,-3.8726,-0.0803,-0.7622,1883.06,-1515.81,1139.10
18620,-3.8726,-0.0813,-0.7648,1726.81,-1547.06,1185.97
18630,-3.8726,-0.0824,-0.7676,1601.81,-1875.18,967.22
18640,-3.8726,-0.0839,-0.7688,1461.18,1765.44,592.22
18650,-3.8726,-0.0852,-0.7683,1273.68,1609.19,342.22
18660,-3.8726,-0.0834,-0.7662,1101.81,1671.69,201.60
18670,-3.8726,-0.0786,-0.7627,1336.18,1937.32,248.47
18680,-3.8726,-0.0740,-0.7587,1945.56,-1609.56,420.35
18690,-3.8726,-0.0714,-0.7563,-1460.69,-1093.93,592.22
18700,-3.8726,-0.0709,-0.7565,-1132.57,-797.06,685.97
18710,-3.8726,-0.0730,-0.7587,-1070.07,-812.68,779.72
18720,-3.8726,-0.0778,-0.7623,-1335.69,-1093.93,951.60
18730,-3.8726,-0.0833,-0.7661,-1945.07,-1562.68,1201.60
18740,-3.8726,-0.0875,-0.7694,1351.81,1952.94,1467.22
18750,-3.8726,-0.0900,-0.7722,804.93,1531.07,1576.60
18760,-3.8726,-0.0897,-0.7728,492.43,1171.69,1389.10
18770,-3.8726,-0.0864,-0.7712,523.68,1093.57,1139.10
18780,-3.8726,-0.0811,-0.7693,945.56,1296.69,1014.10
18790,-3.8726,-0.0754,-0.7683,1633.06,1546.69,889.10
18800,-3.8726,-0.0701,-0.7675,-1648.19,1671.69,764.10
18810,-3.8726,-0.0659,-0.7665,-960.69,1781.07,654.72
18820,-3.8726,-0.0642,-0.7653,-429.44,1906.07,482.85
18830,-3.8726,-0.0669,-0.7633,-210.69,-1937.68,373.47
18840,-3.8726,-0.0732,-0.7612,-554.44,-1687.68,420.35
18850,-3.8726,-0.0803,-0.7606,-1366.94,-1422.06,592.22
18860,-3.8726,-0.0868,-0.7617,1726.81,-1343.93,873.47
18870,-3.8726,-0.0906,-0.7645,898.68,-1484.56,1201.60
18880,-3.8726,-0.0911,-0.7687,414.31,-1843.93,1451.60
18890,-3.8726,-0.0896,-0.7726,351.81,1624.82,1717.22
18900,-3.8726,-0.0865,-0.7755,539.31,1124.82,1967.22
18910,-3.8726,-0.0826,-0.7761,929.93,749.82,-1923.40
18920,-3.8726,-0.0792,-0.7739,1429.93,671.69,-1939.03
18930,-3.8726,-0.0776,-0.7698,1867.43,952.94,1842.22
18940,-3.8726,-0.0774,-0.7643,-1929.44,1484.19,1451.60
18950,-3.8726,-0.0764,-0.7595,-1898.19,-1812.68,1029.72
18960,-3.8726,-0.0760,-0.7573,-1773.19,-1203.31,545.35
18970,-3.8726,-0.0773,-0.7576,-1726.32,-922.06,92.22
18980,-3.8727,-0.0789,-0.7593,-1882.57,-953.31,-110.90
18990,-3.8727,-0.0807,-0.7620,1914.31,-1172.06,-204.65
19000,-3.8727,-0.0812,-0.7659,1679.93,-1515.81,-267.15
19010,-3.8727,-0.0798,-0.7688,1617.43,1984.19,-189.03
19020,-3.8727,-0.0776,-0.7704,1789.31,1609.19,-1.53
19030,-3.8726,-0.0754,-0.7715,-1929.44,1406.07,295.35
19040,-3.8726,-0.0751,-0.7727,-1648.19,1265.44,607.85
19050,-3.8726,-0.0769,-0.7738,-1601.32,1109.19,873.47
19060,-3.8726,-0.0795,-0.7739,-1835.69,968.57,951.60
19070,-3.8726,-0.0815,-0.7733,1836.18,952.94,810.97
19080,-3.8726,-0.0822,-0.7722,1570.56,1031.07,435.97
19090,-3.8727,-0.0820,-0.7704,1492.43,1171.69,-142.15
19100,-3.8727,-0.0818,-0.7678,1508.06,1406.07,-751.53
19110,-3.8727,-0.0801,-0.7640,1539.31,1734.19,-1095.28
19120,-3.8727,-0.0768,-0.7595,1758.06,-1781.43,-970.28
19130,-3.8727,-0.0743,-0.7561,-1820.07,-1203.31,-532.78
19140,-3.8726,-0.0759,-0.7556,-1507.57,-765.81,154.72
19150,-3.8726,-0.0822,-0.7562,-1710.69,-703.31,998.47
19160,-3.8726,-0.0903,-0.7560,1492.43,-781.43,1592.22
19170,-3.8726,-0.0972,-0.7554,445.56,-750.18,1685.97
19180,-3.8726,-0.1006,-0.7548,-429.44,-672.12,1373.47
19190,-3.8726,-0.1011,-0.7537,-866.94,-593.99,1154.72
19200,-3.8726,-0.0996,-0.7506,-929.44,-453.37,1170.35
19210,-3.8726,-0.0951,-0.7494,-741.94,-62.74,1310.97
19220,-3.8726,-0.0879,-0.7546,-163.82,93.51,1529.79
19230,-3.8726,-0.0825,-0.7653,758.06,-578.31,1920.35
19240,-3.8726,-0.0845,-0.7751,1445.56,-1937.68,-1235.90
19250,-3.8726,-0.0928,-0.7797,1195.56,796.69,-189.03
19260,-3.8724,-0.0980,-0.7837,133.06,218.57,170.35
19270,-3.8726,-0.0973,-0.7900,-538.82,-297.12,-532.84
19280,-3.8726,-0.0968,-0.7906,-445.07,-1109.62,-1407.84
19290,-3.8726,-0.0966,-0.7810,-382.57,-1187.74,1982.79
19300,-3.8726,-0.0886,-0.7727,-351.32,46.63,1092.22
19310,-3.8727,-0.0723,-0.7714,664.31,1109.19,-298.40
19320,-3.8727,-0.0569,-0.7699,-1241.94,1281.07,-1689.03
19330,-3.8727,-0.0483,-0.7645,726.81,1468.63,1373.47
19340,-3.8727,-0.0448,-0.7606,1820.56,-1843.87,639.10
19350,-3.8727,-0.0450,-0.7593,-1726.32,-1343.87,170.35
19360,-3.8727,-0.0503,-0.7551,-1757.57,-1172.00,201.60
19370,-3.8727,-0.0596,-0.7605,1570.56,-640.75,420.35
19380,-3.8727,-0.0686,-0.7766,383.06,-1328.25,889.10
19390,-3.8727,-0.0782,-0.7791,-773.19,609.19,-1923.40
19400,-3.8727,-0.0886,-0.7714,1992.43,296.69,-32.78
19410,-3.8726,-0.0947,-0.7716,664.31,1281.07,1592.22
19420,-3.8726,-0.0956,-0.7771,-116.94,1249.76,-1595.28
19430,-3.8726,-0.0968,-0.7799,-226.32,546.63,-1189.03
19440,-3.8726,-0.1011,-0.7799,-382.57,187.26,-860.90
19450,-3.8726,-0.1055,-0.7793,-929.44,187.26,-814.03
19460,-3.8726,-0.1074,-0.7776,-1491.94,265.38,-1095.28
19470,-3.8726,-0.1046,-0.7737,-1741.94,484.13,-1564.03
19480,-3.8726,-0.0974,-0.7694,-1382.57,984.13,1889.10
19490,-3.8726,-0.0878,-0.7656,-460.69,1531.01,1279.72
19500,-3.8726,-0.0784,-0.7625,773.68,-1984.56,529.72
19510,-3.8727,-0.0715,-0.7596,1976.81,-1578.31,-392.15
19520,-3.8727,-0.0682,-0.7585,-1148.19,-1218.93,-1314.03
19530,-3.8727,-0.0682,-0.7587,-726.32,-1078.31,-1985.90
19540,-3.8727,-0.0709,-0.7593,-726.32,-1093.93,1810.97
19550,-3.8727,-0.0763,-0.7614,-1070.07,-1172.06,-1876.53
19560,-3.8727,-0.0823,-0.7648,-1757.57,-1437.68,-1407.78
19570,-3.8727,-0.0862,-0.7681,1476.81,-1875.18,-845.28
19580,-3.8727,-0.0881,-0.7699,976.81,1702.94,-64.03
19590,-3.8726,-0.0890,-0.7703,726.81,1468.57,576.60
19600,-3.8726,-0.0894,-0.7709,617.43,1421.69,764.10
19610,-3.8726,-0.0881,-0.7720,570.56,1343.57,670.35
19620,-3.8726,-0.0869,-0.7727,726.81,1202.94,623.47
19630,-3.8726,-0.0872,-0.7731,883.06,1109.19,701.60
19640,-3.8726,-0.0875,-0.7720,851.81,1062.32,889.10
19650,-3.8726,-0.0864,-0.7706,804.93,1202.94,1154.72
19660,-3.8726,-0.0841,-0.7705,945.56,1374.82,1342.22
19670,-3.8726,-0.0829,-0.7695,1242.43,1390.44,1357.85
19680,-3.8726,-0.0845,-0.7678,1398.68,1515.44,1123.47
19690,-3.8726,-0.0880,-0.7668,1195.56,1734.19,685.97
19700,-3.8726,-0.0916,-0.7662,742.43,1859.19,326.60
19710,-3.8726,-0.0934,-0.7644,289.31,1937.32,154.72
19720,-3.8726,-0.0933,-0.7637,54.93,-1828.31,185.97
19730,-3.8726,-0.0908,-0.7648,70.56,-1734.56,295.35
19740,-3.8726,-0.0870,-0.7665,383.06,-1875.18,248.47
19750,-3.8726,-0.0826,-0.7684,867.43,1906.07,29.72
19760,-3.8727,-0.0787,-0.7699,1429.93,1656.07,-32.78
19770,-3.8726,-0.0779,-0.7699,1929.93,1468.57,201.60
19780,-3.8726,-0.0797,-0.7690,-1960.69,1468.57,545.35
19790,-3.8726,-0.0830,-0.7695,1804.93,1577.94,670.35
19800,-3.8726,-0.0868,-0.7714,1383.06,1515.44,514.10
19810,-3.8726,-0.0894,-0.7723,898.68,1281.07,326.60
19820,-3.8726,-0.0897,-0.7722,570.56,1156.07,139.10
19830,-3.8727,-0.0876,-0.7721,523.68,1171.69,-142.15
19840,-3.8727,-0.0842,-0.7720,789.31,1187.32,-251.53
19850,-3.8727,-0.0818,-0.7715,1226.81,1202.94,-157.78
19860,-3.8727,-0.0817,-0.7708,1539.31,1265.44,-32.78
19870,-3.8726,-0.0841,-0.7692,1554.93,1359.19,29.72
19880,-3.8727,-0.0873,-0.7679,1242.43,1562.32,-48.40
19890,-3.8727,-0.0891,-0.7677,836.18,1718.57,-204.65
19900,-3.8727,-0.0883,-0.7677,601.81,1749.82,-235.90
19910,-3.8727,-0.0857,-0.7679,711.18,1749.82,-157.78
19920,-3.8727,-0.0840,-0.7689,1039.31,1718.57,-79.65
19930,-3.8727,-0.0845,-0.7700,1258.06,1593.57,-95.28
19940,-3.8727,-0.0862,-0.7705,1195.56,1452.94,-64.03
19950,-3.8726,-0.0885,-0.7703,976.81,1390.44,107.85
19960,-3.8726,-0.0903,-0.7698,679.93,1421.69,154.72
19970,-3.8726,-0.0895,-0.7689,445.56,1484.19,60.97
19980,-3.8726,-0.0857,-0.7676,554.93,1593.57,76.60
19990,-3.8726,-0.0829,-0.7670,1039.31,1765.44,264.10
20000,-3.8726,-0.0835,-0.7678,1398.68,1843.57,451.60
20010,-3.8726,-0.0869,-0.7689,1320.56,1734.19,514.10
20020,-3.8726,-0.0916,-0.7697,883.06,1593.57,232.85
20030,-3.8727,-0.0950,-0.7708,289.31,1499.82,-314.03
20040,-3.8727,-0.0944,-0.7723,-148.19,1359.13,-767.15
20050,-3.8727,-0.0892,-0.7733,-70.07,1156.01,-673.40
20060,-3.8727,-0.0826,-0.7739,586.18,1031.07,-126.53
20070,-3.8726,-0.0791,-0.7729,1429.93,952.94,389.10
20080,-3.8726,-0.0804,-0.7711,1883.06,1077.94,670.35
20090,-3.8726,-0.0854,-0.7716,1711.18,1312.32,670.35
20100,-3.8726,-0.0913,-0.7726,1070.56,1249.82,545.35
20110,-3.8726,-0.0958,-0.7711,320.56,1124.82,467.22
20120,-3.8726,-0.0970,-0.7692,-257.57,1312.26,123.47
20130,-3.8727,-0.0947,-0.7693,-413.82,1562.26,-314.03
20140,-3.8727,-0.0896,-0.7697,-116.94,1546.63,-485.90
20150,-3.8727,-0.0848,-0.7689,539.31,1499.82,-314.03
20160,-3.8727,-0.0826,-0.7686,1148.68,1593.57,-32.78
20170,-3.8726,-0.0826,-0.7692,1429.93,1640.44,60.97
20180,-3.8726,-0.0840,-0.7706,1429.93,1562.32,139.10
20190,-3.8726,-0.0863,-0.7725,1258.06,1374.82,185.97
20200,-3.8726,-0.0883,-0.7733,961.18,1140.44,201.60
20210,-3.8726,-0.0890,-0.7734,711.18,1031.07,264.10
20220,-3.8726,-0.0890,-0.7729,617.43,1015.44,154.72
20230,-3.8727,-0.0889,-0.7709,617.43,1077.94,-126.53
20240,-3.8727,-0.0892,-0.7677,633.06,1343.57,-485.90
20250,-3.8727,-0.0897,-0.7650,586.18,1749.82,-845.28
20260,-3.8727,-0.0896,-0.7629,523.68,-1906.43,-954.65
20270,-3.8727,-0.0892,-0.7618,539.31,-1640.81,-720.28
20280,-3.8727,-0.0887,-0.7633,586.18,-1500.18,-423.40
20290,-3.8727,-0.0875,-0.7657,648.68,-1687.68,-251.53
20300,-3.8727,-0.0862,-0.7682,804.93,1999.82,-142.15
20310,-3.8727,-0.0850,-0.7709,976.81,1687.32,-64.03
20320,-3.8726,-0.0850,-0.7732,1133.06,1343.57,14.10
20330,-3.8726,-0.0865,-0.7740,1133.06,1046.69,264.10
20340,-3.8726,-0.0897,-0.7733,929.93,937.32,732.85
20350,-3.8726,-0.0931,-0.7728,523.68,1031.07,1185.97
20360,-3.8726,-0.0962,-0.7723,86.18,1093.57,1389.10
20370,-3.8726,-0.0983,-0.7720,-304.44,1156.01,1310.97
20380,-3.8726,-0.0978,-0.7721,-570.07,1202.88,1029.72
20390,-3.8726,-0.0942,-0.7720,-507.57,1187.26,482.85
20400,-3.8727,-0.0891,-0.7717,-54.44,1202.88,-64.03
20410,-3.8727,-0.0850,-0.7727,601.81,1234.19,-360.90
20420,-3.8727,-0.0842,-0.7727,1133.06,1109.19,-439.03
20430,-3.8727,-0.0863,-0.7703,1226.81,1109.19,-376.53
20440,-3.8727,-0.0878,-0.7676,961.18,1421.69,-392.15
20450,-3.8727,-0.0861,-0.7655,773.68,1765.44,-564.03
20460,-3.8727,-0.0831,-0.7649,992.43,-1968.93,-626.53
20470,-3.8727,-0.0829,-0.7655,1367.43,-1890.81,-298.40
20480,-3.8726,-0.0868,-0.7662,1398.68,-1968.93,107.85
20490,-3.8726,-0.0935,-0.7682,898.68,1937.32,264.10
20500,-3.8726,-0.0997,-0.7712,39.31,1687.32,232.85
20510,-3.8726,-0.1024,-0.7733,-757.57,1296.63,217.22
20520,-3.8726,-0.1013,-0.7729,-1101.32,1031.01,404.72
20530,-3.8726,-0.0963,-0.7721,-960.69,1077.88,592.22
20540,-3.8726,-0.0881,-0.7720,-320.07,1187.26,357.85
20550,-3.8727,-0.0807,-0.7712,726.81,1202.94,-235.90
20560,-3.8727,-0.0765,-0.7690,1679.93,1296.69,-829.65
20570,-3.8727,-0.0769,-0.7665,-1788.82,1577.94,-1189.03
20580,-3.8727,-0.0817,-0.7654,-1835.69,1906.07,-1220.28
20590,-3.8727,-0.0874,-0.7668,1554.93,-1953.31,-1048.40
20600,-3.8727,-0.0909,-0.7706,820.56,1859.19,-845.28
20610,-3.8727,-0.0922,-0.7750,367.43,1374.82,-595.28
20620,-3.8727,-0.0922,-0.7787,211.18,812.32,-267.15
20630,-3.8726,-0.0908,-0.7810,211.18,343.57,14.10
20640,-3.8726,-0.0889,-0.7816,383.06,46.69,279.72
20650,-3.8726,-0.0884,-0.7804,633.06,-31.43,607.79
20660,-3.8726,-0.0901,-0.7770,695.56,124.82,873.47
20670,-3.8726,-0.0923,-0.7720,476.81,562.32,982.85
20680,-3.8726,-0.0935,-0.7676,195.56,1202.94,717.22
20690,-3.8726,-0.0914,-0.7659,39.31,1765.44,29.72
20700,-3.8727,-0.0857,-0.7666,304.93,1984.19,-798.40
20710,-3.8727,-0.0817,-0.7682,1039.31,1890.44,-1189.03
20720,-3.8727,-0.0826,-0.7684,1554.93,1687.32,-1064.03
20730,-3.8727,-0.0869,-0.7677,1429.93,1656.07,-892.15
20740,-3.8727,-0.0909,-0.7686,883.06,1749.82,-704.65
20750,-3.8727,-0.0940,-0.7708,367.43,1640.44,-470.28
20760,-3.8727,-0.0950,-0.7723,-23.19,1359.13,-282.78
20770,-3.8727,-0.0933,-0.7734,-148.19,1156.01,-173.40
20780,-3.8727,-0.0897,-0.7754,70.56,1015.44,-173.40
20790,-3.8727,-0.0854,-0.7776,523.68,765.44,-267.15
20800,-3.8727,-0.0842,-0.7778,1070.56,484.19,-173.40
20810,-3.8726,-0.0872,-0.7749,1226.81,452.94,170.35
20820,-3.8726,-0.0928,-0.7712,851.81,827.94,451.60
20830,-3.8726,-0.0981,-0.7690,133.06,1296.69,529.72
20840,-3.8726,-0.1003,-0.7688,-554.44,1577.88,389.10
20850,-3.8726,-0.0989,-0.7682,-835.69,1609.13,217.22
20860,-3.8726,-0.0948,-0.7651,-648.19,1687.26,107.85
20870,-3.8727,-0.0914,-0.7628,-132.57,-1922.12,-1.53
20880,-3.8727,-0.0912,-0.7629,304.93,-1625.18,-79.65
20890,-3.8727,-0.0936,-0.7638,336.18,-1640.81,-126.53
20900,-3.8727,-0.0964,-0.7651,23.68,-1750.18,-32.78
20910,-3.8726,-0.0973,-0.7677,-335.69,-1922.12,14.10
20920,-3.8726,-0.0953,-0.7720,-445.07,1749.76,107.85
20930,-3.8726,-0.0911,-0.7754,-195.07,1202.88,420.35
20940,-3.8726,-0.0865,-0.7772,351.81,765.44,748.47
20950,-3.8726,-0.0839,-0.7783,929.93,531.07,779.72
20960,-3.8726,-0.0839,-0.7775,1273.68,390.44,357.85
20970,-3.8727,-0.0856,-0.7743,1273.68,499.82,-376.53
20980,-3.8727,-0.0874,-0.7711,1054.93,906.07,-1095.28
20990,-3.8727,-0.0874,-0.7700,820.56,1312.32,-1626.53
21000,-3.8727,-0.0848,-0.7690,820.56,1452.94,-1829.65
21010,-3.8727,-0.0813,-0.7679,1148.68,1577.94,-1657.78
21020,-3.8727,-0.0800,-0.7681,1601.81,1718.57,-1282.78
21030,-3.8727,-0.0822,-0.7700,1773.68,1702.94,-814.03
21040,-3.8727,-0.0870,-0.7725,1492.43,1452.94,-376.53
21050,-3.8726,-0.0918,-0.7728,867.43,1140.44,60.97
21060,-3.8726,-0.0934,-0.7717,258.06,1093.57,420.35
21070,-3.8726,-0.0925,-0.7717,54.93,1234.19,482.85
21080,-3.8726,-0.0920,-0.7726,164.31,1234.19,310.97
21090,-3.8726,-0.0934,-0.7726,226.81,1124.82,264.10
21100,-3.8726,-0.0961,-0.7711,54.93,1124.82,529.72
21110,-3.8726,-0.0979,-0.7700,-288.82,1312.26,857.85
21120,-3.8726,-0.0973,-0.7694,-523.19,1452.88,935.97
21130,-3.8726,-0.0939,-0.7684,-445.07,1531.01,810.97
21140,-3.8726,-0.0892,-0.7673,-7.57,1656.01,623.47
21150,-3.8726,-0.0854,-0.7667,586.18,1796.69,357.85
21160,-3.8726,-0.0850,-0.7666,1070.56,1874.82,60.97
21170,-3.8727,-0.0876,-0.7660,1133.06,1890.44,-235.90
21180,-3.8727,-0.0913,-0.7655,789.31,1968.57,-407.78
21190,-3.8727,-0.0927,-0.7659,320.56,-1968.93,-501.53
21200,-3.8727,-0.0916,-0.7656,148.68,1984.19,-657.78
21210,-3.8727,-0.0902,-0.7651,289.31,-1984.56,-892.15
21220,-3.8727,-0.0889,-0.7660,461.18,-1922.06,-1001.53
21230,-3.8727,-0.0876,-0.7682,633.06,1968.57,-876.53
21240,-3.8727,-0.0870,-0.7720,789.31,1687.32,-735.90
21250,-3.8727,-0.0863,-0.7759,867.43,1202.94,-548.40
21260,-3.8727,-0.0852,-0.7778,961.18,702.94,-48.40
21270,-3.8726,-0.0847,-0.7784,1101.81,452.94,639.10
21280,-3.8726,-0.0854,-0.7783,1164.31,374.82,1060.97
21290,-3.8726,-0.0870,-0.7770,1070.56,390.44,1014.10
21300,-3.8726,-0.0885,-0.7750,867.43,562.32,748.47
21310,-3.8726,-0.0895,-0.7723,679.93,812.32,357.85
21320,-3.8727,-0.0907,-0.7694,554.93,1156.07,-64.03
21330,-3.8727,-0.0927,-0.7673,398.68,1531.07,-439.03
21340,-3.8727,-0.0925,-0.7667,148.68,1796.69,-782.78
21350,-3.8727,-0.0901,-0.7664,164.31,1874.82,-985.90
21360,-3.8727,-0.0869,-0.7661,476.81,1921.69,-876.53
21370,-3.8727,-0.0845,-0.7672,883.06,1952.94,-579.65
21380,-3.8727,-0.0845,-0.7687,1195.56,1812.32,-282.78
21390,-3.8726,-0.0862,-0.7695,1195.56,1624.82,92.22
21400,-3.8726,-0.0892,-0.7701,976.81,1515.44,389.10
21410,-3.8726,-0.0927,-0.7699,586.18,1437.32,560.97
21420,-3.8726,-0.0953,-0.7692,148.68,1468.57,795.35
21430,-3.8726,-0.0963,-0.7695,-195.07,1562.26,904.72
21440,-3.8726,-0.0950,-0.7703,-320.07,1515.38,810.97
21450,-3.8726,-0.0928,-0.7694,-148.19,1421.63,639.10
21460,-3.8726,-0.0909,-0.7678,133.06,1531.07,373.47
21470,-3.8726,-0.0901,-0.7670,367.43,1734.19,60.97
21480,-3.8727,-0.0909,-0.7666,476.81,1843.57,-173.40
21490,-3.8727,-0.0919,-0.7668,367.43,1890.44,-189.03
21500,-3.8727,-0.0909,-0.7689,242.43,1859.19,-95.28
21510,-3.8726,-0.0879,-0.7720,367.43,1593.57,29.72
21520,-3.8726,-0.0854,-0.7740,758.06,1202.94,76.60
21530,-3.8726,-0.0845,-0.7744,1070.56,937.32,264.10
21540,-3.8726,-0.0852,-0.7731,1195.56,890.44,514.10
21550,-3.8726,-0.0874,-0.7714,1101.81,1062.32,560.97
21560,-3.8726,-0.0892,-0.7705,820.56,1281.07,295.35
21570,-3.8727,-0.0890,-0.7687,586.18,1390.44,-282.78
21580,-3.8727,-0.0865,-0.7660,617.43,1624.82,-907.78
21590,-3.8727,-0.0844,-0.7650,929.93,1968.57,-1298.40
21600,-3.8727,-0.0844,-0.7668,1211.18,-1906.43,-1235.90
21610,-3.8727,-0.0856,-0.7705,1211.18,1859.19,-673.40
21620,-3.8726,-0.0874,-0.7736,1054.93,1390.44,60.97
21630,-3.8726,-0.0890,-0.7750,820.56,999.82,795.35
21640,-3.8726,-0.0900,-0.7751,617.43,812.32,1264.10
21650,-3.8726,-0.0903,-0.7744,492.43,796.69,1264.10
21660,-3.8726,-0.0895,-0.7728,445.56,890.44,826.60
21670,-3.8726,-0.0881,-0.7706,554.93,1093.57,76.60
21680,-3.8727,-0.0873,-0.7692,726.81,1374.82,-704.65
21690,-3.8727,-0.0872,-0.7673,836.18,1562.32,-1267.15
21700,-3.8727,-0.0876,-0.7661,851.81,1796.69,-1360.90
21710,-3.8727,-0.0872,-0.7660,789.31,1952.94,-1017.15
21720,-3.8727,-0.0865,-0.7670,851.81,1968.57,-532.78
21730,-3.8727,-0.0864,-0.7679,929.93,1843.57,-1.53
21740,-3.8726,-0.0864,-0.7686,945.56,1718.57,529.72
21750,-3.8726,-0.0872,-0.7698,945.56,1640.44,795.35
21760,-3.8726,-0.0895,-0.7701,851.81,1484.19,639.10
21770,-3.8726,-0.0927,-0.7695,554.93,1437.32,217.22
21780,-3.8727,-0.0962,-0.7688,148.68,1515.44,-17.15
21790,-3.8726,-0.0978,-0.7687,-304.44,1609.13,107.85
21800,-3.8726,-0.0967,-0.7693,-507.57,1624.76,420.35
21810,-3.8726,-0.0941,-0.7700,-366.94,1546.63,592.22
21820,-3.8726,-0.0909,-0.7694,-38.82,1452.88,529.72
21830,-3.8726,-0.0874,-0.7688,367.43,1531.07,139.10
21840,-3.8727,-0.0836,-0.7693,820.56,1609.19,-454.65
21850,-3.8727,-0.0811,-0.7692,1304.93,1546.69,-970.28
21860,-3.8727,-0.0800,-0.7688,1633.06,1562.32,-1235.90
21870,-3.8727,-0.0796,-0.7694,1773.68,1609.19,-1142.15
21880,-3.8727,-0.0795,-0.7714,1820.56,1531.07,-735.90
21890,-3.8727,-0.0809,-0.7729,1836.18,1281.07,-110.90
21900,-3.8726,-0.0847,-0.7738,1648.68,1077.94,592.22
21910,-3.8726,-0.0896,-0.7748,1164.31,968.57,1123.47
21920,-3.8726,-0.0941,-0.7742,539.31,843.57,1264.10
21930,-3.8726,-0.0977,-0.7726,-38.82,921.63,1107.85
21940,-3.8726,-0.0986,-0.7721,-491.94,1124.76,779.72
21950,-3.8726,-0.0961,-0.7723,-616.94,1187.26,357.85
21960,-3.8726,-0.0911,-0.7714,-288.82,1156.01,154.72
21970,-3.8726,-0.0853,-0.7695,351.81,1281.07,170.35
21980,-3.8726,-0.0807,-0.7687,1086.18,1515.44,248.47
21990,-3.8726,-0.0785,-0.7692,1679.93,1624.82,404.72
22000,-3.8726,-0.0792,-0.7697,1961.18,1562.32,592.22
22010,-3.8726,-0.0826,-0.7695,1867.43,1499.82,592.22
22020,-3.8726,-0.0864,-0.7700,1429.93,1515.44,217.22
22030,-3.8727,-0.0884,-0.7716,945.56,1452.94,-298.40
22040,-3.8727,-0.0886,-0.7726,695.56,1249.82,-704.65
22050,-3.8727,-0.0868,-0.7731,664.31,1124.82,-954.65
22060,-3.8727,-0.0840,-0.7737,898.68,1062.32,-939.03
22070,-3.8727,-0.0809,-0.7738,1258.06,984.19,-782.78
22080,-3.8727,-0.0782,-0.7728,1648.68,968.57,-689.03
22090,-3.8727,-0.0765,-0.7712,1992.43,1093.57,-610.90
22100,-3.8727,-0.0759,-0.7704,-1788.82,1296.69,-626.53
22110,-3.8727,-0.0774,-0.7700,-1710.69,1406.07,-751.53
22120,-3.8727,-0.0801,-0.7699,-1898.19,1452.94,-829.65
22130,-3.8727,-0.0835,-0.7704,1758.06,1468.57,-907.78
22140,-3.8727,-0.0872,-0.7716,1320.56,1406.07,-814.03
22150,-3.8727,-0.0900,-0.7714,851.81,1249.82,-564.03
22160,-3.8727,-0.0912,-0.7698,492.43,1281.07,-407.78
22170,-3.8727,-0.0895,-0.7679,336.18,1484.19,-360.90
22180,-3.8727,-0.0867,-0.7657,554.93,1718.57,-298.40
22190,-3.8727,-0.0856,-0.7648,914.31,1999.82,-110.90
22200,-3.8726,-0.0870,-0.7657,1054.93,-1875.18,154.72
22210,-3.8726,-0.0903,-0.7677,867.43,1999.82,295.35
22220,-3.8726,-0.0942,-0.7690,445.56,1749.82,310.97
22230,-3.8726,-0.0973,-0.7705,-54.44,1577.88,357.85
22240,-3.8726,-0.0967,-0.7708,-445.07,1390.38,420.35
22250,-3.8726,-0.0927,-0.7683,-366.94,1359.13,623.47
22260,-3.8726,-0.0881,-0.7643,148.68,1671.69,1045.35
22270,-3.8726,-0.0856,-0.7587,726.81,-1812.68,1420.35
22280,-3.8726,-0.0870,-0.7490,1054.93,-1093.93,1389.10
22290,-3.8726,-0.0944,-0.7528,867.43,140.44,904.79
22300,-3.8726,-0.1029,-0.7729,-70.07,-343.99,201.60
22310,-3.8727,-0.1075,-0.7784,-1163.82,1077.88,-220.28
22320,-3.8726,-0.1091,-0.7732,-1757.57,374.76,139.10
22330,-3.8726,-0.1021,-0.7751,-1960.69,1046.63,717.22
22340,-3.8726,-0.0863,-0.7805,-1054.44,796.63,748.47
22350,-3.8726,-0.0725,-0.7852,961.18,109.19,560.97
22360,-3.8726,-0.0675,-0.7876,-1273.19,-484.56,623.41
22370,-3.8726,-0.0712,-0.7876,-632.57,-797.06,654.66
22380,-3.8726,-0.0797,-0.7864,-1101.32,-797.06,357.79
22390,-3.8727,-0.0881,-0.7844,1804.93,-640.81,-79.71
22400,-3.8727,-0.0931,-0.7814,726.81,-390.81,-735.96
22410,-3.8727,-0.0920,-0.7777,86.18,-0.18,-1470.34
22420,-3.8727,-0.0848,-0.7749,226.81,468.57,-1939.03
22430,-3.8727,-0.0770,-0.7745,1148.68,827.94,1842.22
22440,-3.8727,-0.0723,-0.7748,-1851.32,874.82,1717.22
22450,-3.8727,-0.0706,-0.7721,-1241.94,843.57,1623.47
22460,-3.8727,-0.0718,-0.7673,-1023.19,1187.32,1607.85
22470,-3.8727,-0.0752,-0.7642,-1179.44,1796.69,1779.72
22480,-3.8727,-0.0789,-0.7639,-1616.94,-1797.06,-1845.28
22490,-3.8727,-0.0824,-0.7654,1914.31,-1765.81,-1392.15
