timestamp_ms,ax,ay,az,gx,gy,gz
0,-3.8737,-0.0901,-0.9155,-23.19,-1187.74,-814.33
10,-3.8737,-0.0861,-0.9159,476.81,-1172.06,-783.08
20,-3.8737,-0.0831,-0.9149,992.43,-1218.93,-736.21
30,-3.8737,-0.0837,-0.9131,1367.43,-1093.93,-704.96
40,-3.8737,-0.0885,-0.9121,1289.31,-859.56,-767.46
50,-3.8737,-0.0948,-0.9116,679.93,-734.56,-798.71
60,-3.8737,-0.0995,-0.9110,-132.57,-672.12,-767.46
70,-3.8737,-0.1001,-0.9126,-726.32,-593.99,-720.58
80,-3.8737,-0.0974,-0.9164,-804.44,-797.12,-470.58
90,-3.8737,-0.0931,-0.9196,-460.69,-1281.49,-220.58
100,-3.8737,-0.0889,-0.9202,86.18,-1687.68,-251.83
110,-3.8737,-0.0869,-0.9182,633.06,-1765.81,-283.08
120,-3.8737,-0.0884,-0.9158,883.06,-1515.81,-376.83
130,-3.8737,-0.0900,-0.9148,695.56,-1203.31,-829.96
140,-3.8737,-0.0900,-0.9143,492.43,-1078.31,-1423.71
150,-3.8737,-0.0892,-0.9131,492.43,-1015.81,-1689.33
160,-3.8737,-0.0881,-0.9131,586.18,-859.56,-1470.58
170,-3.8737,-0.0865,-0.9144,726.81,-859.56,-1001.83
180,-3.8737,-0.0858,-0.9155,929.93,-1031.43,-829.96
190,-3.8737,-0.0876,-0.9154,1023.68,-1172.06,-970.58
200,-3.8737,-0.0917,-0.9143,789.31,-1156.43,-1017.46
210,-3.8737,-0.0955,-0.9136,273.68,-1015.81,-1048.71
220,-3.8737,-0.0972,-0.9137,-210.69,-922.12,-1283.08
230,-3.8737,-0.0957,-0.9138,-429.44,-937.74,-1423.71
240,-3.8737,-0.0914,-0.9135,-241.94,-953.37,-1189.33
250,-3.8737,-0.0881,-0.9141,304.93,-906.43,-814.33
260,-3.8737,-0.0886,-0.9165,726.81,-984.56,-517.46
270,-3.8737,-0.0916,-0.9189,664.31,-1297.06,-423.71
280,-3.8737,-0.0942,-0.9191,289.31,-1609.56,-595.58
290,-3.8737,-0.0953,-0.9161,-54.44,-1625.24,-736.21
300,-3.8737,-0.0957,-0.9135,-195.07,-1250.24,-798.71
310,-3.8737,-0.0958,-0.9142,-241.94,-906.49,-798.71
320,-3.8737,-0.0948,-0.9166,-257.57,-1000.24,-704.96
330,-3.8737,-0.0928,-0.9178,-132.57,-1312.74,-658.08
340,-3.8737,-0.0909,-0.9174,133.06,-1468.93,-767.46
350,-3.8737,-0.0903,-0.9161,367.43,-1406.43,-954.96
360,-3.8737,-0.0913,-0.9142,445.56,-1250.18,-1095.58
370,-3.8737,-0.0936,-0.9114,320.56,-1000.18,-1142.46
380,-3.8737,-0.0962,-0.9086,23.68,-640.81,-1236.21
390,-3.8737,-0.0981,-0.9075,-304.44,-281.49,-1454.96
400,-3.8737,-0.0983,-0.9081,-554.44,-140.87,-1642.46
410,-3.8737,-0.0963,-0.9106,-570.07,-218.99,-1486.21
420,-3.8737,-0.0933,-0.9156,-320.07,-547.12,-1048.71
430,-3.8737,-0.0909,-0.9215,70.56,-1187.68,-642.46
440,-3.8737,-0.0907,-0.9252,367.43,-1937.68,-376.83
450,-3.8737,-0.0929,-0.9252,398.68,1593.57,-189.33
460,-3.8737,-0.0959,-0.9226,117.43,1593.57,-189.33
470,-3.8737,-0.0978,-0.9199,-273.19,1921.63,-376.83
480,-3.8737,-0.0970,-0.9176,-507.57,-1734.62,-673.71
490,-3.8737,-0.0936,-0.9152,-413.82,-1437.74,-986.21
500,-3.8737,-0.0898,-0.9133,23.68,-1125.18,-1189.33
510,-3.8737,-0.0869,-0.9127,508.06,-890.81,-1314.33
520,-3.8737,-0.0858,-0.9122,883.06,-812.68,-1439.33
530,-3.8737,-0.0890,-0.9111,1023.68,-750.18,-1548.71
540,-3.8737,-0.0955,-0.9108,617.43,-609.56,-1736.21
550,-3.8737,-0.1010,-0.9116,-210.69,-562.74,-1845.58
560,-3.8737,-0.1028,-0.9142,-913.82,-672.12,-1689.33
570,-3.8737,-0.1010,-0.9181,-1148.19,-1000.24,-1314.33
580,-3.8737,-0.0963,-0.9215,-913.82,-1500.24,-939.33
590,-3.8737,-0.0905,-0.9224,-320.07,-1937.74,-689.33
600,-3.8737,-0.0867,-0.9196,429.93,1952.94,-579.96
610,-3.8737,-0.0870,-0.9155,914.31,-1687.68,-689.33
620,-3.8737,-0.0908,-0.9111,867.43,-1172.06,-1017.46
630,-3.8737,-0.0952,-0.9075,383.06,-609.56,-1408.08
640,-3.8737,-0.0983,-0.9061,-179.44,-140.87,-1689.33
650,-3.8737,-0.0996,-0.9082,-570.07,31.01,-1689.27
660,-3.8737,-0.0994,-0.9125,-741.94,-234.62,-1361.21
670,-3.8737,-0.0983,-0.9169,-710.69,-781.49,-908.08
680,-3.8737,-0.0979,-0.9196,-570.07,-1343.99,-501.83
690,-3.8737,-0.0983,-0.9209,-523.19,-1687.74,-283.08
700,-3.8737,-0.0983,-0.9219,-570.07,-1859.62,-345.58
710,-3.8737,-0.0963,-0.9216,-570.07,-1984.62,-548.71
720,-3.8737,-0.0928,-0.9183,-320.07,-1953.37,-689.33
730,-3.8737,-0.0909,-0.9135,133.06,-1531.43,-658.08
740,-3.8737,-0.0914,-0.9110,367.43,-906.43,-548.71
750,-3.8737,-0.0939,-0.9113,304.93,-593.93,-642.46
760,-3.8737,-0.0969,-0.9119,-7.57,-625.24,-954.96
770,-3.8737,-0.0994,-0.9133,-398.19,-703.37,-1361.21
780,-3.8737,-0.1002,-0.9158,-710.69,-890.87,-1548.71
790,-3.8737,-0.0990,-0.9165,-820.07,-1203.37,-1439.33
800,-3.8737,-0.0967,-0.9167,-663.82,-1297.12,-1236.21
810,-3.8737,-0.0948,-0.9187,-366.94,-1328.37,-1001.83
820,-3.8737,-0.0928,-0.9198,-132.57,-1578.37,-986.21
830,-3.8737,-0.0901,-0.9177,133.06,-1718.93,-1204.96
840,-3.8737,-0.0885,-0.9147,476.81,-1453.31,-1579.96
850,-3.8737,-0.0874,-0.9122,679.93,-1062.68,-1954.96
860,-3.8737,-0.0868,-0.9117,820.56,-750.18,1951.29
870,-3.8737,-0.0886,-0.9128,898.68,-687.68,-1954.96
880,-3.8737,-0.0919,-0.9138,664.31,-828.31,-1845.58
890,-3.8737,-0.0947,-0.9156,242.43,-953.31,-1642.46
900,-3.8737,-0.0974,-0.9178,-116.94,-1187.74,-1376.83
910,-3.8737,-0.0995,-0.9180,-460.69,-1468.99,-1204.96
920,-3.8737,-0.1005,-0.9165,-726.32,-1484.62,-1064.33
930,-3.8737,-0.1010,-0.9148,-851.32,-1297.12,-783.08
940,-3.8737,-0.1018,-0.9127,-913.82,-1078.37,-361.21
950,-3.8737,-0.1029,-0.9127,-1023.19,-812.74,-17.46
960,-3.8735,-0.1029,-0.9159,-1163.82,-812.74,76.29
970,-3.8737,-0.1013,-0.9191,-1163.82,-1218.99,-111.21
980,-3.8737,-0.0986,-0.9199,-960.69,-1625.24,-408.08
990,-3.8737,-0.0956,-0.9189,-616.94,-1734.62,-736.21
1000,-3.8737,-0.0930,-0.9166,-226.32,-1609.62,-1220.58
1010,-3.8737,-0.0913,-0.9138,101.81,-1312.68,-1876.83
1020,-3.8737,-0.0903,-0.9120,320.56,-953.31,1451.29
1030,-3.8737,-0.0897,-0.9106,445.56,-718.93,1154.42
1040,-3.8737,-0.0903,-0.9099,523.68,-547.06,1248.17
1050,-3.8737,-0.0922,-0.9121,445.56,-453.31,1498.17
1060,-3.8737,-0.0941,-0.9166,211.18,-734.56,1810.67
1070,-3.8737,-0.0961,-0.9197,-38.82,-1312.74,-1751.83
1080,-3.8737,-0.0981,-0.9208,-288.82,-1703.37,-1204.96
1090,-3.8737,-0.0999,-0.9218,-554.44,-1843.99,-564.33
1100,-3.8737,-0.1021,-0.9219,-773.19,-1968.99,-1.83
1110,-3.8735,-0.1051,-0.9199,-1054.44,-1984.62,295.04
1120,-3.8735,-0.1074,-0.9186,-1445.07,-1734.62,201.29
1130,-3.8737,-0.1077,-0.9181,-1741.94,-1562.74,-236.21
1140,-3.8737,-0.1052,-0.9175,-1773.19,-1500.24,-642.46
1150,-3.8737,-0.1011,-0.9176,-1460.69,-1422.12,-1001.83
1160,-3.8737,-0.0948,-0.9166,-929.44,-1437.74,-1501.83
1170,-3.8737,-0.0873,-0.9147,-132.57,-1312.74,1763.79
1180,-3.8737,-0.0817,-0.9113,836.18,-1062.68,1201.29
1190,-3.8737,-0.0812,-0.9067,1554.93,-625.18,1091.92
1200,-3.8737,-0.0846,-0.9061,1617.43,-47.06,998.17
1210,-3.8737,-0.0890,-0.9105,1179.93,31.07,279.48
1220,-3.8738,-0.0927,-0.9149,617.43,-531.43,-454.96
1230,-3.8738,-0.0950,-0.9156,148.68,-1093.93,-111.21
1240,-3.8737,-0.0979,-0.9154,-148.19,-1187.74,1279.42
1250,-3.8737,-0.1028,-0.9177,-523.19,-1156.49,-1111.21
1260,-3.8735,-0.1069,-0.9213,-1148.19,-1453.37,29.42
1270,-3.8735,-0.1085,-0.9243,-1679.44,-1906.49,388.79
1280,-3.8735,-0.1093,-0.9261,-1882.57,1702.88,216.92
1290,-3.8737,-0.1106,-0.9260,-1976.32,1468.51,-1.83
1300,-3.8735,-0.1113,-0.9248,1851.81,1484.13,45.04
1310,-3.8735,-0.1110,-0.9231,1758.06,1640.38,341.92
1320,-3.8735,-0.1094,-0.9209,1804.93,1859.13,388.79
1330,-3.8737,-0.1072,-0.9177,-1991.94,-1859.62,-1.83
1340,-3.8737,-0.1051,-0.9133,-1710.69,-1453.37,-845.58
1350,-3.8737,-0.1024,-0.9088,-1445.07,-890.87,-1939.33
1360,-3.8737,-0.0992,-0.9055,-1101.32,-312.74,1263.79
1370,-3.8737,-0.0969,-0.9047,-695.07,109.13,982.60
1380,-3.8737,-0.0964,-0.9077,-398.19,218.51,1045.10
1390,-3.8737,-0.0961,-0.9141,-335.69,-172.12,1201.29
1400,-3.8737,-0.0956,-0.9189,-288.82,-984.62,1341.92
1410,-3.8737,-0.0940,-0.9193,-226.32,-1609.62,1466.92
1420,-3.8737,-0.0918,-0.9172,-23.19,-1656.49,1607.54
1430,-3.8737,-0.0923,-0.9160,258.06,-1390.81,1904.42
1440,-3.8737,-0.0970,-0.9160,195.56,-1234.56,-1595.58
1450,-3.8737,-0.1046,-0.9167,-413.82,-1234.62,-1173.71
1460,-3.8737,-0.1112,-0.9172,-1382.57,-1328.37,-970.58
1470,-3.8737,-0.1138,-0.9172,1773.68,-1390.87,-1001.83
1480,-3.8737,-0.1118,-0.9175,1445.56,-1390.87,-1189.33
1490,-3.8737,-0.1062,-0.9182,1695.56,-1422.12,-1486.21
1500,-3.8737,-0.0983,-0.9185,-1585.69,-1515.87,-1658.08
1510,-3.8737,-0.0913,-0.9183,-570.07,-1547.12,-1642.46
1520,-3.8737,-0.0889,-0.9191,320.56,-1531.43,-1595.58
1530,-3.8737,-0.0916,-0.9193,633.06,-1625.18,-1658.08
1540,-3.8737,-0.0986,-0.9171,289.31,-1656.43,-1751.83
1550,-3.8737,-0.1074,-0.9142,-616.94,-1375.24,-1704.96
1560,-3.8737,-0.1140,-0.9135,-1741.94,-1000.24,-1626.83
1570,-3.8737,-0.1146,-0.9161,1414.31,-906.49,-1736.21
1580,-3.8737,-0.1080,-0.9204,1336.18,-1250.24,1951.29
1590,-3.8737,-0.0970,-0.9225,-1820.07,-1797.12,1560.67
1600,-3.8737,-0.0878,-0.9216,-413.82,1937.26,1591.92
1610,-3.8737,-0.0840,-0.9188,773.68,-1953.31,-1923.71
1620,-3.8737,-0.0859,-0.9154,1258.06,-1593.93,-1486.21
1630,-3.8737,-0.0927,-0.9135,1008.06,-1156.43,-1564.33
1640,-3.8737,-0.1016,-0.9131,148.68,-906.43,1998.17
1650,-3.8737,-0.1099,-0.9139,-991.94,-859.62,1685.67
1660,-3.8737,-0.1152,-0.9153,1945.56,-968.99,1810.67
1670,-3.8737,-0.1162,-0.9165,1258.06,-1140.87,-1579.96
1680,-3.8737,-0.1130,-0.9180,1133.06,-1297.12,-954.96
1690,-3.8737,-0.1077,-0.9189,1539.31,-1484.62,-814.33
1700,-3.8737,-0.1019,-0.9187,-1773.19,-1609.62,-1064.33
1710,-3.8737,-0.0978,-0.9176,-1038.82,-1578.37,-1454.96
1720,-3.8737,-0.0947,-0.9165,-507.57,-1437.74,-1798.71
1730,-3.8737,-0.0938,-0.9158,-116.94,-1297.12,-1908.08
1740,-3.8737,-0.0958,-0.9146,8.06,-1203.31,-1908.08
1750,-3.8737,-0.0988,-0.9131,-257.57,-1047.12,-1923.71
1760,-3.8737,-0.1027,-0.9126,-632.57,-859.62,-1908.08
1770,-3.8737,-0.1067,-0.9131,-1132.57,-797.12,1966.92
1780,-3.8737,-0.1091,-0.9139,-1648.19,-859.62,1670.04
1790,-3.8737,-0.1090,-0.9154,-1960.69,-968.99,1576.29
1800,-3.8737,-0.1058,-0.9170,-1945.07,-1156.49,1935.67
1810,-3.8737,-0.1013,-0.9188,-1538.82,-1359.62,-1689.33
1820,-3.8737,-0.0977,-0.9197,-960.69,-1593.99,-1517.46
1830,-3.8737,-0.0963,-0.9187,-491.94,-1703.37,-1361.21
1840,-3.8737,-0.0977,-0.9170,-320.07,-1578.37,-1408.08
1850,-3.8737,-0.1012,-0.9166,-491.94,-1359.62,-1548.71
1860,-3.8737,-0.1042,-0.9176,-945.07,-1312.74,-1564.33
1870,-3.8737,-0.1055,-0.9180,-1335.69,-1437.74,-1642.46
1880,-3.8737,-0.1051,-0.9170,-1491.94,-1484.62,-1751.83
1890,-3.8737,-0.1039,-0.9152,-1445.07,-1359.62,-1845.58
1900,-3.8737,-0.1028,-0.9141,-1288.82,-1125.24,-1908.08
1910,-3.8737,-0.1024,-0.9147,-1148.19,-984.62,-1954.96
1920,-3.8737,-0.1027,-0.9161,-1101.32,-1062.74,1951.29
1930,-3.8737,-0.1028,-0.9170,-1132.57,-1250.24,1826.29
1940,-3.8737,-0.1024,-0.9177,-1148.19,-1359.62,1748.17
1950,-3.8737,-0.1011,-0.9189,-1101.32,-1453.37,1826.29
1960,-3.8737,-0.0994,-0.9192,-929.44,-1609.62,-1939.33
1970,-3.8737,-0.0989,-0.9175,-710.69,-1640.87,-1626.83
1980,-3.8737,-0.1005,-0.9155,-648.19,-1422.12,-1517.46
1990,-3.8737,-0.1039,-0.9150,-851.32,-1172.12,-1689.33
2000,-3.8737,-0.1073,-0.9158,-1288.82,-1109.62,-1845.58
2010,-3.8737,-0.1086,-0.9167,-1726.32,-1203.37,-1814.33
2020,-3.8737,-0.1082,-0.9178,-1898.19,-1328.37,-1751.83
2030,-3.8737,-0.1062,-0.9187,-1835.69,-1468.99,-1595.58
2040,-3.8737,-0.1035,-0.9193,-1585.69,-1578.37,-1486.21
2050,-3.8737,-0.1008,-0.9202,-1241.94,-1656.49,-1579.96
2060,-3.8737,-0.0989,-0.9196,-898.19,-1765.87,-1751.83
2070,-3.8737,-0.0986,-0.9165,-648.19,-1687.74,-1908.08
2080,-3.8737,-0.0995,-0.9135,-616.94,-1297.12,1951.29
2090,-3.8737,-0.1007,-0.9121,-726.32,-906.49,1935.67
2100,-3.8737,-0.1033,-0.9121,-882.57,-734.62,1888.79
2110,-3.8737,-0.1061,-0.9127,-1210.69,-734.62,1748.17
2120,-3.8737,-0.1063,-0.9150,-1570.07,-812.74,1763.79
2130,-3.8737,-0.1039,-0.9182,-1601.32,-1109.62,-1954.96
2140,-3.8737,-0.1023,-0.9200,-1288.82,-1515.87,-1626.83
2150,-3.8737,-0.1023,-0.9208,-1085.69,-1750.24,-1454.96
2160,-3.8737,-0.1034,-0.9204,-1085.69,-1843.99,-1392.46
2170,-3.8737,-0.1044,-0.9197,-1226.32,-1797.12,-1501.83
2180,-3.8737,-0.1039,-0.9174,-1351.32,-1703.37,-1861.21
2190,-3.8737,-0.1027,-0.9148,-1288.82,-1406.49,1763.79
2200,-3.8737,-0.1011,-0.9142,-1132.57,-1078.37,1560.67
2210,-3.8737,-0.0997,-0.9153,-929.44,-1000.24,1498.17
2220,-3.8737,-0.1007,-0.9160,-757.57,-1140.87,1623.17
2230,-3.8737,-0.1035,-0.9156,-882.57,-1234.62,1966.92
2240,-3.8737,-0.1066,-0.9150,-1241.94,-1187.74,-1658.08
2250,-3.8737,-0.1104,-0.9147,-1632.57,-1109.62,-1564.33
2260,-3.8737,-0.1130,-0.9153,1883.06,-1062.74,-1814.33
2270,-3.8737,-0.1119,-0.9167,1539.31,-1140.87,1935.67
2280,-3.8737,-0.1071,-0.9171,1679.93,-1328.37,1826.29
2290,-3.8737,-0.1022,-0.9160,-1695.07,-1375.24,1826.29
2300,-3.8737,-0.1001,-0.9153,-1070.07,-1234.62,1935.67
2310,-3.8737,-0.1012,-0.9166,-804.44,-1140.87,-1876.83
2320,-3.8737,-0.1040,-0.9187,-945.07,-1312.74,-1783.08
2330,-3.8737,-0.1073,-0.9203,-1304.44,-1578.37,-1829.96
2340,-3.8737,-0.1100,-0.9207,-1726.32,-1781.49,-1829.96
2350,-3.8737,-0.1105,-0.9203,1929.93,-1828.37,-1798.71
2360,-3.8737,-0.1082,-0.9204,1867.43,-1781.49,-1892.46
2370,-3.8737,-0.1033,-0.9203,-1835.69,-1797.12,1857.54
2380,-3.8737,-0.0978,-0.9191,-1210.69,-1781.49,1560.67
2390,-3.8737,-0.0940,-0.9175,-507.57,-1625.24,1341.92
2400,-3.8737,-0.0942,-0.9160,-23.19,-1422.12,1201.29
2410,-3.8737,-0.0992,-0.9141,-54.44,-1234.62,1154.42
2420,-3.8737,-0.1074,-0.9121,-695.07,-984.62,1201.29
2430,-3.8737,-0.1150,-0.9125,-1741.94,-734.62,1341.92
2440,-3.8737,-0.1174,-0.9142,1289.31,-781.49,1482.54
2450,-3.8737,-0.1147,-0.9154,976.81,-1000.24,1638.79
2460,-3.8737,-0.1099,-0.9161,1320.56,-1156.49,1748.17
2470,-3.8737,-0.1047,-0.9169,1945.56,-1250.24,1920.04
2480,-3.8737,-0.1011,-0.9188,-1398.19,-1343.99,-1798.71
2490,-3.8737,-0.1000,-0.9210,-929.44,-1593.99,-1501.83
2500,-3.8737,-0.1019,-0.9219,-788.82,-1875.24,-1329.96
2510,-3.8737,-0.1064,-0.9220,-1038.82,-1984.62,-1486.21
2520,-3.8737,-0.1112,-0.9205,-1616.94,1999.76,-1704.96
2530,-3.8737,-0.1145,-0.9172,1773.68,-1812.74,-1845.58
2540,-3.8737,-0.1154,-0.9144,1351.81,-1390.87,1935.67
2550,-3.8737,-0.1130,-0.9121,1242.43,-1031.49,1623.17
2560,-3.8737,-0.1094,-0.9115,1539.31,-734.62,1341.92
2570,-3.8737,-0.1057,-0.9131,-1991.94,-656.49,1154.42
2580,-3.8737,-0.1023,-0.9160,-1523.19,-859.62,1154.42
2590,-3.8737,-0.1001,-0.9188,-1085.69,-1234.62,1420.04
2600,-3.8737,-0.1007,-0.9210,-804.44,-1593.99,1810.67
2610,-3.8737,-0.1038,-0.9229,-882.57,-1875.24,-1876.83
2620,-3.8737,-0.1083,-0.9231,-1273.19,1890.38,-1626.83
2630,-3.8737,-0.1122,-0.9219,-1851.32,1859.13,-1626.83
2640,-3.8737,-0.1123,-0.9193,1648.68,-1984.62,-1939.33
2650,-3.8737,-0.1085,-0.9165,1633.06,-1656.49,1576.29
2660,-3.8737,-0.1051,-0.9142,-1882.57,-1297.12,1388.79
2670,-3.8737,-0.1042,-0.9126,-1445.07,-1000.24,1513.79
2680,-3.8737,-0.1067,-0.9116,-1335.69,-797.12,1685.67
2690,-3.8737,-0.1108,-0.9113,-1648.19,-672.12,1685.67
2700,-3.8737,-0.1121,-0.9132,1820.56,-625.24,1326.29
2710,-3.8737,-0.1091,-0.9169,1664.31,-875.24,920.04
2720,-3.8737,-0.1042,-0.9200,-1960.69,-1343.99,826.29
2730,-3.8737,-0.1001,-0.9216,-1335.69,-1750.24,1216.92
2740,-3.8737,-0.0997,-0.9216,-804.44,-1953.37,1888.79
2750,-3.8737,-0.1040,-0.9205,-757.57,-1953.37,-1595.58
2760,-3.8737,-0.1101,-0.9186,-1304.44,-1812.74,-1595.58
2770,-3.8737,-0.1146,-0.9169,1914.31,-1562.74,1998.17
2780,-3.8737,-0.1158,-0.9159,1336.18,-1343.99,1654.42
2790,-3.8737,-0.1150,-0.9142,1179.93,-1218.99,1576.29
2800,-3.8737,-0.1130,-0.9121,1289.31,-1000.24,1654.42
2810,-3.8737,-0.1101,-0.9099,1539.31,-734.62,1795.04
2820,-3.8737,-0.1074,-0.9097,1914.31,-453.37,1935.67
2830,-3.8737,-0.1060,-0.9133,-1741.94,-422.12,1685.67
2840,-3.8737,-0.1064,-0.9172,-1554.44,-890.87,810.67
2850,-3.8737,-0.1067,-0.9196,-1616.94,-1390.87,185.67
2860,-3.8737,-0.1053,-0.9209,-1648.19,-1687.74,373.17
2870,-3.8737,-0.1044,-0.9222,-1476.32,-1859.62,1107.54
2880,-3.8737,-0.1053,-0.9242,-1351.32,1968.51,1920.04
2890,-3.8737,-0.1078,-0.9265,-1476.32,1718.51,-1595.58
2900,-3.8737,-0.1107,-0.9282,-1788.82,1421.63,-1533.08
2910,-3.8737,-0.1140,-0.9270,1836.18,1202.88,-1720.58
2920,-3.8737,-0.1168,-0.9229,1414.31,1359.13,-1814.33
2930,-3.8737,-0.1162,-0.9185,1054.93,1890.38,-1751.83
2940,-3.8737,-0.1122,-0.9166,1133.06,-1547.12,-1908.08
2950,-3.8737,-0.1064,-0.9164,1648.68,-1312.74,1482.54
2960,-3.8737,-0.1013,-0.9146,-1616.94,-1281.49,716.92
2970,-3.8737,-0.1003,-0.9122,-960.69,-1047.12,216.92
2980,-3.8737,-0.1040,-0.9128,-835.69,-750.24,295.04
2990,-3.8737,-0.1095,-0.9166,-1304.44,-828.37,888.79
3000,-3.8737,-0.1139,-0.9208,1992.43,-1312.74,1466.92
3010,-3.8737,-0.1155,-0.9230,1429.93,-1843.99,1748.17
3020,-3.8737,-0.1143,-0.9222,1226.81,1874.76,1763.79
3030,-3.8737,-0.1118,-0.9194,1383.06,1968.51,1638.79
3040,-3.8737,-0.1095,-0.9161,1695.56,-1672.12,1451.29
3050,-3.8737,-0.1078,-0.9142,1992.43,-1250.24,1279.42
3060,-3.8737,-0.1071,-0.9143,-1788.82,-1000.24,1170.04
3070,-3.8737,-0.1074,-0.9159,-1695.07,-1015.87,1263.79
3080,-3.8737,-0.1093,-0.9174,-1741.94,-1218.99,1466.92
3090,-3.8737,-0.1110,-0.9192,-1976.32,-1406.49,1623.17
3100,-3.8737,-0.1124,-0.9204,1804.93,-1640.87,1654.42
3110,-3.8737,-0.1135,-0.9202,1617.43,-1797.12,1623.17
3120,-3.8737,-0.1138,-0.9193,1476.81,-1765.87,1638.79
3130,-3.8737,-0.1118,-0.9188,1445.56,-1656.49,1763.79
3140,-3.8737,-0.1084,-0.9189,1695.56,-1593.99,1888.79
3150,-3.8737,-0.1060,-0.9191,-1866.94,-1609.62,1810.67
3160,-3.8737,-0.1052,-0.9191,-1554.44,-1625.24,1623.17
3170,-3.8737,-0.1062,-0.9188,-1460.69,-1625.24,1404.42
3180,-3.8737,-0.1079,-0.9181,-1585.69,-1593.99,1216.92
3190,-3.8737,-0.1099,-0.9171,-1804.44,-1500.24,998.17
3200,-3.8737,-0.1118,-0.9160,1945.56,-1375.24,841.92
3210,-3.8737,-0.1123,-0.9163,1695.56,-1234.62,904.42
3220,-3.8737,-0.1111,-0.9171,1633.06,-1265.87,1216.92
3230,-3.8737,-0.1102,-0.9181,1789.31,-1375.24,1560.67
3240,-3.8737,-0.1104,-0.9188,1898.68,-1500.24,1670.04
3250,-3.8737,-0.1105,-0.9191,1883.06,-1593.99,1623.17
3260,-3.8737,-0.1100,-0.9191,1867.43,-1625.24,1545.04
3270,-3.8737,-0.1093,-0.9185,1929.93,-1625.24,1404.42
3280,-3.8737,-0.1093,-0.9178,-1976.32,-1547.12,1404.42
3290,-3.8737,-0.1108,-0.9172,-1976.32,-1468.99,1560.67
3300,-3.8737,-0.1136,-0.9164,1820.56,-1390.87,1685.67
3310,-3.8737,-0.1154,-0.9158,1461.18,-1281.49,1529.42
3320,-3.8737,-0.1146,-0.9163,1242.43,-1203.37,1170.04
3330,-3.8737,-0.1115,-0.9174,1336.18,-1265.87,1045.04
3340,-3.8737,-0.1072,-0.9181,1742.43,-1406.49,1232.54
3350,-3.8737,-0.1042,-0.9191,-1710.69,-1500.24,1529.42
3360,-3.8737,-0.1049,-0.9200,-1335.69,-1625.24,1670.04
3370,-3.8737,-0.1088,-0.9200,-1413.82,-1750.24,1670.04
3380,-3.8737,-0.1128,-0.9182,-1913.82,-1750.24,1623.17
3390,-3.8737,-0.1154,-0.9163,1570.56,-1515.87,1513.79
3400,-3.8737,-0.1157,-0.9166,1242.43,-1265.87,1341.92
3410,-3.8737,-0.1140,-0.9177,1195.56,-1312.74,1185.67
3420,-3.8737,-0.1117,-0.9178,1414.31,-1453.37,1232.54
3430,-3.8737,-0.1105,-0.9181,1711.18,-1468.99,1420.04
3440,-3.8737,-0.1104,-0.9187,1867.43,-1500.24,1591.92
3450,-3.8737,-0.1108,-0.9183,1883.06,-1578.37,1607.54
3460,-3.8737,-0.1108,-0.9172,1820.56,-1531.49,1373.17
3470,-3.8737,-0.1096,-0.9172,1820.56,-1390.87,1045.04
3480,-3.8737,-0.1075,-0.9188,1976.81,-1390.87,982.54
3490,-3.8737,-0.1066,-0.9198,-1757.57,-1593.99,1248.17
3500,-3.8737,-0.1080,-0.9198,-1632.57,-1718.99,1545.04
3510,-3.8737,-0.1108,-0.9198,-1820.07,-1718.99,1685.67
3520,-3.8737,-0.1139,-0.9198,1820.56,-1718.99,1513.79
3530,-3.8737,-0.1160,-0.9188,1429.93,-1718.99,1060.67
3540,-3.8737,-0.1155,-0.9175,1164.31,-1593.99,826.29
3550,-3.8737,-0.1124,-0.9176,1226.81,-1422.12,1076.29
3560,-3.8737,-0.1088,-0.9185,1617.43,-1437.74,1451.29
3570,-3.8737,-0.1072,-0.9191,-1913.82,-1547.12,1654.42
3580,-3.8737,-0.1085,-0.9186,-1710.69,-1625.24,1654.42
3590,-3.8737,-0.1111,-0.9169,-1882.57,-1562.74,1560.67
3600,-3.8737,-0.1141,-0.9156,1789.31,-1343.99,1341.92
3610,-3.8737,-0.1168,-0.9147,1398.68,-1187.74,1185.67
3620,-3.8737,-0.1187,-0.9154,1054.93,-1062.74,1185.67
3630,-3.8737,-0.1178,-0.9185,820.56,-1156.49,1326.29
3640,-3.8737,-0.1145,-0.9215,929.93,-1547.12,1545.04
3650,-3.8737,-0.1115,-0.9226,1351.81,-1937.74,1763.79
3660,-3.8737,-0.1089,-0.9226,1742.43,1921.63,1888.79
3670,-3.8737,-0.1069,-0.9216,-1929.44,1921.63,1732.54
3680,-3.8737,-0.1066,-0.9188,-1679.44,-1953.37,1357.54
3690,-3.8737,-0.1085,-0.9154,-1632.57,-1593.99,1138.79
3700,-3.8737,-0.1125,-0.9141,-1882.57,-1156.49,1310.67
3710,-3.8737,-0.1165,-0.9158,1601.81,-984.62,1576.29
3720,-3.8737,-0.1183,-0.9182,1101.81,-1203.37,1591.92
3730,-3.8737,-0.1167,-0.9191,867.43,-1515.87,1388.79
3740,-3.8737,-0.1128,-0.9187,1070.56,-1625.24,1123.17
3750,-3.8737,-0.1093,-0.9181,1570.56,-1578.37,1076.29
3760,-3.8737,-0.1083,-0.9174,-1976.32,-1500.24,1170.04
3770,-3.8737,-0.1099,-0.9177,-1851.32,-1406.49,1232.54
3780,-3.8737,-0.1121,-0.9189,1945.56,-1453.37,1232.54
3790,-3.8737,-0.1139,-0.9194,1664.31,-1609.62,1357.54
3800,-3.8737,-0.1146,-0.9183,1429.93,-1672.12,1576.29
3810,-3.8737,-0.1141,-0.9172,1336.18,-1531.49,1685.67
3820,-3.8737,-0.1129,-0.9171,1398.68,-1390.87,1529.42
3830,-3.8737,-0.1116,-0.9176,1554.93,-1375.24,1310.67
3840,-3.8737,-0.1107,-0.9182,1726.81,-1437.74,1232.54
3850,-3.8737,-0.1110,-0.9182,1836.18,-1515.87,1326.29
3860,-3.8737,-0.1119,-0.9182,1804.93,-1515.87,1435.67
3870,-3.8737,-0.1130,-0.9177,1679.93,-1515.87,1451.29
3880,-3.8737,-0.1144,-0.9171,1539.31,-1453.37,1295.04
3890,-3.8737,-0.1139,-0.9167,1367.43,-1375.24,1076.29
3900,-3.8737,-0.1106,-0.9164,1429.93,-1328.37,779.42
3910,-3.8737,-0.1061,-0.9165,1851.81,-1281.49,373.17
3920,-3.8737,-0.1033,-0.9170,-1570.07,-1297.12,263.79
3930,-3.8737,-0.1038,-0.9172,-1210.69,-1359.62,779.42
3940,-3.8737,-0.1079,-0.9178,-1273.19,-1390.87,1591.92
3950,-3.8737,-0.1146,-0.9193,-1804.44,-1468.99,-1814.33
3960,-3.8737,-0.1210,-0.9213,1336.18,-1656.49,-1579.96
3970,-3.8737,-0.1243,-0.9226,523.68,-1906.49,-1626.83
3980,-3.8737,-0.1228,-0.9222,101.81,1921.63,-1892.46
3990,-3.8737,-0.1176,-0.9202,289.31,1968.51,1779.42
4000,-3.8737,-0.1110,-0.9176,961.18,-1765.87,1513.79
4010,-3.8737,-0.1053,-0.9149,1804.93,-1437.74,1185.67
4020,-3.8737,-0.1029,-0.9130,-1476.32,-1093.99,935.67
4030,-3.8737,-0.1050,-0.9128,-1163.82,-843.99,857.54
4040,-3.8737,-0.1095,-0.9139,-1429.44,-828.37,779.42
4050,-3.8737,-0.1135,-0.9143,1992.43,-968.99,763.79
4060,-3.8737,-0.1160,-0.9133,1476.81,-1015.87,623.17
4070,-3.8737,-0.1171,-0.9125,1164.31,-890.87,545.04
4080,-3.8737,-0.1169,-0.9125,1023.68,-781.49,748.17
4090,-3.8737,-0.1154,-0.9139,1039.31,-781.49,1123.17
4100,-3.8737,-0.1138,-0.9161,1242.43,-968.99,1560.67
4110,-3.8737,-0.1134,-0.9187,1445.56,-1250.24,1841.92
4120,-3.8737,-0.1133,-0.9215,1492.43,-1578.37,1982.54
4130,-3.8737,-0.1130,-0.9242,1508.06,-1937.74,-1970.58
4140,-3.8737,-0.1129,-0.9250,1539.31,1718.51,1904.42
4150,-3.8737,-0.1125,-0.9235,1554.93,1609.13,1670.04
4160,-3.8737,-0.1117,-0.9216,1601.81,1812.26,1404.42
4170,-3.8737,-0.1099,-0.9204,1711.18,-1953.37,1076.29
4180,-3.8737,-0.1073,-0.9198,1945.56,-1797.12,763.79
4190,-3.8737,-0.1049,-0.9196,-1726.32,-1718.99,466.92
4200,-3.8737,-0.1030,-0.9194,-1413.82,-1687.74,341.92
4210,-3.8737,-0.1040,-0.9193,-1179.44,-1672.12,560.67
4220,-3.8737,-0.1074,-0.9198,-1304.44,-1656.49,826.29
4230,-3.8737,-0.1117,-0.9197,-1741.94,-1718.99,920.04
4240,-3.8737,-0.1155,-0.9181,1711.18,-1703.37,873.17
4250,-3.8737,-0.1167,-0.9170,1226.81,-1500.24,701.29
4260,-3.8737,-0.1158,-0.9161,1070.56,-1359.62,560.67
4270,-3.8737,-0.1141,-0.9154,1179.93,-1250.24,623.17
4280,-3.8737,-0.1124,-0.9153,1398.68,-1156.49,920.04
4290,-3.8737,-0.1118,-0.9160,1617.43,-1140.87,1295.04
4300,-3.8737,-0.1128,-0.9167,1695.56,-1234.62,1435.67
4310,-3.8737,-0.1147,-0.9170,1570.56,-1328.37,1435.67
4320,-3.8737,-0.1172,-0.9175,1320.56,-1359.62,1498.17
4330,-3.8737,-0.1189,-0.9174,1008.06,-1422.12,1623.17
4340,-3.8737,-0.1200,-0.9161,789.31,-1406.49,1716.92
4350,-3.8737,-0.1202,-0.9159,648.68,-1250.24,1763.79
4360,-3.8737,-0.1187,-0.9183,617.43,-1218.99,1716.92
4370,-3.8737,-0.1160,-0.9207,820.56,-1531.49,1529.42
4380,-3.8737,-0.1138,-0.9192,1164.31,-1828.37,1232.54
4390,-3.8737,-0.1129,-0.9156,1445.56,-1640.87,1029.42
4400,-3.8737,-0.1140,-0.9146,1554.93,-1187.74,1076.29
4410,-3.8737,-0.1163,-0.9167,1414.31,-1047.12,1295.04
4420,-3.8737,-0.1187,-0.9189,1117.43,-1328.37,1513.79
4430,-3.8737,-0.1199,-0.9194,820.56,-1609.62,1716.92
4440,-3.8737,-0.1194,-0.9203,664.31,-1672.12,1920.04
4450,-3.8737,-0.1176,-0.9218,726.81,-1781.49,1966.92
4460,-3.8737,-0.1149,-0.9227,961.18,-1968.99,1716.92
4470,-3.8737,-0.1113,-0.9229,1304.93,1906.01,1279.42
4480,-3.8737,-0.1089,-0.9219,1758.06,1890.38,966.92
4490,-3.8737,-0.1090,-0.9189,-1929.44,-1984.62,951.29
4500,-3.8737,-0.1099,-0.9164,-1945.07,-1609.62,1060.67
4510,-3.8737,-0.1112,-0.9154,1945.56,-1281.49,1060.67
4520,-3.8737,-0.1129,-0.9155,1773.68,-1156.49,810.67
4530,-3.8737,-0.1139,-0.9160,1554.93,-1172.12,357.54
4540,-3.8737,-0.1138,-0.9163,1429.93,-1234.62,76.29
4550,-3.8737,-0.1123,-0.9166,1445.56,-1265.87,295.04
4560,-3.8737,-0.1106,-0.9174,1633.06,-1312.74,873.17
4570,-3.8737,-0.1117,-0.9178,1851.81,-1406.49,1466.92
4580,-3.8737,-0.1147,-0.9186,1711.18,-1468.99,1779.42
4590,-3.8737,-0.1172,-0.9202,1320.56,-1562.74,1795.04
4600,-3.8737,-0.1191,-0.9207,1008.06,-1765.87,1638.79
4610,-3.8737,-0.1207,-0.9198,758.06,-1828.37,1498.17
4620,-3.8737,-0.1204,-0.9177,554.93,-1718.99,1404.42
4630,-3.8737,-0.1185,-0.9150,601.81,-1453.37,1341.92
4640,-3.8737,-0.1168,-0.9137,836.18,-1109.62,1201.29
4650,-3.8737,-0.1150,-0.9144,1054.93,-937.74,1060.67
4660,-3.8737,-0.1123,-0.9166,1289.31,-1031.49,998.17
4670,-3.8737,-0.1101,-0.9186,1633.06,-1312.74,1045.04
4680,-3.8737,-0.1096,-0.9202,1914.31,-1562.74,1248.17
4690,-3.8737,-0.1117,-0.9205,1976.81,-1765.87,1451.29
4700,-3.8737,-0.1156,-0.9185,1711.18,-1812.74,1451.29
4710,-3.8737,-0.1205,-0.9152,1211.18,-1547.12,1216.92
4720,-3.8737,-0.1238,-0.9137,586.18,-1125.24,873.17
4730,-3.8737,-0.1229,-0.9149,164.31,-937.74,654.42
4740,-3.8737,-0.1183,-0.9174,273.68,-1093.99,716.92
4750,-3.8737,-0.1130,-0.9192,867.43,-1406.49,1029.42
4760,-3.8737,-0.1100,-0.9199,1539.31,-1640.87,1404.42
4770,-3.8737,-0.1090,-0.9205,1929.93,-1734.62,1623.17
4780,-3.8737,-0.1100,-0.9213,-1945.07,-1812.74,1482.54
4790,-3.8737,-0.1129,-0.9218,1929.93,-1906.49,1216.92
4800,-3.8737,-0.1160,-0.9214,1554.93,-1968.99,1123.17
4810,-3.8737,-0.1178,-0.9205,1164.31,-1922.12,1138.79
4820,-3.8737,-0.1183,-0.9188,929.93,-1812.74,1123.17
4830,-3.8737,-0.1182,-0.9167,867.43,-1593.99,1029.42
4840,-3.8737,-0.1163,-0.9165,883.06,-1328.37,857.54
4850,-3.8737,-0.1122,-0.9185,1117.43,-1297.12,701.29
4860,-3.8737,-0.1085,-0.9199,1648.68,-1547.12,670.04
4870,-3.8737,-0.1079,-0.9198,-1882.57,-1734.62,779.42
4880,-3.8737,-0.1096,-0.9185,-1804.44,-1718.99,888.79
4890,-3.8737,-0.1118,-0.9159,1976.81,-1547.12,857.54
4900,-3.8737,-0.1136,-0.9132,1695.56,-1218.99,670.04
4910,-3.8737,-0.1156,-0.9121,1461.18,-875.24,451.29
4920,-3.8737,-0.1173,-0.9125,1211.18,-734.62,326.29
4930,-3.8737,-0.1188,-0.9130,992.43,-781.49,341.92
4940,-3.8737,-0.1194,-0.9144,804.93,-843.99,654.42
4950,-3.8737,-0.1195,-0.9169,726.81,-1031.49,1107.54
4960,-3.8737,-0.1201,-0.9196,711.18,-1343.99,1529.42
4970,-3.8737,-0.1207,-0.9224,633.06,-1687.74,1873.17
4980,-3.8737,-0.1201,-0.9244,554.93,1952.88,-1986.21
4990,-3.8737,-0.1183,-0.9254,633.06,1687.26,-1939.33
5000,-3.8737,-0.1154,-0.9252,867.43,1562.26,-1892.46
5010,-3.8737,-0.1118,-0.9230,1242.43,1593.51,-1986.21
5020,-3.8737,-0.1102,-0.9197,1695.56,1874.76,1638.79
5030,-3.8737,-0.1116,-0.9169,1898.68,-1703.37,1201.29
5040,-3.8737,-0.1152,-0.9158,1726.81,-1343.99,920.04
5050,-3.8737,-0.1193,-0.9166,1258.06,-1203.37,748.17
5060,-3.8737,-0.1215,-0.9182,742.43,-1312.74,701.29
5070,-3.8737,-0.1200,-0.9198,461.18,-1515.87,685.67
5080,-3.8737,-0.1145,-0.9204,648.68,-1718.99,560.67
5090,-3.8737,-0.1068,-0.9199,1351.81,-1797.12,310.67
5100,-3.8737,-0.1011,-0.9182,-1663.82,-1734.62,123.17
5110,-3.8737,-0.1006,-0.9169,-929.44,-1515.87,60.67
5120,-3.8737,-0.1045,-0.9164,-866.94,-1343.99,91.92
5130,-3.8737,-0.1110,-0.9171,-1366.94,-1281.49,310.67
5140,-3.8737,-0.1185,-0.9175,1804.93,-1375.24,638.79
5150,-3.8737,-0.1249,-0.9161,836.18,-1422.12,951.29
5160,-3.8737,-0.1287,-0.9143,23.68,-1250.24,1310.67
5170,-3.8737,-0.1294,-0.9133,-460.69,-1015.93,1591.92
5180,-3.8737,-0.1273,-0.9144,-554.44,-890.93,1576.29
5190,-3.8737,-0.1228,-0.9171,-288.82,-1031.56,1513.79
5200,-3.8737,-0.1172,-0.9192,289.31,-1375.24,1451.29
5210,-3.8737,-0.1123,-0.9207,1008.06,-1640.87,1451.29
5220,-3.8737,-0.1097,-0.9219,1633.06,-1828.37,1529.42
5230,-3.8737,-0.1106,-0.9216,1961.18,-1984.62,1576.29
5240,-3.8737,-0.1135,-0.9197,1851.81,-1953.37,1513.79
5250,-3.8737,-0.1176,-0.9175,1476.81,-1703.37,1310.67
5260,-3.8737,-0.1202,-0.9164,961.18,-1422.12,998.17
5270,-3.8737,-0.1206,-0.9172,617.43,-1281.49,701.29
5280,-3.8737,-0.1193,-0.9193,570.56,-1390.87,607.54
5290,-3.8737,-0.1165,-0.9204,742.43,-1656.49,685.67
5300,-3.8737,-0.1128,-0.9205,1101.81,-1797.12,716.92
5310,-3.8737,-0.1100,-0.9202,1570.56,-1812.74,670.04
5320,-3.8737,-0.1077,-0.9196,1929.93,-1765.87,576.29
5330,-3.8737,-0.1053,-0.9193,-1773.19,-1687.74,373.17
5340,-3.8737,-0.1051,-0.9197,-1476.32,-1656.49,170.04
5350,-3.8737,-0.1079,-0.9188,-1445.07,-1703.37,263.79
5360,-3.8737,-0.1133,-0.9175,-1804.44,-1593.99,685.67
5370,-3.8737,-0.1198,-0.9177,1508.06,-1422.12,1232.54
5380,-3.8737,-0.1245,-0.9194,679.93,-1453.37,1607.54
5390,-3.8737,-0.1255,-0.9203,70.56,-1672.12,1545.04
5400,-3.8737,-0.1229,-0.9187,-54.44,-1781.56,1248.17
5410,-3.8737,-0.1190,-0.9175,273.68,-1578.37,1154.42
5420,-3.8737,-0.1151,-0.9172,773.68,-1422.12,1279.42
5430,-3.8737,-0.1124,-0.9174,1273.68,-1390.87,1341.92
5440,-3.8737,-0.1119,-0.9171,1617.43,-1406.49,1216.92
5450,-3.8737,-0.1138,-0.9166,1679.93,-1375.24,1013.79
5460,-3.8737,-0.1167,-0.9171,1445.56,-1312.74,935.67
5470,-3.8737,-0.1190,-0.9170,1070.56,-1375.24,982.54
5480,-3.8737,-0.1195,-0.9161,773.68,-1359.62,935.67
5490,-3.8737,-0.1193,-0.9161,711.18,-1250.24,795.04
5500,-3.8737,-0.1190,-0.9165,742.43,-1250.24,779.42
5510,-3.8737,-0.1173,-0.9166,773.68,-1297.12,951.29
5520,-3.8737,-0.1143,-0.9175,992.43,-1312.74,1170.04
5530,-3.8737,-0.1112,-0.9189,1383.06,-1422.12,1295.04
5540,-3.8737,-0.1095,-0.9208,1773.68,-1609.62,1326.29
5550,-3.8737,-0.1100,-0.9214,1992.43,-1843.99,1201.29
5560,-3.8737,-0.1123,-0.9199,1929.93,-1922.12,1029.42
5570,-3.8737,-0.1152,-0.9176,1633.06,-1734.62,888.79
5580,-3.8737,-0.1177,-0.9163,1258.06,-1437.74,795.04
5590,-3.8737,-0.1183,-0.9163,945.56,-1265.87,670.04
5600,-3.8737,-0.1177,-0.9167,867.43,-1265.87,545.04
5610,-3.8737,-0.1162,-0.9174,945.56,-1328.37,529.42
5620,-3.8737,-0.1144,-0.9188,1133.06,-1406.49,638.79
5630,-3.8737,-0.1127,-0.9200,1367.43,-1593.99,763.79
5640,-3.8737,-0.1122,-0.9211,1586.18,-1750.24,904.42
5650,-3.8737,-0.1132,-0.9215,1648.68,-1890.87,1091.92
5660,-3.8737,-0.1151,-0.9210,1523.68,-1937.74,1263.79
5670,-3.8737,-0.1174,-0.9207,1273.68,-1875.24,1388.79
5680,-3.8737,-0.1187,-0.9187,976.81,-1828.37,1388.79
5690,-3.8737,-0.1187,-0.9169,820.56,-1578.37,1138.79
5700,-3.8737,-0.1173,-0.9159,820.56,-1343.99,732.54
5710,-3.8737,-0.1157,-0.9149,992.43,-1218.99,529.42
5720,-3.8737,-0.1158,-0.9150,1195.56,-1093.99,560.67
5730,-3.8737,-0.1178,-0.9160,1179.93,-1109.62,716.92
5740,-3.8737,-0.1193,-0.9181,929.93,-1234.62,951.29
5750,-3.8737,-0.1187,-0.9193,742.43,-1500.24,1013.79
5760,-3.8737,-0.1166,-0.9194,820.56,-1656.49,873.17
5770,-3.8737,-0.1138,-0.9192,1086.18,-1672.12,873.17
5780,-3.8737,-0.1132,-0.9178,1445.56,-1640.87,1107.54
5790,-3.8737,-0.1156,-0.9167,1523.68,-1468.99,1154.42
5800,-3.8737,-0.1190,-0.9172,1211.18,-1328.37,1076.29
5810,-3.8737,-0.1219,-0.9178,773.68,-1390.87,998.17
5820,-3.8737,-0.1228,-0.9187,398.68,-1468.99,998.17
5830,-3.8737,-0.1208,-0.9202,289.31,-1578.37,966.92
5840,-3.8737,-0.1169,-0.9210,539.31,-1765.87,841.92
5850,-3.8737,-0.1129,-0.9207,1039.31,-1875.24,826.29
5860,-3.8737,-0.1110,-0.9196,1554.93,-1828.37,935.67
5870,-3.8737,-0.1119,-0.9187,1804.93,-1687.74,966.92
5880,-3.8737,-0.1144,-0.9182,1679.93,-1578.37,826.29
5890,-3.8737,-0.1167,-0.9178,1367.43,-1515.87,529.42
5900,-3.8737,-0.1180,-0.9167,1070.56,-1468.99,326.29
5910,-3.8737,-0.1183,-0.9155,898.68,-1328.37,373.17
5920,-3.8737,-0.1182,-0.9163,867.43,-1172.12,576.29
5930,-3.8737,-0.1174,-0.9181,883.06,-1265.87,841.92
5940,-3.8737,-0.1160,-0.9197,976.81,-1500.24,904.42
5950,-3.8737,-0.1150,-0.9204,1164.31,-1703.37,685.67
5960,-3.8737,-0.1146,-0.9200,1289.31,-1797.12,623.17
5970,-3.8737,-0.1155,-0.9191,1336.18,-1750.24,826.29
5980,-3.8737,-0.1171,-0.9182,1226.81,-1625.24,1091.92
5990,-3.8737,-0.1191,-0.9186,1023.68,-1515.87,1248.17
6000,-3.8737,-0.1207,-0.9196,758.06,-1562.74,1185.67
6010,-3.8737,-0.1201,-0.9196,554.93,-1687.74,998.17
6020,-3.8737,-0.1183,-0.9196,633.06,-1687.74,857.54
6030,-3.8737,-0.1154,-0.9194,867.43,-1687.74,795.04
6040,-3.8737,-0.1127,-0.9194,1242.43,-1672.12,826.29
6050,-3.8737,-0.1125,-0.9186,1586.18,-1672.12,904.42
6060,-3.8737,-0.1154,-0.9164,1601.81,-1562.74,904.42
6070,-3.8737,-0.1190,-0.9160,1242.43,-1281.49,607.54
6080,-3.8737,-0.1206,-0.9156,773.68,-1234.62,170.04
6090,-3.8737,-0.1188,-0.9147,570.56,-1187.74,91.92
6100,-3.8737,-0.1149,-0.9146,804.93,-1062.74,404.42
6110,-3.8737,-0.1125,-0.9164,1304.93,-1047.12,826.29
6120,-3.8737,-0.1136,-0.9198,1601.81,-1281.49,1091.92
6130,-3.8737,-0.1173,-0.9218,1461.18,-1718.99,1216.92
6140,-3.8737,-0.1223,-0.9221,992.43,-1968.99,1341.92
6150,-3.8737,-0.1257,-0.9210,351.81,1984.13,1435.67
6160,-3.8737,-0.1245,-0.9196,-85.69,-1875.31,1388.79
6170,-3.8737,-0.1201,-0.9167,70.56,-1687.74,1107.54
6180,-3.8737,-0.1156,-0.9148,633.06,-1328.37,810.67
6190,-3.8737,-0.1130,-0.9147,1211.18,-1078.37,654.42
6200,-3.8737,-0.1125,-0.9144,1539.31,-1062.74,560.67
6210,-3.8737,-0.1147,-0.9146,1601.81,-1031.49,482.54
6220,-3.8737,-0.1184,-0.9163,1320.56,-1047.12,420.04
6230,-3.8737,-0.1218,-0.9198,851.81,-1265.87,451.29
6240,-3.8737,-0.1233,-0.9229,414.31,-1718.99,763.79
6250,-3.8737,-0.1217,-0.9247,226.81,1890.38,1279.42
6260,-3.8737,-0.1177,-0.9244,429.93,1656.01,1623.17
6270,-3.8737,-0.1147,-0.9220,945.56,1687.26,1529.42
6280,-3.8737,-0.1149,-0.9186,1320.56,1999.76,1170.04
6290,-3.8737,-0.1172,-0.9161,1304.93,-1562.74,748.17
6300,-3.8737,-0.1190,-0.9155,1008.06,-1250.24,373.17
6310,-3.8737,-0.1190,-0.9156,773.68,-1172.12,154.42
6320,-3.8737,-0.1180,-0.9156,773.68,-1187.74,91.92
6330,-3.8737,-0.1168,-0.9147,898.68,-1187.74,76.29
6340,-3.8737,-0.1163,-0.9144,1054.93,-1062.74,201.29
6350,-3.8737,-0.1173,-0.9165,1117.43,-1031.49,498.17
6360,-3.8737,-0.1196,-0.9192,992.43,-1297.12,701.29
6370,-3.8737,-0.1215,-0.9218,695.56,-1640.87,748.17
6380,-3.8737,-0.1210,-0.9232,461.18,-1968.99,763.79
6390,-3.8737,-0.1190,-0.9237,523.68,1843.51,904.42
6400,-3.8737,-0.1177,-0.9230,773.68,1781.01,1201.29
6410,-3.8737,-0.1185,-0.9209,945.56,1874.76,1498.17
6420,-3.8737,-0.1201,-0.9192,836.18,-1859.62,1513.79
6430,-3.8737,-0.1198,-0.9178,633.06,-1640.87,1060.67
6440,-3.8737,-0.1179,-0.9156,679.93,-1468.99,341.92
6450,-3.8738,-0.1163,-0.9141,914.31,-1187.74,-267.46
6460,-3.8738,-0.1165,-0.9142,1117.43,-984.62,-423.71
6470,-3.8738,-0.1176,-0.9166,1101.81,-1000.24,-1.83
6480,-3.8737,-0.1194,-0.9198,961.18,-1312.74,513.79
6490,-3.8737,-0.1213,-0.9211,726.81,-1718.99,810.67
6500,-3.8737,-0.1226,-0.9205,476.81,-1890.87,873.17
6510,-3.8737,-0.1226,-0.9196,320.56,-1812.74,888.79
6520,-3.8737,-0.1229,-0.9183,320.56,-1687.74,1013.79
6530,-3.8737,-0.1240,-0.9180,273.68,-1531.49,1076.29
6540,-3.8737,-0.1241,-0.9194,133.06,-1484.62,998.17
6550,-3.8737,-0.1233,-0.9210,117.43,-1672.12,888.79
6560,-3.8737,-0.1221,-0.9202,226.81,-1875.24,732.54
6570,-3.8737,-0.1196,-0.9186,383.06,-1765.87,513.79
6580,-3.8737,-0.1171,-0.9187,695.56,-1562.74,201.29
6590,-3.8738,-0.1163,-0.9182,1023.68,-1578.37,-79.96
6600,-3.8738,-0.1176,-0.9166,1117.43,-1515.87,-79.96
6610,-3.8737,-0.1196,-0.9135,961.18,-1312.74,13.79
6620,-3.8738,-0.1215,-0.9121,695.56,-906.49,-33.08
6630,-3.8738,-0.1221,-0.9159,461.18,-734.62,-126.83
6640,-3.8737,-0.1215,-0.9204,383.06,-1218.99,29.42
6650,-3.8737,-0.1208,-0.9240,461.18,-1797.12,545.04
6660,-3.8737,-0.1207,-0.9258,539.31,1749.76,1060.67
6670,-3.8737,-0.1222,-0.9250,554.93,1515.38,1232.54
6680,-3.8737,-0.1260,-0.9219,367.43,1609.13,1045.04
6690,-3.8737,-0.1293,-0.9189,-116.94,-1984.68,607.54
6700,-3.8737,-0.1282,-0.9181,-538.82,-1609.68,326.29
6710,-3.8737,-0.1239,-0.9181,-398.19,-1500.31,295.04
6720,-3.8737,-0.1199,-0.9188,148.68,-1500.24,420.04
6730,-3.8737,-0.1168,-0.9191,664.31,-1593.99,373.17
6740,-3.8737,-0.1155,-0.9189,1054.93,-1625.24,76.29
6750,-3.8738,-0.1166,-0.9192,1226.81,-1609.62,-126.83
6760,-3.8738,-0.1193,-0.9197,1086.18,-1640.87,-158.08
6770,-3.8738,-0.1226,-0.9210,742.43,-1703.37,-17.46
6780,-3.8737,-0.1256,-0.9222,320.56,-1875.24,170.04
6790,-3.8737,-0.1278,-0.9229,-70.07,1968.44,373.17
6800,-3.8737,-0.1281,-0.9218,-351.32,1890.32,607.54
6810,-3.8737,-0.1267,-0.9196,-382.57,-1969.06,763.79
6820,-3.8737,-0.1256,-0.9178,-210.69,-1687.81,685.67
6830,-3.8737,-0.1250,-0.9172,-70.07,-1469.06,420.04
6840,-3.8737,-0.1233,-0.9172,8.06,-1390.87,45.04
6850,-3.8738,-0.1210,-0.9172,226.81,-1390.87,-361.21
6860,-3.8738,-0.1196,-0.9176,523.68,-1390.87,-439.33
6870,-3.8738,-0.1191,-0.9189,695.56,-1437.74,-1.83
6880,-3.8737,-0.1210,-0.9210,758.06,-1609.62,607.54
6890,-3.8737,-0.1249,-0.9216,523.68,-1875.24,888.79
6900,-3.8737,-0.1282,-0.9210,23.68,-1953.37,716.92
6910,-3.8737,-0.1299,-0.9199,-398.19,-1875.31,420.04
6920,-3.8737,-0.1292,-0.9180,-616.94,-1734.68,326.29
6930,-3.8737,-0.1266,-0.9172,-523.19,-1484.68,388.79
6940,-3.8737,-0.1240,-0.9175,-195.07,-1390.93,498.17
6950,-3.8737,-0.1221,-0.9182,133.06,-1422.12,545.04
6960,-3.8737,-0.1211,-0.9197,383.06,-1515.87,513.79
6970,-3.8737,-0.1212,-0.9203,508.06,-1703.37,466.92
6980,-3.8737,-0.1229,-0.9216,492.43,-1781.49,498.17
6990,-3.8737,-0.1244,-0.9214,273.68,-1953.37,513.79
7000,-3.8737,-0.1240,-0.9202,86.18,-1922.12,498.17
7010,-3.8737,-0.1222,-0.9185,133.06,-1765.87,310.67
7020,-3.8737,-0.1211,-0.9163,367.43,-1547.12,138.79
7030,-3.8737,-0.1215,-0.9158,508.06,-1265.87,60.67
7040,-3.8738,-0.1232,-0.9163,461.18,-1203.37,-48.71
7050,-3.8738,-0.1248,-0.9181,242.43,-1265.87,-64.33
7060,-3.8737,-0.1250,-0.9185,39.31,-1500.24,60.67
7070,-3.8737,-0.1244,-0.9192,8.06,-1547.12,404.42
7080,-3.8737,-0.1228,-0.9205,86.18,-1640.87,763.79
7090,-3.8737,-0.1213,-0.9210,289.31,-1812.74,888.79
7100,-3.8737,-0.1204,-0.9207,476.81,-1875.24,670.04
7110,-3.8737,-0.1201,-0.9188,601.81,-1828.37,326.29
7120,-3.8737,-0.1211,-0.9174,633.06,-1593.99,138.79
7130,-3.8737,-0.1226,-0.9171,508.06,-1406.49,107.54
7140,-3.8737,-0.1240,-0.9187,320.56,-1375.24,216.92
7150,-3.8737,-0.1251,-0.9200,133.06,-1578.37,341.92
7160,-3.8737,-0.1252,-0.9204,-7.57,-1750.31,482.54
7170,-3.8737,-0.1240,-0.9198,-23.19,-1797.18,638.79
7180,-3.8737,-0.1222,-0.9199,133.06,-1718.99,795.04
7190,-3.8737,-0.1211,-0.9207,367.43,-1734.62,857.54
7200,-3.8737,-0.1212,-0.9197,508.06,-1828.37,810.67
7210,-3.8737,-0.1221,-0.9180,492.43,-1703.37,513.79
7220,-3.8737,-0.1229,-0.9170,383.06,-1484.62,107.54
7230,-3.8738,-0.1223,-0.9170,273.68,-1359.62,-64.33
7240,-3.8737,-0.1208,-0.9174,351.81,-1359.62,45.04
7250,-3.8737,-0.1202,-0.9176,539.31,-1406.49,170.04
7260,-3.8737,-0.1211,-0.9188,617.43,-1437.74,232.54
7270,-3.8737,-0.1230,-0.9209,508.06,-1593.99,420.04
7280,-3.8737,-0.1251,-0.9231,258.06,-1859.62,591.92
7290,-3.8737,-0.1252,-0.9240,-7.57,1859.07,638.79
7300,-3.8737,-0.1237,-0.9220,-23.19,1749.69,841.92
7310,-3.8737,-0.1229,-0.9193,179.93,1999.76,1076.29
7320,-3.8737,-0.1232,-0.9183,273.68,-1656.49,998.17
7330,-3.8737,-0.1233,-0.9191,242.43,-1531.49,623.17
7340,-3.8737,-0.1233,-0.9192,226.81,-1625.24,232.54
7350,-3.8737,-0.1232,-0.9180,226.81,-1640.87,13.79
7360,-3.8737,-0.1223,-0.9172,242.43,-1484.62,29.42
7370,-3.8737,-0.1198,-0.9174,351.81,-1390.87,138.79
7380,-3.8737,-0.1168,-0.9169,679.93,-1406.49,60.67
7390,-3.8738,-0.1160,-0.9154,1054.93,-1343.99,-111.21
7400,-3.8738,-0.1176,-0.9159,1164.31,-1156.49,-33.08
7410,-3.8737,-0.1207,-0.9189,961.18,-1218.99,373.17
7420,-3.8737,-0.1243,-0.9214,554.93,-1609.62,779.42
7430,-3.8737,-0.1267,-0.9214,101.81,-1922.12,935.67
7440,-3.8737,-0.1279,-0.9191,-210.69,-1922.18,935.67
7450,-3.8737,-0.1276,-0.9167,-366.94,-1625.31,795.04
7460,-3.8737,-0.1246,-0.9165,-320.07,-1328.43,451.29
7470,-3.8737,-0.1205,-0.9175,54.93,-1297.12,170.04
7480,-3.8737,-0.1182,-0.9182,586.18,-1422.12,138.79
7490,-3.8737,-0.1174,-0.9185,883.06,-1515.87,310.67
7500,-3.8737,-0.1179,-0.9185,976.81,-1547.12,420.04
7510,-3.8737,-0.1205,-0.9167,914.31,-1547.12,295.04
7520,-3.8737,-0.1230,-0.9139,586.18,-1328.37,29.42
7530,-3.8738,-0.1244,-0.9120,258.06,-968.99,-126.83
7540,-3.8737,-0.1228,-0.9111,86.18,-718.99,13.79
7550,-3.8737,-0.1201,-0.9137,289.31,-609.62,420.04
7560,-3.8737,-0.1215,-0.9205,633.06,-937.74,654.42
7570,-3.8737,-0.1263,-0.9271,461.18,-1812.74,404.42
7580,-3.8738,-0.1292,-0.9286,-163.82,1343.44,-64.33
7590,-3.8738,-0.1274,-0.9270,-523.19,1155.94,-17.46
7600,-3.8737,-0.1235,-0.9265,-304.44,1359.07,638.79
7610,-3.8737,-0.1204,-0.9261,195.56,1421.63,1373.17
7620,-3.8737,-0.1190,-0.9232,601.81,1468.51,1670.04
7630,-3.8737,-0.1201,-0.9197,773.68,1843.51,1388.79
7640,-3.8737,-0.1230,-0.9176,633.06,-1703.37,888.79
7650,-3.8737,-0.1267,-0.9167,258.06,-1437.74,388.79
7660,-3.8737,-0.1290,-0.9164,-210.69,-1328.43,13.79
7670,-3.8738,-0.1282,-0.9160,-507.57,-1281.56,-267.46
7680,-3.8738,-0.1254,-0.9159,-398.19,-1234.68,-486.21
7690,-3.8738,-0.1219,-0.9171,-38.82,-1219.06,-501.83
7700,-3.8738,-0.1194,-0.9196,398.68,-1375.24,-204.96
7710,-3.8737,-0.1180,-0.9216,726.81,-1687.74,185.67
7720,-3.8737,-0.1183,-0.9225,898.68,-1953.37,545.04
7730,-3.8737,-0.1201,-0.9210,867.43,1937.26,810.67
7740,-3.8737,-0.1234,-0.9171,633.06,-1875.24,795.04
7750,-3.8737,-0.1260,-0.9139,211.18,-1375.24,576.29
7760,-3.8737,-0.1267,-0.9126,-116.94,-969.06,357.54
7770,-3.8737,-0.1270,-0.9124,-210.69,-797.18,138.79
7780,-3.8738,-0.1263,-0.9132,-241.94,-765.93,-95.58
7790,-3.8738,-0.1234,-0.9149,-163.82,-875.31,-267.46
7800,-3.8738,-0.1208,-0.9176,211.18,-1093.99,-298.71
7810,-3.8738,-0.1208,-0.9205,539.31,-1437.74,-158.08
7820,-3.8737,-0.1221,-0.9225,539.31,-1812.74,107.54
7830,-3.8737,-0.1239,-0.9240,383.06,1937.26,451.29
7840,-3.8737,-0.1257,-0.9250,148.68,1749.76,795.04
7850,-3.8737,-0.1272,-0.9248,-85.69,1609.07,1045.04
7860,-3.8737,-0.1285,-0.9229,-273.19,1640.32,1138.79
7870,-3.8737,-0.1287,-0.9200,-445.07,1890.32,1123.17
7880,-3.8737,-0.1266,-0.9188,-460.69,-1750.31,1060.67
7890,-3.8737,-0.1251,-0.9197,-195.07,-1594.06,873.17
7900,-3.8737,-0.1265,-0.9207,-7.57,-1703.43,435.67
7910,-3.8738,-0.1277,-0.9199,-179.44,-1828.43,-64.33
7920,-3.8738,-0.1267,-0.9187,-335.69,-1734.68,-173.71
7930,-3.8737,-0.1244,-0.9193,-210.69,-1578.43,201.29
7940,-3.8737,-0.1227,-0.9194,86.18,-1656.49,591.92
7950,-3.8737,-0.1222,-0.9175,304.93,-1672.12,591.92
7960,-3.8737,-0.1218,-0.9166,367.43,-1422.12,373.17
7970,-3.8737,-0.1218,-0.9178,414.31,-1312.74,170.04
7980,-3.8738,-0.1218,-0.9188,414.31,-1468.99,-33.08
7990,-3.8738,-0.1216,-0.9180,414.31,-1593.99,-126.83
8000,-3.8738,-0.1221,-0.9171,445.56,-1484.62,-79.96
8010,-3.8737,-0.1222,-0.9177,383.06,-1375.24,107.54
8020,-3.8737,-0.1218,-0.9196,367.43,-1453.37,373.17
8030,-3.8737,-0.1239,-0.9210,414.31,-1687.74,545.04
8040,-3.8737,-0.1267,-0.9203,148.68,-1875.24,623.17
8050,-3.8737,-0.1278,-0.9191,-210.69,-1781.56,607.54
8060,-3.8737,-0.1278,-0.9188,-351.32,-1625.31,482.54
8070,-3.8737,-0.1271,-0.9191,-351.32,-1594.06,279.42
8080,-3.8737,-0.1250,-0.9189,-257.57,-1625.31,76.29
8090,-3.8737,-0.1212,-0.9185,8.06,-1609.62,60.67
8100,-3.8737,-0.1182,-0.9192,492.43,-1547.12,154.42
8110,-3.8737,-0.1174,-0.9197,883.06,-1640.87,185.67
8120,-3.8737,-0.1196,-0.9194,976.81,-1703.37,263.79
8130,-3.8737,-0.1237,-0.9192,695.56,-1672.12,466.92
8140,-3.8737,-0.1285,-0.9203,179.93,-1640.87,638.79
8150,-3.8737,-0.1318,-0.9235,-445.07,-1781.56,623.17
8160,-3.8737,-0.1310,-0.9240,-866.94,1812.19,388.79
8170,-3.8737,-0.1268,-0.9213,-757.57,1749.69,326.29
8180,-3.8737,-0.1211,-0.9178,-226.32,-1906.56,529.42
8190,-3.8737,-0.1174,-0.9164,508.06,-1468.99,482.54
8200,-3.8737,-0.1178,-0.9167,976.81,-1281.49,279.42
8210,-3.8737,-0.1206,-0.9172,929.93,-1328.37,91.92
8220,-3.8738,-0.1238,-0.9178,570.56,-1390.87,-79.96
8230,-3.8738,-0.1256,-0.9187,164.31,-1468.99,-79.96
8240,-3.8737,-0.1250,-0.9208,-70.07,-1578.43,185.67
8250,-3.8737,-0.1232,-0.9220,8.06,-1843.99,545.04
8260,-3.8737,-0.1212,-0.9211,242.43,1999.76,716.92
8270,-3.8737,-0.1193,-0.9192,492.43,-1890.87,670.04
8280,-3.8737,-0.1190,-0.9180,742.43,-1640.87,404.42
8290,-3.8737,-0.1212,-0.9182,773.68,-1484.62,138.79
8300,-3.8737,-0.1252,-0.9178,492.43,-1515.87,123.17
8310,-3.8737,-0.1288,-0.9176,-23.19,-1469.06,310.67
8320,-3.8737,-0.1289,-0.9180,-476.32,-1437.81,404.42
8330,-3.8737,-0.1262,-0.9175,-491.94,-1484.68,404.42
8340,-3.8737,-0.1223,-0.9174,-148.19,-1422.18,388.79
8350,-3.8737,-0.1191,-0.9183,351.81,-1406.49,263.79
8360,-3.8737,-0.1176,-0.9199,758.06,-1531.49,123.17
8370,-3.8737,-0.1182,-0.9211,961.18,-1734.62,216.92
8380,-3.8737,-0.1215,-0.9218,883.06,-1890.87,498.17
8390,-3.8737,-0.1254,-0.9225,461.18,-1968.99,810.67
8400,-3.8737,-0.1276,-0.9226,-38.82,1937.19,920.04
8410,-3.8737,-0.1271,-0.9216,-320.07,1921.57,779.42
8420,-3.8737,-0.1250,-0.9193,-257.57,-1953.43,482.54
8430,-3.8737,-0.1232,-0.9164,8.06,-1656.49,216.92
8440,-3.8737,-0.1226,-0.9143,242.43,-1281.49,60.67
8450,-3.8737,-0.1226,-0.9144,320.56,-1015.87,29.42
8460,-3.8737,-0.1222,-0.9170,320.56,-1031.49,232.54
8470,-3.8737,-0.1212,-0.9209,367.43,-1359.62,388.79
8480,-3.8737,-0.1205,-0.9220,492.43,-1859.62,310.67
8490,-3.8737,-0.1201,-0.9196,586.18,1999.76,170.04
8500,-3.8737,-0.1201,-0.9176,633.06,-1687.74,170.04
8510,-3.8737,-0.1216,-0.9175,633.06,-1437.74,295.04
8520,-3.8737,-0.1239,-0.9182,445.56,-1422.12,310.67
8530,-3.8737,-0.1250,-0.9199,148.68,-1515.87,326.29
8540,-3.8737,-0.1248,-0.9215,8.06,-1734.62,482.54
8550,-3.8737,-0.1241,-0.9213,39.31,-1937.74,638.79
8560,-3.8737,-0.1235,-0.9192,117.43,-1906.49,654.42
8570,-3.8737,-0.1234,-0.9170,195.56,-1640.87,545.04
8580,-3.8737,-0.1237,-0.9171,211.18,-1359.62,357.54
8590,-3.8737,-0.1233,-0.9189,179.93,-1375.24,326.29
8600,-3.8737,-0.1224,-0.9204,226.81,-1609.62,451.29
8610,-3.8737,-0.1221,-0.9211,336.18,-1797.12,591.92
8620,-3.8737,-0.1212,-0.9200,383.06,-1890.87,638.79
8630,-3.8737,-0.1211,-0.9183,492.43,-1750.24,482.54
8640,-3.8737,-0.1223,-0.9175,508.06,-1531.49,123.17
8650,-3.8738,-0.1238,-0.9164,351.81,-1422.12,-173.71
8660,-3.8738,-0.1246,-0.9152,164.31,-1281.49,-95.58
8670,-3.8737,-0.1250,-0.9156,54.93,-1125.24,263.79
8680,-3.8737,-0.1248,-0.9186,8.06,-1187.74,576.29
8690,-3.8737,-0.1235,-0.9218,39.31,-1562.74,716.92
8700,-3.8737,-0.1223,-0.9227,195.56,-1968.99,623.17
8710,-3.8737,-0.1217,-0.9218,351.81,1906.01,341.92
8720,-3.8737,-0.1217,-0.9202,429.93,-1968.99,185.67
8730,-3.8737,-0.1216,-0.9188,429.93,-1765.87,341.92
8740,-3.8737,-0.1219,-0.9176,445.56,-1593.99,498.17
8750,-3.8737,-0.1233,-0.9159,398.68,-1437.74,560.67
8760,-3.8737,-0.1248,-0.9148,226.81,-1218.99,498.17
8770,-3.8737,-0.1256,-0.9161,39.31,-1078.37,341.92
8780,-3.8737,-0.1254,-0.9189,-70.07,-1250.31,170.04
8790,-3.8737,-0.1244,-0.9209,-38.82,-1609.68,13.79
8800,-3.8737,-0.1210,-0.9213,86.18,-1859.62,91.92
8810,-3.8737,-0.1167,-0.9203,523.68,-1906.49,373.17
8820,-3.8737,-0.1154,-0.9196,1070.56,-1781.49,638.79
8830,-3.8737,-0.1176,-0.9189,1242.43,-1687.74,732.54
8840,-3.8737,-0.1216,-0.9178,961.18,-1609.62,498.17
8850,-3.8737,-0.1262,-0.9167,445.56,-1468.99,76.29
8860,-3.8738,-0.1292,-0.9165,-148.19,-1328.43,-158.08
8870,-3.8738,-0.1296,-0.9175,-523.19,-1297.18,-142.46
8880,-3.8737,-0.1278,-0.9181,-585.69,-1422.18,91.92
8890,-3.8737,-0.1246,-0.9186,-351.32,-1500.31,466.92
8900,-3.8737,-0.1213,-0.9202,54.93,-1562.74,732.54
8910,-3.8737,-0.1199,-0.9209,476.81,-1765.87,748.17
8920,-3.8737,-0.1202,-0.9207,664.31,-1859.62,607.54
8930,-3.8737,-0.1208,-0.9213,617.43,-1828.37,435.67
8940,-3.8737,-0.1208,-0.9231,539.31,-1906.49,295.04
8950,-3.8737,-0.1206,-0.9247,539.31,1859.13,170.04
8960,-3.8737,-0.1212,-0.9231,570.56,1656.01,263.79
8970,-3.8737,-0.1230,-0.9202,492.43,1859.13,607.54
8980,-3.8737,-0.1251,-0.9180,258.06,-1765.87,779.42
8990,-3.8737,-0.1267,-0.9155,-7.57,-1484.68,576.29
9000,-3.8737,-0.1265,-0.9132,-210.69,-1172.18,185.67
9010,-3.8738,-0.1239,-0.9127,-179.44,-875.31,-251.83
9020,-3.8738,-0.1207,-0.9150,148.68,-812.74,-548.71
9030,-3.8738,-0.1180,-0.9176,554.93,-1109.62,-454.96
9040,-3.8738,-0.1171,-0.9197,898.68,-1437.74,-17.46
9050,-3.8737,-0.1187,-0.9214,1023.68,-1703.37,357.54
9060,-3.8737,-0.1215,-0.9225,820.56,-1922.12,545.04
9070,-3.8737,-0.1241,-0.9231,461.18,1937.26,576.29
9080,-3.8737,-0.1265,-0.9222,117.43,1859.13,560.67
9090,-3.8737,-0.1277,-0.9211,-179.44,1968.44,670.04
9100,-3.8737,-0.1277,-0.9207,-335.69,-1890.93,857.54
9110,-3.8737,-0.1260,-0.9200,-335.69,-1828.43,873.17
9120,-3.8737,-0.1234,-0.9191,-116.94,-1750.31,607.54
9130,-3.8737,-0.1208,-0.9172,211.18,-1625.24,263.79
9140,-3.8737,-0.1187,-0.9147,539.31,-1390.87,107.54
9150,-3.8737,-0.1177,-0.9131,820.56,-1062.74,29.42
9160,-3.8738,-0.1188,-0.9136,945.56,-859.62,-142.46
9170,-3.8738,-0.1201,-0.9153,804.93,-922.12,-392.46
9180,-3.8738,-0.1216,-0.9172,633.06,-1140.87,-486.21
9190,-3.8738,-0.1235,-0.9192,445.56,-1390.87,-314.33
9200,-3.8737,-0.1250,-0.9202,195.56,-1640.87,60.67
9210,-3.8737,-0.1260,-0.9204,8.06,-1765.87,451.29
9220,-3.8737,-0.1259,-0.9216,-116.94,-1797.18,732.54
9230,-3.8737,-0.1243,-0.9232,-101.32,-1953.43,904.42
9240,-3.8737,-0.1228,-0.9236,101.81,1843.51,998.17
9250,-3.8737,-0.1227,-0.9225,289.31,1796.63,1076.29
9260,-3.8737,-0.1233,-0.9202,304.93,1937.26,1060.67
9270,-3.8737,-0.1237,-0.9183,226.81,-1765.87,841.92
9280,-3.8737,-0.1246,-0.9170,179.93,-1531.49,451.29
9290,-3.8738,-0.1249,-0.9152,54.93,-1359.62,-142.46
9300,-3.8738,-0.1232,-0.9146,23.68,-1125.24,-658.08
9310,-3.8738,-0.1207,-0.9154,242.43,-1047.12,-798.71
9320,-3.8738,-0.1189,-0.9167,554.93,-1156.49,-486.21
9330,-3.8738,-0.1185,-0.9182,789.31,-1328.37,-17.46
9340,-3.8737,-0.1206,-0.9197,836.18,-1515.87,279.42
9350,-3.8737,-0.1238,-0.9218,570.56,-1703.37,388.79
9360,-3.8737,-0.1257,-0.9241,164.31,-1968.99,466.92
9370,-3.8737,-0.1257,-0.9250,-85.69,1734.07,654.42
9380,-3.8737,-0.1249,-0.9241,-85.69,1609.07,857.54
9390,-3.8737,-0.1243,-0.9218,23.68,1734.13,951.29
9400,-3.8737,-0.1240,-0.9199,101.81,-1968.99,763.79
9410,-3.8737,-0.1244,-0.9178,133.06,-1734.62,341.92
9420,-3.8738,-0.1237,-0.9153,86.18,-1468.99,-189.33
9430,-3.8738,-0.1218,-0.9141,179.93,-1140.87,-642.46
9440,-3.8738,-0.1206,-0.9153,414.31,-984.62,-704.96
9450,-3.8738,-0.1201,-0.9176,570.56,-1140.87,-470.58
9460,-3.8738,-0.1202,-0.9194,633.06,-1437.74,-64.33
9470,-3.8737,-0.1219,-0.9208,617.43,-1672.12,232.54
9480,-3.8737,-0.1245,-0.9200,398.68,-1843.99,263.79
9490,-3.8737,-0.1262,-0.9187,70.56,-1750.24,248.17
9500,-3.8737,-0.1273,-0.9193,-148.19,-1578.43,295.04
9510,-3.8737,-0.1273,-0.9210,-288.82,-1656.56,295.04
9520,-3.8737,-0.1255,-0.9218,-288.82,-1875.31,326.29
9530,-3.8737,-0.1233,-0.9222,-54.44,-1969.06,529.42
9540,-3.8737,-0.1226,-0.9224,226.81,1968.51,716.92
9550,-3.8737,-0.1234,-0.9211,320.56,1952.88,685.67
9560,-3.8737,-0.1245,-0.9188,211.18,-1890.87,451.29
9570,-3.8737,-0.1254,-0.9167,70.56,-1593.99,138.79
9580,-3.8738,-0.1250,-0.9156,-38.82,-1328.43,-173.71
9590,-3.8738,-0.1238,-0.9161,8.06,-1187.74,-408.08
9600,-3.8738,-0.1232,-0.9180,164.31,-1250.24,-392.46
9610,-3.8738,-0.1232,-0.9194,242.43,-1484.62,-173.71
9620,-3.8737,-0.1241,-0.9202,242.43,-1672.12,91.92
9630,-3.8737,-0.1263,-0.9204,117.43,-1765.87,420.04
9640,-3.8737,-0.1285,-0.9208,-163.82,-1797.18,779.42
9650,-3.8737,-0.1295,-0.9207,-445.07,-1844.06,888.79
9660,-3.8737,-0.1290,-0.9194,-570.07,-1828.43,654.42
9670,-3.8737,-0.1262,-0.9170,-507.57,-1672.18,170.04
9680,-3.8738,-0.1223,-0.9142,-148.19,-1359.68,-251.83
9690,-3.8738,-0.1201,-0.9128,351.81,-1000.24,-361.21
9700,-3.8738,-0.1196,-0.9150,633.06,-828.37,-189.33
9710,-3.8737,-0.1195,-0.9192,695.56,-1109.62,45.04
9720,-3.8737,-0.1204,-0.9180,711.18,-1640.87,279.42
9730,-3.8737,-0.1208,-0.9152,601.81,-1484.62,638.79
9740,-3.8737,-0.1206,-0.9172,539.31,-1125.24,420.04
9750,-3.8738,-0.1243,-0.9198,570.56,-1390.87,-642.46
9760,-3.8738,-0.1306,-0.9197,101.81,-1718.99,-1064.33
9770,-3.8738,-0.1334,-0.9191,-710.69,-1703.43,-189.33
9780,-3.8737,-0.1317,-0.9214,-1070.07,-1625.31,951.29
9790,-3.8737,-0.1263,-0.9238,-851.32,-1922.18,1248.17
9800,-3.8737,-0.1200,-0.9230,-163.82,1765.32,591.92
9810,-3.8738,-0.1171,-0.9208,648.68,1874.76,-220.58
9820,-3.8738,-0.1180,-0.9177,1023.68,-1843.99,-548.71
9830,-3.8738,-0.1216,-0.9126,898.68,-1453.37,-376.83
9840,-3.8738,-0.1281,-0.9059,445.56,-797.12,-95.58
9850,-3.8737,-0.1356,-0.9036,-382.57,62.19,45.10
9860,-3.8737,-0.1404,-0.9098,-1351.32,359.07,60.73
9870,-3.8738,-0.1396,-0.9218,-1960.69,-437.81,-142.46
9880,-3.8738,-0.1320,-0.9313,-1866.94,-1969.06,-611.21
9890,-3.8738,-0.1201,-0.9355,-882.57,812.19,-798.71
9900,-3.8738,-0.1084,-0.9391,633.06,265.38,-220.58
9910,-3.8737,-0.1012,-0.9434,-1866.94,-187.74,326.23
9920,-3.8737,-0.1022,-0.9424,-945.07,-734.62,294.98
9930,-3.8737,-0.1105,-0.9308,-1070.07,-609.62,248.11
9940,-3.8737,-0.1218,-0.9187,1867.43,874.76,420.04
9950,-3.8737,-0.1321,-0.9127,414.31,-1578.37,263.79
9960,-3.8738,-0.1383,-0.9091,-898.19,-812.81,-376.83
9970,-3.8738,-0.1393,-0.9073,-1695.07,-344.06,-1079.96
9980,-3.8738,-0.1356,-0.9084,-1820.07,-125.31,-1423.71
9990,-3.8738,-0.1299,-0.9130,-1351.32,-265.93,-1220.58
10000,-3.8738,-0.1238,-0.9186,-616.94,-844.06,-579.96
10010,-3.8738,-0.1184,-0.9241,164.31,-1562.74,-1.83
10020,-3.8737,-0.1161,-0.9285,851.81,1734.13,357.54
10030,-3.8737,-0.1178,-0.9305,1148.68,1171.63,529.42
10040,-3.8737,-0.1211,-0.9302,929.93,906.01,482.54
10050,-3.8737,-0.1246,-0.9263,508.06,952.88,279.42
10060,-3.8737,-0.1282,-0.9207,54.93,1452.88,91.92
10070,-3.8738,-0.1302,-0.9158,-398.19,-1828.43,-79.96
10080,-3.8738,-0.1306,-0.9128,-663.82,-1203.43,-376.83
10090,-3.8738,-0.1294,-0.9124,-710.69,-828.43,-720.58
10100,-3.8738,-0.1271,-0.9144,-554.44,-765.93,-876.83
10110,-3.8738,-0.1246,-0.9180,-257.57,-1031.56,-704.96
10120,-3.8738,-0.1243,-0.9215,54.93,-1484.62,-345.58
10130,-3.8738,-0.1255,-0.9242,101.81,-1937.74,-33.08
10140,-3.8737,-0.1263,-0.9242,-54.44,1718.44,13.79
10150,-3.8738,-0.1263,-0.9225,-163.82,1718.44,-111.21
10160,-3.8738,-0.1260,-0.9213,-163.82,1937.19,-173.71
10170,-3.8738,-0.1260,-0.9209,-116.94,-1906.56,-251.83
10180,-3.8738,-0.1263,-0.9202,-116.94,-1859.68,-345.58
10190,-3.8738,-0.1268,-0.9196,-163.82,-1765.93,-298.71
10200,-3.8738,-0.1274,-0.9193,-226.32,-1687.81,-204.96
10210,-3.8738,-0.1281,-0.9192,-304.44,-1656.56,-220.58
10220,-3.8738,-0.1278,-0.9188,-382.57,-1640.93,-329.96
10230,-3.8738,-0.1263,-0.9183,-351.32,-1594.06,-486.21
10240,-3.8738,-0.1248,-0.9188,-163.82,-1531.56,-626.83
10250,-3.8738,-0.1229,-0.9199,39.31,-1593.99,-501.83
10260,-3.8738,-0.1215,-0.9214,273.68,-1734.62,-204.96
10270,-3.8738,-0.1217,-0.9229,461.18,-1922.12,-95.58
10280,-3.8738,-0.1240,-0.9241,429.93,1890.38,-220.58
10290,-3.8738,-0.1274,-0.9246,133.06,1734.13,-314.33
10300,-3.8738,-0.1298,-0.9238,-304.44,1671.57,-236.21
10310,-3.8738,-0.1302,-0.9219,-601.32,1765.32,-79.96
10320,-3.8738,-0.1292,-0.9194,-663.82,-1984.68,-33.08
10330,-3.8738,-0.1263,-0.9181,-523.19,-1672.18,-126.83
10340,-3.8738,-0.1232,-0.9170,-163.82,-1500.31,-267.46
10350,-3.8738,-0.1208,-0.9170,242.43,-1359.62,-454.96
10360,-3.8738,-0.1208,-0.9189,539.31,-1359.62,-642.46
10370,-3.8738,-0.1227,-0.9198,539.31,-1609.62,-783.08
10380,-3.8738,-0.1262,-0.9208,304.93,-1718.99,-626.83
10390,-3.8738,-0.1293,-0.9237,-148.19,-1844.06,-204.96
10400,-3.8737,-0.1300,-0.9250,-538.82,1780.94,123.17
10410,-3.8737,-0.1283,-0.9231,-632.57,1609.07,295.04
10420,-3.8737,-0.1256,-0.9197,-413.82,1859.07,185.67
10430,-3.8738,-0.1241,-0.9175,-70.07,-1703.43,-158.08
10440,-3.8738,-0.1245,-0.9178,117.43,-1422.12,-501.83
10450,-3.8738,-0.1263,-0.9186,70.56,-1468.99,-517.46
10460,-3.8738,-0.1289,-0.9191,-163.82,-1562.81,-298.71
10470,-3.8738,-0.1309,-0.9191,-491.94,-1625.31,-142.46
10480,-3.8738,-0.1313,-0.9187,-741.94,-1625.31,-111.21
10490,-3.8738,-0.1293,-0.9196,-804.44,-1578.43,-189.33
10500,-3.8738,-0.1254,-0.9213,-538.82,-1687.81,-251.83
10510,-3.8738,-0.1229,-0.9222,-38.82,-1906.56,-298.71
10520,-3.8738,-0.1223,-0.9230,273.68,1968.51,-236.21
10530,-3.8738,-0.1234,-0.9232,351.81,1874.76,-64.33
10540,-3.8737,-0.1259,-0.9221,211.18,1843.51,123.17
10550,-3.8737,-0.1278,-0.9204,-101.32,1984.07,45.04
10560,-3.8738,-0.1278,-0.9188,-351.32,-1797.18,-283.08
10570,-3.8738,-0.1277,-0.9181,-351.32,-1594.06,-517.46
10580,-3.8738,-0.1281,-0.9192,-335.69,-1500.31,-501.83
10590,-3.8738,-0.1276,-0.9210,-382.57,-1640.93,-408.08
10600,-3.8738,-0.1263,-0.9220,-320.07,-1875.31,-329.96
10610,-3.8738,-0.1248,-0.9224,-163.82,1999.69,-298.71
10620,-3.8738,-0.1228,-0.9224,39.31,1952.88,-376.83
10630,-3.8738,-0.1215,-0.9219,289.31,1952.88,-439.33
10640,-3.8738,-0.1222,-0.9208,461.18,-1984.62,-376.83
10650,-3.8738,-0.1248,-0.9204,367.43,-1843.99,-79.96
10660,-3.8737,-0.1276,-0.9208,39.31,-1797.12,185.67
10670,-3.8737,-0.1295,-0.9214,-320.07,-1844.06,107.54
10680,-3.8738,-0.1295,-0.9209,-570.07,-1922.18,-267.46
10690,-3.8738,-0.1273,-0.9185,-570.07,-1859.68,-767.46
10700,-3.8738,-0.1252,-0.9161,-288.82,-1547.18,-970.58
10710,-3.8738,-0.1245,-0.9169,-23.19,-1250.31,-720.58
10720,-3.8738,-0.1240,-0.9199,70.56,-1343.99,-392.46
10730,-3.8738,-0.1235,-0.9231,133.06,-1734.62,-158.08
10740,-3.8738,-0.1249,-0.9247,195.56,1859.13,-1.83
10750,-3.8737,-0.1267,-0.9243,23.68,1656.01,138.79
10760,-3.8737,-0.1277,-0.9222,-210.69,1702.82,279.42
10770,-3.8737,-0.1277,-0.9193,-335.69,1968.44,279.42
10780,-3.8737,-0.1268,-0.9172,-335.69,-1656.56,76.29
10790,-3.8738,-0.1255,-0.9169,-226.32,-1390.93,-345.58
10800,-3.8738,-0.1244,-0.9167,-54.44,-1344.06,-783.08
10810,-3.8738,-0.1244,-0.9167,86.18,-1328.37,-954.96
10820,-3.8738,-0.1255,-0.9176,86.18,-1328.37,-798.71
10830,-3.8738,-0.1273,-0.9189,-54.44,-1437.81,-501.83
10840,-3.8738,-0.1293,-0.9210,-288.82,-1609.68,-236.21
10850,-3.8738,-0.1296,-0.9225,-538.82,-1875.31,-17.46
10860,-3.8737,-0.1278,-0.9229,-585.69,1937.19,76.29
10870,-3.8737,-0.1246,-0.9225,-351.32,1890.32,60.67
10880,-3.8738,-0.1221,-0.9213,54.93,1937.26,-17.46
10890,-3.8738,-0.1221,-0.9198,383.06,-1906.49,-1.83
10900,-3.8737,-0.1244,-0.9196,383.06,-1718.99,76.29
10910,-3.8738,-0.1274,-0.9204,86.18,-1687.74,-95.58
10920,-3.8738,-0.1299,-0.9205,-304.44,-1797.18,-408.08
10930,-3.8738,-0.1306,-0.9189,-616.94,-1812.81,-454.96
10940,-3.8738,-0.1292,-0.9169,-710.69,-1609.68,-283.08
10950,-3.8738,-0.1265,-0.9169,-523.19,-1344.06,-142.46
10960,-3.8738,-0.1246,-0.9181,-179.44,-1344.06,-204.96
10970,-3.8738,-0.1244,-0.9198,54.93,-1500.24,-298.71
10980,-3.8738,-0.1251,-0.9215,86.18,-1718.99,-204.96
10990,-3.8737,-0.1262,-0.9216,-7.57,-1937.81,45.04
11000,-3.8737,-0.1263,-0.9216,-148.19,-1953.43,279.42
11010,-3.8737,-0.1262,-0.9225,-163.82,-1953.43,326.29
11020,-3.8737,-0.1267,-0.9237,-148.19,1937.19,201.29
11030,-3.8737,-0.1270,-0.9237,-210.69,1780.94,45.04
11040,-3.8737,-0.1266,-0.9216,-241.94,1780.94,13.79
11050,-3.8738,-0.1257,-0.9193,-195.07,-1953.43,-48.71
11060,-3.8738,-0.1250,-0.9185,-85.69,-1656.56,-283.08
11070,-3.8738,-0.1246,-0.9186,8.06,-1547.12,-548.71
11080,-3.8738,-0.1235,-0.9178,54.93,-1562.74,-673.71
11090,-3.8738,-0.1226,-0.9165,195.56,-1468.99,-642.46
11100,-3.8738,-0.1228,-0.9153,320.56,-1297.12,-533.08
11110,-3.8738,-0.1244,-0.9158,289.31,-1140.87,-392.46
11120,-3.8738,-0.1268,-0.9175,86.18,-1203.37,-392.46
11130,-3.8738,-0.1289,-0.9188,-226.32,-1422.18,-486.21
11140,-3.8738,-0.1295,-0.9198,-491.94,-1594.06,-439.33
11150,-3.8738,-0.1283,-0.9213,-570.07,-1719.06,-204.96
11160,-3.8738,-0.1271,-0.9232,-413.82,-1906.56,-1.83
11170,-3.8737,-0.1271,-0.9240,-257.57,1843.44,91.92
11180,-3.8737,-0.1268,-0.9227,-257.57,1749.69,170.04
11190,-3.8737,-0.1260,-0.9214,-226.32,1905.94,185.67
11200,-3.8738,-0.1254,-0.9204,-116.94,-1922.18,-1.83
11210,-3.8738,-0.1250,-0.9197,-38.82,-1797.18,-267.46
11220,-3.8738,-0.1246,-0.9200,8.06,-1703.37,-486.21
11230,-3.8738,-0.1243,-0.9205,54.93,-1750.24,-642.46
11240,-3.8738,-0.1243,-0.9199,101.81,-1812.74,-564.33
11250,-3.8738,-0.1250,-0.9188,101.81,-1734.62,-283.08
11260,-3.8738,-0.1263,-0.9182,8.06,-1593.99,-33.08
11270,-3.8737,-0.1277,-0.9187,-163.82,-1515.93,138.79
11280,-3.8737,-0.1289,-0.9191,-335.69,-1578.43,45.04
11290,-3.8738,-0.1289,-0.9182,-491.94,-1625.31,-345.58
11300,-3.8738,-0.1270,-0.9174,-491.94,-1515.93,-658.08
11310,-3.8738,-0.1250,-0.9181,-241.94,-1406.56,-626.83
11320,-3.8738,-0.1243,-0.9205,8.06,-1500.24,-376.83
11330,-3.8738,-0.1241,-0.9225,101.81,-1812.74,-142.46
11340,-3.8738,-0.1243,-0.9221,117.43,1937.26,-126.83
11350,-3.8738,-0.1251,-0.9215,101.81,1984.13,-142.46
11360,-3.8737,-0.1263,-0.9216,-7.57,-1937.81,13.79
11370,-3.8737,-0.1283,-0.9214,-163.82,-1953.43,232.54
11380,-3.8737,-0.1296,-0.9202,-413.82,-1922.18,185.67
11390,-3.8738,-0.1294,-0.9182,-585.69,-1765.93,-220.58
11400,-3.8738,-0.1282,-0.9178,-554.44,-1515.93,-626.83
11410,-3.8738,-0.1262,-0.9189,-398.19,-1469.06,-704.96
11420,-3.8738,-0.1239,-0.9203,-148.19,-1609.68,-376.83
11430,-3.8737,-0.1230,-0.9215,148.68,-1781.49,29.42
11440,-3.8737,-0.1239,-0.9221,258.06,-1937.74,248.17
11450,-3.8737,-0.1252,-0.9220,148.68,1984.13,138.79
11460,-3.8738,-0.1266,-0.9215,-23.19,1999.69,-251.83
11470,-3.8738,-0.1274,-0.9211,-195.07,-1937.81,-548.71
11480,-3.8738,-0.1273,-0.9213,-304.44,-1890.93,-533.08
11490,-3.8738,-0.1259,-0.9219,-288.82,-1906.56,-267.46
11500,-3.8737,-0.1250,-0.9221,-101.32,-1984.68,216.92
11510,-3.8737,-0.1262,-0.9214,8.06,1984.13,482.54
11520,-3.8737,-0.1274,-0.9199,-148.19,-1922.18,279.42
11530,-3.8738,-0.1273,-0.9176,-304.44,-1734.68,-189.33
11540,-3.8738,-0.1260,-0.9153,-288.82,-1437.81,-704.96
11550,-3.8738,-0.1240,-0.9143,-116.94,-1140.93,-1017.46
11560,-3.8738,-0.1230,-0.9158,133.06,-1015.87,-1079.96
11570,-3.8738,-0.1238,-0.9191,258.06,-1203.37,-970.58
11580,-3.8738,-0.1252,-0.9225,164.31,-1625.24,-642.46
11590,-3.8738,-0.1266,-0.9249,-23.19,1937.19,-111.21
11600,-3.8737,-0.1274,-0.9260,-195.07,1624.69,279.42
11610,-3.8737,-0.1273,-0.9259,-304.44,1484.07,466.92
11620,-3.8737,-0.1274,-0.9247,-288.82,1499.69,513.79
11630,-3.8737,-0.1283,-0.9229,-304.44,1655.94,420.04
11640,-3.8737,-0.1285,-0.9208,-413.82,1890.32,263.79
11650,-3.8738,-0.1274,-0.9181,-445.07,-1844.06,-48.71
11660,-3.8738,-0.1249,-0.9163,-304.44,-1500.31,-439.33
11670,-3.8738,-0.1228,-0.9166,23.68,-1265.87,-736.21
11680,-3.8738,-0.1219,-0.9180,289.31,-1312.74,-798.71
11690,-3.8738,-0.1222,-0.9182,398.68,-1484.62,-689.33
11700,-3.8738,-0.1245,-0.9177,367.43,-1515.87,-579.96
11710,-3.8738,-0.1274,-0.9175,70.56,-1453.37,-439.33
11720,-3.8738,-0.1292,-0.9171,-304.44,-1422.18,-454.96
11730,-3.8738,-0.1287,-0.9174,-523.19,-1375.31,-720.58
11740,-3.8738,-0.1261,-0.9187,-460.69,-1406.56,-876.83
11750,-3.8738,-0.1232,-0.9210,-132.57,-1578.43,-533.08
11760,-3.8737,-0.1224,-0.9233,242.43,-1875.24,170.04
11770,-3.8737,-0.1245,-0.9248,336.18,1827.88,857.54
11780,-3.8737,-0.1282,-0.9250,70.56,1640.38,1123.17
11790,-3.8737,-0.1318,-0.9242,-398.19,1609.07,920.04
11800,-3.8737,-0.1329,-0.9222,-866.94,1718.44,435.67
11810,-3.8738,-0.1304,-0.9192,-1007.57,1968.44,-251.83
11820,-3.8738,-0.1252,-0.9158,-679.44,-1640.93,-798.71
11830,-3.8738,-0.1204,-0.9132,-23.19,-1203.43,-970.58
11840,-3.8738,-0.1185,-0.9128,601.81,-875.24,-970.58
11850,-3.8738,-0.1199,-0.9152,836.18,-828.37,-798.71
11860,-3.8738,-0.1239,-0.9189,664.31,-1125.24,-611.21
11870,-3.8738,-0.1279,-0.9220,148.68,-1609.62,-392.46
11880,-3.8738,-0.1296,-0.9243,-366.94,1999.69,-95.58
11890,-3.8737,-0.1287,-0.9258,-585.69,1702.82,154.42
11900,-3.8737,-0.1266,-0.9260,-460.69,1515.32,373.17
11910,-3.8737,-0.1250,-0.9243,-195.07,1484.07,638.79
11920,-3.8737,-0.1244,-0.9208,8.06,1702.88,701.29
11930,-3.8737,-0.1256,-0.9187,86.18,-1843.99,420.04
11940,-3.8738,-0.1274,-0.9187,-70.07,-1578.43,-79.96
11950,-3.8738,-0.1278,-0.9188,-304.44,-1578.43,-564.33
11960,-3.8738,-0.1267,-0.9180,-351.32,-1594.06,-814.33
11970,-3.8738,-0.1249,-0.9166,-210.69,-1484.68,-861.21
11980,-3.8738,-0.1221,-0.9155,23.68,-1312.74,-845.58
11990,-3.8738,-0.1196,-0.9153,383.06,-1172.12,-783.08
12000,-3.8738,-0.1202,-0.9167,695.56,-1140.87,-720.58
12010,-3.8738,-0.1230,-0.9203,617.43,-1328.37,-548.71
12020,-3.8738,-0.1259,-0.9247,258.06,-1781.49,-189.33
12030,-3.8737,-0.1284,-0.9281,-101.32,1655.94,279.42
12040,-3.8737,-0.1305,-0.9293,-429.44,1218.44,685.67
12050,-3.8737,-0.1312,-0.9276,-695.07,1062.19,888.79
12060,-3.8737,-0.1304,-0.9241,-788.82,1280.94,904.42
12070,-3.8737,-0.1279,-0.9207,-679.44,1734.07,638.79
12080,-3.8737,-0.1250,-0.9180,-366.94,-1828.43,185.67
12090,-3.8738,-0.1222,-0.9171,8.06,-1484.62,-298.71
12100,-3.8738,-0.1193,-0.9172,367.43,-1375.24,-658.08
12110,-3.8738,-0.1182,-0.9164,742.43,-1390.87,-845.58
12120,-3.8738,-0.1201,-0.9146,883.06,-1281.49,-829.96
12130,-3.8738,-0.1241,-0.9144,633.06,-1047.12,-767.46
12140,-3.8738,-0.1276,-0.9164,117.43,-1031.49,-736.21
12150,-3.8738,-0.1293,-0.9188,-320.07,-1281.56,-689.33
12160,-3.8738,-0.1293,-0.9220,-538.82,-1594.06,-501.83
12170,-3.8737,-0.1277,-0.9255,-538.82,1999.69,60.67
12180,-3.8737,-0.1260,-0.9279,-335.69,1546.57,826.29
12190,-3.8737,-0.1248,-0.9288,-116.94,1249.69,1310.67
12200,-3.8737,-0.1241,-0.9281,39.31,1124.76,1232.54
12210,-3.8737,-0.1248,-0.9249,117.43,1218.51,685.67
12220,-3.8738,-0.1260,-0.9194,39.31,1624.76,-79.96
12230,-3.8738,-0.1256,-0.9147,-116.94,-1672.18,-611.21
12240,-3.8738,-0.1240,-0.9124,-70.07,-1062.81,-845.58
12250,-3.8738,-0.1230,-0.9127,133.06,-765.87,-970.58
12260,-3.8738,-0.1229,-0.9148,258.06,-812.74,-1064.33
12270,-3.8738,-0.1228,-0.9171,273.68,-1078.37,-908.08
12280,-3.8738,-0.1229,-0.9204,289.31,-1375.24,-454.96
12290,-3.8737,-0.1250,-0.9244,273.68,-1797.12,60.67
12300,-3.8737,-0.1274,-0.9264,8.06,1687.26,451.29
12310,-3.8737,-0.1288,-0.9249,-304.44,1437.19,607.54
12320,-3.8737,-0.1288,-0.9226,-476.32,1624.69,638.79
12330,-3.8737,-0.1281,-0.9215,-476.32,1921.57,560.67
12340,-3.8737,-0.1266,-0.9208,-382.57,-1937.81,216.92
12350,-3.8738,-0.1240,-0.9191,-195.07,-1844.06,-314.33
12360,-3.8738,-0.1216,-0.9164,133.06,-1625.24,-658.08
12370,-3.8738,-0.1206,-0.9150,445.56,-1281.49,-658.08
12380,-3.8738,-0.1221,-0.9159,570.56,-1109.62,-548.71
12390,-3.8738,-0.1254,-0.9177,383.06,-1218.99,-408.08
12400,-3.8738,-0.1289,-0.9194,-38.82,-1453.43,-220.58
12410,-3.8737,-0.1313,-0.9225,-491.94,-1672.18,45.04
12420,-3.8737,-0.1311,-0.9265,-804.44,1937.19,295.04
12430,-3.8737,-0.1272,-0.9274,-773.19,1421.57,404.42
12440,-3.8737,-0.1217,-0.9232,-273.19,1312.19,310.67
12450,-3.8737,-0.1172,-0.9177,429.93,1843.51,76.29
12460,-3.8738,-0.1161,-0.9146,1008.06,-1453.37,-220.58
12470,-3.8738,-0.1187,-0.9142,1148.68,-1047.12,-517.46
12480,-3.8738,-0.1239,-0.9152,820.56,-1000.24,-673.71
12490,-3.8738,-0.1293,-0.9163,148.68,-1125.24,-689.33
12500,-3.8738,-0.1316,-0.9187,-538.82,-1265.93,-642.46
12510,-3.8738,-0.1302,-0.9214,-835.69,-1578.43,-408.08
12520,-3.8738,-0.1261,-0.9227,-663.82,-1922.18,-33.08
12530,-3.8737,-0.1211,-0.9237,-132.57,1905.94,232.54
12540,-3.8737,-0.1185,-0.9248,508.06,1781.01,310.67
12550,-3.8737,-0.1189,-0.9238,836.18,1640.38,201.29
12560,-3.8737,-0.1208,-0.9205,789.31,1765.38,76.29
12570,-3.8738,-0.1232,-0.9177,539.31,-1812.74,-79.96
12580,-3.8738,-0.1250,-0.9172,242.43,-1453.37,-251.83
12590,-3.8738,-0.1268,-0.9176,8.06,-1390.87,-392.46
12600,-3.8738,-0.1282,-0.9182,-226.32,-1437.81,-392.46
12610,-3.8738,-0.1282,-0.9185,-398.19,-1515.93,-392.46
12620,-3.8738,-0.1274,-0.9182,-398.19,-1547.18,-470.58
12630,-3.8738,-0.1255,-0.9192,-304.44,-1515.93,-501.83
12640,-3.8738,-0.1216,-0.9205,-54.44,-1640.93,-501.83
12650,-3.8738,-0.1180,-0.9220,445.56,-1812.74,-533.08
12660,-3.8738,-0.1176,-0.9235,898.68,1999.76,-439.33
12670,-3.8738,-0.1208,-0.9257,961.18,1812.26,-79.96
12680,-3.8737,-0.1263,-0.9277,539.31,1531.01,326.29
12690,-3.8737,-0.1315,-0.9272,-163.82,1265.32,545.04
12700,-3.8737,-0.1343,-0.9242,-820.07,1327.82,591.92
12710,-3.8737,-0.1333,-0.9200,-1179.44,1718.44,513.79
12720,-3.8737,-0.1292,-0.9172,-1054.44,-1750.31,326.29
12730,-3.8738,-0.1240,-0.9161,-523.19,-1390.93,-64.33
12740,-3.8738,-0.1206,-0.9166,133.06,-1250.24,-454.96
12750,-3.8738,-0.1194,-0.9183,570.56,-1312.74,-642.46
12760,-3.8738,-0.1217,-0.9193,726.81,-1531.49,-548.71
12770,-3.8738,-0.1262,-0.9205,429.93,-1656.49,-283.08
12780,-3.8738,-0.1293,-0.9233,-148.19,-1812.81,-111.21
12790,-3.8738,-0.1299,-0.9257,-538.82,1827.82,-48.71
12800,-3.8737,-0.1277,-0.9249,-616.94,1530.94,13.79
12810,-3.8737,-0.1245,-0.9221,-335.69,1624.69,185.67
12820,-3.8737,-0.1230,-0.9199,70.56,1984.13,310.67
12830,-3.8737,-0.1239,-0.9185,258.06,-1734.62,107.54
12840,-3.8738,-0.1255,-0.9165,148.68,-1547.12,-423.71
12850,-3.8738,-0.1254,-0.9144,-54.44,-1297.18,-939.33
12860,-3.8738,-0.1233,-0.9147,-38.82,-1031.56,-1142.46
12870,-3.8738,-0.1210,-0.9172,226.81,-1062.74,-970.58
12880,-3.8738,-0.1201,-0.9202,523.68,-1390.87,-533.08
12890,-3.8738,-0.1216,-0.9229,633.06,-1765.87,-79.96
12900,-3.8737,-0.1248,-0.9241,445.56,1890.38,185.67
12910,-3.8737,-0.1282,-0.9236,39.31,1734.13,185.67
12920,-3.8738,-0.1298,-0.9230,-398.19,1796.57,-33.08
12930,-3.8738,-0.1289,-0.9227,-601.32,1874.69,-111.21
12940,-3.8737,-0.1256,-0.9225,-491.94,1905.94,29.42
12950,-3.8737,-0.1215,-0.9224,-70.07,1937.19,76.29
12960,-3.8737,-0.1194,-0.9219,461.18,1952.88,29.42
12970,-3.8738,-0.1193,-0.9205,726.81,-1984.62,-1.83
12980,-3.8738,-0.1206,-0.9189,742.43,-1812.74,-189.33
12990,-3.8738,-0.1228,-0.9178,570.56,-1609.62,-486.21
13000,-3.8738,-0.1255,-0.9178,289.31,-1468.99,-658.08
13010,-3.8738,-0.1281,-0.9197,-54.44,-1469.06,-704.96
13020,-3.8738,-0.1288,-0.9210,-382.57,-1703.43,-548.71
13030,-3.8738,-0.1282,-0.9210,-476.32,-1875.31,-236.21
13040,-3.8738,-0.1268,-0.9209,-398.19,-1875.31,-17.46
13050,-3.8738,-0.1248,-0.9205,-226.32,-1859.68,-33.08
13060,-3.8738,-0.1230,-0.9202,39.31,-1812.74,-95.58
13070,-3.8738,-0.1222,-0.9200,258.06,-1765.87,-158.08
13080,-3.8738,-0.1227,-0.9205,367.43,-1750.24,-142.46
13090,-3.8738,-0.1237,-0.9215,304.93,-1812.74,-17.46
13100,-3.8738,-0.1246,-0.9214,179.93,-1937.74,-33.08
13110,-3.8738,-0.1255,-0.9186,54.93,-1922.12,-267.46
13120,-3.8738,-0.1256,-0.9154,-54.44,-1562.81,-579.96
13130,-3.8738,-0.1259,-0.9155,-70.07,-1156.56,-845.58
13140,-3.8738,-0.1257,-0.9177,-101.32,-1172.18,-970.58
13150,-3.8738,-0.1252,-0.9200,-85.69,-1453.43,-892.46
13160,-3.8738,-0.1246,-0.9222,-23.19,-1750.31,-673.71
13170,-3.8738,-0.1234,-0.9246,54.93,1968.51,-345.58
13180,-3.8737,-0.1230,-0.9260,211.18,1671.63,107.54
13190,-3.8737,-0.1237,-0.9249,258.06,1484.13,373.17
13200,-3.8737,-0.1254,-0.9219,179.93,1624.76,248.17
13210,-3.8738,-0.1278,-0.9193,-38.82,-1984.68,-126.83
13220,-3.8738,-0.1294,-0.9188,-351.32,-1656.56,-626.83
13230,-3.8738,-0.1288,-0.9194,-554.44,-1594.06,-939.33
13240,-3.8738,-0.1265,-0.9202,-476.32,-1672.18,-861.21
13250,-3.8738,-0.1235,-0.9208,-179.44,-1765.93,-501.83
13260,-3.8738,-0.1218,-0.9221,195.56,-1843.99,-173.71
13270,-3.8738,-0.1226,-0.9231,414.31,1984.13,-126.83
13280,-3.8738,-0.1250,-0.9225,320.56,1859.13,-329.96
13290,-3.8738,-0.1277,-0.9213,8.06,1937.26,-579.96
13300,-3.8738,-0.1300,-0.9210,-335.69,-1906.56,-579.96
13310,-3.8738,-0.1311,-0.9220,-632.57,-1875.31,-283.08
13320,-3.8738,-0.1299,-0.9227,-773.19,1999.69,-95.58
13330,-3.8738,-0.1272,-0.9222,-616.94,1905.94,-298.71
13340,-3.8738,-0.1244,-0.9209,-273.19,1968.44,-548.71
13350,-3.8738,-0.1224,-0.9192,86.18,-1859.62,-658.08
13360,-3.8738,-0.1224,-0.9183,336.18,-1640.87,-783.08
13370,-3.8738,-0.1249,-0.9183,336.18,-1531.49,-876.83
13380,-3.8738,-0.1284,-0.9186,23.68,-1531.49,-798.71
13390,-3.8738,-0.1305,-0.9197,-429.44,-1562.81,-564.33
13400,-3.8738,-0.1305,-0.9215,-695.07,-1703.43,-345.58
13410,-3.8738,-0.1283,-0.9226,-695.07,-1937.81,-251.83
13420,-3.8738,-0.1251,-0.9226,-413.82,1921.57,-314.33
13430,-3.8738,-0.1241,-0.9220,-7.57,1921.57,-533.08
13440,-3.8738,-0.1246,-0.9222,117.43,1999.76,-720.58
13450,-3.8738,-0.1255,-0.9233,54.93,1968.51,-814.33
13460,-3.8738,-0.1265,-0.9235,-54.44,1827.82,-845.58
13470,-3.8738,-0.1270,-0.9232,-179.44,1812.19,-736.21
13480,-3.8738,-0.1266,-0.9230,-241.94,1843.44,-486.21
13490,-3.8738,-0.1261,-0.9227,-195.07,1874.69,-376.83
13500,-3.8738,-0.1260,-0.9227,-132.57,1905.94,-548.71
13510,-3.8738,-0.1263,-0.9225,-116.94,1905.94,-798.71
13520,-3.8738,-0.1272,-0.9214,-163.82,1937.19,-986.21
13530,-3.8738,-0.1284,-0.9200,-273.19,-1922.18,-986.21
13540,-3.8738,-0.1293,-0.9197,-429.44,-1750.31,-798.71
13550,-3.8738,-0.1290,-0.9213,-538.82,-1703.43,-533.08
13560,-3.8738,-0.1277,-0.9237,-507.57,-1906.56,-408.08
13570,-3.8738,-0.1252,-0.9249,-335.69,1780.94,-486.21
13580,-3.8738,-0.1234,-0.9237,-23.19,1624.69,-626.83
13590,-3.8738,-0.1245,-0.9210,211.18,1781.01,-704.96
13600,-3.8738,-0.1289,-0.9185,70.56,-1875.24,-658.08
13610,-3.8738,-0.1337,-0.9175,-491.94,-1547.18,-611.21
13620,-3.8738,-0.1353,-0.9186,-1101.32,-1422.18,-736.21
13630,-3.8738,-0.1337,-0.9199,-1304.44,-1562.81,-1001.83
13640,-3.8738,-0.1293,-0.9218,-1101.32,-1734.68,-1095.58
13650,-3.8738,-0.1235,-0.9237,-538.82,-1969.06,-892.46
13660,-3.8738,-0.1199,-0.9240,195.56,1781.01,-689.33
13670,-3.8738,-0.1199,-0.9226,664.31,1749.76,-611.21
13680,-3.8738,-0.1228,-0.9211,664.31,1921.63,-704.96
13690,-3.8738,-0.1282,-0.9204,289.31,-1890.87,-845.58
13700,-3.8738,-0.1333,-0.9203,-398.19,-1797.18,-923.71
13710,-3.8738,-0.1350,-0.9209,-1054.44,-1781.56,-923.71
13720,-3.8738,-0.1329,-0.9210,-1273.19,-1859.68,-1001.83
13730,-3.8738,-0.1285,-0.9205,-1007.57,-1875.31,-1126.83
13740,-3.8738,-0.1241,-0.9202,-445.07,-1812.81,-1173.71
13750,-3.8738,-0.1219,-0.9207,117.43,-1765.87,-1204.96
13760,-3.8738,-0.1224,-0.9227,398.68,-1828.37,-1173.71
13770,-3.8738,-0.1240,-0.9241,336.18,1906.01,-1033.08
13780,-3.8738,-0.1250,-0.9236,133.06,1734.13,-798.71
13790,-3.8738,-0.1257,-0.9219,8.06,1796.63,-533.08
13800,-3.8738,-0.1272,-0.9213,-85.69,-1984.68,-470.58
13810,-3.8738,-0.1300,-0.9219,-273.19,-1906.56,-611.21
13820,-3.8738,-0.1331,-0.9229,-632.57,-1984.68,-876.83
13830,-3.8738,-0.1338,-0.9240,-1023.19,1890.32,-1111.21
13840,-3.8738,-0.1311,-0.9236,-1116.94,1749.69,-1173.71
13850,-3.8738,-0.1263,-0.9215,-773.19,1796.57,-1064.33
13860,-3.8738,-0.1219,-0.9193,-163.82,-1937.81,-986.21
13870,-3.8738,-0.1206,-0.9176,398.68,-1656.49,-1142.46
13880,-3.8738,-0.1233,-0.9176,570.56,-1437.74,-1486.21
13890,-3.8738,-0.1287,-0.9174,226.81,-1437.74,-1783.08
13900,-3.8738,-0.1348,-0.9196,-460.69,-1406.56,-1783.08
13910,-3.8738,-0.1372,-0.9271,-1241.94,-1687.81,-1470.58
13920,-3.8738,-0.1340,-0.9312,-1554.44,1343.44,-892.46
13930,-3.8738,-0.1289,-0.9291,-1148.19,827.82,-95.58
13940,-3.8737,-0.1245,-0.9283,-491.94,1093.44,404.42
13950,-3.8737,-0.1228,-0.9312,70.56,1187.26,216.92
13960,-3.8738,-0.1246,-0.9314,289.31,827.88,-423.71
13970,-3.8738,-0.1282,-0.9263,54.93,796.63,-986.21
13980,-3.8738,-0.1320,-0.9200,-398.19,1452.82,-1314.33
13990,-3.8738,-0.1337,-0.9183,-882.57,-1750.31,-1595.58
14000,-3.8738,-0.1315,-0.9177,-1101.32,-1531.56,-1923.71
14010,-3.8738,-0.1261,-0.9148,-820.07,-1453.43,1701.29
14020,-3.8738,-0.1202,-0.9147,-132.57,-1078.43,1607.54
14030,-3.8738,-0.1188,-0.9193,617.43,-1062.74,1920.04
14040,-3.8738,-0.1219,-0.9247,804.93,-1656.49,-1767.46
14050,-3.8738,-0.1273,-0.9261,398.68,1656.01,-1611.21
14060,-3.8738,-0.1315,-0.9248,-288.82,1468.44,-1345.58
14070,-3.8738,-0.1334,-0.9247,-820.07,1640.32,-876.83
14080,-3.8738,-0.1331,-0.9260,-1070.07,1655.94,-376.83
14090,-3.8738,-0.1310,-0.9276,-1023.19,1484.07,-111.21
14100,-3.8738,-0.1296,-0.9277,-757.57,1280.94,-283.08
14110,-3.8738,-0.1290,-0.9261,-585.69,1265.32,-783.08
14120,-3.8738,-0.1277,-0.9230,-507.57,1468.44,-1283.08
14130,-3.8738,-0.1265,-0.9196,-335.69,1874.69,-1501.83
14140,-3.8738,-0.1255,-0.9180,-179.44,-1687.81,-1579.96
14150,-3.8738,-0.1238,-0.9182,-54.44,-1484.68,-1704.96
14160,-3.8738,-0.1218,-0.9194,164.31,-1515.87,-1751.83
14170,-3.8738,-0.1213,-0.9205,414.31,-1672.12,-1642.46
14180,-3.8738,-0.1238,-0.9213,476.81,-1812.74,-1392.46
14190,-3.8738,-0.1292,-0.9222,164.31,-1906.49,-1048.71
14200,-3.8738,-0.1346,-0.9240,-523.19,1968.44,-814.33
14210,-3.8738,-0.1378,-0.9257,-1226.32,1749.69,-845.58
14220,-3.8738,-0.1364,-0.9259,-1632.57,1530.94,-908.08
14230,-3.8738,-0.1310,-0.9249,-1445.07,1499.69,-736.21
14240,-3.8738,-0.1250,-0.9240,-757.57,1624.69,-470.58
14250,-3.8738,-0.1201,-0.9236,8.06,1749.76,-517.46
14260,-3.8738,-0.1188,-0.9226,633.06,1796.63,-876.83
14270,-3.8738,-0.1216,-0.9211,804.93,1921.63,-1361.21
14280,-3.8738,-0.1265,-0.9197,445.56,-1890.87,-1798.71
14290,-3.8738,-0.1306,-0.9194,-179.44,-1703.43,-1923.71
14300,-3.8738,-0.1320,-0.9209,-710.69,-1672.18,-1704.96
14310,-3.8738,-0.1302,-0.9226,-882.57,-1859.68,-1486.21
14320,-3.8738,-0.1273,-0.9238,-663.82,1921.57,-1267.46
14330,-3.8738,-0.1249,-0.9248,-288.82,1765.32,-1017.46
14340,-3.8738,-0.1238,-0.9252,23.68,1640.38,-767.46
14350,-3.8738,-0.1245,-0.9249,164.31,1593.51,-595.58
14360,-3.8738,-0.1270,-0.9240,70.56,1624.76,-626.83
14370,-3.8738,-0.1289,-0.9233,-241.94,1749.69,-767.46
14380,-3.8738,-0.1295,-0.9229,-491.94,1827.82,-861.21
14390,-3.8738,-0.1287,-0.9221,-570.07,1890.32,-1048.71
14400,-3.8738,-0.1266,-0.9207,-460.69,1984.07,-1220.58
14410,-3.8738,-0.1252,-0.9194,-195.07,-1828.43,-1267.46
14420,-3.8738,-0.1261,-0.9202,-23.19,-1672.18,-1236.21
14430,-3.8738,-0.1281,-0.9225,-132.57,-1765.93,-1236.21
14440,-3.8738,-0.1296,-0.9242,-382.57,1937.19,-1158.08
14450,-3.8738,-0.1295,-0.9241,-585.69,1718.44,-892.46
14460,-3.8738,-0.1278,-0.9232,-570.07,1734.07,-736.21
14470,-3.8738,-0.1254,-0.9231,-351.32,1843.44,-814.33
14480,-3.8738,-0.1229,-0.9236,-38.82,1859.07,-1064.33
14490,-3.8738,-0.1219,-0.9232,273.68,1796.63,-1329.96
14500,-3.8738,-0.1228,-0.9222,398.68,1843.51,-1376.83
14510,-3.8738,-0.1245,-0.9215,289.31,1968.51,-1251.83
14520,-3.8738,-0.1265,-0.9208,70.56,-1937.74,-1173.71
14530,-3.8738,-0.1292,-0.9205,-179.44,-1844.06,-1220.58
14540,-3.8738,-0.1316,-0.9214,-523.19,-1812.81,-1236.21
14550,-3.8738,-0.1323,-0.9243,-835.69,-1922.18,-1001.83
14560,-3.8738,-0.1304,-0.9280,-929.44,1702.82,-658.08
14570,-3.8738,-0.1266,-0.9305,-679.44,1234.07,-423.71
14580,-3.8738,-0.1226,-0.9305,-195.07,905.94,-423.71
14590,-3.8738,-0.1198,-0.9281,320.56,906.01,-564.33
14600,-3.8738,-0.1195,-0.9240,679.93,1218.51,-783.08
14610,-3.8738,-0.1216,-0.9188,711.18,1749.76,-1204.96
14620,-3.8738,-0.1250,-0.9144,445.56,-1593.99,-1548.71
14630,-3.8738,-0.1285,-0.9136,8.06,-1031.49,-1658.08
14640,-3.8738,-0.1311,-0.9160,-445.07,-922.18,-1579.96
14650,-3.8738,-0.1323,-0.9196,-773.19,-1234.68,-1361.21
14660,-3.8738,-0.1321,-0.9225,-929.44,-1687.81,-986.21
14670,-3.8738,-0.1305,-0.9243,-898.19,1937.19,-564.33
14680,-3.8738,-0.1273,-0.9247,-695.07,1702.82,-392.46
14690,-3.8738,-0.1238,-0.9236,-288.82,1655.94,-533.08
14700,-3.8738,-0.1207,-0.9219,164.31,1796.63,-751.83
14710,-3.8738,-0.1194,-0.9209,554.93,-1984.62,-845.58
14720,-3.8738,-0.1208,-0.9202,726.81,-1859.62,-1001.83
14730,-3.8738,-0.1239,-0.9197,539.31,-1765.87,-1173.71
14740,-3.8738,-0.1268,-0.9208,148.68,-1703.37,-1158.08
14750,-3.8738,-0.1296,-0.9222,-226.32,-1844.06,-1033.08
14760,-3.8738,-0.1317,-0.9229,-585.69,1968.44,-829.96
14770,-3.8738,-0.1315,-0.9233,-851.32,1890.32,-689.33
14780,-3.8738,-0.1294,-0.9233,-820.07,1827.82,-704.96
14790,-3.8738,-0.1259,-0.9222,-554.44,1827.82,-829.96
14800,-3.8738,-0.1217,-0.9207,-101.32,1968.44,-1033.08
14810,-3.8738,-0.1191,-0.9202,429.93,-1828.37,-1173.71
14820,-3.8738,-0.1195,-0.9205,758.06,-1765.87,-1095.58
14830,-3.8738,-0.1218,-0.9208,711.18,-1812.74,-861.21
14840,-3.8738,-0.1260,-0.9213,414.31,-1843.99,-720.58
14850,-3.8738,-0.1302,-0.9226,-116.94,-1906.56,-767.46
14860,-3.8738,-0.1323,-0.9238,-663.82,1921.57,-939.33
14870,-3.8738,-0.1320,-0.9242,-929.44,1765.32,-1001.83
14880,-3.8738,-0.1296,-0.9241,-882.57,1718.44,-876.83
14890,-3.8738,-0.1262,-0.9242,-585.69,1734.07,-673.71
14900,-3.8738,-0.1226,-0.9249,-148.19,1718.44,-533.08
14910,-3.8738,-0.1199,-0.9244,320.56,1624.76,-486.21
14920,-3.8738,-0.1200,-0.9220,664.31,1687.26,-579.96
14930,-3.8738,-0.1228,-0.9199,648.68,1999.76,-704.96
14940,-3.8738,-0.1271,-0.9204,289.31,-1734.62,-829.96
14950,-3.8738,-0.1300,-0.9222,-257.57,-1797.18,-1001.83
14960,-3.8738,-0.1304,-0.9231,-632.57,1968.44,-1189.33
14970,-3.8738,-0.1282,-0.9230,-679.44,1859.07,-1236.21
14980,-3.8738,-0.1249,-0.9230,-398.19,1874.69,-1111.21
14990,-3.8738,-0.1219,-0.9235,23.68,1874.76,-876.83
15000,-3.8738,-0.1204,-0.9237,398.68,1812.26,-704.96
15010,-3.8738,-0.1201,-0.9235,601.81,1781.01,-720.58
15020,-3.8738,-0.1213,-0.9224,633.06,1812.26,-908.08
15030,-3.8738,-0.1241,-0.9203,476.81,1952.88,-1001.83
15040,-3.8738,-0.1281,-0.9180,117.43,-1781.49,-829.96
15050,-3.8738,-0.1315,-0.9169,-382.57,-1484.68,-673.71
15060,-3.8738,-0.1333,-0.9185,-820.07,-1344.06,-720.58
15070,-3.8738,-0.1331,-0.9219,-1054.44,-1547.18,-861.21
15080,-3.8738,-0.1298,-0.9253,-1023.19,-1984.68,-798.71
15090,-3.8738,-0.1251,-0.9266,-601.32,1577.82,-501.83
15100,-3.8738,-0.1221,-0.9270,-7.57,1405.94,-220.58
15110,-3.8738,-0.1205,-0.9271,383.06,1359.13,-220.58
15120,-3.8738,-0.1191,-0.9248,586.18,1343.51,-548.71
15130,-3.8738,-0.1198,-0.9202,758.06,1640.38,-908.08
15140,-3.8738,-0.1222,-0.9164,679.93,-1765.87,-1173.71
15150,-3.8738,-0.1246,-0.9153,367.43,-1281.49,-1251.83
15160,-3.8738,-0.1268,-0.9164,54.93,-1140.87,-1204.96
15170,-3.8738,-0.1285,-0.9188,-226.32,-1281.56,-1173.71
15180,-3.8738,-0.1292,-0.9208,-445.07,-1594.06,-1251.83
15190,-3.8738,-0.1287,-0.9222,-523.19,-1844.06,-1236.21
15200,-3.8738,-0.1274,-0.9243,-460.69,1968.44,-1033.08
15210,-3.8738,-0.1244,-0.9269,-304.44,1702.82,-736.21
15220,-3.8738,-0.1208,-0.9299,86.18,1374.76,-408.08
15230,-3.8738,-0.1179,-0.9312,539.31,984.13,-64.33
15240,-3.8737,-0.1166,-0.9287,914.31,827.88,263.79
15250,-3.8737,-0.1188,-0.9243,1086.18,1140.38,341.92
15260,-3.8738,-0.1239,-0.9205,804.93,1702.88,-17.46
15270,-3.8738,-0.1293,-0.9182,148.68,-1812.74,-689.33
15280,-3.8738,-0.1329,-0.9166,-538.82,-1515.93,-1298.71
15290,-3.8738,-0.1317,-0.9163,-1007.57,-1312.81,-1548.71
15300,-3.8738,-0.1268,-0.9182,-851.32,-1265.93,-1423.71
15310,-3.8738,-0.1213,-0.9203,-226.32,-1515.93,-954.96
15320,-3.8738,-0.1169,-0.9219,476.81,-1781.49,-533.08
15330,-3.8738,-0.1151,-0.9244,1039.31,-1984.62,-533.08
15340,-3.8738,-0.1158,-0.9261,1273.68,1687.26,-767.46
15350,-3.8738,-0.1184,-0.9248,1179.93,1468.51,-876.83
15360,-3.8738,-0.1221,-0.9216,851.81,1640.38,-798.71
15370,-3.8738,-0.1260,-0.9194,383.06,-1953.37,-829.96
15380,-3.8738,-0.1288,-0.9180,-116.94,-1672.18,-1048.71
15390,-3.8738,-0.1299,-0.9166,-476.32,-1484.68,-1236.21
15400,-3.8738,-0.1293,-0.9158,-616.94,-1312.81,-1267.46
15410,-3.8738,-0.1263,-0.9154,-538.82,-1203.43,-1220.58
15420,-3.8738,-0.1226,-0.9183,-163.82,-1156.56,-1236.21
15430,-3.8738,-0.1191,-0.9222,320.56,-1531.49,-1314.33
15440,-3.8738,-0.1167,-0.9231,758.06,1968.51,-1392.46
15450,-3.8738,-0.1166,-0.9204,1070.56,1859.13,-1329.96
15460,-3.8738,-0.1191,-0.9153,1086.18,-1797.12,-1033.08
15470,-3.8738,-0.1251,-0.9127,758.06,-1140.87,-892.46
15480,-3.8738,-0.1326,-0.9125,-7.57,-812.81,-1142.46
15490,-3.8738,-0.1371,-0.9133,-960.69,-781.56,-1314.33
15500,-3.8738,-0.1377,-0.9176,-1538.82,-890.93,-1064.33
15510,-3.8738,-0.1355,-0.9237,-1616.94,-1437.81,-564.33
15520,-3.8738,-0.1312,-0.9294,-1335.69,1780.94,-204.96
15530,-3.8738,-0.1268,-0.9327,-788.82,1046.57,-329.96
15540,-3.8738,-0.1238,-0.9319,-226.32,624.69,-767.46
15550,-3.8738,-0.1228,-0.9285,164.31,734.13,-1033.08
15560,-3.8738,-0.1229,-0.9258,289.31,1171.63,-986.21
15570,-3.8738,-0.1224,-0.9249,273.68,1515.38,-954.96
15580,-3.8738,-0.1221,-0.9246,336.18,1624.76,-1189.33
15590,-3.8738,-0.1238,-0.9230,383.06,1671.63,-1626.83
15600,-3.8738,-0.1273,-0.9205,164.31,1874.76,-1954.96
15610,-3.8738,-0.1312,-0.9216,-288.82,-1812.81,-1876.83
15620,-3.8738,-0.1333,-0.9237,-788.82,-1953.43,-1642.46
15630,-3.8738,-0.1323,-0.9221,-1054.44,1780.94,-1470.58
15640,-3.8738,-0.1298,-0.9204,-929.44,1984.07,-1236.21
15650,-3.8738,-0.1284,-0.9219,-601.32,-1797.18,-923.71
15660,-3.8738,-0.1312,-0.9264,-429.44,-1984.68,-439.33
15670,-3.8737,-0.1375,-0.9315,-788.82,1437.19,107.54
15680,-3.8737,-0.1438,-0.9359,-1585.69,780.94,310.67
15690,-3.8738,-0.1469,-0.9382,1601.81,218.44,-95.58
15700,-3.8738,-0.1425,-0.9344,1211.18,-78.43,-970.64
15710,-3.8738,-0.1301,-0.9257,1773.68,405.94,-1829.96
15720,-3.8738,-0.1169,-0.9164,-648.19,1530.94,1607.54
15730,-3.8738,-0.1102,-0.9093,1039.31,-1281.49,1560.67
15740,-3.8738,-0.1127,-0.9050,1898.68,-375.24,1779.42
15750,-3.8738,-0.1245,-0.9052,1586.18,171.63,1904.48
15760,-3.8738,-0.1434,-0.9092,70.56,156.01,1904.48
15770,-3.8738,-0.1621,-0.9138,1648.68,-359.68,-1923.71
15780,-3.8738,-0.1719,-0.9205,-741.94,-953.49,-1236.21
15790,-3.8738,-0.1681,-0.9292,-1991.94,-1812.87,-361.21
15800,-3.8737,-0.1534,-0.9362,-1507.57,1077.76,13.79
15810,-3.8738,-0.1353,-0.9374,367.43,187.19,-345.58
15820,-3.8738,-0.1232,-0.9351,-1304.44,30.94,-1001.83
15830,-3.8738,-0.1204,-0.9308,242.43,327.88,-1486.21
15840,-3.8738,-0.1219,-0.9253,601.81,874.76,-1767.46
15850,-3.8738,-0.1230,-0.9220,398.68,1577.88,-1751.83
15860,-3.8738,-0.1213,-0.9214,258.06,1999.76,-1501.83
15870,-3.8738,-0.1223,-0.9199,476.81,-1922.12,-1392.46
15880,-3.8738,-0.1329,-0.9202,351.81,-1734.62,-1392.46
15890,-3.8738,-0.1467,-0.9235,-1007.57,-1765.93,-1126.83
15900,-3.8738,-0.1545,-0.9270,1226.81,1812.19,-564.33
15910,-3.8737,-0.1561,-0.9332,226.81,1359.07,404.42
15920,-3.8737,-0.1541,-0.9392,23.68,562.19,1701.29
15930,-3.8737,-0.1519,-0.9413,289.31,-203.43,-1376.89
15940,-3.8737,-0.1508,-0.9387,570.56,-469.06,-1533.14
15950,-3.8737,-0.1492,-0.9329,711.18,-140.93,1326.23
15960,-3.8738,-0.1451,-0.9264,914.31,609.07,-126.83
15970,-3.8738,-0.1387,-0.9198,1429.93,1437.19,-1329.96
15980,-3.8738,-0.1316,-0.9121,-1741.94,-1719.06,1826.29
15990,-3.8738,-0.1262,-0.9050,-835.69,-734.68,1263.79
16000,-3.8738,-0.1233,-0.8993,-148.19,171.57,810.73
16010,-3.8738,-0.1205,-0.8940,226.81,906.01,232.60
16020,-3.8739,-0.1166,-0.8909,586.18,1577.88,-548.65
16030,-3.8739,-0.1149,-0.8917,1086.18,1984.13,-1126.77
16040,-3.8739,-0.1184,-0.8960,1304.93,1874.76,-1064.27
16050,-3.8739,-0.1266,-0.9032,851.81,1327.88,-314.27
16060,-3.8738,-0.1359,-0.9114,-195.07,405.94,966.98
16070,-3.8738,-0.1418,-0.9188,-1382.57,-640.93,-1517.46
16080,-3.8738,-0.1437,-0.9244,1851.81,-1594.06,-251.83
16090,-3.8737,-0.1426,-0.9263,1617.43,1687.19,529.42
16100,-3.8737,-0.1442,-0.9274,1758.06,1452.82,966.92
16110,-3.8737,-0.1506,-0.9302,1554.93,1312.19,1138.79
16120,-3.8737,-0.1562,-0.9323,726.81,952.82,1279.42
16130,-3.8737,-0.1572,-0.9321,8.06,687.19,1638.79
16140,-3.8737,-0.1558,-0.9296,-116.94,702.76,1904.42
16150,-3.8737,-0.1523,-0.9240,70.56,1030.94,1826.29
16160,-3.8737,-0.1476,-0.9166,508.06,1749.69,1341.92
16170,-3.8737,-0.1440,-0.9125,1117.43,-1312.81,513.79
16180,-3.8738,-0.1426,-0.9100,1570.56,-781.56,-548.71
16190,-3.8738,-0.1414,-0.9076,1758.06,-469.06,-1595.58
16200,-3.8738,-0.1385,-0.9094,1914.31,-156.56,1857.54
16210,-3.8738,-0.1346,-0.9148,-1726.32,-390.93,1904.42
16220,-3.8738,-0.1315,-0.9207,-1226.32,-1078.43,-1751.83
16230,-3.8738,-0.1292,-0.9243,-820.07,-1828.43,-1376.83
16240,-3.8738,-0.1290,-0.9240,-523.19,1702.82,-1173.71
16250,-3.8738,-0.1313,-0.9225,-507.57,1749.69,-1283.08
16260,-3.8738,-0.1349,-0.9211,-804.44,1937.19,-1564.33
16270,-3.8738,-0.1376,-0.9197,-1257.57,-1890.93,-1923.71
16280,-3.8738,-0.1375,-0.9180,-1601.32,-1703.43,1795.04
16290,-3.8738,-0.1343,-0.9170,-1585.69,-1484.68,1670.04
16300,-3.8738,-0.1304,-0.9169,-1179.44,-1359.68,1763.79
16310,-3.8738,-0.1279,-0.9175,-679.44,-1344.06,-1892.46
16320,-3.8738,-0.1285,-0.9204,-366.94,-1422.18,-1376.83
16330,-3.8738,-0.1328,-0.9237,-445.07,-1797.18,-736.21
16340,-3.8738,-0.1403,-0.9257,-991.94,1780.94,-95.58
16350,-3.8737,-0.1488,-0.9272,-1945.07,1530.94,466.92
16360,-3.8737,-0.1543,-0.9296,961.18,1327.82,748.17
16370,-3.8737,-0.1545,-0.9299,258.06,1030.94,701.29
16380,-3.8737,-0.1508,-0.9255,226.81,984.07,341.92
16390,-3.8738,-0.1465,-0.9178,711.18,1546.57,-283.08
16400,-3.8738,-0.1442,-0.9116,1258.06,-1469.06,-986.21
16410,-3.8738,-0.1429,-0.9088,1554.93,-672.18,-1704.96
16420,-3.8738,-0.1388,-0.9086,1711.18,-312.81,1670.04
16430,-3.8738,-0.1317,-0.9087,-1757.57,-281.56,1451.29
16440,-3.8738,-0.1267,-0.9091,-851.32,-297.18,1607.54
16450,-3.8738,-0.1266,-0.9122,-210.69,-344.06,1920.04
16460,-3.8738,-0.1288,-0.9170,-195.07,-750.31,1998.17
16470,-3.8738,-0.1318,-0.9200,-476.32,-1359.68,1795.04
16480,-3.8738,-0.1351,-0.9205,-866.94,-1750.31,1591.92
16490,-3.8738,-0.1375,-0.9207,-1288.82,-1812.81,1685.67
16500,-3.8738,-0.1384,-0.9219,-1585.69,-1828.43,-1861.21
16510,-3.8738,-0.1390,-0.9242,-1710.69,-1984.68,-1173.71
16520,-3.8738,-0.1410,-0.9276,-1788.82,1718.44,-345.58
16530,-3.8737,-0.1427,-0.9310,1961.18,1280.94,45.04
16540,-3.8738,-0.1439,-0.9332,1742.43,843.44,-204.96
16550,-3.8738,-0.1442,-0.9344,1586.18,562.19,-548.71
16560,-3.8738,-0.1432,-0.9351,1554.93,405.94,-642.46
16570,-3.8738,-0.1426,-0.9329,1679.93,327.82,-533.08
16580,-3.8738,-0.1422,-0.9261,1758.06,609.07,-470.58
16590,-3.8738,-0.1414,-0.9187,1804.93,1468.44,-689.33
16600,-3.8738,-0.1401,-0.9142,1914.31,-1578.43,-1189.33
16610,-3.8738,-0.1406,-0.9122,-1929.44,-1000.31,-1970.58
16620,-3.8738,-0.1429,-0.9119,-1991.94,-750.31,1263.79
16630,-3.8738,-0.1431,-0.9136,1711.18,-703.43,841.92
16640,-3.8738,-0.1388,-0.9165,1695.56,-922.18,841.92
16650,-3.8738,-0.1340,-0.9186,-1757.57,-1297.18,1310.67
16660,-3.8738,-0.1322,-0.9203,-1148.19,-1562.81,-1970.58
16670,-3.8738,-0.1316,-0.9231,-913.82,-1781.56,-1423.71
16680,-3.8738,-0.1326,-0.9258,-835.69,1859.07,-1329.96
16690,-3.8738,-0.1354,-0.9266,-960.69,1515.32,-1595.58
16700,-3.8738,-0.1387,-0.9271,-1320.07,1405.94,-1908.08
16710,-3.8738,-0.1407,-0.9271,-1741.94,1343.44,1998.17
16720,-3.8738,-0.1414,-0.9268,1992.43,1343.44,-1892.46
16730,-3.8738,-0.1400,-0.9266,1914.31,1390.32,-1751.83
16740,-3.8738,-0.1384,-0.9253,-1913.82,1405.94,-1704.96
16750,-3.8738,-0.1387,-0.9215,-1710.69,1577.82,-1767.46
16760,-3.8738,-0.1395,-0.9172,-1741.94,-1937.81,-1814.33
16770,-3.8738,-0.1406,-0.9156,-1851.32,-1390.93,1998.17
16780,-3.8738,-0.1418,-0.9164,-1991.94,-1187.81,1591.92
16790,-3.8738,-0.1434,-0.9171,1851.81,-1281.56,1295.04
16800,-3.8738,-0.1445,-0.9181,1648.68,-1375.31,1498.17
16810,-3.8738,-0.1439,-0.9207,1508.06,-1500.31,-1923.71
16820,-3.8738,-0.1425,-0.9241,1586.18,-1828.43,-1408.08
16830,-3.8738,-0.1411,-0.9280,1773.68,1734.07,-1236.21
16840,-3.8738,-0.1398,-0.9323,1945.56,1234.07,-1345.58
16850,-3.8738,-0.1378,-0.9338,-1882.57,687.19,-1673.71
16860,-3.8738,-0.1368,-0.9316,-1632.57,484.07,-1986.21
16870,-3.8738,-0.1367,-0.9285,-1507.57,765.32,1935.67
16880,-3.8738,-0.1364,-0.9258,-1491.94,1171.57,1935.67
16890,-3.8738,-0.1359,-0.9233,-1445.07,1515.32,1701.29
16900,-3.8738,-0.1366,-0.9220,-1382.57,1827.82,1357.54
16910,-3.8738,-0.1378,-0.9224,-1476.32,1999.69,982.54
16920,-3.8738,-0.1382,-0.9236,-1632.57,1952.82,623.17
16930,-3.8738,-0.1375,-0.9252,-1679.44,1796.57,357.54
16940,-3.8738,-0.1361,-0.9259,-1585.69,1593.44,326.29
16950,-3.8738,-0.1349,-0.9248,-1413.82,1499.69,716.92
16960,-3.8738,-0.1351,-0.9231,-1257.57,1640.32,1310.67
16970,-3.8738,-0.1381,-0.9214,-1288.82,1859.07,1857.54
16980,-3.8738,-0.1440,-0.9207,-1663.82,-1922.18,-1829.96
16990,-3.8738,-0.1511,-0.9224,1570.56,-1828.43,-1736.21
17000,-3.8738,-0.1559,-0.9260,664.31,1952.82,-1720.58
17010,-3.8738,-0.1566,-0.9302,54.93,1484.07,-1642.46
17020,-3.8738,-0.1534,-0.9335,-38.82,952.76,-1486.21
17030,-3.8738,-0.1476,-0.9337,367.43,530.94,-1533.08
17040,-3.8738,-0.1406,-0.9302,1117.43,499.69,-1892.46
17050,-3.8738,-0.1343,-0.9253,-1991.94,952.82,1545.04
17060,-3.8738,-0.1304,-0.9208,-1179.44,1577.82,1060.67
17070,-3.8738,-0.1305,-0.9189,-679.44,-1844.06,888.79
17080,-3.8738,-0.1350,-0.9193,-695.07,-1609.68,888.79
17090,-3.8738,-0.1427,-0.9187,-1273.19,-1656.56,810.67
17100,-3.8738,-0.1519,-0.9176,1742.43,-1578.43,841.92
17110,-3.8738,-0.1587,-0.9187,570.56,-1437.81,1091.92
17120,-3.8738,-0.1599,-0.9221,-304.44,-1578.49,1310.67
17130,-3.8738,-0.1554,-0.9252,-460.69,1984.01,1404.42
17140,-3.8738,-0.1464,-0.9266,117.43,1593.44,1451.29
17150,-3.8738,-0.1375,-0.9272,1273.68,1405.94,1435.67
17160,-3.8738,-0.1326,-0.9283,-1585.69,1327.82,1373.17
17170,-3.8738,-0.1323,-0.9283,-960.69,1187.19,1341.92
17180,-3.8738,-0.1368,-0.9263,-929.44,1187.19,1404.42
17190,-3.8738,-0.1444,-0.9238,-1507.57,1452.82,1529.42
17200,-3.8738,-0.1511,-0.9219,1523.68,1765.32,1498.17
17210,-3.8738,-0.1552,-0.9202,664.31,-1984.68,1263.79
17220,-3.8738,-0.1558,-0.9191,148.68,-1765.93,1076.29
17230,-3.8738,-0.1534,-0.9202,70.56,-1625.31,1091.92
17240,-3.8738,-0.1506,-0.9226,367.43,-1765.93,1279.42
17250,-3.8738,-0.1473,-0.9244,726.81,1921.57,1513.79
17260,-3.8738,-0.1454,-0.9257,1148.68,1687.19,1623.17
17270,-3.8738,-0.1464,-0.9255,1398.68,1530.94,1576.29
17280,-3.8738,-0.1487,-0.9250,1273.68,1546.57,1435.67
17290,-3.8738,-0.1505,-0.9253,976.81,1609.07,1326.29
17300,-3.8738,-0.1506,-0.9264,742.43,1577.82,1357.54
17310,-3.8738,-0.1499,-0.9274,726.81,1437.19,1451.29
17320,-3.8738,-0.1483,-0.9270,820.56,1312.19,1529.42
17330,-3.8738,-0.1462,-0.9264,1023.68,1359.07,1420.04
17340,-3.8738,-0.1451,-0.9258,1289.31,1437.19,1185.67
17350,-3.8738,-0.1450,-0.9240,1429.93,1515.32,826.29
17360,-3.8738,-0.1447,-0.9207,1445.56,1749.69,451.29
17370,-3.8738,-0.1448,-0.9180,1492.43,-1828.43,170.04
17380,-3.8738,-0.1466,-0.9174,1476.81,-1484.68,76.29
17390,-3.8738,-0.1495,-0.9186,1242.43,-1406.56,232.54
17400,-3.8738,-0.1527,-0.9203,867.43,-1562.81,591.92
17410,-3.8738,-0.1559,-0.9224,461.18,-1781.56,1091.92
17420,-3.8738,-0.1582,-0.9246,54.93,1952.82,1545.04
17430,-3.8738,-0.1577,-0.9270,-241.94,1671.51,1795.04
17440,-3.8738,-0.1552,-0.9286,-179.44,1359.01,1732.54
17450,-3.8738,-0.1531,-0.9279,148.68,1155.94,1435.67
17460,-3.8738,-0.1517,-0.9257,414.31,1249.69,1170.04
17470,-3.8738,-0.1511,-0.9236,586.18,1530.94,1138.79
17480,-3.8738,-0.1523,-0.9219,664.31,1796.57,1216.92
17490,-3.8738,-0.1547,-0.9210,508.06,-1984.68,1357.54
17500,-3.8738,-0.1567,-0.9218,211.18,-1875.31,1466.92
17510,-3.8738,-0.1577,-0.9235,-54.44,-1969.12,1310.67
17520,-3.8738,-0.1570,-0.9243,-179.44,1812.13,982.54
17530,-3.8738,-0.1548,-0.9232,-85.69,1702.76,795.04
17540,-3.8738,-0.1527,-0.9207,195.56,1843.44,810.67
17550,-3.8738,-0.1511,-0.9202,461.18,-1828.43,873.17
17560,-3.8738,-0.1500,-0.9221,664.31,-1765.93,857.54
17570,-3.8738,-0.1493,-0.9233,804.93,1984.07,732.54
17580,-3.8738,-0.1489,-0.9230,898.68,1827.82,529.42
17590,-3.8738,-0.1492,-0.9227,945.56,1874.69,388.79
17600,-3.8738,-0.1501,-0.9225,914.31,1905.94,466.92
17610,-3.8738,-0.1523,-0.9216,789.31,1937.19,685.67
17620,-3.8738,-0.1549,-0.9204,508.06,-1953.43,857.54
17630,-3.8738,-0.1577,-0.9188,179.93,-1797.18,982.54
17640,-3.8738,-0.1604,-0.9180,-179.44,-1594.12,1045.04
17650,-3.8738,-0.1621,-0.9189,-523.19,-1484.74,1185.67
17660,-3.8738,-0.1635,-0.9219,-741.94,-1609.74,1341.92
17670,-3.8738,-0.1635,-0.9261,-913.82,-1984.74,1326.29
17680,-3.8738,-0.1605,-0.9294,-913.82,1468.38,1123.17
17690,-3.8738,-0.1548,-0.9299,-538.82,1046.51,935.67
17700,-3.8738,-0.1487,-0.9258,195.56,984.07,607.54
17710,-3.8738,-0.1456,-0.9220,976.81,1515.32,170.04
17720,-3.8739,-0.1454,-0.9254,1367.43,1999.69,-220.58
17730,-3.8739,-0.1456,-0.9263,1398.68,1562.19,-392.46
17740,-3.8739,-0.1465,-0.9182,1367.43,1452.82,-79.96
17750,-3.8738,-0.1508,-0.9144,1258.06,-1515.93,388.79
17760,-3.8738,-0.1578,-0.9209,711.18,-1031.56,576.29
17770,-3.8738,-0.1656,-0.9277,-195.07,-1859.74,310.67
17780,-3.8738,-0.1716,-0.9281,-1195.07,1265.26,263.79
17790,-3.8738,-0.1726,-0.9268,-1960.69,1218.38,732.54
17800,-3.8738,-0.1685,-0.9291,1914.31,1390.26,1107.54
17810,-3.8738,-0.1603,-0.9337,-1554.44,1093.38,1123.17
17820,-3.8738,-0.1506,-0.9354,-507.57,499.63,826.29
17830,-3.8738,-0.1431,-0.9336,726.81,280.94,388.79
17840,-3.8738,-0.1396,-0.9316,1695.56,515.32,123.17
17850,-3.8738,-0.1415,-0.9294,-1866.94,765.32,154.42
17860,-3.8738,-0.1464,-0.9248,1898.68,1046.57,295.04
17870,-3.8738,-0.1527,-0.9198,1273.68,1640.32,373.17
17880,-3.8738,-0.1597,-0.9192,461.18,-1719.06,388.79
17890,-3.8738,-0.1648,-0.9235,-429.44,-1640.99,404.42
17900,-3.8738,-0.1664,-0.9293,-1085.69,1812.13,607.54
17910,-3.8738,-0.1655,-0.9330,-1288.82,1062.13,1045.04
17920,-3.8738,-0.1627,-0.9323,-1179.44,593.38,1466.92
17930,-3.8738,-0.1571,-0.9305,-820.07,687.13,1529.42
17940,-3.8738,-0.1501,-0.9301,-101.32,905.88,1076.29
17950,-3.8738,-0.1456,-0.9296,789.31,968.44,451.29
17960,-3.8738,-0.1432,-0.9291,1367.43,1030.94,154.42
17970,-3.8738,-0.1425,-0.9279,1679.93,1093.44,232.54
17980,-3.8738,-0.1453,-0.9250,1773.68,1249.69,513.79
17990,-3.8738,-0.1504,-0.9216,1414.31,1609.07,716.92
18000,-3.8738,-0.1567,-0.9208,758.06,-1953.43,716.92
18010,-3.8738,-0.1611,-0.9224,-54.44,-1844.12,435.67
18020,-3.8738,-0.1591,-0.9247,-616.94,1952.76,138.79
18030,-3.8738,-0.1508,-0.9285,-351.32,1655.88,295.04
18040,-3.8738,-0.1403,-0.9319,711.18,1171.57,779.42
18050,-3.8738,-0.1316,-0.9329,-1945.07,734.07,1091.92
18060,-3.8738,-0.1260,-0.9319,-835.69,609.07,1107.54
18070,-3.8738,-0.1248,-0.9309,-116.94,734.07,1170.04
18080,-3.8738,-0.1300,-0.9294,39.31,859.13,1482.54
18090,-3.8738,-0.1403,-0.9277,-632.57,1046.57,-1814.33
18100,-3.8738,-0.1512,-0.9258,-1945.07,1265.32,-1111.21
18110,-3.8738,-0.1608,-0.9227,648.68,1515.32,-1111.21
18120,-3.8738,-0.1661,-0.9191,-570.07,1905.88,1951.29
18130,-3.8738,-0.1641,-0.9147,-1257.57,-1625.37,576.29
18140,-3.8739,-0.1561,-0.9116,-991.94,-1062.87,-329.96
18150,-3.8739,-0.1459,-0.9121,23.68,-672.18,-158.08
18160,-3.8738,-0.1342,-0.9148,1336.18,-734.68,966.92
18170,-3.8738,-0.1233,-0.9182,-1163.82,-1078.43,-1720.58
18180,-3.8738,-0.1190,-0.9230,226.81,-1515.87,-939.33
18190,-3.8738,-0.1212,-0.9285,773.68,1874.76,-1345.58
18200,-3.8738,-0.1251,-0.9319,492.43,1171.63,1295.04
18210,-3.8738,-0.1270,-0.9315,-7.57,734.07,201.29
18220,-3.8738,-0.1261,-0.9314,-241.94,780.94,263.79
18230,-3.8738,-0.1223,-0.9347,-132.57,796.57,1341.92
18240,-3.8738,-0.1187,-0.9386,351.81,374.76,-1376.83
18250,-3.8738,-0.1204,-0.9387,820.56,-125.24,-736.27
18260,-3.8738,-0.1282,-0.9337,601.81,-140.87,-986.27
18270,-3.8738,-0.1368,-0.9257,-398.19,499.69,-1658.08
18280,-3.8738,-0.1405,-0.9186,-1507.57,1530.94,1920.04
18290,-3.8738,-0.1372,-0.9161,-1976.32,-1562.81,-1689.33
18300,-3.8738,-0.1312,-0.9192,-1554.44,-1250.31,-486.21
18310,-3.8737,-0.1289,-0.9257,-788.82,-1640.93,873.17
18320,-3.8737,-0.1322,-0.9287,-491.94,1530.94,1513.79
18330,-3.8737,-0.1393,-0.9229,-913.82,1140.32,1295.04
18340,-3.8737,-0.1481,-0.9116,-1820.07,1890.32,670.04
18350,-3.8737,-0.1550,-0.9026,1054.93,-672.18,248.17
18360,-3.8737,-0.1542,-0.8995,164.31,484.07,326.35
18370,-3.8737,-0.1462,-0.8998,273.68,874.69,841.98
18380,-3.8737,-0.1384,-0.8994,1289.31,843.44,1451.35
18390,-3.8737,-0.1364,-0.9012,-1710.69,890.32,1607.60
18400,-3.8737,-0.1393,-0.9081,-1445.07,655.94,763.85
18410,-3.8738,-0.1418,-0.9139,-1820.07,-219.06,-689.33
18420,-3.8738,-0.1406,-0.9144,1851.81,-969.06,-1595.58
18430,-3.8738,-0.1364,-0.9153,-1991.94,-1031.56,-1423.71
18440,-3.8738,-0.1282,-0.9202,-1445.07,-1140.93,-423.71
18450,-3.8737,-0.1168,-0.9246,-398.19,-1765.93,857.54
18460,-3.8737,-0.1097,-0.9254,1054.93,1671.63,1810.67
18470,-3.8737,-0.1112,-0.9232,1961.18,1562.26,1841.92
18480,-3.8737,-0.1182,-0.9194,1773.68,1843.51,623.17
18490,-3.8738,-0.1256,-0.9131,883.06,-1672.12,-1314.33
18500,-3.8738,-0.1296,-0.9053,-70.07,-859.68,1263.79
18510,-3.8738,-0.1301,-0.9020,-585.69,140.32,1060.73
18520,-3.8738,-0.1274,-0.9037,-648.19,562.19,1826.35
18530,-3.8738,-0.1249,-0.9055,-304.44,343.44,-1033.02
18540,-3.8738,-0.1260,-0.9077,23.68,109.13,-126.77
18550,-3.8737,-0.1292,-0.9124,-116.94,-172.18,138.79
18560,-3.8738,-0.1335,-0.9210,-523.19,-765.93,-1.83
18570,-3.8738,-0.1370,-0.9287,-1085.69,-1875.31,-48.71
18580,-3.8737,-0.1376,-0.9254,-1523.19,1140.32,232.54
18590,-3.8737,-0.1378,-0.9155,-1601.32,1562.19,1045.04
18600,-3.8737,-0.1401,-0.9097,-1632.57,-1172.18,1935.67
18610,-3.8737,-0.1444,-0.9117,-1929.44,-422.18,-1892.46
18620,-3.8737,-0.1482,-0.9172,1523.68,-687.81,1888.79
18630,-3.8737,-0.1498,-0.9218,1039.31,-1390.93,1935.67
18640,-3.8737,-0.1492,-0.9279,836.18,-1969.06,1982.54
18650,-3.8737,-0.1479,-0.9344,914.31,1249.69,1935.67
18660,-3.8737,-0.1484,-0.9348,1070.56,405.94,-1892.46
18670,-3.8737,-0.1503,-0.9277,1008.06,359.07,-1501.83
18680,-3.8737,-0.1528,-0.9188,773.68,1265.32,-1423.71
18690,-3.8737,-0.1545,-0.9110,445.56,-1594.06,1857.54
18700,-3.8737,-0.1521,-0.9050,226.81,-594.06,716.92
18710,-3.8738,-0.1476,-0.9030,539.31,171.57,-392.40
18720,-3.8738,-0.1439,-0.9027,1117.43,437.19,-1376.77
18730,-3.8738,-0.1414,-0.9006,1586.18,468.44,1998.23
18740,-3.8738,-0.1410,-0.8976,1914.31,734.07,-1954.90
18750,-3.8738,-0.1438,-0.8993,1961.18,1124.69,-1392.40
18760,-3.8738,-0.1475,-0.9080,1601.81,905.94,-783.02
18770,-3.8738,-0.1492,-0.9183,1133.06,-203.43,-298.71
18780,-3.8737,-0.1517,-0.9257,914.31,-1531.56,388.79
18790,-3.8737,-0.1586,-0.9281,586.18,1530.94,1388.79
18800,-3.8737,-0.1677,-0.9246,-288.82,1218.38,-1611.21
18810,-3.8737,-0.1743,-0.9189,-1460.69,1671.51,-1142.46
18820,-3.8737,-0.1752,-0.9135,1695.56,-1609.74,-1783.08
18830,-3.8737,-0.1716,-0.9072,1586.18,-906.62,701.29
18840,-3.8738,-0.1649,-0.9033,-1960.69,-109.74,-501.83
18850,-3.8738,-0.1556,-0.9053,-1101.32,390.26,-923.65
18860,-3.8738,-0.1476,-0.9117,86.18,140.32,-704.90
18870,-3.8737,-0.1449,-0.9159,1117.43,-687.81,138.79
18880,-3.8737,-0.1501,-0.9170,1461.18,-1219.06,951.29
18890,-3.8737,-0.1595,-0.9158,789.31,-1359.68,920.04
18900,-3.8737,-0.1663,-0.9092,-413.82,-1203.49,123.17
18910,-3.8738,-0.1672,-0.9052,-1273.19,-359.74,-908.08
18920,-3.8738,-0.1622,-0.9081,-1398.19,155.88,-1783.02
18930,-3.8738,-0.1545,-0.9152,-757.57,-219.12,-1908.08
18940,-3.8738,-0.1469,-0.9235,226.81,-1125.31,-923.71
18950,-3.8737,-0.1431,-0.9296,1211.18,1812.19,826.29
18960,-3.8737,-0.1471,-0.9321,1695.56,1030.94,-1517.46
18970,-3.8737,-0.1575,-0.9283,1179.93,702.82,-939.33
18980,-3.8737,-0.1686,-0.9181,-148.19,1187.13,-1829.96
18990,-3.8737,-0.1730,-0.9072,-1570.07,-1500.37,310.67
19000,-3.8738,-0.1694,-0.9033,1867.43,-109.74,-1595.58
19010,-3.8738,-0.1630,-0.9060,-1679.44,390.26,1420.10
19020,-3.8738,-0.1588,-0.9121,-851.32,46.51,1826.35
19030,-3.8738,-0.1586,-0.9200,-320.07,-734.74,-704.96
19040,-3.8737,-0.1617,-0.9260,-288.82,-1750.37,1091.92
19050,-3.8737,-0.1642,-0.9277,-695.07,1484.01,-1704.96
19060,-3.8737,-0.1605,-0.9266,-1007.57,1265.26,-1423.71
19070,-3.8737,-0.1545,-0.9215,-538.82,1405.88,-1548.71
19080,-3.8737,-0.1554,-0.9132,226.81,-1937.81,-1736.21
19090,-3.8737,-0.1650,-0.9089,117.43,-875.31,-1751.83
19100,-3.8737,-0.1771,-0.9098,-1116.94,-328.49,-1595.58
19110,-3.8737,-0.1866,-0.9120,1336.18,-437.87,-1251.83
19120,-3.8737,-0.1885,-0.9143,117.43,-719.12,-845.58
19130,-3.8737,-0.1807,-0.9150,-116.94,-1016.05,-923.71
19140,-3.8737,-0.1671,-0.9125,883.06,-1109.74,-1533.08
19150,-3.8737,-0.1531,-0.9075,-1382.57,-781.62,1748.17
19160,-3.8737,-0.1427,-0.9044,414.31,-140.93,1170.04
19170,-3.8737,-0.1364,-0.9022,1742.43,249.69,826.35
19180,-3.8737,-0.1317,-0.8986,-1445.07,530.94,654.48
19190,-3.8737,-0.1298,-0.8956,-851.32,999.69,482.60
19200,-3.8738,-0.1302,-0.8959,-601.32,1374.69,-33.02
19210,-3.8738,-0.1295,-0.8994,-663.82,1343.44,-970.52
19220,-3.8738,-0.1266,-0.9052,-570.07,890.32,-1673.65
19230,-3.8738,-0.1227,-0.9125,-195.07,155.94,-1204.90
19240,-3.8737,-0.1202,-0.9215,304.93,-781.49,451.29
19250,-3.8737,-0.1195,-0.9303,617.43,-1937.74,-1595.58
19260,-3.8735,-0.1194,-0.9333,711.18,937.26,107.54
19270,-3.8735,-0.1229,-0.9320,726.81,546.63,1404.42
19280,-3.8735,-0.1302,-0.9285,273.68,718.51,1873.17
19290,-3.8735,-0.1395,-0.9177,-663.82,1171.57,1185.67
19300,-3.8737,-0.1494,-0.9019,-1851.32,-1453.43,-298.71
19310,-3.8737,-0.1564,-0.8892,883.06,577.82,-1861.15
19320,-3.8737,-0.1537,-0.8799,-7.57,-1797.24,951.35
19330,-3.8737,-0.1394,-0.8729,336.18,-609.68,248.23
19340,-3.8738,-0.1207,-0.8718,-1835.69,280.94,-1.71
19350,-3.8737,-0.1050,-0.8781,554.93,421.63,154.54
19360,-3.8737,-0.0941,-0.8920,-1429.44,-375.24,498.23
19370,-3.8737,-0.0901,-0.9088,-38.82,1843.51,763.85
19380,-3.8737,-0.0961,-0.9224,476.81,-312.68,966.92
19390,-3.8737,-0.1099,-0.9291,-288.82,1952.88,1295.04
19400,-3.8737,-0.1246,-0.9286,1945.56,1093.51,1935.67
19410,-3.8737,-0.1340,-0.9253,54.93,1156.01,-1345.58
19420,-3.8737,-0.1343,-0.9210,-1148.19,1577.82,-986.21
19430,-3.8737,-0.1268,-0.9164,-1179.44,-1875.31,-986.21
19440,-3.8737,-0.1144,-0.9148,-226.32,-1281.56,-1173.71
19450,-3.8737,-0.1033,-0.9150,1367.43,-1078.37,-1470.58
19460,-3.8737,-0.1016,-0.9142,-1210.69,-1109.62,-1579.96
19470,-3.8737,-0.1101,-0.9137,-991.94,-1000.24,-1423.71
19480,-3.8737,-0.1249,-0.9136,1914.31,-937.74,-1142.46
19490,-3.8737,-0.1379,-0.9152,23.68,-922.12,-673.71
19500,-3.8735,-0.1422,-0.9191,-1648.19,-1125.31,123.17
19510,-3.8735,-0.1415,-0.9219,1804.93,-1625.31,888.79
19520,-3.8735,-0.1436,-0.9161,1898.68,-1984.68,1326.29
19530,-3.8735,-0.1462,-0.9019,1633.06,-1250.31,1623.17
19540,-3.8735,-0.1398,-0.8901,1289.31,577.82,1513.85
19550,-3.8735,-0.1218,-0.8855,-1882.57,-1922.18,170.10
19560,-3.8737,-0.1014,-0.8851,414.31,-1328.37,1373.23
19570,-3.8738,-0.0884,-0.8881,-976.32,-1281.49,1982.60
19580,-3.8739,-0.0856,-0.8894,695.56,-1656.43,-595.52
19590,-3.8739,-0.0940,-0.8838,1054.93,-1828.31,-1314.27
19600,-3.8738,-0.1113,-0.8804,-23.19,-1109.62,232.60
19610,-3.8738,-0.1294,-0.8911,1758.06,-672.12,-658.02
19620,-3.8737,-0.1420,-0.9161,-554.44,1952.82,-1642.40
19630,-3.8735,-0.1486,-0.9456,1836.18,-1250.31,201.29
19640,-3.8735,-0.1495,-0.9669,992.43,-1015.93,951.23
19650,-3.8735,-0.1465,-0.9766,867.43,249.69,1357.48
19660,-3.8735,-0.1409,-0.9772,1258.06,-984.68,1982.42
19670,-3.8735,-0.1338,-0.9678,1976.81,-1062.81,-1548.83
19680,-3.8735,-0.1294,-0.9462,-1116.94,140.32,-1689.39
19690,-3.8735,-0.1310,-0.9207,-554.44,-1094.06,1466.86
19700,-3.8737,-0.1359,-0.9010,-757.57,-1828.43,-111.21
19710,-3.8737,-0.1375,-0.8900,-1382.57,687.19,1935.73
19720,-3.8737,-0.1337,-0.8862,-1585.69,-1906.56,13.85
19730,-3.8738,-0.1255,-0.8892,-1101.32,-1422.18,-1751.77
19740,-3.8738,-0.1146,-0.8970,-54.44,-1797.18,1248.23
19750,-3.8738,-0.1074,-0.9041,1336.18,1202.88,1795.10
19760,-3.8737,-0.1139,-0.9099,-1741.94,296.63,263.85
19770,-3.8737,-0.1342,-0.9178,1429.93,-453.37,-345.58
19780,-3.8735,-0.1573,-0.9258,-1163.82,-1469.06,-1704.96
19790,-3.8735,-0.1716,-0.9297,-132.57,1515.26,-1126.83
19800,-3.8735,-0.1722,-0.9265,-1960.69,1015.26,1045.04
19810,-3.8737,-0.1592,-0.9186,1961.18,1421.51,1935.67
19820,-3.8738,-0.1371,-0.9095,-366.94,-1562.87,-908.08
19830,-3.8738,-0.1173,-0.9031,-1538.82,-406.56,1529.42
19840,-3.8738,-0.1068,-0.9026,992.43,421.63,1482.60
19850,-3.8738,-0.1049,-0.9069,-1663.82,484.13,-1361.15
19860,-3.8737,-0.1077,-0.9127,-1413.82,-62.74,248.17
19870,-3.8737,-0.1104,-0.9171,-1773.19,-812.74,1388.79
19880,-3.8737,-0.1127,-0.9186,1883.06,-1375.24,1732.54
19890,-3.8737,-0.1184,-0.9159,1586.18,-1562.74,1513.79
19900,-3.8737,-0.1301,-0.9121,851.81,-1218.99,966.92
19910,-3.8737,-0.1455,-0.9193,-648.19,-734.68,498.17
19920,-3.8737,-0.1562,-0.9363,1383.06,-1656.56,310.67
19930,-3.8737,-0.1573,-0.9480,8.06,171.57,607.54
19940,-3.8737,-0.1527,-0.9495,-132.57,-1328.49,1654.36
19950,-3.8737,-0.1462,-0.9425,461.18,-1515.93,-955.02
19960,-3.8735,-0.1387,-0.9297,1289.31,-625.31,76.23
19970,-3.8735,-0.1313,-0.9139,-1741.94,1015.32,76.29
19980,-3.8737,-0.1274,-0.8971,-804.44,-969.06,-1017.46
19990,-3.8737,-0.1292,-0.8806,-304.44,1187.19,1435.73
20000,-3.8738,-0.1364,-0.8671,-523.19,-703.43,-298.65
20010,-3.8738,-0.1471,-0.8578,-1445.07,1030.94,1998.29
20020,-3.8738,-0.1576,-0.8567,1179.93,-1781.56,529.54
20030,-3.8739,-0.1621,-0.8684,-163.82,-1640.99,-736.08
20040,-3.8739,-0.1562,-0.8877,-741.94,859.01,1998.29
20050,-3.8739,-0.1451,-0.9070,8.06,-1609.68,1357.60
20060,-3.8739,-0.1360,-0.9230,1429.93,-78.43,-1595.58
20070,-3.8738,-0.1338,-0.9363,-1398.19,1874.69,1295.04
20080,-3.8737,-0.1404,-0.9462,-1116.94,171.57,1170.04
20090,-3.8735,-0.1538,-0.9489,-1960.69,-1094.06,841.86
20100,-3.8735,-0.1704,-0.9447,320.56,-1437.81,-720.64
20110,-3.8735,-0.1879,-0.9351,-1804.44,-906.62,-173.77
20120,-3.8735,-0.2036,-0.9229,-38.82,327.70,-1392.46
20130,-3.8735,-0.2145,-0.9163,1945.56,1890.20,185.67
20140,-3.8737,-0.2180,-0.9191,554.93,-1266.05,1263.79
20150,-3.8738,-0.2124,-0.9255,101.81,-1625.43,-1126.83
20160,-3.8738,-0.1980,-0.9288,820.56,1546.45,1982.54
20170,-3.8738,-0.1787,-0.9265,-1335.69,1124.57,-1298.71
20180,-3.8737,-0.1597,-0.9193,1133.06,1421.51,248.17
20190,-3.8737,-0.1436,-0.9097,-429.44,-1656.62,1388.79
20200,-3.8737,-0.1338,-0.9016,1633.06,-422.18,1310.67
20210,-3.8738,-0.1322,-0.8977,-1116.94,609.07,-173.65
20220,-3.8738,-0.1376,-0.8977,-913.82,1109.07,1482.60
20230,-3.8739,-0.1479,-0.8989,-1601.32,1109.07,-829.90
20240,-3.8739,-0.1581,-0.8990,1070.56,952.82,1716.98
20250,-3.8739,-0.1642,-0.8999,-226.32,937.13,1357.60
20260,-3.8739,-0.1669,-0.9038,-1007.57,827.76,1763.85
20270,-3.8739,-0.1650,-0.9116,-1351.32,327.76,-1470.52
20280,-3.8739,-0.1569,-0.9208,-1116.94,-672.24,-751.83
20290,-3.8739,-0.1460,-0.9301,-70.07,-1844.12,-158.08
20300,-3.8738,-0.1400,-0.9401,1320.56,968.44,638.79
20310,-3.8738,-0.1438,-0.9487,-1913.82,-312.81,1638.73
20320,-3.8738,-0.1560,-0.9530,1601.81,-1422.18,-1314.39
20330,-3.8738,-0.1722,-0.9517,39.31,-1969.06,-267.52
20340,-3.8737,-0.1873,-0.9468,1961.18,-1797.24,638.73
20350,-3.8737,-0.1969,-0.9410,39.31,-1172.24,1123.11
20360,-3.8737,-0.2003,-0.9358,-1195.07,-437.93,1216.86
20370,-3.8737,-0.1982,-0.9309,-1632.57,233.95,795.04
20380,-3.8738,-0.1927,-0.9237,-1366.94,858.95,-220.58
20390,-3.8738,-0.1871,-0.9194,-663.82,1780.82,-1673.71
20400,-3.8738,-0.1816,-0.9166,54.93,-1672.24,795.04
20410,-3.8738,-0.1761,-0.9030,758.06,-1312.87,60.67
20420,-3.8738,-0.1753,-0.8921,1461.18,437.13,310.73
20430,-3.8738,-0.1776,-0.8883,1570.56,1827.76,685.73
20440,-3.8738,-0.1838,-0.8832,1273.68,-1687.87,951.35
20450,-3.8738,-0.1934,-0.8812,476.81,-1031.62,1216.98
20460,-3.8738,-0.2007,-0.8844,-741.94,-781.68,998.23
20470,-3.8738,-0.2050,-0.8936,-1679.44,-1187.93,295.10
20480,-3.8739,-0.2037,-0.9030,1773.68,1640.20,-283.02
20490,-3.8739,-0.1975,-0.9098,1929.93,437.07,-392.40
20500,-3.8739,-0.1885,-0.9207,-1273.19,-437.93,-95.58
20510,-3.8738,-0.1781,-0.9287,-116.94,-1828.55,560.67
20520,-3.8738,-0.1709,-0.9318,1211.18,1140.26,1826.29
20530,-3.8738,-0.1697,-0.9363,-1866.94,749.63,-923.71
20540,-3.8738,-0.1753,-0.9343,-1710.69,171.51,-533.08
20550,-3.8738,-0.1871,-0.9269,1570.56,421.51,-595.58
20560,-3.8738,-0.1969,-0.9235,54.93,1374.63,-861.21
20570,-3.8738,-0.2003,-0.9218,-1195.07,1812.07,-1673.71
20580,-3.8738,-0.1984,-0.9186,-1632.57,-1969.18,1466.92
20590,-3.8738,-0.1904,-0.9150,-1382.57,-1562.93,920.04
20600,-3.8738,-0.1807,-0.9121,-366.94,-1109.80,295.04
20610,-3.8739,-0.1759,-0.9093,883.06,-734.74,-345.58
20620,-3.8739,-0.1772,-0.9048,1492.43,-375.37,-548.71
20630,-3.8739,-0.1804,-0.9010,1320.56,202.76,-439.27
20640,-3.8739,-0.1823,-0.9014,914.31,687.13,-611.15
20650,-3.8739,-0.1818,-0.9016,679.93,640.26,-986.15
20660,-3.8739,-0.1793,-0.9041,742.43,609.01,-1189.27
20670,-3.8739,-0.1766,-0.9108,1054.93,296.51,-1173.65
20680,-3.8739,-0.1770,-0.9169,1398.68,-562.87,-939.33
20690,-3.8739,-0.1813,-0.9221,1351.81,-1344.12,-533.08
20700,-3.8739,-0.1853,-0.9261,804.93,1984.01,-345.58
20710,-3.8739,-0.1884,-0.9294,289.31,1468.38,-533.08
20720,-3.8739,-0.1906,-0.9324,-101.32,1046.45,-736.21
20730,-3.8739,-0.1907,-0.9338,-382.57,671.45,-626.83
20740,-3.8739,-0.1891,-0.9349,-398.19,483.95,-423.71
20750,-3.8739,-0.1869,-0.9347,-195.07,343.32,-189.33
20760,-3.8738,-0.1851,-0.9337,86.18,374.63,123.17
20770,-3.8738,-0.1831,-0.9352,320.56,499.63,232.54
20780,-3.8739,-0.1793,-0.9398,570.56,312.13,-95.58
20790,-3.8739,-0.1732,-0.9458,1054.93,-281.62,-658.14
20800,-3.8739,-0.1659,-0.9495,1836.18,-1047.24,-1095.64
20810,-3.8739,-0.1602,-0.9489,-1226.32,-1515.99,-1455.02
20820,-3.8739,-0.1597,-0.9449,-491.94,-1437.87,-1767.52
20830,-3.8739,-0.1641,-0.9382,-429.44,-937.87,-1970.64
20840,-3.8739,-0.1703,-0.9296,-991.94,-78.49,1763.73
20850,-3.8739,-0.1770,-0.9200,-1788.82,1030.88,1357.54
20860,-3.8739,-0.1836,-0.9110,1351.81,-1750.37,1013.79
20870,-3.8739,-0.1897,-0.9056,508.06,-594.12,873.17
20880,-3.8739,-0.1931,-0.9047,-273.19,93.32,935.73
20890,-3.8739,-0.1934,-0.9054,-710.69,218.32,1279.48
20900,-3.8739,-0.1921,-0.9065,-741.94,124.57,1810.73
20910,-3.8739,-0.1920,-0.9072,-585.69,-16.05,-1626.83
20920,-3.8739,-0.1960,-0.9069,-570.07,-109.80,-1189.33
20930,-3.8739,-0.2025,-0.9072,-1085.69,-62.93,-751.83
20940,-3.8739,-0.2076,-0.9093,-1913.82,-109.80,-267.46
20950,-3.8738,-0.2100,-0.9130,1429.93,-375.43,201.29
20960,-3.8738,-0.2122,-0.9159,1133.06,-844.18,638.79
20970,-3.8738,-0.2177,-0.9175,851.81,-1219.18,1232.54
20980,-3.8738,-0.2258,-0.9182,148.68,-1422.30,-1986.21
20990,-3.8738,-0.2330,-0.9198,-898.19,-1516.11,-1329.96
21000,-3.8738,-0.2362,-0.9225,-1820.07,-1719.24,-939.33
21010,-3.8738,-0.2351,-0.9232,1773.68,1937.01,-923.71
21020,-3.8738,-0.2316,-0.9211,1914.31,1843.26,-1579.96
21030,-3.8738,-0.2240,-0.9177,-1632.57,-1891.11,1138.79
21040,-3.8739,-0.2118,-0.9146,-663.82,-1453.61,-220.58
21050,-3.8739,-0.1969,-0.9144,898.68,-1047.30,-1079.96
21060,-3.8739,-0.1824,-0.9191,-1195.07,-1031.68,-1454.96
21070,-3.8739,-0.1714,-0.9247,664.31,-1625.37,-1486.21
21080,-3.8739,-0.1647,-0.9263,-1929.44,1655.88,-1439.33
21090,-3.8739,-0.1627,-0.9233,-1070.07,1452.76,-1595.58
21100,-3.8739,-0.1663,-0.9188,-820.07,1827.76,1951.29
21110,-3.8739,-0.1733,-0.9150,-1273.19,-1594.12,1279.42
21120,-3.8739,-0.1803,-0.9143,1820.56,-1109.74,701.29
21130,-3.8739,-0.1846,-0.9180,929.93,-1015.99,513.79
21140,-3.8739,-0.1868,-0.9237,383.06,-1484.74,904.42
21150,-3.8739,-0.1870,-0.9291,101.81,1780.88,1591.92
21160,-3.8739,-0.1844,-0.9320,70.56,1093.38,-1861.21
21170,-3.8739,-0.1804,-0.9323,398.68,718.38,-1486.21
21180,-3.8739,-0.1766,-0.9314,914.31,687.13,-1376.83
21190,-3.8739,-0.1714,-0.9327,1398.68,796.51,-1470.58
21200,-3.8739,-0.1633,-0.9362,-1929.44,624.63,-1517.46
21210,-3.8739,-0.1550,-0.9398,-898.19,187.13,-1314.33
21220,-3.8739,-0.1478,-0.9427,164.31,-281.56,-876.89
21230,-3.8739,-0.1410,-0.9427,1086.18,-656.56,-689.39
21240,-3.8739,-0.1393,-0.9352,1961.18,-656.56,-1423.77
21250,-3.8739,-0.1471,-0.9222,-1820.07,312.19,1482.54
21260,-3.8739,-0.1602,-0.9110,1179.93,1968.44,904.42
21270,-3.8739,-0.1736,-0.9033,-491.94,-594.12,576.29
21280,-3.8739,-0.1844,-0.8989,1789.31,390.26,138.85
21290,-3.8740,-0.1920,-0.8965,398.68,952.76,-408.02
21300,-3.8740,-0.1970,-0.8977,-570.07,1265.20,-923.65
21310,-3.8740,-0.1992,-0.9027,-1210.69,1108.95,-1345.52
21320,-3.8740,-0.1985,-0.9087,-1491.94,468.32,-1611.15
21330,-3.8740,-0.1943,-0.9150,-1398.19,-297.30,-1486.21
21340,-3.8740,-0.1871,-0.9235,-866.94,-1109.80,-673.71
21350,-3.8739,-0.1801,-0.9337,54.93,1812.13,841.92
21360,-3.8739,-0.1770,-0.9423,961.18,499.63,-1048.71
21370,-3.8738,-0.1802,-0.9462,1351.81,-594.12,1263.73
21380,-3.8738,-0.1902,-0.9457,945.56,-1094.12,-814.39
21390,-3.8737,-0.2042,-0.9419,-335.69,-1031.68,263.73
21400,-3.8737,-0.2179,-0.9369,1867.43,-547.30,201.23
21410,-3.8738,-0.2261,-0.9332,117.43,93.32,-751.83
21420,-3.8738,-0.2261,-0.9309,-929.44,562.01,1873.17
21430,-3.8738,-0.2196,-0.9282,-929.44,858.89,326.29
21440,-3.8739,-0.2089,-0.9248,-101.32,1202.64,-1111.21
21450,-3.8739,-0.1962,-0.9209,1273.68,1640.20,1513.79
21460,-3.8739,-0.1833,-0.9176,-1101.32,-1859.80,451.29
21470,-3.8740,-0.1718,-0.9165,539.31,-1437.87,-267.46
21480,-3.8740,-0.1633,-0.9177,-1976.32,-1297.24,-626.83
21490,-3.8740,-0.1588,-0.9204,-898.19,-1453.49,-626.83
21500,-3.8740,-0.1581,-0.9248,-320.07,-1797.24,-611.21
21510,-3.8740,-0.1595,-0.9305,-226.32,1640.26,-533.08
21520,-3.8740,-0.1611,-0.9376,-413.82,905.88,-158.08
21530,-3.8739,-0.1609,-0.9446,-616.94,-0.37,310.61
21540,-3.8739,-0.1592,-0.9501,-585.69,-890.99,466.86
21550,-3.8739,-0.1586,-0.9535,-366.94,-1594.12,326.23
21560,-3.8739,-0.1627,-0.9531,-288.82,1968.38,154.36
21570,-3.8739,-0.1703,-0.9482,-820.07,-1984.74,216.86
21580,-3.8739,-0.1775,-0.9407,-1788.82,-1359.74,373.11
21590,-3.8739,-0.1821,-0.9333,1289.31,-390.99,732.48
21600,-3.8739,-0.1841,-0.9285,695.56,546.51,1279.42
21610,-3.8739,-0.1841,-0.9249,445.56,1171.51,1826.29
21620,-3.8739,-0.1844,-0.9216,445.56,1624.63,-1689.33
21630,-3.8739,-0.1866,-0.9182,398.68,-1953.49,-1361.21
21640,-3.8739,-0.1895,-0.9146,117.43,-1515.99,-1345.58
21650,-3.8739,-0.1920,-0.9119,-241.94,-1047.30,-1611.21
21660,-3.8739,-0.1934,-0.9117,-570.07,-703.55,1951.29
21670,-3.8739,-0.1934,-0.9135,-741.94,-687.93,1654.42
21680,-3.8739,-0.1924,-0.9158,-741.94,-906.68,1607.54
21690,-3.8739,-0.1893,-0.9186,-616.94,-1203.55,1670.04
21700,-3.8739,-0.1846,-0.9214,-226.32,-1562.93,1654.42
21710,-3.8739,-0.1805,-0.9240,383.06,-1922.24,1607.54
21720,-3.8739,-0.1787,-0.9261,898.68,1749.63,1685.67
21730,-3.8739,-0.1792,-0.9288,1133.06,1468.38,1873.17
21740,-3.8739,-0.1805,-0.9312,1070.56,1124.63,-1923.71
21750,-3.8739,-0.1794,-0.9324,898.68,827.76,-1783.08
21760,-3.8739,-0.1752,-0.9344,1039.31,671.51,-1658.08
21770,-3.8739,-0.1689,-0.9382,1586.18,405.88,-1470.58
21780,-3.8739,-0.1621,-0.9420,-1616.94,-78.49,-1205.02
21790,-3.8739,-0.1566,-0.9442,-741.94,-562.87,-986.27
21800,-3.8739,-0.1530,-0.9442,-38.82,-844.12,-1017.52
21810,-3.8739,-0.1504,-0.9436,429.93,-844.06,-1548.77
21820,-3.8739,-0.1479,-0.9434,758.06,-765.93,1544.98
21830,-3.8739,-0.1461,-0.9429,1070.56,-734.68,888.73
21840,-3.8739,-0.1462,-0.9413,1304.93,-672.18,732.48
21850,-3.8739,-0.1487,-0.9393,1289.31,-469.06,998.11
21860,-3.8739,-0.1517,-0.9366,976.81,-219.06,1576.23
21870,-3.8739,-0.1526,-0.9329,586.18,124.69,-1892.46
21880,-3.8739,-0.1520,-0.9291,476.81,609.07,-1533.08
21890,-3.8739,-0.1520,-0.9263,554.93,1093.44,-1392.46
21900,-3.8739,-0.1543,-0.9246,554.93,1452.82,-1470.58
21910,-3.8739,-0.1603,-0.9222,258.06,1671.57,-1736.21
21920,-3.8739,-0.1676,-0.9186,-507.57,1968.38,1920.04
21930,-3.8739,-0.1724,-0.9147,-1445.07,-1562.87,1638.79
21940,-3.8739,-0.1716,-0.9115,1945.56,-1062.87,1341.92
21950,-3.8739,-0.1656,-0.9102,-1960.69,-656.62,904.42
21960,-3.8739,-0.1580,-0.9113,-1195.07,-484.74,341.92
21970,-3.8740,-0.1498,-0.9137,-210.69,-625.37,-95.58
21980,-3.8740,-0.1414,-0.9158,836.18,-937.81,-220.58
21990,-3.8739,-0.1327,-0.9187,1914.31,-1203.43,45.04
22000,-3.8739,-0.1265,-0.9225,-976.32,-1578.43,685.67
22010,-3.8739,-0.1256,-0.9255,-179.44,1937.19,1279.42
22020,-3.8739,-0.1311,-0.9259,-70.07,1546.57,1482.54
22030,-3.8739,-0.1409,-0.9250,-773.19,1499.69,1373.17
22040,-3.8739,-0.1503,-0.9247,1976.81,1609.07,920.04
22050,-3.8739,-0.1549,-0.9238,773.68,1655.94,216.92
22060,-3.8740,-0.1533,-0.9232,179.93,1765.32,-408.08
22070,-3.8740,-0.1488,-0.9238,383.06,1843.44,-548.71
22080,-3.8740,-0.1469,-0.9240,961.18,1765.32,-189.33
22090,-3.8739,-0.1504,-0.9236,1211.18,1749.69,279.42
22100,-3.8739,-0.1571,-0.9235,758.06,1796.57,670.04
22110,-3.8739,-0.1638,-0.9246,-101.32,1812.13,951.29
22120,-3.8739,-0.1693,-0.9274,-960.69,1671.51,1107.54
22130,-3.8739,-0.1731,-0.9318,-1663.82,1312.13,1232.54
22140,-3.8739,-0.1766,-0.9362,1851.81,749.63,1513.79
22150,-3.8739,-0.1819,-0.9384,1398.68,187.13,-1798.71
22160,-3.8739,-0.1890,-0.9371,726.81,-94.12,-986.27
22170,-3.8739,-0.1957,-0.9381,-179.44,62.07,-376.83
22180,-3.8738,-0.1991,-0.9430,-1038.82,-62.93,107.48
22190,-3.8738,-0.1992,-0.9452,-1476.32,-687.93,498.11
22200,-3.8738,-0.1967,-0.9457,-1491.94,-969.18,685.61
22210,-3.8738,-0.1917,-0.9493,-1163.82,-1031.68,513.73
22220,-3.8739,-0.1831,-0.9554,-523.19,-1500.43,-95.64
22230,-3.8739,-0.1732,-0.9608,570.56,1718.38,-861.27
22240,-3.8739,-0.1669,-0.9624,1836.18,1030.88,-1455.02
22250,-3.8739,-0.1658,-0.9583,-1351.32,827.76,-1939.39
22260,-3.8739,-0.1671,-0.9510,-1210.69,1359.01,1466.86
22270,-3.8739,-0.1677,-0.9436,-1382.57,-1719.12,544.98
22280,-3.8740,-0.1659,-0.9373,-1460.69,-765.99,-345.64
22290,-3.8740,-0.1630,-0.9329,-1226.32,46.51,-1142.46
22300,-3.8740,-0.1608,-0.9291,-851.32,609.01,-1861.21
22310,-3.8740,-0.1602,-0.9246,-570.07,1093.38,1748.17
22320,-3.8740,-0.1621,-0.9171,-491.94,1671.51,1685.67
22330,-3.8740,-0.1669,-0.9076,-741.94,-1375.37,1732.54
22340,-3.8740,-0.1735,-0.9025,-1351.32,-156.62,1873.17
22350,-3.8740,-0.1804,-0.9027,1804.93,499.63,-1876.77
22360,-3.8740,-0.1860,-0.9034,914.31,468.38,-1564.27
22370,-3.8740,-0.1902,-0.9017,195.56,374.63,-1079.90
22380,-3.8740,-0.1937,-0.8999,-335.69,593.32,-376.77
22390,-3.8739,-0.1970,-0.9015,-788.82,827.70,576.35
22400,-3.8739,-0.2017,-0.9055,-1210.69,624.57,1716.98
22410,-3.8739,-0.2090,-0.9094,-1804.44,108.95,-1173.65
