timestamp_ms,ax,ay,az,gx,gy,gz
0,-3.8707,0.8104,0.1913,-226.32,-13.98,-1577.94
10,-3.8705,0.7760,0.2538,-257.57,485.90,-1812.13
20,-3.8702,0.7878,0.2999,-663.82,485.84,1078.61
30,-3.8700,0.8444,0.3387,851.81,-1607.85,266.17
40,-3.8698,0.9172,0.3759,86.18,-638.98,125.61
50,-3.8695,0.9719,0.4030,1414.31,111.15,531.98
60,-3.8693,0.9779,0.4152,414.31,-419.98,1188.23
70,-3.8690,0.9316,0.4187,1179.93,1142.52,1000.79
80,-3.8689,0.8505,0.4135,-741.94,1595.52,-1217.96
90,-3.8688,0.7673,0.3931,867.43,923.52,-1811.71
100,-3.8687,0.6956,0.3704,-1773.19,-1686.04,672.61
110,-3.8687,0.6224,0.3636,1039.31,-592.41,-514.95
120,-3.8685,0.5457,0.3795,-320.07,-1451.97,-546.20
130,-3.8683,0.4678,0.4099,1851.81,579.16,1485.11
140,-3.8680,0.3817,0.4351,-116.94,469.60,1032.04
150,-3.8678,0.2809,0.4470,867.43,-311.77,282.04
160,-3.8677,0.1741,0.4568,-38.82,1219.24,1750.85
170,-3.8676,0.0834,0.4703,-1710.69,-1530.94,1141.48
180,-3.8676,0.0216,0.4789,-1320.07,203.25,-827.21
190,-3.8674,-0.0192,0.4792,-1226.32,1296.88,391.54
200,-3.8674,-0.0546,0.4810,1554.93,1359.31,985.29
210,-3.8674,-0.1007,0.4938,1023.68,1578.00,1297.79
220,-3.8674,-0.1621,0.5190,-882.57,-781.49,1438.42
230,-3.8674,-0.2479,0.5474,-741.94,-1547.24,610.35
240,-3.8676,-0.3401,0.5691,273.68,-1922.36,1532.29
250,-3.8678,-0.3944,0.5768,476.81,858.70,-405.15
260,-3.8680,-0.4330,0.5604,1523.68,1842.96,-1061.40
270,-3.8684,-0.4695,0.5237,586.18,-250.85,-248.96
280,-3.8688,-0.4913,0.4778,-85.69,-954.10,-811.52
290,-3.8691,-0.5179,0.4347,1117.43,1170.90,-1389.71
300,-3.8695,-0.5397,0.3992,1711.18,-344.79,1735.17
310,-3.8699,-0.5579,0.3667,-1070.07,-891.72,781.98
320,-3.8702,-0.5808,0.3422,601.81,-1047.97,1156.92
330,-3.8706,-0.5997,0.3423,1664.31,-188.66,-640.01
340,-3.8708,-0.6013,0.3654,-757.57,-173.10,-811.89
350,-3.8711,-0.5823,0.3719,-960.69,-1219.97,-233.70
360,-3.8713,-0.5497,0.3302,1476.81,-376.16,-483.70
370,-3.8716,-0.5094,0.2462,1648.68,-1719.85,1109.99
380,-3.8719,-0.4734,0.1523,-1195.07,-469.79,1250.43
390,-3.8723,-0.4469,0.0789,-585.69,-485.35,-1968.51
400,-3.8726,-0.4313,0.0345,-1195.07,-1891.54,1328.25
410,-3.8728,-0.4233,0.0149,804.93,436.65,-249.94
420,-3.8728,-0.4240,0.0057,1820.56,1921.02,78.12
430,-3.8729,-0.4277,-0.0010,1742.43,749.15,1625.00
440,-3.8729,-0.4235,0.0016,1258.06,-110.23,734.31
450,-3.8729,-0.4028,0.0126,1804.93,217.90,984.38
460,-3.8729,-0.3719,0.0166,445.56,1624.21,1140.62
470,-3.8730,-0.3295,0.0057,398.68,-1860.11,-265.62
480,-3.8730,-0.2786,-0.0153,1836.18,749.33,265.62
490,-3.8733,-0.2267,-0.0331,351.81,-1938.05,-390.69
500,-3.8734,-0.1658,-0.0333,-1007.57,-219.24,-1031.37
510,-3.8735,-0.0933,-0.0149,-1210.69,-250.37,-703.25
520,-3.8735,-0.0248,0.0125,70.56,-1890.81,1624.94
530,-3.8735,0.0198,0.0339,836.18,1609.31,1250.00
540,-3.8737,0.0383,0.0375,-1460.69,343.75,-374.94
550,-3.8738,0.0443,0.0239,914.31,796.94,-859.31
560,-3.8739,0.0503,0.0061,1679.93,-937.44,765.62
570,-3.8741,0.0677,-0.0045,-1554.44,781.31,-1750.00
580,-3.8743,0.1084,-0.0066,679.93,-578.00,468.69
590,-3.8745,0.1771,-0.0002,1883.06,-843.57,-312.56
600,-3.8746,0.2683,0.0116,-1320.07,-30.94,-468.81
610,-3.8748,0.3717,0.0204,-1648.19,1484.86,-218.75
620,-3.8748,0.4745,0.0242,-413.82,-1389.95,1343.75
630,-3.8748,0.5570,0.0341,742.43,-905.33,1484.38
640,-3.8746,0.6049,0.0613,-695.07,360.41,921.94
650,-3.8745,0.6301,0.1016,1429.93,-155.09,-1062.44
660,-3.8743,0.6449,0.1301,664.31,1001.22,-1452.94
670,-3.8740,0.6256,0.1389,-1445.07,657.47,-1015.38
680,-3.8738,0.5797,0.1301,86.18,1782.47,-1656.01
690,-3.8737,0.5729,0.1105,-1788.82,657.35,-499.76
700,-3.8735,0.5952,0.0956,1336.18,-1858.28,-281.07
710,-3.8734,0.6091,0.0992,195.56,235.53,-202.94
720,-3.8732,0.6617,0.1372,1976.81,704.28,484.56
730,-3.8730,0.7823,0.1915,711.18,1563.78,-812.26
740,-3.8727,0.9137,0.2233,148.68,517.15,984.74
750,-3.8723,1.0195,0.2286,961.18,579.90,1734.80
760,-3.8719,1.0815,0.2324,-1491.94,1267.58,-1155.82
770,-3.8716,1.0864,0.2445,-1554.44,1752.08,-921.45
780,-3.8712,1.0406,0.2479,-929.44,-701.05,-1452.70
790,-3.8710,0.9680,0.2356,1211.18,-263.61,-280.82
800,-3.8707,0.9174,0.2240,-85.69,-1841.92,750.43
810,-3.8707,0.9343,0.2291,1429.93,673.65,1906.68
820,-3.8707,1.0343,0.2665,-398.19,1329.90,-1155.82
830,-3.8706,1.1750,0.3369,398.68,-1888.61,-405.76
840,-3.8702,1.2853,0.4182,-1585.69,-872.74,-1686.89
850,-3.8698,1.3065,0.4844,523.68,1533.75,1266.42
860,-3.8694,1.2523,0.5183,-757.57,-1997.50,-686.58
870,-3.8690,1.1737,0.5168,304.93,-1653.81,516.60
880,-3.8689,1.1061,0.4922,-1757.57,-1841.49,1204.10
890,-3.8689,1.0378,0.4531,1586.18,-997.86,-530.33
900,-3.8688,0.9432,0.4121,851.81,-1997.99,1297.73
910,-3.8687,0.8131,0.3947,742.43,751.83,500.79
920,-3.8685,0.6606,0.4099,86.18,-1482.79,1797.61
930,-3.8683,0.5144,0.4478,570.56,470.03,813.29
940,-3.8680,0.3982,0.4980,1851.81,1313.48,282.10
950,-3.8679,0.3248,0.5471,-1023.19,-249.27,-1108.46
960,-3.8677,0.2887,0.5873,1586.18,-1968.14,547.91
970,-3.8676,0.2712,0.6140,961.18,-827.58,1547.97
980,-3.8674,0.2433,0.6208,-1273.19,-1405.76,1485.53
990,-3.8673,0.1812,0.6125,-851.32,-530.82,219.91
1000,-3.8673,0.0715,0.5985,-804.44,-1593.44,1938.66
1010,-3.8673,-0.0800,0.5844,1164.31,609.50,-1905.09
1020,-3.8674,-0.2427,0.5695,1773.68,-1187.68,-280.15
1030,-3.8676,-0.3804,0.5510,945.56,905.76,-1092.65
1040,-3.8677,-0.4717,0.5321,-679.44,-1453.92,579.16
1050,-3.8679,-0.5405,0.5133,-366.94,124.02,422.91
1060,-3.8683,-0.5790,0.4839,-1179.44,1717.65,1688.48
1070,-3.8687,-0.5548,0.4402,1898.68,1951.97,-1952.21
1080,-3.8690,-0.5286,0.3956,992.43,358.28,-577.27
1090,-3.8693,-0.5433,0.3604,351.81,-1344.79,1641.36
1100,-3.8695,-0.5631,0.3375,-1538.82,-1860.47,1125.67
1110,-3.8698,-0.5920,0.3329,-70.07,-782.41,-843.14
1120,-3.8699,-0.6255,0.3439,226.81,-1376.16,-624.39
1130,-3.8699,-0.6195,0.3574,-54.44,29.97,406.92
1140,-3.8700,-0.5825,0.3591,711.18,1764.40,266.30
1150,-3.8702,-0.5205,0.3378,1445.56,1983.22,1610.05
1160,-3.8705,-0.4524,0.2920,1383.06,-751.04,828.74
1170,-3.8708,-0.4038,0.2352,-1898.19,1389.71,-983.83
1180,-3.8711,-0.3715,0.1829,320.56,-1875.79,1172.30
1190,-3.8713,-0.3610,0.1429,461.18,-578.86,15.93
1200,-3.8717,-0.3610,0.1121,1804.93,-1688.23,-218.51
1210,-3.8719,-0.3690,0.0784,1804.93,-1641.36,-234.19
1220,-3.8722,-0.3683,0.0383,773.68,-1953.86,-328.00
1230,-3.8724,-0.3450,-0.0018,867.43,921.14,-171.81
1240,-3.8726,-0.3092,-0.0360,-148.19,-219.48,578.06
1250,-3.8728,-0.2722,-0.0543,429.93,-594.36,-906.37
1260,-3.8728,-0.2511,-0.0365,1164.31,1061.95,1296.75
1270,-3.8728,-0.2563,0.0090,-132.57,-656.80,-1375.12
1280,-3.8728,-0.2867,0.0431,-804.44,1171.33,-468.75
1290,-3.8728,-0.3097,0.0476,-695.07,1530.64,1859.44
1300,-3.8729,-0.2932,0.0306,367.43,-1891.24,1531.31
1310,-3.8732,-0.2332,0.0090,-1523.19,-63.11,-1156.25
1320,-3.8734,-0.1392,-0.0110,-1835.69,1171.39,-1906.25
1330,-3.8738,-0.0236,-0.0360,-1804.44,-1390.93,-46.94
1340,-3.8740,0.0920,-0.0649,992.43,-593.81,-1984.50
1350,-3.8743,0.1780,-0.0885,-210.69,-312.38,1437.32
1360,-3.8745,0.2173,-0.1038,-1210.69,672.18,-1609.56
1370,-3.8746,0.2117,-0.1107,-179.44,-1280.88,1702.88
1380,-3.8746,0.1737,-0.0984,-898.19,1828.49,515.38
1390,-3.8746,0.1235,-0.0601,-1757.57,-593.44,-1468.99
1400,-3.8745,0.0876,-0.0056,-179.44,312.68,-781.37
1410,-3.8743,0.0874,0.0531,-773.19,-718.63,1968.69
1420,-3.8740,0.1315,0.1056,-804.44,-1203.00,906.31
1430,-3.8739,0.2123,0.1422,836.18,1515.87,-1577.94
1440,-3.8738,0.3062,0.1561,-820.07,-1796.51,1062.74
1450,-3.8739,0.3933,0.1523,-804.44,-15.08,-390.38
1460,-3.8740,0.4698,0.1417,-1648.19,-499.27,-1374.76
1470,-3.8741,0.5217,0.1266,148.68,-1858.46,1500.24
1480,-3.8743,0.5471,0.1039,-1210.69,204.10,-1218.51
1490,-3.8743,0.5480,0.0739,-1960.69,1297.91,-1812.32
1500,-3.8743,0.5212,0.0571,-1851.32,1454.16,-343.63
1510,-3.8740,0.5056,0.0840,-1273.19,-686.52,203.19
1520,-3.8738,0.5211,0.1598,726.81,-1249.02,1000.12
1530,-3.8734,0.5560,0.2583,-1288.82,454.10,1750.31
1540,-3.8729,0.6223,0.3512,-820.07,1063.54,766.11
1550,-3.8726,0.7045,0.4149,-335.69,954.28,-936.83
1560,-3.8722,0.7830,0.4312,-1820.07,1110.72,1266.42
1570,-3.8721,0.8628,0.4099,226.81,-810.97,-921.08
1580,-3.8719,0.9340,0.3715,-1554.44,470.40,1641.42
1590,-3.8719,0.9784,0.3201,-445.07,-451.35,1438.17
1600,-3.8719,0.9890,0.2588,1242.43,970.64,16.24
1610,-3.8721,0.9685,0.2057,-1398.19,1126.89,-1202.64
1620,-3.8721,0.9349,0.1949,-23.19,-1670.04,-530.88
1630,-3.8718,0.9026,0.2550,-320.07,954.90,-1874.63
1640,-3.8713,0.8702,0.3810,-460.69,642.33,1531.74
1650,-3.8707,0.8461,0.5358,-601.32,767.27,-1468.02
1660,-3.8700,0.8320,0.6639,304.93,579.77,172.91
1670,-3.8695,0.8175,0.7097,-1491.94,985.96,-1529.97
1680,-3.8691,0.7963,0.6444,648.68,-1154.66,423.22
1690,-3.8693,0.7759,0.4972,1929.93,-1514.10,-686.28
1700,-3.8695,0.7451,0.3430,-679.44,-357.91,1422.79
1710,-3.8700,0.6941,0.2413,-616.94,-92.35,-155.64
1720,-3.8702,0.6313,0.2126,851.81,-1108.03,391.05
1730,-3.8704,0.5563,0.2577,820.56,-780.03,328.49
1740,-3.8702,0.4628,0.3655,-788.82,985.41,1906.74
1750,-3.8698,0.3583,0.5114,-757.57,-1217.90,453.80
1760,-3.8691,0.2599,0.6578,1867.43,1453.80,1266.60
1770,-3.8684,0.1776,0.7777,1273.68,203.61,79.41
1780,-3.8679,0.1129,0.8407,-1257.57,-452.82,-326.66
1790,-3.8676,0.0677,0.8138,-1538.82,-390.44,-1748.41
1800,-3.8676,0.0370,0.7195,679.93,172.00,-873.41
1810,-3.8677,-0.0129,0.6055,742.43,93.81,1095.15
1820,-3.8680,-0.1156,0.4944,-1648.19,1515.56,-1483.22
1830,-3.8684,-0.2679,0.3960,1211.18,-703.37,-1561.58
1840,-3.8688,-0.4154,0.3300,1711.18,-1297.42,-1249.27
1850,-3.8690,-0.5411,0.3137,-1163.82,-1750.85,-1843.14
1860,-3.8691,-0.6528,0.3290,-1257.57,170.78,-1405.64
1870,-3.8691,-0.7351,0.3431,445.56,-1876.28,-999.39
1880,-3.8690,-0.8082,0.3501,1914.31,-63.96,-1499.39
1890,-3.8688,-0.8518,0.3677,554.93,826.54,844.42
1900,-3.8685,-0.8684,0.3895,-1023.19,-923.58,110.05
1910,-3.8685,-0.8756,0.3845,851.81,1873.29,-483.64
1920,-3.8687,-0.8605,0.3457,-70.07,1232.60,-389.89
1930,-3.8689,-0.8146,0.3000,1867.43,263.92,1703.80
1940,-3.8693,-0.7509,0.2762,-257.57,-1579.77,-1358.83
1950,-3.8695,-0.6974,0.2716,-101.32,-626.53,1734.86
1960,-3.8698,-0.6719,0.2605,-1257.57,-1220.15,-1093.26
1970,-3.8699,-0.6722,0.2280,-1991.94,1358.03,484.86
1980,-3.8701,-0.6918,0.1859,1961.18,1201.78,1547.30
1990,-3.8702,-0.7343,0.1619,-538.82,-188.90,140.93
2000,-3.8704,-0.7963,0.1687,-1976.32,732.91,1797.18
2010,-3.8704,-0.8629,0.1896,-1913.82,1607.79,1422.18
2020,-3.8704,-0.9043,0.2101,1554.93,279.54,-1374.63
2030,-3.8702,-0.9160,0.2271,258.06,-1095.52,62.87
2040,-3.8704,-0.9064,0.2312,-1241.94,1076.29,-937.07
2050,-3.8705,-0.8989,0.2156,-7.57,1607.54,-1312.07
2060,-3.8706,-0.9009,0.1897,945.56,-392.40,406.62
2070,-3.8708,-0.9070,0.1627,695.56,295.10,1906.62
2080,-3.8711,-0.9161,0.1289,-85.69,841.92,-765.32
2090,-3.8713,-0.9199,0.0923,-1257.57,513.79,-406.01
2100,-3.8716,-0.9213,0.0720,-1741.94,-173.71,-328.00
2110,-3.8717,-0.9062,0.0773,-1913.82,1232.54,1390.75
2120,-3.8718,-0.8577,0.1086,8.06,1904.48,1750.12
2130,-3.8718,-0.7898,0.1683,-1773.19,1920.17,812.68
2140,-3.8718,-0.7307,0.2178,-1085.69,1560.91,687.81
2150,-3.8719,-0.6808,0.2194,-1523.19,-110.84,-1155.88
2160,-3.8721,-0.6123,0.1967,867.43,92.41,-515.20
2170,-3.8722,-0.5382,0.1730,1633.06,1186.28,-937.13
2180,-3.8723,-0.4843,0.1478,-882.57,-1844.85,-1859.07
2190,-3.8724,-0.4523,0.1191,-1976.32,-1063.48,1859.62
2200,-3.8726,-0.4417,0.0913,-1882.57,-735.29,-1468.57
2210,-3.8726,-0.4500,0.0715,-523.19,-297.79,156.37
2220,-3.8727,-0.4708,0.0591,-1585.69,1170.96,-1953.00
2230,-3.8728,-0.4900,0.0483,-257.57,-422.85,-15.56
2240,-3.8728,-0.4877,0.0396,1289.31,-1797.85,-1609.31
2250,-3.8728,-0.4535,0.0419,1586.18,1077.15,1468.81
2260,-3.8728,-0.3993,0.0519,1961.18,1374.08,328.19
2270,-3.8729,-0.3392,0.0536,898.68,-1344.54,1984.44
2280,-3.8730,-0.2820,0.0507,586.18,-1125.67,-953.06
2290,-3.8730,-0.2407,0.0535,-85.69,-1500.61,62.56
2300,-3.8732,-0.2205,0.0574,1195.56,-1141.11,1140.69
2310,-3.8733,-0.2152,0.0522,-210.69,-641.11,-1593.69
2320,-3.8734,-0.2140,0.0337,461.18,-1297.30,-718.69
2330,-3.8735,-0.2017,0.0088,617.43,327.70,-531.19
2340,-3.8735,-0.1682,-0.0090,-1804.44,1140.20,187.50
2350,-3.8737,-0.1201,-0.0143,-1523.19,-1140.99,-1703.19
2360,-3.8737,-0.0706,-0.0144,633.06,-1812.74,-1968.81
2370,-3.8737,-0.0297,-0.0198,-1023.19,-1828.31,-906.31
2380,-3.8737,-0.0089,-0.0334,211.18,1484.31,-234.44
2390,-3.8737,-0.0105,-0.0527,-1132.57,-265.69,-1484.50
2400,-3.8738,-0.0199,-0.0759,-1335.69,1265.56,-125.12
2410,-3.8738,-0.0245,-0.0961,1461.18,-1703.19,1421.69
2420,-3.8738,-0.0239,-0.1001,867.43,-281.31,406.01
2430,-3.8738,-0.0203,-0.0808,945.56,-796.94,1921.63
2440,-3.8737,-0.0144,-0.0500,1414.31,1671.81,1374.82
2450,-3.8735,-0.0100,-0.0316,-1835.69,1609.31,515.50
2460,-3.8735,-0.0106,-0.0383,-1273.19,-31.31,1609.25
2470,-3.8735,-0.0109,-0.0646,-1351.32,-890.69,218.63
2480,-3.8737,-0.0061,-0.0941,-1382.57,-250.06,1296.69
2490,-3.8738,0.0063,-0.1166,-773.19,-31.31,-1750.24
2500,-3.8738,0.0195,-0.1372,820.56,1078.12,327.88
2510,-3.8739,0.0265,-0.1530,-1491.94,-1562.50,-187.81
2520,-3.8738,0.0354,-0.1538,-601.32,421.88,1109.07
2530,-3.8737,0.0531,-0.1344,539.31,312.56,1030.94
2540,-3.8735,0.0802,-0.0989,-1195.07,-1203.06,-140.93
2550,-3.8732,0.1136,-0.0691,-1726.32,-656.13,1124.76
2560,-3.8729,0.1406,-0.0551,-1445.07,-843.57,-1187.68
2570,-3.8727,0.1438,-0.0481,-1991.94,953.37,-968.87
2580,-3.8724,0.1271,-0.0471,-1585.69,1843.99,1531.13
2590,-3.8723,0.1121,-0.0510,273.68,1968.99,-390.75
2600,-3.8721,0.1082,-0.0457,-1648.19,1468.93,-1500.12
2610,-3.8718,0.1146,-0.0325,1851.81,-1843.57,968.63
2620,-3.8717,0.1307,-0.0161,-1320.07,-156.07,-1218.87
2630,-3.8715,0.1442,0.0110,742.43,1937.74,1499.94
2640,-3.8712,0.1440,0.0396,-1538.82,1406.49,1078.12
2650,-3.8710,0.1345,0.0508,-1554.44,1062.74,109.44
2660,-3.8708,0.1189,0.0514,1226.81,-1499.76,-1921.81
2670,-3.8707,0.1001,0.0613,-773.19,-1421.69,-124.94
2680,-3.8705,0.0820,0.0786,820.56,-156.07,1718.81
2690,-3.8704,0.0717,0.0826,-1491.94,-1937.38,-1781.13
2700,-3.8704,0.0790,0.0620,1179.93,-1421.75,-31.13
2710,-3.8704,0.1078,0.0240,-1882.57,-62.38,-781.19
2720,-3.8704,0.1531,-0.0175,1804.93,-921.69,1406.25
2730,-3.8704,0.2008,-0.0413,-398.19,1765.87,390.56
2740,-3.8704,0.2319,-0.0209,1711.18,-1280.88,1874.88
2750,-3.8702,0.2335,0.0444,1695.56,1328.55,-906.31
2760,-3.8699,0.2124,0.1221,1898.68,1687.93,546.94
2770,-3.8695,0.1843,0.1770,-804.44,-374.63,562.68
2780,-3.8693,0.1505,0.1930,-398.19,-1343.44,-562.19
2790,-3.8690,0.1104,0.1711,-726.32,703.37,1969.12
2800,-3.8690,0.0745,0.1272,-1866.94,1906.43,-1030.94
2810,-3.8691,0.0504,0.0864,1539.31,281.37,-46.63
2820,-3.8693,0.0344,0.0671,-1538.82,-937.44,-124.88
2830,-3.8693,0.0173,0.0774,414.31,593.81,1531.37
2840,-3.8693,-0.0040,0.1163,-1773.19,1906.25,-1187.38
2850,-3.8690,-0.0283,0.1710,-507.57,-1093.81,218.93
2860,-3.8688,-0.0530,0.2238,383.06,1906.19,62.81
2870,-3.8687,-0.0679,0.2551,1226.81,656.13,-796.45
2880,-3.8685,-0.0623,0.2480,-679.44,671.69,-765.14
2890,-3.8685,-0.0432,0.2037,39.31,-234.50,-952.70
2900,-3.8687,-0.0327,0.1394,-1523.19,-1906.37,-843.38
2910,-3.8688,-0.0463,0.0806,-179.44,1859.25,-1812.26
2920,-3.8689,-0.0872,0.0507,-1913.82,-1672.00,-703.00
2930,-3.8688,-0.1550,0.0497,851.81,-1500.18,390.69
2940,-3.8687,-0.2428,0.0736,164.31,-1625.31,1906.31
2950,-3.8684,-0.3350,0.1145,929.93,1437.01,-1140.50
2960,-3.8680,-0.4213,0.1443,1133.06,-1328.80,1547.06
2970,-3.8678,-0.4984,0.1472,-1913.82,-1516.48,-296.63
2980,-3.8676,-0.5626,0.1353,211.18,-1141.60,-874.76
2990,-3.8674,-0.6149,0.1213,-7.57,1326.97,-671.63
3000,-3.8673,-0.6552,0.1085,1304.93,-454.35,1093.93
3010,-3.8673,-0.6815,0.1091,148.68,1904.97,1390.81
3020,-3.8673,-0.6995,0.1388,773.68,1983.03,1453.31
3030,-3.8673,-0.7218,0.1947,-1523.19,1779.85,-1656.01
3040,-3.8673,-0.7539,0.2582,-382.57,936.04,-577.76
3050,-3.8673,-0.7937,0.3075,-491.94,1060.97,1516.11
3060,-3.8676,-0.8376,0.3317,-1585.69,-626.59,1828.67
3070,-3.8679,-0.8779,0.3322,789.31,-1532.90,828.74
3080,-3.8684,-0.9098,0.3184,-366.94,-1470.52,1219.36
3090,-3.8689,-0.9313,0.3047,-445.07,763.79,1047.49
3100,-3.8694,-0.9398,0.3066,804.93,-986.21,703.67
3110,-3.8699,-0.9449,0.3268,-288.82,-736.27,938.05
3120,-3.8704,-0.9532,0.3495,-945.07,1841.86,-155.64
3130,-3.8706,-0.9640,0.3538,1992.43,748.11,1172.55
3140,-3.8710,-0.9822,0.3339,617.43,1294.98,891.30
3150,-3.8715,-1.0007,0.3021,-1710.69,-1251.95,1609.99
3160,-3.8719,-0.9980,0.2579,-85.69,-1314.51,1625.55
3170,-3.8724,-0.9581,0.1896,258.06,1029.30,-1233.89
3180,-3.8728,-0.8871,0.1063,1367.43,279.36,1312.87
3190,-3.8732,-0.8041,0.0316,-1538.82,1623.23,1172.06
3200,-3.8735,-0.7241,-0.0187,1086.18,60.91,-531.19
3210,-3.8737,-0.6581,-0.0382,-679.44,1623.54,1171.81
3220,-3.8738,-0.6099,-0.0361,-226.32,-876.34,1624.88
3230,-3.8739,-0.5771,-0.0320,1945.56,-610.60,-234.50
3240,-3.8739,-0.5559,-0.0259,-1866.94,-79.28,-125.12
3250,-3.8738,-0.5509,0.0012,851.81,702.03,-703.19
3260,-3.8735,-0.5742,0.0341,1492.43,170.78,1656.25
3270,-3.8734,-0.6122,0.0343,-1491.94,373.84,-609.31
3280,-3.8733,-0.6284,0.0000,1648.68,405.03,625.06
3290,-3.8734,-0.6019,-0.0432,-429.44,14.34,343.75
3300,-3.8737,-0.5343,-0.0730,-1038.82,-1516.85,1328.00
3310,-3.8739,-0.4474,-0.0846,-382.57,-1329.22,-1140.81
3320,-3.8740,-0.3707,-0.0865,-1257.57,1186.58,1921.69
3330,-3.8741,-0.3164,-0.0945,554.93,936.77,-1531.43
3340,-3.8743,-0.2762,-0.1254,-491.94,-78.80,-297.12
3350,-3.8743,-0.2374,-0.1752,648.68,-31.80,343.44
3360,-3.8744,-0.2015,-0.2189,1617.43,1593.26,46.51
3370,-3.8746,-0.1642,-0.2349,-1788.82,-0.43,-250.49
3380,-3.8746,-0.1014,-0.2223,-1007.57,1952.76,890.14
3390,-3.8748,-0.0146,-0.1993,-976.32,-437.74,-0.49
3400,-3.8746,0.0624,-0.1843,-1866.94,-1500.06,968.32
3410,-3.8745,0.1027,-0.1730,-7.57,406.31,874.63
3420,-3.8743,0.0990,-0.1434,1148.68,1859.56,765.26
3430,-3.8740,0.0599,-0.0959,679.93,1640.81,1624.69
3440,-3.8739,0.0099,-0.0667,-320.07,-281.19,1812.26
3450,-3.8740,-0.0071,-0.0887,1273.68,-531.25,-500.18
3460,-3.8741,0.0408,-0.1509,-898.19,656.19,890.44
3470,-3.8744,0.1343,-0.2125,1226.81,687.56,109.07
3480,-3.8748,0.2349,-0.2539,1195.56,797.12,-922.30
3490,-3.8749,0.3250,-0.2795,-1929.44,-499.57,796.33
3500,-3.8749,0.3857,-0.2950,1601.81,219.36,452.58
3510,-3.8748,0.3988,-0.2921,1383.06,-1764.89,-1469.36
3520,-3.8744,0.3827,-0.2557,-945.07,-1389.89,233.76
3530,-3.8740,0.3674,-0.1821,992.43,-733.64,-1453.67
3540,-3.8734,0.3584,-0.0796,-960.69,688.17,1843.38
3550,-3.8729,0.3660,0.0139,1883.06,1813.17,-547.06
3560,-3.8724,0.3922,0.0612,-1148.19,1781.92,0.00
3570,-3.8722,0.4160,0.0669,-1788.82,-171.14,-1296.81
3580,-3.8719,0.4150,0.0330,1258.06,563.29,-406.13
3590,-3.8717,0.3877,-0.0326,1133.06,219.54,468.81
3600,-3.8717,0.3568,-0.0872,1633.06,-171.14,1234.25
3610,-3.8718,0.3312,-0.0978,1679.93,844.42,-437.68
3620,-3.8718,0.3173,-0.0657,-1601.32,-515.01,-1984.62
3630,-3.8718,0.3231,-0.0198,617.43,-405.64,796.69
3640,-3.8719,0.3483,0.0101,1367.43,1469.36,-312.56
3650,-3.8718,0.3959,0.0229,586.18,1297.55,218.75
3660,-3.8717,0.4608,0.0466,-1320.07,-1061.77,796.88
3670,-3.8715,0.5034,0.0969,-1007.57,1969.60,-1374.94
3680,-3.8710,0.4968,0.1589,445.56,407.23,375.18
3690,-3.8706,0.4586,0.1960,-398.19,344.67,-1937.19
3700,-3.8704,0.4177,0.1814,-1288.82,1094.60,-687.13
3710,-3.8702,0.3845,0.1238,1476.81,-780.46,1203.43
3720,-3.8705,0.3639,0.0480,1226.81,-155.52,-765.44
3730,-3.8707,0.3787,-0.0182,-1413.82,-1858.70,953.19
3740,-3.8710,0.4220,-0.0483,476.81,1672.61,593.69
3750,-3.8711,0.4448,-0.0181,-1976.32,1813.29,-1250.12
3760,-3.8708,0.4156,0.0786,945.56,1688.35,515.56
3770,-3.8705,0.3440,0.1949,1211.18,-1936.71,593.87
3780,-3.8701,0.2717,0.2572,39.31,953.80,-1249.63
3790,-3.8698,0.2429,0.2472,-1210.69,922.36,1578.61
3800,-3.8696,0.2610,0.1982,-898.19,-358.95,-1937.07
3810,-3.8696,0.2914,0.1475,1414.31,1375.49,1375.37
3820,-3.8698,0.2982,0.1185,1304.93,-1124.45,-1218.51
3830,-3.8698,0.2740,0.1163,-1820.07,-827.58,468.93
3840,-3.8699,0.2367,0.1504,-913.82,-1108.89,-77.94
3850,-3.8698,0.2051,0.2255,-1695.07,-749.57,-1937.26
3860,-3.8696,0.1860,0.3219,-1741.94,859.74,-1405.82
3870,-3.8695,0.1766,0.3998,-179.44,1203.43,-624.39
3880,-3.8694,0.1780,0.4215,-1382.57,-827.82,-1374.27
3890,-3.8693,0.1803,0.3995,-1210.69,1953.43,1250.79
3900,-3.8691,0.1464,0.3749,-913.82,-859.07,656.98
3910,-3.8690,0.0594,0.3596,-1257.57,-15.38,141.30
3920,-3.8690,-0.0522,0.3517,-382.57,-1968.69,-1796.20
3930,-3.8690,-0.1622,0.3505,1320.56,1031.13,1688.17
3940,-3.8691,-0.2566,0.3450,-757.57,874.63,-1905.58
3950,-3.8693,-0.3080,0.3206,-835.69,171.33,297.55
3960,-3.8694,-0.3145,0.2874,586.18,1046.26,31.86
3970,-3.8694,-0.3373,0.2704,-241.94,796.20,1875.55
3980,-3.8691,-0.4111,0.2810,836.18,-1375.67,-1812.01
3990,-3.8688,-0.5100,0.3201,-616.94,-16.48,1109.86
4000,-3.8685,-0.6234,0.3795,-1273.19,983.34,1391.24
4010,-3.8684,-0.7428,0.4376,211.18,592.53,141.36
4020,-3.8684,-0.8110,0.4802,929.93,29.79,203.98
4030,-3.8684,-0.8375,0.5046,195.56,1482.79,-842.83
4040,-3.8682,-0.8616,0.5115,804.93,607.73,1188.48
4050,-3.8682,-0.8885,0.5021,1726.81,1482.67,-483.40
4060,-3.8683,-0.9093,0.4738,-1726.32,279.48,1407.23
4070,-3.8687,-0.9142,0.4232,-382.57,654.42,469.67
4080,-3.8691,-0.9037,0.3694,-1007.57,-1814.33,-1452.33
4090,-3.8694,-0.8671,0.3403,336.18,-704.90,422.55
4100,-3.8696,-0.8029,0.3475,1023.68,-423.58,-1811.89
4110,-3.8698,-0.7501,0.3895,1242.43,498.41,-1843.08
4120,-3.8698,-0.7477,0.4576,-7.57,1873.47,422.61
4130,-3.8698,-0.7711,0.5381,304.93,-1407.71,1563.35
4140,-3.8698,-0.7957,0.6058,1304.93,889.10,-733.34
4150,-3.8698,-0.8350,0.6156,-1835.69,1560.91,704.28
4160,-3.8701,-0.8861,0.5433,1133.06,-1189.15,-92.59
4170,-3.8705,-0.8955,0.4220,-1413.82,1560.73,1719.79
4180,-3.8711,-0.8500,0.2992,1383.06,-1970.52,-1249.21
4190,-3.8717,-0.7831,0.2131,-788.82,-1689.21,-1515.08
4200,-3.8722,-0.7435,0.1696,-226.32,-704.71,-937.13
4210,-3.8723,-0.7532,0.1495,836.18,1717.29,344.06
4220,-3.8724,-0.7955,0.1355,-398.19,-845.28,-749.76
4230,-3.8724,-0.8458,0.1172,-1820.07,1357.79,1937.74
4240,-3.8726,-0.8885,0.0970,-257.57,-986.08,-999.82
4250,-3.8727,-0.9041,0.0875,-1726.32,435.73,-781.07
4260,-3.8728,-0.8712,0.0892,289.31,-783.02,-1968.63
4270,-3.8730,-0.8126,0.0780,492.43,-564.21,-531.13
4280,-3.8732,-0.7697,0.0443,-7.57,1998.35,1031.37
4290,-3.8734,-0.7870,0.0082,1492.43,1685.97,-171.81
4300,-3.8734,-0.8738,-0.0038,-726.32,1060.91,1906.25
4310,-3.8733,-0.9540,0.0231,164.31,-470.46,468.69
4320,-3.8733,-0.9561,0.0807,1898.68,-1033.14,-265.62
4330,-3.8732,-0.8839,0.1367,1633.06,-1658.14,1468.87
4340,-3.8732,-0.7777,0.1605,-1132.57,1513.85,1890.87
4350,-3.8732,-0.6556,0.1467,461.18,560.97,359.68
4360,-3.8733,-0.5441,0.0903,86.18,-1204.41,312.74
4370,-3.8735,-0.4805,0.0094,-1632.57,-422.97,-312.38
4380,-3.8735,-0.4702,-0.0518,-1491.94,1217.77,1343.75
4390,-3.8735,-0.5015,-0.0868,-179.44,1389.65,796.75
4400,-3.8735,-0.5347,-0.1102,-179.44,905.21,1171.69
4410,-3.8735,-0.5181,-0.1292,-429.44,1905.15,1968.51
4420,-3.8735,-0.4386,-0.1516,1695.56,-516.66,-562.81
4430,-3.8734,-0.3424,-0.1705,-132.57,608.46,1999.69
4440,-3.8733,-0.2650,-0.1852,179.93,-1813.17,187.13
4450,-3.8734,-0.1960,-0.2183,-1913.82,311.95,-0.37
4460,-3.8734,-0.1279,-0.2643,-1085.69,77.70,1624.57
4470,-3.8735,-0.0648,-0.2880,-366.94,-1812.81,-16.17
4480,-3.8734,-0.0208,-0.2766,-288.82,-843.93,608.76
4490,-3.8734,-0.0192,-0.2515,1351.81,609.31,1796.33
4500,-3.8734,-0.0591,-0.2368,1554.93,-171.94,-1625.55
4510,-3.8734,-0.0962,-0.2290,445.56,1703.00,-1484.86
4520,-3.8734,-0.0831,-0.2164,-304.44,-1297.12,1921.39
4530,-3.8735,-0.0106,-0.2079,1367.43,312.32,-141.05
4540,-3.8737,0.0967,-0.2144,-1351.32,1406.19,-703.55
4550,-3.8738,0.2117,-0.2327,383.06,562.68,718.32
4560,-3.8740,0.3123,-0.2466,-898.19,-1780.88,218.26
4570,-3.8743,0.3931,-0.2477,-23.19,438.05,827.64
4580,-3.8744,0.4456,-0.2506,-1679.44,297.61,-828.61
4590,-3.8743,0.4301,-0.2716,1039.31,-77.27,-859.92
4600,-3.8740,0.3384,-0.2919,-945.07,1235.17,-844.30
4610,-3.8737,0.2373,-0.2618,-679.44,-1358.76,452.51
4620,-3.8735,0.2250,-0.1685,-1616.94,-1515.20,-813.05
4630,-3.8734,0.3241,-0.0728,804.93,-1562.07,1734.01
4640,-3.8734,0.4664,-0.0492,1492.43,-1311.89,437.32
4650,-3.8735,0.5669,-0.0981,-288.82,1703.98,-1547.00
4660,-3.8735,0.5930,-0.1582,570.56,-561.40,-797.12
4670,-3.8733,0.5475,-0.1758,-85.69,-248.90,796.51
4680,-3.8730,0.4325,-0.1328,-1913.82,1501.04,-1140.99
4690,-3.8727,0.3077,-0.0428,-632.57,-999.21,1905.94
4700,-3.8723,0.2363,0.0613,-601.32,-1483.83,734.25
4710,-3.8721,0.2258,0.1488,-1741.94,-155.82,-265.56
4720,-3.8717,0.2544,0.2032,914.31,-952.70,-1640.38
4730,-3.8715,0.2961,0.2186,570.56,-1983.89,-905.88
4740,-3.8712,0.3495,0.2067,1914.31,-15.08,906.62
4750,-3.8711,0.4232,0.1932,742.43,-1546.20,47.24
4760,-3.8711,0.4979,0.2003,-1820.07,735.17,1937.87
4770,-3.8711,0.5385,0.2208,-257.57,1641.54,-859.01
4780,-3.8710,0.5220,0.2360,929.93,266.66,469.18
4790,-3.8710,0.4468,0.2469,-1179.44,-1795.90,-1280.82
4800,-3.8708,0.3519,0.2659,1195.56,-389.77,1172.30
4810,-3.8707,0.3026,0.3004,1054.93,-1968.08,656.74
4820,-3.8706,0.3268,0.3423,-1257.57,-1546.33,-1311.95
4830,-3.8704,0.4041,0.3806,1836.18,-186.89,-1046.26
4840,-3.8700,0.4884,0.4196,-273.19,719.48,360.11
4850,-3.8698,0.5068,0.4733,-1476.32,1704.04,-1546.08
4860,-3.8694,0.4142,0.5304,883.06,579.10,141.54
4870,-3.8693,0.2462,0.5663,1023.68,-108.58,-311.52
4880,-3.8691,0.0797,0.5809,-476.32,484.80,-30.15
4890,-3.8690,-0.0310,0.5702,-1788.82,-1640.50,1094.85
4900,-3.8690,-0.0796,0.5385,39.31,999.94,-1717.65
4910,-3.8689,-0.0972,0.5157,1820.56,937.32,-1186.46
4920,-3.8687,-0.1245,0.5179,-429.44,-1968.99,-1842.77
4930,-3.8684,-0.1865,0.5444,70.56,-1687.74,-1920.90
4940,-3.8682,-0.2820,0.5840,133.06,1702.76,438.54
4950,-3.8680,-0.3691,0.6036,-85.69,-1234.99,47.97
4960,-3.8680,-0.4221,0.5850,758.06,1280.52,1876.16
4970,-3.8680,-0.4666,0.5448,1976.81,-1110.23,-858.28
4980,-3.8679,-0.5101,0.5085,289.31,1749.08,813.54
4990,-3.8678,-0.5770,0.4918,-1288.82,1108.34,1016.60
5000,-3.8677,-0.6774,0.4991,-1851.32,-1032.41,-295.96
5010,-3.8674,-0.7850,0.5280,1304.93,-95.09,1813.42
5020,-3.8673,-0.8639,0.5707,-476.32,-407.84,375.98
5030,-3.8674,-0.8948,0.6157,1429.93,1060.79,1782.35
5040,-3.8677,-0.8898,0.6566,1476.81,-1173.65,-780.09
5050,-3.8679,-0.8542,0.6945,-1882.57,60.73,-404.97
5060,-3.8680,-0.8046,0.7209,-1335.69,904.54,485.72
5070,-3.8683,-0.7574,0.7271,1023.68,295.29,1454.53
5080,-3.8685,-0.7288,0.7268,-945.07,1076.60,1610.78
5090,-3.8688,-0.7166,0.7418,-1273.19,1045.41,1188.90
5100,-3.8691,-0.7328,0.7476,289.31,-1032.65,-311.10
5110,-3.8695,-0.7720,0.7056,-1788.82,-298.34,-248.60
5120,-3.8699,-0.8007,0.6136,1195.56,-1673.40,1063.84
5130,-3.8704,-0.8091,0.4971,1523.68,-1439.09,610.53
5140,-3.8710,-0.7946,0.3873,445.56,-360.96,-280.33
5150,-3.8715,-0.7650,0.2953,-1695.07,1592.16,-233.64
5160,-3.8718,-0.7339,0.2222,-1913.82,1810.97,-1374.45
5170,-3.8721,-0.7108,0.1755,-1929.44,451.66,1031.68
5180,-3.8723,-0.6964,0.1664,1023.68,-1517.03,-687.19
5190,-3.8723,-0.6873,0.1870,-1132.57,1311.10,640.93
5200,-3.8724,-0.6915,0.2072,39.31,-48.22,-1062.19
5210,-3.8724,-0.7130,0.2047,-507.57,-1470.15,1000.37
5220,-3.8726,-0.7443,0.1689,742.43,-1782.65,1437.87
5230,-3.8728,-0.7688,0.0973,742.43,1639.16,-499.69
5240,-3.8729,-0.7728,0.0122,1601.81,467.22,609.56
5250,-3.8732,-0.7528,-0.0493,1086.18,1576.60,-1109.38
5260,-3.8733,-0.7191,-0.0774,-351.32,1701.60,-297.00
5270,-3.8733,-0.6914,-0.0812,-38.82,-1892.09,-1156.43
5280,-3.8733,-0.6605,-0.0640,-491.94,1623.60,-625.18
5290,-3.8732,-0.6072,-0.0297,-538.82,-173.22,827.94
5300,-3.8732,-0.5348,0.0181,-1710.69,217.53,-296.94
5310,-3.8730,-0.4657,0.0625,-445.07,-1672.97,-15.62
5320,-3.8729,-0.4169,0.0676,398.68,14.71,-937.38
5330,-3.8729,-0.3771,0.0208,-1351.32,671.02,1437.62
5340,-3.8732,-0.3313,-0.0618,-257.57,-1328.92,-1968.75
5350,-3.8735,-0.2708,-0.1564,1601.81,108.70,-1375.12
5360,-3.8739,-0.2002,-0.2400,1351.81,-0.55,-734.74
5370,-3.8741,-0.1482,-0.3005,-1616.94,1296.45,-187.99
5380,-3.8741,-0.1409,-0.3318,1039.31,1546.57,1171.26
5390,-3.8741,-0.1626,-0.3134,1976.81,1546.57,1983.70
5400,-3.8740,-0.1678,-0.2516,-804.44,-94.12,108.70
5410,-3.8740,-0.1293,-0.1903,-1476.32,-187.87,-1734.92
5420,-3.8739,-0.0519,-0.1581,-538.82,-344.06,187.07
5430,-3.8739,0.0361,-0.1602,1367.43,-218.87,343.38
5440,-3.8740,0.1161,-0.1847,633.06,-499.94,-1875.37
5450,-3.8741,0.1876,-0.2247,-1132.57,359.56,-1578.49
5460,-3.8743,0.2506,-0.2775,23.68,-765.26,1624.51
5470,-3.8744,0.3019,-0.3253,86.18,484.86,546.33
5480,-3.8746,0.3417,-0.3472,-1351.32,-1640.08,-219.42
5490,-3.8746,0.3796,-0.3362,-257.57,-436.89,874.27
5500,-3.8746,0.4252,-0.3010,601.81,969.48,-1297.55
5510,-3.8744,0.4635,-0.2527,-1570.07,1469.54,983.76
5520,-3.8741,0.4813,-0.2014,-663.82,-342.90,358.83
5530,-3.8740,0.4987,-0.1565,1617.43,-1780.33,-781.68
5540,-3.8738,0.5233,-0.1085,-163.82,-30.33,-1140.99
5550,-3.8734,0.5460,-0.0369,-1007.57,-1889.65,687.26
5560,-3.8732,0.5610,0.0364,1898.68,-717.71,-1234.50
5570,-3.8729,0.5469,0.0878,-179.44,657.29,-1124.94
5580,-3.8727,0.5242,0.1361,-1991.94,-764.59,1718.87
5590,-3.8724,0.5399,0.1853,-898.19,1422.85,937.74
5600,-3.8722,0.5956,0.2184,1117.43,-280.21,390.93
5610,-3.8721,0.6644,0.2133,242.43,-45.72,1172.24
5620,-3.8721,0.7346,0.1653,1054.93,-701.84,-1812.13
5630,-3.8721,0.7715,0.1145,-1960.69,1157.65,-1749.69
5640,-3.8721,0.7273,0.1021,-1241.94,-1342.29,-109.19
5650,-3.8719,0.6375,0.1410,1101.81,1063.90,-359.19
5660,-3.8717,0.5591,0.2234,1601.81,-1951.90,1375.24
5670,-3.8715,0.5273,0.3158,-429.44,594.79,406.68
5680,-3.8713,0.5477,0.3682,-491.94,422.85,-499.39
5690,-3.8711,0.5977,0.3567,-1882.57,-873.96,703.80
5700,-3.8711,0.6488,0.3088,508.06,1657.41,-1874.33
5710,-3.8712,0.6797,0.2609,-945.07,-467.53,-780.70
5720,-3.8713,0.6866,0.2351,-991.94,1391.91,1734.86
5730,-3.8715,0.6718,0.2473,-101.32,-1904.97,891.05
5740,-3.8716,0.6327,0.3059,1992.43,-342.47,-608.95
5750,-3.8715,0.5690,0.4041,992.43,-842.53,-1296.33
5760,-3.8712,0.4889,0.5287,836.18,-280.15,-593.02
5770,-3.8707,0.4125,0.6644,-1413.82,-327.21,407.23
5780,-3.8704,0.3668,0.7838,804.93,1047.67,-1514.34
5790,-3.8700,0.3562,0.8599,-1038.82,328.80,1860.90
5800,-3.8698,0.3760,0.8800,1601.81,-1936.83,298.52
5810,-3.8698,0.4175,0.8530,133.06,641.36,1626.71
5820,-3.8699,0.4521,0.8087,1445.56,1188.29,-1357.73
5830,-3.8700,0.4403,0.7714,1883.06,-483.52,1485.90
5840,-3.8701,0.3528,0.7461,367.43,-1264.77,1798.34
5850,-3.8701,0.1930,0.7382,1164.31,-499.33,-1201.72
5860,-3.8699,-0.0132,0.7526,711.18,-1515.26,-1639.22
5870,-3.8694,-0.2294,0.7927,-1679.44,343.69,235.84
5880,-3.8689,-0.4117,0.8555,-1351.32,1483.89,1876.53
5890,-3.8684,-0.5123,0.9186,-695.07,1514.77,-170.23
5900,-3.8679,-0.5599,0.9473,-1570.07,1592.71,-935.73
5910,-3.8676,-0.5864,0.9419,336.18,1264.53,-1701.29
5920,-3.8673,-0.5828,0.9221,945.56,576.97,-1795.04
5930,-3.8671,-0.6047,0.8923,1414.31,-1954.28,361.15
5940,-3.8669,-0.7085,0.8613,-1398.19,-1766.85,892.33
5950,-3.8669,-0.8394,0.8325,1320.56,-1735.78,-1998.35
5960,-3.8671,-0.9446,0.7969,570.56,-1423.52,1907.84
5970,-3.8673,-1.0175,0.7544,-898.19,-1986.27,126.53
5980,-3.8678,-1.0187,0.7147,1773.68,576.11,-1982.91
5990,-3.8683,-0.9578,0.6776,1617.43,-502.01,1829.47
6000,-3.8688,-0.8687,0.6434,1414.31,-1251.89,-1592.47
6010,-3.8691,-0.7784,0.6260,820.56,-1626.71,-186.28
6020,-3.8693,-0.7061,0.6373,367.43,139.10,-311.28
6030,-3.8693,-0.6760,0.6509,1633.06,1592.35,1923.10
6040,-3.8694,-0.6761,0.6351,1476.81,-673.22,1173.10
6050,-3.8696,-0.6593,0.5918,1461.18,1311.16,48.10
6060,-3.8701,-0.6307,0.5323,-382.57,-235.72,-498.90
6070,-3.8705,-0.6156,0.4689,-726.32,154.97,1204.16
6080,-3.8710,-0.6084,0.4001,1211.18,30.03,-1311.58
6090,-3.8713,-0.5989,0.3170,-1866.94,-766.85,938.23
6100,-3.8717,-0.5968,0.2362,-648.19,592.53,1156.86
6110,-3.8721,-0.6086,0.1757,-382.57,-1751.22,-1202.70
6120,-3.8723,-0.6328,0.1292,-1898.19,-1501.22,1484.68
6130,-3.8726,-0.6545,0.1000,-991.94,545.59,-1124.76
6140,-3.8726,-0.6660,0.1011,226.81,811.22,484.56
6150,-3.8726,-0.6714,0.1224,-1241.94,951.78,437.68
6160,-3.8727,-0.6775,0.1449,-1929.44,-313.84,-202.94
6170,-3.8727,-0.6849,0.1437,1289.31,-1438.84,1312.74
6180,-3.8729,-0.6805,0.0975,336.18,-1595.09,-327.88
6190,-3.8732,-0.6541,0.0255,898.68,498.66,-1359.19
6200,-3.8734,-0.6055,-0.0332,289.31,-720.03,312.50
6210,-3.8738,-0.5518,-0.0730,-1491.94,-235.60,-703.25
6220,-3.8739,-0.5046,-0.1024,1383.06,-1329.22,281.07
6230,-3.8741,-0.4611,-0.1099,-585.69,-1094.79,-265.87
6240,-3.8741,-0.4259,-0.0814,992.43,1952.21,-937.74
6250,-3.8740,-0.3986,-0.0293,1492.43,1592.90,1390.44
6260,-3.8739,-0.3539,0.0022,992.43,264.83,93.69
6270,-3.8739,-0.2896,-0.0112,-1288.82,296.14,1343.75
6280,-3.8740,-0.2462,-0.0815,-1054.44,-1422.49,-1765.69
6290,-3.8741,-0.2369,-0.1879,492.43,1577.64,1562.32
6300,-3.8743,-0.2501,-0.2791,1679.93,-31.74,1515.20
6310,-3.8745,-0.2578,-0.3346,-7.57,296.33,-406.80
6320,-3.8746,-0.2274,-0.3599,-991.94,1186.95,1186.83
6330,-3.8748,-0.1693,-0.3671,-1101.32,1952.64,1264.89
6340,-3.8748,-0.1154,-0.3522,-1663.82,1030.88,-1906.98
6350,-3.8746,-0.0886,-0.3068,1242.43,-1062.74,-1141.36
6360,-3.8744,-0.0857,-0.2362,664.31,749.82,1655.64
6370,-3.8741,-0.0829,-0.1522,1039.31,1781.07,1749.51
6380,-3.8739,-0.0627,-0.0704,1398.68,531.07,-1844.06
6390,-3.8737,-0.0148,-0.0039,-23.19,-1000.18,1406.07
6400,-3.8735,0.0687,0.0442,-1882.57,-484.44,1906.19
6410,-3.8735,0.1757,0.0594,804.93,1656.37,-1015.56
6420,-3.8735,0.2936,0.0380,-1507.57,-390.32,-1843.69
6430,-3.8735,0.4189,0.0129,1586.18,859.92,1328.19
6440,-3.8735,0.5363,0.0133,1633.06,1657.04,812.50
6450,-3.8735,0.6320,0.0356,648.68,1704.16,437.50
6460,-3.8735,0.6940,0.0765,898.68,563.72,1468.81
6470,-3.8734,0.7502,0.1385,836.18,1798.22,1187.62
6480,-3.8732,0.8204,0.2063,39.31,1735.84,468.99
6490,-3.8729,0.8693,0.2769,1023.68,-1592.16,-515.26
6500,-3.8724,0.8901,0.3564,-726.32,-560.85,1000.49
6510,-3.8721,0.9189,0.4105,1945.56,1626.71,1735.05
6520,-3.8718,0.9471,0.4026,1633.06,548.65,1907.04
6530,-3.8717,0.9611,0.3501,1242.43,-466.92,360.11
6540,-3.8718,0.9916,0.2927,-976.32,814.33,-1218.08
6550,-3.8718,0.9938,0.2728,-1070.07,1470.64,1797.42
6560,-3.8717,0.9384,0.3162,-788.82,-1076.23,1000.49
6570,-3.8716,0.8418,0.3787,117.43,470.58,-421.26
6580,-3.8713,0.7345,0.4263,-241.94,470.34,-421.14
6590,-3.8711,0.6660,0.4696,-1976.32,-1436.10,-530.46
6600,-3.8708,0.6309,0.4980,1258.06,110.66,1407.17
6610,-3.8707,0.6345,0.5228,758.06,-248.78,-1311.58
6620,-3.8705,0.6877,0.5720,1226.81,-1076.90,-1467.77
6630,-3.8701,0.7642,0.6235,39.31,1220.09,141.72
6640,-3.8700,0.8025,0.6434,1820.56,-186.04,-248.84
6650,-3.8699,0.7499,0.6388,-1273.19,-1639.10,-1155.03
6660,-3.8699,0.6200,0.6243,-7.57,1767.03,1126.22
6670,-3.8700,0.4722,0.5920,-632.57,-92.59,454.28
6680,-3.8702,0.3896,0.5543,445.56,-217.83,-77.03
6690,-3.8702,0.3899,0.5509,1883.06,-1046.14,-889.59
6700,-3.8700,0.4116,0.5950,1914.31,-1483.64,204.16
6710,-3.8698,0.4081,0.6711,695.56,157.04,-1045.72
6720,-3.8693,0.3569,0.7504,242.43,1907.04,673.16
6730,-3.8689,0.2748,0.8059,1695.56,47.55,642.09
6740,-3.8688,0.2107,0.8193,-820.07,-843.26,407.78
6750,-3.8690,0.1858,0.7758,-1023.19,875.37,-1404.66
6760,-3.8694,0.1775,0.6788,-210.69,-702.82,-1123.54
6770,-3.8698,0.1530,0.5521,-1273.19,-1109.07,1079.41
6780,-3.8701,0.0916,0.4425,-413.82,-1327.88,-483.34
6790,-3.8701,-0.0319,0.3989,-273.19,640.75,-733.52
6800,-3.8698,-0.2327,0.4565,-70.07,-922.00,1735.11
6810,-3.8691,-0.4927,0.5918,-1773.19,-1547.36,-1967.90
6820,-3.8683,-0.7305,0.7448,945.56,-235.35,532.35
6830,-3.8676,-0.8894,0.9010,-1491.94,-657.71,1970.15
6840,-3.8672,-0.9772,1.0260,-1835.69,-658.02,-138.92
6850,-3.8672,-0.9670,1.0294,-1070.07,-658.20,720.70
6860,-3.8677,-0.8932,0.8920,226.81,-220.64,-1091.80
6870,-3.8682,-0.8198,0.7186,1679.93,-1814.27,-1560.79
6880,-3.8687,-0.7343,0.6067,-929.44,-1.65,1704.47
6890,-3.8691,-0.6763,0.5680,-1976.32,1670.41,-842.59
6900,-3.8694,-0.6683,0.5781,1445.56,717.41,626.10
6910,-3.8696,-0.6730,0.6067,-1538.82,-1985.72,907.35
6920,-3.8699,-0.7400,0.6068,1867.43,1670.53,-1233.22
6930,-3.8700,-0.8680,0.5576,1289.31,1686.04,-1420.72
6940,-3.8701,-0.9835,0.4960,898.68,-611.08,-608.34
6950,-3.8702,-1.0629,0.4521,-1882.57,-501.95,-1264.71
6960,-3.8705,-1.1299,0.4160,-38.82,1888.49,1110.23
6970,-3.8710,-1.1887,0.3749,-616.94,1263.37,-1046.08
6980,-3.8713,-1.2097,0.3385,-148.19,-2.38,1438.17
6990,-3.8716,-1.1729,0.3182,1164.31,-658.63,94.36
7000,-3.8718,-1.0852,0.2970,1883.06,747.68,1828.74
7010,-3.8721,-0.9816,0.2399,1101.81,-1970.89,-1780.70
7020,-3.8724,-0.8970,0.1447,-1632.57,-1283.20,-15.20
7030,-3.8727,-0.8416,0.0558,1195.56,-1470.52,922.12
7040,-3.8730,-0.7952,-0.0017,289.31,-845.40,-1171.81
7050,-3.8733,-0.7655,-0.0377,-1773.19,-204.71,-671.94
7060,-3.8734,-0.7533,-0.0509,-1976.32,-814.03,-1187.62
7070,-3.8734,-0.7400,-0.0376,-413.82,1498.47,124.88
7080,-3.8735,-0.7021,0.0004,1289.31,-798.34,-1484.50
7090,-3.8735,-0.6371,0.0557,-1866.94,61.10,-1046.88
7100,-3.8734,-0.5647,0.1062,-1538.82,-860.66,1921.94
7110,-3.8733,-0.4919,0.1284,-273.19,1608.22,1875.18
7120,-3.8733,-0.4222,0.1158,1039.31,452.15,-93.51
7130,-3.8733,-0.3459,0.0735,1961.18,-1157.10,1797.06
7140,-3.8735,-0.2584,0.0110,-273.19,1421.14,-828.00
7150,-3.8738,-0.1711,-0.0541,-1070.07,1421.33,-1734.38
7160,-3.8740,-0.0925,-0.1023,-1898.19,1093.38,-1422.00
7170,-3.8741,-0.0327,-0.1342,164.31,-1078.31,1656.01
7180,-3.8743,0.0021,-0.1538,-179.44,-1156.37,-578.43
7190,-3.8743,0.0183,-0.1565,273.68,312.50,-1250.31
7200,-3.8743,0.0236,-0.1465,-1648.19,-31.25,-687.87
7210,-3.8741,0.0231,-0.1343,-976.32,1250.00,609.07
7220,-3.8741,0.0264,-0.1276,-1038.82,-1187.50,749.69
7230,-3.8743,0.0519,-0.1339,-616.94,-328.12,-1422.18
7240,-3.8744,0.1124,-0.1635,-1351.32,-1140.56,-1515.93
7250,-3.8745,0.1943,-0.2139,-1601.32,-921.69,1140.26
7260,-3.8748,0.2766,-0.2684,883.06,625.37,-797.30
7270,-3.8749,0.3574,-0.3158,-585.69,1641.11,1546.33
7280,-3.8750,0.4294,-0.3417,1758.06,-421.20,1999.33
7290,-3.8750,0.4747,-0.3342,-1023.19,266.42,-688.17
7300,-3.8748,0.4818,-0.2892,773.68,1219.67,-1766.30
7310,-3.8744,0.4728,-0.2002,1679.93,-1014.71,1218.14
7320,-3.8740,0.4857,-0.0812,523.68,-1624.08,-1437.93
7330,-3.8737,0.5132,0.0316,-1820.07,1610.29,-593.93
7340,-3.8733,0.5552,0.1141,1695.56,47.85,1031.31
7350,-3.8732,0.6479,0.1516,-929.44,-1389.59,-749.82
7360,-3.8730,0.7354,0.1464,-1054.44,-592.53,-577.88
7370,-3.8729,0.7351,0.1345,-1866.94,-1264.22,1984.62
7380,-3.8729,0.6991,0.1331,-1898.19,1220.15,-781.01
7390,-3.8728,0.6704,0.1549,1492.43,1032.59,-702.88
7400,-3.8724,0.6317,0.2157,1820.56,-170.59,468.99
7410,-3.8721,0.6136,0.3010,867.43,-389.40,1375.37
7420,-3.8717,0.6293,0.3761,-1445.07,-1467.59,-874.45
7430,-3.8713,0.6667,0.4036,554.93,141.85,1781.98
7440,-3.8711,0.7317,0.3867,1351.81,-342.47,703.86
7450,-3.8710,0.7886,0.3550,1664.31,1501.40,1235.11
7460,-3.8708,0.7820,0.3265,945.56,1439.03,313.17
7470,-3.8708,0.7006,0.3251,101.81,1798.40,-936.89
7480,-3.8707,0.5884,0.3654,1679.93,1610.72,-1936.89
7490,-3.8706,0.5021,0.4252,-679.44,-1233.28,891.30
7500,-3.8706,0.4967,0.4666,273.68,-1577.15,-1124.21
7510,-3.8706,0.5928,0.4691,-413.82,-280.33,-358.52
7520,-3.8705,0.7432,0.4636,-116.94,47.97,766.54
7530,-3.8704,0.8606,0.4894,-866.94,-654.85,735.23
7540,-3.8701,0.8723,0.5532,-1835.69,-1357.73,1110.29
7550,-3.8698,0.7526,0.6431,-335.69,-1185.85,-1702.09
7560,-3.8693,0.5332,0.7301,336.18,-1686.04,1719.97
7570,-3.8689,0.3099,0.7843,258.06,1454.16,-1404.85
7580,-3.8687,0.1719,0.7860,-320.07,391.17,1329.65
7590,-3.8687,0.1454,0.7339,-1991.94,609.68,-982.85
7600,-3.8687,0.1971,0.6586,-1382.57,1937.74,-1170.47
7610,-3.8687,0.2539,0.6040,1242.43,297.24,-983.09
7620,-3.8685,0.2405,0.5931,508.06,1312.99,1907.41
7630,-3.8683,0.1239,0.6167,-1210.69,-77.70,407.35
7640,-3.8680,-0.0784,0.6373,-132.57,-1062.32,1516.78
7650,-3.8678,-0.3176,0.6404,1976.81,1593.57,-1030.03
7660,-3.8676,-0.5259,0.6403,-648.19,1983.70,-1936.28
7670,-3.8674,-0.6653,0.6387,695.56,1967.71,1376.22
7680,-3.8674,-0.7542,0.6344,-1148.19,1764.28,-1201.90
7690,-3.8673,-0.7979,0.6274,-523.19,1217.22,1157.47
7700,-3.8672,-0.7979,0.6178,1883.06,326.54,63.72
7710,-3.8673,-0.8168,0.6112,1883.06,-907.84,-76.97
7720,-3.8674,-0.8630,0.6102,-538.82,-1751.65,1719.91
7730,-3.8678,-0.8927,0.6091,1539.31,-1876.71,-1795.72
7740,-3.8682,-0.9290,0.5995,1742.43,1982.60,126.16
7750,-3.8687,-0.9464,0.5756,1101.81,748.17,860.53
7760,-3.8691,-0.9302,0.5436,-1132.57,1685.61,1157.35
7770,-3.8696,-0.8766,0.5107,945.56,1591.92,1813.54
7780,-3.8701,-0.7892,0.4659,-195.07,1388.85,1391.60
7790,-3.8706,-0.7219,0.3997,-1007.57,-345.34,1078.98
7800,-3.8710,-0.6821,0.3260,-398.19,-829.59,969.48
7810,-3.8712,-0.6548,0.2742,695.56,1748.66,-1983.76
7820,-3.8713,-0.6290,0.2576,195.56,-891.91,1953.61
7830,-3.8715,-0.6100,0.2665,-507.57,983.09,-1593.26
7840,-3.8716,-0.5946,0.2792,1929.93,-1876.22,-1812.01
7850,-3.8717,-0.5822,0.2782,-101.32,-251.22,1359.86
7860,-3.8719,-0.5756,0.2531,1492.43,-376.16,-62.01
7870,-3.8721,-0.5844,0.2017,-1663.82,405.09,984.86
7880,-3.8723,-0.6095,0.1340,1211.18,1826.97,1781.62
7890,-3.8724,-0.6138,0.0699,1992.43,1170.65,781.49
7900,-3.8727,-0.5752,0.0255,1445.56,967.53,-203.00
7910,-3.8728,-0.5168,-0.0081,-1616.94,-719.91,609.38
7920,-3.8730,-0.4738,-0.0477,1851.81,-1016.66,1078.06
7930,-3.8733,-0.4579,-0.0859,-632.57,1905.27,-875.12
7940,-3.8734,-0.4523,-0.1044,1398.68,1014.71,-453.31
7950,-3.8734,-0.4299,-0.1003,-1882.57,-1344.67,1515.38
7960,-3.8734,-0.3832,-0.0758,976.81,-828.98,202.88
7970,-3.8734,-0.3273,-0.0364,-1038.82,-1688.29,281.07
7980,-3.8734,-0.2954,-0.0012,-1882.57,-641.30,-1781.37
7990,-3.8734,-0.3069,0.0043,-1804.44,-141.24,-390.69
8000,-3.8734,-0.3402,-0.0325,726.81,561.89,1609.38
8010,-3.8735,-0.3513,-0.0989,461.18,-141.30,156.13
8020,-3.8738,-0.3087,-0.1619,-960.69,-641.36,577.88
8030,-3.8740,-0.2209,-0.2054,492.43,-703.74,671.51
8040,-3.8743,-0.1157,-0.2354,-273.19,1718.26,-1766.05
8050,-3.8744,-0.0151,-0.2448,1195.56,1890.38,-1969.24
8060,-3.8744,0.0812,-0.2300,-1929.44,687.44,93.26
8070,-3.8744,0.1738,-0.2035,-1601.32,-1437.38,218.26
8080,-3.8744,0.2460,-0.1826,-1741.94,1953.43,-1281.68
8090,-3.8743,0.2809,-0.1759,-507.57,625.43,-469.12
8100,-3.8740,0.2760,-0.1787,-38.82,1484.86,1218.38
8110,-3.8739,0.2422,-0.1973,-663.82,1125.49,140.26
8120,-3.8740,0.2054,-0.2397,-991.94,-1249.57,1218.32
8130,-3.8743,0.1998,-0.2915,-1695.07,1312.87,1796.39
8140,-3.8745,0.2399,-0.3334,1586.18,-1312.13,-1750.61
8150,-3.8746,0.3068,-0.3513,-1288.82,1328.55,-1250.67
8160,-3.8745,0.3726,-0.3232,-726.32,-968.20,1874.27
8170,-3.8741,0.4218,-0.2174,-304.44,-1374.33,1280.58
8180,-3.8735,0.4579,-0.0408,1992.43,172.67,483.95
8190,-3.8729,0.5002,0.1331,-1382.57,-1217.90,-1953.25
8200,-3.8724,0.5637,0.2382,39.31,1032.23,-156.01
8210,-3.8721,0.6586,0.2605,164.31,-1514.53,-1233.95
8220,-3.8719,0.7651,0.2109,304.93,1345.03,1984.86
8230,-3.8721,0.8392,0.1265,1945.56,-998.54,-405.88
8240,-3.8722,0.8645,0.0581,-570.07,189.09,-562.26
8250,-3.8722,0.8535,0.0347,-1335.69,-560.85,1984.44
8260,-3.8721,0.8217,0.0610,1258.06,439.15,31.31
8270,-3.8719,0.7930,0.1268,1179.93,-185.91,328.19
8280,-3.8717,0.7963,0.2180,1508.06,235.90,0.24
8290,-3.8713,0.8370,0.3239,1929.93,-92.22,281.62
8300,-3.8710,0.8759,0.4189,-851.32,1454.71,-155.64
8310,-3.8705,0.8805,0.4764,117.43,1626.71,-1858.58
8320,-3.8702,0.8594,0.4824,711.18,986.08,-1420.96
8330,-3.8701,0.8320,0.4431,-1991.94,1751.65,672.79
8340,-3.8702,0.8082,0.3926,-1491.94,720.34,-624.15
8350,-3.8702,0.7729,0.3618,-538.82,-1748.47,1203.86
8360,-3.8702,0.7118,0.3668,-1054.44,-1686.04,453.80
8370,-3.8702,0.6318,0.4150,-882.57,-1045.53,-1108.70
8380,-3.8701,0.5621,0.4834,883.06,1126.22,-202.33
8390,-3.8699,0.5265,0.5382,-38.82,1876.04,1750.92
8400,-3.8698,0.5275,0.5736,-601.32,891.60,-1077.09
8410,-3.8696,0.5532,0.5936,-476.32,1422.85,1797.97
8420,-3.8696,0.5735,0.5917,-1179.44,-14.59,-1967.65
8430,-3.8696,0.5479,0.5713,1414.31,-264.53,704.22
8440,-3.8696,0.4514,0.5588,-1866.94,1126.04,204.22
8450,-3.8696,0.2981,0.5729,1789.31,-467.90,1438.54
8460,-3.8695,0.1321,0.6163,-1835.69,1328.67,16.72
8470,-3.8695,-0.0178,0.6703,914.31,-1109.13,-217.59
8480,-3.8693,-0.1272,0.7021,1726.81,1812.44,720.03
8490,-3.8691,-0.1757,0.6926,-273.19,1890.32,-1733.03
8500,-3.8689,-0.1838,0.6572,1523.68,671.51,782.59
8510,-3.8687,-0.2133,0.6427,476.81,140.26,1891.91
8520,-3.8683,-0.3331,0.6693,711.18,-1719.18,1860.60
8530,-3.8679,-0.5247,0.7180,1367.43,1686.83,-858.09
8540,-3.8676,-0.7163,0.7578,851.81,-79.16,-1467.41
8550,-3.8673,-0.8899,0.7781,320.56,1014.22,-1811.04
8560,-3.8672,-1.0229,0.7877,-1898.19,-392.40,-1279.79
8570,-3.8671,-1.1295,0.7903,1070.56,841.74,1173.40
8580,-3.8671,-1.2146,0.7922,-570.07,1169.62,17.15
8590,-3.8674,-1.2474,0.7863,539.31,1419.49,-76.60
8600,-3.8678,-1.2250,0.7457,336.18,653.81,1204.65
8610,-3.8683,-1.1519,0.6775,-788.82,-533.69,157.65
8620,-3.8688,-1.0632,0.6051,570.56,-1267.88,407.53
8630,-3.8693,-0.9790,0.5354,-85.69,1466.61,-1280.09
8640,-3.8696,-0.8986,0.4709,-1304.44,544.92,-1920.84
8650,-3.8700,-0.8214,0.4120,992.43,295.10,563.42
8660,-3.8705,-0.7568,0.3710,-1132.57,748.35,-1186.71
8670,-3.8708,-0.7073,0.3560,-866.94,-501.53,-858.70
8680,-3.8711,-0.6700,0.3523,1476.81,1576.72,-1702.45
8690,-3.8713,-0.6448,0.3369,-1757.57,1108.03,-1155.58
8700,-3.8716,-0.6136,0.2965,1476.81,-860.66,-1421.26
8710,-3.8718,-0.5718,0.2362,1461.18,1967.53,984.92
8720,-3.8722,-0.5214,0.1737,-1179.44,-1751.16,-983.95
8730,-3.8724,-0.4680,0.1215,1273.68,-1751.04,1672.18
8740,-3.8727,-0.4198,0.0745,101.81,-438.42,1422.06
8750,-3.8729,-0.3905,0.0251,-1726.32,1546.02,-1749.88
8760,-3.8732,-0.3843,-0.0201,-1976.32,-766.42,-109.38
8770,-3.8733,-0.3873,-0.0522,-1179.44,1436.71,1874.94
8780,-3.8734,-0.3865,-0.0706,-1570.07,1327.33,249.88
8790,-3.8737,-0.3766,-0.0825,-1460.69,-1016.42,-515.81
8800,-3.8738,-0.3665,-0.0989,-195.07,1452.33,-750.18
8810,-3.8739,-0.3667,-0.1183,1101.81,-641.36,-765.87
8820,-3.8740,-0.3756,-0.1426,1070.56,874.27,-906.49
8830,-3.8741,-0.3718,-0.1865,-70.07,1764.83,1827.82
8840,-3.8743,-0.3579,-0.2426,414.31,139.89,234.01
8850,-3.8745,-0.3510,-0.2844,-1804.44,968.02,-172.36
8860,-3.8745,-0.3503,-0.2993,-913.82,-391.36,1171.26
8870,-3.8745,-0.3490,-0.2871,-835.69,1702.39,265.01
8880,-3.8745,-0.3390,-0.2551,-663.82,-735.11,1061.89
8890,-3.8745,-0.3051,-0.2167,617.43,-641.30,-422.42
8900,-3.8744,-0.2390,-0.1820,961.18,280.64,-906.68
8910,-3.8743,-0.1567,-0.1538,1414.31,718.26,-1469.12
8920,-3.8741,-0.0737,-0.1356,-54.44,327.76,921.57
8930,-3.8741,0.0033,-0.1334,-1429.44,-1343.93,-1703.43
8940,-3.8741,0.0692,-0.1487,429.93,-1078.12,-812.81
8950,-3.8740,0.1226,-0.1718,867.43,968.87,93.44
8960,-3.8740,0.1573,-0.1910,-304.44,-1984.19,1468.38
8970,-3.8740,0.1689,-0.1992,148.68,-452.82,-1250.43
8980,-3.8740,0.1691,-0.1952,1633.06,-1499.69,-844.18
8990,-3.8740,0.1768,-0.1902,1648.68,-984.07,-1641.05
9000,-3.8740,0.2063,-0.1831,-1366.94,-343.44,671.45
9010,-3.8741,0.2625,-0.1608,-1585.69,562.87,-469.12
9020,-3.8740,0.3430,-0.1208,1601.81,-577.64,390.26
9030,-3.8740,0.4431,-0.0679,-85.69,531.86,-343.99
9040,-3.8738,0.5656,-0.0154,726.81,-686.65,609.19
9050,-3.8737,0.7040,0.0314,398.68,-1967.65,-531.31
9060,-3.8733,0.8043,0.0875,-1882.57,16.97,1468.81
9070,-3.8729,0.8461,0.1691,-1038.82,-795.35,-1828.00
9080,-3.8724,0.8488,0.2623,304.93,1642.27,281.56
9090,-3.8721,0.8193,0.3265,648.68,1579.77,469.24
9100,-3.8719,0.8035,0.3253,883.06,1798.46,-968.14
9110,-3.8718,0.8494,0.2677,-1148.19,1642.15,1000.61
9120,-3.8718,0.8917,0.2273,726.81,-1732.73,1750.49
9130,-3.8718,0.8640,0.2368,-1851.32,1095.46,-1968.32
9140,-3.8718,0.8182,0.2692,-1398.19,-1685.85,-1468.32
9150,-3.8717,0.7728,0.3093,742.43,-1545.29,1156.74
9160,-3.8716,0.7319,0.3555,-1070.07,-404.79,1734.92
9170,-3.8715,0.7235,0.4075,1695.56,1501.40,-93.08
9180,-3.8712,0.7362,0.4652,617.43,157.65,-1092.96
9190,-3.8710,0.7704,0.5304,-1757.57,-451.72,219.60
9200,-3.8710,0.8271,0.5782,-1382.57,-107.91,-1108.40
9210,-3.8708,0.9099,0.5850,1883.06,-1982.79,579.22
9220,-3.8708,0.9846,0.5725,476.81,-1123.23,-1202.03
9230,-3.8707,0.9902,0.5720,-1960.69,1283.14,1376.10
9240,-3.8706,0.9080,0.5914,-1241.94,1220.64,172.97
9250,-3.8705,0.7645,0.6315,226.81,-295.10,79.22
9260,-3.8704,0.6084,0.6792,1867.43,829.59,610.60
9270,-3.8702,0.4823,0.7185,1883.06,-1061.34,1173.16
9280,-3.8701,0.4072,0.7445,1742.43,-30.33,-1545.53
9290,-3.8699,0.3749,0.7462,133.06,-702.33,704.53
9300,-3.8698,0.3727,0.7239,-7.57,-483.70,-576.72
9310,-3.8695,0.3552,0.7064,-288.82,656.92,-1482.97
9320,-3.8693,0.2833,0.7135,1476.81,-1577.45,1329.47
9330,-3.8691,0.1685,0.7280,273.68,-671.33,-1279.91
9340,-3.8690,0.0436,0.7288,1570.56,1187.81,1563.90
9350,-3.8690,-0.0468,0.7085,1586.18,1281.31,876.40
9360,-3.8691,-0.0715,0.6665,-1976.32,-1297.00,1173.22
9370,-3.8693,-0.0466,0.6348,-1148.19,1327.94,-1764.34
9380,-3.8693,-0.0244,0.6497,-1960.69,1265.50,-61.28
9390,-3.8690,-0.0416,0.7010,883.06,-828.19,-1139.40
9400,-3.8687,-0.1201,0.7612,-1320.07,1749.88,1532.59
9410,-3.8683,-0.2573,0.8253,633.06,1452.88,-1889.16
9420,-3.8679,-0.4155,0.8788,-929.44,1655.70,1376.59
9430,-3.8677,-0.5831,0.8933,-1179.44,499.15,564.21
9440,-3.8677,-0.7422,0.8741,1367.43,-1641.78,-857.67
9450,-3.8677,-0.8607,0.8324,1008.06,-95.21,517.27
9460,-3.8680,-0.9257,0.7656,1836.18,-1439.21,-404.66
9470,-3.8684,-0.9429,0.6793,1523.68,-1986.21,1423.34
9480,-3.8689,-0.9370,0.5989,-679.44,-1033.14,1626.28
9490,-3.8693,-0.9152,0.5536,70.56,670.04,548.03
9500,-3.8695,-0.8832,0.5500,-1132.57,-1126.83,751.04
9510,-3.8698,-0.8502,0.5657,-1038.82,-1579.90,-186.46
9520,-3.8699,-0.8180,0.5724,-820.07,420.17,-1858.28
9530,-3.8701,-0.7982,0.5647,-695.07,1279.60,-233.28
9540,-3.8702,-0.7971,0.5586,1836.18,295.29,-452.03
9550,-3.8702,-0.8132,0.5481,1976.81,-485.96,1501.04
9560,-3.8704,-0.8328,0.5012,-85.69,-1829.77,626.04
9570,-3.8707,-0.8356,0.4104,1414.31,170.23,1282.23
9580,-3.8712,-0.8110,0.3004,1054.93,545.23,1375.79
9590,-3.8717,-0.7655,0.2009,195.56,-1532.84,875.55
9600,-3.8722,-0.7169,0.1261,-1976.32,1732.85,1937.87
9610,-3.8726,-0.6597,0.0673,242.43,154.85,1500.24
9620,-3.8728,-0.5952,0.0159,-429.44,623.66,1047.00
9630,-3.8730,-0.5510,-0.0267,-179.44,-1954.35,-359.38
9640,-3.8732,-0.5383,-0.0598,1476.81,592.65,-968.81
9650,-3.8733,-0.5439,-0.0818,-898.19,358.28,-922.00
9660,-3.8733,-0.5531,-0.0896,-1616.94,1545.78,109.19
9670,-3.8734,-0.5562,-0.0759,1211.18,545.78,-1922.06
9680,-3.8734,-0.5486,-0.0403,820.56,-1704.22,1906.07
9690,-3.8734,-0.5406,-0.0077,1789.31,-1141.72,-203.25
9700,-3.8733,-0.5294,-0.0062,-1195.07,-969.85,562.44
9710,-3.8734,-0.4956,-0.0408,242.43,-782.29,1249.94
9720,-3.8737,-0.4305,-0.0959,570.56,-1204.10,1890.50
9730,-3.8739,-0.3398,-0.1577,898.68,-266.48,249.76
9740,-3.8743,-0.2365,-0.2117,508.06,-172.55,-797.24
9750,-3.8744,-0.1399,-0.2429,1742.43,921.39,1515.20
9760,-3.8744,-0.0753,-0.2522,-1898.19,921.57,546.39
9770,-3.8744,-0.0491,-0.2410,-1632.57,-265.81,-16.17
9780,-3.8741,-0.0449,-0.2123,1726.81,1171.75,1608.89
9790,-3.8740,-0.0421,-0.1781,-1741.94,843.63,-1156.68
9800,-3.8739,-0.0261,-0.1504,-1382.57,1218.63,-1875.37
9810,-3.8739,0.0073,-0.1414,664.31,765.56,-500.31
9820,-3.8739,0.0542,-0.1521,945.56,1906.25,-859.68
9830,-3.8739,0.1106,-0.1658,-1054.44,531.31,671.57
9840,-3.8740,0.1605,-0.1760,-1835.69,-1218.57,530.88
9850,-3.8741,0.1896,-0.1831,554.93,1469.06,593.38
9860,-3.8743,0.2151,-0.1849,273.68,562.87,-984.74
9870,-3.8741,0.2544,-0.1869,-460.69,328.49,374.63
9880,-3.8741,0.2906,-0.1921,570.56,78.61,-609.74
9890,-3.8740,0.3101,-0.1980,1211.18,-593.20,-1406.68
9900,-3.8739,0.3248,-0.2019,-304.44,-1343.20,1280.82
9910,-3.8739,0.3506,-0.2069,1586.18,-1843.14,-312.93
9920,-3.8738,0.3899,-0.2053,883.06,1516.30,-1906.68
9930,-3.8737,0.4257,-0.1759,1914.31,1719.48,1093.32
9940,-3.8735,0.4547,-0.1160,-1507.57,1485.17,1671.51
9950,-3.8733,0.4785,-0.0463,-1788.82,1157.10,577.88
9960,-3.8730,0.4969,0.0177,1258.06,-1920.96,-1609.50
9970,-3.8727,0.5222,0.0713,-382.57,-1733.46,937.50
9980,-3.8724,0.5685,0.1135,-1148.19,1125.98,1656.37
9990,-3.8722,0.6326,0.1543,773.68,-1467.65,656.43
10000,-3.8721,0.6754,0.2014,976.81,-248.78,-1124.76
10010,-3.8718,0.6857,0.2441,-1538.82,1782.53,187.87
10020,-3.8717,0.6790,0.2787,-226.32,-748.72,-1999.57
10030,-3.8715,0.6846,0.3152,-1085.69,-326.84,-1812.01
10040,-3.8712,0.7144,0.3455,-366.94,345.03,-1046.26
10050,-3.8710,0.7380,0.3646,-554.44,220.09,-1233.70
10060,-3.8707,0.7411,0.3926,-1523.19,-1326.72,-1530.58
10070,-3.8705,0.7177,0.4357,-1132.57,-1748.60,-514.89
10080,-3.8701,0.6715,0.4745,-132.57,-233.03,-1952.33
10090,-3.8698,0.6086,0.4919,1961.18,735.66,813.42
10100,-3.8695,0.5491,0.4794,1914.31,-1030.09,735.29
10110,-3.8695,0.5144,0.4353,-1710.69,1360.41,-967.83
10120,-3.8695,0.5132,0.3804,1851.81,-280.27,47.67
10130,-3.8696,0.5448,0.3511,1695.56,688.48,78.86
10140,-3.8698,0.5679,0.3623,1742.43,938.54,-233.70
10150,-3.8695,0.5391,0.3999,695.56,-1623.90,469.42
10160,-3.8693,0.4537,0.4576,1008.06,-811.46,1360.11
10170,-3.8689,0.3407,0.5248,-1913.82,-1421.02,219.60
10180,-3.8687,0.2271,0.5715,-382.57,-827.51,-1733.40
10190,-3.8684,0.1300,0.5779,1070.56,1156.68,1188.60
10200,-3.8683,0.0671,0.5590,648.68,1968.99,547.97
10210,-3.8683,0.0221,0.5419,601.81,-453.00,-1623.96
10220,-3.8682,-0.0477,0.5291,-1163.82,1359.38,251.04
10230,-3.8682,-0.1416,0.5166,1898.68,-265.75,1375.98
10240,-3.8682,-0.2145,0.5045,1883.06,-1859.68,32.23
10250,-3.8683,-0.2307,0.4872,554.93,593.32,219.73
10260,-3.8684,-0.2249,0.4642,-1523.19,-1625.49,454.04
10270,-3.8685,-0.2390,0.4521,-773.19,-562.99,-374.15
10280,-3.8684,-0.2808,0.4709,1414.31,1890.14,-936.65
10290,-3.8682,-0.3551,0.5225,70.56,296.33,1641.54
10300,-3.8679,-0.4736,0.5969,-1445.07,-1110.11,1500.98
10310,-3.8677,-0.6188,0.6854,-616.94,420.90,-1248.84
10320,-3.8673,-0.7505,0.7585,804.93,-251.22,220.03
10330,-3.8673,-0.8538,0.7797,-54.44,1107.85,-326.66
10340,-3.8676,-0.9058,0.7289,-1273.19,-189.21,-748.54
10350,-3.8680,-0.8962,0.6165,70.56,1310.73,1438.90
10360,-3.8687,-0.8386,0.4886,1289.31,-1079.90,907.41
10370,-3.8693,-0.7528,0.3762,664.31,-1439.15,1297.79
10380,-3.8698,-0.6665,0.2844,-351.32,170.35,906.98
10390,-3.8701,-0.6069,0.2217,-1304.44,420.53,953.67
10400,-3.8705,-0.5797,0.1924,-1679.44,389.40,-233.95
10410,-3.8707,-0.5623,0.1914,1804.93,639.47,-624.63
10420,-3.8708,-0.5474,0.2222,39.31,514.53,953.49
10430,-3.8710,-0.5536,0.2762,1945.56,452.03,-1265.20
10440,-3.8708,-0.5914,0.3191,1148.68,-626.10,125.49
10450,-3.8708,-0.6517,0.3159,304.93,858.22,359.99
10460,-3.8711,-0.7139,0.2593,586.18,451.84,-1608.76
10470,-3.8715,-0.7490,0.1801,633.06,1201.72,1266.11
10480,-3.8721,-0.7314,0.0952,133.06,-938.96,-343.44
10490,-3.8726,-0.6656,0.0044,-1616.94,201.66,-1812.32
10500,-3.8729,-0.5719,-0.0789,-1195.07,576.78,687.50
10510,-3.8733,-0.4796,-0.1403,-1195.07,1920.72,-156.43
10520,-3.8734,-0.4082,-0.1660,-1382.57,-1938.48,-1844.06
10530,-3.8735,-0.3608,-0.1621,-241.94,-1235.23,1984.01
10540,-3.8737,-0.3282,-0.1444,1820.56,-735.11,-1406.62
10550,-3.8737,-0.3041,-0.1188,1992.43,1530.58,921.57
10560,-3.8737,-0.2860,-0.0967,1086.18,811.89,1171.63
10570,-3.8737,-0.2725,-0.0999,-601.32,-359.99,265.38
10580,-3.8739,-0.2653,-0.1396,1133.06,-766.17,-562.74
10590,-3.8741,-0.2629,-0.2034,-1945.07,-1859.92,-484.68
10600,-3.8744,-0.2589,-0.2675,-1648.19,1983.83,-1469.18
10610,-3.8746,-0.2460,-0.3157,-1132.57,1780.70,-1813.05
10620,-3.8749,-0.2178,-0.3442,523.68,-391.11,-391.30
10630,-3.8750,-0.1670,-0.3499,133.06,-47.30,-985.11
10640,-3.8750,-0.0991,-0.3324,-1366.94,-765.99,514.89
10650,-3.8750,-0.0287,-0.3047,-679.44,1468.51,296.20
10660,-3.8750,0.0327,-0.2723,336.18,1015.56,-1078.74
10670,-3.8748,0.0723,-0.2257,195.56,1140.69,890.08
10680,-3.8745,0.0883,-0.1641,1258.06,-890.50,1202.64
10690,-3.8743,0.1002,-0.1019,-695.07,-999.88,1109.01
10700,-3.8741,0.1195,-0.0664,836.18,-1046.69,-1890.87
10710,-3.8741,0.1497,-0.0745,-695.07,-499.82,-906.43
10720,-3.8741,0.2064,-0.1074,-835.69,-1531.01,265.44
10730,-3.8744,0.2992,-0.1360,-1570.07,-1749.63,-437.74
10740,-3.8745,0.4124,-0.1506,-1695.07,-1405.70,-78.43
10750,-3.8745,0.5115,-0.1490,789.31,719.54,-484.68
10760,-3.8744,0.5695,-0.1224,1476.81,922.85,-672.18
10770,-3.8741,0.5787,-0.0627,898.68,329.22,-515.87
10780,-3.8738,0.5769,0.0284,-1913.82,-30.15,1702.94
10790,-3.8734,0.6006,0.1215,1851.81,-358.28,250.00
10800,-3.8732,0.6442,0.1827,883.06,-451.97,-1156.07
10810,-3.8729,0.7104,0.2122,-1538.82,-608.15,-171.57
10820,-3.8727,0.7976,0.2302,-1054.44,-842.41,-1515.26
10830,-3.8724,0.8645,0.2560,-1898.19,1470.28,594.18
10840,-3.8722,0.8939,0.2932,-1335.69,767.27,47.36
10850,-3.8719,0.9287,0.3334,-1570.07,1532.96,828.67
10860,-3.8717,0.9692,0.3705,-1116.94,-1326.35,1391.24
10870,-3.8716,1.0192,0.4121,70.56,-576.23,-186.83
10880,-3.8713,1.0787,0.4680,-1538.82,751.95,1157.04
10890,-3.8712,1.1036,0.5286,-1913.82,-91.67,-108.52
10900,-3.8708,1.0900,0.5701,1273.68,-341.61,63.48
10910,-3.8707,1.0618,0.5771,-476.32,970.83,-123.90
10920,-3.8705,1.0148,0.5627,-85.69,1877.01,1626.10
10930,-3.8704,0.9551,0.5553,1898.68,33.20,1344.85
10940,-3.8702,0.8992,0.5654,-1741.94,-920.04,344.79
10950,-3.8702,0.8481,0.6024,-898.19,376.71,-30.15
10960,-3.8700,0.8131,0.6604,570.56,1111.02,719.91
10970,-3.8699,0.8020,0.7051,86.18,532.84,-1311.22
10980,-3.8696,0.7927,0.7284,-1335.69,-1748.47,-1842.41
10990,-3.8694,0.7468,0.7495,1476.81,1235.90,-1654.85
11000,-3.8691,0.6639,0.7777,-398.19,-61.10,-1795.47
11010,-3.8689,0.5643,0.8021,992.43,-451.84,1220.21
11020,-3.8688,0.4518,0.8069,242.43,-1327.03,-1217.22
11030,-3.8687,0.3252,0.7938,1836.18,-717.90,-1451.60
11040,-3.8685,0.2034,0.7760,1633.06,1609.99,1454.65
11050,-3.8684,0.0925,0.7666,-1960.69,-671.51,-1795.41
11060,-3.8682,-0.0256,0.7760,-148.19,-1874.88,-1326.66
11070,-3.8678,-0.1642,0.8004,726.81,-656.31,1454.59
11080,-3.8676,-0.3136,0.8223,-1007.57,-1531.62,-482.85
11090,-3.8673,-0.4396,0.8269,-132.57,1264.95,-467.16
11100,-3.8671,-0.5615,0.8219,-257.57,1858.46,-1967.16
11110,-3.8669,-0.7025,0.8300,133.06,1217.65,-279.66
11120,-3.8667,-0.8182,0.8525,-1913.82,-1751.40,1.59
11130,-3.8667,-0.9194,0.8571,-726.32,1138.98,423.52
11140,-3.8669,-0.9934,0.8228,-1679.44,1716.92,1439.15
11150,-3.8674,-1.0112,0.7570,851.81,1326.17,-1076.54
11160,-3.8679,-1.0126,0.6760,-1429.44,904.24,438.96
11170,-3.8685,-1.0004,0.5962,-1601.32,-1455.14,1141.91
11180,-3.8691,-0.9698,0.5231,-38.82,326.11,-623.84
11190,-3.8696,-0.9307,0.4574,-132.57,-1033.20,-217.77
11200,-3.8700,-0.9049,0.3993,883.06,-1439.33,1657.10
11210,-3.8704,-0.8939,0.3497,179.93,-876.77,875.73
11220,-3.8707,-0.8765,0.3126,1586.18,779.48,-1436.83
11230,-3.8710,-0.8529,0.2847,-179.44,29.48,-1202.51
11240,-3.8711,-0.8287,0.2577,-1163.82,451.42,31.80
11250,-3.8713,-0.8005,0.2289,1929.93,998.35,703.61
11260,-3.8717,-0.7567,0.1949,1539.31,1310.91,-265.20
11270,-3.8719,-0.7047,0.1537,-851.32,967.22,1469.12
11280,-3.8723,-0.6422,0.1134,1804.93,-313.90,-796.63
11290,-3.8726,-0.5659,0.0763,1804.93,-1470.03,1718.93
11300,-3.8728,-0.4762,0.0438,-429.44,1780.09,1234.50
11310,-3.8730,-0.3818,0.0194,-945.07,1624.02,1859.44
11320,-3.8733,-0.2959,-0.0039,-866.94,-1500.79,-125.00
11330,-3.8734,-0.2249,-0.0302,-1866.94,-484.99,-328.19
11340,-3.8734,-0.1849,-0.0485,-773.19,155.76,1078.06
11350,-3.8735,-0.1692,-0.0370,336.18,1812.13,-156.37
11360,-3.8734,-0.1643,0.0118,-1648.19,-719.12,578.00
11370,-3.8734,-0.1589,0.0728,-1023.19,1530.88,-328.12
11380,-3.8733,-0.1415,0.1115,-335.69,1327.76,-406.13
11390,-3.8732,-0.1107,0.1178,1898.68,-1719.06,1859.56
11400,-3.8732,-0.0798,0.0980,1836.18,-906.49,1297.06
11410,-3.8733,-0.0624,0.0586,1789.31,562.32,1922.06
11420,-3.8735,-0.0461,0.0076,23.68,-484.50,-234.31
11430,-3.8738,-0.0284,-0.0465,-1898.19,984.25,-265.62
11440,-3.8740,-0.0151,-0.0975,367.43,-1937.56,-1031.37
11450,-3.8743,0.0029,-0.1385,-1929.44,-468.81,-1234.62
11460,-3.8744,0.0270,-0.1643,383.06,-1734.38,343.44
11470,-3.8745,0.0594,-0.1710,-538.82,-1031.25,265.26
11480,-3.8746,0.1139,-0.1526,-382.57,-1890.56,-500.37
11490,-3.8745,0.1892,-0.1155,-1413.82,468.93,1905.94
11500,-3.8744,0.2747,-0.0784,226.81,1219.12,1374.76
11510,-3.8744,0.3560,-0.0566,-835.69,1969.24,-297.06
11520,-3.8744,0.4185,-0.0613,1570.56,750.67,-609.50
11530,-3.8745,0.4585,-0.1016,1570.56,157.04,-343.87
11540,-3.8746,0.4860,-0.1729,-1304.44,-999.15,1109.13
11550,-3.8749,0.5051,-0.2587,-1788.82,1875.92,1296.51
11560,-3.8439,0.5463,-0.3457,664.31,-1108.40,1046.33
11570,-3.8441,0.6376,-0.4108,1929.93,-248.96,-1844.48
11580,-3.8442,0.7623,-0.4047,1617.43,-576.90,-78.98
11590,-3.8440,0.9069,-0.2947,1586.18,204.59,1983.58
11600,-3.8748,0.9889,-0.1089,86.18,-1716.98,1218.14
11610,-3.8741,0.9629,0.0956,-1413.82,-1935.61,1640.38
11620,-3.8735,0.8851,0.2570,-741.94,236.21,-796.69
11630,-3.8729,0.7968,0.3461,1304.93,892.33,-155.76
11640,-3.8723,0.7548,0.3700,1992.43,298.40,0.67
11650,-3.8722,0.7650,0.3370,617.43,-639.16,-61.83
11660,-3.8722,0.7896,0.2853,1929.93,-857.91,-421.26
11670,-3.8723,0.8087,0.2480,1070.56,517.15,-1749.45
11680,-3.8724,0.8311,0.2249,-476.32,-248.47,312.93
11690,-3.8726,0.8540,0.2228,-1616.94,782.84,734.80
11700,-3.8727,0.8717,0.2511,1320.56,517.27,-108.95
11710,-3.8726,0.9050,0.3059,-413.82,142.27,-1468.26
11720,-3.8723,0.9641,0.3933,-148.19,-842.04,-1686.95
11730,-3.8719,1.0240,0.4938,-585.69,-1654.42,-1327.39
11740,-3.8715,1.0442,0.5590,-913.82,-794.92,391.54
11750,-3.8712,1.0089,0.5750,1664.31,-451.11,-373.96
11760,-3.8710,0.9386,0.5530,1148.68,1595.70,704.22
11770,-3.8711,0.8890,0.4973,148.68,-1216.92,-1233.34
11780,-3.8712,0.8911,0.4135,1804.93,-342.04,1094.67
11790,-3.8713,0.9232,0.3458,-1929.44,923.58,391.42
11800,-3.8713,0.9398,0.3450,-1820.07,267.40,391.30
11810,-3.8712,0.9216,0.4207,304.93,158.08,-983.70
11820,-3.8707,0.8744,0.5612,1976.81,1845.52,438.29
11830,-3.8702,0.8317,0.7339,-70.07,-170.23,-1342.71
11840,-3.8696,0.8248,0.8722,-1538.82,1939.09,1938.90
11850,-3.8691,0.8413,0.9265,1586.18,-357.79,-1201.48
11860,-3.8688,0.8414,0.9106,-304.44,-1404.66,-841.98
11870,-3.8685,0.7876,0.8601,-288.82,564.09,-1279.48
11880,-3.8684,0.6610,0.8090,820.56,-1904.72,-138.98
11890,-3.8682,0.4631,0.7899,617.43,-451.84,-1826.60
11900,-3.8679,0.2317,0.8142,-710.69,1110.23,-951.60
11910,-3.8676,0.0249,0.8634,1664.31,219.18,1579.71
11920,-3.8673,-0.1216,0.9022,-804.44,-1484.38,-1279.60
11930,-3.8672,-0.2052,0.9076,445.56,-500.24,-513.92
11940,-3.8672,-0.2378,0.8796,1742.43,187.07,-13.85
11950,-3.8672,-0.2727,0.8302,1570.56,608.89,1486.08
11960,-3.8673,-0.3422,0.7806,1101.81,-1719.30,829.71
11970,-3.8676,-0.4174,0.7454,211.18,-63.17,-779.79
11980,-3.8677,-0.4879,0.7278,-1413.82,-578.98,-1826.72
11990,-3.8678,-0.5808,0.7262,1554.93,1170.90,-1357.97
12000,-3.8679,-0.6840,0.7354,1664.31,967.59,-686.10
12010,-3.8680,-0.7653,0.7333,461.18,-1860.72,1735.78
12020,-3.8683,-0.8416,0.7030,-1945.07,1873.47,688.90
12030,-3.8687,-0.8981,0.6637,289.31,1998.35,704.47
12040,-3.8691,-0.9165,0.6293,1054.93,966.98,-842.47
12050,-3.8695,-0.8960,0.5983,-1304.44,560.67,16.85
12060,-3.8701,-0.8575,0.5543,1320.56,591.98,-264.47
12070,-3.8705,-0.8236,0.4805,-1757.57,-1032.96,438.54
12080,-3.8708,-0.7875,0.4014,-1413.82,1513.98,94.67
12090,-3.8712,-0.7522,0.3563,-788.82,-610.96,-889.89
12100,-3.8713,-0.7318,0.3384,-273.19,1623.47,63.17
12110,-3.8716,-0.7285,0.3188,-1663.82,-673.34,1875.61
12120,-3.8717,-0.7102,0.2953,-1241.94,826.66,563.11
12130,-3.8719,-0.6746,0.2681,1101.81,1811.10,-327.58
12140,-3.8721,-0.6377,0.2349,1664.31,-1673.22,1797.36
12150,-3.8723,-0.5970,0.1954,-1616.94,-1923.16,-1718.32
12160,-3.8726,-0.5488,0.1511,-413.82,1030.03,-1921.51
12170,-3.8728,-0.5001,0.1061,1758.06,-641.72,-1812.26
12180,-3.8730,-0.4646,0.0599,-7.57,1592.71,-1249.82
12190,-3.8732,-0.4489,0.0154,539.31,-313.42,203.19
12200,-3.8734,-0.4510,-0.0228,-1445.07,1983.46,-1171.88
12210,-3.8735,-0.4603,-0.0507,-1726.32,1092.83,-1718.81
12220,-3.8737,-0.4648,-0.0604,1086.18,1530.33,-1500.12
12230,-3.8738,-0.4512,-0.0525,508.06,280.33,-500.12
12240,-3.8738,-0.4128,-0.0400,-1741.94,1295.96,1406.13
12250,-3.8739,-0.3491,-0.0365,-835.69,-1110.23,-422.00
12260,-3.8739,-0.2706,-0.0525,-679.44,-656.98,453.00
12270,-3.8741,-0.1930,-0.0887,1367.43,1296.33,-1125.12
12280,-3.8744,-0.1262,-0.1333,-695.07,655.82,-203.31
12290,-3.8745,-0.0682,-0.1721,-148.19,-1047.18,1140.32
12300,-3.8748,-0.0121,-0.2012,-726.32,1984.19,-687.87
12310,-3.8749,0.0367,-0.2252,-1538.82,-1734.44,1890.20
12320,-3.8750,0.0790,-0.2473,711.18,-828.06,890.14
12330,-3.8439,0.1281,-0.2621,-1882.57,343.87,921.39
12340,-3.8440,0.1885,-0.2675,398.68,-1546.63,-1469.30
12350,-3.8440,0.2437,-0.2719,133.06,1765.99,1890.08
12360,-3.8440,0.2773,-0.2760,-804.44,1203.55,-1078.67
12370,-3.8439,0.2991,-0.2646,-491.94,672.36,1546.33
12380,-3.8750,0.3271,-0.2247,-1710.69,-1874.45,1780.70
12390,-3.8749,0.3695,-0.1677,1883.06,-765.01,-859.86
12400,-3.8748,0.4165,-0.1193,-695.07,-1468.08,-375.37
12410,-3.8746,0.4796,-0.0879,1320.56,735.17,-1718.99
12420,-3.8745,0.5682,-0.0568,1398.68,750.92,1077.94
12430,-3.8744,0.6401,-0.0085,742.43,735.47,1906.13
12440,-3.8741,0.6848,0.0649,1945.56,-1092.53,1062.44
12450,-3.8739,0.7213,0.1528,-335.69,313.78,-1531.13
12460,-3.8735,0.7433,0.2422,336.18,-436.10,1687.74
12470,-3.8732,0.7789,0.3286,-851.32,-998.60,1234.80
12480,-3.8728,0.8425,0.4049,-288.82,-1936.04,172.49
12490,-3.8726,0.9171,0.4633,-148.19,-170.29,-1889.89
12500,-3.8723,1.0032,0.4879,1398.68,-701.35,-1780.40
12510,-3.8721,1.0997,0.4768,414.31,-1544.92,16.54
12520,-3.8719,1.1810,0.4523,773.68,1033.39,63.42
12530,-3.8718,1.2180,0.4523,-820.07,1892.88,516.48
12540,-3.8717,1.1993,0.5159,-85.69,1892.94,-842.90
12550,-3.8713,1.1416,0.6470,1523.68,-1966.43,579.10
12560,-3.8710,1.0856,0.7788,-1866.94,-1185.30,673.10
12570,-3.8706,1.0658,0.8214,-1038.82,-310.42,907.71
12580,-3.8704,1.0726,0.7717,429.93,1142.70,1220.34
12590,-3.8704,1.0636,0.6927,1304.93,-1216.67,-1264.16
12600,-3.8705,1.0348,0.6382,148.68,673.95,-1483.03
12610,-3.8706,0.9836,0.6340,461.18,1689.51,1704.35
12620,-3.8706,0.9036,0.6715,1914.31,1158.14,876.22
12630,-3.8705,0.7975,0.7317,-335.69,1954.83,1876.28
12640,-3.8702,0.6740,0.7966,-1913.82,1657.78,-76.72
12650,-3.8699,0.5454,0.8524,-1726.32,1970.03,-107.85
12660,-3.8695,0.4365,0.8923,1820.56,1110.41,-1420.23
12670,-3.8693,0.3712,0.9100,-116.94,-1780.46,1767.33
12680,-3.8691,0.3684,0.9033,-476.32,485.05,408.02
12690,-3.8693,0.4446,0.8705,-835.69,-374.33,-1467.04
12700,-3.8694,0.5542,0.8317,914.31,-577.27,-1732.73
12710,-3.8695,0.6063,0.8151,-1054.44,-1545.84,1689.09
12720,-3.8696,0.5475,0.8127,1617.43,329.28,1798.46
12730,-3.8696,0.4034,0.8070,-1913.82,32.29,329.71
12740,-3.8696,0.2214,0.8033,-351.32,-702.39,-1232.85
12750,-3.8694,0.0208,0.8208,351.81,-1171.45,1314.03
12760,-3.8691,-0.1796,0.8726,-1335.69,1062.50,-154.66
12770,-3.8687,-0.3538,0.9495,1023.68,-297.24,1095.40
12780,-3.8683,-0.4688,1.0162,-1273.19,1546.14,1783.08
12790,-3.8680,-0.5283,1.0339,8.06,-1907.17,-1029.30
12800,-3.8679,-0.5808,0.9973,383.06,358.34,-13.61
12810,-3.8678,-0.6404,0.9406,1664.31,-329.28,-1482.48
12820,-3.8677,-0.6885,0.8970,-1960.69,404.97,142.46
12830,-3.8677,-0.7433,0.8718,-116.94,-1173.28,17.33
12840,-3.8679,-0.7928,0.8539,867.43,-392.09,-248.35
12850,-3.8682,-0.7991,0.8270,-1476.32,1310.91,-1420.23
12860,-3.8685,-0.7955,0.7777,1726.81,1873.41,-1810.91
12870,-3.8689,-0.7811,0.7128,-1820.07,-439.09,501.46
12880,-3.8694,-0.7572,0.6460,23.68,-751.53,-545.53
12890,-3.8698,-0.7323,0.5911,-913.82,-1298.40,-436.28
12900,-3.8700,-0.6924,0.5537,-1726.32,-329.59,126.10
12910,-3.8704,-0.6515,0.5233,-616.94,-1110.78,1422.91
12920,-3.8707,-0.6160,0.4838,617.43,-1001.28,-217.77
12930,-3.8710,-0.5842,0.4343,1164.31,1936.28,-655.33
12940,-3.8712,-0.5471,0.3904,1226.81,-391.78,-436.71
12950,-3.8715,-0.5116,0.3575,1976.81,1983.28,-202.39
12960,-3.8716,-0.4897,0.3324,-1476.32,1780.21,1110.05
12970,-3.8717,-0.4817,0.3005,1320.56,-1438.48,453.74
12980,-3.8718,-0.4677,0.2472,-1648.19,-1516.60,891.17
12990,-3.8719,-0.4393,0.1722,148.68,-344.67,1094.18
13000,-3.8721,-0.4077,0.0823,-226.32,-1938.42,265.93
13010,-3.8723,-0.3777,-0.0238,-179.44,-1453.98,-1062.38
13020,-3.8724,-0.3434,-0.1423,-335.69,967.96,-1203.19
13030,-3.8724,-0.3126,-0.2524,54.93,1796.20,749.69
13040,-3.8726,-0.3013,-0.3430,-7.57,-297.55,-16.17
13050,-3.8726,-0.2996,-0.4158,1445.56,108.76,-703.80
13060,-3.8726,-0.2863,-0.4755,1664.31,-1203.74,1952.27
13070,-3.8727,-0.2407,-0.5271,-632.57,-844.36,-360.35
13080,-3.8728,-0.1495,-0.5553,1195.56,546.39,-1.04
13090,-3.8729,-0.0217,-0.5233,867.43,937.19,-579.22
13100,-3.8729,0.1111,-0.4109,1226.81,1031.19,327.09
13110,-3.8729,0.2290,-0.2637,-1773.19,-593.57,1077.27
13120,-3.8728,0.3269,-0.1423,1320.56,-1749.57,-1594.30
13130,-3.8726,0.3979,-0.0540,1851.81,1781.86,-1437.81
13140,-3.8723,0.4338,0.0093,-1054.44,1094.48,218.63
13150,-3.8724,0.4536,0.0363,-460.69,1188.29,-843.75
13160,-3.8727,0.4901,0.0120,-1929.44,641.48,-31.19
13170,-3.8729,0.5411,-0.0630,-1257.57,1532.17,1781.25
13180,-3.8732,0.5514,-0.1823,1273.68,-61.46,327.94
13190,-3.8734,0.4912,-0.3164,-1413.82,672.91,1046.51
13200,-3.8737,0.4053,-0.3751,-1116.94,-499.08,-469.42
13210,-3.8738,0.3011,-0.3359,-116.94,-14.89,-1719.54
13220,-3.8739,0.1715,-0.2723,-1445.07,1000.55,374.33
13230,-3.8740,0.0834,-0.2097,1961.18,1140.93,1452.58
13240,-3.8739,0.0847,-0.1301,-1320.07,1156.37,-1984.80
13250,-3.8735,0.1492,-0.0293,-1148.19,-656.13,-1203.43
13260,-3.8729,0.2340,0.0824,-898.19,250.24,968.69
13270,-3.8724,0.3114,0.1699,1961.18,-1452.70,1953.25
13280,-3.8721,0.3647,0.1851,-132.57,1750.55,172.18
13290,-3.8721,0.3771,0.1270,-1304.44,-311.83,-1343.44
13300,-3.8722,0.3243,0.0355,273.68,250.73,-1515.38
13310,-3.8724,0.2118,-0.0590,1523.68,547.49,-421.81
13320,-3.8726,0.0818,-0.1289,-882.57,453.49,-1203.25
13330,-3.8726,-0.0419,-0.1506,-1523.19,-499.88,-765.93
13340,-3.8723,-0.1647,-0.1116,-1351.32,734.25,-297.18
13350,-3.8718,-0.2909,-0.0389,-1070.07,1734.01,-812.74
13360,-3.8712,-0.4113,0.0181,-1226.32,-969.36,1265.50
13370,-3.8707,-0.5111,0.0542,-632.57,-1672.73,937.50
13380,-3.8705,-0.5739,0.0726,-1413.82,-1047.91,1046.94
13390,-3.8706,-0.5555,0.0464,-1445.07,1311.34,-437.38
13400,-3.8708,-0.4578,-0.0491,898.68,1952.03,-593.69
13410,-3.8711,-0.3572,-0.1954,1414.31,1733.46,734.25
13420,-3.8715,-0.2804,-0.3289,-1710.69,-1000.73,-1312.93
13430,-3.8717,-0.1989,-0.3981,117.43,1921.33,1389.95
13440,-3.8721,-0.1229,-0.4124,-1445.07,1062.07,-1985.17
13450,-3.8726,-0.0632,-0.4089,273.68,-765.87,-922.73
13460,-3.8730,-0.0057,-0.4119,-85.69,-328.31,-1016.48
13470,-3.8734,0.0579,-0.4283,-726.32,-703.19,1717.90
13480,-3.8737,0.1345,-0.4490,-585.69,1171.94,1124.15
13490,-3.8738,0.2192,-0.4540,1226.81,-1468.51,483.46
13500,-3.8739,0.3104,-0.4329,70.56,1891.05,1577.21
13510,-3.8740,0.4174,-0.3934,-257.57,594.30,-1235.23
13520,-3.8741,0.5378,-0.3474,1429.93,1641.42,-578.92
13530,-3.8743,0.6530,-0.2931,851.81,-467.71,-453.86
13540,-3.8743,0.7405,-0.2235,-413.82,-1514.40,358.76
13550,-3.8744,0.8044,-0.1516,-1210.69,-607.97,-1062.99
13560,-3.8744,0.8235,-0.0995,-1023.19,595.28,-844.06
13570,-3.8743,0.7891,-0.0544,1414.31,-732.79,1187.26
13580,-3.8741,0.7825,0.0142,1008.06,1032.78,1624.88
13590,-3.8740,0.7972,0.0896,164.31,1814.03,-234.38
13600,-3.8738,0.7765,0.1418,-1945.07,-529.72,968.87
13610,-3.8737,0.7552,0.1938,-601.32,-1842.29,968.99
13620,-3.8735,0.7448,0.2826,679.93,813.96,-1609.01
13630,-3.8733,0.7544,0.4160,-663.82,173.28,-311.95
13640,-3.8728,0.8037,0.5526,570.56,1251.46,1907.04
13650,-3.8723,0.8751,0.6422,-1116.94,-1264.10,-1327.09
13660,-3.8718,0.9388,0.6860,23.68,-1795.17,1532.47
13670,-3.8716,0.9717,0.6979,179.93,-185.67,-1420.59
13680,-3.8715,0.9698,0.6899,383.06,1330.02,751.34
13690,-3.8716,0.9315,0.6818,148.68,314.39,-1576.78
13700,-3.8717,0.8812,0.6844,-757.57,-732.60,-1295.59
13710,-3.8717,0.8566,0.6989,804.93,-388.92,516.91
13720,-3.8717,0.8468,0.7496,1648.68,1454.77,-498.66
13730,-3.8713,0.8334,0.8523,398.68,-45.23,1110.78
13740,-3.8710,0.8104,0.9784,-1320.07,1095.34,-29.60
13750,-3.8704,0.7701,1.1158,-257.57,1235.90,-1107.48
13760,-3.8698,0.7150,1.2494,-1413.82,-1170.41,-200.99
13770,-3.8691,0.6653,1.3389,-476.32,-76.78,-450.74
13780,-3.8687,0.6213,1.3616,1164.31,-623.72,-778.69
13790,-3.8683,0.5537,1.3236,-460.69,-1717.59,1862.00
13800,-3.8680,0.4366,1.2516,-1116.94,1422.91,221.31
13810,-3.8679,0.2604,1.1875,-101.32,203.92,221.19
13820,-3.8678,0.0560,1.1633,1336.18,0.49,767.94
13830,-3.8676,-0.1364,1.1816,-820.07,906.31,189.76
13840,-3.8673,-0.3042,1.2274,-1445.07,-734.68,-763.37
13850,-3.8668,-0.4347,1.2764,1070.56,1124.39,814.88
13860,-3.8665,-0.5349,1.3055,367.43,-610.23,-1700.68
13870,-3.8662,-0.6055,1.3169,-460.69,-876.10,-778.75
13880,-3.8661,-0.6182,1.3103,-1491.94,576.90,268.19
13890,-3.8663,-0.6106,1.2767,883.06,-266.85,-919.37
13900,-3.8666,-0.6433,1.2150,1851.81,-563.72,1721.19
13910,-3.8669,-0.6791,1.1271,1664.31,-470.03,80.44
13920,-3.8676,-0.6890,1.0331,1086.18,279.91,-325.93
13930,-3.8680,-0.7086,0.9484,-179.44,248.60,1486.39
13940,-3.8687,-0.7352,0.8685,1304.93,1404.85,-1404.42
13950,-3.8691,-0.7781,0.7885,1898.68,-813.96,1548.52
13960,-3.8696,-0.8275,0.7185,414.31,935.97,-920.35
13970,-3.8700,-0.8551,0.6698,-1913.82,-17.27,-904.91
13980,-3.8704,-0.8423,0.6360,-1445.07,1748.29,-717.47
13990,-3.8707,-0.7974,0.5897,195.56,1420.23,923.10
14000,-3.8712,-0.7570,0.5077,1945.56,-501.59,407.35
14010,-3.8717,-0.7443,0.3986,-882.57,998.47,79.10
14020,-3.8722,-0.7583,0.2952,742.43,-970.21,-1936.77
14030,-3.8726,-0.7888,0.2194,-1054.44,1795.35,-1218.20
14040,-3.8728,-0.8232,0.1665,-960.69,92.16,1062.93
14050,-3.8732,-0.8402,0.1226,-1366.94,1326.48,-640.32
14060,-3.8734,-0.8331,0.0756,461.18,-298.52,765.81
14070,-3.8738,-0.7941,0.0166,1367.43,1685.85,1703.25
14080,-3.8741,-0.7318,-0.0548,-1632.57,-1860.96,-296.88
14090,-3.8743,-0.6603,-0.1222,-1663.82,998.54,78.00
14100,-3.8745,-0.6052,-0.1678,-507.57,373.66,-593.99
14110,-3.8745,-0.5829,-0.1886,-1460.69,-1469.97,827.76
14120,-3.8746,-0.5787,-0.1986,1398.68,-126.16,-1437.93
14130,-3.8748,-0.5674,-0.2164,1929.93,-1407.41,-609.80
14140,-3.8749,-0.5334,-0.2455,-616.94,311.34,-875.43
14150,-3.8750,-0.4889,-0.2814,-273.19,592.65,-1562.99
14160,-3.8439,-0.4491,-0.3160,1429.93,-0.98,-1203.74
14170,-3.8439,-0.4146,-0.3341,-1476.32,-438.42,1343.08
14180,-3.8439,-0.3743,-0.3250,-1054.44,1249.15,-1813.17
14190,-3.8750,-0.3207,-0.2904,101.81,-1578.86,1124.33
14200,-3.8749,-0.2504,-0.2496,-1038.82,-1156.92,968.14
14210,-3.8749,-0.1683,-0.2262,-38.82,61.95,-156.74
14220,-3.8748,-0.0823,-0.2281,-1538.82,-937.87,593.26
14230,-3.8749,0.0131,-0.2474,1476.81,-1187.68,-1859.86
14240,-3.8750,0.1150,-0.2781,1679.93,328.12,530.76
14250,-3.8440,0.2167,-0.3214,-1273.19,406.43,1499.45
14260,-3.8442,0.3119,-0.3641,-257.57,-1140.26,-344.42
14270,-3.8442,0.3939,-0.3871,-70.07,1391.17,530.52
14280,-3.8442,0.4685,-0.3813,-1570.07,-1546.14,217.96
14290,-3.8442,0.5336,-0.3396,-23.19,-811.65,-594.54
14300,-3.8440,0.5923,-0.2563,304.93,532.29,-1422.55
14310,-3.8749,0.6415,-0.1404,-179.44,-811.40,1718.20
14320,-3.8745,0.6636,-0.0126,-1882.57,-1967.53,-187.81
14330,-3.8740,0.6868,0.0984,945.56,-1608.09,1265.56
14340,-3.8738,0.7722,0.1625,-85.69,595.03,-1593.57
14350,-3.8737,0.9058,0.1877,-1148.19,798.34,-780.94
14360,-3.8735,1.0410,0.2175,-54.44,32.96,1844.12
14370,-3.8734,1.1584,0.2725,1258.06,-154.24,47.24
14380,-3.8733,1.2236,0.3624,289.31,-1122.74,1359.86
14390,-3.8729,1.2228,0.4761,633.06,-1606.99,1703.80
14400,-3.8724,1.1656,0.5774,523.68,939.88,-233.46
14410,-3.8718,1.0980,0.6583,1211.18,1908.51,-1639.53
14420,-3.8713,1.0681,0.7051,554.93,267.76,970.03
14430,-3.8711,1.0900,0.6985,726.81,-1747.92,735.72
14440,-3.8711,1.1514,0.6511,-476.32,1408.33,1610.72
14450,-3.8712,1.2064,0.5831,-616.94,-654.05,-1592.53
14460,-3.8713,1.2148,0.4988,-1570.07,-1357.06,1157.35
14470,-3.8716,1.1619,0.4209,-491.94,-153.93,-1420.96
14480,-3.8717,1.0704,0.3973,726.81,1877.26,563.29
14490,-3.8718,0.9675,0.4431,1023.68,-1138.55,-1624.27
14500,-3.8717,0.8633,0.5499,-148.19,720.58,-280.40
14510,-3.8712,0.7543,0.6982,-1491.94,-1607.73,1735.41
14520,-3.8706,0.6481,0.8402,554.93,1376.46,1641.97
14530,-3.8700,0.5670,0.9424,-1038.82,-451.90,1345.34
14540,-3.8696,0.5298,0.9856,586.18,626.10,1704.96
14550,-3.8695,0.5458,0.9670,-179.44,-1842.77,1533.14
14560,-3.8695,0.5945,0.9321,1867.43,-217.71,-1826.29
14570,-3.8695,0.6107,0.9244,101.81,-686.34,-404.48
14580,-3.8694,0.5507,0.9479,-1820.07,-1670.72,-732.60
14590,-3.8691,0.4343,0.9719,-1507.57,1329.16,1142.46
14600,-3.8689,0.2792,0.9734,-398.19,407.04,798.77
14610,-3.8687,0.0959,0.9626,-257.57,594.24,-1419.98
14620,-3.8683,-0.0950,0.9513,289.31,-781.07,1611.21
14630,-3.8679,-0.2711,0.9352,-148.19,1781.01,829.96
14640,-3.8676,-0.4207,0.9099,1304.93,-281.80,658.02
14650,-3.8672,-0.5571,0.8898,-1835.69,483.52,-1779.48
14660,-3.8668,-0.6949,0.8912,695.56,1905.15,-357.67
14670,-3.8665,-0.7821,0.9045,-945.07,-1907.65,1204.83
14680,-3.8663,-0.7976,0.9056,-101.32,-204.71,517.33
14690,-3.8665,-0.8126,0.8818,1914.31,-64.09,454.83
14700,-3.8668,-0.8380,0.8387,-7.57,888.98,-904.54
14710,-3.8671,-0.8767,0.7960,742.43,-626.65,657.84
14720,-3.8674,-0.9208,0.7635,-210.69,1904.48,-1639.10
14730,-3.8678,-0.9315,0.7371,-1851.32,1748.17,-1279.79
14740,-3.8682,-0.9191,0.7114,773.68,-1642.46,1251.40
14750,-3.8687,-0.8960,0.6722,-1632.57,-923.71,-1623.66
14760,-3.8691,-0.8621,0.6057,1320.56,-1939.27,-561.22
14770,-3.8695,-0.8123,0.5210,1664.31,1545.17,1329.28
14780,-3.8699,-0.7596,0.4392,39.31,-1298.46,172.85
14790,-3.8704,-0.7094,0.3756,-1226.32,232.85,-530.40
14800,-3.8707,-0.6661,0.3280,1211.18,92.35,-1374.27
14810,-3.8711,-0.6519,0.2798,-1257.57,1998.66,-1983.76
14820,-3.8715,-0.6580,0.2229,570.56,-173.16,-1999.51
14830,-3.8718,-0.6614,0.1635,-210.69,545.53,-1999.57
14840,-3.8722,-0.6438,0.0988,-648.19,936.16,828.43
14850,-3.8727,-0.6007,0.0271,1601.81,654.97,-906.07
14860,-3.8730,-0.5494,-0.0404,-882.57,-516.85,-953.12
14870,-3.8733,-0.5112,-0.0942,1679.93,-1157.35,1874.88
14880,-3.8735,-0.4928,-0.1320,-1429.44,-47.91,-1656.49
14890,-3.8738,-0.4818,-0.1570,929.93,-875.98,-703.43
14900,-3.8739,-0.4650,-0.1787,-1663.82,-79.10,749.63
14910,-3.8741,-0.4545,-0.2010,492.43,1139.71,-406.62
14920,-3.8741,-0.4640,-0.2139,1836.18,-1719.67,733.95
14930,-3.8743,-0.4807,-0.2125,617.43,639.71,-531.68
14940,-3.8743,-0.4781,-0.2052,-1523.19,811.52,1890.20
14950,-3.8744,-0.4384,-0.1993,-1195.07,1749.02,-812.93
14960,-3.8745,-0.3741,-0.1960,-101.32,-1500.92,-312.93
14970,-3.8746,-0.3119,-0.1943,117.43,-1078.86,-125.43
14980,-3.8748,-0.2661,-0.1996,86.18,-859.99,-203.55
14990,-3.8749,-0.2336,-0.2147,1945.56,-1531.80,-781.68
15000,-3.8750,-0.1930,-0.2321,-1898.19,530.76,-1437.93
15010,-3.8439,-0.1272,-0.2397,-695.07,-1687.93,-328.61
15020,-3.8439,-0.0448,-0.2290,-273.19,1327.82,-437.99
15030,-3.8750,0.0331,-0.2057,-1726.32,-1297.00,640.14
15040,-3.8750,0.0927,-0.1948,242.43,1671.94,280.82
15050,-3.8439,0.1412,-0.2090,-132.57,-937.38,1515.20
15060,-3.8440,0.1918,-0.2318,-1913.82,1250.24,1468.32
15070,-3.8441,0.2456,-0.2498,554.93,-1671.51,827.64
15080,-3.8442,0.3080,-0.2607,-554.44,31.68,608.89
15090,-3.8444,0.3881,-0.2533,-570.07,-1374.45,-313.05
15100,-3.8441,0.4720,-0.2189,1679.93,-421.14,561.95
15110,-3.8439,0.5256,-0.1604,429.93,-14.71,-234.86
15120,-3.8746,0.5593,-0.0747,-710.69,-530.27,-94.12
15130,-3.8740,0.6008,0.0332,-398.19,-1561.46,-1984.56
15140,-3.8735,0.6337,0.1340,914.31,251.16,-1906.19
15150,-3.8732,0.6544,0.1906,1117.43,1157.47,1312.74
15160,-3.8730,0.6963,0.1940,-226.32,391.85,-577.76
15170,-3.8729,0.7598,0.1674,1133.06,829.47,828.49
15180,-3.8730,0.8304,0.1409,1258.06,1423.34,-1015.32
15190,-3.8730,0.8937,0.1459,-1695.07,-1967.16,-1499.76
15200,-3.8729,0.9199,0.2081,-1601.32,-1326.42,-187.26
15210,-3.8726,0.9438,0.3326,1758.06,-1357.60,-577.76
15220,-3.8719,0.9987,0.5001,820.56,-1420.04,297.49
15230,-3.8715,1.0676,0.6620,-163.82,17.52,-420.90
15240,-3.8708,1.1505,0.7444,664.31,736.45,563.78
15250,-3.8706,1.2432,0.7147,-726.32,-716.55,-1342.35
15260,-3.8706,1.3074,0.6058,-866.94,-513.24,1860.72
15270,-3.8710,1.3126,0.4674,-648.19,1549.38,-1951.97
15280,-3.8715,1.2631,0.3365,23.68,-169.31,1188.35
15290,-3.8718,1.1423,0.2424,1679.93,-919.43,203.74
15300,-3.8719,0.9459,0.2383,-1773.19,-966.55,1687.93
15310,-3.8717,0.7139,0.3650,1086.18,-1498.17,-1233.95
15320,-3.8711,0.5103,0.5756,-616.94,-1279.91,516.30
15330,-3.8705,0.3992,0.7772,1320.56,1672.85,-436.40
15340,-3.8698,0.4109,0.9100,-898.19,-514.89,-29.79
15350,-3.8691,0.5466,0.9490,601.81,485.17,-326.35
15360,-3.8688,0.7367,0.9075,1976.81,1469.79,-888.79
15370,-3.8687,0.8672,0.8373,-1695.07,157.65,-1591.98
15380,-3.8688,0.8650,0.7797,-991.94,-826.48,-1107.79
15390,-3.8689,0.7288,0.7544,-1273.19,-201.48,720.21
15400,-3.8690,0.5251,0.7556,1289.31,563.90,63.96
15410,-3.8691,0.3342,0.7534,-773.19,719.73,1938.96
15420,-3.8691,0.1923,0.7545,-1210.69,438.11,-1451.66
15430,-3.8690,0.0852,0.7836,617.43,578.49,-1217.29
15440,-3.8688,-0.0048,0.8342,-1085.69,297.00,-154.72
15450,-3.8683,-0.0802,0.8904,-601.32,-1203.19,1595.34
15460,-3.8678,-0.1616,0.9233,1742.43,1984.19,923.58
15470,-3.8674,-0.2731,0.9105,-679.44,-1797.24,-1357.60
15480,-3.8671,-0.4097,0.8663,1054.93,561.95,767.40
15490,-3.8669,-0.5676,0.8274,-429.44,-1094.60,-1920.23
15500,-3.8669,-0.7008,0.8071,-648.19,1920.72,-1904.66
15510,-3.8671,-0.7683,0.7914,-1695.07,-673.28,735.90
15520,-3.8674,-0.8203,0.7692,1664.31,1310.97,-560.97
15530,-3.8677,-0.8787,0.7406,-991.94,-1532.90,907.71
15540,-3.8680,-0.9471,0.7074,-460.69,-1189.27,-482.97
15550,-3.8683,-0.9906,0.6932,-1226.32,-1439.39,-1467.41
15560,-3.8687,-0.9742,0.7072,1211.18,748.05,-45.53
15570,-3.8690,-0.9240,0.6949,-695.07,-1470.70,-561.16
15580,-3.8694,-0.8737,0.6179,1742.43,966.92,-1420.53
15590,-3.8698,-0.8423,0.5079,179.93,-892.33,-842.59
15600,-3.8700,-0.8191,0.4218,195.56,1029.60,844.73
15610,-3.8704,-0.7844,0.3718,-835.69,1998.35,1969.54
15620,-3.8707,-0.7469,0.3339,-398.19,-392.21,-1764.95
15630,-3.8711,-0.7214,0.3020,398.68,-1251.46,1984.99
15640,-3.8715,-0.7063,0.2612,-335.69,-1329.59,1219.30
15650,-3.8718,-0.7000,0.1974,1601.81,1451.72,391.11
15660,-3.8723,-0.6870,0.1206,-1585.69,1279.85,-468.38
15670,-3.8727,-0.6553,0.0410,70.56,-548.22,-921.69
15680,-3.8729,-0.5941,-0.0312,133.06,1264.34,31.31
15690,-3.8733,-0.5199,-0.0892,-38.82,14.40,-1343.81
15700,-3.8735,-0.4559,-0.1273,1461.18,592.71,-1047.06
15710,-3.8737,-0.4127,-0.1356,1648.68,-282.17,1890.32
15720,-3.8738,-0.3970,-0.1222,-820.07,-1344.60,-250.31
15730,-3.8738,-0.4111,-0.1182,1195.56,374.21,-1281.49
15740,-3.8738,-0.4431,-0.1268,-616.94,889.77,874.76
15750,-3.8739,-0.4724,-0.1354,-710.69,-219.67,1468.44
15760,-3.8740,-0.4705,-0.1538,-460.69,-1313.48,390.32
15770,-3.8743,-0.4264,-0.1932,-210.69,327.15,-1437.81
15780,-3.8745,-0.3574,-0.2478,1429.93,-719.60,-31.68
15790,-3.8746,-0.2810,-0.2999,-1741.94,296.14,15.14
15800,-3.8750,-0.2076,-0.3394,39.31,1624.45,-125.61
15810,-3.8439,-0.1479,-0.3711,1429.93,577.70,1124.33
15820,-3.8440,-0.1097,-0.3899,1070.56,515.32,1186.77
15830,-3.8440,-0.0863,-0.3792,1961.18,-1890.87,1061.71
15840,-3.8439,-0.0699,-0.3224,961.18,-515.81,592.96
15850,-3.8750,-0.0598,-0.2325,-945.07,-1250.18,1936.83
15860,-3.8749,-0.0426,-0.1625,351.81,-1750.12,-547.36
15870,-3.8748,-0.0010,-0.1390,-1445.07,-781.37,-531.62
15880,-3.8748,0.0719,-0.1503,-116.94,-1781.31,-578.43
15890,-3.8748,0.1681,-0.1713,1211.18,765.75,187.19
15900,-3.8749,0.2671,-0.1777,1523.68,-1921.57,812.13
15910,-3.8750,0.3552,-0.1650,-1804.44,1250.49,-562.87
15920,-3.8749,0.4293,-0.1407,1476.81,-1124.33,827.76
15930,-3.8749,0.4973,-0.1024,-1038.82,1985.17,-31.56
15940,-3.8748,0.5603,-0.0459,-335.69,-1108.46,-15.87
15950,-3.8745,0.6382,0.0162,-273.19,-1873.96,1453.00
15960,-3.8743,0.7390,0.0659,1695.56,-1920.65,1281.25
15970,-3.8740,0.8088,0.0997,-1398.19,438.90,-171.75
15980,-3.8735,0.8392,0.1371,-460.69,767.15,468.93
15990,-3.8732,0.8248,0.1860,-570.07,1548.46,906.49
16000,-3.8729,0.7356,0.2332,1586.18,-185.91,-1374.69
16010,-3.8726,0.6617,0.2899,-1835.69,1845.15,0.43
16020,-3.8722,0.6670,0.3702,711.18,1110.66,1734.92
16030,-3.8717,0.7145,0.4667,1383.06,-608.09,-139.95
16040,-3.8711,0.8043,0.5476,-538.82,-264.28,1657.10
16050,-3.8707,0.9102,0.5635,-1038.82,-1904.72,1251.04
16060,-3.8706,1.0068,0.5034,508.06,126.77,501.10
16070,-3.8707,1.0825,0.4203,883.06,439.45,-1405.27
16080,-3.8707,1.0869,0.3939,-1429.44,1798.95,1000.79
16090,-3.8707,0.9814,0.4438,-866.94,-1576.05,-530.52
16100,-3.8705,0.7976,0.5302,1633.06,814.39,-467.90
16110,-3.8701,0.6447,0.6075,-1898.19,-139.10,-1202.15
16120,-3.8699,0.6122,0.6473,-1476.32,1766.85,-123.84
16130,-3.8696,0.6829,0.6479,-1632.57,-1139.47,110.60
16140,-3.8696,0.7745,0.6165,-585.69,-1061.22,1266.85
16150,-3.8696,0.8156,0.5712,-851.32,-1092.29,-1170.72
16160,-3.8695,0.7509,0.5464,398.68,1110.96,-1373.90
16170,-3.8693,0.5900,0.5724,117.43,1938.96,1141.66
16180,-3.8690,0.3999,0.6339,-476.32,1266.72,1407.35
16190,-3.8688,0.2395,0.6978,-804.44,1141.36,1516.85
16200,-3.8687,0.1526,0.7352,-1335.69,1312.93,-1154.91
16210,-3.8687,0.1438,0.7029,-460.69,-1890.38,-92.35
16220,-3.8687,0.1669,0.6110,-1585.69,1968.99,-1186.16
16230,-3.8687,0.1549,0.5317,1367.43,-1796.57,-1608.22
16240,-3.8685,0.0607,0.5183,-163.82,62.74,1407.29
16250,-3.8683,-0.1008,0.5630,-226.32,-1656.19,1407.23
16260,-3.8679,-0.2809,0.6394,-898.19,77.88,1032.35
16270,-3.8676,-0.4445,0.7190,54.93,1858.83,391.85
16280,-3.8673,-0.5568,0.7634,-882.57,45.96,17.03
16290,-3.8673,-0.6240,0.7510,742.43,1733.28,-1248.54
16300,-3.8673,-0.6541,0.6813,133.06,139.40,329.59
16310,-3.8676,-0.6436,0.5811,289.31,-782.53,-1983.09
16320,-3.8678,-0.6581,0.4916,1633.06,-1610.66,1438.60
16330,-3.8680,-0.7118,0.4449,-226.32,-1063.84,94.67
16340,-3.8683,-0.7539,0.4464,898.68,967.35,360.23
16350,-3.8685,-0.8069,0.4617,-491.94,1154.72,-967.90
16360,-3.8687,-0.8632,0.4521,726.81,-892.21,1469.60
16370,-3.8689,-0.9010,0.4158,1523.68,1888.92,875.85
16380,-3.8693,-0.9338,0.3820,679.93,1232.60,1469.54
16390,-3.8696,-0.9529,0.3704,476.81,904.42,-1639.89
16400,-3.8699,-0.9454,0.3719,-1960.69,-580.02,1391.30
16410,-3.8701,-0.9139,0.3685,-1007.57,-376.89,1000.67
16420,-3.8705,-0.8713,0.3480,-976.32,-814.33,-30.58
16430,-3.8707,-0.8265,0.3169,476.81,560.79,-1421.20
16440,-3.8710,-0.7645,0.2892,-1788.82,576.48,1578.74
16450,-3.8712,-0.6812,0.2673,-1851.32,1029.72,-1749.45
16460,-3.8713,-0.6118,0.2477,820.56,-1766.97,719.24
16470,-3.8716,-0.5793,0.2281,1695.56,-282.47,-483.95
16480,-3.8717,-0.5787,0.2062,1851.81,1217.59,1812.93
16490,-3.8719,-0.6000,0.1743,1929.93,-1594.91,-390.26
16500,-3.8721,-0.6228,0.1232,-788.82,-1673.10,94.06
16510,-3.8724,-0.6194,0.0564,289.31,-219.97,-1671.69
16520,-3.8728,-0.5868,-0.0110,726.81,-766.85,-859.31
16530,-3.8730,-0.5294,-0.0660,898.68,-1391.78,374.94
16540,-3.8734,-0.4644,-0.1025,242.43,-438.54,-422.06
16550,-3.8735,-0.4042,-0.1172,570.56,-1110.29,1843.51
16560,-3.8737,-0.3534,-0.1206,273.68,1014.83,-1578.37
16570,-3.8738,-0.3051,-0.1294,-1226.32,577.39,-500.24
16580,-3.8738,-0.2491,-0.1395,961.18,-547.49,671.57
16590,-3.8739,-0.1910,-0.1467,117.43,-1844.24,-1609.68
16600,-3.8739,-0.1432,-0.1661,-445.07,1233.95,499.69
16610,-3.8740,-0.1201,-0.2069,1679.93,-1250.31,-1969.12
16620,-3.8741,-0.1262,-0.2603,633.06,1531.01,1952.70
16630,-3.8744,-0.1521,-0.3082,-148.19,-1297.18,-78.67
16640,-3.8745,-0.1731,-0.3401,539.31,562.19,608.76
16650,-3.8748,-0.1678,-0.3710,1851.81,484.01,1280.58
16660,-3.8750,-0.1407,-0.4032,-1476.32,530.88,-47.61
16670,-3.8750,-0.1115,-0.4110,1992.43,405.94,1842.96
16680,-3.8750,-0.0936,-0.3929,1742.43,-593.99,-1938.35
16690,-3.8750,-0.0782,-0.3639,23.68,1718.57,-547.67
16700,-3.8749,-0.0508,-0.3174,1992.43,1437.32,-1125.73
16710,-3.8746,-0.0048,-0.2570,1508.06,-609.50,796.20
16720,-3.8745,0.0522,-0.2120,-601.32,-875.06,-703.67
16730,-3.8744,0.1105,-0.1968,-1304.44,859.44,-234.80
16740,-3.8743,0.1763,-0.2000,-1851.32,-1187.32,1218.32
16750,-3.8743,0.2573,-0.2068,-1429.44,-1593.44,718.32
16760,-3.8743,0.3375,-0.2146,945.56,1531.74,124.57
16770,-3.8743,0.3849,-0.2172,-788.82,531.86,1327.70
16780,-3.8741,0.3859,-0.1870,1273.68,203.86,1499.57
16790,-3.8739,0.3605,-0.1063,1398.68,63.23,780.88
16800,-3.8737,0.3430,0.0001,-1851.32,-1608.70,-1062.74
16810,-3.8733,0.3577,0.0859,-85.69,16.24,-1171.88
16820,-3.8729,0.4080,0.1293,1789.31,-999.33,1625.12
16830,-3.8727,0.4889,0.1368,226.81,547.67,562.74
16840,-3.8727,0.5865,0.1208,-1413.82,1516.54,-562.26
16850,-3.8727,0.6880,0.0964,-913.82,-530.15,-890.44
16860,-3.8727,0.7501,0.0740,70.56,345.09,672.06
16870,-3.8728,0.7565,0.0663,23.68,1470.21,-1687.38
16880,-3.8728,0.7460,0.0859,836.18,485.84,-1593.63
16890,-3.8727,0.7333,0.1472,-507.57,-998.60,-1406.13
16900,-3.8724,0.7290,0.2480,1867.43,-1154.85,-874.76
16910,-3.8721,0.7412,0.3524,1320.56,-248.60,-702.70
16920,-3.8716,0.7826,0.4167,-1116.94,1110.78,625.67
16930,-3.8712,0.8431,0.4297,179.93,1345.28,125.79
16940,-3.8710,0.9017,0.4232,-70.07,-998.41,625.79
16950,-3.8708,0.9409,0.4214,-570.07,-1826.42,-1217.96
16960,-3.8707,0.9525,0.4340,445.56,1939.33,-92.96
16970,-3.8706,0.9548,0.4529,1929.93,-451.29,-155.46
16980,-3.8705,0.9604,0.4597,-1773.19,1970.58,-1811.65
16990,-3.8705,0.9741,0.4573,-1054.44,-1154.42,-280.40
17000,-3.8704,0.9846,0.4659,695.56,-1466.86,1703.98
17010,-3.8702,0.9874,0.5135,-1960.69,-357.48,1797.73
17020,-3.8700,0.9846,0.5975,-1601.32,1736.27,1125.98
17030,-3.8698,0.9774,0.6802,-1960.69,486.27,-1076.97
17040,-3.8694,0.9482,0.7206,1117.43,-935.61,376.28
17050,-3.8693,0.8912,0.7147,1383.06,236.21,-1545.47
17060,-3.8693,0.8190,0.6888,-1913.82,-513.92,-170.53
17070,-3.8693,0.7280,0.6626,836.18,173.46,1423.22
17080,-3.8694,0.6353,0.6544,1195.56,813.90,-1592.47
17090,-3.8694,0.5538,0.6735,1320.56,-233.15,1641.85
17100,-3.8694,0.4861,0.7023,-1101.32,-1795.84,-545.59
17110,-3.8693,0.4366,0.7246,-1773.19,1891.54,-779.91
17120,-3.8690,0.3969,0.7549,-101.32,750.79,282.65
17130,-3.8689,0.3549,0.8051,-1195.07,625.73,-1373.54
17140,-3.8687,0.2941,0.8574,1429.93,-952.45,-1170.35
17150,-3.8683,0.1877,0.8945,1648.68,1750.55,392.27
17160,-3.8680,0.0291,0.9165,39.31,-1499.63,1673.58
17170,-3.8678,-0.1561,0.9210,-273.19,1312.50,361.15
17180,-3.8678,-0.3350,0.9045,23.68,1905.94,-1498.23
17190,-3.8679,-0.4808,0.8645,1133.06,-203.80,-310.79
17200,-3.8680,-0.6100,0.8092,-1538.82,-1329.10,1032.90
17210,-3.8683,-0.7318,0.7678,1929.93,-407.47,798.40
17220,-3.8685,-0.7889,0.7507,-1663.82,-1704.59,1735.84
17230,-3.8687,-0.7852,0.7375,-976.32,107.79,860.84
17240,-3.8688,-0.7666,0.7183,-491.94,-1579.71,392.03
17250,-3.8690,-0.7180,0.6902,1883.06,-48.40,-1186.16
17260,-3.8691,-0.6680,0.6533,101.81,357.97,407.59
17270,-3.8694,-0.6389,0.6252,-1491.94,-360.72,1844.97
17280,-3.8695,-0.6024,0.6167,-1773.19,45.59,79.35
17290,-3.8698,-0.5857,0.6100,-1101.32,-1048.10,-530.09
17300,-3.8699,-0.5928,0.5867,1039.31,-1907.41,-998.84
17310,-3.8700,-0.6257,0.5447,133.06,-891.78,1782.35
17320,-3.8702,-0.6758,0.4952,-85.69,1733.09,-889.59
17330,-3.8705,-0.7087,0.4425,1508.06,-595.09,-1108.46
17340,-3.8707,-0.7054,0.3799,1289.31,654.85,907.10
17350,-3.8711,-0.6650,0.3104,1711.18,639.22,1688.23
17360,-3.8715,-0.6052,0.2432,-1116.94,-251.34,-1093.20
17370,-3.8717,-0.5480,0.1826,-1460.69,-860.60,1406.68
17380,-3.8719,-0.5110,0.1323,1867.43,-610.47,1172.18
17390,-3.8722,-0.5022,0.0988,-1398.19,952.09,1968.99
17400,-3.8724,-0.5186,0.0768,-273.19,655.21,-484.19
17410,-3.8726,-0.5464,0.0537,1633.06,1842.71,1531.37
17420,-3.8728,-0.5873,0.0192,-1929.44,-1110.47,-124.94
17430,-3.8729,-0.6316,-0.0228,836.18,-1532.41,1375.00
17440,-3.8732,-0.6592,-0.0656,-835.69,1092.47,1249.94
17450,-3.8734,-0.6504,-0.1117,-366.94,-376.34,187.32
17460,-3.8738,-0.5956,-0.1627,758.06,1717.47,-1578.37
17470,-3.8740,-0.5168,-0.2212,-226.32,-813.72,530.88
17480,-3.8743,-0.4581,-0.2695,1851.81,-297.91,296.39
17490,-3.8745,-0.4183,-0.2739,1367.43,1514.71,-688.05
17500,-3.8745,-0.3783,-0.2351,-1538.82,952.27,-1953.67
17510,-3.8745,-0.3422,-0.1821,-413.82,1921.08,-375.49
17520,-3.8744,-0.3160,-0.1317,211.18,702.45,-1109.74
17530,-3.8743,-0.2881,-0.0933,-445.07,-844.42,-1719.06
17540,-3.8741,-0.2391,-0.0725,-866.94,77.51,390.44
17550,-3.8741,-0.1636,-0.0688,1398.68,-1266.11,874.82
17560,-3.8743,-0.0718,-0.0791,-929.44,-797.24,-203.31
17570,-3.8743,0.0170,-0.0996,-1179.44,1890.44,1796.69
17580,-3.8744,0.0939,-0.1246,-1820.07,-750.00,-859.62
17590,-3.8744,0.1576,-0.1486,23.68,47.06,124.76
17600,-3.8745,0.2064,-0.1671,179.93,984.68,1921.57
17610,-3.8745,0.2385,-0.1783,-1570.07,-1390.26,1374.63
17620,-3.8745,0.2607,-0.1776,-1460.69,1172.30,-1672.24
17630,-3.8744,0.2894,-0.1559,1383.06,1266.11,1140.26
17640,-3.8743,0.3331,-0.1169,1054.93,47.42,1609.07
17650,-3.8741,0.3942,-0.0797,-1351.32,1031.86,1952.88
17660,-3.8740,0.4739,-0.0590,-1538.82,1797.61,999.82
17670,-3.8740,0.5477,-0.0537,664.31,454.04,-937.62
17680,-3.8739,0.6064,-0.0555,-1882.57,1126.04,765.50
17690,-3.8739,0.6459,-0.0613,1633.06,891.78,-1312.62
17700,-3.8738,0.6439,-0.0585,-1320.07,157.47,1187.38
17710,-3.8738,0.6343,-0.0311,-1570.07,516.85,-218.87
17720,-3.8737,0.6581,0.0322,1195.56,16.85,-828.19
17730,-3.8734,0.7058,0.1450,242.43,126.28,1718.81
17740,-3.8730,0.7831,0.2924,-1648.19,-1436.16,1203.37
17750,-3.8726,0.8755,0.4218,242.43,1423.40,313.05
17760,-3.8722,0.9591,0.4812,70.56,1986.08,-1717.96
17770,-3.8719,1.0177,0.4579,-1226.32,1595.58,-639.71
17780,-3.8718,1.0494,0.3909,-1726.32,-1388.67,-967.90
17790,-3.8718,1.0629,0.3372,-1663.82,-1966.74,-1561.77
17800,-3.8719,1.0494,0.3158,54.93,-841.67,-265.01
17810,-3.8719,1.0071,0.3245,-1663.82,423.89,-1968.14
17820,-3.8718,0.9453,0.3672,914.31,1533.20,141.24
17830,-3.8717,0.8838,0.4382,1008.06,-998.17,-1639.95
17840,-3.8715,0.8405,0.5170,1133.06,95.46,-358.52
17850,-3.8711,0.8276,0.5779,-413.82,-1826.54,-1233.40
17860,-3.8707,0.8302,0.6066,1945.56,1970.34,1782.35
17870,-3.8705,0.8223,0.6116,-1726.32,1642.21,-1561.34
17880,-3.8702,0.7861,0.6205,1258.06,-1717.16,610.53
17890,-3.8701,0.7258,0.6483,633.06,-576.60,1563.66
17900,-3.8700,0.6532,0.6827,914.31,-1014.22,-1686.28
17910,-3.8699,0.5820,0.7053,-382.57,-608.15,-1139.34
17920,-3.8698,0.5355,0.7039,-1491.94,-1717.65,1501.34
17930,-3.8698,0.5275,0.6808,554.93,-1905.21,1485.72
17940,-3.8698,0.5417,0.6672,-476.32,-858.40,813.78
17950,-3.8698,0.5470,0.6898,1351.81,1407.29,-1904.97
17960,-3.8696,0.5330,0.7496,-1976.32,297.91,-1623.66
17970,-3.8694,0.5088,0.8396,226.81,-45.84,1985.78
17980,-3.8690,0.4644,0.9362,1133.06,-530.27,907.84
17990,-3.8687,0.3700,1.0032,-554.44,-171.02,1783.02
18000,-3.8683,0.2169,1.0259,-632.57,406.92,-1794.92
18010,-3.8679,0.0227,1.0166,-226.32,-687.13,142.58
18020,-3.8678,-0.1812,0.9812,-1085.69,-1875.00,-1560.55
18030,-3.8677,-0.3579,0.9202,820.56,1609.01,345.64
18040,-3.8678,-0.4672,0.8591,-1804.44,1796.14,-1310.73
18050,-3.8678,-0.5414,0.8326,211.18,1983.46,501.65
18060,-3.8678,-0.6226,0.8492,-1288.82,-1407.35,939.09
18070,-3.8677,-0.6743,0.8854,320.56,717.53,407.90
18080,-3.8676,-0.6978,0.9065,1695.56,1342.41,17.33
18090,-3.8677,-0.7244,0.8928,-1304.44,45.47,-560.73
18100,-3.8678,-0.7354,0.8422,-710.69,-1704.59,657.96
18110,-3.8682,-0.7534,0.7629,1883.06,-188.96,907.84
18120,-3.8687,-0.7900,0.6816,-429.44,1670.35,-1951.66
18130,-3.8691,-0.8002,0.6124,-1116.94,-735.96,1751.28
18140,-3.8696,-0.7909,0.5486,1586.18,-1595.34,1719.91
18150,-3.8701,-0.7670,0.4871,-1226.32,-1767.21,-1467.71
18160,-3.8705,-0.7361,0.4207,1836.18,-1642.15,157.17
18170,-3.8710,-0.7051,0.3470,1789.31,1857.91,-999.21
18180,-3.8713,-0.6770,0.2787,1758.06,436.10,-358.70
18190,-3.8716,-0.6534,0.2332,1351.81,-313.84,-1562.01
18200,-3.8718,-0.6311,0.2161,367.43,1858.09,-374.57
18210,-3.8719,-0.6050,0.2162,-773.19,-329.41,-874.63
18220,-3.8719,-0.5858,0.2164,-1429.44,-313.72,15.99
18230,-3.8721,-0.5934,0.2054,1023.68,-282.41,1172.24
18240,-3.8722,-0.6179,0.1808,54.93,-1688.66,1125.37
18250,-3.8724,-0.6241,0.1364,914.31,-844.97,-1280.94
18260,-3.8727,-0.5859,0.0719,117.43,1467.53,1390.87
18270,-3.8730,-0.5251,0.0021,1008.06,1217.59,-1578.00
18280,-3.8733,-0.4634,-0.0626,789.31,280.21,62.50
18290,-3.8737,-0.4100,-0.1100,695.56,-0.92,-62.68
18300,-3.8738,-0.3661,-0.1343,-476.32,1936.65,-1375.24
18310,-3.8739,-0.3306,-0.1426,1148.68,-1172.61,-375.31
18320,-3.8739,-0.3159,-0.1300,1695.56,1764.95,-1062.81
18330,-3.8738,-0.3165,-0.0913,-429.44,-625.67,593.44
18340,-3.8737,-0.3008,-0.0409,-507.57,327.45,202.94
18350,-3.8735,-0.2637,-0.0057,1508.06,-1219.36,1187.38
18360,-3.8734,-0.2255,-0.0027,-1741.94,-719.30,749.94
18370,-3.8735,-0.1907,-0.0325,-851.32,-328.61,-125.06
18380,-3.8737,-0.1471,-0.0828,-398.19,-141.05,-1312.62
18390,-3.8739,-0.0841,-0.1298,1179.93,1421.57,-906.43
18400,-3.8741,-0.0056,-0.1627,1242.43,-593.93,-1469.06
18410,-3.8744,0.0695,-0.1892,-710.69,-812.56,-1875.37
18420,-3.8746,0.1281,-0.2152,898.68,-218.63,-1078.55
18430,-3.8748,0.1738,-0.2322,398.68,453.37,1593.32
18440,-3.8749,0.2218,-0.2378,-1741.94,-1718.44,-1453.61
18450,-3.8749,0.2816,-0.2433,398.68,1562.93,-1906.74
18460,-3.8748,0.3470,-0.2478,54.93,859.92,405.76
18470,-3.8746,0.4058,-0.2407,429.93,281.92,327.64
18480,-3.8745,0.4567,-0.2152,-54.44,1188.23,343.26
18490,-3.8745,0.5000,-0.1779,-1538.82,453.98,-375.43
18500,-3.8744,0.5533,-0.1409,8.06,1235.35,1859.01
18510,-3.8744,0.6205,-0.1095,-1163.82,1969.79,-359.68
18520,-3.8743,0.6704,-0.0822,-570.07,1985.53,1171.63
18530,-3.8743,0.7101,-0.0494,1820.56,1485.66,-1343.93
18540,-3.8741,0.7744,-0.0065,-1101.32,1673.22,1093.63
18550,-3.8740,0.8375,0.0514,-866.94,-826.66,1578.06
18560,-3.8738,0.8774,0.1379,-788.82,-1420.29,968.81
18570,-3.8734,0.9078,0.2568,320.56,1657.96,390.87
18580,-3.8730,0.9302,0.3800,211.18,876.77,-1124.51
18590,-3.8726,0.9424,0.4703,-929.44,642.40,1235.11
18600,-3.8722,0.9415,0.5302,633.06,204.96,1391.54
18610,-3.8719,0.9438,0.5808,523.68,-138.79,-1639.65
18620,-3.8717,0.9619,0.6240,820.56,-1654.42,594.85
18630,-3.8716,1.0016,0.6542,-866.94,-123.17,1094.91
18640,-3.8715,1.0627,0.6744,211.18,-263.67,469.97
18650,-3.8715,1.1188,0.6803,39.31,-1669.80,-545.59
18660,-3.8713,1.1282,0.6841,-788.82,-919.74,-233.09
18670,-3.8711,1.0651,0.7251,414.31,-435.30,-608.09
18680,-3.8707,0.9421,0.7937,336.18,814.58,1688.90
18690,-3.8704,0.8129,0.8491,601.81,1595.58,532.78
18700,-3.8701,0.7329,0.8837,54.93,689.09,1470.40
18710,-3.8700,0.7078,0.8932,1820.56,1110.78,1751.71
18720,-3.8700,0.7308,0.8545,-1398.19,-1670.53,1189.21
18730,-3.8701,0.7710,0.7798,1554.93,1376.40,-482.73
18740,-3.8701,0.7490,0.7256,-1304.44,-186.04,-342.29
18750,-3.8700,0.6334,0.7235,-116.94,876.40,1907.65
18760,-3.8699,0.4684,0.7640,1086.18,610.60,-795.47
18770,-3.8696,0.3171,0.8270,-38.82,1797.73,-670.41
18780,-3.8693,0.2196,0.8928,601.81,1859.99,532.84
18790,-3.8690,0.1777,0.9370,117.43,-1718.32,1907.96
18800,-3.8688,0.1602,0.9458,-1241.94,-62.19,-826.35
18810,-3.8685,0.1350,0.9172,508.06,1062.81,-1607.54
18820,-3.8684,0.0768,0.8588,1289.31,1406.49,1954.90
18830,-3.8684,-0.0332,0.7944,1836.18,1922.00,-1545.23
18840,-3.8684,-0.1974,0.7527,-241.94,1703.00,-1217.22
18850,-3.8683,-0.3979,0.7501,-1257.57,358.95,-1889.16
18860,-3.8680,-0.5907,0.7799,1070.56,30.46,1282.71
18870,-3.8678,-0.7612,0.8198,398.68,-157.41,1876.46
18880,-3.8677,-0.9255,0.8420,-1429.44,951.60,-467.16
18890,-3.8677,-1.0226,0.8250,1539.31,-204.96,-357.79
18900,-3.8678,-1.0299,0.7756,1117.43,1607.36,1220.34
18910,-3.8683,-1.0034,0.7150,179.93,-705.14,-748.54
18920,-3.8689,-0.9392,0.6321,-429.44,-470.76,-483.03
18930,-3.8694,-0.8746,0.5203,-210.69,919.98,407.47
18940,-3.8699,-0.8389,0.4263,54.93,-1392.33,-1124.02
18950,-3.8701,-0.8191,0.3822,633.06,-1423.52,-1171.08
18960,-3.8702,-0.8131,0.3668,-835.69,935.85,1235.11
18970,-3.8704,-0.7748,0.3656,-70.07,-1032.90,469.42
18980,-3.8705,-0.7168,0.3657,836.18,-1189.03,281.92
18990,-3.8707,-0.6794,0.3507,258.06,-1173.28,-311.83
19000,-3.8708,-0.6542,0.3108,1039.31,904.91,797.55
19010,-3.8712,-0.6172,0.2460,273.68,-204.41,-1343.20
19020,-3.8716,-0.5751,0.1736,1008.06,-501.22,-1405.82
19030,-3.8719,-0.5334,0.1115,-1601.32,-1766.78,-1827.82
19040,-3.8723,-0.4943,0.0562,-273.19,-1719.85,-1437.32
19050,-3.8727,-0.4604,-0.0043,742.43,-797.85,-93.69
19060,-3.8729,-0.4310,-0.0658,1070.56,-532.17,1749.94
19070,-3.8733,-0.4115,-0.1219,836.18,-407.10,-312.68
19080,-3.8735,-0.3994,-0.1720,-663.82,405.40,-1968.99
19090,-3.8738,-0.3928,-0.2086,883.06,1999.21,1843.38
19100,-3.8740,-0.3888,-0.2242,1726.81,1311.71,-344.18
19110,-3.8741,-0.3845,-0.2251,-1757.57,-688.29,-641.11
19120,-3.8741,-0.3685,-0.2180,-1210.69,-797.67,296.39
19130,-3.8743,-0.3342,-0.2113,836.18,108.64,1640.20
19140,-3.8744,-0.2867,-0.2150,1226.81,968.08,-1266.05
19150,-3.8745,-0.2413,-0.2263,-695.07,499.39,-594.18
19160,-3.8746,-0.2000,-0.2358,1117.43,-953.61,-516.11
19170,-3.8748,-0.1554,-0.2421,-1585.69,1827.70,-750.49
19180,-3.8749,-0.0979,-0.2466,117.43,1030.94,-953.61
19190,-3.8750,-0.0322,-0.2523,-523.19,452.88,-1062.99
19200,-3.8439,0.0314,-0.2577,-116.94,-281.37,-750.55
19210,-3.8439,0.0973,-0.2612,23.68,-984.31,671.33
19220,-3.8439,0.1581,-0.2633,461.18,-1437.32,30.70
19230,-3.8439,0.2004,-0.2539,242.43,-1702.82,1890.08
19240,-3.8750,0.2271,-0.2178,1664.31,-499.63,-1906.80
19250,-3.8749,0.2499,-0.1536,1070.56,125.43,-297.30
19260,-3.8746,0.2810,-0.0850,-7.57,344.18,1671.57
19270,-3.8745,0.3320,-0.0350,-23.19,1125.49,-1281.43
19280,-3.8744,0.4115,-0.0079,-1491.94,-483.76,1859.25
19290,-3.8744,0.5182,0.0049,679.93,-1014.83,-703.19
19300,-3.8743,0.6281,0.0200,-1663.82,625.98,671.88
19310,-3.8743,0.7465,0.0441,398.68,-1436.28,-703.12
19320,-3.8741,0.8656,0.0707,-445.07,1642.03,-265.56
19330,-3.8739,0.9181,0.1024,-1195.07,1048.52,-1703.00
19340,-3.8737,0.9067,0.1313,1523.68,1111.15,1093.93
19350,-3.8735,0.8718,0.1381,70.56,814.27,-1577.88
19360,-3.8734,0.8505,0.1515,-398.19,1673.52,-968.51
19370,-3.8732,0.8658,0.2134,867.43,-607.73,953.37
19380,-3.8729,0.8923,0.3005,-1163.82,-685.85,31.62
19390,-3.8727,0.9132,0.3950,-1773.19,-1529.54,516.17
19400,-3.8723,0.9183,0.5063,898.68,-1435.73,813.23
19410,-3.8718,0.9138,0.6226,1554.93,814.27,547.85
19420,-3.8713,0.9080,0.7351,976.81,-310.73,1876.16
19430,-3.8708,0.9091,0.8260,226.81,-1904.48,-1498.60
19440,-3.8705,0.9238,0.8541,367.43,1736.15,-1326.54
19450,-3.8704,0.9478,0.8019,-1741.94,1329.90,-857.73
19460,-3.8705,0.9633,0.6958,1320.56,-1357.54,-717.22
19470,-3.8707,0.9481,0.5912,-695.07,1064.33,-1608.03
19480,-3.8710,0.8850,0.5447,1367.43,-326.29,-1748.90
19490,-3.8711,0.7677,0.5769,1289.31,1720.46,-592.71
19500,-3.8710,0.6289,0.6674,-1726.32,1845.21,-811.40
19510,-3.8706,0.5236,0.7894,508.06,1423.10,298.16
19520,-3.8702,0.4910,0.9250,-976.32,1047.85,329.65
19530,-3.8699,0.5421,1.0220,-1148.19,-1592.83,1.77
19540,-3.8696,0.6476,1.0371,1398.68,-1186.46,376.95
19550,-3.8695,0.7307,1.0029,-1101.32,751.22,1283.26
19560,-3.8694,0.7200,0.9781,1539.31,376.40,48.83
19570,-3.8694,0.6320,0.9829,164.31,1204.53,-1607.48
19580,-3.8693,0.5162,0.9911,898.68,1813.72,1626.89
19590,-3.8691,0.3804,0.9805,-1913.82,-1139.65,1330.02
19600,-3.8691,0.2249,0.9534,695.56,1500.73,-201.23
19610,-3.8690,0.0681,0.9148,789.31,-1968.32,329.96
19620,-3.8690,-0.0609,0.8792,726.81,1093.87,533.02
19630,-3.8690,-0.1538,0.8634,211.18,546.75,-1529.54
19640,-3.8689,-0.2148,0.8643,320.56,-1469.06,-1342.10
19650,-3.8687,-0.2506,0.8702,508.06,-1359.80,986.02
19660,-3.8684,-0.2871,0.8816,-70.07,-594.30,1173.52
19670,-3.8682,-0.3420,0.9041,-741.94,858.76,1736.08
19680,-3.8680,-0.3911,0.9298,226.81,-266.30,-138.92
19690,-3.8679,-0.4287,0.9397,1945.56,-969.54,-1623.23
19700,-3.8679,-0.4983,0.9243,1133.06,296.02,1939.33
19710,-3.8680,-0.5883,0.8889,226.81,-1672.85,-873.23
19720,-3.8682,-0.6589,0.8452,711.18,1795.72,-1217.04
19730,-3.8683,-0.6964,0.8016,-335.69,201.78,657.90
19740,-3.8685,-0.6798,0.7574,-1132.57,-1376.40,235.90
19750,-3.8689,-0.6259,0.7028,992.43,967.41,1860.84
19760,-3.8693,-0.5675,0.6372,-101.32,1967.47,-1420.53
19770,-3.8695,-0.5267,0.5740,-632.57,1576.97,266.85
19780,-3.8698,-0.5032,0.5216,586.18,1483.34,47.97
19790,-3.8700,-0.4844,0.4767,-398.19,-1219.79,672.85
19800,-3.8702,-0.4739,0.4324,-1991.94,1030.27,157.17
19810,-3.8706,-0.4943,0.3843,-648.19,-641.60,-1749.21
19820,-3.8710,-0.5551,0.3259,742.43,1202.15,-264.89
19830,-3.8713,-0.6155,0.2506,961.18,1733.28,-30.64
19840,-3.8717,-0.6427,0.1537,1226.81,92.53,1625.49
19850,-3.8722,-0.6458,0.0458,1742.43,-313.78,1750.24
19860,-3.8727,-0.6362,-0.0499,1351.81,1873.72,-1437.44
19870,-3.8730,-0.6106,-0.1278,-1429.44,1623.72,1343.63
19880,-3.8734,-0.5837,-0.1993,1851.81,-344.97,-1047.18
19890,-3.8737,-0.5780,-0.2502,1289.31,-1501.16,-94.18
19900,-3.8738,-0.5959,-0.2585,-1976.32,-16.78,-922.42
19910,-3.8739,-0.6138,-0.2458,-273.19,-1079.35,-1641.17
19920,-3.8740,-0.6063,-0.2418,1445.56,545.65,1421.39
19930,-3.8741,-0.5714,-0.2388,-1601.32,1061.28,1749.51
19940,-3.8741,-0.5056,-0.2245,-1132.57,1451.97,233.89
19950,-3.8743,-0.4238,-0.2155,-710.69,-719.79,-672.36
19960,-3.8743,-0.3452,-0.2267,1758.06,436.65,983.95
19970,-3.8744,-0.2704,-0.2510,-179.44,-1000.73,905.76
19980,-3.8746,-0.1968,-0.2710,1398.68,-109.92,-47.42
19990,-3.8748,-0.1261,-0.2780,-1179.44,1327.70,-563.05
20000,-3.8748,-0.0636,-0.2728,-132.57,437.19,561.95
20010,-3.8748,-0.0154,-0.2537,-132.57,1093.57,218.20
20020,-3.8748,0.0166,-0.2214,-1960.69,-453.19,-1781.80
20030,-3.8746,0.0457,-0.1888,-1866.94,-343.75,1233.89
20040,-3.8746,0.0831,-0.1661,1851.81,-171.81,-453.55
20050,-3.8746,0.1309,-0.1519,-1351.32,-1265.50,-62.87
20060,-3.8746,0.1890,-0.1487,758.06,562.74,1999.69
20070,-3.8748,0.2532,-0.1560,195.56,969.12,-1187.81
20080,-3.8748,0.3118,-0.1582,414.31,31.74,937.19
20090,-3.8748,0.3549,-0.1449,-85.69,-249.45,-1984.74
20100,-3.8746,0.3854,-0.1212,1429.93,1453.80,1187.19
20110,-3.8745,0.4105,-0.0991,1336.18,485.11,781.01
20120,-3.8745,0.4297,-0.0762,554.93,-686.71,-62.74
20130,-3.8744,0.4706,-0.0383,-991.94,-1749.21,-1047.06
20140,-3.8743,0.5568,0.0209,242.43,-905.33,-734.50
20150,-3.8740,0.6605,0.0995,-726.32,-1327.09,1437.50
20160,-3.8738,0.7731,0.1768,554.93,735.66,953.31
20170,-3.8735,0.8782,0.2241,-1038.82,-1373.54,1484.68
20180,-3.8733,0.9327,0.2474,414.31,689.21,-983.95
20190,-3.8729,0.9369,0.2731,-601.32,-326.35,1062.93
20200,-3.8727,0.9081,0.3226,-70.07,-1045.10,-1671.39
20210,-3.8724,0.8870,0.4087,242.43,1298.65,-1030.64
20220,-3.8721,0.9019,0.5144,1539.31,314.21,1016.42
20230,-3.8717,0.9491,0.6179,-554.44,1845.46,719.73
20240,-3.8715,1.0129,0.6901,1492.43,-904.42,-467.59
20250,-3.8712,1.0878,0.7001,1664.31,330.08,-1326.78
20260,-3.8711,1.1636,0.6633,-757.57,1611.45,1876.34
20270,-3.8711,1.1887,0.6233,945.56,908.51,-1608.09
20280,-3.8711,1.1318,0.6141,164.31,-216.43,1782.41
20290,-3.8711,1.0106,0.6486,883.06,-1388.43,-1623.84
20300,-3.8710,0.8779,0.7170,1367.43,-982.42,1391.85
20310,-3.8708,0.7706,0.7980,383.06,-217.04,-389.28
20320,-3.8705,0.7080,0.8696,-1351.32,-1857.91,1689.03
20330,-3.8701,0.6863,0.9167,-1366.94,-686.16,-1842.10
20340,-3.8698,0.6882,0.9370,-148.19,1345.03,1642.40
20350,-3.8695,0.6978,0.9424,101.81,-61.16,1767.40
20360,-3.8694,0.6835,0.9429,1320.56,626.34,1986.21
20370,-3.8694,0.6150,0.9370,-507.57,688.78,-1310.67
20380,-3.8694,0.5104,0.9215,-1273.19,-61.34,486.15
20390,-3.8695,0.4165,0.8958,1336.18,1954.10,454.90
20400,-3.8696,0.3544,0.8666,1320.56,-1342.96,454.83
20410,-3.8698,0.3145,0.8470,1367.43,-1077.45,-1810.85
20420,-3.8698,0.2606,0.8545,258.06,422.49,-654.60
20430,-3.8695,0.1609,0.8970,1367.43,1375.49,845.40
20440,-3.8693,0.0173,0.9617,601.81,-1187.19,-1576.42
20450,-3.8689,-0.1333,1.0331,-1773.19,-906.25,-1732.54
20460,-3.8685,-0.2537,1.0955,-1054.44,249.69,1345.76
20470,-3.8683,-0.3253,1.1207,-460.69,233.83,1095.89
20480,-3.8682,-0.3684,1.0936,-1632.57,-531.92,799.01
20490,-3.8682,-0.4280,1.0457,851.81,-0.73,1142.70
20500,-3.8683,-0.4951,1.0123,1226.81,1858.52,-872.99
20510,-3.8683,-0.5328,0.9913,633.06,1592.77,595.70
20520,-3.8684,-0.5626,0.9641,-195.07,-1094.85,-1794.98
20530,-3.8685,-0.5846,0.9222,-7.57,-579.28,-1545.04
20540,-3.8687,-0.5748,0.8783,1179.93,-1938.66,1267.40
20550,-3.8689,-0.5762,0.8435,-1570.07,436.34,-107.67
20560,-3.8690,-0.5948,0.8186,-1741.94,-16.78,-654.66
20570,-3.8691,-0.6273,0.7821,-132.57,795.65,-826.54
20580,-3.8693,-0.6787,0.7159,-288.82,123.72,1095.28
20590,-3.8696,-0.7266,0.6301,1133.06,-345.09,-498.66
20600,-3.8700,-0.7494,0.5404,-991.94,670.41,-1576.90
20610,-3.8705,-0.7413,0.4530,86.18,1186.04,-592.71
20620,-3.8708,-0.7146,0.3772,1117.43,1998.54,922.73
20630,-3.8712,-0.6864,0.3204,539.31,295.47,281.98
20640,-3.8716,-0.6560,0.2694,148.68,1029.91,828.74
20650,-3.8719,-0.6135,0.2124,39.31,-1501.28,-1530.76
20660,-3.8722,-0.5669,0.1532,1476.81,-798.10,-1765.26
20670,-3.8723,-0.5278,0.1069,-554.44,-376.16,47.12
20680,-3.8726,-0.4915,0.0792,445.56,1702.09,-984.19
20690,-3.8727,-0.4539,0.0535,1101.81,-1844.73,1812.62
20700,-3.8729,-0.4344,0.0159,1914.31,-1141.54,-671.81
20710,-3.8732,-0.4351,-0.0275,398.68,-1953.98,-171.88
20720,-3.8733,-0.4403,-0.0664,320.56,499.15,156.19
20730,-3.8735,-0.4305,-0.0995,-351.32,-485.29,1015.44
20740,-3.8738,-0.4076,-0.1270,898.68,-719.60,-422.12
20750,-3.8739,-0.3864,-0.1432,-163.82,-235.23,-0.31
20760,-3.8739,-0.3612,-0.1520,-1445.07,1686.71,1280.94
20770,-3.8740,-0.3143,-0.1617,1773.68,561.77,-1640.93
20780,-3.8741,-0.2526,-0.1586,-226.32,-688.17,-312.87
20790,-3.8741,-0.1812,-0.1400,-320.07,-281.80,1952.76
20800,-3.8741,-0.1031,-0.1273,820.56,-1906.62,1046.57
20810,-3.8743,-0.0363,-0.1346,-1195.07,-281.49,-0.31
20820,-3.8743,0.0123,-0.1643,-632.57,-1218.87,905.94
20830,-3.8745,0.0568,-0.2050,1586.18,-1031.25,-984.74
20840,-3.8748,0.1166,-0.2433,-726.32,1765.69,-562.93
20850,-3.8749,0.1937,-0.2772,-1070.07,859.56,280.76
20860,-3.8439,0.2767,-0.3088,804.93,515.99,-656.80
20870,-3.8439,0.3462,-0.3373,-570.07,469.24,1124.39
20880,-3.8439,0.3821,-0.3560,320.56,828.80,1296.20
20890,-3.8439,0.3763,-0.3478,914.31,-1561.77,-688.23
20900,-3.8750,0.3601,-0.2939,179.93,-514.89,-1047.61
20910,-3.8748,0.3783,-0.1989,-1898.19,-1624.33,890.01
20920,-3.8745,0.4253,-0.0850,429.93,-1452.39,1702.70
20930,-3.8741,0.4872,0.0112,-1554.44,1125.79,77.94
20940,-3.8739,0.5800,0.0497,-1632.57,1438.42,125.00
20950,-3.8739,0.7028,0.0310,-1757.57,-1639.53,-1374.94
20960,-3.8739,0.8051,0.0000,1961.18,-29.91,812.50
20970,-3.8740,0.8514,-0.0059,-945.07,1.53,-1859.38
20980,-3.8740,0.8407,0.0269,992.43,-748.35,1843.69
20990,-3.8739,0.8044,0.1100,-382.57,-560.91,-1546.88
21000,-3.8735,0.7852,0.2412,-1023.19,-1920.35,609.56
21010,-3.8732,0.8081,0.3896,508.06,-1123.47,-1437.07
21020,-3.8727,0.8760,0.5200,-554.44,1876.53,-1577.39
21030,-3.8722,0.9655,0.6176,133.06,-1435.79,-1827.15
21040,-3.8718,1.0363,0.6835,-413.82,-951.29,-295.72
21050,-3.8715,1.0549,0.7217,648.68,-513.61,-1701.84
21060,-3.8712,1.0273,0.7338,-960.69,377.01,-1529.85
21070,-3.8710,0.9873,0.7324,-491.94,1923.83,1063.90
21080,-3.8708,0.9691,0.7365,-1616.94,1751.89,-686.10
21090,-3.8706,0.9749,0.7427,54.93,-1732.48,-1311.10
21100,-3.8704,0.9803,0.7367,789.31,-935.61,-607.97
21110,-3.8701,0.9590,0.7216,1492.43,-1701.23,-404.85
21120,-3.8699,0.9133,0.7072,-1241.94,361.21,1063.90
21130,-3.8699,0.8657,0.6904,914.31,-1482.60,-701.78
21140,-3.8699,0.8203,0.6691,-1179.44,376.65,-295.53
21150,-3.8698,0.7518,0.6558,1008.06,1642.21,923.16
21160,-3.8696,0.6561,0.6606,242.43,-61.04,79.35
21170,-3.8695,0.5581,0.6871,-7.57,563.72,1360.66
21180,-3.8693,0.4718,0.7321,-554.44,-45.84,1173.16
21190,-3.8690,0.3876,0.7727,398.68,1704.04,-1998.60
21200,-3.8688,0.3019,0.7999,1617.43,-1093.02,1595.21
21210,-3.8687,0.2307,0.8185,-1351.32,-1608.83,-1529.72
21220,-3.8685,0.1788,0.8246,1539.31,766.05,1189.09
21230,-3.8685,0.1354,0.8190,-1101.32,1547.18,-342.16
21240,-3.8684,0.0740,0.8136,1336.18,828.37,-1107.79
21250,-3.8683,-0.0172,0.8196,1476.81,140.75,-1857.79
21260,-3.8682,-0.1179,0.8354,1804.93,921.81,735.96
21270,-3.8682,-0.2095,0.8613,914.31,-1047.12,-185.91
21280,-3.8679,-0.2959,0.9008,1195.56,-1734.80,782.90
21290,-3.8678,-0.3859,0.9403,-1866.94,-688.11,-701.42
21300,-3.8676,-0.5087,0.9512,-1382.57,374.21,1079.96
21310,-3.8676,-0.6439,0.9308,-1101.32,1764.59,-1623.17
21320,-3.8677,-0.7164,0.8854,1586.18,-845.03,1361.15
21330,-3.8680,-0.7498,0.8167,304.93,1342.35,-342.04
21340,-3.8683,-0.7589,0.7561,39.31,545.41,32.84
21350,-3.8687,-0.7371,0.7269,-1132.57,795.35,-1436.04
21360,-3.8688,-0.7119,0.7213,1664.31,1061.04,751.40
21370,-3.8690,-0.6796,0.7086,883.06,342.35,-701.72
21380,-3.8693,-0.6495,0.6631,1023.68,-1282.59,-764.28
21390,-3.8696,-0.6257,0.5890,867.43,889.34,-311.22
21400,-3.8700,-0.6147,0.5034,-85.69,-595.03,1376.10
21410,-3.8705,-0.6188,0.4237,1320.56,451.90,1844.73
21420,-3.8710,-0.6295,0.3522,804.93,-1751.22,-1202.33
21430,-3.8713,-0.6367,0.2839,-570.07,1092.47,719.42
21440,-3.8718,-0.6366,0.2170,-1491.94,358.09,-1218.20
21450,-3.8722,-0.6240,0.1519,-1476.32,-204.41,609.74
21460,-3.8727,-0.5902,0.0934,133.06,-548.10,-968.51
21470,-3.8730,-0.5486,0.0442,461.18,-32.41,-765.50
21480,-3.8733,-0.5087,0.0090,1789.31,1670.78,1500.06
21490,-3.8735,-0.4572,-0.0078,-1101.32,1170.84,1796.88
21500,-3.8738,-0.3856,-0.0201,1492.43,-985.29,-609.44
21510,-3.8739,-0.3115,-0.0457,-1351.32,1436.71,1281.19
21520,-3.8741,-0.2563,-0.0800,133.06,-1828.74,-484.50
21530,-3.8743,-0.2264,-0.1140,-804.44,1780.70,-1718.93
21540,-3.8744,-0.2297,-0.1438,-976.32,1421.39,-1765.87
21550,-3.8745,-0.2722,-0.1588,-1398.19,1608.89,-265.93
21560,-3.8745,-0.3370,-0.1603,1164.31,-313.05,1687.13
21570,-3.8746,-0.3873,-0.1614,867.43,-500.67,-984.74
21580,-3.8748,-0.3969,-0.1675,-1570.07,-641.42,-265.99
21590,-3.8748,-0.3711,-0.1743,1211.18,-1422.67,640.26
21600,-3.8749,-0.3248,-0.1766,508.06,1702.39,-1875.37
21610,-3.8749,-0.2727,-0.1636,-1570.07,1405.58,499.63
21620,-3.8749,-0.2246,-0.1354,1101.81,-922.42,124.63
21630,-3.8749,-0.1741,-0.1073,-741.94,-1312.99,1280.94
21640,-3.8749,-0.1078,-0.0828,1726.81,-1719.12,-15.87
21650,-3.8748,-0.0320,-0.0568,-1788.82,1421.63,-218.93
21660,-3.8746,0.0413,-0.0288,-85.69,749.88,-203.25
21670,-3.8745,0.1057,-0.0035,1289.31,312.56,-921.94
21680,-3.8744,0.1672,0.0159,1539.31,-452.94,1734.31
21690,-3.8744,0.2386,0.0280,1414.31,-1968.44,-281.25
21700,-3.8743,0.3235,0.0330,-1445.07,-421.45,375.00
21710,-3.8744,0.4192,0.0342,1414.31,219.36,-343.69
21720,-3.8744,0.5264,0.0415,1664.31,375.79,-1390.56
21730,-3.8744,0.6257,0.0668,-616.94,1313.48,-531.19
21740,-3.8743,0.7008,0.1183,101.81,548.10,-328.00
21750,-3.8739,0.7546,0.1914,1711.18,-858.03,47.06
21760,-3.8737,0.7706,0.2701,601.81,501.46,-327.76
21770,-3.8733,0.7700,0.3308,-1351.32,-1420.41,-765.14
21780,-3.8729,0.8289,0.3638,-1429.44,-1654.79,906.86
21790,-3.8727,0.9215,0.4032,-1898.19,-1435.91,-1311.83
21800,-3.8723,0.9841,0.4641,1961.18,-388.85,969.48
21810,-3.8721,1.0338,0.5266,1976.81,-591.86,-702.27
21820,-3.8717,1.0826,0.5754,336.18,-591.74,-467.77
21830,-3.8712,1.1230,0.6044,-1413.82,1658.33,1657.35
21840,-3.8708,1.1393,0.5961,-241.94,1361.51,-1686.34
21850,-3.8706,1.1263,0.5269,1836.18,299.07,1360.53
21860,-3.8706,1.0823,0.4375,179.93,-560.30,-1811.52
21870,-3.8707,1.0071,0.3942,-1460.69,2.08,-342.90
21880,-3.8707,0.9166,0.4102,914.31,-1544.92,-1530.52
21890,-3.8706,0.8306,0.4547,1336.18,501.77,-1577.33
21900,-3.8704,0.7549,0.4913,-1679.44,-1795.29,-749.15
21910,-3.8700,0.6943,0.5044,633.06,-1107.91,1375.92
21920,-3.8698,0.6469,0.4979,883.06,563.84,1532.23
21930,-3.8696,0.6049,0.4838,-1195.07,-264.40,-545.96
21940,-3.8694,0.5713,0.4716,1429.93,1923.03,875.92
21950,-3.8693,0.5435,0.4701,1133.06,360.47,-295.96
21960,-3.8689,0.5176,0.4735,1570.56,172.91,329.04
21970,-3.8687,0.4796,0.4684,-1741.94,610.35,563.42
21980,-3.8685,0.4370,0.4629,1398.68,-45.96,-1124.15
21990,-3.8683,0.3905,0.4785,-54.44,-749.21,828.98
22000,-3.8682,0.3280,0.5205,1992.43,1250.73,-170.96
22010,-3.8679,0.2534,0.5717,1992.43,-1374.39,-1295.90
22020,-3.8677,0.1660,0.6096,445.56,1172.36,32.35
22030,-3.8677,0.0605,0.6299,1258.06,-1968.44,-108.22
22040,-3.8676,-0.0582,0.6338,-241.94,625.06,-1967.53
22050,-3.8676,-0.1713,0.6160,554.93,1140.50,1157.47
22060,-3.8677,-0.2593,0.5712,-1913.82,-1140.99,438.66
22070,-3.8679,-0.3062,0.5118,-1179.44,1124.45,922.97
22080,-3.8682,-0.3346,0.4679,820.56,1530.64,579.10
22090,-3.8684,-0.3469,0.4523,1179.93,-94.42,1375.85
22100,-3.8685,-0.3159,0.4521,-398.19,1905.52,391.48
22110,-3.8687,-0.2625,0.4535,-429.44,1889.95,797.73
22120,-3.8688,-0.2310,0.4497,-1585.69,-1938.05,657.10
22130,-3.8690,-0.2367,0.4296,-1554.44,1577.64,-1061.65
22140,-3.8693,-0.2686,0.3868,1711.18,-1000.49,-30.46
22150,-3.8694,-0.3413,0.3370,1633.06,1530.70,891.36
22160,-3.8696,-0.4495,0.2911,320.56,-844.42,1797.49
22170,-3.8699,-0.5454,0.2339,-1523.19,1280.33,1234.92
22180,-3.8702,-0.6079,0.1561,-1804.44,1952.03,1984.80
22190,-3.8706,-0.6339,0.0714,-1804.44,-1.22,15.87
22200,-3.8711,-0.6389,-0.0048,-1132.57,1154.97,1562.62
22210,-3.8715,-0.6398,-0.0652,-1773.19,-595.03,843.69
22220,-3.8718,-0.6298,-0.1062,-1882.57,-329.41,1952.94
22230,-3.8721,-0.6074,-0.1293,-601.32,-1579.41,1062.26
22240,-3.8723,-0.5852,-0.1354,-1741.94,-532.47,-1812.81
22250,-3.8726,-0.5787,-0.1289,1101.81,-1313.66,-562.81
22260,-3.8728,-0.5726,-0.1254,1929.93,-485.53,-922.18
22270,-3.8730,-0.5536,-0.1425,-1288.82,-32.41,1640.32
22280,-3.8734,-0.5122,-0.1780,1148.68,1780.15,-531.56
22290,-3.8737,-0.4456,-0.2218,-1554.44,1233.34,109.01
22300,-3.8740,-0.3713,-0.2582,-1023.19,-375.92,405.76
22310,-3.8744,-0.2988,-0.2678,476.81,-1031.98,1936.95
22320,-3.8746,-0.2220,-0.2498,1758.06,1733.76,1968.20
22330,-3.8748,-0.1368,-0.2153,-413.82,46.39,1062.01
22340,-3.8749,-0.0588,-0.1666,-1507.57,452.82,-656.68
22350,-3.8748,0.0071,-0.0951,476.81,-1312.62,952.76
22360,-3.8746,0.0706,-0.0144,914.31,-171.88,734.13
22370,-3.8745,0.1357,0.0468,1039.31,-1843.63,140.56
22380,-3.8745,0.2002,0.0690,1383.06,1984.62,453.19
22390,-3.8746,0.2623,0.0586,1633.06,828.49,1359.50
22400,-3.8748,0.3204,0.0299,1586.18,-499.51,281.31
22410,-3.8750,0.3660,-0.0199,1023.68,-171.26,-1906.25
22420,-3.8440,0.4008,-0.0750,-1148.19,1453.80,-296.94
22430,-3.8440,0.4332,-0.0825,-695.07,-1593.02,1046.69
22440,-3.8439,0.4750,-0.0083,-538.82,1438.29,-1656.43
22450,-3.8748,0.5050,0.1212,804.93,-1061.58,-1281.31
22460,-3.8743,0.4987,0.2593,648.68,-483.40,1781.43
22470,-3.8738,0.4993,0.3713,-163.82,1188.42,391.11
22480,-3.8734,0.5552,0.4296,-85.69,-467.83,1969.42
22490,-3.8730,0.6223,0.4208,-929.44,-1014.59,1235.17
22500,-3.8728,0.6487,0.3573,-335.69,1860.53,94.54
22510,-3.8728,0.6399,0.2783,-960.69,1735.60,-1249.33
22520,-3.8728,0.6066,0.2311,1914.31,-373.78,-562.01
22530,-3.8727,0.5956,0.2417,1648.68,1579.28,1672.30
22540,-3.8724,0.6404,0.3149,242.43,-1061.34,1734.80
22550,-3.8719,0.7382,0.4436,1976.81,313.72,1250.61
22560,-3.8713,0.8635,0.5791,-1507.57,782.65,1125.85
22570,-3.8707,0.9814,0.6492,-1460.69,-1873.35,1.10
22580,-3.8704,1.0579,0.6240,1633.06,-904.36,1141.85
22590,-3.8702,1.0679,0.5465,-585.69,-122.99,-873.84
22600,-3.8702,1.0125,0.4701,695.56,1955.20,-780.21
22610,-3.8702,0.9232,0.4181,1601.81,173.83,1219.67
22620,-3.8702,0.8374,0.3970,-1820.07,1517.40,1344.54
22630,-3.8701,0.7737,0.3992,-804.44,-1185.91,281.98
22640,-3.8700,0.7501,0.4180,-960.69,-904.79,1391.36
22650,-3.8698,0.7706,0.4542,23.68,1501.46,766.42
22660,-3.8695,0.8184,0.5061,-1351.32,-1857.91,-1921.02
22670,-3.8691,0.8635,0.5632,758.06,782.84,500.98
22680,-3.8689,0.8809,0.6064,-1460.69,95.40,-1092.65
22690,-3.8687,0.8546,0.6078,758.06,1626.71,-1420.72
22700,-3.8685,0.8019,0.5667,1398.68,1798.52,876.16
22710,-3.8687,0.7482,0.5167,-1351.32,532.78,-1717.65
22720,-3.8688,0.6884,0.4924,-226.32,-1857.97,-1217.77
22730,-3.8688,0.6123,0.4987,117.43,-967.41,1610.29
22740,-3.8688,0.5330,0.5212,-1616.94,-170.72,-452.21
22750,-3.8685,0.4554,0.5518,226.81,-1280.21,594.73
22760,-3.8683,0.3667,0.5853,-1695.07,-1374.15,32.29
22770,-3.8680,0.2666,0.6230,-1054.44,-1077.45,797.97
22780,-3.8678,0.1603,0.6562,-1866.94,-249.51,1157.41
22790,-3.8676,0.0588,0.6727,523.68,0.31,126.28
22800,-3.8674,-0.0321,0.6759,-460.69,-1890.56,1845.03
22810,-3.8673,-0.1190,0.6721,-101.32,-1468.87,1954.41
22820,-3.8672,-0.2052,0.6702,773.68,-1953.37,251.28
22830,-3.8672,-0.2844,0.6792,1742.43,1796.45,1516.91
22840,-3.8672,-0.3674,0.6982,-398.19,-1047.49,-1623.72
22850,-3.8672,-0.4585,0.7217,976.81,1389.89,-1748.66
22860,-3.8672,-0.5183,0.7493,1320.56,389.71,970.15
22870,-3.8673,-0.5532,0.7766,1664.31,-79.16,-732.97
22880,-3.8673,-0.6035,0.7943,1195.56,-579.22,48.34
22890,-3.8676,-0.6440,0.7904,-1241.94,1686.28,1079.65
22900,-3.8679,-0.6830,0.7568,1570.56,1186.22,1970.28
22910,-3.8684,-0.7308,0.7023,586.18,889.28,-951.66
22920,-3.8689,-0.7631,0.6361,-1538.82,1904.79,548.22
22930,-3.8695,-0.7720,0.5714,-1663.82,1435.97,907.47
22940,-3.8701,-0.7538,0.5248,1195.56,1154.72,-1092.65
22950,-3.8706,-0.7048,0.4926,-476.32,-814.03,-1061.52
22960,-3.8710,-0.6312,0.4611,1789.31,-938.90,750.92
22970,-3.8713,-0.5629,0.4246,-788.82,-970.03,235.23
22980,-3.8717,-0.5056,0.3879,-38.82,-1641.78,610.17
22990,-3.8721,-0.4406,0.3516,-710.69,1670.84,1063.23
23000,-3.8724,-0.3717,0.3094,-382.57,1014.71,1438.17
