timestamp_ms,ax,ay,az,gx,gy,gz
0,-3.8712,-0.4827,1.1099,-70.07,-1125.92,267.70
10,-3.8712,-0.5803,1.1062,-1773.19,-1922.85,267.76
20,-3.8713,-0.7256,1.0477,1726.81,1608.22,-1935.36
30,-3.8716,-0.8672,0.9492,-866.94,-1876.46,-60.49
40,-3.8718,-0.9745,0.8438,1008.06,1513.92,-1123.17
50,-3.8721,-1.0519,0.7502,-726.32,13.67,1595.40
60,-3.8723,-1.1169,0.6663,1367.43,44.80,-1342.29
70,-3.8724,-1.1766,0.5889,1039.31,1294.68,-858.09
80,-3.8724,-1.2214,0.5361,1398.68,-611.69,-1811.40
90,-3.8724,-1.2428,0.5155,-335.69,638.18,-1170.84
100,-3.8723,-1.2405,0.5012,929.93,1997.56,1235.35
110,-3.8722,-1.2050,0.4764,1226.81,169.43,1469.73
120,-3.8721,-1.1423,0.4500,1773.68,997.62,-1202.21
130,-3.8718,-1.0801,0.4341,1789.31,1607.12,547.73
140,-3.8717,-1.0248,0.4332,1758.06,-424.01,-1546.08
150,-3.8716,-0.9634,0.4368,836.18,-533.26,-592.96
160,-3.8715,-0.8915,0.4335,695.56,-80.02,-1749.21
170,-3.8715,-0.8176,0.4260,1898.68,-501.77,-1202.33
180,-3.8715,-0.7534,0.4211,-648.19,-1454.77,-1389.83
190,-3.8713,-0.7043,0.4268,-429.44,1920.35,203.92
200,-3.8713,-0.6749,0.4424,1851.81,-1360.78,-139.83
210,-3.8712,-0.6705,0.4587,1617.43,639.28,-717.90
220,-3.8711,-0.6874,0.4760,-1820.07,-1266.97,485.23
230,-3.8712,-0.7126,0.4989,23.68,936.16,-1014.71
240,-3.8712,-0.7404,0.5232,789.31,-126.40,375.92
250,-3.8713,-0.7637,0.5437,1242.43,-1017.09,-1733.40
260,-3.8713,-0.7695,0.5616,-1741.94,1607.85,626.04
270,-3.8715,-0.7532,0.5826,1508.06,-95.28,-952.09
280,-3.8715,-0.7217,0.6104,-398.19,-1407.78,1547.97
290,-3.8715,-0.6827,0.6428,-366.94,-1860.84,391.78
300,-3.8715,-0.6392,0.6768,617.43,-1704.47,188.72
310,-3.8715,-0.5955,0.7062,-1804.44,-1360.66,798.16
320,-3.8715,-0.5502,0.7279,-210.69,-1594.97,1360.72
330,-3.8715,-0.5000,0.7454,1586.18,1186.40,1673.28
340,-3.8715,-0.4490,0.7632,8.06,-579.10,1985.78
350,-3.8715,-0.4059,0.7858,-1460.69,1702.21,-1545.41
360,-3.8715,-0.3872,0.8138,54.93,592.96,-1170.35
370,-3.8715,-0.4058,0.8369,-1554.44,186.71,-1170.29
380,-3.8715,-0.4437,0.8457,70.56,-860.17,-1685.91
390,-3.8715,-0.4644,0.8423,-788.82,264.71,1017.27
400,-3.8716,-0.4473,0.8333,570.56,-172.79,-779.66
410,-3.8716,-0.3961,0.8231,-1241.94,-1329.04,1392.21
420,-3.8716,-0.3242,0.8119,1304.93,1374.21,189.09
430,-3.8716,-0.2467,0.8046,-1491.94,-63.17,392.15
440,-3.8716,-0.1754,0.8054,429.93,-1000.49,1907.78
450,-3.8715,-0.1182,0.8068,1554.93,-890.99,1.53
460,-3.8715,-0.0792,0.8042,883.06,-718.99,1892.15
470,-3.8715,-0.0560,0.7987,1867.43,-1047.06,-842.22
480,-3.8713,-0.0431,0.7856,836.18,-1750.12,142.15
490,-3.8713,-0.0320,0.7648,-1507.57,578.00,1314.03
500,-3.8713,-0.0083,0.7462,-85.69,1906.13,-1498.54
510,-3.8713,0.0295,0.7354,-1054.44,-468.81,-686.10
520,-3.8713,0.0651,0.7314,-210.69,-1875.00,-139.22
530,-3.8712,0.0858,0.7260,336.18,1625.12,173.28
540,-3.8713,0.0952,0.7078,-1007.57,922.00,-154.85
550,-3.8713,0.1060,0.6874,195.56,-1406.07,-1358.03
560,-3.8713,0.1245,0.6772,1570.56,-15.44,1048.16
570,-3.8713,0.1471,0.6732,-54.44,-1312.32,48.16
580,-3.8713,0.1720,0.6663,-1163.82,-1827.88,48.16
590,-3.8713,0.2021,0.6506,-1976.32,1281.56,595.03
600,-3.8713,0.2323,0.6254,1883.06,-718.38,532.47
610,-3.8715,0.2544,0.5974,1742.43,47.30,-576.90
620,-3.8715,0.2675,0.5743,570.56,469.24,1891.78
630,-3.8715,0.2795,0.5564,-1757.57,1516.11,47.97
640,-3.8716,0.2992,0.5438,-210.69,-780.76,-1858.34
650,-3.8716,0.3149,0.5356,-1695.07,1609.92,1126.04
660,-3.8716,0.3127,0.5261,320.56,563.11,1001.04
670,-3.8716,0.2957,0.5188,39.31,-655.64,1204.10
680,-3.8716,0.2694,0.5262,1851.81,-1593.20,-1186.52
690,-3.8715,0.2368,0.5498,-1507.57,-640.14,-827.15
700,-3.8712,0.1949,0.5729,-1679.44,-1624.57,1782.29
710,-3.8710,0.1429,0.5746,961.18,1328.49,360.47
720,-3.8708,0.0916,0.5562,-1695.07,1547.12,563.60
730,-3.8708,0.0483,0.5269,-273.19,-812.38,1860.41
740,-3.8708,0.0231,0.4926,-1804.44,-562.44,1516.60
750,-3.8708,0.0334,0.4583,-1038.82,-953.12,563.42
760,-3.8710,0.0854,0.4275,289.31,-1343.69,-983.52
770,-3.8710,0.1726,0.4088,-1054.44,-1281.13,1563.29
780,-3.8710,0.2866,0.4005,-1898.19,328.43,1719.54
790,-3.8708,0.4222,0.3870,695.56,-733.83,297.61
800,-3.8707,0.5577,0.3606,-1945.07,1532.04,344.48
810,-3.8707,0.6504,0.3276,-601.32,-1842.71,-61.83
820,-3.8706,0.6755,0.2953,-741.94,1938.72,1984.99
830,-3.8706,0.6464,0.2684,-1523.19,1798.16,-874.45
840,-3.8705,0.6082,0.2390,-1257.57,-1639.40,94.24
850,-3.8706,0.5787,0.1943,1851.81,-1405.09,-421.45
860,-3.8706,0.5632,0.1376,-1913.82,876.10,531.62
870,-3.8708,0.5853,0.0778,101.81,1610.47,-93.51
880,-3.8710,0.6378,0.0239,-1070.07,1954.22,-1062.38
890,-3.8711,0.6903,-0.0094,1648.68,-936.28,-750.00
900,-3.8711,0.7365,-0.0111,367.43,-1201.78,1874.94
910,-3.8711,0.7528,0.0219,-1726.32,-1420.47,-1546.94
920,-3.8710,0.7150,0.0800,367.43,-1201.66,1031.25
930,-3.8708,0.6349,0.1332,-476.32,-1764.28,1109.50
940,-3.8708,0.5509,0.1559,1273.68,1048.10,-62.26
950,-3.8708,0.5114,0.1552,-1476.32,-45.84,-702.88
960,-3.8708,0.5366,0.1515,1461.18,-139.65,234.62
970,-3.8710,0.6199,0.1521,695.56,-608.34,1156.49
980,-3.8711,0.7106,0.1520,-648.19,-530.09,-1218.51
990,-3.8711,0.7769,0.1572,-1038.82,-545.53,656.49
1000,-3.8712,0.7915,0.1849,-554.44,126.46,-1312.19
1010,-3.8712,0.7355,0.2325,1320.56,-326.60,969.06
1020,-3.8713,0.6578,0.2782,-1851.32,1767.03,-874.57
1030,-3.8713,0.6216,0.3108,211.18,-389.34,625.49
1040,-3.8715,0.6177,0.3365,-429.44,-217.59,1469.30
1050,-3.8716,0.5881,0.3593,-929.44,-920.72,1922.49
1060,-3.8717,0.5212,0.3717,-710.69,1985.47,-1827.45
1070,-3.8718,0.4581,0.3733,-1273.19,-420.90,-1780.58
1080,-3.8719,0.4280,0.3735,-1351.32,-217.90,-1483.70
1090,-3.8719,0.4331,0.3951,-1210.69,-186.71,906.92
1100,-3.8719,0.4532,0.4536,-554.44,-1421.08,-468.02
1110,-3.8717,0.4585,0.5300,-1976.32,-1936.65,-1327.27
1120,-3.8713,0.4335,0.5974,-1304.44,-155.40,79.10
1130,-3.8711,0.3785,0.6437,-507.57,469.54,798.03
1140,-3.8710,0.3074,0.6703,461.18,-1608.64,-1186.28
1150,-3.8708,0.2141,0.6722,-648.19,1797.42,1423.16
1160,-3.8708,0.1107,0.6566,-585.69,-1952.76,907.53
1170,-3.8710,0.0182,0.6271,-1820.07,47.06,-1311.22
1180,-3.8710,-0.0494,0.5800,-1663.82,265.62,360.60
1190,-3.8711,-0.0514,0.5283,1679.93,-1750.12,-1998.90
1200,-3.8712,0.0211,0.4972,1429.93,-359.50,-827.15
1210,-3.8712,0.1189,0.5127,-1288.82,-359.38,954.04
1220,-3.8712,0.1981,0.5718,-773.19,1625.18,1829.10
1230,-3.8711,0.2458,0.6552,1367.43,1187.87,-1139.53
1240,-3.8708,0.2494,0.7419,-523.19,-140.20,-1686.28
1250,-3.8706,0.1987,0.8044,-70.07,-1030.82,-1826.72
1260,-3.8704,0.1111,0.8212,1445.56,-1030.88,95.28
1270,-3.8704,0.0220,0.7909,-1773.19,1109.56,1392.21
1280,-3.8705,-0.0464,0.7335,-1179.44,1234.38,1470.28
1290,-3.8707,-0.0898,0.6705,-1929.44,1906.13,1657.65
1300,-3.8710,-0.0966,0.6154,508.06,1843.57,298.16
1310,-3.8713,-0.0590,0.5846,-351.32,-1218.99,-436.34
1320,-3.8715,-0.0021,0.5863,461.18,-1156.37,1172.97
1330,-3.8716,0.0408,0.6049,-257.57,-937.56,-1998.90
1340,-3.8716,0.0583,0.6310,1226.81,1421.94,782.41
1350,-3.8716,0.0470,0.6813,-523.19,765.69,438.72
1360,-3.8716,-0.0066,0.7501,-1976.32,-796.81,-1623.72
1370,-3.8715,-0.0903,0.8032,-835.69,31.19,-607.91
1380,-3.8712,-0.1694,0.8163,445.56,-1172.06,689.03
1390,-3.8712,-0.2327,0.7817,-1679.44,499.63,-1514.04
1400,-3.8713,-0.2800,0.7194,-1773.19,77.64,-764.10
1410,-3.8715,-0.3240,0.6644,164.31,93.20,282.65
1420,-3.8717,-0.3856,0.6223,-1460.69,1061.83,1704.41
1430,-3.8718,-0.4652,0.5781,-1351.32,-328.92,-1139.47
1440,-3.8718,-0.5159,0.5375,461.18,-1985.29,-155.15
1450,-3.8717,-0.5095,0.5187,1976.81,811.46,-780.21
1460,-3.8716,-0.4862,0.5232,-1210.69,-1594.79,-202.15
1470,-3.8713,-0.4659,0.5394,1773.68,-1016.60,1282.23
1480,-3.8712,-0.4337,0.5579,367.43,1061.58,-936.46
1490,-3.8711,-0.4207,0.5720,492.43,-578.98,-61.46
1500,-3.8710,-0.4670,0.5731,-1835.69,1233.52,-202.03
1510,-3.8708,-0.5656,0.5519,226.81,1374.08,-1670.78
1520,-3.8708,-0.6703,0.5072,-382.57,-1344.91,-1905.21
1530,-3.8710,-0.7405,0.4514,-1788.82,936.16,-1061.52
1540,-3.8711,-0.7745,0.3987,1226.81,1795.41,1907.10
1550,-3.8712,-0.7788,0.3540,867.43,-954.65,328.86
1560,-3.8715,-0.7618,0.3241,320.56,1326.60,-264.95
1570,-3.8715,-0.7438,0.3094,-1507.57,1498.47,1188.11
1580,-3.8715,-0.7491,0.2972,804.93,-376.46,828.67
1590,-3.8715,-0.7739,0.2850,117.43,-1938.96,1766.17
1600,-3.8715,-0.7896,0.2834,945.56,498.47,-1108.83
1610,-3.8713,-0.7810,0.2976,-1054.44,295.29,359.92
1620,-3.8713,-0.7561,0.3197,39.31,-1892.15,-593.20
1630,-3.8712,-0.7271,0.3359,-773.19,935.97,-343.14
1640,-3.8711,-0.6992,0.3374,-1054.44,-985.84,-1593.14
1650,-3.8711,-0.6722,0.3292,-1491.94,-798.28,1813.11
1660,-3.8712,-0.6459,0.3301,1961.18,-1845.09,-1296.26
1670,-3.8713,-0.6244,0.3514,1336.18,-1735.66,-1093.14
1680,-3.8715,-0.6149,0.3859,86.18,998.78,-155.58
1690,-3.8715,-0.6187,0.4240,1304.93,1405.03,-1671.14
1700,-3.8715,-0.6394,0.4573,820.56,-1719.97,-1858.58
1710,-3.8715,-0.6803,0.4733,-1835.69,-1454.41,1610.23
1720,-3.8716,-0.7228,0.4741,929.93,592.41,-436.58
1730,-3.8716,-0.7410,0.4709,-507.57,701.66,500.92
1740,-3.8717,-0.7250,0.4771,1164.31,295.41,-1827.21
1750,-3.8717,-0.6774,0.5070,-788.82,1076.66,-1608.46
1760,-3.8716,-0.6045,0.5563,1304.93,904.91,1235.35
1770,-3.8715,-0.5203,0.5968,-1366.94,-782.47,735.41
1780,-3.8715,-0.4434,0.6116,1414.31,405.21,-1842.59
1790,-3.8715,-0.3925,0.6029,-741.94,-1704.04,63.66
1800,-3.8717,-0.3834,0.5762,1773.68,1186.71,-1092.59
1810,-3.8719,-0.4082,0.5404,-1070.07,1764.83,-77.03
1820,-3.8721,-0.4436,0.5044,-241.94,1186.65,1063.54
1830,-3.8722,-0.4672,0.4811,-773.19,577.21,844.73
1840,-3.8722,-0.4635,0.4865,211.18,1592.83,829.04
1850,-3.8721,-0.4370,0.5215,679.93,-1719.67,672.79
1860,-3.8719,-0.3944,0.5687,70.56,-1235.23,-858.40
1870,-3.8717,-0.3324,0.6086,1523.68,811.71,-1295.78
1880,-3.8715,-0.2640,0.6310,1461.18,1921.20,1173.03
1890,-3.8713,-0.2164,0.6261,-1788.82,780.70,204.35
1900,-3.8715,-0.2051,0.5923,304.93,155.82,-842.53
1910,-3.8716,-0.2200,0.5549,1758.06,-172.30,-342.65
1920,-3.8716,-0.2313,0.5375,-148.19,-953.61,79.16
1930,-3.8717,-0.2141,0.5433,-1601.32,812.01,-1905.21
1940,-3.8717,-0.1632,0.5729,601.81,1562.07,1688.54
1950,-3.8717,-0.1005,0.6184,-882.57,1343.38,-1858.28
1960,-3.8717,-0.0562,0.6498,-851.32,-828.37,-826.97
1970,-3.8716,-0.0496,0.6417,820.56,-812.62,188.72
1980,-3.8716,-0.0844,0.6073,1664.31,-1843.87,360.60
1990,-3.8717,-0.1339,0.5763,1211.18,1749.82,-155.09
2000,-3.8717,-0.1554,0.5621,-1132.57,1780.94,-14.53
2010,-3.8716,-0.1257,0.5640,117.43,-31.56,1579.16
2020,-3.8715,-0.0392,0.5835,-85.69,202.82,672.97
2030,-3.8713,0.0929,0.6202,-1007.57,-1297.00,1641.72
2040,-3.8711,0.2224,0.6560,-101.32,-609.25,860.53
2050,-3.8708,0.2959,0.6614,476.81,-30.82,1251.22
2060,-3.8707,0.2981,0.6257,1883.06,656.80,-264.34
2070,-3.8706,0.2548,0.5691,-1835.69,94.30,1844.97
2080,-3.8706,0.2056,0.5121,617.43,844.24,204.22
2090,-3.8707,0.1759,0.4720,-1679.44,1547.24,1313.48
2100,-3.8708,0.1819,0.4536,-1476.32,422.18,-358.46
2110,-3.8707,0.2292,0.4420,-710.69,-1937.19,1219.60
2120,-3.8706,0.3046,0.4232,1351.81,578.55,1891.48
2130,-3.8705,0.3817,0.3979,-1007.57,-1827.58,-61.71
2140,-3.8702,0.4353,0.3802,867.43,-1061.77,-1249.27
2150,-3.8700,0.4525,0.3707,-273.19,672.67,-968.02
2160,-3.8696,0.4384,0.3457,1929.93,-546.02,1000.67
2170,-3.8694,0.4282,0.2987,117.43,250.85,1719.42
2180,-3.8693,0.4546,0.2332,-1179.44,-1764.83,484.92
2190,-3.8695,0.5190,0.1504,-1804.44,1844.60,-124.57
2200,-3.8698,0.6143,0.0703,-1554.44,-749.02,-1609.13
2210,-3.8700,0.7151,0.0076,-1366.94,1001.16,843.87
2220,-3.8702,0.7853,-0.0378,-460.69,970.09,-1546.88
2230,-3.8704,0.7920,-0.0659,523.68,-842.22,-1234.50
2240,-3.8704,0.7673,-0.0697,1383.06,-435.97,312.32
2250,-3.8705,0.7410,-0.0420,-1773.19,-920.41,-1515.81
2260,-3.8705,0.7028,0.0112,-1148.19,-1373.60,906.13
2270,-3.8706,0.6708,0.0796,1961.18,1438.84,-62.50
2280,-3.8706,0.6189,0.1526,1867.43,-1811.22,-15.50
2290,-3.8705,0.5199,0.2083,-773.19,-467.59,375.24
2300,-3.8706,0.3989,0.2328,-1445.07,-1342.77,-249.63
2310,-3.8706,0.2793,0.2273,-929.44,1797.61,844.18
2320,-3.8707,0.1938,0.2081,-241.94,1094.24,250.43
2330,-3.8710,0.1772,0.2015,820.56,-1359.01,-374.63
2340,-3.8710,0.2130,0.2224,-1304.44,1797.18,0.37
2350,-3.8711,0.2581,0.2599,-726.32,469.12,828.55
2360,-3.8712,0.2850,0.2919,1039.31,1266.11,1156.74
2370,-3.8713,0.2806,0.3141,492.43,1359.92,1484.92
2380,-3.8715,0.2488,0.3374,-70.07,203.61,-1218.14
2390,-3.8715,0.2035,0.3666,-148.19,-812.07,1766.24
2400,-3.8715,0.1459,0.3912,-1945.07,-1077.76,-1139.95
2410,-3.8713,0.0767,0.4016,-1320.07,-1921.63,1203.86
2420,-3.8713,0.0078,0.4034,1820.56,-593.63,-514.89
2430,-3.8712,-0.0442,0.4070,1008.06,-359.38,1344.48
2440,-3.8712,-0.0699,0.4111,-1648.19,109.25,-842.96
2450,-3.8711,-0.0725,0.4041,-945.07,640.44,563.29
2460,-3.8711,-0.0651,0.3878,-1273.19,-265.81,813.23
2470,-3.8711,-0.0450,0.3816,-320.07,1656.07,360.11
2480,-3.8711,-0.0085,0.3856,-1757.57,859.25,0.73
2490,-3.8712,0.0356,0.3932,-1085.69,1374.94,-171.14
2500,-3.8712,0.0923,0.4088,570.56,-1671.81,-280.52
2510,-3.8712,0.1454,0.4248,-179.44,328.25,-764.83
2520,-3.8712,0.1759,0.4344,-1382.57,-1624.76,1735.17
2530,-3.8713,0.1919,0.4470,-1476.32,-390.32,-421.08
2540,-3.8713,0.1812,0.4686,570.56,1219.12,-1717.90
2550,-3.8713,0.1256,0.4910,-804.44,-15.32,-1233.52
2560,-3.8712,0.0435,0.5051,86.18,-1156.01,79.04
2570,-3.8712,-0.0382,0.5131,1570.56,656.31,1047.85
2580,-3.8712,-0.1080,0.5176,-882.57,1687.38,1625.98
2590,-3.8712,-0.1591,0.5145,-1820.07,-1734.62,1407.23
2600,-3.8712,-0.1852,0.5032,-351.32,1874.63,94.73
2610,-3.8713,-0.1719,0.4961,304.93,421.51,-1624.02
2620,-3.8713,-0.1335,0.5017,-1991.94,-484.74,1500.92
2630,-3.8713,-0.0872,0.5170,-1085.69,234.07,-1561.52
2640,-3.8712,-0.0314,0.5375,851.81,-1812.68,688.48
2650,-3.8712,0.0222,0.5692,-7.57,812.38,-483.34
2660,-3.8711,0.0659,0.6127,-1148.19,859.38,-514.53
2670,-3.8708,0.0934,0.6593,445.56,-1578.00,704.28
2680,-3.8707,0.0906,0.7136,-38.82,390.75,1985.66
2690,-3.8706,0.0249,0.7689,-398.19,-656.13,-858.03
2700,-3.8704,-0.1051,0.8047,-804.44,-1578.12,876.46
2710,-3.8702,-0.2452,0.8199,-1445.07,-984.62,-1732.85
2720,-3.8701,-0.3613,0.8306,617.43,968.26,-1764.04
2730,-3.8700,-0.4781,0.8303,1758.06,-1672.61,564.09
2740,-3.8700,-0.6302,0.7920,-1195.07,-1704.10,735.96
2750,-3.8701,-0.7847,0.7125,-663.82,1389.34,-1685.97
2760,-3.8702,-0.9008,0.6174,-429.44,-782.84,954.47
2770,-3.8705,-0.9874,0.5238,711.18,-954.90,1063.66
2780,-3.8707,-1.0260,0.4419,1617.43,-939.45,375.98
2790,-3.8710,-1.0095,0.3806,679.93,576.11,438.35
2800,-3.8712,-0.9537,0.3423,-1210.69,732.36,1860.11
2810,-3.8713,-0.8849,0.3148,1929.93,-173.77,1016.24
2820,-3.8715,-0.8295,0.2786,-1257.57,310.73,1531.86
2830,-3.8716,-0.7859,0.2321,1836.18,-329.77,-1796.39
2840,-3.8717,-0.7443,0.1870,-585.69,1717.16,-1452.70
2850,-3.8717,-0.6909,0.1649,742.43,-48.34,94.06
2860,-3.8717,-0.6328,0.1803,-429.44,1123.60,703.43
2870,-3.8716,-0.5748,0.2238,-991.94,-907.53,937.81
2880,-3.8715,-0.5199,0.2728,-1570.07,655.09,-921.45
2890,-3.8712,-0.4847,0.3110,1461.18,-1063.54,391.11
2900,-3.8712,-0.4814,0.3365,1961.18,-172.85,-530.70
2910,-3.8711,-0.5039,0.3545,-1616.94,-907.23,453.74
2920,-3.8711,-0.5438,0.3708,-491.94,1389.59,391.30
2930,-3.8711,-0.5911,0.3878,-1601.32,-516.72,63.17
2940,-3.8712,-0.6390,0.3992,351.81,1655.09,-1468.02
2950,-3.8713,-0.7032,0.4034,-1788.82,-891.91,-1452.39
2960,-3.8715,-0.7788,0.4094,1992.43,-345.15,594.48
2970,-3.8717,-0.8208,0.4215,320.56,420.35,-671.08
2980,-3.8717,-0.8079,0.4332,-1054.44,1967.10,172.67
2990,-3.8718,-0.7607,0.4384,601.81,-532.84,-1514.83
3000,-3.8718,-0.6957,0.4415,-1366.94,123.47,1547.73
3010,-3.8718,-0.6199,0.4490,-1038.82,529.85,1000.85
3020,-3.8718,-0.5441,0.4526,664.31,1483.15,1094.60
3030,-3.8718,-0.4785,0.4473,-1632.57,1952.03,-1936.65
3040,-3.8718,-0.4332,0.4445,-1241.94,1264.65,-1217.90
3050,-3.8718,-0.4086,0.4501,554.93,905.40,-1952.27
3060,-3.8718,-0.4012,0.4659,-288.82,1624.15,469.60
3070,-3.8719,-0.4138,0.4889,648.68,-344.54,-624.15
3080,-3.8718,-0.4266,0.5109,-960.69,-1407.10,297.79
3090,-3.8718,-0.4105,0.5262,1398.68,1405.40,-14.65
3100,-3.8716,-0.3615,0.5326,-538.82,-625.85,1219.73
3110,-3.8715,-0.2889,0.5344,1742.43,186.77,1688.54
3120,-3.8713,-0.2096,0.5400,-976.32,421.26,204.16
3130,-3.8713,-0.1550,0.5444,1179.93,1140.20,1141.66
3140,-3.8713,-0.1497,0.5348,164.31,1702.82,782.29
3150,-3.8715,-0.1815,0.5193,851.81,468.44,-905.21
3160,-3.8715,-0.2076,0.5142,773.68,-1515.99,1000.98
3170,-3.8716,-0.1958,0.5276,1429.93,1827.70,-45.90
3180,-3.8715,-0.1532,0.5605,-1054.44,-453.55,735.35
3190,-3.8715,-0.0980,0.5973,398.68,-234.68,-514.59
3200,-3.8713,-0.0342,0.6282,-538.82,468.51,-748.84
3210,-3.8712,0.0179,0.6475,-366.94,421.75,-1623.78
3220,-3.8711,0.0397,0.6448,-1695.07,-1125.00,266.85
3230,-3.8711,0.0415,0.6331,1086.18,-1468.69,-1842.53
3240,-3.8710,0.0289,0.6218,1320.56,1031.31,1016.85
3250,-3.8710,-0.0045,0.6084,-288.82,-406.25,-436.34
3260,-3.8710,-0.0499,0.6001,-570.07,1890.56,-186.34
3270,-3.8710,-0.0750,0.6056,1617.43,828.00,860.53
3280,-3.8712,-0.0496,0.6262,-1585.69,1531.07,-45.72
3290,-3.8713,0.0308,0.6538,1664.31,171.75,-92.53
3300,-3.8713,0.1407,0.6633,-54.44,-312.50,-936.28
3310,-3.8712,0.2490,0.6342,-1976.32,906.49,1329.41
3320,-3.8711,0.3425,0.5759,-116.94,1172.30,1188.72
3330,-3.8710,0.4094,0.5211,-148.19,1719.36,1594.85
3340,-3.8708,0.4379,0.4983,414.31,-1296.08,1719.73
3350,-3.8707,0.4419,0.4991,54.93,-217.90,922.79
3360,-3.8707,0.4315,0.4843,570.56,-108.52,-1280.33
3370,-3.8707,0.3928,0.4292,-757.57,1985.17,-1045.96
3380,-3.8707,0.3518,0.3357,-1710.69,-1061.77,438.29
3390,-3.8710,0.3713,0.2307,1039.31,-1030.58,-858.76
3400,-3.8711,0.4795,0.1570,-460.69,1531.92,-1812.07
3410,-3.8711,0.6487,0.1265,1383.06,94.67,640.93
3420,-3.8711,0.7937,0.1102,-960.69,188.72,-1640.38
3430,-3.8710,0.8696,0.0863,1601.81,-1889.10,1250.18
3440,-3.8708,0.8762,0.0616,-679.44,-951.48,297.00
3450,-3.8708,0.8323,0.0417,164.31,-107.67,-1140.56
3460,-3.8707,0.8071,0.0236,-1460.69,1345.34,859.44
3470,-3.8707,0.8239,0.0111,-679.44,-982.85,-546.88
3480,-3.8706,0.8582,-0.0012,1461.18,1423.46,-1453.12
3490,-3.8705,0.8586,-0.0261,1851.81,-154.60,515.56
3500,-3.8706,0.7994,-0.0531,1914.31,657.90,-15.69
3510,-3.8706,0.7214,-0.0618,-1663.82,1204.65,406.13
3520,-3.8708,0.6704,-0.0480,351.81,95.15,-1359.50
3530,-3.8710,0.6445,-0.0170,1820.56,1860.66,593.63
3540,-3.8712,0.6198,0.0312,-1491.94,1829.35,-484.44
3550,-3.8713,0.5897,0.1018,-663.82,1.16,-140.56
3560,-3.8713,0.5593,0.1803,-507.57,1032.35,1578.31
3570,-3.8713,0.5162,0.2413,-398.19,-920.84,140.93
3580,-3.8715,0.4507,0.2788,-1913.82,-1108.40,-296.45
3590,-3.8713,0.3821,0.3026,1695.56,-311.65,750.49
3600,-3.8713,0.3282,0.3287,914.31,-1264.89,-1030.70
3610,-3.8712,0.2882,0.3599,-1976.32,-1921.26,1625.61
3620,-3.8712,0.2386,0.3727,898.68,-1936.95,-264.95
3630,-3.8711,0.1796,0.3596,-1445.07,-296.45,625.67
3640,-3.8711,0.1443,0.3379,-1007.57,-1968.44,188.17
3650,-3.8712,0.1674,0.3224,-1523.19,-749.76,-233.76
3660,-3.8711,0.2421,0.3219,1429.93,1265.93,609.99
3670,-3.8711,0.3384,0.3434,-1007.57,1203.55,-1327.51
3680,-3.8710,0.4297,0.3782,-679.44,-46.26,-1858.76
3690,-3.8708,0.4828,0.4019,-991.94,407.04,-1749.27
3700,-3.8707,0.4822,0.3971,1804.93,-561.58,1078.86
3710,-3.8707,0.4243,0.3817,1726.81,-1170.96,1750.73
3720,-3.8707,0.3091,0.3710,-1679.44,860.17,594.48
3730,-3.8708,0.1628,0.3654,-429.44,-515.08,-1155.58
3740,-3.8708,0.0317,0.3861,851.81,-1234.07,-561.83
3750,-3.8706,-0.0621,0.4316,70.56,1421.94,156.98
3760,-3.8705,-0.1318,0.4894,54.93,-734.50,-577.33
3770,-3.8702,-0.1489,0.5544,-866.94,-1344.06,-483.46
3780,-3.8699,-0.0632,0.6121,945.56,-1015.93,626.04
3790,-3.8696,0.0958,0.6248,-85.69,-1640.81,282.41
3800,-3.8696,0.2372,0.5626,273.68,-31.07,1719.91
3810,-3.8699,0.3109,0.4589,-1632.57,16.05,-905.15
3820,-3.8702,0.3241,0.3701,-195.07,-1265.08,-1233.52
3830,-3.8706,0.2858,0.3253,1492.43,-624.39,1281.92
3840,-3.8710,0.2024,0.3124,586.18,1641.17,-1749.39
3850,-3.8712,0.1206,0.3188,1914.31,-15.26,-655.70
3860,-3.8712,0.0562,0.3531,-554.44,812.68,453.74
3870,-3.8712,-0.0153,0.4041,-804.44,1203.19,906.92
3880,-3.8712,-0.0792,0.4475,-1945.07,-265.69,-483.64
3890,-3.8711,-0.1228,0.4763,1867.43,1296.69,-1436.65
3900,-3.8710,-0.1504,0.4921,289.31,984.13,1344.67
3910,-3.8708,-0.1271,0.5040,758.06,-1000.31,688.42
3920,-3.8707,-0.0276,0.5178,-257.57,530.94,266.60
3930,-3.8707,0.0957,0.5275,476.81,-1703.19,1875.98
3940,-3.8707,0.1648,0.5354,258.06,-484.19,891.60
3950,-3.8708,0.1221,0.5520,1101.81,531.56,-1061.46
3960,-3.8708,-0.0397,0.5748,-366.94,-1343.57,-1920.84
3970,-3.8708,-0.2838,0.5891,-1070.07,1593.63,-1155.15
3980,-3.8708,-0.5385,0.5822,-320.07,-578.74,-139.53
3990,-3.8708,-0.7343,0.5514,-913.82,-1469.85,-405.15
4000,-3.8708,-0.8828,0.5035,-1976.32,-1407.71,-1967.71
4010,-3.8708,-1.0121,0.4467,-991.94,466.98,344.73
4020,-3.8710,-1.0659,0.3896,-1538.82,1185.49,-561.65
4030,-3.8710,-1.0205,0.3256,-429.44,1888.49,-952.39
4040,-3.8710,-0.9376,0.2552,1383.06,1685.49,-1796.26
4050,-3.8710,-0.8500,0.2020,-7.57,685.61,328.61
4060,-3.8711,-0.7728,0.1616,-788.82,1873.29,922.24
4070,-3.8712,-0.7532,0.1213,1086.18,701.60,562.81
4080,-3.8713,-0.7837,0.0911,-398.19,-454.65,1531.43
4090,-3.8713,-0.8107,0.0735,-304.44,-329.71,797.00
4100,-3.8713,-0.8219,0.0698,242.43,1420.29,1078.25
4110,-3.8713,-0.8069,0.0887,-1195.07,951.48,-1859.25
4120,-3.8712,-0.7747,0.1234,726.81,-626.59,937.62
4130,-3.8711,-0.7429,0.1533,851.81,-189.03,875.18
4140,-3.8711,-0.6974,0.1633,914.31,-360.84,-312.26
4150,-3.8711,-0.6455,0.1538,-1257.57,920.47,-109.07
4160,-3.8711,-0.5801,0.1429,1383.06,-298.16,-1859.13
4170,-3.8712,-0.5215,0.1415,1758.06,-1688.66,-421.63
4180,-3.8712,-0.4919,0.1566,1258.06,-1876.04,1015.87
4190,-3.8713,-0.4727,0.1923,1039.31,61.52,-827.82
4200,-3.8713,-0.4574,0.2350,-491.94,624.02,-1749.63
4210,-3.8713,-0.4446,0.2849,1461.18,-1907.17,1719.18
4220,-3.8713,-0.4606,0.3517,-898.19,483.46,-1796.33
4230,-3.8712,-0.4983,0.4240,1054.93,1030.33,1453.80
4240,-3.8711,-0.5254,0.4750,226.81,-1719.73,-1296.08
4250,-3.8710,-0.5356,0.4995,758.06,811.46,-1374.08
4260,-3.8710,-0.5355,0.5176,-554.44,-47.97,-561.58
4270,-3.8710,-0.5262,0.5336,-538.82,-1735.47,1422.85
4280,-3.8711,-0.4960,0.5317,648.68,311.46,1360.41
4290,-3.8713,-0.4457,0.5107,523.68,77.15,-77.09
4300,-3.8715,-0.3937,0.4884,-1038.82,1389.71,1391.60
4310,-3.8717,-0.3582,0.4775,1617.43,-1469.54,-1170.96
4320,-3.8718,-0.3280,0.4854,-1835.69,1139.89,1594.67
4330,-3.8719,-0.2917,0.5157,-1976.32,-1860.05,-655.33
4340,-3.8718,-0.2544,0.5544,-1335.69,-1969.36,1360.35
4350,-3.8717,-0.2184,0.5791,-554.44,-1016.17,-1702.09
4360,-3.8716,-0.1759,0.5955,54.93,-1859.80,-123.90
4370,-3.8713,-0.1282,0.6194,1492.43,234.01,641.78
4380,-3.8712,-0.0947,0.6368,-398.19,-703.43,219.91
4390,-3.8712,-0.0889,0.6367,-116.94,1531.01,-967.53
4400,-3.8711,-0.1088,0.6255,633.06,1515.44,735.60
4410,-3.8711,-0.1296,0.6062,-1913.82,77.88,923.10
4420,-3.8711,-0.1219,0.5833,-585.69,1609.07,266.78
4430,-3.8712,-0.0789,0.5616,398.68,-1328.37,-467.65
4440,-3.8712,-0.0140,0.5454,1914.31,-93.93,-623.96
4450,-3.8711,0.0615,0.5415,-1788.82,1828.06,657.29
4460,-3.8710,0.1403,0.5624,-116.94,1312.56,63.54
4470,-3.8708,0.2032,0.5975,1961.18,-15.38,485.41
4480,-3.8707,0.2418,0.6212,-1976.32,484.74,266.78
4490,-3.8707,0.2618,0.6332,-1038.82,-483.95,-545.72
4500,-3.8706,0.2645,0.6425,1523.68,1047.36,-1514.40
4510,-3.8705,0.2427,0.6517,1867.43,-1765.14,891.85
4520,-3.8705,0.1847,0.6630,-929.44,-577.70,1594.97
4530,-3.8705,0.1069,0.6801,-351.32,859.68,173.16
4540,-3.8706,0.0553,0.6997,1695.56,-952.94,1095.03
4550,-3.8707,0.0563,0.7084,-913.82,1562.56,970.09
4560,-3.8708,0.1060,0.7061,-788.82,-1328.06,1063.84
4570,-3.8710,0.1965,0.6923,1570.56,-1624.82,1829.47
4580,-3.8711,0.3152,0.6630,1164.31,609.74,-967.41
4590,-3.8711,0.4485,0.6373,351.81,859.99,1251.28
4600,-3.8711,0.5829,0.6384,1414.31,1578.98,719.97
4610,-3.8711,0.6788,0.6642,-1382.57,1719.85,-1873.78
4620,-3.8710,0.6924,0.6772,-1101.32,1016.91,673.16
4630,-3.8710,0.6267,0.6459,633.06,-1311.16,1126.28
4640,-3.8711,0.5317,0.5851,226.81,-1326.90,1876.22
4650,-3.8712,0.4910,0.5354,70.56,-1108.34,1141.72
4660,-3.8713,0.5242,0.5081,-1148.19,532.17,1657.29
4670,-3.8715,0.5897,0.4856,-898.19,1032.23,-139.65
4680,-3.8715,0.6759,0.4573,-507.57,-1842.65,-999.08
4690,-3.8715,0.7689,0.4282,-1476.32,-1467.47,-1217.90
4700,-3.8715,0.8389,0.4053,-1570.07,-1186.04,-374.21
4710,-3.8713,0.9003,0.3812,-616.94,-123.41,1313.23
4720,-3.8713,0.9497,0.3538,-757.57,798.58,-1218.02
4730,-3.8713,0.9484,0.3345,1570.56,1283.08,-483.70
4740,-3.8712,0.8987,0.3226,1398.68,-1185.67,328.74
4750,-3.8712,0.8315,0.3075,-960.69,1298.58,-1827.51
4760,-3.8712,0.7664,0.2928,-1554.44,-639.04,-140.08
4770,-3.8712,0.7130,0.2947,-1898.19,1485.84,-186.95
4780,-3.8712,0.6791,0.3265,-726.32,1720.09,-1186.95
4790,-3.8712,0.6616,0.3824,-1070.07,1798.16,-702.51
4800,-3.8711,0.6414,0.4474,695.56,954.41,-1436.77
4810,-3.8710,0.5775,0.4989,-1898.19,1266.85,-1639.77
4820,-3.8710,0.4706,0.5160,1929.93,-139.53,-45.96
4830,-3.8710,0.3597,0.5045,242.43,-1952.21,-905.27
4840,-3.8710,0.2832,0.4790,-1945.07,578.80,516.60
4850,-3.8711,0.2605,0.4482,258.06,1313.05,938.42
4860,-3.8712,0.2870,0.4250,1351.81,1375.49,1360.23
4870,-3.8713,0.3364,0.4313,742.43,-1593.20,-671.08
4880,-3.8713,0.3730,0.4692,-929.44,-796.26,-608.58
4890,-3.8712,0.3853,0.5198,-241.94,63.17,1157.17
4900,-3.8711,0.3728,0.5592,1320.56,-1468.02,1016.60
4910,-3.8710,0.3263,0.5701,-273.19,-421.20,-1639.59
4920,-3.8708,0.2596,0.5522,1773.68,969.36,-1827.03
4930,-3.8708,0.2041,0.5137,1242.43,-1312.01,-1686.46
4940,-3.8710,0.1781,0.4705,-1866.94,1750.37,-249.02
4950,-3.8710,0.1809,0.4380,-1195.07,219.06,266.54
4960,-3.8711,0.1984,0.4125,-835.69,62.81,1985.23
4970,-3.8711,0.2101,0.3834,1398.68,797.24,1891.42
4980,-3.8711,0.2179,0.3712,-1101.32,1078.49,-749.27
4990,-3.8710,0.2247,0.3938,-101.32,-484.01,875.67
5000,-3.8710,0.2234,0.4371,773.68,-1593.32,-530.52
5010,-3.8708,0.2188,0.4775,601.81,-46.45,-499.21
5020,-3.8707,0.2174,0.4923,8.06,1125.43,-889.71
5030,-3.8706,0.2122,0.4846,-163.82,-984.01,1454.04
5040,-3.8706,0.1876,0.4617,-835.69,-1968.38,1188.42
5050,-3.8707,0.1440,0.4275,23.68,-905.88,1547.73
5060,-3.8708,0.0945,0.4037,-1554.44,-1281.01,422.67
5070,-3.8710,0.0428,0.3992,101.81,-327.94,750.73
5080,-3.8711,-0.0081,0.4027,1492.43,-906.19,-671.14
5090,-3.8711,-0.0505,0.4156,-1023.19,-437.56,-1811.77
5100,-3.8711,-0.0824,0.4576,1539.31,1218.63,703.92
5110,-3.8711,-0.0886,0.5321,1461.18,-1406.43,-1514.77
5120,-3.8708,-0.0425,0.6019,664.31,124.82,1422.91
5130,-3.8706,0.0521,0.6382,-1429.44,1062.38,1860.53
5140,-3.8705,0.1396,0.6464,-1320.07,1687.56,-483.15
5150,-3.8704,0.1720,0.6390,1883.06,-1265.38,1173.10
5160,-3.8704,0.1382,0.6309,-1976.32,1797.18,16.85
5170,-3.8705,0.0382,0.6382,1695.56,750.24,-1967.53
5180,-3.8705,-0.0991,0.6650,898.68,1687.56,1157.47
5190,-3.8705,-0.2255,0.7068,-679.44,1140.38,-1889.34
5200,-3.8704,-0.3292,0.7554,-851.32,-1516.11,641.97
5210,-3.8702,-0.4291,0.7861,1867.43,702.45,235.84
5220,-3.8702,-0.5402,0.7905,1086.18,639.77,-185.97
5230,-3.8701,-0.6493,0.7845,-1132.57,1202.03,-1373.47
5240,-3.8700,-0.7405,0.7499,898.68,436.22,423.40
5250,-3.8701,-0.7924,0.6697,1226.81,-1.46,-170.47
5260,-3.8702,-0.8036,0.5747,-1413.82,1732.79,-1404.97
5270,-3.8705,-0.8087,0.4872,1148.68,1576.54,1188.60
5280,-3.8708,-0.8152,0.4034,492.43,-1626.59,-1561.58
5290,-3.8711,-0.8147,0.3268,-335.69,-345.40,141.36
5300,-3.8715,-0.8055,0.2551,-273.19,1842.10,-1186.89
5310,-3.8717,-0.7961,0.1882,898.68,670.29,-171.39
5320,-3.8717,-0.7955,0.1514,-1898.19,107.79,656.62
5330,-3.8717,-0.8087,0.1633,-1820.07,-610.96,1484.62
5340,-3.8716,-0.8236,0.2019,492.43,920.29,1687.81
5350,-3.8715,-0.8130,0.2289,-1413.82,1857.73,-624.63
5360,-3.8713,-0.7567,0.2332,-54.44,1310.85,-343.32
5370,-3.8712,-0.6685,0.2264,-851.32,1857.85,906.68
5380,-3.8713,-0.5847,0.2169,-1554.44,998.66,-827.70
5390,-3.8715,-0.5201,0.2078,1164.31,-219.91,-515.26
5400,-3.8716,-0.4813,0.2100,1429.93,-1391.66,-374.63
5410,-3.8716,-0.4753,0.2406,-1601.32,-1110.35,1406.62
5420,-3.8716,-0.4948,0.2941,-835.69,-1188.48,1844.18
5430,-3.8715,-0.5195,0.3594,679.93,1655.27,703.67
5440,-3.8713,-0.5443,0.4513,1508.06,-1985.41,1985.05
5450,-3.8711,-0.5757,0.5719,-1663.82,1780.15,-1717.90
5460,-3.8707,-0.6200,0.6821,-1679.44,1217.59,657.35
5470,-3.8705,-0.6687,0.7388,648.68,-673.10,1251.28
5480,-3.8704,-0.6943,0.7389,-1585.69,-1423.22,17.03
5490,-3.8705,-0.6798,0.7206,-866.94,-1407.65,173.28
5500,-3.8707,-0.6278,0.7109,992.43,248.66,517.03
5510,-3.8710,-0.5518,0.7101,-351.32,-985.66,1016.97
5520,-3.8712,-0.4661,0.7113,1383.06,-1094.85,-1186.16
5530,-3.8713,-0.3882,0.7052,351.81,-938.42,1079.47
5540,-3.8716,-0.3348,0.6992,-1679.44,-1719.54,-186.16
5550,-3.8716,-0.3175,0.7080,1148.68,1514.95,376.34
5560,-3.8717,-0.3269,0.7207,-632.57,-1360.05,-76.78
5570,-3.8716,-0.3339,0.7184,-1835.69,264.95,1048.28
5580,-3.8716,-0.3219,0.7024,1273.68,-31.92,1501.34
5590,-3.8716,-0.2952,0.6862,-1195.07,1921.20,860.72
5600,-3.8717,-0.2562,0.6750,-1773.19,-156.86,-217.47
5610,-3.8717,-0.1958,0.6696,-788.82,-1578.67,-1014.34
5620,-3.8717,-0.1150,0.6683,-1054.44,1718.32,-1170.59
5630,-3.8717,-0.0226,0.6708,1289.31,1562.26,-1092.47
5640,-3.8717,0.0677,0.6807,1117.43,1874.94,-1483.09
5650,-3.8717,0.1372,0.6981,679.93,-874.88,1704.41
5660,-3.8717,0.1709,0.7164,1570.56,1359.62,1782.59
5670,-3.8716,0.1687,0.7345,1883.06,-296.57,157.59
5680,-3.8715,0.1454,0.7483,1601.81,-1984.07,17.03
5690,-3.8715,0.1104,0.7428,-1382.57,-218.51,-1498.60
5700,-3.8715,0.0698,0.7311,-1866.94,-921.69,-1311.10
5710,-3.8715,0.0435,0.7322,945.56,1578.25,-1920.47
5720,-3.8715,0.0529,0.7335,1570.56,1718.81,1985.78
5730,-3.8715,0.1093,0.7253,-1226.32,1890.69,-1795.47
5740,-3.8715,0.2108,0.7220,1992.43,843.93,-1451.72
5750,-3.8715,0.3260,0.7229,-1007.57,422.24,-154.85
5760,-3.8713,0.4174,0.7133,1742.43,531.86,1579.53
5770,-3.8713,0.4838,0.6974,1429.93,-702.33,-1514.28
5780,-3.8713,0.5433,0.6886,1929.93,1266.54,-1311.16
5790,-3.8713,0.6011,0.6881,1554.93,141.66,-873.66
5800,-3.8712,0.6488,0.6824,945.56,79.28,220.09
5810,-3.8712,0.6780,0.6556,-945.07,-655.03,-1795.59
5820,-3.8711,0.6836,0.6168,-1210.69,-76.84,954.35
5830,-3.8711,0.7030,0.5874,-491.94,-1045.59,-498.84
5840,-3.8710,0.7490,0.5687,1992.43,-811.16,-1827.03
5850,-3.8708,0.7924,0.5618,-116.94,798.28,-1655.15
5860,-3.8707,0.8340,0.5643,1429.93,-92.22,-108.34
5870,-3.8705,0.8579,0.5637,-1241.94,235.96,-1608.28
5880,-3.8702,0.8802,0.5623,1820.56,157.90,-1967.65
5890,-3.8700,0.9296,0.5730,679.93,-29.54,-1545.84
5900,-3.8698,0.9707,0.5883,-1007.57,1345.52,-1998.90
5910,-3.8696,0.9701,0.5906,258.06,-701.23,-764.53
5920,-3.8695,0.9348,0.5771,179.93,-404.36,938.60
5930,-3.8696,0.8606,0.5537,-335.69,1876.77,-1373.90
5940,-3.8698,0.7557,0.5267,-1835.69,-1123.35,844.79
5950,-3.8700,0.6675,0.5073,742.43,-576.66,907.23
5960,-3.8702,0.6200,0.5037,1445.56,938.78,172.85
5970,-3.8706,0.5997,0.5193,-632.57,469.91,-45.90
5980,-3.8707,0.5796,0.5588,773.68,-1530.09,1891.60
5990,-3.8708,0.5338,0.6211,-1804.44,-467.65,-905.21
6000,-3.8708,0.4326,0.6871,336.18,-498.96,-92.59
6010,-3.8707,0.2802,0.7340,-616.94,-46.08,-1373.72
6020,-3.8706,0.1235,0.7550,-132.57,1953.61,298.28
6030,-3.8707,-0.0032,0.7482,-179.44,640.81,-920.41
6040,-3.8708,-0.0771,0.7168,-398.19,-218.81,-842.35
6050,-3.8710,-0.0754,0.6816,-1866.94,-234.56,-1811.16
6060,-3.8711,-0.0104,0.6591,-1648.19,-734.56,1813.78
6070,-3.8712,0.0773,0.6516,-1320.07,374.94,-842.47
6080,-3.8712,0.1543,0.6554,1898.68,-593.63,-1483.15
6090,-3.8712,0.2118,0.6569,-241.94,-109.13,-873.78
6100,-3.8712,0.2556,0.6515,-882.57,78.49,-373.72
6110,-3.8712,0.2841,0.6466,726.81,-608.89,-748.78
6120,-3.8712,0.2863,0.6477,367.43,-1233.83,-1811.28
6130,-3.8712,0.2551,0.6527,648.68,-1093.20,844.97
6140,-3.8713,0.1989,0.6499,664.31,-452.64,-608.15
6150,-3.8713,0.1429,0.6338,1461.18,-812.13,1719.97
6160,-3.8713,0.1049,0.6102,-1695.07,1125.24,48.10
6170,-3.8715,0.0845,0.5823,1429.93,-1890.44,-1295.72
6180,-3.8715,0.0846,0.5491,-1179.44,-1468.63,1579.22
6190,-3.8715,0.1056,0.5184,-1163.82,-1718.63,251.04
6200,-3.8716,0.1313,0.4972,1523.68,-1640.44,-1764.65
6210,-3.8717,0.1564,0.4888,820.56,-359.13,-233.46
6220,-3.8717,0.1825,0.4860,23.68,-1437.19,-1311.58
6230,-3.8716,0.1984,0.4769,-632.57,-1796.57,610.29
6240,-3.8715,0.1932,0.4698,1398.68,1047.24,125.92
6250,-3.8715,0.1599,0.4757,742.43,140.99,-389.71
6260,-3.8713,0.1012,0.4927,476.81,890.93,-936.58
6270,-3.8712,0.0251,0.5042,961.18,-937.32,-1999.08
6280,-3.8712,-0.0564,0.4901,-773.19,531.25,-936.52
6290,-3.8712,-0.1193,0.4500,789.31,-1250.12,782.17
6300,-3.8715,-0.1428,0.4067,742.43,1609.13,-217.90
6310,-3.8716,-0.1266,0.3795,1726.81,77.82,-1405.46
6320,-3.8717,-0.0956,0.3756,-195.07,593.44,-1030.52
6330,-3.8717,-0.0734,0.3978,-226.32,93.51,860.11
6340,-3.8717,-0.0645,0.4420,-1382.57,-1062.68,110.11
6350,-3.8717,-0.0631,0.4946,-241.94,593.57,1547.73
6360,-3.8716,-0.0574,0.5397,-70.07,-672.06,610.29
6370,-3.8716,-0.0458,0.5775,664.31,1093.63,-217.71
6380,-3.8715,-0.0391,0.6133,-1851.32,1937.38,-1842.65
6390,-3.8715,-0.0503,0.6385,-991.94,-1484.50,-1076.97
6400,-3.8715,-0.0835,0.6508,1570.56,1749.88,-1733.15
6410,-3.8715,-0.1271,0.6665,1320.56,-687.68,-1905.03
6420,-3.8713,-0.1672,0.6986,-257.57,1327.82,79.41
6430,-3.8712,-0.2034,0.7397,-1398.19,1437.13,423.22
6440,-3.8711,-0.2422,0.7723,1976.81,-1297.30,1923.28
6450,-3.8710,-0.2909,0.7980,1008.06,-1125.49,-514.16
6460,-3.8707,-0.3649,0.8370,-1226.32,-1844.36,1470.28
6470,-3.8706,-0.4685,0.8818,1304.93,-844.48,-201.54
6480,-3.8704,-0.5892,0.8947,39.31,889.71,845.46
6490,-3.8704,-0.7131,0.8649,586.18,-1469.91,-1357.67
6500,-3.8704,-0.8323,0.8104,726.81,-1282.65,611.02
6510,-3.8705,-0.9384,0.7460,1476.81,-251.65,532.78
6520,-3.8707,-1.0226,0.6698,-101.32,-501.89,-404.85
6530,-3.8708,-1.0786,0.5764,1117.43,1747.99,688.78
6540,-3.8712,-1.0883,0.4760,1945.56,1794.74,-467.65
6550,-3.8715,-1.0397,0.3970,711.18,935.36,-1889.71
6560,-3.8717,-0.9448,0.3606,-1070.07,-1173.95,-1827.39
6570,-3.8719,-0.8282,0.3513,-929.44,-1830.02,-14.95
6580,-3.8719,-0.7152,0.3499,1992.43,982.73,266.30
6590,-3.8721,-0.6267,0.3551,461.18,795.47,-593.08
6600,-3.8719,-0.5793,0.3678,-210.69,1467.47,656.92
6610,-3.8719,-0.5720,0.3920,1851.81,-907.41,-874.33
6620,-3.8718,-0.5836,0.4254,-1210.69,-1813.66,-1968.02
6630,-3.8717,-0.5963,0.4624,1304.93,-1532.41,1094.54
6640,-3.8716,-0.6073,0.5034,-320.07,-798.10,672.73
6650,-3.8715,-0.6232,0.5464,-1726.32,451.90,813.48
6660,-3.8713,-0.6342,0.5850,242.43,1951.90,844.79
6670,-3.8712,-0.6257,0.6198,-1163.82,-1110.66,454.22
6680,-3.8712,-0.5981,0.6617,-85.69,-657.53,-701.97
6690,-3.8711,-0.5579,0.7158,-554.44,717.53,595.03
6700,-3.8711,-0.5189,0.7677,601.81,-360.47,79.47
6710,-3.8712,-0.4939,0.7971,1586.18,-1719.79,-1311.04
6720,-3.8712,-0.4860,0.8015,789.31,-1954.10,1126.53
6730,-3.8713,-0.4869,0.7954,1804.93,-1391.60,-560.97
6740,-3.8713,-0.4784,0.7882,1679.93,1827.15,1673.40
6750,-3.8715,-0.4420,0.7814,-1226.32,905.27,-810.97
6760,-3.8716,-0.3728,0.7852,-570.07,30.33,-123.47
6770,-3.8716,-0.2848,0.7990,289.31,514.89,1126.53
6780,-3.8716,-0.1996,0.7977,-445.07,-1719.36,439.03
6790,-3.8716,-0.1323,0.7708,-1538.82,-1875.43,1517.15
6800,-3.8716,-0.0824,0.7365,-929.44,-1328.43,-764.16
6810,-3.8715,-0.0332,0.7158,1461.18,-1718.93,1704.53
6820,-3.8713,0.0215,0.7178,-241.94,-359.50,1110.72
6830,-3.8713,0.0555,0.7299,-1241.94,-125.00,-92.41
6840,-3.8712,0.0302,0.7217,-882.57,1421.94,329.53
6850,-3.8713,-0.0687,0.6848,-132.57,375.00,-1748.60
6860,-3.8715,-0.2006,0.6438,-788.82,-328.31,-1201.84
6870,-3.8716,-0.2981,0.6277,-1663.82,-1578.55,-545.65
6880,-3.8716,-0.3334,0.6345,1851.81,358.76,1735.60
6890,-3.8716,-0.3109,0.6450,1336.18,1233.70,-545.65
6900,-3.8713,-0.2347,0.6556,211.18,-1422.49,438.72
6910,-3.8712,-0.1191,0.6719,1961.18,-62.99,-1436.28
6920,-3.8710,0.0027,0.6925,758.06,-1984.62,376.28
6930,-3.8708,0.0768,0.6914,351.81,640.62,641.97
6940,-3.8708,0.0647,0.6475,1836.18,500.12,1251.34
6950,-3.8710,-0.0096,0.5797,289.31,-1124.88,1001.22
6960,-3.8712,-0.0822,0.5155,-1226.32,-1781.31,1126.10
6970,-3.8715,-0.1041,0.4756,1492.43,1999.82,344.73
6980,-3.8717,-0.0690,0.4576,-1320.07,890.38,1985.29
6990,-3.8717,0.0106,0.4481,-820.07,-1406.43,1407.10
7000,-3.8716,0.1216,0.4603,1367.43,1359.38,-421.02
7010,-3.8712,0.2391,0.5118,-429.44,-1077.94,-1124.15
7020,-3.8707,0.3212,0.5865,-1382.57,1516.05,1735.35
7030,-3.8702,0.3438,0.6379,1117.43,-921.26,1344.85
7040,-3.8699,0.3356,0.6337,8.06,1656.92,813.72
7050,-3.8698,0.3309,0.5864,-1038.82,1109.99,954.35
7060,-3.8699,0.3370,0.5205,-1632.57,-936.89,1766.72
7070,-3.8701,0.3690,0.4523,-851.32,-1374.39,-1108.40
7080,-3.8702,0.4387,0.4039,-757.57,1891.30,1641.48
7090,-3.8702,0.5270,0.3940,164.31,-296.02,625.73
7100,-3.8702,0.6163,0.4143,-538.82,-1561.52,-374.27
7110,-3.8700,0.6975,0.4465,-1101.32,1032.41,1875.79
7120,-3.8698,0.7468,0.4806,1289.31,1157.59,1860.23
7130,-3.8695,0.7393,0.5109,-398.19,1517.03,1657.17
7140,-3.8694,0.7061,0.5371,-1366.94,1392.03,-30.27
7150,-3.8691,0.6553,0.5475,-1616.94,751.34,157.29
7160,-3.8691,0.5593,0.5454,-116.94,-1920.65,1282.29
7170,-3.8693,0.4410,0.5579,-398.19,1813.54,-1092.71
7180,-3.8694,0.3273,0.5820,461.18,-592.90,1938.54
7190,-3.8696,0.2504,0.5913,1898.68,-1499.39,-748.90
7200,-3.8699,0.2340,0.5835,54.93,-312.01,-842.65
7210,-3.8701,0.2593,0.5850,1961.18,-1312.07,-1217.65
7220,-3.8702,0.2926,0.6107,1195.56,-1124.51,610.47
7230,-3.8704,0.3127,0.6472,1461.18,-1827.58,-1623.84
7240,-3.8704,0.3081,0.6774,39.31,-1155.64,-1170.65
7250,-3.8704,0.2747,0.6986,-554.44,-1296.33,-623.72
7260,-3.8704,0.2168,0.7118,-835.69,1422.36,-1233.03
7270,-3.8704,0.1458,0.7173,-241.94,-890.26,1204.47
7280,-3.8705,0.0769,0.7181,-1335.69,-187.26,-1045.53
7290,-3.8706,0.0247,0.7208,1851.81,-78.00,-92.41
7300,-3.8706,-0.0070,0.7262,-835.69,265.62,392.03
7310,-3.8707,-0.0203,0.7239,-882.57,968.69,1673.28
7320,-3.8707,-0.0156,0.7108,1414.31,671.81,454.53
7330,-3.8707,0.0052,0.6986,-1991.94,-1000.06,845.09
7340,-3.8707,0.0325,0.6940,679.93,1421.88,-1233.03
7350,-3.8706,0.0449,0.6904,164.31,828.19,1454.47
7360,-3.8706,0.0331,0.6846,1758.06,375.06,-733.03
7370,-3.8706,0.0074,0.6814,242.43,-374.94,-1545.59
7380,-3.8707,-0.0264,0.6832,961.18,-781.25,-1217.47
7390,-3.8708,-0.0809,0.6791,633.06,-531.31,1532.53
7400,-3.8710,-0.1577,0.6794,1648.68,-1062.68,829.41
7410,-3.8711,-0.2377,0.6849,-179.44,-1015.99,1891.91
7420,-3.8711,-0.3136,0.6644,1586.18,-312.99,626.28
7430,-3.8711,-0.3802,0.6121,-132.57,1061.83,438.78
7440,-3.8711,-0.4243,0.5497,-663.82,-1641.42,438.66
7450,-3.8711,-0.4376,0.4991,1695.56,-1625.85,344.79
7460,-3.8712,-0.4232,0.4645,-7.57,-94.67,-186.58
7470,-3.8712,-0.3983,0.4332,1836.18,-532.10,-1561.65
7480,-3.8712,-0.3757,0.3916,1023.68,-532.04,375.79
7490,-3.8713,-0.3610,0.3542,-85.69,-1860.17,-1436.77
7500,-3.8713,-0.3518,0.3368,1804.93,1358.64,1813.17
7510,-3.8713,-0.3391,0.3276,-1023.19,-875.73,1234.99
7520,-3.8715,-0.3311,0.3171,601.81,1952.45,-468.14
7530,-3.8715,-0.3401,0.3058,1633.06,608.70,922.49
7540,-3.8716,-0.3506,0.3013,476.81,-844.42,1563.05
7550,-3.8717,-0.3345,0.3202,-866.94,-1422.61,1219.30
7560,-3.8718,-0.2924,0.3652,1195.56,999.33,1141.24
7570,-3.8719,-0.2313,0.4319,-1413.82,-1234.99,-280.58
7580,-3.8718,-0.1497,0.5203,-1601.32,-703.61,-1030.46
7590,-3.8716,-0.0708,0.6171,851.81,-1390.93,-1139.65
7600,-3.8712,-0.0409,0.7024,-1054.44,-1000.18,813.66
7610,-3.8710,-0.1047,0.7677,-1226.32,1921.75,-1967.41
7620,-3.8707,-0.2714,0.8174,-1398.19,-1718.99,1735.84
7630,-3.8706,-0.5052,0.8665,1273.68,640.08,-60.91
7640,-3.8705,-0.7676,0.9119,-663.82,-1079.16,-123.35
7650,-3.8704,-1.0396,0.9231,1758.06,732.85,1454.90
7660,-3.8704,-1.2826,0.8815,-1054.44,-1830.20,798.65
7670,-3.8705,-1.4250,0.7930,-163.82,841.19,1189.21
7680,-3.8707,-1.4308,0.6693,1601.81,1512.82,-1982.85
7690,-3.8710,-1.3296,0.5376,867.43,1684.69,266.91
7700,-3.8713,-1.1733,0.4366,1820.56,825.50,922.91
7710,-3.8717,-1.0095,0.3671,1820.56,-96.07,485.17
7720,-3.8721,-0.8656,0.3086,-1210.69,-1002.01,360.05
7730,-3.8724,-0.7465,0.2623,1211.18,-486.08,-1655.70
7740,-3.8727,-0.6562,0.2343,461.18,1592.29,-327.64
7750,-3.8727,-0.6040,0.2242,8.06,1998.72,422.30
7760,-3.8727,-0.6019,0.2340,-1304.44,717.53,453.55
7770,-3.8726,-0.6438,0.2628,-1038.82,1967.53,47.30
7780,-3.8724,-0.6909,0.3096,1601.81,1654.97,-343.26
7790,-3.8721,-0.7126,0.3630,-429.44,-360.78,1594.30
7800,-3.8718,-0.7122,0.4093,789.31,-1517.03,-1046.20
7810,-3.8716,-0.7019,0.4498,851.81,404.85,1750.79
7820,-3.8715,-0.6879,0.4780,-1835.69,1592.35,1172.73
7830,-3.8715,-0.6705,0.4843,-38.82,1201.72,1438.42
7840,-3.8716,-0.6464,0.4843,-1820.07,1998.66,-358.46
7850,-3.8716,-0.6080,0.5012,1273.68,1998.72,1485.29
7860,-3.8716,-0.5581,0.5408,-1820.07,170.65,579.10
7870,-3.8716,-0.5072,0.5936,570.56,1233.28,-1827.09
7880,-3.8715,-0.4658,0.6434,-913.82,-1.04,-1186.40
7890,-3.8712,-0.4442,0.6652,383.06,-1625.92,1266.85
7900,-3.8711,-0.4386,0.6490,-851.32,1155.33,-1326.84
7910,-3.8710,-0.4406,0.6237,-132.57,-907.17,266.85
7920,-3.8711,-0.4474,0.6093,-382.57,-157.17,1329.28
7930,-3.8713,-0.4520,0.6036,-1257.57,1999.08,-498.84
7940,-3.8715,-0.4403,0.6139,-1851.32,1280.33,1141.78
7950,-3.8716,-0.4106,0.6345,-351.32,-1407.17,282.41
7960,-3.8717,-0.3809,0.6536,-554.44,1233.52,-873.78
7970,-3.8716,-0.3577,0.6761,-741.94,-328.92,-1295.65
7980,-3.8713,-0.3265,0.7046,-1773.19,-1438.23,1095.03
7990,-3.8711,-0.2756,0.7283,-1788.82,-1797.55,688.84
8000,-3.8708,-0.2190,0.7454,726.81,1233.83,610.78
8010,-3.8707,-0.1931,0.7653,-23.19,-578.61,1970.15
8020,-3.8707,-0.2290,0.7781,-710.69,1968.32,-1904.79
8030,-3.8708,-0.3097,0.7656,-1304.44,-391.11,1470.21
8040,-3.8711,-0.3708,0.7308,367.43,-1984.99,1985.84
8050,-3.8713,-0.3624,0.6896,539.31,1561.77,1610.78
8060,-3.8716,-0.2859,0.6582,1617.43,280.52,-483.03
8070,-3.8716,-0.1713,0.6420,-585.69,265.01,-1576.84
8080,-3.8715,-0.0566,0.6329,-1913.82,-1812.87,-1717.53
8090,-3.8712,0.0406,0.6495,758.06,1031.13,844.97
8100,-3.8711,0.1140,0.7013,1211.18,-859.31,-30.03
8110,-3.8708,0.1444,0.7549,-1398.19,1765.81,-1451.78
8120,-3.8707,0.1304,0.7751,-1507.57,625.24,-1545.41
8130,-3.8707,0.1030,0.7524,695.56,-781.01,-1592.29
8140,-3.8707,0.0909,0.7079,1195.56,312.68,563.96
8150,-3.8708,0.1074,0.6663,-351.32,-1390.50,-92.41
8160,-3.8707,0.1704,0.6321,1758.06,1281.43,1360.66
8170,-3.8706,0.2773,0.6080,1820.56,906.56,79.35
8180,-3.8706,0.3934,0.6045,-491.94,1828.61,-795.72
8190,-3.8705,0.4944,0.6160,-1632.57,1375.73,-1451.97
8200,-3.8704,0.5769,0.6162,-710.69,-1155.33,1954.28
8210,-3.8702,0.6455,0.5951,1851.81,-1123.90,891.78
8220,-3.8702,0.7065,0.5658,-1366.94,173.10,-326.97
8230,-3.8701,0.7548,0.5341,-1554.44,423.22,-952.03
8240,-3.8700,0.7736,0.5037,617.43,360.84,-342.71
8250,-3.8698,0.7866,0.4907,-976.32,470.21,1375.98
8260,-3.8696,0.8021,0.5015,695.56,-1185.97,-452.21
8270,-3.8694,0.7938,0.5197,-1320.07,189.03,1204.10
8280,-3.8693,0.7583,0.5278,1617.43,-1482.85,1516.60
8290,-3.8693,0.6982,0.5240,1070.56,-436.04,-170.90
8300,-3.8693,0.6389,0.5144,1383.06,-920.53,-499.02
8310,-3.8693,0.6063,0.5060,1789.31,1844.97,532.23
8320,-3.8695,0.5778,0.5050,1617.43,766.78,-1155.27
8330,-3.8698,0.5353,0.5153,1961.18,641.72,-1092.77
8340,-3.8700,0.4875,0.5332,523.68,1954.16,-1811.52
8350,-3.8702,0.4276,0.5472,-1585.69,250.92,1954.16
8360,-3.8705,0.3678,0.5629,-1257.57,-1952.33,-873.96
8370,-3.8706,0.3066,0.5898,-913.82,47.55,1766.72
8380,-3.8707,0.2280,0.6213,-741.94,-499.45,1610.47
8390,-3.8708,0.1461,0.6593,1195.56,-468.32,-623.84
8400,-3.8708,0.0653,0.7051,-1288.82,390.87,-217.47
8410,-3.8707,-0.0195,0.7460,367.43,-1749.88,-1186.16
8420,-3.8706,-0.0979,0.7692,1508.06,-500.06,-451.72
8430,-3.8704,-0.1511,0.7639,-523.19,-1531.49,282.71
8440,-3.8704,-0.1646,0.7271,664.31,1796.57,-1045.41
8450,-3.8704,-0.1298,0.6693,-1054.44,1077.76,-1498.60
8460,-3.8704,-0.0494,0.6125,-601.32,1687.19,329.41
8470,-3.8705,0.0573,0.5773,1679.93,-1578.25,1985.53
8480,-3.8706,0.1487,0.5621,-663.82,1890.69,-186.40
8490,-3.8706,0.2125,0.5668,-960.69,-46.63,-1514.59
8500,-3.8706,0.2488,0.5889,-788.82,547.24,1751.10
8510,-3.8706,0.2350,0.6036,-148.19,-624.57,610.47
8520,-3.8707,0.1744,0.6022,-1913.82,1266.05,-1592.59
8530,-3.8708,0.0895,0.5922,-1663.82,1078.43,-295.72
8540,-3.8708,0.0027,0.5753,-538.82,-203.00,-1983.28
8550,-3.8708,-0.0752,0.5516,351.81,1640.62,1891.72
8560,-3.8708,-0.1407,0.5269,-1616.94,-1375.18,-1014.59
8570,-3.8707,-0.1876,0.5087,1992.43,-547.18,610.35
8580,-3.8707,-0.2142,0.5002,-7.57,1124.57,-1858.40
8590,-3.8707,-0.2249,0.4934,586.18,46.45,-1420.90
8600,-3.8707,-0.2257,0.4758,-773.19,-828.61,1360.29
8610,-3.8708,-0.2277,0.4438,-882.57,921.39,-1030.33
8620,-3.8708,-0.2084,0.4133,-1132.57,827.64,78.98
8630,-3.8710,-0.1490,0.4015,1336.18,921.45,1047.67
8640,-3.8711,-0.0745,0.4130,929.93,-594.06,-1983.64
8650,-3.8712,-0.0063,0.4504,-1523.19,874.82,-967.96
8660,-3.8713,0.0363,0.5081,-804.44,1671.81,-108.52
8670,-3.8713,0.0332,0.5791,648.68,1031.31,407.23
8680,-3.8715,-0.0106,0.6622,258.06,-1874.94,1751.10
8690,-3.8715,-0.0549,0.7402,-1351.32,781.19,1282.53
8700,-3.8715,-0.0774,0.7949,976.81,-1234.50,-1201.72
8710,-3.8713,-0.1049,0.8282,-1898.19,1765.44,751.53
8720,-3.8713,-0.1627,0.8523,-1413.82,-1968.99,-1826.54
8730,-3.8713,-0.2368,0.8713,-820.07,1109.01,-607.73
8740,-3.8712,-0.3108,0.8684,1695.56,-453.61,532.90
8750,-3.8712,-0.3848,0.8335,226.81,-828.74,1157.90
8760,-3.8712,-0.4712,0.7943,-1241.94,-1297.67,470.34
8770,-3.8713,-0.5898,0.7689,-304.44,1686.52,-1310.97
8780,-3.8713,-0.7411,0.7389,508.06,-1563.66,1673.34
8790,-3.8713,-0.8718,0.6897,1148.68,-1407.71,-1982.97
8800,-3.8713,-0.9260,0.6257,414.31,295.17,-1920.53
8810,-3.8713,-0.9203,0.5515,1476.81,107.54,173.10
8820,-3.8715,-0.9087,0.4677,-1788.82,-1392.46,204.16
8830,-3.8717,-0.9410,0.3818,-304.44,-126.83,-655.40
8840,-3.8718,-1.0201,0.3032,-445.07,888.73,-1202.39
8850,-3.8719,-1.0872,0.2328,1429.93,-1173.89,-1015.08
8860,-3.8719,-1.0917,0.1667,851.81,1810.36,109.80
8870,-3.8721,-1.0330,0.1173,273.68,1357.24,-1171.57
8880,-3.8719,-0.9321,0.1034,-210.69,-970.83,390.81
8890,-3.8718,-0.8123,0.1211,695.56,1248.17,1187.68
8900,-3.8717,-0.6881,0.1508,39.31,-485.96,-218.57
8910,-3.8715,-0.5685,0.1771,-70.07,-688.90,1875.24
8920,-3.8713,-0.4668,0.1953,-757.57,-1313.66,1422.18
8930,-3.8713,-0.3999,0.2013,258.06,1014.71,1656.62
8940,-3.8715,-0.3861,0.1967,820.56,1780.46,-499.63
8950,-3.8715,-0.4290,0.2021,-1413.82,1186.71,484.74
8960,-3.8716,-0.5140,0.2302,1101.81,1889.77,1328.49
8970,-3.8717,-0.6205,0.2686,-1788.82,1483.34,-952.70
8980,-3.8717,-0.7273,0.2952,586.18,-1610.60,-1312.01
8990,-3.8717,-0.8146,0.3047,-1085.69,1795.41,-452.58
9000,-3.8716,-0.8647,0.3185,-257.57,-986.02,16.17
9010,-3.8716,-0.8654,0.3456,1320.56,779.54,297.49
9020,-3.8716,-0.8021,0.3715,1242.43,248.29,-1983.70
9030,-3.8715,-0.6755,0.3900,1336.18,-439.09,766.30
9040,-3.8715,-0.5181,0.4058,1539.31,1936.16,-1639.89
9050,-3.8715,-0.3767,0.4159,1695.56,-47.91,1844.48
9060,-3.8716,-0.2821,0.4161,-210.69,1249.21,-327.33
9070,-3.8717,-0.2404,0.4059,-101.32,1280.64,-46.08
9080,-3.8718,-0.2412,0.3877,1242.43,-31.74,-1233.64
9090,-3.8719,-0.2627,0.3707,1133.06,1640.14,1797.61
9100,-3.8721,-0.2854,0.3615,-1616.94,-531.80,-1218.08
9110,-3.8721,-0.3042,0.3688,-523.19,-1719.36,-1718.08
9120,-3.8721,-0.3154,0.4001,1070.56,-781.86,-218.08
9130,-3.8719,-0.3185,0.4442,-366.94,-766.30,-1577.39
9140,-3.8718,-0.3218,0.4901,-757.57,874.33,1657.10
9150,-3.8717,-0.3291,0.5416,-1179.44,-1250.67,1219.67
9160,-3.8716,-0.3368,0.5903,1883.06,1343.08,1407.29
9170,-3.8715,-0.3344,0.6134,898.68,-422.55,-1967.65
9180,-3.8713,-0.3160,0.6125,1211.18,-1469.42,1688.66
9190,-3.8713,-0.2887,0.6169,-445.07,-1578.80,-608.22
9200,-3.8713,-0.2593,0.6460,-945.07,-1016.24,-467.59
9210,-3.8713,-0.2273,0.6803,-1179.44,-1297.42,-1514.40
9220,-3.8713,-0.1932,0.6909,-1085.69,-906.74,95.03
9230,-3.8715,-0.1593,0.6803,-726.32,452.70,470.09
9240,-3.8716,-0.1226,0.6733,-382.57,-906.62,532.53
9250,-3.8717,-0.0798,0.6896,320.56,-1797.12,1423.16
9260,-3.8717,-0.0332,0.7202,1789.31,281.07,63.84
9270,-3.8717,0.0129,0.7505,-241.94,203.00,860.78
9280,-3.8717,0.0447,0.7865,1664.31,62.50,-998.54
9290,-3.8716,0.0404,0.8273,1726.81,671.94,1064.03
9300,-3.8716,0.0052,0.8596,1179.93,1890.69,-717.16
9310,-3.8715,-0.0292,0.8822,679.93,-1968.75,1939.15
9320,-3.8715,-0.0409,0.8981,273.68,937.44,-248.29
9330,-3.8715,-0.0162,0.9039,-1226.32,-1031.37,-232.67
9340,-3.8715,0.0433,0.8993,1929.93,-281.31,-1982.67
9350,-3.8716,0.1127,0.8892,1554.93,-890.56,-279.54
9360,-3.8716,0.1794,0.8746,-1570.07,1812.68,1954.83
9370,-3.8716,0.2512,0.8552,-1023.19,-46.57,1439.15
9380,-3.8716,0.3344,0.8384,164.31,1469.24,-842.10
9390,-3.8715,0.4286,0.8282,-1195.07,-686.89,-467.16
9400,-3.8712,0.5223,0.8217,-1132.57,-1983.58,1251.59
9410,-3.8711,0.5952,0.8174,-1132.57,1172.85,-1545.29
9420,-3.8710,0.6345,0.8075,195.56,626.16,-1717.16
9430,-3.8708,0.6410,0.7762,1226.81,-639.40,32.78
9440,-3.8710,0.6222,0.7252,-1945.07,-639.40,-389.16
9450,-3.8710,0.5951,0.6703,-351.32,829.28,1610.78
9460,-3.8711,0.6019,0.6254,179.93,1798.03,-326.84
9470,-3.8711,0.6462,0.5916,1054.93,48.03,-951.90
9480,-3.8711,0.6978,0.5690,-1273.19,-280.03,-358.28
9490,-3.8710,0.7374,0.5577,1320.56,829.47,1407.35
9500,-3.8708,0.7523,0.5465,-1601.32,-607.97,188.54
9510,-3.8708,0.7731,0.5366,304.93,1954.59,-202.09
9520,-3.8706,0.8073,0.5311,-1038.82,688.96,126.04
9530,-3.8705,0.8182,0.5203,-663.82,-14.10,1266.60
9540,-3.8704,0.8042,0.5065,742.43,-1404.66,-1499.02
9550,-3.8702,0.7751,0.4993,-1054.44,829.65,-1249.02
9560,-3.8701,0.7388,0.4938,-773.19,-92.29,1375.92
9570,-3.8701,0.7216,0.4847,-1429.44,-795.47,-1842.83
9580,-3.8701,0.7349,0.4761,367.43,-1951.72,1250.92
9590,-3.8702,0.7500,0.4706,-1929.44,938.90,-920.96
9600,-3.8702,0.7574,0.4708,8.06,235.84,672.79
9610,-3.8704,0.7621,0.4846,961.18,267.09,-920.96
9620,-3.8704,0.7498,0.5212,1554.93,-1967.29,-1405.33
9630,-3.8704,0.7241,0.5819,-23.19,-1279.85,-780.27
9640,-3.8702,0.6724,0.6464,695.56,-1514.22,1204.22
9650,-3.8702,0.5886,0.6890,-1929.44,-1264.34,-248.78
9660,-3.8701,0.4882,0.7037,-648.19,188.60,1016.97
9670,-3.8701,0.3876,0.7063,-1507.57,-1920.96,188.84
9680,-3.8702,0.3075,0.7133,1617.43,-1593.02,1985.72
9690,-3.8702,0.2555,0.7296,-632.57,-702.58,32.59
9700,-3.8704,0.2328,0.7517,711.18,1391.11,-576.72
9710,-3.8704,0.2260,0.7673,1804.93,219.18,-529.79
9720,-3.8704,0.2190,0.7693,929.93,-1780.82,-1123.54
9730,-3.8704,0.2058,0.7635,39.31,-1530.82,1267.09
9740,-3.8705,0.1843,0.7598,-1648.19,1734.74,-1123.54
9750,-3.8706,0.1592,0.7616,-398.19,1250.31,-29.79
9760,-3.8706,0.1329,0.7612,383.06,1484.68,1126.46
9770,-3.8707,0.1000,0.7499,1023.68,1437.74,-1357.91
9780,-3.8707,0.0558,0.7401,804.93,-15.44,438.90
9790,-3.8708,-0.0144,0.7252,-851.32,-1265.56,-1936.10
9800,-3.8710,-0.1019,0.6849,-1835.69,843.69,-545.47
9810,-3.8710,-0.1600,0.6273,-1038.82,-312.74,329.41
9820,-3.8711,-0.1605,0.5675,-476.32,312.13,751.22
9830,-3.8712,-0.1157,0.5140,-538.82,655.88,922.97
9840,-3.8713,-0.0510,0.4700,1195.56,1812.26,313.48
9850,-3.8716,0.0219,0.4401,1476.81,171.75,-655.33
9860,-3.8717,0.0808,0.4235,-1195.07,328.12,-999.15
9870,-3.8718,0.1073,0.4102,-1648.19,-1796.75,-530.46
9880,-3.8718,0.1099,0.3901,1742.43,500.18,16.42
9890,-3.8721,0.0916,0.3594,-1929.44,1937.68,-436.77
9900,-3.8722,0.0571,0.3215,-273.19,-1999.88,1578.80
9910,-3.8724,0.0236,0.2892,-679.44,1156.31,-1218.14
9920,-3.8726,0.0031,0.2715,-976.32,1015.62,453.67
9930,-3.8728,-0.0027,0.2678,398.68,-1250.00,-77.64
9940,-3.8728,-0.0055,0.2703,-335.69,-1703.19,1812.99
9950,-3.8728,-0.0154,0.2756,-695.07,-1390.69,1125.49
9960,-3.8728,-0.0327,0.2878,-1960.69,-703.19,766.11
9970,-3.8728,-0.0553,0.3051,-179.44,859.25,1016.17
9980,-3.8728,-0.0795,0.3267,929.93,-937.62,-1718.20
9990,-3.8727,-0.1019,0.3524,1836.18,1827.94,141.24
10000,-3.8727,-0.1230,0.3768,-1038.82,1124.76,1953.80
10010,-3.8727,-0.1396,0.3948,258.06,249.76,-30.52
10020,-3.8726,-0.1434,0.4023,-1866.94,-1453.43,-1358.64
10030,-3.8724,-0.1290,0.4026,1648.68,-484.68,1156.98
10040,-3.8724,-0.1127,0.4012,-507.57,-453.43,-1827.39
10050,-3.8724,-0.1022,0.4049,1586.18,-625.24,-1843.02
10060,-3.8724,-0.0884,0.4205,-1070.07,-156.49,-1218.02
10070,-3.8723,-0.0813,0.4457,695.56,1843.57,407.04
10080,-3.8723,-0.0846,0.4821,1601.81,1062.32,-1389.77
10090,-3.8722,-0.0903,0.5377,1179.93,1718.57,-1530.33
10100,-3.8719,-0.1074,0.5996,445.56,843.57,1563.54
10110,-3.8717,-0.1548,0.6453,-1741.94,765.38,-1280.09
10120,-3.8715,-0.2445,0.6660,195.56,-1390.93,-764.40
10130,-3.8712,-0.3580,0.6615,711.18,1265.14,1985.66
10140,-3.8711,-0.4534,0.6379,-1820.07,686.77,-1170.59
10150,-3.8710,-0.5029,0.6104,1976.81,1670.96,1688.72
10160,-3.8710,-0.5142,0.5870,-366.94,-1860.41,-1155.09
10170,-3.8710,-0.5214,0.5624,-1804.44,-844.79,-1092.65
10180,-3.8710,-0.5436,0.5326,1273.68,-1.04,-1998.96
10190,-3.8710,-0.5785,0.5045,-1570.07,186.40,266.66
10200,-3.8711,-0.6213,0.4868,1961.18,592.59,-889.65
10210,-3.8710,-0.6656,0.4827,476.81,-1673.10,297.79
10220,-3.8708,-0.7120,0.4844,-1195.07,1795.53,422.79
10230,-3.8707,-0.7601,0.4808,867.43,-1985.78,-1577.21
10240,-3.8705,-0.7936,0.4713,-1288.82,1560.97,954.04
10250,-3.8704,-0.7977,0.4609,-1570.07,342.16,-920.96
10260,-3.8702,-0.7791,0.4517,1898.68,-985.96,-124.15
10270,-3.8701,-0.7533,0.4397,289.31,1826.60,-1421.02
10280,-3.8701,-0.7281,0.4229,-413.82,295.35,-1858.52
10290,-3.8702,-0.7021,0.4016,-1195.07,-1860.84,-1483.58
10300,-3.8704,-0.6735,0.3809,-1866.94,-579.53,1047.61
10310,-3.8706,-0.6465,0.3696,1804.93,764.28,-905.52
10320,-3.8707,-0.6277,0.3700,1258.06,-673.16,1485.05
10330,-3.8708,-0.6171,0.3768,-335.69,-626.28,906.92
10340,-3.8710,-0.6135,0.3828,1023.68,248.78,1781.98
10350,-3.8711,-0.6182,0.3881,1476.81,1014.40,-452.39
10360,-3.8711,-0.6265,0.4032,883.06,1686.28,1375.73
10370,-3.8712,-0.6420,0.4315,-179.44,-376.28,-530.52
10380,-3.8712,-0.6691,0.4631,1836.18,-751.28,-1592.96
10390,-3.8712,-0.6908,0.4934,-1632.57,-704.47,1625.85
10400,-3.8712,-0.6930,0.5237,-413.82,-829.53,47.79
10410,-3.8713,-0.6798,0.5511,-695.07,-954.53,1610.35
10420,-3.8715,-0.6615,0.5752,992.43,-1438.84,-905.21
10430,-3.8715,-0.6431,0.5979,-663.82,1639.28,1204.22
10440,-3.8716,-0.6191,0.6184,1695.56,545.59,-30.09
10450,-3.8716,-0.5856,0.6354,758.06,-829.35,-701.97
10460,-3.8716,-0.5491,0.6493,1054.93,1342.59,-998.78
10470,-3.8716,-0.5171,0.6611,1726.81,-876.10,-1826.90
10480,-3.8716,-0.4921,0.6711,1820.56,639.59,345.03
10490,-3.8717,-0.4725,0.6824,1023.68,1920.90,-1639.34
10500,-3.8717,-0.4557,0.7009,-476.32,-641.60,829.41
10510,-3.8718,-0.4408,0.7242,1679.93,1733.46,-217.41
10520,-3.8718,-0.4240,0.7388,-413.82,717.83,-639.22
10530,-3.8718,-0.3943,0.7351,1742.43,-1422.73,-576.72
10540,-3.8718,-0.3494,0.7169,1539.31,-1891.42,-936.10
10550,-3.8718,-0.3004,0.6959,-710.69,-219.48,1516.97
10560,-3.8719,-0.2568,0.6853,1554.93,1093.14,-592.41
10570,-3.8719,-0.2260,0.6891,-866.94,-266.17,-1733.09
10580,-3.8719,-0.2175,0.7021,-913.82,218.26,-1233.03
10590,-3.8718,-0.2262,0.7126,164.31,1890.20,63.84
10600,-3.8718,-0.2197,0.7146,-945.07,-766.11,1798.22
10610,-3.8717,-0.1763,0.7191,-116.94,-516.11,485.72
10620,-3.8716,-0.1080,0.7394,1445.56,62.13,142.03
10630,-3.8715,-0.0336,0.7726,-1820.07,-1343.99,610.78
10640,-3.8713,0.0276,0.7972,-288.82,-1093.87,1454.59
10650,-3.8712,0.0472,0.7959,-460.69,-1953.12,1064.03
10660,-3.8712,0.0135,0.7822,-1945.07,1875.06,1798.40
10670,-3.8713,-0.0504,0.7732,1742.43,125.00,-482.85
10680,-3.8715,-0.0892,0.7618,1554.93,-1015.75,-498.54
10690,-3.8715,-0.0563,0.7534,586.18,1531.07,329.59
10700,-3.8715,0.0396,0.7631,804.93,453.00,470.21
10710,-3.8713,0.1534,0.7832,1070.56,1671.94,329.59
10720,-3.8712,0.2533,0.7897,-351.32,250.24,1157.78
10730,-3.8712,0.3403,0.7766,429.93,1078.61,-139.10
10740,-3.8712,0.4181,0.7587,-429.44,-593.14,-154.79
10750,-3.8712,0.4813,0.7357,1523.68,1110.17,-1186.04
10760,-3.8712,0.5356,0.7039,1617.43,-1827.21,1751.40
10770,-3.8713,0.5886,0.6699,570.56,-1905.21,-201.78
10780,-3.8713,0.6329,0.6285,-648.19,1751.10,548.16
10790,-3.8715,0.6600,0.5728,1023.68,454.35,298.10
10800,-3.8717,0.6729,0.5098,492.43,1313.78,-514.53
10810,-3.8718,0.7223,0.4545,-1866.94,1251.28,-217.77
10820,-3.8718,0.8158,0.4215,461.18,-1826.72,-514.77
10830,-3.8717,0.8925,0.4128,429.93,1954.71,-686.71
10840,-3.8715,0.9279,0.4142,-1757.57,845.46,1797.67
10850,-3.8712,0.9497,0.4076,-1226.32,1017.40,328.92
10860,-3.8711,0.9781,0.3848,1570.56,173.71,485.17
10870,-3.8711,0.9929,0.3501,1211.18,1251.89,-1843.02
10880,-3.8711,0.9928,0.3169,-898.19,814.39,-1202.45
10890,-3.8711,1.0066,0.2916,-913.82,564.39,-46.26
10900,-3.8710,1.0251,0.2706,851.81,1330.08,-1499.45
10910,-3.8708,1.0167,0.2542,-773.19,-1357.42,1516.11
10920,-3.8708,0.9989,0.2466,-1851.32,533.20,-343.26
10930,-3.8707,0.9623,0.2444,-132.57,-435.61,687.93
10940,-3.8707,0.9025,0.2462,-820.07,-716.92,844.18
10950,-3.8707,0.8705,0.2601,-476.32,-482.67,641.05
10960,-3.8707,0.8690,0.2919,-570.07,1298.52,656.74
10970,-3.8707,0.8776,0.3413,-757.57,1361.02,1938.05
10980,-3.8706,0.8827,0.3929,336.18,-310.79,922.49
10990,-3.8706,0.8455,0.4198,992.43,-1701.42,-389.89
11000,-3.8706,0.7750,0.4240,226.81,1736.02,-608.58
11010,-3.8706,0.6930,0.4243,-788.82,-1732.91,188.29
11020,-3.8707,0.6156,0.4272,711.18,-1686.16,110.17
11030,-3.8708,0.5635,0.4384,-1195.07,-1311.34,891.42
11040,-3.8710,0.5272,0.4650,133.06,110.47,-1124.15
11050,-3.8710,0.5059,0.5116,-507.57,-483.40,-1467.90
11060,-3.8708,0.4785,0.5649,758.06,1485.35,360.35
11070,-3.8708,0.4248,0.6010,1258.06,313.42,-358.28
11080,-3.8707,0.3542,0.6155,-1616.94,922.67,-1451.97
11090,-3.8707,0.2860,0.6143,1351.81,-1218.08,-61.34
11100,-3.8706,0.2407,0.6125,617.43,-1374.45,376.16
11110,-3.8707,0.2078,0.6039,-1179.44,-1593.32,-608.22
11120,-3.8707,0.1700,0.5786,-1398.19,1297.24,407.41
11130,-3.8708,0.1328,0.5466,1773.68,-1937.19,297.97
11140,-3.8711,0.1033,0.5093,1008.06,1968.99,-108.34
11150,-3.8712,0.0769,0.4805,1226.81,1187.68,-420.90
11160,-3.8713,0.0375,0.4825,1851.81,1500.12,-30.33
11170,-3.8713,-0.0123,0.5033,804.93,1765.69,-1280.33
11180,-3.8713,-0.0464,0.5015,-1570.07,437.44,-139.65
11190,-3.8712,-0.0552,0.4709,-1929.44,203.00,1047.85
11200,-3.8712,-0.0509,0.4415,945.56,296.75,860.29
11210,-3.8712,-0.0557,0.4276,1492.43,531.13,32.10
11220,-3.8713,-0.0874,0.4248,883.06,-1250.12,-624.21
11230,-3.8713,-0.1440,0.4221,820.56,-1609.56,-1796.08
11240,-3.8715,-0.2084,0.4178,1570.56,-1953.43,-733.58
11250,-3.8716,-0.2758,0.4220,1336.18,1499.57,-780.46
11260,-3.8716,-0.3204,0.4318,711.18,-1969.30,235.17
11270,-3.8717,-0.3040,0.4497,-1007.57,-719.42,-311.71
11280,-3.8716,-0.2483,0.4806,1101.81,1577.51,1907.10
11290,-3.8715,-0.1730,0.5121,226.81,1530.76,-1327.21
11300,-3.8712,-0.0778,0.5461,1867.43,1562.13,1360.35
11310,-3.8710,-0.0082,0.5879,-1945.07,1921.69,579.16
11320,-3.8708,-0.0167,0.6266,-1038.82,-734.44,-1295.78
11330,-3.8707,-0.1266,0.6600,1867.43,218.69,-1358.15
11340,-3.8706,-0.3118,0.6814,-195.07,499.69,829.41
11350,-3.8706,-0.4891,0.6680,101.81,-766.24,1907.53
11360,-3.8706,-0.6100,0.6237,1398.68,1514.65,1407.53
11370,-3.8707,-0.6888,0.5713,1929.93,-157.47,-1061.34
11380,-3.8708,-0.7341,0.5194,-163.82,1139.22,-436.40
11390,-3.8708,-0.7343,0.4690,-1960.69,-1501.46,579.10
11400,-3.8710,-0.7030,0.4175,-1976.32,45.41,1532.17
11410,-3.8711,-0.6777,0.3678,-1976.32,1451.72,1453.92
11420,-3.8712,-0.6664,0.3242,1258.06,-907.59,1469.42
11430,-3.8713,-0.6708,0.2878,-1288.82,1514.28,-1186.89
11440,-3.8713,-0.6949,0.2576,-1851.32,858.03,984.92
11450,-3.8715,-0.7288,0.2328,-945.07,982.97,-796.39
11460,-3.8715,-0.7668,0.2091,-1273.19,1811.04,1078.55
11470,-3.8716,-0.8097,0.1785,1851.81,-1220.28,-1093.38
11480,-3.8716,-0.8480,0.1479,367.43,-1142.21,1203.43
11490,-3.8716,-0.8657,0.1321,-538.82,-1048.58,312.74
11500,-3.8716,-0.8491,0.1313,1195.56,920.17,203.37
11510,-3.8716,-0.8013,0.1423,-679.44,826.42,312.74
11520,-3.8716,-0.7433,0.1536,1445.56,-1767.21,1093.99
11530,-3.8716,-0.6720,0.1547,867.43,-329.59,-702.88
11540,-3.8715,-0.5812,0.1506,1992.43,-188.84,-1812.26
11550,-3.8713,-0.4988,0.1510,1617.43,-704.28,797.12
11560,-3.8713,-0.4590,0.1638,164.31,-657.23,-562.26
11570,-3.8712,-0.4723,0.1915,1258.06,983.46,-1265.32
11580,-3.8711,-0.5284,0.2308,-445.07,530.27,-1234.01
11590,-3.8710,-0.5941,0.2689,367.43,1561.46,-905.82
11600,-3.8708,-0.6302,0.2872,-38.82,-1563.72,-1437.01
11610,-3.8707,-0.6259,0.2916,-663.82,779.97,109.92
11620,-3.8708,-0.5941,0.3101,-101.32,1342.47,-77.58
11630,-3.8708,-0.5563,0.3462,-38.82,-298.10,-1265.08
11640,-3.8708,-0.5258,0.3773,804.93,327.03,1235.05
11650,-3.8710,-0.5081,0.3976,711.18,311.46,-499.27
11660,-3.8710,-0.5073,0.4149,-1023.19,-1094.79,1078.86
11670,-3.8711,-0.5044,0.4250,-929.44,1123.96,-1827.33
11680,-3.8712,-0.4619,0.4205,-554.44,-1579.16,-1077.33
11690,-3.8713,-0.3774,0.4026,883.06,1842.83,-983.58
11700,-3.8715,-0.2877,0.3799,-304.44,-453.92,-1718.02
11710,-3.8716,-0.2307,0.3635,-820.07,640.01,1328.86
11720,-3.8717,-0.2202,0.3608,-1523.19,-1453.61,1250.67
11730,-3.8718,-0.2424,0.3739,-179.44,-1797.36,-1311.83
11740,-3.8718,-0.2594,0.4014,976.81,-125.49,-1921.20
11750,-3.8718,-0.2441,0.4299,-1195.07,-609.92,-889.89
11760,-3.8717,-0.2162,0.4523,758.06,-953.61,672.67
11770,-3.8717,-0.2006,0.4740,336.18,1905.82,-1561.65
11780,-3.8716,-0.1815,0.4963,-1663.82,687.07,766.54
11790,-3.8716,-0.1329,0.5118,773.68,-453.49,-811.58
11800,-3.8715,-0.0548,0.5266,-1007.57,1530.94,1797.85
11810,-3.8713,0.0179,0.5477,992.43,-578.25,1875.98
11820,-3.8712,0.0486,0.5536,-1695.07,-1890.62,-1155.21
11830,-3.8711,0.0374,0.5400,-1773.19,-1140.56,-608.34
11840,-3.8710,-0.0056,0.5345,789.31,1125.06,-1577.09
11850,-3.8710,-0.0599,0.5430,-710.69,437.44,-577.09
11860,-3.8710,-0.0834,0.5457,336.18,1515.50,-1452.09
11870,-3.8710,-0.0380,0.5425,1336.18,1859.19,751.04
11880,-3.8711,0.0795,0.5453,-851.32,1453.00,-14.59
11890,-3.8710,0.2283,0.5583,-1820.07,1797.00,1063.54
11900,-3.8710,0.3688,0.5786,1226.81,-530.82,-748.96
11910,-3.8708,0.4932,0.5867,-788.82,-1936.83,1891.72
11920,-3.8707,0.5884,0.5718,-866.94,-905.33,141.72
11930,-3.8707,0.6204,0.5385,-679.44,1188.60,329.22
11940,-3.8708,0.5811,0.4998,-585.69,923.03,-1139.59
11950,-3.8708,0.5104,0.4661,-1616.94,-30.15,188.42
11960,-3.8711,0.4469,0.4303,1336.18,-342.77,-452.27
11970,-3.8712,0.4141,0.3922,1211.18,-921.02,1672.67
11980,-3.8713,0.4336,0.3627,1008.06,-1796.08,31.98
11990,-3.8716,0.5021,0.3369,-491.94,-1577.33,-468.08
12000,-3.8716,0.6072,0.3090,273.68,-874.02,1375.61
12010,-3.8716,0.7205,0.2953,1726.81,-451.97,-1077.58
12020,-3.8715,0.7914,0.3004,226.81,1798.28,-233.83
12030,-3.8712,0.8439,0.3116,1304.93,-1545.35,-1733.83
12040,-3.8710,0.9226,0.3246,23.68,-107.73,500.55
12050,-3.8708,0.9948,0.3318,-1898.19,1548.65,1484.99
12060,-3.8707,1.0096,0.3296,-663.82,-1529.36,1125.61
12070,-3.8707,0.9767,0.3225,1242.43,-1810.55,-780.64
12080,-3.8706,0.9180,0.3109,1023.68,1283.14,109.99
12090,-3.8706,0.8472,0.2975,1508.06,-201.35,406.80
12100,-3.8707,0.7950,0.2847,445.56,-1920.23,-515.08
12110,-3.8707,0.7804,0.2712,1773.68,439.03,453.67
12120,-3.8710,0.7892,0.2588,-101.32,-1279.79,-312.01
12130,-3.8711,0.7856,0.2546,1023.68,1126.53,-1843.26
12140,-3.8712,0.7715,0.2660,570.56,595.28,1062.99
12150,-3.8713,0.7601,0.2932,-1241.94,-1951.66,-1702.64
12160,-3.8713,0.7407,0.3323,1304.93,1532.71,-1249.45
12170,-3.8712,0.7135,0.3743,-1179.44,-1467.35,1297.49
12180,-3.8711,0.6740,0.4088,-663.82,-92.41,110.05
12190,-3.8711,0.6047,0.4233,-1726.32,329.41,1438.29
12200,-3.8711,0.5243,0.4114,1414.31,-1811.34,844.54
12210,-3.8712,0.4515,0.3865,-882.57,657.23,-733.58
12220,-3.8712,0.3914,0.3722,1804.93,1469.60,-1499.27
12230,-3.8711,0.3573,0.3790,-1898.19,-358.64,47.55
12240,-3.8711,0.3442,0.3920,1742.43,516.30,-733.64
12250,-3.8710,0.3218,0.3904,70.56,-1827.45,-1921.14
12260,-3.8710,0.2826,0.3761,1195.56,1969.36,-1280.52
12270,-3.8710,0.2427,0.3676,179.93,141.17,1360.11
12280,-3.8711,0.2107,0.3771,-929.44,-952.70,-93.08
12290,-3.8710,0.2024,0.3993,-1023.19,265.99,63.23
12300,-3.8710,0.2267,0.4211,1914.31,-890.26,-1530.52
12310,-3.8708,0.2494,0.4247,1023.68,1906.68,1360.17
12320,-3.8708,0.2443,0.4075,-70.07,-1640.20,-1702.33
12330,-3.8708,0.2083,0.3887,-726.32,156.68,1219.54
12340,-3.8710,0.1311,0.3806,-1335.69,1750.37,-436.77
12350,-3.8710,0.0151,0.3832,789.31,718.99,-1389.89
12360,-3.8710,-0.1139,0.3983,1945.56,1046.88,-1311.77
12370,-3.8710,-0.2216,0.4180,1429.93,-1000.24,-530.52
12380,-3.8710,-0.2913,0.4213,-351.32,1515.14,-61.71
12390,-3.8710,-0.3184,0.3953,-1273.19,1936.89,-1108.58
12400,-3.8711,-0.2891,0.3387,-741.94,-1391.30,-1014.89
12410,-3.8712,-0.2205,0.2764,-991.94,-625.61,109.99
12420,-3.8716,-0.1200,0.2250,-210.69,-609.86,-312.01
12430,-3.8718,0.0127,0.1915,648.68,812.26,-46.45
12440,-3.8719,0.1160,0.2047,1633.06,515.62,-249.63
12450,-3.8718,0.1307,0.2761,-1148.19,-1796.69,1828.49
12460,-3.8716,0.0471,0.3724,742.43,-656.01,-780.76
12470,-3.8711,-0.0906,0.4470,-1960.69,-328.06,485.05
12480,-3.8707,-0.2126,0.4896,414.31,1234.19,703.98
12490,-3.8705,-0.2849,0.5155,789.31,-1312.93,1985.29
12500,-3.8702,-0.3459,0.5308,-460.69,1999.39,688.48
12510,-3.8701,-0.4047,0.5226,-273.19,-47.61,1704.10
12520,-3.8700,-0.4113,0.4883,211.18,-1094.54,547.85
12530,-3.8701,-0.3826,0.4436,-632.57,-1485.23,-577.21
12540,-3.8702,-0.3788,0.3928,-960.69,796.08,1938.35
12550,-3.8705,-0.4366,0.3422,-476.32,-1703.92,1797.61
12560,-3.8707,-0.5875,0.3154,117.43,-188.35,1406.86
12570,-3.8710,-0.8199,0.3142,804.93,389.47,-311.89
12580,-3.8710,-1.0529,0.3108,-945.07,232.73,-1905.64
12590,-3.8710,-1.2096,0.2898,1242.43,-205.20,-499.45
12600,-3.8708,-1.2334,0.2437,1179.93,1106.99,-1811.95
12610,-3.8708,-1.1339,0.1714,-1866.94,-799.32,-421.45
12620,-3.8708,-0.9647,0.0876,-1132.57,1950.87,922.18
12630,-3.8711,-0.8063,0.0092,523.68,-767.52,-1906.13
12640,-3.8713,-0.7126,-0.0511,804.93,1185.91,1390.62
12650,-3.8716,-0.6622,-0.0900,789.31,1467.35,1484.25
12660,-3.8718,-0.6250,-0.1044,-757.57,498.66,-62.68
12670,-3.8718,-0.5874,-0.0924,8.06,-1344.97,1437.26
12680,-3.8718,-0.5635,-0.0674,820.56,186.34,1593.57
12690,-3.8718,-0.5632,-0.0427,-116.94,-610.53,-297.06
12700,-3.8717,-0.5754,-0.0198,-85.69,-1454.28,-515.75
12710,-3.8715,-0.5778,0.0027,-1648.19,1483.22,296.81
12720,-3.8713,-0.5565,0.0167,-1945.07,358.22,703.12
12730,-3.8713,-0.5149,0.0167,773.68,-1844.85,-281.25
12740,-3.8712,-0.4698,0.0177,-1898.19,-1844.79,1265.62
12750,-3.8712,-0.4456,0.0365,-132.57,-1719.73,1546.88
12760,-3.8712,-0.4490,0.0681,-1023.19,686.58,890.69
12770,-3.8713,-0.4589,0.0981,-1460.69,733.46,-671.75
12780,-3.8713,-0.4803,0.1295,1273.68,577.21,547.06
12790,-3.8715,-0.5344,0.1727,-1476.32,592.77,1953.37
12800,-3.8715,-0.5948,0.2241,-398.19,-1876.10,1969.06
12810,-3.8713,-0.6160,0.2654,-132.57,701.90,375.43
12820,-3.8713,-0.5822,0.2837,1164.31,1983.15,-1624.51
12830,-3.8713,-0.5125,0.2880,1492.43,326.97,1641.17
12840,-3.8715,-0.4447,0.2941,-1585.69,873.96,-1530.70
12850,-3.8716,-0.4036,0.3055,-913.82,1655.33,-311.95
12860,-3.8716,-0.3896,0.3107,351.81,-875.79,-1358.83
12870,-3.8716,-0.4022,0.3077,-1866.94,-219.54,1469.30
12880,-3.8717,-0.4364,0.3042,523.68,-594.54,-686.95
12890,-3.8717,-0.4618,0.3051,148.68,-1047.73,1781.80
12900,-3.8717,-0.4591,0.3198,898.68,-938.42,-1999.45
12910,-3.8717,-0.4521,0.3473,1242.43,952.21,-405.64
12920,-3.8716,-0.4524,0.3757,-1866.94,467.83,-1499.33
12930,-3.8715,-0.4377,0.3962,-1898.19,108.46,-1811.77
12940,-3.8713,-0.3989,0.4089,-23.19,-1266.54,1985.11
12950,-3.8712,-0.3428,0.4219,945.56,358.58,-1827.33
12960,-3.8711,-0.2751,0.4396,133.06,-1985.05,-1702.33
12970,-3.8710,-0.1962,0.4601,789.31,280.70,1313.35
12980,-3.8708,-0.1005,0.4813,-1101.32,-1094.18,985.23
12990,-3.8707,-0.0077,0.4869,-851.32,1624.76,1954.04
13000,-3.8706,0.0537,0.4668,-976.32,-1656.31,-1655.33
13010,-3.8705,0.0919,0.4330,-1116.94,-249.94,516.48
13020,-3.8705,0.1416,0.4003,-226.32,-578.00,266.42
13030,-3.8706,0.2090,0.3872,-1866.94,-765.38,-905.52
13040,-3.8706,0.2645,0.3988,-1241.94,1562.87,1563.23
13050,-3.8706,0.2925,0.4232,1867.43,-952.64,31.98
13060,-3.8707,0.2992,0.4509,1445.56,-1827.58,-655.46
13070,-3.8706,0.2776,0.4830,-1695.07,1719.30,641.48
13080,-3.8706,0.2178,0.5135,-460.69,1828.61,-702.21
13090,-3.8705,0.1523,0.5265,-116.94,1734.74,1016.60
13100,-3.8705,0.1345,0.5109,-491.94,-609.13,407.23
13110,-3.8706,0.1929,0.4854,1226.81,1390.87,-1374.02
13120,-3.8706,0.3102,0.4788,695.56,-1874.63,1297.79
13130,-3.8706,0.4362,0.4969,-288.82,1281.80,719.67
13140,-3.8706,0.5170,0.5227,-163.82,-389.83,860.29
13150,-3.8706,0.5286,0.5226,-1820.07,-1092.77,625.98
13160,-3.8707,0.5084,0.4918,-335.69,-1108.40,-1030.27
13170,-3.8707,0.5112,0.4507,1086.18,-1045.90,16.54
13180,-3.8710,0.5431,0.4094,1445.56,1688.48,-202.27
13190,-3.8711,0.5876,0.3718,1523.68,407.29,-717.96
13200,-3.8711,0.6324,0.3376,-773.19,-405.15,250.67
13210,-3.8712,0.6942,0.3093,961.18,-780.03,-108.76
13220,-3.8711,0.7721,0.2877,867.43,-404.91,1984.92
13230,-3.8710,0.8289,0.2678,-1163.82,829.59,1406.80
13240,-3.8708,0.8369,0.2480,-1898.19,-1717.16,828.61
13250,-3.8708,0.8138,0.2321,-866.94,-248.41,-1062.07
13260,-3.8708,0.7817,0.2244,179.93,1704.71,-312.07
13270,-3.8708,0.7286,0.2236,70.56,720.28,-108.95
13280,-3.8708,0.6516,0.2267,1273.68,626.40,-77.70
13290,-3.8708,0.5801,0.2297,-585.69,1016.85,-593.32
13300,-3.8708,0.5383,0.2322,-1741.94,1407.35,1984.80
13310,-3.8710,0.5188,0.2439,914.31,1719.79,-233.95
13320,-3.8710,0.5150,0.2727,-1585.69,-780.27,1078.55
13330,-3.8711,0.5145,0.3055,1929.93,-1092.77,-1687.01
13340,-3.8712,0.5159,0.3251,1867.43,-889.65,-327.58
13350,-3.8712,0.5090,0.3336,-1960.69,1610.35,1797.49
13360,-3.8712,0.4684,0.3409,1164.31,-1295.90,1109.99
13370,-3.8712,0.3943,0.3507,-38.82,-358.52,1078.74
13380,-3.8712,0.3098,0.3539,-1523.19,891.36,735.05
13390,-3.8713,0.2434,0.3463,-335.69,1297.42,-483.70
13400,-3.8713,0.2129,0.3439,-835.69,328.55,1360.05
13410,-3.8715,0.2094,0.3597,-741.94,15.99,-874.33
13420,-3.8715,0.2209,0.3884,-1195.07,-1952.76,-1577.45
13430,-3.8713,0.2396,0.4200,289.31,1719.18,281.98
13440,-3.8712,0.2457,0.4478,-1320.07,1766.05,297.67
13450,-3.8711,0.2197,0.4622,-538.82,1312.93,360.23
13460,-3.8711,0.1670,0.4567,133.06,-843.32,-1358.52
13470,-3.8711,0.1091,0.4342,1383.06,-1546.57,-405.40
13480,-3.8710,0.0691,0.4154,1976.81,-421.69,985.17
13490,-3.8710,0.0497,0.4175,851.81,1172.00,-483.58
13500,-3.8708,0.0256,0.4354,-1632.57,1437.56,-686.71
13510,-3.8706,-0.0204,0.4630,-710.69,-265.62,78.92
13520,-3.8705,-0.0901,0.4817,1398.68,-718.81,610.23
13530,-3.8705,-0.1775,0.4641,476.81,1671.69,-61.58
13540,-3.8704,-0.2448,0.4104,1289.31,-578.49,953.98
13550,-3.8705,-0.2410,0.3468,679.93,546.39,-92.96
13560,-3.8705,-0.1871,0.3021,1164.31,405.76,-1764.95
13570,-3.8706,-0.1445,0.2772,54.93,-1312.87,-405.70
13580,-3.8707,-0.1244,0.2545,1508.06,-500.31,-187.01
13590,-3.8708,-0.1173,0.2367,86.18,593.51,-483.89
13600,-3.8710,-0.1182,0.2306,992.43,-1687.74,-93.32
13610,-3.8710,-0.1147,0.2273,883.06,1531.01,1672.30
13620,-3.8711,-0.0929,0.2178,1320.56,1109.13,-827.70
13630,-3.8712,-0.0552,0.1998,117.43,-109.56,-1077.76
13640,-3.8713,-0.0157,0.1925,945.56,1593.63,-1859.01
13650,-3.8715,0.0146,0.2170,1992.43,656.19,-749.63
13660,-3.8715,0.0474,0.2577,1883.06,-218.75,-1468.38
13670,-3.8715,0.0934,0.2943,-1929.44,984.44,-1624.51
13680,-3.8715,0.1066,0.3417,-38.82,1672.00,-1702.58
13690,-3.8715,0.0343,0.4020,1648.68,-265.44,-405.64
13700,-3.8713,-0.1019,0.4485,398.68,-546.81,-1358.64
13710,-3.8712,-0.2377,0.4719,-1038.82,1421.63,-1999.15
13720,-3.8711,-0.3330,0.4757,1586.18,421.39,344.67
13730,-3.8711,-0.3779,0.4640,1383.06,905.58,1360.29
13740,-3.8711,-0.3873,0.4446,-366.94,-594.54,1094.60
13750,-3.8712,-0.3907,0.4218,-1570.07,921.08,-280.40
13760,-3.8712,-0.3921,0.3945,1992.43,1999.21,1907.04
13770,-3.8712,-0.4038,0.3667,1820.56,-1485.17,63.23
13780,-3.8713,-0.4506,0.3557,320.56,-1047.67,-1468.08
13790,-3.8713,-0.5261,0.3766,-1663.82,1545.96,-1218.08
13800,-3.8712,-0.6394,0.4150,664.31,217.71,-1749.27
13810,-3.8710,-0.7749,0.4342,-1835.69,1139.34,125.79
13820,-3.8708,-0.8860,0.4087,820.56,-407.78,1453.92
13830,-3.8708,-0.9595,0.3434,-1398.19,326.35,-577.33
13840,-3.8708,-0.9609,0.2682,1195.56,-33.14,1844.36
13850,-3.8710,-0.8998,0.2103,1008.06,-1658.14,-1812.01
13860,-3.8711,-0.8219,0.1711,836.18,-1064.27,1781.62
13870,-3.8712,-0.7528,0.1427,-1195.07,1920.23,-1952.82
13880,-3.8713,-0.7128,0.1188,-351.32,-1720.28,-765.38
13890,-3.8713,-0.6868,0.0951,773.68,-782.65,937.68
13900,-3.8715,-0.6707,0.0753,101.81,186.16,-796.69
13910,-3.8715,-0.6799,0.0720,-1835.69,1654.91,-1593.63
13920,-3.8715,-0.7203,0.0916,976.81,1233.03,-93.63
13930,-3.8713,-0.7762,0.1257,-195.07,-267.09,-93.63
13940,-3.8711,-0.8136,0.1638,648.68,107.85,797.12
13950,-3.8710,-0.8033,0.1881,-132.57,982.73,937.81
13960,-3.8710,-0.7418,0.1879,1179.93,92.16,-1062.13
13970,-3.8710,-0.6643,0.1797,1054.93,61.04,-1905.88
13980,-3.8711,-0.6073,0.1810,-1023.19,-985.72,-655.94
13990,-3.8711,-0.5746,0.1945,-1726.32,-813.72,562.81
14000,-3.8712,-0.5481,0.2207,-1538.82,905.09,-1249.63
14010,-3.8712,-0.5234,0.2604,1851.81,264.53,1766.05
14020,-3.8712,-0.5193,0.3126,1008.06,1342.71,812.99
14030,-3.8713,-0.5590,0.3861,1539.31,30.21,-30.64
14040,-3.8712,-0.6348,0.4803,461.18,1436.40,1563.23
14050,-3.8711,-0.6973,0.5624,-1241.94,1498.72,-983.46
14060,-3.8708,-0.7025,0.5945,-1241.94,-1.40,782.29
14070,-3.8708,-0.6506,0.5736,-1913.82,107.97,1141.78
14080,-3.8711,-0.5853,0.5261,726.81,1436.22,-1420.78
14090,-3.8713,-0.5370,0.4771,1086.18,-641.78,516.60
14100,-3.8717,-0.5034,0.4410,-726.32,1077.03,-1045.96
14110,-3.8719,-0.4717,0.4231,-429.44,467.71,-483.52
14120,-3.8721,-0.4362,0.4255,-366.94,-1829.10,-1358.58
14130,-3.8721,-0.3939,0.4492,179.93,-1516.48,985.17
14140,-3.8721,-0.3331,0.4949,1586.18,1514.83,-764.77
14150,-3.8718,-0.2511,0.5586,1367.43,-641.30,829.04
14160,-3.8717,-0.1781,0.6146,-132.57,-484.92,-186.46
14170,-3.8715,-0.1567,0.6345,1211.18,-1312.87,-1905.09
14180,-3.8713,-0.1855,0.6249,-54.44,1234.01,-1264.40
14190,-3.8712,-0.2295,0.6112,258.06,-0.37,1298.03
14200,-3.8712,-0.2600,0.6047,-1366.94,-1750.49,1313.66
14210,-3.8713,-0.2574,0.6038,-1273.19,1421.33,-467.59
14220,-3.8713,-0.2159,0.6040,-945.07,1296.33,1251.16
14230,-3.8715,-0.1428,0.5994,367.43,1327.70,-873.84
14240,-3.8715,-0.0511,0.5906,1726.81,734.07,1719.91
14250,-3.8715,0.0432,0.5894,1461.18,-390.75,1501.10
14260,-3.8715,0.1432,0.6132,1539.31,-562.44,-1233.28
14270,-3.8713,0.2538,0.6603,-1663.82,-1515.38,-1561.34
14280,-3.8711,0.3523,0.6910,492.43,516.11,563.78
14290,-3.8710,0.4165,0.6765,1101.81,453.80,-1061.16
14300,-3.8708,0.4476,0.6328,1320.56,-1405.46,-1764.34
14310,-3.8708,0.4542,0.5869,1304.93,1000.85,1079.35
14320,-3.8710,0.4412,0.5485,-1851.32,-874.15,719.85
14330,-3.8712,0.4136,0.5166,476.81,-1796.02,-1123.96
14340,-3.8713,0.3875,0.4958,945.56,-1874.21,-1764.65
14350,-3.8713,0.3871,0.4899,1601.81,-530.52,844.67
14360,-3.8713,0.4290,0.4889,1554.93,-1296.14,-1124.08
14370,-3.8712,0.5059,0.4904,-1085.69,-1421.08,-342.83
14380,-3.8710,0.5896,0.4977,758.06,-1233.40,1766.54
14390,-3.8708,0.6774,0.5063,-523.19,-295.78,-311.58
14400,-3.8706,0.7617,0.5062,-1288.82,813.78,1344.73
14410,-3.8705,0.8107,0.4883,1508.06,798.34,-874.02
14420,-3.8704,0.8330,0.4528,-226.32,-1498.47,-30.33
14430,-3.8702,0.8334,0.4048,-1366.94,1954.71,1985.23
14440,-3.8702,0.8188,0.3557,-1320.07,-185.91,922.61
14450,-3.8704,0.8175,0.3209,820.56,1532.84,-1280.58
14460,-3.8704,0.8202,0.3110,648.68,1079.71,1484.99
14470,-3.8704,0.8258,0.3254,992.43,-185.91,-1765.08
14480,-3.8702,0.8220,0.3549,1711.18,1657.84,1063.11
14490,-3.8701,0.7953,0.3898,1226.81,1423.46,1281.92
14500,-3.8700,0.7485,0.4207,1804.93,1892.15,1563.23
14510,-3.8699,0.6852,0.4425,-179.44,1845.15,63.29
14520,-3.8700,0.6152,0.4570,-288.82,641.91,-546.02
14530,-3.8701,0.5461,0.4657,-1241.94,-1498.84,-155.40
14540,-3.8702,0.4952,0.4706,1914.31,-389.59,-1139.77
14550,-3.8704,0.4684,0.4863,-601.32,235.29,-1420.96
14560,-3.8704,0.4591,0.5144,-38.82,-1749.15,32.17
14570,-3.8705,0.4506,0.5371,-1226.32,1844.60,-1311.52
14580,-3.8705,0.4319,0.5527,1679.93,750.85,1219.79
14590,-3.8706,0.3973,0.5685,-710.69,-1249.21,-1420.84
14600,-3.8707,0.3523,0.5863,-1132.57,766.36,-889.53
14610,-3.8708,0.3087,0.6018,1101.81,-952.45,-186.40
14620,-3.8708,0.2682,0.6124,-476.32,1031.80,782.41
14630,-3.8710,0.2250,0.6205,-1663.82,-1608.89,1438.66
14640,-3.8711,0.1691,0.6239,804.93,-577.70,-1576.97
14650,-3.8711,0.1041,0.6228,1648.68,-140.32,719.91
14660,-3.8711,0.0444,0.6208,1336.18,-281.07,141.78
14670,-3.8712,-0.0118,0.6166,1695.56,-531.19,-358.22
14680,-3.8712,-0.0802,0.6052,-1507.57,-1062.56,-1280.09
14690,-3.8712,-0.1523,0.5869,1742.43,1484.19,-1748.84
14700,-3.8712,-0.1913,0.5739,508.06,-859.68,-1202.03
14710,-3.8712,-0.1760,0.5602,-476.32,1468.32,-295.78
14720,-3.8712,-0.1361,0.5328,1476.81,-281.62,-77.09
14730,-3.8712,-0.0981,0.5090,-1413.82,218.44,-967.71
14740,-3.8712,-0.0826,0.4958,-554.44,1171.63,1329.10
14750,-3.8713,-0.0933,0.4792,1429.93,-515.81,-655.33
14760,-3.8713,-0.1095,0.4563,70.56,1359.19,797.79
14770,-3.8715,-0.1342,0.4336,1992.43,-1578.37,1438.35
14780,-3.8716,-0.1694,0.4147,-1163.82,-484.68,1860.17
14790,-3.8717,-0.2072,0.3944,-1679.44,1093.38,-1124.21
14800,-3.8717,-0.2279,0.3672,1492.43,-1500.43,594.48
14810,-3.8718,-0.2256,0.3387,-1163.82,-984.86,-1593.08
14820,-3.8719,-0.2126,0.3151,-866.94,-625.49,-140.01
14830,-3.8719,-0.1869,0.3030,789.31,343.32,922.49
14840,-3.8721,-0.1570,0.3103,86.18,-1203.49,1859.92
14850,-3.8722,-0.1447,0.3324,-85.69,-265.99,-546.33
14860,-3.8722,-0.1537,0.3562,1492.43,-1437.81,-1749.39
14870,-3.8722,-0.1708,0.3674,336.18,1609.07,1531.92
14880,-3.8722,-0.1923,0.3622,-1851.32,-953.49,406.92
14890,-3.8723,-0.2190,0.3533,-601.32,-1625.43,-1296.20
14900,-3.8723,-0.2395,0.3595,-23.19,1233.89,1656.92
14910,-3.8723,-0.2338,0.3875,1351.81,-1969.24,-1233.70
14920,-3.8722,-0.1962,0.4294,-1913.82,1608.89,1625.73
14930,-3.8721,-0.1539,0.4725,-1101.32,-1016.05,532.04
14940,-3.8721,-0.1361,0.5092,304.93,499.69,1922.79
14950,-3.8721,-0.1515,0.5406,-1413.82,1187.19,1797.85
14960,-3.8721,-0.2036,0.5691,617.43,1218.44,1266.66
14970,-3.8721,-0.2983,0.5898,1945.56,858.95,1110.47
14980,-3.8721,-0.4285,0.5994,1820.56,-484.99,1938.60
14990,-3.8719,-0.5721,0.6038,1164.31,733.52,423.03
15000,-3.8718,-0.7028,0.6091,-1226.32,1295.72,704.28
15010,-3.8717,-0.7944,0.6108,-1945.07,1982.97,-342.59
15020,-3.8713,-0.8386,0.6055,-1679.44,-1798.46,-1873.84
15030,-3.8710,-0.8475,0.5922,664.31,1513.98,-1233.22
15040,-3.8706,-0.8458,0.5616,-476.32,-189.21,-1264.53
15050,-3.8704,-0.8562,0.5140,-257.57,-95.46,-483.34
15060,-3.8701,-0.8712,0.4535,-1585.69,1810.79,313.48
15070,-3.8701,-0.8569,0.3864,492.43,-1939.21,1828.98
15080,-3.8701,-0.7961,0.3297,-1679.44,1467.04,1188.23
15090,-3.8702,-0.7074,0.2944,-1898.19,-1782.84,-515.01
15100,-3.8702,-0.6178,0.2751,1461.18,1701.72,1813.05
15110,-3.8702,-0.5549,0.2560,929.93,-766.85,391.11
15120,-3.8704,-0.5447,0.2272,976.81,780.15,-1671.39
15130,-3.8705,-0.5825,0.1976,-1710.69,1092.65,-1124.57
15140,-3.8706,-0.6354,0.1793,1445.56,1311.34,-1562.13
15150,-3.8707,-0.6772,0.1755,-1320.07,-1032.53,-1468.44
15160,-3.8707,-0.6998,0.1910,1320.56,-1516.97,344.06
15170,-3.8708,-0.7048,0.2283,-1570.07,467.35,-312.13
15180,-3.8708,-0.7015,0.2725,1789.31,1232.97,-452.70
15190,-3.8708,-0.7028,0.3032,-1788.82,-1110.78,-1124.51
15200,-3.8708,-0.7103,0.3215,-1945.07,-1173.28,1453.67
15210,-3.8710,-0.7153,0.3401,1086.18,1170.47,-311.89
15220,-3.8710,-0.7085,0.3625,445.56,-454.53,-1468.14
15230,-3.8710,-0.6897,0.3815,1320.56,-1579.53,-1655.58
15240,-3.8710,-0.6632,0.3866,-273.19,842.35,1641.36
15250,-3.8711,-0.6310,0.3821,-882.57,1498.66,-1139.89
15260,-3.8712,-0.5947,0.3849,-757.57,920.59,1969.48
15270,-3.8713,-0.5596,0.3922,-116.94,1280.03,78.86
15280,-3.8716,-0.5376,0.3905,383.06,-1782.35,-1639.89
15290,-3.8717,-0.5372,0.3872,-804.44,1998.90,1735.11
15300,-3.8718,-0.5461,0.3998,-757.57,1577.03,-1218.02
15310,-3.8718,-0.5444,0.4261,-1898.19,-813.60,1453.86
15320,-3.8718,-0.5305,0.4524,-1679.44,-1438.60,735.17
15330,-3.8719,-0.5173,0.4735,101.81,1920.84,-374.15
15340,-3.8719,-0.5137,0.4923,1789.31,623.96,-1483.46
15350,-3.8719,-0.5201,0.5070,-1741.94,-969.79,-1327.21
15360,-3.8718,-0.5367,0.5126,1429.93,905.21,110.35
15370,-3.8718,-0.5580,0.5225,-695.07,1623.90,1594.73
15380,-3.8718,-0.5664,0.5411,586.18,-1110.47,-1608.40
15390,-3.8718,-0.5454,0.5548,-491.94,1280.09,-1514.59
15400,-3.8718,-0.4971,0.5669,-1804.44,-969.85,-1952.09
15410,-3.8718,-0.4393,0.5786,383.06,577.15,1251.10
15420,-3.8718,-0.3875,0.5784,-226.32,-1922.79,376.10
15430,-3.8719,-0.3430,0.5703,-1585.69,-1953.92,-358.28
15440,-3.8719,-0.3024,0.5728,101.81,1014.95,-1139.53
15450,-3.8719,-0.2689,0.5883,1304.93,1327.51,-1842.65
15460,-3.8719,-0.2465,0.6078,1586.18,-688.05,1922.97
15470,-3.8719,-0.2275,0.6298,461.18,1812.01,-1701.97
15480,-3.8719,-0.2079,0.6490,-1116.94,624.51,-280.03
15490,-3.8718,-0.1929,0.6578,1398.68,-906.68,-1123.78
15500,-3.8717,-0.1880,0.6669,-679.44,218.32,-1076.84
15510,-3.8716,-0.1909,0.6863,-54.44,1374.57,-1701.84
15520,-3.8715,-0.1809,0.7039,-429.44,-141.05,220.03
15530,-3.8715,-0.1420,0.7007,851.81,-1890.99,704.47
15540,-3.8715,-0.0746,0.6848,1836.18,1702.82,298.22
15550,-3.8716,0.0164,0.6761,-1538.82,-328.31,-233.09
15560,-3.8715,0.1191,0.6805,-1898.19,-1453.12,235.66
15570,-3.8715,0.2119,0.6898,-741.94,-890.44,-1529.97
15580,-3.8713,0.2722,0.6830,-866.94,297.24,1673.22
15590,-3.8712,0.2977,0.6490,-1148.19,-577.64,79.41
15600,-3.8712,0.3032,0.6040,-1882.57,-921.33,344.97
15610,-3.8713,0.2992,0.5701,-1179.44,1313.05,-1139.47
15620,-3.8713,0.2876,0.5493,-1695.07,969.30,282.35
15630,-3.8715,0.2695,0.5337,820.56,-1686.95,1126.04
15640,-3.8716,0.2614,0.5266,-1491.94,312.99,-623.96
15650,-3.8715,0.2778,0.5378,1461.18,-593.26,454.10
15660,-3.8713,0.3048,0.5557,-429.44,844.24,157.29
15670,-3.8712,0.3433,0.5625,-976.32,-874.45,1985.41
15680,-3.8710,0.4102,0.5560,-54.44,0.61,751.10
15690,-3.8708,0.4852,0.5360,508.06,-827.33,-1358.34
15700,-3.8707,0.5260,0.5033,-1882.57,610.29,-780.21
15710,-3.8706,0.5088,0.4563,-663.82,422.85,-1936.52
15720,-3.8706,0.4496,0.3956,1133.06,-1592.77,-1983.52
15730,-3.8707,0.3843,0.3361,1554.93,-1358.52,-358.64
15740,-3.8707,0.3368,0.2944,1195.56,-983.64,1281.86
15750,-3.8707,0.3105,0.2723,-882.57,1688.11,1125.55
15760,-3.8707,0.3053,0.2626,-241.94,-1140.08,-812.01
15770,-3.8706,0.3318,0.2579,-913.82,1609.92,-1249.51
15780,-3.8705,0.3898,0.2502,-1523.19,1016.24,-687.01
15790,-3.8704,0.4614,0.2318,1898.68,31.98,-93.26
15800,-3.8702,0.5365,0.2009,-929.44,1672.73,-593.32
15810,-3.8701,0.5996,0.1755,679.93,1719.79,1765.99
15820,-3.8700,0.6361,0.1750,758.06,-1530.09,609.68
15830,-3.8699,0.6448,0.1927,1429.93,-1592.53,469.06
15840,-3.8699,0.6189,0.2064,-1460.69,673.10,-93.38
15850,-3.8698,0.5759,0.2107,-773.19,-1576.97,484.74
15860,-3.8699,0.5459,0.2119,1726.81,-1030.15,1609.74
15870,-3.8700,0.5325,0.2164,1883.06,-873.96,1500.37
15880,-3.8701,0.5404,0.2393,164.31,-295.84,-1327.76
15890,-3.8701,0.5607,0.2863,1179.93,-1373.96,-1421.45
15900,-3.8700,0.5687,0.3441,-226.32,641.66,844.30
15910,-3.8700,0.5396,0.3910,804.93,47.97,-374.33
15920,-3.8699,0.4724,0.4142,1070.56,-1952.09,766.36
15930,-3.8700,0.4004,0.4197,476.81,1016.54,-1233.58
15940,-3.8701,0.3433,0.4154,-741.94,1719.48,1907.04
15950,-3.8704,0.3088,0.4091,-54.44,1172.49,-405.46
15960,-3.8705,0.2925,0.4075,-460.69,359.92,1000.79
15970,-3.8707,0.2847,0.4091,1445.56,156.80,-1467.96
15980,-3.8708,0.2876,0.4141,445.56,359.92,469.54
15990,-3.8710,0.3007,0.4285,820.56,1000.55,0.79
16000,-3.8711,0.3112,0.4496,-1507.57,-1155.70,1938.29
16010,-3.8711,0.3044,0.4688,-163.82,1547.42,1641.48
16020,-3.8711,0.2799,0.4813,-1023.19,0.55,1594.67
16030,-3.8711,0.2496,0.4888,-163.82,1609.86,391.54
16040,-3.8712,0.2262,0.5066,-38.82,-1437.07,-1577.21
16050,-3.8712,0.1810,0.5232,961.18,844.18,188.48
16060,-3.8713,0.0889,0.5198,-820.07,-1030.94,1641.60
16070,-3.8715,-0.0101,0.4984,-616.94,-1468.63,-1655.27
16080,-3.8716,-0.0651,0.4598,-1288.82,-187.56,1625.92
16090,-3.8718,-0.0601,0.4229,-320.07,-1125.18,-296.02
16100,-3.8719,-0.0125,0.4150,320.56,-1859.50,1500.79
16110,-3.8721,0.0466,0.4514,-1585.69,1140.56,-1921.08
16120,-3.8719,0.0846,0.5110,1976.81,1781.31,78.98
16130,-3.8718,0.0829,0.5527,-1163.82,1406.37,1813.48
16140,-3.8717,0.0479,0.5608,-1382.57,-1249.88,-1420.84
16150,-3.8717,-0.0126,0.5529,-1866.94,-218.69,-389.59
16160,-3.8717,-0.1016,0.5542,-1601.32,-1218.81,-1842.71
16170,-3.8717,-0.2150,0.5636,-991.94,-1047.12,344.79
16180,-3.8718,-0.3262,0.5674,492.43,155.82,-1092.65
16190,-3.8718,-0.4042,0.5624,-1741.94,639.95,-1530.15
16200,-3.8718,-0.4158,0.5629,273.68,-0.79,-217.71
16210,-3.8716,-0.3461,0.5961,-1210.69,61.65,360.47
16220,-3.8713,-0.2263,0.6562,-288.82,311.77,985.53
16230,-3.8711,-0.1001,0.7094,-960.69,15.14,-1186.22
16240,-3.8708,-0.0066,0.7522,-804.44,-1187.74,-1170.53
16250,-3.8706,0.0018,0.7990,-835.69,296.81,438.96
16260,-3.8706,-0.1052,0.8387,242.43,-1734.38,-310.97
16270,-3.8705,-0.2910,0.8470,-1460.69,-625.24,439.09
16280,-3.8706,-0.4901,0.8193,-1241.94,436.89,-1295.23
16290,-3.8707,-0.6625,0.7780,1273.68,889.65,-967.16
16300,-3.8708,-0.8082,0.7367,-788.82,-407.59,-982.91
16310,-3.8708,-0.9467,0.6979,554.93,-1689.09,282.65
16320,-3.8710,-1.0829,0.6635,-1163.82,1341.86,-858.03
16330,-3.8710,-1.1925,0.6279,1398.68,935.36,-920.59
16340,-3.8710,-1.2433,0.5779,-632.57,388.24,-561.28
16350,-3.8710,-1.2251,0.5085,867.43,1981.93,-1045.78
16360,-3.8710,-1.1460,0.4301,-804.44,1106.93,391.60
16370,-3.8712,-1.0282,0.3549,1320.56,-939.76,-561.71
16380,-3.8713,-0.9028,0.2878,398.68,1435.49,453.80
16390,-3.8716,-0.7928,0.2314,445.56,857.60,703.67
16400,-3.8718,-0.7061,0.1862,-1476.32,1639.04,1812.93
16410,-3.8719,-0.6443,0.1522,1633.06,-157.65,844.06
16420,-3.8721,-0.6049,0.1364,1539.31,-501.28,-1812.26
16430,-3.8721,-0.5847,0.1488,-1413.82,1467.53,1781.49
16440,-3.8721,-0.5907,0.1879,1164.31,-938.66,-374.76
16450,-3.8719,-0.6273,0.2335,398.68,61.34,-234.01
16460,-3.8717,-0.6825,0.2694,-288.82,1904.97,984.80
16470,-3.8716,-0.7316,0.2972,648.68,-1501.34,1391.11
16480,-3.8716,-0.7559,0.3209,-1632.57,-1938.96,-61.95
16490,-3.8715,-0.7560,0.3400,-741.94,1092.22,656.86
16500,-3.8715,-0.7419,0.3589,-757.57,-470.28,625.61
16510,-3.8715,-0.7216,0.3774,1039.31,1951.66,375.67
16520,-3.8716,-0.6971,0.3915,-351.32,326.66,-374.27
16530,-3.8716,-0.6664,0.4042,-1226.32,-1876.40,-1702.39
16540,-3.8716,-0.6384,0.4211,-1288.82,-251.34,813.23
16550,-3.8717,-0.6260,0.4441,-1710.69,1920.59,-421.08
16560,-3.8717,-0.6298,0.4750,-116.94,858.09,-1249.15
16570,-3.8717,-0.6450,0.5175,-601.32,811.22,-1139.71
16580,-3.8716,-0.6644,0.5643,1445.56,-1751.28,250.98
16590,-3.8716,-0.6732,0.6021,-1038.82,248.66,-1342.65
16600,-3.8715,-0.6647,0.6301,1836.18,1076.78,1063.66
16610,-3.8715,-0.6448,0.6549,-1070.07,670.53,-1467.53
16620,-3.8715,-0.6117,0.6775,1476.81,-157.53,-358.15
16630,-3.8713,-0.5581,0.6947,1711.18,-1266.85,626.28
16640,-3.8713,-0.4895,0.7062,570.56,936.40,391.97
16650,-3.8715,-0.4221,0.7104,1351.81,-1594.73,-1498.66
16660,-3.8716,-0.3633,0.7024,1976.81,-1047.73,-311.16
16670,-3.8716,-0.3096,0.6847,1508.06,1921.14,923.22
16680,-3.8717,-0.2629,0.6685,383.06,-344.36,-1404.97
16690,-3.8717,-0.2240,0.6642,-1648.19,1577.58,1407.53
16700,-3.8717,-0.1790,0.6768,-663.82,1030.76,-1295.59
16710,-3.8716,-0.1216,0.7041,1101.81,-1359.74,-1233.09
16720,-3.8713,-0.0576,0.7371,445.56,-1859.62,220.09
16730,-3.8712,0.0103,0.7599,633.06,-1640.75,1188.90
16740,-3.8711,0.0732,0.7595,1320.56,1265.62,267.09
16750,-3.8711,0.1226,0.7362,1383.06,1218.87,704.59
16760,-3.8712,0.1580,0.7004,-304.44,-1765.44,-1420.47
16770,-3.8713,0.1761,0.6626,226.81,1656.56,-1358.03
16780,-3.8715,0.1787,0.6329,-1445.07,812.81,1860.66
16790,-3.8716,0.1761,0.6211,-1116.94,1015.93,1719.97
16800,-3.8717,0.1726,0.6251,-1445.07,-499.69,-545.72
16810,-3.8717,0.1669,0.6317,-1898.19,15.93,-826.90
16820,-3.8717,0.1583,0.6344,1367.43,859.68,-92.53
16830,-3.8716,0.1477,0.6378,273.68,1203.43,876.22
16840,-3.8716,0.1371,0.6442,-1085.69,1640.87,-1826.90
16850,-3.8716,0.1246,0.6549,1554.93,-1546.63,-217.53
16860,-3.8715,0.1122,0.6724,-38.82,-171.69,1735.60
16870,-3.8713,0.1057,0.6903,-1632.57,-1937.32,157.53
16880,-3.8713,0.0992,0.7079,1539.31,359.56,-389.28
16890,-3.8712,0.1062,0.7203,711.18,-1390.44,-170.53
16900,-3.8711,0.1465,0.7120,1601.81,203.31,-14.22
16910,-3.8708,0.2260,0.6895,-1241.94,-859.13,673.22
16920,-3.8707,0.3451,0.6646,929.93,250.43,-1436.16
16930,-3.8705,0.4880,0.6323,179.93,1063.17,1220.03
16940,-3.8704,0.6340,0.5913,-1523.19,938.42,-108.15
16950,-3.8701,0.7487,0.5438,1164.31,-311.28,-1467.65
16960,-3.8700,0.7926,0.4835,-163.82,1610.78,-748.96
16970,-3.8700,0.7582,0.4188,1461.18,1892.15,-311.58
16980,-3.8700,0.6967,0.3628,1054.93,1610.84,110.17
16990,-3.8702,0.6356,0.3114,1179.93,-1561.16,-1311.83
17000,-3.8704,0.5559,0.2646,1367.43,-139.40,1219.30
17010,-3.8705,0.4755,0.2303,-835.69,1876.04,641.11
17020,-3.8706,0.4116,0.2085,867.43,1485.29,1469.18
17030,-3.8707,0.3738,0.1932,695.56,-1311.71,-312.13
17040,-3.8707,0.3911,0.1875,-148.19,735.05,-968.38
17050,-3.8707,0.4624,0.1931,-1929.44,0.73,-859.01
17060,-3.8707,0.5437,0.2042,-804.44,719.60,-374.63
17070,-3.8706,0.6024,0.2223,1601.81,-1858.34,47.24
17080,-3.8706,0.6230,0.2499,1117.43,454.28,266.05
17090,-3.8707,0.6249,0.2772,-241.94,-14.47,-233.95
17100,-3.8707,0.6162,0.2965,-7.57,-514.47,-1937.01
17110,-3.8708,0.5828,0.3112,-1116.94,1954.28,-1030.70
17120,-3.8710,0.5363,0.3322,-1398.19,-170.78,-983.83
17130,-3.8711,0.4841,0.3635,648.68,-1483.34,-311.89
17140,-3.8711,0.4504,0.3972,1976.81,-1467.83,1860.05
17150,-3.8711,0.4493,0.4272,1664.31,-1155.40,1156.98
17160,-3.8711,0.4523,0.4525,1523.68,-1311.65,625.79
17170,-3.8712,0.4481,0.4733,1898.68,1922.73,-342.90
17180,-3.8712,0.4386,0.4878,1367.43,578.98,-1889.71
17190,-3.8713,0.4265,0.4980,148.68,-1561.65,-155.33
17200,-3.8713,0.4131,0.5085,-1398.19,-249.21,735.29
17210,-3.8715,0.3853,0.5267,883.06,1094.54,-1827.15
17220,-3.8715,0.3428,0.5580,1320.56,-577.39,-1920.90
17230,-3.8713,0.3019,0.5927,-116.94,-577.51,626.04
17240,-3.8713,0.2687,0.6219,-1351.32,-140.08,-186.40
17250,-3.8712,0.2318,0.6460,-1601.32,-390.14,1704.28
17260,-3.8712,0.1875,0.6758,1679.93,-1312.07,-1967.53
17270,-3.8712,0.1404,0.7032,8.06,-1499.63,1782.53
17280,-3.8712,0.0790,0.7024,1976.81,-1984.13,595.09
17290,-3.8713,0.0068,0.6819,-1882.57,1906.37,1501.34
17300,-3.8715,-0.0521,0.6667,883.06,-718.75,1595.03
17310,-3.8716,-0.0897,0.6626,1336.18,1359.25,-1326.84
17320,-3.8716,-0.1017,0.6681,523.68,827.94,1345.03
17330,-3.8716,-0.0978,0.6799,-1007.57,1531.01,1610.66
17340,-3.8716,-0.0994,0.6960,-507.57,-953.37,-483.09
17350,-3.8715,-0.1047,0.7135,-710.69,1109.13,-1608.03
17360,-3.8713,-0.0959,0.7227,-1398.19,-656.49,1376.34
17370,-3.8713,-0.0662,0.7195,-273.19,515.38,-311.10
17380,-3.8712,-0.0459,0.7101,-460.69,109.19,657.65
17390,-3.8713,-0.0503,0.6984,-1866.94,-1093.87,-201.78
17400,-3.8713,-0.0608,0.6829,1570.56,1406.13,845.09
17410,-3.8715,-0.0745,0.6617,226.81,-578.25,32.53
17420,-3.8717,-0.0942,0.6422,-1523.19,718.57,1907.53
17430,-3.8718,-0.1204,0.6396,-54.44,-1781.49,94.97
17440,-3.8719,-0.1598,0.6598,601.81,1890.38,329.35
17450,-3.8721,-0.2242,0.7052,-445.07,468.38,-233.09
17460,-3.8719,-0.3160,0.7683,-695.07,-1719.24,-983.03
17470,-3.8717,-0.4319,0.8184,-445.07,-1641.30,-1873.54
17480,-3.8715,-0.5502,0.8275,726.81,764.77,-1295.29
17490,-3.8712,-0.6389,0.7931,1586.18,1936.40,735.96
17500,-3.8712,-0.6744,0.7327,-1773.19,1529.97,-1389.10
17510,-3.8712,-0.6514,0.6652,1679.93,1795.53,1345.15
17520,-3.8713,-0.5927,0.6051,633.06,1154.97,-1358.09
17530,-3.8715,-0.5392,0.5623,148.68,1467.59,-358.22
17540,-3.8715,-0.5306,0.5388,-1007.57,-16.72,1438.54
17550,-3.8715,-0.5725,0.5236,86.18,983.34,954.16
17560,-3.8715,-0.6401,0.5013,-1273.19,-969.91,-1983.40
17570,-3.8713,-0.7106,0.4727,-1929.44,186.22,32.23
17580,-3.8713,-0.7551,0.4476,1054.93,514.22,-1030.33
17590,-3.8712,-0.7548,0.4314,-648.19,1310.97,-1061.65
17600,-3.8711,-0.7294,0.4264,-601.32,-767.15,-30.46
17610,-3.8708,-0.7159,0.4229,-1351.32,-1407.71,1235.17
17620,-3.8707,-0.7249,0.4059,367.43,-1860.78,672.67
17630,-3.8707,-0.7419,0.3770,-773.19,-32.71,453.86
17640,-3.8708,-0.7589,0.3440,1039.31,264.16,625.73
17650,-3.8711,-0.7808,0.3082,-1132.57,45.35,-889.95
17660,-3.8712,-0.8088,0.2693,70.56,-532.78,1797.42
17670,-3.8713,-0.8341,0.2340,476.81,-1517.21,1250.49
17680,-3.8715,-0.8450,0.2100,1242.43,1967.10,1469.18
17690,-3.8716,-0.8279,0.2032,-148.19,-1111.08,-671.51
17700,-3.8716,-0.7847,0.2157,-1960.69,-1970.40,-812.13
17710,-3.8715,-0.7406,0.2434,-429.44,-376.59,359.74
17720,-3.8715,-0.7202,0.2771,1211.18,-829.59,-1765.20
17730,-3.8713,-0.7228,0.3055,-179.44,-517.09,406.74
17740,-3.8713,-0.7378,0.3240,-507.57,-876.46,-1796.33
17750,-3.8713,-0.7681,0.3369,1570.56,1482.91,-1140.01
17760,-3.8713,-0.8146,0.3478,1695.56,-860.90,-1343.14
17770,-3.8713,-0.8589,0.3594,-257.57,529.60,-1889.95
17780,-3.8713,-0.8767,0.3777,-1929.44,-1986.08,1125.67
17790,-3.8715,-0.8591,0.4039,-210.69,357.60,-171.14
17800,-3.8715,-0.8127,0.4271,-1960.69,-282.96,-1405.52
17810,-3.8715,-0.7562,0.4376,-23.19,-1314.15,1469.54
17820,-3.8715,-0.7164,0.4404,-788.82,29.72,235.23
17830,-3.8716,-0.7026,0.4476,304.93,389.22,-1264.77
17840,-3.8716,-0.6937,0.4622,-1929.44,1311.10,1516.48
17850,-3.8716,-0.6637,0.4778,-788.82,-829.53,1438.35
17860,-3.8716,-0.6112,0.4927,-945.07,1170.53,1766.54
17870,-3.8716,-0.5571,0.5131,1773.68,-923.10,1704.04
17880,-3.8716,-0.5176,0.5450,695.56,1686.40,-1920.90
17890,-3.8716,-0.4884,0.5774,1758.06,1780.21,-202.09
17900,-3.8715,-0.4622,0.5959,1492.43,1920.90,-1514.53
17910,-3.8713,-0.4395,0.6053,851.81,295.96,282.41
17920,-3.8715,-0.4226,0.6145,-241.94,1499.08,-108.22
17930,-3.8715,-0.4053,0.6205,1914.31,-1328.98,-1733.22
17940,-3.8715,-0.3811,0.6205,133.06,-563.29,969.91
17950,-3.8715,-0.3505,0.6147,-773.19,-563.29,313.66
17960,-3.8716,-0.3097,0.6053,-851.32,-1297.61,-373.84
17970,-3.8716,-0.2557,0.5956,367.43,1499.39,-1623.84
17980,-3.8716,-0.1884,0.5872,-726.32,249.45,469.91
17990,-3.8717,-0.1097,0.5854,-101.32,-828.55,-1842.65
18000,-3.8717,-0.0310,0.5953,1961.18,-1047.12,188.60
18010,-3.8718,0.0308,0.6149,39.31,218.69,-717.59
18020,-3.8718,0.0612,0.6322,-54.44,-1296.88,-280.09
18030,-3.8717,0.0571,0.6345,-163.82,921.94,1048.10
18040,-3.8717,0.0270,0.6227,-679.44,1218.81,1626.22
18050,-3.8717,-0.0139,0.6090,-538.82,-296.88,313.66
18060,-3.8718,-0.0433,0.6038,-1773.19,1968.69,1860.53
18070,-3.8719,-0.0496,0.6082,-1538.82,1296.75,-248.84
18080,-3.8719,-0.0416,0.6188,1664.31,1859.25,-795.72
18090,-3.8718,-0.0211,0.6283,-1320.07,-781.37,563.66
18100,-3.8718,0.0131,0.6346,1304.93,437.44,-1389.40
18110,-3.8717,0.0449,0.6416,1679.93,1234.38,79.35
18120,-3.8717,0.0698,0.6500,1758.06,-1874.94,1126.22
18130,-3.8717,0.0986,0.6533,945.56,-796.75,-1670.65
18140,-3.8717,0.1313,0.6412,633.06,-374.82,-108.15
18150,-3.8716,0.1663,0.6161,820.56,-1921.63,1376.22
18160,-3.8716,0.2076,0.5895,1289.31,-1140.32,-1686.34
18170,-3.8716,0.2512,0.5735,-1413.82,-546.51,-561.40
18180,-3.8715,0.2915,0.5735,164.31,1406.74,-1842.65
18190,-3.8713,0.3263,0.5782,1320.56,1406.80,-1045.78
18200,-3.8711,0.3623,0.5820,1773.68,-1983.76,-1670.78
18210,-3.8708,0.4193,0.5790,-1616.94,-1499.33,-217.65
18220,-3.8705,0.5085,0.5616,1679.93,-1889.83,1016.72
18230,-3.8702,0.6101,0.5358,1101.81,-108.40,422.91
18240,-3.8701,0.6896,0.5029,-1898.19,579.28,1422.91
18250,-3.8701,0.7367,0.4622,273.68,376.34,-327.15
18260,-3.8701,0.7452,0.4204,-1695.07,-842.35,-624.15
18270,-3.8701,0.7432,0.3818,-601.32,1813.90,1875.79
18280,-3.8701,0.7438,0.3438,-866.94,876.40,672.61
18290,-3.8702,0.7234,0.3076,-788.82,1.40,-280.58
18300,-3.8702,0.7031,0.2816,601.81,-623.60,-999.45
18310,-3.8702,0.7003,0.2688,-1991.94,48.22,-1593.20
18320,-3.8702,0.7026,0.2649,1648.68,-1592.41,1141.11
18330,-3.8704,0.7140,0.2664,1945.56,1907.59,-1077.64
18340,-3.8705,0.7222,0.2719,-601.32,-1904.91,-155.76
18350,-3.8705,0.6984,0.2787,445.56,-1201.72,266.11
18360,-3.8706,0.6700,0.2880,1398.68,-326.78,594.24
18370,-3.8707,0.6565,0.2985,1773.68,860.66,844.30
18380,-3.8708,0.6609,0.3069,39.31,-1795.59,781.80
18390,-3.8710,0.6769,0.3143,601.81,-717.47,109.92
18400,-3.8712,0.6727,0.3215,-1351.32,235.66,-1233.76
18410,-3.8713,0.6393,0.3306,-1882.57,1157.53,844.36
18420,-3.8716,0.5956,0.3435,1836.18,-1686.28,-1452.51
18430,-3.8717,0.5460,0.3627,242.43,-30.09,516.24
18440,-3.8719,0.4896,0.3870,1898.68,-1577.09,-186.83
18450,-3.8719,0.4528,0.4176,-1320.07,1532.17,1516.36
18460,-3.8719,0.4413,0.4652,1961.18,1453.98,-1967.96
18470,-3.8718,0.4287,0.5294,492.43,-452.27,1016.48
18480,-3.8717,0.3951,0.5876,-1116.94,-233.58,1797.85
18490,-3.8716,0.3369,0.6239,-1413.82,-780.52,-1108.28
18500,-3.8715,0.2562,0.6334,-866.94,-140.01,-1233.22
18510,-3.8713,0.1704,0.6331,804.93,1078.61,829.35
18520,-3.8713,0.1013,0.6371,1820.56,1031.56,1626.22
18530,-3.8713,0.0433,0.6360,976.81,1547.06,1876.22
18540,-3.8713,-0.0043,0.6310,1554.93,1406.31,1782.47
18550,-3.8713,-0.0239,0.6312,-538.82,781.19,1969.97
18560,-3.8713,-0.0143,0.6423,945.56,812.44,-842.53
18570,-3.8712,0.0193,0.6639,-1820.07,-1765.69,1079.35
18580,-3.8712,0.0754,0.6931,-1523.19,984.38,-498.72
18590,-3.8711,0.1357,0.7289,1664.31,718.87,-1201.78
18600,-3.8710,0.1567,0.7632,1383.06,1297.12,-1498.60
18610,-3.8708,0.1086,0.7800,70.56,1687.81,1017.09
18620,-3.8708,0.0052,0.7733,1914.31,-156.07,548.34
18630,-3.8710,-0.1047,0.7410,679.93,-1015.62,657.71
18640,-3.8712,-0.1753,0.6919,-1398.19,-1140.87,-1076.72
18650,-3.8713,-0.1963,0.6488,1570.56,577.76,548.22
18660,-3.8716,-0.1838,0.6223,-1116.94,-937.93,-1498.78
18670,-3.8717,-0.1530,0.6117,476.81,-328.49,-1701.97
18680,-3.8717,-0.1143,0.6112,429.93,-1687.81,329.28
18690,-3.8718,-0.0897,0.6251,1383.06,-1750.24,-405.09
18700,-3.8718,-0.0923,0.6703,523.68,31.07,-92.53
18710,-3.8717,-0.1289,0.7299,195.56,1812.32,-1858.09
18720,-3.8716,-0.1998,0.7759,-491.94,1437.19,1813.90
18730,-3.8715,-0.2832,0.8008,-1570.07,-672.30,1095.21
18740,-3.8715,-0.3470,0.8022,-241.94,-1484.99,-779.72
18750,-3.8715,-0.3805,0.7870,-413.82,-1297.61,-185.97
18760,-3.8715,-0.3838,0.7609,-695.07,749.21,-1795.35
18770,-3.8716,-0.3644,0.7266,-1116.94,1405.46,-1639.16
18780,-3.8717,-0.3516,0.6858,1367.43,1014.89,767.03
18790,-3.8719,-0.3502,0.6508,-991.94,-203.86,-1467.47
18800,-3.8721,-0.3638,0.6364,-820.07,-688.23,1219.97
18810,-3.8722,-0.4059,0.6404,1445.56,1468.02,1969.97
18820,-3.8722,-0.4749,0.6486,54.93,1983.58,1048.10
18830,-3.8722,-0.5665,0.6564,-773.19,-969.73,1688.72
18840,-3.8722,-0.6823,0.6643,-507.57,30.09,-1233.09
18850,-3.8721,-0.8103,0.6606,679.93,1045.53,157.53
18860,-3.8721,-0.9290,0.6379,289.31,576.54,1766.91
18870,-3.8721,-1.0310,0.6061,1101.81,1670.04,-1326.90
18880,-3.8721,-1.1211,0.5677,39.31,1591.74,-1733.22
18890,-3.8721,-1.1978,0.5225,508.06,685.30,954.22
18900,-3.8722,-1.2477,0.4795,-1304.44,-1111.76,-467.77
18910,-3.8722,-1.2657,0.4528,304.93,1388.18,-1155.33
18920,-3.8722,-1.2677,0.4409,1992.43,1966.25,-124.15
18930,-3.8721,-1.2584,0.4258,1742.43,450.62,-1499.15
18940,-3.8719,-1.2227,0.3986,-1070.07,-1486.88,1032.04
18950,-3.8719,-1.1536,0.3705,-491.94,-971.19,-1843.02
18960,-3.8719,-1.0648,0.3518,351.81,-564.76,1610.05
18970,-3.8719,-0.9832,0.3368,-288.82,1044.74,16.30
18980,-3.8721,-0.9237,0.3210,-1835.69,-876.95,-1421.26
18990,-3.8721,-0.8876,0.3105,1773.68,1107.54,-1983.76
19000,-3.8721,-0.8777,0.3112,-1601.32,-236.15,1984.92
19010,-3.8721,-0.8881,0.3217,-335.69,-158.02,-1874.45
19020,-3.8721,-0.8982,0.3466,-1663.82,1185.73,-811.89
19030,-3.8719,-0.9016,0.3928,1039.31,373.23,1781.92
19040,-3.8718,-0.9111,0.4529,601.81,-1704.90,1360.11
19050,-3.8717,-0.9315,0.5095,-616.94,1982.54,985.23
19060,-3.8717,-0.9508,0.5551,773.68,1232.54,-170.90
19070,-3.8716,-0.9589,0.5936,-1695.07,-939.39,1719.79
19080,-3.8716,-0.9558,0.6237,1273.68,-1.89,-1655.15
19090,-3.8716,-0.9445,0.6427,1664.31,-158.14,1391.78
19100,-3.8717,-0.9298,0.6578,-882.57,-1720.64,-639.40
19110,-3.8717,-0.9066,0.6760,992.43,216.92,954.41
19120,-3.8718,-0.8658,0.7015,-38.82,-1454.96,-1608.09
19130,-3.8718,-0.8098,0.7341,1179.93,1810.79,79.47
19140,-3.8719,-0.7444,0.7638,351.81,1982.79,-1498.60
19150,-3.8719,-0.6829,0.7826,726.81,1779.79,1767.09
19160,-3.8719,-0.6327,0.7942,601.81,186.16,1142.15
19170,-3.8721,-0.5836,0.8000,-976.32,1670.59,-123.47
19180,-3.8721,-0.5288,0.8024,1304.93,-1579.28,1923.40
19190,-3.8722,-0.4800,0.8069,320.56,-1282.29,-60.97
19200,-3.8722,-0.4501,0.8188,-1429.44,-704.10,-1451.60
19210,-3.8722,-0.4351,0.8353,-1601.32,827.21,1985.96
19220,-3.8722,-0.4183,0.8464,320.56,-1063.35,-1748.41
19230,-3.8722,-0.3922,0.8541,-1538.82,358.52,-1107.73
19240,-3.8722,-0.3618,0.8676,1804.93,1342.96,-545.23
19250,-3.8721,-0.3303,0.8893,1695.56,-938.23,17.27
19260,-3.8721,-0.2961,0.9119,1726.81,1843.08,1486.08
19270,-3.8719,-0.2540,0.9224,-1898.19,733.76,126.77
19280,-3.8719,-0.1946,0.9231,-507.57,-1922.42,-1341.98
19290,-3.8719,-0.1158,0.9236,-898.19,-1828.55,-826.35
19300,-3.8719,-0.0282,0.9167,1179.93,-1765.87,1048.65
19310,-3.8721,0.0497,0.8986,398.68,1359.31,-1920.10
19320,-3.8721,0.1016,0.8843,-1632.57,-984.31,486.08
19330,-3.8721,0.1311,0.8851,1008.06,1187.68,829.83
19340,-3.8721,0.1564,0.8923,789.31,1297.12,-1342.04
19350,-3.8719,0.1887,0.8962,23.68,-1780.94,1454.83
19360,-3.8718,0.2245,0.8961,164.31,-1280.88,986.08
19370,-3.8717,0.2656,0.8917,742.43,-1296.45,751.71
19380,-3.8716,0.3245,0.8885,-1991.94,-1858.89,329.83
19390,-3.8715,0.3988,0.8844,1539.31,1734.99,142.33
19400,-3.8715,0.4794,0.8704,-945.07,1203.86,-13.92
19410,-3.8713,0.5530,0.8350,1367.43,-592.83,-1888.98
19420,-3.8713,0.6034,0.7717,-1210.69,-1123.96,1485.96
19430,-3.8715,0.6284,0.6929,1242.43,-1217.59,-404.79
19440,-3.8715,0.6521,0.6345,445.56,688.72,-1139.28
19450,-3.8713,0.6891,0.6111,-523.19,1219.97,391.85
19460,-3.8712,0.7480,0.6099,211.18,-1779.91,876.16
19470,-3.8710,0.8074,0.6155,-241.94,-1936.10,751.16
19480,-3.8707,0.8380,0.6077,-648.19,-1217.22,-1436.34
19490,-3.8704,0.8607,0.5886,-726.32,1782.84,48.03
19500,-3.8701,0.8956,0.5677,-1820.07,-654.60,266.72
19510,-3.8700,0.9554,0.5447,-1351.32,673.58,-670.78
19520,-3.8698,1.0170,0.5151,-1695.07,1720.58,1594.79
19530,-3.8696,1.0535,0.4766,-1820.07,1939.45,-1452.15
19540,-3.8695,1.0930,0.4344,-1148.19,1002.01,860.29
19550,-3.8696,1.1222,0.4011,-85.69,-388.55,-124.21
19560,-3.8696,1.1010,0.3894,-351.32,-654.11,563.23
19570,-3.8698,1.0444,0.4011,929.93,1845.89,891.36
19580,-3.8699,0.9502,0.4268,1695.56,-654.24,1688.23
19590,-3.8700,0.8435,0.4622,1633.06,-1373.17,-1233.58
19600,-3.8700,0.7462,0.5061,-23.19,-842.16,328.98
19610,-3.8701,0.6252,0.5483,-476.32,782.65,-1452.15
19620,-3.8701,0.4910,0.5793,39.31,-1811.28,969.79
19630,-3.8702,0.3583,0.5924,-1148.19,-1842.83,-1280.15
19640,-3.8704,0.2351,0.5848,1867.43,-171.20,-686.40
19650,-3.8705,0.1595,0.5665,-1898.19,-1140.20,-1139.53
19660,-3.8706,0.1499,0.5487,429.93,515.93,1626.10
19670,-3.8707,0.1925,0.5424,-804.44,-1765.38,297.91
19680,-3.8710,0.2573,0.5482,648.68,1422.24,-217.71
19690,-3.8710,0.3055,0.5515,945.56,-1827.64,47.91
19700,-3.8711,0.3147,0.5468,-882.57,-1405.70,329.16
19710,-3.8712,0.2900,0.5387,289.31,1984.99,469.79
19720,-3.8713,0.2428,0.5322,1133.06,953.67,1485.41
19730,-3.8713,0.1881,0.5312,-913.82,125.43,454.16
19740,-3.8713,0.1389,0.5304,86.18,0.37,563.54
19750,-3.8713,0.1023,0.5415,1789.31,-109.13,969.73
19760,-3.8713,0.0656,0.5543,1101.81,1312.68,1188.54
19770,-3.8713,0.0162,0.5436,398.68,-1046.75,1172.91
19780,-3.8713,-0.0304,0.5195,-1913.82,1578.12,1282.29
19790,-3.8713,-0.0563,0.4963,117.43,-1484.44,1329.10
19800,-3.8713,-0.0518,0.4817,804.93,-453.25,1079.04
19810,-3.8713,-0.0232,0.4683,1383.06,1671.75,500.92
19820,-3.8713,0.0145,0.4503,1039.31,-46.94,0.85
19830,-3.8715,0.0570,0.4380,1867.43,1640.62,-233.52
19840,-3.8715,0.1045,0.4380,-695.07,62.56,-233.52
19850,-3.8715,0.1499,0.4506,1383.06,62.68,-405.40
19860,-3.8715,0.1812,0.4718,-804.44,1672.12,-936.65
19870,-3.8715,0.1908,0.4891,-804.44,390.93,-1592.83
19880,-3.8715,0.1799,0.4941,429.93,-1390.26,954.04
19890,-3.8716,0.1506,0.4871,-960.69,-749.69,1188.42
19900,-3.8718,0.1082,0.4761,-710.69,-1656.01,-280.33
19910,-3.8719,0.0566,0.4857,1851.81,937.68,-858.46
19920,-3.8719,-0.0072,0.5264,-741.94,-1828.06,1829.04
19930,-3.8718,-0.0863,0.5784,-913.82,-609.44,735.35
19940,-3.8717,-0.1722,0.6136,961.18,-1953.31,-1858.28
19950,-3.8716,-0.2473,0.6235,1961.18,-1437.87,-826.97
19960,-3.8715,-0.2936,0.6262,351.81,-172.36,-1592.59
19970,-3.8713,-0.3239,0.6342,-1570.07,171.26,391.85
19980,-3.8713,-0.3534,0.6447,-1445.07,1186.83,-1811.28
19990,-3.8712,-0.3778,0.6493,-1226.32,-1469.48,94.97
20000,-3.8712,-0.4131,0.6433,-351.32,-875.79,1110.60
20010,-3.8712,-0.4679,0.6271,-866.94,-1641.48,548.10
20020,-3.8713,-0.5228,0.6039,117.43,280.33,-1170.65
20030,-3.8713,-0.5647,0.5819,1086.18,1311.46,641.78
20040,-3.8715,-0.5920,0.5605,-273.19,-1501.16,-1186.40
20050,-3.8715,-0.6151,0.5256,226.81,-235.53,1985.41
20060,-3.8715,-0.6443,0.4800,1273.68,-704.35,1969.73
20070,-3.8715,-0.6719,0.4398,1539.31,1451.84,-1795.96
20080,-3.8715,-0.6974,0.4153,-1991.94,311.16,-1921.02
20090,-3.8715,-0.7325,0.4019,-1257.57,1170.47,1235.17
20100,-3.8716,-0.7819,0.3812,-1757.57,-548.34,-186.77
20110,-3.8716,-0.8354,0.3400,-70.07,810.91,1906.98
20120,-3.8717,-0.8768,0.2816,1070.56,-470.40,-1233.76
20130,-3.8718,-0.9017,0.2202,-226.32,60.73,-1858.83
20140,-3.8719,-0.9172,0.1702,586.18,201.35,1219.18
20150,-3.8721,-0.9324,0.1432,-1398.19,1795.04,1500.31
20160,-3.8722,-0.9526,0.1425,664.31,-1658.08,-218.51
20170,-3.8721,-0.9712,0.1570,-1929.44,-1751.89,234.62
20180,-3.8721,-0.9741,0.1731,-304.44,107.42,-1249.69
20190,-3.8719,-0.9559,0.1888,-679.44,-1830.08,-1234.07
20200,-3.8718,-0.9247,0.2124,1648.68,185.61,-780.88
20210,-3.8717,-0.8971,0.2439,1648.68,-798.71,-968.38
20220,-3.8716,-0.8854,0.2700,1179.93,-767.40,1891.05
20230,-3.8716,-0.8927,0.2855,-1320.07,-1423.65,-233.89
20240,-3.8715,-0.9114,0.2958,1742.43,560.73,422.42
20250,-3.8716,-0.9340,0.3040,-648.19,1873.17,-280.70
20260,-3.8716,-0.9568,0.3132,461.18,-1079.96,-1780.70
20270,-3.8716,-0.9705,0.3285,1539.31,107.48,500.61
20280,-3.8717,-0.9692,0.3528,-210.69,-1939.45,-1343.14
20290,-3.8717,-0.9579,0.3839,-54.44,1169.92,906.92
20300,-3.8718,-0.9512,0.4161,1398.68,1154.36,-233.64
20310,-3.8718,-0.9651,0.4480,-1741.94,1279.36,-577.33
20320,-3.8718,-0.9938,0.4792,476.81,1357.48,-342.90
20330,-3.8718,-1.0073,0.5098,804.93,1357.42,-14.71
20340,-3.8718,-0.9829,0.5371,-929.44,1263.61,-124.02
20350,-3.8718,-0.9270,0.5542,-1804.44,763.67,-858.34
20360,-3.8718,-0.8553,0.5609,1351.81,-1048.71,-1717.71
20370,-3.8718,-0.7738,0.5675,-1476.32,-189.21,1922.91
20380,-3.8718,-0.6881,0.5828,961.18,654.72,-1873.90
20390,-3.8718,-0.6121,0.6036,-70.07,-1392.03,-1358.28
20400,-3.8718,-0.5569,0.6228,1664.31,1280.03,-748.84
20410,-3.8718,-0.5209,0.6360,726.81,-266.72,-326.97
20420,-3.8717,-0.4897,0.6409,1336.18,1420.84,610.60
20430,-3.8717,-0.4523,0.6407,1320.56,-1954.10,-905.03
20440,-3.8716,-0.4083,0.6390,-1882.57,-1969.67,-1186.28
20450,-3.8715,-0.3608,0.6371,-257.57,1811.65,-1217.53
20460,-3.8713,-0.3179,0.6348,1820.56,1561.77,-1811.28
20470,-3.8712,-0.2820,0.6294,-679.44,1264.95,516.85
20480,-3.8712,-0.2466,0.6230,-85.69,577.51,-1936.28
20490,-3.8712,-0.2050,0.6200,445.56,-234.86,-1014.47
20500,-3.8712,-0.1508,0.6226,1773.68,-625.43,-514.47
20510,-3.8711,-0.0889,0.6332,711.18,-297.18,173.03
20520,-3.8711,-0.0493,0.6481,633.06,1062.32,1094.97
20530,-3.8711,-0.0554,0.6564,1695.56,-1031.37,1657.47
20540,-3.8711,-0.0847,0.6508,914.31,31.13,1266.91
20550,-3.8711,-0.0964,0.6398,1164.31,-687.68,32.47
20560,-3.8712,-0.0826,0.6368,-335.69,1906.01,-1155.03
20570,-3.8712,-0.0574,0.6425,1429.93,1531.07,-1217.53
20580,-3.8711,-0.0234,0.6492,664.31,-1750.12,1016.85
20590,-3.8710,0.0255,0.6564,1008.06,-890.69,1907.47
20600,-3.8707,0.1013,0.6677,-726.32,15.62,79.41
20610,-3.8706,0.2119,0.6750,976.81,1468.93,-1936.22
20620,-3.8705,0.3407,0.6622,-866.94,-1593.38,-779.97
20630,-3.8704,0.4591,0.6300,-382.57,766.24,-358.09
20640,-3.8702,0.5591,0.5830,-1226.32,641.48,-905.03
20650,-3.8701,0.6542,0.5118,-429.44,-1373.96,579.22
20660,-3.8701,0.7532,0.4146,-257.57,1516.85,360.35
20670,-3.8701,0.8446,0.3124,414.31,1063.96,203.92
20680,-3.8701,0.8981,0.2324,117.43,-13.98,984.92
20690,-3.8701,0.9535,0.1818,-1038.82,1751.71,-1155.82
20700,-3.8700,1.0354,0.1555,-1945.07,-732.54,-1734.07
20710,-3.8699,1.0863,0.1484,539.31,-91.74,-1296.63
20720,-3.8698,1.0692,0.1573,-945.07,-997.92,-765.38
20730,-3.8696,0.9712,0.1799,867.43,142.70,-1015.32
20740,-3.8695,0.8390,0.2151,320.56,-966.86,1453.43
20750,-3.8695,0.7089,0.2549,-601.32,-467.16,-1249.63
20760,-3.8695,0.5768,0.2847,-1257.57,626.34,-1468.26
20770,-3.8696,0.4474,0.2983,1836.18,438.60,-30.70
20780,-3.8698,0.3201,0.2985,1273.68,-1811.65,-1968.20
20790,-3.8700,0.2048,0.2919,976.81,-1796.26,1047.42
20800,-3.8704,0.1207,0.2811,-1773.19,1359.74,-1046.33
20810,-3.8706,0.0792,0.2684,-538.82,-15.44,1437.99
20820,-3.8708,0.0680,0.2573,-1851.32,-1640.50,1203.61
20830,-3.8711,0.0708,0.2461,711.18,937.62,-1530.76
20840,-3.8712,0.0864,0.2402,1070.56,-499.88,1859.80
20850,-3.8713,0.1129,0.2500,-929.44,-1249.88,-30.82
20860,-3.8712,0.1458,0.2743,-1538.82,0.18,812.99
20870,-3.8712,0.1885,0.3009,-1335.69,-890.38,-77.64
20880,-3.8711,0.2456,0.3187,133.06,-1484.01,-61.95
20890,-3.8710,0.3059,0.3247,-554.44,797.30,-1155.64
20900,-3.8710,0.3579,0.3226,-835.69,1563.05,-561.89
20910,-3.8710,0.4084,0.3175,1820.56,1297.55,-1999.39
20920,-3.8711,0.4625,0.3195,289.31,641.42,-15.01
20930,-3.8711,0.4998,0.3373,-788.82,891.48,-405.64
20940,-3.8710,0.4889,0.3628,-23.19,-827.21,1828.74
20950,-3.8708,0.4492,0.3862,-1413.82,-1561.58,1047.55
20960,-3.8708,0.3994,0.4073,1508.06,1438.35,-874.27
20970,-3.8708,0.3207,0.4254,-866.94,141.36,-921.08
20980,-3.8708,0.2328,0.4462,1054.93,-1546.26,1625.79
20990,-3.8708,0.1611,0.4779,1804.93,1109.80,297.73
21000,-3.8710,0.1077,0.5105,633.06,1172.18,-108.46
21010,-3.8708,0.0693,0.5297,1789.31,1343.93,157.23
21020,-3.8710,0.0327,0.5249,883.06,-203.00,-499.02
21030,-3.8710,-0.0049,0.4976,195.56,-812.44,391.60
21040,-3.8712,-0.0262,0.4724,-616.94,-296.94,-655.33
21050,-3.8713,-0.0253,0.4606,648.68,484.31,-1639.71
21060,-3.8715,-0.0144,0.4510,773.68,-1031.31,-1874.15
21070,-3.8716,-0.0074,0.4424,-1835.69,1749.94,-1874.15
21080,-3.8717,-0.0066,0.4482,-945.07,640.56,-1311.65
21090,-3.8717,-0.0057,0.4766,-835.69,1390.56,641.48
21100,-3.8717,-0.0062,0.5269,-726.32,1015.56,782.17
21110,-3.8717,-0.0192,0.5864,-788.82,-546.94,-811.52
21120,-3.8716,-0.0522,0.6282,1554.93,-921.94,-1780.15
21130,-3.8716,-0.1013,0.6385,1320.56,421.75,-545.65
21140,-3.8716,-0.1483,0.6278,-960.69,1749.76,1844.97
21150,-3.8717,-0.1814,0.6079,1023.68,374.69,1907.47
21160,-3.8718,-0.2032,0.5865,789.31,1827.76,798.03
21170,-3.8721,-0.2188,0.5745,1992.43,-906.68,-545.78
21180,-3.8722,-0.2393,0.5817,8.06,1546.45,-1217.65
21190,-3.8722,-0.2715,0.6135,1383.06,-1531.74,516.72
21200,-3.8722,-0.3124,0.6648,1258.06,-1453.67,1829.28
21210,-3.8721,-0.3613,0.7190,23.68,1108.76,-1451.84
21220,-3.8718,-0.4164,0.7562,1758.06,46.14,1907.65
21230,-3.8716,-0.4709,0.7622,-1288.82,811.65,-1951.66
21240,-3.8713,-0.5255,0.7418,-273.19,1577.15,438.96
21250,-3.8713,-0.5844,0.7100,742.43,-1032.29,-45.47
21260,-3.8712,-0.6420,0.6659,1211.18,-1110.53,423.22
21270,-3.8713,-0.6846,0.6030,1836.18,1248.72,1610.66
21280,-3.8715,-0.7050,0.5317,383.06,1201.78,329.28
21290,-3.8717,-0.7092,0.4697,1773.68,76.72,-1639.59
21300,-3.8718,-0.7076,0.4271,1226.81,139.22,1625.92
21310,-3.8719,-0.7046,0.4080,1429.93,-1313.90,-1030.46
21320,-3.8719,-0.7070,0.4170,1820.56,232.97,-1514.83
21330,-3.8718,-0.7411,0.4475,1508.06,1389.22,266.42
21340,-3.8718,-0.8386,0.4723,1148.68,1295.41,-796.02
21350,-3.8717,-0.9868,0.4684,664.31,467.10,1297.79
21360,-3.8717,-1.1309,0.4346,1695.56,-33.20,1563.35
21370,-3.8717,-1.2292,0.3884,-741.94,-361.63,47.67
21380,-3.8718,-1.2783,0.3636,-1335.69,1731.93,1891.36
21390,-3.8718,-1.2927,0.3795,383.06,-1440.00,656.92
21400,-3.8718,-1.2821,0.4263,-1460.69,591.19,969.48
21410,-3.8718,-1.2747,0.4856,-101.32,-1424.44,-1358.58
21420,-3.8717,-1.3170,0.5316,851.81,-1830.63,938.42
21430,-3.8717,-1.4006,0.5397,-570.07,59.88,-1358.34
21440,-3.8717,-1.4546,0.5078,726.81,1091.00,-1452.09
21450,-3.8717,-1.4299,0.4700,1820.56,1012.76,250.98
21460,-3.8718,-1.3452,0.4639,976.81,169.07,969.67
21470,-3.8719,-1.2485,0.4858,-179.44,-612.06,-1514.77
21480,-3.8719,-1.1641,0.5161,195.56,-1799.32,1672.79
21490,-3.8719,-1.1000,0.5558,-991.94,-1924.19,-1842.77
21500,-3.8719,-1.0673,0.6064,-788.82,-845.95,-733.34
21510,-3.8718,-1.0638,0.6543,-601.32,1638.49,782.41
21520,-3.8718,-1.0664,0.6893,-163.82,-236.51,-1389.40
21530,-3.8718,-1.0541,0.7126,-491.94,247.86,-248.66
21540,-3.8718,-1.0312,0.7247,1086.18,-767.70,-1108.03
21550,-3.8718,-1.0138,0.7327,8.06,779.24,79.53
21560,-3.8719,-1.0121,0.7549,-1757.57,1794.86,829.53
21570,-3.8721,-1.0120,0.8018,-1538.82,638.61,-1357.91
21580,-3.8721,-0.9834,0.8671,-1523.19,-1361.39,1985.90
21590,-3.8721,-0.9236,0.9312,-1866.94,-1001.95,-1420.23
21600,-3.8721,-0.8510,0.9805,1789.31,-798.71,-185.73
21610,-3.8719,-0.7772,1.0184,-913.82,1513.92,689.39
21620,-3.8719,-0.7020,1.0472,523.68,-1626.53,861.33
21630,-3.8719,-0.6218,1.0697,-1851.32,-1938.90,564.51
21640,-3.8721,-0.5295,1.0907,414.31,936.28,-560.42
21650,-3.8721,-0.4210,1.1080,226.81,-376.04,1205.20
21660,-3.8722,-0.3040,1.1212,-1882.57,1842.90,-1763.49
21670,-3.8723,-0.1836,1.1372,1101.81,-469.36,-1107.24
21680,-3.8723,-0.0656,1.1547,508.06,1577.76,142.82
21690,-3.8724,0.0338,1.1572,-382.57,-187.68,-966.55
21700,-3.8724,0.1075,1.1417,336.18,125.06,-1044.62
21710,-3.8724,0.1648,1.1208,1773.68,-1859.19,-1888.43
21720,-3.8726,0.2177,1.0974,1101.81,-530.94,-372.86
21730,-3.8726,0.2747,1.0725,-132.57,469.12,1095.89
21740,-3.8726,0.3381,1.0518,-835.69,1281.74,658.33
21750,-3.8726,0.4098,1.0394,-710.69,-1374.39,-622.99
21760,-3.8723,0.4827,1.0321,461.18,1047.67,1080.14
21770,-3.8721,0.5353,1.0140,1789.31,110.29,377.01
21780,-3.8718,0.5791,0.9944,523.68,1797.91,1173.83
21790,-3.8716,0.6451,0.9812,-1866.94,-717.65,-544.98
21800,-3.8712,0.7463,0.9637,-1413.82,1594.97,1876.89
21810,-3.8710,0.8669,0.9364,-460.69,-639.22,-154.42
21820,-3.8706,1.0049,0.8904,-1023.19,-138.98,1251.77
21830,-3.8704,1.1553,0.8206,633.06,1970.70,-1763.92
21840,-3.8701,1.2815,0.7421,-116.94,1033.45,-498.41
21850,-3.8698,1.3860,0.6840,39.31,-1013.12,1485.78
21860,-3.8695,1.4370,0.6505,1414.31,-450.44,-748.72
21870,-3.8693,1.4180,0.6241,-54.44,-731.63,-576.90
21880,-3.8690,1.3638,0.5981,1508.06,-106.63,1563.66
21890,-3.8689,1.2811,0.5732,-1429.44,565.12,-1592.59
21900,-3.8688,1.1830,0.5438,-7.57,1377.44,-655.15
21910,-3.8687,1.0559,0.5216,-570.07,1611.63,-327.09
21920,-3.8685,0.9207,0.5220,-835.69,-1232.36,1344.73
21930,-3.8685,0.8198,0.5404,1851.81,-1185.73,297.85
21940,-3.8687,0.7571,0.5686,945.56,1173.46,-1702.09
21950,-3.8687,0.7347,0.6003,914.31,782.71,1063.60
21960,-3.8687,0.7236,0.6261,-1945.07,845.15,407.41
21970,-3.8688,0.7026,0.6426,633.06,142.03,-1123.78
21980,-3.8689,0.6637,0.6523,1945.56,-1748.66,-983.15
21990,-3.8690,0.6140,0.6615,961.18,-498.72,1219.97
22000,-3.8693,0.5734,0.6791,-1398.19,673.03,-717.47
22010,-3.8694,0.5464,0.7059,1398.68,-1077.03,-1983.09
22020,-3.8695,0.5370,0.7289,1945.56,-1639.59,1579.47
22030,-3.8696,0.5514,0.7415,742.43,1297.91,1173.28
22040,-3.8699,0.5864,0.7531,-1413.82,-1092.71,-311.10
22050,-3.8700,0.6205,0.7726,-929.44,391.72,1313.96
22060,-3.8702,0.6344,0.7960,-570.07,-1108.22,-1529.79
22070,-3.8705,0.6244,0.8147,1211.18,1891.85,-779.72
22080,-3.8707,0.5925,0.8274,-70.07,282.41,-967.16
22090,-3.8710,0.5413,0.8324,-148.19,1907.35,1079.71
22100,-3.8713,0.4882,0.8468,1289.31,-1452.09,-1904.66
22110,-3.8717,0.4332,0.8696,-1507.57,391.54,-545.23
22120,-3.8719,0.3618,0.8818,-538.82,-686.71,1501.65
22130,-3.8722,0.2817,0.8839,-1679.44,875.67,32.96
22140,-3.8726,0.2019,0.8770,70.56,1141.17,-545.17
22150,-3.8727,0.1218,0.8676,1851.81,250.37,173.58
22160,-3.8729,0.0422,0.8492,-398.19,-952.94,1970.40
22170,-3.8730,-0.0353,0.8130,1414.31,703.19,220.40
22180,-3.8733,-0.1025,0.7761,-507.57,78.00,-998.41
22190,-3.8734,-0.1515,0.7535,-1116.94,-640.87,-576.66
22200,-3.8734,-0.1881,0.7408,617.43,468.44,-1936.04
22210,-3.8734,-0.2174,0.7457,-70.07,-1156.68,-904.85
22220,-3.8733,-0.2388,0.7700,179.93,-531.68,-404.85
22230,-3.8730,-0.2528,0.7961,1445.56,-1422.36,-1014.16
22240,-3.8728,-0.2588,0.8149,-351.32,1921.33,-1982.85
22250,-3.8727,-0.2531,0.8253,-1116.94,327.58,-1717.16
22260,-3.8726,-0.2555,0.8330,-382.57,1655.70,392.21
22270,-3.8726,-0.2711,0.8506,-695.07,-1359.92,-857.79
22280,-3.8724,-0.2808,0.8778,1304.93,890.08,-154.60
22290,-3.8722,-0.2943,0.9043,70.56,374.45,1220.46
22300,-3.8721,-0.3158,0.9343,-1663.82,-234.99,-967.04
22310,-3.8718,-0.3369,0.9871,-413.82,-391.30,-826.35
22320,-3.8715,-0.3864,1.0587,883.06,-1641.30,-1826.23
22330,-3.8711,-0.4796,1.1251,-1445.07,-469.54,-1763.61
22340,-3.8707,-0.6029,1.1638,-1382.57,30.27,1439.70
22350,-3.8705,-0.7629,1.1685,-1163.82,983.15,-763.37
22360,-3.8701,-0.9362,1.1615,-1648.19,1576.60,142.88
22370,-3.8699,-1.0903,1.1458,179.93,685.67,580.38
22380,-3.8698,-1.2218,1.1069,445.56,-1330.26,-1044.68
22390,-3.8696,-1.3444,1.0452,-382.57,1700.68,814.64
22400,-3.8698,-1.4780,0.9629,-70.07,1794.19,1502.01
22410,-3.8700,-1.6117,0.8574,-1179.44,-737.30,-1998.17
22420,-3.8704,-1.7197,0.7239,1711.18,1762.45,-951.48
22430,-3.8707,-1.7833,0.5768,-116.94,668.46,735.78
22440,-3.8712,-1.7842,0.4438,-257.57,1840.21,829.22
22450,-3.8717,-1.7279,0.3374,-366.94,824.58,-1702.27
22460,-3.8719,-1.6310,0.2643,-1163.82,-800.29,0.61
22470,-3.8722,-1.4974,0.2350,-757.57,1840.52,-1155.76
22480,-3.8722,-1.3363,0.2454,336.18,-1909.18,1969.18
22490,-3.8721,-1.1780,0.2786,961.18,-580.75,484.80
22500,-3.8719,-1.0498,0.3240,1226.81,-330.44,1078.61
22510,-3.8718,-0.9613,0.3738,1633.06,1482.30,-1780.64
22520,-3.8717,-0.9156,0.4196,961.18,-142.52,-1311.83
22530,-3.8716,-0.9116,0.4629,-1195.07,1716.92,1563.29
22540,-3.8716,-0.9507,0.5027,-679.44,-736.21,-1624.15
22550,-3.8716,-1.0118,0.5303,-1679.44,357.48,1375.98
22560,-3.8717,-1.0535,0.5466,-1507.57,-111.39,-1217.77
22570,-3.8718,-1.0590,0.5636,1164.31,1982.30,-1795.84
22580,-3.8721,-1.0409,0.5911,461.18,154.17,-327.03
22590,-3.8722,-1.0167,0.6337,-1226.32,-330.20,391.72
22600,-3.8724,-1.0009,0.6914,1867.43,1122.99,1751.22
22610,-3.8726,-1.0048,0.7528,-101.32,513.61,798.22
22620,-3.8727,-1.0220,0.8075,-601.32,372.99,1860.84
22630,-3.8727,-1.0258,0.8539,1195.56,-627.01,282.78
22640,-3.8728,-0.9922,0.8933,711.18,1310.49,-888.98
22650,-3.8728,-0.9248,0.9282,1008.06,-1642.58,-1842.04
22660,-3.8728,-0.8505,0.9642,1633.06,-1173.71,1892.40
22670,-3.8728,-0.7858,1.0018,-851.32,-564.21,-1310.67
22680,-3.8727,-0.7316,1.0358,-570.07,248.41,33.20
22690,-3.8727,-0.6840,1.0623,-1632.57,592.29,783.26
22700,-3.8727,-0.6381,1.0775,461.18,-16.97,798.89
22710,-3.8727,-0.5939,1.0863,-1663.82,1936.22,783.33
22720,-3.8727,-0.5504,1.0972,-7.57,-938.72,1127.08
22730,-3.8727,-0.5038,1.1135,1554.93,452.03,-1732.24
22740,-3.8726,-0.4546,1.1404,-476.32,-1454.16,689.64
22750,-3.8724,-0.4045,1.1699,1820.56,1983.46,299.07
22760,-3.8723,-0.3505,1.1912,226.81,1764.83,564.76
22770,-3.8722,-0.2874,1.2052,-851.32,483.64,955.44
22780,-3.8721,-0.2091,1.2084,-773.19,-1719.36,767.94
22790,-3.8721,-0.1173,1.1954,1242.43,-1312.93,-778.93
22800,-3.8719,-0.0244,1.1715,992.43,1031.01,205.44
22810,-3.8719,0.0652,1.1497,883.06,1968.69,189.76
22820,-3.8719,0.1525,1.1377,351.81,-843.63,470.95
22830,-3.8719,0.2438,1.1302,-476.32,1625.24,-1669.68
22840,-3.8718,0.3447,1.1252,-788.82,672.30,-1966.55
22850,-3.8717,0.4475,1.1266,133.06,31.92,-1200.93
22860,-3.8715,0.5524,1.1305,1289.31,203.98,392.82
22870,-3.8713,0.6626,1.1284,-1288.82,704.16,-1122.80
22880,-3.8711,0.7666,1.1002,820.56,438.78,1080.32
22890,-3.8710,0.8484,1.0303,-1866.94,829.59,1861.51
22900,-3.8708,0.8978,0.9446,601.81,-123.35,439.45
22910,-3.8708,0.9539,0.8740,-1070.07,907.96,908.08
22920,-3.8708,1.0549,0.8196,-1898.19,-123.17,1236.02
22930,-3.8708,1.1693,0.7776,-960.69,908.26,-857.79
22940,-3.8707,1.2632,0.7435,1679.93,-466.49,-1045.41
22950,-3.8705,1.3638,0.7068,1695.56,-825.68,1657.65
22960,-3.8701,1.4982,0.6609,-1429.44,-1528.63,173.22
22970,-3.8699,1.6163,0.6063,-226.32,596.62,-92.47
22980,-3.8695,1.7013,0.5530,-1101.32,1612.49,1157.41
22990,-3.8694,1.7458,0.5013,1773.68,-1215.45,-1827.09
23000,-3.8694,1.7003,0.4677,-523.19,175.23,-1405.27
23010,-3.8694,1.6086,0.4667,1648.68,-137.33,172.73
23020,-3.8695,1.5121,0.4709,1914.31,-262.51,407.10
23030,-3.8698,1.4130,0.4741,1554.93,284.18,-77.21
23040,-3.8699,1.2896,0.4883,867.43,690.25,-1014.71
23050,-3.8700,1.1338,0.5129,1070.56,-1497.50,1516.54
23060,-3.8701,0.9752,0.5400,1133.06,1658.45,32.23
23070,-3.8704,0.7975,0.5599,836.18,1126.89,-1452.09
23080,-3.8705,0.6215,0.5828,-1913.82,-326.60,1297.91
