timestamp_ms,ax,ay,az,gx,gy,gz
0,-3.8707,0.3339,0.3324,539.31,1281.92,-1858.76
10,-3.8707,0.3269,0.3535,-1257.57,-1452.51,1000.61
20,-3.8707,0.3253,0.3833,1851.81,1250.61,344.42
30,-3.8707,0.3241,0.4180,1648.68,1063.11,828.86
40,-3.8707,0.3186,0.4589,1492.43,1500.61,-1202.33
50,-3.8706,0.2991,0.5029,789.31,-1265.01,969.60
60,-3.8706,0.2579,0.5360,-1710.69,375.55,1782.23
70,-3.8706,0.2040,0.5479,1023.68,609.86,32.29
80,-3.8707,0.1532,0.5405,-1882.57,-1874.63,376.04
90,-3.8708,0.1115,0.5269,-382.57,1187.74,860.41
100,-3.8710,0.0750,0.5233,-1726.32,-562.32,-1077.15
110,-3.8710,0.0455,0.5326,1601.81,-1015.50,-1311.52
120,-3.8710,0.0303,0.5424,1836.18,171.94,-1342.71
130,-3.8710,0.0347,0.5466,-116.94,1421.88,-1655.21
140,-3.8710,0.0488,0.5552,445.56,1968.81,-1389.59
150,-3.8710,0.0531,0.5746,-1741.94,-937.44,-545.84
160,-3.8710,0.0352,0.6013,-1195.07,1546.94,-670.78
170,-3.8710,-0.0035,0.6276,508.06,968.81,1423.03
180,-3.8711,-0.0541,0.6427,-445.07,343.69,-1061.28
190,-3.8711,-0.1085,0.6359,1086.18,-1718.87,1219.97
200,-3.8711,-0.1600,0.6062,-1882.57,1406.01,16.85
210,-3.8712,-0.1989,0.5613,-476.32,1609.01,-842.59
220,-3.8712,-0.2133,0.5159,-1445.07,-141.05,-405.21
230,-3.8711,-0.2014,0.4926,711.18,-1953.55,1641.60
240,-3.8710,-0.1770,0.4966,-1773.19,-937.93,63.42
250,-3.8710,-0.1508,0.5127,1351.81,-422.24,1657.17
260,-3.8710,-0.1284,0.5275,711.18,1640.32,-874.02
270,-3.8708,-0.1207,0.5302,-429.44,-469.06,907.23
280,-3.8708,-0.1298,0.5165,554.93,-125.24,-1561.52
290,-3.8708,-0.1511,0.4908,-601.32,-1875.31,-827.15
300,-3.8708,-0.1830,0.4624,664.31,-1156.56,-1420.96
310,-3.8708,-0.2213,0.4418,586.18,-797.24,500.85
320,-3.8710,-0.2599,0.4301,-320.07,562.01,1422.73
330,-3.8711,-0.2924,0.4194,-1257.57,-938.05,1922.67
340,-3.8712,-0.3165,0.4052,-1413.82,1702.51,-1389.83
350,-3.8712,-0.3353,0.3898,-507.57,-125.67,31.98
360,-3.8713,-0.3497,0.3749,1086.18,1905.58,-1608.64
370,-3.8713,-0.3596,0.3606,-757.57,-0.73,1719.42
380,-3.8713,-0.3713,0.3534,1976.81,-1828.86,1922.55
390,-3.8713,-0.4067,0.3551,476.81,1249.27,-1639.95
400,-3.8713,-0.4595,0.3567,-54.44,1467.90,-1686.83
410,-3.8713,-0.5039,0.3456,1195.56,1670.96,1781.92
420,-3.8713,-0.5479,0.3165,-491.94,248.96,750.67
430,-3.8715,-0.5854,0.2789,1883.06,530.15,-1296.26
440,-3.8716,-0.6167,0.2407,1070.56,-282.41,-280.76
450,-3.8716,-0.6490,0.2025,1070.56,-1173.10,656.68
460,-3.8717,-0.6790,0.1649,929.93,1936.22,-1655.88
470,-3.8717,-0.7053,0.1322,1101.81,1123.66,1469.06
480,-3.8717,-0.7173,0.1134,1726.81,936.10,-1890.38
490,-3.8716,-0.7119,0.1117,195.56,-1470.15,31.43
500,-3.8716,-0.6956,0.1178,883.06,-1688.90,-1202.94
510,-3.8715,-0.6873,0.1194,-1023.19,-907.65,1265.81
520,-3.8715,-0.6962,0.1141,39.31,-704.47,-827.94
530,-3.8713,-0.7183,0.1083,-1101.32,-1376.40,875.18
540,-3.8713,-0.7455,0.0991,70.56,1873.60,-1859.19
550,-3.8713,-0.7653,0.0742,586.18,701.66,-1468.57
560,-3.8713,-0.7694,0.0336,-1945.07,1514.10,-1484.25
570,-3.8713,-0.7559,-0.0085,1523.68,310.97,-968.69
580,-3.8713,-0.7341,-0.0336,-741.94,-1079.65,-171.94
590,-3.8712,-0.7096,-0.0292,-1960.69,-282.71,62.38
600,-3.8713,-0.6816,-0.0072,1179.93,279.85,-671.94
610,-3.8713,-0.6593,0.0107,758.06,-907.59,1656.19
620,-3.8715,-0.6552,0.0138,-382.57,1389.28,-515.62
630,-3.8715,-0.6697,0.0020,148.68,1779.97,1093.75
640,-3.8716,-0.6899,-0.0110,-1710.69,264.28,-968.75
650,-3.8716,-0.7092,-0.0127,-304.44,-1392.03,1796.81
660,-3.8716,-0.7280,-0.0067,1226.81,-1610.78,1015.56
670,-3.8716,-0.7456,-0.0007,-1179.44,-845.21,374.94
680,-3.8716,-0.7615,0.0059,570.56,-79.59,140.56
690,-3.8717,-0.7699,0.0107,-1460.69,764.10,-125.00
700,-3.8717,-0.7632,0.0040,1461.18,1389.10,-937.50
710,-3.8717,-0.7361,-0.0135,-1679.44,529.72,-1390.62
720,-3.8717,-0.6909,-0.0286,1789.31,-1720.21,-812.56
730,-3.8716,-0.6379,-0.0321,-429.44,357.97,187.44
740,-3.8716,-0.5817,-0.0226,-1648.19,-95.03,1390.50
750,-3.8716,-0.5287,-0.0042,1554.93,1123.84,-1125.06
760,-3.8715,-0.4885,0.0175,336.18,-516.66,515.56
770,-3.8715,-0.4658,0.0421,1476.81,-1750.98,-1828.12
780,-3.8715,-0.4623,0.0703,383.06,1405.33,-234.31
790,-3.8713,-0.4751,0.0961,836.18,1014.71,1172.00
800,-3.8713,-0.4946,0.1143,-804.44,311.52,-1562.32
810,-3.8713,-0.5128,0.1268,695.56,-1360.35,-484.19
820,-3.8712,-0.5220,0.1384,-1632.57,248.96,781.49
830,-3.8712,-0.5133,0.1519,1195.56,1733.34,-1531.01
840,-3.8712,-0.4847,0.1665,-1695.07,-547.91,-531.01
850,-3.8712,-0.4438,0.1794,1961.18,1327.15,-1374.69
860,-3.8713,-0.4043,0.1855,-804.44,-1016.54,-62.19
870,-3.8713,-0.3796,0.1842,258.06,-235.17,172.18
880,-3.8715,-0.3718,0.1823,-585.69,-407.04,1156.56
890,-3.8715,-0.3698,0.1903,414.31,-656.98,234.68
900,-3.8715,-0.3622,0.2140,679.93,374.27,984.74
910,-3.8715,-0.3445,0.2496,1648.68,-594.48,-1718.38
920,-3.8713,-0.3190,0.2889,-85.69,-31.98,47.30
930,-3.8713,-0.2935,0.3267,-820.07,999.33,-1390.08
940,-3.8712,-0.2762,0.3628,-1554.44,1827.51,1359.99
950,-3.8712,-0.2721,0.3976,648.68,-1547.42,-764.95
960,-3.8712,-0.2832,0.4253,1179.93,-1094.30,-749.27
970,-3.8712,-0.3090,0.4385,-241.94,-1547.49,1313.29
980,-3.8713,-0.3405,0.4387,461.18,140.01,-1796.02
990,-3.8715,-0.3612,0.4354,429.93,171.20,-483.52
1000,-3.8715,-0.3589,0.4376,1773.68,-250.73,-811.71
1010,-3.8713,-0.3311,0.4513,-1929.44,30.52,1594.60
1020,-3.8712,-0.2878,0.4784,1633.06,1780.58,1235.23
1030,-3.8711,-0.2484,0.5110,-835.69,1249.39,282.17
1040,-3.8711,-0.2253,0.5342,211.18,1421.39,-1874.02
1050,-3.8711,-0.2166,0.5414,-835.69,390.14,-1655.21
1060,-3.8711,-0.2119,0.5325,289.31,1312.07,594.79
1070,-3.8712,-0.2000,0.5050,883.06,171.45,1641.66
1080,-3.8713,-0.1781,0.4694,-1585.69,655.82,-77.15
1090,-3.8712,-0.1560,0.4479,1211.18,93.38,1329.04
1100,-3.8711,-0.1396,0.4536,39.31,1343.44,532.10
1110,-3.8711,-0.1292,0.4828,-1866.94,-1922.18,-499.15
1120,-3.8710,-0.1229,0.5177,-523.19,1812.19,1485.29
1130,-3.8710,-0.1189,0.5370,273.68,-1718.99,-1920.90
1140,-3.8710,-0.1211,0.5332,789.31,749.76,1172.91
1150,-3.8711,-0.1333,0.5090,508.06,265.38,-1030.21
1160,-3.8711,-0.1473,0.4717,-1054.44,1171.57,375.98
1170,-3.8712,-0.1508,0.4330,1148.68,390.32,-733.46
1180,-3.8712,-0.1407,0.4086,711.18,-562.81,-124.21
1190,-3.8711,-0.1229,0.4082,1992.43,312.19,1000.79
1200,-3.8711,-0.1027,0.4269,273.68,265.38,1641.42
1210,-3.8711,-0.0894,0.4484,-1132.57,-1343.99,1516.42
1220,-3.8711,-0.0851,0.4554,570.56,1406.07,1110.23
1230,-3.8711,-0.0792,0.4442,1117.43,-1687.68,1047.73
1240,-3.8711,-0.0638,0.4255,1867.43,874.82,-1764.77
1250,-3.8710,-0.0394,0.4136,-163.82,-1515.81,1188.29
1260,-3.8708,-0.0117,0.4174,-1038.82,953.00,828.92
1270,-3.8708,0.0110,0.4342,-1491.94,1437.44,-780.46
1280,-3.8708,0.0216,0.4507,1414.31,-421.88,-264.83
1290,-3.8708,0.0164,0.4510,-1226.32,1687.50,-1296.02
1300,-3.8708,0.0009,0.4296,-1898.19,1734.38,735.23
1310,-3.8710,-0.0114,0.3944,117.43,-1015.62,-1327.33
1320,-3.8710,-0.0099,0.3588,-1445.07,-1500.06,1094.48
1330,-3.8710,0.0079,0.3333,-1257.57,1937.44,141.30
1340,-3.8711,0.0385,0.3212,1023.68,-1343.75,-530.64
1350,-3.8711,0.0752,0.3156,929.93,1109.44,-1233.76
1360,-3.8711,0.1132,0.3075,1633.06,390.75,-1327.51
1370,-3.8711,0.1489,0.2986,-1507.57,-640.44,-61.95
1380,-3.8710,0.1768,0.2943,-929.44,-1781.01,1844.30
1390,-3.8710,0.1929,0.2932,-1366.94,1672.18,-827.58
1400,-3.8710,0.2028,0.2892,695.56,1531.62,-452.58
1410,-3.8710,0.2126,0.2770,1961.18,1015.99,-983.83
1420,-3.8710,0.2233,0.2509,-773.19,-546.51,-1999.51
1430,-3.8710,0.2368,0.2129,586.18,109.80,1297.36
1440,-3.8710,0.2581,0.1774,-1679.44,-749.57,1484.74
1450,-3.8710,0.2893,0.1534,1039.31,-1296.39,-1702.82
1460,-3.8710,0.3306,0.1383,1039.31,-358.83,-968.51
1470,-3.8710,0.3792,0.1281,-1679.44,1703.74,-374.76
1480,-3.8708,0.4275,0.1217,539.31,391.36,343.99
1490,-3.8708,0.4670,0.1179,-1273.19,-421.08,1000.18
1500,-3.8708,0.4940,0.1189,-210.69,-905.40,1359.56
1510,-3.8708,0.5085,0.1233,-757.57,-780.33,1562.68
1520,-3.8708,0.5065,0.1199,1101.81,-217.77,1484.56
1530,-3.8708,0.4958,0.1012,836.18,-655.27,843.93
1540,-3.8710,0.5000,0.0775,-523.19,954.04,-77.94
1550,-3.8710,0.5035,0.0651,8.06,1922.85,-249.88
1560,-3.8708,0.4805,0.0787,461.18,329.10,547.00
1570,-3.8708,0.4374,0.1133,1508.06,-1920.96,1062.62
1580,-3.8708,0.4026,0.1449,-7.57,-1499.21,1265.81
1590,-3.8708,0.3895,0.1653,-460.69,-1452.39,-1952.88
1600,-3.8708,0.3776,0.1844,1867.43,1156.98,-640.32
1610,-3.8707,0.3561,0.2098,336.18,-389.89,219.06
1620,-3.8707,0.3304,0.2439,1586.18,-1139.95,1187.87
1630,-3.8707,0.2968,0.2854,-1695.07,-780.64,-608.95
1640,-3.8706,0.2585,0.3229,1992.43,531.80,1000.55
1650,-3.8706,0.2305,0.3391,1101.81,1328.61,109.99
1660,-3.8707,0.2103,0.3325,1508.06,-593.32,-1749.39
1670,-3.8707,0.1949,0.3300,-1070.07,-1437.13,1813.11
1680,-3.8707,0.1791,0.3479,961.18,-1765.26,-1108.76
1690,-3.8707,0.1555,0.3693,-1070.07,531.56,-249.33
1700,-3.8707,0.1354,0.3687,-85.69,-734.13,-1202.45
1710,-3.8707,0.1292,0.3427,1336.18,-812.26,500.67
1720,-3.8708,0.1350,0.3138,539.31,-140.38,-1843.14
1730,-3.8708,0.1484,0.3043,1289.31,172.12,0.61
1740,-3.8710,0.1622,0.3154,-991.94,-1046.63,1656.80
1750,-3.8711,0.1735,0.3385,773.68,375.31,-702.51
1760,-3.8711,0.1815,0.3645,-1788.82,-671.57,1281.86
1770,-3.8711,0.1823,0.3914,-757.57,-1343.44,610.05
1780,-3.8711,0.1687,0.4230,-663.82,-1905.94,1688.23
1790,-3.8711,0.1392,0.4598,1601.81,-1859.07,-483.58
1800,-3.8710,0.1024,0.4976,1820.56,-1140.38,1407.10
1810,-3.8710,0.0669,0.5267,1117.43,-312.32,-1217.83
1820,-3.8710,0.0405,0.5361,570.56,-578.00,-1483.40
1830,-3.8710,0.0264,0.5249,1195.56,625.06,594.79
1840,-3.8711,0.0219,0.5026,-616.94,-812.50,-1780.27
1850,-3.8711,0.0242,0.4833,-1195.07,328.12,563.48
1860,-3.8712,0.0289,0.4822,-898.19,1859.38,-45.96
1870,-3.8712,0.0272,0.5037,-288.82,1718.75,-186.58
1880,-3.8712,0.0096,0.5353,-507.57,468.75,-780.27
1890,-3.8712,-0.0223,0.5598,1242.43,515.62,1969.79
1900,-3.8712,-0.0623,0.5668,1148.68,-328.19,376.04
1910,-3.8713,-0.1051,0.5599,39.31,562.38,-733.28
1920,-3.8712,-0.1438,0.5530,-1445.07,-312.74,282.29
1930,-3.8712,-0.1713,0.5520,1601.81,-1203.43,-733.34
1940,-3.8711,-0.1821,0.5510,-1913.82,-1328.49,-1827.09
1950,-3.8711,-0.1752,0.5477,695.56,-1453.49,-592.71
1960,-3.8711,-0.1622,0.5486,1586.18,-1875.37,-967.71
1970,-3.8711,-0.1597,0.5546,-757.57,-1765.99,1829.16
1980,-3.8711,-0.1694,0.5562,-429.44,-1000.37,485.41
1990,-3.8712,-0.1794,0.5452,-1679.44,-797.24,-92.71
2000,-3.8711,-0.1812,0.5233,1039.31,1796.51,485.41
2010,-3.8711,-0.1781,0.4998,820.56,-1000.37,1813.48
2020,-3.8711,-0.1763,0.4835,1211.18,-15.99,-702.21
2030,-3.8710,-0.1802,0.4796,1445.56,1905.88,579.04
2040,-3.8710,-0.1910,0.4884,945.56,1405.88,1454.04
2050,-3.8710,-0.2059,0.5013,-445.07,-1469.18,1704.04
2060,-3.8710,-0.2211,0.5018,1648.68,187.07,1110.35
2070,-3.8710,-0.2305,0.4840,-288.82,249.51,125.98
2080,-3.8711,-0.2307,0.4603,-1491.94,1968.26,-452.21
2090,-3.8711,-0.2284,0.4448,-1523.19,-1062.99,-280.40
2100,-3.8711,-0.2327,0.4359,-1226.32,952.64,-186.65
2110,-3.8711,-0.2437,0.4260,-1773.19,-187.99,-842.96
2120,-3.8711,-0.2588,0.4124,820.56,-1453.61,-1733.58
2130,-3.8711,-0.2811,0.3972,-1116.94,796.33,-1952.33
2140,-3.8711,-0.3103,0.3842,23.68,-1141.17,-1139.89
2150,-3.8710,-0.3379,0.3719,289.31,1186.89,156.98
2160,-3.8710,-0.3505,0.3549,758.06,-375.67,1219.42
2170,-3.8710,-0.3407,0.3322,-851.32,1436.77,1641.30
2180,-3.8710,-0.3311,0.3080,398.68,-1469.42,891.24
2190,-3.8711,-0.3472,0.2860,1633.06,-563.17,-733.83
2200,-3.8711,-0.3754,0.2677,-429.44,624.27,1094.30
2210,-3.8712,-0.4043,0.2494,-38.82,-1719.54,-1843.26
2220,-3.8713,-0.4437,0.2252,258.06,-63.29,-983.95
2230,-3.8713,-0.4788,0.1985,-788.82,842.83,547.30
2240,-3.8715,-0.5037,0.1770,-1273.19,1420.90,-171.51
2250,-3.8713,-0.5262,0.1691,-460.69,-1329.16,765.93
2260,-3.8713,-0.5476,0.1713,648.68,1655.21,1734.68
2270,-3.8713,-0.5681,0.1689,1914.31,1936.40,-1796.57
2280,-3.8713,-0.5812,0.1548,-710.69,1639.47,-1296.57
2290,-3.8713,-0.5892,0.1311,1617.43,-173.03,-62.26
2300,-3.8712,-0.5927,0.1075,586.18,795.72,1812.74
2310,-3.8712,-0.5962,0.0916,148.68,1780.09,-640.44
2320,-3.8712,-0.6030,0.0837,-304.44,-266.85,-468.63
2330,-3.8712,-0.6151,0.0793,-1179.44,-1266.85,1906.37
2340,-3.8713,-0.6356,0.0717,1273.68,-1829.35,-1062.38
2350,-3.8715,-0.6605,0.0553,-1351.32,1186.22,-499.88
2360,-3.8715,-0.6874,0.0299,-538.82,-907.59,718.81
2370,-3.8716,-0.7080,0.0017,23.68,-157.59,-812.50
2380,-3.8716,-0.7161,-0.0221,1383.06,232.97,-1562.50
2390,-3.8716,-0.7140,-0.0400,351.81,1186.10,1921.81
2400,-3.8716,-0.7051,-0.0521,617.43,-1110.78,1515.50
2410,-3.8716,-0.6888,-0.0549,1758.06,1342.35,1859.25
2420,-3.8716,-0.6624,-0.0455,-163.82,982.97,-422.00
2430,-3.8715,-0.6316,-0.0259,-773.19,-1813.84,-1640.75
2440,-3.8713,-0.6025,-0.0042,-835.69,701.84,1390.56
2450,-3.8713,-0.5809,0.0070,-1116.94,-516.85,-437.56
2460,-3.8712,-0.5706,-0.0011,1648.68,905.09,140.62
2470,-3.8713,-0.5665,-0.0204,-1023.19,-126.16,-406.31
2480,-3.8713,-0.5623,-0.0316,-507.57,1405.09,-1546.94
2490,-3.8713,-0.5540,-0.0242,39.31,-32.35,1203.00
2500,-3.8713,-0.5422,-0.0045,1101.81,920.78,374.94
2510,-3.8713,-0.5311,0.0177,-1398.19,-563.60,468.69
2520,-3.8713,-0.5237,0.0410,23.68,-1719.79,1703.12
2530,-3.8713,-0.5210,0.0627,976.81,1264.59,-562.44
2540,-3.8712,-0.5176,0.0779,1320.56,45.84,781.37
2550,-3.8712,-0.5109,0.0891,1758.06,1983.34,1468.87
2560,-3.8712,-0.5063,0.1041,-1382.57,-579.16,1750.12
2570,-3.8712,-0.5082,0.1261,-804.44,1342.71,1968.93
2580,-3.8712,-0.5123,0.1501,-1038.82,155.21,-1843.51
2590,-3.8712,-0.5132,0.1667,-1570.07,-766.66,-1921.63
2600,-3.8712,-0.5098,0.1720,-1679.44,1358.34,1750.31
2610,-3.8712,-0.5016,0.1753,-1241.94,-1969.79,1562.81
2620,-3.8712,-0.4857,0.1879,-195.07,-1547.91,1734.68
2630,-3.8712,-0.4603,0.2072,1836.18,61.52,-1796.51
2640,-3.8712,-0.4276,0.2257,1086.18,-1469.67,-1155.88
2650,-3.8712,-0.3920,0.2437,1273.68,905.40,-140.20
2660,-3.8711,-0.3577,0.2671,1836.18,-797.67,1344.18
2670,-3.8711,-0.3304,0.2983,-1773.19,-1797.61,-890.14
2680,-3.8710,-0.3094,0.3298,1711.18,-1797.55,906.80
2690,-3.8710,-0.2872,0.3531,398.68,-1766.24,-1780.64
2700,-3.8710,-0.2617,0.3687,-757.57,1218.14,-1249.33
2710,-3.8710,-0.2449,0.3811,-1491.94,-797.42,-1530.58
2720,-3.8710,-0.2487,0.3903,664.31,796.39,1188.23
2730,-3.8711,-0.2704,0.3896,179.93,1968.26,-874.27
2740,-3.8711,-0.2943,0.3799,1398.68,1890.08,1219.48
2750,-3.8711,-0.3040,0.3754,-1663.82,640.01,703.86
2760,-3.8711,-0.2932,0.3915,1101.81,61.89,-1639.89
2770,-3.8710,-0.2668,0.4283,-1523.19,-1875.61,1047.61
2780,-3.8710,-0.2351,0.4744,1851.81,-1156.80,-639.83
2790,-3.8708,-0.2085,0.5177,1914.31,733.89,844.67
2800,-3.8708,-0.1932,0.5476,1320.56,-1719.18,1266.60
2810,-3.8708,-0.1898,0.5565,-726.32,-1891.05,938.54
2820,-3.8708,-0.1881,0.5505,-288.82,-750.43,751.04
2830,-3.8708,-0.1766,0.5471,-70.07,-1516.05,1422.91
2840,-3.8708,-0.1564,0.5566,1398.68,-1953.49,-1827.09
2850,-3.8708,-0.1351,0.5735,-7.57,-734.74,-1889.59
2860,-3.8708,-0.1149,0.5901,-1288.82,1421.57,1704.22
2870,-3.8708,-0.0944,0.6035,1304.93,-453.37,1532.35
2880,-3.8708,-0.0725,0.6113,-70.07,1265.38,-1920.72
2890,-3.8708,-0.0472,0.6167,-1273.19,-1734.56,-30.09
2900,-3.8707,-0.0172,0.6226,1961.18,-1047.00,-1670.72
2910,-3.8707,0.0148,0.6212,1804.93,-296.94,-1123.84
2920,-3.8707,0.0403,0.6052,1898.68,-484.38,704.28
2930,-3.8708,0.0497,0.5768,1164.31,1468.81,985.53
2940,-3.8710,0.0454,0.5438,-1632.57,1828.19,829.22
2950,-3.8711,0.0433,0.5122,1820.56,1609.44,954.16
2960,-3.8712,0.0547,0.4836,1554.93,1562.56,-1420.90
2970,-3.8712,0.0819,0.4640,-991.94,1906.31,-1483.46
2980,-3.8712,0.1219,0.4575,-1507.57,-609.25,-92.90
2990,-3.8711,0.1676,0.4606,-382.57,-1437.32,1141.48
3000,-3.8711,0.2134,0.4634,1461.18,-1046.57,1813.35
3010,-3.8711,0.2528,0.4583,-679.44,-687.13,-1499.15
3020,-3.8711,0.2786,0.4449,367.43,-1343.26,-233.52
3030,-3.8710,0.2894,0.4243,-335.69,953.61,1219.60
3040,-3.8710,0.2946,0.3965,1054.93,-1686.95,-1780.46
3050,-3.8710,0.3077,0.3601,1711.18,-1249.45,-1014.89
3060,-3.8710,0.3342,0.3219,-601.32,-1905.70,-46.20
3070,-3.8708,0.3695,0.2928,-1210.69,1203.74,1063.11
3080,-3.8708,0.4052,0.2750,-695.07,1485.05,1531.80
3090,-3.8708,0.4343,0.2615,-132.57,-796.14,859.86
3100,-3.8710,0.4547,0.2445,-398.19,1469.54,-812.01
3110,-3.8710,0.4581,0.2224,-1788.82,-702.27,1375.43
3120,-3.8711,0.4614,0.2001,-1351.32,469.60,-171.45
3130,-3.8711,0.4746,0.1783,-929.44,1610.23,-1640.26
3140,-3.8711,0.4781,0.1569,758.06,-1170.96,1640.93
3150,-3.8711,0.4698,0.1403,1211.18,79.04,1390.93
3160,-3.8711,0.4674,0.1276,148.68,1954.04,656.49
3170,-3.8712,0.4747,0.1147,-163.82,328.98,-359.13
3180,-3.8712,0.4750,0.1041,773.68,-1311.58,-1656.07
3190,-3.8712,0.4797,0.0967,804.93,1329.04,531.43
3200,-3.8713,0.4886,0.0876,1414.31,375.92,-999.82
3210,-3.8713,0.4945,0.0807,-1445.07,-780.33,-1718.63
3220,-3.8713,0.5035,0.0780,-695.07,-1670.96,1500.12
3230,-3.8713,0.5131,0.0754,461.18,1985.35,500.12
3240,-3.8715,0.5140,0.0787,1679.93,1657.23,-109.25
3250,-3.8715,0.5016,0.0912,1804.93,-1920.90,-249.88
3260,-3.8715,0.4769,0.1056,211.18,-327.15,-296.75
3270,-3.8713,0.4432,0.1221,1054.93,1516.54,93.93
3280,-3.8713,0.4014,0.1475,742.43,-374.15,1672.06
3290,-3.8712,0.3546,0.1796,-616.94,-1124.27,468.99
3300,-3.8712,0.3091,0.2094,1398.68,-1014.95,-140.32
3310,-3.8711,0.2687,0.2363,-429.44,-1202.58,-15.26
3320,-3.8708,0.2347,0.2659,-1601.32,-1749.51,703.55
3330,-3.8707,0.2068,0.2910,-1945.07,-1968.32,625.49
3340,-3.8707,0.1903,0.3000,-1523.19,1250.37,-827.58
3350,-3.8706,0.1884,0.2944,367.43,-1593.38,813.05
3360,-3.8706,0.1970,0.2865,117.43,1687.87,-1999.45
3370,-3.8706,0.2102,0.2856,1226.81,672.24,-1030.70
3380,-3.8706,0.2238,0.2957,-1085.69,562.87,-30.70
3390,-3.8705,0.2328,0.3182,648.68,1844.18,1359.92
3400,-3.8705,0.2336,0.3510,1804.93,734.80,-1140.01
3410,-3.8705,0.2258,0.3827,1914.31,922.30,-358.70
3420,-3.8705,0.2112,0.4003,914.31,984.80,-811.77
3430,-3.8705,0.1934,0.4022,-960.69,-765.26,1641.36
3440,-3.8706,0.1749,0.3982,758.06,-515.26,-311.77
3450,-3.8706,0.1523,0.3988,-1601.32,-1030.94,-1921.14
3460,-3.8706,0.1223,0.4055,-491.94,-952.88,938.23
3470,-3.8706,0.0908,0.4143,-335.69,-93.57,125.73
3480,-3.8707,0.0636,0.4266,-366.94,1031.37,-14.83
3490,-3.8706,0.0410,0.4492,148.68,-1390.50,766.42
3500,-3.8706,0.0205,0.4799,1258.06,1500.06,1875.85
3510,-3.8706,-0.0018,0.5087,-1366.94,1421.88,-1327.21
3520,-3.8706,-0.0292,0.5295,-226.32,1124.94,-795.90
3530,-3.8706,-0.0635,0.5406,273.68,-203.19,-655.27
3540,-3.8706,-0.1027,0.5437,-116.94,1218.57,-1092.71
3550,-3.8706,-0.1390,0.5392,-1132.57,1609.13,-1889.59
3560,-3.8706,-0.1617,0.5275,-1788.82,1030.94,1344.79
3570,-3.8706,-0.1669,0.5155,-695.07,-469.12,860.35
3580,-3.8706,-0.1613,0.5115,-1351.32,1999.63,344.73
3590,-3.8707,-0.1553,0.5193,-632.57,1484.01,-639.65
3600,-3.8707,-0.1577,0.5321,133.06,-1515.93,1610.35
3610,-3.8708,-0.1735,0.5361,-179.44,124.63,-873.96
3620,-3.8708,-0.1991,0.5261,1804.93,640.26,657.29
3630,-3.8710,-0.2280,0.5046,-1476.32,-641.05,-967.77
3640,-3.8710,-0.2559,0.4795,-1179.44,608.89,1922.85
3650,-3.8710,-0.2765,0.4581,-741.94,1390.08,375.92
3660,-3.8711,-0.2866,0.4412,617.43,-1344.30,-1655.40
3670,-3.8711,-0.2892,0.4275,-679.44,483.76,469.60
3680,-3.8712,-0.2926,0.4167,-1007.57,-1266.24,-780.46
3690,-3.8712,-0.3026,0.4034,-1445.07,1358.76,-1655.46
3700,-3.8712,-0.3147,0.3795,1273.68,-344.36,1297.61
3710,-3.8712,-0.3177,0.3468,-273.19,593.08,94.48
3720,-3.8713,-0.3138,0.3114,-663.82,405.58,-827.45
3730,-3.8713,-0.3182,0.2778,-163.82,-125.67,-1155.70
3740,-3.8713,-0.3210,0.2557,-726.32,-422.55,-890.14
3750,-3.8713,-0.3094,0.2495,-1085.69,749.33,-577.64
3760,-3.8713,-0.3083,0.2476,398.68,-47.49,-999.57
3770,-3.8713,-0.3247,0.2319,539.31,-297.49,1359.80
3780,-3.8715,-0.3423,0.1949,-1554.44,1702.45,-452.70
3790,-3.8715,-0.3564,0.1486,195.56,968.08,-827.76
3800,-3.8715,-0.3630,0.1093,-1616.94,-969.48,-562.26
3810,-3.8715,-0.3621,0.0792,1539.31,1999.27,-827.94
3820,-3.8715,-0.3599,0.0525,1664.31,-1844.48,-1265.50
3830,-3.8715,-0.3623,0.0286,1945.56,-1266.36,-1468.69
3840,-3.8715,-0.3739,0.0093,1633.06,-328.86,-1812.50
3850,-3.8715,-0.3904,-0.0079,148.68,1202.39,1312.50
3860,-3.8716,-0.4067,-0.0233,-1960.69,-1000.79,-93.81
3870,-3.8716,-0.4249,-0.0322,-54.44,1030.40,-1703.19
3880,-3.8716,-0.4493,-0.0322,1617.43,-110.23,890.50
3890,-3.8717,-0.4850,-0.0298,-1507.57,-110.29,-672.00
3900,-3.8717,-0.5295,-0.0377,1929.93,202.15,1515.56
3910,-3.8717,-0.5762,-0.0623,226.81,-813.54,62.38
3920,-3.8718,-0.6162,-0.0944,-1741.94,45.72,-47.00
3930,-3.8717,-0.6405,-0.1182,1133.06,-63.72,1499.76
3940,-3.8716,-0.6444,-0.1223,-1976.32,889.34,359.13
3950,-3.8716,-0.6338,-0.0999,1523.68,358.09,-218.99
3960,-3.8715,-0.6210,-0.0590,-1116.94,-766.91,-1422.12
3970,-3.8713,-0.6116,-0.0250,523.68,467.53,46.75
3980,-3.8713,-0.6079,-0.0109,1726.81,811.28,1031.19
3990,-3.8713,-0.6122,-0.0116,-1804.44,-1376.22,-1843.81
4000,-3.8713,-0.6240,-0.0242,1648.68,-1469.97,-1359.44
4010,-3.8713,-0.6405,-0.0436,133.06,920.65,-1937.56
4020,-3.8713,-0.6548,-0.0583,-1976.32,-1563.78,828.00
4030,-3.8715,-0.6654,-0.0638,195.56,545.59,-843.87
4040,-3.8715,-0.6754,-0.0629,-1163.82,-157.59,1062.32
4050,-3.8716,-0.6852,-0.0613,1554.93,-32.59,-1187.68
4060,-3.8716,-0.6935,-0.0641,304.93,170.53,484.25
4070,-3.8717,-0.6971,-0.0737,-757.57,-188.90,-1937.68
4080,-3.8718,-0.6946,-0.0864,-1226.32,-1423.28,-156.43
4090,-3.8718,-0.6862,-0.0938,-898.19,951.72,-1515.81
4100,-3.8718,-0.6710,-0.0924,179.93,14.28,-1422.06
4110,-3.8717,-0.6494,-0.0791,-1882.57,186.16,187.32
4120,-3.8717,-0.6245,-0.0554,883.06,1889.34,-1468.93
4130,-3.8716,-0.5992,-0.0295,70.56,920.65,859.25
4140,-3.8716,-0.5820,-0.0066,-695.07,233.15,-1296.94
4150,-3.8716,-0.5833,0.0089,1508.06,-829.28,-390.69
4160,-3.8716,-0.6000,0.0181,1351.81,1155.09,-390.62
4170,-3.8716,-0.6194,0.0266,-788.82,-1673.10,-578.12
4180,-3.8716,-0.6299,0.0374,726.81,-579.35,-406.25
4190,-3.8715,-0.6240,0.0549,-616.94,795.59,453.19
4200,-3.8715,-0.6040,0.0826,133.06,-954.35,1843.81
4210,-3.8715,-0.5782,0.1174,-1304.44,-1407.47,-640.50
4220,-3.8713,-0.5555,0.1543,1992.43,-954.28,812.68
4230,-3.8713,-0.5406,0.1870,898.68,-235.47,-1984.13
4240,-3.8713,-0.5302,0.2098,-1195.07,-47.97,-1280.94
4250,-3.8713,-0.5217,0.2212,148.68,-1126.04,-749.63
4260,-3.8712,-0.5182,0.2263,1226.81,327.09,94.18
4270,-3.8712,-0.5168,0.2350,1679.93,983.34,1125.43
4280,-3.8712,-0.5105,0.2518,1851.81,-1907.29,-1874.57
4290,-3.8712,-0.4998,0.2766,-1335.69,248.96,-780.76
4300,-3.8711,-0.4890,0.3048,39.31,-579.10,547.36
4310,-3.8711,-0.4740,0.3317,1414.31,-969.73,1906.80
4320,-3.8711,-0.4531,0.3541,-663.82,-1532.23,-1327.51
4330,-3.8711,-0.4354,0.3694,-1991.94,1342.83,-1046.20
4340,-3.8711,-0.4249,0.3789,273.68,-703.98,-389.95
4350,-3.8710,-0.4152,0.3889,1617.43,514.77,469.48
4360,-3.8710,-0.4004,0.4041,-1132.57,1796.02,1406.98
4370,-3.8710,-0.3829,0.4265,758.06,-266.42,-1296.14
4380,-3.8708,-0.3707,0.4567,-1007.57,-1391.42,32.04
4390,-3.8708,-0.3672,0.4863,554.93,-1531.98,1110.23
4400,-3.8708,-0.3688,0.5022,1008.06,-1735.11,1375.92
4410,-3.8708,-0.3636,0.4980,804.93,296.14,860.35
4420,-3.8708,-0.3433,0.4857,1461.18,-235.11,829.04
4430,-3.8708,-0.3160,0.4819,70.56,-1813.17,1500.92
4440,-3.8708,-0.2947,0.4932,-445.07,1702.45,1891.54
4450,-3.8708,-0.2838,0.5177,-1710.69,-859.99,1594.67
4460,-3.8708,-0.2863,0.5458,-320.07,-1719.36,610.35
4470,-3.8710,-0.3053,0.5682,-632.57,1874.39,-1092.71
4480,-3.8710,-0.3361,0.5808,929.93,749.39,376.10
4490,-3.8711,-0.3685,0.5820,992.43,-1641.30,1782.35
4500,-3.8711,-0.3920,0.5803,836.18,-1485.11,876.10
4510,-3.8711,-0.3914,0.5863,1836.18,-1703.92,-1655.15
4520,-3.8710,-0.3578,0.6008,1914.31,-938.29,1141.72
4530,-3.8710,-0.3005,0.6217,-1788.82,921.14,-170.72
4540,-3.8708,-0.2446,0.6495,1539.31,-406.86,1798.03
4550,-3.8708,-0.2043,0.6793,695.56,-844.24,-764.40
4560,-3.8708,-0.1776,0.7013,1851.81,-1031.68,-467.47
4570,-3.8708,-0.1644,0.7081,1273.68,1780.88,-1858.03
4580,-3.8710,-0.1633,0.6918,-1038.82,-1344.12,-608.03
4590,-3.8710,-0.1637,0.6521,-898.19,562.13,95.09
4600,-3.8711,-0.1517,0.6072,-945.07,-515.99,-1967.53
4610,-3.8711,-0.1240,0.5796,586.18,1734.07,-1795.72
4620,-3.8711,-0.0868,0.5760,133.06,-1797.12,-295.78
4630,-3.8710,-0.0444,0.5870,898.68,1749.82,1532.35
4640,-3.8710,0.0031,0.6000,-1679.44,-843.87,-842.65
4650,-3.8710,0.0541,0.6003,398.68,796.88,-186.34
4660,-3.8710,0.1077,0.5765,-1070.07,843.81,-858.22
4670,-3.8710,0.1619,0.5304,1789.31,1797.06,1391.72
4680,-3.8711,0.2083,0.4731,726.81,-109.07,-999.02
4690,-3.8711,0.2416,0.4167,-1335.69,562.87,688.42
4700,-3.8712,0.2671,0.3682,-1070.07,1344.18,-874.21
4710,-3.8712,0.2931,0.3260,-1804.44,-874.51,-1608.70
4720,-3.8712,0.3251,0.2876,1523.68,1734.92,-1374.39
4730,-3.8711,0.3616,0.2551,1617.43,813.11,109.92
4740,-3.8711,0.3950,0.2334,-1710.69,656.92,-1358.89
4750,-3.8710,0.4194,0.2224,-1429.44,1875.73,1672.30
4760,-3.8708,0.4352,0.2120,1695.56,469.54,422.30
4770,-3.8708,0.4396,0.1932,-288.82,-858.58,-1812.13
4780,-3.8708,0.4385,0.1636,273.68,735.23,-1187.13
4790,-3.8708,0.4530,0.1205,133.06,938.35,-1296.57
4800,-3.8708,0.4751,0.0710,1992.43,-577.27,-1265.44
4810,-3.8708,0.4879,0.0345,820.56,1094.67,-1218.63
4820,-3.8708,0.5016,0.0168,-1538.82,422.79,1734.44
4830,-3.8708,0.5319,0.0044,211.18,-1842.77,593.75
4840,-3.8708,0.5580,-0.0117,86.18,563.54,156.25
4850,-3.8710,0.5669,-0.0256,-570.07,-1498.96,-921.94
4860,-3.8710,0.5732,-0.0353,570.56,719.85,546.81
4870,-3.8711,0.5779,-0.0453,1383.06,-514.53,1828.00
4880,-3.8711,0.5814,-0.0520,1976.81,-1795.78,78.00
4890,-3.8712,0.5790,-0.0525,-1570.07,1344.85,-797.00
4900,-3.8712,0.5673,-0.0433,-1882.57,1282.35,-1203.25
4910,-3.8712,0.5480,-0.0170,617.43,-1545.78,-1031.37
4920,-3.8711,0.5175,0.0321,-1851.32,1829.16,421.81
4930,-3.8711,0.4725,0.0999,-1757.57,110.35,-531.19
4940,-3.8708,0.4138,0.1774,492.43,782.17,156.43
4950,-3.8707,0.3464,0.2568,976.81,-1296.08,1750.31
4960,-3.8706,0.2769,0.3292,351.81,875.67,-452.64
4970,-3.8704,0.2144,0.3839,-554.44,-1858.89,688.11
4980,-3.8704,0.1678,0.4152,-554.44,1140.99,-61.77
4990,-3.8702,0.1349,0.4308,1492.43,1140.93,1250.79
5000,-3.8702,0.1176,0.4429,1273.68,-859.13,-1952.33
5010,-3.8702,0.1221,0.4530,-945.07,687.68,-1780.40
5020,-3.8702,0.1449,0.4543,-366.94,1984.56,797.73
5030,-3.8704,0.1737,0.4464,-1445.07,-1843.51,-1296.02
5040,-3.8704,0.1937,0.4379,-1757.57,1140.93,891.48
5050,-3.8705,0.1952,0.4364,804.93,47.24,-1030.40
5060,-3.8705,0.1763,0.4445,992.43,-140.26,672.67
5070,-3.8706,0.1444,0.4620,-1429.44,890.93,-1702.27
5080,-3.8707,0.1097,0.4811,-1507.57,-859.13,-202.27
5090,-3.8707,0.0813,0.4917,-1945.07,1578.31,1875.92
5100,-3.8707,0.0641,0.4960,-1585.69,-1062.38,1954.04
5110,-3.8707,0.0558,0.5054,211.18,-515.50,-936.58
5120,-3.8707,0.0504,0.5254,-851.32,687.56,-155.27
5130,-3.8706,0.0465,0.5496,-1538.82,-749.94,813.48
5140,-3.8706,0.0433,0.5724,1961.18,-1656.19,-1686.46
5150,-3.8706,0.0339,0.5938,1554.93,1265.69,-373.90
5160,-3.8706,0.0122,0.6117,351.81,0.06,-45.72
5170,-3.8706,-0.0161,0.6233,1570.56,-1703.12,-561.34
5180,-3.8706,-0.0439,0.6249,1945.56,-203.19,1938.66
5190,-3.8707,-0.0654,0.6139,-1616.94,-0.12,-483.22
5200,-3.8707,-0.0764,0.5984,-366.94,-1406.43,-1858.22
5210,-3.8707,-0.0787,0.5917,-1773.19,609.19,-889.47
5220,-3.8706,-0.0767,0.6002,1929.93,-250.18,360.47
5230,-3.8707,-0.0740,0.6166,-1804.44,843.57,-795.72
5240,-3.8707,-0.0736,0.6232,-1460.69,-1062.68,298.03
5250,-3.8708,-0.0767,0.6127,-1413.82,-218.93,1923.03
5260,-3.8708,-0.0853,0.5963,-1804.44,-1562.68,548.03
5270,-3.8710,-0.1049,0.5845,1086.18,343.57,-1045.72
5280,-3.8710,-0.1301,0.5691,-1413.82,-1172.12,376.10
5290,-3.8711,-0.1497,0.5446,-648.19,859.07,1422.97
5300,-3.8712,-0.1587,0.5183,851.81,1718.44,-1202.09
5310,-3.8712,-0.1570,0.5001,-304.44,-1640.99,1719.73
5320,-3.8712,-0.1501,0.5015,-85.69,30.88,-1139.65
5330,-3.8711,-0.1442,0.5232,789.31,202.82,985.35
5340,-3.8711,-0.1409,0.5458,1554.93,-1015.93,-1686.52
5350,-3.8711,-0.1439,0.5486,1976.81,1874.69,-1639.59
5360,-3.8711,-0.1582,0.5275,1586.18,-1765.93,1876.04
5370,-3.8711,-0.1840,0.4885,-241.94,-469.12,1063.48
5380,-3.8712,-0.2124,0.4414,461.18,-1453.49,-1108.46
5390,-3.8713,-0.2317,0.3934,820.56,515.20,-1030.40
5400,-3.8715,-0.2417,0.3479,-1648.19,-1625.49,-1608.64
5410,-3.8716,-0.2502,0.3104,1070.56,546.39,-1968.08
5420,-3.8717,-0.2534,0.2787,-23.19,-250.55,-1405.70
5430,-3.8717,-0.2456,0.2502,-429.44,-313.05,984.86
5440,-3.8717,-0.2354,0.2351,570.56,46.39,1016.11
5450,-3.8717,-0.2313,0.2385,1883.06,-1891.11,-1718.32
5460,-3.8717,-0.2350,0.2518,-1601.32,-1453.61,-93.32
5470,-3.8716,-0.2452,0.2632,1929.93,249.51,1125.49
5480,-3.8716,-0.2642,0.2725,617.43,1702.64,-1312.01
5490,-3.8715,-0.2952,0.2894,-1804.44,-1109.92,1219.24
5500,-3.8713,-0.3445,0.3082,-1773.19,1061.89,141.17
5510,-3.8713,-0.3969,0.3153,-85.69,-531.98,-1671.33
5520,-3.8713,-0.4398,0.3079,1211.18,374.21,-890.01
5530,-3.8713,-0.4790,0.2891,-288.82,-579.04,-1108.83
5540,-3.8713,-0.5156,0.2678,-1304.44,1014.65,-1546.33
5550,-3.8713,-0.5482,0.2490,-1991.94,-1704.16,-1655.76
5560,-3.8713,-0.5742,0.2306,1836.18,-110.47,-1983.95
5570,-3.8713,-0.5889,0.2174,-1491.94,1530.09,1297.30
5580,-3.8713,-0.5885,0.2148,633.06,-157.41,1109.74
5590,-3.8713,-0.5812,0.2179,679.93,-485.53,1578.49
5600,-3.8713,-0.5792,0.2134,1617.43,-94.91,1484.74
5610,-3.8713,-0.5981,0.1897,1867.43,-673.03,344.12
5620,-3.8715,-0.6392,0.1462,-554.44,295.65,-671.51
5630,-3.8715,-0.6923,0.0941,-1804.44,-1266.91,-1265.38
5640,-3.8715,-0.7426,0.0524,-601.32,61.10,-1687.32
5650,-3.8715,-0.7767,0.0352,961.18,-1282.71,-1499.94
5660,-3.8715,-0.7992,0.0419,586.18,514.10,-796.81
5670,-3.8715,-0.8147,0.0614,1711.18,1373.41,-124.94
5680,-3.8713,-0.8212,0.0736,-273.19,-126.65,437.56
5690,-3.8713,-0.8116,0.0643,-1101.32,1435.85,1625.12
5700,-3.8712,-0.7815,0.0504,117.43,248.41,812.62
5710,-3.8711,-0.7396,0.0583,-23.19,-1532.84,-1906.19
5720,-3.8710,-0.7014,0.0900,1336.18,-517.09,-718.69
5730,-3.8708,-0.6802,0.1292,-1773.19,-470.15,-1999.88
5740,-3.8708,-0.6832,0.1558,945.56,545.53,1437.74
5750,-3.8710,-0.7068,0.1565,554.93,-48.22,-1640.38
5760,-3.8711,-0.7386,0.1433,1539.31,45.47,-1609.07
5770,-3.8712,-0.7660,0.1387,1461.18,-1642.09,-484.13
5780,-3.8712,-0.7822,0.1456,1961.18,1764.10,-1640.38
5790,-3.8712,-0.7839,0.1617,-116.94,-1345.34,-1109.13
5800,-3.8711,-0.7740,0.1931,-335.69,717.16,1047.18
5810,-3.8710,-0.7587,0.2377,929.93,732.85,31.62
5820,-3.8710,-0.7378,0.2816,-1101.32,-1564.03,-1265.20
5830,-3.8708,-0.7094,0.3188,1570.56,61.04,1188.05
5840,-3.8707,-0.6815,0.3617,1211.18,826.72,438.11
5850,-3.8706,-0.6660,0.4087,773.68,-1688.84,453.80
5860,-3.8706,-0.6569,0.4392,-1241.94,326.78,-749.21
5870,-3.8706,-0.6400,0.4364,-70.07,233.03,-811.65
5880,-3.8706,-0.6074,0.4011,-1913.82,-126.28,1125.79
5890,-3.8707,-0.5563,0.3540,-1741.94,-641.85,-1639.89
5900,-3.8708,-0.4888,0.3165,804.93,1327.03,-796.20
5910,-3.8710,-0.4103,0.2953,1445.56,530.27,-311.89
5920,-3.8710,-0.3325,0.2863,-507.57,1811.65,422.42
5930,-3.8711,-0.2631,0.2842,1445.56,655.58,1875.55
5940,-3.8712,-0.2006,0.2819,-1663.82,390.08,-421.33
5950,-3.8712,-0.1459,0.2764,-1663.82,93.32,1078.67
5960,-3.8713,-0.1005,0.2732,1336.18,-609.68,-1093.26
5970,-3.8713,-0.0590,0.2722,-851.32,-1015.87,-1890.14
5980,-3.8713,-0.0171,0.2733,461.18,-1140.75,-843.26
5990,-3.8712,0.0171,0.2820,1820.56,-1000.06,1672.36
6000,-3.8711,0.0323,0.2947,-1804.44,93.75,453.67
6010,-3.8711,0.0260,0.3002,148.68,1718.81,-1936.95
6020,-3.8711,0.0052,0.3004,-663.82,-1578.12,-1905.70
6030,-3.8711,-0.0204,0.3052,679.93,-1546.88,844.30
6040,-3.8712,-0.0469,0.3168,1398.68,-921.94,-1405.70
6050,-3.8713,-0.0713,0.3282,-1991.94,562.38,-921.26
6060,-3.8715,-0.0923,0.3325,-1116.94,-1968.93,-1811.89
6070,-3.8716,-0.1056,0.3260,195.56,-1422.06,1922.49
6080,-3.8717,-0.1041,0.3121,-1507.57,1749.76,-186.89
6090,-3.8717,-0.0858,0.2998,-1320.07,-31.49,-671.33
6100,-3.8717,-0.0568,0.2952,1023.68,-1609.56,-108.83
6110,-3.8716,-0.0249,0.2987,742.43,1796.75,1859.92
6120,-3.8715,0.0088,0.3142,820.56,-1750.06,1281.80
6130,-3.8713,0.0466,0.3485,1133.06,218.75,1063.11
6140,-3.8713,0.0769,0.3964,1976.81,609.44,-171.20
6150,-3.8712,0.0715,0.4381,1851.81,-1265.50,391.36
6160,-3.8713,0.0162,0.4521,1164.31,78.25,-1796.02
6170,-3.8715,-0.0653,0.4314,-1913.82,1875.00,-842.90
6180,-3.8715,-0.1360,0.3895,-351.32,-765.81,-1796.08
6190,-3.8713,-0.1741,0.3499,-1398.19,1874.69,297.61
6200,-3.8712,-0.1660,0.3365,1726.81,796.51,313.17
6210,-3.8711,-0.1097,0.3624,-1241.94,-906.62,141.24
6220,-3.8711,-0.0239,0.4058,1961.18,-1593.99,-1780.58
6230,-3.8711,0.0707,0.4316,945.56,-46.94,-968.02
6240,-3.8711,0.1543,0.4396,1054.93,-749.88,-202.33
6250,-3.8710,0.2090,0.4437,-241.94,265.87,1438.35
6260,-3.8710,0.2355,0.4398,-1241.94,797.24,-717.90
6270,-3.8710,0.2393,0.4207,-1851.32,297.30,-546.02
6280,-3.8710,0.2230,0.3916,-1366.94,1844.18,-1421.08
6290,-3.8710,0.1954,0.3586,554.93,-1874.57,-1952.39
6300,-3.8710,0.1779,0.3191,1023.68,1906.62,1860.05
6310,-3.8710,0.1932,0.2791,-1226.32,844.06,-952.51
6320,-3.8708,0.2388,0.2561,742.43,-280.88,-1593.26
6330,-3.8707,0.2976,0.2582,-1429.44,781.68,-1937.01
6340,-3.8706,0.3605,0.2738,-1898.19,1047.42,0.49
6350,-3.8707,0.4213,0.2795,-1851.32,-952.45,-15.14
6360,-3.8707,0.4764,0.2588,1929.93,-217.96,-1015.14
6370,-3.8707,0.5214,0.2148,992.43,1125.92,-1968.26
6380,-3.8707,0.5486,0.1598,-1257.57,-499.02,1797.24
6390,-3.8707,0.5466,0.1072,-1773.19,454.16,-1984.07
6400,-3.8707,0.5409,0.0707,1976.81,1719.79,-1874.82
6410,-3.8707,0.5577,0.0475,1242.43,1047.91,-1640.50
6420,-3.8707,0.5752,0.0259,-601.32,-1920.84,-749.94
6430,-3.8706,0.5873,0.0115,1633.06,-686.40,15.62
6440,-3.8707,0.6039,0.0104,-820.07,1469.85,-140.62
6450,-3.8707,0.6366,0.0155,1304.93,1329.28,-265.62
6460,-3.8707,0.6658,0.0189,1492.43,1985.60,-515.62
6470,-3.8707,0.6665,0.0198,1226.81,-1576.84,-1562.50
6480,-3.8707,0.6609,0.0204,1320.56,-1467.47,828.12
6490,-3.8708,0.6394,0.0236,601.81,-1389.34,-578.12
6500,-3.8708,0.5953,0.0383,1851.81,-983.15,-1593.75
6510,-3.8708,0.5387,0.0627,211.18,907.41,1062.56
6520,-3.8708,0.4711,0.0922,961.18,32.29,422.00
6530,-3.8708,0.4055,0.1339,304.93,-202.21,1265.75
6540,-3.8708,0.3459,0.1877,-85.69,1141.36,-921.63
6550,-3.8707,0.3002,0.2439,289.31,31.92,1406.62
6560,-3.8707,0.2620,0.2953,-1570.07,-780.70,-93.32
6570,-3.8706,0.2267,0.3375,1539.31,1797.36,1969.30
6580,-3.8706,0.1997,0.3618,1023.68,-796.45,-1265.01
6590,-3.8706,0.1801,0.3571,1570.56,-1687.13,-1811.83
6600,-3.8706,0.1691,0.3314,-945.07,1703.43,688.17
6610,-3.8707,0.1630,0.3090,1648.68,-1577.82,1875.61
6620,-3.8708,0.1642,0.2971,867.43,-452.82,-1561.95
6630,-3.8710,0.1796,0.2898,1023.68,-1968.44,-280.70
6640,-3.8710,0.2042,0.2885,-1007.57,1094.06,-1921.33
6650,-3.8710,0.2244,0.3052,-1851.32,922.24,1375.55
6660,-3.8710,0.2330,0.3389,726.81,-937.07,1938.05
6670,-3.8710,0.2360,0.3678,1836.18,-624.57,-1530.64
6680,-3.8710,0.2346,0.3822,-1788.82,-921.45,-936.83
6690,-3.8708,0.2216,0.4022,-1960.69,922.30,1328.86
6700,-3.8708,0.1897,0.4285,367.43,-515.20,-452.39
6710,-3.8708,0.1448,0.4282,289.31,-1155.88,-983.58
6720,-3.8708,0.1069,0.3907,-1460.69,-1187.26,32.04
6730,-3.8710,0.0955,0.3406,1695.56,-1984.19,1094.48
6740,-3.8711,0.1146,0.3051,226.81,-406.07,-1311.89
6750,-3.8712,0.1573,0.2972,-1320.07,-952.94,-77.58
6760,-3.8712,0.2136,0.3201,148.68,-1952.82,578.67
6770,-3.8713,0.2681,0.3602,-648.19,969.12,-1218.14
6780,-3.8712,0.3000,0.4009,-1679.44,-1890.14,31.92
6790,-3.8712,0.2980,0.4331,-1585.69,-686.95,-1218.02
6800,-3.8711,0.2683,0.4517,-1851.32,-561.95,750.79
6810,-3.8711,0.2223,0.4563,-1648.19,1812.99,1203.98
6820,-3.8711,0.1665,0.4467,461.18,-1593.32,313.35
6830,-3.8712,0.1073,0.4252,1320.56,1172.18,-1452.27
6840,-3.8712,0.0573,0.4006,1742.43,-1577.94,1110.17
6850,-3.8712,0.0273,0.3861,-663.82,-718.69,531.98
6860,-3.8712,0.0227,0.3928,-491.94,1421.88,781.98
6870,-3.8712,0.0375,0.4252,-1085.69,-1718.75,1906.98
6880,-3.8712,0.0571,0.4716,804.93,-1578.06,-874.21
6890,-3.8712,0.0682,0.5012,-679.44,359.44,-733.46
6900,-3.8712,0.0629,0.4956,742.43,156.37,-1483.40
6910,-3.8712,0.0459,0.4701,54.93,-562.38,1922.79
6920,-3.8712,0.0265,0.4521,1883.06,171.94,1625.92
6930,-3.8712,0.0037,0.4478,-601.32,1875.00,203.98
6940,-3.8713,-0.0205,0.4363,476.81,1312.50,828.98
6950,-3.8715,-0.0311,0.4066,1383.06,-140.69,1594.54
6960,-3.8715,-0.0281,0.3811,23.68,62.44,969.54
6970,-3.8715,-0.0273,0.3822,414.31,796.81,1985.11
6980,-3.8715,-0.0381,0.4049,508.06,937.44,-1843.02
6990,-3.8715,-0.0620,0.4447,-866.94,-156.37,-1405.52
7000,-3.8713,-0.0933,0.5026,70.56,937.38,1516.48
7010,-3.8712,-0.1219,0.5587,70.56,343.57,1016.60
7020,-3.8712,-0.1492,0.5927,398.68,-468.99,-1295.84
7030,-3.8712,-0.1879,0.6071,914.31,-125.31,-1342.65
7040,-3.8712,-0.2458,0.6088,-38.82,1718.32,969.91
7050,-3.8713,-0.3221,0.5907,539.31,1937.01,1141.78
7060,-3.8715,-0.4125,0.5375,-1226.32,-375.67,1079.22
7070,-3.8716,-0.5010,0.4493,-788.82,811.65,-280.21
7080,-3.8715,-0.5638,0.3567,-116.94,1530.21,750.85
7090,-3.8715,-0.5773,0.2920,-163.82,1670.72,1141.30
7100,-3.8715,-0.5608,0.2629,-1882.57,1389.47,438.05
7110,-3.8715,-0.5343,0.2689,226.81,1670.78,547.36
7120,-3.8715,-0.4802,0.3026,-382.57,-1563.60,1469.24
7130,-3.8715,-0.4220,0.3326,-1460.69,-1250.98,-999.45
7140,-3.8713,-0.3923,0.3448,1992.43,-1407.10,641.24
7150,-3.8713,-0.4130,0.3574,1789.31,155.46,-1530.58
7160,-3.8712,-0.4922,0.3776,-851.32,1764.77,-1874.33
7170,-3.8711,-0.5861,0.3929,1008.06,342.77,-983.64
7180,-3.8710,-0.6630,0.3904,992.43,-1688.66,-593.02
7190,-3.8708,-0.7203,0.3722,-851.32,1983.03,-1530.52
7200,-3.8708,-0.7489,0.3556,-195.07,-345.21,-686.83
7210,-3.8708,-0.7617,0.3444,148.68,1529.79,-1483.70
7220,-3.8708,-0.7762,0.3290,-1491.94,92.22,1344.42
7230,-3.8708,-0.7831,0.3080,648.68,-1876.53,1031.86
7240,-3.8708,-0.7734,0.2913,-226.32,-564.09,-1390.08
7250,-3.8707,-0.7458,0.2883,1008.06,1295.35,1281.80
7260,-3.8707,-0.7087,0.3022,539.31,920.41,-890.08
7270,-3.8707,-0.6741,0.3278,1289.31,-1298.28,-608.83
7280,-3.8707,-0.6492,0.3452,1726.81,1967.41,-1530.64
7290,-3.8707,-0.6304,0.3433,914.31,201.84,1422.55
7300,-3.8707,-0.6124,0.3384,-679.44,-48.16,1063.11
7310,-3.8707,-0.6018,0.3438,1617.43,-673.10,375.61
7320,-3.8708,-0.5931,0.3569,-1023.19,14.40,-780.58
7330,-3.8708,-0.5776,0.3748,86.18,1701.97,-1858.70
7340,-3.8708,-0.5541,0.3942,-1929.44,-16.78,594.42
7350,-3.8710,-0.5289,0.4039,1086.18,-1532.35,1719.48
7360,-3.8711,-0.5056,0.3973,304.93,-282.29,-1405.52
7370,-3.8711,-0.4810,0.3927,-710.69,-1126.04,1172.61
7380,-3.8711,-0.4558,0.4084,-1554.44,-1719.73,1110.11
7390,-3.8711,-0.4319,0.4393,1664.31,295.96,1594.54
7400,-3.8711,-0.4125,0.4727,726.81,249.15,1688.35
7410,-3.8711,-0.3958,0.4955,-788.82,514.77,375.92
7420,-3.8712,-0.3745,0.5005,1351.81,-563.29,-1827.21
7430,-3.8712,-0.3469,0.4922,70.56,77.39,329.10
7440,-3.8713,-0.3167,0.4802,-398.19,-985.11,-514.71
7450,-3.8713,-0.2881,0.4625,-523.19,1483.70,-1186.58
7460,-3.8713,-0.2609,0.4290,-866.94,-781.86,1078.98
7470,-3.8715,-0.2360,0.3838,-1382.57,-1078.67,-1827.33
7480,-3.8716,-0.2147,0.3451,1804.93,1140.14,-530.52
7490,-3.8716,-0.2012,0.3212,523.68,187.07,1391.30
7500,-3.8717,-0.1956,0.3066,-1741.94,1124.57,-265.01
7510,-3.8717,-0.1907,0.2977,-1023.19,-734.80,-1296.33
7520,-3.8717,-0.1793,0.2933,-398.19,-1875.43,-1515.08
7530,-3.8717,-0.1586,0.2906,1054.93,1562.13,-702.58
7540,-3.8716,-0.1321,0.2856,-288.82,1218.38,1031.80
7550,-3.8716,-0.1028,0.2750,-898.19,577.82,-655.70
7560,-3.8715,-0.0681,0.2598,-1148.19,-781.49,1266.11
7570,-3.8715,-0.0271,0.2456,-710.69,1265.44,1687.99
7580,-3.8715,0.0127,0.2422,539.31,-546.94,1766.05
7590,-3.8715,0.0408,0.2532,1633.06,-1000.00,1531.68
7600,-3.8715,0.0663,0.2662,1226.81,406.31,125.49
7610,-3.8716,0.1017,0.2656,492.43,-1921.75,-1358.89
7620,-3.8716,0.1329,0.2565,1023.68,-1999.82,-1452.64
7630,-3.8715,0.1372,0.2584,1023.68,828.37,875.49
7640,-3.8713,0.1226,0.2750,1570.56,1078.37,609.86
7650,-3.8713,0.1182,0.2914,-304.44,-796.69,-858.89
7660,-3.8713,0.1296,0.2980,-866.94,1297.06,-796.33
7670,-3.8713,0.1367,0.2979,601.81,-1859.13,1828.67
7680,-3.8713,0.1289,0.2933,1508.06,-1874.76,250.55
7690,-3.8715,0.1144,0.2832,508.06,1547.12,-1515.08
7700,-3.8715,0.1016,0.2687,-1351.32,250.18,547.42
7710,-3.8716,0.0873,0.2599,1008.06,-1609.19,-905.76
7720,-3.8716,0.0724,0.2656,-820.07,1265.75,-1155.76
7730,-3.8716,0.0699,0.2772,1273.68,-1999.88,-93.26
7740,-3.8715,0.0793,0.2821,961.18,-515.50,-1968.26
7750,-3.8713,0.0818,0.2806,-1835.69,109.50,1359.92
7760,-3.8712,0.0648,0.2854,-1523.19,-78.00,891.11
7770,-3.8712,0.0375,0.3002,304.93,531.37,-546.33
7780,-3.8711,0.0194,0.3087,804.93,-1578.06,1047.42
7790,-3.8711,0.0200,0.2966,-1507.57,-484.38,-1702.58
7800,-3.8711,0.0317,0.2784,-1429.44,1968.75,-140.08
7810,-3.8710,0.0406,0.2709,70.56,-359.31,1187.99
7820,-3.8710,0.0458,0.2645,1211.18,-1328.06,1844.24
7830,-3.8710,0.0621,0.2505,1867.43,1859.44,-499.51
7840,-3.8708,0.0994,0.2371,-38.82,62.56,-1749.51
7850,-3.8707,0.1462,0.2279,726.81,-1656.07,1344.18
7860,-3.8706,0.1949,0.2229,-1273.19,1172.12,1031.68
7870,-3.8705,0.2576,0.2185,961.18,531.62,1141.05
7880,-3.8704,0.3447,0.2024,976.81,-30.76,265.99
7890,-3.8704,0.4480,0.1759,133.06,1906.92,1344.12
7900,-3.8704,0.5496,0.1451,1351.81,-1483.52,437.81
7910,-3.8705,0.6339,0.1113,-1648.19,-1420.84,1968.99
7920,-3.8706,0.6925,0.0781,1148.68,-1748.78,-1077.94
7930,-3.8707,0.7052,0.0511,648.68,-1998.66,-515.50
7940,-3.8708,0.7029,0.0403,-1726.32,-1451.78,-640.56
7950,-3.8710,0.7180,0.0374,1976.81,1157.59,-906.19
7960,-3.8711,0.7058,0.0328,-85.69,782.59,-218.69
7970,-3.8711,0.6539,0.0385,-1648.19,204.47,1750.06
7980,-3.8711,0.5844,0.0450,-288.82,923.10,453.19
7990,-3.8711,0.5350,0.0463,-1195.07,1766.72,78.19
8000,-3.8711,0.5139,0.0498,492.43,1922.91,484.44
8010,-3.8711,0.4841,0.0565,1789.31,-1624.02,593.81
8020,-3.8711,0.4376,0.0625,1976.81,-764.71,15.69
8030,-3.8712,0.3961,0.0623,23.68,0.85,-1296.75
8040,-3.8712,0.3676,0.0607,-1288.82,-30.52,937.56
8050,-3.8713,0.3413,0.0652,-945.07,-233.70,-1171.81
8060,-3.8713,0.3292,0.0748,-304.44,344.36,515.75
8070,-3.8715,0.3389,0.0891,-1851.32,1578.74,-1218.63
8080,-3.8715,0.3500,0.1062,-616.94,-593.14,-1390.50
8090,-3.8715,0.3567,0.1177,804.93,1594.42,-140.44
8100,-3.8713,0.3606,0.1228,1664.31,-936.83,1156.43
8110,-3.8713,0.3501,0.1311,-1835.69,-280.58,1125.18
8120,-3.8715,0.3201,0.1360,820.56,781.92,-156.01
8130,-3.8715,0.2804,0.1315,976.81,1406.86,-1187.26
8140,-3.8715,0.2415,0.1298,-101.32,828.61,-1781.01
8150,-3.8715,0.2103,0.1370,-1085.69,609.80,-1952.88
8160,-3.8715,0.1964,0.1520,-1070.07,1531.62,-1937.26
8170,-3.8715,0.2009,0.1669,1148.68,-546.51,-1281.01
8180,-3.8713,0.2288,0.1820,1726.81,1359.74,1062.81
8190,-3.8712,0.2706,0.2047,1289.31,-702.70,125.31
8200,-3.8711,0.3058,0.2264,-1351.32,-1796.39,359.74
8210,-3.8710,0.3239,0.2427,-851.32,984.92,-1062.07
8220,-3.8707,0.3224,0.2638,1461.18,-936.89,1734.80
8230,-3.8706,0.2994,0.2922,1273.68,1766.24,-1452.64
8240,-3.8705,0.2583,0.3170,-1663.82,1406.80,1828.67
8250,-3.8705,0.2063,0.3286,1070.56,578.61,-280.64
8260,-3.8704,0.1489,0.3252,-1585.69,-1937.13,609.99
8270,-3.8704,0.0991,0.3265,-929.44,1625.24,-1936.89
8280,-3.8704,0.0638,0.3434,695.56,1797.06,-1530.64
8290,-3.8705,0.0361,0.3513,179.93,-46.75,1859.99
8300,-3.8707,0.0133,0.3373,633.06,968.81,-468.08
8310,-3.8707,-0.0016,0.3182,1711.18,-828.12,1375.61
8320,-3.8707,-0.0126,0.3101,-195.07,749.94,1641.24
8330,-3.8707,-0.0254,0.3097,-1601.32,-296.94,453.67
8340,-3.8708,-0.0386,0.3043,758.06,-343.81,1609.92
8350,-3.8710,-0.0510,0.2870,-929.44,-1031.37,1875.55
8360,-3.8711,-0.0601,0.2595,1476.81,749.88,1500.55
8370,-3.8712,-0.0616,0.2306,320.56,1234.25,1016.11
8380,-3.8713,-0.0542,0.2119,117.43,1531.13,734.80
8390,-3.8715,-0.0394,0.2098,1070.56,-859.50,1172.24
8400,-3.8716,-0.0217,0.2252,-1038.82,-1125.12,-1827.76
8410,-3.8717,-0.0072,0.2612,1226.81,843.69,-858.95
8420,-3.8717,-0.0012,0.3187,-913.82,1453.06,547.36
8430,-3.8718,-0.0059,0.3754,-148.19,812.44,-1077.51
8440,-3.8718,-0.0209,0.3951,-741.94,62.44,1016.36
8450,-3.8719,-0.0411,0.3679,1336.18,-1406.31,-1999.27
8460,-3.8721,-0.0597,0.3186,-1257.57,-890.75,-936.83
8470,-3.8721,-0.0796,0.2772,367.43,796.75,875.61
8480,-3.8722,-0.1074,0.2550,1820.56,-500.18,-358.89
8490,-3.8722,-0.1370,0.2581,-1741.94,656.01,-124.51
8500,-3.8721,-0.1598,0.2921,-1523.19,1046.57,1531.74
8510,-3.8719,-0.1785,0.3391,-445.07,1405.88,703.67
8520,-3.8718,-0.1963,0.3724,1164.31,-578.49,1344.36
8530,-3.8717,-0.2129,0.3903,-1116.94,-312.93,-1921.20
8540,-3.8716,-0.2278,0.3960,758.06,1968.32,1735.11
8550,-3.8715,-0.2477,0.3872,-1148.19,-1297.36,188.23
8560,-3.8715,-0.2820,0.3744,304.93,1577.64,1469.48
8570,-3.8715,-0.3304,0.3743,-85.69,-63.11,-1921.20
8580,-3.8715,-0.3848,0.3865,1711.18,-78.80,-1108.70
8590,-3.8713,-0.4443,0.3944,-1241.94,1483.58,391.36
8600,-3.8713,-0.5042,0.3945,-866.94,-1500.92,-1405.52
8610,-3.8712,-0.5321,0.3911,-523.19,-1485.41,1313.23
8620,-3.8712,-0.5439,0.3793,-101.32,-1922.97,-389.89
8630,-3.8711,-0.5668,0.3693,-1616.94,561.40,1953.86
8640,-3.8710,-0.5763,0.3777,-538.82,-719.91,391.30
8650,-3.8710,-0.5588,0.3990,-1757.57,358.22,1953.86
8660,-3.8710,-0.5419,0.4125,476.81,-907.35,-1030.52
8670,-3.8708,-0.5624,0.4078,-1351.32,811.40,94.54
8680,-3.8708,-0.6056,0.3979,23.68,217.65,1766.42
8690,-3.8707,-0.6587,0.3933,-1507.57,-1048.10,266.36
8700,-3.8707,-0.7095,0.3917,-304.44,-1641.97,-249.27
8710,-3.8706,-0.7314,0.3914,1195.56,-1845.15,-1561.77
8720,-3.8706,-0.7198,0.3877,-1616.94,-1892.09,-280.52
8730,-3.8706,-0.6710,0.3712,-132.57,1639.16,-639.89
8740,-3.8706,-0.6038,0.3337,-1882.57,-470.09,328.80
8750,-3.8707,-0.5507,0.2816,-1273.19,-1266.85,234.99
8760,-3.8708,-0.5217,0.2384,1523.68,61.40,906.80
8770,-3.8710,-0.5203,0.2277,1226.81,-1469.79,-1921.45
8780,-3.8711,-0.5386,0.2505,1414.31,1155.21,-249.57
8790,-3.8711,-0.5624,0.2961,-929.44,77.03,-452.64
8800,-3.8710,-0.5808,0.3562,23.68,1920.78,-1515.08
8810,-3.8708,-0.5951,0.4106,1664.31,1608.22,-1968.08
8820,-3.8708,-0.6117,0.4352,-163.82,576.90,-1077.33
8830,-3.8708,-0.6367,0.4279,1711.18,-282.47,-1655.46
8840,-3.8708,-0.6696,0.4044,-1491.94,-1220.03,-1858.58
8850,-3.8708,-0.6904,0.3730,-1695.07,-220.09,1766.36
8860,-3.8708,-0.6818,0.3423,-366.94,-235.78,594.42
8870,-3.8710,-0.6368,0.3303,742.43,-173.22,-1280.64
8880,-3.8711,-0.5631,0.3387,-1507.57,-1704.41,-155.64
8890,-3.8712,-0.4739,0.3544,-70.07,-626.16,-77.51
8900,-3.8712,-0.3831,0.3656,-648.19,1374.02,266.30
8910,-3.8713,-0.3053,0.3678,-1023.19,-1188.29,1485.05
8920,-3.8715,-0.2484,0.3640,929.93,-906.86,-155.58
8930,-3.8715,-0.2103,0.3586,211.18,-1391.11,-124.33
8940,-3.8713,-0.1875,0.3514,1086.18,1921.45,985.05
8950,-3.8713,-0.1851,0.3428,8.06,999.63,1906.92
8960,-3.8713,-0.1982,0.3351,320.56,-109.74,-1827.51
8970,-3.8713,-0.2113,0.3241,-1366.94,-1094.18,1953.74
8980,-3.8713,-0.2181,0.3068,961.18,1499.57,797.49
8990,-3.8715,-0.2198,0.2864,86.18,-719.18,-890.08
9000,-3.8715,-0.2218,0.2668,-132.57,671.39,1578.67
9010,-3.8715,-0.2241,0.2535,-382.57,-1828.61,0.49
9020,-3.8716,-0.2220,0.2507,-679.44,468.26,-1546.39
9030,-3.8716,-0.2135,0.2563,-413.82,108.89,1750.49
9040,-3.8716,-0.1960,0.2672,679.93,827.70,-1546.39
9050,-3.8716,-0.1686,0.2805,-1085.69,-1781.68,-483.89
9060,-3.8715,-0.1299,0.2950,-1570.07,-78.49,125.49
9070,-3.8715,-0.0818,0.3140,-616.94,1780.94,313.05
9080,-3.8716,-0.0385,0.3319,1539.31,202.94,-655.64
9090,-3.8716,-0.0187,0.3350,-913.82,-1500.12,375.61
9100,-3.8717,-0.0273,0.3220,1617.43,-1109.44,375.61
9110,-3.8718,-0.0529,0.3038,508.06,1234.31,1688.11
9120,-3.8718,-0.0770,0.2899,1242.43,-1093.87,1031.80
9130,-3.8718,-0.0836,0.2828,-1851.32,1124.82,1781.80
9140,-3.8718,-0.0703,0.2850,1304.93,218.57,-608.83
9150,-3.8717,-0.0436,0.3029,-991.94,499.82,1531.80
9160,-3.8716,-0.0001,0.3328,-1570.07,-1218.87,391.17
9170,-3.8715,0.0577,0.3661,-7.57,-1390.69,94.36
9180,-3.8713,0.1100,0.4061,-601.32,-1140.56,16.30
9190,-3.8713,0.1348,0.4451,-1913.82,-15.44,1594.48
9200,-3.8715,0.1185,0.4541,1258.06,968.99,-296.02
9210,-3.8715,0.0696,0.4194,-820.07,-1874.82,1641.48
9220,-3.8715,0.0167,0.3542,914.31,1687.62,-1655.46
9230,-3.8713,-0.0159,0.2886,-1851.32,1343.75,1610.05
9240,-3.8712,-0.0227,0.2510,1976.81,953.06,391.17
9250,-3.8712,-0.0063,0.2474,1101.81,140.56,125.49
9260,-3.8713,0.0270,0.2670,-804.44,-312.56,1391.05
9270,-3.8715,0.0626,0.3104,-538.82,-1828.12,-905.76
9280,-3.8715,0.0852,0.3761,23.68,-265.50,-1702.58
9290,-3.8715,0.0869,0.4333,-1085.69,140.75,1422.61
9300,-3.8715,0.0813,0.4489,-866.94,-531.13,750.79
9310,-3.8715,0.0907,0.4259,-1585.69,1453.25,-1764.77
9320,-3.8713,0.1228,0.3953,-382.57,-1484.25,453.92
9330,-3.8713,0.1697,0.3711,-273.19,-1406.07,594.48
9340,-3.8715,0.2164,0.3475,1726.81,-499.69,-436.83
9350,-3.8715,0.2473,0.3334,-288.82,484.74,-921.20
9360,-3.8715,0.2554,0.3479,-335.69,-1327.70,-999.39
9370,-3.8715,0.2421,0.3838,695.56,531.74,-1514.95
9380,-3.8715,0.2156,0.4161,-1007.57,1125.43,1500.73
9390,-3.8715,0.1921,0.4330,-398.19,1265.99,1235.17
9400,-3.8715,0.1891,0.4341,601.81,-577.76,-1483.58
9410,-3.8713,0.2103,0.4189,211.18,-437.13,344.54
9420,-3.8713,0.2468,0.3884,-1070.07,1625.37,1032.04
9430,-3.8713,0.2953,0.3583,-398.19,1719.18,266.36
9440,-3.8715,0.3519,0.3400,1804.93,1859.92,-1171.20
9450,-3.8715,0.4056,0.3234,1054.93,-483.70,1359.99
9460,-3.8715,0.4546,0.3040,-70.07,1391.36,313.11
9470,-3.8716,0.5072,0.2852,-1804.44,-1092.90,-93.20
9480,-3.8716,0.5682,0.2672,929.93,500.98,-233.83
9490,-3.8716,0.6211,0.2543,742.43,-1795.78,-77.64
9500,-3.8715,0.6729,0.2583,-491.94,548.03,906.74
9510,-3.8715,0.7345,0.2705,-1866.94,1063.78,-1343.26
9520,-3.8713,0.7731,0.2709,-1976.32,-1373.60,1359.86
9530,-3.8712,0.7759,0.2653,-1038.82,-1326.66,250.49
9540,-3.8712,0.7644,0.2635,-679.44,1954.59,1453.61
9550,-3.8712,0.7208,0.2648,1851.81,1735.84,812.99
9560,-3.8713,0.6422,0.2803,273.68,1892.03,-937.01
9570,-3.8713,0.5725,0.3162,-1788.82,-123.78,766.11
9580,-3.8715,0.5009,0.3555,1289.31,469.85,-983.76
9590,-3.8715,0.4171,0.3839,117.43,1500.98,-952.45
9600,-3.8713,0.3409,0.4010,1398.68,1141.42,813.23
9610,-3.8713,0.2743,0.4121,-351.32,-671.26,-311.77
9620,-3.8712,0.2268,0.4087,-882.57,750.49,-1421.08
9630,-3.8711,0.2065,0.3773,1039.31,312.93,1422.67
9640,-3.8710,0.2009,0.3431,-1554.44,297.24,625.73
9650,-3.8710,0.1985,0.3374,1726.81,-77.76,-1811.89
9660,-3.8710,0.2025,0.3441,1414.31,-812.13,938.11
9670,-3.8711,0.2095,0.3591,1929.93,47.24,1813.17
9680,-3.8712,0.2041,0.3815,-1179.44,1969.12,1766.30
9690,-3.8713,0.1888,0.3759,-1866.94,828.49,1828.86
9700,-3.8715,0.1870,0.3328,179.93,109.74,-936.77
9710,-3.8715,0.2086,0.2816,-54.44,-1405.94,-1968.14
9720,-3.8715,0.2445,0.2550,-1288.82,47.24,-1718.20
9730,-3.8715,0.2892,0.2588,-695.07,641.05,-608.89
9740,-3.8713,0.3339,0.2771,1023.68,1125.55,1203.61
9750,-3.8713,0.3512,0.3074,-1257.57,-530.64,-1530.76
9760,-3.8713,0.3164,0.3325,961.18,-655.58,-1921.33
9770,-3.8713,0.2467,0.3263,508.06,-1436.89,359.99
9780,-3.8715,0.1724,0.3063,-413.82,1766.05,875.61
9790,-3.8716,0.1074,0.2891,-1929.44,-796.57,156.80
9800,-3.8717,0.0645,0.2703,1758.06,1000.18,469.30
9810,-3.8718,0.0504,0.2648,258.06,-1406.13,-687.01
9820,-3.8717,0.0608,0.2859,-1538.82,1890.69,1562.99
9830,-3.8716,0.0824,0.3036,-210.69,593.81,-1546.33
9840,-3.8713,0.1073,0.2985,-1445.07,-1140.50,766.17
9850,-3.8712,0.1243,0.3110,1742.43,-1796.69,-905.70
9860,-3.8711,0.1067,0.3600,-85.69,-187.32,-1436.95
9870,-3.8711,0.0519,0.3972,1664.31,-1921.69,-1343.08
9880,-3.8711,-0.0067,0.3888,-1351.32,-1156.19,-1733.64
9890,-3.8711,-0.0482,0.3542,-851.32,1781.19,-1718.02
9900,-3.8711,-0.0780,0.3235,1836.18,1359.25,1610.05
9910,-3.8711,-0.1006,0.3081,-1976.32,1421.69,688.11
9920,-3.8711,-0.1151,0.3007,-866.94,-547.12,656.80
9930,-3.8711,-0.1143,0.2952,1273.68,-1500.24,-1561.95
9940,-3.8710,-0.0884,0.2947,1383.06,1796.63,1047.42
9950,-3.8710,-0.0493,0.2953,695.56,1734.19,-1718.20
9960,-3.8710,-0.0253,0.2792,1695.56,1812.38,1969.30
9970,-3.8710,-0.0283,0.2502,773.68,-250.06,625.49
9980,-3.8711,-0.0475,0.2412,383.06,46.81,1984.86
9990,-3.8712,-0.0654,0.2550,1929.93,-1109.50,-1718.32
10000,-3.8713,-0.0637,0.2673,-366.94,656.07,-1718.26
10010,-3.8715,-0.0408,0.2654,-148.19,-1765.81,-1358.89
10020,-3.8715,-0.0159,0.2487,-1210.69,1984.25,250.49
10030,-3.8716,-0.0038,0.2233,1976.81,-156.31,-640.20
10040,-3.8716,-0.0074,0.1970,-476.32,593.69,-1265.20
10050,-3.8716,-0.0278,0.1791,-945.07,1234.31,1703.49
10060,-3.8716,-0.0627,0.1774,445.56,-1062.56,719.06
10070,-3.8716,-0.1046,0.1902,-23.19,-1281.43,62.81
10080,-3.8717,-0.1421,0.2040,-1382.57,359.13,-577.76
10090,-3.8717,-0.1606,0.2061,1820.56,-1875.31,1953.49
10100,-3.8718,-0.1541,0.2006,-554.44,-1609.74,-609.01
10110,-3.8718,-0.1331,0.1987,289.31,1687.19,1594.12
10120,-3.8718,-0.1176,0.2080,-1023.19,1452.82,-1530.88
10130,-3.8717,-0.1206,0.2336,961.18,-1359.62,1531.62
10140,-3.8716,-0.1517,0.2759,570.56,1921.63,1469.18
10150,-3.8715,-0.2272,0.3245,586.18,-672.18,-1937.01
10160,-3.8713,-0.3470,0.3646,-1070.07,1546.39,-1421.26
10170,-3.8712,-0.4701,0.3816,-413.82,-1313.23,1750.67
10180,-3.8712,-0.5469,0.3735,-163.82,858.40,-718.02
10190,-3.8711,-0.5638,0.3533,-1991.94,-172.97,47.55
10200,-3.8711,-0.5364,0.3317,-163.82,1233.22,688.17
10210,-3.8711,-0.5138,0.3129,-648.19,-1532.35,1328.74
10220,-3.8711,-0.4968,0.3206,-1757.57,61.46,-733.76
10230,-3.8710,-0.4540,0.3633,414.31,1045.90,-1093.14
10240,-3.8708,-0.4065,0.4125,1898.68,-1485.29,-1280.58
10250,-3.8707,-0.3805,0.4410,-23.19,811.65,985.17
10260,-3.8707,-0.3948,0.4260,-695.07,467.96,688.35
10270,-3.8708,-0.4310,0.3680,1476.81,-1453.92,-1092.96
10280,-3.8708,-0.4530,0.2977,836.18,-875.85,1641.30
10290,-3.8708,-0.4753,0.2455,-1976.32,-1875.92,1438.05
10300,-3.8708,-0.5015,0.2291,-835.69,-563.48,984.80
10310,-3.8710,-0.5166,0.2467,-179.44,1342.71,-483.95
10320,-3.8710,-0.5264,0.2771,1883.06,-407.29,-1265.20
10330,-3.8710,-0.5327,0.3074,633.06,-516.66,-874.51
10340,-3.8708,-0.5361,0.3409,-179.44,-641.72,672.42
10350,-3.8708,-0.5331,0.3804,-616.94,-344.85,-702.51
10360,-3.8707,-0.5272,0.4088,-226.32,702.03,719.48
10370,-3.8707,-0.5311,0.4069,523.68,342.71,657.04
10380,-3.8707,-0.5398,0.3785,23.68,92.71,578.92
10390,-3.8707,-0.5408,0.3390,-1085.69,467.65,266.36
10400,-3.8708,-0.5308,0.3075,-1210.69,-594.85,-1374.39
10410,-3.8710,-0.5145,0.2952,70.56,-626.04,-608.83
10420,-3.8711,-0.4991,0.2938,-1851.32,1795.84,-468.20
10430,-3.8711,-0.4788,0.2933,117.43,1624.02,391.17
10440,-3.8712,-0.4476,0.2970,-1273.19,1561.52,-1140.08
10450,-3.8712,-0.4136,0.3146,-1288.82,-1969.67,-1436.95
10460,-3.8712,-0.3898,0.3457,-929.44,280.40,-1093.14
10470,-3.8711,-0.3722,0.3794,-1882.57,264.83,406.92
10480,-3.8711,-0.3550,0.3997,367.43,577.39,-1686.77
10490,-3.8711,-0.3436,0.3939,-1429.44,-828.86,-1202.39
10500,-3.8711,-0.3400,0.3639,23.68,-1563.17,1500.73
10510,-3.8712,-0.3422,0.3217,492.43,-1406.92,-1093.08
10520,-3.8713,-0.3433,0.2805,211.18,1186.83,-46.26
10530,-3.8713,-0.3358,0.2532,70.56,-78.80,1641.11
10540,-3.8715,-0.3165,0.2446,1023.68,421.20,-46.39
10550,-3.8715,-0.2842,0.2544,-507.57,-672.55,-1155.82
10560,-3.8715,-0.2419,0.2811,-366.94,577.51,-1499.51
10570,-3.8715,-0.2006,0.3156,1039.31,-0.49,-968.26
10580,-3.8715,-0.1714,0.3369,-1663.82,405.82,-374.39
10590,-3.8715,-0.1516,0.3315,-1929.44,-859.74,-108.76
10600,-3.8715,-0.1437,0.3101,601.81,-1547.18,-46.26
10610,-3.8713,-0.1516,0.2953,1617.43,-297.18,31.80
10620,-3.8713,-0.1641,0.2916,601.81,1812.19,531.80
10630,-3.8713,-0.1682,0.2845,-991.94,1343.38,875.55
10640,-3.8713,-0.1604,0.2732,-1523.19,437.13,344.30
10650,-3.8715,-0.1459,0.2678,-523.19,-1015.99,-249.51
10660,-3.8713,-0.1246,0.2666,1336.18,-1703.43,312.99
10670,-3.8713,-0.0953,0.2678,54.93,-1859.62,1078.61
10680,-3.8713,-0.0630,0.2753,-195.07,-1703.37,1078.61
10690,-3.8713,-0.0380,0.2882,-54.44,-750.18,844.24
10700,-3.8713,-0.0223,0.2963,-851.32,906.13,406.80
10710,-3.8715,-0.0090,0.2898,1148.68,1937.44,-296.33
10720,-3.8715,0.0068,0.2738,-1148.19,1109.31,-390.08
10730,-3.8713,0.0187,0.2653,883.06,-953.12,281.74
10740,-3.8713,0.0122,0.2668,-1601.32,1953.12,375.49
10750,-3.8715,-0.0062,0.2588,1570.56,-1843.75,-390.14
10760,-3.8715,-0.0183,0.2363,-788.82,1140.56,-812.01
10770,-3.8715,-0.0215,0.2222,1664.31,-1734.44,-187.07
10780,-3.8715,-0.0275,0.2323,1258.06,453.06,-249.57
10790,-3.8715,-0.0448,0.2502,492.43,1749.94,1828.55
10800,-3.8716,-0.0726,0.2509,-1726.32,46.75,-1202.64
10810,-3.8717,-0.1033,0.2291,-1288.82,124.82,-343.26
10820,-3.8717,-0.1250,0.1991,-1210.69,1343.51,-1624.57
10830,-3.8717,-0.1306,0.1848,8.06,1499.76,-702.76
10840,-3.8716,-0.1232,0.2007,-710.69,-328.43,1015.93
10850,-3.8716,-0.1045,0.2417,242.43,1702.88,-437.13
10860,-3.8715,-0.0695,0.2936,-1366.94,-1047.12,-562.07
10870,-3.8713,-0.0217,0.3430,-882.57,1593.57,-421.33
10880,-3.8712,0.0248,0.3721,1226.81,-78.19,-921.26
10890,-3.8711,0.0610,0.3654,-820.07,-375.00,1797.55
10900,-3.8711,0.0812,0.3273,-179.44,-1234.31,-843.08
10910,-3.8711,0.0796,0.2734,-1601.32,1890.75,-1140.01
10920,-3.8711,0.0621,0.2196,-1804.44,-999.88,1469.24
10930,-3.8712,0.0457,0.1779,-38.82,109.44,-249.57
10940,-3.8712,0.0500,0.1536,1851.81,-1234.31,-1780.94
10950,-3.8712,0.0894,0.1420,-1585.69,-343.69,1281.49
10960,-3.8712,0.1556,0.1354,-554.44,-1828.00,1125.24
10970,-3.8712,0.2257,0.1375,-70.07,1328.37,-1577.88
10980,-3.8711,0.2817,0.1497,898.68,1594.18,1109.62
10990,-3.8711,0.3228,0.1583,70.56,-843.20,-921.63
11000,-3.8711,0.3658,0.1503,1320.56,266.24,-265.32
11010,-3.8711,0.4216,0.1265,-1163.82,-764.95,-531.01
11020,-3.8711,0.4784,0.0945,1976.81,188.29,-1906.01
11030,-3.8711,0.5206,0.0599,1242.43,94.67,234.56
11040,-3.8712,0.5408,0.0281,-1351.32,-327.15,-1640.56
11050,-3.8712,0.5420,0.0065,1226.81,-405.21,406.25
11060,-3.8713,0.5466,0.0017,1383.06,829.16,-1671.88
11070,-3.8713,0.5354,0.0126,1976.81,219.79,890.62
11080,-3.8713,0.4777,0.0413,539.31,1610.41,1250.00
11090,-3.8713,0.3899,0.0900,1148.68,1282.17,-937.44
11100,-3.8712,0.3097,0.1398,1914.31,-483.64,1000.12
11110,-3.8712,0.2570,0.1776,-351.32,1891.17,-1031.01
11120,-3.8711,0.2135,0.2074,898.68,-1265.14,1031.56
11130,-3.8711,0.1646,0.2288,-663.82,-1452.76,-577.76
11140,-3.8710,0.1084,0.2460,1070.56,1281.56,-702.70
11150,-3.8708,0.0504,0.2662,1883.06,-515.44,-155.82
11160,-3.8707,-0.0073,0.2847,-1538.82,-1921.81,-780.76
11170,-3.8706,-0.0652,0.2881,-929.44,453.06,16.17
11180,-3.8707,-0.1063,0.2719,-335.69,890.44,-1546.33
11190,-3.8708,-0.1128,0.2478,-1601.32,-1187.74,-93.26
11200,-3.8708,-0.0885,0.2246,1570.56,-265.87,1312.93
11210,-3.8710,-0.0446,0.2042,679.93,765.44,-749.57
11220,-3.8710,0.0059,0.1910,-1695.07,-1843.87,1719.12
11230,-3.8710,0.0543,0.1836,758.06,453.12,1375.37
11240,-3.8710,0.1072,0.1787,-1038.82,-499.94,-1530.94
11250,-3.8710,0.1625,0.1777,1726.81,-1124.82,-390.32
11260,-3.8710,0.2064,0.1799,804.93,-1249.69,-218.44
11270,-3.8710,0.2295,0.1847,-1570.07,-968.38,-812.19
11280,-3.8710,0.2228,0.1948,1383.06,-358.95,1984.68
11290,-3.8710,0.1823,0.2083,523.68,937.93,937.87
11300,-3.8710,0.1139,0.2173,-663.82,-1343.44,281.62
11310,-3.8710,0.0370,0.2168,-1413.82,-187.32,265.99
11320,-3.8710,-0.0188,0.2124,742.43,-249.94,1562.87
11330,-3.8710,-0.0388,0.2172,1601.81,-796.94,-187.13
11340,-3.8708,-0.0277,0.2314,-960.69,-187.62,-1343.38
11350,-3.8707,0.0029,0.2423,461.18,1640.56,1141.05
11360,-3.8707,0.0428,0.2397,383.06,-984.38,-1905.82
11370,-3.8707,0.0813,0.2241,1492.43,-1312.44,1047.30
11380,-3.8708,0.1088,0.2048,-1585.69,687.62,-1702.70
11390,-3.8710,0.1219,0.1923,1929.93,-1781.07,1390.99
11400,-3.8711,0.1213,0.1840,-382.57,609.56,62.87
11410,-3.8712,0.1111,0.1699,-460.69,-452.94,781.56
11420,-3.8713,0.1047,0.1488,-1773.19,1750.18,-109.07
11430,-3.8712,0.1116,0.1335,1414.31,-952.94,1047.12
11440,-3.8712,0.1289,0.1348,-1710.69,1093.93,-1046.63
11450,-3.8711,0.1466,0.1588,508.06,1250.24,1593.99
11460,-3.8711,0.1470,0.1965,-1226.32,328.37,-343.44
11470,-3.8711,0.1270,0.2201,-1179.44,1156.49,-999.63
11480,-3.8711,0.0977,0.2201,258.06,172.12,969.18
11490,-3.8712,0.0619,0.2057,508.06,172.06,-1265.20
11500,-3.8712,0.0208,0.1898,-70.07,-1671.81,390.99
11510,-3.8713,-0.0170,0.1855,-1335.69,296.88,-609.01
11520,-3.8712,-0.0385,0.1947,1836.18,-234.44,422.18
11530,-3.8712,-0.0421,0.2001,-913.82,937.38,1359.74
11540,-3.8712,-0.0349,0.1835,-1382.57,1624.88,844.12
11550,-3.8713,-0.0267,0.1448,-460.69,-500.12,-452.82
11560,-3.8713,-0.0277,0.1021,586.18,-1453.19,-1937.26
11570,-3.8713,-0.0364,0.0775,461.18,1078.06,453.31
11580,-3.8715,-0.0439,0.0768,-648.19,1937.38,-1328.00
11590,-3.8715,-0.0513,0.0814,-1616.94,1843.63,859.50
11600,-3.8716,-0.0599,0.0679,1445.56,-1562.62,-421.75
11610,-3.8716,-0.0597,0.0381,336.18,703.00,-937.38
11620,-3.8716,-0.0465,0.0204,367.43,890.50,-671.81
11630,-3.8715,-0.0293,0.0275,-1945.07,-1375.12,593.75
11640,-3.8715,-0.0137,0.0345,258.06,-468.81,-1609.38
11650,-3.8715,0.0020,0.0225,-1741.94,437.44,-718.69
11660,-3.8715,0.0096,0.0040,258.06,-1125.00,-1093.75
11670,-3.8715,-0.0002,-0.0004,1242.43,515.62,-1171.88
11680,-3.8715,-0.0219,0.0114,-23.19,-31.31,-562.56
11690,-3.8715,-0.0376,0.0243,1211.18,1468.69,-156.25
11700,-3.8713,-0.0372,0.0310,-804.44,-875.12,328.12
11710,-3.8713,-0.0331,0.0349,-757.57,-15.75,812.50
11720,-3.8713,-0.0459,0.0402,-226.32,484.25,671.94
11730,-3.8713,-0.0814,0.0558,-1866.94,1156.13,1125.06
11740,-3.8713,-0.1367,0.0889,1586.18,-843.93,-921.81
11750,-3.8712,-0.2147,0.1338,-1491.94,-609.68,1953.25
11760,-3.8711,-0.3082,0.1752,523.68,1140.20,437.74
11770,-3.8711,-0.3928,0.2021,554.93,-1563.11,1672.18
11780,-3.8711,-0.4508,0.2068,1726.81,1889.83,1187.87
11790,-3.8712,-0.4822,0.1833,-1695.07,-1516.54,-1499.63
11800,-3.8713,-0.4767,0.1461,-1710.69,-516.60,-234.07
11810,-3.8713,-0.4661,0.1226,-1007.57,-1282.23,-531.01
11820,-3.8712,-0.4774,0.1317,351.81,-297.79,1250.18
11830,-3.8712,-0.4846,0.1604,-1101.32,874.02,-1187.26
11840,-3.8711,-0.4932,0.1858,1976.81,545.90,297.18
11850,-3.8710,-0.5179,0.2114,883.06,-204.10,109.68
11860,-3.8708,-0.5859,0.2323,1711.18,-922.91,734.74
11870,-3.8707,-0.6758,0.2311,1008.06,1748.84,281.68
11880,-3.8707,-0.7260,0.2054,1508.06,1592.41,-1530.82
11890,-3.8707,-0.7345,0.1689,-913.82,-1688.96,-640.26
11900,-3.8707,-0.7028,0.1384,1992.43,1639.16,-1046.57
11910,-3.8707,-0.6478,0.1139,-1945.07,1732.97,703.37
11920,-3.8708,-0.5847,0.0951,1086.18,-1407.53,1218.93
11930,-3.8710,-0.5269,0.0819,1164.31,186.34,1265.81
11940,-3.8711,-0.4916,0.0746,570.56,-1501.04,-1187.38
11950,-3.8711,-0.4801,0.0848,1086.18,1561.52,-718.63
11960,-3.8710,-0.4817,0.1117,-1445.07,-1125.98,1265.75
11970,-3.8710,-0.4753,0.1294,-1648.19,-1688.48,-1640.44
11980,-3.8710,-0.4536,0.1221,-835.69,577.15,-1874.76
11990,-3.8710,-0.4232,0.1049,1945.56,-360.29,-1952.94
12000,-3.8710,-0.4052,0.1002,1836.18,1436.65,-952.94
12010,-3.8708,-0.4066,0.1119,148.68,842.96,578.31
12020,-3.8708,-0.4167,0.1290,-38.82,-1657.10,1359.56
12030,-3.8708,-0.4171,0.1449,-1335.69,530.40,1000.24
12040,-3.8710,-0.4064,0.1548,-1382.57,-1438.35,-796.63
12050,-3.8710,-0.3933,0.1534,-7.57,-172.73,187.74
12060,-3.8711,-0.3810,0.1549,1664.31,-344.54,-1984.13
12070,-3.8711,-0.3726,0.1829,-757.57,-157.04,1765.87
12080,-3.8711,-0.3679,0.2311,320.56,-578.86,-1109.07
12090,-3.8710,-0.3616,0.2710,914.31,1593.02,219.18
12100,-3.8710,-0.3472,0.2950,1726.81,-1297.61,1234.86
12110,-3.8710,-0.3365,0.3090,-429.44,1780.52,-1561.95
12120,-3.8710,-0.3417,0.3063,929.93,-438.17,-515.08
12130,-3.8710,-0.3488,0.2767,273.68,-781.92,-530.70
12140,-3.8710,-0.3411,0.2288,-632.57,-563.23,-1374.51
12150,-3.8710,-0.3147,0.1943,351.81,1296.20,-1562.07
12160,-3.8710,-0.2765,0.1953,-273.19,889.95,-1249.63
12170,-3.8710,-0.2327,0.2145,617.43,1015.08,-1671.51
12180,-3.8710,-0.1885,0.2255,-1773.19,-531.74,469.12
12190,-3.8711,-0.1486,0.2267,-116.94,874.57,1578.55
12200,-3.8712,-0.1146,0.2247,992.43,1030.94,-1405.82
12210,-3.8712,-0.0813,0.2190,1336.18,781.01,94.18
12220,-3.8713,-0.0432,0.2195,1601.81,46.69,-749.57
12230,-3.8712,-0.0068,0.2426,-1523.19,109.25,1687.93
12240,-3.8711,0.0155,0.2750,-866.94,-937.56,1937.93
12250,-3.8710,0.0178,0.2919,1992.43,-796.88,1750.49
12260,-3.8708,0.0090,0.2883,-1710.69,1359.38,984.92
12270,-3.8708,-0.0033,0.2729,1164.31,906.25,-1015.08
12280,-3.8708,-0.0201,0.2551,-413.82,-1046.94,-1108.89
12290,-3.8708,-0.0321,0.2384,1429.93,671.81,1375.49
12300,-3.8710,-0.0275,0.2192,-101.32,-1468.87,-874.57
12310,-3.8710,-0.0040,0.1881,492.43,78.06,531.68
12320,-3.8711,0.0375,0.1500,-507.57,93.69,-1546.51
12330,-3.8711,0.0950,0.1333,804.93,-796.81,1000.24
12340,-3.8712,0.1633,0.1521,164.31,1062.68,-234.13
12350,-3.8712,0.2336,0.1843,914.31,-530.94,1984.62
12360,-3.8712,0.2905,0.2075,1914.31,-405.82,47.18
12370,-3.8713,0.3187,0.2139,1195.56,-1436.95,-296.51
12380,-3.8712,0.3158,0.1968,804.93,-624.39,1094.12
12390,-3.8712,0.2899,0.1515,429.93,1188.11,-1202.76
12400,-3.8711,0.2582,0.0911,1117.43,-608.83,31.49
12410,-3.8711,0.2357,0.0416,1054.93,-343.26,547.00
12420,-3.8711,0.2280,0.0114,-1820.07,1328.55,125.06
12430,-3.8712,0.2361,-0.0145,1195.56,1453.55,-500.00
12440,-3.8712,0.2499,-0.0397,-1773.19,-1858.95,-421.94
12450,-3.8712,0.2509,-0.0439,-7.57,-1077.70,-328.25
12460,-3.8712,0.2263,-0.0297,117.43,-1624.51,-1515.75
12470,-3.8712,0.1906,-0.0256,976.81,203.55,1140.56
12480,-3.8712,0.1730,-0.0345,398.68,719.12,1265.56
12490,-3.8712,0.1841,-0.0349,-1851.32,-421.57,-1375.12
12500,-3.8711,0.2166,-0.0287,-429.44,-468.44,140.50
12510,-3.8711,0.2583,-0.0405,-273.19,328.49,1062.44
12520,-3.8711,0.3035,-0.0758,1070.56,-1187.01,1765.50
12530,-3.8711,0.3501,-0.1133,-1148.19,-1702.58,-1578.31
12540,-3.8711,0.3915,-0.1350,820.56,1500.67,-1422.12
12550,-3.8711,0.4202,-0.1399,-1882.57,-1280.52,1655.94
12560,-3.8712,0.4386,-0.1356,1789.31,-1905.46,-156.56
12570,-3.8712,0.4558,-0.1311,148.68,-1358.52,-1234.68
12580,-3.8712,0.4703,-0.1245,-1648.19,-780.40,-797.18
12590,-3.8711,0.4875,-0.1058,211.18,63.42,374.76
12600,-3.8711,0.4982,-0.0719,-1585.69,-1545.96,1874.76
12610,-3.8711,0.4814,-0.0232,-226.32,-1202.21,-234.56
12620,-3.8710,0.4386,0.0297,1633.06,1032.17,1031.19
12630,-3.8710,0.3607,0.0541,148.68,-202.27,984.38
12640,-3.8710,0.2681,0.0453,-1820.07,-1077.45,1234.44
12650,-3.8710,0.1901,0.0377,-1679.44,1797.36,-937.44
12660,-3.8708,0.1215,0.0449,336.18,828.49,1593.81
12670,-3.8707,0.0625,0.0499,-445.07,1750.18,687.56
12680,-3.8706,0.0227,0.0381,8.06,-1609.25,78.19
12690,-3.8706,0.0159,0.0112,-1085.69,875.00,-1828.06
12700,-3.8706,0.0525,-0.0099,-1960.69,1437.50,1531.25
12710,-3.8707,0.1134,-0.0068,-1273.19,-1265.56,1999.94
12720,-3.8708,0.1691,0.0057,-1476.32,-874.82,1093.69
12730,-3.8711,0.2091,0.0006,1648.68,734.68,-140.62
12740,-3.8712,0.2307,-0.0175,-1226.32,78.49,-531.25
12750,-3.8712,0.2305,-0.0261,1539.31,1766.05,1484.31
12760,-3.8712,0.2183,-0.0210,1508.06,656.68,1984.31
12770,-3.8712,0.2125,-0.0112,-54.44,1312.87,-468.81
12780,-3.8711,0.2205,-0.0024,-788.82,-1437.13,953.06
12790,-3.8711,0.2316,0.0089,226.81,-312.07,-1875.06
12800,-3.8711,0.2334,0.0287,1648.68,1141.05,-875.00
12810,-3.8711,0.2180,0.0642,1883.06,-327.70,-921.88
12820,-3.8711,0.1837,0.1088,-85.69,219.12,-1406.13
12830,-3.8711,0.1442,0.1367,-476.32,1922.18,-687.32
12840,-3.8710,0.1136,0.1310,-1538.82,1500.24,218.99
12850,-3.8710,0.0918,0.1008,-1445.07,765.81,515.87
12860,-3.8710,0.0717,0.0662,-241.94,906.37,672.06
12870,-3.8710,0.0542,0.0425,1179.93,468.87,656.37
12880,-3.8711,0.0472,0.0381,-1054.44,1437.56,-374.94
12890,-3.8711,0.0568,0.0461,-1945.07,875.06,-1968.69
12900,-3.8711,0.0863,0.0662,-726.32,1906.31,1906.31
12910,-3.8711,0.1217,0.0895,-945.07,468.87,843.87
12920,-3.8712,0.1477,0.0934,-413.82,-546.69,797.00
12930,-3.8713,0.1689,0.0840,-1085.69,-46.63,1531.37
12940,-3.8713,0.1890,0.0795,1633.06,-1249.69,797.00
12950,-3.8713,0.1998,0.0807,195.56,-1827.76,328.25
12960,-3.8715,0.1990,0.0780,1586.18,-1671.51,-1296.75
12970,-3.8715,0.1913,0.0690,1476.81,1984.74,468.87
12980,-3.8716,0.1771,0.0591,492.43,828.49,-1359.25
12990,-3.8716,0.1536,0.0450,-1320.07,-437.19,1234.44
13000,-3.8717,0.1227,0.0201,-335.69,1765.87,-468.69
13010,-3.8717,0.0953,-0.0137,-288.82,-1421.69,1656.25
13020,-3.8717,0.0837,-0.0479,211.18,-1749.82,46.81
13030,-3.8718,0.0916,-0.0697,-1273.19,1875.12,-1828.25
13040,-3.8718,0.1149,-0.0692,-273.19,-921.75,62.32
13050,-3.8719,0.1411,-0.0493,-1288.82,-859.19,-1640.81
13060,-3.8719,0.1595,-0.0208,-1929.44,1687.74,-1953.25
13070,-3.8719,0.1702,0.0101,429.93,1344.06,-578.19
13080,-3.8718,0.1720,0.0397,1789.31,1297.18,-1937.50
13090,-3.8717,0.1532,0.0646,-1976.32,1078.43,1625.06
13100,-3.8716,0.1051,0.0850,-382.57,265.87,1672.00
13110,-3.8715,0.0383,0.1007,1461.18,-1124.82,-1828.00
13120,-3.8713,-0.0244,0.1074,914.31,890.69,-1359.19
13130,-3.8712,-0.0665,0.1057,883.06,1765.56,-1624.82
13140,-3.8711,-0.0837,0.1047,-507.57,1546.69,1203.31
13150,-3.8711,-0.0785,0.1099,1289.31,1421.69,-734.19
13160,-3.8710,-0.0603,0.1190,1961.18,-1922.06,1562.68
13170,-3.8708,-0.0469,0.1316,289.31,-750.12,703.31
13180,-3.8708,-0.0573,0.1515,-1991.94,859.25,-359.13
13190,-3.8707,-0.1056,0.1785,679.93,-593.87,1547.12
13200,-3.8707,-0.1938,0.2059,-1507.57,-1140.87,-1030.94
13210,-3.8706,-0.3071,0.2290,-804.44,-1625.43,765.99
13220,-3.8706,-0.4209,0.2423,695.56,1327.51,-1468.32
13230,-3.8706,-0.5110,0.2411,-1866.94,-969.60,-749.57
13240,-3.8706,-0.5626,0.2294,-1398.19,-1126.04,-562.07
13250,-3.8705,-0.5658,0.2144,-7.57,1373.84,31.68
13260,-3.8705,-0.5620,0.1953,-413.82,-548.03,984.74
13270,-3.8705,-0.5753,0.1750,70.56,1014.53,1750.37
13280,-3.8705,-0.5594,0.1536,-1632.57,-1579.28,812.81
13290,-3.8706,-0.5026,0.1201,398.68,-329.22,-1687.26
13300,-3.8707,-0.4298,0.0812,-320.07,-610.41,-484.19
13310,-3.8707,-0.3759,0.0488,992.43,-1594.60,156.37
13320,-3.8708,-0.3374,0.0240,-101.32,-1735.17,718.81
13330,-3.8710,-0.2958,0.0072,820.56,-906.92,-1265.62
13340,-3.8710,-0.2626,0.0078,-1851.32,936.89,-1125.00
13350,-3.8710,-0.2562,0.0292,-1601.32,1015.08,-343.75
13360,-3.8710,-0.2692,0.0571,-788.82,-250.55,-62.50
13370,-3.8708,-0.2799,0.0844,1554.93,-672.42,875.06
13380,-3.8708,-0.2988,0.1183,179.93,-1188.05,-1015.50
13390,-3.8707,-0.3215,0.1589,1758.06,-844.36,1015.81
13400,-3.8707,-0.3396,0.1857,-1148.19,358.70,-1890.32
13410,-3.8707,-0.3535,0.1853,539.31,-219.42,1781.56
13420,-3.8707,-0.3618,0.1633,-1241.94,-266.36,187.81
13430,-3.8708,-0.3684,0.1292,1695.56,921.14,-1765.32
13440,-3.8708,-0.3699,0.0925,851.81,546.14,390.87
13450,-3.8710,-0.3596,0.0676,664.31,-141.36,-1421.75
13460,-3.8710,-0.3367,0.0657,1976.81,671.14,640.75
13470,-3.8711,-0.3077,0.0825,914.31,421.20,-874.88
13480,-3.8711,-0.2731,0.0981,617.43,-1422.49,-1640.50
13490,-3.8711,-0.2313,0.0994,1054.93,577.58,1828.31
13500,-3.8711,-0.1791,0.0964,-1601.32,733.89,1672.06
13510,-3.8711,-0.1229,0.1046,1086.18,359.01,1953.31
13520,-3.8711,-0.0759,0.1238,273.68,1406.01,-1702.94
13530,-3.8711,-0.0411,0.1395,-1710.69,-140.81,-1562.32
13540,-3.8711,-0.0143,0.1384,-1257.57,1874.88,1531.49
13550,-3.8712,0.0073,0.1198,-1820.07,1734.31,-327.88
13560,-3.8712,0.0227,0.0946,945.56,-671.88,-1984.19
13570,-3.8712,0.0350,0.0748,-1085.69,109.38,1343.93
13580,-3.8712,0.0476,0.0718,492.43,1578.19,1547.00
13590,-3.8712,0.0593,0.0879,-1898.19,1187.56,-1734.25
13600,-3.8712,0.0690,0.1111,-398.19,-749.94,-531.13
13610,-3.8711,0.0739,0.1317,836.18,-1781.13,922.06
13620,-3.8711,0.0724,0.1498,1461.18,859.50,-1421.63
13630,-3.8711,0.0642,0.1625,1273.68,-828.00,-296.63
13640,-3.8711,0.0479,0.1622,226.81,797.00,-718.44
13650,-3.8711,0.0261,0.1490,-1866.94,765.69,1828.43
13660,-3.8711,0.0057,0.1301,-648.19,-921.88,500.24
13670,-3.8712,-0.0085,0.1141,742.43,656.25,-499.76
13680,-3.8712,-0.0139,0.1096,-1085.69,-1375.06,-1484.19
13690,-3.8712,-0.0068,0.1167,-1773.19,-1953.19,1890.81
13700,-3.8712,0.0083,0.1289,-866.94,-1046.94,1547.06
13710,-3.8712,0.0222,0.1372,1070.56,500.00,1797.12
13720,-3.8712,0.0312,0.1406,-1148.19,1562.50,-312.26
13730,-3.8711,0.0392,0.1477,8.06,-1999.94,-1827.88
13740,-3.8711,0.0536,0.1537,1023.68,-1093.69,-1077.88
13750,-3.8711,0.0758,0.1503,-1132.57,-328.06,-1874.76
13760,-3.8711,0.0994,0.1427,1711.18,-765.50,1297.12
13770,-3.8711,0.1251,0.1268,726.81,-1734.19,593.99
13780,-3.8712,0.1539,0.0931,23.68,234.62,-796.63
13790,-3.8712,0.1738,0.0518,-288.82,-77.88,1812.62
13800,-3.8712,0.1851,0.0277,-1741.94,-1374.69,1140.69
13810,-3.8712,0.1973,0.0234,-304.44,-452.82,578.12
13820,-3.8713,0.2072,0.0217,1258.06,-999.63,-343.75
13830,-3.8713,0.2104,0.0217,-1476.32,-1218.38,-1203.12
13840,-3.8713,0.2137,0.0314,-1054.44,-1218.38,-1703.12
13850,-3.8713,0.2255,0.0498,-632.57,15.99,1484.44
13860,-3.8713,0.2443,0.0673,867.43,-1624.57,359.44
13870,-3.8715,0.2623,0.0723,-726.32,609.80,-609.25
13880,-3.8715,0.2781,0.0585,1586.18,1250.49,-140.50
13890,-3.8713,0.2968,0.0369,-398.19,-515.14,-1640.56
13900,-3.8712,0.3118,0.0182,1992.43,719.30,1234.44
13910,-3.8712,0.3151,0.0051,-85.69,-1671.33,-453.12
13920,-3.8711,0.3070,0.0012,336.18,656.86,1703.12
13930,-3.8711,0.2860,0.0055,-695.07,156.80,-109.38
13940,-3.8710,0.2551,0.0159,617.43,703.67,1875.00
13950,-3.8710,0.2236,0.0333,664.31,-1968.26,-640.62
13960,-3.8708,0.2015,0.0548,633.06,266.05,1218.81
13970,-3.8707,0.1967,0.0712,1804.93,-984.01,953.19
13980,-3.8706,0.2195,0.0741,1179.93,1109.74,-999.88
13990,-3.8704,0.2699,0.0610,101.81,1484.80,1562.62
14000,-3.8702,0.3373,0.0420,-1445.07,-187.01,1734.44
14010,-3.8702,0.4133,0.0240,-820.07,1375.61,-1953.06
14020,-3.8704,0.4821,0.0034,914.31,-921.08,-703.12
14030,-3.8705,0.5187,-0.0177,1711.18,438.42,-984.38
14040,-3.8706,0.5033,-0.0342,-1601.32,1735.35,-1843.81
14050,-3.8707,0.4630,-0.0420,429.93,-374.02,1515.50
14060,-3.8708,0.4056,-0.0397,-726.32,-1374.15,1656.13
14070,-3.8710,0.3188,-0.0345,-70.07,-1077.39,-1031.37
14080,-3.8710,0.2318,-0.0265,820.56,-421.26,1312.38
14090,-3.8710,0.1687,-0.0101,1679.93,609.80,671.81
14100,-3.8710,0.1263,-0.0021,1601.81,-1296.57,937.44
14110,-3.8710,0.0974,-0.0151,179.93,-265.38,1671.81
14120,-3.8710,0.0861,-0.0398,476.81,-1937.32,1562.44
14130,-3.8711,0.0957,-0.0676,-976.32,-1093.63,-250.12
14140,-3.8711,0.1272,-0.0939,258.06,-656.07,890.44
14150,-3.8712,0.1732,-0.1039,289.31,-15.38,1499.76
14160,-3.8713,0.2240,-0.0964,-1820.07,-1296.57,-1797.12
14170,-3.8713,0.2715,-0.0795,679.93,-343.32,390.38
14180,-3.8713,0.2993,-0.0564,-1241.94,1828.61,1156.07
14190,-3.8713,0.3053,-0.0345,-1679.44,781.80,-750.12
14200,-3.8712,0.3114,-0.0211,-913.82,-421.33,1140.50
14210,-3.8712,0.3372,-0.0261,-132.57,1297.42,-1187.56
14220,-3.8711,0.3784,-0.0397,-835.69,656.86,687.44
14230,-3.8711,0.4196,-0.0443,445.56,-1077.39,-1640.75
14240,-3.8711,0.4574,-0.0388,1711.18,-1671.08,-890.75
14250,-3.8711,0.4948,-0.0317,-1445.07,-967.90,-734.50
14260,-3.8711,0.5179,-0.0220,-663.82,-61.58,-1390.75
14270,-3.8712,0.5100,-0.0095,-1695.07,1188.48,-640.69
14280,-3.8713,0.4713,-0.0054,1289.31,-1217.77,1781.19
14290,-3.8715,0.4172,-0.0066,336.18,-686.58,171.81
14300,-3.8716,0.3707,0.0006,1414.31,-842.96,328.06
14310,-3.8717,0.3470,0.0179,-538.82,78.80,-859.38
14320,-3.8716,0.3461,0.0277,429.93,-1702.45,265.62
14330,-3.8716,0.3557,0.0258,304.93,-452.45,-703.12
14340,-3.8715,0.3549,0.0283,1539.31,-702.45,-843.75
14350,-3.8713,0.3245,0.0354,1429.93,-374.33,1781.25
14360,-3.8713,0.2705,0.0354,1539.31,531.86,-1156.19
14370,-3.8713,0.2201,0.0312,-1366.94,531.74,-359.31
14380,-3.8713,0.1733,0.0210,179.93,0.43,-406.19
14390,-3.8713,0.1194,-0.0035,-1804.44,-1312.19,1812.50
14400,-3.8715,0.0659,-0.0225,-710.69,-452.94,-1031.31
14410,-3.8715,0.0228,-0.0122,445.56,1125.12,874.94
14420,-3.8715,0.0029,0.0118,-1070.07,-1562.50,656.19
14430,-3.8715,0.0179,0.0254,383.06,1515.62,1218.75
14440,-3.8715,0.0662,0.0308,-1695.07,-750.00,-1296.88
14450,-3.8713,0.1311,0.0283,476.81,-62.38,1765.62
14460,-3.8712,0.1931,0.0063,789.31,-374.76,187.50
14470,-3.8713,0.2345,-0.0334,726.81,812.87,-656.25
14480,-3.8715,0.2529,-0.0771,-1976.32,-280.82,-359.50
14490,-3.8716,0.2505,-0.1172,383.06,-1874.51,-1297.06
14500,-3.8717,0.2263,-0.1461,70.56,1000.49,-1781.49
14510,-3.8718,0.1823,-0.1431,976.81,1297.30,-156.56
14520,-3.8717,0.1250,-0.1023,-663.82,1687.81,187.19
14530,-3.8717,0.0739,-0.0485,8.06,-1093.51,-984.62
14540,-3.8715,0.0450,-0.0099,1461.18,1797.00,546.75
14550,-3.8713,0.0392,0.0104,1773.68,-1265.56,-437.56
14560,-3.8711,0.0404,0.0317,1023.68,1328.19,1593.75
14570,-3.8710,0.0339,0.0536,1179.93,62.56,1609.44
14580,-3.8710,0.0179,0.0515,351.81,-1140.56,-562.44
14590,-3.8710,-0.0021,0.0273,-1695.07,-1406.25,-593.69
14600,-3.8710,-0.0171,0.0040,-257.57,-484.44,-1390.62
14610,-3.8710,-0.0206,-0.0055,1820.56,531.19,1640.62
14620,-3.8710,-0.0145,0.0011,1367.43,-687.56,1046.81
14630,-3.8710,-0.0074,0.0114,-1851.32,156.19,1015.62
14640,-3.8710,-0.0087,0.0122,-945.07,1468.69,1500.00
14650,-3.8710,-0.0250,0.0139,-1101.32,1578.06,-1359.38
14660,-3.8708,-0.0565,0.0328,804.93,1796.81,218.75
14670,-3.8708,-0.1005,0.0657,773.68,218.63,-1531.19
14680,-3.8707,-0.1523,0.0975,-851.32,421.63,1812.62
14690,-3.8706,-0.2069,0.1165,508.06,499.69,1297.06
14700,-3.8706,-0.2677,0.1150,1523.68,-1078.55,-671.69
14710,-3.8706,-0.3370,0.0896,1742.43,-1266.17,-671.69
14720,-3.8706,-0.4109,0.0476,867.43,-516.30,-1781.13
14730,-3.8706,-0.4872,0.0132,-585.69,-1891.48,1468.81
14740,-3.8706,-0.5592,0.0074,1648.68,1702.15,-1156.25
14750,-3.8705,-0.6053,0.0183,429.93,967.65,-1000.00
14760,-3.8702,-0.6349,0.0250,-1476.32,-1641.85,140.62
14770,-3.8702,-0.6304,0.0242,-1257.57,-782.53,-1593.75
14780,-3.8702,-0.5624,0.0090,-679.44,-891.91,453.12
14790,-3.8704,-0.4678,-0.0219,23.68,1170.78,453.12
14800,-3.8706,-0.4091,-0.0486,133.06,1217.83,-265.69
14810,-3.8707,-0.3948,-0.0582,-351.32,1796.02,-922.00
14820,-3.8708,-0.3865,-0.0629,1476.81,561.71,-47.00
14830,-3.8708,-0.3833,-0.0681,-1460.69,-32.04,-1000.18
14840,-3.8708,-0.3931,-0.0671,-1054.44,-703.92,-1390.81
14850,-3.8708,-0.3967,-0.0569,1695.56,-578.92,1749.82
14860,-3.8708,-0.3956,-0.0425,1226.81,733.58,-1937.62
14870,-3.8707,-0.3956,-0.0249,1367.43,-1422.67,374.88
14880,-3.8707,-0.3883,0.0035,1367.43,827.33,-578.19
14890,-3.8706,-0.3826,0.0354,-1695.07,467.96,-1406.25
14900,-3.8705,-0.3826,0.0507,-960.69,546.08,1484.44
14910,-3.8705,-0.3799,0.0415,-960.69,-1500.79,-1359.31
14920,-3.8705,-0.3668,0.0176,-616.94,1327.33,828.19
14930,-3.8706,-0.3423,-0.0092,1054.93,-1735.11,546.88
14940,-3.8708,-0.3129,-0.0316,195.56,-1156.92,-265.69
14950,-3.8710,-0.2828,-0.0404,-38.82,-31.92,-703.25
14960,-3.8710,-0.2548,-0.0233,-195.07,-1156.86,421.75
14970,-3.8710,-0.2292,0.0137,-601.32,1030.70,390.56
14980,-3.8710,-0.1993,0.0513,-1335.69,1765.14,-1375.00
14990,-3.8708,-0.1641,0.0820,-1507.57,-1422.30,1140.69
15000,-3.8708,-0.1239,0.1117,-991.94,-1484.74,-1499.88
15010,-3.8708,-0.0800,0.1311,148.68,-1687.74,-1702.94
15020,-3.8708,-0.0372,0.1228,1773.68,796.69,609.62
15030,-3.8710,-0.0105,0.0914,-757.57,-265.75,1875.18
15040,-3.8711,-0.0099,0.0594,-1335.69,-281.31,-1499.88
15050,-3.8712,-0.0253,0.0393,-1257.57,-375.06,-1015.56
15060,-3.8713,-0.0391,0.0282,773.68,1046.81,-874.94
15070,-3.8715,-0.0472,0.0237,-991.94,-375.12,-1031.25
15080,-3.8715,-0.0524,0.0306,1961.18,-953.25,265.62
15090,-3.8716,-0.0502,0.0554,1304.93,-62.62,-453.12
15100,-3.8716,-0.0356,0.0948,1586.18,-890.75,-406.19
15110,-3.8715,-0.0103,0.1379,-554.44,156.13,234.56
15120,-3.8715,0.0142,0.1749,-1304.44,1671.81,1843.99
15130,-3.8713,0.0269,0.1880,1820.56,-1609.38,453.43
15140,-3.8713,0.0269,0.1643,-554.44,62.50,-421.51
15150,-3.8712,0.0232,0.1202,-554.44,1031.25,-1890.32
15160,-3.8712,0.0243,0.0864,-1023.19,-609.38,-921.69
15170,-3.8712,0.0322,0.0812,-882.57,-937.50,-1703.00
15180,-3.8712,0.0491,0.0966,133.06,-1609.31,500.12
15190,-3.8713,0.0839,0.1127,-1710.69,359.44,-906.07
15200,-3.8713,0.1394,0.1168,-1257.57,-1578.00,-1031.07
15210,-3.8713,0.2073,0.1041,1851.81,-1046.63,-109.19
15220,-3.8712,0.2804,0.0848,-1460.69,1328.49,859.56
15230,-3.8712,0.3511,0.0720,-101.32,-1140.14,718.87
15240,-3.8712,0.4159,0.0658,945.56,1219.42,0.12
15250,-3.8713,0.4803,0.0615,1242.43,422.67,-796.75
15260,-3.8713,0.5543,0.0583,1492.43,-124.08,-1390.56
15270,-3.8713,0.6343,0.0551,-1038.82,-530.21,-1624.94
15280,-3.8713,0.7008,0.0476,1195.56,-951.90,-1078.06
15290,-3.8712,0.7344,0.0332,1711.18,-1904.91,718.81
15300,-3.8712,0.7617,0.0133,-1991.94,251.40,-1187.44
15310,-3.8711,0.7844,-0.0070,1508.06,1704.59,781.25
15320,-3.8711,0.7710,-0.0208,414.31,-889.10,-1937.56
15330,-3.8711,0.7307,-0.0276,-1304.44,1345.21,-1531.31
15340,-3.8711,0.6969,-0.0310,1539.31,470.15,-1578.19
15350,-3.8711,0.6683,-0.0359,1211.18,32.59,-1687.56
15360,-3.8711,0.6216,-0.0396,1554.93,-592.47,-1609.50
15370,-3.8711,0.5808,-0.0385,-429.44,-1061.34,-1547.00
15380,-3.8711,0.5677,-0.0339,-1648.19,-920.78,-1109.50
15390,-3.8711,0.5613,-0.0228,679.93,-342.65,-0.12
15400,-3.8710,0.5457,-0.0082,-148.19,1079.16,1546.81
15410,-3.8710,0.5382,0.0031,1851.81,-1045.84,-843.81
15420,-3.8708,0.5338,0.0082,898.68,391.66,453.12
15430,-3.8708,0.5397,0.0111,336.18,1047.91,1296.88
15440,-3.8708,0.5621,0.0200,1086.18,1422.91,1390.62
15450,-3.8708,0.5806,0.0304,-38.82,-1436.46,796.88
15460,-3.8710,0.5878,0.0281,-1679.44,-108.28,-843.75
15470,-3.8710,0.5923,0.0126,-757.57,-405.15,46.88
15480,-3.8712,0.5967,-0.0066,-179.44,1610.47,-406.25
15490,-3.8713,0.5952,-0.0155,383.06,-842.59,-875.06
15500,-3.8713,0.5826,-0.0098,195.56,-1983.22,265.56
15510,-3.8715,0.5642,0.0061,-1413.82,-1248.90,-468.81
15520,-3.8713,0.5549,0.0245,226.81,782.35,468.75
15530,-3.8713,0.5529,0.0435,-960.69,-858.34,-1953.12
15540,-3.8713,0.5435,0.0681,-1226.32,1563.54,-953.06
15550,-3.8713,0.5172,0.0907,1570.56,719.79,-359.25
15560,-3.8712,0.4877,0.0930,-1788.82,-389.65,1218.87
15570,-3.8712,0.4688,0.0753,-1570.07,-92.83,-562.38
15580,-3.8711,0.4602,0.0642,8.06,1641.54,875.12
15590,-3.8711,0.4529,0.0736,-1085.69,219.60,1593.87
15600,-3.8711,0.4376,0.0868,1976.81,1422.73,-1171.75
15610,-3.8710,0.4104,0.0841,23.68,-889.77,875.12
15620,-3.8710,0.3745,0.0658,539.31,-1233.58,-734.25
15630,-3.8708,0.3339,0.0410,-54.44,422.55,1172.00
15640,-3.8708,0.3086,0.0248,-1257.57,1250.61,-1703.06
15650,-3.8708,0.3147,0.0133,-491.94,-827.58,-765.62
15660,-3.8707,0.3372,-0.0149,289.31,1703.74,437.50
15670,-3.8707,0.3615,-0.0437,-835.69,-1905.64,-875.06
15680,-3.8706,0.3757,-0.0468,-1726.32,-1593.08,-609.50
15690,-3.8705,0.3716,-0.0327,101.81,-1983.64,-812.62
15700,-3.8704,0.3483,-0.0214,-429.44,-186.83,1296.75
15710,-3.8704,0.3053,-0.0084,586.18,1266.30,968.69
15720,-3.8705,0.2450,0.0139,-913.82,-1077.58,890.56
15730,-3.8707,0.1793,0.0414,-632.57,1781.68,1046.88
15740,-3.8711,0.1257,0.0765,-1038.82,1297.18,-31.19
15750,-3.8712,0.0956,0.1132,101.81,1797.12,172.00
15760,-3.8715,0.0959,0.1252,242.43,-1515.44,-109.19
15770,-3.8715,0.1204,0.1042,289.31,31.43,-374.76
15780,-3.8713,0.1418,0.0723,-585.69,1343.93,1047.06
15790,-3.8713,0.1340,0.0554,-1835.69,1250.24,-1999.88
15800,-3.8713,0.0905,0.0663,1164.31,-906.01,1937.56
15810,-3.8713,0.0260,0.0980,-413.82,484.50,1312.62
15820,-3.8713,-0.0359,0.1263,-663.82,546.88,562.68
15830,-3.8715,-0.0812,0.1268,-585.69,187.38,-468.51
15840,-3.8715,-0.1060,0.1003,1617.43,249.82,-1999.76
15850,-3.8715,-0.1123,0.0629,-1554.44,859.13,437.68
15860,-3.8716,-0.1060,0.0337,1633.06,62.26,-31.13
15870,-3.8715,-0.0989,0.0333,-1554.44,327.88,718.81
15880,-3.8715,-0.0972,0.0579,-648.19,281.01,-1999.94
15890,-3.8715,-0.0950,0.0767,-429.44,-578.37,-609.31
15900,-3.8713,-0.0934,0.0710,-148.19,1827.88,812.62
15910,-3.8713,-0.1117,0.0667,54.93,1109.19,-1187.38
15920,-3.8712,-0.1664,0.1099,1711.18,546.63,-1468.63
15930,-3.8710,-0.2538,0.2065,-1288.82,-1922.24,687.68
15940,-3.8707,-0.3574,0.3047,-476.32,-1547.42,1250.37
15950,-3.8705,-0.4717,0.3362,-1741.94,-985.11,-1561.95
15960,-3.8702,-0.5963,0.2721,-366.94,-954.10,-1811.89
15970,-3.8701,-0.7155,0.1584,-320.07,-1157.47,-827.64
15980,-3.8701,-0.7993,0.0687,429.93,295.47,-421.57
15990,-3.8702,-0.8762,0.0327,1695.56,810.91,-1218.63
16000,-3.8705,-0.9506,0.0303,-148.19,201.35,-687.44
16010,-3.8707,-0.9410,0.0247,-1663.82,-111.27,-640.62
16020,-3.8710,-0.8572,0.0005,-445.07,-830.02,-625.00
16030,-3.8711,-0.7618,-0.0212,-1710.69,76.42,187.50
16040,-3.8713,-0.6531,-0.0251,-1507.57,1295.35,1546.81
16050,-3.8716,-0.5405,-0.0253,414.31,795.59,-1281.31
16060,-3.8717,-0.4636,-0.0272,-1179.44,780.15,874.94
16070,-3.8718,-0.4067,-0.0209,664.31,530.33,1265.56
16080,-3.8719,-0.3468,-0.0028,-54.44,1342.90,-0.06
16090,-3.8718,-0.3199,0.0295,-382.57,-344.48,1062.44
16100,-3.8717,-0.3500,0.0797,-945.07,-203.80,1031.25
16110,-3.8716,-0.4128,0.1250,-788.82,-1781.98,-671.75
16120,-3.8713,-0.4829,0.1360,-835.69,14.77,1359.62
16130,-3.8712,-0.5278,0.1171,-1804.44,1420.90,890.87
16140,-3.8712,-0.5310,0.0925,445.56,-1001.04,-1812.32
16150,-3.8712,-0.5067,0.0817,39.31,-141.66,-1687.38
16160,-3.8712,-0.4694,0.0931,-851.32,-1532.29,1640.75
16170,-3.8712,-0.4309,0.1266,-70.07,-63.48,797.00
16180,-3.8712,-0.3958,0.1781,851.81,217.90,375.24
16190,-3.8712,-0.3694,0.2358,1351.81,-1188.29,875.31
16200,-3.8712,-0.3461,0.2867,726.81,-1797.61,-1124.57
16210,-3.8711,-0.3208,0.3232,-288.82,718.02,1844.30
16220,-3.8710,-0.3035,0.3429,-1054.44,1389.95,719.36
16230,-3.8710,-0.3119,0.3477,1164.31,-94.36,-1436.89
16240,-3.8710,-0.3566,0.3416,86.18,515.01,-264.95
16250,-3.8708,-0.4174,0.3270,-1632.57,-266.36,609.99
16260,-3.8708,-0.4591,0.3103,-1413.82,1874.15,516.24
16270,-3.8710,-0.4614,0.3040,1242.43,-266.54,-858.83
16280,-3.8710,-0.4250,0.3053,945.56,-1079.04,703.67
16290,-3.8711,-0.3503,0.3126,1601.81,-907.10,-1171.33
16300,-3.8711,-0.2488,0.3407,-835.69,30.52,1984.99
16310,-3.8711,-0.1453,0.3883,164.31,-375.49,734.99
16320,-3.8712,-0.0492,0.4342,1414.31,1718.44,-46.14
16330,-3.8711,0.0447,0.4570,1711.18,-406.37,797.67
16340,-3.8711,0.1349,0.4490,1726.81,-1499.94,1125.85
16350,-3.8711,0.2058,0.4154,1273.68,1468.99,922.73
16360,-3.8711,0.2410,0.3687,-1648.19,1172.24,922.67
16370,-3.8711,0.2437,0.3208,-1148.19,-812.07,344.42
16380,-3.8712,0.2368,0.2885,-804.44,1062.93,-124.39
16390,-3.8712,0.2367,0.2897,-1679.44,922.30,-546.33
16400,-3.8712,0.2466,0.3107,-1695.07,1078.55,-874.45
16410,-3.8712,0.2678,0.3208,-429.44,-233.95,-46.33
16420,-3.8711,0.2958,0.3231,-1710.69,1062.99,1656.86
16430,-3.8711,0.3204,0.3263,1867.43,1359.92,-827.51
16440,-3.8711,0.3364,0.3247,1023.68,1766.24,-233.76
16450,-3.8711,0.3467,0.3251,-929.44,1563.11,-686.89
16460,-3.8711,0.3556,0.3315,383.06,1610.05,-1546.26
16470,-3.8711,0.3649,0.3335,1523.68,-1561.83,-1452.51
16480,-3.8710,0.3806,0.3229,-1288.82,-1311.83,938.11
16490,-3.8708,0.4053,0.3076,726.81,1328.86,141.24
16500,-3.8708,0.4319,0.2950,-116.94,-624.27,1297.42
16510,-3.8708,0.4597,0.2898,-710.69,1766.42,703.67
16520,-3.8710,0.4974,0.2910,-1148.19,1094.60,-655.70
16530,-3.8710,0.5443,0.2817,-320.07,1250.92,1422.42
16540,-3.8711,0.6147,0.2565,1679.93,63.54,-265.08
16550,-3.8711,0.7076,0.2258,-1304.44,829.28,-1062.01
16560,-3.8711,0.7864,0.2053,-1413.82,907.59,-999.57
16570,-3.8711,0.8608,0.2043,664.31,-1717.22,-1515.26
16580,-3.8711,0.9210,0.2094,-1804.44,-1842.10,1203.49
16590,-3.8711,0.9451,0.2058,1898.68,-1201.35,250.37
16600,-3.8711,0.9330,0.1918,976.81,-1654.42,62.87
16610,-3.8711,0.8893,0.1709,-570.07,548.65,609.74
16620,-3.8711,0.8318,0.1477,1836.18,1876.71,1250.31
16630,-3.8711,0.7765,0.1266,-1523.19,-1092.16,1172.12
16640,-3.8711,0.7236,0.1168,-601.32,204.59,78.37
16650,-3.8712,0.6687,0.1237,633.06,-1045.47,-1093.57
16660,-3.8712,0.6128,0.1428,1601.81,-170.59,-1593.57
16670,-3.8712,0.5482,0.1698,-1554.44,-1717.59,-1952.88
16680,-3.8712,0.4695,0.2020,-1820.07,1735.41,-1984.07
16690,-3.8712,0.3849,0.2288,101.81,1860.29,-890.26
16700,-3.8711,0.3058,0.2421,1273.68,1281.98,641.05
16710,-3.8711,0.2389,0.2406,-851.32,-1015.08,1219.18
16720,-3.8711,0.2023,0.2209,-1413.82,-1202.70,797.30
16730,-3.8712,0.2009,0.1873,1898.68,281.62,-77.70
16740,-3.8712,0.2306,0.1536,1726.81,-30.88,-1405.94
16750,-3.8712,0.2800,0.1333,1523.68,-343.32,797.12
16760,-3.8713,0.3296,0.1350,-148.19,1062.99,-1859.13
16770,-3.8715,0.3616,0.1478,-1804.44,1281.86,-1312.26
16780,-3.8715,0.3723,0.1575,-1710.69,-1077.45,234.62
16790,-3.8716,0.3658,0.1686,-335.69,156.92,-312.19
16800,-3.8715,0.3447,0.1765,-1163.82,1578.80,297.18
16810,-3.8715,0.3165,0.1746,133.06,-1405.58,1875.31
16820,-3.8715,0.2878,0.1715,523.68,-1655.64,-296.57
16830,-3.8713,0.2595,0.1726,851.81,1953.67,500.31
16840,-3.8713,0.2367,0.1768,1226.81,-1905.76,328.43
16850,-3.8713,0.2256,0.1851,-1695.07,-1374.57,0.31
16860,-3.8713,0.2205,0.2001,883.06,-312.07,62.81
16870,-3.8713,0.2185,0.2206,226.81,1609.80,1015.99
16880,-3.8713,0.2240,0.2400,-23.19,234.74,-1483.95
16890,-3.8712,0.2396,0.2496,679.93,-1280.82,125.43
16900,-3.8712,0.2637,0.2439,-1320.07,-46.45,-1733.95
16910,-3.8711,0.2926,0.2534,1758.06,-780.76,-1843.32
16920,-3.8710,0.3074,0.2832,1461.18,438.05,1406.74
16930,-3.8710,0.2990,0.2959,-648.19,250.55,1750.55
16940,-3.8710,0.2760,0.2863,-1726.32,1875.55,1219.30
16950,-3.8710,0.2394,0.2695,-663.82,641.11,1328.67
16960,-3.8710,0.1969,0.2593,-1351.32,-1499.57,1516.11
16970,-3.8710,0.1652,0.2559,1211.18,1187.87,812.99
16980,-3.8711,0.1550,0.2596,1148.68,750.31,-358.89
16990,-3.8711,0.1687,0.2720,-148.19,1234.62,-1233.89
17000,-3.8711,0.2023,0.2836,1601.81,-1187.19,-1749.51
17010,-3.8711,0.2452,0.2869,1898.68,297.24,-1968.20
17020,-3.8711,0.2858,0.2812,-601.32,719.18,-1218.20
17030,-3.8711,0.3149,0.2704,586.18,0.55,-124.45
17040,-3.8711,0.3334,0.2600,320.56,-1390.01,-265.14
17050,-3.8711,0.3392,0.2546,-1320.07,1281.86,1734.86
17060,-3.8712,0.3311,0.2566,-570.07,594.36,-1140.14
17070,-3.8712,0.3086,0.2670,-1616.94,844.36,453.61
17080,-3.8713,0.2656,0.2803,-491.94,-1827.58,-687.01
17090,-3.8713,0.2058,0.2832,-1991.94,-124.51,-390.14
17100,-3.8712,0.1437,0.2734,-1648.19,250.37,938.05
17110,-3.8712,0.0938,0.2699,-1601.32,-999.76,-218.26
17120,-3.8710,0.0679,0.2858,8.06,-1452.94,172.36
17130,-3.8708,0.0630,0.3164,695.56,578.25,484.92
17140,-3.8708,0.0580,0.3610,70.56,500.12,-249.39
17150,-3.8707,0.0342,0.4105,-570.07,-1796.81,-1452.45
17160,-3.8706,-0.0132,0.4387,383.06,546.94,266.42
17170,-3.8707,-0.0861,0.4368,-1679.44,171.81,-233.52
17180,-3.8707,-0.1893,0.4181,992.43,-78.31,1110.17
17190,-3.8708,-0.3120,0.3958,-226.32,1530.82,1782.04
17200,-3.8710,-0.4229,0.3730,70.56,-1328.74,-1249.27
17210,-3.8710,-0.4955,0.3519,1883.06,-235.23,94.42
17220,-3.8711,-0.5289,0.3354,586.18,1061.52,-1358.70
17230,-3.8711,-0.5211,0.3237,304.93,-1047.91,-233.76
17240,-3.8710,-0.5181,0.3031,1304.93,1452.09,-952.51
17250,-3.8708,-0.5448,0.2760,1695.56,-1188.54,-1624.45
17260,-3.8707,-0.5652,0.2570,-1726.32,-657.35,94.24
17270,-3.8707,-0.5665,0.2416,-335.69,905.09,1281.74
17280,-3.8707,-0.5548,0.2240,-507.57,-1063.66,-1499.57
17290,-3.8707,-0.5403,0.1979,992.43,686.40,-1749.57
17300,-3.8707,-0.5106,0.1647,-1148.19,1342.65,62.87
17310,-3.8708,-0.4636,0.1394,-1351.32,1092.71,1172.18
17320,-3.8710,-0.4406,0.1328,664.31,1858.46,-1046.63
17330,-3.8710,-0.4490,0.1392,-382.57,1014.71,1406.49
17340,-3.8710,-0.4569,0.1432,-1460.69,1827.21,328.37
17350,-3.8711,-0.4756,0.1378,1523.68,-1657.17,-156.01
17360,-3.8710,-0.4957,0.1334,-866.94,1655.27,328.37
17370,-3.8710,-0.4989,0.1344,554.93,1092.77,1078.37
17380,-3.8710,-0.4851,0.1381,148.68,1217.77,1515.87
17390,-3.8710,-0.4597,0.1465,1914.31,1686.52,1968.99
17400,-3.8710,-0.4376,0.1614,1164.31,-1235.29,-1187.26
17410,-3.8710,-0.4285,0.1816,-7.57,670.96,-359.07
17420,-3.8708,-0.4303,0.2031,1164.31,-735.23,47.18
17430,-3.8708,-0.4343,0.2186,929.93,-1985.23,78.49
17440,-3.8708,-0.4388,0.2273,414.31,-0.85,578.49
17450,-3.8708,-0.4440,0.2361,-163.82,1108.46,-1624.57
17460,-3.8707,-0.4480,0.2487,-820.07,-1766.54,422.30
17470,-3.8707,-0.4471,0.2635,-1335.69,-157.17,672.30
17480,-3.8708,-0.4448,0.2767,-1226.32,1749.08,-796.39
17490,-3.8708,-0.4385,0.2886,-929.44,-563.42,1375.49
17500,-3.8710,-0.4303,0.2998,-116.94,952.21,-77.58
17510,-3.8710,-0.4253,0.3102,929.93,-1610.23,-561.95
17520,-3.8710,-0.4229,0.3198,1570.56,-282.10,-15.08
17530,-3.8708,-0.4177,0.3295,1883.06,952.27,1297.49
17540,-3.8708,-0.4054,0.3372,-1460.69,-1813.35,-1171.26
17550,-3.8707,-0.3854,0.3407,117.43,-828.92,391.24
17560,-3.8707,-0.3582,0.3433,-1320.07,-375.79,1297.49
17570,-3.8707,-0.3286,0.3440,-1835.69,-47.61,641.24
17580,-3.8708,-0.2935,0.3389,1945.56,46.20,-1249.33
17590,-3.8708,-0.2494,0.3282,-1554.44,-609.99,188.11
17600,-3.8710,-0.2021,0.3173,86.18,-1969.24,1125.61
17610,-3.8711,-0.1552,0.3080,-1866.94,624.57,-1858.76
17620,-3.8711,-0.1029,0.3003,148.68,-562.81,234.92
17630,-3.8712,-0.0443,0.2999,-1163.82,-1547.12,-265.08
17640,-3.8711,0.0029,0.3093,-1663.82,-1593.87,391.17
17650,-3.8711,0.0288,0.3219,383.06,-406.25,-1608.83
17660,-3.8710,0.0438,0.3237,-304.44,1203.12,1266.24
17670,-3.8710,0.0640,0.3087,1617.43,1437.56,-499.39
17680,-3.8710,0.0969,0.2850,195.56,-484.25,-436.95
17690,-3.8710,0.1370,0.2645,414.31,484.56,1094.30
17700,-3.8711,0.1764,0.2480,1539.31,1859.62,984.86
17710,-3.8712,0.2177,0.2231,-1413.82,-249.69,1359.80
17720,-3.8713,0.2676,0.1970,-132.57,562.87,-640.20
17730,-3.8713,0.3209,0.1851,-1741.94,1219.24,1359.74
17740,-3.8715,0.3677,0.1785,1086.18,-311.89,-46.57
17750,-3.8715,0.3982,0.1686,-929.44,-1155.58,-671.57
17760,-3.8715,0.3999,0.1664,-1023.19,1578.86,-1968.44
17770,-3.8715,0.3687,0.1711,-804.44,1297.61,62.81
17780,-3.8716,0.3174,0.1616,-804.44,1906.92,1250.31
17790,-3.8717,0.2689,0.1240,633.06,688.11,-1280.94
17800,-3.8717,0.2456,0.0735,-1570.07,-124.51,-1327.94
17810,-3.8716,0.2539,0.0422,-554.44,1406.68,1390.75
17820,-3.8715,0.2721,0.0427,508.06,1406.74,1359.44
17830,-3.8713,0.2826,0.0665,-1163.82,1469.24,1265.69
17840,-3.8712,0.2843,0.0945,179.93,516.17,312.62
17850,-3.8712,0.2782,0.1071,398.68,94.30,-1327.94
17860,-3.8711,0.2780,0.1011,-382.57,1703.61,-1890.44
17870,-3.8710,0.2974,0.0851,-413.82,937.99,-1312.32
17880,-3.8708,0.3341,0.0636,-1929.44,-1108.83,-1609.25
17890,-3.8708,0.3878,0.0389,-1226.32,141.24,-78.00
17900,-3.8708,0.4546,0.0166,1648.68,985.11,-328.06
17910,-3.8708,0.5259,0.0020,-1804.44,-1874.15,-859.38
17920,-3.8708,0.5967,-0.0038,-679.44,250.98,-1171.88
17930,-3.8708,0.6699,-0.0021,383.06,-483.22,-265.69
17940,-3.8707,0.7452,0.0035,1758.06,-264.34,1859.31
17950,-3.8707,0.8158,0.0110,-601.32,454.53,-31.25
17960,-3.8706,0.8773,0.0216,429.93,1407.84,1328.12
17970,-3.8706,0.9183,0.0294,304.93,-1232.67,1671.88
17980,-3.8706,0.9286,0.0286,1554.93,-232.60,1421.88
17990,-3.8706,0.8910,0.0244,-1132.57,-341.98,171.88
18000,-3.8707,0.8004,0.0228,-1945.07,-873.29,1453.12
18010,-3.8708,0.6835,0.0237,-1538.82,-1076.60,1468.75
18020,-3.8710,0.5704,0.0269,-507.57,-967.47,1593.75
18030,-3.8711,0.4755,0.0388,1023.68,-561.40,-656.25
18040,-3.8711,0.3984,0.0742,867.43,969.67,-484.31
18050,-3.8710,0.3341,0.1256,-991.94,1500.73,1687.62
18060,-3.8708,0.2783,0.1609,-1226.32,78.74,687.74
18070,-3.8708,0.2272,0.1674,-366.94,594.24,-499.69
18080,-3.8707,0.1780,0.1581,1086.18,1422.30,1047.18
18090,-3.8708,0.1322,0.1487,-1210.69,234.68,-343.44
18100,-3.8710,0.0967,0.1431,929.93,-968.51,-499.76
18110,-3.8711,0.0841,0.1332,383.06,-1687.32,-1281.01
18120,-3.8712,0.1010,0.1204,-1226.32,1047.00,-1796.63
18130,-3.8713,0.1343,0.1139,929.93,-593.57,-1718.57
18140,-3.8713,0.1660,0.1093,1195.56,-1421.63,140.81
18150,-3.8713,0.1896,0.1014,1258.06,1984.68,312.68
18160,-3.8713,0.2042,0.1025,273.68,984.74,1515.81
18170,-3.8713,0.2058,0.1193,-1851.32,1125.37,-1390.44
18180,-3.8713,0.2008,0.1385,-1648.19,-734.01,-234.19
18190,-3.8712,0.2030,0.1469,1711.18,1734.74,1125.24
18200,-3.8712,0.2075,0.1388,1992.43,-1202.76,1578.37
18210,-3.8712,0.2072,0.1166,-1429.44,1765.99,922.12
18220,-3.8712,0.2145,0.1011,-1476.32,-1077.76,500.18
18230,-3.8712,0.2310,0.1014,-538.82,937.87,422.06
18240,-3.8712,0.2429,0.1011,1570.56,984.80,390.81
18250,-3.8712,0.2451,0.1000,-898.19,937.93,1250.18
18260,-3.8711,0.2325,0.1091,-616.94,797.30,203.31
18270,-3.8710,0.2037,0.1281,1773.68,1969.18,718.93
18280,-3.8708,0.1696,0.1493,-1913.82,390.99,1187.74
18290,-3.8707,0.1470,0.1633,1711.18,-890.32,1281.49
18300,-3.8706,0.1451,0.1654,-1179.44,906.49,1047.18
18310,-3.8706,0.1599,0.1586,-1413.82,1172.12,-1140.32
18320,-3.8706,0.1791,0.1479,476.81,297.18,1703.43
18330,-3.8706,0.1899,0.1473,-1070.07,-1062.19,687.74
18340,-3.8706,0.1918,0.1637,320.56,-1140.26,-702.88
18350,-3.8705,0.1863,0.1775,554.93,953.49,-562.19
18360,-3.8704,0.1750,0.1752,-148.19,-1280.94,1203.43
18370,-3.8704,0.1620,0.1716,-1585.69,-1577.82,828.43
18380,-3.8705,0.1387,0.1782,742.43,1969.06,-202.82
18390,-3.8705,0.0983,0.1884,1758.06,-1187.26,-1921.57
18400,-3.8705,0.0525,0.1962,586.18,109.56,344.12
18410,-3.8706,0.0194,0.1998,-1273.19,1109.44,-437.13
18420,-3.8706,0.0076,0.1915,-1507.57,1578.12,-1187.13
18430,-3.8706,0.0170,0.1741,976.81,515.62,1109.74
18440,-3.8707,0.0416,0.1678,-1820.07,-1718.75,-1171.57
18450,-3.8707,0.0712,0.1796,1336.18,1484.44,531.56
18460,-3.8708,0.0901,0.1946,1117.43,-1015.50,-1843.44
18470,-3.8710,0.0831,0.2063,-460.69,906.37,-624.63
18480,-3.8710,0.0477,0.2169,-1351.32,-1593.63,125.37
18490,-3.8712,-0.0083,0.2230,-1882.57,-234.31,-515.26
18500,-3.8713,-0.0746,0.2218,-1054.44,562.44,797.30
18510,-3.8716,-0.1425,0.2140,-1538.82,406.07,1859.80
18520,-3.8717,-0.2058,0.1984,1773.68,-594.06,1219.12
18530,-3.8717,-0.2592,0.1826,1664.31,1405.82,1812.87
18540,-3.8715,-0.3082,0.1910,-1163.82,-609.92,578.43
18550,-3.8712,-0.3654,0.2345,554.93,468.14,-1405.88
18560,-3.8710,-0.4382,0.2885,1242.43,-1969.48,-62.07
18570,-3.8707,-0.5231,0.3152,-85.69,936.58,-561.95
18580,-3.8705,-0.5924,0.3031,1054.93,358.34,1031.86
18590,-3.8705,-0.6565,0.2570,179.93,-1188.66,-936.95
18600,-3.8705,-0.7018,0.1847,-23.19,904.91,1719.24
18610,-3.8706,-0.6667,0.1068,-1820.07,-345.15,-1249.69
18620,-3.8706,-0.5752,0.0444,-1335.69,1686.16,93.93
18630,-3.8707,-0.4836,0.0149,-1616.94,1701.97,1625.06
18640,-3.8708,-0.3929,0.0127,-1898.19,1920.90,1609.38
18650,-3.8710,-0.2981,0.0133,1711.18,1639.83,1968.75
18660,-3.8710,-0.2356,0.0070,1851.81,1718.14,937.50
18670,-3.8710,-0.2178,0.0006,1851.81,905.76,1109.38
18680,-3.8710,-0.2213,-0.0029,133.06,93.32,968.75
18690,-3.8710,-0.2449,-0.0084,-320.07,-359.86,984.31
18700,-3.8710,-0.2856,-0.0094,664.31,-1062.99,-1843.81
18710,-3.8708,-0.3212,0.0056,-554.44,-1188.11,531.19
18720,-3.8708,-0.3413,0.0312,-1101.32,733.70,-296.88
18730,-3.8707,-0.3451,0.0573,320.56,14.95,-1468.69
18740,-3.8707,-0.3335,0.0784,-163.82,-656.98,-578.06
18750,-3.8707,-0.3182,0.0896,1320.56,-1953.80,1953.25
18760,-3.8708,-0.3087,0.0983,-726.32,-516.30,-374.88
18770,-3.8708,-0.3149,0.1187,492.43,593.14,-1671.69
18780,-3.8708,-0.3401,0.1461,-304.44,-797.55,-1156.07
18790,-3.8707,-0.3751,0.1671,476.81,-1281.92,922.12
18800,-3.8707,-0.4111,0.1809,-7.57,1405.46,-562.19
18810,-3.8706,-0.4447,0.1881,-616.94,-828.98,750.31
18820,-3.8707,-0.4689,0.1880,-913.82,92.83,-30.88
18830,-3.8707,-0.4741,0.1866,-7.57,77.15,1609.74
18840,-3.8708,-0.4624,0.1871,-679.44,-94.73,-1046.57
18850,-3.8708,-0.4377,0.1912,820.56,-32.17,1500.31
18860,-3.8708,-0.4030,0.2006,-23.19,483.46,1109.74
18870,-3.8708,-0.3584,0.2102,429.93,1686.71,547.24
18880,-3.8710,-0.3073,0.2114,-1866.94,-1078.86,-624.63
18890,-3.8710,-0.2598,0.2009,679.93,-922.49,1672.24
18900,-3.8711,-0.2197,0.1774,-1241.94,1733.83,-187.13
18910,-3.8711,-0.1830,0.1409,-116.94,-1281.74,-1905.94
18920,-3.8711,-0.1431,0.1069,586.18,-1953.49,531.49
18930,-3.8712,-0.0944,0.0903,1695.56,1702.82,-390.44
18940,-3.8712,-0.0376,0.0841,-70.07,-422.12,-234.25
18950,-3.8711,0.0175,0.0743,-804.44,-1218.87,250.12
18960,-3.8711,0.0674,0.0621,-1757.57,1515.62,328.25
18970,-3.8711,0.1154,0.0547,633.06,-46.75,125.06
18980,-3.8712,0.1654,0.0477,-1226.32,-999.82,-531.19
18990,-3.8712,0.2181,0.0447,1179.93,-1890.32,-1234.31
19000,-3.8712,0.2623,0.0581,-70.07,1719.12,-1218.69
19010,-3.8711,0.2864,0.0792,1586.18,-562.01,31.31
19020,-3.8711,0.2856,0.0897,664.31,-1858.83,1937.62
19030,-3.8711,0.2550,0.0829,570.56,-515.08,-1437.38
19040,-3.8711,0.2035,0.0590,648.68,-1390.14,-1859.25
19050,-3.8711,0.1509,0.0326,-1945.07,-452.76,1187.56
19060,-3.8712,0.1055,0.0208,-679.44,172.12,-109.31
19070,-3.8712,0.0740,0.0254,1508.06,-1343.57,-984.38
19080,-3.8712,0.0636,0.0482,1476.81,-749.88,-1968.75
19090,-3.8712,0.0701,0.0868,148.68,-1828.00,1796.94
19100,-3.8712,0.0840,0.1313,976.81,-890.50,-281.13
19110,-3.8711,0.0927,0.1740,-1241.94,812.62,-1859.13
19120,-3.8711,0.0887,0.1960,-132.57,-1734.25,-859.07
19130,-3.8711,0.0837,0.1801,-632.57,1093.87,-374.63
19140,-3.8710,0.0895,0.1338,-1273.19,-953.00,469.06
19150,-3.8710,0.1128,0.0885,-538.82,1125.12,-859.13
19160,-3.8707,0.1587,0.0652,-1554.44,-671.69,562.62
19170,-3.8706,0.2202,0.0635,320.56,344.06,-1671.75
19180,-3.8705,0.2920,0.0754,195.56,125.43,-874.88
19190,-3.8704,0.3809,0.0841,1383.06,1656.80,1968.87
19200,-3.8704,0.4926,0.0886,758.06,-1233.64,-1718.63
19210,-3.8704,0.6179,0.0974,-945.07,-655.33,1000.12
19220,-3.8705,0.7438,0.0863,-898.19,469.91,1812.68
19230,-3.8706,0.8540,0.0253,-788.82,-951.72,515.75
19240,-3.8708,0.9098,-0.0667,1320.56,-763.98,1515.62
19250,-3.8711,0.9406,-0.1423,461.18,-529.48,327.94
19260,-3.8715,0.9672,-0.1984,398.68,1783.08,1874.69
19270,-3.8717,0.9414,-0.2483,-195.07,-1388.79,687.07
19280,-3.8719,0.8715,-0.2742,508.06,220.58,-1531.74
19290,-3.8719,0.8032,-0.2634,-445.07,907.90,77.58
19300,-3.8719,0.7275,-0.2278,-1179.44,-1717.22,1749.45
19310,-3.8718,0.6122,-0.1813,1133.06,-1154.85,1108.89
19320,-3.8718,0.4885,-0.1387,-1632.57,798.03,-453.49
19330,-3.8717,0.3876,-0.1149,-1460.69,-1749.08,1734.07
19340,-3.8716,0.3019,-0.1063,1617.43,1297.61,390.38
19350,-3.8716,0.2302,-0.0980,-1351.32,-1608.83,-1125.24
19360,-3.8715,0.1727,-0.0818,1476.81,-546.45,62.26
19370,-3.8715,0.1237,-0.0623,-1882.57,1531.56,515.44
19380,-3.8715,0.0872,-0.0472,-163.82,31.43,1968.63
19390,-3.8713,0.0677,-0.0449,-835.69,1953.25,953.00
19400,-3.8712,0.0620,-0.0527,679.93,-1749.88,687.38
19410,-3.8712,0.0653,-0.0582,-54.44,1250.06,-0.12
19420,-3.8711,0.0798,-0.0577,367.43,547.00,-1750.12
19430,-3.8711,0.1075,-0.0587,-1773.19,609.50,-718.87
19440,-3.8711,0.1510,-0.0652,1773.68,484.56,-484.50
19450,-3.8711,0.2124,-0.0771,-663.82,-343.51,-1062.68
19460,-3.8711,0.2872,-0.0869,-804.44,-1874.63,1312.32
19470,-3.8712,0.3647,-0.0883,773.68,875.55,-765.81
19480,-3.8712,0.4423,-0.0851,-1304.44,703.80,1765.44
19490,-3.8712,0.5198,-0.0754,617.43,1110.23,1249.82
19500,-3.8712,0.5872,-0.0574,-1460.69,-1655.27,968.57
19510,-3.8712,0.6337,-0.0391,-835.69,657.35,546.75
19520,-3.8712,0.6562,-0.0236,1117.43,-998.78,703.00
19530,-3.8712,0.6522,-0.0035,8.06,985.66,1578.06
19540,-3.8712,0.6104,0.0217,-507.57,-451.90,-1343.81
19550,-3.8711,0.5259,0.0432,-1866.94,-1217.59,953.12
19560,-3.8710,0.4211,0.0568,-679.44,1532.23,812.56
19570,-3.8708,0.3302,0.0660,1914.31,-733.58,31.31
19580,-3.8708,0.2664,0.0807,-1726.32,453.74,-1906.13
19590,-3.8707,0.2183,0.1073,-1898.19,-1671.39,78.25
19600,-3.8707,0.1696,0.1282,-54.44,1734.74,1609.56
19610,-3.8707,0.1295,0.1277,1711.18,406.56,-1827.88
19620,-3.8707,0.1139,0.1097,586.18,343.99,1859.62
19630,-3.8707,0.1202,0.0770,-1413.82,-1952.94,109.56
19640,-3.8708,0.1359,0.0424,-601.32,1859.56,203.25
19650,-3.8711,0.1460,0.0361,1398.68,1422.12,-531.19
19660,-3.8711,0.1498,0.0624,-1304.44,625.24,343.81
19670,-3.8712,0.1536,0.0859,-820.07,-15.38,-1140.56
19680,-3.8712,0.1591,0.0953,-335.69,-999.76,1953.25
19690,-3.8712,0.1572,0.1095,367.43,203.43,1437.68
19700,-3.8712,0.1375,0.1259,133.06,-1984.07,1078.31
19710,-3.8712,0.1071,0.1324,1601.81,109.62,375.24
19720,-3.8713,0.0858,0.1328,1711.18,953.31,-687.26
19730,-3.8713,0.0828,0.1263,-1007.57,1000.12,-1499.76
19740,-3.8713,0.0924,0.1078,-1398.19,172.00,-1609.13
19750,-3.8713,0.1069,0.0884,-163.82,1797.00,-984.19
19760,-3.8713,0.1161,0.0858,1695.56,-687.32,-328.00
19770,-3.8713,0.1138,0.1093,-1132.57,-1015.44,-46.75
19780,-3.8712,0.1013,0.1561,-1429.44,1984.56,437.68
19790,-3.8712,0.0826,0.2051,976.81,-15.44,1218.99
19800,-3.8712,0.0615,0.2327,-1413.82,-1749.88,-1999.63
19810,-3.8712,0.0398,0.2389,-116.94,1781.31,-1687.07
19820,-3.8712,0.0177,0.2395,1101.81,-1421.81,1828.55
19830,-3.8712,-0.0040,0.2356,-1726.32,-1343.75,1266.05
19840,-3.8712,-0.0253,0.2200,-507.57,-1828.19,1937.93
19850,-3.8711,-0.0505,0.2063,773.68,171.81,266.05
19860,-3.8710,-0.0979,0.2190,1539.31,-1578.25,109.74
19870,-3.8708,-0.1764,0.2538,-523.19,46.63,422.30
19880,-3.8707,-0.2694,0.2783,1429.93,499.63,78.61
19890,-3.8707,-0.3568,0.2745,1523.68,-359.92,-843.26
19900,-3.8706,-0.4257,0.2551,-1663.82,-844.48,1719.24
19910,-3.8706,-0.4673,0.2366,1523.68,671.02,-343.26
19920,-3.8705,-0.4764,0.2263,195.56,-1704.04,1078.55
19930,-3.8705,-0.4672,0.2339,-976.32,983.40,-1327.70
19940,-3.8704,-0.4767,0.2532,211.18,1952.21,922.30
19950,-3.8704,-0.4868,0.2599,-1007.57,420.90,-1468.26
19960,-3.8704,-0.4609,0.2313,1695.56,1280.27,1891.11
19970,-3.8705,-0.4083,0.1715,1008.06,1624.08,-1780.82
19980,-3.8707,-0.3687,0.1089,-257.57,1967.90,-93.44
19990,-3.8708,-0.3605,0.0658,820.56,1952.39,1000.18
20000,-3.8711,-0.3665,0.0492,1867.43,436.77,-703.00
20010,-3.8712,-0.3882,0.0509,1101.81,-1688.23,-171.81
20020,-3.8712,-0.4279,0.0667,-1679.44,-1469.54,-874.94
20030,-3.8711,-0.4615,0.1016,1242.43,546.02,1531.37
20040,-3.8710,-0.4851,0.1465,929.93,1014.71,-1359.19
20050,-3.8708,-0.4943,0.1785,1914.31,-1235.35,-62.26
20060,-3.8707,-0.4778,0.1793,742.43,-1141.60,-1546.57
20070,-3.8707,-0.4423,0.1544,-1148.19,-1032.23,-1968.44
20080,-3.8707,-0.4043,0.1278,-601.32,-219.67,31.49
20090,-3.8708,-0.3801,0.1180,258.06,374.21,1672.12
20100,-3.8710,-0.3729,0.1241,-648.19,-875.79,-421.69
20110,-3.8710,-0.3757,0.1354,273.68,-94.48,-1890.44
20120,-3.8710,-0.3813,0.1523,-85.69,1342.96,1875.24
20130,-3.8710,-0.3890,0.1769,-804.44,-485.17,-1249.76
20140,-3.8710,-0.3959,0.1973,-1788.82,-1344.54,-62.19
20150,-3.8708,-0.4020,0.2075,1336.18,1264.83,1094.12
20160,-3.8708,-0.4022,0.2170,554.93,-1422.67,-1999.63
20170,-3.8708,-0.3969,0.2191,523.68,-203.92,1344.12
20180,-3.8710,-0.3792,0.2019,1211.18,61.71,-562.07
20190,-3.8710,-0.3394,0.1752,-523.19,1858.58,1594.12
20200,-3.8711,-0.2849,0.1543,570.56,-1563.17,-187.19
20210,-3.8711,-0.2283,0.1447,-460.69,-234.99,-1718.51
20220,-3.8711,-0.1785,0.1415,-1210.69,-1469.24,1047.12
20230,-3.8712,-0.1405,0.1434,1164.31,-1875.37,-187.26
20240,-3.8712,-0.1100,0.1544,-1976.32,-1625.31,-1484.13
20250,-3.8712,-0.0714,0.1709,1929.93,-218.99,1218.99
20260,-3.8713,-0.0247,0.1813,-1132.57,1890.44,-234.07
20270,-3.8713,0.0173,0.1754,851.81,-781.31,1312.81
20280,-3.8715,0.0470,0.1523,-1773.19,-1546.88,1890.93
20290,-3.8716,0.0668,0.1184,-1976.32,-499.94,-1156.01
20300,-3.8716,0.0839,0.0807,554.93,-843.63,687.68
20310,-3.8717,0.1023,0.0483,-1257.57,-1671.75,-828.00
20320,-3.8717,0.1229,0.0320,1101.81,-1812.32,-453.06
20330,-3.8716,0.1429,0.0317,-257.57,93.93,-1234.31
20340,-3.8715,0.1606,0.0383,-1695.07,62.74,-453.06
20350,-3.8712,0.1758,0.0509,570.56,906.56,93.81
20360,-3.8712,0.1906,0.0708,-1491.94,-1484.07,-796.81
20370,-3.8712,0.2062,0.0894,398.68,1062.87,-546.75
20380,-3.8712,0.2179,0.0972,-1601.32,-562.13,906.37
20390,-3.8713,0.2191,0.0942,-101.32,437.87,1000.18
20400,-3.8715,0.2030,0.0785,54.93,62.93,1531.43
20410,-3.8715,0.1754,0.0488,1992.43,-1952.76,734.50
20420,-3.8715,0.1499,0.0244,-1538.82,-1749.69,-718.69
20430,-3.8713,0.1227,0.0341,-804.44,-874.76,-125.00
20440,-3.8711,0.0809,0.0875,-288.82,359.56,-1515.56
20450,-3.8708,0.0309,0.1832,-1632.57,-796.75,-171.75
20460,-3.8705,-0.0032,0.3077,-38.82,-546.88,1000.31
20470,-3.8704,-0.0067,0.4160,-398.19,-593.81,1953.67
20480,-3.8704,0.0127,0.4574,-851.32,1265.56,1266.42
20490,-3.8706,0.0424,0.4224,1633.06,-1453.12,-139.77
20500,-3.8707,0.0702,0.3361,1429.93,-1937.44,1344.54
20510,-3.8708,0.0905,0.2363,992.43,-984.25,-1015.01
20520,-3.8707,0.1127,0.1688,-413.82,-1749.88,609.80
20530,-3.8707,0.1427,0.1593,-1570.07,1609.56,-1999.69
20540,-3.8707,0.1855,0.1888,-1726.32,390.87,1140.93
20550,-3.8708,0.2549,0.2267,-241.94,172.18,-1155.88
20560,-3.8708,0.3435,0.2629,633.06,1016.11,812.93
20570,-3.8710,0.4211,0.2937,-23.19,1656.86,-1702.64
20580,-3.8711,0.4703,0.3002,1914.31,1594.54,-1890.08
20590,-3.8712,0.4972,0.2661,211.18,-1577.21,1000.55
20600,-3.8713,0.5151,0.2080,-351.32,-1936.58,1016.11
20610,-3.8715,0.5182,0.1553,1945.56,-1374.02,-312.13
20620,-3.8713,0.5203,0.1284,-1663.82,-124.02,406.49
20630,-3.8713,0.5532,0.1289,-1398.19,438.48,890.87
20640,-3.8713,0.5972,0.1455,-1179.44,501.04,609.62
20650,-3.8713,0.6285,0.1802,445.56,-1373.84,1062.74
20660,-3.8713,0.6428,0.2262,461.18,-936.28,1640.93
20670,-3.8713,0.6530,0.2479,-1710.69,954.35,1078.55
20680,-3.8715,0.6578,0.2186,-413.82,-264.40,-421.45
20690,-3.8715,0.6355,0.1598,211.18,-14.34,1234.74
20700,-3.8716,0.6141,0.1084,1351.81,454.35,1390.93
20710,-3.8717,0.6095,0.0740,-1382.57,1876.16,312.68
20720,-3.8719,0.6036,0.0621,-1976.32,1469.91,-218.63
20730,-3.8719,0.5973,0.0782,1273.68,-45.72,1812.56
20740,-3.8719,0.5734,0.1177,461.18,-1983.22,-874.88
20750,-3.8718,0.5385,0.1837,1398.68,-936.40,-15.44
20760,-3.8716,0.5051,0.2523,929.93,-483.34,-1921.57
20770,-3.8715,0.4584,0.2836,664.31,297.85,-718.26
20780,-3.8712,0.3934,0.2839,-1320.07,297.73,63.05
20790,-3.8712,0.3187,0.2859,-1632.57,344.48,-249.45
20800,-3.8711,0.2468,0.2959,804.93,594.36,922.42
20810,-3.8712,0.1782,0.2993,-398.19,1875.43,-124.45
20820,-3.8712,0.1248,0.2875,-1179.44,-1687.19,-1561.95
20830,-3.8712,0.1027,0.2606,-23.19,797.06,-1780.70
20840,-3.8711,0.1199,0.2317,1148.68,1359.56,94.24
20850,-3.8711,0.1746,0.2214,-648.19,1656.43,-1140.20
20860,-3.8710,0.2504,0.2400,-1648.19,344.06,1281.68
20870,-3.8710,0.3192,0.2797,54.93,-1280.76,-702.70
20880,-3.8708,0.3599,0.3223,867.43,-202.51,766.11
20890,-3.8708,0.3716,0.3403,-1929.44,1250.67,469.36
20900,-3.8710,0.3640,0.3177,-429.44,-436.83,1625.61
20910,-3.8711,0.3368,0.2739,-1398.19,672.55,1266.24
20920,-3.8712,0.2920,0.2390,-882.57,-936.89,1891.11
20930,-3.8712,0.2516,0.2181,1383.06,-1405.70,1187.93
20940,-3.8712,0.2347,0.2056,211.18,-77.64,-1905.88
20950,-3.8712,0.2471,0.2075,-1945.07,-1687.07,-827.76
20960,-3.8711,0.2770,0.2294,-366.94,-1437.07,469.12
20970,-3.8711,0.3043,0.2615,-538.82,1359.86,-1952.70
20980,-3.8711,0.3114,0.2941,-1038.82,1469.30,-780.76
20990,-3.8710,0.2906,0.3260,-132.57,1641.17,797.42
21000,-3.8710,0.2527,0.3610,1211.18,1734.92,-780.64
21010,-3.8710,0.2142,0.3938,351.81,-1796.39,-514.95
21020,-3.8710,0.1829,0.4095,-570.07,-1593.38,47.61
21030,-3.8712,0.1591,0.3981,-585.69,422.18,-592.96
21040,-3.8712,0.1420,0.3595,367.43,-1046.57,1360.11
21050,-3.8711,0.1300,0.3195,-1820.07,-1984.13,438.17
21060,-3.8710,0.1180,0.3206,648.68,890.87,1875.61
21070,-3.8708,0.1023,0.3640,-882.57,1031.43,328.74
21080,-3.8710,0.0812,0.4077,1101.81,-1406.07,-155.58
21090,-3.8708,0.0559,0.4283,-1601.32,187.62,141.42
21100,-3.8708,0.0350,0.4315,-835.69,-1171.81,844.54
21110,-3.8710,0.0187,0.4192,492.43,-765.56,-1811.71
21120,-3.8712,-0.0037,0.3868,-1601.32,1656.25,-1264.83
21130,-3.8715,-0.0394,0.3450,-460.69,1531.19,-1952.39
21140,-3.8716,-0.0825,0.3121,-1038.82,171.75,578.80
21150,-3.8716,-0.1156,0.2997,1445.56,-31.43,844.30
21160,-3.8713,-0.1277,0.3325,1211.18,-1625.24,859.92
21170,-3.8710,-0.1208,0.4175,-335.69,-1422.18,0.61
21180,-3.8708,-0.0962,0.4979,539.31,1452.88,-1280.46
21190,-3.8707,-0.0529,0.5232,-304.44,-250.24,657.17
21200,-3.8707,-0.0101,0.5024,1242.43,-1015.75,969.73
21210,-3.8707,0.0007,0.4587,-1288.82,328.06,516.60
21220,-3.8708,-0.0348,0.3988,101.81,-1281.25,1594.60
21230,-3.8710,-0.0992,0.3328,-445.07,-937.62,1125.73
21240,-3.8711,-0.1519,0.2761,-695.07,-1390.87,1766.24
21250,-3.8711,-0.1643,0.2333,570.56,-640.93,203.61
21260,-3.8711,-0.1412,0.2075,-1023.19,1874.63,797.30
21270,-3.8711,-0.1038,0.2094,1929.93,-1422.18,-1921.51
21280,-3.8711,-0.0607,0.2299,-1273.19,-1187.74,1875.37
21290,-3.8711,-0.0098,0.2498,242.43,1437.38,969.18
21300,-3.8711,0.0310,0.2673,-1241.94,-15.69,734.80
21310,-3.8711,0.0259,0.2850,-23.19,-1781.25,859.86
21320,-3.8711,-0.0439,0.2920,-679.44,484.38,1000.55
21330,-3.8711,-0.1633,0.2809,-1616.94,1390.50,109.92
21340,-3.8712,-0.2942,0.2606,-898.19,-31.62,1281.74
21350,-3.8713,-0.4014,0.2413,-1648.19,1374.39,-1218.26
21360,-3.8713,-0.4708,0.2308,633.06,-1094.54,-937.07
21370,-3.8712,-0.4911,0.2457,-257.57,1561.52,1781.68
21380,-3.8711,-0.4897,0.2821,1148.68,-532.23,734.80
21390,-3.8711,-0.4890,0.3169,1320.56,124.02,-1186.95
21400,-3.8710,-0.4698,0.3313,1414.31,577.15,47.49
21410,-3.8710,-0.4393,0.3208,-132.57,-1579.10,-1968.14
21420,-3.8708,-0.4144,0.3041,-226.32,1077.21,1781.86
21430,-3.8707,-0.3872,0.2980,-1038.82,-1063.35,531.80
21440,-3.8707,-0.3538,0.2924,-1554.44,-1844.54,109.92
21450,-3.8708,-0.3433,0.2698,-1273.19,1436.77,1641.17
21460,-3.8710,-0.3478,0.2410,70.56,-1453.80,-1499.51
21470,-3.8711,-0.3448,0.2201,-507.57,-1141.36,-1343.32
21480,-3.8712,-0.3344,0.2059,-132.57,186.77,-624.57
21490,-3.8712,-0.3105,0.2000,1211.18,-1625.67,-1968.38
21500,-3.8712,-0.2802,0.2003,258.06,1608.76,-1390.26
21510,-3.8711,-0.2505,0.2021,148.68,1655.70,844.12
21520,-3.8711,-0.2294,0.2102,-54.44,1890.08,-124.63
21530,-3.8710,-0.2170,0.2322,-1351.32,-1078.61,-1296.51
21540,-3.8708,-0.2021,0.2568,226.81,1733.95,484.80
21550,-3.8708,-0.1809,0.2666,-1866.94,890.20,1344.24
21560,-3.8708,-0.1566,0.2588,851.81,-1859.74,1594.24
21570,-3.8708,-0.1317,0.2415,-38.82,1140.26,734.86
21580,-3.8710,-0.1116,0.2275,-851.32,-1078.43,-1405.82
21590,-3.8711,-0.1067,0.2203,1726.81,1140.38,-702.70
21600,-3.8712,-0.1182,0.2125,-1648.19,218.51,-15.20
21610,-3.8712,-0.1372,0.2051,883.06,-781.49,1484.74
21620,-3.8712,-0.1544,0.2126,-1554.44,-1734.68,94.12
21630,-3.8712,-0.1697,0.2433,242.43,-765.93,515.99
21640,-3.8712,-0.1794,0.2870,-1710.69,-844.12,-1546.45
21650,-3.8712,-0.1768,0.3219,1039.31,749.63,-140.08
21660,-3.8712,-0.1592,0.3315,1383.06,1218.38,-311.89
21670,-3.8712,-0.1304,0.3176,-366.94,-1547.24,-1030.64
21680,-3.8712,-0.1010,0.2991,-679.44,671.57,1906.86
21690,-3.8712,-0.0797,0.2914,-913.82,-1703.37,47.42
21700,-3.8713,-0.0670,0.2920,1804.93,1312.32,1906.80
21710,-3.8713,-0.0564,0.2948,-570.07,1390.44,391.17
21720,-3.8713,-0.0455,0.3025,789.31,1749.88,31.80
21730,-3.8713,-0.0365,0.3202,-1820.07,-1265.75,203.67
21740,-3.8713,-0.0299,0.3462,-663.82,999.88,875.61
21750,-3.8713,-0.0270,0.3743,179.93,328.06,-921.20
21760,-3.8712,-0.0284,0.3992,554.93,-78.19,-1889.95
21770,-3.8712,-0.0299,0.4133,367.43,-890.69,-46.14
21780,-3.8712,-0.0282,0.4102,179.93,921.81,-311.71
21790,-3.8712,-0.0258,0.3922,398.68,515.56,1610.17
21800,-3.8713,-0.0251,0.3730,711.18,-1781.31,-1389.89
21810,-3.8715,-0.0253,0.3567,789.31,-234.44,-624.33
21820,-3.8715,-0.0201,0.3353,773.68,1671.81,906.92
21830,-3.8715,-0.0046,0.3121,1429.93,-1062.56,438.11
21840,-3.8715,0.0209,0.3041,-585.69,-31.31,1750.55
21850,-3.8713,0.0546,0.3199,-1320.07,-1078.12,0.55
21860,-3.8713,0.0865,0.3494,-1007.57,953.19,-1436.89
21870,-3.8712,0.0999,0.3744,-913.82,718.87,969.42
21880,-3.8712,0.0839,0.3834,789.31,-77.94,-999.33
21890,-3.8711,0.0408,0.3759,-1257.57,1078.25,0.73
21900,-3.8712,-0.0128,0.3530,1226.81,109.44,-514.89
21910,-3.8712,-0.0551,0.3141,-1632.57,1203.06,1141.30
21920,-3.8713,-0.0774,0.2633,961.18,218.63,-1921.26
21930,-3.8713,-0.0790,0.2200,-1898.19,1718.57,766.11
21940,-3.8713,-0.0587,0.2079,1898.68,171.69,-1827.70
21950,-3.8712,-0.0219,0.2345,492.43,-1375.12,1656.62
21960,-3.8711,0.0214,0.2831,1211.18,-1968.81,1953.55
21970,-3.8710,0.0660,0.3243,-1257.57,234.38,1641.17
21980,-3.8710,0.1112,0.3375,461.18,1515.75,-311.89
21990,-3.8710,0.1481,0.3240,-1757.57,-796.69,-124.39
22000,-3.8710,0.1664,0.2949,-1038.82,1468.99,-1452.51
22010,-3.8711,0.1676,0.2535,1304.93,1750.31,-46.33
22020,-3.8711,0.1685,0.2045,1461.18,453.43,1109.86
22030,-3.8712,0.1854,0.1653,1570.56,-1827.82,-171.51
22040,-3.8711,0.2184,0.1558,-257.57,1156.56,859.68
22050,-3.8711,0.2570,0.1787,-38.82,-62.13,-781.01
22060,-3.8710,0.2954,0.2229,898.68,-1124.51,-1827.82
22070,-3.8708,0.3315,0.2742,1820.56,531.80,1531.68
22080,-3.8707,0.3618,0.3116,-1554.44,-905.64,31.74
22090,-3.8707,0.3812,0.3151,-1679.44,-108.70,1266.17
22100,-3.8707,0.3849,0.2908,804.93,328.86,-1327.51
22110,-3.8706,0.3724,0.2633,1273.68,1219.48,172.42
22120,-3.8706,0.3467,0.2405,-320.07,1703.80,109.86
22130,-3.8707,0.3157,0.2188,383.06,-1218.08,-1655.82
22140,-3.8707,0.2845,0.2056,414.31,0.61,766.05
22150,-3.8707,0.2653,0.2102,429.93,-1686.95,844.12
22160,-3.8707,0.2611,0.2273,1961.18,-1093.26,1703.49
22170,-3.8707,0.2563,0.2491,1429.93,1094.24,-1202.70
22180,-3.8706,0.2480,0.2805,820.56,-108.89,437.93
22190,-3.8706,0.2377,0.3215,-241.94,-93.32,-1312.01
22200,-3.8705,0.2278,0.3600,-1570.07,1156.68,1406.86
22210,-3.8705,0.2184,0.3838,1164.31,-1921.45,-233.70
22220,-3.8704,0.2028,0.3917,-38.82,1125.37,766.36
22230,-3.8704,0.1855,0.3889,1961.18,-1859.01,141.36
22240,-3.8705,0.1725,0.3751,-241.94,1781.56,-1952.39
22250,-3.8706,0.1619,0.3561,-1913.82,15.93,-1108.64
22260,-3.8707,0.1537,0.3495,726.81,1578.43,-233.70
22270,-3.8707,0.1471,0.3604,-320.07,734.62,1360.05
22280,-3.8707,0.1396,0.3818,-1163.82,-1874.76,78.80
22290,-3.8708,0.1318,0.4100,1883.06,875.24,-61.77
22300,-3.8707,0.1251,0.4406,883.06,484.62,407.04
22310,-3.8707,0.1172,0.4688,23.68,390.87,875.85
22320,-3.8707,0.1038,0.4937,-991.94,0.18,766.54
22330,-3.8708,0.0801,0.5110,1289.31,-812.32,-920.96
22340,-3.8710,0.0424,0.5123,-1741.94,1406.37,-1045.90
22350,-3.8711,-0.0034,0.4958,1429.93,1578.19,1719.73
22360,-3.8712,-0.0425,0.4708,-429.44,-515.69,-1952.21
22370,-3.8712,-0.0692,0.4552,-1429.44,281.13,1219.67
22380,-3.8712,-0.0883,0.4603,-851.32,-1718.93,-1624.15
22390,-3.8712,-0.1056,0.4857,711.18,-1062.68,-467.90
22400,-3.8712,-0.1290,0.5225,-1507.57,-1812.74,-108.46
22410,-3.8711,-0.1637,0.5555,-507.57,-1109.68,188.48
22420,-3.8711,-0.2089,0.5739,-945.07,-875.37,204.16
22430,-3.8712,-0.2614,0.5729,1273.68,1468.32,-1420.78
22440,-3.8713,-0.3179,0.5504,-1445.07,1343.20,-1280.15
22450,-3.8715,-0.3694,0.5039,-679.44,-1531.92,1579.16
22460,-3.8716,-0.4071,0.4401,726.81,514.89,672.85
22470,-3.8717,-0.4337,0.3766,-101.32,342.90,1375.85
22480,-3.8717,-0.4476,0.3301,492.43,217.90,141.36
22490,-3.8718,-0.4731,0.3013,-1288.82,-1735.29,-311.89
22500,-3.8718,-0.5072,0.2795,-554.44,-1422.85,-1421.33
22510,-3.8718,-0.5095,0.2518,-913.82,-204.16,297.36
22520,-3.8719,-0.4801,0.2212,-1210.69,248.96,-1921.39
22530,-3.8719,-0.4590,0.2094,-1445.07,327.15,922.30
22540,-3.8719,-0.4623,0.2161,1258.06,-1188.42,1797.24
22550,-3.8718,-0.4668,0.2192,836.18,-329.04,922.24
22560,-3.8717,-0.4777,0.2080,258.06,77.21,578.55
22570,-3.8717,-0.4768,0.1953,-1132.57,-1360.35,-484.01
22580,-3.8716,-0.4523,0.1851,-1023.19,1014.65,469.12
22590,-3.8716,-0.4302,0.1711,-1882.57,-297.79,0.31
22600,-3.8717,-0.4171,0.1621,945.56,1921.02,-1327.82
22610,-3.8717,-0.4131,0.1558,-1382.57,764.77,31.56
22620,-3.8718,-0.4119,0.1462,-866.94,-47.73,843.99
22630,-3.8719,-0.4100,0.1403,-710.69,-1266.48,-1749.76
22640,-3.8719,-0.4141,0.1398,-476.32,1967.90,-1390.38
22650,-3.8718,-0.4247,0.1462,-991.94,1905.40,-1843.51
22660,-3.8717,-0.4412,0.1694,1648.68,-1266.48,-1874.76
22670,-3.8716,-0.4679,0.2173,-460.69,1702.21,1750.31
22680,-3.8715,-0.5183,0.2810,117.43,-172.79,1375.37
22690,-3.8713,-0.5979,0.3397,1664.31,-16.66,62.99
22700,-3.8715,-0.6996,0.3789,-523.19,-501.22,-171.26
22710,-3.8715,-0.8048,0.3914,-1538.82,514.22,1047.61
22720,-3.8716,-0.8954,0.3673,992.43,-1892.21,797.61
22730,-3.8718,-0.9626,0.3141,1398.68,-970.52,-421.20
22740,-3.8719,-0.9988,0.2567,789.31,216.86,-936.89
22750,-3.8721,-1.0066,0.2092,164.31,873.05,-187.01
22760,-3.8721,-0.9973,0.1771,-835.69,-1205.14,1797.24
22770,-3.8721,-0.9777,0.1689,351.81,-1314.45,1203.43
22780,-3.8721,-0.9576,0.1830,-1132.57,1638.67,1797.18
22790,-3.8721,-0.9440,0.2098,1429.93,-564.39,-655.94
22800,-3.8719,-0.9264,0.2372,-820.07,-1126.89,1109.74
22810,-3.8719,-0.8937,0.2449,1429.93,-1626.83,-1812.07
22820,-3.8719,-0.8492,0.2257,1617.43,-642.40,-1718.32
22830,-3.8719,-0.8090,0.1964,-695.07,904.54,1359.80
22840,-3.8721,-0.7852,0.1732,461.18,1154.66,-843.38
22850,-3.8721,-0.7794,0.1611,-491.94,-1814.09,312.81
22860,-3.8722,-0.7850,0.1655,242.43,639.10,-1437.19
22870,-3.8722,-0.7963,0.1901,-476.32,1201.54,-1780.94
22880,-3.8722,-0.8071,0.2312,-1913.82,342.16,-1421.51
22890,-3.8722,-0.8096,0.2758,695.56,1607.79,-671.45
22900,-3.8721,-0.8020,0.3030,383.06,-689.09,172.36
22910,-3.8721,-0.7849,0.3046,1351.81,-1204.71,1625.55
22920,-3.8719,-0.7615,0.3002,-460.69,-1001.59,625.55
22930,-3.8718,-0.7369,0.3138,-1460.69,-1564.03,906.80
22940,-3.8717,-0.7108,0.3445,1679.93,186.04,688.11
22950,-3.8717,-0.6783,0.3724,1023.68,107.97,-1374.33
22960,-3.8717,-0.6415,0.3916,1179.93,-313.84,-655.58
22970,-3.8717,-0.6097,0.4116,1898.68,-1860.66,-46.14
22980,-3.8717,-0.5864,0.4357,1961.18,701.90,-124.21
22990,-3.8717,-0.5631,0.4496,945.56,-219.91,1469.54
23000,-3.8718,-0.5293,0.4374,-70.07,1561.34,1813.35
23010,-3.8718,-0.4843,0.4064,258.06,-1.04,375.79
23020,-3.8718,-0.4412,0.3870,-1976.32,30.27,-1264.83
23030,-3.8717,-0.4142,0.4023,-460.69,1545.96,-764.89
23040,-3.8716,-0.3981,0.4497,-1007.57,-485.23,-608.64
23050,-3.8715,-0.3772,0.5082,1054.93,1577.33,-1530.40
23060,-3.8713,-0.3506,0.5583,-273.19,1061.71,532.23
23070,-3.8713,-0.3308,0.5894,-866.94,-516.36,938.54
23080,-3.8715,-0.3242,0.5973,1664.31,-547.55,-327.03
