timestamp_ms,ax,ay,az,gx,gy,gz
0,-3.8749,-1.0530,0.1102,-85.69,91.67,-1343.57
10,-3.8746,-1.0844,0.1777,1226.81,-1877.08,-1046.69
20,-3.8743,-1.0789,0.2739,1211.18,-1236.51,297.18
30,-3.8740,-1.0099,0.3718,1914.31,-924.01,-1452.64
40,-3.8738,-0.9039,0.4512,-1257.57,-392.64,-718.08
50,-3.8735,-0.8386,0.4839,304.93,1763.85,266.48
60,-3.8735,-0.8569,0.4603,664.31,1951.48,-702.21
70,-3.8734,-0.9120,0.3949,-1679.44,-1064.21,-374.15
80,-3.8732,-0.9351,0.3196,-726.32,-1439.33,-1749.27
90,-3.8728,-0.8998,0.2970,320.56,920.04,484.99
100,-3.8724,-0.8281,0.3464,836.18,-1970.52,375.55
110,-3.8722,-0.7628,0.4055,-1991.94,357.73,-1905.58
120,-3.8719,-0.7363,0.4296,-1632.57,-79.65,-1202.39
130,-3.8716,-0.7289,0.4255,1758.06,-1001.46,-1186.71
140,-3.8711,-0.6887,0.4082,-1288.82,-1517.09,-811.71
150,-3.8705,-0.5874,0.3911,-148.19,264.22,125.79
160,-3.8701,-0.4165,0.4117,820.56,-1923.03,-1905.52
170,-3.8698,-0.2102,0.4902,-1304.44,717.90,1813.29
180,-3.8694,-0.0425,0.5756,1101.81,-1234.80,-1264.71
190,-3.8689,0.0573,0.6073,-1429.44,1687.38,-1139.53
200,-3.8684,0.0995,0.5983,-663.82,1734.44,-701.97
210,-3.8680,0.1121,0.5568,742.43,578.31,-1780.09
220,-3.8679,0.1376,0.4723,-1648.19,-734.19,1938.54
230,-3.8679,0.1625,0.3884,1617.43,453.37,1329.04
240,-3.8679,0.1669,0.3407,804.93,1719.06,63.23
250,-3.8680,0.1595,0.3235,1367.43,-390.32,-1296.26
260,-3.8680,0.1384,0.3212,429.93,1406.56,0.61
270,-3.8683,0.1051,0.3114,1726.81,1109.62,-1561.89
280,-3.8685,0.0530,0.2831,1461.18,-140.44,1422.42
290,-3.8689,-0.0288,0.2578,-1210.69,234.44,-905.70
300,-3.8691,-0.1378,0.2582,320.56,1015.56,1656.74
310,-3.8694,-0.2683,0.2677,-1632.57,1062.19,359.86
320,-3.8698,-0.4025,0.2471,1664.31,-1719.30,922.36
330,-3.8702,-0.5210,0.1816,492.43,-360.17,-187.07
340,-3.8706,-0.6238,0.1008,1320.56,-735.41,-1234.07
350,-3.8710,-0.7086,0.0383,164.31,920.65,-1702.94
360,-3.8713,-0.7677,-0.0009,1304.93,920.47,-296.81
370,-3.8716,-0.8077,-0.0161,1742.43,-95.28,-234.44
380,-3.8717,-0.8518,-0.0037,617.43,1951.54,1593.69
390,-3.8718,-0.9270,0.0507,-1023.19,-454.83,-1640.69
400,-3.8718,-1.0166,0.1467,1351.81,-1501.83,-1703.06
410,-3.8718,-1.0791,0.2313,1883.06,-1205.14,1031.49
420,-3.8719,-1.1089,0.2532,1883.06,1622.86,62.93
430,-3.8722,-1.1124,0.2080,-1929.44,419.68,1719.24
440,-3.8724,-1.0853,0.1237,1617.43,-1361.57,-1905.88
450,-3.8728,-1.0531,0.0256,1086.18,-158.39,-859.19
460,-3.8732,-1.0649,-0.0664,1211.18,-705.20,1906.25
470,-3.8735,-1.1367,-0.1361,-304.44,-486.51,1546.69
480,-3.8739,-1.2332,-0.1774,-1491.94,-1408.51,-1890.93
490,-3.8743,-1.2913,-0.1957,-1835.69,1310.06,-750.37
500,-3.8745,-1.2765,-0.1915,-1273.19,-1033.81,-609.80
510,-3.8746,-1.2168,-0.1660,617.43,-502.50,-750.43
520,-3.8746,-1.1803,-0.1440,258.06,-1236.76,921.51
530,-3.8748,-1.1865,-0.1431,929.93,1575.81,-1312.81
540,-3.8748,-1.2076,-0.1407,133.06,1700.81,1046.57
550,-3.8749,-1.2391,-0.1285,1429.93,1997.62,-31.56
560,-3.8749,-1.2615,-0.1418,1398.68,-439.94,577.82
570,-3.8439,-1.2377,-0.1946,-1460.69,1856.87,1843.44
580,-3.8441,-1.1730,-0.2672,1586.18,-893.07,1265.20
590,-3.8445,-1.1017,-0.3464,1867.43,1810.18,-125.55
600,-3.8447,-1.0457,-0.4316,-1007.57,-330.32,-969.48
610,-3.8448,-1.0085,-0.5031,-1835.69,763.55,686.65
620,-3.8450,-0.9783,-0.5394,-1085.69,-377.01,1545.84
630,-3.8450,-0.9426,-0.5461,-1210.69,-1033.20,873.90
640,-3.8450,-0.9166,-0.5386,-648.19,-1892.52,1295.78
650,-3.8450,-0.9236,-0.5250,-1320.07,-923.71,-1579.22
660,-3.8448,-0.9364,-0.5046,1789.31,810.67,561.46
670,-3.8448,-0.9094,-0.4945,148.68,-579.96,-1360.41
680,-3.8448,-0.8494,-0.5177,-398.19,716.92,-438.48
690,-3.8447,-0.8076,-0.5514,-710.69,1748.29,123.96
700,-3.8447,-0.8059,-0.5565,633.06,1435.91,-1704.22
710,-3.8446,-0.8252,-0.5498,851.81,779.66,1655.15
720,-3.8445,-0.8483,-0.5514,-1616.94,1638.98,1077.03
730,-3.8444,-0.8678,-0.5502,-570.07,1435.79,1014.53
740,-3.8442,-0.8916,-0.5303,929.93,1592.04,1155.15
750,-3.8441,-0.9121,-0.4957,1883.06,138.85,1670.84
760,-3.8440,-0.9091,-0.4641,-741.94,560.67,-1047.85
770,-3.8439,-0.8982,-0.4340,-351.32,607.54,-313.42
780,-3.8749,-0.8940,-0.4022,1039.31,466.98,1296.02
790,-3.8746,-0.8922,-0.3635,1570.56,529.48,842.96
800,-3.8745,-0.8910,-0.3354,1804.93,1482.60,-610.11
810,-3.8743,-0.8821,-0.3337,1961.18,1076.35,702.45
820,-3.8741,-0.8751,-0.3313,-898.19,1295.10,1296.20
830,-3.8741,-0.8950,-0.3137,-7.57,1607.60,-328.80
840,-3.8741,-0.9363,-0.3009,1445.56,-142.40,-1813.17
850,-3.8743,-0.9812,-0.2988,164.31,1498.17,1796.26
860,-3.8744,-1.0394,-0.2953,-1585.69,1763.67,1265.01
870,-3.8745,-1.0991,-0.2739,-1038.82,-1783.33,-672.49
880,-3.8744,-1.0951,-0.2438,-679.44,950.93,-1844.30
890,-3.8741,-1.0500,-0.1459,-163.82,810.30,-156.74
900,-3.8738,-1.0701,-0.0272,1601.81,1341.67,-1172.18
910,-3.8734,-1.0496,-0.0361,-960.69,529.11,1031.19
920,-3.8732,-0.9399,-0.0736,1664.31,-611.45,-1640.75
930,-3.8729,-0.9418,-0.0568,-304.44,-1408.14,-1750.18
940,-3.8726,-1.0796,-0.0134,-538.82,748.11,171.75
950,-3.8723,-1.1685,0.0503,1820.56,-1705.26,1843.69
960,-3.8719,-1.1136,0.1237,-1554.44,-1549.19,-1421.81
970,-3.8712,-1.0050,0.2480,1461.18,-158.45,-1937.32
980,-3.8705,-0.9745,0.4315,-632.57,-236.39,-296.45
990,-3.8699,-0.9878,0.5902,-726.32,-751.95,141.42
1000,-3.8696,-0.9314,0.6294,1570.56,-439.45,-639.53
1010,-3.8693,-0.8009,0.5565,789.31,576.29,594.97
1020,-3.8694,-0.6454,0.4719,1492.43,-751.59,-811.46
1030,-3.8694,-0.5271,0.4182,1398.68,420.59,-1467.83
1040,-3.8690,-0.5082,0.4073,539.31,1545.84,-296.08
1050,-3.8687,-0.5599,0.4392,-1038.82,155.21,-296.08
1060,-3.8685,-0.6156,0.4558,336.18,233.28,1313.35
1070,-3.8688,-0.6749,0.4371,1211.18,-1641.85,-202.27
1080,-3.8689,-0.7488,0.4114,1617.43,-32.59,1828.92
1090,-3.8690,-0.8402,0.3934,164.31,670.41,547.67
1100,-3.8693,-0.9457,0.3906,461.18,-1626.65,-1530.52
1110,-3.8695,-1.0203,0.3882,-1038.82,-1986.27,1281.98
1120,-3.8700,-0.9753,0.3442,1414.31,1701.11,1094.48
1130,-3.8707,-0.7998,0.2334,-835.69,76.17,-1218.08
1140,-3.8715,-0.5817,0.0336,1633.06,1889.04,1719.18
1150,-3.8721,-0.3981,-0.2286,1554.93,311.34,968.81
1160,-3.8723,-0.3073,-0.4512,1054.93,-1250.79,437.01
1170,-3.8723,-0.3362,-0.5356,679.93,-1734.99,-297.79
1180,-3.8721,-0.4353,-0.4569,976.81,-547.55,-16.72
1190,-3.8718,-0.5632,-0.2832,289.31,1530.40,-1704.04
1200,-3.8717,-0.7437,-0.1122,-85.69,-235.53,936.89
1210,-3.8718,-0.9287,-0.0110,820.56,1654.79,-343.99
1220,-3.8719,-1.0071,-0.0070,1133.06,-1392.46,1546.81
1230,-3.8722,-0.9835,-0.0757,-898.19,-877.01,1468.69
1240,-3.8724,-0.9344,-0.1628,-1882.57,-1673.83,-234.56
1250,-3.8724,-0.8784,-0.2355,398.68,-829.96,-1625.37
1260,-3.8723,-0.8115,-0.2812,-429.44,1873.23,562.01
1270,-3.8723,-0.7723,-0.2826,133.06,14.04,-266.17
1280,-3.8722,-0.7869,-0.2402,1148.68,-157.78,593.14
1290,-3.8723,-0.8107,-0.1759,-710.69,1264.04,1780.76
1300,-3.8724,-0.7991,-0.1165,242.43,1498.41,1530.88
1310,-3.8726,-0.7583,-0.0857,1726.81,1107.79,1593.51
1320,-3.8727,-0.7073,-0.0764,-1054.44,1045.35,1859.19
1330,-3.8728,-0.6543,-0.0820,1476.81,-1767.03,1109.19
1340,-3.8730,-0.6367,-0.1072,258.06,1514.34,-875.18
1350,-3.8732,-0.7382,-0.1415,-1491.94,-1704.41,1468.51
1360,-3.8733,-0.8992,-0.1790,1523.68,1904.79,-906.56
1370,-3.8733,-0.9640,-0.1814,914.31,1107.60,-1172.24
1380,-3.8735,-0.9307,-0.1669,617.43,794.98,-1547.24
1390,-3.8739,-0.8508,-0.2024,883.06,-1345.58,-1031.62
1400,-3.8740,-0.7712,-0.2798,-898.19,-1892.33,-594.18
1410,-3.8739,-0.7262,-0.3545,1289.31,201.60,1702.58
1420,-3.8738,-0.6980,-0.3687,-945.07,-1360.84,-922.61
1430,-3.8737,-0.6823,-0.3378,-1335.69,826.72,-1578.86
1440,-3.8737,-0.6981,-0.3232,679.93,779.91,-797.55
1450,-3.8735,-0.7374,-0.3451,-1351.32,-1360.78,468.08
1460,-3.8735,-0.7545,-0.3899,1617.43,-157.71,1983.64
1470,-3.8734,-0.7378,-0.4163,-570.07,-1892.15,1077.33
1480,-3.8733,-0.7112,-0.3986,1570.56,-1267.09,-1953.98
1490,-3.8732,-0.6962,-0.3669,976.81,998.60,-985.17
1500,-3.8730,-0.7108,-0.3591,-1101.32,1045.47,-0.73
1510,-3.8728,-0.7407,-0.3690,1023.68,-1954.53,-1922.61
1520,-3.8726,-0.7625,-0.3580,1195.56,779.79,-1110.11
1530,-3.8723,-0.7806,-0.3108,-1585.69,-1814.03,-172.61
1540,-3.8721,-0.7971,-0.2493,86.18,232.85,-1828.74
1550,-3.8718,-0.7999,-0.1874,1976.81,107.79,937.01
1560,-3.8716,-0.7832,-0.1292,1617.43,29.66,1359.01
1570,-3.8713,-0.7417,-0.0839,-241.94,-517.21,-1844.06
1580,-3.8711,-0.6848,-0.0529,1070.56,1279.79,796.69
1590,-3.8710,-0.6099,-0.0214,351.81,1248.66,-656.37
1600,-3.8707,-0.5088,0.0000,1945.56,1280.03,-515.69
1610,-3.8705,-0.3837,-0.0255,-1116.94,14.59,62.50
1620,-3.8705,-0.2537,-0.0850,-1101.32,749.21,1296.81
1630,-3.8706,-0.1898,-0.1351,-460.69,1140.08,1671.69
1640,-3.8710,-0.1929,-0.1808,-288.82,-1281.68,-703.43
1650,-3.8712,-0.2200,-0.2256,-679.44,874.57,-750.37
1660,-3.8712,-0.2748,-0.2540,-148.19,-859.86,937.01
1670,-3.8712,-0.3334,-0.2478,836.18,-500.55,1530.70
1680,-3.8711,-0.3716,-0.1707,1336.18,296.20,-687.99
1690,-3.8707,-0.3898,-0.0356,445.56,-1828.86,1593.38
1700,-3.8705,-0.3782,0.0880,-1882.57,-547.67,1656.13
1710,-3.8705,-0.3431,0.1453,-398.19,-719.54,-1031.13
1720,-3.8705,-0.3105,0.1211,86.18,-1391.30,1312.74
1730,-3.8705,-0.2820,0.0533,258.06,-484.99,1140.81
1740,-3.8706,-0.2472,-0.0176,-85.69,-1156.86,-484.31
1750,-3.8707,-0.2054,-0.0604,367.43,1765.14,-687.56
1760,-3.8707,-0.1616,-0.0350,1711.18,280.82,-1734.50
1770,-3.8706,-0.1418,0.0454,-679.44,-469.12,1906.13
1780,-3.8705,-0.1377,0.1165,1851.81,1827.82,-1218.69
1790,-3.8704,-0.1195,0.1355,-1616.94,-1078.43,-515.44
1800,-3.8702,-0.0963,0.1035,711.18,1359.13,-1827.88
1810,-3.8702,-0.0626,0.0469,-320.07,1265.38,1047.06
1820,-3.8704,-0.0284,0.0074,-7.57,-1984.56,859.44
1830,-3.8705,-0.0023,-0.0049,367.43,968.69,968.75
1840,-3.8706,0.0552,-0.0167,-288.82,-609.44,-1109.44
1850,-3.8706,0.1438,-0.0277,-929.44,1859.44,1953.06
1860,-3.8706,0.2356,-0.0292,-1585.69,453.37,1140.56
1870,-3.8706,0.3068,-0.0167,-1835.69,266.05,624.94
1880,-3.8706,0.3312,0.0160,-726.32,1859.92,1265.56
1890,-3.8706,0.3207,0.0546,-1601.32,-1952.51,1671.88
1900,-3.8706,0.3003,0.0847,1054.93,-1015.01,1828.19
1910,-3.8706,0.2708,0.0985,-1554.44,-1155.70,-1921.75
1920,-3.8706,0.2339,0.0952,-1335.69,609.86,-874.82
1930,-3.8705,0.2214,0.0869,1945.56,187.93,-1624.82
1940,-3.8704,0.2385,0.0837,351.81,-874.57,-640.50
1950,-3.8701,0.2651,0.0941,-1460.69,-1280.82,1953.25
1960,-3.8700,0.2878,0.1140,1945.56,47.36,-906.07
1970,-3.8699,0.2566,0.1254,851.81,-1405.70,1093.93
1980,-3.8699,0.1633,0.1184,851.81,47.36,-1546.63
1990,-3.8699,0.0759,0.0824,914.31,-843.44,1453.31
2000,-3.8700,0.0225,0.0236,1726.81,-1453.00,562.62
2010,-3.8702,-0.0083,-0.0211,-1116.94,-984.38,1953.12
2020,-3.8705,-0.0386,-0.0352,-1054.44,1312.44,-718.81
2030,-3.8706,-0.1174,-0.0371,-929.44,-484.50,546.75
2040,-3.8708,-0.2468,-0.0336,976.81,-734.62,-500.12
2050,-3.8708,-0.4014,-0.0200,414.31,-281.74,999.88
2060,-3.8710,-0.5682,-0.0050,633.06,1452.33,-593.81
2070,-3.8710,-0.6973,0.0074,-726.32,-626.16,1578.06
2080,-3.8711,-0.7510,0.0120,-1241.94,967.35,-515.62
2090,-3.8711,-0.7532,-0.0040,-116.94,1545.35,359.38
2100,-3.8713,-0.7368,-0.0414,-398.19,-501.53,-1843.81
2110,-3.8716,-0.7191,-0.0741,1695.56,-1282.71,1640.50
2120,-3.8718,-0.7330,-0.0767,-38.82,-1470.21,656.07
2130,-3.8722,-0.8175,-0.0708,-1820.07,-1798.34,1327.94
2140,-3.8727,-0.9500,-0.0842,-632.57,-1048.52,-593.93
2150,-3.8730,-1.0759,-0.1171,-1585.69,1232.48,-1047.06
2160,-3.8733,-1.1959,-0.1466,-1710.69,1029.11,1265.38
2170,-3.8735,-1.3160,-0.1459,-1070.07,1247.62,-1906.56
2180,-3.8737,-1.4055,-0.1162,-445.07,1341.13,655.94
2190,-3.8739,-1.4523,-0.0881,101.81,1137.88,-1031.49
2200,-3.8740,-1.5055,-0.0719,-1882.57,731.51,999.82
2210,-3.8743,-1.5881,-0.0544,-695.07,-1190.49,-484.56
2220,-3.8743,-1.6610,-0.0366,726.81,1043.76,734.25
2230,-3.8744,-1.7157,-0.0292,-601.32,-675.17,-1734.50
2240,-3.8745,-1.6986,-0.0903,398.68,277.89,1296.81
2250,-3.8748,-1.5393,-0.2288,-1413.82,449.77,1765.44
2260,-3.8750,-1.2957,-0.3835,-1023.19,-1268.68,1358.89
2270,-3.8439,-1.0845,-0.4991,-1835.69,-1080.69,827.33
2280,-3.8439,-0.9614,-0.5282,1195.56,122.86,1186.52
2290,-3.8750,-0.9126,-0.4841,945.56,404.36,186.46
2300,-3.8750,-0.9072,-0.4153,-804.44,-1954.96,-282.23
2310,-3.8749,-0.9380,-0.3602,-116.94,-1142.46,-1125.85
2320,-3.8748,-1.0256,-0.3334,-54.44,1904.36,1827.39
2330,-3.8748,-1.1615,-0.3322,726.81,1341.74,-219.42
2340,-3.8748,-1.2794,-0.3364,-663.82,1497.68,-31.92
2350,-3.8748,-1.3197,-0.3251,242.43,950.62,-31.92
2360,-3.8746,-1.2823,-0.2998,-913.82,-1596.37,561.83
2370,-3.8746,-1.1982,-0.2582,-132.57,1638.06,1999.39
2380,-3.8745,-1.0933,-0.2054,-1366.94,-1033.63,968.20
2390,-3.8744,-0.9995,-0.1721,70.56,1716.61,671.45
2400,-3.8744,-0.9388,-0.1797,70.56,1982.42,-109.74
2410,-3.8743,-0.9023,-0.2035,-163.82,1013.73,-984.74
2420,-3.8741,-0.8850,-0.1968,508.06,1966.98,-1062.93
2430,-3.8739,-0.8876,-0.1331,-1273.19,-1173.65,1452.70
2440,-3.8737,-0.8868,-0.0305,-1601.32,-1017.40,-547.18
2450,-3.8733,-0.8788,0.0469,-1507.57,107.60,-1796.94
2460,-3.8730,-0.8926,0.0529,-476.32,-1986.15,-546.81
2470,-3.8727,-0.9316,0.0195,1758.06,-1220.52,93.81
2480,-3.8724,-0.9734,0.0190,758.06,-1486.21,1812.50
2490,-3.8721,-0.9938,0.0752,-585.69,-1548.83,1250.00
2500,-3.8717,-0.9836,0.1537,804.93,1638.67,1078.25
2510,-3.8715,-0.9733,0.2069,-1898.19,-314.45,-1796.63
2520,-3.8712,-1.0005,0.2192,-570.07,-1501.95,250.37
2530,-3.8711,-1.0380,0.2271,-54.44,76.11,-187.07
2540,-3.8706,-1.0322,0.2693,-851.32,1076.05,234.80
2550,-3.8701,-0.9745,0.3357,-116.94,-1517.70,344.24
2560,-3.8696,-0.8763,0.3900,-726.32,-1017.58,469.36
2570,-3.8693,-0.7408,0.4127,-163.82,1935.73,-1764.89
2580,-3.8688,-0.6185,0.4147,1179.93,842.29,782.04
2590,-3.8684,-0.5762,0.4307,836.18,1092.53,-1061.71
2600,-3.8682,-0.5352,0.4833,-1741.94,-860.53,922.67
2610,-3.8680,-0.4255,0.5093,-491.94,1873.90,-1749.08
2620,-3.8677,-0.3013,0.4828,1539.31,1202.27,-1858.40
2630,-3.8673,-0.1970,0.4496,1445.56,1811.89,547.79
2640,-3.8672,-0.1144,0.4148,-1210.69,1562.07,1266.48
2650,-3.8672,-0.0239,0.3748,1367.43,1109.13,1313.29
2660,-3.8673,0.0918,0.3341,945.56,-15.69,-1624.33
2670,-3.8674,0.2056,0.2832,-241.94,-1234.25,1313.11
2680,-3.8677,0.2836,0.2070,-1679.44,250.37,938.05
2690,-3.8682,0.2933,0.1211,304.93,-1499.45,-343.38
2700,-3.8687,0.2262,0.0540,1554.93,-499.45,1625.18
2710,-3.8693,0.0831,0.0138,961.18,-1093.32,734.44
2720,-3.8700,-0.1646,-0.0072,-1351.32,1765.75,-234.38
2730,-3.8705,-0.4756,-0.0305,-1054.44,-906.62,624.94
2740,-3.8710,-0.7258,-0.0746,-866.94,108.40,1937.44
2750,-3.8711,-0.8510,-0.1180,-898.19,-1532.71,77.94
2760,-3.8710,-0.8674,-0.0868,-913.82,904.54,1515.38
2770,-3.8706,-0.8030,0.0439,976.81,904.54,-890.81
2780,-3.8701,-0.6616,0.1752,1226.81,1639.04,750.06
2790,-3.8699,-0.4669,0.2124,-679.44,-1563.84,547.18
2800,-3.8699,-0.2838,0.1526,242.43,-797.79,906.62
2810,-3.8701,-0.1824,0.0312,-320.07,-453.74,-1796.63
2820,-3.8705,-0.1958,-0.1027,664.31,15.26,-468.69
2830,-3.8707,-0.3041,-0.1884,-1054.44,-1125.43,1171.63
2840,-3.8710,-0.4495,-0.1899,1086.18,-94.36,1530.82
2850,-3.8711,-0.5612,-0.1138,-1523.19,-297.79,671.45
2860,-3.8712,-0.6256,0.0040,179.93,1452.03,1609.13
2870,-3.8713,-0.7175,0.1224,-70.07,529.97,-1015.62
2880,-3.8715,-0.8790,0.2141,164.31,-313.90,-1468.57
2890,-3.8717,-1.0280,0.2421,-507.57,-579.90,1390.99
2900,-3.8722,-1.0670,0.1685,429.93,-1002.01,-999.57
2910,-3.8727,-0.9889,0.0110,-570.07,1575.99,-1640.32
2920,-3.8732,-0.8523,-0.1515,1429.93,1419.92,-546.88
2930,-3.8734,-0.7208,-0.2450,-1085.69,623.29,546.57
2940,-3.8737,-0.6217,-0.2485,-257.57,654.79,-1812.99
2950,-3.8738,-0.5504,-0.1925,429.93,201.90,-344.24
2960,-3.8738,-0.5111,-0.1136,1554.93,-626.10,-453.55
2970,-3.8737,-0.5410,-0.0242,-1413.82,1467.71,1140.38
2980,-3.8737,-0.6508,0.0641,-1241.94,920.78,-1437.56
2990,-3.8737,-0.7997,0.1228,711.18,217.47,1125.12
3000,-3.8738,-0.9576,0.1294,1648.68,-267.21,343.93
3010,-3.8740,-1.1063,0.0909,1429.93,576.23,828.37
3020,-3.8744,-1.2288,0.0387,-1601.32,-345.95,-1203.00
3030,-3.8748,-1.3541,-0.0020,-1273.19,966.31,-1359.31
3040,-3.8439,-1.5096,-0.0377,-1320.07,-237.06,1249.94
3050,-3.8444,-1.6433,-0.0906,-1226.32,-815.49,-656.37
3060,-3.8447,-1.6891,-0.1724,1664.31,418.64,-1828.31
3070,-3.8451,-1.6443,-0.2664,-195.07,1949.77,-531.62
3080,-3.8452,-1.5548,-0.3447,1539.31,1918.64,93.20
3090,-3.8453,-1.4684,-0.3865,992.43,-112.43,186.77
3100,-3.8453,-1.4161,-0.3856,54.93,-1455.99,124.21
3110,-3.8453,-1.3860,-0.3689,-1257.57,-1346.56,-813.29
3120,-3.8452,-1.3394,-0.3668,-1398.19,794.13,-672.61
3130,-3.8451,-1.2827,-0.3783,570.56,1059.88,-344.48
3140,-3.8450,-1.2566,-0.3810,-179.44,-408.81,-469.54
3150,-3.8448,-1.2808,-0.3616,-835.69,-752.50,-1844.54
3160,-3.8448,-1.3315,-0.3315,70.56,1731.87,-172.61
3170,-3.8447,-1.3669,-0.3105,1570.56,1575.50,1186.83
3180,-3.8447,-1.3690,-0.3007,1039.31,262.94,-1516.24
3190,-3.8447,-1.3615,-0.2853,773.68,1528.56,-141.24
3200,-3.8446,-1.3822,-0.2450,1742.43,-502.69,1343.14
3210,-3.8446,-1.4288,-0.1803,-913.82,653.50,-1328.61
3220,-3.8446,-1.4631,-0.1169,1117.43,934.69,-375.37
3230,-3.8445,-1.4645,-0.0730,726.81,1044.01,874.76
3240,-3.8445,-1.4374,-0.0492,554.93,-1330.99,-422.06
3250,-3.8444,-1.4041,-0.0319,23.68,1715.94,-62.62
3260,-3.8441,-1.4050,0.0083,289.31,-65.25,1968.63
3270,-3.8439,-1.4572,0.0874,164.31,1075.38,1765.62
3280,-3.8749,-1.5100,0.1796,1492.43,-799.74,-1859.25
3290,-3.8746,-1.5013,0.2336,-1273.19,-1002.99,-1359.07
3300,-3.8743,-1.4458,0.2316,-163.82,1918.88,422.30
3310,-3.8739,-1.3911,0.2158,-1054.44,1653.38,375.43
3320,-3.8735,-1.3402,0.2438,1945.56,-362.12,-687.13
3330,-3.8729,-1.2769,0.3246,461.18,-783.87,906.68
3340,-3.8723,-1.2100,0.4281,570.56,1560.00,156.86
3350,-3.8717,-1.1667,0.5271,1133.06,-1189.88,1188.29
3360,-3.8711,-1.1504,0.6022,-1335.69,-517.94,-358.40
3370,-3.8704,-1.1042,0.6486,758.06,1091.49,-1358.22
3380,-3.8696,-0.9961,0.6897,-1335.69,-970.95,844.97
3390,-3.8691,-0.8861,0.7338,508.06,294.92,-61.16
3400,-3.8687,-0.8195,0.7549,-1413.82,1935.73,-1576.72
3410,-3.8684,-0.7816,0.7413,-882.57,638.98,-420.41
3420,-3.8683,-0.7605,0.6947,-38.82,-1095.34,-764.22
3430,-3.8683,-0.7546,0.6166,-1335.69,935.97,-1701.78
3440,-3.8683,-0.7424,0.5490,-585.69,-1064.03,282.41
3450,-3.8683,-0.6917,0.5428,976.81,-1720.21,1126.04
3460,-3.8682,-0.5986,0.5985,-523.19,1498.60,1938.54
3470,-3.8679,-0.4698,0.6835,-616.94,623.78,1454.28
3480,-3.8677,-0.2875,0.7706,-132.57,-500.98,-1373.72
3490,-3.8673,-0.0551,0.8264,-788.82,-1344.36,313.96
3500,-3.8672,0.1832,0.7928,961.18,1796.75,-1779.66
3510,-3.8672,0.3625,0.6464,-538.82,1484.68,595.28
3520,-3.8676,0.4237,0.4384,-1585.69,-1264.95,-186.28
3530,-3.8679,0.3618,0.2566,-1757.57,110.17,-1983.52
3540,-3.8684,0.2262,0.1626,-1679.44,844.42,1109.86
3550,-3.8690,0.0658,0.1604,961.18,812.93,-359.07
3560,-3.8694,-0.1022,0.2117,429.93,531.37,578.43
3570,-3.8698,-0.2716,0.2697,-1070.07,-890.87,1062.87
3580,-3.8700,-0.4203,0.3009,1242.43,-1469.30,266.11
3590,-3.8702,-0.5276,0.3197,-1788.82,-1469.60,1984.92
3600,-3.8704,-0.5931,0.3660,476.81,936.46,-905.64
3610,-3.8704,-0.6229,0.4430,86.18,-1141.78,-171.20
3620,-3.8702,-0.6328,0.5276,273.68,717.53,-967.90
3630,-3.8701,-0.6504,0.6045,-991.94,-454.41,-1920.90
3640,-3.8701,-0.6919,0.6688,758.06,1389.34,1844.91
3650,-3.8702,-0.7615,0.7125,-554.44,1623.60,391.91
3660,-3.8706,-0.8558,0.7245,-1460.69,-782.78,1110.72
3670,-3.8711,-0.9552,0.7115,-1538.82,748.29,1095.15
3680,-3.8717,-1.0560,0.6887,1742.43,-908.14,-1951.78
3690,-3.8723,-1.1779,0.6721,836.18,169.80,1657.59
3700,-3.8729,-1.3088,0.6693,1242.43,-1955.44,954.41
3710,-3.8737,-1.4031,0.6526,476.81,1684.94,-139.34
3720,-3.8743,-1.4362,0.5959,414.31,-455.87,-1467.53
3730,-3.8749,-1.4304,0.5063,179.93,294.07,1391.78
3740,-3.8442,-1.4332,0.4015,914.31,825.32,1016.60
3750,-3.8448,-1.4573,0.2988,554.93,-596.56,-1749.27
3760,-3.8453,-1.4612,0.2213,1476.81,-1737.24,1531.80
3770,-3.8458,-1.4344,0.1733,976.81,340.88,-843.32
3780,-3.8462,-1.3936,0.1337,398.68,-1799.68,-718.44
3790,-3.8464,-1.3386,0.0784,1633.06,1122.25,1047.12
3800,-3.8468,-1.2948,0.0035,664.31,-1955.75,-593.63
3810,-3.8470,-1.2712,-0.0826,-1726.32,466.19,1765.62
3820,-3.8473,-1.2290,-0.1704,1289.31,1435.00,406.07
3830,-3.8475,-1.1595,-0.2407,-1304.44,-1799.32,421.51
3840,-3.8478,-1.1208,-0.2871,-413.82,1200.81,-1312.99
3850,-3.8479,-1.1361,-0.3206,539.31,-736.57,-1328.74
3860,-3.8480,-1.1525,-0.3539,-1413.82,-1017.88,-781.92
3870,-3.8480,-1.1274,-0.3928,492.43,-1283.51,530.52
3880,-3.8481,-1.0592,-0.4387,-304.44,1732.12,-657.04
3890,-3.8480,-0.9731,-0.4829,429.93,-142.70,92.83
3900,-3.8480,-0.8925,-0.5103,-554.44,-1798.83,-1391.60
3910,-3.8479,-0.8270,-0.5155,1773.68,-1298.65,-1579.16
3920,-3.8478,-0.7838,-0.5042,-1851.32,-1970.40,-532.29
3930,-3.8475,-0.7657,-0.4879,-320.07,-517.21,1467.71
3940,-3.8474,-0.7664,-0.4768,1992.43,1560.97,-532.23
3950,-3.8472,-0.7789,-0.4674,1914.31,-1017.15,545.90
3960,-3.8470,-0.8069,-0.4448,304.93,185.97,874.08
3970,-3.8469,-0.8600,-0.4048,726.81,-923.46,1014.71
3980,-3.8468,-0.9315,-0.3638,1929.93,201.42,671.08
3990,-3.8468,-0.9849,-0.3400,773.68,1451.29,-1094.48
4000,-3.8468,-0.9987,-0.3402,1945.56,498.05,-703.80
4010,-3.8468,-0.9895,-0.3566,179.93,466.80,-1438.17
4020,-3.8468,-0.9824,-0.3578,1351.81,-1626.95,-1578.86
4030,-3.8467,-0.9884,-0.3246,-1741.94,-1783.20,139.89
4040,-3.8467,-0.9948,-0.2637,1492.43,-1533.20,-313.17
4050,-3.8464,-1.0071,-0.1825,679.93,-1736.33,561.95
4060,-3.8463,-1.0461,-0.1074,-898.19,654.24,1124.63
4070,-3.8463,-1.0984,-0.0687,-1898.19,-1736.45,-890.87
4080,-3.8463,-1.1309,-0.0690,-585.69,-783.45,1077.94
4090,-3.8464,-1.1353,-0.0829,-741.94,-814.76,46.69
4100,-3.8467,-1.1272,-0.0774,-1304.44,1403.99,-1547.06
4110,-3.8468,-1.1270,-0.0354,-273.19,-1892.88,1531.07
4120,-3.8469,-1.1630,0.0442,-241.94,-517.88,-1609.50
4130,-3.8469,-1.2471,0.1530,-851.32,1669.56,-796.81
4140,-3.8467,-1.3500,0.2712,383.06,-408.69,1297.12
4150,-3.8464,-1.4166,0.3735,-788.82,-1268.31,-593.26
4160,-3.8461,-1.4148,0.4568,-1320.07,-174.68,-843.08
4170,-3.8457,-1.3734,0.5364,-1085.69,-1518.43,-1327.27
4180,-3.8453,-1.3481,0.5977,211.18,669.19,954.16
4190,-3.8451,-1.3663,0.6108,-554.44,512.94,-1998.84
4200,-3.8448,-1.4227,0.5906,1117.43,-1799.56,-733.22
4210,-3.8445,-1.4940,0.5754,1898.68,-393.43,-1483.28
4220,-3.8440,-1.5594,0.5891,773.68,1668.95,751.10
4230,-3.8748,-1.6161,0.6487,398.68,-581.18,-780.15
4240,-3.8740,-1.6582,0.7479,1148.68,-956.30,-1858.15
4250,-3.8733,-1.6682,0.8414,-241.94,-253.30,-1857.97
4260,-3.8727,-1.6425,0.8798,-1523.19,-284.55,-967.16
4270,-3.8721,-1.5994,0.8594,1773.68,621.77,64.21
4280,-3.8717,-1.5565,0.8073,-710.69,-1987.55,-1013.98
4290,-3.8712,-1.5111,0.7460,773.68,-659.30,829.65
4300,-3.8708,-1.4457,0.6969,-1413.82,-502.99,1704.53
4310,-3.8705,-1.3597,0.6716,-1038.82,1215.88,1673.22
4320,-3.8701,-1.2695,0.6676,1961.18,1981.69,1063.78
4330,-3.8698,-1.1871,0.6896,1508.06,1466.25,345.03
4340,-3.8695,-1.1213,0.7378,54.93,278.93,-342.41
4350,-3.8691,-1.0635,0.7825,476.81,-1549.07,1532.65
4360,-3.8690,-0.9893,0.7897,-116.94,169.74,-654.72
4370,-3.8689,-0.8887,0.7507,1383.06,1091.80,204.65
4380,-3.8690,-0.7817,0.6761,-1741.94,107.60,1485.84
4390,-3.8691,-0.6945,0.5852,-54.44,-1439.09,266.91
4400,-3.8694,-0.6331,0.5007,-882.57,-1079.53,626.10
4410,-3.8698,-0.6036,0.4320,-1023.19,108.09,-1030.27
4420,-3.8700,-0.6110,0.3903,-1257.57,-688.72,750.79
4430,-3.8704,-0.6495,0.4000,1804.93,1967.53,-77.39
4440,-3.8705,-0.7040,0.4668,867.43,-782.53,1563.23
4450,-3.8706,-0.7607,0.5519,1898.68,-235.78,469.60
4460,-3.8708,-0.8191,0.6056,-1366.94,-1345.28,-1952.09
4470,-3.8711,-0.8804,0.6250,-835.69,1529.60,735.53
4480,-3.8715,-0.9606,0.6396,-679.44,13.85,688.72
4490,-3.8719,-1.0765,0.6615,1054.93,1888.73,-1076.90
4500,-3.8724,-1.2094,0.6791,-1788.82,685.36,-61.22
4510,-3.8729,-1.3217,0.6782,1211.18,-1064.88,-358.09
4520,-3.8734,-1.3995,0.6511,-1163.82,-1174.50,-1967.47
4530,-3.8740,-1.4500,0.5974,867.43,-643.37,-30.03
4540,-3.8745,-1.4846,0.5299,-1585.69,481.51,-873.84
4550,-3.8749,-1.5073,0.4747,1976.81,-159.18,1704.10
4560,-3.8439,-1.5001,0.4530,-929.44,778.26,1032.17
4570,-3.8440,-1.4408,0.4705,-7.57,1997.01,328.98
4580,-3.8441,-1.3372,0.5142,-413.82,231.51,1329.04
4590,-3.8442,-1.2242,0.5460,851.81,1825.50,1907.23
4600,-3.8444,-1.1246,0.5356,-695.07,1903.81,1610.41
4610,-3.8445,-1.0455,0.4867,54.93,575.93,938.54
4620,-3.8446,-0.9827,0.4292,-1820.07,-1689.58,172.79
4630,-3.8448,-0.9351,0.3813,-1773.19,-1048.83,-952.33
4640,-3.8450,-0.9104,0.3473,320.56,826.29,1000.73
4650,-3.8452,-0.9156,0.3342,-523.19,466.92,1563.17
4660,-3.8455,-0.9612,0.3379,-1195.07,-1204.96,750.61
4670,-3.8458,-1.0310,0.3422,976.81,-736.27,-233.76
4680,-3.8461,-1.0917,0.3368,39.31,-189.51,-30.64
4690,-3.8462,-1.1401,0.3279,273.68,-877.14,984.99
4700,-3.8464,-1.1895,0.3011,-1929.44,1982.12,1156.86
4710,-3.8467,-1.2236,0.2349,-241.94,-1439.88,31.80
4720,-3.8470,-1.2290,0.1338,-616.94,-1924.32,-1280.82
4730,-3.8473,-1.2159,0.0385,-1304.44,1138.18,-937.26
4740,-3.8474,-1.2074,0.0028,367.43,935.12,-1187.44
4750,-3.8474,-1.2263,0.0316,1461.18,372.62,-1515.62
4760,-3.8473,-1.2642,0.0692,-960.69,60.06,703.19
4770,-3.8473,-1.2930,0.0691,-1804.44,872.50,-671.75
4780,-3.8472,-1.3030,0.0297,-1491.94,856.81,625.12
4790,-3.8473,-1.3047,-0.0402,1226.81,-190.06,-234.38
4800,-3.8473,-1.3026,-0.1189,1008.06,-1127.56,1593.63
4810,-3.8474,-1.2902,-0.1821,1273.68,794.31,-656.49
4820,-3.8474,-1.2566,-0.2256,-1132.57,700.56,1546.51
4830,-3.8474,-1.1990,-0.2570,-835.69,-861.88,640.14
4840,-3.8474,-1.1282,-0.2804,-1460.69,-877.38,1155.70
4850,-3.8474,-1.0583,-0.2950,-398.19,122.74,-1078.67
4860,-3.8473,-0.9971,-0.3031,539.31,-1752.08,968.14
4870,-3.8473,-0.9528,-0.3035,383.06,1216.80,-1672.49
4880,-3.8473,-0.9379,-0.2931,-1945.07,1169.98,-1344.36
4890,-3.8473,-0.9523,-0.2729,-38.82,-1501.89,-1875.61
4900,-3.8473,-0.9829,-0.2410,-1882.57,1076.23,1780.70
4910,-3.8473,-1.0206,-0.1914,-1804.44,1169.92,-1016.11
4920,-3.8472,-1.0667,-0.1215,1367.43,-486.39,1655.82
4930,-3.8470,-1.1184,-0.0417,-523.19,466.61,109.13
4940,-3.8470,-1.1650,0.0276,851.81,-1330.32,640.50
4950,-3.8472,-1.2015,0.0664,-1116.94,-455.44,-937.50
4960,-3.8472,-1.2166,0.0826,-1788.82,513.24,1156.37
4970,-3.8472,-1.2028,0.1002,289.31,-1408.63,125.12
4980,-3.8473,-1.1880,0.1287,-1945.07,841.37,-234.19
4990,-3.8472,-1.1987,0.1682,-54.44,481.99,281.49
5000,-3.8472,-1.2161,0.2222,-1429.44,1544.49,1875.31
5010,-3.8470,-1.2175,0.2845,351.81,450.74,1391.05
5020,-3.8468,-1.1937,0.3530,164.31,435.12,453.67
5030,-3.8466,-1.1450,0.4307,-788.82,1200.74,-1546.20
5040,-3.8462,-1.0961,0.5018,1445.56,-861.63,500.79
5050,-3.8461,-1.0732,0.5422,-288.82,247.80,-389.65
5060,-3.8459,-1.0894,0.5381,-1366.94,1419.74,-1467.71
5070,-3.8459,-1.1382,0.5082,570.56,888.49,-436.46
5080,-3.8458,-1.2070,0.5024,-1679.44,1060.24,1985.35
5090,-3.8457,-1.2876,0.5492,1508.06,325.74,-1374.02
5100,-3.8456,-1.3655,0.6252,-804.44,-1690.06,-311.46
5110,-3.8453,-1.4106,0.7006,1226.81,44.19,360.60
5120,-3.8452,-1.3990,0.7645,-554.44,1684.69,688.84
5130,-3.8452,-1.3604,0.7952,929.93,1872.25,-451.66
5140,-3.8451,-1.3469,0.7749,1883.06,1794.19,1032.78
5150,-3.8451,-1.3601,0.7439,-398.19,-799.56,-1029.79
5160,-3.8450,-1.3560,0.7523,1914.31,-768.31,-1342.35
5170,-3.8448,-1.3125,0.8007,-1554.44,309.81,-404.79
5180,-3.8446,-1.2557,0.8619,8.06,-1502.56,610.90
5190,-3.8445,-1.2271,0.9182,-726.32,-1658.75,1673.52
5200,-3.8444,-1.2480,0.9597,-1054.44,1544.43,-279.48
5210,-3.8441,-1.3125,0.9706,258.06,-1143.07,-716.92
5220,-3.8750,-1.3923,0.9534,8.06,247.44,1408.14
5230,-3.8746,-1.4507,0.9309,1789.31,-1955.87,-1045.04
5240,-3.8741,-1.4480,0.9219,-1679.44,-830.99,-607.60
5250,-3.8735,-1.3802,0.9403,-1335.69,-1987.24,-1716.98
5260,-3.8729,-1.3015,0.9895,-663.82,372.25,-357.54
5270,-3.8722,-1.2548,1.0443,1414.31,-1330.69,-841.86
5280,-3.8715,-1.2301,1.0684,-601.32,1685.00,-326.11
5290,-3.8707,-1.1910,1.0409,-1445.07,763.18,-341.67
5300,-3.8700,-1.1136,0.9678,-445.07,1247.62,-1951.11
5310,-3.8694,-1.0125,0.8778,1461.18,-111.57,-1701.29
5320,-3.8689,-0.9143,0.7964,-1585.69,372.99,-123.29
5330,-3.8684,-0.8395,0.7357,-1023.19,1951.29,1798.40
5340,-3.8682,-0.7913,0.7032,554.93,-1814.15,-482.97
5350,-3.8679,-0.7584,0.6875,-1273.19,-1970.34,798.22
5360,-3.8679,-0.7410,0.6576,-1070.07,14.10,657.59
5370,-3.8682,-0.7318,0.6016,1164.31,186.04,-1873.72
5380,-3.8685,-0.7151,0.5427,-1663.82,1014.16,1610.53
5390,-3.8690,-0.6891,0.5027,476.81,1482.97,1641.66
5400,-3.8695,-0.6614,0.4846,-195.07,357.97,1782.23
5410,-3.8699,-0.6359,0.4913,-648.19,-1954.47,297.79
5420,-3.8702,-0.6113,0.5288,-1382.57,-1095.03,1235.29
5430,-3.8706,-0.6001,0.5918,1758.06,-298.10,-670.90
5440,-3.8708,-0.6331,0.6702,-804.44,-235.60,1344.85
5450,-3.8712,-0.7297,0.7537,-1023.19,1795.59,-1639.34
5460,-3.8716,-0.8828,0.8292,-1398.19,482.91,1282.71
5470,-3.8721,-1.0745,0.8884,-991.94,-1845.52,1689.09
5480,-3.8727,-1.2811,0.9288,-1523.19,1732.24,-295.17
5490,-3.8732,-1.4761,0.9530,23.68,-1096.25,111.15
5500,-3.8738,-1.6439,0.9617,-929.44,1997.07,454.96
5510,-3.8744,-1.7891,0.9512,1586.18,-893.86,1626.83
5520,-3.8749,-1.8837,0.9224,-991.94,1762.08,329.96
5530,-3.8441,-1.8660,0.8938,-1101.32,-1925.60,-1638.85
5540,-3.8444,-1.7360,0.8749,1164.31,-1581.79,736.08
5550,-3.8446,-1.5558,0.8436,1804.93,-3.42,-1967.10
5560,-3.8447,-1.3672,0.7990,867.43,-3.05,517.21
5570,-3.8450,-1.1973,0.7670,1008.06,-1721.44,-717.22
5580,-3.8451,-1.0876,0.7435,-1241.94,-1814.88,-1342.29
5590,-3.8452,-1.0491,0.7030,789.31,-814.64,-748.60
5600,-3.8452,-1.0492,0.6385,1726.81,1997.92,141.97
5610,-3.8453,-1.0632,0.5764,1711.18,1747.92,563.72
5620,-3.8455,-1.1017,0.5458,-85.69,1794.74,329.22
5630,-3.8457,-1.1699,0.5299,-1007.57,1872.80,-1139.59
5640,-3.8458,-1.2241,0.4976,-1741.94,-158.57,141.60
5650,-3.8461,-1.2179,0.4417,-679.44,-299.32,704.04
5660,-3.8463,-1.1567,0.3702,117.43,544.49,688.35
5670,-3.8467,-1.0746,0.2859,-54.44,-596.07,-249.33
5680,-3.8469,-1.0028,0.1857,-1538.82,607.24,-1358.83
5690,-3.8472,-0.9500,0.0940,-351.32,-220.76,-1109.07
5700,-3.8473,-0.9111,0.0380,-1585.69,44.98,968.93
5710,-3.8474,-0.8901,0.0088,-616.94,873.17,468.81
5720,-3.8475,-0.8876,-0.0176,-1929.44,1138.85,1281.25
5730,-3.8477,-0.9202,-0.0493,-1601.32,1763.85,-656.31
5740,-3.8477,-1.0056,-0.0850,-1773.19,1701.29,1906.13
5750,-3.8477,-1.1028,-0.1224,-710.69,1138.61,171.69
5760,-3.8478,-1.1600,-0.1594,-1148.19,341.55,-1718.99
5770,-3.8478,-1.1722,-0.1990,-476.32,-392.94,734.01
5780,-3.8479,-1.1598,-0.2465,1961.18,-1455.44,-359.80
5790,-3.8479,-1.1364,-0.2947,-445.07,466.43,-594.24
5800,-3.8478,-1.1028,-0.3292,-1445.07,-1705.38,718.14
5810,-3.8478,-1.0637,-0.3497,-1148.19,1872.80,-485.05
5820,-3.8477,-1.0294,-0.3569,-148.19,-752.14,-1078.86
5830,-3.8475,-0.9998,-0.3552,242.43,-1673.89,-1672.61
5840,-3.8474,-0.9714,-0.3556,39.31,-1455.08,1764.89
5850,-3.8473,-0.9473,-0.3560,-335.69,-1501.95,1389.89
5860,-3.8472,-0.9294,-0.3564,-1241.94,-1548.77,421.14
5870,-3.8472,-0.9147,-0.3717,1039.31,-1611.21,1624.27
5880,-3.8472,-0.8959,-0.3961,-1070.07,435.67,796.14
5890,-3.8473,-0.8845,-0.4070,1336.18,1310.73,-1344.54
5900,-3.8473,-0.9034,-0.3960,-1210.69,-79.90,61.65
5910,-3.8474,-0.9409,-0.3723,367.43,1326.35,1905.46
5920,-3.8474,-0.9620,-0.3397,-429.44,357.48,843.02
5930,-3.8474,-0.9590,-0.2858,867.43,529.36,968.08
5940,-3.8474,-0.9459,-0.2089,1258.06,-564.39,-1609.99
5950,-3.8473,-0.9312,-0.1348,-1070.07,1279.36,968.32
5960,-3.8473,-0.9275,-0.0986,820.56,-1236.21,-172.18
5970,-3.8472,-0.9435,-0.1011,1289.31,-611.21,1702.88
5980,-3.8472,-0.9786,-0.1089,-757.57,-923.77,-1578.37
5990,-3.8472,-1.0272,-0.0913,-1257.57,-1923.83,-531.49
6000,-3.8470,-1.0786,-0.0372,523.68,326.11,-1984.56
6010,-3.8469,-1.1251,0.0356,1945.56,-752.14,1484.25
6020,-3.8468,-1.1525,0.1063,-7.57,575.87,515.69
6030,-3.8468,-1.1519,0.1780,492.43,1622.74,-1859.19
6040,-3.8468,-1.1445,0.2500,570.56,-1205.38,-1859.07
6050,-3.8468,-1.1641,0.2938,1508.06,13.37,1219.24
6060,-3.8468,-1.2163,0.2952,-991.94,1622.68,281.80
6070,-3.8468,-1.2722,0.2798,320.56,1794.49,250.55
6080,-3.8468,-1.3044,0.2903,1164.31,-174.38,-1952.64
6090,-3.8467,-1.3154,0.3445,1039.31,1169.31,1922.42
6100,-3.8466,-1.3229,0.4268,-366.94,106.75,-436.83
6110,-3.8463,-1.3401,0.5166,-1320.07,-1362.00,-1342.96
6120,-3.8461,-1.3691,0.5999,476.81,-1862.00,-1170.90
6130,-3.8458,-1.3928,0.6738,758.06,794.19,-61.34
6140,-3.8455,-1.3973,0.7434,1726.81,-1737.12,1626.28
6150,-3.8452,-1.3977,0.7982,1148.68,-830.87,-1107.97
6160,-3.8450,-1.3966,0.8323,1101.81,-1815.25,-732.85
6170,-3.8447,-1.3840,0.8457,1242.43,-1455.87,-795.29
6180,-3.8444,-1.3839,0.8391,-1148.19,262.88,548.52
6190,-3.8440,-1.4231,0.8329,-1132.57,-580.87,1454.71
6200,-3.8748,-1.4728,0.8538,1851.81,-1377.81,-1592.16
6210,-3.8741,-1.4728,0.9109,-507.57,1293.95,1954.77
6220,-3.8735,-1.3948,0.9764,-507.57,606.45,986.15
6230,-3.8730,-1.2740,1.0000,1476.81,997.25,142.52
6240,-3.8728,-1.1761,0.9613,929.93,13.12,-904.30
6250,-3.8724,-1.1293,0.8878,1461.18,-939.82,1533.08
6260,-3.8721,-1.1160,0.8235,-538.82,1653.99,-1217.04
6270,-3.8716,-1.1222,0.7969,1164.31,1419.68,-748.41
6280,-3.8710,-1.1396,0.8031,367.43,-1986.57,-1967.22
6290,-3.8704,-1.1425,0.8141,-1866.94,-1189.76,-1904.72
6300,-3.8698,-1.0992,0.8057,1773.68,216.49,1423.46
6310,-3.8693,-1.0057,0.7710,-695.07,-861.57,1282.78
6320,-3.8689,-0.8894,0.7296,-726.32,-1298.89,470.21
6330,-3.8688,-0.7800,0.7084,-1835.69,1404.48,-264.22
6340,-3.8687,-0.6813,0.6838,164.31,-1314.03,-467.41
6350,-3.8687,-0.5782,0.6217,804.93,-454.47,-1233.09
6360,-3.8688,-0.4792,0.5334,1992.43,-407.41,516.78
6370,-3.8691,-0.4243,0.4490,-1335.69,295.90,1313.54
6380,-3.8696,-0.4442,0.3958,1695.56,1483.52,-905.40
6390,-3.8700,-0.5165,0.3835,-851.32,-1329.04,313.23
6400,-3.8705,-0.5973,0.4093,1898.68,1108.34,-1374.27
6410,-3.8708,-0.6829,0.4620,-445.07,405.03,1907.04
6420,-3.8712,-0.7889,0.5190,601.81,-845.09,1532.10
6430,-3.8716,-0.9176,0.5750,-976.32,-1548.46,1985.35
6440,-3.8719,-1.0634,0.6343,-1445.07,1607.54,-248.90
6450,-3.8722,-1.2000,0.6730,-101.32,1200.99,1891.85
6460,-3.8726,-1.2826,0.6649,-1585.69,-1846.13,-936.22
6470,-3.8729,-1.2899,0.6345,-163.82,1122.44,-1061.22
6480,-3.8733,-1.2560,0.6113,-1101.32,1231.81,-1670.65
6490,-3.8737,-1.2338,0.5878,-757.57,-1736.88,-951.97
6500,-3.8739,-1.2329,0.5640,-1913.82,-752.44,-1186.40
6510,-3.8740,-1.2231,0.5796,-1804.44,200.68,-1998.90
6520,-3.8741,-1.1917,0.6469,-554.44,-1799.32,-1123.90
6530,-3.8743,-1.1586,0.6935,-523.19,-1189.88,-1061.28
6540,-3.8744,-1.1368,0.6615,-288.82,778.93,1282.59
6550,-3.8746,-1.1232,0.5707,-1507.57,685.24,1907.53
6560,-3.8749,-1.1151,0.4814,242.43,1060.30,1876.10
6570,-3.8439,-1.1221,0.4288,1273.68,1638.43,-1077.21
6580,-3.8440,-1.1422,0.4171,383.06,-1095.95,-1686.71
6590,-3.8440,-1.1504,0.4583,1804.93,1403.99,157.04
6600,-3.8441,-1.1444,0.5316,758.06,-1330.38,-499.15
6610,-3.8441,-1.1400,0.5752,1523.68,60.24,-952.09
6620,-3.8441,-1.1270,0.5457,-1913.82,1638.37,1516.72
6630,-3.8442,-1.0853,0.4662,-241.94,1857.12,-1311.46
6640,-3.8444,-1.0209,0.4071,1086.18,-314.64,-842.90
6650,-3.8445,-0.9696,0.4011,1336.18,122.99,-92.96
6660,-3.8445,-0.9579,0.4343,-101.32,-642.58,1969.48
6670,-3.8445,-0.9824,0.4865,1398.68,-392.52,578.92
6680,-3.8446,-1.0198,0.5406,-1741.94,-1720.70,-1780.33
6690,-3.8447,-1.0378,0.5856,1476.81,1216.74,1782.29
6700,-3.8450,-1.0475,0.6091,-835.69,-1033.33,-795.78
6710,-3.8452,-1.1160,0.5956,1929.93,1982.30,-1295.72
6720,-3.8456,-1.2574,0.5367,1164.31,247.80,-295.72
6730,-3.8459,-1.4037,0.4453,-945.07,716.25,-764.59
6740,-3.8463,-1.4987,0.3555,336.18,1012.88,-280.40
6750,-3.8466,-1.5483,0.3140,179.93,1512.70,-389.95
6760,-3.8466,-1.5840,0.3125,1820.56,200.07,516.24
6770,-3.8466,-1.5986,0.3031,1258.06,12.51,-1999.39
6780,-3.8464,-1.5516,0.2706,-616.94,-1190.67,1453.67
6790,-3.8464,-1.4203,0.2201,1398.68,-1346.80,-46.39
6800,-3.8463,-1.2413,0.1699,-1788.82,184.69,1062.93
6810,-3.8463,-1.0934,0.1490,1117.43,1763.18,-1905.94
6820,-3.8463,-1.0297,0.1575,54.93,-908.39,-749.76
6830,-3.8463,-1.0439,0.1605,211.18,169.86,-749.69
6840,-3.8463,-1.0897,0.1362,-1616.94,560.42,1047.18
6850,-3.8464,-1.1246,0.0870,523.68,1450.99,1328.37
6860,-3.8466,-1.1367,0.0276,54.93,-845.95,1562.62
6870,-3.8467,-1.1360,-0.0280,-1491.94,-455.38,-1781.25
6880,-3.8468,-1.1329,-0.0688,-1398.19,435.24,-671.94
6890,-3.8468,-1.1271,-0.0782,-1007.57,-799.13,1499.82
6900,-3.8468,-1.1188,-0.0498,-257.57,1997.74,937.32
6910,-3.8468,-1.1174,0.0037,804.93,1638.43,1765.50
6920,-3.8467,-1.1222,0.0680,976.81,482.18,500.00
6930,-3.8466,-1.1215,0.1323,367.43,716.55,1000.12
6940,-3.8464,-1.1041,0.1945,461.18,950.93,-1781.01
6950,-3.8463,-1.0806,0.2544,-1320.07,904.05,-968.38
6960,-3.8462,-1.0728,0.3055,1695.56,575.99,-1296.39
6970,-3.8461,-1.0787,0.3500,-1304.44,-877.14,875.55
6980,-3.8461,-1.0919,0.3898,1929.93,810.36,1563.17
6990,-3.8461,-1.1274,0.4142,242.43,1904.11,1828.86
7000,-3.8461,-1.1891,0.4294,-304.44,1028.99,-233.58
7010,-3.8458,-1.2561,0.4595,-195.07,-1018.01,547.67
7020,-3.8457,-1.3030,0.4897,-773.19,-1174.38,-983.52
7030,-3.8455,-1.2960,0.4897,1226.81,-1299.44,1063.42
7040,-3.8453,-1.2263,0.4723,-1882.57,-1299.44,1516.54
7050,-3.8452,-1.1411,0.4589,-960.69,466.31,188.42
7060,-3.8452,-1.0952,0.4485,1945.56,-1252.26,1485.23
7070,-3.8452,-1.0957,0.4506,-179.44,1419.68,-733.52
7080,-3.8450,-1.1383,0.4736,-241.94,1685.30,266.48
7090,-3.8447,-1.2036,0.5071,-1695.07,638.37,-1889.71
7100,-3.8444,-1.2402,0.5348,1945.56,919.49,-30.27
7110,-3.8439,-1.2294,0.5419,1258.06,466.31,1719.79
7120,-3.8749,-1.1849,0.5175,-1351.32,1372.56,-1170.84
7130,-3.8748,-1.1320,0.4586,336.18,-1752.32,1844.73
7140,-3.8748,-1.1007,0.3695,-882.57,-1283.51,688.35
7150,-3.8749,-1.0656,0.2871,-882.57,-689.70,-311.83
7160,-3.8748,-0.9971,0.2555,-382.57,763.49,-1827.58
7170,-3.8745,-0.9312,0.2802,383.06,716.80,1234.86
7180,-3.8743,-0.9050,0.3375,820.56,-126.83,-280.76
7190,-3.8739,-0.9315,0.3783,164.31,-783.02,1625.61
7200,-3.8738,-0.9893,0.3649,773.68,435.67,-764.89
7210,-3.8738,-1.0352,0.3003,1383.06,-1283.20,-452.45
7220,-3.8738,-1.0547,0.2198,-491.94,-1548.95,641.17
7230,-3.8739,-1.0663,0.1733,1008.06,154.17,-1890.20
7240,-3.8739,-1.0912,0.1914,-476.32,-1799.01,-702.82
7250,-3.8737,-1.1218,0.2469,336.18,513.49,1250.37
7260,-3.8734,-1.1226,0.2911,414.31,-377.20,1672.30
7270,-3.8732,-1.0833,0.2982,320.56,1279.05,719.30
7280,-3.8732,-1.0197,0.2761,1351.81,-1814.64,-233.83
7290,-3.8732,-0.9602,0.2435,1492.43,-642.64,-296.39
7300,-3.8732,-0.9427,0.2031,1101.81,-814.39,-46.45
7310,-3.8729,-0.9611,0.1766,-663.82,-1986.27,312.87
7320,-3.8727,-0.9717,0.1809,992.43,-1376.89,844.06
7330,-3.8724,-0.9523,0.2059,-366.94,-830.08,-952.82
7340,-3.8721,-0.9237,0.2366,-1882.57,-1626.89,-1437.13
7350,-3.8717,-0.9098,0.2490,1773.68,-1704.96,-562.07
7360,-3.8713,-0.8999,0.2334,-445.07,-111.21,-655.82
7370,-3.8711,-0.8705,0.2024,820.56,1888.85,-155.82
7380,-3.8708,-0.8210,0.1692,586.18,1920.17,1234.74
7390,-3.8707,-0.7705,0.1422,-1085.69,1670.23,1453.43
7400,-3.8706,-0.7227,0.1282,1383.06,-1782.78,1843.99
7410,-3.8705,-0.6763,0.1317,-491.94,420.41,-1656.01
7420,-3.8704,-0.6466,0.1512,1445.56,873.66,1750.24
7430,-3.8704,-0.6444,0.1765,1242.43,-626.28,-1171.63
7440,-3.8704,-0.6661,0.1942,1523.68,-1391.91,1031.56
7450,-3.8705,-0.7046,0.2026,-1257.57,873.66,1094.12
7460,-3.8706,-0.7606,0.2051,1820.56,1951.72,734.74
7470,-3.8707,-0.8374,0.1969,-1351.32,-1735.90,1015.99
7480,-3.8708,-0.9219,0.1876,820.56,1217.10,1797.24
7490,-3.8710,-0.9945,0.2017,-1991.94,29.42,-765.26
7500,-3.8710,-1.0516,0.2531,711.18,1826.17,-1515.26
7510,-3.8710,-1.0945,0.3285,1398.68,404.17,-530.76
7520,-3.8710,-1.1206,0.3883,-85.69,-1939.70,-890.01
7530,-3.8711,-1.1256,0.4000,570.56,1716.55,-1733.64
7540,-3.8713,-1.1172,0.3729,-70.07,-783.51,953.86
7550,-3.8717,-1.1206,0.3353,1008.06,-252.20,1594.42
7560,-3.8721,-1.1335,0.3037,570.56,-1064.70,-1358.76
7570,-3.8723,-1.1301,0.2933,-1085.69,-1111.63,1766.17
7580,-3.8726,-1.1228,0.3130,-648.19,1560.24,-671.33
7590,-3.8727,-1.1293,0.3573,289.31,75.93,1609.99
7600,-3.8729,-1.1224,0.4197,-538.82,1747.74,-249.33
7610,-3.8730,-1.0842,0.4749,336.18,1732.18,1610.17
7620,-3.8733,-1.0532,0.4799,1226.81,794.74,1297.79
7630,-3.8737,-1.0835,0.4188,1195.56,1435.42,1516.54
7640,-3.8741,-1.1700,0.3250,1320.56,1622.86,-780.46
7650,-3.8745,-1.2550,0.2522,-1757.57,1607.06,453.74
7660,-3.8749,-1.3081,0.2332,-632.57,294.37,641.11
7670,-3.8439,-1.3320,0.2499,570.56,1856.81,-1952.70
7680,-3.8440,-1.3097,0.2712,1508.06,-2.62,-593.32
7690,-3.8440,-1.2449,0.2994,367.43,-1268.19,-1202.64
7700,-3.8440,-1.1790,0.3260,664.31,-1658.69,-765.08
7710,-3.8439,-1.1035,0.3478,1101.81,1747.68,516.24
7720,-3.8439,-0.9724,0.3790,-1241.94,529.05,-405.58
7730,-3.8750,-0.8207,0.3868,-460.69,529.30,-1280.52
7740,-3.8750,-0.7360,0.3496,-1038.82,1529.60,1969.48
7750,-3.8439,-0.7616,0.3077,1804.93,764.16,313.17
7760,-3.8441,-0.8640,0.3210,-1476.32,-595.28,250.55
7770,-3.8444,-0.9890,0.4261,1414.31,1107.67,-1640.01
7780,-3.8444,-1.1383,0.5782,1414.31,-1439.45,1625.79
7790,-3.8444,-1.3142,0.6782,-1695.07,-1971.01,-30.15
7800,-3.8444,-1.4775,0.6680,-210.69,-1174.50,-326.84
7810,-3.8445,-1.5728,0.5710,-1116.94,1512.70,1251.28
7820,-3.8448,-1.5532,0.4631,-1304.44,1106.26,-1373.90
7830,-3.8452,-1.4512,0.3937,1195.56,-706.18,-155.40
7840,-3.8455,-1.3522,0.3632,-1741.94,-1596.62,-389.89
7850,-3.8456,-1.2965,0.3516,-1070.07,-1502.69,-1749.33
7860,-3.8457,-1.2764,0.3413,-1945.07,1013.06,-1218.08
7870,-3.8457,-1.2765,0.3273,633.06,-299.38,1156.86
7880,-3.8457,-1.2885,0.3088,617.43,1903.75,1375.61
7890,-3.8457,-1.2932,0.2739,-913.82,-455.69,1922.42
7900,-3.8457,-1.2749,0.2124,-1523.19,-924.44,766.11
7910,-3.8458,-1.2682,0.1367,820.56,-799.38,1703.49
7920,-3.8459,-1.2844,0.0601,1679.93,1513.12,1781.49
7930,-3.8461,-1.2795,0.0037,-398.19,-299.44,-1609.31
7940,-3.8461,-1.2355,-0.0085,226.81,481.87,687.50
7950,-3.8461,-1.1658,0.0182,1867.43,-1080.57,890.56
7960,-3.8461,-1.0913,0.0610,-1210.69,-1658.57,-1171.88
7970,-3.8459,-1.0294,0.1052,320.56,-174.01,-1984.31
7980,-3.8458,-1.0062,0.1438,242.43,1482.36,1125.18
7990,-3.8458,-1.0286,0.1697,-788.82,-1580.14,-249.76
8000,-3.8457,-1.0631,0.1882,351.81,1732.36,-1468.44
8010,-3.8456,-1.0903,0.2174,-70.07,107.24,-1812.13
8020,-3.8455,-1.1132,0.2634,445.56,-158.39,-1046.51
8030,-3.8453,-1.1388,0.3176,1523.68,1732.18,-327.64
8040,-3.8452,-1.1737,0.3655,-1757.57,669.62,-1202.51
8050,-3.8452,-1.2091,0.4114,1773.68,-1205.44,-155.58
8060,-3.8452,-1.2343,0.4576,1242.43,669.49,-842.96
8070,-3.8452,-1.2369,0.4832,-1976.32,-1408.69,-1952.27
8080,-3.8452,-1.2195,0.4772,1679.93,1856.93,1766.54
8090,-3.8452,-1.2094,0.4562,-85.69,1091.31,1969.67
8100,-3.8452,-1.2098,0.4423,1211.18,-1596.13,-1342.90
8110,-3.8451,-1.1951,0.4420,1148.68,622.62,1000.85
8120,-3.8450,-1.1583,0.4524,-960.69,591.37,1610.23
8130,-3.8448,-1.1217,0.4624,-257.57,1919.56,-1092.90
8140,-3.8447,-1.1016,0.4609,429.93,-799.07,-1139.77
8150,-3.8446,-1.0826,0.4502,-991.94,-986.57,1016.48
8160,-3.8446,-1.0509,0.4402,1429.93,1638.49,-1483.52
8170,-3.8445,-1.0277,0.4414,1492.43,357.30,1266.48
8180,-3.8444,-1.0361,0.4585,461.18,513.61,-1467.90
8190,-3.8441,-1.0728,0.4819,-616.94,-1298.95,-1858.52
8200,-3.8439,-1.1230,0.5033,-1304.44,1700.99,-77.21
8210,-3.8748,-1.1603,0.5242,258.06,435.30,-389.65
8220,-3.8744,-1.1532,0.5435,-507.57,-892.94,-155.27
8230,-3.8740,-1.1053,0.5581,398.68,1575.87,-795.84
8240,-3.8737,-1.0597,0.5614,-1476.32,-549.07,563.54
8250,-3.8735,-1.0574,0.5410,367.43,-127.08,-1436.46
8260,-3.8734,-1.1067,0.5039,664.31,1263.55,1141.66
8270,-3.8734,-1.1899,0.4746,-1648.19,513.43,-1483.40
8280,-3.8733,-1.2754,0.4690,-304.44,763.24,1750.92
8290,-3.8730,-1.3300,0.4952,758.06,44.37,391.54
8300,-3.8728,-1.3461,0.5536,1773.68,-596.37,1922.79
8310,-3.8724,-1.3352,0.6202,-288.82,-1127.69,719.79
8320,-3.8722,-1.3069,0.6545,1101.81,-596.37,-1655.09
8330,-3.8719,-1.2684,0.6263,726.81,-205.69,266.85
8340,-3.8719,-1.2239,0.5391,1648.68,185.00,1391.85
8350,-3.8721,-1.1667,0.4399,-648.19,1013.18,-764.59
8360,-3.8721,-1.1096,0.3727,-1335.69,325.81,1188.35
8370,-3.8721,-1.0693,0.3518,1976.81,-283.45,1969.42
8380,-3.8719,-1.0402,0.3735,-866.94,1044.74,-1811.83
8390,-3.8717,-1.0063,0.4127,-1132.57,-173.95,750.67
8400,-3.8716,-0.9575,0.4397,-804.44,841.74,-46.08
8410,-3.8713,-0.8933,0.4418,1445.56,294.98,-1561.65
8420,-3.8712,-0.8174,0.4255,1664.31,560.73,-999.15
8430,-3.8711,-0.7416,0.4039,-616.94,-1517.27,1578.92
8440,-3.8711,-0.6829,0.3811,1086.18,-282.71,-1561.77
8450,-3.8711,-0.6470,0.3511,601.81,795.53,953.86
8460,-3.8712,-0.6422,0.3153,1195.56,951.84,860.05
8470,-3.8715,-0.6783,0.2853,1804.93,373.72,-1311.89
8480,-3.8717,-0.7366,0.2776,1179.93,529.91,-358.83
8490,-3.8718,-0.7998,0.3071,1726.81,-454.59,1531.74
8500,-3.8719,-0.8699,0.3615,1633.06,-673.46,1219.30
8510,-3.8721,-0.9362,0.4086,664.31,-1720.46,1922.55
8520,-3.8722,-0.9824,0.4360,179.93,310.67,-1686.71
8530,-3.8723,-1.0121,0.4475,-1741.94,-173.83,1516.42
8540,-3.8726,-1.0392,0.4427,-1538.82,1294.86,-639.77
8550,-3.8727,-1.0671,0.4369,-1007.57,685.42,688.35
8560,-3.8729,-1.0872,0.4447,-585.69,-64.64,-1796.08
8570,-3.8732,-1.1031,0.4509,851.81,935.36,-624.15
8580,-3.8733,-1.1298,0.4413,-1195.07,1732.18,110.23
8590,-3.8735,-1.1639,0.4241,-601.32,497.74,985.23
8600,-3.8738,-1.1924,0.4070,-976.32,-1705.44,-1796.08
8610,-3.8740,-1.2112,0.3862,-616.94,106.99,-46.08
8620,-3.8741,-1.2191,0.3655,976.81,1450.74,-1436.77
8630,-3.8743,-1.2180,0.3525,-38.82,-1205.57,-1796.20
8640,-3.8744,-1.2263,0.3469,101.81,1138.24,-1061.83
8650,-3.8744,-1.2555,0.3469,-960.69,419.43,0.67
8660,-3.8745,-1.2869,0.3499,-695.07,419.37,78.80
8670,-3.8748,-1.2975,0.3484,-710.69,794.31,-1218.08
8680,-3.8749,-1.2870,0.3409,1929.93,606.81,985.05
8690,-3.8439,-1.2705,0.3275,-726.32,-346.31,-93.14
8700,-3.8440,-1.2631,0.3046,1383.06,1935.00,-171.26
8710,-3.8440,-1.2545,0.2788,-1663.82,-1002.50,16.17
8720,-3.8441,-1.2195,0.2612,-570.07,-299.38,141.11
8730,-3.8442,-1.1624,0.2482,-85.69,1450.68,1016.11
8740,-3.8444,-1.1077,0.2354,-773.19,-221.07,-999.57
8750,-3.8444,-1.0549,0.2357,-1773.19,-1861.57,1875.43
8760,-3.8444,-0.9937,0.2739,976.81,-1814.58,1875.43
8770,-3.8444,-0.9443,0.3715,820.56,-923.83,-1155.76
8780,-3.8444,-0.9408,0.4972,-866.94,-439.39,-139.95
8790,-3.8444,-0.9684,0.5847,-413.82,-345.64,-139.71
8800,-3.8444,-0.9840,0.6212,54.93,-1142.52,1813.60
8810,-3.8445,-1.0009,0.6328,-1945.07,-470.70,719.91
8820,-3.8448,-1.0487,0.6251,-101.32,1013.61,-420.65
8830,-3.8452,-1.1162,0.5795,1773.68,29.17,1532.47
8840,-3.8457,-1.1820,0.4794,1133.06,-1814.70,32.35
8850,-3.8463,-1.2435,0.3503,711.18,1372.68,-983.46
8860,-3.8467,-1.3029,0.2505,836.18,856.93,-1624.33
8870,-3.8468,-1.3535,0.2162,1242.43,75.56,297.36
8880,-3.8468,-1.3885,0.2427,-1241.94,-315.19,265.99
8890,-3.8468,-1.3936,0.2839,-1726.32,-924.62,-921.45
8900,-3.8467,-1.3403,0.2993,1633.06,356.63,1688.05
8910,-3.8467,-1.2334,0.2882,445.56,-1674.50,-1155.70
8920,-3.8467,-1.1180,0.2505,-1866.94,903.81,-1577.58
8930,-3.8467,-1.0347,0.1803,898.68,75.93,344.24
8940,-3.8468,-0.9995,0.0931,-429.44,-908.33,953.43
8950,-3.8469,-0.9980,0.0166,70.56,-64.45,1390.75
8960,-3.8470,-0.9995,-0.0330,258.06,-1861.33,-703.12
8970,-3.8470,-0.9868,-0.0505,70.56,-205.08,-140.75
8980,-3.8469,-0.9640,-0.0354,1695.56,1544.92,-718.87
8990,-3.8467,-0.9445,0.0116,617.43,-517.52,859.25
9000,-3.8466,-0.9409,0.0763,-882.57,1498.11,-1046.88
9010,-3.8463,-0.9532,0.1322,-429.44,1779.36,656.37
9020,-3.8462,-0.9690,0.1727,1992.43,935.61,1797.12
9030,-3.8461,-0.9761,0.2155,-23.19,-1876.95,1844.06
9040,-3.8459,-0.9785,0.2709,-929.44,-408.20,578.49
9050,-3.8459,-0.9878,0.3323,-1241.94,-1314.45,-1812.01
9060,-3.8459,-1.0081,0.3751,1570.56,-1455.08,-1968.14
9070,-3.8461,-1.0266,0.3896,-1023.19,29.24,-546.14
9080,-3.8462,-1.0259,0.3899,601.81,1888.61,-811.77
9090,-3.8463,-1.0129,0.3777,695.56,1919.86,-1264.89
9100,-3.8464,-1.0026,0.3556,-1648.19,357.36,-202.39
9110,-3.8464,-0.9980,0.3453,-320.07,1529.24,-889.95
9120,-3.8463,-1.0056,0.3618,258.06,216.80,31.92
9130,-3.8463,-1.0280,0.3910,-710.69,-1673.89,1844.42
9140,-3.8462,-1.0510,0.4130,429.93,-1939.51,938.23
9150,-3.8461,-1.0623,0.4310,1476.81,872.92,1953.92
9160,-3.8458,-1.0775,0.4644,39.31,-814.58,672.67
9170,-3.8456,-1.1078,0.5200,-1913.82,-549.01,16.48
9180,-3.8455,-1.1310,0.5677,-1788.82,-1424.07,-1499.02
9190,-3.8453,-1.1318,0.5665,-757.57,685.24,-670.78
9200,-3.8452,-1.1140,0.5178,-866.94,528.99,-1327.03
9210,-3.8451,-1.0775,0.4741,1414.31,-1705.32,610.35
9220,-3.8451,-1.0519,0.4731,-1913.82,700.99,-1889.71
9230,-3.8450,-1.0870,0.5028,1367.43,576.05,907.17
9240,-3.8448,-1.1665,0.5321,867.43,372.86,938.48
9250,-3.8447,-1.2424,0.5452,-1304.44,122.68,-1873.96
9260,-3.8445,-1.3020,0.5549,976.81,1794.43,1219.79
9270,-3.8442,-1.3304,0.5668,1351.81,-955.69,1688.54
9280,-3.8440,-1.3062,0.5765,1711.18,559.88,-1358.28
9290,-3.8750,-1.2418,0.5906,820.56,1809.94,-92.65
9300,-3.8746,-1.1882,0.6143,1054.93,-393.07,-1827.03
9310,-3.8743,-1.1824,0.6400,-85.69,-1361.76,-1998.84
9320,-3.8739,-1.2090,0.6608,664.31,1935.18,-1123.78
9330,-3.8735,-1.2239,0.6730,1258.06,591.37,-951.84
9340,-3.8732,-1.2117,0.6663,-648.19,-1846.19,1251.28
9350,-3.8729,-1.1921,0.6426,914.31,1294.49,-1811.22
9360,-3.8727,-1.1708,0.6216,-585.69,-1736.76,-1014.40
9370,-3.8724,-1.1545,0.6053,-1851.32,-424.19,-748.84
9380,-3.8722,-1.1611,0.5704,226.81,1497.74,-1670.72
9390,-3.8719,-1.1812,0.5222,-616.94,1028.93,1157.35
9400,-3.8717,-1.1956,0.4994,820.56,-1142.94,1063.48
9410,-3.8715,-1.2030,0.5109,-1023.19,-64.88,-1795.96
9420,-3.8711,-1.1937,0.5444,-1976.32,1403.87,454.10
9430,-3.8708,-1.1552,0.5858,-788.82,1700.74,-1373.96
9440,-3.8706,-1.0968,0.6128,148.68,-1002.26,-1452.03
9450,-3.8705,-1.0414,0.6113,-382.57,-1549.07,-1155.09
9460,-3.8705,-0.9935,0.5795,-1288.82,-1736.45,-764.47
9470,-3.8706,-0.9457,0.5251,836.18,-1814.45,-202.03
9480,-3.8707,-0.8936,0.4606,-1038.82,-767.52,594.73
9490,-3.8711,-0.8374,0.4095,1633.06,-1033.02,-1436.65
9500,-3.8715,-0.8015,0.3951,820.56,435.85,-139.83
9510,-3.8717,-0.8162,0.4076,1414.31,-1407.84,1688.23
9520,-3.8721,-0.8682,0.4294,-460.69,185.85,-249.21
9530,-3.8723,-0.9298,0.4546,883.06,-1017.33,1797.67
9540,-3.8727,-1.0033,0.4734,992.43,-1798.71,-46.02
9550,-3.8729,-1.0914,0.4795,-413.82,607.36,-1342.83
9560,-3.8732,-1.1818,0.4751,304.93,1388.49,-1749.08
9570,-3.8734,-1.2614,0.4677,742.43,825.81,-827.21
9580,-3.8735,-1.3252,0.4546,-1445.07,-127.50,1594.60
9590,-3.8737,-1.3594,0.4340,-1616.94,-1799.50,938.35
9600,-3.8738,-1.3420,0.4103,-1991.94,-440.19,344.54
9610,-3.8739,-1.2823,0.3835,226.81,528.63,94.54
9620,-3.8740,-1.2068,0.3651,-132.57,1106.81,1172.61
9630,-3.8741,-1.1348,0.3722,1539.31,-1252.38,-327.45
9640,-3.8741,-1.0796,0.4059,-1241.94,-346.01,-1030.58
9650,-3.8741,-1.0583,0.4468,1820.56,-33.39,1828.86
9660,-3.8743,-1.0758,0.4757,539.31,1201.05,-936.65
9670,-3.8744,-1.1178,0.4922,-1695.07,904.11,-1561.58
9680,-3.8746,-1.1818,0.4913,929.93,-986.57,-264.71
9690,-3.8749,-1.2615,0.4590,742.43,-1096.07,-1077.21
9700,-3.8439,-1.3217,0.4016,-1460.69,-1236.88,797.73
9710,-3.8442,-1.3312,0.3385,-1163.82,-580.75,-1202.39
9720,-3.8445,-1.2947,0.2830,1617.43,-658.87,-811.89
9730,-3.8446,-1.2252,0.2639,-1710.69,231.81,-733.83
9740,-3.8446,-1.1230,0.3108,-820.07,1794.43,-1843.26
9750,-3.8446,-1.0138,0.3967,258.06,-205.32,-1624.45
9760,-3.8446,-0.9364,0.4583,-1757.57,-1205.14,-1280.52
9770,-3.8446,-0.9371,0.4839,148.68,-1329.96,-1139.77
9780,-3.8446,-1.0477,0.4919,54.93,1951.29,1485.29
9790,-3.8448,-1.2139,0.4696,1898.68,-1017.70,-358.46
9800,-3.8451,-1.3696,0.4243,633.06,122.62,1407.17
9810,-3.8455,-1.4946,0.3787,695.56,-1674.56,-1405.46
9820,-3.8457,-1.5770,0.3323,695.56,481.45,-983.64
9830,-3.8458,-1.5900,0.2784,-1851.32,-1456.24,-1093.14
9840,-3.8458,-1.4896,0.2174,492.43,-346.86,703.61
9850,-3.8458,-1.2783,0.1853,1336.18,-159.18,15.99
9860,-3.8459,-1.0361,0.2031,383.06,-268.13,-202.82
9870,-3.8459,-0.8529,0.2355,-616.94,-1986.45,-749.63
9880,-3.8459,-0.7706,0.2585,-1163.82,-1845.46,-1437.07
9890,-3.8459,-0.7892,0.2762,1367.43,1107.85,1000.49
9900,-3.8461,-0.8695,0.2915,-1007.57,-626.59,1328.61
9910,-3.8463,-0.9783,0.2841,711.18,1326.42,-546.33
9920,-3.8464,-1.0916,0.2318,-1210.69,373.05,703.67
9930,-3.8467,-1.1848,0.1469,289.31,1685.36,-1640.20
9940,-3.8468,-1.2509,0.0665,351.81,-1189.82,781.49
9950,-3.8470,-1.2708,0.0123,-101.32,528.75,-31.13
9960,-3.8470,-1.2290,-0.0177,1351.81,1591.25,500.00
9970,-3.8472,-1.1376,-0.0259,-1304.44,1747.56,-1015.69
9980,-3.8472,-1.0201,-0.0107,-1601.32,700.87,-187.56
9990,-3.8470,-0.9070,0.0282,1429.93,-1361.39,-968.81
10000,-3.8469,-0.8199,0.0807,-85.69,-376.83,-593.75
10010,-3.8468,-0.7672,0.1273,-945.07,-1657.90,-249.88
10020,-3.8467,-0.7520,0.1567,1804.93,310.97,-656.01
10030,-3.8466,-0.7689,0.1740,-241.94,76.60,1703.43
10040,-3.8466,-0.8107,0.1952,1586.18,-1720.28,-1296.57
10050,-3.8466,-0.8698,0.2146,242.43,998.41,-1140.26
10060,-3.8466,-0.9264,0.2211,679.93,-517.33,-593.38
10070,-3.8464,-0.9606,0.2264,1429.93,310.67,812.93
10080,-3.8464,-0.9696,0.2461,1054.93,998.11,-1515.20
10090,-3.8464,-0.9634,0.2795,-101.32,-486.33,-249.57
10100,-3.8463,-0.9612,0.3123,695.56,-205.02,531.74
10110,-3.8463,-0.9716,0.3441,976.81,-17.52,1344.30
10120,-3.8463,-0.9895,0.3655,-351.32,60.55,1875.67
10130,-3.8463,-1.0126,0.3540,1351.81,-1205.08,1922.55
10140,-3.8463,-1.0327,0.3247,-1601.32,1326.11,-1530.58
10150,-3.8462,-1.0487,0.3156,-179.44,1576.05,281.86
10160,-3.8462,-1.0758,0.3464,1773.68,404.17,-343.14
10170,-3.8459,-1.1187,0.4114,-1695.07,357.24,938.17
10180,-3.8458,-1.1700,0.4871,820.56,669.68,-342.96
10190,-3.8456,-1.2129,0.5427,-1757.57,-1642.94,-1983.46
10200,-3.8455,-1.2246,0.5481,758.06,1481.99,-1717.71
10210,-3.8453,-1.1979,0.5153,-741.94,-1830.57,1157.29
10220,-3.8452,-1.1661,0.4885,-1320.07,1966.37,282.23
10230,-3.8451,-1.1710,0.4913,-1257.57,-1455.44,672.79
10240,-3.8450,-1.2054,0.5217,-1882.57,-1096.07,-858.46
10250,-3.8447,-1.2433,0.5546,1711.18,-1205.51,-467.77
10260,-3.8444,-1.2854,0.5712,867.43,-1002.44,1282.29
10270,-3.8440,-1.3572,0.5779,-523.19,1122.44,438.60
10280,-3.8749,-1.4478,0.5964,-1710.69,1981.69,1344.85
10290,-3.8745,-1.4952,0.6442,-1304.44,356.51,-576.97
10300,-3.8740,-1.4642,0.6993,617.43,-1534.18,688.72
10310,-3.8738,-1.3834,0.7281,586.18,1528.38,-842.41
10320,-3.8735,-1.3018,0.7316,-1070.07,1216.00,-1857.97
10330,-3.8734,-1.2529,0.7300,1383.06,1653.69,-1014.22
10340,-3.8733,-1.2371,0.7313,-366.94,1450.62,-389.22
10350,-3.8730,-1.2274,0.7305,1664.31,1622.56,1157.65
10360,-3.8728,-1.1902,0.7308,-1101.32,1513.18,392.03
10370,-3.8726,-1.1195,0.7289,-335.69,1560.12,376.40
10380,-3.8724,-1.0475,0.7120,711.18,1310.30,-639.22
10390,-3.8722,-1.0107,0.6846,1929.93,-845.83,391.97
10400,-3.8722,-1.0248,0.6678,-1366.94,-361.39,-154.97
10410,-3.8721,-1.0789,0.6725,836.18,1497.99,-1014.34
10420,-3.8719,-1.1407,0.6727,1914.31,-1908.39,1782.53
10430,-3.8719,-1.1639,0.6370,1992.43,-1877.26,-1029.97
10440,-3.8719,-1.1261,0.5773,-976.32,1544.56,1813.72
10450,-3.8721,-1.0614,0.5388,-132.57,1903.99,-1061.40
10460,-3.8722,-1.0062,0.5298,148.68,982.30,-670.84
10470,-3.8723,-0.9498,0.5225,-788.82,-173.89,-436.52
10480,-3.8723,-0.8909,0.5222,-1570.07,-1111.27,110.35
10490,-3.8724,-0.8604,0.5482,1976.81,-1142.40,438.48
10500,-3.8727,-0.8759,0.5905,1883.06,-1814.21,-780.21
10510,-3.8728,-0.9342,0.6248,-101.32,-408.02,516.72
10520,-3.8730,-1.0275,0.6399,429.93,-17.46,766.78
10530,-3.8733,-1.1464,0.6406,492.43,1919.86,204.35
10540,-3.8737,-1.2867,0.6438,1273.68,-1986.63,-108.15
10550,-3.8738,-1.4512,0.6572,-695.07,-1580.69,1391.85
10560,-3.8739,-1.6199,0.6779,-1741.94,137.76,1720.03
10570,-3.8739,-1.7401,0.7103,664.31,-1221.92,235.66
10580,-3.8740,-1.7566,0.7383,1273.68,-1065.92,-529.91
10590,-3.8740,-1.6566,0.7421,-835.69,-1487.85,-1514.22
10600,-3.8740,-1.4852,0.7206,-38.82,-1003.30,532.65
10610,-3.8741,-1.3007,0.6875,1898.68,247.07,1673.28
10620,-3.8743,-1.1488,0.6671,1523.68,13.06,-1029.91
10630,-3.8743,-1.0636,0.6593,961.18,1403.99,845.03
10640,-3.8744,-1.0459,0.6462,-132.57,404.11,-1623.72
10650,-3.8745,-1.0698,0.6328,-1866.94,-1267.70,-1811.28
10660,-3.8748,-1.1244,0.6270,-929.44,1013.49,-733.15
10670,-3.8750,-1.1954,0.6075,86.18,263.43,1391.85
10680,-3.8441,-1.2457,0.5564,-1007.57,1778.87,1469.91
10690,-3.8445,-1.2434,0.4907,554.93,-768.07,1110.41
10700,-3.8448,-1.1887,0.4381,851.81,-1174.32,1782.17
10710,-3.8451,-1.1105,0.3983,-148.19,91.37,360.23
10720,-3.8453,-1.0248,0.3613,1867.43,-1002.20,953.86
10730,-3.8456,-0.9475,0.3403,836.18,-1736.39,-1030.58
10740,-3.8457,-0.9160,0.3442,-1273.19,-423.77,1297.49
10750,-3.8459,-0.9498,0.3439,-1241.94,76.29,-1280.58
10760,-3.8462,-1.0155,0.3112,-1570.07,29.36,-811.83
10770,-3.8463,-1.0601,0.2612,-1976.32,-158.26,125.55
10780,-3.8466,-1.0510,0.2316,320.56,1451.05,-1155.76
10790,-3.8467,-0.9919,0.2292,1476.81,1654.17,-687.07
10800,-3.8467,-0.9181,0.2307,1039.31,1357.42,969.18
10810,-3.8468,-0.8458,0.2214,-1507.57,1545.04,-905.82
10820,-3.8468,-0.7871,0.2119,-257.57,357.67,953.55
10830,-3.8469,-0.7919,0.2251,-741.94,-860.96,1719.12
10840,-3.8470,-0.8943,0.2542,-1351.32,826.54,172.30
10850,-3.8473,-1.0546,0.2618,1539.31,545.10,391.11
10860,-3.8477,-1.1909,0.2278,1023.68,1529.17,-187.01
10870,-3.8478,-1.2524,0.1682,-429.44,1169.49,16.05
10880,-3.8480,-1.2354,0.1100,-304.44,1544.37,-1780.94
10890,-3.8481,-1.1665,0.0491,1883.06,-1908.69,-1077.94
10900,-3.8481,-1.0770,-0.0133,-1304.44,-1705.44,-1984.31
10910,-3.8481,-0.9900,-0.0629,-1851.32,-1689.64,-1781.31
10920,-3.8481,-0.9126,-0.0995,1289.31,-33.20,-1328.31
10930,-3.8480,-0.8389,-0.1130,-804.44,-720.58,515.38
10940,-3.8479,-0.7684,-0.0994,633.06,1545.23,531.01
10950,-3.8478,-0.7112,-0.0703,1648.68,-704.65,1984.13
10960,-3.8477,-0.6956,-0.0367,976.81,-985.78,-203.31
10970,-3.8474,-0.7202,0.0005,-1023.19,-688.90,1531.13
10980,-3.8473,-0.7495,0.0297,-179.44,76.66,-1328.12
10990,-3.8472,-0.7673,0.0244,70.56,-188.96,-1812.50
11000,-3.8472,-0.7739,-0.0176,1789.31,-860.90,-609.38
11010,-3.8472,-0.7760,-0.0587,945.56,1764.10,-1125.06
11020,-3.8472,-0.7955,-0.0721,679.93,498.47,1468.63
11030,-3.8472,-0.8552,-0.0610,-1820.07,-1220.34,499.82
11040,-3.8472,-0.9277,-0.0229,-1460.69,201.42,1531.13
11050,-3.8470,-0.9570,0.0406,1258.06,1076.29,1015.56
11060,-3.8469,-0.9330,0.1166,1508.06,1216.86,-1578.06
11070,-3.8467,-0.8954,0.2014,586.18,-1064.33,1031.43
11080,-3.8464,-0.8885,0.2925,1398.68,1795.10,265.99
11090,-3.8463,-0.9161,0.3550,-1726.32,1451.35,-999.45
11100,-3.8462,-0.9413,0.3564,-1257.57,1451.29,-93.08
11110,-3.8461,-0.9492,0.3118,-476.32,1638.73,-1030.58
11120,-3.8459,-0.9628,0.2625,-1491.94,-80.02,1203.67
11130,-3.8459,-1.0037,0.2380,773.68,1607.48,-640.14
11140,-3.8458,-1.0765,0.2441,-460.69,-1517.64,1672.30
11150,-3.8457,-1.1514,0.2737,-1788.82,-736.51,125.43
11160,-3.8457,-1.2026,0.3196,633.06,-955.38,-405.76
11170,-3.8455,-1.2518,0.3820,-1929.44,919.49,766.24
11180,-3.8453,-1.3119,0.4513,-226.32,903.75,-1343.02
11190,-3.8451,-1.3607,0.5084,86.18,1778.69,672.73
11200,-3.8450,-1.3944,0.5446,1836.18,1091.06,-1014.65
11210,-3.8447,-1.4214,0.5533,1523.68,1716.00,1079.16
11220,-3.8446,-1.4296,0.5421,-1929.44,-1159.06,-905.21
11230,-3.8444,-1.4314,0.5204,1023.68,1403.44,1172.91
11240,-3.8442,-1.4612,0.4828,789.31,-1377.81,-1467.77
11250,-3.8441,-1.5076,0.4476,976.81,1809.63,-389.71
11260,-3.8439,-1.5332,0.4447,-960.69,1309.51,1766.48
11270,-3.8749,-1.5389,0.4755,-241.94,934.45,1532.10
11280,-3.8746,-1.5435,0.5394,-976.32,871.95,-1233.46
11290,-3.8743,-1.5414,0.6332,-1554.44,1059.45,1641.66
11300,-3.8739,-1.5298,0.7258,-1288.82,1059.45,-1576.90
11310,-3.8734,-1.5127,0.7987,195.56,918.88,813.90
11320,-3.8730,-1.4854,0.8353,-1616.94,-1752.99,-1264.10
11330,-3.8727,-1.4281,0.8208,1883.06,-1065.43,-1248.41
11340,-3.8723,-1.3392,0.7603,1211.18,1075.32,501.59
11350,-3.8722,-1.2518,0.6704,586.18,1325.50,-92.29
11360,-3.8719,-1.1868,0.5872,-226.32,1825.62,1329.41
11370,-3.8718,-1.1312,0.5319,101.81,-830.44,829.22
11380,-3.8718,-1.0621,0.5051,-788.82,91.49,-436.46
11390,-3.8717,-0.9852,0.4990,54.93,669.80,-1061.52
11400,-3.8716,-0.9257,0.4963,1898.68,-111.33,-920.96
11410,-3.8715,-0.8843,0.4834,1523.68,-454.96,-967.83
11420,-3.8713,-0.8495,0.4658,-1179.44,1888.85,1532.17
11430,-3.8713,-0.8185,0.4512,-726.32,-361.08,1891.48
11440,-3.8713,-0.7760,0.4344,-757.57,1763.98,235.23
11450,-3.8715,-0.7085,0.4094,679.93,-376.53,625.79
11460,-3.8717,-0.6344,0.3820,1320.56,420.47,-702.33
11470,-3.8718,-0.5894,0.3654,-1195.07,904.97,453.86
11480,-3.8721,-0.6116,0.3593,570.56,-1219.91,78.80
11490,-3.8724,-0.7012,0.3596,1726.81,1998.78,-1639.95
11500,-3.8728,-0.8163,0.3685,-1741.94,-1954.53,-499.33
11510,-3.8732,-0.9270,0.3823,-476.32,-814.15,-139.95
11520,-3.8735,-1.0315,0.3942,1351.81,951.29,-264.89
11530,-3.8739,-1.1381,0.4012,-23.19,-1533.33,-639.89
11540,-3.8743,-1.2432,0.4022,-1663.82,-627.26,-796.14
11550,-3.8746,-1.3281,0.3989,883.06,-502.44,-468.02
11560,-3.8749,-1.3833,0.3895,-1991.94,-924.50,266.36
11570,-3.8440,-1.4131,0.3668,-1054.44,1872.25,1641.36
11580,-3.8442,-1.4144,0.3444,-866.94,-1034.06,531.92
11590,-3.8445,-1.3894,0.3323,-1038.82,90.94,578.80
11600,-3.8447,-1.3560,0.3164,-1835.69,-1455.87,1047.49
11610,-3.8450,-1.3268,0.2869,-1554.44,512.94,-1733.76
11620,-3.8451,-1.3031,0.2422,-1820.07,731.75,844.30
11630,-3.8452,-1.2848,0.1842,1211.18,-986.94,1641.05
11640,-3.8452,-1.2784,0.1318,-445.07,-408.81,1187.81
11650,-3.8452,-1.2871,0.1188,367.43,888.12,-687.26
11660,-3.8451,-1.2878,0.1572,-741.94,-783.81,-1234.19
11670,-3.8450,-1.2573,0.2196,-835.69,138.06,-1796.57
11680,-3.8448,-1.1930,0.2695,-929.44,122.50,437.93
11690,-3.8448,-1.1050,0.2870,-695.07,-1486.76,578.61
11700,-3.8450,-1.0171,0.2610,-1429.44,747.80,-1608.83
11710,-3.8451,-0.9430,0.2006,1820.56,1419.86,-1312.01
11720,-3.8452,-0.8854,0.1327,-695.07,1685.61,-1749.63
11730,-3.8453,-0.8561,0.0673,-1320.07,998.23,1422.12
11740,-3.8455,-0.8629,0.0022,-1570.07,623.29,1062.62
11750,-3.8456,-0.9064,-0.0448,1554.93,295.17,1781.25
11760,-3.8457,-0.9801,-0.0544,-7.57,-1720.58,-593.87
11770,-3.8457,-1.0530,-0.0280,-1445.07,1044.92,1406.13
11780,-3.8458,-1.0677,0.0216,1226.81,435.42,-921.94
11790,-3.8459,-1.0023,0.0667,-663.82,-1220.89,-546.88
11800,-3.8461,-0.9010,0.0774,-288.82,544.86,-984.25
11810,-3.8462,-0.8153,0.0553,679.93,1920.10,-1453.00
11820,-3.8463,-0.7654,0.0206,-351.32,-907.90,1484.44
11830,-3.8466,-0.7537,-0.0127,-1960.69,-1345.28,-437.50
11840,-3.8467,-0.7762,-0.0326,-460.69,-1610.90,1265.56
11850,-3.8469,-0.8116,-0.0343,648.68,-157.78,-1468.87
11860,-3.8472,-0.8488,-0.0256,117.43,-376.59,-625.12
11870,-3.8473,-0.9011,-0.0153,-632.57,732.67,93.69
11880,-3.8475,-0.9750,-0.0195,664.31,-1939.27,1031.19
11890,-3.8478,-1.0532,-0.0532,-788.82,1513.67,-1171.94
11900,-3.8479,-1.1044,-0.1089,1195.56,1201.05,-1828.25
11910,-3.8480,-1.1086,-0.1609,-1351.32,-1924.07,-156.49
11920,-3.8479,-1.0721,-0.1855,-1898.19,-580.32,202.76
11930,-3.8479,-1.0088,-0.1709,-1226.32,263.49,-437.87
11940,-3.8477,-0.9294,-0.1234,-1116.94,-1861.39,1780.88
11950,-3.8474,-0.8446,-0.0675,1039.31,216.92,1656.01
11960,-3.8472,-0.7677,-0.0250,-101.32,-626.71,1827.94
11970,-3.8469,-0.7137,0.0001,1742.43,810.97,1124.94
11980,-3.8468,-0.6874,0.0133,648.68,29.85,-1328.12
11990,-3.8467,-0.6891,0.0074,23.68,1717.41,1875.00
12000,-3.8467,-0.7151,-0.0277,-195.07,967.35,-1218.75
12010,-3.8467,-0.7495,-0.0714,476.81,467.35,-1906.31
12020,-3.8467,-0.7904,-0.0884,70.56,-1126.46,546.69
12030,-3.8468,-0.8521,-0.0742,-1163.82,701.54,-1172.06
12040,-3.8468,-0.9293,-0.0541,-1054.44,-1486.08,1671.69
12050,-3.8468,-0.9922,-0.0392,1054.93,1091.92,1593.63
12060,-3.8468,-1.0245,-0.0214,1008.06,-1001.95,-984.50
12070,-3.8467,-1.0374,0.0046,867.43,1279.24,-1546.94
12080,-3.8466,-1.0400,0.0404,-773.19,607.30,-515.62
12090,-3.8463,-1.0334,0.0686,-1116.94,1185.42,859.44
12100,-3.8462,-1.0186,0.0780,-273.19,794.80,-1999.88
12110,-3.8461,-0.9994,0.0858,1633.06,1997.99,-1203.00
12120,-3.8459,-0.9875,0.0999,86.18,-1001.95,-1484.25
12130,-3.8458,-0.9983,0.1082,1601.81,794.92,437.68
12140,-3.8458,-1.0323,0.0918,226.81,1857.42,890.81
12150,-3.8458,-1.0825,0.0537,-132.57,-236.45,1828.25
12160,-3.8457,-1.1378,0.0282,1445.56,-1111.51,937.56
12170,-3.8456,-1.1766,0.0420,-1632.57,-377.26,-1843.75
12180,-3.8453,-1.1887,0.0958,1398.68,1388.31,562.56
12190,-3.8452,-1.1804,0.1744,-148.19,278.87,-1374.82
12200,-3.8451,-1.1594,0.2561,914.31,-1658.57,-999.69
12210,-3.8450,-1.1395,0.3101,-398.19,794.56,1031.74
12220,-3.8450,-1.1313,0.3118,-1851.32,-299.13,1109.92
12230,-3.8450,-1.1407,0.2706,-804.44,-80.38,328.67
12240,-3.8451,-1.1729,0.2197,1992.43,-1346.01,-905.76
12250,-3.8451,-1.2225,0.1880,1883.06,138.31,-1874.57
12260,-3.8451,-1.2701,0.1952,-476.32,75.68,-1405.88
12270,-3.8450,-1.2874,0.2393,1429.93,997.50,890.99
12280,-3.8448,-1.2716,0.3074,-773.19,-1361.94,969.18
12290,-3.8447,-1.2567,0.3983,1242.43,-643.13,-874.45
12300,-3.8445,-1.2758,0.4871,-851.32,-1002.50,-655.52
12310,-3.8441,-1.3284,0.5406,711.18,-1643.13,1969.67
12320,-3.8750,-1.3893,0.5801,1976.81,1216.13,-248.96
12330,-3.8745,-1.4396,0.6295,-1820.07,-1737.12,-436.40
12340,-3.8740,-1.4723,0.6639,-257.57,590.88,-670.65
12350,-3.8735,-1.4803,0.6760,-445.07,997.07,-686.22
12360,-3.8729,-1.4594,0.6940,-1476.32,-1456.05,141.91
12370,-3.8724,-1.4169,0.7264,1211.18,840.88,470.09
12380,-3.8721,-1.3654,0.7548,-1351.32,997.19,-1670.47
12390,-3.8717,-1.3030,0.7567,1242.43,622.31,720.21
12400,-3.8716,-1.2201,0.7223,1226.81,872.44,-561.04
12410,-3.8715,-1.1245,0.6565,-163.82,466.31,-1451.72
12420,-3.8715,-1.0387,0.5763,70.56,44.68,-1029.97
12430,-3.8715,-0.9784,0.5032,-945.07,1779.17,1344.85
12440,-3.8716,-0.9481,0.4489,-1226.32,419.92,891.60
12450,-3.8718,-0.9414,0.4093,-1351.32,1466.86,1282.10
12460,-3.8722,-0.9474,0.3766,-491.94,404.36,-405.46
12470,-3.8724,-0.9617,0.3508,-1257.57,216.86,1266.36
12480,-3.8728,-0.9761,0.3387,914.31,919.98,-561.83
12490,-3.8730,-0.9884,0.3440,-929.44,-626.95,-1530.64
12500,-3.8733,-1.0166,0.3621,1492.43,44.92,-983.70
12510,-3.8734,-1.0630,0.3947,1883.06,-1642.64,1766.30
12520,-3.8735,-1.1031,0.4408,-54.44,-1470.89,1688.23
12530,-3.8737,-1.1281,0.4824,-1195.07,435.30,938.35
12540,-3.8739,-1.1573,0.4966,-382.57,1763.37,-842.83
12550,-3.8740,-1.2091,0.4803,-132.57,-424.19,1282.17
12560,-3.8741,-1.2743,0.4536,1242.43,1497.62,454.04
12570,-3.8743,-1.3324,0.4370,898.68,-1924.38,797.73
12580,-3.8744,-1.3710,0.4337,1461.18,-49.50,1532.04
12590,-3.8745,-1.3866,0.4382,523.68,-471.44,-1733.58
12600,-3.8746,-1.3838,0.4438,-1476.32,106.63,-1202.27
12610,-3.8748,-1.3701,0.4445,-1116.94,825.38,-999.15
12620,-3.8749,-1.3477,0.4490,633.06,903.56,-1249.15
12630,-3.8750,-1.3206,0.4557,-491.94,1481.69,719.60
12640,-3.8440,-1.3040,0.4395,-1023.19,-1658.87,344.60
12650,-3.8444,-1.2964,0.3959,1101.81,263.06,-1686.65
12660,-3.8447,-1.2786,0.3463,-1929.44,-1315.06,-546.14
12670,-3.8450,-1.2490,0.2955,351.81,341.25,422.55
12680,-3.8453,-1.2184,0.2383,133.06,1841.31,1859.92
12690,-3.8456,-1.2002,0.1713,54.93,-1486.76,391.05
12700,-3.8458,-1.1980,0.1002,-1616.94,1935.12,547.18
12710,-3.8461,-1.1898,0.0575,-1335.69,841.37,-1437.32
12720,-3.8462,-1.1542,0.0756,-288.82,-627.38,1406.31
12730,-3.8464,-1.1084,0.1349,273.68,1685.24,-484.25
12740,-3.8466,-1.0798,0.1833,-1866.94,1279.05,125.24
12750,-3.8469,-1.0537,0.1948,1789.31,-517.76,-1140.32
12760,-3.8473,-1.0210,0.1583,1133.06,951.05,-405.88
12770,-3.8477,-1.0034,0.0663,1320.56,279.24,-359.07
12780,-3.8479,-1.0016,-0.0609,-429.44,497.99,1140.75
12790,-3.8481,-1.0031,-0.1891,-195.07,216.74,1093.63
12800,-3.8484,-1.0052,-0.2904,-382.57,-189.51,-125.43
12810,-3.8484,-0.9950,-0.3453,-663.82,-1158.26,-1953.74
12820,-3.8484,-0.9489,-0.3462,648.68,-189.45,-297.61
12830,-3.8483,-0.8579,-0.3000,-1445.07,-298.77,-141.36
12840,-3.8480,-0.7468,-0.2323,-1804.44,1607.67,1140.01
12850,-3.8479,-0.6586,-0.1691,414.31,-1720.21,-1625.49
12860,-3.8478,-0.6183,-0.1281,-288.82,-1626.34,-1875.37
12870,-3.8478,-0.6232,-0.1252,867.43,-376.22,-640.93
12880,-3.8478,-0.6587,-0.1685,242.43,-16.85,-1906.56
12890,-3.8479,-0.7023,-0.2404,-304.44,-1548.22,-344.12
12900,-3.8479,-0.7296,-0.3087,-1882.57,1248.60,-1969.24
12910,-3.8479,-0.7274,-0.3444,-1382.57,498.54,-1547.49
12920,-3.8478,-0.7024,-0.3372,-1101.32,-63.96,1499.27
12930,-3.8477,-0.6764,-0.2959,-1898.19,857.97,-641.30
12940,-3.8474,-0.6520,-0.2400,1429.93,-1860.72,-828.74
12950,-3.8472,-0.6108,-0.1902,554.93,1295.59,-656.74
12960,-3.8469,-0.5529,-0.1558,1820.56,-329.35,-1297.30
12970,-3.8467,-0.4978,-0.1371,1242.43,77.03,577.82
12980,-3.8466,-0.4600,-0.1302,289.31,-1532.23,1093.44
12990,-3.8464,-0.4493,-0.1265,1133.06,-657.17,530.94
13000,-3.8464,-0.4790,-0.1216,-1507.57,-172.79,-1312.81
13010,-3.8464,-0.5367,-0.1200,-1304.44,452.15,-562.74
13020,-3.8464,-0.5902,-0.1222,-695.07,655.15,-1031.49
13030,-3.8464,-0.6223,-0.1226,461.18,373.84,1921.63
13040,-3.8464,-0.6385,-0.1136,351.81,326.90,1406.01
13050,-3.8464,-0.6550,-0.0878,-1726.32,1467.47,-1890.87
13060,-3.8463,-0.6858,-0.0449,164.31,779.97,468.57
13070,-3.8462,-0.7312,0.0006,226.81,-1735.72,46.75
13080,-3.8462,-0.7749,0.0391,-1585.69,92.29,-359.38
13090,-3.8461,-0.8042,0.0754,820.56,1014.10,-1234.31
13100,-3.8459,-0.8341,0.1193,1070.56,1670.29,-1953.00
13110,-3.8458,-0.8883,0.1840,1242.43,-720.40,-1656.07
13120,-3.8457,-0.9825,0.2550,-1695.07,-439.27,-749.69
13130,-3.8455,-1.1091,0.2913,-1757.57,654.30,94.24
13140,-3.8453,-1.2250,0.2848,-1960.69,1294.68,1031.80
13150,-3.8452,-1.3075,0.2640,-788.82,466.31,1922.42
13160,-3.8451,-1.3737,0.2584,648.68,1809.94,-733.89
13170,-3.8448,-1.4353,0.2889,179.93,1091.06,-1499.51
13180,-3.8446,-1.4835,0.3566,289.31,997.19,-249.45
13190,-3.8442,-1.5145,0.4401,-1882.57,1653.32,-1905.58
13200,-3.8439,-1.5471,0.5120,-1851.32,340.76,1375.85
13210,-3.8748,-1.6033,0.5559,1976.81,1543.82,-1561.52
13220,-3.8743,-1.6826,0.5698,-1210.69,-831.30,1688.54
13230,-3.8738,-1.7639,0.5621,633.06,949.83,-1358.28
13240,-3.8732,-1.8207,0.5625,-1773.19,-34.73,438.54
13250,-3.8727,-1.8334,0.5942,-1038.82,12.02,-1748.90
13260,-3.8722,-1.7944,0.6479,1336.18,74.52,-1264.47
13270,-3.8717,-1.7129,0.6921,-1679.44,-1050.42,157.47
13280,-3.8715,-1.6039,0.7046,758.06,606.02,-1264.28
13290,-3.8712,-1.4902,0.6847,-1288.82,-1800.05,-170.53
13300,-3.8710,-1.3993,0.6377,1258.06,-346.68,-217.47
13310,-3.8707,-1.3344,0.5784,898.68,1637.88,1985.60
13320,-3.8706,-1.2803,0.5262,1211.18,-1955.75,1829.22
13330,-3.8706,-1.2278,0.4896,133.06,-627.50,-592.77
13340,-3.8706,-1.1775,0.4667,-1148.19,-1314.94,-733.46
13350,-3.8706,-1.1323,0.4567,1289.31,-252.32,-1921.02
13360,-3.8707,-1.0881,0.4562,-929.44,-1533.51,-92.90
13370,-3.8707,-1.0416,0.4551,726.81,-1595.89,547.73
13380,-3.8708,-1.0020,0.4449,-1320.07,-1736.45,500.85
13390,-3.8710,-0.9760,0.4227,-241.94,966.74,500.85
13400,-3.8711,-0.9578,0.4015,-913.82,-1876.95,1000.79
13410,-3.8712,-0.9507,0.4005,1414.31,-595.64,-1733.64
13420,-3.8712,-0.9766,0.4197,-1679.44,-720.64,219.48
13430,-3.8713,-1.0400,0.4397,-991.94,1732.42,-1858.58
13440,-3.8715,-1.1085,0.4574,-1116.94,294.80,-733.52
13450,-3.8716,-1.1526,0.4875,-1882.57,-1439.70,-514.77
13460,-3.8717,-1.1836,0.5309,476.81,-1580.38,-1311.58
13470,-3.8718,-1.2258,0.5698,508.06,-33.57,375.98
13480,-3.8721,-1.2726,0.5995,-898.19,950.68,32.35
13490,-3.8724,-1.3188,0.6307,1117.43,747.50,1048.03
13500,-3.8729,-1.3940,0.6610,-804.44,747.38,-1014.40
13510,-3.8734,-1.5057,0.6747,1570.56,622.25,-1936.22
13520,-3.8740,-1.6100,0.6569,-726.32,-1627.99,-1233.09
13530,-3.8746,-1.6680,0.6071,1929.93,90.58,-1498.72
13540,-3.8440,-1.6915,0.5337,-1491.94,1715.45,-826.97
13550,-3.8445,-1.7076,0.4503,-507.57,324.77,1891.66
13560,-3.8450,-1.7172,0.3750,1429.93,1652.89,-1014.77
13570,-3.8453,-1.7006,0.3101,211.18,12.27,-1405.52
13580,-3.8456,-1.6394,0.2594,-1663.82,-300.23,1109.92
13590,-3.8458,-1.5447,0.2260,-1835.69,1215.52,-1562.01
13600,-3.8459,-1.4501,0.1990,-1710.69,934.45,1594.18
13610,-3.8461,-1.3730,0.1709,-1601.32,1481.51,1750.37
13620,-3.8462,-1.2886,0.1366,258.06,1887.94,-1671.57
13630,-3.8463,-1.1665,0.0887,-929.44,1497.44,-1343.51
13640,-3.8464,-1.0140,0.0251,-1304.44,-627.32,-1578.00
13650,-3.8466,-0.8625,-0.0499,-1788.82,-767.64,1921.88
13660,-3.8467,-0.7336,-0.1295,1601.81,1623.29,1968.63
13670,-3.8468,-0.6305,-0.2031,-1898.19,-563.96,-1062.81
13680,-3.8468,-0.5535,-0.2606,-695.07,-1985.66,483.95
13690,-3.8469,-0.4940,-0.2990,1164.31,-1344.85,-1719.30
13700,-3.8469,-0.4453,-0.3175,773.68,1749.02,343.14
13710,-3.8470,-0.4298,-0.3202,-991.94,-625.92,-688.17
13720,-3.8470,-0.4602,-0.3118,992.43,-969.60,-875.67
13730,-3.8470,-0.5056,-0.2982,1101.81,108.46,-922.49
13740,-3.8470,-0.5315,-0.2924,-710.69,1842.71,-1250.61
13750,-3.8470,-0.5269,-0.3011,-23.19,-1407.35,1983.76
13760,-3.8470,-0.4989,-0.3204,570.56,1467.71,968.14
13770,-3.8472,-0.4597,-0.3397,148.68,-1000.98,-16.30
13780,-3.8472,-0.4171,-0.3516,1164.31,530.33,-1016.30
13790,-3.8472,-0.3812,-0.3596,-1382.57,-985.23,1577.39
13800,-3.8473,-0.3639,-0.3702,-788.82,1983.58,-297.61
13810,-3.8473,-0.3665,-0.3760,1429.93,624.27,1780.52
13820,-3.8473,-0.3906,-0.3605,1101.81,-110.11,561.71
13830,-3.8473,-0.4456,-0.3196,-1991.94,1874.21,389.89
13840,-3.8473,-0.5238,-0.2621,-1023.19,-891.54,1061.83
13850,-3.8473,-0.6011,-0.2034,961.18,-1532.29,1952.58
13860,-3.8473,-0.6643,-0.1600,-929.44,1983.15,-1797.30
13870,-3.8473,-0.7140,-0.1375,-1023.19,-470.09,1546.51
13880,-3.8473,-0.7557,-0.1317,617.43,-1579.53,15.32
13890,-3.8474,-0.7935,-0.1356,-726.32,-845.28,1734.07
13900,-3.8475,-0.8223,-0.1366,-1554.44,-1345.34,-969.06
13910,-3.8475,-0.8459,-0.1226,-1241.94,-1470.40,280.94
13920,-3.8477,-0.8920,-0.0806,-273.19,326.42,-1578.37
13930,-3.8477,-0.9701,-0.0072,1836.18,1701.35,1843.57
13940,-3.8477,-1.0601,0.0789,-163.82,-908.20,1781.19
13950,-3.8477,-1.1260,0.1545,320.56,-1892.70,1625.12
13960,-3.8477,-1.1616,0.2128,-116.94,-205.38,1515.87
13970,-3.8477,-1.1959,0.2627,-679.44,-752.32,-1796.51
13980,-3.8475,-1.2490,0.3048,-1070.07,1638.24,125.49
13990,-3.8475,-1.3196,0.3290,133.06,-971.19,-296.33
14000,-3.8473,-1.3953,0.3459,-898.19,-1877.62,1938.11
14010,-3.8470,-1.4611,0.3835,1414.31,294.13,-436.83
14020,-3.8466,-1.5095,0.4457,992.43,1106.51,344.48
14030,-3.8462,-1.5654,0.5078,-1210.69,1059.51,-311.65
14040,-3.8456,-1.6501,0.5710,-366.94,1012.51,1688.48
14050,-3.8450,-1.7579,0.6641,789.31,1106.14,-1061.40
14060,-3.8442,-1.8772,0.7965,-1007.57,1012.15,-967.47
14070,-3.8746,-1.9922,0.9353,-273.19,1965.03,985.90
14080,-3.8739,-2.0707,1.0323,1008.06,-269.53,-295.10
14090,-3.8730,-2.0737,1.0583,-1038.82,152.16,1455.14
14100,-3.8724,-1.9904,1.0082,-1429.44,-519.71,-1232.36
14110,-3.8719,-1.8672,0.9080,1242.43,1058.59,1267.58
14120,-3.8717,-1.7612,0.8107,1008.06,230.71,-295.10
14130,-3.8713,-1.6919,0.7644,-1429.44,-222.23,-1826.60
14140,-3.8710,-1.6610,0.7668,-554.44,1856.02,1313.96
14150,-3.8707,-1.6389,0.7869,-601.32,-1831.42,-264.16
14160,-3.8704,-1.5901,0.8055,-1773.19,731.14,860.90
14170,-3.8701,-1.5177,0.8165,476.81,-878.11,1189.03
14180,-3.8699,-1.4354,0.8185,1742.43,528.26,782.84
14190,-3.8698,-1.3472,0.8159,273.68,778.44,-1607.79
14200,-3.8696,-1.2491,0.8163,-429.44,450.44,1298.46
14210,-3.8696,-1.1274,0.8108,117.43,497.56,1735.96
14220,-3.8698,-0.9760,0.7719,-304.44,-205.38,-389.10
14230,-3.8699,-0.8221,0.6960,-913.82,-1189.45,-1061.04
14240,-3.8700,-0.7219,0.6166,-1226.32,1107.73,126.34
14250,-3.8704,-0.7080,0.5748,-398.19,-1063.96,-280.09
14260,-3.8706,-0.7850,0.5802,1383.06,1592.35,-1983.28
14270,-3.8710,-0.9230,0.6073,-476.32,-1720.34,-389.53
14280,-3.8712,-1.0703,0.6396,1867.43,1748.17,1938.66
14290,-3.8715,-1.2067,0.6766,-991.94,1888.49,1032.47
14300,-3.8718,-1.3300,0.7213,1554.93,-1377.38,-967.47
14310,-3.8722,-1.4379,0.7677,1773.68,341.13,1845.15
14320,-3.8727,-1.5240,0.8087,-38.82,-1721.62,313.96
14330,-3.8734,-1.5863,0.8414,929.93,-471.74,-1701.60
14340,-3.8741,-1.6270,0.8484,961.18,-284.36,189.09
14350,-3.8439,-1.6371,0.8127,-241.94,606.14,-592.10
14360,-3.8447,-1.6072,0.7341,-1538.82,43.64,1532.84
14370,-3.8457,-1.5564,0.6222,-1710.69,1981.20,-451.72
14380,-3.8466,-1.5088,0.4879,789.31,-346.80,-1436.34
14390,-3.8473,-1.4730,0.3446,-1116.94,-1534.24,313.42
14400,-3.8480,-1.4460,0.2104,-538.82,122.07,-811.83
14410,-3.8484,-1.4077,0.1144,-1085.69,-1049.74,437.87
14420,-3.8488,-1.3461,0.0670,-179.44,-1346.56,-781.07
14430,-3.8489,-1.2670,0.0518,-288.82,591.06,-1843.63
14440,-3.8489,-1.1820,0.0616,1836.18,-1361.88,562.56
14450,-3.8489,-1.1041,0.0887,711.18,-96.07,1109.44
14460,-3.8489,-1.0342,0.1129,-1320.07,-627.20,-1953.00
14470,-3.8489,-0.9648,0.1115,-366.94,-1533.33,-1484.19
14480,-3.8489,-0.8864,0.0762,508.06,-1720.64,-1656.07
14490,-3.8489,-0.7976,0.0231,-1445.07,1763.85,1609.50
14500,-3.8489,-0.7147,-0.0243,1914.31,-1032.84,562.50
14510,-3.8490,-0.6473,-0.0593,523.68,904.85,-312.56
14520,-3.8490,-0.5948,-0.0924,1148.68,420.59,-984.50
14530,-3.8490,-0.5525,-0.1344,-132.57,186.28,-1640.81
14540,-3.8490,-0.5103,-0.1869,1289.31,-1188.60,1780.94
14550,-3.8490,-0.4681,-0.2399,-1304.44,92.71,1687.13
14560,-3.8490,-0.4364,-0.2765,86.18,1311.58,-1141.11
14570,-3.8489,-0.4194,-0.2869,148.68,624.15,1827.58
14580,-3.8488,-0.4106,-0.2734,-1679.44,-703.98,-969.36
14590,-3.8485,-0.3949,-0.2424,-554.44,1014.77,1936.95
14600,-3.8483,-0.3643,-0.2024,1461.18,983.58,1140.14
14610,-3.8481,-0.3445,-0.1573,1383.06,-1891.36,-281.68
14620,-3.8479,-0.3624,-0.1113,-85.69,-125.73,1312.13
14630,-3.8478,-0.4017,-0.0708,1617.43,1764.89,1687.26
14640,-3.8477,-0.4360,-0.0414,586.18,-1047.67,359.19
14650,-3.8477,-0.4602,-0.0293,195.56,-1282.10,765.50
14660,-3.8478,-0.4857,-0.0323,1101.81,264.71,-984.44
14670,-3.8479,-0.5172,-0.0424,1836.18,-125.98,-0.12
14680,-3.8479,-0.5515,-0.0479,1804.93,-1407.29,484.25
14690,-3.8480,-0.6006,-0.0398,1414.31,1889.53,390.50
14700,-3.8483,-0.6827,-0.0068,-866.94,-1079.35,-62.62
14710,-3.8483,-0.7958,0.0533,617.43,-860.72,109.31
14720,-3.8484,-0.9106,0.1234,-1851.32,-1157.84,1625.06
14730,-3.8484,-0.9983,0.1934,-554.44,-189.33,1250.18
14740,-3.8484,-1.0636,0.2599,226.81,763.67,-218.38
14750,-3.8481,-1.1149,0.3210,-132.57,1279.11,-1983.89
14760,-3.8479,-1.1465,0.3785,1304.93,1107.18,-358.76
14770,-3.8475,-1.1805,0.4327,1258.06,466.49,-827.39
14780,-3.8472,-1.2423,0.4780,898.68,-596.07,-46.08
14790,-3.8467,-1.3337,0.5150,992.43,1200.68,-1702.21
14800,-3.8462,-1.4424,0.5558,1289.31,1934.88,-1233.40
14810,-3.8456,-1.5541,0.6171,-616.94,-846.62,1610.41
14820,-3.8450,-1.6572,0.7061,1086.18,-1003.05,-1233.22
14830,-3.8442,-1.7399,0.8047,-116.94,-1612.67,-1483.03
14840,-3.8746,-1.7958,0.8848,1304.93,-987.79,142.15
14850,-3.8739,-1.8228,0.9260,-1851.32,1262.08,970.46
14860,-3.8733,-1.8374,0.9202,-1304.44,-1456.73,-1951.35
14870,-3.8728,-1.8585,0.8740,820.56,1793.27,-841.98
14880,-3.8723,-1.8768,0.8220,-1882.57,-113.04,-1717.10
14890,-3.8718,-1.8816,0.7969,-226.32,1230.65,407.84
14900,-3.8715,-1.8724,0.8004,-835.69,-1988.10,1267.15
14910,-3.8711,-1.8481,0.8259,336.18,-1534.91,704.65
14920,-3.8708,-1.8118,0.8628,-554.44,1730.71,-1467.16
14930,-3.8706,-1.7667,0.8918,101.81,-1550.42,-1388.98
14940,-3.8704,-1.7094,0.9016,1867.43,-1831.60,861.08
14950,-3.8702,-1.6237,0.8912,1211.18,-581.48,892.33
14960,-3.8702,-1.5066,0.8561,179.93,-1909.42,-1904.54
14970,-3.8702,-1.3710,0.7924,-835.69,1590.76,32.90
14980,-3.8705,-1.2209,0.7213,523.68,1434.81,-873.47
14990,-3.8707,-1.0762,0.6621,-273.19,341.31,-326.72
15000,-3.8710,-0.9788,0.6038,-1741.94,763.49,-1420.59
15010,-3.8712,-0.9531,0.5549,-1273.19,1294.92,-1936.34
15020,-3.8715,-0.9944,0.5435,-1991.94,-955.02,-1030.21
15030,-3.8717,-1.0850,0.5698,726.81,1576.17,-77.09
15040,-3.8719,-1.2001,0.6130,1133.06,950.99,-108.28
15050,-3.8722,-1.3344,0.6514,-1601.32,-1518.01,-701.97
15060,-3.8724,-1.4867,0.6708,1211.18,-612.00,1891.85
15070,-3.8728,-1.6169,0.6769,1711.18,1872.07,-1342.47
15080,-3.8732,-1.6891,0.6730,1039.31,-1346.92,1204.41
15090,-3.8737,-1.7388,0.6610,-195.07,-1847.11,-1295.59
15100,-3.8740,-1.7930,0.6454,1445.56,621.58,79.41
15110,-3.8745,-1.7898,0.6289,-1491.94,-1378.54,485.60
15120,-3.8439,-1.6932,0.6051,-1085.69,512.08,-655.03
15130,-3.8444,-1.5562,0.5449,-726.32,1465.39,1485.53
15140,-3.8448,-1.4392,0.4568,820.56,1762.57,1188.54
15150,-3.8453,-1.3608,0.3928,-210.69,-1518.49,-780.40
15160,-3.8457,-1.3254,0.3661,1820.56,-1705.81,-1921.14
15170,-3.8461,-1.3301,0.3441,-1648.19,-1127.62,1391.30
15180,-3.8464,-1.3573,0.3102,1758.06,59.88,-1843.08
15190,-3.8467,-1.3971,0.2820,-1726.32,-283.94,1422.42
15200,-3.8469,-1.4268,0.2887,1179.93,106.63,-311.95
15210,-3.8469,-1.4130,0.3279,1383.06,965.94,78.67
15220,-3.8470,-1.3424,0.3500,-851.32,1981.57,234.99
15230,-3.8473,-1.2092,0.3264,179.93,809.88,-1530.58
15240,-3.8475,-1.0275,0.2922,1226.81,1794.49,-1593.14
15250,-3.8479,-0.8683,0.2612,492.43,1419.86,-61.95
15260,-3.8481,-0.7928,0.2028,867.43,1451.42,1031.74
15270,-3.8484,-0.7811,0.1302,-1476.32,1967.16,406.62
15280,-3.8486,-0.7936,0.0896,23.68,685.97,-1609.13
15290,-3.8488,-0.8357,0.0850,-1570.07,-517.21,1953.25
15300,-3.8489,-0.9009,0.0840,1039.31,-1111.02,-1124.88
15310,-3.8489,-0.9333,0.0718,695.56,-1236.15,1172.00
15320,-3.8489,-0.9026,0.0549,539.31,1201.29,922.00
15330,-3.8489,-0.8314,0.0350,476.81,-954.90,-1281.19
15340,-3.8488,-0.7393,0.0112,1586.18,498.35,-1218.69
15350,-3.8485,-0.6349,-0.0190,1383.06,1451.66,265.62
15360,-3.8484,-0.5314,-0.0566,-1257.57,1576.84,1781.19
15370,-3.8483,-0.4327,-0.0970,-7.57,764.53,-1343.87
15380,-3.8481,-0.3457,-0.1318,617.43,-407.10,-453.37
15390,-3.8479,-0.2816,-0.1478,-241.94,-860.11,1093.44
15400,-3.8478,-0.2440,-0.1335,-38.82,1093.14,-875.31
15410,-3.8475,-0.2406,-0.0940,773.68,-1078.61,890.32
15420,-3.8474,-0.2739,-0.0509,1211.18,-16.11,1327.88
15430,-3.8474,-0.3347,-0.0243,945.56,1499.45,-906.37
15440,-3.8474,-0.4185,-0.0144,1164.31,905.58,1703.06
15450,-3.8475,-0.5150,-0.0088,-1554.44,-1828.98,1843.69
15460,-3.8477,-0.6055,0.0071,-1913.82,-1110.41,828.06
15470,-3.8479,-0.6820,0.0289,-1491.94,920.65,-437.50
15480,-3.8480,-0.7411,0.0355,711.18,-282.59,-703.12
15490,-3.8480,-0.7716,0.0387,1148.68,561.04,1718.81
15500,-3.8480,-0.7736,0.0688,1242.43,967.22,-1187.44
15510,-3.8479,-0.7587,0.1248,992.43,826.60,1953.25
15520,-3.8478,-0.7423,0.1923,-1101.32,-17.15,-890.44
15530,-3.8475,-0.7488,0.2506,992.43,623.54,890.99
15540,-3.8474,-0.7877,0.2792,164.31,92.29,-1983.89
15550,-3.8473,-0.8481,0.2898,-820.07,-251.59,-1640.14
15560,-3.8472,-0.9166,0.3070,-554.44,1107.67,-1749.45
15570,-3.8470,-0.9867,0.3481,-1320.07,-689.33,-1218.20
15580,-3.8468,-1.0747,0.4242,1711.18,576.17,406.92
15590,-3.8467,-1.1790,0.5176,-1554.44,-1689.64,-1561.71
15600,-3.8464,-1.2877,0.5758,1101.81,-1736.69,625.98
15610,-3.8462,-1.4268,0.5928,-820.07,1716.19,282.35
15620,-3.8459,-1.5861,0.6174,1383.06,-112.18,-1264.53
15630,-3.8455,-1.7263,0.6741,992.43,-956.24,298.03
15640,-3.8450,-1.8372,0.7488,-960.69,-1706.54,1110.66
15650,-3.8445,-1.9078,0.8123,851.81,-144.23,-373.60
15660,-3.8439,-1.9141,0.8448,-195.07,-19.41,673.40
15670,-3.8748,-1.8601,0.8412,-991.94,152.47,-1654.60
15680,-3.8744,-1.7880,0.8153,1914.31,-316.16,1095.34
15690,-3.8741,-1.7301,0.7930,-851.32,371.46,-1654.66
15700,-3.8739,-1.7090,0.7798,-1445.07,1512.21,-1107.85
15710,-3.8737,-1.7115,0.7742,1258.06,-175.23,-498.54
15720,-3.8733,-1.7239,0.7826,929.93,-893.98,923.34
15730,-3.8730,-1.7670,0.8068,-648.19,184.08,-139.10
15740,-3.8726,-1.8448,0.8479,1836.18,-722.23,1032.78
15750,-3.8721,-1.9216,0.9067,-132.57,543.21,298.52
15760,-3.8716,-1.9475,0.9677,-1960.69,74.34,595.52
15770,-3.8712,-1.9092,0.9956,-1273.19,-128.85,-185.67
15780,-3.8708,-1.8202,0.9656,-366.94,-550.66,-607.48
15790,-3.8706,-1.7002,0.8865,-976.32,-394.23,1720.58
15800,-3.8706,-1.5715,0.7899,-1616.94,1481.02,-904.54
15810,-3.8706,-1.4342,0.7089,-1148.19,1121.89,1173.40
15820,-3.8707,-1.2815,0.6613,429.93,-1252.81,1626.34
15830,-3.8708,-1.1271,0.6409,-23.19,653.69,1688.78
15840,-3.8710,-1.0012,0.6293,-257.57,-1955.38,1469.97
15850,-3.8711,-0.9219,0.6229,-148.19,560.49,282.47
15860,-3.8713,-0.9028,0.6311,-1991.94,-251.83,1188.66
15870,-3.8717,-0.9581,0.6483,445.56,795.10,-155.03
15880,-3.8719,-1.0627,0.6686,1367.43,-1001.89,688.72
15890,-3.8723,-1.1803,0.7014,-23.19,1591.61,735.66
15900,-3.8727,-1.3107,0.7358,929.93,1794.56,266.97
15910,-3.8732,-1.4557,0.7472,242.43,-1799.44,-1295.47
15920,-3.8735,-1.5903,0.7297,1679.93,-346.62,95.15
15930,-3.8740,-1.6965,0.6853,445.56,1418.76,1376.40
15940,-3.8744,-1.7621,0.6334,-1148.19,-268.98,798.16
15950,-3.8748,-1.7664,0.6066,-1538.82,1090.27,-201.90
15960,-3.8749,-1.7014,0.6234,1914.31,1652.77,1891.78
15970,-3.8750,-1.5787,0.6714,-1773.19,-190.86,1001.16
15980,-3.8440,-1.4053,0.7214,1929.93,1950.01,-1108.09
15990,-3.8442,-1.2195,0.7374,133.06,356.63,-1936.10
16000,-3.8446,-1.0918,0.6824,-85.69,-1596.19,-1420.47
16010,-3.8450,-1.0437,0.5719,258.06,-642.76,-1576.84
16020,-3.8453,-1.0448,0.4685,-1585.69,1216.67,-702.03
16030,-3.8456,-1.0642,0.4124,-1726.32,-17.70,1219.60
16040,-3.8459,-1.1030,0.3938,-210.69,794.74,-577.33
16050,-3.8462,-1.1558,0.3875,-1179.44,-1580.32,1328.86
16060,-3.8466,-1.1763,0.3807,70.56,1607.12,-1311.77
16070,-3.8469,-1.1241,0.3730,1445.56,747.68,-327.39
16080,-3.8472,-1.0114,0.3595,117.43,-236.57,594.42
16090,-3.8475,-0.8831,0.3198,-1445.07,-1970.76,-1843.08
16100,-3.8478,-0.7749,0.2472,-1023.19,951.35,859.99
16110,-3.8480,-0.6893,0.1735,820.56,-345.28,687.93
16120,-3.8483,-0.6294,0.1139,-226.32,-1782.65,859.68
16130,-3.8485,-0.6273,0.0663,-554.44,-1407.53,1843.93
16140,-3.8486,-0.7079,0.0536,-288.82,498.72,1093.87
16150,-3.8488,-0.8542,0.0864,1398.68,-1126.40,-1609.31
16160,-3.8488,-1.0125,0.1432,-1335.69,-923.58,765.75
16170,-3.8488,-1.1285,0.1978,-1585.69,-1658.26,172.12
16180,-3.8488,-1.1820,0.2272,-445.07,1325.87,203.49
16190,-3.8489,-1.1743,0.2113,711.18,1091.43,-421.45
16200,-3.8489,-1.1158,0.1462,1695.56,-939.82,1437.87
16210,-3.8490,-1.0264,0.0420,1179.93,-1267.82,-1390.38
16220,-3.8490,-0.9232,-0.0682,633.06,1388.61,1546.94
16230,-3.8490,-0.8175,-0.1401,1836.18,-720.58,-343.93
16240,-3.8488,-0.7170,-0.1583,-632.57,-1923.52,655.94
16250,-3.8486,-0.6313,-0.1313,226.81,-251.40,-390.99
16260,-3.8484,-0.5715,-0.0704,-804.44,-798.16,-812.81
16270,-3.8481,-0.5536,0.0076,-1148.19,-1001.16,1812.32
16280,-3.8480,-0.5862,0.0729,1148.68,983.28,-1828.12
16290,-3.8480,-0.6497,0.1022,976.81,1342.59,-281.13
16300,-3.8480,-0.7218,0.0955,851.81,1092.47,-1702.94
16310,-3.8481,-0.7990,0.0726,-382.57,232.91,-999.82
16320,-3.8483,-0.8739,0.0505,1742.43,1310.91,-906.13
16330,-3.8484,-0.9178,0.0334,148.68,-1517.33,-15.56
16340,-3.8484,-0.9141,0.0237,-1476.32,295.04,-499.94
16350,-3.8483,-0.8849,0.0377,-991.94,-954.96,-1343.75
16360,-3.8480,-0.8606,0.0900,-1257.57,841.98,984.44
16370,-3.8478,-0.8442,0.1689,1851.81,-470.46,1250.12
16380,-3.8475,-0.8325,0.2509,-54.44,1638.92,-1624.69
16390,-3.8473,-0.8395,0.3152,1445.56,123.35,-733.89
16400,-3.8470,-0.8658,0.3582,554.93,357.73,-999.39
16410,-3.8468,-0.9062,0.3781,1179.93,1857.67,1016.30
16420,-3.8467,-0.9543,0.3820,8.06,404.48,1531.98
16430,-3.8466,-1.0121,0.3842,1851.81,904.36,1266.36
16440,-3.8464,-1.0930,0.3843,-1538.82,1185.49,1281.98
16450,-3.8462,-1.1862,0.4114,101.81,1200.99,47.61
16460,-3.8459,-1.2932,0.4967,179.93,669.56,-639.83
16470,-3.8455,-1.4313,0.6206,-1523.19,-408.81,-295.96
16480,-3.8447,-1.5632,0.7460,804.93,-549.68,907.41
16490,-3.8440,-1.6353,0.8430,-85.69,-503.11,813.90
16500,-3.8746,-1.6569,0.8669,-1304.44,-81.36,-748.41
16510,-3.8740,-1.6550,0.8059,-70.07,-1018.92,1626.65
16520,-3.8735,-1.6476,0.7227,164.31,-831.36,720.28
16530,-3.8732,-1.6757,0.6746,1117.43,512.39,-1436.10
16540,-3.8727,-1.7321,0.6798,1523.68,-1643.92,1032.53
16550,-3.8722,-1.7687,0.7444,-1695.07,-972.17,845.03
16560,-3.8717,-1.7683,0.8331,1617.43,-706.60,142.03
16570,-3.8713,-1.7325,0.8840,1664.31,-1347.23,267.21
16580,-3.8711,-1.6771,0.8687,-1757.57,1168.46,189.21
16590,-3.8710,-1.6182,0.8058,1336.18,-800.17,611.02
16600,-3.8710,-1.5656,0.7355,883.06,-846.92,-717.22
16610,-3.8708,-1.5305,0.6793,-382.57,-1846.86,1813.90
16620,-3.8707,-1.5095,0.6439,101.81,-1034.24,813.78
16630,-3.8707,-1.4896,0.6216,-1210.69,-1565.49,-483.15
16640,-3.8706,-1.4481,0.5978,1336.18,-424.80,1141.78
16650,-3.8706,-1.3511,0.5786,-1351.32,528.38,1594.91
16660,-3.8706,-1.2053,0.5770,-929.44,-1924.56,922.97
16670,-3.8707,-1.0684,0.5947,1726.81,1872.62,-248.90
16680,-3.8707,-0.9885,0.6256,-741.94,138.49,-1326.97
16690,-3.8707,-0.9768,0.6530,1476.81,91.80,1501.22
16700,-3.8708,-1.0199,0.6594,-1023.19,-408.20,-811.28
16710,-3.8710,-1.0951,0.6372,1461.18,419.86,1735.66
16720,-3.8713,-1.1763,0.5959,-163.82,1575.93,-405.03
16730,-3.8717,-1.2577,0.5669,1445.56,294.56,1969.91
16740,-3.8722,-1.3634,0.5712,-976.32,575.62,-342.65
16750,-3.8726,-1.5000,0.6096,1492.43,1122.31,-1717.65
16760,-3.8729,-1.6415,0.6676,8.06,-1956.05,1735.53
16770,-3.8733,-1.7435,0.7139,1898.68,1465.52,376.28
16780,-3.8738,-1.7521,0.7311,836.18,-612.79,407.59
16790,-3.8744,-1.6635,0.7196,-257.57,1590.27,1204.53
16800,-3.8439,-1.5542,0.6699,-913.82,121.70,-436.10
16810,-3.8445,-1.4927,0.5725,1070.56,1762.57,1266.91
16820,-3.8451,-1.4611,0.4510,945.56,1293.95,282.35
16830,-3.8457,-1.4136,0.3575,992.43,1747.13,-1702.27
16840,-3.8461,-1.3571,0.3097,-929.44,1778.44,188.17
16850,-3.8464,-1.3075,0.2836,-1695.07,-346.44,1859.92
16860,-3.8467,-1.2402,0.2826,648.68,309.94,-1233.83
16870,-3.8468,-1.1444,0.3297,1258.06,185.06,1656.80
16880,-3.8469,-1.0653,0.3933,1523.68,-1783.51,266.24
16890,-3.8472,-1.0352,0.4015,-351.32,-1642.76,781.98
16900,-3.8475,-1.0272,0.3342,-491.94,-595.83,-749.27
16910,-3.8478,-0.9996,0.2509,523.68,-1205.14,469.36
16920,-3.8481,-0.9476,0.1893,54.93,123.05,1109.86
16930,-3.8485,-0.8962,0.1292,-1288.82,248.11,-859.01
16940,-3.8486,-0.8654,0.0825,1289.31,545.10,890.87
16950,-3.8488,-0.8738,0.0730,1242.43,-1423.58,1953.25
16960,-3.8488,-0.9198,0.0858,164.31,1357.67,797.00
16970,-3.8488,-0.9657,0.1094,-1726.32,-1001.83,828.25
16980,-3.8488,-0.9805,0.1458,398.68,-1986.27,1718.93
16990,-3.8488,-0.9669,0.1890,-1491.94,-1330.08,-921.63
17000,-3.8486,-0.9379,0.2213,242.43,201.23,562.87
17010,-3.8486,-0.8992,0.2285,-38.82,341.86,1891.05
17020,-3.8486,-0.8693,0.2085,914.31,1263.85,-937.07
17030,-3.8486,-0.8680,0.1620,742.43,-1298.58,-234.01
17040,-3.8486,-0.8818,0.0984,898.68,748.29,-124.69
17050,-3.8486,-0.8702,0.0420,-866.94,607.60,-15.44
17060,-3.8485,-0.8198,0.0181,617.43,1388.92,953.19
17070,-3.8485,-0.7606,0.0443,-929.44,-1673.52,-1156.25
17080,-3.8484,-0.7339,0.1084,-1351.32,1685.97,812.56
17090,-3.8484,-0.7535,0.1694,-1929.44,1889.16,-1843.57
17100,-3.8484,-0.7960,0.2024,-445.07,1701.60,-1702.82
17110,-3.8484,-0.8384,0.2035,-1882.57,1920.29,625.37
17120,-3.8485,-0.8737,0.1836,695.56,-1939.15,1656.62
17130,-3.8486,-0.8987,0.1641,179.93,-486.08,-1577.82
17140,-3.8486,-0.9055,0.1499,976.81,1013.85,15.93
17150,-3.8486,-0.8795,0.1504,101.81,-798.65,297.12
17160,-3.8485,-0.8137,0.1863,-570.07,-736.15,547.12
17170,-3.8483,-0.7164,0.2622,-148.19,-142.27,203.43
17180,-3.8480,-0.6263,0.3502,304.93,1576.72,1125.49
17190,-3.8478,-0.5957,0.4043,-163.82,842.47,797.55
17200,-3.8477,-0.6338,0.4003,-241.94,-235.60,1469.48
17210,-3.8477,-0.7258,0.3350,-1116.94,-751.28,-921.14
17220,-3.8475,-0.8688,0.2432,-898.19,-1110.84,766.24
17230,-3.8474,-1.0598,0.2007,804.93,-861.08,-280.82
17240,-3.8469,-1.2594,0.2562,351.81,1701.05,-46.51
17250,-3.8461,-1.4220,0.4037,-1195.07,810.00,-733.89
17260,-3.8448,-1.5542,0.6028,1992.43,-315.31,672.61
17270,-3.8748,-1.6617,0.7886,1070.56,1168.82,157.41
17280,-3.8735,-1.7131,0.8949,-695.07,949.83,-623.47
17290,-3.8724,-1.6877,0.8773,726.81,-1440.86,-1420.17
17300,-3.8717,-1.5880,0.7451,-23.19,309.14,173.58
17310,-3.8716,-1.4480,0.5516,742.43,-612.49,-1467.35
17320,-3.8717,-1.3453,0.3536,-1335.69,-1377.87,688.54
17330,-3.8721,-1.3220,0.2268,-195.07,1278.56,-1171.20
17340,-3.8722,-1.3400,0.2229,-1210.69,1044.25,641.05
17350,-3.8722,-1.3480,0.3101,492.43,544.25,469.18
17360,-3.8721,-1.3229,0.4302,-538.82,-299.56,1156.80
17370,-3.8718,-1.2928,0.5398,-1320.07,-924.50,219.54
17380,-3.8717,-1.3153,0.5995,-1476.32,1106.81,-248.96
17390,-3.8715,-1.4084,0.5946,-351.32,747.38,-280.09
17400,-3.8711,-1.5341,0.5448,-273.19,122.19,157.41
17410,-3.8708,-1.6222,0.4882,-351.32,1746.95,235.41
17420,-3.8707,-1.6389,0.4678,367.43,-1503.17,-124.08
17430,-3.8705,-1.5962,0.5050,-1773.19,-112.61,-249.15
17440,-3.8702,-1.4983,0.5732,-304.44,653.08,-1514.65
17450,-3.8701,-1.3511,0.6226,226.81,1387.70,829.22
17460,-3.8702,-1.1881,0.6149,-929.44,-299.56,532.41
17470,-3.8706,-1.0519,0.5376,-70.07,-1283.63,923.03
17480,-3.8712,-0.9841,0.4148,1367.43,826.05,-1217.71
17490,-3.8718,-0.9963,0.2976,-1960.69,1107.42,703.92
17500,-3.8726,-1.0782,0.2318,476.81,-1892.58,-905.70
17510,-3.8730,-1.2377,0.2343,1992.43,1685.36,-1687.07
17520,-3.8734,-1.4510,0.2858,1586.18,1997.56,-108.95
17530,-3.8735,-1.6405,0.3550,-1726.32,590.88,-1218.20
17540,-3.8735,-1.7361,0.4216,-1976.32,1449.89,1297.55
17550,-3.8735,-1.6940,0.4702,1789.31,1980.96,-1999.21
17560,-3.8735,-1.5223,0.4861,-820.07,199.77,-702.21
17570,-3.8734,-1.3070,0.4641,1148.68,-1768.62,110.29
17580,-3.8734,-1.1278,0.4138,711.18,-580.69,16.48
17590,-3.8735,-1.0037,0.3518,-351.32,982.12,1969.54
17600,-3.8737,-0.9349,0.2780,-460.69,1044.86,781.92
17610,-3.8739,-0.9214,0.1936,336.18,-408.08,1437.99
17620,-3.8741,-0.9526,0.1365,-1929.44,795.04,-1562.13
17630,-3.8743,-1.0198,0.1317,-1929.44,1482.48,359.62
17640,-3.8745,-1.0872,0.1663,1476.81,872.99,1843.99
17650,-3.8748,-1.0925,0.2239,851.81,1294.74,1750.31
17660,-3.8439,-1.0144,0.2833,164.31,669.74,-296.45
17670,-3.8442,-0.8884,0.3088,-1835.69,279.24,-436.95
17680,-3.8446,-0.7369,0.2728,-1710.69,-454.90,1984.92
17690,-3.8450,-0.5710,0.1901,1679.93,-1063.96,469.24
17700,-3.8453,-0.4789,0.1227,-1085.69,342.59,281.62
17710,-3.8457,-0.5807,0.1311,-1288.82,-282.23,1890.81
17720,-3.8461,-0.8458,0.2112,1679.93,795.72,-546.63
17730,-3.8464,-1.1127,0.3209,-257.57,-954.83,-874.63
17740,-3.8468,-1.2661,0.4561,1586.18,1091.55,1641.24
17750,-3.8473,-1.2822,0.6306,1945.56,-1611.88,-77.27
17760,-3.8475,-1.2329,0.7924,-116.94,731.81,313.72
17770,-3.8478,-1.2327,0.8669,-1804.44,1435.06,782.78
17780,-3.8480,-1.3163,0.8607,-1773.19,-1018.07,1673.52
17790,-3.8484,-1.4717,0.8115,-476.32,-1815.12,-1842.10
17800,-3.8489,-1.6731,0.7130,-366.94,-112.30,-1279.72
17810,-3.8492,-1.8313,0.5691,1851.81,-722.05,923.22
17820,-3.8495,-1.8771,0.4260,1601.81,855.77,1563.60
17830,-3.8495,-1.8188,0.3120,-257.57,-1456.85,1422.67
17840,-3.8494,-1.6884,0.2341,-804.44,-50.48,-140.08
17850,-3.8490,-1.5078,0.1956,-101.32,1981.02,-46.45
17860,-3.8485,-1.2802,0.1840,-991.94,1043.88,-421.51
17870,-3.8480,-1.0138,0.1747,148.68,-440.00,-280.94
17880,-3.8475,-0.7522,0.1587,-1757.57,-1627.01,-1452.82
17890,-3.8472,-0.5559,0.1536,-273.19,326.60,-187.19
17900,-3.8468,-0.4664,0.1627,851.81,-329.22,-1124.76
17910,-3.8466,-0.4933,0.1768,304.93,842.83,-1405.94
17920,-3.8464,-0.6272,0.1876,867.43,-1360.35,1640.93
17930,-3.8464,-0.8214,0.1736,-273.19,29.97,328.49
17940,-3.8466,-0.9976,0.1315,-1132.57,-1767.27,781.56
17950,-3.8467,-1.1010,0.0916,320.56,841.80,875.24
17960,-3.8468,-1.1230,0.0834,-913.82,-267.82,1812.62
17970,-3.8468,-1.0865,0.1204,258.06,-1314.70,343.87
17980,-3.8468,-1.0289,0.1923,929.93,-580.26,1312.68
17990,-3.8467,-0.9684,0.2822,304.93,622.99,1765.99
18000,-3.8464,-0.9124,0.3685,54.93,138.73,1000.55
18010,-3.8462,-0.8763,0.4062,-773.19,-814.33,438.17
18020,-3.8461,-0.8582,0.3915,-163.82,13.85,-1249.21
18030,-3.8459,-0.8706,0.3757,-1835.69,-1876.71,-952.39
18040,-3.8459,-0.9526,0.3767,570.56,107.67,-108.64
18050,-3.8459,-1.0897,0.3630,-1929.44,232.48,1547.61
18060,-3.8461,-1.2030,0.3282,523.68,-1517.76,-1639.95
18070,-3.8461,-1.2444,0.2936,-1976.32,-1971.13,266.24
18080,-3.8461,-1.2429,0.2731,726.81,1591.31,1078.67
18090,-3.8459,-1.2394,0.2803,914.31,-1033.69,-999.51
18100,-3.8456,-1.2363,0.3260,1367.43,-111.82,-593.26
18110,-3.8450,-1.2227,0.4099,1758.06,1747.56,1531.86
18120,-3.8444,-1.1904,0.5076,-491.94,481.93,-1764.83
18130,-3.8750,-1.1537,0.5570,-366.94,981.99,-1936.52
18140,-3.8745,-1.1328,0.5303,336.18,-689.76,-1108.34
18150,-3.8741,-1.1378,0.4783,-991.94,-111.63,-405.27
18160,-3.8738,-1.2163,0.4368,-1632.57,1232.12,110.29
18170,-3.8737,-1.3940,0.4077,320.56,-80.51,-46.08
18180,-3.8732,-1.5819,0.4344,1570.56,200.38,219.54
18190,-3.8727,-1.6885,0.5514,1523.68,-378.11,-1827.33
18200,-3.8721,-1.7081,0.6945,-116.94,-1409.61,-717.71
18210,-3.8715,-1.6698,0.7587,1367.43,902.89,-311.16
18220,-3.8710,-1.5892,0.7173,-1726.32,1121.70,-139.16
18230,-3.8706,-1.4894,0.6151,586.18,-174.99,-1389.28
18240,-3.8704,-1.4012,0.5160,1367.43,-1252.93,-1498.84
18250,-3.8701,-1.3285,0.4730,648.68,-1940.25,-749.02
18260,-3.8698,-1.2595,0.4899,1961.18,559.88,1407.17
18270,-3.8695,-1.1974,0.5177,-1210.69,-1283.75,-1045.96
18280,-3.8693,-1.1422,0.5068,-1257.57,-1721.13,1219.73
18290,-3.8693,-1.0781,0.4570,1804.93,888.37,-1874.02
18300,-3.8694,-1.0033,0.3940,-1991.94,-1486.51,1016.48
18310,-3.8698,-0.9248,0.3473,-413.82,-1548.89,-1030.52
18320,-3.8701,-0.8483,0.3324,1633.06,466.92,-1186.83
18330,-3.8705,-0.7943,0.3311,-570.07,-1439.21,-811.89
18340,-3.8707,-0.7844,0.3231,-1663.82,-1610.96,828.74
18350,-3.8711,-0.8075,0.3135,-398.19,1373.41,-640.01
18360,-3.8713,-0.8508,0.3159,648.68,139.04,-1421.26
18370,-3.8716,-0.9177,0.3453,-898.19,451.42,-1452.51
18380,-3.8718,-1.0067,0.4034,-1460.69,216.92,-593.08
18390,-3.8719,-1.1041,0.4617,-851.32,-345.76,1031.98
18400,-3.8722,-1.1803,0.4924,-1320.07,-892.82,-1577.27
18410,-3.8724,-1.2239,0.5007,929.93,-955.44,-1061.58
18420,-3.8727,-1.2478,0.5013,-648.19,106.93,-1155.27
18430,-3.8729,-1.2812,0.4799,289.31,185.06,-1374.02
18440,-3.8732,-1.3326,0.4299,8.06,1435.00,-1561.58
18450,-3.8734,-1.3655,0.3909,1429.93,-955.75,-1561.71
18460,-3.8737,-1.3708,0.3799,1226.81,-1955.81,-889.89
18470,-3.8738,-1.3856,0.3792,539.31,637.94,891.36
18480,-3.8740,-1.4293,0.4098,-1351.32,544.13,-139.89
18490,-3.8741,-1.4792,0.4858,1054.93,465.94,-999.21
18500,-3.8744,-1.4833,0.5457,-1335.69,-1799.80,-14.71
18510,-3.8746,-1.3854,0.5308,-1851.32,1856.45,1657.29
18520,-3.8750,-1.1785,0.4537,-1320.07,-49.62,1907.23
18530,-3.8440,-0.9529,0.3672,1164.31,-1908.57,313.35
18540,-3.8442,-0.8375,0.3015,-1960.69,-986.27,985.05
18550,-3.8445,-0.8756,0.2543,804.93,-1392.27,891.17
18560,-3.8448,-1.0110,0.2360,-70.07,560.73,-1530.76
18570,-3.8452,-1.1700,0.2607,-1398.19,-1783.26,-1265.20
18580,-3.8455,-1.2914,0.3448,-1757.57,1388.31,375.49
18590,-3.8457,-1.3481,0.5054,-1288.82,153.69,-1718.08
18600,-3.8458,-1.3794,0.6860,-554.44,700.44,-30.27
18610,-3.8459,-1.3770,0.7787,-554.44,-174.62,-45.59
18620,-3.8462,-1.2958,0.7523,-241.94,-315.25,-1529.79
18630,-3.8466,-1.1906,0.6628,-1851.32,309.94,579.59
18640,-3.8470,-1.1472,0.5509,-382.57,856.99,95.03
18650,-3.8477,-1.1738,0.4402,1164.31,-1471.01,-342.71
18660,-3.8480,-1.2328,0.3848,1758.06,357.06,-1046.02
18670,-3.8483,-1.2999,0.4082,-1788.82,1263.18,-218.02
18680,-3.8483,-1.3816,0.4589,1617.43,263.06,1344.54
18690,-3.8483,-1.4744,0.4683,-835.69,-1252.75,1157.10
18700,-3.8483,-1.5333,0.4154,-710.69,-49.80,922.73
18710,-3.8483,-1.5282,0.3263,-257.57,1184.45,594.54
18720,-3.8483,-1.4625,0.2379,398.68,1778.26,906.86
18730,-3.8483,-1.3416,0.1713,804.93,-1534.12,-1577.70
18740,-3.8481,-1.1949,0.1282,289.31,1934.88,-1296.57
18750,-3.8479,-1.0609,0.1082,-945.07,419.49,-1702.88
18760,-3.8477,-0.9393,0.1084,211.18,1857.30,-437.32
18770,-3.8473,-0.8262,0.1188,-226.32,1888.73,875.18
18780,-3.8470,-0.7369,0.1355,-1741.94,-782.90,1484.56
18790,-3.8468,-0.6903,0.1610,1679.93,1357.91,547.12
18800,-3.8467,-0.6940,0.1873,-351.32,623.60,1172.18
18810,-3.8467,-0.7410,0.2140,-820.07,-17.03,-218.44
18820,-3.8466,-0.8262,0.2513,1164.31,-595.21,1000.37
18830,-3.8466,-0.9502,0.2869,-1741.94,185.85,453.61
18840,-3.8467,-1.0797,0.3136,-1616.94,732.48,-1421.33
18850,-3.8467,-1.1638,0.3350,1804.93,154.11,641.24
18860,-3.8468,-1.1914,0.3434,-960.69,-1111.69,-733.76
18870,-3.8468,-1.1815,0.3505,-491.94,-33.63,-1858.76
18880,-3.8468,-1.1635,0.3716,773.68,872.68,281.92
18890,-3.8469,-1.1589,0.4065,-913.82,-424.19,-1811.83
18900,-3.8469,-1.1682,0.4541,-335.69,44.56,1688.29
18910,-3.8469,-1.2057,0.5095,-1523.19,-1861.69,-327.27
18920,-3.8467,-1.2784,0.5674,1679.93,1231.99,188.48
18930,-3.8466,-1.3226,0.6251,367.43,638.12,-1670.78
18940,-3.8463,-1.2968,0.6561,-1288.82,28.63,1516.85
18950,-3.8461,-1.2407,0.6355,-1976.32,-2.56,-1686.28
18960,-3.8458,-1.1915,0.5734,1195.56,1356.93,-1451.90
18970,-3.8456,-1.1532,0.4979,-507.57,1403.87,407.35
18980,-3.8455,-1.1366,0.4412,398.68,-252.26,-795.96
18990,-3.8451,-1.1605,0.4288,-1476.32,482.12,-1155.40
19000,-3.8446,-1.1908,0.4686,-538.82,-1096.07,-733.58
19010,-3.8440,-1.1711,0.5562,-413.82,-2.38,1235.23
19020,-3.8748,-1.1101,0.6713,-1898.19,-799.19,-1327.09
19030,-3.8741,-1.0673,0.7725,1914.31,1935.30,141.91
19040,-3.8737,-1.0856,0.8203,-601.32,-1111.51,1938.96
19050,-3.8732,-1.1632,0.7837,1054.93,1013.49,1517.21
19060,-3.8728,-1.2721,0.6710,-882.57,325.81,501.53
19070,-3.8726,-1.3726,0.5608,1179.93,1903.75,1001.28
19080,-3.8723,-1.4160,0.5447,320.56,-205.81,-342.71
19090,-3.8718,-1.3744,0.6277,-1241.94,1731.57,-811.46
19100,-3.8712,-1.2604,0.7316,86.18,356.69,-1561.28
19110,-3.8706,-1.0885,0.7915,-1320.07,1653.75,1251.40
19120,-3.8701,-0.8647,0.8000,679.93,1325.99,142.15
19130,-3.8698,-0.6429,0.7651,1320.56,-1579.83,173.40
19140,-3.8694,-0.5170,0.6930,1711.18,1951.84,1017.09
19150,-3.8690,-0.5240,0.6162,1836.18,717.71,-186.16
19160,-3.8685,-0.6173,0.5741,929.93,-1110.41,-1936.34
19170,-3.8682,-0.7317,0.5601,992.43,1498.78,94.85
19180,-3.8682,-0.8201,0.5447,-1648.19,-298.34,-452.09
19190,-3.8682,-0.8678,0.5189,-960.69,1732.73,813.54
19200,-3.8684,-0.8749,0.4896,929.93,-1564.21,1750.98
19210,-3.8687,-0.8286,0.4667,23.68,-1314.21,141.54
19220,-3.8690,-0.7301,0.4581,1945.56,-251.65,1688.35
19230,-3.8694,-0.6123,0.4532,-1445.07,-1345.21,-577.27
19240,-3.8696,-0.4927,0.4305,1633.06,-1969.97,1172.73
19250,-3.8700,-0.3717,0.3889,945.56,-875.98,-1858.58
19260,-3.8704,-0.3020,0.3435,429.93,1796.14,1453.86
19270,-3.8708,-0.3376,0.3225,1351.81,-16.24,-108.76
19280,-3.8712,-0.4708,0.3431,789.31,1296.20,-1249.39
19290,-3.8716,-0.6622,0.3960,-257.57,-63.48,-952.51
19300,-3.8718,-0.8579,0.4661,-757.57,-1298.22,1156.98
19310,-3.8721,-1.0210,0.5436,-1804.44,-329.83,610.23
19320,-3.8723,-1.1364,0.6045,1320.56,1591.74,1235.41
19330,-3.8726,-1.1873,0.6173,-1445.07,1388.37,-1701.97
19340,-3.8728,-1.1635,0.5745,39.31,-971.07,-1655.09
19350,-3.8730,-1.0863,0.5046,-913.82,1544.56,1297.97
19360,-3.8733,-1.0133,0.4408,961.18,607.24,1000.98
19370,-3.8735,-0.9695,0.3956,-1695.07,435.49,-14.77
19380,-3.8735,-0.9326,0.3793,-85.69,-1345.70,-421.14
19390,-3.8734,-0.8906,0.3895,633.06,560.67,-1811.77
19400,-3.8733,-0.8606,0.4060,-1991.94,1873.23,1078.86
19410,-3.8733,-0.8651,0.4099,1851.81,-17.33,-1546.14
19420,-3.8733,-0.8979,0.4045,1273.68,482.67,1500.79
19430,-3.8734,-0.9390,0.4066,1070.56,-204.90,-1077.39
19440,-3.8734,-0.9797,0.4227,-179.44,60.61,953.92
19450,-3.8734,-1.0004,0.4344,-1398.19,-1876.95,875.79
19460,-3.8734,-0.9486,0.4219,-38.82,-377.01,1016.42
19470,-3.8734,-0.8198,0.4036,-1413.82,-1986.27,657.04
19480,-3.8734,-0.7296,0.4238,-929.44,-329.77,1938.23
19490,-3.8733,-0.7903,0.4902,-1382.57,-1735.84,422.67
19500,-3.8733,-0.9519,0.5674,-1148.19,-1235.96,188.42
19510,-3.8735,-1.0804,0.6058,-1835.69,638.73,-1733.28
19520,-3.8738,-1.1190,0.5966,1711.18,1560.36,329.28
19530,-3.8740,-1.0917,0.6106,773.68,372.80,94.91
19540,-3.8741,-1.0546,0.6956,273.68,-1830.26,-1342.59
19550,-3.8739,-1.0520,0.8105,1023.68,1044.80,720.09
19560,-3.8737,-1.0844,0.8774,1351.81,-236.45,1126.53
19570,-3.8735,-1.1365,0.8527,1211.18,325.99,1736.08
19580,-3.8735,-1.1826,0.7748,-1460.69,1153.99,1204.77
19590,-3.8737,-1.2153,0.7174,633.06,-814.82,-1982.91
19600,-3.8738,-1.2593,0.7158,445.56,-158.63,-170.53
19610,-3.8737,-1.3164,0.7706,-1179.44,-361.88,1829.47
19620,-3.8734,-1.3630,0.8646,-491.94,-1346.37,313.96
19630,-3.8732,-1.4125,0.9456,1539.31,-1315.19,64.15
19640,-3.8730,-1.4888,0.9568,-788.82,1044.07,642.46
19650,-3.8732,-1.5692,0.8740,1445.56,-1518.55,-1029.42
19660,-3.8734,-1.6173,0.7158,-851.32,-112.49,-623.35
19670,-3.8737,-1.6003,0.5380,992.43,-362.55,657.59
19680,-3.8740,-1.5018,0.3918,-835.69,871.83,-1764.59
19690,-3.8743,-1.3436,0.3044,-226.32,-1831.12,-577.39
19700,-3.8743,-1.1775,0.2753,23.68,-1018.25,1656.80
19710,-3.8743,-1.0536,0.2855,1289.31,-752.32,-374.51
19720,-3.8741,-0.9976,0.3134,1148.68,560.42,-905.70
19730,-3.8740,-1.0106,0.3444,320.56,123.05,-1811.89
19740,-3.8740,-1.0774,0.3763,-1351.32,91.74,-202.45
19750,-3.8740,-1.1705,0.4082,-1898.19,185.36,-311.77
19760,-3.8740,-1.2600,0.4352,-1820.07,263.31,-1608.58
19770,-3.8740,-1.3241,0.4510,-1273.19,-283.75,1157.04
19780,-3.8740,-1.3577,0.4608,-1476.32,1747.38,610.23
19790,-3.8740,-1.3716,0.4778,-1773.19,-1002.69,766.48
19800,-3.8740,-1.3684,0.5115,445.56,1169.19,1625.92
19810,-3.8740,-1.3379,0.5642,851.81,1481.69,-920.90
19820,-3.8739,-1.2965,0.6261,758.06,231.75,1001.10
19830,-3.8739,-1.2773,0.6871,-1945.07,153.69,-467.53
19840,-3.8738,-1.2821,0.7434,508.06,-33.75,-1592.47
19850,-3.8737,-1.2809,0.7787,-101.32,-830.69,563.90
19860,-3.8737,-1.2448,0.7803,54.93,-315.00,-1701.66
19870,-3.8735,-1.1664,0.7594,679.93,-111.82,79.59
19880,-3.8735,-1.0680,0.7305,-1288.82,1216.43,1329.59
19890,-3.8735,-0.9874,0.7015,-695.07,1513.49,1938.90
19900,-3.8735,-0.9352,0.6788,1617.43,1810.55,-1764.28
19910,-3.8735,-0.8882,0.6591,304.93,-1095.58,-1467.47
19920,-3.8735,-0.8307,0.6262,-1679.44,373.23,-623.72
19930,-3.8734,-0.7760,0.5875,1679.93,170.23,-1811.28
19940,-3.8733,-0.7690,0.5901,679.93,-782.78,-139.53
19950,-3.8730,-0.8280,0.6426,1570.56,-454.65,-405.15
19960,-3.8728,-0.8777,0.6984,-1976.32,-1736.02,-311.28
19970,-3.8726,-0.8641,0.7285,-335.69,1404.48,-1108.03
19980,-3.8723,-0.8560,0.7484,1398.68,1263.92,-1732.97
19990,-3.8721,-0.8793,0.7638,-1554.44,-189.21,-982.97
20000,-3.8717,-0.8680,0.7684,-538.82,1779.48,17.09
20010,-3.8716,-0.7994,0.7600,898.68,-1626.71,-607.91
20020,-3.8713,-0.6548,0.7245,1679.93,1295.29,110.84
20030,-3.8713,-0.4266,0.6675,195.56,748.72,-545.47
20040,-3.8711,-0.1553,0.6108,1398.68,1452.27,235.66
20050,-3.8708,0.1060,0.5792,133.06,-1797.18,344.91
20060,-3.8706,0.2841,0.5985,1570.56,-1859.19,-248.90
20070,-3.8702,0.3821,0.6492,367.43,609.92,-326.97
20080,-3.8699,0.4869,0.6798,914.31,-905.52,454.35
20090,-3.8698,0.6038,0.6808,-1663.82,-983.46,-1733.09
20100,-3.8696,0.6794,0.6718,1289.31,-858.22,-342.47
20110,-3.8694,0.6941,0.6565,-1023.19,1985.66,1235.66
20120,-3.8693,0.6799,0.6136,851.81,32.59,-1717.47
20130,-3.8691,0.6947,0.5320,-960.69,-1451.84,1219.91
20140,-3.8691,0.7368,0.4266,929.93,95.09,1141.66
20150,-3.8691,0.7975,0.3435,-1679.44,-1389.22,235.17
20160,-3.8691,0.8613,0.3169,-1913.82,-29.72,1156.86
20170,-3.8691,0.8932,0.3334,-1741.94,564.15,-483.76
20180,-3.8690,0.8661,0.3633,-1663.82,-1326.42,703.74
20190,-3.8691,0.7882,0.3745,-1132.57,-1498.35,-1827.45
20200,-3.8694,0.6891,0.3545,898.68,-60.97,-1389.95
20210,-3.8698,0.5643,0.3253,211.18,1376.34,-1296.20
20220,-3.8701,0.4318,0.3040,242.43,1641.72,531.86
20230,-3.8706,0.3397,0.2740,-726.32,-1092.96,-1421.33
20240,-3.8710,0.3063,0.2318,-507.57,-921.26,-343.26
20250,-3.8711,0.3035,0.2151,-788.82,1672.42,1875.43
20260,-3.8711,0.2947,0.2610,-1148.19,-468.20,-1905.88
20270,-3.8710,0.2466,0.3685,1726.81,1406.80,-812.01
20280,-3.8707,0.1451,0.4984,-429.44,-827.70,1688.17
20290,-3.8706,0.0154,0.5903,-1413.82,-202.88,1454.04
20300,-3.8706,-0.1052,0.6030,1976.81,-437.50,704.22
20310,-3.8707,-0.1960,0.5406,-1460.69,1202.88,1001.16
20320,-3.8708,-0.2394,0.4475,-1085.69,1218.32,876.04
20330,-3.8710,-0.1892,0.3838,1367.43,1296.39,-1592.90
20340,-3.8710,-0.0618,0.3824,-210.69,1140.20,-1311.77
20350,-3.8708,0.0751,0.4150,101.81,968.63,1078.86
20360,-3.8707,0.2122,0.4268,1617.43,1125.12,563.29
20370,-3.8707,0.3365,0.3990,-835.69,-1374.63,-436.71
20380,-3.8706,0.4126,0.3533,-913.82,-921.26,313.23
20390,-3.8707,0.4319,0.3264,820.56,1219.54,-1702.45
20400,-3.8708,0.3662,0.3536,-710.69,1782.04,-1405.64
20410,-3.8710,0.2181,0.4441,-1116.94,1266.30,-1171.20
20420,-3.8711,0.0468,0.5629,-70.07,844.12,-561.65
20430,-3.8711,-0.1237,0.6660,1992.43,46.94,1485.47
20440,-3.8711,-0.2880,0.7345,179.93,1265.38,1704.41
20450,-3.8711,-0.3882,0.7482,-851.32,-1969.36,1470.15
20460,-3.8712,-0.3777,0.7000,-1679.44,-219.54,-1482.97
20470,-3.8713,-0.3049,0.6410,-335.69,1608.58,-451.78
20480,-3.8712,-0.2518,0.6514,976.81,-1938.11,813.72
20490,-3.8711,-0.2655,0.7499,-226.32,-609.92,1641.85
20500,-3.8710,-0.3676,0.8954,-1976.32,-0.55,-1404.85
20510,-3.8708,-0.5519,1.0309,961.18,-1375.73,-1232.67
20520,-3.8707,-0.7354,1.1034,1367.43,-32.35,-1341.80
20530,-3.8706,-0.8381,1.1099,1883.06,1248.54,1767.76
20540,-3.8706,-0.8536,1.0894,726.81,-1923.52,-950.99
20550,-3.8706,-0.8334,1.0688,-1257.57,-548.58,-1513.55
20560,-3.8706,-0.8129,1.0457,1336.18,826.48,1345.83
20570,-3.8707,-0.7817,0.9869,-38.82,1857.73,-201.11
20580,-3.8707,-0.7676,0.8844,-54.44,-1657.84,908.14
20590,-3.8708,-0.8120,0.7861,1758.06,1217.22,189.21
20600,-3.8711,-0.9062,0.7153,70.56,639.04,860.90
20610,-3.8715,-1.0111,0.6444,8.06,-423.65,-967.41
20620,-3.8718,-1.0979,0.5557,-1413.82,-1502.01,-14.40
20630,-3.8721,-1.1555,0.4623,-523.19,-861.57,1235.41
20640,-3.8723,-1.1749,0.3811,101.81,-814.76,172.73
20650,-3.8726,-1.1595,0.3154,1617.43,794.56,891.36
20660,-3.8728,-1.1169,0.2625,-413.82,388.31,-436.89
20670,-3.8728,-1.0583,0.2208,1039.31,1607.18,1000.49
20680,-3.8728,-1.0210,0.1964,539.31,279.17,1562.93
20690,-3.8727,-1.0426,0.1962,1320.56,1154.24,625.37
20700,-3.8726,-1.1096,0.2228,-1445.07,1122.92,656.62
20710,-3.8724,-1.1818,0.2875,1976.81,529.05,1547.30
20720,-3.8723,-1.2362,0.3866,742.43,810.18,-280.70
20730,-3.8721,-1.2473,0.4760,1773.68,1497.56,1750.73
20740,-3.8719,-1.2034,0.5253,351.81,935.06,-1295.96
20750,-3.8718,-1.1228,0.5507,1976.81,-752.38,-999.02
20760,-3.8717,-1.0255,0.5731,289.31,-1502.20,-1170.84
20770,-3.8716,-0.9308,0.5925,742.43,1372.99,1766.72
20780,-3.8715,-0.8629,0.6195,867.43,-142.46,563.60
20790,-3.8713,-0.8357,0.6721,1554.93,-689.21,469.91
20800,-3.8712,-0.8275,0.7306,1039.31,-1954.77,360.66
20810,-3.8712,-0.8103,0.7599,-1913.82,1529.60,1360.78
20820,-3.8713,-0.7832,0.7509,289.31,1279.66,-1107.91
20830,-3.8715,-0.7445,0.7097,-241.94,123.41,-1561.04
20840,-3.8716,-0.6953,0.6555,711.18,-1142.09,1266.97
20850,-3.8717,-0.6511,0.6240,-991.94,-79.53,1657.47
20860,-3.8717,-0.6200,0.6443,664.31,-110.66,907.41
20870,-3.8717,-0.5862,0.7107,648.68,-1516.85,1891.85
20880,-3.8717,-0.5250,0.7900,976.81,-1016.78,-717.41
20890,-3.8716,-0.4227,0.8627,804.93,1139.59,1423.40
20900,-3.8715,-0.2710,0.9204,1898.68,-1563.35,1736.02
20910,-3.8713,-0.0994,0.9531,1320.56,1827.58,-326.35
20920,-3.8711,0.0286,0.9664,-710.69,-1984.62,1486.21
20930,-3.8710,0.1003,0.9731,-335.69,-296.88,-1701.29
20940,-3.8708,0.1466,0.9667,851.81,562.68,783.14
20950,-3.8710,0.1760,0.9303,-1226.32,-265.38,-310.67
20960,-3.8710,0.1921,0.8711,-1460.69,-921.57,454.90
20970,-3.8711,0.2065,0.8137,601.81,-499.63,-1998.35
20980,-3.8711,0.2485,0.7772,-1554.44,156.62,-1560.91
20990,-3.8710,0.3497,0.7590,-179.44,-515.20,1095.21
21000,-3.8710,0.4832,0.7408,773.68,1156.92,-967.29
21010,-3.8710,0.6023,0.7030,1851.81,-1170.96,-295.47
21020,-3.8710,0.6818,0.6476,1101.81,1985.53,-373.66
21030,-3.8710,0.6991,0.5940,-726.32,-1108.09,1704.35
21040,-3.8711,0.6755,0.5402,1492.43,32.59,1923.03
21050,-3.8712,0.6482,0.4795,-1523.19,1141.91,-1670.84
21060,-3.8712,0.6407,0.4211,-1023.19,1376.22,969.67
21070,-3.8712,0.6572,0.3832,-1976.32,1907.47,-1936.71
21080,-3.8711,0.6826,0.3748,133.06,1048.16,438.23
21090,-3.8711,0.7095,0.3845,-616.94,-29.97,-1061.83
21100,-3.8710,0.7317,0.3859,-1179.44,1220.09,360.11
21110,-3.8710,0.7540,0.3661,1664.31,1392.03,1219.48
21120,-3.8710,0.8059,0.3251,523.68,-1139.16,-780.58
21130,-3.8708,0.8799,0.2720,-835.69,1610.90,-858.76
21140,-3.8707,0.9307,0.2267,633.06,-1185.79,-108.89
21150,-3.8706,0.9463,0.1890,-866.94,1017.40,-546.45
21160,-3.8705,0.9347,0.1646,1133.06,189.33,-1984.01
21170,-3.8704,0.8938,0.1726,-351.32,1064.27,422.18
21180,-3.8704,0.8167,0.2164,-1585.69,-1904.54,-1530.94
21190,-3.8704,0.7413,0.2700,539.31,-295.29,-1062.13
21200,-3.8704,0.6970,0.2965,-1101.32,-1436.10,1031.74
21210,-3.8705,0.6708,0.2900,1226.81,1954.47,-1077.58
21220,-3.8705,0.6473,0.2784,1867.43,1126.28,-1436.95
21230,-3.8705,0.6184,0.2850,-1132.57,-358.15,-655.76
21240,-3.8704,0.5763,0.3129,-835.69,485.53,172.42
21250,-3.8704,0.5111,0.3647,1773.68,47.97,578.74
21260,-3.8704,0.4385,0.4371,1429.93,-1311.52,563.17
21270,-3.8704,0.3678,0.5084,133.06,-46.02,0.79
21280,-3.8705,0.3004,0.5540,-913.82,1078.80,-967.77
21290,-3.8705,0.2573,0.5535,-1538.82,-1093.20,438.54
21300,-3.8707,0.2605,0.5054,945.56,-1155.76,-264.59
21310,-3.8708,0.3007,0.4360,1351.81,687.99,-1405.27
21320,-3.8710,0.3431,0.3778,-1507.57,-186.95,1891.42
21330,-3.8711,0.3713,0.3486,-70.07,359.99,-1999.27
21340,-3.8712,0.3854,0.3638,-460.69,625.67,-30.58
21350,-3.8711,0.3755,0.4323,1336.18,-1436.77,1781.92
21360,-3.8710,0.3314,0.5167,70.56,-671.14,1907.04
21370,-3.8708,0.2621,0.5691,-1570.07,-1858.76,766.60
21380,-3.8708,0.1766,0.5854,1554.93,844.24,1438.60
21390,-3.8708,0.0670,0.5814,-1382.57,-1062.19,672.97
21400,-3.8710,-0.0674,0.5624,586.18,-1578.00,-1545.78
21410,-3.8711,-0.1870,0.5209,-616.94,-0.18,1907.29
21420,-3.8713,-0.2373,0.4517,70.56,-1312.87,-155.27
21430,-3.8715,-0.1987,0.3806,1633.06,1827.64,-1217.90
21440,-3.8715,-0.0938,0.3472,-1429.44,733.95,1063.23
21450,-3.8715,0.0267,0.3635,8.06,452.94,-1296.20
21460,-3.8713,0.1094,0.4071,-570.07,-1468.75,1953.80
21470,-3.8712,0.1469,0.4369,-1991.94,109.56,797.67
21480,-3.8712,0.1467,0.4340,-1195.07,-77.88,-1077.33
21490,-3.8711,0.1089,0.4128,-1210.69,-452.88,0.79
21500,-3.8712,0.0416,0.4017,1945.56,843.93,-999.21
21510,-3.8712,-0.0490,0.4216,1336.18,-578.06,891.36
21520,-3.8712,-0.1443,0.4700,1742.43,1984.25,188.29
21530,-3.8712,-0.2194,0.5254,1539.31,171.57,1719.67
21540,-3.8711,-0.2513,0.5712,-70.07,-734.86,532.23
21550,-3.8711,-0.2380,0.6063,-163.82,1124.45,-452.03
21560,-3.8710,-0.1987,0.6278,1539.31,1624.51,1313.66
21570,-3.8710,-0.1746,0.6304,-1429.44,374.57,907.47
21580,-3.8711,-0.2047,0.6206,1664.31,702.76,-1358.15
21590,-3.8712,-0.2743,0.6078,1804.93,-547.30,-998.84
21600,-3.8713,-0.3523,0.6007,898.68,1811.95,-780.09
21610,-3.8713,-0.4266,0.6077,-1085.69,905.52,1438.66
21620,-3.8713,-0.4956,0.6271,1398.68,1796.02,1954.28
21630,-3.8713,-0.5698,0.6505,570.56,280.27,-139.40
21640,-3.8712,-0.6572,0.6742,-929.44,-719.91,-1139.40
21650,-3.8711,-0.7635,0.6791,-116.94,-1688.84,1766.91
21660,-3.8711,-0.8888,0.6460,-1726.32,-1064.03,-1529.97
21670,-3.8711,-1.0043,0.5851,-1757.57,-1298.65,126.22
21680,-3.8713,-1.0735,0.5133,-538.82,-1095.76,-77.03
21690,-3.8715,-1.1332,0.4513,-1398.19,1716.61,-686.52
21700,-3.8716,-1.1923,0.4110,-1038.82,1778.99,-1421.02
21710,-3.8717,-1.2117,0.3766,-601.32,622.62,-1733.58
21720,-3.8718,-1.1749,0.3354,914.31,216.37,-546.14
21730,-3.8718,-1.0922,0.2915,1617.43,-1049.19,1906.86
21740,-3.8718,-1.0062,0.2513,211.18,1325.99,813.05
21750,-3.8718,-0.9325,0.2223,-788.82,185.49,422.36
21760,-3.8718,-0.8723,0.2158,648.68,466.92,1250.43
21770,-3.8718,-0.8553,0.2555,351.81,-361.08,-187.13
21780,-3.8716,-0.8947,0.3560,-1476.32,717.04,484.86
21790,-3.8715,-0.9487,0.4729,1492.43,1576.35,1141.30
21800,-3.8713,-0.9778,0.5409,-1429.44,544.98,188.42
21810,-3.8713,-0.9623,0.5559,-1148.19,1248.05,-1592.71
21820,-3.8713,-0.9119,0.5415,836.18,-830.02,-1248.96
21830,-3.8713,-0.8459,0.5195,-710.69,1326.29,797.91
21840,-3.8715,-0.7726,0.5208,-273.19,-1486.08,-1327.15
21850,-3.8715,-0.6974,0.5529,1117.43,-1329.65,1063.48
21860,-3.8716,-0.6387,0.5874,-1257.57,-1220.15,-1530.21
21870,-3.8717,-0.6149,0.6132,-1741.94,-798.16,-748.90
21880,-3.8717,-0.6002,0.6318,1304.93,-1501.22,563.66
21890,-3.8718,-0.5679,0.6379,-820.07,889.40,-1233.15
21900,-3.8718,-0.5211,0.6289,-679.44,1670.72,1798.10
21910,-3.8718,-0.4557,0.5938,1304.93,514.59,94.97
21920,-3.8719,-0.3763,0.5450,1679.93,14.71,1610.53
21930,-3.8721,-0.3246,0.5205,-163.82,1780.46,-623.96
21940,-3.8721,-0.3241,0.5293,-1538.82,-1360.05,1375.98
21950,-3.8721,-0.3309,0.5591,-1476.32,-235.05,250.98
21960,-3.8721,-0.2904,0.5956,1648.68,-422.55,1376.04
21970,-3.8719,-0.1768,0.6249,-1163.82,249.39,1016.78
21980,-3.8718,-0.0059,0.6359,1383.06,-0.37,-1983.22
21990,-3.8717,0.1646,0.6198,-741.94,1406.19,-264.40
22000,-3.8716,0.2703,0.5695,1070.56,-671.57,-45.72
22010,-3.8716,0.2906,0.4863,-1398.19,891.11,-436.40
22020,-3.8717,0.2539,0.3992,1211.18,-1749.45,-420.96
22030,-3.8718,0.2090,0.3396,508.06,-905.76,-1014.89
22040,-3.8718,0.2075,0.3192,-1241.94,-530.88,344.36
22050,-3.8718,0.2590,0.3524,-1429.44,859.74,-1999.39
22060,-3.8717,0.3402,0.4291,1164.31,1109.86,-171.20
22070,-3.8715,0.4238,0.5028,-445.07,-1077.51,-671.08
22080,-3.8712,0.4897,0.5417,-1741.94,360.17,-670.90
22090,-3.8710,0.5293,0.5531,-1304.44,1344.67,-639.59
22100,-3.8707,0.5376,0.5719,-241.94,-1202.15,-1795.84
22110,-3.8706,0.5344,0.6097,820.56,1204.16,-733.28
22120,-3.8705,0.5461,0.6333,414.31,-1952.09,-1951.97
22130,-3.8705,0.5785,0.6252,1914.31,1063.54,-655.03
22140,-3.8704,0.6162,0.6056,-1945.07,32.35,126.22
22150,-3.8704,0.6506,0.5988,-1116.94,1516.78,1001.16
22160,-3.8704,0.6913,0.6191,-710.69,641.85,-514.47
22170,-3.8702,0.7671,0.6613,492.43,-748.66,-358.22
22180,-3.8701,0.8832,0.7030,-1804.44,642.09,-451.84
22190,-3.8700,1.0059,0.7125,1054.93,1986.08,-1717.41
22200,-3.8699,1.0868,0.6909,758.06,-794.92,173.22
22210,-3.8699,1.0979,0.6635,-882.57,439.58,1001.34
22220,-3.8700,1.0656,0.6302,539.31,924.01,-76.84
22230,-3.8700,1.0061,0.5909,398.68,673.95,501.22
22240,-3.8702,0.9327,0.5638,789.31,-357.42,-873.90
22250,-3.8704,0.8481,0.5604,-601.32,173.65,407.35
22260,-3.8706,0.7488,0.5797,570.56,-263.98,1188.54
22270,-3.8708,0.6495,0.6215,-148.19,-1795.47,-327.03
22280,-3.8708,0.5508,0.6774,-851.32,-451.90,844.91
22290,-3.8710,0.4567,0.7350,-1491.94,-1295.84,-14.34
22300,-3.8710,0.3812,0.7759,-1538.82,-1921.02,-732.97
22310,-3.8710,0.3262,0.7819,804.93,-686.77,1204.59
22320,-3.8711,0.2812,0.7654,1758.06,78.74,-1404.72
22330,-3.8712,0.2397,0.7445,8.06,1969.30,-451.66
22340,-3.8713,0.2156,0.7126,-1304.44,-702.70,-467.35
22350,-3.8715,0.2209,0.6553,-398.19,-780.88,-654.91
22360,-3.8715,0.2491,0.5837,289.31,-124.57,1.22
22370,-3.8716,0.2817,0.5370,-101.32,-1280.82,-1483.28
22380,-3.8716,0.2957,0.5319,70.56,734.92,-811.46
22390,-3.8715,0.2628,0.5435,1851.81,78.67,579.16
22400,-3.8715,0.1843,0.5449,1648.68,1562.99,1079.16
22410,-3.8716,0.0961,0.5315,-398.19,1750.31,-77.09
22420,-3.8716,0.0206,0.5057,304.93,31.43,1032.29
22430,-3.8717,-0.0317,0.4674,-1351.32,734.38,1422.85
22440,-3.8718,-0.0538,0.4214,-54.44,-156.37,-1421.02
22450,-3.8718,-0.0530,0.3795,1117.43,1953.00,1235.17
22460,-3.8718,-0.0402,0.3529,1226.81,593.63,1063.23
22470,-3.8718,-0.0319,0.3418,-1132.57,1187.38,1078.80
22480,-3.8718,-0.0585,0.3462,-70.07,-234.50,938.11
22490,-3.8718,-0.1251,0.3740,523.68,328.00,1141.30
22500,-3.8718,-0.1935,0.4226,-7.57,-109.68,-1874.33
22510,-3.8718,-0.2312,0.4684,-757.57,-1891.05,-749.21
22520,-3.8718,-0.2253,0.4923,-1585.69,-31.74,-186.65
22530,-3.8718,-0.1779,0.5054,-835.69,-969.24,-77.21
22540,-3.8718,-0.1140,0.5327,1242.43,702.76,-311.52
22550,-3.8718,-0.0780,0.5833,1414.31,202.88,-545.84
22560,-3.8718,-0.0959,0.6451,-1976.32,-1328.31,-936.40
22570,-3.8718,-0.1448,0.7051,-273.19,-1406.49,-1639.40
22580,-3.8718,-0.2084,0.7726,1476.81,-1734.68,-1889.28
22590,-3.8718,-0.3140,0.8687,1336.18,-1094.18,-92.29
22600,-3.8716,-0.4866,0.9976,-179.44,-797.55,782.90
22610,-3.8715,-0.7046,1.1396,1726.81,-297.85,-982.48
22620,-3.8712,-0.9419,1.2598,1820.56,1889.22,502.20
22630,-3.8711,-1.1414,1.3282,-554.44,1263.73,611.82
22640,-3.8711,-1.2496,1.3193,1914.31,-1971.01,-481.81
22650,-3.8710,-1.2521,1.2271,54.93,888.18,1549.44
22660,-3.8710,-1.1851,1.0791,-257.57,1075.62,-1778.87
22670,-3.8710,-1.1147,0.9097,320.56,-1861.69,408.33
22680,-3.8712,-1.0724,0.7421,1320.56,450.93,-623.23
22690,-3.8715,-1.0732,0.5970,-1257.57,-1002.14,-686.10
22700,-3.8717,-1.1152,0.4921,-1366.94,435.36,1891.78
22710,-3.8719,-1.1605,0.4242,1258.06,-1002.20,1219.67
22720,-3.8722,-1.1533,0.3696,-538.82,-1689.82,-1374.21
22730,-3.8723,-1.0978,0.3168,383.06,-674.13,-1108.70
22740,-3.8723,-1.0338,0.2798,-507.57,560.30,1719.36
22750,-3.8723,-0.9879,0.2678,-320.07,-173.95,1906.74
22760,-3.8723,-0.9622,0.2712,1554.93,-1705.08,-1187.01
22770,-3.8722,-0.9495,0.2769,851.81,-1267.52,234.86
22780,-3.8722,-0.9360,0.2859,-1523.19,-548.77,-1780.76
22790,-3.8721,-0.9048,0.3151,195.56,607.54,1125.55
22800,-3.8719,-0.8586,0.3761,195.56,341.98,1063.11
22810,-3.8718,-0.8173,0.4592,-1898.19,154.54,1672.61
22820,-3.8717,-0.7831,0.5446,-601.32,-1204.77,-1733.52
22830,-3.8716,-0.7520,0.6184,-226.32,1717.16,-1952.09
22840,-3.8715,-0.7368,0.6808,-241.94,-829.65,438.66
22850,-3.8715,-0.7383,0.7354,1695.56,-845.21,1813.78
22860,-3.8715,-0.7343,0.7765,1508.06,-1860.84,-1607.97
