timestamp_ms,ax,ay,az,gx,gy,gz
0,-3.8737,0.8817,0.3318,726.81,1829.83,1578.74
10,-3.8737,0.8745,0.3397,867.43,-1529.54,-1608.76
20,-3.8737,0.8615,0.3427,-54.44,-513.98,-796.26
30,-3.8737,0.8538,0.3375,-1726.32,-138.98,-171.26
40,-3.8735,0.8539,0.3304,1289.31,-795.23,156.86
50,-3.8735,0.8567,0.3304,1304.93,-1701.48,391.24
60,-3.8735,0.8604,0.3345,1664.31,-1701.48,656.86
70,-3.8735,0.8656,0.3306,-1866.94,-1185.85,781.86
80,-3.8735,0.8710,0.3180,-1195.07,-1685.85,563.11
90,-3.8735,0.8722,0.3062,-507.57,704.77,78.74
100,-3.8737,0.8716,0.3030,-351.32,-810.85,-452.58
110,-3.8737,0.8738,0.3077,-429.44,-1217.10,-936.95
120,-3.8737,0.8787,0.3120,-148.19,-607.73,-1436.95
130,-3.8737,0.8823,0.3140,476.81,-60.79,-1874.45
140,-3.8737,0.8807,0.3175,945.56,189.21,1859.99
150,-3.8737,0.8772,0.3242,742.43,642.33,1750.61
160,-3.8737,0.8771,0.3322,289.31,1501.71,1688.11
170,-3.8737,0.8804,0.3346,273.68,-1482.67,1594.36
180,-3.8737,0.8839,0.3265,695.56,-1170.17,1344.36
190,-3.8737,0.8861,0.3105,1148.68,1798.58,969.36
200,-3.8737,0.8888,0.2952,1429.93,-248.29,578.67
210,-3.8737,0.8905,0.2874,1773.68,1782.96,94.30
220,-3.8738,0.8876,0.2866,1992.43,782.96,-46.33
230,-3.8737,0.8815,0.2861,1617.43,689.21,531.80
240,-3.8737,0.8757,0.2806,836.18,626.71,1375.55
250,-3.8737,0.8741,0.2728,101.81,-76.42,-1968.26
260,-3.8737,0.8761,0.2703,-101.32,-1076.48,-1530.76
270,-3.8737,0.8783,0.2759,148.68,-1404.54,-1265.14
280,-3.8737,0.8784,0.2859,429.93,-685.79,-1155.76
290,-3.8737,0.8777,0.2981,445.56,595.46,-1171.33
300,-3.8737,0.8783,0.3141,351.81,-1842.04,-1343.20
310,-3.8737,0.8792,0.3296,429.93,204.83,-1561.89
320,-3.8737,0.8774,0.3353,539.31,-1810.79,-1811.89
330,-3.8737,0.8766,0.3333,320.56,-1076.42,1688.11
340,-3.8737,0.8790,0.3314,211.18,-1342.04,1063.11
350,-3.8737,0.8799,0.3308,523.68,-1576.42,891.24
360,-3.8737,0.8776,0.3274,633.06,-1654.54,1422.49
370,-3.8737,0.8746,0.3170,336.18,1907.96,-1890.01
380,-3.8737,0.8741,0.3040,-38.82,579.77,-1374.39
390,-3.8737,0.8752,0.2983,-101.32,-1092.10,-905.70
400,-3.8737,0.8739,0.3048,39.31,-1810.79,-452.58
410,-3.8735,0.8679,0.3191,-132.57,-982.73,16.17
420,-3.8735,0.8600,0.3312,-898.19,845.40,484.99
430,-3.8735,0.8560,0.3368,-1913.82,-1607.73,641.24
440,-3.8735,0.8591,0.3409,1570.56,-888.98,422.49
450,-3.8735,0.8682,0.3475,1976.81,-357.73,0.61
460,-3.8737,0.8772,0.3549,-866.94,486.02,-608.70
470,-3.8737,0.8820,0.3622,289.31,1423.58,-1514.95
480,-3.8737,0.8810,0.3699,898.68,-1638.92,1281.92
490,-3.8738,0.8788,0.3768,773.68,-654.54,-155.58
500,-3.8738,0.8812,0.3810,492.43,236.08,-1389.89
510,-3.8738,0.8865,0.3787,804.93,767.33,1860.11
520,-3.8738,0.8915,0.3705,1476.81,470.46,1703.86
530,-3.8738,0.8940,0.3588,-1882.57,-576.42,1969.42
540,-3.8738,0.8901,0.3470,-1554.44,1923.58,-1483.70
550,-3.8738,0.8793,0.3348,1945.56,423.58,-233.70
560,-3.8737,0.8676,0.3180,554.93,-1138.92,1734.99
570,-3.8735,0.8572,0.2946,-945.07,704.77,78.74
580,-3.8735,0.8461,0.2694,1726.81,1704.77,-1593.20
590,-3.8734,0.8356,0.2505,304.93,-1513.98,297.36
600,-3.8734,0.8298,0.2477,-1038.82,64.09,1734.86
610,-3.8734,0.8309,0.2645,-1773.19,-295.29,-1390.20
620,-3.8734,0.8342,0.2914,-1632.57,1860.96,-1202.64
630,-3.8734,0.8376,0.3191,-1210.69,1298.46,-1515.08
640,-3.8734,0.8475,0.3405,-773.19,845.34,1438.11
650,-3.8735,0.8668,0.3497,492.43,-420.23,-811.89
660,-3.8737,0.8899,0.3511,-1038.82,767.27,-30.58
670,-3.8737,0.9080,0.3508,1914.31,939.21,703.80
680,-3.8738,0.9136,0.3517,226.81,908.02,-1921.20
690,-3.8738,0.9083,0.3544,945.56,1017.40,219.42
700,-3.8739,0.9010,0.3594,273.68,1361.15,-936.83
710,-3.8739,0.8987,0.3641,-663.82,-1998.29,-1624.33
720,-3.8739,0.9043,0.3601,-960.69,-1388.92,-1593.08
730,-3.8739,0.9108,0.3448,-241.94,-1904.54,-546.20
740,-3.8738,0.9076,0.3235,586.18,142.40,766.30
750,-3.8738,0.8933,0.3042,179.93,1408.02,-1843.14
760,-3.8738,0.8762,0.2931,-1648.19,-1060.79,-46.33
770,-3.8737,0.8654,0.2913,164.31,1517.33,-1952.58
780,-3.8735,0.8606,0.2964,-1226.32,1282.90,172.42
790,-3.8735,0.8551,0.3038,-1835.69,1939.15,1953.67
800,-3.8735,0.8470,0.3094,1461.18,-1107.73,-921.33
810,-3.8735,0.8418,0.3132,429.93,-388.98,-702.58
820,-3.8735,0.8442,0.3180,-241.94,95.34,-1296.26
830,-3.8735,0.8553,0.3293,70.56,704.77,1875.61
840,-3.8735,0.8689,0.3430,1492.43,-1842.10,1156.86
850,-3.8735,0.8777,0.3499,-773.19,-92.10,375.61
860,-3.8737,0.8824,0.3496,351.81,782.96,-749.33
870,-3.8737,0.8823,0.3418,961.18,751.71,1969.42
880,-3.8737,0.8801,0.3334,945.56,-248.29,1109.99
890,-3.8737,0.8806,0.3333,664.31,-1326.42,641.24
900,-3.8737,0.8752,0.3403,726.81,-1342.04,906.86
910,-3.8737,0.8582,0.3501,39.31,-435.79,-1811.89
920,-3.8737,0.8386,0.3556,1851.81,814.15,-14.95
930,-3.8735,0.8292,0.3513,-648.19,1517.21,1844.42
940,-3.8735,0.8345,0.3417,-1851.32,970.34,-733.70
950,-3.8735,0.8474,0.3342,-1179.44,-264.04,-186.89
960,-3.8735,0.8549,0.3286,476.81,-1217.10,-577.51
970,-3.8735,0.8566,0.3219,1429.93,-1935.85,-1640.01
980,-3.8735,0.8604,0.3171,1648.68,1204.77,1016.24
990,-3.8737,0.8684,0.3188,-1866.94,595.40,-390.01
1000,-3.8737,0.8793,0.3251,-835.69,814.15,-1640.01
1010,-3.8737,0.8890,0.3286,554.93,1611.08,1344.36
1020,-3.8737,0.8947,0.3245,1804.93,-1935.79,375.61
1030,-3.8738,0.8978,0.3170,-1476.32,1532.96,-624.39
1040,-3.8738,0.9004,0.3152,-1070.07,579.83,-1468.14
1050,-3.8738,0.9001,0.3163,-741.94,345.46,1891.24
1060,-3.8738,0.8973,0.3142,-773.19,486.08,1766.24
1070,-3.8738,0.8944,0.3115,-1132.57,220.46,1984.99
1080,-3.8738,0.8898,0.3132,-1507.57,-123.29,-1780.70
1090,-3.8738,0.8831,0.3199,1898.68,95.46,-1296.26
1100,-3.8738,0.8763,0.3281,1039.31,954.83,-436.89
1110,-3.8737,0.8721,0.3344,179.93,-1998.29,625.61
1120,-3.8737,0.8716,0.3333,-366.94,-1201.48,1328.74
1130,-3.8737,0.8735,0.3224,-429.44,-1342.10,1266.24
1140,-3.8737,0.8762,0.3108,-179.44,1267.27,734.99
1150,-3.8737,0.8805,0.3080,164.31,-217.04,31.80
1160,-3.8738,0.8849,0.3119,711.18,-576.42,-577.58
1170,-3.8738,0.8881,0.3156,1273.68,-76.42,-921.33
1180,-3.8738,0.8911,0.3164,1679.93,392.33,-1233.76
1190,-3.8738,0.8927,0.3149,-1929.44,501.71,-1780.64
1200,-3.8738,0.8928,0.3132,-1726.32,314.21,1609.99
1210,-3.8738,0.8940,0.3138,-1710.69,95.46,1047.49
1220,-3.8738,0.8955,0.3196,-1554.44,173.58,797.49
1230,-3.8738,0.8954,0.3270,-1366.94,907.96,969.36
1240,-3.8738,0.8959,0.3275,-1382.57,1861.08,1063.11
1250,-3.8738,0.8983,0.3199,-1320.07,1923.58,813.11
1260,-3.8738,0.9020,0.3125,-1007.57,954.83,250.61
1270,-3.8739,0.9045,0.3115,-538.82,1.71,-468.14
1280,-3.8739,0.9044,0.3174,-210.69,-123.29,-874.45
1290,-3.8739,0.9038,0.3260,-226.32,626.71,-733.76
1300,-3.8739,0.9021,0.3286,-304.44,1736.08,-390.01
1310,-3.8739,0.8987,0.3223,-523.19,-1935.79,-280.64
1320,-3.8739,0.8942,0.3167,-960.69,1251.71,-405.64
1330,-3.8739,0.8911,0.3177,-1538.82,532.96,-327.51
1340,-3.8738,0.8918,0.3218,-1929.44,673.58,156.86
1350,-3.8738,0.8932,0.3223,-1835.69,1189.21,703.74
1360,-3.8738,0.8940,0.3180,-1663.82,1251.71,906.86
1370,-3.8738,0.8942,0.3121,-1554.44,704.83,844.36
1380,-3.8738,0.8945,0.3082,-1538.82,-45.17,766.17
1390,-3.8738,0.8951,0.3069,-1491.94,-545.17,750.55
1400,-3.8738,0.8936,0.3064,-1413.82,-717.04,828.67
1410,-3.8738,0.8921,0.3071,-1616.94,-779.54,984.92
1420,-3.8738,0.8921,0.3087,-1804.44,-685.79,1031.80
1430,-3.8738,0.8923,0.3127,-1804.44,-482.67,1031.80
1440,-3.8738,0.8931,0.3171,-1773.19,32.96,1000.61
1450,-3.8738,0.8956,0.3180,-1679.44,595.46,938.11
1460,-3.8738,0.8975,0.3163,-1351.32,704.83,844.36
1470,-3.8738,0.8967,0.3142,-1116.94,486.08,531.86
1480,-3.8738,0.8949,0.3141,-1210.69,220.46,78.74
1490,-3.8739,0.8950,0.3193,-1445.07,204.83,-140.01
1500,-3.8738,0.8993,0.3265,-1429.44,876.71,16.24
1510,-3.8738,0.9014,0.3279,-882.57,1798.58,344.36
1520,-3.8738,0.8953,0.3245,-616.94,1970.46,656.86
1530,-3.8738,0.8856,0.3215,-1398.19,1532.96,844.36
1540,-3.8738,0.8816,0.3212,1367.43,1157.96,922.49
1550,-3.8738,0.8857,0.3220,851.81,1111.08,1078.74
1560,-3.8738,0.8906,0.3225,1383.06,1220.46,1344.36
1570,-3.8738,0.8915,0.3219,-1991.94,1282.96,1625.61
1580,-3.8738,0.8885,0.3208,-1882.57,1204.83,1828.74
1590,-3.8738,0.8844,0.3185,1742.43,1064.21,1938.11
1600,-3.8738,0.8842,0.3143,1211.18,767.33,1734.99
1610,-3.8738,0.8895,0.3112,1179.93,236.08,1266.24
1620,-3.8738,0.8955,0.3121,1867.43,-170.17,891.17
1630,-3.8738,0.8981,0.3153,-1366.94,-45.17,781.80
1640,-3.8738,0.8969,0.3176,-1038.82,361.08,672.49
1650,-3.8738,0.8954,0.3184,-1195.07,657.96,453.74
1660,-3.8738,0.8961,0.3164,-1382.57,751.71,156.86
1670,-3.8739,0.8988,0.3131,-1288.82,501.71,-218.14
1680,-3.8739,0.9025,0.3137,-945.07,79.83,-343.14
1690,-3.8739,0.9038,0.3175,-476.32,157.96,-249.39
1700,-3.8739,0.9011,0.3182,-304.44,642.33,-155.64
1710,-3.8739,0.8976,0.3156,-648.19,736.08,-108.76
1720,-3.8739,0.8947,0.3138,-1101.32,392.33,-108.76
1730,-3.8739,0.8918,0.3147,-1476.32,173.58,-46.26
1740,-3.8738,0.8907,0.3163,-1835.69,282.96,188.11
1750,-3.8738,0.8923,0.3176,-1976.32,486.08,484.99
1760,-3.8738,0.8933,0.3186,-1773.19,657.96,641.24
1770,-3.8738,0.8920,0.3188,-1648.19,782.96,656.86
1780,-3.8738,0.8911,0.3179,-1820.07,814.21,625.61
1790,-3.8738,0.8933,0.3162,-1929.44,689.21,453.74
1800,-3.8738,0.8988,0.3169,-1648.19,470.46,156.86
1810,-3.8739,0.9021,0.3214,-945.07,564.21,-77.51
1820,-3.8739,0.9009,0.3257,-523.19,1142.33,-155.64
1830,-3.8739,0.8988,0.3250,-679.44,1689.21,-218.14
1840,-3.8739,0.8964,0.3206,-945.07,1595.46,-296.26
1850,-3.8739,0.8960,0.3167,-1257.57,1032.96,-421.26
1860,-3.8739,0.8995,0.3156,-1304.44,532.96,-593.14
1870,-3.8739,0.9014,0.3164,-851.32,392.33,-624.39
1880,-3.8739,0.8989,0.3156,-616.94,501.71,-468.14
1890,-3.8739,0.8949,0.3113,-929.44,392.33,-249.39
1900,-3.8739,0.8934,0.3063,-1445.07,-154.54,-140.08
1910,-3.8739,0.8966,0.3037,-1632.57,-795.17,-93.20
1920,-3.8739,0.9003,0.3044,-1226.32,-1123.29,-15.08
1930,-3.8739,0.9001,0.3065,-757.57,-1029.54,-15.08
1940,-3.8739,0.8962,0.3099,-773.19,-763.92,-140.08
1950,-3.8739,0.8942,0.3148,-1273.19,-326.42,-327.58
1960,-3.8739,0.8961,0.3186,-1538.82,298.58,-561.89
1970,-3.8739,0.8999,0.3186,-1288.82,782.96,-702.51
1980,-3.8739,0.9043,0.3154,-804.44,782.96,-874.39
1990,-3.8739,0.9076,0.3132,-241.94,376.71,-1265.01
2000,-3.8739,0.9083,0.3141,179.93,95.52,-1530.64
2010,-3.8739,0.9073,0.3146,273.68,204.90,-1483.76
2020,-3.8739,0.9050,0.3124,148.68,267.40,-1483.76
2030,-3.8739,0.9045,0.3110,-148.19,-13.92,-1515.08
2040,-3.8739,0.9049,0.3130,-210.69,-185.79,-1280.70
2050,-3.8739,0.9017,0.3176,-163.82,64.21,-749.39
2060,-3.8739,0.8966,0.3229,-570.07,657.96,-155.64
2070,-3.8738,0.8921,0.3243,-1226.32,1329.83,266.24
2080,-3.8738,0.8898,0.3230,-1804.44,1517.33,500.61
2090,-3.8738,0.8895,0.3226,1898.68,1345.46,766.24
2100,-3.8738,0.8899,0.3234,1867.43,1298.58,984.99
2110,-3.8738,0.8893,0.3230,1914.31,1392.33,1234.99
2120,-3.8738,0.8861,0.3204,1836.18,1345.46,1422.49
2130,-3.8738,0.8850,0.3171,1429.93,1017.33,1438.11
2140,-3.8738,0.8862,0.3153,1289.31,595.46,1469.36
2150,-3.8738,0.8892,0.3163,1445.56,361.08,1391.24
2160,-3.8738,0.8947,0.3187,1820.56,486.08,1375.61
2170,-3.8738,0.8944,0.3192,-1476.32,798.58,1359.99
2180,-3.8738,0.8917,0.3190,-1507.57,861.08,953.74
2190,-3.8738,0.8934,0.3210,-1851.32,829.83,578.74
2200,-3.8738,0.8949,0.3228,-1632.57,1095.46,500.61
2210,-3.8738,0.8977,0.3220,-1445.07,1314.21,484.99
2220,-3.8738,0.8990,0.3186,-1085.69,1220.46,391.24
2230,-3.8738,0.8944,0.3136,-913.82,782.96,250.61
2240,-3.8738,0.8923,0.3101,-1507.57,142.33,266.24
2250,-3.8738,0.8982,0.3098,-1773.19,-310.79,594.30
2260,-3.8738,0.9022,0.3107,-1023.19,-342.04,1125.55
2270,-3.8738,0.8965,0.3114,-507.57,-232.67,1516.17
2280,-3.8738,0.8866,0.3149,-1241.94,-138.92,1594.30
2290,-3.8738,0.8789,0.3221,1492.43,314.21,1641.24
2300,-3.8738,0.8772,0.3287,508.06,1236.08,1844.36
2310,-3.8738,0.8824,0.3307,289.31,-1920.17,-1858.76
2320,-3.8738,0.8872,0.3269,961.18,-1670.17,-1749.39
2330,-3.8738,0.8884,0.3203,1570.56,1845.46,-1874.39
2340,-3.8738,0.8900,0.3142,1726.81,1001.71,1922.49
2350,-3.8738,0.8878,0.3134,1929.93,220.46,1922.49
2360,-3.8738,0.8872,0.3177,1648.68,111.08,1844.36
2370,-3.8738,0.8911,0.3207,1570.56,673.58,1750.61
2380,-3.8738,0.8904,0.3198,-1929.44,1048.58,1563.11
2390,-3.8738,0.8899,0.3199,1976.81,939.21,1297.49
2400,-3.8738,0.8881,0.3214,1914.31,954.83,938.11
2410,-3.8738,0.8877,0.3231,1679.93,1142.33,547.49
2420,-3.8738,0.8914,0.3264,1633.06,1361.08,500.61
2430,-3.8738,0.8965,0.3263,-1898.19,1782.96,438.11
2440,-3.8738,0.9028,0.3229,-1241.94,1767.33,297.49
2450,-3.8738,0.9037,0.3203,-429.44,1329.83,31.86
2460,-3.8739,0.9030,0.3218,-320.07,1001.71,-186.89
2470,-3.8739,0.9017,0.3257,-413.82,1189.21,-218.14
2480,-3.8739,0.8982,0.3284,-570.07,1689.21,-108.76
2490,-3.8738,0.8910,0.3295,-1023.19,-1967.04,109.99
2500,-3.8738,0.8833,0.3270,-1945.07,-1826.42,359.99
2510,-3.8738,0.8837,0.3229,1070.56,1861.08,609.99
2520,-3.8738,0.8883,0.3186,1117.43,1329.83,828.74
2530,-3.8738,0.8917,0.3170,1711.18,782.96,1000.61
2540,-3.8738,0.8923,0.3188,-1851.32,579.83,1156.86
2550,-3.8738,0.8900,0.3186,-1773.19,814.21,1172.49
2560,-3.8738,0.8878,0.3162,1929.93,782.96,953.74
2570,-3.8738,0.8903,0.3157,1648.68,470.46,688.11
2580,-3.8738,0.8948,0.3177,1961.18,407.96,563.11
2590,-3.8738,0.8964,0.3191,-1460.69,673.58,328.74
2600,-3.8739,0.8978,0.3168,-1257.57,845.46,-280.64
2610,-3.8739,0.8986,0.3131,-1070.07,548.58,-1061.89
2620,-3.8739,0.8962,0.3137,-976.32,79.83,-1780.64
2630,-3.8739,0.9019,0.3217,-1273.19,157.96,1828.74
2640,-3.8739,0.9105,0.3284,-554.44,1173.58,1781.86
2650,-3.8739,0.9071,0.3264,554.93,-1966.98,1516.24
2660,-3.8739,0.9039,0.3220,117.43,1783.02,984.99
2670,-3.8739,0.9059,0.3208,-288.82,1220.46,719.36
2680,-3.8739,0.9083,0.3229,-38.82,1064.21,1016.24
2690,-3.8739,0.9086,0.3252,273.68,1329.90,1734.99
2700,-3.8739,0.9014,0.3239,304.93,1626.77,-1718.14
2710,-3.8739,0.8920,0.3220,-616.94,1454.83,-1280.64
2720,-3.8739,0.8879,0.3239,-1820.07,1220.46,-671.26
2730,-3.8738,0.8905,0.3276,1664.31,1454.83,188.11
2740,-3.8738,0.8905,0.3291,1992.43,1939.21,1047.49
2750,-3.8738,0.8829,0.3281,1992.43,-1873.29,1391.24
2760,-3.8738,0.8748,0.3278,1023.68,-1998.29,1469.36
2770,-3.8738,0.8738,0.3276,-23.19,1954.77,1328.74
2780,-3.8738,0.8788,0.3278,-148.19,1939.15,703.74
2790,-3.8739,0.8877,0.3254,492.43,1954.83,-218.14
2800,-3.8739,0.8978,0.3170,1633.06,1657.96,-1436.89
2810,-3.8739,0.9038,0.3090,-1070.07,579.83,1266.24
2820,-3.8740,0.9094,0.3086,-304.44,-451.42,-108.83
2830,-3.8740,0.9170,0.3136,414.31,-498.23,-1561.95
2840,-3.8740,0.9236,0.3214,1383.06,142.40,1406.86
2850,-3.8740,0.9263,0.3296,-1773.19,1142.40,953.74
2860,-3.8740,0.9249,0.3331,-1429.44,-1810.73,891.24
2870,-3.8740,0.9225,0.3300,-1601.32,-1357.60,891.24
2880,-3.8740,0.9232,0.3237,-1913.82,-1763.85,906.86
2890,-3.8740,0.9247,0.3184,-1820.07,1439.27,1094.36
2900,-3.8740,0.9220,0.3151,-1632.57,751.77,1516.24
2910,-3.8740,0.9171,0.3142,-1976.32,329.90,-1843.14
2920,-3.8740,0.9115,0.3125,1398.68,220.52,-983.76
2930,-3.8740,0.9064,0.3079,679.93,1.77,-30.64
2940,-3.8739,0.9021,0.3022,23.68,-591.98,766.17
2950,-3.8739,0.8979,0.2949,-523.19,-1310.79,1281.80
2960,-3.8739,0.8939,0.2865,-1054.44,1751.71,1453.67
2970,-3.8739,0.8928,0.2797,-1570.07,673.58,1328.67
2980,-3.8739,0.8964,0.2753,-1710.69,-201.42,1047.36
2990,-3.8739,0.9026,0.2725,-1257.57,-763.92,500.49
3000,-3.8740,0.9132,0.2728,-460.69,-1123.29,-390.14
3010,-3.8740,0.9254,0.2773,898.68,-1076.35,-1546.39
3020,-3.8740,0.9330,0.2853,-1538.82,-498.23,1094.24
3030,-3.8741,0.9370,0.2970,-570.07,517.40,-93.20
3040,-3.8741,0.9386,0.3092,-54.44,-1982.60,-765.08
3050,-3.8741,0.9375,0.3176,148.68,-420.04,-874.45
3060,-3.8741,0.9352,0.3247,8.06,658.08,-421.26
3070,-3.8740,0.9283,0.3329,-288.82,1564.27,422.49
3080,-3.8740,0.9156,0.3412,-1163.82,-1388.85,1563.11
3090,-3.8740,0.9012,0.3475,1211.18,-326.35,-905.64
3100,-3.8739,0.8888,0.3511,-632.57,486.08,610.05
3110,-3.8739,0.8796,0.3501,1773.68,939.21,1969.42
3120,-3.8739,0.8767,0.3425,601.81,814.21,-921.20
3130,-3.8739,0.8809,0.3342,226.81,-154.54,-436.89
3140,-3.8739,0.8873,0.3301,758.06,-1217.04,-530.64
3150,-3.8739,0.8914,0.3273,1586.18,-1748.29,-983.76
3160,-3.8739,0.8931,0.3228,-1898.19,1892.33,-1858.76
3170,-3.8739,0.8961,0.3167,-1679.44,1314.21,719.36
3180,-3.8740,0.9044,0.3110,-1288.82,532.96,-983.76
3190,-3.8740,0.9183,0.3060,-226.32,-185.79,1406.80
3200,-3.8740,0.9333,0.2992,1554.93,-826.35,156.80
3210,-3.8741,0.9418,0.2909,-523.19,-1701.35,-718.20
3220,-3.8741,0.9421,0.2859,554.93,1236.21,-1311.95
3230,-3.8741,0.9364,0.2866,601.81,595.58,-1515.08
3240,-3.8741,0.9268,0.2900,-132.57,689.27,-1249.45
3250,-3.8741,0.9193,0.2930,-1366.94,1126.77,-374.45
3260,-3.8740,0.9148,0.2926,1679.93,1501.77,938.05
3270,-3.8740,0.9109,0.2896,1101.81,1454.90,-1811.95
3280,-3.8740,0.9067,0.2882,601.81,1064.27,-843.20
3290,-3.8740,0.9012,0.2893,70.56,892.40,-124.45
3300,-3.8739,0.9008,0.2936,-632.57,1032.96,469.30
3310,-3.8739,0.9045,0.3007,-695.07,1579.83,703.67
3320,-3.8739,0.9037,0.3052,-210.69,-1513.92,250.55
3330,-3.8740,0.9026,0.3081,-320.07,-935.79,-733.83
3340,-3.8740,0.9066,0.3119,-460.69,-560.79,-1983.83
3350,-3.8740,0.9144,0.3152,54.93,-76.35,703.67
3360,-3.8741,0.9254,0.3171,1054.93,345.52,-468.14
3370,-3.8741,0.9326,0.3184,-1538.82,595.52,-1530.64
3380,-3.8741,0.9325,0.3203,-616.94,751.77,1734.99
3390,-3.8741,0.9308,0.3217,-632.57,1001.77,1438.11
3400,-3.8741,0.9323,0.3210,-851.32,1173.65,1422.49
3410,-3.8741,0.9343,0.3201,-663.82,1095.52,1734.99
3420,-3.8741,0.9320,0.3176,-398.19,970.52,-1483.76
3430,-3.8741,0.9240,0.3151,-695.07,658.02,-296.26
3440,-3.8740,0.9127,0.3149,-1726.32,329.90,1016.24
3450,-3.8740,0.9041,0.3149,836.18,314.27,-1577.51
3460,-3.8740,0.9004,0.3124,-273.19,314.21,-186.89
3470,-3.8739,0.8987,0.3086,-741.94,-13.92,797.42
3480,-3.8739,0.8962,0.3063,-960.69,-498.29,1125.55
3490,-3.8739,0.8939,0.3060,-1273.19,-795.17,938.05
3500,-3.8739,0.8948,0.3075,-1570.07,-826.42,188.05
3510,-3.8740,0.9023,0.3080,-1460.69,-638.92,-999.45
3520,-3.8740,0.9159,0.3063,-491.94,-576.42,1531.80
3530,-3.8741,0.9297,0.3030,1242.43,-795.10,-93.20
3540,-3.8741,0.9381,0.2971,-991.94,-1216.98,-1702.58
3550,-3.8741,0.9417,0.2900,86.18,-1966.92,750.55
3560,-3.8743,0.9440,0.2861,539.31,1126.83,-624.45
3570,-3.8743,0.9463,0.2859,836.18,626.83,-1374.45
3580,-3.8743,0.9467,0.2863,1133.06,595.58,-1155.70
3590,-3.8743,0.9442,0.2853,1179.93,642.46,-343.20
3600,-3.8741,0.9376,0.2850,867.43,517.46,750.55
3610,-3.8741,0.9268,0.2872,23.68,486.21,-1999.45
3620,-3.8741,0.9149,0.2919,-1366.94,767.40,-671.33
3630,-3.8740,0.9064,0.2968,1117.43,1361.15,469.30
3640,-3.8740,0.9036,0.3002,23.68,1986.15,1172.42
3650,-3.8740,0.9070,0.3026,-335.69,-1576.42,1438.05
3660,-3.8740,0.9119,0.3030,101.81,-1263.85,1266.17
3670,-3.8740,0.9131,0.3007,726.81,-1216.98,469.30
3680,-3.8741,0.9139,0.2990,883.06,-1513.85,-1061.95
3690,-3.8741,0.9210,0.2998,992.43,-1732.60,1125.55
3700,-3.8743,0.9336,0.2999,1898.68,-1623.23,-515.08
3710,-3.8743,0.9489,0.2981,-491.94,-1607.60,-1999.45
3720,-3.8743,0.9614,0.2975,1461.18,-1841.92,953.67
3730,-3.8743,0.9645,0.2994,-929.44,-1920.04,609.92
3740,-3.8743,0.9580,0.3021,-538.82,-1670.04,1063.05
3750,-3.8743,0.9470,0.3036,-1366.94,-1326.29,-1890.08
3760,-3.8743,0.9351,0.3036,1226.81,-1138.79,-280.70
3770,-3.8741,0.9241,0.3026,-304.44,-1138.85,1813.05
3780,-3.8741,0.9143,0.2993,-1710.69,-1263.85,-46.33
3790,-3.8740,0.9056,0.2939,1039.31,-1685.73,1547.42
3800,-3.8740,0.8995,0.2911,-70.07,1626.71,-1686.95
3810,-3.8740,0.8939,0.2917,-851.32,1267.33,-1655.70
3820,-3.8740,0.8918,0.2922,-1570.07,1345.46,1656.80
3830,-3.8740,0.9004,0.2905,-1835.69,1407.96,125.55
3840,-3.8741,0.9170,0.2892,-741.94,1189.21,1953.67
3850,-3.8743,0.9335,0.2905,1383.06,1017.40,-358.83
3860,-3.8743,0.9469,0.2922,-507.57,1189.27,1391.17
3870,-3.8744,0.9561,0.2920,1211.18,1408.08,-374.45
3880,-3.8744,0.9601,0.2902,-1616.94,1376.83,-1343.20
3890,-3.8744,0.9631,0.2874,-1101.32,1142.46,-1515.08
3900,-3.8744,0.9653,0.2842,-710.69,783.08,-1015.08
3910,-3.8744,0.9630,0.2841,-429.44,376.83,-108.83
3920,-3.8743,0.9531,0.2900,-726.32,361.21,1297.42
3930,-3.8743,0.9360,0.2987,-1991.94,1126.83,-546.33
3940,-3.8741,0.9167,0.3032,-179.44,-1763.85,1859.92
3950,-3.8741,0.9022,0.3019,1351.81,-1185.73,-296.33
3960,-3.8740,0.8982,0.2972,-507.57,-1357.67,828.67
3970,-3.8740,0.9026,0.2938,-1023.19,-1951.42,1328.67
3980,-3.8740,0.9082,0.2938,-460.69,1611.08,1219.30
3990,-3.8740,0.9111,0.2939,258.06,1611.15,266.17
4000,-3.8741,0.9135,0.2905,633.06,1626.77,-1608.83
4010,-3.8741,0.9213,0.2859,929.93,1189.27,47.42
4020,-3.8743,0.9359,0.2847,1929.93,595.52,1703.67
4030,-3.8744,0.9523,0.2877,-195.07,439.27,-186.95
4040,-3.8744,0.9650,0.2898,1898.68,829.96,-1327.58
4050,-3.8744,0.9690,0.2888,-476.32,1095.58,-1890.08
4060,-3.8744,0.9641,0.2887,39.31,970.64,1813.05
4070,-3.8744,0.9548,0.2908,-585.69,954.96,1766.17
4080,-3.8744,0.9473,0.2943,-1773.19,1220.58,-1530.70
4090,-3.8743,0.9424,0.2986,1258.06,1673.71,63.05
4100,-3.8743,0.9377,0.3025,633.06,-1779.42,-1858.83
4110,-3.8741,0.9316,0.3031,39.31,-1279.42,219.30
4120,-3.8741,0.9230,0.2991,-741.94,-1201.35,1828.67
4130,-3.8741,0.9132,0.2937,-1851.32,-1716.98,-1202.58
4140,-3.8741,0.9070,0.2906,898.68,1595.52,-749.45
4150,-3.8741,0.9070,0.2903,101.81,1204.90,-624.45
4160,-3.8741,0.9109,0.2905,101.81,1158.02,-843.20
4170,-3.8741,0.9154,0.2922,601.81,1189.27,-1405.70
4180,-3.8741,0.9203,0.2961,1179.93,1408.02,1750.55
4190,-3.8741,0.9264,0.2992,1804.93,1908.02,734.92
4200,-3.8743,0.9348,0.2983,-1413.82,-1701.35,-483.83
4210,-3.8743,0.9443,0.2947,-335.69,-1810.73,-1780.70
4220,-3.8743,0.9510,0.2915,883.06,1720.58,1203.67
4230,-3.8743,0.9528,0.2904,1742.43,1314.33,531.80
4240,-3.8743,0.9514,0.2925,1961.18,1173.71,234.92
4250,-3.8743,0.9473,0.2964,1789.31,1439.33,531.80
4260,-3.8743,0.9403,0.2986,1258.06,1939.33,1359.92
4270,-3.8743,0.9337,0.2998,367.43,-1779.42,-1561.95
4280,-3.8743,0.9282,0.3011,-476.32,-1623.23,-327.58
4290,-3.8741,0.9215,0.3016,-1179.44,-1451.35,922.42
4300,-3.8741,0.9147,0.3000,1961.18,-1388.85,1875.55
4310,-3.8741,0.9109,0.2971,1086.18,-1591.98,-1655.70
4320,-3.8741,0.9131,0.2961,601.81,-1966.98,-1655.70
4330,-3.8741,0.9207,0.2979,883.06,1908.02,1984.92
4340,-3.8741,0.9276,0.2988,1851.81,-1873.23,1391.17
4350,-3.8741,0.9307,0.2966,-1257.57,-1748.23,516.17
4360,-3.8743,0.9335,0.2920,-866.94,1970.52,-468.20
4370,-3.8743,0.9384,0.2887,-507.57,1376.77,-1343.20
4380,-3.8743,0.9426,0.2904,117.43,954.96,-1952.58
4390,-3.8743,0.9432,0.2949,664.31,1173.71,1797.42
4400,-3.8743,0.9401,0.2970,742.43,1751.83,-1999.45
4410,-3.8743,0.9347,0.2968,336.18,-1982.54,-1452.58
4420,-3.8743,0.9294,0.2969,-351.32,1986.15,-858.83
4430,-3.8743,0.9260,0.2983,-1023.19,-1998.23,-61.95
4440,-3.8741,0.9240,0.3011,-1460.69,-1810.73,844.30
4450,-3.8741,0.9214,0.3037,-1726.32,-1451.35,1594.30
4460,-3.8741,0.9180,0.3029,1945.56,-1123.23,-1921.33
4470,-3.8741,0.9169,0.2976,1508.06,-1232.60,-1968.20
4480,-3.8741,0.9198,0.2921,1367.43,-1904.48,1547.42
4490,-3.8741,0.9247,0.2921,1742.43,1392.40,906.80
4500,-3.8741,0.9296,0.2974,-1632.57,1392.40,344.30
4510,-3.8743,0.9324,0.3014,-1007.57,-1935.73,-15.08
4520,-3.8743,0.9326,0.3005,-648.19,-1420.10,-327.58
4530,-3.8743,0.9333,0.2971,-616.94,-1529.48,-749.45
4540,-3.8743,0.9352,0.2948,-523.19,-1966.98,-1124.45
4550,-3.8743,0.9370,0.2947,-288.82,1736.15,-1311.95
4560,-3.8743,0.9371,0.2950,-54.44,1720.52,-1358.83
4570,-3.8743,0.9341,0.2961,-38.82,1767.40,-1265.08
4580,-3.8743,0.9319,0.2992,-429.44,1908.02,-1030.70
4590,-3.8743,0.9318,0.3007,-710.69,-1701.35,-749.45
4600,-3.8743,0.9309,0.2982,-726.32,-1513.85,-515.08
4610,-3.8743,0.9286,0.2963,-835.69,-1826.35,-390.08
4620,-3.8743,0.9258,0.2997,-1132.57,1923.65,-108.83
4630,-3.8741,0.9246,0.3037,-1491.94,-1638.85,406.80
4640,-3.8741,0.9237,0.3024,-1648.19,-1123.23,859.92
4650,-3.8741,0.9226,0.2966,-1757.57,-1295.10,938.05
4660,-3.8741,0.9230,0.2902,-1898.19,1970.52,516.17
4670,-3.8743,0.9260,0.2888,-1851.32,1142.40,-140.08
4680,-3.8743,0.9310,0.2950,-1460.69,970.52,-468.20
4690,-3.8743,0.9347,0.3016,-820.07,1767.40,-421.33
4700,-3.8743,0.9348,0.3021,-351.32,-1388.85,-374.45
4710,-3.8743,0.9315,0.2969,-335.69,-1326.35,-577.58
4720,-3.8743,0.9286,0.2920,-757.57,-1998.23,-999.45
4730,-3.8743,0.9301,0.2924,-1132.57,1376.77,-1233.83
4740,-3.8743,0.9355,0.2979,-945.07,1423.65,-1015.08
4750,-3.8743,0.9380,0.3059,-241.94,-1873.23,-515.08
4760,-3.8741,0.9335,0.3118,70.56,-841.92,0.55
4770,-3.8741,0.9259,0.3099,-507.57,-91.98,266.17
4780,-3.8741,0.9207,0.3010,-1476.32,-326.35,250.55
4790,-3.8741,0.9211,0.2920,1851.81,-1466.98,141.17
4800,-3.8741,0.9259,0.2885,1914.31,1376.77,16.17
4810,-3.8743,0.9304,0.2914,-1476.32,923.65,-61.95
4820,-3.8741,0.9310,0.2958,-898.19,1298.65,63.05
4830,-3.8741,0.9286,0.2961,-820.07,1861.15,281.80
4840,-3.8741,0.9266,0.2942,-1132.57,1908.02,250.55
4850,-3.8743,0.9272,0.2926,-1382.57,1658.02,-77.58
4860,-3.8743,0.9298,0.2920,-1304.44,1454.90,-530.70
4870,-3.8743,0.9330,0.2943,-976.32,1376.77,-983.83
4880,-3.8743,0.9364,0.2997,-570.07,1673.65,-1405.70
4890,-3.8743,0.9380,0.3043,-132.57,-1638.85,-1686.95
4900,-3.8743,0.9371,0.3040,70.56,-1045.04,-1874.45
4910,-3.8743,0.9354,0.2997,-38.82,-1091.98,1875.55
4920,-3.8743,0.9352,0.2960,-257.57,-1638.85,1656.80
4930,-3.8743,0.9362,0.2949,-288.82,1892.40,1609.92
4940,-3.8743,0.9352,0.2961,-163.82,1751.77,-1999.45
4950,-3.8743,0.9318,0.2970,-288.82,1908.02,-1327.58
4960,-3.8743,0.9285,0.2968,-726.32,-1982.60,-780.70
4970,-3.8743,0.9257,0.2955,-1148.19,1986.15,-577.58
4980,-3.8743,0.9242,0.2924,-1507.57,1829.90,-640.08
4990,-3.8743,0.9275,0.2905,-1695.07,1423.65,-983.83
5000,-3.8743,0.9341,0.2936,-1273.19,1189.27,-1515.08
5010,-3.8743,0.9386,0.2981,-429.44,1579.90,-1874.45
5020,-3.8743,0.9391,0.2966,148.68,-1841.92,1844.30
5030,-3.8743,0.9380,0.2883,211.18,1970.58,1328.67
5040,-3.8743,0.9386,0.2816,70.56,908.08,641.17
5050,-3.8744,0.9430,0.2832,148.68,48.71,-15.08
5060,-3.8744,0.9490,0.2910,711.18,251.83,-124.45
5070,-3.8743,0.9495,0.2966,1476.81,1251.83,297.42
5080,-3.8743,0.9415,0.2966,1539.31,1970.58,750.55
5090,-3.8743,0.9324,0.2955,523.68,1970.58,953.67
5100,-3.8743,0.9290,0.2961,-648.19,1829.90,1188.05
5110,-3.8743,0.9304,0.2977,-1085.69,1908.02,1844.30
5120,-3.8743,0.9312,0.2976,-898.19,-1888.85,-1405.70
5130,-3.8743,0.9290,0.2969,-804.44,-1904.48,-999.45
5140,-3.8743,0.9274,0.2980,-1085.69,-1998.23,-1030.70
5150,-3.8743,0.9281,0.2998,-1288.82,-1857.60,-1093.20
5160,-3.8743,0.9291,0.2981,-1195.07,-1623.23,-1046.33
5170,-3.8743,0.9296,0.2932,-1070.07,-1841.98,-1218.20
5180,-3.8743,0.9320,0.2922,-1007.57,1533.02,-1702.58
5190,-3.8743,0.9366,0.2968,-695.07,1408.02,1813.05
5200,-3.8743,0.9399,0.3004,-101.32,1986.15,1500.55
5210,-3.8743,0.9396,0.2990,320.56,-1545.04,1109.92
5220,-3.8743,0.9373,0.2941,273.68,-1732.54,719.30
5230,-3.8743,0.9370,0.2924,-23.19,1642.40,641.17
5240,-3.8743,0.9401,0.2954,-54.44,1423.65,1000.55
5250,-3.8743,0.9408,0.2969,336.18,1814.33,1578.67
5260,-3.8743,0.9354,0.2954,429.93,-1998.17,-1999.45
5270,-3.8743,0.9294,0.2935,-257.57,1814.27,-1780.70
5280,-3.8743,0.9288,0.2920,-1023.19,1564.27,-1733.83
5290,-3.8743,0.9312,0.2919,-1101.32,1376.77,-1905.70
5300,-3.8743,0.9329,0.2931,-804.44,1361.15,1938.05
5310,-3.8743,0.9330,0.2957,-585.69,1517.40,-1983.83
5320,-3.8743,0.9324,0.2996,-570.07,1845.52,-1827.58
5330,-3.8743,0.9331,0.3025,-648.19,-1654.48,-1765.08
5340,-3.8743,0.9343,0.3030,-554.44,-1279.48,-1702.58
5350,-3.8743,0.9359,0.3009,-398.19,-1216.98,-1718.20
5360,-3.8743,0.9374,0.2969,-195.07,-1482.60,-1921.33
5370,-3.8743,0.9366,0.2938,-7.57,-1998.23,1844.30
5380,-3.8743,0.9346,0.2938,-101.32,1611.15,1750.55
5390,-3.8743,0.9325,0.2966,-366.94,1611.15,1938.05
5400,-3.8743,0.9308,0.3009,-632.57,1970.52,-1671.33
5410,-3.8743,0.9299,0.3042,-851.32,-1482.60,-1311.95
5420,-3.8743,0.9290,0.3047,-960.69,-1060.73,-983.83
5430,-3.8743,0.9271,0.3027,-1085.69,-998.23,-686.95
5440,-3.8743,0.9260,0.3010,-1320.07,-1248.23,-515.08
5450,-3.8743,0.9269,0.2996,-1460.69,-1466.98,-561.95
5460,-3.8743,0.9297,0.2986,-1351.32,-1654.48,-749.45
5470,-3.8743,0.9315,0.2983,-991.94,-1779.48,-890.08
5480,-3.8743,0.9312,0.2982,-757.57,-1810.73,-1061.95
5490,-3.8743,0.9321,0.2986,-804.44,-1826.35,-1421.33
5500,-3.8743,0.9341,0.3021,-679.44,-1779.48,-1640.08
5510,-3.8743,0.9347,0.3071,-429.44,-1326.35,-1561.95
5520,-3.8743,0.9303,0.3069,-351.32,-685.73,-1390.08
5530,-3.8743,0.9255,0.3019,-913.82,-716.98,-1280.70
5540,-3.8743,0.9276,0.2976,-1523.19,-1357.60,-1327.58
5550,-3.8743,0.9333,0.2971,-1257.57,-1904.48,-1421.33
5560,-3.8743,0.9373,0.2987,-523.19,-1966.98,-1311.95
5570,-3.8743,0.9346,0.3007,-23.19,-1763.85,-1077.58
5580,-3.8743,0.9265,0.3016,-366.94,-1513.85,-968.20
5590,-3.8743,0.9208,0.3011,-1398.19,-1388.85,-968.20
5600,-3.8743,0.9230,0.3003,1867.43,-1451.35,-999.45
5610,-3.8743,0.9297,0.2997,-1851.32,-1560.73,-1015.08
5620,-3.8743,0.9337,0.2988,-991.94,-1638.85,-1155.70
5630,-3.8743,0.9340,0.2993,-476.32,-1748.23,-1452.58
5640,-3.8743,0.9342,0.3022,-445.07,-1685.73,-1702.58
5650,-3.8743,0.9357,0.3055,-413.82,-1310.73,-1655.70
5660,-3.8743,0.9352,0.3054,-226.32,-888.85,-1452.58
5670,-3.8743,0.9331,0.3031,-288.82,-904.48,-1249.45
5680,-3.8743,0.9298,0.3013,-554.44,-1201.35,-1140.08
5690,-3.8743,0.9272,0.3025,-976.32,-1435.73,-1108.83
5700,-3.8743,0.9229,0.3047,-1304.44,-1279.48,-827.58
5710,-3.8743,0.9279,0.3059,-1866.94,-998.23,-671.33
5720,-3.8743,0.9321,0.3019,-1226.32,-841.98,-671.33
5730,-3.8743,0.9299,0.2931,-679.44,-1357.60,-1061.95
5740,-3.8743,0.9260,0.2871,-960.69,1517.40,-1515.08
5750,-3.8743,0.9255,0.2887,-1460.69,751.77,-1671.33
5760,-3.8743,0.9386,0.2987,-1523.19,954.90,-1265.08
5770,-3.8743,0.9396,0.3047,148.68,-1763.79,-827.58
5780,-3.8743,0.9292,0.3033,273.68,-998.17,-1015.08
5790,-3.8743,0.9211,0.3030,-1054.44,-1170.10,-1452.58
5800,-3.8743,0.9241,0.3033,1914.31,-1216.98,1875.55
5810,-3.8743,0.9397,0.3037,-1710.69,-1170.10,1563.05
5820,-3.8743,0.9496,0.3011,289.31,-1123.17,1469.30
5830,-3.8743,0.9421,0.2953,1554.93,-1451.29,1266.17
5840,-3.8743,0.9291,0.2911,601.81,1798.71,1234.92
5850,-3.8743,0.9265,0.2921,-1070.07,1267.40,1609.92
5860,-3.8743,0.9321,0.2964,-1398.19,1392.40,-1858.83
5870,-3.8743,0.9349,0.3004,-679.44,1939.27,-1374.45
5880,-3.8743,0.9294,0.3032,-320.07,-1545.10,-1015.08
5890,-3.8743,0.9232,0.3057,-1023.19,-1185.73,-921.33
5900,-3.8743,0.9232,0.3055,-1820.07,-873.23,-890.08
5910,-3.8743,0.9274,0.3011,-1820.07,-888.85,-999.45
5920,-3.8743,0.9321,0.2958,-1288.82,-1451.35,-1436.95
5930,-3.8743,0.9337,0.2919,-679.44,1861.15,1953.67
5940,-3.8743,0.9364,0.2904,-476.32,1361.15,1453.67
5950,-3.8743,0.9391,0.2908,-132.57,1173.65,1125.55
5960,-3.8743,0.9380,0.2924,211.18,1220.58,797.42
5970,-3.8743,0.9365,0.2976,70.56,1423.71,547.42
5980,-3.8743,0.9362,0.3032,-116.94,-1904.48,500.55
5990,-3.8743,0.9397,0.3043,-163.82,-1185.73,688.05
6000,-3.8743,0.9436,0.3016,289.31,-1045.04,1031.80
6010,-3.8743,0.9415,0.2979,789.31,-1388.79,1531.80
6020,-3.8743,0.9341,0.2943,523.68,-1873.17,-1843.20
6030,-3.8743,0.9261,0.2921,-429.44,1673.65,-1327.58
6040,-3.8743,0.9252,0.2925,-1445.07,1392.40,-936.95
6050,-3.8743,0.9270,0.2948,-1570.07,1439.27,-733.83
6060,-3.8743,0.9249,0.2972,-1335.69,1736.15,-811.95
6070,-3.8743,0.9231,0.2997,-1601.32,-1951.35,-1124.45
6080,-3.8743,0.9253,0.2999,-1835.69,-1638.85,-1733.83
6090,-3.8743,0.9324,0.2975,-1554.44,-1607.60,1484.92
6100,-3.8743,0.9409,0.2954,-648.19,-1920.10,641.17
6110,-3.8744,0.9474,0.2943,445.56,1814.33,-155.70
6120,-3.8744,0.9509,0.2943,1273.68,1673.71,-624.45
6130,-3.8744,0.9497,0.2958,1726.81,1673.71,-702.58
6140,-3.8744,0.9459,0.2987,1570.56,1861.21,-374.45
6150,-3.8743,0.9417,0.3015,1086.18,-1763.79,391.17
6160,-3.8743,0.9353,0.3020,539.31,-1404.42,1469.30
6170,-3.8743,0.9282,0.3002,-273.19,-1341.98,-1530.70
6180,-3.8743,0.9233,0.2974,-1179.44,-1576.35,-718.20
6190,-3.8743,0.9220,0.2960,-1804.44,-1935.73,-108.83
6200,-3.8741,0.9218,0.2964,-1976.32,1892.40,344.30
6210,-3.8741,0.9197,0.2979,1992.43,1939.27,531.80
6220,-3.8741,0.9188,0.3002,1726.81,-1873.23,203.67
6230,-3.8743,0.9229,0.3011,1617.43,-1576.35,-561.95
6240,-3.8743,0.9309,0.2997,-1866.94,-1451.35,-1561.95
6250,-3.8743,0.9404,0.2988,-835.69,-1638.85,1234.92
6260,-3.8743,0.9474,0.2980,383.06,-1748.17,63.05
6270,-3.8744,0.9510,0.2950,1273.68,-1857.54,-843.20
6280,-3.8744,0.9509,0.2916,1742.43,1767.46,-1343.20
6290,-3.8744,0.9474,0.2904,1726.81,1329.96,-1358.83
6300,-3.8744,0.9442,0.2926,1273.68,1173.71,-905.70
6310,-3.8744,0.9403,0.2974,867.43,1454.96,-46.33
6320,-3.8743,0.9335,0.3015,367.43,-1935.67,1109.92
6330,-3.8743,0.9269,0.3031,-507.57,-1404.48,-1530.70
6340,-3.8743,0.9224,0.3022,-1351.32,-1201.35,-358.83
6350,-3.8741,0.9199,0.3009,-1929.44,-1310.73,297.42
6360,-3.8741,0.9193,0.3004,1758.06,-1482.60,594.30
6370,-3.8741,0.9207,0.2998,1679.93,-1545.10,547.42
6380,-3.8741,0.9236,0.2988,1851.81,-1623.23,94.30
6390,-3.8743,0.9283,0.2997,-1773.19,-1748.23,-686.95
6400,-3.8743,0.9353,0.3018,-1163.82,-1638.85,-1686.95
6410,-3.8743,0.9407,0.3019,-273.19,-1373.23,1328.67
6420,-3.8743,0.9430,0.2983,414.31,-1357.54,609.92
6430,-3.8743,0.9440,0.2946,711.18,-1810.67,328.67
6440,-3.8743,0.9448,0.2941,836.18,1704.96,266.17
6450,-3.8743,0.9436,0.2961,945.56,1642.46,500.55
6460,-3.8743,0.9384,0.2987,789.31,1908.08,1063.05
6470,-3.8743,0.9325,0.3005,117.43,-1763.79,1766.17
6480,-3.8743,0.9286,0.3021,-632.57,-1529.48,-1452.58
6490,-3.8743,0.9253,0.3031,-1132.57,-1326.35,-811.95
6500,-3.8743,0.9220,0.3027,-1554.44,-1201.35,-374.45
6510,-3.8743,0.9193,0.3021,-1976.32,-1248.23,-140.08
6520,-3.8743,0.9199,0.3027,1679.93,-1326.35,-140.08
6530,-3.8743,0.9282,0.3037,1758.06,-1248.23,-218.20
6540,-3.8743,0.9341,0.3009,-1179.44,-1123.23,-452.58
6550,-3.8743,0.9287,0.2944,-429.44,-1482.60,-1093.20
6560,-3.8743,0.9268,0.2932,-1116.94,1689.27,-1936.95
6570,-3.8743,0.9362,0.2993,-1366.94,1533.02,1578.67
6580,-3.8743,0.9446,0.3043,-163.82,-1685.73,1594.30
6590,-3.8743,0.9434,0.3040,914.31,-1045.04,1719.30
6600,-3.8743,0.9366,0.3004,758.06,-1091.92,1703.67
6610,-3.8743,0.9299,0.2961,-101.32,-1545.10,1766.17
6620,-3.8743,0.9283,0.2948,-960.69,1908.02,-1952.58
6630,-3.8743,0.9309,0.2987,-1163.82,1736.15,-1358.83
6640,-3.8743,0.9319,0.3048,-835.69,-1763.85,-530.70
6650,-3.8741,0.9264,0.3077,-710.69,-982.60,188.05
6660,-3.8741,0.9169,0.3046,-1413.82,-607.60,563.05
6670,-3.8741,0.9143,0.2996,1367.43,-1013.85,422.42
6680,-3.8741,0.9231,0.2987,1039.31,-1654.48,109.92
6690,-3.8743,0.9324,0.3007,-1835.69,-1763.85,-155.70
6700,-3.8743,0.9324,0.3015,-648.19,-1513.85,-561.95
6710,-3.8743,0.9280,0.3009,-648.19,-1404.48,-1233.83
6720,-3.8743,0.9303,0.3000,-1210.69,-1482.60,1906.80
6730,-3.8743,0.9396,0.2990,-913.82,-1591.98,1266.17
6740,-3.8743,0.9465,0.2961,273.68,-1732.54,906.80
6750,-3.8743,0.9457,0.2937,1164.31,1908.08,656.80
6760,-3.8743,0.9396,0.2948,1054.93,1595.58,547.42
6770,-3.8743,0.9347,0.2981,273.68,1736.21,875.55
6780,-3.8743,0.9340,0.3004,-351.32,-1841.98,1703.67
6790,-3.8743,0.9330,0.3020,-445.07,-1545.10,-1483.83
6800,-3.8743,0.9280,0.3042,-570.07,-1341.98,-702.58
6810,-3.8741,0.9215,0.3053,-1210.69,-1060.73,78.67
6820,-3.8741,0.9188,0.3048,1961.18,-920.10,578.67
6830,-3.8741,0.9205,0.3046,1617.43,-982.60,875.55
6840,-3.8741,0.9230,0.3043,1836.18,-1013.85,1000.55
6850,-3.8741,0.9226,0.3042,-1851.32,-1045.10,906.80
6860,-3.8741,0.9208,0.3041,-1898.19,-1060.73,625.55
6870,-3.8741,0.9224,0.3026,1867.43,-1076.35,234.92
6880,-3.8743,0.9271,0.2996,-1929.44,-1263.85,-249.45
6890,-3.8743,0.9321,0.2968,-1320.07,-1654.48,-921.33
6900,-3.8743,0.9359,0.2964,-679.44,1986.15,-1749.45
6910,-3.8743,0.9382,0.2974,-195.07,1939.27,1734.92
6920,-3.8743,0.9396,0.2968,101.81,-1935.67,1453.67
6930,-3.8743,0.9409,0.2946,273.68,1986.21,1109.92
6940,-3.8743,0.9415,0.2937,445.56,1704.96,938.05
6950,-3.8743,0.9408,0.2953,523.68,1595.58,953.67
6960,-3.8743,0.9384,0.2974,429.93,1798.71,1125.55
6970,-3.8743,0.9360,0.2998,117.43,-1935.67,1438.05
6980,-3.8743,0.9347,0.3029,-179.44,-1623.23,-1983.83
6990,-3.8743,0.9307,0.3042,-351.32,-1232.60,-1124.45
7000,-3.8743,0.9260,0.3035,-866.94,-1060.73,-311.95
7010,-3.8741,0.9238,0.3019,-1460.69,-1154.48,188.05
7020,-3.8741,0.9218,0.3010,-1741.94,-1357.60,438.05
7030,-3.8741,0.9196,0.3016,1992.43,-1466.98,609.92
7040,-3.8741,0.9191,0.3015,1711.18,-1388.85,578.67
7050,-3.8741,0.9213,0.2999,1648.68,-1404.48,203.67
7060,-3.8743,0.9270,0.2987,1929.93,-1607.60,-483.83
7070,-3.8743,0.9335,0.2988,-1335.69,-1763.85,-1140.08
7080,-3.8743,0.9370,0.2994,-507.57,-1748.23,-1608.83
7090,-3.8743,0.9380,0.2988,-54.44,-1670.10,1922.42
7100,-3.8743,0.9380,0.2963,70.56,-1748.17,1531.80
7110,-3.8743,0.9379,0.2948,70.56,1923.71,1297.42
7120,-3.8743,0.9379,0.2970,54.93,1736.21,1313.05
7130,-3.8743,0.9373,0.3004,54.93,-1982.54,1625.55
7140,-3.8743,0.9340,0.3021,-23.19,-1545.10,-1874.45
7150,-3.8743,0.9292,0.3024,-445.07,-1326.35,-1358.83
7160,-3.8743,0.9265,0.3016,-1054.44,-1295.10,-874.45
7170,-3.8743,0.9261,0.3007,-1398.19,-1388.85,-358.83
7180,-3.8741,0.9253,0.3016,-1445.07,-1513.85,156.80
7190,-3.8741,0.9237,0.3030,-1554.44,-1388.85,484.92
7200,-3.8741,0.9227,0.3016,-1757.57,-1216.98,500.55
7210,-3.8741,0.9231,0.2998,-1882.57,-1388.85,281.80
7220,-3.8743,0.9265,0.3011,-1835.69,-1623.23,-77.58
7230,-3.8743,0.9315,0.3036,-1398.19,-1451.35,-358.83
7240,-3.8743,0.9329,0.3033,-757.57,-1138.85,-530.70
7250,-3.8743,0.9318,0.3011,-585.69,-1170.10,-843.20
7260,-3.8743,0.9308,0.2986,-726.32,-1451.35,-1233.83
7270,-3.8743,0.9320,0.2969,-851.32,-1779.48,-1358.83
7280,-3.8743,0.9348,0.2971,-695.07,-1998.23,-1296.33
7290,-3.8743,0.9365,0.2993,-335.69,-1966.98,-1233.83
7300,-3.8743,0.9358,0.3018,-116.94,-1685.73,-1171.33
7310,-3.8743,0.9310,0.3016,-210.69,-1373.23,-1124.45
7320,-3.8743,0.9263,0.3014,-820.07,-1388.85,-1108.83
7330,-3.8743,0.9263,0.3022,-1429.44,-1420.10,-936.95
7340,-3.8743,0.9286,0.3021,-1429.44,-1310.73,-671.33
7350,-3.8743,0.9315,0.3009,-1132.57,-1326.35,-561.95
7360,-3.8743,0.9330,0.3005,-757.57,-1482.60,-671.33
7370,-3.8743,0.9309,0.3005,-570.07,-1529.48,-796.33
7380,-3.8743,0.9287,0.3004,-835.69,-1529.48,-952.58
7390,-3.8743,0.9288,0.2996,-1116.94,-1545.10,-1046.33
7400,-3.8743,0.9299,0.2979,-1101.32,-1654.48,-999.45
7410,-3.8743,0.9304,0.2966,-960.69,-1873.23,-1093.20
7420,-3.8743,0.9316,0.2970,-898.19,1970.52,-1265.08
7430,-3.8743,0.9337,0.3004,-741.94,-1982.60,-1233.83
7440,-3.8743,0.9348,0.3057,-476.32,-1545.10,-1030.70
7450,-3.8743,0.9330,0.3070,-335.69,-873.23,-936.95
7460,-3.8743,0.9298,0.3035,-570.07,-701.35,-921.33
7470,-3.8743,0.9292,0.2991,-976.32,-1154.48,-983.83
7480,-3.8743,0.9313,0.2961,-1054.44,-1716.98,-1124.45
7490,-3.8743,0.9332,0.2959,-788.82,1908.02,-1296.33
7500,-3.8743,0.9324,0.2981,-538.82,1876.77,-1327.58
7510,-3.8743,0.9298,0.3004,-648.19,-1841.98,-1171.33
7520,-3.8743,0.9283,0.3010,-976.32,-1545.10,-952.58
7530,-3.8743,0.9290,0.3009,-1163.82,-1466.98,-702.58
7540,-3.8743,0.9301,0.3014,-1085.69,-1482.60,-421.33
7550,-3.8743,0.9290,0.3024,-945.07,-1420.10,-343.20
7560,-3.8743,0.9265,0.3037,-1085.69,-1295.10,-452.58
7570,-3.8743,0.9263,0.3065,-1398.19,-1123.23,-468.20
7580,-3.8743,0.9274,0.3099,-1429.44,-763.85,-296.33
7590,-3.8743,0.9272,0.3097,-1288.82,-326.35,-124.45
7600,-3.8743,0.9282,0.3044,-1304.44,-357.60,-77.58
7610,-3.8743,0.9292,0.2992,-1179.44,-1029.48,-218.20
7620,-3.8743,0.9294,0.2982,-1054.44,-1701.35,-515.08
7630,-3.8743,0.9308,0.3009,-1023.19,-1826.35,-780.70
7640,-3.8743,0.9316,0.3047,-851.32,-1482.60,-843.20
7650,-3.8743,0.9310,0.3064,-741.94,-998.23,-655.70
7660,-3.8743,0.9298,0.3055,-820.07,-779.48,-499.45
7670,-3.8743,0.9304,0.3044,-976.32,-888.85,-390.08
7680,-3.8743,0.9283,0.3016,-898.19,-1029.48,-296.33
7690,-3.8743,0.9252,0.3002,-1163.82,-1388.85,-233.83
7700,-3.8743,0.9285,0.3059,-1570.07,-1576.35,-186.95
7710,-3.8741,0.9309,0.3113,-1148.19,-841.98,63.05
7720,-3.8741,0.9259,0.3090,-835.69,-154.48,609.92
7730,-3.8741,0.9204,0.3035,-1476.32,-451.35,906.80
7740,-3.8741,0.9216,0.3015,1820.56,-1154.48,859.92
7750,-3.8741,0.9254,0.3051,1976.81,-1404.48,1063.05
7760,-3.8741,0.9249,0.3079,-1538.82,-951.35,1375.55
7770,-3.8741,0.9235,0.3080,-1601.32,-591.98,1594.30
7780,-3.8741,0.9230,0.3062,-1788.82,-576.35,1578.67
7790,-3.8741,0.9237,0.3038,-1851.32,-810.73,1203.67
7800,-3.8741,0.9261,0.3031,-1757.57,-1107.60,734.92
7810,-3.8741,0.9269,0.3046,-1445.07,-1201.35,391.17
7820,-3.8741,0.9277,0.3091,-1351.32,-1013.85,188.05
7830,-3.8741,0.9303,0.3138,-1241.94,-435.73,266.17
7840,-3.8741,0.9308,0.3129,-913.82,173.65,484.99
7850,-3.8741,0.9264,0.3069,-851.32,48.65,578.74
7860,-3.8741,0.9215,0.3032,-1413.82,-716.98,625.55
7870,-3.8741,0.9189,0.3041,1961.18,-1185.73,797.42
7880,-3.8741,0.9158,0.3057,1633.06,-1076.35,1094.30
7890,-3.8741,0.9139,0.3065,1226.81,-873.23,1469.30
7900,-3.8741,0.9198,0.3081,992.43,-763.85,1750.55
7910,-3.8741,0.9276,0.3070,1742.43,-560.73,1828.67
7920,-3.8741,0.9285,0.3033,-1257.57,-701.35,1656.80
7930,-3.8741,0.9263,0.3032,-1148.19,-1170.10,1156.80
7940,-3.8741,0.9263,0.3054,-1429.44,-1185.73,578.67
7950,-3.8741,0.9290,0.3070,-1429.44,-904.48,125.55
7960,-3.8743,0.9305,0.3092,-1085.69,-701.35,-108.83
7970,-3.8743,0.9293,0.3093,-882.57,-420.10,-155.70
7980,-3.8743,0.9293,0.3070,-1038.82,-404.48,-171.33
7990,-3.8743,0.9313,0.3057,-1038.82,-701.35,-108.83
8000,-3.8743,0.9304,0.3053,-788.82,-873.23,-46.33
8010,-3.8741,0.9264,0.3047,-898.19,-920.10,172.42
8020,-3.8741,0.9232,0.3043,-1413.82,-998.23,578.67
8030,-3.8741,0.9213,0.3055,-1820.07,-1045.10,906.80
8040,-3.8741,0.9200,0.3080,1929.93,-888.85,1156.80
8050,-3.8741,0.9192,0.3080,1773.68,-576.35,1281.80
8060,-3.8741,0.9198,0.3053,1664.31,-576.35,1281.80
8070,-3.8741,0.9229,0.3033,1742.43,-920.10,1188.05
8080,-3.8741,0.9263,0.3030,-1866.94,-1170.10,953.67
8090,-3.8741,0.9282,0.3037,-1429.44,-1216.98,578.67
8100,-3.8741,0.9301,0.3054,-1179.44,-1123.23,172.42
8110,-3.8743,0.9316,0.3066,-945.07,-904.48,-202.58
8120,-3.8743,0.9335,0.3047,-741.94,-748.23,-343.20
8130,-3.8743,0.9340,0.3025,-507.57,-998.23,-358.83
8140,-3.8743,0.9325,0.3021,-445.07,-1279.48,-421.33
8150,-3.8743,0.9309,0.3025,-632.57,-1326.35,-421.33
8160,-3.8743,0.9283,0.3032,-835.69,-1279.48,-202.58
8170,-3.8741,0.9254,0.3046,-1163.82,-1185.73,156.80
8180,-3.8741,0.9241,0.3053,-1538.82,-1013.85,500.55
8190,-3.8741,0.9241,0.3044,-1710.69,-920.10,859.92
8200,-3.8741,0.9244,0.3040,-1710.69,-1029.48,1141.17
8210,-3.8741,0.9233,0.3053,-1663.82,-1091.98,1219.30
8220,-3.8741,0.9213,0.3065,-1804.44,-920.10,1188.05
8230,-3.8741,0.9214,0.3066,1929.93,-763.85,1047.42
8240,-3.8741,0.9246,0.3060,1945.56,-748.23,813.05
8250,-3.8741,0.9288,0.3044,-1648.19,-826.35,453.67
8260,-3.8743,0.9310,0.3030,-1101.32,-1029.48,-46.33
8270,-3.8743,0.9315,0.3036,-820.07,-1216.98,-436.95
8280,-3.8743,0.9312,0.3047,-757.57,-1138.85,-608.83
8290,-3.8743,0.9302,0.3048,-804.44,-998.23,-702.58
8300,-3.8743,0.9297,0.3041,-929.44,-982.60,-624.45
8310,-3.8743,0.9292,0.3029,-991.94,-1076.35,-405.70
8320,-3.8743,0.9285,0.3018,-1054.44,-1232.60,-155.70
8330,-3.8741,0.9271,0.3015,-1148.19,-1373.23,219.30
8340,-3.8741,0.9250,0.3040,-1320.07,-1404.48,672.42
8350,-3.8741,0.9225,0.3077,-1585.69,-1091.98,1094.30
8360,-3.8741,0.9202,0.3079,-1913.82,-607.60,1406.80
8370,-3.8741,0.9203,0.3049,1789.31,-591.98,1391.17
8380,-3.8741,0.9225,0.3032,1804.93,-966.98,1109.92
8390,-3.8741,0.9261,0.3033,-1913.82,-1185.73,734.92
8400,-3.8741,0.9299,0.3040,-1445.07,-1170.10,313.05
8410,-3.8743,0.9320,0.3044,-960.69,-1091.98,-140.08
8420,-3.8743,0.9316,0.3029,-695.07,-1029.48,-499.45
8430,-3.8743,0.9304,0.2998,-741.94,-1232.60,-780.70
8440,-3.8743,0.9302,0.2998,-898.19,-1623.23,-890.08
8450,-3.8743,0.9310,0.3031,-929.44,-1623.23,-671.33
8460,-3.8743,0.9310,0.3051,-820.07,-1201.35,-374.45
8470,-3.8743,0.9294,0.3043,-820.07,-951.35,-77.58
8480,-3.8741,0.9269,0.3041,-1023.19,-1045.10,203.67
8490,-3.8741,0.9246,0.3047,-1351.32,-1076.35,578.67
8500,-3.8741,0.9242,0.3046,-1648.19,-998.23,969.30
8510,-3.8741,0.9252,0.3031,-1695.07,-1013.85,969.30
8520,-3.8741,0.9250,0.3016,-1570.07,-1201.35,656.80
8530,-3.8741,0.9254,0.3010,-1585.69,-1388.85,375.55
8540,-3.8741,0.9274,0.3016,-1538.82,-1466.98,188.05
8550,-3.8741,0.9293,0.3038,-1288.82,-1388.85,109.92
8560,-3.8741,0.9296,0.3062,-1038.82,-1107.60,125.55
8570,-3.8741,0.9283,0.3057,-1007.57,-810.73,219.30
8580,-3.8741,0.9264,0.3035,-1163.82,-873.23,266.17
8590,-3.8741,0.9247,0.3021,-1413.82,-1154.48,188.05
8600,-3.8741,0.9244,0.3031,-1632.57,-1326.35,125.55
8610,-3.8741,0.9263,0.3051,-1663.82,-1201.35,203.67
8620,-3.8741,0.9280,0.3055,-1429.44,-951.35,313.05
8630,-3.8741,0.9271,0.3043,-1210.69,-888.85,250.55
8640,-3.8743,0.9250,0.3027,-1320.07,-1045.10,-15.08
8650,-3.8743,0.9259,0.3018,-1585.69,-1248.23,-155.70
8660,-3.8743,0.9292,0.3016,-1476.32,-1373.23,-186.95
8670,-3.8743,0.9309,0.3026,-1054.44,-1388.85,-108.83
8680,-3.8743,0.9307,0.3047,-835.69,-1263.85,-46.33
8690,-3.8743,0.9292,0.3052,-866.94,-998.23,-30.70
8700,-3.8741,0.9276,0.3041,-1054.44,-935.73,47.42
8710,-3.8741,0.9277,0.3033,-1257.57,-1076.35,109.92
8720,-3.8741,0.9283,0.3033,-1241.94,-1170.10,203.67
8730,-3.8741,0.9280,0.3035,-1163.82,-1170.10,344.30
8740,-3.8741,0.9263,0.3036,-1210.69,-1154.48,484.92
8750,-3.8741,0.9241,0.3033,-1429.44,-1138.85,531.80
8760,-3.8741,0.9252,0.3005,-1710.69,-1170.10,359.92
8770,-3.8741,0.9283,0.2981,-1570.07,-1529.48,78.67
8780,-3.8743,0.9302,0.2994,-1163.82,-1841.98,-77.58
8790,-3.8743,0.9301,0.3016,-929.44,-1670.10,-77.58
8800,-3.8743,0.9294,0.3024,-945.07,-1388.85,-155.70
8810,-3.8743,0.9283,0.3025,-1023.19,-1295.10,-421.33
8820,-3.8743,0.9275,0.3030,-1163.82,-1279.48,-577.58
8830,-3.8743,0.9287,0.3052,-1273.19,-1216.98,-515.08
8840,-3.8743,0.9296,0.3080,-1116.94,-935.73,-374.45
8850,-3.8743,0.9291,0.3096,-1007.57,-576.35,-218.20
8860,-3.8743,0.9280,0.3092,-1070.07,-373.23,-124.45
8870,-3.8743,0.9269,0.3070,-1210.69,-420.10,-108.83
8880,-3.8743,0.9259,0.3037,-1351.32,-701.35,-171.33
8890,-3.8743,0.9259,0.3005,-1476.32,-1123.23,-186.95
8900,-3.8743,0.9280,0.2994,-1476.32,-1529.48,-93.20
8910,-3.8741,0.9294,0.3005,-1210.69,-1670.10,94.30
8920,-3.8741,0.9272,0.3024,-1023.19,-1529.48,234.92
8930,-3.8741,0.9242,0.3035,-1304.44,-1295.10,234.92
8940,-3.8741,0.9221,0.3049,-1695.07,-1154.48,94.30
8950,-3.8743,0.9220,0.3053,-1960.69,-966.98,-15.08
8960,-3.8743,0.9244,0.3030,-1976.32,-920.10,-233.83
8970,-3.8743,0.9290,0.3030,-1663.82,-1216.98,-515.08
8980,-3.8743,0.9318,0.3054,-1085.69,-1216.98,-702.58
8990,-3.8743,0.9307,0.3065,-726.32,-904.48,-811.95
9000,-3.8743,0.9280,0.3071,-866.94,-763.85,-780.70
9010,-3.8743,0.9261,0.3068,-1210.69,-685.73,-843.20
9020,-3.8743,0.9285,0.3063,-1445.07,-732.60,-1108.83
9030,-3.8743,0.9330,0.3049,-1148.19,-795.10,-1296.33
9040,-3.8743,0.9358,0.3003,-570.07,-966.98,-1327.58
9050,-3.8743,0.9376,0.2924,-210.69,-1560.73,-1499.45
9060,-3.8743,0.9391,0.2842,23.68,1423.71,-1796.33
9070,-3.8743,0.9388,0.2805,211.18,376.83,1953.67
9080,-3.8743,0.9381,0.2844,179.93,-91.92,1703.61
9090,-3.8743,0.9380,0.2927,86.18,408.08,1391.17
9100,-3.8743,0.9381,0.2977,70.56,1470.58,1141.17
9110,-3.8743,0.9390,0.2977,86.18,-1888.79,797.42
9120,-3.8743,0.9407,0.2975,195.56,-1888.79,422.42
9130,-3.8743,0.9419,0.3007,414.31,-1920.04,203.67
9140,-3.8743,0.9423,0.3062,570.56,-1513.79,266.17
9150,-3.8743,0.9419,0.3109,617.43,-810.67,750.55
9160,-3.8743,0.9384,0.3102,570.56,-201.29,1531.80
9170,-3.8743,0.9316,0.3048,117.43,-295.04,-1827.58
9180,-3.8743,0.9258,0.3018,-741.94,-982.60,-1421.33
9190,-3.8743,0.9231,0.3047,-1491.94,-1373.23,-921.33
9200,-3.8743,0.9224,0.3116,-1835.69,-998.23,-140.08
9210,-3.8741,0.9218,0.3154,-1929.44,-107.60,656.80
9220,-3.8741,0.9211,0.3127,1992.43,376.77,1031.86
9230,-3.8741,0.9229,0.3068,1914.31,33.02,1063.11
9240,-3.8741,0.9271,0.3029,-1866.94,-732.60,922.42
9250,-3.8741,0.9308,0.3042,-1320.07,-1232.60,734.92
9260,-3.8741,0.9298,0.3059,-851.32,-1060.73,578.67
9270,-3.8741,0.9243,0.3044,-976.32,-841.98,344.30
9280,-3.8741,0.9202,0.3041,-1679.44,-1029.48,172.42
9290,-3.8741,0.9208,0.3071,1789.31,-1076.35,141.17
9300,-3.8741,0.9243,0.3121,1867.43,-685.73,109.92
9310,-3.8741,0.9268,0.3186,-1679.44,-45.10,234.92
9320,-3.8741,0.9259,0.3217,-1366.94,783.02,469.36
9330,-3.8741,0.9230,0.3173,-1476.32,1173.65,563.11
9340,-3.8741,0.9214,0.3112,-1851.32,611.15,391.24
9350,-3.8741,0.9219,0.3098,1945.56,-170.10,203.67
9360,-3.8741,0.9233,0.3134,-1991.94,-341.98,328.67
9370,-3.8741,0.9246,0.3185,-1804.44,111.15,703.74
9380,-3.8741,0.9237,0.3217,-1648.19,767.40,1078.74
9390,-3.8741,0.9211,0.3191,-1757.57,1173.65,1406.86
9400,-3.8741,0.9198,0.3135,1914.31,845.52,1500.61
9410,-3.8741,0.9230,0.3093,1742.43,126.77,1453.74
9420,-3.8741,0.9275,0.3063,-1851.32,-404.48,1516.17
9430,-3.8741,0.9279,0.3044,-1273.19,-795.10,1563.05
9440,-3.8741,0.9247,0.3068,-1226.32,-1029.48,1641.17
9450,-3.8741,0.9204,0.3152,-1632.57,-732.60,1922.42
9460,-3.8741,0.9166,0.3246,1820.56,345.52,-1515.01
9470,-3.8741,0.9132,0.3276,1336.18,1548.65,-811.89
9480,-3.8741,0.9108,0.3231,898.68,1939.27,-405.64
9490,-3.8741,0.9111,0.3165,586.18,1361.15,-358.76
9500,-3.8741,0.9141,0.3121,633.06,517.40,-499.39
9510,-3.8741,0.9169,0.3123,1008.06,-45.10,-702.58
9520,-3.8741,0.9181,0.3153,1367.43,-29.48,-921.33
9530,-3.8741,0.9187,0.3148,1523.68,361.15,-1108.76
9540,-3.8741,0.9180,0.3090,1601.81,298.65,-1218.14
9550,-3.8741,0.9182,0.3042,1508.06,-451.35,-1311.95
9560,-3.8741,0.9213,0.3068,1539.31,-1060.73,-1452.58
9570,-3.8741,0.9265,0.3121,1929.93,-732.60,-1530.70
9580,-3.8741,0.9304,0.3094,-1398.19,-45.10,-1624.45
9590,-3.8741,0.9296,0.2971,-898.19,-388.85,-1921.33
9600,-3.8741,0.9272,0.2841,-1007.57,-1966.98,1500.55
9610,-3.8741,0.9276,0.2777,-1304.44,361.15,969.30
9620,-3.8741,0.9293,0.2811,-1257.57,-451.35,953.61
9630,-3.8741,0.9268,0.2874,-1038.82,-13.85,1453.61
9640,-3.8741,0.9211,0.2880,-1366.94,783.02,-1827.58
9650,-3.8741,0.9171,0.2838,1914.31,861.15,-1077.58
9660,-3.8741,0.9142,0.2771,1398.68,329.90,-311.95
9670,-3.8740,0.9136,0.2687,1023.68,-529.48,16.11
9680,-3.8741,0.9155,0.2620,945.56,-1607.60,-265.14
9690,-3.8741,0.9193,0.2618,1195.56,1533.02,-905.76
9700,-3.8741,0.9261,0.2720,1679.93,1517.40,-1890.14
9710,-3.8741,0.9341,0.2915,-1445.07,-1185.73,1203.61
9720,-3.8741,0.9397,0.3130,-429.44,1314.27,672.42
9730,-3.8741,0.9430,0.3278,289.31,64.33,78.74
9740,-3.8743,0.9436,0.3352,711.18,1954.96,-655.64
9750,-3.8743,0.9385,0.3403,789.31,-1091.92,-1061.89
9760,-3.8743,0.9309,0.3416,133.06,-435.67,-921.26
9770,-3.8743,0.9252,0.3357,-835.69,-279.48,-358.76
9780,-3.8741,0.9188,0.3274,-1570.07,-1029.48,656.86
9790,-3.8741,0.9092,0.3220,1617.43,1908.02,-1718.14
9800,-3.8740,0.8984,0.3188,383.06,1220.52,281.86
9810,-3.8740,0.8916,0.3165,-991.94,814.21,1984.99
9820,-3.8740,0.8896,0.3173,-1866.94,517.33,-1046.26
9830,-3.8740,0.8914,0.3234,1883.06,611.08,-780.64
9840,-3.8740,0.8950,0.3307,-1898.19,1392.33,-1202.51
9850,-3.8740,0.9006,0.3320,-1429.44,-1670.17,1688.11
9860,-3.8741,0.9103,0.3270,-710.69,-1498.29,-30.64
9870,-3.8741,0.9219,0.3199,523.68,1861.15,1953.74
9880,-3.8741,0.9329,0.3138,-1991.94,954.90,94.36
9890,-3.8743,0.9420,0.3098,-585.69,173.65,-1296.26
9900,-3.8743,0.9459,0.3085,586.18,-341.92,-1952.58
9910,-3.8743,0.9426,0.3075,1086.18,-513.79,1953.67
9920,-3.8743,0.9365,0.3049,664.31,-638.79,-1890.08
9930,-3.8743,0.9316,0.3015,-116.94,-966.98,-1624.45
9940,-3.8743,0.9286,0.2958,-741.94,-1404.48,-1233.83
9950,-3.8743,0.9283,0.2860,-1132.57,1861.15,-749.45
9960,-3.8743,0.9283,0.2760,-1163.82,611.15,-296.33
9970,-3.8741,0.9248,0.2721,-1163.82,-670.10,156.74
9980,-3.8741,0.9198,0.2777,-1616.94,-1170.10,797.36
9990,-3.8741,0.9159,0.2885,1742.43,-451.35,1344.24
10000,-3.8741,0.9146,0.2986,1242.43,923.65,1516.17
10010,-3.8741,0.9181,0.3076,1070.56,-1779.48,1156.80
10020,-3.8741,0.9269,0.3145,1523.68,-623.23,203.67
10030,-3.8743,0.9387,0.3181,-1351.32,251.77,-1265.01
10040,-3.8743,0.9496,0.3154,164.31,720.58,781.86
10050,-3.8744,0.9573,0.3087,1554.93,376.83,-1233.76
10060,-3.8744,0.9603,0.3037,-1460.69,-482.54,1078.67
10070,-3.8745,0.9594,0.3008,-1070.07,-1123.17,-61.95
10080,-3.8744,0.9558,0.3013,-1195.07,-1498.17,109.92
10090,-3.8744,0.9460,0.3070,-1648.19,-1435.67,1641.17
10100,-3.8744,0.9316,0.3140,1101.81,-701.29,-327.58
10110,-3.8743,0.9216,0.3168,-741.94,189.27,1500.61
10120,-3.8743,0.9186,0.3146,1976.81,548.65,-1296.26
10130,-3.8743,0.9207,0.3099,1586.18,267.40,-765.01
10140,-3.8743,0.9259,0.3066,1851.81,-326.35,-905.70
10150,-3.8743,0.9329,0.3043,-1476.32,-748.23,-1640.08
10160,-3.8743,0.9393,0.3038,-585.69,-1045.10,1281.80
10170,-3.8743,0.9435,0.3092,242.43,-1107.54,328.67
10180,-3.8744,0.9446,0.3193,773.68,-420.04,-296.33
10190,-3.8744,0.9423,0.3297,914.31,876.83,-749.39
10200,-3.8744,0.9374,0.3381,617.43,-1795.04,-1108.76
10210,-3.8744,0.9310,0.3451,-7.57,-716.98,-1218.14
10220,-3.8744,0.9244,0.3473,-820.07,173.65,-968.08
10230,-3.8744,0.9202,0.3424,-1663.82,454.90,-468.08
10240,-3.8743,0.9207,0.3352,1789.31,-170.10,422.49
10250,-3.8743,0.9240,0.3301,1851.81,-1091.98,1719.36
10260,-3.8743,0.9257,0.3209,-1726.32,-1748.23,-936.89
10270,-3.8741,0.9270,0.3011,-1507.57,1079.90,0.61
10280,-3.8741,0.9299,0.2788,-1335.69,-1451.35,156.80
10290,-3.8743,0.9337,0.2651,-960.69,-310.73,-202.64
10300,-3.8743,0.9374,0.2607,-476.32,1939.27,-812.01
10310,-3.8743,0.9409,0.2614,-7.57,1376.77,-1562.01
10320,-3.8743,0.9424,0.2666,445.56,1454.96,-1999.51
10330,-3.8743,0.9409,0.2731,633.06,-1873.17,-1999.51
10340,-3.8743,0.9407,0.2747,445.56,-1045.04,-1858.89
10350,-3.8743,0.9414,0.2703,414.31,-841.92,-1640.14
10360,-3.8743,0.9407,0.2650,508.06,-1404.42,-1265.14
10370,-3.8743,0.9381,0.2635,414.31,1923.71,-1030.76
10380,-3.8743,0.9375,0.2659,86.18,1736.21,-1108.89
10390,-3.8743,0.9395,0.2717,8.06,-1966.92,-1202.64
10400,-3.8743,0.9418,0.2854,258.06,-1216.92,-1249.51
10410,-3.8743,0.9451,0.3068,554.93,533.08,-1452.58
10420,-3.8743,0.9486,0.3307,976.81,-732.54,-1546.33
10430,-3.8743,0.9465,0.3518,1429.93,-1670.04,-1265.01
10440,-3.8743,0.9329,0.3656,1164.31,1033.08,-577.45
10450,-3.8741,0.9103,0.3713,-585.69,-1201.35,438.17
10460,-3.8741,0.8887,0.3701,523.68,-466.98,1735.05
10470,-3.8741,0.8751,0.3666,1758.06,-623.29,-530.58
10480,-3.8740,0.8717,0.3674,23.68,-1076.42,1453.80
10490,-3.8740,0.8732,0.3693,-413.82,-967.10,-499.33
10500,-3.8739,0.8738,0.3624,-226.32,-732.73,1156.92
10510,-3.8739,0.8743,0.3451,-148.19,-1607.73,1891.30
10520,-3.8739,0.8790,0.3264,-85.69,173.52,1906.92
10530,-3.8739,0.8860,0.3140,523.68,1782.96,1813.11
10540,-3.8739,0.8896,0.3040,1414.31,189.21,1688.11
10550,-3.8739,0.8932,0.2927,1883.06,-1092.04,1359.92
10560,-3.8739,0.8999,0.2802,-1663.82,1470.46,734.92
10570,-3.8740,0.9104,0.2689,-804.44,-138.92,-374.51
10580,-3.8740,0.9221,0.2642,539.31,-1576.35,-1937.01
10590,-3.8740,0.9303,0.2667,-1960.69,1814.27,250.49
10600,-3.8741,0.9360,0.2739,-913.82,-1857.60,-1530.76
10610,-3.8741,0.9419,0.2816,-179.44,-935.73,937.99
10620,-3.8743,0.9489,0.2863,570.56,48.71,-296.33
10630,-3.8743,0.9563,0.2888,1461.18,642.46,-1343.20
10640,-3.8743,0.9622,0.2898,-1585.69,970.58,1844.30
10650,-3.8743,0.9637,0.2882,-835.69,1095.58,1406.80
10660,-3.8743,0.9583,0.2875,-632.57,892.46,1516.17
10670,-3.8743,0.9447,0.2930,-1335.69,798.71,-1608.83
10680,-3.8743,0.9275,0.3065,929.93,1501.83,-77.58
10690,-3.8741,0.9121,0.3245,-1273.19,-763.85,-1999.45
10700,-3.8740,0.8999,0.3391,758.06,1533.02,281.86
10710,-3.8740,0.8899,0.3459,-804.44,-592.04,-1655.64
10720,-3.8740,0.8838,0.3467,1914.31,282.96,-124.33
10730,-3.8739,0.8828,0.3419,1133.06,376.71,703.80
10740,-3.8739,0.8861,0.3329,1008.06,-232.67,969.36
10750,-3.8739,0.8899,0.3241,1429.93,-1388.92,859.99
10760,-3.8739,0.8921,0.3190,1914.31,1486.08,438.11
10770,-3.8740,0.8943,0.3208,-1804.44,829.83,-171.26
10780,-3.8740,0.8972,0.3262,-1523.19,1064.21,-1108.76
10790,-3.8740,0.9039,0.3268,-1148.19,1751.71,1422.49
10800,-3.8741,0.9169,0.3197,-288.82,1829.83,-515.01
10810,-3.8741,0.9336,0.3094,1367.43,923.65,1500.61
10820,-3.8743,0.9500,0.3004,-491.94,-388.85,-202.58
10830,-3.8743,0.9590,0.2933,1601.81,-1545.04,-1655.70
10840,-3.8743,0.9591,0.2870,-1241.94,1548.71,1125.55
10850,-3.8743,0.9552,0.2826,-1226.32,736.21,547.42
10860,-3.8743,0.9508,0.2811,-1726.32,173.71,875.55
10870,-3.8743,0.9448,0.2823,1711.18,-13.79,1984.86
10880,-3.8743,0.9332,0.2877,945.56,142.46,-327.58
10890,-3.8741,0.9194,0.2953,-538.82,829.90,1453.67
10900,-3.8741,0.9117,0.2988,1695.56,1798.65,-1093.20
10910,-3.8740,0.9126,0.2969,711.18,-1748.23,0.55
10920,-3.8740,0.9169,0.2953,820.56,-1998.23,688.05
10930,-3.8740,0.9177,0.2970,1367.43,1798.65,813.05
10940,-3.8740,0.9159,0.3021,1476.81,-1982.60,453.67
10950,-3.8740,0.9177,0.3120,1242.43,-1326.35,172.42
10960,-3.8740,0.9171,0.3215,1476.81,-60.73,250.55
10970,-3.8740,0.9119,0.3262,1398.68,1158.02,328.74
10980,-3.8740,0.9091,0.3295,726.81,1751.77,344.36
10990,-3.8740,0.9078,0.3304,367.43,-1826.35,453.74
11000,-3.8740,0.9093,0.3280,211.18,-1701.35,672.49
11010,-3.8740,0.9097,0.3229,398.68,1986.15,813.11
11020,-3.8740,0.9075,0.3167,445.56,1329.90,734.99
11030,-3.8740,0.9078,0.3131,164.31,533.02,688.11
11040,-3.8740,0.9119,0.3115,211.18,79.90,703.74
11050,-3.8740,0.9153,0.3085,726.81,-123.23,609.92
11060,-3.8740,0.9149,0.3036,1164.31,-513.85,453.67
11070,-3.8740,0.9131,0.3008,1117.43,-1138.85,438.05
11080,-3.8740,0.9135,0.3029,883.06,-1498.23,563.05
11090,-3.8740,0.9148,0.3064,929.93,-1232.60,797.42
11100,-3.8740,0.9143,0.3073,1101.81,-779.48,969.30
11110,-3.8740,0.9125,0.3062,1039.31,-670.10,984.92
11120,-3.8740,0.9115,0.3048,804.93,-810.73,734.92
11130,-3.8740,0.9143,0.3033,679.93,-982.60,172.42
11140,-3.8741,0.9205,0.3020,1039.31,-1170.10,-546.33
11150,-3.8741,0.9265,0.3018,1836.18,-1341.98,-1358.83
11160,-3.8741,0.9304,0.3043,-1398.19,-1373.23,1688.05
11170,-3.8741,0.9330,0.3079,-898.19,-1045.10,906.80
11180,-3.8741,0.9332,0.3082,-570.07,-591.98,578.67
11190,-3.8741,0.9319,0.3066,-538.82,-545.10,578.67
11200,-3.8741,0.9304,0.3062,-710.69,-748.23,703.67
11210,-3.8741,0.9281,0.3080,-898.19,-810.73,922.42
11220,-3.8741,0.9242,0.3120,-1195.07,-576.35,1359.92
11230,-3.8741,0.9191,0.3165,-1695.07,-60.73,-1811.95
11240,-3.8741,0.9144,0.3185,1648.68,517.40,-921.26
11250,-3.8741,0.9104,0.3160,1054.93,767.40,-515.01
11260,-3.8741,0.9109,0.3140,539.31,454.90,-468.14
11270,-3.8741,0.9138,0.3148,601.81,189.27,-452.51
11280,-3.8741,0.9144,0.3143,976.81,298.65,-733.76
11290,-3.8741,0.9160,0.3126,1054.93,236.15,-1311.89
11300,-3.8741,0.9205,0.3124,1258.06,17.40,-1952.51
11310,-3.8741,0.9263,0.3132,1836.18,-13.85,1313.05
11320,-3.8741,0.9320,0.3141,-1429.44,95.52,641.24
11330,-3.8741,0.9351,0.3124,-695.07,204.90,250.61
11340,-3.8743,0.9366,0.3080,-304.44,-13.85,-46.33
11350,-3.8743,0.9373,0.3086,-101.32,-576.35,-218.20
11360,-3.8743,0.9316,0.3153,-23.19,-498.23,-77.58
11370,-3.8741,0.9225,0.3193,-741.94,361.15,109.99
11380,-3.8741,0.9196,0.3170,-1913.82,876.77,156.86
11390,-3.8741,0.9244,0.3114,1711.18,579.90,188.11
11400,-3.8741,0.9308,0.3064,-1663.82,-138.85,234.92
11410,-3.8741,0.9310,0.3022,-851.32,-779.48,484.92
11420,-3.8741,0.9243,0.2993,-820.07,-1310.73,1078.67
11430,-3.8741,0.9169,0.3018,-1679.44,-1685.73,1781.80
11440,-3.8741,0.9132,0.3123,1367.43,-1373.23,-1436.95
11450,-3.8741,0.9114,0.3236,898.68,-29.48,-468.20
11460,-3.8740,0.9094,0.3237,664.31,1423.65,156.86
11470,-3.8741,0.9141,0.3113,414.31,1439.27,-186.89
11480,-3.8741,0.9238,0.2966,1008.06,-154.48,-1233.83
11490,-3.8741,0.9265,0.2910,-1741.94,1970.52,-1874.45
11500,-3.8741,0.9192,0.2959,-1398.19,1251.77,-1921.33
11510,-3.8741,0.9106,0.3048,1664.31,1876.77,-1983.83
11520,-3.8741,0.9104,0.3162,570.56,-982.60,1891.17
11530,-3.8741,0.9204,0.3282,539.31,470.52,1781.86
11540,-3.8741,0.9294,0.3322,1820.56,-1982.60,1641.24
11550,-3.8741,0.9315,0.3242,-1023.19,-1482.60,922.49
11560,-3.8743,0.9329,0.3116,-757.57,1501.77,-530.64
11570,-3.8743,0.9366,0.3041,-585.69,-107.60,-1874.45
11580,-3.8743,0.9401,0.3071,-101.32,-1076.35,1891.17
11590,-3.8743,0.9353,0.3138,336.18,-685.67,-983.83
11600,-3.8741,0.9247,0.3151,-273.19,173.65,641.24
11610,-3.8741,0.9175,0.3114,-1632.57,329.90,1609.99
11620,-3.8741,0.9161,0.3094,1445.56,-138.85,1813.05
11630,-3.8741,0.9181,0.3132,1273.68,-388.85,1797.42
11640,-3.8741,0.9191,0.3214,1523.68,95.52,1750.61
11650,-3.8741,0.9180,0.3301,1648.68,1142.40,1906.86
11660,-3.8741,0.9185,0.3373,1508.06,-1748.23,-1718.14
11670,-3.8741,0.9182,0.3396,1570.56,-826.35,-1655.64
11680,-3.8741,0.9149,0.3276,1539.31,-529.48,1938.11
11690,-3.8741,0.9152,0.3032,1117.43,1939.27,1625.61
11700,-3.8741,0.9215,0.2843,1148.68,-1185.73,1094.30
11710,-3.8741,0.9297,0.2812,1961.18,392.40,234.92
11720,-3.8741,0.9301,0.2922,-991.94,1.77,609.92
11730,-3.8741,0.9153,0.3069,-945.07,1408.02,-1577.58
11740,-3.8740,0.8967,0.3163,1164.31,-716.98,188.05
11750,-3.8740,0.8896,0.3219,-1210.69,486.08,1156.86
11760,-3.8740,0.8959,0.3241,1883.06,1204.83,1313.11
11770,-3.8740,0.9097,0.3169,-1320.07,1486.08,375.61
11780,-3.8741,0.9211,0.3047,445.56,564.27,-1515.01
11790,-3.8741,0.9288,0.2998,1914.31,-998.23,125.55
11800,-3.8743,0.9384,0.3054,-1101.32,-1623.23,1953.67
11810,-3.8743,0.9481,0.3088,117.43,-904.42,344.30
11820,-3.8744,0.9568,0.3015,1367.43,-466.92,-780.70
11830,-3.8744,0.9633,0.2969,-1523.19,-1404.42,-1374.45
11840,-3.8744,0.9600,0.3029,-695.07,-1998.17,-1343.20
11850,-3.8744,0.9485,0.3077,-1116.94,-1232.54,-749.45
11860,-3.8743,0.9377,0.2999,1414.31,-607.54,328.67
11870,-3.8743,0.9330,0.2847,39.31,-1607.54,1297.42
11880,-3.8743,0.9366,0.2770,-570.07,439.27,1734.92
11890,-3.8743,0.9318,0.2811,-101.32,-545.10,-1171.39
11900,-3.8741,0.9019,0.2815,-726.32,-13.85,906.74
11910,-3.8741,0.8800,0.2670,-554.44,32.96,-1765.08
11920,-3.8741,0.8915,0.2507,648.68,-1826.42,1953.61
11930,-3.8741,0.9114,0.2440,-1882.57,95.46,484.86
11940,-3.8743,0.9233,0.2438,664.31,-763.85,-1983.95
11950,-3.8744,0.9292,0.2494,-1804.44,-795.10,-1249.57
11960,-3.8745,0.9419,0.2662,-1054.44,-76.35,-624.57
11970,-3.8745,0.9718,0.2921,570.56,-1920.04,578.61
11980,-3.8746,1.0031,0.3142,398.68,1392.52,-1515.08
11990,-3.8746,1.0177,0.3304,398.68,220.70,1094.36
12000,-3.8746,1.0116,0.3372,-1726.32,-1701.17,63.11
12010,-3.8748,0.9923,0.3296,1492.43,-841.80,-780.64
12020,-3.8748,0.9777,0.3195,-976.32,-1810.61,-936.89
12030,-3.8746,0.9706,0.3145,1148.68,892.52,78.74
12040,-3.8746,0.9622,0.3113,242.43,251.89,-1608.76
12050,-3.8745,0.9523,0.3070,-835.69,-154.42,1500.55
12060,-3.8744,0.9403,0.3019,1898.68,-701.29,641.17
12070,-3.8744,0.9270,0.2994,367.43,-1357.54,-530.70
12080,-3.8743,0.9163,0.3007,-1335.69,-1670.10,1969.30
12090,-3.8743,0.9091,0.2988,1289.31,-1513.85,-77.58
12100,-3.8741,0.9070,0.2948,367.43,-1748.23,1297.42
12110,-3.8741,0.8983,0.2931,101.81,1736.15,-1452.58
12120,-3.8741,0.8800,0.2844,-1007.57,1517.33,-827.58
12130,-3.8741,0.8784,0.2644,648.68,407.96,1984.92
12140,-3.8743,0.9003,0.2457,445.56,1845.46,-858.89
12150,-3.8744,0.9320,0.2389,-757.57,-545.17,-483.95
12160,-3.8745,0.9679,0.2424,-695.07,-1420.10,-30.82
12170,-3.8745,0.9940,0.2502,-101.32,-966.92,1203.55
12180,-3.8746,1.0026,0.2571,-757.57,33.14,-749.51
12190,-3.8746,1.0032,0.2617,336.18,908.20,1922.36
12200,-3.8746,0.9991,0.2664,414.31,1501.95,1125.49
12210,-3.8746,0.9896,0.2706,-101.32,-1904.36,828.61
12220,-3.8746,0.9784,0.2737,-1320.07,-1357.48,1047.36
12230,-3.8746,0.9679,0.2773,1242.43,-966.86,1859.86
12240,-3.8746,0.9595,0.2861,-101.32,-498.17,-655.76
12250,-3.8745,0.9515,0.3000,-1179.44,626.83,1672.42
12260,-3.8744,0.9403,0.3151,1804.93,-1591.92,719.30
12270,-3.8744,0.9261,0.3262,367.43,329.96,-108.76
12280,-3.8743,0.9131,0.3298,-1445.07,1751.77,-1483.76
12290,-3.8741,0.9047,0.3276,883.06,-1779.48,78.74
12300,-3.8741,0.9017,0.3235,-195.07,1939.21,797.49
12310,-3.8741,0.9043,0.3182,-570.07,1407.96,969.36
12320,-3.8741,0.9121,0.3114,-241.94,736.08,484.99
12330,-3.8743,0.9235,0.3060,758.06,-138.85,-265.08
12340,-3.8743,0.9342,0.3071,-1788.82,-826.35,-499.45
12350,-3.8743,0.9370,0.3130,-413.82,-685.73,-233.83
12360,-3.8743,0.9301,0.3156,-54.44,64.27,-30.64
12370,-3.8741,0.9213,0.3126,-945.07,392.40,78.74
12380,-3.8741,0.9175,0.3065,1929.93,17.40,47.49
12390,-3.8743,0.9205,0.2991,1445.56,-763.85,-140.08
12400,-3.8743,0.9274,0.2919,1836.18,-1716.98,-233.83
12410,-3.8743,0.9323,0.2881,-1288.82,1361.15,-405.70
12420,-3.8743,0.9318,0.2900,-663.82,876.77,-655.70
12430,-3.8743,0.9269,0.2971,-726.32,1126.77,-952.58
12440,-3.8743,0.9221,0.3051,-1351.32,-1966.98,-1499.45
12450,-3.8743,0.9225,0.3107,-1960.69,-951.35,1734.92
12460,-3.8743,0.9297,0.3143,-1913.82,-232.60,688.05
12470,-3.8744,0.9415,0.3147,-991.94,236.15,-515.01
12480,-3.8744,0.9524,0.3118,523.68,283.08,-1327.51
12490,-3.8744,0.9567,0.3083,1914.31,-91.92,-1483.83
12500,-3.8744,0.9547,0.3070,-1538.82,-529.42,-1155.70
12510,-3.8744,0.9501,0.3094,-1788.82,-701.29,-405.70
12520,-3.8743,0.9423,0.3134,1617.43,-388.79,891.17
12530,-3.8743,0.9304,0.3180,617.43,111.21,-1093.14
12540,-3.8741,0.9165,0.3243,-898.19,704.90,1266.24
12550,-3.8741,0.9034,0.3301,1320.56,1517.40,-640.01
12560,-3.8740,0.8942,0.3337,-351.32,-1748.29,1031.86
12570,-3.8740,0.8905,0.3325,-1538.82,-1279.54,-1671.26
12580,-3.8740,0.8906,0.3264,1992.43,-1435.79,-1108.76
12590,-3.8740,0.8931,0.3196,-1991.94,1782.96,-1233.76
12600,-3.8740,0.8986,0.3140,-1679.44,907.96,-1796.26
12610,-3.8740,0.9055,0.3090,-976.32,189.21,1391.24
12620,-3.8740,0.9116,0.3046,-85.69,-451.42,625.55
12630,-3.8741,0.9166,0.3000,695.56,-1013.85,-202.58
12640,-3.8741,0.9203,0.2964,1336.18,-1591.98,-1218.20
12650,-3.8741,0.9232,0.2963,1804.93,1939.27,1859.92
12660,-3.8741,0.9274,0.2983,-1820.07,1923.65,1313.05
12670,-3.8741,0.9314,0.2993,-1288.82,-1810.73,1000.55
12680,-3.8741,0.9324,0.2991,-773.19,-1685.73,766.17
12690,-3.8741,0.9305,0.3009,-648.19,-1716.98,625.55
12700,-3.8741,0.9272,0.3048,-882.57,-1482.60,781.80
12710,-3.8741,0.9230,0.3087,-1304.44,-982.60,1109.92
12720,-3.8741,0.9183,0.3124,-1851.32,-482.60,1438.05
12730,-3.8741,0.9124,0.3159,1554.93,-13.85,1828.67
12740,-3.8741,0.9071,0.3197,789.31,439.27,-1905.64
12750,-3.8741,0.9066,0.3246,117.43,923.65,-1733.76
12760,-3.8741,0.9077,0.3290,54.93,1548.65,-1374.39
12770,-3.8741,0.9071,0.3307,195.56,-1888.85,-1124.39
12780,-3.8741,0.9060,0.3290,117.43,-1670.10,-1202.51
12790,-3.8741,0.9069,0.3229,-23.19,-1888.92,-1733.76
12800,-3.8741,0.9130,0.3145,86.18,1329.90,1375.61
12810,-3.8741,0.9272,0.3085,867.43,251.77,547.49
12820,-3.8743,0.9403,0.3062,-1304.44,-513.85,-30.70
12830,-3.8743,0.9435,0.3060,367.43,-810.67,-374.45
12840,-3.8743,0.9395,0.3082,773.68,-826.29,-421.33
12850,-3.8743,0.9309,0.3107,258.06,-545.04,-343.20
12860,-3.8743,0.9243,0.3138,-835.69,-232.60,-155.70
12870,-3.8741,0.9226,0.3176,-1679.44,173.65,219.36
12880,-3.8741,0.9248,0.3192,-1898.19,658.02,547.49
12890,-3.8741,0.9271,0.3169,-1616.94,861.15,391.24
12900,-3.8743,0.9286,0.3124,-1320.07,564.27,-327.51
12910,-3.8743,0.9310,0.3080,-1132.57,-13.85,-1218.20
12920,-3.8743,0.9333,0.3064,-820.07,-576.35,-1999.45
12930,-3.8743,0.9330,0.3093,-523.19,-779.48,1391.17
12940,-3.8743,0.9304,0.3156,-570.07,-404.48,969.30
12950,-3.8743,0.9293,0.3208,-898.19,392.40,828.74
12960,-3.8743,0.9312,0.3219,-1038.82,1064.27,875.61
12970,-3.8743,0.9336,0.3181,-804.44,1204.90,875.61
12980,-3.8743,0.9348,0.3114,-491.94,720.52,1094.36
12990,-3.8743,0.9353,0.3049,-335.69,-138.85,1563.05
13000,-3.8743,0.9330,0.3008,-273.19,-966.98,-1811.95
13010,-3.8743,0.9281,0.3000,-570.07,-1498.23,-1202.58
13020,-3.8743,0.9254,0.3025,-1195.07,-1591.98,-827.58
13030,-3.8743,0.9270,0.3051,-1538.82,-1279.48,-686.95
13040,-3.8743,0.9309,0.3053,-1335.69,-951.35,-968.20
13050,-3.8743,0.9357,0.3032,-835.69,-920.10,-1702.58
13060,-3.8743,0.9412,0.3008,-226.32,-1185.73,1313.05
13070,-3.8743,0.9453,0.3003,476.81,-1498.17,250.55
13080,-3.8744,0.9467,0.3032,1008.06,-1560.67,-593.20
13090,-3.8744,0.9462,0.3085,1179.93,-1185.67,-921.33
13100,-3.8744,0.9417,0.3136,1117.43,-513.79,-640.08
13110,-3.8743,0.9325,0.3162,539.31,142.46,109.99
13120,-3.8743,0.9255,0.3170,-632.57,470.52,1109.99
13130,-3.8743,0.9240,0.3185,-1523.19,579.90,-1905.64
13140,-3.8743,0.9246,0.3190,-1726.32,767.40,-1030.64
13150,-3.8743,0.9266,0.3181,-1648.19,829.90,-452.51
13160,-3.8743,0.9287,0.3173,-1382.57,720.52,-124.39
13170,-3.8741,0.9301,0.3160,-1116.94,611.15,109.99
13180,-3.8741,0.9315,0.3114,-945.07,454.90,31.86
13190,-3.8743,0.9314,0.3059,-757.57,-138.85,-124.45
13200,-3.8743,0.9282,0.3057,-773.19,-841.98,-15.08
13210,-3.8741,0.9221,0.3101,-1179.44,-873.23,406.80
13220,-3.8741,0.9150,0.3168,-1960.69,-310.73,1297.42
13230,-3.8741,0.9070,0.3240,1133.06,548.65,-1530.64
13240,-3.8741,0.8992,0.3262,101.81,1470.52,-499.39
13250,-3.8740,0.8942,0.3218,-898.19,1751.71,359.99
13260,-3.8740,0.8943,0.3156,-1538.82,1189.21,984.99
13270,-3.8740,0.8988,0.3126,-1523.19,392.33,1047.49
13280,-3.8740,0.9047,0.3140,-945.07,17.33,641.24
13290,-3.8740,0.9111,0.3164,-195.07,189.21,31.86
13300,-3.8741,0.9182,0.3181,633.06,501.77,-702.51
13310,-3.8741,0.9252,0.3184,1539.31,720.52,-1483.76
13320,-3.8741,0.9303,0.3181,-1570.07,751.77,1766.24
13330,-3.8741,0.9335,0.3187,-913.82,720.52,1031.86
13340,-3.8741,0.9344,0.3203,-507.57,798.65,359.99
13350,-3.8743,0.9315,0.3218,-382.57,1001.77,-46.26
13360,-3.8741,0.9274,0.3252,-757.57,1189.27,31.86
13370,-3.8741,0.9261,0.3285,-1288.82,1626.77,453.74
13380,-3.8741,0.9252,0.3275,-1445.07,-1951.35,922.49
13390,-3.8741,0.9219,0.3247,-1570.07,1923.65,1359.99
13400,-3.8741,0.9160,0.3243,-1991.94,1564.27,1719.36
13410,-3.8741,0.9092,0.3260,1258.06,1517.40,-1718.14
13420,-3.8741,0.9059,0.3274,383.06,1736.15,-811.89
13430,-3.8740,0.9039,0.3265,-38.82,1907.96,203.74
13440,-3.8740,0.9014,0.3242,-288.82,1798.58,1141.24
13450,-3.8740,0.8992,0.3226,-616.94,1501.71,1719.36
13460,-3.8740,0.8971,0.3235,-898.19,1298.58,-1999.39
13470,-3.8740,0.8961,0.3253,-1163.82,1407.96,-1686.89
13480,-3.8740,0.8959,0.3265,-1288.82,1642.33,-1405.64
13490,-3.8740,0.8966,0.3278,-1320.07,1798.58,-1421.26
13500,-3.8740,0.8997,0.3323,-1226.32,1954.83,-1858.76
13510,-3.8740,0.9033,0.3387,-835.69,-1467.04,1547.49
13520,-3.8740,0.9060,0.3409,-366.94,-638.92,1063.11
13530,-3.8740,0.9092,0.3368,-23.19,-357.67,516.24
13540,-3.8741,0.9122,0.3285,383.06,-888.85,-265.01
13550,-3.8741,0.9146,0.3204,773.68,-1951.35,-983.76
13560,-3.8741,0.9149,0.3171,1070.56,1017.40,-1249.39
13570,-3.8741,0.9116,0.3190,1117.43,595.52,-1077.51
13580,-3.8741,0.9062,0.3223,695.56,829.90,-749.39
13590,-3.8741,0.9036,0.3231,8.06,1251.77,-530.64
13600,-3.8741,0.9060,0.3242,-335.69,1361.08,-530.64
13610,-3.8741,0.9122,0.3239,-23.19,1501.71,-843.14
13620,-3.8741,0.9203,0.3202,773.68,1454.90,-1577.51
13630,-3.8741,0.9268,0.3175,1804.93,986.15,1438.11
13640,-3.8741,0.9293,0.3149,-1366.94,642.40,594.36
13650,-3.8743,0.9272,0.3121,-1038.82,314.27,-93.14
13660,-3.8743,0.9261,0.3105,-1304.44,-45.10,-733.83
13670,-3.8743,0.9293,0.3101,-1445.07,-248.23,-1405.70
13680,-3.8743,0.9332,0.3124,-1038.82,-310.73,-1780.70
13690,-3.8743,0.9340,0.3156,-538.82,-13.85,-1827.58
13700,-3.8743,0.9316,0.3143,-445.07,392.40,-1843.14
13710,-3.8743,0.9305,0.3090,-741.94,236.15,1984.99
13720,-3.8743,0.9330,0.3032,-882.57,-451.35,1438.05
13730,-3.8743,0.9387,0.2991,-570.07,-1185.73,875.55
13740,-3.8743,0.9456,0.2963,164.31,-1716.92,469.30
13750,-3.8743,0.9510,0.2935,1039.31,1923.71,172.42
13760,-3.8744,0.9541,0.2898,1742.43,1564.33,-171.33
13770,-3.8744,0.9547,0.2867,-1866.94,1095.58,-608.83
13780,-3.8744,0.9541,0.2863,-1788.82,704.96,-983.83
13790,-3.8744,0.9534,0.2900,-1866.94,642.46,-1374.45
13800,-3.8744,0.9517,0.2996,-1960.69,1126.83,-1546.33
13810,-3.8744,0.9453,0.3129,1820.56,-1654.42,-1108.83
13820,-3.8744,0.9307,0.3273,1008.06,48.71,-93.14
13830,-3.8743,0.9125,0.3385,-866.94,1892.40,1328.74
13840,-3.8743,0.8993,0.3434,804.93,-670.10,-1186.89
13850,-3.8741,0.8937,0.3419,-882.57,-45.17,125.61
13860,-3.8741,0.8944,0.3359,-1601.32,-232.67,1219.36
13870,-3.8741,0.8984,0.3284,-1507.57,-998.29,1891.24
13880,-3.8741,0.9033,0.3221,-991.94,-1967.04,-1890.01
13890,-3.8741,0.9089,0.3191,-366.94,1236.08,-1999.39
13900,-3.8741,0.9156,0.3176,351.81,845.52,1531.86
13910,-3.8741,0.9225,0.3129,1211.18,658.02,531.86
13920,-3.8743,0.9315,0.3060,-1913.82,48.65,-936.89
13930,-3.8743,0.9419,0.3008,-757.57,-826.35,1547.42
13940,-3.8743,0.9484,0.2993,570.56,-1498.17,344.30
13950,-3.8744,0.9485,0.3022,1398.68,-1685.67,-374.45
13960,-3.8744,0.9448,0.3062,1414.31,-1310.67,-718.20
13970,-3.8744,0.9388,0.3083,945.56,-810.67,-671.33
13980,-3.8744,0.9308,0.3108,179.93,-529.42,-311.95
13990,-3.8743,0.9246,0.3147,-851.32,-216.98,313.05
14000,-3.8743,0.9221,0.3175,-1648.19,283.02,1094.36
14010,-3.8743,0.9221,0.3179,-1960.69,642.40,1703.74
14020,-3.8743,0.9231,0.3162,-1960.69,689.27,-1968.14
14030,-3.8743,0.9248,0.3140,-1835.69,470.52,-1858.76
14040,-3.8743,0.9265,0.3120,-1616.94,189.27,-1890.01
14050,-3.8743,0.9269,0.3103,-1398.19,-60.73,1828.67
14060,-3.8743,0.9287,0.3085,-1351.32,-279.48,1281.80
14070,-3.8743,0.9336,0.3063,-1116.94,-513.85,516.17
14080,-3.8744,0.9388,0.3053,-491.94,-795.10,-374.45
14090,-3.8744,0.9414,0.3049,179.93,-920.04,-1046.33
14100,-3.8744,0.9423,0.3026,508.06,-966.92,-1452.58
14110,-3.8744,0.9443,0.3009,617.43,-1263.79,-1811.95
14120,-3.8744,0.9473,0.3025,883.06,-1482.54,1938.05
14130,-3.8744,0.9478,0.3053,1258.06,-1279.42,1844.30
14140,-3.8744,0.9456,0.3079,1320.56,-920.04,1906.80
14150,-3.8744,0.9427,0.3090,1039.31,-591.92,-1921.33
14160,-3.8744,0.9410,0.3073,679.93,-451.29,-1765.08
14170,-3.8744,0.9392,0.3046,461.18,-670.04,-1561.95
14180,-3.8744,0.9362,0.3054,226.81,-1013.79,-1265.08
14190,-3.8744,0.9341,0.3098,-163.82,-904.48,-936.95
14200,-3.8744,0.9333,0.3146,-429.44,-341.98,-530.70
14210,-3.8744,0.9325,0.3184,-523.19,267.40,-93.14
14220,-3.8743,0.9302,0.3207,-632.57,751.77,313.11
14230,-3.8743,0.9257,0.3212,-929.44,1048.65,469.36
14240,-3.8743,0.9229,0.3198,-1507.57,1111.15,453.74
14250,-3.8743,0.9246,0.3187,-1866.94,939.27,406.86
14260,-3.8743,0.9294,0.3168,-1648.19,798.65,438.11
14270,-3.8743,0.9341,0.3130,-1023.19,548.65,547.49
14280,-3.8743,0.9336,0.3094,-429.44,64.27,672.49
14290,-3.8743,0.9291,0.3074,-491.94,-388.85,813.05
14300,-3.8743,0.9249,0.3079,-1070.07,-654.48,1125.55
14310,-3.8743,0.9224,0.3126,-1601.32,-591.98,1609.92
14320,-3.8743,0.9229,0.3170,-1929.44,17.40,-1983.76
14330,-3.8743,0.9269,0.3149,-1866.94,579.90,-1921.26
14340,-3.8743,0.9325,0.3085,-1351.32,314.27,1547.49
14350,-3.8743,0.9369,0.3031,-632.57,-513.85,797.42
14360,-3.8743,0.9377,0.3035,-70.07,-1201.35,281.80
14370,-3.8743,0.9346,0.3098,39.31,-1154.42,78.67
14380,-3.8743,0.9290,0.3158,-366.94,-341.98,359.92
14390,-3.8743,0.9241,0.3179,-1085.69,423.65,1000.61
14400,-3.8743,0.9208,0.3174,-1710.69,689.27,1594.36
14410,-3.8743,0.9188,0.3175,1867.43,626.77,-1968.14
14420,-3.8743,0.9186,0.3191,1617.43,642.40,-1624.39
14430,-3.8743,0.9199,0.3193,1586.18,845.52,-1436.89
14440,-3.8743,0.9226,0.3169,1758.06,876.77,-1468.14
14450,-3.8743,0.9257,0.3148,-1898.19,564.27,-1671.26
14460,-3.8743,0.9269,0.3154,-1507.57,298.65,-1811.89
14470,-3.8743,0.9260,0.3164,-1351.32,376.77,-1952.51
14480,-3.8743,0.9257,0.3182,-1460.69,501.77,1859.99
14490,-3.8743,0.9265,0.3215,-1507.57,736.15,1734.99
14500,-3.8743,0.9274,0.3207,-1398.19,1158.02,1641.24
14510,-3.8743,0.9286,0.3153,-1288.82,1048.65,1203.74
14520,-3.8743,0.9307,0.3109,-1132.57,361.15,484.99
14530,-3.8744,0.9335,0.3108,-866.94,-201.35,-46.33
14540,-3.8744,0.9348,0.3125,-507.57,-216.98,-265.08
14550,-3.8744,0.9332,0.3136,-335.69,1.77,-202.51
14560,-3.8743,0.9299,0.3135,-538.82,142.40,31.86
14570,-3.8743,0.9290,0.3129,-960.69,126.77,188.11
14580,-3.8743,0.9313,0.3140,-1085.69,48.65,250.61
14590,-3.8743,0.9326,0.3151,-788.82,189.27,359.99
14600,-3.8743,0.9329,0.3126,-616.94,329.90,422.49
14610,-3.8743,0.9338,0.3080,-585.69,17.40,281.86
14620,-3.8744,0.9349,0.3054,-460.69,-576.35,-155.70
14630,-3.8744,0.9347,0.3086,-320.07,-904.48,-452.58
14640,-3.8744,0.9327,0.3173,-351.32,-498.23,-390.08
14650,-3.8744,0.9304,0.3257,-601.32,611.15,-140.01
14660,-3.8743,0.9282,0.3267,-898.19,1689.27,109.99
14670,-3.8743,0.9277,0.3188,-1179.44,1814.27,172.49
14680,-3.8744,0.9299,0.3066,-1241.94,814.27,-140.01
14690,-3.8744,0.9357,0.2983,-960.69,-748.23,-499.45
14700,-3.8744,0.9410,0.2993,-226.32,-1810.73,-655.70
14710,-3.8744,0.9403,0.3060,461.18,-1685.67,-671.33
14720,-3.8744,0.9343,0.3135,367.43,-826.29,-546.33
14730,-3.8744,0.9288,0.3170,-398.19,126.77,-390.01
14740,-3.8744,0.9286,0.3159,-1101.32,579.90,-374.39
14750,-3.8744,0.9318,0.3143,-1132.57,439.27,-546.26
14760,-3.8744,0.9323,0.3147,-726.32,236.15,-640.01
14770,-3.8744,0.9294,0.3156,-663.82,283.02,-405.64
14780,-3.8744,0.9264,0.3156,-1023.19,392.40,-140.01
14790,-3.8743,0.9244,0.3149,-1413.82,392.40,78.74
14800,-3.8743,0.9240,0.3152,-1663.82,314.27,406.86
14810,-3.8743,0.9248,0.3163,-1726.32,345.52,734.99
14820,-3.8743,0.9258,0.3157,-1616.94,486.15,891.24
14830,-3.8743,0.9266,0.3134,-1491.94,408.02,656.86
14840,-3.8743,0.9297,0.3114,-1382.57,111.15,156.86
14850,-3.8744,0.9347,0.3087,-991.94,-138.85,-468.20
14860,-3.8744,0.9395,0.3044,-351.32,-482.60,-1093.20
14870,-3.8744,0.9436,0.3011,258.06,-1029.42,-1718.20
14880,-3.8744,0.9453,0.3027,789.31,-1451.29,1750.55
14890,-3.8744,0.9434,0.3083,1008.06,-1248.17,1656.80
14900,-3.8744,0.9390,0.3120,758.06,-529.42,1984.92
14910,-3.8744,0.9338,0.3114,195.56,-60.67,-1671.33
14920,-3.8744,0.9310,0.3099,-460.69,-138.85,-1530.70
14930,-3.8744,0.9331,0.3085,-820.07,-326.35,-1577.58
14940,-3.8744,0.9368,0.3065,-554.44,-513.85,-1640.08
14950,-3.8744,0.9385,0.3046,-85.69,-763.85,-1655.70
14960,-3.8744,0.9387,0.3037,133.06,-1013.79,-1796.33
14970,-3.8744,0.9392,0.3036,164.31,-1123.17,1953.67
14980,-3.8744,0.9404,0.3047,226.81,-1138.79,1719.30
14990,-3.8744,0.9412,0.3081,383.06,-998.17,1578.67
15000,-3.8744,0.9403,0.3110,476.81,-560.67,1734.92
15010,-3.8744,0.9373,0.3104,367.43,-185.67,-1890.08
15020,-3.8744,0.9333,0.3071,-23.19,-263.85,-1593.20
15030,-3.8744,0.9324,0.3053,-523.19,-685.73,-1546.33
15040,-3.8744,0.9347,0.3057,-648.19,-920.10,-1655.70
15050,-3.8744,0.9376,0.3054,-351.32,-873.23,-1780.70
15060,-3.8744,0.9403,0.3062,23.68,-904.42,-1874.45
15070,-3.8744,0.9410,0.3090,367.43,-810.67,-1936.95
15080,-3.8744,0.9385,0.3113,461.18,-451.29,1969.30
15090,-3.8744,0.9360,0.3121,133.06,-154.42,1891.17
15100,-3.8744,0.9349,0.3121,-179.44,-45.10,1984.92
15110,-3.8744,0.9354,0.3124,-320.07,-45.10,-1765.08
15120,-3.8744,0.9373,0.3136,-257.57,-13.85,-1515.08
15130,-3.8744,0.9373,0.3141,-23.19,142.40,-1343.14
15140,-3.8744,0.9343,0.3121,-23.19,204.90,-1186.89
15150,-3.8744,0.9303,0.3104,-398.19,-45.10,-1046.33
15160,-3.8744,0.9271,0.3125,-913.82,-263.85,-765.08
15170,-3.8744,0.9240,0.3160,-1320.07,1.77,-233.76
15180,-3.8743,0.9199,0.3193,-1726.32,454.90,422.49
15190,-3.8743,0.9167,0.3220,1758.06,876.77,1047.49
15200,-3.8743,0.9166,0.3224,1351.81,1220.52,1578.74
15210,-3.8743,0.9202,0.3202,1336.18,1267.40,1781.86
15220,-3.8743,0.9253,0.3167,1789.31,986.15,1547.49
15230,-3.8743,0.9296,0.3129,-1554.44,533.02,984.99
15240,-3.8743,0.9333,0.3099,-1007.57,48.65,109.99
15250,-3.8744,0.9363,0.3090,-523.19,-326.35,-811.95
15260,-3.8744,0.9364,0.3097,-148.19,-451.35,-1327.58
15270,-3.8744,0.9346,0.3115,-132.57,-357.60,-1421.33
15280,-3.8744,0.9323,0.3123,-366.94,-123.23,-1327.58
15290,-3.8744,0.9302,0.3124,-663.82,-29.48,-1108.83
15300,-3.8744,0.9288,0.3118,-929.44,-13.85,-874.45
15310,-3.8744,0.9287,0.3096,-1101.32,-91.98,-780.70
15320,-3.8744,0.9312,0.3076,-1116.94,-373.23,-858.83
15330,-3.8744,0.9344,0.3074,-804.44,-623.23,-1155.70
15340,-3.8744,0.9369,0.3092,-382.57,-654.48,-1640.08
15350,-3.8744,0.9395,0.3105,-70.07,-420.10,1813.05
15360,-3.8744,0.9418,0.3093,258.06,-248.17,1219.30
15370,-3.8744,0.9446,0.3066,554.93,-404.42,688.05
15380,-3.8744,0.9476,0.3036,914.31,-748.17,250.55
15390,-3.8745,0.9491,0.3016,1304.93,-1138.79,-30.70
15400,-3.8745,0.9476,0.3010,1492.43,-1388.79,-46.33
15410,-3.8744,0.9424,0.3009,1304.93,-1466.92,234.92
15420,-3.8744,0.9357,0.3019,633.06,-1482.54,781.80
15430,-3.8744,0.9320,0.3037,-226.32,-1357.60,1422.42
15440,-3.8744,0.9325,0.3064,-695.07,-1123.23,1953.67
15450,-3.8744,0.9341,0.3088,-632.57,-779.48,-1686.95
15460,-3.8744,0.9348,0.3082,-429.44,-466.98,-1561.95
15470,-3.8744,0.9341,0.3044,-335.69,-545.10,-1780.70
15480,-3.8744,0.9343,0.3020,-429.44,-1029.48,1750.55
15490,-3.8744,0.9376,0.3046,-398.19,-1341.98,1344.30
15500,-3.8744,0.9397,0.3091,23.68,-1013.79,1156.80
15510,-3.8744,0.9380,0.3118,289.31,-435.67,1047.42
15520,-3.8744,0.9358,0.3123,70.56,-91.92,891.17
15530,-3.8744,0.9358,0.3108,-210.69,-29.48,781.80
15540,-3.8744,0.9380,0.3094,-210.69,-216.98,828.67
15550,-3.8744,0.9396,0.3087,70.56,-388.79,984.92
15560,-3.8744,0.9384,0.3077,273.68,-482.54,1234.92
15570,-3.8744,0.9364,0.3081,117.43,-607.54,1391.17
15580,-3.8744,0.9364,0.3088,-132.57,-560.73,1281.80
15590,-3.8744,0.9382,0.3087,-132.57,-466.98,984.92
15600,-3.8744,0.9410,0.3076,101.81,-482.54,531.80
15610,-3.8744,0.9453,0.3059,461.18,-623.17,63.05
15620,-3.8745,0.9481,0.3049,1008.06,-841.92,-327.58
15630,-3.8745,0.9471,0.3055,1367.43,-966.92,-561.95
15640,-3.8745,0.9430,0.3075,1242.43,-888.79,-421.33
15650,-3.8744,0.9385,0.3087,711.18,-638.79,31.80
15660,-3.8744,0.9364,0.3096,133.06,-482.54,594.30
15670,-3.8744,0.9346,0.3118,-132.57,-373.23,1172.42
15680,-3.8744,0.9316,0.3132,-366.94,-91.98,1719.30
15690,-3.8744,0.9294,0.3120,-741.94,95.52,-1858.76
15700,-3.8744,0.9292,0.3092,-1023.19,-60.73,-1686.95
15710,-3.8744,0.9312,0.3064,-1054.44,-420.10,-1749.45
15720,-3.8744,0.9336,0.3060,-804.44,-779.48,-1999.45
15730,-3.8744,0.9349,0.3088,-491.94,-826.35,1844.30
15740,-3.8744,0.9351,0.3121,-320.07,-466.98,1875.55
15750,-3.8744,0.9348,0.3135,-304.44,-45.10,1844.30
15760,-3.8744,0.9363,0.3120,-335.69,126.77,1516.24
15770,-3.8744,0.9396,0.3088,-148.19,-60.73,1156.80
15780,-3.8744,0.9429,0.3054,273.68,-466.92,891.17
15790,-3.8744,0.9446,0.3032,695.56,-904.42,531.80
15800,-3.8744,0.9441,0.3021,914.31,-1185.67,219.30
15810,-3.8744,0.9432,0.3021,851.81,-1326.29,219.30
15820,-3.8744,0.9426,0.3035,742.43,-1326.29,406.80
15830,-3.8744,0.9407,0.3054,664.31,-1154.42,672.42
15840,-3.8744,0.9381,0.3079,414.31,-904.42,969.30
15850,-3.8744,0.9360,0.3108,86.18,-591.92,1406.80
15860,-3.8744,0.9332,0.3132,-179.44,-216.98,1984.92
15870,-3.8744,0.9301,0.3157,-538.82,95.52,-1530.64
15880,-3.8744,0.9280,0.3177,-945.07,408.02,-1186.89
15890,-3.8744,0.9263,0.3191,-1210.69,673.65,-983.76
15900,-3.8744,0.9269,0.3176,-1429.44,845.52,-968.14
15910,-3.8744,0.9303,0.3129,-1351.32,658.02,-1233.76
15920,-3.8744,0.9346,0.3086,-913.82,48.65,-1718.14
15930,-3.8744,0.9404,0.3058,-366.94,-498.23,1797.42
15940,-3.8744,0.9451,0.3032,383.06,-857.54,1344.30
15950,-3.8744,0.9443,0.3026,976.81,-1185.67,1000.55
15960,-3.8744,0.9407,0.3065,883.06,-1263.79,813.05
15970,-3.8744,0.9359,0.3130,414.31,-763.79,1016.17
15980,-3.8744,0.9307,0.3165,-195.07,64.27,1453.74
15990,-3.8744,0.9281,0.3152,-866.94,517.40,1813.11
16000,-3.8744,0.9310,0.3126,-1195.07,345.52,-1936.89
16010,-3.8744,0.9365,0.3116,-820.07,17.40,-1858.76
16020,-3.8744,0.9399,0.3102,-116.94,-107.60,-1983.83
16030,-3.8744,0.9384,0.3083,320.56,-295.04,1859.92
16040,-3.8744,0.9340,0.3082,117.43,-529.42,1766.17
16050,-3.8744,0.9327,0.3101,-445.07,-545.10,1734.92
16060,-3.8744,0.9338,0.3134,-601.32,-310.73,1766.17
16070,-3.8744,0.9338,0.3162,-460.69,111.15,1891.24
16080,-3.8744,0.9331,0.3157,-460.69,470.52,1984.99
16090,-3.8744,0.9343,0.3112,-554.44,408.02,-1952.51
16100,-3.8744,0.9369,0.3064,-398.19,-170.10,-1936.95
16110,-3.8744,0.9387,0.3043,-70.07,-779.48,1859.92
16120,-3.8744,0.9387,0.3041,164.31,-1045.04,1516.17
16130,-3.8744,0.9385,0.3066,164.31,-1076.29,1344.30
16140,-3.8744,0.9382,0.3105,133.06,-748.17,1453.67
16150,-3.8744,0.9380,0.3118,101.81,-248.17,1594.30
16160,-3.8744,0.9380,0.3099,70.56,-91.92,1578.67
16170,-3.8744,0.9386,0.3094,70.56,-326.29,1391.17
16180,-3.8744,0.9401,0.3124,148.68,-388.79,1031.80
16190,-3.8744,0.9403,0.3158,336.18,-13.79,922.42
16200,-3.8744,0.9384,0.3159,367.43,423.71,1141.24
16210,-3.8744,0.9341,0.3132,117.43,439.33,1453.74
16220,-3.8744,0.9301,0.3108,-429.44,95.52,1844.36
16230,-3.8744,0.9294,0.3101,-945.07,-216.98,-1827.58
16240,-3.8744,0.9319,0.3103,-1023.19,-310.73,-1671.33
16250,-3.8744,0.9335,0.3115,-710.69,-279.48,-1655.70
16260,-3.8744,0.9331,0.3131,-507.57,-123.23,-1702.58
16270,-3.8744,0.9326,0.3137,-554.44,79.90,-1780.64
16280,-3.8744,0.9325,0.3119,-616.94,158.02,-1780.64
16290,-3.8744,0.9332,0.3097,-632.57,-76.35,-1890.08
16300,-3.8744,0.9335,0.3107,-538.82,-357.60,1828.67
16310,-3.8744,0.9340,0.3149,-507.57,-232.60,1672.42
16320,-3.8744,0.9349,0.3167,-445.07,314.27,1609.99
16330,-3.8744,0.9352,0.3125,-320.07,533.02,1688.11
16340,-3.8744,0.9358,0.3091,-288.82,1.77,1656.86
16350,-3.8744,0.9365,0.3105,-210.69,-435.73,1453.67
16360,-3.8744,0.9364,0.3157,-116.94,-248.23,1453.67
16370,-3.8744,0.9344,0.3188,-132.57,408.02,1547.49
16380,-3.8744,0.9331,0.3169,-382.57,814.27,1469.36
16390,-3.8744,0.9337,0.3137,-554.44,564.27,1313.11
16400,-3.8744,0.9349,0.3140,-476.32,158.02,1219.36
16410,-3.8744,0.9359,0.3154,-320.07,189.27,1250.61
16420,-3.8744,0.9366,0.3135,-195.07,376.77,1406.86
16430,-3.8744,0.9371,0.3090,-101.32,126.77,1438.11
16440,-3.8744,0.9380,0.3053,-38.82,-451.35,1219.30
16450,-3.8744,0.9403,0.3047,70.56,-920.04,875.55
16460,-3.8744,0.9419,0.3075,367.43,-998.17,656.80
16470,-3.8744,0.9399,0.3120,570.56,-638.79,594.30
16480,-3.8744,0.9368,0.3143,320.56,-60.67,656.80
16490,-3.8744,0.9353,0.3137,-85.69,236.15,734.99
16500,-3.8744,0.9365,0.3120,-273.19,158.02,781.86
16510,-3.8744,0.9386,0.3112,-116.94,-60.73,891.17
16520,-3.8744,0.9371,0.3108,148.68,-170.04,984.92
16530,-3.8744,0.9337,0.3104,-38.82,-216.98,1031.80
16540,-3.8744,0.9319,0.3108,-476.32,-263.85,1156.80
16550,-3.8744,0.9323,0.3118,-710.69,-216.98,1453.67
16560,-3.8744,0.9336,0.3132,-663.82,-91.98,1625.55
16570,-3.8744,0.9341,0.3146,-491.94,95.52,1609.99
16580,-3.8744,0.9344,0.3141,-429.44,267.40,1359.99
16590,-3.8744,0.9363,0.3123,-382.57,204.90,953.74
16600,-3.8744,0.9390,0.3124,-148.19,-29.48,625.55
16610,-3.8744,0.9401,0.3142,195.56,-13.79,625.55
16620,-3.8744,0.9382,0.3134,336.18,220.58,797.49
16630,-3.8744,0.9359,0.3091,101.81,111.21,750.61
16640,-3.8744,0.9352,0.3073,-195.07,-435.73,578.67
16650,-3.8744,0.9364,0.3114,-288.82,-670.10,516.17
16660,-3.8744,0.9385,0.3149,-132.57,-138.85,563.05
16670,-3.8744,0.9392,0.3129,133.06,314.33,547.49
16680,-3.8744,0.9386,0.3080,226.81,48.71,375.61
16690,-3.8744,0.9386,0.3053,148.68,-576.29,203.67
16700,-3.8744,0.9375,0.3080,148.68,-920.04,375.55
16710,-3.8744,0.9331,0.3137,8.06,-576.29,922.42
16720,-3.8744,0.9290,0.3162,-554.44,158.02,1453.74
16730,-3.8744,0.9290,0.3134,-1085.69,470.52,1781.86
16740,-3.8744,0.9324,0.3087,-1085.69,111.15,1703.74
16750,-3.8744,0.9370,0.3065,-648.19,-482.60,1359.92
16760,-3.8744,0.9408,0.3070,-54.44,-763.85,984.92
16770,-3.8744,0.9414,0.3066,429.93,-701.29,531.80
16780,-3.8744,0.9409,0.3059,508.06,-748.17,63.05
16790,-3.8745,0.9410,0.3085,445.56,-841.92,-358.83
16800,-3.8745,0.9397,0.3135,461.18,-513.79,-327.58
16810,-3.8745,0.9370,0.3167,289.31,126.83,-46.26
16820,-3.8744,0.9347,0.3168,-54.44,533.02,219.36
16830,-3.8744,0.9346,0.3158,-351.32,548.65,500.61
16840,-3.8744,0.9364,0.3132,-366.94,423.65,578.74
16850,-3.8744,0.9375,0.3094,-132.57,95.52,469.36
16860,-3.8744,0.9377,0.3063,8.06,-388.79,313.05
16870,-3.8744,0.9379,0.3063,39.31,-795.04,188.05
16880,-3.8744,0.9384,0.3105,54.93,-795.04,156.80
16890,-3.8744,0.9392,0.3148,117.43,-248.17,188.05
16900,-3.8744,0.9384,0.3151,226.81,298.71,297.49
16910,-3.8744,0.9369,0.3108,117.43,329.96,359.99
16920,-3.8744,0.9375,0.3060,-70.07,-216.98,188.05
16930,-3.8745,0.9396,0.3052,8.06,-826.29,-30.70
16940,-3.8744,0.9370,0.3118,304.93,-185.67,500.55
16950,-3.8744,0.9354,0.3097,-54.44,-91.98,688.05
16960,-3.8744,0.9354,0.3076,-257.57,-357.60,578.67
16970,-3.8744,0.9364,0.3087,-257.57,-623.23,313.05
16980,-3.8744,0.9387,0.3123,-132.57,-482.60,156.80
16990,-3.8744,0.9402,0.3135,164.31,-29.42,16.17
17000,-3.8745,0.9402,0.3102,351.81,126.83,-171.26
17010,-3.8745,0.9397,0.3062,351.81,-295.04,-280.70
17020,-3.8745,0.9382,0.3065,289.31,-810.67,-124.45
17030,-3.8744,0.9353,0.3114,101.81,-763.79,266.17
17040,-3.8744,0.9315,0.3145,-273.19,-138.85,734.92
17050,-3.8744,0.9302,0.3120,-757.57,251.77,969.36
17060,-3.8744,0.9326,0.3087,-929.44,-60.73,766.17
17070,-3.8744,0.9380,0.3081,-616.94,-482.60,203.67
17080,-3.8745,0.9435,0.3103,70.56,-560.67,-390.08
17090,-3.8745,0.9446,0.3121,773.68,-279.42,-608.83
17100,-3.8745,0.9418,0.3091,914.31,-45.04,-577.58
17110,-3.8745,0.9395,0.3032,554.93,-435.67,-671.33
17120,-3.8745,0.9399,0.3011,258.06,-1185.67,-749.45
17130,-3.8745,0.9418,0.3037,320.56,-1451.29,-765.08
17140,-3.8745,0.9415,0.3075,554.93,-1123.17,-624.45
17150,-3.8745,0.9382,0.3102,523.68,-638.79,-280.70
17160,-3.8745,0.9351,0.3124,101.81,-295.04,-15.08
17170,-3.8744,0.9337,0.3149,-304.44,-13.85,78.67
17180,-3.8744,0.9353,0.3154,-476.32,314.27,125.61
17190,-3.8744,0.9376,0.3123,-273.19,376.77,172.49
17200,-3.8745,0.9392,0.3068,23.68,-29.42,-15.08
17210,-3.8745,0.9413,0.3025,226.81,-732.54,-530.70
17220,-3.8745,0.9424,0.3025,492.43,-1279.42,-921.33
17230,-3.8745,0.9424,0.3064,633.06,-1279.42,-890.08
17240,-3.8745,0.9426,0.3099,633.06,-779.42,-796.33
17250,-3.8745,0.9419,0.3108,664.31,-326.29,-890.08
17260,-3.8745,0.9397,0.3097,570.56,-216.92,-765.08
17270,-3.8745,0.9382,0.3082,289.31,-357.54,-749.45
17280,-3.8745,0.9376,0.3086,101.81,-545.04,-765.08
17290,-3.8745,0.9359,0.3120,23.68,-498.17,-374.45
17300,-3.8744,0.9326,0.3163,-195.07,-60.73,63.05
17310,-3.8744,0.9299,0.3165,-616.94,486.15,344.36
17320,-3.8744,0.9318,0.3123,-960.69,517.40,422.49
17330,-3.8744,0.9371,0.3088,-726.32,-29.48,250.55
17340,-3.8745,0.9414,0.3088,-38.82,-466.98,-124.45
17350,-3.8745,0.9430,0.3097,508.06,-466.92,-436.95
17360,-3.8745,0.9424,0.3096,711.18,-357.54,-686.95
17370,-3.8745,0.9414,0.3077,633.06,-373.17,-1061.95
17380,-3.8745,0.9426,0.3047,508.06,-607.54,-1499.45
17390,-3.8745,0.9437,0.3044,664.31,-998.17,-1733.83
17400,-3.8745,0.9431,0.3080,804.93,-1029.42,-1608.83
17410,-3.8745,0.9412,0.3105,726.81,-576.29,-1311.95
17420,-3.8745,0.9388,0.3105,476.81,-248.17,-890.08
17430,-3.8745,0.9374,0.3098,179.93,-248.17,-561.95
17440,-3.8745,0.9375,0.3097,-7.57,-341.98,-421.33
17450,-3.8745,0.9384,0.3093,8.06,-357.54,-218.20
17460,-3.8745,0.9382,0.3075,117.43,-404.42,-155.70
17470,-3.8745,0.9380,0.3064,101.81,-638.79,-311.95
17480,-3.8745,0.9396,0.3074,70.56,-779.42,-436.95
17490,-3.8745,0.9414,0.3088,273.68,-654.42,-468.20
17500,-3.8745,0.9408,0.3094,508.06,-466.92,-624.45
17510,-3.8745,0.9388,0.3092,429.93,-388.79,-796.33
17520,-3.8745,0.9386,0.3081,179.93,-420.04,-905.70
17530,-3.8745,0.9412,0.3073,148.68,-560.67,-1077.58
17540,-3.8745,0.9437,0.3076,476.81,-670.04,-1218.20
17550,-3.8745,0.9432,0.3088,804.93,-623.17,-1218.20
17560,-3.8745,0.9409,0.3087,742.43,-466.92,-1218.20
17570,-3.8745,0.9391,0.3076,445.56,-482.54,-1155.70
17580,-3.8745,0.9391,0.3077,211.18,-623.17,-1093.20
17590,-3.8745,0.9398,0.3080,211.18,-607.54,-1015.08
17600,-3.8745,0.9410,0.3068,304.93,-576.29,-999.45
17610,-3.8745,0.9429,0.3051,461.18,-732.54,-1265.08
17620,-3.8745,0.9436,0.3031,695.56,-951.29,-1561.95
17630,-3.8745,0.9421,0.3031,789.31,-1201.29,-1577.58
17640,-3.8745,0.9395,0.3091,601.81,-1201.29,-1358.83
17650,-3.8745,0.9379,0.3159,258.06,-435.67,-1093.20
17660,-3.8745,0.9369,0.3174,54.93,439.33,-827.51
17670,-3.8745,0.9359,0.3142,-70.07,626.77,-561.89
17680,-3.8745,0.9366,0.3090,-195.07,220.52,-530.64
17690,-3.8745,0.9387,0.3053,-101.32,-451.35,-655.70
17700,-3.8745,0.9418,0.3037,164.31,-920.04,-827.58
17710,-3.8745,0.9447,0.3016,554.93,-1123.17,-1171.33
17720,-3.8745,0.9464,0.3004,929.93,-1388.79,-1608.83
17730,-3.8745,0.9473,0.3015,1148.68,-1545.04,-1936.95
17740,-3.8745,0.9474,0.3037,1258.06,-1404.42,1922.42
17750,-3.8745,0.9443,0.3062,1273.68,-1123.17,-1968.20
17760,-3.8745,0.9381,0.3097,883.06,-810.67,-1577.58
17770,-3.8745,0.9323,0.3151,86.18,-357.54,-952.58
17780,-3.8745,0.9288,0.3208,-663.82,329.90,-186.89
17790,-3.8744,0.9279,0.3232,-1101.32,1064.27,578.74
17800,-3.8744,0.9293,0.3198,-1226.32,1376.77,1000.61
17810,-3.8744,0.9329,0.3112,-1038.82,939.27,750.61
17820,-3.8744,0.9382,0.3019,-585.69,-170.10,0.55
17830,-3.8745,0.9441,0.2975,101.81,-1357.54,-811.95
17840,-3.8745,0.9481,0.2992,851.81,-1920.04,-1452.58
17850,-3.8745,0.9496,0.3047,1367.43,-1701.29,-1952.58
17860,-3.8745,0.9475,0.3091,1554.93,-998.17,1781.80
17870,-3.8745,0.9434,0.3104,1289.31,-435.67,1813.05
17880,-3.8745,0.9399,0.3101,758.06,-263.79,1938.05
17890,-3.8745,0.9386,0.3104,320.56,-310.67,-1858.83
17900,-3.8745,0.9385,0.3119,148.68,-263.79,-1468.20
17910,-3.8745,0.9384,0.3112,133.06,-76.29,-921.33
17920,-3.8745,0.9384,0.3071,117.43,-170.04,-702.58
17930,-3.8745,0.9398,0.3014,117.43,-685.67,-1030.70
17940,-3.8745,0.9432,0.2985,304.93,-1420.04,-1546.33
17950,-3.8745,0.9459,0.3004,742.43,-1795.04,-1827.58
17960,-3.8745,0.9447,0.3048,1086.18,-1545.04,-1765.08
17970,-3.8745,0.9409,0.3085,929.93,-982.54,-1624.45
17980,-3.8745,0.9385,0.3099,445.56,-513.79,-1515.08
17990,-3.8745,0.9390,0.3109,133.06,-326.29,-1358.83
18000,-3.8745,0.9406,0.3109,195.56,-201.29,-1265.08
18010,-3.8745,0.9417,0.3097,398.68,-201.29,-1390.08
18020,-3.8745,0.9429,0.3086,539.31,-357.54,-1655.70
18030,-3.8745,0.9432,0.3065,695.56,-498.17,-1858.83
18040,-3.8745,0.9432,0.3036,742.43,-763.79,-1874.45
18050,-3.8745,0.9424,0.3029,742.43,-1138.79,-1780.70
18060,-3.8745,0.9402,0.3054,633.06,-1232.54,-1686.95
18070,-3.8745,0.9386,0.3088,351.81,-904.42,-1546.33
18080,-3.8745,0.9381,0.3105,148.68,-466.92,-1280.70
18090,-3.8745,0.9377,0.3094,86.18,-248.17,-999.45
18100,-3.8745,0.9387,0.3068,39.31,-388.79,-983.83
18110,-3.8745,0.9418,0.3054,164.31,-732.54,-1202.58
18120,-3.8745,0.9440,0.3066,554.93,-904.42,-1374.45
18130,-3.8745,0.9435,0.3088,836.18,-748.17,-1436.95
18140,-3.8745,0.9410,0.3097,773.68,-466.92,-1452.58
18150,-3.8745,0.9390,0.3085,461.18,-357.54,-1452.58
18160,-3.8745,0.9390,0.3060,195.56,-513.79,-1499.45
18170,-3.8745,0.9407,0.3053,195.56,-826.29,-1577.58
18180,-3.8745,0.9427,0.3060,414.31,-920.04,-1624.45
18190,-3.8745,0.9436,0.3058,679.93,-826.29,-1655.70
18200,-3.8745,0.9437,0.3066,789.31,-857.54,-1780.70
18210,-3.8745,0.9423,0.3099,804.93,-748.17,-1858.83
18220,-3.8745,0.9402,0.3119,617.43,-326.29,-1718.20
18230,-3.8745,0.9387,0.3097,351.81,-76.29,-1499.45
18240,-3.8745,0.9379,0.3068,164.31,-357.54,-1343.20
18250,-3.8745,0.9377,0.3079,54.93,-732.54,-1280.70
18260,-3.8745,0.9374,0.3118,39.31,-591.92,-1140.08
18270,-3.8745,0.9369,0.3120,-7.57,-91.98,-952.58
18280,-3.8745,0.9380,0.3080,-70.07,-60.73,-952.58
18290,-3.8745,0.9406,0.3047,70.56,-576.29,-1280.70
18300,-3.8745,0.9438,0.3033,398.68,-998.17,-1624.45
18310,-3.8745,0.9465,0.3042,820.56,-1170.04,-1858.83
18320,-3.8745,0.9467,0.3069,1164.31,-1060.67,1891.17
18330,-3.8745,0.9440,0.3108,1179.93,-716.92,1797.42
18340,-3.8745,0.9407,0.3134,836.18,-216.92,-1968.20
18350,-3.8745,0.9386,0.3126,414.31,111.21,-1624.39
18360,-3.8745,0.9381,0.3105,148.68,17.46,-1358.76
18370,-3.8745,0.9391,0.3093,86.18,-248.17,-1186.95
18380,-3.8745,0.9390,0.3090,211.18,-404.42,-1108.83
18390,-3.8745,0.9384,0.3090,195.56,-451.29,-1108.83
18400,-3.8745,0.9398,0.3091,117.43,-451.29,-1171.33
18410,-3.8745,0.9410,0.3082,304.93,-435.67,-1265.08
18420,-3.8745,0.9413,0.3059,461.18,-545.04,-1483.83
18430,-3.8745,0.9424,0.3029,492.43,-841.92,-1874.45
18440,-3.8745,0.9443,0.3031,633.06,-1232.54,1688.05
18450,-3.8745,0.9459,0.3074,883.06,-1201.29,1531.80
18460,-3.8745,0.9458,0.3098,1086.18,-654.42,1766.17
18470,-3.8745,0.9436,0.3069,1070.56,-341.92,-1952.58
18480,-3.8745,0.9419,0.3026,789.31,-716.92,-1874.45
18490,-3.8745,0.9409,0.3037,570.56,-1263.79,-1780.70
18500,-3.8745,0.9396,0.3105,445.56,-1123.17,-1593.20
18510,-3.8745,0.9387,0.3164,273.68,-248.17,-1405.70
18520,-3.8745,0.9379,0.3151,164.31,501.83,-1390.01
18530,-3.8745,0.9380,0.3101,54.93,329.96,-1593.14
18540,-3.8745,0.9408,0.3094,70.56,-310.67,-1811.95
18550,-3.8745,0.9425,0.3131,429.93,-388.79,-1749.45
18560,-3.8745,0.9406,0.3126,648.68,79.96,-1530.64
18570,-3.8745,0.9376,0.3068,398.68,17.46,-1327.51
18580,-3.8745,0.9360,0.3013,23.68,-732.54,-1140.08
18590,-3.8745,0.9374,0.3027,-179.44,-1435.73,-1030.70
18600,-3.8745,0.9392,0.3094,-7.57,-1248.23,-921.33
18610,-3.8745,0.9377,0.3156,226.81,-388.79,-671.33
18620,-3.8745,0.9354,0.3164,39.31,392.46,-593.14
18630,-3.8745,0.9368,0.3131,-257.57,501.77,-936.89
18640,-3.8745,0.9419,0.3103,-85.69,79.90,-1358.76
18650,-3.8745,0.9468,0.3083,570.56,-279.42,-1640.08
18660,-3.8745,0.9476,0.3060,1195.56,-529.42,-1936.95
18670,-3.8745,0.9448,0.3033,1304.93,-826.29,1766.17
18680,-3.8745,0.9429,0.3016,945.56,-1170.04,1625.55
18690,-3.8745,0.9427,0.3025,695.56,-1388.79,1734.92
18700,-3.8745,0.9419,0.3054,679.93,-1279.42,-1905.70
18710,-3.8745,0.9393,0.3104,570.56,-904.42,-1468.20
18720,-3.8745,0.9364,0.3152,242.43,-263.79,-1077.58
18730,-3.8745,0.9351,0.3156,-132.57,345.52,-796.26
18740,-3.8745,0.9359,0.3134,-304.44,392.40,-718.14
18750,-3.8745,0.9381,0.3127,-195.07,111.15,-827.51
18760,-3.8745,0.9388,0.3137,86.18,33.08,-858.76
18770,-3.8745,0.9385,0.3125,179.93,158.08,-827.51
18780,-3.8745,0.9387,0.3086,133.06,1.83,-1155.64
18790,-3.8745,0.9410,0.3049,164.31,-498.17,-1702.58
18800,-3.8745,0.9443,0.3038,461.18,-966.92,1906.80
18810,-3.8745,0.9446,0.3054,883.06,-1107.54,1781.80
18820,-3.8745,0.9429,0.3093,914.31,-904.42,1953.67
18830,-3.8745,0.9404,0.3132,695.56,-404.42,-1765.08
18840,-3.8745,0.9377,0.3134,383.06,95.58,-1561.89
18850,-3.8745,0.9370,0.3114,39.31,111.21,-1483.76
18860,-3.8745,0.9380,0.3096,-54.44,-138.85,-1483.83
18870,-3.8745,0.9402,0.3074,70.56,-373.17,-1436.95
18880,-3.8745,0.9418,0.3052,351.81,-654.42,-1608.83
18890,-3.8745,0.9427,0.3044,554.93,-935.67,-1827.58
18900,-3.8745,0.9432,0.3063,679.93,-1029.42,-1905.70
18910,-3.8745,0.9423,0.3105,742.43,-795.04,-1843.20
18920,-3.8745,0.9404,0.3140,617.43,-248.17,-1686.95
18930,-3.8745,0.9392,0.3126,383.06,189.33,-1640.01
18940,-3.8745,0.9395,0.3090,226.81,17.46,-1765.01
18950,-3.8745,0.9410,0.3076,258.06,-451.29,-1968.20
18960,-3.8745,0.9426,0.3077,461.18,-623.17,-1999.45
18970,-3.8745,0.9429,0.3074,664.31,-607.54,-1936.95
18980,-3.8745,0.9418,0.3075,695.56,-654.42,-1921.33
18990,-3.8745,0.9388,0.3087,554.93,-638.79,-1827.58
19000,-3.8745,0.9360,0.3109,179.93,-482.54,-1561.95
19010,-3.8745,0.9359,0.3112,-179.44,-201.35,-1265.08
19020,-3.8745,0.9369,0.3086,-195.07,-170.10,-1186.95
19030,-3.8745,0.9392,0.3070,-70.07,-498.23,-1358.83
19040,-3.8745,0.9434,0.3083,226.81,-701.29,-1640.08
19050,-3.8745,0.9460,0.3103,758.06,-529.42,-1921.33
19060,-3.8745,0.9442,0.3116,1101.81,-279.42,-1999.45
19070,-3.8745,0.9403,0.3127,867.43,-107.54,-1890.08
19080,-3.8745,0.9380,0.3138,367.43,33.08,-1811.89
19090,-3.8745,0.9374,0.3156,70.56,173.71,-1749.39
19100,-3.8745,0.9379,0.3153,-7.57,392.40,-1561.89
19110,-3.8745,0.9387,0.3098,54.93,361.21,-1421.26
19120,-3.8745,0.9397,0.3029,164.31,-341.92,-1499.45
19130,-3.8745,0.9407,0.3005,289.31,-1232.54,-1593.20
19140,-3.8745,0.9417,0.3021,414.31,-1529.42,-1608.83
19150,-3.8745,0.9415,0.3051,539.31,-1326.29,-1624.45
19160,-3.8745,0.9406,0.3085,523.68,-951.29,-1733.83
19170,-3.8745,0.9396,0.3110,398.68,-513.79,-1765.08
19180,-3.8745,0.9408,0.3135,273.68,-185.67,-1624.45
19190,-3.8745,0.9420,0.3162,429.93,126.83,-1468.14
19200,-3.8745,0.9409,0.3175,586.18,470.58,-1577.51
19210,-3.8745,0.9398,0.3165,445.56,642.46,-1749.39
19220,-3.8745,0.9392,0.3116,304.93,517.46,-1827.51
19230,-3.8745,0.9393,0.3058,226.81,-107.54,-1858.83
19240,-3.8745,0.9409,0.3032,242.43,-857.54,-1811.95
19250,-3.8745,0.9421,0.3025,445.56,-1185.67,-1796.33
19260,-3.8745,0.9421,0.3021,601.81,-1279.42,-1811.95
19270,-3.8745,0.9423,0.3027,601.81,-1326.29,-1827.58
19280,-3.8745,0.9418,0.3066,617.43,-1248.17,-1780.70
19290,-3.8745,0.9401,0.3118,554.93,-748.17,-1765.08
19300,-3.8745,0.9386,0.3141,336.18,-91.92,-1890.08
19310,-3.8745,0.9390,0.3134,148.68,204.96,1922.49
19320,-3.8745,0.9417,0.3116,195.56,111.21,1656.86
19330,-3.8745,0.9448,0.3097,539.31,-107.54,1469.30
19340,-3.8745,0.9470,0.3079,945.56,-357.54,1375.55
19350,-3.8745,0.9468,0.3073,1226.81,-591.92,1266.17
19360,-3.8745,0.9440,0.3073,1195.56,-670.04,1313.05
19370,-3.8745,0.9406,0.3087,836.18,-670.04,1625.55
19380,-3.8745,0.9379,0.3115,398.68,-482.54,-1874.45
19390,-3.8745,0.9364,0.3118,54.93,-123.17,-1421.33
19400,-3.8745,0.9358,0.3101,-132.57,-91.98,-1140.08
19410,-3.8745,0.9373,0.3081,-210.69,-310.73,-1030.70
19420,-3.8745,0.9401,0.3060,-23.19,-560.73,-1124.45
19430,-3.8745,0.9412,0.3048,336.18,-826.29,-1374.45
19440,-3.8745,0.9413,0.3063,476.81,-982.54,-1733.83
19450,-3.8745,0.9421,0.3105,492.43,-795.04,-1952.58
19460,-3.8745,0.9424,0.3145,601.81,-248.17,1938.05
19470,-3.8745,0.9419,0.3147,633.06,251.83,1750.61
19480,-3.8745,0.9424,0.3124,570.56,283.08,1688.11
19490,-3.8745,0.9431,0.3097,633.06,-13.79,1766.17
19500,-3.8745,0.9426,0.3085,726.81,-357.54,1953.67
19510,-3.8745,0.9403,0.3090,664.31,-513.79,-1624.45
19520,-3.8745,0.9360,0.3108,367.43,-451.29,-999.45
19530,-3.8745,0.9319,0.3126,-179.44,-216.98,-436.95
19540,-3.8745,0.9298,0.3123,-710.69,17.40,-108.76
19550,-3.8745,0.9307,0.3101,-976.32,-29.48,-93.20
19560,-3.8745,0.9332,0.3083,-866.94,-310.73,-327.58
19570,-3.8745,0.9358,0.3086,-538.82,-529.48,-702.58
19580,-3.8745,0.9392,0.3099,-210.69,-498.23,-1218.20
19590,-3.8745,0.9425,0.3113,226.81,-326.29,-1749.45
19600,-3.8745,0.9449,0.3127,648.68,-154.42,1813.05
19610,-3.8745,0.9474,0.3138,961.18,33.08,1453.74
19620,-3.8745,0.9479,0.3129,1273.68,173.71,1234.99
19630,-3.8745,0.9459,0.3102,1336.18,48.71,1266.24
19640,-3.8745,0.9421,0.3088,1086.18,-295.04,1641.17
19650,-3.8745,0.9379,0.3092,601.81,-466.92,-1843.20
19660,-3.8745,0.9347,0.3098,54.93,-420.04,-1311.95
19670,-3.8745,0.9338,0.3112,-351.32,-341.98,-827.58
19680,-3.8745,0.9351,0.3116,-460.69,-170.10,-515.08
19690,-3.8745,0.9369,0.3098,-304.44,-107.60,-468.20
19700,-3.8745,0.9387,0.3077,-70.07,-341.98,-765.08
19710,-3.8745,0.9413,0.3066,164.31,-607.54,-1311.95
19720,-3.8745,0.9442,0.3068,492.43,-748.17,-1874.45
19730,-3.8745,0.9458,0.3092,867.43,-732.54,1766.17
19740,-3.8745,0.9454,0.3120,1070.56,-420.04,1656.80
19750,-3.8745,0.9430,0.3119,1023.68,-60.67,1734.92
19760,-3.8745,0.9407,0.3120,711.18,-76.29,1859.92
19770,-3.8745,0.9396,0.3134,414.31,-60.67,1906.80
19780,-3.8745,0.9391,0.3130,273.68,111.21,-1952.51
19790,-3.8745,0.9401,0.3116,211.18,64.33,-1718.14
19800,-3.8745,0.9414,0.3104,336.18,-107.54,-1515.08
19810,-3.8745,0.9417,0.3090,508.06,-263.79,-1515.08
19820,-3.8745,0.9407,0.3087,539.31,-451.29,-1515.08
19830,-3.8745,0.9370,0.3103,414.31,-482.54,-1296.33
19840,-3.8745,0.9321,0.3116,-54.44,-279.48,-905.70
19850,-3.8745,0.9307,0.3115,-679.44,-107.60,-530.70
19860,-3.8745,0.9346,0.3101,-866.94,-123.23,-483.83
19870,-3.8745,0.9410,0.3070,-366.94,-310.73,-858.83
19880,-3.8745,0.9468,0.3043,461.18,-701.29,-1452.58
19890,-3.8745,0.9486,0.3044,1195.56,-1045.04,1891.17
19900,-3.8745,0.9459,0.3083,1429.93,-1029.42,1359.92
19910,-3.8745,0.9421,0.3165,1086.18,-529.42,1188.05
19920,-3.8745,0.9386,0.3236,601.81,517.46,1484.99
19930,-3.8745,0.9369,0.3253,148.68,1423.71,1922.49
19940,-3.8745,0.9382,0.3220,-70.07,1642.40,-1765.01
19950,-3.8745,0.9403,0.3164,101.81,1220.58,-1624.39
19960,-3.8745,0.9409,0.3134,367.43,501.83,-1546.26
19970,-3.8745,0.9395,0.3138,445.56,111.21,-1358.76
19980,-3.8745,0.9366,0.3154,258.06,173.71,-1046.26
19990,-3.8745,0.9341,0.3138,-101.32,376.77,-765.01
20000,-3.8745,0.9344,0.3093,-429.44,173.65,-561.89
20010,-3.8745,0.9365,0.3081,-382.57,-404.48,-499.45
20020,-3.8745,0.9377,0.3107,-116.94,-560.73,-608.83
20030,-3.8745,0.9382,0.3147,39.31,-232.54,-827.58
20040,-3.8745,0.9377,0.3182,101.81,283.08,-1171.26
20050,-3.8745,0.9370,0.3212,39.31,736.21,-1608.76
20060,-3.8745,0.9388,0.3235,-54.44,1111.15,1953.74
20070,-3.8745,0.9415,0.3230,179.93,1408.08,1719.36
20080,-3.8745,0.9419,0.3204,523.68,1345.58,1891.24
20090,-3.8745,0.9395,0.3206,570.56,1017.46,-1749.39
20100,-3.8745,0.9353,0.3243,258.06,1033.08,-1280.64
20110,-3.8745,0.9323,0.3274,-273.19,1517.40,-843.14
20120,-3.8745,0.9318,0.3243,-663.82,1908.02,-530.64
20130,-3.8745,0.9343,0.3164,-726.32,1517.40,-499.39
20140,-3.8745,0.9363,0.3118,-398.19,501.77,-530.64
20150,-3.8745,0.9337,0.3149,-148.19,-91.98,-265.08
20160,-3.8744,0.9283,0.3209,-476.32,314.27,94.36
20170,-3.8744,0.9238,0.3247,-1163.82,1079.90,469.36
20180,-3.8744,0.9230,0.3253,-1741.94,1564.27,703.74
20190,-3.8744,0.9265,0.3256,-1851.32,1642.40,703.74
20200,-3.8744,0.9326,0.3268,-1398.19,1673.65,438.11
20210,-3.8745,0.9375,0.3258,-616.94,1829.90,-218.14
20220,-3.8745,0.9407,0.3219,8.06,1704.96,-1046.26
20230,-3.8745,0.9431,0.3184,414.31,1204.96,-1733.76
20240,-3.8745,0.9442,0.3175,726.81,751.83,1859.99
20250,-3.8745,0.9445,0.3192,867.43,642.46,1891.24
20260,-3.8745,0.9423,0.3206,898.68,861.21,-1671.26
20270,-3.8745,0.9365,0.3193,617.43,1033.08,-1077.51
20280,-3.8745,0.9314,0.3171,-116.94,876.77,-546.26
20290,-3.8745,0.9302,0.3156,-773.19,595.52,-202.51
20300,-3.8744,0.9320,0.3138,-929.44,392.40,31.86
20310,-3.8744,0.9347,0.3125,-695.07,173.65,109.99
20320,-3.8744,0.9360,0.3116,-351.32,1.77,31.86
20330,-3.8744,0.9347,0.3137,-179.44,-107.60,31.80
20340,-3.8744,0.9320,0.3190,-351.32,158.02,125.61
20350,-3.8744,0.9312,0.3236,-695.07,829.90,172.49
20360,-3.8744,0.9327,0.3242,-804.44,1423.65,47.49
20370,-3.8745,0.9357,0.3213,-601.32,1501.77,-202.51
20380,-3.8745,0.9397,0.3168,-226.32,1126.77,-624.39
20390,-3.8745,0.9421,0.3148,289.31,548.71,-1061.89
20400,-3.8745,0.9406,0.3180,601.81,298.71,-1202.51
20410,-3.8745,0.9364,0.3219,398.68,704.96,-1061.89
20420,-3.8745,0.9338,0.3223,-132.57,1204.90,-890.01
20430,-3.8745,0.9348,0.3193,-460.69,1251.77,-874.39
20440,-3.8745,0.9384,0.3160,-335.69,876.77,-1015.01
20450,-3.8745,0.9418,0.3154,117.43,454.96,-1108.76
20460,-3.8745,0.9397,0.3186,554.93,376.83,-999.39
20470,-3.8745,0.9320,0.3225,289.31,783.08,-640.01
20480,-3.8745,0.9264,0.3235,-695.07,1283.02,-327.51
20490,-3.8745,0.9272,0.3223,-1413.82,1408.02,-77.51
20500,-3.8744,0.9321,0.3201,-1304.44,1251.77,125.61
20510,-3.8744,0.9358,0.3176,-679.44,970.52,250.61
20520,-3.8744,0.9364,0.3165,-210.69,658.02,203.74
20530,-3.8745,0.9357,0.3173,-132.57,517.40,-30.64
20540,-3.8745,0.9352,0.3180,-226.32,611.15,-249.39
20550,-3.8745,0.9355,0.3174,-288.82,704.90,-249.39
20560,-3.8745,0.9360,0.3171,-241.94,626.77,-265.01
20570,-3.8745,0.9355,0.3193,-179.44,595.52,-358.76
20580,-3.8745,0.9342,0.3219,-241.94,876.77,-515.01
20590,-3.8745,0.9338,0.3214,-413.82,1204.90,-780.64
20600,-3.8745,0.9362,0.3190,-460.69,1142.40,-1030.64
20610,-3.8745,0.9406,0.3154,-163.82,829.90,-1249.39
20620,-3.8745,0.9437,0.3130,398.68,376.83,-1296.26
20630,-3.8745,0.9427,0.3141,804.93,64.33,-1140.01
20640,-3.8745,0.9388,0.3174,679.93,204.96,-983.76
20650,-3.8745,0.9344,0.3207,179.93,626.83,-827.51
20660,-3.8745,0.9320,0.3228,-382.57,1048.65,-452.51
20670,-3.8745,0.9315,0.3223,-695.07,1314.27,-46.26
20680,-3.8744,0.9320,0.3191,-757.57,1251.77,203.74
20690,-3.8744,0.9331,0.3160,-695.07,845.52,266.24
20700,-3.8744,0.9336,0.3164,-554.44,454.90,125.61
20710,-3.8745,0.9336,0.3206,-491.94,501.77,-61.89
20720,-3.8745,0.9348,0.3245,-491.94,1033.02,-249.39
20730,-3.8745,0.9369,0.3240,-335.69,1533.02,-624.39
20740,-3.8745,0.9392,0.3195,-70.07,1470.52,-1061.89
20750,-3.8745,0.9414,0.3151,226.81,892.46,-1358.76
20760,-3.8745,0.9429,0.3138,508.06,329.96,-1358.76
20770,-3.8745,0.9410,0.3160,695.56,173.71,-1015.01
20780,-3.8745,0.9362,0.3182,461.18,454.96,-468.14
20790,-3.8744,0.9312,0.3180,-163.82,736.15,16.24
20800,-3.8744,0.9291,0.3182,-804.44,704.90,297.49
20810,-3.8744,0.9304,0.3203,-1070.07,736.15,375.61
20820,-3.8744,0.9318,0.3225,-898.19,1001.77,344.36
20830,-3.8744,0.9312,0.3234,-726.32,1283.02,172.49
20840,-3.8745,0.9315,0.3220,-804.44,1392.40,-124.39
20850,-3.8745,0.9357,0.3195,-757.57,1220.52,-436.89
20860,-3.8745,0.9406,0.3177,-226.32,892.40,-796.26
20870,-3.8745,0.9420,0.3181,398.68,673.71,-1093.14
20880,-3.8745,0.9395,0.3198,586.18,720.58,-1077.51
20890,-3.8745,0.9346,0.3207,258.06,939.33,-671.26
20900,-3.8745,0.9299,0.3196,-366.94,1048.65,-249.39
20910,-3.8745,0.9301,0.3185,-960.69,908.02,-108.76
20920,-3.8745,0.9343,0.3202,-945.07,767.40,-280.64
20930,-3.8745,0.9374,0.3214,-398.19,986.15,-483.76
20940,-3.8745,0.9384,0.3175,-7.57,1142.40,-718.14
20950,-3.8745,0.9399,0.3116,117.43,642.46,-1124.39
20960,-3.8745,0.9412,0.3110,320.56,-107.54,-1421.33
20970,-3.8745,0.9396,0.3164,476.81,-185.67,-1280.70
20980,-3.8745,0.9354,0.3224,273.68,501.83,-811.89
20990,-3.8745,0.9319,0.3223,-257.57,1267.40,-405.64
21000,-3.8745,0.9321,0.3180,-710.69,1251.77,-468.14
21010,-3.8745,0.9358,0.3168,-679.44,704.90,-811.89
21020,-3.8745,0.9396,0.3186,-210.69,548.65,-1015.01
21030,-3.8745,0.9399,0.3188,273.68,783.08,-952.51
21040,-3.8745,0.9374,0.3158,320.56,814.33,-983.76
21050,-3.8745,0.9351,0.3132,-7.57,423.65,-1202.51
21060,-3.8745,0.9370,0.3160,-304.44,95.52,-1171.26
21070,-3.8745,0.9406,0.3199,-54.44,454.90,-827.51
21080,-3.8745,0.9407,0.3188,398.68,954.96,-608.76
21090,-3.8745,0.9388,0.3147,414.31,814.33,-843.14
21100,-3.8745,0.9381,0.3121,179.93,283.08,-1296.26
21110,-3.8745,0.9391,0.3151,86.18,-45.04,-1421.33
21120,-3.8745,0.9398,0.3215,211.18,329.96,-1186.89
21130,-3.8745,0.9369,0.3254,304.93,1158.08,-843.14
21140,-3.8745,0.9327,0.3236,-70.07,1658.02,-749.39
21150,-3.8745,0.9314,0.3190,-601.32,1423.65,-811.89
21160,-3.8745,0.9321,0.3151,-773.19,829.90,-749.39
21170,-3.8745,0.9341,0.3145,-679.44,329.90,-546.26
21180,-3.8745,0.9363,0.3165,-429.44,251.77,-296.26
21190,-3.8745,0.9370,0.3175,-148.19,517.40,-202.51
21200,-3.8745,0.9369,0.3158,-54.44,642.40,-390.01
21210,-3.8745,0.9365,0.3134,-70.07,423.65,-671.26
21220,-3.8745,0.9374,0.3121,-116.94,111.15,-890.01
21230,-3.8745,0.9407,0.3136,-7.57,-45.10,-1061.95
21240,-3.8745,0.9420,0.3176,414.31,142.46,-1124.39
21250,-3.8745,0.9396,0.3185,586.18,658.08,-1296.26
21260,-3.8745,0.9391,0.3157,273.68,767.46,-1530.64
21270,-3.8745,0.9415,0.3134,211.18,408.08,-1796.26
21280,-3.8745,0.9426,0.3151,523.68,111.21,-1936.89
21290,-3.8745,0.9395,0.3199,664.31,329.96,-1593.14
21300,-3.8745,0.9324,0.3219,258.06,954.96,-827.51
21310,-3.8745,0.9275,0.3195,-648.19,1204.90,-108.76
21320,-3.8744,0.9283,0.3164,-1273.19,892.40,219.36
21330,-3.8744,0.9340,0.3175,-1163.82,501.77,203.74
21340,-3.8744,0.9387,0.3217,-445.07,642.40,47.49
21350,-3.8745,0.9384,0.3215,164.31,1173.71,-46.26
21360,-3.8745,0.9364,0.3168,117.43,1158.08,-202.51
21370,-3.8745,0.9371,0.3137,-132.57,548.65,-671.26
21380,-3.8745,0.9392,0.3151,-38.82,158.02,-1218.14
21390,-3.8745,0.9404,0.3187,226.81,329.96,-1436.89
21400,-3.8745,0.9387,0.3217,383.06,798.71,-1233.76
21410,-3.8745,0.9353,0.3206,164.31,1173.71,-952.51
21420,-3.8745,0.9341,0.3182,-273.19,1033.02,-780.64
21430,-3.8745,0.9351,0.3176,-429.44,736.15,-515.01
21440,-3.8745,0.9355,0.3163,-304.44,658.02,-171.26
21450,-3.8745,0.9348,0.3110,-241.94,486.15,-108.76
21460,-3.8745,0.9360,0.3115,-335.69,-185.73,-171.33
21470,-3.8745,0.9375,0.3229,-179.44,-123.23,-30.70
21480,-3.8744,0.9362,0.3298,8.06,1329.96,156.86
21490,-3.8744,0.9353,0.3235,-163.82,-1779.48,94.36
21500,-3.8745,0.9373,0.3116,-273.19,1408.02,-483.76
21510,-3.8745,0.9424,0.3068,-23.19,-107.60,-1327.58
21520,-3.8745,0.9448,0.3127,633.06,-732.54,-1624.45
21530,-3.8745,0.9392,0.3206,945.56,33.08,-1233.76
21540,-3.8745,0.9299,0.3243,226.81,1033.08,-530.64
21550,-3.8744,0.9242,0.3237,-960.69,1517.40,156.86
21560,-3.8744,0.9249,0.3198,-1695.07,1439.27,594.36
21570,-3.8744,0.9301,0.3163,-1601.32,939.27,594.36
21580,-3.8744,0.9346,0.3151,-945.07,486.15,141.24
21590,-3.8745,0.9375,0.3154,-366.94,329.90,-483.76
21600,-3.8745,0.9407,0.3146,8.06,376.83,-1296.26
21610,-3.8745,0.9442,0.3118,414.31,267.46,1734.99
21620,-3.8745,0.9473,0.3110,867.43,-91.92,859.92
21630,-3.8745,0.9475,0.3141,1258.06,-185.67,500.55
21640,-3.8745,0.9437,0.3182,1289.31,204.96,734.99
21650,-3.8745,0.9403,0.3209,804.93,736.21,1203.74
21660,-3.8745,0.9388,0.3226,367.43,1079.96,1766.24
21670,-3.8745,0.9374,0.3231,179.93,1298.71,-1561.89
21680,-3.8745,0.9360,0.3219,-7.57,1361.15,-890.01
21690,-3.8745,0.9346,0.3193,-179.44,1204.90,-374.39
21700,-3.8745,0.9335,0.3151,-366.94,876.77,-61.89
21710,-3.8745,0.9343,0.3114,-507.57,329.90,-46.26
21720,-3.8745,0.9355,0.3108,-398.19,-138.85,-186.95
21730,-3.8745,0.9352,0.3124,-241.94,-216.98,-249.45
21740,-3.8745,0.9343,0.3132,-288.82,-13.85,-218.20
21750,-3.8745,0.9349,0.3134,-398.19,95.52,-390.01
21760,-3.8745,0.9373,0.3130,-320.07,111.15,-765.01
21770,-3.8745,0.9402,0.3126,-23.19,64.27,-1093.14
21780,-3.8745,0.9410,0.3146,351.81,17.46,-1390.01
21790,-3.8745,0.9397,0.3182,461.18,267.46,-1546.26
21800,-3.8745,0.9382,0.3207,289.31,736.21,-1421.26
21810,-3.8745,0.9379,0.3201,101.81,1048.71,-1218.14
21820,-3.8745,0.9375,0.3181,54.93,970.58,-1124.39
21830,-3.8745,0.9368,0.3168,8.06,720.58,-1093.14
21840,-3.8745,0.9362,0.3169,-85.69,548.65,-952.51
21850,-3.8745,0.9346,0.3179,-163.82,564.27,-765.01
21860,-3.8745,0.9323,0.3182,-366.94,689.27,-608.76
21870,-3.8745,0.9316,0.3184,-663.82,736.15,-499.39
21880,-3.8745,0.9341,0.3192,-741.94,751.77,-530.64
21890,-3.8745,0.9371,0.3190,-429.44,861.15,-686.89
21900,-3.8745,0.9384,0.3158,-38.82,829.90,-921.26
21910,-3.8745,0.9388,0.3124,117.43,423.71,-1233.76
21920,-3.8745,0.9404,0.3116,179.93,-13.79,-1608.83
21930,-3.8745,0.9421,0.3127,383.06,-107.54,-1702.58
21940,-3.8745,0.9412,0.3152,601.81,33.08,-1499.39
21950,-3.8745,0.9377,0.3180,476.81,345.58,-1249.39
21960,-3.8745,0.9347,0.3193,39.31,704.96,-1061.89
21970,-3.8745,0.9340,0.3187,-351.32,876.77,-890.01
21980,-3.8745,0.9349,0.3164,-445.07,798.65,-811.89
21990,-3.8745,0.9371,0.3124,-320.07,501.77,-874.39
22000,-3.8745,0.9397,0.3110,-38.82,-13.85,-1108.83
22010,-3.8745,0.9403,0.3142,289.31,-185.67,-1327.58
22020,-3.8745,0.9393,0.3164,367.43,220.58,-1343.14
22030,-3.8745,0.9386,0.3153,242.43,501.83,-1280.64
22040,-3.8745,0.9384,0.3164,148.68,361.21,-1155.64
22050,-3.8745,0.9362,0.3213,117.43,501.83,-890.01
22060,-3.8745,0.9332,0.3243,-163.82,1126.77,-561.89
22070,-3.8745,0.9330,0.3207,-538.82,1517.40,-483.76
22080,-3.8745,0.9353,0.3138,-570.07,1048.65,-640.01
22090,-3.8745,0.9385,0.3109,-273.19,173.65,-968.14
22100,-3.8745,0.9404,0.3119,133.06,-201.29,-1280.70
22110,-3.8745,0.9399,0.3138,383.06,-76.29,-1374.45
22120,-3.8745,0.9387,0.3151,320.56,173.71,-1280.64
22130,-3.8745,0.9382,0.3158,164.31,329.96,-1155.64
22140,-3.8745,0.9374,0.3165,101.81,423.71,-1093.14
22150,-3.8745,0.9368,0.3169,-7.57,517.40,-1108.76
22160,-3.8745,0.9370,0.3167,-85.69,564.27,-1202.51
22170,-3.8745,0.9380,0.3167,-54.44,533.02,-1358.76
22180,-3.8745,0.9396,0.3181,70.56,533.08,-1452.51
22190,-3.8745,0.9407,0.3187,273.68,720.58,-1390.01
22200,-3.8745,0.9395,0.3145,414.31,798.71,-1265.01
22210,-3.8745,0.9380,0.3071,258.06,251.83,-1327.51
22220,-3.8745,0.9396,0.3032,70.56,-685.67,-1515.08
22230,-3.8745,0.9420,0.3051,273.68,-1185.67,-1530.70
22240,-3.8745,0.9407,0.3099,586.18,-951.29,-1374.45
22250,-3.8745,0.9366,0.3157,414.31,-326.29,-1249.45
22260,-3.8745,0.9341,0.3197,-101.32,408.02,-1155.64
22270,-3.8745,0.9347,0.3215,-429.44,923.65,-1030.64
22280,-3.8745,0.9368,0.3226,-351.32,1158.02,-968.14
22290,-3.8745,0.9374,0.3213,-85.69,1298.65,-1140.01
22300,-3.8745,0.9380,0.3177,-7.57,1126.77,-1546.26
22310,-3.8745,0.9396,0.3151,70.56,673.71,-1968.14
22320,-3.8745,0.9398,0.3135,273.68,329.96,1844.36
22330,-3.8745,0.9395,0.3121,304.93,126.83,1938.11
22340,-3.8745,0.9393,0.3121,258.06,-45.04,-1780.70
22350,-3.8745,0.9386,0.3114,242.43,-45.04,-1421.33
22360,-3.8745,0.9377,0.3098,148.68,-138.79,-1186.95
22370,-3.8745,0.9388,0.3123,39.31,-341.92,-1311.95
22380,-3.8745,0.9413,0.3184,179.93,-29.42,-1374.45
22390,-3.8745,0.9408,0.3207,492.43,751.83,-1140.01
22400,-3.8745,0.9366,0.3177,429.93,1048.71,-1124.39
22410,-3.8745,0.9343,0.3149,-101.32,673.65,-1468.14
22420,-3.8745,0.9373,0.3148,-398.19,314.27,-1686.89
22430,-3.8745,0.9413,0.3151,-23.19,298.65,-1718.14
22440,-3.8745,0.9415,0.3137,492.43,329.96,-1655.64
22450,-3.8745,0.9384,0.3109,523.68,158.08,-1483.76
22460,-3.8745,0.9364,0.3081,117.43,-201.29,-1265.08
22470,-3.8745,0.9370,0.3088,-132.57,-560.73,-1077.58
22480,-3.8745,0.9376,0.3146,-54.44,-466.98,-905.70
22490,-3.8745,0.9366,0.3204,23.68,267.46,-655.64
22500,-3.8745,0.9348,0.3212,-101.32,1017.40,-515.01
22510,-3.8745,0.9346,0.3176,-335.69,1111.15,-780.64
22520,-3.8745,0.9376,0.3140,-366.94,658.02,-1186.89
22530,-3.8745,0.9407,0.3123,23.68,189.33,-1452.51
22540,-3.8745,0.9403,0.3141,414.31,-29.42,-1483.83
22550,-3.8745,0.9366,0.3190,367.43,204.96,-1233.76
22560,-3.8745,0.9332,0.3229,-101.32,829.90,-1077.51
22570,-3.8745,0.9326,0.3234,-538.82,1329.90,-1015.01
22580,-3.8745,0.9344,0.3217,-616.94,1392.40,-952.51
22590,-3.8745,0.9366,0.3185,-382.57,1173.65,-1046.26
22600,-3.8745,0.9381,0.3154,-101.32,767.40,-1233.76
22610,-3.8745,0.9395,0.3123,86.18,376.83,-1483.76
22620,-3.8745,0.9412,0.3091,258.06,-29.42,-1686.95
22630,-3.8745,0.9424,0.3079,476.81,-435.67,-1858.83
22640,-3.8745,0.9426,0.3087,633.06,-591.92,-1952.58
22650,-3.8745,0.9423,0.3114,664.31,-482.54,1969.30
22660,-3.8745,0.9413,0.3146,617.43,-138.79,1984.92
22670,-3.8745,0.9404,0.3160,492.43,267.46,-1843.14
22680,-3.8745,0.9406,0.3159,383.06,454.96,-1561.89
22690,-3.8745,0.9395,0.3151,398.68,439.33,-1296.26
22700,-3.8745,0.9368,0.3157,258.06,329.96,-1015.01
22710,-3.8745,0.9342,0.3191,-85.69,408.02,-671.26
22720,-3.8745,0.9321,0.3215,-413.82,845.52,-390.01
22730,-3.8745,0.9319,0.3212,-679.44,1158.02,-186.89
22740,-3.8745,0.9325,0.3202,-710.69,1111.15,-155.64
22750,-3.8745,0.9336,0.3196,-632.57,986.15,-296.26
22760,-3.8745,0.9352,0.3192,-491.94,908.02,-530.64
22770,-3.8745,0.9362,0.3187,-288.82,861.15,-796.26
22780,-3.8745,0.9368,0.3184,-163.82,798.65,-1093.14
22790,-3.8745,0.9377,0.3180,-85.69,751.77,-1218.14
22800,-3.8745,0.9381,0.3186,39.31,704.96,-1124.39
22810,-3.8745,0.9360,0.3199,86.18,783.08,-811.89
22820,-3.8745,0.9314,0.3219,-179.44,954.90,-327.51
22830,-3.8744,0.9280,0.3235,-773.19,1204.90,47.49
22840,-3.8744,0.9279,0.3226,-1210.69,1408.02,219.36
22850,-3.8744,0.9299,0.3199,-1226.32,1298.65,250.61
22860,-3.8744,0.9327,0.3182,-960.69,954.90,0.61
22870,-3.8745,0.9343,0.3196,-601.32,736.15,-358.76
22880,-3.8745,0.9344,0.3225,-398.19,908.02,-624.39
22890,-3.8745,0.9347,0.3232,-382.57,1283.02,-780.64
22900,-3.8745,0.9355,0.3201,-351.32,1376.77,-890.01
22910,-3.8745,0.9376,0.3154,-241.94,970.52,-999.39
22920,-3.8745,0.9397,0.3142,23.68,376.83,-1077.51
22930,-3.8745,0.9396,0.3162,289.31,220.58,-1061.89
22940,-3.8745,0.9375,0.3174,273.68,470.58,-905.64
22950,-3.8745,0.9351,0.3160,8.06,626.83,-718.14
22960,-3.8745,0.9355,0.3148,-304.44,454.90,-796.26
22970,-3.8745,0.9382,0.3147,-241.94,298.65,-1280.64
22980,-3.8745,0.9409,0.3142,101.81,283.08,-1936.89
22990,-3.8745,0.9426,0.3129,445.56,220.58,1406.86
23000,-3.8745,0.9442,0.3114,664.31,48.71,781.86
23010,-3.8745,0.9468,0.3103,867.43,-138.79,281.80
23020,-3.8745,0.9482,0.3112,1195.56,-279.42,0.55
23030,-3.8745,0.9468,0.3159,1383.06,-170.04,0.55
23040,-3.8745,0.9434,0.3207,1195.56,439.33,250.61
23050,-3.8745,0.9412,0.3204,758.06,1048.71,641.24
23060,-3.8745,0.9403,0.3171,476.81,1017.46,1047.49
23070,-3.8745,0.9399,0.3137,367.43,595.58,1344.36
23080,-3.8745,0.9402,0.3113,320.56,158.08,1547.49
23090,-3.8745,0.9413,0.3112,351.81,-154.42,1766.17
23100,-3.8745,0.9430,0.3113,492.43,-170.04,1891.17
23110,-3.8745,0.9451,0.3087,711.18,-154.42,1797.42
23120,-3.8745,0.9460,0.3058,976.81,-482.54,1484.92
23130,-3.8745,0.9457,0.3069,1101.81,-857.54,1109.92
23140,-3.8745,0.9452,0.3112,1054.93,-716.92,828.67
23150,-3.8745,0.9456,0.3143,992.43,-170.04,734.92
23160,-3.8745,0.9456,0.3159,1039.31,236.21,734.99
23170,-3.8745,0.9434,0.3174,1039.31,439.33,859.99
23180,-3.8745,0.9408,0.3193,758.06,626.83,1141.24
23190,-3.8745,0.9384,0.3212,429.93,876.83,1641.24
23200,-3.8745,0.9365,0.3217,117.43,1111.21,-1843.14
23210,-3.8745,0.9366,0.3198,-116.94,1173.65,-1499.39
23220,-3.8745,0.9363,0.3192,-101.32,939.27,-1202.51
23230,-3.8745,0.9341,0.3220,-148.19,861.15,-843.14
23240,-3.8745,0.9304,0.3257,-429.44,1220.52,-390.01
23250,-3.8744,0.9270,0.3292,-898.19,1689.27,219.36
23260,-3.8744,0.9246,0.3311,-1335.69,-1857.60,859.99
23270,-3.8744,0.9233,0.3278,-1648.19,-1623.23,1281.86
23280,-3.8744,0.9257,0.3207,-1804.44,1954.90,1375.61
23290,-3.8744,0.9307,0.3156,-1507.57,1048.65,1219.36
23300,-3.8744,0.9355,0.3153,-866.94,392.40,969.36
23310,-3.8744,0.9382,0.3201,-241.94,361.15,625.61
23320,-3.8744,0.9381,0.3256,101.81,970.58,281.86
23330,-3.8745,0.9375,0.3273,86.18,1673.71,-140.01
23340,-3.8745,0.9385,0.3267,8.06,1892.46,-577.51
23350,-3.8745,0.9404,0.3257,133.06,1814.33,-874.39
23360,-3.8745,0.9410,0.3240,383.06,1689.33,-1030.64
23370,-3.8745,0.9415,0.3237,461.18,1470.58,-999.39
23380,-3.8745,0.9392,0.3251,523.68,1439.33,-577.51
23390,-3.8744,0.9326,0.3253,226.81,1611.21,266.24
