timestamp_ms,ax,ay,az,gx,gy,gz
0,-3.8748,0.9999,0.1963,-1304.44,1158.14,-671.51
10,-3.8748,1.0120,0.1993,-7.57,1126.89,-952.76
20,-3.8748,1.0233,0.2061,1539.31,1517.58,-1234.01
30,-3.8748,1.0315,0.2134,-1007.57,-1623.05,-1296.51
40,-3.8748,1.0349,0.2179,39.31,-685.49,-1218.38
50,-3.8748,1.0322,0.2181,476.81,-107.36,-937.13
60,-3.8748,1.0238,0.2169,133.06,-76.11,-530.88
70,-3.8748,1.0115,0.2169,-945.07,-232.42,-140.26
80,-3.8746,0.9974,0.2179,1476.81,-232.42,500.37
90,-3.8746,0.9866,0.2206,-320.07,-107.48,1359.74
100,-3.8746,0.9806,0.2231,-1710.69,236.27,-1890.20
110,-3.8746,0.9753,0.2218,1523.68,564.39,-1468.32
120,-3.8746,0.9684,0.2162,851.81,392.52,-1343.32
130,-3.8746,0.9611,0.2128,-38.82,-326.29,-1312.13
140,-3.8746,0.9559,0.2157,-976.32,-763.79,-1280.88
150,-3.8746,0.9546,0.2214,-1632.57,-388.79,-1171.51
160,-3.8746,0.9573,0.2247,-1804.44,345.58,-999.57
170,-3.8746,0.9597,0.2251,-1460.69,767.46,-827.70
180,-3.8746,0.9594,0.2261,-1148.19,814.33,-577.70
190,-3.8746,0.9578,0.2280,-1195.07,939.33,-390.20
200,-3.8746,0.9564,0.2308,-1398.19,1189.33,-405.82
210,-3.8746,0.9570,0.2334,-1570.07,1548.71,-421.45
220,-3.8746,0.9580,0.2335,-1491.94,1876.83,-374.57
230,-3.8746,0.9576,0.2308,-1366.94,1892.46,-405.82
240,-3.8746,0.9573,0.2303,-1413.82,1548.71,-358.95
250,-3.8746,0.9598,0.2365,-1460.69,1486.21,-140.20
260,-3.8745,0.9652,0.2438,-1132.57,-1732.54,344.18
270,-3.8745,0.9692,0.2446,-445.07,-795.04,1094.18
280,-3.8745,0.9673,0.2391,70.56,-685.61,1781.68
290,-3.8745,0.9585,0.2330,-179.44,-1388.79,-1733.95
300,-3.8745,0.9453,0.2301,-1304.44,1829.96,-1374.57
310,-3.8745,0.9341,0.2288,1008.06,1454.96,-718.32
320,-3.8745,0.9288,0.2240,-429.44,1283.02,-46.45
330,-3.8744,0.9283,0.2156,-1101.32,673.65,187.93
340,-3.8744,0.9323,0.2097,-1163.82,-404.48,31.62
350,-3.8745,0.9384,0.2117,-663.82,-1154.48,-359.01
360,-3.8745,0.9446,0.2200,117.43,-904.42,-562.13
370,-3.8745,0.9513,0.2278,914.31,158.08,-452.70
380,-3.8745,0.9573,0.2288,1773.68,1158.08,-483.95
390,-3.8745,0.9596,0.2231,-1460.69,1283.08,-968.32
400,-3.8745,0.9576,0.2190,-1163.82,564.33,-1843.32
410,-3.8745,0.9541,0.2211,-1413.82,33.08,1406.68
420,-3.8745,0.9509,0.2238,-1866.94,298.71,1094.18
430,-3.8745,0.9504,0.2220,1726.81,642.46,812.93
440,-3.8745,0.9542,0.2181,1664.31,423.71,266.05
450,-3.8746,0.9622,0.2166,-1851.32,-76.29,-484.01
460,-3.8746,0.9714,0.2174,-835.69,-279.42,-1062.13
470,-3.8746,0.9781,0.2188,351.81,-169.98,-1327.76
480,-3.8746,0.9816,0.2194,1211.18,1.89,-1327.70
490,-3.8746,0.9796,0.2192,1648.68,80.02,-1218.32
500,-3.8746,0.9717,0.2169,1398.68,64.39,-999.57
510,-3.8746,0.9637,0.2144,383.06,-232.48,-765.26
520,-3.8746,0.9615,0.2147,-632.57,-560.67,-702.76
530,-3.8746,0.9653,0.2161,-913.82,-513.79,-765.26
540,-3.8746,0.9714,0.2173,-429.44,-341.92,-796.51
550,-3.8746,0.9756,0.2168,351.81,-185.61,-749.63
560,-3.8746,0.9764,0.2130,883.06,-248.11,-843.38
570,-3.8746,0.9757,0.2078,992.43,-732.48,-1249.63
580,-3.8746,0.9753,0.2041,898.68,-1404.36,-1749.63
590,-3.8746,0.9762,0.2046,851.81,-1873.11,-1999.63
600,-3.8746,0.9769,0.2073,961.18,-1810.61,-1984.01
610,-3.8746,0.9769,0.2075,1054.93,-1466.86,-1874.63
620,-3.8746,0.9758,0.2057,1054.93,-1435.61,-1640.26
630,-3.8746,0.9728,0.2047,914.31,-1669.98,-1249.63
640,-3.8746,0.9695,0.2046,523.68,-1794.98,-905.88
650,-3.8746,0.9674,0.2046,101.81,-1810.61,-687.13
660,-3.8746,0.9667,0.2042,-163.82,-1810.67,-593.38
670,-3.8746,0.9680,0.2072,-257.57,-1857.54,-452.76
680,-3.8746,0.9719,0.2167,-85.69,-1482.54,-77.76
690,-3.8745,0.9781,0.2257,414.31,-263.73,640.99
700,-3.8745,0.9836,0.2242,1211.18,892.52,1344.18
710,-3.8745,0.9843,0.2129,1914.31,705.02,1375.43
720,-3.8745,0.9792,0.2010,1992.43,-748.11,625.37
730,-3.8746,0.9729,0.1976,1351.81,1736.27,-359.01
740,-3.8746,0.9700,0.2045,539.31,1298.77,-812.13
750,-3.8746,0.9706,0.2148,164.31,-1826.23,-390.26
760,-3.8745,0.9720,0.2181,242.43,-498.11,203.49
770,-3.8745,0.9723,0.2117,429.93,-76.23,390.99
780,-3.8745,0.9717,0.2030,461.18,-904.36,203.49
790,-3.8746,0.9700,0.2000,383.06,1986.27,-155.88
800,-3.8746,0.9662,0.2032,164.31,1595.64,-249.63
810,-3.8745,0.9615,0.2074,-320.07,-1982.54,47.24
820,-3.8745,0.9573,0.2079,-913.82,-1451.29,453.49
830,-3.8745,0.9531,0.2043,-1460.69,-1388.79,703.49
840,-3.8745,0.9506,0.1991,-1991.94,-1841.92,734.74
850,-3.8745,0.9509,0.1967,1679.93,1486.21,656.62
860,-3.8745,0.9529,0.1976,1726.81,1173.71,547.24
870,-3.8745,0.9552,0.1992,1976.81,1298.71,469.12
880,-3.8745,0.9575,0.1989,-1726.32,1501.83,500.37
890,-3.8745,0.9608,0.1971,-1429.44,1454.96,375.37
900,-3.8746,0.9647,0.1948,-1007.57,1236.21,-77.76
910,-3.8746,0.9711,0.1980,-507.57,939.33,-796.51
920,-3.8746,0.9819,0.2107,304.93,1345.64,-1062.13
930,-3.8746,0.9929,0.2229,1695.56,-1029.36,-437.13
940,-3.8745,0.9993,0.2249,-898.19,533.14,437.93
950,-3.8745,0.9995,0.2166,-85.69,783.14,719.18
960,-3.8745,0.9926,0.2039,-54.44,-279.36,359.74
970,-3.8746,0.9828,0.1953,-945.07,-1904.36,-109.01
980,-3.8746,0.9761,0.1940,1804.93,1001.89,-327.76
990,-3.8746,0.9731,0.1960,945.56,830.02,-202.76
1000,-3.8745,0.9722,0.1976,570.56,1095.64,250.37
1010,-3.8745,0.9730,0.2000,445.56,1298.77,844.12
1020,-3.8745,0.9753,0.2029,554.93,1595.64,1578.49
1030,-3.8745,0.9749,0.2047,851.81,1970.64,-1624.63
1040,-3.8745,0.9709,0.2043,789.31,-1794.98,-952.76
1050,-3.8745,0.9677,0.2024,289.31,-1841.86,-593.38
1060,-3.8745,0.9658,0.2021,-132.57,1908.08,-609.01
1070,-3.8745,0.9651,0.2054,-366.94,1876.83,-687.13
1080,-3.8745,0.9650,0.2092,-460.69,-1701.29,-577.76
1090,-3.8745,0.9629,0.2102,-476.32,-1216.92,-484.01
1100,-3.8745,0.9583,0.2080,-741.94,-1091.92,-515.26
1110,-3.8745,0.9524,0.2048,-1335.69,-1373.17,-484.01
1120,-3.8745,0.9458,0.2032,1914.31,-1779.42,-593.38
1130,-3.8745,0.9398,0.2031,1070.56,-1982.54,-905.88
1140,-3.8745,0.9370,0.2025,304.93,-1998.17,-1296.51
1150,-3.8745,0.9385,0.2006,-54.44,1923.65,-1905.88
1160,-3.8745,0.9452,0.2001,133.06,1673.71,1437.87
1170,-3.8745,0.9564,0.2051,992.43,1611.21,1062.87
1180,-3.8745,0.9675,0.2145,-1570.07,-1748.17,953.49
1190,-3.8745,0.9747,0.2220,-148.19,-545.04,1078.49
1200,-3.8745,0.9775,0.2224,773.68,423.77,1453.55
1210,-3.8745,0.9749,0.2146,1133.06,470.64,1719.18
1220,-3.8745,0.9681,0.2052,789.31,-529.36,1625.37
1230,-3.8745,0.9625,0.2004,-70.07,-1732.54,1422.24
1240,-3.8745,0.9598,0.2017,-788.82,1658.08,1375.37
1250,-3.8745,0.9601,0.2064,-1132.57,1814.33,1578.49
1260,-3.8745,0.9647,0.2084,-1101.32,-1576.29,1875.37
1270,-3.8745,0.9728,0.2048,-507.57,-1326.29,1906.62
1280,-3.8745,0.9808,0.2007,523.68,-1779.36,1609.74
1290,-3.8745,0.9883,0.2003,1554.93,1689.39,1250.37
1300,-3.8745,0.9937,0.2031,-1491.94,1642.52,1015.99
1310,-3.8745,0.9952,0.2073,-804.44,-1998.11,1047.24
1320,-3.8745,0.9933,0.2091,-601.32,-1466.86,1312.87
1330,-3.8745,0.9882,0.2061,-851.32,-1232.48,1453.49
1340,-3.8745,0.9802,0.2003,-1507.57,-1623.11,1422.24
1350,-3.8745,0.9722,0.1957,1476.81,1642.52,1297.24
1360,-3.8745,0.9673,0.1937,445.56,1048.77,1031.62
1370,-3.8745,0.9666,0.1959,-179.44,798.71,844.12
1380,-3.8745,0.9697,0.2013,-273.19,1079.96,922.24
1390,-3.8745,0.9762,0.2050,133.06,1767.52,1062.87
1400,-3.8745,0.9833,0.2045,961.18,-1763.73,1015.99
1410,-3.8745,0.9875,0.2020,1867.43,-1826.23,750.37
1420,-3.8745,0.9850,0.2010,-1585.69,1861.27,531.62
1430,-3.8745,0.9730,0.2020,-1913.82,1736.27,656.62
1440,-3.8745,0.9558,0.2024,554.93,1861.27,1312.87
1450,-3.8745,0.9402,0.2013,-1648.19,1908.08,-1843.38
1460,-3.8745,0.9288,0.2009,351.81,1767.46,-1015.26
1470,-3.8745,0.9253,0.2013,-1101.32,1720.52,-280.88
1480,-3.8744,0.9299,0.2007,-1554.44,1767.40,47.24
1490,-3.8745,0.9395,0.1992,-960.69,1689.27,-280.88
1500,-3.8745,0.9506,0.2002,258.06,1501.83,-905.88
1510,-3.8745,0.9612,0.2063,1679.93,1626.83,-1296.51
1520,-3.8745,0.9717,0.2147,-960.69,-1591.92,-1327.76
1530,-3.8745,0.9795,0.2196,383.06,-513.73,-1234.01
1540,-3.8745,0.9791,0.2174,1383.06,111.27,-1202.70
1550,-3.8745,0.9702,0.2100,1336.18,-169.98,-1249.63
1560,-3.8745,0.9564,0.2014,195.56,-1123.11,-1484.01
1570,-3.8745,0.9407,0.1954,-1570.07,1783.08,-1812.13
1580,-3.8745,0.9275,0.1946,414.31,1017.46,-1874.63
1590,-3.8745,0.9219,0.1949,-1273.19,908.02,-1718.38
1600,-3.8745,0.9248,0.1932,-1991.94,954.90,-1702.76
1610,-3.8745,0.9340,0.1923,-1616.94,736.15,-1952.76
1620,-3.8745,0.9474,0.1948,-445.07,611.15,1609.74
1630,-3.8745,0.9634,0.1990,1273.68,939.33,1203.49
1640,-3.8745,0.9779,0.2013,-679.44,1470.58,969.12
1650,-3.8745,0.9877,0.2029,1179.93,1767.52,781.62
1660,-3.8745,0.9941,0.2067,-1570.07,1970.64,672.24
1670,-3.8745,0.9966,0.2107,-741.94,-1544.98,937.87
1680,-3.8745,0.9943,0.2103,-429.44,-1029.36,1469.12
1690,-3.8745,0.9894,0.2043,-726.32,-1076.23,1937.87
1700,-3.8745,0.9839,0.1954,-1351.32,-1841.86,-1968.38
1710,-3.8745,0.9797,0.1886,1945.56,1017.52,1719.12
1720,-3.8745,0.9783,0.1860,1414.31,142.52,1265.99
1730,-3.8745,0.9794,0.1882,1226.81,-185.61,969.06
1740,-3.8745,0.9827,0.1934,1367.43,95.64,734.74
1750,-3.8745,0.9875,0.1987,1789.31,751.89,531.62
1760,-3.8745,0.9930,0.2034,-1585.69,1439.39,469.12
1770,-3.8745,0.9974,0.2050,-882.57,-1966.86,406.62
1780,-3.8745,0.9994,0.2024,-320.07,-1763.73,203.49
1790,-3.8745,0.9966,0.1979,-70.07,1908.14,62.87
1800,-3.8746,0.9905,0.1940,-429.44,1330.02,-46.51
1810,-3.8746,0.9839,0.1915,-1210.69,830.02,-124.63
1820,-3.8746,0.9784,0.1892,1945.56,517.52,-109.01
1830,-3.8746,0.9740,0.1871,1242.43,220.64,-140.26
1840,-3.8746,0.9690,0.1875,679.93,-44.98,-171.57
1850,-3.8746,0.9639,0.1896,39.31,1.89,-140.26
1860,-3.8746,0.9598,0.1915,-616.94,267.46,-46.51
1870,-3.8746,0.9580,0.1927,-1132.57,517.46,-15.26
1880,-3.8746,0.9591,0.1931,-1366.94,673.71,-93.38
1890,-3.8746,0.9635,0.1938,-1226.32,720.58,-218.38
1900,-3.8746,0.9689,0.1965,-663.82,814.33,-327.76
1910,-3.8746,0.9738,0.2012,23.68,1158.14,-312.13
1920,-3.8746,0.9785,0.2050,648.68,1751.89,-280.88
1930,-3.8746,0.9828,0.2062,1258.06,-1763.73,-202.76
1940,-3.8746,0.9847,0.2065,1804.93,-1607.48,-46.51
1950,-3.8745,0.9840,0.2067,-1945.07,-1560.61,156.62
1960,-3.8745,0.9810,0.2064,1961.18,-1544.98,422.24
1970,-3.8745,0.9768,0.2058,1570.56,-1576.23,828.49
1980,-3.8745,0.9720,0.2045,1039.31,-1654.36,1344.12
1990,-3.8745,0.9662,0.2013,429.93,-1826.23,1687.87
2000,-3.8745,0.9607,0.1989,-320.07,1767.46,1734.74
2010,-3.8745,0.9584,0.1992,-1023.19,1454.96,1562.87
2020,-3.8745,0.9581,0.2006,-1320.07,1501.83,1469.12
2030,-3.8745,0.9601,0.2003,-1351.32,1673.71,1437.87
2040,-3.8745,0.9636,0.1973,-1101.32,1642.46,1234.74
2050,-3.8745,0.9644,0.1946,-648.19,1251.83,937.87
2060,-3.8745,0.9630,0.1963,-554.44,908.08,625.37
2070,-3.8745,0.9617,0.1998,-726.32,1126.83,422.24
2080,-3.8745,0.9612,0.2024,-898.19,1579.96,344.12
2090,-3.8745,0.9630,0.2036,-960.69,1908.08,344.12
2100,-3.8745,0.9659,0.2029,-726.32,-1935.67,312.87
2110,-3.8745,0.9688,0.2007,-351.32,1970.58,109.74
2120,-3.8746,0.9709,0.1992,8.06,1689.39,-140.26
2130,-3.8746,0.9724,0.2013,289.31,1501.89,-265.26
2140,-3.8746,0.9731,0.2057,476.81,1767.52,-155.88
2150,-3.8745,0.9744,0.2091,570.56,-1669.98,297.24
2160,-3.8745,0.9768,0.2097,726.81,-1232.48,906.62
2170,-3.8745,0.9772,0.2075,1039.31,-1154.36,1453.49
2180,-3.8745,0.9746,0.2043,1086.18,-1435.61,1750.37
2190,-3.8745,0.9707,0.2015,758.06,-1841.86,1828.49
2200,-3.8745,0.9681,0.2019,258.06,1798.77,1890.99
2210,-3.8745,0.9695,0.2056,-70.07,1845.58,1937.87
2220,-3.8745,0.9739,0.2080,101.81,-1685.61,1844.12
2230,-3.8745,0.9784,0.2065,664.31,-1373.11,1562.87
2240,-3.8745,0.9814,0.2036,1242.43,-1560.61,1109.74
2250,-3.8745,0.9819,0.2043,1633.06,-1935.61,765.99
2260,-3.8745,0.9789,0.2083,1695.56,-1841.86,687.87
2270,-3.8745,0.9746,0.2089,1304.93,-1341.86,719.12
2280,-3.8745,0.9702,0.2052,758.06,-1263.73,703.49
2290,-3.8745,0.9658,0.2007,195.56,-1732.48,500.37
2300,-3.8745,0.9626,0.1975,-366.94,1689.33,172.24
2310,-3.8746,0.9607,0.1980,-773.19,1283.08,-46.51
2320,-3.8745,0.9606,0.2028,-1023.19,1345.58,62.87
2330,-3.8745,0.9620,0.2073,-1038.82,1954.96,375.37
2340,-3.8745,0.9614,0.2065,-851.32,-1466.92,672.24
2350,-3.8745,0.9583,0.2007,-929.44,-1560.67,703.49
2360,-3.8745,0.9539,0.1948,-1335.69,1689.33,469.12
2370,-3.8745,0.9525,0.1952,-1898.19,939.33,219.12
2380,-3.8745,0.9576,0.2004,1929.93,986.21,94.12
2390,-3.8745,0.9667,0.2063,-1413.82,1658.08,203.49
2400,-3.8745,0.9752,0.2089,-257.57,-1591.92,531.62
2410,-3.8745,0.9800,0.2080,836.18,-1263.73,719.12
2420,-3.8745,0.9801,0.2065,1445.56,-1373.11,734.74
2430,-3.8745,0.9768,0.2064,1461.18,-1560.61,750.37
2440,-3.8745,0.9741,0.2079,1039.31,-1576.23,890.99
2450,-3.8745,0.9757,0.2100,695.56,-1388.73,1265.99
2460,-3.8745,0.9797,0.2107,898.68,-1123.11,1640.99
2470,-3.8745,0.9827,0.2094,1414.31,-1029.36,1890.99
2480,-3.8745,0.9825,0.2059,1789.31,-1201.23,1937.87
2490,-3.8745,0.9788,0.2031,1773.68,-1638.73,1719.12
2500,-3.8745,0.9744,0.2025,1289.31,-1998.11,1406.62
2510,-3.8745,0.9729,0.2028,726.81,1923.77,1125.37
2520,-3.8745,0.9742,0.2040,539.31,1955.02,890.99
2530,-3.8745,0.9763,0.2067,711.18,-1888.73,687.87
2540,-3.8745,0.9771,0.2084,976.81,-1544.98,719.12
2550,-3.8745,0.9756,0.2057,1070.56,-1326.23,859.74
2560,-3.8745,0.9708,0.1990,883.06,-1669.98,797.24
2570,-3.8745,0.9642,0.1937,273.68,1470.64,500.37
2580,-3.8745,0.9590,0.1942,-570.07,798.71,344.12
2590,-3.8745,0.9570,0.1969,-1241.94,861.21,406.62
2600,-3.8745,0.9575,0.1978,-1491.94,1204.96,609.74
2610,-3.8745,0.9590,0.1971,-1429.44,1314.33,765.99
2620,-3.8745,0.9603,0.1964,-1241.94,1236.21,562.87
2630,-3.8745,0.9603,0.1975,-1070.07,1142.46,344.12
2640,-3.8745,0.9598,0.2004,-1070.07,1283.08,344.12
2650,-3.8745,0.9623,0.2036,-1132.57,1658.08,297.24
2660,-3.8745,0.9673,0.2065,-820.07,-1935.67,62.87
2670,-3.8746,0.9728,0.2085,-179.44,-1560.67,-218.38
2680,-3.8746,0.9773,0.2081,523.68,-1310.61,-390.26
2690,-3.8746,0.9784,0.2048,1101.81,-1357.48,-609.01
2700,-3.8746,0.9753,0.2013,1242.43,-1779.36,-952.76
2710,-3.8746,0.9713,0.2030,851.81,1767.52,-999.63
2720,-3.8746,0.9680,0.2097,336.18,1986.27,-530.88
2730,-3.8745,0.9666,0.2134,-85.69,-1154.42,172.24
2740,-3.8745,0.9664,0.2081,-273.19,-685.67,687.87
2750,-3.8745,0.9666,0.1976,-288.82,-1357.54,594.12
2760,-3.8745,0.9666,0.1909,-273.19,1298.71,15.99
2770,-3.8746,0.9661,0.1915,-273.19,439.33,-421.51
2780,-3.8746,0.9657,0.1978,-335.69,517.46,-249.63
2790,-3.8745,0.9666,0.2036,-382.57,1314.33,359.74
2800,-3.8745,0.9683,0.2040,-273.19,-1935.67,765.99
2810,-3.8745,0.9707,0.2001,-54.44,-1888.79,703.49
2820,-3.8745,0.9734,0.1973,258.06,1611.27,265.99
2830,-3.8746,0.9751,0.1993,601.81,1251.89,-93.38
2840,-3.8746,0.9771,0.2039,820.56,1517.52,-124.63
2850,-3.8745,0.9807,0.2064,1070.56,-1904.36,203.49
2860,-3.8745,0.9844,0.2058,1539.31,-1576.23,578.49
2870,-3.8745,0.9866,0.2032,-1991.94,-1654.36,578.49
2880,-3.8745,0.9878,0.2026,-1710.69,-1982.48,453.49
2890,-3.8745,0.9890,0.2047,-1554.44,1939.39,656.62
2900,-3.8745,0.9905,0.2068,-1398.19,-1794.98,1047.24
2910,-3.8745,0.9896,0.2062,-1210.69,-1529.36,1359.74
2920,-3.8745,0.9841,0.2020,-1320.07,-1607.48,1515.99
2930,-3.8745,0.9775,0.1973,1976.81,1861.27,1562.87
2940,-3.8745,0.9718,0.1947,1133.06,1251.89,1406.62
2950,-3.8745,0.9674,0.1927,398.68,923.77,1125.37
2960,-3.8745,0.9633,0.1897,-163.82,673.71,1015.99
2970,-3.8745,0.9576,0.1875,-695.07,283.08,1047.24
2980,-3.8745,0.9524,0.1885,-1413.82,1.83,1031.62
2990,-3.8745,0.9510,0.1924,1914.31,126.83,922.24
3000,-3.8745,0.9563,0.1971,1742.43,626.83,672.24
3010,-3.8745,0.9652,0.2001,-1585.69,1236.21,281.62
3020,-3.8746,0.9716,0.2012,-445.07,1611.21,-15.26
3030,-3.8746,0.9741,0.2009,367.43,1751.89,-218.38
3040,-3.8746,0.9727,0.1998,695.56,1720.64,-437.13
3050,-3.8746,0.9691,0.2021,508.06,1580.02,-609.01
3060,-3.8746,0.9661,0.2074,54.93,1876.89,-765.26
3070,-3.8746,0.9647,0.2118,-335.69,-1451.29,-640.26
3080,-3.8746,0.9635,0.2122,-507.57,-888.79,-312.13
3090,-3.8746,0.9607,0.2079,-663.82,-841.92,-187.13
3100,-3.8746,0.9574,0.2021,-1023.19,-1388.79,-359.01
3110,-3.8746,0.9547,0.1986,-1445.07,1876.83,-812.13
3120,-3.8746,0.9539,0.1998,-1788.82,1423.71,-1234.01
3130,-3.8746,0.9590,0.2059,-1898.19,1579.96,-1296.51
3140,-3.8746,0.9702,0.2109,-1241.94,-1638.79,-1077.76
3150,-3.8746,0.9814,0.2107,195.56,-998.11,-874.63
3160,-3.8746,0.9873,0.2062,1633.06,-1029.36,-765.26
3170,-3.8746,0.9866,0.2019,-1616.94,-1607.48,-780.88
3180,-3.8746,0.9802,0.1996,-1710.69,1845.64,-796.51
3190,-3.8746,0.9720,0.1980,1476.81,1548.77,-546.51
3200,-3.8746,0.9617,0.1962,429.93,1345.64,-109.01
3210,-3.8745,0.9506,0.1956,-898.19,1111.21,453.49
3220,-3.8745,0.9434,0.1948,1679.93,1033.08,1000.37
3230,-3.8745,0.9424,0.1910,758.06,939.33,1140.99
3240,-3.8745,0.9495,0.1871,633.06,454.96,953.49
3250,-3.8745,0.9634,0.1886,1539.31,-45.04,640.93
3260,-3.8745,0.9818,0.1978,-679.44,142.46,359.74
3270,-3.8745,1.0000,0.2094,1679.93,1314.39,187.87
3280,-3.8745,1.0103,0.2137,8.06,-1201.17,219.12
3290,-3.8745,1.0090,0.2108,1320.56,-638.67,156.62
3300,-3.8746,0.9969,0.2051,1164.31,-1013.67,-93.38
3310,-3.8746,0.9805,0.2002,-382.57,-1748.11,-343.38
3320,-3.8746,0.9672,0.1987,1508.06,1626.89,-343.38
3330,-3.8746,0.9604,0.1998,-195.07,1439.33,-15.26
3340,-3.8745,0.9607,0.2008,-1054.44,1579.96,375.37
3350,-3.8745,0.9657,0.1997,-1023.19,1704.96,547.24
3360,-3.8745,0.9716,0.1990,-382.57,1564.33,297.24
3370,-3.8746,0.9769,0.2024,367.43,1470.64,-171.51
3380,-3.8746,0.9819,0.2090,1054.93,1908.14,-327.76
3390,-3.8746,0.9850,0.2129,1695.56,-1248.11,-265.26
3400,-3.8746,0.9847,0.2136,-1913.82,-748.11,-218.38
3410,-3.8746,0.9813,0.2141,-1945.07,-654.36,-249.63
3420,-3.8746,0.9741,0.2150,1617.43,-591.86,-187.13
3430,-3.8745,0.9644,0.2148,695.56,-482.48,187.87
3440,-3.8745,0.9564,0.2119,-554.44,-498.17,672.24
3450,-3.8745,0.9520,0.2062,-1570.07,-873.17,875.37
3460,-3.8745,0.9523,0.2006,1867.43,-1607.54,687.87
3470,-3.8745,0.9580,0.1976,1898.68,1673.71,297.24
3480,-3.8746,0.9677,0.1971,-1366.94,1298.71,-155.88
3490,-3.8746,0.9778,0.1987,-132.57,1236.21,-530.88
3500,-3.8746,0.9844,0.2012,1164.31,1439.39,-843.38
3510,-3.8746,0.9851,0.2031,-1991.94,1751.89,-1015.26
3520,-3.8746,0.9816,0.2042,-1898.19,-1998.11,-937.13
3530,-3.8746,0.9746,0.2053,1648.68,-1857.48,-718.38
3540,-3.8746,0.9657,0.2090,758.06,-1716.86,-327.76
3550,-3.8745,0.9601,0.2148,-382.57,-1248.17,359.74
3560,-3.8745,0.9584,0.2186,-1101.32,-498.17,1203.49
3570,-3.8745,0.9586,0.2180,-1320.07,-13.79,1797.24
3580,-3.8745,0.9602,0.2133,-1288.82,-91.92,1844.12
3590,-3.8745,0.9623,0.2072,-1085.69,-701.29,1453.49
3600,-3.8745,0.9651,0.2057,-820.07,-1482.54,875.37
3610,-3.8745,0.9690,0.2097,-460.69,-1670.04,406.62
3620,-3.8745,0.9738,0.2161,39.31,-1154.36,109.74
3630,-3.8745,0.9794,0.2212,648.68,-341.86,31.62
3640,-3.8745,0.9835,0.2219,1367.43,314.39,141.05
3650,-3.8745,0.9819,0.2186,1898.68,408.14,156.68
3660,-3.8746,0.9740,0.2131,1695.56,-13.73,-30.88
3670,-3.8746,0.9629,0.2078,679.93,-716.86,-296.51
3680,-3.8746,0.9525,0.2040,-741.94,-1404.42,-468.38
3690,-3.8746,0.9447,0.2018,1929.93,-1888.79,-452.76
3700,-3.8746,0.9419,0.1998,929.93,1829.96,-421.51
3710,-3.8746,0.9465,0.1979,570.56,1579.96,-452.76
3720,-3.8746,0.9572,0.1965,1164.31,1329.96,-593.38
3730,-3.8746,0.9692,0.1975,-1476.32,1158.08,-905.88
3740,-3.8746,0.9781,0.2013,70.56,1283.14,-1218.38
3750,-3.8746,0.9816,0.2052,1211.18,1767.52,-1249.63
3760,-3.8746,0.9795,0.2062,1648.68,-1732.48,-890.26
3770,-3.8746,0.9751,0.2051,1383.06,-1607.48,-452.76
3780,-3.8746,0.9707,0.2053,820.56,-1748.11,-46.51
3790,-3.8745,0.9689,0.2075,258.06,-1716.86,469.12
3800,-3.8745,0.9718,0.2117,23.68,-1435.61,1094.12
3810,-3.8745,0.9767,0.2159,398.68,-904.36,1734.74
3820,-3.8745,0.9796,0.2170,1023.68,-357.48,-1921.51
3830,-3.8745,0.9795,0.2161,1398.68,-216.86,-1812.13
3840,-3.8745,0.9752,0.2163,1383.06,-341.86,-1765.26
3850,-3.8745,0.9696,0.2177,836.18,-310.61,-1921.51
3860,-3.8745,0.9662,0.2183,117.43,-138.73,1859.74
3870,-3.8745,0.9634,0.2168,-320.07,-60.67,1500.37
3880,-3.8745,0.9606,0.2147,-679.44,-248.17,1015.99
3890,-3.8745,0.9583,0.2140,-1038.82,-513.79,594.12
3900,-3.8745,0.9572,0.2142,-1335.69,-607.54,297.24
3910,-3.8745,0.9585,0.2139,-1476.32,-576.29,156.62
3920,-3.8745,0.9607,0.2112,-1304.44,-623.17,31.62
3930,-3.8746,0.9596,0.2070,-1023.19,-966.92,-234.01
3940,-3.8746,0.9556,0.2050,-1163.82,-1498.17,-499.63
3950,-3.8746,0.9535,0.2068,-1679.44,-1763.79,-624.63
3960,-3.8746,0.9551,0.2102,-1945.07,-1529.42,-624.63
3970,-3.8746,0.9601,0.2111,-1741.94,-1091.92,-640.26
3980,-3.8746,0.9667,0.2090,-1101.32,-982.54,-655.88
3990,-3.8746,0.9712,0.2073,-257.57,-1248.17,-890.26
4000,-3.8746,0.9729,0.2087,320.56,-1466.86,-1109.01
4010,-3.8746,0.9736,0.2119,539.31,-1279.36,-952.76
4020,-3.8746,0.9730,0.2144,633.06,-873.11,-515.26
4030,-3.8746,0.9728,0.2144,554.93,-560.61,-30.88
4040,-3.8745,0.9742,0.2111,523.68,-560.61,94.12
4050,-3.8746,0.9763,0.2072,711.18,-982.48,-46.51
4060,-3.8746,0.9791,0.2046,976.81,-1482.48,-234.01
4070,-3.8746,0.9819,0.2026,1336.18,-1810.61,-546.51
4080,-3.8746,0.9827,0.2014,1695.56,1939.39,-890.26
4090,-3.8746,0.9822,0.2023,1789.31,1783.14,-1140.26
4100,-3.8746,0.9824,0.2061,1726.81,1892.52,-1155.88
4110,-3.8746,0.9839,0.2106,1758.06,-1623.11,-890.26
4120,-3.8746,0.9867,0.2120,1945.56,-1044.98,-609.01
4130,-3.8746,0.9915,0.2109,-1695.07,-857.48,-515.26
4140,-3.8746,0.9950,0.2095,-1085.69,-998.11,-577.76
4150,-3.8746,0.9950,0.2083,-632.57,-1185.61,-562.13
4160,-3.8746,0.9933,0.2074,-632.57,-1341.86,-655.88
4170,-3.8746,0.9905,0.2061,-851.32,-1451.23,-905.88
4180,-3.8746,0.9890,0.2051,-1210.69,-1623.11,-1109.01
4190,-3.8746,0.9919,0.2046,-1398.19,-1748.11,-1202.76
4200,-3.8746,0.9962,0.2050,-1023.19,-1810.61,-1202.76
4210,-3.8746,0.9968,0.2065,-476.32,-1763.73,-1124.63
4220,-3.8746,0.9926,0.2075,-398.19,-1560.61,-843.38
4230,-3.8746,0.9830,0.2052,-945.07,-1435.61,-265.26
4240,-3.8745,0.9716,0.2004,1836.18,-1732.48,297.24
4250,-3.8745,0.9645,0.1938,367.43,1658.14,406.62
4260,-3.8745,0.9625,0.1895,-538.82,814.33,187.87
4270,-3.8745,0.9653,0.1903,-788.82,251.83,62.87
4280,-3.8745,0.9724,0.1945,-429.44,361.21,47.24
4290,-3.8746,0.9802,0.1987,476.81,892.52,-30.88
4300,-3.8746,0.9840,0.2004,1476.81,1439.39,-202.76
4310,-3.8746,0.9816,0.1992,1961.18,1658.14,-312.13
4320,-3.8746,0.9750,0.1984,1648.68,1501.89,-437.13
4330,-3.8746,0.9706,0.2004,804.93,1392.52,-484.01
4340,-3.8746,0.9690,0.2040,242.43,1658.14,-187.13
4350,-3.8745,0.9666,0.2072,39.31,-1888.73,406.62
4360,-3.8745,0.9635,0.2078,-273.19,-1482.54,1015.99
4370,-3.8745,0.9611,0.2048,-663.82,-1404.42,1422.24
4380,-3.8745,0.9580,0.2001,-976.32,-1779.42,1531.62
4390,-3.8745,0.9551,0.1951,-1366.94,1611.21,1328.49
4400,-3.8745,0.9540,0.1927,-1741.94,970.58,859.74
4410,-3.8745,0.9556,0.1962,-1882.57,673.71,312.87
4420,-3.8745,0.9617,0.2035,-1679.44,1111.21,0.37
4430,-3.8745,0.9701,0.2100,-898.19,-1951.29,15.99
4440,-3.8745,0.9762,0.2129,179.93,-1123.11,156.62
4450,-3.8745,0.9801,0.2112,961.18,-748.11,203.49
4460,-3.8745,0.9817,0.2061,1461.18,-966.86,125.37
4470,-3.8746,0.9813,0.2007,1664.31,-1623.11,-171.51
4480,-3.8746,0.9825,0.1978,1617.43,1689.39,-296.51
4490,-3.8746,0.9891,0.1985,1773.68,1314.39,-30.88
4500,-3.8745,0.9995,0.2008,-1382.57,1408.14,297.24
4510,-3.8745,1.0076,0.2030,-54.44,1705.02,609.74
4520,-3.8745,1.0103,0.2043,976.81,1986.33,1031.62
4530,-3.8745,1.0068,0.2051,1320.56,-1841.80,1500.37
4540,-3.8745,0.9983,0.2056,883.06,-1748.05,1797.24
4550,-3.8745,0.9857,0.2040,-210.69,-1685.61,1937.87
4560,-3.8745,0.9695,0.2003,-1820.07,-1888.73,-1937.13
4570,-3.8745,0.9520,0.1967,101.81,1642.52,-1749.63
4580,-3.8745,0.9349,0.1914,1867.43,1173.71,-1593.38
4590,-3.8745,0.9204,0.1858,-320.07,501.77,-1640.26
4600,-3.8745,0.9114,0.1823,1820.56,-216.98,-1734.07
4610,-3.8745,0.9073,0.1826,664.31,-670.10,-1702.82
4620,-3.8745,0.9036,0.1851,148.68,-623.23,-1593.44
4630,-3.8745,0.8945,0.1849,-335.69,-310.79,-1374.69
4640,-3.8745,0.8799,0.1788,-1491.94,-326.42,-1234.07
4650,-3.8745,0.8666,0.1697,633.06,-1107.67,-1577.82
4660,-3.8745,0.8641,0.1625,-1070.07,1720.40,1890.93
4670,-3.8745,0.8771,0.1598,-1382.57,798.52,1359.68
4680,-3.8745,0.9019,0.1635,273.68,454.83,812.81
4690,-3.8745,0.9340,0.1746,-554.44,923.58,328.43
4700,-3.8746,0.9742,0.1897,-445.07,-1654.48,-171.57
4710,-3.8746,1.0195,0.2058,711.18,283.14,-640.26
4720,-3.8746,1.0624,0.2227,-1491.94,-1654.30,-968.38
4730,-3.8746,1.0959,0.2365,-7.57,502.01,-1093.32
4740,-3.8746,1.1144,0.2423,289.31,-1732.24,-1046.45
4750,-3.8746,1.1157,0.2401,-1351.32,-982.24,-858.95
4760,-3.8746,1.0999,0.2333,-1179.44,-1263.49,-390.20
4770,-3.8745,1.0702,0.2239,789.31,1861.51,328.55
4780,-3.8745,1.0332,0.2128,992.43,658.33,1172.30
4790,-3.8745,0.9974,0.2024,258.06,-763.61,1969.12
4800,-3.8745,0.9698,0.1931,-320.07,1908.14,-1468.38
4810,-3.8745,0.9510,0.1844,148.68,720.64,-1015.26
4820,-3.8745,0.9404,0.1788,1742.43,-388.79,-687.19
4830,-3.8745,0.9369,0.1776,383.06,-1107.54,-734.07
4840,-3.8745,0.9374,0.1803,-70.07,-1263.85,-874.69
4850,-3.8745,0.9398,0.1865,-7.57,-920.10,-796.57
4860,-3.8745,0.9427,0.1938,304.93,-123.17,-655.94
4870,-3.8745,0.9443,0.1991,679.93,814.33,-546.51
4880,-3.8745,0.9417,0.1995,883.06,1486.21,-452.76
4890,-3.8745,0.9343,0.1978,539.31,1533.08,-421.51
4900,-3.8745,0.9263,0.1973,-398.19,1314.27,-577.76
4910,-3.8745,0.9218,0.1964,-1429.44,1251.77,-718.38
4920,-3.8745,0.9216,0.1957,1992.43,1142.40,-765.26
4930,-3.8745,0.9265,0.1965,1976.81,1048.65,-827.76
4940,-3.8745,0.9352,0.1965,-1398.19,1158.02,-952.76
4950,-3.8745,0.9430,0.1947,-288.82,1158.02,-1296.51
4960,-3.8745,0.9480,0.1949,711.18,923.71,-1577.76
4970,-3.8745,0.9506,0.1973,1351.81,954.96,-1765.26
4980,-3.8745,0.9530,0.1987,1679.93,1251.83,-1937.13
4990,-3.8745,0.9581,0.1984,1992.43,1439.33,1906.62
5000,-3.8745,0.9648,0.1976,-1351.32,1392.46,1765.99
5010,-3.8745,0.9716,0.1976,-491.94,1298.71,1687.87
5020,-3.8745,0.9775,0.1967,367.43,1298.77,1594.12
5030,-3.8745,0.9819,0.1953,1133.06,1173.77,1578.49
5040,-3.8745,0.9843,0.1949,1695.56,1001.89,1609.74
5050,-3.8745,0.9854,0.1952,1992.43,955.02,1484.74
5060,-3.8745,0.9847,0.1962,-1866.94,986.27,1344.12
5070,-3.8745,0.9832,0.1981,-1945.07,1111.27,1328.49
5080,-3.8745,0.9834,0.2001,1851.81,1361.27,1515.99
5090,-3.8745,0.9843,0.1992,1883.06,1611.27,1703.49
5100,-3.8745,0.9839,0.1957,1992.43,1501.89,1656.62
5110,-3.8745,0.9821,0.1935,1945.56,1048.77,1594.12
5120,-3.8745,0.9791,0.1943,1711.18,767.52,1656.62
5130,-3.8745,0.9763,0.1968,1336.18,876.89,1781.62
5140,-3.8745,0.9757,0.1993,976.81,1189.39,-1874.63
5150,-3.8745,0.9774,0.2018,898.68,1517.52,-1343.38
5160,-3.8745,0.9799,0.2031,1117.43,1830.02,-937.13
5170,-3.8745,0.9796,0.2017,1429.93,-1998.11,-734.01
5180,-3.8745,0.9747,0.1984,1398.68,1814.39,-624.63
5190,-3.8745,0.9684,0.1952,773.68,1392.52,-499.63
5200,-3.8745,0.9618,0.1926,-38.82,986.21,-452.76
5210,-3.8745,0.9558,0.1912,-882.57,658.08,-515.26
5220,-3.8745,0.9517,0.1920,-1648.19,470.58,-577.76
5230,-3.8745,0.9491,0.1938,1820.56,579.96,-562.13
5240,-3.8745,0.9481,0.1952,1492.43,814.33,-609.01
5250,-3.8745,0.9473,0.1962,1367.43,986.21,-671.51
5260,-3.8745,0.9448,0.1976,1258.06,1111.21,-718.38
5270,-3.8745,0.9429,0.1992,945.56,1298.71,-671.51
5280,-3.8745,0.9440,0.2007,695.56,1501.83,-530.88
5290,-3.8745,0.9480,0.2012,836.18,1689.33,-437.13
5300,-3.8745,0.9537,0.2009,1351.81,1751.83,-499.63
5310,-3.8745,0.9602,0.2012,-1913.82,1720.58,-843.38
5320,-3.8745,0.9653,0.2018,-1085.69,1751.83,-1280.88
5330,-3.8745,0.9692,0.2015,-429.44,1829.96,-1593.38
5340,-3.8745,0.9733,0.2008,70.56,1798.77,-1843.38
5350,-3.8745,0.9760,0.2012,586.18,1705.02,-1984.01
5360,-3.8745,0.9764,0.2028,929.93,1751.89,-1984.01
5370,-3.8745,0.9764,0.2052,992.43,1955.02,-1921.51
5380,-3.8745,0.9772,0.2067,992.43,-1732.48,-1827.76
5390,-3.8745,0.9773,0.2045,1086.18,-1544.98,-1796.51
5400,-3.8745,0.9758,0.2003,1101.81,-1826.23,-1812.13
5410,-3.8745,0.9741,0.1968,914.31,1642.52,-1874.63
5420,-3.8745,0.9725,0.1948,695.56,1189.39,-1984.01
5430,-3.8745,0.9720,0.1963,492.43,939.39,-1984.01
5440,-3.8745,0.9744,0.2000,429.93,1126.89,-1780.88
5450,-3.8745,0.9771,0.2017,726.81,1595.64,-1437.13
5460,-3.8745,0.9775,0.2012,1070.56,1814.39,-1109.01
5470,-3.8745,0.9756,0.1998,1133.06,1751.89,-1155.88
5480,-3.8745,0.9727,0.1991,883.06,1580.02,-1452.76
5490,-3.8745,0.9700,0.1986,508.06,1486.27,-1640.26
5500,-3.8745,0.9681,0.1975,164.31,1423.77,-1812.13
5510,-3.8745,0.9672,0.1968,-70.07,1283.08,1922.24
5520,-3.8745,0.9672,0.1975,-195.07,1189.33,1719.12
5530,-3.8745,0.9680,0.1987,-195.07,1283.08,1562.87
5540,-3.8745,0.9696,0.1997,-85.69,1439.33,1594.12
5550,-3.8745,0.9731,0.2009,117.43,1564.39,1765.99
5560,-3.8745,0.9780,0.2025,570.56,1720.64,1812.87
5570,-3.8745,0.9818,0.2056,1195.56,1923.77,1906.62
5580,-3.8745,0.9828,0.2070,1679.93,-1685.61,-1874.63
5590,-3.8745,0.9794,0.2050,1804.93,-1498.11,-1609.01
5600,-3.8745,0.9727,0.2017,1367.43,-1763.73,-1359.01
5610,-3.8745,0.9666,0.2002,508.06,1814.39,-1093.38
5620,-3.8745,0.9625,0.1993,-273.19,1626.83,-984.01
5630,-3.8745,0.9608,0.1986,-788.82,1517.46,-984.01
5640,-3.8745,0.9626,0.1990,-1007.57,1423.71,-1015.26
5650,-3.8745,0.9675,0.2013,-773.19,1470.58,-1187.13
5660,-3.8745,0.9716,0.2045,-148.19,1767.46,-1296.51
5670,-3.8745,0.9731,0.2063,367.43,-1826.23,-1374.63
5680,-3.8745,0.9723,0.2065,570.56,-1591.86,-1515.26
5690,-3.8745,0.9685,0.2057,461.18,-1560.61,-1687.13
5700,-3.8745,0.9646,0.2036,-23.19,-1670.04,-1859.01
5710,-3.8745,0.9624,0.2015,-523.19,-1935.67,1922.24
5720,-3.8745,0.9615,0.2003,-804.44,1798.71,1672.24
5730,-3.8745,0.9629,0.2012,-913.82,1642.46,1390.99
5740,-3.8745,0.9668,0.2031,-741.94,1751.83,1109.74
5750,-3.8745,0.9698,0.2053,-241.94,-1998.17,1047.24
5760,-3.8745,0.9708,0.2075,148.68,-1716.86,1031.62
5770,-3.8745,0.9696,0.2089,273.68,-1435.61,1047.24
5780,-3.8745,0.9680,0.2087,117.43,-1263.73,1234.74
5790,-3.8745,0.9677,0.2064,-85.69,-1279.42,1344.12
5800,-3.8745,0.9680,0.2026,-132.57,-1576.29,1297.24
5810,-3.8745,0.9679,0.1995,-85.69,1939.33,1172.24
5820,-3.8745,0.9675,0.1981,-101.32,1533.08,1125.37
5830,-3.8745,0.9679,0.1985,-148.19,1361.21,1156.62
5840,-3.8745,0.9678,0.2007,-101.32,1408.08,1250.37
5850,-3.8745,0.9652,0.2046,-116.94,1689.33,1469.12
5860,-3.8745,0.9626,0.2094,-445.07,-1810.67,1844.12
5870,-3.8745,0.9631,0.2124,-773.19,-1201.29,-1827.76
5880,-3.8745,0.9647,0.2090,-710.69,-810.67,-1780.88
5890,-3.8745,0.9659,0.2023,-507.57,-1248.17,1875.37
5900,-3.8745,0.9670,0.1979,-351.32,1892.46,1281.62
5910,-3.8745,0.9667,0.1965,-210.69,1329.96,828.49
5920,-3.8745,0.9642,0.1984,-257.57,1158.08,734.74
5930,-3.8745,0.9619,0.2015,-570.07,1392.46,781.62
5940,-3.8745,0.9617,0.2035,-866.94,1798.71,844.12
5950,-3.8745,0.9644,0.2032,-898.19,-1951.29,828.49
5960,-3.8745,0.9695,0.2030,-554.44,-1982.54,656.62
5970,-3.8745,0.9755,0.2067,101.81,1986.27,500.37
5980,-3.8745,0.9810,0.2120,867.43,-1544.98,750.37
5990,-3.8745,0.9849,0.2139,1570.56,-857.48,1328.49
6000,-3.8745,0.9852,0.2113,-1929.44,-623.11,1750.37
6010,-3.8745,0.9828,0.2078,-1882.57,-951.23,1969.12
6020,-3.8745,0.9786,0.2064,1804.93,-1404.36,-1780.88
6030,-3.8745,0.9745,0.2069,1273.68,-1576.23,-1577.76
6040,-3.8745,0.9730,0.2080,742.43,-1513.73,-1562.13
6050,-3.8745,0.9735,0.2076,554.93,-1373.11,-1718.38
6060,-3.8745,0.9727,0.2047,617.43,-1419.98,-1999.63
6070,-3.8745,0.9696,0.2017,508.06,-1794.98,1547.24
6080,-3.8745,0.9664,0.2032,117.43,1814.39,1140.99
6090,-3.8745,0.9657,0.2091,-288.82,-1982.54,890.99
6100,-3.8745,0.9688,0.2128,-382.57,-1232.54,906.62
6110,-3.8745,0.9747,0.2125,8.06,-763.73,969.12
6120,-3.8745,0.9790,0.2100,773.68,-794.98,953.49
6130,-3.8745,0.9772,0.2059,1320.56,-1123.11,953.49
6140,-3.8745,0.9690,0.2018,1086.18,-1638.73,906.62
6150,-3.8745,0.9565,0.1990,39.31,1830.02,859.74
6160,-3.8745,0.9468,0.2000,-1554.44,1470.58,859.74
6170,-3.8745,0.9434,0.2034,1195.56,1595.58,859.74
6180,-3.8745,0.9468,0.2059,758.06,-1966.92,922.24
6190,-3.8745,0.9568,0.2084,1195.56,-1638.79,969.12
6200,-3.8745,0.9684,0.2104,-1523.19,-1326.29,844.12
6210,-3.8745,0.9768,0.2109,-38.82,-1060.67,703.49
6220,-3.8745,0.9799,0.2103,1039.31,-998.11,625.37
6230,-3.8745,0.9771,0.2107,1429.93,-1076.23,562.87
6240,-3.8745,0.9719,0.2109,1070.56,-1029.36,703.49
6250,-3.8745,0.9681,0.2097,414.31,-998.11,922.24
6260,-3.8745,0.9667,0.2075,-70.07,-1154.42,922.24
6270,-3.8745,0.9657,0.2045,-257.57,-1435.67,797.24
6280,-3.8745,0.9642,0.2034,-382.57,-1826.29,656.62
6290,-3.8745,0.9631,0.2053,-570.07,-1966.92,562.87
6300,-3.8745,0.9636,0.2083,-710.69,-1716.92,609.74
6310,-3.8745,0.9663,0.2091,-648.19,-1341.92,765.99
6320,-3.8745,0.9707,0.2087,-304.44,-1232.54,797.24
6330,-3.8745,0.9753,0.2089,258.06,-1279.36,625.37
6340,-3.8745,0.9779,0.2097,851.81,-1263.73,312.87
6350,-3.8745,0.9774,0.2106,1179.93,-1154.36,172.24
6360,-3.8745,0.9744,0.2095,1117.43,-1044.98,297.24
6370,-3.8745,0.9698,0.2063,726.81,-1185.61,422.24
6380,-3.8745,0.9670,0.2041,148.68,-1591.86,515.99
6390,-3.8745,0.9670,0.2046,-210.69,-1873.17,625.37
6400,-3.8745,0.9677,0.2067,-210.69,-1810.67,859.74
6410,-3.8745,0.9691,0.2081,-132.57,-1545.04,1219.12
6420,-3.8745,0.9713,0.2087,54.93,-1357.48,1594.12
6430,-3.8745,0.9724,0.2087,336.18,-1279.36,1734.74
6440,-3.8745,0.9706,0.2085,476.81,-1279.36,1578.49
6450,-3.8745,0.9681,0.2098,242.43,-1310.61,1312.87
6460,-3.8745,0.9675,0.2102,-70.07,-1138.79,1015.99
6470,-3.8745,0.9686,0.2087,-148.19,-1091.92,844.12
6480,-3.8745,0.9702,0.2068,-7.57,-1279.42,812.87
6490,-3.8745,0.9701,0.2070,195.56,-1529.36,828.49
6500,-3.8745,0.9670,0.2101,179.93,-1498.11,969.12
6510,-3.8745,0.9628,0.2134,-210.69,-1107.54,1187.87
6520,-3.8745,0.9613,0.2137,-757.57,-685.67,1187.87
6530,-3.8745,0.9628,0.2104,-945.07,-638.79,1015.99
6540,-3.8745,0.9646,0.2086,-757.57,-1060.67,719.12
6550,-3.8745,0.9657,0.2100,-523.19,-1295.04,281.62
6560,-3.8746,0.9652,0.2108,-382.57,-1123.17,-46.51
6570,-3.8746,0.9635,0.2101,-445.07,-1013.79,-265.26
6580,-3.8746,0.9614,0.2092,-663.82,-1107.54,-484.01
6590,-3.8746,0.9615,0.2089,-929.44,-1216.92,-718.38
6600,-3.8746,0.9650,0.2081,-913.82,-1263.79,-718.38
6610,-3.8746,0.9681,0.2094,-476.32,-1357.54,-468.38
6620,-3.8746,0.9695,0.2135,-70.07,-1201.29,-77.76
6630,-3.8745,0.9706,0.2157,101.81,-669.98,312.87
6640,-3.8745,0.9707,0.2148,242.43,-388.73,515.99
6650,-3.8745,0.9696,0.2136,258.06,-498.11,515.99
6660,-3.8745,0.9711,0.2152,117.43,-654.36,500.37
6670,-3.8745,0.9774,0.2202,304.93,-451.23,609.74
6680,-3.8745,0.9838,0.2253,1117.43,189.39,828.55
6690,-3.8745,0.9865,0.2272,1929.93,845.64,1000.43
6700,-3.8745,0.9861,0.2261,-1726.32,1080.02,1125.43
6710,-3.8745,0.9819,0.2225,-1773.19,939.39,1141.05
6720,-3.8745,0.9745,0.2169,1695.56,486.27,984.80
6730,-3.8745,0.9653,0.2100,742.43,-232.48,687.87
6740,-3.8745,0.9578,0.2046,-429.44,-1123.17,437.87
6750,-3.8745,0.9540,0.2036,-1398.19,-1810.67,187.87
6760,-3.8745,0.9541,0.2070,-1882.57,-1935.67,62.87
6770,-3.8745,0.9579,0.2129,-1866.94,-1498.17,390.99
6780,-3.8745,0.9639,0.2180,-1382.57,-748.17,937.87
6790,-3.8745,0.9680,0.2207,-616.94,-91.92,1281.62
6800,-3.8745,0.9680,0.2219,-85.69,251.83,1437.93
6810,-3.8745,0.9663,0.2212,-85.69,408.08,1625.43
6820,-3.8745,0.9652,0.2190,-304.44,314.33,1766.05
6830,-3.8745,0.9642,0.2169,-445.07,33.08,1672.30
6840,-3.8745,0.9631,0.2158,-570.07,-232.54,1437.87
6850,-3.8745,0.9635,0.2162,-710.69,-373.17,1234.74
6860,-3.8745,0.9666,0.2178,-663.82,-326.29,1094.12
6870,-3.8745,0.9718,0.2202,-273.19,-123.17,1140.99
6880,-3.8745,0.9774,0.2224,398.68,189.39,1250.43
6890,-3.8745,0.9800,0.2231,1117.43,470.64,1437.93
6900,-3.8745,0.9779,0.2228,1445.56,564.39,1594.18
6910,-3.8745,0.9735,0.2224,1179.93,517.52,1578.55
6920,-3.8745,0.9663,0.2228,617.43,470.64,1641.05
6930,-3.8745,0.9598,0.2229,-304.44,517.46,1812.93
6940,-3.8745,0.9573,0.2217,-1132.57,533.08,1828.55
6950,-3.8745,0.9579,0.2205,-1460.69,376.83,1750.43
6960,-3.8745,0.9608,0.2203,-1382.57,220.58,1656.68
6970,-3.8745,0.9637,0.2201,-1007.57,204.96,1500.43
6980,-3.8745,0.9653,0.2197,-632.57,173.71,1094.18
6990,-3.8745,0.9663,0.2202,-429.44,126.83,594.18
7000,-3.8745,0.9680,0.2220,-304.44,189.33,187.93
7010,-3.8746,0.9691,0.2242,-85.69,423.71,-30.82
7020,-3.8746,0.9674,0.2255,54.93,705.02,-218.32
7030,-3.8746,0.9646,0.2264,-163.82,861.21,-249.57
7040,-3.8746,0.9639,0.2264,-523.19,986.21,-124.57
7050,-3.8746,0.9630,0.2235,-616.94,986.21,-15.20
7060,-3.8745,0.9609,0.2201,-726.32,611.21,187.93
7070,-3.8745,0.9602,0.2200,-991.94,173.71,344.18
7080,-3.8745,0.9600,0.2217,-1085.69,158.08,562.93
7090,-3.8745,0.9587,0.2220,-1116.94,376.83,922.30
7100,-3.8745,0.9589,0.2213,-1273.19,423.71,1109.80
7110,-3.8745,0.9609,0.2197,-1257.57,329.96,969.18
7120,-3.8745,0.9624,0.2200,-991.94,126.83,875.43
7130,-3.8745,0.9631,0.2233,-804.44,158.08,875.43
7140,-3.8745,0.9629,0.2280,-710.69,579.96,1016.05
7150,-3.8745,0.9635,0.2314,-741.94,1189.33,1453.55
7160,-3.8745,0.9639,0.2310,-663.82,1626.83,1812.93
7170,-3.8745,0.9647,0.2286,-616.94,1564.33,1828.55
7180,-3.8745,0.9697,0.2280,-507.57,1267.46,1875.43
7190,-3.8745,0.9685,0.2285,133.06,1189.39,1969.18
7200,-3.8745,0.9612,0.2267,-23.19,1251.83,1844.18
7210,-3.8745,0.9622,0.2250,-960.69,1017.46,1656.68
7220,-3.8745,0.9648,0.2274,-835.69,798.71,1500.43
7230,-3.8745,0.9583,0.2312,-491.94,1111.21,1469.18
7240,-3.8745,0.9496,0.2324,-1335.69,1595.58,1453.55
7250,-3.8745,0.9495,0.2321,1554.93,1751.83,1484.80
7260,-3.8745,0.9592,0.2307,1539.31,1704.96,1547.30
7270,-3.8745,0.9734,0.2268,-1210.69,1533.08,1500.43
7280,-3.8745,0.9829,0.2251,601.81,1033.14,1234.80
7290,-3.8745,0.9841,0.2290,1820.56,814.39,969.18
7300,-3.8745,0.9796,0.2356,1976.81,1314.39,969.18
7310,-3.8745,0.9742,0.2406,1398.68,-1841.86,1234.80
7320,-3.8745,0.9731,0.2400,711.18,-1201.23,1500.43
7330,-3.8745,0.9750,0.2350,570.56,-1279.36,1516.05
7340,-3.8745,0.9768,0.2302,804.93,-1919.98,1219.18
7350,-3.8745,0.9767,0.2286,1039.31,1470.64,953.55
7360,-3.8745,0.9742,0.2307,1023.68,1267.52,937.93
7370,-3.8745,0.9718,0.2344,711.18,1533.14,1125.43
7380,-3.8745,0.9707,0.2363,398.68,-1998.11,1547.30
7390,-3.8745,0.9716,0.2330,258.06,-1748.11,-1921.45
7400,-3.8745,0.9724,0.2250,367.43,1830.02,-1608.95
7410,-3.8745,0.9728,0.2188,476.81,798.77,-1640.20
7420,-3.8745,0.9722,0.2201,523.68,1.89,-1812.07
7430,-3.8745,0.9695,0.2280,445.56,173.77,-1718.32
7440,-3.8745,0.9666,0.2355,101.81,1189.39,-1312.07
7450,-3.8745,0.9645,0.2382,-273.19,-1857.54,-890.20
7460,-3.8745,0.9630,0.2351,-538.82,-1513.79,-843.32
7470,-3.8745,0.9622,0.2278,-726.32,-1904.42,-1265.20
7480,-3.8745,0.9606,0.2223,-835.69,1158.08,-1968.32
7490,-3.8745,0.9575,0.2239,-1038.82,454.96,1437.93
7500,-3.8745,0.9543,0.2308,-1429.44,658.08,1219.18
7510,-3.8745,0.9532,0.2377,-1835.69,1548.71,1234.80
7520,-3.8745,0.9558,0.2390,-1976.32,-1576.29,1187.93
7530,-3.8745,0.9601,0.2349,-1648.19,-1404.42,844.18
7540,-3.8745,0.9626,0.2307,-1101.32,-1935.67,250.43
7550,-3.8746,0.9619,0.2300,-773.19,1533.08,-202.70
7560,-3.8746,0.9587,0.2333,-866.94,1439.33,-171.45
7570,-3.8745,0.9547,0.2366,-1273.19,1861.21,250.43
7580,-3.8745,0.9524,0.2358,-1788.82,-1716.92,797.30
7590,-3.8745,0.9514,0.2327,1914.31,-1810.67,1109.80
7600,-3.8745,0.9509,0.2306,1789.31,1783.08,1094.18
7610,-3.8745,0.9520,0.2322,1726.81,1517.46,1000.43
7620,-3.8745,0.9547,0.2360,1867.43,1720.58,1203.55
7630,-3.8745,0.9581,0.2372,-1788.82,-1795.04,1734.80
7640,-3.8745,0.9613,0.2355,-1351.32,-1638.79,-1796.45
7650,-3.8745,0.9629,0.2321,-945.07,-1857.54,-1608.95
7660,-3.8745,0.9628,0.2288,-741.94,1704.96,-1702.70
7670,-3.8745,0.9609,0.2283,-757.57,1283.08,-1765.20
7680,-3.8745,0.9594,0.2308,-991.94,1220.58,-1562.07
7690,-3.8745,0.9603,0.2328,-1195.07,1548.71,-1155.82
7700,-3.8745,0.9645,0.2314,-1070.07,1798.71,-765.20
7710,-3.8745,0.9683,0.2305,-538.82,1626.83,-624.57
7720,-3.8745,0.9703,0.2325,-54.44,1501.83,-780.82
7730,-3.8745,0.9716,0.2344,211.18,1767.52,-1015.20
7740,-3.8745,0.9735,0.2366,367.43,-1998.11,-983.95
7750,-3.8745,0.9762,0.2411,617.43,-1716.86,-655.82
7760,-3.8745,0.9810,0.2435,961.18,-1138.73,-249.57
7770,-3.8744,0.9840,0.2419,1570.56,-826.23,187.93
7780,-3.8744,0.9788,0.2395,1961.18,-1029.36,453.55
7790,-3.8744,0.9701,0.2371,1289.31,-1341.86,766.05
7800,-3.8744,0.9589,0.2357,179.93,-1654.36,1359.80
7810,-3.8744,0.9453,0.2324,-1257.57,-1826.29,1844.18
7820,-3.8744,0.9338,0.2252,1008.06,1751.83,1859.80
7830,-3.8744,0.9276,0.2213,-460.69,829.90,1562.93
7840,-3.8744,0.9282,0.2239,-1257.57,329.90,1219.18
7850,-3.8744,0.9324,0.2290,-1179.44,658.02,1094.18
7860,-3.8744,0.9386,0.2332,-648.19,1314.27,1094.18
7870,-3.8744,0.9502,0.2332,148.68,1845.58,766.05
7880,-3.8745,0.9663,0.2300,1633.06,1845.58,-30.82
7890,-3.8745,0.9795,0.2286,-304.44,1439.33,-1030.82
7900,-3.8745,0.9845,0.2295,1383.06,1267.52,-1952.70
7910,-3.8745,0.9835,0.2306,-1976.32,1376.89,1562.93
7920,-3.8745,0.9846,0.2323,1898.68,1517.52,1531.68
7930,-3.8745,0.9912,0.2339,-1960.69,1736.27,1703.55
7940,-3.8745,0.9956,0.2347,-1116.94,1939.39,1906.68
7950,-3.8745,0.9934,0.2344,-554.44,-1951.23,-1921.45
7960,-3.8745,0.9877,0.2307,-835.69,-1998.11,-1577.70
7970,-3.8745,0.9791,0.2249,-1570.07,1533.14,-1296.45
7980,-3.8745,0.9683,0.2190,1336.18,783.14,-1218.32
7990,-3.8745,0.9579,0.2136,-54.44,33.08,-1358.95
8000,-3.8745,0.9514,0.2108,-1382.57,-654.42,-1780.88
8010,-3.8745,0.9507,0.2117,1789.31,-1013.79,1687.87
8020,-3.8745,0.9545,0.2130,1695.56,-904.42,1219.12
8030,-3.8745,0.9570,0.2114,-1820.07,-732.54,719.12
8040,-3.8745,0.9552,0.2086,-1491.94,-935.67,219.12
8050,-3.8746,0.9525,0.2083,-1726.32,-1295.04,-15.26
8060,-3.8745,0.9528,0.2135,1929.93,-1341.92,62.87
8070,-3.8745,0.9569,0.2220,1961.18,-670.04,469.12
8080,-3.8745,0.9641,0.2289,-1507.57,423.71,1109.80
8090,-3.8745,0.9706,0.2306,-585.69,1298.71,1812.93
8100,-3.8745,0.9694,0.2284,242.43,1517.52,-1499.57
8110,-3.8745,0.9611,0.2263,86.18,1236.27,-1015.20
8120,-3.8745,0.9520,0.2272,-976.32,970.58,-702.70
8130,-3.8745,0.9475,0.2325,1867.43,1079.96,-374.57
8140,-3.8745,0.9480,0.2372,1289.31,1767.46,-15.20
8150,-3.8744,0.9492,0.2371,1351.81,-1638.79,359.80
8160,-3.8744,0.9436,0.2332,1508.06,-1654.42,562.93
8170,-3.8744,0.9315,0.2288,789.31,1845.58,469.18
8180,-3.8744,0.9285,0.2279,-757.57,1283.02,406.68
8190,-3.8744,0.9374,0.2302,-1148.19,1173.65,562.93
8200,-3.8744,0.9480,0.2352,-7.57,1470.52,828.55
8210,-3.8744,0.9563,0.2407,1351.81,-1888.79,1203.55
8220,-3.8744,0.9614,0.2444,-1585.69,-1185.67,1625.43
8230,-3.8744,0.9696,0.2499,-929.44,-716.92,-1968.32
8240,-3.8744,0.9791,0.2493,117.43,-13.73,-1749.57
8250,-3.8744,0.9685,0.2389,1336.18,-91.86,-1671.45
8260,-3.8744,0.9419,0.2323,-23.19,-1420.04,-1702.70
8270,-3.8744,0.9193,0.2240,570.56,1736.21,1969.18
8280,-3.8744,0.9078,0.2142,1679.93,673.65,1656.68
8290,-3.8744,0.9052,0.2090,211.18,-576.35,1234.74
8300,-3.8744,0.9028,0.2059,-132.57,-1248.29,765.99
8310,-3.8744,0.9023,0.2085,-429.44,-1638.92,469.12
8320,-3.8744,0.9119,0.2136,-491.94,-1310.79,328.49
8330,-3.8744,0.9333,0.2188,726.81,-654.48,375.37
8340,-3.8744,0.9557,0.2263,-523.19,1.77,469.18
8350,-3.8744,0.9690,0.2335,-1663.82,970.58,547.30
8360,-3.8744,0.9724,0.2379,39.31,1892.52,687.93
8370,-3.8744,0.9697,0.2396,476.81,-1544.98,969.18
8380,-3.8744,0.9667,0.2397,133.06,-1326.23,1375.43
8390,-3.8744,0.9658,0.2397,-257.57,-1310.67,1687.93
8400,-3.8744,0.9675,0.2400,-366.94,-1310.67,1859.80
8410,-3.8744,0.9709,0.2401,-148.19,-1279.42,-1858.95
8420,-3.8744,0.9744,0.2388,289.31,-1263.73,-1499.57
8430,-3.8744,0.9760,0.2346,726.81,-1435.61,-1452.70
8440,-3.8744,0.9738,0.2301,929.93,-1966.86,-1718.32
8450,-3.8744,0.9681,0.2278,648.68,1455.02,-1905.82
8460,-3.8744,0.9620,0.2278,-70.07,1158.08,-1983.95
8470,-3.8744,0.9565,0.2295,-851.32,1158.08,-1983.95
8480,-3.8744,0.9534,0.2327,-1554.44,1376.83,-1749.57
8490,-3.8744,0.9534,0.2352,-1960.69,1783.08,-1405.82
8500,-3.8744,0.9554,0.2350,-1960.69,-1888.79,-1093.32
8510,-3.8744,0.9561,0.2323,-1695.07,-1920.04,-1015.20
8520,-3.8744,0.9563,0.2279,-1616.94,1736.21,-1530.82
8530,-3.8744,0.9633,0.2285,-1585.69,1173.71,1766.05
8540,-3.8744,0.9736,0.2371,-695.07,1251.83,1484.80
8550,-3.8744,0.9829,0.2465,633.06,-1654.36,1703.55
8560,-3.8744,0.9891,0.2504,1820.56,-451.23,-1827.70
8570,-3.8744,0.9893,0.2476,-1382.57,48.77,-1733.89
8580,-3.8744,0.9862,0.2424,-1366.94,-310.61,1859.80
8590,-3.8744,0.9824,0.2401,-1757.57,-966.86,1484.80
8600,-3.8744,0.9780,0.2430,1758.06,-1263.73,1609.80
8610,-3.8744,0.9716,0.2482,1195.56,-888.73,-1890.20
8620,-3.8744,0.9648,0.2504,367.43,-232.48,-1358.95
8630,-3.8744,0.9598,0.2467,-491.94,48.71,-1108.89
8640,-3.8744,0.9546,0.2385,-1132.57,-420.04,-1249.57
8650,-3.8744,0.9489,0.2303,-1804.44,-1466.92,-1718.32
8660,-3.8744,0.9425,0.2260,1461.18,1486.21,1625.43
8670,-3.8744,0.9363,0.2258,648.68,923.71,1062.93
8680,-3.8744,0.9327,0.2292,-148.19,908.02,687.93
8690,-3.8744,0.9330,0.2378,-601.32,1345.52,641.05
8700,-3.8744,0.9384,0.2479,-570.07,-1560.73,1031.68
8710,-3.8744,0.9484,0.2561,117.43,-263.79,1641.05
8720,-3.8744,0.9586,0.2592,1398.68,783.08,-1749.51
8730,-3.8744,0.9606,0.2499,-1288.82,1173.71,-1562.01
8740,-3.8744,0.9485,0.2369,-1038.82,-13.79,-1999.57
8750,-3.8744,0.9329,0.2329,1414.31,-1670.04,1453.55
8760,-3.8744,0.9257,0.2361,-585.69,1814.27,1062.93
8770,-3.8744,0.9279,0.2424,-1507.57,-1779.48,969.18
8780,-3.8744,0.9349,0.2480,-1226.32,-966.98,1484.80
8790,-3.8744,0.9396,0.2520,-320.07,-248.23,-1890.20
8800,-3.8744,0.9442,0.2560,273.68,251.83,-1858.89
8810,-3.8744,0.9545,0.2588,867.43,767.46,1766.11
8820,-3.8744,0.9645,0.2588,-1820.07,1126.83,1359.86
8830,-3.8744,0.9694,0.2556,-538.82,1126.83,1031.74
8840,-3.8744,0.9684,0.2496,86.18,720.64,797.36
8850,-3.8744,0.9619,0.2446,-38.82,-45.04,656.68
8860,-3.8744,0.9535,0.2461,-866.94,-685.67,797.30
8870,-3.8744,0.9485,0.2517,-1945.07,-498.17,1250.43
8880,-3.8744,0.9492,0.2554,1414.31,220.58,1781.74
8890,-3.8744,0.9534,0.2526,1508.06,689.33,-1843.26
8900,-3.8744,0.9552,0.2450,-1960.69,329.96,-1952.64
8910,-3.8744,0.9534,0.2404,-1726.32,-638.79,1594.18
8920,-3.8744,0.9525,0.2410,-1960.69,-1232.54,1094.18
8930,-3.8744,0.9563,0.2433,1929.93,-1154.42,641.05
8940,-3.8744,0.9642,0.2461,-1585.69,-857.54,391.05
8950,-3.8744,0.9729,0.2485,-570.07,-498.17,312.93
8960,-3.8744,0.9779,0.2500,539.31,-185.61,172.30
8970,-3.8745,0.9769,0.2489,1179.93,1.89,-140.14
8980,-3.8745,0.9706,0.2451,1054.93,-138.73,-280.82
8990,-3.8745,0.9642,0.2410,242.43,-623.11,-171.45
9000,-3.8745,0.9603,0.2369,-570.07,-1154.42,-265.20
9010,-3.8745,0.9578,0.2363,-1070.07,-1670.04,-343.32
9020,-3.8745,0.9586,0.2412,-1398.19,-1748.17,-15.20
9030,-3.8744,0.9639,0.2467,-1288.82,-1123.17,641.05
9040,-3.8744,0.9694,0.2490,-616.94,-420.04,1125.43
9050,-3.8744,0.9712,0.2476,86.18,-123.11,1141.05
9060,-3.8744,0.9701,0.2440,320.56,-310.61,922.30
9070,-3.8744,0.9658,0.2421,179.93,-763.73,797.30
9080,-3.8744,0.9594,0.2435,-366.94,-1013.79,828.55
9090,-3.8744,0.9548,0.2479,-1195.07,-826.29,1109.80
9100,-3.8744,0.9547,0.2521,-1773.19,-263.79,1562.93
9110,-3.8744,0.9562,0.2529,-1788.82,267.46,1812.99
9120,-3.8744,0.9553,0.2494,-1601.32,376.83,1687.99
9130,-3.8744,0.9515,0.2434,-1710.69,-76.29,1344.18
9140,-3.8744,0.9454,0.2390,1804.93,-841.92,828.55
9150,-3.8744,0.9401,0.2375,1023.68,-1404.42,234.80
9160,-3.8745,0.9392,0.2383,336.18,-1591.92,-108.95
9170,-3.8745,0.9420,0.2412,226.81,-1498.17,-62.07
9180,-3.8744,0.9465,0.2460,586.18,-1123.17,125.43
9190,-3.8744,0.9507,0.2491,1164.31,-513.79,203.55
9200,-3.8744,0.9548,0.2520,1695.56,-107.54,297.30
9210,-3.8744,0.9581,0.2550,-1773.19,251.83,562.99
9220,-3.8744,0.9603,0.2561,-1351.32,642.46,781.74
9230,-3.8744,0.9614,0.2561,-1070.07,783.08,875.49
9240,-3.8744,0.9602,0.2562,-929.44,783.08,1047.36
9250,-3.8744,0.9589,0.2556,-1085.69,798.71,1141.11
9260,-3.8744,0.9581,0.2551,-1257.57,720.58,1062.99
9270,-3.8744,0.9569,0.2549,-1351.32,658.08,984.86
9280,-3.8744,0.9550,0.2531,-1507.57,626.83,797.36
9290,-3.8744,0.9514,0.2495,-1757.57,392.46,500.49
9300,-3.8744,0.9465,0.2460,1789.31,-60.67,234.80
9310,-3.8745,0.9426,0.2452,1164.31,-513.79,-46.45
9320,-3.8745,0.9406,0.2472,664.31,-607.54,-124.57
9330,-3.8744,0.9414,0.2484,398.68,-357.54,31.68
9340,-3.8744,0.9460,0.2483,508.06,-201.29,172.30
9350,-3.8744,0.9518,0.2498,1101.81,-216.92,266.05
9360,-3.8744,0.9561,0.2540,1836.18,-29.42,531.68
9370,-3.8744,0.9579,0.2571,-1616.94,517.46,953.61
9380,-3.8744,0.9565,0.2551,-1382.57,908.08,1234.86
9390,-3.8744,0.9526,0.2489,-1554.44,658.08,1125.49
9400,-3.8744,0.9473,0.2428,1945.56,-138.79,656.68
9410,-3.8744,0.9426,0.2430,1258.06,-920.04,297.30
9420,-3.8744,0.9426,0.2517,664.31,-888.79,297.30
9430,-3.8744,0.9481,0.2610,664.31,220.58,672.36
9440,-3.8744,0.9554,0.2616,1367.43,1408.08,1047.36
9450,-3.8744,0.9601,0.2537,-1695.07,1486.21,891.11
9460,-3.8744,0.9600,0.2450,-1101.32,470.58,219.24
9470,-3.8745,0.9559,0.2434,-1116.94,-638.79,-468.32
9480,-3.8745,0.9529,0.2500,-1632.57,-841.92,-671.45
9490,-3.8745,0.9535,0.2585,1976.81,1.83,-296.39
9500,-3.8744,0.9578,0.2620,-1945.07,1095.58,344.24
9510,-3.8744,0.9618,0.2581,-1398.19,1533.08,672.36
9520,-3.8744,0.9607,0.2498,-882.57,1033.08,594.24
9530,-3.8744,0.9556,0.2440,-1023.19,-29.42,250.43
9540,-3.8744,0.9503,0.2458,-1679.44,-763.79,31.68
9550,-3.8744,0.9487,0.2529,1648.68,-529.42,234.80
9560,-3.8744,0.9524,0.2600,1445.56,376.83,656.74
9570,-3.8744,0.9578,0.2620,1914.31,1283.08,1125.49
9580,-3.8744,0.9617,0.2593,-1398.19,1533.08,1375.49
9590,-3.8744,0.9635,0.2543,-898.19,1189.33,1297.36
9600,-3.8744,0.9612,0.2505,-663.82,548.71,1078.61
9610,-3.8744,0.9562,0.2505,-960.69,64.33,891.11
9620,-3.8744,0.9520,0.2524,-1601.32,64.33,875.49
9630,-3.8744,0.9518,0.2535,1867.43,314.33,1016.11
9640,-3.8744,0.9561,0.2526,1836.18,454.96,1078.61
9650,-3.8744,0.9595,0.2516,-1616.94,329.96,812.99
9660,-3.8744,0.9597,0.2510,-1179.44,204.96,469.24
9670,-3.8744,0.9565,0.2499,-1148.19,126.83,328.61
9680,-3.8744,0.9521,0.2499,-1554.44,-13.79,266.05
9690,-3.8744,0.9506,0.2524,1883.06,-13.79,172.30
9700,-3.8744,0.9536,0.2563,1679.93,314.33,47.36
9710,-3.8745,0.9600,0.2578,-1929.44,814.33,-15.14
9720,-3.8745,0.9647,0.2557,-1116.94,1001.83,-93.26
9730,-3.8745,0.9646,0.2515,-507.57,736.21,-421.39
9740,-3.8745,0.9603,0.2478,-523.19,189.33,-827.64
9750,-3.8745,0.9541,0.2474,-1070.07,-279.42,-1077.70
9760,-3.8745,0.9501,0.2505,-1866.94,-326.29,-1077.70
9770,-3.8745,0.9504,0.2539,1617.43,64.33,-780.76
9780,-3.8745,0.9523,0.2544,1664.31,501.83,-343.26
9790,-3.8745,0.9531,0.2533,1898.68,564.33,-30.76
9800,-3.8744,0.9536,0.2529,-1991.94,423.71,203.61
9810,-3.8744,0.9513,0.2535,-1929.44,376.83,375.49
9820,-3.8744,0.9453,0.2538,1773.68,454.96,500.49
9830,-3.8744,0.9398,0.2511,1008.06,486.21,609.86
9840,-3.8744,0.9371,0.2457,304.93,142.46,656.74
9850,-3.8744,0.9385,0.2410,-38.82,-545.10,406.68
9860,-3.8745,0.9437,0.2395,133.06,-1154.42,-218.32
9870,-3.8745,0.9509,0.2427,804.93,-1341.92,-843.32
9880,-3.8745,0.9585,0.2491,1726.81,-935.67,-1062.07
9890,-3.8745,0.9653,0.2557,-1304.44,-107.54,-812.07
9900,-3.8745,0.9703,0.2592,-429.44,736.21,-437.01
9910,-3.8745,0.9727,0.2579,211.18,1173.77,-483.89
9920,-3.8745,0.9717,0.2542,508.06,1017.52,-796.39
9930,-3.8745,0.9680,0.2506,383.06,533.14,-905.76
9940,-3.8745,0.9648,0.2487,-85.69,79.96,-608.89
9950,-3.8745,0.9624,0.2484,-491.94,-170.04,-187.07
9960,-3.8745,0.9613,0.2480,-804.44,-201.29,-62.07
9970,-3.8745,0.9623,0.2482,-945.07,-248.17,-202.70
9980,-3.8745,0.9628,0.2499,-820.07,-232.54,-233.95
9990,-3.8745,0.9615,0.2515,-757.57,-13.79,-187.07
10000,-3.8745,0.9598,0.2512,-913.82,189.33,-202.64
10010,-3.8745,0.9576,0.2502,-1132.57,158.08,-296.39
10020,-3.8745,0.9557,0.2509,-1413.82,33.08,-437.01
10030,-3.8745,0.9559,0.2537,-1663.82,111.21,-452.64
10040,-3.8745,0.9586,0.2560,-1632.57,470.58,-249.51
10050,-3.8745,0.9628,0.2533,-1288.82,767.46,-15.14
10060,-3.8744,0.9667,0.2476,-757.57,423.71,47.36
10070,-3.8745,0.9672,0.2445,-257.57,-310.67,-46.45
10080,-3.8745,0.9619,0.2456,-195.07,-701.29,-155.82
10090,-3.8745,0.9524,0.2487,-866.94,-560.67,-15.20
10100,-3.8744,0.9424,0.2502,1914.31,-170.04,375.43
10110,-3.8744,0.9371,0.2489,633.06,33.08,516.11
10120,-3.8744,0.9385,0.2469,-38.82,-138.85,312.93
10130,-3.8744,0.9458,0.2469,133.06,-388.79,0.43
10140,-3.8745,0.9554,0.2489,1070.56,-388.79,-187.07
10150,-3.8745,0.9629,0.2502,-1695.07,-138.79,-483.95
10160,-3.8745,0.9677,0.2495,-741.94,33.08,-999.51
10170,-3.8745,0.9697,0.2490,-132.57,-60.67,-1405.82
10180,-3.8745,0.9686,0.2498,133.06,-123.11,-1343.32
10190,-3.8745,0.9650,0.2502,-7.57,-29.42,-968.32
10200,-3.8745,0.9597,0.2500,-476.32,33.08,-702.64
10210,-3.8745,0.9551,0.2498,-1148.19,1.83,-530.76
10220,-3.8745,0.9529,0.2506,-1741.94,-29.42,-296.45
10230,-3.8745,0.9521,0.2513,1976.81,79.96,-77.64
10240,-3.8744,0.9535,0.2504,1883.06,173.71,62.99
10250,-3.8744,0.9572,0.2482,-1945.07,48.71,187.99
10260,-3.8744,0.9596,0.2456,-1476.32,-232.54,266.05
10270,-3.8744,0.9592,0.2445,-1163.82,-560.67,109.80
10280,-3.8745,0.9587,0.2457,-1210.69,-701.29,-108.95
10290,-3.8745,0.9587,0.2472,-1273.19,-545.04,-249.57
10300,-3.8745,0.9573,0.2488,-1273.19,-357.54,-265.20
10310,-3.8745,0.9561,0.2498,-1460.69,-154.42,-280.82
10320,-3.8745,0.9563,0.2490,-1616.94,-29.42,-421.45
10330,-3.8745,0.9551,0.2471,-1585.69,-123.17,-640.20
10340,-3.8745,0.9510,0.2454,-1741.94,-373.17,-858.95
10350,-3.8745,0.9462,0.2446,1742.43,-591.92,-937.07
10360,-3.8745,0.9424,0.2446,1117.43,-685.67,-1093.32
10370,-3.8745,0.9425,0.2461,633.06,-685.67,-1374.57
10380,-3.8745,0.9470,0.2485,648.68,-498.17,-1499.57
10390,-3.8745,0.9528,0.2500,1226.81,-185.67,-1390.20
10400,-3.8745,0.9573,0.2491,1961.18,1.83,-1280.76
10410,-3.8745,0.9594,0.2477,-1460.69,-107.54,-1265.20
10420,-3.8745,0.9579,0.2479,-1195.07,-295.04,-1327.70
10430,-3.8745,0.9541,0.2490,-1382.57,-263.79,-1233.95
10440,-3.8745,0.9502,0.2505,-1866.94,-123.17,-765.20
10450,-3.8745,0.9480,0.2507,1633.06,64.33,-249.51
10460,-3.8745,0.9475,0.2478,1351.81,95.58,-46.39
10470,-3.8745,0.9489,0.2456,1289.31,-279.42,-108.95
10480,-3.8745,0.9518,0.2478,1461.18,-560.67,-202.70
10490,-3.8745,0.9558,0.2529,1836.18,-279.42,-265.20
10500,-3.8745,0.9597,0.2560,-1648.19,376.83,-171.39
10510,-3.8745,0.9634,0.2531,-1148.19,767.46,-93.26
10520,-3.8745,0.9667,0.2451,-679.44,392.46,-374.51
10530,-3.8745,0.9645,0.2375,-257.57,-623.17,-937.07
10540,-3.8745,0.9572,0.2347,-538.82,-1591.92,-1452.70
10550,-3.8745,0.9503,0.2374,-1476.32,-1951.29,-1687.07
10560,-3.8745,0.9464,0.2413,1648.68,-1607.54,-1515.20
10570,-3.8745,0.9449,0.2421,1148.68,-1107.54,-1171.45
10580,-3.8745,0.9465,0.2399,961.18,-1013.79,-1062.07
10590,-3.8745,0.9512,0.2390,1164.31,-1295.04,-1390.20
10600,-3.8745,0.9569,0.2413,1758.06,-1404.42,-1812.07
10610,-3.8745,0.9645,0.2463,-1507.57,-1107.54,-1843.32
10620,-3.8745,0.9729,0.2504,-538.82,-466.92,-1702.70
10630,-3.8745,0.9774,0.2488,539.31,48.77,-1624.51
10640,-3.8745,0.9773,0.2428,1117.43,-154.36,-1812.07
10650,-3.8745,0.9766,0.2380,1101.81,-919.98,1719.18
10660,-3.8745,0.9764,0.2377,1008.06,-1529.36,1344.18
10670,-3.8745,0.9762,0.2406,992.43,-1576.23,1297.30
10680,-3.8745,0.9755,0.2440,961.18,-1201.23,1500.43
10690,-3.8745,0.9735,0.2478,867.43,-763.73,1844.18
10700,-3.8745,0.9720,0.2504,617.43,-279.36,-1733.95
10710,-3.8745,0.9712,0.2493,429.93,48.77,-1405.76
10720,-3.8745,0.9700,0.2478,320.56,-91.86,-1155.82
10730,-3.8745,0.9677,0.2484,164.31,-279.36,-1046.45
10740,-3.8745,0.9617,0.2494,-132.57,-201.29,-905.82
10750,-3.8745,0.9531,0.2484,-898.19,-76.29,-671.45
10760,-3.8745,0.9459,0.2450,-1991.94,-201.29,-655.82
10770,-3.8745,0.9404,0.2405,1086.18,-638.79,-890.20
10780,-3.8745,0.9365,0.2374,383.06,-1216.92,-1171.45
10790,-3.8745,0.9371,0.2378,-116.94,-1607.60,-1374.57
10800,-3.8745,0.9404,0.2405,-38.82,-1560.73,-1280.82
10810,-3.8745,0.9424,0.2432,383.06,-1216.92,-968.32
10820,-3.8745,0.9436,0.2450,633.06,-873.17,-702.70
10830,-3.8745,0.9438,0.2458,789.31,-638.79,-515.20
10840,-3.8745,0.9425,0.2472,820.56,-529.42,-296.45
10850,-3.8745,0.9423,0.2501,648.68,-357.54,-93.32
10860,-3.8744,0.9437,0.2515,617.43,17.46,62.99
10870,-3.8744,0.9454,0.2477,804.93,189.33,172.36
10880,-3.8745,0.9468,0.2406,1023.68,-295.04,-93.32
10890,-3.8745,0.9476,0.2356,1195.56,-1201.29,-671.45
10900,-3.8745,0.9470,0.2363,1304.93,-1841.92,-937.07
10910,-3.8745,0.9463,0.2411,1226.81,-1748.17,-765.20
10920,-3.8745,0.9479,0.2422,1133.06,-1138.79,-577.70
10930,-3.8745,0.9514,0.2377,1336.18,-998.17,-765.20
10940,-3.8745,0.9606,0.2372,1789.31,-1576.29,-1187.07
10950,-3.8745,0.9729,0.2456,-1038.82,-1638.79,-1468.32
10960,-3.8745,0.9819,0.2578,539.31,-560.61,-1296.45
10970,-3.8745,0.9867,0.2639,1695.56,1001.89,-718.26
10980,-3.8745,0.9844,0.2561,-1695.07,1783.14,-390.14
10990,-3.8745,0.9756,0.2401,-1991.94,783.14,-624.51
11000,-3.8745,0.9672,0.2283,883.06,-1263.73,-1280.82
11010,-3.8745,0.9625,0.2266,-195.07,1220.58,-1858.95
11020,-3.8745,0.9613,0.2311,-788.82,1001.83,1969.18
11030,-3.8745,0.9641,0.2345,-945.07,1579.96,1922.30
11040,-3.8745,0.9694,0.2340,-585.69,-1982.54,1844.18
11050,-3.8745,0.9741,0.2316,86.18,1955.02,1687.93
11060,-3.8745,0.9757,0.2321,695.56,1642.52,1422.30
11070,-3.8745,0.9752,0.2365,898.68,1705.02,1328.55
11080,-3.8745,0.9755,0.2399,836.18,-1732.48,1437.93
11090,-3.8745,0.9768,0.2390,867.43,-1294.98,1594.18
11100,-3.8745,0.9790,0.2362,1039.31,-1404.36,1766.05
11110,-3.8745,0.9795,0.2356,1320.56,-1763.73,1859.80
11120,-3.8745,0.9773,0.2391,1383.06,-1841.86,-1874.57
11130,-3.8745,0.9739,0.2441,1101.81,-1388.73,-1390.20
11140,-3.8745,0.9707,0.2457,664.31,-748.11,-937.07
11150,-3.8745,0.9694,0.2435,258.06,-544.98,-749.57
11160,-3.8745,0.9684,0.2388,86.18,-826.23,-827.70
11170,-3.8745,0.9642,0.2343,-38.82,-1435.67,-1046.45
11180,-3.8745,0.9567,0.2349,-570.07,1986.21,-1233.95
11190,-3.8745,0.9506,0.2400,-1538.82,-1935.67,-1233.95
11200,-3.8745,0.9479,0.2444,1679.93,-1279.42,-1108.95
11210,-3.8745,0.9474,0.2460,1336.18,-716.92,-983.95
11220,-3.8745,0.9496,0.2451,1273.68,-513.79,-1108.95
11230,-3.8745,0.9528,0.2433,1554.93,-623.17,-1483.95
11240,-3.8745,0.9552,0.2424,1961.18,-857.54,-1812.07
11250,-3.8745,0.9565,0.2417,-1726.32,-966.92,1953.55
11260,-3.8745,0.9563,0.2412,-1554.44,-1060.67,1781.68
11270,-3.8745,0.9563,0.2421,-1585.69,-1123.17,1844.18
11280,-3.8745,0.9567,0.2429,-1585.69,-1013.79,1937.93
11290,-3.8745,0.9561,0.2444,-1538.82,-904.42,1984.80
11300,-3.8745,0.9550,0.2456,-1616.94,-716.92,1937.93
11310,-3.8745,0.9547,0.2437,-1757.57,-560.67,1922.30
11320,-3.8745,0.9539,0.2405,-1788.82,-810.67,1969.18
11330,-3.8745,0.9539,0.2404,-1898.19,-1216.92,-1843.32
11340,-3.8745,0.9540,0.2417,-1898.19,-1232.54,-1437.07
11350,-3.8745,0.9531,0.2410,-1882.57,-1060.67,-1030.82
11360,-3.8745,0.9531,0.2385,-1991.94,-1154.42,-843.32
11370,-3.8745,0.9550,0.2362,-1991.94,-1466.92,-858.95
11380,-3.8745,0.9590,0.2354,-1757.57,-1763.79,-999.57
11390,-3.8745,0.9650,0.2363,-1241.94,-1873.17,-1187.07
11400,-3.8745,0.9712,0.2394,-476.32,-1748.17,-1343.32
11410,-3.8745,0.9775,0.2444,320.56,-1357.48,-1327.70
11420,-3.8745,0.9835,0.2488,1133.06,-716.86,-1093.32
11430,-3.8745,0.9873,0.2499,1898.68,-154.36,-858.95
11440,-3.8745,0.9879,0.2473,-1616.94,-13.73,-780.82
11450,-3.8745,0.9867,0.2430,-1538.82,-341.86,-718.32
11460,-3.8745,0.9849,0.2400,-1695.07,-888.73,-483.95
11470,-3.8745,0.9827,0.2393,-1929.44,-1279.36,-62.07
11480,-3.8744,0.9775,0.2391,1789.31,-1373.11,609.80
11490,-3.8744,0.9689,0.2377,1133.06,-1388.73,1422.30
11500,-3.8744,0.9595,0.2354,23.68,-1576.23,1953.55
11510,-3.8744,0.9501,0.2334,-1179.44,-1873.17,-1812.07
11520,-3.8744,0.9419,0.2323,1617.43,1876.83,-1796.45
11530,-3.8744,0.9373,0.2311,570.56,1736.21,1859.80
11540,-3.8744,0.9374,0.2312,-23.19,1579.90,1312.93
11550,-3.8744,0.9421,0.2336,-7.57,1595.52,484.80
11560,-3.8745,0.9508,0.2389,601.81,1908.08,-421.45
11570,-3.8745,0.9618,0.2439,1711.18,-1420.04,-1218.32
11580,-3.8745,0.9712,0.2456,-882.57,-779.42,1953.55
11590,-3.8745,0.9757,0.2466,320.56,-560.61,1094.18
11600,-3.8745,0.9734,0.2487,898.68,-435.61,547.30
11610,-3.8745,0.9642,0.2496,601.81,-169.98,594.18
11620,-3.8745,0.9532,0.2484,-570.07,-45.04,875.43
11630,-3.8745,0.9438,0.2461,-1976.32,-201.29,1078.55
11640,-3.8745,0.9368,0.2451,820.56,-498.17,1453.55
11650,-3.8745,0.9327,0.2472,-85.69,-623.23,-1921.45
11660,-3.8745,0.9330,0.2506,-601.32,-357.60,-1155.82
11670,-3.8745,0.9370,0.2534,-570.07,79.90,-452.64
11680,-3.8744,0.9417,0.2545,-54.44,439.27,47.36
11690,-3.8744,0.9434,0.2539,539.31,579.96,469.24
11700,-3.8744,0.9414,0.2506,758.06,501.83,984.86
11710,-3.8744,0.9357,0.2458,508.06,79.96,1469.24
11720,-3.8744,0.9281,0.2415,-226.32,-529.48,1719.18
11730,-3.8744,0.9214,0.2391,-1195.07,-1091.98,1937.93
11740,-3.8744,0.9178,0.2390,1945.56,-1388.85,-1765.20
11750,-3.8744,0.9180,0.2380,1492.43,-1404.48,-1468.32
11760,-3.8744,0.9200,0.2352,1508.06,-1529.48,-1265.20
11770,-3.8744,0.9242,0.2323,1773.68,-1888.85,-1358.95
11780,-3.8744,0.9276,0.2313,-1695.07,1736.15,-1624.57
11790,-3.8744,0.9318,0.2355,-1257.57,1611.15,-1874.57
11800,-3.8744,0.9386,0.2419,-726.32,-1857.60,1969.18
11810,-3.8744,0.9453,0.2441,148.68,-1029.42,1875.43
11820,-3.8744,0.9512,0.2407,1008.06,-748.17,1531.68
11830,-3.8744,0.9572,0.2366,1758.06,-1185.67,781.68
11840,-3.8745,0.9651,0.2368,-1476.32,-1716.92,-140.20
11850,-3.8745,0.9736,0.2405,-460.69,-1685.67,-796.45
11860,-3.8745,0.9781,0.2440,633.06,-1216.86,-1046.45
11870,-3.8745,0.9784,0.2437,1211.18,-763.73,-1187.07
11880,-3.8745,0.9763,0.2390,1242.43,-810.61,-1390.20
11890,-3.8745,0.9722,0.2349,976.81,-1404.36,-1718.32
11900,-3.8745,0.9677,0.2351,445.56,-1935.61,-1905.82
11910,-3.8745,0.9655,0.2379,-132.57,-1904.42,-1655.82
11920,-3.8745,0.9675,0.2369,-413.82,-1545.04,-1187.07
11930,-3.8745,0.9716,0.2305,-148.19,-1670.04,-1124.57
11940,-3.8745,0.9733,0.2262,367.43,1501.89,-1483.95
11950,-3.8745,0.9747,0.2272,586.18,955.02,-1671.45
11960,-3.8745,0.9777,0.2314,773.68,1080.02,-1546.45
11970,-3.8745,0.9816,0.2358,1148.68,1626.89,-1249.57
11980,-3.8745,0.9854,0.2374,1648.68,-1810.61,-968.32
11990,-3.8745,0.9873,0.2363,-1866.94,-1607.48,-937.07
12000,-3.8745,0.9852,0.2343,-1616.94,-1748.11,-1233.95
12010,-3.8745,0.9795,0.2330,-1882.57,1986.27,-1655.82
12020,-3.8745,0.9720,0.2357,1383.06,1830.02,-1671.45
12030,-3.8745,0.9650,0.2415,429.93,-1826.23,-1312.07
12040,-3.8745,0.9624,0.2448,-476.32,-1091.92,-952.70
12050,-3.8745,0.9644,0.2432,-804.44,-670.04,-733.95
12060,-3.8745,0.9644,0.2374,-554.44,-873.17,-796.45
12070,-3.8745,0.9585,0.2301,-554.44,-1607.54,-983.95
12080,-3.8745,0.9490,0.2251,-1304.44,1454.96,-1327.70
12090,-3.8745,0.9399,0.2250,1476.81,814.33,-1687.07
12100,-3.8745,0.9349,0.2294,320.56,798.71,-1952.70
12110,-3.8745,0.9363,0.2372,-320.07,1361.15,-1937.07
12120,-3.8745,0.9448,0.2454,-148.19,-1638.85,-1624.57
12130,-3.8745,0.9580,0.2491,945.56,-591.92,-1374.57
12140,-3.8745,0.9692,0.2493,-1366.94,-107.54,-1249.57
12150,-3.8745,0.9741,0.2498,70.56,-91.86,-1046.45
12160,-3.8745,0.9717,0.2505,695.56,-29.36,-671.45
12170,-3.8745,0.9647,0.2504,383.06,64.39,-249.51
12180,-3.8744,0.9581,0.2482,-507.57,48.71,172.36
12190,-3.8744,0.9517,0.2424,-1351.32,-232.54,437.93
12200,-3.8744,0.9452,0.2354,1820.56,-966.92,391.05
12210,-3.8744,0.9415,0.2312,992.43,-1873.17,172.30
12220,-3.8744,0.9412,0.2329,523.68,1595.58,94.18
12230,-3.8744,0.9435,0.2389,476.81,1814.33,266.05
12240,-3.8744,0.9478,0.2434,773.68,-1420.04,547.30
12250,-3.8744,0.9517,0.2450,1320.56,-841.92,766.05
12260,-3.8744,0.9545,0.2435,1820.56,-638.79,812.93
12270,-3.8744,0.9568,0.2405,-1820.07,-826.29,672.30
12280,-3.8744,0.9575,0.2382,-1523.19,-1216.92,281.68
12290,-3.8745,0.9579,0.2386,-1429.44,-1513.79,-187.07
12300,-3.8745,0.9601,0.2408,-1382.57,-1451.29,-655.82
12310,-3.8745,0.9629,0.2437,-1101.32,-1170.04,-921.45
12320,-3.8745,0.9652,0.2455,-741.94,-810.67,-812.07
12330,-3.8745,0.9655,0.2439,-445.07,-576.29,-655.82
12340,-3.8745,0.9620,0.2401,-413.82,-779.42,-655.82
12350,-3.8745,0.9563,0.2363,-851.32,-1263.79,-687.07
12360,-3.8745,0.9513,0.2338,-1585.69,-1748.17,-655.82
12370,-3.8745,0.9490,0.2341,1773.68,1923.71,-671.45
12380,-3.8745,0.9490,0.2363,1476.81,1970.58,-780.82
12390,-3.8745,0.9512,0.2384,1476.81,-1748.17,-843.32
12400,-3.8745,0.9553,0.2401,1758.06,-1482.54,-827.70
12410,-3.8745,0.9595,0.2415,-1710.69,-1263.79,-874.57
12420,-3.8745,0.9624,0.2427,-1179.44,-1091.92,-1046.45
12430,-3.8745,0.9652,0.2427,-804.44,-935.67,-1280.82
12440,-3.8745,0.9678,0.2416,-445.07,-935.67,-1530.82
12450,-3.8745,0.9701,0.2423,-116.94,-1076.29,-1858.95
12460,-3.8745,0.9713,0.2448,179.93,-982.48,1937.93
12470,-3.8745,0.9711,0.2457,336.18,-669.98,-1983.95
12480,-3.8745,0.9683,0.2439,304.93,-544.98,-1718.32
12490,-3.8745,0.9620,0.2412,-54.44,-779.42,-1468.32
12500,-3.8745,0.9548,0.2408,-851.32,-1123.17,-1265.20
12510,-3.8745,0.9487,0.2418,-1773.19,-1170.04,-1046.45
12520,-3.8745,0.9456,0.2411,1445.56,-1045.04,-827.70
12530,-3.8745,0.9453,0.2396,1039.31,-1138.79,-843.32
12540,-3.8745,0.9476,0.2390,1008.06,-1326.29,-1140.20
12550,-3.8745,0.9513,0.2377,1304.93,-1404.42,-1327.70
12560,-3.8745,0.9530,0.2365,1773.68,-1576.29,-1468.32
12570,-3.8745,0.9529,0.2383,1992.43,-1732.54,-1749.57
12580,-3.8745,0.9546,0.2418,1976.81,-1498.17,-1983.95
12590,-3.8745,0.9592,0.2446,-1804.44,-1045.04,1969.18
12600,-3.8745,0.9650,0.2465,-1210.69,-685.67,1969.18
12610,-3.8745,0.9697,0.2471,-476.32,-451.29,1906.68
12620,-3.8745,0.9724,0.2472,133.06,-373.11,1734.80
12630,-3.8745,0.9725,0.2466,476.81,-357.48,1594.18
12640,-3.8745,0.9714,0.2450,492.43,-435.61,1641.05
12650,-3.8745,0.9686,0.2429,351.81,-638.73,1812.93
12660,-3.8745,0.9636,0.2422,-7.57,-904.42,-1874.57
12670,-3.8745,0.9609,0.2430,-648.19,-998.17,-1437.07
12680,-3.8745,0.9618,0.2438,-991.94,-888.79,-858.95
12690,-3.8745,0.9646,0.2449,-882.57,-795.04,-312.07
12700,-3.8744,0.9659,0.2451,-523.19,-654.42,16.05
12710,-3.8744,0.9636,0.2445,-351.32,-623.17,172.30
12720,-3.8744,0.9644,0.2437,-648.19,-701.29,203.55
12730,-3.8744,0.9667,0.2422,-554.44,-810.67,125.43
12740,-3.8745,0.9650,0.2418,-257.57,-998.17,-15.20
12750,-3.8745,0.9623,0.2424,-476.32,-1045.04,-124.57
12760,-3.8745,0.9597,0.2411,-820.07,-966.92,-171.45
12770,-3.8745,0.9546,0.2386,-1148.19,-1138.79,-296.45
12780,-3.8745,0.9484,0.2383,-1804.44,-1451.29,-624.57
12790,-3.8745,0.9440,0.2384,1398.68,-1498.17,-1062.07
12800,-3.8745,0.9418,0.2372,836.18,-1482.54,-1530.82
12810,-3.8745,0.9409,0.2383,554.93,-1638.79,-1983.95
12820,-3.8745,0.9435,0.2429,445.56,-1498.17,1719.18
12830,-3.8745,0.9497,0.2473,773.68,-904.42,1734.80
12840,-3.8745,0.9572,0.2488,1570.56,-341.92,1734.80
12850,-3.8745,0.9631,0.2477,-1476.32,-154.42,1547.30
12860,-3.8745,0.9653,0.2462,-710.69,-295.04,1250.43
12870,-3.8745,0.9636,0.2466,-429.44,-482.54,1047.30
12880,-3.8745,0.9591,0.2473,-648.19,-435.67,1109.80
12890,-3.8745,0.9556,0.2479,-1226.32,-341.92,1234.80
12900,-3.8745,0.9545,0.2473,-1679.44,-263.79,1437.93
12910,-3.8745,0.9506,0.2466,-1820.07,-341.92,1328.55
12920,-3.8745,0.9506,0.2450,1679.93,-435.67,1156.68
12930,-3.8745,0.9567,0.2432,1679.93,-638.79,1359.80
12940,-3.8745,0.9622,0.2455,-1538.82,-873.17,1625.43
12950,-3.8745,0.9686,0.2511,-835.69,-576.29,-1937.07
12960,-3.8745,0.9695,0.2552,-7.57,142.46,-1265.14
12970,-3.8745,0.9613,0.2524,101.81,673.77,-765.14
12980,-3.8745,0.9541,0.2448,-945.07,314.33,-796.39
12990,-3.8745,0.9492,0.2406,-1866.94,-670.04,-1030.82
13000,-3.8745,0.9454,0.2430,1508.06,-1201.29,-1187.07
13010,-3.8745,0.9462,0.2479,1023.68,-888.79,-1155.82
13020,-3.8745,0.9509,0.2509,1117.43,-263.79,-968.32
13030,-3.8745,0.9578,0.2506,1726.81,111.21,-1015.14
13040,-3.8745,0.9658,0.2465,-1398.19,79.96,-1343.26
13050,-3.8745,0.9703,0.2401,-366.94,-451.29,-1858.95
13060,-3.8745,0.9658,0.2361,211.18,-1263.73,1812.93
13070,-3.8745,0.9561,0.2379,-366.94,-1779.42,1891.05
13080,-3.8745,0.9478,0.2444,-1616.94,-1545.04,-1858.95
13090,-3.8745,0.9448,0.2499,1320.56,-716.92,-1499.57
13100,-3.8745,0.9489,0.2520,945.56,-13.79,-1155.82
13110,-3.8745,0.9583,0.2518,1461.18,251.83,-1015.14
13120,-3.8745,0.9664,0.2490,-1335.69,236.21,-1046.39
13130,-3.8745,0.9672,0.2450,-288.82,-123.17,-1062.07
13140,-3.8745,0.9634,0.2421,-195.07,-638.79,-1202.70
13150,-3.8745,0.9591,0.2413,-679.44,-1013.79,-1515.20
13160,-3.8745,0.9568,0.2429,-1226.32,-1107.54,-1718.32
13170,-3.8745,0.9607,0.2456,-1523.19,-904.42,-1749.57
13180,-3.8745,0.9684,0.2471,-1023.19,-560.67,-1624.57
13190,-3.8745,0.9720,0.2452,-38.82,-373.17,-1515.20
13200,-3.8745,0.9703,0.2426,429.93,-607.48,-1593.32
13210,-3.8745,0.9657,0.2410,211.18,-951.23,-1843.32
13220,-3.8745,0.9609,0.2400,-382.57,-1154.42,1922.30
13230,-3.8745,0.9594,0.2397,-991.94,-1279.42,1672.30
13240,-3.8745,0.9611,0.2401,-1195.07,-1310.67,1437.93
13250,-3.8745,0.9633,0.2395,-976.32,-1263.79,1328.55
13260,-3.8745,0.9645,0.2368,-695.07,-1341.92,1172.30
13270,-3.8745,0.9652,0.2347,-538.82,-1685.67,875.43
13280,-3.8745,0.9644,0.2360,-445.07,-1951.29,406.68
13290,-3.8745,0.9619,0.2399,-554.44,-1795.04,266.05
13300,-3.8745,0.9611,0.2428,-866.94,-1295.04,484.80
13310,-3.8745,0.9626,0.2457,-976.32,-920.04,703.55
13320,-3.8745,0.9672,0.2513,-773.19,-545.04,844.18
13330,-3.8745,0.9735,0.2561,-195.07,173.71,1078.61
13340,-3.8745,0.9779,0.2578,617.43,783.14,1469.24
13350,-3.8745,0.9778,0.2561,1179.93,1001.89,1781.74
13360,-3.8745,0.9728,0.2512,1164.31,783.14,1844.24
13370,-3.8745,0.9641,0.2456,523.68,158.14,1844.24
13380,-3.8745,0.9541,0.2418,-585.69,-560.67,-1999.57
13390,-3.8745,0.9453,0.2411,-1866.94,-1045.04,-1765.20
13400,-3.8745,0.9382,0.2418,1008.06,-1138.79,-1499.57
13410,-3.8745,0.9342,0.2439,101.81,-1045.04,-1358.95
13420,-3.8745,0.9351,0.2471,-413.82,-779.48,-1218.32
13430,-3.8745,0.9402,0.2495,-304.44,-373.23,-1077.70
13440,-3.8745,0.9470,0.2506,351.81,-60.67,-1202.70
13450,-3.8745,0.9547,0.2507,1226.81,79.96,-1390.14
13460,-3.8745,0.9601,0.2494,-1788.82,95.58,-1499.51
13470,-3.8745,0.9635,0.2482,-1101.32,-76.29,-1593.32
13480,-3.8745,0.9689,0.2485,-663.82,-232.54,-1827.70
13490,-3.8745,0.9735,0.2489,23.68,-185.61,1734.80
13500,-3.8745,0.9753,0.2479,617.43,-138.73,1422.30
13510,-3.8745,0.9734,0.2455,851.81,-263.73,1297.30
13520,-3.8745,0.9667,0.2424,601.81,-576.23,1422.30
13530,-3.8745,0.9575,0.2412,-257.57,-966.92,1766.05
13540,-3.8745,0.9503,0.2410,-1429.44,-1123.17,-1796.45
13550,-3.8745,0.9474,0.2399,1648.68,-1154.42,-1452.70
13560,-3.8745,0.9486,0.2395,1273.68,-1295.04,-1233.95
13570,-3.8745,0.9534,0.2401,1429.93,-1341.92,-1233.95
13580,-3.8745,0.9603,0.2404,-1960.69,-1263.79,-1390.20
13590,-3.8745,0.9666,0.2418,-1070.07,-1232.54,-1608.95
13600,-3.8745,0.9711,0.2469,-273.19,-1045.04,-1874.57
13610,-3.8745,0.9741,0.2544,304.93,-388.73,-1874.57
13620,-3.8745,0.9762,0.2589,695.56,564.39,-1515.14
13630,-3.8745,0.9768,0.2574,961.18,1142.52,-1296.39
13640,-3.8745,0.9729,0.2506,1039.31,955.02,-1499.51
13650,-3.8745,0.9655,0.2440,539.31,80.02,-1937.01
13660,-3.8745,0.9583,0.2426,-413.82,-763.79,1766.05
13670,-3.8745,0.9536,0.2468,-1335.69,-951.29,1891.05
13680,-3.8745,0.9524,0.2531,-1929.44,-404.42,-1765.20
13690,-3.8745,0.9535,0.2554,1914.31,392.46,-1452.64
13700,-3.8745,0.9559,0.2523,-1945.07,689.33,-1280.76
13710,-3.8745,0.9568,0.2472,-1632.57,298.71,-1327.64
13720,-3.8745,0.9536,0.2448,-1523.19,-357.54,-1358.95
13730,-3.8745,0.9474,0.2456,-1929.44,-670.04,-1296.45
13740,-3.8745,0.9409,0.2482,1273.68,-560.67,-1108.95
13750,-3.8745,0.9364,0.2500,445.56,-232.54,-796.45
13760,-3.8745,0.9338,0.2512,-132.57,1.77,-562.01
13770,-3.8745,0.9340,0.2516,-460.69,158.02,-452.64
13780,-3.8745,0.9351,0.2505,-445.07,204.90,-405.76
13790,-3.8745,0.9342,0.2499,-304.44,64.27,-312.01
13800,-3.8745,0.9348,0.2490,-413.82,-13.85,-312.07
13810,-3.8745,0.9371,0.2469,-335.69,-123.23,-655.82
13820,-3.8745,0.9401,0.2471,-38.82,-388.85,-1062.07
13830,-3.8745,0.9457,0.2500,336.18,-373.17,-1374.57
13840,-3.8745,0.9537,0.2548,1054.93,1.83,-1655.76
13850,-3.8745,0.9613,0.2589,-1913.82,611.21,-1765.14
13860,-3.8745,0.9669,0.2596,-945.07,1142.46,-1827.64
13870,-3.8745,0.9683,0.2570,-226.32,1236.21,1984.86
13880,-3.8745,0.9664,0.2532,-54.44,892.46,1781.74
13890,-3.8745,0.9655,0.2509,-288.82,408.08,1672.36
13900,-3.8745,0.9667,0.2498,-413.82,111.21,1781.74
13910,-3.8745,0.9684,0.2480,-257.57,-29.42,1859.80
13920,-3.8745,0.9677,0.2457,-38.82,-248.17,1859.80
13930,-3.8745,0.9645,0.2443,-132.57,-545.04,1969.18
13940,-3.8745,0.9611,0.2452,-538.82,-732.54,-1702.70
13950,-3.8745,0.9603,0.2484,-976.32,-607.54,-1124.57
13960,-3.8745,0.9622,0.2505,-1070.07,-201.29,-655.82
13970,-3.8745,0.9630,0.2502,-835.69,64.33,-296.39
13980,-3.8745,0.9628,0.2488,-726.32,33.08,-171.39
13990,-3.8745,0.9633,0.2471,-757.57,-154.42,-515.20
14000,-3.8745,0.9634,0.2460,-695.07,-373.17,-968.32
14010,-3.8745,0.9629,0.2451,-679.44,-513.79,-1280.82
14020,-3.8745,0.9628,0.2443,-741.94,-623.17,-1577.70
14030,-3.8745,0.9628,0.2452,-757.57,-732.54,1984.80
14040,-3.8745,0.9630,0.2485,-757.57,-607.54,1719.18
14050,-3.8745,0.9644,0.2526,-726.32,-185.67,1750.43
14060,-3.8745,0.9662,0.2545,-554.44,329.96,1828.61
14070,-3.8745,0.9666,0.2527,-320.07,579.96,1844.24
14080,-3.8745,0.9655,0.2495,-273.19,345.58,1766.11
14090,-3.8745,0.9624,0.2485,-413.82,-60.67,1578.55
14100,-3.8745,0.9590,0.2504,-804.44,-185.67,1484.80
14110,-3.8745,0.9580,0.2515,-1241.94,48.71,1562.99
14120,-3.8745,0.9570,0.2499,-1366.94,189.33,1609.86
14130,-3.8745,0.9539,0.2473,-1491.94,-13.79,1547.30
14140,-3.8745,0.9500,0.2467,-1898.19,-341.92,1453.55
14150,-3.8745,0.9462,0.2477,1601.81,-420.04,1469.18
14160,-3.8745,0.9443,0.2488,1117.43,-295.04,1641.05
14170,-3.8745,0.9452,0.2493,883.06,-154.42,1891.05
14180,-3.8745,0.9479,0.2469,992.43,-91.92,1953.55
14190,-3.8745,0.9502,0.2445,1336.18,-388.79,1750.43
14200,-3.8745,0.9519,0.2455,1633.06,-701.29,1625.43
14210,-3.8745,0.9532,0.2496,1851.81,-576.29,1625.43
14220,-3.8745,0.9540,0.2542,-1976.32,-45.04,1797.30
14230,-3.8745,0.9545,0.2565,-1882.57,533.08,1953.61
14240,-3.8745,0.9559,0.2571,-1820.07,829.96,-1999.51
14250,-3.8745,0.9590,0.2555,-1632.57,908.08,-1921.39
14260,-3.8745,0.9622,0.2526,-1241.94,704.96,-1843.26
14270,-3.8745,0.9640,0.2494,-835.69,329.96,-1905.76
14280,-3.8745,0.9625,0.2468,-601.32,-76.29,1891.05
14290,-3.8745,0.9573,0.2460,-788.82,-404.42,1828.55
14300,-3.8745,0.9509,0.2467,-1460.69,-513.79,1891.05
14310,-3.8745,0.9469,0.2476,1726.81,-420.04,-1921.45
14320,-3.8745,0.9467,0.2472,1211.18,-310.67,-1843.32
14330,-3.8745,0.9486,0.2457,1179.93,-357.54,1922.30
14340,-3.8745,0.9523,0.2448,1429.93,-545.04,1609.80
14350,-3.8745,0.9576,0.2465,1898.68,-670.04,1437.93
14360,-3.8745,0.9623,0.2511,-1413.82,-451.29,1437.93
14370,-3.8745,0.9662,0.2577,-820.07,142.46,1750.49
14380,-3.8745,0.9714,0.2616,-320.07,986.21,-1890.14
14390,-3.8745,0.9762,0.2596,351.81,1486.27,-1749.51
14400,-3.8745,0.9773,0.2548,961.18,1236.27,-1749.51
14410,-3.8745,0.9744,0.2494,1101.81,611.27,-1921.39
14420,-3.8745,0.9689,0.2460,726.81,-76.23,1719.18
14430,-3.8745,0.9625,0.2463,23.68,-513.73,1484.80
14440,-3.8745,0.9583,0.2496,-788.82,-466.92,1687.93
14450,-3.8745,0.9578,0.2531,-1335.69,-45.04,1953.55
14460,-3.8745,0.9607,0.2552,-1398.19,392.46,-1937.01
14470,-3.8745,0.9648,0.2567,-1023.19,673.71,-1827.64
14480,-3.8745,0.9672,0.2566,-491.94,861.21,-1718.26
14490,-3.8745,0.9650,0.2543,-195.07,845.58,-1718.26
14500,-3.8745,0.9590,0.2518,-476.32,548.71,-1780.76
14510,-3.8745,0.9523,0.2500,-1241.94,236.21,-1858.89
14520,-3.8745,0.9485,0.2469,1898.68,1.83,1969.24
14530,-3.8745,0.9470,0.2434,1414.31,-388.79,1609.80
14540,-3.8745,0.9457,0.2417,1226.81,-841.92,1203.55
14550,-3.8745,0.9447,0.2427,1054.93,-1060.67,969.18
14560,-3.8745,0.9452,0.2456,929.93,-935.67,891.05
14570,-3.8745,0.9470,0.2491,992.43,-560.67,828.55
14580,-3.8745,0.9498,0.2538,1226.81,-107.54,891.05
14590,-3.8745,0.9556,0.2587,1586.18,486.21,1078.61
14600,-3.8745,0.9635,0.2610,-1679.44,1111.21,1344.24
14610,-3.8745,0.9689,0.2607,-663.82,1408.08,1547.36
14620,-3.8745,0.9703,0.2579,23.68,1376.89,1562.99
14630,-3.8745,0.9685,0.2542,211.18,1017.52,1516.11
14640,-3.8745,0.9653,0.2511,-23.19,533.08,1562.99
14650,-3.8745,0.9619,0.2499,-429.44,142.46,1750.49
14660,-3.8745,0.9587,0.2502,-866.94,-13.79,1953.55
14670,-3.8745,0.9580,0.2505,-1273.19,33.08,-1812.01
14680,-3.8745,0.9570,0.2494,-1366.94,64.33,-1515.14
14690,-3.8745,0.9537,0.2478,-1491.94,-76.29,-1374.57
14700,-3.8745,0.9498,0.2461,-1913.82,-279.42,-1483.95
14710,-3.8745,0.9470,0.2455,1586.18,-498.17,-1687.07
14720,-3.8745,0.9464,0.2460,1226.81,-576.29,-1812.07
14730,-3.8745,0.9513,0.2491,1148.68,-513.79,-1765.20
14740,-3.8745,0.9628,0.2543,1773.68,-107.54,-1765.20
14750,-3.8745,0.9741,0.2568,-757.57,548.71,1984.86
14760,-3.8745,0.9806,0.2577,695.56,876.89,1672.36
14770,-3.8745,0.9800,0.2577,1523.68,986.27,1453.61
14780,-3.8745,0.9734,0.2559,1445.56,986.27,1344.24
14790,-3.8745,0.9659,0.2524,601.81,751.89,1156.74
14800,-3.8745,0.9606,0.2487,-351.32,314.33,1031.74
14810,-3.8745,0.9558,0.2463,-1038.82,-170.04,1187.93
14820,-3.8745,0.9514,0.2471,-1648.19,-466.92,1656.68
14830,-3.8745,0.9484,0.2498,1789.31,-373.17,-1765.20
14840,-3.8745,0.9468,0.2523,1398.68,-29.42,-1249.57
14850,-3.8745,0.9484,0.2531,1195.56,298.71,-937.01
14860,-3.8745,0.9518,0.2513,1398.68,392.46,-937.01
14870,-3.8745,0.9547,0.2490,1836.18,173.71,-1249.51
14880,-3.8745,0.9592,0.2476,-1788.82,-123.17,-1655.82
14890,-3.8745,0.9629,0.2469,-1210.69,-310.67,1922.30
14900,-3.8745,0.9611,0.2468,-741.94,-388.79,1625.43
14910,-3.8745,0.9567,0.2472,-976.32,-404.42,1484.80
14920,-3.8745,0.9526,0.2480,-1538.82,-357.54,1406.68
14930,-3.8745,0.9502,0.2474,1945.56,-248.17,1297.30
14940,-3.8745,0.9535,0.2458,1633.06,-326.29,1203.55
14950,-3.8745,0.9604,0.2463,-1945.07,-529.42,1203.55
14960,-3.8745,0.9651,0.2491,-1054.44,-466.92,1219.18
14970,-3.8745,0.9657,0.2511,-460.69,-107.54,1266.05
14980,-3.8745,0.9625,0.2516,-382.57,142.46,1359.86
14990,-3.8745,0.9596,0.2526,-788.82,204.96,1469.24
15000,-3.8745,0.9603,0.2527,-1163.82,329.96,1516.11
15010,-3.8745,0.9623,0.2511,-1070.07,345.58,1500.49
15020,-3.8745,0.9629,0.2495,-820.07,142.46,1484.86
15030,-3.8745,0.9626,0.2491,-741.94,-60.67,1531.68
15040,-3.8745,0.9611,0.2504,-773.19,-107.54,1766.05
15050,-3.8745,0.9580,0.2504,-976.32,48.71,-1905.76
15060,-3.8745,0.9536,0.2472,-1366.94,48.71,-1530.76
15070,-3.8745,0.9481,0.2427,-1929.44,-357.54,-1358.95
15080,-3.8745,0.9438,0.2405,1367.43,-935.67,-1562.07
15090,-3.8745,0.9446,0.2417,820.56,-1216.92,-1796.45
15100,-3.8745,0.9504,0.2462,914.31,-1060.67,-1890.20
15110,-3.8745,0.9587,0.2527,1664.31,-482.54,-1671.45
15120,-3.8745,0.9681,0.2571,-1273.19,345.58,-1343.26
15130,-3.8745,0.9763,0.2573,-70.07,908.08,-1171.39
15140,-3.8745,0.9791,0.2562,976.81,939.39,-1046.39
15150,-3.8745,0.9771,0.2546,1336.18,798.77,-1030.76
15160,-3.8745,0.9725,0.2516,1070.56,595.64,-1046.39
15170,-3.8745,0.9662,0.2476,492.43,205.02,-1015.14
15180,-3.8745,0.9592,0.2449,-320.07,-310.67,-1140.20
15190,-3.8745,0.9539,0.2451,-1210.69,-654.42,-1187.07
15200,-3.8745,0.9526,0.2463,-1898.19,-623.17,-1077.70
15210,-3.8745,0.9539,0.2472,1945.56,-466.92,-1046.45
15220,-3.8745,0.9534,0.2477,-1898.19,-357.54,-1171.45
15230,-3.8745,0.9519,0.2483,-1960.69,-295.04,-1265.20
15240,-3.8745,0.9509,0.2498,1851.81,-216.92,-1202.70
15250,-3.8745,0.9509,0.2520,1726.81,-29.42,-1218.32
15260,-3.8745,0.9519,0.2522,1726.81,251.83,-1280.76
15270,-3.8745,0.9545,0.2504,1851.81,283.08,-1343.26
15280,-3.8745,0.9575,0.2482,-1820.07,48.71,-1608.89
15290,-3.8745,0.9598,0.2454,-1429.44,-232.54,-1921.45
15300,-3.8745,0.9597,0.2426,-1132.57,-591.92,1922.30
15310,-3.8745,0.9554,0.2437,-1148.19,-951.29,1984.80
15320,-3.8745,0.9485,0.2482,-1695.07,-810.67,-1624.57
15330,-3.8745,0.9430,0.2505,1414.31,-232.54,-1093.32
15340,-3.8745,0.9425,0.2493,711.18,64.33,-765.14
15350,-3.8745,0.9463,0.2477,648.68,-91.92,-765.20
15360,-3.8745,0.9523,0.2496,1133.06,-295.04,-1046.45
15370,-3.8745,0.9581,0.2550,1898.68,-45.04,-1218.32
15380,-3.8745,0.9639,0.2588,-1351.32,642.46,-1077.64
15390,-3.8745,0.9686,0.2572,-616.94,1126.83,-983.89
15400,-3.8745,0.9697,0.2524,-7.57,923.71,-1108.89
15410,-3.8745,0.9675,0.2479,133.06,314.39,-1327.64
15420,-3.8745,0.9625,0.2465,-148.19,-263.79,-1312.07
15430,-3.8745,0.9567,0.2498,-788.82,-451.29,-1030.82
15440,-3.8745,0.9523,0.2521,-1538.82,-29.42,-671.45
15450,-3.8745,0.9492,0.2498,1898.68,267.46,-390.14
15460,-3.8745,0.9468,0.2472,1508.06,-29.42,-280.82
15470,-3.8745,0.9460,0.2468,1195.56,-357.54,-77.70
15480,-3.8744,0.9476,0.2478,1101.81,-404.42,172.30
15490,-3.8744,0.9510,0.2488,1304.93,-279.42,344.18
15500,-3.8744,0.9557,0.2496,1742.43,-154.42,406.68
15510,-3.8744,0.9604,0.2494,-1663.82,-45.04,187.93
15520,-3.8745,0.9639,0.2482,-1054.44,-76.29,-155.82
15530,-3.8745,0.9653,0.2466,-616.94,-232.54,-515.20
15540,-3.8745,0.9648,0.2457,-429.44,-435.67,-874.57
15550,-3.8745,0.9633,0.2484,-491.94,-545.04,-1015.20
15560,-3.8745,0.9620,0.2533,-695.07,-201.29,-796.45
15570,-3.8745,0.9611,0.2542,-851.32,423.71,-358.89
15580,-3.8744,0.9586,0.2491,-976.32,533.08,31.74
15590,-3.8745,0.9536,0.2426,-1288.82,-107.54,-124.57
15600,-3.8745,0.9487,0.2393,-1929.44,-951.29,-499.57
15610,-3.8745,0.9470,0.2402,1445.56,-1373.17,-577.70
15620,-3.8745,0.9475,0.2423,1226.81,-1248.17,-499.57
15630,-3.8745,0.9490,0.2415,1289.31,-982.54,-546.45
15640,-3.8745,0.9515,0.2394,1476.81,-1091.92,-827.70
15650,-3.8745,0.9547,0.2405,1804.93,-1357.54,-1046.45
15660,-3.8745,0.9578,0.2449,-1788.82,-1216.92,-1124.57
15670,-3.8745,0.9602,0.2509,-1398.19,-654.42,-968.32
15680,-3.8745,0.9628,0.2551,-1085.69,111.21,-687.01
15690,-3.8745,0.9636,0.2544,-757.57,658.08,-499.51
15700,-3.8745,0.9619,0.2484,-648.19,564.33,-702.64
15710,-3.8745,0.9580,0.2410,-866.94,-201.29,-1187.07
15720,-3.8745,0.9530,0.2375,-1366.94,-1154.42,-1640.20
15730,-3.8745,0.9487,0.2386,1992.43,-1591.92,-1952.70
15740,-3.8745,0.9464,0.2413,1445.56,-1451.29,1984.80
15750,-3.8745,0.9469,0.2435,1148.68,-1107.54,1984.80
15760,-3.8745,0.9495,0.2441,1211.18,-826.29,1937.93
15770,-3.8745,0.9506,0.2427,1539.31,-748.17,1953.55
15780,-3.8745,0.9482,0.2408,1679.93,-935.67,1875.43
15790,-3.8745,0.9449,0.2402,1383.06,-1170.04,1687.93
15800,-3.8745,0.9430,0.2393,961.18,-1248.17,1687.93
15810,-3.8745,0.9446,0.2380,711.18,-1373.17,1766.05
15820,-3.8745,0.9518,0.2385,914.31,-1529.42,1656.68
15830,-3.8745,0.9622,0.2413,1836.18,-1466.92,1469.18
15840,-3.8745,0.9712,0.2457,-835.69,-1107.54,1516.05
15850,-3.8745,0.9766,0.2499,320.56,-544.98,1875.43
15860,-3.8745,0.9775,0.2518,1008.06,-13.73,-1687.07
15870,-3.8745,0.9746,0.2527,1133.06,236.27,-1312.01
15880,-3.8745,0.9691,0.2523,758.06,345.64,-952.64
15890,-3.8745,0.9623,0.2487,54.93,298.77,-515.14
15900,-3.8745,0.9557,0.2421,-820.07,-170.04,-202.70
15910,-3.8745,0.9513,0.2360,-1663.82,-1013.79,-218.32
15920,-3.8745,0.9500,0.2334,1773.68,-1795.04,-577.70
15930,-3.8745,0.9512,0.2366,1601.81,1876.83,-1046.45
15940,-3.8745,0.9543,0.2433,1758.06,-1716.92,-1327.70
15950,-3.8745,0.9580,0.2494,-1835.69,-857.54,-1437.07
15960,-3.8745,0.9622,0.2522,-1366.94,-76.29,-1546.45
15970,-3.8745,0.9664,0.2528,-835.69,283.08,-1593.26
15980,-3.8745,0.9688,0.2521,-288.82,361.21,-1608.89
15990,-3.8745,0.9677,0.2509,8.06,267.52,-1671.39
16000,-3.8745,0.9647,0.2502,-132.57,111.21,-1765.14
16010,-3.8745,0.9606,0.2490,-507.57,33.08,-1874.51
16020,-3.8745,0.9556,0.2465,-1038.82,-123.17,-1827.70
16030,-3.8745,0.9512,0.2429,-1679.44,-451.29,-1687.07
16040,-3.8745,0.9470,0.2412,1758.06,-904.42,-1499.57
16050,-3.8745,0.9445,0.2428,1226.81,-1123.17,-1358.95
16060,-3.8745,0.9448,0.2462,898.68,-920.04,-1249.57
16070,-3.8745,0.9482,0.2496,945.56,-482.54,-1077.70
16080,-3.8745,0.9534,0.2511,1383.06,-45.04,-1015.20
16090,-3.8745,0.9587,0.2507,-1960.69,142.46,-1124.51
16100,-3.8745,0.9628,0.2496,-1273.19,95.58,-1327.64
16110,-3.8745,0.9651,0.2499,-757.57,-45.04,-1671.45
16120,-3.8745,0.9658,0.2521,-460.69,-13.79,1953.55
16130,-3.8745,0.9653,0.2556,-366.94,267.46,1844.24
16140,-3.8745,0.9651,0.2577,-429.44,720.58,1937.99
16150,-3.8745,0.9641,0.2551,-460.69,986.21,-1983.89
16160,-3.8745,0.9609,0.2496,-585.69,658.08,1953.61
16170,-3.8745,0.9562,0.2455,-991.94,-45.04,1703.55
16180,-3.8745,0.9513,0.2449,-1601.32,-576.29,1516.05
16190,-3.8745,0.9485,0.2458,1773.68,-654.42,1562.93
16200,-3.8745,0.9478,0.2461,1414.31,-529.42,1672.30
16210,-3.8745,0.9482,0.2448,1320.56,-498.17,1687.93
16220,-3.8745,0.9492,0.2437,1383.06,-670.04,1594.18
16230,-3.8745,0.9493,0.2451,1508.06,-810.67,1469.18
16240,-3.8745,0.9508,0.2490,1523.68,-623.17,1375.43
16250,-3.8745,0.9554,0.2535,1711.18,-123.17,1406.68
16260,-3.8745,0.9608,0.2568,-1695.07,454.96,1516.11
16270,-3.8745,0.9636,0.2576,-1007.57,876.83,1641.11
16280,-3.8745,0.9642,0.2551,-648.19,970.58,1641.11
16290,-3.8745,0.9630,0.2501,-570.07,658.08,1328.61
16300,-3.8745,0.9586,0.2473,-726.32,17.46,969.24
16310,-3.8745,0.9548,0.2493,-1288.82,-341.92,1016.05
16320,-3.8745,0.9529,0.2517,-1773.19,-91.92,1422.30
16330,-3.8745,0.9509,0.2528,1976.81,220.58,1797.36
16340,-3.8745,0.9501,0.2527,1726.81,361.21,-1952.64
16350,-3.8745,0.9508,0.2520,1617.43,345.58,-1874.51
16360,-3.8745,0.9501,0.2510,1711.18,251.83,1969.24
16370,-3.8745,0.9456,0.2518,1617.43,126.83,1672.36
16380,-3.8745,0.9406,0.2556,1039.31,236.21,1469.24
16390,-3.8745,0.9409,0.2584,398.68,720.58,1641.11
16400,-3.8745,0.9424,0.2572,445.56,1079.96,-1937.01
16410,-3.8745,0.9451,0.2544,633.06,923.71,1812.99
16420,-3.8745,0.9583,0.2543,976.81,564.33,1281.74
16430,-3.8745,0.9716,0.2605,-1335.69,548.71,1141.11
16440,-3.8745,0.9698,0.2706,367.43,1345.64,1156.74
16450,-3.8745,0.9580,0.2701,148.68,-1357.48,1328.61
16460,-3.8745,0.9552,0.2615,-1366.94,-1420.04,1172.36
16470,-3.8745,0.9595,0.2583,-1726.32,1470.58,547.36
16480,-3.8746,0.9598,0.2587,-1179.44,1064.33,-77.64
16490,-3.8746,0.9576,0.2610,-1132.57,1111.21,-233.89
16500,-3.8745,0.9534,0.2646,-1413.82,1408.08,219.24
16510,-3.8745,0.9519,0.2628,-1960.69,1876.83,500.49
16520,-3.8746,0.9531,0.2529,1851.81,1642.46,-46.39
16530,-3.8746,0.9569,0.2448,-1991.94,376.83,-1140.14
16540,-3.8746,0.9641,0.2485,-1507.57,-670.04,1797.30
16550,-3.8746,0.9697,0.2618,-585.69,-185.67,1453.55
16560,-3.8746,0.9713,0.2716,133.06,1517.52,1953.61
16570,-3.8746,0.9711,0.2698,336.18,-1232.48,-1405.76
16580,-3.8746,0.9712,0.2595,304.93,-1466.86,-1280.76
16590,-3.8746,0.9742,0.2488,320.56,1220.64,-1858.89
16600,-3.8746,0.9795,0.2468,711.18,-154.36,1344.18
16610,-3.8746,0.9817,0.2576,1383.06,-404.36,1312.93
16620,-3.8746,0.9788,0.2740,1664.31,970.64,-1890.14
16630,-3.8746,0.9763,0.2814,1289.31,-919.98,-812.01
16640,-3.8746,0.9757,0.2728,976.81,17.52,-93.20
16650,-3.8746,0.9727,0.2563,898.68,-1076.23,-124.51
16660,-3.8746,0.9673,0.2440,508.06,814.39,-640.14
16670,-3.8746,0.9594,0.2415,-179.44,-763.79,-1108.95
16680,-3.8746,0.9496,0.2474,-1195.07,-1091.92,-1108.95
16690,-3.8746,0.9435,0.2573,1554.93,-326.29,-671.45
16700,-3.8746,0.9447,0.2648,773.68,939.33,-46.39
16710,-3.8745,0.9509,0.2642,929.93,1892.46,281.74
16720,-3.8746,0.9574,0.2572,1726.81,1814.33,-46.39
16730,-3.8746,0.9607,0.2502,-1445.07,923.71,-796.39
16740,-3.8746,0.9592,0.2489,-1023.19,33.08,-1374.51
16750,-3.8746,0.9542,0.2545,-1210.69,-138.79,-1452.70
16760,-3.8746,0.9493,0.2621,-1851.32,579.96,-1093.26
16770,-3.8746,0.9478,0.2646,1523.68,1548.71,-671.39
16780,-3.8746,0.9493,0.2601,1320.56,1876.83,-655.76
16790,-3.8746,0.9526,0.2531,1523.68,1298.71,-1093.26
16800,-3.8746,0.9552,0.2488,1945.56,392.46,-1624.51
16810,-3.8746,0.9554,0.2506,-1726.32,-154.42,-1812.07
16820,-3.8746,0.9557,0.2559,-1695.07,79.96,-1702.64
16830,-3.8746,0.9558,0.2604,-1663.82,751.83,-1530.76
16840,-3.8746,0.9574,0.2654,-1648.19,1329.96,-1265.14
16850,-3.8746,0.9623,0.2703,-1445.07,1970.58,-921.39
16860,-3.8746,0.9664,0.2712,-820.07,-1404.42,-687.01
16870,-3.8746,0.9692,0.2687,-288.82,-1279.42,-765.14
16880,-3.8746,0.9689,0.2653,70.56,-1607.48,-1015.14
16890,-3.8746,0.9640,0.2625,23.68,1955.02,-1015.14
16900,-3.8746,0.9587,0.2595,-601.32,1595.58,-827.64
16910,-3.8746,0.9554,0.2559,-1273.19,1220.58,-655.76
16920,-3.8746,0.9525,0.2533,-1695.07,751.83,-608.89
16930,-3.8746,0.9514,0.2512,1929.93,423.71,-780.76
16940,-3.8746,0.9543,0.2513,1789.31,158.08,-999.51
16950,-3.8746,0.9584,0.2573,-1835.69,173.71,-1046.39
16960,-3.8746,0.9629,0.2645,-1320.07,939.33,-749.51
16970,-3.8746,0.9677,0.2643,-741.94,1861.21,-546.39
16980,-3.8746,0.9681,0.2550,-132.57,1829.96,-702.64
16990,-3.8746,0.9652,0.2467,-70.07,642.46,-1124.51
17000,-3.8746,0.9637,0.2480,-445.07,-420.04,-1421.45
17010,-3.8746,0.9639,0.2563,-632.57,-248.17,-1108.95
17020,-3.8746,0.9669,0.2620,-616.94,814.33,-1062.01
17030,-3.8746,0.9736,0.2635,-226.32,1533.08,-1296.39
17040,-3.8746,0.9794,0.2635,633.06,1736.27,-1030.76
17050,-3.8746,0.9800,0.2628,1367.43,1736.27,-499.51
17060,-3.8746,0.9742,0.2588,1445.56,1642.52,-343.26
17070,-3.8746,0.9696,0.2522,711.18,1126.89,-1093.26
17080,-3.8746,0.9724,0.2484,117.43,283.14,-1749.51
17090,-3.8746,0.9757,0.2465,476.81,-201.23,-1796.45
17100,-3.8746,0.9745,0.2462,898.68,-451.23,-1530.82
17110,-3.8746,0.9727,0.2462,742.43,-482.48,-1593.32
17120,-3.8746,0.9736,0.2435,508.06,-482.48,1953.55
17130,-3.8746,0.9730,0.2433,633.06,-826.23,1891.05
17140,-3.8746,0.9702,0.2439,554.93,-857.48,1766.05
17150,-3.8746,0.9709,0.2404,195.56,-779.36,1312.93
17160,-3.8746,0.9722,0.2351,289.31,-1232.48,891.05
17170,-3.8746,0.9738,0.2338,445.56,-1904.36,828.55
17180,-3.8746,0.9801,0.2361,648.68,1923.77,859.80
17190,-3.8746,0.9868,0.2341,1461.18,-1779.36,781.68
17200,-3.8746,0.9897,0.2269,-1679.44,1970.64,609.80
17210,-3.8746,0.9861,0.2169,-1304.44,1048.77,234.80
17220,-3.8748,0.9738,0.2047,-1773.19,-232.48,-171.51
17230,-3.8748,0.9596,0.1927,648.68,-1794.98,-655.88
17240,-3.8748,0.9508,0.1864,-1163.82,673.71,-1296.51
17250,-3.8748,0.9487,0.1904,1711.18,-138.79,-1843.44
17260,-3.8748,0.9541,0.1973,1445.56,376.83,1812.87
17270,-3.8748,0.9641,0.2010,-1866.94,1251.83,1734.74
17280,-3.8748,0.9750,0.2023,-585.69,1736.21,1719.12
17290,-3.8748,0.9834,0.2004,804.93,1892.52,1765.99
17300,-3.8748,0.9865,0.1985,1883.06,1658.14,-1702.76
17310,-3.8748,0.9868,0.1993,-1726.32,1408.14,-905.88
17320,-3.8748,0.9878,0.1979,-1679.44,1517.52,-593.38
17330,-3.8748,0.9889,0.1910,-1554.44,1330.02,-765.26
17340,-3.8748,0.9875,0.1895,-1413.82,455.02,-1140.26
17350,-3.8748,0.9879,0.1993,-1585.69,251.89,-1952.76
17360,-3.8748,0.9956,0.2052,-1538.82,1517.52,1437.87
17370,-3.8748,1.0057,0.1979,-554.44,-1732.48,1640.99
17380,-3.8748,1.0103,0.1863,742.43,1330.08,1578.49
17390,-3.8748,1.0057,0.1757,1320.56,-154.30,781.56
17400,-3.8748,0.9935,0.1642,742.43,-1513.67,172.18
17410,-3.8748,0.9797,0.1523,-820.07,1017.52,203.43
17420,-3.8748,0.9694,0.1464,1414.31,-498.11,672.12
17430,-3.8748,0.9658,0.1472,86.18,-1263.73,1015.87
17440,-3.8748,0.9679,0.1477,-366.94,-1154.42,1172.12
17450,-3.8748,0.9698,0.1440,-101.32,-1091.92,1625.24
17460,-3.8748,0.9709,0.1421,148.68,-1560.61,-1796.63
17470,-3.8748,0.9730,0.1460,289.31,-1810.61,-1906.01
17480,-3.8748,0.9766,0.1475,554.93,-1310.61,1281.49
17490,-3.8748,0.9783,0.1404,1008.06,-1123.11,515.87
17500,-3.8748,0.9761,0.1313,1226.81,1970.64,0.24
17510,-3.8749,0.9730,0.1266,945.56,814.39,-515.38
17520,-3.8749,0.9691,0.1249,554.93,205.02,-859.13
17530,-3.8749,0.9662,0.1304,54.93,-13.73,-765.44
17540,-3.8749,0.9708,0.1490,-320.07,689.33,-468.51
17550,-3.8748,0.9817,0.1670,273.68,-919.98,47.12
17560,-3.8748,0.9915,0.1675,1664.31,1376.89,922.18
17570,-3.8748,0.9969,0.1537,-1085.69,1439.39,1719.06
17580,-3.8748,1.0009,0.1388,-382.57,-326.23,1859.62
17590,-3.8748,1.0056,0.1309,117.43,1767.58,984.62
17600,-3.8749,1.0193,0.1343,726.81,751.95,-359.13
17610,-3.8749,1.0338,0.1409,-1523.19,1189.45,-1359.13
17620,-3.8749,1.0234,0.1427,336.18,-1966.74,-1499.76
17630,-3.8749,0.9978,0.1450,-991.94,-1732.42,-906.01
17640,-3.8749,0.9840,0.1399,-273.19,-1435.61,-374.76
17650,-3.8749,0.9758,0.1211,1961.18,1908.14,-124.76
17660,-3.8749,0.9664,0.1091,914.31,-498.11,-187.32
17670,-3.8749,0.9629,0.1129,-288.82,1970.58,-609.19
17680,-3.8749,0.9594,0.1174,-741.94,-1545.04,-562.32
17690,-3.8748,0.9540,0.1157,-1195.07,-966.92,93.93
17700,-3.8748,0.9552,0.1104,-1882.57,-1185.67,484.56
17710,-3.8748,0.9651,0.1121,-1726.32,-1873.17,703.31
17720,-3.8748,0.9736,0.1188,-460.69,-1654.42,968.93
17730,-3.8748,0.9771,0.1254,633.06,-794.98,1328.31
17740,-3.8748,0.9840,0.1462,1070.56,48.77,1687.74
17750,-3.8748,0.9915,0.1676,1961.18,-1279.36,-1843.51
17760,-3.8748,0.9943,0.1597,-1085.69,1455.02,-1046.57
17770,-3.8748,1.0017,0.1399,-726.32,439.39,-593.44
17780,-3.8748,1.0076,0.1241,226.81,1908.20,-1374.76
17790,-3.8748,0.9982,0.1000,976.81,-107.42,1047.06
17800,-3.8749,0.9861,0.0796,-226.32,798.77,-374.82
17810,-3.8749,0.9877,0.0802,-1773.19,-1810.61,-1406.13
17820,-3.8749,0.9951,0.0896,-1570.07,-1732.48,-1874.88
17830,-3.8749,0.9958,0.0945,-616.94,-529.36,-1749.88
17840,-3.8749,0.9965,0.1029,-523.19,95.64,-1452.94
17850,-3.8749,0.9979,0.1060,-445.07,1173.77,-1249.82
17860,-3.8749,0.9980,0.0989,-257.57,1564.39,-1015.44
17870,-3.8749,1.0038,0.1016,-241.94,658.14,-984.19
17880,-3.8749,1.0103,0.1174,492.43,1001.95,-1249.82
17890,-3.8749,1.0070,0.1190,1320.56,-966.80,-1202.94
17900,-3.8749,1.0074,0.1038,898.68,-763.67,-796.69
17910,-3.8749,1.0203,0.0999,961.18,1283.20,-687.32
17920,-3.8749,1.0305,0.1012,-1398.19,783.20,-874.82
17930,-3.8749,1.0289,0.0872,-85.69,955.08,-1437.32
17940,-3.8749,1.0144,0.0625,-288.82,-841.80,1578.25
17950,-3.8749,0.9948,0.0413,1851.81,1.95,562.62
17960,-3.8750,0.9829,0.0393,-663.82,1283.14,-437.44
17970,-3.8750,0.9789,0.0507,1820.56,1033.14,-968.69
17980,-3.8750,0.9769,0.0524,1304.93,-1513.73,-874.94
17990,-3.8750,0.9869,0.0530,1054.93,-1294.98,-703.06
18000,-3.8750,1.0026,0.0701,-1663.82,-1216.86,-296.81
18010,-3.8749,1.0022,0.0967,336.18,970.70,890.75
18020,-3.8749,0.9944,0.1062,289.31,376.95,-1359.19
18030,-3.8748,0.9985,0.0933,-710.69,1595.64,172.06
18040,-3.8748,1.0090,0.0796,-179.44,-60.61,828.25
18050,-3.8748,1.0077,0.0609,1164.31,-1810.55,547.00
18060,-3.8749,0.9968,0.0331,992.43,-201.17,-468.69
18070,-3.8749,0.9932,0.0188,-398.19,236.27,1984.44
18080,-3.8749,0.9974,0.0223,-866.94,-1591.86,718.75
18090,-3.8749,1.0013,0.0288,-320.07,-1138.73,453.12
18100,-3.8749,1.0026,0.0366,179.93,-310.55,859.38
18110,-3.8749,1.0042,0.0544,336.18,689.45,1531.31
18120,-3.8749,0.9996,0.0594,539.31,-1029.30,-1656.19
18130,-3.8749,0.9835,0.0414,-38.82,-388.73,-1140.56
18140,-3.8749,0.9722,0.0239,1898.68,1298.77,-1343.69
18150,-3.8749,0.9666,0.0148,445.56,-935.61,-1906.25
18160,-3.8749,0.9587,0.0126,-273.19,1892.46,-1875.00
18170,-3.8749,0.9602,0.0295,-1273.19,1611.21,-875.00
18180,-3.8748,0.9744,0.0570,-1085.69,-216.92,1000.00
18190,-3.8748,0.9889,0.0642,726.81,-701.23,-1078.06
18200,-3.8748,0.9963,0.0477,-1413.82,220.64,-265.50
18210,-3.8748,0.9974,0.0271,-460.69,-1888.73,-796.81
18220,-3.8748,0.9922,0.0129,-320.07,-529.36,-1781.25
18230,-3.8748,0.9871,0.0070,-991.94,1658.14,1625.00
18240,-3.8748,0.9840,0.0157,-1648.19,892.52,1562.50
18250,-3.8748,0.9851,0.0319,1961.18,-1982.48,1812.50
18260,-3.8748,0.9971,0.0432,-1898.19,80.02,-1874.94
18270,-3.8748,1.0120,0.0521,-366.94,1533.14,-1624.94
18280,-3.8748,1.0199,0.0559,1539.31,-1326.17,-1484.31
18290,-3.8748,1.0195,0.0498,-1445.07,-841.80,-1390.56
18300,-3.8748,1.0154,0.0428,-1491.94,-1623.05,-1359.31
18310,-3.8748,1.0081,0.0403,1976.81,1486.33,-1062.44
18320,-3.8748,1.0000,0.0367,1039.31,1158.20,-796.81
18330,-3.8748,0.9955,0.0271,8.06,705.08,-953.06
18340,-3.8748,0.9907,0.0109,-570.07,-529.36,-1625.00
18350,-3.8748,0.9846,0.0013,-1179.44,1392.52,1187.50
18360,-3.8748,0.9795,0.0088,-1960.69,173.77,234.38
18370,-3.8748,0.9775,0.0253,1383.06,1126.89,359.38
18380,-3.8748,0.9796,0.0402,1133.06,-763.73,1203.12
18390,-3.8748,0.9854,0.0488,1398.68,1142.52,1828.19
18400,-3.8748,0.9945,0.0491,-1866.94,-1748.11,-1999.94
18410,-3.8748,1.0038,0.0410,-695.07,-1716.86,1796.94
18420,-3.8748,1.0082,0.0299,492.43,1251.95,1218.81
18430,-3.8748,1.0070,0.0221,1054.93,-169.92,531.25
18440,-3.8748,1.0012,0.0205,898.68,-1169.92,187.50
18450,-3.8748,0.9901,0.0176,164.31,-1373.05,312.50
18460,-3.8748,0.9780,0.0111,-1257.57,-1748.11,453.12
18470,-3.8748,0.9708,0.0128,1195.56,1423.77,312.50
18480,-3.8748,0.9719,0.0237,273.68,1642.52,312.50
18490,-3.8748,0.9799,0.0354,414.31,-966.86,765.62
18500,-3.8748,0.9885,0.0411,1429.93,533.14,1296.94
18510,-3.8748,0.9982,0.0427,-1460.69,1267.52,1468.81
18520,-3.8748,1.0096,0.0457,-226.32,1470.64,1328.19
18530,-3.8748,1.0165,0.0460,1242.43,1845.70,1218.81
18540,-3.8748,1.0156,0.0394,-1882.57,1892.58,1234.44
18550,-3.8748,1.0109,0.0317,-1991.94,1048.83,1109.44
18560,-3.8748,1.0055,0.0280,1398.68,64.45,953.19
18570,-3.8748,1.0001,0.0255,711.18,-419.92,1109.38
18580,-3.8748,0.9944,0.0237,23.68,-732.42,1453.12
18590,-3.8748,0.9896,0.0248,-710.69,-966.86,1656.25
18600,-3.8748,0.9840,0.0261,-1320.07,-826.23,1671.88
18610,-3.8748,0.9778,0.0245,1961.18,-654.36,1750.00
18620,-3.8748,0.9766,0.0232,1164.31,-857.48,1921.88
18630,-3.8748,0.9813,0.0232,1008.06,-1029.36,-1937.50
18640,-3.8748,0.9884,0.0236,1617.43,-1029.36,-1968.75
18650,-3.8748,0.9944,0.0253,-1476.32,-982.48,1703.12
18660,-3.8748,0.9973,0.0288,-710.69,-763.73,1468.75
18670,-3.8748,0.9976,0.0316,-335.69,-310.61,1531.25
18680,-3.8748,0.9983,0.0365,-304.44,48.77,1718.81
18690,-3.8748,0.9989,0.0410,-210.69,673.77,-1953.06
18700,-3.8748,1.0001,0.0365,-132.57,1251.89,-1593.69
18710,-3.8748,1.0027,0.0248,23.68,673.83,-1499.94
18720,-3.8748,1.0070,0.0149,351.81,-826.17,-1937.50
18730,-3.8748,1.0110,0.0131,898.68,1908.20,1484.38
18740,-3.8748,1.0115,0.0146,1414.31,1673.83,1359.38
18750,-3.8748,1.0103,0.0160,1476.81,1876.95,1484.38
18760,-3.8748,1.0099,0.0203,1320.56,-1951.17,1640.62
18770,-3.8748,1.0078,0.0258,1273.68,-1404.30,-1984.38
18780,-3.8748,0.9993,0.0281,1008.06,-701.17,-1562.50
18790,-3.8748,0.9884,0.0251,-85.69,-404.36,-1265.62
18800,-3.8748,0.9832,0.0182,-1476.32,-779.36,-1031.25
18810,-3.8748,0.9824,0.0129,1851.81,-1669.98,-812.50
18820,-3.8748,0.9833,0.0133,1758.06,1658.14,-703.12
18830,-3.8748,0.9865,0.0172,1867.43,1705.02,-796.88
18840,-3.8748,0.9899,0.0204,-1726.32,-1794.98,-1093.75
18850,-3.8748,0.9946,0.0211,-1288.82,-1388.73,-1359.38
18860,-3.8748,0.9991,0.0181,-679.44,-1294.98,-1796.88
18870,-3.8748,1.0000,0.0142,-101.32,-1685.61,1593.75
18880,-3.8748,0.9990,0.0160,8.06,1814.45,1265.62
18890,-3.8748,0.9983,0.0229,-116.94,-1951.23,1437.50
18900,-3.8748,0.9969,0.0250,-210.69,-1060.61,1921.88
18910,-3.8748,0.9949,0.0183,-382.57,-794.98,-1875.00
18920,-3.8748,0.9926,0.0129,-648.19,-1654.36,1828.12
18930,-3.8748,0.9891,0.0137,-945.07,1658.14,1359.38
18940,-3.8748,0.9866,0.0172,-1382.57,1751.89,1312.50
18950,-3.8748,0.9846,0.0217,-1710.69,-1794.98,1750.00
18960,-3.8748,0.9846,0.0223,-1960.69,-1216.86,-1828.12
18970,-3.8748,0.9888,0.0175,-1960.69,-1138.73,-1671.88
18980,-3.8748,0.9952,0.0126,-1429.44,-1763.73,-1656.25
18990,-3.8748,1.0011,0.0118,-601.32,1611.27,-1671.88
19000,-3.8748,1.0018,0.0123,148.68,1517.58,-1468.75
19010,-3.8748,0.9946,0.0088,242.43,1580.08,-1265.62
19020,-3.8748,0.9817,0.0034,-679.44,1126.89,-1484.38
19030,-3.8748,0.9716,0.0046,1664.31,439.39,-1796.88
19040,-3.8748,0.9694,0.0139,367.43,595.64,-1562.50
19050,-3.8748,0.9729,0.0225,86.18,1783.14,-828.12
19060,-3.8748,0.9822,0.0267,539.31,-1123.11,-328.12
19070,-3.8748,0.9930,0.0282,1726.81,-576.23,-484.38
19080,-3.8748,0.9989,0.0264,-882.57,-388.73,-1109.38
19090,-3.8748,1.0018,0.0215,-132.57,-623.11,-1859.38
19100,-3.8748,1.0027,0.0170,242.43,-1248.05,1515.62
19110,-3.8748,1.0011,0.0151,351.81,-1826.17,1031.25
19120,-3.8748,0.9969,0.0160,148.68,1939.45,765.62
19130,-3.8748,0.9921,0.0205,-382.57,-1951.23,859.38
19140,-3.8748,0.9872,0.0254,-1007.57,-1373.11,1171.88
19150,-3.8748,0.9860,0.0272,-1632.57,-748.11,1750.00
19160,-3.8748,0.9901,0.0240,-1788.82,-513.73,-1734.38
19170,-3.8748,0.9962,0.0175,-1257.57,-919.98,-1765.62
19180,-3.8748,1.0000,0.0112,-476.32,-1763.73,1859.38
19190,-3.8748,1.0002,0.0093,8.06,1439.45,1546.88
19200,-3.8748,1.0012,0.0129,39.31,1189.45,1578.12
19210,-3.8748,1.0049,0.0206,164.31,1658.20,1937.50
19220,-3.8748,1.0096,0.0275,633.06,-1357.42,-1656.25
19230,-3.8748,1.0126,0.0286,1242.43,-482.42,-1218.75
19240,-3.8748,1.0112,0.0221,1617.43,-341.80,-1015.62
19250,-3.8748,1.0076,0.0132,1445.56,-1169.92,-1031.25
19260,-3.8748,1.0021,0.0096,976.81,1689.45,-1000.00
19270,-3.8748,0.9938,0.0115,273.68,1236.33,-640.62
19280,-3.8746,0.9861,0.0151,-788.82,1470.64,62.50
19290,-3.8746,0.9813,0.0188,-1773.19,1939.39,796.88
19300,-3.8746,0.9794,0.0221,1617.43,-1591.86,1406.25
19310,-3.8746,0.9783,0.0256,1367.43,-1169.98,1890.62
19320,-3.8746,0.9746,0.0289,1226.81,-716.86,-1812.50
19330,-3.8746,0.9677,0.0311,758.06,-294.98,-1671.88
19340,-3.8746,0.9591,0.0298,-132.57,-13.79,-1734.38
19350,-3.8746,0.9509,0.0229,-1226.32,-185.67,1906.25
19360,-3.8746,0.9469,0.0116,1726.81,-1060.67,1046.88
19370,-3.8748,0.9503,0.0004,1211.18,1486.21,-281.25
19380,-3.8748,0.9625,-0.0049,1648.68,48.71,-1812.50
19390,-3.8748,0.9812,-0.0013,-788.82,-623.17,687.44
19400,-3.8749,1.0001,0.0078,1601.81,-169.98,-515.69
19410,-3.8749,1.0159,0.0168,23.68,1001.95,-1046.88
19420,-3.8749,1.0293,0.0231,-1960.69,-1841.80,-1109.38
19430,-3.8749,1.0385,0.0236,-241.94,-1044.92,-1218.75
19440,-3.8749,1.0419,0.0167,929.93,-982.36,-1468.75
19450,-3.8749,1.0400,0.0059,1367.43,-1857.36,-1937.50
19460,-3.8749,1.0358,-0.0022,1133.06,752.01,1515.62
19470,-3.8749,1.0326,-0.0017,586.18,-279.24,1249.94
19480,-3.8749,1.0302,0.0040,179.93,-216.74,1453.06
19490,-3.8749,1.0280,0.0085,-132.57,517.58,-1968.75
19500,-3.8749,1.0278,0.0096,-413.82,1095.70,-1375.00
19510,-3.8749,1.0270,0.0076,-429.44,1236.33,-1125.00
19520,-3.8749,1.0226,0.0049,-538.82,970.70,-1000.00
19530,-3.8749,1.0156,0.0046,-1101.32,626.95,-671.88
19540,-3.8749,1.0063,0.0057,-1991.94,595.70,-125.00
19550,-3.8748,0.9973,0.0038,820.56,736.33,312.50
19560,-3.8748,0.9939,-0.0004,-335.69,486.27,625.00
19570,-3.8748,0.9961,-0.0028,-773.19,-44.98,718.69
19580,-3.8748,1.0009,-0.0012,-491.94,-357.48,453.06
19590,-3.8749,1.0065,0.0037,117.43,-154.30,-46.94
19600,-3.8749,1.0088,0.0073,836.18,470.70,-562.50
19610,-3.8749,1.0073,0.0076,1133.06,939.45,-781.25
19620,-3.8749,1.0055,0.0056,945.56,970.70,-796.88
19630,-3.8749,1.0046,0.0044,711.18,720.70,-859.38
19640,-3.8749,1.0051,0.0061,601.81,564.45,-1062.50
19650,-3.8749,1.0055,0.0087,664.31,783.20,-1265.62
19660,-3.8749,1.0044,0.0092,711.18,1111.33,-1406.25
19670,-3.8749,1.0011,0.0068,570.56,1173.83,-1750.00
19680,-3.8749,0.9977,0.0045,148.68,876.95,1765.62
19690,-3.8749,0.9971,0.0049,-288.82,580.02,1593.75
19700,-3.8749,0.9976,0.0073,-366.94,626.89,1750.00
19710,-3.8749,0.9962,0.0081,-304.44,939.39,-1843.75
19720,-3.8749,0.9922,0.0046,-476.32,1033.14,-1562.50
19730,-3.8749,0.9890,0.0004,-991.94,595.64,-1687.50
19740,-3.8749,0.9893,-0.0020,-1398.19,48.77,-1937.50
19750,-3.8749,0.9911,-0.0013,-1366.94,-248.11,1921.81
19760,-3.8749,0.9948,0.0033,-1132.57,-169.98,1968.69
19770,-3.8749,0.9999,0.0100,-663.82,423.77,-1796.88
19780,-3.8749,1.0039,0.0142,-7.57,1283.14,-1343.75
19790,-3.8749,1.0046,0.0154,508.06,1814.45,-890.62
19800,-3.8749,1.0016,0.0150,601.81,1970.70,-609.38
19810,-3.8749,0.9950,0.0125,211.18,1923.83,-328.12
19820,-3.8749,0.9869,0.0074,-632.57,1595.64,-62.50
19830,-3.8749,0.9803,0.0034,-1663.82,955.02,-62.50
19840,-3.8749,0.9783,0.0040,1492.43,439.39,-31.25
19850,-3.8748,0.9810,0.0073,1226.81,517.52,171.88
19860,-3.8748,0.9857,0.0089,1570.56,939.39,359.38
19870,-3.8748,0.9907,0.0106,-1820.07,1142.52,484.38
19880,-3.8748,0.9956,0.0145,-1179.44,1361.27,625.00
19890,-3.8748,1.0000,0.0187,-554.44,1861.27,750.00
19900,-3.8748,1.0010,0.0199,8.06,-1607.42,875.00
19910,-3.8748,0.9966,0.0176,133.06,-1451.17,1031.25
19920,-3.8748,0.9874,0.0135,-429.44,-1748.11,1078.12
19930,-3.8748,0.9795,0.0129,-1601.32,1736.27,1296.88
19940,-3.8748,0.9785,0.0177,1383.06,1658.14,1765.62
19950,-3.8748,0.9817,0.0211,1258.06,-1732.48,-1750.00
19960,-3.8748,0.9861,0.0197,1664.31,-1294.98,-1578.12
19970,-3.8748,0.9904,0.0176,-1773.19,-1482.48,-1781.25
19980,-3.8748,0.9924,0.0171,-1226.32,-1748.11,1921.88
19990,-3.8748,0.9916,0.0160,-960.69,-1810.61,1796.88
20000,-3.8748,0.9884,0.0129,-1070.07,-1951.23,1640.62
20010,-3.8748,0.9850,0.0101,-1476.32,1658.14,1437.50
20020,-3.8748,0.9855,0.0105,-1913.82,1298.77,1359.38
20030,-3.8748,0.9896,0.0127,-1851.32,1345.64,1281.25
20040,-3.8748,0.9930,0.0150,-1320.07,1626.89,1265.62
20050,-3.8748,0.9969,0.0161,-882.57,1923.77,1437.50
20060,-3.8748,1.0039,0.0144,-382.57,-1935.61,1625.00
20070,-3.8748,1.0125,0.0114,508.06,1845.70,1734.38
20080,-3.8748,1.0206,0.0094,1601.81,1455.08,1734.38
20090,-3.8748,1.0259,0.0083,-1351.32,1205.08,1484.38
20100,-3.8748,1.0229,0.0076,-679.44,1064.45,984.38
20110,-3.8748,1.0143,0.0082,-1054.44,970.70,656.25
20120,-3.8748,1.0070,0.0106,1836.18,1048.83,718.75
20130,-3.8748,1.0013,0.0133,898.68,1361.33,1062.50
20140,-3.8748,0.9983,0.0142,179.93,1705.08,1406.25
20150,-3.8748,0.9990,0.0138,-210.69,1814.39,1578.12
20160,-3.8748,1.0016,0.0153,-116.94,1767.52,1406.25
20170,-3.8748,1.0016,0.0170,211.18,1955.08,1203.12
20180,-3.8748,0.9972,0.0138,211.18,-1826.17,1140.62
20190,-3.8748,0.9911,0.0059,-351.32,1767.52,843.75
20200,-3.8748,0.9869,-0.0020,-1132.57,751.89,375.00
20210,-3.8749,0.9883,-0.0055,-1663.82,-248.11,-203.19
20220,-3.8749,0.9939,-0.0042,-1491.94,-701.23,-859.44
20230,-3.8749,0.9971,0.0006,-773.19,-529.36,-1328.19
20240,-3.8749,0.9927,0.0044,-366.94,80.02,-1328.12
20250,-3.8749,0.9821,0.0060,-929.44,564.39,-984.38
20260,-3.8749,0.9729,0.0083,1711.18,767.52,-656.25
20270,-3.8749,0.9683,0.0104,539.31,1064.39,-359.38
20280,-3.8749,0.9694,0.0112,-54.44,1329.96,-46.88
20290,-3.8748,0.9763,0.0117,86.18,1439.39,31.25
20300,-3.8749,0.9856,0.0120,976.81,1501.89,-250.00
20310,-3.8749,0.9955,0.0116,-1835.69,1533.14,-781.25
20320,-3.8749,1.0013,0.0098,-570.07,1486.27,-1312.50
20330,-3.8749,1.0012,0.0078,179.93,1251.95,-1703.12
20340,-3.8749,0.9996,0.0071,164.31,1001.95,-1843.75
20350,-3.8749,1.0010,0.0079,-38.82,908.14,-1828.12
20360,-3.8749,1.0022,0.0110,133.06,1017.58,-1890.62
20370,-3.8749,1.0022,0.0150,289.31,1408.20,-1781.25
20380,-3.8749,1.0001,0.0154,289.31,1923.83,-1328.12
20390,-3.8749,0.9935,0.0098,23.68,1970.70,-859.38
20400,-3.8749,0.9860,0.0028,-820.07,1251.89,-671.88
20410,-3.8749,0.9816,-0.0002,-1788.82,361.27,-671.88
20420,-3.8749,0.9811,0.0024,1648.68,-29.36,-593.81
20430,-3.8749,0.9824,0.0061,1586.18,314.39,-437.50
20440,-3.8749,0.9841,0.0051,1758.06,783.14,-312.50
20450,-3.8749,0.9863,-0.0007,1976.81,658.14,-375.00
20460,-3.8749,0.9902,-0.0065,-1741.94,-91.86,-531.31
20470,-3.8749,0.9946,-0.0078,-1241.94,-826.23,-703.19
20480,-3.8749,0.9983,-0.0026,-679.44,-998.11,-796.94
20490,-3.8749,1.0024,0.0077,-210.69,-326.23,-734.44
20500,-3.8749,1.0082,0.0172,320.56,986.33,-546.88
20510,-3.8749,1.0146,0.0204,1054.93,-1794.92,-140.62
20520,-3.8748,1.0182,0.0179,1883.06,-1388.67,187.50
20530,-3.8748,1.0183,0.0144,-1663.82,-1701.17,78.12
20540,-3.8749,1.0168,0.0122,-1648.19,1845.70,-250.00
20550,-3.8749,1.0143,0.0116,-1835.69,1564.45,-484.38
20560,-3.8749,1.0123,0.0117,1836.18,1486.33,-531.25
20570,-3.8749,1.0129,0.0121,1586.18,1501.95,-421.88
20580,-3.8749,1.0137,0.0137,1664.31,1548.83,-390.62
20590,-3.8749,1.0134,0.0188,1758.06,1751.95,-421.88
20600,-3.8749,1.0115,0.0256,1726.81,-1591.80,-234.38
20610,-3.8748,1.0042,0.0284,1476.81,-716.80,203.12
20620,-3.8748,0.9918,0.0245,539.31,-357.42,500.00
20630,-3.8748,0.9802,0.0175,-1038.82,-857.48,437.50
20640,-3.8748,0.9727,0.0109,1476.81,-1763.73,140.62
20650,-3.8749,0.9678,0.0059,508.06,1392.52,-390.62
20660,-3.8749,0.9667,0.0061,-116.94,751.83,-937.50
20670,-3.8749,0.9722,0.0126,-257.57,783.08,-1265.62
20680,-3.8749,0.9825,0.0206,445.56,1611.27,-1359.38
20690,-3.8749,0.9945,0.0265,1773.68,-1357.48,-1125.00
20700,-3.8749,1.0049,0.0289,-695.07,-607.48,-921.88
20710,-3.8749,1.0114,0.0294,633.06,-294.92,-1234.38
20720,-3.8749,1.0140,0.0297,1461.18,-232.42,-1671.88
20730,-3.8749,1.0123,0.0302,1804.93,-201.17,-1796.88
20740,-3.8749,1.0084,0.0297,1586.18,-138.67,-1640.62
20750,-3.8749,1.0068,0.0270,1086.18,-201.17,-1328.12
20760,-3.8749,1.0077,0.0248,883.06,-544.92,-1078.12
20770,-3.8749,1.0081,0.0260,992.43,-826.17,-765.62
20780,-3.8749,1.0074,0.0294,1039.31,-669.92,-250.00
20790,-3.8748,1.0060,0.0323,961.18,-232.42,390.62
20800,-3.8748,1.0033,0.0349,773.68,142.58,890.69
20810,-3.8748,0.9984,0.0364,429.93,470.70,1187.56
20820,-3.8748,0.9916,0.0353,-195.07,658.14,1625.06
20830,-3.8748,0.9849,0.0312,-1070.07,517.52,-1781.19
20840,-3.8748,0.9805,0.0269,-1929.44,1.89,-1421.81
20850,-3.8748,0.9802,0.0249,1508.06,-560.61,-1515.62
20860,-3.8748,0.9843,0.0271,1476.81,-810.61,-1796.88
20870,-3.8748,0.9896,0.0306,1992.43,-529.36,1921.88
20880,-3.8748,0.9924,0.0306,-1320.07,-76.23,1656.25
20890,-3.8748,0.9924,0.0278,-960.69,-76.23,1218.75
20900,-3.8748,0.9910,0.0247,-960.69,-435.61,687.50
20910,-3.8748,0.9900,0.0229,-1148.19,-841.86,406.25
20920,-3.8748,0.9907,0.0239,-1273.19,-1060.61,312.50
20930,-3.8748,0.9934,0.0251,-1179.44,-935.61,203.12
20940,-3.8748,0.9980,0.0250,-835.69,-779.36,62.50
20950,-3.8749,1.0006,0.0264,-241.94,-794.98,-93.75
20960,-3.8749,1.0026,0.0312,86.18,-623.05,-234.38
20970,-3.8749,1.0076,0.0355,336.18,1.95,-203.06
20980,-3.8749,1.0134,0.0361,976.81,548.83,-140.56
20990,-3.8749,1.0201,0.0356,1726.81,626.95,-93.69
21000,-3.8749,1.0269,0.0374,-1413.82,564.45,-171.81
21010,-3.8749,1.0289,0.0404,-554.44,783.20,-312.44
21020,-3.8749,1.0234,0.0409,-288.82,1173.83,-218.69
21030,-3.8748,1.0135,0.0385,-991.94,1236.33,31.31
21040,-3.8748,1.0048,0.0365,1742.43,923.83,328.19
21050,-3.8748,0.9980,0.0350,617.43,673.83,468.81
21060,-3.8748,0.9910,0.0323,-241.94,486.27,437.56
21070,-3.8748,0.9843,0.0305,-1148.19,142.52,406.31
21080,-3.8748,0.9800,0.0293,1992.43,-91.86,359.38
21090,-3.8748,0.9795,0.0291,1445.56,-248.11,187.50
21100,-3.8749,0.9825,0.0312,1383.06,-279.36,-109.38
21110,-3.8749,0.9874,0.0347,1773.68,1.89,-281.19
21120,-3.8749,0.9907,0.0359,-1601.32,439.39,-218.69
21130,-3.8748,0.9918,0.0354,-1179.44,595.64,15.69
21140,-3.8748,0.9929,0.0353,-1038.82,533.14,359.44
21150,-3.8748,0.9951,0.0342,-898.19,517.52,734.44
21160,-3.8748,0.9974,0.0314,-616.94,376.89,1046.94
21170,-3.8748,0.9982,0.0284,-320.07,17.52,1156.31
21180,-3.8748,0.9978,0.0262,-226.32,-357.48,937.50
21190,-3.8748,0.9984,0.0261,-273.19,-638.73,437.50
21200,-3.8748,1.0016,0.0312,-195.07,-654.36,0.00
21210,-3.8749,1.0065,0.0427,211.18,1.95,-78.06
21220,-3.8748,1.0123,0.0543,836.18,1470.70,328.19
21230,-3.8748,1.0167,0.0565,1586.18,-1044.92,937.56
21240,-3.8748,1.0149,0.0458,-1851.32,-763.67,1062.56
21250,-3.8748,1.0079,0.0293,1914.31,1861.33,625.06
21260,-3.8749,0.9999,0.0161,1023.68,-248.05,-46.88
21270,-3.8749,0.9926,0.0094,-7.57,-1935.61,-656.25
21280,-3.8749,0.9884,0.0107,-945.07,1205.02,-828.12
21290,-3.8749,0.9867,0.0190,-1476.32,1376.89,-546.88
21300,-3.8749,0.9862,0.0288,-1695.07,-1560.61,-93.75
21310,-3.8748,0.9880,0.0347,-1757.57,-310.61,265.62
21320,-3.8748,0.9899,0.0345,-1523.19,439.39,328.19
21330,-3.8748,0.9891,0.0273,-1288.82,423.77,140.69
21340,-3.8749,0.9888,0.0171,-1382.57,-498.11,-250.00
21350,-3.8749,0.9907,0.0107,-1429.44,-1810.61,-812.50
21360,-3.8749,0.9962,0.0123,-1179.44,1376.89,-1390.62
21370,-3.8749,1.0061,0.0193,-476.32,1580.02,-1562.50
21380,-3.8749,1.0166,0.0270,789.31,-1529.30,-1421.88
21390,-3.8749,1.0223,0.0319,-1866.94,-544.92,-1156.25
21400,-3.8749,1.0222,0.0316,-1132.57,80.08,-828.06
21410,-3.8749,1.0183,0.0292,-1148.19,48.83,-609.31
21420,-3.8749,1.0126,0.0298,-1648.19,-263.67,-421.88
21430,-3.8749,1.0063,0.0342,1617.43,-185.55,-93.75
21440,-3.8748,0.9995,0.0397,820.56,376.95,390.69
21450,-3.8748,0.9924,0.0424,-54.44,1080.02,1046.94
21460,-3.8748,0.9867,0.0388,-960.69,1423.77,1593.81
21470,-3.8748,0.9835,0.0291,-1695.07,970.64,1562.56
21480,-3.8748,0.9816,0.0176,1898.68,-279.36,937.50
21490,-3.8748,0.9810,0.0105,1648.68,-1748.11,125.00
21500,-3.8749,0.9825,0.0114,1570.56,1345.64,-406.25
21510,-3.8749,0.9852,0.0184,1773.68,1455.02,-609.38
21520,-3.8749,0.9884,0.0270,-1882.57,-1638.73,-531.25
21530,-3.8749,0.9917,0.0327,-1476.32,-544.98,-250.00
21540,-3.8749,0.9956,0.0365,-1054.44,189.39,-46.81
21550,-3.8748,0.9982,0.0388,-554.44,673.77,62.56
21560,-3.8748,0.9952,0.0353,-226.32,970.64,78.19
21570,-3.8749,0.9893,0.0265,-601.32,517.52,-62.44
21580,-3.8749,0.9862,0.0182,-1366.94,-607.48,-312.50
21590,-3.8749,0.9879,0.0144,-1757.57,-1669.98,-656.25
21600,-3.8749,0.9923,0.0170,-1538.82,1845.64,-921.88
21610,-3.8749,0.9989,0.0247,-976.32,-1826.23,-859.38
21620,-3.8749,1.0073,0.0332,-132.57,-841.86,-515.62
21630,-3.8749,1.0122,0.0381,945.56,251.95,-218.69
21640,-3.8748,1.0111,0.0372,1570.56,876.95,140.69
21650,-3.8748,1.0065,0.0342,1429.93,767.58,609.44
21660,-3.8748,0.9998,0.0312,836.18,376.95,953.19
21670,-3.8748,0.9924,0.0286,-23.19,1.89,1046.94
21680,-3.8748,0.9851,0.0280,-960.69,-341.86,1078.12
21690,-3.8748,0.9810,0.0293,-1898.19,-419.98,1171.88
21700,-3.8748,0.9802,0.0295,1570.56,-248.11,1218.75
21710,-3.8748,0.9817,0.0300,1476.81,-216.86,1312.50
21720,-3.8748,0.9843,0.0325,1664.31,-154.36,1468.75
21730,-3.8748,0.9874,0.0342,1992.43,158.14,1406.31
21740,-3.8748,0.9893,0.0345,-1601.32,376.89,1156.31
21750,-3.8748,0.9885,0.0349,-1366.94,423.77,1031.31
21760,-3.8748,0.9889,0.0352,-1460.69,470.64,984.44
21770,-3.8748,0.9921,0.0363,-1413.82,501.89,875.06
21780,-3.8748,0.9967,0.0387,-1007.57,642.52,687.56
21790,-3.8748,1.0010,0.0391,-413.82,955.02,453.19
21800,-3.8748,1.0042,0.0350,133.06,1001.95,140.69
21810,-3.8749,1.0051,0.0295,539.31,486.33,-249.94
21820,-3.8749,1.0032,0.0277,664.31,-216.80,-390.62
21830,-3.8749,1.0026,0.0322,414.31,-451.17,-187.50
21840,-3.8748,1.0046,0.0396,336.18,126.95,281.31
21850,-3.8748,1.0040,0.0428,601.81,1064.45,906.31
21860,-3.8748,0.9977,0.0396,523.68,1486.33,1437.56
21870,-3.8748,0.9888,0.0337,-288.82,1064.39,1812.56
21880,-3.8748,0.9810,0.0305,-1429.44,314.39,-1874.94
21890,-3.8748,0.9761,0.0321,1570.56,-91.86,-1718.75
21900,-3.8748,0.9739,0.0372,945.56,111.27,-1578.06
21910,-3.8748,0.9736,0.0417,664.31,767.52,-1312.44
21920,-3.8748,0.9747,0.0408,633.06,1345.64,-1281.19
21930,-3.8748,0.9755,0.0353,773.68,1220.64,-1640.56
21940,-3.8748,0.9750,0.0310,867.43,517.52,1718.81
21950,-3.8748,0.9736,0.0305,804.93,-29.36,968.75
21960,-3.8748,0.9731,0.0322,633.06,-91.86,500.00
21970,-3.8748,0.9735,0.0327,570.56,126.89,250.06
21980,-3.8749,0.9749,0.0314,617.43,189.39,-109.31
21990,-3.8749,0.9779,0.0302,789.31,17.52,-640.56
22000,-3.8749,0.9841,0.0314,1179.93,-138.73,-1187.50
22010,-3.8749,0.9962,0.0371,1976.81,17.52,-1374.94
22020,-3.8749,1.0103,0.0436,-476.32,751.89,-1171.81
22030,-3.8749,1.0220,0.0465,1320.56,1580.08,-781.19
22040,-3.8749,1.0261,0.0446,-1179.44,1955.08,-343.69
22050,-3.8749,1.0210,0.0389,-648.19,1705.08,-15.56
22060,-3.8748,1.0150,0.0328,-1304.44,986.33,156.31
22070,-3.8748,1.0103,0.0287,1929.93,205.08,187.56
22080,-3.8748,1.0056,0.0272,1320.56,-326.17,359.38
22090,-3.8748,1.0031,0.0272,726.81,-513.67,671.88
22100,-3.8748,1.0038,0.0276,398.68,-513.67,890.62
22110,-3.8748,1.0056,0.0280,492.43,-466.80,953.12
22120,-3.8748,1.0057,0.0280,726.81,-419.92,890.62
22130,-3.8748,1.0038,0.0281,742.43,-419.92,890.62
22140,-3.8748,0.9990,0.0292,492.43,-404.30,828.12
22150,-3.8748,0.9939,0.0315,-116.94,-263.73,812.50
22160,-3.8748,0.9928,0.0331,-773.19,33.14,1031.31
22170,-3.8748,0.9954,0.0310,-913.82,236.27,1109.44
22180,-3.8748,0.9991,0.0270,-585.69,-29.36,859.38
22190,-3.8748,1.0035,0.0244,-101.32,-544.98,328.12
22200,-3.8749,1.0073,0.0245,461.18,-873.05,-390.62
22210,-3.8749,1.0071,0.0258,945.56,-857.42,-984.38
22220,-3.8749,1.0035,0.0270,914.31,-701.17,-1203.12
22230,-3.8749,0.9998,0.0293,461.18,-544.92,-1234.38
22240,-3.8749,0.9965,0.0323,-23.19,-248.11,-1281.25
22250,-3.8749,0.9951,0.0342,-445.07,142.52,-1203.06
22260,-3.8749,0.9961,0.0331,-616.94,376.89,-1234.31
22270,-3.8749,0.9976,0.0292,-491.94,236.27,-1437.44
22280,-3.8749,0.9984,0.0248,-304.44,-263.73,-1750.00
22290,-3.8749,0.9962,0.0237,-195.07,-826.23,1812.50
22300,-3.8749,0.9927,0.0256,-476.32,-966.86,1703.12
22310,-3.8749,0.9910,0.0278,-929.44,-716.86,-1953.12
22320,-3.8749,0.9934,0.0283,-1148.19,-435.61,-1609.38
22330,-3.8749,1.0000,0.0282,-835.69,-373.11,-1500.00
22340,-3.8749,1.0072,0.0304,8.06,-388.67,-1421.88
22350,-3.8749,1.0095,0.0343,929.93,-107.42,-1437.50
22360,-3.8749,1.0059,0.0370,1226.81,392.58,-1374.94
22370,-3.8749,0.9991,0.0355,758.06,736.33,-937.44
22380,-3.8749,0.9938,0.0304,-101.32,548.77,-593.69
22390,-3.8749,0.9924,0.0266,-788.82,-107.48,-687.50
22400,-3.8749,0.9950,0.0271,-960.69,-591.86,-921.88
22410,-3.8749,0.9985,0.0308,-632.57,-529.36,-1171.88
22420,-3.8749,0.9972,0.0326,-179.44,-60.61,-1343.75
22430,-3.8749,0.9917,0.0282,-351.32,173.77,-1406.19
22440,-3.8749,0.9863,0.0206,-1054.44,-388.73,-1671.88
22450,-3.8749,0.9856,0.0164,-1741.94,-1357.48,1781.25
22460,-3.8749,0.9904,0.0187,-1835.69,-1904.36,1234.38
22470,-3.8749,0.9980,0.0251,-1226.32,-1607.48,953.12
22480,-3.8749,1.0039,0.0310,-241.94,-779.36,921.88
22490,-3.8749,1.0055,0.0342,508.06,-29.30,1093.75
22500,-3.8749,1.0057,0.0366,711.18,376.95,1453.19
22510,-3.8749,1.0068,0.0387,742.43,689.45,1890.69
22520,-3.8749,1.0078,0.0388,883.06,955.08,-1624.94
22530,-3.8749,1.0070,0.0372,1008.06,970.70,-1062.44
22540,-3.8749,1.0038,0.0358,898.68,767.58,-578.06
22550,-3.8749,0.9999,0.0353,492.43,580.08,-296.81
22560,-3.8749,0.9958,0.0350,-7.57,517.52,-234.31
22570,-3.8749,0.9932,0.0343,-523.19,486.27,-203.06
22580,-3.8749,0.9921,0.0330,-866.94,392.52,-31.19
22590,-3.8748,0.9921,0.0315,-1007.57,220.64,0.06
22600,-3.8749,0.9922,0.0316,-1007.57,33.14,-203.06
22610,-3.8749,0.9916,0.0323,-991.94,48.77,-406.19
22620,-3.8749,0.9916,0.0341,-1070.07,142.52,-609.31
22630,-3.8749,0.9929,0.0372,-1070.07,361.27,-656.19
22640,-3.8749,0.9961,0.0402,-898.19,767.52,-578.06
22650,-3.8749,1.0015,0.0421,-491.94,1142.52,-468.69
22660,-3.8749,1.0049,0.0421,195.56,1392.58,-312.44
22670,-3.8749,1.0027,0.0404,633.06,1392.58,-281.19
22680,-3.8749,0.9977,0.0382,351.81,1173.83,-406.19
22690,-3.8749,0.9911,0.0339,-288.82,892.52,-562.44
22700,-3.8749,0.9825,0.0295,-1132.57,345.64,-734.31
22710,-3.8749,0.9753,0.0289,1773.68,-216.86,-843.75
22720,-3.8749,0.9731,0.0321,851.81,-294.98,-875.00
22730,-3.8749,0.9755,0.0361,570.56,111.27,-1015.56
22740,-3.8749,0.9832,0.0394,867.43,626.89,-1093.69
22750,-3.8749,0.9955,0.0425,1851.81,1048.77,-1031.19
22760,-3.8749,1.0081,0.0444,-570.07,1439.39,-1093.69
22770,-3.8749,1.0176,0.0454,1039.31,1689.45,-1312.44
22780,-3.8749,1.0219,0.0471,-1741.94,1814.45,-1531.19
22790,-3.8749,1.0197,0.0475,-1195.07,-1966.80,-1437.44
22800,-3.8749,1.0110,0.0422,-1476.32,-1919.92,-1015.56
22810,-3.8749,1.0002,0.0337,1414.31,1408.20,-609.31
22820,-3.8749,0.9933,0.0288,39.31,314.45,-515.56
22830,-3.8749,0.9923,0.0305,-851.32,-310.61,-640.62
22840,-3.8749,0.9956,0.0361,-976.32,-91.86,-656.25
22850,-3.8749,0.9999,0.0409,-554.44,626.89,-437.44
22860,-3.8749,1.0028,0.0435,-7.57,1236.27,-93.69
22870,-3.8748,1.0034,0.0452,367.43,1564.45,78.19
22880,-3.8748,1.0013,0.0457,445.56,1783.20,156.31
22890,-3.8748,0.9983,0.0436,179.93,1845.70,203.19
22900,-3.8748,0.9961,0.0389,-210.69,1580.02,78.19
22910,-3.8749,0.9948,0.0345,-491.94,986.27,-312.44
22920,-3.8749,0.9955,0.0332,-663.82,423.77,-796.81
22930,-3.8749,0.9990,0.0354,-570.07,251.89,-1124.94
22940,-3.8749,1.0011,0.0396,-116.94,533.14,-1187.44
22950,-3.8749,1.0000,0.0428,148.68,1064.45,-1140.56
22960,-3.8749,0.9976,0.0450,8.06,1486.33,-1093.69
22970,-3.8749,0.9954,0.0453,-304.44,1767.52,-984.31
22980,-3.8749,0.9937,0.0428,-585.69,1798.77,-812.44
22990,-3.8749,0.9933,0.0410,-804.44,1486.27,-749.94
23000,-3.8749,0.9967,0.0435,-851.32,1251.89,-796.81
23010,-3.8749,1.0026,0.0471,-413.82,1564.39,-718.69
23020,-3.8749,1.0062,0.0469,336.18,-1966.80,-578.06
23030,-3.8749,1.0057,0.0424,804.93,-1998.05,-656.19
23040,-3.8749,1.0027,0.0361,742.43,1423.83,-984.31
23050,-3.8749,1.0001,0.0321,351.81,626.95,-1468.69
23060,-3.8749,0.9967,0.0327,23.68,111.33,-1796.81
23070,-3.8749,0.9926,0.0370,-413.82,189.39,-1828.06
23080,-3.8749,0.9913,0.0416,-945.07,736.27,-1624.94
23090,-3.8749,0.9927,0.0446,-1101.32,1330.02,-1374.94
23100,-3.8749,0.9957,0.0472,-929.44,1705.02,-1203.06
23110,-3.8749,0.9962,0.0480,-538.82,-1951.23,-1031.19
23120,-3.8749,0.9934,0.0441,-476.32,-1857.48,-796.81
23130,-3.8749,0.9895,0.0376,-835.69,1642.52,-671.81
23140,-3.8749,0.9865,0.0332,-1335.69,814.39,-859.31
23150,-3.8749,0.9872,0.0342,-1726.32,251.89,-1171.81
23160,-3.8749,0.9915,0.0370,-1632.57,376.89,-1343.69
23170,-3.8749,0.9960,0.0374,-1085.69,736.27,-1453.06
23180,-3.8749,0.9980,0.0360,-507.57,783.14,-1578.06
23190,-3.8749,0.9988,0.0349,-241.94,611.27,-1781.19
23200,-3.8749,1.0004,0.0354,-148.19,470.64,-1937.44
23210,-3.8749,1.0028,0.0389,54.93,533.20,-1906.19
23220,-3.8749,1.0042,0.0449,367.43,986.33,-1578.06
23230,-3.8749,1.0037,0.0479,539.31,1751.95,-1093.69
23240,-3.8749,1.0015,0.0453,476.81,-1873.05,-734.31
23250,-3.8749,0.9988,0.0411,195.56,1798.83,-703.06
23260,-3.8749,0.9969,0.0391,-148.19,1267.52,-937.44
23270,-3.8749,0.9966,0.0392,-382.57,1001.89,-1031.19
23280,-3.8749,0.9982,0.0402,-429.44,1017.52,-968.69
23290,-3.8749,1.0009,0.0396,-226.32,1142.52,-1015.56
23300,-3.8749,1.0022,0.0374,117.43,1064.45,-1124.94
23310,-3.8749,1.0024,0.0354,289.31,783.20,-1328.06
23320,-3.8749,1.0016,0.0349,320.56,533.20,-1484.31
