timestamp_ms,ax,ay,az,gx,gy,gz
0,-3.8746,0.9684,0.1547,-882.57,-420.04,-1359.13
10,-3.8746,0.9771,0.1564,-38.82,-201.29,-1265.38
20,-3.8746,0.9835,0.1602,1070.56,17.52,-984.07
30,-3.8746,0.9873,0.1646,1898.68,501.89,-687.19
40,-3.8746,0.9883,0.1655,-1616.94,1064.39,-484.07
50,-3.8746,0.9865,0.1625,-1491.94,1189.39,-468.44
60,-3.8746,0.9847,0.1576,-1726.32,798.77,-718.44
70,-3.8746,0.9836,0.1522,-1945.07,173.77,-1218.44
80,-3.8746,0.9805,0.1495,1914.31,-513.73,-1609.13
90,-3.8746,0.9769,0.1512,1508.06,-857.48,-1718.51
100,-3.8746,0.9742,0.1560,1054.93,-638.73,-1687.26
110,-3.8746,0.9730,0.1605,711.18,-29.36,-1468.51
120,-3.8746,0.9756,0.1621,554.93,548.77,-1155.94
130,-3.8746,0.9805,0.1610,883.06,751.89,-999.69
140,-3.8746,0.9844,0.1576,1508.06,611.27,-1140.32
150,-3.8746,0.9867,0.1541,-1991.94,173.77,-1609.07
160,-3.8746,0.9858,0.1534,-1695.07,-279.36,1828.37
170,-3.8746,0.9824,0.1555,-1804.44,-357.48,1578.37
180,-3.8746,0.9799,0.1567,1758.06,-91.86,1672.12
190,-3.8746,0.9783,0.1559,1429.93,64.39,1969.06
200,-3.8746,0.9768,0.1545,1226.81,-44.98,-1890.38
210,-3.8746,0.9757,0.1541,1039.31,-216.86,1875.24
220,-3.8746,0.9755,0.1571,898.68,-279.36,1640.87
230,-3.8746,0.9769,0.1633,867.43,111.27,1703.43
240,-3.8746,0.9816,0.1686,1054.93,908.14,1922.18
250,-3.8746,0.9873,0.1705,1648.68,1580.02,-1749.69
260,-3.8746,0.9917,0.1685,-1616.94,1830.02,-1624.69
270,-3.8746,0.9926,0.1642,-1054.44,1564.39,-1827.82
280,-3.8746,0.9895,0.1583,-945.07,1017.52,1906.56
290,-3.8746,0.9852,0.1528,-1335.69,267.52,1609.68
300,-3.8746,0.9822,0.1519,-1882.57,-435.61,1375.24
310,-3.8746,0.9797,0.1554,1726.81,-560.61,1297.12
320,-3.8746,0.9780,0.1591,1414.31,-107.48,1500.24
330,-3.8746,0.9785,0.1592,1195.56,361.27,1828.43
340,-3.8746,0.9805,0.1588,1258.06,376.89,-1921.57
350,-3.8746,0.9838,0.1611,1508.06,330.02,-1687.19
360,-3.8746,0.9873,0.1647,1929.93,626.89,-1405.94
370,-3.8746,0.9874,0.1671,-1616.94,1080.02,-905.94
380,-3.8746,0.9846,0.1655,-1601.32,1392.52,-562.19
390,-3.8746,0.9812,0.1600,-1960.69,1189.39,-577.82
400,-3.8746,0.9780,0.1542,1601.81,486.27,-812.19
410,-3.8746,0.9769,0.1492,1195.56,-263.73,-1202.88
420,-3.8746,0.9749,0.1479,1054.93,-904.36,-1546.63
430,-3.8746,0.9690,0.1554,789.31,-1060.61,-1562.26
440,-3.8746,0.9663,0.1674,39.31,-107.48,-1187.26
450,-3.8746,0.9708,0.1720,-304.44,1423.71,-671.57
460,-3.8746,0.9768,0.1660,273.68,-1982.48,-593.44
470,-3.8746,0.9808,0.1566,1039.31,1251.89,-984.07
480,-3.8746,0.9817,0.1516,1554.93,48.77,-1452.82
490,-3.8746,0.9795,0.1539,1664.31,-591.86,-1827.88
500,-3.8746,0.9788,0.1595,1383.06,-294.98,-1968.51
510,-3.8746,0.9799,0.1619,1289.31,423.77,1844.06
520,-3.8746,0.9808,0.1597,1429.93,720.64,1484.68
530,-3.8746,0.9810,0.1593,1554.93,439.39,984.68
540,-3.8746,0.9817,0.1656,1570.56,392.52,672.18
550,-3.8746,0.9829,0.1733,1664.31,1205.02,984.68
560,-3.8746,0.9827,0.1748,1820.56,-1810.61,1828.43
570,-3.8746,0.9796,0.1674,1789.31,-1623.11,-1577.82
580,-3.8746,0.9755,0.1539,1398.68,1423.77,-1640.32
590,-3.8746,0.9727,0.1406,867.43,-294.98,1828.37
600,-3.8746,0.9700,0.1310,508.06,-1998.11,1343.99
610,-3.8746,0.9672,0.1287,164.31,767.52,1062.74
620,-3.8746,0.9673,0.1346,-195.07,470.58,875.24
630,-3.8746,0.9709,0.1443,-179.44,1236.21,890.87
640,-3.8746,0.9767,0.1510,289.31,-1529.36,1078.37
650,-3.8746,0.9844,0.1527,1023.68,-669.98,1203.37
660,-3.8746,0.9926,0.1532,-1991.94,-451.23,1250.24
670,-3.8746,0.9984,0.1561,-945.07,-388.73,1297.12
680,-3.8746,1.0006,0.1611,-195.07,-13.73,1547.12
690,-3.8746,0.9988,0.1638,86.18,626.95,-1937.19
700,-3.8746,0.9962,0.1619,-148.19,970.64,-1343.44
710,-3.8746,0.9967,0.1572,-476.32,720.64,-874.69
720,-3.8746,0.9989,0.1514,-413.82,126.89,-655.94
730,-3.8746,1.0004,0.1475,-132.57,-623.11,-671.63
740,-3.8746,1.0005,0.1484,54.93,-1123.05,-812.26
750,-3.8746,0.9996,0.1515,70.56,-998.05,-843.51
760,-3.8746,0.9963,0.1523,-38.82,-607.48,-734.13
770,-3.8746,0.9912,0.1501,-460.69,-498.11,-687.26
780,-3.8746,0.9865,0.1466,-1116.94,-779.36,-843.51
790,-3.8746,0.9828,0.1458,-1726.32,-1232.48,-1062.26
800,-3.8746,0.9839,0.1492,1804.93,-1341.86,-1109.13
810,-3.8746,0.9896,0.1530,1945.56,-904.36,-890.38
820,-3.8746,0.9950,0.1519,-1320.07,-419.98,-671.63
830,-3.8746,0.9945,0.1471,-632.57,-560.61,-843.51
840,-3.8746,0.9869,0.1427,-695.07,-1169.98,-1312.26
850,-3.8746,0.9781,0.1409,-1663.82,-1732.48,-1749.76
860,-3.8746,0.9742,0.1423,1211.18,-1966.86,1968.99
870,-3.8746,0.9763,0.1442,711.18,-1779.36,1562.74
880,-3.8746,0.9824,0.1443,976.81,-1544.98,937.74
890,-3.8746,0.9906,0.1451,1758.06,-1529.36,515.87
900,-3.8746,0.9974,0.1478,-1195.07,-1419.98,312.74
910,-3.8746,1.0010,0.1505,-320.07,-1076.23,343.99
920,-3.8746,1.0021,0.1504,133.06,-732.42,578.37
930,-3.8746,0.9991,0.1498,273.68,-748.05,703.37
940,-3.8746,0.9916,0.1536,-101.32,-826.23,875.24
950,-3.8746,0.9830,0.1560,-1070.07,-341.86,1359.62
960,-3.8746,0.9763,0.1515,1836.18,-29.36,1859.62
970,-3.8746,0.9709,0.1442,976.81,-607.48,1953.37
980,-3.8746,0.9669,0.1379,289.31,-1544.98,1578.37
990,-3.8746,0.9662,0.1333,-226.32,1658.08,1078.37
1000,-3.8746,0.9689,0.1313,-320.07,1064.33,515.87
1010,-3.8748,0.9731,0.1324,23.68,814.39,-171.63
1020,-3.8748,0.9796,0.1376,570.56,955.02,-734.13
1030,-3.8748,0.9890,0.1467,1398.68,1611.27,-1015.38
1040,-3.8748,1.0007,0.1556,-1398.19,-1216.86,-1062.26
1050,-3.8748,1.0121,0.1592,101.81,-76.17,-1109.13
1060,-3.8748,1.0204,0.1570,1554.93,376.95,-1155.94
1070,-3.8748,1.0240,0.1525,-1382.57,95.70,-1187.19
1080,-3.8748,1.0204,0.1495,-913.82,-482.42,-1327.88
1090,-3.8748,1.0103,0.1482,-1382.57,-857.42,-1265.38
1100,-3.8748,0.9984,0.1465,1320.56,-1029.30,-859.13
1110,-3.8748,0.9874,0.1440,-195.07,-1248.11,-327.88
1120,-3.8746,0.9780,0.1439,-1601.32,-1560.61,47.12
1130,-3.8746,0.9733,0.1478,1195.56,-1576.23,437.74
1140,-3.8746,0.9735,0.1523,586.18,-1076.23,1109.62
1150,-3.8746,0.9769,0.1526,617.43,-498.11,1687.74
1160,-3.8746,0.9807,0.1489,1054.93,-466.86,1937.74
1170,-3.8746,0.9819,0.1451,1539.31,-935.61,1937.74
1180,-3.8746,0.9795,0.1428,1695.56,-1419.98,1890.87
1190,-3.8746,0.9751,0.1417,1383.06,-1716.86,-1984.13
1200,-3.8746,0.9705,0.1409,820.56,-1857.48,-1702.88
1210,-3.8746,0.9646,0.1396,226.81,-1966.86,-1468.51
1220,-3.8746,0.9572,0.1387,-523.19,1876.83,-1296.63
1230,-3.8746,0.9512,0.1382,-1476.32,1751.83,-1093.51
1240,-3.8746,0.9484,0.1372,1758.06,1689.33,-874.76
1250,-3.8746,0.9459,0.1373,1398.68,1564.33,-906.01
1260,-3.8746,0.9443,0.1410,1086.18,1579.96,-984.13
1270,-3.8746,0.9469,0.1451,883.06,-1951.29,-781.01
1280,-3.8746,0.9520,0.1460,1211.18,-1420.04,-562.26
1290,-3.8746,0.9592,0.1456,1867.43,-1310.67,-437.26
1300,-3.8746,0.9694,0.1478,-1210.69,-1357.54,-327.88
1310,-3.8745,0.9784,0.1516,86.18,-1076.23,62.74
1320,-3.8745,0.9817,0.1528,1242.43,-591.86,578.37
1330,-3.8745,0.9799,0.1501,1664.31,-435.61,953.37
1340,-3.8745,0.9762,0.1470,1429.93,-779.36,1218.99
1350,-3.8745,0.9727,0.1456,961.18,-1185.61,1500.24
1360,-3.8745,0.9705,0.1460,508.06,-1357.48,1718.99
1370,-3.8745,0.9672,0.1461,226.81,-1310.61,1734.62
1380,-3.8745,0.9637,0.1438,-195.07,-1295.04,1547.12
1390,-3.8745,0.9623,0.1392,-632.57,-1591.92,937.74
1400,-3.8746,0.9634,0.1370,-820.07,1814.33,-15.38
1410,-3.8746,0.9684,0.1403,-679.44,1533.08,-874.76
1420,-3.8746,0.9741,0.1462,-38.82,1954.96,-1202.88
1430,-3.8746,0.9784,0.1505,695.56,-1279.36,-1296.63
1440,-3.8746,0.9811,0.1488,1242.43,-732.48,-1671.63
1450,-3.8746,0.9835,0.1425,1586.18,-951.23,1703.37
1460,-3.8746,0.9854,0.1373,1898.68,-1763.73,1047.12
1470,-3.8746,0.9843,0.1359,-1866.94,1580.02,625.24
1480,-3.8746,0.9814,0.1371,1992.43,1392.52,453.37
1490,-3.8746,0.9796,0.1396,1633.06,1548.77,453.37
1500,-3.8746,0.9812,0.1425,1398.68,1876.89,453.37
1510,-3.8746,0.9845,0.1444,1601.81,-1763.73,343.99
1520,-3.8746,0.9873,0.1429,-1976.32,-1513.73,218.99
1530,-3.8748,0.9906,0.1371,-1616.94,-1701.23,-62.26
1540,-3.8748,0.9932,0.1306,-1195.07,1548.77,-452.88
1550,-3.8748,0.9919,0.1300,-866.94,720.64,-546.63
1560,-3.8748,0.9893,0.1346,-1023.19,642.52,-281.01
1570,-3.8746,0.9880,0.1387,-1366.94,1236.27,172.12
1580,-3.8746,0.9867,0.1375,-1523.19,1751.89,515.87
1590,-3.8746,0.9840,0.1290,-1695.07,1595.64,406.49
1600,-3.8748,0.9818,0.1202,1961.18,517.52,-15.38
1610,-3.8748,0.9840,0.1196,1679.93,-607.48,-265.44
1620,-3.8748,0.9929,0.1262,1961.18,-685.61,-77.94
1630,-3.8746,1.0068,0.1344,-898.19,158.14,390.87
1640,-3.8746,1.0192,0.1414,883.06,1205.08,828.37
1650,-3.8746,1.0240,0.1456,-1538.82,-1904.30,1015.87
1660,-3.8746,1.0215,0.1454,-913.82,-1357.42,1015.87
1670,-3.8746,1.0140,0.1409,-1241.94,-1388.67,843.99
1680,-3.8746,1.0065,0.1378,1804.93,-1966.80,422.12
1690,-3.8748,1.0028,0.1393,836.18,1642.58,-15.38
1700,-3.8748,1.0032,0.1421,367.43,1830.08,-234.13
1710,-3.8748,1.0063,0.1417,414.31,-1810.55,-374.76
1720,-3.8748,1.0065,0.1368,820.56,-1857.42,-718.51
1730,-3.8748,1.0033,0.1290,836.18,1517.58,-1327.88
1740,-3.8748,1.0018,0.1232,429.93,517.58,-1671.63
1750,-3.8748,1.0005,0.1237,242.43,-232.42,-1437.32
1760,-3.8748,0.9978,0.1276,70.56,-169.92,-734.19
1770,-3.8746,0.9904,0.1302,-273.19,330.02,156.49
1780,-3.8746,0.9795,0.1326,-1226.32,673.77,984.62
1790,-3.8746,0.9707,0.1360,1383.06,970.64,1765.87
1800,-3.8746,0.9647,0.1388,258.06,1408.14,-1577.88
1810,-3.8746,0.9620,0.1388,-507.57,1767.46,-1077.88
1820,-3.8746,0.9645,0.1351,-851.32,1767.46,-921.63
1830,-3.8746,0.9718,0.1312,-538.82,1298.71,-1296.63
1840,-3.8746,0.9775,0.1309,398.68,798.77,-1937.26
1850,-3.8746,0.9796,0.1350,1133.06,751.89,1625.24
1860,-3.8746,0.9828,0.1411,1398.68,1283.14,1437.74
1870,-3.8746,0.9851,0.1436,1804.93,-1935.61,1234.62
1880,-3.8746,0.9835,0.1416,-1898.19,-1623.11,859.62
1890,-3.8746,0.9835,0.1370,1898.68,-1873.11,359.62
1900,-3.8748,0.9854,0.1348,1898.68,1533.14,-171.63
1910,-3.8748,0.9858,0.1403,-1866.94,1251.89,-562.26
1920,-3.8748,0.9874,0.1477,-1804.44,1955.02,-640.38
1930,-3.8748,0.9915,0.1499,-1601.32,-1091.86,-327.88
1940,-3.8748,0.9958,0.1478,-1085.69,-810.61,-156.01
1950,-3.8748,0.9995,0.1469,-523.19,-1076.23,-421.63
1960,-3.8748,1.0024,0.1479,-54.44,-1201.23,-374.76
1970,-3.8746,1.0018,0.1484,320.56,-1060.55,109.62
1980,-3.8746,0.9979,0.1481,242.43,-998.05,765.87
1990,-3.8746,0.9916,0.1484,-257.57,-1044.98,1484.62
2000,-3.8746,0.9850,0.1476,-1070.07,-998.11,-1859.13
2010,-3.8746,0.9808,0.1417,-1913.82,-1107.48,-1234.13
2020,-3.8746,0.9781,0.1311,1554.93,-1857.48,-1015.38
2030,-3.8746,0.9749,0.1204,1211.18,783.14,-1374.76
2040,-3.8746,0.9714,0.1141,789.31,-591.86,-1781.07
2050,-3.8746,0.9703,0.1157,351.81,-1388.73,-1874.82
2060,-3.8746,0.9723,0.1260,211.18,-1185.61,-1624.82
2070,-3.8746,0.9758,0.1382,461.18,126.89,-937.26
2080,-3.8746,0.9801,0.1442,914.31,1689.39,-62.26
2090,-3.8745,0.9834,0.1410,1461.18,-1544.98,406.49
2100,-3.8745,0.9824,0.1340,1883.06,-1951.23,297.12
2110,-3.8745,0.9773,0.1310,1758.06,1158.14,0.24
2120,-3.8746,0.9708,0.1328,1101.81,767.52,-140.38
2130,-3.8746,0.9625,0.1353,273.68,1001.89,-202.88
2140,-3.8746,0.9550,0.1384,-788.82,1314.33,-359.13
2150,-3.8746,0.9526,0.1405,-1757.57,1720.58,-687.26
2160,-3.8746,0.9530,0.1392,1945.56,1986.21,-1077.88
2170,-3.8746,0.9504,0.1371,1992.43,1814.33,-1531.01
2180,-3.8746,0.9484,0.1384,1664.31,1548.71,1984.62
2190,-3.8746,0.9564,0.1392,1398.68,1720.58,1578.37
2200,-3.8746,0.9657,0.1357,-1570.07,1814.33,1187.74
2210,-3.8746,0.9664,0.1312,-382.57,1376.83,640.87
2220,-3.8746,0.9684,0.1279,-288.82,798.71,78.37
2230,-3.8748,0.9717,0.1274,-38.82,376.83,-234.13
2240,-3.8748,0.9735,0.1301,383.06,314.39,-421.63
2250,-3.8748,0.9780,0.1345,617.43,658.14,-499.76
2260,-3.8748,0.9843,0.1377,1195.56,1220.64,-468.51
2270,-3.8748,0.9928,0.1398,1992.43,1626.89,-531.01
2280,-3.8748,1.0037,0.1407,-913.82,1892.52,-734.13
2290,-3.8748,1.0148,0.1406,476.81,-1982.42,-937.26
2300,-3.8748,1.0231,0.1395,1898.68,-1998.05,-968.51
2310,-3.8748,1.0261,0.1359,-1038.82,1861.33,-859.13
2320,-3.8748,1.0253,0.1284,-648.19,1392.58,-874.76
2330,-3.8748,1.0229,0.1189,-757.57,439.45,-1187.26
2340,-3.8748,1.0188,0.1124,-1054.44,-779.30,-1562.32
2350,-3.8748,1.0125,0.1132,-1585.69,-1607.42,-1812.32
2360,-3.8748,1.0083,0.1208,1601.81,-1513.67,-1593.57
2370,-3.8748,1.0103,0.1283,1070.56,-529.30,-1015.44
2380,-3.8748,1.0166,0.1288,1320.56,423.83,-718.51
2390,-3.8748,1.0245,0.1250,-1866.94,486.33,-843.51
2400,-3.8748,1.0314,0.1224,-851.32,1.95,-1202.88
2410,-3.8748,1.0342,0.1226,23.68,-326.11,-1640.44
2420,-3.8748,1.0327,0.1227,383.06,-310.49,-1937.32
2430,-3.8748,1.0287,0.1216,195.56,-294.86,1718.93
2440,-3.8748,1.0251,0.1217,-320.07,-435.55,1203.31
2450,-3.8748,1.0222,0.1245,-773.19,-419.92,828.31
2460,-3.8748,1.0179,0.1296,-1148.19,-60.55,781.43
2470,-3.8748,1.0126,0.1359,-1695.07,595.70,906.49
2480,-3.8748,1.0089,0.1405,1617.43,1392.58,1234.62
2490,-3.8748,1.0082,0.1426,1148.68,1986.33,1765.87
2500,-3.8748,1.0094,0.1427,1054.93,-1748.05,-1890.38
2510,-3.8748,1.0096,0.1428,1211.18,-1732.42,-1812.26
2520,-3.8748,1.0068,0.1436,1242.43,-1716.80,-1577.88
2530,-3.8748,0.9985,0.1428,883.06,-1623.05,-1062.26
2540,-3.8748,0.9845,0.1420,-179.44,-1716.86,-577.88
2550,-3.8748,0.9684,0.1434,-1976.32,-1826.23,-234.13
2560,-3.8746,0.9574,0.1440,-38.82,-1638.79,62.74
2570,-3.8746,0.9532,0.1415,-1445.07,-1560.67,265.87
2580,-3.8746,0.9460,0.1411,-1976.32,-1888.79,468.99
2590,-3.8746,0.9377,0.1460,1101.81,-1935.67,812.74
2600,-3.8746,0.9408,0.1506,39.31,-1310.67,1109.62
2610,-3.8746,0.9493,0.1520,429.93,-716.92,1281.49
2620,-3.8746,0.9509,0.1519,1523.68,-545.04,1390.87
2630,-3.8746,0.9490,0.1520,1726.81,-560.67,1437.74
2640,-3.8746,0.9489,0.1517,1476.81,-545.04,1281.49
2650,-3.8746,0.9489,0.1509,1461.18,-576.29,1093.99
2660,-3.8746,0.9485,0.1526,1461.18,-685.67,1312.74
2670,-3.8746,0.9481,0.1565,1414.31,-466.92,1734.62
2680,-3.8746,0.9464,0.1609,1367.43,33.08,-1812.19
2690,-3.8746,0.9448,0.1671,1148.68,595.58,-1312.19
2700,-3.8746,0.9451,0.1731,945.56,1392.46,-640.32
2710,-3.8745,0.9456,0.1736,976.81,-1841.92,109.68
2720,-3.8745,0.9443,0.1671,1039.31,-1779.42,531.56
2730,-3.8745,0.9423,0.1572,883.06,1392.46,594.06
2740,-3.8745,0.9410,0.1487,617.43,126.83,328.43
2750,-3.8745,0.9421,0.1451,461.18,-966.92,62.74
2760,-3.8746,0.9459,0.1482,601.81,-1420.04,-46.63
2770,-3.8745,0.9519,0.1537,1086.18,-1029.42,15.87
2780,-3.8745,0.9583,0.1577,1851.81,-326.29,109.62
2790,-3.8745,0.9651,0.1615,-1335.69,189.33,0.31
2800,-3.8746,0.9728,0.1660,-460.69,673.71,-343.44
2810,-3.8746,0.9792,0.1688,523.68,1251.89,-593.44
2820,-3.8746,0.9844,0.1674,1351.81,1611.27,-562.19
2830,-3.8746,0.9882,0.1625,-1991.94,1423.77,-577.82
2840,-3.8746,0.9904,0.1580,-1507.57,798.77,-937.19
2850,-3.8746,0.9893,0.1565,-1226.32,220.64,-1405.94
2860,-3.8746,0.9865,0.1570,-1366.94,33.14,-1593.44
2870,-3.8746,0.9840,0.1558,-1726.32,95.64,-1530.94
2880,-3.8746,0.9833,0.1536,1961.18,-60.61,-1624.76
2890,-3.8746,0.9825,0.1512,1867.43,-341.86,1859.62
2900,-3.8746,0.9808,0.1483,1773.68,-638.73,1312.74
2910,-3.8746,0.9806,0.1465,1554.93,-1013.73,843.99
2920,-3.8746,0.9851,0.1504,1523.68,-1248.11,187.74
2930,-3.8748,0.9952,0.1616,-1898.19,-748.11,-390.38
2940,-3.8748,1.0085,0.1742,-601.32,689.39,-499.69
2950,-3.8748,1.0205,0.1790,1101.81,-1701.17,-390.32
2960,-3.8748,1.0272,0.1729,-1366.94,-1091.80,-562.19
2970,-3.8748,1.0277,0.1614,-507.57,-1873.05,-1030.94
2980,-3.8748,1.0220,0.1532,-445.07,658.20,-1577.82
2990,-3.8748,1.0128,0.1530,-1179.44,-388.67,-1796.63
3000,-3.8748,1.0037,0.1562,1648.68,-419.92,-1452.88
3010,-3.8748,0.9938,0.1570,476.81,1.95,-780.94
3020,-3.8748,0.9843,0.1555,-788.82,95.64,-109.07
3030,-3.8746,0.9764,0.1534,1992.43,-91.86,484.62
3040,-3.8746,0.9722,0.1538,992.43,-357.48,953.37
3050,-3.8746,0.9734,0.1594,445.56,-310.61,1218.99
3060,-3.8746,0.9852,0.1675,601.81,408.14,1515.93
3070,-3.8746,0.9988,0.1693,-1882.57,1439.39,1640.93
3080,-3.8746,0.9980,0.1653,-148.19,1673.77,1469.06
3090,-3.8746,0.9877,0.1614,-241.94,1158.14,1172.18
3100,-3.8746,0.9833,0.1562,-1570.07,658.14,687.81
3110,-3.8748,0.9854,0.1531,1867.43,1.89,-46.57
3120,-3.8748,0.9825,0.1558,-1866.94,-404.36,-562.26
3130,-3.8748,0.9771,0.1595,1773.68,-60.61,-531.01
3140,-3.8748,0.9749,0.1567,1070.56,423.77,-374.69
3150,-3.8748,0.9734,0.1484,789.31,64.39,-405.94
3160,-3.8748,0.9713,0.1415,601.81,-998.11,-687.26
3170,-3.8748,0.9709,0.1398,336.18,-1888.73,-1031.01
3180,-3.8748,0.9709,0.1440,289.31,1892.52,-1124.76
3190,-3.8748,0.9719,0.1501,289.31,-1560.61,-890.38
3200,-3.8748,0.9766,0.1553,414.31,-779.36,-624.76
3210,-3.8748,0.9841,0.1594,1008.06,-123.11,-452.88
3220,-3.8748,0.9919,0.1599,1976.81,408.14,-421.57
3230,-3.8748,0.9972,0.1562,-1023.19,470.64,-499.69
3240,-3.8748,0.9993,0.1515,-351.32,1.89,-640.32
3250,-3.8748,0.9976,0.1471,-85.69,-607.48,-999.76
3260,-3.8748,0.9928,0.1448,-304.44,-1169.98,-1359.13
3270,-3.8748,0.9884,0.1461,-913.82,-1466.86,-1374.76
3280,-3.8748,0.9857,0.1493,-1476.32,-1294.98,-1046.63
3290,-3.8748,0.9846,0.1523,-1820.07,-888.73,-687.26
3300,-3.8748,0.9844,0.1558,-1960.69,-498.11,-437.26
3310,-3.8748,0.9841,0.1584,-1991.94,-60.61,-249.76
3320,-3.8748,0.9847,0.1573,1976.81,283.14,-124.69
3330,-3.8748,0.9869,0.1538,-1945.07,142.52,-62.19
3340,-3.8748,0.9899,0.1509,-1663.82,-310.61,-249.76
3350,-3.8748,0.9912,0.1494,-1288.82,-685.61,-562.26
3360,-3.8748,0.9902,0.1497,-1116.94,-873.11,-874.76
3370,-3.8748,0.9883,0.1504,-1241.94,-841.86,-1187.26
3380,-3.8748,0.9872,0.1514,-1491.94,-748.11,-1546.63
3390,-3.8748,0.9865,0.1523,-1632.57,-623.11,-1984.13
3400,-3.8748,0.9845,0.1530,-1726.32,-498.11,1828.37
3410,-3.8748,0.9823,0.1537,-1976.32,-419.98,1875.24
3420,-3.8748,0.9810,0.1539,1742.43,-326.23,1734.62
3430,-3.8748,0.9805,0.1544,1570.56,-294.98,1468.99
3440,-3.8748,0.9814,0.1583,1508.06,-232.48,1218.99
3450,-3.8748,0.9844,0.1654,1633.06,267.52,1281.56
3460,-3.8748,0.9860,0.1703,-1991.94,1173.77,1812.81
3470,-3.8748,0.9840,0.1678,-1788.82,1798.77,-1609.07
3480,-3.8748,0.9805,0.1587,1961.18,1486.27,-1437.19
3490,-3.8748,0.9767,0.1490,1508.06,314.39,-1624.69
3500,-3.8748,0.9725,0.1470,1023.68,-919.98,-1890.38
3510,-3.8748,0.9701,0.1559,492.43,-1185.61,-1796.63
3520,-3.8748,0.9700,0.1696,179.93,-44.98,-1109.13
3530,-3.8748,0.9725,0.1774,164.31,1705.02,-140.32
3540,-3.8746,0.9780,0.1747,492.43,-1294.98,406.56
3550,-3.8746,0.9832,0.1653,1195.56,-1638.73,250.31
3560,-3.8748,0.9850,0.1576,1851.81,1158.14,-280.94
3570,-3.8748,0.9843,0.1592,-1913.82,173.77,-827.82
3580,-3.8748,0.9835,0.1691,1992.43,376.89,-937.19
3590,-3.8748,0.9827,0.1791,1898.68,1642.52,-343.44
3600,-3.8746,0.9807,0.1821,1789.31,-1076.23,515.93
3610,-3.8746,0.9781,0.1769,1539.31,-685.61,906.56
3620,-3.8746,0.9746,0.1675,1211.18,-1357.48,672.18
3630,-3.8746,0.9695,0.1588,758.06,1439.39,94.06
3640,-3.8748,0.9656,0.1556,101.81,330.02,-312.19
3650,-3.8748,0.9645,0.1589,-398.19,-76.29,-499.76
3660,-3.8748,0.9666,0.1652,-538.82,345.58,-484.07
3670,-3.8748,0.9725,0.1687,-273.19,1142.46,-249.69
3680,-3.8748,0.9795,0.1665,492.43,1595.64,-15.32
3690,-3.8746,0.9836,0.1658,1383.06,1314.39,203.43
3700,-3.8746,0.9878,0.1750,1914.31,1220.64,406.56
3710,-3.8746,0.9932,0.1906,-1554.44,-1591.86,859.68
3720,-3.8746,0.9990,0.2009,-866.94,392.52,1703.49
3730,-3.8746,1.0040,0.2004,-116.94,1720.64,-1671.51
3740,-3.8746,1.0095,0.1912,523.68,1658.20,-1749.63
3750,-3.8746,1.0140,0.1793,1226.81,470.70,1719.12
3760,-3.8746,1.0115,0.1731,1804.93,-1044.92,1078.43
3770,-3.8746,1.0044,0.1761,1476.81,-1841.80,859.68
3780,-3.8746,0.9971,0.1837,570.56,-1451.17,1281.56
3790,-3.8746,0.9924,0.1881,-366.94,-482.48,1984.68
3800,-3.8746,0.9927,0.1865,-960.69,80.02,-1718.38
3810,-3.8746,0.9963,0.1824,-929.44,-123.11,1953.43
3820,-3.8746,0.9983,0.1792,-460.69,-654.36,1359.68
3830,-3.8746,0.9948,0.1781,-210.69,-1060.61,1031.56
3840,-3.8746,0.9895,0.1786,-663.82,-1201.23,969.06
3850,-3.8746,0.9861,0.1780,-1335.69,-1138.73,953.43
3860,-3.8746,0.9830,0.1746,-1773.19,-1216.86,984.68
3870,-3.8746,0.9790,0.1686,1836.18,-1654.36,953.43
3880,-3.8746,0.9755,0.1619,1320.56,1580.02,562.81
3890,-3.8748,0.9724,0.1582,867.43,720.64,-155.94
3900,-3.8748,0.9706,0.1626,476.81,251.89,-687.19
3910,-3.8748,0.9708,0.1740,242.43,814.39,-718.44
3920,-3.8748,0.9720,0.1843,273.68,-1732.48,-234.07
3930,-3.8746,0.9739,0.1873,429.93,-404.36,375.31
3940,-3.8746,0.9756,0.1819,664.31,-29.36,484.68
3950,-3.8746,0.9768,0.1727,883.06,-716.86,0.31
3960,-3.8748,0.9768,0.1658,1039.31,-1888.73,-655.94
3970,-3.8748,0.9751,0.1614,1039.31,1220.64,-1280.94
3980,-3.8748,0.9725,0.1591,820.56,658.14,-1765.32
3990,-3.8748,0.9708,0.1575,492.43,361.27,1859.68
4000,-3.8748,0.9691,0.1561,273.68,158.14,1719.06
4010,-3.8748,0.9666,0.1582,54.93,-13.73,1906.49
4020,-3.8748,0.9662,0.1628,-273.19,251.83,-1827.82
4030,-3.8748,0.9670,0.1671,-320.07,845.58,-1515.32
4040,-3.8748,0.9661,0.1694,-210.69,1392.46,-1155.94
4050,-3.8748,0.9656,0.1682,-335.69,1689.33,-812.19
4060,-3.8748,0.9662,0.1630,-398.19,1533.08,-671.57
4070,-3.8748,0.9667,0.1566,-320.07,861.21,-812.19
4080,-3.8748,0.9673,0.1521,-257.57,48.71,-1155.94
4090,-3.8748,0.9686,0.1516,-179.44,-529.42,-1484.13
4100,-3.8748,0.9717,0.1566,-7.57,-591.92,-1562.26
4110,-3.8748,0.9780,0.1660,383.06,48.77,-1468.44
4120,-3.8748,0.9857,0.1755,1195.56,1251.89,-1265.32
4130,-3.8748,0.9919,0.1797,-1820.07,-1529.36,-1062.19
4140,-3.8748,0.9966,0.1765,-1023.19,-998.11,-1140.32
4150,-3.8748,0.9988,0.1709,-429.44,-1404.36,-1484.07
4160,-3.8748,0.9968,0.1674,-148.19,1876.89,-1702.82
4170,-3.8748,0.9928,0.1670,-398.19,1423.77,-1562.19
4180,-3.8748,0.9894,0.1683,-913.82,1376.89,-1218.44
4190,-3.8748,0.9865,0.1676,-1351.32,1548.77,-765.32
4200,-3.8748,0.9821,0.1636,-1726.32,1455.02,-421.57
4210,-3.8748,0.9767,0.1587,1711.18,939.39,-327.82
4220,-3.8748,0.9727,0.1559,1023.68,314.39,-390.32
4230,-3.8748,0.9716,0.1569,508.06,-44.98,-452.88
4240,-3.8748,0.9744,0.1630,367.43,80.02,-390.32
4250,-3.8748,0.9800,0.1720,726.81,861.27,-234.07
4260,-3.8746,0.9862,0.1787,1445.56,-1982.48,109.68
4270,-3.8746,0.9912,0.1801,-1757.57,-1123.11,719.06
4280,-3.8746,0.9937,0.1774,-1116.94,-951.23,1187.81
4290,-3.8746,0.9921,0.1746,-804.44,-1294.98,1187.81
4300,-3.8746,0.9860,0.1737,-1007.57,-1654.36,1062.81
4310,-3.8746,0.9806,0.1743,-1788.82,-1763.73,1047.18
4320,-3.8746,0.9780,0.1747,1523.68,-1685.61,984.68
4330,-3.8746,0.9764,0.1758,1195.56,-1638.73,734.68
4340,-3.8746,0.9761,0.1775,992.43,-1498.11,406.56
4350,-3.8746,0.9772,0.1783,945.56,-1279.36,172.18
4360,-3.8746,0.9783,0.1785,1086.18,-1169.98,47.18
4370,-3.8746,0.9780,0.1791,1226.81,-1154.36,15.93
4380,-3.8748,0.9752,0.1783,1195.56,-1076.23,-62.19
4390,-3.8748,0.9702,0.1747,836.18,-1169.98,-140.32
4400,-3.8748,0.9672,0.1715,195.56,-1638.73,-140.32
4410,-3.8748,0.9683,0.1711,-195.07,1954.96,-296.57
4420,-3.8748,0.9714,0.1724,-54.44,1908.08,-468.44
4430,-3.8748,0.9747,0.1736,351.81,-1935.61,-280.94
4440,-3.8746,0.9791,0.1750,773.68,-1779.36,94.06
4450,-3.8746,0.9839,0.1759,1336.18,-1591.86,250.31
4460,-3.8746,0.9857,0.1754,1945.56,-1482.48,234.68
4470,-3.8746,0.9847,0.1749,-1820.07,-1544.98,203.43
4480,-3.8746,0.9835,0.1761,-1945.07,-1607.48,203.43
4490,-3.8746,0.9838,0.1791,1898.68,-1451.23,328.43
4500,-3.8746,0.9849,0.1805,1929.93,-1076.23,594.06
4510,-3.8746,0.9865,0.1791,-1929.44,-888.73,750.31
4520,-3.8746,0.9883,0.1775,-1726.32,-1076.23,625.31
4530,-3.8746,0.9889,0.1797,-1491.94,-1279.36,359.68
4540,-3.8746,0.9890,0.1852,-1413.82,-998.11,219.06
4550,-3.8746,0.9897,0.1890,-1398.19,-294.98,265.93
4560,-3.8746,0.9889,0.1858,-1304.44,189.39,390.99
4570,-3.8746,0.9857,0.1766,-1413.82,-216.86,265.93
4580,-3.8748,0.9821,0.1656,-1820.07,-1388.73,-280.94
4590,-3.8748,0.9780,0.1575,1711.18,1205.02,-952.82
4600,-3.8748,0.9727,0.1580,1195.56,158.14,-1312.19
4610,-3.8748,0.9675,0.1649,508.06,220.64,-984.07
4620,-3.8748,0.9656,0.1697,-148.19,1111.21,-249.69
4630,-3.8746,0.9670,0.1676,-398.19,1720.58,109.68
4640,-3.8748,0.9701,0.1628,-210.69,1454.96,-62.19
4650,-3.8748,0.9740,0.1628,179.93,845.64,-359.07
4660,-3.8748,0.9791,0.1702,679.93,845.64,-452.82
4670,-3.8748,0.9846,0.1796,1336.18,1783.14,-234.07
4680,-3.8748,0.9886,0.1831,-1960.69,-1013.73,-30.94
4690,-3.8748,0.9911,0.1779,-1445.07,-560.61,-265.32
4700,-3.8748,0.9912,0.1689,-1132.57,-1232.48,-905.94
4710,-3.8748,0.9901,0.1649,-1116.94,1626.89,-1624.69
4720,-3.8748,0.9889,0.1678,-1257.57,1111.27,-1999.69
4730,-3.8748,0.9882,0.1748,-1413.82,1486.27,-1780.94
4740,-3.8748,0.9875,0.1776,-1507.57,-1623.11,-1405.94
4750,-3.8748,0.9861,0.1724,-1585.69,-1263.73,-1218.44
4760,-3.8748,0.9845,0.1644,-1773.19,-1935.61,-1437.19
4770,-3.8748,0.9841,0.1615,-1976.32,1048.77,-1937.19
4780,-3.8748,0.9868,0.1663,1976.81,673.77,1812.81
4790,-3.8748,0.9911,0.1738,-1679.44,1283.14,-1952.82
4800,-3.8748,0.9928,0.1774,-1132.57,-1748.11,-1437.19
4810,-3.8748,0.9894,0.1746,-913.82,-1294.98,-874.69
4820,-3.8748,0.9808,0.1677,-1351.32,-1654.36,-562.19
4830,-3.8748,0.9725,0.1617,1554.93,1470.64,-749.69
4840,-3.8748,0.9686,0.1620,492.43,705.02,-1234.07
4850,-3.8748,0.9679,0.1674,-7.57,736.21,-1374.69
4860,-3.8748,0.9708,0.1699,-101.32,1423.71,-1093.44
4870,-3.8748,0.9764,0.1674,273.68,1751.89,-968.44
4880,-3.8748,0.9805,0.1654,992.43,1423.77,-1093.44
4890,-3.8748,0.9827,0.1670,1508.06,1173.77,-1124.69
4900,-3.8748,0.9833,0.1696,1789.31,1376.89,-859.07
4910,-3.8748,0.9825,0.1705,1867.43,1705.02,-343.44
4920,-3.8746,0.9803,0.1704,1773.68,1830.02,47.18
4930,-3.8746,0.9773,0.1697,1492.43,1814.39,140.93
4940,-3.8746,0.9755,0.1692,1101.81,1720.64,31.56
4950,-3.8748,0.9744,0.1709,867.43,1658.14,-187.19
4960,-3.8748,0.9745,0.1744,726.81,1876.89,-296.57
4970,-3.8748,0.9775,0.1774,742.43,-1669.98,-171.57
4980,-3.8746,0.9813,0.1783,1133.06,-1294.98,47.18
4990,-3.8746,0.9835,0.1777,1617.43,-1169.98,187.81
5000,-3.8746,0.9834,0.1752,1898.68,-1248.11,297.18
5010,-3.8746,0.9816,0.1709,1883.06,-1576.23,375.31
5020,-3.8746,0.9800,0.1671,1648.68,1876.89,265.93
5030,-3.8746,0.9795,0.1647,1445.56,1392.52,31.56
5040,-3.8748,0.9781,0.1647,1383.06,1080.02,-77.82
5050,-3.8748,0.9766,0.1681,1211.18,1080.02,-93.44
5060,-3.8746,0.9771,0.1724,1008.06,1517.52,0.31
5070,-3.8746,0.9791,0.1738,1070.56,-1935.61,156.56
5080,-3.8748,0.9827,0.1718,1336.18,-1748.11,-15.32
5090,-3.8748,0.9869,0.1705,1789.31,1986.27,-484.07
5100,-3.8748,0.9907,0.1727,-1663.82,1830.02,-765.32
5110,-3.8748,0.9933,0.1750,-1179.44,-1888.73,-687.19
5120,-3.8748,0.9921,0.1766,-851.32,-1591.86,-421.57
5130,-3.8748,0.9869,0.1774,-1007.57,-1388.73,-140.32
5140,-3.8746,0.9817,0.1749,-1663.82,-1294.98,109.68
5150,-3.8746,0.9757,0.1691,1664.31,-1607.48,344.06
5160,-3.8746,0.9684,0.1647,898.68,1642.52,422.18
5170,-3.8746,0.9624,0.1637,-38.82,1079.96,344.06
5180,-3.8746,0.9574,0.1646,-804.44,954.96,422.18
5190,-3.8746,0.9557,0.1644,-1445.07,1064.33,484.68
5200,-3.8746,0.9608,0.1620,-1663.82,1048.71,265.93
5210,-3.8748,0.9701,0.1609,-1007.57,736.21,-265.32
5220,-3.8748,0.9808,0.1650,179.93,595.64,-827.82
5230,-3.8748,0.9915,0.1744,1554.93,1126.89,-999.69
5240,-3.8748,1.0002,0.1842,-1085.69,-1669.98,-796.57
5250,-3.8748,1.0073,0.1886,39.31,-419.92,-515.32
5260,-3.8748,1.0099,0.1869,945.56,142.58,-405.88
5270,-3.8748,1.0083,0.1830,1273.68,-76.17,-390.32
5280,-3.8748,1.0060,0.1783,1070.56,-576.17,-390.32
5290,-3.8748,1.0022,0.1747,773.68,-1169.92,-280.94
5300,-3.8748,0.9954,0.1716,289.31,-1638.67,-109.07
5310,-3.8746,0.9867,0.1677,-585.69,1970.64,187.81
5320,-3.8746,0.9785,0.1649,-1695.07,1470.64,484.68
5330,-3.8746,0.9731,0.1639,1258.06,1111.27,656.56
5340,-3.8746,0.9705,0.1639,570.56,986.27,687.81
5350,-3.8746,0.9694,0.1653,226.81,986.27,531.56
5360,-3.8746,0.9702,0.1692,86.18,1158.14,328.43
5370,-3.8746,0.9723,0.1753,195.56,1658.14,265.93
5380,-3.8746,0.9752,0.1790,461.18,-1560.61,531.56
5390,-3.8746,0.9789,0.1761,836.18,-1091.86,828.43
5400,-3.8746,0.9823,0.1693,1304.93,-1451.23,765.93
5410,-3.8746,0.9840,0.1628,1742.43,1673.77,234.68
5420,-3.8748,0.9811,0.1602,1961.18,845.64,-452.82
5430,-3.8748,0.9751,0.1631,1586.18,501.89,-796.57
5440,-3.8748,0.9709,0.1693,820.56,876.89,-593.44
5450,-3.8748,0.9683,0.1732,289.31,1673.77,-109.07
5460,-3.8746,0.9657,0.1731,-54.44,-1826.29,406.56
5470,-3.8746,0.9666,0.1708,-382.57,-1841.92,484.68
5480,-3.8746,0.9719,0.1687,-273.19,1861.21,109.68
5490,-3.8748,0.9785,0.1699,414.31,1595.64,-296.57
5500,-3.8748,0.9843,0.1742,1258.06,1751.89,-421.57
5510,-3.8748,0.9893,0.1783,1992.43,-1701.23,-234.07
5520,-3.8748,0.9934,0.1792,-1366.94,-1169.98,-93.44
5530,-3.8748,0.9939,0.1759,-835.69,-1060.61,-218.44
5540,-3.8748,0.9897,0.1721,-773.19,-1482.48,-312.19
5550,-3.8748,0.9851,0.1703,-1304.44,-1966.86,-202.82
5560,-3.8748,0.9797,0.1692,-1898.19,1798.77,-15.32
5570,-3.8746,0.9723,0.1681,1414.31,1658.14,297.18
5580,-3.8746,0.9651,0.1666,461.18,1517.52,531.56
5590,-3.8746,0.9607,0.1642,-460.69,1329.96,562.81
5600,-3.8746,0.9598,0.1615,-1023.19,1017.46,437.81
5610,-3.8746,0.9637,0.1599,-1132.57,673.71,172.18
5620,-3.8748,0.9717,0.1611,-632.57,470.58,-46.57
5630,-3.8748,0.9796,0.1672,383.06,626.89,-77.82
5640,-3.8746,0.9855,0.1764,1398.68,1408.14,78.43
5650,-3.8746,0.9896,0.1830,-1851.32,-1419.98,265.93
5660,-3.8746,0.9908,0.1815,-1320.07,-576.23,437.81
5670,-3.8746,0.9863,0.1746,-1163.82,-763.73,515.93
5680,-3.8746,0.9799,0.1680,-1741.94,-1654.36,265.93
5690,-3.8748,0.9750,0.1641,1429.93,1501.89,-109.07
5700,-3.8748,0.9714,0.1636,804.93,1001.89,-343.44
5710,-3.8748,0.9681,0.1655,351.81,939.39,-312.19
5720,-3.8748,0.9677,0.1688,-70.07,1189.33,-93.44
5730,-3.8746,0.9746,0.1727,-132.57,1611.21,140.93
5740,-3.8746,0.9856,0.1750,758.06,-1888.73,281.56
5750,-3.8746,0.9950,0.1758,-1835.69,-1591.86,265.93
5760,-3.8746,0.9976,0.1747,-632.57,-1498.11,265.93
5770,-3.8746,0.9916,0.1727,-304.44,-1638.73,437.81
5780,-3.8746,0.9823,0.1711,-1070.07,-1888.73,609.68
5790,-3.8746,0.9757,0.1711,1742.43,1908.14,672.18
5800,-3.8746,0.9739,0.1729,898.68,1908.14,750.31
5810,-3.8746,0.9750,0.1737,664.31,-1873.11,953.43
5820,-3.8746,0.9786,0.1738,804.93,-1763.73,1047.18
5830,-3.8746,0.9838,0.1737,1273.68,-1748.11,828.43
5840,-3.8746,0.9854,0.1740,1929.93,-1763.73,531.56
5850,-3.8746,0.9822,0.1737,-1866.94,-1732.48,375.31
5860,-3.8746,0.9774,0.1722,1726.81,-1763.73,390.93
5870,-3.8746,0.9717,0.1698,1117.43,-1951.23,344.06
5880,-3.8746,0.9673,0.1674,383.06,1736.27,140.93
5890,-3.8748,0.9658,0.1656,-179.44,1423.71,-124.69
5900,-3.8748,0.9653,0.1652,-366.94,1204.96,-280.94
5910,-3.8748,0.9640,0.1663,-429.44,1142.46,-359.07
5920,-3.8748,0.9623,0.1715,-601.32,1283.08,-343.44
5930,-3.8748,0.9606,0.1794,-820.07,1954.96,-93.44
5940,-3.8746,0.9597,0.1831,-1038.82,-1029.42,359.68
5950,-3.8746,0.9612,0.1792,-1148.19,-560.67,640.93
5960,-3.8746,0.9636,0.1720,-960.69,-1060.67,375.31
5970,-3.8748,0.9664,0.1693,-648.19,-1982.54,-265.32
5980,-3.8748,0.9733,0.1742,-288.82,1673.71,-843.44
5990,-3.8748,0.9840,0.1824,586.18,-1701.23,-952.82
6000,-3.8748,0.9927,0.1875,1961.18,-654.36,-687.19
6010,-3.8748,0.9966,0.1853,-929.44,1.89,-437.13
6020,-3.8748,0.9973,0.1775,-429.44,-279.36,-546.57
6030,-3.8748,0.9940,0.1705,-335.69,-1279.36,-968.44
6040,-3.8748,0.9880,0.1700,-757.57,1830.02,-1312.19
6050,-3.8748,0.9847,0.1760,-1523.19,1767.52,-1062.19
6060,-3.8748,0.9856,0.1819,-1945.07,-1466.86,-296.57
6070,-3.8746,0.9858,0.1819,-1835.69,-716.86,469.06
6080,-3.8746,0.9845,0.1765,-1804.44,-716.86,812.81
6090,-3.8746,0.9835,0.1707,-1976.32,-1404.36,640.93
6100,-3.8746,0.9830,0.1691,1898.68,1845.64,328.43
6110,-3.8746,0.9830,0.1742,1836.18,1642.52,344.06
6120,-3.8746,0.9838,0.1823,1836.18,-1701.23,969.06
6130,-3.8746,0.9849,0.1881,1929.93,-669.98,1875.31
6140,-3.8746,0.9849,0.1860,-1929.44,80.02,-1577.76
6150,-3.8746,0.9819,0.1769,-1929.44,-185.61,-1609.07
6160,-3.8746,0.9784,0.1678,1695.56,-1357.48,1812.81
6170,-3.8746,0.9778,0.1648,1242.43,1486.27,1062.81
6180,-3.8746,0.9785,0.1687,1164.31,1095.64,672.18
6190,-3.8746,0.9796,0.1755,1258.06,1595.64,828.43
6200,-3.8746,0.9812,0.1804,1398.68,-1529.36,1250.31
6210,-3.8746,0.9823,0.1812,1601.81,-904.36,1453.43
6220,-3.8746,0.9828,0.1781,1742.43,-810.61,1250.31
6230,-3.8746,0.9829,0.1757,1804.93,-1201.23,922.18
6240,-3.8746,0.9832,0.1780,1820.56,-1513.73,656.56
6250,-3.8746,0.9847,0.1832,1851.81,-1216.86,515.93
6260,-3.8746,0.9880,0.1864,-1945.07,-544.98,609.68
6270,-3.8746,0.9902,0.1847,-1523.19,-138.73,703.43
6280,-3.8746,0.9896,0.1804,-1241.94,-357.48,672.18
6290,-3.8746,0.9873,0.1758,-1320.07,-904.36,484.68
6300,-3.8746,0.9830,0.1735,-1616.94,-1498.11,203.43
6310,-3.8746,0.9797,0.1755,1836.18,-1794.98,47.18
6320,-3.8746,0.9789,0.1794,1414.31,-1529.36,78.43
6330,-3.8746,0.9784,0.1814,1304.93,-1029.36,328.43
6340,-3.8746,0.9780,0.1803,1242.43,-779.36,656.56
6350,-3.8746,0.9785,0.1785,1195.56,-919.98,734.68
6360,-3.8746,0.9789,0.1788,1258.06,-1154.36,656.56
6370,-3.8746,0.9794,0.1812,1304.93,-1107.48,578.43
6380,-3.8746,0.9810,0.1827,1367.43,-810.61,594.06
6390,-3.8746,0.9819,0.1813,1570.56,-607.48,797.18
6400,-3.8746,0.9813,0.1763,1695.56,-794.98,797.18
6410,-3.8746,0.9791,0.1692,1617.43,-1435.61,437.81
6420,-3.8748,0.9750,0.1636,1336.18,1658.14,-77.82
6430,-3.8748,0.9698,0.1628,804.93,939.39,-499.69
6440,-3.8748,0.9653,0.1677,148.68,845.64,-609.07
6450,-3.8748,0.9637,0.1744,-429.44,1470.58,-577.82
6460,-3.8748,0.9658,0.1780,-632.57,-1670.04,-499.69
6470,-3.8748,0.9695,0.1777,-366.94,-1216.92,-577.82
6480,-3.8748,0.9744,0.1750,101.81,-1248.11,-905.94
6490,-3.8748,0.9795,0.1715,726.81,-1591.86,-1218.44
6500,-3.8748,0.9829,0.1700,1383.06,1955.02,-1390.32
6510,-3.8748,0.9834,0.1719,1820.56,1767.52,-1468.44
6520,-3.8748,0.9825,0.1752,1883.06,-1998.11,-1296.57
6530,-3.8748,0.9808,0.1758,1773.68,-1576.23,-921.57
6540,-3.8748,0.9777,0.1719,1554.93,-1498.11,-718.44
6550,-3.8748,0.9745,0.1678,1148.68,-1998.11,-718.44
6560,-3.8748,0.9714,0.1683,742.43,1486.27,-749.69
6570,-3.8748,0.9701,0.1729,351.81,1548.77,-624.69
6580,-3.8748,0.9741,0.1775,179.93,-1873.11,-437.19
6590,-3.8748,0.9818,0.1797,695.56,-1279.36,-359.07
6600,-3.8748,0.9885,0.1796,1679.93,-998.11,-390.32
6610,-3.8748,0.9934,0.1771,-1460.69,-1013.73,-468.44
6620,-3.8748,0.9944,0.1744,-835.69,-1326.23,-609.07
6630,-3.8748,0.9901,0.1735,-710.69,-1669.98,-859.07
6640,-3.8748,0.9844,0.1746,-1257.57,-1794.98,-1030.94
6650,-3.8748,0.9803,0.1772,-1991.94,-1654.36,-968.44
6660,-3.8748,0.9800,0.1797,1492.43,-1310.61,-734.07
6670,-3.8748,0.9813,0.1809,1445.56,-998.11,-546.57
6680,-3.8748,0.9821,0.1824,1617.43,-841.86,-296.57
6690,-3.8746,0.9807,0.1827,1711.18,-654.36,109.68
6700,-3.8746,0.9746,0.1799,1539.31,-607.48,609.68
6710,-3.8746,0.9647,0.1754,758.06,-966.86,953.43
6720,-3.8746,0.9552,0.1711,-507.57,-1545.04,890.93
6730,-3.8746,0.9503,0.1678,-1726.32,1908.08,625.31
6740,-3.8746,0.9540,0.1658,1648.68,1486.21,359.68
6750,-3.8746,0.9633,0.1663,-1882.57,1220.58,62.81
6760,-3.8748,0.9746,0.1722,-695.07,1283.08,-249.69
6770,-3.8748,0.9860,0.1816,758.06,-1951.23,-249.69
6780,-3.8746,0.9948,0.1892,-1788.82,-748.11,187.81
6790,-3.8746,1.0009,0.1929,-663.82,220.64,609.74
6800,-3.8746,1.0054,0.1925,117.43,689.45,750.37
6810,-3.8746,1.0084,0.1893,695.56,642.58,969.12
6820,-3.8746,1.0083,0.1835,1086.18,236.33,1297.24
6830,-3.8746,1.0037,0.1769,1070.56,-513.67,1469.06
6840,-3.8746,0.9968,0.1743,476.81,-1357.42,1578.43
6850,-3.8746,0.9933,0.1749,-398.19,-1685.61,1765.93
6860,-3.8746,0.9945,0.1764,-851.32,-1607.48,1875.31
6870,-3.8746,0.9972,0.1797,-695.07,-1419.98,1812.81
6880,-3.8746,1.0004,0.1826,-351.32,-998.11,1562.81
6890,-3.8746,1.0007,0.1837,54.93,-623.05,1390.93
6900,-3.8746,0.9969,0.1840,101.81,-482.42,1406.56
6910,-3.8746,0.9908,0.1824,-382.57,-451.23,1406.56
6920,-3.8746,0.9849,0.1780,-1163.82,-654.36,1250.31
6930,-3.8746,0.9808,0.1718,-1929.44,-1216.86,953.43
6940,-3.8746,0.9806,0.1680,1554.93,1986.27,734.68
6950,-3.8746,0.9818,0.1666,1523.68,1501.89,531.56
6960,-3.8746,0.9812,0.1659,1679.93,1330.02,297.18
6970,-3.8746,0.9789,0.1671,1601.81,1236.27,344.06
6980,-3.8746,0.9753,0.1692,1304.93,1392.52,656.56
6990,-3.8746,0.9717,0.1702,851.81,1658.14,1000.31
7000,-3.8746,0.9685,0.1697,383.06,1783.14,1109.68
7010,-3.8746,0.9675,0.1688,-23.19,1720.58,1015.93
7020,-3.8746,0.9698,0.1686,-148.19,1611.21,937.81
7030,-3.8746,0.9739,0.1697,148.68,1580.02,922.18
7040,-3.8746,0.9780,0.1735,664.31,1720.64,937.81
7050,-3.8746,0.9846,0.1794,1195.56,-1794.98,953.43
7060,-3.8746,0.9924,0.1846,-1960.69,-1029.36,844.06
7070,-3.8746,0.9963,0.1857,-960.69,-373.11,687.81
7080,-3.8746,0.9969,0.1831,-460.69,-232.48,578.43
7090,-3.8746,0.9966,0.1791,-382.57,-560.61,500.31
7100,-3.8746,0.9932,0.1755,-429.44,-1076.23,469.06
7110,-3.8746,0.9847,0.1742,-866.94,-1529.36,562.81
7120,-3.8746,0.9739,0.1750,-1945.07,-1701.23,765.93
7130,-3.8746,0.9635,0.1750,664.31,-1591.86,1234.68
7140,-3.8746,0.9552,0.1716,-663.82,-1591.92,1562.81
7150,-3.8746,0.9509,0.1663,-1726.32,1970.58,1359.68
7160,-3.8746,0.9514,0.1626,1726.81,1283.08,859.68
7170,-3.8746,0.9540,0.1630,1789.31,814.33,265.93
7180,-3.8748,0.9572,0.1649,-1882.57,861.21,-249.69
7190,-3.8748,0.9603,0.1660,-1476.32,1111.21,-546.57
7200,-3.8748,0.9637,0.1656,-1070.07,1251.83,-718.44
7210,-3.8748,0.9667,0.1648,-632.57,1204.96,-905.94
7220,-3.8748,0.9668,0.1656,-257.57,1095.58,-1187.19
7230,-3.8748,0.9674,0.1682,-241.94,1204.96,-1249.69
7240,-3.8748,0.9691,0.1689,-163.82,1533.08,-999.69
7250,-3.8748,0.9691,0.1686,54.93,1626.89,-718.44
7260,-3.8748,0.9690,0.1707,54.93,1580.02,-562.19
7270,-3.8748,0.9719,0.1749,39.31,1845.64,-280.94
7280,-3.8746,0.9750,0.1766,414.31,-1607.48,125.31
7290,-3.8746,0.9755,0.1733,804.93,-1388.73,375.31
7300,-3.8746,0.9761,0.1666,867.43,-1810.61,250.31
7310,-3.8748,0.9756,0.1598,945.56,1330.02,-265.32
7320,-3.8748,0.9720,0.1570,883.06,455.02,-718.44
7330,-3.8748,0.9691,0.1595,429.93,95.64,-812.19
7340,-3.8748,0.9692,0.1643,54.93,423.77,-702.82
7350,-3.8748,0.9723,0.1680,70.56,1033.14,-577.82
7360,-3.8748,0.9767,0.1685,461.18,1501.89,-562.19
7370,-3.8748,0.9802,0.1676,1023.68,1564.39,-671.57
7380,-3.8748,0.9823,0.1667,1476.81,1455.02,-734.07
7390,-3.8748,0.9828,0.1653,1742.43,1345.64,-624.69
7400,-3.8748,0.9818,0.1644,1804.93,1158.14,-593.44
7410,-3.8748,0.9822,0.1648,1679.93,1048.77,-593.44
7420,-3.8748,0.9857,0.1644,1726.81,1095.64,-468.44
7430,-3.8748,0.9902,0.1635,-1820.07,1048.77,-484.07
7440,-3.8748,0.9938,0.1630,-1241.94,923.77,-609.07
7450,-3.8748,0.9948,0.1646,-788.82,861.27,-593.44
7460,-3.8748,0.9926,0.1694,-663.82,1064.39,-280.94
7470,-3.8746,0.9904,0.1768,-945.07,1689.39,344.06
7480,-3.8746,0.9902,0.1819,-1226.32,-1373.11,1125.31
7490,-3.8746,0.9891,0.1797,-1241.94,-716.86,1812.81
7500,-3.8746,0.9867,0.1714,-1382.57,-998.11,-1937.19
7510,-3.8746,0.9846,0.1630,-1695.07,1939.39,1656.56
7520,-3.8746,0.9836,0.1599,-1960.69,861.27,937.81
7530,-3.8746,0.9852,0.1620,1914.31,470.64,359.68
7540,-3.8746,0.9895,0.1660,-1882.57,736.27,172.18
7550,-3.8746,0.9955,0.1699,-1335.69,1251.89,172.18
7560,-3.8746,1.0004,0.1735,-570.07,1751.89,15.93
7570,-3.8748,1.0016,0.1768,54.93,-1794.92,-124.69
7580,-3.8746,0.9998,0.1790,211.18,-1373.05,31.56
7590,-3.8746,0.9949,0.1782,-23.19,-1091.86,219.06
7600,-3.8746,0.9865,0.1749,-648.19,-1185.61,234.68
7610,-3.8746,0.9775,0.1735,-1726.32,-1607.48,250.31
7620,-3.8746,0.9733,0.1781,1133.06,-1794.98,437.81
7630,-3.8746,0.9753,0.1873,586.18,-1201.23,844.06
7640,-3.8746,0.9799,0.1915,851.81,-29.36,1078.43
7650,-3.8746,0.9810,0.1868,1429.93,517.52,1125.37
7660,-3.8746,0.9768,0.1760,1570.56,-91.86,812.81
7670,-3.8746,0.9696,0.1663,1039.31,-1466.86,62.81
7680,-3.8748,0.9623,0.1628,117.43,1283.14,-530.94
7690,-3.8748,0.9574,0.1650,-820.07,845.58,-624.69
7700,-3.8748,0.9558,0.1702,-1445.07,1126.83,-234.07
7710,-3.8746,0.9591,0.1750,-1648.19,1783.08,297.18
7720,-3.8746,0.9663,0.1766,-1226.32,-1591.92,625.31
7730,-3.8746,0.9728,0.1748,-304.44,-1388.79,594.06
7740,-3.8746,0.9771,0.1727,523.68,-1623.11,500.31
7750,-3.8746,0.9789,0.1735,1070.56,-1888.73,547.18
7760,-3.8746,0.9794,0.1752,1304.93,-1794.98,765.93
7770,-3.8746,0.9811,0.1757,1367.43,-1576.23,1000.31
7780,-3.8746,0.9856,0.1764,1586.18,-1513.73,1219.06
7790,-3.8746,0.9913,0.1766,-1835.69,-1419.98,1422.18
7800,-3.8746,0.9950,0.1754,-1101.32,-1388.73,1531.56
7810,-3.8746,0.9950,0.1743,-632.57,-1544.98,1437.81
7820,-3.8746,0.9932,0.1746,-632.57,-1685.61,1156.56
7830,-3.8746,0.9913,0.1755,-866.94,-1654.36,969.06
7840,-3.8746,0.9905,0.1757,-1101.32,-1529.36,984.68
7850,-3.8746,0.9918,0.1758,-1210.69,-1513.73,1203.43
7860,-3.8746,0.9940,0.1764,-1038.82,-1498.11,1453.43
7870,-3.8746,0.9950,0.1771,-757.57,-1419.98,1672.18
7880,-3.8746,0.9941,0.1764,-632.57,-1326.23,1922.18
7890,-3.8746,0.9911,0.1732,-741.94,-1419.98,1922.18
7900,-3.8746,0.9852,0.1688,-1132.57,-1826.23,1687.81
7910,-3.8746,0.9779,0.1676,-1882.57,1611.27,1719.06
7920,-3.8746,0.9731,0.1698,1179.93,1455.02,1906.56
7930,-3.8746,0.9724,0.1731,570.56,1736.27,1984.68
7940,-3.8746,0.9740,0.1763,476.81,-1841.86,1969.06
7950,-3.8746,0.9768,0.1779,679.93,-1435.61,1812.81
7960,-3.8746,0.9789,0.1774,1039.31,-1232.48,1719.06
7970,-3.8746,0.9784,0.1742,1304.93,-1294.98,1453.43
7980,-3.8746,0.9755,0.1704,1242.43,-1701.23,844.06
7990,-3.8746,0.9713,0.1687,867.43,1814.39,437.81
8000,-3.8746,0.9673,0.1704,336.18,1595.64,469.06
8010,-3.8746,0.9670,0.1740,-179.44,1814.33,547.18
8020,-3.8746,0.9713,0.1774,-210.69,-1732.54,547.18
8030,-3.8746,0.9757,0.1797,336.18,-1294.98,406.56
8040,-3.8746,0.9777,0.1797,898.68,-998.11,125.31
8050,-3.8748,0.9779,0.1793,1148.68,-998.11,-93.44
8060,-3.8748,0.9778,0.1775,1179.93,-1044.98,-296.57
8070,-3.8748,0.9756,0.1753,1164.31,-1279.36,-343.44
8080,-3.8748,0.9724,0.1758,883.06,-1560.61,-155.94
8090,-3.8746,0.9713,0.1766,476.81,-1498.11,250.31
8100,-3.8746,0.9708,0.1763,336.18,-1388.73,734.68
8110,-3.8746,0.9692,0.1735,273.68,-1435.61,1015.93
8120,-3.8746,0.9681,0.1683,70.56,-1794.98,1015.93
8130,-3.8746,0.9678,0.1644,-70.07,1548.71,812.81
8140,-3.8746,0.9688,0.1628,-116.94,1048.71,578.43
8150,-3.8746,0.9709,0.1628,8.06,845.64,484.68
8160,-3.8746,0.9741,0.1652,289.31,845.64,484.68
8170,-3.8746,0.9777,0.1697,695.56,1142.52,594.06
8180,-3.8746,0.9803,0.1738,1148.68,1720.64,734.68
8190,-3.8746,0.9813,0.1758,1492.43,-1748.11,906.56
8200,-3.8746,0.9821,0.1766,1617.43,-1498.11,984.68
8210,-3.8746,0.9833,0.1775,1711.18,-1388.73,922.18
8220,-3.8746,0.9843,0.1776,1867.43,-1279.36,937.81
8230,-3.8746,0.9847,0.1757,1992.43,-1263.73,1125.31
8240,-3.8746,0.9838,0.1718,-1945.07,-1513.73,1328.43
8250,-3.8746,0.9807,0.1667,1929.93,1986.27,1328.43
8260,-3.8746,0.9775,0.1627,1539.31,1345.64,1219.06
8270,-3.8746,0.9769,0.1622,1133.06,830.02,1062.81
8280,-3.8746,0.9812,0.1649,1054.93,767.52,812.81
8290,-3.8746,0.9891,0.1688,1601.81,1111.27,719.06
8300,-3.8746,0.9961,0.1721,-1382.57,1611.27,922.18
8310,-3.8746,1.0012,0.1765,-491.94,-1966.86,1312.81
8320,-3.8746,1.0051,0.1826,164.31,-1404.30,1781.56
8330,-3.8746,1.0073,0.1885,664.31,-623.05,-1624.69
8340,-3.8746,1.0071,0.1909,945.56,126.95,-921.51
8350,-3.8746,1.0021,0.1854,914.31,439.45,-374.63
8360,-3.8746,0.9930,0.1730,273.68,-263.67,-265.32
8370,-3.8746,0.9833,0.1597,-882.57,-1857.48,-765.32
8380,-3.8746,0.9741,0.1516,1867.43,439.39,-1624.69
8390,-3.8746,0.9672,0.1511,695.56,-591.86,1578.37
8400,-3.8746,0.9642,0.1578,-195.07,-654.42,1218.99
8410,-3.8746,0.9661,0.1682,-570.07,204.96,1328.43
8420,-3.8746,0.9718,0.1755,-335.69,1533.08,1625.31
8430,-3.8746,0.9785,0.1774,398.68,-1529.36,1765.93
8440,-3.8746,0.9828,0.1755,1258.06,-1294.98,1578.43
8450,-3.8746,0.9833,0.1716,1804.93,-1529.36,1125.31
8460,-3.8746,0.9808,0.1661,1867.43,1970.64,609.68
8470,-3.8746,0.9771,0.1625,1554.93,1267.52,234.68
8480,-3.8746,0.9736,0.1632,1070.56,798.77,94.06
8490,-3.8746,0.9701,0.1644,633.06,892.52,78.43
8500,-3.8748,0.9663,0.1635,179.93,1048.77,-30.94
8510,-3.8748,0.9631,0.1624,-304.44,923.71,-62.19
8520,-3.8746,0.9619,0.1631,-710.69,783.08,156.56
8530,-3.8746,0.9633,0.1649,-866.94,876.83,406.56
8540,-3.8746,0.9669,0.1672,-695.07,1111.21,562.81
8550,-3.8746,0.9716,0.1683,-226.32,1408.08,797.18
8560,-3.8746,0.9761,0.1660,367.43,1548.77,1031.56
8570,-3.8746,0.9792,0.1611,945.56,1251.89,1062.81
8580,-3.8746,0.9807,0.1581,1351.81,626.89,1015.93
8590,-3.8746,0.9821,0.1619,1539.31,236.27,1047.18
8600,-3.8746,0.9844,0.1696,1711.18,720.64,1359.68
8610,-3.8746,0.9862,0.1758,-1991.94,1705.02,1828.43
8620,-3.8746,0.9856,0.1776,-1757.57,-1498.11,-1921.57
8630,-3.8746,0.9828,0.1741,-1835.69,-1263.73,-1921.57
8640,-3.8746,0.9796,0.1683,1804.93,-1716.86,1859.68
8650,-3.8746,0.9768,0.1635,1398.68,1548.77,1281.56
8660,-3.8746,0.9724,0.1608,1039.31,923.77,719.06
8670,-3.8746,0.9691,0.1604,476.81,580.02,625.31
8680,-3.8746,0.9685,0.1599,54.93,533.14,625.31
8690,-3.8746,0.9685,0.1580,-23.19,470.58,531.56
8700,-3.8746,0.9714,0.1561,-23.19,220.58,250.31
8710,-3.8748,0.9764,0.1562,351.81,-13.73,-77.88
8720,-3.8748,0.9806,0.1604,992.43,1.89,-155.94
8730,-3.8748,0.9833,0.1654,1523.68,533.14,-62.19
8740,-3.8746,0.9838,0.1689,1867.43,1173.77,140.93
8750,-3.8746,0.9822,0.1720,1929.93,1626.89,515.93
8760,-3.8746,0.9816,0.1740,1726.81,-1982.48,969.06
8770,-3.8746,0.9827,0.1736,1648.68,-1732.48,1328.43
8780,-3.8746,0.9830,0.1698,1789.31,-1779.36,1453.43
8790,-3.8746,0.9811,0.1632,1836.18,1736.27,1297.18
8800,-3.8746,0.9780,0.1578,1586.18,892.52,1062.81
8810,-3.8746,0.9751,0.1562,1195.56,205.02,828.43
8820,-3.8746,0.9735,0.1584,820.56,1.89,609.68
8830,-3.8746,0.9747,0.1626,617.43,283.14,547.18
8840,-3.8746,0.9791,0.1656,773.68,814.39,672.18
8850,-3.8746,0.9836,0.1653,1336.18,1205.02,625.31
8860,-3.8746,0.9861,0.1627,1914.31,1158.14,375.31
8870,-3.8746,0.9860,0.1605,-1773.19,830.02,62.81
8880,-3.8748,0.9843,0.1608,-1788.82,548.77,-93.44
8890,-3.8746,0.9818,0.1625,1992.43,580.02,0.31
8900,-3.8746,0.9794,0.1636,1679.93,798.77,172.18
8910,-3.8746,0.9785,0.1628,1367.43,939.39,422.18
8920,-3.8746,0.9788,0.1604,1258.06,845.64,578.43
8930,-3.8746,0.9781,0.1587,1289.31,533.14,672.18
8940,-3.8746,0.9773,0.1600,1211.18,314.39,719.06
8950,-3.8746,0.9767,0.1627,1101.81,486.27,734.68
8960,-3.8746,0.9760,0.1647,1023.68,830.02,906.56
8970,-3.8746,0.9756,0.1644,929.93,1080.02,1109.68
8980,-3.8746,0.9755,0.1636,883.06,1048.77,953.43
8990,-3.8746,0.9783,0.1646,867.43,939.39,531.56
9000,-3.8746,0.9847,0.1653,1226.81,1064.39,172.18
9010,-3.8746,0.9918,0.1647,-1945.07,1158.14,31.56
9020,-3.8748,0.9980,0.1653,-1038.82,1080.02,-15.32
9030,-3.8748,1.0028,0.1675,-241.94,1158.14,-62.19
9040,-3.8748,1.0057,0.1691,367.43,1439.45,-77.82
9050,-3.8748,1.0065,0.1682,742.43,1642.58,-62.19
9060,-3.8748,1.0035,0.1650,836.18,1533.20,-202.82
9070,-3.8748,0.9976,0.1614,461.18,1126.95,-421.57
9080,-3.8748,0.9919,0.1609,-304.44,658.14,-405.94
9090,-3.8746,0.9875,0.1644,-1023.19,595.64,0.31
9100,-3.8746,0.9836,0.1693,-1585.69,1048.77,719.06
9110,-3.8746,0.9823,0.1705,1914.31,1673.77,1328.43
9120,-3.8746,0.9829,0.1648,1742.43,1830.02,1609.68
9130,-3.8746,0.9816,0.1562,1820.56,1095.64,1437.81
9140,-3.8746,0.9777,0.1521,1648.68,1.89,906.56
9150,-3.8746,0.9746,0.1555,1148.68,-529.36,453.37
9160,-3.8746,0.9730,0.1632,758.06,-91.86,312.74
9170,-3.8746,0.9724,0.1693,554.93,892.52,609.68
9180,-3.8746,0.9736,0.1703,476.81,1673.77,984.68
9190,-3.8746,0.9755,0.1659,633.06,1798.77,906.56
9200,-3.8746,0.9757,0.1605,867.43,1236.27,453.43
9210,-3.8746,0.9752,0.1594,898.68,548.77,31.56
9220,-3.8748,0.9758,0.1633,836.18,408.14,-62.19
9230,-3.8746,0.9769,0.1670,914.31,908.14,31.56
9240,-3.8746,0.9762,0.1667,1054.93,1376.89,109.68
9250,-3.8746,0.9753,0.1637,961.18,1345.64,31.56
9260,-3.8748,0.9775,0.1616,851.81,955.02,-171.57
9270,-3.8748,0.9821,0.1631,1133.06,689.39,-327.82
9280,-3.8748,0.9862,0.1677,1711.18,876.89,-296.57
9290,-3.8748,0.9882,0.1714,-1757.57,1470.64,-62.19
9300,-3.8746,0.9871,0.1709,-1507.57,1939.39,172.18
9310,-3.8746,0.9830,0.1667,-1648.19,1876.89,281.56
9320,-3.8746,0.9794,0.1637,1836.18,1345.64,469.06
9330,-3.8746,0.9778,0.1636,1367.43,955.02,656.56
9340,-3.8746,0.9768,0.1654,1164.31,939.39,875.31
9350,-3.8746,0.9775,0.1683,1039.31,1173.77,1187.81
9360,-3.8746,0.9796,0.1694,1133.06,1548.77,1297.18
9370,-3.8746,0.9791,0.1688,1398.68,1689.39,1359.68
9380,-3.8746,0.9777,0.1669,1336.18,1611.27,1406.56
9390,-3.8746,0.9775,0.1647,1148.68,1361.27,1312.81
9400,-3.8746,0.9785,0.1630,1133.06,1080.02,1062.81
9410,-3.8746,0.9803,0.1625,1258.06,861.27,703.43
9420,-3.8746,0.9845,0.1643,1492.43,798.77,375.31
9430,-3.8746,0.9893,0.1666,-1976.32,1033.14,265.93
9440,-3.8746,0.9927,0.1700,-1366.94,1330.02,359.68
9450,-3.8746,0.9934,0.1724,-929.44,1767.52,422.18
9460,-3.8746,0.9907,0.1724,-835.69,-1935.61,515.93
9470,-3.8746,0.9869,0.1715,-1179.44,-1935.61,640.93
9480,-3.8746,0.9843,0.1692,-1663.82,1955.02,734.68
9490,-3.8746,0.9822,0.1656,1992.43,1658.14,844.06
9500,-3.8746,0.9790,0.1630,1726.81,1205.02,890.93
9510,-3.8746,0.9747,0.1616,1320.56,861.27,1094.06
9520,-3.8746,0.9708,0.1611,773.68,689.39,1359.68
9530,-3.8746,0.9681,0.1616,273.68,626.89,1562.81
9540,-3.8746,0.9678,0.1637,-70.07,689.33,1859.68
9550,-3.8746,0.9706,0.1659,-116.94,954.96,-1890.32
9560,-3.8746,0.9749,0.1665,242.43,1236.27,-1905.94
9570,-3.8746,0.9781,0.1659,789.31,1314.39,1922.18
9580,-3.8746,0.9807,0.1664,1211.18,1236.27,1781.56
9590,-3.8746,0.9823,0.1685,1539.31,1298.77,1734.68
9600,-3.8746,0.9828,0.1709,1742.43,1564.39,1765.93
9610,-3.8746,0.9843,0.1716,1804.93,1876.89,1750.31
9620,-3.8746,0.9858,0.1720,1992.43,1970.64,1547.18
9630,-3.8746,0.9855,0.1730,-1804.44,-1982.48,1140.93
9640,-3.8746,0.9838,0.1726,-1851.32,-1857.48,828.43
9650,-3.8746,0.9814,0.1713,1929.93,-1904.36,687.81
9660,-3.8746,0.9761,0.1704,1633.06,1923.77,609.68
9670,-3.8746,0.9690,0.1699,945.56,1814.39,609.68
9680,-3.8746,0.9644,0.1694,39.31,1751.89,703.43
9690,-3.8746,0.9625,0.1672,-554.44,1689.33,734.68
9700,-3.8746,0.9619,0.1636,-788.82,1408.08,609.68
9710,-3.8746,0.9631,0.1614,-866.94,939.33,344.06
9720,-3.8748,0.9661,0.1609,-710.69,658.08,-15.32
9730,-3.8748,0.9695,0.1595,-335.69,595.58,-390.32
9740,-3.8748,0.9735,0.1587,101.81,423.77,-624.69
9750,-3.8748,0.9791,0.1602,617.43,314.39,-765.32
9760,-3.8748,0.9862,0.1642,1336.18,501.89,-702.82
9770,-3.8748,0.9927,0.1710,-1757.57,1017.52,-421.57
9780,-3.8748,0.9980,0.1770,-929.44,1892.52,-109.07
9790,-3.8746,1.0013,0.1761,-241.94,-1341.86,156.56
9800,-3.8746,1.0011,0.1710,179.93,-1451.17,234.68
9810,-3.8746,0.9998,0.1683,148.68,1892.58,250.31
9820,-3.8746,0.9967,0.1680,-23.19,1548.77,422.18
9830,-3.8746,0.9915,0.1686,-413.82,1501.89,672.18
9840,-3.8746,0.9875,0.1676,-1085.69,1580.02,828.43
9850,-3.8746,0.9866,0.1638,-1585.69,1455.02,859.68
9860,-3.8746,0.9872,0.1605,-1710.69,970.64,672.18
9870,-3.8746,0.9877,0.1605,-1632.57,548.77,453.43
9880,-3.8746,0.9855,0.1624,-1570.07,548.77,375.31
9890,-3.8746,0.9805,0.1626,-1851.32,783.14,453.43
9900,-3.8746,0.9769,0.1591,1508.06,814.39,515.93
9910,-3.8746,0.9771,0.1548,1054.93,361.27,515.93
9920,-3.8746,0.9797,0.1560,1070.56,-185.61,422.12
9930,-3.8746,0.9832,0.1639,1414.31,-29.36,390.87
9940,-3.8746,0.9865,0.1744,1851.81,986.27,734.68
9950,-3.8746,0.9891,0.1814,-1726.32,-1669.98,1344.06
9960,-3.8746,0.9897,0.1812,-1382.57,-779.36,1750.31
9970,-3.8746,0.9875,0.1750,-1304.44,-810.61,1844.06
9980,-3.8746,0.9825,0.1685,-1585.69,-1591.86,1531.56
9990,-3.8746,0.9771,0.1655,1773.68,1564.39,1062.81
10000,-3.8746,0.9733,0.1649,1070.56,1189.39,812.81
10010,-3.8746,0.9722,0.1650,586.18,1111.27,844.06
10020,-3.8746,0.9755,0.1664,445.56,1126.89,859.68
10030,-3.8746,0.9813,0.1671,867.43,1298.77,922.18
10040,-3.8746,0.9850,0.1669,1617.43,1392.52,1125.31
10050,-3.8746,0.9855,0.1676,-1913.82,1361.27,1203.43
10060,-3.8746,0.9834,0.1683,-1851.32,1455.02,1140.93
10070,-3.8746,0.9786,0.1675,1883.06,1548.77,1047.18
10080,-3.8746,0.9745,0.1656,1273.68,1439.39,890.93
10090,-3.8746,0.9738,0.1636,742.43,1205.02,609.68
10100,-3.8746,0.9753,0.1628,648.68,939.39,406.56
10110,-3.8746,0.9773,0.1638,851.81,845.64,281.56
10120,-3.8746,0.9803,0.1663,1101.81,970.64,250.31
10130,-3.8746,0.9827,0.1687,1492.43,1283.14,359.68
10140,-3.8746,0.9828,0.1687,1789.31,1595.64,609.68
10150,-3.8746,0.9822,0.1666,1804.93,1595.64,875.31
10160,-3.8746,0.9810,0.1650,1726.81,1330.02,969.06
10170,-3.8746,0.9794,0.1658,1570.56,1126.89,844.06
10180,-3.8746,0.9788,0.1666,1367.43,1220.64,594.06
10190,-3.8746,0.9783,0.1667,1289.31,1330.02,359.68
10200,-3.8746,0.9775,0.1665,1226.81,1345.64,203.43
10210,-3.8748,0.9769,0.1656,1133.06,1314.39,-62.19
10220,-3.8748,0.9760,0.1650,1054.93,1205.02,-202.82
10230,-3.8748,0.9758,0.1664,929.93,1126.89,-62.19
10240,-3.8746,0.9781,0.1693,914.31,1298.77,94.06
10250,-3.8746,0.9803,0.1730,1211.18,1673.77,375.31
10260,-3.8746,0.9818,0.1744,1492.43,-1857.48,687.81
10270,-3.8746,0.9827,0.1711,1679.93,-1669.98,719.06
10280,-3.8746,0.9819,0.1677,1789.31,1908.14,750.31
10290,-3.8746,0.9803,0.1669,1695.56,1470.64,1000.31
10300,-3.8746,0.9781,0.1671,1492.43,1361.27,1359.68
10310,-3.8746,0.9760,0.1681,1211.18,1392.52,1562.81
10320,-3.8746,0.9736,0.1687,929.93,1517.52,1578.43
10330,-3.8746,0.9708,0.1686,633.06,1595.64,1640.93
10340,-3.8746,0.9684,0.1691,273.68,1580.02,1640.93
10350,-3.8746,0.9689,0.1711,-38.82,1642.46,1625.31
10360,-3.8746,0.9730,0.1733,23.68,1908.14,1687.81
10370,-3.8746,0.9779,0.1744,554.93,-1810.61,1656.56
10380,-3.8746,0.9821,0.1738,1179.93,-1669.98,1406.56
10390,-3.8746,0.9851,0.1719,1711.18,-1748.11,1031.56
10400,-3.8746,0.9852,0.1700,-1898.19,-1998.11,750.31
10410,-3.8746,0.9828,0.1691,-1882.57,1767.52,672.18
10420,-3.8746,0.9781,0.1696,1804.93,1642.52,859.68
10430,-3.8746,0.9716,0.1719,1211.18,1705.02,1312.81
10440,-3.8746,0.9667,0.1743,367.43,-1998.11,1812.81
10450,-3.8746,0.9656,0.1749,-257.57,-1685.67,-1890.32
10460,-3.8746,0.9663,0.1732,-398.19,-1607.54,-1905.94
10470,-3.8746,0.9685,0.1707,-304.44,-1826.29,1781.56
10480,-3.8746,0.9728,0.1713,-23.19,1845.58,1375.31
10490,-3.8746,0.9781,0.1752,523.68,1923.77,1062.81
10500,-3.8746,0.9833,0.1796,1211.18,-1576.23,1109.68
10510,-3.8746,0.9886,0.1816,1867.43,-1013.73,1406.56
10520,-3.8746,0.9932,0.1790,-1445.07,-748.11,1375.31
10530,-3.8746,0.9933,0.1733,-866.94,-1091.86,1109.68
10540,-3.8746,0.9878,0.1698,-851.32,-1810.61,922.18
10550,-3.8746,0.9813,0.1714,-1554.44,1736.27,969.06
10560,-3.8746,0.9792,0.1783,1617.43,1939.39,1265.93
10570,-3.8746,0.9830,0.1862,1351.81,-1169.98,1765.93
10580,-3.8746,0.9891,0.1882,1836.18,-169.98,-1780.94
10590,-3.8746,0.9930,0.1843,-1382.57,95.64,-1796.51
10600,-3.8746,0.9933,0.1787,-882.57,-404.36,1594.06
10610,-3.8746,0.9890,0.1736,-851.32,-1123.11,719.06
10620,-3.8746,0.9817,0.1702,-1398.19,-1779.36,203.43
10630,-3.8746,0.9729,0.1696,1664.31,1783.14,15.93
10640,-3.8748,0.9658,0.1697,539.31,1705.02,-77.82
10650,-3.8748,0.9629,0.1694,-366.94,1720.58,-46.57
10660,-3.8746,0.9620,0.1686,-741.94,1689.33,140.93
10670,-3.8746,0.9614,0.1671,-851.32,1579.96,359.68
10680,-3.8746,0.9619,0.1670,-929.44,1392.46,406.56
10690,-3.8746,0.9655,0.1704,-866.94,1376.83,312.81
10700,-3.8746,0.9722,0.1760,-413.82,1814.33,359.68
10710,-3.8746,0.9802,0.1798,445.56,-1466.86,547.18
10720,-3.8746,0.9861,0.1819,1476.81,-982.48,734.68
10730,-3.8746,0.9882,0.1842,-1773.19,-716.86,937.81
10740,-3.8746,0.9866,0.1841,-1507.57,-419.98,937.81
10750,-3.8746,0.9840,0.1809,-1710.69,-435.61,765.93
10760,-3.8746,0.9821,0.1766,1961.18,-841.86,515.93
10770,-3.8746,0.9796,0.1709,1711.18,-1388.73,125.31
10780,-3.8748,0.9763,0.1670,1398.68,1876.89,-343.44
10790,-3.8748,0.9749,0.1691,976.81,1376.89,-624.69
10800,-3.8748,0.9769,0.1742,789.31,1642.52,-640.32
10810,-3.8748,0.9818,0.1792,1054.93,-1701.23,-405.94
10820,-3.8748,0.9901,0.1823,1679.93,-1060.61,-218.44
10830,-3.8748,0.9998,0.1814,-1257.57,-669.98,-187.19
10840,-3.8748,1.0044,0.1786,-23.19,-779.36,-46.57
10850,-3.8746,1.0002,0.1768,570.56,-1138.67,203.43
10860,-3.8746,0.9919,0.1757,39.31,-1373.05,500.31
10870,-3.8746,0.9852,0.1738,-1023.19,-1513.73,797.18
10880,-3.8746,0.9813,0.1707,-1882.57,-1748.11,859.68
10890,-3.8746,0.9806,0.1660,1617.43,1845.64,578.43
10900,-3.8746,0.9819,0.1608,1523.68,1251.89,265.93
10910,-3.8746,0.9828,0.1569,1695.56,580.02,125.31
10920,-3.8748,0.9836,0.1559,1804.93,80.02,-30.94
10930,-3.8748,0.9852,0.1580,1914.31,-44.98,-218.51
10940,-3.8748,0.9863,0.1614,-1882.57,220.64,-280.94
10950,-3.8748,0.9877,0.1646,-1741.94,658.14,-93.44
10960,-3.8746,0.9899,0.1659,-1570.07,1064.39,140.93
10970,-3.8746,0.9911,0.1654,-1288.82,1236.27,125.31
10980,-3.8746,0.9913,0.1674,-1132.57,1173.77,62.81
10990,-3.8746,0.9917,0.1718,-1101.32,1423.77,156.56
11000,-3.8746,0.9922,0.1740,-1054.44,1986.27,203.43
11010,-3.8746,0.9938,0.1727,-991.94,-1732.48,234.68
11020,-3.8746,0.9958,0.1710,-788.82,-1888.73,250.31
11030,-3.8746,0.9955,0.1713,-523.19,1892.52,203.43
11040,-3.8746,0.9905,0.1733,-570.07,1923.77,234.68
11050,-3.8746,0.9834,0.1750,-1210.69,-1810.61,453.43
11060,-3.8746,0.9769,0.1740,1883.06,-1591.86,609.68
11070,-3.8746,0.9718,0.1710,1054.93,-1732.48,672.18
11080,-3.8746,0.9696,0.1686,398.68,1892.52,672.18
11090,-3.8746,0.9691,0.1692,117.43,1580.02,609.68
11100,-3.8746,0.9675,0.1737,54.93,1658.14,672.18
11110,-3.8746,0.9675,0.1771,-148.19,-1763.79,844.06
11120,-3.8746,0.9696,0.1764,-148.19,-1326.29,1203.43
11130,-3.8746,0.9725,0.1735,117.43,-1419.98,1453.43
11140,-3.8746,0.9750,0.1707,492.43,-1794.98,1312.81
11150,-3.8746,0.9744,0.1716,804.93,1845.64,1109.68
11160,-3.8746,0.9724,0.1752,726.81,1970.64,1078.43
11170,-3.8746,0.9719,0.1783,476.81,-1576.23,1250.31
11180,-3.8746,0.9728,0.1808,414.31,-1169.98,1406.56
11190,-3.8746,0.9745,0.1802,523.68,-857.48,1422.18
11200,-3.8746,0.9747,0.1781,742.43,-935.61,1422.18
11210,-3.8746,0.9744,0.1770,773.68,-1201.23,1578.43
11220,-3.8746,0.9738,0.1758,726.81,-1341.86,1812.81
11230,-3.8746,0.9697,0.1727,648.68,-1498.11,-1984.07
11240,-3.8746,0.9617,0.1674,133.06,-1888.73,-1952.82
11250,-3.8746,0.9540,0.1613,-898.19,1423.71,1797.18
11260,-3.8746,0.9512,0.1581,-1882.57,642.46,1515.93
11270,-3.8746,0.9561,0.1578,1758.06,236.21,1250.31
11280,-3.8746,0.9673,0.1577,-1616.94,204.96,1000.31
11290,-3.8746,0.9819,0.1598,-179.44,189.33,672.18
11300,-3.8746,0.9972,0.1665,1695.56,455.02,359.68
11310,-3.8746,1.0083,0.1749,-351.32,1314.39,390.93
11320,-3.8746,1.0143,0.1808,1070.56,-1607.42,828.43
11330,-3.8746,1.0165,0.1815,1836.18,-857.42,1172.18
11340,-3.8746,1.0156,0.1775,-1882.57,-763.67,1297.18
11350,-3.8746,1.0128,0.1704,-1991.94,-1279.30,1203.43
11360,-3.8746,1.0071,0.1625,1648.68,1814.45,922.18
11370,-3.8746,0.9990,0.1570,914.31,798.83,719.06
11380,-3.8746,0.9928,0.1559,-116.94,95.64,594.06
11390,-3.8746,0.9888,0.1581,-913.82,-44.98,640.87
11400,-3.8746,0.9856,0.1600,-1429.44,236.27,890.93
11410,-3.8746,0.9830,0.1592,-1835.69,486.27,1094.06
11420,-3.8746,0.9808,0.1569,1836.18,376.89,1219.06
11430,-3.8746,0.9789,0.1550,1554.93,80.02,1109.68
11440,-3.8746,0.9761,0.1561,1304.93,-154.36,937.74
11450,-3.8746,0.9740,0.1606,945.56,-13.73,922.12
11460,-3.8746,0.9756,0.1648,679.93,564.39,969.06
11470,-3.8746,0.9792,0.1643,883.06,1095.64,953.43
11480,-3.8746,0.9830,0.1619,1351.81,1033.14,797.18
11490,-3.8746,0.9868,0.1613,1836.18,720.64,484.68
11500,-3.8746,0.9869,0.1628,-1679.44,642.52,265.93
11510,-3.8746,0.9828,0.1666,-1663.82,845.64,344.06
11520,-3.8746,0.9761,0.1719,1804.93,1330.02,531.56
11530,-3.8746,0.9697,0.1746,945.56,-1998.11,844.06
11540,-3.8746,0.9655,0.1714,133.06,-1654.36,1187.81
11550,-3.8746,0.9623,0.1652,-413.82,1939.33,1344.06
11560,-3.8746,0.9608,0.1603,-820.07,1142.46,1203.43
11570,-3.8746,0.9614,0.1594,-1007.57,517.46,1015.93
11580,-3.8746,0.9635,0.1632,-929.44,408.08,1062.81
11590,-3.8746,0.9653,0.1681,-663.82,892.46,1359.68
11600,-3.8746,0.9666,0.1715,-429.44,1517.46,1719.06
11610,-3.8746,0.9678,0.1713,-273.19,1954.96,1859.68
11620,-3.8746,0.9688,0.1671,-116.94,1923.71,1719.06
11630,-3.8746,0.9685,0.1633,8.06,1392.52,1500.31
11640,-3.8746,0.9670,0.1616,-23.19,908.08,1250.31
11650,-3.8746,0.9644,0.1620,-210.69,689.33,1172.18
11660,-3.8746,0.9629,0.1650,-554.44,736.21,1265.93
11670,-3.8746,0.9670,0.1689,-741.94,1126.83,1359.68
11680,-3.8746,0.9740,0.1705,-210.69,1626.83,1531.56
11690,-3.8746,0.9806,0.1689,679.93,1830.02,1515.93
11700,-3.8746,0.9878,0.1670,1523.68,1626.89,1234.68
11710,-3.8746,0.9941,0.1681,-1554.44,1376.89,922.18
11720,-3.8746,0.9962,0.1711,-741.94,1517.52,937.81
11730,-3.8746,0.9924,0.1720,-476.32,1908.14,1406.56
11740,-3.8746,0.9850,0.1683,-960.69,-1982.48,1953.43
11750,-3.8746,0.9777,0.1619,-1913.82,1548.77,-1812.19
11760,-3.8746,0.9727,0.1588,1148.68,720.64,-1796.57
11770,-3.8746,0.9698,0.1621,508.06,330.02,-1640.32
11780,-3.8746,0.9698,0.1664,148.68,751.89,-1249.69
11790,-3.8746,0.9731,0.1660,148.68,1298.77,-921.57
11800,-3.8746,0.9778,0.1622,570.56,1251.89,-999.69
11810,-3.8746,0.9823,0.1624,1164.31,767.52,-1390.32
11820,-3.8746,0.9873,0.1692,1742.43,783.14,-1765.32
11830,-3.8746,0.9932,0.1766,-1616.94,1658.14,-1843.44
11840,-3.8746,0.9966,0.1781,-866.94,-1388.73,-1687.19
11850,-3.8746,0.9954,0.1718,-429.44,-1201.23,-1655.94
11860,-3.8746,0.9912,0.1641,-585.69,1986.27,-1890.32
11870,-3.8746,0.9857,0.1632,-1116.94,1001.89,1859.68
11880,-3.8746,0.9813,0.1692,-1820.07,892.52,1984.68
11890,-3.8746,0.9807,0.1748,1617.43,1658.14,-1499.69
11900,-3.8746,0.9816,0.1757,1539.31,-1623.11,-1062.19
11910,-3.8746,0.9822,0.1714,1648.68,-1513.73,-1046.57
11920,-3.8746,0.9810,0.1655,1726.81,1939.39,-1218.44
11930,-3.8746,0.9774,0.1635,1570.56,1189.39,-1390.32
11940,-3.8746,0.9733,0.1672,1117.43,923.77,-1390.32
11950,-3.8746,0.9690,0.1743,586.18,1408.14,-999.69
11960,-3.8746,0.9666,0.1792,39.31,-1685.61,-484.07
11970,-3.8746,0.9662,0.1776,-273.19,-1060.67,-374.69
11980,-3.8746,0.9636,0.1713,-320.07,-1263.79,-702.82
11990,-3.8746,0.9589,0.1658,-648.19,1923.71,-1171.57
12000,-3.8746,0.9539,0.1637,-1257.57,1220.58,-1530.94
12010,-3.8746,0.9496,0.1646,-1898.19,954.96,-1734.07
12020,-3.8746,0.9492,0.1664,1554.93,1064.33,-1952.82
12030,-3.8746,0.9531,0.1681,1508.06,1298.71,1625.31
12040,-3.8746,0.9604,0.1716,-1991.94,1517.46,1187.81
12050,-3.8746,0.9709,0.1770,-1054.44,1970.58,937.81
12060,-3.8746,0.9812,0.1813,289.31,-1341.86,969.06
12070,-3.8746,0.9879,0.1838,1601.81,-794.98,1187.81
12080,-3.8746,0.9917,0.1843,-1538.82,-466.86,1359.68
12090,-3.8746,0.9927,0.1825,-1054.44,-404.36,1453.43
12100,-3.8746,0.9904,0.1780,-929.44,-638.73,1422.18
12110,-3.8746,0.9847,0.1729,-1226.32,-1216.86,1219.06
12120,-3.8746,0.9778,0.1693,-1945.07,-1873.11,1094.06
12130,-3.8746,0.9733,0.1680,1164.31,1673.77,1187.81
12140,-3.8746,0.9729,0.1676,586.18,1501.89,1297.18
12150,-3.8746,0.9746,0.1669,539.31,1455.02,1281.56
12160,-3.8746,0.9777,0.1671,758.06,1361.27,1312.81
12170,-3.8746,0.9814,0.1675,1148.68,1392.52,1484.68
12180,-3.8746,0.9843,0.1678,1633.06,1439.39,1578.43
12190,-3.8746,0.9862,0.1687,1992.43,1486.27,1578.43
12200,-3.8746,0.9880,0.1685,-1757.57,1595.64,1531.56
12210,-3.8746,0.9893,0.1675,-1523.19,1564.39,1312.81
12220,-3.8746,0.9871,0.1672,-1366.94,1439.39,1062.81
12230,-3.8746,0.9833,0.1681,-1648.19,1408.14,1000.31
12240,-3.8746,0.9819,0.1678,1867.43,1517.52,1172.18
12250,-3.8746,0.9824,0.1650,1695.56,1486.27,1359.68
12260,-3.8746,0.9832,0.1633,1758.06,1126.89,1422.18
12270,-3.8746,0.9822,0.1646,1851.81,908.14,1469.06
12280,-3.8746,0.9811,0.1671,1726.81,1064.39,1656.56
12290,-3.8746,0.9819,0.1703,1586.18,1392.52,1937.81
12300,-3.8746,0.9855,0.1732,1695.56,1798.77,-1780.94
12310,-3.8746,0.9916,0.1746,-1851.32,-1826.23,-1796.57
12320,-3.8746,0.9963,0.1746,-1070.07,-1654.36,1922.18
12330,-3.8746,0.9984,0.1743,-460.69,-1654.36,1640.93
12340,-3.8746,0.9972,0.1725,-195.07,-1685.61,1390.93
12350,-3.8746,0.9917,0.1702,-351.32,-1919.98,1125.31
12360,-3.8746,0.9851,0.1704,-1054.44,1783.14,953.43
12370,-3.8746,0.9813,0.1714,-1898.19,1814.39,969.06
12380,-3.8746,0.9797,0.1698,1617.43,1939.39,1094.06
12390,-3.8746,0.9783,0.1677,1414.31,1736.27,1281.56
12400,-3.8746,0.9761,0.1671,1226.81,1470.64,1422.18
12410,-3.8746,0.9731,0.1676,945.56,1392.52,1375.31
12420,-3.8746,0.9708,0.1699,570.56,1455.02,1187.81
12430,-3.8746,0.9714,0.1718,273.68,1751.89,906.56
12440,-3.8746,0.9745,0.1697,351.81,1986.27,594.06
12450,-3.8746,0.9764,0.1659,742.43,1720.64,359.68
12460,-3.8746,0.9769,0.1656,992.43,1236.27,172.18
12470,-3.8746,0.9758,0.1703,1054.93,1205.02,219.06
12480,-3.8746,0.9735,0.1764,914.31,1798.77,547.18
12490,-3.8746,0.9728,0.1787,617.43,-1419.98,859.68
12500,-3.8746,0.9734,0.1770,523.68,-1123.11,969.06
12510,-3.8746,0.9738,0.1721,601.81,-1341.86,625.31
12520,-3.8746,0.9736,0.1654,648.68,-1966.86,109.68
12530,-3.8748,0.9707,0.1615,633.06,1173.77,-249.69
12540,-3.8748,0.9673,0.1628,258.06,673.77,-499.69
12550,-3.8748,0.9681,0.1671,-179.44,845.58,-452.82
12560,-3.8748,0.9723,0.1703,-70.07,1392.46,-109.07
12570,-3.8746,0.9767,0.1720,461.18,1798.77,187.81
12580,-3.8746,0.9803,0.1727,1023.68,-1982.48,62.81
12590,-3.8748,0.9807,0.1725,1492.43,-1888.73,-93.44
12600,-3.8748,0.9791,0.1726,1539.31,-1919.98,-15.32
12610,-3.8746,0.9791,0.1744,1336.18,-1904.36,94.06
12620,-3.8746,0.9813,0.1768,1336.18,-1669.98,250.31
12630,-3.8746,0.9850,0.1765,1617.43,-1373.11,515.93
12640,-3.8746,0.9878,0.1738,-1913.82,-1404.36,828.43
12650,-3.8746,0.9891,0.1721,-1554.44,-1748.11,984.68
12660,-3.8746,0.9890,0.1726,-1382.57,-1966.86,937.81
12670,-3.8746,0.9869,0.1742,-1398.19,-1904.36,1062.81
12680,-3.8746,0.9834,0.1752,-1663.82,-1701.23,1390.93
12690,-3.8746,0.9807,0.1755,1883.06,-1576.23,1719.06
12700,-3.8746,0.9806,0.1750,1539.31,-1529.36,1922.18
12710,-3.8746,0.9827,0.1746,1523.68,-1591.86,1922.18
12720,-3.8746,0.9852,0.1761,1789.31,-1654.36,1828.43
12730,-3.8746,0.9855,0.1777,-1882.57,-1451.23,1781.56
12740,-3.8746,0.9823,0.1766,-1851.32,-1248.11,1734.68
12750,-3.8746,0.9768,0.1736,1742.43,-1388.73,1656.56
12760,-3.8746,0.9712,0.1693,1039.31,-1779.36,1390.93
12770,-3.8746,0.9662,0.1642,320.56,1673.77,875.31
12780,-3.8746,0.9641,0.1621,-320.07,1017.46,359.68
12790,-3.8748,0.9672,0.1653,-585.69,751.83,-15.32
12800,-3.8748,0.9755,0.1711,-195.07,1158.08,-187.19
12810,-3.8748,0.9838,0.1765,867.43,1908.14,-234.07
12820,-3.8748,0.9900,0.1820,1929.93,-1404.36,-109.07
12830,-3.8746,0.9954,0.1866,-1273.19,-701.23,62.81
12840,-3.8746,0.9982,0.1870,-585.69,-107.48,281.56
12850,-3.8746,0.9978,0.1826,-226.32,-60.61,406.56
12860,-3.8746,0.9952,0.1777,-273.19,-623.11,281.56
12870,-3.8746,0.9904,0.1771,-601.32,-1248.11,203.43
12880,-3.8746,0.9835,0.1787,-1226.32,-1326.23,469.06
12890,-3.8746,0.9766,0.1783,1898.68,-1123.11,890.93
12900,-3.8746,0.9733,0.1772,1008.06,-1169.98,1109.68
12910,-3.8746,0.9739,0.1761,586.18,-1310.61,1015.93
12920,-3.8746,0.9750,0.1755,664.31,-1451.23,797.18
12930,-3.8746,0.9760,0.1752,804.93,-1529.36,609.68
12940,-3.8746,0.9774,0.1749,929.93,-1576.23,562.81
12950,-3.8746,0.9778,0.1740,1117.43,-1607.48,625.31
12960,-3.8746,0.9761,0.1718,1164.31,-1732.48,640.93
12970,-3.8746,0.9735,0.1705,945.56,1986.27,578.43
12980,-3.8746,0.9716,0.1724,617.43,1830.02,609.68
12990,-3.8746,0.9719,0.1758,367.43,-1935.61,875.31
13000,-3.8746,0.9730,0.1776,414.31,-1498.11,1156.56
13010,-3.8746,0.9742,0.1775,554.93,-1263.73,1156.56
13020,-3.8746,0.9769,0.1759,711.18,-1279.36,890.93
13030,-3.8746,0.9796,0.1754,1054.93,-1482.48,640.93
13040,-3.8746,0.9806,0.1763,1398.68,-1544.98,547.18
13050,-3.8746,0.9795,0.1769,1523.68,-1435.61,422.18
13060,-3.8746,0.9790,0.1777,1383.06,-1357.48,250.31
13070,-3.8746,0.9810,0.1780,1320.56,-1248.11,109.68
13080,-3.8748,0.9850,0.1765,1570.56,-1216.86,-109.07
13090,-3.8748,0.9891,0.1748,-1913.82,-1404.36,-249.69
13100,-3.8748,0.9906,0.1732,-1382.57,-1623.11,-265.32
13110,-3.8748,0.9899,0.1727,-1195.07,-1826.23,-109.07
13120,-3.8746,0.9882,0.1736,-1288.82,-1888.73,172.18
13130,-3.8746,0.9852,0.1748,-1507.57,-1779.36,640.93
13140,-3.8746,0.9818,0.1766,-1882.57,-1623.11,1156.56
13150,-3.8746,0.9792,0.1764,1679.93,-1388.73,1500.31
13160,-3.8746,0.9758,0.1726,1351.81,-1419.98,1531.56
13170,-3.8746,0.9728,0.1705,914.31,-1904.36,1281.56
13180,-3.8746,0.9739,0.1737,523.68,1830.02,1047.18
13190,-3.8746,0.9790,0.1790,664.31,-1763.73,890.93
13200,-3.8746,0.9855,0.1814,1320.56,-1091.86,984.68
13210,-3.8746,0.9904,0.1803,-1851.32,-779.36,1109.68
13220,-3.8746,0.9921,0.1780,-1226.32,-919.98,969.06
13230,-3.8746,0.9901,0.1759,-1007.57,-1216.86,687.81
13240,-3.8746,0.9844,0.1754,-1257.57,-1482.48,594.06
13250,-3.8746,0.9774,0.1766,-1991.94,-1544.98,765.93
13260,-3.8746,0.9709,0.1776,1117.43,-1388.73,1031.56
13270,-3.8746,0.9668,0.1769,289.31,-1263.73,1219.06
13280,-3.8746,0.9664,0.1737,-241.94,-1357.54,1125.31
13290,-3.8746,0.9697,0.1716,-288.82,-1763.79,937.81
13300,-3.8746,0.9735,0.1735,133.06,1970.64,734.68
13310,-3.8746,0.9747,0.1782,617.43,-1794.98,562.81
13320,-3.8746,0.9747,0.1832,773.68,-1185.61,656.56
13330,-3.8746,0.9761,0.1854,773.68,-544.98,828.43
13340,-3.8746,0.9777,0.1821,945.56,-263.73,828.43
13350,-3.8746,0.9763,0.1758,1148.68,-685.61,500.31
13360,-3.8746,0.9728,0.1710,976.81,-1498.11,109.68
13370,-3.8746,0.9688,0.1709,523.68,1892.52,140.93
13380,-3.8746,0.9651,0.1754,8.06,1876.89,594.06
13390,-3.8746,0.9648,0.1810,-460.69,-1545.04,1078.43
13400,-3.8746,0.9681,0.1831,-491.94,-826.29,1359.68
13410,-3.8746,0.9725,0.1810,-70.07,-560.67,1390.93
13420,-3.8746,0.9781,0.1792,492.43,-826.23,1078.43
13430,-3.8746,0.9852,0.1819,1211.18,-1060.61,734.68
13440,-3.8746,0.9912,0.1876,-1882.57,-716.86,672.18
13450,-3.8746,0.9941,0.1921,-1116.94,17.52,859.74
13460,-3.8746,0.9941,0.1914,-741.94,595.64,1000.37
13470,-3.8746,0.9906,0.1852,-741.94,501.89,953.49
13480,-3.8746,0.9849,0.1781,-1195.07,-294.98,812.81
13490,-3.8746,0.9789,0.1746,-1929.44,-1201.23,750.31
13500,-3.8746,0.9750,0.1746,1304.93,-1654.36,859.68
13510,-3.8746,0.9745,0.1758,804.93,-1654.36,1109.68
13520,-3.8746,0.9740,0.1774,742.43,-1498.11,1484.68
13530,-3.8746,0.9713,0.1779,679.93,-1294.98,1781.56
13540,-3.8746,0.9662,0.1777,336.18,-1232.48,1844.06
13550,-3.8746,0.9608,0.1764,-320.07,-1248.17,1687.81
13560,-3.8746,0.9579,0.1738,-1007.57,-1420.04,1453.43
13570,-3.8746,0.9596,0.1729,-1382.57,-1748.17,1312.81
13580,-3.8746,0.9670,0.1748,-1163.82,-1873.17,1140.93
13590,-3.8746,0.9775,0.1793,-210.69,-1623.17,1078.43
13600,-3.8746,0.9873,0.1853,1133.06,-1044.98,1140.93
13610,-3.8746,0.9943,0.1907,-1616.94,-279.36,1297.18
13620,-3.8746,0.9967,0.1934,-726.32,408.14,1594.12
13630,-3.8746,0.9952,0.1914,-413.82,751.89,1765.99
13640,-3.8746,0.9908,0.1857,-601.32,501.89,1765.99
13650,-3.8746,0.9847,0.1796,-1163.82,-232.48,1703.43
13660,-3.8746,0.9789,0.1760,-1945.07,-1013.73,1687.81
13670,-3.8746,0.9756,0.1776,1304.93,-1466.86,1750.31
13680,-3.8746,0.9771,0.1836,883.06,-1263.73,1984.68
13690,-3.8746,0.9822,0.1897,1070.56,-498.11,-1812.19
13700,-3.8746,0.9875,0.1921,1726.81,283.14,-1718.38
13710,-3.8746,0.9901,0.1901,-1585.69,595.64,-1734.01
13720,-3.8746,0.9886,0.1854,-1257.57,330.02,1906.62
13730,-3.8746,0.9838,0.1813,-1445.07,-263.73,1359.68
13740,-3.8746,0.9779,0.1796,1929.93,-794.98,1047.18
13750,-3.8746,0.9735,0.1799,1179.93,-1013.73,1109.68
13760,-3.8746,0.9709,0.1798,617.43,-966.86,1359.68
13770,-3.8746,0.9697,0.1765,289.31,-982.48,1469.06
13780,-3.8746,0.9691,0.1714,133.06,-1404.36,1406.56
13790,-3.8746,0.9688,0.1688,54.93,1939.39,1172.18
13800,-3.8746,0.9684,0.1709,8.06,1611.27,1078.43
13810,-3.8746,0.9689,0.1768,-38.82,1876.83,1422.18
13820,-3.8746,0.9709,0.1825,23.68,-1373.11,1734.68
13830,-3.8746,0.9736,0.1858,289.31,-638.73,1828.43
13840,-3.8746,0.9771,0.1869,633.06,-216.86,1781.56
13850,-3.8746,0.9813,0.1866,1070.56,-76.23,1594.06
13860,-3.8746,0.9850,0.1859,1617.43,-107.48,1297.18
13870,-3.8746,0.9858,0.1866,-1913.82,-201.23,1078.43
13880,-3.8746,0.9846,0.1884,-1804.44,-107.48,1031.56
13890,-3.8746,0.9833,0.1870,-1960.69,111.27,1031.62
13900,-3.8746,0.9818,0.1830,1867.43,-60.61,875.31
13910,-3.8746,0.9805,0.1794,1679.93,-576.23,547.18
13920,-3.8746,0.9785,0.1774,1508.06,-1029.36,250.31
13930,-3.8746,0.9763,0.1766,1258.06,-1294.98,203.43
13940,-3.8746,0.9752,0.1774,976.81,-1388.73,359.68
13950,-3.8746,0.9742,0.1791,836.18,-1294.98,515.93
13960,-3.8746,0.9735,0.1812,711.18,-1076.23,859.68
13970,-3.8746,0.9736,0.1824,617.43,-810.61,1328.43
13980,-3.8746,0.9741,0.1826,633.06,-654.36,1687.81
13990,-3.8746,0.9751,0.1830,695.56,-623.11,1765.93
14000,-3.8746,0.9772,0.1846,820.56,-576.23,1750.31
14010,-3.8746,0.9797,0.1864,1086.18,-373.11,1844.06
14020,-3.8746,0.9816,0.1873,1414.31,-138.73,1828.43
14030,-3.8746,0.9834,0.1870,1648.68,-29.36,1719.06
14040,-3.8746,0.9846,0.1871,1883.06,-60.61,1609.68
14050,-3.8746,0.9839,0.1877,-1960.69,-44.98,1515.93
14060,-3.8746,0.9812,0.1869,1945.56,33.14,1578.49
14070,-3.8746,0.9778,0.1838,1601.81,-76.23,1797.18
14080,-3.8746,0.9735,0.1794,1164.31,-466.86,1969.06
14090,-3.8746,0.9680,0.1763,617.43,-1029.36,-1859.07
14100,-3.8746,0.9650,0.1763,-85.69,-1435.67,-1734.07
14110,-3.8746,0.9683,0.1777,-476.32,-1435.67,-1609.07
14120,-3.8746,0.9749,0.1775,-54.44,-1248.17,-1452.82
14130,-3.8746,0.9796,0.1771,789.31,-1279.36,-1499.69
14140,-3.8746,0.9819,0.1775,1398.68,-1326.23,-1796.57
14150,-3.8746,0.9832,0.1780,1695.56,-1279.36,1797.18
14160,-3.8746,0.9844,0.1798,1851.81,-1216.86,1437.81
14170,-3.8746,0.9875,0.1824,-1991.94,-982.48,1172.18
14180,-3.8746,0.9927,0.1843,-1585.69,-654.36,922.18
14190,-3.8746,0.9969,0.1865,-929.44,-404.36,828.43
14200,-3.8746,0.9984,0.1885,-382.57,-123.11,1031.56
14210,-3.8746,0.9963,0.1884,-195.07,126.89,1406.62
14220,-3.8746,0.9912,0.1865,-460.69,111.27,1672.24
14230,-3.8746,0.9850,0.1824,-1116.94,-123.11,1640.93
14240,-3.8746,0.9786,0.1760,-1913.82,-654.36,1375.31
14250,-3.8746,0.9742,0.1703,1273.68,-1466.86,1140.93
14260,-3.8746,0.9742,0.1683,711.18,1798.77,922.18
14270,-3.8746,0.9761,0.1709,711.18,1548.77,703.43
14280,-3.8746,0.9774,0.1754,945.56,1876.89,797.18
14290,-3.8746,0.9779,0.1787,1117.43,-1544.98,1156.56
14300,-3.8746,0.9755,0.1812,1179.93,-1123.11,1547.18
14310,-3.8746,0.9711,0.1857,867.43,-810.61,1890.93
14320,-3.8746,0.9674,0.1896,304.93,-232.48,-1780.94
14330,-3.8746,0.9646,0.1893,-163.82,267.46,-1468.38
14340,-3.8746,0.9631,0.1858,-523.19,236.21,-1359.01
14350,-3.8746,0.9630,0.1805,-710.69,-216.92,-1515.32
14360,-3.8746,0.9614,0.1748,-726.32,-888.79,-1843.44
14370,-3.8746,0.9584,0.1714,-929.44,-1623.17,1625.31
14380,-3.8746,0.9576,0.1721,-1320.07,1939.33,1172.18
14390,-3.8746,0.9607,0.1763,-1413.82,-1966.92,922.18
14400,-3.8746,0.9674,0.1831,-1023.19,-1435.67,797.18
14410,-3.8746,0.9767,0.1892,-163.82,-560.67,719.06
14420,-3.8746,0.9832,0.1904,1023.68,220.64,703.49
14430,-3.8746,0.9852,0.1880,1851.81,376.89,719.12
14440,-3.8746,0.9852,0.1843,-1882.57,64.39,640.99
14450,-3.8746,0.9834,0.1808,-1882.57,-404.36,672.18
14460,-3.8746,0.9803,0.1790,1883.06,-857.48,984.68
14470,-3.8746,0.9788,0.1796,1492.43,-1091.86,1515.93
14480,-3.8746,0.9790,0.1821,1289.31,-1013.73,-1812.19
14490,-3.8746,0.9791,0.1838,1320.56,-685.61,-1124.69
14500,-3.8746,0.9786,0.1829,1336.18,-466.86,-609.07
14510,-3.8746,0.9777,0.1810,1273.68,-591.86,-374.69
14520,-3.8746,0.9766,0.1792,1148.68,-826.23,-437.19
14530,-3.8746,0.9747,0.1785,1008.06,-1060.61,-702.82
14540,-3.8746,0.9741,0.1793,773.68,-1154.36,-952.82
14550,-3.8746,0.9752,0.1797,695.56,-1044.98,-999.69
14560,-3.8746,0.9763,0.1794,836.18,-998.11,-827.82
14570,-3.8746,0.9771,0.1797,976.81,-1029.36,-780.94
14580,-3.8746,0.9784,0.1807,1070.56,-998.11,-968.44
14590,-3.8746,0.9813,0.1812,1242.43,-873.11,-1280.94
14600,-3.8746,0.9855,0.1809,1617.43,-810.61,-1562.19
14610,-3.8746,0.9882,0.1818,-1851.32,-841.86,-1655.94
14620,-3.8746,0.9869,0.1824,-1507.57,-732.48,-1671.57
14630,-3.8746,0.9818,0.1807,-1663.82,-654.36,-1640.32
14640,-3.8746,0.9757,0.1769,1679.93,-873.11,-1702.82
14650,-3.8746,0.9705,0.1733,898.68,-1357.48,-1843.44
14660,-3.8746,0.9670,0.1725,226.81,-1810.61,-1859.07
14670,-3.8746,0.9677,0.1741,-210.69,-1920.04,-1812.19
14680,-3.8746,0.9724,0.1780,-132.57,-1716.92,-1874.69
14690,-3.8746,0.9789,0.1827,476.81,-1216.86,1984.68
14700,-3.8746,0.9851,0.1857,1304.93,-607.48,1922.18
14710,-3.8746,0.9895,0.1846,-1898.19,-232.48,1828.43
14720,-3.8746,0.9900,0.1813,-1335.69,-373.11,1609.68
14730,-3.8746,0.9868,0.1790,-1273.19,-794.98,1375.31
14740,-3.8746,0.9810,0.1776,-1679.44,-1091.86,1359.68
14750,-3.8746,0.9730,0.1769,1570.56,-1263.73,1703.43
14760,-3.8746,0.9664,0.1761,554.93,-1357.48,-1890.32
14770,-3.8746,0.9635,0.1763,-288.82,-1451.29,-1702.82
14780,-3.8746,0.9647,0.1786,-663.82,-1435.67,-1702.82
14790,-3.8746,0.9683,0.1812,-507.57,-1138.79,-1749.69
14800,-3.8746,0.9719,0.1815,-54.44,-810.67,-1905.94
14810,-3.8746,0.9755,0.1798,414.31,-763.73,1765.93
14820,-3.8746,0.9786,0.1774,867.43,-982.48,1234.68
14830,-3.8746,0.9814,0.1776,1273.68,-1294.98,828.43
14840,-3.8746,0.9840,0.1819,1633.06,-1263.73,890.93
14850,-3.8746,0.9840,0.1837,1961.18,-716.86,1156.56
14860,-3.8746,0.9792,0.1802,1961.18,-482.48,1344.06
14870,-3.8746,0.9716,0.1746,1351.81,-935.61,1453.43
14880,-3.8746,0.9646,0.1710,367.43,-1654.36,1562.81
14890,-3.8746,0.9615,0.1725,-523.19,1892.46,1687.81
14900,-3.8746,0.9644,0.1780,-913.82,-1920.04,1937.81
14910,-3.8746,0.9714,0.1835,-554.44,-1216.92,-1624.69
14920,-3.8746,0.9785,0.1854,351.81,-513.73,-1390.32
14930,-3.8746,0.9817,0.1830,1258.06,-263.73,-1374.69
14940,-3.8746,0.9807,0.1786,1664.31,-576.23,-1484.07
14950,-3.8746,0.9783,0.1764,1539.31,-1138.73,-1765.32
14960,-3.8746,0.9753,0.1783,1226.81,-1419.98,-1874.69
14970,-3.8746,0.9731,0.1813,851.81,-1169.98,-1671.57
14980,-3.8746,0.9725,0.1820,570.56,-794.98,-1359.07
14990,-3.8746,0.9734,0.1805,492.43,-701.23,-1405.94
15000,-3.8746,0.9752,0.1776,601.81,-888.73,-1827.82
15010,-3.8746,0.9783,0.1763,836.18,-1263.73,1844.06
15020,-3.8746,0.9821,0.1794,1226.81,-1435.61,1703.43
15030,-3.8746,0.9833,0.1847,1711.18,-1029.36,1828.43
15040,-3.8746,0.9813,0.1868,1867.43,-357.48,1984.68
15050,-3.8746,0.9777,0.1846,1617.43,-91.86,-1921.57
15060,-3.8746,0.9746,0.1825,1148.68,-373.11,-1796.57
15070,-3.8746,0.9747,0.1833,758.06,-638.73,-1609.07
15080,-3.8746,0.9764,0.1854,773.68,-529.36,-1452.82
15090,-3.8746,0.9766,0.1864,992.43,-263.73,-1280.94
15100,-3.8746,0.9742,0.1851,1008.06,-138.73,-1171.57
15110,-3.8746,0.9702,0.1807,711.18,-310.61,-1155.94
15120,-3.8746,0.9655,0.1757,195.56,-873.11,-1249.69
15130,-3.8746,0.9613,0.1733,-413.82,-1513.79,-1312.19
15140,-3.8746,0.9594,0.1757,-945.07,-1810.67,-1202.82
15150,-3.8746,0.9615,0.1797,-1195.07,-1513.79,-1155.94
15160,-3.8746,0.9678,0.1833,-913.82,-998.17,-1187.19
15170,-3.8746,0.9767,0.1860,-116.94,-529.42,-1312.19
15180,-3.8746,0.9857,0.1877,1023.68,-185.61,-1655.94
15190,-3.8746,0.9929,0.1899,-1820.07,33.14,1906.62
15200,-3.8746,0.9973,0.1920,-898.19,314.39,1625.37
15210,-3.8746,0.9969,0.1926,-335.69,580.02,1547.24
15220,-3.8746,0.9939,0.1902,-382.57,658.14,1562.87
15230,-3.8746,0.9893,0.1844,-773.19,345.64,1515.99
15240,-3.8746,0.9814,0.1782,-1366.94,-388.73,1312.81
15250,-3.8746,0.9718,0.1750,1633.06,-1185.61,1125.31
15260,-3.8746,0.9631,0.1768,398.68,-1591.86,1172.18
15270,-3.8746,0.9576,0.1802,-710.69,-1373.17,1390.93
15280,-3.8746,0.9567,0.1829,-1413.82,-935.67,1609.68
15290,-3.8746,0.9595,0.1843,-1538.82,-591.92,1734.68
15300,-3.8746,0.9635,0.1832,-1179.44,-404.42,1594.06
15310,-3.8746,0.9678,0.1820,-663.82,-545.04,1265.93
15320,-3.8746,0.9722,0.1831,-116.94,-701.29,984.68
15330,-3.8746,0.9762,0.1874,445.56,-560.61,875.31
15340,-3.8746,0.9807,0.1917,961.18,-13.73,953.43
15350,-3.8746,0.9855,0.1919,1539.31,533.14,1062.87
15360,-3.8746,0.9867,0.1882,-1851.32,564.39,1031.62
15370,-3.8746,0.9834,0.1831,-1695.07,95.64,859.74
15380,-3.8746,0.9761,0.1792,1883.06,-560.61,828.43
15390,-3.8746,0.9668,0.1776,945.56,-1060.61,1000.31
15400,-3.8746,0.9602,0.1781,-241.94,-1263.79,1187.81
15410,-3.8746,0.9595,0.1783,-1085.69,-1201.29,1406.56
15420,-3.8746,0.9652,0.1777,-1179.44,-1170.04,1719.06
15430,-3.8746,0.9744,0.1781,-445.07,-1248.17,1937.81
15440,-3.8746,0.9828,0.1804,726.81,-1201.23,1875.31
15450,-3.8746,0.9886,0.1844,1804.93,-904.36,1812.81
15460,-3.8746,0.9934,0.1882,-1445.07,-388.73,1859.68
15470,-3.8746,0.9958,0.1898,-835.69,95.64,1937.87
15480,-3.8746,0.9957,0.1892,-523.19,298.77,-1984.01
15490,-3.8746,0.9948,0.1864,-538.82,220.64,1890.99
15500,-3.8746,0.9924,0.1821,-663.82,-138.73,1734.68
15510,-3.8746,0.9888,0.1794,-960.69,-685.61,1640.93
15520,-3.8746,0.9841,0.1797,-1429.44,-1029.36,1594.06
15530,-3.8746,0.9792,0.1807,1976.81,-998.11,1625.31
15540,-3.8746,0.9746,0.1803,1351.81,-873.11,1625.31
15550,-3.8746,0.9723,0.1782,758.06,-919.98,1515.93
15560,-3.8746,0.9736,0.1759,461.18,-1185.61,1406.56
15570,-3.8746,0.9774,0.1758,633.06,-1482.48,1265.93
15580,-3.8746,0.9813,0.1780,1117.43,-1498.11,1172.18
15590,-3.8746,0.9838,0.1813,1617.43,-1216.86,1062.81
15600,-3.8746,0.9834,0.1838,1929.93,-794.98,922.18
15610,-3.8746,0.9801,0.1843,1883.06,-466.86,797.18
15620,-3.8746,0.9771,0.1833,1461.18,-404.36,687.81
15630,-3.8746,0.9756,0.1837,1070.56,-529.36,594.06
15640,-3.8746,0.9745,0.1854,883.06,-482.48,625.31
15650,-3.8746,0.9746,0.1866,742.43,-263.73,765.93
15660,-3.8746,0.9764,0.1841,758.06,-107.48,781.56
15670,-3.8746,0.9778,0.1792,992.43,-435.61,594.06
15680,-3.8746,0.9767,0.1763,1164.31,-1060.61,312.81
15690,-3.8746,0.9733,0.1769,1023.68,-1435.61,31.56
15700,-3.8748,0.9690,0.1796,586.18,-1357.48,-15.32
15710,-3.8746,0.9664,0.1813,39.31,-1013.73,172.18
15720,-3.8746,0.9669,0.1812,-288.82,-795.04,375.31
15730,-3.8746,0.9692,0.1792,-226.32,-810.67,562.81
15740,-3.8746,0.9713,0.1764,70.56,-1060.61,484.68
15750,-3.8746,0.9714,0.1770,336.18,-1419.98,281.56
15760,-3.8746,0.9702,0.1809,351.81,-1341.86,328.43
15770,-3.8746,0.9706,0.1835,195.56,-841.86,656.56
15780,-3.8746,0.9746,0.1847,242.43,-513.73,1125.31
15790,-3.8746,0.9806,0.1863,758.06,-357.48,1515.93
15800,-3.8746,0.9868,0.1876,1523.68,-154.36,1640.93
15810,-3.8746,0.9921,0.1881,-1679.44,17.52,1531.62
15820,-3.8746,0.9938,0.1881,-1007.57,80.02,1390.99
15830,-3.8746,0.9921,0.1882,-788.82,80.02,1219.12
15840,-3.8746,0.9879,0.1873,-1007.57,95.64,1109.74
15850,-3.8746,0.9827,0.1846,-1538.82,-29.36,1078.43
15860,-3.8746,0.9778,0.1810,1789.31,-373.11,922.18
15870,-3.8746,0.9728,0.1790,1164.31,-826.23,750.31
15880,-3.8746,0.9686,0.1810,523.68,-1091.86,875.31
15890,-3.8746,0.9673,0.1843,-7.57,-826.29,1312.81
15900,-3.8746,0.9667,0.1849,-179.44,-404.42,1687.81
15910,-3.8746,0.9662,0.1821,-257.57,-326.29,1578.43
15920,-3.8746,0.9659,0.1783,-320.07,-685.67,1047.18
15930,-3.8746,0.9672,0.1772,-351.32,-1170.04,531.56
15940,-3.8746,0.9711,0.1792,-195.07,-1310.67,281.56
15950,-3.8746,0.9772,0.1833,304.93,-1060.61,297.18
15960,-3.8746,0.9845,0.1880,1086.18,-529.36,375.31
15970,-3.8746,0.9911,0.1910,-1976.32,64.39,562.87
15980,-3.8746,0.9949,0.1918,-1132.57,455.02,859.74
15990,-3.8746,0.9946,0.1912,-648.19,548.77,1094.12
16000,-3.8746,0.9918,0.1897,-679.44,470.64,1250.37
16010,-3.8746,0.9888,0.1892,-1038.82,283.14,1562.87
16020,-3.8746,0.9862,0.1907,-1429.44,220.64,1937.87
16030,-3.8746,0.9854,0.1921,-1757.57,408.14,-1624.63
16040,-3.8746,0.9860,0.1923,-1866.94,595.64,-1124.63
16050,-3.8746,0.9862,0.1906,-1788.82,611.27,-952.76
16060,-3.8746,0.9845,0.1869,-1757.57,392.52,-1155.88
16070,-3.8746,0.9812,0.1826,-1976.32,-76.23,-1609.07
16080,-3.8746,0.9771,0.1805,1601.81,-623.11,1984.68
16090,-3.8746,0.9724,0.1818,1070.56,-888.73,1609.68
16100,-3.8746,0.9695,0.1857,476.81,-732.48,1328.43
16110,-3.8746,0.9697,0.1895,101.81,-232.48,1219.06
16120,-3.8746,0.9703,0.1906,133.06,251.89,1172.24
16130,-3.8746,0.9703,0.1890,211.18,392.52,1094.12
16140,-3.8746,0.9713,0.1869,211.18,189.39,859.74
16150,-3.8746,0.9709,0.1849,336.18,-76.23,594.06
16160,-3.8746,0.9683,0.1833,289.31,-326.23,562.81
16170,-3.8746,0.9653,0.1827,-54.44,-529.42,562.81
16180,-3.8746,0.9658,0.1823,-429.44,-607.54,422.18
16190,-3.8746,0.9680,0.1816,-366.94,-670.04,203.43
16200,-3.8746,0.9695,0.1815,-85.69,-748.17,62.81
16210,-3.8748,0.9718,0.1825,101.81,-763.73,-77.82
16220,-3.8748,0.9766,0.1855,398.68,-638.73,-234.07
16230,-3.8748,0.9836,0.1913,1008.06,-248.11,-218.44
16240,-3.8746,0.9904,0.1969,1914.31,486.27,234.74
16250,-3.8746,0.9948,0.1982,-1226.32,1205.02,1000.37
16260,-3.8746,0.9960,0.1937,-663.82,1376.89,1547.24
16270,-3.8746,0.9930,0.1859,-507.57,798.77,1640.99
16280,-3.8746,0.9869,0.1791,-882.57,-201.23,1297.18
16290,-3.8746,0.9806,0.1769,-1663.82,-1076.23,875.31
16300,-3.8746,0.9750,0.1804,1523.68,-1357.48,719.06
16310,-3.8746,0.9709,0.1857,804.93,-904.36,875.31
16320,-3.8746,0.9694,0.1869,289.31,-232.48,1062.81
16330,-3.8746,0.9689,0.1848,86.18,-76.23,1125.31
16340,-3.8746,0.9714,0.1841,23.68,-341.86,1015.93
16350,-3.8746,0.9761,0.1851,351.81,-435.61,750.31
16360,-3.8746,0.9796,0.1869,945.56,-310.61,531.56
16370,-3.8746,0.9823,0.1875,1398.68,-76.23,390.93
16380,-3.8746,0.9830,0.1865,1742.43,1.89,312.87
16390,-3.8746,0.9810,0.1866,1836.18,-123.11,359.68
16400,-3.8746,0.9785,0.1885,1570.56,-107.48,500.31
16410,-3.8746,0.9763,0.1891,1258.06,126.89,734.74
16420,-3.8746,0.9744,0.1871,976.81,205.02,890.99
16430,-3.8746,0.9740,0.1866,726.81,-44.98,890.93
16440,-3.8746,0.9745,0.1899,679.93,-107.48,859.68
16450,-3.8746,0.9760,0.1935,742.43,314.39,1062.87
16460,-3.8746,0.9778,0.1936,929.93,767.52,1453.49
16470,-3.8746,0.9768,0.1906,1164.31,783.14,1734.74
16480,-3.8746,0.9744,0.1866,1039.31,392.52,1719.12
16490,-3.8746,0.9729,0.1844,726.81,-107.48,1547.18
16500,-3.8746,0.9725,0.1854,539.31,-388.73,1437.81
16510,-3.8746,0.9731,0.1884,492.43,-263.73,1453.43
16520,-3.8746,0.9744,0.1893,570.56,111.27,1515.99
16530,-3.8746,0.9756,0.1870,726.81,236.27,1437.87
16540,-3.8746,0.9760,0.1832,883.06,-60.61,1078.43
16550,-3.8746,0.9749,0.1818,929.93,-544.98,734.68
16560,-3.8746,0.9741,0.1842,789.31,-732.48,734.68
16570,-3.8746,0.9753,0.1884,695.56,-419.98,922.18
16580,-3.8746,0.9780,0.1912,851.81,111.27,1078.49
16590,-3.8746,0.9803,0.1902,1195.56,470.64,1140.99
16600,-3.8746,0.9816,0.1874,1492.43,345.64,1125.37
16610,-3.8746,0.9830,0.1865,1648.68,-13.73,1000.31
16620,-3.8746,0.9841,0.1869,1836.18,-123.11,844.06
16630,-3.8746,0.9817,0.1882,1976.81,-76.23,890.93
16640,-3.8746,0.9774,0.1901,1664.31,95.64,1140.99
16650,-3.8746,0.9741,0.1892,1117.43,330.02,1312.87
16660,-3.8746,0.9719,0.1860,695.56,220.64,1328.49
16670,-3.8746,0.9696,0.1831,414.31,-185.61,1203.43
16680,-3.8746,0.9666,0.1819,117.43,-560.61,1015.93
16690,-3.8746,0.9634,0.1815,-273.19,-716.92,890.93
16700,-3.8746,0.9603,0.1809,-679.44,-763.79,828.43
16710,-3.8746,0.9618,0.1802,-1070.07,-841.92,656.56
16720,-3.8746,0.9705,0.1815,-882.57,-935.67,328.43
16730,-3.8746,0.9803,0.1852,226.81,-763.73,172.18
16740,-3.8746,0.9877,0.1899,1492.43,-294.98,328.43
16750,-3.8746,0.9915,0.1938,-1570.07,314.39,515.99
16760,-3.8746,0.9907,0.1957,-1085.69,814.39,859.74
16770,-3.8746,0.9866,0.1940,-1179.44,1048.77,1297.24
16780,-3.8746,0.9818,0.1898,-1710.69,830.02,1453.49
16790,-3.8746,0.9786,0.1864,1679.93,298.77,1422.24
16800,-3.8746,0.9773,0.1844,1273.68,-138.73,1422.18
16810,-3.8746,0.9769,0.1853,1101.81,-388.73,1422.18
16820,-3.8746,0.9780,0.1897,1054.93,-279.36,1547.18
16830,-3.8746,0.9803,0.1943,1195.56,283.14,1719.12
16840,-3.8746,0.9836,0.1953,1492.43,876.89,1781.62
16850,-3.8746,0.9867,0.1929,1914.31,1001.89,1703.49
16860,-3.8746,0.9867,0.1907,-1695.07,689.39,1469.12
16870,-3.8746,0.9828,0.1890,-1695.07,408.14,1359.74
16880,-3.8746,0.9768,0.1874,1804.93,189.39,1515.99
16890,-3.8746,0.9706,0.1865,1039.31,-13.73,1672.18
16900,-3.8746,0.9672,0.1843,242.43,-123.11,1781.56
16910,-3.8746,0.9669,0.1818,-195.07,-404.42,1812.81
16920,-3.8746,0.9679,0.1830,-226.32,-732.54,1875.31
16930,-3.8746,0.9686,0.1870,-101.32,-576.29,-1937.19
16940,-3.8746,0.9696,0.1892,-7.57,-60.67,-1718.44
16950,-3.8746,0.9706,0.1892,117.43,220.64,-1609.01
16960,-3.8746,0.9702,0.1880,242.43,220.64,-1609.01
16970,-3.8746,0.9700,0.1860,195.56,64.39,-1780.88
16980,-3.8746,0.9720,0.1847,164.31,-185.61,1890.93
16990,-3.8746,0.9767,0.1853,429.93,-357.48,1531.56
17000,-3.8746,0.9823,0.1879,1023.68,-279.36,1156.56
17010,-3.8746,0.9862,0.1901,1742.43,48.77,953.49
17020,-3.8746,0.9869,0.1906,-1757.57,330.02,875.37
17030,-3.8746,0.9847,0.1901,-1663.82,392.52,828.49
17040,-3.8746,0.9822,0.1891,-1945.07,330.02,844.12
17050,-3.8746,0.9806,0.1890,1726.81,205.02,984.74
17060,-3.8746,0.9785,0.1893,1523.68,189.39,1203.49
17070,-3.8746,0.9744,0.1882,1258.06,236.27,1359.74
17080,-3.8746,0.9691,0.1847,726.81,95.64,1453.49
17090,-3.8746,0.9652,0.1801,54.93,-357.48,1312.81
17100,-3.8746,0.9631,0.1779,-445.07,-951.29,1078.43
17110,-3.8746,0.9626,0.1797,-710.69,-1232.54,1109.68
17120,-3.8746,0.9647,0.1848,-773.19,-998.17,1234.68
17130,-3.8746,0.9712,0.1899,-507.57,-341.92,1359.68
17140,-3.8746,0.9795,0.1914,320.56,314.39,1453.49
17150,-3.8746,0.9855,0.1903,1383.06,501.89,1390.99
17160,-3.8746,0.9871,0.1887,-1851.32,361.27,1078.49
17170,-3.8746,0.9845,0.1874,-1648.19,158.14,750.37
17180,-3.8746,0.9802,0.1877,-1976.32,-13.73,625.31
17190,-3.8746,0.9779,0.1893,1476.81,33.14,625.37
17200,-3.8746,0.9778,0.1898,1179.93,236.27,719.12
17210,-3.8746,0.9785,0.1884,1164.31,298.77,859.74
17220,-3.8746,0.9783,0.1855,1258.06,111.27,922.24
17230,-3.8746,0.9768,0.1830,1226.81,-248.11,890.93
17240,-3.8746,0.9736,0.1821,1039.31,-576.23,906.56
17250,-3.8746,0.9698,0.1823,633.06,-685.61,1094.06
17260,-3.8746,0.9681,0.1818,148.68,-669.98,1344.06
17270,-3.8746,0.9683,0.1830,-70.07,-732.54,1562.81
17280,-3.8746,0.9703,0.1875,-54.44,-576.29,1828.43
17290,-3.8746,0.9749,0.1902,211.18,1.89,-1952.76
17300,-3.8746,0.9783,0.1874,789.31,345.64,-1874.63
17310,-3.8746,0.9784,0.1830,1226.81,-13.73,1969.06
17320,-3.8746,0.9766,0.1818,1242.43,-576.23,1562.81
17330,-3.8746,0.9745,0.1851,1008.06,-732.48,1312.81
17340,-3.8746,0.9750,0.1898,742.43,-310.61,1484.68
17350,-3.8746,0.9790,0.1917,804.93,298.77,1797.24
17360,-3.8746,0.9829,0.1903,1320.56,533.14,1844.12
17370,-3.8746,0.9850,0.1877,1820.56,361.27,1469.12
17380,-3.8746,0.9852,0.1844,-1913.82,33.14,1109.74
17390,-3.8746,0.9833,0.1820,-1882.57,-388.73,1031.56
17400,-3.8746,0.9802,0.1827,1867.43,-701.23,1094.06
17410,-3.8746,0.9780,0.1862,1476.81,-607.48,1219.06
17420,-3.8746,0.9779,0.1902,1195.56,-169.98,1344.06
17430,-3.8746,0.9783,0.1920,1179.93,345.64,1469.12
17440,-3.8746,0.9784,0.1901,1226.81,580.02,1484.74
17450,-3.8746,0.9771,0.1863,1242.43,330.02,1344.12
17460,-3.8746,0.9753,0.1854,1070.56,-154.36,1187.81
17470,-3.8746,0.9749,0.1884,851.81,-263.73,1078.43
17480,-3.8746,0.9741,0.1909,789.31,111.27,1078.49
17490,-3.8746,0.9718,0.1875,695.56,439.39,1140.99
17500,-3.8746,0.9680,0.1786,398.68,1.89,937.87
17510,-3.8746,0.9659,0.1716,-85.69,-1138.79,437.81
17520,-3.8748,0.9663,0.1710,-351.32,1970.58,-62.19
17530,-3.8748,0.9688,0.1774,-304.44,1892.46,-327.82
17540,-3.8748,0.9739,0.1866,8.06,-1294.98,-124.69
17550,-3.8746,0.9814,0.1926,664.31,-107.48,578.43
17560,-3.8746,0.9886,0.1903,1633.06,658.14,1203.49
17570,-3.8746,0.9927,0.1836,-1445.07,361.27,1250.37
17580,-3.8746,0.9932,0.1814,-929.44,-498.11,953.43
17590,-3.8746,0.9917,0.1849,-866.94,-779.36,890.93
17600,-3.8746,0.9897,0.1893,-1054.44,-326.23,1297.18
17610,-3.8746,0.9893,0.1906,-1304.44,236.27,1672.24
17620,-3.8746,0.9911,0.1884,-1366.94,392.52,1765.99
17630,-3.8746,0.9915,0.1852,-1132.57,111.27,1750.37
17640,-3.8746,0.9878,0.1857,-1085.69,-294.98,1656.56
17650,-3.8746,0.9828,0.1902,-1554.44,-232.48,1547.18
17660,-3.8746,0.9788,0.1919,1804.93,345.64,1531.62
17670,-3.8746,0.9762,0.1886,1289.31,564.39,1562.87
17680,-3.8746,0.9744,0.1830,961.18,142.52,1437.87
17690,-3.8746,0.9707,0.1774,726.81,-576.23,1094.06
17700,-3.8746,0.9648,0.1732,258.06,-1294.98,703.43
17710,-3.8746,0.9598,0.1707,-491.94,-1826.29,312.81
17720,-3.8748,0.9611,0.1675,-1132.57,1845.58,-62.19
17730,-3.8748,0.9723,0.1659,-976.32,1439.33,-343.44
17740,-3.8748,0.9923,0.1708,461.18,1236.27,-437.19
17750,-3.8748,1.0145,0.1832,-976.32,1861.27,-140.32
17760,-3.8746,1.0325,0.1975,1867.43,-544.92,687.81
17770,-3.8746,1.0415,0.2041,164.31,1283.26,1922.24
17780,-3.8746,1.0382,0.2018,1320.56,-1872.99,-1077.76
17790,-3.8746,1.0231,0.1969,898.68,1830.14,-593.38
17800,-3.8746,1.0017,0.1954,-1038.82,1205.08,-155.88
17810,-3.8745,0.9840,0.1982,226.81,1017.58,359.74
17820,-3.8745,0.9740,0.2021,1961.18,1376.89,765.99
17830,-3.8745,0.9679,0.2051,679.93,1876.89,1125.37
17840,-3.8745,0.9614,0.2023,-101.32,-1748.17,1469.12
17850,-3.8745,0.9528,0.1921,-929.44,1892.46,1437.87
17860,-3.8745,0.9464,0.1807,1961.18,595.58,719.12
17870,-3.8746,0.9471,0.1731,1148.68,-873.17,-624.69
17880,-3.8746,0.9517,0.1710,1242.43,-1841.92,-1905.94
17890,-3.8746,0.9579,0.1760,1820.56,1892.46,1375.31
17900,-3.8746,0.9642,0.1835,-1382.57,-1466.92,1328.43
17910,-3.8746,0.9656,0.1879,-570.07,-513.79,1765.93
17920,-3.8746,0.9601,0.1901,-398.19,48.71,-1796.51
17930,-3.8746,0.9503,0.1940,-1101.32,329.96,-1312.13
17940,-3.8746,0.9412,0.1996,1648.68,829.96,-671.51
17950,-3.8745,0.9344,0.2001,476.81,1548.71,234.74
17960,-3.8745,0.9281,0.1925,-382.57,1611.15,890.99
17970,-3.8745,0.9240,0.1802,-1195.07,642.40,562.87
17980,-3.8746,0.9244,0.1704,-1726.32,-935.73,-187.19
17990,-3.8746,0.9294,0.1689,-1663.82,1814.27,-718.44
18000,-3.8746,0.9407,0.1740,-1023.19,1626.77,-1046.57
18010,-3.8746,0.9563,0.1833,414.31,-1732.54,-1109.07
18020,-3.8746,0.9733,0.1942,-1585.69,-529.42,-796.57
18030,-3.8746,0.9879,0.2012,586.18,861.27,-562.13
18040,-3.8746,0.9948,0.2031,-1538.82,1751.89,-499.63
18050,-3.8746,0.9927,0.2023,-663.82,-1998.11,-296.51
18060,-3.8745,0.9840,0.1980,-929.44,1892.52,94.12
18070,-3.8745,0.9707,0.1899,1961.18,1345.64,531.62
18080,-3.8745,0.9572,0.1796,258.06,314.39,703.49
18090,-3.8745,0.9484,0.1687,-1476.32,-1013.79,609.68
18100,-3.8745,0.9458,0.1616,1398.68,1595.58,406.56
18110,-3.8745,0.9482,0.1609,1070.56,689.33,140.93
18120,-3.8746,0.9567,0.1665,1383.06,595.58,-155.94
18130,-3.8746,0.9707,0.1750,-1538.82,1314.33,-359.07
18140,-3.8746,0.9858,0.1818,258.06,-1591.86,-484.07
18150,-3.8746,0.9998,0.1840,-1804.44,-732.48,-734.07
18160,-3.8746,1.0105,0.1819,-23.19,-451.23,-1046.57
18170,-3.8746,1.0178,0.1783,1351.81,-716.80,-1484.07
18180,-3.8746,1.0212,0.1758,-1710.69,-1169.92,1937.81
18190,-3.8746,1.0183,0.1749,-1273.19,-1498.05,1562.81
18200,-3.8746,1.0109,0.1752,-1648.19,-1607.42,1594.06
18210,-3.8746,1.0018,0.1746,1398.68,-1576.17,1890.93
18220,-3.8746,0.9926,0.1715,242.43,-1654.30,-1827.82
18230,-3.8746,0.9840,0.1656,-945.07,1955.02,-1843.44
18240,-3.8746,0.9775,0.1611,1961.18,1205.02,1937.81
18250,-3.8746,0.9735,0.1605,1133.06,626.89,1625.31
18260,-3.8746,0.9724,0.1632,617.43,548.77,1547.18
18270,-3.8746,0.9752,0.1677,476.81,892.52,1719.06
18280,-3.8746,0.9805,0.1714,836.18,1470.64,1734.68
18290,-3.8746,0.9846,0.1735,1508.06,1939.39,1609.68
18300,-3.8746,0.9855,0.1736,-1960.69,-1794.98,1359.68
18310,-3.8746,0.9817,0.1709,-1851.32,-1779.36,1015.93
18320,-3.8746,0.9731,0.1658,1664.31,1876.89,672.18
18330,-3.8746,0.9644,0.1619,570.56,1220.64,219.06
18340,-3.8748,0.9606,0.1628,-554.44,720.58,-265.32
18350,-3.8748,0.9645,0.1689,-1038.82,845.58,-546.57
18360,-3.8748,0.9751,0.1771,-538.82,1626.83,-655.94
18370,-3.8748,0.9873,0.1821,820.56,-1326.23,-827.82
18380,-3.8748,0.9952,0.1809,-1616.94,-685.61,-1093.44
18390,-3.8748,0.9955,0.1755,-601.32,-841.86,-1421.57
18400,-3.8748,0.9883,0.1715,-570.07,-1529.36,-1609.07
18410,-3.8748,0.9767,0.1715,-1491.94,1955.02,-1499.69
18420,-3.8748,0.9677,0.1726,1023.68,1955.02,-1077.82
18430,-3.8748,0.9647,0.1711,-132.57,-1904.42,-437.19
18440,-3.8746,0.9659,0.1680,-507.57,1908.08,203.43
18450,-3.8746,0.9713,0.1658,-351.32,1501.83,547.18
18460,-3.8746,0.9762,0.1664,336.18,1220.64,797.18
18470,-3.8746,0.9779,0.1689,961.18,1298.77,1250.31
18480,-3.8746,0.9791,0.1720,1179.93,1626.89,1765.93
18490,-3.8746,0.9816,0.1747,1336.18,-1982.48,-1765.32
18500,-3.8746,0.9857,0.1769,1648.68,-1638.73,-1374.69
18510,-3.8746,0.9896,0.1783,-1820.07,-1357.48,-1046.57
18520,-3.8746,0.9915,0.1788,-1320.07,-1169.98,-812.19
18530,-3.8746,0.9928,0.1790,-1085.69,-1107.48,-765.32
18540,-3.8746,0.9934,0.1780,-913.82,-1091.86,-952.82
18550,-3.8746,0.9927,0.1754,-835.69,-1216.86,-1155.94
18560,-3.8746,0.9916,0.1718,-929.44,-1544.98,-1327.82
18570,-3.8746,0.9894,0.1685,-1070.07,1986.27,-1452.82
18580,-3.8746,0.9861,0.1689,-1351.32,1564.39,-1452.82
18590,-3.8746,0.9845,0.1732,-1773.19,1626.89,-1468.44
18600,-3.8746,0.9873,0.1780,-1976.32,-1826.23,-1499.69
18610,-3.8746,0.9943,0.1825,-1616.94,-1216.86,-1499.69
18620,-3.8746,1.0011,0.1875,-726.32,-638.73,-1327.82
18630,-3.8746,1.0046,0.1932,148.68,1.95,-999.63
18640,-3.8746,1.0038,0.1978,601.81,736.33,-593.38
18650,-3.8746,0.9984,0.2003,492.43,1314.45,-109.01
18660,-3.8745,0.9906,0.2007,-195.07,1642.52,375.37
18670,-3.8745,0.9819,0.1963,-1195.07,1689.39,765.99
18680,-3.8745,0.9722,0.1898,1695.56,1126.89,953.49
18690,-3.8745,0.9625,0.1851,445.56,298.77,984.74
18700,-3.8745,0.9541,0.1829,-788.82,-310.67,844.06
18710,-3.8745,0.9462,0.1842,-1866.94,-591.92,656.56
18720,-3.8745,0.9413,0.1871,1117.43,-420.04,562.81
18730,-3.8745,0.9421,0.1880,492.43,-45.04,406.56
18740,-3.8746,0.9473,0.1873,601.81,64.33,-62.13
18750,-3.8746,0.9528,0.1865,1258.06,-29.42,-718.44
18760,-3.8746,0.9552,0.1873,1961.18,-123.17,-1187.19
18770,-3.8746,0.9532,0.1903,-1726.32,-29.42,-1374.69
18780,-3.8746,0.9492,0.1952,-1976.32,361.21,-1390.26
18790,-3.8746,0.9468,0.2000,1508.06,986.21,-1218.38
18800,-3.8746,0.9465,0.2014,1195.56,1595.58,-968.38
18810,-3.8746,0.9487,0.1989,1164.31,1783.08,-671.51
18820,-3.8746,0.9528,0.1952,1445.56,1454.96,-515.26
18830,-3.8746,0.9565,0.1941,1961.18,986.21,-515.26
18840,-3.8746,0.9596,0.1967,-1554.44,845.58,-343.38
18850,-3.8745,0.9619,0.1989,-1163.82,1173.71,78.49
18860,-3.8745,0.9644,0.1975,-866.94,1454.96,500.37
18870,-3.8745,0.9689,0.1934,-554.44,1283.08,687.87
18880,-3.8745,0.9728,0.1891,23.68,751.89,594.12
18890,-3.8745,0.9724,0.1864,523.68,205.02,390.99
18900,-3.8745,0.9714,0.1844,476.81,-138.73,297.18
18910,-3.8745,0.9722,0.1818,351.81,-388.73,265.93
18920,-3.8745,0.9742,0.1799,445.56,-732.48,172.18
18930,-3.8745,0.9778,0.1797,711.18,-966.86,172.18
18940,-3.8745,0.9806,0.1801,1164.31,-998.11,156.56
18950,-3.8745,0.9819,0.1801,1523.68,-951.23,15.93
18960,-3.8746,0.9838,0.1797,1695.56,-951.23,-218.44
18970,-3.8746,0.9861,0.1785,1929.93,-998.11,-468.44
18980,-3.8746,0.9878,0.1786,-1773.19,-1154.36,-749.69
18990,-3.8746,0.9902,0.1813,-1554.44,-1138.73,-1077.82
19000,-3.8746,0.9926,0.1837,-1241.94,-794.98,-1343.44
19010,-3.8746,0.9926,0.1848,-945.07,-482.48,-1405.94
19020,-3.8746,0.9922,0.1849,-945.07,-341.86,-1296.57
19030,-3.8746,0.9913,0.1836,-991.94,-326.23,-1202.82
19040,-3.8746,0.9856,0.1813,-1101.32,-498.11,-1077.82
19050,-3.8746,0.9752,0.1787,-1835.69,-794.98,-921.57
19060,-3.8746,0.9659,0.1753,836.18,-1123.11,-1046.57
19070,-3.8746,0.9617,0.1726,-351.32,-1560.67,-1405.94
19080,-3.8746,0.9626,0.1714,-898.19,-1904.42,-1984.07
19090,-3.8746,0.9662,0.1716,-773.19,1939.33,1437.81
19100,-3.8746,0.9709,0.1733,-320.07,1970.58,1062.81
19110,-3.8746,0.9779,0.1759,289.31,-1810.61,875.31
19120,-3.8746,0.9861,0.1793,1179.93,-1482.48,719.06
19130,-3.8746,0.9915,0.1809,-1773.19,-1044.98,531.56
19140,-3.8746,0.9923,0.1796,-1085.69,-841.86,328.43
19150,-3.8746,0.9911,0.1772,-976.32,-1013.73,140.93
19160,-3.8746,0.9873,0.1761,-1132.57,-1310.61,94.06
19170,-3.8746,0.9796,0.1750,-1616.94,-1451.23,234.68
19180,-3.8746,0.9706,0.1716,1398.68,-1591.86,390.93
19190,-3.8746,0.9636,0.1672,242.43,1970.64,344.06
19200,-3.8746,0.9617,0.1663,-648.19,1408.08,265.93
19210,-3.8746,0.9642,0.1713,-898.19,1283.08,234.68
19220,-3.8746,0.9686,0.1792,-570.07,1923.71,453.43
19230,-3.8746,0.9736,0.1838,-7.57,-1060.67,953.43
19240,-3.8746,0.9758,0.1813,633.06,-466.86,1203.43
19250,-3.8746,0.9755,0.1766,914.31,-794.98,1047.18
19260,-3.8746,0.9753,0.1746,867.43,-1388.73,781.56
19270,-3.8746,0.9760,0.1744,851.81,-1654.36,734.68
19280,-3.8746,0.9768,0.1749,929.93,-1669.98,844.06
19290,-3.8746,0.9781,0.1755,1039.31,-1607.48,969.06
19300,-3.8746,0.9786,0.1754,1211.18,-1529.36,1140.93
19310,-3.8746,0.9768,0.1735,1273.68,-1544.98,1469.06
19320,-3.8746,0.9738,0.1715,1039.31,-1794.98,1828.43
19330,-3.8746,0.9717,0.1711,648.68,1955.02,-1905.94
19340,-3.8746,0.9728,0.1718,383.06,1908.14,-1655.94
19350,-3.8746,0.9781,0.1721,523.68,1986.27,-1452.82
19360,-3.8746,0.9866,0.1729,1211.18,-1966.86,-1437.19
19370,-3.8746,0.9955,0.1748,-1710.69,-1873.11,-1734.07
19380,-3.8746,1.0024,0.1759,-570.07,-1623.11,1703.43
19390,-3.8746,1.0060,0.1770,320.56,-1482.42,1234.68
19400,-3.8746,1.0060,0.1805,773.68,-1341.80,906.56
19410,-3.8746,1.0038,0.1855,773.68,-888.67,750.31
19420,-3.8746,1.0013,0.1879,492.43,-248.05,781.56
19430,-3.8746,0.9998,0.1851,179.93,48.83,922.24
19440,-3.8746,0.9967,0.1771,-23.19,-310.61,1031.56
19450,-3.8746,0.9904,0.1665,-413.82,-1326.23,890.93
19460,-3.8746,0.9818,0.1588,-1226.32,1314.39,484.68
19470,-3.8746,0.9742,0.1599,1679.93,330.02,344.06
19480,-3.8746,0.9711,0.1681,711.18,470.64,828.43
19490,-3.8746,0.9729,0.1757,304.93,1517.52,1781.56
19500,-3.8746,0.9769,0.1793,539.31,-1513.73,-1218.44
19510,-3.8746,0.9799,0.1802,1054.93,-1044.98,-671.57
19520,-3.8746,0.9800,0.1799,1429.93,-935.61,-562.19
19530,-3.8746,0.9780,0.1793,1445.56,-966.86,-687.19
19540,-3.8746,0.9733,0.1779,1195.56,-1044.98,-1093.44
19550,-3.8746,0.9684,0.1766,586.18,-1232.48,-1452.82
19560,-3.8746,0.9669,0.1779,-38.82,-1388.79,-1749.69
19570,-3.8746,0.9691,0.1803,-226.32,-1232.54,1844.06
19580,-3.8746,0.9733,0.1826,54.93,-919.98,1453.43
19590,-3.8746,0.9768,0.1842,586.18,-623.11,1203.43
19600,-3.8746,0.9777,0.1838,1039.31,-419.98,1000.31
19610,-3.8746,0.9742,0.1815,1148.68,-466.86,844.06
19620,-3.8746,0.9673,0.1774,711.18,-763.73,812.81
19630,-3.8746,0.9602,0.1718,-179.44,-1295.04,984.68
19640,-3.8746,0.9553,0.1664,-1085.69,1986.21,1078.43
19650,-3.8746,0.9532,0.1654,-1710.69,1298.71,1172.18
19660,-3.8746,0.9561,0.1698,-1976.32,1173.71,1562.81
19670,-3.8746,0.9629,0.1754,-1616.94,1736.21,-1968.44
19680,-3.8746,0.9712,0.1805,-741.94,-1545.04,-1499.69
19690,-3.8746,0.9791,0.1832,320.56,-888.73,-1265.32
19700,-3.8746,0.9854,0.1827,1336.18,-544.98,-1405.94
19710,-3.8746,0.9897,0.1820,-1866.94,-607.48,-1671.57
19720,-3.8746,0.9928,0.1848,-1304.44,-701.23,-1859.07
19730,-3.8746,0.9949,0.1896,-913.82,-341.86,-1859.07
19740,-3.8746,0.9957,0.1927,-648.19,267.52,-1702.76
19750,-3.8746,0.9943,0.1938,-538.82,673.77,-1405.88
19760,-3.8746,0.9910,0.1938,-726.32,814.39,-905.88
19770,-3.8746,0.9866,0.1909,-1148.19,814.39,-468.38
19780,-3.8746,0.9802,0.1849,-1710.69,439.39,-327.76
19790,-3.8746,0.9731,0.1788,1476.81,-326.23,-530.94
19800,-3.8746,0.9679,0.1740,570.56,-1107.48,-921.57
19810,-3.8746,0.9636,0.1707,-101.32,-1732.54,-1312.19
19820,-3.8746,0.9613,0.1688,-648.19,1845.58,-1734.07
19830,-3.8746,0.9626,0.1675,-945.07,1611.21,1734.68
19840,-3.8746,0.9668,0.1680,-773.19,1439.33,1265.93
19850,-3.8746,0.9735,0.1715,-241.94,1501.83,1109.68
19860,-3.8746,0.9818,0.1752,617.43,1955.02,1156.56
19870,-3.8746,0.9891,0.1786,1679.93,-1576.23,1406.56
19880,-3.8746,0.9929,0.1815,-1382.57,-1138.73,1812.81
19890,-3.8746,0.9928,0.1838,-898.19,-763.73,-1796.57
19900,-3.8746,0.9902,0.1863,-913.82,-466.86,-1452.82
19910,-3.8746,0.9873,0.1875,-1241.94,-154.36,-1077.82
19920,-3.8746,0.9879,0.1857,-1616.94,1.89,-874.63
19930,-3.8746,0.9905,0.1820,-1538.82,-232.48,-968.44
19940,-3.8746,0.9913,0.1807,-1210.69,-701.23,-1062.19
19950,-3.8746,0.9919,0.1826,-1101.32,-873.11,-968.44
19960,-3.8746,0.9937,0.1866,-1023.19,-623.11,-734.07
19970,-3.8746,0.9949,0.1895,-804.44,-107.48,-546.57
19980,-3.8746,0.9932,0.1880,-648.19,251.89,-640.26
19990,-3.8746,0.9889,0.1838,-866.94,64.39,-1015.26
20000,-3.8746,0.9827,0.1799,-1413.82,-466.86,-1546.57
20010,-3.8746,0.9740,0.1774,1789.31,-966.86,-1905.94
20020,-3.8746,0.9661,0.1775,679.93,-1294.98,-1874.69
20030,-3.8746,0.9633,0.1788,-335.69,-1279.42,-1765.32
20040,-3.8746,0.9656,0.1786,-695.07,-1107.54,-1655.94
20050,-3.8746,0.9705,0.1772,-398.19,-1138.79,-1437.19
20060,-3.8746,0.9760,0.1764,226.81,-1310.61,-1280.94
20070,-3.8746,0.9781,0.1766,929.93,-1419.98,-1155.94
20080,-3.8746,0.9745,0.1779,1211.18,-1388.73,-843.44
20090,-3.8746,0.9679,0.1783,742.43,-1232.48,-484.07
20100,-3.8746,0.9617,0.1774,-101.32,-1170.04,-265.32
20110,-3.8746,0.9589,0.1768,-898.19,-1295.04,-296.57
20120,-3.8746,0.9617,0.1775,-1257.57,-1373.17,-468.44
20130,-3.8746,0.9673,0.1777,-898.19,-1279.42,-624.69
20140,-3.8746,0.9730,0.1774,-179.44,-1248.17,-1015.32
20150,-3.8746,0.9790,0.1782,554.93,-1294.98,-1765.32
20160,-3.8746,0.9836,0.1812,1320.56,-1185.61,1515.93
20170,-3.8746,0.9857,0.1853,1914.31,-810.61,1172.18
20180,-3.8746,0.9855,0.1857,-1820.07,-279.36,1109.68
20190,-3.8746,0.9816,0.1796,-1851.32,-232.48,1125.31
20200,-3.8746,0.9742,0.1710,1648.68,-1013.73,1031.56
20210,-3.8746,0.9659,0.1649,711.18,1892.52,734.68
20220,-3.8746,0.9598,0.1636,-351.32,1111.21,578.43
20230,-3.8746,0.9573,0.1672,-1132.57,939.33,750.31
20240,-3.8746,0.9586,0.1733,-1460.69,1408.08,1125.31
20250,-3.8746,0.9629,0.1769,-1288.82,-1810.67,1609.68
20260,-3.8746,0.9681,0.1753,-741.94,-1357.54,1922.18
20270,-3.8746,0.9723,0.1714,-70.07,-1560.67,1859.68
20280,-3.8746,0.9751,0.1704,461.18,1939.39,1547.18
20290,-3.8746,0.9758,0.1746,820.56,1814.39,1515.93
20300,-3.8746,0.9756,0.1798,914.31,-1654.36,1906.56
20310,-3.8746,0.9756,0.1809,883.06,-982.48,-1702.82
20320,-3.8746,0.9751,0.1785,883.06,-841.86,-1484.07
20330,-3.8746,0.9753,0.1768,820.56,-1154.36,-1593.44
20340,-3.8746,0.9760,0.1779,851.81,-1373.11,-1765.32
20350,-3.8746,0.9780,0.1808,929.93,-1232.48,-1609.07
20360,-3.8746,0.9823,0.1823,1195.56,-857.48,-1202.82
20370,-3.8746,0.9869,0.1808,1742.43,-669.98,-921.57
20380,-3.8746,0.9885,0.1769,-1663.82,-857.48,-905.94
20390,-3.8746,0.9862,0.1730,-1460.69,-1357.48,-1140.32
20400,-3.8746,0.9824,0.1707,-1757.57,-1857.48,-1343.44
20410,-3.8746,0.9790,0.1702,1758.06,1845.64,-1421.57
20420,-3.8746,0.9772,0.1710,1320.56,1783.14,-1390.32
20430,-3.8746,0.9773,0.1726,1086.18,1892.52,-1312.19
20440,-3.8746,0.9773,0.1750,1101.81,-1904.36,-1202.82
20450,-3.8746,0.9758,0.1772,1101.81,-1591.86,-984.07
20460,-3.8746,0.9750,0.1770,914.31,-1310.61,-780.94
20470,-3.8746,0.9739,0.1735,804.93,-1341.86,-671.57
20480,-3.8746,0.9723,0.1693,664.31,-1794.98,-749.69
20490,-3.8746,0.9716,0.1667,461.18,1673.77,-968.44
20500,-3.8746,0.9730,0.1674,367.43,1345.64,-1155.94
20510,-3.8746,0.9756,0.1710,554.93,1423.77,-1359.07
20520,-3.8746,0.9778,0.1770,883.06,1892.52,-1249.69
20530,-3.8746,0.9812,0.1836,1164.31,-1341.86,-843.44
20540,-3.8746,0.9847,0.1886,1601.81,-498.11,-421.57
20550,-3.8746,0.9869,0.1918,-1945.07,142.52,-140.26
20560,-3.8745,0.9880,0.1919,-1663.82,548.77,109.74
20570,-3.8745,0.9865,0.1870,-1523.19,564.39,265.99
20580,-3.8745,0.9810,0.1793,-1726.32,-60.61,203.43
20590,-3.8746,0.9741,0.1714,1570.56,-1044.98,-30.94
20600,-3.8746,0.9694,0.1659,695.56,1939.39,-421.57
20610,-3.8746,0.9685,0.1650,86.18,1236.27,-952.82
20620,-3.8746,0.9729,0.1685,-23.19,1126.83,-1327.82
20630,-3.8746,0.9806,0.1737,539.31,1564.39,-1515.32
20640,-3.8746,0.9869,0.1796,1523.68,-1763.73,-1655.94
20650,-3.8746,0.9902,0.1844,-1663.82,-1013.73,-1655.94
20660,-3.8746,0.9916,0.1841,-1241.94,-388.73,-1812.19
20670,-3.8746,0.9904,0.1772,-1070.07,-435.61,1875.31
20680,-3.8746,0.9868,0.1688,-1226.32,-1310.61,1531.56
20690,-3.8746,0.9846,0.1644,-1679.44,1611.27,1125.31
20700,-3.8746,0.9857,0.1660,-1960.69,1048.77,828.43
20710,-3.8746,0.9888,0.1719,-1820.07,1251.89,859.68
20720,-3.8746,0.9915,0.1775,-1429.44,-1998.11,1172.18
20730,-3.8746,0.9928,0.1803,-1085.69,-1279.36,1531.56
20740,-3.8746,0.9935,0.1787,-913.82,-919.98,1859.68
20750,-3.8746,0.9922,0.1729,-820.07,-1123.11,1984.68
20760,-3.8746,0.9880,0.1676,-991.94,-1873.11,1937.81
20770,-3.8746,0.9841,0.1670,-1523.19,1455.02,1953.43
20780,-3.8746,0.9813,0.1698,1976.81,1376.89,-1859.07
20790,-3.8746,0.9775,0.1735,1617.43,1736.27,-1452.82
20800,-3.8746,0.9752,0.1761,1133.06,-1794.98,-843.44
20810,-3.8746,0.9762,0.1750,836.18,-1451.23,-405.94
20820,-3.8746,0.9768,0.1700,961.18,-1591.86,-421.57
20830,-3.8746,0.9739,0.1655,1039.31,1767.52,-624.69
20840,-3.8746,0.9684,0.1649,664.31,1189.39,-702.82
20850,-3.8746,0.9629,0.1677,-38.82,1111.21,-546.57
20860,-3.8746,0.9614,0.1700,-741.94,1470.58,-374.69
20870,-3.8746,0.9644,0.1704,-929.44,1767.46,-405.94
20880,-3.8746,0.9694,0.1704,-554.44,1814.33,-515.32
20890,-3.8746,0.9753,0.1720,86.18,1814.39,-562.19
20900,-3.8746,0.9811,0.1750,851.81,-1982.48,-577.82
20910,-3.8746,0.9841,0.1775,1586.18,-1591.86,-530.94
20920,-3.8746,0.9844,0.1776,1976.81,-1279.36,-343.44
20930,-3.8746,0.9833,0.1758,-1991.94,-1263.73,-187.19
20940,-3.8746,0.9803,0.1732,1867.43,-1498.11,-187.19
20950,-3.8746,0.9755,0.1713,1492.43,-1826.23,-187.19
20960,-3.8746,0.9722,0.1709,867.43,1923.77,-15.32
20970,-3.8745,0.9719,0.1720,445.56,1876.89,312.81
20980,-3.8745,0.9720,0.1733,414.31,-1982.48,609.68
20990,-3.8745,0.9711,0.1733,429.93,-1810.61,750.31
21000,-3.8745,0.9709,0.1724,304.93,-1810.61,609.68
21010,-3.8745,0.9722,0.1711,289.31,-1935.61,234.68
21020,-3.8746,0.9730,0.1700,445.56,1908.14,-93.44
21030,-3.8746,0.9724,0.1686,554.93,1767.52,-390.32
21040,-3.8746,0.9703,0.1658,476.81,1580.02,-796.57
21050,-3.8746,0.9663,0.1621,211.18,1220.64,-1359.07
21060,-3.8746,0.9628,0.1597,-304.44,751.83,-1843.44
21070,-3.8746,0.9618,0.1584,-757.57,439.33,1750.31
21080,-3.8746,0.9631,0.1580,-882.57,283.08,1406.56
21090,-3.8746,0.9680,0.1610,-710.69,220.58,1187.81
21100,-3.8746,0.9761,0.1686,-85.69,611.21,1140.93
21110,-3.8746,0.9847,0.1759,945.56,1580.02,1609.68
21120,-3.8746,0.9928,0.1777,-1945.07,-1482.48,-1593.44
21130,-3.8746,0.9974,0.1731,-913.82,-1248.11,-1124.69
21140,-3.8746,0.9944,0.1665,-320.07,-1841.86,-1046.57
21150,-3.8746,0.9866,0.1643,-710.69,1314.39,-1077.82
21160,-3.8746,0.9791,0.1688,-1710.69,1033.14,-859.07
21170,-3.8746,0.9753,0.1758,1336.18,1611.27,-218.44
21180,-3.8745,0.9746,0.1772,851.81,-1498.11,469.06
21190,-3.8745,0.9723,0.1705,758.06,-1310.61,594.06
21200,-3.8745,0.9691,0.1614,461.18,1830.02,219.06
21210,-3.8746,0.9668,0.1571,54.93,658.14,-499.69
21220,-3.8746,0.9668,0.1622,-241.94,111.21,-1015.32
21230,-3.8746,0.9714,0.1752,-241.94,767.46,-999.69
21240,-3.8746,0.9806,0.1864,351.81,-1576.23,-749.69
21250,-3.8746,0.9899,0.1885,1523.68,-138.73,-546.57
21260,-3.8746,0.9928,0.1826,-1288.82,126.89,-624.63
21270,-3.8746,0.9880,0.1763,-913.82,-623.11,-874.69
21280,-3.8746,0.9799,0.1743,-1523.19,-1435.61,-1046.57
21290,-3.8746,0.9733,0.1759,1429.93,-1685.61,-843.44
21300,-3.8746,0.9707,0.1769,586.18,-1482.48,-359.07
21310,-3.8745,0.9713,0.1744,258.06,-1357.48,47.18
21320,-3.8745,0.9724,0.1703,336.18,-1669.98,250.31
21330,-3.8745,0.9713,0.1678,476.81,1798.77,297.18
21340,-3.8745,0.9662,0.1700,336.18,1486.27,359.68
21350,-3.8745,0.9596,0.1748,-320.07,1767.46,703.43
21360,-3.8745,0.9575,0.1764,-1163.82,-1623.17,1094.06
21370,-3.8745,0.9601,0.1746,-1429.44,-1420.04,1187.81
21380,-3.8745,0.9653,0.1709,-1101.32,-1654.42,906.56
21390,-3.8745,0.9734,0.1682,-429.44,1876.83,281.56
21400,-3.8746,0.9844,0.1700,601.81,1533.14,-296.57
21410,-3.8746,0.9952,0.1761,-1991.94,1767.52,-562.19
21420,-3.8746,1.0026,0.1835,-601.32,-1451.23,-359.07
21430,-3.8745,1.0056,0.1880,336.18,-513.67,125.31
21440,-3.8745,1.0039,0.1865,726.81,64.45,547.24
21450,-3.8745,0.9977,0.1812,508.06,-123.05,703.43
21460,-3.8745,0.9882,0.1765,-288.82,-810.61,640.93
21470,-3.8745,0.9801,0.1744,-1507.57,-1404.36,703.43
21480,-3.8745,0.9758,0.1740,1461.18,-1669.98,890.93
21490,-3.8745,0.9736,0.1724,914.31,-1732.48,1000.31
21500,-3.8745,0.9739,0.1692,633.06,-1935.61,953.43
21510,-3.8745,0.9746,0.1665,664.31,1658.14,734.68
21520,-3.8745,0.9728,0.1660,758.06,1314.39,406.56
21530,-3.8745,0.9701,0.1677,523.68,1251.89,140.93
21540,-3.8745,0.9694,0.1716,179.93,1470.64,109.68
21550,-3.8745,0.9706,0.1774,86.18,1970.64,140.93
21560,-3.8745,0.9734,0.1819,242.43,-1294.98,31.56
21570,-3.8746,0.9784,0.1819,601.81,-716.86,-327.82
21580,-3.8746,0.9839,0.1791,1242.43,-716.86,-859.07
21590,-3.8746,0.9878,0.1783,1945.56,-1076.23,-1171.57
21600,-3.8746,0.9904,0.1809,-1554.44,-1169.98,-1171.57
21610,-3.8746,0.9901,0.1816,-1226.32,-841.86,-1093.44
21620,-3.8746,0.9856,0.1782,-1257.57,-748.11,-952.82
21630,-3.8746,0.9790,0.1752,-1835.69,-1185.61,-827.82
21640,-3.8746,0.9720,0.1740,1320.56,-1576.23,-843.44
21650,-3.8746,0.9667,0.1721,429.93,-1732.48,-780.94
21660,-3.8746,0.9653,0.1699,-257.57,-1966.92,-640.32
21670,-3.8746,0.9675,0.1676,-429.44,1751.83,-515.32
21680,-3.8746,0.9703,0.1654,-148.19,1454.96,-624.69
21690,-3.8746,0.9734,0.1648,211.18,1173.77,-890.32
21700,-3.8746,0.9756,0.1686,601.81,1095.64,-1218.44
21710,-3.8746,0.9790,0.1709,883.06,1580.02,-1218.44
21720,-3.8746,0.9836,0.1680,1320.56,1876.89,-765.32
21730,-3.8746,0.9840,0.1655,1914.31,1501.89,-640.32
21740,-3.8746,0.9836,0.1658,1961.18,1189.39,-1140.32
21750,-3.8746,0.9843,0.1671,1914.31,1220.64,-1827.82
21760,-3.8746,0.9828,0.1698,1992.43,1392.52,1937.81
21770,-3.8746,0.9781,0.1720,1804.93,1736.27,-1874.69
21780,-3.8746,0.9723,0.1715,1211.18,-1982.48,-1515.32
21790,-3.8746,0.9690,0.1698,461.18,1955.02,-1155.94
21800,-3.8746,0.9683,0.1686,39.31,1736.27,-984.07
21810,-3.8746,0.9698,0.1667,-54.44,1579.96,-1046.57
21820,-3.8746,0.9718,0.1628,148.68,1345.64,-1327.82
21830,-3.8746,0.9706,0.1606,398.68,845.64,-1655.94
21840,-3.8746,0.9673,0.1622,242.43,564.39,-1796.57
21850,-3.8746,0.9656,0.1654,-179.44,767.46,-1796.57
21860,-3.8746,0.9659,0.1683,-398.19,1173.71,-1702.82
21870,-3.8746,0.9657,0.1693,-351.32,1548.71,-1468.44
21880,-3.8746,0.9640,0.1691,-382.57,1673.71,-1405.94
21890,-3.8746,0.9600,0.1699,-601.32,1642.46,-1655.94
21900,-3.8746,0.9562,0.1710,-1116.94,1751.83,-1687.19
21910,-3.8746,0.9574,0.1696,-1601.32,1892.46,-1468.44
21920,-3.8746,0.9623,0.1663,-1445.07,1704.96,-1390.32
21930,-3.8746,0.9661,0.1644,-820.07,1283.08,-1655.94
21940,-3.8746,0.9672,0.1658,-335.69,1048.71,-1984.07
21950,-3.8746,0.9674,0.1713,-195.07,1220.58,1906.56
21960,-3.8746,0.9703,0.1801,-163.82,1923.71,-1765.32
21970,-3.8746,0.9764,0.1859,211.18,-951.23,-1234.07
21980,-3.8746,0.9817,0.1844,992.43,-201.23,-890.32
21990,-3.8746,0.9829,0.1782,1664.31,-388.73,-843.44
22000,-3.8746,0.9813,0.1725,1820.56,-1185.61,-890.32
22010,-3.8746,0.9792,0.1705,1617.43,-1919.98,-827.82
22020,-3.8746,0.9788,0.1726,1351.81,1830.02,-609.07
22030,-3.8746,0.9789,0.1761,1289.31,-1904.36,-187.19
22040,-3.8745,0.9794,0.1783,1304.93,-1451.23,312.81
22050,-3.8745,0.9807,0.1769,1367.43,-1169.98,625.31
22060,-3.8745,0.9816,0.1735,1539.31,-1357.48,640.93
22070,-3.8745,0.9817,0.1724,1648.68,-1794.98,594.06
22080,-3.8745,0.9794,0.1741,1664.31,-1935.61,515.93
22090,-3.8745,0.9757,0.1770,1367.43,-1716.86,609.68
22100,-3.8745,0.9734,0.1781,898.68,-1341.86,937.81
22110,-3.8745,0.9730,0.1752,601.81,-1201.23,1109.68
22120,-3.8745,0.9746,0.1711,554.93,-1576.23,844.06
22130,-3.8745,0.9789,0.1715,758.06,1908.14,453.43
22140,-3.8745,0.9854,0.1770,1304.93,1955.02,312.81
22150,-3.8745,0.9927,0.1842,-1866.94,-1341.86,359.68
22160,-3.8745,0.9984,0.1896,-929.44,-419.98,375.31
22170,-3.8745,1.0013,0.1908,-195.07,267.52,390.99
22180,-3.8745,1.0020,0.1873,179.93,423.83,344.12
22190,-3.8745,1.0004,0.1812,258.06,-29.30,62.81
22200,-3.8746,0.9956,0.1786,54.93,-810.55,-171.57
22210,-3.8746,0.9882,0.1823,-554.44,-1138.73,-30.94
22220,-3.8745,0.9811,0.1882,-1507.57,-669.98,453.43
22230,-3.8745,0.9756,0.1904,1586.18,95.64,1125.37
22240,-3.8745,0.9708,0.1868,883.06,376.89,1594.12
22250,-3.8745,0.9674,0.1792,273.68,-91.86,1672.18
22260,-3.8745,0.9642,0.1740,-163.82,-1060.67,1359.68
22270,-3.8745,0.9622,0.1760,-570.07,-1732.54,906.56
22280,-3.8745,0.9633,0.1836,-835.69,-1466.92,734.68
22290,-3.8745,0.9683,0.1896,-695.07,-498.17,797.18
22300,-3.8745,0.9750,0.1895,-54.44,267.46,656.62
22310,-3.8745,0.9799,0.1849,804.93,251.89,265.99
22320,-3.8746,0.9802,0.1814,1429.93,-326.23,-46.57
22330,-3.8746,0.9762,0.1815,1476.81,-779.36,-234.07
22340,-3.8746,0.9703,0.1837,961.18,-763.73,-202.82
22350,-3.8745,0.9650,0.1849,211.18,-482.48,203.43
22360,-3.8745,0.9614,0.1836,-476.32,-326.29,703.43
22370,-3.8745,0.9591,0.1808,-929.44,-498.17,937.81
22380,-3.8745,0.9592,0.1788,-1226.32,-857.54,859.68
22390,-3.8745,0.9637,0.1792,-1210.69,-1107.54,656.56
22400,-3.8745,0.9712,0.1821,-632.57,-1060.67,515.93
22410,-3.8745,0.9768,0.1849,320.56,-685.61,469.06
22420,-3.8745,0.9796,0.1846,1039.31,-326.23,547.18
22430,-3.8745,0.9797,0.1804,1398.68,-373.11,515.93
22440,-3.8745,0.9771,0.1770,1414.31,-904.36,328.43
22450,-3.8745,0.9735,0.1783,1070.56,-1341.86,140.93
22460,-3.8745,0.9692,0.1812,617.43,-1169.98,156.56
22470,-3.8745,0.9656,0.1829,70.56,-810.61,250.31
22480,-3.8745,0.9651,0.1826,-398.19,-591.92,172.18
22490,-3.8745,0.9674,0.1801,-460.69,-623.17,31.56
22500,-3.8746,0.9706,0.1783,-163.82,-951.29,-77.82
22510,-3.8746,0.9738,0.1814,242.43,-1169.98,-187.19
22520,-3.8746,0.9775,0.1881,648.68,-779.36,-171.57
22530,-3.8745,0.9811,0.1921,1133.06,80.02,62.87
22540,-3.8745,0.9821,0.1880,1586.18,595.64,250.37
22550,-3.8745,0.9802,0.1793,1711.18,64.39,109.74
22560,-3.8746,0.9766,0.1740,1476.81,-1044.98,-187.19
22570,-3.8746,0.9722,0.1744,1008.06,-1732.48,-374.69
22580,-3.8746,0.9692,0.1780,445.56,-1669.98,-202.82
22590,-3.8745,0.9701,0.1813,70.56,-1216.86,109.68
22600,-3.8745,0.9736,0.1820,179.93,-794.98,297.18
22610,-3.8745,0.9773,0.1793,633.06,-701.23,265.93
22620,-3.8745,0.9799,0.1765,1101.81,-1044.98,94.06
22630,-3.8746,0.9819,0.1761,1429.93,-1404.36,-30.94
22640,-3.8745,0.9806,0.1782,1695.56,-1451.23,0.31
22650,-3.8745,0.9752,0.1818,1523.68,-1185.61,250.31
22660,-3.8745,0.9711,0.1838,836.18,-732.48,500.31
22670,-3.8745,0.9701,0.1814,304.93,-466.86,515.93
22680,-3.8745,0.9706,0.1764,179.93,-779.36,219.06
22690,-3.8746,0.9723,0.1740,242.43,-1419.98,-202.82
22700,-3.8746,0.9755,0.1755,461.18,-1732.48,-468.44
22710,-3.8746,0.9779,0.1787,867.43,-1529.36,-546.57
22720,-3.8746,0.9775,0.1809,1179.93,-1123.11,-640.32
22730,-3.8746,0.9763,0.1815,1133.06,-841.86,-624.69
22740,-3.8746,0.9755,0.1809,976.81,-763.73,-437.19
22750,-3.8746,0.9739,0.1793,867.43,-841.86,-359.07
22760,-3.8746,0.9735,0.1787,664.31,-1044.98,-468.44
22770,-3.8746,0.9739,0.1803,617.43,-1123.11,-562.19
22780,-3.8746,0.9728,0.1836,664.31,-919.98,-468.44
22790,-3.8746,0.9712,0.1849,523.68,-498.11,-171.57
22800,-3.8746,0.9698,0.1815,320.56,-326.23,-93.44
22810,-3.8746,0.9694,0.1775,148.68,-763.73,-390.32
22820,-3.8746,0.9698,0.1777,86.18,-1279.36,-734.07
22830,-3.8746,0.9708,0.1815,148.68,-1248.11,-859.07
22840,-3.8746,0.9716,0.1841,273.68,-763.73,-624.69
22850,-3.8746,0.9723,0.1812,367.43,-435.61,-390.32
22860,-3.8746,0.9724,0.1726,461.18,-810.61,-671.57
22870,-3.8746,0.9717,0.1670,476.81,-1904.36,-1421.57
22880,-3.8746,0.9736,0.1722,383.06,1376.89,-1984.07
22890,-3.8746,0.9794,0.1841,633.06,-1951.23,-1859.07
22900,-3.8746,0.9874,0.1936,1367.43,-435.61,-1327.82
22910,-3.8746,0.9949,0.1938,-1601.32,783.14,-1077.76
22920,-3.8746,0.9969,0.1859,-648.19,814.39,-1187.13
22930,-3.8746,0.9932,0.1786,-382.57,-201.23,-1374.69
22940,-3.8746,0.9880,0.1792,-866.94,-1138.73,-1515.32
22950,-3.8746,0.9838,0.1859,-1523.19,-1060.61,-1265.32
22960,-3.8746,0.9808,0.1909,1929.93,-201.23,-562.19
22970,-3.8745,0.9810,0.1897,1554.93,439.39,203.49
22980,-3.8745,0.9810,0.1848,1570.56,283.14,500.37
22990,-3.8745,0.9780,0.1805,1570.56,-341.86,406.56
23000,-3.8745,0.9735,0.1807,1195.56,-888.73,390.93
23010,-3.8745,0.9707,0.1846,617.43,-873.11,515.93
23020,-3.8745,0.9708,0.1874,258.06,-373.11,734.68
23030,-3.8745,0.9731,0.1860,273.68,-13.73,984.68
23040,-3.8745,0.9747,0.1823,570.56,-185.61,922.18
23050,-3.8745,0.9741,0.1796,773.68,-669.98,594.06
23060,-3.8745,0.9716,0.1804,695.56,-1013.73,312.81
23070,-3.8745,0.9685,0.1827,367.43,-904.36,265.93
23080,-3.8745,0.9661,0.1852,-23.19,-607.54,375.31
23090,-3.8745,0.9652,0.1870,-335.69,-295.04,406.56
23100,-3.8745,0.9669,0.1871,-445.07,-60.67,219.06
23110,-3.8746,0.9701,0.1858,-226.32,-45.04,-30.94
23120,-3.8746,0.9736,0.1852,179.93,-216.86,-249.69
23130,-3.8746,0.9762,0.1874,633.06,-294.98,-437.19
23140,-3.8746,0.9779,0.1908,961.18,-13.73,-468.44
23150,-3.8746,0.9800,0.1927,1179.93,423.77,-499.63
23160,-3.8746,0.9821,0.1932,1445.56,673.77,-562.13
23170,-3.8746,0.9825,0.1917,1711.18,736.27,-577.76
23180,-3.8746,0.9810,0.1882,1773.68,533.14,-640.26
23190,-3.8746,0.9780,0.1858,1570.56,95.64,-718.38
23200,-3.8746,0.9755,0.1852,1195.56,-216.86,-718.44
23210,-3.8746,0.9718,0.1855,867.43,-294.98,-671.57
23220,-3.8746,0.9673,0.1881,398.68,-248.11,-437.19
23230,-3.8746,0.9659,0.1917,-179.44,79.96,-77.76
23240,-3.8745,0.9668,0.1924,-351.32,533.08,187.87
23250,-3.8745,0.9689,0.1884,-241.94,626.83,125.37
23260,-3.8746,0.9714,0.1824,23.68,111.27,-140.26
23270,-3.8746,0.9716,0.1791,351.81,-654.36,-484.07
23280,-3.8746,0.9695,0.1798,367.43,-1076.23,-843.44
23290,-3.8746,0.9683,0.1831,101.81,-982.48,-1046.57
23300,-3.8746,0.9686,0.1875,-54.44,-560.67,-937.19
23310,-3.8746,0.9713,0.1917,-7.57,1.83,-796.51
23320,-3.8746,0.9761,0.1940,336.18,533.14,-859.01
23330,-3.8746,0.9800,0.1927,945.56,830.02,-890.26
23340,-3.8746,0.9813,0.1906,1445.56,673.77,-765.26
23350,-3.8746,0.9800,0.1907,1617.43,392.52,-593.38
23360,-3.8746,0.9771,0.1924,1445.56,408.14,-405.88
23370,-3.8746,0.9750,0.1926,1070.56,626.89,-62.13
23380,-3.8745,0.9745,0.1891,804.93,658.14,140.99
23390,-3.8746,0.9744,0.1829,742.43,205.02,-62.13
23400,-3.8746,0.9742,0.1782,726.81,-591.86,-421.57
