timestamp_ms,ax,ay,az,gx,gy,gz
0,-3.8743,0.2074,0.9536,-1820.07,-1140.26,-1295.04
10,-3.8743,0.2085,0.9495,-1445.07,-1937.13,1814.33
20,-3.8743,0.2075,0.9451,-1304.44,1531.62,673.71
30,-3.8743,0.2070,0.9409,-1429.44,969.12,64.33
40,-3.8743,0.2084,0.9402,-1491.94,437.87,298.71
50,-3.8743,0.2087,0.9456,-1320.07,344.12,970.58
60,-3.8743,0.2065,0.9572,-1273.19,1031.62,1704.96
70,-3.8743,0.2031,0.9690,-1554.44,-1484.01,-1451.29
80,-3.8743,0.2014,0.9734,-1991.94,31.62,-716.86
90,-3.8743,0.2048,0.9702,1789.31,594.12,-560.61
100,-3.8743,0.2125,0.9629,-1773.19,187.87,-1154.36
110,-3.8743,0.2212,0.9546,-788.82,-749.63,1892.46
120,-3.8743,0.2278,0.9500,320.56,-1812.07,1158.08
130,-3.8743,0.2290,0.9524,1164.31,1594.18,970.58
140,-3.8743,0.2240,0.9607,1320.56,1906.68,1204.96
150,-3.8743,0.2169,0.9679,679.93,-1030.82,1533.08
160,-3.8743,0.2118,0.9677,-226.32,-109.01,1626.83
170,-3.8743,0.2108,0.9612,-882.57,-140.26,1158.08
180,-3.8743,0.2141,0.9563,-1007.57,-968.38,189.33
190,-3.8744,0.2183,0.9552,-585.69,-1593.38,-607.54
200,-3.8744,0.2203,0.9531,-54.44,-1734.01,-857.54
210,-3.8744,0.2190,0.9501,211.18,-1999.57,-732.54
220,-3.8744,0.2145,0.9501,39.31,1609.80,-326.29
230,-3.8743,0.2081,0.9528,-538.82,1609.74,314.33
240,-3.8743,0.2015,0.9539,-1351.32,1953.49,986.21
250,-3.8743,0.1976,0.9523,1804.93,-1905.88,1439.33
260,-3.8743,0.1974,0.9506,1304.93,1890.99,1439.33
270,-3.8743,0.1993,0.9503,1273.68,1672.24,1142.46
280,-3.8743,0.2023,0.9512,1523.68,1640.99,923.71
290,-3.8743,0.2057,0.9498,1898.68,1750.37,845.58
300,-3.8743,0.2089,0.9438,-1663.82,1578.49,579.96
310,-3.8743,0.2103,0.9351,-1257.57,812.87,1.83
320,-3.8744,0.2086,0.9304,-1070.07,-312.13,-404.48
330,-3.8744,0.2043,0.9355,-1288.82,-905.88,-310.73
340,-3.8743,0.1996,0.9462,-1835.69,-249.63,189.27
350,-3.8743,0.1964,0.9573,1554.93,1109.74,783.08
360,-3.8743,0.1969,0.9664,1148.68,-1468.38,1267.46
370,-3.8743,0.2009,0.9702,1211.18,-296.51,1517.46
380,-3.8743,0.2070,0.9653,1726.81,187.87,1376.89
390,-3.8743,0.2131,0.9540,-1491.94,-437.13,689.33
400,-3.8744,0.2175,0.9420,-710.69,-1890.26,-529.42
410,-3.8744,0.2207,0.9352,-148.19,578.49,-1607.54
420,-3.8744,0.2205,0.9349,258.06,-296.45,-1888.85
430,-3.8744,0.2162,0.9410,226.81,-327.70,-1435.73
440,-3.8744,0.2124,0.9503,-320.07,453.49,-685.67
450,-3.8743,0.2118,0.9573,-804.44,1640.99,33.08
460,-3.8743,0.2136,0.9595,-882.57,-1468.38,517.46
470,-3.8743,0.2153,0.9574,-648.19,-1187.13,533.08
480,-3.8743,0.2158,0.9554,-429.44,-1452.76,95.58
490,-3.8744,0.2164,0.9556,-366.94,-1702.76,-326.29
500,-3.8744,0.2183,0.9532,-288.82,-1687.13,-295.04
510,-3.8743,0.2200,0.9473,-54.44,-1984.01,33.08
520,-3.8743,0.2192,0.9430,164.31,1250.43,189.33
530,-3.8743,0.2133,0.9447,70.56,703.55,173.71
540,-3.8743,0.2051,0.9502,-695.07,922.24,126.83
550,-3.8743,0.2013,0.9531,-1741.94,1625.37,158.08
560,-3.8743,0.2050,0.9485,1773.68,-1999.63,189.33
570,-3.8744,0.2128,0.9395,-1757.57,1406.62,-138.79
580,-3.8744,0.2180,0.9364,-757.57,250.37,-670.04
590,-3.8744,0.2170,0.9442,-85.69,-140.26,-779.48
600,-3.8744,0.2117,0.9584,-210.69,859.74,-76.29
610,-3.8743,0.2074,0.9697,-898.19,-1327.76,1126.83
620,-3.8743,0.2063,0.9717,-1445.07,125.37,-1966.86
630,-3.8743,0.2075,0.9651,-1585.69,375.37,-1935.61
640,-3.8743,0.2101,0.9558,-1429.44,-468.38,1376.83
650,-3.8743,0.2150,0.9470,-1101.32,-1655.88,548.71
660,-3.8744,0.2223,0.9406,-476.32,1219.12,-310.67
670,-3.8744,0.2279,0.9385,461.18,391.05,-1013.79
680,-3.8744,0.2283,0.9415,1179.93,125.43,-1295.04
690,-3.8744,0.2233,0.9485,1226.81,516.05,-1107.54
700,-3.8744,0.2153,0.9550,586.18,1406.68,-373.17
710,-3.8743,0.2068,0.9567,-429.44,-1765.26,595.58
720,-3.8743,0.2001,0.9531,-1523.19,-1546.51,1189.33
730,-3.8743,0.1954,0.9497,1617.43,-1999.63,1345.58
740,-3.8743,0.1927,0.9496,1023.68,1562.87,1298.71
750,-3.8743,0.1946,0.9513,679.93,1547.24,1017.46
760,-3.8743,0.2015,0.9525,914.31,1765.99,689.33
770,-3.8743,0.2109,0.9547,1804.93,1922.24,298.71
780,-3.8743,0.2197,0.9585,-991.94,-1796.51,79.96
790,-3.8743,0.2252,0.9586,133.06,-1312.07,173.71
800,-3.8743,0.2261,0.9547,836.18,-1296.45,220.58
810,-3.8744,0.2222,0.9510,945.56,-1796.45,-13.79
820,-3.8744,0.2156,0.9526,445.56,1734.80,-420.04
830,-3.8744,0.2104,0.9580,-398.19,1937.87,-513.79
840,-3.8744,0.2102,0.9614,-1054.44,-1374.63,-138.79
850,-3.8743,0.2134,0.9595,-1085.69,-937.13,95.58
860,-3.8744,0.2162,0.9548,-679.44,-1187.13,-185.67
870,-3.8744,0.2155,0.9537,-320.07,-1780.88,-670.04
880,-3.8744,0.2122,0.9564,-413.82,-1921.51,-998.17
890,-3.8744,0.2104,0.9568,-835.69,-1577.76,-1045.04
900,-3.8744,0.2098,0.9524,-1054.44,-1530.88,-998.17
910,-3.8744,0.2073,0.9469,-1132.57,1906.62,-1185.67
920,-3.8744,0.2025,0.9457,-1460.69,1203.49,-1623.17
930,-3.8744,0.1987,0.9492,1929.93,1047.24,-1935.67
940,-3.8744,0.1986,0.9554,1445.56,1500.37,-1701.29
950,-3.8744,0.2017,0.9604,1429.93,-1702.76,-779.42
960,-3.8743,0.2042,0.9606,1820.56,-1062.13,204.96
970,-3.8743,0.2035,0.9556,-1851.32,-1046.51,454.96
980,-3.8744,0.2004,0.9485,-1945.07,-1687.13,-185.67
990,-3.8744,0.1986,0.9436,1664.31,1406.62,-1295.04
1000,-3.8744,0.2002,0.9434,1429.93,781.62,1595.58
1010,-3.8744,0.2036,0.9479,1633.06,750.37,908.08
1020,-3.8744,0.2063,0.9534,-1929.44,1328.49,751.83
1030,-3.8744,0.2075,0.9548,-1585.69,-1968.38,1189.33
1040,-3.8744,0.2075,0.9523,-1429.44,-1780.88,-1982.54
1050,-3.8744,0.2058,0.9497,-1429.44,1890.99,-1326.29
1060,-3.8744,0.2028,0.9508,-1648.19,1562.87,-1060.67
1070,-3.8744,0.2001,0.9562,1961.18,1703.49,-998.17
1080,-3.8744,0.1991,0.9602,1617.43,-1609.01,-904.42
1090,-3.8744,0.2008,0.9591,1492.43,-1093.38,-951.29
1100,-3.8744,0.2037,0.9540,1711.18,-1234.01,-1388.79
1110,-3.8744,0.2054,0.9508,-1913.82,-1890.26,1970.58
1120,-3.8744,0.2046,0.9529,-1695.07,1703.49,1564.33
1130,-3.8744,0.2028,0.9563,-1804.44,1969.12,1814.33
1140,-3.8744,0.2015,0.9565,1961.18,-1593.38,-1482.54
1150,-3.8744,0.2020,0.9548,1804.93,-1562.13,-904.42
1160,-3.8744,0.2028,0.9552,1867.43,-1780.88,-654.42
1170,-3.8744,0.2020,0.9587,1961.18,-1734.01,-654.42
1180,-3.8744,0.2021,0.9631,1867.43,-1280.88,-701.29
1190,-3.8744,0.2047,0.9633,1883.06,-718.38,-779.42
1200,-3.8744,0.2095,0.9581,-1788.82,-702.76,-966.92
1210,-3.8744,0.2142,0.9517,-1179.44,-1359.01,-1310.67
1220,-3.8744,0.2156,0.9496,-570.07,1812.87,-1795.04
1230,-3.8744,0.2145,0.9552,-398.19,1547.24,-1920.04
1240,-3.8744,0.2137,0.9642,-538.82,-1734.01,-1326.29
1250,-3.8744,0.2145,0.9698,-632.57,-577.76,-357.54
1260,-3.8743,0.2158,0.9691,-538.82,140.99,314.39
1270,-3.8743,0.2161,0.9658,-366.94,47.24,392.52
1280,-3.8743,0.2147,0.9641,-335.69,-374.63,142.46
1290,-3.8744,0.2141,0.9631,-507.57,-593.38,-60.67
1300,-3.8744,0.2158,0.9604,-585.69,-718.38,-216.92
1310,-3.8744,0.2180,0.9565,-366.94,-1062.13,-623.17
1320,-3.8744,0.2185,0.9548,-85.69,-1562.13,-1248.17
1330,-3.8744,0.2172,0.9567,-23.19,-1780.88,-1748.17
1340,-3.8744,0.2167,0.9589,-195.07,-1546.51,-1935.67
1350,-3.8744,0.2188,0.9585,-257.57,-1265.26,-1748.17
1360,-3.8744,0.2216,0.9552,8.06,-1312.07,-1607.54
1370,-3.8744,0.2233,0.9523,367.43,-1733.95,-1810.67
1380,-3.8744,0.2212,0.9562,586.18,1891.05,1954.96
1390,-3.8744,0.2179,0.9666,320.56,-1608.95,-1763.79
1400,-3.8744,0.2173,0.9751,-101.32,-280.88,-841.92
1410,-3.8744,0.2188,0.9758,-179.44,812.87,-76.23
1420,-3.8743,0.2197,0.9681,8.06,906.68,33.14
1430,-3.8744,0.2184,0.9568,133.06,-77.70,-420.04
1440,-3.8744,0.2155,0.9482,-38.82,-1530.88,-1185.67
1450,-3.8744,0.2119,0.9460,-413.82,1375.37,-1873.17
1460,-3.8744,0.2101,0.9474,-866.94,1094.12,1704.96
1470,-3.8744,0.2115,0.9480,-1101.32,1265.99,1501.83
1480,-3.8744,0.2135,0.9464,-913.82,1344.12,1579.96
1490,-3.8744,0.2146,0.9446,-663.82,1140.99,1783.08
1500,-3.8744,0.2147,0.9443,-523.19,906.62,1829.96
1510,-3.8744,0.2146,0.9460,-507.57,875.37,1720.58
1520,-3.8744,0.2161,0.9478,-523.19,1094.12,1642.46
1530,-3.8744,0.2191,0.9469,-335.69,1312.87,1564.33
1540,-3.8744,0.2198,0.9463,54.93,1203.55,1470.58
1550,-3.8744,0.2172,0.9493,148.68,1125.43,1408.08
1560,-3.8744,0.2117,0.9546,-195.07,1515.99,1439.33
1570,-3.8744,0.2053,0.9591,-898.19,-1812.13,1595.58
1580,-3.8744,0.2024,0.9614,-1710.69,-1234.01,1689.33
1590,-3.8744,0.2063,0.9624,1914.31,-937.13,1642.46
1600,-3.8744,0.2158,0.9612,-1585.69,-812.13,1501.83
1610,-3.8744,0.2251,0.9584,-366.94,-968.38,1329.96
1620,-3.8744,0.2294,0.9573,820.56,-1327.70,1204.96
1630,-3.8744,0.2278,0.9594,1367.43,-1468.32,1158.08
1640,-3.8744,0.2236,0.9626,1164.31,-1202.70,1314.33
1650,-3.8744,0.2198,0.9630,633.06,-780.82,1736.21
1660,-3.8744,0.2151,0.9586,148.68,-733.95,1845.58
1670,-3.8744,0.2085,0.9535,-460.69,-1296.51,1501.83
1680,-3.8744,0.2031,0.9503,-1304.44,-1952.76,1033.08
1690,-3.8744,0.2010,0.9480,-1991.94,1640.99,673.71
1700,-3.8744,0.2014,0.9443,1742.43,1344.12,423.71
1710,-3.8744,0.2023,0.9403,1789.31,875.37,345.58
1720,-3.8744,0.2008,0.9384,1898.68,359.74,283.08
1730,-3.8744,0.1974,0.9396,1711.18,109.74,251.83
1740,-3.8744,0.1943,0.9453,1273.68,265.99,517.46
1750,-3.8744,0.1931,0.9552,883.06,1000.37,1017.46
1760,-3.8744,0.1949,0.9636,726.81,-1734.01,1595.58
1770,-3.8744,0.2004,0.9655,961.18,-655.88,-1873.17
1780,-3.8744,0.2078,0.9620,1664.31,-421.51,-1576.29
1790,-3.8744,0.2137,0.9580,-1398.19,-859.01,-1623.17
1800,-3.8744,0.2177,0.9543,-632.57,-1374.63,-1951.29
1810,-3.8744,0.2198,0.9493,-132.57,-1843.38,1689.33
1820,-3.8744,0.2198,0.9463,148.68,1516.05,1595.58
1830,-3.8744,0.2178,0.9485,148.68,1125.43,1814.33
1840,-3.8744,0.2148,0.9536,-116.94,1406.62,-1654.42
1850,-3.8744,0.2113,0.9590,-491.94,-1937.13,-998.17
1860,-3.8744,0.2086,0.9629,-945.07,-1249.63,-623.17
1870,-3.8744,0.2087,0.9644,-1288.82,-749.63,-326.29
1880,-3.8743,0.2104,0.9634,-1273.19,-562.13,79.96
1890,-3.8743,0.2123,0.9618,-1054.44,-687.13,423.71
1900,-3.8743,0.2130,0.9609,-820.07,-890.26,517.46
1910,-3.8743,0.2123,0.9601,-726.32,-999.63,392.46
1920,-3.8743,0.2108,0.9581,-820.07,-1109.01,33.08
1930,-3.8744,0.2100,0.9551,-1007.57,-1359.01,-623.17
1940,-3.8744,0.2100,0.9537,-1116.94,-1749.63,-1404.42
1950,-3.8744,0.2113,0.9543,-1116.94,-1921.51,1954.96
1960,-3.8744,0.2139,0.9548,-945.07,-1843.38,1611.21
1970,-3.8744,0.2152,0.9546,-616.94,-1780.88,1501.83
1980,-3.8744,0.2136,0.9559,-445.07,-1812.13,1517.46
1990,-3.8744,0.2108,0.9606,-648.19,-1640.26,1626.83
2000,-3.8744,0.2095,0.9651,-1007.57,-1046.51,1908.08
2010,-3.8744,0.2103,0.9667,-1179.44,-468.38,-1654.42
2020,-3.8744,0.2117,0.9656,-1070.07,-265.26,-1388.79
2030,-3.8744,0.2129,0.9613,-898.19,-405.88,-1357.54
2040,-3.8744,0.2145,0.9553,-741.94,-952.76,-1420.04
2050,-3.8744,0.2152,0.9510,-538.82,-1718.38,-1482.54
2060,-3.8744,0.2141,0.9487,-445.07,1734.74,-1560.67
2070,-3.8744,0.2119,0.9481,-585.69,1437.87,-1732.54
2080,-3.8744,0.2098,0.9489,-866.94,1359.74,-1982.54
2090,-3.8744,0.2086,0.9501,-1132.57,1453.49,1783.08
2100,-3.8744,0.2090,0.9510,-1288.82,1609.74,1564.33
2110,-3.8744,0.2106,0.9515,-1241.94,1734.74,1376.83
2120,-3.8744,0.2131,0.9526,-1038.82,1797.24,1251.83
2130,-3.8744,0.2139,0.9542,-710.69,1937.87,1267.46
2140,-3.8744,0.2120,0.9558,-616.94,-1859.01,1376.83
2150,-3.8744,0.2094,0.9568,-851.32,-1655.88,1470.58
2160,-3.8744,0.2075,0.9567,-1195.07,-1530.88,1501.83
2170,-3.8744,0.2086,0.9562,-1429.44,-1546.51,1392.46
2180,-3.8744,0.2124,0.9556,-1288.82,-1609.01,1236.21
2190,-3.8744,0.2153,0.9548,-804.44,-1687.13,1111.21
2200,-3.8744,0.2148,0.9534,-429.44,-1780.88,1017.46
2210,-3.8744,0.2123,0.9520,-491.94,-1968.38,892.46
2220,-3.8744,0.2097,0.9510,-820.07,1859.74,704.96
2230,-3.8744,0.2090,0.9484,-1148.19,1734.74,423.71
2240,-3.8744,0.2106,0.9435,-1241.94,1390.99,48.71
2250,-3.8745,0.2141,0.9393,-1038.82,765.99,-295.04
2260,-3.8745,0.2180,0.9396,-585.69,234.74,-482.54
2270,-3.8745,0.2202,0.9454,-85.69,265.99,-279.42
2280,-3.8744,0.2197,0.9546,195.56,1016.05,454.96
2290,-3.8744,0.2177,0.9625,133.06,-1812.07,1486.21
2300,-3.8744,0.2139,0.9664,-132.57,-796.51,-1435.67
2310,-3.8744,0.2117,0.9663,-616.94,-296.51,-841.92
2320,-3.8744,0.2142,0.9619,-898.19,-312.13,-966.92
2330,-3.8744,0.2196,0.9559,-570.07,-874.63,-1466.92
2340,-3.8744,0.2247,0.9525,117.43,-1640.20,1736.21
2350,-3.8744,0.2274,0.9519,773.68,1922.30,814.33
2360,-3.8744,0.2281,0.9535,1117.43,1844.18,79.96
2370,-3.8745,0.2285,0.9563,1211.18,-1952.70,-201.29
2380,-3.8745,0.2296,0.9585,1258.06,-1593.32,-76.29
2390,-3.8744,0.2312,0.9602,1398.68,-1312.07,204.96
2400,-3.8744,0.2314,0.9619,1601.81,-1093.32,658.08
2410,-3.8744,0.2294,0.9629,1633.06,-874.57,1423.71
2420,-3.8744,0.2262,0.9614,1367.43,-749.57,-1701.29
2430,-3.8744,0.2212,0.9587,961.18,-937.07,-1091.92
2440,-3.8744,0.2142,0.9578,320.56,-1280.82,-795.04
2450,-3.8744,0.2084,0.9569,-570.07,-1405.88,-748.17
2460,-3.8744,0.2058,0.9539,-1320.07,-1515.26,-1091.92
2470,-3.8744,0.2064,0.9481,-1648.19,-1905.88,-1763.79
2480,-3.8744,0.2090,0.9427,-1570.07,1359.74,1423.71
2490,-3.8744,0.2115,0.9426,-1241.94,672.24,704.96
2500,-3.8744,0.2145,0.9490,-913.82,656.62,392.46
2510,-3.8744,0.2186,0.9579,-538.82,1469.12,689.33
2520,-3.8744,0.2220,0.9646,-7.57,-1390.26,1392.46
2530,-3.8744,0.2225,0.9656,429.93,-530.82,1939.33
2540,-3.8744,0.2201,0.9611,492.43,-405.82,-1951.29
2550,-3.8744,0.2174,0.9546,179.93,-983.95,1689.33
2560,-3.8744,0.2167,0.9515,-163.82,-1812.13,1017.46
2570,-3.8744,0.2185,0.9520,-257.57,1797.24,579.96
2580,-3.8744,0.2206,0.9534,-23.19,1859.74,564.33
2590,-3.8744,0.2213,0.9546,242.43,-1968.32,845.58
2600,-3.8744,0.2201,0.9553,336.18,-1812.07,1314.33
2610,-3.8744,0.2174,0.9561,179.93,-1718.32,1751.83
2620,-3.8744,0.2141,0.9579,-163.82,-1624.63,1908.08
2630,-3.8744,0.2108,0.9606,-585.69,-1390.26,1829.96
2640,-3.8744,0.2092,0.9624,-1007.57,-1046.51,1736.21
2650,-3.8744,0.2111,0.9612,-1210.69,-812.13,1642.46
2660,-3.8744,0.2145,0.9568,-976.32,-968.38,1392.46
2670,-3.8744,0.2156,0.9512,-538.82,-1530.88,861.21
2680,-3.8744,0.2151,0.9465,-398.19,1750.37,345.58
2690,-3.8745,0.2140,0.9447,-460.69,1156.62,-91.92
2700,-3.8745,0.2114,0.9457,-601.32,922.24,-545.04
2710,-3.8745,0.2084,0.9502,-929.44,1047.24,-732.54
2720,-3.8745,0.2059,0.9575,-1320.07,1625.37,-482.54
2730,-3.8744,0.2047,0.9637,-1632.57,-1437.13,220.58
2740,-3.8744,0.2051,0.9678,-1788.82,-640.26,1017.46
2750,-3.8744,0.2078,0.9689,-1741.94,-124.63,1579.96
2760,-3.8744,0.2118,0.9658,-1398.19,15.99,1970.64
2770,-3.8744,0.2141,0.9619,-882.57,-374.63,-1935.67
2780,-3.8744,0.2129,0.9596,-585.69,-874.63,1892.46
2790,-3.8744,0.2103,0.9580,-741.94,-1171.51,1845.58
2800,-3.8744,0.2079,0.9556,-1070.07,-1374.63,1939.33
2810,-3.8744,0.2045,0.9520,-1382.57,-1687.13,1658.08
2820,-3.8744,0.2008,0.9487,-1820.07,1859.74,1079.96
2830,-3.8744,0.1970,0.9481,1711.18,1437.87,736.21
2840,-3.8744,0.1940,0.9506,1226.81,1359.74,689.33
2850,-3.8744,0.1936,0.9542,836.18,1672.24,704.96
2860,-3.8744,0.1969,0.9587,789.31,-1859.01,861.21
2870,-3.8744,0.2028,0.9628,1211.18,-1280.88,1251.83
2880,-3.8744,0.2076,0.9635,1961.18,-765.26,1704.96
2890,-3.8744,0.2103,0.9604,-1413.82,-671.51,1829.96
2900,-3.8744,0.2111,0.9569,-1070.07,-1062.13,1673.71
2910,-3.8744,0.2091,0.9561,-976.32,-1515.26,1642.46
2920,-3.8744,0.2064,0.9564,-1226.32,-1624.63,1626.83
2930,-3.8744,0.2045,0.9550,-1570.07,-1577.76,1501.83
2940,-3.8744,0.2029,0.9508,-1820.07,-1765.26,1283.08
2950,-3.8744,0.2003,0.9458,1976.81,1703.49,861.21
2960,-3.8744,0.1973,0.9432,1648.68,1062.87,454.96
2970,-3.8744,0.1974,0.9467,1258.06,734.74,314.33
2980,-3.8744,0.2018,0.9561,1273.68,1172.24,564.33
2990,-3.8744,0.2087,0.9658,1836.18,-1624.63,1173.71
3000,-3.8744,0.2162,0.9701,-1273.19,-374.63,1845.58
3010,-3.8744,0.2220,0.9677,-320.07,172.24,-1841.86
3020,-3.8744,0.2255,0.9622,429.93,-140.20,1861.21
3030,-3.8744,0.2260,0.9573,867.43,-843.32,1111.21
3040,-3.8744,0.2247,0.9548,929.93,-1468.32,251.83
3050,-3.8745,0.2238,0.9557,773.68,-1780.82,-404.42
3060,-3.8745,0.2236,0.9579,648.68,-1671.45,-670.04
3070,-3.8745,0.2236,0.9600,633.06,-1390.20,-670.04
3080,-3.8745,0.2218,0.9631,633.06,-1124.57,-341.92
3090,-3.8744,0.2191,0.9672,398.68,-718.32,267.46
3100,-3.8744,0.2169,0.9695,54.93,-202.70,845.58
3110,-3.8744,0.2163,0.9668,-226.32,94.12,1158.14
3120,-3.8744,0.2185,0.9591,-304.44,-249.63,1126.83
3130,-3.8744,0.2222,0.9503,-23.19,-1234.01,673.71
3140,-3.8744,0.2244,0.9448,445.56,1641.05,33.08
3150,-3.8745,0.2235,0.9443,726.81,937.93,-357.54
3160,-3.8745,0.2207,0.9476,617.43,875.43,-404.42
3170,-3.8745,0.2172,0.9518,258.06,1297.30,-279.42
3180,-3.8745,0.2152,0.9548,-195.07,1828.49,-76.29
3190,-3.8744,0.2150,0.9564,-445.07,-1780.88,283.08
3200,-3.8744,0.2148,0.9576,-476.32,-1577.76,736.21
3210,-3.8744,0.2168,0.9594,-491.94,-1421.51,1111.21
3220,-3.8744,0.2205,0.9612,-241.94,-1202.76,1345.58
3230,-3.8744,0.2236,0.9625,226.81,-968.32,1501.83
3240,-3.8744,0.2253,0.9620,633.06,-796.45,1439.33
3250,-3.8744,0.2255,0.9587,851.81,-858.95,1064.33
3260,-3.8744,0.2255,0.9554,867.43,-1280.82,470.58
3270,-3.8745,0.2246,0.9551,867.43,-1702.70,-185.67
3280,-3.8745,0.2229,0.9572,758.06,-1749.57,-654.42
3290,-3.8745,0.2220,0.9590,539.31,-1483.95,-638.79
3300,-3.8745,0.2223,0.9586,429.93,-1249.57,-373.17
3310,-3.8745,0.2224,0.9584,461.18,-1296.45,-185.67
3320,-3.8745,0.2211,0.9600,476.81,-1327.70,-91.92
3330,-3.8744,0.2186,0.9607,304.93,-1124.57,126.83
3340,-3.8744,0.2167,0.9592,-7.57,-1030.88,642.46
3350,-3.8744,0.2144,0.9579,-257.57,-1218.38,954.96
3360,-3.8744,0.2108,0.9601,-554.44,-1390.26,720.58
3370,-3.8744,0.2072,0.9661,-1007.57,-1109.01,267.46
3380,-3.8744,0.2057,0.9707,-1476.32,-343.38,95.58
3390,-3.8744,0.2089,0.9691,-1663.82,250.37,283.14
3400,-3.8744,0.2145,0.9619,-1257.57,47.24,298.77
3410,-3.8745,0.2184,0.9568,-538.82,-874.63,-91.92
3420,-3.8745,0.2164,0.9591,-38.82,-1530.88,-513.79
3430,-3.8745,0.2106,0.9644,-288.82,-1234.01,-529.42
3440,-3.8744,0.2058,0.9668,-1038.82,-562.13,79.96
3450,-3.8744,0.2039,0.9645,-1648.19,-249.63,908.08
3460,-3.8744,0.2032,0.9602,-1898.19,-546.51,1376.83
3470,-3.8744,0.2009,0.9609,-1976.32,-1093.38,1501.83
3480,-3.8744,0.1965,0.9653,1726.81,-999.63,1564.33
3490,-3.8744,0.1925,0.9655,1164.31,-437.13,1751.83
3500,-3.8744,0.1902,0.9591,648.68,-421.51,1892.46
3510,-3.8744,0.1888,0.9514,351.81,-1234.01,1658.08
3520,-3.8744,0.1874,0.9480,179.93,1781.62,1158.08
3530,-3.8744,0.1881,0.9493,-7.57,1344.06,1048.71
3540,-3.8744,0.1925,0.9515,86.18,1515.99,1517.46
3550,-3.8744,0.1979,0.9553,648.68,1797.24,-1935.67
3560,-3.8744,0.2032,0.9613,1336.18,-1718.38,-1576.29
3570,-3.8744,0.2097,0.9644,-1976.32,-952.76,-1263.79
3580,-3.8744,0.2170,0.9624,-1148.19,-562.13,-951.29
3590,-3.8744,0.2239,0.9602,-210.69,-812.13,-1045.04
3600,-3.8744,0.2280,0.9604,664.31,-1093.32,-1560.67
3610,-3.8744,0.2277,0.9604,1195.56,-1062.07,-1935.67
3620,-3.8744,0.2230,0.9573,1148.68,-1062.07,1798.71
3630,-3.8744,0.2159,0.9531,554.93,-1468.32,1470.58
3640,-3.8744,0.2059,0.9524,-351.32,-1999.63,1142.46
3650,-3.8744,0.1940,0.9554,-1632.57,1906.62,1048.71
3660,-3.8744,0.1836,0.9597,836.18,-1702.76,1126.83
3670,-3.8744,0.1785,0.9618,-491.94,-1155.94,1079.96
3680,-3.8744,0.1788,0.9596,-1148.19,-890.32,767.46
3690,-3.8744,0.1821,0.9551,-1101.32,-1171.57,158.08
3700,-3.8745,0.1860,0.9503,-679.44,-1749.69,-576.29
3710,-3.8745,0.1885,0.9460,-179.44,1640.93,-1295.04
3720,-3.8745,0.1902,0.9425,133.06,1094.12,-1935.67
3730,-3.8745,0.1904,0.9388,351.81,640.99,1392.46
3740,-3.8745,0.1871,0.9355,383.06,172.24,751.83
3750,-3.8745,0.1816,0.9335,-38.82,-249.69,283.02
3760,-3.8745,0.1772,0.9341,-741.94,-515.32,111.15
3770,-3.8745,0.1771,0.9382,-1304.44,-437.19,283.02
3780,-3.8745,0.1818,0.9442,-1320.07,94.06,642.46
3790,-3.8745,0.1913,0.9518,-726.32,859.68,1111.21
3800,-3.8745,0.2028,0.9611,492.43,1828.49,1720.58
3810,-3.8745,0.2122,0.9701,1961.18,-984.01,-1420.04
3820,-3.8745,0.2186,0.9769,-835.69,172.24,-435.61
3830,-3.8744,0.2229,0.9812,-7.57,1047.24,423.77
3840,-3.8744,0.2250,0.9839,539.31,1594.18,1017.52
3850,-3.8744,0.2250,0.9868,804.93,1937.93,1439.39
3860,-3.8744,0.2252,0.9900,804.93,-1687.07,1955.02
3870,-3.8744,0.2268,0.9933,836.18,-1280.82,-1341.86
3880,-3.8744,0.2295,0.9985,1039.31,-858.95,-576.23
3890,-3.8743,0.2318,1.0055,1383.06,-187.07,361.27
3900,-3.8743,0.2322,1.0099,1679.93,703.55,1564.45
3910,-3.8743,0.2295,1.0081,1726.81,1266.05,-1435.55
3920,-3.8743,0.2227,1.0013,1383.06,1031.68,-1060.55
3930,-3.8743,0.2139,0.9937,508.06,172.30,-1091.80
3940,-3.8743,0.2050,0.9865,-616.94,-812.13,-1279.36
3950,-3.8743,0.1963,0.9774,-1757.57,-1734.01,-1607.48
3960,-3.8743,0.1897,0.9659,1133.06,1109.74,1798.77
3970,-3.8743,0.1851,0.9556,289.31,-359.01,892.46
3980,-3.8744,0.1809,0.9496,-304.44,-1687.19,-154.42
3990,-3.8744,0.1764,0.9482,-835.69,1547.18,-1232.54
4000,-3.8744,0.1730,0.9487,-1413.82,1375.31,1689.33
4010,-3.8744,0.1741,0.9491,-1851.32,1437.81,658.08
4020,-3.8745,0.1803,0.9490,-1710.69,1484.68,-310.67
4030,-3.8745,0.1874,0.9464,-913.82,1469.06,-998.17
4040,-3.8745,0.1920,0.9432,-7.57,1140.93,-1170.04
4050,-3.8745,0.1923,0.9448,586.18,734.74,-920.04
4060,-3.8745,0.1859,0.9520,617.43,937.87,-232.54
4070,-3.8744,0.1766,0.9625,-195.07,1859.68,892.46
4080,-3.8744,0.1709,0.9688,-1382.57,-796.57,1923.71
4090,-3.8744,0.1711,0.9664,1883.06,0.31,-1763.73
4100,-3.8744,0.1777,0.9602,1914.31,-296.57,1673.71
4110,-3.8744,0.1886,0.9551,-1241.94,-1093.44,673.71
4120,-3.8745,0.1997,0.9536,148.68,-1749.63,-279.42
4130,-3.8745,0.2086,0.9548,1570.56,-1937.13,-904.42
4140,-3.8745,0.2122,0.9557,-1288.82,-1780.88,-1045.04
4150,-3.8745,0.2085,0.9557,-835.69,-1671.51,-716.92
4160,-3.8744,0.2000,0.9561,-1304.44,-1671.51,111.21
4170,-3.8744,0.1910,0.9565,1601.81,-1624.63,1236.21
4180,-3.8744,0.1863,0.9568,461.18,-1562.13,-1810.67
4190,-3.8744,0.1892,0.9570,-148.19,-1530.94,-1138.79
4200,-3.8744,0.2006,0.9552,226.81,-1499.63,-841.92
4210,-3.8744,0.2180,0.9504,1679.93,-1734.01,-1107.54
4220,-3.8744,0.2368,0.9445,-85.69,1656.62,-1701.29
4230,-3.8744,0.2504,0.9398,-1679.44,891.05,1486.21
4240,-3.8744,0.2551,0.9381,54.93,297.36,829.96
4250,-3.8744,0.2538,0.9412,664.31,78.61,767.46
4260,-3.8744,0.2480,0.9503,492.43,469.24,1408.08
4270,-3.8744,0.2384,0.9626,-241.94,1641.05,-1310.67
4280,-3.8743,0.2284,0.9741,-1476.32,-780.82,392.46
4290,-3.8743,0.2213,0.9830,1242.43,687.93,-1732.48
4300,-3.8743,0.2178,0.9885,336.18,1828.55,-60.61
4310,-3.8741,0.2166,0.9874,-116.94,-1468.38,783.14
4320,-3.8741,0.2161,0.9789,-273.19,-1609.01,626.89
4330,-3.8743,0.2173,0.9661,-335.69,1297.24,-357.48
4340,-3.8743,0.2230,0.9514,-179.44,-343.38,-1763.79
4350,-3.8743,0.2313,0.9370,554.93,1781.68,767.46
4360,-3.8744,0.2374,0.9270,1617.43,-62.07,-795.10
4370,-3.8744,0.2379,0.9233,-1601.32,-1343.32,1861.15
4380,-3.8744,0.2327,0.9236,-1538.82,-1812.07,1095.52
4390,-3.8744,0.2220,0.9222,1789.31,-1780.82,939.27
4400,-3.8744,0.2079,0.9210,429.93,-1952.70,1236.15
4410,-3.8744,0.1945,0.9233,-1382.57,1890.99,1876.77
4420,-3.8744,0.1864,0.9249,898.68,-1812.13,-1310.73
4430,-3.8744,0.1858,0.9204,-132.57,-1609.07,-904.48
4440,-3.8744,0.1912,0.9081,-210.69,1812.81,-1373.23
4450,-3.8744,0.2002,0.8936,476.81,234.74,1267.40
4460,-3.8745,0.2095,0.8838,1633.06,-1624.63,-826.42
4470,-3.8745,0.2157,0.8811,-1179.44,1125.37,782.96
4480,-3.8746,0.2202,0.8842,-382.57,781.62,-1404.54
4490,-3.8746,0.2252,0.8877,195.56,1172.30,970.46
4500,-3.8748,0.2290,0.8876,836.18,1625.43,-92.04
4510,-3.8748,0.2321,0.8881,1320.56,1609.80,-623.29
4520,-3.8748,0.2352,0.8970,1711.18,1672.30,-576.42
4530,-3.8746,0.2395,0.9149,-1882.57,-1187.07,376.71
4540,-3.8746,0.2441,0.9352,-1335.69,1109.80,-1716.98
4550,-3.8745,0.2468,0.9503,-741.94,-296.45,439.27
4560,-3.8745,0.2460,0.9586,-398.19,1641.05,-1701.29
4570,-3.8745,0.2424,0.9612,-507.57,-1296.45,-529.42
4580,-3.8745,0.2401,0.9607,-960.69,-968.32,-123.17
4590,-3.8745,0.2416,0.9600,-1257.57,-1030.82,-154.42
4600,-3.8745,0.2480,0.9612,-1070.07,-1124.57,-420.04
4610,-3.8745,0.2585,0.9647,-241.94,-968.32,-810.67
4620,-3.8745,0.2703,0.9674,1101.81,-515.14,-1232.54
4630,-3.8745,0.2794,0.9678,-1398.19,-171.39,-1763.79
4640,-3.8745,0.2834,0.9672,-226.32,-124.51,1564.33
4650,-3.8745,0.2836,0.9675,289.31,-202.58,1017.46
4660,-3.8745,0.2821,0.9692,304.93,-155.70,814.33
4670,-3.8745,0.2802,0.9724,117.43,63.05,955.02
4680,-3.8745,0.2777,0.9744,-132.57,469.24,1423.77
4690,-3.8745,0.2742,0.9739,-445.07,719.24,-1654.36
4700,-3.8745,0.2687,0.9746,-898.19,656.74,-216.86
4710,-3.8744,0.2596,0.9800,-1601.32,750.49,1564.39
4720,-3.8744,0.2493,0.9890,1242.43,1437.99,-654.36
4730,-3.8743,0.2406,0.9980,-85.69,-1405.82,830.02
4740,-3.8743,0.2352,1.0040,-1195.07,-249.57,-1998.11
4750,-3.8743,0.2344,1.0049,-1882.57,516.05,-1404.30
4760,-3.8743,0.2382,1.0010,-1991.94,625.43,-1513.67
4770,-3.8743,0.2445,0.9962,-1507.57,125.43,1908.20
4780,-3.8743,0.2483,0.9934,-695.07,-483.95,1033.14
4790,-3.8743,0.2469,0.9915,-210.69,-843.32,17.52
4800,-3.8744,0.2408,0.9885,-382.57,-1093.32,-841.86
4810,-3.8744,0.2308,0.9843,-1163.82,-1468.32,-1576.23
4820,-3.8744,0.2194,0.9800,1554.93,1984.80,1611.27
4830,-3.8744,0.2085,0.9771,86.18,1437.93,830.02
4840,-3.8744,0.1989,0.9738,-1304.44,1062.87,95.64
4850,-3.8745,0.1908,0.9679,1461.18,640.99,-623.11
4860,-3.8745,0.1812,0.9600,429.93,-109.01,-1232.54
4870,-3.8745,0.1678,0.9510,-804.44,-1124.69,-1670.04
4880,-3.8745,0.1532,0.9438,1492.43,1734.68,-1732.54
4890,-3.8745,0.1403,0.9423,-382.57,812.74,-1060.67
4900,-3.8744,0.1305,0.9478,1961.18,609.62,314.33
4910,-3.8744,0.1260,0.9590,711.18,1312.74,-1966.92
4920,-3.8744,0.1284,0.9723,133.06,-1249.76,-357.54
4930,-3.8743,0.1367,0.9841,445.56,453.37,970.64
4940,-3.8743,0.1464,0.9932,1508.06,1968.99,-1888.73
4950,-3.8743,0.1548,0.9974,-1257.57,-874.76,-998.11
4960,-3.8743,0.1598,0.9933,-179.44,-327.88,-748.11
4970,-3.8743,0.1593,0.9802,461.18,-859.07,-1732.48
4980,-3.8743,0.1552,0.9617,398.68,1469.06,111.27
4990,-3.8744,0.1495,0.9432,-132.57,-906.01,1298.71
5000,-3.8745,0.1449,0.9302,-851.32,734.62,-1498.17
5010,-3.8745,0.1432,0.9240,-1445.07,-937.26,361.15
5020,-3.8746,0.1436,0.9218,-1663.82,-1734.13,-982.60
5030,-3.8746,0.1454,0.9199,-1616.94,1984.62,-1716.98
5040,-3.8746,0.1481,0.9187,-1382.57,1750.24,-1904.48
5050,-3.8746,0.1494,0.9233,-1038.82,1593.99,-1498.23
5060,-3.8746,0.1473,0.9342,-866.94,-1812.26,-498.23
5070,-3.8745,0.1436,0.9464,-1132.57,-421.63,861.15
5080,-3.8745,0.1421,0.9539,-1616.94,1140.87,-1982.54
5090,-3.8745,0.1436,0.9550,-1804.44,-1906.01,-1466.92
5100,-3.8745,0.1473,0.9545,-1616.94,-1765.38,-1466.92
5110,-3.8745,0.1536,0.9585,-1132.57,-1827.88,-1591.92
5120,-3.8745,0.1619,0.9670,-335.69,-1312.26,-1576.29
5130,-3.8745,0.1710,0.9751,726.81,-218.44,-1420.04
5140,-3.8745,0.1808,0.9790,1898.68,812.81,-1310.61
5150,-3.8745,0.1912,0.9794,-851.32,1312.81,-1388.73
5160,-3.8745,0.2020,0.9799,476.81,1359.74,-1498.11
5170,-3.8745,0.2125,0.9802,1867.43,1422.24,-1466.86
5180,-3.8745,0.2223,0.9791,-788.82,1469.12,-1294.98
5190,-3.8745,0.2296,0.9797,461.18,1328.55,-1232.48
5200,-3.8745,0.2330,0.9824,1398.68,1406.68,-1201.23
5210,-3.8745,0.2336,0.9807,1836.18,1750.43,-919.98
5220,-3.8745,0.2305,0.9713,1914.31,1531.68,-576.23
5230,-3.8745,0.2206,0.9586,1508.06,328.55,-544.98
5240,-3.8745,0.2042,0.9506,242.43,-1296.45,-482.54
5250,-3.8744,0.1862,0.9498,-1851.32,1672.24,158.08
5260,-3.8744,0.1731,0.9507,-163.82,1578.43,1267.46
5270,-3.8744,0.1698,0.9481,-1835.69,1687.81,-1795.04
5280,-3.8744,0.1758,0.9414,1742.43,1359.68,-1545.04
5290,-3.8744,0.1871,0.9358,-1491.94,500.31,-1810.67
5300,-3.8744,0.2004,0.9377,-38.82,-218.44,1908.02
5310,-3.8744,0.2128,0.9465,1664.31,31.62,-1826.29
5320,-3.8744,0.2222,0.9565,-757.57,1156.62,-1232.54
5330,-3.8744,0.2281,0.9646,445.56,-1562.07,-826.29
5340,-3.8744,0.2296,0.9711,1211.18,-530.82,-670.04
5350,-3.8744,0.2272,0.9777,1398.68,297.30,-607.48
5360,-3.8744,0.2228,0.9846,1086.18,1141.05,-419.98
5370,-3.8744,0.2184,0.9907,523.68,-1968.32,-138.73
5380,-3.8744,0.2185,0.9960,-38.82,-1187.13,-91.86
5390,-3.8744,0.2258,1.0006,-23.19,-515.26,-294.98
5400,-3.8744,0.2351,1.0050,914.31,78.55,-544.92
5410,-3.8744,0.2422,1.0083,-1898.19,641.05,-810.55
5420,-3.8744,0.2467,1.0095,-991.94,1062.93,-1044.92
5430,-3.8744,0.2478,1.0088,-413.82,1219.18,-1341.80
5440,-3.8744,0.2448,1.0056,-273.19,1125.43,-1716.80
5450,-3.8744,0.2367,0.9998,-663.82,719.18,-1982.42
5460,-3.8744,0.2234,0.9916,-1695.07,-30.82,1939.39
5470,-3.8744,0.2069,0.9846,601.81,-1077.70,1955.02
5480,-3.8744,0.1917,0.9801,-1507.57,-1968.38,1783.14
5490,-3.8744,0.1812,0.9775,539.31,1453.49,1455.02
5500,-3.8744,0.1765,0.9753,-804.44,1125.31,1142.52
5510,-3.8744,0.1758,0.9697,-1398.19,844.06,798.77
5520,-3.8744,0.1754,0.9624,-1491.94,125.31,486.27
5530,-3.8744,0.1731,0.9575,-1538.82,-812.19,314.33
5540,-3.8744,0.1681,0.9558,-1835.69,-1437.19,283.08
5550,-3.8744,0.1630,0.9563,1523.68,-1655.94,392.46
5560,-3.8744,0.1598,0.9567,867.43,-1593.44,423.71
5570,-3.8744,0.1588,0.9546,461.18,-1546.57,17.46
5580,-3.8745,0.1587,0.9503,336.18,-1812.19,-732.54
5590,-3.8745,0.1587,0.9447,320.56,1640.93,-1638.79
5600,-3.8745,0.1584,0.9384,320.56,922.18,1251.83
5610,-3.8745,0.1562,0.9332,289.31,109.68,64.33
5620,-3.8746,0.1514,0.9302,8.06,-546.57,-951.35
5630,-3.8746,0.1449,0.9285,-616.94,-937.26,-1670.10
5640,-3.8746,0.1382,0.9294,-1445.07,-1156.01,1829.90
5650,-3.8746,0.1321,0.9336,1695.56,-1031.01,1704.90
5660,-3.8746,0.1284,0.9388,914.31,-499.76,-1920.10
5670,-3.8746,0.1299,0.9429,445.56,172.12,-1076.29
5680,-3.8746,0.1353,0.9469,633.06,687.74,-91.92
5690,-3.8745,0.1423,0.9510,1320.56,1203.37,454.96
5700,-3.8745,0.1501,0.9517,-1773.19,1734.62,533.08
5710,-3.8745,0.1591,0.9484,-773.19,1812.74,486.21
5720,-3.8745,0.1672,0.9452,367.43,1390.93,454.96
5730,-3.8745,0.1705,0.9440,1414.31,984.68,548.71
5740,-3.8745,0.1680,0.9459,1836.18,828.43,861.21
5750,-3.8745,0.1630,0.9518,1508.06,1078.43,1408.08
5760,-3.8745,0.1597,0.9600,867.43,1828.43,-1888.79
5770,-3.8745,0.1603,0.9678,445.56,-1124.69,-1263.79
5780,-3.8745,0.1663,0.9738,523.68,-124.69,-670.04
5790,-3.8744,0.1758,0.9778,1289.31,640.93,142.52
5800,-3.8744,0.1847,0.9786,-1491.94,1156.56,1064.39
5810,-3.8744,0.1907,0.9771,-351.32,1265.93,1876.89
5820,-3.8744,0.1942,0.9750,414.31,1062.87,-1451.23
5830,-3.8744,0.1960,0.9751,867.43,797.24,-810.61
5840,-3.8744,0.1967,0.9792,1101.81,812.87,-185.61
5850,-3.8743,0.1959,0.9849,1179.93,1344.12,376.89
5860,-3.8743,0.1940,0.9883,1086.18,-1937.13,673.77
5870,-3.8743,0.1898,0.9884,836.18,-1499.63,658.14
5880,-3.8743,0.1844,0.9869,304.93,-1484.01,423.77
5890,-3.8743,0.1790,0.9839,-382.57,-1671.57,220.64
5900,-3.8743,0.1741,0.9784,-1085.69,1937.81,345.64
5910,-3.8743,0.1715,0.9711,-1710.69,1234.68,455.02
5920,-3.8743,0.1736,0.9646,1961.18,297.18,205.02
5930,-3.8744,0.1787,0.9618,-1773.19,-530.94,-357.54
5940,-3.8744,0.1824,0.9628,-1116.94,-890.32,-998.17
5950,-3.8744,0.1827,0.9645,-648.19,-765.32,-1466.92
5960,-3.8744,0.1790,0.9628,-601.32,-546.57,-1841.92
5970,-3.8744,0.1729,0.9591,-1085.69,-765.32,1658.08
5980,-3.8744,0.1686,0.9567,-1866.94,-1234.07,1079.96
5990,-3.8744,0.1666,0.9553,1586.18,-1546.57,673.71
6000,-3.8744,0.1667,0.9534,1336.18,-1718.44,595.58
6010,-3.8744,0.1696,0.9491,1351.81,-1968.44,642.46
6020,-3.8744,0.1736,0.9447,1711.18,1484.68,423.71
6030,-3.8745,0.1761,0.9451,-1773.19,922.18,-216.92
6040,-3.8745,0.1787,0.9485,-1445.07,969.06,-1076.29
6050,-3.8745,0.1833,0.9503,-1116.94,1406.56,-1795.04
6060,-3.8745,0.1891,0.9515,-523.19,1640.93,1454.96
6070,-3.8745,0.1957,0.9536,211.18,1797.24,814.33
6080,-3.8745,0.2025,0.9572,1054.93,-1937.13,626.83
6090,-3.8745,0.2074,0.9615,1929.93,-1484.01,845.58
6100,-3.8745,0.2091,0.9662,-1445.07,-921.51,1283.08
6110,-3.8745,0.2081,0.9717,-1226.32,-327.76,-1982.54
6120,-3.8745,0.2068,0.9767,-1351.32,375.37,-1076.23
6130,-3.8745,0.2078,0.9796,-1523.19,1015.99,-248.11
6140,-3.8744,0.2114,0.9790,-1398.19,1390.99,345.64
6150,-3.8744,0.2163,0.9746,-929.44,1312.87,408.14
6160,-3.8745,0.2197,0.9698,-304.44,750.37,-201.23
6170,-3.8745,0.2191,0.9664,133.06,141.05,-1294.98
6180,-3.8745,0.2146,0.9645,54.93,-296.45,1579.96
6190,-3.8745,0.2120,0.9645,-523.19,-546.51,892.46
6200,-3.8745,0.2133,0.9672,-851.32,-546.51,704.96
6210,-3.8745,0.2148,0.9739,-695.07,-202.76,1048.71
6220,-3.8745,0.2129,0.9816,-491.94,656.62,-1998.11
6230,-3.8745,0.2072,0.9856,-741.94,1640.99,-763.73
6240,-3.8744,0.2024,0.9847,-1476.32,-1843.38,267.52
6250,-3.8744,0.2031,0.9788,1914.31,-1952.76,923.77
6260,-3.8744,0.2080,0.9697,-1991.94,1281.62,1283.14
6270,-3.8744,0.2124,0.9618,-1366.94,125.37,1267.52
6280,-3.8744,0.2139,0.9546,-804.44,-890.26,892.46
6290,-3.8744,0.2128,0.9457,-616.94,-1812.13,314.33
6300,-3.8745,0.2106,0.9365,-757.57,1047.24,-357.54
6310,-3.8745,0.2085,0.9303,-1038.82,-124.63,-982.60
6320,-3.8745,0.2081,0.9298,-1304.44,-921.51,-1373.23
6330,-3.8745,0.2103,0.9364,-1351.32,-984.01,-1404.48
6340,-3.8745,0.2148,0.9479,-1070.07,-140.26,-1076.35
6350,-3.8745,0.2191,0.9602,-491.94,1328.49,-451.29
6360,-3.8744,0.2200,0.9700,54.93,-1093.32,189.33
6370,-3.8744,0.2161,0.9756,164.31,156.68,501.89
6380,-3.8744,0.2072,0.9766,-335.69,875.37,439.39
6390,-3.8745,0.1967,0.9713,-1476.32,1000.37,-216.86
6400,-3.8745,0.1901,0.9607,1179.93,328.49,-1529.36
6410,-3.8745,0.1892,0.9512,336.18,-1030.88,1033.08
6420,-3.8745,0.1932,0.9491,226.81,1750.37,95.58
6430,-3.8746,0.2010,0.9546,742.43,1484.74,-91.92
6440,-3.8745,0.2106,0.9626,1742.43,-1812.13,548.71
6450,-3.8745,0.2184,0.9679,-1038.82,-780.88,1892.46
6460,-3.8745,0.2208,0.9691,-38.82,-109.01,-576.29
6470,-3.8744,0.2181,0.9689,273.68,47.30,783.14
6480,-3.8744,0.2141,0.9680,-70.07,15.99,1845.64
6490,-3.8744,0.2108,0.9651,-585.69,-93.38,-1482.54
6500,-3.8744,0.2072,0.9576,-1007.57,-468.38,-1357.54
6510,-3.8744,0.2020,0.9486,-1476.32,-1421.51,-1857.54
6520,-3.8744,0.1951,0.9420,1867.43,1422.24,1189.33
6530,-3.8744,0.1887,0.9371,976.81,578.49,189.33
6540,-3.8745,0.1866,0.9337,164.31,-46.51,-857.60
6550,-3.8745,0.1895,0.9342,-101.32,-484.07,1845.52
6560,-3.8745,0.1949,0.9406,258.06,-421.51,470.52
6570,-3.8746,0.2015,0.9504,961.18,390.99,-482.54
6580,-3.8746,0.2078,0.9580,1804.93,1656.62,-920.04
6590,-3.8746,0.2112,0.9607,-1398.19,-1374.63,-1170.04
6600,-3.8746,0.2104,0.9634,-960.69,-1030.88,-1513.79
6610,-3.8746,0.2053,0.9702,-1054.44,-687.13,-1482.54
6620,-3.8746,0.1998,0.9814,-1710.69,187.87,-544.98
6630,-3.8745,0.2000,0.9917,1586.18,1625.37,1267.52
6640,-3.8745,0.2054,0.9944,1601.81,-1062.13,-638.73
6650,-3.8744,0.2124,0.9896,-1695.07,-718.38,876.89
6660,-3.8744,0.2169,0.9816,-804.44,-1327.76,1626.89
6670,-3.8744,0.2170,0.9750,-226.32,1640.99,1955.02
6680,-3.8744,0.2145,0.9723,-210.69,797.24,-1623.11
6690,-3.8744,0.2117,0.9723,-538.82,453.49,-888.73
6700,-3.8744,0.2087,0.9708,-898.19,453.49,-13.73
6710,-3.8743,0.2035,0.9686,-1273.19,265.99,783.14
6720,-3.8743,0.1941,0.9695,-1945.07,-15.26,1361.21
6730,-3.8743,0.1838,0.9727,851.81,94.12,1892.52
6740,-3.8743,0.1769,0.9722,-460.69,500.31,-1669.98
6750,-3.8743,0.1748,0.9657,-1351.32,437.81,-1763.73
6760,-3.8743,0.1758,0.9564,-1616.94,-390.32,1408.08
6770,-3.8743,0.1759,0.9484,-1491.94,-1577.82,64.33
6780,-3.8744,0.1752,0.9446,-1476.32,1390.93,-1279.42
6790,-3.8744,0.1758,0.9449,-1570.07,906.56,1892.46
6800,-3.8744,0.1788,0.9478,-1491.94,953.43,1470.58
6810,-3.8744,0.1829,0.9485,-1101.32,1312.81,970.58
6820,-3.8744,0.1858,0.9452,-585.69,1406.56,314.33
6830,-3.8745,0.1862,0.9404,-210.69,984.68,-310.67
6840,-3.8745,0.1844,0.9365,-163.82,375.31,-795.04
6850,-3.8745,0.1824,0.9366,-382.57,-124.69,-1107.60
6860,-3.8745,0.1805,0.9396,-648.19,-109.07,-1310.73
6870,-3.8745,0.1802,0.9412,-882.57,265.93,-1326.29
6880,-3.8745,0.1824,0.9404,-929.44,469.06,-1326.29
6890,-3.8745,0.1869,0.9388,-648.19,375.31,-1576.29
6900,-3.8745,0.1934,0.9397,-70.07,172.18,-1966.92
6910,-3.8745,0.2002,0.9445,758.06,281.62,1767.46
6920,-3.8745,0.2039,0.9520,1633.06,890.99,1751.83
6930,-3.8745,0.2047,0.9609,-1898.19,1859.74,1829.96
6940,-3.8745,0.2053,0.9692,-1788.82,-999.63,1986.21
6950,-3.8745,0.2085,0.9722,-1710.69,62.87,-1966.86
6960,-3.8745,0.2147,0.9672,-1304.44,437.87,1861.27
6970,-3.8745,0.2205,0.9589,-507.57,-202.76,1376.83
6980,-3.8745,0.2230,0.9535,226.81,-1265.20,611.21
6990,-3.8745,0.2272,0.9517,554.93,-1952.70,142.46
7000,-3.8745,0.2362,0.9502,1086.18,1812.93,236.21
7010,-3.8745,0.2449,0.9481,-1757.57,1625.43,642.46
7020,-3.8745,0.2458,0.9484,-648.19,1359.80,1095.58
7030,-3.8745,0.2384,0.9518,-523.19,1391.05,1564.33
7040,-3.8745,0.2278,0.9553,-1476.32,1828.55,1986.21
7050,-3.8745,0.2197,0.9557,1164.31,-1718.32,-1810.67
7060,-3.8745,0.2166,0.9528,133.06,-1671.45,-1873.17
7070,-3.8745,0.2161,0.9512,-273.19,1953.49,1892.46
7080,-3.8745,0.2164,0.9536,-335.69,1750.37,1658.08
7090,-3.8745,0.2180,0.9584,-288.82,-1937.13,1392.46
7100,-3.8745,0.2209,0.9611,-85.69,-1327.76,1126.83
7110,-3.8745,0.2241,0.9600,289.31,-983.95,1126.83
7120,-3.8745,0.2280,0.9587,695.56,-1124.57,1236.21
7130,-3.8745,0.2341,0.9598,1195.56,-1280.82,1220.58
7140,-3.8745,0.2421,0.9611,1976.81,-1140.20,1345.58
7150,-3.8745,0.2506,0.9631,-1007.57,-983.95,1673.71
7160,-3.8745,0.2592,0.9672,86.18,-718.26,-1826.29
7170,-3.8745,0.2628,0.9709,1179.93,-202.64,-1060.67
7180,-3.8745,0.2563,0.9723,1648.68,281.74,-357.48
7190,-3.8745,0.2441,0.9709,820.56,453.61,-107.48
7200,-3.8745,0.2355,0.9672,-741.94,281.68,-294.98
7210,-3.8745,0.2339,0.9622,-1851.32,-202.70,-716.92
7220,-3.8745,0.2375,0.9584,1945.56,-843.32,-1232.54
7230,-3.8745,0.2412,0.9565,-1585.69,-1327.70,-1763.79
7240,-3.8745,0.2432,0.9563,-1116.94,-1562.07,-1904.42
7250,-3.8745,0.2456,0.9579,-866.94,-1593.32,-1435.67
7260,-3.8745,0.2463,0.9622,-554.44,-1390.20,-685.67
7270,-3.8744,0.2406,0.9697,-460.69,-843.32,204.96
7280,-3.8744,0.2280,0.9781,-1195.07,125.43,1283.14
7290,-3.8744,0.2134,0.9814,1195.56,1203.55,-1888.73
7300,-3.8744,0.2037,0.9756,-679.44,1625.37,-1873.11
7310,-3.8744,0.2023,0.9626,-1913.82,875.37,1142.52
7320,-3.8745,0.2065,0.9495,1898.68,-780.88,-607.54
7330,-3.8745,0.2114,0.9417,-1554.44,1531.62,1595.58
7340,-3.8745,0.2134,0.9403,-929.44,531.62,470.58
7350,-3.8745,0.2130,0.9435,-679.44,359.74,251.83
7360,-3.8745,0.2124,0.9487,-726.32,765.99,673.71
7370,-3.8745,0.2134,0.9558,-804.44,1437.87,1439.33
7380,-3.8745,0.2148,0.9650,-679.44,-1655.88,-1685.67
7390,-3.8745,0.2130,0.9749,-491.94,-484.01,-873.17
7400,-3.8745,0.2085,0.9816,-726.32,781.62,-123.11
7410,-3.8744,0.2047,0.9816,-1304.44,1640.99,283.14
7420,-3.8745,0.2014,0.9752,-1788.82,1640.99,-107.48
7430,-3.8745,0.1982,0.9677,1789.31,828.49,-1279.36
7440,-3.8745,0.1964,0.9631,1383.06,-140.26,1267.46
7450,-3.8745,0.1953,0.9617,1148.68,-718.38,64.33
7460,-3.8746,0.1963,0.9637,1008.06,-905.88,-607.54
7470,-3.8746,0.1997,0.9703,1133.06,-640.26,-732.54
7480,-3.8746,0.2028,0.9800,1570.56,203.49,-357.48
7490,-3.8745,0.2037,0.9856,1961.18,1437.87,470.64
7500,-3.8745,0.2040,0.9838,-1913.82,-1843.38,1517.52
7510,-3.8745,0.2041,0.9801,-1882.57,1922.24,-1638.73
7520,-3.8745,0.2013,0.9778,-1866.94,1453.49,-1201.23
7530,-3.8745,0.1967,0.9752,1773.68,1156.62,-857.48
7540,-3.8745,0.1938,0.9706,1179.93,828.49,-466.86
7550,-3.8745,0.1935,0.9633,820.56,234.74,-294.98
7560,-3.8745,0.1927,0.9575,773.68,-702.76,-466.92
7570,-3.8745,0.1896,0.9570,679.93,-1437.13,-795.04
7580,-3.8745,0.1842,0.9598,273.68,-1499.63,-951.29
7590,-3.8745,0.1783,0.9608,-413.82,-1140.32,-654.42
7600,-3.8745,0.1747,0.9575,-1163.82,-1015.32,-76.29
7610,-3.8744,0.1730,0.9532,-1632.57,-1437.19,361.21
7620,-3.8744,0.1725,0.9526,-1851.32,-1984.07,454.96
7630,-3.8744,0.1727,0.9559,-1913.82,1937.81,361.21
7640,-3.8744,0.1748,0.9596,-1882.57,-1640.32,220.58
7650,-3.8744,0.1791,0.9611,-1616.94,-1171.57,111.21
7660,-3.8744,0.1841,0.9604,-1070.07,-984.07,17.46
7670,-3.8745,0.1876,0.9580,-429.44,-1062.19,-248.17
7680,-3.8745,0.1886,0.9548,23.68,-1374.63,-670.04
7690,-3.8745,0.1886,0.9526,148.68,-1780.88,-1341.92
7700,-3.8745,0.1877,0.9515,148.68,1937.87,1892.46
7710,-3.8745,0.1862,0.9532,39.31,1797.24,1345.58
7720,-3.8745,0.1846,0.9586,-163.82,-1984.07,1126.83
7730,-3.8745,0.1832,0.9646,-366.94,-1296.57,1189.33
7740,-3.8745,0.1837,0.9677,-538.82,-530.94,1439.33
7750,-3.8745,0.1865,0.9666,-476.32,-140.32,1626.83
7760,-3.8745,0.1903,0.9615,-116.94,-280.94,1392.46
7770,-3.8745,0.1947,0.9553,367.43,-921.51,595.58
7780,-3.8746,0.1979,0.9521,929.93,-1718.38,-310.67
7790,-3.8746,0.1986,0.9521,1336.18,1875.37,-935.67
7800,-3.8746,0.1992,0.9534,1429.93,1875.37,-1091.92
7810,-3.8746,0.2009,0.9557,1508.06,-1968.38,-841.92
7820,-3.8746,0.2037,0.9592,1726.81,-1671.51,-451.29
7830,-3.8746,0.2062,0.9636,-1913.82,-1218.38,-107.54
7840,-3.8745,0.2064,0.9686,-1601.32,-655.88,142.46
7850,-3.8745,0.2067,0.9739,-1570.07,-15.26,501.83
7860,-3.8745,0.2092,0.9769,-1538.82,656.62,1017.52
7870,-3.8745,0.2124,0.9767,-1210.69,1047.24,1455.02
7880,-3.8745,0.2145,0.9749,-804.44,1015.99,1658.14
7890,-3.8745,0.2159,0.9718,-538.82,781.62,1705.02
7900,-3.8745,0.2164,0.9688,-351.32,390.99,1751.89
7910,-3.8745,0.2152,0.9667,-288.82,0.37,1736.27
7920,-3.8745,0.2135,0.9645,-445.07,-265.26,1673.71
7930,-3.8745,0.2118,0.9618,-663.82,-546.51,1595.58
7940,-3.8745,0.2094,0.9574,-882.57,-890.26,1501.83
7950,-3.8745,0.2053,0.9523,-1195.07,-1452.76,1376.83
7960,-3.8745,0.1996,0.9500,-1710.69,1890.99,1142.46
7970,-3.8745,0.1926,0.9526,1554.93,1594.12,939.33
7980,-3.8745,0.1864,0.9568,664.31,1937.87,1095.58
7990,-3.8745,0.1832,0.9585,-132.57,-1530.94,1611.21
8000,-3.8745,0.1843,0.9578,-538.82,-1312.19,-1920.04
8010,-3.8745,0.1882,0.9564,-398.19,-1405.94,-1748.17
8020,-3.8745,0.1921,0.9569,101.81,-1577.76,-1826.29
8030,-3.8745,0.1962,0.9603,601.81,-1515.26,-1966.92
8040,-3.8745,0.2007,0.9655,1117.43,-1077.76,1970.58
8050,-3.8745,0.2048,0.9673,1695.56,-421.51,1798.71
8060,-3.8745,0.2083,0.9640,-1773.19,-187.13,1345.58
8070,-3.8745,0.2101,0.9580,-1335.69,-609.01,689.33
8080,-3.8745,0.2101,0.9520,-1101.32,-1374.63,64.33
8090,-3.8746,0.2101,0.9478,-1101.32,1859.74,-482.54
8100,-3.8746,0.2115,0.9459,-1101.32,1312.87,-826.29
8110,-3.8746,0.2129,0.9467,-913.82,1078.49,-888.79
8120,-3.8746,0.2123,0.9503,-741.94,1172.24,-810.67
8130,-3.8746,0.2103,0.9557,-820.07,1640.99,-545.04
8140,-3.8746,0.2076,0.9619,-1070.07,-1671.51,-13.79
8150,-3.8745,0.2057,0.9675,-1413.82,-874.63,611.21
8160,-3.8745,0.2058,0.9692,-1663.82,-155.88,923.71
8170,-3.8745,0.2079,0.9666,-1648.19,62.87,798.77
8180,-3.8745,0.2114,0.9609,-1382.57,-280.88,314.33
8190,-3.8746,0.2162,0.9558,-929.44,-999.63,-529.42
8200,-3.8746,0.2208,0.9540,-320.07,-1655.88,-1451.29
8210,-3.8746,0.2236,0.9561,273.68,-1890.20,1986.21
8220,-3.8746,0.2244,0.9614,633.06,-1624.57,1986.21
8230,-3.8746,0.2239,0.9685,726.81,-937.07,-1623.17
8240,-3.8746,0.2249,0.9745,664.31,-30.82,-982.54
8250,-3.8746,0.2279,0.9761,789.31,734.80,-154.36
8260,-3.8745,0.2303,0.9741,1179.93,937.93,580.02
8270,-3.8745,0.2300,0.9709,1492.43,687.93,955.02
8280,-3.8745,0.2271,0.9677,1445.56,281.68,830.02
8290,-3.8745,0.2219,0.9655,1070.56,-140.20,423.71
8300,-3.8746,0.2146,0.9633,414.31,-421.45,-107.54
8310,-3.8746,0.2053,0.9602,-523.19,-702.76,-670.04
8320,-3.8746,0.1963,0.9590,-1710.69,-1093.38,-1248.17
8330,-3.8746,0.1901,0.9598,1133.06,-1249.63,-1685.67
8340,-3.8746,0.1870,0.9607,336.18,-1140.26,-1763.79
8350,-3.8746,0.1869,0.9622,-54.44,-1030.94,-1420.04
8360,-3.8746,0.1885,0.9655,-70.07,-843.44,-795.04
8370,-3.8745,0.1901,0.9709,133.06,-421.51,17.46
8380,-3.8745,0.1897,0.9768,336.18,281.62,908.14
8390,-3.8745,0.1888,0.9791,289.31,1031.62,1658.14
8400,-3.8745,0.1876,0.9777,179.93,1328.49,-1935.61
8410,-3.8745,0.1838,0.9734,23.68,1140.99,-1966.86
8420,-3.8745,0.1771,0.9672,-460.69,594.06,1658.14
8430,-3.8745,0.1702,0.9615,-1320.07,-202.82,1189.33
8440,-3.8745,0.1671,0.9598,1789.31,-921.57,939.33
8450,-3.8745,0.1691,0.9634,1398.68,-1140.32,1033.08
8460,-3.8745,0.1743,0.9706,1648.68,-687.19,1423.71
8470,-3.8745,0.1792,0.9781,-1679.44,234.68,1939.39
8480,-3.8745,0.1826,0.9841,-1054.44,1203.43,-1451.23
8490,-3.8745,0.1849,0.9883,-616.94,1969.06,-873.11
8500,-3.8745,0.1854,0.9890,-320.07,-1499.69,-466.86
8510,-3.8745,0.1859,0.9850,-257.57,-1405.94,-326.23
8520,-3.8745,0.1871,0.9767,-195.07,-1921.57,-623.11
8530,-3.8745,0.1873,0.9678,-38.82,1015.93,-1373.11
8540,-3.8745,0.1851,0.9626,-23.19,-124.69,1798.71
8550,-3.8745,0.1816,0.9622,-304.44,-780.94,1236.21
8560,-3.8745,0.1777,0.9635,-741.94,-843.44,1017.46
8570,-3.8745,0.1740,0.9639,-1241.94,-671.57,861.21
8580,-3.8745,0.1719,0.9635,-1726.32,-624.69,783.08
8590,-3.8745,0.1730,0.9646,-1991.94,-671.57,861.21
8600,-3.8745,0.1787,0.9677,-1851.32,-530.94,1033.08
8610,-3.8745,0.1875,0.9717,-1116.94,-140.32,1376.83
8620,-3.8745,0.1942,0.9738,8.06,375.37,1611.27
8630,-3.8745,0.1970,0.9722,867.43,640.99,1392.52
8640,-3.8745,0.1962,0.9675,1226.81,437.87,689.39
8650,-3.8746,0.1932,0.9624,1117.43,-155.88,-279.42
8660,-3.8746,0.1910,0.9595,742.43,-812.13,-1201.29
8670,-3.8746,0.1913,0.9596,461.18,-1187.13,-1826.29
8680,-3.8746,0.1941,0.9625,492.43,-1171.51,-1998.17
8690,-3.8746,0.1986,0.9673,851.81,-796.51,-1732.54
8700,-3.8746,0.2043,0.9718,1429.93,-187.13,-1154.42
8710,-3.8746,0.2100,0.9744,-1835.69,390.99,-716.86
8720,-3.8746,0.2142,0.9741,-1116.94,719.12,-544.98
8730,-3.8746,0.2150,0.9718,-570.07,687.87,-404.36
8740,-3.8746,0.2135,0.9701,-476.32,390.99,-232.48
8750,-3.8746,0.2112,0.9714,-663.82,172.24,-76.23
8760,-3.8745,0.2083,0.9745,-960.69,344.12,48.77
8770,-3.8745,0.2053,0.9755,-1335.69,734.74,111.27
8780,-3.8745,0.2043,0.9736,-1710.69,859.74,48.77
8790,-3.8746,0.2069,0.9717,-1835.69,625.37,-201.23
8800,-3.8746,0.2118,0.9719,-1507.57,375.37,-591.86
8810,-3.8746,0.2168,0.9738,-882.57,406.62,-857.48
8820,-3.8746,0.2198,0.9742,-241.94,640.99,-857.48
8830,-3.8746,0.2191,0.9718,148.68,703.55,-654.36
8840,-3.8746,0.2133,0.9680,54.93,391.05,-357.48
8850,-3.8746,0.2054,0.9651,-695.07,-93.38,-60.67
8860,-3.8745,0.2002,0.9628,-1695.07,-468.38,220.58
8870,-3.8745,0.1996,0.9604,1633.06,-765.26,470.58
8880,-3.8745,0.2028,0.9595,1554.93,-1062.13,658.08
8890,-3.8745,0.2053,0.9629,1961.18,-1187.13,954.96
8900,-3.8745,0.2052,0.9705,-1710.69,-749.63,1408.08
8910,-3.8745,0.2026,0.9756,-1726.32,219.12,1767.52
8920,-3.8745,0.1985,0.9728,1945.56,875.37,1861.27
8930,-3.8745,0.1952,0.9657,1414.31,515.99,1642.52
8940,-3.8745,0.1938,0.9604,992.43,-390.26,1267.46
8950,-3.8745,0.1953,0.9584,820.56,-1062.13,861.21
8960,-3.8745,0.1989,0.9580,1008.06,-1327.76,501.83
8970,-3.8745,0.2020,0.9589,1461.18,-1374.63,126.83
8980,-3.8746,0.2019,0.9604,1867.43,-1265.26,-404.42
8990,-3.8746,0.1989,0.9622,1851.81,-1062.13,-1013.79
9000,-3.8746,0.1967,0.9630,1461.18,-843.38,-1576.29
9010,-3.8746,0.1973,0.9626,1179.93,-734.01,1892.46
9020,-3.8746,0.1990,0.9609,1258.06,-780.88,1501.83
9030,-3.8746,0.1995,0.9597,1476.81,-999.63,1376.83
9040,-3.8746,0.1976,0.9606,1539.31,-1155.88,1564.33
9050,-3.8746,0.1948,0.9640,1304.93,-1046.51,-1966.92
9060,-3.8746,0.1913,0.9685,945.56,-609.01,-1263.79
9070,-3.8746,0.1891,0.9717,492.43,-30.88,-607.54
9080,-3.8746,0.1901,0.9709,211.18,375.37,-435.61
9090,-3.8746,0.1929,0.9667,336.18,281.62,-857.48
9100,-3.8746,0.1970,0.9607,695.56,-265.26,-1576.29
9110,-3.8746,0.2034,0.9558,1226.81,-1030.88,1673.71
9120,-3.8746,0.2117,0.9561,-1960.69,-1655.88,1095.58
9130,-3.8746,0.2177,0.9601,-898.19,-1624.63,1033.08
9140,-3.8746,0.2159,0.9642,-132.57,-1109.01,1626.83
9150,-3.8746,0.2083,0.9702,-351.32,-577.76,-1404.42
9160,-3.8746,0.1975,0.9766,-1335.69,187.87,-576.23
9170,-3.8745,0.1874,0.9794,1289.31,1000.37,111.27
9180,-3.8745,0.1840,0.9771,-7.57,1359.68,626.89
9190,-3.8745,0.1891,0.9712,-445.07,1062.81,642.52
9200,-3.8745,0.1962,0.9659,211.18,312.87,189.39
9210,-3.8746,0.2040,0.9637,1117.43,-359.01,-451.29
9220,-3.8746,0.2135,0.9640,-1882.57,-640.26,-873.17
9230,-3.8746,0.2194,0.9651,-663.82,-609.01,-966.92
9240,-3.8746,0.2186,0.9663,86.18,-468.32,-935.67
9250,-3.8746,0.2091,0.9655,-7.57,-312.13,-795.04
9260,-3.8746,0.1964,0.9639,-1226.32,-421.51,-607.54
9270,-3.8746,0.1888,0.9647,1148.68,-624.63,-513.79
9280,-3.8746,0.1876,0.9668,179.93,-515.26,-310.67
9290,-3.8746,0.1901,0.9674,23.68,-249.63,-138.79
9300,-3.8746,0.1937,0.9663,336.18,-171.51,-232.54
9310,-3.8746,0.1971,0.9642,804.93,-312.13,-420.04
9320,-3.8746,0.1986,0.9618,1242.43,-577.76,-591.92
9330,-3.8746,0.1976,0.9611,1429.93,-890.26,-607.54
9340,-3.8746,0.1945,0.9622,1304.93,-984.01,-435.67
9350,-3.8746,0.1906,0.9642,898.68,-843.38,-263.79
9360,-3.8746,0.1890,0.9670,398.68,-577.76,-91.92
9370,-3.8745,0.1920,0.9708,195.56,-218.38,111.21
9380,-3.8745,0.1981,0.9755,586.18,265.99,314.39
9390,-3.8745,0.2020,0.9785,1367.43,859.74,517.52
9400,-3.8745,0.2029,0.9781,1867.43,1250.37,736.27
9410,-3.8745,0.2026,0.9752,1976.81,1203.49,798.77
9420,-3.8745,0.2036,0.9714,1945.56,828.49,611.27
9430,-3.8745,0.2081,0.9674,-1929.44,344.12,205.02
9440,-3.8746,0.2131,0.9630,-1351.32,-171.51,-263.79
9450,-3.8746,0.2133,0.9608,-710.69,-734.01,-701.29
9460,-3.8746,0.2090,0.9623,-695.07,-1015.26,-935.67
9470,-3.8746,0.2031,0.9652,-1241.94,-827.76,-810.67
9480,-3.8746,0.1978,0.9677,-1991.94,-452.76,-373.17
9490,-3.8745,0.1947,0.9698,1320.56,-140.26,126.83
9500,-3.8745,0.1943,0.9717,929.93,140.99,486.27
9510,-3.8745,0.1948,0.9719,883.06,375.37,689.39
9520,-3.8745,0.1948,0.9694,945.56,406.62,720.64
9530,-3.8745,0.1942,0.9653,945.56,78.49,361.27
9540,-3.8746,0.1940,0.9619,867.43,-437.13,-216.92
9550,-3.8746,0.1956,0.9597,836.18,-874.63,-795.04
9560,-3.8746,0.1976,0.9591,1039.31,-1155.88,-1216.92
9570,-3.8746,0.1996,0.9606,1304.93,-1234.01,-1279.42
9580,-3.8746,0.2007,0.9635,1554.93,-1046.51,-1123.17
9590,-3.8746,0.1997,0.9672,1695.56,-671.51,-779.42
9600,-3.8746,0.1956,0.9695,1570.56,-202.76,-154.42
9610,-3.8745,0.1897,0.9683,1039.31,94.12,439.39
9620,-3.8745,0.1858,0.9640,289.31,-62.13,579.96
9630,-3.8745,0.1857,0.9606,-210.69,-609.07,251.83
9640,-3.8746,0.1912,0.9608,-226.32,-1046.57,-295.04
9650,-3.8746,0.2010,0.9612,476.81,-1015.26,-888.79
9660,-3.8746,0.2104,0.9596,1742.43,-968.38,-1607.54
9670,-3.8746,0.2145,0.9583,-1054.44,-1171.51,1845.58
9680,-3.8746,0.2109,0.9591,-538.82,-1343.38,1595.58
9690,-3.8746,0.2026,0.9617,-991.94,-1234.01,1564.33
9700,-3.8746,0.1954,0.9648,1945.56,-905.88,1783.08
9710,-3.8746,0.1938,0.9674,1023.68,-499.63,-1826.29
9720,-3.8746,0.1975,0.9681,820.56,-171.51,-1451.29
9730,-3.8746,0.2025,0.9670,1289.31,-77.76,-1216.92
9740,-3.8746,0.2047,0.9647,1929.93,-218.38,-1091.92
9750,-3.8746,0.2030,0.9614,-1788.82,-515.26,-1091.92
9760,-3.8746,0.1985,0.9584,1992.43,-937.13,-1279.42
9770,-3.8746,0.1936,0.9559,1414.31,-1327.76,-1545.04
9780,-3.8746,0.1913,0.9532,789.31,-1640.26,-1716.92
9790,-3.8746,0.1914,0.9507,492.43,-1984.01,-1951.29
9800,-3.8746,0.1914,0.9493,508.06,1687.87,1673.71
9810,-3.8746,0.1921,0.9526,508.06,1515.99,1548.71
9820,-3.8746,0.1938,0.9598,601.81,1937.87,1861.21
9830,-3.8746,0.1951,0.9666,820.56,-1140.26,-1466.92
9840,-3.8746,0.1964,0.9694,976.81,-280.88,-732.54
9850,-3.8746,0.1997,0.9680,1148.68,78.49,-373.11
9860,-3.8746,0.2050,0.9656,1570.56,-93.38,-466.92
9870,-3.8746,0.2103,0.9634,-1757.57,-405.88,-826.29
9880,-3.8746,0.2135,0.9619,-1070.07,-687.13,-1263.79
9890,-3.8746,0.2137,0.9615,-663.82,-874.63,-1591.92
9900,-3.8746,0.2115,0.9615,-632.57,-921.51,-1732.54
9910,-3.8746,0.2084,0.9620,-913.82,-921.51,-1795.04
9920,-3.8746,0.2057,0.9650,-1320.07,-859.01,-1748.17
9930,-3.8746,0.2058,0.9688,-1663.82,-484.01,-1607.54
9940,-3.8746,0.2091,0.9717,-1648.19,0.37,-1279.36
9950,-3.8746,0.2134,0.9730,-1226.32,375.37,-763.73
9960,-3.8746,0.2158,0.9739,-679.44,547.24,-357.48
9970,-3.8746,0.2148,0.9742,-366.94,656.62,-123.11
9980,-3.8745,0.2112,0.9719,-491.94,703.49,64.39
9990,-3.8745,0.2074,0.9666,-960.69,406.62,142.52
10000,-3.8746,0.2042,0.9614,-1445.07,-280.88,-91.92
10010,-3.8746,0.2017,0.9585,-1851.32,-937.13,-545.04
10020,-3.8746,0.2013,0.9589,1820.56,-1312.13,-795.04
10030,-3.8746,0.2023,0.9624,1773.68,-1265.26,-654.42
10040,-3.8746,0.2029,0.9662,1898.68,-812.13,-388.79
10050,-3.8746,0.2029,0.9683,1976.81,-327.76,-138.79
10060,-3.8745,0.2015,0.9684,1976.81,-62.13,33.08
10070,-3.8745,0.1975,0.9667,1804.93,-46.51,1.83
10080,-3.8746,0.1943,0.9642,1289.31,-265.26,-76.29
10090,-3.8746,0.1949,0.9640,883.06,-577.76,-91.92
10100,-3.8746,0.1981,0.9667,961.18,-609.01,-60.67
10110,-3.8745,0.2028,0.9701,1367.43,-265.26,158.08
10120,-3.8745,0.2069,0.9716,1961.18,172.24,408.14
10130,-3.8745,0.2065,0.9696,-1507.57,359.74,533.14
10140,-3.8745,0.2014,0.9646,-1554.44,109.74,533.14
10150,-3.8745,0.1960,0.9589,1789.31,-530.88,329.96
10160,-3.8746,0.1934,0.9545,1101.81,-1265.26,-170.04
10170,-3.8746,0.1940,0.9524,758.06,-1827.76,-716.92
10180,-3.8746,0.1960,0.9541,836.18,1906.62,-1091.92
10190,-3.8746,0.1971,0.9589,1101.81,-1874.63,-1138.79
10200,-3.8746,0.1987,0.9652,1242.43,-1265.26,-857.54
10210,-3.8746,0.2006,0.9700,1445.56,-452.76,-482.54
10220,-3.8746,0.2013,0.9718,1679.93,156.62,-216.86
10230,-3.8746,0.2006,0.9717,1773.68,390.99,-91.86
10240,-3.8746,0.1996,0.9697,1679.93,375.37,-123.11
10250,-3.8746,0.2002,0.9669,1554.93,125.37,-404.36
10260,-3.8746,0.2026,0.9647,1633.06,-234.01,-951.29
10270,-3.8746,0.2063,0.9624,1945.56,-515.26,-1513.79
10280,-3.8746,0.2098,0.9601,-1585.69,-812.13,-1873.17
10290,-3.8746,0.2113,0.9587,-1132.57,-1109.01,1939.33
10300,-3.8746,0.2101,0.9602,-945.07,-1280.88,1829.96
10310,-3.8746,0.2065,0.9651,-1101.32,-1093.38,1954.96
10320,-3.8746,0.2041,0.9695,-1554.44,-468.38,-1779.42
10330,-3.8746,0.2051,0.9696,-1866.94,94.12,-1560.61
10340,-3.8746,0.2074,0.9662,-1741.94,109.74,-1388.73
10350,-3.8746,0.2090,0.9629,-1445.07,-327.76,-1326.29
10360,-3.8746,0.2081,0.9623,-1241.94,-749.63,-1404.42
10370,-3.8746,0.2052,0.9633,-1351.32,-827.76,-1326.29
10380,-3.8746,0.2021,0.9630,-1726.32,-702.76,-1185.67
10390,-3.8746,0.2004,0.9617,1883.06,-734.01,-1138.79
10400,-3.8746,0.2001,0.9613,1664.31,-905.88,-1201.29
10410,-3.8746,0.2023,0.9628,1617.43,-952.76,-1295.04
10420,-3.8746,0.2064,0.9651,1898.68,-765.26,-1341.92
10430,-3.8746,0.2095,0.9674,-1570.07,-468.38,-1373.17
10440,-3.8746,0.2101,0.9686,-1179.44,-171.51,-1263.79
10450,-3.8746,0.2083,0.9696,-1101.32,-15.26,-1107.54
10460,-3.8746,0.2054,0.9692,-1335.69,109.74,-966.86
10470,-3.8746,0.2020,0.9656,-1695.07,62.87,-857.48
10480,-3.8746,0.1982,0.9601,1867.43,-405.88,-795.04
10490,-3.8746,0.1953,0.9568,1383.06,-1109.01,-888.79
10500,-3.8746,0.1938,0.9579,1008.06,-1530.88,-1138.79
10510,-3.8746,0.1941,0.9613,820.56,-1390.26,-1279.42
10520,-3.8746,0.1951,0.9646,851.81,-952.76,-1263.79
10530,-3.8746,0.1962,0.9663,976.81,-530.88,-1201.29
10540,-3.8746,0.1967,0.9659,1117.43,-312.13,-1138.79
10550,-3.8746,0.1981,0.9653,1179.93,-359.01,-1107.54
10560,-3.8746,0.2010,0.9664,1367.43,-437.13,-1029.42
10570,-3.8746,0.2043,0.9684,1742.43,-296.51,-716.92
10580,-3.8746,0.2079,0.9695,-1835.69,-46.51,-388.79
10590,-3.8746,0.2098,0.9688,-1382.57,94.12,-294.98
10600,-3.8746,0.2075,0.9666,-1132.57,0.37,-435.61
10610,-3.8746,0.2028,0.9657,-1429.44,-280.88,-779.42
10620,-3.8746,0.1984,0.9673,1961.18,-390.26,-1013.79
10630,-3.8746,0.1973,0.9694,1398.68,-187.13,-1013.79
10640,-3.8746,0.2009,0.9703,1258.06,78.49,-1091.86
10650,-3.8746,0.2079,0.9694,1726.81,203.49,-1263.73
10660,-3.8746,0.2141,0.9677,-1382.57,78.49,-1404.36
10670,-3.8746,0.2161,0.9670,-585.69,-140.26,-1498.17
10680,-3.8746,0.2128,0.9686,-335.69,-218.38,-1373.17
10690,-3.8746,0.2063,0.9714,-757.57,-15.26,-982.54
10700,-3.8746,0.1998,0.9741,-1585.69,344.12,-482.48
10710,-3.8746,0.1953,0.9757,1586.18,687.87,-44.98
10720,-3.8745,0.1936,0.9745,1008.06,890.99,142.52
10730,-3.8745,0.1945,0.9696,789.31,734.74,48.77
10740,-3.8746,0.1964,0.9620,898.68,109.74,-498.11
10750,-3.8746,0.1985,0.9553,1148.68,-859.01,-1310.67
10760,-3.8746,0.1996,0.9524,1414.31,-1718.38,-1951.29
10770,-3.8746,0.1998,0.9548,1554.93,1906.62,1642.46
10780,-3.8746,0.2003,0.9614,1586.18,-1780.88,1611.21
10790,-3.8746,0.1997,0.9686,1648.68,-937.13,-1810.67
10800,-3.8746,0.1979,0.9740,1570.56,-15.26,-904.42
10810,-3.8746,0.1967,0.9768,1336.18,672.24,-91.86
10820,-3.8745,0.1969,0.9763,1179.93,1031.62,392.52
10830,-3.8745,0.1982,0.9733,1211.18,969.12,330.02
10840,-3.8746,0.2006,0.9695,1383.06,578.49,-279.36
10850,-3.8746,0.2030,0.9657,1679.93,94.12,-1013.73
10860,-3.8746,0.2047,0.9626,1992.43,-390.26,-1560.67
10870,-3.8746,0.2056,0.9611,-1788.82,-780.88,-1935.67
10880,-3.8746,0.2058,0.9619,-1679.44,-984.01,1845.58
10890,-3.8746,0.2059,0.9648,-1648.19,-874.63,1923.71
10900,-3.8746,0.2059,0.9692,-1632.57,-499.63,-1545.04
10910,-3.8746,0.2056,0.9738,-1632.57,62.87,-685.61
10920,-3.8746,0.2040,0.9747,-1679.44,640.99,-29.36
10930,-3.8745,0.2013,0.9728,-1882.57,765.99,142.52
10940,-3.8746,0.1991,0.9690,1773.68,515.99,-185.61
10950,-3.8746,0.1974,0.9637,1492.43,31.62,-794.98
10960,-3.8746,0.1960,0.9598,1273.68,-640.26,-1420.04
10970,-3.8746,0.1954,0.9576,1101.81,-1140.26,-1888.79
10980,-3.8746,0.1970,0.9574,1023.68,-1421.51,1939.33
10990,-3.8746,0.2007,0.9594,1226.81,-1452.76,-1982.54
11000,-3.8746,0.2030,0.9630,1695.56,-1202.76,-1638.79
11010,-3.8746,0.2037,0.9666,1992.43,-734.01,-1138.79
11020,-3.8746,0.2043,0.9683,-1913.82,-280.88,-685.67
11030,-3.8746,0.2039,0.9694,-1835.69,-62.13,-498.17
11040,-3.8746,0.2019,0.9708,-1898.19,78.49,-498.11
11050,-3.8746,0.2001,0.9706,1851.81,265.99,-638.73
11060,-3.8746,0.2001,0.9662,1617.43,234.74,-1076.23
11070,-3.8746,0.2010,0.9601,1617.43,-327.76,-1732.54
11080,-3.8746,0.2014,0.9569,1742.43,-1109.01,1673.71
11090,-3.8746,0.2009,0.9590,1789.31,-1515.26,1392.46
11100,-3.8746,0.2004,0.9646,1726.81,-1249.63,1470.58
11110,-3.8746,0.2004,0.9703,1664.31,-530.88,1923.71
11120,-3.8746,0.2023,0.9728,1664.31,203.49,-1326.23
11130,-3.8746,0.2056,0.9712,1898.68,515.99,-748.11
11140,-3.8746,0.2079,0.9678,-1679.44,312.87,-685.61
11150,-3.8746,0.2070,0.9648,-1382.57,-124.63,-1091.92
11160,-3.8746,0.2042,0.9628,-1491.94,-499.63,-1654.42
11170,-3.8746,0.2023,0.9597,-1851.32,-765.26,1751.83
11180,-3.8746,0.2032,0.9563,1898.68,-1155.88,1267.46
11190,-3.8746,0.2061,0.9554,-1976.32,-1593.38,1204.96
11200,-3.8746,0.2075,0.9583,-1616.94,-1702.76,1423.71
11210,-3.8746,0.2064,0.9648,-1429.44,-1343.38,1954.96
11220,-3.8746,0.2036,0.9741,-1570.07,-499.63,-1216.92
11230,-3.8746,0.2009,0.9818,-1929.44,687.87,-373.11
11240,-3.8745,0.1997,0.9819,1726.81,1672.24,251.89
11250,-3.8745,0.1995,0.9751,1570.56,1687.87,408.14
11260,-3.8746,0.1992,0.9673,1539.31,812.87,-123.11
11270,-3.8746,0.1992,0.9611,1508.06,-187.13,-1123.17
11280,-3.8746,0.1989,0.9567,1508.06,-984.01,1845.58
11290,-3.8746,0.1968,0.9553,1461.18,-1546.51,1142.46
11300,-3.8746,0.1940,0.9581,1195.56,-1718.38,970.58
11310,-3.8746,0.1927,0.9631,836.18,-1359.01,1236.21
11320,-3.8746,0.1948,0.9667,679.93,-718.38,1861.21
11330,-3.8746,0.1989,0.9670,945.56,-265.26,-1529.42
11340,-3.8746,0.2019,0.9667,1461.18,-218.38,-1154.42
11350,-3.8746,0.2029,0.9681,1851.81,-265.26,-982.54
11360,-3.8746,0.2020,0.9712,1976.81,-77.76,-748.17
11370,-3.8746,0.1996,0.9734,1867.43,312.87,-451.23
11380,-3.8746,0.1957,0.9727,1554.93,594.12,-357.48
11390,-3.8746,0.1919,0.9701,1054.93,500.37,-435.61
11400,-3.8746,0.1901,0.9677,570.56,172.24,-623.11
11410,-3.8746,0.1899,0.9648,336.18,-140.26,-1076.29
11420,-3.8746,0.1913,0.9618,320.56,-499.63,-1716.92
11430,-3.8746,0.1934,0.9604,492.43,-890.26,1673.71
11440,-3.8746,0.1959,0.9603,758.06,-1062.13,1314.33
11450,-3.8746,0.1986,0.9619,1086.18,-1077.76,1251.83
11460,-3.8746,0.1997,0.9669,1429.93,-874.63,1642.46
11470,-3.8746,0.1980,0.9729,1570.56,-234.01,-1388.79
11480,-3.8746,0.1953,0.9755,1351.81,531.62,-248.11
11490,-3.8745,0.1934,0.9735,1008.06,859.74,392.52
11500,-3.8745,0.1913,0.9689,758.06,609.74,423.77
11510,-3.8745,0.1898,0.9631,492.43,15.99,111.27
11520,-3.8746,0.1897,0.9580,304.93,-718.38,-404.42
11530,-3.8746,0.1901,0.9547,289.31,-1374.63,-935.67
11540,-3.8746,0.1898,0.9550,336.18,-1796.51,-1482.54
11550,-3.8746,0.1904,0.9602,304.93,-1765.26,-1904.42
11560,-3.8746,0.1937,0.9675,383.06,-1093.38,-1935.67
11570,-3.8746,0.1976,0.9741,804.93,-155.88,-1716.92
11580,-3.8746,0.2004,0.9792,1304.93,687.87,-1357.48
11590,-3.8746,0.2017,0.9817,1664.31,1344.12,-951.23
11600,-3.8746,0.2021,0.9795,1820.56,1656.62,-560.61
11610,-3.8746,0.2028,0.9731,1883.06,1375.37,-435.61
11620,-3.8746,0.2026,0.9666,1961.18,562.87,-857.48
11630,-3.8746,0.2014,0.9636,1945.56,-280.88,-1545.04
11640,-3.8746,0.2002,0.9633,1789.31,-655.88,1939.33
11650,-3.8746,0.2007,0.9639,1633.06,-702.76,1626.83
11660,-3.8746,0.2023,0.9661,1695.56,-624.63,1392.46
11670,-3.8746,0.2025,0.9689,1898.68,-343.38,1533.08
11680,-3.8746,0.2017,0.9696,1929.93,15.99,-1982.48
11690,-3.8746,0.2004,0.9684,1820.56,109.74,-1669.98
11700,-3.8746,0.1985,0.9684,1664.31,-46.51,-1529.42
11710,-3.8746,0.1965,0.9706,1414.31,-46.51,-1373.17
11720,-3.8746,0.1964,0.9723,1164.31,234.74,-1201.23
11730,-3.8746,0.1978,0.9728,1148.68,453.49,-998.11
11740,-3.8746,0.1993,0.9698,1320.56,515.99,-998.11
11750,-3.8746,0.1998,0.9656,1523.68,140.99,-1373.11
11760,-3.8746,0.1985,0.9645,1586.18,-405.88,-1841.92
11770,-3.8746,0.1975,0.9653,1414.31,-546.51,1908.08
11780,-3.8746,0.1991,0.9657,1289.31,-437.13,1798.71
11790,-3.8746,0.2032,0.9639,1492.43,-390.26,1611.21
11800,-3.8746,0.2072,0.9623,-1976.32,-624.63,1392.46
11810,-3.8746,0.2073,0.9635,-1476.32,-827.76,1376.83
11820,-3.8746,0.2036,0.9661,-1460.69,-671.51,1704.96
11830,-3.8746,0.1993,0.9681,-1929.44,-343.38,-1716.92
11840,-3.8746,0.1962,0.9690,1523.68,-77.76,-1154.42
11850,-3.8746,0.1929,0.9701,1117.43,31.62,-919.98
11860,-3.8746,0.1893,0.9734,695.56,172.24,-904.36
11870,-3.8746,0.1893,0.9762,242.43,594.12,-826.23
11880,-3.8746,0.1935,0.9744,242.43,953.49,-904.36
11890,-3.8746,0.1995,0.9686,773.68,719.12,-1357.48
11900,-3.8746,0.2043,0.9628,1539.31,-15.26,1986.21
11910,-3.8746,0.2063,0.9601,-1835.69,-765.26,1501.83
11920,-3.8746,0.2051,0.9611,-1585.69,-1109.01,1298.71
11930,-3.8746,0.2013,0.9645,-1741.94,-984.01,1267.46
11940,-3.8746,0.1968,0.9690,1773.68,-546.51,1595.58
11950,-3.8746,0.1938,0.9720,1195.56,31.62,-1685.61
11960,-3.8746,0.1927,0.9719,820.56,422.24,-982.48
11970,-3.8746,0.1927,0.9698,679.93,406.62,-638.73
11980,-3.8746,0.1936,0.9680,679.93,140.99,-638.73
11990,-3.8746,0.1935,0.9658,789.31,-93.38,-716.92
12000,-3.8746,0.1919,0.9637,773.68,-374.63,-857.54
12010,-3.8746,0.1904,0.9624,570.56,-640.26,-1216.92
12020,-3.8746,0.1897,0.9614,383.06,-812.13,-1888.79
12030,-3.8746,0.1907,0.9606,289.31,-937.13,1392.46
12040,-3.8746,0.1931,0.9602,414.31,-1046.51,845.58
12050,-3.8746,0.1957,0.9633,726.81,-1093.38,548.71
12060,-3.8746,0.1980,0.9707,1054.93,-702.76,736.21
12070,-3.8746,0.2007,0.9800,1351.81,250.37,1580.02
12080,-3.8746,0.2037,0.9846,1695.56,1437.87,-1310.61
12090,-3.8746,0.2068,0.9818,-1913.82,-1968.38,-451.23
12100,-3.8746,0.2084,0.9738,-1523.19,1672.24,-107.48
12110,-3.8746,0.2063,0.9645,-1320.07,640.99,-373.11
12120,-3.8746,0.2004,0.9581,-1585.69,-546.51,-982.54
12130,-3.8746,0.1931,0.9564,1664.31,-1359.01,-1529.42
12140,-3.8746,0.1875,0.9575,726.81,-1577.76,-1998.17
12150,-3.8746,0.1866,0.9601,8.06,-1437.13,1658.08
12160,-3.8746,0.1907,0.9657,-101.32,-1109.07,1501.83
12170,-3.8746,0.1989,0.9740,414.31,-390.26,1611.21
12180,-3.8746,0.2086,0.9823,1461.18,672.24,-1654.36
12190,-3.8746,0.2164,0.9858,-1288.82,1734.74,-529.36
12200,-3.8745,0.2197,0.9822,-288.82,-1812.13,236.27
12210,-3.8745,0.2169,0.9740,133.06,1719.18,173.77
12220,-3.8746,0.2086,0.9666,-226.32,672.24,-544.98
12230,-3.8746,0.1984,0.9629,-1288.82,-280.88,-1357.54
12240,-3.8746,0.1908,0.9618,1398.68,-749.63,-1951.29
12250,-3.8746,0.1870,0.9611,429.93,-890.26,1611.21
12260,-3.8746,0.1870,0.9608,-54.44,-984.07,1408.08
12270,-3.8746,0.1896,0.9608,-54.44,-1015.32,1314.33
12280,-3.8746,0.1926,0.9614,273.68,-1015.26,1298.71
12290,-3.8746,0.1956,0.9647,664.31,-937.13,1501.83
12300,-3.8746,0.1973,0.9709,1039.31,-515.26,1923.71
12310,-3.8746,0.1965,0.9769,1258.06,281.62,-1560.61
12320,-3.8746,0.1948,0.9792,1164.31,1047.24,-1138.73
12330,-3.8746,0.1935,0.9771,945.56,1344.12,-982.48
12340,-3.8746,0.1935,0.9706,773.68,1062.87,-1404.36
12350,-3.8746,0.1953,0.9628,773.68,234.74,1751.89
12360,-3.8746,0.1982,0.9569,1008.06,-765.26,845.58
12370,-3.8746,0.1997,0.9554,1383.06,-1515.26,329.96
12380,-3.8746,0.1985,0.9601,1570.56,-1702.76,298.71
12390,-3.8746,0.1968,0.9683,1414.31,-1109.01,626.83
12400,-3.8746,0.1954,0.9740,1195.56,-62.13,1298.71
12410,-3.8746,0.1943,0.9747,1023.68,672.24,-1841.86
12420,-3.8746,0.1937,0.9722,883.06,765.99,-1138.73
12430,-3.8746,0.1934,0.9691,804.93,437.87,-904.36
12440,-3.8746,0.1926,0.9669,758.06,47.24,-1138.73
12450,-3.8746,0.1902,0.9661,664.31,-234.01,-1638.79
12460,-3.8746,0.1875,0.9650,351.81,-343.38,1736.21
12470,-3.8746,0.1865,0.9626,8.06,-484.01,1158.08
12480,-3.8746,0.1873,0.9613,-116.94,-780.94,767.46
12490,-3.8746,0.1895,0.9624,-23.19,-952.82,689.33
12500,-3.8746,0.1926,0.9653,258.06,-812.13,1017.46
12510,-3.8746,0.1956,0.9695,664.31,-437.13,1642.46
12520,-3.8746,0.1968,0.9738,1039.31,94.12,-1732.48
12530,-3.8746,0.1953,0.9762,1195.56,640.99,-1341.86
12540,-3.8746,0.1918,0.9746,1008.06,953.49,-1279.36
12550,-3.8746,0.1888,0.9697,554.93,750.37,-1498.11
12560,-3.8746,0.1888,0.9646,179.93,125.37,-1982.48
12570,-3.8746,0.1901,0.9618,179.93,-530.88,1533.08
12580,-3.8746,0.1901,0.9622,336.18,-890.26,1142.46
12590,-3.8746,0.1917,0.9657,336.18,-843.38,923.71
12600,-3.8746,0.1940,0.9702,539.31,-390.26,1033.08
12610,-3.8746,0.1957,0.9735,836.18,187.87,1408.14
12620,-3.8746,0.1991,0.9742,1054.93,609.74,1798.77
12630,-3.8746,0.2026,0.9730,1492.43,703.49,-1951.23
12640,-3.8746,0.2030,0.9720,1945.56,547.24,-1810.61
12650,-3.8746,0.2003,0.9727,1992.43,422.24,-1654.36
12660,-3.8746,0.1963,0.9725,1648.68,500.37,-1482.48
12670,-3.8746,0.1938,0.9714,1133.06,484.74,-1263.73
12680,-3.8746,0.1938,0.9711,820.56,344.12,-1185.61
12690,-3.8746,0.1947,0.9724,820.56,297.24,-1248.11
12700,-3.8746,0.1965,0.9741,929.93,469.12,-1029.36
12710,-3.8746,0.1979,0.9742,1164.31,687.87,-638.73
12720,-3.8746,0.1978,0.9717,1336.18,703.49,-513.73
12730,-3.8746,0.1981,0.9685,1320.56,375.37,-779.36
12740,-3.8746,0.1986,0.9673,1367.43,-30.88,-1013.79
12750,-3.8746,0.1970,0.9686,1429.93,-187.13,-1107.54
12760,-3.8746,0.1946,0.9714,1226.81,-15.26,-1216.92
12770,-3.8746,0.1929,0.9735,914.31,344.12,-1279.36
12780,-3.8746,0.1924,0.9722,695.56,609.74,-1341.86
12790,-3.8746,0.1935,0.9678,633.06,437.87,-1576.23
12800,-3.8746,0.1945,0.9629,773.68,-124.63,-1873.17
12810,-3.8746,0.1952,0.9618,898.68,-749.63,1970.58
12820,-3.8746,0.1957,0.9664,992.43,-890.26,-1920.04
12830,-3.8746,0.1964,0.9723,1054.93,-296.51,-1545.04
12840,-3.8746,0.1985,0.9740,1148.68,453.49,-982.48
12850,-3.8746,0.2008,0.9709,1414.31,672.24,-607.48
12860,-3.8746,0.2023,0.9659,1711.18,281.62,-779.36
12870,-3.8746,0.2030,0.9634,1898.68,-359.01,-1185.67
12880,-3.8746,0.2040,0.9656,1992.43,-687.13,-1513.79
12890,-3.8746,0.2043,0.9707,-1882.57,-405.88,-1529.42
12900,-3.8746,0.2039,0.9757,-1835.69,250.37,-1248.11
12910,-3.8746,0.2061,0.9791,-1898.19,890.99,-873.11
12920,-3.8746,0.2122,0.9792,-1616.94,1328.49,-623.11
12930,-3.8746,0.2194,0.9755,-835.69,1344.12,-544.98
12940,-3.8746,0.2238,0.9691,86.18,859.80,-701.23
12950,-3.8746,0.2222,0.9646,648.68,47.30,-1263.73
12960,-3.8746,0.2148,0.9642,445.56,-530.82,-1966.92
12970,-3.8746,0.2058,0.9662,-491.94,-577.76,1439.33
12980,-3.8746,0.1989,0.9656,-1648.19,-327.76,1204.96
12990,-3.8746,0.1956,0.9612,1461.18,-405.88,1267.46
13000,-3.8746,0.1963,0.9562,1039.31,-968.38,1376.83
13010,-3.8746,0.1984,0.9526,1133.06,-1609.01,1392.46
13020,-3.8746,0.1996,0.9529,1398.68,1937.87,1329.96
13030,-3.8746,0.2001,0.9576,1554.93,1969.12,1189.33
13040,-3.8746,0.1987,0.9635,1617.43,-1421.51,970.58
13050,-3.8746,0.1946,0.9663,1445.56,-671.51,720.58
13060,-3.8746,0.1885,0.9637,914.31,-312.13,329.96
13070,-3.8746,0.1830,0.9578,133.06,-640.26,1.83
13080,-3.8748,0.1813,0.9524,-570.07,-1405.94,-341.92
13090,-3.8748,0.1848,0.9506,-788.82,1906.56,-748.17
13100,-3.8748,0.1935,0.9518,-335.69,1672.18,-826.29
13110,-3.8748,0.2041,0.9569,773.68,1828.49,-404.42
13120,-3.8746,0.2145,0.9668,-1866.94,-1515.26,267.46
13130,-3.8746,0.2230,0.9764,-538.82,-249.63,1251.83
13140,-3.8746,0.2290,0.9811,554.93,984.80,-1576.23
13150,-3.8746,0.2313,0.9806,1320.56,1578.55,-826.23
13160,-3.8746,0.2295,0.9758,1617.43,1516.05,-669.98
13170,-3.8746,0.2251,0.9685,1383.06,906.68,-748.11
13180,-3.8746,0.2195,0.9626,820.56,-30.82,-826.29
13190,-3.8746,0.2134,0.9611,101.81,-780.82,-701.29
13200,-3.8746,0.2084,0.9631,-679.44,-984.01,-310.67
13210,-3.8745,0.2068,0.9661,-1320.07,-718.38,283.08
13220,-3.8745,0.2092,0.9674,-1523.19,-343.38,986.21
13230,-3.8745,0.2128,0.9689,-1210.69,-171.51,1408.08
13240,-3.8745,0.2153,0.9700,-757.57,15.99,1361.27
13250,-3.8745,0.2168,0.9673,-429.44,156.62,1158.14
13260,-3.8745,0.2158,0.9615,-241.94,-187.13,829.96
13270,-3.8745,0.2095,0.9575,-366.94,-921.51,17.46
13280,-3.8746,0.1986,0.9591,-1179.44,-1437.13,-810.67
13290,-3.8746,0.1897,0.9645,1429.93,-1234.01,-1154.42
13300,-3.8746,0.1877,0.9681,289.31,-546.51,-1107.54
13310,-3.8746,0.1925,0.9673,39.31,-77.76,-1232.54
13320,-3.8746,0.2009,0.9653,648.68,-187.13,-1763.79
13330,-3.8746,0.2087,0.9667,1726.81,-437.13,1642.46
13340,-3.8746,0.2141,0.9707,-1273.19,-265.26,1267.46
13350,-3.8746,0.2173,0.9735,-585.69,250.37,1205.02
13360,-3.8746,0.2178,0.9739,-179.44,609.74,1361.27
13370,-3.8746,0.2147,0.9731,-116.94,656.62,1423.77
13380,-3.8746,0.2083,0.9702,-507.57,562.87,1501.89
13390,-3.8746,0.1991,0.9639,-1335.69,187.87,1751.89
13400,-3.8746,0.1884,0.9546,1492.43,-624.63,1845.58
13410,-3.8746,0.1790,0.9465,117.43,-1812.13,1720.58
13420,-3.8746,0.1753,0.9424,-1085.69,1156.56,1517.46
13430,-3.8746,0.1788,0.9423,-1554.44,625.31,1236.21
13440,-3.8746,0.1873,0.9473,-1101.32,609.68,954.96
13450,-3.8746,0.1971,0.9572,-23.19,1250.31,861.21
13460,-3.8746,0.2070,0.9688,1242.43,-1484.01,1111.21
13470,-3.8746,0.2162,0.9774,-1491.94,0.37,1611.27
13480,-3.8746,0.2227,0.9818,-320.07,1109.74,-1935.61
13490,-3.8746,0.2240,0.9821,508.06,1672.30,-1701.23
13500,-3.8746,0.2198,0.9783,679.93,1703.55,-1591.86
13510,-3.8746,0.2118,0.9705,148.68,1219.18,-1529.36
13520,-3.8746,0.2019,0.9604,-882.57,219.12,-1669.98
13530,-3.8746,0.1925,0.9512,1851.81,-1062.13,1814.33
13540,-3.8746,0.1860,0.9445,648.68,1750.37,1173.71
13550,-3.8746,0.1829,0.9424,-179.44,890.93,908.08
13560,-3.8746,0.1843,0.9459,-585.69,625.31,1033.08
13570,-3.8746,0.1913,0.9548,-398.19,1078.43,1548.71
13580,-3.8746,0.2009,0.9662,492.43,-1780.88,-1623.17
13590,-3.8746,0.2102,0.9752,1726.81,-327.76,-779.42
13600,-3.8746,0.2181,0.9784,-1085.69,828.49,-91.86
13610,-3.8745,0.2235,0.9760,-70.07,1234.74,220.64
13620,-3.8745,0.2242,0.9717,617.43,922.30,142.52
13630,-3.8746,0.2205,0.9683,711.18,375.43,-201.23
13640,-3.8746,0.2126,0.9678,226.81,-62.07,-623.17
13650,-3.8746,0.2043,0.9692,-773.19,-124.63,-795.04
13660,-3.8746,0.1990,0.9688,-1835.69,62.87,-841.86
13670,-3.8746,0.1971,0.9639,1476.81,0.37,-1013.73
13680,-3.8746,0.1979,0.9564,1242.43,-624.63,-1529.42
13690,-3.8746,0.1976,0.9506,1336.18,-1577.76,1658.08
13700,-3.8746,0.1952,0.9486,1304.93,1672.24,908.08
13710,-3.8746,0.1945,0.9506,992.43,1422.24,595.58
13720,-3.8746,0.1982,0.9547,898.68,1672.24,923.71
13730,-3.8746,0.2035,0.9600,1383.06,-1796.51,1533.08
13740,-3.8746,0.2064,0.9658,-1945.07,-1124.63,1923.71
13750,-3.8746,0.2080,0.9702,-1570.07,-374.63,-1857.54
13760,-3.8746,0.2091,0.9701,-1366.94,187.87,-1888.73
13770,-3.8746,0.2094,0.9646,-1226.32,172.24,1751.89
13780,-3.8746,0.2084,0.9589,-1195.07,-530.88,1189.33
13790,-3.8746,0.2057,0.9575,-1320.07,-1265.26,564.33
13800,-3.8746,0.2035,0.9613,-1663.82,-1437.13,251.83
13810,-3.8746,0.2046,0.9664,-1945.07,-952.76,439.33
13820,-3.8746,0.2091,0.9696,-1804.44,-296.51,892.46
13830,-3.8746,0.2142,0.9698,-1226.32,109.74,1345.64
13840,-3.8746,0.2158,0.9684,-570.07,140.99,1517.52
13850,-3.8746,0.2124,0.9675,-366.94,-46.51,1189.33
13860,-3.8746,0.2069,0.9672,-804.44,-155.88,611.21
13870,-3.8746,0.2034,0.9656,-1507.57,-202.76,329.96
13880,-3.8746,0.2031,0.9619,-1960.69,-405.88,470.58
13890,-3.8746,0.2059,0.9578,-1991.94,-874.63,533.08
13900,-3.8746,0.2097,0.9561,-1632.57,-1405.88,533.08
13910,-3.8746,0.2122,0.9584,-1148.19,-1624.63,751.83
13920,-3.8746,0.2142,0.9642,-835.69,-1327.76,1189.33
13930,-3.8746,0.2163,0.9712,-570.07,-577.76,1704.96
13940,-3.8746,0.2184,0.9773,-304.44,312.87,-1779.36
13950,-3.8746,0.2206,0.9803,-38.82,1094.12,-1404.36
13960,-3.8746,0.2207,0.9801,242.43,1484.80,-1216.86
13970,-3.8746,0.2173,0.9783,258.06,1453.55,-1060.61
13980,-3.8746,0.2134,0.9763,-179.44,1219.12,-951.23
13990,-3.8746,0.2133,0.9740,-679.44,969.12,-919.98
14000,-3.8746,0.2156,0.9716,-695.07,672.24,-919.98
14010,-3.8746,0.2179,0.9703,-398.19,359.74,-935.61
14020,-3.8746,0.2188,0.9703,-101.32,203.49,-810.61
14030,-3.8746,0.2170,0.9703,8.06,203.55,-654.36
14040,-3.8746,0.2147,0.9701,-210.69,203.49,-623.11
14050,-3.8746,0.2140,0.9708,-507.57,172.24,-576.23
14060,-3.8746,0.2144,0.9734,-601.32,265.99,-654.36
14070,-3.8746,0.2134,0.9741,-554.44,594.12,-873.11
14080,-3.8746,0.2090,0.9712,-679.44,687.87,-1107.48
14090,-3.8746,0.2020,0.9683,-1241.94,312.87,-1466.86
14100,-3.8746,0.1957,0.9663,1867.43,-62.13,-1795.04
14110,-3.8746,0.1921,0.9639,1054.93,-312.13,-1998.17
14120,-3.8746,0.1904,0.9608,601.81,-624.63,1736.21
14130,-3.8746,0.1902,0.9586,383.06,-1015.26,1236.21
14140,-3.8746,0.1921,0.9601,351.81,-1296.51,579.96
14150,-3.8746,0.1963,0.9635,601.81,-1109.01,79.96
14160,-3.8748,0.2004,0.9663,1133.06,-671.51,-201.29
14170,-3.8748,0.2020,0.9683,1664.31,-312.13,-435.67
14180,-3.8748,0.2010,0.9683,1867.43,-62.13,-513.79
14190,-3.8748,0.1989,0.9661,1742.43,-62.13,-326.29
14200,-3.8748,0.1962,0.9620,1461.18,-343.38,-107.54
14210,-3.8746,0.1935,0.9575,1117.43,-859.01,1.83
14220,-3.8748,0.1904,0.9559,773.68,-1437.13,-107.54
14230,-3.8748,0.1873,0.9570,383.06,-1640.26,-341.92
14240,-3.8748,0.1854,0.9587,-23.19,-1499.69,-420.04
14250,-3.8748,0.1858,0.9607,-257.57,-1280.94,-404.42
14260,-3.8748,0.1888,0.9641,-210.69,-1030.94,-435.67
14270,-3.8748,0.1947,0.9692,179.93,-593.38,-263.79
14280,-3.8746,0.2020,0.9740,929.93,62.87,251.89
14290,-3.8746,0.2094,0.9768,1867.43,672.24,845.64
14300,-3.8746,0.2161,0.9767,-1195.07,1031.62,1220.64
14310,-3.8746,0.2207,0.9735,-335.69,1015.99,1423.77
14320,-3.8746,0.2217,0.9696,258.06,609.80,1533.14
14330,-3.8746,0.2192,0.9668,383.06,109.80,1455.02
14340,-3.8746,0.2146,0.9666,70.56,-249.57,1220.58
14350,-3.8746,0.2089,0.9686,-523.19,-280.88,892.46
14360,-3.8746,0.2042,0.9709,-1257.57,-15.26,611.21
14370,-3.8746,0.2035,0.9718,-1851.32,281.62,408.14
14380,-3.8746,0.2068,0.9731,-1945.07,390.99,408.14
14390,-3.8746,0.2134,0.9760,-1523.19,562.87,720.64
14400,-3.8746,0.2214,0.9785,-679.44,922.24,1314.39
14410,-3.8746,0.2275,0.9780,351.81,1250.43,1955.02
14420,-3.8746,0.2283,0.9735,1133.06,1187.93,-1763.73
14430,-3.8746,0.2236,0.9675,1226.81,609.80,-1779.36
14440,-3.8746,0.2158,0.9631,633.06,-155.82,1970.58
14450,-3.8746,0.2079,0.9615,-366.94,-718.38,1533.08
14460,-3.8746,0.2036,0.9618,-1382.57,-921.51,1236.21
14470,-3.8746,0.2040,0.9631,-1929.44,-890.26,1173.71
14480,-3.8746,0.2074,0.9668,-1882.57,-718.38,1267.46
14490,-3.8746,0.2115,0.9722,-1445.07,-249.63,1579.96
14500,-3.8746,0.2152,0.9764,-913.82,437.87,-1888.73
14510,-3.8746,0.2170,0.9783,-445.07,984.74,-1451.23
14520,-3.8746,0.2159,0.9762,-210.69,1219.12,-1341.86
14530,-3.8746,0.2134,0.9709,-351.32,953.49,-1513.73
14540,-3.8746,0.2114,0.9659,-679.44,281.62,-1982.48
14550,-3.8746,0.2114,0.9629,-929.44,-359.01,1345.58
14560,-3.8746,0.2123,0.9622,-929.44,-749.63,751.83
14570,-3.8746,0.2128,0.9656,-820.07,-843.38,439.33
14580,-3.8746,0.2117,0.9709,-757.57,-405.88,564.33
14590,-3.8746,0.2096,0.9742,-898.19,281.62,986.27
14600,-3.8746,0.2069,0.9739,-1163.82,703.49,1314.39
14610,-3.8746,0.2048,0.9716,-1507.57,656.62,1517.52
14620,-3.8746,0.2042,0.9691,-1773.19,359.74,1501.89
14630,-3.8746,0.2048,0.9658,-1851.32,47.24,1126.89
14640,-3.8746,0.2045,0.9622,-1773.19,-374.63,454.96
14650,-3.8748,0.2024,0.9603,-1820.07,-843.38,-154.42
14660,-3.8748,0.1997,0.9615,1914.31,-1077.76,-466.92
14670,-3.8748,0.1974,0.9641,1570.56,-921.51,-498.17
14680,-3.8748,0.1964,0.9664,1273.68,-593.38,-420.04
14690,-3.8748,0.1982,0.9698,1148.68,-296.51,-201.29
14700,-3.8746,0.2030,0.9733,1383.06,140.99,283.14
14710,-3.8746,0.2081,0.9746,1992.43,578.49,861.27
14720,-3.8746,0.2100,0.9728,-1351.32,750.37,1173.77
14730,-3.8746,0.2089,0.9695,-1116.94,515.99,1158.14
14740,-3.8746,0.2068,0.9664,-1257.57,94.12,955.02
14750,-3.8746,0.2046,0.9637,-1523.19,-296.51,751.83
14760,-3.8746,0.2030,0.9618,-1804.44,-640.26,704.96
14770,-3.8746,0.2004,0.9612,1992.43,-890.26,704.96
14780,-3.8746,0.1973,0.9619,1664.31,-968.38,767.46
14790,-3.8746,0.1968,0.9644,1258.06,-874.63,1033.08
14800,-3.8746,0.1986,0.9683,1195.56,-562.13,1439.33
14810,-3.8746,0.2018,0.9714,1429.93,-62.13,1923.71
14820,-3.8746,0.2057,0.9722,1836.18,344.12,-1498.11
14830,-3.8746,0.2080,0.9700,-1663.82,437.87,-1185.61
14840,-3.8746,0.2084,0.9661,-1366.94,156.62,-1404.36
14850,-3.8746,0.2076,0.9623,-1320.07,-343.38,-1982.54
14860,-3.8746,0.2061,0.9604,-1413.82,-827.76,1376.83
14870,-3.8746,0.2047,0.9608,-1616.94,-1062.13,814.33
14880,-3.8746,0.2039,0.9631,-1788.82,-1015.26,361.21
14890,-3.8746,0.2050,0.9658,-1898.19,-718.38,173.71
14900,-3.8746,0.2061,0.9674,-1757.57,-374.63,329.96
14910,-3.8746,0.2045,0.9679,-1616.94,-171.51,642.46
14920,-3.8746,0.2007,0.9681,-1820.07,-109.01,876.83
14930,-3.8746,0.1965,0.9684,1695.56,-77.76,1126.83
14940,-3.8746,0.1938,0.9679,1164.31,-46.51,1236.21
14950,-3.8746,0.1938,0.9655,820.56,-109.01,1001.83
14960,-3.8746,0.1959,0.9622,820.56,-421.51,595.58
14970,-3.8746,0.1991,0.9609,1086.18,-843.38,158.08
14980,-3.8748,0.2025,0.9626,1492.43,-999.63,-185.67
14990,-3.8748,0.2050,0.9657,1929.93,-780.88,-295.04
15000,-3.8748,0.2070,0.9688,-1757.57,-390.26,-76.29
15010,-3.8746,0.2091,0.9712,-1491.94,0.37,298.77
15020,-3.8746,0.2102,0.9731,-1226.32,312.87,751.89
15030,-3.8746,0.2098,0.9747,-1085.69,562.87,1111.27
15040,-3.8746,0.2091,0.9749,-1132.57,765.99,1314.39
15050,-3.8746,0.2089,0.9719,-1226.32,781.62,1361.27
15060,-3.8746,0.2074,0.9698,-1257.57,406.62,1361.27
15070,-3.8746,0.2043,0.9711,-1445.07,140.99,1376.89
15080,-3.8746,0.2029,0.9728,-1835.69,297.24,1408.14
15090,-3.8746,0.2046,0.9727,1976.81,515.99,1408.14
15100,-3.8746,0.2085,0.9698,-1804.44,500.37,1345.64
15110,-3.8746,0.2120,0.9657,-1304.44,140.99,1173.77
15120,-3.8746,0.2131,0.9633,-851.32,-390.26,1017.46
15130,-3.8746,0.2108,0.9644,-710.69,-702.76,1048.71
15140,-3.8746,0.2068,0.9669,-1007.57,-562.13,1454.96
15150,-3.8746,0.2024,0.9679,-1523.19,-234.01,-1826.29
15160,-3.8746,0.1975,0.9668,1914.31,-109.01,-1107.54
15170,-3.8746,0.1929,0.9656,1289.31,-249.63,-810.67
15180,-3.8746,0.1896,0.9656,695.56,-405.88,-1123.17
15190,-3.8746,0.1896,0.9655,273.68,-405.88,-1638.79
15200,-3.8746,0.1929,0.9651,273.68,-421.51,1986.21
15210,-3.8746,0.1973,0.9644,695.56,-468.38,1736.21
15220,-3.8746,0.2008,0.9636,1258.06,-562.13,1439.33
15230,-3.8746,0.2018,0.9636,1711.18,-655.88,1033.08
15240,-3.8746,0.2006,0.9651,1836.18,-655.88,798.71
15250,-3.8746,0.1997,0.9686,1679.93,-468.38,814.33
15260,-3.8746,0.2004,0.9735,1570.56,-15.26,1033.08
15270,-3.8746,0.2024,0.9764,1664.31,609.74,1486.27
15280,-3.8746,0.2041,0.9750,1914.31,984.74,1830.02
15290,-3.8746,0.2039,0.9697,-1866.94,797.24,1705.02
15300,-3.8746,0.2009,0.9644,-1898.19,125.37,1126.89
15310,-3.8746,0.1981,0.9611,1726.81,-562.13,517.46
15320,-3.8746,0.1984,0.9596,1367.43,-984.01,126.83
15330,-3.8748,0.2007,0.9592,1398.68,-1171.51,-123.17
15340,-3.8748,0.2028,0.9598,1695.56,-1218.38,-248.17
15350,-3.8748,0.2046,0.9626,1961.18,-1140.26,-170.04
15360,-3.8746,0.2063,0.9667,-1804.44,-780.88,283.08
15370,-3.8746,0.2062,0.9697,-1585.69,-265.26,970.58
15380,-3.8746,0.2050,0.9701,-1601.32,125.37,1501.89
15390,-3.8746,0.2051,0.9689,-1757.57,172.24,1517.52
15400,-3.8746,0.2058,0.9672,-1741.94,15.99,1236.27
15410,-3.8746,0.2067,0.9647,-1648.19,-202.76,751.83
15420,-3.8746,0.2090,0.9623,-1538.82,-515.26,204.96
15430,-3.8748,0.2128,0.9611,-1241.94,-827.76,-216.92
15440,-3.8748,0.2151,0.9620,-757.57,-984.01,-404.42
15450,-3.8748,0.2150,0.9641,-460.69,-859.01,-248.17
15460,-3.8746,0.2134,0.9673,-476.32,-593.38,126.83
15470,-3.8746,0.2119,0.9706,-679.44,-187.13,564.33
15480,-3.8746,0.2117,0.9739,-866.94,234.74,955.02
15490,-3.8746,0.2125,0.9752,-898.19,656.62,1158.14
15500,-3.8746,0.2133,0.9717,-788.82,828.49,1158.14
15510,-3.8746,0.2131,0.9647,-695.07,375.37,970.64
15520,-3.8746,0.2117,0.9573,-710.69,-515.26,595.58
15530,-3.8746,0.2095,0.9541,-898.19,-1468.38,204.96
15540,-3.8746,0.2070,0.9584,-1179.44,-1874.63,173.71
15550,-3.8746,0.2047,0.9679,-1491.94,-1327.76,611.21
15560,-3.8746,0.2048,0.9766,-1788.82,-109.01,1376.83
15570,-3.8746,0.2083,0.9799,-1773.19,1000.37,-1951.23
15580,-3.8746,0.2128,0.9771,-1335.69,1422.24,-1685.61
15590,-3.8746,0.2159,0.9709,-757.57,1062.87,-1873.11
15600,-3.8746,0.2170,0.9661,-351.32,281.62,1626.89
15610,-3.8746,0.2158,0.9646,-210.69,-343.38,1204.96
15620,-3.8746,0.2129,0.9645,-366.94,-530.88,1001.83
15630,-3.8746,0.2092,0.9645,-741.94,-546.51,1001.83
15640,-3.8746,0.2043,0.9658,-1210.69,-546.51,1079.96
15650,-3.8746,0.1991,0.9672,-1835.69,-374.63,1095.58
15660,-3.8746,0.1958,0.9674,1492.43,-202.76,1111.21
15670,-3.8746,0.1965,0.9661,1070.56,-171.51,1079.96
15680,-3.8746,0.2008,0.9642,1164.31,-343.38,939.33
15690,-3.8746,0.2061,0.9653,1711.18,-577.76,704.96
15700,-3.8746,0.2092,0.9694,-1616.94,-437.13,611.21
15710,-3.8746,0.2094,0.9735,-1210.69,78.49,861.27
15720,-3.8746,0.2078,0.9747,-1195.07,609.74,1173.77
15730,-3.8746,0.2056,0.9719,-1398.19,765.99,1345.64
15740,-3.8746,0.2048,0.9672,-1679.44,406.62,1267.52
15750,-3.8746,0.2062,0.9625,-1773.19,-202.76,939.33
15760,-3.8746,0.2084,0.9590,-1601.32,-796.51,548.71
15770,-3.8746,0.2106,0.9570,-1320.07,-1249.63,376.83
15780,-3.8746,0.2111,0.9589,-1038.82,-1499.63,314.33
15790,-3.8746,0.2095,0.9651,-976.32,-1265.26,314.33
15800,-3.8746,0.2084,0.9714,-1179.44,-468.38,548.71
15810,-3.8746,0.2092,0.9762,-1320.07,344.12,892.52
15820,-3.8746,0.2120,0.9797,-1210.69,953.49,1220.64
15830,-3.8746,0.2158,0.9812,-851.32,1406.62,1314.39
15840,-3.8746,0.2200,0.9795,-366.94,1594.12,1220.64
15850,-3.8746,0.2218,0.9747,164.31,1375.43,1064.39
15860,-3.8746,0.2196,0.9695,398.68,766.05,736.27
15870,-3.8746,0.2141,0.9653,117.43,94.18,283.14
15880,-3.8746,0.2086,0.9634,-585.69,-437.13,17.46
15890,-3.8746,0.2063,0.9640,-1288.82,-687.13,298.71
15900,-3.8746,0.2063,0.9661,-1585.69,-609.01,1017.46
15910,-3.8746,0.2072,0.9696,-1585.69,-343.38,1783.08
15920,-3.8746,0.2074,0.9728,-1476.32,109.74,-1513.73
15930,-3.8746,0.2064,0.9725,-1445.07,515.99,-951.23
15940,-3.8746,0.2040,0.9679,-1570.07,484.74,-748.11
15950,-3.8746,0.2000,0.9629,-1882.57,-109.01,-935.67
15960,-3.8746,0.1962,0.9620,1601.81,-749.63,-1326.29
15970,-3.8746,0.1959,0.9652,1117.43,-859.01,-1638.79
15980,-3.8746,0.1992,0.9686,1086.18,-452.76,-1826.29
15990,-3.8746,0.2026,0.9695,1508.06,-15.26,1908.08
16000,-3.8746,0.2042,0.9692,1945.56,94.12,1501.89
16010,-3.8746,0.2046,0.9701,-1851.32,62.87,1345.64
16020,-3.8746,0.2062,0.9719,-1804.44,172.24,1689.39
16030,-3.8746,0.2086,0.9713,-1601.32,406.62,-1857.48
16040,-3.8746,0.2084,0.9680,-1288.82,328.49,-1685.61
16050,-3.8746,0.2047,0.9653,-1320.07,-93.38,-1873.17
16060,-3.8746,0.1990,0.9641,-1788.82,-437.13,1720.58
16070,-3.8746,0.1947,0.9637,1476.81,-593.38,1408.08
16080,-3.8746,0.1942,0.9625,929.93,-640.26,1314.33
16090,-3.8746,0.1967,0.9604,867.43,-796.51,1345.58
16100,-3.8746,0.1993,0.9592,1179.93,-1062.13,1267.46
16110,-3.8746,0.2008,0.9607,1523.68,-1218.38,939.33
16120,-3.8746,0.2015,0.9645,1711.18,-1030.88,689.33
16130,-3.8746,0.2037,0.9678,1804.93,-546.51,736.21
16140,-3.8746,0.2087,0.9684,-1913.82,-124.63,923.71
16150,-3.8746,0.2129,0.9662,-1273.19,-46.51,1048.71
16160,-3.8746,0.2130,0.9650,-741.94,-327.76,986.21
16170,-3.8746,0.2094,0.9668,-726.32,-484.01,829.96
16180,-3.8746,0.2053,0.9691,-1195.07,-249.63,798.71
16190,-3.8746,0.2040,0.9685,-1710.69,47.24,736.27
16200,-3.8746,0.2052,0.9650,-1882.57,-30.88,642.46
16210,-3.8746,0.2076,0.9603,-1726.32,-484.01,564.33
16220,-3.8746,0.2111,0.9572,-1413.82,-1077.76,454.96
16230,-3.8746,0.2147,0.9584,-976.32,-1484.01,501.83
16240,-3.8746,0.2178,0.9637,-507.57,-1327.76,783.08
16250,-3.8746,0.2195,0.9678,-116.94,-640.26,1220.58
16260,-3.8746,0.2191,0.9669,101.81,-124.57,1611.21
16270,-3.8746,0.2153,0.9646,54.93,-233.95,1751.83
16280,-3.8746,0.2109,0.9651,-429.44,-530.88,1642.46
16290,-3.8746,0.2100,0.9662,-991.94,-468.38,1689.33
16300,-3.8746,0.2125,0.9650,-1116.94,-327.76,1845.58
16310,-3.8746,0.2155,0.9626,-788.82,-484.01,1767.46
16320,-3.8746,0.2166,0.9612,-413.82,-780.88,1423.71
16330,-3.8746,0.2156,0.9607,-273.19,-968.38,1064.33
16340,-3.8746,0.2144,0.9613,-398.19,-1030.88,829.96
16350,-3.8746,0.2142,0.9639,-554.44,-952.76,767.46
16360,-3.8746,0.2156,0.9674,-570.07,-624.63,892.46
16370,-3.8746,0.2177,0.9697,-398.19,-171.51,1095.58
16380,-3.8746,0.2186,0.9698,-132.57,125.37,1236.27
16390,-3.8746,0.2179,0.9689,-7.57,140.99,1205.02
16400,-3.8746,0.2144,0.9677,-101.32,15.99,1111.27
16410,-3.8746,0.2081,0.9667,-554.44,-140.26,1111.21
16420,-3.8746,0.2023,0.9652,-1351.32,-265.26,1314.33
16430,-3.8746,0.1989,0.9625,1898.68,-452.76,1470.58
16440,-3.8746,0.1989,0.9587,1461.18,-796.51,1329.96
16450,-3.8746,0.2024,0.9561,1461.18,-1280.88,1142.46
16460,-3.8746,0.2074,0.9572,1914.31,-1624.63,1111.21
16470,-3.8746,0.2119,0.9614,-1445.07,-1484.01,1314.33
16480,-3.8746,0.2157,0.9658,-866.94,-937.13,1751.83
16490,-3.8746,0.2183,0.9686,-382.57,-374.63,-1763.79
16500,-3.8746,0.2189,0.9696,-54.44,-15.26,-1451.29
16510,-3.8746,0.2177,0.9688,23.68,109.80,-1466.86
16520,-3.8746,0.2153,0.9664,-132.57,0.37,-1701.23
16530,-3.8746,0.2133,0.9655,-429.44,-296.51,-1951.29
16540,-3.8746,0.2122,0.9679,-695.07,-421.51,1876.83
16550,-3.8746,0.2125,0.9712,-835.69,-109.01,1986.21
16560,-3.8746,0.2136,0.9719,-788.82,312.87,-1607.48
16570,-3.8746,0.2137,0.9705,-648.19,406.62,-1248.11
16580,-3.8746,0.2130,0.9695,-632.57,219.12,-1216.86
16590,-3.8746,0.2112,0.9708,-726.32,94.12,-1341.86
16600,-3.8746,0.2094,0.9725,-960.69,265.99,-1294.98
16610,-3.8746,0.2100,0.9708,-1195.07,484.74,-1091.86
16620,-3.8746,0.2124,0.9653,-1116.94,265.99,-888.73
16630,-3.8746,0.2136,0.9602,-804.44,-437.13,-795.04
16640,-3.8746,0.2123,0.9592,-648.19,-1093.38,-763.79
16650,-3.8746,0.2091,0.9609,-820.07,-1218.38,-716.92
16660,-3.8746,0.2067,0.9623,-1226.32,-999.63,-654.42
16670,-3.8746,0.2076,0.9618,-1538.82,-827.76,-576.29
16680,-3.8746,0.2107,0.9608,-1413.82,-890.26,-513.79
16690,-3.8746,0.2135,0.9609,-1023.19,-1015.26,-576.29
16700,-3.8746,0.2153,0.9628,-663.82,-999.63,-748.17
16710,-3.8746,0.2156,0.9667,-429.44,-765.26,-935.67
16720,-3.8746,0.2157,0.9697,-398.19,-265.26,-1013.79
16730,-3.8746,0.2164,0.9706,-382.57,125.37,-998.11
16740,-3.8746,0.2180,0.9701,-288.82,234.74,-1123.11
16750,-3.8746,0.2196,0.9689,-85.69,172.24,-1310.61
16760,-3.8746,0.2200,0.9664,117.43,16.05,-1451.23
16770,-3.8746,0.2183,0.9620,164.31,-296.45,-1732.54
16780,-3.8746,0.2145,0.9578,-54.44,-859.01,1798.71
16790,-3.8746,0.2094,0.9548,-538.82,-1405.88,1236.21
16800,-3.8746,0.2042,0.9536,-1195.07,-1780.88,767.46
16810,-3.8746,0.2008,0.9542,-1851.32,-1937.13,548.71
16820,-3.8746,0.2013,0.9551,1711.18,-1859.01,454.96
16830,-3.8746,0.2045,0.9552,1773.68,-1749.63,345.58
16840,-3.8746,0.2081,0.9551,-1820.07,-1734.01,189.33
16850,-3.8748,0.2114,0.9548,-1351.32,-1749.63,-154.42
16860,-3.8748,0.2118,0.9548,-929.44,-1780.88,-498.17
16870,-3.8748,0.2089,0.9559,-882.57,-1780.88,-576.29
16880,-3.8748,0.2052,0.9583,-1257.57,-1640.26,-435.67
16890,-3.8748,0.2035,0.9613,-1726.32,-1343.38,-45.04
16900,-3.8746,0.2040,0.9625,-1945.07,-952.76,439.33
16910,-3.8746,0.2054,0.9615,-1882.57,-796.51,658.08
16920,-3.8746,0.2078,0.9618,-1695.07,-921.51,673.71
16930,-3.8746,0.2104,0.9633,-1398.19,-890.26,673.71
16940,-3.8746,0.2131,0.9644,-1054.44,-702.76,814.33
16950,-3.8746,0.2147,0.9642,-710.69,-562.13,1048.71
16960,-3.8746,0.2157,0.9642,-507.57,-577.76,1126.83
16970,-3.8746,0.2162,0.9646,-382.57,-577.76,1142.46
16980,-3.8746,0.2162,0.9634,-320.07,-530.88,1267.46
16990,-3.8746,0.2159,0.9601,-320.07,-687.13,1439.33
17000,-3.8746,0.2151,0.9568,-351.32,-1109.01,1658.08
17010,-3.8746,0.2120,0.9558,-460.69,-1530.88,1829.96
17020,-3.8746,0.2073,0.9579,-851.32,-1655.88,-1982.54
17030,-3.8746,0.2050,0.9622,-1460.69,-1390.26,-1466.92
17040,-3.8746,0.2080,0.9652,-1757.57,-843.38,-748.17
17050,-3.8746,0.2141,0.9652,-1366.94,-452.76,-232.54
17060,-3.8746,0.2186,0.9631,-585.69,-452.76,-60.67
17070,-3.8746,0.2200,0.9614,-7.57,-718.38,-201.29
17080,-3.8746,0.2190,0.9617,164.31,-937.07,-451.29
17090,-3.8746,0.2170,0.9626,39.31,-905.82,-638.79
17100,-3.8746,0.2142,0.9614,-210.69,-780.88,-826.29
17110,-3.8746,0.2120,0.9603,-570.07,-937.13,-998.17
17120,-3.8746,0.2112,0.9617,-851.32,-1077.76,-1216.92
17130,-3.8746,0.2102,0.9647,-960.69,-905.88,-1420.04
17140,-3.8746,0.2091,0.9673,-1085.69,-515.26,-1451.29
17150,-3.8746,0.2094,0.9680,-1226.32,-187.13,-1341.92
17160,-3.8746,0.2115,0.9683,-1195.07,-93.38,-1357.54
17170,-3.8746,0.2150,0.9689,-913.82,-62.13,-1607.54
17180,-3.8746,0.2190,0.9700,-476.32,15.99,-1841.86
17190,-3.8746,0.2223,0.9711,39.31,156.68,-1935.61
17200,-3.8746,0.2242,0.9698,461.18,297.30,1892.52
17210,-3.8746,0.2235,0.9656,711.18,141.05,1580.02
17220,-3.8746,0.2205,0.9607,617.43,-405.82,1126.83
17230,-3.8746,0.2172,0.9585,226.81,-1030.82,564.33
17240,-3.8746,0.2136,0.9594,-195.07,-1312.13,204.96
17250,-3.8746,0.2120,0.9626,-648.19,-1202.76,283.08
17260,-3.8746,0.2140,0.9670,-851.32,-780.88,767.46
17270,-3.8746,0.2167,0.9709,-601.32,-218.38,1314.33
17280,-3.8746,0.2189,0.9745,-257.57,281.62,1689.39
17290,-3.8746,0.2201,0.9779,23.68,734.80,1986.27
17300,-3.8746,0.2191,0.9788,179.93,1172.30,-1669.98
17310,-3.8746,0.2169,0.9758,54.93,1281.68,-1560.61
17320,-3.8746,0.2155,0.9697,-226.32,906.62,-1748.11
17330,-3.8746,0.2135,0.9622,-413.82,125.37,-1982.48
17340,-3.8746,0.2108,0.9572,-663.82,-843.38,1736.21
17350,-3.8746,0.2091,0.9563,-1007.57,-1484.01,1298.71
17360,-3.8746,0.2086,0.9589,-1226.32,-1593.38,1017.46
17370,-3.8746,0.2092,0.9629,-1288.82,-1265.26,1158.08
17380,-3.8746,0.2091,0.9655,-1210.69,-749.63,1611.21
17390,-3.8746,0.2069,0.9668,-1226.32,-421.51,-1966.92
17400,-3.8746,0.2024,0.9688,-1507.57,-249.63,-1763.79
17410,-3.8746,0.1985,0.9709,1914.31,0.37,-1591.86
17420,-3.8746,0.1986,0.9720,1414.31,281.62,-1388.73
17430,-3.8746,0.2028,0.9719,1429.93,422.24,-1279.36
17440,-3.8746,0.2081,0.9695,1961.18,406.62,-1482.48
17450,-3.8746,0.2123,0.9658,-1351.32,94.12,1970.64
17460,-3.8746,0.2134,0.9629,-820.07,-374.63,1423.71
17470,-3.8746,0.2109,0.9622,-679.44,-749.63,1142.46
17480,-3.8746,0.2068,0.9642,-991.94,-843.38,1158.08
17490,-3.8746,0.2035,0.9668,-1523.19,-577.76,1454.96
17500,-3.8746,0.2020,0.9677,-1945.07,-249.63,1892.46
17510,-3.8746,0.2023,0.9667,1867.43,-140.26,-1748.17
17520,-3.8746,0.2031,0.9662,1898.68,-265.26,-1623.17
17530,-3.8746,0.2035,0.9677,-1991.94,-327.76,-1576.29
17540,-3.8746,0.2032,0.9690,-1945.07,-140.26,-1482.54
17550,-3.8746,0.2029,0.9672,-1976.32,31.62,-1591.86
17560,-3.8746,0.2034,0.9630,1976.81,-202.76,1954.96
17570,-3.8746,0.2040,0.9591,-1960.69,-734.01,1314.33
17580,-3.8746,0.2054,0.9567,-1882.57,-1234.01,611.21
17590,-3.8746,0.2073,0.9572,-1695.07,-1546.51,251.83
17600,-3.8746,0.2090,0.9608,-1460.69,-1484.01,204.96
17610,-3.8746,0.2107,0.9662,-1241.94,-1015.26,408.08
17620,-3.8746,0.2122,0.9712,-1023.19,-327.76,814.33
17630,-3.8746,0.2123,0.9740,-835.69,312.87,1267.52
17640,-3.8746,0.2107,0.9745,-820.07,672.24,1611.27
17650,-3.8746,0.2089,0.9740,-1023.19,734.74,1736.27
17660,-3.8746,0.2078,0.9724,-1257.57,672.24,1673.77
17670,-3.8746,0.2083,0.9686,-1398.19,469.12,1501.89
17680,-3.8746,0.2111,0.9645,-1335.69,-15.26,1158.08
17690,-3.8746,0.2139,0.9624,-976.32,-546.51,798.71
17700,-3.8746,0.2148,0.9626,-616.94,-812.13,548.71
17710,-3.8746,0.2144,0.9633,-491.94,-780.88,501.83
17720,-3.8746,0.2134,0.9645,-554.44,-702.76,689.33
17730,-3.8746,0.2134,0.9657,-679.44,-546.51,939.33
17740,-3.8746,0.2131,0.9667,-679.44,-390.26,1126.83
17750,-3.8746,0.2120,0.9681,-710.69,-265.26,1329.96
17760,-3.8746,0.2107,0.9707,-851.32,-77.76,1626.83
17770,-3.8746,0.2106,0.9735,-1023.19,250.37,1876.89
17780,-3.8746,0.2112,0.9736,-1038.82,609.74,-1873.11
17790,-3.8746,0.2113,0.9686,-960.69,625.37,-1904.36
17800,-3.8746,0.2111,0.9607,-945.07,-15.26,1548.71
17810,-3.8746,0.2104,0.9543,-976.32,-1030.88,798.71
17820,-3.8746,0.2092,0.9528,-1054.44,-1843.38,126.83
17830,-3.8748,0.2081,0.9565,-1210.69,1953.49,-201.29
17840,-3.8748,0.2067,0.9623,-1351.32,-1562.13,-216.92
17850,-3.8748,0.2034,0.9672,-1538.82,-827.76,-91.92
17860,-3.8746,0.1986,0.9716,-1960.69,-202.76,79.96
17870,-3.8746,0.1953,0.9761,1429.93,359.74,501.89
17880,-3.8746,0.1949,0.9780,1008.06,937.87,1142.52
17890,-3.8746,0.1992,0.9755,961.18,1187.87,1595.64
17900,-3.8746,0.2063,0.9689,1508.06,859.74,1501.89
17910,-3.8746,0.2120,0.9612,-1585.69,15.99,923.77
17920,-3.8746,0.2137,0.9562,-851.32,-968.38,251.83
17930,-3.8748,0.2115,0.9557,-632.57,-1609.01,-138.79
17940,-3.8748,0.2070,0.9592,-913.82,-1671.51,-91.92
17950,-3.8746,0.2034,0.9648,-1491.94,-1218.38,251.83
17960,-3.8746,0.2030,0.9711,-1960.69,-499.63,658.08
17970,-3.8746,0.2046,0.9756,1992.43,297.24,1173.77
17980,-3.8746,0.2068,0.9768,-1804.44,875.37,1783.14
17990,-3.8746,0.2078,0.9750,-1523.19,1031.62,-1685.61
18000,-3.8746,0.2062,0.9709,-1398.19,797.24,-1373.11
18010,-3.8746,0.2035,0.9663,-1601.32,281.62,-1435.61
18020,-3.8746,0.2021,0.9631,-1945.07,-312.13,-1888.79
18030,-3.8746,0.2018,0.9619,1883.06,-718.38,1470.58
18040,-3.8746,0.2018,0.9614,1836.18,-874.63,954.96
18050,-3.8746,0.2036,0.9609,1836.18,-937.13,736.21
18060,-3.8746,0.2056,0.9613,-1929.44,-999.63,751.83
18070,-3.8746,0.2061,0.9644,-1679.44,-952.76,986.21
18080,-3.8746,0.2058,0.9707,-1616.94,-562.13,1454.96
18090,-3.8746,0.2072,0.9767,-1648.19,250.37,-1982.48
18100,-3.8746,0.2090,0.9784,-1476.32,1015.99,-1373.11
18110,-3.8746,0.2076,0.9758,-1241.94,1234.74,-998.11
18120,-3.8746,0.2045,0.9709,-1413.82,906.62,-1107.48
18130,-3.8746,0.2015,0.9656,-1820.07,281.62,-1638.73
18140,-3.8746,0.2003,0.9618,1804.93,-405.88,1689.33
18150,-3.8746,0.2009,0.9604,1648.68,-890.26,1126.83
18160,-3.8746,0.2034,0.9608,1726.81,-1062.13,704.96
18170,-3.8746,0.2075,0.9629,-1960.69,-1015.26,361.21
18180,-3.8746,0.2117,0.9674,-1429.44,-749.63,283.08
18190,-3.8746,0.2150,0.9720,-898.19,-171.51,470.58
18200,-3.8746,0.2170,0.9751,-476.32,422.24,720.64
18210,-3.8746,0.2179,0.9757,-210.69,812.87,1001.89
18220,-3.8746,0.2170,0.9738,-101.32,890.99,1345.64
18230,-3.8746,0.2131,0.9700,-210.69,640.99,1548.77
18240,-3.8746,0.2073,0.9661,-710.69,156.62,1283.14
18250,-3.8746,0.2015,0.9624,-1460.69,-343.38,720.58
18260,-3.8746,0.1973,0.9608,1804.93,-812.13,158.08
18270,-3.8748,0.1952,0.9625,1258.06,-1015.26,-248.17
18280,-3.8748,0.1959,0.9652,992.43,-796.51,-420.04
18290,-3.8748,0.1997,0.9666,1086.18,-452.76,-513.79
18300,-3.8748,0.2052,0.9674,1570.56,-280.88,-670.04
18310,-3.8748,0.2097,0.9692,-1726.32,-171.51,-763.79
18320,-3.8748,0.2112,0.9713,-1148.19,62.87,-498.11
18330,-3.8746,0.2092,0.9729,-960.69,328.49,1.89
18340,-3.8746,0.2059,0.9725,-1210.69,531.62,392.52
18350,-3.8746,0.2029,0.9694,-1632.57,484.74,517.52
18360,-3.8746,0.2002,0.9647,1976.81,78.49,439.39
18370,-3.8746,0.1984,0.9603,1633.06,-515.26,204.96
18380,-3.8746,0.1980,0.9584,1398.68,-1077.76,111.21
18390,-3.8746,0.1978,0.9601,1351.81,-1327.76,361.21
18400,-3.8746,0.1967,0.9646,1320.56,-1109.01,829.96
18410,-3.8746,0.1953,0.9691,1179.93,-530.88,1408.08
18420,-3.8746,0.1951,0.9703,1008.06,47.24,1720.64
18430,-3.8746,0.1962,0.9694,976.81,203.49,1767.52
18440,-3.8746,0.1984,0.9705,1117.43,78.49,1736.27
18450,-3.8746,0.2021,0.9727,1398.68,219.12,1673.77
18460,-3.8746,0.2059,0.9733,1883.06,500.37,1642.52
18470,-3.8746,0.2080,0.9719,-1632.57,578.49,1595.64
18480,-3.8746,0.2076,0.9698,-1366.94,406.62,1470.64
18490,-3.8746,0.2064,0.9680,-1413.82,140.99,1330.02
18500,-3.8746,0.2073,0.9657,-1570.07,-93.38,1236.21
18510,-3.8746,0.2085,0.9645,-1460.69,-390.26,1220.58
18520,-3.8746,0.2078,0.9659,-1304.44,-546.51,1283.08
18530,-3.8746,0.2050,0.9684,-1398.19,-359.01,1642.46
18540,-3.8746,0.2012,0.9695,-1757.57,-46.51,-1732.54
18550,-3.8746,0.1980,0.9691,1758.06,94.12,-1248.11
18560,-3.8746,0.1965,0.9696,1351.81,47.24,-1123.11
18570,-3.8746,0.1962,0.9691,1164.31,109.74,-1357.48
18580,-3.8746,0.1960,0.9657,1117.43,47.24,-1904.36
18590,-3.8746,0.1965,0.9612,1101.81,-390.26,1251.83
18600,-3.8746,0.1993,0.9586,1164.31,-968.38,329.96
18610,-3.8748,0.2043,0.9597,1523.68,-1296.51,-248.17
18620,-3.8748,0.2095,0.9650,-1835.69,-1155.88,-388.79
18630,-3.8748,0.2133,0.9713,-1179.44,-484.01,-154.42
18640,-3.8746,0.2157,0.9740,-695.07,328.49,455.02
18650,-3.8746,0.2174,0.9724,-382.57,672.24,1001.89
18660,-3.8746,0.2177,0.9700,-163.82,469.12,1048.77
18670,-3.8746,0.2164,0.9685,-132.57,156.62,892.52
18680,-3.8746,0.2142,0.9679,-288.82,-30.88,892.46
18690,-3.8746,0.2123,0.9684,-570.07,-109.01,861.21
18700,-3.8746,0.2112,0.9685,-820.07,-46.51,626.83
18710,-3.8746,0.2109,0.9679,-960.69,-30.88,345.58
18720,-3.8746,0.2115,0.9673,-991.94,-109.01,158.08
18730,-3.8748,0.2139,0.9656,-913.82,-187.13,-138.79
18740,-3.8748,0.2167,0.9637,-616.94,-405.88,-576.29
18750,-3.8748,0.2177,0.9640,-257.57,-640.26,-1013.79
18760,-3.8748,0.2170,0.9661,-132.57,-609.01,-1154.42
18770,-3.8748,0.2145,0.9692,-210.69,-343.38,-826.29
18780,-3.8748,0.2104,0.9722,-538.82,62.87,-44.98
18790,-3.8746,0.2073,0.9717,-1054.44,437.87,908.14
18800,-3.8746,0.2053,0.9678,-1460.69,375.37,1517.52
18810,-3.8746,0.2036,0.9628,-1710.69,-124.63,1673.71
18820,-3.8746,0.2017,0.9587,-1929.44,-765.26,1454.96
18830,-3.8746,0.2002,0.9552,1820.56,-1280.88,970.58
18840,-3.8746,0.2004,0.9521,1633.06,-1734.01,439.33
18850,-3.8748,0.2017,0.9515,1664.31,1875.37,-154.42
18860,-3.8748,0.2020,0.9548,1820.56,1797.24,-435.67
18870,-3.8748,0.2010,0.9631,1867.43,-1780.88,-123.17
18880,-3.8746,0.2002,0.9747,1742.43,-718.38,720.58
18890,-3.8746,0.2017,0.9850,1633.06,765.99,1830.02
18900,-3.8746,0.2056,0.9879,1820.56,-1921.51,-1232.48
18910,-3.8746,0.2104,0.9821,-1679.44,-1546.51,-904.36
18920,-3.8746,0.2131,0.9713,-1054.44,1703.49,-1482.48
18930,-3.8746,0.2135,0.9619,-710.69,328.49,1361.27
18940,-3.8746,0.2137,0.9576,-663.82,-874.63,298.71
18950,-3.8748,0.2137,0.9584,-632.57,-1421.51,-326.29
18960,-3.8748,0.2122,0.9613,-632.57,-1327.76,-326.29
18970,-3.8746,0.2092,0.9653,-835.69,-952.76,79.96
18980,-3.8746,0.2050,0.9694,-1210.69,-437.13,501.83
18990,-3.8746,0.2015,0.9722,-1757.57,78.49,1173.77
19000,-3.8746,0.2006,0.9744,1804.93,437.87,1970.64
19010,-3.8746,0.2006,0.9741,1679.93,719.12,-1591.86
19020,-3.8746,0.2014,0.9702,1679.93,687.87,-1654.36
19030,-3.8746,0.2029,0.9646,1789.31,187.87,1861.27
19040,-3.8746,0.2046,0.9602,1976.81,-530.88,1158.08
19050,-3.8746,0.2076,0.9591,-1804.44,-1093.38,517.46
19060,-3.8746,0.2113,0.9614,-1413.82,-1234.01,48.71
19070,-3.8748,0.2131,0.9661,-945.07,-937.13,-107.54
19080,-3.8746,0.2135,0.9716,-710.69,-343.38,204.96
19090,-3.8746,0.2145,0.9753,-663.82,359.74,720.64
19100,-3.8746,0.2162,0.9774,-538.82,844.12,1189.39
19110,-3.8746,0.2174,0.9781,-320.07,1109.74,1470.64
19120,-3.8746,0.2166,0.9772,-163.82,1203.49,1845.64
19130,-3.8746,0.2144,0.9752,-273.19,1078.49,-1638.73
19140,-3.8746,0.2109,0.9722,-554.44,828.49,-1310.61
19150,-3.8746,0.2067,0.9686,-991.94,437.87,-1263.73
19160,-3.8746,0.2030,0.9656,-1538.82,-15.26,-1373.17
19170,-3.8746,0.2006,0.9635,1992.43,-405.88,-1748.17
19180,-3.8746,0.2008,0.9619,1679.93,-671.51,1845.58
19190,-3.8746,0.2035,0.9611,1711.18,-874.63,1704.96
19200,-3.8746,0.2075,0.9617,-1945.07,-984.01,1611.21
19210,-3.8746,0.2104,0.9640,-1429.44,-905.88,1548.71
19220,-3.8746,0.2108,0.9678,-1054.44,-609.01,1720.58
19230,-3.8746,0.2091,0.9728,-1007.57,-124.63,-1670.04
19240,-3.8746,0.2069,0.9768,-1226.32,515.99,-966.86
19250,-3.8746,0.2042,0.9771,-1507.57,1031.62,-498.11
19260,-3.8746,0.2019,0.9742,-1851.32,1062.87,-326.23
19270,-3.8746,0.2010,0.9700,1851.81,703.49,-576.23
19280,-3.8746,0.2015,0.9651,1742.43,156.62,-1154.36
19290,-3.8746,0.2023,0.9614,1804.93,-468.38,-1841.92
19300,-3.8746,0.2024,0.9592,1898.68,-937.13,1611.21
19310,-3.8746,0.2019,0.9590,1914.31,-1218.38,1345.58
19320,-3.8746,0.2018,0.9606,1851.81,-1249.63,1408.08
19330,-3.8746,0.2017,0.9622,1836.18,-1046.51,1626.83
19340,-3.8746,0.2013,0.9645,1820.56,-843.38,1689.33
19350,-3.8746,0.2002,0.9659,1773.68,-546.51,1579.96
19360,-3.8746,0.1987,0.9651,1633.06,-359.01,1423.71
19370,-3.8746,0.1973,0.9640,1445.56,-468.38,1220.58
19380,-3.8746,0.1952,0.9629,1258.06,-609.01,1017.46
19390,-3.8746,0.1946,0.9617,992.43,-749.63,876.83
19400,-3.8746,0.1975,0.9612,914.31,-905.88,736.21
19410,-3.8746,0.2035,0.9624,1289.31,-968.38,517.46
19420,-3.8746,0.2106,0.9645,-1945.07,-812.13,345.58
19430,-3.8746,0.2148,0.9667,-1038.82,-546.51,439.33
19440,-3.8746,0.2156,0.9694,-491.94,-265.26,689.33
19450,-3.8746,0.2145,0.9724,-398.19,78.49,970.64
19460,-3.8746,0.2125,0.9731,-538.82,469.12,1205.02
19470,-3.8746,0.2106,0.9712,-788.82,562.87,1345.64
19480,-3.8746,0.2081,0.9673,-1038.82,312.87,1330.02
19490,-3.8746,0.2065,0.9622,-1351.32,-187.13,1283.08
19500,-3.8746,0.2072,0.9584,-1554.44,-843.38,1048.71
19510,-3.8746,0.2073,0.9575,-1476.32,-1327.76,611.21
19520,-3.8746,0.2061,0.9597,-1460.69,-1437.13,376.83
19530,-3.8746,0.2046,0.9631,-1616.94,-1155.88,533.08
19540,-3.8746,0.2034,0.9659,-1804.44,-718.38,986.21
19550,-3.8746,0.2018,0.9664,-1960.69,-359.01,1454.96
19560,-3.8746,0.2007,0.9647,1836.18,-296.51,1876.83
19570,-3.8746,0.2020,0.9631,1695.56,-515.26,-1748.17
19580,-3.8746,0.2056,0.9634,1867.43,-718.38,-1404.42
19590,-3.8746,0.2097,0.9651,-1679.44,-687.13,-1185.67
19600,-3.8746,0.2125,0.9661,-1148.19,-468.38,-1248.17
19610,-3.8746,0.2125,0.9648,-788.82,-343.38,-1638.79
19620,-3.8746,0.2097,0.9628,-788.82,-499.63,1861.21
19630,-3.8746,0.2062,0.9614,-1148.19,-765.26,1470.58
19640,-3.8746,0.2042,0.9628,-1601.32,-937.13,1345.58
19650,-3.8746,0.2048,0.9658,-1851.32,-765.26,1548.71
19660,-3.8746,0.2076,0.9686,-1773.19,-374.63,1954.96
19670,-3.8746,0.2095,0.9707,-1413.82,-15.26,-1716.92
19680,-3.8746,0.2080,0.9714,-1179.44,250.37,-1591.86
19690,-3.8746,0.2050,0.9711,-1366.94,344.12,-1529.36
19700,-3.8746,0.2041,0.9700,-1757.57,297.24,-1451.23
19710,-3.8746,0.2067,0.9678,-1866.94,156.62,-1498.11
19720,-3.8746,0.2109,0.9642,-1538.82,-124.63,-1638.79
19730,-3.8746,0.2133,0.9613,-991.94,-577.76,-1998.17
19740,-3.8746,0.2129,0.9612,-695.07,-952.76,1548.71
19750,-3.8746,0.2111,0.9628,-741.94,-968.38,1251.83
19760,-3.8746,0.2076,0.9636,-976.32,-765.26,1251.83
19770,-3.8746,0.2042,0.9639,-1413.82,-655.88,1361.21
19780,-3.8746,0.2017,0.9639,-1851.32,-624.63,1423.71
19790,-3.8746,0.1997,0.9640,1820.56,-624.63,1486.21
19800,-3.8746,0.1990,0.9646,1570.56,-609.01,1501.83
19810,-3.8746,0.1989,0.9642,1476.81,-530.88,1579.96
19820,-3.8746,0.1986,0.9631,1461.18,-577.76,1658.08
19830,-3.8746,0.1989,0.9625,1429.93,-718.38,1611.21
19840,-3.8746,0.2004,0.9629,1461.18,-796.51,1595.58
19850,-3.8746,0.2020,0.9651,1664.31,-749.63,1548.71
19860,-3.8746,0.2025,0.9675,1867.43,-468.38,1501.83
19870,-3.8746,0.2035,0.9690,1929.93,-155.88,1423.71
19880,-3.8746,0.2059,0.9679,-1945.07,31.62,1267.52
19890,-3.8746,0.2075,0.9653,-1632.57,-109.01,1173.71
19900,-3.8746,0.2073,0.9636,-1429.44,-437.13,1173.71
19910,-3.8746,0.2059,0.9637,-1460.69,-655.88,1345.58
19920,-3.8746,0.2039,0.9647,-1632.57,-640.26,1611.21
19930,-3.8746,0.2018,0.9645,-1898.19,-515.26,1798.71
19940,-3.8746,0.2012,0.9644,1836.18,-546.51,1986.21
19950,-3.8746,0.2009,0.9659,1758.06,-562.13,-1701.29
19960,-3.8746,0.1997,0.9678,1726.81,-359.01,-1295.04
19970,-3.8746,0.2002,0.9690,1570.56,-124.63,-966.92
19980,-3.8746,0.2019,0.9683,1633.06,31.62,-701.23
19990,-3.8746,0.2021,0.9648,1851.81,-62.13,-685.67
20000,-3.8746,0.2023,0.9611,1883.06,-499.63,-1123.17
20010,-3.8746,0.2043,0.9602,1898.68,-984.01,-1763.79
20020,-3.8746,0.2078,0.9620,-1835.69,-1093.38,1829.96
20030,-3.8746,0.2108,0.9653,-1398.19,-859.01,1861.21
20040,-3.8746,0.2125,0.9697,-1007.57,-437.13,-1779.42
20050,-3.8746,0.2135,0.9735,-788.82,125.37,-1482.48
20060,-3.8746,0.2126,0.9736,-663.82,609.74,-1373.11
20070,-3.8746,0.2094,0.9689,-773.19,625.37,-1466.86
20080,-3.8746,0.2050,0.9619,-1195.07,15.99,-1779.36
20090,-3.8746,0.1989,0.9567,-1757.57,-874.63,1720.58
20100,-3.8746,0.1908,0.9545,1461.18,-1546.51,1189.33
20110,-3.8746,0.1837,0.9543,429.93,-1827.76,736.21
20120,-3.8746,0.1814,0.9547,-476.32,-1843.44,376.83
20130,-3.8746,0.1841,0.9556,-773.19,-1796.57,204.96
20140,-3.8746,0.1909,0.9579,-429.44,-1687.19,126.83
20150,-3.8746,0.2003,0.9617,445.56,-1390.26,158.08
20160,-3.8746,0.2107,0.9668,1648.68,-905.88,439.33
20170,-3.8746,0.2198,0.9718,-1023.19,-249.63,861.21
20180,-3.8746,0.2249,0.9740,148.68,391.05,1126.89
20190,-3.8746,0.2233,0.9729,789.31,672.30,1251.89
20200,-3.8746,0.2164,0.9703,586.18,531.68,1220.64
20210,-3.8746,0.2075,0.9675,-288.82,203.49,892.52
20220,-3.8746,0.2000,0.9653,-1429.44,-155.88,595.58
20230,-3.8746,0.1962,0.9637,1601.81,-437.13,454.96
20240,-3.8746,0.1969,0.9622,1117.43,-640.26,376.83
20250,-3.8746,0.2008,0.9607,1211.18,-843.38,408.08
20260,-3.8746,0.2050,0.9601,1711.18,-1030.88,486.21
20270,-3.8746,0.2074,0.9612,-1757.57,-1109.01,720.58
20280,-3.8746,0.2079,0.9642,-1445.07,-968.38,1095.58
20290,-3.8746,0.2075,0.9678,-1382.57,-577.76,1470.58
20300,-3.8746,0.2075,0.9708,-1429.44,-124.63,1845.58
20310,-3.8746,0.2073,0.9724,-1429.44,265.99,-1888.73
20320,-3.8746,0.2064,0.9717,-1460.69,469.12,-1654.36
20330,-3.8746,0.2059,0.9698,-1570.07,375.37,-1685.61
20340,-3.8746,0.2075,0.9684,-1632.57,140.99,-1998.11
20350,-3.8746,0.2095,0.9670,-1429.44,-46.51,1658.08
20360,-3.8746,0.2089,0.9655,-1179.44,-218.38,1408.08
20370,-3.8746,0.2070,0.9650,-1257.57,-421.51,1361.21
20380,-3.8746,0.2050,0.9673,-1491.94,-484.01,1564.33
20390,-3.8746,0.2030,0.9722,-1757.57,-187.13,1861.21
20400,-3.8746,0.2029,0.9769,1992.43,437.87,-1623.11
20410,-3.8746,0.2058,0.9785,1976.81,1047.24,-919.98
20420,-3.8746,0.2092,0.9761,-1648.19,1250.37,-466.86
20430,-3.8746,0.2101,0.9708,-1210.69,937.87,-513.73
20440,-3.8746,0.2080,0.9646,-1101.32,265.99,-951.23
20450,-3.8746,0.2042,0.9604,-1366.94,-530.88,-1591.92
20460,-3.8746,0.2015,0.9586,-1851.32,-1062.13,1829.96
20470,-3.8746,0.2007,0.9589,1804.93,-1296.51,1470.58
20480,-3.8746,0.2010,0.9613,1695.56,-1265.26,1267.46
20490,-3.8746,0.2020,0.9661,1742.43,-952.76,1267.46
20500,-3.8746,0.2026,0.9723,1867.43,-343.38,1470.58
20510,-3.8746,0.2017,0.9769,1945.56,453.49,1673.77
20520,-3.8746,0.1986,0.9780,1820.56,1047.24,1830.02
20530,-3.8746,0.1969,0.9753,1429.93,1187.87,1830.02
20540,-3.8746,0.1985,0.9711,1211.18,844.12,1626.89
20550,-3.8746,0.2014,0.9664,1414.31,297.24,1298.77
20560,-3.8746,0.2023,0.9620,1789.31,-296.51,892.46
20570,-3.8746,0.2001,0.9602,1898.68,-859.01,439.33
20580,-3.8746,0.1976,0.9626,1617.43,-1093.38,126.83
20590,-3.8746,0.1963,0.9668,1304.93,-780.88,95.58
20600,-3.8746,0.1959,0.9700,1133.06,-249.63,298.71
20610,-3.8746,0.1964,0.9701,1086.18,156.62,486.27
20620,-3.8746,0.1969,0.9684,1148.68,172.24,548.77
20630,-3.8746,0.1971,0.9673,1211.18,-46.51,486.21
20640,-3.8746,0.1978,0.9675,1242.43,-187.13,454.96
20650,-3.8746,0.2008,0.9688,1320.56,-155.88,611.21
20660,-3.8746,0.2042,0.9701,1711.18,0.37,767.52
20670,-3.8746,0.2041,0.9706,-1851.32,172.24,892.52
20680,-3.8746,0.2008,0.9696,-1866.94,234.74,1033.14
20690,-3.8746,0.1968,0.9675,1711.18,109.74,1126.89
20700,-3.8746,0.1945,0.9651,1195.56,-155.88,1126.83
20710,-3.8746,0.1946,0.9644,898.68,-468.38,1111.21
20720,-3.8746,0.1971,0.9672,914.31,-562.13,1158.08
20730,-3.8746,0.2003,0.9723,1242.43,-202.76,1329.96
20740,-3.8746,0.2029,0.9758,1648.68,453.49,1533.14
20750,-3.8746,0.2046,0.9749,1976.81,906.62,1658.14
20760,-3.8746,0.2048,0.9714,-1804.44,781.62,1658.14
20770,-3.8746,0.2035,0.9685,-1773.19,344.12,1564.39
20780,-3.8746,0.2015,0.9673,-1945.07,-30.88,1564.33
20790,-3.8746,0.1992,0.9663,1804.93,-187.13,1626.83
20800,-3.8746,0.1971,0.9670,1508.06,-312.13,1689.33
20810,-3.8746,0.1948,0.9692,1242.43,-218.38,1720.58
20820,-3.8746,0.1918,0.9708,945.56,62.87,1642.52
20830,-3.8746,0.1899,0.9705,554.93,265.99,1533.14
20840,-3.8746,0.1912,0.9672,320.56,219.12,1251.89
20850,-3.8746,0.1945,0.9629,476.81,-202.76,626.83
20860,-3.8746,0.1976,0.9624,898.68,-749.63,1.83
20870,-3.8748,0.1998,0.9672,1304.93,-812.13,-170.04
20880,-3.8746,0.2018,0.9724,1586.18,-202.76,329.96
20890,-3.8746,0.2035,0.9745,1836.18,469.12,1173.77
20900,-3.8746,0.2039,0.9728,-1945.07,734.74,1814.39
20910,-3.8746,0.2021,0.9688,-1898.19,515.99,1939.39
20920,-3.8746,0.1986,0.9659,1883.06,0.37,1642.52
20930,-3.8746,0.1971,0.9675,1429.93,-359.01,1376.83
20940,-3.8746,0.1993,0.9713,1242.43,-155.88,1314.33
20950,-3.8746,0.2025,0.9736,1523.68,328.49,1298.77
20960,-3.8746,0.2046,0.9740,1929.93,625.37,1376.89
20970,-3.8746,0.2048,0.9729,-1804.44,672.24,1205.02
20980,-3.8746,0.2042,0.9713,-1773.19,531.62,736.27
20990,-3.8746,0.2040,0.9707,-1851.32,328.49,408.14
21000,-3.8746,0.2048,0.9717,-1882.57,250.37,236.27
21010,-3.8746,0.2074,0.9729,-1773.19,375.37,220.64
21020,-3.8746,0.2085,0.9718,-1445.07,531.62,314.39
21030,-3.8746,0.2054,0.9689,-1304.44,390.99,267.52
21040,-3.8746,0.1998,0.9662,-1695.07,15.99,95.64
21050,-3.8746,0.1940,0.9650,1586.18,-327.76,158.08
21060,-3.8746,0.1902,0.9645,836.18,-484.01,548.71
21070,-3.8746,0.1888,0.9645,351.81,-546.51,954.96
21080,-3.8746,0.1884,0.9650,179.93,-546.51,1158.08
21090,-3.8746,0.1890,0.9647,117.43,-484.01,1158.08
21100,-3.8746,0.1909,0.9639,195.56,-515.26,1079.96
21110,-3.8746,0.1937,0.9635,445.56,-624.63,829.96
21120,-3.8746,0.1969,0.9642,804.93,-671.51,454.96
21130,-3.8746,0.1991,0.9659,1211.18,-577.76,204.96
21140,-3.8746,0.2012,0.9689,1492.43,-359.01,267.46
21150,-3.8746,0.2039,0.9720,1758.06,15.99,580.02
21160,-3.8746,0.2056,0.9745,-1898.19,422.24,970.64
21170,-3.8746,0.2053,0.9747,-1679.44,734.74,1220.64
21180,-3.8746,0.2028,0.9733,-1710.69,765.99,1298.77
21190,-3.8746,0.1987,0.9708,1961.18,578.49,1236.27
21200,-3.8746,0.1968,0.9684,1445.56,265.99,1033.14
21210,-3.8746,0.1968,0.9672,1195.56,-46.51,798.71
21220,-3.8746,0.1969,0.9674,1195.56,-202.76,689.33
21230,-3.8746,0.1979,0.9688,1211.18,-171.51,689.33
21240,-3.8746,0.1993,0.9706,1336.18,0.37,814.39
21250,-3.8746,0.2001,0.9714,1523.68,234.74,1080.02
21260,-3.8746,0.2000,0.9700,1617.43,344.12,1283.14
21270,-3.8746,0.1986,0.9672,1601.81,156.62,1267.52
21280,-3.8746,0.1958,0.9655,1429.93,-202.76,954.96
21290,-3.8746,0.1936,0.9656,1070.56,-421.51,673.71
21300,-3.8746,0.1927,0.9669,789.31,-405.88,611.21
21310,-3.8746,0.1917,0.9684,679.93,-234.01,783.08
21320,-3.8746,0.1901,0.9705,539.31,-46.51,1033.08
21330,-3.8746,0.1888,0.9725,336.18,219.12,1189.39
21340,-3.8746,0.1892,0.9729,179.93,484.74,1111.27
21350,-3.8746,0.1913,0.9713,226.81,531.62,1001.89
21360,-3.8746,0.1945,0.9696,492.43,328.49,970.64
21370,-3.8746,0.1978,0.9685,898.68,109.74,830.02
21380,-3.8746,0.1996,0.9668,1320.56,-30.88,658.08
21390,-3.8746,0.1984,0.9645,1554.93,-249.63,579.96
21400,-3.8746,0.1938,0.9633,1398.68,-546.51,564.33
21410,-3.8746,0.1880,0.9641,820.56,-702.76,486.21
21420,-3.8746,0.1829,0.9668,70.56,-593.38,423.71
21430,-3.8746,0.1798,0.9702,-585.69,-249.69,439.33
21440,-3.8746,0.1803,0.9727,-976.32,187.81,501.89
21450,-3.8746,0.1836,0.9730,-913.82,500.31,611.27
21460,-3.8746,0.1873,0.9729,-491.94,547.18,736.27
21470,-3.8746,0.1906,0.9730,-23.19,531.56,908.14
21480,-3.8746,0.1936,0.9734,398.68,547.24,876.89
21490,-3.8746,0.1956,0.9742,789.31,594.12,611.27
21500,-3.8746,0.1973,0.9744,1039.31,703.49,361.27
21510,-3.8746,0.1976,0.9723,1258.06,719.12,251.89
21520,-3.8746,0.1958,0.9677,1304.93,453.49,111.27
21530,-3.8748,0.1931,0.9617,1070.56,-140.26,-279.42
21540,-3.8748,0.1899,0.9575,726.81,-905.88,-779.42
21550,-3.8748,0.1865,0.9579,320.56,-1437.13,-920.04
21560,-3.8748,0.1840,0.9615,-116.94,-1390.32,-498.17
21570,-3.8746,0.1837,0.9659,-445.07,-921.57,251.83
21580,-3.8746,0.1863,0.9701,-476.32,-359.07,970.58
21590,-3.8746,0.1890,0.9718,-148.19,172.18,1439.39
21600,-3.8746,0.1895,0.9724,195.56,390.99,1533.14
21610,-3.8746,0.1887,0.9735,258.06,469.12,1158.14
21620,-3.8746,0.1888,0.9730,164.31,609.74,408.14
21630,-3.8748,0.1904,0.9700,179.93,547.24,-529.36
21640,-3.8748,0.1936,0.9678,383.06,156.62,-1263.73
21650,-3.8748,0.1969,0.9690,789.31,-124.63,-1435.67
21660,-3.8748,0.2000,0.9720,1211.18,31.62,-1107.48
21670,-3.8748,0.2020,0.9744,1601.81,422.24,-623.11
21680,-3.8748,0.2023,0.9750,1867.43,719.12,-44.98
21690,-3.8746,0.2010,0.9735,1898.68,797.24,705.02
21700,-3.8746,0.1992,0.9707,1742.43,609.74,1267.52
21710,-3.8746,0.1956,0.9690,1508.06,250.37,1517.52
21720,-3.8746,0.1909,0.9692,1039.31,31.62,1751.89
21730,-3.8746,0.1886,0.9696,445.56,62.87,1955.02
21740,-3.8746,0.1888,0.9686,148.68,109.74,1923.77
21750,-3.8746,0.1914,0.9675,179.93,-15.26,1720.58
21760,-3.8746,0.1960,0.9686,508.06,-155.88,1564.33
21770,-3.8746,0.2008,0.9719,1101.81,-15.26,1689.33
21780,-3.8746,0.2035,0.9762,1711.18,406.62,1923.77
21790,-3.8746,0.2021,0.9802,-1945.07,953.49,1939.39
21800,-3.8746,0.1973,0.9822,1883.06,1469.12,1939.39
21810,-3.8746,0.1924,0.9800,1258.06,1719.12,-1919.98
21820,-3.8746,0.1887,0.9749,633.06,1437.87,-1919.98
21830,-3.8746,0.1855,0.9713,164.31,781.62,1814.39
21840,-3.8746,0.1832,0.9709,-241.94,328.43,1533.14
21850,-3.8746,0.1830,0.9706,-538.82,281.56,1220.64
21860,-3.8746,0.1846,0.9669,-570.07,234.68,830.02
21870,-3.8746,0.1855,0.9615,-366.94,-234.07,392.46
21880,-3.8746,0.1843,0.9589,-241.94,-921.57,64.33
21890,-3.8746,0.1830,0.9600,-398.19,-1265.32,17.46
21900,-3.8746,0.1830,0.9646,-570.07,-1124.69,361.21
21910,-3.8746,0.1851,0.9714,-570.07,-530.94,861.21
21920,-3.8746,0.1884,0.9772,-304.44,344.06,1376.89
21930,-3.8746,0.1901,0.9795,117.43,1078.49,1689.39
21940,-3.8746,0.1899,0.9777,336.18,1375.37,1689.39
21950,-3.8746,0.1899,0.9734,320.56,1140.99,1455.02
21960,-3.8746,0.1904,0.9680,320.56,594.12,845.64
21970,-3.8746,0.1920,0.9639,383.06,-93.38,267.46
21980,-3.8748,0.1935,0.9634,586.18,-624.63,-13.79
21990,-3.8748,0.1931,0.9656,773.68,-687.13,-263.79
22000,-3.8748,0.1914,0.9692,726.81,-405.88,-388.79
22010,-3.8748,0.1901,0.9725,508.06,62.87,-310.61
22020,-3.8748,0.1901,0.9707,258.06,265.99,-60.61
22030,-3.8746,0.1907,0.9716,336.18,250.37,95.64
22040,-3.8746,0.1912,0.9718,414.31,359.74,298.77
22050,-3.8746,0.1910,0.9713,476.81,390.99,392.52
22060,-3.8746,0.1895,0.9703,461.18,328.49,236.27
22070,-3.8746,0.1870,0.9690,258.06,203.49,17.52
22080,-3.8746,0.1849,0.9667,-54.44,31.56,33.14
22090,-3.8746,0.1842,0.9650,-320.07,-265.32,1.83
22100,-3.8746,0.1844,0.9662,-413.82,-484.07,33.08
22110,-3.8746,0.1840,0.9702,-382.57,-327.82,345.58
22120,-3.8746,0.1833,0.9742,-445.07,187.81,751.89
22130,-3.8746,0.1832,0.9767,-523.19,703.43,1080.02
22140,-3.8746,0.1837,0.9774,-538.82,1015.93,1345.64
22150,-3.8746,0.1847,0.9756,-476.32,1109.68,1548.77
22160,-3.8746,0.1858,0.9716,-351.32,875.31,1455.02
22170,-3.8746,0.1860,0.9675,-210.69,359.68,1080.02
22180,-3.8746,0.1851,0.9648,-179.44,-155.94,704.96
22190,-3.8746,0.1837,0.9639,-304.44,-499.69,501.83
22200,-3.8746,0.1823,0.9642,-476.32,-624.69,470.58
22210,-3.8746,0.1804,0.9651,-663.82,-577.82,595.58
22220,-3.8746,0.1797,0.9662,-898.19,-468.44,658.08
22230,-3.8746,0.1810,0.9683,-991.94,-327.82,720.58
22240,-3.8746,0.1825,0.9712,-820.07,-62.19,954.96
22250,-3.8746,0.1837,0.9752,-632.57,312.81,1392.52
22260,-3.8746,0.1860,0.9799,-476.32,828.43,1908.14
22270,-3.8746,0.1888,0.9813,-179.44,1422.18,-1732.48
22280,-3.8746,0.1909,0.9771,179.93,1609.74,-1732.48
22290,-3.8746,0.1915,0.9695,445.56,1062.87,1720.64
22300,-3.8746,0.1908,0.9618,523.68,94.12,736.27
22310,-3.8748,0.1890,0.9572,429.93,-890.26,-216.92
22320,-3.8748,0.1866,0.9581,195.56,-1484.01,-763.79
22330,-3.8748,0.1855,0.9639,-101.32,-1359.07,-810.67
22340,-3.8748,0.1858,0.9702,-241.94,-624.69,-388.79
22350,-3.8746,0.1862,0.9744,-210.69,187.81,111.27
22360,-3.8746,0.1864,0.9760,-163.82,719.06,361.27
22370,-3.8746,0.1862,0.9764,-132.57,922.18,455.02
22380,-3.8746,0.1844,0.9758,-163.82,984.68,423.77
22390,-3.8746,0.1841,0.9728,-382.57,906.56,283.14
22400,-3.8746,0.1857,0.9683,-429.44,515.93,1.89
22410,-3.8748,0.1874,0.9650,-226.32,-62.19,-435.67
22420,-3.8748,0.1886,0.9653,-7.57,-484.07,-935.67
22430,-3.8748,0.1891,0.9700,148.68,-437.13,-998.17
22440,-3.8748,0.1893,0.9758,211.18,156.62,-435.61
22450,-3.8746,0.1895,0.9797,242.43,906.62,283.14
22460,-3.8746,0.1893,0.9806,258.06,1406.62,876.89
22470,-3.8746,0.1898,0.9795,242.43,1515.99,1330.02
22480,-3.8746,0.1902,0.9777,304.93,1375.37,1658.14
22490,-3.8746,0.1901,0.9761,351.81,1140.99,1830.02
22500,-3.8746,0.1904,0.9751,336.18,937.87,1939.39
22510,-3.8746,0.1913,0.9751,383.06,812.87,-1966.86
22520,-3.8746,0.1910,0.9746,492.43,812.87,-1841.86
22530,-3.8746,0.1901,0.9723,461.18,750.37,-1888.73
22540,-3.8746,0.1902,0.9697,336.18,453.49,1814.39
22550,-3.8746,0.1910,0.9681,351.81,125.37,1626.89
22560,-3.8746,0.1910,0.9674,461.18,-77.76,1658.08
22570,-3.8746,0.1893,0.9675,461.18,-171.51,1736.21
22580,-3.8746,0.1862,0.9691,242.43,-155.88,1923.71
22590,-3.8746,0.1821,0.9709,-163.82,47.18,-1685.61
22600,-3.8746,0.1790,0.9714,-679.44,281.56,-1138.73
22610,-3.8746,0.1771,0.9712,-1085.69,344.06,-669.98
22620,-3.8746,0.1764,0.9717,-1320.07,312.81,-419.98
22630,-3.8746,0.1765,0.9731,-1413.82,375.31,-591.86
22640,-3.8746,0.1764,0.9739,-1398.19,562.81,-1076.23
22650,-3.8746,0.1775,0.9734,-1413.82,656.56,-1685.61
22660,-3.8746,0.1810,0.9728,-1273.19,594.06,1798.77
22670,-3.8746,0.1864,0.9744,-820.07,515.93,1298.77
22680,-3.8746,0.1930,0.9794,-132.57,719.06,845.64
22690,-3.8746,0.2006,0.9858,711.18,1359.74,595.64
22700,-3.8746,0.2073,0.9884,1679.93,-1812.13,611.27
22710,-3.8746,0.2087,0.9851,-1460.69,-1484.01,720.64
22720,-3.8746,0.2035,0.9786,-1273.19,-1905.88,564.39
22730,-3.8746,0.1954,0.9724,-1945.07,1265.99,111.27
22740,-3.8748,0.1892,0.9685,1023.68,469.12,-373.11
22750,-3.8748,0.1854,0.9669,226.81,-30.88,-576.29
22760,-3.8748,0.1842,0.9657,-257.57,-234.07,-529.42
22770,-3.8748,0.1857,0.9645,-413.82,-390.32,-373.17
22780,-3.8748,0.1880,0.9650,-226.32,-546.57,-45.04
22790,-3.8746,0.1885,0.9657,70.56,-484.01,236.21
22800,-3.8746,0.1873,0.9656,133.06,-390.26,345.58
22810,-3.8746,0.1865,0.9663,-23.19,-405.94,454.96
22820,-3.8746,0.1880,0.9674,-116.94,-312.19,548.71
22830,-3.8746,0.1912,0.9673,70.56,-171.51,486.21
22840,-3.8746,0.1954,0.9662,476.81,-187.13,204.96
22850,-3.8748,0.1987,0.9651,1023.68,-327.76,-216.92
22860,-3.8748,0.1979,0.9646,1445.56,-468.38,-638.79
22870,-3.8748,0.1948,0.9656,1336.18,-530.88,-795.04
22880,-3.8748,0.1918,0.9692,945.56,-405.88,-654.42
22890,-3.8748,0.1898,0.9741,554.93,62.87,-326.23
22900,-3.8746,0.1901,0.9772,304.93,687.87,173.77
22910,-3.8746,0.1919,0.9774,336.18,1078.49,689.39
22920,-3.8746,0.1938,0.9775,570.56,1109.74,1064.39
22930,-3.8746,0.1949,0.9780,820.56,1125.37,1330.02
22940,-3.8746,0.1938,0.9769,961.18,1187.87,1595.64
22950,-3.8746,0.1914,0.9745,820.56,1047.24,1830.02
22960,-3.8746,0.1888,0.9712,508.06,734.74,1908.14
22970,-3.8746,0.1860,0.9675,179.93,312.87,1783.14
22980,-3.8746,0.1835,0.9650,-179.44,-155.94,1548.71
22990,-3.8746,0.1818,0.9644,-507.57,-484.07,1376.83
23000,-3.8746,0.1805,0.9659,-726.32,-562.19,1392.46
23010,-3.8746,0.1796,0.9696,-882.57,-359.07,1673.71
23020,-3.8746,0.1788,0.9729,-1007.57,109.68,-1716.86
23030,-3.8746,0.1785,0.9744,-1101.32,531.56,-1013.73
23040,-3.8746,0.1783,0.9740,-1148.19,719.06,-419.98
23050,-3.8746,0.1794,0.9717,-1163.82,672.18,-91.86
23060,-3.8746,0.1815,0.9678,-1023.19,375.31,-91.86
23070,-3.8746,0.1826,0.9642,-757.57,-124.69,-373.17
23080,-3.8746,0.1820,0.9626,-616.94,-577.82,-810.67
23090,-3.8746,0.1802,0.9628,-695.07,-780.94,-1154.42
23100,-3.8746,0.1792,0.9624,-929.44,-765.32,-1295.04
23110,-3.8746,0.1796,0.9613,-1054.44,-812.19,-1295.04
23120,-3.8746,0.1801,0.9626,-1007.57,-952.82,-1263.79
23130,-3.8746,0.1813,0.9684,-945.07,-780.94,-1107.54
23140,-3.8746,0.1840,0.9751,-788.82,-46.57,-779.42
23150,-3.8746,0.1875,0.9771,-445.07,812.81,-513.73
23160,-3.8746,0.1893,0.9724,8.06,1062.87,-701.23
23170,-3.8746,0.1869,0.9650,242.43,469.12,-1435.61
23180,-3.8746,0.1818,0.9598,-70.07,-484.07,1595.58
23190,-3.8746,0.1782,0.9579,-726.32,-1140.32,642.46
23200,-3.8746,0.1787,0.9568,-1179.44,-1390.32,17.46
23210,-3.8748,0.1827,0.9569,-1116.94,-1530.94,-232.54
23220,-3.8748,0.1885,0.9596,-601.32,-1515.32,-154.42
23230,-3.8746,0.1947,0.9645,133.06,-1171.51,345.58
23240,-3.8746,0.1993,0.9706,929.93,-546.51,1001.83
23250,-3.8746,0.2017,0.9758,1523.68,234.74,1580.02
23260,-3.8746,0.2032,0.9764,1820.56,906.62,1955.02
23270,-3.8746,0.2040,0.9720,-1976.32,984.74,1986.27
23280,-3.8746,0.2031,0.9650,-1882.57,422.24,1736.27
23290,-3.8746,0.2003,0.9586,-1991.94,-484.01,1298.71
23300,-3.8746,0.1964,0.9565,1648.68,-1296.51,861.21
23310,-3.8746,0.1935,0.9596,1148.68,-1562.13,673.71
23320,-3.8746,0.1923,0.9651,773.68,-1171.51,689.33
23330,-3.8746,0.1935,0.9702,617.43,-468.38,829.96
23340,-3.8746,0.1976,0.9728,773.68,187.87,1033.14
23350,-3.8746,0.2031,0.9724,1304.93,515.99,1220.64
