timestamp_ms,ax,ay,az,gx,gy,gz
0,-3.8711,0.5205,0.2330,-1304.44,-764.65,-1546.45
10,-3.8711,0.5465,0.2148,-1366.94,1829.10,-46.45
20,-3.8711,0.5802,0.1951,1961.18,-498.96,-1062.13
30,-3.8711,0.6005,0.1843,-1726.32,969.85,1328.49
40,-3.8711,0.5948,0.1896,867.43,-405.09,156.56
50,-3.8711,0.5643,0.2101,148.68,266.78,469.12
60,-3.8711,0.5261,0.2451,242.43,-1108.28,-1046.51
70,-3.8710,0.5018,0.2900,-648.19,-624.02,-780.82
80,-3.8707,0.5031,0.3369,242.43,1125.98,906.80
90,-3.8706,0.5284,0.3698,398.68,-874.02,-1374.39
100,-3.8705,0.5706,0.3727,-351.32,-670.90,-1952.45
110,-3.8705,0.6116,0.3491,1039.31,-295.78,1891.30
120,-3.8706,0.6377,0.3157,-1710.69,688.66,-1499.33
130,-3.8707,0.6528,0.2944,1633.06,407.47,1844.36
140,-3.8708,0.6587,0.2998,-429.44,1688.72,-1186.95
150,-3.8708,0.6465,0.3269,320.56,-1623.72,-921.33
160,-3.8707,0.6152,0.3607,-1241.94,1844.97,1563.11
170,-3.8706,0.5758,0.3929,-1241.94,-1826.97,188.17
180,-3.8706,0.5391,0.4257,1711.18,-1702.03,-1608.64
190,-3.8705,0.5149,0.4530,1008.06,-1514.59,828.92
200,-3.8705,0.5148,0.4641,1914.31,1985.35,-905.40
210,-3.8704,0.5377,0.4628,1898.68,-592.77,16.48
220,-3.8705,0.5670,0.4570,836.18,-764.59,-592.90
230,-3.8705,0.5861,0.4493,586.18,-1498.90,1625.85
240,-3.8706,0.5907,0.4377,-976.32,1516.72,-1358.52
250,-3.8707,0.5864,0.4275,-382.57,32.35,-389.77
260,-3.8707,0.5730,0.4349,-929.44,-1280.15,-1108.58
270,-3.8706,0.5455,0.4674,1351.81,-327.03,1469.54
280,-3.8705,0.5083,0.5143,1836.18,-170.84,-1108.52
290,-3.8702,0.4667,0.5551,1070.56,1829.10,1704.10
300,-3.8701,0.4246,0.5734,-257.57,-952.27,-327.09
310,-3.8700,0.3892,0.5658,-1648.19,1391.42,-952.03
320,-3.8700,0.3636,0.5396,1820.56,422.61,-608.28
330,-3.8700,0.3458,0.5052,-1445.07,1063.17,1876.04
340,-3.8700,0.3300,0.4729,273.68,672.55,219.73
350,-3.8701,0.3076,0.4554,-1757.57,531.86,-155.33
360,-3.8700,0.2775,0.4622,-616.94,-1702.58,1032.10
370,-3.8699,0.2484,0.4897,-476.32,-843.26,110.23
380,-3.8698,0.2219,0.5300,-195.07,-1312.07,1391.54
390,-3.8696,0.1921,0.5710,414.31,-155.82,-155.27
400,-3.8694,0.1625,0.6003,601.81,1094.12,1969.85
410,-3.8693,0.1400,0.6067,804.93,844.06,-1498.84
420,-3.8691,0.1223,0.5887,1929.93,1656.49,94.91
430,-3.8693,0.1014,0.5586,-335.69,-640.44,-1717.65
440,-3.8694,0.0713,0.5266,992.43,-499.82,-1873.96
450,-3.8695,0.0311,0.5021,1133.06,-593.63,1688.48
460,-3.8696,-0.0182,0.4924,-7.57,265.62,-1202.15
470,-3.8696,-0.0725,0.4958,1679.93,-953.19,1672.79
480,-3.8696,-0.1251,0.5033,-1273.19,-515.81,1875.92
490,-3.8696,-0.1722,0.5103,-7.57,437.19,-999.02
500,-3.8695,-0.2109,0.5214,1961.18,1327.76,94.73
510,-3.8695,-0.2372,0.5417,1008.06,-1250.43,782.23
520,-3.8695,-0.2480,0.5613,1648.68,1358.89,1047.91
530,-3.8696,-0.2439,0.5613,258.06,-141.11,-170.84
540,-3.8698,-0.2299,0.5345,789.31,-141.11,-217.71
550,-3.8699,-0.2139,0.4857,-1413.82,437.01,829.16
560,-3.8701,-0.2017,0.4287,633.06,-1812.93,297.79
570,-3.8704,-0.1986,0.3823,-1804.44,-1109.80,172.67
580,-3.8706,-0.2092,0.3542,-1413.82,952.70,-1936.77
590,-3.8707,-0.2285,0.3383,1226.81,1358.95,1719.42
600,-3.8708,-0.2463,0.3348,-1241.94,-687.99,-1874.39
610,-3.8710,-0.2600,0.3569,476.81,-1125.49,-1218.14
620,-3.8710,-0.2635,0.3972,-1273.19,1702.58,547.55
630,-3.8710,-0.2561,0.4408,-1726.32,-1141.17,1000.73
640,-3.8710,-0.2480,0.4785,-773.19,436.95,-1702.27
650,-3.8711,-0.2437,0.4810,258.06,1265.14,-342.83
660,-3.8712,-0.2411,0.4387,820.56,1577.64,141.54
670,-3.8716,-0.2377,0.3712,1148.68,171.39,-1780.40
680,-3.8718,-0.2305,0.2985,1586.18,-469.24,1031.92
690,-3.8721,-0.2192,0.2432,-1491.94,-1781.74,-218.20
700,-3.8721,-0.2144,0.2186,-54.44,-859.86,1344.18
710,-3.8722,-0.2214,0.2142,570.56,-0.43,-984.01
720,-3.8722,-0.2324,0.2104,-335.69,-562.99,672.24
730,-3.8723,-0.2390,0.1978,-1741.94,-1047.36,-984.01
740,-3.8723,-0.2371,0.1768,1414.31,1327.64,1219.12
750,-3.8724,-0.2196,0.1492,1664.31,-1359.86,-1921.57
760,-3.8726,-0.1864,0.1174,-101.32,-891.11,1390.87
770,-3.8727,-0.1486,0.0836,148.68,-953.49,31.43
780,-3.8729,-0.1129,0.0505,992.43,-1281.56,-859.25
790,-3.8730,-0.0851,0.0211,1554.93,-1515.87,-874.94
800,-3.8730,-0.0739,-0.0043,1117.43,-1281.43,281.25
810,-3.8732,-0.0812,-0.0266,-1445.07,-531.43,-1359.44
820,-3.8732,-0.0970,-0.0474,1617.43,609.19,1515.56
830,-3.8732,-0.1111,-0.0695,-413.82,1952.88,406.13
840,-3.8733,-0.1167,-0.0908,1789.31,-875.24,-437.68
850,-3.8733,-0.1099,-0.1005,1070.56,390.38,-359.56
860,-3.8732,-0.0927,-0.0911,1945.56,-843.99,702.88
870,-3.8732,-0.0695,-0.0751,148.68,359.19,-1609.56
880,-3.8732,-0.0417,-0.0664,-882.57,-1593.93,-531.43
890,-3.8732,-0.0084,-0.0665,-1335.69,-484.50,-1265.81
900,-3.8732,0.0314,-0.0704,-1070.07,-500.06,874.82
910,-3.8733,0.0750,-0.0743,23.68,-1015.56,-906.43
920,-3.8733,0.1139,-0.0767,1601.81,-1515.50,1702.94
930,-3.8733,0.1412,-0.0732,-1413.82,-1812.32,827.94
940,-3.8733,0.1572,-0.0599,-1913.82,-1374.76,1296.69
950,-3.8733,0.1648,-0.0414,133.06,328.43,-375.12
960,-3.8732,0.1707,-0.0326,1101.81,-1296.57,-1437.62
970,-3.8730,0.1855,-0.0413,1851.81,-171.57,343.63
980,-3.8730,0.2141,-0.0616,-241.94,-1280.94,140.50
990,-3.8732,0.2521,-0.0894,-585.69,109.74,-1828.25
1000,-3.8733,0.2933,-0.1252,273.68,562.99,-1281.43
1010,-3.8734,0.3324,-0.1611,1554.93,-30.70,-1031.56
1020,-3.8734,0.3651,-0.1755,-1445.07,-624.39,640.26
1030,-3.8734,0.3876,-0.1500,-1257.57,1531.92,1312.13
1040,-3.8733,0.3978,-0.0886,1617.43,797.61,-1672.18
1050,-3.8730,0.3976,-0.0112,-1070.07,656.98,-1218.93
1060,-3.8728,0.3860,0.0552,-1101.32,-1436.77,-437.56
1070,-3.8726,0.3662,0.0809,1414.31,-936.77,-453.06
1080,-3.8723,0.3500,0.0590,-1116.94,-1639.95,-1359.25
1090,-3.8722,0.3423,0.0112,804.93,-452.45,-1343.69
1100,-3.8722,0.3375,-0.0282,-179.44,1438.11,-484.38
1110,-3.8722,0.3351,-0.0374,-788.82,391.24,-546.94
1120,-3.8722,0.3405,-0.0212,-1101.32,-780.64,-297.00
1130,-3.8721,0.3560,0.0021,-413.82,1281.86,874.94
1140,-3.8721,0.3805,0.0305,1570.56,266.30,-1421.88
1150,-3.8719,0.4161,0.0742,711.18,-93.02,578.12
1160,-3.8718,0.4612,0.1353,1273.68,1500.79,1125.12
1170,-3.8716,0.5011,0.1924,-960.69,1313.35,812.74
1180,-3.8713,0.5272,0.2136,148.68,625.98,344.12
1190,-3.8712,0.5428,0.1923,-507.57,-655.27,219.12
1200,-3.8713,0.5533,0.1487,1492.43,610.41,-1015.26
1210,-3.8715,0.5643,0.1083,-1163.82,-967.71,1859.62
1220,-3.8716,0.5767,0.0927,242.43,1860.47,265.81
1230,-3.8717,0.5807,0.1135,1820.56,-139.53,1593.87
1240,-3.8717,0.5698,0.1595,-1663.82,-1467.65,-1343.57
1250,-3.8716,0.5573,0.2135,945.56,422.97,-1249.69
1260,-3.8713,0.5568,0.2740,-663.82,-670.84,453.49
1270,-3.8712,0.5624,0.3286,-726.32,-920.84,-1796.39
1280,-3.8711,0.5681,0.3440,-7.57,-1936.46,-968.14
1290,-3.8710,0.5771,0.3137,726.81,32.35,1266.30
1300,-3.8711,0.5905,0.2621,1883.06,157.35,-436.89
1310,-3.8711,0.6050,0.2181,-413.82,1547.97,16.11
1320,-3.8712,0.6107,0.1974,1445.56,-76.97,1312.87
1330,-3.8712,0.5950,0.2019,-1820.07,1266.78,531.62
1340,-3.8712,0.5590,0.2380,164.31,1844.91,-1765.26
1350,-3.8711,0.5206,0.3022,-445.07,-1530.21,-1843.32
1360,-3.8708,0.4973,0.3761,-1351.32,-1311.52,297.42
1370,-3.8707,0.4955,0.4370,-335.69,141.54,-93.02
1380,-3.8705,0.5126,0.4619,-570.07,-61.58,1813.29
1390,-3.8705,0.5387,0.4474,1617.43,-874.02,-61.65
1400,-3.8705,0.5614,0.4081,961.18,1266.66,-1374.15
1410,-3.8706,0.5759,0.3656,-132.57,235.41,-624.21
1420,-3.8707,0.5801,0.3459,1726.81,-1202.03,-249.33
1430,-3.8707,0.5675,0.3666,-1741.94,282.35,1360.05
1440,-3.8707,0.5363,0.4186,648.68,-1077.03,-1718.08
1450,-3.8706,0.4984,0.4712,648.68,1579.16,1782.04
1460,-3.8705,0.4712,0.5072,-195.07,313.42,1625.92
1470,-3.8705,0.4608,0.5192,320.56,922.79,-249.02
1480,-3.8705,0.4668,0.5056,-1007.57,-1546.02,-655.27
1490,-3.8705,0.4840,0.4813,-241.94,719.60,1485.35
1500,-3.8706,0.5020,0.4604,1961.18,1610.29,-827.21
1510,-3.8706,0.5111,0.4526,258.06,-1061.52,1282.10
1520,-3.8706,0.5048,0.4634,1429.93,1938.48,719.60
1530,-3.8706,0.4775,0.4934,617.43,-686.52,-1749.15
1540,-3.8705,0.4342,0.5341,1133.06,-842.83,1891.54
1550,-3.8704,0.3887,0.5714,-413.82,360.17,-1358.34
1560,-3.8702,0.3536,0.5979,1758.06,1141.36,-530.15
1570,-3.8701,0.3318,0.6082,1273.68,531.92,-389.47
1580,-3.8700,0.3196,0.5983,-1523.19,1844.36,-1717.59
1590,-3.8700,0.3143,0.5695,914.31,578.74,-1295.72
1600,-3.8700,0.3103,0.5339,242.43,891.24,907.35
1610,-3.8701,0.2999,0.5100,-273.19,344.30,-1545.84
1620,-3.8701,0.2820,0.5061,-1601.32,1281.80,922.85
1630,-3.8701,0.2616,0.5182,101.81,781.80,922.85
1640,-3.8701,0.2456,0.5397,1492.43,-1671.39,-1420.90
1650,-3.8700,0.2338,0.5703,-554.44,1078.55,1594.79
1660,-3.8699,0.2150,0.6071,1929.93,1000.43,1704.22
1670,-3.8698,0.1827,0.6384,-476.32,1703.49,-1358.22
1680,-3.8696,0.1384,0.6543,-601.32,1719.06,-858.15
1690,-3.8695,0.0856,0.6514,1726.81,-249.76,1782.47
1700,-3.8695,0.0321,0.6337,-1038.82,-624.88,-1639.40
1710,-3.8695,-0.0145,0.6069,117.43,1109.44,766.85
1720,-3.8696,-0.0435,0.5740,-1851.32,1703.06,954.28
1730,-3.8699,-0.0476,0.5391,-1554.44,1484.25,-436.40
1740,-3.8700,-0.0333,0.5076,1914.31,1015.50,1704.16
1750,-3.8701,-0.0170,0.4843,-257.57,984.25,594.73
1760,-3.8702,-0.0187,0.4741,1836.18,1999.94,1110.29
1770,-3.8704,-0.0465,0.4747,1617.43,703.06,-342.83
1780,-3.8704,-0.0927,0.4729,-1945.07,781.13,-139.71
1790,-3.8702,-0.1433,0.4655,148.68,546.69,594.67
1800,-3.8702,-0.1843,0.4619,1664.31,-406.56,860.23
1810,-3.8702,-0.2043,0.4584,414.31,-859.74,500.85
1820,-3.8704,-0.1990,0.4380,1851.81,-1312.93,-967.90
1830,-3.8705,-0.1716,0.3958,-1460.69,77.70,-1014.77
1840,-3.8706,-0.1371,0.3461,-1960.69,-1328.49,422.61
1850,-3.8708,-0.1143,0.3110,-1538.82,312.19,1719.42
1860,-3.8710,-0.1158,0.2987,1383.06,-172.12,1141.17
1870,-3.8711,-0.1396,0.2979,1179.93,-1750.24,-530.70
1880,-3.8711,-0.1700,0.2966,-1866.94,-1859.68,-358.83
1890,-3.8711,-0.1919,0.2914,-1757.57,1984.01,-140.08
1900,-3.8711,-0.1986,0.2838,-554.44,1312.07,-1015.08
1910,-3.8711,-0.1881,0.2729,-1413.82,343.32,1094.30
1920,-3.8712,-0.1648,0.2552,-70.07,-1047.30,-1499.51
1930,-3.8713,-0.1439,0.2274,-1085.69,687.13,-1296.39
1940,-3.8715,-0.1381,0.1924,1586.18,1124.69,-1999.57
1950,-3.8716,-0.1476,0.1577,-1663.82,640.32,1562.87
1960,-3.8717,-0.1643,0.1312,1117.43,202.82,-1937.19
1970,-3.8718,-0.1768,0.1195,-1023.19,812.13,-15.38
1980,-3.8718,-0.1798,0.1179,1383.06,-687.87,-1359.19
1990,-3.8718,-0.1743,0.1163,992.43,-890.99,1218.93
2000,-3.8719,-0.1637,0.1074,1695.56,-1094.12,-327.94
2010,-3.8719,-0.1512,0.0916,-945.07,1765.26,1672.06
2020,-3.8721,-0.1376,0.0743,648.68,-265.93,-562.38
2030,-3.8721,-0.1268,0.0590,-1601.32,1530.94,1515.75
2040,-3.8721,-0.1255,0.0449,-226.32,-437.81,203.19
2050,-3.8722,-0.1331,0.0310,-54.44,1765.32,-859.31
2060,-3.8722,-0.1411,0.0162,-1023.19,-15.93,1421.88
2070,-3.8723,-0.1420,0.0000,1945.56,-1906.56,-1109.38
2080,-3.8724,-0.1315,-0.0155,1836.18,15.32,-390.62
2090,-3.8726,-0.1125,-0.0284,-820.07,-1969.06,-15.69
2100,-3.8726,-0.0903,-0.0385,1601.81,374.76,578.06
2110,-3.8727,-0.0686,-0.0382,445.56,-906.43,1906.13
2120,-3.8727,-0.0475,-0.0282,-773.19,-875.18,578.00
2130,-3.8727,-0.0255,-0.0209,1929.93,406.13,593.69
2140,-3.8727,-0.0023,-0.0233,742.43,1343.69,671.81
2150,-3.8728,0.0229,-0.0308,-288.82,1031.19,-171.94
2160,-3.8728,0.0492,-0.0354,-1054.44,62.50,-1328.19
2170,-3.8728,0.0725,-0.0366,-1695.07,-531.19,1609.25
2180,-3.8728,0.0898,-0.0408,1289.31,-687.38,343.63
2190,-3.8729,0.1021,-0.0508,-491.94,-1218.63,-1547.00
2200,-3.8730,0.1123,-0.0675,1070.56,1500.18,-390.75
2210,-3.8730,0.1252,-0.0876,-1616.94,-640.44,187.32
2220,-3.8732,0.1429,-0.1058,39.31,781.49,1187.32
2230,-3.8733,0.1630,-0.1183,-1695.07,-1546.63,-906.49
2240,-3.8733,0.1851,-0.1224,867.43,859.68,1968.51
2250,-3.8733,0.2112,-0.1201,-304.44,328.43,1593.51
2260,-3.8733,0.2406,-0.1107,-960.69,625.37,-1953.37
2270,-3.8733,0.2722,-0.0981,-1195.07,1828.55,-687.74
2280,-3.8732,0.3052,-0.0948,-1148.19,-562.01,687.26
2290,-3.8732,0.3367,-0.1056,-929.44,-140.08,1593.51
2300,-3.8732,0.3618,-0.1268,-898.19,-1515.01,1343.51
2310,-3.8732,0.3761,-0.1514,-1679.44,-233.70,234.07
2320,-3.8733,0.3738,-0.1677,148.68,625.73,-47.18
2330,-3.8732,0.3540,-0.1605,-148.19,-1468.08,-1781.62
2340,-3.8730,0.3260,-0.1219,1320.56,-546.20,-406.62
2350,-3.8728,0.2997,-0.0624,1742.43,391.24,-1343.99
2360,-3.8726,0.2837,-0.0066,-1632.57,16.17,1906.13
2370,-3.8723,0.2899,0.0288,320.56,-843.20,734.31
2380,-3.8722,0.3220,0.0416,1117.43,-311.95,-1750.00
2390,-3.8721,0.3716,0.0284,1226.81,1328.74,1625.06
2400,-3.8721,0.4283,-0.0031,-429.44,-358.70,-1328.12
2410,-3.8721,0.4806,-0.0316,-1163.82,-389.83,1359.31
2420,-3.8722,0.5211,-0.0443,1523.68,-45.96,-1765.75
2430,-3.8723,0.5520,-0.0397,-1288.82,-1670.90,-734.50
2440,-3.8723,0.5724,-0.0120,-1335.69,-1077.09,-937.62
2450,-3.8722,0.5779,0.0378,1273.68,-1530.15,-781.31
2460,-3.8719,0.5701,0.0898,1976.81,844.85,-1484.31
2470,-3.8717,0.5533,0.1246,976.81,-498.90,1875.12
2480,-3.8716,0.5372,0.1343,-1163.82,-45.84,-1343.57
2490,-3.8716,0.5326,0.1160,773.68,1188.54,-296.63
2500,-3.8716,0.5444,0.0820,179.93,-1155.21,1734.56
2510,-3.8717,0.5684,0.0598,1695.56,-1498.96,-1749.88
2520,-3.8718,0.5905,0.0604,758.06,-342.65,-1406.19
2530,-3.8718,0.5995,0.0760,-413.82,-264.53,515.69
2540,-3.8718,0.5936,0.1055,742.43,1735.53,1484.50
2550,-3.8717,0.5775,0.1541,-7.57,1501.10,1656.43
2560,-3.8715,0.5593,0.2136,1929.93,-280.15,203.37
2570,-3.8713,0.5469,0.2653,-398.19,-655.21,-249.63
2580,-3.8711,0.5430,0.2959,-1991.94,1954.16,-1858.89
2590,-3.8710,0.5486,0.3005,1508.06,1876.04,1578.67
2600,-3.8710,0.5621,0.2886,-1773.19,-1530.21,-1577.58
2610,-3.8710,0.5715,0.2738,-38.82,938.54,1563.05
2620,-3.8711,0.5670,0.2650,1164.31,-952.03,-546.39
2630,-3.8711,0.5537,0.2689,586.18,1922.97,1031.74
2640,-3.8712,0.5435,0.2850,-1116.94,-1577.09,-577.64
2650,-3.8712,0.5448,0.3091,1570.56,485.41,-765.08
2660,-3.8711,0.5577,0.3438,1742.43,-436.46,1047.42
2670,-3.8710,0.5724,0.3876,-601.32,1.04,1328.80
2680,-3.8708,0.5801,0.4200,1273.68,1610.47,-952.39
2690,-3.8706,0.5828,0.4282,-1741.94,1766.72,47.67
2700,-3.8706,0.5864,0.4213,-1398.19,-1186.40,-1811.71
2710,-3.8706,0.5950,0.4125,-929.44,1922.97,1360.17
2720,-3.8707,0.6066,0.4078,164.31,798.03,-280.46
2730,-3.8707,0.6093,0.4078,1648.68,204.28,-858.58
2740,-3.8706,0.5935,0.4150,1992.43,204.28,422.67
2750,-3.8706,0.5607,0.4336,-23.19,1126.10,-546.08
2760,-3.8705,0.5204,0.4669,-226.32,-498.96,-358.58
2770,-3.8702,0.4872,0.5133,-1382.57,-233.40,1016.48
2780,-3.8701,0.4703,0.5619,-1632.57,1704.04,-577.15
2790,-3.8699,0.4714,0.5935,211.18,-77.21,1344.79
2800,-3.8698,0.4891,0.5898,351.81,-30.33,516.72
2810,-3.8699,0.5149,0.5530,-1382.57,-499.08,-30.15
2820,-3.8699,0.5288,0.5088,1914.31,-1217.77,1532.29
2830,-3.8699,0.5145,0.4874,-304.44,1125.98,204.10
2840,-3.8699,0.4730,0.4967,1867.43,-1608.40,875.92
2850,-3.8699,0.4180,0.5243,554.93,-420.96,-1452.21
2860,-3.8698,0.3652,0.5519,1508.06,-889.83,1250.98
2870,-3.8696,0.3228,0.5669,-1241.94,-1358.70,1454.16
2880,-3.8695,0.2882,0.5669,1320.56,563.11,1891.72
2890,-3.8694,0.2604,0.5529,898.68,563.05,766.72
2900,-3.8694,0.2455,0.5323,1336.18,-1233.89,1782.29
2910,-3.8694,0.2432,0.5153,-570.07,141.05,1469.79
2920,-3.8694,0.2415,0.5074,-866.94,1953.55,469.73
2930,-3.8695,0.2290,0.5087,-1085.69,953.55,-874.02
2940,-3.8695,0.2035,0.5144,1320.56,1109.80,1485.35
2950,-3.8696,0.1686,0.5197,-1945.07,1844.12,-92.77
2960,-3.8696,0.1271,0.5245,1586.18,-1484.07,-420.90
2970,-3.8695,0.0780,0.5316,273.68,-859.13,1000.98
2980,-3.8695,0.0242,0.5366,1992.43,47.00,-1389.59
2990,-3.8695,-0.0217,0.5320,-898.19,687.50,-1702.09
3000,-3.8696,-0.0455,0.5167,1226.81,109.31,-530.21
3010,-3.8698,-0.0421,0.4952,-1820.07,-1843.87,-1249.02
3020,-3.8699,-0.0201,0.4779,-1382.57,-593.87,1329.04
3030,-3.8700,0.0001,0.4727,1429.93,1187.44,563.42
3040,-3.8701,0.0006,0.4753,23.68,500.00,1360.29
3050,-3.8702,-0.0233,0.4771,86.18,843.75,-858.46
3060,-3.8702,-0.0580,0.4719,1023.68,1078.06,657.17
3070,-3.8704,-0.0842,0.4623,586.18,421.75,1782.17
3080,-3.8705,-0.0972,0.4489,1226.81,-812.68,-1046.02
3090,-3.8705,-0.1023,0.4280,-429.44,1468.51,47.73
3100,-3.8706,-0.1086,0.4022,-1085.69,-1203.37,485.17
3110,-3.8707,-0.1266,0.3749,-1898.19,-500.24,31.98
3120,-3.8710,-0.1561,0.3457,-195.07,-0.31,-686.83
3130,-3.8711,-0.1853,0.3168,23.68,265.32,-1296.20
3140,-3.8712,-0.2040,0.2933,289.31,562.13,-1530.64
3150,-3.8713,-0.2084,0.2800,1898.68,1562.07,-983.83
3160,-3.8715,-0.2000,0.2709,1336.18,-141.05,-30.76
3170,-3.8715,-0.1837,0.2589,-1585.69,-1312.93,859.86
3180,-3.8716,-0.1659,0.2439,492.43,1155.88,1516.11
3190,-3.8717,-0.1517,0.2279,-1226.32,-765.99,1922.30
3200,-3.8718,-0.1434,0.2111,586.18,1187.19,-1812.07
3210,-3.8719,-0.1393,0.1913,1648.68,-969.06,-1405.88
3220,-3.8721,-0.1379,0.1683,-1820.07,499.69,-843.38
3230,-3.8722,-0.1399,0.1437,-1648.19,1562.19,-62.19
3240,-3.8722,-0.1453,0.1182,-1898.19,-1594.06,890.87
3250,-3.8723,-0.1519,0.0924,1414.31,-859.68,1937.68
3260,-3.8724,-0.1583,0.0693,570.56,-156.56,-906.13
3270,-3.8726,-0.1672,0.0499,-257.57,890.26,-31.13
3280,-3.8726,-0.1768,0.0300,-1398.19,-1594.12,562.56
3290,-3.8727,-0.1790,0.0077,1383.06,-140.99,1437.50
3300,-3.8728,-0.1718,-0.0126,1101.81,999.63,-921.88
3310,-3.8728,-0.1611,-0.0267,-1976.32,-1594.12,1687.44
3320,-3.8728,-0.1531,-0.0316,-616.94,593.38,984.31
3330,-3.8728,-0.1484,-0.0277,414.31,-31.56,640.50
3340,-3.8729,-0.1429,-0.0251,1008.06,468.44,-46.94
3350,-3.8729,-0.1273,-0.0317,1711.18,796.57,-1500.06
3360,-3.8729,-0.1001,-0.0457,-288.82,-47.18,499.88
3370,-3.8730,-0.0688,-0.0598,-804.44,-1828.37,-1656.37
3380,-3.8730,-0.0378,-0.0676,-804.44,359.19,671.75
3390,-3.8732,-0.0083,-0.0696,-835.69,-640.75,-234.56
3400,-3.8732,0.0171,-0.0712,-1054.44,-890.69,-281.43
3410,-3.8730,0.0345,-0.0756,-1804.44,-1109.38,218.57
3420,-3.8730,0.0470,-0.0782,429.93,-1671.81,562.32
3430,-3.8730,0.0608,-0.0752,-1976.32,1984.44,656.07
3440,-3.8730,0.0776,-0.0719,-210.69,-1624.94,624.82
3450,-3.8730,0.0951,-0.0723,1945.56,-1203.00,171.69
3460,-3.8732,0.1110,-0.0767,179.93,-1249.82,-1265.81
3470,-3.8732,0.1276,-0.0834,-1788.82,-1812.32,546.69
3480,-3.8733,0.1534,-0.0891,336.18,1328.37,-1953.31
3490,-3.8734,0.1947,-0.0944,-351.32,593.99,-656.43
3500,-3.8734,0.2496,-0.0994,929.93,-77.76,1421.63
3510,-3.8734,0.3138,-0.0946,-38.82,-718.32,1812.26
3520,-3.8733,0.3765,-0.0741,179.93,-108.76,671.63
3530,-3.8732,0.4242,-0.0471,195.56,-1483.64,624.82
3540,-3.8730,0.4501,-0.0212,-1695.07,1969.54,874.88
3550,-3.8729,0.4457,-0.0020,1617.43,1282.10,999.94
3560,-3.8728,0.4099,0.0017,1054.93,-249.15,687.44
3570,-3.8727,0.3622,-0.0099,476.81,219.54,156.25
3580,-3.8727,0.3276,-0.0259,-1632.57,-1264.95,-765.69
3590,-3.8726,0.3250,-0.0332,1945.56,688.11,1609.31
3600,-3.8726,0.3636,-0.0204,1601.81,-249.39,-281.37
3610,-3.8724,0.4305,0.0105,-1445.07,1391.30,-1984.44
3620,-3.8723,0.4993,0.0448,-882.57,1344.54,453.12
3630,-3.8723,0.5514,0.0697,-85.69,1735.29,1984.44
3640,-3.8723,0.5779,0.0863,-1413.82,922.91,-1703.00
3650,-3.8723,0.5748,0.0984,1976.81,-952.03,-1062.38
3660,-3.8722,0.5502,0.1035,1586.18,594.85,1328.31
3670,-3.8721,0.5173,0.1073,-1570.07,1251.04,1797.06
3680,-3.8719,0.4843,0.1136,-1773.19,1735.35,-687.32
3690,-3.8717,0.4644,0.1187,1992.43,-1452.21,187.68
3700,-3.8717,0.4719,0.1219,-554.44,-811.65,-468.57
3710,-3.8716,0.5050,0.1298,414.31,-389.71,1609.56
3720,-3.8716,0.5490,0.1487,648.68,610.35,-1234.13
3730,-3.8716,0.5900,0.1796,-1726.32,-967.71,-749.76
3740,-3.8716,0.6208,0.2125,-476.32,-1014.53,-452.82
3750,-3.8715,0.6333,0.2371,-523.19,-795.72,1109.74
3760,-3.8713,0.6147,0.2506,1070.56,-1655.03,1547.30
3770,-3.8711,0.5670,0.2572,-1304.44,79.28,78.61
3780,-3.8710,0.5146,0.2606,586.18,922.97,1328.61
3790,-3.8710,0.4906,0.2572,1883.06,1360.35,-1233.89
3800,-3.8710,0.5138,0.2494,-1195.07,922.79,984.86
3810,-3.8711,0.5679,0.2465,1773.68,-77.15,-1483.95
3820,-3.8711,0.6162,0.2512,695.56,-452.03,672.30
3830,-3.8712,0.6373,0.2606,-1116.94,157.41,-515.14
3840,-3.8711,0.6283,0.2820,1586.18,1360.60,750.49
3850,-3.8710,0.5939,0.3240,429.93,94.97,1641.17
3860,-3.8707,0.5540,0.3745,23.68,1469.91,250.61
3870,-3.8706,0.5356,0.4127,-1085.69,-61.46,-1780.58
3880,-3.8705,0.5443,0.4290,570.56,829.16,-1452.33
3890,-3.8704,0.5642,0.4279,1679.93,-1092.71,375.79
3900,-3.8705,0.5831,0.4191,226.81,-1233.28,-436.71
3910,-3.8705,0.5955,0.4125,-1351.32,1641.72,1750.79
3920,-3.8705,0.5939,0.4147,226.81,798.03,453.92
3930,-3.8706,0.5752,0.4214,23.68,1079.28,-249.21
3940,-3.8706,0.5470,0.4253,1633.06,1938.60,-639.83
3950,-3.8706,0.5242,0.4292,-1976.32,-1561.46,-499.21
3960,-3.8705,0.5183,0.4425,-898.19,-1061.52,203.92
3970,-3.8705,0.5281,0.4698,-1648.19,641.60,1735.23
3980,-3.8704,0.5402,0.5049,-398.19,141.60,875.92
3990,-3.8702,0.5391,0.5298,1148.68,626.04,1079.10
4000,-3.8701,0.5160,0.5286,1008.06,-186.46,63.48
4010,-3.8701,0.4771,0.5035,-1945.07,-342.77,391.60
4020,-3.8702,0.4364,0.4714,1070.56,454.04,-1764.65
4030,-3.8704,0.4083,0.4492,-132.57,344.54,-1030.33
4040,-3.8704,0.4037,0.4465,273.68,1500.79,266.48
4050,-3.8705,0.4194,0.4666,-320.07,1156.98,-311.65
4060,-3.8704,0.4377,0.5035,1695.56,-280.46,1922.73
4070,-3.8702,0.4423,0.5394,39.31,453.98,1547.85
4080,-3.8701,0.4299,0.5552,617.43,1047.73,688.54
4090,-3.8701,0.4082,0.5454,-960.69,-936.71,-1920.84
4100,-3.8701,0.3855,0.5200,258.06,1813.29,1001.04
4110,-3.8702,0.3645,0.4965,1351.81,-1436.77,-1280.27
4120,-3.8702,0.3423,0.4874,-1335.69,-452.45,1235.29
4130,-3.8702,0.3145,0.4923,-179.44,-1608.76,1594.67
4140,-3.8702,0.2817,0.5048,258.06,-983.76,-249.08
4150,-3.8701,0.2428,0.5238,70.56,609.92,-530.27
4160,-3.8699,0.1929,0.5498,-913.82,-952.70,813.48
4170,-3.8698,0.1349,0.5747,695.56,-1624.63,-686.46
4180,-3.8695,0.0820,0.5850,1273.68,1562.74,1516.72
4190,-3.8694,0.0477,0.5750,-1491.94,-1124.88,1516.72
4200,-3.8694,0.0377,0.5494,-1882.57,1593.81,1876.10
4210,-3.8695,0.0508,0.5176,836.18,-1671.81,-1623.96
4220,-3.8696,0.0760,0.4883,-1491.94,-1749.94,454.10
4230,-3.8699,0.0939,0.4707,1742.43,-1499.88,-1311.58
4240,-3.8700,0.0897,0.4680,23.68,250.18,-1030.33
4250,-3.8700,0.0636,0.4705,-507.57,-93.63,1188.35
4260,-3.8700,0.0259,0.4705,148.68,218.87,579.04
4270,-3.8700,-0.0116,0.4730,-679.44,218.75,313.42
4280,-3.8701,-0.0370,0.4828,-1476.32,562.44,-92.83
4290,-3.8701,-0.0425,0.4923,-726.32,1812.38,-77.21
4300,-3.8700,-0.0326,0.4852,-1429.44,-968.87,172.79
4310,-3.8701,-0.0214,0.4567,-163.82,-1875.12,-1311.58
4320,-3.8702,-0.0220,0.4181,1273.68,-1531.31,-1624.15
4330,-3.8704,-0.0383,0.3839,1195.56,1531.19,297.67
4340,-3.8706,-0.0653,0.3582,-898.19,1156.13,-1655.52
4350,-3.8707,-0.0923,0.3381,-351.32,1859.19,1594.42
4360,-3.8708,-0.1102,0.3191,195.56,-703.31,1828.74
4370,-3.8710,-0.1191,0.3010,1898.68,859.13,-1858.76
4380,-3.8711,-0.1216,0.2864,758.06,-1453.37,-1718.20
4390,-3.8712,-0.1216,0.2725,445.56,671.63,-1405.70
4400,-3.8713,-0.1245,0.2595,445.56,-1109.62,-390.14
4410,-3.8713,-0.1339,0.2526,70.56,1234.13,1469.24
4420,-3.8715,-0.1487,0.2467,-1132.57,343.44,-530.76
4430,-3.8715,-0.1639,0.2308,976.81,-406.56,797.30
4440,-3.8716,-0.1736,0.2023,-976.32,1562.13,953.55
4450,-3.8717,-0.1753,0.1682,1789.31,1905.88,125.37
4460,-3.8719,-0.1693,0.1365,1570.56,1546.51,-921.57
4470,-3.8721,-0.1593,0.1111,-1663.82,1484.01,-1437.26
4480,-3.8722,-0.1541,0.0934,-382.57,-1765.99,-874.82
4490,-3.8722,-0.1578,0.0808,289.31,-31.56,515.75
4500,-3.8723,-0.1693,0.0702,-195.07,-1640.99,1750.12
4510,-3.8724,-0.1804,0.0564,-1663.82,999.63,-843.63
4520,-3.8724,-0.1818,0.0323,914.31,-765.99,1312.56
4530,-3.8726,-0.1704,0.0012,742.43,155.88,-374.94
4540,-3.8726,-0.1483,-0.0245,-1804.44,171.51,1546.88
4550,-3.8727,-0.1226,-0.0375,1023.68,874.69,-718.81
4560,-3.8727,-0.1027,-0.0359,320.56,-781.49,1468.63
4570,-3.8727,-0.0934,-0.0159,-1132.57,-578.37,999.88
4580,-3.8727,-0.0933,0.0134,54.93,1984.19,-1750.06
4590,-3.8726,-0.0923,0.0317,70.56,1734.19,421.88
4600,-3.8726,-0.0790,0.0315,195.56,77.94,1765.69
4610,-3.8726,-0.0516,0.0178,1898.68,46.69,828.19
4620,-3.8727,-0.0144,-0.0004,1398.68,-1703.25,-1953.12
4630,-3.8728,0.0272,-0.0187,-1835.69,-31.31,-1218.81
4640,-3.8729,0.0681,-0.0352,-507.57,1609.38,-515.69
4650,-3.8729,0.1057,-0.0482,726.81,-499.88,15.50
4660,-3.8730,0.1418,-0.0593,1539.31,1828.31,374.88
4670,-3.8732,0.1760,-0.0674,-1835.69,406.49,1109.25
4680,-3.8733,0.2024,-0.0669,-1460.69,-624.69,-859.56
4690,-3.8733,0.2170,-0.0576,1914.31,-562.13,-1031.43
4700,-3.8732,0.2206,-0.0492,-210.69,625.37,109.25
4710,-3.8732,0.2190,-0.0510,242.43,1703.55,1187.38
4720,-3.8732,0.2220,-0.0624,39.31,1469.18,1531.13
4730,-3.8732,0.2402,-0.0760,429.93,16.05,1234.25
4740,-3.8732,0.2773,-0.0836,-1241.94,-1733.95,827.94
4750,-3.8732,0.3264,-0.0825,-491.94,1297.36,999.82
4760,-3.8732,0.3733,-0.0773,1789.31,1438.11,1921.69
4770,-3.8732,0.4066,-0.0748,-210.69,-1889.95,-984.56
4780,-3.8732,0.4255,-0.0750,54.93,-1577.33,-93.93
4790,-3.8730,0.4332,-0.0724,-1523.19,-1592.96,1109.19
4800,-3.8730,0.4357,-0.0593,-538.82,-1264.83,-828.31
4810,-3.8729,0.4398,-0.0267,-226.32,407.04,-1687.62
4820,-3.8728,0.4512,0.0184,304.93,578.98,-1187.56
4830,-3.8726,0.4724,0.0575,1758.06,-1639.77,312.50
4840,-3.8724,0.4958,0.0752,476.81,-639.71,1640.69
4850,-3.8723,0.5109,0.0615,-523.19,1625.92,1172.00
4860,-3.8723,0.5160,0.0251,1398.68,-124.02,1937.56
4870,-3.8723,0.5111,-0.0120,-1945.07,-780.27,437.50
4880,-3.8724,0.4978,-0.0369,1429.93,-1530.27,-1796.94
4890,-3.8724,0.4841,-0.0431,-273.19,-717.83,562.38
4900,-3.8724,0.4780,-0.0232,1976.81,-1514.71,437.38
4910,-3.8724,0.4863,0.0206,1195.56,1032.17,-1546.94
4920,-3.8723,0.5077,0.0712,-1741.94,-1358.46,-734.38
4930,-3.8721,0.5269,0.1099,992.43,1110.35,-1593.63
4940,-3.8718,0.5310,0.1312,-554.44,-1936.52,-1656.07
4950,-3.8716,0.5214,0.1396,-23.19,797.85,1531.49
4960,-3.8715,0.5076,0.1421,-1257.57,1875.98,-1468.51
4970,-3.8713,0.5007,0.1425,976.81,-1811.52,593.99
4980,-3.8713,0.5048,0.1444,101.81,-1764.65,297.12
4990,-3.8715,0.5156,0.1547,617.43,-1514.65,-702.88
5000,-3.8715,0.5315,0.1744,-1991.94,-202.15,-765.38
5010,-3.8713,0.5519,0.1967,39.31,-1670.84,781.56
5020,-3.8713,0.5731,0.2164,-1351.32,1172.91,-327.76
5030,-3.8711,0.5869,0.2441,1367.43,-295.78,265.99
5040,-3.8710,0.5831,0.2866,-866.94,-748.90,-952.70
5050,-3.8707,0.5607,0.3268,-1351.32,688.60,-1186.95
5060,-3.8705,0.5304,0.3453,-226.32,1829.16,1469.36
5070,-3.8704,0.5042,0.3347,-101.32,204.10,578.80
5080,-3.8705,0.4918,0.3011,539.31,-1155.27,-1015.01
5090,-3.8706,0.5016,0.2654,-1038.82,-1452.21,-1640.08
5100,-3.8707,0.5272,0.2510,211.18,1969.73,1719.24
5110,-3.8708,0.5548,0.2697,-507.57,125.98,-249.51
5120,-3.8707,0.5753,0.3130,-976.32,-1483.34,1547.36
5130,-3.8706,0.5856,0.3652,1648.68,63.60,-1702.51
5140,-3.8704,0.5840,0.4169,-1038.82,-1248.90,594.42
5150,-3.8702,0.5703,0.4576,-1241.94,1360.47,-811.71
5160,-3.8700,0.5505,0.4727,1008.06,-1420.78,313.35
5170,-3.8700,0.5332,0.4564,-1523.19,501.04,1860.29
5180,-3.8701,0.5222,0.4187,258.06,-1577.09,-311.65
5190,-3.8701,0.5199,0.3884,-1148.19,1594.73,16.42
5200,-3.8702,0.5225,0.3877,-1445.07,1719.73,844.48
5210,-3.8704,0.5239,0.4142,-1116.94,1625.98,-655.52
5220,-3.8702,0.5170,0.4573,-929.44,1016.60,938.29
5230,-3.8701,0.4926,0.5046,-1820.07,-1467.77,1391.48
5240,-3.8700,0.4526,0.5414,-945.07,594.67,-1030.27
5250,-3.8698,0.4082,0.5580,1945.56,1297.73,219.79
5260,-3.8698,0.3715,0.5486,258.06,-577.33,-655.21
5270,-3.8698,0.3472,0.5126,-445.07,-1780.58,-1217.71
5280,-3.8699,0.3311,0.4689,445.56,1610.05,-749.02
5290,-3.8700,0.3170,0.4417,-1616.94,16.24,-1264.71
5300,-3.8701,0.3027,0.4413,586.18,531.86,-405.40
5310,-3.8701,0.2905,0.4618,-1241.94,484.92,-889.77
5320,-3.8700,0.2831,0.4865,1195.56,-890.08,469.60
5330,-3.8700,0.2806,0.5089,242.43,-1733.83,-1342.83
5340,-3.8699,0.2753,0.5355,-70.07,1141.11,1735.35
5350,-3.8698,0.2561,0.5638,-757.57,547.36,1876.04
5360,-3.8696,0.2218,0.5791,789.31,172.36,-1811.40
5370,-3.8695,0.1799,0.5691,398.68,-1874.57,766.72
5380,-3.8695,0.1395,0.5341,-960.69,844.06,16.72
5390,-3.8696,0.1086,0.4868,1867.43,359.62,63.54
5400,-3.8699,0.0923,0.4462,1914.31,-1687.32,-1452.21
5410,-3.8700,0.0918,0.4224,-179.44,1109.50,1219.60
5420,-3.8701,0.1042,0.4111,-241.94,-1937.38,1110.17
5430,-3.8702,0.1194,0.4058,1351.81,625.18,-1155.46
5440,-3.8702,0.1191,0.4045,-710.69,-62.32,-1593.02
5450,-3.8702,0.0917,0.4113,-741.94,-218.57,-468.02
5460,-3.8701,0.0438,0.4301,-257.57,640.75,-1358.58
5470,-3.8700,-0.0070,0.4500,1617.43,-953.06,-749.21
5480,-3.8699,-0.0468,0.4479,-882.57,1609.31,-796.02
5490,-3.8698,-0.0699,0.4144,-1976.32,1343.63,328.98
5500,-3.8699,-0.0728,0.3579,-945.07,1062.32,797.67
5510,-3.8701,-0.0527,0.2953,-1304.44,1827.94,563.17
5520,-3.8705,-0.0188,0.2473,1258.06,1812.38,-1265.08
5530,-3.8707,0.0076,0.2264,1601.81,-328.19,-874.57
5540,-3.8708,0.0105,0.2261,976.81,984.38,-655.82
5550,-3.8708,-0.0051,0.2303,1351.81,937.50,-1327.70
5560,-3.8708,-0.0259,0.2341,-648.19,1499.94,-640.20
5570,-3.8707,-0.0459,0.2408,695.56,1984.31,156.68
5580,-3.8707,-0.0624,0.2484,-1866.94,-1156.37,406.68
5590,-3.8708,-0.0677,0.2469,23.68,-187.62,-343.32
5600,-3.8708,-0.0607,0.2277,-663.82,-375.18,1266.05
5610,-3.8710,-0.0486,0.1904,242.43,1156.13,781.68
5620,-3.8712,-0.0413,0.1514,1789.31,390.50,-843.38
5630,-3.8713,-0.0464,0.1268,-1273.19,-609.50,1718.99
5640,-3.8715,-0.0596,0.1149,-1929.44,249.88,1406.49
5650,-3.8716,-0.0729,0.1108,383.06,-1281.37,-1281.07
5660,-3.8716,-0.0862,0.1119,-1320.07,-1797.06,1047.06
5670,-3.8717,-0.0997,0.1093,976.81,-1656.43,-734.19
5680,-3.8717,-0.1105,0.0973,-757.57,1999.76,890.81
5690,-3.8718,-0.1187,0.0775,1867.43,468.51,1718.93
5700,-3.8719,-0.1259,0.0520,820.56,1937.26,1828.25
5710,-3.8721,-0.1320,0.0229,-101.32,-1328.43,1406.31
5720,-3.8722,-0.1353,-0.0061,-882.57,-1047.18,375.00
5730,-3.8724,-0.1318,-0.0333,-1304.44,-765.93,-890.69
5740,-3.8726,-0.1224,-0.0533,-866.94,-250.31,1999.88
5750,-3.8727,-0.1113,-0.0642,336.18,1187.26,1249.88
5760,-3.8728,-0.0975,-0.0739,1758.06,-203.37,-1937.68
5770,-3.8728,-0.0862,-0.0808,-476.32,-1437.74,843.57
5780,-3.8728,-0.0872,-0.0818,976.81,1671.69,374.82
5790,-3.8728,-0.0997,-0.0793,851.81,1546.69,374.82
5800,-3.8728,-0.1152,-0.0743,-757.57,1859.13,1109.19
5810,-3.8728,-0.1248,-0.0688,1258.06,-1500.24,-1297.06
5820,-3.8727,-0.1217,-0.0653,39.31,-797.12,937.32
5830,-3.8727,-0.1029,-0.0664,429.93,-343.99,-922.06
5840,-3.8726,-0.0743,-0.0740,-1163.82,-484.62,296.69
5850,-3.8726,-0.0502,-0.0853,-1507.57,-1453.31,93.57
5860,-3.8727,-0.0364,-0.0980,1586.18,1093.63,-1422.06
5870,-3.8727,-0.0284,-0.1100,-648.19,-531.37,390.38
5880,-3.8728,-0.0205,-0.1177,367.43,1937.44,-1734.62
5890,-3.8728,-0.0081,-0.1191,1383.06,953.06,234.13
5900,-3.8729,0.0142,-0.1174,-1023.19,765.56,-1656.49
5910,-3.8729,0.0466,-0.1157,1820.56,968.75,827.88
5920,-3.8730,0.0846,-0.1118,1976.81,1187.56,-265.87
5930,-3.8730,0.1265,-0.1045,-1163.82,1687.62,-562.74
5940,-3.8729,0.1693,-0.0991,195.56,-1374.76,265.38
5950,-3.8729,0.2039,-0.1000,1679.93,-687.19,1702.88
5960,-3.8729,0.2218,-0.1041,-1898.19,-796.51,-968.99
5970,-3.8728,0.2207,-0.1080,398.68,-1327.70,249.76
5980,-3.8728,0.2102,-0.1079,258.06,-1827.70,1656.01
5990,-3.8728,0.2052,-0.1044,-1085.69,-1812.13,-1015.87
6000,-3.8727,0.2173,-0.0992,-1726.32,-1359.01,15.38
6010,-3.8727,0.2472,-0.0886,-179.44,-702.76,796.63
6020,-3.8727,0.2806,-0.0764,-351.32,656.68,1327.94
6030,-3.8727,0.3042,-0.0715,-70.07,-1780.76,1656.07
6040,-3.8727,0.3168,-0.0708,-1054.44,-1155.70,1718.57
6050,-3.8727,0.3253,-0.0627,554.93,-1061.89,-1750.18
6060,-3.8726,0.3356,-0.0410,1648.68,-30.64,531.07
6070,-3.8724,0.3502,-0.0077,-1038.82,-1249.39,453.00
6080,-3.8723,0.3761,0.0272,836.18,-983.70,359.31
6090,-3.8723,0.4182,0.0559,148.68,-514.89,-687.50
6100,-3.8722,0.4645,0.0780,1539.31,-842.96,1625.06
6110,-3.8722,0.4928,0.0889,-538.82,1985.23,-578.00
6120,-3.8721,0.4935,0.0842,-913.82,-624.08,1250.12
6130,-3.8721,0.4725,0.0658,-820.07,-1217.83,-421.75
6140,-3.8719,0.4446,0.0415,492.43,422.79,1453.25
6150,-3.8719,0.4305,0.0261,914.31,1313.35,-1968.69
6160,-3.8719,0.4467,0.0321,-882.57,-655.46,1625.00
6170,-3.8719,0.4906,0.0577,1179.93,110.23,1031.31
6180,-3.8719,0.5452,0.0968,-1195.07,-608.46,1453.19
6190,-3.8719,0.5906,0.1456,1789.31,391.66,-343.57
6200,-3.8718,0.6162,0.1884,-398.19,-1358.28,-343.51
6210,-3.8716,0.6248,0.2104,-1116.94,110.53,812.87
6220,-3.8715,0.6182,0.2128,-23.19,-1061.34,-1796.51
6230,-3.8713,0.5958,0.1993,-866.94,-764.47,-1109.01
6240,-3.8712,0.5669,0.1790,273.68,1516.78,1328.49
6250,-3.8712,0.5458,0.1593,570.56,-1092.65,812.81
6260,-3.8713,0.5419,0.1449,1867.43,391.66,-1265.32
6270,-3.8713,0.5541,0.1438,1367.43,-1452.09,843.99
6280,-3.8713,0.5719,0.1605,-1070.07,-1592.71,406.49
6290,-3.8713,0.5880,0.1968,1211.18,547.97,-1905.94
6300,-3.8712,0.6029,0.2454,-726.32,1188.60,1578.49
6310,-3.8711,0.6198,0.2948,1179.93,-592.59,-1562.07
6320,-3.8710,0.6362,0.3309,-663.82,1735.53,-265.08
6330,-3.8708,0.6483,0.3394,1445.56,-1639.40,-327.51
6340,-3.8707,0.6523,0.3268,-1007.57,-561.28,1781.86
6350,-3.8707,0.6417,0.3103,-491.94,1829.35,-1686.89
6360,-3.8707,0.6184,0.2996,-1851.32,-280.03,1391.17
6370,-3.8708,0.5938,0.2961,-835.69,-1655.09,-405.70
6380,-3.8708,0.5782,0.2985,8.06,1907.41,1625.55
6390,-3.8708,0.5779,0.3073,-1976.32,-1795.78,359.92
6400,-3.8708,0.5914,0.3302,1976.81,-670.78,984.92
6410,-3.8707,0.6099,0.3740,-288.82,-1733.28,359.99
6420,-3.8706,0.6190,0.4304,-1929.44,-123.84,-1983.70
6430,-3.8704,0.6115,0.4738,-757.57,-905.09,266.42
6440,-3.8702,0.5945,0.4821,-1726.32,641.78,157.17
6450,-3.8704,0.5802,0.4537,101.81,1704.28,-1092.83
6460,-3.8705,0.5701,0.4077,-1726.32,-1920.78,782.10
6470,-3.8707,0.5615,0.3713,976.81,188.60,1172.67
6480,-3.8710,0.5519,0.3651,-116.94,-467.71,-171.20
6490,-3.8710,0.5392,0.3917,-1351.32,-1264.59,-1061.83
6500,-3.8708,0.5262,0.4365,1023.68,-1858.34,-1561.77
6510,-3.8706,0.5200,0.4802,-632.57,-124.02,360.17
6520,-3.8705,0.5215,0.5195,-1429.44,1469.73,-1108.46
6530,-3.8702,0.5182,0.5582,-1241.94,-1499.02,1313.48
6540,-3.8701,0.5021,0.5781,-1663.82,-545.90,-1311.46
6550,-3.8700,0.4781,0.5619,273.68,-1999.02,1985.47
6560,-3.8700,0.4508,0.5238,1211.18,-77.21,-1217.71
6570,-3.8700,0.4175,0.4945,1711.18,-952.27,1875.98
6580,-3.8700,0.3746,0.4877,1445.56,-702.33,891.54
6590,-3.8700,0.3257,0.4938,-38.82,-1577.45,844.67
6600,-3.8700,0.2805,0.5038,1695.56,-796.26,1813.42
6610,-3.8700,0.2490,0.5171,-85.69,484.86,-764.65
6620,-3.8699,0.2336,0.5338,-116.94,-1812.07,954.10
6630,-3.8699,0.2266,0.5487,1914.31,328.55,-561.46
6640,-3.8698,0.2156,0.5548,1008.06,-1765.20,-1670.84
6650,-3.8696,0.1980,0.5492,-398.19,-984.01,251.04
6660,-3.8696,0.1760,0.5315,1351.81,-1702.76,32.29
6670,-3.8698,0.1519,0.5051,-1460.69,31.56,1547.91
6680,-3.8699,0.1294,0.4780,-554.44,656.49,1547.85
6690,-3.8700,0.1105,0.4564,570.56,1187.74,1485.29
6700,-3.8701,0.0934,0.4410,-1851.32,-1577.94,-1577.27
6710,-3.8701,0.0759,0.4310,-38.82,453.25,47.73
6720,-3.8702,0.0601,0.4282,1726.81,-828.00,-1858.58
6730,-3.8702,0.0492,0.4326,-304.44,-1187.44,813.29
6740,-3.8702,0.0447,0.4409,-1695.07,-624.94,219.54
6750,-3.8702,0.0449,0.4497,1726.81,437.56,578.98
6760,-3.8702,0.0449,0.4509,1758.06,1562.56,1563.35
6770,-3.8702,0.0392,0.4385,1758.06,1718.81,-1796.02
6780,-3.8702,0.0197,0.4185,1023.68,125.06,1953.98
6790,-3.8702,-0.0178,0.3995,-1476.32,1562.50,594.54
6800,-3.8704,-0.0652,0.3815,1726.81,-843.81,-1843.02
6810,-3.8705,-0.1080,0.3608,-335.69,843.57,-1171.14
6820,-3.8706,-0.1373,0.3394,-1820.07,-1797.12,-1108.70
6830,-3.8707,-0.1515,0.3204,-1570.07,-547.18,-968.14
6840,-3.8708,-0.1514,0.3033,617.43,1030.94,-265.01
6850,-3.8708,-0.1436,0.2848,633.06,-1156.56,922.42
6860,-3.8710,-0.1371,0.2659,1633.06,468.44,-1515.08
6870,-3.8710,-0.1367,0.2506,-1538.82,-1953.43,375.49
6880,-3.8711,-0.1453,0.2424,-1491.94,93.44,-1374.51
6890,-3.8711,-0.1621,0.2380,1414.31,-953.43,1219.18
6900,-3.8712,-0.1804,0.2279,-741.94,-1515.99,-374.57
6910,-3.8712,-0.1962,0.2089,914.31,1187.13,1375.43
6920,-3.8713,-0.2112,0.1898,-1101.32,-1250.43,-1077.76
6930,-3.8713,-0.2279,0.1772,976.81,312.07,1125.37
6940,-3.8713,-0.2450,0.1676,-1163.82,-1297.36,437.81
6950,-3.8715,-0.2577,0.1545,648.68,1468.26,-109.07
6960,-3.8715,-0.2606,0.1367,-976.32,-203.67,-1984.13
6970,-3.8716,-0.2515,0.1149,-1351.32,1515.08,-1921.63
6980,-3.8717,-0.2314,0.0883,-179.44,-1281.80,125.18
6990,-3.8719,-0.2064,0.0592,-1616.94,-687.99,1375.12
7000,-3.8722,-0.1793,0.0319,1586.18,-406.68,-734.31
7010,-3.8723,-0.1514,0.0109,1054.93,93.38,-1593.69
7020,-3.8724,-0.1290,-0.0021,633.06,1405.94,-1093.75
7030,-3.8724,-0.1182,-0.0079,-507.57,-250.31,531.19
7040,-3.8726,-0.1176,-0.0104,883.06,-1000.24,-1140.69
7050,-3.8726,-0.1248,-0.0144,961.18,-1312.74,1499.94
7060,-3.8727,-0.1323,-0.0240,39.31,-1828.37,-93.81
7070,-3.8727,-0.1296,-0.0398,-929.44,937.19,1640.56
7080,-3.8728,-0.1124,-0.0586,-585.69,-1078.43,-1343.87
7090,-3.8729,-0.0826,-0.0748,1617.43,515.38,-328.25
7100,-3.8729,-0.0470,-0.0814,1429.93,-1562.68,-1984.56
7110,-3.8729,-0.0138,-0.0789,1992.43,1593.63,-1750.18
7120,-3.8729,0.0117,-0.0730,-1757.57,1921.81,-312.68
7130,-3.8728,0.0275,-0.0651,1508.06,-1343.75,1281.07
7140,-3.8728,0.0333,-0.0560,-476.32,-328.12,-1687.68
7150,-3.8728,0.0328,-0.0519,273.68,828.19,-1281.37
7160,-3.8728,0.0309,-0.0566,211.18,1359.44,-1375.12
7170,-3.8728,0.0317,-0.0712,-38.82,750.00,1671.75
7180,-3.8729,0.0387,-0.0906,70.56,-1109.31,-390.81
7190,-3.8729,0.0542,-0.1099,961.18,406.31,827.94
7200,-3.8730,0.0796,-0.1254,-1054.44,1937.56,1906.01
7210,-3.8732,0.1174,-0.1337,-1804.44,-46.75,-594.06
7220,-3.8732,0.1672,-0.1322,-960.69,-1109.19,1843.44
7230,-3.8732,0.2230,-0.1196,1414.31,-921.57,1421.57
7240,-3.8732,0.2784,-0.0984,554.93,687.93,-1734.62
7250,-3.8730,0.3234,-0.0746,-351.32,-593.26,593.51
7260,-3.8729,0.3452,-0.0531,1398.68,-1546.26,249.82
7270,-3.8728,0.3397,-0.0388,195.56,1203.80,140.50
7280,-3.8728,0.3165,-0.0360,-507.57,-968.14,-1140.75
7290,-3.8727,0.2944,-0.0413,523.68,-608.76,93.63
7300,-3.8727,0.2874,-0.0458,1695.56,-1280.70,546.75
7310,-3.8727,0.2968,-0.0460,789.31,-1858.83,609.25
7320,-3.8727,0.3171,-0.0430,1992.43,-1890.08,406.13
7330,-3.8727,0.3435,-0.0358,601.81,-1499.39,124.88
7340,-3.8728,0.3737,-0.0225,-23.19,-577.51,-0.12
7350,-3.8727,0.4061,-0.0073,-163.82,1125.67,218.69
7360,-3.8727,0.4393,0.0067,-7.57,-936.77,1156.19
7370,-3.8727,0.4673,0.0208,242.43,860.23,-734.38
7380,-3.8726,0.4863,0.0347,-179.44,-1342.90,-1765.62
7390,-3.8724,0.5017,0.0481,-1741.94,438.42,1250.06
7400,-3.8724,0.5161,0.0609,226.81,-1842.77,-187.44
7410,-3.8723,0.5259,0.0752,-1929.44,-202.15,1953.19
7420,-3.8723,0.5309,0.0911,-679.44,1625.98,-78.00
7430,-3.8722,0.5398,0.1089,-38.82,-342.77,1937.62
7440,-3.8722,0.5590,0.1260,1101.81,1938.54,-202.94
7450,-3.8721,0.5851,0.1320,-445.07,126.04,1359.62
7460,-3.8721,0.6083,0.1311,-1101.32,891.72,-437.26
7470,-3.8719,0.6149,0.1421,1867.43,782.41,-1234.13
7480,-3.8718,0.6013,0.1653,-1288.82,-1811.34,1968.99
7490,-3.8717,0.5812,0.1874,976.81,1157.41,719.06
7500,-3.8717,0.5695,0.2046,-1601.32,-14.53,-109.07
7510,-3.8715,0.5690,0.2177,898.68,-1811.40,172.24
7520,-3.8713,0.5779,0.2306,836.18,-139.53,922.24
7530,-3.8712,0.5938,0.2502,1976.81,1516.72,1375.43
7540,-3.8711,0.6118,0.2762,8.06,32.41,937.99
7550,-3.8711,0.6278,0.3000,-1679.44,-639.47,-780.76
7560,-3.8710,0.6409,0.3108,367.43,-1592.53,391.17
7570,-3.8710,0.6520,0.3016,-1960.69,-217.53,531.80
7580,-3.8711,0.6613,0.2814,-538.82,-1389.40,-30.70
7590,-3.8711,0.6630,0.2660,648.68,16.91,-405.70
7600,-3.8710,0.6530,0.2688,867.43,-1951.84,219.24
7610,-3.8710,0.6357,0.2977,-413.82,-1592.53,-1890.14
7620,-3.8708,0.6250,0.3434,1383.06,-1889.40,875.55
7630,-3.8708,0.6379,0.3876,8.06,-45.65,-436.89
7640,-3.8707,0.6733,0.4238,1664.31,1610.60,1610.11
7650,-3.8707,0.7115,0.4525,-1804.44,-1748.72,-655.46
7660,-3.8706,0.7344,0.4670,-913.82,1923.22,891.48
7670,-3.8706,0.7322,0.4597,-1991.94,-217.35,1625.85
7680,-3.8706,0.6997,0.4362,1726.81,-1154.85,985.23
7690,-3.8707,0.6404,0.4146,1570.56,-170.53,-733.58
7700,-3.8707,0.5758,0.4056,1976.81,1063.72,1110.17
7710,-3.8708,0.5326,0.4104,1711.18,-77.03,-624.27
7720,-3.8708,0.5236,0.4293,179.93,532.29,-1217.96
7730,-3.8708,0.5444,0.4575,-976.32,-1045.90,-874.21
7740,-3.8708,0.5806,0.4817,1695.56,-1436.46,-389.77
7750,-3.8707,0.6117,0.4929,-1679.44,1657.35,172.79
7760,-3.8707,0.6198,0.4940,-1695.07,-905.09,891.54
7770,-3.8707,0.5996,0.4913,-663.82,-764.47,1657.17
7780,-3.8707,0.5614,0.4899,758.06,-1108.22,-1264.71
7790,-3.8706,0.5215,0.4918,-132.57,-1295.84,110.29
7800,-3.8706,0.4939,0.4995,-1241.94,-1045.90,1469.67
7810,-3.8706,0.4846,0.5131,-773.19,-61.58,-1295.96
7820,-3.8706,0.4910,0.5259,-1960.69,1672.79,-327.15
7830,-3.8705,0.5040,0.5312,-1148.19,-686.58,344.73
7840,-3.8705,0.5112,0.5299,523.68,0.98,563.54
7850,-3.8705,0.5035,0.5305,1445.56,-170.90,782.23
7860,-3.8705,0.4791,0.5397,461.18,-92.77,1688.48
7870,-3.8705,0.4464,0.5547,1336.18,1079.04,-405.21
7880,-3.8704,0.4147,0.5691,1148.68,-999.15,-1577.09
7890,-3.8702,0.3864,0.5780,1086.18,844.54,1094.85
7900,-3.8702,0.3590,0.5786,1461.18,1985.11,-1295.78
7910,-3.8702,0.3309,0.5698,1961.18,-1936.83,-764.53
7920,-3.8702,0.3035,0.5535,-1632.57,938.11,-827.03
7930,-3.8702,0.2808,0.5349,-1148.19,-1155.70,-780.21
7940,-3.8702,0.2639,0.5223,-54.44,469.24,-295.84
7950,-3.8701,0.2484,0.5231,1789.31,-1140.14,688.48
7960,-3.8701,0.2283,0.5375,-195.07,-1046.45,-1342.77
7970,-3.8700,0.2007,0.5551,1226.81,797.30,1376.04
7980,-3.8700,0.1709,0.5590,1695.56,-952.76,-608.34
7990,-3.8700,0.1495,0.5432,1883.06,-452.82,-530.21
8000,-3.8700,0.1448,0.5186,-851.32,1531.49,1422.91
8010,-3.8701,0.1538,0.4948,-1460.69,-1624.76,1954.10
8020,-3.8702,0.1671,0.4736,-304.44,-671.63,-1702.21
8030,-3.8704,0.1693,0.4568,1398.68,625.31,-311.58
8040,-3.8704,0.1488,0.4446,1679.93,-1530.94,-1327.27
8050,-3.8704,0.1093,0.4353,-945.07,906.49,-1217.90
8060,-3.8704,0.0634,0.4287,1992.43,-281.07,-577.33
8070,-3.8704,0.0194,0.4230,117.43,-1124.88,-77.33
8080,-3.8704,-0.0154,0.4142,-1507.57,-1859.38,-92.96
8090,-3.8704,-0.0375,0.3998,-1960.69,1031.19,-514.83
8100,-3.8704,-0.0509,0.3759,-788.82,-812.62,-1530.52
8110,-3.8704,-0.0615,0.3455,1492.43,124.88,656.98
8120,-3.8705,-0.0759,0.3169,133.06,234.25,1656.92
8130,-3.8706,-0.0957,0.2958,-1710.69,577.94,1844.36
8140,-3.8707,-0.1155,0.2832,-241.94,1874.76,-1905.70
8150,-3.8708,-0.1293,0.2715,1226.81,265.38,-1593.20
8160,-3.8710,-0.1332,0.2527,-538.82,-1234.68,-1483.89
8170,-3.8711,-0.1273,0.2308,-1038.82,359.07,-1265.14
8180,-3.8712,-0.1183,0.2157,-288.82,1562.19,-421.45
8190,-3.8712,-0.1106,0.2125,867.43,-375.24,1109.74
8200,-3.8713,-0.1039,0.2183,1851.81,-781.49,-827.76
8210,-3.8713,-0.0989,0.2220,-1288.82,-47.12,969.12
8220,-3.8715,-0.0967,0.2180,-648.19,437.26,1891.05
8230,-3.8716,-0.0975,0.2078,-366.94,-78.37,-1827.76
8240,-3.8717,-0.1007,0.1924,-476.32,-1390.87,1984.74
8250,-3.8718,-0.1010,0.1676,-882.57,640.38,1484.74
8260,-3.8719,-0.0929,0.1339,-913.82,1468.51,844.06
8270,-3.8721,-0.0801,0.1033,117.43,1156.07,672.12
8280,-3.8722,-0.0708,0.0833,1758.06,1234.19,1500.18
8290,-3.8723,-0.0687,0.0731,-1054.44,-1328.31,-890.50
8300,-3.8723,-0.0698,0.0706,-788.82,1374.82,1437.62
8310,-3.8723,-0.0712,0.0696,-929.44,1046.69,593.87
8320,-3.8723,-0.0715,0.0610,-1101.32,921.69,31.37
8330,-3.8724,-0.0698,0.0422,-1148.19,-172.06,-1171.81
8340,-3.8724,-0.0659,0.0198,-929.44,1421.69,1078.19
8350,-3.8726,-0.0637,0.0009,-429.44,-1453.31,-296.88
8360,-3.8726,-0.0658,-0.0149,-148.19,124.82,-984.38
8370,-3.8726,-0.0677,-0.0327,-413.82,-1890.81,-1515.69
8380,-3.8726,-0.0660,-0.0527,-663.82,-172.06,1593.63
8390,-3.8726,-0.0614,-0.0671,-445.07,1265.44,656.13
8400,-3.8726,-0.0563,-0.0697,148.68,-578.25,109.19
8410,-3.8727,-0.0498,-0.0629,804.93,-906.37,-47.06
8420,-3.8726,-0.0394,-0.0569,1633.06,-31.37,46.69
8430,-3.8726,-0.0238,-0.0610,-1038.82,734.25,140.50
8440,-3.8727,-0.0063,-0.0763,961.18,203.06,-203.25
8450,-3.8727,0.0098,-0.0980,-804.44,-1750.06,-1797.06
8460,-3.8728,0.0262,-0.1194,1258.06,-546.88,-453.37
8470,-3.8728,0.0447,-0.1311,-632.57,718.75,827.88
8480,-3.8729,0.0648,-0.1289,1726.81,-781.19,-1015.93
8490,-3.8729,0.0867,-0.1180,304.93,-499.88,-1594.06
8500,-3.8729,0.1112,-0.1044,-898.19,890.75,-1218.99
8510,-3.8729,0.1376,-0.0907,-1757.57,-1359.19,-62.74
8520,-3.8728,0.1621,-0.0803,1617.43,390.87,1562.32
8530,-3.8728,0.1844,-0.0781,758.06,1719.06,-1359.56
8540,-3.8728,0.2078,-0.0861,-382.57,-1999.69,-1281.43
8550,-3.8728,0.2339,-0.1007,-1398.19,984.74,1952.94
8560,-3.8728,0.2587,-0.1156,1945.56,-890.20,562.26
8570,-3.8729,0.2725,-0.1240,1117.43,1203.61,-812.74
8580,-3.8729,0.2708,-0.1199,-1116.94,125.49,-1406.49
8590,-3.8729,0.2650,-0.1021,-1335.69,656.74,-1000.24
8600,-3.8728,0.2737,-0.0748,1929.93,-1062.01,624.76
8610,-3.8728,0.3057,-0.0457,-960.69,-1577.64,-218.93
8620,-3.8727,0.3523,-0.0223,-866.94,-1843.20,-78.25
8630,-3.8726,0.3978,-0.0110,1101.81,1141.30,-421.94
8640,-3.8724,0.4308,-0.0137,-1070.07,-1405.52,1640.56
8650,-3.8724,0.4456,-0.0228,-851.32,-1749.21,-1953.19
8660,-3.8724,0.4471,-0.0295,1039.31,1078.98,1374.94
8670,-3.8724,0.4512,-0.0303,1242.43,219.60,687.44
8680,-3.8724,0.4706,-0.0244,1758.06,125.85,468.69
8690,-3.8724,0.5049,-0.0106,242.43,875.92,374.94
8700,-3.8724,0.5428,0.0099,633.06,-1358.40,890.56
8710,-3.8724,0.5731,0.0352,1492.43,1266.66,-734.38
8720,-3.8722,0.5854,0.0630,1367.43,501.10,31.31
8730,-3.8721,0.5731,0.0939,-1054.44,63.60,-796.75
8740,-3.8718,0.5393,0.1272,1367.43,16.72,-281.07
8750,-3.8716,0.5005,0.1486,1039.31,282.29,-921.63
8760,-3.8715,0.4816,0.1450,70.56,-983.40,-718.51
8770,-3.8715,0.4960,0.1237,1648.68,-1436.58,-452.88
8780,-3.8715,0.5339,0.0989,-507.57,-170.96,625.18
8790,-3.8716,0.5773,0.0829,351.81,657.29,1000.18
8800,-3.8717,0.6136,0.0862,1898.68,-1389.53,-1718.63
8810,-3.8717,0.6332,0.1163,-1445.07,-967.59,1703.25
8820,-3.8716,0.6287,0.1747,1054.93,-1108.15,984.56
8830,-3.8715,0.6027,0.2439,476.81,-1639.40,-296.57
8840,-3.8712,0.5740,0.2943,1148.68,-780.09,-62.07
8850,-3.8710,0.5586,0.3105,1476.81,1672.97,-233.83
8860,-3.8707,0.5552,0.2959,-491.94,-248.96,188.05
8870,-3.8708,0.5591,0.2650,-929.44,1876.04,-905.70
8880,-3.8710,0.5732,0.2369,-429.44,1922.91,1359.86
8890,-3.8712,0.5994,0.2240,1383.06,-1670.78,-1999.57
8900,-3.8713,0.6322,0.2225,726.81,673.03,109.80
8910,-3.8715,0.6617,0.2319,929.93,485.60,1734.80
8920,-3.8715,0.6709,0.2606,711.18,1688.78,-15.20
8930,-3.8712,0.6469,0.3109,1883.06,1360.66,-1858.89
8940,-3.8710,0.6012,0.3705,-1195.07,-201.90,1641.17
8950,-3.8707,0.5575,0.4198,961.18,-576.97,703.80
8960,-3.8706,0.5298,0.4430,-632.57,1735.41,1985.17
8970,-3.8706,0.5210,0.4298,-179.44,704.10,-1061.65
8980,-3.8707,0.5323,0.3910,-1304.44,-983.40,-1311.71
8990,-3.8710,0.5591,0.3561,148.68,-1952.09,-608.64
9000,-3.8711,0.5931,0.3462,-429.44,1579.16,31.92
9010,-3.8713,0.6261,0.3563,-70.07,313.60,-936.83
9020,-3.8713,0.6445,0.3760,148.68,1610.60,-1827.45
9030,-3.8712,0.6343,0.4038,-1491.94,126.22,781.98
9040,-3.8711,0.5963,0.4397,1195.56,-311.28,1156.98
9050,-3.8710,0.5469,0.4720,336.18,282.41,-1733.52
9060,-3.8708,0.5095,0.4800,-1991.94,422.91,-374.08
9070,-3.8707,0.5034,0.4584,1226.81,1438.48,-420.96
9080,-3.8706,0.5309,0.4250,445.56,-1327.15,203.98
9090,-3.8707,0.5765,0.4055,-38.82,-1592.77,-1827.33
9100,-3.8708,0.6155,0.4082,1804.93,-92.65,-202.39
9110,-3.8708,0.6265,0.4274,-1210.69,251.16,-577.33
9120,-3.8707,0.6039,0.4581,195.56,-1295.65,1844.54
9130,-3.8706,0.5576,0.4901,1304.93,-1358.22,1735.23
9140,-3.8705,0.5078,0.5125,-616.94,-1264.59,1172.79
9150,-3.8705,0.4735,0.5281,1008.06,1594.73,-514.65
9160,-3.8704,0.4570,0.5432,617.43,-405.33,1422.85
9170,-3.8704,0.4509,0.5544,-1491.94,1532.10,-686.46
9180,-3.8702,0.4469,0.5515,1726.81,-1030.40,672.91
9190,-3.8702,0.4366,0.5327,1211.18,-1405.40,657.29
9200,-3.8704,0.4209,0.5088,-101.32,188.29,-1061.46
9210,-3.8704,0.4060,0.4900,1883.06,1125.79,204.10
9220,-3.8705,0.3959,0.4824,-23.19,-1280.52,1782.17
9230,-3.8705,0.3914,0.4854,-1320.07,1750.73,563.42
9240,-3.8705,0.3877,0.4922,-1898.19,-1874.27,875.92
9250,-3.8705,0.3771,0.4991,1633.06,-999.27,-1795.96
9260,-3.8704,0.3551,0.5052,273.68,-108.64,16.54
9270,-3.8704,0.3246,0.5078,1461.18,672.55,-1920.90
9280,-3.8704,0.2949,0.5042,1554.93,1000.61,-436.52
9290,-3.8702,0.2704,0.4952,1758.06,531.80,219.73
9300,-3.8702,0.2474,0.4833,-1382.57,-608.89,625.92
9310,-3.8702,0.2219,0.4686,-320.07,1859.80,1016.54
9320,-3.8702,0.1920,0.4529,414.31,-15.20,1141.48
9330,-3.8702,0.1619,0.4379,586.18,1969.12,1250.85
9340,-3.8702,0.1384,0.4259,726.81,47.18,1360.23
9350,-3.8702,0.1241,0.4203,1726.81,-1484.13,1547.67
9360,-3.8702,0.1167,0.4238,-101.32,1797.06,-1780.46
9370,-3.8702,0.1111,0.4316,-1054.44,-1749.82,-561.71
9380,-3.8701,0.1041,0.4358,-1773.19,-749.82,844.54
9390,-3.8701,0.0963,0.4312,1336.18,-218.57,1438.29
9400,-3.8701,0.0853,0.4156,336.18,-812.32,391.42
9410,-3.8702,0.0687,0.3937,-1070.07,1203.25,1750.79
9420,-3.8704,0.0464,0.3729,804.93,-1609.25,-1561.77
9430,-3.8705,0.0190,0.3601,1945.56,-265.56,-311.83
9440,-3.8705,-0.0094,0.3549,-1554.44,-1906.25,-1936.83
9450,-3.8705,-0.0331,0.3503,-1195.07,1437.44,1203.80
9460,-3.8705,-0.0481,0.3412,-226.32,859.25,0.67
9470,-3.8706,-0.0557,0.3247,1851.81,-312.62,1594.36
9480,-3.8707,-0.0580,0.3063,883.06,1578.00,1969.36
9490,-3.8708,-0.0583,0.2915,586.18,-781.37,1828.67
9500,-3.8710,-0.0586,0.2772,539.31,1328.00,-1999.45
9510,-3.8711,-0.0594,0.2594,508.06,-500.12,-1202.64
9520,-3.8712,-0.0641,0.2363,398.68,1218.63,-468.26
9530,-3.8713,-0.0728,0.2104,-195.07,-1734.56,-124.57
9540,-3.8715,-0.0801,0.1864,-1304.44,-1047.06,-30.88
9550,-3.8715,-0.0847,0.1688,1758.06,-125.18,125.31
9560,-3.8716,-0.0883,0.1591,1164.31,1624.82,781.56
9570,-3.8717,-0.0916,0.1504,711.18,374.82,1937.81
9580,-3.8718,-0.0953,0.1359,289.31,-734.56,-734.13
9590,-3.8718,-0.0991,0.1135,-195.07,1406.01,578.37
9600,-3.8719,-0.1035,0.0901,-679.44,-1453.37,1922.06
9610,-3.8721,-0.1071,0.0725,-1241.94,-453.37,-765.50
9620,-3.8721,-0.1063,0.0563,-1695.07,1296.63,343.87
9630,-3.8722,-0.0994,0.0383,-1601.32,-781.49,1218.81
9640,-3.8723,-0.0917,0.0221,-710.69,921.63,-1859.31
9650,-3.8724,-0.0924,0.0107,273.68,-1156.43,-500.00
9660,-3.8724,-0.1011,0.0022,179.93,1390.44,1515.62
9670,-3.8724,-0.1088,-0.0101,-929.44,296.63,0.00
9680,-3.8726,-0.1049,-0.0292,-1913.82,-1281.49,-1484.44
9690,-3.8726,-0.0863,-0.0509,-1413.82,281.01,921.81
9700,-3.8727,-0.0592,-0.0679,961.18,1499.82,-343.87
9710,-3.8727,-0.0348,-0.0757,429.93,-672.00,-797.06
9720,-3.8727,-0.0253,-0.0720,-445.07,-1672.00,-281.43
9730,-3.8726,-0.0321,-0.0581,773.68,-1203.19,906.07
9740,-3.8726,-0.0442,-0.0432,-101.32,578.00,-1593.87
9750,-3.8726,-0.0481,-0.0383,-1648.19,-1515.75,-234.50
9760,-3.8724,-0.0369,-0.0463,1851.81,-890.75,703.00
9770,-3.8724,-0.0138,-0.0562,-710.69,-1906.37,1609.25
9780,-3.8724,0.0135,-0.0613,-1757.57,828.06,-1375.12
9790,-3.8724,0.0391,-0.0690,1742.43,156.25,-890.75
9800,-3.8724,0.0590,-0.0787,1008.06,-828.06,-875.18
9810,-3.8724,0.0715,-0.0822,-445.07,1921.94,-1093.93
9820,-3.8724,0.0829,-0.0817,1164.31,1484.50,1640.44
9830,-3.8726,0.1028,-0.0847,-1382.57,1547.00,-937.68
9840,-3.8726,0.1318,-0.0903,1164.31,1156.43,15.44
9850,-3.8727,0.1624,-0.0920,883.06,437.74,1343.57
9860,-3.8728,0.1864,-0.0862,789.31,219.06,-140.81
9870,-3.8727,0.2015,-0.0718,-132.57,969.06,234.19
9880,-3.8727,0.2129,-0.0547,1804.93,-1187.13,-1906.43
9890,-3.8727,0.2262,-0.0465,-741.94,1000.37,-250.12
9900,-3.8727,0.2448,-0.0500,961.18,-1952.70,-187.62
9910,-3.8727,0.2692,-0.0607,-663.82,1594.18,-1484.50
9920,-3.8727,0.3000,-0.0750,-1538.82,234.86,328.00
9930,-3.8728,0.3395,-0.0883,-1585.69,-1593.20,1499.82
9940,-3.8729,0.3846,-0.0939,-538.82,703.74,-1250.18
9950,-3.8729,0.4236,-0.0894,1242.43,-14.89,781.01
9960,-3.8729,0.4457,-0.0774,-1773.19,563.29,202.94
9970,-3.8729,0.4498,-0.0562,1054.93,-1905.40,1812.32
9980,-3.8728,0.4376,-0.0226,1586.18,813.35,-1718.87
9990,-3.8726,0.4143,0.0182,23.68,1110.23,828.06
10000,-3.8724,0.3932,0.0513,1039.31,-1671.08,-359.38
10010,-3.8722,0.3881,0.0657,-1663.82,-1436.77,546.94
10020,-3.8722,0.4044,0.0605,1679.93,406.98,1765.75
10030,-3.8723,0.4373,0.0393,-226.32,-249.27,-437.44
10040,-3.8724,0.4760,0.0131,-23.19,1032.04,-265.56
10050,-3.8726,0.5114,-0.0114,929.93,1672.79,-265.62
10060,-3.8726,0.5372,-0.0297,1461.18,-1452.15,843.69
10070,-3.8726,0.5468,-0.0242,773.68,204.16,609.31
10080,-3.8724,0.5356,0.0183,1992.43,907.29,156.19
10090,-3.8723,0.5171,0.0850,570.56,-1655.21,-1156.25
10100,-3.8721,0.5115,0.1501,-1804.44,-1124.02,-1140.50
10110,-3.8718,0.5278,0.1941,1476.81,-780.27,-1390.38
10120,-3.8717,0.5648,0.2007,-429.44,844.73,-968.38
10130,-3.8717,0.6155,0.1716,304.93,1688.60,-1749.63
10140,-3.8718,0.6627,0.1332,-1210.69,1969.91,-1343.44
10150,-3.8719,0.6876,0.1093,836.18,1048.16,-765.38
10160,-3.8719,0.6820,0.1113,23.68,1985.72,-1952.94
10170,-3.8718,0.6487,0.1470,-695.07,-1748.72,625.18
10180,-3.8717,0.6046,0.2048,-960.69,-1186.28,-1343.51
10190,-3.8715,0.5699,0.2583,1398.68,-1780.09,-1984.01
10200,-3.8712,0.5587,0.2961,961.18,1063.60,1125.49
10210,-3.8711,0.5684,0.3192,-476.32,1907.29,-1296.33
10220,-3.8710,0.5898,0.3235,758.06,860.47,1500.61
10230,-3.8710,0.6198,0.3135,-491.94,1407.35,1422.49
10240,-3.8711,0.6495,0.3040,-663.82,126.16,-733.76
10250,-3.8711,0.6741,0.3004,-851.32,-1092.53,328.67
10260,-3.8712,0.6925,0.3033,-1710.69,-1545.59,1578.67
10270,-3.8713,0.7039,0.3130,648.68,-1170.53,-655.70
10280,-3.8713,0.7067,0.3262,-1898.19,63.84,-1749.39
10290,-3.8713,0.7023,0.3434,-1538.82,1751.34,-983.76
10300,-3.8712,0.6910,0.3652,1898.68,-45.53,1406.86
10310,-3.8711,0.6754,0.3895,461.18,-1248.66,1266.30
10320,-3.8710,0.6619,0.4128,-1538.82,1860.66,1719.48
10330,-3.8708,0.6539,0.4315,726.81,845.03,797.67
10340,-3.8708,0.6516,0.4454,-288.82,-764.40,1625.79
10350,-3.8708,0.6531,0.4562,-585.69,1016.85,844.60
10360,-3.8710,0.6521,0.4622,-398.19,-1608.15,-796.02
10370,-3.8710,0.6385,0.4615,-523.19,-842.53,1750.85
10380,-3.8710,0.6110,0.4622,1742.43,-920.65,1578.98
10390,-3.8710,0.5782,0.4686,-1788.82,-842.59,-1389.77
10400,-3.8710,0.5541,0.4772,-1976.32,-14.53,-389.77
10410,-3.8710,0.5508,0.4847,-1070.07,1079.16,-45.96
10420,-3.8710,0.5715,0.4860,-1491.94,-1952.09,-374.08
10430,-3.8710,0.6099,0.4811,1164.31,-1795.78,-1014.71
10440,-3.8710,0.6454,0.4761,-1929.44,1579.28,-1514.71
10450,-3.8710,0.6567,0.4749,-1382.57,938.72,-1280.33
10460,-3.8710,0.6396,0.4786,70.56,782.53,-374.08
10470,-3.8708,0.6071,0.4882,1883.06,1266.85,938.42
10480,-3.8708,0.5740,0.5048,1711.18,-1514.47,-1420.96
10490,-3.8707,0.5465,0.5272,1476.81,610.47,204.10
10500,-3.8707,0.5262,0.5543,1961.18,-514.59,-1999.02
10510,-3.8706,0.5129,0.5813,-632.57,-1045.90,532.29
10520,-3.8706,0.5042,0.6005,1664.31,-1592.77,-170.78
10530,-3.8705,0.4955,0.6069,539.31,860.35,-983.22
10540,-3.8704,0.4828,0.6016,-570.07,1688.42,813.66
10550,-3.8704,0.4636,0.5867,1804.93,1000.92,626.16
10560,-3.8705,0.4410,0.5663,-648.19,-905.40,-1217.65
10570,-3.8705,0.4230,0.5488,461.18,485.23,94.85
10580,-3.8706,0.4126,0.5381,-1851.32,-1749.21,1688.54
10590,-3.8706,0.4055,0.5347,820.56,875.79,766.66
10600,-3.8706,0.3950,0.5387,-85.69,438.23,1610.41
10610,-3.8706,0.3784,0.5497,-1429.44,953.86,-186.46
10620,-3.8705,0.3575,0.5659,445.56,-1639.89,-764.59
10630,-3.8702,0.3300,0.5873,1773.68,438.17,141.72
10640,-3.8701,0.2914,0.6060,-1757.57,-827.51,1938.60
10650,-3.8700,0.2440,0.6058,1304.93,1563.05,-920.72
10660,-3.8699,0.1935,0.5802,-757.57,1547.30,1782.41
10670,-3.8699,0.1478,0.5337,773.68,-1734.01,1219.85
10680,-3.8700,0.1165,0.4811,-1070.07,312.74,-1733.34
10690,-3.8701,0.1031,0.4408,-1085.69,1578.31,-1342.83
10700,-3.8701,0.1040,0.4266,1211.18,422.06,157.10
10710,-3.8702,0.1094,0.4390,1320.56,-1390.44,-280.46
10720,-3.8701,0.1066,0.4636,-1991.94,187.68,1375.85
10730,-3.8700,0.0861,0.4913,1648.68,-656.07,469.60
10740,-3.8699,0.0481,0.5195,-976.32,-1109.25,250.92
10750,-3.8699,0.0033,0.5355,-1835.69,-1499.94,-561.52
10760,-3.8698,-0.0317,0.5238,429.93,546.88,297.91
10770,-3.8699,-0.0482,0.4851,-54.44,-937.62,1454.10
10780,-3.8701,-0.0492,0.4331,1836.18,-1890.75,-1108.46
10790,-3.8704,-0.0447,0.3849,1711.18,-547.00,-1514.83
10800,-3.8706,-0.0441,0.3547,-1710.69,1281.13,-1124.27
10810,-3.8707,-0.0525,0.3457,-1632.57,1421.75,1813.17
10820,-3.8708,-0.0699,0.3472,1289.31,265.50,-936.83
10830,-3.8708,-0.0905,0.3473,-945.07,452.94,1250.67
10840,-3.8710,-0.1084,0.3448,429.93,468.57,-827.45
10850,-3.8710,-0.1208,0.3392,-1866.94,156.01,516.30
10860,-3.8711,-0.1283,0.3235,539.31,-562.74,1500.61
10870,-3.8712,-0.1340,0.2941,-413.82,1421.57,1797.49
10880,-3.8713,-0.1405,0.2570,-1148.19,1655.94,922.42
10890,-3.8716,-0.1482,0.2240,-1976.32,905.94,-390.14
10900,-3.8717,-0.1543,0.2021,1039.31,687.19,-983.95
10910,-3.8718,-0.1565,0.1873,258.06,1890.32,-734.01
10920,-3.8719,-0.1522,0.1719,-23.19,-15.99,-187.19
10930,-3.8719,-0.1410,0.1527,523.68,-1984.68,515.93
10940,-3.8721,-0.1321,0.1315,1961.18,-437.81,1406.49
10950,-3.8722,-0.1364,0.1082,-898.19,843.44,-1484.13
10960,-3.8722,-0.1561,0.0834,-1445.07,1859.07,140.81
10970,-3.8723,-0.1875,0.0579,23.68,-1312.81,-1406.13
10980,-3.8723,-0.2234,0.0327,8.06,-578.49,1500.06
10990,-3.8723,-0.2517,0.0122,-585.69,202.64,250.06
11000,-3.8724,-0.2593,-0.0001,-210.69,1577.58,-1406.25
11010,-3.8724,-0.2416,-0.0120,-1179.44,-0.55,124.94
11020,-3.8726,-0.2029,-0.0294,1086.18,-1516.11,1046.81
11030,-3.8727,-0.1573,-0.0443,-1960.69,249.57,-1875.06
11040,-3.8727,-0.1241,-0.0477,-132.57,-1656.62,234.25
11050,-3.8727,-0.1136,-0.0378,117.43,1906.01,265.50
11060,-3.8727,-0.1208,-0.0200,1461.18,-828.37,-1718.87
11070,-3.8726,-0.1337,-0.0062,539.31,1452.88,1781.19
11080,-3.8724,-0.1390,-0.0100,-1101.32,-781.56,1328.06
11090,-3.8724,-0.1292,-0.0331,-1788.82,-1265.93,-1078.19
11100,-3.8724,-0.1052,-0.0592,-523.19,-219.06,1953.00
11110,-3.8726,-0.0757,-0.0723,-1460.69,437.26,-328.25
11120,-3.8726,-0.0488,-0.0730,-1679.44,-1234.56,1093.57
11130,-3.8727,-0.0260,-0.0763,1758.06,-1328.25,-1656.43
11140,-3.8728,-0.0088,-0.0906,679.93,-1750.06,-250.18
11150,-3.8728,-0.0023,-0.1068,-1116.94,421.81,1343.57
11160,-3.8729,-0.0090,-0.1152,-288.82,-1656.31,-984.62
11170,-3.8729,-0.0178,-0.1130,-1148.19,1265.56,1327.88
11180,-3.8729,-0.0115,-0.1013,1726.81,1546.81,562.26
11190,-3.8729,0.0134,-0.0863,-1460.69,-953.19,718.51
11200,-3.8729,0.0483,-0.0729,1726.81,953.12,1765.44
11210,-3.8729,0.0857,-0.0641,-1804.44,-1328.06,-1109.56
11220,-3.8729,0.1256,-0.0692,-1023.19,-203.00,-656.43
11230,-3.8729,0.1633,-0.0916,86.18,-859.13,-890.81
11240,-3.8729,0.1854,-0.1208,914.31,281.56,1765.44
11250,-3.8730,0.1863,-0.1484,-257.57,531.56,-1375.24
11260,-3.8732,0.1726,-0.1649,-148.19,1000.31,-890.93
11270,-3.8732,0.1571,-0.1605,-1898.19,-1109.07,1452.76
11280,-3.8732,0.1534,-0.1318,117.43,-546.57,-1640.99
11290,-3.8730,0.1710,-0.0809,-351.32,-874.76,1921.57
11300,-3.8729,0.2062,-0.0186,1898.68,1640.93,-78.31
11310,-3.8727,0.2495,0.0391,-1601.32,1625.37,-546.94
11320,-3.8724,0.2902,0.0806,-54.44,1000.43,-1156.19
11330,-3.8722,0.3158,0.1019,1148.68,-1686.95,437.62
11340,-3.8722,0.3228,0.1039,429.93,1047.49,-281.07
11350,-3.8721,0.3206,0.0901,1320.56,1297.49,765.81
11360,-3.8722,0.3291,0.0653,1039.31,-468.14,-906.13
11370,-3.8723,0.3611,0.0382,-1866.94,359.99,-687.38
11380,-3.8724,0.4037,0.0211,-1773.19,891.30,-468.69
11390,-3.8724,0.4323,0.0269,-320.07,-1296.14,-1953.12
11400,-3.8723,0.4319,0.0645,-663.82,-561.71,453.12
11410,-3.8722,0.4075,0.1268,-710.69,250.79,-968.63
11420,-3.8718,0.3768,0.1906,164.31,235.17,906.49
11430,-3.8716,0.3542,0.2310,242.43,391.36,-249.63
11440,-3.8712,0.3446,0.2432,1351.81,1563.17,578.55
11450,-3.8711,0.3499,0.2468,117.43,-874.33,-1562.07
11460,-3.8710,0.3656,0.2490,789.31,-405.58,1875.43
11470,-3.8710,0.3866,0.2367,-1195.07,-124.33,-796.45
11480,-3.8710,0.4047,0.2028,1492.43,-1702.39,1672.30
11490,-3.8711,0.4077,0.1595,-195.07,1953.86,1281.62
11500,-3.8712,0.3934,0.1326,195.56,422.67,187.81
11510,-3.8713,0.3691,0.1361,-1632.57,969.48,953.37
11520,-3.8713,0.3457,0.1660,-741.94,1422.55,1187.74
11530,-3.8712,0.3325,0.2135,258.06,1250.67,1234.68
11540,-3.8710,0.3236,0.2726,-1429.44,-671.26,500.37
11550,-3.8707,0.3062,0.3340,1429.93,-1108.76,-1843.26
11560,-3.8704,0.2850,0.3790,-804.44,-1249.45,406.86
11570,-3.8702,0.2780,0.3884,492.43,516.17,-374.27
11580,-3.8701,0.2921,0.3645,-413.82,1719.24,1281.98
11590,-3.8702,0.3164,0.3324,1398.68,-1343.20,-1889.95
11600,-3.8704,0.3372,0.3102,508.06,-1452.51,0.61
11610,-3.8706,0.3469,0.3013,-835.69,-296.26,1719.30
11620,-3.8707,0.3403,0.3079,414.31,-1436.83,-1561.95
11630,-3.8707,0.3154,0.3298,-429.44,-593.14,-671.33
11640,-3.8705,0.2758,0.3687,383.06,-1780.64,172.49
11650,-3.8704,0.2250,0.4181,-695.07,-812.01,-171.20
11660,-3.8700,0.1752,0.4661,804.93,1516.05,532.04
11670,-3.8698,0.1447,0.5018,-1570.07,-343.44,360.23
11680,-3.8696,0.1396,0.5089,-1476.32,234.62,1047.85
11690,-3.8696,0.1550,0.4811,1883.06,1140.87,922.85
11700,-3.8698,0.1757,0.4388,-148.19,1578.37,250.92
11710,-3.8700,0.1893,0.4061,-1507.57,172.18,907.10
11720,-3.8702,0.1990,0.3904,242.43,-15.26,1047.61
11730,-3.8705,0.2131,0.3956,1476.81,1969.12,-733.64
11740,-3.8705,0.2260,0.4270,-710.69,-1359.01,1281.98
11750,-3.8705,0.2220,0.4834,929.93,-1343.32,-514.83
11760,-3.8702,0.1970,0.5463,429.93,1875.43,1000.92
11770,-3.8701,0.1641,0.5858,1226.81,1922.24,-764.59
11780,-3.8700,0.1400,0.5837,1008.06,-1015.32,-717.65
11790,-3.8700,0.1339,0.5472,1929.93,-1281.01,-1139.53
11800,-3.8701,0.1455,0.5044,1148.68,-1952.88,-1530.21
11810,-3.8702,0.1624,0.4827,-1366.94,562.74,1610.35
11820,-3.8704,0.1689,0.4922,789.31,1781.56,-655.33
11830,-3.8702,0.1586,0.5256,1633.06,-999.69,500.92
11840,-3.8702,0.1331,0.5642,304.93,-718.44,-405.27
11850,-3.8701,0.0964,0.5970,1039.31,218.99,-248.90
11860,-3.8699,0.0490,0.6282,351.81,422.06,1673.03
11870,-3.8696,-0.0072,0.6542,-1726.32,406.31,579.35
11880,-3.8695,-0.0623,0.6635,-913.82,-250.06,-1326.90
11890,-3.8694,-0.1040,0.6494,39.31,937.38,-1842.47
11900,-3.8694,-0.1277,0.6167,-1304.44,-859.62,1876.22
11910,-3.8695,-0.1365,0.5786,-335.69,-1047.18,-1920.72
11920,-3.8696,-0.1340,0.5493,-1460.69,-1922.18,719.85
11930,-3.8698,-0.1263,0.5359,-1148.19,-1672.18,297.91
11940,-3.8699,-0.1244,0.5321,-163.82,609.07,1672.91
11950,-3.8699,-0.1377,0.5300,86.18,124.76,579.16
11960,-3.8699,-0.1619,0.5306,-1616.94,-140.93,297.85
11970,-3.8699,-0.1807,0.5365,-710.69,-62.87,360.35
11980,-3.8699,-0.1827,0.5439,883.06,687.13,797.91
11990,-3.8699,-0.1737,0.5404,617.43,1640.26,1126.04
12000,-3.8699,-0.1716,0.5231,1773.68,1187.13,704.16
12010,-3.8700,-0.1904,0.5020,-1960.69,-1031.62,-858.40
12020,-3.8700,-0.2264,0.4830,-366.94,265.20,485.35
12030,-3.8701,-0.2595,0.4659,-976.32,1843.26,1563.42
12040,-3.8702,-0.2714,0.4540,-1210.69,-344.30,-780.40
12050,-3.8702,-0.2604,0.4517,1273.68,-1875.55,1485.23
12060,-3.8702,-0.2362,0.4529,-1320.07,1827.58,94.60
12070,-3.8704,-0.2141,0.4479,1773.68,1983.89,-1327.27
12080,-3.8704,-0.2080,0.4297,601.81,1343.32,532.10
12090,-3.8705,-0.2228,0.3988,1383.06,-984.80,1407.04
12100,-3.8706,-0.2511,0.3619,-507.57,-937.99,1703.86
12110,-3.8707,-0.2816,0.3237,-132.57,-1656.80,1703.80
12120,-3.8708,-0.3058,0.2887,-38.82,1452.51,1750.61
12130,-3.8710,-0.3163,0.2645,867.43,968.14,-1671.33
12140,-3.8711,-0.3079,0.2550,-476.32,1874.33,-265.14
12150,-3.8711,-0.2833,0.2598,601.81,655.64,-1937.01
12160,-3.8711,-0.2590,0.2745,-257.57,1265.01,1609.86
12170,-3.8711,-0.2524,0.2845,-1148.19,-844.30,1953.61
12180,-3.8711,-0.2661,0.2759,-304.44,436.95,-1952.58
12190,-3.8711,-0.2881,0.2472,1945.56,-672.42,703.61
12200,-3.8712,-0.3015,0.2101,-866.94,-344.36,1156.68
12210,-3.8715,-0.2955,0.1743,1414.31,-1094.36,-296.51
12220,-3.8716,-0.2687,0.1448,-1820.07,-1672.49,1281.56
12230,-3.8718,-0.2319,0.1284,1617.43,-1453.67,-796.63
12240,-3.8719,-0.2025,0.1238,-1679.44,452.64,-1421.63
12250,-3.8721,-0.1919,0.1212,-1913.82,-141.05,-499.82
12260,-3.8721,-0.2030,0.1163,-554.44,-469.18,1843.93
12270,-3.8721,-0.2286,0.1113,-1976.32,-1094.18,1203.31
12280,-3.8721,-0.2522,0.1044,-1257.57,-1734.86,250.18
12290,-3.8722,-0.2589,0.0963,-273.19,1374.45,1953.31
12300,-3.8723,-0.2467,0.0907,-1132.57,343.20,-1843.57
12310,-3.8724,-0.2225,0.0835,429.93,-375.49,1484.50
12320,-3.8726,-0.1937,0.0715,-476.32,-1297.36,765.75
12330,-3.8727,-0.1653,0.0573,-788.82,1171.45,390.75
12340,-3.8728,-0.1399,0.0448,-1148.19,-656.62,984.44
12350,-3.8729,-0.1204,0.0354,-1898.19,1749.69,-1156.19
12360,-3.8729,-0.1074,0.0264,601.81,546.63,1281.31
12370,-3.8730,-0.0988,0.0161,-1741.94,-609.62,-437.50
12380,-3.8730,-0.0933,0.0071,-632.57,-1922.12,1484.38
12390,-3.8732,-0.0900,0.0015,70.56,921.69,-250.00
12400,-3.8732,-0.0862,-0.0015,492.43,202.94,-984.38
12410,-3.8732,-0.0786,-0.0033,976.81,-172.06,-828.19
12420,-3.8732,-0.0670,-0.0089,1945.56,-406.43,-328.19
12430,-3.8730,-0.0533,-0.0225,-570.07,-1125.18,15.56
12440,-3.8730,-0.0339,-0.0400,1179.93,1140.50,234.31
12450,-3.8730,-0.0076,-0.0536,-335.69,-1109.50,421.75
12460,-3.8730,0.0178,-0.0565,-960.69,1156.19,281.13
12470,-3.8732,0.0345,-0.0524,-1710.69,765.62,-328.25
12480,-3.8732,0.0415,-0.0475,429.93,1296.94,-1281.37
12490,-3.8732,0.0447,-0.0446,1320.56,1921.94,1328.00
12500,-3.8732,0.0544,-0.0416,1726.81,-1703.06,359.25
12510,-3.8732,0.0778,-0.0305,-1023.19,-1328.06,1296.75
12520,-3.8732,0.1078,-0.0140,1961.18,93.87,-109.44
12530,-3.8730,0.1379,-0.0044,1804.93,-1796.69,-1546.94
12540,-3.8730,0.1703,-0.0106,1664.31,-562.26,-640.69
12550,-3.8730,0.2073,-0.0281,1804.93,-1359.07,-1359.44
12560,-3.8730,0.2426,-0.0447,-1460.69,406.62,1140.56
12570,-3.8732,0.2698,-0.0522,-945.07,-1718.32,-515.75
12580,-3.8732,0.2919,-0.0475,-1460.69,1312.99,-1312.62
12590,-3.8732,0.3093,-0.0337,1367.43,1922.42,-437.62
12600,-3.8730,0.3195,-0.0114,-398.19,-311.95,1906.13
12610,-3.8729,0.3259,0.0205,898.68,-1452.51,1312.44
12620,-3.8728,0.3390,0.0565,1726.81,-1374.39,1968.75
12630,-3.8727,0.3678,0.0865,-601.32,-765.01,-578.06
12640,-3.8724,0.4109,0.1034,-913.82,-921.20,297.00
12650,-3.8724,0.4623,0.1066,601.81,1235.17,-234.19
12660,-3.8723,0.5157,0.0997,-820.07,1641.48,1312.68
12670,-3.8723,0.5653,0.0942,-1976.32,766.60,1547.06
12680,-3.8723,0.6090,0.0995,367.43,63.60,-1952.94
12690,-3.8723,0.6436,0.1138,1961.18,735.53,-140.44
12700,-3.8722,0.6577,0.1381,-1616.94,-1436.28,-468.57
12710,-3.8719,0.6368,0.1696,195.56,1673.16,1156.49
12720,-3.8718,0.5862,0.1871,1523.68,1704.35,-296.57
12730,-3.8716,0.5383,0.1791,-960.69,-45.78,1140.93
12740,-3.8716,0.5281,0.1583,914.31,-1077.09,-374.69
12750,-3.8716,0.5635,0.1394,-398.19,266.60,-796.57
12760,-3.8716,0.6194,0.1321,133.06,1844.85,-1765.38
12770,-3.8716,0.6630,0.1443,-710.69,907.41,-921.63
12780,-3.8715,0.6815,0.1780,867.43,-1529.97,1922.12
12790,-3.8713,0.6764,0.2249,-757.57,-1217.47,1953.43
12800,-3.8712,0.6550,0.2712,-1413.82,782.53,-1046.45
12810,-3.8710,0.6260,0.3112,-148.19,-1280.03,875.49
12820,-3.8708,0.5898,0.3428,133.06,-170.65,-280.70
12830,-3.8706,0.5547,0.3507,-491.94,-123.90,1344.36
12840,-3.8706,0.5413,0.3256,-991.94,891.66,-1186.83
12850,-3.8706,0.5649,0.2870,1289.31,1672.91,328.74
12860,-3.8707,0.6149,0.2628,320.56,735.47,375.55
12870,-3.8708,0.6628,0.2655,-1288.82,1641.78,969.24
12880,-3.8710,0.6893,0.2871,851.81,1985.66,-796.39
12890,-3.8710,0.6880,0.3149,242.43,751.34,-577.58
12900,-3.8708,0.6664,0.3486,70.56,313.84,984.99
12910,-3.8707,0.6340,0.3917,1304.93,626.28,47.55
12920,-3.8706,0.5955,0.4315,1164.31,-1858.15,1156.98
12930,-3.8705,0.5576,0.4475,226.81,-764.47,-1124.21
12940,-3.8704,0.5292,0.4420,-616.94,1282.29,-1155.40
12950,-3.8704,0.5175,0.4268,-257.57,579.10,-561.65
12960,-3.8704,0.5227,0.4059,-1757.57,-1374.02,907.04
12970,-3.8705,0.5370,0.3870,-1085.69,-45.90,1000.73
12980,-3.8706,0.5499,0.3837,742.43,1532.29,1688.23
12990,-3.8706,0.5544,0.4031,-1601.32,1110.41,438.23
13000,-3.8706,0.5483,0.4425,-1023.19,-405.21,1750.73
13010,-3.8705,0.5371,0.4875,-1804.44,641.66,1188.35
13020,-3.8704,0.5314,0.5234,758.06,-1592.71,1454.04
13030,-3.8702,0.5348,0.5472,23.68,-998.96,1172.85
13040,-3.8702,0.5393,0.5560,461.18,-1952.09,-452.09
13050,-3.8701,0.5355,0.5483,1039.31,-827.09,688.54
13060,-3.8701,0.5166,0.5319,554.93,-1811.46,782.29
13070,-3.8702,0.4841,0.5165,-1866.94,79.10,-92.71
13080,-3.8702,0.4487,0.5092,1976.81,-1889.71,-1139.65
13090,-3.8702,0.4169,0.5112,1445.56,1172.73,-1686.52
13100,-3.8702,0.3920,0.5192,1367.43,1438.29,-1655.27
13110,-3.8702,0.3767,0.5342,-1820.07,-1546.14,-842.77
13120,-3.8701,0.3698,0.5574,226.81,375.73,891.66
13130,-3.8701,0.3658,0.5835,-663.82,-655.58,-530.21
13140,-3.8700,0.3561,0.6053,-1163.82,-1311.83,-1530.15
13150,-3.8699,0.3368,0.6165,1586.18,1485.05,766.78
13160,-3.8699,0.3132,0.6140,-882.57,-1093.14,1094.91
13170,-3.8700,0.2905,0.5984,101.81,-1405.64,-905.09
13180,-3.8701,0.2715,0.5759,1195.56,594.30,-717.59
13190,-3.8702,0.2570,0.5564,-1241.94,1719.24,-952.03
13200,-3.8704,0.2435,0.5448,898.68,-780.76,-14.59
13210,-3.8704,0.2262,0.5385,-820.07,1734.80,-1561.46
13220,-3.8704,0.2040,0.5321,961.18,922.30,1751.04
13230,-3.8704,0.1777,0.5293,-1882.57,109.74,1501.04
13240,-3.8704,0.1519,0.5369,-1241.94,-249.69,-1936.52
13250,-3.8704,0.1334,0.5521,-554.44,718.99,-123.96
13260,-3.8702,0.1200,0.5657,1086.18,-1327.88,-1139.59
13270,-3.8701,0.0995,0.5673,-632.57,406.43,-1889.53
13280,-3.8700,0.0618,0.5510,742.43,609.56,454.22
13290,-3.8700,0.0028,0.5231,-85.69,-1468.69,1266.66
13300,-3.8700,-0.0723,0.4958,367.43,-1046.88,1063.48
13310,-3.8700,-0.1497,0.4756,-1241.94,-515.81,688.42
13320,-3.8701,-0.2137,0.4585,851.81,890.32,-217.83
13330,-3.8701,-0.2533,0.4375,648.68,-1297.30,1657.10
13340,-3.8702,-0.2661,0.4131,-413.82,15.08,-1702.27
13350,-3.8704,-0.2582,0.3900,1945.56,890.08,-1983.58
13360,-3.8705,-0.2377,0.3718,-1038.82,1936.95,1375.73
13370,-3.8706,-0.2115,0.3623,1586.18,-391.11,1297.55
13380,-3.8707,-0.1892,0.3593,929.93,-1609.80,-1827.45
13390,-3.8708,-0.1816,0.3549,-210.69,1999.57,-452.45
13400,-3.8708,-0.1903,0.3463,758.06,1437.13,844.42
13410,-3.8710,-0.2062,0.3330,-351.32,343.32,1656.92
13420,-3.8711,-0.2229,0.3141,1617.43,-1359.80,-1921.26
13430,-3.8712,-0.2362,0.2926,-523.19,218.26,-1983.76
13440,-3.8713,-0.2407,0.2646,1773.68,1468.26,1188.05
13450,-3.8716,-0.2324,0.2280,1195.56,1890.14,-358.89
13460,-3.8717,-0.2163,0.1886,-1741.94,1202.64,1953.55
13470,-3.8718,-0.2036,0.1515,320.56,155.82,844.12
13480,-3.8719,-0.1984,0.1222,1945.56,-594.18,906.49
13490,-3.8721,-0.1989,0.1040,-1382.57,-344.18,-1562.32
13500,-3.8721,-0.2057,0.0958,-1445.07,1327.70,1218.93
13510,-3.8721,-0.2212,0.0911,1679.93,280.82,1078.31
13520,-3.8721,-0.2437,0.0829,-304.44,-328.61,1562.62
13530,-3.8721,-0.2649,0.0713,820.56,-1375.49,-1781.13
13540,-3.8721,-0.2756,0.0592,-1898.19,1140.08,-1499.88
13550,-3.8721,-0.2739,0.0461,726.81,-406.80,1734.44
13560,-3.8721,-0.2612,0.0298,945.56,1921.33,250.06
13570,-3.8722,-0.2402,0.0122,-1429.44,-172.42,-890.62
13580,-3.8722,-0.2190,0.0015,1258.06,1577.64,-1203.12
13590,-3.8722,-0.2074,0.0034,-23.19,202.64,-781.25
13600,-3.8721,-0.2024,0.0188,1461.18,452.70,484.38
13610,-3.8721,-0.1982,0.0452,-1898.19,-1578.55,-1093.75
13620,-3.8719,-0.1914,0.0730,-1366.94,1796.45,-1937.44
13630,-3.8718,-0.1790,0.0879,-491.94,1358.95,172.00
13640,-3.8719,-0.1598,0.0806,1101.81,-734.74,-593.63
13650,-3.8721,-0.1322,0.0509,-445.07,-1672.24,-765.50
13660,-3.8722,-0.0962,0.0100,-913.82,-1469.06,1296.94
13670,-3.8724,-0.0535,-0.0264,-304.44,1296.63,-343.75
13680,-3.8726,-0.0093,-0.0482,1164.31,640.50,-968.81
13690,-3.8726,0.0294,-0.0490,-1179.44,1843.69,31.13
13700,-3.8727,0.0560,-0.0304,-226.32,1734.38,-1031.37
13710,-3.8727,0.0670,-0.0054,-820.07,109.44,-578.19
13720,-3.8726,0.0659,0.0139,586.18,-687.38,624.94
13730,-3.8726,0.0602,0.0201,445.56,1781.37,1765.62
13740,-3.8726,0.0560,0.0105,-288.82,-1421.81,1953.12
13750,-3.8726,0.0635,-0.0111,-820.07,1343.81,312.50
13760,-3.8727,0.0912,-0.0341,133.06,-1421.75,968.69
13770,-3.8728,0.1378,-0.0526,-320.07,-359.25,296.75
13780,-3.8730,0.1979,-0.0721,1648.68,1265.87,-797.00
13790,-3.8732,0.2581,-0.0940,1336.18,-1234.01,-906.43
13800,-3.8732,0.3007,-0.1118,1039.31,-30.76,343.51
13810,-3.8733,0.3146,-0.1217,-1507.57,1688.05,-1250.24
13820,-3.8733,0.3027,-0.1244,273.68,422.49,-1906.49
13830,-3.8733,0.2825,-0.1201,-1241.94,78.67,-1578.37
13840,-3.8732,0.2749,-0.1067,164.31,625.55,15.38
13850,-3.8732,0.2905,-0.0862,-804.44,-1655.76,-1062.74
13860,-3.8730,0.3241,-0.0620,1195.56,969.30,-1250.18
13870,-3.8729,0.3638,-0.0369,1492.43,63.11,-1203.25
13880,-3.8728,0.4015,-0.0226,-1429.44,-718.08,1656.13
13890,-3.8728,0.4303,-0.0289,-601.32,1110.11,-1281.31
13900,-3.8728,0.4446,-0.0486,-913.82,297.67,-1234.44
13910,-3.8728,0.4414,-0.0673,914.31,1782.10,-1797.00
13920,-3.8728,0.4247,-0.0677,508.06,-608.52,1999.82
13930,-3.8727,0.4041,-0.0389,-1632.57,-671.08,93.57
13940,-3.8726,0.3903,0.0127,-273.19,-983.64,1609.25
13950,-3.8723,0.3921,0.0673,1961.18,1625.73,1500.00
13960,-3.8721,0.4139,0.1033,-1804.44,610.11,843.87
13970,-3.8719,0.4553,0.1135,992.43,1219.54,687.68
13980,-3.8719,0.5074,0.1021,-1710.69,-1467.90,468.93
13990,-3.8721,0.5576,0.0811,961.18,1063.48,1422.06
14000,-3.8722,0.5992,0.0591,-616.94,-1623.96,562.62
14010,-3.8724,0.6299,0.0349,711.18,-436.34,-640.56
14020,-3.8726,0.6462,0.0177,633.06,469.97,-374.94
14030,-3.8726,0.6421,0.0276,-1273.19,-1733.15,-625.00
14040,-3.8723,0.6105,0.0735,-1804.44,-467.53,171.88
14050,-3.8721,0.5599,0.1399,-1851.32,1407.41,640.75
14060,-3.8718,0.5176,0.1967,-320.07,1907.29,1328.37
14070,-3.8717,0.5117,0.2209,-1741.94,1172.85,-655.88
14080,-3.8716,0.5491,0.2108,1508.06,282.23,1297.30
14090,-3.8717,0.6099,0.1791,-1710.69,-1014.59,-327.76
14100,-3.8717,0.6624,0.1436,-1929.44,-1076.97,94.06
14110,-3.8718,0.6892,0.1177,789.31,-1623.72,672.12
14120,-3.8719,0.6868,0.1176,226.81,-936.16,-421.69
14130,-3.8718,0.6520,0.1577,-85.69,-951.84,-1327.94
14140,-3.8716,0.5884,0.2388,-538.82,188.72,-1859.07
14150,-3.8712,0.5167,0.3398,-679.44,-1436.40,1594.18
14160,-3.8708,0.4688,0.4180,-1851.32,-499.02,-390.01
14170,-3.8705,0.4673,0.4303,8.06,1500.92,-1421.08
14180,-3.8704,0.5160,0.3708,-179.44,-921.02,563.29
14190,-3.8706,0.5908,0.2814,-1945.07,-530.27,1969.42
14200,-3.8710,0.6559,0.2068,-366.94,16.72,-561.95
14210,-3.8712,0.6863,0.1711,-38.82,-1530.03,1797.24
14220,-3.8713,0.6738,0.1781,-148.19,1907.53,62.81
14230,-3.8715,0.6252,0.2156,-1741.94,-1201.84,1969.06
14240,-3.8715,0.5675,0.2767,39.31,-405.03,-1374.63
14250,-3.8713,0.5436,0.3589,648.68,-577.03,1500.49
14260,-3.8712,0.5769,0.4539,1586.18,1938.54,-1046.20
14270,-3.8710,0.6434,0.5393,1851.81,-1905.15,-1499.15
14280,-3.8707,0.7046,0.5830,-1632.57,1032.47,641.66
14290,-3.8707,0.7449,0.5731,-1804.44,-1373.66,-1545.78
14300,-3.8707,0.7635,0.5264,-648.19,1360.78,297.97
14310,-3.8710,0.7551,0.4698,1742.43,-623.54,-30.27
14320,-3.8711,0.7166,0.4329,664.31,142.09,-92.83
14330,-3.8711,0.6478,0.4324,-273.19,-592.41,1641.42
14340,-3.8711,0.5635,0.4597,-1070.07,-655.03,1860.17
14350,-3.8710,0.4994,0.4955,133.06,-1155.15,797.73
14360,-3.8708,0.4784,0.5289,-70.07,-577.21,657.17
14370,-3.8707,0.4971,0.5601,1242.43,-295.96,32.23
14380,-3.8707,0.5365,0.5845,-366.94,-311.58,-1327.09
14390,-3.8706,0.5730,0.5933,679.93,-1186.46,266.72
14400,-3.8706,0.5863,0.5906,1351.81,-61.40,1126.10
14410,-3.8706,0.5681,0.5909,-945.07,-405.15,-1936.40
14420,-3.8706,0.5240,0.5996,726.81,-358.28,-514.53
14430,-3.8705,0.4652,0.6052,-913.82,750.98,923.03
14440,-3.8705,0.4069,0.5957,-445.07,1469.60,1063.66
14450,-3.8706,0.3622,0.5756,86.18,250.79,-45.72
14460,-3.8706,0.3317,0.5649,-1632.57,1672.55,-827.03
14470,-3.8705,0.3132,0.5737,-1538.82,313.11,313.60
14480,-3.8705,0.3059,0.5911,101.81,1438.11,-61.40
14490,-3.8702,0.3049,0.6049,-835.69,-343.20,907.35
14500,-3.8701,0.3022,0.6084,-960.69,1422.42,1329.28
14510,-3.8700,0.2913,0.6052,-1304.44,1875.55,813.66
14520,-3.8699,0.2689,0.6069,1289.31,1469.30,735.53
14530,-3.8698,0.2334,0.6194,-1570.07,1687.99,1641.78
14540,-3.8696,0.1869,0.6403,1883.06,-718.32,-1233.22
14550,-3.8695,0.1396,0.6577,-70.07,1953.43,-1217.53
14560,-3.8694,0.1040,0.6573,1883.06,187.74,313.78
14570,-3.8695,0.0842,0.6331,1320.56,140.81,-1248.72
14580,-3.8696,0.0745,0.5958,-1210.69,1031.37,-983.15
14590,-3.8698,0.0659,0.5669,1539.31,265.75,-795.72
14600,-3.8698,0.0524,0.5583,445.56,562.62,672.97
14610,-3.8699,0.0360,0.5658,-1288.82,-531.19,-733.34
14620,-3.8699,0.0260,0.5835,617.43,421.94,-1936.40
14630,-3.8699,0.0234,0.6100,-663.82,-1312.50,1110.47
14640,-3.8699,0.0167,0.6372,-991.94,-1921.88,1282.41
14650,-3.8699,-0.0021,0.6471,-1851.32,1562.50,-1561.28
14660,-3.8699,-0.0304,0.6279,-257.57,-1156.31,-842.53
14670,-3.8699,-0.0625,0.5859,117.43,390.56,-1967.53
14680,-3.8700,-0.0958,0.5394,8.06,-984.50,-1092.65
14690,-3.8701,-0.1337,0.5049,-257.57,1062.26,-1092.71
14700,-3.8702,-0.1772,0.4858,-1101.32,640.32,-874.02
14710,-3.8704,-0.2192,0.4742,1320.56,-1797.24,-514.71
14720,-3.8705,-0.2554,0.4556,-54.44,718.26,-1014.71
14730,-3.8706,-0.2822,0.4233,-679.44,-1672.42,1407.10
14740,-3.8708,-0.2970,0.3883,-116.94,-1797.49,-249.21
14750,-3.8710,-0.3043,0.3662,1992.43,1718.14,-874.27
14760,-3.8710,-0.3057,0.3606,1054.93,-1109.99,125.67
14770,-3.8711,-0.2979,0.3578,883.06,-1828.74,-1546.20
14780,-3.8711,-0.2831,0.3416,1883.06,1811.89,563.17
14790,-3.8712,-0.2682,0.3101,-226.32,-266.24,1391.24
14800,-3.8713,-0.2581,0.2737,1679.93,-297.42,734.92
14810,-3.8716,-0.2546,0.2448,-1023.19,-953.67,-749.51
14820,-3.8717,-0.2599,0.2286,-585.69,-656.80,-1765.20
14830,-3.8718,-0.2728,0.2189,-1257.57,1280.70,-1608.95
14840,-3.8719,-0.2849,0.2061,1086.18,30.70,-437.07
14850,-3.8719,-0.2889,0.1875,-460.69,-1609.99,1453.49
14860,-3.8719,-0.2821,0.1683,-976.32,15.01,0.37
14870,-3.8721,-0.2654,0.1506,-101.32,1561.89,-1343.44
14880,-3.8721,-0.2451,0.1310,-1960.69,-703.67,656.49
14890,-3.8722,-0.2252,0.1080,633.06,780.76,1781.49
14900,-3.8723,-0.2065,0.0856,-820.07,1843.26,-1765.44
14910,-3.8724,-0.1926,0.0664,1570.56,-1031.68,-1578.00
14920,-3.8726,-0.1858,0.0530,-648.19,515.20,-1093.63
14930,-3.8726,-0.1841,0.0431,226.81,-1203.49,250.06
14940,-3.8727,-0.1827,0.0317,445.56,1530.88,-1453.06
14950,-3.8727,-0.1779,0.0197,617.43,77.76,1250.06
14960,-3.8728,-0.1711,0.0146,1242.43,-1469.12,-109.38
14970,-3.8728,-0.1635,0.0211,-1898.19,1890.26,-1546.88
14980,-3.8728,-0.1500,0.0303,-913.82,-1281.62,859.38
14990,-3.8729,-0.1250,0.0323,804.93,-109.68,-1015.62
15000,-3.8729,-0.0857,0.0264,8.06,156.01,765.69
15010,-3.8730,-0.0359,0.0151,1039.31,-609.56,-1593.75
15020,-3.8730,0.0168,0.0043,-585.69,1953.00,468.75
15030,-3.8732,0.0643,0.0032,-1835.69,546.88,-671.88
15040,-3.8732,0.0968,0.0153,242.43,406.37,-937.50
15050,-3.8732,0.1069,0.0322,398.68,1953.31,-203.12
15060,-3.8730,0.0961,0.0403,1695.56,125.18,953.19
15070,-3.8730,0.0752,0.0342,304.93,1156.43,1593.81
15080,-3.8730,0.0631,0.0192,1633.06,375.12,1625.06
15090,-3.8730,0.0725,-0.0007,86.18,-1546.75,906.25
15100,-3.8732,0.1002,-0.0232,1289.31,-93.63,-890.69
15110,-3.8732,0.1396,-0.0452,836.18,1031.43,484.31
15120,-3.8733,0.1868,-0.0668,1883.06,-1781.01,1781.13
15130,-3.8734,0.2362,-0.0872,-85.69,-546.57,-625.18
15140,-3.8734,0.2827,-0.1021,-1757.57,844.18,1374.82
15150,-3.8734,0.3224,-0.1057,195.56,-1061.95,515.38
15160,-3.8734,0.3478,-0.0895,1273.68,-1530.64,-1906.49
15170,-3.8733,0.3534,-0.0471,523.68,547.55,-1328.31
15180,-3.8730,0.3445,0.0084,1242.43,1969.42,1328.00
15190,-3.8729,0.3376,0.0522,101.81,1078.80,-46.88
15200,-3.8727,0.3517,0.0701,-773.19,-1311.89,625.06
15210,-3.8727,0.3892,0.0668,1023.68,969.42,-1109.25
15220,-3.8727,0.4364,0.0497,1820.56,547.61,-1046.75
15230,-3.8727,0.4806,0.0226,-132.57,-1639.83,1390.69
15240,-3.8728,0.5159,-0.0031,1523.68,-1108.46,-453.12
15250,-3.8728,0.5400,-0.0137,-1960.69,-389.65,-1468.81
15260,-3.8728,0.5530,0.0076,1133.06,-1748.96,-687.56
15270,-3.8727,0.5612,0.0674,-1210.69,969.79,-875.00
15280,-3.8724,0.5728,0.1536,-163.82,626.04,-1171.75
15290,-3.8721,0.5990,0.2427,1320.56,-342.65,1422.12
15300,-3.8718,0.6478,0.3011,679.93,-936.34,-390.20
15310,-3.8716,0.7086,0.3037,-1070.07,-1451.90,-1608.83
15320,-3.8715,0.7566,0.2573,-1288.82,-1123.66,156.80
15330,-3.8717,0.7715,0.1864,851.81,938.96,-124.51
15340,-3.8719,0.7556,0.1143,-1241.94,-139.16,-984.07
15350,-3.8722,0.7241,0.0610,726.81,-1373.54,1843.93
15360,-3.8723,0.6810,0.0402,695.56,-186.10,93.81
15370,-3.8723,0.6299,0.0652,-820.07,1141.91,93.81
15380,-3.8722,0.5953,0.1327,633.06,344.97,-1859.25
15390,-3.8719,0.6010,0.2115,211.18,985.53,-218.51
15400,-3.8716,0.6423,0.2726,929.93,-920.72,1984.74
15410,-3.8713,0.6926,0.3092,-1773.19,-1108.15,-1546.39
15420,-3.8712,0.7239,0.3203,664.31,-420.53,-1124.45
15430,-3.8712,0.7266,0.3035,664.31,1001.40,-1624.39
15440,-3.8713,0.7074,0.2660,1008.06,-1154.85,-1015.08
15450,-3.8715,0.6775,0.2261,-1445.07,-1951.78,-624.51
15460,-3.8715,0.6442,0.2076,-1273.19,938.78,1766.05
15470,-3.8713,0.6133,0.2269,-1538.82,-1420.65,47.24
15480,-3.8712,0.5950,0.2878,-1491.94,1048.03,1859.80
15490,-3.8710,0.5901,0.3760,164.31,844.91,1781.80
15500,-3.8707,0.5865,0.4565,-460.69,126.10,-1077.39
15510,-3.8705,0.5818,0.4900,-913.82,-1561.40,1953.98
15520,-3.8705,0.5853,0.4591,-1523.19,-1280.15,-1405.33
15530,-3.8706,0.6007,0.3967,-1070.07,-1233.28,1063.35
15540,-3.8708,0.6248,0.3513,898.68,-1217.59,891.36
15550,-3.8711,0.6531,0.3386,-23.19,969.91,1266.30
15560,-3.8712,0.6804,0.3582,-398.19,-655.03,609.99
15570,-3.8713,0.6986,0.4017,-898.19,1845.03,-483.70
15580,-3.8712,0.7061,0.4563,1429.93,-576.78,1391.36
15590,-3.8711,0.7109,0.5114,-1616.94,-1592.41,1828.98
15600,-3.8710,0.7180,0.5547,-991.94,1454.47,-77.15
15610,-3.8707,0.7186,0.5814,-85.69,-998.66,-1436.46
15620,-3.8705,0.6980,0.5964,-7.57,-1576.78,782.35
15630,-3.8704,0.6538,0.6038,1351.81,345.09,1235.53
15640,-3.8704,0.6005,0.6023,-304.44,1282.47,-483.22
15650,-3.8704,0.5559,0.5911,867.43,1094.91,-514.47
15660,-3.8704,0.5331,0.5713,-835.69,-342.71,594.85
15670,-3.8706,0.5378,0.5521,242.43,1126.04,-139.53
15680,-3.8706,0.5605,0.5538,851.81,-1327.09,547.91
15690,-3.8706,0.5801,0.5886,-241.94,-1108.34,1360.41
15700,-3.8705,0.5804,0.6470,-1741.94,-655.15,-1623.90
15710,-3.8702,0.5587,0.7081,-1695.07,-1186.40,-1326.90
15720,-3.8699,0.5197,0.7521,-476.32,-1358.34,563.84
15730,-3.8696,0.4675,0.7682,-1476.32,266.60,-1998.54
15740,-3.8694,0.4069,0.7577,-148.19,-1671.02,1579.59
15750,-3.8693,0.3401,0.7240,86.18,985.17,-1998.54
15760,-3.8693,0.2701,0.6764,-460.69,672.49,-701.72
15770,-3.8693,0.2004,0.6316,-1413.82,-1421.39,-1420.59
15780,-3.8693,0.1329,0.6022,1664.31,844.12,1610.60
15790,-3.8693,0.0706,0.5944,1023.68,1078.37,1907.41
15800,-3.8693,0.0166,0.6042,1039.31,78.25,-748.84
15810,-3.8691,-0.0265,0.6250,-1866.94,1343.75,923.03
15820,-3.8691,-0.0596,0.6523,617.43,15.56,-858.15
15830,-3.8690,-0.0854,0.6801,383.06,-484.50,-1717.53
15840,-3.8689,-0.1071,0.7002,1070.56,-937.68,1860.66
15850,-3.8689,-0.1241,0.7029,-1695.07,1640.38,-92.41
15860,-3.8689,-0.1338,0.6790,117.43,1984.13,-1623.66
15870,-3.8690,-0.1310,0.6324,-1116.94,-1078.43,704.41
15880,-3.8694,-0.1167,0.5791,-757.57,968.44,-639.40
15890,-3.8698,-0.1040,0.5332,1070.56,-1859.62,-61.40
15900,-3.8700,-0.1101,0.5033,-1304.44,265.38,1079.16
15910,-3.8702,-0.1407,0.4878,1914.31,437.26,1047.85
15920,-3.8704,-0.1857,0.4778,1992.43,-1547.18,579.04
15930,-3.8705,-0.2277,0.4683,242.43,1171.51,-1811.58
15940,-3.8706,-0.2592,0.4592,-1132.57,-47.36,-280.40
15950,-3.8706,-0.2803,0.4513,-1163.82,-1203.67,438.35
15960,-3.8707,-0.2897,0.4409,133.06,1780.70,266.48
15970,-3.8710,-0.2828,0.4175,-1070.07,452.51,-983.52
15980,-3.8711,-0.2587,0.3794,-195.07,1452.51,782.04
15990,-3.8713,-0.2322,0.3379,-1101.32,577.58,-1968.02
16000,-3.8716,-0.2235,0.3014,-1710.69,-734.86,-499.39
16010,-3.8717,-0.2385,0.2689,-601.32,-1406.74,1891.17
16020,-3.8718,-0.2697,0.2399,1476.81,-1562.99,-1812.01
16030,-3.8718,-0.3109,0.2172,1492.43,-1281.80,625.43
16040,-3.8719,-0.3544,0.1982,211.18,-188.11,-218.38
16050,-3.8719,-0.3859,0.1814,-1351.32,1389.89,-1687.13
16060,-3.8721,-0.3934,0.1674,-1382.57,-766.42,-202.82
16070,-3.8721,-0.3743,0.1527,1648.68,1436.71,0.31
16080,-3.8723,-0.3319,0.1381,101.81,-438.23,-968.51
16090,-3.8724,-0.2767,0.1262,1523.68,1686.83,-1921.63
16100,-3.8726,-0.2244,0.1178,586.18,171.33,-1781.01
16110,-3.8727,-0.1837,0.1115,-710.69,-906.74,-390.44
16120,-3.8727,-0.1545,0.1062,492.43,-1719.12,1765.81
16130,-3.8727,-0.1321,0.1021,226.81,1609.07,31.43
16140,-3.8728,-0.1134,0.0990,-898.19,1077.82,-1499.82
16150,-3.8728,-0.1024,0.0989,1492.43,687.26,1875.18
16160,-3.8728,-0.1052,0.1022,-1101.32,671.63,-1781.07
16170,-3.8728,-0.1178,0.1029,-1460.69,1093.51,-1218.57
16180,-3.8728,-0.1279,0.0953,929.93,1187.26,-1484.19
16190,-3.8728,-0.1249,0.0808,-366.94,218.44,672.06
16200,-3.8729,-0.1088,0.0649,23.68,-1640.87,1468.87
16210,-3.8730,-0.0845,0.0494,-1913.82,327.88,1547.00
16220,-3.8732,-0.0526,0.0342,1195.56,-1656.43,1375.06
16230,-3.8733,-0.0131,0.0214,1273.68,390.50,1359.44
16240,-3.8734,0.0306,0.0170,-1663.82,-1250.06,-1718.75
16250,-3.8734,0.0709,0.0219,-70.07,-1828.12,781.25
16260,-3.8734,0.1023,0.0282,1086.18,-1203.00,703.12
16270,-3.8734,0.1232,0.0363,1101.81,-390.44,1328.12
16280,-3.8734,0.1320,0.0482,-226.32,640.81,-1749.94
16290,-3.8734,0.1301,0.0524,898.68,-1827.88,-843.69
16300,-3.8734,0.1235,0.0378,664.31,-1296.63,-921.81
16310,-3.8734,0.1243,0.0096,-179.44,843.93,1593.81
16320,-3.8735,0.1445,-0.0211,-85.69,1234.56,-656.25
16330,-3.8735,0.1859,-0.0399,-1491.94,1297.12,1374.94
16340,-3.8735,0.2432,-0.0400,-195.07,-1109.07,578.00
16350,-3.8735,0.3096,-0.0294,-866.94,-1124.57,1281.13
16360,-3.8735,0.3784,-0.0160,-366.94,234.92,-828.19
16370,-3.8734,0.4432,0.0011,445.56,1953.86,1906.19
16380,-3.8733,0.4944,0.0275,742.43,141.48,1765.62
16390,-3.8732,0.5255,0.0597,-710.69,-483.46,-515.62
16400,-3.8729,0.5400,0.0806,-726.32,-358.40,-1796.81
16410,-3.8727,0.5444,0.0813,1133.06,-1686.46,15.75
16420,-3.8727,0.5479,0.0728,1695.56,-1592.71,-531.13
16430,-3.8726,0.5596,0.0697,-1866.94,1313.54,390.75
16440,-3.8726,0.5840,0.0834,-366.94,922.91,390.75
16450,-3.8726,0.6213,0.1184,-1241.94,-1327.03,1328.25
16460,-3.8724,0.6677,0.1638,-460.69,-842.59,250.18
16470,-3.8723,0.7140,0.1932,1476.81,970.03,890.93
16480,-3.8722,0.7521,0.1892,-601.32,735.72,1890.99
16490,-3.8721,0.7776,0.1598,273.68,220.21,1640.99
16500,-3.8719,0.7902,0.1267,-460.69,454.59,312.81
16510,-3.8719,0.7867,0.1069,1148.68,220.28,-874.76
16520,-3.8718,0.7609,0.1094,711.18,1689.03,-1859.19
16530,-3.8717,0.7144,0.1321,1398.68,-1998.54,1578.31
16540,-3.8716,0.6602,0.1731,-554.44,907.59,-1468.51
16550,-3.8713,0.6208,0.2290,508.06,-1842.47,765.93
16560,-3.8712,0.6193,0.2826,-523.19,1313.66,-1108.95
16570,-3.8711,0.6667,0.3121,-726.32,173.03,-374.45
16580,-3.8710,0.7515,0.3069,1351.81,-45.59,438.05
16590,-3.8711,0.8402,0.2751,195.56,-717.29,1500.55
16600,-3.8712,0.8989,0.2411,-445.07,-779.66,1937.99
16610,-3.8712,0.9011,0.2306,-929.44,-1138.92,234.80
16620,-3.8712,0.8317,0.2466,-648.19,1517.33,1797.30
16630,-3.8711,0.7064,0.2716,-1538.82,-435.91,-1452.70
16640,-3.8710,0.5692,0.2883,-1570.07,-1233.03,-108.89
16650,-3.8708,0.4701,0.2955,867.43,907.35,-765.08
16660,-3.8707,0.4491,0.3040,179.93,1829.04,813.05
16670,-3.8707,0.5177,0.3214,1492.43,-1092.90,1031.80
16680,-3.8708,0.6415,0.3412,-1726.32,1141.60,-515.01
16690,-3.8708,0.7622,0.3507,-1882.57,-326.90,1375.61
16700,-3.8708,0.8300,0.3521,1570.56,892.09,31.92
16710,-3.8708,0.8119,0.3535,-1757.57,1064.09,94.42
16720,-3.8708,0.7139,0.3635,-70.07,1251.53,-1686.83
16730,-3.8707,0.5874,0.3804,-616.94,-1467.41,1906.92
16740,-3.8706,0.4902,0.3954,-804.44,688.60,1047.61
16750,-3.8706,0.4567,0.4076,-1241.94,-1389.71,-1702.39
16760,-3.8706,0.4948,0.4182,-1538.82,172.73,1485.17
16770,-3.8706,0.5813,0.4341,-663.82,1532.17,547.67
16780,-3.8706,0.6699,0.4624,-1585.69,-436.40,1375.79
16790,-3.8706,0.7152,0.4919,1758.06,-811.22,-592.90
16800,-3.8705,0.6930,0.5105,-445.07,-1029.91,1360.29
16810,-3.8705,0.6113,0.5167,711.18,1345.09,-1311.52
16820,-3.8705,0.5096,0.5159,-1741.94,-1858.22,-874.02
16830,-3.8705,0.4323,0.5155,1242.43,-1967.77,-1030.27
16840,-3.8705,0.4008,0.5187,-663.82,1985.17,-1514.65
16850,-3.8705,0.4156,0.5278,-695.07,-1608.64,1625.98
16860,-3.8705,0.4648,0.5414,1211.18,-436.71,125.98
16870,-3.8706,0.5234,0.5569,-491.94,1297.73,-1389.59
16880,-3.8706,0.5587,0.5771,-991.94,-717.77,-1342.71
16890,-3.8705,0.5474,0.5980,-476.32,1876.04,969.85
16900,-3.8704,0.4912,0.6140,-1929.44,547.91,1704.28
16910,-3.8701,0.4146,0.6243,-1116.94,-1405.33,282.41
16920,-3.8700,0.3354,0.6311,1070.56,-92.96,-155.09
16930,-3.8698,0.2513,0.6331,-1054.44,781.86,-14.40
16940,-3.8695,0.1616,0.6238,179.93,1031.74,-717.53
16950,-3.8693,0.0798,0.6022,695.56,-155.94,626.16
16960,-3.8691,0.0208,0.5735,-1773.19,1078.25,485.53
16970,-3.8691,-0.0115,0.5455,-1335.69,1406.25,-827.03
16980,-3.8690,-0.0208,0.5281,-1460.69,1843.69,735.41
16990,-3.8690,-0.0215,0.5298,1351.81,-390.69,-1967.77
17000,-3.8690,-0.0328,0.5435,1258.06,-171.94,-280.27
17010,-3.8689,-0.0620,0.5566,-195.07,1578.00,1813.54
17020,-3.8689,-0.1031,0.5687,70.56,-734.50,-264.59
17030,-3.8688,-0.1478,0.5765,-1195.07,812.26,626.10
17040,-3.8689,-0.1816,0.5676,1086.18,1812.19,-405.15
17050,-3.8690,-0.1927,0.5353,758.06,671.51,-405.15
17060,-3.8691,-0.1879,0.4948,-663.82,530.82,751.04
17070,-3.8694,-0.1851,0.4670,-38.82,-656.68,1110.29
17080,-3.8696,-0.1949,0.4575,320.56,-203.49,-1155.40
17090,-3.8698,-0.2124,0.4567,-945.07,-1422.30,-1921.02
17100,-3.8699,-0.2258,0.4540,820.56,-1531.68,1578.98
17110,-3.8700,-0.2299,0.4456,-898.19,-1875.49,47.73
17120,-3.8702,-0.2250,0.4312,-1413.82,1046.39,985.23
17130,-3.8705,-0.2128,0.4150,-788.82,-797.36,1500.79
17140,-3.8707,-0.2008,0.4027,773.68,1140.20,-1139.83
17150,-3.8708,-0.1989,0.3915,-1695.07,-437.93,1125.73
17160,-3.8711,-0.2106,0.3694,-1445.07,-1875.43,-843.02
17170,-3.8712,-0.2296,0.3311,1054.93,-703.55,0.67
17180,-3.8716,-0.2451,0.2823,-1382.57,-1609.86,-233.76
17190,-3.8718,-0.2512,0.2333,633.06,155.76,-702.58
17200,-3.8721,-0.2478,0.1938,-148.19,1874.45,-421.45
17210,-3.8722,-0.2374,0.1693,289.31,827.64,1672.24
17220,-3.8723,-0.2228,0.1571,1617.43,1687.01,-1812.19
17230,-3.8723,-0.2075,0.1511,-507.57,124.51,547.18
17240,-3.8724,-0.1969,0.1449,1445.56,-641.05,-562.26
17250,-3.8724,-0.1927,0.1321,-1195.07,-1437.93,1718.99
17260,-3.8726,-0.1953,0.1136,-663.82,921.45,-749.76
17270,-3.8726,-0.2029,0.0953,-991.94,-1437.93,500.18
17280,-3.8727,-0.2089,0.0823,-1960.69,218.32,-1702.94
17290,-3.8727,-0.2010,0.0715,1273.68,-1453.55,890.75
17300,-3.8728,-0.1726,0.0586,-1726.32,1171.45,-562.38
17310,-3.8728,-0.1355,0.0486,1914.31,-484.74,1625.06
17320,-3.8729,-0.1105,0.0475,-1335.69,-1765.93,-578.06
17330,-3.8729,-0.1042,0.0547,1867.43,-1906.49,1187.56
17340,-3.8730,-0.1046,0.0648,-1335.69,-984.62,-453.06
17350,-3.8730,-0.0941,0.0723,-1382.57,312.26,-1843.63
17360,-3.8730,-0.0649,0.0763,-38.82,1265.38,703.25
17370,-3.8732,-0.0245,0.0758,-304.44,1781.07,-953.00
17380,-3.8732,0.0160,0.0690,867.43,1718.69,453.25
17390,-3.8733,0.0533,0.0581,-1945.07,828.12,781.37
17400,-3.8734,0.0872,0.0420,-1163.82,-562.44,687.56
17410,-3.8735,0.1145,0.0195,-835.69,1375.12,906.31
17420,-3.8737,0.1316,-0.0038,-1335.69,-1499.82,1859.38
17430,-3.8738,0.1372,-0.0240,851.81,-484.13,-500.06
17440,-3.8738,0.1337,-0.0381,1570.56,922.12,1499.94
17450,-3.8738,0.1321,-0.0452,1117.43,-874.76,109.25
17460,-3.8739,0.1508,-0.0513,914.31,-1781.01,-500.12
17470,-3.8739,0.1946,-0.0627,-695.07,1437.74,-750.12
17480,-3.8739,0.2500,-0.0740,914.31,-30.88,-1156.43
17490,-3.8739,0.3032,-0.0742,8.06,-1468.26,-1765.81
17500,-3.8739,0.3510,-0.0635,-1179.44,-1499.45,1656.07
17510,-3.8739,0.3967,-0.0491,929.93,-124.33,1937.32
17520,-3.8739,0.4391,-0.0315,-1210.69,1719.48,-109.50
17530,-3.8738,0.4698,-0.0090,211.18,-30.40,-0.12
17540,-3.8735,0.4812,0.0190,148.68,-1155.33,-1359.44
17550,-3.8733,0.4717,0.0549,1601.81,-1561.58,-750.00
17560,-3.8729,0.4521,0.0928,383.06,-967.83,750.06
17570,-3.8727,0.4404,0.1210,1883.06,-124.15,1609.50
17580,-3.8726,0.4473,0.1301,383.06,-514.77,-327.94
17590,-3.8724,0.4746,0.1250,1258.06,657.10,-1562.26
17600,-3.8723,0.5157,0.1223,758.06,0.92,62.74
17610,-3.8723,0.5610,0.1281,-1976.32,-342.77,1984.56
17620,-3.8723,0.6051,0.1329,-179.44,391.66,-218.51
17630,-3.8722,0.6456,0.1366,1461.18,1016.78,1047.12
17640,-3.8722,0.6758,0.1482,-1351.32,1485.60,1765.87
17650,-3.8722,0.6876,0.1788,-1491.94,-1029.97,-1281.01
17660,-3.8721,0.6832,0.2272,23.68,-1108.03,1609.68
17670,-3.8719,0.6776,0.2729,-538.82,1079.41,-1062.07
17680,-3.8717,0.6940,0.3010,-1257.57,-1061.22,734.86
17690,-3.8716,0.7404,0.3138,836.18,-1467.41,1109.92
17700,-3.8715,0.7943,0.3223,-1226.32,173.28,359.99
17710,-3.8715,0.8286,0.3280,1679.93,1251.53,-796.26
17720,-3.8713,0.8311,0.3296,-1929.44,1985.96,1078.74
17730,-3.8713,0.8026,0.3292,-1616.94,-1810.91,1672.49
17740,-3.8713,0.7582,0.3329,-1257.57,-1857.85,1172.49
17750,-3.8715,0.7268,0.3411,1054.93,-1389.16,-468.14
17760,-3.8715,0.7316,0.3539,1039.31,-342.35,-1593.14
17770,-3.8713,0.7657,0.3782,1648.68,1298.28,516.30
17780,-3.8712,0.8015,0.4072,-1976.32,407.71,1485.11
17790,-3.8711,0.8158,0.4303,-1398.19,126.53,-1264.83
17800,-3.8710,0.8076,0.4485,429.93,-920.29,-1108.58
17810,-3.8708,0.7831,0.4579,-616.94,1407.78,1547.73
17820,-3.8708,0.7448,0.4535,242.43,-1389.10,-1311.65
17830,-3.8708,0.6969,0.4471,-663.82,-1951.72,-546.02
17840,-3.8707,0.6470,0.4551,1211.18,1235.72,907.10
17850,-3.8707,0.6084,0.4789,-1179.44,-1748.78,-999.15
17860,-3.8706,0.6024,0.5126,1883.06,1298.03,1594.67
17870,-3.8705,0.6362,0.5460,1117.43,1610.53,313.48
17880,-3.8705,0.6876,0.5616,1445.56,1891.85,-1858.34
17890,-3.8705,0.7219,0.5570,23.68,-108.03,-811.46
17900,-3.8704,0.7175,0.5543,414.31,-701.72,829.16
17910,-3.8704,0.6836,0.5652,-148.19,-1045.53,-389.59
17920,-3.8702,0.6415,0.5765,-491.94,345.03,-1139.53
17930,-3.8701,0.6023,0.5765,-1882.57,1798.10,1766.72
17940,-3.8701,0.5673,0.5715,1101.81,1798.03,-30.15
17950,-3.8700,0.5360,0.5748,617.43,1157.35,1891.72
17960,-3.8699,0.5148,0.5891,617.43,1579.16,751.10
17970,-3.8698,0.5079,0.6113,1898.68,-592.77,1313.60
17980,-3.8696,0.5062,0.6418,1023.68,-1749.02,-873.84
17990,-3.8694,0.4941,0.6731,804.93,-1842.77,1204.35
18000,-3.8693,0.4656,0.6891,-741.94,-1842.83,-1826.84
18010,-3.8691,0.4260,0.6853,-398.19,203.98,813.84
18020,-3.8691,0.3835,0.6702,-1460.69,-280.46,626.28
18030,-3.8693,0.3422,0.6514,1101.81,1781.98,-1670.59
18040,-3.8694,0.3005,0.6306,-195.07,-624.39,-1030.03
18050,-3.8695,0.2566,0.6094,-1523.19,719.30,-936.28
18060,-3.8696,0.2089,0.5924,851.81,-1999.51,-873.84
18070,-3.8698,0.1581,0.5806,-1257.57,-171.51,-420.78
18080,-3.8698,0.1106,0.5743,242.43,-1687.19,735.47
18090,-3.8699,0.0714,0.5768,-1835.69,1515.81,-889.53
18100,-3.8699,0.0408,0.5873,1148.68,1828.25,-1092.65
18110,-3.8699,0.0215,0.5916,1226.81,-828.06,-764.53
18120,-3.8699,0.0167,0.5745,-1241.94,-281.25,-1358.28
18130,-3.8699,0.0197,0.5396,-1851.32,1531.25,454.22
18140,-3.8700,0.0077,0.5056,-1476.32,1062.50,1672.91
18150,-3.8701,-0.0327,0.4872,992.43,718.75,-295.90
18160,-3.8701,-0.0924,0.4780,-179.44,-1625.12,-905.33
18170,-3.8701,-0.1533,0.4658,179.93,1202.94,-858.46
18180,-3.8701,-0.2021,0.4508,383.06,-359.68,-1233.52
18190,-3.8701,-0.2352,0.4374,-1866.94,1718.32,1953.98
18200,-3.8701,-0.2551,0.4249,1898.68,-0.49,422.67
18210,-3.8702,-0.2661,0.4097,-648.19,-1594.30,1360.17
18220,-3.8704,-0.2726,0.3885,1945.56,452.58,813.29
18230,-3.8706,-0.2773,0.3630,1117.43,1749.45,-624.27
18240,-3.8707,-0.2789,0.3367,508.06,-1516.17,1547.55
18250,-3.8708,-0.2729,0.3152,304.93,-891.17,31.86
18260,-3.8711,-0.2576,0.3015,1070.56,358.83,-671.26
18270,-3.8712,-0.2355,0.2927,-960.69,-1391.17,-608.83
18280,-3.8713,-0.2114,0.2847,1867.43,1483.89,-296.33
18290,-3.8715,-0.1912,0.2748,945.56,452.70,-140.08
18300,-3.8716,-0.1780,0.2637,-460.69,-812.93,-62.01
18310,-3.8716,-0.1718,0.2546,1226.81,1765.26,406.74
18320,-3.8717,-0.1746,0.2478,-1976.32,609.01,1891.11
18330,-3.8718,-0.1858,0.2397,1664.31,-265.99,-77.70
18340,-3.8718,-0.1965,0.2230,226.81,-1297.24,1391.05
18350,-3.8719,-0.1965,0.1936,-1148.19,562.07,1812.93
18360,-3.8721,-0.1859,0.1598,-1148.19,796.45,1484.74
18370,-3.8722,-0.1669,0.1361,211.18,468.38,765.93
18380,-3.8723,-0.1407,0.1278,-1351.32,1437.13,625.24
18390,-3.8724,-0.1099,0.1316,1992.43,374.69,-1718.51
18400,-3.8724,-0.0724,0.1438,1945.56,859.13,-1984.13
18410,-3.8724,-0.0322,0.1537,-1257.57,-1578.31,-499.76
18420,-3.8723,0.0026,0.1541,-116.94,-312.62,1781.49
18430,-3.8723,0.0233,0.1479,336.18,-281.25,-406.01
18440,-3.8722,0.0220,0.1409,-1007.57,-1062.50,515.87
18450,-3.8722,0.0000,0.1349,-1179.44,-1968.75,468.99
18460,-3.8723,-0.0277,0.1274,8.06,1265.62,-1015.38
18470,-3.8724,-0.0398,0.1174,461.18,328.06,-109.13
18480,-3.8726,-0.0254,0.1075,-1085.69,-953.25,-31.07
18490,-3.8726,0.0107,0.0973,758.06,1781.19,328.31
18500,-3.8727,0.0571,0.0870,1383.06,453.12,1953.31
18510,-3.8727,0.1002,0.0789,-679.44,-859.31,1297.00
18520,-3.8727,0.1261,0.0747,836.18,-1906.07,1547.00
18530,-3.8727,0.1216,0.0740,148.68,1562.74,-1953.00
18540,-3.8727,0.0867,0.0697,-429.44,1468.93,-1765.50
18550,-3.8727,0.0474,0.0577,-898.19,922.00,1422.00
18560,-3.8728,0.0345,0.0430,-1929.44,-609.31,-437.44
18570,-3.8728,0.0582,0.0280,429.93,1500.06,546.94
18580,-3.8729,0.1079,0.0078,-538.82,-421.81,62.50
18590,-3.8732,0.1710,-0.0219,1820.56,1000.18,-1156.25
18600,-3.8733,0.2369,-0.0511,1898.68,1203.43,-1734.44
18610,-3.8734,0.2932,-0.0682,-1663.82,1453.55,-500.12
18620,-3.8734,0.3278,-0.0687,1539.31,-733.83,-531.43
18630,-3.8733,0.3260,-0.0454,1961.18,-796.26,-1109.56
18640,-3.8730,0.2875,-0.0033,1742.43,-1811.89,1078.00
18650,-3.8729,0.2367,0.0336,804.93,-421.33,-78.19
18660,-3.8727,0.2061,0.0477,-1695.07,297.30,1265.69
18670,-3.8727,0.2145,0.0405,-1616.94,-1890.26,-1078.06
18680,-3.8727,0.2634,0.0203,-538.82,1187.87,93.81
18690,-3.8729,0.3375,-0.0006,1726.81,-1405.76,-1640.62
18700,-3.8730,0.4136,-0.0082,-788.82,-77.51,718.69
18710,-3.8732,0.4725,0.0013,945.56,-1046.08,1593.69
18720,-3.8732,0.5120,0.0193,492.43,172.79,1265.62
18730,-3.8732,0.5421,0.0424,1539.31,-1530.27,-453.12
18740,-3.8729,0.5720,0.0789,1398.68,1422.91,234.44
18750,-3.8728,0.6007,0.1299,1226.81,-1905.15,-1328.00
18760,-3.8726,0.6226,0.1819,898.68,626.16,-1859.13
18770,-3.8723,0.6399,0.2211,-304.44,-717.59,1812.81
18780,-3.8721,0.6571,0.2350,1914.31,298.10,562.93
18790,-3.8719,0.6715,0.2191,117.43,-1920.59,1156.68
18800,-3.8719,0.6770,0.1815,1961.18,48.16,1875.43
18810,-3.8721,0.6727,0.1364,-1335.69,-764.34,-1484.07
18820,-3.8722,0.6554,0.1062,-1882.57,1454.41,-1640.38
18830,-3.8723,0.6255,0.1040,-101.32,1594.97,-374.82
18840,-3.8723,0.6008,0.1261,70.56,1313.72,-1281.07
18850,-3.8722,0.6000,0.1663,914.31,141.78,265.87
18860,-3.8722,0.6277,0.2236,804.93,1282.41,-140.32
18870,-3.8719,0.6791,0.2977,351.81,626.22,844.18
18880,-3.8718,0.7424,0.3718,-1070.07,-1889.34,-1233.83
18890,-3.8716,0.8005,0.4147,-960.69,-404.85,125.67
18900,-3.8716,0.8402,0.4039,-1523.19,1079.65,-1780.46
18910,-3.8716,0.8602,0.3580,-445.07,-295.29,266.36
18920,-3.8717,0.8596,0.3148,-1882.57,1829.77,641.30
18930,-3.8718,0.8333,0.2911,-1960.69,298.52,-1921.26
18940,-3.8718,0.7854,0.2932,-1335.69,1267.21,-1874.45
18950,-3.8717,0.7356,0.3247,539.31,1532.78,797.42
18960,-3.8716,0.7119,0.3759,-1835.69,1563.90,1563.11
18970,-3.8715,0.7295,0.4310,-866.94,110.72,-718.02
18980,-3.8712,0.7721,0.4849,1383.06,-826.72,1047.67
18990,-3.8711,0.8129,0.5264,-1163.82,-1936.04,-1842.83
19000,-3.8710,0.8387,0.5421,54.93,-623.41,-1936.52
19010,-3.8710,0.8442,0.5237,-632.57,1392.21,-123.96
19020,-3.8710,0.8268,0.4757,70.56,-967.10,-514.65
19030,-3.8710,0.7854,0.4270,1836.18,892.21,1704.04
19040,-3.8711,0.7231,0.4056,539.31,-1342.22,-749.21
19050,-3.8711,0.6552,0.4183,570.56,-76.72,1391.36
19060,-3.8711,0.6062,0.4542,-132.57,1548.10,985.17
19070,-3.8711,0.5929,0.4923,1601.81,-1858.22,1828.98
19080,-3.8711,0.6127,0.5161,-101.32,-983.28,-420.96
19090,-3.8710,0.6440,0.5286,-1570.07,-1936.34,-1889.65
19100,-3.8708,0.6581,0.5367,-1554.44,-342.53,454.10
19110,-3.8708,0.6400,0.5388,242.43,704.41,1110.41
19120,-3.8710,0.6029,0.5303,1929.93,969.97,-780.21
19130,-3.8711,0.5718,0.5081,1179.93,-123.84,-608.40
19140,-3.8711,0.5558,0.4866,1195.56,1032.35,0.98
19150,-3.8712,0.5437,0.4879,-851.32,-1717.71,-1030.33
19160,-3.8711,0.5247,0.5168,1601.81,-1545.84,704.04
19170,-3.8710,0.5007,0.5658,-835.69,-1842.77,1766.60
19180,-3.8707,0.4757,0.6216,101.81,422.85,-1811.40
19190,-3.8704,0.4507,0.6659,898.68,-436.58,204.28
19200,-3.8701,0.4312,0.6748,1695.56,1235.23,298.16
19210,-3.8700,0.4199,0.6395,-804.44,-1624.21,657.53
19220,-3.8700,0.4065,0.5950,1758.06,1860.17,-420.65
19230,-3.8699,0.3756,0.5808,39.31,157.04,-326.97
19240,-3.8696,0.3245,0.5944,86.18,-1655.52,-1967.65
19250,-3.8694,0.2577,0.6228,1539.31,78.74,-1030.09
19260,-3.8690,0.1727,0.6571,992.43,-280.76,1579.28
19270,-3.8688,0.0715,0.6854,-1882.57,109.68,-45.59
19280,-3.8684,-0.0272,0.7050,1164.31,-265.50,1220.03
19290,-3.8682,-0.1046,0.7183,523.68,-1750.06,720.09
19300,-3.8682,-0.1475,0.7118,-1382.57,-47.12,-76.78
19310,-3.8682,-0.1387,0.6763,1133.06,-875.31,470.09
19320,-3.8685,-0.0704,0.6316,-1741.94,-1422.18,-654.97
19330,-3.8688,0.0287,0.6044,-1007.57,859.19,79.35
19340,-3.8691,0.1094,0.6028,-320.07,1359.38,-1545.72
19350,-3.8694,0.1442,0.6136,-1991.94,1156.43,-92.59
19360,-3.8695,0.1411,0.6135,-1538.82,-1452.88,-1342.59
19370,-3.8696,0.1243,0.5923,-1929.44,-1468.51,704.28
19380,-3.8699,0.1063,0.5609,-85.69,-187.32,1907.35
19390,-3.8701,0.0795,0.5376,1617.43,-202.94,-358.34
19400,-3.8702,0.0375,0.5305,-1820.07,812.62,-1123.96
19410,-3.8704,-0.0128,0.5242,804.93,-93.69,-1155.27
19420,-3.8705,-0.0620,0.4984,-1632.57,-890.69,-1530.27
19430,-3.8706,-0.0986,0.4512,70.56,-187.62,1032.17
19440,-3.8708,-0.1168,0.3959,-616.94,1765.38,-1467.90
19450,-3.8711,-0.1259,0.3525,1054.93,-1312.74,-93.02
19460,-3.8712,-0.1394,0.3341,-101.32,1140.32,-1343.08
19470,-3.8713,-0.1586,0.3334,-1835.69,-1219.06,-46.26
19480,-3.8713,-0.1752,0.3347,-288.82,-1312.87,-624.39
19490,-3.8713,-0.1805,0.3273,1586.18,-1140.99,-1077.51
19500,-3.8713,-0.1741,0.3057,898.68,1905.88,1047.49
19510,-3.8715,-0.1687,0.2715,1726.81,-859.74,1797.42
19520,-3.8716,-0.1747,0.2328,-1585.69,-1234.74,1484.86
19530,-3.8717,-0.1902,0.1963,1648.68,1812.13,375.43
19540,-3.8719,-0.2089,0.1674,-335.69,1140.20,-624.63
19550,-3.8721,-0.2258,0.1471,1273.68,1437.07,-1093.44
19560,-3.8722,-0.2366,0.1311,-898.19,-1156.74,-1468.51
19570,-3.8723,-0.2380,0.1150,1726.81,796.39,-1577.88
19580,-3.8724,-0.2325,0.1005,1539.31,-1266.11,-1015.44
19590,-3.8724,-0.2253,0.0897,-1757.57,874.51,203.31
19600,-3.8726,-0.2191,0.0809,-835.69,-500.49,-1734.25
19610,-3.8726,-0.2178,0.0732,-38.82,-1625.49,1093.87
19620,-3.8726,-0.2252,0.0712,133.06,1390.20,156.37
19630,-3.8727,-0.2362,0.0721,-820.07,1124.51,-765.50
19640,-3.8727,-0.2357,0.0645,1773.68,1249.51,1781.37
19650,-3.8728,-0.2114,0.0444,1836.18,265.14,-1312.38
19660,-3.8729,-0.1683,0.0194,945.56,1702.70,1734.44
19670,-3.8730,-0.1232,-0.0018,-1538.82,-1500.37,578.12
19680,-3.8732,-0.0898,-0.0149,242.43,-218.99,515.56
19690,-3.8733,-0.0715,-0.0200,508.06,-1890.81,1578.06
19700,-3.8734,-0.0649,-0.0215,-1148.19,1452.94,-171.94
19710,-3.8734,-0.0671,-0.0225,-304.44,1265.44,-515.69
19720,-3.8733,-0.0773,-0.0225,-585.69,1140.44,796.81
19730,-3.8733,-0.0875,-0.0198,-1882.57,1140.44,-796.94
19740,-3.8732,-0.0845,-0.0140,804.93,1484.19,1437.44
19750,-3.8732,-0.0604,-0.0117,1195.56,-1781.43,-1468.81
19760,-3.8732,-0.0225,-0.0175,273.68,-1484.50,-1656.31
19770,-3.8732,0.0144,-0.0273,1133.06,1781.19,1546.81
19780,-3.8733,0.0417,-0.0416,1851.81,500.00,-281.31
19790,-3.8733,0.0647,-0.0651,1351.81,-1328.06,812.38
19800,-3.8734,0.0905,-0.0897,289.31,-328.00,-1953.31
19810,-3.8735,0.1190,-0.1053,-413.82,515.75,-0.18
19820,-3.8735,0.1473,-0.1057,-757.57,-1484.19,-468.99
19830,-3.8734,0.1713,-0.0868,-1132.57,-1531.01,1343.51
19840,-3.8733,0.1892,-0.0565,1929.93,890.93,921.69
19850,-3.8732,0.2035,-0.0247,226.81,765.99,984.25
19860,-3.8730,0.2198,0.0068,-1945.07,844.12,531.19
19870,-3.8730,0.2454,0.0383,148.68,875.43,-375.00
19880,-3.8729,0.2820,0.0652,-585.69,906.68,-1078.06
19890,-3.8728,0.3273,0.0752,101.81,344.30,1953.25
19900,-3.8728,0.3761,0.0594,1898.68,1625.61,-999.88
19910,-3.8728,0.4231,0.0259,148.68,-389.89,968.81
19920,-3.8729,0.4628,-0.0016,-1835.69,-686.71,1859.38
19930,-3.8729,0.4880,-0.0062,-757.57,-202.27,140.56
19940,-3.8729,0.4988,0.0132,-1523.19,-795.96,515.56
19950,-3.8729,0.4978,0.0562,-148.19,1688.42,-890.62
19960,-3.8727,0.4926,0.1145,-273.19,-811.58,156.31
19970,-3.8726,0.5000,0.1711,-945.07,-1342.83,-656.07
19980,-3.8723,0.5284,0.2167,8.06,1907.23,-405.94
19990,-3.8721,0.5720,0.2474,-351.32,-264.65,-702.76
20000,-3.8718,0.6261,0.2642,1226.81,-327.03,609.80
20010,-3.8718,0.6862,0.2682,148.68,1813.72,-702.64
20020,-3.8717,0.7394,0.2560,-163.82,-1670.59,656.74
20030,-3.8717,0.7697,0.2325,-1351.32,767.03,1281.74
20040,-3.8717,0.7689,0.2161,-1476.32,1767.09,1156.68
20050,-3.8717,0.7399,0.2170,-1570.07,-342.29,1062.87
20060,-3.8717,0.6956,0.2362,-1288.82,-217.35,-1109.01
20070,-3.8716,0.6575,0.2719,1039.31,-1764.28,-608.95
20080,-3.8713,0.6465,0.3142,164.31,-1201.84,1719.24
20090,-3.8711,0.6719,0.3536,-1241.94,219.97,969.36
20100,-3.8710,0.7227,0.3815,-1991.94,1266.91,-561.83
20110,-3.8708,0.7762,0.3887,508.06,829.53,-468.02
20120,-3.8707,0.8176,0.3811,-632.57,1751.46,1094.48
20130,-3.8707,0.8396,0.3711,664.31,782.84,485.11
20140,-3.8708,0.8392,0.3647,-523.19,-498.41,-1014.95
20150,-3.8708,0.8118,0.3691,-570.07,-1310.91,-1155.58
20160,-3.8707,0.7543,0.3928,-85.69,-748.47,1297.55
20170,-3.8706,0.6797,0.4287,554.93,-1717.29,1485.11
20180,-3.8705,0.6115,0.4583,-991.94,-1123.72,-1702.33
20190,-3.8704,0.5696,0.4667,-1726.32,-1342.59,1563.35
20200,-3.8704,0.5714,0.4535,914.31,-264.53,1188.35
20210,-3.8705,0.6245,0.4404,1148.68,-1952.03,-1452.27
20220,-3.8705,0.7015,0.4420,-54.44,376.16,219.60
20230,-3.8706,0.7601,0.4553,1804.93,579.47,-186.65
20240,-3.8705,0.7802,0.4769,1304.93,-1717.29,1438.35
20250,-3.8704,0.7599,0.5104,-132.57,1048.34,938.42
20260,-3.8702,0.7085,0.5524,1273.68,1329.59,-1733.40
20270,-3.8700,0.6504,0.5902,-1304.44,-1295.53,610.41
20280,-3.8699,0.6041,0.6193,-741.94,-451.90,-514.53
20290,-3.8696,0.5685,0.6343,1336.18,-733.22,1766.78
20300,-3.8695,0.5334,0.6257,773.68,1188.60,1719.97
20310,-3.8695,0.4944,0.5979,289.31,94.79,-1264.40
20320,-3.8695,0.4556,0.5699,-710.69,532.17,1766.78
20330,-3.8695,0.4247,0.5601,-1679.44,953.98,969.85
20340,-3.8695,0.4017,0.5667,-1632.57,-311.71,1782.29
20350,-3.8694,0.3831,0.5782,-570.07,531.98,16.72
20360,-3.8694,0.3591,0.5981,1039.31,-1983.64,-420.78
20370,-3.8691,0.3119,0.6320,1976.81,563.17,1188.66
20380,-3.8689,0.2334,0.6660,-70.07,891.17,704.35
20390,-3.8687,0.1360,0.6801,1883.06,1250.43,673.16
20400,-3.8685,0.0394,0.6693,1414.31,-952.88,-779.97
20410,-3.8684,-0.0406,0.6400,1054.93,1671.94,-1920.59
20420,-3.8684,-0.0934,0.6001,-1195.07,1937.38,173.10
20430,-3.8687,-0.1147,0.5619,54.93,827.94,-1420.72
20440,-3.8689,-0.1100,0.5366,1320.56,-62.74,-733.34
20450,-3.8691,-0.0936,0.5281,1929.93,702.88,-139.59
20460,-3.8693,-0.0880,0.5303,23.68,-390.81,1000.98
20470,-3.8695,-0.1078,0.5383,742.43,-109.56,-1170.90
20480,-3.8696,-0.1471,0.5485,-1788.82,921.63,829.16
20490,-3.8699,-0.1816,0.5564,1179.93,-1781.56,-1186.46
20500,-3.8700,-0.1833,0.5579,758.06,-765.99,1157.29
20510,-3.8702,-0.1453,0.5454,539.31,-578.49,-530.21
20520,-3.8704,-0.0861,0.5146,1414.31,1827.82,860.41
20530,-3.8706,-0.0319,0.4695,992.43,1890.44,641.60
20540,-3.8710,0.0039,0.4235,-70.07,109.25,-795.96
20550,-3.8712,0.0238,0.3828,508.06,-1796.88,1969.54
20560,-3.8715,0.0359,0.3446,-945.07,1000.00,1922.61
20570,-3.8717,0.0437,0.3176,601.81,109.44,-30.58
20580,-3.8717,0.0422,0.3040,1601.81,656.31,734.99
20590,-3.8718,0.0254,0.2878,1414.31,-1093.69,-405.70
20600,-3.8718,-0.0094,0.2581,-741.94,843.75,-874.45
20610,-3.8718,-0.0574,0.2137,-1195.07,1046.81,1500.49
20620,-3.8719,-0.1011,0.1622,664.31,-625.12,1812.87
20630,-3.8721,-0.1246,0.1145,-929.44,781.01,1000.31
20640,-3.8722,-0.1207,0.0786,54.93,-1328.37,640.81
20650,-3.8723,-0.0938,0.0502,554.93,-1922.12,1687.62
20660,-3.8723,-0.0624,0.0225,8.06,-1562.68,250.06
20670,-3.8723,-0.0513,0.0045,23.68,-1109.50,750.00
20680,-3.8723,-0.0713,0.0118,1445.56,593.63,-375.00
20690,-3.8721,-0.1169,0.0380,-1116.94,1531.07,46.88
20700,-3.8719,-0.1763,0.0583,1039.31,874.76,656.31
20710,-3.8718,-0.2358,0.0566,1445.56,-515.99,218.81
20720,-3.8718,-0.2804,0.0309,1820.56,-734.86,1031.31
20730,-3.8719,-0.2964,-0.0164,117.43,-31.80,1625.00
20740,-3.8722,-0.2792,-0.0717,-1929.44,1921.26,-1093.81
20750,-3.8724,-0.2391,-0.1074,273.68,-1156.80,-15.81
20760,-3.8726,-0.1964,-0.1051,1398.68,-1734.86,-422.12
20770,-3.8726,-0.1606,-0.0730,-1132.57,-1437.93,1562.26
20780,-3.8726,-0.1284,-0.0332,-554.44,-1328.49,499.82
20790,-3.8727,-0.0955,0.0017,-429.44,-234.68,-531.37
20800,-3.8727,-0.0679,0.0320,-210.69,234.13,-1015.62
20810,-3.8727,-0.0564,0.0576,-679.44,109.19,-31.19
20820,-3.8726,-0.0604,0.0748,789.31,-609.50,-1984.31
20830,-3.8726,-0.0686,0.0782,273.68,1593.63,-484.25
20840,-3.8726,-0.0690,0.0632,-773.19,-1968.93,-1265.50
20850,-3.8727,-0.0608,0.0336,-820.07,109.19,-640.50
20860,-3.8728,-0.0531,-0.0002,226.81,312.38,-1937.44
20870,-3.8729,-0.0490,-0.0248,1211.18,-15.75,93.69
20880,-3.8732,-0.0475,-0.0314,1742.43,843.63,-937.56
20890,-3.8733,-0.0410,-0.0233,1929.93,-0.12,-578.25
20900,-3.8733,-0.0175,-0.0131,-1241.94,1031.13,921.81
20910,-3.8734,0.0253,-0.0076,1773.68,-1656.31,-562.56
20920,-3.8734,0.0831,0.0018,-757.57,-968.75,-1437.56
20930,-3.8734,0.1525,0.0240,-1351.32,234.50,-1671.88
20940,-3.8734,0.2307,0.0527,-476.32,-921.63,-671.88
20950,-3.8733,0.3112,0.0740,1539.31,-1249.57,1390.69
20960,-3.8733,0.3839,0.0806,-163.82,1469.30,-406.13
20970,-3.8732,0.4410,0.0686,1148.68,-1686.77,625.12
20980,-3.8733,0.4786,0.0431,461.18,782.10,-93.63
20990,-3.8733,0.5020,0.0182,1273.68,1516.54,1812.56
21000,-3.8734,0.5259,0.0117,258.06,-1670.90,-62.50
21010,-3.8733,0.5642,0.0327,-679.44,1500.98,328.12
21020,-3.8733,0.6193,0.0730,226.81,188.60,-109.31
21030,-3.8730,0.6765,0.1213,-726.32,1344.91,-1828.00
21040,-3.8728,0.7145,0.1659,-1398.19,-467.47,1906.43
21050,-3.8726,0.7235,0.1930,-538.82,1235.72,-1687.19
21060,-3.8723,0.7083,0.1979,617.43,704.53,-1671.51
21070,-3.8721,0.6785,0.1843,-1335.69,1329.47,515.99
21080,-3.8721,0.6437,0.1562,-1148.19,-404.97,-46.57
21090,-3.8719,0.6107,0.1217,-1601.32,1.22,562.81
21100,-3.8721,0.5779,0.0905,-1820.07,-420.72,-15.44
21110,-3.8719,0.5369,0.0728,1976.81,-420.78,406.37
21120,-3.8719,0.4929,0.0813,726.81,1313.54,-765.50
21130,-3.8717,0.4679,0.1241,-898.19,-1592.83,1125.12
21140,-3.8715,0.4808,0.1902,-101.32,-108.52,-1843.57
21150,-3.8711,0.5352,0.2590,1554.93,344.67,687.87
21160,-3.8708,0.6183,0.3071,508.06,1157.29,1281.74
21170,-3.8707,0.7096,0.3180,-851.32,-686.34,1172.42
21180,-3.8707,0.7828,0.2961,-1163.82,704.47,672.49
21190,-3.8708,0.8096,0.2610,211.18,1907.78,1969.30
21200,-3.8710,0.7715,0.2302,-366.94,1407.78,-1108.89
21210,-3.8710,0.6801,0.2157,-1241.94,1470.21,1422.30
21220,-3.8710,0.5731,0.2228,-945.07,-389.34,-984.01
21230,-3.8708,0.4917,0.2491,1367.43,516.72,-1062.07
21240,-3.8707,0.4666,0.2902,-1054.44,-108.46,-327.70
21250,-3.8705,0.5122,0.3417,-273.19,1141.48,141.17
21260,-3.8705,0.6121,0.3932,1570.56,-264.65,-749.39
21270,-3.8704,0.7225,0.4258,-1648.19,-1670.72,235.11
21280,-3.8704,0.8005,0.4370,492.43,-1498.60,78.92
21290,-3.8704,0.8182,0.4399,-1523.19,-60.97,485.17
21300,-3.8704,0.7639,0.4402,742.43,314.09,-1702.27
21310,-3.8702,0.6588,0.4384,1789.31,345.21,1547.73
21320,-3.8701,0.5541,0.4392,336.18,110.66,1094.60
21330,-3.8701,0.4963,0.4490,-1070.07,219.79,-514.77
21340,-3.8700,0.5029,0.4702,-460.69,1469.67,438.35
21350,-3.8700,0.5543,0.4965,383.06,188.48,750.92
21360,-3.8700,0.6074,0.5239,-1038.82,-452.09,-1780.33
21370,-3.8699,0.6244,0.5549,1758.06,-936.34,-1936.52
21380,-3.8698,0.5967,0.5823,-70.07,-967.59,-311.46
21390,-3.8695,0.5436,0.5951,383.06,-1467.59,1329.22
21400,-3.8694,0.4913,0.5952,1586.18,172.91,1251.16
21410,-3.8694,0.4604,0.5898,-1101.32,188.42,-1748.84
21420,-3.8694,0.4543,0.5885,-1054.44,-499.15,1313.60
21430,-3.8694,0.4570,0.6005,-1835.69,-671.02,1094.85
21440,-3.8694,0.4457,0.6251,-1491.94,860.23,-467.59
21450,-3.8691,0.4055,0.6469,1054.93,16.48,173.10
21460,-3.8690,0.3390,0.6449,-85.69,-1202.39,860.60
21470,-3.8689,0.2583,0.6183,-601.32,-1452.51,266.85
21480,-3.8689,0.1715,0.5906,1070.56,-858.89,-1092.59
21490,-3.8688,0.0771,0.5792,1961.18,-405.94,1422.97
21500,-3.8687,-0.0215,0.5848,1883.06,-1859.25,344.85
21510,-3.8687,-0.1139,0.5989,1258.06,-1125.06,-623.90
21520,-3.8685,-0.1869,0.6029,1429.93,671.63,985.53
21530,-3.8685,-0.2256,0.5929,86.18,1187.13,469.91
21540,-3.8687,-0.2253,0.5800,-866.94,-94.24,1454.22
21550,-3.8688,-0.1985,0.5709,-835.69,-1750.49,79.22
21560,-3.8690,-0.1675,0.5657,-1398.19,1093.32,1626.10
21570,-3.8693,-0.1532,0.5540,-1429.44,421.51,-498.90
21580,-3.8694,-0.1647,0.5256,398.68,-1078.43,1438.54
21590,-3.8696,-0.1960,0.4845,-1070.07,-703.49,-1311.52
21600,-3.8699,-0.2341,0.4460,-1085.69,-1969.18,-874.08
21610,-3.8701,-0.2654,0.4198,-1960.69,1108.89,-655.40
21620,-3.8702,-0.2811,0.4021,-1960.69,1749.45,47.67
21630,-3.8705,-0.2770,0.3828,23.68,-516.17,1235.11
21640,-3.8707,-0.2560,0.3605,554.93,1015.08,-1405.52
21650,-3.8710,-0.2334,0.3384,-757.57,-1844.30,-30.58
21660,-3.8711,-0.2227,0.3124,-1866.94,-672.36,1547.49
21670,-3.8713,-0.2235,0.2808,-491.94,-0.49,-421.33
21680,-3.8715,-0.2307,0.2460,-601.32,-47.36,1797.36
21690,-3.8716,-0.2386,0.2117,-1523.19,-500.49,344.18
21700,-3.8718,-0.2445,0.1826,1461.18,-891.11,-77.76
21710,-3.8718,-0.2479,0.1617,711.18,-609.86,390.93
21720,-3.8719,-0.2457,0.1501,273.68,718.26,1078.43
21730,-3.8721,-0.2349,0.1510,554.93,-766.11,-1874.76
21740,-3.8721,-0.2195,0.1639,1945.56,-656.74,500.24
21750,-3.8721,-0.2086,0.1760,-85.69,999.51,312.81
21760,-3.8721,-0.2067,0.1753,1304.93,-1453.55,531.56
21770,-3.8721,-0.2175,0.1616,1554.93,-1547.30,31.56
21780,-3.8722,-0.2418,0.1393,164.31,702.70,-1765.32
21790,-3.8723,-0.2687,0.1077,1054.93,1843.26,-1124.76
21800,-3.8724,-0.2822,0.0670,1617.43,1796.33,1843.93
21810,-3.8727,-0.2728,0.0258,-116.94,593.14,-437.38
21820,-3.8728,-0.2433,-0.0066,1086.18,-688.05,1156.25
21830,-3.8729,-0.2030,-0.0273,867.43,-828.61,187.44
21840,-3.8730,-0.1599,-0.0304,-1976.32,515.20,-1312.56
21850,-3.8729,-0.1246,-0.0062,-460.69,124.63,1374.94
21860,-3.8728,-0.1073,0.0385,54.93,-781.49,-1546.94
21870,-3.8727,-0.1057,0.0765,-1726.32,937.26,-859.31
21880,-3.8726,-0.1136,0.0845,-1523.19,1812.26,1484.50
21890,-3.8726,-0.1234,0.0614,1461.18,-1172.12,343.87
21900,-3.8728,-0.1219,0.0204,211.18,-125.24,-1062.44
21910,-3.8730,-0.0997,-0.0345,398.68,-1375.24,1968.75
21920,-3.8733,-0.0577,-0.0945,-757.57,-406.49,312.38
21930,-3.8735,-0.0062,-0.1354,617.43,-78.25,515.38
21940,-3.8737,0.0432,-0.1432,-788.82,-1312.56,77.82
21950,-3.8738,0.0808,-0.1184,1539.31,1671.94,-406.56
21960,-3.8737,0.1000,-0.0677,-1648.19,843.87,1984.13
21970,-3.8735,0.1031,-0.0081,804.93,-671.69,1499.82
21980,-3.8734,0.0981,0.0297,1211.18,-1031.07,515.56
21990,-3.8734,0.0938,0.0322,570.56,-202.94,1453.12
22000,-3.8735,0.0989,0.0100,8.06,125.18,-78.06
22010,-3.8737,0.1201,-0.0245,664.31,1281.43,-203.12
22020,-3.8738,0.1704,-0.0682,-616.94,859.56,812.44
22030,-3.8740,0.2606,-0.1132,1820.56,-734.07,671.69
22040,-3.8743,0.3776,-0.1367,1367.43,1516.11,-1656.49
22050,-3.8744,0.4907,-0.1389,336.18,-1499.27,-609.68
22060,-3.8743,0.5701,-0.1361,-1179.44,-1780.33,1187.19
22070,-3.8740,0.5922,-0.0997,976.81,-1420.78,1187.19
22080,-3.8737,0.5480,-0.0104,-195.07,-764.53,796.63
22090,-3.8733,0.4528,0.0842,-1851.32,-1327.09,-1796.94
22100,-3.8728,0.3364,0.1312,1961.18,-1217.90,859.50
22110,-3.8724,0.2402,0.1167,-929.44,797.49,359.62
22120,-3.8723,0.2130,0.0605,-1241.94,-1062.07,1312.68
22130,-3.8723,0.2727,0.0043,-726.32,-249.63,953.19
22140,-3.8724,0.3895,-0.0228,-1085.69,547.36,1593.75
22150,-3.8726,0.5154,-0.0284,1867.43,1078.86,828.06
22160,-3.8727,0.6156,-0.0306,1976.81,360.35,406.19
22170,-3.8728,0.6755,-0.0278,-1195.07,79.28,1749.94
22180,-3.8728,0.6947,-0.0049,-1523.19,438.78,1999.94
22190,-3.8727,0.6798,0.0452,929.93,-623.66,-1125.06
22200,-3.8723,0.6433,0.1140,-976.32,1782.53,1000.06
22210,-3.8719,0.6068,0.1820,-1648.19,-1405.03,-1343.57
22220,-3.8715,0.5906,0.2267,1679.93,-701.97,344.06
22230,-3.8712,0.6055,0.2352,-398.19,1016.72,-1999.57
22240,-3.8711,0.6544,0.2125,1508.06,-1889.47,1734.80
22250,-3.8711,0.7247,0.1777,-226.32,-795.65,765.99
22260,-3.8712,0.7972,0.1543,773.68,-1248.60,1765.93
22270,-3.8713,0.8640,0.1562,-1945.07,-248.47,-499.76
22280,-3.8713,0.9218,0.1896,-1398.19,1.65,-124.69
22290,-3.8711,0.9525,0.2621,1992.43,267.40,625.37
22300,-3.8708,0.9353,0.3607,1929.93,1548.71,-1999.51
22310,-3.8705,0.8827,0.4434,-273.19,-1826.35,1891.30
22320,-3.8701,0.8323,0.4727,992.43,751.71,875.85
22330,-3.8700,0.8102,0.4447,-1460.69,501.59,-608.46
22340,-3.8700,0.8165,0.3931,-288.82,923.40,-124.15
22350,-3.8701,0.8248,0.3477,523.68,-1685.91,-858.64
22360,-3.8704,0.8136,0.3142,1586.18,501.59,-171.20
22370,-3.8705,0.7865,0.2913,148.68,220.34,750.61
22380,-3.8707,0.7544,0.2850,679.93,1282.78,-155.70
22390,-3.8707,0.7235,0.3073,570.56,485.84,-1686.95
22400,-3.8706,0.6935,0.3629,617.43,-670.47,734.92
22410,-3.8705,0.6652,0.4396,773.68,-1545.53,-1171.20
22420,-3.8702,0.6400,0.5103,1148.68,266.91,-1217.90
22430,-3.8700,0.6183,0.5500,1929.93,1313.72,1719.73
22440,-3.8699,0.5990,0.5505,-851.32,-1592.59,1063.54
22450,-3.8699,0.5831,0.5217,679.93,-1530.09,282.29
22460,-3.8700,0.5769,0.4877,-1351.32,-1217.65,1032.23
22470,-3.8701,0.5780,0.4694,1851.81,-1577.03,1704.04
22480,-3.8701,0.5720,0.4790,1992.43,79.22,422.79
22490,-3.8701,0.5465,0.5178,1226.81,1313.60,-1624.08
22500,-3.8700,0.5022,0.5707,1961.18,-1717.71,-889.65
22510,-3.8698,0.4502,0.6088,289.31,1047.85,1329.22
22520,-3.8696,0.4004,0.6169,1633.06,1922.73,-623.84
22530,-3.8695,0.3573,0.6047,-741.94,-1030.52,-201.97
22540,-3.8694,0.3217,0.5822,1742.43,1406.92,-1842.59
22550,-3.8694,0.2874,0.5596,1179.93,-1483.76,-1123.90
22560,-3.8694,0.2515,0.5459,789.31,-374.45,-1264.59
22570,-3.8694,0.2231,0.5371,195.56,1875.49,-1514.59
22580,-3.8694,0.2112,0.5280,570.56,750.43,-1436.46
22590,-3.8694,0.2163,0.5287,-960.69,-421.51,-936.52
22600,-3.8693,0.2308,0.5502,-304.44,-327.76,375.98
22610,-3.8693,0.2407,0.5870,1554.93,-1577.70,-483.34
22620,-3.8690,0.2241,0.6251,-1179.44,-858.95,735.47
22630,-3.8689,0.1652,0.6404,695.56,16.05,-1920.65
22640,-3.8688,0.0751,0.6105,1148.68,1969.06,610.60
22650,-3.8689,-0.0151,0.5398,1617.43,-1859.25,-1389.47
22660,-3.8690,-0.0898,0.4580,-1929.44,1109.31,313.54
22670,-3.8694,-0.1488,0.3964,508.06,-1359.56,-467.90
22680,-3.8696,-0.1844,0.3688,961.18,-1250.31,-655.52
22690,-3.8698,-0.1907,0.3683,398.68,-781.62,1625.67
22700,-3.8699,-0.1747,0.3763,-398.19,-844.18,1906.92
22710,-3.8700,-0.1545,0.3833,1648.68,187.13,-1124.27
22720,-3.8701,-0.1521,0.3916,226.81,1077.82,-296.14
22730,-3.8701,-0.1744,0.4064,539.31,-1859.68,625.73
22740,-3.8702,-0.2075,0.4240,1679.93,30.88,-1624.21
22750,-3.8702,-0.2311,0.4275,1445.56,-1719.18,407.04
22760,-3.8704,-0.2301,0.3984,-1570.07,-1266.11,157.04
22770,-3.8707,-0.2061,0.3396,-1445.07,-984.86,-233.64
22780,-3.8710,-0.1805,0.2791,1633.06,-516.05,813.11
22790,-3.8713,-0.1780,0.2410,898.68,-265.99,1922.36
22800,-3.8716,-0.2003,0.2227,1226.81,-1140.99,1437.93
22810,-3.8717,-0.2328,0.2169,-1632.57,515.20,578.55
22820,-3.8718,-0.2607,0.2146,-1788.82,-219.24,1859.74
22830,-3.8719,-0.2715,0.2053,-1366.94,-516.17,-593.38
22840,-3.8719,-0.2601,0.1913,1258.06,-1703.67,781.62
22850,-3.8721,-0.2296,0.1725,-1288.82,499.45,-1984.01
22860,-3.8722,-0.1866,0.1438,-1382.57,-1906.74,-1234.07
22870,-3.8723,-0.1426,0.1094,117.43,-1578.49,-1093.51
22880,-3.8724,-0.1111,0.0791,1758.06,-1984.68,-1046.69
22890,-3.8726,-0.1017,0.0544,1789.31,-1859.62,-249.88
22900,-3.8726,-0.1172,0.0388,-1007.57,-1015.87,-1359.31
22910,-3.8726,-0.1526,0.0381,1008.06,984.13,-203.06
22920,-3.8724,-0.1906,0.0486,476.81,890.32,-1968.69
22930,-3.8723,-0.2100,0.0635,-382.57,-1766.05,343.81
22940,-3.8723,-0.2041,0.0776,1133.06,140.20,-1656.13
22950,-3.8723,-0.1804,0.0836,1883.06,1952.70,-828.00
22960,-3.8723,-0.1506,0.0715,914.31,-1281.62,1984.50
22970,-3.8724,-0.1211,0.0436,726.81,1171.57,-1281.13
22980,-3.8726,-0.0957,0.0051,508.06,1593.51,-1906.19
22990,-3.8727,-0.0841,-0.0364,-241.94,671.63,1843.75
23000,-3.8728,-0.0911,-0.0665,1242.43,-640.81,-890.75
23010,-3.8728,-0.1106,-0.0780,351.81,-500.18,1984.19
23020,-3.8728,-0.1278,-0.0714,1851.81,-1968.99,1921.69
23030,-3.8728,-0.1255,-0.0570,-351.32,-1125.31,1687.32
23040,-3.8728,-0.0956,-0.0442,-54.44,718.44,796.75
23050,-3.8729,-0.0465,-0.0391,-226.32,-1640.87,-375.12
23060,-3.8729,0.0038,-0.0435,-1945.07,-984.50,-1343.87
23070,-3.8729,0.0453,-0.0476,492.43,-1562.50,-1609.50
23080,-3.8729,0.0768,-0.0454,1804.93,1906.31,-1593.87
23090,-3.8729,0.0996,-0.0476,1836.18,-1812.38,1437.38
23100,-3.8730,0.1182,-0.0647,758.06,1906.43,-687.62
23110,-3.8730,0.1346,-0.0896,-866.94,-281.07,499.82
23120,-3.8732,0.1478,-0.1123,1242.43,531.49,1343.57
