timestamp_ms,ax,ay,az,gx,gy,gz
0,-3.8740,0.2134,0.0007,992.43,1125.55,1843.75
10,-3.8740,0.1343,-0.0095,-679.44,94.12,1218.75
20,-3.8740,0.0461,-0.0115,1195.56,-1218.51,671.81
30,-3.8740,-0.0527,-0.0092,1914.31,-1468.69,234.31
40,-3.8740,-0.1527,-0.0109,1258.06,-1156.37,187.44
50,-3.8740,-0.2451,-0.0177,461.18,-1375.31,328.06
60,-3.8740,-0.3242,-0.0236,633.06,1749.51,734.31
70,-3.8740,-0.3850,-0.0183,-1491.94,999.33,-1515.69
80,-3.8739,-0.4292,0.0089,-1273.19,1671.08,-453.19
90,-3.8737,-0.4821,0.0573,1070.56,1155.40,-437.50
100,-3.8734,-0.5752,0.1056,-1695.07,-657.23,-468.69
110,-3.8732,-0.6863,0.1317,-1616.94,1530.09,968.93
120,-3.8730,-0.7653,0.1443,164.31,873.66,1609.62
130,-3.8728,-0.8383,0.1581,-1945.07,-1517.15,812.74
140,-3.8726,-0.9137,0.1754,711.18,248.35,-1234.07
150,-3.8722,-0.9442,0.2051,-945.07,-1533.08,1750.31
160,-3.8718,-0.9459,0.2550,-851.32,-1736.27,1328.49
170,-3.8715,-0.9260,0.3140,-1070.07,654.36,1328.61
180,-3.8711,-0.8850,0.3680,1476.81,201.29,1563.11
190,-3.8707,-0.8287,0.4237,-1273.19,-876.77,-1218.08
200,-3.8702,-0.7683,0.4869,1929.93,-1751.65,953.92
210,-3.8699,-0.7196,0.5471,1664.31,-1657.78,-233.46
220,-3.8694,-0.6946,0.5813,-101.32,-1954.59,1422.91
230,-3.8691,-0.6962,0.5803,-898.19,-1579.53,-639.53
240,-3.8689,-0.7075,0.5493,-1101.32,-1704.53,844.85
250,-3.8689,-0.7129,0.4995,1445.56,-1673.28,-889.59
260,-3.8688,-0.6899,0.4602,758.06,-48.28,125.92
270,-3.8688,-0.6294,0.4498,-304.44,-1079.53,1641.48
280,-3.8687,-0.5173,0.4670,-554.44,1592.47,953.98
290,-3.8685,-0.3558,0.5120,1789.31,-204.16,-1749.15
300,-3.8683,-0.1514,0.5734,-1538.82,1546.14,1625.98
310,-3.8680,0.0792,0.6357,633.06,1405.94,-1748.90
320,-3.8678,0.2948,0.6893,-1851.32,1375.12,-1858.15
330,-3.8677,0.4670,0.7174,1742.43,234.92,-467.41
340,-3.8676,0.5867,0.7045,-210.69,-171.02,970.09
350,-3.8677,0.6602,0.6517,-898.19,-1827.03,1876.34
360,-3.8679,0.6964,0.5826,508.06,-576.84,-1733.15
370,-3.8683,0.7039,0.5234,1148.68,-1420.53,-498.90
380,-3.8687,0.6967,0.4832,-1898.19,-998.66,-764.65
390,-3.8690,0.6857,0.4512,1179.93,1845.09,-1795.96
400,-3.8694,0.6719,0.4110,-226.32,1751.28,16.48
410,-3.8699,0.6479,0.3555,-1991.94,610.66,610.17
420,-3.8704,0.6268,0.2941,-1054.44,1501.22,594.42
430,-3.8708,0.6096,0.2467,242.43,1641.85,1406.80
440,-3.8712,0.5789,0.2218,-1960.69,-420.72,609.80
450,-3.8716,0.5460,0.2107,-1898.19,391.72,-1374.57
460,-3.8718,0.5242,0.2058,1898.68,-1030.21,-1218.38
470,-3.8721,0.5021,0.2032,-898.19,-1655.27,-609.01
480,-3.8723,0.4814,0.1997,273.68,-1983.40,-702.76
490,-3.8726,0.4769,0.1910,1633.06,1563.42,-1124.63
500,-3.8728,0.4800,0.1752,1054.93,454.04,-1280.88
510,-3.8730,0.4779,0.1525,1445.56,-1577.21,-1765.32
520,-3.8733,0.4644,0.1232,1179.93,-483.46,1281.49
530,-3.8735,0.4342,0.0923,-554.44,-233.52,750.18
540,-3.8738,0.3856,0.0641,-413.82,-186.71,1125.12
550,-3.8740,0.3210,0.0370,1367.43,203.86,-1499.88
560,-3.8741,0.2499,0.0127,1101.81,734.99,1234.44
570,-3.8743,0.1755,-0.0028,-7.57,1625.43,1640.62
580,-3.8744,0.0951,-0.0070,-1523.19,-359.07,-546.94
590,-3.8744,0.0084,-0.0032,179.93,-890.44,-1046.94
600,-3.8743,-0.0782,0.0045,1086.18,-406.25,234.31
610,-3.8743,-0.1599,0.0133,1992.43,593.57,1953.12
620,-3.8743,-0.2383,0.0214,-460.69,1718.38,-765.62
630,-3.8741,-0.3164,0.0270,1508.06,-1250.49,343.75
640,-3.8741,-0.3895,0.0300,-491.94,-531.92,1859.38
650,-3.8740,-0.4498,0.0304,-1851.32,-141.42,78.12
660,-3.8740,-0.4944,0.0328,-1570.07,-94.67,-687.50
670,-3.8739,-0.5540,0.0480,726.81,217.77,-187.44
680,-3.8737,-0.6324,0.0846,1101.81,-1844.85,-1968.69
690,-3.8734,-0.6919,0.1398,-945.07,-1157.53,-1249.88
700,-3.8730,-0.7466,0.2035,-554.44,1904.85,1593.99
710,-3.8727,-0.8185,0.2766,445.56,-1938.96,-1999.63
720,-3.8722,-0.8749,0.3563,-757.57,-579.77,594.24
730,-3.8717,-0.9198,0.4308,23.68,1623.29,-1499.33
740,-3.8711,-0.9562,0.5007,-1726.32,-845.58,-780.46
750,-3.8704,-0.9655,0.5676,1617.43,107.48,63.48
760,-3.8699,-0.9479,0.6232,429.93,669.98,-983.28
770,-3.8694,-0.9135,0.6450,-1320.07,-220.64,1610.53
780,-3.8691,-0.8673,0.6344,-913.82,-1423.71,-811.28
790,-3.8689,-0.8207,0.6042,992.43,1217.04,1548.10
800,-3.8688,-0.7861,0.5510,-1038.82,1357.73,1579.28
810,-3.8688,-0.7520,0.4919,-616.94,-1454.71,-202.09
820,-3.8687,-0.7101,0.4514,-241.94,-1017.15,657.17
830,-3.8687,-0.6577,0.4469,1117.43,1795.47,1891.48
840,-3.8685,-0.6049,0.4772,-179.44,1217.41,875.85
850,-3.8684,-0.5481,0.5183,-1413.82,1092.53,1500.92
860,-3.8683,-0.4786,0.5591,1851.81,-1641.72,-1108.40
870,-3.8680,-0.3809,0.5983,-1257.57,-422.85,407.29
880,-3.8679,-0.2574,0.6171,-741.94,592.96,407.41
890,-3.8679,-0.1163,0.6007,-945.07,-1000.55,1048.03
900,-3.8680,0.0295,0.5552,1117.43,906.01,-1905.09
910,-3.8682,0.1622,0.5061,-210.69,-937.50,94.79
920,-3.8684,0.2729,0.4763,773.68,781.56,157.23
930,-3.8687,0.3551,0.4729,-1054.44,969.24,532.17
940,-3.8689,0.4070,0.4916,1461.18,531.92,-967.83
950,-3.8690,0.4274,0.5074,101.81,-1077.33,-1608.46
960,-3.8691,0.4296,0.5051,-1288.82,953.92,172.85
970,-3.8695,0.4343,0.4905,-1007.57,657.04,-1530.27
980,-3.8699,0.4457,0.4622,-398.19,-1217.96,1141.54
990,-3.8704,0.4545,0.4133,1054.93,-842.90,1766.48
1000,-3.8708,0.4519,0.3500,-1820.07,907.10,1391.42
1010,-3.8713,0.4413,0.2893,1851.81,797.73,313.17
1020,-3.8719,0.4290,0.2443,492.43,1032.10,-140.08
1030,-3.8723,0.4143,0.2120,-1085.69,-733.58,1609.80
1040,-3.8727,0.3966,0.1819,1039.31,-858.58,1437.87
1050,-3.8730,0.3817,0.1447,-1226.32,-718.02,1922.18
1060,-3.8734,0.3778,0.0991,867.43,-1483.64,-1421.63
1070,-3.8737,0.3849,0.0592,367.43,688.23,672.06
1080,-3.8739,0.3885,0.0328,1273.68,-421.14,1343.81
1090,-3.8740,0.3790,0.0140,1742.43,203.86,250.06
1100,-3.8741,0.3444,0.0026,523.68,1797.61,796.88
1110,-3.8743,0.2742,0.0076,86.18,328.80,-609.38
1120,-3.8741,0.1854,0.0272,-898.19,969.24,296.88
1130,-3.8741,0.0992,0.0424,-257.57,-515.32,-1828.12
1140,-3.8741,0.0266,0.0405,711.18,1422.06,-609.31
1150,-3.8741,-0.0298,0.0250,-585.69,1187.50,-593.69
1160,-3.8741,-0.0795,0.0045,195.56,-781.31,-1500.00
1170,-3.8741,-0.1278,-0.0120,1836.18,593.57,1531.25
1180,-3.8741,-0.1738,-0.0189,-351.32,-1515.93,1609.31
1190,-3.8741,-0.2219,-0.0107,1758.06,1593.38,-250.06
1200,-3.8739,-0.2842,0.0144,-398.19,-1359.86,234.31
1210,-3.8738,-0.3639,0.0463,-366.94,1858.76,-2000.00
1220,-3.8735,-0.4482,0.0790,1429.93,1936.77,359.44
1230,-3.8734,-0.5222,0.1161,-1366.94,-1875.92,-953.00
1240,-3.8732,-0.6063,0.1582,1164.31,-1126.04,1797.06
1250,-3.8729,-0.6974,0.1968,-1601.32,264.40,344.06
1260,-3.8728,-0.7402,0.2249,-1257.57,1201.72,-1030.88
1270,-3.8726,-0.7527,0.2452,1258.06,795.41,1844.18
1280,-3.8723,-0.7603,0.2655,-335.69,-595.28,672.30
1290,-3.8721,-0.7434,0.2872,-1304.44,1998.47,94.24
1300,-3.8718,-0.7313,0.3187,851.81,779.79,1781.80
1310,-3.8715,-0.7329,0.3644,-1601.32,811.04,1266.24
1320,-3.8711,-0.7450,0.4122,-1804.44,-1345.21,1141.30
1330,-3.8707,-0.7683,0.4597,648.68,779.79,1672.67
1340,-3.8704,-0.7976,0.4999,1664.31,-1142.15,-1827.27
1350,-3.8700,-0.8302,0.5236,1914.31,-1.59,1907.17
1360,-3.8696,-0.8666,0.5287,1742.43,-970.40,344.73
1370,-3.8694,-0.9087,0.5143,1086.18,-314.21,985.35
1380,-3.8693,-0.9454,0.4840,-304.44,1841.92,-670.90
1390,-3.8691,-0.9631,0.4495,-1007.57,1966.86,-1045.96
1400,-3.8690,-0.9364,0.4307,726.81,1544.98,688.35
1410,-3.8690,-0.8555,0.4413,148.68,-861.21,-1952.33
1420,-3.8689,-0.7253,0.4883,-1491.94,498.29,860.23
1430,-3.8688,-0.5697,0.5654,-835.69,-1485.84,1954.04
1440,-3.8685,-0.3995,0.6610,-913.82,389.47,1922.97
1450,-3.8683,-0.2230,0.7477,867.43,624.21,-233.09
1460,-3.8680,-0.0509,0.7788,-538.82,-281.74,-389.22
1470,-3.8679,0.1060,0.7482,1492.43,-297.00,-1045.41
1480,-3.8679,0.2324,0.6864,1570.56,-234.19,1048.28
1490,-3.8682,0.3223,0.6194,1758.06,-140.20,-1529.97
1500,-3.8684,0.3737,0.5653,1258.06,-718.14,1469.91
1510,-3.8688,0.4001,0.5333,-163.82,360.05,-217.65
1520,-3.8690,0.4199,0.5197,-773.19,266.36,-1561.46
1530,-3.8693,0.4462,0.5118,1758.06,-1483.58,1610.35
1540,-3.8695,0.4858,0.4985,1117.43,1516.48,657.23
1550,-3.8699,0.5350,0.4774,-1804.44,-186.58,-795.96
1560,-3.8701,0.5780,0.4562,492.43,1110.41,1422.79
1570,-3.8705,0.5999,0.4369,1992.43,-1608.28,-608.52
1580,-3.8707,0.5989,0.4075,789.31,-76.97,766.42
1590,-3.8711,0.5851,0.3634,664.31,157.41,1641.42
1600,-3.8715,0.5609,0.3159,-1101.32,-1483.28,-1702.45
1610,-3.8718,0.5312,0.2806,-195.07,438.54,-921.26
1620,-3.8721,0.5067,0.2590,8.06,-77.09,500.49
1630,-3.8724,0.4752,0.2417,867.43,1157.23,-749.51
1640,-3.8727,0.4287,0.2227,836.18,-1061.58,-812.07
1650,-3.8729,0.3839,0.2029,-1116.94,500.79,-46.45
1660,-3.8730,0.3513,0.1859,1148.68,1969.48,1422.24
1670,-3.8733,0.3213,0.1691,976.81,-202.45,-1155.94
1680,-3.8735,0.2859,0.1492,1133.06,1641.24,-109.07
1690,-3.8737,0.2469,0.1289,601.81,-905.70,1375.24
1700,-3.8738,0.2021,0.1084,-382.57,500.43,640.87
1710,-3.8739,0.1510,0.0876,1883.06,1875.37,1437.68
1720,-3.8740,0.0980,0.0710,-663.82,-781.01,-1109.25
1730,-3.8740,0.0392,0.0607,554.93,1093.93,703.25
1740,-3.8741,-0.0365,0.0518,1023.68,-234.31,-1062.44
1750,-3.8741,-0.1270,0.0438,-663.82,-1359.50,-1921.81
1760,-3.8741,-0.2213,0.0459,-241.94,1624.69,-1578.06
1770,-3.8741,-0.3115,0.0598,-320.07,1890.14,-46.81
1780,-3.8740,-0.3856,0.0739,133.06,-328.74,-1906.19
1790,-3.8739,-0.4391,0.0854,-1351.32,1467.96,500.12
1800,-3.8739,-0.4760,0.1025,-195.07,-1047.79,-249.88
1810,-3.8737,-0.5342,0.1248,-913.82,1139.65,125.18
1820,-3.8735,-0.6320,0.1477,-366.94,-16.72,1000.18
1830,-3.8734,-0.7281,0.1742,-882.57,-1079.41,1609.62
1840,-3.8733,-0.8082,0.2026,-1195.07,-1688.96,-1968.44
1850,-3.8732,-0.8872,0.2196,554.93,1951.54,-1171.51
1860,-3.8729,-0.9330,0.2191,-1554.44,123.23,203.55
1870,-3.8728,-0.9447,0.2219,586.18,60.67,-296.45
1880,-3.8724,-0.9486,0.2559,-913.82,419.98,-1062.07
1890,-3.8719,-0.9431,0.3245,-1413.82,763.73,1734.86
1900,-3.8715,-0.9427,0.4147,-710.69,1544.98,-358.76
1910,-3.8708,-0.9504,0.5083,-663.82,1091.86,-1436.71
1920,-3.8702,-0.9535,0.5853,-1648.19,1076.23,563.48
1930,-3.8698,-0.9440,0.6237,1961.18,-1064.39,172.97
1940,-3.8695,-0.9164,0.6112,-820.07,-158.14,-108.22
1950,-3.8693,-0.8773,0.5656,-1288.82,-1751.83,-1014.47
1960,-3.8691,-0.8307,0.5167,-288.82,404.48,-1202.03
1970,-3.8690,-0.7736,0.4803,1679.93,-1845.40,1469.73
1980,-3.8690,-0.7053,0.4584,992.43,1498.47,-452.21
1990,-3.8689,-0.6277,0.4594,1726.81,-1313.90,-1796.02
2000,-3.8688,-0.5502,0.4896,-335.69,-1188.78,-1514.77
2010,-3.8685,-0.4615,0.5396,1586.18,-1313.60,797.79
2020,-3.8683,-0.3455,0.5922,929.93,1077.21,704.16
2030,-3.8680,-0.1909,0.6416,-210.69,-188.23,844.85
2040,-3.8679,-0.0135,0.6772,-429.44,-1859.80,-951.90
2050,-3.8678,0.1659,0.6912,-1726.32,-1296.94,-1795.59
2060,-3.8678,0.3362,0.6956,1242.43,469.06,-1264.28
2070,-3.8678,0.4775,0.6896,-960.69,1031.86,376.34
2080,-3.8680,0.5831,0.6572,1133.06,266.54,-1389.28
2090,-3.8683,0.6591,0.5989,-1351.32,126.10,1438.78
2100,-3.8687,0.7003,0.5338,367.43,657.53,1329.28
2110,-3.8691,0.6956,0.4825,1648.68,329.47,-1123.96
2120,-3.8696,0.6525,0.4459,1039.31,1766.97,-1092.83
2130,-3.8701,0.5900,0.4116,-476.32,1079.35,-717.90
2140,-3.8705,0.5361,0.3771,-476.32,688.60,1563.29
2150,-3.8708,0.5078,0.3478,633.06,266.66,1235.11
2160,-3.8712,0.4882,0.3307,1008.06,516.60,1781.92
2170,-3.8716,0.4688,0.3262,-1507.57,-1670.96,-968.14
2180,-3.8718,0.4597,0.3270,8.06,1750.92,906.86
2190,-3.8722,0.4656,0.3268,-1148.19,1860.23,-202.51
2200,-3.8724,0.4790,0.3160,-398.19,1828.98,-921.26
2210,-3.8727,0.4872,0.2866,1320.56,454.04,1688.11
2220,-3.8730,0.4827,0.2423,-1632.57,688.42,-218.20
2230,-3.8733,0.4594,0.1980,1789.31,-983.46,-1280.82
2240,-3.8735,0.4153,0.1663,-1195.07,1344.60,-687.13
2250,-3.8737,0.3545,0.1504,1164.31,1282.04,1765.93
2260,-3.8738,0.2833,0.1453,1383.06,-749.33,-1609.13
2270,-3.8738,0.2089,0.1429,273.68,-1405.70,734.62
2280,-3.8739,0.1309,0.1414,-1257.57,-1702.76,-249.76
2290,-3.8739,0.0531,0.1462,758.06,-1906.01,-656.01
2300,-3.8739,-0.0217,0.1583,-1195.07,-1281.19,-93.51
2310,-3.8738,-0.0985,0.1652,1226.81,281.19,1140.93
2320,-3.8738,-0.1838,0.1565,-601.32,1156.01,-1624.69
2330,-3.8738,-0.2843,0.1350,476.81,46.51,-671.57
2340,-3.8738,-0.3956,0.1089,-382.57,1296.26,-374.76
2350,-3.8738,-0.5028,0.0869,1367.43,1952.33,-1577.94
2360,-3.8739,-0.5771,0.0714,-351.32,-860.41,-31.13
2370,-3.8739,-0.6354,0.0549,-1866.94,1155.09,-1687.38
2380,-3.8739,-0.6893,0.0394,-1320.07,-954.41,-437.44
2390,-3.8738,-0.7081,0.0347,-226.32,1061.10,-624.94
2400,-3.8737,-0.7068,0.0416,1367.43,451.72,-484.31
2410,-3.8735,-0.7241,0.0609,1539.31,1342.35,-953.06
2420,-3.8734,-0.7524,0.0995,-679.44,-188.96,-390.56
2430,-3.8732,-0.7776,0.1476,-304.44,748.47,-702.94
2440,-3.8728,-0.8246,0.1792,476.81,-1095.28,1015.87
2450,-3.8724,-0.8580,0.1957,-1538.82,-1048.52,94.06
2460,-3.8721,-0.8608,0.2267,-1820.07,1060.79,1172.24
2470,-3.8717,-0.8666,0.2875,1820.56,1029.54,-937.07
2480,-3.8713,-0.8838,0.3478,1086.18,810.79,-77.58
2490,-3.8708,-0.8784,0.3884,-1116.94,529.48,1172.55
2500,-3.8704,-0.8296,0.4276,-429.44,1732.60,547.61
2510,-3.8699,-0.7609,0.4600,1820.56,-1251.65,188.29
2520,-3.8695,-0.6786,0.4482,-1382.57,-1110.90,1172.73
2530,-3.8693,-0.5914,0.3771,1148.68,1389.28,-1827.27
2540,-3.8690,-0.5172,0.2833,304.93,280.09,328.86
2550,-3.8689,-0.4740,0.2231,1804.93,280.21,469.30
2560,-3.8689,-0.4624,0.2257,-663.82,577.15,-874.57
2570,-3.8687,-0.4685,0.2743,820.56,905.33,78.55
2580,-3.8684,-0.4707,0.3387,39.31,-875.92,-1327.64
2590,-3.8679,-0.4385,0.4084,-241.94,-625.98,203.74
2600,-3.8677,-0.3553,0.4725,-116.94,295.96,-296.08
2610,-3.8673,-0.2139,0.5088,-1476.32,499.27,79.04
2620,-3.8672,-0.0126,0.5127,633.06,1140.20,-1014.65
2630,-3.8671,0.2122,0.4929,-1601.32,1640.56,-92.77
2640,-3.8671,0.4270,0.4585,-835.69,-905.88,-45.96
2650,-3.8672,0.6243,0.4220,-1335.69,-1311.71,-1749.15
2660,-3.8674,0.7709,0.3949,-85.69,-1983.22,563.29
2670,-3.8679,0.8207,0.3801,-1320.07,-1451.66,-202.39
2680,-3.8683,0.7809,0.3661,1054.93,657.84,735.11
2690,-3.8688,0.7050,0.3392,-38.82,-1139.16,844.42
2700,-3.8693,0.6311,0.3031,-1757.57,-576.78,1109.99
2710,-3.8698,0.5640,0.2675,789.31,-1201.90,-1952.58
2720,-3.8702,0.5056,0.2407,195.56,-1764.53,-233.89
2730,-3.8706,0.4628,0.2311,726.81,-1186.52,-1593.32
2740,-3.8710,0.4205,0.2223,-757.57,1578.98,-1343.32
2750,-3.8712,0.3679,0.2050,1836.18,453.92,750.43
2760,-3.8716,0.3304,0.1973,-898.19,-1764.95,-702.76
2770,-3.8718,0.3329,0.1998,-1695.07,1250.61,1625.37
2780,-3.8721,0.3595,0.2034,-1382.57,1578.74,359.74
2790,-3.8724,0.3739,0.2078,-1976.32,-1968.08,-452.76
2800,-3.8727,0.3646,0.2124,-132.57,-1405.58,-984.01
2810,-3.8729,0.3450,0.2061,-1320.07,-811.83,-1655.88
2820,-3.8732,0.3212,0.1819,164.31,-1624.33,1734.74
2830,-3.8734,0.2859,0.1410,1117.43,-718.14,1000.31
2840,-3.8738,0.2316,0.0856,601.81,-1952.58,-421.63
2850,-3.8740,0.1566,0.0276,1648.68,-1046.45,-1687.38
2860,-3.8743,0.0709,-0.0172,54.93,-468.44,-1375.00
2870,-3.8744,-0.0092,-0.0348,1086.18,1797.00,1406.19
2880,-3.8745,-0.0798,-0.0216,-1163.82,-437.56,-1406.37
2890,-3.8745,-0.1495,0.0028,1789.31,1249.82,-1953.19
2900,-3.8745,-0.2234,0.0181,867.43,374.69,-265.62
2910,-3.8744,-0.2987,0.0176,-585.69,-1672.36,-843.75
2920,-3.8743,-0.3802,0.0062,1773.68,-1734.99,-1531.25
2930,-3.8741,-0.4668,-0.0055,-663.82,811.71,421.88
2940,-3.8741,-0.5394,-0.0157,258.06,-688.42,1453.06
2950,-3.8741,-0.5936,-0.0273,-1038.82,1998.90,-1140.69
2960,-3.8740,-0.6321,-0.0345,23.68,514.47,1703.06
2970,-3.8739,-0.6550,-0.0195,-898.19,-407.53,1484.25
2980,-3.8738,-0.6736,0.0237,164.31,1514.34,1937.44
2990,-3.8735,-0.6980,0.0725,1789.31,-954.47,296.88
3000,-3.8733,-0.7306,0.1104,-1335.69,1295.47,1093.87
3010,-3.8729,-0.7606,0.1472,-1507.57,-1860.84,187.68
3020,-3.8726,-0.7854,0.1931,-1351.32,-1142.15,1687.74
3030,-3.8721,-0.8077,0.2427,-523.19,732.79,1187.87
3040,-3.8716,-0.8239,0.2933,617.43,-923.46,1062.93
3050,-3.8712,-0.8337,0.3491,-1445.07,1560.85,-155.70
3060,-3.8707,-0.8368,0.4010,1289.31,701.48,1391.30
3070,-3.8704,-0.8324,0.4376,898.68,-657.90,1922.61
3080,-3.8700,-0.8174,0.4574,1461.18,29.60,1735.23
3090,-3.8696,-0.7922,0.4540,-616.94,-1439.15,797.73
3100,-3.8694,-0.7595,0.4269,-1398.19,-1876.59,-1624.15
3110,-3.8691,-0.7201,0.3934,-1210.69,-1345.28,-1842.96
3120,-3.8689,-0.6754,0.3796,-163.82,-1626.46,547.61
3130,-3.8688,-0.6228,0.4021,1554.93,608.03,-1686.77
3140,-3.8685,-0.5693,0.4535,289.31,-516.85,188.23
3150,-3.8684,-0.5195,0.5101,-866.94,-1938.66,-1827.27
3160,-3.8683,-0.4612,0.5453,1508.06,1311.46,-733.40
3170,-3.8682,-0.3822,0.5348,976.81,1811.58,1657.29
3180,-3.8682,-0.2698,0.4843,-913.82,467.96,1704.16
3190,-3.8682,-0.1287,0.4359,1476.81,1999.45,1844.67
3200,-3.8680,0.0184,0.4276,-460.69,-187.81,125.79
3210,-3.8679,0.1544,0.4563,-1632.57,-1265.62,125.79
3220,-3.8679,0.2697,0.4939,-226.32,-1593.51,-358.52
3230,-3.8678,0.3629,0.5237,-1476.32,-780.76,1188.42
3240,-3.8678,0.4379,0.5511,-1538.82,-968.08,829.10
3250,-3.8679,0.4978,0.5745,54.93,-1452.27,-1577.09
3260,-3.8680,0.5392,0.5702,-273.19,1532.17,891.72
3270,-3.8684,0.5558,0.5215,1023.68,985.41,-1170.78
3280,-3.8689,0.5476,0.4312,-851.32,-1248.96,-280.27
3290,-3.8694,0.5245,0.3240,-1898.19,-811.46,1500.79
3300,-3.8700,0.4972,0.2334,-851.32,1469.73,-1249.39
3310,-3.8705,0.4670,0.1814,-351.32,1875.92,1609.80
3320,-3.8710,0.4337,0.1705,-210.69,-780.40,-327.82
3330,-3.8712,0.3981,0.1829,-476.32,1828.92,1156.56
3340,-3.8715,0.3632,0.1976,-1038.82,-593.02,1062.81
3350,-3.8717,0.3359,0.2042,-1507.57,1297.55,-1921.51
3360,-3.8719,0.3220,0.2101,-991.94,-1858.76,-93.38
3370,-3.8721,0.3254,0.2291,1226.81,-1108.76,-1327.76
3380,-3.8722,0.3430,0.2537,1664.31,1328.74,1656.68
3390,-3.8724,0.3672,0.2633,-85.69,469.36,-155.76
3400,-3.8726,0.3934,0.2472,-991.94,1703.80,328.61
3410,-3.8729,0.4165,0.2164,-1632.57,-358.64,-452.70
3420,-3.8732,0.4233,0.1910,1320.56,-296.08,-1265.26
3430,-3.8734,0.4043,0.1740,-1804.44,453.92,-1718.38
3440,-3.8737,0.3590,0.1555,-241.94,-1733.64,-1655.94
3450,-3.8739,0.2887,0.1320,1961.18,-93.08,-734.13
3460,-3.8740,0.1959,0.1101,961.18,891.17,1281.49
3470,-3.8741,0.0896,0.0907,1086.18,-1905.88,359.56
3480,-3.8743,-0.0142,0.0714,-523.19,-390.50,1078.25
3490,-3.8743,-0.1089,0.0524,-1804.44,1156.19,328.25
3500,-3.8743,-0.2007,0.0349,-1929.44,-1281.49,1593.81
3510,-3.8743,-0.2938,0.0287,-1679.44,483.95,-406.19
3520,-3.8741,-0.3879,0.0320,-1601.32,-313.11,1703.12
3530,-3.8741,-0.4647,0.0312,-1648.19,108.58,-78.06
3540,-3.8740,-0.5273,0.0170,523.68,14.71,-1843.69
3550,-3.8739,-0.5760,-0.0088,508.06,-1813.54,437.50
3560,-3.8739,-0.5818,-0.0269,-1726.32,-1110.53,-593.81
3570,-3.8738,-0.5760,-0.0223,1539.31,576.97,-140.69
3580,-3.8735,-0.6011,0.0110,-1726.32,1155.09,1718.69
3590,-3.8734,-0.6428,0.0619,-929.44,1420.65,-687.50
3600,-3.8733,-0.7050,0.1073,1726.81,-63.78,-203.06
3610,-3.8730,-0.7782,0.1451,1773.68,1748.60,437.68
3620,-3.8729,-0.8447,0.1716,398.68,-1407.78,-1702.88
3630,-3.8727,-0.8975,0.1849,-116.94,1982.67,-1796.57
3640,-3.8724,-0.9268,0.2069,1133.06,-314.27,-234.07
3650,-3.8721,-0.9249,0.2644,1383.06,-1501.83,-1077.76
3660,-3.8716,-0.8884,0.3665,1617.43,1857.54,859.86
3670,-3.8711,-0.8307,0.4912,-1710.69,-1079.90,1578.80
3680,-3.8706,-0.7578,0.5905,1679.93,-1111.02,-655.33
3690,-3.8701,-0.6853,0.6251,-991.94,-407.78,-1139.53
3700,-3.8698,-0.6265,0.5996,289.31,29.91,-1592.53
3710,-3.8695,-0.6017,0.5413,-179.44,764.34,-858.22
3720,-3.8693,-0.6217,0.4772,-1007.57,1295.65,-1170.84
3730,-3.8690,-0.6757,0.4298,429.93,1092.53,-1905.33
3740,-3.8688,-0.7507,0.4250,1523.68,-970.09,-1374.21
3750,-3.8684,-0.8197,0.4696,-85.69,-1579.65,1516.42
3760,-3.8680,-0.8547,0.5332,-913.82,123.35,1360.29
3770,-3.8677,-0.8345,0.5898,-1398.19,263.92,1063.54
3780,-3.8674,-0.7440,0.6285,1195.56,-486.02,-545.78
3790,-3.8672,-0.5850,0.6571,773.68,467.29,-998.78
3800,-3.8671,-0.3799,0.6788,1133.06,123.84,-733.09
3810,-3.8669,-0.1622,0.6716,-616.94,-1094.54,845.03
3820,-3.8669,0.0480,0.6365,-757.57,1984.01,970.03
3830,-3.8671,0.2368,0.5980,-1851.32,1468.81,-748.78
3840,-3.8672,0.3943,0.5758,-1679.44,547.30,-1764.47
3850,-3.8674,0.5156,0.5739,-1523.19,1703.86,1563.60
3860,-3.8678,0.5959,0.5786,-1991.94,1454.10,-1905.15
3870,-3.8682,0.6506,0.5800,289.31,-1936.34,1751.10
3880,-3.8685,0.6979,0.5862,-710.69,-1764.40,1641.72
3890,-3.8689,0.7347,0.5970,1336.18,-967.41,1251.10
3900,-3.8694,0.7494,0.5886,-1945.07,423.28,-733.22
3910,-3.8699,0.7373,0.5385,-70.07,-654.85,-1639.53
3920,-3.8705,0.7020,0.4462,-1616.94,923.28,-1733.34
3930,-3.8711,0.6786,0.3409,1867.43,1110.72,516.48
3940,-3.8718,0.6770,0.2544,-1132.57,-358.09,-796.26
3950,-3.8723,0.6660,0.2056,-1335.69,563.78,687.99
3960,-3.8728,0.6528,0.1926,1258.06,-1686.22,-1343.38
3970,-3.8730,0.6379,0.1979,-429.44,657.47,1312.87
3980,-3.8733,0.6100,0.2161,1664.31,1329.35,-796.51
3990,-3.8734,0.5731,0.2350,-1913.82,-342.59,1828.49
4000,-3.8737,0.5284,0.2318,1367.43,-1920.78,-202.70
4010,-3.8738,0.4738,0.2030,-351.32,1672.85,1437.93
4020,-3.8740,0.4062,0.1614,648.68,1985.29,-999.63
4030,-3.8741,0.3271,0.1249,8.06,657.04,859.68
4040,-3.8743,0.2363,0.1024,1883.06,-15.01,125.18
4050,-3.8744,0.1393,0.0894,-1741.94,1109.80,1218.93
4060,-3.8745,0.0465,0.0778,1836.18,-562.26,-499.88
4070,-3.8745,-0.0388,0.0653,1961.18,1953.19,-1859.25
4080,-3.8745,-0.1182,0.0532,-960.69,374.88,1281.37
4090,-3.8745,-0.1912,0.0461,883.06,-1172.12,1828.19
4100,-3.8744,-0.2579,0.0547,-460.69,1921.45,578.19
4110,-3.8743,-0.3234,0.0747,-1007.57,-984.92,531.31
4120,-3.8743,-0.3889,0.0889,-1382.57,1577.45,-437.38
4130,-3.8741,-0.4393,0.0911,-1773.19,-610.17,1937.62
4140,-3.8740,-0.4816,0.0912,-226.32,-329.04,1515.75
4150,-3.8739,-0.5497,0.0970,-1632.57,-313.48,-1265.50
4160,-3.8737,-0.6412,0.0972,1648.68,436.40,172.06
4170,-3.8735,-0.7258,0.0768,1929.93,451.84,234.56
4180,-3.8735,-0.8154,0.0387,-898.19,1842.29,-1890.50
4190,-3.8735,-0.9078,0.0017,-366.94,967.10,-1421.81
4200,-3.8735,-0.9702,-0.0112,-195.07,232.54,-343.75
4210,-3.8734,-1.0198,0.0201,-179.44,-1423.83,-671.94
4220,-3.8732,-1.0596,0.1074,1476.81,-1408.26,-812.50
4230,-3.8727,-1.0978,0.2336,383.06,1763.55,640.81
4240,-3.8721,-1.1421,0.3604,-507.57,1919.68,172.30
4250,-3.8715,-1.1810,0.4521,1820.56,-1861.63,-1374.33
4260,-3.8707,-1.2085,0.5009,836.18,1888.31,282.10
4270,-3.8702,-1.2048,0.5212,1320.56,122.62,-920.90
4280,-3.8698,-1.1766,0.5233,1789.31,-1268.01,1157.23
4290,-3.8695,-1.1306,0.5063,1398.68,-1002.32,-1874.02
4300,-3.8694,-1.0787,0.4658,-710.69,825.87,-1092.77
4310,-3.8693,-1.0287,0.4237,1929.93,-361.51,-1639.77
4320,-3.8691,-0.9796,0.4137,336.18,-1752.01,-1077.33
4330,-3.8689,-0.9305,0.4368,-1382.57,966.80,922.67
4340,-3.8687,-0.8578,0.4794,898.68,-79.96,797.67
4350,-3.8684,-0.7534,0.5320,-1788.82,1373.29,-1702.21
4360,-3.8682,-0.6233,0.5872,-429.44,107.85,-405.21
4370,-3.8679,-0.4741,0.6388,226.81,-829.35,-1186.40
4380,-3.8678,-0.3066,0.6747,-679.44,1780.27,-233.15
4390,-3.8677,-0.1227,0.6799,758.06,-1625.61,-1170.59
4400,-3.8676,0.0668,0.6537,304.93,-953.37,1.28
4410,-3.8677,0.2466,0.6072,554.93,-328.00,-576.90
4420,-3.8677,0.3885,0.5498,-429.44,1719.18,923.03
4430,-3.8678,0.4709,0.4968,1742.43,-1624.27,547.91
4440,-3.8680,0.4917,0.4707,289.31,-405.33,-983.46
4450,-3.8682,0.4768,0.4827,-1054.44,250.92,1063.42
4460,-3.8684,0.4686,0.5229,1039.31,1782.17,-499.08
4470,-3.8685,0.4902,0.5690,-7.57,-1061.65,-1624.02
4480,-3.8687,0.5315,0.5939,-1241.94,829.04,32.35
4490,-3.8690,0.5654,0.5760,39.31,16.66,1360.53
4500,-3.8695,0.5753,0.5029,383.06,1735.47,688.60
4510,-3.8702,0.5656,0.3906,1648.68,376.10,-358.40
4520,-3.8708,0.5417,0.2837,398.68,-1998.90,1453.86
4530,-3.8715,0.5038,0.2136,1351.81,313.54,859.92
4540,-3.8719,0.4552,0.1862,492.43,-655.27,140.99
4550,-3.8723,0.3976,0.1912,-1726.32,-171.02,31.56
4560,-3.8727,0.3431,0.2086,-1101.32,469.48,-780.88
4570,-3.8728,0.3065,0.2233,-70.07,-1296.26,500.37
4580,-3.8730,0.2866,0.2322,-757.57,578.67,-390.20
4590,-3.8732,0.2771,0.2361,695.56,1719.30,-733.95
4600,-3.8733,0.2719,0.2366,-523.19,-1780.76,-1577.70
4610,-3.8734,0.2606,0.2318,-1195.07,-1718.26,1391.05
4620,-3.8737,0.2310,0.2144,1367.43,1672.36,-499.57
4630,-3.8738,0.1813,0.1805,1570.56,-562.07,62.87
4640,-3.8740,0.1176,0.1382,-788.82,-890.32,15.93
4650,-3.8743,0.0448,0.1052,-945.07,1687.68,1328.37
4660,-3.8744,-0.0336,0.0868,1742.43,1468.81,812.68
4670,-3.8745,-0.1156,0.0760,-288.82,-875.12,-1921.75
4680,-3.8745,-0.2035,0.0758,1211.18,1749.76,1281.37
4690,-3.8745,-0.3024,0.0897,1961.18,1718.32,-1687.38
4700,-3.8744,-0.4089,0.1095,1304.93,-500.61,1062.62
4710,-3.8743,-0.5109,0.1191,-335.69,-1969.60,812.68
4720,-3.8743,-0.5828,0.1135,-1382.57,-735.41,-312.32
4730,-3.8741,-0.6389,0.1029,1414.31,-1454.28,1047.06
4740,-3.8741,-0.7010,0.1062,-1773.19,1186.22,-1452.94
4750,-3.8740,-0.7461,0.1318,-1726.32,1607.97,953.31
4760,-3.8740,-0.7660,0.1633,508.06,889.16,-343.51
4770,-3.8739,-0.8019,0.1761,1961.18,920.35,-1593.44
4780,-3.8738,-0.8645,0.1682,1367.43,-1439.09,734.68
4790,-3.8738,-0.9113,0.1671,1351.81,1545.17,-140.32
4800,-3.8735,-0.9550,0.2001,-632.57,1404.42,1781.56
4810,-3.8733,-0.9996,0.2637,1773.68,1623.11,-1874.63
4820,-3.8729,-1.0383,0.3337,54.93,1763.67,125.49
4830,-3.8726,-1.0682,0.4150,-898.19,-1267.70,1281.86
4840,-3.8721,-1.0834,0.5138,-726.32,1138.49,1516.42
4850,-3.8716,-1.0762,0.6082,1336.18,1779.11,-45.90
4860,-3.8708,-1.0438,0.6753,-1741.94,1857.24,79.28
4870,-3.8702,-1.0015,0.7061,-1601.32,-1548.95,782.53
4880,-3.8696,-0.9656,0.7070,-179.44,-1611.39,860.72
4890,-3.8691,-0.9497,0.6866,414.31,-1486.27,-1748.66
4900,-3.8688,-0.9515,0.6508,-1554.44,-95.64,-1358.09
4910,-3.8685,-0.9592,0.6113,-1788.82,-689.39,-1920.65
4920,-3.8683,-0.9449,0.5873,1226.81,-1736.27,563.66
4930,-3.8680,-0.8978,0.5854,-945.07,-814.39,516.72
4940,-3.8678,-0.8032,0.6014,1086.18,-1048.65,1876.10
4950,-3.8676,-0.6605,0.6302,1195.56,998.41,-45.72
4960,-3.8672,-0.4818,0.6774,-538.82,686.16,-1764.40
4970,-3.8668,-0.2784,0.7372,-1663.82,-1282.23,360.66
4980,-3.8666,-0.0743,0.7764,367.43,-1625.55,1157.65
4990,-3.8665,0.1105,0.7733,-1507.57,-609.56,-1420.41
5000,-3.8665,0.2694,0.7305,-1851.32,-1015.44,1954.59
5010,-3.8667,0.3995,0.6698,-1507.57,1500.49,-936.10
5020,-3.8671,0.4952,0.6172,-851.32,1735.11,-108.09
5030,-3.8674,0.5559,0.5833,-601.32,-999.08,-1436.34
5040,-3.8678,0.5839,0.5629,-835.69,-1342.71,844.85
5050,-3.8683,0.5874,0.5398,-1257.57,47.97,-780.15
5060,-3.8687,0.5760,0.5022,-804.44,1094.85,1094.79
5070,-3.8691,0.5515,0.4536,1742.43,282.35,1329.10
5080,-3.8698,0.5142,0.4023,-1398.19,-1936.46,-108.52
5090,-3.8702,0.4772,0.3538,1820.56,-499.02,-1764.89
5100,-3.8707,0.4568,0.3179,1086.18,1282.17,-1389.95
5110,-3.8711,0.4545,0.3047,-1523.19,688.35,1703.74
5120,-3.8715,0.4622,0.3069,-1820.07,-999.15,-1749.45
5130,-3.8718,0.4733,0.3071,-835.69,-717.90,-718.20
5140,-3.8721,0.4825,0.2997,586.18,-686.58,281.80
5150,-3.8724,0.4851,0.2877,1773.68,-1639.71,906.80
5160,-3.8728,0.4817,0.2666,-1898.19,829.04,328.67
5170,-3.8733,0.4763,0.2307,1664.31,-1874.08,-1562.01
5180,-3.8737,0.4683,0.1869,976.81,1532.17,1375.43
5190,-3.8740,0.4432,0.1445,-54.44,-77.27,-1484.07
5200,-3.8743,0.3950,0.1056,742.43,-1499.15,1437.74
5210,-3.8745,0.3353,0.0717,-1429.44,1516.36,1984.56
5220,-3.8748,0.2612,0.0466,-1070.07,1172.49,-187.38
5230,-3.8749,0.1711,0.0322,1445.56,1969.24,-953.06
5240,-3.8749,0.0842,0.0259,1914.31,125.31,109.44
5250,-3.8750,0.0083,0.0220,-1210.69,-687.38,-1234.38
5260,-3.8750,-0.0643,0.0192,1070.56,-1187.50,-1593.75
5270,-3.8750,-0.1394,0.0227,-226.32,-1531.43,-890.62
5280,-3.8749,-0.2192,0.0371,-1835.69,-1078.43,1250.00
5290,-3.8748,-0.3071,0.0590,-54.44,765.14,171.94
5300,-3.8748,-0.4009,0.0818,695.56,-438.11,-1203.06
5310,-3.8746,-0.4951,0.1038,695.56,-1516.42,750.12
5320,-3.8746,-0.5774,0.1217,633.06,1295.90,-1734.19
5330,-3.8746,-0.6586,0.1273,-1898.19,-407.41,-406.07
5340,-3.8745,-0.7439,0.1241,-288.82,311.16,734.62
5350,-3.8745,-0.8005,0.1324,789.31,-95.21,-1781.07
5360,-3.8744,-0.8228,0.1670,1539.31,967.16,-1421.63
5370,-3.8741,-0.8590,0.2240,-1304.44,1388.98,-1155.94
5380,-3.8738,-0.9185,0.2886,-1945.07,685.79,1203.55
5390,-3.8734,-0.9775,0.3524,-1554.44,951.29,1344.30
5400,-3.8730,-1.0569,0.4207,-1116.94,1123.05,-280.58
5410,-3.8726,-1.1484,0.4951,726.81,1857.30,-889.83
5420,-3.8721,-1.2379,0.5687,1008.06,-611.63,-561.58
5430,-3.8715,-1.3080,0.6436,1554.93,810.06,-1764.53
5440,-3.8708,-1.3318,0.7196,586.18,-1611.94,-1405.03
5450,-3.8702,-1.3107,0.7866,1539.31,122.38,-1482.97
5460,-3.8696,-1.2529,0.8268,242.43,700.56,1454.65
5470,-3.8691,-1.1896,0.8291,-366.94,1841.25,-826.54
5480,-3.8687,-1.1302,0.8092,-257.57,-1861.76,-904.66
5490,-3.8682,-1.0668,0.7963,-663.82,-408.51,501.53
5500,-3.8679,-0.9951,0.7982,-538.82,1935.36,-701.60
5510,-3.8676,-0.9110,0.7979,633.06,-1814.45,48.40
5520,-3.8674,-0.8196,0.7827,-601.32,-1861.21,-1857.85
5530,-3.8673,-0.7018,0.7623,-898.19,201.48,1282.78
5540,-3.8673,-0.5441,0.7411,-1820.07,1592.35,1470.21
5550,-3.8673,-0.3484,0.7228,-1632.57,-1126.10,1063.90
5560,-3.8673,-0.1366,0.7238,-585.69,530.52,-467.35
5570,-3.8671,0.0599,0.7430,-1476.32,655.94,360.78
5580,-3.8671,0.2136,0.7498,-320.07,-890.56,-389.22
5590,-3.8671,0.3049,0.7173,-648.19,-30.88,-1420.47
5600,-3.8672,0.3392,0.6504,-960.69,-186.95,1141.97
5610,-3.8674,0.3372,0.5732,-570.07,-749.39,48.10
5620,-3.8678,0.3456,0.5107,-835.69,1375.61,344.85
5630,-3.8683,0.3955,0.4646,242.43,1375.67,-1030.27
5640,-3.8687,0.4718,0.4276,-1366.94,-530.52,985.23
5650,-3.8691,0.5487,0.3989,398.68,-1264.71,-1171.08
5660,-3.8695,0.6108,0.3766,-1757.57,-936.46,578.86
5670,-3.8700,0.6564,0.3557,-1804.44,204.28,-1483.64
5680,-3.8704,0.6884,0.3286,23.68,1532.53,328.80
5690,-3.8708,0.7025,0.2911,117.43,-1936.16,1188.11
5700,-3.8713,0.6891,0.2465,1929.93,1266.97,938.05
5710,-3.8718,0.6638,0.2017,211.18,-451.78,531.68
5720,-3.8723,0.6458,0.1595,976.81,1813.78,656.62
5730,-3.8728,0.6250,0.1174,-1335.69,423.10,-1843.44
5740,-3.8732,0.5935,0.0793,8.06,-967.53,-1796.69
5750,-3.8734,0.5658,0.0599,-23.19,-1842.65,1843.87
5760,-3.8735,0.5449,0.0630,429.93,-327.03,562.56
5770,-3.8737,0.5117,0.0765,1758.06,63.54,343.87
5780,-3.8738,0.4694,0.0889,1508.06,1797.85,172.00
5790,-3.8739,0.4203,0.0955,86.18,-624.08,562.62
5800,-3.8740,0.3497,0.0977,1804.93,219.54,1890.81
5810,-3.8741,0.2578,0.0916,773.68,500.67,-609.19
5820,-3.8741,0.1593,0.0723,1008.06,-280.76,312.62
5830,-3.8743,0.0685,0.0421,398.68,1250.31,375.12
5840,-3.8744,-0.0118,0.0098,773.68,1390.75,328.19
5850,-3.8745,-0.0868,-0.0122,-1507.57,1265.56,1437.50
5860,-3.8745,-0.1597,-0.0173,898.68,-1547.06,468.69
5870,-3.8745,-0.2323,-0.0140,-429.44,1796.51,921.81
5880,-3.8745,-0.3031,-0.0092,-1726.32,-1781.74,-1546.94
5890,-3.8744,-0.3737,-0.0034,1211.18,-1156.86,1046.81
5900,-3.8743,-0.4485,0.0005,179.93,-422.61,31.19
5910,-3.8743,-0.5145,0.0017,-1398.19,77.21,-1328.12
5920,-3.8741,-0.5854,0.0072,-1851.32,233.34,1125.00
5930,-3.8740,-0.6710,0.0325,1070.56,936.34,781.25
5940,-3.8739,-0.7401,0.0804,-1882.57,170.53,1546.94
5950,-3.8738,-0.7975,0.1299,1273.68,-1688.96,-1749.88
5960,-3.8737,-0.8590,0.1680,1929.93,639.04,-1265.38
5970,-3.8735,-0.8916,0.2053,-1945.07,1513.92,-640.32
5980,-3.8733,-0.8998,0.2507,1883.06,-1704.90,-1499.63
5990,-3.8729,-0.9006,0.3068,836.18,107.60,1859.86
6000,-3.8726,-0.8926,0.3724,726.81,-720.52,-233.83
6010,-3.8721,-0.8857,0.4490,1758.06,-314.27,-624.33
6020,-3.8716,-0.8875,0.5287,-1366.94,1482.60,-514.77
6030,-3.8711,-0.8892,0.5962,-1585.69,-314.27,-905.27
6040,-3.8706,-0.8818,0.6443,-1804.44,326.35,-1264.47
6050,-3.8701,-0.8721,0.6781,-866.94,-1517.40,-1201.90
6060,-3.8696,-0.8741,0.7040,383.06,-1189.21,-1061.22
6070,-3.8691,-0.8988,0.7173,117.43,-1876.71,1610.72
6080,-3.8688,-0.9371,0.7201,961.18,-173.65,1954.47
6090,-3.8684,-0.9832,0.7230,54.93,185.67,392.03
6100,-3.8682,-1.0082,0.7288,-1835.69,560.55,1626.40
6110,-3.8679,-0.9913,0.7319,-1038.82,1294.86,1110.78
6120,-3.8678,-0.9114,0.7334,1117.43,1701.17,1720.15
6130,-3.8678,-0.7594,0.7335,-648.19,1888.79,-311.10
6140,-3.8677,-0.5546,0.7401,-1195.07,1904.72,1860.78
6150,-3.8676,-0.3295,0.7628,1023.68,-1251.10,-1764.22
6160,-3.8674,-0.1245,0.7823,1836.18,1655.58,-732.91
6170,-3.8673,0.0465,0.7683,70.56,156.01,-1404.72
6180,-3.8673,0.1794,0.7133,1961.18,-1656.19,-1123.54
6190,-3.8674,0.2649,0.6382,-1023.19,-702.82,-576.78
6200,-3.8676,0.3135,0.5728,1914.31,1687.99,407.47
6210,-3.8679,0.3462,0.5333,133.06,1313.11,-389.53
6220,-3.8682,0.3782,0.5181,320.56,266.30,-436.46
6230,-3.8683,0.4153,0.5149,414.31,-1686.77,1407.23
6240,-3.8684,0.4513,0.5175,1164.31,1907.04,329.10
6250,-3.8687,0.4771,0.5172,1773.68,-1764.77,1891.60
6260,-3.8689,0.4939,0.5032,1070.56,-1795.96,172.85
6270,-3.8694,0.5101,0.4701,-773.19,407.17,-764.65
6280,-3.8698,0.5271,0.4164,1304.93,172.85,110.29
6290,-3.8704,0.5436,0.3485,-523.19,1297.85,-655.46
6300,-3.8708,0.5596,0.2787,1586.18,610.41,1641.30
6310,-3.8713,0.5698,0.2247,-366.94,-327.09,734.86
6320,-3.8718,0.5667,0.1959,945.56,766.72,1562.93
6330,-3.8723,0.5493,0.1844,539.31,1079.22,-62.13
6340,-3.8727,0.5186,0.1769,-1679.44,-389.59,-374.69
6350,-3.8729,0.4880,0.1630,-1616.94,-1358.40,375.31
6360,-3.8733,0.4692,0.1393,-1523.19,860.29,1937.81
6370,-3.8735,0.4467,0.1089,70.56,1829.04,93.99
6380,-3.8739,0.4105,0.0717,1179.93,1938.35,-1843.57
6390,-3.8741,0.3724,0.0300,554.93,1172.67,453.25
6400,-3.8744,0.3356,-0.0055,-320.07,-155.58,46.88
6410,-3.8746,0.2881,-0.0328,-1038.82,-702.51,1328.06
6420,-3.8748,0.2271,-0.0507,883.06,-202.58,453.00
6430,-3.8749,0.1511,-0.0566,1070.56,1516.05,1515.50
6440,-3.8749,0.0586,-0.0551,-648.19,750.24,421.75
6450,-3.8749,-0.0428,-0.0492,-491.94,953.19,265.50
6460,-3.8749,-0.1412,-0.0382,-1476.32,1718.63,624.88
6470,-3.8749,-0.2346,-0.0182,1929.93,-875.31,-1859.50
6480,-3.8748,-0.3285,0.0089,1976.81,1687.01,374.94
6490,-3.8748,-0.4160,0.0306,1961.18,1155.58,-796.88
6500,-3.8746,-0.4889,0.0375,-1241.94,-63.35,-640.62
6510,-3.8745,-0.5444,0.0287,1429.93,811.52,-374.94
6520,-3.8744,-0.6150,0.0149,-1679.44,-313.60,-1125.00
6530,-3.8743,-0.7135,0.0197,1289.31,1920.65,-2000.00
6540,-3.8741,-0.7998,0.0533,679.93,-1470.15,-1578.12
6550,-3.8739,-0.8788,0.1027,1633.06,-1157.84,500.06
6560,-3.8738,-0.9535,0.1672,-476.32,1154.48,-31.07
6570,-3.8734,-0.9768,0.2548,1961.18,1419.98,672.18
6580,-3.8730,-0.9580,0.3655,-1023.19,623.05,656.74
6590,-3.8726,-0.9095,0.4966,1383.06,-1205.02,-561.83
6600,-3.8718,-0.8458,0.6133,-413.82,-423.71,-499.08
6610,-3.8711,-0.7992,0.6687,-257.57,-1486.08,-248.84
6620,-3.8705,-0.7832,0.6396,1711.18,1607.79,-842.47
6630,-3.8701,-0.7886,0.5461,-241.94,1889.04,-545.65
6640,-3.8699,-0.7944,0.4307,-929.44,1920.29,1407.29
6650,-3.8699,-0.7917,0.3275,-1679.44,-860.96,-1311.71
6660,-3.8699,-0.7804,0.2737,-1335.69,1935.91,-999.39
6670,-3.8698,-0.7749,0.3013,117.43,-954.65,-702.64
6680,-3.8694,-0.7843,0.4095,820.56,-1423.40,-1140.08
6690,-3.8688,-0.8009,0.5596,-382.57,435.91,1907.04
6700,-3.8680,-0.8051,0.7113,1492.43,-360.96,-1514.59
6710,-3.8673,-0.7970,0.8148,961.18,-939.09,-795.53
6720,-3.8667,-0.7484,0.8265,1992.43,310.91,-1639.04
6730,-3.8665,-0.6313,0.7477,211.18,1811.04,-123.41
6740,-3.8665,-0.4574,0.6156,-804.44,-282.53,-1295.47
6750,-3.8667,-0.2720,0.4911,1461.18,-1188.42,-1108.22
6760,-3.8669,-0.1189,0.4188,1195.56,-1125.55,1438.42
6770,-3.8672,-0.0022,0.4106,789.31,1624.76,1422.67
6780,-3.8673,0.1053,0.4496,-273.19,578.06,875.79
6790,-3.8673,0.2339,0.5197,1492.43,1547.06,735.23
6800,-3.8673,0.3827,0.6041,1945.56,-1483.95,-1874.02
6810,-3.8673,0.5216,0.6653,992.43,1328.86,1219.91
6820,-3.8674,0.6223,0.6818,-1226.32,1157.23,563.78
6830,-3.8678,0.6764,0.6542,-335.69,-733.22,-795.59
6840,-3.8682,0.6864,0.5845,-1413.82,-264.34,313.72
6850,-3.8689,0.6582,0.4828,-132.57,-1186.22,-30.15
6860,-3.8695,0.5990,0.3751,258.06,1798.16,16.54
6870,-3.8704,0.5255,0.2803,679.93,16.78,-436.77
6880,-3.8710,0.4551,0.2034,-726.32,-124.02,1672.36
6890,-3.8716,0.4039,0.1460,-1741.94,-1967.90,-577.76
6900,-3.8719,0.3890,0.1130,-288.82,-1311.77,922.12
6910,-3.8723,0.4048,0.1167,1804.93,-1530.52,-1218.57
6920,-3.8724,0.4292,0.1537,-179.44,-1061.77,31.43
6930,-3.8727,0.4615,0.1991,-1054.44,-327.33,1875.24
6940,-3.8729,0.5062,0.2300,-913.82,1485.23,-1312.13
6950,-3.8732,0.5415,0.2336,804.93,1438.48,-1562.07
6960,-3.8734,0.5507,0.2067,1320.56,1907.29,547.30
6970,-3.8738,0.5389,0.1571,-1507.57,-1545.84,344.12
6980,-3.8743,0.5055,0.1046,992.43,110.41,-234.07
6990,-3.8745,0.4399,0.0592,711.18,1391.60,1718.93
7000,-3.8748,0.3409,0.0187,320.56,-421.02,-1749.94
7010,-3.8749,0.2229,-0.0168,-351.32,-1608.76,312.50
7020,-3.8750,0.1063,-0.0403,539.31,1844.18,484.31
7030,-3.8439,0.0026,-0.0437,1617.43,-1156.07,-640.75
7040,-3.8750,-0.0929,-0.0297,336.18,-1593.75,390.50
7050,-3.8750,-0.1913,-0.0129,117.43,218.57,-1984.44
7060,-3.8750,-0.2990,-0.0042,-476.32,-1641.05,-796.94
7070,-3.8749,-0.4148,-0.0021,1742.43,-516.24,453.06
7080,-3.8749,-0.5424,-0.0068,-1085.69,-250.85,1828.06
7090,-3.8749,-0.6667,-0.0173,-1413.82,-860.47,-93.81
7100,-3.8748,-0.7864,-0.0232,-1335.69,1795.53,-984.44
7110,-3.8745,-0.8973,-0.0146,-648.19,1045.29,1828.06
7120,-3.8741,-0.9520,0.0059,1148.68,-1861.15,1265.56
7130,-3.8738,-0.9598,0.0286,-1851.32,763.73,406.25
7140,-3.8735,-0.9733,0.0598,1148.68,-330.02,1609.38
7150,-3.8733,-0.9832,0.1121,-570.07,-330.08,1750.06
7160,-3.8730,-0.9878,0.1825,-1835.69,-1642.58,-734.19
7170,-3.8726,-0.9937,0.2546,1570.56,-626.95,1453.43
7180,-3.8721,-0.9969,0.3063,820.56,607.42,-1249.51
7190,-3.8715,-1.0265,0.3427,398.68,-783.20,1469.30
7200,-3.8708,-1.0769,0.3922,617.43,-127.01,891.24
7210,-3.8702,-1.1235,0.4705,-1835.69,-1783.39,141.36
7220,-3.8698,-1.1459,0.5656,195.56,232.18,-733.46
7230,-3.8691,-1.1143,0.6403,1336.18,403.99,1751.10
7240,-3.8687,-1.0253,0.6746,1383.06,1966.55,-1858.15
7250,-3.8683,-0.8882,0.6783,773.68,-1642.64,-842.47
7260,-3.8680,-0.7244,0.6534,-1679.44,-1158.02,-279.97
7270,-3.8679,-0.5558,0.5944,-710.69,-345.21,-186.28
7280,-3.8678,-0.4017,0.5214,867.43,92.65,1407.41
7290,-3.8678,-0.2690,0.4657,586.18,-1250.79,1469.73
7300,-3.8678,-0.1501,0.4380,1570.56,-375.55,657.10
7310,-3.8678,-0.0387,0.4370,789.31,77.82,797.73
7320,-3.8678,0.0675,0.4574,-945.07,-47.00,-483.58
7330,-3.8677,0.1638,0.4812,648.68,-1453.00,-108.52
7340,-3.8676,0.2498,0.4913,976.81,1594.06,-780.33
7350,-3.8676,0.3198,0.4769,-23.19,-1108.95,-1217.83
7360,-3.8677,0.3866,0.4324,945.56,1047.49,1469.67
7370,-3.8679,0.4578,0.3682,1492.43,-655.52,500.79
7380,-3.8683,0.5236,0.3094,-1398.19,-874.15,1891.30
7390,-3.8687,0.5780,0.2740,-976.32,-389.65,-1718.20
7400,-3.8690,0.6274,0.2601,1992.43,-920.78,1781.74
7410,-3.8694,0.6676,0.2582,320.56,1298.10,1250.49
7420,-3.8698,0.6837,0.2596,1461.18,1048.16,1500.49
7430,-3.8701,0.6776,0.2625,-476.32,1235.66,1641.11
7440,-3.8705,0.6559,0.2708,-1257.57,1595.03,906.74
7450,-3.8708,0.6047,0.2809,-38.82,-1342.53,31.74
7460,-3.8713,0.5359,0.2797,1414.31,-45.72,-718.26
7470,-3.8717,0.4724,0.2617,601.81,-202.09,-1624.51
7480,-3.8721,0.4142,0.2380,476.81,1500.92,1266.11
7490,-3.8724,0.3710,0.2227,1023.68,-1530.46,437.93
7500,-3.8728,0.3506,0.2159,-507.57,500.67,1375.43
7510,-3.8730,0.3434,0.2112,883.06,-358.70,109.74
7520,-3.8734,0.3292,0.2010,-38.82,-968.14,-1030.88
7530,-3.8737,0.2942,0.1825,-1851.32,1734.99,1750.37
7540,-3.8739,0.2384,0.1621,1664.31,-640.08,1922.18
7550,-3.8741,0.1731,0.1512,-1476.32,750.43,-15.32
7560,-3.8743,0.1030,0.1516,-1835.69,-640.32,-437.26
7570,-3.8743,0.0212,0.1526,1195.56,-593.57,515.87
7580,-3.8744,-0.0742,0.1476,-1273.19,-468.75,-1671.63
7590,-3.8744,-0.1783,0.1409,-1491.94,-1093.93,500.24
7600,-3.8745,-0.2894,0.1361,1179.93,-1953.49,-827.88
7610,-3.8745,-0.4052,0.1299,-1038.82,1436.89,-765.38
7620,-3.8744,-0.5182,0.1207,148.68,639.83,984.62
7630,-3.8744,-0.6138,0.1093,1679.93,-532.29,-437.32
7640,-3.8743,-0.7146,0.0950,1445.56,1998.78,-1468.57
7650,-3.8741,-0.8318,0.0907,539.31,170.47,-1249.82
7660,-3.8739,-0.9258,0.1121,1539.31,-376.65,343.87
7670,-3.8737,-1.0006,0.1556,1508.06,-1642.46,62.68
7680,-3.8734,-1.0897,0.1934,-70.07,-64.51,1609.62
7690,-3.8732,-1.1700,0.1909,523.68,763.49,-1984.01
7700,-3.8729,-1.2412,0.1506,-1757.57,450.81,1125.37
7710,-3.8728,-1.2980,0.1062,1133.06,-705.57,-234.13
7720,-3.8726,-1.3176,0.0903,1867.43,1606.81,-1937.32
7730,-3.8723,-1.2941,0.1382,-648.19,-424.50,-859.25
7740,-3.8718,-1.2352,0.2542,-1632.57,1700.56,1515.87
7750,-3.8712,-1.1511,0.4055,1898.68,544.43,766.11
7760,-3.8706,-1.0518,0.5586,664.31,-80.38,-671.14
7770,-3.8699,-0.9595,0.6714,1383.06,-486.45,-1155.21
7780,-3.8691,-0.8733,0.7050,1195.56,1951.23,1266.91
7790,-3.8687,-0.7858,0.6587,226.81,-1751.71,-295.53
7800,-3.8683,-0.6913,0.5664,-570.07,326.54,-623.72
7810,-3.8680,-0.5959,0.4656,-476.32,514.22,610.47
7820,-3.8680,-0.4889,0.3958,-273.19,-391.85,-546.02
7830,-3.8679,-0.3739,0.3759,1429.93,-1329.10,-108.64
7840,-3.8677,-0.2539,0.3989,148.68,124.27,-358.64
7850,-3.8673,-0.1241,0.4561,-491.94,-922.42,1203.86
7860,-3.8671,0.0215,0.5361,117.43,-1609.62,-1592.90
7870,-3.8668,0.1835,0.6115,-1241.94,625.00,1172.91
7880,-3.8668,0.3450,0.6532,-507.57,-1734.07,-780.09
7890,-3.8668,0.4927,0.6556,164.31,-389.95,79.35
7900,-3.8672,0.6144,0.6205,-929.44,-77.21,-655.03
7910,-3.8676,0.7081,0.5526,-1351.32,-576.97,610.53
7920,-3.8682,0.7704,0.4724,-1351.32,-1264.28,1001.04
7930,-3.8689,0.7896,0.4045,-1382.57,470.21,-1280.33
7940,-3.8696,0.7563,0.3553,1070.56,-217.22,-733.64
7950,-3.8702,0.6732,0.3127,820.56,1485.84,250.67
7960,-3.8710,0.5853,0.2659,-1820.07,32.53,-1421.26
7970,-3.8716,0.5209,0.2159,-1070.07,-1967.65,1641.11
7980,-3.8722,0.4613,0.1688,-1320.07,-358.40,1187.87
7990,-3.8728,0.4086,0.1246,-945.07,1610.23,1578.43
8000,-3.8734,0.3723,0.0803,304.93,-46.08,-15.44
8010,-3.8738,0.3452,0.0386,-335.69,-1718.08,-1656.13
8020,-3.8740,0.3173,0.0110,195.56,938.17,1250.06
8030,-3.8743,0.2825,0.0068,617.43,1406.86,-609.38
8040,-3.8744,0.2405,0.0234,164.31,875.55,-656.25
8050,-3.8744,0.1962,0.0542,-1210.69,-999.57,890.62
8060,-3.8744,0.1526,0.0952,1117.43,-1062.13,296.94
8070,-3.8744,0.1080,0.1456,-460.69,187.74,1578.31
8080,-3.8743,0.0570,0.1952,1836.18,-1359.19,31.49
8090,-3.8743,-0.0042,0.2251,-695.07,984.44,-1859.01
8100,-3.8743,-0.0728,0.2245,-523.19,828.06,-1968.32
8110,-3.8744,-0.1461,0.1965,-1304.44,749.82,-702.70
8120,-3.8745,-0.2262,0.1516,1304.93,1171.57,-405.88
8130,-3.8745,-0.3145,0.1128,-945.07,-578.61,922.12
8140,-3.8745,-0.4104,0.1053,-241.94,-1547.55,359.56
8150,-3.8745,-0.5126,0.1370,-523.19,1499.15,-1843.57
8160,-3.8744,-0.6060,0.2000,-1601.32,1545.84,1718.99
8170,-3.8743,-0.7074,0.2710,-1554.44,1608.15,-1734.01
8180,-3.8740,-0.8199,0.3301,1461.18,-1298.28,125.49
8190,-3.8739,-0.8938,0.3662,-945.07,-1736.02,-1358.76
8200,-3.8737,-0.9451,0.3777,1601.81,-1111.15,-1811.83
8210,-3.8733,-0.9983,0.3942,-960.69,357.48,1016.36
8220,-3.8729,-1.0430,0.4371,226.81,-1533.20,-1327.39
8230,-3.8724,-1.0992,0.4995,-1491.94,-33.33,1563.29
8240,-3.8719,-1.1571,0.5703,-695.07,-49.07,766.54
8250,-3.8715,-1.1968,0.6460,-101.32,1013.31,1438.60
8260,-3.8708,-1.2128,0.7214,-1179.44,-1299.26,1407.47
8270,-3.8701,-1.2078,0.7905,773.68,356.99,798.28
8280,-3.8694,-1.2020,0.8439,1414.31,1200.74,-1935.97
8290,-3.8687,-1.1957,0.8628,-1851.32,28.87,-1138.98
8300,-3.8680,-1.1885,0.8375,-1038.82,-1549.26,-670.23
8310,-3.8676,-1.1569,0.7838,-116.94,-783.63,689.09
8320,-3.8674,-1.0791,0.7255,-70.07,341.43,-1076.60
8330,-3.8673,-0.9540,0.6747,1883.06,872.86,79.53
8340,-3.8674,-0.7805,0.6517,1898.68,-1626.89,-186.22
8350,-3.8673,-0.5662,0.6608,101.81,-564.03,907.47
8360,-3.8672,-0.3173,0.6826,-460.69,592.59,860.66
8370,-3.8671,-0.0613,0.7061,-601.32,-610.05,-1123.72
8380,-3.8668,0.1691,0.7258,164.31,-1609.50,1001.34
8390,-3.8668,0.3617,0.7338,1648.68,906.56,-61.10
8400,-3.8668,0.5115,0.7201,-1695.07,1922.55,1360.78
8410,-3.8671,0.6245,0.6865,1476.81,172.85,1798.28
8420,-3.8674,0.7074,0.6350,-54.44,-123.84,1860.66
8430,-3.8679,0.7576,0.5597,-1445.07,1282.59,1626.22
8440,-3.8685,0.7860,0.4696,976.81,-357.91,1516.66
8450,-3.8693,0.8042,0.3795,617.43,110.90,-905.33
8460,-3.8699,0.8069,0.2949,-1054.44,579.65,656.98
8470,-3.8705,0.7836,0.2245,-710.69,1751.53,500.55
8480,-3.8711,0.7483,0.1788,304.93,735.90,-390.20
8490,-3.8715,0.6976,0.1556,-210.69,-1107.97,1594.06
8500,-3.8718,0.6152,0.1498,1304.93,-76.78,1593.99
8510,-3.8722,0.5217,0.1555,-1241.94,-826.97,-952.88
8520,-3.8724,0.4480,0.1576,-1210.69,-92.77,1281.49
8530,-3.8728,0.3989,0.1475,1351.81,172.73,-687.19
8540,-3.8730,0.3605,0.1329,-929.44,-1124.27,1000.24
8550,-3.8734,0.3330,0.1194,-1851.32,1016.30,-1421.63
8560,-3.8738,0.3207,0.0989,-1366.94,-718.14,-93.57
8570,-3.8740,0.3115,0.0654,1054.93,656.86,1547.06
8580,-3.8743,0.2921,0.0250,-116.94,375.55,156.37
8590,-3.8746,0.2606,-0.0114,1398.68,-796.33,-328.12
8600,-3.8748,0.2198,-0.0344,1367.43,-1452.64,203.06
8610,-3.8750,0.1753,-0.0443,148.68,-405.82,-1562.62
8620,-3.8439,0.1309,-0.0461,-1554.44,-1671.57,-1140.75
8630,-3.8439,0.0819,-0.0482,758.06,-1906.01,1156.13
8640,-3.8439,0.0265,-0.0687,-1507.57,1828.25,328.00
8650,-3.8439,-0.0415,-0.1010,-601.32,-796.88,827.94
8660,-3.8439,-0.1259,-0.1067,-1304.44,-906.37,-203.37
8670,-3.8750,-0.2178,-0.0736,-101.32,-1640.93,-1093.99
8680,-3.8749,-0.3224,-0.0276,133.06,-1406.68,31.07
8690,-3.8749,-0.4512,0.0110,-1257.57,483.70,1499.94
8700,-3.8748,-0.5870,0.0486,-1741.94,1420.96,1312.50
8710,-3.8746,-0.6794,0.0951,867.43,-1766.78,-1328.06
8720,-3.8744,-0.7327,0.1464,1039.31,186.16,953.31
8730,-3.8743,-0.7888,0.2212,-1773.19,-1251.46,-843.51
8740,-3.8740,-0.8385,0.3167,-960.69,326.54,-1687.07
8750,-3.8737,-0.8530,0.3964,679.93,545.23,-733.76
8760,-3.8730,-0.8585,0.4716,-1179.44,-1251.71,-1593.02
8770,-3.8724,-0.8676,0.5747,-1882.57,373.29,-1280.33
8780,-3.8718,-0.8492,0.6991,961.18,1576.42,-1358.28
8790,-3.8711,-0.8263,0.8080,-695.07,1498.29,735.72
8800,-3.8704,-0.7908,0.8802,-1757.57,-564.15,876.53
8810,-3.8698,-0.7448,0.9043,-1210.69,685.91,-560.79
8820,-3.8691,-0.7201,0.8868,679.93,-235.84,-1279.54
8830,-3.8687,-0.7256,0.8434,-163.82,1529.79,1032.96
8840,-3.8684,-0.7772,0.7837,-866.94,-32.71,-1592.16
8850,-3.8682,-0.8550,0.7333,523.68,326.60,1454.65
8860,-3.8679,-0.9293,0.7125,-1429.44,1873.29,470.15
8870,-3.8678,-0.9856,0.7175,1054.93,-783.08,-61.16
8880,-3.8676,-0.9886,0.7355,1851.81,-142.58,-1436.16
8890,-3.8674,-0.9161,0.7557,1461.18,-1845.70,-561.10
8900,-3.8673,-0.7592,0.7723,-1257.57,748.17,-1889.16
8910,-3.8673,-0.5302,0.7822,-1163.82,-1126.53,-545.41
8920,-3.8672,-0.2657,0.7877,148.68,139.59,657.78
8930,-3.8672,-0.0011,0.7876,1992.43,843.20,-1232.85
8940,-3.8671,0.2313,0.7607,-132.57,828.06,626.53
8950,-3.8672,0.4082,0.7015,1617.43,1375.43,-607.91
8960,-3.8673,0.5040,0.6191,258.06,1797.67,1251.34
8970,-3.8677,0.5192,0.5264,523.68,-749.02,-1436.34
8980,-3.8680,0.4749,0.4426,-1538.82,-624.02,1516.60
8990,-3.8685,0.4055,0.3812,789.31,657.17,-108.52
9000,-3.8689,0.3525,0.3436,-85.69,797.61,-1249.27
9010,-3.8693,0.3385,0.3236,1133.06,-14.95,-1296.26
9020,-3.8696,0.3618,0.3126,-663.82,1422.49,-561.89
9030,-3.8699,0.4095,0.3038,-1679.44,16.30,563.11
9040,-3.8702,0.4653,0.2920,429.93,-1108.58,1609.92
9050,-3.8706,0.5181,0.2754,-429.44,1375.85,-1530.70
9060,-3.8710,0.5613,0.2513,-1679.44,-749.02,-1171.39
9070,-3.8713,0.5923,0.2153,-148.19,172.91,-1937.01
9080,-3.8717,0.6141,0.1703,-179.44,-436.40,0.37
9090,-3.8722,0.6199,0.1233,-1382.57,1798.03,1062.81
9100,-3.8727,0.5967,0.0819,-648.19,-217.59,-1171.69
9110,-3.8730,0.5491,0.0536,383.06,-1514.47,-1624.88
9120,-3.8734,0.5117,0.0402,-1710.69,-1139.59,-78.06
9130,-3.8737,0.4935,0.0338,1508.06,1141.60,-624.94
9140,-3.8739,0.4678,0.0287,-820.07,329.04,-203.06
9150,-3.8740,0.4268,0.0229,-116.94,-327.27,187.50
9160,-3.8743,0.3783,0.0177,-1366.94,-1061.71,546.88
9170,-3.8745,0.3217,0.0150,429.93,-1733.64,1500.00
9180,-3.8748,0.2561,0.0153,1179.93,1922.49,-187.50
9190,-3.8749,0.2019,0.0168,789.31,1953.61,-218.75
9200,-3.8749,0.1636,0.0188,1851.81,-1843.38,1390.62
9210,-3.8749,0.1176,0.0201,945.56,-1593.44,343.75
9220,-3.8750,0.0397,0.0189,-945.07,-1421.69,-359.38
9230,-3.8750,-0.0732,0.0109,1086.18,-1578.06,-1531.25
9240,-3.8750,-0.1979,-0.0016,-1366.94,1406.07,1031.25
9250,-3.8750,-0.3126,0.0009,-1320.07,-187.93,1156.19
9260,-3.8749,-0.4119,0.0276,-7.57,124.33,453.12
9270,-3.8748,-0.5074,0.0608,-710.69,-453.98,-1796.88
9280,-3.8745,-0.6050,0.0865,-945.07,-204.16,1843.81
9290,-3.8743,-0.7151,0.1129,-1429.44,-907.47,-546.75
9300,-3.8739,-0.8357,0.1582,476.81,-1532.65,-1937.32
9310,-3.8737,-0.9213,0.2223,1039.31,263.98,-562.19
9320,-3.8734,-0.9553,0.2823,-1913.82,466.92,-546.45
9330,-3.8730,-0.9611,0.3302,1726.81,154.36,1891.17
9340,-3.8726,-0.9431,0.3583,992.43,-1720.64,578.74
9350,-3.8721,-0.9335,0.3671,-710.69,1873.11,-1514.95
9360,-3.8715,-0.9493,0.4034,523.68,-1001.83,-1327.45
9370,-3.8708,-0.9680,0.4918,-1507.57,-345.64,-1186.77
9380,-3.8702,-0.9888,0.6127,101.81,-1033.14,-1905.33
9390,-3.8696,-0.9960,0.7427,1445.56,-1564.45,1673.03
9400,-3.8690,-0.9969,0.8292,523.68,-923.83,1610.78
9410,-3.8685,-1.0055,0.8108,398.68,-1845.70,-435.91
9420,-3.8682,-1.0015,0.6989,-695.07,-205.14,-14.10
9430,-3.8679,-0.9683,0.5582,-179.44,1466.74,782.59
9440,-3.8680,-0.8887,0.4486,70.56,-533.14,-30.21
9450,-3.8680,-0.7802,0.3903,-1741.94,1435.73,-1858.52
9460,-3.8680,-0.6658,0.3727,148.68,1967.22,-1264.89
9470,-3.8679,-0.5446,0.3867,-1210.69,-282.59,-983.70
9480,-3.8677,-0.4110,0.4246,-1695.07,1514.53,-1764.89
9490,-3.8674,-0.2626,0.4664,-601.32,-1641.48,-1358.58
9500,-3.8672,-0.1063,0.5013,-1601.32,-281.80,-1514.77
9510,-3.8669,0.0454,0.5312,-1601.32,187.26,1329.10
9520,-3.8668,0.1793,0.5472,1820.56,0.06,-1967.71
9530,-3.8668,0.2848,0.5432,-1038.82,-1952.82,-1123.96
9540,-3.8669,0.3563,0.5155,461.18,1531.80,-1920.84
9550,-3.8673,0.4177,0.4694,1617.43,1985.05,-983.40
9560,-3.8678,0.4855,0.4210,1476.81,78.92,-327.21
9570,-3.8683,0.5581,0.3831,-1851.32,1891.54,-1264.83
9580,-3.8688,0.6272,0.3562,-554.44,1032.29,1735.11
9590,-3.8693,0.6780,0.3414,289.31,1594.97,875.67
9600,-3.8699,0.6946,0.3365,-1210.69,-295.59,-405.64
9610,-3.8704,0.6738,0.3298,914.31,-920.53,1766.24
9620,-3.8710,0.6289,0.3123,-1741.94,-1779.97,-108.76
9630,-3.8715,0.5670,0.2856,508.06,-30.03,-1686.95
9640,-3.8719,0.5010,0.2574,586.18,563.60,1219.30
9650,-3.8724,0.4469,0.2328,133.06,954.10,719.24
9660,-3.8729,0.3962,0.2140,1211.18,1797.73,1469.18
9670,-3.8733,0.3425,0.1987,-1273.19,-608.64,406.62
9680,-3.8737,0.2927,0.1833,-148.19,1438.11,1812.87
9690,-3.8739,0.2510,0.1730,1476.81,-530.70,1719.06
9700,-3.8741,0.2188,0.1794,133.06,-1858.89,-546.57
9710,-3.8743,0.1984,0.1942,8.06,-1030.82,1531.56
9720,-3.8745,0.1819,0.1974,1398.68,859.74,-499.63
9730,-3.8746,0.1532,0.1877,-710.69,1265.93,-1327.76
9740,-3.8746,0.1019,0.1797,-382.57,31.49,328.49
9750,-3.8748,0.0283,0.1855,1054.93,-999.82,-30.94
9760,-3.8746,-0.0682,0.1968,-366.94,-250.00,172.18
9770,-3.8746,-0.1863,0.1964,-726.32,1202.94,281.62
9780,-3.8746,-0.3090,0.1827,164.31,1155.88,578.49
9790,-3.8746,-0.4231,0.1644,461.18,-594.36,1750.31
9800,-3.8745,-0.5304,0.1536,1851.81,1061.65,750.31
9810,-3.8744,-0.6232,0.1627,117.43,-329.16,1703.37
9820,-3.8741,-0.7190,0.1869,242.43,842.53,62.81
9830,-3.8740,-0.8324,0.2147,-23.19,-63.96,-874.69
9840,-3.8738,-0.9264,0.2363,1461.18,-501.65,1875.37
9850,-3.8735,-0.9957,0.2469,1429.93,-1736.21,625.43
9860,-3.8734,-1.0609,0.2545,554.93,-376.95,-140.20
9870,-3.8732,-1.0933,0.2638,211.18,591.67,-296.39
9880,-3.8728,-1.1078,0.2754,70.56,1779.11,1437.99
9890,-3.8724,-1.1245,0.3011,-1788.82,-736.57,-1562.01
9900,-3.8719,-1.1344,0.3462,70.56,-1439.70,-1749.45
9910,-3.8713,-1.1316,0.4207,-1195.07,325.87,1297.55
9920,-3.8707,-1.1086,0.5255,-835.69,1857.12,-1061.71
9930,-3.8700,-1.0548,0.6405,-1898.19,-720.95,-1483.40
9940,-3.8693,-0.9727,0.7316,992.43,1997.92,-1483.15
9950,-3.8687,-0.8767,0.7587,-491.94,1654.30,-1264.22
9960,-3.8682,-0.7678,0.7197,-210.69,1123.23,1376.46
9970,-3.8679,-0.6526,0.6376,1726.81,139.10,-1264.22
9980,-3.8678,-0.5359,0.5414,476.81,1623.72,-373.78
9990,-3.8677,-0.4208,0.4562,-585.69,1311.40,407.29
10000,-3.8678,-0.3162,0.3993,-1851.32,-1594.60,-124.15
10010,-3.8677,-0.2385,0.3685,-460.69,-875.67,1031.98
10020,-3.8677,-0.1836,0.3512,1476.81,-812.99,-30.58
10030,-3.8676,-0.1337,0.3516,508.06,968.38,-499.33
10040,-3.8674,-0.0725,0.3779,-1101.32,1015.32,-874.33
10050,-3.8673,0.0071,0.4104,-1273.19,390.44,-1546.14
10060,-3.8672,0.1060,0.4254,914.31,531.25,375.79
10070,-3.8673,0.2200,0.4138,1570.56,-1546.69,-983.58
10080,-3.8674,0.3383,0.3635,164.31,969.18,391.42
10090,-3.8678,0.4510,0.2838,-695.07,-1468.14,641.30
10100,-3.8683,0.5565,0.2087,1742.43,328.98,1484.92
10110,-3.8688,0.6442,0.1677,-757.57,-1280.21,1047.24
10120,-3.8693,0.7017,0.1599,-1538.82,1469.97,1234.68
10130,-3.8698,0.7173,0.1710,1820.56,470.09,-655.94
10140,-3.8701,0.6866,0.1940,-179.44,1891.97,-1218.44
10150,-3.8705,0.6218,0.2167,-101.32,829.41,1687.87
10160,-3.8710,0.5443,0.2340,-398.19,-264.47,-562.13
10170,-3.8713,0.4744,0.2493,1679.93,1954.16,797.30
10180,-3.8718,0.4208,0.2589,726.81,-92.83,-1890.20
10190,-3.8723,0.3643,0.2540,1867.43,1141.42,-1171.39
10200,-3.8728,0.2957,0.2307,-1366.94,516.30,-1405.76
10210,-3.8733,0.2408,0.1941,1851.81,1531.80,1969.18
10220,-3.8738,0.2174,0.1599,-1163.82,844.18,-1405.88
10230,-3.8741,0.2218,0.1390,-163.82,469.12,937.81
10240,-3.8745,0.2386,0.1216,398.68,1797.30,515.87
10250,-3.8749,0.2504,0.0995,-1445.07,-437.07,-1515.44
10260,-3.8750,0.2424,0.0844,54.93,734.86,312.68
10270,-3.8439,0.2017,0.0934,-960.69,-1202.70,-1921.75
10280,-3.8439,0.1240,0.1276,1820.56,-46.51,-1062.38
10290,-3.8750,0.0123,0.1696,-116.94,328.31,1218.99
10300,-3.8750,-0.1229,0.2007,1586.18,1703.12,-499.69
10310,-3.8749,-0.2563,0.2147,273.68,1702.88,1719.12
10320,-3.8748,-0.3701,0.2206,-804.44,-500.55,578.49
10330,-3.8746,-0.4718,0.2313,633.06,249.27,1047.30
10340,-3.8745,-0.5756,0.2504,-382.57,1624.02,-608.95
10350,-3.8743,-0.6692,0.2694,-1663.82,61.34,-765.14
10360,-3.8740,-0.7675,0.2794,-1648.19,-1501.34,-405.76
10370,-3.8738,-0.8701,0.2788,1773.68,-220.28,-171.39
10380,-3.8734,-0.9323,0.2751,633.06,-298.58,625.49
10390,-3.8732,-0.9895,0.2841,679.93,-767.46,-358.89
10400,-3.8727,-1.0669,0.3204,1351.81,373.05,1625.55
10410,-3.8722,-1.1422,0.3794,-554.44,1029.11,1500.61
10420,-3.8717,-1.2391,0.4398,1804.93,575.87,-1030.52
10430,-3.8711,-1.3523,0.4735,1398.68,310.06,532.10
10440,-3.8707,-1.4471,0.4623,-1085.69,622.31,-420.96
10450,-3.8704,-1.4966,0.4183,-1226.32,-815.37,-796.02
10460,-3.8700,-1.4771,0.3741,445.56,1559.57,391.42
10470,-3.8698,-1.3989,0.3588,-1054.44,-96.68,938.17
10480,-3.8695,-1.2681,0.3970,945.56,1934.75,-108.70
10490,-3.8690,-1.0975,0.4790,1695.56,-1174.38,-1374.27
10500,-3.8685,-0.8947,0.5568,-476.32,1325.93,-1030.33
10510,-3.8680,-0.6608,0.6005,1492.43,-720.52,-1170.84
10520,-3.8676,-0.4072,0.6029,-570.07,873.66,407.41
10530,-3.8673,-0.1571,0.5616,-116.94,1186.65,-1733.22
10540,-3.8672,0.0563,0.4825,-101.32,-94.12,-14.59
10550,-3.8671,0.2010,0.3789,-788.82,1765.69,-1999.08
10560,-3.8671,0.2493,0.2804,1742.43,500.37,578.86
10570,-3.8673,0.2249,0.2139,-85.69,-108.95,-374.51
10580,-3.8674,0.1702,0.1785,789.31,-624.57,281.62
10590,-3.8677,0.1370,0.1641,1789.31,-1155.94,640.93
10600,-3.8679,0.1611,0.1685,1539.31,1000.24,1390.93
10610,-3.8682,0.2365,0.1853,633.06,1562.81,-1624.69
10620,-3.8684,0.3424,0.2045,-1726.32,-280.82,-609.07
10630,-3.8685,0.4535,0.2249,-163.82,-1827.51,125.37
10640,-3.8689,0.5509,0.2443,-1945.07,782.10,-640.20
10650,-3.8693,0.6215,0.2572,-1476.32,-733.34,-155.82
10660,-3.8696,0.6503,0.2557,-445.07,923.03,1437.99
10670,-3.8701,0.6316,0.2332,-757.57,735.60,750.49
10680,-3.8707,0.5741,0.1976,851.81,1844.97,-1468.32
10690,-3.8713,0.4910,0.1614,1492.43,1297.97,-499.63
10700,-3.8718,0.3961,0.1287,-1148.19,657.17,640.93
10710,-3.8724,0.3088,0.1008,-1288.82,469.48,-1171.63
10720,-3.8729,0.2443,0.0784,-460.69,906.80,-1187.32
10730,-3.8733,0.1989,0.0654,-726.32,-1968.32,1093.87
10740,-3.8737,0.1611,0.0629,1461.18,375.37,1000.12
10750,-3.8740,0.1278,0.0575,633.06,47.18,1484.50
10760,-3.8744,0.1029,0.0402,367.43,-640.38,-1453.06
10770,-3.8746,0.0887,0.0177,1179.93,1140.81,890.69
10780,-3.8749,0.0791,0.0040,-632.57,-1734.25,1296.88
10790,-3.8439,0.0621,-0.0004,-1866.94,515.75,-171.88
10800,-3.8440,0.0333,-0.0067,-38.82,-46.81,-187.56
10810,-3.8440,-0.0035,-0.0135,273.68,-859.31,828.06
10820,-3.8441,-0.0485,-0.0143,-445.07,-1718.81,-828.19
10830,-3.8441,-0.1063,-0.0094,1804.93,-1812.62,-890.69
10840,-3.8440,-0.1754,0.0070,-1601.32,-1187.74,437.44
10850,-3.8440,-0.2520,0.0410,1554.93,905.88,-1015.62
10860,-3.8439,-0.3370,0.0873,-241.94,1265.08,-1671.81
10870,-3.8750,-0.4283,0.1425,867.43,-813.17,-1546.75
10880,-3.8749,-0.5178,0.2070,1179.93,-1750.85,-202.88
10890,-3.8746,-0.5946,0.2722,1726.81,-1485.41,-1202.76
10900,-3.8744,-0.6873,0.3262,-101.32,-1141.85,-233.89
10910,-3.8740,-0.8020,0.3846,39.31,1764.28,-1186.89
10920,-3.8737,-0.8881,0.4713,1351.81,1248.41,-327.39
10930,-3.8732,-0.9658,0.5695,-1663.82,341.98,1954.04
10940,-3.8727,-1.0619,0.6484,383.06,904.36,1954.22
10950,-3.8722,-1.1318,0.6926,86.18,-986.45,-889.40
10960,-3.8716,-1.1708,0.7126,-866.94,669.62,1063.84
10970,-3.8711,-1.1927,0.7257,-1851.32,-767.94,-529.91
10980,-3.8705,-1.2014,0.7343,-663.82,903.87,1704.53
10990,-3.8700,-1.2052,0.7426,-1773.19,1997.62,-748.60
11000,-3.8695,-1.2072,0.7539,1742.43,-939.88,-1045.47
11010,-3.8691,-1.2103,0.7679,1492.43,513.24,-139.16
11020,-3.8688,-1.2000,0.7798,1086.18,-1689.88,-998.54
11030,-3.8684,-1.1674,0.7732,-1585.69,-174.26,1470.21
11040,-3.8682,-1.0945,0.7356,-1413.82,-1017.94,-1529.79
11050,-3.8679,-0.9734,0.6738,-85.69,-1830.32,626.40
11060,-3.8679,-0.8135,0.6034,-585.69,-1736.33,-389.34
11070,-3.8678,-0.6263,0.5428,-116.94,1248.35,1188.66
11080,-3.8678,-0.4348,0.4945,-163.82,1498.72,-1014.59
11090,-3.8677,-0.2585,0.4591,351.81,-688.35,-1139.71
11100,-3.8674,-0.1136,0.4382,-1085.69,-1219.30,0.85
11110,-3.8673,-0.0042,0.4250,1461.18,109.13,16.48
11120,-3.8673,0.0781,0.4126,-523.19,-1578.19,-1499.21
11130,-3.8673,0.1368,0.3899,-1991.94,812.62,-483.58
11140,-3.8673,0.1816,0.3505,1523.68,1906.49,-1608.64
11150,-3.8674,0.2373,0.2953,-741.94,859.68,-1889.95
11160,-3.8677,0.3218,0.2324,-1616.94,1797.30,-1358.83
11170,-3.8679,0.4304,0.1709,1195.56,1750.61,781.68
11180,-3.8683,0.5333,0.1207,-898.19,1875.79,1828.43
11190,-3.8687,0.6106,0.0913,273.68,-545.84,-1546.69
11200,-3.8690,0.6600,0.0861,-1835.69,-311.34,-812.38
11210,-3.8693,0.6821,0.0968,492.43,-983.09,62.62
11220,-3.8696,0.6775,0.1104,-679.44,391.91,453.31
11230,-3.8700,0.6553,0.1200,-1273.19,-1873.72,500.18
11240,-3.8704,0.6243,0.1208,-116.94,-639.40,203.31
11250,-3.8708,0.5820,0.1064,-85.69,-530.09,-984.19
11260,-3.8712,0.5330,0.0785,-1491.94,1626.10,859.56
11270,-3.8717,0.4987,0.0474,226.81,-1952.09,-1624.88
11280,-3.8721,0.4818,0.0244,-163.82,-1936.58,93.81
11290,-3.8726,0.4680,0.0135,1679.93,-874.08,-1921.88
11300,-3.8729,0.4559,0.0060,-85.69,1735.23,328.12
11310,-3.8734,0.4437,-0.0095,-1632.57,766.48,-1000.00
11320,-3.8738,0.4248,-0.0337,804.93,-1217.90,-1484.44
11330,-3.8741,0.4021,-0.0570,-1616.94,-311.71,-515.75
11340,-3.8744,0.3896,-0.0641,-523.19,703.86,-1078.25
11350,-3.8745,0.3864,-0.0526,1883.06,-202.39,1390.44
11360,-3.8746,0.3762,-0.0348,1461.18,1266.36,-1750.12
11370,-3.8746,0.3445,-0.0173,164.31,-452.39,624.88
11380,-3.8748,0.2859,-0.0013,101.81,1781.92,-765.69
11390,-3.8748,0.2046,0.0101,601.81,-171.33,1078.06
11400,-3.8749,0.1130,0.0148,-1804.44,1297.24,-1625.00
11410,-3.8750,0.0302,0.0167,-1523.19,1890.81,-93.75
11420,-3.8750,-0.0371,0.0226,-132.57,-1859.38,-1937.50
11430,-3.8750,-0.0974,0.0353,-741.94,-1093.87,1125.00
11440,-3.8750,-0.1599,0.0583,-460.69,531.01,1968.81
11450,-3.8749,-0.2311,0.0963,-460.69,-515.99,1093.81
11460,-3.8748,-0.3131,0.1497,-1570.07,343.26,-1656.07
11470,-3.8745,-0.4093,0.2123,-70.07,-828.80,1484.62
11480,-3.8743,-0.5177,0.2706,-382.57,-813.35,-1874.63
11490,-3.8740,-0.6110,0.3156,1742.43,-1344.79,-733.89
11500,-3.8737,-0.7023,0.3510,1804.93,405.03,63.11
11510,-3.8734,-0.8086,0.3875,-1882.57,936.10,1469.42
11520,-3.8730,-0.8915,0.4272,508.06,1607.79,344.48
11530,-3.8727,-0.9586,0.4825,1898.68,-1298.65,1563.29
11540,-3.8722,-1.0392,0.5680,1304.93,1779.36,1125.92
11550,-3.8717,-1.1111,0.6433,-1007.57,716.67,938.60
11560,-3.8712,-1.1685,0.6714,1789.31,-1642.82,1219.97
11570,-3.8707,-1.1908,0.6731,-1554.44,1950.81,-1483.09
11580,-3.8702,-1.1693,0.6741,-413.82,-1830.51,-717.47
11590,-3.8698,-1.1187,0.6820,-1663.82,-1705.44,-248.72
11600,-3.8691,-1.0590,0.6873,820.56,-689.70,345.03
11610,-3.8687,-1.0109,0.6752,461.18,-17.70,32.53
11620,-3.8683,-0.9711,0.6448,-1382.57,-1564.51,-1748.72
11630,-3.8679,-0.9368,0.5950,-288.82,-1455.08,1782.47
11640,-3.8677,-0.8868,0.5344,101.81,170.04,1641.78
11650,-3.8676,-0.8116,0.4811,-1507.57,420.10,-1858.34
11660,-3.8674,-0.7019,0.4569,117.43,1592.16,1750.92
11670,-3.8673,-0.5638,0.4727,-1835.69,-1501.40,-1014.77
11680,-3.8671,-0.3981,0.5155,-163.82,514.47,1704.04
11690,-3.8668,-0.2036,0.5667,1054.93,1999.21,938.48
11700,-3.8667,0.0095,0.6010,1945.56,546.45,-811.40
11710,-3.8666,0.2284,0.6022,1226.81,921.88,-1514.47
11720,-3.8666,0.4208,0.5765,1242.43,1078.55,1344.91
11730,-3.8667,0.5687,0.5291,1867.43,1797.67,32.35
11740,-3.8671,0.6676,0.4624,804.93,-280.15,-639.65
11750,-3.8674,0.7184,0.3928,1461.18,-811.22,-186.65
11760,-3.8678,0.7318,0.3353,-38.82,-1717.41,-1608.64
11770,-3.8682,0.7238,0.2986,1679.93,-1076.72,500.61
11780,-3.8687,0.7006,0.2822,648.68,-1779.85,-1296.33
11790,-3.8690,0.6669,0.2792,1679.93,126.34,1063.05
11800,-3.8695,0.6354,0.2833,1367.43,-264.34,-530.76
11810,-3.8699,0.6160,0.2896,1336.18,266.85,1688.05
11820,-3.8704,0.6033,0.2944,-1148.19,1063.66,-30.70
11830,-3.8707,0.5868,0.2943,1226.81,1688.66,1891.17
11840,-3.8712,0.5687,0.2844,-882.57,1672.97,-1390.08
11850,-3.8717,0.5469,0.2672,804.93,407.35,-1593.20
11860,-3.8722,0.5216,0.2456,-1991.94,-1795.84,-1905.76
11870,-3.8727,0.5010,0.2188,-1226.32,-561.52,-1858.95
11880,-3.8732,0.4829,0.1906,133.06,0.98,-983.95
11890,-3.8735,0.4692,0.1692,1820.56,391.54,-1984.01
11900,-3.8738,0.4536,0.1602,70.56,1657.17,15.93
11910,-3.8741,0.4231,0.1582,-1929.44,500.85,-187.19
11920,-3.8744,0.3828,0.1508,-1835.69,250.79,-249.69
11930,-3.8746,0.3391,0.1294,1008.06,-702.39,-484.13
11940,-3.8749,0.2931,0.0995,-585.69,563.11,-77.88
11950,-3.8750,0.2428,0.0728,1523.68,734.92,1531.43
11960,-3.8440,0.1901,0.0494,-913.82,1312.93,-46.75
11970,-3.8441,0.1382,0.0259,336.18,-1671.51,-1187.44
11980,-3.8442,0.0809,0.0035,1695.56,-687.26,-1484.38
11990,-3.8444,0.0122,-0.0149,-1632.57,453.25,-578.12
12000,-3.8444,-0.0645,-0.0226,1570.56,-1906.25,1234.31
12010,-3.8444,-0.1382,-0.0126,-241.94,1124.82,468.69
12020,-3.8444,-0.2003,0.0132,-1679.44,-1594.06,1812.44
12030,-3.8442,-0.2545,0.0455,-1632.57,1702.70,1250.00
12040,-3.8441,-0.3169,0.0768,-570.07,1843.20,-1093.69
12050,-3.8439,-0.3909,0.1128,-554.44,1843.08,-1343.63
12060,-3.8748,-0.4681,0.1698,1976.81,-1547.67,156.43
12070,-3.8745,-0.5420,0.2524,86.18,1749.08,-343.44
12080,-3.8740,-0.6439,0.3392,-1366.94,327.03,1625.49
12090,-3.8735,-0.7839,0.4078,1586.18,-563.78,1875.61
12100,-3.8730,-0.9023,0.4440,-335.69,217.16,-1749.21
12110,-3.8726,-0.9994,0.4540,508.06,841.98,1907.10
12120,-3.8721,-1.0814,0.4860,86.18,-1876.95,-1171.02
12130,-3.8715,-1.1385,0.5662,1586.18,-1783.39,-1936.58
12140,-3.8707,-1.1754,0.6880,-1726.32,482.12,876.10
12150,-3.8700,-1.1860,0.8306,1554.93,75.81,-1311.16
12160,-3.8691,-1.1578,0.9431,195.56,-1674.19,1048.46
12170,-3.8684,-1.0898,0.9756,-195.07,732.06,392.46
12180,-3.8679,-0.9840,0.9204,508.06,888.49,611.27
12190,-3.8677,-0.8494,0.8162,-1945.07,1826.17,1595.52
12200,-3.8676,-0.7125,0.7134,-710.69,482.67,-1810.91
12210,-3.8674,-0.5950,0.6493,804.93,-673.28,1923.22
12220,-3.8673,-0.5104,0.6282,-148.19,-876.22,-1248.78
12230,-3.8671,-0.4537,0.6233,-1320.07,420.84,594.97
12240,-3.8669,-0.4115,0.6088,1929.93,-204.04,1673.03
12250,-3.8668,-0.3477,0.5905,-663.82,1936.65,751.16
12260,-3.8668,-0.2357,0.5872,-491.94,-406.98,-889.53
12270,-3.8667,-0.0610,0.6099,1836.18,-828.61,-920.78
12280,-3.8665,0.1682,0.6571,195.56,-1922.00,1063.66
12290,-3.8663,0.4208,0.7040,1539.31,109.68,-1295.59
12300,-3.8662,0.6517,0.7267,1867.43,-1889.83,610.72
12310,-3.8663,0.8164,0.7133,-570.07,1016.85,298.28
12320,-3.8667,0.9083,0.6699,508.06,-701.54,-1811.16
12330,-3.8671,0.9476,0.6276,273.68,1751.77,454.41
12340,-3.8676,0.9427,0.6033,1304.93,329.96,891.85
12350,-3.8680,0.8990,0.5819,679.93,1220.58,219.91
12360,-3.8687,0.8564,0.5502,-913.82,-1513.92,-1405.15
12370,-3.8693,0.8536,0.5077,1633.06,-1576.48,-498.96
12380,-3.8699,0.8617,0.4592,1273.68,986.02,-905.27
12390,-3.8705,0.8418,0.4073,-1695.07,-1217.10,1953.98
12400,-3.8711,0.8035,0.3541,-241.94,142.21,1375.79
12410,-3.8717,0.7571,0.3048,-1148.19,1329.65,-1561.83
12420,-3.8722,0.6930,0.2635,914.31,-982.91,734.92
12430,-3.8728,0.6172,0.2274,711.18,1735.72,-233.89
12440,-3.8733,0.5471,0.1903,-991.94,1110.53,-312.07
12450,-3.8737,0.4836,0.1471,-1960.69,360.41,969.12
12460,-3.8741,0.4291,0.0994,1914.31,-1170.96,-156.01
12470,-3.8744,0.3816,0.0592,-1070.07,719.54,953.31
12480,-3.8746,0.3303,0.0332,851.81,-421.14,343.81
12490,-3.8749,0.2782,0.0151,-1710.69,250.61,859.44
12500,-3.8439,0.2312,-0.0056,-382.57,1937.99,1703.12
12510,-3.8441,0.1901,-0.0273,1601.81,-718.32,-453.19
12520,-3.8442,0.1565,-0.0403,336.18,500.37,-1531.31
12530,-3.8444,0.1311,-0.0422,39.31,-1155.94,1890.50
12540,-3.8445,0.1119,-0.0339,789.31,-1406.01,-1593.87
12550,-3.8445,0.0923,-0.0132,-1663.82,-343.57,1031.13
12560,-3.8445,0.0607,0.0208,-179.44,-1687.38,1578.06
12570,-3.8445,0.0128,0.0612,-226.32,-1343.69,-750.00
12580,-3.8444,-0.0492,0.1023,1648.68,-171.88,1906.31
12590,-3.8442,-0.1304,0.1469,1711.18,1109.25,1859.56
12600,-3.8441,-0.2339,0.1960,-679.44,-1187.81,-593.51
12610,-3.8439,-0.3512,0.2474,-1929.44,1108.89,-1437.13
12620,-3.8749,-0.4852,0.2987,-945.07,-313.23,-452.70
12630,-3.8745,-0.6381,0.3480,1898.68,-1750.98,-1327.58
12640,-3.8741,-0.7832,0.4021,-1663.82,561.22,-827.45
12650,-3.8737,-0.9474,0.4713,-241.94,-517.21,141.36
12660,-3.8733,-1.1394,0.5676,-1257.57,341.86,-670.96
12670,-3.8727,-1.2831,0.6805,-1835.69,669.62,-1217.65
12680,-3.8719,-1.3922,0.7819,-226.32,-877.56,-1748.72
12690,-3.8712,-1.4727,0.8588,1804.93,91.00,-1139.10
12700,-3.8705,-1.4933,0.8943,-491.94,1934.57,486.02
12710,-3.8700,-1.4598,0.8860,867.43,-1518.55,1907.96
12720,-3.8696,-1.3652,0.8557,1148.68,1419.01,-1935.79
12730,-3.8694,-1.2257,0.8318,1258.06,1544.19,-1826.48
12740,-3.8691,-1.0646,0.8197,-882.57,-1518.07,1095.34
12750,-3.8690,-0.9155,0.8008,-257.57,935.36,-139.04
12760,-3.8688,-0.7875,0.7737,-1179.44,-1486.21,-1045.35
12770,-3.8685,-0.6708,0.7483,-788.82,-954.71,-1420.41
12780,-3.8683,-0.5369,0.7327,-1851.32,-204.47,-1561.10
12790,-3.8680,-0.3751,0.7236,-710.69,1795.78,-1404.85
12800,-3.8678,-0.2061,0.7189,-7.57,639.83,-373.60
12810,-3.8676,-0.0515,0.7140,1633.06,30.82,-514.22
12820,-3.8673,0.0739,0.7090,1414.31,-593.87,673.22
12830,-3.8673,0.1947,0.7015,1461.18,-1249.88,-576.78
12840,-3.8673,0.3157,0.6779,929.93,1797.24,-154.91
12850,-3.8673,0.4302,0.6356,414.31,-1233.76,1266.91
12860,-3.8676,0.5413,0.5905,-929.44,1360.17,-498.78
12870,-3.8678,0.6417,0.5566,1289.31,-420.84,-545.78
12880,-3.8680,0.7255,0.5334,-1851.32,-748.78,-1389.59
12890,-3.8683,0.7877,0.5161,867.43,282.65,1829.16
12900,-3.8685,0.8231,0.4999,836.18,-1935.97,141.60
12910,-3.8689,0.8342,0.4751,1367.43,-14.04,172.79
12920,-3.8694,0.8237,0.4352,-1210.69,814.09,-1999.08
12930,-3.8699,0.7976,0.3854,1445.56,-295.29,-1686.71
12940,-3.8704,0.7775,0.3383,-1898.19,1329.65,1969.48
12950,-3.8708,0.7565,0.3062,-476.32,-701.66,-1593.14
12960,-3.8712,0.7209,0.2876,836.18,-811.04,31.80
12970,-3.8717,0.6903,0.2689,289.31,813.90,-1186.95
12980,-3.8721,0.6733,0.2446,367.43,-1576.78,-983.89
12990,-3.8723,0.6423,0.2162,-1804.44,-686.22,47.30
13000,-3.8727,0.5820,0.1863,-1773.19,-326.90,1031.62
13010,-3.8730,0.5117,0.1655,-1491.94,-155.15,-1655.94
13020,-3.8733,0.4327,0.1610,1508.06,1188.48,1265.93
13030,-3.8735,0.3599,0.1624,-601.32,610.17,1609.68
13040,-3.8738,0.3159,0.1569,-1929.44,781.92,-1218.44
13050,-3.8739,0.2849,0.1436,445.56,78.74,719.06
13060,-3.8741,0.2500,0.1289,476.81,-1624.45,-1077.88
13070,-3.8743,0.2096,0.1207,8.06,500.49,1062.74
13080,-3.8745,0.1659,0.1249,-1163.82,-546.51,-577.94
13090,-3.8746,0.1213,0.1427,1242.43,-15.32,-1281.07
13100,-3.8748,0.0743,0.1663,-460.69,-1734.19,-421.63
13110,-3.8748,0.0272,0.1820,1523.68,1281.37,-1921.57
13120,-3.8748,-0.0165,0.1860,-507.57,-703.12,1844.06
13130,-3.8748,-0.0591,0.1946,1898.68,-171.94,-1921.57
13140,-3.8748,-0.1077,0.2212,445.56,921.75,-1687.13
13150,-3.8748,-0.1638,0.2571,-1773.19,327.88,-983.95
13160,-3.8746,-0.2208,0.2866,-960.69,921.51,531.74
13170,-3.8746,-0.2812,0.3054,-257.57,702.64,-843.20
13180,-3.8745,-0.3569,0.3184,8.06,-891.17,-577.58
13190,-3.8743,-0.4518,0.3342,-1679.44,764.89,1438.11
13200,-3.8740,-0.5502,0.3723,-1820.07,-1204.04,1219.36
13210,-3.8738,-0.6520,0.4447,1586.18,-329.22,-624.33
13220,-3.8734,-0.7855,0.5291,554.93,936.22,-202.27
13230,-3.8729,-0.9277,0.5854,-538.82,-267.21,1110.35
13240,-3.8726,-1.0533,0.5988,1258.06,-1048.71,-1858.28
13250,-3.8722,-1.1714,0.5975,1179.93,654.17,-998.84
13260,-3.8717,-1.2693,0.6108,-1929.44,497.68,594.91
13270,-3.8712,-1.3466,0.6317,1539.31,-1799.38,798.03
13280,-3.8707,-1.3995,0.6285,-351.32,872.31,-1764.40
13290,-3.8702,-1.3981,0.5874,867.43,466.00,1344.97
13300,-3.8699,-1.3318,0.5299,1054.93,-799.62,297.97
13310,-3.8696,-1.2053,0.4956,1539.31,-158.87,172.85
13320,-3.8694,-1.0499,0.5026,1726.81,-549.26,422.79
13330,-3.8691,-0.8954,0.5443,1617.43,341.67,-436.52
13340,-3.8687,-0.7584,0.6174,1398.68,1685.73,1751.04
13350,-3.8682,-0.6373,0.7086,-1070.07,-954.65,1876.16
13360,-3.8677,-0.5162,0.7841,-1570.07,-1282.53,-1358.03
13370,-3.8672,-0.3871,0.8186,1929.93,373.96,1845.28
13380,-3.8668,-0.2496,0.8091,-1538.82,796.08,1423.46
13390,-3.8667,-0.1160,0.7605,54.93,-422.36,-779.72
13400,-3.8667,0.0182,0.6964,1164.31,1359.13,-1498.54
13410,-3.8668,0.1631,0.6348,-1663.82,1140.62,1141.97
13420,-3.8671,0.3030,0.5808,883.06,1250.31,-1217.53
13430,-3.8672,0.4082,0.5453,-1210.69,-1655.70,469.85
13440,-3.8674,0.4788,0.5275,258.06,1797.67,1079.16
13450,-3.8677,0.5260,0.5234,1289.31,-483.46,-1983.40
13460,-3.8678,0.5615,0.5376,-663.82,-999.02,454.10
13470,-3.8679,0.6056,0.5786,-116.94,813.54,563.54
13480,-3.8680,0.6681,0.6492,1523.68,-1936.34,-1780.15
13490,-3.8680,0.7357,0.7231,1523.68,-904.97,407.47
13500,-3.8682,0.7894,0.7603,-1820.07,563.90,876.40
13510,-3.8684,0.8334,0.7382,1054.93,1314.03,1.46
13520,-3.8690,0.8818,0.6550,-1320.07,-1514.04,-982.97
13530,-3.8698,0.9277,0.5316,883.06,-154.54,-920.65
13540,-3.8705,0.9368,0.4042,-1241.94,48.65,110.41
13550,-3.8713,0.9204,0.3058,-85.69,-263.85,-1530.52
13560,-3.8719,0.8837,0.2505,1820.56,-857.60,625.55
13570,-3.8726,0.7969,0.2271,1117.43,64.21,-1327.64
13580,-3.8729,0.6863,0.2179,-1991.94,1064.03,844.18
13590,-3.8733,0.6018,0.2134,-148.19,-108.09,-171.51
13600,-3.8734,0.5499,0.2173,1039.31,-686.34,-1062.13
13610,-3.8735,0.5104,0.2388,-1601.32,-186.46,-671.51
13620,-3.8737,0.4858,0.2781,1336.18,-1436.52,-327.70
13630,-3.8737,0.4740,0.3196,-1804.44,-405.33,1187.99
13640,-3.8738,0.4556,0.3408,679.93,907.17,-30.64
13650,-3.8738,0.4240,0.3275,-1679.44,-374.15,1672.49
13660,-3.8739,0.3831,0.2825,-1726.32,1922.67,94.36
13670,-3.8743,0.3290,0.2339,1039.31,156.98,-171.33
13680,-3.8745,0.2693,0.2032,-1882.57,1938.11,-1062.07
13690,-3.8748,0.2191,0.1841,-1523.19,-1983.89,-499.63
13700,-3.8749,0.1764,0.1730,54.93,-437.07,-687.19
13710,-3.8749,0.1290,0.1727,-1413.82,-1859.07,-1484.07
13720,-3.8749,0.0724,0.1840,523.68,-1890.38,-265.32
13730,-3.8748,0.0098,0.2150,1273.68,-453.00,-1421.57
13740,-3.8746,-0.0529,0.2726,1258.06,-484.38,-765.26
13750,-3.8744,-0.1094,0.3339,1242.43,-1093.87,531.74
13760,-3.8743,-0.1544,0.3607,-1991.94,-1250.24,1063.11
13770,-3.8741,-0.1907,0.3467,242.43,-1812.81,828.80
13780,-3.8740,-0.2347,0.3177,-398.19,390.20,485.05
13790,-3.8739,-0.3013,0.2932,1961.18,687.01,172.49
13800,-3.8738,-0.3933,0.2809,1445.56,1546.26,313.05
13810,-3.8737,-0.5170,0.2943,1664.31,-32.04,-1312.01
13820,-3.8733,-0.6714,0.3428,1836.18,1686.46,875.55
13830,-3.8729,-0.8673,0.4120,-1929.44,-110.72,1813.11
13840,-3.8724,-1.0752,0.4768,992.43,748.29,157.04
13850,-3.8721,-1.2545,0.5269,-1616.94,1044.74,-14.71
13860,-3.8715,-1.4030,0.5718,-570.07,-549.38,-1889.65
13870,-3.8708,-1.5061,0.6085,429.93,1200.38,1969.85
13880,-3.8702,-1.5293,0.6226,-773.19,1903.26,1048.03
13890,-3.8699,-1.4729,0.6007,258.06,-299.87,-389.47
13900,-3.8695,-1.3605,0.5580,-523.19,903.32,1188.66
13910,-3.8693,-1.2252,0.5302,1867.43,-565.19,797.91
13920,-3.8690,-1.1047,0.5378,-820.07,-127.44,1532.23
13930,-3.8687,-1.0156,0.5768,-1398.19,857.18,1751.04
13940,-3.8682,-0.9589,0.6156,-1991.94,1841.74,157.35
13950,-3.8678,-0.9054,0.6346,1273.68,-1189.39,1766.78
13960,-3.8674,-0.8342,0.6372,117.43,1248.23,204.35
13970,-3.8672,-0.7238,0.6395,1226.81,1576.48,423.10
13980,-3.8669,-0.5878,0.6423,-632.57,1873.54,391.85
13990,-3.8667,-0.4458,0.6409,773.68,-1766.78,813.72
14000,-3.8665,-0.3098,0.6416,-1054.44,-1954.04,423.10
14010,-3.8663,-0.1877,0.6527,351.81,-1859.99,1391.85
14020,-3.8663,-0.0790,0.6853,-23.19,-437.93,-467.53
14030,-3.8662,0.0205,0.7429,1898.68,-265.81,282.53
14040,-3.8662,0.1154,0.8103,-1366.94,-906.25,1751.40
14050,-3.8662,0.2076,0.8538,-1226.32,-281.07,-1185.97
14060,-3.8662,0.3030,0.8613,-1413.82,1281.62,595.40
14070,-3.8665,0.4032,0.8429,-1210.69,-1749.45,1282.90
14080,-3.8668,0.5066,0.8094,-382.57,-108.64,923.46
14090,-3.8673,0.5983,0.7721,851.81,-389.65,1235.90
14100,-3.8678,0.6748,0.7377,586.18,-1170.72,142.09
14110,-3.8684,0.7402,0.7083,-1616.94,-1576.84,-1326.72
14120,-3.8689,0.7905,0.6744,-1241.94,-1342.35,829.47
14130,-3.8695,0.8250,0.6370,1195.56,-1670.35,-1326.84
14140,-3.8700,0.8357,0.6057,1601.81,1532.84,704.35
14150,-3.8706,0.8143,0.5809,-1023.19,1532.84,-280.09
14160,-3.8711,0.7897,0.5625,242.43,-1639.04,-170.78
14170,-3.8715,0.7664,0.5479,1086.18,1.53,1001.10
14180,-3.8719,0.7239,0.5342,-1898.19,-1873.54,-686.46
14190,-3.8723,0.6722,0.5231,664.31,376.40,-1108.34
14200,-3.8726,0.6294,0.5173,-1945.07,-1045.59,141.60
14210,-3.8729,0.5892,0.5143,570.56,-1780.03,-1155.27
14220,-3.8732,0.5385,0.5111,-570.07,1829.22,-1874.02
14230,-3.8734,0.4838,0.5063,929.93,1422.91,1516.60
14240,-3.8737,0.4197,0.4956,1929.93,813.42,1079.10
14250,-3.8739,0.3519,0.4702,1726.81,-561.71,407.17
14260,-3.8743,0.3157,0.4259,1054.93,188.17,-889.71
14270,-3.8745,0.3208,0.3737,414.31,-1483.76,1938.29
14280,-3.8748,0.3419,0.3276,1070.56,-171.26,1922.55
14290,-3.8750,0.3481,0.2864,-226.32,1938.11,-1046.26
14300,-3.8439,0.3253,0.2451,570.56,656.92,781.80
14310,-3.8441,0.2772,0.2118,1648.68,-624.39,-155.82
14320,-3.8441,0.2097,0.1949,-507.57,-890.14,422.24
14330,-3.8442,0.1274,0.1907,-1148.19,953.49,1719.12
14340,-3.8444,0.0422,0.1829,320.56,406.49,-593.38
14350,-3.8444,-0.0355,0.1624,1414.31,-593.69,-1843.44
14360,-3.8444,-0.1053,0.1398,-538.82,796.75,-968.44
14370,-3.8442,-0.1647,0.1288,-1476.32,1906.01,1875.24
14380,-3.8441,-0.2072,0.1294,-1070.07,499.63,1281.49
14390,-3.8440,-0.2384,0.1349,1492.43,577.70,734.62
14400,-3.8439,-0.2792,0.1415,1492.43,1280.76,390.87
14410,-3.8750,-0.3495,0.1564,273.68,-1875.55,-1843.51
14420,-3.8748,-0.4640,0.1967,-726.32,30.52,-687.19
14430,-3.8744,-0.6276,0.2528,617.43,1186.58,-1577.76
14440,-3.8740,-0.8087,0.2952,-320.07,373.72,-1155.76
14450,-3.8737,-0.9956,0.3129,492.43,1795.29,-952.58
14460,-3.8733,-1.1887,0.3203,570.56,60.55,1078.74
14470,-3.8730,-1.3435,0.3463,-148.19,1013.24,-1452.51
14480,-3.8727,-1.4860,0.4052,39.31,341.13,-968.08
14490,-3.8722,-1.6144,0.4752,1804.93,-127.93,-1311.77
14500,-3.8718,-1.6802,0.4985,1367.43,840.58,-624.08
14510,-3.8716,-1.6655,0.4542,945.56,-175.17,-1233.46
14520,-3.8715,-1.6012,0.3881,-1179.44,-1847.05,1407.10
14530,-3.8715,-1.5267,0.3445,-945.07,1684.33,594.48
14540,-3.8715,-1.4469,0.3444,586.18,106.38,985.05
14550,-3.8713,-1.3654,0.3953,-1195.07,90.88,-1483.70
14560,-3.8710,-1.2880,0.4840,1242.43,-1393.31,1235.11
14570,-3.8706,-1.2057,0.5894,-851.32,1966.19,-686.58
14580,-3.8700,-1.0959,0.7029,1679.93,-549.26,907.35
14590,-3.8694,-0.9600,0.8113,-273.19,1982.18,1220.09
14600,-3.8688,-0.7960,0.8881,1133.06,-142.52,-826.60
14610,-3.8680,-0.6243,0.9103,-1882.57,1685.91,1392.33
14620,-3.8674,-0.4711,0.8748,101.81,530.03,17.40
14630,-3.8671,-0.3448,0.7946,-288.82,-16.60,111.02
14640,-3.8669,-0.2365,0.6921,-132.57,1718.02,-1529.72
14650,-3.8669,-0.1432,0.5946,1742.43,608.89,-186.16
14660,-3.8669,-0.0637,0.5286,1679.93,124.69,-1576.97
14670,-3.8669,0.0094,0.5045,-148.19,-328.31,-1827.15
14680,-3.8668,0.0775,0.5209,1211.18,578.12,1094.73
14690,-3.8667,0.1442,0.5719,1929.93,-1328.00,-1014.65
14700,-3.8665,0.2052,0.6310,-1538.82,1203.37,-1998.90
14710,-3.8662,0.2628,0.6761,-1726.32,765.99,469.97
14720,-3.8661,0.3256,0.7034,1648.68,-1452.64,876.28
14730,-3.8661,0.3929,0.7051,1679.93,-1968.14,1532.59
14740,-3.8662,0.4607,0.6758,-1695.07,-1749.27,235.72
14750,-3.8667,0.5212,0.6211,-1023.19,-1499.15,-295.59
14760,-3.8672,0.5763,0.5565,-1273.19,-499.02,1782.41
14770,-3.8678,0.6288,0.5022,1773.68,-764.53,1251.04
14780,-3.8685,0.6746,0.4574,492.43,282.47,-30.27
14790,-3.8691,0.7106,0.4011,-1648.19,-1451.84,-467.90
14800,-3.8696,0.7416,0.3293,-1038.82,-654.91,485.11
14810,-3.8702,0.7650,0.2686,-1070.07,-1842.35,-999.39
14820,-3.8707,0.7701,0.2416,1929.93,-1623.54,-1108.89
14830,-3.8712,0.7493,0.2457,-1413.82,-1076.66,-15.20
14840,-3.8716,0.7219,0.2648,-85.69,-545.47,-1655.82
14850,-3.8719,0.6967,0.2764,414.31,1892.03,1281.74
14860,-3.8723,0.6582,0.2695,1179.93,-623.66,562.99
14870,-3.8727,0.6095,0.2609,258.06,-1498.72,422.36
14880,-3.8730,0.5586,0.2638,-1976.32,1391.78,812.99
14890,-3.8734,0.5142,0.2620,-491.94,1766.66,1734.86
14900,-3.8738,0.4720,0.2427,1820.56,1532.23,-1249.51
14910,-3.8741,0.4285,0.2124,429.93,-936.58,-374.57
14920,-3.8745,0.3942,0.1708,-1148.19,-811.71,-46.51
14930,-3.8748,0.3557,0.1182,-1538.82,1860.11,469.06
14940,-3.8750,0.3011,0.0726,1539.31,-874.33,312.68
14950,-3.8440,0.2571,0.0496,-1445.07,1297.42,-624.88
14960,-3.8441,0.2345,0.0525,914.31,-1655.76,-593.69
14970,-3.8441,0.2080,0.0819,-1976.32,-1280.82,1562.56
14980,-3.8441,0.1544,0.1250,-1366.94,-1515.26,-1328.00
14990,-3.8440,0.0695,0.1606,-226.32,0.24,1890.87
15000,-3.8439,-0.0266,0.1829,898.68,562.62,-1140.32
15010,-3.8749,-0.1141,0.1935,601.81,-578.19,640.93
15020,-3.8748,-0.1829,0.1945,1398.68,781.01,1781.62
15030,-3.8746,-0.2299,0.1849,601.81,905.88,1734.74
15040,-3.8745,-0.2666,0.1594,-1413.82,-312.99,1047.18
15050,-3.8744,-0.3068,0.1188,1883.06,421.33,562.81
15060,-3.8743,-0.3514,0.0811,742.43,-781.86,797.06
15070,-3.8741,-0.3967,0.0645,-976.32,-1610.11,1750.12
15080,-3.8740,-0.4532,0.0658,1226.81,264.83,-328.00
15090,-3.8738,-0.5399,0.0798,1992.43,436.58,-796.75
15100,-3.8734,-0.6292,0.1104,-1101.32,-1766.72,1015.75
15110,-3.8730,-0.6918,0.1478,-523.19,-1860.66,125.18
15120,-3.8728,-0.7557,0.1793,-538.82,-1063.90,-859.13
15130,-3.8724,-0.8214,0.2039,-726.32,-1032.78,-1671.57
15140,-3.8721,-0.8890,0.2189,-1132.57,-1892.27,1375.37
15150,-3.8718,-0.9556,0.2161,-1788.82,29.48,-1452.70
15160,-3.8716,-1.0031,0.2036,1695.56,-330.02,1172.24
15170,-3.8713,-1.0238,0.2048,-382.57,-1923.89,94.12
15180,-3.8711,-1.0186,0.2229,961.18,-1767.64,1640.99
15190,-3.8707,-0.9989,0.2504,1633.06,544.86,1109.80
15200,-3.8704,-0.9615,0.2733,148.68,60.55,-1296.39
15210,-3.8699,-0.9183,0.2723,929.93,-1001.89,1922.36
15220,-3.8694,-0.8651,0.2557,-1538.82,-1126.83,891.11
15230,-3.8690,-0.7974,0.2341,1273.68,748.29,-1952.64
15240,-3.8687,-0.7249,0.1946,1945.56,1982.79,828.55
15250,-3.8684,-0.6556,0.1277,-773.19,920.41,1078.49
15260,-3.8683,-0.5922,0.0452,86.18,358.09,-390.38
15270,-3.8680,-0.5186,-0.0261,211.18,1795.72,-1640.56
15280,-3.8678,-0.4407,-0.0743,1633.06,670.84,-1906.31
15290,-3.8676,-0.3671,-0.0801,-398.19,-1500.92,-93.93
15300,-3.8671,-0.3091,-0.0292,1023.68,1764.89,124.82
15310,-3.8667,-0.2809,0.0457,445.56,280.64,453.06
15320,-3.8665,-0.2677,0.1158,54.93,1858.83,-1640.56
15330,-3.8662,-0.2423,0.1815,1742.43,-1156.80,1031.43
15340,-3.8661,-0.1814,0.2369,992.43,-750.49,1672.18
15350,-3.8661,-0.0791,0.2596,789.31,-1656.62,-155.82
15360,-3.8661,0.0536,0.2518,1883.06,1249.82,1578.61
15370,-3.8663,0.1848,0.2404,-1132.57,234.44,-1937.01
15380,-3.8667,0.2947,0.2445,-335.69,-1234.07,-1187.07
15390,-3.8671,0.3876,0.2786,1726.81,-702.58,-702.70
15400,-3.8673,0.4708,0.3488,1617.43,-343.02,1125.49
15410,-3.8677,0.5453,0.4346,273.68,641.54,-233.70
15420,-3.8679,0.6022,0.4980,1804.93,-373.96,-1311.71
15430,-3.8683,0.6381,0.5098,1086.18,-248.84,-405.33
15440,-3.8688,0.6569,0.4705,1679.93,1251.22,-1264.65
15450,-3.8695,0.6595,0.4083,86.18,220.03,-827.21
15460,-3.8704,0.6460,0.3477,429.93,266.91,-608.58
15470,-3.8712,0.6254,0.2998,-1304.44,501.22,-202.45
15480,-3.8718,0.5967,0.2754,54.93,-1623.78,63.05
15490,-3.8724,0.5562,0.2728,383.06,-748.84,891.11
15500,-3.8729,0.5187,0.2736,-804.44,-1077.09,1500.49
15510,-3.8733,0.5172,0.2611,-1601.32,-983.40,1297.36
15520,-3.8737,0.5431,0.2281,-1788.82,1422.85,-1265.14
15530,-3.8740,0.5541,0.1792,1523.68,1204.16,-108.95
15540,-3.8743,0.5470,0.1272,-1070.07,-1061.46,531.56
15550,-3.8746,0.5276,0.0771,-1976.32,282.29,1625.24
15560,-3.8749,0.4813,0.0226,-460.69,1875.98,109.50
15570,-3.8439,0.4064,-0.0251,1617.43,-1108.46,1390.62
15580,-3.8440,0.3221,-0.0428,23.68,782.04,1656.19
15590,-3.8441,0.2419,-0.0259,1242.43,-1483.76,-187.62
15600,-3.8440,0.1447,0.0051,-1023.19,687.93,640.56
15610,-3.8439,0.0011,0.0253,-1476.32,656.49,1000.00
15620,-3.8750,-0.1614,0.0269,148.68,-765.62,-765.62
15630,-3.8748,-0.2898,0.0062,-648.19,-547.24,1093.75
15640,-3.8746,-0.3584,-0.0433,-1085.69,811.89,1281.25
15650,-3.8746,-0.3756,-0.1183,-1866.94,-1531.98,-734.50
15660,-3.8745,-0.3718,-0.1898,-70.07,874.21,890.38
15670,-3.8744,-0.3792,-0.2257,414.31,-281.98,905.82
15680,-3.8741,-0.4098,-0.2177,-523.19,-875.79,46.39
15690,-3.8739,-0.4886,-0.1857,-445.07,155.40,1312.07
15700,-3.8737,-0.6227,-0.1549,1461.18,249.02,-609.74
15710,-3.8733,-0.7546,-0.1257,304.93,186.28,-1515.93
15720,-3.8729,-0.8695,-0.0953,-585.69,-79.65,-1984.68
15730,-3.8726,-0.9780,-0.0729,711.18,-189.21,827.88
15740,-3.8723,-1.0635,-0.0692,-1179.44,-1314.45,1734.19
15750,-3.8722,-1.1244,-0.0858,-116.94,-845.89,-422.06
15760,-3.8721,-1.1669,-0.1056,86.18,1029.05,-984.56
15770,-3.8719,-1.1874,-0.1072,-1351.32,-1502.32,1562.26
15780,-3.8718,-1.1826,-0.0842,23.68,-1705.44,859.13
15790,-3.8717,-1.1466,-0.0347,633.06,1232.06,-1406.43
15800,-3.8715,-1.0895,0.0411,1242.43,-424.13,-390.75
15810,-3.8710,-1.0271,0.1365,554.93,1279.11,312.56
15820,-3.8706,-0.9600,0.2372,539.31,1482.36,-374.76
15830,-3.8701,-0.8809,0.3231,1133.06,-1626.89,-1952.70
15840,-3.8698,-0.7881,0.3937,-741.94,1373.23,-108.76
15850,-3.8693,-0.7102,0.4602,-866.94,-1595.34,-499.27
15860,-3.8687,-0.6384,0.5311,1101.81,-1079.53,1172.73
15870,-3.8682,-0.5332,0.6112,-1710.69,-1.28,-530.27
15880,-3.8676,-0.3811,0.7007,-241.94,-1751.10,-1967.59
15890,-3.8669,-0.2101,0.8037,-773.19,1702.33,-1936.16
15900,-3.8663,-0.0548,0.9191,1117.43,-1109.80,-1842.22
15910,-3.8658,0.0879,1.0129,992.43,1656.13,-998.23
15920,-3.8655,0.2262,1.0354,-741.94,1656.37,814.45
15930,-3.8655,0.3563,0.9796,961.18,531.68,267.64
15940,-3.8658,0.4731,0.8772,1617.43,1391.30,173.77
15950,-3.8666,0.5725,0.7628,570.56,282.17,-967.04
15960,-3.8673,0.6547,0.6610,1289.31,1641.72,1579.59
15970,-3.8680,0.7197,0.5818,-195.07,610.60,391.91
15980,-3.8688,0.7588,0.5259,133.06,-1529.85,-1311.40
15990,-3.8693,0.7709,0.4875,1133.06,-686.04,922.85
16000,-3.8698,0.7561,0.4589,-1320.07,-1592.29,1891.54
16010,-3.8701,0.7126,0.4316,789.31,-1264.16,219.60
16020,-3.8706,0.6681,0.4023,-773.19,-748.66,-1374.21
16030,-3.8710,0.6615,0.3776,1523.68,-498.72,703.86
16040,-3.8715,0.6813,0.3619,679.93,329.41,-921.14
16050,-3.8718,0.6967,0.3461,-788.82,-1670.59,1844.42
16060,-3.8722,0.7155,0.3125,1179.93,298.22,391.30
16070,-3.8727,0.7445,0.2573,-413.82,1.34,-1577.51
16080,-3.8732,0.7610,0.2004,-695.07,938.90,-15.14
16090,-3.8735,0.7628,0.1558,1414.31,1657.71,1609.74
16100,-3.8739,0.7466,0.1155,1648.68,-61.04,922.12
16110,-3.8743,0.6974,0.0801,-429.44,-1217.35,-468.57
16120,-3.8744,0.6282,0.0626,1273.68,-1748.66,734.50
16130,-3.8746,0.5538,0.0566,414.31,16.85,-640.50
16140,-3.8748,0.4706,0.0466,-1101.32,-748.96,-515.56
16150,-3.8748,0.3661,0.0404,242.43,1969.67,-1765.56
16160,-3.8748,0.2374,0.0530,-1132.57,1172.55,-296.81
16170,-3.8746,0.0981,0.0674,-1601.32,-1218.32,-1453.06
16180,-3.8745,-0.0280,0.0601,570.56,625.18,1547.00
16190,-3.8745,-0.1249,0.0371,429.93,-296.94,-328.06
16200,-3.8744,-0.1937,0.0131,23.68,765.38,593.81
16210,-3.8744,-0.2506,-0.0109,-788.82,1687.07,984.38
16220,-3.8744,-0.3042,-0.0338,-70.07,-1375.55,-1265.69
16230,-3.8743,-0.3489,-0.0581,1070.56,-313.11,-1078.25
16240,-3.8740,-0.3793,-0.0936,-648.19,577.39,421.75
16250,-3.8739,-0.4005,-0.1254,-538.82,30.46,-1578.31
16260,-3.8737,-0.4324,-0.1245,742.43,-32.04,1218.44
16270,-3.8734,-0.4771,-0.0980,664.31,77.27,1046.63
16280,-3.8732,-0.5251,-0.0659,-1054.44,-532.23,-1843.99
16290,-3.8728,-0.6052,-0.0323,789.31,-422.91,218.57
16300,-3.8726,-0.7246,0.0087,-1460.69,-126.22,-1140.75
16310,-3.8722,-0.8478,0.0594,-741.94,1123.54,1531.25
16320,-3.8718,-0.9574,0.1160,-507.57,-376.71,468.81
16330,-3.8716,-1.0367,0.1576,1461.18,-1142.52,-593.57
16340,-3.8712,-1.0813,0.1602,-695.07,185.42,797.18
16350,-3.8711,-1.0979,0.1401,1601.81,513.49,-374.69
16360,-3.8708,-1.0710,0.1375,-523.19,1950.93,203.37
16370,-3.8707,-1.0063,0.1600,-1085.69,1607.24,109.62
16380,-3.8706,-0.9296,0.2007,-804.44,497.99,-1999.69
16390,-3.8704,-0.8673,0.2699,1023.68,1701.29,-702.76
16400,-3.8699,-0.8402,0.3707,992.43,-1439.21,219.24
16410,-3.8694,-0.8317,0.4889,461.18,-532.90,1156.92
16420,-3.8688,-0.7991,0.6110,1554.93,-1407.90,672.79
16430,-3.8682,-0.7178,0.7223,1726.81,-1782.84,1376.16
16440,-3.8676,-0.6071,0.7921,133.06,467.35,610.78
16450,-3.8672,-0.4801,0.8038,-1695.07,1405.03,1954.65
16460,-3.8671,-0.3455,0.7671,-1445.07,-1094.73,-1295.35
16470,-3.8671,-0.2175,0.7085,-210.69,-1797.61,767.09
16480,-3.8672,-0.1031,0.6707,164.31,-1297.30,579.47
16490,-3.8673,-0.0083,0.6802,-1195.07,1859.13,1970.03
16500,-3.8673,0.0706,0.7271,-1054.44,-921.94,-654.97
16510,-3.8672,0.1388,0.7744,1039.31,1062.62,-811.10
16520,-3.8671,0.2079,0.7894,1773.68,-874.76,1454.59
16530,-3.8672,0.2778,0.7667,-1382.57,1047.24,-1514.10
16540,-3.8674,0.3354,0.7164,-429.44,-1858.89,673.34
16550,-3.8679,0.3840,0.6455,-1054.44,-296.26,1032.59
16560,-3.8685,0.4330,0.5659,1164.31,-1374.27,-1592.53
16570,-3.8691,0.4816,0.5006,-570.07,438.29,-452.03
16580,-3.8696,0.5243,0.4596,1648.68,79.04,1579.10
16590,-3.8701,0.5598,0.4318,-882.57,-1170.90,1328.98
16600,-3.8706,0.5885,0.4059,-335.69,-733.34,-1108.58
16610,-3.8710,0.6028,0.3779,-663.82,-45.78,1250.73
16620,-3.8713,0.5974,0.3485,1164.31,376.16,125.73
16630,-3.8718,0.5828,0.3171,476.81,610.53,-233.70
16640,-3.8722,0.5743,0.2808,-1398.19,594.85,-296.26
16650,-3.8726,0.5659,0.2360,1523.68,-61.40,-499.51
16660,-3.8729,0.5604,0.1868,445.56,-1795.78,-30.82
16670,-3.8732,0.5558,0.1390,-257.57,-92.71,1797.18
16680,-3.8734,0.5242,0.0912,-851.32,1797.91,593.99
16690,-3.8738,0.4685,0.0438,-898.19,-327.15,-234.25
16700,-3.8740,0.4093,0.0001,-23.19,1610.23,-1015.56
16710,-3.8743,0.3516,-0.0393,398.68,16.42,-1031.25
16720,-3.8744,0.3010,-0.0758,1008.06,-1030.58,1109.25
16730,-3.8745,0.2611,-0.1094,-1460.69,-1702.58,1609.19
16740,-3.8746,0.2135,-0.1420,1429.93,-1999.51,-156.49
16750,-3.8746,0.1493,-0.1761,-663.82,1828.49,-1172.18
16760,-3.8746,0.0809,-0.2075,-882.57,1453.37,-1578.49
16770,-3.8746,0.0179,-0.2296,-1632.57,1437.62,-844.18
16780,-3.8745,-0.0371,-0.2393,-1695.07,-1390.62,983.89
16790,-3.8745,-0.0833,-0.2367,-741.94,1390.50,-578.61
16800,-3.8744,-0.1228,-0.2183,1351.81,1718.57,-1437.99
16810,-3.8743,-0.1639,-0.1896,289.31,77.88,-672.30
16820,-3.8740,-0.2114,-0.1667,-976.32,-250.37,1858.95
16830,-3.8738,-0.2651,-0.1503,945.56,-1328.55,1296.51
16840,-3.8735,-0.3282,-0.1289,-1929.44,780.70,1484.07
16850,-3.8733,-0.4021,-0.0975,1992.43,-485.05,-1953.43
16860,-3.8730,-0.4692,-0.0586,539.31,-469.54,-1890.87
16870,-3.8728,-0.5377,-0.0188,-54.44,514.65,1140.50
16880,-3.8727,-0.6030,0.0128,-820.07,1608.28,-421.94
16890,-3.8724,-0.6219,0.0402,-1179.44,1655.03,-1812.50
16900,-3.8722,-0.6276,0.0762,398.68,1155.03,1406.31
16910,-3.8719,-0.6572,0.1243,-320.07,1764.34,1453.25
16920,-3.8717,-0.6973,0.1779,-116.94,-79.47,-1859.19
16930,-3.8715,-0.7587,0.2377,-1241.94,-1220.15,-499.69
16940,-3.8711,-0.8309,0.2892,-1101.32,-1564.03,375.43
16950,-3.8710,-0.8945,0.3048,1648.68,1029.60,-796.33
16960,-3.8708,-0.9308,0.2921,1508.06,-970.52,-499.45
16970,-3.8707,-0.9204,0.2806,867.43,1404.42,1625.55
16980,-3.8707,-0.8722,0.2936,-1804.44,-64.33,-233.89
16990,-3.8705,-0.8063,0.3346,367.43,1592.04,797.42
17000,-3.8702,-0.7557,0.3920,804.93,-1157.84,1234.99
17010,-3.8699,-0.7371,0.4546,-726.32,-1814.03,16.36
17020,-3.8695,-0.7471,0.5122,1664.31,-1798.34,0.85
17030,-3.8693,-0.7562,0.5511,383.06,1576.66,-420.90
17040,-3.8689,-0.7400,0.5630,-788.82,-1439.03,438.54
17050,-3.8688,-0.6904,0.5624,1289.31,76.66,1594.85
17060,-3.8687,-0.6089,0.5742,-366.94,-1.40,860.41
17070,-3.8685,-0.5099,0.6010,-1929.44,1514.40,141.72
17080,-3.8684,-0.3923,0.6282,-1257.57,936.46,48.03
17090,-3.8684,-0.2615,0.6433,1789.31,421.08,-405.03
17100,-3.8683,-0.1216,0.6442,-1460.69,-1641.17,1829.35
17110,-3.8683,0.0271,0.6344,445.56,-1531.49,-1639.40
17120,-3.8683,0.1831,0.6182,-523.19,1203.12,1032.47
17130,-3.8684,0.3409,0.6018,-554.44,-874.69,-1295.72
17140,-3.8684,0.4686,0.5908,-351.32,1031.86,1016.78
17150,-3.8684,0.5374,0.5892,-7.57,-374.15,266.72
17160,-3.8685,0.5525,0.5900,789.31,-577.09,-1373.90
17170,-3.8687,0.5427,0.5769,-1273.19,-483.34,-1467.65
17180,-3.8689,0.5424,0.5459,1476.81,1844.79,-717.65
17190,-3.8691,0.5708,0.5020,1429.93,1876.04,1126.04
17200,-3.8695,0.6250,0.4512,1070.56,251.10,719.73
17210,-3.8700,0.6967,0.4021,8.06,1751.22,-1233.52
17220,-3.8704,0.7729,0.3599,1179.93,-529.91,594.48
17230,-3.8708,0.8361,0.3214,-1054.44,-1936.04,-1077.45
17240,-3.8712,0.8654,0.2822,-976.32,1142.21,1547.49
17250,-3.8716,0.8479,0.2390,-1226.32,126.65,250.55
17260,-3.8721,0.8070,0.1888,539.31,-1404.60,-905.82
17270,-3.8724,0.7456,0.1409,-695.07,173.40,-1187.13
17280,-3.8728,0.6581,0.1051,-554.44,-1967.35,-218.51
17290,-3.8730,0.5709,0.0801,242.43,1454.41,-1796.69
17300,-3.8733,0.5094,0.0618,1086.18,-1748.90,-1359.25
17310,-3.8734,0.4684,0.0416,1211.18,-92.77,390.69
17320,-3.8737,0.4248,0.0116,-38.82,1328.98,-1765.56
17330,-3.8738,0.3768,-0.0272,-1616.94,1485.17,15.62
17340,-3.8740,0.3265,-0.0674,242.43,516.36,-1421.94
17350,-3.8741,0.2690,-0.0974,1804.93,-624.39,-1437.68
17360,-3.8743,0.2045,-0.1121,-1554.44,-468.26,-31.49
17370,-3.8743,0.1384,-0.1201,-1820.07,1656.62,-1500.24
17380,-3.8743,0.0671,-0.1365,1726.81,625.24,1718.51
17390,-3.8743,-0.0172,-0.1638,601.81,-1468.63,780.94
17400,-3.8744,-0.1151,-0.1915,1804.93,-953.19,-515.99
17410,-3.8744,-0.2161,-0.2108,1273.68,-500.24,-1578.55
17420,-3.8744,-0.3047,-0.2216,351.81,1030.82,-1625.43
17430,-3.8744,-0.3755,-0.2249,1008.06,-344.36,-328.61
17440,-3.8743,-0.4281,-0.2189,-54.44,-766.42,-1375.49
17450,-3.8741,-0.4456,-0.2019,1211.18,-0.85,-953.61
17460,-3.8739,-0.4520,-0.1782,-1023.19,-1829.04,640.20
17470,-3.8738,-0.4774,-0.1501,-1851.32,1202.21,-469.12
17480,-3.8735,-0.5033,-0.1176,-1101.32,795.90,-828.43
17490,-3.8733,-0.5222,-0.0787,-413.82,967.71,-562.74
17500,-3.8730,-0.5647,-0.0338,1164.31,1936.46,-109.56
17510,-3.8727,-0.6324,0.0103,-273.19,-313.66,93.63
17520,-3.8724,-0.6758,0.0490,-945.07,1326.84,1015.62
17530,-3.8722,-0.7051,0.0872,1508.06,-1720.09,-796.81
17540,-3.8718,-0.7296,0.1289,1758.06,-829.53,1859.50
17550,-3.8715,-0.7446,0.1702,-1382.57,514.16,109.62
17560,-3.8712,-0.7556,0.2201,695.56,1795.41,-1890.32
17570,-3.8708,-0.7672,0.2839,-710.69,185.97,78.55
17580,-3.8698,-0.7920,0.4624,258.06,-1314.09,-77.33
17590,-3.8694,-0.7361,0.4960,-1366.94,-798.46,344.60
17600,-3.8693,-0.6415,0.5253,1789.31,-501.46,-155.33
17610,-3.8690,-0.5292,0.5492,1898.68,-751.28,1954.10
17620,-3.8689,-0.4159,0.5773,273.68,-1688.54,-967.71
17630,-3.8688,-0.3145,0.6198,-1226.32,1905.40,-61.40
17640,-3.8685,-0.2261,0.6676,-241.94,-656.92,1157.41
17650,-3.8684,-0.1522,0.6926,-929.44,1468.26,-1248.72
17660,-3.8683,-0.0885,0.6776,523.68,671.57,-748.66
17670,-3.8682,-0.0278,0.6332,679.93,-1250.18,766.91
17680,-3.8683,0.0310,0.5859,445.56,1062.44,-998.78
17690,-3.8684,0.0892,0.5562,-23.19,-1000.00,-1202.03
17700,-3.8685,0.1489,0.5466,-570.07,-812.38,1407.29
17710,-3.8687,0.2123,0.5468,-929.44,1968.99,251.04
17720,-3.8689,0.2775,0.5446,-820.07,1984.74,-483.34
17730,-3.8690,0.3491,0.5361,-476.32,1703.61,-1436.46
17740,-3.8691,0.4325,0.5232,695.56,625.67,1172.91
17750,-3.8694,0.5316,0.5067,-632.57,-1030.46,-842.77
17760,-3.8695,0.6335,0.4884,54.93,860.41,188.48
17770,-3.8698,0.7134,0.4708,1101.81,-1483.15,329.04
17780,-3.8700,0.7540,0.4578,-679.44,266.97,47.79
17790,-3.8702,0.7518,0.4471,523.68,-1404.79,203.98
17800,-3.8705,0.7090,0.4254,242.43,1235.84,610.23
17810,-3.8708,0.6412,0.3829,-1241.94,-1545.53,-217.96
17820,-3.8711,0.5883,0.3259,-1913.82,1016.85,1016.36
17830,-3.8715,0.5621,0.2727,-695.07,1719.85,1094.36
17840,-3.8718,0.5474,0.2352,-38.82,-1092.71,1484.86
17850,-3.8722,0.5422,0.2069,-1929.44,-1889.59,-780.82
17860,-3.8724,0.5372,0.1763,1414.31,-1514.59,-1093.38
17870,-3.8727,0.5198,0.1409,773.68,-1436.46,-265.32
17880,-3.8728,0.4799,0.1040,-1460.69,-1967.77,531.49
17890,-3.8730,0.4209,0.0679,1429.93,1313.42,1437.68
17900,-3.8733,0.3627,0.0353,1883.06,688.29,-1156.13
17910,-3.8734,0.3143,0.0078,-1570.07,516.30,703.19
17920,-3.8737,0.2755,-0.0173,242.43,1000.61,-656.25
17930,-3.8738,0.2456,-0.0406,-726.32,1781.74,-828.19
17940,-3.8739,0.2128,-0.0629,-554.44,-1202.70,-203.25
17950,-3.8739,0.1660,-0.0868,-757.57,-46.51,984.19
17960,-3.8740,0.1075,-0.1121,1258.06,890.93,-1578.31
17970,-3.8740,0.0374,-0.1343,1773.68,1656.43,390.38
17980,-3.8741,-0.0421,-0.1455,789.31,-1187.44,-406.56
17990,-3.8740,-0.1150,-0.1428,-1382.57,1390.50,140.32
18000,-3.8740,-0.1700,-0.1335,1289.31,1734.13,1999.69
18010,-3.8739,-0.2140,-0.1328,-1757.57,-1078.49,452.82
18020,-3.8739,-0.2596,-0.1510,617.43,-984.80,-1297.18
18030,-3.8738,-0.3120,-0.1813,-1226.32,686.95,515.32
18040,-3.8738,-0.3671,-0.2037,70.56,811.89,1890.26
18050,-3.8738,-0.4188,-0.2002,1023.68,1936.77,-47.30
18060,-3.8737,-0.4847,-0.1676,-1601.32,-1610.23,-234.80
18070,-3.8734,-0.5594,-0.1201,1961.18,-1438.48,1093.38
18080,-3.8733,-0.6025,-0.0698,398.68,639.53,-390.87
18090,-3.8729,-0.6316,-0.0159,-1116.94,-923.10,93.57
18100,-3.8727,-0.6610,0.0408,-835.69,1983.09,-421.94
18110,-3.8722,-0.6805,0.0883,-601.32,1233.03,109.44
18120,-3.8719,-0.7008,0.1254,898.68,-688.84,-781.13
18130,-3.8716,-0.7152,0.1650,-1695.07,61.10,125.24
18140,-3.8713,-0.7231,0.2129,461.18,1139.22,94.06
18150,-3.8711,-0.7279,0.2604,-554.44,-735.84,890.99
18160,-3.8708,-0.7299,0.2961,-1163.82,1342.29,-1687.01
18170,-3.8706,-0.7362,0.3123,-1413.82,1920.41,-1124.45
18180,-3.8704,-0.7413,0.3196,1773.68,-17.09,1266.17
18190,-3.8702,-0.7405,0.3412,1117.43,920.41,-1546.26
18200,-3.8700,-0.7310,0.3805,1226.81,-313.96,641.24
18210,-3.8699,-0.7179,0.4177,-1554.44,717.29,-124.27
18220,-3.8696,-0.6991,0.4408,117.43,1482.97,-1296.08
18230,-3.8695,-0.6698,0.4512,-1476.32,436.10,-14.77
18240,-3.8694,-0.6252,0.4467,-1726.32,1764.28,-936.65
18250,-3.8693,-0.5497,0.4324,-23.19,1186.22,1203.98
18260,-3.8693,-0.4615,0.4177,1648.68,-641.72,-61.71
18270,-3.8690,-0.3962,0.4088,929.93,1483.46,328.92
18280,-3.8689,-0.3705,0.4095,1289.31,342.96,-1655.46
18290,-3.8687,-0.3680,0.4150,586.18,436.77,610.17
18300,-3.8685,-0.3629,0.4170,898.68,1139.89,-1655.46
18310,-3.8684,-0.3389,0.4193,1554.93,1389.89,-842.96
18320,-3.8683,-0.2887,0.4348,633.06,1686.83,-1233.58
18330,-3.8682,-0.2262,0.4688,-945.07,-328.74,-1796.08
18340,-3.8680,-0.1652,0.5034,-945.07,15.14,1688.42
18350,-3.8680,-0.1116,0.5171,-1132.57,452.76,-827.15
18360,-3.8680,-0.0686,0.5131,1726.81,-1797.12,1344.73
18370,-3.8682,-0.0441,0.5098,-773.19,1687.32,579.10
18380,-3.8684,-0.0398,0.5170,-1632.57,1265.50,1766.60
18390,-3.8687,-0.0361,0.5297,-1085.69,-1812.62,-1952.15
18400,-3.8689,-0.0083,0.5376,-616.94,-187.62,1579.10
18410,-3.8693,0.0552,0.5356,-1054.44,828.06,-30.21
18420,-3.8695,0.1365,0.5219,-929.44,562.56,954.16
18430,-3.8700,0.2054,0.4961,1476.81,-1202.88,-155.27
18440,-3.8704,0.2511,0.4589,-1695.07,-499.63,391.54
18450,-3.8710,0.2765,0.4086,148.68,-1265.14,-92.90
18460,-3.8715,0.2888,0.3479,-601.32,297.36,-311.71
18470,-3.8719,0.2977,0.2825,976.81,531.80,-108.70
18480,-3.8723,0.3066,0.2169,-1882.57,156.80,453.67
18490,-3.8728,0.3127,0.1606,-741.94,-233.83,-1937.13
18500,-3.8732,0.3152,0.1215,39.31,563.11,1844.06
18510,-3.8734,0.3102,0.0995,351.81,-452.51,812.68
18520,-3.8737,0.2893,0.0936,-288.82,734.92,-984.19
18530,-3.8738,0.2491,0.0981,1039.31,-15.08,-749.88
18540,-3.8738,0.1938,0.1025,-101.32,562.93,375.18
18550,-3.8739,0.1310,0.0995,820.56,1125.37,1718.93
18560,-3.8740,0.0652,0.0854,773.68,734.62,-1077.94
18570,-3.8741,-0.0061,0.0515,351.81,-1062.38,-15.50
18580,-3.8741,-0.0819,0.0001,-773.19,-1390.69,1484.44
18590,-3.8743,-0.1517,-0.0513,1523.68,31.07,-281.25
18600,-3.8743,-0.2113,-0.0891,586.18,1452.82,-1234.50
18610,-3.8743,-0.2617,-0.1099,961.18,608.95,-1187.68
18620,-3.8741,-0.2966,-0.1152,-1491.94,1952.58,15.38
18630,-3.8741,-0.3207,-0.1072,-1960.69,1265.01,-1609.62
18640,-3.8740,-0.3445,-0.0924,-1038.82,-1703.80,-1953.37
18650,-3.8739,-0.3711,-0.0865,-85.69,186.77,-1359.56
18660,-3.8738,-0.4036,-0.0951,508.06,936.77,-922.06
18670,-3.8737,-0.4385,-0.1051,351.81,-157.04,-1484.62
18680,-3.8735,-0.4817,-0.1033,-116.94,-1438.42,1374.76
18690,-3.8734,-0.5416,-0.0864,-1648.19,-1204.10,1171.63
18700,-3.8733,-0.6161,-0.0510,-1320.07,952.03,-1000.18
18710,-3.8730,-0.7043,0.0044,1148.68,1483.15,-1312.62
18720,-3.8728,-0.7943,0.0662,1851.81,576.72,-46.88
18730,-3.8724,-0.8690,0.1151,-1663.82,482.79,-1515.50
18740,-3.8721,-0.9199,0.1469,773.68,-1251.71,1047.06
18750,-3.8718,-0.9475,0.1654,-1741.94,-1189.33,1843.99
18760,-3.8717,-0.9564,0.1750,-1273.19,1185.61,-265.32
18770,-3.8716,-0.9438,0.1823,1586.18,-1580.02,-577.82
18780,-3.8715,-0.9213,0.1887,-804.44,-658.14,-1765.32
18790,-3.8713,-0.9095,0.1951,-1913.82,170.04,1469.12
18800,-3.8712,-0.9241,0.2043,-413.82,982.54,1437.87
18810,-3.8711,-0.9630,0.2231,1726.81,-1829.96,1890.99
18820,-3.8710,-1.0055,0.2574,742.43,576.23,-983.95
18830,-3.8707,-1.0310,0.2997,-695.07,966.74,359.86
18840,-3.8706,-1.0237,0.3367,39.31,-1627.01,1313.05
18850,-3.8705,-0.9879,0.3663,976.81,-892.64,1719.36
18860,-3.8704,-0.9391,0.3927,1554.93,-1095.70,1110.05
18870,-3.8704,-0.8845,0.4196,-195.07,-1720.64,-718.02
18880,-3.8702,-0.8279,0.4447,-1210.69,1716.98,891.42
18890,-3.8702,-0.7654,0.4597,-1960.69,935.85,-1217.90
18900,-3.8701,-0.6985,0.4706,-1960.69,-1142.15,1610.23
18910,-3.8700,-0.6381,0.4939,-1398.19,248.60,1625.92
18920,-3.8699,-0.5911,0.5397,-1663.82,-766.91,-592.83
18930,-3.8696,-0.5573,0.6040,351.81,1092.59,-139.59
18940,-3.8693,-0.5267,0.6752,679.93,1327.03,-1030.09
18950,-3.8689,-0.4845,0.7373,586.18,-1563.54,-889.34
18960,-3.8685,-0.4189,0.7717,1992.43,-1610.35,1813.90
18970,-3.8683,-0.3353,0.7726,-1616.94,-1203.98,1485.84
18980,-3.8682,-0.2439,0.7494,1086.18,-1094.42,1704.59
18990,-3.8682,-0.1495,0.7185,789.31,-62.99,-1420.47
19000,-3.8682,-0.0604,0.6855,867.43,-15.93,95.09
19010,-3.8684,0.0142,0.6506,273.68,-234.50,-123.72
19020,-3.8684,0.0626,0.6215,1820.56,-718.75,626.22
19030,-3.8685,0.0823,0.5995,23.68,-453.00,-1639.47
19040,-3.8687,0.0892,0.5774,-1460.69,734.50,-920.72
19050,-3.8688,0.1046,0.5525,-570.07,1906.37,1391.72
19060,-3.8690,0.1356,0.5269,1398.68,-1281.07,1391.66
19070,-3.8694,0.1697,0.4990,1367.43,-562.26,-61.52
19080,-3.8696,0.1887,0.4648,1726.81,-124.69,1422.79
19090,-3.8700,0.1932,0.4221,164.31,-499.63,1188.35
19100,-3.8705,0.1951,0.3789,742.43,-1968.38,-311.71
19110,-3.8708,0.1956,0.3488,976.81,500.37,-1702.39
19120,-3.8712,0.1943,0.3376,1039.31,640.99,1344.42
19130,-3.8716,0.2020,0.3390,883.06,-780.88,1469.36
19140,-3.8719,0.2302,0.3409,1867.43,-609.01,-1249.39
19150,-3.8722,0.2725,0.3407,1476.81,-358.95,734.99
19160,-3.8726,0.3044,0.3403,-1116.94,-390.14,-686.89
19170,-3.8728,0.3058,0.3323,-1023.19,-436.95,1906.86
19180,-3.8732,0.2747,0.2987,-851.32,-1468.20,-186.89
19190,-3.8734,0.2268,0.2358,-835.69,-1765.14,750.55
19200,-3.8738,0.1797,0.1627,1039.31,-1812.07,1219.18
19210,-3.8741,0.1449,0.1017,-991.94,828.43,-1765.32
19220,-3.8744,0.1265,0.0579,-1445.07,1015.87,453.31
19230,-3.8746,0.1155,0.0254,195.56,-593.51,234.44
19240,-3.8749,0.0955,-0.0076,-1210.69,-749.82,1984.38
19250,-3.8750,0.0579,-0.0449,226.81,-968.57,-1953.19
19260,-3.8750,0.0066,-0.0674,-585.69,-1749.94,578.00
19270,-3.8750,-0.0581,-0.0671,851.81,-625.00,671.69
19280,-3.8750,-0.1359,-0.0657,570.56,-578.25,999.82
19290,-3.8750,-0.2186,-0.0758,-1382.57,-390.93,1874.82
19300,-3.8750,-0.2999,-0.0848,23.68,-1687.93,-203.31
19310,-3.8749,-0.3796,-0.0793,1617.43,1155.64,-1047.06
19320,-3.8748,-0.4564,-0.0620,-585.69,1858.58,-547.06
19330,-3.8745,-0.5272,-0.0505,1586.18,77.21,343.63
19340,-3.8744,-0.5883,-0.0557,523.68,1545.84,1187.38
19350,-3.8743,-0.6412,-0.0708,711.18,889.47,1796.75
19360,-3.8741,-0.6832,-0.0808,1929.93,-1048.16,-1265.81
19370,-3.8739,-0.7140,-0.0774,554.93,1670.53,984.19
19380,-3.8737,-0.7455,-0.0601,617.43,-1892.03,671.69
19390,-3.8734,-0.7850,-0.0265,586.18,326.66,1046.75
19400,-3.8732,-0.8328,0.0332,-476.32,623.41,-1765.69
19410,-3.8728,-0.8879,0.1221,1414.31,263.98,1687.56
19420,-3.8723,-0.9546,0.2197,-1648.19,-361.15,156.43
19430,-3.8718,-1.0221,0.2939,1820.56,138.73,1016.05
19440,-3.8713,-1.0726,0.3142,1179.93,1638.61,969.30
19450,-3.8711,-1.0908,0.2765,-1288.82,232.24,-15.01
19460,-3.8708,-1.0648,0.2209,383.06,-595.89,1359.86
19470,-3.8708,-1.0146,0.1847,-288.82,294.74,-249.57
19480,-3.8707,-0.9821,0.1741,-1866.94,-345.76,-1937.19
19490,-3.8706,-0.9922,0.1837,-1695.07,-1705.08,1125.31
19500,-3.8705,-1.0320,0.2147,1008.06,-470.70,484.68
19510,-3.8704,-1.0594,0.2705,-85.69,-502.08,94.12
19520,-3.8702,-1.0420,0.3488,398.68,-1361.45,-1905.76
19530,-3.8699,-0.9857,0.4440,-1366.94,654.17,750.67
19540,-3.8695,-0.9224,0.5349,1836.18,841.80,-1467.90
19550,-3.8691,-0.8660,0.5906,1945.56,482.54,-186.46
19560,-3.8688,-0.8115,0.5978,1164.31,-392.33,1594.85
19570,-3.8687,-0.7579,0.5740,133.06,529.66,-1686.34
19580,-3.8687,-0.7111,0.5516,-1007.57,1482.85,-952.03
19590,-3.8687,-0.6821,0.5454,992.43,-1376.40,-1811.46
19600,-3.8687,-0.6648,0.5547,695.56,1826.78,1516.66
19610,-3.8687,-0.6306,0.5826,-1085.69,-985.72,1922.91
19620,-3.8685,-0.5681,0.6288,-710.69,-1407.53,360.47
19630,-3.8684,-0.4940,0.6719,-710.69,498.84,126.22
19640,-3.8684,-0.4255,0.6847,773.68,-1985.35,-1608.09
19650,-3.8684,-0.3638,0.6620,1539.31,-344.60,938.78
19660,-3.8687,-0.3007,0.6179,1445.56,749.27,-936.22
19670,-3.8689,-0.2263,0.5687,1523.68,-891.24,1782.41
19680,-3.8693,-0.1376,0.5212,-960.69,812.01,-717.65
19690,-3.8695,-0.0488,0.4773,-1601.32,-1265.93,1391.60
19700,-3.8698,0.0250,0.4437,1758.06,1109.25,829.04
19710,-3.8700,0.0848,0.4243,-788.82,796.88,1532.10
19720,-3.8702,0.1313,0.4139,-1132.57,-1687.38,-514.83
19730,-3.8704,0.1566,0.4078,820.56,984.62,-1389.83
19740,-3.8705,0.1558,0.4087,54.93,203.43,1985.17
19750,-3.8706,0.1309,0.4189,-54.44,312.74,1141.42
19760,-3.8707,0.0858,0.4282,758.06,1625.24,203.92
19770,-3.8710,0.0400,0.4276,-1007.57,-1187.38,-1171.08
19780,-3.8711,0.0184,0.4264,1133.06,-1265.56,235.17
19790,-3.8713,0.0298,0.4309,-1632.57,-1421.88,1032.04
19800,-3.8716,0.0629,0.4354,-179.44,-843.75,-1842.96
19810,-3.8718,0.0999,0.4293,54.93,-265.50,-1171.08
19820,-3.8721,0.1339,0.4032,789.31,-1046.69,1688.29
19830,-3.8724,0.1672,0.3601,1148.68,-390.38,-1358.64
19840,-3.8728,0.1987,0.3129,1414.31,-1905.94,-1108.70
19850,-3.8732,0.2201,0.2699,1445.56,47.24,-296.26
19860,-3.8734,0.2157,0.2296,179.93,-1452.70,-1952.64
19870,-3.8737,0.1703,0.1840,-382.57,1390.99,-1562.07
19880,-3.8738,0.0846,0.1427,1804.93,-452.82,734.68
19890,-3.8740,-0.0254,0.1194,-1163.82,-1734.25,-281.01
19900,-3.8741,-0.1375,0.0999,758.06,-703.19,-1577.94
19910,-3.8743,-0.2358,0.0662,-1585.69,796.57,1359.56
19920,-3.8744,-0.3185,0.0178,1820.56,483.89,1078.25
19930,-3.8745,-0.3759,-0.0349,-757.57,-1703.80,1875.00
19940,-3.8746,-0.4070,-0.0864,-101.32,-453.92,-484.50
19950,-3.8746,-0.4263,-0.1353,-85.69,952.27,1624.82
19960,-3.8746,-0.4473,-0.1815,1445.56,-1297.73,109.07
19970,-3.8748,-0.4778,-0.2290,-1241.94,780.33,-625.37
19980,-3.8746,-0.5161,-0.2704,-1148.19,-1297.85,530.76
19990,-3.8745,-0.5612,-0.2808,1945.56,1405.21,202.58
20000,-3.8744,-0.6116,-0.2488,179.93,77.03,-1219.30
20010,-3.8741,-0.6753,-0.1921,1726.81,170.65,-406.74
20020,-3.8738,-0.7520,-0.1339,1570.56,-579.47,1015.20
20030,-3.8735,-0.8228,-0.0851,-241.94,-1126.53,-1953.43
20040,-3.8733,-0.8625,-0.0450,-1304.44,1123.35,-703.31
20050,-3.8729,-0.8680,-0.0089,1601.81,-1751.71,1343.63
20060,-3.8727,-0.8557,0.0334,898.68,-1126.71,-109.44
20070,-3.8723,-0.8400,0.0828,-1523.19,295.17,-1421.81
20080,-3.8719,-0.8315,0.1356,492.43,-1392.27,1750.12
20090,-3.8716,-0.8394,0.1924,1570.56,1373.35,-1937.26
20100,-3.8712,-0.8815,0.2415,570.56,638.98,-843.38
20110,-3.8708,-0.9662,0.2599,-820.07,-1079.90,-187.07
20120,-3.8705,-1.0715,0.2390,336.18,1279.36,-1780.76
20130,-3.8704,-1.1609,0.2001,-1148.19,-1392.76,-30.82
20140,-3.8702,-1.2010,0.1765,-585.69,1622.68,640.99
20150,-3.8704,-1.1639,0.1919,-1726.32,-1393.01,-1343.44
20160,-3.8704,-1.0436,0.2533,-976.32,575.81,1609.74
20170,-3.8702,-0.8754,0.3473,-1570.07,435.42,1484.86
20180,-3.8700,-0.7015,0.4498,-38.82,466.98,-577.45
20190,-3.8695,-0.5449,0.5281,-1788.82,1592.35,297.73
20200,-3.8693,-0.4269,0.5461,-1741.94,-391.72,-233.40
20210,-3.8690,-0.3652,0.5063,1367.43,1921.02,-827.09
20220,-3.8689,-0.3788,0.4388,1258.06,827.39,1782.23
20230,-3.8689,-0.4709,0.3730,-476.32,186.71,1110.23
20240,-3.8689,-0.6077,0.3361,-273.19,-235.35,203.80
20250,-3.8689,-0.7428,0.3362,-1773.19,-969.97,1391.24
20260,-3.8688,-0.8398,0.3630,929.93,-954.59,1406.86
20270,-3.8687,-0.8781,0.3926,508.06,-1517.27,-921.20
20280,-3.8684,-0.8541,0.4084,-382.57,-1736.15,641.36
20290,-3.8684,-0.7825,0.4030,-1320.07,295.17,-61.71
20300,-3.8684,-0.6884,0.3673,-148.19,-407.84,-764.89
20310,-3.8685,-0.5852,0.3129,-101.32,-970.15,-1108.70
20320,-3.8688,-0.4723,0.2609,1101.81,61.34,-296.26
20330,-3.8690,-0.3457,0.2240,-445.07,1405.27,-858.89
20340,-3.8693,-0.2137,0.2035,-241.94,686.77,-796.45
20350,-3.8694,-0.1031,0.2035,648.68,-1937.93,687.87
20360,-3.8696,-0.0404,0.2222,-1195.07,-1937.74,-1109.01
20370,-3.8698,-0.0223,0.2455,-1163.82,453.00,1297.30
20380,-3.8700,-0.0111,0.2689,1148.68,-562.56,-140.20
20390,-3.8701,0.0276,0.2924,-1413.82,-1562.56,1750.49
20400,-3.8704,0.1007,0.3149,-460.69,1421.88,-1796.33
20410,-3.8706,0.1923,0.3242,898.68,312.68,734.99
20420,-3.8710,0.2736,0.3065,617.43,1500.37,859.99
20430,-3.8715,0.3228,0.2640,-976.32,-765.14,-1671.33
20440,-3.8719,0.3431,0.2092,1320.56,1797.49,1891.11
20450,-3.8724,0.3569,0.1602,-70.07,-1218.14,1375.37
20460,-3.8729,0.3835,0.1290,1695.56,500.67,-1827.82
20470,-3.8733,0.4178,0.1108,1101.81,516.36,1828.37
20480,-3.8735,0.4314,0.0986,1492.43,-1811.71,1422.06
20490,-3.8737,0.4122,0.1061,-773.19,625.79,562.68
20500,-3.8738,0.3755,0.1364,773.68,1578.92,1625.18
20510,-3.8739,0.3357,0.1586,70.56,1453.86,-1218.51
20520,-3.8740,0.2939,0.1547,-1023.19,297.49,-859.07
20530,-3.8741,0.2439,0.1350,1633.06,-202.58,-921.63
20540,-3.8743,0.1823,0.1168,-773.19,1281.68,-609.13
20550,-3.8743,0.1056,0.1080,-663.82,-1046.57,718.93
20560,-3.8744,0.0045,0.1078,1523.68,1828.31,-249.82
20570,-3.8743,-0.1183,0.1149,586.18,1796.88,687.68
20580,-3.8743,-0.2389,0.1230,867.43,-1281.49,-1546.69
20590,-3.8743,-0.3296,0.1218,1429.93,-234.86,-327.94
20600,-3.8743,-0.3771,0.1130,1820.56,-391.30,-109.19
20610,-3.8741,-0.3816,0.1075,-257.57,-1516.42,140.81
20620,-3.8741,-0.3612,0.1039,-835.69,1780.46,1437.68
20630,-3.8741,-0.3562,0.0995,1773.68,1311.77,-390.44
20640,-3.8740,-0.3796,0.1016,-1585.69,749.27,1968.93
20650,-3.8739,-0.4218,0.1122,-585.69,1014.83,265.81
20660,-3.8739,-0.4775,0.1311,-1976.32,-1625.85,-781.07
20670,-3.8738,-0.5623,0.1476,-1116.94,795.90,-718.51
20680,-3.8735,-0.6680,0.1493,39.31,-1094.85,500.24
20690,-3.8734,-0.7537,0.1448,-1491.94,-876.34,-1968.51
20700,-3.8733,-0.8203,0.1501,-460.69,-1454.65,-765.38
20710,-3.8730,-0.8705,0.1750,-991.94,-767.27,312.74
20720,-3.8729,-0.9058,0.2186,586.18,-1579.83,-1968.44
20730,-3.8727,-0.9397,0.2784,70.56,-1.77,-1202.76
20740,-3.8723,-0.9948,0.3325,-273.19,-345.64,-937.01
20750,-3.8718,-1.0880,0.3359,679.93,-1423.83,16.24
20760,-3.8716,-1.1846,0.2977,742.43,-986.51,-108.76
20770,-3.8712,-1.2590,0.2625,383.06,-1877.32,1719.30
20780,-3.8710,-1.3068,0.2378,-1148.19,1606.87,1297.36
20790,-3.8708,-1.3243,0.2120,742.43,-1549.44,-1046.45
20800,-3.8707,-1.3165,0.1769,-1507.57,-846.37,-1421.51
20810,-3.8706,-1.2915,0.1494,-507.57,-1346.37,-1530.94
20820,-3.8704,-1.2719,0.1615,-1304.44,-861.94,1547.12
20830,-3.8700,-1.2592,0.2177,1211.18,685.00,969.06
20840,-3.8696,-1.2374,0.2769,-1163.82,-127.50,-577.76
20850,-3.8691,-1.1829,0.2992,1617.43,-549.32,-1702.64
20860,-3.8688,-1.0864,0.3000,601.81,-1689.82,-515.08
20870,-3.8684,-0.9745,0.3076,945.56,-1580.26,-1608.83
20880,-3.8682,-0.8671,0.3048,-726.32,-611.33,-452.58
20890,-3.8679,-0.7782,0.2665,1023.68,-970.46,-1671.33
20900,-3.8678,-0.7189,0.2090,398.68,-1876.53,1109.86
20910,-3.8679,-0.6902,0.1654,-7.57,-1235.84,-546.51
20920,-3.8679,-0.6675,0.1525,-335.69,1186.10,203.43
20930,-3.8680,-0.6157,0.1851,-1429.44,-470.09,-202.88
20940,-3.8678,-0.5452,0.2677,1195.56,-298.10,375.31
20950,-3.8676,-0.4713,0.3740,-1773.19,-1719.85,875.49
20960,-3.8673,-0.3839,0.4735,-320.07,-110.35,-889.95
20970,-3.8671,-0.2839,0.5372,-1132.57,624.21,-342.83
20980,-3.8669,-0.1825,0.5292,-335.69,780.64,1610.41
20990,-3.8672,-0.0847,0.4445,648.68,-250.37,-1874.02
21000,-3.8677,0.0045,0.3315,1164.31,906.07,-1264.77
21010,-3.8683,0.0763,0.2466,586.18,-1562.50,-593.14
21020,-3.8688,0.1289,0.2123,1773.68,-437.38,641.05
21030,-3.8693,0.1630,0.2189,508.06,-827.88,1890.99
21040,-3.8696,0.1830,0.2471,867.43,15.93,-312.07
21050,-3.8699,0.1989,0.2766,-570.07,-374.69,-437.07
21060,-3.8701,0.2230,0.2950,1461.18,-593.38,-1421.39
21070,-3.8704,0.2660,0.3055,554.93,1766.05,344.30
21080,-3.8707,0.3228,0.3086,-1945.07,-890.14,1781.80
21090,-3.8711,0.3806,0.3041,1320.56,-499.39,-843.20
21100,-3.8715,0.4231,0.2930,726.81,-1077.39,-108.83
21110,-3.8718,0.4396,0.2710,-1835.69,1500.79,-515.08
21120,-3.8722,0.4331,0.2371,273.68,-1311.65,1828.61
21130,-3.8727,0.4144,0.1908,-554.44,-1655.46,-702.70
21140,-3.8730,0.3789,0.1344,1054.93,422.67,1328.49
21150,-3.8734,0.3147,0.0872,508.06,1203.86,1375.24
21160,-3.8738,0.2260,0.0591,289.31,-843.14,-703.00
21170,-3.8740,0.1373,0.0378,929.93,-437.07,-1078.06
21180,-3.8741,0.0840,0.0184,1586.18,843.99,859.44
21190,-3.8743,0.0747,0.0077,-1241.94,-1640.50,1000.00
21200,-3.8744,0.0901,0.0096,1570.56,984.50,-1609.38
21210,-3.8744,0.1063,0.0170,-460.69,1234.50,109.38
21220,-3.8745,0.1085,0.0195,1617.43,-1827.94,1937.50
21230,-3.8745,0.0934,0.0103,1898.68,-1499.82,31.25
21240,-3.8746,0.0610,-0.0120,-38.82,1312.62,-1328.12
21250,-3.8746,0.0139,-0.0355,-179.44,-1531.19,-1703.19
21260,-3.8746,-0.0404,-0.0386,1789.31,-546.88,-906.37
21270,-3.8745,-0.0959,-0.0155,-1163.82,-922.00,843.63
21280,-3.8745,-0.1572,0.0079,-273.19,-1968.99,-937.56
21290,-3.8744,-0.2288,0.0082,-116.94,1030.88,1578.12
21300,-3.8743,-0.3073,-0.0092,-1273.19,1062.01,265.62
21310,-3.8743,-0.3865,-0.0299,679.93,-1156.86,-1328.19
21320,-3.8741,-0.4580,-0.0485,-1460.69,186.71,1124.94
21330,-3.8740,-0.5176,-0.0553,1383.06,1811.58,578.00
21340,-3.8739,-0.5879,-0.0413,1758.06,936.46,1718.63
21350,-3.8737,-0.6750,-0.0105,758.06,-1266.78,578.00
21360,-3.8735,-0.7743,0.0203,1601.81,-1329.47,-0.06
21370,-3.8733,-0.8951,0.0532,898.68,-1392.15,-234.38
21380,-3.8729,-1.0266,0.0902,1429.93,-1173.65,109.44
21390,-3.8727,-1.1566,0.1099,601.81,-439.51,1343.87
21400,-3.8724,-1.2725,0.1063,-38.82,-1924.19,-499.82
21410,-3.8721,-1.3517,0.0907,1133.06,1622.50,375.18
21420,-3.8719,-1.3966,0.0742,-1007.57,-377.69,-1828.00
21430,-3.8718,-1.4154,0.0632,1242.43,1512.88,-1718.63
21440,-3.8717,-1.4208,0.0605,-1163.82,106.57,-1593.63
21450,-3.8716,-1.4283,0.0713,-1851.32,-237.18,-984.31
21460,-3.8713,-1.4342,0.1072,1179.93,1137.82,1140.75
21470,-3.8711,-1.4264,0.1675,429.93,1731.57,1781.43
21480,-3.8707,-1.3962,0.2435,1429.93,1450.32,-1796.57
21490,-3.8702,-1.3643,0.3263,1289.31,-815.25,1672.30
21500,-3.8698,-1.3347,0.3918,1383.06,1778.56,1000.61
21510,-3.8694,-1.2837,0.4159,1164.31,-1830.75,1016.36
21520,-3.8691,-1.1923,0.3989,-304.44,1247.44,219.54
21530,-3.8691,-1.0602,0.3579,-601.32,-924.26,-374.27
21540,-3.8690,-0.9136,0.3105,304.93,1826.05,735.05
21550,-3.8690,-0.7729,0.2814,-929.44,-236.21,1641.17
21560,-3.8689,-0.6525,0.3016,1070.56,29.72,1266.17
21570,-3.8687,-0.5599,0.3846,492.43,-1376.28,-1858.83
21580,-3.8682,-0.4834,0.4951,336.18,1248.90,891.36
21590,-3.8677,-0.4016,0.5773,-1866.94,-610.35,1922.79
21600,-3.8673,-0.2872,0.6036,601.81,1905.46,-530.15
21610,-3.8671,-0.1398,0.5741,-757.57,1280.64,1485.53
21620,-3.8672,0.0139,0.4995,-1882.57,1499.69,-1498.90
21630,-3.8674,0.1454,0.4060,1789.31,-62.50,375.92
21640,-3.8679,0.2377,0.3318,-1382.57,-31.01,-343.02
21650,-3.8683,0.2863,0.2924,-1570.07,-1530.82,-93.14
21660,-3.8685,0.3033,0.2788,648.68,1422.42,-1733.83
21670,-3.8688,0.3102,0.2786,-1163.82,-311.95,1922.36
21680,-3.8690,0.3229,0.2805,-288.82,-343.20,1672.36
21690,-3.8693,0.3485,0.2766,1336.18,-93.14,1109.86
21700,-3.8696,0.3738,0.2592,617.43,-593.08,-827.64
21710,-3.8700,0.3787,0.2238,-148.19,1172.55,-1624.51
21720,-3.8705,0.3556,0.1757,476.81,641.36,-1624.57
21730,-3.8711,0.3129,0.1270,1523.68,-1514.95,-93.44
21740,-3.8716,0.2665,0.0874,54.93,250.61,547.12
21750,-3.8722,0.2322,0.0612,-1882.57,-812.01,1906.37
21760,-3.8727,0.2102,0.0415,1726.81,-171.45,796.94
21770,-3.8732,0.1837,0.0212,-1085.69,1312.87,1437.56
21780,-3.8737,0.1445,-0.0015,-476.32,-1280.94,-203.12
21790,-3.8740,0.1017,-0.0282,-1491.94,-187.26,-15.69
21800,-3.8743,0.0671,-0.0497,1023.68,390.81,-1718.81
21810,-3.8745,0.0453,-0.0547,601.81,1640.75,-1406.37
21820,-3.8746,0.0411,-0.0417,1804.93,1000.06,624.88
21830,-3.8748,0.0587,-0.0199,1273.68,-1343.69,390.50
21840,-3.8749,0.0829,0.0020,-476.32,1453.19,1718.69
21850,-3.8749,0.0874,0.0210,-1382.57,250.12,78.12
21860,-3.8750,0.0598,0.0337,-804.44,-1312.38,-1156.25
21870,-3.8750,0.0040,0.0383,-335.69,312.56,1593.81
21880,-3.8750,-0.0649,0.0454,523.68,906.25,578.19
21890,-3.8750,-0.1345,0.0676,-304.44,1827.94,718.81
21900,-3.8750,-0.2076,0.1034,-1210.69,671.57,-1437.38
21910,-3.8749,-0.2881,0.1371,1429.93,1249.57,-1765.44
21920,-3.8748,-0.3693,0.1534,-866.94,1561.89,-265.38
21930,-3.8745,-0.4474,0.1552,742.43,-344.48,-1843.51
21940,-3.8743,-0.5256,0.1575,-1257.57,-125.92,609.62
21950,-3.8740,-0.6084,0.1782,726.81,170.84,281.56
21960,-3.8738,-0.7056,0.2195,-1866.94,-1173.10,-1484.07
21970,-3.8734,-0.8197,0.2587,1695.56,107.97,-1905.82
21980,-3.8730,-0.9358,0.2744,-913.82,1123.35,1547.36
21990,-3.8727,-1.0444,0.2698,226.81,-861.21,969.24
22000,-3.8724,-1.1500,0.2650,-1679.44,-1455.20,-374.51
22010,-3.8721,-1.2551,0.2734,804.93,1935.24,1437.99
22020,-3.8717,-1.3615,0.2904,-648.19,-986.88,344.24
22030,-3.8713,-1.4626,0.2993,1742.43,1184.81,375.55
22040,-3.8711,-1.5304,0.2894,789.31,-1674.74,-515.08
22050,-3.8707,-1.5414,0.2749,117.43,1059.51,688.05
22060,-3.8705,-1.4985,0.2847,-1288.82,-799.93,1734.86
22070,-3.8701,-1.4165,0.3267,195.56,450.20,1234.92
22080,-3.8698,-1.3094,0.3865,-1304.44,1825.32,-61.89
22090,-3.8691,-1.1847,0.4520,398.68,1481.81,391.36
22100,-3.8687,-1.0498,0.5095,367.43,1872.68,219.60
22110,-3.8683,-0.9178,0.5420,1633.06,1232.30,1579.10
22120,-3.8680,-0.8007,0.5416,-1476.32,1388.79,-436.46
22130,-3.8678,-0.7112,0.5166,1523.68,1342.16,1782.29
22140,-3.8678,-0.6487,0.4883,976.81,-1860.78,-14.65
22150,-3.8678,-0.5790,0.4713,976.81,-1485.66,-655.33
22160,-3.8678,-0.4591,0.4647,1898.68,342.59,-1311.58
22170,-3.8678,-0.2876,0.4657,1242.43,-500.92,-186.65
22180,-3.8677,-0.0967,0.4774,-804.44,-375.61,-1561.65
22190,-3.8676,0.0826,0.4960,-366.94,1124.76,750.92
22200,-3.8676,0.2308,0.5074,-1413.82,-515.50,907.17
22210,-3.8677,0.3397,0.4927,1554.93,953.55,-1967.77
22220,-3.8679,0.4080,0.4462,-507.57,-936.89,-155.33
22230,-3.8682,0.4398,0.3878,226.81,1110.17,-1436.65
22240,-3.8685,0.4495,0.3344,304.93,1641.48,-1624.27
22250,-3.8690,0.4552,0.2836,1539.31,-1202.27,-358.76
22260,-3.8695,0.4653,0.2302,-1726.32,297.73,-405.70
22270,-3.8700,0.4751,0.1746,-429.44,1469.60,-937.07
22280,-3.8705,0.4749,0.1241,820.56,-1655.33,-1312.19
22290,-3.8710,0.4635,0.0873,789.31,-108.46,-343.57
22300,-3.8713,0.4473,0.0646,-663.82,-827.27,-1421.75
22310,-3.8717,0.4314,0.0552,1258.06,266.48,-890.50
22320,-3.8719,0.4250,0.0599,-773.19,-936.71,890.69
22330,-3.8722,0.4258,0.0717,-1585.69,-327.33,343.81
22340,-3.8724,0.4163,0.0814,-1491.94,1172.67,1390.75
22350,-3.8727,0.3862,0.0911,1289.31,-1577.33,-1593.63
22360,-3.8729,0.3329,0.1011,1445.56,-343.02,-1468.63
22370,-3.8732,0.2612,0.1031,-1382.57,938.11,-1749.82
22380,-3.8734,0.1825,0.0929,1445.56,1203.61,1937.68
22390,-3.8737,0.1023,0.0760,-632.57,-109.07,1468.87
22400,-3.8739,0.0223,0.0541,1101.81,1734.56,453.25
22410,-3.8743,-0.0491,0.0259,-1132.57,-1078.12,-890.56
22420,-3.8745,-0.1051,-0.0028,1726.81,-672.00,-1468.75
22430,-3.8746,-0.1516,-0.0222,-1445.07,-343.99,187.44
22440,-3.8748,-0.1948,-0.0251,601.81,1171.57,890.56
22450,-3.8748,-0.2317,-0.0165,-929.44,796.45,281.19
22460,-3.8748,-0.2612,-0.0011,-1648.19,1905.76,1421.81
22470,-3.8748,-0.2911,0.0217,-1429.44,-125.55,-62.56
22480,-3.8746,-0.3328,0.0465,-1257.57,-1203.74,-234.38
22490,-3.8744,-0.3966,0.0634,1414.31,1968.08,640.69
22500,-3.8743,-0.4716,0.0676,1242.43,124.21,1859.50
22510,-3.8741,-0.5508,0.0598,-351.32,670.90,-1343.63
22520,-3.8740,-0.6333,0.0507,1508.06,-329.22,-1374.94
22530,-3.8739,-0.7217,0.0583,-1054.44,-1501.28,-1281.19
22540,-3.8737,-0.8247,0.0833,-366.94,-517.09,703.19
22550,-3.8734,-0.9365,0.1058,-1554.44,-1329.77,1015.75
22560,-3.8732,-1.0479,0.1191,133.06,1560.67,-937.32
22570,-3.8728,-1.1451,0.1362,1883.06,-736.45,1875.18
22580,-3.8724,-1.2338,0.1549,1429.93,1450.87,156.49
22590,-3.8722,-1.3181,0.1669,-1913.82,-158.69,1687.74
22600,-3.8719,-1.3840,0.1808,-710.69,1372.38,-905.94
22610,-3.8716,-1.4169,0.2041,-1148.19,-846.50,1422.18
22620,-3.8712,-1.3960,0.2323,-1351.32,-1862.18,1250.37
22630,-3.8708,-1.3121,0.2627,1320.56,1747.25,-1546.45
22640,-3.8704,-1.1807,0.2976,54.93,1638.06,687.99
22650,-3.8699,-1.0282,0.3380,883.06,-1892.94,94.30
22660,-3.8694,-0.8795,0.3885,398.68,-720.76,813.11
22670,-3.8689,-0.7476,0.4430,-570.07,1748.23,-1343.02
22680,-3.8683,-0.6382,0.4779,320.56,717.29,-1467.90
22690,-3.8677,-0.5623,0.4901,-1679.44,1186.22,-1092.83
22700,-3.8672,-0.5280,0.4883,39.31,-1251.10,-1702.21
22710,-3.8669,-0.5104,0.4668,429.93,-1485.41,-1311.58
22720,-3.8668,-0.4696,0.4353,-1320.07,-235.41,-1858.52
22730,-3.8668,-0.3789,0.4170,-101.32,-266.60,1485.17
22740,-3.8669,-0.2294,0.4174,-491.94,1389.83,1875.79
22750,-3.8671,-0.0345,0.4291,-1351.32,1437.01,1407.04
22760,-3.8672,0.1859,0.4456,-413.82,-1062.62,594.54
22770,-3.8674,0.4004,0.4612,-195.07,1031.56,-1296.02
22780,-3.8677,0.5703,0.4767,-741.94,-968.02,-1249.15
22790,-3.8679,0.6824,0.4899,1008.06,1016.72,454.04
22800,-3.8683,0.7406,0.4911,-648.19,-1295.59,157.17
22810,-3.8688,0.7499,0.4705,-1195.07,-1139.22,1922.79
22820,-3.8693,0.7214,0.4305,-7.57,220.15,1469.67
22830,-3.8699,0.6711,0.3865,351.81,-889.22,-171.08
22840,-3.8704,0.6069,0.3389,1914.31,1470.03,-1843.02
22850,-3.8708,0.5405,0.2804,1695.56,-623.84,766.24
22860,-3.8715,0.4792,0.2153,1195.56,-108.34,-515.14
22870,-3.8719,0.4056,0.1559,1351.81,-436.58,-1874.63
22880,-3.8724,0.3147,0.1112,-70.07,-46.14,1265.87
22890,-3.8729,0.2280,0.0815,289.31,-1765.01,1672.06
22900,-3.8733,0.1652,0.0638,1195.56,-1562.07,265.75
22910,-3.8737,0.1323,0.0513,1148.68,172.18,953.25
22920,-3.8740,0.1240,0.0374,945.56,-1437.26,-1093.69
22930,-3.8743,0.1251,0.0221,-116.94,781.43,-1812.44
22940,-3.8745,0.1229,0.0133,23.68,-1171.63,-562.50
22950,-3.8746,0.1155,0.0116,-257.57,1703.31,-1781.25
22960,-3.8748,0.1055,0.0110,-1210.69,1484.56,1781.25
22970,-3.8749,0.0941,0.0101,1508.06,1406.43,1796.88
22980,-3.8750,0.0767,0.0087,54.93,1297.06,-953.12
22990,-3.8750,0.0436,0.0096,1820.56,1109.50,-1156.25
23000,-3.8749,-0.0121,0.0170,1586.18,1234.44,406.25
23010,-3.8749,-0.0840,0.0256,-1538.82,-1812.56,-1765.62
23020,-3.8748,-0.1611,0.0271,1258.06,-703.31,515.62
23030,-3.8748,-0.2380,0.0200,-616.94,-515.99,-328.12
23040,-3.8746,-0.3148,0.0125,1539.31,-1422.36,-406.25
23050,-3.8745,-0.3951,0.0157,-288.82,1608.70,-46.88
