timestamp_ms,ax,ay,az,gx,gy,gz
0,-3.8676,-2.0056,0.9960,-1804.44,683.90,1126.83
10,-3.8662,-2.1555,0.9604,-710.69,-503.97,408.14
20,-3.8654,-2.1967,0.8831,101.81,-1051.09,1829.96
30,-3.8649,-2.0363,0.8878,-1163.82,1042.54,-279.54
40,-3.8644,-1.6509,1.0570,-632.57,1652.22,-1529.54
50,-3.8639,-1.0409,1.3547,695.56,-690.73,-263.61
60,-3.8633,-0.2391,1.6793,-1226.32,1419.80,1830.75
70,-3.8629,0.6282,1.9619,1398.68,-1031.74,-715.52
80,-3.8627,1.4204,2.1798,414.31,-873.78,535.03
90,-3.8628,2.0396,2.3230,1820.56,-981.63,1738.59
100,-3.8632,2.5243,2.4128,1070.56,1347.72,-901.73
110,-3.8636,2.8726,2.4586,-882.57,848.63,98.45
120,-3.8646,3.0272,2.3885,-304.44,-1291.32,1332.89
130,-3.8661,2.9839,2.1099,-507.57,1740.23,1067.14
140,-3.8682,2.7107,1.6523,1945.56,-1931.70,-1839.66
150,-3.8705,2.2635,1.1632,-1023.19,-494.75,940.67
160,-3.8727,1.7495,0.7734,1742.43,895.02,736.63
170,-3.8744,1.2942,0.5333,-54.44,-996.64,-1873.54
180,-3.8442,0.9902,0.4232,1664.31,268.13,-155.21
190,-3.8448,0.8232,0.3922,-1241.94,-1826.23,-436.71
200,-3.8452,0.7544,0.3938,1383.06,-1795.29,1469.48
210,-3.8456,0.7130,0.3800,570.56,-1592.29,516.36
220,-3.8461,0.6302,0.3102,-726.32,641.97,1656.98
230,-3.8466,0.5035,0.1954,679.93,-295.65,719.30
240,-3.8470,0.3391,0.0786,461.18,1016.60,359.74
250,-3.8475,0.1479,-0.0135,-585.69,-1936.89,-62.38
260,-3.8477,-0.0583,-0.0792,-1054.44,-1734.13,1531.19
270,-3.8477,-0.2888,-0.1278,539.31,1874.88,1640.44
280,-3.8475,-0.5455,-0.1677,-960.69,-344.36,-578.43
290,-3.8472,-0.7986,-0.1891,-1820.07,-1454.22,1859.01
300,-3.8467,-1.0292,-0.1724,1789.31,-189.09,1874.57
310,-3.8461,-1.2440,-0.1432,273.68,1951.11,-1594.12
320,-3.8455,-1.4119,-0.1204,773.68,1685.06,-219.06
330,-3.8447,-1.5099,-0.0770,-710.69,606.57,1249.76
340,-3.8440,-1.5723,-0.0033,-1257.57,-1846.74,265.44
350,-3.8745,-1.6082,0.1013,-1241.94,-409.36,-1265.69
360,-3.8734,-1.6412,0.2373,-1835.69,981.20,0.18
370,-3.8722,-1.7363,0.3871,1929.93,-1612.61,1922.30
380,-3.8707,-1.8899,0.5148,1758.06,1559.08,313.23
390,-3.8694,-2.0547,0.6017,-1898.19,1902.53,750.98
400,-3.8682,-2.1880,0.6639,1008.06,1027.22,719.91
410,-3.8672,-2.2239,0.6976,-54.44,995.67,-201.84
420,-3.8663,-2.1235,0.6808,-648.19,1308.11,1970.09
430,-3.8660,-1.8728,0.6644,195.56,-847.90,-1561.22
440,-3.8660,-1.4333,0.7542,289.31,1058.84,-467.47
450,-3.8660,-0.8141,0.9885,539.31,544.07,-1107.91
460,-3.8657,-0.0834,1.3402,-195.07,-1454.77,1814.39
470,-3.8652,0.7153,1.7466,1336.18,-437.68,-1341.19
480,-3.8645,1.5236,2.1121,-429.44,-436.16,925.23
490,-3.8640,2.1794,2.3492,-976.32,-1653.32,-105.29
500,-3.8638,2.6270,2.4462,-1023.19,707.34,-1401.67
510,-3.8640,2.8566,2.4158,258.06,1114.50,98.51
520,-3.8650,2.8690,2.2368,1648.68,1224.30,-1464.05
530,-3.8665,2.7122,1.9165,-757.57,-1681.95,-386.29
540,-3.8683,2.3801,1.5051,-835.69,1317.75,-215.03
550,-3.8702,1.9489,1.0869,664.31,660.89,1331.05
560,-3.8722,1.5214,0.7477,1461.18,-871.22,1736.45
570,-3.8738,1.1758,0.5527,-1257.57,-293.95,-1045.47
580,-3.8748,0.9550,0.5013,-1491.94,-1247.74,-952.09
590,-3.8440,0.8162,0.5129,-1757.57,173.71,-1452.15
600,-3.8444,0.7139,0.5012,476.81,1657.84,-764.65
610,-3.8447,0.6082,0.4296,-616.94,157.59,1047.85
620,-3.8453,0.4633,0.3108,1851.81,-1014.47,1828.92
630,-3.8459,0.2977,0.1842,-695.07,-217.90,1375.55
640,-3.8464,0.1173,0.0730,-1882.57,-421.33,1140.93
650,-3.8468,-0.0782,-0.0231,-976.32,1343.93,-1468.63
660,-3.8469,-0.2832,-0.1019,1992.43,1062.32,656.19
670,-3.8470,-0.5007,-0.1572,-241.94,-1031.86,-609.62
680,-3.8469,-0.7269,-0.1843,-85.69,-110.41,-609.74
690,-3.8466,-0.9357,-0.1830,-1038.82,420.41,1077.76
700,-3.8461,-1.1433,-0.1720,242.43,591.92,93.38
710,-3.8456,-1.3409,-0.1733,1664.31,1997.74,-1812.87
720,-3.8450,-1.4916,-0.1838,367.43,1825.50,468.38
730,-3.8445,-1.5991,-0.1808,1086.18,481.45,1780.88
740,-3.8440,-1.6517,-0.1323,-679.44,871.83,-859.74
750,-3.8746,-1.6616,-0.0183,586.18,-925.11,-31.56
760,-3.8737,-1.6704,0.1571,-679.44,1668.58,890.56
770,-3.8724,-1.7075,0.3628,-1804.44,121.70,140.93
780,-3.8711,-1.7816,0.5494,1445.56,-1550.23,-1077.45
790,-3.8695,-1.8933,0.6848,-38.82,-1659.79,516.66
800,-3.8680,-2.0055,0.7773,1664.31,-331.85,407.53
810,-3.8668,-2.0336,0.8312,-695.07,-488.34,860.84
820,-3.8660,-1.9043,0.8433,-288.82,-1597.78,751.59
830,-3.8656,-1.5814,0.8601,258.06,-50.60,1907.84
840,-3.8655,-1.0610,0.9768,1586.18,-1893.74,1189.15
850,-3.8654,-0.3649,1.2574,195.56,1044.80,-1263.73
860,-3.8649,0.4639,1.6692,1304.93,968.02,-1013.18
870,-3.8640,1.3447,2.1216,-616.94,1657.10,143.86
880,-3.8633,2.0973,2.5194,133.06,-434.88,1300.96
890,-3.8628,2.6366,2.7855,461.18,-1511.54,51.76
900,-3.8629,2.9175,2.8384,1492.43,552.00,739.81
910,-3.8638,2.9172,2.6167,1445.56,-681.82,1989.87
920,-3.8654,2.6776,2.1577,1414.31,-1056.82,770.69
930,-3.8677,2.2648,1.6057,-1257.57,192.69,1535.46
940,-3.8702,1.8206,1.1212,1898.68,1535.64,-903.14
950,-3.8724,1.4528,0.7876,1039.31,-480.83,1939.64
960,-3.8741,1.1823,0.6133,1961.18,815.31,-60.97
970,-3.8439,0.9849,0.5405,-663.82,-1497.74,1094.91
980,-3.8446,0.8232,0.4874,-1929.44,1189.39,1938.54
990,-3.8452,0.6587,0.4026,1383.06,-1607.79,-1717.83
1000,-3.8458,0.4966,0.2842,320.56,-467.47,-1593.02
1010,-3.8464,0.3313,0.1525,-429.44,375.92,-1358.83
1020,-3.8470,0.1782,0.0179,-1585.69,-483.76,-93.51
1030,-3.8474,0.0516,-0.0905,-1179.44,-1702.82,1265.62
1040,-3.8477,-0.0724,-0.1519,-1382.57,421.94,1281.07
1050,-3.8478,-0.2284,-0.1860,-1257.57,577.94,-312.81
1060,-3.8477,-0.4290,-0.2162,-1226.32,202.64,-172.24
1070,-3.8473,-0.6707,-0.2413,1101.81,342.90,1062.07
1080,-3.8469,-0.9214,-0.2460,-1835.69,1123.66,-1031.74
1090,-3.8463,-1.1702,-0.2322,-1929.44,529.42,624.51
1100,-3.8457,-1.3820,-0.2035,-1773.19,-1705.44,1046.39
1110,-3.8451,-1.5292,-0.1655,-882.57,1966.00,-672.30
1120,-3.8444,-1.6218,-0.1185,273.68,-1174.87,1780.88
1130,-3.8749,-1.6566,-0.0370,414.31,840.58,1187.26
1140,-3.8740,-1.6846,0.0955,-38.82,-722.05,1062.38
1150,-3.8730,-1.7349,0.2775,383.06,231.08,-249.82
1160,-3.8717,-1.7966,0.4795,1945.56,-472.17,1875.49
1170,-3.8702,-1.8748,0.6517,-1960.69,1387.08,891.54
1180,-3.8689,-1.9453,0.7584,39.31,-566.16,-1748.78
1190,-3.8677,-1.9622,0.7921,-991.94,1089.90,376.46
1200,-3.8668,-1.9291,0.7595,851.81,1402.40,1017.15
1210,-3.8662,-1.8442,0.7239,1086.18,1230.59,767.09
1220,-3.8658,-1.6115,0.8177,-54.44,668.21,-217.35
1230,-3.8652,-1.1216,1.1150,1742.43,684.33,876.59
1240,-3.8645,-0.3680,1.5386,445.56,-1267.82,549.01
1250,-3.8638,0.5234,1.9493,898.68,952.39,-340.76
1260,-3.8629,1.3516,2.2816,-991.94,1516.60,394.41
1270,-3.8624,1.9236,2.4880,1008.06,49.50,-1808.04
1280,-3.8622,2.2437,2.5410,-1773.19,-1527.53,254.82
1290,-3.8625,2.3733,2.4464,-804.44,1254.33,-1604.43
1300,-3.8635,2.3777,2.2137,-210.69,1145.20,-198.36
1310,-3.8651,2.2776,1.8751,351.81,-635.99,-495.73
1320,-3.8672,2.0552,1.4786,-460.69,20.02,-1668.21
1330,-3.8695,1.7632,1.1097,-929.44,1269.59,-1606.51
1340,-3.8716,1.4727,0.8556,1695.56,-1949.71,814.64
1350,-3.8733,1.2445,0.7345,508.06,1518.49,-967.10
1360,-3.8744,1.0696,0.6875,-695.07,-1981.99,-1342.35
1370,-3.8439,0.9470,0.6388,914.31,2.08,563.84
1380,-3.8446,0.8313,0.5402,1226.81,1767.46,16.85
1390,-3.8455,0.7034,0.3929,-1585.69,1142.21,329.16
1400,-3.8464,0.5730,0.2356,-1960.69,-1701.78,-1405.52
1410,-3.8473,0.4292,0.0936,1351.81,-1842.65,-921.45
1420,-3.8479,0.2660,-0.0189,-1054.44,-14.83,1843.87
1430,-3.8483,0.0837,-0.0842,-1945.07,1578.61,1390.56
1440,-3.8484,-0.1244,-0.1071,-1273.19,1218.87,1718.57
1450,-3.8483,-0.3767,-0.1112,86.18,-1687.74,1781.01
1460,-3.8480,-0.6658,-0.1212,-210.69,1780.46,-968.99
1470,-3.8477,-0.9368,-0.1440,-1210.69,498.66,-1047.12
1480,-3.8472,-1.1735,-0.1589,101.81,1576.29,718.44
1490,-3.8467,-1.3695,-0.1407,1804.93,-330.44,-1765.99
1500,-3.8459,-1.5378,-0.1083,711.18,1997.31,874.69
1510,-3.8452,-1.7020,-0.0955,-835.69,-1846.80,1327.88
1520,-3.8445,-1.8303,-0.0635,-1851.32,-206.48,1531.01
1530,-3.8749,-1.9285,0.0741,1726.81,-112.98,1734.19
1540,-3.8737,-2.0212,0.3301,1164.31,1496.22,1843.87
1550,-3.8719,-2.1210,0.6165,1289.31,-1738.34,781.86
1560,-3.8700,-2.2455,0.8298,523.68,-1082.28,594.91
1570,-3.8682,-2.3833,0.8815,586.18,-1770.02,985.96
1580,-3.8669,-2.4741,0.7557,-1054.44,839.05,-60.79
1590,-3.8663,-2.4506,0.5654,-679.44,745.12,-639.16
1600,-3.8662,-2.2330,0.4723,-1663.82,385.80,1735.47
1610,-3.8662,-1.7637,0.5818,-1820.07,464.36,1094.67
1620,-3.8660,-1.0706,0.9178,-1741.94,-1519.10,1735.47
1630,-3.8652,-0.2286,1.4172,-1023.19,1497.86,1001.77
1640,-3.8641,0.6821,1.9393,-1257.57,1421.39,1455.87
1650,-3.8629,1.5115,2.3363,-679.44,235.66,-1402.47
1660,-3.8619,2.0514,2.4940,1476.81,-950.20,1535.77
1670,-3.8617,2.2893,2.4088,-1413.82,-761.66,536.07
1680,-3.8624,2.2980,2.1785,1039.31,332.58,-1010.93
1690,-3.8638,2.1857,1.9061,-1851.32,-1151.79,1347.96
1700,-3.8656,2.0175,1.6261,-226.32,-11.41,1284.91
1710,-3.8677,1.7928,1.3141,-1757.57,144.53,1628.17
1720,-3.8699,1.5471,0.9913,1492.43,206.60,1783.81
1730,-3.8719,1.3125,0.7319,-1960.69,-1106.38,1330.02
1740,-3.8737,1.1320,0.5974,8.06,1690.06,-1045.47
1750,-3.8748,0.9873,0.5663,898.68,470.95,-764.47
1760,-3.8441,0.8766,0.5669,-1616.94,486.27,391.72
1770,-3.8447,0.7590,0.5297,211.18,564.21,1235.47
1780,-3.8455,0.6056,0.4240,1164.31,-201.66,-608.40
1790,-3.8462,0.4304,0.2826,1523.68,-1733.22,-1405.46
1800,-3.8469,0.2295,0.1367,-898.19,172.67,-1390.08
1810,-3.8475,0.0151,0.0039,1383.06,1500.43,-952.88
1820,-3.8479,-0.1943,-0.0935,1945.56,500.00,-1937.50
1830,-3.8480,-0.4058,-0.1483,-866.94,46.45,421.69
1840,-3.8480,-0.6376,-0.1711,70.56,1030.46,-1687.81
1850,-3.8478,-0.8684,-0.1792,-1601.32,-1891.91,-1578.49
1860,-3.8474,-1.0953,-0.1819,851.81,1076.42,-1906.62
1870,-3.8469,-1.3010,-0.1512,-195.07,732.18,1015.26
1880,-3.8463,-1.4711,-0.0826,1476.81,653.69,1468.44
1890,-3.8456,-1.6039,-0.0428,-288.82,1434.57,-1937.68
1900,-3.8448,-1.7048,-0.0508,-1288.82,-1471.92,-1890.75
1910,-3.8441,-1.8011,-0.0360,1789.31,1512.27,218.63
1920,-3.8746,-1.8755,0.0679,1461.18,-597.29,1531.13
1930,-3.8735,-1.9536,0.2643,-54.44,699.40,1547.00
1940,-3.8721,-2.0729,0.4921,1945.56,1839.90,1656.74
1950,-3.8704,-2.2156,0.6827,-1320.07,-1004.09,250.92
1960,-3.8688,-2.3252,0.7957,414.31,-598.08,1454.41
1970,-3.8674,-2.3281,0.8302,-1616.94,1854.80,-1545.35
1980,-3.8665,-2.1768,0.8319,-1991.94,-1723.33,-779.66
1990,-3.8658,-1.8380,0.8627,1383.06,-1504.27,-482.79
2000,-3.8655,-1.2908,0.9935,742.43,-1566.10,-1013.98
2010,-3.8651,-0.5988,1.2762,-1210.69,-815.06,-1982.48
2020,-3.8645,0.1403,1.6742,-632.57,-626.22,-1716.31
2030,-3.8635,0.8456,2.0720,1961.18,-1702.88,1487.61
2040,-3.8625,1.3821,2.3668,242.43,1220.40,-42.85
2050,-3.8617,1.6915,2.4615,914.31,-1044.19,1113.95
2060,-3.8617,1.8323,2.3335,523.68,-918.58,-182.74
2070,-3.8624,1.8453,2.0927,-1460.69,-1308.96,-1698.61
2080,-3.8639,1.8455,1.8411,211.18,-137.02,-1683.47
2090,-3.8657,1.8357,1.5848,226.81,-340.15,1456.67
2100,-3.8678,1.7266,1.2913,-1023.19,-1137.08,1409.30
2110,-3.8699,1.5367,1.0032,1008.06,1284.61,33.75
2120,-3.8718,1.2889,0.8113,711.18,409.24,-482.42
2130,-3.8730,1.0637,0.7448,992.43,-153.75,579.65
2140,-3.8739,0.8992,0.7430,164.31,-669.80,-1342.35
2150,-3.8745,0.7771,0.7034,-898.19,-888.92,-1076.72
2160,-3.8440,0.6987,0.5760,-523.19,-1967.29,-1701.78
2170,-3.8450,0.6259,0.3925,1445.56,1735.72,969.85
2180,-3.8462,0.5454,0.2061,117.43,-1764.40,-1218.02
2190,-3.8472,0.4666,0.0658,1820.56,-1623.96,562.87
2200,-3.8479,0.3549,-0.0215,-273.19,422.73,578.25
2210,-3.8484,0.1904,-0.0822,1429.93,1250.67,-390.69
2220,-3.8485,-0.0198,-0.1249,383.06,1484.74,-968.93
2230,-3.8484,-0.2808,-0.1531,1476.81,31.19,921.63
2240,-3.8481,-0.5808,-0.1775,70.56,421.33,249.69
2250,-3.8479,-0.8702,-0.1989,1664.31,1295.72,-265.99
2260,-3.8474,-1.1198,-0.2000,617.43,-1439.21,-1375.43
2270,-3.8468,-1.3248,-0.1768,679.93,-1580.32,249.57
2280,-3.8463,-1.4706,-0.1290,-1570.07,1388.00,-15.99
2290,-3.8456,-1.5630,-0.0486,-226.32,-502.93,1999.69
2300,-3.8447,-1.6365,0.0575,-54.44,1793.76,703.00
2310,-3.8750,-1.7246,0.1835,-1460.69,-628.23,-781.19
2320,-3.8737,-1.8625,0.3369,-741.94,-503.42,-1734.07
2330,-3.8721,-2.0582,0.5143,1601.81,-863.04,1109.99
2340,-3.8704,-2.2737,0.6724,554.93,1839.72,1547.85
2350,-3.8687,-2.4543,0.7645,976.81,-1926.33,641.91
2360,-3.8673,-2.5216,0.7825,1851.81,1870.18,1688.96
2370,-3.8665,-2.4301,0.7479,1242.43,166.93,-342.22
2380,-3.8660,-2.1842,0.7300,961.18,-254.76,-1514.22
2390,-3.8657,-1.7712,0.8110,429.93,1448.85,313.90
2400,-3.8656,-1.1718,1.0275,1289.31,-175.35,-1857.85
2410,-3.8652,-0.4071,1.3701,-1976.32,-471.07,1048.83
2420,-3.8647,0.4760,1.8116,-101.32,-610.23,-1263.00
2430,-3.8640,1.3693,2.2620,929.93,-108.46,-715.27
2440,-3.8632,2.0408,2.5485,-726.32,1533.87,348.14
2450,-3.8628,2.4087,2.5769,1226.81,-1792.91,270.57
2460,-3.8632,2.5183,2.3998,320.56,1848.45,1442.50
2470,-3.8643,2.4640,2.1172,-1648.19,-823.24,-260.99
2480,-3.8657,2.3263,1.7986,-601.32,-995.24,504.09
2490,-3.8677,2.1277,1.4583,1773.68,-1776.73,1253.48
2500,-3.8699,1.8711,1.1099,351.81,-1339.60,-856.57
2510,-3.8719,1.5748,0.8108,-491.94,-1933.90,-1544.74
2520,-3.8737,1.3058,0.6256,1586.18,-215.70,-1935.97
2530,-3.8748,1.0959,0.5631,-851.32,80.63,1219.97
2540,-3.8441,0.9513,0.5654,289.31,80.26,1126.10
2550,-3.8446,0.8179,0.5398,1773.68,376.83,-655.15
2560,-3.8451,0.6742,0.4403,695.56,1095.34,1766.66
2570,-3.8458,0.5051,0.2927,-1695.07,360.66,-1514.77
2580,-3.8466,0.3049,0.1423,664.31,1469.73,-1265.08
2590,-3.8470,0.0873,0.0262,-960.69,-1780.70,1000.24
2600,-3.8473,-0.1471,-0.0454,-820.07,-640.50,31.25
2610,-3.8474,-0.3990,-0.0936,1179.93,-1797.18,-1218.87
2620,-3.8473,-0.6458,-0.1377,929.93,30.46,-1359.56
2630,-3.8470,-0.8600,-0.1580,1351.81,-1610.66,-1859.68
2640,-3.8467,-1.0923,-0.1477,1929.93,-204.83,-1390.99
2650,-3.8461,-1.3538,-0.1371,195.56,1107.24,562.19
2660,-3.8455,-1.6106,-0.1353,-1273.19,-1533.94,1999.69
2670,-3.8447,-1.8423,-0.1201,1851.81,-1300.05,1437.19
2680,-3.8440,-2.0238,-0.0740,195.56,637.02,-1125.24
2690,-3.8744,-2.1509,0.0179,961.18,-1457.09,-797.06
2700,-3.8733,-2.2408,0.1611,695.56,-1691.71,1000.00
2710,-3.8721,-2.3328,0.3386,1179.93,636.23,1094.06
2720,-3.8708,-2.4064,0.5256,1414.31,-645.20,-77.51
2730,-3.8695,-2.4298,0.6851,-7.57,-707.89,-1936.52
2740,-3.8684,-2.3929,0.7906,992.43,-301.64,-29.97
2750,-3.8674,-2.2666,0.8513,1711.18,1214.05,157.78
2760,-3.8669,-2.0139,0.9073,1883.06,979.92,32.90
2770,-3.8668,-1.6277,0.9808,-1773.19,152.28,-263.85
2780,-3.8666,-1.1185,1.0795,-335.69,1559.27,798.77
2790,-3.8665,-0.5061,1.2521,836.18,-1814.70,1736.45
2800,-3.8662,0.2113,1.5519,-773.19,280.21,-794.43
2810,-3.8656,1.0317,1.9742,-945.07,-1359.01,-106.38
2820,-3.8646,1.8040,2.3910,70.56,705.14,1097.60
2830,-3.8639,2.3613,2.6167,-1085.69,-1949.65,1379.64
2840,-3.8638,2.6049,2.5762,-1741.94,-1057.92,-1588.68
2850,-3.8644,2.5977,2.3494,1429.93,1755.07,-1995.00
2860,-3.8656,2.5157,2.0856,508.06,723.82,-1620.42
2870,-3.8671,2.4353,1.8574,-1976.32,-1041.99,-1355.35
2880,-3.8687,2.3175,1.6313,-273.19,1754.70,-121.40
2890,-3.8702,2.1053,1.3638,648.68,817.02,1925.05
2900,-3.8719,1.7847,1.0621,1492.43,-1433.41,1502.62
2910,-3.8737,1.4028,0.7836,445.56,-43.40,-138.61
2920,-3.8749,1.0554,0.5892,-429.44,299.56,892.15
2930,-3.8445,0.7834,0.4894,-898.19,-576.11,313.60
2940,-3.8451,0.5977,0.4518,289.31,-1357.85,-999.08
2950,-3.8455,0.4534,0.4268,508.06,1829.28,-1327.27
2960,-3.8458,0.3164,0.3719,-1960.69,-1374.15,1828.92
2970,-3.8463,0.1910,0.2854,508.06,-390.01,-1671.20
2980,-3.8468,0.0713,0.1912,461.18,531.62,1500.55
2990,-3.8473,-0.0596,0.1145,1133.06,468.87,-1484.01
3000,-3.8475,-0.2137,0.0776,383.06,-1328.25,953.31
3010,-3.8477,-0.3970,0.0657,648.68,1952.70,-1984.25
3020,-3.8475,-0.6118,0.0459,1195.56,421.08,437.62
3030,-3.8474,-0.8492,0.0149,1695.56,1889.40,-640.56
3040,-3.8470,-1.1232,-0.0131,-695.07,1920.17,-1703.12
3050,-3.8466,-1.3918,-0.0101,242.43,-1658.45,1453.06
3060,-3.8459,-1.6116,0.0300,1851.81,-1284.00,1671.81
3070,-3.8452,-1.7788,0.0956,1726.81,-143.80,-1515.62
3080,-3.8444,-1.9008,0.1912,320.56,246.52,-281.07
3090,-3.8745,-2.0123,0.3328,711.18,480.65,-1577.76
3100,-3.8732,-2.1064,0.5186,-1570.07,-1394.59,578.74
3110,-3.8716,-2.1941,0.6935,-1616.94,-1613.53,485.35
3120,-3.8698,-2.2885,0.8104,-835.69,776.92,266.97
3130,-3.8680,-2.3569,0.8508,-913.82,-254.52,-295.35
3140,-3.8665,-2.3381,0.8199,-1679.44,917.24,1064.15
3150,-3.8655,-2.1807,0.7659,726.81,964.17,-904.66
3160,-3.8649,-1.8831,0.7683,883.06,-1957.40,-701.66
3170,-3.8645,-1.4507,0.9119,-1023.19,-1644.35,-139.16
3180,-3.8641,-0.8425,1.2258,-1679.44,731.51,-123.23
3190,-3.8636,-0.0305,1.6647,164.31,920.23,-466.37
3200,-3.8630,0.9258,2.1376,101.81,1093.69,1221.98
3210,-3.8627,1.7958,2.4985,-1491.94,1611.15,-1667.72
3220,-3.8627,2.4087,2.6415,1867.43,-184.02,-1917.05
3230,-3.8633,2.7130,2.5732,320.56,-1885.93,-854.25
3240,-3.8644,2.7571,2.3350,-726.32,1380.25,1223.75
3250,-3.8661,2.6460,1.9736,914.31,-1119.63,-1417.36
3260,-3.8680,2.4302,1.5762,-1304.44,630.13,1050.72
3270,-3.8701,2.1379,1.2179,-929.44,1754.70,1003.05
3280,-3.8721,1.8107,0.9235,1664.31,-105.22,-1888.31
3290,-3.8737,1.4935,0.7034,-226.32,-1793.40,1376.77
3300,-3.8749,1.2039,0.5663,-820.07,-1965.88,876.34
3310,-3.8445,0.9725,0.4974,-1898.19,486.69,719.85
3320,-3.8451,0.7817,0.4506,492.43,-326.23,1547.79
3330,-3.8456,0.6244,0.3890,70.56,1673.40,1391.48
3340,-3.8461,0.4879,0.2988,-70.07,1798.03,547.61
3350,-3.8467,0.3546,0.1843,-1538.82,-1749.08,-1655.70
3360,-3.8472,0.2252,0.0770,1398.68,-405.58,594.06
3370,-3.8477,0.0883,0.0095,836.18,1859.80,-1562.38
3380,-3.8479,-0.0802,-0.0187,-695.07,1218.87,-1625.00
3390,-3.8479,-0.2902,-0.0243,1742.43,1624.82,1359.31
3400,-3.8478,-0.5295,-0.0127,-1132.57,905.64,-859.44
3410,-3.8474,-0.7859,0.0062,226.81,-1610.41,-765.69
3420,-3.8469,-1.0640,0.0133,-585.69,810.91,-31.25
3430,-3.8463,-1.3324,-0.0033,-179.44,1716.61,-1578.12
3440,-3.8457,-1.5461,-0.0227,1461.18,-408.87,1296.81
3450,-3.8451,-1.7224,-0.0149,-1898.19,1106.32,1937.44
3460,-3.8444,-1.8689,0.0116,-460.69,-1894.04,437.44
3470,-3.8749,-1.9673,0.0730,789.31,1496.34,968.75
3480,-3.8739,-2.0533,0.2236,195.56,1355.53,93.87
3490,-3.8726,-2.1691,0.4594,1179.93,636.60,219.18
3500,-3.8708,-2.3000,0.7035,-1632.57,-1191.77,-1764.77
3510,-3.8689,-2.4000,0.8535,1601.81,-1942.02,470.09
3520,-3.8673,-2.3774,0.8530,804.93,1260.93,532.90
3530,-3.8663,-2.1793,0.7561,-304.44,1198.43,1611.02
3540,-3.8658,-1.8635,0.6693,1054.93,792.60,423.34
3550,-3.8657,-1.5016,0.6830,1476.81,1683.84,985.66
3560,-3.8656,-1.1013,0.8467,-195.07,-565.49,-1389.34
3570,-3.8651,-0.6178,1.1490,-960.69,388.43,439.15
3580,-3.8645,-0.0238,1.5281,929.93,-907.47,986.57
3590,-3.8639,0.6577,1.9178,961.18,-390.69,-1090.82
3600,-3.8633,1.3440,2.2612,195.56,1485.66,1816.22
3610,-3.8629,1.9287,2.4800,39.31,1440.12,1848.14
3620,-3.8630,2.3772,2.5082,-1116.94,1441.22,-167.05
3630,-3.8636,2.6375,2.3579,289.31,1051.51,1317.38
3640,-3.8650,2.7406,2.1038,1601.81,1817.63,-1307.92
3650,-3.8667,2.7120,1.8070,-1195.07,1286.56,-745.91
3660,-3.8685,2.5284,1.4982,-851.32,-697.88,-465.27
3670,-3.8702,2.2036,1.2089,-351.32,-229.49,1846.62
3680,-3.8718,1.7690,0.9592,-1929.44,-1261.35,1674.19
3690,-3.8732,1.3129,0.7611,-1554.44,-1215.33,1611.21
3700,-3.8743,0.9365,0.6210,54.93,1424.44,-420.41
3710,-3.8750,0.6862,0.5317,-116.94,-513.85,-1889.47
3720,-3.8444,0.5264,0.4694,-163.82,63.78,1469.79
3730,-3.8450,0.4354,0.4075,-616.94,79.10,-1858.46
3740,-3.8456,0.3611,0.3474,-257.57,157.04,-749.21
3750,-3.8461,0.2592,0.2871,-1773.19,469.42,1594.42
3760,-3.8466,0.1298,0.2190,1179.93,750.49,-1765.08
3770,-3.8469,-0.0203,0.1477,617.43,31.49,1734.80
3780,-3.8473,-0.1768,0.0793,1414.31,-1078.19,-374.76
3790,-3.8475,-0.3368,0.0160,1383.06,-1828.49,-140.50
3800,-3.8477,-0.5176,-0.0359,898.68,-1938.17,-546.88
3810,-3.8477,-0.7241,-0.0808,1758.06,-579.16,-390.75
3820,-3.8474,-0.9695,-0.1151,-679.44,1670.41,1187.32
3830,-3.8470,-1.2339,-0.1357,-85.69,1279.30,374.76
3840,-3.8467,-1.4510,-0.1455,-1929.44,-1361.82,-47.18
3850,-3.8461,-1.6138,-0.1232,-1726.32,1387.76,-547.18
3860,-3.8453,-1.7428,-0.0725,1445.56,246.83,-1625.24
3870,-3.8446,-1.8395,-0.0012,929.93,-1269.04,-328.31
3880,-3.8749,-1.9438,0.1244,554.93,-144.23,1921.81
3890,-3.8737,-2.0829,0.3241,-804.44,-66.35,-1781.07
3900,-3.8721,-2.2285,0.5448,1398.68,1495.91,-1327.51
3910,-3.8702,-2.3582,0.6962,-1241.94,1745.61,1563.54
3920,-3.8687,-2.4309,0.7429,-1835.69,1120.36,-951.78
3930,-3.8674,-2.3940,0.7190,851.81,-895.39,970.15
3940,-3.8668,-2.2438,0.6793,1570.56,42.18,-1404.85
3950,-3.8665,-2.0133,0.6779,804.93,-1035.64,1798.16
3960,-3.8662,-1.7219,0.7673,-1695.07,-1222.72,251.28
3970,-3.8660,-1.3409,0.9764,-398.19,-1769.04,548.34
3980,-3.8655,-0.8264,1.2792,367.43,997.38,1517.52
3990,-3.8647,-0.2103,1.6155,-1773.19,-251.65,-1747.56
4000,-3.8640,0.4503,1.9696,1086.18,-1203.55,-184.39
4010,-3.8633,1.1173,2.3168,1648.68,110.23,1722.60
4020,-3.8628,1.6818,2.5370,-976.32,549.01,223.27
4030,-3.8629,2.1260,2.5458,-726.32,737.61,-1791.93
4040,-3.8636,2.4397,2.3846,133.06,1863.53,1317.44
4050,-3.8650,2.6276,2.1272,289.31,1239.14,1145.26
4060,-3.8667,2.7051,1.8311,336.18,286.38,-42.72
4070,-3.8683,2.6525,1.5332,-1741.94,-1619.75,-1449.58
4080,-3.8698,2.4832,1.2515,-476.32,255.13,159.24
4090,-3.8712,2.2104,1.0038,1851.81,192.32,-1606.93
4100,-3.8724,1.8588,0.7924,-1054.44,488.65,-1466.80
4110,-3.8734,1.4714,0.6152,1929.93,1425.48,1579.65
4120,-3.8743,1.1240,0.4833,351.81,-1247.13,-217.59
4130,-3.8748,0.8331,0.4092,-116.94,1861.51,235.29
4140,-3.8440,0.6265,0.3843,-1351.32,376.59,1188.29
4150,-3.8444,0.4963,0.3716,195.56,1188.72,1063.23
4160,-3.8447,0.3904,0.3453,-460.69,-436.58,1860.05
4170,-3.8451,0.2843,0.3130,1976.81,203.86,-1483.70
4180,-3.8455,0.1663,0.2809,398.68,63.05,-343.14
4190,-3.8457,0.0253,0.2457,1289.31,-46.57,1531.74
4200,-3.8461,-0.1294,0.2150,-757.57,-546.88,-718.32
4210,-3.8463,-0.2771,0.1906,-554.44,-469.06,328.49
4220,-3.8467,-0.4181,0.1700,539.31,405.70,1922.24
4230,-3.8469,-0.5684,0.1503,-1507.57,1780.40,-1296.57
4240,-3.8469,-0.7281,0.1293,-741.94,-751.16,672.12
4250,-3.8468,-0.9095,0.0986,-1195.07,561.04,172.12
4260,-3.8466,-1.0809,0.0613,-413.82,638.79,0.18
4270,-3.8462,-1.2249,0.0481,1648.68,-142.76,203.19
4280,-3.8457,-1.3761,0.0802,-773.19,-1830.57,-1734.31
4290,-3.8450,-1.5537,0.1476,-132.57,-1721.50,-1171.75
4300,-3.8440,-1.7598,0.2229,1133.06,-1096.80,703.37
4310,-3.8743,-1.9668,0.2833,-1241.94,543.40,672.30
4320,-3.8733,-2.1335,0.3425,258.06,277.40,531.80
4330,-3.8723,-2.2456,0.4274,-1085.69,-144.84,1484.99
4340,-3.8712,-2.3145,0.5281,570.56,-1285.64,1172.67
4350,-3.8701,-2.3370,0.6029,-241.94,-395.20,1047.85
4360,-3.8693,-2.2997,0.6292,867.43,1182.92,-889.47
4370,-3.8685,-2.1803,0.6394,1648.68,542.36,548.10
4380,-3.8680,-1.9736,0.6901,929.93,1855.10,1641.85
4390,-3.8674,-1.7046,0.8105,-616.94,339.84,938.84
4400,-3.8667,-1.4001,0.9912,1820.56,-237.73,1126.53
4410,-3.8658,-1.0620,1.1969,789.31,-1112.12,236.27
4420,-3.8651,-0.6733,1.3998,70.56,1216.67,-278.93
4430,-3.8643,-0.2167,1.6138,1820.56,-813.84,-653.56
4440,-3.8634,0.2979,1.8251,273.68,-1422.30,1221.86
4450,-3.8629,0.8121,1.9692,-1866.94,1609.92,1769.17
4460,-3.8629,1.2422,2.0201,-38.82,64.03,1660.10
4470,-3.8634,1.6115,2.0044,-991.94,-1419.49,1378.91
4480,-3.8643,1.9423,1.9562,-1726.32,565.61,-464.84
4490,-3.8651,2.1495,1.8772,617.43,-1605.59,941.28
4500,-3.8662,2.2850,1.7565,-851.32,285.40,1316.16
4510,-3.8674,2.3889,1.6033,492.43,832.58,815.92
4520,-3.8688,2.4580,1.4238,1789.31,1223.39,1721.86
4530,-3.8701,2.4313,1.2162,-1366.94,-1745.24,-1419.13
4540,-3.8713,2.2371,1.0067,-788.82,-323.43,-1278.93
4550,-3.8723,1.8901,0.8234,-1648.19,863.71,1048.83
4560,-3.8732,1.4608,0.6631,1945.56,1394.29,1970.34
4570,-3.8739,1.0729,0.5215,-1007.57,877.81,-45.59
4580,-3.8744,0.7858,0.3994,1336.18,-1247.92,516.60
4590,-3.8750,0.6146,0.3157,586.18,-873.47,-1686.77
4600,-3.8442,0.4998,0.2793,-1320.07,407.41,-1358.76
4610,-3.8446,0.3861,0.2633,-23.19,-249.08,1266.11
4620,-3.8450,0.2771,0.2515,1429.93,1703.86,391.11
4630,-3.8455,0.1829,0.2362,-523.19,187.99,-1655.76
4640,-3.8459,0.0967,0.2015,-585.69,-1765.32,-1452.70
4650,-3.8464,0.0056,0.1471,383.06,1797.06,-1999.63
4660,-3.8469,-0.1007,0.0986,726.81,-1171.88,-952.88
4670,-3.8473,-0.2242,0.0781,-882.57,640.38,-546.69
4680,-3.8475,-0.3564,0.0808,-695.07,-1984.86,-1234.25
4690,-3.8477,-0.4784,0.0913,-1616.94,-1641.36,1031.37
4700,-3.8477,-0.5844,0.1089,-1226.32,-297.85,1250.12
4710,-3.8474,-0.7124,0.1443,1211.18,1951.97,-1515.44
4720,-3.8469,-0.8948,0.2013,820.56,-1517.03,-249.76
4730,-3.8462,-1.1042,0.2631,1476.81,1779.48,-1952.76
4740,-3.8453,-1.3611,0.3202,-1335.69,1685.30,1562.99
4750,-3.8444,-1.6830,0.3707,1789.31,997.31,-733.76
4760,-3.8744,-2.0142,0.4009,586.18,-534.55,985.05
4770,-3.8733,-2.2698,0.4226,-1804.44,-675.84,-936.77
4780,-3.8722,-2.3939,0.4408,1476.81,-1895.08,-1327.33
4790,-3.8712,-2.4023,0.4452,1586.18,432.80,1860.23
4800,-3.8705,-2.3538,0.4558,508.06,995.30,-546.02
4810,-3.8698,-2.2938,0.5092,-1273.19,-1645.26,813.35
4820,-3.8691,-2.2103,0.6144,-1601.32,1182.98,1625.98
4830,-3.8684,-2.0790,0.7516,1086.18,-1348.08,1048.03
4840,-3.8677,-1.9030,0.9012,1898.68,214.66,-1076.66
4850,-3.8668,-1.7058,1.0319,429.93,-628.72,32.96
4860,-3.8663,-1.5111,1.0957,1664.31,90.39,-529.24
4870,-3.8660,-1.3226,1.0912,-1413.82,262.63,-1841.61
4880,-3.8658,-1.0952,1.1012,-1288.82,-315.12,-1841.67
4890,-3.8657,-0.7692,1.2222,-179.44,966.55,502.14
4900,-3.8656,-0.3280,1.4912,1554.93,451.60,1705.51
4910,-3.8652,0.1959,1.8619,-1976.32,-1110.05,1502.87
4920,-3.8646,0.7383,2.2349,1086.18,-1671.51,1159.85
4930,-3.8640,1.2096,2.4980,-1491.94,-1936.10,-1386.29
4940,-3.8636,1.5585,2.5703,-1163.82,-247.68,-1401.43
4950,-3.8638,1.7601,2.4666,-507.57,1002.99,880.00
4960,-3.8645,1.8175,2.2728,1304.93,-277.83,1598.51
4970,-3.8656,1.8790,2.0613,648.68,-1074.58,1988.77
4980,-3.8669,2.0455,1.8713,523.68,-152.59,-199.16
4990,-3.8682,2.1963,1.7112,1836.18,-464.78,1847.35
5000,-3.8693,2.2607,1.5472,1133.06,-964.48,331.42
5010,-3.8704,2.2020,1.3400,1383.06,-1948.73,-872.01
5020,-3.8713,2.0293,1.1134,1867.43,-480.10,-91.19
5030,-3.8722,1.7908,0.9203,-241.94,-1480.47,1939.64
5040,-3.8730,1.5444,0.7755,1226.81,1800.35,-857.60
5050,-3.8737,1.3583,0.6705,1695.56,-731.38,1579.59
5060,-3.8741,1.2236,0.5907,1867.43,1830.75,845.03
5070,-3.8746,1.1443,0.5366,633.06,-388.24,1844.85
5080,-3.8439,1.0864,0.5143,-1523.19,689.70,-827.09
5090,-3.8442,1.0229,0.5083,-929.44,1830.20,1610.35
5100,-3.8446,0.9152,0.4899,-1054.44,1064.45,-1670.90
5110,-3.8448,0.7554,0.4407,1148.68,-1295.10,672.79
5120,-3.8452,0.5863,0.3679,695.56,407.71,-483.52
5130,-3.8455,0.4279,0.2881,-945.07,-905.15,-1421.20
5140,-3.8457,0.2925,0.2111,-1226.32,875.79,1359.92
5150,-3.8461,0.1633,0.1405,1445.56,-983.83,-437.13
5160,-3.8463,0.0262,0.0759,914.31,1984.68,968.99
5170,-3.8467,-0.1088,0.0283,-632.57,1718.75,-1781.13
5180,-3.8469,-0.2366,0.0150,-1913.82,-359.62,562.50
5190,-3.8472,-0.3424,0.0203,1726.81,1937.01,265.62
5200,-3.8474,-0.4109,0.0168,179.93,-1391.30,640.62
5210,-3.8477,-0.4490,0.0059,-585.69,-1828.98,-1921.88
5220,-3.8478,-0.4878,0.0016,-1460.69,764.71,-1546.88
5230,-3.8477,-0.5569,0.0237,1570.56,217.77,671.88
5240,-3.8474,-0.6552,0.0900,726.81,-954.22,-515.62
5250,-3.8467,-0.7722,0.1987,148.68,-470.03,15.75
5260,-3.8458,-0.9363,0.3185,1164.31,1451.60,937.87
5270,-3.8448,-1.1649,0.4264,164.31,779.42,-1030.64
5280,-3.8750,-1.4540,0.5111,-1101.32,-1408.57,-202.33
5290,-3.8738,-1.7744,0.5626,1898.68,1434.63,1985.35
5300,-3.8727,-2.0497,0.5662,883.06,27.77,-1811.40
5310,-3.8718,-2.2183,0.5154,1648.68,480.35,-92.65
5320,-3.8711,-2.2693,0.4437,70.56,1980.04,782.23
5330,-3.8707,-2.2518,0.4106,1539.31,808.04,-952.27
5340,-3.8702,-2.2361,0.4546,-226.32,573.67,360.17
5350,-3.8698,-2.2433,0.5681,1789.31,-1801.27,1532.10
5360,-3.8691,-2.2451,0.7108,867.43,729.98,-186.40
5370,-3.8683,-2.2134,0.8318,633.06,-1004.39,1032.59
5380,-3.8677,-2.1344,0.9058,695.56,-1519.96,-264.04
5390,-3.8672,-2.0115,0.9421,-1195.07,-51.09,-1623.29
5400,-3.8669,-1.8632,0.9868,-1460.69,605.41,-1248.17
5410,-3.8666,-1.7205,1.0715,1523.68,-1675.54,626.89
5420,-3.8662,-1.5812,1.1740,-210.69,1168.46,-1076.05
5430,-3.8657,-1.4031,1.2825,1617.43,-1721.86,1127.26
5440,-3.8655,-1.1560,1.4235,414.31,169.13,-200.62
5450,-3.8651,-0.8489,1.6243,39.31,-1783.51,-1481.63
5460,-3.8645,-0.5159,1.8765,-648.19,-79.83,190.61
5470,-3.8638,-0.1992,2.1064,1976.81,202.09,1503.66
5480,-3.8630,0.0707,2.2306,-1491.94,1640.20,769.71
5490,-3.8628,0.3137,2.2197,1054.93,1515.75,1816.83
5500,-3.8630,0.5698,2.1051,164.31,125.61,988.71
5510,-3.8638,0.8143,1.9413,945.56,1454.22,-995.91
5520,-3.8646,1.0337,1.7753,242.43,485.96,-277.47
5530,-3.8654,1.2061,1.6387,320.56,-763.61,-1215.33
5540,-3.8660,1.2833,1.5359,-1616.94,1752.32,-1199.95
5550,-3.8665,1.2965,1.4651,273.68,596.25,-1872.01
5560,-3.8669,1.3390,1.4336,1961.18,-466.25,-637.82
5570,-3.8673,1.4382,1.4077,-601.32,-497.44,-1794.13
5580,-3.8677,1.5458,1.3408,101.81,190.31,1737.12
5590,-3.8682,1.6013,1.2349,1867.43,-372.01,-91.19
5600,-3.8687,1.5438,1.1013,976.81,-1934.39,-1497.62
5610,-3.8693,1.4211,0.9622,1617.43,971.74,1299.01
5620,-3.8700,1.2882,0.8475,1914.31,-841.00,-170.04
5630,-3.8705,1.2045,0.7583,898.68,486.88,1236.02
5640,-3.8710,1.1906,0.6866,-1820.07,1064.82,-1967.29
5650,-3.8713,1.1830,0.6353,398.68,-107.06,1220.03
5660,-3.8717,1.1378,0.6079,-570.07,1314.76,-1467.53
5670,-3.8719,1.0262,0.5986,1648.68,1814.70,-1545.72
5680,-3.8722,0.8740,0.5858,-632.57,626.95,-483.22
5690,-3.8724,0.7227,0.5537,-116.94,-1013.98,-1311.40
5700,-3.8728,0.6238,0.4995,508.06,-1123.60,-1623.96
5710,-3.8733,0.5902,0.4348,-148.19,-61.34,-92.83
5720,-3.8737,0.5848,0.3755,-445.07,-342.65,1750.79
5730,-3.8740,0.5671,0.3391,-1132.57,63.60,-1999.27
5740,-3.8743,0.5090,0.3363,601.81,-592.65,1469.36
5750,-3.8745,0.4125,0.3545,1164.31,-952.15,-952.51
5760,-3.8746,0.2855,0.3757,804.93,1375.79,906.92
5770,-3.8749,0.1561,0.3914,554.93,94.30,1547.61
5780,-3.8439,0.0522,0.3951,-7.57,-1906.01,985.11
5790,-3.8442,-0.0189,0.3750,-1304.44,-1421.81,-155.52
5800,-3.8445,-0.0663,0.3181,1586.18,15.56,1891.36
5810,-3.8448,-0.1024,0.2213,-476.32,734.19,-1608.76
5820,-3.8452,-0.1222,0.0986,-1101.32,343.51,1344.18
5830,-3.8456,-0.1119,-0.0210,367.43,640.38,234.56
5840,-3.8459,-0.0767,-0.1097,1679.93,1327.88,156.19
5850,-3.8463,-0.0498,-0.1506,-1804.44,1968.57,1093.51
5860,-3.8466,-0.0580,-0.1398,1633.06,734.25,546.57
5870,-3.8467,-0.0989,-0.0886,586.18,-1875.12,1155.94
5880,-3.8467,-0.1611,-0.0223,-648.19,671.63,-187.68
5890,-3.8464,-0.2289,0.0316,-616.94,1155.88,-1593.81
5900,-3.8462,-0.2794,0.0610,-1288.82,62.01,1703.19
5910,-3.8461,-0.3138,0.0720,242.43,-172.42,-828.06
5920,-3.8459,-0.3578,0.0758,-163.82,1233.70,-1765.50
5930,-3.8458,-0.4215,0.0892,-1788.82,1718.02,1765.75
5940,-3.8456,-0.5078,0.1230,-1945.07,-563.35,1812.62
5950,-3.8452,-0.6118,0.1715,-991.94,-235.41,-531.07
5960,-3.8446,-0.7245,0.2288,1695.56,1967.53,1015.93
5970,-3.8441,-0.8274,0.3020,-726.32,1295.41,-437.07
5980,-3.8748,-0.9136,0.3894,-1898.19,-1329.77,1516.17
5990,-3.8743,-0.9977,0.4492,-929.44,1857.54,-1405.52
6000,-3.8738,-1.0763,0.4548,304.93,1513.67,1453.98
6010,-3.8734,-1.1442,0.4215,-1757.57,-1767.76,500.85
6020,-3.8733,-1.1854,0.3583,1554.93,1966.49,-1467.96
6030,-3.8733,-1.1859,0.2930,273.68,1872.68,-843.08
6040,-3.8733,-1.1908,0.2830,211.18,1513.31,-1952.58
6050,-3.8732,-1.2598,0.3431,-413.82,231.99,1828.67
6060,-3.8728,-1.3838,0.4258,-1241.94,-65.00,1250.61
6070,-3.8723,-1.5020,0.4771,-1116.94,-1487.12,47.67
6080,-3.8719,-1.5535,0.5049,-241.94,1075.13,1110.29
6090,-3.8716,-1.5377,0.5723,1164.31,637.57,1922.85
6100,-3.8710,-1.5066,0.7096,-820.07,1262.57,704.22
6110,-3.8701,-1.4961,0.8602,-835.69,-1159.24,407.59
6120,-3.8693,-1.5114,0.9362,508.06,-1877.93,-248.35
6130,-3.8684,-1.5566,0.9149,-1445.07,-159.24,845.52
6140,-3.8680,-1.6426,0.8560,758.06,1121.95,-1482.60
6150,-3.8678,-1.7559,0.8284,1758.06,1574.89,189.15
6160,-3.8678,-1.8505,0.8630,-741.94,-1956.60,-29.66
6170,-3.8676,-1.8734,0.9531,-851.32,-1519.29,439.15
6180,-3.8674,-1.7986,1.0792,211.18,-1988.04,1704.96
6190,-3.8672,-1.6495,1.2406,1789.31,-1847.29,1970.83
6200,-3.8667,-1.4664,1.4087,867.43,-1190.73,736.76
6210,-3.8661,-1.2788,1.5178,304.93,325.26,737.12
6220,-3.8656,-1.1298,1.5352,320.56,-1705.63,-1965.82
6230,-3.8654,-1.0637,1.4894,-601.32,513.37,-1262.63
6240,-3.8652,-1.0859,1.4340,-148.19,-1345.89,1190.37
6250,-3.8652,-1.1494,1.4033,1008.06,-439.64,1830.87
6260,-3.8652,-1.1816,1.4150,883.06,-361.63,-1091.06
6270,-3.8651,-1.1206,1.4275,758.06,1138.31,1549.62
6280,-3.8649,-0.9791,1.3759,570.56,-1267.82,-216.00
6290,-3.8640,-0.9321,1.4592,-1320.07,123.05,-1153.56
6300,-3.8632,-0.9275,1.8259,695.56,-1204.96,-1903.44
6310,-3.8630,-0.6431,2.2152,1289.31,1732.54,3.54
6320,-3.8635,-0.0482,2.3623,1695.56,-438.78,-714.48
6330,-3.8638,0.6217,2.2498,1836.18,-1609.50,-1839.17
6340,-3.8643,1.0964,1.8881,-413.82,-30.09,-1433.17
6350,-3.8652,1.1949,1.3419,351.81,1674.01,441.16
6360,-3.8665,0.8804,0.9088,961.18,-232.06,-497.44
6370,-3.8667,0.3250,0.8462,695.56,329.83,736.15
6380,-3.8660,-0.1692,1.1206,1601.81,313.11,-482.73
6390,-3.8645,-0.4651,1.5433,-1648.19,-547.24,-357.24
6400,-3.8630,-0.5786,1.9584,476.81,1561.58,268.62
6410,-3.8624,-0.5159,2.2471,1945.56,-1313.66,-902.47
6420,-3.8628,-0.2622,2.3315,1976.81,-360.41,-1339.42
6430,-3.8644,0.1780,2.2042,-1554.44,-1547.42,-792.36
6440,-3.8667,0.7292,1.9395,-1210.69,-1859.07,1769.90
6450,-3.8691,1.1843,1.6664,1351.81,251.40,535.03
6460,-3.8712,1.4247,1.4863,-398.19,1299.13,-1262.39
6470,-3.8724,1.4347,1.3914,-1632.57,-1747.25,1487.24
6480,-3.8730,1.2223,1.3096,-351.32,-1903.50,1377.69
6490,-3.8733,0.8972,1.2109,461.18,-372.62,846.25
6500,-3.8735,0.6182,1.1158,-1148.19,-998.29,-497.68
6510,-3.8737,0.4832,1.0481,-866.94,-1170.72,1283.39
6520,-3.8739,0.4839,1.0032,1851.81,-1842.83,-1076.11
6530,-3.8740,0.5604,0.9402,1945.56,407.17,1236.33
6540,-3.8743,0.6145,0.8341,-257.57,344.79,-1670.04
6550,-3.8745,0.6051,0.7118,-1335.69,-1233.22,79.71
6560,-3.8750,0.5487,0.6033,1461.18,-889.47,-717.41
6570,-3.8441,0.4871,0.5165,-1757.57,1219.79,-1326.97
6580,-3.8445,0.4744,0.4509,-1648.19,-1889.71,-233.40
6590,-3.8447,0.4988,0.3999,726.81,1719.67,-1827.27
6600,-3.8450,0.5123,0.3546,-148.19,-811.58,1922.61
6610,-3.8451,0.5239,0.3080,1586.18,1391.60,31.92
6620,-3.8452,0.5364,0.2548,-929.44,-577.15,641.17
6630,-3.8453,0.5140,0.1923,664.31,610.41,-1421.39
6640,-3.8453,0.4492,0.1317,1804.93,610.35,812.87
6650,-3.8455,0.3462,0.0767,1508.06,860.23,-1609.13
6660,-3.8456,0.2242,0.0193,320.56,1813.17,-1140.50
6670,-3.8457,0.1265,-0.0328,711.18,-1530.82,-859.38
6680,-3.8457,0.0712,-0.0566,195.56,-202.88,437.38
6690,-3.8458,0.0413,-0.0347,1117.43,750.12,-812.62
6700,-3.8458,0.0302,0.0167,1289.31,-437.44,-765.75
6710,-3.8457,0.0397,0.0504,-132.57,-1859.38,421.88
6720,-3.8457,0.0497,0.0427,1086.18,-1546.81,-1859.31
6730,-3.8457,0.0385,0.0039,-1632.57,1468.81,-1999.94
6740,-3.8458,-0.0063,-0.0363,929.93,500.06,-421.88
6750,-3.8458,-0.0883,-0.0474,-804.44,-625.06,1812.38
6760,-3.8458,-0.1859,-0.0396,711.18,1952.94,-1015.75
6770,-3.8457,-0.2615,-0.0410,211.18,-1047.24,-281.37
6780,-3.8455,-0.3124,-0.0518,-1460.69,-1234.92,-250.12
6790,-3.8451,-0.3889,-0.0436,23.68,1390.01,-1468.87
6800,-3.8447,-0.5234,0.0070,-1773.19,-1563.29,-93.87
6810,-3.8442,-0.6970,0.0872,1008.06,905.21,-453.12
6820,-3.8750,-0.8604,0.1447,-1210.69,-829.53,-703.00
6830,-3.8746,-0.9415,0.1239,1883.06,-1470.46,-640.38
6840,-3.8744,-0.9285,0.0353,-507.57,-126.89,1765.81
6850,-3.8743,-0.9167,-0.0370,1164.31,529.42,515.69
6860,-3.8743,-0.9988,-0.0483,-1335.69,-720.58,-859.50
6870,-3.8740,-1.1617,-0.0162,164.31,1826.17,781.13
6880,-3.8738,-1.3392,0.0126,-695.07,1935.18,-1625.06
6890,-3.8734,-1.4331,0.0099,586.18,1622.38,1156.25
6900,-3.8732,-1.4358,0.0065,570.56,1278.44,1437.50
6910,-3.8730,-1.4310,0.0276,226.81,840.94,1656.25
6920,-3.8729,-1.4371,0.0635,836.18,-455.93,46.88
6930,-3.8728,-1.4502,0.1035,54.93,137.82,62.62
6940,-3.8726,-1.5004,0.1569,-1616.94,1262.76,531.43
6950,-3.8722,-1.5918,0.2281,-38.82,90.76,-1046.57
6960,-3.8716,-1.6821,0.3094,258.06,1215.64,-1718.32
6970,-3.8710,-1.7548,0.4041,695.56,-378.30,-483.83
6980,-3.8702,-1.8368,0.5156,-601.32,-269.10,594.48
6990,-3.8696,-1.9335,0.6373,898.68,-1987.98,-1733.40
7000,-3.8690,-2.0254,0.7417,523.68,1589.97,-576.90
7010,-3.8685,-2.1010,0.7833,758.06,-1050.84,-1779.85
7020,-3.8684,-2.1116,0.7325,-913.82,277.10,1235.90
7030,-3.8687,-2.0229,0.6245,1726.81,1777.10,1345.15
7040,-3.8690,-1.8663,0.5570,1070.56,-50.84,219.91
7050,-3.8694,-1.6920,0.6025,1117.43,-691.16,1188.54
7060,-3.8695,-1.5394,0.7726,-570.07,1137.27,-998.84
7070,-3.8691,-1.4413,1.0371,-1038.82,-1096.80,1095.21
7080,-3.8685,-1.4091,1.3064,-476.32,762.76,-247.99
7090,-3.8676,-1.4296,1.4742,-351.32,-768.43,-1544.37
7100,-3.8667,-1.4868,1.5000,1023.68,715.94,-1919.01
7110,-3.8663,-1.5320,1.4059,1695.56,12.70,-497.07
7120,-3.8663,-1.4943,1.2622,-85.69,-34.30,440.19
7130,-3.8668,-1.3678,1.1564,742.43,1575.20,-919.43
7140,-3.8672,-1.2150,1.1411,929.93,28.56,299.13
7150,-3.8674,-1.0961,1.2167,492.43,-1924.26,1564.70
7160,-3.8672,-1.0198,1.3512,-288.82,-252.20,1002.32
7170,-3.8666,-0.9417,1.5066,1476.81,966.74,565.12
7180,-3.8658,-0.8398,1.6439,-523.19,857.48,1221.68
7190,-3.8651,-0.7592,1.7368,508.06,-1564.15,1143.80
7200,-3.8646,-0.7146,1.7729,-1163.82,-1673.40,-465.39
7210,-3.8644,-0.6492,1.7445,539.31,-1048.28,-309.08
7220,-3.8645,-0.5232,1.6744,914.31,-688.78,-27.89
7230,-3.8649,-0.3600,1.6089,1039.31,-1657.29,-231.14
7240,-3.8652,-0.2023,1.5884,1929.93,1952.39,1159.36
7250,-3.8656,-0.0454,1.6216,-1882.57,-672.30,3.05
7260,-3.8660,0.1655,1.6688,-1804.44,-422.00,159.36
7270,-3.8663,0.4513,1.6891,1195.56,1609.68,50.11
7280,-3.8668,0.7506,1.6748,1773.68,203.98,-1090.45
7290,-3.8672,0.9435,1.6276,86.18,-1623.54,-1809.27
7300,-3.8674,0.9965,1.5613,773.68,329.96,175.05
7310,-3.8677,0.9213,1.4894,-445.07,-154.36,268.62
7320,-3.8680,0.7611,1.4076,1929.93,-1357.60,1955.99
7330,-3.8685,0.6681,1.3276,1429.93,173.34,1705.87
7340,-3.8691,0.7120,1.2731,1523.68,1938.78,877.56
7350,-3.8698,0.8666,1.2429,-851.32,-1045.53,158.69
7360,-3.8704,1.0193,1.2109,-1070.07,-904.60,-1263.24
7370,-3.8708,1.0388,1.1515,-1523.19,-998.05,-919.56
7380,-3.8713,0.9626,1.0707,976.81,-607.36,-1560.30
7390,-3.8718,0.8705,1.0063,-773.19,1048.71,908.33
7400,-3.8724,0.7837,0.9733,-570.07,814.15,-216.80
7410,-3.8729,0.7456,0.9395,320.56,579.65,-357.48
7420,-3.8733,0.7686,0.8809,-554.44,251.40,283.08
7430,-3.8738,0.7875,0.7990,-1616.94,751.46,564.21
7440,-3.8743,0.7831,0.6960,804.93,-1732.85,79.65
7450,-3.8748,0.7585,0.5881,242.43,1095.28,126.34
7460,-3.8440,0.7075,0.4918,1101.81,-717.29,-1264.53
7470,-3.8442,0.6483,0.4171,-1429.44,-1045.53,1282.17
7480,-3.8445,0.5747,0.3806,-1007.57,1391.85,-202.33
7490,-3.8445,0.4972,0.3776,1570.56,719.85,875.73
7500,-3.8446,0.4316,0.3794,-351.32,329.04,-952.39
7510,-3.8446,0.3873,0.3708,-741.94,563.29,1547.61
7520,-3.8447,0.3579,0.3574,1586.18,-530.52,-280.58
7530,-3.8447,0.3246,0.3423,1820.56,1750.67,703.80
7540,-3.8448,0.2595,0.3165,1554.93,-186.89,31.86
7550,-3.8451,0.1428,0.2626,1226.81,516.11,1375.61
7560,-3.8453,0.0142,0.1667,-1710.69,1609.62,219.24
7570,-3.8457,-0.0886,0.0383,1820.56,1343.75,250.31
7580,-3.8462,-0.1703,-0.0906,664.31,921.69,-1937.44
7590,-3.8467,-0.2423,-0.2007,-1788.82,421.51,-250.18
7600,-3.8470,-0.2960,-0.2924,992.43,-1672.36,-109.80
7610,-3.8472,-0.3218,-0.3441,-1882.57,-1406.86,608.76
7620,-3.8473,-0.3278,-0.3329,-1179.44,-31.92,-1125.73
7630,-3.8472,-0.3356,-0.2638,-1945.07,1405.58,-844.42
7640,-3.8468,-0.3820,-0.1661,1054.93,-1750.67,1358.83
7650,-3.8463,-0.4680,-0.0764,-882.57,-1250.79,359.01
7660,-3.8458,-0.5659,-0.0128,101.81,-1766.54,1640.44
7670,-3.8453,-0.6726,0.0186,-429.44,-1626.16,1515.56
7680,-3.8450,-0.7803,0.0248,1914.31,-1610.72,-1843.75
7690,-3.8446,-0.8782,0.0247,133.06,-814.03,1218.75
7700,-3.8442,-0.9840,0.0221,-398.19,-829.90,1562.50
7710,-3.8439,-1.0956,0.0178,-1945.07,-1158.20,-390.62
7720,-3.8746,-1.1907,0.0190,-226.32,-1705.32,390.62
7730,-3.8744,-1.2302,0.0366,-398.19,-1549.26,671.88
7740,-3.8743,-1.1588,0.0706,-1460.69,700.68,359.44
7750,-3.8743,-0.9802,0.1176,-320.07,1044.56,-1328.00
7760,-3.8741,-0.7982,0.1814,-1460.69,-939.45,-1562.32
7770,-3.8739,-0.7362,0.2675,1836.18,-767.21,-1952.82
7780,-3.8735,-0.8434,0.3751,1773.68,-1751.46,-358.89
7790,-3.8729,-1.0563,0.4606,54.93,29.60,-1671.14
7800,-3.8723,-1.2253,0.4832,804.93,-1033.33,328.98
7810,-3.8721,-1.2921,0.4744,-835.69,1856.93,-1327.21
7820,-3.8719,-1.3042,0.4781,-1382.57,731.81,1282.17
7830,-3.8719,-1.2850,0.4883,1070.56,1216.19,-436.58
7840,-3.8717,-1.2628,0.5038,-476.32,-1486.94,-420.96
7850,-3.8712,-1.3108,0.5531,-1632.57,497.50,-1561.52
7860,-3.8706,-1.4446,0.6298,226.81,-1190.06,-1733.34
7870,-3.8700,-1.5864,0.7058,-898.19,622.13,-514.40
7880,-3.8694,-1.6871,0.7869,945.56,-1643.74,1673.22
7890,-3.8690,-1.7388,0.8893,54.93,731.08,1610.90
7900,-3.8688,-1.7244,0.9955,1445.56,1840.33,126.71
7910,-3.8687,-1.6501,1.0537,-710.69,-565.92,267.52
7920,-3.8687,-1.5338,1.0338,789.31,-1112.61,-1326.11
7930,-3.8687,-1.4292,0.9946,-320.07,340.70,-1544.86
7940,-3.8687,-1.4150,1.0223,1070.56,-674.68,-1685.61
7950,-3.8685,-1.4860,1.1097,-1116.94,-1127.81,-1373.05
7960,-3.8683,-1.5364,1.1914,1804.93,-1940.43,-1982.24
7970,-3.8682,-1.4817,1.2209,-648.19,512.57,-1841.43
7980,-3.8682,-1.3430,1.2229,-1648.19,293.95,799.26
7990,-3.8683,-1.2119,1.2778,101.81,544.25,-1106.99
8000,-3.8682,-1.1636,1.4138,883.06,-424.26,-1310.06
8010,-3.8678,-1.1791,1.5642,-929.44,982.06,705.87
8020,-3.8676,-1.1810,1.6313,1086.18,232.06,1784.30
8030,-3.8676,-1.1322,1.5782,836.18,825.81,1659.42
8040,-3.8678,-1.0565,1.4821,-913.82,-1971.01,456.18
8050,-3.8682,-0.9950,1.4601,773.68,1716.67,-887.76
8060,-3.8682,-0.9644,1.5394,648.68,-1095.70,-1512.82
8070,-3.8679,-0.9373,1.6672,570.56,1060.61,-12.63
8080,-3.8674,-0.8893,1.8187,39.31,1420.04,-496.77
8090,-3.8668,-0.8075,1.9930,-1820.07,810.73,-1996.46
8100,-3.8662,-0.6824,2.1373,648.68,-876.59,972.60
8110,-3.8658,-0.5253,2.1835,664.31,1592.41,1629.15
8120,-3.8660,-0.3500,2.1158,773.68,-501.04,-1042.66
8130,-3.8666,-0.1689,1.9791,-788.82,-1156.98,-27.16
8140,-3.8673,-0.0034,1.8400,-1616.94,1343.38,1675.72
8150,-3.8680,0.1088,1.7656,-429.44,-468.81,-58.96
8160,-3.8683,0.1638,1.8054,1929.93,-1999.82,-1277.83
8170,-3.8682,0.2555,1.9469,976.81,-905.94,-1309.02
8180,-3.8678,0.4596,2.1169,711.18,1203.61,-1933.72
8190,-3.8674,0.7477,2.2238,-1163.82,-1030.40,1347.84
8200,-3.8673,1.0115,2.2031,-288.82,642.03,-1120.67
8210,-3.8674,1.1897,2.0609,1476.81,-1998.05,-1276.98
8220,-3.8679,1.2423,1.8568,289.31,-200.81,-121.03
8230,-3.8685,1.1407,1.6521,-976.32,1674.26,-1168.27
8240,-3.8690,0.9832,1.5126,-1976.32,-529.05,96.92
8250,-3.8694,0.8619,1.4624,1851.81,1611.27,1299.80
8260,-3.8696,0.8223,1.4552,-1663.82,-810.85,-215.94
8270,-3.8699,0.9071,1.4457,1258.06,-1732.79,-731.57
8280,-3.8704,1.1364,1.4178,117.43,1048.65,1971.56
8290,-3.8710,1.3975,1.4004,1461.18,1486.57,237.12
8300,-3.8716,1.5182,1.4166,-1116.94,-747.31,-341.06
8310,-3.8718,1.4519,1.4117,-1663.82,1331.05,-1184.75
8320,-3.8719,1.2574,1.3387,1851.81,705.93,1721.50
8330,-3.8722,1.0598,1.2164,961.18,-638.18,-1778.69
8340,-3.8726,0.9274,1.0955,-335.69,-294.86,1080.44
8350,-3.8732,0.8668,1.0072,-1288.82,220.52,-154.11
8360,-3.8737,0.8588,0.9357,-1038.82,923.52,1611.33
8370,-3.8741,0.8668,0.8527,1929.93,-232.73,1189.27
8380,-3.8746,0.8661,0.7588,-1038.82,1142.27,-310.85
8390,-3.8749,0.8104,0.6760,-1132.57,1126.65,1532.71
8400,-3.8439,0.6969,0.6151,-257.57,-1467.22,-1717.47
8410,-3.8440,0.5626,0.5806,1211.18,-1264.28,1094.91
8420,-3.8441,0.4528,0.5657,23.68,-1686.40,1547.97
8430,-3.8442,0.3781,0.5509,1961.18,407.10,-889.53
8440,-3.8442,0.3147,0.5177,398.68,-1483.64,532.29
8450,-3.8444,0.2495,0.4608,289.31,-1733.76,563.48
8460,-3.8446,0.1974,0.3790,-54.44,-1015.20,-1342.90
8470,-3.8448,0.1667,0.2892,1273.68,515.99,-233.64
8480,-3.8450,0.1152,0.2216,1351.81,1015.93,1219.30
8490,-3.8452,0.0167,0.1766,-1241.94,359.56,-1265.20
8500,-3.8455,-0.1014,0.1379,-1851.32,-1390.62,-15.32
8510,-3.8456,-0.1808,0.0908,-976.32,1671.63,1734.62
8520,-3.8457,-0.1899,0.0365,867.43,-359.74,140.75
8530,-3.8459,-0.1759,-0.0060,-304.44,687.07,-1828.06
8540,-3.8462,-0.1967,-0.0315,1492.43,-750.37,-562.56
8550,-3.8463,-0.2543,-0.0533,-1163.82,-16.05,1140.50
8560,-3.8464,-0.3069,-0.0751,-538.82,1186.95,984.25
8570,-3.8466,-0.3271,-0.0872,726.81,-1594.36,-1343.93
8580,-3.8466,-0.3383,-0.0691,-1866.94,858.70,-1453.31
8590,-3.8464,-0.3821,-0.0116,711.18,-828.80,-922.06
8600,-3.8461,-0.4524,0.0591,-898.19,-1469.54,1562.44
8610,-3.8457,-0.5380,0.1075,-1898.19,-422.79,-390.56
8620,-3.8453,-0.6562,0.1077,-851.32,1780.15,-734.19
8630,-3.8451,-0.7744,0.0510,8.06,1795.59,140.81
8640,-3.8452,-0.8347,-0.0282,883.06,-1454.65,-453.06
8650,-3.8452,-0.8397,-0.0662,1164.31,404.60,1531.19
8660,-3.8452,-0.8444,-0.0206,523.68,-454.77,-1593.93
8670,-3.8450,-0.8604,0.0878,-70.07,1373.29,1203.06
8680,-3.8446,-0.8666,0.2004,1883.06,-751.71,-1749.88
8690,-3.8441,-0.8790,0.2670,1086.18,1670.17,-1515.26
8700,-3.8749,-0.9056,0.2855,-507.57,-1814.27,1469.24
8710,-3.8745,-0.9437,0.3009,86.18,560.73,750.55
8720,-3.8743,-1.0001,0.3483,-788.82,-1470.64,1891.17
8730,-3.8740,-1.0502,0.4170,-7.57,591.74,-327.45
8740,-3.8737,-1.0707,0.4747,1586.18,1388.55,-1296.08
8750,-3.8733,-1.0758,0.5227,-1038.82,779.11,-874.08
8760,-3.8728,-1.1084,0.5918,-1695.07,-1080.26,610.35
8770,-3.8724,-1.2318,0.7062,-1866.94,-236.57,-436.40
8780,-3.8718,-1.4338,0.8300,-1663.82,-1596.19,1141.97
8790,-3.8712,-1.6095,0.8848,476.81,-1752.81,32.84
8800,-3.8708,-1.7017,0.8551,1992.43,1262.45,-779.54
8810,-3.8706,-1.7517,0.8154,-1804.44,1465.39,-1701.48
8820,-3.8706,-1.8085,0.8190,-210.69,387.15,-935.91
8830,-3.8706,-1.8595,0.8417,523.68,840.21,-1810.91
8840,-3.8706,-1.8716,0.8632,1992.43,-253.66,-1873.41
8850,-3.8705,-1.8440,0.9110,445.56,-1503.66,1001.65
8860,-3.8702,-1.7955,1.0120,-23.19,621.34,408.02
8870,-3.8700,-1.7305,1.1387,-1820.07,1543.33,-1216.80
8880,-3.8696,-1.6516,1.2419,-1491.94,1762.21,-1372.80
8890,-3.8693,-1.5713,1.3024,601.81,-1018.86,-1403.87
8900,-3.8690,-1.4918,1.3136,-1116.94,-1284.36,-1638.12
8910,-3.8690,-1.4021,1.2809,1054.93,153.32,-1653.69
8920,-3.8693,-1.2959,1.2299,539.31,-34.00,-91.31
8930,-3.8694,-1.1843,1.1924,-1866.94,1434.94,424.26
8940,-3.8695,-1.0909,1.2097,414.31,638.31,1549.19
8950,-3.8694,-1.0482,1.2998,367.43,-1142.76,408.57
8960,-3.8691,-1.0642,1.4438,1836.18,-1611.45,221.25
8970,-3.8688,-1.1063,1.6166,-210.69,825.99,-1309.69
8980,-3.8682,-1.1500,1.7745,-1601.32,-1064.70,-340.64
8990,-3.8674,-1.1658,1.8552,804.93,-846.01,1284.67
9000,-3.8669,-1.0996,1.8358,-1210.69,1482.06,362.98
9010,-3.8668,-0.9490,1.7682,-741.94,-1002.20,956.67
9020,-3.8669,-0.7560,1.7241,-1460.69,-1658.14,1222.17
9030,-3.8672,-0.5647,1.7177,-757.57,701.60,-1059.14
9040,-3.8673,-0.4346,1.7152,-273.19,-126.16,1768.92
9050,-3.8674,-0.4014,1.7118,383.06,-438.35,-949.83
9060,-3.8673,-0.4247,1.7609,633.06,-875.79,909.55
9070,-3.8671,-0.3734,1.8851,1648.68,1405.40,831.54
9080,-3.8667,-0.1327,2.0244,211.18,1311.77,863.04
9090,-3.8663,0.2332,2.1111,-976.32,-859.68,1238.28
9100,-3.8661,0.5719,2.1229,1851.81,-1780.82,-1511.54
9110,-3.8660,0.8005,2.0659,1211.18,-264.53,1957.21
9120,-3.8661,0.8936,1.9644,-1523.19,439.03,-1855.35
9130,-3.8665,0.9056,1.8574,-1616.94,-560.79,-214.97
9140,-3.8668,0.9082,1.7545,-70.07,1751.71,1503.60
9150,-3.8674,0.9470,1.6379,258.06,579.90,-402.83
9160,-3.8680,1.0635,1.5126,1226.81,1658.08,831.30
9170,-3.8689,1.3077,1.4023,133.06,1611.45,-247.07
9180,-3.8695,1.5869,1.3235,-601.32,-497.50,-1872.31
9190,-3.8699,1.7231,1.2875,-866.94,1409.30,127.56
9200,-3.8701,1.6793,1.2993,570.56,800.23,1658.75
9210,-3.8701,1.4940,1.3116,-1038.82,-1684.27,18.13
9220,-3.8702,1.3029,1.2678,-757.57,-106.51,-1638.12
9230,-3.8705,1.1663,1.1732,-1226.32,-1716.25,-169.43
9240,-3.8708,1.0631,1.0581,1289.31,-1825.87,-1185.24
9250,-3.8713,0.9968,0.9543,86.18,-560.42,955.14
9260,-3.8719,0.9591,0.8748,-398.19,-1841.86,1954.96
9270,-3.8724,0.9520,0.8243,-1226.32,-29.42,1126.65
9280,-3.8729,0.9302,0.8090,1867.43,1517.46,-92.16
9290,-3.8732,0.8723,0.8143,-929.44,-451.35,814.03
9300,-3.8735,0.7844,0.8199,-335.69,236.02,-1639.04
9310,-3.8739,0.6919,0.8046,414.31,954.65,-873.41
9320,-3.8743,0.6179,0.7653,570.56,-1014.28,1079.65
9330,-3.8748,0.5582,0.7142,-898.19,1954.28,110.84
9340,-3.8441,0.5182,0.6489,-538.82,-577.09,-1951.78
9350,-3.8446,0.4866,0.5695,-1663.82,-936.52,657.47
9360,-3.8451,0.4534,0.5020,-1710.69,891.54,1454.22
9370,-3.8455,0.4161,0.4799,-1960.69,250.85,-920.90
9380,-3.8456,0.3834,0.4988,1273.68,1422.67,-983.46
9390,-3.8456,0.3486,0.5251,1086.18,-155.52,-561.58
9400,-3.8455,0.2968,0.5361,633.06,-780.58,657.23
9410,-3.8455,0.2150,0.5298,1992.43,625.55,579.16
9420,-3.8456,0.1040,0.5084,-476.32,-187.13,-670.90
9430,-3.8456,-0.0103,0.4823,1320.56,1078.31,1438.48
9440,-3.8457,-0.0945,0.4617,-1304.44,1749.94,-1030.33
9450,-3.8457,-0.1238,0.4459,-85.69,-890.87,125.85
9460,-3.8458,-0.1123,0.4471,164.31,1093.51,1907.10
9470,-3.8458,-0.1082,0.4736,1633.06,1249.76,1516.48
9480,-3.8458,-0.1470,0.5085,-1835.69,640.38,-889.71
9490,-3.8457,-0.2346,0.5338,1195.56,1109.07,-1452.15
9500,-3.8455,-0.3743,0.5372,1976.81,343.26,454.16
9510,-3.8452,-0.5697,0.5105,101.81,780.52,1.04
9520,-3.8451,-0.7969,0.4612,-913.82,1358.22,-1483.40
9530,-3.8450,-0.9933,0.4111,-1991.94,-954.71,-1858.52
9540,-3.8450,-1.1384,0.3864,867.43,638.67,-46.08
9550,-3.8448,-1.2584,0.3876,-1710.69,1466.49,-1186.77
9560,-3.8446,-1.3494,0.3932,-1070.07,1622.50,344.48
9570,-3.8444,-1.4543,0.3848,-710.69,-1658.94,625.73
9580,-3.8441,-1.5826,0.3673,1851.81,1262.76,-1155.52
9590,-3.8750,-1.7024,0.3466,1429.93,-971.86,1750.67
9600,-3.8746,-1.7905,0.3330,-1898.19,371.64,1219.42
9610,-3.8743,-1.8282,0.3380,-1179.44,-1362.92,1266.24
9620,-3.8739,-1.8468,0.3477,1992.43,-722.35,1188.11
9630,-3.8735,-1.8989,0.3610,-382.57,511.96,-1796.20
9640,-3.8730,-1.9901,0.3850,945.56,-1784.97,1172.55
9650,-3.8726,-2.0701,0.3876,1273.68,1292.97,360.11
9660,-3.8722,-2.1533,0.3710,-960.69,1620.91,1735.11
9670,-3.8718,-2.2496,0.4181,383.06,-504.21,-1061.83
9680,-3.8712,-2.3212,0.5718,54.93,1526.86,-1342.96
9690,-3.8702,-2.3447,0.7876,-1101.32,1198.55,532.35
9700,-3.8693,-2.2888,0.9734,-116.94,823.49,-873.47
9710,-3.8683,-2.1379,1.0692,-960.69,604.86,1564.39
9720,-3.8677,-1.9529,1.0930,-1648.19,870.79,-1122.92
9730,-3.8672,-1.8074,1.1053,-1960.69,-81.97,189.58
9740,-3.8669,-1.7184,1.1289,664.31,1496.46,845.89
9750,-3.8668,-1.6580,1.1168,54.93,512.27,1486.57
9760,-3.8668,-1.6136,1.0637,-210.69,-1034.55,970.89
9770,-3.8669,-1.5990,1.0494,1461.18,168.70,1111.45
9780,-3.8671,-1.5779,1.1292,-663.82,-1659.42,-1451.11
9790,-3.8669,-1.4807,1.2866,-1960.69,543.76,17.82
9800,-3.8668,-1.2705,1.4648,-1523.19,700.20,-1810.00
9810,-3.8666,-0.9608,1.6012,1383.06,-486.88,-325.32
9820,-3.8663,-0.6194,1.6604,1023.68,966.86,-200.01
9830,-3.8662,-0.3269,1.6357,726.81,545.65,1659.48
9840,-3.8663,-0.1522,1.5491,-1835.69,1389.95,737.55
9850,-3.8666,-0.1302,1.4393,523.68,-1703.43,362.37
9860,-3.8668,-0.2123,1.3569,-663.82,249.69,174.68
9870,-3.8671,-0.2828,1.3633,836.18,1702.70,-1731.75
9880,-3.8672,-0.2195,1.4701,-195.07,-1484.99,-1013.00
9890,-3.8671,0.0367,1.6470,-85.69,187.01,112.24
9900,-3.8668,0.4349,1.8351,711.18,-1187.44,175.05
9910,-3.8666,0.8276,1.9360,-320.07,-1108.58,-355.83
9920,-3.8663,1.0382,1.8861,1945.56,-185.91,1659.97
9930,-3.8666,1.0682,1.6967,898.68,1423.89,-1152.59
9940,-3.8672,1.0308,1.4247,742.43,1173.95,1097.05
9950,-3.8682,0.9781,1.1642,-54.44,-1638.67,877.75
9960,-3.8693,0.9558,0.9938,1211.18,1017.52,-1669.62
9970,-3.8701,0.9707,0.9149,-1648.19,-795.04,1361.27
9980,-3.8707,0.9930,0.8966,258.06,1111.27,-966.98
9990,-3.8708,0.9747,0.9171,-882.57,-1232.48,157.96
10000,-3.8708,0.8978,0.9504,773.68,1392.52,1298.65
10010,-3.8707,0.8124,0.9696,-1070.07,1657.96,986.21
10020,-3.8707,0.7444,0.9609,-7.57,110.90,1626.89
10030,-3.8710,0.6738,0.9153,-710.69,-998.60,1970.58
10040,-3.8715,0.5912,0.8363,-1741.94,1157.53,642.40
10050,-3.8722,0.5197,0.7461,-320.07,-952.03,1064.09
10060,-3.8729,0.4664,0.6636,-1476.32,-499.02,188.90
10070,-3.8737,0.4041,0.5992,-288.82,938.35,-1983.09
10080,-3.8741,0.3188,0.5546,-273.19,703.86,719.91
10090,-3.8745,0.2140,0.5145,820.56,-1015.01,32.29
10100,-3.8749,0.1179,0.4724,-601.32,1859.74,1782.23
10110,-3.8440,0.0651,0.4346,-898.19,468.93,-14.71
10120,-3.8442,0.0641,0.4055,336.18,-374.88,-1139.83
10130,-3.8445,0.0989,0.3771,211.18,-93.63,-936.77
10140,-3.8446,0.1338,0.3386,664.31,265.81,16.36
10150,-3.8448,0.1335,0.2858,1133.06,-656.01,453.74
10160,-3.8452,0.0884,0.2214,1101.81,578.37,-686.95
10170,-3.8455,0.0059,0.1547,-679.44,343.87,766.05
10180,-3.8458,-0.0994,0.0969,758.06,-203.12,-1734.13
10190,-3.8461,-0.2048,0.0538,-710.69,421.63,1062.68
10200,-3.8463,-0.2937,0.0217,1789.31,-1094.18,1453.19
10210,-3.8466,-0.3789,-0.0088,-1585.69,-1203.74,-15.62
10220,-3.8466,-0.4788,-0.0470,-491.94,-1110.17,718.69
10230,-3.8467,-0.5724,-0.0931,-1273.19,1999.02,-734.50
10240,-3.8467,-0.6324,-0.1288,-1257.57,92.59,-187.68
10250,-3.8466,-0.6748,-0.1427,-945.07,-470.03,-1265.93
10260,-3.8464,-0.7090,-0.1344,1633.06,1748.66,-94.06
10270,-3.8462,-0.7401,-0.0859,1258.06,-1188.90,-281.56
10280,-3.8458,-0.8052,0.0084,1273.68,1014.16,-1140.81
10290,-3.8453,-0.9247,0.1349,945.56,1092.16,-1328.12
10300,-3.8446,-1.0739,0.2656,1648.68,1279.42,343.99
10310,-3.8439,-1.2290,0.3586,-1445.07,-1986.51,1437.99
10320,-3.8744,-1.3510,0.3989,-1304.44,1919.43,672.55
10330,-3.8739,-1.4313,0.4163,-913.82,-924.56,-1108.64
10340,-3.8734,-1.4960,0.4397,804.93,1294.07,485.17
10350,-3.8730,-1.5643,0.4796,523.68,293.95,532.10
10360,-3.8727,-1.6449,0.5295,-226.32,1403.14,-1905.33
10370,-3.8722,-1.6993,0.5688,1461.18,-206.36,516.60
10380,-3.8718,-1.7087,0.6006,-1507.57,824.77,1251.10
10390,-3.8716,-1.6920,0.6447,1289.31,887.27,-436.34
10400,-3.8712,-1.6689,0.7030,-570.07,-1472.11,-1733.15
10410,-3.8708,-1.6383,0.7653,-1616.94,1996.70,-936.16
10420,-3.8704,-1.6061,0.8270,-1695.07,1965.52,1267.09
10430,-3.8699,-1.5867,0.8845,-1570.07,1871.83,439.09
10440,-3.8694,-1.5952,0.9397,914.31,1231.26,1486.08
10450,-3.8689,-1.6444,0.9888,-179.44,293.70,-170.04
10460,-3.8683,-1.7175,1.0205,1523.68,-1425.11,1158.14
10470,-3.8678,-1.7766,1.0343,164.31,-1362.73,736.33
10480,-3.8674,-1.7802,1.0444,601.81,402.77,-951.11
10490,-3.8669,-1.7135,1.0651,148.68,1699.65,595.76
10500,-3.8666,-1.5967,1.1105,679.93,340.39,705.20
10510,-3.8663,-1.4375,1.1862,-366.94,-1846.92,-1529.11
10520,-3.8661,-1.2383,1.2771,8.06,-159.06,-732.12
10530,-3.8657,-1.0446,1.3699,1508.06,-518.07,-1106.93
10540,-3.8652,-0.9104,1.4595,-1695.07,-642.70,-1450.50
10550,-3.8647,-0.8420,1.5504,-523.19,-1173.71,-934.69
10560,-3.8643,-0.7952,1.6412,226.81,-1532.90,581.12
10570,-3.8641,-0.6910,1.7180,-1773.19,-1907.84,-731.20
10580,-3.8641,-0.4625,1.7820,-445.07,-79.53,706.42
10590,-3.8645,-0.1174,1.8354,804.93,108.46,1690.98
10600,-3.8650,0.2682,1.8517,976.81,-1047.12,456.67
10610,-3.8657,0.6082,1.8158,-1663.82,1016.11,-1027.65
10620,-3.8665,0.8563,1.7452,1851.81,423.03,-730.83
10630,-3.8672,0.9917,1.6428,1617.43,-607.73,-1465.39
10640,-3.8679,1.0750,1.5126,-1054.44,-1716.86,893.80
10650,-3.8688,1.1354,1.3840,1601.81,1611.45,-340.82
10660,-3.8694,1.1527,1.2928,1336.18,1158.45,237.06
10670,-3.8700,1.1697,1.2476,-445.07,1486.57,580.63
10680,-3.8705,1.2046,1.2340,1726.81,-310.24,-403.87
10690,-3.8706,1.2068,1.2273,-1804.44,1955.44,877.38
10700,-3.8708,1.1500,1.1796,-1523.19,1096.07,-888.24
10710,-3.8711,1.0941,1.0837,-788.82,-1013.43,1971.01
10720,-3.8715,1.0397,0.9744,54.93,-1279.11,1845.83
10730,-3.8718,0.9576,0.8788,1086.18,720.76,1361.27
10740,-3.8722,0.8477,0.8147,-1413.82,486.21,-935.79
10750,-3.8724,0.7050,0.7869,508.06,282.90,-654.66
10760,-3.8727,0.5874,0.7760,-1757.57,720.09,-467.22
10770,-3.8729,0.5461,0.7573,-804.44,-670.78,1063.96
10780,-3.8734,0.5343,0.7255,1914.31,938.54,-186.04
10790,-3.8738,0.5159,0.6782,398.68,860.41,610.78
10800,-3.8743,0.4797,0.6202,-1960.69,-1186.52,1251.28
10810,-3.8748,0.4237,0.5658,1414.31,-608.46,-326.97
10820,-3.8750,0.3804,0.5273,-1757.57,422.67,766.72
10830,-3.8440,0.3439,0.4984,695.56,-499.27,547.85
10840,-3.8442,0.2919,0.4613,23.68,-202.45,1500.92
10850,-3.8445,0.2274,0.4089,1367.43,-952.58,-1624.15
10860,-3.8447,0.1667,0.3472,1117.43,344.18,-1124.21
10870,-3.8450,0.1227,0.2845,1351.81,437.81,-1061.83
10880,-3.8452,0.0925,0.2317,-288.82,422.06,-561.95
10890,-3.8453,0.0625,0.1987,-148.19,1656.37,1672.30
10900,-3.8455,0.0131,0.1897,8.06,1437.62,-1499.63
10910,-3.8455,-0.0626,0.2009,1679.93,281.25,1828.49
10920,-3.8455,-0.1522,0.2258,-7.57,1734.19,-780.88
10930,-3.8453,-0.2445,0.2515,523.68,921.57,-1796.45
10940,-3.8452,-0.3457,0.2582,711.18,202.64,1984.86
10950,-3.8451,-0.4600,0.2395,-241.94,1061.77,1656.74
10960,-3.8450,-0.5797,0.2065,1133.06,-1329.04,656.68
10970,-3.8450,-0.6951,0.1691,1804.93,-1548.03,-921.51
10980,-3.8448,-0.7963,0.1296,-960.69,1654.85,1219.06
10990,-3.8448,-0.8975,0.0895,-1913.82,607.79,-218.51
11000,-3.8446,-1.0055,0.0605,1133.06,-533.02,109.50
11010,-3.8445,-1.1187,0.0691,-695.07,-236.39,-46.81
11020,-3.8441,-1.2793,0.1158,820.56,857.18,-234.25
11030,-3.8749,-1.4609,0.1774,258.06,-1158.75,-1452.94
11040,-3.8744,-1.6243,0.2219,1008.06,-1284.12,-280.94
11050,-3.8738,-1.7657,0.2483,101.81,418.70,-1140.20
11060,-3.8732,-1.8826,0.2675,1992.43,-206.60,1922.30
11070,-3.8727,-1.9684,0.2739,-960.69,-1753.72,-1327.64
11080,-3.8722,-2.0137,0.2704,54.93,-925.72,906.74
11090,-3.8718,-2.0435,0.2710,-1741.94,-1378.97,1687.99
11100,-3.8715,-2.0570,0.2889,-1554.44,-1300.90,-1796.39
11110,-3.8711,-2.0475,0.3157,711.18,995.97,1953.67
11120,-3.8707,-2.0146,0.3568,1929.93,417.85,938.11
11130,-3.8704,-1.9852,0.4323,-1866.94,1683.53,-1343.08
11140,-3.8698,-1.9833,0.5304,1898.68,-660.16,1172.67
11150,-3.8691,-1.9717,0.6029,-1851.32,-97.66,438.48
11160,-3.8688,-1.9154,0.6270,-366.94,1183.59,-1295.72
11170,-3.8685,-1.8282,0.6407,-1163.82,261.84,-764.40
11180,-3.8683,-1.7212,0.6910,1992.43,-1972.35,-1639.40
11190,-3.8680,-1.6002,0.7706,-304.44,465.33,-326.78
11200,-3.8677,-1.4821,0.8483,-820.07,-1346.92,-1326.66
11210,-3.8673,-1.3722,0.9158,-1695.07,590.82,626.65
11220,-3.8671,-1.2604,0.9908,367.43,1231.69,814.27
11230,-3.8668,-1.1282,1.0917,-1320.07,-1158.75,923.77
11240,-3.8666,-0.9546,1.2100,-398.19,-252.26,1517.70
11250,-3.8663,-0.7365,1.3326,1820.56,-1111.27,1721.07
11260,-3.8661,-0.4980,1.4618,1742.43,-1407.71,1674.44
11270,-3.8658,-0.2677,1.5911,258.06,-875.98,1284.06
11280,-3.8657,-0.0586,1.6959,1742.43,-328.67,-1996.95
11290,-3.8657,0.1367,1.7527,508.06,1093.63,878.30
11300,-3.8660,0.3381,1.7699,1508.06,343.99,1378.42
11310,-3.8663,0.5593,1.7815,-710.69,-1452.51,737.79
11320,-3.8668,0.8022,1.7913,-398.19,32.29,19.10
11330,-3.8674,1.0291,1.7528,-1304.44,1282.78,237.85
11340,-3.8682,1.2426,1.6385,-273.19,361.33,-1668.46
11350,-3.8689,1.3837,1.4730,-945.07,1736.76,-12.45
11360,-3.8695,1.3501,1.3032,1117.43,549.56,-1481.51
11370,-3.8701,1.2393,1.1537,820.56,-1184.88,1893.13
11380,-3.8707,1.1296,1.0217,-1366.94,-325.74,-997.80
11390,-3.8712,1.0026,0.9161,601.81,-1216.55,-326.17
11400,-3.8716,0.9016,0.8384,336.18,1267.58,-60.73
11410,-3.8718,0.8617,0.7782,-585.69,-685.79,-1826.54
11420,-3.8721,0.8516,0.7183,-1695.07,-388.98,1298.34
11430,-3.8723,0.8429,0.6389,1008.06,-60.85,157.59
11440,-3.8727,0.8159,0.5497,-101.32,1782.84,-1295.65
11450,-3.8729,0.7369,0.4847,445.56,-1639.04,-1545.84
11460,-3.8732,0.6361,0.4531,-1663.82,-1951.72,-202.21
11470,-3.8733,0.5563,0.4335,1429.93,-1998.78,1922.73
11480,-3.8734,0.4971,0.4115,-788.82,-514.59,532.04
11490,-3.8737,0.4664,0.3940,-366.94,672.79,-421.08
11500,-3.8738,0.4376,0.3865,-288.82,-1561.65,-1655.52
11510,-3.8740,0.3920,0.3699,23.68,1469.60,-1249.27
11520,-3.8744,0.3396,0.3276,-1820.07,-655.52,-14.95
11530,-3.8748,0.2855,0.2699,-523.19,1938.11,-202.51
11540,-3.8439,0.2407,0.2125,554.93,-1452.58,-46.39
11550,-3.8441,0.2030,0.1694,-1179.44,-796.45,1703.49
11560,-3.8444,0.1698,0.1420,1992.43,1687.87,906.56
11570,-3.8446,0.1300,0.1199,1742.43,-1827.82,1234.62
11580,-3.8448,0.0662,0.1063,648.68,-656.01,-577.94
11590,-3.8450,-0.0269,0.1057,476.81,1609.50,-62.32
11600,-3.8450,-0.1353,0.1075,570.56,1546.81,-1921.69
11610,-3.8450,-0.2384,0.0989,-1304.44,1780.94,15.81
11620,-3.8451,-0.3280,0.0861,1492.43,671.39,1125.18
11630,-3.8452,-0.4053,0.0896,-1976.32,-969.42,-1234.25
11640,-3.8452,-0.4762,0.1113,133.06,-516.42,-984.25
11650,-3.8451,-0.5476,0.1309,-945.07,-1735.35,-1468.57
11660,-3.8450,-0.6157,0.1365,1914.31,764.53,-499.76
11670,-3.8448,-0.6969,0.1207,1195.56,1483.15,-406.01
11680,-3.8447,-0.7830,0.0835,-1195.07,-532.65,1984.56
11690,-3.8446,-0.8477,0.0519,-210.69,-1298.46,0.12
11700,-3.8446,-0.9259,0.0530,-491.94,-1345.46,-203.06
11710,-3.8444,-1.0424,0.0782,1492.43,-1204.96,-1265.56
11720,-3.8440,-1.1731,0.0975,-1413.82,-1970.83,937.62
11730,-3.8749,-1.2998,0.1029,1851.81,497.68,812.68
11740,-3.8745,-1.4047,0.1093,1633.06,1184.94,672.06
11750,-3.8741,-1.4974,0.1270,211.18,1997.25,687.68
11760,-3.8738,-1.5878,0.1495,336.18,262.70,937.74
11770,-3.8734,-1.6509,0.1727,773.68,-846.86,1656.49
11780,-3.8730,-1.6843,0.1942,695.56,-1878.23,-1140.32
11790,-3.8727,-1.6904,0.2097,414.31,871.70,-671.51
11800,-3.8723,-1.6855,0.2213,-366.94,-1143.98,-1952.76
11810,-3.8721,-1.6818,0.2416,258.06,340.45,-952.70
11820,-3.8717,-1.6799,0.2863,742.43,-1065.80,734.80
11830,-3.8713,-1.6942,0.3488,976.81,652.95,-1640.08
11840,-3.8707,-1.7174,0.4062,-851.32,652.89,391.30
11850,-3.8702,-1.7295,0.4431,179.93,12.27,-483.58
11860,-3.8698,-1.7196,0.4539,-1366.94,730.96,-264.77
11870,-3.8694,-1.6820,0.4429,-101.32,-1894.04,-811.65
11880,-3.8691,-1.6272,0.4203,711.18,699.83,-1624.15
11890,-3.8690,-1.5730,0.3960,-273.19,1809.27,-889.83
11900,-3.8689,-1.5337,0.3857,-1335.69,-1299.99,-921.14
11910,-3.8688,-1.5142,0.4150,-304.44,1387.57,-718.02
11920,-3.8685,-1.4982,0.4904,-1804.44,1137.63,969.54
11930,-3.8683,-1.4541,0.5812,242.43,-1221.68,594.67
11940,-3.8680,-1.3643,0.6573,1883.06,-1596.62,782.35
11950,-3.8679,-1.2417,0.7125,1383.06,153.56,-295.59
11960,-3.8677,-1.0977,0.7592,1070.56,-783.69,907.59
11970,-3.8676,-0.9359,0.8184,-491.94,1185.30,454.59
11980,-3.8676,-0.7577,0.8984,211.18,763.79,-1670.29
11990,-3.8676,-0.5586,0.9869,-976.32,-985.90,-935.79
12000,-3.8676,-0.3583,1.0646,508.06,-1657.35,-623.11
12010,-3.8676,-0.1898,1.1274,-1851.32,280.52,-935.42
12020,-3.8676,-0.0426,1.1991,-288.82,327.70,1267.82
12030,-3.8677,0.1389,1.2887,-1445.07,1499.88,892.94
12040,-3.8679,0.3713,1.3536,1789.31,953.37,1408.75
12050,-3.8683,0.6029,1.3606,-460.69,1266.30,-309.88
12060,-3.8685,0.7704,1.3271,1179.93,-1842.59,1643.25
12070,-3.8689,0.8398,1.2677,-1382.57,1876.46,-606.81
12080,-3.8693,0.8738,1.1781,-491.94,-1732.79,-981.93
12090,-3.8696,0.8992,1.0690,-148.19,-1201.48,674.13
12100,-3.8701,0.8893,0.9506,-898.19,829.83,-1685.42
12110,-3.8705,0.8584,0.8263,1836.18,1673.58,1829.96
12120,-3.8707,0.8257,0.7229,1883.06,1767.27,1064.09
12130,-3.8708,0.7678,0.6636,1695.56,532.84,157.65
12140,-3.8710,0.6549,0.6221,-1710.69,938.96,345.03
12150,-3.8712,0.5267,0.5624,-163.82,-373.78,1563.66
12160,-3.8716,0.4276,0.4745,-570.07,-14.65,1094.79
12170,-3.8722,0.3737,0.3661,-1257.57,735.17,-139.71
12180,-3.8727,0.3575,0.2484,-163.82,-1139.95,1453.80
12190,-3.8732,0.3518,0.1432,1773.68,-202.45,1344.18
12200,-3.8735,0.3259,0.0787,1039.31,-1671.20,1437.74
12210,-3.8738,0.2681,0.0659,1726.81,-1921.26,1640.75
12220,-3.8739,0.1934,0.0874,-1679.44,437.99,406.37
12230,-3.8741,0.1353,0.1080,758.06,-812.13,-499.88
12240,-3.8743,0.1069,0.1166,1320.56,1828.37,1687.68
12250,-3.8745,0.1064,0.1217,1695.56,-1077.94,-1656.07
12260,-3.8748,0.1316,0.1218,1633.06,-421.69,1375.18
12270,-3.8439,0.1737,0.1041,851.81,-406.01,-1312.32
12280,-3.8442,0.2101,0.0594,-1757.57,1328.43,-1859.19
12290,-3.8446,0.2084,0.0000,-1101.32,-390.26,1062.56
12300,-3.8450,0.1483,-0.0443,-1320.07,0.37,1984.38
12310,-3.8452,0.0450,-0.0619,-1007.57,-1671.63,-1265.75
12320,-3.8453,-0.0735,-0.0588,1773.68,78.19,-797.00
12330,-3.8453,-0.1881,-0.0326,-1398.19,484.19,-1500.12
12340,-3.8453,-0.2755,0.0135,-70.07,-156.68,-843.87
12350,-3.8453,-0.3147,0.0642,742.43,1749.45,-15.62
12360,-3.8452,-0.3188,0.1058,-273.19,233.70,1359.50
12370,-3.8451,-0.3330,0.1432,-804.44,1561.83,406.43
12380,-3.8450,-0.3909,0.1918,1383.06,-1656.92,-1468.51
12390,-3.8447,-0.4779,0.2444,1976.81,561.71,-109.01
12400,-3.8444,-0.5907,0.2905,-1163.82,-704.10,-1155.82
12410,-3.8440,-0.7114,0.3301,398.68,1201.97,1016.17
12420,-3.8750,-0.7944,0.3588,945.56,-1735.78,1766.24
12430,-3.8748,-0.8514,0.3669,-1679.44,1935.91,1610.05
12440,-3.8745,-0.8979,0.3628,-976.32,-1017.33,1328.80
12450,-3.8743,-0.9738,0.3845,1070.56,-1548.65,-577.45
12460,-3.8738,-1.1097,0.4458,-632.57,1232.42,-1889.89
12470,-3.8732,-1.2830,0.5071,1961.18,1075.93,875.85
12480,-3.8726,-1.4628,0.5321,-210.69,919.31,1579.10
12490,-3.8719,-1.6305,0.5264,773.68,122.13,-1170.84
12500,-3.8713,-1.7931,0.5190,-695.07,-612.61,-233.40
12510,-3.8707,-1.9523,0.5345,-1507.57,-1550.42,-155.27
12520,-3.8701,-2.0906,0.5540,-1882.57,433.65,-623.96
12530,-3.8695,-2.1604,0.5411,414.31,-1082.21,1688.54
12540,-3.8690,-2.1411,0.4993,-523.19,1276.98,204.16
12550,-3.8688,-2.0712,0.4615,1945.56,-82.34,719.67
12560,-3.8688,-1.9767,0.4353,-1101.32,-910.34,-717.90
12570,-3.8688,-1.8677,0.4120,-1007.57,-269.53,-936.71
12580,-3.8687,-1.7830,0.4106,945.56,746.34,250.79
12590,-3.8685,-1.7473,0.4569,-210.69,574.58,391.42
12600,-3.8684,-1.7358,0.5511,351.81,-1503.42,-717.90
12610,-3.8680,-1.7025,0.6666,1820.56,-1440.92,782.29
12620,-3.8678,-1.6173,0.7616,-1913.82,1340.39,-826.84
12630,-3.8676,-1.4730,0.8091,992.43,1496.83,-1889.16
12640,-3.8676,-1.2571,0.8229,-538.82,-424.80,-1935.97
12650,-3.8678,-0.9589,0.8356,-898.19,1341.25,-310.91
12660,-3.8679,-0.6115,0.8807,1273.68,-1033.14,267.21
12670,-3.8680,-0.2949,0.9875,1742.43,748.78,-1685.79
12680,-3.8678,-0.0790,1.1426,-1741.94,-1578.74,236.27
12690,-3.8676,0.0253,1.2972,1898.68,-1734.56,-669.68
12700,-3.8672,0.0674,1.4200,-757.57,-1953.12,1846.25
12710,-3.8671,0.1411,1.5192,633.06,1765.75,-809.75
12720,-3.8671,0.3197,1.5896,-1929.44,-1546.63,1346.68
12730,-3.8674,0.5923,1.5988,929.93,-530.64,-1153.20
12740,-3.8680,0.8857,1.5302,-179.44,641.72,-778.14
12750,-3.8688,1.0999,1.3959,1383.06,-138.92,1456.05
12760,-3.8696,1.2271,1.2402,789.31,-1325.99,-1106.69
12770,-3.8704,1.2594,1.0895,1070.56,-1247.62,-935.12
12780,-3.8710,1.1761,0.9360,1211.18,-544.43,1830.20
12790,-3.8716,1.0465,0.7858,-1445.07,-185.24,-1154.48
12800,-3.8721,0.9440,0.6735,1961.18,580.14,-560.97
12810,-3.8724,0.8767,0.6233,836.18,-1795.04,-342.47
12820,-3.8727,0.8167,0.6118,226.81,-217.04,-1858.22
12830,-3.8729,0.7709,0.5928,539.31,-1685.91,-1967.59
12840,-3.8732,0.7394,0.5405,-1320.07,-123.54,1438.60
12850,-3.8735,0.6979,0.4631,-1351.32,1188.90,-1842.71
12860,-3.8739,0.6331,0.3771,1336.18,-717.41,47.73
12870,-3.8744,0.5743,0.2970,1039.31,266.85,938.23
12880,-3.8749,0.5287,0.2389,1523.68,-1983.28,-280.70
12890,-3.8439,0.4735,0.2084,-320.07,-1420.90,1125.43
12900,-3.8442,0.4098,0.1956,617.43,-1327.21,-46.51
12910,-3.8445,0.3334,0.1821,461.18,1032.04,-1280.88
12920,-3.8447,0.2399,0.1630,-1320.07,-686.89,1265.93
12930,-3.8450,0.1456,0.1398,-1288.82,859.80,469.06
12940,-3.8452,0.0591,0.1108,-1351.32,1890.87,390.87
12950,-3.8455,-0.0189,0.0808,-429.44,-1812.44,422.06
12960,-3.8457,-0.0961,0.0555,1586.18,-1640.69,484.50
12970,-3.8459,-0.1808,0.0354,-288.82,-875.24,1687.56
12980,-3.8461,-0.2736,0.0173,867.43,546.51,1359.44
12990,-3.8461,-0.3931,-0.0021,992.43,-1766.17,375.00
13000,-3.8461,-0.5674,-0.0197,1695.56,-250.79,-1343.81
13010,-3.8459,-0.7822,-0.0352,-616.94,1498.84,-1109.44
13020,-3.8458,-0.9692,-0.0468,-116.94,-485.96,-359.50
13030,-3.8456,-1.1259,-0.0541,-54.44,-1970.70,593.63
13040,-3.8455,-1.2466,-0.0514,-101.32,1091.49,-1218.87
13050,-3.8451,-1.2802,-0.0220,445.56,1435.06,46.75
13060,-3.8447,-1.2980,0.0416,148.68,1200.62,-1828.19
13070,-3.8441,-1.3619,0.1383,1867.43,1341.19,1609.44
13080,-3.8746,-1.4628,0.2444,1679.93,1716.06,781.49
13090,-3.8739,-1.5822,0.3378,773.68,-705.99,1375.43
13100,-3.8732,-1.6920,0.4315,1492.43,-753.11,-983.76
13110,-3.8723,-1.7872,0.5258,-570.07,-753.36,-1139.83
13120,-3.8715,-1.8678,0.5784,-757.57,-691.04,-530.27
13130,-3.8706,-1.9146,0.5698,929.93,-1956.79,1079.22
13140,-3.8700,-1.9347,0.5275,-1054.44,949.34,1016.72
13150,-3.8696,-1.9518,0.4786,367.43,-472.53,-1702.15
13160,-3.8694,-1.9617,0.4453,-1820.07,1277.40,-1514.71
13170,-3.8691,-1.9817,0.4520,914.31,1011.78,-1483.52
13180,-3.8688,-2.0275,0.5148,-1648.19,1871.09,-77.27
13190,-3.8682,-2.0720,0.6183,492.43,1902.28,-1249.02
13200,-3.8676,-2.0742,0.7294,-1210.69,-847.84,-1264.47
13210,-3.8669,-2.0220,0.8472,-1491.94,1370.91,-1029.85
13220,-3.8663,-1.9236,0.9631,1195.56,449.16,-1170.23
13230,-3.8658,-1.7516,1.0304,1789.31,-706.91,814.33
13240,-3.8658,-1.4552,1.0375,-195.07,-97.23,-826.17
13250,-3.8661,-1.0516,1.0343,1742.43,809.63,1923.89
13260,-3.8665,-0.6473,1.0999,1398.68,404.17,1845.76
13270,-3.8666,-0.3401,1.2798,1148.68,795.59,1752.14
13280,-3.8663,-0.1256,1.5449,476.81,-172.55,346.19
13290,-3.8660,0.0846,1.8453,-70.07,1765.32,-1840.76
13300,-3.8655,0.3800,2.1343,-1163.82,203.25,847.35
13310,-3.8654,0.7832,2.3419,648.68,1188.23,-730.22
13320,-3.8656,1.2211,2.3728,258.06,-232.85,1176.39
13330,-3.8666,1.5651,2.1821,304.93,-278.87,-167.30
13340,-3.8679,1.7399,1.8456,336.18,-684.45,-261.41
13350,-3.8694,1.7032,1.4752,-1288.82,237.73,-902.65
13360,-3.8707,1.5240,1.1434,-1976.32,831.42,-465.88
13370,-3.8717,1.3263,0.8971,-913.82,-1637.70,1736.57
13380,-3.8724,1.1238,0.7478,1773.68,-1169.31,-1529.54
13390,-3.8729,0.9412,0.6490,-148.19,-279.11,-1889.22
13400,-3.8733,0.8237,0.5575,476.81,-920.04,329.35
13410,-3.8738,0.7463,0.4786,1445.56,-639.04,-233.34
13420,-3.8740,0.6639,0.4232,-460.69,1267.03,297.79
13430,-3.8744,0.5889,0.3856,992.43,-1826.84,1641.42
13440,-3.8748,0.5503,0.3629,-616.94,1360.47,-358.64
13450,-3.8750,0.5503,0.3491,-1554.44,-1545.84,1844.42
13460,-3.8441,0.5599,0.3331,-1554.44,688.54,-452.45
13470,-3.8444,0.5282,0.3109,-320.07,-1358.34,500.61
13480,-3.8447,0.4351,0.2788,-382.57,-202.15,1031.80
13490,-3.8451,0.3116,0.2334,-304.44,-311.71,1672.36
13500,-3.8455,0.1748,0.1818,-101.32,1875.55,-1374.57
13510,-3.8457,0.0166,0.1360,-1616.94,-734.07,31.56
13520,-3.8461,-0.1609,0.0990,-1866.94,1406.25,-1249.76
13530,-3.8462,-0.3596,0.0750,-585.69,687.13,0.18
13540,-3.8463,-0.5780,0.0695,1976.81,1608.64,765.75
13550,-3.8463,-0.7991,0.0765,-1976.32,905.09,1703.25
13560,-3.8462,-0.9874,0.0856,1726.81,1810.91,-1015.50
13570,-3.8459,-1.1575,0.0807,1617.43,-1033.20,-562.38
13580,-3.8456,-1.3153,0.0488,-148.19,-1658.57,1375.12
13590,-3.8453,-1.4282,-0.0209,-351.32,-1737.00,-406.19
13600,-3.8450,-1.5276,-0.0956,1195.56,1340.94,-562.56
13610,-3.8444,-1.6382,-0.1219,476.81,-221.74,171.63
13620,-3.8750,-1.7646,-0.1062,-1679.44,403.02,-1593.99
13630,-3.8743,-1.8995,-0.0775,-1866.94,-1581.60,-656.49
13640,-3.8734,-2.0150,-0.0366,867.43,-1909.97,-1656.43
13650,-3.8726,-2.1075,0.0215,-1913.82,-675.84,-78.25
13660,-3.8716,-2.1578,0.0831,-1757.57,-1238.53,1859.38
13670,-3.8707,-2.1360,0.1350,-195.07,-1348.02,1906.37
13680,-3.8700,-2.0649,0.1759,-1398.19,1292.66,-1093.51
13690,-3.8693,-1.9785,0.2157,-304.44,-1472.84,625.31
13700,-3.8688,-1.8948,0.2634,-1241.94,-378.91,-999.63
13710,-3.8683,-1.8386,0.3378,1476.81,1730.65,1766.11
13720,-3.8679,-1.8088,0.4608,664.31,-753.60,-468.14
13730,-3.8673,-1.7679,0.6144,476.81,-1003.54,907.10
13740,-3.8667,-1.6863,0.7676,1711.18,-1347.23,-1451.97
13750,-3.8661,-1.5554,0.9048,164.31,-1737.67,-1232.91
13760,-3.8657,-1.3540,1.0192,914.31,-174.93,1579.83
13770,-3.8657,-1.0271,1.1346,-1304.44,-1533.94,564.45
13780,-3.8660,-0.5438,1.2717,539.31,1247.99,1611.57
13790,-3.8662,-0.0090,1.4073,-1601.32,-1204.22,-185.06
13800,-3.8662,0.3951,1.5073,-1148.19,156.19,1784.00
13810,-3.8662,0.5881,1.5734,-1413.82,938.23,893.55
13820,-3.8663,0.6390,1.6484,-710.69,1391.72,1206.18
13830,-3.8666,0.6997,1.7965,1804.93,-998.78,-106.20
13840,-3.8666,0.9420,2.0535,1570.56,1954.47,956.60
13850,-3.8667,1.3723,2.3154,586.18,-1154.42,-1949.16
13860,-3.8671,1.8307,2.3870,-335.69,377.62,801.39
13870,-3.8680,2.1278,2.1841,-1663.82,1534.79,-1495.36
13880,-3.8693,2.1155,1.7854,367.43,-433.35,238.59
13890,-3.8707,1.8289,1.3318,-1210.69,535.34,-1902.77
13900,-3.8719,1.3927,0.9541,-1898.19,-1527.71,252.56
13910,-3.8730,0.9585,0.6985,-1726.32,-1872.31,-576.29
13920,-3.8738,0.6351,0.5216,-1304.44,1408.08,-1826.78
13930,-3.8744,0.4382,0.3787,1304.93,-1233.15,1813.48
13940,-3.8750,0.3606,0.2573,101.81,469.60,-77.39
13950,-3.8441,0.3456,0.1671,-1835.69,938.17,578.61
13960,-3.8445,0.3241,0.1110,242.43,1391.30,47.18
13970,-3.8448,0.2780,0.0718,1492.43,-1796.26,1562.68
13980,-3.8452,0.2136,0.0297,-413.82,1187.99,-62.38
13990,-3.8455,0.1376,-0.0117,-648.19,-202.76,-890.62
14000,-3.8456,0.0541,-0.0186,1617.43,-1499.76,1249.94
14010,-3.8457,-0.0365,0.0132,-1070.07,1625.06,-1031.31
14020,-3.8457,-0.1355,0.0481,-663.82,1703.00,-1953.12
14030,-3.8457,-0.2578,0.0624,-1335.69,-1828.43,171.94
14040,-3.8458,-0.4161,0.0602,-991.94,-0.55,484.44
14050,-3.8459,-0.6018,0.0731,-1257.57,-282.10,1171.94
14060,-3.8459,-0.7906,0.0967,-1023.19,1373.78,1547.00
14070,-3.8458,-0.9398,0.0975,-1195.07,389.04,-1827.94
14080,-3.8457,-1.0680,0.0551,-288.82,498.11,-62.32
14090,-3.8456,-1.1753,-0.0238,-695.07,-939.64,-562.44
14100,-3.8455,-1.2140,-0.1027,1570.56,966.43,734.31
14110,-3.8455,-1.2512,-0.1486,617.43,-1127.38,-1765.87
14120,-3.8453,-1.3457,-0.1443,-148.19,997.50,-844.06
14130,-3.8450,-1.4695,-0.0880,-241.94,1544.19,-1750.31
14140,-3.8444,-1.6252,0.0033,-85.69,747.07,1452.94
14150,-3.8749,-1.7612,0.0986,-23.19,434.27,-234.38
14160,-3.8739,-1.8422,0.1721,-1429.44,637.15,1687.68
14170,-3.8729,-1.8817,0.2327,211.18,-1956.73,1406.56
14180,-3.8718,-1.8862,0.3079,-851.32,1793.15,797.30
14190,-3.8706,-1.9126,0.3929,-1429.44,-581.85,1141.17
14200,-3.8694,-1.9581,0.4629,-804.44,-1691.28,-874.27
14210,-3.8682,-1.9849,0.5048,1367.43,-738.22,1485.23
14220,-3.8672,-2.0082,0.5392,1945.56,621.09,-795.90
14230,-3.8662,-2.0470,0.5967,-1038.82,1027.28,-1233.34
14240,-3.8654,-2.0725,0.6810,1992.43,386.60,-1186.34
14250,-3.8647,-2.0098,0.7848,-1273.19,-816.59,-373.72
14260,-3.8644,-1.7710,0.9020,-1241.94,464.78,-1170.35
14270,-3.8643,-1.3624,1.0385,1320.56,-534.73,423.58
14280,-3.8644,-0.8748,1.2104,1617.43,934.81,564.51
14290,-3.8645,-0.3912,1.4160,39.31,-1048.58,1580.44
14300,-3.8645,0.0322,1.6194,1929.93,1264.83,393.37
14310,-3.8646,0.3658,1.8132,133.06,-718.69,-1012.51
14320,-3.8646,0.6208,2.0272,-1163.82,94.42,550.42
14330,-3.8649,0.8744,2.2527,-523.19,-514.47,-824.22
14340,-3.8652,1.1874,2.4086,-70.07,345.40,-1729.98
14350,-3.8660,1.5786,2.4095,-7.57,299.13,1457.82
14360,-3.8671,1.8937,2.2385,-1929.44,424.93,1535.95
14370,-3.8684,1.9583,1.9290,-1601.32,-1465.09,-1245.67
14380,-3.8699,1.7937,1.5309,-1335.69,-1089.97,-511.90
14390,-3.8713,1.4490,1.1370,1601.81,-43.40,-403.32
14400,-3.8726,1.0646,0.8295,1476.81,1534.06,642.82
14410,-3.8737,0.7665,0.6201,273.68,-1826.05,-560.91
14420,-3.8743,0.5736,0.4896,-1882.57,-623.54,1532.41
14430,-3.8748,0.4791,0.4092,1429.93,-1327.03,-842.83
14440,-3.8439,0.4110,0.3541,1336.18,375.92,-327.33
14450,-3.8442,0.3032,0.2936,617.43,1328.92,-483.70
14460,-3.8446,0.1644,0.2034,-1179.44,1578.67,1188.05
14470,-3.8451,0.0343,0.1051,1054.93,-1968.44,1562.87
14480,-3.8455,-0.0667,0.0564,398.68,1453.19,0.18
14490,-3.8458,-0.1387,0.0745,-523.19,-765.81,-421.81
14500,-3.8459,-0.1884,0.1151,-1741.94,1546.57,-578.00
14510,-3.8461,-0.2274,0.1282,-101.32,-1250.43,-296.69
14520,-3.8462,-0.2789,0.1047,-1101.32,421.39,-1952.88
14530,-3.8464,-0.3700,0.0614,304.93,1421.33,-921.69
14540,-3.8466,-0.5162,0.0057,648.68,-125.73,1031.31
14550,-3.8467,-0.6975,-0.0613,1929.93,748.96,1703.12
14560,-3.8467,-0.8901,-0.1312,-1273.19,170.47,1406.13
14570,-3.8466,-1.0729,-0.1748,-1929.44,-783.02,905.94
14580,-3.8463,-1.2131,-0.1597,-1320.07,1638.49,1468.38
14590,-3.8459,-1.3534,-0.0994,726.81,-424.26,-765.99
14600,-3.8453,-1.4779,-0.0363,-1226.32,-705.81,562.26
14610,-3.8448,-1.5315,-0.0046,-1163.82,-627.93,-531.37
14620,-3.8442,-1.5297,0.0000,-23.19,-581.18,-1343.81
14630,-3.8749,-1.5116,0.0160,211.18,12.63,-1515.62
14640,-3.8743,-1.5131,0.0494,-1476.32,-1940.49,-531.25
14650,-3.8735,-1.5264,0.0840,-1663.82,-1659.24,343.81
14660,-3.8729,-1.5675,0.1476,633.06,-1237.37,-1468.63
14670,-3.8719,-1.6832,0.2863,-632.57,-1096.86,359.62
14680,-3.8707,-1.8835,0.4777,554.93,652.95,1313.05
14690,-3.8693,-2.0957,0.6493,-1085.69,1152.53,1422.79
14700,-3.8678,-2.2173,0.7428,-241.94,-879.15,751.22
14710,-3.8666,-2.2145,0.7742,195.56,-910.58,1345.15
14720,-3.8656,-2.1298,0.8164,554.93,-894.96,1454.59
14730,-3.8649,-1.9932,0.9061,-601.32,511.41,407.84
14740,-3.8645,-1.7621,1.0394,883.06,-3.91,-1232.67
14750,-3.8643,-1.4044,1.1842,-1538.82,1059.02,1595.76
14760,-3.8643,-0.9912,1.2822,242.43,-409.00,517.88
14770,-3.8646,-0.6449,1.3287,1133.06,138.67,-1435.00
14780,-3.8651,-0.4099,1.3934,1461.18,-1907.53,1986.94
14790,-3.8656,-0.2407,1.5485,-460.69,-1625.85,-1762.94
14800,-3.8658,-0.0765,1.7948,1195.56,-1781.74,1924.87
14810,-3.8658,0.1501,2.0782,-1788.82,1749.82,50.35
14820,-3.8660,0.4950,2.3384,-773.19,-1984.13,1769.65
14830,-3.8663,0.9409,2.4874,-632.57,-686.58,-636.11
14840,-3.8669,1.3353,2.4491,445.56,-1607.54,-1901.43
14850,-3.8679,1.5800,2.2335,-1070.07,1486.94,-526.49
14860,-3.8690,1.6199,1.9114,-1757.57,1893.68,-1964.42
14870,-3.8702,1.4150,1.5529,-648.19,659.36,691.22
14880,-3.8716,1.1193,1.2284,1133.06,-1231.63,-1809.51
14890,-3.8728,0.8408,0.9753,-726.32,1236.51,-1138.24
14900,-3.8738,0.6091,0.7797,-366.94,845.34,-1701.23
14910,-3.8745,0.4659,0.6106,1976.81,-201.97,470.21
14920,-3.8440,0.4086,0.4546,-351.32,-1842.90,-1045.72
14930,-3.8446,0.3859,0.3165,304.93,-1811.71,-780.40
14940,-3.8451,0.3328,0.2048,1398.68,516.36,734.99
14950,-3.8456,0.2267,0.1284,-1398.19,-1780.64,797.24
14960,-3.8461,0.0801,0.0780,1023.68,437.93,-15.38
14970,-3.8463,-0.0649,0.0320,-1741.94,1984.50,609.50
14980,-3.8467,-0.1785,-0.0203,-304.44,109.19,656.31
14990,-3.8470,-0.2679,-0.0646,1164.31,1421.51,499.94
15000,-3.8474,-0.3622,-0.0748,1711.18,-250.55,-515.81
15010,-3.8474,-0.4849,-0.0474,1648.68,-1563.23,921.69
15020,-3.8473,-0.6401,-0.0134,1945.56,1952.15,1281.13
15030,-3.8470,-0.8169,-0.0063,-1929.44,-1704.41,-1578.19
15040,-3.8467,-0.9922,-0.0474,-554.44,-798.52,1390.56
15050,-3.8464,-1.1122,-0.1277,1008.06,1951.17,-312.62
15060,-3.8461,-1.1796,-0.2169,1648.68,-330.32,671.57
15070,-3.8458,-1.2140,-0.2662,1023.68,247.68,1155.82
15080,-3.8456,-1.2343,-0.2467,617.43,1935.12,-1266.17
15090,-3.8451,-1.2726,-0.1760,-1976.32,435.06,437.01
15100,-3.8445,-1.3083,-0.0786,1117.43,1481.87,1062.13
15110,-3.8749,-1.3270,0.0365,539.31,1950.56,421.69
15120,-3.8739,-1.3524,0.1753,-1851.32,684.88,437.56
15130,-3.8728,-1.4006,0.3264,-1101.32,-1549.56,390.93
15140,-3.8717,-1.4530,0.4564,726.81,1794.13,-249.39
15150,-3.8704,-1.4968,0.5472,-1976.32,-1565.37,938.35
15160,-3.8691,-1.5614,0.6129,414.31,-1940.43,-1842.71
15170,-3.8679,-1.6837,0.6989,148.68,-1534.30,-1748.84
15180,-3.8666,-1.8436,0.8424,492.43,1465.45,485.72
15190,-3.8652,-1.9313,0.9857,23.68,-159.85,-1779.66
15200,-3.8640,-1.8330,1.0435,804.93,-1816.28,1111.27
15210,-3.8634,-1.5662,1.0243,1383.06,1574.52,548.89
15220,-3.8635,-1.2134,0.9901,-460.69,-878.11,-982.42
15230,-3.8640,-0.8344,0.9681,695.56,-1252.38,-123.11
15240,-3.8646,-0.5009,0.9757,1211.18,-64.15,-1091.92
15250,-3.8652,-0.2859,1.0518,-101.32,905.21,-1201.23
15260,-3.8656,-0.1664,1.1903,-585.69,-1359.99,48.89
15270,-3.8660,-0.0519,1.3422,-1288.82,374.63,1236.69
15280,-3.8663,0.1144,1.5048,1367.43,-187.62,-794.31
15290,-3.8666,0.3640,1.6915,-1351.32,609.56,1127.93
15300,-3.8669,0.7004,1.8605,-1398.19,516.30,925.17
15310,-3.8674,1.0466,1.9539,1664.31,-1858.03,644.23
15320,-3.8680,1.2986,1.9293,1976.81,-1904.24,566.28
15330,-3.8689,1.4340,1.7771,-1773.19,-1044.37,-340.03
15340,-3.8698,1.4298,1.5378,-445.07,-528.50,1487.79
15350,-3.8708,1.2629,1.2694,-976.32,846.50,-684.51
15360,-3.8718,1.0345,1.0349,1664.31,-1513.18,611.82
15370,-3.8728,0.8195,0.8569,429.93,470.76,1736.39
15380,-3.8737,0.6285,0.7161,898.68,1689.09,-138.98
15390,-3.8743,0.4768,0.6154,461.18,-342.53,-436.16
15400,-3.8746,0.3411,0.5612,1039.31,-1233.46,1782.41
15410,-3.8749,0.2321,0.5219,-335.69,-171.26,251.04
15420,-3.8440,0.1699,0.4573,1711.18,-1202.70,-1749.02
15430,-3.8444,0.1377,0.3661,1758.06,-1468.44,1016.48
15440,-3.8448,0.1257,0.2878,1633.06,-1140.38,1781.92
15450,-3.8452,0.1096,0.2573,101.81,843.99,656.80
15460,-3.8455,0.0575,0.2607,-1960.69,937.68,78.61
15470,-3.8457,-0.0419,0.2610,-632.57,1375.06,-1640.14
15480,-3.8458,-0.1914,0.2413,-1351.32,1421.75,1687.99
15490,-3.8459,-0.3793,0.1919,-491.94,-1094.18,1766.05
15500,-3.8461,-0.5691,0.1021,-538.82,577.33,1375.37
15510,-3.8463,-0.7345,-0.0153,-835.69,1076.97,-265.44
15520,-3.8464,-0.8680,-0.1327,1992.43,-1938.96,-1546.94
15530,-3.8464,-1.0093,-0.2303,898.68,-970.46,327.82
15540,-3.8464,-1.1582,-0.2849,-1179.44,-1470.76,-1359.86
15550,-3.8462,-1.2821,-0.2883,-241.94,-455.44,1030.64
15560,-3.8459,-1.3892,-0.2644,-101.32,-893.19,-250.61
15570,-3.8455,-1.4680,-0.2179,-1804.44,-1830.87,-31.80
15580,-3.8447,-1.5237,-0.1241,101.81,122.13,-1094.18
15590,-3.8750,-1.5615,0.0144,976.81,122.01,421.63
15600,-3.8740,-1.5657,0.1549,133.06,1856.32,-546.88
15610,-3.8728,-1.5400,0.2496,-398.19,-159.36,547.12
15620,-3.8718,-1.4979,0.2933,-1116.94,-34.30,-327.70
15630,-3.8707,-1.4800,0.3370,273.68,1559.57,1234.92
15640,-3.8696,-1.5159,0.4194,-1429.44,-846.68,125.61
15650,-3.8685,-1.5925,0.5112,1976.81,1700.13,766.42
15660,-3.8676,-1.6780,0.5690,164.31,1450.01,-30.27
15670,-3.8666,-1.7385,0.5839,1226.81,840.45,-1952.03
15680,-3.8658,-1.7582,0.5697,1476.81,-1253.42,1297.97
15690,-3.8654,-1.7268,0.5604,-1038.82,934.02,1688.60
15700,-3.8651,-1.6361,0.5878,-1023.19,-253.42,-342.71
15710,-3.8650,-1.4611,0.6567,-1413.82,-753.23,-514.53
15720,-3.8650,-1.1838,0.7635,992.43,75.26,-1889.34
15730,-3.8650,-0.8348,0.9288,476.81,1747.68,1.46
15740,-3.8650,-0.4850,1.1536,1148.68,-1095.40,-1654.48
15750,-3.8647,-0.1749,1.4001,1929.93,-329.10,1486.57
15760,-3.8645,0.1068,1.6191,1617.43,-765.99,143.31
15770,-3.8645,0.3643,1.7811,1679.93,-749.82,346.86
15780,-3.8649,0.6093,1.8793,-1366.94,-14.95,-1434.08
15790,-3.8655,0.8719,1.8950,1992.43,548.03,1800.54
15800,-3.8665,1.1239,1.8101,-382.57,-1435.85,-590.09
15810,-3.8676,1.3431,1.6418,-132.57,-310.36,-1402.77
15820,-3.8687,1.4510,1.4431,-70.07,-1841.19,1034.42
15830,-3.8698,1.3534,1.2472,1742.43,721.56,-934.69
15840,-3.8706,1.1542,1.0649,1242.43,-356.75,1580.51
15850,-3.8715,0.9382,0.9100,-257.57,314.70,-76.05
15860,-3.8721,0.7230,0.7902,101.81,486.21,892.40
15870,-3.8728,0.5598,0.6833,554.93,1142.03,-264.10
15880,-3.8734,0.4816,0.5748,-335.69,-530.21,-76.84
15890,-3.8739,0.4629,0.4841,1648.68,1579.04,1094.85
15900,-3.8745,0.4534,0.4216,-741.94,1969.60,-374.08
15910,-3.8750,0.4303,0.3705,-1960.69,1969.60,-327.33
15920,-3.8441,0.3892,0.3175,-913.82,-577.33,156.92
15930,-3.8446,0.3258,0.2659,1820.56,641.36,266.24
15940,-3.8451,0.2344,0.2250,1711.18,-1968.14,1047.36
15950,-3.8455,0.1289,0.2025,-1991.94,797.30,437.93
15960,-3.8458,0.0175,0.1957,508.06,1922.12,-827.76
15970,-3.8459,-0.1050,0.1947,-1757.57,1046.88,375.37
15980,-3.8462,-0.2438,0.1968,-1429.44,937.26,-1077.76
15990,-3.8463,-0.4028,0.1968,804.93,1202.64,-827.76
16000,-3.8463,-0.5734,0.1797,445.56,1202.33,-1952.76
16010,-3.8463,-0.7290,0.1251,-1382.57,-985.53,-796.57
16020,-3.8462,-0.8514,0.0389,-1304.44,29.79,-1859.13
16030,-3.8461,-0.9742,-0.0526,-976.32,998.29,-1749.94
16040,-3.8459,-1.0903,-0.1306,-695.07,1279.30,-1437.62
16050,-3.8458,-1.1586,-0.1642,445.56,-705.26,-234.68
16060,-3.8455,-1.2468,-0.1444,-288.82,-1002.32,984.01
16070,-3.8450,-1.3579,-0.0920,414.31,1528.81,499.69
16080,-3.8444,-1.4491,-0.0361,-1804.44,231.69,1218.57
16090,-3.8749,-1.5154,0.0221,-1476.32,-612.24,953.00
16100,-3.8740,-1.5576,0.0970,-1960.69,-1159.24,218.75
16110,-3.8730,-1.5940,0.1772,633.06,434.45,265.81
16120,-3.8721,-1.6465,0.2429,-23.19,-1300.05,-62.19
16130,-3.8708,-1.7130,0.2993,1258.06,-893.86,828.55
16140,-3.8698,-1.7677,0.3665,742.43,-1675.23,1313.05
16150,-3.8688,-1.7961,0.4327,1742.43,-1081.60,-171.20
16160,-3.8678,-1.7656,0.4769,-1898.19,-597.29,-1686.71
16170,-3.8669,-1.7063,0.5172,-1991.94,1059.02,1969.67
16180,-3.8661,-1.6768,0.5946,1601.81,-1784.61,-1061.52
16190,-3.8651,-1.6765,0.7062,1383.06,121.70,407.41
16200,-3.8645,-1.6384,0.7942,1414.31,-1597.05,-154.91
16210,-3.8641,-1.4857,0.8280,-1710.69,1668.64,-1123.47
16220,-3.8643,-1.2081,0.8562,1836.18,1997.07,-1170.29
16230,-3.8647,-0.8207,0.9592,1367.43,1606.99,-607.73
16240,-3.8652,-0.3414,1.1625,-1038.82,-1204.77,-1873.17
16250,-3.8655,0.1689,1.4116,304.93,811.83,2.26
16260,-3.8656,0.6195,1.6467,1633.06,687.81,-1528.50
16270,-3.8655,0.9502,1.8560,-695.07,-1217.59,1675.05
16280,-3.8654,1.1632,2.0314,1633.06,1564.33,237.98
16290,-3.8656,1.3647,2.1307,898.68,17.88,-1496.03
16300,-3.8662,1.5613,2.1104,-1304.44,737.00,-417.72
16310,-3.8671,1.6279,1.9623,-148.19,-1872.01,738.46
16320,-3.8683,1.5861,1.7153,383.06,-824.95,1597.53
16330,-3.8696,1.4451,1.4194,-976.32,-434.45,-1324.83
16340,-3.8708,1.1868,1.1265,976.81,1690.31,877.75
16350,-3.8719,0.9209,0.8776,-85.69,189.76,424.07
16360,-3.8729,0.7039,0.6943,1883.06,329.90,-232.67
16370,-3.8735,0.5333,0.5787,-1898.19,876.34,-1373.66
16380,-3.8739,0.4196,0.5239,273.68,-1920.84,891.72
16390,-3.8741,0.3591,0.5054,1711.18,-936.71,1375.98
16400,-3.8744,0.3405,0.4850,1976.81,688.17,-670.90
16410,-3.8746,0.3385,0.4420,-413.82,-1921.26,1500.92
16420,-3.8439,0.3267,0.3785,-663.82,578.74,-1702.27
16430,-3.8445,0.2880,0.2998,1820.56,453.74,-608.64
16440,-3.8451,0.2214,0.2235,867.43,-1624.45,-702.58
16450,-3.8456,0.1287,0.1743,351.81,609.80,1312.93
16460,-3.8459,0.0125,0.1580,476.81,-1687.26,375.31
16470,-3.8462,-0.1299,0.1605,1601.81,218.75,515.93
16480,-3.8464,-0.2927,0.1605,-616.94,562.19,-530.94
16490,-3.8466,-0.4556,0.1499,-1460.69,561.89,-30.94
16500,-3.8466,-0.6085,0.1371,1695.56,-797.79,-1124.76
16510,-3.8464,-0.7445,0.1233,-1882.57,1561.28,1750.24
16520,-3.8462,-0.8732,0.0927,711.18,-204.59,437.68
16530,-3.8459,-1.0184,0.0310,242.43,-126.71,375.12
16540,-3.8458,-1.1562,-0.0555,1648.68,-17.64,-593.75
16550,-3.8456,-1.2567,-0.1255,8.06,903.99,-875.12
16560,-3.8452,-1.3506,-0.1549,-851.32,-49.38,-1359.68
16570,-3.8447,-1.4235,-0.1375,-866.94,184.81,-328.43
16580,-3.8440,-1.4698,-0.0631,1804.93,-1580.93,-844.06
16590,-3.8743,-1.4814,0.0431,-132.57,-65.43,1249.82
16600,-3.8732,-1.4691,0.1520,-1616.94,1528.32,-343.69
16610,-3.8717,-1.4829,0.2592,-38.82,-534.18,-1546.63
16620,-3.8701,-1.5292,0.3403,-1804.44,1184.57,625.49
16630,-3.8687,-1.6033,0.3788,273.68,-424.87,78.74
16640,-3.8674,-1.7091,0.4146,-1210.69,496.83,1625.73
16650,-3.8663,-1.8273,0.4763,1242.43,1074.77,-1202.33
16660,-3.8652,-1.8604,0.5361,-1882.57,980.77,79.04
16670,-3.8646,-1.7439,0.5592,1883.06,636.96,-202.09
16680,-3.8643,-1.4834,0.5728,789.31,-409.67,1876.04
16690,-3.8644,-1.1250,0.6324,-1866.94,1325.20,-186.40
16700,-3.8646,-0.7175,0.7576,8.06,966.55,-264.40
16710,-3.8647,-0.3147,0.9470,164.31,982.97,-1498.54
16720,-3.8647,0.0499,1.2008,-273.19,1233.70,-576.29
16730,-3.8646,0.3958,1.4824,-1601.32,1703.19,-419.56
16740,-3.8645,0.7374,1.7142,-1335.69,1750.73,1393.49
16750,-3.8647,1.0388,1.8503,-1601.32,-576.72,-918.58
16760,-3.8652,1.2761,1.8770,976.81,845.76,1487.98
16770,-3.8662,1.4761,1.7905,-648.19,252.44,-183.84
16780,-3.8673,1.5955,1.6318,945.56,1190.37,-1684.02
16790,-3.8685,1.5769,1.4446,226.81,878.11,-543.70
16800,-3.8696,1.4600,1.2474,1851.81,909.30,-778.44
16810,-3.8706,1.2631,1.0560,-1116.94,-325.32,-716.37
16820,-3.8715,1.0151,0.8730,1679.93,-825.68,-1404.24
16830,-3.8722,0.8025,0.7051,1945.56,-248.05,767.27
16840,-3.8729,0.6400,0.5714,-1273.19,-1748.47,-1373.66
16850,-3.8735,0.5118,0.4717,1929.93,1141.85,-561.40
16860,-3.8740,0.4164,0.3955,1523.68,375.98,-1749.08
16870,-3.8745,0.3406,0.3401,1304.93,-1374.21,-1233.64
16880,-3.8749,0.2648,0.3003,-398.19,-468.14,656.86
16890,-3.8441,0.1687,0.2620,1898.68,-1562.01,-1155.70
16900,-3.8446,0.0620,0.2135,1601.81,1531.56,-93.26
16910,-3.8451,-0.0291,0.1635,-54.44,-671.81,-46.51
16920,-3.8455,-0.0966,0.1332,289.31,937.44,906.56
16930,-3.8458,-0.1768,0.1388,-351.32,1062.26,1015.87
16940,-3.8461,-0.3054,0.1671,1383.06,1780.88,859.62
16950,-3.8463,-0.4722,0.1765,914.31,1405.64,-1234.07
16960,-3.8464,-0.6471,0.1467,-429.44,-1391.60,1344.06
16970,-3.8466,-0.7964,0.0751,1179.93,-1204.41,656.49
16980,-3.8467,-0.9127,-0.0281,-1929.44,1623.41,1922.00
16990,-3.8467,-1.0365,-0.1317,-820.07,420.04,-1218.81
17000,-3.8464,-1.1726,-0.2076,-663.82,-845.83,77.82
17010,-3.8462,-1.2908,-0.2373,1914.31,1435.18,-1672.30
17020,-3.8457,-1.4016,-0.2178,-1210.69,1638.06,-1844.24
17030,-3.8450,-1.4749,-0.1550,601.81,137.88,249.57
17040,-3.8441,-1.5035,-0.0745,-773.19,168.95,265.32
17050,-3.8744,-1.4868,0.0049,-445.07,-1518.62,109.19
17060,-3.8734,-1.4230,0.0901,1695.56,637.70,-1093.75
17070,-3.8722,-1.3561,0.1854,1867.43,-455.93,828.25
17080,-3.8710,-1.3130,0.2765,-1570.07,-252.69,328.43
17090,-3.8699,-1.2911,0.3488,-54.44,-596.37,-1202.64
17100,-3.8687,-1.2864,0.4320,-1257.57,653.69,391.30
17110,-3.8674,-1.3098,0.5525,-648.19,-690.06,625.79
17120,-3.8662,-1.3169,0.6605,351.81,-1268.19,1672.91
17130,-3.8652,-1.2416,0.7238,-554.44,559.88,-295.59
17140,-3.8645,-1.0719,0.7875,1086.18,653.81,-170.47
17150,-3.8639,-0.8113,0.8796,-1195.07,810.36,1.53
17160,-3.8636,-0.4574,0.9762,164.31,607.79,532.96
17170,-3.8636,-0.0640,1.0659,1461.18,967.83,1236.27
17180,-3.8638,0.2933,1.1813,-179.44,452.94,1330.20
17190,-3.8640,0.5576,1.3274,1554.93,-796.33,-13.37
17200,-3.8643,0.7261,1.4663,-616.94,1907.29,-278.69
17210,-3.8646,0.8315,1.5790,945.56,-311.10,1909.06
17220,-3.8652,0.9722,1.6572,-1554.44,-1889.04,1096.80
17230,-3.8661,1.2017,1.6873,445.56,126.89,659.48
17240,-3.8672,1.4426,1.6610,1820.56,-28.93,-1653.02
17250,-3.8683,1.6312,1.5660,664.31,612.18,1784.48
17260,-3.8694,1.6877,1.4078,804.93,456.30,1456.18
17270,-3.8705,1.5367,1.2068,39.31,206.42,-1700.38
17280,-3.8715,1.2809,0.9932,711.18,-1528.26,689.82
17290,-3.8724,1.0330,0.8044,-38.82,-872.56,1705.02
17300,-3.8733,0.8147,0.6544,226.81,-1029.24,-1592.22
17310,-3.8740,0.6689,0.5455,289.31,-232.79,-326.90
17320,-3.8745,0.5703,0.4805,1633.06,1829.41,-1217.71
17330,-3.8749,0.4664,0.4440,1008.06,1501.10,-999.08
17340,-3.8439,0.3673,0.4027,-288.82,828.98,985.23
17350,-3.8442,0.2717,0.3394,-976.32,-452.45,1094.48
17360,-3.8447,0.1636,0.2695,-1210.69,-562.01,-1343.14
17370,-3.8451,0.0508,0.2135,945.56,-1499.69,422.36
17380,-3.8455,-0.0571,0.1792,-1491.94,-671.81,1062.87
17390,-3.8457,-0.1519,0.1675,695.56,-1047.00,719.06
17400,-3.8459,-0.2346,0.1744,570.56,1452.82,-1546.57
17410,-3.8461,-0.3287,0.1898,1976.81,-1656.74,-1937.19
17420,-3.8461,-0.4606,0.1987,1929.93,311.83,281.62
17430,-3.8461,-0.6395,0.1963,1054.93,1452.21,1844.12
17440,-3.8459,-0.8409,0.1776,-1851.32,1139.34,-796.51
17450,-3.8457,-1.0562,0.1233,367.43,-1251.65,-234.07
17460,-3.8453,-1.2549,0.0273,820.56,-205.20,1922.06
17470,-3.8450,-1.3546,-0.0806,-616.94,-486.88,1140.62
17480,-3.8446,-1.3729,-0.1724,-1382.57,1700.44,937.32
17490,-3.8442,-1.3458,-0.2284,273.68,1950.44,1046.51
17500,-3.8750,-1.3110,-0.2087,-257.57,-1221.44,1796.39
17510,-3.8743,-1.3442,-0.1082,195.56,1294.31,-0.43
17520,-3.8732,-1.4253,0.0338,-54.44,-1830.81,-562.74
17530,-3.8718,-1.5114,0.1884,1570.56,340.94,-1984.31
17540,-3.8704,-1.5719,0.3259,-1445.07,122.01,500.37
17550,-3.8690,-1.5684,0.4049,-1195.07,1731.26,1578.74
17560,-3.8679,-1.5089,0.4071,-741.94,-159.36,-483.64
17570,-3.8671,-1.4062,0.3539,-1132.57,122.01,-1749.21
17580,-3.8666,-1.2854,0.2933,8.06,1309.75,-343.08
17590,-3.8661,-1.1777,0.2762,-523.19,1559.94,-1140.08
17600,-3.8656,-1.0728,0.3165,1258.06,-627.32,-530.76
17610,-3.8651,-0.9365,0.3893,-1304.44,529.11,1828.74
17620,-3.8649,-0.7606,0.4977,133.06,1841.92,1844.48
17630,-3.8647,-0.5466,0.6801,-1351.32,-282.78,1719.67
17640,-3.8646,-0.2502,0.9277,-1960.69,-938.60,-1748.72
17650,-3.8645,0.1425,1.1672,-23.19,-1234.92,-326.35
17660,-3.8644,0.5446,1.3368,-1757.57,1406.49,1924.13
17670,-3.8645,0.8562,1.4332,1711.18,-889.59,1486.94
17680,-3.8649,1.0381,1.4786,1601.81,-545.23,424.62
17690,-3.8656,1.1528,1.5059,883.06,1267.64,-262.76
17700,-3.8663,1.2405,1.5221,-429.44,752.20,-1153.32
17710,-3.8672,1.2794,1.4866,-1210.69,-1169.49,-856.45
17720,-3.8682,1.2732,1.3665,-226.32,-1716.31,-606.51
17730,-3.8693,1.2350,1.1749,-1023.19,-1091.31,-1747.38
17740,-3.8705,1.1439,0.9580,-1913.82,-1606.99,1674.13
17750,-3.8717,0.9788,0.7535,-1570.07,-1372.80,1923.71
17760,-3.8728,0.8193,0.5892,1289.31,455.02,-295.41
17770,-3.8735,0.7032,0.4794,883.06,-576.54,1610.47
17780,-3.8741,0.6052,0.4200,-1976.32,1360.72,-1170.96
17790,-3.8745,0.5190,0.3944,1476.81,1766.78,1735.17
17800,-3.8749,0.4548,0.3790,-1554.44,-1514.65,-577.39
17810,-3.8439,0.4019,0.3662,-1773.19,516.48,1500.73
17820,-3.8442,0.3362,0.3567,-554.44,-1124.27,-561.83
17830,-3.8445,0.2623,0.3496,-960.69,1656.86,1078.80
17840,-3.8448,0.1840,0.3458,1586.18,750.49,-1530.58
17850,-3.8452,0.0891,0.3417,-445.07,265.93,-327.45
17860,-3.8455,-0.0371,0.3247,-585.69,-265.50,188.11
17870,-3.8458,-0.1996,0.2926,-741.94,1578.00,359.99
17880,-3.8462,-0.3967,0.2529,-1538.82,1468.32,-1811.95
17890,-3.8464,-0.6122,0.2028,1226.81,389.83,-1249.51
17900,-3.8466,-0.8186,0.1273,1648.68,1967.53,1500.37
17910,-3.8467,-0.9877,0.0426,-773.19,310.85,-999.76
17920,-3.8466,-1.1633,-0.0148,1586.18,1466.80,1468.81
17930,-3.8463,-1.3385,-0.0343,-898.19,-1877.32,-1093.81
17940,-3.8458,-1.4169,-0.0404,679.93,-377.62,-1062.62
17950,-3.8452,-1.4274,-0.0536,-1351.32,-1159.06,-1093.87
17960,-3.8445,-1.4218,-0.0679,1304.93,1153.44,921.75
17970,-3.8750,-1.4160,-0.0623,-1976.32,-674.68,-1640.81
17980,-3.8740,-1.4564,-0.0109,-1241.94,44.07,406.13
17990,-3.8730,-1.5190,0.0781,1586.18,-1377.87,1906.19
18000,-3.8719,-1.5852,0.1759,1570.56,-1987.37,-1499.88
18010,-3.8707,-1.6649,0.2769,1101.81,-1471.86,-780.94
18020,-3.8693,-1.7657,0.3809,-1101.32,-550.17,1172.36
18030,-3.8678,-1.8662,0.4508,1992.43,762.15,1250.73
18040,-3.8665,-1.8938,0.4562,1133.06,1715.09,282.10
18050,-3.8656,-1.8427,0.4231,1601.81,-1597.47,-14.77
18060,-3.8650,-1.7070,0.3953,148.68,-1831.73,1328.92
18070,-3.8649,-1.4557,0.3867,1508.06,-1393.98,1406.98
18080,-3.8650,-1.1096,0.4182,1679.93,1512.76,1110.11
18090,-3.8652,-0.7297,0.5372,1976.81,1544.68,-608.58
18100,-3.8652,-0.3647,0.7532,-1398.19,779.79,969.79
18110,-3.8651,-0.0176,1.0413,1320.56,421.14,79.59
18120,-3.8649,0.3186,1.3531,1758.06,1296.81,64.51
18130,-3.8646,0.6296,1.6312,789.31,1203.74,283.87
18140,-3.8646,0.9183,1.8439,601.81,798.10,-1231.20
18150,-3.8649,1.1797,1.9568,1554.93,17.40,-1387.02
18160,-3.8655,1.4542,1.9442,-991.94,-1528.99,1816.28
18170,-3.8665,1.6862,1.8248,-1851.32,862.18,-1230.59
18180,-3.8676,1.7256,1.6182,-163.82,1581.36,878.54
18190,-3.8689,1.6088,1.3558,883.06,-871.64,-512.51
18200,-3.8701,1.3973,1.0952,1929.93,1549.99,-1122.38
18210,-3.8712,1.1367,0.8625,-1132.57,190.19,1127.14
18220,-3.8723,0.9243,0.6621,1508.06,-1591.55,-1232.73
18230,-3.8732,0.7695,0.5112,-1679.44,751.77,1407.53
18240,-3.8739,0.6338,0.4194,-1491.94,1438.96,-1639.65
18250,-3.8744,0.5244,0.3728,1133.06,1688.72,1360.17
18260,-3.8748,0.4370,0.3417,-866.94,-280.27,219.42
18270,-3.8440,0.3490,0.3000,-54.44,-264.83,-921.26
18280,-3.8444,0.2576,0.2462,679.93,-1593.08,172.42
18290,-3.8448,0.1598,0.1984,976.81,-483.89,1219.18
18300,-3.8452,0.0529,0.1775,461.18,1390.93,500.37
18310,-3.8456,-0.0557,0.1880,-1226.32,-1281.19,-1202.82
18320,-3.8458,-0.1599,0.2098,883.06,78.00,-546.51
18330,-3.8459,-0.2651,0.2222,-460.69,-1125.37,1094.12
18340,-3.8462,-0.3843,0.2183,-1929.44,452.58,-1155.82
18350,-3.8463,-0.5364,0.1937,-1179.44,-47.67,-1859.01
18360,-3.8463,-0.7383,0.1533,-648.19,811.40,-1968.38
18370,-3.8461,-0.9685,0.1084,1508.06,-360.84,500.24
18380,-3.8457,-1.2108,0.0549,39.31,1888.73,125.18
18390,-3.8453,-1.4185,0.0024,1023.68,-955.51,1750.06
18400,-3.8448,-1.5254,-0.0281,-1554.44,325.32,1062.50
18410,-3.8444,-1.5642,-0.0217,758.06,418.88,-171.94
18420,-3.8749,-1.5453,0.0309,-210.69,1231.26,-1812.56
18430,-3.8740,-1.5048,0.1189,-1788.82,-34.30,1375.00
18440,-3.8730,-1.4692,0.2158,-601.32,-768.62,-343.57
18450,-3.8718,-1.4429,0.2983,-54.44,-362.30,-46.51
18460,-3.8705,-1.4425,0.3500,-679.44,-1799.74,719.30
18470,-3.8694,-1.4545,0.3654,-632.57,809.63,-1952.45
18480,-3.8683,-1.4602,0.3683,1836.18,-1221.62,313.17
18490,-3.8674,-1.4337,0.3838,1101.81,-846.62,-436.83
18500,-3.8666,-1.3668,0.4132,492.43,1137.82,1672.61
18510,-3.8660,-1.2367,0.4725,1054.93,903.56,1953.92
18520,-3.8655,-1.0319,0.5831,1711.18,497.56,-1030.33
18530,-3.8650,-0.7539,0.7355,-70.07,-1345.83,1938.60
18540,-3.8646,-0.4071,0.9362,-491.94,-1845.28,-1607.97
18550,-3.8643,0.0195,1.2003,-101.32,-157.10,1454.90
18560,-3.8640,0.5125,1.4729,-1491.94,1640.62,-1091.43
18570,-3.8639,0.9960,1.6686,1601.81,532.23,1518.49
18580,-3.8641,1.3632,1.7527,-507.57,1580.02,518.86
18590,-3.8649,1.6266,1.7426,-1507.57,346.37,-137.21
18600,-3.8657,1.8131,1.6583,211.18,-949.95,1565.86
18610,-3.8669,1.8586,1.5138,86.18,269.17,-231.14
18620,-3.8682,1.8195,1.3446,1914.31,1769.23,-418.95
18630,-3.8693,1.7222,1.1840,898.68,112.92,-669.25
18640,-3.8701,1.5166,1.0415,445.56,-449.77,783.51
18650,-3.8710,1.2965,0.9124,-1866.94,1315.43,1705.14
18660,-3.8717,1.1224,0.7954,1961.18,783.75,861.15
18670,-3.8724,0.9554,0.6912,-320.07,1814.64,-1654.72
18680,-3.8730,0.8176,0.6008,-1695.07,470.58,-1076.78
18690,-3.8735,0.7096,0.5276,664.31,907.84,-1155.09
18700,-3.8739,0.5986,0.4691,-1163.82,-467.41,688.48
18710,-3.8744,0.4884,0.4133,633.06,48.03,-1108.46
18720,-3.8748,0.3888,0.3684,-1476.32,907.17,860.17
18730,-3.8440,0.2949,0.3472,1773.68,-843.02,-1061.83
18740,-3.8444,0.2075,0.3314,1758.06,438.05,1110.05
18750,-3.8448,0.1259,0.3069,-1429.44,-1577.76,-921.26
18760,-3.8452,0.0282,0.2850,117.43,-718.51,1297.42
18770,-3.8456,-0.1075,0.2823,-382.57,484.38,641.17
18780,-3.8459,-0.2833,0.2976,-1757.57,156.01,-1718.20
18790,-3.8462,-0.4803,0.3097,-257.57,-1891.24,-593.20
18800,-3.8462,-0.6777,0.2952,-1476.32,-344.73,219.30
18810,-3.8462,-0.8524,0.2543,1258.06,1795.53,688.05
18820,-3.8461,-1.0254,0.2065,-1101.32,560.79,1328.61
18830,-3.8458,-1.2068,0.1543,758.06,-1548.89,1562.87
18840,-3.8456,-1.3204,0.0850,1539.31,-236.76,-1124.76
18850,-3.8452,-1.3466,0.0186,-1007.57,-1112.00,609.50
18860,-3.8450,-1.3491,-0.0183,-351.32,-1612.06,-140.62
18870,-3.8445,-1.3580,-0.0179,-679.44,1669.19,1312.44
18880,-3.8440,-1.4222,0.0183,-1820.07,1716.06,-1812.56
18890,-3.8746,-1.5284,0.0829,1961.18,-1643.43,-421.88
18900,-3.8738,-1.6288,0.1677,367.43,-1377.99,-1671.75
18910,-3.8728,-1.7059,0.2699,-476.32,1481.14,-640.32
18920,-3.8716,-1.7562,0.3813,1648.68,-1440.86,-1358.89
18930,-3.8702,-1.7742,0.4696,-788.82,824.65,500.73
18940,-3.8691,-1.7405,0.5129,914.31,121.52,-1045.96
18950,-3.8682,-1.6764,0.5302,1226.81,1668.46,1766.60
18960,-3.8674,-1.5989,0.5679,1429.93,-128.30,-999.02
18970,-3.8667,-1.5111,0.6444,-648.19,699.95,-123.90
18980,-3.8660,-1.3679,0.7417,-1413.82,-1502.99,-623.78
18990,-3.8655,-1.1200,0.8329,914.31,-1049.56,-732.97
19000,-3.8652,-0.7626,0.9163,648.68,-1377.20,548.46
19010,-3.8654,-0.3320,1.0396,-1601.32,1295.35,-795.10
19020,-3.8652,0.1125,1.2604,1508.06,1077.45,205.14
19030,-3.8650,0.5321,1.5479,-1585.69,1328.31,1502.44
19040,-3.8646,0.9095,1.7993,117.43,-1873.96,-637.63
19050,-3.8643,1.1992,1.9600,429.93,-1685.73,1831.60
19060,-3.8643,1.4359,2.0289,1508.06,-1122.68,-1277.47
19070,-3.8646,1.6528,2.0067,-195.07,-294.13,-1417.97
19080,-3.8654,1.7714,1.8878,-429.44,862.55,1441.41
19090,-3.8665,1.8021,1.6768,-1257.57,1644.04,-1746.34
19100,-3.8677,1.7412,1.4066,-1320.07,-1371.52,1800.11
19110,-3.8689,1.5455,1.1259,-1116.94,50.23,440.25
19120,-3.8701,1.3169,0.8756,1836.18,112.37,1408.45
19130,-3.8711,1.1259,0.6943,570.56,80.69,361.08
19140,-3.8719,0.9521,0.5935,117.43,877.20,-1420.53
19150,-3.8726,0.8341,0.5455,1883.06,-29.42,-1217.65
19160,-3.8730,0.7712,0.5209,-1226.32,1829.71,-623.96
19170,-3.8734,0.7168,0.5078,-1273.19,-1326.66,-1967.77
19180,-3.8738,0.6782,0.4963,-241.94,1001.34,1422.85
19190,-3.8741,0.6473,0.4807,-1179.44,-467.47,1532.17
19200,-3.8745,0.5837,0.4663,-1132.57,1532.47,-1874.08
19210,-3.8749,0.4978,0.4492,-1273.19,-311.40,-1530.40
19220,-3.8440,0.4033,0.4194,-273.19,1500.92,-1967.90
19230,-3.8445,0.2941,0.3756,-366.94,1688.23,-171.08
19240,-3.8450,0.1823,0.3282,1648.68,78.67,-61.77
19250,-3.8453,0.0640,0.2971,-663.82,-1984.07,563.11
19260,-3.8458,-0.0692,0.2915,195.56,-1968.63,-530.70
19270,-3.8461,-0.2122,0.3074,-851.32,1327.94,1563.05
19280,-3.8463,-0.3660,0.3367,851.81,-641.05,-874.45
19290,-3.8464,-0.5334,0.3613,1164.31,-891.36,-452.51
19300,-3.8464,-0.7079,0.3658,-273.19,-1735.47,-1546.20
19310,-3.8464,-0.8577,0.3387,1398.68,-1157.65,-233.70
19320,-3.8463,-0.9817,0.2736,-1773.19,-626.71,-296.26
19330,-3.8461,-1.0930,0.1964,-1648.19,-970.70,-1374.51
19340,-3.8457,-1.1766,0.1411,101.81,1154.11,594.12
19350,-3.8453,-1.2336,0.1272,1398.68,-1924.19,-1827.88
19360,-3.8447,-1.3030,0.1479,-1898.19,294.43,187.74
19370,-3.8441,-1.3839,0.1873,1226.81,-1049.44,-312.26
19380,-3.8744,-1.4861,0.2356,-1132.57,-18.37,1594.06
19390,-3.8734,-1.6155,0.2872,1789.31,-1831.05,-46.45
19400,-3.8723,-1.7247,0.3322,1226.81,778.08,-93.20
19410,-3.8712,-1.7887,0.3489,-757.57,-1472.17,-1124.39
19420,-3.8702,-1.8099,0.3287,-945.07,668.33,860.05
19430,-3.8696,-1.7904,0.2891,336.18,-1909.79,-1436.89
19440,-3.8693,-1.7450,0.2549,-1163.82,1012.08,-452.58
19450,-3.8690,-1.6998,0.2476,648.68,637.21,-1218.26
19460,-3.8688,-1.6592,0.2892,-1570.07,-300.23,1328.55
19470,-3.8685,-1.6072,0.3757,-366.94,1027.95,-1733.83
19480,-3.8682,-1.4899,0.4828,-1710.69,106.20,766.36
19490,-3.8679,-1.2778,0.6036,1304.93,1809.57,-1327.21
19500,-3.8677,-0.9722,0.7505,445.56,1278.75,-233.22
19510,-3.8673,-0.6091,0.9302,-429.44,76.17,-576.66
19520,-3.8667,-0.2365,1.1567,-1960.69,-923.10,1173.65
19530,-3.8660,0.1293,1.4193,1742.43,77.64,721.01
19540,-3.8652,0.4667,1.6593,554.93,1672.12,1690.25
19550,-3.8646,0.7437,1.8396,-257.57,391.48,1800.11
19560,-3.8643,0.9531,1.9695,-804.44,-529.85,1378.54
19570,-3.8641,1.1281,2.0504,-1991.94,95.58,1097.60
19580,-3.8643,1.3353,2.0519,398.68,-1544.68,1519.59
19590,-3.8646,1.5271,1.9513,-1070.07,-1356.81,988.34
19600,-3.8654,1.5737,1.7511,-523.19,1768.55,503.78
19610,-3.8665,1.4957,1.4906,1445.56,143.68,1425.29
19620,-3.8677,1.3489,1.2341,-538.82,-1200.26,-794.01
19630,-3.8688,1.1611,1.0228,664.31,1971.37,-169.49
19640,-3.8696,1.0128,0.8789,633.06,-1075.87,1939.45
19650,-3.8704,0.9191,0.7996,1648.68,501.95,1532.96
19660,-3.8711,0.8442,0.7460,1648.68,-1654.48,-639.10
19670,-3.8717,0.8042,0.6942,70.56,-513.98,1235.78
19680,-3.8724,0.7854,0.6542,-1054.44,860.90,-670.53
19690,-3.8730,0.7520,0.6295,539.31,-264.10,-1233.15
19700,-3.8735,0.7250,0.6133,258.06,579.59,1438.72
19710,-3.8740,0.6965,0.6023,804.93,-1498.60,-280.09
19720,-3.8744,0.6476,0.5847,1164.31,1095.09,-623.84
19730,-3.8748,0.5825,0.5491,-1101.32,-1155.03,-1561.40
19740,-3.8439,0.4886,0.5055,-1429.44,-1717.65,376.04
19750,-3.8444,0.3810,0.4657,-1445.07,704.04,1344.73
19760,-3.8448,0.2679,0.4292,773.68,-389.89,-1733.52
19770,-3.8453,0.1437,0.3883,-1695.07,-1062.01,-577.33
19780,-3.8457,0.0122,0.3391,-1601.32,1703.37,797.61
19790,-3.8462,-0.1246,0.2906,1570.56,-593.75,-718.14
19800,-3.8464,-0.2607,0.2576,54.93,1218.51,453.67
19810,-3.8467,-0.3888,0.2390,-1366.94,983.83,1812.99
19820,-3.8468,-0.4999,0.2163,-1757.57,-1391.42,-327.70
19830,-3.8467,-0.5941,0.1864,23.68,-297.85,1765.99
19840,-3.8464,-0.6805,0.1781,-38.82,-126.22,1156.56
19850,-3.8461,-0.8036,0.1997,898.68,-1188.84,-1827.82
19860,-3.8456,-0.9547,0.2238,1148.68,1576.54,-390.26
19870,-3.8448,-1.0757,0.2372,1804.93,654.36,1000.43
19880,-3.8441,-1.1803,0.2303,-1679.44,-1627.14,1187.93
19890,-3.8746,-1.2712,0.1958,929.93,1497.68,-1546.45
19900,-3.8738,-1.3378,0.1638,1289.31,1075.62,812.87
19910,-3.8729,-1.4451,0.1787,773.68,981.75,1281.56
19920,-3.8721,-1.6080,0.2303,-960.69,-1112.24,-155.94
19930,-3.8710,-1.7950,0.2815,-1820.07,1496.83,1234.80
19940,-3.8700,-1.9746,0.3127,-1757.57,43.33,-671.33
19950,-3.8691,-2.0763,0.3027,-741.94,42.97,-921.26
19960,-3.8687,-2.0762,0.2627,-1757.57,-1238.46,-655.70
19970,-3.8684,-1.9882,0.2332,-1741.94,1636.54,375.49
19980,-3.8685,-1.8535,0.2383,1523.68,1855.47,-968.32
19990,-3.8685,-1.7102,0.2986,-1241.94,-1488.04,1891.05
20000,-3.8684,-1.5690,0.4116,1101.81,-1768.98,1344.30
20010,-3.8682,-1.4133,0.5391,-820.07,700.01,625.79
20020,-3.8679,-1.2203,0.6587,-898.19,1012.82,1641.66
20030,-3.8676,-0.9987,0.7919,-195.07,325.68,1595.03
20040,-3.8671,-0.7653,0.9717,179.93,1373.05,-967.22
20050,-3.8663,-0.5129,1.2080,-1945.07,389.10,1548.77
20060,-3.8656,-0.2084,1.4878,-1648.19,-1360.41,1314.82
20070,-3.8650,0.1752,1.7574,1336.18,-1547.30,1034.12
20080,-3.8646,0.6147,1.9364,-1570.07,953.43,628.42
20090,-3.8646,1.0295,1.9950,-1304.44,-139.47,-715.03
20100,-3.8647,1.2939,1.9794,-210.69,-638.67,1863.22
20110,-3.8651,1.4181,1.9653,1633.06,1361.88,1253.85
20120,-3.8657,1.4731,1.9601,1523.68,-434.75,1910.03
20130,-3.8666,1.4651,1.9037,570.56,-1106.51,-1277.47
20140,-3.8677,1.4299,1.7544,-460.69,-325.32,-761.96
20150,-3.8689,1.4246,1.5258,-960.69,565.25,1503.42
20160,-3.8702,1.4219,1.2761,-1648.19,-700.38,1799.80
20170,-3.8715,1.3484,1.0536,-1991.94,-653.50,1158.69
20180,-3.8726,1.2550,0.8757,601.81,-1138.00,-1122.99
20190,-3.8733,1.1652,0.7510,648.68,96.19,720.46
20200,-3.8739,1.0514,0.6720,1148.68,127.26,1188.96
20210,-3.8744,0.9573,0.6074,-1413.82,-1982.36,1532.53
20220,-3.8749,0.8822,0.5391,-1460.69,1751.83,-139.47
20230,-3.8440,0.7753,0.4717,929.93,1001.71,-1248.96
20240,-3.8444,0.6631,0.4060,-757.57,376.46,1844.67
20250,-3.8447,0.5762,0.3492,883.06,-29.97,1938.23
20260,-3.8451,0.5094,0.3123,1758.06,704.22,-764.95
20270,-3.8453,0.4642,0.2819,1211.18,-30.27,625.55
20280,-3.8457,0.4241,0.2479,-570.07,78.98,1250.55
20290,-3.8461,0.3516,0.2167,-1710.69,-264.83,-1702.70
20300,-3.8463,0.2410,0.1912,1008.06,-264.95,1219.12
20310,-3.8466,0.1145,0.1720,-1148.19,469.18,1812.87
20320,-3.8468,-0.0155,0.1561,-1335.69,-1984.19,-452.82
20330,-3.8469,-0.1373,0.1368,-1976.32,-0.06,-1499.76
20340,-3.8470,-0.2578,0.1233,-1570.07,1530.94,-156.01
20350,-3.8469,-0.3962,0.1324,-991.94,-203.67,1703.31
20360,-3.8467,-0.5593,0.1718,1289.31,967.96,984.62
20370,-3.8463,-0.7404,0.2327,414.31,1998.90,1094.06
20380,-3.8458,-0.8958,0.2915,1242.43,1795.41,1906.68
20390,-3.8451,-1.0464,0.3358,1351.81,1326.35,109.92
20400,-3.8444,-1.2001,0.3589,-1929.44,-1002.08,-936.89
20410,-3.8746,-1.2963,0.3593,-1601.32,1950.74,1110.05
20420,-3.8737,-1.3887,0.3572,-1913.82,1997.44,688.17
20430,-3.8728,-1.5099,0.3530,-1741.94,1731.63,-93.08
20440,-3.8718,-1.6136,0.3250,-1257.57,1200.13,-1796.20
20450,-3.8710,-1.7058,0.2843,1461.18,1606.20,-1343.14
20460,-3.8701,-1.7924,0.2612,1664.31,402.89,813.05
20470,-3.8694,-1.8868,0.2642,-1413.82,1449.58,-1093.26
20480,-3.8685,-1.9988,0.2772,-1507.57,1824.40,578.61
20490,-3.8679,-2.0919,0.2899,164.31,-503.91,-577.64
20500,-3.8673,-2.1473,0.3088,242.43,1120.91,-1890.08
20510,-3.8669,-2.1383,0.3409,1148.68,-457.34,-30.70
20520,-3.8666,-2.0499,0.3813,-1695.07,-347.96,1234.99
20530,-3.8665,-1.8875,0.4203,1617.43,824.10,1969.48
20540,-3.8665,-1.6593,0.4703,-1585.69,1808.78,-1717.96
20550,-3.8666,-1.3877,0.5472,-382.57,215.45,-1452.21
20560,-3.8667,-1.0669,0.6735,-1616.94,-1940.25,1485.41
20570,-3.8667,-0.6818,0.8989,-554.44,-1783.39,501.28
20580,-3.8665,-0.2374,1.2570,742.43,-923.22,392.33
20590,-3.8660,0.2437,1.6785,1617.43,905.76,-1778.81
20600,-3.8652,0.7042,2.0482,-804.44,-1155.82,1315.73
20610,-3.8647,1.1060,2.3041,-1851.32,-1826.78,-652.28
20620,-3.8646,1.4360,2.4344,1570.56,-1075.99,-1401.79
20630,-3.8650,1.7688,2.4673,-179.44,-387.88,676.57
20640,-3.8658,2.0833,2.3967,-1585.69,-184.08,1707.89
20650,-3.8669,2.2136,2.1835,-1335.69,-1214.72,1879.64
20660,-3.8683,2.1792,1.8390,-648.19,-511.35,-1948.91
20670,-3.8698,1.9945,1.4374,-1054.44,-605.16,-1887.08
20680,-3.8711,1.6929,1.0637,-695.07,-11.78,565.25
20690,-3.8723,1.3738,0.7759,695.56,159.55,-1263.55
20700,-3.8732,1.0558,0.6005,-148.19,-684.88,-498.54
20710,-3.8737,0.8123,0.5215,-851.32,861.39,1360.53
20720,-3.8740,0.6943,0.5004,-23.19,-1248.47,1563.48
20730,-3.8743,0.6672,0.5073,883.06,48.22,1454.10
20740,-3.8745,0.6813,0.5122,1414.31,938.78,-1702.15
20750,-3.8748,0.7020,0.4891,-788.82,1563.78,1938.48
20760,-3.8439,0.6931,0.4272,1867.43,-1389.28,-1920.96
20770,-3.8444,0.6401,0.3330,726.81,-1311.16,1641.42
20780,-3.8450,0.5718,0.2382,1945.56,-1373.78,-1061.89
20790,-3.8455,0.4807,0.1780,1195.56,-1514.53,1797.30
20800,-3.8459,0.3542,0.1555,1539.31,-1217.83,-218.44
20810,-3.8462,0.2059,0.1497,1351.81,-93.08,906.49
20820,-3.8464,0.0378,0.1484,-1632.57,-843.38,1140.87
20830,-3.8467,-0.1407,0.1497,851.81,-999.94,-499.76
20840,-3.8468,-0.3142,0.1511,1992.43,-828.43,-515.38
20850,-3.8468,-0.4725,0.1482,-210.69,-641.30,1906.49
20860,-3.8468,-0.6122,0.1396,-476.32,-1016.60,-140.38
20870,-3.8466,-0.7346,0.1382,1648.68,1889.40,1922.12
20880,-3.8462,-0.8542,0.1515,1976.81,1701.66,187.74
20890,-3.8458,-0.9805,0.1576,-1335.69,-595.46,-1812.26
20900,-3.8453,-1.0852,0.1317,-1491.94,185.55,-1218.44
20910,-3.8447,-1.1500,0.0928,1101.81,872.86,1078.37
20920,-3.8441,-1.2240,0.0846,804.93,-111.63,1968.87
20930,-3.8745,-1.3267,0.1257,-663.82,-1158.69,172.00
20940,-3.8735,-1.4423,0.2037,-1804.44,106.75,1765.87
20950,-3.8723,-1.5870,0.2920,-601.32,-1909.12,1969.12
20960,-3.8710,-1.7493,0.3733,867.43,1387.51,-1577.58
20970,-3.8696,-1.8992,0.4310,101.81,-206.54,-843.08
20980,-3.8684,-2.0029,0.4360,914.31,-816.22,1469.54
20990,-3.8676,-2.0282,0.3877,-366.94,-175.84,1766.42
21000,-3.8669,-2.0037,0.3301,398.68,1636.66,1813.23
21010,-3.8665,-1.9575,0.3041,-460.69,-1738.34,63.11
21020,-3.8662,-1.8704,0.3192,1445.56,-1066.35,-1624.45
21030,-3.8660,-1.7153,0.3608,601.81,871.34,0.61
21040,-3.8661,-1.4888,0.4482,445.56,-1800.23,-202.45
21050,-3.8661,-1.2313,0.6392,1445.56,1387.70,1485.23
21060,-3.8661,-0.9432,0.9576,-1601.32,1825.68,-467.53
21070,-3.8658,-0.5569,1.3827,-726.32,-1408.14,-341.92
21080,-3.8655,-0.0116,1.8645,726.81,998.90,737.06
21090,-3.8654,0.6752,2.3236,-1476.32,-1328.19,159.85
21100,-3.8656,1.4023,2.6639,-1570.07,1423.16,-292.36
21110,-3.8660,2.0238,2.7947,-491.94,987.06,-916.69
21120,-3.8667,2.4581,2.6873,-945.07,1722.66,-791.44
21130,-3.8678,2.6112,2.4027,-1351.32,-26.49,-197.94
21140,-3.8690,2.4270,2.0219,-1757.57,-448.06,520.26
21150,-3.8705,2.0564,1.6100,-1335.69,-1198.43,-199.22
21160,-3.8716,1.6437,1.2362,-773.19,-1917.91,706.24
21170,-3.8726,1.2747,0.9542,-1601.32,-1762.45,-1778.87
21180,-3.8732,0.9987,0.7634,-835.69,-1856.93,189.33
21190,-3.8737,0.8090,0.6428,-163.82,1720.64,1501.46
21200,-3.8739,0.6863,0.5835,-445.07,-1717.22,1626.22
21210,-3.8740,0.5916,0.5686,-148.19,-1311.22,-1436.40
21220,-3.8740,0.5271,0.5658,-273.19,782.35,501.10
21230,-3.8741,0.5023,0.5466,-523.19,422.85,626.10
21240,-3.8744,0.5035,0.5043,304.93,1969.73,1157.29
21250,-3.8748,0.5159,0.4446,461.18,547.85,1188.48
21260,-3.8440,0.5057,0.3748,-1960.69,907.23,1782.10
21270,-3.8445,0.4484,0.2976,742.43,-30.27,797.55
21280,-3.8450,0.3368,0.2296,1398.68,-1905.40,313.05
21290,-3.8455,0.1844,0.1849,-882.57,1391.24,1234.80
21300,-3.8459,0.0088,0.1454,-382.57,-327.82,-187.19
21310,-3.8462,-0.1793,0.1036,1133.06,-1390.62,781.49
21320,-3.8464,-0.3647,0.0758,1054.93,1280.88,1078.31
21330,-3.8466,-0.5260,0.0664,1320.56,1718.02,-1890.50
21340,-3.8464,-0.6504,0.0759,679.93,514.59,172.00
21350,-3.8463,-0.7341,0.1080,758.06,1733.09,-999.88
21360,-3.8459,-0.8228,0.1455,-1960.69,1842.29,-968.57
21370,-3.8453,-0.9371,0.1665,-1304.44,-1361.02,968.99
21380,-3.8446,-1.0505,0.1593,54.93,1326.29,265.93
21390,-3.8439,-1.1724,0.1187,1539.31,404.17,1203.43
21400,-3.8744,-1.2936,0.0682,1945.56,-799.19,625.18
21410,-3.8737,-1.4309,0.0568,-1570.07,747.44,1437.62
21420,-3.8727,-1.6251,0.1128,851.81,-721.56,1125.06
21430,-3.8715,-1.8512,0.2164,-7.57,-1550.11,1734.56
21440,-3.8701,-2.0592,0.3008,-945.07,-284.91,-468.38
21450,-3.8688,-2.1990,0.3225,429.93,-1488.40,-1358.83
21460,-3.8677,-2.2388,0.3008,-1460.69,1292.54,766.24
21470,-3.8669,-2.2053,0.2639,1445.56,-1488.77,438.05
21480,-3.8666,-2.1221,0.2484,1726.81,1792.54,-1171.39
21490,-3.8663,-1.9716,0.2832,383.06,-191.65,-1812.07
21500,-3.8662,-1.7372,0.3734,-351.32,261.72,1453.67
21510,-3.8662,-1.4291,0.5275,1648.68,-190.92,-968.08
21520,-3.8661,-1.0741,0.7726,1086.18,-471.56,1766.60
21530,-3.8658,-0.6793,1.1274,-1476.32,-1095.89,267.09
21540,-3.8656,-0.2158,1.5627,1054.93,326.78,-1622.80
21550,-3.8652,0.3295,1.9998,383.06,46.45,565.55
21560,-3.8651,0.9178,2.3475,-1820.07,-30.64,-1168.03
21570,-3.8651,1.4546,2.5227,1492.43,486.15,-1839.17
21580,-3.8655,1.8885,2.4928,-1804.44,-1090.94,-776.37
21590,-3.8662,2.1725,2.3110,1742.43,-918.21,-198.30
21600,-3.8672,2.2085,2.0417,-1913.82,-183.29,-745.54
21610,-3.8683,2.0273,1.7225,-1304.44,1348.02,-1261.66
21620,-3.8694,1.7053,1.4042,-491.94,488.28,-1231.02
21630,-3.8704,1.3678,1.1254,-1710.69,-262.33,1346.44
21640,-3.8713,1.1110,0.8972,-913.82,49.50,-388.43
21650,-3.8721,0.9222,0.7291,-1788.82,-1154.11,-873.29
21660,-3.8727,0.8036,0.6244,-1945.07,1329.90,-61.10
21670,-3.8730,0.7213,0.5757,-1132.57,-76.60,-1576.97
21680,-3.8733,0.6667,0.5540,336.18,1688.90,204.22
21690,-3.8737,0.6428,0.5326,1351.81,-1092.47,1454.16
21700,-3.8740,0.6179,0.5116,-1710.69,173.10,813.54
21710,-3.8745,0.5962,0.4954,-898.19,1485.53,-420.90
21720,-3.8749,0.5710,0.4813,320.56,-592.59,-858.46
21730,-3.8440,0.5098,0.4661,1101.81,1610.47,-1092.83
21740,-3.8444,0.4141,0.4445,1258.06,-342.77,1516.48
21750,-3.8448,0.2900,0.4114,1008.06,891.42,-1499.15
21760,-3.8453,0.1534,0.3632,1133.06,656.80,-1764.83
21770,-3.8458,0.0183,0.3060,-351.32,-1515.38,1953.80
21780,-3.8463,-0.1215,0.2534,-1648.19,-828.12,-1296.33
21790,-3.8467,-0.2715,0.2074,461.18,452.88,500.49
21800,-3.8470,-0.4386,0.1708,1258.06,-1438.05,906.62
21810,-3.8473,-0.6226,0.1462,-132.57,1874.08,-1140.32
21820,-3.8472,-0.8014,0.1246,320.56,-1266.85,109.62
21830,-3.8469,-0.9640,0.1063,1429.93,-32.84,187.68
21840,-3.8466,-1.1124,0.1094,617.43,1623.11,1484.56
21850,-3.8461,-1.2278,0.1421,1617.43,-1986.57,-452.94
21860,-3.8453,-1.3209,0.1759,-1148.19,-1799.32,-1452.88
21870,-3.8445,-1.4106,0.1849,-1070.07,-1471.37,781.56
21880,-3.8749,-1.5055,0.1814,-554.44,-315.31,594.06
21890,-3.8740,-1.6212,0.1882,-695.07,-768.62,1922.18
21900,-3.8730,-1.7477,0.2179,492.43,106.20,1672.24
21910,-3.8721,-1.8817,0.2678,304.93,-97.17,-155.88
21920,-3.8710,-2.0203,0.3220,-851.32,-1706.85,-1890.14
21930,-3.8700,-2.1202,0.3672,1414.31,1230.41,1875.61
21940,-3.8691,-2.1570,0.4041,617.43,-988.53,1485.05
21950,-3.8685,-2.1401,0.4435,-85.69,-269.90,-280.52
21960,-3.8680,-2.0497,0.4934,-1929.44,777.04,-514.77
21970,-3.8677,-1.8661,0.5533,1648.68,-832.15,1032.17
21980,-3.8676,-1.6042,0.6206,1148.68,-1159.91,-1780.21
21990,-3.8674,-1.2908,0.7024,-1335.69,-550.05,844.91
22000,-3.8674,-0.9574,0.8306,-1210.69,1919.31,-1717.41
22010,-3.8673,-0.6306,1.0446,1461.18,-1673.77,-1732.79
22020,-3.8669,-0.3071,1.3344,-710.69,1717.47,-982.36
22030,-3.8662,0.0380,1.6434,695.56,-1188.11,-919.31
22040,-3.8652,0.4152,1.9020,867.43,-1640.56,284.42
22050,-3.8646,0.8086,2.0247,1148.68,-546.08,-808.84
22060,-3.8644,1.1460,1.9618,-491.94,-842.22,-683.59
22070,-3.8645,1.4010,1.7671,-1304.44,-888.43,456.91
22080,-3.8650,1.5370,1.5399,-663.82,-1809.81,987.79
22090,-3.8656,1.4796,1.3429,742.43,1112.37,-450.13
22100,-3.8661,1.3523,1.1853,1398.68,-106.51,-513.06
22110,-3.8665,1.2740,1.0623,1101.81,-278.63,-872.74
22120,-3.8667,1.2290,0.9824,-913.82,-28.81,-1982.36
22130,-3.8669,1.2241,0.9424,1320.56,1752.38,1580.02
22140,-3.8672,1.2363,0.9156,695.56,627.38,1142.46
22150,-3.8676,1.2635,0.8792,-1741.94,1205.51,-216.98
22160,-3.8679,1.2794,0.8170,1742.43,533.69,-873.29
22170,-3.8684,1.2722,0.7175,-226.32,580.57,220.34
22180,-3.8693,1.2513,0.6038,-1148.19,-153.81,-201.78
22190,-3.8700,1.2076,0.5139,179.93,1283.69,1876.16
22200,-3.8707,1.1550,0.4550,-1413.82,1783.57,1954.10
22210,-3.8713,1.1151,0.4200,-148.19,-1763.43,828.98
22220,-3.8719,1.1066,0.4071,-1257.57,1767.76,-1686.71
22230,-3.8724,1.1268,0.4205,1648.68,111.51,-999.21
22240,-3.8728,1.1594,0.4644,242.43,1830.32,-1499.21
22250,-3.8732,1.1617,0.5231,414.31,-560.24,-202.27
22260,-3.8734,1.1084,0.5760,711.18,-1044.62,-1420.90
22270,-3.8737,0.9816,0.6024,1883.06,1736.51,-1436.40
22280,-3.8739,0.8036,0.6003,1648.68,1111.27,-920.72
22290,-3.8741,0.6084,0.5791,-1132.57,845.28,-686.34
22300,-3.8744,0.4292,0.5366,1883.06,-1873.84,-1514.53
22310,-3.8746,0.2789,0.4744,-1054.44,688.29,751.04
22320,-3.8750,0.1534,0.4030,-288.82,719.24,-1920.96
22330,-3.8441,0.0577,0.3379,-351.32,-421.63,-1389.89
22340,-3.8445,-0.0172,0.2859,-601.32,-749.94,-265.01
22350,-3.8447,-0.0786,0.2396,1804.93,609.31,-1140.08
22360,-3.8448,-0.1299,0.1893,1945.56,-1312.68,187.93
22370,-3.8451,-0.1752,0.1318,-616.94,249.69,-890.26
22380,-3.8452,-0.2180,0.0771,1586.18,890.26,-577.88
22390,-3.8452,-0.2646,0.0581,101.81,1890.20,1750.12
22400,-3.8451,-0.3193,0.0955,-1866.94,-547.42,265.69
22410,-3.8450,-0.3713,0.1569,-866.94,233.70,-265.44
22420,-3.8446,-0.3969,0.1931,476.81,93.02,1281.56
22430,-3.8444,-0.4042,0.1853,1211.18,733.58,797.24
22440,-3.8442,-0.4110,0.1536,273.68,-266.42,812.81
22450,-3.8442,-0.4224,0.1326,-601.32,-328.98,-359.13
22460,-3.8441,-0.4398,0.1367,1945.56,983.52,-312.26
22470,-3.8439,-0.4639,0.1564,-288.82,1514.71,1828.37
22480,-3.8749,-0.4906,0.1836,633.06,30.33,1922.18
22490,-3.8746,-0.5095,0.2157,1211.18,-485.35,-968.44
22500,-3.8743,-0.5492,0.2673,-1210.69,-376.04,1312.87
22510,-3.8739,-0.6333,0.3472,1711.18,-1766.72,1719.24
22520,-3.8735,-0.7485,0.4176,-1054.44,451.84,-530.58
22530,-3.8732,-0.8634,0.4333,195.56,1467.29,-702.33
22540,-3.8729,-0.9462,0.3907,1492.43,-517.33,1907.04
22550,-3.8729,-0.9937,0.3240,-1101.32,-1970.64,-968.02
22560,-3.8729,-1.0105,0.2644,820.56,1482.42,1781.86
22570,-3.8729,-1.0043,0.2314,-1335.69,1857.36,-655.76
22580,-3.8727,-0.9855,0.2267,-538.82,1638.61,-1405.82
22590,-3.8723,-0.9642,0.2336,1867.43,1029.30,1578.55
22600,-3.8719,-0.9541,0.2496,586.18,1919.98,1203.55
22610,-3.8716,-0.9690,0.2861,1883.06,-33.14,1734.80
22620,-3.8711,-1.0068,0.3345,-23.19,638.67,906.80
22630,-3.8706,-1.0476,0.3486,-866.94,-1173.89,1484.99
22640,-3.8701,-1.0817,0.2964,1914.31,638.55,110.05
22650,-3.8699,-1.0970,0.1920,1554.93,1950.99,-1249.45
22660,-3.8695,-1.0990,0.0839,-413.82,591.55,15.99
22670,-3.8693,-1.1245,0.0399,-663.82,-1252.20,-312.38
22680,-3.8689,-1.1976,0.0835,70.56,1122.80,-546.81
22690,-3.8687,-1.3203,0.1918,-1288.82,-1299.26,-265.50
22700,-3.8683,-1.4772,0.3699,-991.94,559.88,844.12
22710,-3.8677,-1.6127,0.6267,-1070.07,-643.55,469.42
22720,-3.8667,-1.6456,0.9137,1586.18,231.20,-1264.40
22730,-3.8654,-1.5117,1.1906,1367.43,965.52,1470.52
22740,-3.8641,-1.2053,1.4418,-1491.94,403.26,1596.07
22750,-3.8633,-0.7920,1.6090,1726.81,560.12,721.56
22760,-3.8632,-0.3507,1.6252,-1366.94,1967.16,-184.39
22770,-3.8635,0.0635,1.4872,-882.57,46.14,550.05
22780,-3.8646,0.4154,1.2548,133.06,-1640.50,-903.38
22790,-3.8658,0.6763,1.0137,1179.93,610.17,-575.68
22800,-3.8667,0.8134,0.8562,-1429.44,1751.28,95.70
22810,-3.8672,0.8745,0.8363,117.43,1595.34,282.90
22820,-3.8673,0.9178,0.9376,-54.44,-951.48,-967.16
22830,-3.8669,0.9426,1.1018,1492.43,17.40,564.33
22840,-3.8665,0.9523,1.2623,664.31,1033.08,267.76
22850,-3.8661,0.9570,1.3618,1898.68,1579.96,-1013.18
22860,-3.8658,0.9623,1.3833,-1491.94,-1685.67,-1778.63
22870,-3.8660,0.9559,1.3577,-820.07,1064.33,-606.69
22880,-3.8663,0.9497,1.3124,-1632.57,1783.08,674.50
22890,-3.8672,1.0062,1.2449,1570.56,-13.79,1096.25
22900,-3.8684,1.1305,1.1385,804.93,-654.30,-403.87
22910,-3.8696,1.2576,1.0067,711.18,1736.57,-1810.30
22920,-3.8708,1.3721,0.8942,976.81,861.82,-404.30
22930,-3.8717,1.4167,0.8276,-366.94,-1544.25,1470.46
22940,-3.8723,1.3656,0.8199,1351.81,1940.25,1579.71
22950,-3.8727,1.2438,0.8578,-1195.07,955.75,1345.34
22960,-3.8729,1.0898,0.8979,-788.82,1799.26,267.27
22970,-3.8732,0.9717,0.9316,-491.94,-1060.42,173.58
22980,-3.8734,0.8920,0.9604,383.06,-748.11,1783.02
22990,-3.8737,0.8392,0.9470,-1820.07,-1060.79,-76.29
23000,-3.8739,0.7758,0.8713,-570.07,1220.34,-466.92
23010,-3.8743,0.6805,0.7550,-695.07,-467.29,-1279.60
23020,-3.8748,0.5653,0.6233,-882.57,641.91,-1482.91
23030,-3.8440,0.4474,0.4894,367.43,-217.65,1485.53
23040,-3.8445,0.3458,0.3577,1273.68,-1358.52,1813.42
23050,-3.8448,0.2396,0.2344,273.68,1781.92,438.17
23060,-3.8452,0.1095,0.1183,-1320.07,-1999.57,344.18
