timestamp_ms,ax,ay,az,gx,gy,gz
0,-3.8729,-0.1655,-0.0277,1914.31,15.26,1328.06
10,-3.8729,-0.1327,-0.0300,-1179.44,468.38,1578.06
20,-3.8729,-0.0773,-0.0382,-976.32,171.57,359.31
30,-3.8730,-0.0139,-0.0414,-1882.57,-875.18,-1765.75
40,-3.8730,0.0448,-0.0322,-1773.19,-1281.31,156.13
50,-3.8732,0.0946,-0.0175,1742.43,-124.94,-1640.75
60,-3.8732,0.1355,-0.0098,117.43,1765.81,499.94
70,-3.8733,0.1625,-0.0112,1351.81,-1249.76,-1859.44
80,-3.8734,0.1687,-0.0165,804.93,-1437.19,-296.94
90,-3.8734,0.1564,-0.0254,1601.81,1890.93,1999.94
100,-3.8734,0.1410,-0.0381,23.68,750.31,953.06
110,-3.8734,0.1428,-0.0493,-1945.07,-874.76,31.13
120,-3.8735,0.1709,-0.0542,-1710.69,1687.74,-1015.75
130,-3.8735,0.2177,-0.0524,1883.06,1062.81,-1875.12
140,-3.8735,0.2775,-0.0471,-132.57,1297.24,1531.13
150,-3.8735,0.3494,-0.0422,-476.32,1969.24,218.63
160,-3.8737,0.4244,-0.0389,726.81,-1405.58,1828.00
170,-3.8738,0.4922,-0.0349,-1663.82,-983.58,-562.62
180,-3.8738,0.5457,-0.0264,-991.94,-467.83,-1625.12
190,-3.8738,0.5754,-0.0085,1851.81,626.04,-453.19
200,-3.8737,0.5767,0.0240,1664.31,-1092.65,-281.31
210,-3.8734,0.5516,0.0735,1820.56,-920.78,-593.75
220,-3.8730,0.5132,0.1235,-1382.57,1407.29,1906.37
230,-3.8727,0.4805,0.1528,1695.56,-186.52,547.06
240,-3.8726,0.4695,0.1532,1508.06,-436.58,-218.51
250,-3.8724,0.4883,0.1295,101.81,-389.71,1468.99
260,-3.8726,0.5399,0.0997,-1491.94,579.04,-1656.01
270,-3.8727,0.6145,0.0770,1117.43,766.66,593.93
280,-3.8729,0.6896,0.0688,-1335.69,1860.53,-1453.00
290,-3.8730,0.7440,0.0845,273.68,813.84,-1437.38
300,-3.8730,0.7657,0.1321,-757.57,-1186.10,-515.50
310,-3.8728,0.7511,0.2043,-1976.32,907.71,-999.76
320,-3.8724,0.7156,0.2720,148.68,-1842.29,-1109.01
330,-3.8721,0.6935,0.3132,-398.19,-1186.16,-155.76
340,-3.8717,0.7047,0.3313,773.68,95.09,-733.76
350,-3.8715,0.7411,0.3323,-1788.82,-1592.41,-1155.64
360,-3.8713,0.7771,0.3201,-1132.57,-1467.35,1906.86
370,-3.8713,0.7949,0.2996,-523.19,970.21,1219.36
380,-3.8715,0.7997,0.2817,1758.06,-1654.72,-1452.58
390,-3.8715,0.8029,0.2827,-1632.57,64.03,188.05
400,-3.8716,0.8113,0.3064,-1226.32,189.03,-655.70
410,-3.8715,0.8204,0.3478,-148.19,-779.72,578.67
420,-3.8713,0.8151,0.4003,1023.68,517.21,1203.80
430,-3.8711,0.7908,0.4451,336.18,-764.04,1172.61
440,-3.8708,0.7625,0.4639,1226.81,970.28,-1889.77
450,-3.8706,0.7445,0.4624,1601.81,-623.54,1110.23
460,-3.8705,0.7394,0.4550,-695.07,-811.10,344.60
470,-3.8705,0.7429,0.4485,-1351.32,-1764.22,532.10
480,-3.8706,0.7408,0.4509,-898.19,1407.65,-61.65
490,-3.8706,0.7212,0.4601,-1163.82,1720.15,-624.15
500,-3.8706,0.6949,0.4716,320.56,-1107.97,-889.77
510,-3.8706,0.6781,0.4877,961.18,360.72,-108.46
520,-3.8705,0.6755,0.5040,-1195.07,-1576.84,1844.67
530,-3.8704,0.6897,0.5131,-1523.19,516.91,94.73
540,-3.8704,0.7184,0.5168,289.31,1673.22,1391.60
550,-3.8704,0.7489,0.5212,-38.82,-1842.41,1250.98
560,-3.8704,0.7634,0.5249,-132.57,-1279.85,875.98
570,-3.8704,0.7512,0.5237,1726.81,-811.04,1454.10
580,-3.8704,0.7080,0.5217,164.31,-967.29,-780.27
590,-3.8702,0.6378,0.5314,-1366.94,-1217.41,-1889.65
600,-3.8701,0.5664,0.5553,1648.68,16.85,1719.79
610,-3.8700,0.5256,0.5815,508.06,-920.78,1563.54
620,-3.8699,0.5228,0.6073,-710.69,-1561.52,1079.22
630,-3.8698,0.5430,0.6353,-1070.07,1735.35,1.16
640,-3.8698,0.5695,0.6584,1508.06,1313.54,-1936.28
650,-3.8698,0.5853,0.6724,898.68,282.35,-904.97
660,-3.8698,0.5746,0.6780,-1070.07,-1936.40,-967.47
670,-3.8698,0.5356,0.6748,1554.93,-1217.65,1954.41
680,-3.8698,0.4828,0.6595,570.56,-1623.96,63.78
690,-3.8699,0.4358,0.6310,1804.93,422.79,1157.53
700,-3.8700,0.4044,0.5961,-210.69,766.42,923.10
710,-3.8701,0.3843,0.5657,-226.32,297.61,48.03
720,-3.8702,0.3622,0.5476,1195.56,406.98,329.22
730,-3.8704,0.3253,0.5455,-1632.57,-1905.58,-248.96
740,-3.8702,0.2738,0.5609,1648.68,1828.74,-1155.21
750,-3.8700,0.2211,0.5889,-945.07,-202.64,501.04
760,-3.8699,0.1825,0.6140,304.93,-624.57,-467.65
770,-3.8696,0.1663,0.6213,-632.57,-1405.94,-1826.97
780,-3.8695,0.1685,0.6033,1289.31,-468.44,1782.41
790,-3.8695,0.1774,0.5653,1570.56,1219.06,1266.78
800,-3.8696,0.1732,0.5233,-1288.82,359.68,1766.72
810,-3.8698,0.1425,0.4934,-1820.07,-1015.32,1391.60
820,-3.8699,0.0892,0.4774,-1757.57,-843.51,-1874.08
830,-3.8699,0.0251,0.4646,-570.07,1109.50,875.92
840,-3.8699,-0.0424,0.4514,-773.19,-531.25,1203.98
850,-3.8699,-0.1079,0.4418,-1413.82,1796.75,1688.35
860,-3.8699,-0.1533,0.4399,-1804.44,562.26,1672.73
870,-3.8699,-0.1547,0.4443,383.06,327.82,1625.85
880,-3.8699,-0.1062,0.4446,211.18,890.32,1672.73
890,-3.8699,-0.0369,0.4385,-1585.69,921.63,1219.60
900,-3.8700,0.0052,0.4330,-710.69,140.50,-233.52
910,-3.8700,-0.0066,0.4302,679.93,-578.12,1688.29
920,-3.8701,-0.0685,0.4257,-835.69,-921.94,-467.96
930,-3.8701,-0.1508,0.4143,-757.57,-1500.18,953.92
940,-3.8702,-0.2141,0.3914,711.18,1046.57,1297.67
950,-3.8704,-0.2351,0.3579,601.81,-1891.05,422.61
960,-3.8706,-0.2126,0.3173,1914.31,1827.64,1953.80
970,-3.8708,-0.1604,0.2683,789.31,624.57,1266.24
980,-3.8712,-0.1063,0.2186,-523.19,-1640.99,-374.51
990,-3.8715,-0.0759,0.1838,-1601.32,-0.24,-609.01
1000,-3.8716,-0.0741,0.1670,-1710.69,-453.31,1812.81
1010,-3.8717,-0.0940,0.1639,-1476.32,1390.44,-718.44
1020,-3.8717,-0.1217,0.1704,-23.19,999.76,-1155.94
1030,-3.8717,-0.1378,0.1812,429.93,1827.88,-1530.94
1040,-3.8717,-0.1306,0.1881,-1632.57,-797.18,1406.56
1050,-3.8718,-0.1027,0.1749,-710.69,93.44,-687.13
1060,-3.8719,-0.0668,0.1376,-1132.57,-1593.99,-640.32
1070,-3.8721,-0.0441,0.0939,-538.82,1624.82,-1999.76
1080,-3.8722,-0.0460,0.0566,-1632.57,31.13,140.81
1090,-3.8724,-0.0662,0.0289,-1882.57,-734.50,-1046.81
1100,-3.8726,-0.0920,0.0135,-460.69,-281.43,-421.88
1110,-3.8726,-0.1072,0.0073,226.81,1749.82,1437.50
1120,-3.8727,-0.1007,0.0071,-1710.69,952.88,-140.62
1130,-3.8727,-0.0776,0.0085,-882.57,921.63,-1078.12
1140,-3.8727,-0.0488,0.0038,-1929.44,1109.19,-1343.75
1150,-3.8727,-0.0286,-0.0042,1758.06,499.88,-953.12
1160,-3.8727,-0.0315,-0.0023,351.81,-515.69,-265.69
1170,-3.8726,-0.0575,0.0122,-23.19,-281.37,624.94
1180,-3.8726,-0.0856,0.0287,648.68,1578.00,1656.25
1190,-3.8726,-0.0887,0.0333,1054.93,-312.68,1843.75
1200,-3.8726,-0.0548,0.0198,648.68,281.07,0.06
1210,-3.8727,0.0061,-0.0046,992.43,-1453.25,171.88
1220,-3.8729,0.0732,-0.0312,789.31,-593.75,-281.31
1230,-3.8730,0.1285,-0.0586,1383.06,0.12,-62.56
1240,-3.8730,0.1565,-0.0807,461.18,500.24,1703.00
1250,-3.8730,0.1400,-0.0885,39.31,1672.18,1265.44
1260,-3.8730,0.0771,-0.0808,1929.93,672.12,-1703.31
1270,-3.8730,-0.0001,-0.0669,1883.06,1656.37,-140.81
1280,-3.8729,-0.0482,-0.0629,-7.57,-546.94,499.82
1290,-3.8730,-0.0405,-0.0743,1836.18,-31.37,-906.43
1300,-3.8732,0.0208,-0.0878,-1179.44,-1500.12,-125.18
1310,-3.8732,0.1031,-0.0887,-1335.69,765.62,374.82
1320,-3.8733,0.1700,-0.0800,1211.18,640.81,-1937.68
1330,-3.8733,0.2087,-0.0688,1773.68,1765.93,1593.57
1340,-3.8733,0.2230,-0.0565,-1273.19,-812.13,-1078.31
1350,-3.8732,0.2197,-0.0488,554.93,766.05,1265.50
1360,-3.8732,0.2126,-0.0529,133.06,1750.43,-609.50
1370,-3.8730,0.2201,-0.0659,-773.19,1234.74,93.63
1380,-3.8732,0.2467,-0.0804,179.93,-437.07,-1297.06
1390,-3.8733,0.2794,-0.0876,-413.82,1703.55,-328.31
1400,-3.8733,0.3070,-0.0780,-226.32,781.74,421.69
1410,-3.8734,0.3313,-0.0485,-695.07,-1983.83,-1187.68
1420,-3.8734,0.3606,-0.0093,-1585.69,1797.49,-0.12
1430,-3.8733,0.4094,0.0264,-1835.69,-1186.83,-328.19
1440,-3.8730,0.4879,0.0614,414.31,-624.21,578.12
1450,-3.8729,0.5812,0.1012,-1538.82,-139.71,1968.81
1460,-3.8728,0.6650,0.1368,-1601.32,954.22,-281.07
1470,-3.8726,0.7238,0.1538,1133.06,1516.91,922.12
1480,-3.8724,0.7469,0.1469,648.68,-311.10,547.12
1490,-3.8724,0.7306,0.1281,-382.57,-1201.72,-1531.01
1500,-3.8724,0.6805,0.1119,1523.68,392.03,-499.76
1510,-3.8723,0.6177,0.1104,-882.57,-1670.59,812.68
1520,-3.8723,0.5712,0.1316,-929.44,-1873.84,-1156.07
1530,-3.8722,0.5670,0.1685,1117.43,844.85,937.74
1540,-3.8722,0.6147,0.2043,586.18,1563.60,-1671.57
1550,-3.8722,0.6874,0.2312,-1304.44,-1842.59,-1030.88
1560,-3.8722,0.7435,0.2509,-7.57,1595.03,-218.32
1570,-3.8721,0.7705,0.2611,-820.07,110.78,1687.99
1580,-3.8719,0.7782,0.2574,-1366.94,1423.34,531.74
1590,-3.8719,0.7795,0.2411,-382.57,954.59,-1358.89
1600,-3.8719,0.7827,0.2195,-210.69,-1139.16,-1280.82
1610,-3.8719,0.7838,0.2113,195.56,95.28,1844.18
1620,-3.8719,0.7649,0.2349,336.18,-951.60,-1124.63
1630,-3.8718,0.7170,0.2781,1914.31,-1936.04,-530.82
1640,-3.8716,0.6573,0.3131,-210.69,-404.91,-1358.89
1650,-3.8713,0.6096,0.3312,148.68,79.41,-1874.39
1660,-3.8711,0.5917,0.3442,-1960.69,-1608.22,344.36
1670,-3.8710,0.6125,0.3602,-257.57,63.60,891.30
1680,-3.8710,0.6693,0.3729,-1585.69,-1889.47,-218.08
1690,-3.8708,0.7369,0.3804,1679.93,-264.34,1266.30
1700,-3.8708,0.7781,0.3921,-1663.82,688.90,-1921.14
1710,-3.8708,0.7732,0.4114,-398.19,-1811.04,-874.27
1720,-3.8707,0.7354,0.4303,-1023.19,657.71,1032.04
1730,-3.8707,0.6995,0.4406,-1866.94,-920.47,-233.58
1740,-3.8706,0.6938,0.4431,1539.31,391.97,-983.52
1750,-3.8705,0.7136,0.4528,820.56,720.09,-342.90
1760,-3.8702,0.7269,0.4816,-648.19,1954.47,-1374.15
1770,-3.8700,0.7128,0.5153,1054.93,1642.03,-1108.46
1780,-3.8698,0.6724,0.5321,-757.57,1954.47,1813.48
1790,-3.8696,0.6174,0.5261,-1929.44,110.66,844.79
1800,-3.8698,0.5684,0.5037,-960.69,-655.09,-827.15
1810,-3.8699,0.5432,0.4843,758.06,469.85,-1499.02
1820,-3.8700,0.5488,0.4885,1539.31,1985.41,1391.54
1830,-3.8701,0.5817,0.5171,-1741.94,-1467.71,1891.54
1840,-3.8701,0.6267,0.5546,-1538.82,-1811.40,844.73
1850,-3.8701,0.6614,0.5864,226.81,-1014.40,1235.41
1860,-3.8701,0.6716,0.6057,664.31,-936.22,1751.10
1870,-3.8701,0.6523,0.6084,1976.81,1532.53,1876.16
1880,-3.8701,0.5962,0.5996,-491.94,1876.22,-1873.84
1890,-3.8701,0.5089,0.5917,320.56,751.16,-764.47
1900,-3.8700,0.4189,0.5834,1148.68,-264.65,985.47
1910,-3.8700,0.3477,0.5656,1633.06,-1327.33,-1702.03
1920,-3.8700,0.2972,0.5342,508.06,391.30,1969.85
1930,-3.8700,0.2632,0.4966,-1945.07,375.55,251.04
1940,-3.8701,0.2415,0.4697,1695.56,-437.01,-1202.21
1950,-3.8701,0.2280,0.4669,-1085.69,125.43,-858.46
1960,-3.8700,0.2230,0.4895,1195.56,-233.95,1875.85
1970,-3.8699,0.2305,0.5234,554.93,-1343.32,-1624.08
1980,-3.8698,0.2471,0.5475,1508.06,-999.57,-733.40
1990,-3.8696,0.2587,0.5448,-366.94,-1921.45,-905.21
2000,-3.8695,0.2473,0.5179,1117.43,1734.86,985.41
2010,-3.8695,0.2048,0.4862,-335.69,-1702.70,1657.23
2020,-3.8695,0.1339,0.4611,-1773.19,-1765.26,-1202.21
2030,-3.8694,0.0483,0.4395,1148.68,-984.13,1094.60
2040,-3.8694,-0.0336,0.4174,-1804.44,250.06,-202.27
2050,-3.8693,-0.0974,0.3973,-288.82,1437.38,1625.79
2060,-3.8693,-0.1331,0.3856,-460.69,-1125.24,1906.98
2070,-3.8693,-0.1375,0.3853,-1023.19,1374.69,906.98
2080,-3.8694,-0.1163,0.3900,-1585.69,1327.82,-968.02
2090,-3.8694,-0.0878,0.3929,1117.43,1937.26,531.98
2100,-3.8695,-0.0706,0.3893,773.68,-1687.68,1469.48
2110,-3.8696,-0.0680,0.3705,-1023.19,1843.57,1141.36
2120,-3.8699,-0.0679,0.3361,-695.07,-562.68,-968.08
2130,-3.8701,-0.0636,0.2970,-679.44,-968.93,-796.26
2140,-3.8704,-0.0626,0.2688,-132.57,-1968.93,-952.58
2150,-3.8705,-0.0751,0.2544,-7.57,-1578.31,625.49
2160,-3.8706,-0.1034,0.2423,-1601.32,577.94,484.86
2170,-3.8707,-0.1381,0.2229,-1226.32,-968.99,1547.30
2180,-3.8708,-0.1694,0.1940,-1663.82,546.57,-1905.82
2190,-3.8710,-0.1948,0.1635,-1679.44,843.38,1234.74
2200,-3.8712,-0.2156,0.1453,-929.44,937.07,-234.07
2210,-3.8713,-0.2311,0.1418,414.31,-1391.05,-937.26
2220,-3.8715,-0.2358,0.1461,-1570.07,-1828.61,-327.88
2230,-3.8715,-0.2222,0.1479,1820.56,-1281.74,828.37
2240,-3.8716,-0.1919,0.1428,-429.44,-1047.36,1656.49
2250,-3.8717,-0.1533,0.1309,-554.44,-1703.55,1562.74
2260,-3.8718,-0.1188,0.1118,383.06,765.32,687.74
2270,-3.8719,-0.1031,0.0908,804.93,-1672.12,250.18
2280,-3.8721,-0.1122,0.0771,-1195.07,-359.62,1203.25
2290,-3.8722,-0.1401,0.0751,1648.68,1890.38,-484.25
2300,-3.8722,-0.1722,0.0784,-1929.44,1624.69,-1453.00
2310,-3.8722,-0.1924,0.0763,1961.18,-1953.49,1453.25
2320,-3.8723,-0.1912,0.0645,-616.94,1780.82,-234.25
2330,-3.8723,-0.1713,0.0444,-460.69,265.20,1406.37
2340,-3.8724,-0.1417,0.0225,-1913.82,1702.76,-1374.94
2350,-3.8724,-0.1121,0.0066,1867.43,-1109.68,125.00
2360,-3.8726,-0.0914,-0.0004,1664.31,859.13,-1875.00
2370,-3.8726,-0.0840,-0.0050,304.93,-31.43,140.56
2380,-3.8727,-0.0801,-0.0129,1258.06,-625.18,1796.81
2390,-3.8728,-0.0677,-0.0273,1758.06,-1640.81,-828.19
2400,-3.8728,-0.0479,-0.0480,-663.82,515.44,531.19
2410,-3.8729,-0.0309,-0.0706,1883.06,1874.88,-1609.50
2420,-3.8729,-0.0266,-0.0886,54.93,-1015.69,1265.44
2430,-3.8729,-0.0312,-0.0973,601.81,671.81,999.82
2440,-3.8729,-0.0316,-0.0963,8.06,-437.56,968.51
2450,-3.8729,-0.0148,-0.0890,-38.82,-312.62,531.01
2460,-3.8730,0.0178,-0.0818,-1882.57,624.94,-625.18
2470,-3.8730,0.0542,-0.0765,-1710.69,1531.25,1515.44
2480,-3.8732,0.0905,-0.0724,-1054.44,-1796.81,-765.81
2490,-3.8732,0.1259,-0.0719,-413.82,-1265.50,1109.19
2500,-3.8733,0.1554,-0.0793,117.43,-1202.88,-422.06
2510,-3.8733,0.1738,-0.0983,-101.32,1843.99,-1515.81
2520,-3.8733,0.1808,-0.1256,-1741.94,-577.82,1531.01
2530,-3.8733,0.1791,-0.1467,-851.32,-77.82,702.82
2540,-3.8733,0.1725,-0.1451,-1070.07,1219.06,499.69
2550,-3.8733,0.1672,-0.1194,-1913.82,1422.18,1562.19
2560,-3.8733,0.1740,-0.0894,1414.31,719.06,-422.12
2570,-3.8732,0.1971,-0.0743,-1726.32,562.81,1437.32
2580,-3.8732,0.2329,-0.0808,1242.43,-1515.26,1827.94
2590,-3.8732,0.2792,-0.0992,1820.56,1656.68,546.69
2600,-3.8733,0.3298,-0.1123,-257.57,-702.64,-1750.24
2610,-3.8733,0.3751,-0.1094,-1773.19,1625.61,140.38
2620,-3.8733,0.4062,-0.0845,23.68,-1999.27,156.01
2630,-3.8733,0.4200,-0.0419,8.06,1188.29,-765.81
2640,-3.8730,0.4264,0.0032,1773.68,-1358.58,562.38
2650,-3.8729,0.4424,0.0322,-1413.82,407.04,-1437.50
2660,-3.8728,0.4784,0.0381,633.06,125.85,-515.56
2670,-3.8727,0.5298,0.0306,1242.43,875.92,-1812.44
2680,-3.8727,0.5817,0.0199,-179.44,-77.15,-1859.38
2690,-3.8728,0.6278,0.0151,-1538.82,-1452.03,-46.88
2700,-3.8728,0.6681,0.0194,367.43,1938.72,1093.75
2710,-3.8729,0.6975,0.0276,1523.68,-1514.34,-1046.88
2720,-3.8729,0.7104,0.0438,1289.31,-467.41,-1343.75
2730,-3.8728,0.7043,0.0784,-1054.44,1610.72,1156.31
2740,-3.8727,0.6909,0.1270,-1835.69,-1967.41,-843.63
2750,-3.8724,0.6918,0.1716,445.56,251.34,-468.51
2760,-3.8722,0.7147,0.2002,554.93,1970.09,-843.44
2770,-3.8721,0.7483,0.2131,-507.57,1626.34,-1218.38
2780,-3.8721,0.7822,0.2185,-210.69,-717.35,-1984.01
2790,-3.8722,0.8130,0.2177,133.06,-29.72,-1640.26
2800,-3.8723,0.8420,0.2020,70.56,-139.04,1094.12
2810,-3.8726,0.8666,0.1714,-210.69,1860.96,-218.38
2820,-3.8726,0.8777,0.1395,-1070.07,1939.15,140.93
2830,-3.8726,0.8666,0.1288,351.81,1861.08,109.62
2840,-3.8724,0.8297,0.1635,-1070.07,486.02,-1906.01
2850,-3.8721,0.7756,0.2438,-1788.82,923.46,-1109.07
2860,-3.8716,0.7235,0.3433,-710.69,-795.41,-124.57
2870,-3.8711,0.6920,0.4218,617.43,-61.10,-61.89
2880,-3.8707,0.6902,0.4485,586.18,1985.72,-1311.71
2890,-3.8706,0.7161,0.4243,351.81,1407.59,-1858.52
2900,-3.8707,0.7487,0.3760,-335.69,-1686.16,-1233.58
2910,-3.8710,0.7642,0.3367,-163.82,126.40,-499.27
2920,-3.8712,0.7607,0.3239,1820.56,-904.79,-124.39
2930,-3.8713,0.7531,0.3398,1383.06,1454.59,-890.01
2940,-3.8713,0.7576,0.3817,398.68,-498.54,-1280.64
2950,-3.8712,0.7810,0.4358,976.81,860.84,1891.36
2960,-3.8711,0.8171,0.4823,-23.19,-217.29,-546.08
2970,-3.8708,0.8473,0.5077,601.81,1735.96,1797.79
2980,-3.8707,0.8566,0.5142,461.18,986.02,-577.15
2990,-3.8706,0.8386,0.5109,1648.68,1814.15,-124.02
3000,-3.8705,0.7920,0.5012,-648.19,1392.21,-702.15
3010,-3.8704,0.7307,0.4911,1383.06,157.78,1750.98
3020,-3.8704,0.6757,0.4911,1539.31,-1139.22,-1077.21
3030,-3.8704,0.6416,0.5078,-1507.57,-1139.34,-1295.96
3040,-3.8704,0.6333,0.5358,-1866.94,1001.22,1954.10
3050,-3.8704,0.6515,0.5601,1070.56,579.35,1579.16
3060,-3.8704,0.6884,0.5801,-601.32,-311.28,-1967.71
3070,-3.8702,0.7207,0.6071,117.43,-1748.66,235.47
3080,-3.8701,0.7235,0.6396,258.06,1704.53,1235.53
3090,-3.8699,0.6899,0.6630,617.43,1876.40,469.97
3100,-3.8696,0.6333,0.6685,320.56,860.72,1.28
3110,-3.8695,0.5712,0.6562,1070.56,1563.72,1845.03
3120,-3.8694,0.5123,0.6343,1117.43,1.10,1204.41
3130,-3.8694,0.4594,0.6132,1586.18,1188.48,-1733.15
3140,-3.8694,0.4158,0.6012,-1195.07,-1514.77,1516.78
3150,-3.8695,0.3888,0.5988,1226.81,953.92,-170.72
3160,-3.8695,0.3848,0.6018,1773.68,641.36,-1826.97
3170,-3.8695,0.3922,0.6083,1258.06,1031.98,1438.66
3180,-3.8695,0.3816,0.6150,-1788.82,1860.11,-1655.09
3190,-3.8694,0.3413,0.6187,851.81,-1280.52,751.16
3200,-3.8694,0.2853,0.6134,-304.44,-811.89,-686.34
3210,-3.8693,0.2268,0.5957,523.68,-1483.83,563.66
3220,-3.8694,0.1741,0.5707,1039.31,250.43,-483.22
3230,-3.8694,0.1388,0.5466,-1710.69,1047.18,313.60
3240,-3.8695,0.1279,0.5272,1773.68,1968.99,563.54
3250,-3.8696,0.1309,0.5145,383.06,-515.38,1985.35
3260,-3.8696,0.1261,0.5068,758.06,1859.62,594.73
3270,-3.8698,0.0996,0.4941,148.68,875.24,-420.90
3280,-3.8698,0.0549,0.4723,758.06,-749.82,-1155.33
3290,-3.8698,0.0035,0.4514,-960.69,453.19,-1936.58
3300,-3.8698,-0.0469,0.4421,461.18,1781.25,891.48
3310,-3.8699,-0.0927,0.4395,-1991.94,609.25,-905.40
3320,-3.8699,-0.1290,0.4257,148.68,265.44,532.10
3330,-3.8700,-0.1544,0.3934,-507.57,-1500.31,1032.04
3340,-3.8701,-0.1737,0.3484,242.43,-1625.31,516.36
3350,-3.8704,-0.1908,0.3024,1773.68,609.01,-405.58
3360,-3.8705,-0.2102,0.2727,-413.82,-1281.68,-811.95
3370,-3.8706,-0.2343,0.2660,1101.81,-1078.55,-421.39
3380,-3.8706,-0.2571,0.2676,-1976.32,-1937.99,719.24
3390,-3.8707,-0.2694,0.2598,-898.19,-1734.92,-1499.51
3400,-3.8708,-0.2645,0.2391,1523.68,1265.08,-343.26
3410,-3.8710,-0.2416,0.2164,-1851.32,-1375.55,-999.57
3420,-3.8711,-0.2058,0.2002,1086.18,-281.74,1000.37
3430,-3.8713,-0.1691,0.1907,1664.31,1640.20,-812.13
3440,-3.8715,-0.1442,0.1908,-1632.57,421.51,-1202.76
3450,-3.8716,-0.1390,0.1964,1554.93,437.19,-499.63
3460,-3.8716,-0.1537,0.1932,-1788.82,1155.94,312.87
3470,-3.8717,-0.1805,0.1771,336.18,749.69,656.62
3480,-3.8719,-0.2051,0.1536,898.68,-1312.87,-46.57
3490,-3.8721,-0.2142,0.1272,1758.06,-328.55,-1874.76
3500,-3.8722,-0.2031,0.1016,586.18,296.45,625.24
3510,-3.8723,-0.1771,0.0803,-1991.94,1015.20,937.68
3520,-3.8724,-0.1501,0.0649,1336.18,-1703.49,-1265.50
3530,-3.8724,-0.1304,0.0527,789.31,327.82,1172.00
3540,-3.8724,-0.1154,0.0392,-679.44,-1234.68,156.31
3550,-3.8726,-0.1031,0.0266,1242.43,1031.01,-203.06
3560,-3.8726,-0.0986,0.0201,-1195.07,-578.37,-203.12
3570,-3.8726,-0.1045,0.0165,-616.94,-1406.49,-656.25
3580,-3.8726,-0.1158,0.0035,-1366.94,-1875.24,1734.38
3590,-3.8727,-0.1216,-0.0259,1179.93,468.51,-1562.50
3600,-3.8728,-0.1119,-0.0669,445.56,702.88,1531.19
3610,-3.8729,-0.0865,-0.1019,1679.93,-547.12,640.44
3620,-3.8730,-0.0562,-0.1106,929.93,-1031.43,1562.26
3630,-3.8730,-0.0321,-0.0930,820.56,1859.25,984.13
3640,-3.8730,-0.0142,-0.0673,-101.32,109.25,-1437.68
3650,-3.8729,0.0066,-0.0485,-1804.44,-593.81,749.82
3660,-3.8729,0.0363,-0.0406,851.81,1796.88,1796.75
3670,-3.8729,0.0759,-0.0406,648.68,-1203.06,937.38
3680,-3.8730,0.1224,-0.0463,1726.81,-1203.00,-1672.00
3690,-3.8732,0.1646,-0.0627,-320.07,-1921.69,-1500.12
3700,-3.8733,0.1886,-0.0874,1070.56,-30.94,-1515.81
3710,-3.8734,0.1844,-0.1066,148.68,812.87,-906.43
3720,-3.8734,0.1530,-0.1141,-382.57,-1640.32,671.63
3730,-3.8735,0.1122,-0.1145,-413.82,1390.87,-672.12
3740,-3.8735,0.0936,-0.1154,-1632.57,1343.93,-1562.74
3750,-3.8735,0.1195,-0.1173,-7.57,1234.50,859.13
3760,-3.8737,0.1837,-0.1133,-695.07,984.56,-1297.12
3770,-3.8737,0.2642,-0.1003,-476.32,1500.31,1077.88
3780,-3.8737,0.3446,-0.0880,1820.56,-843.26,296.63
3790,-3.8738,0.4142,-0.0802,117.43,735.05,-125.18
3800,-3.8738,0.4626,-0.0735,1023.68,1735.17,-750.18
3810,-3.8738,0.4847,-0.0680,-773.19,-1405.40,-890.81
3820,-3.8737,0.4762,-0.0615,-1945.07,-702.21,562.32
3830,-3.8737,0.4409,-0.0521,961.18,125.92,-312.62
3840,-3.8735,0.4056,-0.0428,445.56,1328.98,-47.00
3850,-3.8733,0.3995,-0.0303,-70.07,-1483.64,171.75
3860,-3.8733,0.4279,-0.0145,-851.32,125.73,-1015.69
3870,-3.8732,0.4734,0.0020,-1226.32,-1858.58,359.31
3880,-3.8732,0.5184,0.0281,601.81,250.92,1500.00
3890,-3.8730,0.5564,0.0637,-1632.57,-405.27,359.38
3900,-3.8729,0.5859,0.0911,-773.19,157.29,1718.87
3910,-3.8728,0.6044,0.0984,-991.94,-342.65,-531.13
3920,-3.8727,0.6139,0.0903,1367.43,594.91,-999.82
3930,-3.8727,0.6223,0.0818,-1413.82,-436.34,-140.50
3940,-3.8727,0.6326,0.0811,-335.69,-1530.09,-640.50
3950,-3.8727,0.6406,0.0948,976.81,-1623.78,-578.00
3960,-3.8726,0.6438,0.1295,-1991.94,141.85,1609.56
3970,-3.8724,0.6495,0.1779,-1585.69,579.35,-1327.88
3980,-3.8722,0.6675,0.2286,-851.32,-1233.15,-1624.69
3990,-3.8719,0.7052,0.2748,1445.56,1266.91,-702.70
4000,-3.8717,0.7661,0.3075,-1726.32,-826.78,-1218.26
4010,-3.8716,0.8438,0.3260,-1929.44,-639.16,-1577.58
4020,-3.8716,0.9150,0.3358,8.06,1736.02,-1530.64
4030,-3.8716,0.9548,0.3365,1133.06,-1013.85,469.36
4040,-3.8717,0.9594,0.3274,-1773.19,-920.04,-1952.51
4050,-3.8717,0.9385,0.3146,-1195.07,1908.08,1297.49
4060,-3.8717,0.8989,0.3082,133.06,267.46,-811.89
4070,-3.8716,0.8461,0.3116,-929.44,-545.17,-1390.08
4080,-3.8715,0.7986,0.3208,304.93,-107.73,1844.30
4090,-3.8713,0.7769,0.3406,-1773.19,1064.03,422.49
4100,-3.8713,0.7894,0.3810,-554.44,-404.79,-968.14
4110,-3.8712,0.8308,0.4396,1054.93,767.15,-889.89
4120,-3.8710,0.8855,0.5063,-1648.19,267.21,1313.35
4130,-3.8707,0.9377,0.5647,1351.81,814.21,657.23
4140,-3.8706,0.9712,0.5951,39.31,283.08,-1030.15
4150,-3.8705,0.9745,0.5898,320.56,173.77,-1748.84
4160,-3.8705,0.9474,0.5575,742.43,-498.11,1813.60
4170,-3.8706,0.9015,0.5172,1273.68,-638.79,-1873.96
4180,-3.8707,0.8541,0.4827,-601.32,-1795.17,891.60
4190,-3.8708,0.8185,0.4611,1336.18,1782.90,235.29
4200,-3.8710,0.7938,0.4678,773.68,-982.79,-1655.40
4210,-3.8708,0.7711,0.5089,1617.43,-123.47,688.35
4220,-3.8707,0.7516,0.5685,-1288.82,1142.09,-811.52
4230,-3.8704,0.7394,0.6278,211.18,767.09,516.72
4240,-3.8701,0.7303,0.6704,-1351.32,360.78,1626.22
4250,-3.8700,0.7222,0.6798,1492.43,1813.90,-811.22
4260,-3.8700,0.7124,0.6542,445.56,-982.97,-29.97
4270,-3.8700,0.6918,0.6093,-804.44,-264.28,594.97
4280,-3.8702,0.6530,0.5673,554.93,1985.72,-1108.22
4290,-3.8704,0.6023,0.5428,-413.82,610.60,1313.60
4300,-3.8705,0.5508,0.5396,1101.81,1485.53,-1795.84
4310,-3.8705,0.5067,0.5540,-1491.94,1063.54,-1467.71
4320,-3.8704,0.4719,0.5811,867.43,-1092.77,-1998.96
4330,-3.8701,0.4380,0.6179,414.31,-1624.08,235.47
4340,-3.8700,0.3986,0.6516,70.56,-905.40,-45.72
4350,-3.8698,0.3601,0.6627,-976.32,-593.02,-1123.78
4360,-3.8696,0.3311,0.6443,-1898.19,828.80,-1248.72
4370,-3.8696,0.3097,0.6072,-1616.94,-1530.64,-1123.78
4380,-3.8696,0.2848,0.5729,-351.32,1719.30,610.53
4390,-3.8698,0.2441,0.5570,461.18,1328.67,-1702.03
4400,-3.8698,0.1887,0.5571,-741.94,-702.70,1079.16
4410,-3.8698,0.1309,0.5640,164.31,-687.13,563.54
4420,-3.8699,0.0831,0.5663,758.06,187.74,-45.78
4430,-3.8699,0.0547,0.5564,-1351.32,484.50,-1108.28
4440,-3.8699,0.0457,0.5414,-991.94,-781.19,-1702.09
4450,-3.8699,0.0457,0.5314,1851.81,1296.94,-748.96
4460,-3.8698,0.0438,0.5260,1851.81,15.69,-1998.96
4470,-3.8696,0.0314,0.5165,1617.43,-671.81,1641.60
4480,-3.8695,0.0020,0.4969,23.68,-1890.56,579.10
4490,-3.8695,-0.0442,0.4712,258.06,-390.62,1969.67
4500,-3.8695,-0.1047,0.4492,-1648.19,328.00,1813.42
4510,-3.8695,-0.1741,0.4359,-1398.19,1515.38,328.98
4520,-3.8696,-0.2389,0.4244,1726.81,-187.87,1719.54
4530,-3.8698,-0.2866,0.4102,1429.93,-1656.74,-1702.33
4540,-3.8699,-0.3125,0.3954,-679.44,515.01,-1546.08
4550,-3.8700,-0.3136,0.3813,8.06,-1375.61,-1796.14
4560,-3.8701,-0.2885,0.3621,-132.57,827.45,860.11
4570,-3.8704,-0.2485,0.3315,-913.82,-1641.24,-1718.08
4580,-3.8706,-0.2214,0.2988,195.56,-1547.36,-30.64
4590,-3.8707,-0.2290,0.2776,-335.69,-1734.86,-999.45
4600,-3.8708,-0.2563,0.2670,-1304.44,-453.61,-937.01
4610,-3.8710,-0.2682,0.2598,-804.44,-1813.05,-327.64
4620,-3.8710,-0.2513,0.2522,1679.93,1265.08,547.36
4630,-3.8711,-0.2229,0.2448,-163.82,296.33,1078.61
4640,-3.8712,-0.2026,0.2344,-523.19,-656.74,781.68
4650,-3.8715,-0.1969,0.2115,-1929.44,-1984.80,-374.57
4660,-3.8716,-0.2007,0.1744,-1195.07,-906.68,-1515.26
4670,-3.8717,-0.2051,0.1329,-1679.44,-1656.68,-1499.69
4680,-3.8717,-0.2073,0.1095,1758.06,1030.82,359.62
4690,-3.8717,-0.2095,0.1150,1476.81,-1969.18,62.68
4700,-3.8717,-0.2050,0.1298,1195.56,-1266.05,750.18
4710,-3.8717,-0.1907,0.1360,1773.68,624.57,1297.12
4720,-3.8717,-0.1718,0.1376,-398.19,1421.45,672.12
4730,-3.8718,-0.1473,0.1355,-1976.32,1624.63,-1921.63
4740,-3.8719,-0.1173,0.1252,1148.68,1359.07,-1843.51
4750,-3.8721,-0.0886,0.1075,992.43,46.63,1937.74
4760,-3.8722,-0.0696,0.0833,664.31,1781.07,1703.31
4770,-3.8723,-0.0648,0.0596,-898.19,-1328.31,1781.37
4780,-3.8724,-0.0714,0.0438,-288.82,-359.56,-1859.31
4790,-3.8726,-0.0804,0.0359,-1132.57,1624.82,-1703.06
4800,-3.8727,-0.0833,0.0311,1711.18,609.19,-1874.94
4810,-3.8728,-0.0719,0.0239,1351.81,-0.18,1875.00
4820,-3.8729,-0.0413,0.0118,-1195.07,-922.06,1593.75
4830,-3.8730,0.0051,-0.0070,-1273.19,1531.13,1062.50
4840,-3.8732,0.0576,-0.0314,664.31,-890.62,687.44
4850,-3.8733,0.1045,-0.0516,-616.94,-15.56,1281.13
4860,-3.8734,0.1322,-0.0564,1383.06,1390.81,-672.00
4870,-3.8734,0.1327,-0.0461,929.93,781.49,-1359.50
4880,-3.8734,0.1133,-0.0338,992.43,-1906.01,-1437.62
4890,-3.8734,0.0938,-0.0360,-1491.94,-327.94,-1968.87
4900,-3.8734,0.0896,-0.0546,8.06,-609.19,515.50
4910,-3.8735,0.1045,-0.0780,-523.19,1015.75,-1609.50
4920,-3.8735,0.1300,-0.0994,1383.06,-1984.19,484.19
4930,-3.8737,0.1555,-0.1136,648.68,-718.51,-843.99
4940,-3.8737,0.1826,-0.1250,-85.69,1453.37,1843.51
4950,-3.8738,0.2157,-0.1410,-616.94,0.31,-484.62
4960,-3.8738,0.2502,-0.1547,-382.57,1953.49,359.07
4970,-3.8739,0.2798,-0.1528,39.31,203.61,1468.44
4980,-3.8739,0.3010,-0.1320,-179.44,437.99,187.19
4990,-3.8739,0.3129,-0.0973,-1460.69,-890.08,-1984.68
5000,-3.8738,0.3203,-0.0601,54.93,-452.51,-1312.74
5010,-3.8735,0.3348,-0.0325,1008.06,313.11,203.00
5020,-3.8734,0.3655,-0.0200,-1132.57,-155.64,796.75
5030,-3.8734,0.4084,-0.0203,-1210.69,1438.17,-187.56
5040,-3.8733,0.4537,-0.0306,289.31,1407.04,1203.06
5050,-3.8733,0.4956,-0.0479,-1913.82,78.98,1109.31
5060,-3.8733,0.5328,-0.0657,-554.44,1875.92,296.75
5070,-3.8734,0.5593,-0.0731,211.18,-405.21,-125.18
5080,-3.8733,0.5658,-0.0576,-398.19,-1358.34,687.32
5090,-3.8733,0.5579,-0.0104,429.93,626.10,-172.00
5100,-3.8730,0.5564,0.0645,-585.69,-1327.09,-1296.94
5110,-3.8727,0.5798,0.1487,-773.19,251.04,1406.37
5120,-3.8723,0.6300,0.2168,-1773.19,-967.65,1765.87
5130,-3.8721,0.6945,0.2505,648.68,-248.78,-390.26
5140,-3.8719,0.7549,0.2532,898.68,63.84,-62.01
5150,-3.8719,0.7996,0.2406,633.06,407.71,-780.76
5160,-3.8721,0.8301,0.2195,-1648.19,-1201.60,-1155.82
5170,-3.8722,0.8566,0.1920,-1741.94,95.34,281.68
5180,-3.8724,0.8879,0.1708,1648.68,579.77,1515.99
5190,-3.8726,0.9232,0.1688,1664.31,1861.08,734.68
5200,-3.8727,0.9548,0.1991,-1820.07,1611.15,-15.32
5210,-3.8724,0.9701,0.2605,-1773.19,1486.21,297.24
5220,-3.8722,0.9585,0.3344,179.93,1345.64,1500.49
5230,-3.8718,0.9268,0.3977,-1304.44,-1201.29,1250.61
5240,-3.8715,0.8948,0.4323,-1366.94,-1091.98,78.86
5250,-3.8713,0.8799,0.4379,-1460.69,-670.17,-217.96
5260,-3.8712,0.8875,0.4240,633.06,48.58,-592.90
5270,-3.8712,0.9108,0.4030,1601.81,-1732.67,-1014.83
5280,-3.8713,0.9379,0.3840,586.18,-420.10,-421.14
5290,-3.8715,0.9648,0.3691,54.93,1158.08,-983.64
5300,-3.8716,0.9890,0.3678,-491.94,-748.17,-311.83
5310,-3.8715,0.9955,0.3988,-1398.19,-919.98,438.17
5320,-3.8713,0.9714,0.4618,-570.07,-951.23,-1014.89
5330,-3.8710,0.9247,0.5311,351.81,-888.73,1938.35
5340,-3.8706,0.8741,0.5828,-1632.57,-13.85,-1717.77
5350,-3.8702,0.8291,0.5966,-101.32,-1404.60,141.72
5360,-3.8701,0.7931,0.5651,-1866.94,360.96,329.28
5370,-3.8702,0.7723,0.5087,1523.68,329.65,-1608.28
5380,-3.8704,0.7646,0.4589,-1132.57,1110.84,391.60
5390,-3.8706,0.7576,0.4387,1883.06,-1264.16,-1999.15
5400,-3.8707,0.7426,0.4514,976.81,157.71,-1858.52
5410,-3.8707,0.7244,0.4872,-945.07,1782.65,-1811.65
5420,-3.8706,0.7130,0.5336,726.81,-1639.22,-1999.08
5430,-3.8705,0.7087,0.5753,-726.32,298.22,-14.59
5440,-3.8702,0.7017,0.6056,-1273.19,1641.97,-1483.28
5450,-3.8701,0.6814,0.6210,1820.56,1516.97,-467.59
5460,-3.8700,0.6469,0.6179,-773.19,-514.34,1766.78
5470,-3.8700,0.6050,0.6013,-1195.07,-905.03,1485.53
5480,-3.8701,0.5615,0.5798,1445.56,969.91,-373.84
5490,-3.8701,0.5216,0.5626,-116.94,-1780.21,1844.85
5500,-3.8701,0.4878,0.5575,-1226.32,16.60,1563.60
5510,-3.8701,0.4603,0.5642,-1554.44,-639.71,-873.96
5520,-3.8700,0.4369,0.5774,-1070.07,219.60,1907.35
5530,-3.8699,0.4109,0.5990,-70.07,1907.04,1735.47
5540,-3.8698,0.3733,0.6284,601.81,672.67,-998.84
5550,-3.8695,0.3217,0.6543,-210.69,438.17,1329.35
5560,-3.8694,0.2618,0.6671,1179.93,-249.39,-576.90
5570,-3.8693,0.2037,0.6624,1523.68,1391.11,-186.22
5580,-3.8691,0.1562,0.6371,-1913.82,781.62,1938.78
5590,-3.8691,0.1230,0.5990,8.06,1547.18,1938.72
5600,-3.8693,0.1028,0.5585,-241.94,672.06,-186.34
5610,-3.8693,0.0876,0.5225,1164.31,-515.44,32.29
5620,-3.8695,0.0669,0.4978,-773.19,-1124.88,-14.65
5630,-3.8695,0.0321,0.4902,570.56,-281.13,1235.29
5640,-3.8695,-0.0222,0.4996,117.43,-1249.94,875.92
5650,-3.8695,-0.0920,0.5167,1164.31,-31.31,-1436.58
5660,-3.8694,-0.1650,0.5265,226.81,-1843.93,954.10
5670,-3.8694,-0.2241,0.5173,-1116.94,-594.12,-1811.52
5680,-3.8694,-0.2437,0.4839,-679.44,-1766.11,282.23
5690,-3.8696,-0.2056,0.4319,820.56,1952.64,-1577.21
5700,-3.8699,-0.1338,0.3824,1695.56,-703.55,1407.04
5710,-3.8702,-0.0852,0.3549,-1116.94,968.44,-546.14
5720,-3.8705,-0.0920,0.3491,1101.81,1437.32,-858.70
5730,-3.8706,-0.1384,0.3496,226.81,702.94,1531.92
5740,-3.8707,-0.1842,0.3419,-1710.69,765.32,1641.30
5750,-3.8708,-0.2028,0.3223,429.93,-219.12,1984.99
5760,-3.8710,-0.1978,0.2961,-1945.07,1265.20,-1983.76
5770,-3.8711,-0.1870,0.2754,-1304.44,1921.45,-1890.08
5780,-3.8712,-0.1826,0.2648,70.56,-734.74,-1280.76
5790,-3.8712,-0.1841,0.2556,633.06,1905.88,0.49
5800,-3.8713,-0.1870,0.2372,445.56,734.01,1062.99
5810,-3.8715,-0.1871,0.2102,70.56,-1625.37,812.93
5820,-3.8717,-0.1825,0.1840,54.93,-1078.49,-343.38
5830,-3.8718,-0.1770,0.1704,648.68,-437.87,-1140.32
5840,-3.8719,-0.1720,0.1716,1351.81,1827.76,-640.32
5850,-3.8719,-0.1641,0.1758,1992.43,1984.01,1140.93
5860,-3.8721,-0.1531,0.1736,-991.94,-1484.74,-202.82
5870,-3.8721,-0.1455,0.1654,414.31,-1765.93,-780.94
5880,-3.8721,-0.1497,0.1606,1383.06,1187.19,-499.69
5890,-3.8721,-0.1659,0.1602,851.81,577.82,-343.44
5900,-3.8721,-0.1830,0.1487,-1226.32,515.26,1922.18
5910,-3.8722,-0.1884,0.1207,586.18,-953.49,1375.24
5920,-3.8724,-0.1785,0.0841,-101.32,-531.68,-1281.07
5930,-3.8727,-0.1600,0.0488,1164.31,-1219.12,-93.63
5940,-3.8728,-0.1420,0.0195,-476.32,-1734.74,-1234.31
5950,-3.8729,-0.1276,-0.0077,1836.18,-1484.68,-93.75
5960,-3.8729,-0.1147,-0.0334,-320.07,-969.06,-1156.31
5970,-3.8729,-0.1028,-0.0505,1320.56,-265.87,-1437.62
5980,-3.8729,-0.0918,-0.0526,-1148.19,1546.63,-1718.87
5990,-3.8729,-0.0824,-0.0419,258.06,1281.07,-1765.75
6000,-3.8729,-0.0791,-0.0219,1461.18,-1343.93,-1312.62
6010,-3.8729,-0.0864,-0.0027,1883.06,1218.57,-890.69
6020,-3.8729,-0.0997,0.0044,945.56,-328.31,-687.56
6030,-3.8729,-0.1077,-0.0020,-757.57,577.88,-890.62
6040,-3.8729,-0.1005,-0.0164,-1773.19,-234.62,1874.94
6050,-3.8730,-0.0768,-0.0319,-851.32,1921.63,-453.19
6060,-3.8730,-0.0394,-0.0409,-1820.07,-62.68,937.38
6070,-3.8732,0.0107,-0.0413,-1038.82,-1218.87,-1765.75
6080,-3.8733,0.0726,-0.0406,1383.06,-1281.25,-687.62
6090,-3.8733,0.1443,-0.0438,1304.93,-1203.00,109.25
6100,-3.8734,0.2214,-0.0538,-1523.19,-1609.13,499.88
6110,-3.8735,0.2925,-0.0664,351.81,1109.80,1281.13
6120,-3.8737,0.3425,-0.0671,1445.56,-499.45,-406.43
6130,-3.8735,0.3611,-0.0509,-148.19,-593.14,265.44
6140,-3.8735,0.3524,-0.0282,-1773.19,1485.05,-203.25
6150,-3.8733,0.3358,-0.0129,1117.43,391.30,812.44
6160,-3.8732,0.3309,-0.0094,-1007.57,-1655.64,359.31
6170,-3.8732,0.3489,-0.0120,-1632.57,-1202.51,265.56
6180,-3.8733,0.3920,-0.0134,664.31,-1530.58,1515.56
6190,-3.8734,0.4487,-0.0092,-1820.07,-1718.02,-890.69
6200,-3.8734,0.5076,0.0034,1445.56,-1171.02,-1078.19
6210,-3.8733,0.5719,0.0288,976.81,438.48,1218.75
6220,-3.8732,0.6427,0.0671,1211.18,-311.40,1453.12
6230,-3.8730,0.7080,0.1113,-1726.32,594.97,-1046.75
6240,-3.8728,0.7535,0.1542,-1366.94,-1748.66,1015.81
6250,-3.8727,0.7727,0.1907,461.18,-264.16,-1202.88
6260,-3.8726,0.7653,0.2131,-1085.69,407.71,-374.63
6270,-3.8724,0.7335,0.2111,1961.18,-717.29,-1062.13
6280,-3.8723,0.6917,0.1892,1898.68,-982.97,375.37
6290,-3.8723,0.6658,0.1704,539.31,220.09,562.87
6300,-3.8723,0.6796,0.1760,1226.81,1813.78,640.93
6310,-3.8723,0.7338,0.2098,-1007.57,-1467.47,1562.81
6320,-3.8722,0.8042,0.2561,1929.93,-1139.22,469.12
6330,-3.8721,0.8712,0.2997,-1054.44,782.78,1391.11
6340,-3.8719,0.9276,0.3313,-476.32,-1638.98,-1390.08
6350,-3.8718,0.9679,0.3418,-1257.57,-1591.98,-1561.89
6360,-3.8717,0.9774,0.3270,-101.32,-248.17,141.24
6370,-3.8717,0.9391,0.2977,1117.43,1861.27,266.24
6380,-3.8717,0.8635,0.2748,211.18,-1888.79,422.42
6390,-3.8717,0.7886,0.2693,-1460.69,-826.48,-1968.26
6400,-3.8716,0.7394,0.2777,945.56,-1529.72,1125.49
6410,-3.8715,0.7277,0.2983,-1351.32,-451.72,344.24
6420,-3.8715,0.7648,0.3381,1148.68,-1811.10,-1390.08
6430,-3.8713,0.8402,0.3889,1898.68,-717.29,78.74
6440,-3.8713,0.9138,0.4286,-445.07,1782.84,1250.73
6450,-3.8713,0.9486,0.4459,976.81,-1138.85,-1499.21
6460,-3.8712,0.9327,0.4463,1429.93,1079.96,719.60
6470,-3.8711,0.8761,0.4454,-601.32,1126.77,719.60
6480,-3.8710,0.8112,0.4556,148.68,1017.33,1782.10
6490,-3.8708,0.7716,0.4720,-163.82,-1685.97,-1889.77
6500,-3.8708,0.7736,0.4806,-1226.32,423.34,-530.33
6510,-3.8708,0.8131,0.4762,-976.32,1517.09,985.29
6520,-3.8710,0.8599,0.4739,86.18,954.71,672.79
6530,-3.8711,0.8767,0.4885,-1929.44,657.90,1516.54
6540,-3.8711,0.8464,0.5156,226.81,-1467.04,1844.67
6550,-3.8710,0.7802,0.5441,351.81,-1998.35,-1108.40
6560,-3.8707,0.7097,0.5657,-132.57,1642.09,-1295.84
6570,-3.8705,0.6606,0.5786,-1148.19,407.59,-1936.40
6580,-3.8704,0.6344,0.5863,570.56,-1936.22,-467.65
6590,-3.8702,0.6233,0.5918,1211.18,-951.90,-1108.28
6600,-3.8702,0.6273,0.5953,-210.69,-248.84,-373.90
6610,-3.8702,0.6521,0.5989,304.93,204.35,1235.53
6620,-3.8704,0.6901,0.6089,-523.19,657.47,1048.03
6630,-3.8705,0.7111,0.6241,336.18,1938.84,1516.78
6640,-3.8705,0.6891,0.6367,-976.32,-108.03,391.78
6650,-3.8705,0.6311,0.6414,211.18,1501.34,1735.60
6660,-3.8704,0.5637,0.6385,789.31,-1905.03,63.72
6670,-3.8704,0.4990,0.6361,164.31,1735.47,-1373.78
6680,-3.8702,0.4343,0.6437,-116.94,1422.79,-1983.15
6690,-3.8701,0.3750,0.6565,-398.19,-1608.58,-1436.28
6700,-3.8700,0.3358,0.6648,8.06,31.98,-264.34
6710,-3.8698,0.3234,0.6675,-1007.57,1094.36,501.28
6720,-3.8696,0.3276,0.6667,1398.68,1438.11,126.28
6730,-3.8696,0.3302,0.6611,1945.56,1344.36,-951.84
6740,-3.8695,0.3170,0.6478,-1726.32,625.61,-1967.47
6750,-3.8694,0.2800,0.6305,586.18,-1077.51,1298.10
6760,-3.8693,0.2172,0.6119,-148.19,703.61,32.47
6770,-3.8693,0.1354,0.5912,-195.07,-1671.51,1204.28
6780,-3.8693,0.0474,0.5718,1336.18,-327.88,844.85
6790,-3.8693,-0.0353,0.5552,-1929.44,1187.56,422.97
6800,-3.8693,-0.1056,0.5438,-507.57,-922.00,1329.16
6810,-3.8693,-0.1584,0.5388,-1507.57,1624.76,-920.84
6820,-3.8693,-0.1862,0.5334,-273.19,984.01,-30.21
6830,-3.8693,-0.1768,0.5177,179.93,296.51,-1827.09
6840,-3.8694,-0.1254,0.4918,1383.06,-1719.12,922.85
6850,-3.8696,-0.0552,0.4679,-38.82,-1031.56,1422.79
6860,-3.8699,-0.0101,0.4542,945.56,-93.87,-1999.15
6870,-3.8700,-0.0176,0.4513,-1288.82,-1843.81,703.98
6880,-3.8701,-0.0703,0.4504,1758.06,1781.19,-1827.27
6890,-3.8701,-0.1392,0.4423,-991.94,1671.69,1063.35
6900,-3.8702,-0.1964,0.4260,-1804.44,624.69,-889.77
6910,-3.8704,-0.2292,0.4060,-1132.57,-1453.55,-764.83
6920,-3.8705,-0.2334,0.3866,-1335.69,-16.11,1906.98
6930,-3.8706,-0.2086,0.3683,-1866.94,1499.51,47.61
6940,-3.8708,-0.1654,0.3463,1304.93,-844.18,1828.80
6950,-3.8711,-0.1279,0.3173,-1163.82,343.38,-905.58
6960,-3.8712,-0.1133,0.2875,-366.94,624.69,484.99
6970,-3.8715,-0.1177,0.2655,1508.06,812.26,-874.45
6980,-3.8715,-0.1300,0.2510,945.56,1999.76,0.49
6990,-3.8716,-0.1416,0.2397,-632.57,140.32,-1124.51
7000,-3.8716,-0.1470,0.2294,1883.06,-1297.18,-1796.45
7010,-3.8716,-0.1467,0.2150,1195.56,1374.69,687.93
7020,-3.8717,-0.1454,0.1890,1226.81,-469.06,1625.37
7030,-3.8718,-0.1469,0.1531,1398.68,202.82,1453.49
7040,-3.8719,-0.1559,0.1208,1211.18,-390.93,1422.12
7050,-3.8721,-0.1721,0.1002,54.93,-515.93,-1718.57
7060,-3.8722,-0.1848,0.0873,1976.81,843.38,-31.07
7070,-3.8722,-0.1838,0.0720,351.81,-812.87,1765.75
7080,-3.8723,-0.1664,0.0492,476.81,1234.01,-1140.50
7090,-3.8724,-0.1351,0.0240,-1288.82,-1687.87,-796.81
7100,-3.8726,-0.1041,0.0026,-1288.82,-906.56,-421.88
7110,-3.8726,-0.0922,-0.0100,-1320.07,343.51,1125.00
7120,-3.8726,-0.1090,-0.0143,211.18,-1265.81,578.06
7130,-3.8726,-0.1459,-0.0189,-1945.07,-1812.74,1406.19
7140,-3.8726,-0.1797,-0.0270,1336.18,1593.44,-1765.69
7150,-3.8726,-0.1884,-0.0345,1008.06,562.13,1890.56
7160,-3.8726,-0.1630,-0.0393,-101.32,-406.68,140.50
7170,-3.8727,-0.1144,-0.0442,-851.32,-1015.99,1124.88
7180,-3.8728,-0.0594,-0.0499,1367.43,-1640.87,1578.00
7190,-3.8729,-0.0098,-0.0546,398.68,1624.88,-1656.37
7200,-3.8730,0.0271,-0.0599,-1241.94,1031.19,-406.37
7210,-3.8730,0.0481,-0.0693,-523.19,328.12,1437.38
7220,-3.8732,0.0502,-0.0813,-1835.69,-874.94,-234.56
7230,-3.8732,0.0336,-0.0896,-1570.07,1593.81,-1297.06
7240,-3.8732,0.0105,-0.0907,304.93,531.31,-1531.43
7250,-3.8732,0.0033,-0.0889,1351.81,390.62,-1390.81
7260,-3.8732,0.0261,-0.0870,429.93,625.00,-1859.56
7270,-3.8732,0.0709,-0.0841,-648.19,859.38,499.82
7280,-3.8733,0.1146,-0.0823,1086.18,1234.50,1984.19
7290,-3.8734,0.1475,-0.0829,-1320.07,1468.93,-593.93
7300,-3.8734,0.1754,-0.0854,-1116.94,1390.87,968.57
7310,-3.8735,0.2036,-0.0909,-1538.82,1062.81,-1656.43
7320,-3.8737,0.2301,-0.1014,-1929.44,359.74,-93.93
7330,-3.8737,0.2477,-0.1161,1461.18,-983.95,-1547.12
7340,-3.8737,0.2529,-0.1233,-288.82,1141.05,-1593.99
7350,-3.8737,0.2542,-0.1154,383.06,219.24,-406.49
7360,-3.8735,0.2681,-0.1019,539.31,1234.86,1281.01
7370,-3.8735,0.2974,-0.0905,-1679.44,-1046.39,-1453.37
7380,-3.8735,0.3273,-0.0764,-1929.44,422.42,-1250.18
7390,-3.8735,0.3499,-0.0525,1898.68,-1780.64,-1468.93
7400,-3.8735,0.3704,-0.0187,789.31,1281.92,-218.87
7410,-3.8734,0.3965,0.0212,-585.69,1610.05,-765.69
7420,-3.8732,0.4321,0.0598,-1241.94,-1280.52,156.25
7430,-3.8730,0.4802,0.0844,-679.44,-342.96,1406.31
7440,-3.8729,0.5338,0.0896,1476.81,-1202.21,-1765.50
7450,-3.8728,0.5735,0.0870,336.18,-530.21,-1640.50
7460,-3.8727,0.5872,0.0864,1414.31,-858.28,1468.87
7470,-3.8727,0.5853,0.0851,-835.69,-936.40,-140.50
7480,-3.8726,0.5878,0.0815,-1070.07,-1108.28,1968.87
7490,-3.8726,0.6060,0.0897,-757.57,-1561.40,-93.63
7500,-3.8724,0.6458,0.1270,1570.56,-514.47,-1718.63
7510,-3.8723,0.7041,0.1869,-1335.69,251.22,1609.62
7520,-3.8722,0.7661,0.2469,-1866.94,-76.78,1750.31
7530,-3.8721,0.8086,0.2960,-1929.44,-389.16,-1874.57
7540,-3.8719,0.8175,0.3291,-491.94,1892.15,-1874.45
7550,-3.8718,0.8014,0.3409,648.68,-1873.41,-1952.51
7560,-3.8717,0.7758,0.3374,-1413.82,-357.85,-1358.76
7570,-3.8716,0.7601,0.3234,-695.07,-811.04,-702.51
7580,-3.8715,0.7749,0.2976,1304.93,1392.09,-1499.39
7590,-3.8715,0.8151,0.2788,-804.44,-1904.79,-671.33
7600,-3.8715,0.8418,0.2905,336.18,-310.91,-1358.89
7610,-3.8715,0.8264,0.3276,-241.94,1189.09,-1655.70
7620,-3.8715,0.7805,0.3711,1789.31,1939.09,-233.76
7630,-3.8713,0.7400,0.4098,-85.69,-498.54,-1108.70
7640,-3.8712,0.7391,0.4404,-1273.19,454.53,-889.83
7650,-3.8710,0.7820,0.4614,-1382.57,376.40,500.85
7660,-3.8708,0.8441,0.4794,101.81,-935.97,-1280.40
7670,-3.8706,0.8965,0.5033,54.93,1361.02,891.54
7680,-3.8705,0.9142,0.5269,-1241.94,423.58,-1311.52
7690,-3.8704,0.8746,0.5331,1023.68,-560.73,-14.65
7700,-3.8701,0.7792,0.5170,-38.82,236.02,547.91
7710,-3.8701,0.6677,0.4904,-257.57,-1826.66,-592.77
7720,-3.8700,0.5804,0.4685,1476.81,-1233.09,0.92
7730,-3.8701,0.5331,0.4629,-1695.07,-30.15,-1061.65
7740,-3.8701,0.5317,0.4756,242.43,-748.96,688.35
7750,-3.8702,0.5697,0.4926,70.56,876.04,1532.17
7760,-3.8704,0.6232,0.4969,929.93,-952.03,-1499.08
7770,-3.8704,0.6605,0.4957,-226.32,-389.47,829.04
7780,-3.8704,0.6547,0.5087,554.93,-545.59,1157.17
7790,-3.8704,0.5945,0.5348,-195.07,1110.60,-30.27
7800,-3.8701,0.5024,0.5560,101.81,454.28,563.54
7810,-3.8701,0.4271,0.5598,320.56,-827.15,-217.71
7820,-3.8701,0.4005,0.5511,-1320.07,-342.96,-811.46
7830,-3.8702,0.4180,0.5503,-726.32,-1452.39,-248.96
7840,-3.8702,0.4474,0.5742,1508.06,-1561.71,1110.41
7850,-3.8702,0.4518,0.6173,1273.68,1500.85,-1030.15
7860,-3.8700,0.4174,0.6521,1836.18,-983.52,1173.03
7870,-3.8699,0.3612,0.6583,1429.93,-530.46,-45.65
7880,-3.8698,0.3074,0.6354,-1757.57,266.30,-389.34
7890,-3.8698,0.2709,0.5941,-648.19,1328.67,-717.53
7900,-3.8698,0.2545,0.5548,-1320.07,47.36,938.66
7910,-3.8699,0.2467,0.5343,586.18,-983.89,-623.96
7920,-3.8699,0.2324,0.5298,-413.82,391.05,-123.96
7930,-3.8698,0.2010,0.5322,1758.06,-187.07,-1920.90
7940,-3.8696,0.1477,0.5393,1742.43,125.37,1547.91
7950,-3.8695,0.0826,0.5557,-1085.69,1031.49,1922.91
7960,-3.8694,0.0275,0.5862,-1413.82,-874.88,-545.84
7970,-3.8691,-0.0092,0.6190,-476.32,-968.75,-1530.15
7980,-3.8689,-0.0349,0.6343,-1163.82,-750.06,1610.53
7990,-3.8688,-0.0598,0.6205,-460.69,1203.00,1969.97
8000,-3.8688,-0.0878,0.5814,351.81,-562.62,1548.03
8010,-3.8689,-0.1222,0.5354,773.68,-1562.68,1251.10
8020,-3.8691,-0.1682,0.4965,367.43,546.63,-108.34
8030,-3.8693,-0.2227,0.4630,-1523.19,-437.87,-1139.71
8040,-3.8694,-0.2697,0.4287,-491.94,-719.24,1485.23
8050,-3.8696,-0.2886,0.3945,1492.43,-1109.92,-483.58
8060,-3.8698,-0.2750,0.3750,-929.44,-1484.99,1750.73
8070,-3.8699,-0.2393,0.3806,804.93,15.08,1016.36
8080,-3.8700,-0.2025,0.4017,1383.06,733.89,-1686.77
8090,-3.8700,-0.1904,0.4241,-1913.82,-562.93,1844.48
8100,-3.8700,-0.2181,0.4373,-366.94,-1703.55,-1577.33
8110,-3.8700,-0.2792,0.4375,86.18,-16.05,-1702.33
8120,-3.8700,-0.3464,0.4272,273.68,15.08,407.10
8130,-3.8701,-0.3928,0.4060,-335.69,-1297.61,875.79
8140,-3.8704,-0.3999,0.3665,1726.81,-16.42,-499.27
8150,-3.8706,-0.3649,0.3083,820.56,-1078.92,-764.95
8160,-3.8708,-0.3177,0.2515,1304.93,-516.36,719.30
8170,-3.8712,-0.3031,0.2219,-663.82,202.45,-843.26
8180,-3.8713,-0.3341,0.2225,1211.18,421.26,1828.55
8190,-3.8713,-0.3811,0.2332,1242.43,499.33,750.43
8200,-3.8713,-0.4067,0.2389,-773.19,1858.58,937.93
8210,-3.8713,-0.3992,0.2419,-54.44,-1407.10,187.93
8220,-3.8715,-0.3650,0.2485,914.31,-1016.42,-1405.82
8230,-3.8715,-0.3196,0.2538,1289.31,-172.61,750.43
8240,-3.8716,-0.2804,0.2466,-898.19,499.33,-1718.26
8250,-3.8717,-0.2656,0.2231,117.43,-422.42,-1421.45
8260,-3.8718,-0.2898,0.1893,-1991.94,577.58,1734.80
8270,-3.8719,-0.3394,0.1503,-1085.69,249.39,359.74
8280,-3.8722,-0.3746,0.1060,570.56,-750.67,-1452.88
8290,-3.8723,-0.3713,0.0665,54.93,1577.39,343.93
8300,-3.8726,-0.3339,0.0414,476.81,530.52,-1999.88
8310,-3.8728,-0.2760,0.0221,1273.68,1311.83,-78.06
8320,-3.8729,-0.2170,0.0066,679.93,-1156.80,-734.38
8330,-3.8729,-0.1815,0.0023,226.81,858.95,937.50
8340,-3.8729,-0.1869,0.0059,773.68,312.13,687.50
8350,-3.8729,-0.2188,0.0033,86.18,765.26,1531.25
8360,-3.8729,-0.2406,-0.0154,8.06,437.07,1984.38
8370,-3.8729,-0.2285,-0.0426,1211.18,-1953.61,1249.94
8380,-3.8730,-0.1853,-0.0632,-1241.94,-1437.99,-593.87
8390,-3.8730,-0.1311,-0.0702,289.31,-78.49,1499.82
8400,-3.8730,-0.0836,-0.0632,-773.19,-969.06,577.94
8410,-3.8730,-0.0503,-0.0535,1304.93,-78.31,124.82
8420,-3.8732,-0.0343,-0.0536,1570.56,1171.75,-890.75
8430,-3.8732,-0.0334,-0.0659,-382.57,1156.13,1484.25
8440,-3.8733,-0.0376,-0.0865,-273.19,-422.00,-375.18
8450,-3.8733,-0.0341,-0.1053,-804.44,937.38,1906.07
8460,-3.8733,-0.0159,-0.1117,-351.32,-1468.87,484.13
8470,-3.8734,0.0153,-0.1091,1976.81,1718.69,-875.24
8480,-3.8734,0.0493,-0.1006,1961.18,-1968.75,-1968.99
8490,-3.8734,0.0789,-0.0801,-1679.44,-874.94,1312.26
8500,-3.8734,0.1073,-0.0493,-1898.19,1750.12,1390.44
8510,-3.8734,0.1377,-0.0225,1742.43,1687.68,-1515.75
8520,-3.8734,0.1653,-0.0098,1633.06,1125.24,-109.44
8530,-3.8733,0.1881,-0.0109,1164.31,-1249.69,78.06
8540,-3.8734,0.2134,-0.0214,86.18,-1390.26,-1953.19
8550,-3.8735,0.2482,-0.0342,-679.44,1265.99,-1515.69
8560,-3.8737,0.2939,-0.0430,-226.32,-374.57,-1234.50
8570,-3.8737,0.3474,-0.0417,1633.06,-1499.45,328.00
8580,-3.8737,0.4028,-0.0297,476.81,-1343.08,31.13
8590,-3.8737,0.4576,-0.0112,-429.44,203.86,-1875.06
8600,-3.8735,0.5129,0.0072,-1413.82,-1436.65,-1718.81
8610,-3.8734,0.5681,0.0216,1664.31,922.85,-453.12
8620,-3.8732,0.6090,0.0375,726.81,-1233.28,937.50
8630,-3.8730,0.6116,0.0613,1961.18,798.03,-1562.44
8640,-3.8728,0.5681,0.0865,-1710.69,-155.09,1156.31
8650,-3.8726,0.4977,0.1019,726.81,-920.78,1047.00
8660,-3.8724,0.4371,0.1014,-288.82,1047.79,-31.07
8670,-3.8723,0.4189,0.0870,-38.82,985.17,-421.69
8680,-3.8723,0.4567,0.0688,1633.06,-858.58,-1374.88
8690,-3.8724,0.5364,0.0637,-1538.82,813.35,-1421.75
8700,-3.8726,0.6199,0.0800,664.31,157.29,-1312.38
8710,-3.8726,0.6807,0.1141,-648.19,-1764.47,1359.50
8720,-3.8726,0.7106,0.1598,-866.94,-1389.34,-452.94
8730,-3.8723,0.7059,0.2064,-1038.82,454.47,969.06
8740,-3.8721,0.6852,0.2429,-1632.57,-1576.78,328.49
8750,-3.8719,0.6881,0.2660,-288.82,-904.97,-577.70
8760,-3.8718,0.7296,0.2808,86.18,-1951.78,-265.14
8770,-3.8717,0.7795,0.2917,1398.68,-61.10,281.74
8780,-3.8718,0.8037,0.2930,-210.69,1345.21,1969.30
8790,-3.8719,0.8024,0.2762,-1116.94,1501.53,-1108.83
8800,-3.8719,0.7809,0.2524,-1288.82,-639.10,1312.99
8810,-3.8719,0.7266,0.2461,-38.82,313.96,-1593.26
8820,-3.8718,0.6478,0.2733,1008.06,-498.60,-1452.70
8830,-3.8716,0.5851,0.3268,-1070.07,-1014.40,1141.11
8840,-3.8713,0.5760,0.3882,-1101.32,1829.22,1391.24
8850,-3.8711,0.6278,0.4431,1742.43,1688.60,1641.36
8860,-3.8710,0.7123,0.4818,367.43,719.97,-1780.40
8870,-3.8710,0.7838,0.4990,-820.07,1673.22,969.67
8880,-3.8712,0.8119,0.4929,336.18,-123.47,-264.71
8890,-3.8713,0.7988,0.4731,-70.07,-904.72,-1874.08
8900,-3.8715,0.7512,0.4479,-1741.94,564.03,-1530.33
8910,-3.8715,0.6737,0.4213,164.31,1329.59,1157.10
8920,-3.8715,0.5927,0.3976,-1757.57,1923.16,1485.17
8930,-3.8715,0.5420,0.3910,-132.57,-1108.28,-1264.89
8940,-3.8713,0.5393,0.4235,1383.06,-1952.09,1375.73
8950,-3.8712,0.5753,0.4930,1039.31,-1795.84,-1202.33
8960,-3.8710,0.6161,0.5676,1648.68,-889.53,-1014.71
8970,-3.8707,0.6302,0.6102,-1132.57,657.41,-202.03
8980,-3.8705,0.6138,0.6132,679.93,-1889.40,-1248.84
8990,-3.8704,0.5859,0.5978,-1429.44,-1514.47,-748.84
9000,-3.8702,0.5656,0.5854,-991.94,516.72,1938.66
9010,-3.8702,0.5558,0.5846,398.68,-1061.40,-514.53
9020,-3.8701,0.5475,0.5999,-851.32,-1170.84,1094.85
9030,-3.8700,0.5288,0.6345,-1913.82,782.29,407.41
9040,-3.8699,0.4945,0.6798,-304.44,1219.73,1829.35
9050,-3.8696,0.4520,0.7175,-695.07,-983.46,345.03
9060,-3.8695,0.4093,0.7371,1867.43,-155.40,-1795.53
9070,-3.8694,0.3676,0.7424,398.68,-1655.46,1782.65
9080,-3.8694,0.3302,0.7369,-945.07,-968.08,-1154.85
9090,-3.8694,0.3119,0.7161,-1726.32,-1671.26,-1779.85
9100,-3.8695,0.3199,0.6790,-70.07,-343.20,-61.16
9110,-3.8695,0.3324,0.6393,961.18,-1093.14,251.28
9120,-3.8696,0.3159,0.6193,-1445.07,1828.74,1188.72
9130,-3.8696,0.2637,0.6226,445.56,-733.76,251.16
9140,-3.8696,0.1993,0.6322,1758.06,-312.01,1063.66
9150,-3.8696,0.1469,0.6417,1523.68,922.24,-1170.65
9160,-3.8695,0.1125,0.6555,-1195.07,-1859.13,844.97
9170,-3.8695,0.0905,0.6737,-1585.69,-93.57,-967.53
9180,-3.8694,0.0726,0.6884,-413.82,-1765.50,1032.53
9190,-3.8694,0.0591,0.6880,1304.93,109.50,1626.34
9200,-3.8694,0.0519,0.6675,-429.44,62.56,79.47
9210,-3.8695,0.0464,0.6290,-1351.32,1437.56,845.03
9220,-3.8696,0.0341,0.5814,1945.56,515.69,1110.60
9230,-3.8698,0.0043,0.5339,367.43,-1578.06,-1983.28
9240,-3.8698,-0.0516,0.4991,554.93,343.75,1141.66
9250,-3.8698,-0.1335,0.4896,1398.68,-93.87,-639.71
9260,-3.8696,-0.2242,0.5017,-1085.69,-1312.81,-686.58
9270,-3.8695,-0.2990,0.5154,-695.07,233.89,-1014.65
9280,-3.8694,-0.3409,0.5103,1742.43,1983.76,485.35
9290,-3.8695,-0.3448,0.4812,367.43,1327.45,-1420.90
9300,-3.8696,-0.3173,0.4446,-132.57,1608.64,1329.04
9310,-3.8699,-0.2717,0.4197,-601.32,921.20,-1749.15
9320,-3.8701,-0.2296,0.4081,1226.81,1733.83,-530.46
9330,-3.8702,-0.2075,0.4004,-1382.57,249.51,-1764.83
9340,-3.8704,-0.2102,0.3918,1445.56,-734.80,-1827.39
9350,-3.8705,-0.2382,0.3855,1101.81,-1828.55,-1155.52
9360,-3.8705,-0.2859,0.3837,1523.68,1358.89,828.86
9370,-3.8705,-0.3374,0.3782,-585.69,1124.39,47.61
9380,-3.8706,-0.3716,0.3577,820.56,421.20,-1046.14
9390,-3.8707,-0.3757,0.3297,445.56,1796.14,-61.83
9400,-3.8708,-0.3521,0.3152,-85.69,-1782.04,-593.14
9410,-3.8710,-0.3118,0.3171,-1054.44,358.64,-905.64
9420,-3.8711,-0.2666,0.3202,101.81,608.76,-233.76
9430,-3.8711,-0.2279,0.3102,1883.06,999.45,672.49
9440,-3.8712,-0.2040,0.2893,-1163.82,-281.74,1109.92
9450,-3.8713,-0.2004,0.2689,1898.68,1046.45,1234.92
9460,-3.8715,-0.2151,0.2520,-1648.19,-1562.93,1625.49
9470,-3.8716,-0.2358,0.2319,476.81,265.20,-1312.01
9480,-3.8716,-0.2496,0.2085,1820.56,1702.64,219.18
9490,-3.8717,-0.2532,0.1892,54.93,-1297.36,1687.87
9500,-3.8718,-0.2491,0.1781,-398.19,233.83,-874.63
9510,-3.8718,-0.2347,0.1714,117.43,-1187.99,672.18
9520,-3.8719,-0.2086,0.1609,1961.18,1952.64,1937.81
9530,-3.8721,-0.1782,0.1412,1304.93,608.95,-1624.69
9540,-3.8722,-0.1506,0.1119,1195.56,-1906.62,1812.74
9550,-3.8723,-0.1302,0.0762,726.81,-1656.56,1031.43
9560,-3.8724,-0.1240,0.0430,-663.82,1765.32,1109.50
9570,-3.8726,-0.1349,0.0227,133.06,1515.38,-1593.69
9580,-3.8726,-0.1543,0.0149,-1257.57,-1078.43,718.75
9590,-3.8727,-0.1664,0.0120,258.06,1921.57,-921.88
9600,-3.8727,-0.1631,0.0101,-1288.82,1546.51,453.12
9610,-3.8728,-0.1458,0.0057,-866.94,1312.13,812.50
9620,-3.8729,-0.1160,-0.0055,1351.81,749.69,703.12
9630,-3.8730,-0.0737,-0.0265,1164.31,-687.74,203.06
9640,-3.8733,-0.0197,-0.0552,-1429.44,624.82,-765.69
9650,-3.8734,0.0397,-0.0831,1492.43,953.06,-1906.37
9660,-3.8735,0.0920,-0.0984,1086.18,1359.44,1656.07
9670,-3.8737,0.1213,-0.0978,-210.69,-593.63,-531.49
9680,-3.8735,0.1152,-0.0886,-460.69,-515.44,406.01
9690,-3.8735,0.0742,-0.0771,-1241.94,656.43,-62.68
9700,-3.8733,0.0198,-0.0709,1508.06,-1874.88,327.94
9710,-3.8732,-0.0128,-0.0762,-1460.69,-1078.12,109.19
9720,-3.8732,-0.0044,-0.0913,-1632.57,-1734.44,-1937.68
9730,-3.8732,0.0352,-0.1074,-554.44,328.06,1265.44
9740,-3.8733,0.0776,-0.1157,508.06,-1749.94,-1734.62
9750,-3.8734,0.1042,-0.1185,1945.56,1187.62,-1703.37
9760,-3.8735,0.1252,-0.1232,1351.81,828.31,-1781.49
9770,-3.8737,0.1577,-0.1317,39.31,234.62,-1468.99
9780,-3.8738,0.2052,-0.1351,195.56,-859.07,-515.93
9790,-3.8738,0.2588,-0.1194,-1726.32,-1296.51,-1859.68
9800,-3.8738,0.3066,-0.0831,1133.06,719.24,-234.62
9810,-3.8737,0.3468,-0.0415,-741.94,1359.92,-125.18
9820,-3.8734,0.3818,-0.0089,398.68,-1311.83,609.25
9830,-3.8733,0.4120,0.0118,883.06,-1139.89,484.31
9840,-3.8733,0.4391,0.0217,742.43,1516.42,-1156.25
9850,-3.8733,0.4648,0.0219,211.18,-1217.90,-281.25
9860,-3.8733,0.4863,0.0190,-491.94,-1202.27,-250.00
9870,-3.8732,0.5037,0.0237,-1741.94,-1561.58,265.62
9880,-3.8732,0.5242,0.0454,476.81,-967.77,-1718.75
9890,-3.8730,0.5583,0.0880,-898.19,1813.48,1421.94
9900,-3.8729,0.6143,0.1481,-523.19,-733.34,1422.00
9910,-3.8728,0.6818,0.2031,-1366.94,-1045.72,-1624.76
9920,-3.8727,0.7429,0.2264,-726.32,-1998.72,-468.38
9930,-3.8726,0.7781,0.2188,-898.19,985.78,-999.57
9940,-3.8726,0.7694,0.1978,-398.19,1.46,-343.32
9950,-3.8726,0.7256,0.1771,-1507.57,1313.96,-1452.76
9960,-3.8726,0.6832,0.1616,883.06,-1326.72,1672.18
9970,-3.8726,0.6744,0.1589,-538.82,688.78,-1671.57
9980,-3.8724,0.7042,0.1807,-1663.82,345.03,1484.68
9990,-3.8723,0.7511,0.2222,-1851.32,-873.66,-218.44
10000,-3.8719,0.7861,0.2648,148.68,438.96,16.05
10010,-3.8717,0.7981,0.2999,633.06,1892.15,391.11
10020,-3.8715,0.7959,0.3311,-1835.69,-1607.85,172.42
10030,-3.8713,0.7924,0.3573,1883.06,-1623.47,-733.76
10040,-3.8711,0.7904,0.3673,1429.93,1735.90,610.05
10050,-3.8711,0.7916,0.3549,1179.93,-982.85,-1530.58
10060,-3.8711,0.7954,0.3291,1336.18,1423.40,563.17
10070,-3.8712,0.7971,0.3091,1820.56,-1873.47,766.24
10080,-3.8713,0.7932,0.3142,-1960.69,-435.97,1859.92
10090,-3.8713,0.7780,0.3495,1539.31,220.28,-1546.26
10100,-3.8712,0.7531,0.4019,-413.82,735.84,-1139.95
10110,-3.8710,0.7285,0.4541,398.68,-561.04,1406.98
10120,-3.8707,0.7037,0.4979,1258.06,-1873.60,1078.98
10130,-3.8705,0.6766,0.5232,-1913.82,-264.28,922.79
10140,-3.8704,0.6572,0.5150,-1382.57,-1029.97,-717.77
10150,-3.8702,0.6504,0.4777,133.06,1923.16,1985.35
10160,-3.8704,0.6561,0.4327,-741.94,1141.85,-155.33
10170,-3.8705,0.6752,0.4026,-7.57,-608.15,-1499.21
10180,-3.8706,0.7026,0.4019,-1570.07,-467.47,1188.23
10190,-3.8707,0.7208,0.4323,1945.56,-561.16,-1077.39
10200,-3.8706,0.7080,0.4791,273.68,-670.47,1172.67
10210,-3.8705,0.6631,0.5135,-1366.94,1329.47,-1311.58
10220,-3.8702,0.6044,0.5247,883.06,1735.66,844.73
10230,-3.8701,0.5499,0.5243,1367.43,-842.59,1985.35
10240,-3.8700,0.5167,0.5184,-1601.32,-889.59,969.73
10250,-3.8700,0.5133,0.5074,-1851.32,-1639.65,1250.98
10260,-3.8701,0.5260,0.5006,1711.18,954.10,-514.65
10270,-3.8701,0.5327,0.5090,-663.82,79.10,1047.85
10280,-3.8702,0.5214,0.5331,195.56,1157.29,-108.40
10290,-3.8701,0.4940,0.5620,-1257.57,235.35,672.91
10300,-3.8701,0.4628,0.5850,-757.57,-61.58,-1170.84
10310,-3.8700,0.4384,0.5973,-757.57,-1124.15,1563.60
10320,-3.8700,0.4248,0.5992,117.43,453.98,-155.09
10330,-3.8699,0.4175,0.5912,-1616.94,703.92,923.03
10340,-3.8699,0.4049,0.5769,1445.56,-327.33,954.22
10350,-3.8699,0.3779,0.5667,-163.82,1844.48,688.60
10360,-3.8699,0.3378,0.5687,383.06,531.98,735.47
10370,-3.8699,0.2959,0.5801,-757.57,797.49,1204.22
10380,-3.8699,0.2660,0.5912,1883.06,-1749.45,1626.10
10390,-3.8699,0.2524,0.5970,-1945.07,-327.64,-1811.40
10400,-3.8699,0.2480,0.6001,320.56,422.36,-733.22
10410,-3.8698,0.2400,0.6044,-241.94,812.93,735.53
10420,-3.8698,0.2167,0.6066,-1273.19,1359.80,-1717.59
10430,-3.8698,0.1755,0.5977,-257.57,1640.99,-436.34
10440,-3.8696,0.1212,0.5748,-1523.19,500.31,63.66
10450,-3.8698,0.0632,0.5441,-476.32,1578.31,-905.15
10460,-3.8698,0.0154,0.5116,101.81,1640.75,985.41
10470,-3.8699,-0.0139,0.4812,1976.81,1484.38,-1405.27
10480,-3.8700,-0.0262,0.4545,-1773.19,1609.31,-124.08
10490,-3.8700,-0.0275,0.4347,648.68,-1812.56,1125.85
10500,-3.8701,-0.0214,0.4229,492.43,-343.81,-1171.08
10510,-3.8701,-0.0154,0.4170,1273.68,-1859.44,1703.92
10520,-3.8701,-0.0264,0.4166,-1960.69,1390.56,-1796.08
10530,-3.8701,-0.0616,0.4198,633.06,1343.69,-311.71
10540,-3.8700,-0.1067,0.4240,117.43,1749.88,1188.29
10550,-3.8700,-0.1395,0.4186,-1648.19,-1718.99,1328.92
10560,-3.8701,-0.1501,0.3928,-1851.32,1593.44,-874.21
10570,-3.8702,-0.1473,0.3552,789.31,-1703.43,-1171.14
10580,-3.8704,-0.1481,0.3202,1148.68,1484.07,1563.17
10590,-3.8705,-0.1589,0.2931,1054.93,999.69,906.86
10600,-3.8706,-0.1770,0.2787,-335.69,1530.88,1563.05
10610,-3.8707,-0.1974,0.2778,1351.81,-312.87,-952.64
10620,-3.8707,-0.2098,0.2839,-1257.57,-422.30,641.11
10630,-3.8708,-0.2057,0.2893,1148.68,358.95,-1952.58
10640,-3.8710,-0.1886,0.2899,1679.93,1046.45,-452.58
10650,-3.8710,-0.1713,0.2806,-132.57,1124.57,953.67
10660,-3.8711,-0.1653,0.2615,-1913.82,-62.87,1828.61
10670,-3.8712,-0.1735,0.2368,-1148.19,1484.01,1828.61
10680,-3.8713,-0.1869,0.2084,1804.93,-1672.24,1078.55
10690,-3.8715,-0.1936,0.1812,86.18,-1312.87,125.37
10700,-3.8717,-0.1901,0.1593,-773.19,-797.30,-562.19
10710,-3.8718,-0.1805,0.1425,-320.07,405.82,-702.82
10720,-3.8719,-0.1726,0.1271,898.68,-1750.37,-124.76
10730,-3.8719,-0.1716,0.1095,1914.31,280.88,1109.62
10740,-3.8721,-0.1792,0.0914,-1960.69,-1969.12,-1031.07
10750,-3.8721,-0.1930,0.0751,1070.56,-281.62,1640.75
10760,-3.8721,-0.2074,0.0603,-695.07,1624.57,1500.12
10770,-3.8721,-0.2141,0.0514,1461.18,-266.05,-1640.56
10780,-3.8721,-0.2074,0.0524,601.81,-1406.68,-937.44
10790,-3.8721,-0.1871,0.0585,1461.18,-1281.68,-1515.56
10800,-3.8721,-0.1559,0.0576,54.93,-500.37,140.69
10810,-3.8722,-0.1245,0.0459,54.93,-609.68,609.44
10820,-3.8723,-0.1077,0.0305,70.56,1890.38,1078.19
10830,-3.8724,-0.1097,0.0151,-1773.19,-78.37,1968.75
10840,-3.8726,-0.1210,-0.0027,1961.18,1952.88,-421.88
10850,-3.8726,-0.1266,-0.0231,523.68,-328.37,1812.44
10860,-3.8726,-0.1187,-0.0398,-195.07,1062.19,249.94
10870,-3.8727,-0.0996,-0.0476,820.56,-1078.37,-1578.25
10880,-3.8728,-0.0728,-0.0499,-741.94,1921.63,-47.00
10890,-3.8728,-0.0363,-0.0516,-1304.44,1624.82,781.13
10900,-3.8729,0.0114,-0.0542,-632.57,1406.13,1046.75
10910,-3.8730,0.0625,-0.0546,1461.18,1062.50,1437.38
10920,-3.8732,0.1046,-0.0530,8.06,1015.75,-1015.75
10930,-3.8732,0.1295,-0.0530,1398.68,1218.93,-1672.00
10940,-3.8732,0.1321,-0.0563,586.18,1218.99,-593.87
10950,-3.8730,0.1171,-0.0646,914.31,797.12,1671.75
10960,-3.8729,0.1027,-0.0743,-1007.57,-265.44,515.44
10970,-3.8729,0.1056,-0.0800,1148.68,-1515.44,-1172.06
10980,-3.8729,0.1283,-0.0801,1523.68,1765.81,-515.81
10990,-3.8729,0.1573,-0.0739,429.93,1750.24,-1672.06
11000,-3.8730,0.1787,-0.0630,148.68,-1452.82,-15.81
11010,-3.8730,0.1975,-0.0541,-1116.94,-62.19,1156.07
11020,-3.8732,0.2263,-0.0531,1289.31,1078.49,-1890.75
11030,-3.8733,0.2662,-0.0581,976.81,1203.55,-1343.87
11040,-3.8734,0.3110,-0.0669,-1913.82,562.99,-922.00
11050,-3.8734,0.3552,-0.0759,-179.44,-561.95,281.07
11060,-3.8735,0.3921,-0.0820,1476.81,-1718.08,-1000.18
11070,-3.8735,0.4138,-0.0817,-1804.44,1500.73,-593.93
11080,-3.8734,0.4136,-0.0699,976.81,1547.67,1327.94
11090,-3.8733,0.3969,-0.0541,945.56,-952.33,406.07
11100,-3.8733,0.3851,-0.0426,-1195.07,1078.86,-47.00
11110,-3.8732,0.3987,-0.0342,1304.93,-1452.39,-1047.00
11120,-3.8730,0.4429,-0.0237,-960.69,-374.27,859.25
11130,-3.8730,0.5006,-0.0098,695.56,969.60,-1671.94
11140,-3.8729,0.5471,-0.0020,86.18,-1249.02,281.19
11150,-3.8729,0.5706,-0.0050,-1960.69,-248.96,-812.56
11160,-3.8728,0.5703,-0.0045,1039.31,-639.53,-1000.06
11170,-3.8727,0.5558,0.0116,1008.06,-577.03,-593.81
11180,-3.8724,0.5479,0.0398,-851.32,1485.41,328.12
11190,-3.8723,0.5636,0.0685,-1866.94,1094.79,1328.19
11200,-3.8722,0.5991,0.0878,148.68,766.72,1218.87
11210,-3.8722,0.6379,0.0936,695.56,-764.47,-781.13
11220,-3.8722,0.6682,0.0874,1664.31,-14.40,-890.50
11230,-3.8722,0.6903,0.0764,1539.31,-811.22,1281.37
11240,-3.8723,0.7118,0.0774,367.43,1782.59,-437.38
11250,-3.8723,0.7351,0.1029,-882.57,1907.59,-78.00
11260,-3.8722,0.7587,0.1511,-1898.19,1173.28,-1124.82
11270,-3.8721,0.7844,0.2103,1117.43,-654.79,-265.38
11280,-3.8718,0.8156,0.2603,414.31,-1076.60,1344.12
11290,-3.8717,0.8448,0.2855,398.68,1314.09,-1874.51
11300,-3.8716,0.8579,0.2836,148.68,548.52,938.05
11310,-3.8716,0.8484,0.2618,1820.56,298.52,-1530.70
11320,-3.8715,0.8208,0.2344,601.81,1517.27,250.49
11330,-3.8715,0.7825,0.2220,1070.56,-1998.41,-1155.82
11340,-3.8713,0.7461,0.2389,164.31,423.40,1906.68
11350,-3.8712,0.7274,0.2800,-491.94,-1420.47,828.55
11360,-3.8712,0.7292,0.3312,1117.43,-154.85,-515.14
11370,-3.8711,0.7418,0.3796,1351.81,-1607.97,-1593.14
11380,-3.8710,0.7531,0.4163,-1038.82,595.15,-1796.14
11390,-3.8708,0.7579,0.4349,398.68,1282.71,-1202.33
11400,-3.8707,0.7611,0.4352,1023.68,-326.66,-1030.46
11410,-3.8706,0.7687,0.4237,1429.93,-295.41,1047.67
11420,-3.8706,0.7794,0.4186,-1601.32,-1764.16,750.79
11430,-3.8707,0.7889,0.4290,-226.32,1579.59,-639.83
11440,-3.8707,0.7917,0.4467,992.43,-1092.22,-1702.33
11450,-3.8707,0.7806,0.4615,1351.81,1173.40,1813.35
11460,-3.8707,0.7552,0.4719,-70.07,-920.41,-1952.27
11470,-3.8707,0.7224,0.4827,679.93,407.71,-764.71
11480,-3.8706,0.6923,0.4984,476.81,1782.65,1407.17
11490,-3.8705,0.6677,0.5214,617.43,-201.78,719.67
11500,-3.8704,0.6438,0.5497,1476.81,-1264.34,735.35
11510,-3.8702,0.6260,0.5731,-1585.69,-1639.40,516.66
11520,-3.8702,0.6223,0.5760,133.06,1360.60,-1170.78
11530,-3.8702,0.6274,0.5608,-335.69,1735.53,-1420.78
11540,-3.8704,0.6272,0.5469,320.56,-217.53,-358.34
11550,-3.8705,0.6123,0.5459,289.31,-1998.78,-202.09
11560,-3.8705,0.5831,0.5586,-1616.94,1876.16,1907.29
11570,-3.8705,0.5461,0.5784,-1351.32,-498.90,-889.59
11580,-3.8704,0.5145,0.5925,1914.31,-1967.71,1547.97
11590,-3.8704,0.4994,0.5994,1867.43,-155.27,-639.53
11600,-3.8702,0.4996,0.6002,-70.07,719.67,94.91
11610,-3.8702,0.5077,0.5925,-38.82,829.04,282.41
11620,-3.8702,0.5072,0.5817,992.43,-155.27,1266.72
11630,-3.8701,0.4808,0.5795,929.93,-1545.90,438.60
11640,-3.8700,0.4271,0.5896,1554.93,-1827.21,1672.97
11650,-3.8699,0.3616,0.5994,-1320.07,-530.46,-764.53
11660,-3.8698,0.3062,0.5953,-1710.69,719.42,-1264.47
11670,-3.8698,0.2697,0.5844,-804.44,203.67,-639.47
11680,-3.8698,0.2434,0.5862,-1476.32,-1202.64,-483.28
11690,-3.8696,0.2152,0.6061,-835.69,-968.32,1266.72
11700,-3.8695,0.1844,0.6310,-445.07,1578.49,298.03
11710,-3.8695,0.1571,0.6383,-382.57,765.93,-858.15
11720,-3.8695,0.1351,0.6093,117.43,1703.43,-61.28
11730,-3.8695,0.1161,0.5513,1304.93,1984.62,1266.78
11740,-3.8698,0.0913,0.4906,-1132.57,-1437.32,-405.21
11750,-3.8699,0.0564,0.4550,-304.44,-1203.00,-1920.96
11760,-3.8700,0.0131,0.4525,-773.19,-1765.56,-421.02
11770,-3.8699,-0.0411,0.4705,1679.93,1921.88,688.35
11780,-3.8699,-0.1130,0.4924,-1257.57,234.25,-170.96
11790,-3.8698,-0.1954,0.5045,1539.31,-953.37,-1545.96
11800,-3.8698,-0.2664,0.5076,-1007.57,593.32,-436.52
11810,-3.8698,-0.3007,0.5037,1914.31,983.83,-764.65
11820,-3.8698,-0.2765,0.4827,1523.68,483.76,1266.60
11830,-3.8699,-0.1989,0.4398,617.43,1796.33,16.54
11840,-3.8702,-0.1167,0.3875,-1445.07,312.07,-999.15
11850,-3.8705,-0.0854,0.3457,1070.56,1609.13,719.48
11860,-3.8708,-0.1166,0.3152,1070.56,265.44,-311.83
11870,-3.8710,-0.1813,0.2833,1086.18,359.13,953.74
11880,-3.8711,-0.2412,0.2480,804.93,280.88,313.05
11890,-3.8712,-0.2747,0.2189,1133.06,-234.86,656.68
11900,-3.8713,-0.2837,0.2029,851.81,30.70,1781.68
11910,-3.8713,-0.2760,0.2017,-304.44,1983.76,109.74
11920,-3.8715,-0.2523,0.2061,679.93,1827.58,-593.38
11930,-3.8715,-0.2150,0.2017,-288.82,-1609.92,-1624.63
11940,-3.8715,-0.1737,0.1840,492.43,1827.70,219.12
11950,-3.8716,-0.1393,0.1582,1773.68,-437.87,1281.56
11960,-3.8717,-0.1190,0.1329,-1820.07,265.32,-1530.94
11970,-3.8717,-0.1163,0.1154,773.68,1031.01,234.62
11980,-3.8718,-0.1338,0.1099,1117.43,-1218.99,-984.19
11990,-3.8718,-0.1654,0.1096,-1116.94,-1922.18,-1171.69
12000,-3.8718,-0.1930,0.1027,-1163.82,-1953.49,-1187.32
12010,-3.8718,-0.2021,0.0897,-695.07,1155.82,-1859.19
12020,-3.8718,-0.1943,0.0826,-1866.94,-500.43,640.75
12030,-3.8719,-0.1754,0.0881,-866.94,-1406.68,-1015.50
12040,-3.8719,-0.1456,0.0994,1554.93,-703.49,-1906.13
12050,-3.8719,-0.1045,0.1053,1367.43,734.07,1468.93
12060,-3.8719,-0.0576,0.1029,-1366.94,1499.76,125.18
12070,-3.8721,-0.0154,0.0978,633.06,1187.38,-1906.07
12080,-3.8722,0.0154,0.0944,-1960.69,531.19,-15.44
12090,-3.8722,0.0349,0.0944,1976.81,78.12,-1843.57
12100,-3.8723,0.0458,0.0948,476.81,78.19,-93.57
12110,-3.8723,0.0525,0.0864,1867.43,140.69,359.56
12120,-3.8726,0.0566,0.0680,-1273.19,-937.44,-593.63
12130,-3.8727,0.0555,0.0466,-741.94,703.19,1797.00
12140,-3.8728,0.0514,0.0304,-882.57,1968.81,484.44
12150,-3.8729,0.0502,0.0232,-1413.82,-109.31,93.75
12160,-3.8730,0.0585,0.0231,-1570.07,-1031.19,609.38
12170,-3.8732,0.0798,0.0228,-507.57,-1046.81,1390.62
12180,-3.8733,0.1143,0.0171,-1773.19,-1078.00,-1546.88
12190,-3.8733,0.1571,0.0081,-1366.94,-1812.32,265.62
12200,-3.8734,0.1984,0.0006,117.43,1031.56,-1000.00
12210,-3.8734,0.2275,-0.0035,1398.68,78.49,-1234.38
12220,-3.8734,0.2394,-0.0100,1133.06,-452.70,-984.44
12230,-3.8734,0.2389,-0.0243,-1351.32,-1280.82,-1812.56
12240,-3.8735,0.2399,-0.0469,-1413.82,891.05,-671.94
12250,-3.8737,0.2498,-0.0730,-1288.82,-1999.57,-687.62
12260,-3.8738,0.2688,-0.0935,-23.19,-1343.32,-156.43
12270,-3.8738,0.2981,-0.1014,-1585.69,31.74,1999.82
12280,-3.8738,0.3346,-0.0927,-1835.69,-983.83,-1297.12
12290,-3.8737,0.3673,-0.0698,-1163.82,141.24,-1609.56
12300,-3.8734,0.3926,-0.0371,-976.32,-936.83,15.44
12310,-3.8733,0.4183,0.0013,-1741.94,-749.27,1937.38
12320,-3.8732,0.4547,0.0328,1554.93,172.67,-875.00
12330,-3.8730,0.5027,0.0488,-1788.82,203.98,-1109.31
12340,-3.8729,0.5492,0.0547,351.81,-1749.02,718.81
12350,-3.8729,0.5850,0.0601,-1695.07,-998.96,1265.69
12360,-3.8729,0.6129,0.0709,-1116.94,-311.40,1625.06
12370,-3.8729,0.6360,0.0873,-1538.82,1079.28,-1312.38
12380,-3.8728,0.6558,0.1083,1414.31,-826.90,953.25
12390,-3.8727,0.6750,0.1302,-54.44,1860.60,250.18
12400,-3.8726,0.6930,0.1482,-1585.69,673.16,218.99
12410,-3.8724,0.7090,0.1652,711.18,-1029.91,375.24
12420,-3.8724,0.7258,0.1816,-1241.94,1141.97,-234.07
12430,-3.8723,0.7463,0.1853,914.31,-748.60,1656.56
12440,-3.8723,0.7668,0.1726,-460.69,-279.85,-1749.69
12450,-3.8723,0.7805,0.1556,-1835.69,-1904.79,-1874.69
12460,-3.8723,0.7798,0.1445,-85.69,-76.66,-1577.88
12470,-3.8722,0.7609,0.1484,-179.44,-1498.54,468.99
12480,-3.8721,0.7285,0.1847,1398.68,-998.54,1172.12
12490,-3.8718,0.6965,0.2457,1258.06,-357.97,765.93
12500,-3.8716,0.6884,0.2999,1164.31,-545.53,-1968.32
12510,-3.8713,0.7153,0.3246,117.43,-1608.03,1156.80
12520,-3.8713,0.7616,0.3173,-429.44,1548.22,-1390.01
12530,-3.8715,0.8005,0.2982,1492.43,610.84,-702.51
12540,-3.8716,0.8226,0.2893,-1523.19,-1826.60,-1030.70
12550,-3.8716,0.8373,0.2915,1304.93,1032.84,422.42
12560,-3.8716,0.8453,0.2998,-820.07,1314.09,469.30
12570,-3.8716,0.8342,0.3123,211.18,-1623.35,-1608.83
12580,-3.8715,0.8032,0.3296,-1210.69,-29.66,1234.92
12590,-3.8713,0.7734,0.3661,-1179.44,-1810.97,1031.86
12600,-3.8712,0.7667,0.4233,-991.94,-1139.16,-1171.20
12610,-3.8710,0.7773,0.4742,-1851.32,-1811.04,-1483.58
12620,-3.8707,0.7810,0.4922,-491.94,704.59,1610.29
12630,-3.8706,0.7649,0.4778,-23.19,-998.54,1360.29
12640,-3.8706,0.7344,0.4502,1914.31,1157.71,1282.17
12650,-3.8707,0.6942,0.4203,-1991.94,1626.40,-1296.02
12660,-3.8708,0.6521,0.3937,867.43,1798.22,-905.46
12670,-3.8710,0.6218,0.3787,-523.19,-1608.15,-796.14
12680,-3.8711,0.6144,0.3837,-398.19,469.91,-124.27
12690,-3.8711,0.6382,0.4156,-1351.32,1110.53,-1577.39
12700,-3.8711,0.6942,0.4734,1695.56,1204.35,-311.71
12710,-3.8708,0.7579,0.5433,867.43,595.09,891.54
12720,-3.8706,0.7944,0.6029,1023.68,1548.34,1735.41
12730,-3.8704,0.7899,0.6316,1695.56,1173.40,-1076.97
12740,-3.8701,0.7529,0.6238,1117.43,845.28,1251.22
12750,-3.8701,0.6990,0.5923,383.06,-154.79,-1155.09
12760,-3.8702,0.6423,0.5573,1476.81,-186.16,-61.40
12770,-3.8704,0.5981,0.5332,-1773.19,-670.65,-1030.21
12780,-3.8705,0.5730,0.5273,570.56,251.16,-983.34
12790,-3.8705,0.5590,0.5392,1351.81,-498.90,-1827.15
12800,-3.8704,0.5436,0.5641,-445.07,1016.66,313.54
12810,-3.8702,0.5199,0.5997,1586.18,204.16,172.97
12820,-3.8701,0.4906,0.6432,-1445.07,766.60,766.78
12830,-3.8700,0.4678,0.6829,-1195.07,-1670.96,1673.10
12840,-3.8699,0.4564,0.7043,-116.94,-592.90,-1811.22
12850,-3.8698,0.4453,0.7006,-1570.07,-1842.90,720.09
12860,-3.8698,0.4236,0.6755,1008.06,1672.73,32.59
12870,-3.8699,0.3887,0.6426,-1773.19,-1530.46,313.78
12880,-3.8701,0.3430,0.6143,1758.06,-1749.27,-467.53
12890,-3.8702,0.2885,0.5963,-85.69,-1374.39,-45.72
12900,-3.8702,0.2255,0.5886,929.93,328.67,-1155.09
12910,-3.8701,0.1575,0.5859,867.43,-655.82,219.85
12920,-3.8701,0.0858,0.5829,164.31,-999.69,-655.15
12930,-3.8700,0.0090,0.5708,-1007.57,-1390.50,-748.90
12940,-3.8699,-0.0671,0.5372,1164.31,1062.50,-577.03
12950,-3.8698,-0.1346,0.4886,-585.69,781.07,-514.59
12960,-3.8696,-0.1875,0.4462,-1226.32,-1437.81,-1795.96
12970,-3.8696,-0.2161,0.4257,8.06,1124.63,-858.52
12980,-3.8696,-0.2181,0.4304,351.81,-1500.43,-702.33
12990,-3.8696,-0.2034,0.4448,86.18,-891.05,-514.83
13000,-3.8696,-0.1835,0.4531,1976.81,952.70,-171.02
13010,-3.8696,-0.1741,0.4563,523.68,-1984.74,-155.40
13020,-3.8696,-0.1870,0.4595,1726.81,-1578.49,-936.65
13030,-3.8696,-0.2164,0.4547,70.56,-1172.24,1032.10
13040,-3.8698,-0.2397,0.4282,304.93,-1781.68,1516.48
13050,-3.8699,-0.2386,0.3809,1320.56,-1172.36,78.92
13060,-3.8701,-0.2202,0.3318,1461.18,765.14,547.61
13070,-3.8704,-0.2064,0.3018,-179.44,-1516.11,469.36
13080,-3.8706,-0.2074,0.2974,1586.18,-1359.80,1719.30
13090,-3.8707,-0.2166,0.3103,1461.18,-1922.30,1063.05
13100,-3.8708,-0.2227,0.3259,289.31,-266.05,-1733.83
13110,-3.8708,-0.2169,0.3353,-491.94,1733.89,484.99
13120,-3.8710,-0.1931,0.3302,242.43,-1062.93,-1858.76
13130,-3.8711,-0.1581,0.3077,-710.69,-1719.18,-1436.89
13140,-3.8712,-0.1370,0.2805,-226.32,-594.12,-1327.58
13150,-3.8713,-0.1522,0.2595,-1523.19,-78.43,-593.26
13160,-3.8713,-0.1960,0.2450,523.68,1234.07,922.36
13170,-3.8715,-0.2388,0.2311,-1085.69,-625.43,-1702.70
13180,-3.8716,-0.2587,0.2144,1445.56,1593.26,-1624.57
13190,-3.8717,-0.2524,0.1910,-1101.32,-547.42,344.12
13200,-3.8719,-0.2269,0.1605,-304.44,468.20,1344.12
13210,-3.8722,-0.1984,0.1315,-1038.82,562.01,-343.44
13220,-3.8722,-0.1830,0.1141,-1382.57,843.32,172.12
13230,-3.8723,-0.1840,0.1056,586.18,-1375.37,-1234.19
13240,-3.8723,-0.1970,0.0945,461.18,1530.88,-1593.57
13250,-3.8723,-0.2162,0.0784,-1210.69,108.95,1375.18
13260,-3.8724,-0.2299,0.0608,336.18,-1953.55,-1171.75
13270,-3.8726,-0.2288,0.0436,-1413.82,-203.61,-812.44
13280,-3.8727,-0.2125,0.0270,-1273.19,1593.26,-1062.44
13290,-3.8728,-0.1862,0.0081,804.93,-531.68,-1859.38
13300,-3.8729,-0.1578,-0.0165,179.93,1046.51,1359.38
13310,-3.8730,-0.1338,-0.0431,-195.07,1905.88,1515.56
13320,-3.8732,-0.1138,-0.0596,-1116.94,-1500.31,-687.62
13330,-3.8732,-0.0964,-0.0586,1445.56,390.38,-1265.75
13340,-3.8732,-0.0801,-0.0471,-335.69,515.38,-812.62
13350,-3.8730,-0.0612,-0.0339,1758.06,1984.19,203.00
13360,-3.8730,-0.0398,-0.0251,179.93,-328.25,1062.38
13370,-3.8730,-0.0162,-0.0262,-1085.69,796.75,687.44
13380,-3.8732,0.0096,-0.0365,1929.93,656.19,-1328.19
13390,-3.8732,0.0360,-0.0504,1242.43,-671.88,15.50
13400,-3.8733,0.0591,-0.0648,617.43,1546.94,1687.38
13410,-3.8734,0.0751,-0.0778,-429.44,-296.81,-203.31
13420,-3.8734,0.0829,-0.0895,1617.43,-1953.00,1921.69
13430,-3.8735,0.0879,-0.1036,-1382.57,547.00,-328.31
13440,-3.8735,0.0985,-0.1194,-741.94,-1265.50,1202.88
13450,-3.8737,0.1168,-0.1270,617.43,718.93,-656.49
13460,-3.8737,0.1377,-0.1171,-1038.82,-249.82,-1297.18
13470,-3.8737,0.1589,-0.0975,1633.06,1015.87,-1078.37
13480,-3.8737,0.1860,-0.0790,351.81,-484.07,-703.37
13490,-3.8737,0.2266,-0.0645,-179.44,1890.93,-718.93
13500,-3.8737,0.2852,-0.0593,1008.06,-249.57,-812.68
13510,-3.8737,0.3583,-0.0634,508.06,406.80,-328.25
13520,-3.8735,0.4290,-0.0648,1867.43,-108.70,515.44
13530,-3.8735,0.4772,-0.0496,-1085.69,-296.08,1906.07
13540,-3.8734,0.4922,-0.0197,1086.18,1657.17,843.63
13550,-3.8733,0.4777,0.0117,-991.94,1485.29,-1921.94
13560,-3.8730,0.4510,0.0355,1148.68,1500.92,875.00
13570,-3.8729,0.4396,0.0502,1742.43,547.73,-343.69
13580,-3.8727,0.4613,0.0579,273.68,-1577.27,796.94
13590,-3.8727,0.5101,0.0609,-945.07,-592.90,-515.56
13600,-3.8727,0.5723,0.0658,1304.93,-202.15,-499.94
13610,-3.8727,0.6346,0.0760,1258.06,422.97,1672.00
13620,-3.8727,0.6819,0.0864,1242.43,1735.60,125.12
13630,-3.8728,0.7062,0.0963,-710.69,-936.22,-93.63
13640,-3.8727,0.7115,0.1139,-1601.32,329.47,1750.18
13650,-3.8726,0.7040,0.1486,-913.82,-1420.53,-687.32
13660,-3.8722,0.6886,0.2012,-1882.57,-983.03,47.12
13670,-3.8719,0.6791,0.2583,148.68,1751.34,1390.99
13680,-3.8717,0.6956,0.3009,-1070.07,1063.78,1094.24
13690,-3.8716,0.7454,0.3148,1039.31,-1483.03,1234.92
13700,-3.8716,0.8105,0.2988,-585.69,298.28,1688.11
13710,-3.8717,0.8634,0.2699,-241.94,-1748.47,-280.70
13720,-3.8717,0.8854,0.2506,-1476.32,-1451.48,469.24
13730,-3.8718,0.8724,0.2501,1336.18,79.83,1922.36
13740,-3.8718,0.8363,0.2671,-320.07,17.27,1844.24
13750,-3.8717,0.8022,0.2999,-945.07,-1810.91,250.49
13760,-3.8716,0.7959,0.3489,-1304.44,-1607.85,781.80
13770,-3.8715,0.8179,0.4082,1883.06,657.78,-780.58
13780,-3.8712,0.8466,0.4579,695.56,251.59,-999.21
13790,-3.8710,0.8658,0.4818,367.43,-1388.98,-1686.65
13800,-3.8708,0.8748,0.4856,-1163.82,1673.52,-749.08
13810,-3.8707,0.8757,0.4821,-23.19,-1842.10,969.67
13820,-3.8708,0.8595,0.4784,101.81,1704.83,-374.08
13830,-3.8708,0.8212,0.4755,-1976.32,1236.02,469.67
13840,-3.8710,0.7720,0.4696,1117.43,860.96,1125.92
13850,-3.8711,0.7218,0.4641,-1179.44,110.84,-561.58
13860,-3.8710,0.6826,0.4668,398.68,-592.35,547.73
13870,-3.8708,0.6697,0.4796,-616.94,-248.72,360.23
13880,-3.8707,0.6865,0.4982,1726.81,1391.91,-1780.33
13890,-3.8705,0.7142,0.5208,-116.94,-233.09,1250.92
13900,-3.8702,0.7291,0.5470,-570.07,-1342.41,125.98
13910,-3.8701,0.7255,0.5671,1336.18,-1982.97,1204.16
13920,-3.8701,0.7108,0.5665,867.43,595.15,-1030.15
13930,-3.8701,0.6945,0.5432,-1007.57,516.97,907.35
13940,-3.8702,0.6819,0.5118,898.68,1532.59,188.54
13950,-3.8705,0.6722,0.4906,-710.69,1516.91,-1155.27
13960,-3.8706,0.6603,0.4929,-1945.07,-1201.84,-874.08
13970,-3.8706,0.6434,0.5221,523.68,-904.97,-1217.83
13980,-3.8705,0.6274,0.5656,-1632.57,-1170.65,1672.85
13990,-3.8704,0.6202,0.6022,320.56,391.85,-1905.15
14000,-3.8702,0.6223,0.6208,-601.32,1079.28,1891.78
14010,-3.8702,0.6257,0.6266,-335.69,-530.09,-155.09
14020,-3.8701,0.6187,0.6322,101.81,204.35,673.10
14030,-3.8701,0.5969,0.6431,-804.44,923.03,1219.97
14040,-3.8701,0.5653,0.6537,414.31,-1686.34,1938.72
14050,-3.8701,0.5244,0.6589,367.43,-327.03,-717.53
14060,-3.8700,0.4751,0.6570,-866.94,344.73,1376.28
14070,-3.8699,0.4208,0.6558,820.56,94.67,641.91
14080,-3.8698,0.3613,0.6666,1867.43,-61.71,1282.47
14090,-3.8696,0.3010,0.6833,-1741.94,1328.80,-1436.22
14100,-3.8695,0.2521,0.6858,-1460.69,-530.70,-1358.09
14110,-3.8695,0.2186,0.6646,273.68,-218.26,-201.84
14120,-3.8695,0.1897,0.6294,-7.57,1062.87,-1779.97
14130,-3.8695,0.1530,0.6010,289.31,562.87,469.97
14140,-3.8695,0.1053,0.5895,-413.82,922.12,1016.78
14150,-3.8695,0.0530,0.5845,1492.43,-546.69,-311.40
14160,-3.8694,0.0038,0.5746,-1210.69,-1187.44,-1592.65
14170,-3.8694,-0.0339,0.5643,492.43,1546.88,-702.03
14180,-3.8694,-0.0515,0.5586,-335.69,249.88,1626.10
14190,-3.8695,-0.0490,0.5536,1414.31,-484.50,-1858.34
14200,-3.8696,-0.0391,0.5411,1742.43,-1125.12,1641.66
14210,-3.8698,-0.0396,0.5232,-991.94,1281.13,141.66
14220,-3.8700,-0.0630,0.5048,-1054.44,-1015.75,1672.85
14230,-3.8702,-0.1073,0.4836,-54.44,624.82,-1155.27
14240,-3.8704,-0.1560,0.4619,-1726.32,1921.63,438.42
14250,-3.8706,-0.1954,0.4344,39.31,-859.68,1719.60
14260,-3.8708,-0.2148,0.3890,-1007.57,-375.43,1703.92
14270,-3.8711,-0.2050,0.3289,508.06,1812.07,438.23
14280,-3.8715,-0.1750,0.2671,1773.68,-1891.05,-1093.14
14290,-3.8717,-0.1396,0.2253,1601.81,-1797.24,-765.14
14300,-3.8718,-0.1090,0.2120,-1866.94,859.07,-765.20
14310,-3.8718,-0.0985,0.2170,-1945.07,-843.99,-280.88
14320,-3.8717,-0.1215,0.2332,-601.32,-203.37,-234.01
14330,-3.8715,-0.1725,0.2445,461.18,1859.13,1078.55
14340,-3.8713,-0.2343,0.2377,1929.93,-687.87,-1608.95
14350,-3.8712,-0.2944,0.2233,-1976.32,-1562.99,-780.82
14360,-3.8711,-0.3392,0.2114,-1679.44,593.14,-1015.20
14370,-3.8710,-0.3539,0.1970,586.18,-922.55,719.12
14380,-3.8711,-0.3303,0.1718,-1288.82,1233.64,-265.26
14390,-3.8711,-0.2809,0.1403,1726.81,1999.33,953.43
14400,-3.8712,-0.2389,0.1199,54.93,1968.20,-1406.01
14410,-3.8712,-0.2306,0.1205,1429.93,-641.11,1672.06
14420,-3.8712,-0.2549,0.1410,-1507.57,-562.99,1718.93
14430,-3.8712,-0.2893,0.1725,-616.94,-1938.05,-1593.51
14440,-3.8712,-0.3116,0.1982,-1023.19,-1906.86,-937.19
14450,-3.8712,-0.3092,0.2041,117.43,1390.01,-1984.01
14460,-3.8713,-0.2788,0.1891,429.93,-1859.99,1469.12
14470,-3.8716,-0.2274,0.1606,320.56,218.20,1047.24
14480,-3.8719,-0.1699,0.1288,-1101.32,577.64,-1702.82
14490,-3.8723,-0.1196,0.0963,-1741.94,499.63,-952.88
14500,-3.8726,-0.0817,0.0638,695.56,343.51,1265.81
14510,-3.8728,-0.0559,0.0354,1554.93,187.32,-1406.13
14520,-3.8729,-0.0406,0.0201,851.81,546.75,-968.69
14530,-3.8729,-0.0327,0.0264,-1195.07,-1406.37,1625.00
14540,-3.8729,-0.0266,0.0476,-179.44,-609.50,1015.62
14550,-3.8729,-0.0126,0.0702,601.81,-1890.69,156.31
14560,-3.8730,0.0111,0.0782,-1601.32,999.94,-1640.50
14570,-3.8732,0.0337,0.0657,1429.93,-1984.38,-718.63
14580,-3.8733,0.0511,0.0386,320.56,406.31,-1437.38
14590,-3.8734,0.0742,0.0026,-1445.07,937.56,468.81
14600,-3.8737,0.1088,-0.0391,1508.06,328.25,-1375.00
14610,-3.8738,0.1416,-0.0757,1929.93,-999.82,-1484.50
14620,-3.8738,0.1554,-0.0913,-1866.94,-1687.26,781.07
14630,-3.8738,0.1467,-0.0854,-101.32,312.74,1140.44
14640,-3.8738,0.1288,-0.0681,-1210.69,1062.74,-765.81
14650,-3.8737,0.1189,-0.0452,492.43,-718.51,-1656.43
14660,-3.8735,0.1300,-0.0271,-773.19,-1781.07,1171.75
14670,-3.8735,0.1658,-0.0222,648.68,531.49,-1062.56
14680,-3.8735,0.2169,-0.0253,1226.81,1156.56,-375.06
14690,-3.8735,0.2694,-0.0289,-226.32,765.99,-859.44
14700,-3.8735,0.3159,-0.0330,-1507.57,297.36,1546.81
14710,-3.8737,0.3558,-0.0442,445.56,-218.14,-687.62
14720,-3.8737,0.3931,-0.0641,1554.93,-1655.58,1015.50
14730,-3.8738,0.4282,-0.0762,-1679.44,-202.39,-172.06
14740,-3.8737,0.4528,-0.0670,-1179.44,-1749.21,546.69
14750,-3.8737,0.4651,-0.0380,1961.18,-577.27,-703.31
14760,-3.8735,0.4780,0.0101,-460.69,-858.52,-328.25
14770,-3.8733,0.5093,0.0640,1195.56,1297.79,671.88
14780,-3.8732,0.5718,0.1025,1195.56,188.48,1843.87
14790,-3.8730,0.6580,0.1167,1195.56,1126.10,1797.06
14800,-3.8730,0.7448,0.1079,226.81,-1061.22,-812.32
14810,-3.8730,0.8091,0.0872,-663.82,1813.90,-1343.57
14820,-3.8730,0.8350,0.0658,-429.44,-842.22,1234.50
14830,-3.8730,0.8240,0.0548,-1116.94,423.46,547.00
14840,-3.8730,0.7876,0.0734,1476.81,-982.79,-812.44
14850,-3.8728,0.7313,0.1266,820.56,1392.15,-1671.75
14860,-3.8724,0.6675,0.1964,1617.43,204.53,750.24
14870,-3.8721,0.6213,0.2683,1445.56,1141.91,31.62
14880,-3.8718,0.6182,0.3303,-460.69,-1655.09,-1655.76
14890,-3.8716,0.6693,0.3590,-866.94,-1717.59,-1671.26
14900,-3.8715,0.7628,0.3383,1679.93,1954.41,-1999.33
14910,-3.8715,0.8689,0.2841,1648.68,-701.66,203.74
14920,-3.8717,0.9602,0.2346,-773.19,361.02,-1436.95
14930,-3.8718,1.0183,0.2188,-1085.69,-1966.92,266.05
14940,-3.8721,1.0300,0.2396,-1648.19,1.95,-577.70
14950,-3.8721,0.9977,0.2789,-148.19,-1326.17,1656.68
14960,-3.8719,0.9343,0.3174,-288.82,-294.98,141.11
14970,-3.8718,0.8644,0.3601,-398.19,626.77,-1640.01
14980,-3.8716,0.8198,0.4210,-1351.32,-1904.60,-483.70
14990,-3.8712,0.8248,0.4774,945.56,1892.21,-1296.08
15000,-3.8708,0.8699,0.4954,1586.18,1110.96,282.17
15010,-3.8708,0.9092,0.4714,-648.19,-592.10,-92.83
15020,-3.8708,0.9159,0.4268,383.06,345.52,844.67
15030,-3.8711,0.8916,0.3890,1242.43,-1373.23,-1624.21
15040,-3.8712,0.8441,0.3802,-1866.94,1798.58,485.11
15050,-3.8713,0.7958,0.4038,54.93,673.52,1500.73
15060,-3.8713,0.7700,0.4412,1867.43,-310.97,1688.23
15070,-3.8713,0.7687,0.4817,-1429.44,470.21,-14.77
15080,-3.8712,0.7732,0.5260,-1601.32,1657.71,-264.71
15090,-3.8710,0.7712,0.5725,-1023.19,-670.41,954.10
15100,-3.8708,0.7715,0.6083,-1273.19,1282.71,-1217.65
15110,-3.8707,0.7782,0.6183,-1241.94,1860.84,-248.84
15120,-3.8706,0.7743,0.6067,-382.57,-857.91,-1701.97
15130,-3.8706,0.7432,0.5878,-882.57,1657.71,1563.66
15140,-3.8707,0.6948,0.5709,-866.94,-764.22,-1092.65
15150,-3.8707,0.6552,0.5576,945.56,1079.47,79.22
15160,-3.8708,0.6417,0.5463,-132.57,-623.78,1641.66
15170,-3.8710,0.6503,0.5377,-1851.32,1923.10,-577.09
15180,-3.8710,0.6597,0.5422,-757.57,829.35,1579.16
15190,-3.8710,0.6547,0.5734,445.56,1407.53,1501.04
15200,-3.8708,0.6378,0.6267,-195.07,1391.85,376.10
15210,-3.8707,0.6201,0.6753,1648.68,219.97,1579.35
15220,-3.8706,0.6039,0.6992,-616.94,-1561.34,-748.72
15230,-3.8705,0.5825,0.7019,1304.93,1501.16,-701.78
15240,-3.8704,0.5544,0.6909,-1429.44,1844.85,204.47
15250,-3.8705,0.5306,0.6674,-1023.19,438.54,-1889.28
15260,-3.8706,0.5188,0.6395,-70.07,1422.85,-1717.47
15270,-3.8707,0.5099,0.6238,-1585.69,1860.35,-1326.90
15280,-3.8707,0.4872,0.6251,1273.68,-155.27,1329.28
15290,-3.8707,0.4465,0.6353,-1632.57,16.54,-1186.28
15300,-3.8706,0.4006,0.6409,1164.31,1313.35,-1998.78
15310,-3.8705,0.3612,0.6384,-710.69,-1968.02,1548.10
15320,-3.8704,0.3344,0.6368,-1757.57,1719.42,376.22
15330,-3.8704,0.3239,0.6426,-1195.07,1516.24,-1405.03
15340,-3.8702,0.3263,0.6479,1461.18,-1749.39,891.85
15350,-3.8702,0.3315,0.6392,1773.68,-1061.89,-1186.28
15360,-3.8702,0.3256,0.6152,-1554.44,1813.11,-670.65
15370,-3.8702,0.2961,0.5874,1679.93,-1249.39,-1405.09
15380,-3.8702,0.2439,0.5653,1914.31,-811.95,1844.85
15390,-3.8702,0.1823,0.5476,-773.19,359.80,1782.35
15400,-3.8702,0.1257,0.5306,-663.82,-1905.94,-1952.09
15410,-3.8702,0.0811,0.5131,101.81,-77.88,1844.73
15420,-3.8702,0.0516,0.4912,-1616.94,1672.00,891.60
15430,-3.8702,0.0450,0.4717,-1382.57,-1124.94,375.92
15440,-3.8702,0.0640,0.4680,1773.68,375.06,1282.17
15450,-3.8702,0.0994,0.4832,195.56,-93.63,-280.40
15460,-3.8701,0.1320,0.5039,726.81,1843.93,-827.21
15470,-3.8700,0.1364,0.5139,898.68,500.24,-1624.02
15480,-3.8699,0.1030,0.5070,1461.18,1781.49,79.10
15490,-3.8700,0.0522,0.4860,1195.56,890.81,-483.40
15500,-3.8700,0.0126,0.4557,-1304.44,-1796.81,657.17
15510,-3.8702,-0.0049,0.4229,1617.43,-1671.88,-14.77
15520,-3.8704,-0.0031,0.3932,-616.94,-1859.44,1907.04
15530,-3.8706,0.0087,0.3684,-382.57,-1656.31,-593.02
15540,-3.8707,0.0182,0.3494,1117.43,-843.75,-1874.33
15550,-3.8708,0.0203,0.3336,-1663.82,718.75,-1171.20
15560,-3.8708,0.0201,0.3223,-1398.19,-1296.88,1313.11
15570,-3.8708,0.0165,0.3213,-1413.82,1250.00,984.99
15580,-3.8708,0.0016,0.3339,-1882.57,1125.00,1281.86
15590,-3.8708,-0.0229,0.3524,211.18,-1265.62,1891.24
15600,-3.8708,-0.0504,0.3585,1070.56,1124.94,-1593.08
15610,-3.8708,-0.0769,0.3392,1554.93,1906.13,-1889.95
15620,-3.8710,-0.0999,0.2998,-1835.69,-562.68,-140.01
15630,-3.8711,-0.1201,0.2529,-773.19,-1609.62,-1218.20
15640,-3.8713,-0.1394,0.2068,633.06,390.38,-437.01
15650,-3.8715,-0.1542,0.1740,-1835.69,-1515.93,406.62
15660,-3.8717,-0.1559,0.1545,273.68,-1719.06,-1671.57
15670,-3.8718,-0.1356,0.1335,54.93,-203.43,1140.87
15680,-3.8719,-0.0939,0.1068,-1351.32,1109.07,703.37
15690,-3.8721,-0.0529,0.0867,-7.57,1687.26,1140.81
15700,-3.8722,-0.0403,0.0865,1242.43,-890.75,-578.00
15710,-3.8721,-0.0587,0.1024,-1148.19,-906.37,234.50
15720,-3.8721,-0.0851,0.1158,492.43,1124.88,-1218.57
15730,-3.8719,-0.1021,0.1161,1117.43,-1156.43,1562.68
15740,-3.8719,-0.1086,0.1045,-1054.44,-1125.24,-1093.57
15750,-3.8719,-0.1050,0.0833,-1898.19,1390.38,1500.18
15760,-3.8721,-0.0896,0.0546,-1429.44,-1328.37,1140.75
15770,-3.8723,-0.0645,0.0206,539.31,-1000.18,-1328.06
15780,-3.8724,-0.0378,-0.0142,-241.94,-1343.93,62.50
15790,-3.8727,-0.0201,-0.0416,-835.69,-1797.00,-500.06
15800,-3.8727,-0.0155,-0.0583,1429.93,-1312.56,1890.50
15810,-3.8727,-0.0221,-0.0649,-1976.32,546.81,-1406.37
15820,-3.8727,-0.0334,-0.0638,1179.93,-296.94,-218.93
15830,-3.8726,-0.0380,-0.0616,-273.19,-156.37,77.94
15840,-3.8727,-0.0276,-0.0599,-851.32,124.88,-390.75
15850,-3.8727,-0.0068,-0.0604,476.81,343.69,-922.00
15860,-3.8727,0.0143,-0.0710,-866.94,281.19,-1109.50
15870,-3.8727,0.0288,-0.0929,1836.18,-1093.75,-968.93
15880,-3.8727,0.0380,-0.1154,-304.44,109.38,-1078.31
15890,-3.8727,0.0482,-0.1278,867.43,1234.44,-1765.87
15900,-3.8727,0.0632,-0.1294,-1820.07,-359.31,1155.94
15910,-3.8728,0.0846,-0.1252,101.81,-562.38,-453.43
15920,-3.8728,0.1095,-0.1207,-1163.82,-31.13,1359.07
15930,-3.8729,0.1305,-0.1180,-1976.32,547.06,-1000.24
15940,-3.8729,0.1439,-0.1217,711.18,890.87,640.38
15950,-3.8730,0.1531,-0.1326,-1570.07,422.12,-1359.62
15960,-3.8730,0.1615,-0.1414,-398.19,-968.51,1796.57
15970,-3.8730,0.1670,-0.1414,679.93,1906.56,-1797.18
15980,-3.8730,0.1638,-0.1339,1383.06,1906.56,-781.56
15990,-3.8730,0.1571,-0.1252,976.81,-1140.32,-265.93
16000,-3.8730,0.1639,-0.1251,117.43,-30.94,-1156.56
16010,-3.8730,0.1951,-0.1354,992.43,-15.32,327.82
16020,-3.8732,0.2432,-0.1488,976.81,-1327.76,765.32
16030,-3.8733,0.2911,-0.1583,-866.94,953.55,1046.57
16040,-3.8734,0.3268,-0.1572,1273.68,-265.08,-1890.99
16050,-3.8734,0.3481,-0.1421,1836.18,-124.39,999.63
16060,-3.8734,0.3542,-0.1102,570.56,1813.17,-1390.93
16070,-3.8733,0.3479,-0.0695,1351.81,1891.30,-1218.99
16080,-3.8730,0.3414,-0.0389,539.31,-889.95,265.44
16090,-3.8729,0.3475,-0.0237,-288.82,-983.76,1203.00
16100,-3.8728,0.3706,-0.0156,492.43,969.42,78.06
16110,-3.8728,0.4071,-0.0138,-554.44,-1999.33,546.81
16120,-3.8729,0.4463,-0.0188,117.43,-1764.83,-421.94
16130,-3.8729,0.4767,-0.0298,1133.06,1594.60,1453.06
16140,-3.8730,0.4950,-0.0443,1023.68,188.42,-1703.19
16150,-3.8732,0.5054,-0.0526,-632.57,-1670.96,-890.75
16160,-3.8732,0.5162,-0.0427,695.56,1266.60,1124.88
16170,-3.8732,0.5333,-0.0090,-1913.82,-1467.77,-1984.50
16180,-3.8730,0.5569,0.0446,273.68,-1155.21,-1750.06
16190,-3.8728,0.5845,0.1127,-710.69,1704.16,1171.94
16200,-3.8726,0.6116,0.1896,-1179.44,-1577.03,-1546.69
16210,-3.8722,0.6320,0.2582,-1710.69,266.78,1140.99
16220,-3.8719,0.6478,0.2903,898.68,1048.10,-937.01
16230,-3.8717,0.6619,0.2706,-1070.07,1157.47,1188.05
16240,-3.8717,0.6643,0.2173,726.81,-1358.09,-1921.39
16250,-3.8718,0.6537,0.1659,1039.31,-186.22,-1265.26
16260,-3.8719,0.6436,0.1403,-320.07,1235.60,1719.06
16270,-3.8721,0.6415,0.1479,-1616.94,1954.35,-1874.76
16280,-3.8721,0.6437,0.1874,-1882.57,-1061.28,1547.12
16290,-3.8719,0.6509,0.2507,-1601.32,-14.40,406.56
16300,-3.8718,0.6702,0.3247,-679.44,94.97,-1483.89
16310,-3.8716,0.6984,0.4000,1789.31,1563.78,-593.14
16320,-3.8712,0.7267,0.4690,1398.68,-795.53,1703.86
16330,-3.8710,0.7531,0.5094,1023.68,32.65,-1311.58
16340,-3.8708,0.7714,0.4999,398.68,1204.59,-670.90
16350,-3.8708,0.7688,0.4541,-1257.57,-14.16,-1452.21
16360,-3.8710,0.7463,0.4036,-1585.69,-1873.54,1657.10
16370,-3.8712,0.7186,0.3700,-460.69,-342.35,-764.89
16380,-3.8713,0.6914,0.3574,-7.57,-639.28,1688.17
16390,-3.8715,0.6637,0.3627,508.06,1751.34,-1311.83
16400,-3.8715,0.6403,0.3879,961.18,-1576.84,-1030.58
16410,-3.8713,0.6339,0.4309,1961.18,1657.47,-1889.89
16420,-3.8712,0.6571,0.4802,1148.68,-842.53,-1264.83
16430,-3.8711,0.6987,0.5254,117.43,1470.03,-483.46
16440,-3.8710,0.7347,0.5548,1445.56,-748.66,-514.65
16450,-3.8708,0.7474,0.5670,-1945.07,-982.97,-1748.96
16460,-3.8707,0.7242,0.5668,-320.07,579.53,94.85
16470,-3.8707,0.6655,0.5585,711.18,548.28,1172.97
16480,-3.8707,0.5958,0.5508,1195.56,-514.34,969.79
16490,-3.8708,0.5507,0.5487,273.68,-1498.84,-1077.09
16500,-3.8708,0.5442,0.5588,-1507.57,-1764.59,641.66
16510,-3.8710,0.5642,0.5770,1664.31,-467.71,-311.46
16520,-3.8710,0.5936,0.5890,226.81,1860.47,-405.15
16530,-3.8710,0.6144,0.5995,-7.57,-608.28,-14.53
16540,-3.8708,0.6088,0.6228,-1351.32,735.53,1610.53
16550,-3.8707,0.5774,0.6600,1929.93,-280.09,985.53
16560,-3.8706,0.5408,0.7007,1914.31,485.47,1579.41
16570,-3.8705,0.5145,0.7288,1226.81,1688.54,-1514.28
16580,-3.8704,0.5065,0.7255,1867.43,1282.23,-1795.47
16590,-3.8704,0.5184,0.6827,836.18,860.35,-1857.97
16600,-3.8705,0.5336,0.6191,-1632.57,-608.40,1626.28
16610,-3.8707,0.5243,0.5712,304.93,-748.96,-717.59
16620,-3.8708,0.4805,0.5597,-882.57,1110.35,-1155.15
16630,-3.8708,0.4163,0.5792,1508.06,-358.46,-1452.09
16640,-3.8707,0.3584,0.6115,1289.31,-1858.58,1626.10
16650,-3.8706,0.3302,0.6393,1883.06,-1733.70,1532.41
16660,-3.8705,0.3414,0.6575,-1726.32,1828.74,813.72
16670,-3.8705,0.3818,0.6729,-288.82,156.86,-936.22
16680,-3.8704,0.4265,0.6857,883.06,-1874.27,1.28
16690,-3.8704,0.4493,0.6940,-1398.19,-233.58,329.41
16700,-3.8704,0.4399,0.6945,1523.68,828.98,891.97
16710,-3.8704,0.4091,0.6812,320.56,891.48,1407.59
16720,-3.8704,0.3693,0.6572,367.43,-811.71,1641.91
16730,-3.8704,0.3346,0.6317,-726.32,125.67,1501.28
16740,-3.8704,0.3151,0.6116,-1163.82,859.99,641.85
16750,-3.8705,0.3087,0.5969,336.18,-1718.14,-1030.09
16760,-3.8705,0.3068,0.5928,-476.32,406.80,1969.91
16770,-3.8705,0.3026,0.6036,-726.32,-124.45,-280.15
16780,-3.8702,0.2936,0.6156,-1257.57,1266.17,157.41
16790,-3.8701,0.2771,0.6128,1586.18,-1202.58,923.03
16800,-3.8701,0.2528,0.5972,-523.19,-1562.01,-30.09
16810,-3.8700,0.2220,0.5789,367.43,437.99,735.53
16820,-3.8701,0.1926,0.5637,429.93,-1905.82,-389.53
16830,-3.8701,0.1736,0.5588,664.31,156.62,1485.47
16840,-3.8702,0.1606,0.5669,-1773.19,-468.44,-811.46
16850,-3.8702,0.1444,0.5778,570.56,562.81,1735.47
16860,-3.8702,0.1218,0.5798,-1507.57,1953.37,1657.35
16870,-3.8702,0.1017,0.5668,-398.19,-1781.07,-1452.03
16880,-3.8702,0.0945,0.5405,1023.68,547.06,-764.53
16890,-3.8702,0.0986,0.5137,101.81,1187.68,-983.34
16900,-3.8702,0.0997,0.4919,633.06,1750.18,-1686.52
16910,-3.8702,0.0869,0.4741,773.68,-1031.07,1625.92
16920,-3.8702,0.0620,0.4596,-866.94,687.62,375.92
16930,-3.8704,0.0325,0.4447,-54.44,-1171.81,1844.60
16940,-3.8705,0.0052,0.4338,164.31,921.94,-1671.02
16950,-3.8706,-0.0209,0.4325,679.93,-468.75,-1874.21
16960,-3.8707,-0.0426,0.4381,1336.18,-625.06,-1827.33
16970,-3.8708,-0.0533,0.4471,-1445.07,93.63,-358.52
16980,-3.8708,-0.0577,0.4553,1179.93,1249.88,-1483.52
16990,-3.8708,-0.0659,0.4573,617.43,-1703.25,1828.98
17000,-3.8708,-0.0790,0.4479,-429.44,-1453.31,328.98
17010,-3.8710,-0.0911,0.4315,1898.68,1343.57,-1811.65
17020,-3.8711,-0.0986,0.4137,351.81,-750.18,-421.08
17030,-3.8711,-0.0958,0.3923,-616.94,968.51,328.92
17040,-3.8712,-0.0819,0.3804,-257.57,-1765.87,1828.86
17050,-3.8712,-0.0720,0.3933,1523.68,702.94,1625.73
17060,-3.8712,-0.0767,0.4117,-1210.69,-1640.81,-1218.02
17070,-3.8712,-0.0962,0.4108,-1804.44,718.57,-655.46
17080,-3.8712,-0.1324,0.4017,-304.44,593.51,-1577.33
17090,-3.8712,-0.1825,0.4034,-945.07,-562.81,313.23
17100,-3.8713,-0.2267,0.4016,648.68,-344.12,1500.73
17110,-3.8715,-0.2368,0.3746,-1007.57,-578.61,1063.23
17120,-3.8717,-0.2052,0.3237,1695.56,-31.74,969.42
17130,-3.8721,-0.1459,0.2646,1742.43,1452.70,1844.36
17140,-3.8724,-0.0762,0.2039,1336.18,1890.32,-1233.89
17150,-3.8727,-0.0122,0.1511,-1741.94,-1890.81,-1484.01
17160,-3.8728,0.0242,0.1338,-1554.44,-640.69,-1609.13
17170,-3.8728,0.0212,0.1456,-898.19,1125.00,500.24
17180,-3.8729,-0.0029,0.1492,-1273.19,-1359.38,-1749.76
17190,-3.8730,-0.0234,0.1267,-366.94,-890.69,-890.38
17200,-3.8732,-0.0295,0.0807,1008.06,234.31,-890.38
17210,-3.8733,-0.0215,0.0193,226.81,-1656.31,-1765.50
17220,-3.8734,-0.0022,-0.0417,1258.06,-1515.69,1812.50
17230,-3.8735,0.0234,-0.0841,-273.19,-1328.19,-1172.00
17240,-3.8735,0.0447,-0.0962,-991.94,1234.38,1812.32
17250,-3.8735,0.0513,-0.0742,1726.81,-312.44,-47.12
17260,-3.8733,0.0457,-0.0356,-1429.44,-1499.94,656.07
17270,-3.8732,0.0493,-0.0090,1851.81,-562.44,1046.75
17280,-3.8732,0.0775,-0.0066,-1679.44,-1156.19,-656.31
17290,-3.8732,0.1157,-0.0245,1929.93,-843.63,-859.44
17300,-3.8733,0.1403,-0.0585,-1179.44,859.56,-140.69
17310,-3.8734,0.1431,-0.0997,1961.18,515.87,-1875.12
17320,-3.8737,0.1344,-0.1329,-1679.44,-765.38,-218.99
17330,-3.8738,0.1306,-0.1522,1211.18,-1015.38,1796.57
17340,-3.8739,0.1407,-0.1588,726.81,515.87,1280.94
17350,-3.8740,0.1675,-0.1512,-1976.32,-327.88,-594.12
17360,-3.8740,0.2069,-0.1283,1445.56,640.93,-406.56
17370,-3.8739,0.2548,-0.0980,-1507.57,-421.51,437.19
17380,-3.8739,0.3146,-0.0784,617.43,-546.39,1624.76
17390,-3.8739,0.3815,-0.0764,273.68,1969.36,-859.56
17400,-3.8738,0.4348,-0.0826,836.18,-1780.52,390.44
17410,-3.8738,0.4634,-0.0946,-335.69,1422.67,1046.69
17420,-3.8738,0.4673,-0.1112,-679.44,-108.52,1109.13
17430,-3.8738,0.4521,-0.1259,-179.44,1766.48,234.13
17440,-3.8739,0.4360,-0.1338,1883.06,-108.52,-1250.31
17450,-3.8739,0.4363,-0.1235,-179.44,-1124.21,-1656.56
17460,-3.8738,0.4482,-0.0856,-148.19,188.29,1062.26
17470,-3.8735,0.4541,-0.0244,1383.06,1047.73,109.19
17480,-3.8733,0.4506,0.0366,-1866.94,875.85,-1328.19
17490,-3.8729,0.4510,0.0743,1679.93,688.35,-1734.31
17500,-3.8727,0.4618,0.0795,1742.43,1516.48,-390.50
17510,-3.8724,0.4840,0.0594,-882.57,-1827.27,484.50
17520,-3.8724,0.5170,0.0416,1961.18,-389.71,1125.06
17530,-3.8726,0.5549,0.0435,-1820.07,1329.10,-265.56
17540,-3.8726,0.5887,0.0663,-960.69,1563.54,-1015.56
17550,-3.8726,0.6163,0.0930,-632.57,485.47,-406.13
17560,-3.8724,0.6432,0.1107,-1101.32,-92.59,1859.50
17570,-3.8723,0.6702,0.1436,-1663.82,-1826.90,-609.19
17580,-3.8719,0.6965,0.2078,1789.31,-1623.72,1359.62
17590,-3.8716,0.7277,0.2780,1164.31,-1404.91,1500.37
17600,-3.8713,0.7618,0.3198,1148.68,-420.47,-608.89
17610,-3.8711,0.7946,0.3149,1523.68,938.96,422.49
17620,-3.8711,0.8268,0.2747,1711.18,314.03,953.74
17630,-3.8712,0.8491,0.2269,1836.18,-842.16,-1030.76
17640,-3.8712,0.8414,0.1942,695.56,1048.52,969.18
17650,-3.8712,0.7910,0.1982,-288.82,860.96,1609.74
17660,-3.8711,0.7195,0.2450,1258.06,1376.53,1719.12
17670,-3.8708,0.6744,0.3230,101.81,-639.22,437.93
17680,-3.8706,0.6846,0.4075,-1663.82,1345.03,797.49
17690,-3.8704,0.7336,0.4662,-366.94,157.53,1110.17
17700,-3.8702,0.7827,0.4738,1914.31,-326.72,-1405.40
17710,-3.8701,0.8069,0.4432,195.56,642.15,782.17
17720,-3.8701,0.7960,0.4137,-710.69,735.90,469.60
17730,-3.8702,0.7518,0.3999,1898.68,954.65,-1936.71
17740,-3.8704,0.6860,0.3983,242.43,-811.04,-1014.89
17750,-3.8704,0.6138,0.3994,-179.44,-1014.34,406.98
17760,-3.8705,0.5593,0.3972,-1429.44,-873.84,-1577.39
17770,-3.8705,0.5450,0.3984,-398.19,-1155.21,906.98
17780,-3.8706,0.5773,0.4044,1773.68,-998.96,-546.14
17790,-3.8706,0.6343,0.4080,1898.68,-233.28,1531.98
17800,-3.8707,0.6754,0.4121,1195.56,219.97,-61.71
17810,-3.8706,0.6786,0.4225,-1538.82,751.28,360.17
17820,-3.8706,0.6522,0.4376,-1132.57,-1920.59,-374.21
17830,-3.8704,0.6108,0.4545,-507.57,16.85,938.35
17840,-3.8702,0.5618,0.4733,-1804.44,-1826.97,-999.15
17850,-3.8700,0.5168,0.4943,-85.69,579.16,1141.54
17860,-3.8699,0.4922,0.5173,-1835.69,-733.40,-920.96
17870,-3.8698,0.4907,0.5374,-991.94,-1780.33,-467.77
17880,-3.8696,0.5023,0.5417,-1179.44,782.17,1422.91
17890,-3.8696,0.5161,0.5288,304.93,1344.73,641.66
17900,-3.8698,0.5166,0.5117,-1929.44,-311.52,-1874.02
17910,-3.8698,0.4890,0.5039,-1866.94,1500.98,469.73
17920,-3.8698,0.4432,0.5079,-1398.19,500.92,1157.23
17930,-3.8698,0.3977,0.5225,742.43,1016.48,-342.77
17940,-3.8696,0.3547,0.5575,-1085.69,-1124.27,-139.65
17950,-3.8694,0.3177,0.6044,1414.31,-639.95,1594.79
17960,-3.8693,0.3000,0.6334,679.93,1359.99,-92.59
17970,-3.8690,0.3004,0.6305,-1585.69,1078.67,876.22
17980,-3.8690,0.3041,0.6011,-1538.82,703.67,-1670.65
17990,-3.8690,0.2986,0.5604,-1070.07,938.05,391.78
18000,-3.8691,0.2791,0.5277,-1773.19,-265.08,969.79
18010,-3.8693,0.2491,0.5111,-273.19,-452.64,1344.73
18020,-3.8694,0.2134,0.5007,-101.32,1422.30,1625.98
18030,-3.8695,0.1726,0.4882,-679.44,94.12,-1561.52
18040,-3.8695,0.1240,0.4808,-1898.19,-1515.32,1047.79
18050,-3.8695,0.0674,0.4849,-116.94,1547.06,1563.42
18060,-3.8695,0.0117,0.4879,633.06,-1937.38,-702.21
18070,-3.8694,-0.0342,0.4808,1508.06,-1546.88,1375.92
18080,-3.8694,-0.0707,0.4706,-366.94,1562.38,-1530.33
18090,-3.8694,-0.1023,0.4556,-1038.82,249.82,1297.79
18100,-3.8695,-0.1241,0.4298,-1085.69,-1672.12,1703.98
18110,-3.8696,-0.1317,0.3979,117.43,-968.99,703.92
18120,-3.8699,-0.1307,0.3657,-851.32,-1047.18,-1093.02
18130,-3.8700,-0.1271,0.3412,-726.32,-1172.18,688.17
18140,-3.8702,-0.1257,0.3308,-257.57,-312.81,-1093.14
18150,-3.8704,-0.1327,0.3351,-85.69,-1640.93,-1624.39
18160,-3.8705,-0.1517,0.3492,-976.32,-1094.06,-499.39
18170,-3.8705,-0.1797,0.3595,586.18,718.44,1406.92
18180,-3.8706,-0.2008,0.3477,1008.06,-1969.12,-1874.33
18190,-3.8707,-0.1960,0.3065,-1695.07,515.20,563.17
18200,-3.8710,-0.1675,0.2490,-1085.69,-750.43,1156.80
18210,-3.8712,-0.1376,0.1989,-1429.44,-109.74,719.18
18220,-3.8715,-0.1239,0.1691,-1601.32,1468.44,687.87
18230,-3.8717,-0.1290,0.1523,148.68,1656.01,-1655.94
18240,-3.8718,-0.1449,0.1404,-507.57,-484.68,1937.74
18250,-3.8719,-0.1616,0.1309,1461.18,1984.07,-781.01
18260,-3.8719,-0.1741,0.1166,-679.44,765.26,937.74
18270,-3.8721,-0.1824,0.0946,1726.81,-1062.87,-1624.82
18280,-3.8722,-0.1882,0.0699,664.31,124.63,-46.69
18290,-3.8722,-0.1893,0.0469,-85.69,968.32,1593.87
18300,-3.8723,-0.1824,0.0264,-226.32,-1984.80,-1406.19
18310,-3.8724,-0.1678,0.0071,664.31,-609.74,-1593.75
18320,-3.8726,-0.1498,-0.0162,-1476.32,921.51,1187.50
18330,-3.8728,-0.1344,-0.0468,836.18,1937.19,-125.06
18340,-3.8729,-0.1262,-0.0760,-1195.07,-1969.06,-265.75
18350,-3.8729,-0.1241,-0.0914,-148.19,-1719.06,1515.44
18360,-3.8729,-0.1244,-0.0918,117.43,312.26,749.82
18370,-3.8729,-0.1227,-0.0874,86.18,265.38,546.69
18380,-3.8729,-0.1132,-0.0870,304.93,827.88,859.19
18390,-3.8729,-0.0964,-0.0923,1523.68,874.76,1156.07
18400,-3.8729,-0.0771,-0.1016,-335.69,202.88,577.94
18410,-3.8730,-0.0601,-0.1133,-1866.94,-984.56,-468.99
18420,-3.8730,-0.0563,-0.1299,320.56,1515.50,-1578.37
18430,-3.8730,-0.0684,-0.1583,804.93,-609.50,687.19
18440,-3.8732,-0.0841,-0.1957,-741.94,-250.18,-1797.24
18450,-3.8733,-0.0900,-0.2245,1242.43,-1031.43,-391.05
18460,-3.8733,-0.0775,-0.2299,492.43,-718.93,1515.14
18470,-3.8733,-0.0500,-0.2146,-1913.82,-1406.43,93.26
18480,-3.8734,-0.0166,-0.1912,1601.81,546.75,-781.68
18490,-3.8734,0.0233,-0.1626,1883.06,-453.19,-422.30
18500,-3.8733,0.0652,-0.1324,-1007.57,-812.50,1827.76
18510,-3.8732,0.1035,-0.1122,351.81,-953.00,1421.57
18520,-3.8730,0.1437,-0.1056,1258.06,1640.81,1202.88
18530,-3.8729,0.1807,-0.1078,-1601.32,-1515.38,187.26
18540,-3.8729,0.2037,-0.1200,-866.94,-1796.57,1515.38
18550,-3.8729,0.2103,-0.1447,-1913.82,640.99,624.76
18560,-3.8730,0.2062,-0.1711,-1070.07,1484.74,1687.19
18570,-3.8732,0.2031,-0.1786,-1601.32,-1905.88,1874.63
18580,-3.8733,0.2157,-0.1571,-1991.94,1140.99,-547.24
18590,-3.8733,0.2511,-0.1168,-382.57,-109.01,-78.49
18600,-3.8732,0.3083,-0.0656,148.68,1047.36,-437.74
18610,-3.8729,0.3754,-0.0100,-523.19,-390.08,1765.44
18620,-3.8727,0.4320,0.0294,54.93,-1280.52,859.31
18630,-3.8726,0.4673,0.0364,-695.07,-233.58,-1328.12
18640,-3.8724,0.4797,0.0162,-179.44,657.10,1375.06
18650,-3.8724,0.4703,-0.0120,1414.31,-1920.96,390.62
18660,-3.8726,0.4525,-0.0328,211.18,-1530.33,1015.56
18670,-3.8727,0.4476,-0.0359,1929.93,-202.27,1374.88
18680,-3.8728,0.4689,-0.0188,1304.93,-592.90,-562.62
18690,-3.8728,0.5154,0.0063,23.68,1594.67,-171.94
18700,-3.8727,0.5669,0.0253,1976.81,813.48,1312.50
18710,-3.8727,0.5966,0.0375,570.56,-764.53,-1093.75
18720,-3.8726,0.6003,0.0471,367.43,798.03,890.69
18730,-3.8726,0.5957,0.0585,851.81,-1967.59,-374.94
18740,-3.8724,0.6010,0.0748,258.06,-514.47,-1015.56
18750,-3.8723,0.6234,0.0948,929.93,1579.28,-1593.63
18760,-3.8722,0.6547,0.1157,-195.07,141.78,1812.68
18770,-3.8721,0.6769,0.1345,-195.07,-1186.28,1453.31
18780,-3.8719,0.6732,0.1525,-1351.32,1220.03,1562.74
18790,-3.8718,0.6399,0.1686,-1820.07,-483.09,-1937.26
18800,-3.8717,0.5879,0.1747,1914.31,1579.35,-1999.69
18810,-3.8717,0.5370,0.1671,-741.94,-1639.53,-562.19
18820,-3.8717,0.5148,0.1522,742.43,1391.66,1047.18
18830,-3.8719,0.5454,0.1479,1898.68,-514.65,-265.38
18840,-3.8721,0.6249,0.1744,1820.56,-1061.46,-1374.76
18850,-3.8721,0.7175,0.2284,-7.57,-1670.72,1094.06
18860,-3.8721,0.7899,0.2804,-148.19,1235.72,-374.57
18870,-3.8718,0.8267,0.3112,1117.43,-107.85,641.11
18880,-3.8717,0.8212,0.3276,1820.56,-170.29,-1061.95
18890,-3.8715,0.7805,0.3364,1117.43,1939.09,1531.86
18900,-3.8713,0.7300,0.3335,-85.69,-936.04,-858.76
18910,-3.8712,0.6814,0.3168,1445.56,-1311.10,-1796.26
18920,-3.8712,0.6349,0.2897,-773.19,548.16,-1546.26
18930,-3.8712,0.5941,0.2634,1273.68,1079.35,1219.30
18940,-3.8712,0.5593,0.2587,54.93,1719.91,641.11
18950,-3.8712,0.5391,0.2888,-398.19,1110.41,-1812.01
18960,-3.8711,0.5486,0.3468,1008.06,969.79,1984.92
18970,-3.8708,0.5925,0.4155,-1773.19,391.66,188.17
18980,-3.8707,0.6528,0.4801,-148.19,1188.60,-171.08
18990,-3.8705,0.7079,0.5221,-429.44,1454.35,-1483.46
19000,-3.8704,0.7476,0.5266,-1382.57,-1170.53,-1139.65
19010,-3.8702,0.7622,0.4973,-304.44,-592.35,500.98
19020,-3.8704,0.7407,0.4523,1570.56,-342.29,-45.96
19030,-3.8704,0.6826,0.4147,-1179.44,1892.03,-1671.02
19040,-3.8704,0.6064,0.4026,-616.94,1079.41,407.04
19050,-3.8705,0.5443,0.4147,1633.06,-467.59,-1202.39
19060,-3.8705,0.5203,0.4352,1679.93,1079.16,1750.79
19070,-3.8705,0.5410,0.4536,-1398.19,-295.90,828.92
19080,-3.8706,0.5929,0.4703,1258.06,-1936.46,-311.65
19090,-3.8706,0.6404,0.4872,-101.32,204.22,-1030.33
19100,-3.8706,0.6586,0.4993,1976.81,-1639.40,-592.83
19110,-3.8705,0.6478,0.5035,304.93,-92.47,1157.17
19120,-3.8705,0.6160,0.5004,-1070.07,454.35,-358.40
19130,-3.8704,0.5703,0.4922,-1148.19,48.03,-1874.02
19140,-3.8704,0.5192,0.4861,1008.06,-998.90,-92.83
19150,-3.8702,0.4751,0.4840,-1538.82,-1780.27,719.67
19160,-3.8702,0.4478,0.4862,820.56,1954.04,1297.79
19170,-3.8702,0.4354,0.4896,1320.56,-1764.77,-1670.96
19180,-3.8702,0.4309,0.4868,-257.57,-1327.33,-420.96
19190,-3.8701,0.4260,0.4792,-835.69,-1686.71,547.79
19200,-3.8701,0.4143,0.4777,-1460.69,1344.54,1282.17
19210,-3.8701,0.3975,0.4889,1039.31,1141.42,-1905.33
19220,-3.8701,0.3844,0.5077,-1116.94,-1421.14,-1342.83
19230,-3.8701,0.3840,0.5216,1211.18,985.11,-1702.15
19240,-3.8701,0.3939,0.5328,1164.31,-1233.64,1547.85
19250,-3.8701,0.3970,0.5515,-1570.07,203.86,1688.54
19260,-3.8701,0.3856,0.5651,-1179.44,-1405.52,-858.34
19270,-3.8700,0.3638,0.5554,1367.43,328.86,1126.10
19280,-3.8700,0.3304,0.5287,-1429.44,-905.58,-1686.46
19290,-3.8700,0.2864,0.5024,-1695.07,-327.51,1844.73
19300,-3.8700,0.2379,0.4840,664.31,313.05,407.23
19310,-3.8701,0.1910,0.4773,-1538.82,1953.55,-420.96
19320,-3.8701,0.1482,0.4779,461.18,1094.12,-170.96
19330,-3.8700,0.1125,0.4703,-1023.19,1172.12,344.67
19340,-3.8700,0.0908,0.4569,-1585.69,203.31,500.92
19350,-3.8700,0.0865,0.4510,-366.94,-1515.50,969.60
19360,-3.8700,0.0980,0.4570,-913.82,1734.50,-796.02
19370,-3.8699,0.1136,0.4703,554.93,-1499.82,-296.02
19380,-3.8696,0.1090,0.4783,-1445.07,203.31,704.04
19390,-3.8695,0.0685,0.4762,1961.18,1218.93,297.79
19400,-3.8695,-0.0006,0.4675,773.68,953.25,1469.67
19410,-3.8695,-0.0789,0.4563,-70.07,-140.69,110.23
19420,-3.8696,-0.1489,0.4431,1914.31,-1578.31,907.10
19430,-3.8698,-0.2009,0.4232,945.56,734.07,657.10
19440,-3.8700,-0.2268,0.3939,-1710.69,-1812.93,-358.58
19450,-3.8701,-0.2196,0.3605,-1023.19,-1562.99,1703.86
19460,-3.8704,-0.1812,0.3281,-101.32,-1844.24,-1421.20
19470,-3.8706,-0.1267,0.2996,820.56,-1984.74,-1405.64
19480,-3.8708,-0.0798,0.2894,-210.69,-1640.93,-358.83
19490,-3.8710,-0.0621,0.3077,1789.31,1062.32,-890.08
19500,-3.8710,-0.0747,0.3367,54.93,-593.87,94.30
19510,-3.8711,-0.1010,0.3529,-1554.44,-890.81,1453.74
19520,-3.8712,-0.1265,0.3459,-913.82,1187.26,-1608.70
19530,-3.8713,-0.1370,0.3077,-179.44,296.57,1469.42
19540,-3.8716,-0.1246,0.2416,-1523.19,-594.06,-1999.45
19550,-3.8718,-0.1006,0.1720,54.93,-1062.74,1750.43
19560,-3.8721,-0.0835,0.1227,-866.94,-1968.99,-984.07
19570,-3.8722,-0.0796,0.0934,1320.56,-281.43,-1374.82
19580,-3.8722,-0.0886,0.0754,1820.56,-31.43,625.12
19590,-3.8722,-0.1136,0.0654,664.31,1671.69,500.12
19600,-3.8722,-0.1481,0.0613,1461.18,390.38,1750.12
19610,-3.8722,-0.1763,0.0636,1054.93,-140.93,-31.19
19620,-3.8721,-0.1892,0.0686,1445.56,155.88,1672.00
19630,-3.8721,-0.1863,0.0687,-210.69,796.45,1281.37
19640,-3.8722,-0.1676,0.0576,164.31,812.13,-1843.63
19650,-3.8723,-0.1370,0.0338,-1445.07,-609.74,906.31
19660,-3.8726,-0.0978,0.0028,-1523.19,343.44,-843.69
19670,-3.8727,-0.0494,-0.0349,-507.57,374.76,1890.62
19680,-3.8728,0.0011,-0.0718,1679.93,-453.25,1593.63
19690,-3.8729,0.0369,-0.0916,148.68,-1187.50,-953.31
19700,-3.8729,0.0415,-0.0942,726.81,281.31,-1750.18
19710,-3.8729,0.0189,-0.0869,1320.56,-62.44,-1156.49
19720,-3.8728,-0.0088,-0.0784,-1570.07,875.00,390.44
19730,-3.8728,-0.0167,-0.0858,-1116.94,1984.31,1702.94
19740,-3.8728,0.0076,-0.1205,1867.43,1031.19,1312.32
19750,-3.8729,0.0492,-0.1624,976.81,578.12,-672.12
19760,-3.8729,0.0775,-0.1763,-1695.07,-781.19,1359.01
19770,-3.8730,0.0812,-0.1611,1929.93,1437.62,-15.99
19780,-3.8730,0.0791,-0.1433,-1601.32,-624.88,-890.99
19790,-3.8730,0.0885,-0.1376,-1866.94,1656.37,-1656.56
19800,-3.8730,0.1083,-0.1407,-663.82,-1609.25,593.44
19810,-3.8732,0.1355,-0.1471,1867.43,1984.56,1655.94
19820,-3.8733,0.1737,-0.1532,1351.81,1172.12,-1469.06
19830,-3.8734,0.2228,-0.1532,-1757.57,390.93,-156.56
19840,-3.8734,0.2739,-0.1403,523.68,391.05,-1765.93
19850,-3.8734,0.3181,-0.1143,-929.44,-1952.64,-1078.43
19860,-3.8733,0.3431,-0.0812,726.81,1375.61,-1343.99
19870,-3.8730,0.3351,-0.0515,-70.07,1609.99,265.44
19880,-3.8729,0.3011,-0.0355,-1101.32,1406.86,1374.88
19890,-3.8728,0.2739,-0.0352,-1445.07,-546.33,187.38
19900,-3.8728,0.2853,-0.0438,-929.44,-499.51,562.38
19910,-3.8729,0.3365,-0.0492,523.68,-1608.83,-734.50
19920,-3.8729,0.3998,-0.0453,-913.82,1703.74,1374.88
19930,-3.8730,0.4529,-0.0377,-820.07,-1796.14,-547.00
19940,-3.8730,0.4867,-0.0289,1976.81,-827.27,1984.25
19950,-3.8730,0.4951,-0.0150,-1695.07,297.79,1234.31
19960,-3.8730,0.4822,0.0063,-616.94,-1920.96,828.06
19970,-3.8730,0.4663,0.0386,1726.81,813.42,1562.50
19980,-3.8729,0.4647,0.0745,-304.44,938.35,453.19
19990,-3.8728,0.4844,0.0996,-507.57,1532.10,937.62
20000,-3.8727,0.5205,0.1128,-1991.94,750.92,1031.43
20010,-3.8727,0.5613,0.1178,-1366.94,-1561.52,-140.44
20020,-3.8726,0.5970,0.1085,-148.19,-920.84,-1781.07
20030,-3.8724,0.6249,0.0867,429.93,1891.78,890.81
20040,-3.8724,0.6444,0.0741,-7.57,-905.09,-156.13
20050,-3.8723,0.6561,0.0938,-1507.57,1485.60,-984.25
20060,-3.8722,0.6630,0.1478,-7.57,1.22,-281.07
20070,-3.8719,0.6688,0.2104,867.43,-1076.84,-1499.76
20080,-3.8717,0.6761,0.2550,1617.43,-1061.22,-1937.13
20090,-3.8715,0.6825,0.2715,-1445.07,641.91,953.61
20100,-3.8713,0.6843,0.2599,-632.57,-1248.72,-1827.64
20110,-3.8712,0.6780,0.2323,-398.19,1266.91,937.99
20120,-3.8712,0.6667,0.2085,-1210.69,1735.66,750.43
20130,-3.8713,0.6647,0.2041,1351.81,-1311.22,-1984.01
20140,-3.8715,0.6847,0.2170,1086.18,-1873.72,-1968.38
20150,-3.8716,0.7275,0.2351,-351.32,-217.47,-1843.38
20160,-3.8717,0.7751,0.2566,1133.06,-1904.85,-187.07
20170,-3.8716,0.8005,0.2888,-773.19,845.21,187.99
20180,-3.8716,0.7916,0.3290,-1523.19,970.28,-858.83
20190,-3.8713,0.7626,0.3629,1336.18,-1889.10,234.99
20200,-3.8712,0.7394,0.3730,1617.43,-1545.41,-1468.08
20210,-3.8711,0.7345,0.3545,-1351.32,-248.60,-264.95
20220,-3.8710,0.7460,0.3215,-1976.32,1376.40,1656.92
20230,-3.8710,0.7679,0.2906,-507.57,1157.65,156.86
20240,-3.8711,0.7845,0.2726,-1695.07,1204.59,1000.55
20250,-3.8712,0.7738,0.2753,429.93,-1107.85,-1577.64
20260,-3.8712,0.7266,0.3066,-945.07,-764.16,-1937.01
20270,-3.8712,0.6609,0.3571,1008.06,-748.60,-77.58
20280,-3.8711,0.6040,0.4009,601.81,1704.41,-1311.83
20290,-3.8710,0.5696,0.4246,1320.56,-686.34,938.23
20300,-3.8710,0.5634,0.4277,914.31,-1655.15,1735.17
20310,-3.8710,0.5828,0.4146,117.43,-1248.90,672.67
20320,-3.8711,0.6125,0.3959,-1398.19,1063.60,-1342.96
20330,-3.8711,0.6335,0.3878,-1585.69,-1326.97,1094.48
20340,-3.8711,0.6312,0.4008,1101.81,1641.85,985.11
20350,-3.8711,0.6083,0.4335,804.93,-701.90,-936.77
20360,-3.8710,0.5856,0.4760,1867.43,-514.47,-874.21
20370,-3.8707,0.5811,0.5173,-1038.82,922.97,219.67
20380,-3.8706,0.5852,0.5519,-1616.94,-1780.15,-1889.65
20390,-3.8704,0.5773,0.5748,-1085.69,-1358.28,547.91
20400,-3.8702,0.5535,0.5793,1898.68,1579.22,-1998.90
20410,-3.8701,0.5223,0.5615,-1148.19,-1842.71,297.97
20420,-3.8702,0.4890,0.5267,-1132.57,-124.02,-1670.84
20430,-3.8704,0.4523,0.4907,-1398.19,-577.21,1641.60
20440,-3.8705,0.4153,0.4722,1898.68,-1186.65,1063.42
20450,-3.8706,0.3887,0.4775,1164.31,438.29,-1499.08
20460,-3.8706,0.3824,0.5039,1758.06,1125.73,-1452.21
20470,-3.8705,0.3971,0.5492,961.18,500.73,1344.73
20480,-3.8704,0.4220,0.6041,-1163.82,-1702.39,-967.71
20490,-3.8701,0.4452,0.6483,-1976.32,1328.92,-795.72
20500,-3.8698,0.4545,0.6718,992.43,-1014.77,1001.22
20510,-3.8695,0.4370,0.6777,-1820.07,1985.23,-1295.59
20520,-3.8693,0.3912,0.6737,-54.44,-1249.21,-1326.84
20530,-3.8691,0.3229,0.6646,-1913.82,-1764.89,-248.72
20540,-3.8690,0.2443,0.6451,1336.18,1063.11,923.16
20550,-3.8691,0.1722,0.6146,-726.32,-1421.45,-1467.53
20560,-3.8693,0.1168,0.5829,-1945.07,-1327.82,1501.16
20570,-3.8695,0.0823,0.5586,-1038.82,-1390.44,-717.65
20580,-3.8696,0.0692,0.5388,-1460.69,-499.88,1954.16
20590,-3.8698,0.0712,0.5182,867.43,968.87,-920.84
20600,-3.8698,0.0723,0.5033,1117.43,-1671.75,-1717.77
20610,-3.8698,0.0594,0.5005,1258.06,422.00,1829.10
20620,-3.8698,0.0334,0.5034,-382.57,62.56,1032.23
20630,-3.8698,0.0000,0.5070,289.31,437.56,641.60
20640,-3.8698,-0.0383,0.5111,8.06,890.62,1063.48
20650,-3.8698,-0.0771,0.5018,-898.19,1437.38,1063.48
20660,-3.8699,-0.1050,0.4668,-1866.94,249.82,-842.77
20670,-3.8700,-0.1171,0.4170,-1429.44,-234.62,-967.90
20680,-3.8701,-0.1245,0.3724,1023.68,1390.38,1922.67
20690,-3.8702,-0.1412,0.3438,70.56,-312.74,1485.05
20700,-3.8704,-0.1697,0.3281,1929.93,15.32,-1843.08
20710,-3.8705,-0.2010,0.3126,-1710.69,-1984.74,-968.14
20720,-3.8706,-0.2216,0.2864,-1726.32,30.82,-577.51
20730,-3.8706,-0.2247,0.2537,-351.32,671.39,375.55
20740,-3.8707,-0.2211,0.2295,-757.57,483.89,-1296.39
20750,-3.8707,-0.2202,0.2205,-288.82,1390.14,1047.30
20760,-3.8708,-0.2206,0.2159,-179.44,233.89,-1968.32
20770,-3.8710,-0.2196,0.2023,-226.32,-344.24,1734.74
20780,-3.8711,-0.2217,0.1775,-101.32,1905.76,859.74
20790,-3.8712,-0.2314,0.1537,-366.94,-1266.11,234.68
20800,-3.8713,-0.2448,0.1455,-1616.94,-312.99,422.12
20810,-3.8715,-0.2483,0.1488,679.93,-1359.86,922.12
20820,-3.8716,-0.2299,0.1504,226.81,-937.99,687.74
20830,-3.8718,-0.1899,0.1449,-1413.82,-734.86,-1062.26
20840,-3.8719,-0.1376,0.1337,-304.44,-1437.93,62.74
20850,-3.8722,-0.0873,0.1168,-1601.32,1124.69,1968.99
20860,-3.8723,-0.0563,0.1002,836.18,-1031.43,-1452.94
20870,-3.8723,-0.0563,0.0919,804.93,843.63,1547.06
20880,-3.8723,-0.0835,0.0861,804.93,-218.87,937.62
20890,-3.8724,-0.1167,0.0714,1320.56,-968.93,-1078.00
20900,-3.8726,-0.1307,0.0472,1070.56,1156.01,-1499.88
20910,-3.8727,-0.1141,0.0227,-726.32,-1937.81,125.06
20920,-3.8729,-0.0753,0.0055,1398.68,-1078.37,1421.88
20930,-3.8732,-0.0275,-0.0085,-1632.57,718.57,-453.12
20940,-3.8733,0.0184,-0.0195,492.43,-1078.19,-500.06
20950,-3.8733,0.0537,-0.0204,-1632.57,1500.00,1843.69
20960,-3.8733,0.0729,-0.0168,-1116.94,1390.69,-1703.19
20970,-3.8732,0.0770,-0.0129,1336.18,1843.87,749.94
20980,-3.8730,0.0723,-0.0029,1867.43,-1656.13,453.06
20990,-3.8730,0.0714,0.0125,1258.06,-374.88,-546.94
21000,-3.8729,0.0867,0.0197,1148.68,1593.87,515.62
21010,-3.8730,0.1187,0.0043,-898.19,-1484.25,-484.38
21020,-3.8730,0.1511,-0.0298,-804.44,547.06,859.38
21030,-3.8732,0.1649,-0.0645,-648.19,187.74,1796.81
21040,-3.8733,0.1572,-0.0872,1117.43,-249.69,-750.18
21050,-3.8733,0.1387,-0.0938,133.06,844.06,1906.07
21060,-3.8733,0.1266,-0.0870,1758.06,0.24,1593.57
21070,-3.8733,0.1384,-0.0757,211.18,859.62,1421.69
21080,-3.8733,0.1777,-0.0664,1726.81,-1687.26,1265.44
21090,-3.8733,0.2308,-0.0610,-1241.94,-499.69,937.32
21100,-3.8733,0.2826,-0.0555,1554.93,187.93,671.75
21110,-3.8733,0.3258,-0.0471,179.93,891.17,859.25
21120,-3.8733,0.3624,-0.0455,1711.18,1969.36,1124.88
21130,-3.8733,0.3992,-0.0568,-1601.32,-1827.45,796.75
21140,-3.8734,0.4381,-0.0725,-898.19,735.11,-765.75
21150,-3.8734,0.4744,-0.0819,86.18,-1280.40,656.07
21160,-3.8735,0.5016,-0.0736,726.81,1516.54,-1656.43
21170,-3.8735,0.5195,-0.0452,211.18,-1420.90,1952.94
21180,-3.8734,0.5320,-0.0060,-1491.94,-1780.27,828.00
21190,-3.8733,0.5421,0.0350,101.81,-764.59,-1031.31
21200,-3.8730,0.5553,0.0741,1398.68,485.41,-921.81
21210,-3.8728,0.5767,0.1102,-913.82,1485.41,-31.13
21220,-3.8724,0.6062,0.1377,1820.56,-1889.53,843.93
21230,-3.8722,0.6387,0.1486,1601.81,1626.16,437.74
21240,-3.8721,0.6675,0.1442,1758.06,-983.15,765.87
21250,-3.8721,0.6907,0.1360,1445.56,-1545.59,797.12
21260,-3.8722,0.7056,0.1332,414.31,1407.59,-1421.63
21270,-3.8722,0.7117,0.1337,-1679.44,1048.22,1000.24
21280,-3.8722,0.7156,0.1365,-898.19,1110.72,937.74
21290,-3.8722,0.7195,0.1549,-398.19,1470.09,-1156.01
21300,-3.8721,0.7203,0.2002,101.81,-170.47,-593.51
21310,-3.8718,0.7219,0.2517,211.18,1626.40,1922.24
21320,-3.8716,0.7377,0.2838,414.31,220.15,609.86
21330,-3.8715,0.7699,0.2976,-1570.07,329.53,1859.92
21340,-3.8713,0.8036,0.3030,-1445.07,-1904.79,1359.92
21350,-3.8713,0.8210,0.3018,-1132.57,-1217.22,-296.33
21360,-3.8712,0.8109,0.2942,1101.81,-1373.41,1328.67
21370,-3.8712,0.7756,0.2834,-195.07,1657.78,-1858.83
21380,-3.8712,0.7231,0.2715,-710.69,282.71,1844.30
21390,-3.8712,0.6653,0.2604,570.56,-1248.60,547.36
21400,-3.8713,0.6233,0.2578,1164.31,1329.41,-812.01
21410,-3.8713,0.6121,0.2762,-210.69,1001.16,-577.64
21420,-3.8712,0.6326,0.3184,-1648.19,-639.47,-1562.01
21430,-3.8710,0.6747,0.3746,976.81,751.22,203.74
21440,-3.8708,0.7188,0.4287,-1632.57,-45.59,-186.83
21450,-3.8706,0.7465,0.4598,8.06,-1123.60,-1217.96
21460,-3.8705,0.7506,0.4542,-445.07,-1139.22,1844.60
21470,-3.8706,0.7341,0.4213,86.18,-1857.91,-139.77
21480,-3.8707,0.7101,0.3843,1976.81,1923.28,-1577.33
21490,-3.8708,0.6913,0.3582,-1101.32,1188.84,188.23
21500,-3.8711,0.6760,0.3497,492.43,1845.09,-593.08
21510,-3.8711,0.6587,0.3622,-1460.69,766.91,1313.17
21520,-3.8711,0.6414,0.3909,320.56,-1639.34,1735.05
21530,-3.8710,0.6252,0.4287,-1898.19,-1967.53,360.11
21540,-3.8708,0.6003,0.4709,39.31,-1123.78,1219.54
21550,-3.8707,0.5616,0.5033,851.81,282.41,-483.46
21560,-3.8705,0.5238,0.5066,-101.32,422.91,782.23
21570,-3.8705,0.5063,0.4767,-945.07,844.73,-1264.65
21580,-3.8705,0.5117,0.4314,820.56,1016.60,1110.29
21590,-3.8706,0.5164,0.3981,1508.06,-780.27,1500.79
21600,-3.8707,0.4968,0.3904,-1898.19,-1045.90,1953.86
21610,-3.8707,0.4551,0.4072,-398.19,1969.67,547.61
21620,-3.8707,0.4141,0.4409,-1741.94,125.85,-1874.21
21630,-3.8706,0.3979,0.4832,1008.06,438.29,1578.98
21640,-3.8705,0.4109,0.5317,-1054.44,1844.48,-1170.96
21650,-3.8702,0.4337,0.5714,601.81,63.29,-1983.34
21660,-3.8700,0.4464,0.5785,-476.32,1141.42,672.97
21670,-3.8700,0.4401,0.5513,1148.68,-1952.27,-592.65
21680,-3.8700,0.4158,0.5083,336.18,-1436.65,1485.41
21690,-3.8701,0.3804,0.4708,1226.81,1063.29,1516.60
21700,-3.8702,0.3442,0.4536,695.56,266.36,-1186.58
21710,-3.8702,0.3204,0.4574,70.56,-1936.83,-1296.02
21720,-3.8701,0.3163,0.4727,1023.68,-1452.51,282.10
21730,-3.8701,0.3223,0.4961,492.43,500.61,-1061.58
21740,-3.8700,0.3186,0.5303,1258.06,-499.39,-1045.96
21750,-3.8698,0.2938,0.5638,789.31,-124.39,79.10
21760,-3.8696,0.2512,0.5809,1617.43,172.42,1438.60
21770,-3.8695,0.2015,0.5758,164.31,-1640.14,1516.72
21780,-3.8695,0.1584,0.5469,1804.93,1703.49,-1202.03
21790,-3.8695,0.1304,0.5031,289.31,-1999.69,641.66
21800,-3.8698,0.1171,0.4581,695.56,390.87,-624.02
21810,-3.8699,0.1155,0.4166,-1007.57,-1359.19,297.73
21820,-3.8701,0.1193,0.3815,-1210.69,1328.31,1719.54
21830,-3.8702,0.1180,0.3619,-726.32,828.31,1828.86
21840,-3.8702,0.1084,0.3633,-882.57,-1671.69,1047.55
21850,-3.8702,0.0925,0.3771,1883.06,-1499.82,-1343.08
21860,-3.8701,0.0712,0.3947,-148.19,265.75,1703.86
21870,-3.8700,0.0427,0.4135,1117.43,-1484.25,1094.48
21880,-3.8700,0.0077,0.4209,1476.81,921.94,-483.58
21890,-3.8699,-0.0254,0.3988,992.43,1875.00,547.67
21900,-3.8699,-0.0540,0.3517,758.06,-937.56,485.11
21910,-3.8700,-0.0863,0.3002,1101.81,1031.13,-1264.95
21920,-3.8701,-0.1237,0.2605,961.18,-1562.68,-624.45
21930,-3.8702,-0.1603,0.2455,179.93,1359.13,-749.51
21940,-3.8704,-0.1921,0.2565,-507.57,-562.87,-1671.45
21950,-3.8705,-0.2094,0.2782,-585.69,843.32,16.11
21960,-3.8708,-0.1921,0.2823,1211.18,-375.43,-921.39
21970,-3.8712,-0.1378,0.2534,-585.69,155.82,-655.70
21980,-3.8716,-0.0625,0.1974,-1632.57,452.82,-765.14
21990,-3.8718,0.0164,0.1378,8.06,1281.13,1687.87
22000,-3.8719,0.0770,0.1127,-1898.19,1640.62,625.24
22010,-3.8719,0.1013,0.1334,1867.43,-1578.00,93.93
22020,-3.8719,0.0831,0.1727,976.81,1078.31,-718.51
22030,-3.8717,0.0289,0.2010,-1351.32,-1890.50,969.06
22040,-3.8716,-0.0430,0.2042,-288.82,1734.38,-1530.88
22050,-3.8715,-0.1069,0.1879,-1491.94,-1843.87,1547.24
22060,-3.8715,-0.1414,0.1646,-1679.44,62.26,1469.12
22070,-3.8716,-0.1396,0.1393,1914.31,1077.82,-1187.19
22080,-3.8717,-0.1100,0.1129,-1866.94,1843.44,-1577.88
22090,-3.8718,-0.0688,0.0859,1929.93,-1531.49,1140.81
22100,-3.8719,-0.0363,0.0681,-804.44,-984.56,562.62
22110,-3.8721,-0.0286,0.0651,-632.57,734.25,1734.50
22120,-3.8721,-0.0432,0.0703,351.81,343.69,812.62
22130,-3.8721,-0.0616,0.0826,-1523.19,1015.50,968.87
22140,-3.8722,-0.0658,0.0962,117.43,-1406.37,-421.75
22150,-3.8723,-0.0475,0.1001,-413.82,327.94,-827.94
22160,-3.8724,-0.0148,0.0865,1929.93,828.00,718.93
22170,-3.8727,0.0186,0.0579,-1882.57,-906.31,1828.25
22180,-3.8729,0.0508,0.0236,-1616.94,-593.75,-578.06
22190,-3.8730,0.0853,-0.0088,-1491.94,-984.31,-1796.88
22200,-3.8732,0.1172,-0.0332,-1070.07,-1124.88,-1156.31
22210,-3.8732,0.1351,-0.0481,-991.94,-249.82,1015.50
22220,-3.8732,0.1353,-0.0570,1304.93,1843.99,156.13
22230,-3.8733,0.1243,-0.0613,1320.56,703.37,-187.62
22240,-3.8733,0.1161,-0.0610,-85.69,156.43,-484.50
22250,-3.8733,0.1208,-0.0582,-1132.57,187.68,-937.62
22260,-3.8733,0.1381,-0.0542,-523.19,547.06,-1312.62
22270,-3.8733,0.1636,-0.0531,1679.93,1062.74,-1640.75
22280,-3.8733,0.1925,-0.0635,945.56,1203.43,1718.63
22290,-3.8733,0.2245,-0.0892,648.68,-124.63,359.19
22300,-3.8734,0.2588,-0.1195,742.43,578.55,-1515.81
22310,-3.8734,0.2871,-0.1384,1133.06,703.61,749.76
22320,-3.8734,0.3011,-0.1403,758.06,-1718.20,218.44
22330,-3.8734,0.3030,-0.1230,-1445.07,-1952.58,-1781.56
22340,-3.8733,0.3048,-0.0933,-1210.69,250.55,-922.12
22350,-3.8730,0.3204,-0.0631,-976.32,63.05,1421.69
22360,-3.8729,0.3541,-0.0371,1023.68,-77.51,-640.81
22370,-3.8728,0.3993,-0.0189,1336.18,-749.33,-359.50
22380,-3.8727,0.4468,-0.0133,-882.57,1578.86,1343.69
22390,-3.8727,0.4871,-0.0138,1195.56,-1702.27,828.06
22400,-3.8728,0.5104,-0.0099,-1648.19,-1764.71,-593.81
22410,-3.8728,0.5160,-0.0009,1336.18,-1264.65,-1984.44
22420,-3.8728,0.5151,0.0112,-1945.07,-108.40,1718.69
22430,-3.8728,0.5262,0.0291,1945.56,1438.48,-859.38
22440,-3.8727,0.5610,0.0580,-632.57,-280.27,-1500.00
22450,-3.8726,0.6104,0.0942,-179.44,-577.09,-140.56
22460,-3.8723,0.6536,0.1262,-1866.94,63.66,-1796.69
22470,-3.8722,0.6743,0.1493,-335.69,157.47,-218.51
22480,-3.8721,0.6772,0.1650,-1679.44,-889.34,-531.01
22490,-3.8719,0.6798,0.1732,-1304.44,1126.28,1062.81
22500,-3.8719,0.6841,0.1730,-976.32,-1826.84,703.43
22510,-3.8721,0.6794,0.1647,-429.44,-1858.09,-1187.19
22520,-3.8721,0.6642,0.1544,-1023.19,1079.41,844.06
22530,-3.8721,0.6527,0.1539,1023.68,-233.09,390.87
22540,-3.8721,0.6642,0.1680,-445.07,-295.65,1609.62
22550,-3.8721,0.7002,0.1912,1023.68,1501.28,-234.07
22560,-3.8719,0.7377,0.2130,1633.06,470.09,1937.87
22570,-3.8719,0.7462,0.2272,-1570.07,-732.97,-218.38
22580,-3.8718,0.7140,0.2355,-476.32,1079.53,1359.80
22590,-3.8718,0.6615,0.2366,-601.32,-1858.03,-1468.32
22600,-3.8718,0.6187,0.2302,679.93,-1717.47,-327.70
22610,-3.8717,0.5995,0.2266,-804.44,1469.91,656.68
22620,-3.8717,0.6062,0.2388,742.43,1001.16,937.93
22630,-3.8717,0.6335,0.2742,1601.81,-1436.34,1641.05
22640,-3.8716,0.6649,0.3269,1101.81,-905.03,609.86
22650,-3.8715,0.6829,0.3765,1117.43,1845.03,-1890.01
22660,-3.8712,0.6829,0.4017,-585.69,188.78,766.36
22670,-3.8711,0.6781,0.3920,-585.69,-576.84,1328.86
22680,-3.8711,0.6825,0.3551,-1195.07,-1826.84,1000.73
22690,-3.8712,0.6913,0.3158,-632.57,1454.41,656.92
22700,-3.8715,0.6958,0.2926,492.43,423.22,-1233.76
22710,-3.8716,0.6975,0.2855,1070.56,1454.47,1281.80
22720,-3.8717,0.6958,0.2937,1289.31,548.22,1672.42
22730,-3.8717,0.6898,0.3237,1070.56,1595.09,1078.67
22740,-3.8716,0.6835,0.3743,304.93,1438.84,422.49
22750,-3.8715,0.6803,0.4294,-507.57,-92.47,-1218.08
22760,-3.8712,0.6737,0.4750,-913.82,-1029.97,-1717.96
22770,-3.8710,0.6548,0.5044,-1757.57,798.16,1704.04
22780,-3.8708,0.6295,0.5082,-179.44,563.72,-420.90
22790,-3.8707,0.6102,0.4852,586.18,1048.10,-1936.52
22800,-3.8707,0.6007,0.4553,-1882.57,-1889.47,1000.92
22810,-3.8708,0.5979,0.4397,898.68,-1717.59,1719.60
22820,-3.8710,0.6060,0.4441,539.31,282.41,1625.85
22830,-3.8711,0.6273,0.4570,1570.56,844.91,1828.98
22840,-3.8712,0.6407,0.4666,304.93,-1498.78,-811.65
22850,-3.8712,0.6195,0.4745,-1976.32,-280.03,-1077.27
22860,-3.8711,0.5599,0.4852,-695.07,735.53,1438.42
22870,-3.8710,0.4897,0.4991,-320.07,-1889.59,1985.29
22880,-3.8708,0.4419,0.5127,-1304.44,-108.46,-905.33
22890,-3.8707,0.4325,0.5186,570.56,1625.85,-1405.27
22900,-3.8707,0.4690,0.5111,-632.57,-1624.21,-1108.40
22910,-3.8707,0.5359,0.4985,39.31,1422.79,532.23
22920,-3.8708,0.5914,0.4977,601.81,-186.46,1547.79
22930,-3.8708,0.5988,0.5135,-288.82,-295.78,16.54
22940,-3.8708,0.5564,0.5394,648.68,1735.53,1250.98
22950,-3.8707,0.4955,0.5621,-773.19,1047.91,782.29
22960,-3.8706,0.4487,0.5752,-570.07,-45.96,922.91
22970,-3.8705,0.4238,0.5863,1445.56,1625.85,501.10
22980,-3.8705,0.4088,0.5964,-1741.94,-952.33,-186.40
22990,-3.8704,0.3926,0.5967,336.18,344.54,-420.72
23000,-3.8702,0.3712,0.5791,-1741.94,375.73,-1076.97
23010,-3.8701,0.3490,0.5421,-476.32,-1874.33,47.97
23020,-3.8702,0.3336,0.5009,679.93,1391.30,-858.34
23030,-3.8702,0.3247,0.4801,-1288.82,109.99,-1295.90
23040,-3.8701,0.3221,0.4856,1570.56,1453.74,407.17
23050,-3.8701,0.3331,0.5073,1242.43,-1843.14,-327.21
23060,-3.8700,0.3544,0.5349,-1351.32,938.11,-842.77
23070,-3.8699,0.3671,0.5581,1367.43,469.42,1735.41
23080,-3.8699,0.3588,0.5715,-1007.57,-561.83,-545.84
23090,-3.8698,0.3303,0.5765,1929.93,1156.92,1079.22
23100,-3.8698,0.2913,0.5728,-1710.69,1797.49,-920.78
