timestamp_ms,ax,ay,az,gx,gy,gz
0,-3.8682,-1.0176,0.4296,-1304.44,716.86,1219.54
10,-3.8677,-1.0334,0.4735,1758.06,-1002.01,-1936.71
20,-3.8672,-0.9792,0.5262,-273.19,622.92,1219.67
30,-3.8668,-0.8737,0.5479,-1335.69,-626.95,-1749.02
40,-3.8665,-0.7371,0.5369,179.93,-1861.08,1016.66
50,-3.8662,-0.5890,0.5109,1664.31,732.91,422.91
60,-3.8662,-0.4432,0.4769,617.43,1405.09,-1170.90
70,-3.8663,-0.2992,0.4462,-726.32,1061.58,-170.96
80,-3.8665,-0.1472,0.4417,1711.18,1124.39,1813.35
90,-3.8666,0.0295,0.4741,1164.31,546.57,641.48
100,-3.8667,0.2521,0.5278,-210.69,687.50,-1608.46
110,-3.8667,0.5098,0.5802,273.68,-437.01,-1920.90
120,-3.8667,0.7831,0.6157,1258.06,-1733.40,485.47
130,-3.8669,1.0454,0.6279,242.43,-1185.97,-264.47
140,-3.8672,1.2501,0.6144,1820.56,377.01,-811.28
150,-3.8676,1.3964,0.5809,23.68,-1356.93,-1373.84
160,-3.8680,1.4889,0.5371,-1257.57,-1637.94,-1311.40
170,-3.8685,1.5178,0.4904,-1413.82,752.87,126.04
180,-3.8693,1.5731,0.4446,-1710.69,-1231.45,-30.33
190,-3.8699,1.6704,0.4093,1367.43,909.30,-546.02
200,-3.8705,1.7614,0.4041,1820.56,393.86,-358.58
210,-3.8710,1.8521,0.4271,1461.18,-277.83,1656.98
220,-3.8715,1.9087,0.4587,1070.56,-1324.52,-1764.83
230,-3.8718,1.9159,0.4778,320.56,-1277.53,500.85
240,-3.8723,1.8846,0.4760,1242.43,1159.97,-1280.33
250,-3.8728,1.8187,0.4551,1242.43,925.54,-999.08
260,-3.8733,1.7255,0.4156,804.93,-1746.46,938.35
270,-3.8739,1.6107,0.3679,867.43,1206.48,-1686.71
280,-3.8744,1.4949,0.3220,-1820.07,-903.14,1344.42
290,-3.8749,1.3806,0.2822,-648.19,1221.62,-983.76
300,-3.8440,1.2717,0.2491,726.81,127.69,-843.20
310,-3.8442,1.1587,0.2250,-1210.69,-106.93,-1687.07
320,-3.8444,1.0375,0.2080,320.56,799.13,687.93
330,-3.8445,0.9121,0.1915,804.93,-1372.99,1500.37
340,-3.8445,0.7866,0.1813,758.06,517.40,156.62
350,-3.8445,0.6675,0.1786,695.56,-795.35,422.18
360,-3.8445,0.5565,0.1737,1445.56,-1139.34,1875.31
370,-3.8445,0.4565,0.1603,-757.57,-1764.59,-984.07
380,-3.8445,0.3656,0.1381,-1554.44,516.48,-1749.69
390,-3.8446,0.2826,0.1149,-1195.07,1672.55,-374.76
400,-3.8446,0.2021,0.1003,179.93,-1296.33,140.81
410,-3.8447,0.1313,0.0944,1883.06,844.12,984.56
420,-3.8448,0.0659,0.0903,820.56,78.37,-452.94
430,-3.8447,0.0018,0.0925,445.56,-437.38,406.37
440,-3.8447,-0.0630,0.1096,242.43,-156.25,-359.25
450,-3.8445,-0.1329,0.1417,-54.44,-1953.31,-1281.07
460,-3.8441,-0.2119,0.1863,-1007.57,-1844.06,-265.38
470,-3.8748,-0.3060,0.2421,883.06,-141.05,-1155.94
480,-3.8740,-0.4071,0.3103,836.18,-1000.61,-1202.70
490,-3.8732,-0.5040,0.3848,-101.32,-266.48,-733.83
500,-3.8722,-0.5964,0.4419,-507.57,1264.59,-186.77
510,-3.8711,-0.7085,0.4554,-335.69,576.90,1016.48
520,-3.8702,-0.8123,0.4277,1320.56,-1688.90,-1671.02
530,-3.8695,-0.8639,0.3809,39.31,-1235.96,1766.42
540,-3.8690,-0.8966,0.3364,1429.93,763.92,-327.39
550,-3.8685,-0.8903,0.3046,1242.43,-923.65,1500.61
560,-3.8682,-0.8589,0.2797,-1945.07,-1001.77,1125.55
570,-3.8679,-0.8298,0.2660,-1929.44,-189.21,-1155.76
580,-3.8677,-0.7782,0.2792,1789.31,-1939.15,-1702.64
590,-3.8674,-0.6871,0.3152,398.68,-251.53,187.99
600,-3.8673,-0.5389,0.3508,54.93,358.03,1063.11
610,-3.8672,-0.3447,0.3708,-976.32,920.78,219.42
620,-3.8673,-0.1294,0.3632,-116.94,-516.36,-311.83
630,-3.8674,0.0736,0.3536,-554.44,-1500.31,-546.20
640,-3.8676,0.2751,0.3818,1429.93,1265.75,-1796.20
650,-3.8677,0.4867,0.4353,-773.19,875.49,-686.77
660,-3.8677,0.6943,0.4927,-1695.07,-280.33,-46.08
670,-3.8676,0.8965,0.5375,883.06,-936.16,1313.42
680,-3.8676,1.0887,0.5605,-1241.94,798.58,47.91
690,-3.8678,1.2548,0.5686,-632.57,-247.92,-1530.21
700,-3.8680,1.4227,0.5658,617.43,783.69,251.10
710,-3.8685,1.5840,0.5543,-1882.57,424.62,-1123.90
720,-3.8690,1.6705,0.5382,-1241.94,-1043.82,-1014.59
730,-3.8695,1.7308,0.5084,1836.18,893.86,266.66
740,-3.8702,1.7811,0.4584,1554.93,1081.48,-1014.65
750,-3.8710,1.8058,0.4014,-7.57,-1324.71,-1139.77
760,-3.8717,1.8179,0.3506,-851.32,-621.52,1391.36
770,-3.8724,1.8020,0.3223,695.56,878.54,1563.17
780,-3.8730,1.7515,0.3107,-1335.69,1253.48,141.24
790,-3.8737,1.6659,0.2986,195.56,-230.96,1609.92
800,-3.8741,1.5725,0.2861,1242.43,-1778.02,-1702.58
810,-3.8745,1.4794,0.2748,1289.31,628.05,1719.30
820,-3.8749,1.3871,0.2655,1367.43,-825.26,-827.64
830,-3.8439,1.3046,0.2559,1554.93,1987.06,-1749.51
840,-3.8441,1.2216,0.2455,-1007.57,752.50,-1015.14
850,-3.8442,1.1230,0.2371,367.43,-575.74,1687.93
860,-3.8444,1.0005,0.2289,-241.94,-1654.11,-1468.32
870,-3.8444,0.8606,0.2245,70.56,1298.83,1531.68
880,-3.8444,0.7168,0.2241,-1835.69,736.02,1625.43
890,-3.8444,0.5762,0.2203,-241.94,688.84,1625.43
900,-3.8444,0.4508,0.2120,1758.06,204.22,1469.18
910,-3.8444,0.3381,0.2036,1711.18,-858.52,1172.24
920,-3.8444,0.2438,0.1930,-710.69,-1936.89,265.99
930,-3.8445,0.1689,0.1785,-788.82,703.55,-1062.13
940,-3.8445,0.1012,0.1699,1633.06,-1155.94,-1812.19
950,-3.8445,0.0433,0.1700,961.18,1750.18,-577.82
960,-3.8444,-0.0142,0.1746,1554.93,1765.69,-140.32
970,-3.8441,-0.0895,0.1866,-1804.44,-1640.69,-327.82
980,-3.8750,-0.1769,0.2178,554.93,-93.93,-1265.32
990,-3.8745,-0.2672,0.2659,1367.43,-109.74,1781.62
1000,-3.8739,-0.3584,0.3180,1804.93,-1953.67,-1983.89
1010,-3.8732,-0.4557,0.3621,-1866.94,718.02,-1343.14
1020,-3.8723,-0.5548,0.3986,1679.93,-1641.54,1610.05
1030,-3.8715,-0.6667,0.4321,992.43,-969.85,1688.23
1040,-3.8706,-0.7863,0.4543,-1335.69,-673.22,1719.54
1050,-3.8699,-0.8519,0.4543,-632.57,-1829.71,-1202.27
1060,-3.8693,-0.8774,0.4296,-1038.82,-1829.83,-1358.52
1070,-3.8688,-0.8752,0.4017,-304.44,-1001.77,1938.29
1080,-3.8684,-0.8265,0.3840,-23.19,-564.27,-1514.89
1090,-3.8680,-0.7645,0.3738,-1788.82,1170.23,1875.73
1100,-3.8677,-0.6775,0.3751,-1851.32,-142.15,610.05
1110,-3.8674,-0.5645,0.3969,1289.31,29.91,-1343.02
1120,-3.8672,-0.4160,0.4307,-241.94,-1188.66,-1358.64
1130,-3.8671,-0.2318,0.4530,-1241.94,-860.23,-686.71
1140,-3.8669,-0.0365,0.4652,-1663.82,1999.51,1344.60
1150,-3.8669,0.1879,0.4771,-663.82,-437.62,1500.85
1160,-3.8669,0.4363,0.5021,54.93,1062.87,750.92
1170,-3.8671,0.7056,0.5430,-148.19,266.42,-717.77
1180,-3.8671,0.9822,0.5801,-1679.44,1501.34,407.29
1190,-3.8673,1.2091,0.6095,1726.81,-1748.11,-1280.15
1200,-3.8676,1.4005,0.6381,-1226.32,-1982.06,204.28
1210,-3.8680,1.5934,0.6581,-726.32,1674.56,782.47
1220,-3.8687,1.7336,0.6637,-38.82,237.43,-1998.72
1230,-3.8693,1.8455,0.6475,1914.31,956.48,626.28
1240,-3.8700,1.9406,0.5918,226.81,-1121.40,751.22
1250,-3.8708,1.9899,0.5154,398.68,-246.22,-1373.90
1260,-3.8717,1.9969,0.4531,-1288.82,1972.60,-545.90
1270,-3.8724,1.9429,0.4178,-382.57,-1996.15,953.98
1280,-3.8732,1.8196,0.3965,695.56,1488.16,500.79
1290,-3.8739,1.6619,0.3739,914.31,-1246.46,-171.14
1300,-3.8744,1.5162,0.3514,726.81,-137.39,-124.33
1310,-3.8748,1.4004,0.3302,-1913.82,987.30,-577.45
1320,-3.8750,1.3126,0.3103,-741.94,-1731.69,1156.86
1330,-3.8440,1.2328,0.2950,23.68,-278.69,797.42
1340,-3.8442,1.1359,0.2866,1804.93,1768.01,-1186.95
1350,-3.8444,1.0164,0.2821,1398.68,689.70,-530.70
1360,-3.8444,0.8904,0.2788,-1898.19,111.33,-1921.33
1370,-3.8444,0.7700,0.2754,1976.81,-310.79,1562.99
1380,-3.8444,0.6597,0.2672,-1429.44,-748.54,1172.36
1390,-3.8444,0.5529,0.2585,445.56,-1795.59,641.11
1400,-3.8445,0.4524,0.2521,-1226.32,1094.79,-327.64
1410,-3.8445,0.3531,0.2415,1914.31,266.48,-1624.51
1420,-3.8445,0.2615,0.2277,1211.18,-1093.08,969.18
1430,-3.8446,0.1826,0.2111,1476.81,1141.11,-718.32
1440,-3.8446,0.1123,0.1908,-616.94,-984.07,1750.37
1450,-3.8446,0.0565,0.1682,-1616.94,422.06,1422.24
1460,-3.8446,0.0073,0.1461,-757.57,1531.31,-1015.32
1470,-3.8445,-0.0502,0.1379,945.56,-1296.88,-515.38
1480,-3.8441,-0.1196,0.1656,1586.18,1671.75,1343.99
1490,-3.8749,-0.2092,0.2266,695.56,1218.51,-1702.82
1500,-3.8741,-0.3240,0.2830,1226.81,1015.20,1250.43
1510,-3.8733,-0.4512,0.3206,-1460.69,233.70,0.55
1520,-3.8724,-0.5770,0.3633,-1741.94,1045.96,1719.36
1530,-3.8715,-0.7051,0.4229,-1851.32,-1485.53,1625.67
1540,-3.8705,-0.8243,0.4882,1758.06,-1860.78,1766.42
1550,-3.8695,-0.8792,0.5386,-1507.57,-1501.65,625.92
1560,-3.8687,-0.8870,0.5551,-523.19,951.35,1407.29
1570,-3.8679,-0.8826,0.5332,-1523.19,-939.27,1516.66
1580,-3.8674,-0.8258,0.4681,-960.69,263.85,1797.91
1590,-3.8672,-0.7161,0.3850,-1695.07,-64.15,-1717.90
1600,-3.8671,-0.5532,0.3235,351.81,1295.47,125.73
1610,-3.8672,-0.3661,0.3024,1195.56,1420.78,-1921.26
1620,-3.8673,-0.1882,0.3315,1148.68,-1281.98,-30.70
1630,-3.8672,0.0111,0.4067,-85.69,-1547.30,0.61
1640,-3.8672,0.2373,0.5199,1429.93,62.50,-452.33
1650,-3.8669,0.4850,0.6339,-1616.94,-1452.70,1047.85
1660,-3.8668,0.7463,0.7070,-1913.82,1141.54,1266.85
1670,-3.8668,0.9963,0.7330,-460.69,-1498.60,579.47
1680,-3.8671,1.2053,0.7335,-460.69,1830.02,501.40
1690,-3.8676,1.3965,0.7295,-1710.69,1892.94,1079.53
1700,-3.8682,1.5837,0.7115,-1241.94,1377.69,501.40
1710,-3.8689,1.6931,0.6697,-1273.19,-918.82,1454.47
1720,-3.8696,1.7323,0.6018,726.81,1722.05,1720.03
1730,-3.8704,1.7179,0.5084,1742.43,1034.61,-1030.09
1740,-3.8710,1.6915,0.4283,-101.32,1081.42,1391.60
1750,-3.8716,1.7061,0.4091,523.68,-1168.58,766.42
1760,-3.8722,1.7136,0.4330,-1616.94,362.67,469.54
1770,-3.8728,1.6816,0.4482,-648.19,-574.83,750.79
1780,-3.8734,1.6183,0.4377,-741.94,1378.23,-421.02
1790,-3.8738,1.5238,0.4097,-851.32,34.36,1391.48
1800,-3.8741,1.4114,0.3733,-945.07,440.43,985.17
1810,-3.8745,1.3000,0.3350,664.31,-216.00,1328.80
1820,-3.8749,1.1912,0.2991,-1585.69,-1122.50,-1530.64
1830,-3.8439,1.0769,0.2675,476.81,-1716.43,1156.80
1840,-3.8441,0.9548,0.2424,1851.81,-1763.55,-1999.51
1850,-3.8442,0.8331,0.2273,-1773.19,-966.92,1172.30
1860,-3.8444,0.7205,0.2240,-1351.32,1095.34,-1405.82
1870,-3.8444,0.6177,0.2264,226.81,673.28,1875.43
1880,-3.8444,0.5166,0.2305,-929.44,985.53,-1796.45
1890,-3.8444,0.4225,0.2355,-1866.94,1500.98,-1687.07
1900,-3.8444,0.3346,0.2419,-1913.82,-1858.58,1937.93
1910,-3.8444,0.2594,0.2476,-1163.82,-1030.64,1719.18
1920,-3.8444,0.1826,0.2371,1211.18,-312.01,1922.30
1930,-3.8444,0.0996,0.2040,-616.94,-1655.94,1922.30
1940,-3.8444,0.0251,0.1583,758.06,-1890.44,1297.24
1950,-3.8444,-0.0415,0.1199,-773.19,265.62,1312.81
1960,-3.8442,-0.1012,0.1057,-1304.44,-640.75,578.31
1970,-3.8440,-0.1527,0.1226,-945.07,1546.63,734.56
1980,-3.8749,-0.2136,0.1663,461.18,-297.18,-1999.82
1990,-3.8743,-0.3035,0.2336,664.31,1296.45,531.56
2000,-3.8735,-0.4185,0.3243,1164.31,1921.26,656.68
2010,-3.8727,-0.5377,0.4180,-1554.44,1530.40,1828.74
2020,-3.8717,-0.6495,0.4785,-820.07,1514.53,797.67
2030,-3.8710,-0.7642,0.4797,867.43,1264.34,-61.58
2040,-3.8702,-0.8442,0.4287,-1804.44,1420.35,219.67
2050,-3.8698,-0.8596,0.3717,-54.44,-1111.08,610.17
2060,-3.8693,-0.8610,0.3495,1976.81,-407.96,328.80
2070,-3.8689,-0.8486,0.3573,1804.93,748.29,-1280.58
2080,-3.8685,-0.8198,0.3738,-616.94,1748.29,-1014.95
2090,-3.8682,-0.7488,0.3929,-929.44,-142.27,1969.42
2100,-3.8678,-0.6093,0.4137,164.31,-1688.96,1031.98
2110,-3.8676,-0.4425,0.4323,-1976.32,967.53,-358.58
2120,-3.8672,-0.2523,0.4495,-632.57,-657.17,360.17
2130,-3.8671,-0.0607,0.4626,-288.82,1546.33,-1702.27
2140,-3.8669,0.1125,0.4672,242.43,-765.75,1125.85
2150,-3.8669,0.2821,0.4724,-1585.69,-202.94,-1811.65
2160,-3.8669,0.4580,0.5020,117.43,469.30,-514.71
2170,-3.8668,0.6554,0.5625,-1366.94,250.85,1297.85
2180,-3.8668,0.8680,0.6230,-101.32,1.22,-1702.03
2190,-3.8668,1.0697,0.6628,-882.57,-248.35,1704.28
2200,-3.8669,1.2396,0.6841,929.93,845.83,1704.41
2210,-3.8673,1.3826,0.6761,-1320.07,-435.12,-764.34
2220,-3.8678,1.4924,0.6320,976.81,-1450.44,1766.91
2230,-3.8685,1.5662,0.5597,-960.69,893.49,-1467.53
2240,-3.8693,1.6221,0.4664,476.81,-356.32,219.79
2250,-3.8701,1.6277,0.3737,-366.94,-293.76,-858.52
2260,-3.8707,1.6237,0.3260,351.81,-168.70,891.30
2270,-3.8713,1.6162,0.3416,-163.82,1737.49,1953.74
2280,-3.8718,1.5649,0.3907,-1116.94,-278.14,-1327.51
2290,-3.8722,1.4801,0.4335,320.56,-1981.32,-1405.52
2300,-3.8724,1.3864,0.4462,1461.18,-512.76,47.67
2310,-3.8728,1.3052,0.4236,1461.18,1112.06,47.73
2320,-3.8733,1.2405,0.3785,-929.44,-1778.75,891.42
2330,-3.8738,1.1808,0.3425,-1210.69,455.51,328.86
2340,-3.8743,1.0994,0.3284,-851.32,-153.99,1703.74
2350,-3.8746,0.9885,0.3138,726.81,-1966.61,-1702.51
2360,-3.8749,0.8586,0.2861,-1460.69,173.77,875.61
2370,-3.8440,0.7250,0.2539,1914.31,626.65,-46.33
2380,-3.8442,0.5929,0.2261,804.93,501.40,-905.76
2390,-3.8445,0.4696,0.2059,-101.32,938.60,-858.95
2400,-3.8446,0.3507,0.1936,117.43,-1639.71,1297.24
2410,-3.8447,0.2419,0.1890,898.68,781.92,-1937.13
2420,-3.8447,0.1412,0.1913,-1023.19,187.93,1047.24
2430,-3.8447,0.0581,0.1880,-1913.82,484.62,922.24
2440,-3.8447,-0.0055,0.1661,-554.44,62.56,500.37
2450,-3.8448,-0.0604,0.1268,-695.07,1281.19,-796.57
2460,-3.8448,-0.1083,0.0889,273.68,249.88,-1906.01
2470,-3.8448,-0.1588,0.0792,-1851.32,-609.62,-218.63
2480,-3.8446,-0.2252,0.1041,-320.07,-1844.12,1765.75
2490,-3.8444,-0.3051,0.1425,-820.07,1343.26,-15.44
2500,-3.8439,-0.3905,0.1787,961.18,-1750.61,-1031.01
2510,-3.8745,-0.4982,0.2128,-1976.32,-1110.17,-1202.82
2520,-3.8738,-0.6198,0.2659,242.43,-750.98,-1499.63
2530,-3.8729,-0.7441,0.3453,679.93,-1954.35,828.61
2540,-3.8721,-0.8544,0.4091,758.06,217.29,422.55
2550,-3.8712,-0.8951,0.4327,-1351.32,373.29,328.92
2560,-3.8704,-0.9071,0.4424,1429.93,-595.52,782.04
2570,-3.8695,-0.9249,0.4594,-101.32,638.79,1516.48
2580,-3.8687,-0.9498,0.4774,1617.43,-1189.33,547.73
2590,-3.8679,-0.9740,0.4949,-1570.07,1123.11,407.17
2600,-3.8673,-0.9601,0.5132,-663.82,-642.58,547.79
2610,-3.8668,-0.8854,0.5284,1117.43,1701.23,1110.35
2620,-3.8665,-0.7303,0.5361,-1320.07,-345.52,985.35
2630,-3.8663,-0.5099,0.5388,-1476.32,639.16,-827.09
2640,-3.8662,-0.2644,0.5441,-1257.57,983.34,1063.54
2650,-3.8662,-0.0300,0.5659,-1835.69,1655.70,610.41
2660,-3.8663,0.1980,0.6117,164.31,453.06,-561.40
2670,-3.8663,0.4149,0.6671,1351.81,-1702.76,-1655.09
2680,-3.8663,0.6125,0.7120,1117.43,1391.42,657.53
2690,-3.8666,0.8040,0.7227,-1585.69,-858.22,-358.03
2700,-3.8668,0.9740,0.6796,-1085.69,501.53,360.78
2710,-3.8674,1.0931,0.5989,679.93,-1013.73,-1654.97
2720,-3.8682,1.1993,0.5197,-70.07,658.33,-45.72
2730,-3.8688,1.3049,0.4661,1523.68,-1482.06,797.85
2740,-3.8695,1.3666,0.4379,-960.69,-341.25,-217.90
2750,-3.8700,1.4304,0.4227,-1070.07,49.50,1516.48
2760,-3.8705,1.4963,0.4053,-898.19,-1887.88,641.42
2770,-3.8711,1.5397,0.3859,-460.69,-122.13,-702.39
2780,-3.8716,1.5861,0.3729,1086.18,1393.62,1547.61
2790,-3.8721,1.6069,0.3635,-976.32,-262.57,547.55
2800,-3.8726,1.5913,0.3535,1695.56,-1465.64,344.42
2810,-3.8730,1.5509,0.3505,-304.44,1253.05,1281.92
2820,-3.8735,1.4988,0.3511,-1476.32,862.37,-733.70
2830,-3.8739,1.4338,0.3417,-148.19,940.37,1985.05
2840,-3.8743,1.3501,0.3193,-460.69,-262.88,1641.24
2850,-3.8746,1.2561,0.2930,820.56,877.62,-952.51
2860,-3.8749,1.1411,0.2720,789.31,1502.44,-858.83
2870,-3.8750,1.0082,0.2551,-1929.44,-1185.30,1016.11
2880,-3.8440,0.8784,0.2361,1054.93,658.20,-405.76
2890,-3.8441,0.7635,0.2205,445.56,-1779.54,-593.32
2900,-3.8441,0.6553,0.2177,1742.43,220.21,1437.93
2910,-3.8441,0.5493,0.2207,-116.94,-139.40,1281.62
2920,-3.8441,0.4536,0.2170,-1679.44,251.04,1484.80
2930,-3.8441,0.3639,0.2078,-1929.44,-217.90,781.62
2940,-3.8442,0.2865,0.1969,-1413.82,-1405.58,-1468.38
2950,-3.8444,0.2162,0.1766,679.93,1203.67,-562.13
2960,-3.8444,0.1439,0.1549,-320.07,-1390.26,1640.93
2970,-3.8444,0.0677,0.1440,-1570.07,-171.63,-1702.88
2980,-3.8442,-0.0199,0.1450,679.93,-1562.38,1390.87
2990,-3.8441,-0.1096,0.1530,1461.18,-1421.94,-1218.51
3000,-3.8439,-0.1937,0.1670,1976.81,-406.49,-968.51
3010,-3.8748,-0.2777,0.1998,-788.82,1390.20,-359.07
3020,-3.8741,-0.3728,0.2617,461.18,1593.20,-1296.51
3030,-3.8733,-0.4961,0.3379,289.31,1514.89,437.99
3040,-3.8724,-0.6355,0.4006,508.06,-735.35,-1390.01
3050,-3.8715,-0.7965,0.4363,-1335.69,-704.41,-1889.89
3060,-3.8705,-0.9546,0.4537,-1945.07,-142.21,547.67
3070,-3.8696,-1.0410,0.4586,1820.56,-1908.14,344.60
3080,-3.8689,-1.0774,0.4551,-1241.94,-1283.33,282.10
3090,-3.8684,-1.0608,0.4496,-1898.19,-1736.51,-1186.65
3100,-3.8680,-1.0011,0.4331,226.81,1560.42,-999.15
3110,-3.8678,-0.9077,0.4091,-132.57,-548.89,1110.17
3120,-3.8678,-0.7531,0.3995,-179.44,373.17,-421.08
3130,-3.8677,-0.5731,0.4156,-382.57,-845.28,-1546.14
3140,-3.8676,-0.3777,0.4398,-1351.32,1217.59,-1546.08
3150,-3.8674,-0.1699,0.4579,-335.69,311.71,-1780.40
3160,-3.8673,0.0524,0.4694,-1741.94,-1375.37,594.60
3170,-3.8673,0.2863,0.4823,-1288.82,78.19,-1608.46
3180,-3.8672,0.5071,0.5111,648.68,1734.92,782.17
3190,-3.8672,0.7161,0.5482,914.31,1422.85,-1608.40
3200,-3.8672,0.9110,0.5707,-335.69,-1826.78,1329.16
3210,-3.8673,1.0653,0.5631,617.43,1048.65,204.22
3220,-3.8677,1.2112,0.5397,367.43,80.20,-1170.78
3230,-3.8680,1.3715,0.5167,-960.69,1080.44,1860.41
3240,-3.8685,1.4927,0.4979,-445.07,-1856.75,-1920.90
3250,-3.8690,1.5996,0.4860,-929.44,-262.76,204.04
3260,-3.8696,1.7028,0.4756,758.06,-1793.76,1141.54
3270,-3.8702,1.7565,0.4659,1961.18,878.30,1141.54
3280,-3.8708,1.7893,0.4536,836.18,-355.96,125.85
3290,-3.8716,1.8076,0.4293,1039.31,-1934.02,-1405.40
3300,-3.8722,1.8041,0.3969,-616.94,-1043.40,735.17
3310,-3.8729,1.7675,0.3698,-1070.07,-1199.65,-593.02
3320,-3.8735,1.6624,0.3508,-1757.57,-668.46,-436.83
3330,-3.8740,1.5052,0.3345,789.31,909.48,-1733.70
3340,-3.8744,1.3374,0.3179,679.93,-1184.57,31.86
3350,-3.8748,1.1887,0.3021,-804.44,690.06,375.61
3360,-3.8439,1.0623,0.2878,164.31,-1325.81,-671.33
3370,-3.8440,0.9447,0.2786,-23.19,845.76,1000.55
3380,-3.8441,0.8282,0.2822,929.93,-341.92,1187.99
3390,-3.8442,0.7119,0.2939,-1976.32,126.59,-686.95
3400,-3.8442,0.5970,0.2998,-866.94,1626.34,-1593.20
3410,-3.8442,0.4828,0.2947,429.93,-1623.84,1484.92
3420,-3.8442,0.3778,0.2812,1804.93,1719.67,47.42
3430,-3.8444,0.2825,0.2596,367.43,0.73,-1936.95
3440,-3.8444,0.1903,0.2336,164.31,1234.92,31.74
3450,-3.8445,0.0977,0.2078,367.43,1906.62,-1249.57
3460,-3.8445,-0.0062,0.1901,508.06,-1406.07,-15.26
3470,-3.8442,-0.1182,0.1846,-788.82,343.69,1047.24
3480,-3.8440,-0.2339,0.1940,883.06,-359.62,-1296.57
3490,-3.8748,-0.3594,0.2252,-1929.44,843.26,1890.99
3500,-3.8741,-0.4857,0.2678,-1991.94,843.02,-1999.57
3510,-3.8734,-0.5881,0.3000,1836.18,-1704.10,109.86
3520,-3.8728,-0.6792,0.3206,726.81,-1579.28,1609.92
3530,-3.8722,-0.7787,0.3419,1070.56,1045.53,-1827.51
3540,-3.8716,-0.8414,0.3584,336.18,-220.28,-1905.64
3550,-3.8710,-0.8588,0.3583,304.93,1888.98,1156.92
3560,-3.8705,-0.8813,0.3531,-1913.82,1873.29,-952.45
3570,-3.8700,-0.8842,0.3535,-804.44,1216.98,-436.83
3580,-3.8695,-0.8676,0.3597,-1163.82,1263.85,-483.70
3590,-3.8690,-0.8206,0.3647,961.18,-1939.21,-1936.83
3600,-3.8687,-0.7107,0.3523,-1023.19,-1298.52,1391.30
3610,-3.8684,-0.5620,0.3273,1039.31,1107.97,188.17
3620,-3.8684,-0.3872,0.3129,70.56,1905.15,-749.39
3630,-3.8683,-0.2091,0.3282,-1554.44,61.71,-780.64
3640,-3.8680,-0.0212,0.3634,1242.43,-1969.18,-1327.51
3650,-3.8678,0.1758,0.3875,1289.31,-1468.81,-124.33
3660,-3.8674,0.3625,0.4027,-1491.94,1594.06,203.86
3670,-3.8673,0.5463,0.4277,-1585.69,-452.45,-1421.14
3680,-3.8672,0.7355,0.4540,1929.93,-1248.96,-1046.08
3690,-3.8671,0.9299,0.4679,-1851.32,-1889.22,719.60
3700,-3.8672,1.1146,0.4764,-960.69,-107.60,-936.65
3710,-3.8673,1.2859,0.4829,-1320.07,986.51,829.04
3720,-3.8677,1.4617,0.4756,601.81,1815.00,1282.17
3730,-3.8682,1.6041,0.4618,-898.19,877.81,1000.92
3740,-3.8688,1.7108,0.4578,1336.18,-887.51,938.35
3750,-3.8695,1.8047,0.4550,-1007.57,-1402.95,-405.40
3760,-3.8701,1.8369,0.4315,-991.94,-1762.15,-1186.65
3770,-3.8707,1.8141,0.3862,-866.94,-762.08,1625.79
3780,-3.8713,1.7646,0.3522,211.18,1441.04,156.98
3790,-3.8721,1.6730,0.3419,1883.06,1081.54,-1686.83
3800,-3.8727,1.5363,0.3347,-1851.32,-231.14,125.61
3810,-3.8734,1.4110,0.3262,648.68,-1153.26,-171.26
3820,-3.8739,1.3252,0.3197,617.43,1752.75,-968.14
3830,-3.8743,1.2521,0.3140,1633.06,924.44,1500.61
3840,-3.8746,1.1664,0.3081,273.68,189.94,-1640.01
3850,-3.8749,1.0549,0.3027,1304.93,-560.24,1578.67
3860,-3.8439,0.9214,0.2981,-960.69,-1247.99,-702.58
3870,-3.8440,0.7819,0.2924,1945.56,-1841.98,-1343.20
3880,-3.8441,0.6564,0.2860,86.18,1423.40,-1718.20
3890,-3.8442,0.5542,0.2820,23.68,610.66,1484.92
3900,-3.8444,0.4662,0.2802,-1054.44,94.79,797.42
3910,-3.8445,0.3859,0.2776,-320.07,-139.77,594.24
3920,-3.8446,0.3085,0.2701,1398.68,-468.02,1531.74
3930,-3.8446,0.2238,0.2567,-507.57,-1421.33,453.61
3940,-3.8446,0.1343,0.2385,648.68,859.80,891.11
3950,-3.8446,0.0334,0.2234,1195.56,-1468.51,-1733.95
3960,-3.8445,-0.0702,0.2201,289.31,593.81,1547.30
3970,-3.8442,-0.1705,0.2217,-976.32,187.32,703.55
3980,-3.8439,-0.2814,0.2164,-1820.07,390.26,719.18
3990,-3.8746,-0.4092,0.2144,-7.57,-281.86,1500.37
4000,-3.8740,-0.5514,0.2340,-366.94,-547.73,-1702.76
4010,-3.8733,-0.6847,0.2794,1429.93,1967.65,-1905.82
4020,-3.8724,-0.8217,0.3353,367.43,-220.09,453.61
4030,-3.8716,-0.9657,0.3833,-1163.82,-1064.15,1172.49
4040,-3.8707,-1.0515,0.4176,398.68,1076.23,-577.39
4050,-3.8698,-1.1005,0.4385,1414.31,1466.67,-1717.96
4060,-3.8689,-1.1230,0.4469,-851.32,138.43,-436.65
4070,-3.8682,-1.1163,0.4357,258.06,1216.55,-14.77
4080,-3.8676,-1.0747,0.4137,1117.43,-220.95,1375.79
4090,-3.8672,-0.9478,0.3958,-1554.44,966.61,547.67
4100,-3.8671,-0.7300,0.3873,-1304.44,-1330.02,-186.77
4110,-3.8669,-0.4462,0.3927,-1429.44,1592.29,-30.52
4120,-3.8668,-0.1396,0.4159,-1101.32,-1719.67,-1577.39
4130,-3.8667,0.1697,0.4561,-1866.94,1249.69,1157.04
4140,-3.8666,0.4629,0.5059,1726.81,-1624.69,1500.85
4150,-3.8665,0.7202,0.5608,-741.94,750.85,1844.73
4160,-3.8665,0.9614,0.6022,195.56,-217.35,-1467.71
4170,-3.8666,1.1906,0.6077,-929.44,1079.96,1251.16
4180,-3.8669,1.3695,0.5789,398.68,1783.57,844.91
4190,-3.8676,1.5033,0.5319,-695.07,-1903.63,1876.10
4200,-3.8683,1.6041,0.4941,429.93,81.05,-780.21
4210,-3.8690,1.6768,0.4971,1336.18,-746.89,-483.46
4220,-3.8696,1.7726,0.5204,-1366.94,-371.77,688.42
4230,-3.8702,1.8416,0.4924,-1101.32,-1387.21,485.35
4240,-3.8708,1.8756,0.4209,-273.19,-965.21,1563.42
4250,-3.8715,1.8971,0.3817,86.18,1878.66,47.67
4260,-3.8723,1.8353,0.3794,-1163.82,863.04,-874.27
4270,-3.8730,1.6790,0.3815,-1070.07,566.04,-749.27
4280,-3.8735,1.4818,0.3730,-1085.69,831.36,656.98
4290,-3.8740,1.3113,0.3545,1679.93,-247.13,-1155.58
4300,-3.8744,1.1997,0.3361,-148.19,1377.50,-874.33
4310,-3.8746,1.1396,0.3242,1570.56,-982.06,234.99
4320,-3.8750,1.0779,0.3174,1883.06,1502.20,-1733.76
4330,-3.8440,0.9862,0.3091,1976.81,627.08,1391.24
4340,-3.8442,0.8630,0.3010,-1757.57,-435.61,1953.67
4350,-3.8445,0.7318,0.2961,-1523.19,-1467.10,-124.45
4360,-3.8446,0.6108,0.2913,1679.93,1907.65,-1155.70
4370,-3.8447,0.5028,0.2876,-1804.44,1282.41,-1108.83
4380,-3.8447,0.4000,0.2886,367.43,813.48,969.30
4390,-3.8447,0.2893,0.2889,-788.82,938.23,1484.92
4400,-3.8447,0.1786,0.2782,1039.31,984.92,-1421.33
4410,-3.8447,0.0669,0.2451,-1132.57,-390.32,-1405.76
4420,-3.8447,-0.0333,0.1979,570.56,-624.88,-1405.82
4430,-3.8446,-0.1149,0.1560,-257.57,1343.63,1015.99
4440,-3.8445,-0.1909,0.1370,1304.93,-15.87,-77.88
4450,-3.8440,-0.2750,0.1573,-429.44,1546.45,547.12
4460,-3.8748,-0.3693,0.2152,804.93,155.70,-1140.32
4470,-3.8740,-0.4698,0.2894,742.43,-438.23,1859.74
4480,-3.8732,-0.5635,0.3547,-132.57,1061.52,906.80
4490,-3.8723,-0.6803,0.3838,-116.94,1420.72,-1483.70
4500,-3.8715,-0.8239,0.3612,929.93,1139.28,-1561.77
4510,-3.8707,-0.9131,0.2979,-1445.07,-1751.65,860.05
4520,-3.8702,-0.9485,0.2322,-866.94,-1861.21,-1499.45
4530,-3.8698,-0.9349,0.2151,-1398.19,1732.48,-1140.20
4540,-3.8691,-0.8793,0.2516,336.18,-454.96,937.87
4550,-3.8685,-0.8116,0.3057,-538.82,216.98,1156.74
4560,-3.8679,-0.6940,0.3530,117.43,-860.96,-1483.83
4570,-3.8673,-0.5240,0.3887,-820.07,1201.72,-514.95
4580,-3.8667,-0.3230,0.4098,929.93,1764.59,781.98
4590,-3.8663,-0.0967,0.4133,-1335.69,468.08,360.17
4600,-3.8662,0.1591,0.3994,-366.94,921.63,-1592.96
4610,-3.8662,0.4216,0.3737,367.43,-874.69,-30.52
4620,-3.8662,0.6465,0.3519,1976.81,-171.08,-1843.08
4630,-3.8663,0.8319,0.3442,-1241.94,1048.10,1344.42
4640,-3.8666,0.9899,0.3539,-1507.57,64.09,-1702.45
4650,-3.8668,1.1173,0.3811,-1288.82,1298.77,1297.55
4660,-3.8672,1.2584,0.4110,-976.32,783.39,1188.23
4670,-3.8677,1.4220,0.4275,1086.18,611.82,1407.04
4680,-3.8683,1.5405,0.4341,-1976.32,-1278.50,1844.54
4690,-3.8690,1.6451,0.4366,1195.56,-434.51,-1921.08
4700,-3.8699,1.7380,0.4203,-1413.82,-106.20,-1171.08
4710,-3.8707,1.7865,0.3667,-1523.19,1800.23,-1546.08
4720,-3.8716,1.8011,0.2859,679.93,-1059.02,-421.20
4730,-3.8723,1.7805,0.2313,-1445.07,597.23,-858.83
4740,-3.8729,1.7013,0.2332,-85.69,1612.79,766.05
4750,-3.8735,1.5464,0.2554,1773.68,1847.05,1187.93
4760,-3.8740,1.3641,0.2679,1945.56,690.49,-1483.89
4770,-3.8743,1.2086,0.2695,-1382.57,-1700.50,500.49
4780,-3.8745,1.0942,0.2662,-1288.82,-1497.68,812.99
4790,-3.8748,1.0037,0.2664,70.56,-1919.74,-1671.39
4800,-3.8749,0.9102,0.2729,476.81,-1904.30,1125.49
4810,-3.8750,0.7975,0.2762,508.06,-1060.73,516.11
4820,-3.8440,0.6735,0.2654,-1913.82,-639.10,-827.64
4830,-3.8441,0.5477,0.2440,-1788.82,1970.03,906.74
4840,-3.8444,0.4386,0.2253,-1882.57,-764.59,-1749.57
4850,-3.8445,0.3419,0.2169,148.68,844.60,78.55
4860,-3.8447,0.2472,0.2151,-226.32,-233.76,-437.13
4870,-3.8447,0.1556,0.2152,-351.32,-468.32,1594.12
4880,-3.8447,0.0616,0.2153,-70.07,-452.88,1875.37
4890,-3.8447,-0.0240,0.2104,-101.32,-437.44,-171.51
4900,-3.8445,-0.1038,0.2043,929.93,-1046.94,406.62
4910,-3.8442,-0.1882,0.2081,-1273.19,-1828.37,406.62
4920,-3.8440,-0.2725,0.2245,-85.69,-1344.18,-515.26
4930,-3.8748,-0.3502,0.2523,1133.06,749.45,-1921.45
4940,-3.8741,-0.4302,0.2877,-820.07,311.77,1406.74
4950,-3.8734,-0.5186,0.3146,945.56,842.90,1078.67
4960,-3.8727,-0.6324,0.3126,1633.06,280.21,-1796.26
4970,-3.8719,-0.7739,0.2885,-945.07,29.97,-1249.39
4980,-3.8712,-0.8903,0.2728,945.56,935.97,-343.20
4990,-3.8704,-0.9818,0.2794,-1945.07,-1064.27,1359.86
5000,-3.8696,-1.0310,0.3064,-1663.82,-220.70,-1968.26
5010,-3.8689,-1.0144,0.3398,39.31,-767.64,1266.17
5020,-3.8682,-0.9678,0.3599,-1835.69,-486.39,219.36
5030,-3.8676,-0.8850,0.3505,133.06,-1923.77,1063.17
5040,-3.8671,-0.7172,0.3174,-1273.19,873.23,360.05
5050,-3.8668,-0.4668,0.2893,211.18,639.22,609.99
5060,-3.8668,-0.1899,0.2854,258.06,1045.96,-46.33
5070,-3.8667,0.1013,0.3047,-304.44,546.45,1516.17
5080,-3.8667,0.3883,0.3491,976.81,-999.82,-686.95
5090,-3.8666,0.6604,0.4257,1711.18,688.23,1750.67
5100,-3.8666,0.9316,0.5085,539.31,-1514.34,-296.08
5110,-3.8665,1.1752,0.5706,-741.94,1095.52,0.98
5120,-3.8667,1.3691,0.6045,-1570.07,1033.51,-186.40
5130,-3.8669,1.5288,0.6066,-741.94,1377.62,141.78
5140,-3.8676,1.6273,0.5765,-304.44,1643.55,579.28
5150,-3.8684,1.6801,0.5353,304.93,1800.05,-1264.53
5160,-3.8693,1.7494,0.4893,-945.07,518.86,1657.29
5170,-3.8701,1.7933,0.4127,-70.07,-1371.64,1125.92
5180,-3.8710,1.8116,0.3264,1554.93,831.60,-1624.21
5190,-3.8717,1.8113,0.2849,-101.32,1784.73,344.36
5200,-3.8726,1.7550,0.2877,-148.19,472.23,-1311.95
5210,-3.8733,1.6344,0.2966,648.68,831.54,-718.20
5220,-3.8738,1.4911,0.2966,1211.18,1971.92,688.05
5230,-3.8743,1.3608,0.2878,-1132.57,1971.62,-1015.08
5240,-3.8745,1.2560,0.2747,-1804.44,846.37,313.05
5250,-3.8749,1.1722,0.2623,773.68,-841.31,-530.76
5260,-3.8750,1.0842,0.2548,-1945.07,1580.38,516.11
5270,-3.8440,0.9818,0.2516,-1210.69,611.45,-483.89
5280,-3.8440,0.8656,0.2516,1679.93,205.02,359.86
5290,-3.8441,0.7428,0.2560,-1195.07,204.77,-1671.39
5300,-3.8441,0.6196,0.2631,-913.82,767.03,734.86
5310,-3.8442,0.5095,0.2679,-679.44,1673.03,-952.64
5320,-3.8442,0.4135,0.2681,1226.81,-1702.15,875.49
5330,-3.8444,0.3380,0.2644,929.93,-1686.71,-1343.26
5340,-3.8444,0.2634,0.2571,-726.32,1844.36,1375.49
5350,-3.8444,0.1841,0.2443,1726.81,906.74,1766.11
5360,-3.8442,0.0959,0.2249,-429.44,-734.07,219.18
5370,-3.8441,-0.0070,0.2017,289.31,781.43,328.55
5380,-3.8440,-0.1152,0.1782,-882.57,1828.06,-1984.01
5390,-3.8750,-0.2297,0.1603,1258.06,-1172.12,-1405.94
5400,-3.8745,-0.3478,0.1686,-1398.19,530.76,109.68
5410,-3.8740,-0.4648,0.2120,-507.57,1593.02,-734.07
5420,-3.8733,-0.5787,0.2745,508.06,-844.67,-999.63
5430,-3.8724,-0.6976,0.3395,1929.93,-844.91,-1937.01
5440,-3.8716,-0.8339,0.3883,-1288.82,-532.65,-1436.89
5450,-3.8707,-0.9258,0.4043,1273.68,1717.10,1266.36
5460,-3.8700,-0.9442,0.3890,1508.06,-236.21,531.98
5470,-3.8694,-0.9323,0.3644,-851.32,1810.61,735.11
5480,-3.8689,-0.8958,0.3330,679.93,-1345.58,-1733.70
5490,-3.8684,-0.8472,0.3033,1351.81,-1361.15,1828.74
5500,-3.8680,-0.7524,0.2927,-429.44,-1157.96,-765.08
5510,-3.8677,-0.6064,0.2948,-304.44,1482.85,-1593.20
5520,-3.8674,-0.4261,0.3026,-1616.94,1748.78,-780.70
5530,-3.8672,-0.2012,0.3148,1461.18,-1250.85,1594.30
5540,-3.8671,0.0490,0.3375,-1741.94,312.07,-1890.01
5550,-3.8669,0.3232,0.3666,-1726.32,-796.81,625.61
5560,-3.8669,0.6147,0.3932,1383.06,-1077.51,1766.30
5570,-3.8669,0.9080,0.4178,-1304.44,-1670.72,1797.61
5580,-3.8671,1.1637,0.4319,226.81,1486.15,-780.46
5590,-3.8673,1.3197,0.4238,961.18,-716.49,-592.96
5600,-3.8677,1.4109,0.3982,929.93,-1747.44,703.92
5610,-3.8683,1.4984,0.3661,601.81,-1028.50,703.86
5620,-3.8690,1.5781,0.3596,-195.07,-1137.76,-1561.83
5630,-3.8696,1.6713,0.3975,-1991.94,-1965.70,375.67
5640,-3.8702,1.7753,0.4088,1929.93,-1121.77,0.73
5650,-3.8708,1.8260,0.3630,-757.57,331.54,1047.67
5660,-3.8715,1.8568,0.3364,1742.43,-1527.71,500.67
5670,-3.8722,1.8401,0.3358,1679.93,-933.90,94.36
5680,-3.8730,1.7310,0.3174,-460.69,-1012.08,-1405.64
5690,-3.8737,1.5684,0.2806,1570.56,628.36,594.36
5700,-3.8743,1.3777,0.2440,758.06,-75.07,-15.14
5710,-3.8746,1.2178,0.2217,351.81,-762.94,-187.07
5720,-3.8749,1.0929,0.2112,-116.94,377.32,-733.95
5730,-3.8750,0.9915,0.2120,-101.32,-966.67,1578.49
5740,-3.8439,0.8822,0.2198,-1085.69,-857.48,1453.49
5750,-3.8440,0.7682,0.2299,929.93,142.33,-1733.95
5760,-3.8440,0.6587,0.2404,-1663.82,1423.34,16.05
5770,-3.8441,0.5547,0.2501,320.56,-1233.09,-1968.32
5780,-3.8442,0.4681,0.2629,-991.94,16.66,-155.76
5790,-3.8442,0.3781,0.2800,-70.07,1657.10,-1468.26
5800,-3.8442,0.2802,0.2864,398.68,-155.52,-1796.39
5810,-3.8442,0.1746,0.2716,-132.57,656.74,-1952.58
5820,-3.8442,0.0671,0.2468,-1648.19,-1234.07,1859.86
5830,-3.8442,-0.0269,0.2269,601.81,-406.13,-1796.45
5840,-3.8441,-0.1039,0.2161,570.56,1062.44,359.80
5850,-3.8440,-0.1654,0.2180,-1288.82,-328.37,1969.12
5860,-3.8749,-0.2255,0.2415,-1163.82,-78.49,828.49
5870,-3.8744,-0.3060,0.2837,-851.32,-1078.61,1875.43
5880,-3.8737,-0.4137,0.3297,836.18,327.51,125.55
5890,-3.8729,-0.5243,0.3578,-945.07,-1782.10,547.49
5900,-3.8723,-0.6332,0.3517,898.68,1811.46,-61.83
5910,-3.8716,-0.7631,0.3223,-1038.82,1029.97,1125.67
5920,-3.8710,-0.8750,0.2983,-1663.82,1264.10,547.49
5930,-3.8705,-0.9446,0.3005,8.06,-1798.58,-890.08
5940,-3.8699,-0.9559,0.3397,-898.19,-1517.52,1547.42
5950,-3.8693,-0.9021,0.3914,1648.68,-501.89,359.99
5960,-3.8688,-0.8259,0.4072,539.31,-1892.40,-1389.89
5970,-3.8683,-0.7067,0.3755,-1710.69,138.98,1828.92
5980,-3.8679,-0.5273,0.3314,1554.93,76.72,891.36
5990,-3.8677,-0.3198,0.3069,508.06,-1563.54,172.49
6000,-3.8676,-0.1256,0.3120,-929.44,-703.80,-1968.20
6010,-3.8673,0.0518,0.3497,-70.07,-47.18,1219.30
6020,-3.8671,0.2350,0.4016,-1366.94,765.69,1610.05
6030,-3.8668,0.4240,0.4509,-1913.82,-593.32,1266.36
6040,-3.8667,0.6315,0.4934,-1726.32,1719.54,-1671.02
6050,-3.8666,0.8605,0.5211,836.18,-842.53,63.42
6060,-3.8667,1.0867,0.5387,-1851.32,-1295.23,1969.73
6070,-3.8669,1.2712,0.5531,-898.19,955.20,-1858.34
6080,-3.8674,1.4382,0.5546,-1273.19,-1200.68,-170.84
6090,-3.8679,1.6063,0.5323,101.81,-1012.82,719.79
6100,-3.8687,1.7173,0.5081,1617.43,143.74,-1967.71
6110,-3.8694,1.7886,0.4984,-179.44,1034.55,1297.85
6120,-3.8701,1.8193,0.4609,945.56,-199.65,1688.42
6130,-3.8707,1.8358,0.4139,883.06,-996.46,453.98
6140,-3.8715,1.8580,0.4114,-1007.57,987.92,-967.96
6150,-3.8722,1.8231,0.4235,1836.18,659.85,-780.46
6160,-3.8729,1.7294,0.4280,1367.43,-1793.33,-264.83
6170,-3.8734,1.6132,0.4373,1367.43,-1215.39,1500.79
6180,-3.8738,1.4764,0.4479,-1507.57,-28.14,1063.29
6190,-3.8741,1.3231,0.4442,992.43,1330.99,-1264.77
6200,-3.8744,1.1714,0.4146,1367.43,861.94,16.48
6210,-3.8748,1.0170,0.3678,1945.56,1064.76,1235.17
6220,-3.8439,0.8591,0.3254,-1820.07,-919.92,-561.83
6230,-3.8441,0.7039,0.3054,1976.81,1657.90,-827.51
6240,-3.8442,0.5763,0.3074,-1898.19,-904.91,766.17
6250,-3.8444,0.4685,0.3127,1773.68,-655.15,47.42
6260,-3.8445,0.3715,0.3127,-23.19,32.10,203.74
6270,-3.8446,0.2805,0.3135,-445.07,31.92,1719.36
6280,-3.8446,0.1808,0.3198,-85.69,125.49,1781.86
6290,-3.8445,0.0796,0.3258,-851.32,937.81,547.49
6300,-3.8444,-0.0188,0.3090,-1804.44,1703.25,359.99
6310,-3.8442,-0.1101,0.2588,1601.81,-437.56,250.55
6320,-3.8441,-0.1902,0.1917,1914.31,1140.38,1078.61
6330,-3.8439,-0.2700,0.1339,-335.69,546.45,328.49
6340,-3.8749,-0.3596,0.1024,1445.56,1155.70,-531.01
6350,-3.8743,-0.4683,0.1027,1976.81,1124.27,15.81
6360,-3.8737,-0.6055,0.1422,70.56,1155.33,-327.94
6370,-3.8727,-0.7662,0.2164,-1491.94,-1782.47,-1577.88
6380,-3.8716,-0.9609,0.2805,1929.93,-282.78,969.12
6390,-3.8706,-1.1366,0.2921,1008.06,-80.02,1172.36
6400,-3.8699,-1.2413,0.2585,-1476.32,1403.99,-140.08
6410,-3.8691,-1.2960,0.2295,1117.43,1106.93,1641.11
6420,-3.8687,-1.2731,0.2266,-1882.57,1388.06,-1655.82
6430,-3.8683,-1.1460,0.2211,1054.93,1013.12,1922.30
6440,-3.8680,-0.8838,0.2070,1320.56,310.24,1797.30
6450,-3.8678,-0.4817,0.2135,-1116.94,-1486.15,844.12
6460,-3.8676,-0.0066,0.2544,-1648.19,-657.23,109.74
6470,-3.8674,0.4587,0.3187,-835.69,578.06,-468.26
6480,-3.8672,0.8473,0.3969,-1273.19,797.73,-515.01
6490,-3.8669,1.1285,0.4686,461.18,-1201.48,-1718.02
6500,-3.8669,1.2697,0.5013,461.18,-13.43,-389.77
6510,-3.8672,1.3263,0.4762,-1476.32,174.32,-842.77
6520,-3.8677,1.3617,0.4089,1773.68,955.69,1188.42
6530,-3.8684,1.3760,0.3389,-1695.07,346.37,1219.54
6540,-3.8693,1.4187,0.3038,133.06,-622.31,-1140.01
6550,-3.8700,1.5148,0.2937,1601.81,-1106.63,453.67
6560,-3.8708,1.5892,0.2720,1898.68,1596.68,-390.08
6570,-3.8715,1.6240,0.2520,-570.07,-1184.45,1297.36
6580,-3.8721,1.5830,0.2599,-116.94,253.11,1234.86
6590,-3.8727,1.4106,0.2747,-1366.94,1268.68,-608.89
6600,-3.8730,1.1896,0.2712,570.56,-841.00,1609.86
6610,-3.8733,0.9738,0.2466,273.68,-1278.93,266.11
6620,-3.8735,0.7893,0.2008,648.68,-435.61,937.93
6630,-3.8738,0.6388,0.1473,1039.31,1704.65,-1296.51
6640,-3.8739,0.5100,0.1079,1773.68,-1139.40,1234.62
6650,-3.8740,0.4269,0.0918,1289.31,1813.48,468.93
6660,-3.8741,0.3894,0.1014,-1351.32,-249.21,1640.75
6670,-3.8741,0.3829,0.1304,1851.81,985.11,859.56
6680,-3.8741,0.3981,0.1560,1023.68,688.23,1031.49
6690,-3.8741,0.3979,0.1672,-1038.82,-30.52,1328.37
6700,-3.8741,0.3600,0.1757,-1054.44,1406.98,-1812.19
6710,-3.8740,0.2968,0.1868,-1913.82,-1514.95,765.93
6720,-3.8739,0.2146,0.1897,1992.43,-93.20,547.18
6730,-3.8739,0.1256,0.1865,-523.19,281.62,-140.26
6740,-3.8738,0.0344,0.1809,86.18,-124.76,1265.93
6750,-3.8738,-0.0593,0.1659,414.31,-843.69,1094.06
6760,-3.8738,-0.1465,0.1373,414.31,1249.88,703.43
6770,-3.8738,-0.2367,0.0944,1258.06,1593.44,-1984.13
6780,-3.8735,-0.3561,0.0525,1711.18,93.26,1015.81
6790,-3.8730,-0.5157,0.0447,-1570.07,-1266.36,531.31
6800,-3.8724,-0.6906,0.0946,1992.43,1733.34,-921.81
6810,-3.8716,-0.8730,0.2153,-382.57,123.60,-46.69
6820,-3.8705,-1.0387,0.4126,258.06,-423.58,-265.26
6830,-3.8693,-1.1382,0.6136,-945.07,826.05,141.42
6840,-3.8685,-1.1663,0.6927,-1679.44,-1439.76,-30.09
6850,-3.8680,-1.0931,0.6116,-1273.19,685.18,-1295.53
6860,-3.8679,-0.9086,0.4569,86.18,-1705.26,-1248.84
6870,-3.8679,-0.6184,0.3295,-288.82,-1501.83,-1749.15
6880,-3.8679,-0.2681,0.2728,851.81,-1813.72,-1686.89
6890,-3.8678,0.0764,0.2780,1695.56,-1063.05,1297.36
6900,-3.8677,0.4128,0.3004,1789.31,-421.75,-687.01
6910,-3.8674,0.7152,0.3230,851.81,-1546.08,-624.45
6920,-3.8672,0.9496,0.3557,-445.07,1345.09,-1218.14
6930,-3.8669,1.1179,0.4019,1554.93,1533.08,63.17
6940,-3.8669,1.2278,0.4501,-898.19,-560.36,1828.86
6950,-3.8671,1.3271,0.4818,1164.31,1611.76,1172.73
6960,-3.8674,1.4294,0.4797,1883.06,1674.44,829.04
6970,-3.8680,1.4849,0.4586,-1023.19,1409.00,1891.54
6980,-3.8688,1.5337,0.4470,-1929.44,-1294.01,-1530.40
6990,-3.8695,1.6093,0.4176,320.56,1221.74,-1952.27
7000,-3.8702,1.6677,0.3619,1992.43,1456.24,-561.71
7010,-3.8708,1.7054,0.3433,1476.81,-1668.64,1906.92
7020,-3.8716,1.6517,0.3595,-1695.07,-59.20,-249.39
7030,-3.8722,1.4939,0.3551,-570.07,-1981.20,844.42
7040,-3.8729,1.3097,0.3220,-773.19,1455.99,-577.45
7050,-3.8734,1.1381,0.2789,-351.32,1221.25,1016.24
7060,-3.8739,1.0098,0.2450,1679.93,-294.68,1844.24
7070,-3.8743,0.9171,0.2249,1258.06,-638.67,1797.30
7080,-3.8745,0.8495,0.2161,1398.68,783.02,125.43
7090,-3.8748,0.7751,0.2152,742.43,-342.10,500.37
7100,-3.8750,0.6927,0.2190,-773.19,-451.66,-1187.13
7110,-3.8439,0.6002,0.2188,679.93,32.59,-1765.20
7120,-3.8440,0.5049,0.2053,836.18,1.16,1141.05
7130,-3.8442,0.4248,0.1826,633.06,-1717.77,-859.01
7140,-3.8444,0.3440,0.1636,-1616.94,-624.21,1594.06
7150,-3.8445,0.2568,0.1572,39.31,938.17,-1765.32
7160,-3.8445,0.1626,0.1592,883.06,125.49,1109.68
7170,-3.8445,0.0724,0.1508,820.56,375.31,31.56
7180,-3.8446,0.0020,0.1221,1273.68,-703.00,-1734.13
7190,-3.8446,-0.0594,0.0870,258.06,-375.00,1875.18
7200,-3.8445,-0.1277,0.0701,398.68,-843.87,1672.00
7210,-3.8442,-0.2085,0.0804,-335.69,984.07,-1156.13
7220,-3.8750,-0.2991,0.1115,1320.56,-1687.93,234.50
7230,-3.8745,-0.3909,0.1577,1726.81,-1719.36,468.93
7240,-3.8740,-0.4869,0.2080,1976.81,202.33,-499.69
7250,-3.8733,-0.5879,0.2465,1679.93,-1360.35,1390.99
7260,-3.8726,-0.7008,0.2753,758.06,-438.66,1891.05
7270,-3.8717,-0.8254,0.3176,-1695.07,-751.40,1500.49
7280,-3.8707,-0.9170,0.3843,-1648.19,670.23,484.99
7290,-3.8698,-0.9948,0.4403,-1366.94,1201.29,797.61
7300,-3.8689,-1.0634,0.4463,679.93,373.05,1016.48
7310,-3.8683,-1.0487,0.3937,-101.32,1138.49,875.85
7320,-3.8679,-0.9479,0.3132,1773.68,-1595.83,1750.73
7330,-3.8677,-0.7690,0.2386,-1320.07,107.48,-1827.51
7340,-3.8674,-0.5524,0.1860,1570.56,-1439.03,344.18
7350,-3.8673,-0.3436,0.1666,1304.93,-172.97,1765.93
7360,-3.8672,-0.1465,0.1812,23.68,1343.08,-499.69
7370,-3.8669,0.0427,0.2294,1258.06,-797.18,1453.43
7380,-3.8668,0.2673,0.3082,1476.81,1359.44,-1155.82
7390,-3.8666,0.5387,0.4019,-1773.19,-546.39,875.55
7400,-3.8665,0.8153,0.4634,961.18,-561.46,-1171.14
7410,-3.8663,1.0546,0.4579,367.43,-685.91,1094.60
7420,-3.8666,1.2190,0.3956,-1007.57,-1388.61,-592.90
7430,-3.8671,1.3333,0.3081,39.31,-1356.99,-46.14
7440,-3.8677,1.4308,0.2174,-1335.69,-559.94,1250.55
7450,-3.8684,1.4851,0.1379,-851.32,-169.13,406.62
7460,-3.8691,1.5157,0.1151,-1898.19,1659.12,1625.24
7470,-3.8698,1.5746,0.1709,-1976.32,-1262.70,-1093.57
7480,-3.8702,1.6377,0.2422,1554.93,1878.05,-140.32
7490,-3.8706,1.7277,0.3101,1633.06,-996.83,1344.18
7500,-3.8711,1.8158,0.3917,1148.68,-309.14,922.42
7510,-3.8717,1.8180,0.4448,429.93,-1855.83,1360.11
7520,-3.8724,1.7379,0.4376,711.18,941.04,-46.02
7530,-3.8730,1.6007,0.3812,-1538.82,18.98,-764.77
7540,-3.8737,1.4180,0.3042,898.68,799.99,-77.39
7550,-3.8741,1.2109,0.2346,1508.06,-1059.75,-1421.33
7560,-3.8745,1.0232,0.1903,-991.94,-1966.43,391.05
7570,-3.8749,0.8698,0.1730,-1023.19,361.33,-1640.26
7580,-3.8750,0.7637,0.1704,-663.82,-1857.73,125.31
7590,-3.8439,0.6882,0.1718,1758.06,1813.96,265.93
7600,-3.8440,0.6320,0.1765,101.81,1985.72,1515.93
7610,-3.8440,0.5685,0.1888,898.68,-1405.03,0.31
7620,-3.8441,0.4824,0.2010,773.68,172.97,-171.51
7630,-3.8440,0.3883,0.2014,1758.06,1735.29,156.62
7640,-3.8440,0.2949,0.1971,1711.18,1781.98,125.37
7650,-3.8441,0.2161,0.1927,1758.06,1234.92,-859.01
7660,-3.8441,0.1410,0.1772,-335.69,672.24,1406.62
7670,-3.8441,0.0593,0.1510,-1945.07,-1312.26,765.93
7680,-3.8441,-0.0194,0.1215,-398.19,-671.81,-1468.51
7690,-3.8440,-0.0929,0.0952,1523.68,-437.56,1312.68
7700,-3.8439,-0.1542,0.0948,117.43,202.94,187.68
7710,-3.8750,-0.1920,0.1447,273.68,155.94,203.31
7720,-3.8749,-0.2136,0.2324,-570.07,-1469.18,-421.63
7730,-3.8744,-0.2330,0.3131,664.31,1765.20,328.55
7740,-3.8739,-0.2567,0.3494,-1820.07,93.26,-1843.14
7750,-3.8733,-0.3087,0.3403,-851.32,733.83,1141.30
7760,-3.8728,-0.4069,0.3092,492.43,-422.49,-1811.89
7770,-3.8723,-0.5516,0.2777,-70.07,-407.10,-1436.95
7780,-3.8718,-0.7080,0.2474,1398.68,-438.60,1500.49
7790,-3.8715,-0.8064,0.2047,1383.06,-313.90,1156.68
7800,-3.8712,-0.8534,0.1696,789.31,-1782.84,-62.13
7810,-3.8707,-0.8689,0.1884,-1226.32,1717.04,953.43
7820,-3.8702,-0.8674,0.2712,789.31,123.29,1344.12
7830,-3.8696,-0.8721,0.3734,976.81,-1267.33,1109.86
7840,-3.8690,-0.8892,0.4403,383.06,-189.21,-811.83
7850,-3.8683,-0.9072,0.4678,-1804.44,373.23,-1327.27
7860,-3.8676,-0.8752,0.4728,-116.94,-111.21,16.48
7870,-3.8672,-0.7649,0.4529,-23.19,529.48,1985.29
7880,-3.8669,-0.5901,0.4192,-1898.19,1982.85,1469.60
7890,-3.8668,-0.4052,0.3965,476.81,1670.72,-889.83
7900,-3.8666,-0.2415,0.4050,148.68,-1235.17,-1968.02
7910,-3.8663,-0.0939,0.4425,1101.81,-141.11,-1468.02
7920,-3.8661,0.0614,0.4843,-7.57,656.01,-499.15
7930,-3.8658,0.2386,0.5037,-132.57,1984.44,-608.46
7940,-3.8657,0.4268,0.4872,-1445.07,469.18,-561.52
7950,-3.8657,0.6173,0.4456,-1366.94,-1639.83,1641.54
7960,-3.8660,0.7947,0.4020,-976.32,1032.41,-1186.65
7970,-3.8662,0.9469,0.3767,1726.81,-545.35,985.11
7980,-3.8666,1.0822,0.3770,1211.18,220.58,1141.36
7990,-3.8671,1.1929,0.3925,-1476.32,252.08,-843.02
8000,-3.8676,1.2947,0.4153,695.56,-1763.31,-1858.64
8010,-3.8682,1.3945,0.4294,1726.81,1158.75,1828.92
8020,-3.8689,1.4562,0.4515,-1491.94,-1028.56,-171.08
8030,-3.8695,1.4854,0.5199,-1601.32,1799.68,1672.73
8040,-3.8702,1.5294,0.5447,-1866.94,-1450.26,-420.90
8050,-3.8708,1.5922,0.4609,-226.32,1721.68,-1452.09
8060,-3.8715,1.6566,0.4089,-195.07,-996.95,-452.27
8070,-3.8721,1.6228,0.4446,54.93,346.98,-61.71
8080,-3.8727,1.4614,0.4872,-273.19,909.36,-217.90
8090,-3.8732,1.2786,0.4998,-929.44,-1637.82,-170.96
8100,-3.8734,1.1113,0.4749,-335.69,-28.81,94.67
8110,-3.8738,1.0043,0.4333,-1741.94,783.39,750.92
8120,-3.8741,0.9509,0.3845,554.93,-529.30,94.54
8130,-3.8746,0.9176,0.3263,1726.81,1220.58,-608.64
8140,-3.8749,0.8719,0.2770,1461.18,1767.40,1203.74
8150,-3.8439,0.8016,0.2517,-382.57,-545.23,-1124.51
8160,-3.8439,0.7185,0.2487,-1382.57,220.28,500.49
8170,-3.8439,0.6281,0.2644,-23.19,-170.53,1156.68
8180,-3.8439,0.5426,0.2938,398.68,1844.97,-343.26
8190,-3.8750,0.4546,0.3226,1461.18,1610.41,-1015.08
8200,-3.8749,0.3730,0.3297,-1804.44,1297.73,1594.36
8210,-3.8749,0.2961,0.3021,-241.94,-1796.20,1453.74
8220,-3.8750,0.2261,0.2533,1914.31,-1327.58,1734.92
8230,-3.8440,0.1847,0.2106,945.56,422.30,-249.51
8240,-3.8441,0.1575,0.1815,-351.32,-1046.57,828.49
8250,-3.8444,0.1205,0.1544,164.31,-765.32,-984.07
8260,-3.8444,0.0797,0.1366,-570.07,-234.19,1578.37
8270,-3.8442,0.0243,0.1427,-1788.82,1484.50,1500.24
8280,-3.8440,-0.0692,0.1619,-882.57,-1734.38,1234.62
8290,-3.8750,-0.1853,0.1761,-851.32,734.19,-530.94
8300,-3.8746,-0.3063,0.1858,289.31,-1437.87,-1015.32
8310,-3.8743,-0.4352,0.2012,804.93,-203.74,-624.69
8320,-3.8738,-0.5721,0.2319,304.93,1764.77,-1530.88
8330,-3.8732,-0.7008,0.2694,-1226.32,1701.97,469.18
8340,-3.8727,-0.8311,0.2817,-1695.07,-1501.40,-1343.26
8350,-3.8722,-0.9478,0.2627,1633.06,76.48,-108.83
8360,-3.8716,-0.9966,0.2322,-1304.44,1638.73,62.99
8370,-3.8711,-1.0170,0.2278,445.56,1732.42,219.18
8380,-3.8707,-1.0605,0.2755,1836.18,1169.86,-1046.45
8390,-3.8704,-1.1058,0.3182,258.06,-720.83,859.86
8400,-3.8701,-1.1504,0.3142,-1538.82,747.80,1609.99
8410,-3.8698,-1.1960,0.2948,758.06,232.12,-1780.64
8420,-3.8693,-1.2200,0.3092,-1085.69,1747.62,-155.70
8430,-3.8687,-1.1761,0.3615,-148.19,-408.69,-827.58
8440,-3.8682,-1.0562,0.3881,1461.18,-1721.07,-764.95
8450,-3.8678,-0.9060,0.3658,820.56,1685.42,-1452.39
8460,-3.8676,-0.7454,0.3344,39.31,-1158.02,1672.55
8470,-3.8674,-0.5896,0.3197,601.81,-1188.96,-1249.39
8480,-3.8673,-0.4595,0.3208,539.31,936.34,-640.01
8490,-3.8672,-0.3580,0.3254,1195.56,1077.21,-1093.14
8500,-3.8671,-0.2677,0.3234,-1820.07,1671.14,-1499.39
8510,-3.8668,-0.1777,0.3158,1742.43,1405.70,109.99
8520,-3.8667,-0.1074,0.3131,1258.06,437.13,-1421.26
8530,-3.8666,-0.0591,0.3284,-1741.94,93.51,-311.89
8540,-3.8665,-0.0204,0.3486,445.56,-1953.25,-1155.64
8550,-3.8663,0.0270,0.3455,1398.68,640.56,219.42
8560,-3.8665,0.1013,0.3136,-538.82,218.75,-1358.70
8570,-3.8666,0.2081,0.2686,976.81,140.81,484.99
8580,-3.8669,0.3392,0.2269,-1351.32,-1624.63,-1905.76
8590,-3.8673,0.4785,0.2115,-570.07,1047.49,-1296.45
8600,-3.8676,0.6229,0.2374,1258.06,-920.96,-1952.76
8610,-3.8677,0.7545,0.2880,-257.57,-1608.22,219.18
8620,-3.8679,0.8508,0.3381,586.18,860.84,-1858.83
8630,-3.8682,0.8987,0.3781,914.31,-717.10,906.86
8640,-3.8687,0.9023,0.4147,-960.69,392.33,-108.64
8650,-3.8691,0.9087,0.4554,-491.94,1079.83,-264.83
8660,-3.8696,0.9362,0.4888,320.56,-1701.35,94.60
8670,-3.8704,0.9496,0.4927,-163.82,-1435.73,1360.29
8680,-3.8711,0.9572,0.4531,1554.93,-935.67,1110.29
8690,-3.8718,0.9802,0.3796,-1476.32,-1998.17,1578.98
8700,-3.8724,0.9771,0.3154,1476.81,595.64,985.11
8710,-3.8729,0.9738,0.3021,1070.56,376.89,141.24
8720,-3.8734,1.0143,0.3389,648.68,-1326.23,-1046.33
8730,-3.8737,1.0710,0.4044,1836.18,-623.05,1281.86
8740,-3.8739,1.0912,0.4731,1101.81,-232.30,-1343.02
8750,-3.8740,1.0269,0.5170,-320.07,564.58,-1452.21
8760,-3.8740,0.8939,0.5424,-554.44,-1826.17,1594.73
8770,-3.8740,0.7311,0.5560,-1570.07,1423.58,-1014.59
8780,-3.8739,0.5736,0.5413,1586.18,-826.72,594.79
8790,-3.8740,0.4309,0.4845,1429.93,1282.35,-795.84
8800,-3.8743,0.3193,0.3934,-835.69,-1983.58,-624.08
8810,-3.8746,0.2538,0.2859,883.06,-1640.01,-1343.02
8820,-3.8750,0.2129,0.1831,492.43,594.24,-1936.95
8830,-3.8440,0.1829,0.1105,-741.94,-562.13,844.06
8840,-3.8442,0.1633,0.0767,-585.69,-1859.07,-437.32
8850,-3.8442,0.1382,0.0778,914.31,1812.81,-1578.00
8860,-3.8441,0.0929,0.1041,1695.56,1953.37,1375.12
8870,-3.8439,0.0232,0.1528,-101.32,1328.25,640.81
8880,-3.8748,-0.0812,0.2202,-1023.19,-437.50,1250.24
8890,-3.8743,-0.2126,0.2740,1617.43,202.94,1328.55
8900,-3.8739,-0.3506,0.2664,789.31,-906.68,-1093.26
8910,-3.8737,-0.4741,0.1893,-866.94,-1891.36,-1452.64
8920,-3.8735,-0.5668,0.0824,-679.44,249.02,140.99
8930,-3.8737,-0.6124,-0.0150,-538.82,-1438.66,1593.87
8940,-3.8737,-0.6351,-0.0795,1617.43,-1907.47,124.94
8950,-3.8735,-0.6632,-0.0822,-1288.82,1842.47,687.32
8960,-3.8732,-0.6915,0.0056,-882.57,1498.66,1359.19
8970,-3.8726,-0.7299,0.1813,-507.57,732.97,796.88
8980,-3.8718,-0.8074,0.3900,-1413.82,-782.71,906.56
8990,-3.8711,-0.9077,0.5398,664.31,1935.91,-1014.89
9000,-3.8704,-1.0256,0.5568,-179.44,1107.54,1391.66
9010,-3.8699,-1.1445,0.4751,726.81,-720.76,-1108.34
9020,-3.8693,-1.1980,0.3942,1508.06,825.87,1297.79
9030,-3.8687,-1.1766,0.3438,-1335.69,-1533.63,328.86
9040,-3.8682,-1.1090,0.3137,1398.68,13.31,516.30
9050,-3.8677,-0.9996,0.3107,-1945.07,169.68,922.49
9060,-3.8673,-0.8608,0.3180,54.93,-220.70,-108.83
9070,-3.8669,-0.6862,0.2896,1820.56,717.04,1203.74
9080,-3.8668,-0.4451,0.2107,179.93,1076.78,-1093.20
9090,-3.8666,-0.1617,0.1414,-960.69,-1016.54,890.99
9100,-3.8663,0.0922,0.1246,-695.07,-1890.99,1687.74
9110,-3.8660,0.2783,0.1560,-195.07,-46.75,-1874.82
9120,-3.8655,0.4476,0.2389,-366.94,-30.76,-859.13
9130,-3.8650,0.5959,0.3165,1304.93,-1421.02,-796.45
9140,-3.8649,0.6582,0.3132,289.31,516.78,1500.61
9150,-3.8654,0.6370,0.2299,258.06,95.03,1281.86
9160,-3.8662,0.5817,0.1296,1539.31,1423.10,-749.57
9170,-3.8671,0.5042,0.0695,-1538.82,594.85,-656.01
9180,-3.8679,0.4084,0.0540,539.31,891.60,-437.38
9190,-3.8687,0.3418,0.0615,289.31,-1092.96,1703.19
9200,-3.8693,0.3635,0.0909,-241.94,-124.39,-1843.69
9210,-3.8695,0.4657,0.1464,-1460.69,-358.70,78.25
9220,-3.8698,0.5734,0.1969,-382.57,-1264.77,1187.74
9230,-3.8701,0.6324,0.2089,1398.68,1204.22,1250.37
9240,-3.8706,0.6610,0.1860,961.18,-1264.40,1156.62
9250,-3.8712,0.7026,0.1366,617.43,-186.22,-1609.07
9260,-3.8718,0.7433,0.0693,1945.56,1485.72,-437.26
9270,-3.8722,0.7107,0.0090,-851.32,876.40,-1234.25
9280,-3.8724,0.6000,-0.0259,-1023.19,1157.59,-1531.25
9290,-3.8727,0.4973,0.0006,804.93,688.66,1843.69
9300,-3.8730,0.4360,0.1002,-335.69,79.04,-812.50
9310,-3.8734,0.4076,0.1768,-179.44,828.92,1890.81
9320,-3.8738,0.4126,0.1766,179.93,-1374.21,875.31
9330,-3.8740,0.4275,0.1523,820.56,-1389.83,-937.19
9340,-3.8740,0.4127,0.1078,-1273.19,-499.21,1390.87
9350,-3.8741,0.3359,0.0140,836.18,1797.67,687.68
9360,-3.8743,0.2109,-0.0990,-991.94,1797.49,296.88
9370,-3.8744,0.0846,-0.1881,-991.94,-671.51,-1015.87
9380,-3.8744,-0.0259,-0.2487,-1163.82,-78.00,-1484.80
9390,-3.8744,-0.1104,-0.2756,695.56,187.44,1968.26
9400,-3.8744,-0.1249,-0.2495,1883.06,734.13,-734.92
9410,-3.8741,-0.0837,-0.2157,23.68,77.88,-1937.99
9420,-3.8738,-0.0591,-0.2274,1289.31,406.07,546.45
9430,-3.8735,-0.0583,-0.2318,445.56,-1093.87,608.89
9440,-3.8734,-0.0573,-0.1620,539.31,-1656.37,-62.99
9450,-3.8732,-0.0980,-0.0706,679.93,-718.87,1749.63
9460,-3.8732,-0.2035,-0.0630,-538.82,-1015.87,531.07
9470,-3.8733,-0.2990,-0.1384,1961.18,-47.30,1359.19
9480,-3.8733,-0.3119,-0.2173,1742.43,-1703.74,-1140.93
9490,-3.8732,-0.2809,-0.2589,86.18,202.51,-203.55
9500,-3.8729,-0.2825,-0.2670,54.93,-1125.55,1108.83
9510,-3.8727,-0.3339,-0.2629,-148.19,1843.14,483.83
9520,-3.8722,-0.3973,-0.2521,1273.68,-1641.30,1968.20
9530,-3.8713,-0.4352,-0.1835,1148.68,-250.79,-1016.17
9540,-3.8705,-0.4376,-0.0304,304.93,530.40,-1765.99
9550,-3.8704,-0.4862,0.1237,-7.57,124.08,-1546.94
9560,-3.8704,-0.5649,0.1954,1773.68,-157.23,-1546.69
9570,-3.8700,-0.5758,0.1730,-304.44,1030.09,-484.01
9580,-3.8698,-0.5455,0.0652,-1695.07,-1844.91,-390.32
9590,-3.8696,-0.4757,-0.0757,-1820.07,358.28,1000.12
9600,-3.8695,-0.3507,-0.1616,-882.57,-1672.85,437.32
9610,-3.8693,-0.2139,-0.1395,-882.57,-672.61,1234.01
9620,-3.8690,-0.1167,-0.0483,633.06,-1844.18,-1625.31
9630,-3.8688,-0.0819,0.0027,1070.56,1827.88,1578.00
9640,-3.8685,-0.1063,-0.0347,1523.68,359.19,437.50
9650,-3.8685,-0.1749,-0.1602,-1601.32,-422.12,-312.62
9660,-3.8685,-0.2385,-0.3501,1617.43,-484.74,1593.38
9670,-3.8687,-0.2439,-0.5330,1476.81,-797.36,-1781.98
9680,-3.8689,-0.2030,-0.6549,789.31,-203.61,-454.22
9690,-3.8691,-0.1451,-0.7058,-1976.32,187.07,1654.97
9700,-3.8694,-0.0728,-0.7178,1429.93,1671.57,514.22
9710,-3.8696,0.0195,-0.7107,-1304.44,140.44,248.60
9720,-3.8700,0.1246,-0.6678,-1491.94,1031.25,-1048.28
9730,-3.8702,0.2321,-0.5573,-38.82,-1484.19,-1657.59
9740,-3.8704,0.3492,-0.3916,1711.18,672.30,-360.47
9750,-3.8704,0.5261,-0.2568,711.18,1875.67,-1219.54
9760,-3.8706,0.7528,-0.2393,-648.19,-874.02,-1781.80
9770,-3.8711,0.9375,-0.3384,367.43,1376.46,-734.86
9780,-3.8716,1.0015,-0.4766,8.06,689.33,-1313.17
9790,-3.8721,0.9598,-0.5942,195.56,-998.05,1092.77
9800,-3.8726,0.8491,-0.6871,-1132.57,-60.67,201.90
9810,-3.8730,0.6725,-0.7233,695.56,48.52,-1735.72
9820,-3.8733,0.4957,-0.6090,-1913.82,-576.84,29.79
9830,-3.8734,0.4131,-0.3342,-538.82,-1952.21,-1923.10
9840,-3.8732,0.4541,-0.0480,883.06,1219.54,1030.58
9850,-3.8729,0.5848,0.1072,-1866.94,1860.23,-1859.50
9860,-3.8727,0.7183,0.0961,-1132.57,1719.85,875.18
9870,-3.8728,0.7782,-0.0367,-54.44,298.22,-1202.94
9880,-3.8732,0.7241,-0.2283,-382.57,-701.66,1749.88
9890,-3.8735,0.5488,-0.3959,695.56,-1217.35,249.51
9900,-3.8738,0.2903,-0.4381,-1741.94,1329.16,452.33
9910,-3.8740,0.0094,-0.3557,1164.31,-77.58,-469.67
9920,-3.8741,-0.2086,-0.2336,1211.18,-1531.25,-328.86
9930,-3.8740,-0.3260,-0.1537,1304.93,-1891.05,140.14
9940,-3.8739,-0.3523,-0.1478,-1726.32,343.08,-344.06
9950,-3.8737,-0.3151,-0.1748,-1085.69,1093.02,546.57
9960,-3.8738,-0.2698,-0.1942,-320.07,1639.95,-890.99
9970,-3.8738,-0.2432,-0.2117,1476.81,-844.30,-1344.18
9980,-3.8737,-0.2109,-0.2335,883.06,921.39,1733.95
9990,-3.8735,-0.1530,-0.2262,1008.06,-1875.43,-1484.86
10000,-3.8734,-0.0829,-0.1648,429.93,-937.81,999.51
10010,-3.8734,-0.0314,-0.0928,1398.68,-1078.31,-1594.12
10020,-3.8732,-0.0408,-0.0327,-7.57,140.50,1984.19
10030,-3.8729,-0.1315,0.0294,-1210.69,-172.00,-1328.25
10040,-3.8729,-0.2723,0.0680,-820.07,-219.06,-1015.62
10050,-3.8729,-0.4249,0.0720,1148.68,718.20,562.62
10060,-3.8729,-0.5472,0.0688,1617.43,1233.52,-656.13
10070,-3.8727,-0.5795,0.0804,1961.18,827.03,-1281.13
10080,-3.8726,-0.5063,0.0875,1836.18,-1688.66,1203.25
10090,-3.8727,-0.3691,0.0679,-804.44,-782.29,1593.87
10100,-3.8727,-0.2440,0.0472,758.06,702.39,-703.00
10110,-3.8723,-0.2321,0.0565,773.68,-1937.99,-1874.94
10120,-3.8718,-0.3480,0.1128,-1695.07,-750.49,1437.56
10130,-3.8713,-0.5193,0.2115,-538.82,-1547.61,859.56
10140,-3.8708,-0.6799,0.3118,1539.31,-907.29,125.37
10150,-3.8705,-0.7803,0.3474,976.81,-79.47,1000.55
10160,-3.8704,-0.7965,0.2732,133.06,482.85,-374.33
10170,-3.8702,-0.7487,0.1150,-1945.07,-1017.21,1672.36
10180,-3.8702,-0.6918,-0.0415,179.93,-1267.09,-499.82
10190,-3.8700,-0.6693,-0.1243,-538.82,-1298.28,62.38
10200,-3.8698,-0.6863,-0.1019,-1663.82,108.03,484.13
10210,-3.8694,-0.7269,0.0175,164.31,-1032.59,1406.01
10220,-3.8689,-0.7612,0.1592,-1038.82,-1751.46,1890.62
10230,-3.8684,-0.7537,0.2224,-1429.44,389.10,-1452.82
10240,-3.8680,-0.6917,0.1758,-460.69,482.85,-624.57
10250,-3.8678,-0.5813,0.0808,-523.19,-1485.78,-296.57
10260,-3.8677,-0.4379,-0.0065,1601.81,-1641.78,-499.88
10270,-3.8677,-0.2903,-0.0952,-38.82,-813.42,749.94
10280,-3.8679,-0.1478,-0.1809,-1148.19,-172.49,-734.62
10290,-3.8679,-0.0061,-0.2236,1086.18,859.07,1374.63
10300,-3.8679,0.1272,-0.2045,-773.19,-609.44,-844.24
10310,-3.8678,0.2311,-0.1511,289.31,1828.37,718.32
10320,-3.8678,0.2933,-0.0918,1586.18,656.68,1312.19
10330,-3.8678,0.3230,-0.0399,1554.93,250.55,1999.82
10340,-3.8678,0.3389,-0.0182,1351.81,-1108.76,562.38
10350,-3.8679,0.3711,-0.0187,-616.94,1672.49,390.56
10360,-3.8682,0.4463,-0.0300,-491.94,1610.05,515.56
10370,-3.8685,0.5601,-0.0670,1133.06,157.10,171.81
10380,-3.8690,0.6493,-0.1165,-304.44,-577.09,1968.57
10390,-3.8695,0.6641,-0.1648,-882.57,1094.97,-1578.37
10400,-3.8700,0.6160,-0.1975,1008.06,-1092.47,-922.24
10410,-3.8704,0.5376,-0.1936,-1148.19,-1280.09,1562.07
10420,-3.8707,0.4972,-0.1703,820.56,-780.21,-547.30
10430,-3.8708,0.5195,-0.1462,-351.32,-1795.96,734.01
10440,-3.8711,0.5546,-0.1245,-1491.94,1282.23,343.44
10450,-3.8716,0.5531,-0.1210,-1007.57,63.54,-125.24
10460,-3.8719,0.5135,-0.1404,-1195.07,516.66,-1890.87
10470,-3.8723,0.4634,-0.1621,1742.43,-1967.77,-1859.68
10480,-3.8726,0.3999,-0.1725,-679.44,-749.15,1265.26
10490,-3.8727,0.3242,-0.1600,-804.44,1922.61,1249.63
10500,-3.8728,0.2599,-0.1200,1508.06,-483.76,-1031.62
10510,-3.8729,0.2114,-0.0914,1273.68,641.11,296.63
10520,-3.8733,0.1815,-0.1082,-929.44,297.24,-1640.81
10530,-3.8735,0.1869,-0.1571,-757.57,-1843.44,1484.13
10540,-3.8738,0.2163,-0.2183,-70.07,-109.07,-1265.99
10550,-3.8739,0.2306,-0.2725,-304.44,62.87,1530.82
10560,-3.8740,0.2094,-0.3014,1523.68,1125.43,1608.83
10570,-3.8740,0.1627,-0.2952,-1195.07,1422.24,327.51
10580,-3.8740,0.0947,-0.2516,836.18,-1780.94,-141.24
10590,-3.8737,-0.0032,-0.1735,133.06,-202.94,608.83
10600,-3.8734,-0.1173,-0.0833,-398.19,1812.44,952.76
10610,-3.8733,-0.1866,-0.0122,992.43,1359.13,921.69
10620,-3.8732,-0.1676,0.0355,117.43,-1547.24,937.44
10630,-3.8730,-0.0966,0.0592,-1445.07,562.13,1484.44
10640,-3.8730,-0.0280,0.0459,-351.32,-406.49,-1828.06
10650,-3.8732,-0.0089,-0.0018,429.93,1890.56,-437.44
10660,-3.8732,-0.0498,-0.0701,-1132.57,-218.81,-1687.56
10670,-3.8730,-0.1102,-0.1444,1633.06,-953.25,-1234.56
10680,-3.8727,-0.1699,-0.2063,1898.68,1531.01,452.82
10690,-3.8724,-0.2267,-0.2314,-1741.94,1609.01,-625.43
10700,-3.8721,-0.2897,-0.2002,-1007.57,-1609.86,77.64
10710,-3.8719,-0.3583,-0.1274,-1070.07,-1609.99,1077.70
10720,-3.8718,-0.3849,-0.0369,-1851.32,-297.61,1655.94
10730,-3.8716,-0.3588,0.0498,-1257.57,-703.92,-125.12
10740,-3.8711,-0.3197,0.0994,-1913.82,-1610.11,1046.94
10750,-3.8708,-0.3000,0.0808,-913.82,733.70,593.93
10760,-3.8708,-0.3036,0.0052,1601.81,-1641.24,-1718.63
10770,-3.8708,-0.3318,-0.0703,1148.68,686.89,1796.88
10780,-3.8708,-0.3779,-0.1158,1539.31,-985.05,-1234.56
10790,-3.8706,-0.4023,-0.1166,-366.94,1186.71,-1656.49
10800,-3.8702,-0.4032,-0.0862,508.06,1092.96,-656.49
10810,-3.8698,-0.4008,-0.0571,398.68,983.58,1296.69
10820,-3.8694,-0.3788,-0.0405,711.18,702.33,921.75
10830,-3.8693,-0.2991,-0.0704,-476.32,-1172.67,-672.00
10840,-3.8691,-0.1627,-0.1503,1726.81,-1000.61,-1312.68
10850,-3.8690,-0.0266,-0.2299,-820.07,780.88,1390.32
10860,-3.8690,0.0488,-0.2777,601.81,-1406.31,-1641.11
10870,-3.8690,0.0776,-0.2928,-1741.94,453.19,-453.67
10880,-3.8688,0.1211,-0.2642,1945.56,-1484.25,1890.01
10890,-3.8684,0.1885,-0.1848,-491.94,-1812.32,999.45
10900,-3.8682,0.2489,-0.0872,133.06,344.12,-1297.24
10910,-3.8679,0.2863,-0.0192,-132.57,844.18,62.32
10920,-3.8678,0.3157,0.0166,648.68,1547.42,796.81
10930,-3.8677,0.3654,0.0299,414.31,-1874.39,1078.12
10940,-3.8677,0.4476,0.0106,-1226.32,-171.20,703.12
10950,-3.8679,0.5558,-0.0194,1304.93,1360.23,-406.25
10960,-3.8680,0.6670,-0.0273,-851.32,1516.66,843.69
10970,-3.8683,0.7693,-0.0023,1383.06,501.28,1156.19
10980,-3.8688,0.8256,0.0219,-1523.19,-295.41,-281.31
10990,-3.8693,0.8083,0.0051,1679.93,-1201.54,656.25
11000,-3.8699,0.7822,-0.0228,-523.19,657.78,-1359.38
11010,-3.8702,0.7617,-0.0228,133.06,1079.65,46.81
11020,-3.8707,0.7211,0.0039,1508.06,1079.59,-109.44
11030,-3.8710,0.6698,0.0209,304.93,501.40,46.88
11040,-3.8715,0.6387,-0.0031,1742.43,-1326.84,-1156.25
11050,-3.8718,0.6460,-0.0483,1758.06,-389.40,1578.06
11060,-3.8722,0.6575,-0.0902,-1304.44,1813.72,843.63
11070,-3.8727,0.6567,-0.1284,164.31,454.41,-109.56
11080,-3.8729,0.6241,-0.1604,70.56,-436.22,921.57
11090,-3.8732,0.5448,-0.1758,-101.32,-530.09,1140.26
11100,-3.8734,0.4536,-0.1713,1742.43,1501.04,-250.37
11110,-3.8735,0.3646,-0.1570,-1929.44,-1921.02,-109.74
11120,-3.8737,0.2821,-0.1475,-1320.07,-93.08,-422.24
11130,-3.8738,0.2217,-0.1455,117.43,1125.55,-781.56
11140,-3.8738,0.1783,-0.1438,383.06,1375.43,984.07
11150,-3.8738,0.1564,-0.1416,-1163.82,1594.06,93.44
11160,-3.8738,0.1533,-0.1481,23.68,1875.31,109.07
11170,-3.8738,0.1335,-0.1681,-366.94,1047.12,999.69
11180,-3.8738,0.0801,-0.1866,1101.81,-1515.38,1577.76
11190,-3.8738,0.0114,-0.1857,-1741.94,109.50,1343.38
11200,-3.8738,-0.0521,-0.1644,1461.18,234.38,1655.88
11210,-3.8738,-0.0991,-0.1342,1336.18,-1031.37,-609.74
11220,-3.8737,-0.1233,-0.0973,-679.44,-1156.49,1952.82
11230,-3.8735,-0.1282,-0.0482,226.81,-437.74,1859.13
11240,-3.8734,-0.1367,0.0068,-398.19,1843.44,-750.12
11250,-3.8732,-0.1674,0.0634,-1491.94,890.32,1718.75
11260,-3.8729,-0.2052,0.1174,-1413.82,124.63,843.87
11270,-3.8728,-0.2208,0.1560,1742.43,-953.55,-390.44
11280,-3.8726,-0.2223,0.1702,-257.57,-16.11,1047.12
11290,-3.8724,-0.2290,0.1663,-445.07,1796.39,1640.93
11300,-3.8723,-0.2437,0.1512,-1304.44,1296.39,-1296.57
11310,-3.8722,-0.2723,0.1210,820.56,-625.49,-93.51
11320,-3.8719,-0.3250,0.0934,1148.68,-500.55,1765.81
11330,-3.8717,-0.3988,0.1040,-1585.69,-31.92,1750.12
11340,-3.8715,-0.4871,0.1571,961.18,1327.33,-140.44
11350,-3.8711,-0.5692,0.2231,1664.31,124.02,-1187.19
11360,-3.8707,-0.6173,0.2606,-851.32,576.97,1672.30
11370,-3.8704,-0.6334,0.2454,992.43,1373.78,625.49
11380,-3.8701,-0.6396,0.1820,-1070.07,-579.41,1547.30
11390,-3.8700,-0.6390,0.1073,-1866.94,-688.78,-1280.94
11400,-3.8699,-0.6298,0.0701,-1788.82,1748.72,-1984.19
11410,-3.8698,-0.6163,0.0842,-601.32,983.09,-1374.88
11420,-3.8695,-0.5995,0.1276,1117.43,-1204.35,-1734.25
11430,-3.8693,-0.5764,0.1726,-726.32,342.53,-140.38
11440,-3.8689,-0.5242,0.2032,-1773.19,-1891.78,1906.56
11450,-3.8687,-0.4298,0.2094,914.31,-1969.79,-1249.63
11460,-3.8684,-0.2903,0.1947,992.43,-1188.35,1953.49
11470,-3.8683,-0.1318,0.1727,-1148.19,936.89,-155.88
11480,-3.8680,0.0083,0.1478,-866.94,-1875.31,156.56
11490,-3.8680,0.1278,0.1243,1070.56,-1078.12,-687.26
11500,-3.8679,0.2397,0.1123,367.43,-93.51,-1874.82
11510,-3.8678,0.3417,0.1063,-1304.44,-1624.57,406.43
11520,-3.8678,0.4244,0.0885,-257.57,1609.99,1203.31
11530,-3.8679,0.4911,0.0591,-1663.82,-671.08,-46.75
11540,-3.8679,0.5587,0.0402,-1132.57,-436.58,875.06
11550,-3.8680,0.6379,0.0431,-476.32,1141.66,781.31
11560,-3.8683,0.7266,0.0557,1664.31,1516.85,-703.06
11570,-3.8685,0.8221,0.0646,1008.06,-873.60,-46.81
11580,-3.8688,0.8995,0.0629,1242.43,267.21,-515.50
11590,-3.8690,0.9580,0.0498,-851.32,48.58,1812.62
11600,-3.8694,0.9900,0.0269,-1366.94,-1623.17,1953.19
11610,-3.8698,0.9756,0.0035,-1273.19,-560.61,687.50
11620,-3.8702,0.9431,-0.0085,883.06,455.02,-640.62
11630,-3.8706,0.9189,-0.0168,726.81,-1091.92,-1921.94
11640,-3.8710,0.8975,-0.0292,1633.06,1845.52,796.81
11650,-3.8715,0.8785,-0.0487,-1116.94,267.33,-1062.56
11660,-3.8718,0.8651,-0.0785,461.18,1767.33,968.63
11670,-3.8722,0.8290,-0.1055,-1257.57,1954.77,281.07
11680,-3.8726,0.7933,-0.1151,-1882.57,-1498.41,1124.76
11690,-3.8729,0.7786,-0.1061,1554.93,1267.15,-281.49
11700,-3.8730,0.7649,-0.0778,-335.69,-1576.66,124.76
11710,-3.8733,0.7426,-0.0415,1914.31,-1951.66,1062.32
11720,-3.8735,0.6882,-0.0168,-945.07,-1311.10,-1406.37
11730,-3.8737,0.6036,-0.0177,101.81,1845.09,609.31
11740,-3.8739,0.5015,-0.0452,1273.68,1735.53,1984.31
11750,-3.8741,0.4012,-0.0853,195.56,-1780.27,-1156.37
11760,-3.8743,0.3151,-0.1207,-632.57,1078.86,15.44
11770,-3.8745,0.2373,-0.1409,336.18,547.49,-1922.12
11780,-3.8746,0.1801,-0.1517,-1616.94,1969.18,921.57
11790,-3.8748,0.1512,-0.1582,-945.07,578.43,718.44
11800,-3.8749,0.1534,-0.1538,-632.57,-249.76,671.51
11810,-3.8750,0.1774,-0.1292,-351.32,312.74,671.57
11820,-3.8750,0.2009,-0.0767,-1288.82,-530.94,452.82
11830,-3.8749,0.1902,-0.0161,1726.81,-1812.13,-1593.93
11840,-3.8746,0.1212,0.0193,351.81,1937.87,-1015.69
11850,-3.8744,0.0035,0.0206,-476.32,-1531.07,1656.25
11860,-3.8743,-0.1395,-0.0046,461.18,-1359.38,1203.12
11870,-3.8743,-0.2775,-0.0358,-1851.32,-578.43,-406.31
11880,-3.8741,-0.3849,-0.0460,492.43,-563.05,-1359.50
11890,-3.8740,-0.4454,-0.0249,-1257.57,-1875.79,-422.00
11900,-3.8737,-0.4460,0.0382,-1007.57,827.21,234.31
11910,-3.8733,-0.4203,0.1443,-1085.69,905.33,1546.94
11920,-3.8728,-0.4131,0.2615,-1788.82,-1516.48,-187.26
11930,-3.8721,-0.4521,0.3511,-866.94,1483.52,1891.11
11940,-3.8715,-0.5400,0.3900,-1866.94,952.21,-1343.08
11950,-3.8710,-0.6473,0.3811,-1116.94,1936.40,1735.11
11960,-3.8706,-0.7361,0.3511,1148.68,795.59,985.11
11970,-3.8704,-0.8158,0.3118,1789.31,951.66,-1218.08
11980,-3.8700,-0.9127,0.2556,-413.82,-79.77,0.55
11990,-3.8698,-0.9808,0.1842,-820.07,732.54,703.61
12000,-3.8695,-0.9867,0.1248,-1538.82,-408.20,1250.31
12010,-3.8693,-0.9222,0.1150,1711.18,-17.58,1515.81
12020,-3.8690,-0.8009,0.1805,1961.18,-1267.46,-1609.19
12030,-3.8687,-0.6603,0.3042,1492.43,-876.59,-1077.82
12040,-3.8682,-0.5352,0.4302,-507.57,-1048.22,-718.20
12050,-3.8677,-0.4508,0.5026,-491.94,-922.97,-1124.21
12060,-3.8673,-0.3920,0.4882,-1695.07,342.83,516.60
12070,-3.8673,-0.3383,0.3911,1836.18,-1500.79,-499.08
12080,-3.8673,-0.2899,0.2588,711.18,-1922.55,-1921.14
12090,-3.8674,-0.2478,0.1448,-1101.32,1140.01,-1905.76
12100,-3.8676,-0.1927,0.0724,289.31,-1453.61,1047.12
12110,-3.8678,-0.1143,0.0432,-663.82,1280.82,-140.50
12120,-3.8679,-0.0134,0.0370,1383.06,1546.63,-1281.19
12130,-3.8680,0.1188,0.0342,-1710.69,749.94,-499.94
12140,-3.8679,0.2788,0.0330,-788.82,375.18,62.56
12150,-3.8678,0.4612,0.0405,-304.44,219.24,421.94
12160,-3.8677,0.6637,0.0479,-960.69,1188.35,-1796.81
12170,-3.8676,0.8627,0.0442,961.18,-1873.72,-1999.94
12180,-3.8676,1.0166,0.0314,-1570.07,1657.90,1968.81
12190,-3.8677,1.0972,0.0200,-1866.94,17.58,-1609.31
12200,-3.8679,1.1481,0.0231,445.56,-1435.36,-109.38
12210,-3.8682,1.1957,0.0341,-1038.82,-1044.68,-906.25
12220,-3.8685,1.2028,0.0375,1054.93,361.69,-343.69
12230,-3.8689,1.1960,0.0287,1961.18,799.19,1765.69
12240,-3.8694,1.2200,0.0128,1101.81,-325.81,-1125.00
12250,-3.8699,1.2413,0.0061,164.31,1643.01,-734.38
12260,-3.8704,1.2451,0.0146,-1101.32,783.63,-1609.38
12270,-3.8708,1.2411,0.0266,-616.94,1877.38,1468.75
12280,-3.8713,1.2032,0.0356,-1132.57,-591.37,-1531.25
12290,-3.8717,1.1583,0.0442,-1976.32,564.82,1406.31
12300,-3.8721,1.1108,0.0610,273.68,1658.51,-1953.06
12310,-3.8724,1.0635,0.0895,-1804.44,-185.36,-140.56
12320,-3.8727,1.0208,0.1074,133.06,-544.80,-1874.88
12330,-3.8729,0.9661,0.0977,-1335.69,1751.95,422.06
12340,-3.8733,0.9019,0.0663,-335.69,501.83,-1734.19
12350,-3.8735,0.8278,0.0360,-554.44,486.08,562.62
12360,-3.8738,0.7520,0.0239,1961.18,610.96,609.44
12370,-3.8740,0.6641,0.0239,258.06,-936.04,-1609.38
12380,-3.8741,0.5767,0.0315,1008.06,-936.22,1218.75
12390,-3.8743,0.5005,0.0438,1820.56,32.35,984.44
12400,-3.8744,0.4397,0.0586,70.56,1610.35,1812.56
12410,-3.8745,0.3988,0.0692,289.31,-499.15,-656.19
12420,-3.8745,0.3658,0.0643,-945.07,860.11,625.12
12430,-3.8746,0.3328,0.0425,-1163.82,235.05,1406.37
12440,-3.8748,0.2877,0.0272,-1398.19,1438.11,1781.31
12450,-3.8749,0.2571,0.0187,836.18,-515.08,46.88
12460,-3.8439,0.2582,-0.0166,914.31,-1608.89,671.88
12470,-3.8441,0.2610,-0.0638,1054.93,1875.49,-734.44
12480,-3.8441,0.2538,-0.0856,1414.31,-171.39,1671.69
12490,-3.8440,0.2321,-0.0668,492.43,1047.36,999.82
12500,-3.8750,0.1918,-0.0087,1711.18,-546.45,1952.94
12510,-3.8745,0.1246,0.0740,554.93,-1109.01,453.06
12520,-3.8740,0.0137,0.1545,-38.82,1468.93,-937.38
12530,-3.8734,-0.1299,0.2069,1758.06,-218.75,-1406.01
12540,-3.8729,-0.2667,0.2238,-616.94,-1500.31,-374.63
12550,-3.8726,-0.3649,0.2053,1867.43,655.70,-30.82
12560,-3.8723,-0.4128,0.1549,1304.93,-1703.86,-499.63
12570,-3.8722,-0.4352,0.0913,-835.69,-157.10,-249.76
12580,-3.8721,-0.4805,0.0529,304.93,-297.73,-140.50
12590,-3.8718,-0.5646,0.0637,-1491.94,-1219.73,-937.44
12600,-3.8715,-0.6698,0.1139,-257.57,170.72,-796.75
12610,-3.8710,-0.7859,0.1697,-1726.32,-1407.59,-656.07
12620,-3.8704,-0.8693,0.1995,-585.69,1732.79,0.31
12630,-3.8700,-0.8745,0.1866,742.43,1545.17,1578.49
12640,-3.8698,-0.8558,0.1401,70.56,-95.46,-187.19
12650,-3.8695,-0.8413,0.0807,-1538.82,1951.42,-906.01
12660,-3.8693,-0.8279,0.0375,320.56,-1657.90,422.00
12670,-3.8691,-0.8125,0.0416,-1960.69,810.85,-1312.44
12680,-3.8689,-0.7872,0.0752,8.06,1342.16,-812.44
12690,-3.8685,-0.7412,0.1017,-757.57,1639.04,718.87
12700,-3.8683,-0.6649,0.1184,1133.06,1029.79,984.56
12710,-3.8682,-0.5720,0.1392,-1101.32,-829.47,-1015.44
12720,-3.8680,-0.4648,0.1710,-1210.69,1826.97,-1140.38
12730,-3.8679,-0.3207,0.2231,508.06,1905.33,1969.06
12740,-3.8678,-0.1484,0.2648,-1038.82,577.45,1656.68
12750,-3.8677,-0.0089,0.2455,1008.06,1905.94,375.49
12760,-3.8678,0.0745,0.1686,-1132.57,-562.56,-1921.45
12770,-3.8680,0.1082,0.0742,1539.31,1578.25,1859.68
12780,-3.8684,0.1245,0.0033,1851.81,1500.18,-999.88
12790,-3.8687,0.1478,-0.0282,-54.44,422.06,1703.12
12800,-3.8688,0.1826,-0.0239,-1070.07,390.87,937.44
12810,-3.8688,0.2339,-0.0060,-616.94,937.81,671.81
12820,-3.8688,0.3042,0.0072,1945.56,-765.20,-1234.44
12830,-3.8687,0.3956,0.0142,-1054.44,922.42,1437.50
12840,-3.8687,0.5076,0.0092,-1351.32,1813.23,-1000.00
12850,-3.8687,0.6305,-0.0121,976.81,1172.85,1937.50
12860,-3.8688,0.7493,-0.0383,711.18,-1545.65,-1546.94
12870,-3.8689,0.8562,-0.0511,-85.69,-904.85,-1875.12
12880,-3.8690,0.9293,-0.0432,1601.81,1454.77,-1703.25
12890,-3.8691,0.9741,-0.0168,-1038.82,-1529.48,-1312.62
12900,-3.8693,1.0011,0.0186,695.56,1845.64,-781.31
12910,-3.8693,1.0071,0.0609,148.68,-1623.05,906.25
12920,-3.8694,1.0104,0.1089,914.31,-201.17,-1562.44
12930,-3.8695,1.0393,0.1522,1336.18,1939.45,-1827.94
12940,-3.8696,1.0836,0.1823,1039.31,-513.61,468.99
12950,-3.8699,1.1074,0.1959,-1288.82,-669.80,1125.31
12960,-3.8702,1.1200,0.1959,1758.06,1080.26,-30.88
12970,-3.8705,1.1019,0.1904,-632.57,1080.26,1422.24
12980,-3.8708,1.0640,0.1879,1054.93,377.14,-1952.76
12990,-3.8712,1.0192,0.1904,195.56,48.95,-1109.01
13000,-3.8715,0.9458,0.2003,-1538.82,376.95,922.24
13010,-3.8717,0.8730,0.2130,1070.56,1642.46,47.24
13020,-3.8721,0.8112,0.2230,-241.94,-732.73,-77.76
13030,-3.8722,0.7610,0.2332,-163.82,548.40,297.30
13040,-3.8724,0.7190,0.2435,1414.31,1845.21,984.80
13050,-3.8727,0.6829,0.2430,39.31,-826.72,1000.43
13060,-3.8730,0.6528,0.2224,-585.69,-889.34,-718.32
13070,-3.8734,0.6117,0.1873,-429.44,469.97,-124.57
13080,-3.8738,0.5543,0.1442,-1695.07,-30.09,-249.69
13090,-3.8741,0.4814,0.0953,-1038.82,-1545.84,-296.63
13100,-3.8745,0.4102,0.0427,1633.06,204.04,-171.69
13110,-3.8748,0.3510,-0.0083,508.06,1469.54,734.44
13120,-3.8439,0.3074,-0.0519,929.93,-1061.83,-1031.31
13130,-3.8441,0.2780,-0.0803,-648.19,1359.92,-1140.75
13140,-3.8442,0.2489,-0.0846,-413.82,1719.24,906.07
13150,-3.8444,0.2137,-0.0657,-132.57,1172.30,1327.94
13160,-3.8444,0.1700,-0.0323,-632.57,-405.88,702.94
13170,-3.8444,0.1383,-0.0035,1773.68,-140.32,-1812.62
13180,-3.8442,0.1399,0.0100,1711.18,-452.88,843.69
13190,-3.8441,0.1562,0.0176,1914.31,1281.49,718.75
13200,-3.8440,0.1605,0.0330,8.06,-1749.69,1968.75
13210,-3.8750,0.1420,0.0636,554.93,219.06,1093.81
13220,-3.8748,0.0981,0.1118,-1820.07,140.87,-453.00
13230,-3.8743,0.0295,0.1729,570.56,-1687.32,-1640.44
13240,-3.8737,-0.0621,0.2280,-210.69,-1875.00,390.93
13250,-3.8732,-0.1691,0.2709,54.93,1203.00,-15.20
13260,-3.8724,-0.2886,0.3015,-1632.57,-1312.87,531.74
13270,-3.8718,-0.4279,0.3160,-929.44,-1391.24,1703.67
13280,-3.8712,-0.5713,0.3192,1242.43,467.90,-1296.26
13290,-3.8706,-0.7148,0.3116,-1116.94,873.84,-1311.89
13300,-3.8700,-0.8555,0.3015,508.06,-95.15,1391.17
13310,-3.8695,-0.9364,0.2788,-1491.94,-1392.33,-1968.20
13320,-3.8691,-0.9719,0.2148,148.68,-298.71,-640.14
13330,-3.8689,-0.9904,0.1381,-398.19,-486.33,-124.63
13340,-3.8687,-0.9580,0.0957,1242.43,1685.55,109.62
13350,-3.8687,-0.9088,0.1073,1383.06,263.73,-218.57
13360,-3.8684,-0.8536,0.1681,-320.07,1748.17,984.56
13370,-3.8682,-0.7758,0.2483,-1257.57,1529.54,62.81
13380,-3.8679,-0.6477,0.3231,711.18,-204.65,1703.55
13390,-3.8677,-0.4672,0.3678,1101.81,1373.72,-46.26
13400,-3.8674,-0.2778,0.3651,211.18,-907.17,-1124.33
13410,-3.8673,-0.1079,0.3270,445.56,-1250.55,453.80
13420,-3.8674,0.0034,0.2794,-1804.44,1874.76,1844.36
13430,-3.8676,0.0647,0.2397,445.56,-234.38,1531.74
13440,-3.8677,0.0994,0.2163,289.31,-1312.38,891.05
13450,-3.8678,0.1237,0.2119,726.81,-312.32,750.37
13460,-3.8679,0.1721,0.2172,-163.82,-874.82,1719.12
13470,-3.8680,0.2587,0.2192,-1960.69,-202.82,-734.01
13480,-3.8680,0.3789,0.2064,1117.43,62.99,453.55
13490,-3.8682,0.5265,0.1757,508.06,-1577.39,1281.62
13500,-3.8683,0.6738,0.1323,-601.32,-1514.65,1515.93
13510,-3.8685,0.7998,0.0903,-1741.94,938.78,-218.51
13520,-3.8687,0.9078,0.0625,-1616.94,-435.97,265.75
13530,-3.8689,0.9884,0.0592,211.18,1.77,968.87
13540,-3.8691,1.0641,0.0824,-1476.32,-419.98,-1499.94
13550,-3.8693,1.1445,0.1218,211.18,-1451.05,500.12
13560,-3.8695,1.2002,0.1721,-1491.94,-404.05,-1796.69
13570,-3.8698,1.2676,0.2234,1633.06,-1966.43,-1077.82
13580,-3.8700,1.3461,0.2710,-1741.94,596.19,-718.32
13590,-3.8701,1.4011,0.3318,304.93,-1309.88,16.11
13600,-3.8704,1.4403,0.3815,-648.19,-1528.56,156.86
13610,-3.8707,1.4240,0.3759,367.43,830.93,1875.73
13620,-3.8712,1.3634,0.3221,-1726.32,112.12,-343.02
13630,-3.8717,1.2942,0.2505,-1476.32,1237.00,1891.24
13640,-3.8723,1.2351,0.1938,1664.31,65.00,-499.51
13650,-3.8728,1.1959,0.1698,-1898.19,814.88,-468.38
13660,-3.8732,1.1564,0.1813,1086.18,1736.69,-359.07
13670,-3.8733,1.1061,0.2317,23.68,-794.62,562.81
13680,-3.8734,1.0604,0.2981,1586.18,1658.39,1687.93
13690,-3.8734,1.0343,0.3330,-257.57,-1841.74,672.42
13700,-3.8735,1.0079,0.3136,398.68,-1372.99,1953.74
13710,-3.8738,0.9521,0.2566,1023.68,142.58,-686.89
13720,-3.8740,0.8627,0.1909,1883.06,845.58,-1968.26
13730,-3.8743,0.7593,0.1316,-1570.07,439.15,828.49
13740,-3.8745,0.6538,0.0786,1195.56,845.21,859.62
13750,-3.8748,0.5464,0.0281,-304.44,-1936.28,1875.12
13760,-3.8750,0.4344,-0.0199,1945.56,-405.21,-218.75
13770,-3.8439,0.3263,-0.0624,-382.57,1453.92,-1437.56
13780,-3.8440,0.2323,-0.0980,1773.68,16.24,-1906.37
13790,-3.8441,0.1742,-0.1244,1742.43,-546.45,-1734.62
13800,-3.8442,0.1512,-0.1298,-1695.07,78.43,-203.37
13810,-3.8442,0.1437,-0.1104,-632.57,-609.13,-953.43
13820,-3.8442,0.1388,-0.0771,-1601.32,1875.24,-15.87
13830,-3.8441,0.1294,-0.0411,1773.68,-1874.76,-922.06
13840,-3.8440,0.1135,-0.0236,570.56,-1265.38,-640.75
13850,-3.8439,0.0996,-0.0369,-1460.69,984.56,-593.81
13860,-3.8750,0.0861,-0.0630,758.06,-718.57,-0.12
13870,-3.8748,0.0582,-0.0741,-976.32,-62.38,-1015.81
13880,-3.8744,0.0031,-0.0548,-538.82,-1484.31,1359.19
13890,-3.8740,-0.0829,-0.0050,398.68,984.38,-390.75
13900,-3.8734,-0.1848,0.0786,1398.68,-625.18,-828.19
13910,-3.8726,-0.2893,0.1802,351.81,-1922.24,625.12
13920,-3.8717,-0.3901,0.2552,-1023.19,-922.49,594.06
13930,-3.8710,-0.4585,0.2755,-1929.44,686.71,1531.74
13940,-3.8704,-0.5056,0.2529,1320.56,-719.67,859.86
13950,-3.8700,-0.5449,0.2161,-710.69,389.59,-1155.76
13960,-3.8696,-0.5415,0.1729,-1741.94,-329.22,359.74
13970,-3.8695,-0.5020,0.1345,-1304.44,-1860.47,-1359.07
13980,-3.8694,-0.4612,0.1215,-241.94,1233.34,-499.76
13990,-3.8691,-0.4125,0.1351,976.81,-438.42,828.31
14000,-3.8689,-0.3491,0.1792,-788.82,1311.65,250.24
14010,-3.8687,-0.2850,0.2567,-679.44,-1047.61,-1749.69
14020,-3.8683,-0.2007,0.3368,-476.32,874.39,-1749.51
14030,-3.8679,-0.1029,0.3767,-1679.44,-875.43,1766.24
14040,-3.8677,-0.0081,0.3656,-1163.82,234.13,625.73
14050,-3.8677,0.0988,0.3247,-1023.19,-1187.56,797.55
14060,-3.8678,0.2067,0.2837,648.68,1562.68,750.61
14070,-3.8679,0.2946,0.2589,-1538.82,312.87,141.17
14080,-3.8680,0.3665,0.2427,1711.18,1141.17,672.36
14090,-3.8682,0.4207,0.2196,-1085.69,-936.83,1891.05
14100,-3.8683,0.4512,0.1840,1851.81,110.17,1875.43
14110,-3.8685,0.4684,0.1428,1758.06,-452.27,-390.32
14120,-3.8687,0.4872,0.1094,-38.82,-1717.90,156.49
14130,-3.8689,0.5280,0.0997,-1632.57,-1999.08,1656.43
14140,-3.8690,0.6061,0.1010,-413.82,766.60,968.93
14150,-3.8691,0.7113,0.0872,1586.18,923.03,828.31
14160,-3.8694,0.8156,0.0573,-945.07,-842.41,-1109.25
14170,-3.8696,0.8992,0.0336,398.68,-670.29,-1484.31
14180,-3.8699,0.9824,0.0317,-898.19,298.58,1281.31
14190,-3.8701,1.0758,0.0365,1758.06,64.39,578.19
14200,-3.8704,1.1379,0.0428,1711.18,673.95,656.31
14210,-3.8706,1.1755,0.0603,1664.31,1486.57,390.69
14220,-3.8710,1.2280,0.0815,-1523.19,-278.99,-421.81
14230,-3.8712,1.2595,0.1112,1195.56,-1560.12,-281.13
14240,-3.8713,1.2748,0.1669,1226.81,-1763.18,1562.68
14250,-3.8715,1.2930,0.2356,-820.07,1361.82,1203.43
14260,-3.8716,1.3022,0.2876,1508.06,-1841.25,1531.68
14270,-3.8717,1.3038,0.3077,-1304.44,815.00,0.55
14280,-3.8721,1.2903,0.2955,-1101.32,-606.87,-671.33
14290,-3.8724,1.2716,0.2635,1164.31,1830.63,-15.08
14300,-3.8728,1.2548,0.2292,-1226.32,1736.82,-468.26
14310,-3.8732,1.2283,0.2023,617.43,1346.19,-15.20
14320,-3.8734,1.1807,0.1842,1226.81,1893.01,-1593.38
14330,-3.8737,1.1058,0.1737,-866.94,-419.62,-546.57
14340,-3.8738,1.0089,0.1661,1554.93,-1763.49,-577.82
14350,-3.8738,0.9078,0.1599,1148.68,1267.58,1469.06
14360,-3.8738,0.8263,0.1561,211.18,470.52,844.06
14370,-3.8738,0.7800,0.1497,1773.68,-14.04,672.12
14380,-3.8739,0.7664,0.1320,-148.19,-842.29,-702.88
14390,-3.8740,0.7715,0.0997,-1898.19,892.09,-296.63
14400,-3.8741,0.7665,0.0582,-1241.94,767.09,-1390.44
14410,-3.8743,0.7233,0.0199,-1882.57,-545.41,1234.44
14420,-3.8744,0.6490,-0.0062,586.18,-1451.72,531.25
14430,-3.8745,0.5632,-0.0222,-913.82,-795.65,1281.19
14440,-3.8746,0.4768,-0.0286,101.81,1157.35,-531.31
14450,-3.8746,0.3961,-0.0233,1039.31,344.67,-1421.94
14460,-3.8746,0.3201,-0.0101,-1288.82,1016.36,-1687.56
14470,-3.8746,0.2448,-0.0024,976.81,-1296.26,-984.44
14480,-3.8745,0.1571,-0.0116,-663.82,-312.07,531.19
14490,-3.8745,0.0665,-0.0325,117.43,-1484.07,1796.81
14500,-3.8745,-0.0027,-0.0573,523.68,-156.13,-1500.12
14510,-3.8745,-0.0441,-0.0763,-335.69,687.44,-593.87
14520,-3.8744,-0.0623,-0.0714,-1632.57,-1750.12,1468.57
14530,-3.8743,-0.0693,-0.0309,39.31,-1125.12,-1234.56
14540,-3.8739,-0.0906,0.0447,-866.94,62.32,-1281.31
14550,-3.8733,-0.1466,0.1414,414.31,1734.19,1859.44
14560,-3.8726,-0.2358,0.2384,1242.43,-1890.93,1437.74
14570,-3.8718,-0.3394,0.3258,1820.56,-1469.24,-1077.70
14580,-3.8711,-0.4347,0.3794,570.56,1718.08,-952.51
14590,-3.8705,-0.4938,0.3586,367.43,577.27,281.98
14600,-3.8704,-0.5159,0.2656,804.93,1920.90,-108.70
14610,-3.8702,-0.5070,0.1490,1976.81,-1985.41,953.61
14620,-3.8704,-0.4736,0.0601,-882.57,-907.29,-77.88
14630,-3.8702,-0.4535,0.0403,-616.94,-297.85,281.31
14640,-3.8701,-0.4427,0.1102,1961.18,1170.96,1250.06
14650,-3.8698,-0.3887,0.2465,-663.82,-1875.92,-1874.82
14660,-3.8691,-0.3040,0.3788,-1741.94,-438.29,-1530.82
14670,-3.8685,-0.2412,0.4457,1101.81,499.39,-639.89
14680,-3.8680,-0.1855,0.4187,1133.06,1062.01,625.85
14690,-3.8680,-0.1300,0.3181,258.06,1609.01,-546.08
14700,-3.8682,-0.0746,0.2092,-632.57,734.07,-1999.39
14710,-3.8684,0.0151,0.1410,-1538.82,-1203.31,484.74
14720,-3.8687,0.1221,0.1292,1945.56,-1953.12,62.74
14730,-3.8688,0.2075,0.1715,-366.94,531.43,531.49
14740,-3.8688,0.2715,0.2505,-1429.44,1953.49,-593.44
14750,-3.8685,0.3250,0.3286,-1241.94,62.99,-749.51
14760,-3.8683,0.3754,0.3674,1601.81,-1936.89,-593.14
14770,-3.8682,0.4283,0.3551,54.93,-968.02,-1327.45
14780,-3.8683,0.4813,0.3077,-1163.82,1453.92,-702.45
14790,-3.8685,0.5331,0.2413,1617.43,-608.46,-1108.83
14800,-3.8688,0.5796,0.1680,242.43,-1108.34,359.80
14810,-3.8691,0.6085,0.1088,-1804.44,1501.10,-1655.94
14820,-3.8694,0.6221,0.0729,1898.68,1923.03,1922.06
14830,-3.8696,0.6248,0.0532,-366.94,1329.28,-859.25
14840,-3.8698,0.6415,0.0533,-23.19,-1186.34,-1937.44
14850,-3.8699,0.6901,0.0688,-1882.57,-1170.65,-1515.56
14860,-3.8699,0.7563,0.0936,336.18,813.84,750.12
14870,-3.8699,0.8309,0.1161,820.56,-14.16,515.75
14880,-3.8699,0.9109,0.1252,-1632.57,-1139.04,640.81
14890,-3.8700,0.9766,0.1268,601.81,33.02,-452.88
14900,-3.8701,1.0271,0.1248,1008.06,236.27,-640.38
14910,-3.8704,1.0603,0.1157,-523.19,-29.30,-781.07
14920,-3.8706,1.0623,0.1049,-273.19,-1185.49,343.93
14930,-3.8710,1.0529,0.1069,-23.19,1423.89,1375.18
14940,-3.8713,1.0461,0.1226,-1226.32,1689.51,-312.32
14950,-3.8716,1.0441,0.1425,1914.31,-310.49,-656.07
14960,-3.8718,1.0482,0.1609,1648.68,-1763.61,-93.51
14970,-3.8719,1.0510,0.1765,-1820.07,595.76,1094.06
14980,-3.8722,1.0458,0.1879,-1460.69,-1404.24,-874.69
14990,-3.8723,1.0305,0.1929,1867.43,48.89,1500.37
15000,-3.8726,1.0071,0.1849,-85.69,689.45,-827.76
15010,-3.8728,0.9801,0.1633,914.31,-326.17,-421.57
15020,-3.8730,0.9525,0.1389,1461.18,908.14,-1374.69
15030,-3.8733,0.9194,0.1169,1929.93,1783.08,1140.87
15040,-3.8735,0.8691,0.0999,1695.56,-1029.48,687.68
15050,-3.8738,0.8064,0.0901,-741.94,782.90,1765.81
15060,-3.8739,0.7334,0.0796,-773.19,-467.22,140.75
15070,-3.8741,0.6541,0.0605,1883.06,-1811.10,-843.63
15080,-3.8743,0.5769,0.0348,-273.19,-248.78,1953.19
15090,-3.8744,0.5132,0.0151,1851.81,454.22,718.81
15100,-3.8746,0.4691,0.0031,1695.56,1938.48,-218.75
15110,-3.8748,0.4297,-0.0135,54.93,391.54,-468.75
15120,-3.8748,0.3838,-0.0299,-991.94,-1733.58,265.56
15130,-3.8749,0.3394,-0.0420,1133.06,172.61,1390.56
15140,-3.8750,0.2961,-0.0514,-554.44,-1374.39,-922.00
15150,-3.8750,0.2524,-0.0564,1914.31,1422.42,1828.00
15160,-3.8750,0.2089,-0.0598,320.56,781.74,-1937.62
15170,-3.8749,0.1509,-0.0651,-1257.57,344.12,265.50
15180,-3.8748,0.0686,-0.0698,-679.44,-327.88,749.82
15190,-3.8746,-0.0322,-0.0634,789.31,-937.38,-328.31
15200,-3.8743,-0.1294,-0.0400,-116.94,-93.87,1749.82
15210,-3.8739,-0.2094,-0.0035,-554.44,-1109.68,-78.25
15220,-3.8733,-0.2844,0.0471,1211.18,-437.93,1984.31
15230,-3.8727,-0.3646,0.1116,-398.19,-1953.74,-1640.56
15240,-3.8721,-0.4141,0.1827,1336.18,-1703.86,-577.94
15250,-3.8715,-0.4338,0.2382,-991.94,-594.60,-124.69
15260,-3.8708,-0.4578,0.2577,476.81,-1500.85,1875.43
15270,-3.8705,-0.4713,0.2493,1414.31,999.08,-233.89
15280,-3.8701,-0.4683,0.2274,-320.07,-79.10,1187.93
15290,-3.8700,-0.4756,0.2031,70.56,1124.08,-952.70
15300,-3.8699,-0.4888,0.1827,-866.94,-1985.35,-1077.76
15310,-3.8698,-0.4801,0.1711,1445.56,-594.73,-1984.07
15320,-3.8696,-0.4625,0.1729,-1445.07,1920.90,750.31
15330,-3.8696,-0.4231,0.1907,804.93,-1860.29,-780.94
15340,-3.8695,-0.3524,0.2344,1851.81,421.02,-1734.01
15350,-3.8694,-0.2629,0.3016,-1101.32,-1985.11,-624.57
15360,-3.8691,-0.1422,0.3699,-1648.19,-1375.55,-1280.70
15370,-3.8689,-0.0143,0.4280,1804.93,-640.93,-1030.58
15380,-3.8687,0.1191,0.4520,-1820.07,-1203.19,1360.17
15390,-3.8687,0.2614,0.4094,-741.94,1859.56,-186.65
15400,-3.8687,0.3567,0.3116,1461.18,406.74,1297.67
15410,-3.8689,0.3953,0.2031,1664.31,-108.70,1469.30
15420,-3.8691,0.4105,0.1260,-1398.19,-1999.27,609.74
15430,-3.8693,0.4117,0.1045,554.93,125.79,297.12
15440,-3.8693,0.3966,0.1296,711.18,1375.79,-1156.07
15450,-3.8690,0.3712,0.1689,-1226.32,594.48,-1281.01
15460,-3.8687,0.3544,0.1970,-476.32,1625.67,187.81
15470,-3.8685,0.3656,0.2045,1367.43,1219.42,-62.13
15480,-3.8683,0.4028,0.1929,-1195.07,-1827.45,406.62
15490,-3.8683,0.4398,0.1622,-429.44,688.23,1172.24
15500,-3.8684,0.4612,0.1200,304.93,766.48,-1577.82
15510,-3.8685,0.4803,0.0728,-960.69,-639.77,1078.31
15520,-3.8688,0.5098,0.0306,1492.43,1313.42,-1312.38
15530,-3.8690,0.5560,0.0089,1258.06,-77.15,-46.88
15540,-3.8691,0.6161,0.0083,-820.07,1141.66,937.50
15550,-3.8694,0.6748,0.0244,-1132.57,1063.66,-1296.88
15560,-3.8695,0.7261,0.0594,-1616.94,-873.72,1796.88
15570,-3.8696,0.7651,0.1135,945.56,-389.22,-1874.94
15580,-3.8698,0.8097,0.1764,1945.56,-1467.29,-484.19
15590,-3.8698,0.8744,0.2343,-351.32,-1420.35,1297.18
15600,-3.8699,0.9326,0.2712,-70.07,1986.02,-1733.95
15610,-3.8700,0.9846,0.2733,-616.94,-1279.48,281.74
15620,-3.8704,1.0438,0.2499,-1960.69,-1013.73,-1843.26
15630,-3.8707,1.0763,0.2288,1617.43,-13.61,1094.18
15640,-3.8712,1.0848,0.2156,1773.68,1283.33,-1030.82
15650,-3.8716,1.0754,0.2028,-1132.57,-404.17,-1796.51
15660,-3.8719,1.0432,0.1951,1664.31,1955.20,-15.26
15670,-3.8722,1.0146,0.2061,1539.31,970.76,-484.01
15680,-3.8723,1.0028,0.2406,1883.06,-1623.05,62.87
15690,-3.8726,1.0078,0.2834,367.43,-1201.17,-1999.57
15700,-3.8727,1.0171,0.3075,1008.06,283.20,672.42
15710,-3.8729,1.0205,0.2990,-1804.44,-638.67,1766.17
15720,-3.8732,1.0081,0.2601,-1366.94,-1732.42,16.17
15730,-3.8735,0.9788,0.1995,1039.31,1298.83,78.61
15740,-3.8739,0.9442,0.1398,1289.31,1533.14,172.24
15750,-3.8743,0.8951,0.0997,867.43,1892.46,-1171.63
15760,-3.8744,0.8306,0.0890,-1413.82,767.33,1172.06
15770,-3.8745,0.7543,0.1003,-1679.44,-607.79,-1359.25
15780,-3.8745,0.6643,0.1141,554.93,845.21,1687.68
15790,-3.8745,0.5787,0.1165,1039.31,-1389.34,1203.31
15800,-3.8745,0.5081,0.1011,-1913.82,-1092.65,1093.93
15810,-3.8745,0.4438,0.0726,1039.31,938.48,1078.31
15820,-3.8745,0.3796,0.0372,820.56,1297.73,422.00
15830,-3.8746,0.3201,0.0043,601.81,766.36,-1203.06
15840,-3.8746,0.2697,-0.0186,976.81,547.49,937.50
15850,-3.8746,0.2192,-0.0317,-1476.32,1625.49,281.19
15860,-3.8746,0.1545,-0.0394,70.56,-62.07,1453.00
15870,-3.8745,0.0796,-0.0410,-210.69,-1046.63,937.38
15880,-3.8744,0.0009,-0.0361,-1804.44,-1249.88,-984.50
15890,-3.8741,-0.0732,-0.0229,117.43,-625.00,-1172.00
15900,-3.8738,-0.1313,0.0114,-1366.94,1077.94,281.19
15910,-3.8734,-0.1746,0.0762,-804.44,1468.44,1281.25
15920,-3.8729,-0.2100,0.1512,1664.31,1765.26,1140.75
15930,-3.8726,-0.2269,0.2052,1133.06,-625.43,-374.76
15940,-3.8721,-0.2125,0.2324,-1038.82,-1719.24,172.24
15950,-3.8717,-0.1796,0.2340,804.93,1765.20,937.93
15960,-3.8713,-0.1769,0.2106,1023.68,1968.38,1047.30
15970,-3.8711,-0.2147,0.1688,1367.43,-1031.62,1250.37
15980,-3.8710,-0.2573,0.1196,523.68,1624.57,594.06
15990,-3.8710,-0.2938,0.0726,-929.44,-672.42,1234.56
16000,-3.8710,-0.3464,0.0419,-1601.32,1311.89,1718.87
16010,-3.8708,-0.4250,0.0460,-335.69,1374.27,890.69
16020,-3.8706,-0.5096,0.0942,1601.81,1905.40,-1578.06
16030,-3.8701,-0.5935,0.1821,-1226.32,77.09,-921.69
16040,-3.8695,-0.6581,0.2887,39.31,-673.03,-562.19
16050,-3.8689,-0.6733,0.3781,-226.32,967.41,-1858.83
16060,-3.8685,-0.6241,0.4088,1820.56,404.91,-1999.27
16070,-3.8684,-0.5256,0.3502,117.43,342.53,375.79
16080,-3.8687,-0.4003,0.2489,726.81,842.71,-780.58
16090,-3.8689,-0.2574,0.1844,773.68,-125.79,-515.20
16100,-3.8690,-0.1318,0.1669,-945.07,-375.55,1015.93
16110,-3.8691,-0.0520,0.1782,-866.94,1374.69,1953.43
16120,-3.8691,-0.0093,0.2042,1351.81,-1172.00,-1124.69
16130,-3.8690,0.0051,0.2321,-1179.44,-1843.81,-859.01
16140,-3.8688,0.0122,0.2526,664.31,1703.12,1250.43
16150,-3.8687,0.0397,0.2589,1570.56,328.12,-405.76
16160,-3.8684,0.0950,0.2467,1086.18,1140.69,812.99
16170,-3.8684,0.1759,0.2178,164.31,-421.69,-327.70
16180,-3.8684,0.2687,0.1832,-1476.32,-124.69,-93.38
16190,-3.8684,0.3708,0.1606,-1601.32,-546.39,-1499.69
16200,-3.8684,0.4856,0.1632,-523.19,563.17,890.93
16210,-3.8684,0.6047,0.1869,-1835.69,891.54,94.06
16220,-3.8684,0.7231,0.2186,1414.31,-76.97,328.43
16230,-3.8684,0.8422,0.2491,570.56,-14.22,172.24
16240,-3.8685,0.9517,0.2736,-195.07,-107.79,1906.68
16250,-3.8687,1.0466,0.2886,1820.56,-982.54,797.36
16260,-3.8689,1.1351,0.2916,1976.81,939.51,1125.55
16270,-3.8693,1.1962,0.2886,1304.93,1330.32,-515.08
16280,-3.8696,1.2122,0.2875,1117.43,939.82,-77.58
16290,-3.8700,1.2205,0.2830,-835.69,799.19,-765.08
16300,-3.8704,1.2179,0.2672,226.81,221.13,-1233.83
16310,-3.8707,1.1827,0.2496,-101.32,-1794.56,-1093.26
16320,-3.8711,1.1552,0.2413,-601.32,-44.62,-265.20
16330,-3.8713,1.1339,0.2450,-132.57,-1107.18,844.18
16340,-3.8717,1.1138,0.2516,1148.68,-638.43,1406.68
16350,-3.8721,1.0944,0.2509,-1429.44,205.26,1781.74
16360,-3.8724,1.0648,0.2422,86.18,111.51,-1265.14
16370,-3.8727,1.0349,0.2269,304.93,-997.92,984.80
16380,-3.8729,0.9982,0.2079,476.81,1048.89,703.55
16390,-3.8732,0.9580,0.1870,-226.32,-1388.73,1578.49
16400,-3.8734,0.9058,0.1664,-1366.94,-60.67,-218.44
16410,-3.8735,0.8434,0.1471,-54.44,1298.58,-1062.19
16420,-3.8737,0.7797,0.1293,-38.82,-1170.29,-1656.01
16430,-3.8738,0.7241,0.1171,-195.07,548.34,1953.37
16440,-3.8739,0.6794,0.1154,695.56,-1014.22,-1890.44
16450,-3.8740,0.6375,0.1222,-1023.19,-1233.09,-671.69
16460,-3.8740,0.5897,0.1241,1601.81,-358.15,1468.93
16470,-3.8741,0.5371,0.1111,-507.57,-108.28,-749.82
16480,-3.8741,0.4883,0.0905,758.06,-1780.21,0.18
16490,-3.8744,0.4436,0.0703,-1491.94,-420.96,-203.00
16500,-3.8745,0.4086,0.0453,789.31,1000.85,-1093.63
16510,-3.8746,0.3788,0.0118,304.93,1797.67,-1781.19
16520,-3.8748,0.3485,-0.0199,492.43,1516.36,-1218.75
16530,-3.8748,0.3036,-0.0376,617.43,1453.80,1124.94
16540,-3.8748,0.2391,-0.0378,-1132.57,-811.95,1531.13
16550,-3.8746,0.1578,-0.0287,-1382.57,-843.32,140.50
16560,-3.8745,0.0653,-0.0137,211.18,328.43,1171.81
16570,-3.8743,-0.0342,0.0112,367.43,-1749.88,1421.81
16580,-3.8739,-0.1422,0.0391,-366.94,1453.00,1046.88
16590,-3.8735,-0.2493,0.0554,1804.93,1015.32,-781.19
16600,-3.8730,-0.3456,0.0542,101.81,-891.11,-1484.31
16610,-3.8726,-0.4325,0.0448,-226.32,-1047.61,1281.31
16620,-3.8722,-0.4913,0.0458,648.68,1749.15,-1124.94
16630,-3.8718,-0.5292,0.0638,1117.43,1874.02,-578.06
16640,-3.8715,-0.5482,0.0984,273.68,186.46,-1265.50
16650,-3.8711,-0.5178,0.1459,1836.18,608.28,1562.68
16660,-3.8707,-0.4780,0.1991,1726.81,-1313.54,625.24
16670,-3.8705,-0.4644,0.2338,-1179.44,1499.02,-46.51
16680,-3.8700,-0.4315,0.2400,570.56,1936.58,578.55
16690,-3.8696,-0.3976,0.2300,773.68,-1266.48,1609.80
16700,-3.8694,-0.4014,0.2079,1117.43,1452.33,-312.07
16710,-3.8691,-0.4099,0.1771,633.06,-1375.79,1531.62
16720,-3.8690,-0.4116,0.1472,-460.69,-1313.35,625.31
16730,-3.8690,-0.3899,0.1368,-679.44,-1141.48,-1109.13
16740,-3.8689,-0.3346,0.1492,-1898.19,1530.46,1578.37
16750,-3.8688,-0.2435,0.1770,1179.93,-891.30,718.99
16760,-3.8687,-0.1267,0.2202,836.18,-1328.61,125.31
16770,-3.8687,-0.0015,0.2799,-210.69,202.82,-374.57
16780,-3.8685,0.1232,0.3317,-179.44,-156.31,-1312.01
16790,-3.8684,0.2322,0.3521,-226.32,-1546.69,1688.11
16800,-3.8684,0.3226,0.3334,1726.81,1062.93,-93.08
16810,-3.8684,0.3827,0.2772,1304.93,-1327.51,-686.89
16820,-3.8685,0.4121,0.2080,992.43,-514.89,-1405.76
16830,-3.8688,0.4353,0.1534,758.06,-1374.21,-1484.01
16840,-3.8690,0.4709,0.1298,-273.19,-358.58,-1281.01
16850,-3.8691,0.5206,0.1348,289.31,610.29,-1765.38
16860,-3.8691,0.5774,0.1572,-1351.32,1250.98,937.74
16870,-3.8691,0.6379,0.1847,1914.31,126.10,1094.06
16880,-3.8691,0.7118,0.2107,1664.31,-358.15,1281.56
16890,-3.8691,0.8029,0.2294,-882.57,-1029.91,547.24
16900,-3.8693,0.8955,0.2390,-1226.32,1360.90,-1421.45
16910,-3.8694,0.9880,0.2345,-1366.94,-1404.54,-1124.57
16920,-3.8695,1.0546,0.2104,-1523.19,-1982.48,156.68
16930,-3.8699,1.0684,0.1794,-1007.57,-1060.49,-1452.76
16940,-3.8701,1.0771,0.1526,758.06,-1029.17,172.18
16950,-3.8705,1.0857,0.1309,1883.06,-466.67,-1796.63
16960,-3.8707,1.0869,0.1154,-1023.19,752.08,468.99
16970,-3.8711,1.1028,0.1122,-866.94,-1232.30,-374.82
16980,-3.8712,1.1147,0.1370,1164.31,-1638.49,515.81
16990,-3.8715,1.1184,0.1848,-1304.44,1533.39,-1827.88
17000,-3.8717,1.1106,0.2241,-835.69,-341.61,-515.32
17010,-3.8718,1.0968,0.2352,-1835.69,689.64,812.93
17020,-3.8721,1.0759,0.2195,398.68,-1888.49,-1827.70
17030,-3.8723,1.0398,0.1934,1726.81,95.83,-905.82
17040,-3.8724,0.9960,0.1737,1101.81,752.01,47.24
17050,-3.8727,0.9510,0.1615,-507.57,-1763.73,1812.81
17060,-3.8728,0.9081,0.1523,1742.43,673.71,328.43
17070,-3.8730,0.8645,0.1467,242.43,-498.23,-843.51
17080,-3.8732,0.8252,0.1440,-1335.69,-1217.10,1968.99
17090,-3.8733,0.7870,0.1406,1633.06,-1560.91,750.24
17100,-3.8735,0.7458,0.1313,742.43,-1998.47,-827.88
17110,-3.8737,0.7020,0.1146,-523.19,813.90,953.37
17120,-3.8739,0.6643,0.0953,1867.43,-1326.78,-1906.07
17130,-3.8741,0.6260,0.0779,1039.31,204.41,-999.82
17140,-3.8743,0.5729,0.0579,133.06,1969.97,234.50
17150,-3.8745,0.5076,0.0369,1336.18,-592.65,1984.44
17160,-3.8746,0.4419,0.0229,976.81,719.73,140.69
17170,-3.8749,0.3815,0.0131,570.56,-1061.65,-656.25
17180,-3.8749,0.3199,0.0007,836.18,1672.61,437.50
17190,-3.8750,0.2439,-0.0135,961.18,94.36,-656.25
17200,-3.8750,0.1454,-0.0306,-773.19,-1733.95,-250.06
17210,-3.8749,0.0367,-0.0570,-1382.57,78.37,1203.06
17220,-3.8748,-0.0706,-0.0867,711.18,703.19,124.88
17230,-3.8746,-0.1733,-0.1064,-1023.19,921.69,1406.07
17240,-3.8744,-0.2666,-0.1110,1820.56,-1609.74,1171.63
17250,-3.8741,-0.3442,-0.0985,1883.06,1811.95,-968.99
17260,-3.8738,-0.4078,-0.0636,-54.44,-594.48,-781.49
17270,-3.8733,-0.4619,0.0043,-195.07,-125.85,-1172.06
17280,-3.8727,-0.4980,0.1088,883.06,561.58,-1828.12
17290,-3.8719,-0.5421,0.2312,258.06,1936.52,625.18
17300,-3.8712,-0.6050,0.3348,-1382.57,1608.28,156.68
17310,-3.8706,-0.6487,0.3939,-1429.44,-1126.22,-1140.01
17320,-3.8700,-0.6920,0.4045,976.81,-1563.78,-389.89
17330,-3.8694,-0.7144,0.3793,-570.07,-204.53,781.98
17340,-3.8690,-0.6860,0.3336,570.56,561.10,266.36
17350,-3.8689,-0.6323,0.2804,195.56,-1282.59,281.86
17360,-3.8690,-0.5396,0.2351,-929.44,-95.03,1937.99
17370,-3.8691,-0.4307,0.2104,-1054.44,-1891.72,1531.68
17380,-3.8693,-0.3334,0.2162,883.06,-1047.73,-1499.63
17390,-3.8693,-0.2489,0.2567,1336.18,-313.17,-1468.38
17400,-3.8691,-0.1786,0.3252,148.68,874.51,-1358.89
17410,-3.8689,-0.1053,0.3947,1148.68,1640.26,-1655.64
17420,-3.8687,-0.0315,0.4271,-1476.32,-1468.99,-1327.39
17430,-3.8685,0.0425,0.4053,-23.19,-1312.62,-483.58
17440,-3.8685,0.1057,0.3417,1445.56,-124.94,-1264.89
17450,-3.8687,0.1451,0.2644,1539.31,-265.44,1234.99
17460,-3.8689,0.1796,0.1991,-1413.82,1843.99,1875.49
17470,-3.8691,0.2170,0.1587,-1007.57,1484.68,-187.13
17480,-3.8691,0.2510,0.1405,-210.69,312.87,156.56
17490,-3.8693,0.2892,0.1337,133.06,1984.86,-1437.26
17500,-3.8693,0.3325,0.1388,1023.68,1109.92,-515.38
17510,-3.8691,0.3757,0.1580,-1429.44,1766.24,-1187.26
17520,-3.8690,0.4208,0.1809,101.81,219.48,-921.57
17530,-3.8689,0.4750,0.1965,1867.43,-842.96,-1327.82
17540,-3.8688,0.5465,0.2025,804.93,1157.17,281.62
17550,-3.8689,0.6361,0.1973,1961.18,1922.91,-843.38
17560,-3.8690,0.7371,0.1804,1429.93,1251.22,-1046.51
17570,-3.8693,0.8328,0.1616,-1648.19,-904.85,-296.57
17580,-3.8695,0.9004,0.1526,-1398.19,689.09,-1499.69
17590,-3.8698,0.9576,0.1567,-741.94,-467.04,1015.87
17600,-3.8700,1.0242,0.1736,-1413.82,64.33,906.56
17610,-3.8702,1.0682,0.2048,-898.19,-1779.30,-1609.07
17620,-3.8705,1.0922,0.2515,742.43,-1779.17,-187.13
17630,-3.8706,1.1418,0.2963,-195.07,189.58,422.36
17640,-3.8708,1.1936,0.3099,-1835.69,1924.07,375.55
17650,-3.8712,1.2319,0.2964,789.31,-325.81,-436.95
17660,-3.8715,1.2596,0.2755,1695.56,1939.88,1688.05
17670,-3.8718,1.2600,0.2522,1242.43,-731.93,-1780.76
17680,-3.8722,1.2271,0.2256,1289.31,283.69,1672.36
17690,-3.8726,1.1610,0.2009,1070.56,877.38,-1405.82
17700,-3.8728,1.0829,0.1875,617.43,1721.01,-874.63
17710,-3.8729,1.0010,0.1833,-1382.57,2.08,-905.88
17720,-3.8729,0.9406,0.1886,133.06,-529.30,484.68
17730,-3.8730,0.9066,0.2014,398.68,142.46,-1921.51
17740,-3.8732,0.8853,0.2136,54.93,1783.02,-374.63
17750,-3.8732,0.8665,0.2213,1320.56,-654.54,781.62
17760,-3.8733,0.8453,0.2301,-1085.69,329.77,-1937.07
17770,-3.8733,0.8145,0.2362,211.18,1454.77,31.68
17780,-3.8734,0.7655,0.2262,258.06,-1764.04,-1952.70
17790,-3.8735,0.7009,0.2007,1992.43,954.59,-952.70
17800,-3.8737,0.6294,0.1726,1726.81,1688.84,-1249.63
17810,-3.8738,0.5616,0.1516,570.56,-1905.03,1750.31
17820,-3.8739,0.5038,0.1378,-101.32,-592.71,1422.12
17830,-3.8740,0.4504,0.1248,492.43,1641.60,-1406.01
17840,-3.8740,0.3889,0.1058,1664.31,-30.40,687.68
17850,-3.8741,0.3154,0.0811,1789.31,1547.61,-1734.19
17860,-3.8743,0.2393,0.0519,383.06,-1624.39,-1499.88
17870,-3.8744,0.1749,0.0208,-1366.94,-1358.95,-1937.44
17880,-3.8745,0.1139,-0.0063,-1601.32,-1343.44,-1718.75
17890,-3.8745,0.0480,-0.0249,-1413.82,-812.32,578.06
17900,-3.8745,-0.0282,-0.0341,-1851.32,812.56,1593.69
17910,-3.8744,-0.1194,-0.0408,398.68,-343.81,828.00
17920,-3.8743,-0.2117,-0.0547,726.81,-1203.37,1468.63
17930,-3.8741,-0.2886,-0.0715,914.31,1015.20,-1047.00
17940,-3.8739,-0.3445,-0.0706,-929.44,-1141.24,1468.57
17950,-3.8737,-0.3734,-0.0212,-85.69,-1016.36,-1687.68
17960,-3.8733,-0.3730,0.0903,211.18,1296.14,-1015.69
17970,-3.8728,-0.3729,0.2400,258.06,-422.61,-562.38
17980,-3.8722,-0.4083,0.3741,273.68,-1266.36,-1655.82
17990,-3.8716,-0.4697,0.4414,-257.57,-94.60,-1577.45
18000,-3.8710,-0.5469,0.4327,-116.94,514.65,1750.85
18010,-3.8705,-0.6398,0.3822,-1991.94,-594.85,1063.29
18020,-3.8702,-0.6945,0.3353,-1882.57,936.22,-1014.89
18030,-3.8700,-0.6967,0.3196,-882.57,-1063.90,-1718.14
18040,-3.8698,-0.6678,0.3345,-1163.82,920.47,1766.24
18050,-3.8695,-0.6219,0.3654,-1476.32,-1173.22,-1811.89
18060,-3.8693,-0.5677,0.4100,398.68,-1219.97,-202.45
18070,-3.8689,-0.4958,0.4764,-663.82,498.84,-655.46
18080,-3.8684,-0.4062,0.5526,539.31,999.02,704.04
18090,-3.8680,-0.3051,0.6018,8.06,-1250.79,1063.54
18100,-3.8678,-0.1967,0.5962,961.18,1046.26,673.03
18110,-3.8678,-0.0844,0.5413,-1163.82,327.70,1641.78
18120,-3.8679,0.0031,0.4656,1211.18,1296.69,1626.04
18130,-3.8680,0.0629,0.4076,398.68,-406.25,125.85
18140,-3.8683,0.1104,0.3881,54.93,172.00,-186.71
18150,-3.8683,0.1584,0.3931,-1866.94,1672.06,-1811.77
18160,-3.8683,0.2101,0.3969,289.31,-1687.19,-952.39
18170,-3.8682,0.2617,0.3970,-1101.32,-1202.76,328.86
18180,-3.8682,0.3243,0.3947,1508.06,-1187.01,156.98
18190,-3.8683,0.4062,0.3790,1523.68,-1483.76,-1780.52
18200,-3.8684,0.5035,0.3536,8.06,516.42,-952.39
18210,-3.8685,0.6144,0.3372,461.18,1266.60,-843.08
18220,-3.8687,0.7380,0.3374,-1351.32,-842.59,-905.64
18230,-3.8688,0.8627,0.3403,-1523.19,-811.10,-1015.01
18240,-3.8689,0.9584,0.3320,-1570.07,-435.85,-1468.14
18250,-3.8690,1.0315,0.3215,-1320.07,-1498.17,1125.61
18260,-3.8693,1.0951,0.3182,39.31,1158.26,-905.64
18270,-3.8694,1.1213,0.3243,179.93,736.51,828.74
18280,-3.8696,1.1162,0.3400,-460.69,1517.76,-1999.39
18290,-3.8699,1.1273,0.3567,-1116.94,-482.24,-1593.14
18300,-3.8701,1.1439,0.3668,304.93,1658.45,-1639.95
18310,-3.8704,1.1461,0.3727,-1570.07,-1044.68,844.42
18320,-3.8707,1.1602,0.3762,-1288.82,-294.68,1047.55
18330,-3.8712,1.1669,0.3734,508.06,158.51,-77.39
18340,-3.8716,1.1578,0.3617,1367.43,-200.87,1813.17
18350,-3.8721,1.1324,0.3441,211.18,-1700.87,-311.83
18360,-3.8724,1.1005,0.3309,961.18,49.07,-952.45
18370,-3.8727,1.0718,0.3285,867.43,-1638.49,1063.11
18380,-3.8729,1.0443,0.3342,1195.56,-1951.05,1844.36
18390,-3.8730,1.0148,0.3439,1679.93,-1216.74,375.61
18400,-3.8733,0.9764,0.3560,1898.68,17.58,-311.83
18410,-3.8734,0.9290,0.3639,992.43,1564.39,-593.08
18420,-3.8735,0.8702,0.3608,-1085.69,-1420.10,-796.20
18430,-3.8737,0.8029,0.3401,-601.32,-1810.85,-1546.20
18440,-3.8738,0.7269,0.2981,-1226.32,-467.22,406.86
18450,-3.8740,0.6465,0.2404,1054.93,-1842.35,750.55
18460,-3.8743,0.5686,0.1764,-1241.94,-1233.15,78.55
18470,-3.8746,0.5022,0.1167,789.31,-1420.78,-609.07
18480,-3.8749,0.4438,0.0709,289.31,-1061.52,-171.69
18490,-3.8750,0.3865,0.0426,820.56,1078.98,-1937.38
18500,-3.8439,0.3218,0.0227,1476.81,1453.86,1875.06
18510,-3.8440,0.2528,0.0020,1195.56,-1093.14,-1078.12
18520,-3.8440,0.1777,-0.0167,367.43,250.49,1250.00
18530,-3.8440,0.0981,-0.0293,-1241.94,1859.68,953.06
18540,-3.8440,0.0172,-0.0425,570.56,250.18,1578.06
18550,-3.8440,-0.0648,-0.0635,-1788.82,-1437.50,-1140.75
18560,-3.8439,-0.1416,-0.0859,-288.82,-109.56,1015.44
18570,-3.8750,-0.2122,-0.0988,1883.06,1015.32,765.44
18580,-3.8749,-0.2782,-0.1002,851.81,-625.43,-1515.87
18590,-3.8746,-0.3396,-0.0890,398.68,-813.05,1781.01
18600,-3.8744,-0.3910,-0.0555,539.31,624.33,-1640.81
18610,-3.8740,-0.4224,0.0228,1961.18,905.46,1374.88
18620,-3.8735,-0.4277,0.1600,1945.56,-1063.35,921.88
18630,-3.8729,-0.4415,0.3284,1258.06,499.15,625.31
18640,-3.8723,-0.4811,0.4723,-507.57,-1954.04,-1952.51
18650,-3.8717,-0.5172,0.5333,-1570.07,467.77,-327.21
18660,-3.8710,-0.5637,0.5054,1804.93,280.21,376.04
18670,-3.8705,-0.6104,0.4579,-148.19,701.97,-483.40
18680,-3.8699,-0.6300,0.4430,1883.06,-1376.22,297.73
18690,-3.8695,-0.6508,0.4618,-632.57,717.47,-1327.27
18700,-3.8691,-0.6553,0.4889,711.18,-876.28,-624.15
18710,-3.8688,-0.6292,0.5011,133.06,-1407.53,-1952.21
18720,-3.8685,-0.5703,0.5054,-523.19,154.97,1750.98
18730,-3.8684,-0.4723,0.5115,-991.94,701.97,-1045.90
18740,-3.8683,-0.3500,0.5193,-445.07,1483.40,-764.65
18750,-3.8682,-0.2235,0.5249,-788.82,-1516.36,-858.40
18760,-3.8680,-0.1150,0.5217,-601.32,-797.36,-1811.52
18770,-3.8680,-0.0242,0.5015,1289.31,-1203.37,-233.40
18780,-3.8679,0.0487,0.4669,914.31,203.06,125.98
18790,-3.8680,0.1094,0.4272,-1757.57,-234.31,-249.15
18800,-3.8680,0.1564,0.3926,-1991.94,-1312.32,-858.58
18810,-3.8680,0.1915,0.3757,23.68,-1749.69,-1264.89
18820,-3.8680,0.2253,0.3735,523.68,94.12,-796.14
18830,-3.8679,0.2576,0.3760,851.81,-187.07,938.17
18840,-3.8679,0.2997,0.3740,976.81,125.49,-1327.39
18850,-3.8679,0.3732,0.3657,-1632.57,-124.45,-999.33
18860,-3.8679,0.4823,0.3563,-226.32,-1186.83,1703.80
18870,-3.8680,0.6173,0.3549,1742.43,1610.29,-858.70
18880,-3.8682,0.7639,0.3651,-976.32,1423.03,-93.08
18890,-3.8683,0.9031,0.3812,1789.31,-1264.16,-249.33
18900,-3.8684,1.0111,0.4026,-398.19,798.58,-1874.27
18910,-3.8687,1.0988,0.4335,1429.93,-466.80,-718.02
18920,-3.8689,1.1947,0.4686,648.68,-513.49,-1217.96
18930,-3.8691,1.2683,0.4950,929.93,-13.31,766.48
18940,-3.8695,1.2874,0.5001,-1648.19,-638.18,1641.54
18950,-3.8699,1.3008,0.4707,789.31,18.13,1813.48
18960,-3.8702,1.3051,0.4132,-1491.94,252.50,-1624.08
18970,-3.8706,1.3013,0.3785,-945.07,893.13,-1061.71
18980,-3.8710,1.3228,0.3936,-1429.44,455.63,-1749.27
18990,-3.8715,1.3196,0.4126,1320.56,-1622.44,-577.39
19000,-3.8719,1.2900,0.4080,914.31,815.06,-436.71
19010,-3.8723,1.2448,0.3961,1133.06,221.25,1938.29
19020,-3.8727,1.1915,0.3906,-663.82,-1294.49,-249.27
19030,-3.8729,1.1439,0.3894,523.68,-1997.68,-186.77
19040,-3.8730,1.1105,0.3840,-1570.07,1845.95,953.86
19050,-3.8733,1.0876,0.3752,-1851.32,1158.39,-1093.02
19060,-3.8734,1.0603,0.3673,-773.19,33.33,1578.86
19070,-3.8735,1.0210,0.3571,-273.19,-982.36,516.30
19080,-3.8738,0.9672,0.3408,-1304.44,1705.08,-733.70
19090,-3.8739,0.9052,0.3182,-195.07,-373.17,1563.11
19100,-3.8741,0.8341,0.2888,-132.57,736.08,-608.76
19110,-3.8743,0.7542,0.2545,-1226.32,970.34,891.17
19120,-3.8745,0.6663,0.2172,539.31,579.59,-1780.76
19130,-3.8748,0.5756,0.1753,1289.31,-201.84,-484.01
19140,-3.8749,0.4895,0.1287,1679.93,-1561.40,781.56
19150,-3.8439,0.4122,0.0839,-1335.69,469.67,-1906.01
19160,-3.8441,0.3441,0.0459,773.68,-1264.83,-187.38
19170,-3.8442,0.2844,0.0098,54.93,1875.67,-1656.19
19180,-3.8444,0.2286,-0.0236,414.31,1250.55,-1828.12
19190,-3.8445,0.1823,-0.0394,1273.68,984.80,-171.94
19200,-3.8444,0.1364,-0.0350,-663.82,-1046.57,78.00
19210,-3.8444,0.0817,-0.0311,1461.18,-484.13,-1234.50
19220,-3.8442,0.0106,-0.0442,-1538.82,15.75,-1140.69
19230,-3.8441,-0.0764,-0.0645,1367.43,-1656.25,-203.25
19240,-3.8439,-0.1630,-0.0759,-1773.19,-234.56,1437.32
19250,-3.8750,-0.2369,-0.0736,-851.32,-1703.49,-297.06
19260,-3.8748,-0.2930,-0.0548,1679.93,-1406.74,-1859.56
19270,-3.8745,-0.3191,-0.0094,-1491.94,999.39,531.13
19280,-3.8743,-0.3024,0.0781,-835.69,-1188.17,484.31
19290,-3.8739,-0.2609,0.2098,1304.93,-1984.99,781.37
19300,-3.8734,-0.2365,0.3655,-1382.57,-1125.55,-234.01
19310,-3.8726,-0.2897,0.4838,1742.43,-1203.61,641.30
19320,-3.8718,-0.4144,0.5073,-1070.07,1936.89,-327.21
19330,-3.8710,-0.5295,0.4781,-1038.82,952.27,-749.02
19340,-3.8701,-0.6385,0.4525,226.81,1217.71,1329.04
19350,-3.8695,-0.7391,0.4341,-1726.32,1936.22,-1264.77
19360,-3.8690,-0.7993,0.4115,1398.68,-423.34,-1874.21
19370,-3.8688,-0.8112,0.3906,1695.56,685.91,-61.71
19380,-3.8685,-0.7800,0.3881,179.93,-1985.96,-796.14
19390,-3.8683,-0.7220,0.3951,164.31,1685.97,-1952.39
19400,-3.8680,-0.6387,0.4025,-413.82,-1407.71,516.36
19410,-3.8679,-0.5371,0.4143,-1741.94,-470.03,1735.11
19420,-3.8678,-0.4204,0.4297,-741.94,1045.78,828.92
19430,-3.8678,-0.2988,0.4410,-1804.44,-985.23,-1717.96
19440,-3.8678,-0.1877,0.4507,1758.06,468.14,-186.65
19450,-3.8677,-0.1007,0.4552,-23.19,1702.70,1797.73
19460,-3.8677,-0.0386,0.4460,-882.57,-1718.99,-608.52
19470,-3.8677,0.0078,0.4266,-929.44,1109.25,-311.65
19480,-3.8677,0.0496,0.4159,1008.06,-1390.62,-1155.46
19490,-3.8677,0.0979,0.4246,-1648.19,1234.44,-1592.96
19500,-3.8677,0.1571,0.4440,539.31,-1656.07,-1014.83
19510,-3.8677,0.2361,0.4637,117.43,828.43,-483.52
19520,-3.8677,0.3435,0.4796,-1773.19,-640.20,-1030.40
19530,-3.8677,0.4669,0.4872,-23.19,1391.24,1375.92
19540,-3.8678,0.5844,0.4868,-226.32,-1639.77,-592.83
19550,-3.8678,0.6844,0.4830,-1195.07,-1686.40,938.42
19560,-3.8679,0.7786,0.4774,-382.57,1829.41,860.29
19570,-3.8682,0.8759,0.4709,-335.69,1110.84,-952.21
19580,-3.8684,0.9578,0.4669,117.43,282.96,-420.96
19590,-3.8687,1.0363,0.4692,-1398.19,-232.54,-1733.52
19600,-3.8689,1.1216,0.4800,648.68,64.51,469.67
19610,-3.8693,1.1943,0.5125,-429.44,1439.64,-327.21
19620,-3.8695,1.2880,0.5649,883.06,1596.07,-467.77
19630,-3.8698,1.3951,0.5968,867.43,315.00,-780.15
19640,-3.8700,1.4524,0.5845,-1413.82,393.31,1766.78
19650,-3.8704,1.4591,0.5361,1914.31,-1184.69,-1498.90
19660,-3.8707,1.4323,0.4645,-1226.32,627.81,1454.16
19670,-3.8712,1.4026,0.4086,-663.82,-544.13,-874.15
19680,-3.8716,1.3839,0.3956,-460.69,299.56,500.79
19690,-3.8721,1.3705,0.4132,1148.68,-1356.69,-655.52
19700,-3.8723,1.3555,0.4481,-570.07,893.25,-1155.46
19710,-3.8723,1.3191,0.4937,1508.06,1362.00,141.48
19720,-3.8723,1.2544,0.5259,851.81,-809.94,235.29
19730,-3.8724,1.1683,0.5188,570.56,-685.06,-1374.02
19740,-3.8726,1.0811,0.4662,1554.93,-1591.49,235.35
19750,-3.8729,0.9902,0.3833,-1616.94,-326.05,797.73
19760,-3.8734,0.8970,0.2903,-1241.94,1064.39,-1733.64
19770,-3.8739,0.8105,0.2007,-1179.44,1157.96,-593.20
19780,-3.8743,0.7366,0.1261,-241.94,1689.03,-1984.01
19790,-3.8746,0.6704,0.0759,-1710.69,142.03,-999.76
19800,-3.8749,0.6064,0.0543,1820.56,1720.03,-656.13
19810,-3.8750,0.5452,0.0531,1633.06,-1045.72,-1078.06
19820,-3.8439,0.4889,0.0531,1789.31,-1202.09,-78.06
19830,-3.8439,0.4326,0.0464,-1413.82,-1202.21,1078.19
19840,-3.8440,0.3678,0.0369,-616.94,1938.29,-1499.94
19850,-3.8441,0.2961,0.0172,-913.82,719.42,-62.44
19860,-3.8441,0.2168,-0.0179,1914.31,-1796.33,1031.25
19870,-3.8442,0.1348,-0.0630,-241.94,1703.49,1890.56
19880,-3.8444,0.0540,-0.1084,1258.06,-62.26,-1000.18
19890,-3.8444,-0.0270,-0.1472,-1085.69,-1874.94,1124.76
19900,-3.8444,-0.0956,-0.1730,554.93,1171.81,687.19
19910,-3.8444,-0.1456,-0.1794,-226.32,1874.76,1859.01
19920,-3.8442,-0.1821,-0.1663,1367.43,1046.57,437.13
19930,-3.8441,-0.2067,-0.1388,695.56,-1265.99,30.88
19940,-3.8440,-0.2178,-0.0909,1554.93,-1750.43,1515.32
19950,-3.8750,-0.2200,-0.0162,133.06,374.57,-1718.93
19960,-3.8746,-0.2350,0.0691,-148.19,1937.01,-1828.19
19970,-3.8743,-0.2910,0.1342,1929.93,858.89,-546.75
19980,-3.8738,-0.3860,0.1624,-1241.94,1186.89,1187.74
19990,-3.8733,-0.4752,0.1759,-1398.19,796.08,156.56
20000,-3.8728,-0.5350,0.2203,-820.07,-1469.73,875.31
20010,-3.8722,-0.5583,0.3287,-476.32,217.65,750.43
20020,-3.8715,-0.5354,0.4521,539.31,-1907.35,94.36
20030,-3.8707,-0.5048,0.5150,-523.19,1889.53,344.60
20040,-3.8701,-0.4843,0.5107,-601.32,1936.46,-1905.27
20050,-3.8696,-0.4674,0.4681,-1976.32,1389.65,-905.27
20060,-3.8693,-0.4988,0.4193,179.93,-63.42,-561.65
20070,-3.8690,-0.5654,0.3789,164.31,1686.52,-30.46
20080,-3.8688,-0.6239,0.3593,-366.94,514.47,-1327.39
20090,-3.8685,-0.6565,0.3916,148.68,1998.78,-1733.70
20100,-3.8682,-0.6440,0.4855,-23.19,-1860.72,906.98
20110,-3.8678,-0.5741,0.6058,1570.56,-1845.03,-811.58
20120,-3.8673,-0.4478,0.7080,-1476.32,1561.34,-1514.47
20130,-3.8669,-0.2863,0.7616,-1304.44,-1360.29,-1670.53
20140,-3.8668,-0.1190,0.7629,-632.57,1499.39,-45.41
20150,-3.8668,0.0326,0.7272,773.68,1671.63,-967.29
20160,-3.8669,0.1665,0.6671,179.93,1078.19,1329.53
20170,-3.8672,0.2623,0.5944,1320.56,1390.93,1860.66
20180,-3.8674,0.3112,0.5277,1586.18,78.61,-1623.84
20190,-3.8677,0.3268,0.4805,-163.82,-452.58,-545.90
20200,-3.8678,0.3336,0.4655,1836.18,1500.61,-1858.46
20210,-3.8678,0.3529,0.4830,-1288.82,-421.26,157.10
20220,-3.8678,0.3801,0.5104,1179.93,1828.80,1985.29
20230,-3.8677,0.4026,0.5280,664.31,1328.86,1750.98
20240,-3.8676,0.4304,0.5339,-460.69,-421.14,282.23
20250,-3.8677,0.4849,0.5266,-898.19,344.54,-702.09
20260,-3.8678,0.5721,0.4977,-1929.44,-592.83,1782.23
20270,-3.8682,0.6754,0.4504,1242.43,-295.78,-92.83
20280,-3.8685,0.7720,0.4019,-1538.82,1657.53,-1249.15
20290,-3.8689,0.8605,0.3749,-1179.44,-561.04,125.73
20300,-3.8694,0.9425,0.3792,-1851.32,-13.98,1953.80
20310,-3.8698,1.0441,0.4070,648.68,533.08,1235.11
20320,-3.8701,1.1652,0.4481,1648.68,95.76,1672.67
20330,-3.8705,1.2360,0.4834,1148.68,1361.63,1485.23
20340,-3.8708,1.2615,0.4747,-1788.82,1877.38,172.79
20350,-3.8712,1.2651,0.4070,1476.81,768.07,719.67
20360,-3.8716,1.2474,0.3422,1945.56,96.19,-46.08
20370,-3.8718,1.2616,0.3540,-320.07,-200.74,-1155.64
20380,-3.8722,1.2695,0.3961,1492.43,1314.94,-1514.95
20390,-3.8727,1.2350,0.3932,-1491.94,-1294.43,-733.64
20400,-3.8730,1.1887,0.3534,-1913.82,-1669.49,922.61
20410,-3.8734,1.1361,0.3110,164.31,1236.69,1844.42
20420,-3.8737,1.0707,0.2855,1429.93,-185.30,-1952.58
20430,-3.8738,0.9991,0.2708,1054.93,548.95,78.67
20440,-3.8740,0.9291,0.2567,-101.32,-1341.86,-983.89
20450,-3.8741,0.8595,0.2401,-1070.07,861.15,-1265.14
20460,-3.8743,0.7919,0.2153,-1976.32,-1263.98,-1437.07
20470,-3.8744,0.7307,0.1714,1367.43,-435.97,1094.12
20480,-3.8746,0.6776,0.1068,1539.31,1938.90,1359.68
20490,-3.8750,0.6257,0.0321,-1257.57,1673.16,-93.57
20500,-3.8440,0.5706,-0.0394,101.81,110.60,-1843.69
20510,-3.8442,0.5093,-0.0959,1039.31,-1045.78,1578.00
20520,-3.8445,0.4464,-0.1340,1195.56,-280.27,-1390.87
20530,-3.8446,0.3856,-0.1614,1148.68,-1155.40,1452.82
20540,-3.8447,0.3328,-0.1736,1367.43,-655.52,-1281.62
20550,-3.8447,0.2778,-0.1649,-1398.19,1781.86,-1172.24
20560,-3.8446,0.2236,-0.1444,-429.44,-1108.89,702.76
20570,-3.8446,0.1741,-0.1224,633.06,1516.05,-640.93
20580,-3.8445,0.1361,-0.1039,-1710.69,328.43,-531.49
20590,-3.8442,0.1051,-0.0906,1429.93,-1296.63,656.01
20600,-3.8441,0.0640,-0.0828,1461.18,406.43,1718.57
20610,-3.8440,0.0087,-0.0758,195.56,1406.37,-953.31
20620,-3.8750,-0.0703,-0.0663,1117.43,-1703.12,1718.57
20630,-3.8748,-0.1769,-0.0544,-991.94,-468.93,-1875.18
20640,-3.8744,-0.2908,-0.0425,1367.43,1046.51,749.88
20650,-3.8740,-0.3970,-0.0308,-1210.69,-1422.49,-875.12
20660,-3.8734,-0.5029,-0.0045,1195.56,77.33,999.94
20670,-3.8728,-0.6050,0.0614,-366.94,-563.54,156.19
20680,-3.8722,-0.6924,0.1906,-1429.44,-126.22,93.81
20690,-3.8716,-0.7728,0.3652,-616.94,404.85,297.24
20700,-3.8711,-0.7936,0.5248,1086.18,-1235.90,-405.58
20710,-3.8705,-0.7444,0.6071,-1570.07,-814.09,-1936.52
20720,-3.8700,-0.7074,0.5844,726.81,1717.29,1969.91
20730,-3.8696,-0.6709,0.4857,1461.18,-1188.90,1172.97
20740,-3.8694,-0.6313,0.3925,-1866.94,-1813.84,1625.92
20750,-3.8691,-0.6187,0.3687,-804.44,-1751.28,1047.61
20760,-3.8689,-0.6049,0.4093,820.56,-798.10,16.30
20770,-3.8687,-0.5648,0.4900,-1413.82,405.03,1985.17
20780,-3.8682,-0.4790,0.5906,-288.82,-1266.78,1250.92
20790,-3.8677,-0.3591,0.6855,-1304.44,-391.60,-233.28
20800,-3.8671,-0.2162,0.7471,-1960.69,-235.11,1282.53
20810,-3.8667,-0.0688,0.7600,336.18,-359.80,-1123.60
20820,-3.8665,0.0562,0.7333,-804.44,1296.69,-779.79
20830,-3.8663,0.1674,0.6826,-804.44,1859.44,1751.40
20840,-3.8665,0.2596,0.6201,1429.93,-624.69,-483.09
20850,-3.8666,0.3301,0.5610,1242.43,-624.51,-1045.72
20860,-3.8667,0.3927,0.5197,-1741.94,-186.89,-1248.96
20870,-3.8667,0.4539,0.5044,-1726.32,-1483.64,141.60
20880,-3.8668,0.5177,0.5100,-1898.19,563.35,-1420.90
20890,-3.8668,0.5908,0.5211,-1726.32,1282.23,985.35
20900,-3.8669,0.6726,0.5219,-366.94,-1295.78,-1608.40
20910,-3.8671,0.7526,0.5000,-1898.19,-1201.84,1391.60
20920,-3.8673,0.8234,0.4590,336.18,1.46,204.10
20930,-3.8678,0.8795,0.4142,1398.68,-1248.41,-1124.15
20940,-3.8683,0.9276,0.3820,586.18,1017.33,-952.33
20950,-3.8688,0.9747,0.3623,-1257.57,892.40,-1139.89
20960,-3.8693,1.0074,0.3383,773.68,-1623.11,-1358.70
20970,-3.8698,1.0154,0.3232,961.18,-701.17,-1515.01
20980,-3.8702,1.0310,0.3468,1976.81,1376.95,-296.26
20990,-3.8706,1.0621,0.3922,-23.19,392.58,-1514.95
21000,-3.8710,1.0905,0.4263,-38.82,-1794.86,-1296.14
21010,-3.8712,1.1251,0.4497,-413.82,-1435.42,1547.67
21020,-3.8715,1.1641,0.4883,23.68,1564.70,1422.73
21030,-3.8718,1.2184,0.5457,1008.06,-1497.74,-1467.83
21040,-3.8723,1.2660,0.5780,-38.82,1846.07,-30.21
21050,-3.8728,1.2736,0.5594,-1945.07,1986.82,-264.53
21060,-3.8732,1.2472,0.5028,-976.32,-388.18,94.79
21070,-3.8737,1.1768,0.4338,-351.32,361.76,-1874.02
21080,-3.8740,1.0680,0.3795,-1366.94,-466.49,-1358.58
21090,-3.8743,0.9397,0.3425,711.18,580.20,1969.48
21100,-3.8745,0.8231,0.3125,289.31,-154.42,-624.39
21110,-3.8746,0.7344,0.2863,1367.43,1.59,1938.11
21120,-3.8748,0.6633,0.2632,-1991.94,642.03,1391.17
21130,-3.8749,0.5974,0.2325,914.31,1688.78,1125.49
21140,-3.8439,0.5369,0.1818,476.81,1766.78,-233.95
21150,-3.8440,0.4863,0.1156,726.81,-733.34,844.06
21160,-3.8442,0.4363,0.0513,-1741.94,-1202.21,1328.31
21170,-3.8445,0.3794,0.0012,-148.19,-1436.71,-1296.81
21180,-3.8446,0.3159,-0.0334,570.56,156.98,-1906.25
21190,-3.8446,0.2550,-0.0579,445.56,-280.64,203.00
21200,-3.8446,0.1862,-0.0748,648.68,594.24,1124.88
21210,-3.8445,0.0958,-0.0834,-163.82,-1577.82,671.69
21220,-3.8444,-0.0115,-0.0857,273.68,1328.31,-1609.56
21230,-3.8441,-0.1082,-0.0731,-1460.69,1046.81,-1359.56
21240,-3.8750,-0.1790,-0.0419,-1835.69,-1343.99,1062.32
21250,-3.8748,-0.2477,-0.0117,1101.81,-1344.12,-78.25
21260,-3.8744,-0.3365,-0.0004,304.93,-1484.86,-1656.31
21270,-3.8740,-0.4451,-0.0027,929.93,-31.92,984.31
21280,-3.8737,-0.5688,0.0005,-960.69,-329.04,265.56
21290,-3.8734,-0.6757,0.0205,-804.44,76.97,-46.88
21300,-3.8729,-0.7577,0.0715,1523.68,-1360.72,968.75
21310,-3.8724,-0.8159,0.1881,-976.32,1170.35,1875.12
21320,-3.8718,-0.8364,0.3657,-429.44,92.10,-1234.01
21330,-3.8711,-0.8724,0.4998,945.56,-1173.52,1203.80
21340,-3.8705,-0.9047,0.5123,336.18,-17.33,-561.58
21350,-3.8698,-0.8809,0.4618,211.18,1591.98,1110.35
21360,-3.8693,-0.8284,0.4083,-741.94,-876.77,-749.15
21370,-3.8689,-0.7739,0.3617,1976.81,279.60,-1202.33
21380,-3.8687,-0.7227,0.3427,945.56,-1689.03,-624.33
21390,-3.8683,-0.6646,0.3639,-491.94,-126.46,1094.36
21400,-3.8679,-0.5945,0.4258,-1054.44,-1407.59,1516.30
21410,-3.8676,-0.4944,0.5023,-85.69,-1485.60,-842.96
21420,-3.8672,-0.3505,0.5498,726.81,311.52,-1077.15
21430,-3.8669,-0.1665,0.5615,-851.32,-1610.11,-577.09
21440,-3.8667,0.0300,0.5569,-1304.44,-109.74,438.54
21450,-3.8667,0.2142,0.5349,-148.19,-718.75,1641.66
21460,-3.8668,0.3856,0.4919,-570.07,469.12,-795.84
21470,-3.8669,0.5316,0.4398,1367.43,-1030.52,-1749.08
21480,-3.8671,0.6473,0.3922,54.93,297.91,157.10
21490,-3.8673,0.7375,0.3630,-1132.57,-1795.65,-1593.02
21500,-3.8674,0.7983,0.3502,-1585.69,-1529.85,1672.55
21510,-3.8676,0.8237,0.3455,-1804.44,829.65,500.67
21520,-3.8678,0.8430,0.3435,1445.56,220.34,844.42
21530,-3.8682,0.8849,0.3378,-85.69,-29.66,-1343.14
21540,-3.8685,0.9305,0.3325,1273.68,-763.92,-1030.64
21550,-3.8689,0.9625,0.3262,-882.57,-1435.73,1938.11
21560,-3.8694,1.0166,0.3120,-788.82,1751.83,-436.89
21570,-3.8698,1.0925,0.3008,-1866.94,-60.55,250.55
21580,-3.8702,1.1318,0.2904,-148.19,-1497.92,766.17
21590,-3.8707,1.1438,0.2701,883.06,1174.07,-390.08
21600,-3.8710,1.1495,0.2542,-1585.69,-1419.68,-1593.26
21610,-3.8712,1.1929,0.2987,-851.32,533.45,-468.26
21620,-3.8713,1.2883,0.4226,695.56,-1763.31,1453.67
21630,-3.8716,1.3622,0.5355,914.31,-1903.75,1891.42
21640,-3.8718,1.3883,0.5721,-1632.57,549.50,204.16
21650,-3.8722,1.3711,0.5555,1711.18,1237.06,1813.60
21660,-3.8726,1.2969,0.5150,-491.94,-888.00,-1342.71
21670,-3.8729,1.1709,0.4625,-1991.94,1924.38,-1170.90
21680,-3.8733,1.0344,0.4044,1883.06,-794.62,-1249.15
21690,-3.8737,0.9142,0.3394,414.31,-232.36,-1280.52
21700,-3.8740,0.8185,0.2709,1023.68,-560.73,-968.14
21710,-3.8743,0.7408,0.2085,773.68,-1326.54,547.36
21720,-3.8745,0.6738,0.1654,-1163.82,-1311.10,422.24
21730,-3.8748,0.6154,0.1481,-1741.94,1173.16,-749.69
21740,-3.8748,0.5637,0.1488,-1226.32,-1045.72,672.12
21750,-3.8748,0.5156,0.1592,164.31,-952.03,62.74
21760,-3.8748,0.4630,0.1700,-1991.94,375.98,687.81
21770,-3.8748,0.4023,0.1663,-726.32,1766.48,1640.93
21780,-3.8748,0.3290,0.1337,-491.94,1281.98,1094.06
21790,-3.8749,0.2437,0.0730,-1882.57,1109.99,1718.99
21800,-3.8439,0.1461,-0.0034,-804.44,1344.18,-156.13
21810,-3.8440,0.0511,-0.0822,-1288.82,-437.26,1046.81
21820,-3.8441,-0.0389,-0.1554,-1445.07,1484.44,390.44
21830,-3.8441,-0.1437,-0.2219,-976.32,124.88,452.82
21840,-3.8440,-0.2667,-0.2749,1617.43,-390.93,452.64
21850,-3.8439,-0.3855,-0.2894,1867.43,827.58,1546.33
21860,-3.8750,-0.4769,-0.2457,-1335.69,-1032.04,1608.76
21870,-3.8749,-0.5197,-0.1484,-1038.82,561.52,1202.64
21880,-3.8748,-0.5006,-0.0070,1492.43,1014.59,-1000.31
21890,-3.8744,-0.4502,0.1492,-70.07,-876.04,515.56
21900,-3.8740,-0.4413,0.2795,-1616.94,-891.54,656.49
21910,-3.8737,-0.4944,0.3324,-476.32,-204.04,-358.89
21920,-3.8730,-0.5751,0.3104,726.81,-1438.48,-468.14
21930,-3.8723,-0.6489,0.3184,-1601.32,-251.16,-1171.33
21940,-3.8716,-0.6531,0.3928,945.56,764.34,297.49
21950,-3.8711,-0.5823,0.4832,414.31,-1704.41,-874.27
21960,-3.8705,-0.4980,0.5281,1476.81,1858.22,1532.17
21970,-3.8700,-0.4180,0.4844,258.06,-391.60,-1733.40
21980,-3.8695,-0.3704,0.3960,-1491.94,-1985.23,63.42
21990,-3.8693,-0.3723,0.3417,601.81,-1297.61,-514.89
22000,-3.8689,-0.3861,0.3472,351.81,-250.73,-1843.14
22010,-3.8685,-0.3907,0.4064,-1413.82,452.33,-1827.45
22020,-3.8680,-0.3684,0.4985,1992.43,30.46,110.17
22030,-3.8677,-0.3279,0.5664,851.81,-172.61,-1217.83
22040,-3.8673,-0.2780,0.5636,-1960.69,514.95,-1077.03
22050,-3.8671,-0.2140,0.5060,429.93,155.70,-1655.15
22060,-3.8669,-0.1405,0.4421,617.43,780.82,-1561.52
22070,-3.8668,-0.0493,0.4028,-1976.32,609.07,1750.85
22080,-3.8667,0.0636,0.3953,1695.56,-422.00,-1858.64
22090,-3.8666,0.1752,0.4122,148.68,-1406.13,-780.52
22100,-3.8665,0.2734,0.4409,-1570.07,765.93,-702.33
22110,-3.8663,0.3882,0.4669,-991.94,437.99,1328.98
22120,-3.8663,0.5275,0.4747,1695.56,-233.64,1594.60
22130,-3.8663,0.6750,0.4609,-476.32,766.60,297.79
22140,-3.8665,0.8113,0.4332,-1585.69,-998.72,203.98
22150,-3.8667,0.9182,0.3940,-148.19,-545.35,172.67
22160,-3.8671,0.9834,0.3597,1539.31,-1560.73,735.11
22170,-3.8676,1.0267,0.3553,1883.06,-1951.23,-139.95
22180,-3.8679,1.0671,0.3672,-570.07,1486.33,-1561.83
22190,-3.8684,1.0798,0.3754,601.81,-997.92,-218.08
22200,-3.8688,1.0504,0.3918,-1773.19,48.95,656.98
22210,-3.8693,1.0175,0.4386,-1538.82,-1841.74,1391.36
22220,-3.8698,1.0121,0.4893,-1757.57,142.58,1141.48
22230,-3.8702,1.0209,0.4933,1554.93,-1373.05,594.67
22240,-3.8707,1.0627,0.4574,-1320.07,-857.42,-1905.33
22250,-3.8711,1.1268,0.4308,39.31,-1451.05,953.98
22260,-3.8716,1.1755,0.4470,242.43,-857.18,-1983.58
22270,-3.8722,1.1710,0.4709,-1523.19,1221.01,-171.02
22280,-3.8727,1.1094,0.4618,1898.68,283.51,1016.54
22290,-3.8732,1.0295,0.4313,-1991.94,-888.49,-1311.65
22300,-3.8734,0.9221,0.4030,-210.69,-794.92,-1889.83
22310,-3.8735,0.8031,0.3861,-1960.69,-420.10,985.11
22320,-3.8737,0.7007,0.3695,-1195.07,1423.40,797.61
22330,-3.8738,0.6268,0.3418,1695.56,-701.78,0.67
22340,-3.8740,0.5693,0.3026,242.43,-248.78,-1921.26
22350,-3.8743,0.5168,0.2616,883.06,-1264.53,-765.08
22360,-3.8744,0.4720,0.2310,-1835.69,1485.35,312.99
22370,-3.8746,0.4263,0.2015,429.93,1563.42,-1843.32
22380,-3.8748,0.3821,0.1542,-1429.44,1797.67,328.49
22390,-3.8750,0.3247,0.0883,914.31,-264.89,-1656.01
22400,-3.8439,0.2526,0.0192,1570.56,-702.51,328.25
22410,-3.8441,0.1843,-0.0394,336.18,-1546.39,-1453.12
22420,-3.8442,0.1277,-0.0770,-398.19,-1046.57,1828.00
22430,-3.8444,0.0857,-0.0857,351.81,-1859.13,-281.43
22440,-3.8442,0.0430,-0.0750,-1023.19,1031.37,765.44
22450,-3.8442,-0.0117,-0.0708,1508.06,-1593.69,-1547.06
22460,-3.8442,-0.0585,-0.0891,-1491.94,-1046.94,-1125.18
22470,-3.8442,-0.0840,-0.1147,523.68,609.25,-187.68
22480,-3.8440,-0.1064,-0.1243,1258.06,1327.94,406.01
22490,-3.8750,-0.1521,-0.1191,-1616.94,109.13,-1984.62
22500,-3.8746,-0.2345,-0.1122,539.31,765.32,-1906.49
22510,-3.8743,-0.3407,-0.1068,1992.43,1655.76,952.88
22520,-3.8740,-0.4366,-0.0925,398.68,-1656.92,1796.63
22530,-3.8738,-0.4873,-0.0450,117.43,171.02,-1984.56
22540,-3.8735,-0.4622,0.0546,1633.06,-1750.98,-312.62
22550,-3.8730,-0.3877,0.1855,851.81,-1000.92,343.81
22560,-3.8727,-0.3142,0.2893,-1616.94,-235.17,-546.57
22570,-3.8722,-0.2819,0.3008,-210.69,1046.20,-436.95
22580,-3.8716,-0.3104,0.2396,-70.07,-1484.99,94.30
22590,-3.8711,-0.3729,0.2195,273.68,-1313.11,-1952.70
22600,-3.8705,-0.4336,0.2703,273.68,108.64,1828.55
22610,-3.8699,-0.4698,0.3237,508.06,-1391.48,-1312.01
22620,-3.8693,-0.4954,0.3302,-132.57,1452.15,1813.11
22630,-3.8689,-0.4932,0.2877,601.81,-1719.73,-1046.26
22640,-3.8687,-0.4592,0.2341,883.06,842.77,-1624.45
22650,-3.8684,-0.4084,0.2244,1226.81,1983.46,953.55
22660,-3.8682,-0.3270,0.2739,-273.19,733.52,-905.82
22670,-3.8677,-0.2318,0.3414,-1851.32,-922.55,781.74
22680,-3.8673,-0.1323,0.3848,-1663.82,-281.74,-1968.14
22690,-3.8671,-0.0193,0.3948,-929.44,1265.32,-30.52
22700,-3.8668,0.1079,0.3722,1539.31,-1453.19,-1530.52
22710,-3.8667,0.2189,0.3164,1820.56,-359.19,-1999.33
22720,-3.8667,0.2863,0.2495,23.68,500.43,-1593.14
22730,-3.8667,0.3263,0.1990,648.68,-61.95,78.55
22740,-3.8668,0.3665,0.1753,1773.68,1469.36,734.74
22750,-3.8669,0.4197,0.1738,-1085.69,-1561.83,1812.81
22760,-3.8669,0.4858,0.1829,1726.81,-1749.21,94.06
22770,-3.8671,0.5535,0.1862,-1804.44,-592.83,-1218.44
22780,-3.8671,0.6101,0.1772,-1148.19,-170.84,265.93
22790,-3.8673,0.6581,0.1667,-1898.19,-1311.34,-62.19
22800,-3.8674,0.7009,0.1641,242.43,1345.03,1922.18
22810,-3.8677,0.7362,0.1697,1726.81,1001.34,-1249.69
22820,-3.8679,0.7542,0.1765,-1757.57,1720.15,-1671.57
22830,-3.8682,0.7480,0.1769,539.31,-1404.79,203.43
22840,-3.8685,0.7299,0.1746,-241.94,-1357.97,1187.81
22850,-3.8689,0.7129,0.1824,1429.93,-1654.85,-1530.94
22860,-3.8691,0.7107,0.2050,-741.94,-654.91,437.81
22870,-3.8695,0.7306,0.2369,-1023.19,-1764.28,-1062.13
22880,-3.8698,0.7738,0.2767,1523.68,-1670.47,1422.30
22890,-3.8701,0.8201,0.3236,-945.07,-576.66,-733.89
22900,-3.8705,0.8517,0.3669,976.81,1423.46,-655.64
22910,-3.8708,0.8757,0.3865,1023.68,-1029.60,1250.67
22920,-3.8713,0.8773,0.3717,101.81,1470.46,1750.73
22930,-3.8718,0.8668,0.3325,304.93,-420.17,-1655.58
22940,-3.8722,0.8530,0.2859,-1038.82,-1435.85,938.11
22950,-3.8726,0.8420,0.2515,1195.56,595.40,1578.67
22960,-3.8729,0.8356,0.2440,-210.69,189.09,-733.89
22970,-3.8732,0.8047,0.2526,-1038.82,-764.04,1687.93
22980,-3.8734,0.7415,0.2590,-991.94,329.65,1375.49
22990,-3.8737,0.6674,0.2670,-1085.69,1157.65,-265.14
23000,-3.8737,0.5978,0.2782,1429.93,-1826.84,953.61
23010,-3.8738,0.5446,0.2758,523.68,-389.47,-905.76
23020,-3.8739,0.5116,0.2443,1711.18,-702.09,-390.14
23030,-3.8740,0.4833,0.1843,1492.43,-733.40,1344.18
23040,-3.8743,0.4475,0.1116,1867.43,-405.33,875.31
23050,-3.8746,0.3964,0.0403,1289.31,-1717.90,-484.19
23060,-3.8749,0.3403,-0.0188,-1257.57,1156.98,-1109.31
23070,-3.8750,0.2843,-0.0599,-429.44,1594.36,171.81
23080,-3.8440,0.2340,-0.0894,398.68,328.67,-1187.62
23090,-3.8441,0.1906,-0.1100,1961.18,562.93,-1422.06
23100,-3.8442,0.1506,-0.1211,398.68,1922.24,-281.49
23110,-3.8442,0.1156,-0.1292,-710.69,500.24,1781.01
23120,-3.8442,0.0825,-0.1371,-1195.07,-531.07,905.94
