timestamp_ms,ax,ay,az,gx,gy,gz
0,-3.8712,0.5521,1.2198,-1476.32,-1045.96,-716.31
10,-3.8715,0.5991,1.1393,-1320.07,141.66,-216.37
20,-3.8716,0.6367,1.0570,695.56,1829.28,1861.57
30,-3.8717,0.6786,1.0002,1508.06,-701.90,-951.11
40,-3.8717,0.7322,0.9673,-1132.57,32.53,-1544.92
50,-3.8717,0.7974,0.9448,1726.81,-186.10,-1888.79
60,-3.8718,0.8759,0.9238,-1929.44,939.03,-232.54
70,-3.8719,0.9645,0.8895,117.43,-1748.29,-1310.73
80,-3.8722,1.0430,0.8269,-538.82,1861.21,-138.92
90,-3.8723,1.0914,0.7378,1508.06,1845.76,251.59
100,-3.8726,1.1024,0.6416,-288.82,-1560.42,220.15
110,-3.8728,1.0835,0.5579,1117.43,-1872.86,673.10
120,-3.8730,1.0536,0.4962,-1304.44,-591.67,-702.09
130,-3.8730,1.0294,0.4536,-1132.57,-482.36,235.29
140,-3.8732,1.0200,0.4209,-226.32,-1935.55,1828.98
150,-3.8733,1.0212,0.3933,-1429.44,1876.95,-999.21
160,-3.8733,1.0143,0.3740,-1273.19,-1654.30,16.36
170,-3.8734,0.9829,0.3669,1836.18,-123.05,1906.92
180,-3.8734,0.9261,0.3748,1820.56,-1029.36,1594.42
190,-3.8734,0.8575,0.3993,-1445.07,-29.48,-1155.58
200,-3.8733,0.7915,0.4319,1773.68,-888.98,1203.86
210,-3.8732,0.7344,0.4585,1320.56,-717.22,1219.54
220,-3.8730,0.6898,0.4779,-1991.94,-1311.10,-608.52
230,-3.8728,0.6573,0.5016,304.93,1173.22,-920.96
240,-3.8726,0.6298,0.5382,148.68,204.41,-342.77
250,-3.8722,0.6039,0.5935,617.43,891.85,-1920.84
260,-3.8718,0.5809,0.6683,1304.93,-30.09,-1123.90
270,-3.8713,0.5529,0.7495,-1632.57,1547.97,688.78
280,-3.8710,0.5132,0.8179,-1226.32,-61.46,-1623.60
290,-3.8706,0.4670,0.8622,1695.56,688.48,-482.79
300,-3.8702,0.4202,0.8840,-210.69,-1639.77,-1092.10
310,-3.8700,0.3752,0.8966,1789.31,1157.04,-529.54
320,-3.8698,0.3352,0.9091,39.31,-1233.64,1095.46
330,-3.8696,0.3037,0.9186,-1085.69,359.99,189.27
340,-3.8696,0.2811,0.9291,-1116.94,1578.67,1548.65
350,-3.8696,0.2649,0.9506,-7.57,-1077.64,1704.90
360,-3.8696,0.2524,0.9722,1914.31,1672.36,564.33
370,-3.8698,0.2332,0.9742,320.56,437.99,-1326.23
380,-3.8698,0.2000,0.9529,1851.81,703.55,533.14
390,-3.8699,0.1664,0.9205,1601.81,1969.12,-1388.79
400,-3.8699,0.1489,0.9042,1304.93,1828.43,-1654.48
410,-3.8698,0.1396,0.9242,-929.44,-265.38,1.71
420,-3.8698,0.1169,0.9731,1883.06,-1702.88,-1451.35
430,-3.8696,0.0669,1.0336,-1023.19,562.68,1142.52
440,-3.8696,-0.0151,1.0945,570.56,297.00,-1779.24
450,-3.8696,-0.1245,1.1396,-1929.44,109.31,95.89
460,-3.8699,-0.2469,1.1500,70.56,1890.38,-1279.05
470,-3.8701,-0.3687,1.1189,398.68,-781.74,-1325.93
480,-3.8704,-0.4835,1.0626,820.56,-766.36,720.89
490,-3.8707,-0.5914,1.0120,-1882.57,30.27,-1122.92
500,-3.8708,-0.6886,0.9811,304.93,1545.72,158.20
510,-3.8710,-0.7645,0.9628,-132.57,1592.35,1986.27
520,-3.8710,-0.8140,0.9441,-1851.32,-751.53,-1810.67
530,-3.8710,-0.8408,0.9158,-179.44,857.73,1095.58
540,-3.8711,-0.8601,0.8739,383.06,1232.73,1439.27
550,-3.8712,-0.8931,0.8143,1914.31,-126.71,17.27
560,-3.8715,-0.9578,0.7378,1695.56,248.23,1064.09
570,-3.8717,-1.0536,0.6558,1414.31,-1548.77,954.53
580,-3.8719,-1.1558,0.5747,1148.68,-48.95,610.60
590,-3.8722,-1.2244,0.4894,70.56,1575.87,1126.10
600,-3.8724,-1.2229,0.4060,-710.69,-1346.19,-749.08
610,-3.8726,-1.1495,0.3419,-523.19,-18.07,-952.39
620,-3.8727,-1.0353,0.3047,867.43,-221.01,-202.51
630,-3.8727,-0.9125,0.2886,-507.57,-986.45,516.17
640,-3.8728,-0.8037,0.2797,-788.82,951.29,1625.55
650,-3.8728,-0.7253,0.2703,1133.06,-189.09,266.11
660,-3.8728,-0.6906,0.2618,-835.69,-1392.09,375.49
670,-3.8728,-0.7015,0.2496,-382.57,1529.85,1078.61
680,-3.8728,-0.7435,0.2324,-1788.82,-32.65,1469.18
690,-3.8728,-0.7966,0.2241,836.18,1764.16,1641.05
700,-3.8728,-0.8481,0.2380,-1960.69,701.54,-1093.32
710,-3.8727,-0.8888,0.2689,-554.44,-1517.33,1625.43
720,-3.8726,-0.9067,0.3024,-1757.57,-1564.27,609.86
730,-3.8726,-0.8972,0.3308,-54.44,-1283.08,-1483.83
740,-3.8726,-0.8723,0.3552,1164.31,-1642.40,-796.26
750,-3.8724,-0.8468,0.3860,351.81,1482.67,328.80
760,-3.8724,-0.8295,0.4304,-382.57,1420.17,-1280.52
770,-3.8723,-0.8217,0.4760,1836.18,-892.27,1391.42
780,-3.8723,-0.8185,0.5085,-1163.82,935.85,-389.71
790,-3.8722,-0.8212,0.5302,-757.57,1107.73,1563.48
800,-3.8722,-0.8326,0.5519,-1101.32,-126.65,-14.65
810,-3.8721,-0.8475,0.5831,1429.93,-1345.40,-155.21
820,-3.8718,-0.8591,0.6216,-476.32,-1345.46,1219.85
830,-3.8716,-0.8644,0.6678,-1960.69,-423.58,63.66
840,-3.8713,-0.8635,0.7292,1367.43,1498.29,204.41
850,-3.8711,-0.8567,0.7944,1476.81,1357.67,329.53
860,-3.8710,-0.8357,0.8475,-1648.19,1701.42,-217.22
870,-3.8707,-0.7941,0.8900,1039.31,498.35,-1107.73
880,-3.8705,-0.7386,0.9247,-1632.57,1935.91,1064.21
890,-3.8704,-0.6768,0.9467,1461.18,-1626.46,892.40
900,-3.8704,-0.6097,0.9547,1383.06,1186.16,-1185.67
910,-3.8702,-0.5394,0.9480,1961.18,-1782.47,595.58
920,-3.8702,-0.4709,0.9343,-1038.82,1358.28,-1107.54
930,-3.8701,-0.4142,0.9353,-273.19,-391.60,923.65
940,-3.8701,-0.3744,0.9563,-1007.57,-266.48,-1341.98
950,-3.8700,-0.3392,0.9850,86.18,-1578.86,345.58
960,-3.8700,-0.2939,1.0178,586.18,-1906.92,-1748.11
970,-3.8699,-0.2360,1.0568,-1616.94,-1703.74,392.58
980,-3.8699,-0.1700,1.0973,1804.93,-719.24,1830.14
990,-3.8699,-0.0980,1.1338,-1757.57,468.38,1908.39
1000,-3.8699,-0.0203,1.1532,-538.82,1140.38,424.07
1010,-3.8700,0.0565,1.1453,1414.31,-375.06,1689.70
1020,-3.8701,0.1216,1.1223,-757.57,-1406.19,-1544.68
1030,-3.8702,0.1661,1.0957,-429.44,-343.57,-779.11
1040,-3.8704,0.1876,1.0688,1273.68,250.31,-107.24
1050,-3.8704,0.1989,1.0497,23.68,812.87,423.95
1060,-3.8705,0.2233,1.0417,1461.18,-1640.26,1439.51
1070,-3.8705,0.2766,1.0465,586.18,1344.18,48.89
1080,-3.8705,0.3584,1.0676,-585.69,1953.61,392.64
1090,-3.8705,0.4556,1.0927,1883.06,656.92,705.20
1100,-3.8706,0.5579,1.1010,-1679.44,-139.77,-919.80
1110,-3.8707,0.6544,1.0847,-585.69,922.91,-1310.36
1120,-3.8710,0.7295,1.0433,-226.32,-1155.03,-497.92
1130,-3.8712,0.7798,0.9752,1383.06,1548.28,-1232.36
1140,-3.8715,0.8129,0.8929,-179.44,829.59,-1123.11
1150,-3.8716,0.8318,0.8198,54.93,-1701.54,1220.46
1160,-3.8717,0.8346,0.7673,-1523.19,939.09,829.71
1170,-3.8718,0.8295,0.7295,-1163.82,-1779.66,704.59
1180,-3.8719,0.8302,0.6936,-1820.07,1376.59,876.40
1190,-3.8721,0.8381,0.6534,-1726.32,782.84,1235.72
1200,-3.8722,0.8461,0.6089,-710.69,-357.79,1360.60
1210,-3.8723,0.8486,0.5641,304.93,1939.15,969.91
1220,-3.8724,0.8417,0.5227,633.06,204.77,219.85
1230,-3.8727,0.8224,0.4830,-257.57,-1092.16,-702.15
1240,-3.8728,0.7937,0.4414,1273.68,1829.71,-1842.83
1250,-3.8729,0.7621,0.3973,1601.81,501.53,907.10
1260,-3.8730,0.7332,0.3558,1554.93,-1139.16,250.73
1270,-3.8732,0.7098,0.3284,1851.81,1548.28,860.05
1280,-3.8733,0.6908,0.3220,-1132.57,-1967.41,-780.64
1290,-3.8733,0.6761,0.3271,429.93,1220.09,-843.14
1300,-3.8732,0.6727,0.3344,-1445.07,1876.28,109.99
1310,-3.8732,0.6836,0.3516,-1882.57,-1201.84,-1936.89
1320,-3.8730,0.6970,0.3838,-491.94,1001.28,813.17
1330,-3.8730,0.6990,0.4188,1226.81,1126.34,-93.02
1340,-3.8729,0.6873,0.4526,1476.81,1610.72,-296.08
1350,-3.8727,0.6613,0.4998,-23.19,1938.78,1407.10
1360,-3.8724,0.6233,0.5570,648.68,-29.97,1907.17
1370,-3.8721,0.5840,0.6060,-210.69,-701.97,1157.29
1380,-3.8717,0.5480,0.6562,-1241.94,1563.60,-1123.84
1390,-3.8712,0.5094,0.7375,-1851.32,1.04,1845.03
1400,-3.8707,0.4630,0.8428,1211.18,-1592.77,485.78
1410,-3.8704,0.4132,0.9249,-726.32,-124.15,-1123.41
1420,-3.8699,0.3717,0.9553,898.68,-1608.58,720.52
1430,-3.8696,0.3418,0.9528,-413.82,-1718.08,-138.79
1440,-3.8694,0.3187,0.9539,-241.94,1953.74,-1435.67
1450,-3.8693,0.2991,0.9707,804.93,-1905.64,986.21
1460,-3.8693,0.2782,1.0059,-1710.69,250.55,626.89
1470,-3.8694,0.2449,1.0574,-382.57,750.49,-591.80
1480,-3.8694,0.1926,1.1025,-648.19,-655.82,-1576.11
1490,-3.8694,0.1321,1.1136,664.31,1125.37,877.14
1500,-3.8695,0.0792,1.0884,914.31,-1452.88,1408.39
1510,-3.8698,0.0405,1.0513,-1851.32,-687.38,-29.17
1520,-3.8699,0.0059,1.0266,1195.56,-1437.44,1423.89
1530,-3.8701,-0.0455,1.0267,758.06,-593.75,-701.17
1540,-3.8702,-0.1246,1.0510,-1820.07,-562.62,-888.67
1550,-3.8702,-0.2203,1.0857,54.93,-1453.37,580.14
1560,-3.8704,-0.3143,1.1163,-195.07,-1016.11,-1857.30
1570,-3.8705,-0.3965,1.1409,-226.32,-1094.42,-466.61
1580,-3.8705,-0.4706,1.1642,1258.06,-1953.92,720.95
1590,-3.8706,-0.5526,1.1770,-226.32,1030.27,1767.88
1600,-3.8707,-0.6558,1.1542,1273.68,-1329.22,-872.74
1610,-3.8708,-0.7793,1.0896,70.56,-251.28,-122.80
1620,-3.8710,-0.9073,0.9980,258.06,-517.15,-997.92
1630,-3.8711,-1.0121,0.8964,-132.57,-236.21,1205.02
1640,-3.8712,-1.0673,0.8066,-1538.82,-1252.01,345.46
1650,-3.8713,-1.0745,0.7474,-601.32,-736.51,1095.28
1660,-3.8715,-1.0587,0.7178,-1523.19,-314.64,-1826.72
1670,-3.8716,-1.0450,0.6995,492.43,-111.45,-1998.66
1680,-3.8717,-1.0500,0.6770,-1757.57,1544.80,454.47
1690,-3.8719,-1.0812,0.6462,1601.81,-1330.20,-561.22
1700,-3.8719,-1.1315,0.6008,1617.43,-1267.76,766.85
1710,-3.8719,-1.1760,0.5387,-820.07,919.62,282.41
1720,-3.8719,-1.1929,0.4753,1476.81,966.43,251.04
1730,-3.8721,-1.1758,0.4246,-679.44,856.99,-624.08
1740,-3.8721,-1.1274,0.3835,1508.06,-1642.94,719.54
1750,-3.8723,-1.0630,0.3453,-304.44,1107.12,-30.52
1760,-3.8724,-1.0040,0.3021,-54.44,216.61,1766.30
1770,-3.8727,-0.9637,0.2520,-507.57,-1314.51,-968.20
1780,-3.8728,-0.9441,0.2014,648.68,263.73,1016.11
1790,-3.8729,-0.9390,0.1622,-835.69,1794.98,1125.37
1800,-3.8730,-0.9379,0.1445,-179.44,779.36,-171.57
1810,-3.8729,-0.9342,0.1548,-38.82,-1486.27,703.37
1820,-3.8729,-0.9257,0.1920,429.93,-173.71,-202.88
1830,-3.8727,-0.9088,0.2358,1523.68,591.92,219.12
1840,-3.8726,-0.8837,0.2683,-320.07,-1798.71,94.18
1850,-3.8726,-0.8624,0.2944,-1101.32,-1642.40,-1077.64
1860,-3.8724,-0.8580,0.3207,1617.43,1701.42,1266.17
1870,-3.8724,-0.8678,0.3457,-1820.07,1060.79,-405.64
1880,-3.8723,-0.8807,0.3768,929.93,263.92,1953.80
1890,-3.8723,-0.8932,0.4183,-726.32,248.23,-77.39
1900,-3.8722,-0.9032,0.4607,1679.93,1560.73,1063.29
1910,-3.8722,-0.9080,0.4938,398.68,-1017.40,1625.85
1920,-3.8722,-0.9113,0.5162,-210.69,-783.08,1954.04
1930,-3.8722,-0.9135,0.5326,-632.57,-1908.08,-1452.15
1940,-3.8721,-0.9041,0.5560,-913.82,185.67,891.66
1950,-3.8719,-0.8759,0.6033,289.31,-814.27,1797.91
1960,-3.8717,-0.8336,0.6710,-101.32,1232.60,110.53
1970,-3.8716,-0.7869,0.7426,1304.93,1904.60,-967.47
1980,-3.8713,-0.7458,0.8116,-710.69,-939.09,-1717.35
1990,-3.8711,-0.7209,0.8733,539.31,-95.21,485.90
2000,-3.8710,-0.7144,0.9203,-273.19,-204.59,923.52
2010,-3.8708,-0.7183,0.9510,570.56,1811.10,95.52
2020,-3.8708,-0.7196,0.9645,70.56,1748.60,-1013.79
2030,-3.8707,-0.7089,0.9691,-101.32,-532.71,-1763.79
2040,-3.8706,-0.6833,0.9781,1273.68,61.10,1580.02
2050,-3.8705,-0.6417,0.9972,539.31,1217.41,689.39
2060,-3.8704,-0.5848,1.0287,1867.43,-345.03,142.52
2070,-3.8702,-0.5179,1.0682,1148.68,-313.66,439.45
2080,-3.8701,-0.4421,1.1132,1711.18,748.96,1080.20
2090,-3.8700,-0.3638,1.1710,-585.69,-1500.92,1064.64
2100,-3.8699,-0.2944,1.2383,1445.56,1905.52,80.38
2110,-3.8699,-0.2330,1.2921,-1679.44,-1484.99,-1888.24
2120,-3.8699,-0.1724,1.3104,-1820.07,1405.76,-1528.75
2130,-3.8699,-0.1129,1.2894,1945.56,-250.37,1268.13
2140,-3.8700,-0.0604,1.2432,1554.93,1062.26,-716.25
2150,-3.8700,-0.0170,1.1925,273.68,-859.50,518.01
2160,-3.8701,0.0254,1.1565,1836.18,656.19,799.19
2170,-3.8702,0.0801,1.1439,-741.94,31.25,408.51
2180,-3.8704,0.1556,1.1464,-1741.94,-1578.00,49.07
2190,-3.8706,0.2449,1.1484,-70.07,-1265.38,-247.80
2200,-3.8707,0.3289,1.1389,-648.19,-999.57,-935.30
2210,-3.8708,0.3990,1.1079,-1898.19,1781.86,1345.95
2220,-3.8711,0.4573,1.0540,-913.82,1813.23,-1747.86
2230,-3.8713,0.5037,0.9906,-1460.69,-1092.90,-1372.99
2240,-3.8716,0.5352,0.9301,476.81,-1202.15,-810.61
2250,-3.8717,0.5497,0.8774,508.06,-952.09,126.77
2260,-3.8719,0.5546,0.8356,-1632.57,313.54,1548.58
2270,-3.8722,0.5646,0.7979,-1007.57,-1045.84,-201.54
2280,-3.8723,0.5913,0.7560,273.68,-1873.90,-389.10
2290,-3.8723,0.6368,0.7097,-304.44,766.72,938.96
2300,-3.8724,0.6969,0.6642,1523.68,-1155.03,-1029.91
2310,-3.8724,0.7708,0.6249,1211.18,1016.97,1048.16
2320,-3.8726,0.8529,0.5914,-1335.69,-14.16,-1030.09
2330,-3.8726,0.9272,0.5542,1179.93,-295.23,204.22
2340,-3.8728,0.9767,0.5028,-1304.44,-1060.73,-77.09
2350,-3.8729,0.9962,0.4388,1023.68,361.27,-1874.02
2360,-3.8730,0.9844,0.3749,-476.32,173.77,32.10
2370,-3.8733,0.9414,0.3230,-1991.94,-13.73,-608.70
2380,-3.8733,0.8816,0.2871,508.06,1345.58,1125.61
2390,-3.8733,0.8262,0.2623,851.81,751.71,875.55
2400,-3.8733,0.7913,0.2441,1758.06,1579.71,1609.86
2410,-3.8733,0.7823,0.2356,1289.31,-748.47,-1671.45
2420,-3.8733,0.7941,0.2391,148.68,-1842.22,-1405.82
2430,-3.8733,0.8093,0.2540,1648.68,-1389.10,-1233.95
2440,-3.8733,0.8103,0.2834,-398.19,517.15,-124.51
2450,-3.8732,0.7917,0.3285,-273.19,282.78,-1108.83
2460,-3.8729,0.7594,0.3757,1351.81,-1951.60,547.49
2470,-3.8727,0.7241,0.4125,1211.18,95.21,1266.36
2480,-3.8723,0.6838,0.4463,695.56,798.28,469.54
2490,-3.8719,0.6339,0.4918,-460.69,1126.28,1641.48
2500,-3.8715,0.5820,0.5518,1148.68,-1045.65,907.17
2510,-3.8710,0.5361,0.6218,-1491.94,-1373.90,1844.79
2520,-3.8705,0.4984,0.7003,633.06,-405.21,-842.59
2530,-3.8700,0.4669,0.7823,-195.07,1641.54,-1201.78
2540,-3.8696,0.4324,0.8555,-226.32,141.48,-1201.60
2550,-3.8694,0.3806,0.9189,-648.19,1500.79,-1232.73
2560,-3.8691,0.3104,0.9817,726.81,1625.73,423.65
2570,-3.8690,0.2394,1.0326,-257.57,1656.80,1173.77
2580,-3.8690,0.1892,1.0459,-1351.32,172.30,-247.99
2590,-3.8690,0.1700,1.0162,226.81,1875.37,-1310.49
2600,-3.8691,0.1809,0.9718,1773.68,-1921.57,-982.42
2610,-3.8693,0.2083,0.9493,-835.69,390.93,-1482.48
2620,-3.8694,0.2307,0.9685,-1335.69,1515.99,1798.71
2630,-3.8695,0.2283,1.0178,1539.31,-30.82,1095.58
2640,-3.8696,0.1919,1.0712,1226.81,-1718.32,-1966.80
2650,-3.8696,0.1294,1.1147,570.56,1109.74,1892.70
2660,-3.8696,0.0505,1.1525,570.56,-1312.26,-529.11
2670,-3.8695,-0.0391,1.1986,-1523.19,-484.31,1330.32
2680,-3.8695,-0.1328,1.2495,-991.94,1437.38,-1544.56
2690,-3.8695,-0.2252,1.2743,-991.94,-47.18,1814.88
2700,-3.8696,-0.3151,1.2549,-820.07,-875.49,-1622.56
2710,-3.8699,-0.4021,1.1956,-320.07,639.95,-560.06
2720,-3.8701,-0.4788,1.1136,539.31,1046.08,-1997.68
2730,-3.8705,-0.5333,1.0349,-1273.19,-1438.48,-13.49
2740,-3.8707,-0.5668,0.9790,-257.57,483.28,-1138.61
2750,-3.8710,-0.5964,0.9574,-538.82,1326.97,-91.86
2760,-3.8711,-0.6390,0.9635,-335.69,-1438.72,-404.42
2770,-3.8711,-0.6967,0.9667,-1788.82,-657.53,408.08
2780,-3.8712,-0.7589,0.9496,-1163.82,-251.40,111.21
2790,-3.8715,-0.8159,0.9216,-1132.57,1560.97,1798.71
2800,-3.8717,-0.8700,0.8850,-429.44,1982.73,-1529.48
2810,-3.8719,-0.9264,0.8275,648.68,1295.17,-826.42
2820,-3.8722,-0.9829,0.7440,1429.93,1935.67,-201.54
2830,-3.8723,-1.0317,0.6447,-1804.44,-751.95,407.65
2840,-3.8726,-1.0604,0.5461,-54.44,-1470.83,1673.10
2850,-3.8727,-1.0575,0.4592,273.68,1919.80,407.29
2860,-3.8728,-1.0238,0.3965,648.68,-1205.20,1375.85
2870,-3.8728,-0.9720,0.3724,961.18,-1236.39,641.36
2880,-3.8728,-0.9210,0.3870,-413.82,-314.45,1172.55
2890,-3.8728,-0.8853,0.4241,-1882.57,1545.04,1297.61
2900,-3.8729,-0.8688,0.4545,-1304.44,-1704.90,-264.83
2910,-3.8729,-0.8690,0.4498,804.93,-1814.21,344.60
2920,-3.8732,-0.8800,0.4010,773.68,1592.04,-296.02
2930,-3.8733,-0.8939,0.3190,-632.57,-658.02,-1311.77
2940,-3.8734,-0.9041,0.2278,1586.18,841.98,1875.61
2950,-3.8735,-0.9091,0.1512,289.31,1170.10,1703.55
2960,-3.8737,-0.9071,0.1057,-351.32,-626.83,-562.26
2970,-3.8737,-0.9009,0.0975,-101.32,1545.04,-452.94
2980,-3.8735,-0.9011,0.1250,695.56,498.23,1437.68
2990,-3.8734,-0.9171,0.1783,664.31,13.85,984.62
3000,-3.8733,-0.9468,0.2375,-1382.57,-1158.08,-1937.19
3010,-3.8732,-0.9789,0.2855,-1179.44,-1580.02,-249.57
3020,-3.8729,-1.0013,0.3187,-1288.82,560.55,594.30
3030,-3.8728,-1.0077,0.3398,-163.82,810.49,31.86
3040,-3.8728,-1.0017,0.3499,-976.32,-486.39,-1936.89
3050,-3.8728,-0.9939,0.3536,-210.69,794.86,-1468.08
3060,-3.8728,-0.9878,0.3651,789.31,1279.30,-1577.45
3070,-3.8728,-0.9834,0.3951,1570.56,-1251.95,-827.45
3080,-3.8727,-0.9878,0.4384,-1866.94,-1408.20,953.86
3090,-3.8727,-1.0068,0.4835,1570.56,123.05,-421.02
3100,-3.8726,-1.0376,0.5264,-866.94,1904.24,-217.83
3110,-3.8723,-1.0717,0.5714,-804.44,-611.45,1438.48
3120,-3.8722,-1.0983,0.6262,-1163.82,1154.11,-733.28
3130,-3.8719,-1.1046,0.6934,-570.07,169.68,782.47
3140,-3.8718,-1.0903,0.7678,-1382.57,763.43,-1545.53
3150,-3.8716,-1.0660,0.8409,445.56,-1705.26,751.46
3160,-3.8715,-1.0393,0.8994,-445.07,-345.89,-576.54
3170,-3.8712,-1.0052,0.9377,-1023.19,-861.45,-1451.42
3180,-3.8710,-0.9578,0.9751,-663.82,44.86,-1263.79
3190,-3.8707,-0.9069,1.0344,1414.31,826.23,-498.11
3200,-3.8705,-0.8629,1.1185,-70.07,420.04,-185.49
3210,-3.8702,-0.8165,1.2087,1554.93,-814.21,-935.36
3220,-3.8700,-0.7483,1.2802,-507.57,-1267.27,783.57
3230,-3.8699,-0.6553,1.3246,226.81,-126.46,830.57
3240,-3.8699,-0.5496,1.3455,133.06,1561.22,-700.56
3250,-3.8698,-0.4426,1.3511,1664.31,233.28,455.75
3260,-3.8698,-0.3462,1.3612,-648.19,952.21,221.37
3270,-3.8699,-0.2750,1.3859,-304.44,-1750.73,-1513.00
3280,-3.8700,-0.2380,1.4098,804.93,1405.70,-481.69
3290,-3.8700,-0.2319,1.4171,1539.31,468.26,237.12
3300,-3.8701,-0.2413,1.4167,-1679.44,1405.76,1893.37
3310,-3.8702,-0.2507,1.4165,1117.43,1358.89,-731.63
3320,-3.8704,-0.2510,1.4020,-85.69,1327.58,-1919.13
3330,-3.8706,-0.2297,1.3712,-116.94,-531.80,-1028.56
3340,-3.8708,-0.1803,1.3381,-1398.19,-469.24,-356.75
3350,-3.8710,-0.1097,1.3064,929.93,-703.49,846.31
3360,-3.8712,-0.0242,1.2773,1961.18,-765.87,-1325.62
3370,-3.8713,0.0734,1.2521,914.31,-484.44,846.19
3380,-3.8716,0.1769,1.2321,1398.68,265.75,-1060.06
3390,-3.8717,0.2803,1.2142,-1351.32,1703.43,564.88
3400,-3.8719,0.3809,1.1842,-116.94,-577.64,-1825.81
3410,-3.8721,0.4818,1.1312,758.06,-421.14,752.26
3420,-3.8722,0.5862,1.0596,1679.93,797.79,1142.82
3430,-3.8723,0.6885,0.9840,-960.69,-373.90,-904.24
3440,-3.8723,0.7793,0.9176,133.06,1954.47,1580.02
3450,-3.8724,0.8522,0.8667,-241.94,1454.59,-841.98
3460,-3.8726,0.9105,0.8303,1086.18,-1060.85,-623.35
3470,-3.8727,0.9663,0.8003,554.93,-1716.98,-732.79
3480,-3.8728,1.0175,0.7645,-304.44,-1560.67,-420.35
3490,-3.8729,1.0492,0.7189,-1757.57,1861.33,-670.41
3500,-3.8730,1.0614,0.6671,-1695.07,17.64,1595.15
3510,-3.8733,1.0707,0.6097,-132.57,1392.64,-608.09
3520,-3.8734,1.0823,0.5479,1054.93,-1951.05,-1873.84
3530,-3.8735,1.0846,0.4895,-1460.69,-1872.92,-1795.84
3540,-3.8737,1.0695,0.4459,-1163.82,-1341.67,-420.96
3550,-3.8737,1.0377,0.4276,898.68,1080.20,-1202.27
3560,-3.8735,0.9927,0.4426,836.18,-1263.61,719.54
3570,-3.8734,0.9410,0.4830,-929.44,658.14,188.35
3580,-3.8734,0.8947,0.5206,461.18,1829.96,1844.67
3590,-3.8734,0.8591,0.5367,-1476.32,-1357.67,750.98
3600,-3.8735,0.8210,0.5437,1976.81,704.77,-405.21
3610,-3.8734,0.7561,0.5665,1101.81,1595.34,985.41
3620,-3.8733,0.6572,0.6183,789.31,517.09,-1608.28
3630,-3.8730,0.5461,0.6904,133.06,-858.09,-967.59
3640,-3.8727,0.4502,0.7642,1914.31,376.04,1063.84
3650,-3.8724,0.3754,0.8345,1633.06,1813.35,-451.66
3660,-3.8721,0.3085,0.9160,54.93,-1186.77,1954.71
3670,-3.8717,0.2429,1.0308,-507.57,1250.55,1861.15
3680,-3.8712,0.1879,1.1764,-898.19,-62.07,80.08
3690,-3.8708,0.1539,1.3105,54.93,-1421.51,1096.01
3700,-3.8706,0.1362,1.3868,-288.82,-249.76,2.50
3710,-3.8707,0.1189,1.3955,1445.56,1515.87,-700.44
3720,-3.8708,0.0896,1.3580,-773.19,-1374.82,-1778.56
3730,-3.8710,0.0468,1.3088,-523.19,1828.25,-809.88
3740,-3.8708,0.0112,1.2810,1992.43,-468.69,-731.87
3750,-3.8706,0.0039,1.2830,1445.56,-31.25,-1325.68
3760,-3.8705,0.0155,1.3048,508.06,218.75,1611.88
3770,-3.8706,0.0154,1.3405,1992.43,-984.38,-997.50
3780,-3.8707,-0.0166,1.3820,1976.81,-421.88,-591.19
3790,-3.8707,-0.0808,1.4191,1883.06,906.19,-1762.94
3800,-3.8707,-0.1674,1.4451,1664.31,1656.07,-903.50
3810,-3.8707,-0.2589,1.4548,-1413.82,984.01,-794.07
3820,-3.8707,-0.3375,1.4484,-1132.57,-1766.17,612.18
3830,-3.8710,-0.3975,1.4333,804.93,1405.58,-559.69
3840,-3.8711,-0.4462,1.4170,1133.06,-516.42,1190.25
3850,-3.8713,-0.4872,1.3964,-1101.32,1389.71,-997.25
3860,-3.8715,-0.5132,1.3640,1648.68,-1250.98,440.19
3870,-3.8717,-0.5210,1.3221,-1679.44,-1391.66,-1888.00
3880,-3.8718,-0.5176,1.2772,1320.56,1248.96,-1856.81
3890,-3.8718,-0.5215,1.2313,1758.06,-501.04,1533.69
3900,-3.8718,-0.5529,1.1876,1258.06,1623.96,-1278.87
3910,-3.8718,-0.6178,1.1482,1242.43,30.15,-1419.56
3920,-3.8719,-0.7090,1.1082,929.93,-1016.85,-950.93
3930,-3.8721,-0.8064,1.0660,1258.06,1857.97,1595.89
3940,-3.8722,-0.8875,1.0211,789.31,467.16,1048.95
3950,-3.8723,-0.9474,0.9675,-1585.69,-1283.02,1580.08
3960,-3.8724,-0.9982,0.9006,-1257.57,-142.52,1798.71
3970,-3.8726,-1.0493,0.8192,242.43,-705.08,892.33
3980,-3.8728,-1.1019,0.7242,1695.56,872.92,-1185.91
3990,-3.8729,-1.1576,0.6134,-1038.82,716.55,470.15
4000,-3.8730,-1.2163,0.4847,-163.82,-1471.07,360.53
4010,-3.8732,-1.2721,0.3573,320.56,-1939.88,-1514.71
4020,-3.8733,-1.3175,0.2563,1179.93,1747.50,-171.20
4030,-3.8733,-1.3447,0.1858,-632.57,825.50,1016.11
4040,-3.8734,-1.3486,0.1396,-116.94,-205.81,-155.94
4050,-3.8733,-1.3300,0.1189,-616.94,1887.94,562.74
4060,-3.8733,-1.2925,0.1218,1773.68,-768.25,-1406.07
4070,-3.8732,-1.2407,0.1322,-1429.44,-393.19,828.31
4080,-3.8732,-1.1803,0.1360,1195.56,935.06,-874.76
4090,-3.8730,-1.1180,0.1357,929.93,1419.56,-1687.26
4100,-3.8729,-1.0613,0.1403,898.68,1388.43,-1327.88
4110,-3.8728,-1.0133,0.1549,164.31,1966.67,-452.88
4120,-3.8726,-0.9746,0.1807,-1695.07,-158.26,93.99
4130,-3.8726,-0.9524,0.2069,-741.94,-861.33,-874.69
4140,-3.8724,-0.9510,0.2214,-1898.19,-1501.89,609.74
4150,-3.8724,-0.9675,0.2269,-1726.32,357.48,-1530.82
4160,-3.8723,-0.9974,0.2361,164.31,1060.61,1219.18
4170,-3.8723,-1.0271,0.2538,336.18,-1767.58,-608.95
4180,-3.8722,-1.0369,0.2731,539.31,497.99,328.61
4190,-3.8722,-1.0226,0.2875,-710.69,-1033.33,734.86
4200,-3.8722,-0.9980,0.3065,1117.43,810.49,1625.55
4210,-3.8722,-0.9790,0.3450,258.06,-751.95,-921.33
4220,-3.8721,-0.9727,0.3928,-1304.44,169.92,750.67
4230,-3.8721,-0.9796,0.4320,-491.94,-1705.08,-1421.14
4240,-3.8719,-0.9943,0.4636,-1382.57,-689.45,110.17
4250,-3.8719,-1.0059,0.4946,742.43,-642.58,922.73
4260,-3.8719,-0.9999,0.5293,-741.94,-673.89,860.29
4270,-3.8719,-0.9717,0.5676,23.68,-236.33,500.98
4280,-3.8719,-0.9403,0.6001,-366.94,669.92,438.60
4290,-3.8719,-0.9253,0.6239,-351.32,826.23,751.16
4300,-3.8719,-0.9221,0.6522,1570.56,-126.83,1391.78
4310,-3.8719,-0.9108,0.6985,1976.81,-501.83,-1905.03
4320,-3.8719,-0.8778,0.7610,-570.07,1420.04,-1014.28
4330,-3.8718,-0.8268,0.8313,-351.32,1420.10,688.96
4340,-3.8718,-0.7720,0.9025,-1820.07,-1579.77,-310.91
4350,-3.8717,-0.7206,0.9701,1195.56,-470.28,-388.92
4360,-3.8716,-0.6715,1.0331,-226.32,186.04,-1373.11
4370,-3.8716,-0.6234,1.0898,-1945.07,248.66,-1404.24
4380,-3.8717,-0.5795,1.1400,211.18,-485.60,-247.92
4390,-3.8717,-0.5490,1.1841,1836.18,1936.34,174.07
4400,-3.8718,-0.5297,1.2224,1742.43,-422.97,1236.63
4410,-3.8719,-0.5049,1.2521,211.18,483.34,-513.24
4420,-3.8719,-0.4667,1.2637,-616.94,280.21,-1325.68
4430,-3.8719,-0.4132,1.2583,273.68,1764.71,-1497.56
4440,-3.8719,-0.3362,1.2516,-882.57,1077.27,-44.43
4450,-3.8717,-0.2368,1.2577,976.81,218.08,189.94
4460,-3.8716,-0.1320,1.2758,1695.56,999.51,-1888.18
4470,-3.8715,-0.0341,1.2957,-882.57,-687.81,-1497.56
4480,-3.8715,0.0515,1.3102,-351.32,1859.25,-1106.87
4490,-3.8716,0.1224,1.3151,-1398.19,-296.81,-481.87
4500,-3.8717,0.1832,1.3076,-320.07,328.31,1908.81
4510,-3.8718,0.2410,1.2871,-538.82,-624.69,471.25
4520,-3.8719,0.3024,1.2607,-1148.19,750.43,658.75
4530,-3.8721,0.3752,1.2380,-1288.82,1375.55,-1622.56
4540,-3.8721,0.4587,1.2130,39.31,-1530.52,1814.88
4550,-3.8721,0.5416,1.1809,-1273.19,-733.52,1439.82
4560,-3.8722,0.6205,1.1498,1336.18,-842.71,-482.12
4570,-3.8722,0.7020,1.1196,-570.07,-826.97,502.20
4580,-3.8723,0.7784,1.0795,1867.43,-686.16,1267.76
4590,-3.8724,0.8368,1.0249,-351.32,-1826.66,1533.33
4600,-3.8726,0.8804,0.9655,-882.57,-810.91,1048.83
4610,-3.8727,0.9093,0.9092,695.56,-420.17,1064.33
4620,-3.8728,0.9139,0.8582,398.68,376.77,-123.23
4630,-3.8727,0.8951,0.8190,992.43,1845.52,-1560.85
4640,-3.8726,0.8666,0.7979,-1413.82,829.83,1064.09
4650,-3.8727,0.8392,0.7827,-1070.07,-1873.35,-1029.72
4660,-3.8728,0.8137,0.7578,-570.07,189.09,1610.90
4670,-3.8729,0.7853,0.7250,164.31,1001.59,-1904.79
4680,-3.8729,0.7495,0.6967,523.68,798.40,-1889.22
4690,-3.8729,0.7009,0.6780,-54.44,1173.28,-1170.53
4700,-3.8729,0.6329,0.6647,1726.81,-1217.41,1798.16
4710,-3.8729,0.5499,0.6523,1023.68,1079.35,548.16
4720,-3.8729,0.4680,0.6420,-1601.32,-498.96,1641.85
4730,-3.8728,0.3971,0.6410,-85.69,-1827.27,876.22
4740,-3.8727,0.3336,0.6599,-1163.82,-1952.39,1626.22
4750,-3.8724,0.2756,0.7104,-1288.82,469.36,798.16
4760,-3.8722,0.2361,0.7833,-710.69,-1062.01,1673.22
4770,-3.8719,0.2253,0.8549,-1773.19,266.05,32.78
4780,-3.8719,0.2289,0.9136,851.81,1422.30,-1982.73
4790,-3.8719,0.2244,0.9493,1304.93,937.93,-1716.98
4800,-3.8719,0.2028,0.9517,726.81,1516.05,-670.04
4810,-3.8718,0.1689,0.9290,1961.18,1812.87,1642.46
4820,-3.8717,0.1288,0.9017,1633.06,-1093.44,-1716.98
4830,-3.8715,0.0859,0.8934,492.43,-577.88,-1170.17
4840,-3.8711,0.0371,0.9187,-991.94,-1640.50,48.58
4850,-3.8710,-0.0200,0.9617,758.06,1593.81,-1982.60
4860,-3.8708,-0.0649,0.9930,1445.56,-890.69,376.83
4870,-3.8708,-0.0793,0.9976,-304.44,-875.18,470.64
4880,-3.8708,-0.0769,0.9838,1851.81,-297.06,1611.27
4890,-3.8707,-0.0770,0.9745,-1835.69,1937.32,1814.39
4900,-3.8706,-0.0864,0.9847,-1851.32,749.82,-91.86
4910,-3.8705,-0.1078,1.0094,945.56,-1937.68,-232.48
4920,-3.8705,-0.1407,1.0249,-1788.82,1218.51,-1716.80
4930,-3.8706,-0.1847,1.0170,1992.43,-797.18,970.70
4940,-3.8708,-0.2356,0.9838,367.43,-1812.87,-123.05
4950,-3.8708,-0.2843,0.9141,1851.81,1937.01,-685.61
4960,-3.8706,-0.3235,0.8309,-382.57,1015.01,-1045.10
4970,-3.8704,-0.3752,0.7854,-1398.19,-1625.67,1642.21
4980,-3.8705,-0.4510,0.7761,-23.19,546.08,-951.60
4990,-3.8706,-0.5132,0.7782,-1726.32,-641.54,-201.66
5000,-3.8705,-0.5444,0.7863,-1679.44,-376.04,1907.71
5010,-3.8704,-0.5692,0.7892,-1679.44,655.15,-1310.97
5020,-3.8702,-0.6107,0.7672,-851.32,1030.09,1829.65
5030,-3.8702,-0.6719,0.7144,1836.18,-1782.47,1142.09
5040,-3.8704,-0.7461,0.6396,-1991.94,-548.22,782.59
5050,-3.8706,-0.8256,0.5570,508.06,1889.16,1954.35
5060,-3.8708,-0.9016,0.4746,-1663.82,-689.15,813.54
5070,-3.8712,-0.9646,0.3901,601.81,763.85,1688.42
5080,-3.8716,-1.0013,0.3020,539.31,1951.23,-639.89
5090,-3.8717,-1.0068,0.2289,-163.82,-1330.14,906.80
5100,-3.8718,-0.9945,0.1981,-866.94,1310.49,-1702.70
5110,-3.8718,-0.9855,0.2107,711.18,1373.05,1000.37
5120,-3.8719,-0.9851,0.2317,1867.43,-1017.58,-249.63
5130,-3.8719,-0.9874,0.2316,1914.31,1669.92,-1249.57
5140,-3.8719,-0.9979,0.2101,1617.43,1654.30,1578.55
5150,-3.8721,-1.0221,0.1746,273.68,-1095.70,-546.51
5160,-3.8722,-1.0450,0.1249,1179.93,-1642.64,-140.32
5170,-3.8723,-1.0486,0.0643,-1757.57,-2.08,-343.57
5180,-3.8723,-1.0311,0.0099,1789.31,247.92,687.62
5190,-3.8724,-1.0024,-0.0154,23.68,1279.24,-156.25
5200,-3.8723,-0.9778,0.0034,-304.44,-1955.14,499.94
5210,-3.8723,-0.9647,0.0631,-1148.19,451.17,1718.75
5220,-3.8723,-0.9600,0.1421,523.68,91.86,-46.75
5230,-3.8721,-0.9572,0.2068,1133.06,-1798.77,281.49
5240,-3.8719,-0.9503,0.2400,1492.43,-1517.52,-843.38
5250,-3.8717,-0.9429,0.2507,-1632.57,-1267.52,-983.95
5260,-3.8715,-0.9415,0.2482,-679.44,107.48,1656.74
5270,-3.8713,-0.9387,0.2389,-507.57,-220.64,-1921.45
5280,-3.8713,-0.9318,0.2362,-148.19,-1408.14,-421.45
5290,-3.8713,-0.9268,0.2458,742.43,-1751.83,-1671.45
5300,-3.8713,-0.9185,0.2640,1383.06,-517.46,219.18
5310,-3.8715,-0.8977,0.2863,-1554.44,1810.67,-718.26
5320,-3.8713,-0.8628,0.3112,1101.81,654.48,281.80
5330,-3.8713,-0.8204,0.3390,1570.56,-157.96,-733.83
5340,-3.8711,-0.7789,0.3673,-1007.57,-595.40,422.49
5350,-3.8710,-0.7469,0.4045,304.93,-970.28,-389.95
5360,-3.8707,-0.7312,0.4630,398.68,-204.59,-749.27
5370,-3.8705,-0.7285,0.5295,-1585.69,-720.21,922.73
5380,-3.8705,-0.7269,0.5732,-1241.94,-204.59,-233.40
5390,-3.8704,-0.7157,0.5813,-1038.82,1389.16,1063.60
5400,-3.8704,-0.6904,0.5679,398.68,-1579.53,1969.85
5410,-3.8704,-0.6531,0.5549,-366.94,701.72,-1936.40
5420,-3.8704,-0.6060,0.5590,414.31,-954.41,1141.66
5430,-3.8704,-0.5535,0.5875,-1554.44,-438.72,391.66
5440,-3.8704,-0.5028,0.6371,1164.31,-782.35,-1936.40
5450,-3.8702,-0.4567,0.6960,-351.32,1561.46,-1311.28
5460,-3.8700,-0.4182,0.7520,1554.93,1108.46,610.72
5470,-3.8699,-0.3882,0.7985,-1523.19,264.77,-1295.41
5480,-3.8696,-0.3580,0.8326,-1679.44,-1782.04,1173.40
5490,-3.8695,-0.3192,0.8604,-1820.07,-1406.98,-748.41
5500,-3.8694,-0.2686,0.8849,-851.32,-1860.05,-1092.10
5510,-3.8694,-0.2078,0.8961,1633.06,1280.70,-1092.04
5520,-3.8694,-0.1423,0.8925,1414.31,-1281.68,64.21
5530,-3.8695,-0.0809,0.8860,1789.31,-1750.31,329.83
5540,-3.8696,-0.0293,0.8810,1648.68,1421.69,611.08
5550,-3.8698,0.0171,0.8773,258.06,781.19,1657.96
5560,-3.8698,0.0684,0.8809,-1804.44,296.88,626.71
5570,-3.8698,0.1217,0.9000,758.06,750.12,595.46
5580,-3.8699,0.1730,0.9268,-413.82,-796.69,-482.67
5590,-3.8700,0.2302,0.9440,-1851.32,-1374.69,-154.48
5600,-3.8701,0.2959,0.9435,1476.81,828.55,1595.58
5610,-3.8704,0.3643,0.9124,1883.06,766.17,-1295.04
5620,-3.8705,0.4333,0.8502,-1366.94,781.92,1376.77
5630,-3.8706,0.5049,0.7877,-523.19,828.92,-1185.85
5640,-3.8706,0.5791,0.7552,633.06,829.10,1767.15
5650,-3.8707,0.6591,0.7520,-1866.94,672.97,-326.66
5660,-3.8708,0.7452,0.7554,367.43,251.28,-811.04
5670,-3.8710,0.8304,0.7465,-601.32,688.90,392.09
5680,-3.8712,0.9088,0.7126,-1695.07,-451.54,251.40
5690,-3.8715,0.9777,0.6482,336.18,-779.48,360.72
5700,-3.8717,1.0267,0.5646,1148.68,-1029.36,1766.85
5710,-3.8719,1.0427,0.4840,-570.07,267.58,-202.03
5720,-3.8721,1.0299,0.4213,1476.81,1955.14,1672.79
5730,-3.8723,1.0032,0.3804,-163.82,1923.83,-452.33
5740,-3.8724,0.9657,0.3567,414.31,689.45,-1702.39
5750,-3.8726,0.9174,0.3368,-382.57,1658.08,-1796.20
5760,-3.8727,0.8700,0.3073,1429.93,-888.85,-1499.39
5770,-3.8728,0.8330,0.2733,-632.57,-670.23,-1874.45
5780,-3.8729,0.8014,0.2505,-1366.94,-1014.04,1406.74
5790,-3.8730,0.7678,0.2394,-1413.82,64.03,-1858.89
5800,-3.8730,0.7290,0.2305,-1710.69,-1357.91,1797.30
5810,-3.8729,0.6868,0.2207,1320.56,1501.40,234.80
5820,-3.8728,0.6488,0.2024,-85.69,251.28,422.30
5830,-3.8727,0.6238,0.1650,-945.07,1907.47,1953.49
5840,-3.8724,0.6097,0.1302,-148.19,1126.16,672.18
5850,-3.8722,0.5922,0.1445,-1945.07,673.03,718.99
5860,-3.8719,0.5647,0.2212,-195.07,-1498.90,-1093.51
5870,-3.8716,0.5408,0.3059,289.31,313.60,-874.57
5880,-3.8712,0.5359,0.3282,1226.81,-842.71,-1186.95
5890,-3.8708,0.5477,0.2938,601.81,-1983.34,47.49
5900,-3.8707,0.5563,0.2615,-1882.57,1610.41,-671.33
5910,-3.8705,0.5475,0.2407,-788.82,1469.79,1937.99
5920,-3.8702,0.5283,0.2114,-1913.82,-1186.46,797.30
5930,-3.8701,0.5143,0.1949,-366.94,-936.52,-296.51
5940,-3.8699,0.5111,0.2169,1836.18,954.10,1656.62
5950,-3.8698,0.5085,0.2705,1429.93,-233.40,-1374.63
5960,-3.8695,0.4873,0.3566,1101.81,-1374.02,812.99
5970,-3.8693,0.4336,0.4635,-1616.94,1641.54,-1671.20
5980,-3.8689,0.3579,0.5460,-491.94,-671.08,-280.40
5990,-3.8684,0.2880,0.5758,1820.56,1891.30,-92.71
6000,-3.8679,0.2355,0.5531,867.43,1703.67,-1420.78
6010,-3.8677,0.1963,0.5009,-1851.32,-1202.70,-608.34
6020,-3.8676,0.1663,0.4679,1133.06,109.74,-1514.65
6030,-3.8676,0.1327,0.4799,1289.31,-109.07,-608.52
6040,-3.8674,0.0863,0.5170,992.43,1422.12,250.92
6050,-3.8676,0.0345,0.5603,-945.07,-1828.00,-202.15
6060,-3.8676,-0.0182,0.5894,429.93,-281.19,297.91
6070,-3.8678,-0.0756,0.5698,1679.93,-546.94,1969.85
6080,-3.8680,-0.1368,0.4996,-1663.82,952.94,-1436.40
6090,-3.8683,-0.1964,0.4202,-1507.57,-31.56,-967.83
6100,-3.8685,-0.2463,0.3715,-1132.57,1796.45,-1374.21
6110,-3.8688,-0.2872,0.3599,476.81,-437.99,1953.80
6120,-3.8689,-0.3308,0.3651,-757.57,-1922.49,94.42
6130,-3.8690,-0.3824,0.3698,1664.31,-1250.67,-1733.70
6140,-3.8690,-0.4388,0.3668,-945.07,-657.04,1281.92
6150,-3.8691,-0.4985,0.3519,-163.82,-1032.17,1313.17
6160,-3.8694,-0.5640,0.3279,195.56,1061.52,1485.05
6170,-3.8698,-0.6415,0.2969,-179.44,1983.22,-702.51
6180,-3.8701,-0.7275,0.2545,1898.68,-1985.66,-265.08
6190,-3.8705,-0.8093,0.1991,-1116.94,592.29,-1202.64
6200,-3.8708,-0.8760,0.1294,414.31,1498.41,515.99
6210,-3.8713,-0.9203,0.0505,-116.94,576.35,1797.12
6220,-3.8717,-0.9424,-0.0214,-1788.82,-1517.46,390.69
6230,-3.8721,-0.9475,-0.0732,-616.94,1279.36,-1781.31
6240,-3.8722,-0.9351,-0.1053,-1273.19,-1361.27,577.94
6250,-3.8723,-0.9059,-0.1162,320.56,-1470.58,-1375.24
6260,-3.8723,-0.8689,-0.0981,54.93,1138.85,-1718.99
6270,-3.8723,-0.8307,-0.0684,789.31,-548.58,-1828.37
6280,-3.8723,-0.7993,-0.0620,1679.93,-736.02,1406.07
6290,-3.8724,-0.7897,-0.0841,1695.56,76.54,-656.37
6300,-3.8724,-0.8066,-0.1024,-1070.07,1248.41,1062.32
6310,-3.8724,-0.8290,-0.0973,758.06,-1095.34,890.38
6320,-3.8724,-0.8281,-0.0872,1898.68,-439.15,-1437.74
6330,-3.8724,-0.7947,-0.0922,-1991.94,857.73,-406.43
6340,-3.8724,-0.7404,-0.1113,-1710.69,217.16,-781.43
6350,-3.8724,-0.6869,-0.1276,1242.43,1764.16,-1562.74
6360,-3.8724,-0.6492,-0.1229,86.18,-313.84,-1640.93
6370,-3.8724,-0.6239,-0.0968,914.31,279.97,-15.87
6380,-3.8723,-0.6008,-0.0592,148.68,-376.22,-453.37
6390,-3.8721,-0.5828,-0.0212,-898.19,436.28,406.13
6400,-3.8719,-0.5820,0.0052,1414.31,1295.72,1421.81
6410,-3.8718,-0.5985,0.0162,1508.06,686.34,1781.25
6420,-3.8717,-0.6182,0.0160,-601.32,-1907.47,1812.50
6430,-3.8716,-0.6311,0.0118,883.06,-1938.72,1859.38
6440,-3.8715,-0.6349,0.0100,-773.19,1529.97,-1921.88
6450,-3.8713,-0.6284,0.0159,-1257.57,1295.59,-1609.38
6460,-3.8712,-0.6130,0.0400,-429.44,-1954.41,-953.12
6470,-3.8710,-0.5905,0.0872,1539.31,1139.40,781.31
6480,-3.8708,-0.5634,0.1437,429.93,-829.28,-140.50
6490,-3.8706,-0.5355,0.1840,-101.32,-1594.91,-187.26
6500,-3.8704,-0.5106,0.1837,-538.82,-438.60,-1234.07
6510,-3.8702,-0.4899,0.1459,-1351.32,-469.79,-874.69
6520,-3.8701,-0.4659,0.1000,1304.93,-1313.48,1703.37
6530,-3.8700,-0.4335,0.0737,367.43,811.58,515.81
6540,-3.8699,-0.3964,0.0839,523.68,1452.27,1703.25
6550,-3.8696,-0.3550,0.1304,1273.68,-1250.79,-1218.63
6560,-3.8693,-0.3092,0.1881,-1429.44,702.39,-1296.63
6570,-3.8689,-0.2633,0.2302,429.93,93.14,-1780.88
6580,-3.8687,-0.2260,0.2555,-1695.07,1483.83,-1468.32
6590,-3.8685,-0.2062,0.2755,-913.82,718.26,-437.01
6600,-3.8684,-0.1947,0.2898,1617.43,-719.18,-999.51
6610,-3.8683,-0.1704,0.2924,-913.82,1108.95,1609.92
6620,-3.8683,-0.1299,0.2914,-1804.44,1437.13,-327.58
6630,-3.8682,-0.0847,0.3025,-616.94,1312.19,1234.92
6640,-3.8682,-0.0392,0.3285,1164.31,-1265.81,1672.42
6650,-3.8682,0.0112,0.3663,-1007.57,-1937.62,266.24
6660,-3.8683,0.0679,0.4088,1445.56,-1109.38,1141.30
6670,-3.8684,0.1246,0.4380,695.56,328.25,938.29
6680,-3.8687,0.1777,0.4374,-38.82,62.68,-14.77
6690,-3.8688,0.2361,0.4089,-1241.94,-15.32,-1249.21
6700,-3.8689,0.3088,0.3765,-1773.19,344.18,-1233.58
6710,-3.8689,0.3934,0.3694,-460.69,188.05,610.11
6720,-3.8690,0.4828,0.3953,-1632.57,-718.02,-1546.20
6730,-3.8691,0.5771,0.4349,1804.93,-1405.33,-1858.64
6740,-3.8694,0.6738,0.4609,1883.06,-327.03,-1249.21
6750,-3.8696,0.7488,0.4528,-1741.94,-998.72,1360.23
6760,-3.8700,0.7826,0.4135,-148.19,1954.53,-733.52
6770,-3.8702,0.7871,0.3533,179.93,923.40,438.29
6780,-3.8706,0.7870,0.2793,758.06,1220.28,1578.80
6790,-3.8710,0.7947,0.2153,742.43,-248.47,-30.76
6800,-3.8711,0.8090,0.1835,1726.81,-435.97,78.49
6810,-3.8713,0.8284,0.1804,-445.07,-514.10,1547.18
6820,-3.8716,0.8499,0.1892,-1960.69,-904.66,-577.82
6830,-3.8717,0.8625,0.1884,789.31,220.40,1015.99
6840,-3.8719,0.8589,0.1659,-1585.69,111.02,-1921.51
6850,-3.8722,0.8383,0.1304,1945.56,1236.02,-1405.94
6860,-3.8724,0.8038,0.0953,-695.07,689.09,-1296.63
6870,-3.8727,0.7662,0.0647,-1101.32,204.65,-1171.69
6880,-3.8729,0.7363,0.0410,-1913.82,282.71,-124.88
6890,-3.8730,0.7178,0.0273,-1741.94,1251.40,-1281.19
6900,-3.8732,0.7100,0.0167,-116.94,-498.66,-500.00
6910,-3.8732,0.7070,0.0045,-1116.94,-1858.03,1515.62
6920,-3.8733,0.7012,0.0011,-1491.94,579.47,-31.25
6930,-3.8733,0.6896,0.0143,1758.06,141.97,-937.50
6940,-3.8733,0.6750,0.0330,273.68,1829.47,-937.50
6950,-3.8733,0.6580,0.0421,-1585.69,220.03,-374.94
6960,-3.8732,0.6316,0.0471,226.81,1391.91,1000.06
6970,-3.8730,0.6002,0.0568,851.81,-1967.53,546.94
6980,-3.8729,0.5797,0.0620,836.18,-733.22,-1031.19
6990,-3.8727,0.5828,0.0576,-1788.82,-61.40,-796.81
7000,-3.8724,0.6121,0.0602,-1398.19,-623.90,-484.31
7010,-3.8722,0.6588,0.0840,-1648.19,-295.72,-906.19
7020,-3.8719,0.7070,0.1316,336.18,-1248.72,-1578.00
7030,-3.8717,0.7465,0.1965,-1491.94,845.09,-406.01
7040,-3.8712,0.7736,0.2534,-445.07,1157.65,94.12
7050,-3.8708,0.7800,0.2783,-976.32,438.96,-437.01
7060,-3.8702,0.7629,0.2831,-148.19,-373.54,1141.11
7070,-3.8698,0.7296,0.2926,1664.31,235.84,-827.58
7080,-3.8693,0.6848,0.3047,1398.68,1454.53,-905.70
7090,-3.8688,0.6350,0.3124,-335.69,-998.72,344.30
7100,-3.8684,0.5907,0.3309,1289.31,-14.40,453.67
7110,-3.8682,0.5559,0.3763,-382.57,-1639.53,-702.51
7120,-3.8679,0.5209,0.4457,-835.69,172.91,-264.89
7130,-3.8677,0.4806,0.5115,-1320.07,1047.85,1532.10
7140,-3.8677,0.4413,0.5287,1523.68,1469.67,-702.15
7150,-3.8678,0.4045,0.4807,492.43,-327.27,-952.15
7160,-3.8680,0.3632,0.3981,-210.69,1531.98,-1530.33
7170,-3.8683,0.3187,0.3263,-1507.57,-1046.20,-1811.77
7180,-3.8684,0.2811,0.3024,804.93,1766.24,375.61
7190,-3.8687,0.2509,0.3323,-7.57,-1296.39,-77.58
7200,-3.8687,0.2201,0.3806,117.43,-1468.26,313.11
7210,-3.8688,0.1777,0.4150,179.93,719.18,-1405.52
7220,-3.8688,0.1143,0.4391,-1241.94,1125.31,-514.83
7230,-3.8687,0.0283,0.4586,-1366.94,203.31,1766.48
7240,-3.8685,-0.0731,0.4692,-366.94,-1296.88,94.60
7250,-3.8685,-0.1761,0.4661,-1351.32,77.94,1657.17
7260,-3.8685,-0.2684,0.4391,1461.18,-328.49,750.85
7270,-3.8687,-0.3469,0.3878,1648.68,218.20,32.10
7280,-3.8689,-0.4144,0.3293,-398.19,1655.52,219.48
7290,-3.8693,-0.4738,0.2772,-1038.82,-1828.98,-1577.51
7300,-3.8696,-0.5278,0.2333,-632.57,-500.98,-1015.14
7310,-3.8700,-0.5887,0.2076,445.56,1873.96,1969.18
7320,-3.8704,-0.6743,0.2205,648.68,-1407.41,875.37
7330,-3.8707,-0.7815,0.2522,1695.56,233.03,-671.45
7340,-3.8708,-0.8810,0.2466,-23.19,295.29,-1249.51
7350,-3.8708,-0.9532,0.1865,-757.57,-423.65,141.05
7360,-3.8711,-0.9923,0.0927,1992.43,-111.27,-234.07
7370,-3.8712,-0.9890,-0.0131,992.43,-126.95,562.62
7380,-3.8715,-0.9470,-0.1056,1414.31,-1658.20,62.44
7390,-3.8717,-0.8917,-0.1566,-1210.69,-1501.89,234.13
7400,-3.8719,-0.8425,-0.1591,1867.43,-33.02,-1422.24
7410,-3.8721,-0.7981,-0.1406,164.31,-345.40,-844.12
7420,-3.8721,-0.7543,-0.1255,1851.81,-1985.96,1577.82
7430,-3.8721,-0.7166,-0.1171,-538.82,-48.40,1734.07
7440,-3.8721,-0.6877,-0.1160,289.31,1029.85,-1547.12
7450,-3.8721,-0.6608,-0.1205,-23.19,1170.47,-1828.37
7460,-3.8721,-0.6316,-0.1237,-570.07,592.41,624.76
7470,-3.8722,-0.6074,-0.1212,-835.69,186.22,-1015.87
7480,-3.8722,-0.5948,-0.1155,-1741.94,498.78,-906.49
7490,-3.8721,-0.5878,-0.1117,-132.57,1233.15,1702.88
7500,-3.8719,-0.5765,-0.1094,773.68,1717.59,1343.51
7510,-3.8718,-0.5573,-0.1017,-1788.82,-1985.53,93.51
7520,-3.8718,-0.5387,-0.0829,679.93,-1001.10,1718.51
7530,-3.8718,-0.5353,-0.0587,-945.07,1405.15,-1250.18
7540,-3.8718,-0.5432,-0.0432,-507.57,498.90,-390.75
7550,-3.8717,-0.5480,-0.0358,-1523.19,-1516.72,984.25
7560,-3.8717,-0.5443,-0.0201,1867.43,-563.60,-281.37
7570,-3.8716,-0.5332,0.0057,-1663.82,1436.40,-359.44
7580,-3.8713,-0.5181,0.0322,-241.94,748.90,46.88
7590,-3.8712,-0.5066,0.0625,1695.56,139.59,1093.81
7600,-3.8711,-0.5096,0.1047,-835.69,14.59,-843.63
7610,-3.8708,-0.5210,0.1500,-1226.32,1420.84,-1593.57
7620,-3.8706,-0.5219,0.1813,1320.56,-782.29,-1906.01
7630,-3.8704,-0.5033,0.2000,1211.18,-782.29,1500.31
7640,-3.8701,-0.4701,0.2224,-413.82,1608.34,750.37
7650,-3.8700,-0.4315,0.2518,-163.82,483.40,-499.57
7660,-3.8698,-0.3912,0.2770,773.68,249.15,875.49
7670,-3.8696,-0.3480,0.2938,1929.93,-532.04,672.36
7680,-3.8696,-0.3007,0.3002,-538.82,1624.27,-1093.20
7690,-3.8696,-0.2510,0.2959,1523.68,-1563.11,-265.08
7700,-3.8696,-0.1996,0.2932,-116.94,1890.08,-46.33
7710,-3.8695,-0.1481,0.3026,-1538.82,1546.45,516.17
7720,-3.8695,-0.0975,0.3230,1054.93,-1250.31,-1733.83
7730,-3.8694,-0.0482,0.3473,-476.32,1359.13,969.36
7740,-3.8694,0.0001,0.3693,1836.18,468.63,-264.95
7750,-3.8693,0.0483,0.3884,23.68,-734.38,-1327.45
7760,-3.8691,0.0952,0.4089,-1804.44,1718.81,1703.86
7770,-3.8691,0.1389,0.4255,195.56,343.93,-342.96
7780,-3.8691,0.1799,0.4277,1789.31,-1531.01,-202.33
7790,-3.8691,0.2223,0.4197,-960.69,-1249.69,-1405.46
7800,-3.8691,0.2657,0.4148,461.18,1719.18,844.54
7810,-3.8693,0.3076,0.4182,-1976.32,1094.24,-1046.08
7820,-3.8693,0.3542,0.4236,-616.94,1531.80,1266.42
7830,-3.8694,0.4095,0.4257,1351.81,-1780.58,-655.46
7840,-3.8694,0.4619,0.4285,429.93,-1514.83,813.29
7850,-3.8695,0.5057,0.4320,-866.94,-1155.40,1547.67
7860,-3.8696,0.5471,0.4305,742.43,-702.15,1000.79
7870,-3.8699,0.5862,0.4236,-1960.69,-889.59,-983.58
7880,-3.8701,0.6155,0.4116,-960.69,-1780.15,-280.46
7890,-3.8704,0.6296,0.3922,-1210.69,688.66,-30.46
7900,-3.8705,0.6345,0.3656,601.81,-1795.65,1141.36
7910,-3.8706,0.6390,0.3439,1226.81,-1201.90,0.67
7920,-3.8707,0.6472,0.3378,1804.93,16.85,422.55
7930,-3.8708,0.6606,0.3400,-1148.19,-764.40,1594.36
7940,-3.8710,0.6821,0.3352,570.56,-483.09,1953.74
7950,-3.8711,0.7122,0.3143,-679.44,-1092.47,63.11
7960,-3.8715,0.7402,0.2821,-835.69,235.72,-327.51
7970,-3.8717,0.7524,0.2465,-1241.94,110.78,-1811.95
7980,-3.8719,0.7445,0.2117,320.56,-451.66,1000.43
7990,-3.8722,0.7211,0.1852,-695.07,-904.85,734.74
8000,-3.8724,0.6921,0.1663,304.93,-295.47,1734.68
8010,-3.8727,0.6682,0.1450,601.81,1282.59,-234.07
8020,-3.8728,0.6543,0.1198,1539.31,-1436.22,-1281.01
8030,-3.8729,0.6467,0.0978,-241.94,-670.65,-1109.19
8040,-3.8729,0.6383,0.0873,-1210.69,516.85,765.81
8050,-3.8729,0.6266,0.0934,1711.18,-826.90,750.12
8060,-3.8729,0.6199,0.1085,211.18,-45.65,-1546.75
8070,-3.8728,0.6257,0.1141,-648.19,1891.78,265.81
8080,-3.8728,0.6362,0.1035,101.81,-1389.40,1156.43
8090,-3.8728,0.6384,0.0928,1445.56,1251.22,-1952.94
8100,-3.8727,0.6227,0.1100,1726.81,-123.78,1593.87
8110,-3.8724,0.5929,0.1541,-288.82,-1920.72,1750.18
8120,-3.8721,0.5720,0.1957,-101.32,-280.15,-1437.26
8130,-3.8716,0.5735,0.2274,1226.81,1047.97,-468.38
8140,-3.8710,0.5845,0.2627,1414.31,1110.47,-1343.32
8150,-3.8704,0.5856,0.3047,-1179.44,1626.10,797.36
8160,-3.8700,0.5715,0.3435,-1038.82,-998.90,-108.83
8170,-3.8696,0.5508,0.3680,1164.31,-30.15,-811.89
8180,-3.8694,0.5381,0.3647,-1491.94,-889.59,-1514.95
8190,-3.8693,0.5486,0.3347,883.06,-1311.46,-1218.08
8200,-3.8691,0.5804,0.3108,-1773.19,-1155.21,1172.49
8210,-3.8691,0.6078,0.3212,-1695.07,-217.65,-1811.95
8220,-3.8691,0.6064,0.3555,1804.93,1110.53,-1015.01
8230,-3.8690,0.5737,0.3906,1633.06,1501.16,125.67
8240,-3.8690,0.5170,0.4264,1445.56,-1998.90,1406.98
8250,-3.8690,0.4449,0.4633,-1820.07,-1420.90,1782.04
8260,-3.8691,0.3723,0.4852,961.18,-702.27,-264.77
8270,-3.8693,0.3093,0.4863,-335.69,-1889.95,-1108.46
8280,-3.8694,0.2609,0.4764,-398.19,-1749.45,344.67
8290,-3.8696,0.2305,0.4697,1398.68,984.86,1516.54
8300,-3.8699,0.2148,0.4655,1508.06,125.43,-436.58
8310,-3.8700,0.1996,0.4534,-491.94,-421.51,-1405.40
8320,-3.8701,0.1707,0.4423,1554.93,-1968.38,-1092.90
8330,-3.8701,0.1300,0.4465,1851.81,609.68,1282.10
8340,-3.8701,0.0807,0.4685,648.68,1156.49,-1452.27
8350,-3.8700,0.0188,0.4978,-1663.82,-31.13,-967.90
8360,-3.8698,-0.0531,0.5189,-1585.69,-281.25,1547.79
8370,-3.8696,-0.1306,0.5269,1211.18,-1562.62,-420.90
8380,-3.8695,-0.2150,0.5219,-710.69,-547.18,-1374.02
8390,-3.8695,-0.3048,0.5035,492.43,-1187.93,-1889.65
8400,-3.8696,-0.3933,0.4780,992.43,468.14,-983.40
8410,-3.8698,-0.4783,0.4557,1664.31,1202.33,-1577.21
8420,-3.8699,-0.5663,0.4358,-1210.69,-1657.23,1407.10
8430,-3.8700,-0.6592,0.4070,-476.32,-204.28,1063.29
8440,-3.8701,-0.7460,0.3683,-366.94,108.03,1735.17
8450,-3.8702,-0.8174,0.3342,523.68,-845.21,-1483.70
8460,-3.8704,-0.8821,0.3158,-616.94,-1204.77,1906.86
8470,-3.8706,-0.9517,0.3025,-898.19,435.73,-452.51
8480,-3.8707,-1.0222,0.2710,-1804.44,-1267.52,31.80
8490,-3.8711,-1.0803,0.2115,1164.31,-1298.89,-202.64
8500,-3.8713,-1.1163,0.1346,1726.81,-908.39,-874.63
8510,-3.8716,-1.1281,0.0609,1117.43,1247.80,-1531.01
8520,-3.8718,-1.1167,0.0105,-382.57,-189.76,-1328.06
8530,-3.8719,-1.0782,-0.0048,1070.56,1357.18,1437.50
8540,-3.8721,-1.0155,0.0066,1992.43,-595.89,-796.94
8550,-3.8721,-0.9474,0.0197,-1976.32,857.36,-1875.00
8560,-3.8721,-0.8918,0.0188,-1257.57,-1470.64,671.88
8570,-3.8722,-0.8601,0.0057,1851.81,-1579.90,-1265.62
8580,-3.8722,-0.8492,-0.0104,1914.31,748.29,1140.62
8590,-3.8722,-0.8430,-0.0244,-695.07,-1314.21,249.94
8600,-3.8722,-0.8276,-0.0323,101.81,888.98,46.81
8610,-3.8722,-0.8008,-0.0273,-1929.44,-126.65,687.38
8620,-3.8722,-0.7679,-0.0081,1508.06,514.04,-1593.81
8630,-3.8721,-0.7325,0.0193,1711.18,-1017.15,1234.31
8640,-3.8719,-0.6987,0.0458,-1757.57,-1517.09,1000.00
8650,-3.8718,-0.6759,0.0648,-1429.44,1873.60,1140.69
8660,-3.8717,-0.6693,0.0751,1492.43,311.16,547.00
8670,-3.8717,-0.6765,0.0833,-1663.82,1623.66,-1328.00
8680,-3.8716,-0.6936,0.1003,1414.31,-1329.47,312.62
8690,-3.8716,-0.7175,0.1268,-773.19,857.97,-1359.19
8700,-3.8715,-0.7444,0.1533,164.31,248.60,-1859.13
8710,-3.8713,-0.7671,0.1755,726.81,-360.84,-1187.26
8720,-3.8711,-0.7748,0.1938,1820.56,-1517.15,1015.93
8730,-3.8710,-0.7566,0.2086,836.18,826.60,-62.13
8740,-3.8707,-0.7100,0.2224,-835.69,-1282.78,1859.74
8750,-3.8706,-0.6437,0.2333,1133.06,482.97,-1827.70
8760,-3.8705,-0.5725,0.2406,1617.43,1873.72,1016.05
8770,-3.8705,-0.5154,0.2526,-1273.19,-1188.66,-1093.32
8780,-3.8704,-0.4854,0.2753,-1960.69,342.71,891.11
8790,-3.8704,-0.4778,0.3033,1883.06,-750.98,-390.14
8800,-3.8702,-0.4753,0.3315,-1148.19,-1157.23,-593.20
8810,-3.8700,-0.4606,0.3654,-835.69,-1547.85,797.49
8820,-3.8699,-0.4238,0.4027,1054.93,-1219.67,-639.95
8830,-3.8696,-0.3627,0.4275,1758.06,-438.35,1156.98
8840,-3.8695,-0.2828,0.4336,1586.18,-1266.36,750.79
8850,-3.8695,-0.1947,0.4298,-195.07,-484.99,-1842.96
8860,-3.8695,-0.1080,0.4265,-913.82,-969.18,1797.67
8870,-3.8695,-0.0262,0.4332,-1820.07,-1390.87,438.29
8880,-3.8696,0.0486,0.4509,648.68,-531.31,-1296.08
8890,-3.8696,0.1130,0.4689,-1773.19,1718.81,782.10
8900,-3.8698,0.1643,0.4823,-1523.19,15.81,-827.21
8910,-3.8698,0.2053,0.4894,1039.31,1734.68,-1358.46
8920,-3.8698,0.2439,0.4858,-1710.69,-1359.01,-342.83
8930,-3.8696,0.2842,0.4811,-773.19,-1812.07,1844.67
8940,-3.8695,0.3270,0.4884,383.06,1578.67,329.04
8950,-3.8695,0.3787,0.5055,1867.43,-1483.76,1907.17
8960,-3.8695,0.4390,0.5210,476.81,703.86,1641.60
8970,-3.8696,0.4933,0.5273,195.56,-1311.65,-827.15
8980,-3.8698,0.5319,0.5168,-851.32,-499.08,-1639.65
8990,-3.8700,0.5538,0.4889,86.18,-1842.71,-311.52
9000,-3.8701,0.5614,0.4575,-1101.32,-1420.84,954.04
9010,-3.8704,0.5627,0.4357,-132.57,-1436.46,-296.02
9020,-3.8705,0.5717,0.4257,39.31,-233.28,-14.83
9030,-3.8705,0.5977,0.4288,1179.93,-1514.53,797.67
9040,-3.8706,0.6375,0.4462,508.06,-1108.22,1782.04
9050,-3.8707,0.6824,0.4670,1601.81,1110.60,-592.90
9060,-3.8707,0.7238,0.4691,-648.19,-217.47,1125.85
9070,-3.8708,0.7535,0.4355,648.68,48.28,1000.92
9080,-3.8711,0.7676,0.3768,461.18,-248.54,1907.04
9090,-3.8713,0.7646,0.3202,-1741.94,235.84,922.61
9100,-3.8716,0.7468,0.2805,1883.06,985.84,63.11
9110,-3.8718,0.7233,0.2528,-398.19,-92.35,625.49
9120,-3.8721,0.7067,0.2312,586.18,360.78,-1280.76
9130,-3.8722,0.7018,0.2219,-1538.82,1595.09,-1858.95
9140,-3.8723,0.7034,0.2302,1836.18,407.59,-1030.82
9150,-3.8723,0.7037,0.2485,-1960.69,1470.09,1094.18
9160,-3.8724,0.7004,0.2618,-1913.82,-186.16,-93.32
9170,-3.8724,0.6956,0.2643,1664.31,1516.97,-1312.01
9180,-3.8724,0.6886,0.2609,1039.31,1829.47,1797.36
9190,-3.8724,0.6785,0.2637,148.68,1391.97,-468.26
9200,-3.8722,0.6677,0.2887,-1148.19,1751.28,1391.11
9210,-3.8719,0.6586,0.3420,1476.81,954.41,-1390.08
9220,-3.8716,0.6494,0.4097,304.93,-217.47,1656.86
9230,-3.8712,0.6337,0.4771,-866.94,438.72,-1796.08
9240,-3.8708,0.6005,0.5393,1117.43,1063.72,-420.96
9250,-3.8705,0.5381,0.5858,867.43,1032.41,-905.21
9260,-3.8702,0.4536,0.6071,883.06,-1014.59,-1045.78
9270,-3.8701,0.3690,0.5973,-1929.44,1703.98,-358.22
9280,-3.8700,0.3029,0.5627,-757.57,453.80,-1170.72
9290,-3.8699,0.2633,0.5331,-1226.32,31.80,-1952.03
9300,-3.8698,0.2458,0.5448,1711.18,234.86,-1592.71
9310,-3.8696,0.2354,0.6030,-523.19,1734.80,-389.59
9320,-3.8695,0.2131,0.6711,-1866.94,1187.93,-326.97
9330,-3.8694,0.1707,0.7113,-710.69,1906.62,860.66
9340,-3.8695,0.1094,0.7139,1851.81,-952.82,-1045.53
9350,-3.8696,0.0295,0.6942,-1991.94,-624.82,-967.41
9360,-3.8698,-0.0664,0.6747,-210.69,859.38,-1029.91
9370,-3.8698,-0.1654,0.6659,-491.94,-1625.18,329.41
9380,-3.8699,-0.2524,0.6650,-1163.82,1249.63,-701.84
9390,-3.8699,-0.3262,0.6611,-304.44,1140.08,-936.22
9400,-3.8699,-0.3907,0.6456,-1741.94,639.95,-842.47
9410,-3.8699,-0.4481,0.6223,1992.43,-1344.54,-920.65
9420,-3.8699,-0.5052,0.6034,-1351.32,-329.04,-1936.34
9430,-3.8699,-0.5710,0.5956,-663.82,1248.96,563.66
9440,-3.8700,-0.6455,0.5863,-1085.69,248.84,-826.97
9450,-3.8700,-0.7168,0.5570,1383.06,-938.78,1407.35
9460,-3.8701,-0.7723,0.5054,258.06,-688.90,-1827.09
9470,-3.8702,-0.8118,0.4448,1148.68,701.60,1110.35
9480,-3.8705,-0.8433,0.3878,101.81,951.54,-1092.90
9490,-3.8706,-0.8737,0.3396,70.56,1654.60,578.86
9500,-3.8708,-0.9045,0.3047,179.93,-517.33,-921.26
9510,-3.8710,-0.9371,0.2839,226.81,-986.15,-1108.83
9520,-3.8711,-0.9689,0.2661,54.93,357.54,-155.70
9530,-3.8711,-0.9928,0.2450,-7.57,-1923.83,875.49
9540,-3.8712,-1.0066,0.2264,929.93,-626.95,1375.43
9550,-3.8713,-1.0186,0.2155,-835.69,997.99,1687.93
9560,-3.8715,-1.0320,0.2041,1633.06,-408.26,-1843.38
9570,-3.8716,-1.0291,0.1766,-85.69,-1861.45,-1312.13
9580,-3.8717,-0.9948,0.1316,289.31,-1377.01,-1609.07
9590,-3.8718,-0.9382,0.0801,679.93,857.42,218.99
9600,-3.8721,-0.8784,0.0328,-85.69,-1736.27,1015.75
9610,-3.8723,-0.8243,-0.0031,-429.44,216.98,-1140.56
9620,-3.8724,-0.7808,-0.0203,-1507.57,-376.65,-1093.81
9630,-3.8724,-0.7526,-0.0153,70.56,1420.35,765.56
9640,-3.8724,-0.7371,0.0063,-320.07,-1939.03,359.31
9650,-3.8724,-0.7288,0.0349,1664.31,826.66,1484.38
9660,-3.8724,-0.7284,0.0619,-1273.19,482.91,-1234.31
9670,-3.8724,-0.7338,0.0793,-1226.32,-63.96,-374.94
9680,-3.8723,-0.7421,0.0834,-1913.82,-1829.59,765.75
9690,-3.8723,-0.7565,0.0812,1023.68,-1313.96,-1843.63
9700,-3.8723,-0.7786,0.0820,-820.07,-1595.28,-781.13
9710,-3.8723,-0.8049,0.0900,351.81,-1485.90,-296.75
9720,-3.8722,-0.8315,0.1115,976.81,-470.34,453.25
9730,-3.8722,-0.8550,0.1506,1570.56,-1720.40,-1077.94
9740,-3.8721,-0.8707,0.1943,-1429.44,-704.83,-640.38
9750,-3.8718,-0.8759,0.2227,554.93,888.92,687.87
9760,-3.8717,-0.8711,0.2380,-101.32,513.85,-1843.32
9770,-3.8716,-0.8643,0.2623,508.06,-1517.33,-249.57
9780,-3.8713,-0.8632,0.3097,1383.06,1592.04,1781.74
9790,-3.8712,-0.8649,0.3693,1523.68,-345.46,-140.08
9800,-3.8710,-0.8596,0.4091,1304.93,-720.46,1219.42
9810,-3.8708,-0.8401,0.4154,1976.81,373.29,1688.29
9820,-3.8707,-0.8096,0.4075,476.81,1185.85,1188.29
9830,-3.8706,-0.7732,0.4054,383.06,170.29,360.17
9840,-3.8705,-0.7332,0.4238,1039.31,-95.28,422.61
9850,-3.8704,-0.6954,0.4746,-1835.69,-1735.84,1407.04
9860,-3.8702,-0.6614,0.5515,-1007.57,764.22,-1467.83
9870,-3.8701,-0.6204,0.6354,-648.19,-1391.97,-405.21
9880,-3.8699,-0.5640,0.7068,601.81,1342.53,360.60
9890,-3.8698,-0.4974,0.7518,-179.44,-1516.78,360.72
9900,-3.8698,-0.4296,0.7745,336.18,249.02,-592.29
9910,-3.8696,-0.3634,0.7876,1023.68,-844.60,1345.21
9920,-3.8696,-0.2944,0.7957,1492.43,827.39,-1982.85
9930,-3.8696,-0.2157,0.8021,-1679.44,1858.76,-1951.60
9940,-3.8696,-0.1245,0.8145,398.68,-1312.93,-1670.35
9950,-3.8696,-0.0269,0.8390,70.56,265.38,-1264.04
9960,-3.8696,0.0688,0.8706,570.56,-593.81,-1514.04
9970,-3.8696,0.1573,0.8965,820.56,-562.38,736.02
9980,-3.8698,0.2329,0.9058,148.68,-1249.69,939.21
9990,-3.8700,0.2888,0.8912,1820.56,-62.07,-451.42
10000,-3.8701,0.3245,0.8533,976.81,-1921.33,1970.46
10010,-3.8702,0.3442,0.8066,1539.31,1219.36,1689.15
10020,-3.8704,0.3551,0.7731,70.56,-749.33,-717.22
10030,-3.8704,0.3730,0.7627,1461.18,-1046.20,-1561.04
10040,-3.8704,0.4148,0.7690,-241.94,1625.67,-1592.29
10050,-3.8704,0.4844,0.7744,1101.81,-1561.71,-1951.66
10060,-3.8705,0.5708,0.7589,-1991.94,-874.08,-311.04
10070,-3.8706,0.6592,0.7180,1070.56,1141.72,-1357.91
10080,-3.8708,0.7363,0.6632,383.06,-92.47,-61.16
10090,-3.8710,0.7937,0.6021,-1741.94,892.03,751.28
10100,-3.8712,0.8269,0.5397,1601.81,1064.03,1626.16
10110,-3.8715,0.8368,0.4851,1851.81,1079.71,-1280.21
10120,-3.8717,0.8334,0.4432,-882.57,-1904.66,-77.21
10130,-3.8718,0.8259,0.4070,-1320.07,735.96,1110.23
10140,-3.8721,0.8157,0.3695,1726.81,95.34,-1233.58
10150,-3.8722,0.8015,0.3361,414.31,-701.54,938.17
10160,-3.8724,0.7833,0.3074,-1398.19,-982.85,-858.76
10170,-3.8726,0.7649,0.2791,273.68,-654.72,1797.42
10180,-3.8727,0.7490,0.2504,1914.31,-279.79,1469.24
10190,-3.8728,0.7333,0.2238,-116.94,48.28,-1530.76
10200,-3.8728,0.7192,0.2017,1867.43,642.03,703.55
10210,-3.8729,0.7086,0.1874,70.56,1813.90,-780.88
10220,-3.8729,0.6964,0.1893,-1288.82,-14.28,-1546.57
10230,-3.8728,0.6833,0.2124,1148.68,235.72,109.74
10240,-3.8727,0.6757,0.2493,-523.19,-811.22,187.87
10250,-3.8726,0.6688,0.2938,-1507.57,-92.47,-1858.95
10260,-3.8723,0.6514,0.3473,1617.43,1610.66,-1108.83
10270,-3.8719,0.6195,0.4034,-616.94,454.35,-639.95
10280,-3.8715,0.5747,0.4534,-695.07,-358.22,1844.48
10290,-3.8710,0.5161,0.5120,1570.56,-1967.65,219.60
10300,-3.8706,0.4501,0.5886,-1929.44,1532.23,-1795.90
10310,-3.8702,0.3895,0.6530,1617.43,-655.40,-1264.53
10320,-3.8700,0.3390,0.6761,1867.43,-421.14,-701.90
10330,-3.8699,0.2928,0.6660,-601.32,-1452.51,-1295.59
10340,-3.8699,0.2542,0.6427,1492.43,1250.55,-889.34
10350,-3.8699,0.2405,0.6185,539.31,-1733.89,-623.78
10360,-3.8699,0.2565,0.6042,-1210.69,-827.70,-76.97
10370,-3.8699,0.2820,0.6074,836.18,1344.24,-14.47
10380,-3.8699,0.2933,0.6240,101.81,1750.55,-201.97
10390,-3.8698,0.2815,0.6459,1554.93,-124.45,16.78
10400,-3.8698,0.2533,0.6714,39.31,-1327.58,548.10
10410,-3.8698,0.2163,0.6979,429.93,1937.99,610.66
10420,-3.8698,0.1775,0.7175,-304.44,1328.49,391.97
10430,-3.8698,0.1378,0.7285,-1273.19,-155.94,423.22
10440,-3.8698,0.0890,0.7350,1648.68,1250.24,595.15
10450,-3.8698,0.0281,0.7437,-601.32,-1921.75,798.28
10460,-3.8698,-0.0404,0.7566,-398.19,-812.50,470.15
10470,-3.8699,-0.1097,0.7634,-1163.82,859.25,-1154.79
10480,-3.8699,-0.1752,0.7540,1961.18,1734.13,329.59
10490,-3.8700,-0.2366,0.7338,1586.18,530.88,-1920.41
10500,-3.8700,-0.2922,0.7216,1726.81,1937.01,642.03
10510,-3.8701,-0.3407,0.7262,-1398.19,374.39,-607.97
10520,-3.8701,-0.3855,0.7384,398.68,968.08,1860.78
10530,-3.8701,-0.4329,0.7477,-1335.69,-1469.54,595.15
10540,-3.8702,-0.4886,0.7478,601.81,-282.10,-748.60
10550,-3.8702,-0.5560,0.7351,1461.18,-266.60,720.15
10560,-3.8704,-0.6364,0.7113,836.18,-1891.72,907.65
10570,-3.8705,-0.7291,0.6775,-1445.07,-938.78,470.09
10580,-3.8707,-0.8295,0.6293,-1320.07,-1267.09,-373.72
10590,-3.8708,-0.9246,0.5675,1836.18,560.85,-1998.78
10600,-3.8711,-0.9996,0.5007,1664.31,654.42,-764.53
10610,-3.8713,-1.0460,0.4364,54.93,107.42,-311.52
10620,-3.8715,-1.0638,0.3807,-1882.57,-127.08,157.04
10630,-3.8717,-1.0631,0.3376,-163.82,747.86,1172.61
10640,-3.8719,-1.0562,0.3007,-70.07,-767.76,-983.76
10650,-3.8721,-1.0497,0.2622,820.56,-1502.08,1656.80
10660,-3.8722,-1.0444,0.2208,1648.68,1576.05,1109.86
10670,-3.8723,-1.0424,0.1775,-1679.44,279.17,1547.30
10680,-3.8724,-1.0453,0.1365,-1413.82,-1267.70,-1046.57
10690,-3.8724,-1.0487,0.1068,-1788.82,1482.30,1500.24
10700,-3.8724,-1.0413,0.0907,1773.68,1685.42,593.93
10710,-3.8726,-1.0140,0.0817,-1273.19,-377.08,-640.50
10720,-3.8726,-0.9708,0.0773,-1788.82,-1533.26,1890.75
10730,-3.8726,-0.9236,0.0775,-257.57,1904.30,812.62
10740,-3.8726,-0.8829,0.0780,1789.31,1935.67,359.50
10750,-3.8726,-0.8574,0.0734,-1007.57,1998.23,250.12
10760,-3.8726,-0.8531,0.0654,-1741.94,1404.54,703.25
10770,-3.8726,-0.8676,0.0654,-1195.07,388.92,1984.50
10780,-3.8724,-0.8898,0.0845,961.18,388.92,172.00
10790,-3.8724,-0.9124,0.1184,-1882.57,-1173.65,-124.88
10800,-3.8722,-0.9307,0.1571,-773.19,-829.96,1718.93
10810,-3.8719,-0.9435,0.1956,883.06,123.17,1125.31
10820,-3.8717,-0.9531,0.2319,-757.57,1044.98,625.37
10830,-3.8716,-0.9548,0.2681,-1991.94,1701.23,-1280.82
10840,-3.8715,-0.9406,0.3033,1789.31,-1673.77,-1155.76
10850,-3.8713,-0.9095,0.3328,-382.57,-1158.14,1750.55
10860,-3.8712,-0.8722,0.3519,-413.82,-1392.46,531.86
10870,-3.8711,-0.8378,0.3608,367.43,1060.79,219.42
10880,-3.8710,-0.8049,0.3734,773.68,-1798.52,1438.17
10890,-3.8708,-0.7690,0.4027,976.81,-189.09,-436.83
10900,-3.8706,-0.7286,0.4449,1570.56,-439.03,1485.11
10910,-3.8705,-0.6846,0.4908,-1257.57,967.29,-1217.90
10920,-3.8702,-0.6376,0.5288,383.06,-1157.59,219.67
10930,-3.8701,-0.5876,0.5494,-1601.32,-298.16,-1342.77
10940,-3.8699,-0.5352,0.5598,789.31,-1657.41,-1592.71
10950,-3.8696,-0.4794,0.5742,-491.94,-329.22,-1623.96
10960,-3.8694,-0.4166,0.5974,-1351.32,1514.65,719.85
10970,-3.8693,-0.3442,0.6259,-1320.07,483.52,594.91
10980,-3.8693,-0.2616,0.6539,-54.44,124.27,-1733.15
10990,-3.8693,-0.1770,0.6769,-1476.32,-281.80,-1873.78
11000,-3.8693,-0.1024,0.6956,1351.81,-1344.12,548.16
11010,-3.8694,-0.0446,0.7106,-1101.32,1046.63,1954.47
11020,-3.8695,-0.0055,0.7190,-1695.07,-1031.37,-1467.41
11030,-3.8696,0.0160,0.7197,-695.07,46.81,-1498.60
11040,-3.8698,0.0266,0.7156,-1945.07,125.00,-1857.97
11050,-3.8699,0.0355,0.7098,-585.69,-406.25,-1920.53
11060,-3.8700,0.0526,0.7046,554.93,-1140.56,-764.28
11070,-3.8700,0.0847,0.7062,-1257.57,-1812.44,-1951.78
11080,-3.8700,0.1309,0.7219,-1148.19,-1609.25,-1717.41
11090,-3.8700,0.1866,0.7466,758.06,406.49,-842.35
11100,-3.8699,0.2485,0.7690,-101.32,-437.19,63.90
11110,-3.8699,0.3120,0.7849,-179.44,-1562.07,720.21
11120,-3.8699,0.3734,0.7943,-54.44,469.30,735.90
11130,-3.8700,0.4299,0.7930,-195.07,1672.55,-342.22
11140,-3.8700,0.4807,0.7745,-960.69,1500.79,1235.90
11150,-3.8701,0.5289,0.7410,1539.31,-858.46,1360.84
11160,-3.8702,0.5768,0.7009,-288.82,-1155.27,142.03
11170,-3.8705,0.6254,0.6619,1836.18,1719.85,1907.59
11180,-3.8707,0.6736,0.6274,54.93,719.97,-983.09
11190,-3.8710,0.7180,0.5962,-1773.19,313.78,-358.15
11200,-3.8712,0.7537,0.5630,-85.69,313.84,-264.47
11210,-3.8715,0.7765,0.5245,476.81,63.96,-748.90
11220,-3.8717,0.7859,0.4794,-601.32,-857.91,-1842.77
11230,-3.8719,0.7834,0.4260,601.81,1360.90,1016.54
11240,-3.8722,0.7722,0.3698,289.31,-1467.22,813.29
11250,-3.8724,0.7584,0.3192,-1148.19,-670.41,-1905.58
11260,-3.8726,0.7457,0.2811,1086.18,860.84,688.11
11270,-3.8727,0.7356,0.2563,-538.82,-14.22,234.86
11280,-3.8728,0.7312,0.2402,-1835.69,813.90,469.24
11290,-3.8729,0.7322,0.2271,1601.81,-1248.60,1312.93
11300,-3.8730,0.7327,0.2078,1726.81,1063.90,-1358.95
11310,-3.8730,0.7241,0.1827,1789.31,-1404.85,672.24
11320,-3.8730,0.7051,0.1720,695.56,-607.97,750.31
11330,-3.8730,0.6875,0.1814,-1741.94,-1983.03,-124.69
11340,-3.8728,0.6819,0.1993,8.06,-779.91,-1780.94
11350,-3.8726,0.6852,0.2269,-710.69,1516.91,-624.63
11360,-3.8722,0.6854,0.2681,-288.82,1048.16,-1718.32
11370,-3.8718,0.6741,0.3228,-257.57,-1686.22,-1687.01
11380,-3.8715,0.6415,0.3892,-1710.69,1313.78,-1749.39
11390,-3.8711,0.5829,0.4528,-1882.57,1813.72,1266.36
11400,-3.8707,0.5087,0.5017,-1382.57,1954.22,813.35
11410,-3.8704,0.4314,0.5461,1117.43,219.73,1125.98
11420,-3.8700,0.3593,0.5885,-773.19,1907.04,672.91
11430,-3.8698,0.3014,0.6106,1992.43,-671.20,-1483.28
11440,-3.8695,0.2649,0.6086,-1413.82,-1843.20,1985.53
11450,-3.8694,0.2448,0.5980,1914.31,1906.74,-1342.59
11460,-3.8693,0.2319,0.5901,-663.82,547.30,782.41
11470,-3.8693,0.2224,0.5887,1695.56,-468.32,1329.22
11480,-3.8693,0.2119,0.5958,476.81,-640.20,985.47
11490,-3.8693,0.1919,0.6067,-866.94,265.99,32.41
11500,-3.8694,0.1556,0.6147,570.56,1656.62,-967.59
11510,-3.8694,0.1040,0.6189,-70.07,-1312.26,-1639.47
11520,-3.8694,0.0472,0.6223,1320.56,-781.07,-1905.09
11530,-3.8694,-0.0070,0.6310,-1945.07,-343.69,1235.53
11540,-3.8695,-0.0642,0.6425,-882.57,781.19,-998.78
11550,-3.8695,-0.1323,0.6490,-210.69,-1750.18,548.10
11560,-3.8696,-0.2128,0.6548,-929.44,-906.56,-639.40
11570,-3.8696,-0.2982,0.6636,773.68,-172.30,-701.90
11580,-3.8696,-0.3793,0.6604,1836.18,952.51,-717.47
11590,-3.8696,-0.4502,0.6328,-538.82,546.08,-1358.09
11600,-3.8696,-0.5120,0.5925,-1616.94,1014.71,829.35
11610,-3.8698,-0.5648,0.5591,-1523.19,-141.66,1360.47
11620,-3.8699,-0.6080,0.5391,-288.82,-423.03,657.29
11630,-3.8701,-0.6493,0.5270,-1820.07,1014.40,-358.34
11640,-3.8702,-0.7026,0.5129,898.68,-532.53,-1452.15
11650,-3.8704,-0.7762,0.4928,-1929.44,1670.47,735.35
11660,-3.8706,-0.8663,0.4683,648.68,-907.78,1329.04
11670,-3.8708,-0.9572,0.4360,1117.43,-48.58,282.10
11680,-3.8712,-1.0360,0.3916,1492.43,-173.77,-1499.21
11690,-3.8715,-1.1010,0.3372,-601.32,-1861.45,1578.86
11700,-3.8717,-1.1521,0.2764,-913.82,-830.32,-1499.39
11710,-3.8718,-1.1853,0.2109,539.31,-611.63,672.36
11720,-3.8721,-1.1929,0.1481,289.31,-986.69,-671.51
11730,-3.8722,-1.1736,0.1007,-679.44,-1033.63,-1718.51
11740,-3.8723,-1.1332,0.0780,1789.31,903.93,1765.81
11750,-3.8724,-1.0757,0.0730,-1038.82,1997.74,-1390.50
11760,-3.8724,-1.0062,0.0692,-1679.44,1357.24,922.00
11770,-3.8726,-0.9368,0.0618,-788.82,872.99,-234.25
11780,-3.8726,-0.8833,0.0565,101.81,-79.96,-1749.94
11790,-3.8727,-0.8578,0.0509,-1054.44,-751.77,-515.56
11800,-3.8728,-0.8623,0.0371,-1788.82,-1470.46,-249.94
11810,-3.8728,-0.8907,0.0182,1633.06,763.92,1109.44
11820,-3.8728,-0.9297,0.0070,1992.43,-1658.02,1781.25
11830,-3.8727,-0.9619,0.0143,1008.06,904.42,1906.25
11840,-3.8724,-0.9747,0.0420,883.06,1841.86,250.00
11850,-3.8722,-0.9713,0.0859,-757.57,1388.67,93.81
11860,-3.8719,-0.9692,0.1323,-320.07,-986.33,265.75
11870,-3.8718,-0.9730,0.1582,-54.44,951.17,-984.13
11880,-3.8717,-0.9711,0.1642,-538.82,263.67,-202.82
11890,-3.8716,-0.9552,0.1694,-288.82,1029.30,-1077.82
11900,-3.8715,-0.9213,0.1790,1742.43,1701.23,1047.18
11910,-3.8715,-0.8698,0.1960,-1913.82,-1079.96,-296.57
11920,-3.8713,-0.8107,0.2283,679.93,1107.67,-296.51
11930,-3.8711,-0.7585,0.2684,242.43,1232.79,219.18
11940,-3.8710,-0.7205,0.3031,-1085.69,-1626.53,1250.49
11950,-3.8708,-0.6951,0.3361,-210.69,-1188.96,-468.20
11960,-3.8706,-0.6826,0.3732,-960.69,-970.15,-1436.89
11970,-3.8704,-0.6782,0.4099,633.06,-220.09,1469.42
11980,-3.8701,-0.6709,0.4487,1195.56,483.03,266.42
11990,-3.8700,-0.6544,0.4906,-1866.94,1451.78,-1092.90
12000,-3.8698,-0.6239,0.5236,242.43,-1188.78,829.04
12010,-3.8696,-0.5763,0.5415,148.68,-969.97,1985.35
12020,-3.8695,-0.5139,0.5564,-1757.57,1326.97,-1030.21
12030,-3.8694,-0.4364,0.5776,-1773.19,-766.66,-467.71
12040,-3.8693,-0.3453,0.6036,148.68,1952.27,-1092.65
12050,-3.8691,-0.2458,0.6259,-195.07,1280.52,751.16
12060,-3.8691,-0.1469,0.6375,539.31,124.51,766.85
12070,-3.8693,-0.0612,0.6440,1211.18,1609.07,-858.15
12080,-3.8693,0.0004,0.6528,179.93,-1547.00,251.22
12090,-3.8694,0.0386,0.6592,54.93,-437.50,266.85
12100,-3.8696,0.0627,0.6545,945.56,375.06,-373.72
12110,-3.8698,0.0758,0.6412,39.31,-218.63,-795.65
12120,-3.8699,0.0769,0.6277,1711.18,-1921.75,-701.90
12130,-3.8700,0.0764,0.6139,1851.81,343.87,-592.53
12140,-3.8701,0.0886,0.6005,1789.31,-1421.75,-248.84
12150,-3.8701,0.1219,0.5947,-648.19,859.50,954.28
12160,-3.8702,0.1790,0.5978,-382.57,125.18,-1420.72
12170,-3.8704,0.2550,0.6006,-1085.69,515.93,-295.72
12180,-3.8704,0.3390,0.5929,648.68,875.49,157.41
12190,-3.8705,0.4192,0.5739,-601.32,-108.76,813.60
12200,-3.8706,0.4922,0.5511,1664.31,1453.92,-1639.53
12210,-3.8706,0.5621,0.5304,-991.94,-1452.21,626.04
12220,-3.8707,0.6343,0.5096,-38.82,-108.34,-1077.15
12230,-3.8707,0.7109,0.4857,1195.56,1235.60,891.60
12240,-3.8708,0.7905,0.4630,-991.94,-1826.78,-1170.96
12250,-3.8708,0.8674,0.4465,1195.56,-732.85,625.85
12260,-3.8710,0.9342,0.4277,-960.69,1157.90,1203.98
12270,-3.8711,0.9783,0.4015,-413.82,-1248.23,375.79
12280,-3.8713,0.9915,0.3707,1226.81,-607.48,-561.77
12290,-3.8715,0.9813,0.3372,-1085.69,-544.98,-593.08
12300,-3.8715,0.9573,0.3091,1617.43,-841.86,500.61
12310,-3.8716,0.9257,0.2931,-1460.69,-435.67,-1436.95
12320,-3.8716,0.8893,0.2836,-1507.57,1517.40,1156.80
12330,-3.8716,0.8475,0.2778,1836.18,298.58,656.80
12340,-3.8716,0.7970,0.2847,492.43,-435.85,-1718.26
12350,-3.8715,0.7332,0.3054,-1976.32,439.03,-1515.08
12360,-3.8712,0.6594,0.3300,1851.81,-904.85,578.67
12370,-3.8711,0.5872,0.3545,414.31,-1764.34,-233.76
12380,-3.8708,0.5292,0.3804,-835.69,1376.10,-905.58
12390,-3.8706,0.4940,0.4001,-257.57,688.48,1266.36
12400,-3.8705,0.4832,0.4097,-757.57,-780.33,1860.11
12410,-3.8704,0.4910,0.4189,1851.81,438.42,1094.54
12420,-3.8704,0.5028,0.4342,-1148.19,1625.92,-1077.33
12430,-3.8704,0.5020,0.4492,367.43,-420.90,-374.21
12440,-3.8704,0.4797,0.4589,258.06,1500.98,-92.90
12450,-3.8702,0.4344,0.4701,1414.31,-1264.71,485.23
12460,-3.8702,0.3676,0.4895,-382.57,172.67,1688.42
12470,-3.8701,0.2870,0.5157,-945.07,-1343.08,47.79
12480,-3.8700,0.2030,0.5493,742.43,-1983.83,297.85
12490,-3.8699,0.1213,0.5892,1992.43,-1687.13,1860.41
12500,-3.8698,0.0387,0.6295,-460.69,-577.94,-530.15
12510,-3.8695,-0.0475,0.6665,961.18,578.19,423.10
12520,-3.8694,-0.1274,0.6932,1929.93,1328.00,141.91
12530,-3.8694,-0.1919,0.7010,-304.44,749.69,1798.22
12540,-3.8694,-0.2424,0.6924,-554.44,1749.57,985.72
12550,-3.8695,-0.2881,0.6752,976.81,640.14,-1545.53
12560,-3.8696,-0.3378,0.6526,-866.94,-1563.11,-670.59
12570,-3.8698,-0.3960,0.6243,773.68,-453.80,-498.78
12580,-3.8699,-0.4625,0.5907,1320.56,-78.92,-1358.22
12590,-3.8700,-0.5275,0.5562,804.93,-375.92,1704.22
12600,-3.8701,-0.5752,0.5173,492.43,-797.91,-1748.96
12610,-3.8701,-0.5928,0.4828,-1616.94,-1766.78,407.23
12620,-3.8702,-0.5756,0.4645,133.06,1811.34,-1858.46
12630,-3.8704,-0.5322,0.4424,-1663.82,-532.41,1157.10
12640,-3.8706,-0.4882,0.3989,-116.94,639.53,1188.35
12650,-3.8708,-0.4760,0.3457,1523.68,-922.85,547.61
12660,-3.8711,-0.5051,0.3073,-913.82,264.65,-1358.70
12670,-3.8711,-0.5530,0.2977,-648.19,-657.29,1391.17
12680,-3.8711,-0.5951,0.3103,1226.81,-1876.10,-124.45
12690,-3.8710,-0.6324,0.3300,-163.82,-266.85,-140.08
12700,-3.8707,-0.6843,0.3434,-945.07,-1751.28,203.74
12710,-3.8707,-0.7621,0.3403,414.31,-32.59,-1108.76
12720,-3.8707,-0.8490,0.3104,-1538.82,-423.40,938.11
12730,-3.8710,-0.9171,0.2581,-663.82,-251.71,-1718.20
12740,-3.8712,-0.9558,0.2018,-1382.57,1045.04,1187.99
12750,-3.8716,-0.9658,0.1437,1664.31,1841.86,-1234.01
12760,-3.8719,-0.9457,0.0732,383.06,-1595.64,-671.63
12770,-3.8722,-0.9033,-0.0028,-1038.82,1388.73,109.50
12780,-3.8726,-0.8601,-0.0662,383.06,-345.52,-640.69
12790,-3.8727,-0.8329,-0.0978,1914.31,-454.83,-609.56
12800,-3.8726,-0.8317,-0.0829,1398.68,-501.65,234.13
12810,-3.8726,-0.8629,-0.0331,1554.93,1404.60,-1312.68
12820,-3.8726,-0.9127,0.0068,1554.93,-220.46,-234.50
12830,-3.8726,-0.9521,0.0024,-820.07,888.79,-625.00
12840,-3.8726,-0.9712,-0.0374,-1866.94,326.23,-1875.00
12850,-3.8727,-0.9672,-0.0914,-304.44,-767.58,-265.75
12860,-3.8727,-0.9355,-0.1412,211.18,310.61,702.94
12870,-3.8728,-0.8861,-0.1635,258.06,1935.67,-1406.56
12880,-3.8728,-0.8302,-0.1449,-1413.82,-908.02,-1203.49
12890,-3.8727,-0.7740,-0.0887,1742.43,1467.10,1859.07
12900,-3.8726,-0.7275,-0.0134,929.93,654.72,-859.56
12910,-3.8723,-0.7041,0.0598,-1116.94,-1704.59,1187.44
12920,-3.8722,-0.7196,0.1155,1883.06,-329.53,-1390.56
12930,-3.8721,-0.7761,0.1355,-101.32,-1204.59,-1812.32
12940,-3.8719,-0.8507,0.1138,664.31,1357.85,359.62
12950,-3.8719,-0.9158,0.0795,-882.57,-1423.58,-937.32
12960,-3.8718,-0.9568,0.0660,-1210.69,-1814.33,-1124.88
12970,-3.8717,-0.9633,0.0790,1539.31,466.86,-874.88
12980,-3.8716,-0.9266,0.1136,711.18,-1876.89,-234.25
12990,-3.8713,-0.8574,0.1708,1398.68,-1439.33,1031.43
13000,-3.8712,-0.7821,0.2412,-1741.94,1873.29,-1234.07
13010,-3.8710,-0.7194,0.3036,-101.32,-1110.96,1094.18
13020,-3.8707,-0.6814,0.3472,-70.07,-1126.46,172.42
13030,-3.8706,-0.6729,0.3817,789.31,451.78,-46.20
13040,-3.8702,-0.6833,0.4226,1883.06,873.66,313.23
13050,-3.8700,-0.6960,0.4686,539.31,-1891.97,719.54
13060,-3.8698,-0.6925,0.5016,-1085.69,-1.40,532.10
13070,-3.8696,-0.6591,0.5146,-632.57,217.35,-467.77
13080,-3.8694,-0.5940,0.5275,-351.32,1889.28,1719.73
13090,-3.8693,-0.5052,0.5592,-23.19,-469.97,-1139.65
13100,-3.8691,-0.4036,0.6077,-663.82,-407.29,-1342.71
13110,-3.8690,-0.2983,0.6573,351.81,1796.08,548.03
13120,-3.8690,-0.1956,0.6862,1820.56,155.64,48.16
13130,-3.8691,-0.0983,0.6772,-1023.19,-156.68,1891.91
13140,-3.8691,-0.0101,0.6479,-570.07,-1297.12,407.53
13150,-3.8691,0.0670,0.6351,-1288.82,-1046.94,1048.10
13160,-3.8691,0.1389,0.6512,586.18,1297.00,-1217.53
13170,-3.8691,0.2144,0.6846,1789.31,-640.38,-248.78
13180,-3.8691,0.2913,0.7207,-554.44,-374.63,-1639.34
13190,-3.8693,0.3590,0.7391,1289.31,250.55,1798.28
13200,-3.8695,0.4092,0.7220,1961.18,-1389.95,-295.47
13210,-3.8696,0.4427,0.6809,383.06,422.67,-904.85
13220,-3.8696,0.4701,0.6399,679.93,-842.90,720.03
13230,-3.8698,0.5081,0.6125,179.93,1907.17,-483.15
13240,-3.8698,0.5701,0.6042,1039.31,-1592.77,-1701.97
13250,-3.8699,0.6537,0.6123,976.81,1344.85,-280.09
13260,-3.8700,0.7432,0.6255,-320.07,-1623.78,-1233.22
13270,-3.8702,0.8196,0.6252,-866.94,63.90,-436.28
13280,-3.8705,0.8699,0.5990,914.31,32.84,-842.53
13290,-3.8707,0.8928,0.5532,-648.19,673.52,-467.59
13300,-3.8708,0.8976,0.4952,-1710.69,-1185.79,1485.41
13310,-3.8710,0.9052,0.4312,-1101.32,-607.67,297.79
13320,-3.8712,0.9280,0.3794,-132.57,-810.79,-421.08
13330,-3.8713,0.9562,0.3517,-1210.69,564.27,-514.89
13340,-3.8713,0.9824,0.3418,-1601.32,1017.46,110.05
13350,-3.8715,1.0093,0.3389,1758.06,-248.11,875.61
13360,-3.8716,1.0342,0.3328,1195.56,-623.05,844.36
13370,-3.8718,1.0458,0.3186,383.06,-1404.24,-343.14
13380,-3.8719,1.0288,0.2960,1867.43,783.26,-1780.64
13390,-3.8721,0.9786,0.2695,-304.44,1892.58,1844.30
13400,-3.8722,0.9034,0.2559,1273.68,-1498.11,-890.14
13410,-3.8722,0.8151,0.2676,-351.32,751.71,-1265.14
13420,-3.8721,0.7294,0.2996,336.18,-1748.41,-1983.89
13430,-3.8718,0.6567,0.3387,1367.43,-1654.85,813.05
13440,-3.8716,0.5973,0.3773,70.56,-639.34,-1999.39
13450,-3.8712,0.5458,0.4222,461.18,298.03,781.98
13460,-3.8710,0.4945,0.4785,1867.43,-1952.09,-374.21
13470,-3.8706,0.4391,0.5319,-695.07,1250.92,1219.67
13480,-3.8704,0.3813,0.5712,211.18,78.98,-1811.46
13490,-3.8701,0.3250,0.6028,820.56,1110.11,-545.78
13500,-3.8698,0.2764,0.6313,1601.81,1156.86,438.66
13510,-3.8696,0.2423,0.6504,-616.94,812.99,-670.65
13520,-3.8695,0.2197,0.6543,-976.32,-749.57,-967.53
13530,-3.8695,0.2003,0.6433,133.06,-249.57,-30.03
13540,-3.8695,0.1774,0.6318,1648.68,-1655.88,-498.78
13550,-3.8695,0.1450,0.6384,-1288.82,875.31,-1030.03
13560,-3.8695,0.1014,0.6633,-1429.44,1718.99,-467.53
13570,-3.8694,0.0474,0.6932,992.43,906.43,1563.78
13580,-3.8694,-0.0212,0.7148,-1929.44,734.44,-467.41
13590,-3.8693,-0.1022,0.7220,1289.31,-484.44,95.09
13600,-3.8694,-0.1846,0.7177,-1070.07,437.26,-607.97
13610,-3.8694,-0.2627,0.7092,383.06,-125.37,1798.22
13620,-3.8695,-0.3428,0.7031,-1616.94,-1203.67,-451.78
13630,-3.8695,-0.4338,0.6971,133.06,-1985.05,485.72
13640,-3.8696,-0.5361,0.6882,476.81,1249.15,313.84
13650,-3.8699,-0.6410,0.6793,-616.94,108.28,-264.28
13660,-3.8700,-0.7397,0.6676,1961.18,-1032.53,-529.97
13670,-3.8701,-0.8270,0.6449,1320.56,1467.29,-514.34
13680,-3.8702,-0.9017,0.6191,-1851.32,-1439.15,-108.15
13690,-3.8702,-0.9672,0.5990,586.18,-736.15,641.78
13700,-3.8704,-1.0219,0.5721,211.18,685.61,1438.66
13710,-3.8705,-1.0597,0.5198,1211.18,1247.99,1157.35
13720,-3.8707,-1.0818,0.4379,367.43,-1455.20,-1842.77
13730,-3.8710,-1.0957,0.3453,1539.31,60.36,516.48
13740,-3.8713,-1.1029,0.2651,-241.94,216.55,-1889.95
13750,-3.8716,-1.0950,0.2032,-1163.82,1950.93,0.49
13760,-3.8719,-1.0625,0.1571,-148.19,-1970.95,-1749.63
13770,-3.8722,-1.0144,0.1227,8.06,122.92,1062.81
13780,-3.8724,-0.9742,0.0951,-1835.69,-283.26,687.68
13790,-3.8727,-0.9557,0.0703,-695.07,185.55,1375.18
13800,-3.8729,-0.9570,0.0454,1679.93,1013.73,-687.38
13810,-3.8730,-0.9720,0.0223,1508.06,1826.23,-1562.44
13820,-3.8732,-0.9969,0.0015,-413.82,-1126.95,-984.38
13830,-3.8732,-1.0262,-0.0214,398.68,201.17,921.88
13840,-3.8733,-1.0509,-0.0480,648.68,1279.24,-765.69
13850,-3.8733,-1.0620,-0.0735,1492.43,1872.92,1421.75
13860,-3.8734,-1.0552,-0.0924,70.56,-1392.70,-609.56
13870,-3.8734,-1.0306,-0.1033,945.56,185.42,1281.07
13880,-3.8734,-0.9933,-0.0984,86.18,-1205.14,577.88
13890,-3.8734,-0.9514,-0.0664,867.43,-580.08,-1453.37
13900,-3.8733,-0.9080,-0.0133,-1773.19,-486.27,-1672.06
13910,-3.8732,-0.8647,0.0392,-210.69,-1689.33,-1437.56
13920,-3.8730,-0.8303,0.0785,1320.56,1029.54,-1078.06
13930,-3.8729,-0.8192,0.1058,1726.81,-1939.15,-296.75
13940,-3.8727,-0.8372,0.1252,-851.32,1560.85,531.43
13950,-3.8726,-0.8722,0.1385,851.81,45.23,953.37
13960,-3.8724,-0.9052,0.1499,367.43,1748.29,1297.12
13970,-3.8723,-0.9260,0.1671,148.68,-798.65,-1843.51
13980,-3.8721,-0.9330,0.1913,1476.81,1404.42,15.93
13990,-3.8719,-0.9218,0.2222,586.18,498.17,-1187.13
14000,-3.8717,-0.8926,0.2640,-1976.32,451.29,-1796.45
14010,-3.8715,-0.8536,0.3177,1758.06,1810.73,-1890.14
14020,-3.8712,-0.8099,0.3822,-1257.57,685.79,-1046.26
14030,-3.8708,-0.7650,0.4458,336.18,935.91,219.48
14040,-3.8706,-0.7272,0.4918,-1913.82,1076.60,657.10
14050,-3.8705,-0.7017,0.5228,-1070.07,-1032.71,-170.96
14060,-3.8702,-0.6813,0.5430,-1804.44,-1063.90,1844.73
14070,-3.8701,-0.6570,0.5519,804.93,1514.28,-1217.71
14080,-3.8700,-0.6277,0.5645,-85.69,-1345.09,-530.21
14090,-3.8698,-0.5891,0.5891,-335.69,264.34,501.10
14100,-3.8696,-0.5323,0.6174,601.81,-579.28,1626.10
14110,-3.8695,-0.4540,0.6392,-132.57,-954.22,-1811.34
14120,-3.8694,-0.3596,0.6531,1898.68,1827.21,1860.60
14130,-3.8693,-0.2615,0.6644,1976.81,-391.36,688.72
14140,-3.8693,-0.1685,0.6794,-1460.69,1061.95,-1264.34
14150,-3.8691,-0.0808,0.7010,-1554.44,-1015.99,126.28
14160,-3.8691,0.0081,0.7179,1664.31,1749.82,735.72
14170,-3.8691,0.0973,0.7167,1039.31,-109.38,79.47
14180,-3.8693,0.1743,0.7001,461.18,-265.44,1782.59
14190,-3.8694,0.2306,0.6775,-1679.44,1609.68,1813.84
14200,-3.8695,0.2673,0.6499,1523.68,-1280.82,985.66
14210,-3.8696,0.2916,0.6215,-1773.19,-812.01,1110.60
14220,-3.8698,0.3134,0.6078,1336.18,-452.58,-420.72
14230,-3.8698,0.3470,0.6187,117.43,1797.49,-170.72
14240,-3.8696,0.4071,0.6385,429.93,-811.83,157.41
14250,-3.8698,0.4987,0.6426,117.43,1735.17,-717.53
14260,-3.8698,0.6116,0.6274,-163.82,-1749.08,1407.47
14270,-3.8699,0.7299,0.6012,-1710.69,313.66,-1014.40
14280,-3.8699,0.8413,0.5696,1429.93,954.53,126.16
14290,-3.8700,0.9392,0.5378,-304.44,907.84,532.35
14300,-3.8702,1.0209,0.5090,226.81,845.58,-639.59
14310,-3.8704,1.0823,0.4821,-1320.07,1158.20,469.73
14320,-3.8706,1.1177,0.4504,-1460.69,1705.20,360.29
14330,-3.8710,1.1221,0.4122,-929.44,1658.39,-467.90
14340,-3.8712,1.0984,0.3728,-366.94,767.76,-1358.58
14350,-3.8715,1.0549,0.3354,601.81,-279.11,-1624.33
14360,-3.8717,1.0028,0.3002,-960.69,-1060.49,-640.01
14370,-3.8718,0.9537,0.2694,367.43,-1576.17,1703.67
14380,-3.8719,0.9131,0.2507,-1913.82,-1513.79,1094.24
14390,-3.8721,0.8789,0.2455,883.06,95.52,1406.74
14400,-3.8722,0.8458,0.2451,508.06,-576.42,-1108.95
14410,-3.8722,0.8058,0.2487,273.68,-623.35,-1749.57
14420,-3.8721,0.7549,0.2620,-851.32,-170.35,109.80
14430,-3.8719,0.6990,0.2822,633.06,1532.71,672.36
14440,-3.8718,0.6429,0.3055,1476.81,126.34,-405.70
14450,-3.8716,0.5852,0.3407,-1695.07,-889.40,-61.95
14460,-3.8712,0.5208,0.3981,-1085.69,-389.53,1141.24
14470,-3.8710,0.4490,0.4678,-1335.69,-1045.90,-764.89
14480,-3.8706,0.3749,0.5322,1476.81,-124.15,-1983.52
14490,-3.8702,0.3024,0.5879,-7.57,125.67,1391.66
14500,-3.8699,0.2385,0.6251,-1288.82,-749.45,282.35
14510,-3.8696,0.1934,0.6277,-1460.69,16.05,438.72
14520,-3.8695,0.1685,0.6041,758.06,344.12,923.10
14530,-3.8695,0.1561,0.5831,1570.56,1328.43,-1014.47
14540,-3.8694,0.1500,0.5796,-7.57,-1359.13,360.47
14550,-3.8694,0.1445,0.5920,-788.82,-1812.26,1610.47
14560,-3.8694,0.1230,0.6227,-1491.94,-218.51,-1952.03
14570,-3.8694,0.0682,0.6625,-241.94,-296.69,1782.41
14580,-3.8694,-0.0199,0.6851,742.43,797.00,1813.78
14590,-3.8694,-0.1296,0.6816,1461.18,-296.94,-1639.34
14600,-3.8694,-0.2555,0.6697,-585.69,-734.68,-1811.22
14610,-3.8694,-0.3937,0.6559,-695.07,1733.83,485.66
14620,-3.8695,-0.5287,0.6294,1617.43,-32.04,1735.60
14630,-3.8696,-0.6384,0.5929,336.18,577.09,-1342.53
14640,-3.8698,-0.7126,0.5599,-1710.69,-95.03,-873.90
14650,-3.8699,-0.7592,0.5355,789.31,-313.90,-1373.96
14660,-3.8700,-0.7883,0.5146,-1163.82,560.97,1251.04
14670,-3.8702,-0.8029,0.4883,-898.19,1889.04,-561.52
14680,-3.8704,-0.8030,0.4485,1242.43,-1485.96,1922.79
14690,-3.8705,-0.7931,0.3928,1226.81,1420.29,1172.73
14700,-3.8706,-0.7805,0.3293,-1507.57,-1704.71,922.61
14710,-3.8707,-0.7714,0.2704,101.81,-1829.65,891.24
14720,-3.8708,-0.7662,0.2211,1273.68,-1376.53,1062.99
14730,-3.8710,-0.7568,0.1758,1929.93,310.97,1469.18
14740,-3.8711,-0.7351,0.1357,-866.94,-1485.90,-1718.44
14750,-3.8712,-0.7026,0.1094,1914.31,1389.16,-1077.88
14760,-3.8713,-0.6643,0.0931,-1929.44,-1985.78,-1687.32
14770,-3.8715,-0.6295,0.0701,-1023.19,-63.84,578.25
14780,-3.8717,-0.6132,0.0367,-570.07,983.09,-1656.13
14790,-3.8718,-0.6254,0.0088,1523.68,717.53,125.06
14800,-3.8721,-0.6636,-0.0068,-38.82,1139.34,-1750.00
14810,-3.8722,-0.7153,-0.0208,-929.44,-860.72,484.31
14820,-3.8724,-0.7667,-0.0414,445.56,1357.97,-1625.06
14830,-3.8726,-0.8092,-0.0693,1867.43,-1282.78,93.63
14840,-3.8728,-0.8414,-0.0988,429.93,-860.96,1906.07
14850,-3.8730,-0.8667,-0.1219,304.93,-626.65,-234.62
14860,-3.8732,-0.8925,-0.1420,1070.56,404.54,1109.13
14870,-3.8734,-0.9231,-0.1633,1773.68,1841.98,-1797.18
14880,-3.8735,-0.9485,-0.1921,1851.81,-892.46,437.13
14890,-3.8737,-0.9592,-0.2290,-1398.19,-580.02,843.32
14900,-3.8737,-0.9567,-0.2565,1226.81,-1298.77,280.76
14910,-3.8737,-0.9425,-0.2520,1554.93,-814.39,-1422.42
14920,-3.8735,-0.9152,-0.2070,-632.57,-236.27,-1500.55
14930,-3.8734,-0.8701,-0.1426,-1132.57,1513.79,-1031.68
14940,-3.8733,-0.8116,-0.0906,633.06,1763.92,-406.56
14950,-3.8730,-0.7600,-0.0619,117.43,420.29,749.82
14960,-3.8729,-0.7368,-0.0477,-1273.19,92.22,-1781.37
14970,-3.8728,-0.7406,-0.0427,1695.56,1904.79,-656.37
14980,-3.8727,-0.7506,-0.0469,1211.18,-1454.59,-0.12
14990,-3.8724,-0.7513,-0.0522,-70.07,-1985.90,390.50
15000,-3.8723,-0.7408,-0.0490,-163.82,1326.60,828.00
15010,-3.8722,-0.7267,-0.0336,1179.93,1748.54,1968.63
15020,-3.8719,-0.7150,-0.0062,-1007.57,-282.71,562.38
15030,-3.8717,-0.7047,0.0408,492.43,-782.65,546.81
15040,-3.8715,-0.6904,0.1069,1804.93,1232.97,1015.69
15050,-3.8712,-0.6708,0.1681,-366.94,1701.72,1359.56
15060,-3.8710,-0.6501,0.2090,-1851.32,1529.91,1406.56
15070,-3.8707,-0.6340,0.2362,789.31,-1235.66,703.49
15080,-3.8706,-0.6259,0.2557,-1148.19,-1751.28,-1374.57
15090,-3.8705,-0.6239,0.2776,-101.32,748.72,-280.76
15100,-3.8702,-0.6217,0.3140,148.68,-454.35,937.99
15110,-3.8701,-0.6090,0.3611,429.93,201.90,-1249.39
15120,-3.8699,-0.5763,0.4113,-1945.07,-1766.85,1578.80
15130,-3.8696,-0.5222,0.4596,-1757.57,655.09,563.29
15140,-3.8695,-0.4572,0.5004,1164.31,-1157.29,-1811.65
15150,-3.8694,-0.3962,0.5367,1492.43,61.58,-1842.77
15160,-3.8693,-0.3484,0.5690,1289.31,717.96,1094.79
15170,-3.8693,-0.3126,0.5880,-585.69,843.02,-717.65
15180,-3.8691,-0.2777,0.5846,-7.57,-719.42,735.47
15190,-3.8691,-0.2322,0.5663,461.18,-1156.80,1751.10
15200,-3.8691,-0.1747,0.5594,-1710.69,499.51,-1295.78
15210,-3.8691,-0.1069,0.5750,1648.68,-375.37,-998.96
15220,-3.8691,-0.0317,0.5992,-1679.44,1609.13,954.22
15230,-3.8694,0.0444,0.6125,-54.44,718.63,-358.22
15240,-3.8696,0.1108,0.6029,1695.56,-1593.69,-108.22
15250,-3.8699,0.1565,0.5741,-1804.44,1172.06,-30.09
15260,-3.8700,0.1781,0.5426,39.31,1484.68,-1577.03
15270,-3.8700,0.1871,0.5258,-1195.07,1453.43,891.66
15280,-3.8700,0.2094,0.5311,-38.82,-702.82,-889.65
15290,-3.8699,0.2684,0.5554,-1195.07,-15.26,-1233.40
15300,-3.8698,0.3699,0.5907,-1632.57,-905.76,1329.16
15310,-3.8698,0.5000,0.6224,-648.19,-389.95,1219.85
15320,-3.8699,0.6339,0.6337,8.06,-327.15,1516.78
15330,-3.8701,0.7440,0.6165,1148.68,1110.60,-1561.28
15340,-3.8704,0.8151,0.5645,-757.57,-1092.35,1501.16
15350,-3.8706,0.8501,0.4865,336.18,251.59,610.47
15360,-3.8708,0.8612,0.4216,820.56,-1732.73,1407.17
15370,-3.8710,0.8618,0.3998,-1757.57,1970.40,328.92
15380,-3.8711,0.8630,0.4122,-1679.44,-826.48,1047.61
15390,-3.8712,0.8752,0.4287,-1523.19,767.27,-733.58
15400,-3.8712,0.9060,0.4270,39.31,-1123.29,1907.04
15410,-3.8713,0.9482,0.4048,-23.19,-1342.04,-764.83
15420,-3.8715,0.9827,0.3684,1383.06,-185.67,-1561.77
15430,-3.8717,0.9938,0.3278,1789.31,-841.86,-108.70
15440,-3.8718,0.9724,0.2936,-788.82,1955.02,875.61
15450,-3.8721,0.9197,0.2717,476.81,1580.02,-874.45
15460,-3.8722,0.8474,0.2643,1726.81,-1216.98,-249.51
15470,-3.8722,0.7708,0.2742,476.81,1829.77,-999.51
15480,-3.8721,0.7009,0.3015,-1335.69,-904.79,437.99
15490,-3.8721,0.6447,0.3425,1726.81,-1404.91,-108.83
15500,-3.8718,0.6063,0.3855,-1476.32,-155.03,1344.36
15510,-3.8716,0.5818,0.4197,1617.43,1344.91,203.86
15520,-3.8715,0.5582,0.4441,-1523.19,1719.85,-14.83
15530,-3.8711,0.5201,0.4608,-538.82,844.79,141.48
15540,-3.8708,0.4594,0.4806,-1413.82,-1014.65,500.85
15550,-3.8706,0.3805,0.5120,-1195.07,1516.48,1219.67
15560,-3.8704,0.2917,0.5474,711.18,1531.98,-1952.15
15570,-3.8701,0.2023,0.5736,1351.81,-1936.95,-1514.59
15580,-3.8699,0.1206,0.5834,1898.68,1422.24,1782.35
15590,-3.8698,0.0494,0.5859,-554.44,-1327.94,-608.28
15600,-3.8696,-0.0148,0.5907,-1663.82,-999.94,-717.65
15610,-3.8695,-0.0729,0.5906,-1882.57,-375.06,-1983.28
15620,-3.8695,-0.1182,0.5776,-1320.07,-390.81,-30.15
15630,-3.8694,-0.1475,0.5553,883.06,1952.88,672.97
15640,-3.8694,-0.1697,0.5306,1133.06,-906.56,1.04
15650,-3.8695,-0.1984,0.5090,-1710.69,-62.87,-1545.90
15660,-3.8695,-0.2410,0.4976,-1382.57,1171.45,907.23
15670,-3.8696,-0.2954,0.4921,1164.31,-297.36,-155.33
15680,-3.8696,-0.3512,0.4781,-1804.44,-1000.61,-795.96
15690,-3.8696,-0.3958,0.4585,-945.07,1218.02,-499.08
15700,-3.8695,-0.4243,0.4471,1351.81,-1297.67,891.48
15710,-3.8695,-0.4399,0.4478,1695.56,1249.15,-1592.90
15720,-3.8695,-0.4464,0.4508,-304.44,1327.21,-842.90
15730,-3.8695,-0.4492,0.4449,-1132.57,1717.83,-1530.40
15740,-3.8696,-0.4559,0.4271,-1491.94,967.83,-327.27
15750,-3.8698,-0.4708,0.3990,1648.68,-1313.42,-1671.08
15760,-3.8700,-0.4929,0.3635,-257.57,-907.23,-1389.89
15770,-3.8702,-0.5255,0.3262,914.31,-1454.10,1453.80
15780,-3.8706,-0.5709,0.2927,742.43,1764.59,-374.39
15790,-3.8708,-0.6266,0.2655,-1070.07,1483.22,1641.17
15800,-3.8711,-0.6898,0.2468,-195.07,1998.72,594.24
15810,-3.8713,-0.7532,0.2324,-288.82,-392.03,984.80
15820,-3.8716,-0.8022,0.2042,-398.19,1764.10,-1702.70
15830,-3.8718,-0.8276,0.1532,1320.56,-1845.34,-280.88
15840,-3.8719,-0.8328,0.0886,-1929.44,-376.65,953.37
15850,-3.8722,-0.8256,0.0234,1414.31,-642.27,-1593.63
15860,-3.8723,-0.8101,-0.0277,-1663.82,-986.02,1187.50
15870,-3.8724,-0.7885,-0.0543,320.56,467.16,-1968.81
15880,-3.8726,-0.7679,-0.0585,-913.82,1060.91,-218.87
15890,-3.8726,-0.7561,-0.0542,1711.18,529.72,499.88
15900,-3.8728,-0.7560,-0.0560,-773.19,1076.60,-140.75
15910,-3.8729,-0.7698,-0.0696,-757.57,842.22,-500.12
15920,-3.8729,-0.7954,-0.0962,1476.81,-892.15,374.82
15930,-3.8730,-0.8265,-0.1309,-1804.44,-298.46,1937.26
15940,-3.8730,-0.8586,-0.1548,-1788.82,-736.02,171.57
15950,-3.8732,-0.8844,-0.1580,-1898.19,201.42,-390.93
15960,-3.8730,-0.8934,-0.1515,-1195.07,-204.90,343.38
15970,-3.8730,-0.8866,-0.1459,1648.68,623.23,-1797.18
15980,-3.8729,-0.8733,-0.1392,-1476.32,1341.98,1171.57
15990,-3.8728,-0.8606,-0.1161,226.81,-1798.58,718.44
16000,-3.8727,-0.8497,-0.0730,1851.81,1154.54,124.76
16010,-3.8727,-0.8358,-0.0294,-757.57,-1329.83,-422.06
16020,-3.8726,-0.8207,-0.0013,1023.68,248.35,-281.31
16030,-3.8723,-0.8181,0.0164,-1038.82,-157.90,109.31
16040,-3.8722,-0.8339,0.0360,-710.69,-1892.27,468.75
16050,-3.8721,-0.8585,0.0605,1273.68,623.35,1171.94
16060,-3.8719,-0.8824,0.0889,-1882.57,-236.08,-1890.56
16070,-3.8718,-0.8965,0.1202,-945.07,-611.15,-937.38
16080,-3.8716,-0.8943,0.1543,1258.06,-595.52,203.31
16090,-3.8715,-0.8774,0.1923,1539.31,-236.15,1859.62
16100,-3.8713,-0.8557,0.2319,-304.44,623.23,-374.63
16110,-3.8711,-0.8411,0.2705,-1523.19,1701.42,1141.05
16120,-3.8710,-0.8384,0.3108,351.81,-1361.02,-1390.14
16130,-3.8707,-0.8423,0.3584,695.56,-204.77,266.17
16140,-3.8706,-0.8394,0.4115,195.56,1888.98,-1483.70
16150,-3.8704,-0.8173,0.4628,570.56,685.85,1328.92
16160,-3.8702,-0.7727,0.5042,-601.32,-751.65,-202.27
16170,-3.8700,-0.7096,0.5341,1101.81,545.35,1422.85
16180,-3.8699,-0.6388,0.5587,1179.93,373.60,-1483.34
16190,-3.8698,-0.5682,0.5815,-1757.57,-470.03,-811.46
16200,-3.8696,-0.4957,0.6031,-726.32,-1548.03,-827.03
16210,-3.8695,-0.4163,0.6234,554.93,1217.77,-1592.59
16220,-3.8694,-0.3314,0.6450,-1273.19,-188.35,1376.16
16230,-3.8693,-0.2462,0.6735,1586.18,-1422.55,407.47
16240,-3.8693,-0.1600,0.7063,492.43,-1781.74,-1217.47
16250,-3.8693,-0.0675,0.7246,-476.32,-1578.49,-186.16
16260,-3.8691,0.0355,0.7167,-632.57,765.44,610.78
16270,-3.8691,0.1445,0.6993,554.93,-265.56,-1139.28
16280,-3.8690,0.2568,0.6989,-1491.94,1515.87,-1561.16
16290,-3.8689,0.3794,0.7224,883.06,1453.61,1829.47
16300,-3.8689,0.5172,0.7570,570.56,469.48,-670.47
16310,-3.8689,0.6609,0.7803,-1788.82,891.60,1017.09
16320,-3.8691,0.7926,0.7758,601.81,-123.72,-1889.16
16330,-3.8694,0.9001,0.7437,1461.18,-701.60,548.34
16340,-3.8698,0.9762,0.6925,-773.19,-810.79,-1014.22
16350,-3.8700,1.0179,0.6351,961.18,642.52,-1576.78
16360,-3.8702,1.0367,0.5886,-1695.07,1298.83,-1108.15
16370,-3.8705,1.0525,0.5609,711.18,-654.24,-30.15
16380,-3.8706,1.0757,0.5525,-1273.19,-201.11,1391.66
16390,-3.8708,1.1064,0.5568,1695.56,-1279.17,-483.34
16400,-3.8710,1.1376,0.5516,1633.06,-732.24,-1639.59
16410,-3.8711,1.1602,0.5216,1617.43,-1388.43,1126.04
16420,-3.8713,1.1731,0.4729,508.06,-1232.12,1985.35
16430,-3.8717,1.1715,0.4160,-1835.69,533.51,-249.08
16440,-3.8719,1.1383,0.3632,1961.18,1252.26,500.79
16450,-3.8723,1.0674,0.3290,1711.18,-1513.43,-14.95
16460,-3.8724,0.9758,0.3193,633.06,-1888.55,-280.64
16470,-3.8724,0.8918,0.3292,914.31,876.89,-1608.76
16480,-3.8724,0.8334,0.3514,-1835.69,-1857.67,-1640.01
16490,-3.8724,0.7957,0.3782,-1320.07,985.96,-264.95
16500,-3.8723,0.7640,0.4019,1851.81,407.78,-999.27
16510,-3.8722,0.7284,0.4214,1804.93,-561.04,-452.39
16520,-3.8719,0.6814,0.4417,1242.43,1938.90,1032.04
16530,-3.8717,0.6204,0.4756,-773.19,532.53,1297.73
16540,-3.8713,0.5469,0.5381,-585.69,876.16,-1327.21
16550,-3.8707,0.4644,0.6239,-1991.94,876.04,282.29
16560,-3.8702,0.3834,0.7100,-554.44,-139.77,-1623.84
16570,-3.8698,0.3159,0.7719,1086.18,-1124.27,-1873.66
16580,-3.8694,0.2677,0.7993,445.56,-1202.51,-1811.04
16590,-3.8691,0.2294,0.7908,-1726.32,-1687.01,1610.90
16600,-3.8690,0.1945,0.7449,1367.43,1219.18,1626.53
16610,-3.8689,0.1748,0.6875,898.68,-655.88,1017.03
16620,-3.8688,0.1700,0.6598,-1616.94,0.31,251.34
16630,-3.8688,0.1632,0.6737,1773.68,453.43,-1795.59
16640,-3.8688,0.1482,0.7137,898.68,-1765.32,-998.72
16650,-3.8688,0.1261,0.7533,-1023.19,-640.38,-764.28
16660,-3.8688,0.0822,0.7778,148.68,422.12,-1092.29
16670,-3.8688,-0.0031,0.7946,-1476.32,-437.38,1782.71
16680,-3.8688,-0.1283,0.8110,-382.57,1718.69,267.15
16690,-3.8689,-0.2777,0.8193,-413.82,-172.18,-1748.47
16700,-3.8690,-0.4381,0.8082,461.18,890.08,-1373.41
16710,-3.8691,-0.5948,0.7747,-70.07,-532.17,798.40
16720,-3.8694,-0.7274,0.7253,-132.57,-829.35,1970.21
16730,-3.8696,-0.8241,0.6793,-1101.32,857.91,-1420.47
16740,-3.8699,-0.8922,0.6478,-1476.32,-1032.90,-1904.97
16750,-3.8701,-0.9418,0.6224,1804.93,-1064.27,1298.10
16760,-3.8704,-0.9774,0.5922,-538.82,-314.39,438.66
16770,-3.8707,-1.0087,0.5543,-1101.32,-189.45,-1123.90
16780,-3.8710,-1.0381,0.5078,-1101.32,-1033.26,1172.91
16790,-3.8712,-1.0608,0.4548,-866.94,1013.55,16.60
16800,-3.8716,-1.0813,0.4028,226.81,-1767.70,-1421.02
16810,-3.8718,-1.1028,0.3530,1601.81,-424.01,360.11
16820,-3.8722,-1.1230,0.3018,-1148.19,1200.93,1969.42
16830,-3.8726,-1.1405,0.2480,258.06,-1361.57,-140.08
16840,-3.8728,-1.1522,0.1910,-1976.32,-236.63,1969.18
16850,-3.8730,-1.1522,0.1317,523.68,466.49,687.87
16860,-3.8733,-1.1350,0.0767,523.68,872.74,1187.74
16870,-3.8735,-1.1025,0.0381,-1273.19,1825.87,-31.13
16880,-3.8735,-1.0641,0.0254,-1116.94,888.43,312.56
16890,-3.8737,-1.0253,0.0360,-195.07,-736.51,1437.50
16900,-3.8738,-0.9834,0.0558,773.68,622.99,-765.56
16910,-3.8738,-0.9424,0.0686,-1866.94,-845.70,1812.56
16920,-3.8738,-0.9159,0.0663,-616.94,794.98,1375.12
16930,-3.8738,-0.9142,0.0529,-1226.32,498.17,-1812.38
16940,-3.8737,-0.9385,0.0432,-1007.57,-1220.58,234.44
16950,-3.8737,-0.9805,0.0535,-116.94,1544.98,-15.56
16960,-3.8734,-1.0239,0.0891,-1491.94,-1142.58,1984.44
16970,-3.8732,-1.0513,0.1449,945.56,-580.14,1765.75
16980,-3.8729,-1.0573,0.2142,1445.56,-1439.58,-1015.38
16990,-3.8726,-1.0543,0.2826,679.93,-564.58,953.49
17000,-3.8723,-1.0483,0.3304,1054.93,185.42,1844.30
17010,-3.8721,-1.0355,0.3486,1820.56,-1689.58,625.61
17020,-3.8719,-1.0192,0.3505,-538.82,638.55,1922.55
17030,-3.8718,-1.0073,0.3632,1554.93,872.99,-874.33
17040,-3.8716,-1.0001,0.3989,-929.44,-1502.01,781.92
17050,-3.8715,-0.9839,0.4480,-7.57,-923.89,-858.64
17060,-3.8712,-0.9438,0.4958,-1929.44,1357.42,-1546.02
17070,-3.8710,-0.8838,0.5359,-804.44,-517.52,-1608.46
17080,-3.8707,-0.8188,0.5728,-1116.94,607.60,-1827.09
17090,-3.8705,-0.7560,0.6095,-804.44,1326.48,1860.47
17100,-3.8702,-0.6906,0.6438,-757.57,-1970.28,-920.72
17110,-3.8699,-0.6155,0.6824,-382.57,-1579.53,-1123.78
17120,-3.8695,-0.5233,0.7261,1226.81,-641.85,-373.72
17130,-3.8691,-0.4065,0.7649,1023.68,952.09,-1264.22
17140,-3.8689,-0.2679,0.8016,-23.19,1921.02,-1498.54
17150,-3.8688,-0.1259,0.8339,1711.18,-1375.55,-1873.47
17160,-3.8688,0.0035,0.8442,-101.32,-1250.31,-1842.16
17170,-3.8688,0.1102,0.8279,461.18,62.50,579.77
17180,-3.8689,0.1886,0.7922,-1882.57,1968.93,-389.04
17190,-3.8688,0.2426,0.7524,148.68,1406.62,1.53
17200,-3.8688,0.2836,0.7294,-945.07,312.93,657.71
17210,-3.8688,0.3308,0.7345,304.93,1359.92,626.40
17220,-3.8688,0.4033,0.7657,-1648.19,-1983.76,142.03
17230,-3.8689,0.5051,0.8135,-366.94,-1983.64,-764.16
17240,-3.8689,0.6268,0.8540,664.31,125.98,1126.59
17250,-3.8690,0.7540,0.8561,242.43,1313.72,1267.27
17260,-3.8693,0.8696,0.8186,523.68,1579.59,-342.10
17270,-3.8694,0.9536,0.7666,-679.44,782.90,110.96
17280,-3.8698,0.9928,0.7211,-1929.44,-1873.17,-1639.16
17290,-3.8701,1.0032,0.6882,-913.82,298.77,-936.10
17300,-3.8705,1.0110,0.6628,414.31,95.70,-342.41
17310,-3.8707,1.0165,0.6415,1414.31,845.70,1985.66
17320,-3.8710,1.0128,0.6248,-1882.57,-1888.67,-1576.90
17330,-3.8712,1.0098,0.6011,1648.68,-29.30,-1092.59
17340,-3.8715,1.0176,0.5537,1258.06,939.45,-1873.84
17350,-3.8717,1.0289,0.4867,-1741.94,-1123.05,594.79
17360,-3.8721,1.0302,0.4214,-288.82,-1701.17,-311.58
17370,-3.8722,1.0167,0.3740,-132.57,1939.45,453.92
17380,-3.8724,0.9977,0.3455,-1851.32,-123.05,-1030.58
17390,-3.8726,0.9824,0.3264,-288.82,220.64,-1171.20
17400,-3.8727,0.9681,0.3162,1758.06,1783.14,-93.14
17410,-3.8727,0.9468,0.3203,-70.07,470.58,-1296.26
17420,-3.8727,0.9131,0.3322,1195.56,1001.83,-811.89
17430,-3.8726,0.8666,0.3375,883.06,-1482.60,938.11
17440,-3.8724,0.8108,0.3365,-1070.07,-795.23,484.99
17450,-3.8723,0.7465,0.3470,-210.69,-920.35,-280.64
17460,-3.8719,0.6731,0.3804,-445.07,423.28,-61.83
17470,-3.8715,0.5948,0.4276,-1835.69,688.78,-171.14
17480,-3.8708,0.5144,0.4894,148.68,-1264.47,1032.04
17490,-3.8704,0.4314,0.5764,1851.81,-1358.40,1969.67
17500,-3.8699,0.3490,0.6777,-773.19,1782.04,-1686.40
17510,-3.8694,0.2690,0.7594,679.93,-1249.33,923.16
17520,-3.8691,0.1921,0.7882,-1554.44,1203.61,-373.54
17530,-3.8689,0.1271,0.7552,601.81,890.99,1892.15
17540,-3.8688,0.0834,0.6864,273.68,672.12,267.09
17550,-3.8688,0.0605,0.6196,-1320.07,-140.50,188.78
17560,-3.8688,0.0549,0.5829,-241.94,-687.44,329.28
17570,-3.8688,0.0630,0.5911,-960.69,-1390.56,-1467.65
17580,-3.8687,0.0774,0.6326,70.56,-343.63,-1608.28
17590,-3.8685,0.0885,0.6750,1914.31,968.87,1469.97
17600,-3.8685,0.0876,0.7003,-663.82,-1593.63,1720.03
17610,-3.8687,0.0740,0.7078,-773.19,1640.75,-1045.53
17620,-3.8688,0.0455,0.6924,1476.81,-1406.13,1970.09
17630,-3.8689,0.0012,0.6578,1836.18,625.06,329.47
17640,-3.8691,-0.0480,0.6217,164.31,203.12,-1248.72
17650,-3.8693,-0.0928,0.5944,1867.43,-406.37,1094.91
17660,-3.8694,-0.1285,0.5867,133.06,93.57,1048.03
17670,-3.8695,-0.1611,0.6107,-445.07,-890.93,-733.28
17680,-3.8695,-0.2070,0.6543,-616.94,-1812.87,1391.78
17690,-3.8696,-0.2727,0.6884,1508.06,-234.80,938.72
17700,-3.8699,-0.3621,0.7010,1101.81,124.45,798.22
17710,-3.8702,-0.4828,0.6891,1664.31,1749.27,1454.47
17720,-3.8706,-0.6360,0.6443,-1788.82,217.77,720.09
17730,-3.8710,-0.8070,0.5676,-1398.19,-1516.91,391.85
17740,-3.8713,-0.9640,0.4714,711.18,670.29,516.72
17750,-3.8717,-1.0754,0.3729,617.43,357.48,922.79
17760,-3.8721,-1.1281,0.2908,-1648.19,-252.14,-1249.33
17770,-3.8723,-1.1331,0.2390,-382.57,1232.12,-1499.45
17780,-3.8724,-1.1158,0.2192,-1023.19,-1392.88,0.43
17790,-3.8727,-1.1022,0.2200,1179.93,75.93,-1296.45
17800,-3.8728,-1.1036,0.2214,-1070.07,169.68,-1905.82
17810,-3.8729,-1.1162,0.2034,-1257.57,357.18,1750.43
17820,-3.8730,-1.1359,0.1606,1133.06,-1955.32,1344.12
17830,-3.8732,-1.1573,0.1096,-1382.57,575.87,953.43
17840,-3.8733,-1.1692,0.0674,-132.57,-1955.44,672.06
17850,-3.8734,-1.1473,0.0302,-1648.19,638.31,1047.00
17860,-3.8735,-1.0759,-0.0065,1148.68,-127.26,-1500.00
17870,-3.8735,-0.9741,-0.0266,-1710.69,-814.64,1656.19
17880,-3.8735,-0.8728,-0.0249,-679.44,607.42,-1890.69
17890,-3.8735,-0.7915,-0.0157,289.31,826.42,-1359.44
17900,-3.8735,-0.7356,-0.0087,-1304.44,1998.41,-31.31
17910,-3.8734,-0.7046,-0.0010,1851.81,-1095.21,-796.94
17920,-3.8732,-0.6965,0.0176,1820.56,-110.78,78.06
17930,-3.8730,-0.7133,0.0526,-1148.19,-1735.78,1906.25
17940,-3.8728,-0.7489,0.0919,711.18,-1251.40,312.56
17950,-3.8727,-0.7871,0.1152,148.68,-220.21,-624.88
17960,-3.8724,-0.8185,0.1230,-741.94,-1235.96,-702.94
17970,-3.8722,-0.8329,0.1390,-757.57,-236.02,-656.07
17980,-3.8719,-0.8207,0.1780,1398.68,1810.85,1578.37
17990,-3.8718,-0.7806,0.2262,-1038.82,-1204.77,1797.18
18000,-3.8717,-0.7189,0.2634,86.18,967.22,1703.55
18010,-3.8716,-0.6545,0.2896,-7.57,1732.91,1406.74
18020,-3.8715,-0.6096,0.3165,226.81,1076.84,828.67
18030,-3.8713,-0.5927,0.3497,1976.81,530.03,1156.86
18040,-3.8712,-0.5931,0.3873,148.68,780.09,-405.58
18050,-3.8710,-0.5911,0.4287,86.18,1592.59,-702.39
18060,-3.8707,-0.5742,0.4728,351.81,-1110.53,1266.42
18070,-3.8707,-0.5435,0.5121,-1491.94,530.09,-77.21
18080,-3.8706,-0.5079,0.5394,-1554.44,1561.40,422.85
18090,-3.8706,-0.4781,0.5612,-1007.57,1061.46,1485.41
18100,-3.8705,-0.4563,0.5811,-1195.07,-157.23,626.04
18110,-3.8704,-0.4358,0.5862,1601.81,-1610.29,1766.72
18120,-3.8701,-0.4033,0.5818,226.81,-953.98,485.47
18130,-3.8700,-0.3539,0.5963,383.06,-1516.42,-514.53
18140,-3.8698,-0.2905,0.6433,-1288.82,343.02,1251.16
18150,-3.8696,-0.2128,0.7091,-1179.44,-1641.24,1782.47
18160,-3.8695,-0.1254,0.7681,773.68,-1219.18,1329.47
18170,-3.8695,-0.0354,0.8040,-38.82,-1672.18,-1451.66
18180,-3.8695,0.0549,0.8074,-523.19,-1078.25,704.65
18190,-3.8696,0.1384,0.7789,-960.69,-656.19,1345.28
18200,-3.8698,0.2084,0.7423,1726.81,-296.63,-920.41
18210,-3.8698,0.2761,0.7218,-1320.07,-984.01,-967.35
18220,-3.8696,0.3632,0.7289,-648.19,391.11,470.15
18230,-3.8696,0.4735,0.7601,-1507.57,1297.55,-1904.85
18240,-3.8696,0.5941,0.7937,617.43,1297.79,-1139.16
18250,-3.8696,0.7087,0.8098,54.93,1594.91,1564.03
18260,-3.8698,0.8041,0.7998,-1273.19,-342.41,892.15
18270,-3.8700,0.8717,0.7609,-1070.07,-1623.47,735.90
18280,-3.8702,0.9100,0.7062,-413.82,1392.27,79.59
18290,-3.8705,0.9233,0.6591,492.43,-1607.60,-858.03
18300,-3.8705,0.9250,0.6304,-1804.44,361.15,-795.59
18310,-3.8704,0.9264,0.6235,-1585.69,689.27,-1858.15
18320,-3.8702,0.9315,0.6412,-1413.82,-185.73,813.66
18330,-3.8702,0.9465,0.6732,-757.57,-1920.10,1719.97
18340,-3.8702,0.9702,0.6958,1164.31,-1826.29,735.66
18350,-3.8704,0.9896,0.6897,195.56,1064.39,-1733.03
18360,-3.8705,0.9941,0.6511,-1320.07,283.14,-1154.91
18370,-3.8706,0.9878,0.5934,-741.94,-654.36,-1764.40
18380,-3.8708,0.9813,0.5353,-1554.44,-44.98,-436.40
18390,-3.8711,0.9772,0.4854,1617.43,517.52,-1123.96
18400,-3.8713,0.9701,0.4462,1086.18,-1873.11,1766.54
18410,-3.8716,0.9551,0.4216,179.93,1111.27,1860.23
18420,-3.8717,0.9227,0.4126,-1741.94,1970.58,219.54
18430,-3.8718,0.8661,0.4197,-1882.57,814.27,1891.42
18440,-3.8718,0.7941,0.4440,-1132.57,1720.40,-733.58
18450,-3.8717,0.7177,0.4777,1648.68,829.65,-811.65
18460,-3.8715,0.6416,0.5070,-132.57,1141.97,360.29
18470,-3.8713,0.5667,0.5232,-1866.94,891.85,-1483.40
18480,-3.8711,0.4927,0.5348,539.31,-1030.15,1579.10
18490,-3.8708,0.4205,0.5627,-929.44,454.04,1079.16
18500,-3.8706,0.3527,0.6128,1836.18,32.04,219.85
18510,-3.8705,0.2942,0.6619,1148.68,-1561.83,-1655.09
18520,-3.8704,0.2517,0.6809,1664.31,719.30,-983.09
18530,-3.8702,0.2283,0.6702,226.81,-843.26,-1342.47
18540,-3.8701,0.2214,0.6490,1226.81,1781.68,1704.41
18550,-3.8701,0.2288,0.6307,351.81,-921.45,-451.90
18560,-3.8700,0.2466,0.6270,1289.31,734.80,344.97
18570,-3.8700,0.2690,0.6547,-429.44,250.43,-1545.65
18580,-3.8699,0.2870,0.7123,-1554.44,-202.64,-1998.78
18590,-3.8698,0.2870,0.7692,742.43,-827.58,313.84
18600,-3.8698,0.2603,0.7997,742.43,-1546.33,501.46
18610,-3.8699,0.2037,0.8112,1320.56,-1640.14,-232.85
18620,-3.8699,0.1157,0.8247,-1913.82,-171.51,-779.72
18630,-3.8699,0.0059,0.8409,-1179.44,1562.68,-607.79
18640,-3.8698,-0.1055,0.8458,758.06,-359.38,48.46
18650,-3.8698,-0.2096,0.8419,-1491.94,281.01,392.27
18660,-3.8699,-0.3190,0.8361,1179.93,-219.18,-1029.66
18670,-3.8700,-0.4323,0.8191,-820.07,-969.42,-545.29
18680,-3.8701,-0.5209,0.7952,679.93,858.52,-342.16
18690,-3.8701,-0.5686,0.7778,1336.18,1795.84,142.15
18700,-3.8704,-0.5916,0.7612,-773.19,-423.03,-61.04
18710,-3.8705,-0.6118,0.7316,289.31,1451.97,1970.21
18720,-3.8707,-0.6418,0.6848,1695.56,1655.03,1813.90
18730,-3.8710,-0.6914,0.6238,1851.81,-329.41,63.78
18740,-3.8713,-0.7634,0.5569,-491.94,-142.03,1938.66
18750,-3.8716,-0.8466,0.4871,-1710.69,-704.65,329.16
18760,-3.8719,-0.9224,0.4114,-351.32,-1642.33,-499.08
18770,-3.8722,-0.9766,0.3326,1945.56,670.04,-577.33
18780,-3.8723,-1.0049,0.2555,-991.94,-1408.20,109.99
18790,-3.8726,-1.0104,0.1890,-616.94,716.74,1984.86
18800,-3.8727,-1.0013,0.1475,-1320.07,201.11,1719.12
18810,-3.8728,-0.9902,0.1365,-163.82,-1111.39,-1187.26
18820,-3.8729,-0.9843,0.1427,1258.06,1482.42,-46.63
18830,-3.8729,-0.9775,0.1448,-1976.32,-1720.70,1125.24
18840,-3.8730,-0.9614,0.1321,-1116.94,-1455.08,-968.51
18850,-3.8730,-0.9393,0.1093,945.56,919.98,1937.74
18860,-3.8730,-0.9202,0.0886,-226.32,1998.11,1750.18
18870,-3.8730,-0.9034,0.0786,-1773.19,-642.46,-1781.13
18880,-3.8730,-0.8848,0.0790,367.43,-1923.65,-828.00
18890,-3.8729,-0.8688,0.0834,-1241.94,-1876.77,718.87
18900,-3.8729,-0.8606,0.0887,804.93,-1314.21,-765.50
18910,-3.8728,-0.8594,0.1045,1851.81,-626.71,-906.13
18920,-3.8727,-0.8645,0.1368,-1991.94,1388.92,-171.69
18930,-3.8724,-0.8693,0.1799,1351.81,1529.54,640.87
18940,-3.8723,-0.8623,0.2241,742.43,-954.83,1484.68
18950,-3.8722,-0.8424,0.2584,1633.06,701.42,-1374.57
18960,-3.8721,-0.8135,0.2782,179.93,1092.10,-140.14
18970,-3.8718,-0.7843,0.2881,-116.94,-376.65,281.74
18980,-3.8718,-0.7656,0.2979,-382.57,889.04,-265.08
18990,-3.8717,-0.7585,0.3170,-1991.94,-1860.90,-530.70
19000,-3.8715,-0.7603,0.3538,-1085.69,592.22,297.49
19010,-3.8713,-0.7677,0.4114,-1304.44,1295.35,1500.67
19020,-3.8712,-0.7711,0.4750,1742.43,670.35,1828.92
19030,-3.8711,-0.7596,0.5204,1304.93,810.97,1094.67
19040,-3.8711,-0.7354,0.5336,-1226.32,-1376.53,-61.52
19050,-3.8710,-0.7062,0.5160,1883.06,311.04,-1202.09
19060,-3.8708,-0.6694,0.4838,1617.43,-1938.90,-1795.90
19070,-3.8707,-0.6178,0.4644,-1679.44,1936.16,-1702.21
19080,-3.8706,-0.5521,0.4799,929.93,-548.10,-1624.15
19090,-3.8705,-0.4741,0.5229,1336.18,1436.40,1688.42
19100,-3.8704,-0.3850,0.5630,-679.44,-1047.85,94.73
19110,-3.8704,-0.2880,0.5836,-1273.19,77.33,-748.90
19120,-3.8701,-0.1924,0.6005,-851.32,-1281.86,32.35
19130,-3.8700,-0.1136,0.6240,-616.94,874.57,673.03
19140,-3.8700,-0.0630,0.6493,1461.18,-109.62,-61.34
19150,-3.8699,-0.0476,0.6890,-54.44,-875.18,-1389.40
19160,-3.8698,-0.0657,0.7421,1914.31,203.00,1923.22
19170,-3.8696,-0.0919,0.7712,-398.19,-1000.18,-1482.97
19180,-3.8694,-0.0936,0.7675,242.43,-1265.81,438.96
19190,-3.8693,-0.0544,0.7622,23.68,-1750.18,1954.59
19200,-3.8691,0.0254,0.7750,1039.31,1578.00,782.71
19210,-3.8691,0.1458,0.8024,-741.94,-796.88,657.71
19220,-3.8693,0.3041,0.8350,-1335.69,-1296.63,-1514.10
19230,-3.8694,0.4871,0.8630,-1070.07,-1124.45,-1560.91
19240,-3.8695,0.6675,0.8817,-1648.19,-1530.33,892.27
19250,-3.8698,0.8223,0.8901,1445.56,860.66,-795.17
19260,-3.8699,0.9448,0.8790,1258.06,1939.09,1798.58
19270,-3.8701,1.0312,0.8484,945.56,517.46,-60.79
19280,-3.8702,1.0734,0.8077,8.06,595.76,986.02
19290,-3.8705,1.0715,0.7648,1398.68,-607.30,1157.78
19300,-3.8707,1.0400,0.7247,1164.31,1892.70,1032.71
19310,-3.8710,1.0034,0.6862,1133.06,767.64,1235.78
19320,-3.8712,0.9838,0.6449,445.56,-169.92,-1795.59
19330,-3.8715,0.9863,0.6055,1929.93,-1451.23,-561.28
19340,-3.8716,1.0040,0.5758,-1741.94,1501.89,657.41
19350,-3.8718,1.0282,0.5548,523.68,1705.08,-1311.40
19360,-3.8719,1.0524,0.5311,-382.57,-982.42,1813.54
19370,-3.8721,1.0736,0.4985,-1288.82,-13.61,907.23
19380,-3.8723,1.0862,0.4653,1429.93,-185.42,-1124.08
19390,-3.8724,1.0778,0.4429,-960.69,-435.42,141.48
19400,-3.8727,1.0392,0.4368,1961.18,689.58,-1842.90
19410,-3.8728,0.9716,0.4473,1023.68,-91.74,-1139.83
19420,-3.8728,0.8839,0.4712,367.43,1251.89,-561.65
19430,-3.8727,0.7943,0.5012,1148.68,314.21,-827.21
19440,-3.8724,0.7198,0.5286,1679.93,157.78,938.48
19450,-3.8722,0.6613,0.5537,148.68,-342.35,1032.23
19460,-3.8718,0.6099,0.5953,648.68,-1123.72,32.29
19470,-3.8715,0.5498,0.6700,-1929.44,204.28,1188.66
19480,-3.8711,0.4675,0.7620,-1616.94,1766.66,-951.84
19490,-3.8706,0.3766,0.8267,-148.19,1532.10,720.21
19500,-3.8702,0.3011,0.8390,211.18,1813.23,985.96
19510,-3.8700,0.2473,0.8212,-1445.07,-608.83,-1889.04
19520,-3.8699,0.2097,0.8000,-335.69,1109.80,-545.29
19530,-3.8698,0.1871,0.7773,-1148.19,-1593.38,-1795.35
19540,-3.8696,0.1809,0.7592,-38.82,-499.69,188.96
19550,-3.8696,0.1842,0.7694,-835.69,1172.18,1892.09
19560,-3.8696,0.1780,0.8175,-413.82,-1515.32,-264.16
19570,-3.8695,0.1543,0.8906,-1210.69,640.93,-139.04
19580,-3.8693,0.1219,0.9669,-241.94,-1999.76,-1482.67
19590,-3.8690,0.0752,1.0222,-382.57,-234.19,298.71
19600,-3.8690,-0.0023,1.0498,1633.06,-1156.13,-1123.05
19610,-3.8690,-0.1151,1.0560,-288.82,-1609.44,-1529.24
19620,-3.8691,-0.2579,1.0364,1273.68,-812.74,-669.86
19630,-3.8693,-0.4211,0.9922,-1007.57,671.33,1798.89
19640,-3.8695,-0.5884,0.9337,-1898.19,-985.23,-904.36
19650,-3.8696,-0.7323,0.8628,695.56,-469.91,439.27
19660,-3.8699,-0.8232,0.7875,-1726.32,-1548.34,-1920.23
19670,-3.8701,-0.8534,0.7257,-1366.94,810.85,-123.47
19680,-3.8702,-0.8505,0.6825,-1226.32,904.54,1563.90
19690,-3.8705,-0.8459,0.6461,-851.32,-626.71,-1483.09
19700,-3.8707,-0.8510,0.6121,-273.19,-1282.96,-1498.78
19710,-3.8710,-0.8699,0.5852,-913.82,-1642.33,1813.66
19720,-3.8712,-0.9036,0.5594,664.31,-1079.83,1672.97
19730,-3.8715,-0.9393,0.5210,351.81,-376.77,-436.46
19740,-3.8716,-0.9634,0.4669,-226.32,-1298.77,-577.15
19750,-3.8717,-0.9741,0.4036,695.56,-220.64,-374.15
19760,-3.8718,-0.9757,0.3398,-679.44,-330.08,-1218.02
19770,-3.8719,-0.9747,0.2903,-882.57,-486.33,1281.86
19780,-3.8721,-0.9744,0.2643,-757.57,1169.92,438.05
19790,-3.8722,-0.9696,0.2444,-710.69,1841.80,578.61
19800,-3.8723,-0.9579,0.2106,-101.32,-705.08,1562.93
19810,-3.8724,-0.9417,0.1658,1398.68,-1033.14,-343.38
19820,-3.8724,-0.9270,0.1218,-523.19,1232.48,-968.44
19830,-3.8724,-0.9229,0.0907,1351.81,-392.46,-452.94
19840,-3.8723,-0.9340,0.0812,1883.06,-376.83,-1999.88
19850,-3.8722,-0.9624,0.1035,461.18,-1595.58,-937.38
19860,-3.8719,-1.0049,0.1606,820.56,1263.73,1359.56
19870,-3.8718,-1.0358,0.2263,-616.94,576.11,-1499.69
19880,-3.8717,-1.0192,0.2622,-570.07,982.30,1359.80
19890,-3.8717,-0.9495,0.2571,1554.93,1576.11,1375.49
19900,-3.8718,-0.8491,0.2147,-1523.19,919.98,-1390.14
19910,-3.8719,-0.7472,0.1458,-679.44,-501.71,-265.26
19920,-3.8718,-0.6759,0.0818,367.43,-1329.59,281.49
19930,-3.8717,-0.6552,0.0577,1492.43,-1516.97,281.37
19940,-3.8716,-0.6798,0.0883,148.68,-595.03,937.56
19950,-3.8715,-0.7250,0.1693,992.43,-688.84,1031.37
19960,-3.8713,-0.7621,0.2709,-788.82,1686.04,437.81
19970,-3.8713,-0.7728,0.3480,-1538.82,-1314.03,-858.89
19980,-3.8712,-0.7502,0.3751,1086.18,560.97,1219.42
19990,-3.8712,-0.7003,0.3536,-23.19,29.72,-1905.52
20000,-3.8712,-0.6357,0.3014,-1632.57,1279.85,-1749.33
20010,-3.8712,-0.5710,0.2482,-1366.94,-1407.53,-796.33
20020,-3.8711,-0.5181,0.2257,-1085.69,-219.91,1344.18
20030,-3.8711,-0.4773,0.2438,1695.56,905.21,-265.20
20040,-3.8710,-0.4391,0.2811,-1085.69,-782.23,828.55
20050,-3.8711,-0.3855,0.3036,-195.07,-0.92,-15.14
20060,-3.8711,-0.3048,0.3065,-1335.69,-1125.79,-1030.70
20070,-3.8711,-0.2036,0.3165,992.43,-750.61,-561.95
20080,-3.8710,-0.0983,0.3500,1945.56,530.82,922.49
20090,-3.8710,-0.0044,0.4032,-570.07,812.26,-1186.83
20100,-3.8708,0.0728,0.4548,-554.44,-375.06,1375.73
20110,-3.8707,0.1321,0.4807,1320.56,-1781.13,750.85
20120,-3.8706,0.1595,0.4816,914.31,1531.49,563.42
20130,-3.8706,0.1432,0.4814,429.93,1640.93,-1108.46
20140,-3.8706,0.1018,0.4993,-1663.82,1625.24,-717.83
20150,-3.8705,0.0715,0.5326,1039.31,-93.57,1079.04
20160,-3.8704,0.0780,0.5688,1164.31,172.00,-1952.09
20170,-3.8702,0.1293,0.6028,1992.43,812.62,-1217.65
20180,-3.8702,0.2216,0.6349,554.93,1156.49,-358.22
20190,-3.8702,0.3467,0.6519,367.43,1266.05,157.47
20200,-3.8705,0.4993,0.6410,383.06,-561.83,1298.10
20210,-3.8706,0.6658,0.6240,-85.69,-1952.21,329.35
20220,-3.8706,0.8014,0.6500,1226.81,-123.72,-295.72
20230,-3.8702,0.8716,0.7360,-1413.82,-795.35,891.85
20240,-3.8701,0.8845,0.8378,-429.44,-1795.23,-857.97
20250,-3.8701,0.8506,0.9037,1226.81,-763.92,1907.84
20260,-3.8704,0.7761,0.9187,883.06,-326.48,-138.92
20270,-3.8705,0.6803,0.8851,-648.19,1595.21,1783.02
20280,-3.8706,0.5836,0.8066,-913.82,1298.16,1407.96
20290,-3.8707,0.4961,0.7073,-1288.82,-748.90,-920.35
20300,-3.8707,0.4255,0.6265,-491.94,-1467.83,-1545.53
20310,-3.8707,0.3928,0.5786,-1523.19,188.29,1719.97
20320,-3.8708,0.4189,0.5488,-1710.69,-1936.77,-327.03
20330,-3.8708,0.4889,0.5308,1633.06,-1749.21,547.91
20340,-3.8710,0.5549,0.5333,-1413.82,-61.58,-1889.65
20350,-3.8710,0.5856,0.5531,-960.69,266.66,1547.91
20360,-3.8711,0.5784,0.5651,-1038.82,-1202.03,-420.84
20370,-3.8712,0.5588,0.5490,-1960.69,329.22,1751.10
20380,-3.8715,0.5520,0.5132,-460.69,-1733.34,-1467.71
20390,-3.8716,0.5361,0.4773,-1335.69,1688.54,735.35
20400,-3.8716,0.4735,0.4607,633.06,1094.79,219.67
20410,-3.8713,0.3707,0.4854,617.43,-1030.33,188.35
20420,-3.8711,0.2784,0.5317,-538.82,-1874.33,1594.67
20430,-3.8711,0.2446,0.5532,-351.32,62.99,-858.34
20440,-3.8711,0.2604,0.5465,-679.44,-1187.07,157.29
20450,-3.8711,0.2646,0.5372,1336.18,1953.61,344.79
20460,-3.8711,0.2172,0.5312,1883.06,766.11,-405.21
20470,-3.8710,0.1375,0.5131,-195.07,0.37,1688.54
20480,-3.8710,0.0668,0.4791,1601.81,1672.12,1704.10
20490,-3.8710,0.0194,0.4475,554.93,1328.25,1172.79
20500,-3.8710,-0.0083,0.4410,-1507.57,1281.25,-1249.15
20510,-3.8708,-0.0127,0.4600,-1054.44,468.69,-1171.02
20520,-3.8707,-0.0221,0.4939,-1616.94,-1109.44,-1311.65
20530,-3.8705,-0.0856,0.5447,1179.93,-765.69,313.42
20540,-3.8704,-0.1941,0.5967,1054.93,1734.19,-1467.71
20550,-3.8704,-0.3016,0.6165,-835.69,390.20,-1561.34
20560,-3.8705,-0.3823,0.5919,1398.68,-1078.74,-1201.97
20570,-3.8705,-0.4362,0.5404,-929.44,-219.54,-1405.15
20580,-3.8704,-0.4689,0.4910,179.93,1186.65,1516.66
20590,-3.8704,-0.4874,0.4590,-7.57,-1141.60,-999.08
20600,-3.8704,-0.5244,0.4574,1617.43,-1235.35,-1499.15
20610,-3.8704,-0.5953,0.4890,883.06,-1438.54,-1999.15
20620,-3.8705,-0.6674,0.5129,-195.07,-1391.85,704.04
20630,-3.8708,-0.7190,0.4830,-1413.82,1670.53,1297.85
20640,-3.8712,-0.7617,0.4010,-23.19,1842.29,-420.96
20650,-3.8713,-0.8151,0.3030,-1491.94,-657.78,-1296.14
20660,-3.8713,-0.8890,0.2233,-320.07,-1204.77,1438.05
20670,-3.8713,-0.9635,0.1747,-1788.82,591.98,-1702.70
20680,-3.8713,-1.0101,0.1526,679.93,-1626.89,1969.06
20690,-3.8715,-1.0295,0.1415,-1288.82,-455.14,1906.49
20700,-3.8717,-1.0344,0.1328,226.81,-1877.01,-687.26
20710,-3.8719,-1.0221,0.1274,-398.19,1013.55,-1156.01
20720,-3.8722,-0.9973,0.1096,1179.93,326.11,422.12
20730,-3.8726,-0.9785,0.0648,351.81,-1955.08,1687.68
20740,-3.8729,-0.9807,0.0007,-1241.94,310.55,-421.75
20750,-3.8732,-1.0356,-0.0608,-1523.19,107.42,-500.00
20760,-3.8732,-1.1351,-0.1007,-554.44,232.30,78.00
20770,-3.8733,-1.1932,-0.1310,-1288.82,-877.26,1171.63
20780,-3.8735,-1.1552,-0.1796,-726.32,-752.38,-15.93
20790,-3.8735,-1.0563,-0.2383,148.68,1028.99,-1640.99
20800,-3.8735,-0.9543,-0.2721,804.93,1513.55,-1500.49
20810,-3.8737,-0.8831,-0.2753,1851.81,1185.61,-1344.30
20820,-3.8738,-0.8583,-0.2614,-1023.19,779.48,-1781.80
20830,-3.8738,-0.8743,-0.2341,-1851.32,-1439.21,296.33
20840,-3.8739,-0.9060,-0.2122,101.81,-1954.83,-953.61
20850,-3.8739,-0.9462,-0.2083,39.31,857.60,1593.32
20860,-3.8739,-1.0139,-0.2058,-1101.32,1357.48,483.95
20870,-3.8739,-1.0939,-0.1937,-1773.19,1669.86,593.32
20880,-3.8739,-1.1372,-0.1819,-7.57,-783.45,-1937.93
20890,-3.8739,-1.1373,-0.1774,-1554.44,732.12,-47.24
20900,-3.8738,-1.1144,-0.1530,-1570.07,1310.24,1984.01
20910,-3.8738,-1.0851,-0.0907,1367.43,435.30,-625.31
20920,-3.8738,-1.0740,-0.0333,1117.43,404.11,-1922.06
20930,-3.8739,-1.0790,-0.0214,-1460.69,-252.14,-812.62
20940,-3.8739,-1.0913,-0.0559,1898.68,1279.11,343.69
20950,-3.8740,-1.1293,-0.1019,320.56,857.24,-1312.62
20960,-3.8740,-1.1936,-0.1029,-538.82,-1033.51,-1172.12
20970,-3.8739,-1.2533,-0.0306,-773.19,-1158.63,656.01
20980,-3.8738,-1.2913,0.1069,-413.82,91.25,890.56
20990,-3.8737,-1.3099,0.2657,-1273.19,1700.56,-1437.32
21000,-3.8735,-1.3182,0.3723,336.18,-1971.31,-483.89
21010,-3.8734,-1.3329,0.3756,-726.32,-330.75,-858.70
21020,-3.8733,-1.3518,0.3086,1398.68,91.13,-1061.77
21030,-3.8732,-1.3501,0.2523,-1023.19,-487.06,-218.20
21040,-3.8729,-1.3182,0.2528,-804.44,309.81,1047.36
21050,-3.8728,-1.2686,0.3148,-726.32,372.38,-1390.14
21060,-3.8726,-1.2188,0.4171,1633.06,310.00,859.99
21070,-3.8724,-1.1827,0.5087,8.06,1403.87,-921.08
21080,-3.8722,-1.1661,0.5450,617.43,1122.68,610.35
21090,-3.8721,-1.1683,0.5450,-1257.57,1778.93,-1342.71
21100,-3.8718,-1.1799,0.5575,-1538.82,1778.93,1751.04
21110,-3.8716,-1.1860,0.5959,976.81,-627.32,219.79
21120,-3.8715,-1.1626,0.6494,195.56,294.56,1594.91
21130,-3.8713,-1.1018,0.7244,-804.44,-861.69,-1655.03
21140,-3.8712,-1.0454,0.7931,-1023.19,732.18,1407.65
21150,-3.8712,-1.0101,0.8080,-1804.44,1529.17,-185.97
21160,-3.8710,-0.9587,0.7891,-1288.82,-564.51,110.90
21170,-3.8708,-0.8732,0.7646,1289.31,1013.73,48.40
21180,-3.8708,-0.7485,0.7290,242.43,1888.92,1501.46
21190,-3.8708,-0.6006,0.6947,195.56,1326.66,-1811.10
21200,-3.8708,-0.4603,0.6765,-866.94,936.28,-1045.53
21210,-3.8708,-0.3365,0.6736,1086.18,-1391.54,-936.22
21220,-3.8708,-0.2551,0.6851,929.93,-1766.30,-1342.47
21230,-3.8708,-0.2264,0.7142,-648.19,-297.42,-1108.09
21240,-3.8707,-0.2220,0.7721,-976.32,-562.99,813.84
21250,-3.8706,-0.2124,0.8541,-413.82,-1156.74,1360.84
21260,-3.8705,-0.1643,0.9131,820.56,1343.32,-873.35
21270,-3.8704,-0.0768,0.9077,-1023.19,890.26,-701.35
21280,-3.8704,0.0056,0.8456,-1820.07,202.94,-45.10
21290,-3.8704,0.0387,0.7573,726.81,234.38,1095.40
21300,-3.8705,0.0203,0.6812,961.18,937.56,1126.46
21310,-3.8706,-0.0137,0.6383,-1398.19,-812.50,1501.28
21320,-3.8707,-0.0294,0.6162,-1741.94,1718.69,-1998.78
21330,-3.8708,-0.0201,0.5972,242.43,-1109.44,-1483.22
21340,-3.8710,-0.0073,0.5840,1429.93,453.06,-858.22
21350,-3.8710,-0.0217,0.5881,-929.44,-1234.44,204.22
21360,-3.8711,-0.0713,0.6099,1226.81,-703.19,-1545.78
21370,-3.8711,-0.1260,0.6235,-1116.94,-1922.06,1782.41
21380,-3.8711,-0.1538,0.6010,-116.94,-172.18,657.41
21390,-3.8712,-0.1758,0.5498,320.56,937.19,-1889.47
21400,-3.8713,-0.2356,0.5151,1508.06,-1609.74,-811.46
21410,-3.8713,-0.3411,0.5347,1851.81,1952.64,-1905.27
21420,-3.8713,-0.4550,0.5898,351.81,452.45,-545.84
21430,-3.8712,-0.5300,0.6442,1773.68,-485.29,-858.28
21440,-3.8710,-0.5500,0.6859,164.31,-1532.29,1.22
21450,-3.8710,-0.5300,0.7074,1601.81,-188.60,-639.34
21460,-3.8708,-0.4969,0.7120,164.31,-1438.54,641.97
21470,-3.8708,-0.4824,0.7140,398.68,-844.73,938.84
21480,-3.8708,-0.5024,0.7019,-1741.94,-594.73,32.59
21490,-3.8710,-0.5498,0.6664,-304.44,1858.34,1391.97
21500,-3.8711,-0.6178,0.6287,1633.06,1311.40,1751.28
21510,-3.8712,-0.7026,0.5996,929.93,483.15,1157.47
21520,-3.8715,-0.8152,0.5725,-1929.44,764.22,-389.47
21530,-3.8716,-0.9668,0.5397,-335.69,1295.23,1313.60
21540,-3.8718,-1.1094,0.4862,258.06,1091.86,-1920.84
21550,-3.8721,-1.1746,0.4032,-1991.94,-1752.20,-1733.46
21560,-3.8723,-1.1694,0.3236,1664.31,-377.32,-858.64
21570,-3.8724,-1.1638,0.2971,-1679.44,1435.18,-1968.14
21580,-3.8726,-1.1948,0.3242,-960.69,-1955.44,-983.83
21590,-3.8726,-1.2299,0.3719,-929.44,1513.24,1859.99
21600,-3.8726,-1.2438,0.4291,-1413.82,-377.44,1813.17
21610,-3.8726,-1.2554,0.4850,804.93,-1064.94,766.42
21620,-3.8727,-1.2622,0.5016,-679.44,-1908.75,750.92
21630,-3.8729,-1.2460,0.4595,-1554.44,216.25,1954.10
21640,-3.8732,-1.2472,0.3806,523.68,-1174.32,1532.10
21650,-3.8734,-1.3217,0.3005,367.43,731.93,406.98
21660,-3.8738,-1.4448,0.2329,-1163.82,-1518.25,-1061.95
21670,-3.8740,-1.5427,0.1665,-929.44,1825.26,1875.43
21680,-3.8743,-1.5811,0.0964,-1460.69,1325.07,-1593.44
21690,-3.8744,-1.5741,0.0347,1633.06,356.26,718.93
21700,-3.8746,-1.5455,0.0033,-1476.32,450.01,-281.19
21710,-3.8748,-1.5264,0.0183,-1820.07,434.45,-1453.12
21720,-3.8749,-1.5547,0.0593,633.06,-1643.62,1687.50
21730,-3.8750,-1.6195,0.0675,1008.06,-393.68,1484.44
21740,-3.8439,-1.6440,0.0005,711.18,653.08,1781.37
21750,-3.8440,-1.5795,-0.1229,1570.56,74.89,-1812.50
21760,-3.8441,-1.4539,-0.2540,1836.18,278.14,1609.13
21770,-3.8442,-1.3176,-0.3511,1914.31,-502.87,186.95
21780,-3.8445,-1.2053,-0.3992,-648.19,-924.50,-672.61
21790,-3.8445,-1.1345,-0.4080,1726.81,919.49,139.83
21800,-3.8446,-1.1055,-0.3856,-1210.69,-205.38,-641.48
21810,-3.8445,-1.0939,-0.3442,-1491.94,-1345.95,827.33
21820,-3.8445,-1.0850,-0.2983,-7.57,-49.07,-203.86
21830,-3.8444,-1.1157,-0.2469,1133.06,1825.99,-266.24
21840,-3.8442,-1.2061,-0.1830,1195.56,404.05,-219.24
21850,-3.8441,-1.2950,-0.1251,1633.06,591.37,-656.62
21860,-3.8440,-1.3135,-0.1093,-1757.57,-2.56,-1609.68
21870,-3.8439,-1.2609,-0.1392,-116.94,-1971.37,702.88
21880,-3.8439,-1.1917,-0.1719,-1382.57,-1799.38,-1672.18
21890,-3.8439,-1.1637,-0.1696,-523.19,-1986.76,-234.74
21900,-3.8750,-1.2024,-0.1353,-945.07,-1689.82,1640.26
21910,-3.8749,-1.3037,-0.0745,-1898.19,-1299.26,999.69
21920,-3.8748,-1.4314,0.0129,1133.06,-1518.19,-1984.56
21930,-3.8746,-1.5183,0.0994,789.31,1669.07,-718.75
21940,-3.8744,-1.5411,0.1476,1664.31,731.38,265.81
21950,-3.8743,-1.5300,0.1698,-1257.57,-1096.80,-1640.38
21960,-3.8740,-1.4980,0.1970,164.31,1747.01,1656.56
21970,-3.8738,-1.4486,0.2262,258.06,1231.45,1031.62
21980,-3.8735,-1.4021,0.2678,-1413.82,965.88,1219.18
21990,-3.8733,-1.3783,0.3424,539.31,-1705.87,-1905.76
22000,-3.8730,-1.3723,0.4401,-413.82,-159.00,-1686.89
22010,-3.8728,-1.3750,0.5354,351.81,341.06,1735.23
22020,-3.8726,-1.3785,0.6216,8.06,544.19,907.29
22030,-3.8724,-1.3528,0.7021,-445.07,-424.62,-30.09
22040,-3.8722,-1.2936,0.7671,-1148.19,1887.94,1220.09
22050,-3.8722,-1.2319,0.7992,-1570.07,-1799.44,-904.79
22060,-3.8722,-1.1958,0.8011,-1679.44,-1689.94,-748.47
22070,-3.8721,-1.1926,0.8047,-1054.44,-1439.88,1923.40
22080,-3.8719,-1.1869,0.8342,-648.19,-986.76,-248.47
22090,-3.8717,-1.1383,0.8856,86.18,-1205.44,1657.84
22100,-3.8716,-1.0381,0.9487,-1695.07,1372.74,-1342.04
22110,-3.8715,-0.8986,1.0142,-866.94,1451.05,1236.21
22120,-3.8715,-0.7555,1.0662,992.43,1826.35,64.45
22130,-3.8716,-0.6343,1.0994,-695.07,482.85,-857.30
22140,-3.8715,-0.5162,1.1212,-1179.44,733.09,-1497.86
22150,-3.8712,-0.3771,1.1440,1929.93,-469.79,611.51
22160,-3.8710,-0.2196,1.1746,-257.57,-1547.67,1908.45
22170,-3.8707,-0.0424,1.2256,-101.32,-1641.11,-591.49
22180,-3.8707,0.1294,1.2825,-1413.82,890.50,-778.87
22190,-3.8710,0.2581,1.2734,570.56,156.49,1002.50
22200,-3.8713,0.3368,1.1857,1039.31,-999.51,-1231.93
22210,-3.8715,0.3289,1.0629,-882.57,-233.76,-1013.37
22220,-3.8713,0.2128,0.9298,-1898.19,47.49,923.95
22230,-3.8712,0.0474,0.8199,-757.57,-984.01,-13.85
22240,-3.8710,-0.0819,0.7919,-1929.44,953.19,-1185.91
22250,-3.8711,-0.1573,0.8430,1523.68,1374.82,-1014.10
22260,-3.8713,-0.1891,0.8870,-132.57,-78.49,876.59
22270,-3.8716,-0.1692,0.8719,-195.07,1546.45,-1717.04
22280,-3.8717,-0.1267,0.8093,-1648.19,-375.37,-1060.85
22290,-3.8717,-0.0858,0.7291,-210.69,-390.93,126.53
22300,-3.8718,-0.0465,0.6620,1023.68,1343.57,423.28
22310,-3.8721,-0.0229,0.6204,-1945.07,749.88,-45.59
22320,-3.8722,-0.0293,0.5941,1070.56,-578.19,-1123.84
22330,-3.8723,-0.0769,0.5868,258.06,62.44,-1217.59
22340,-3.8723,-0.1693,0.6140,-1835.69,-875.18,844.85
22350,-3.8723,-0.2826,0.6616,-1663.82,-1390.99,219.91
22360,-3.8723,-0.3940,0.7020,-163.82,702.51,438.78
22370,-3.8723,-0.4960,0.7322,1570.56,1874.21,-1826.78
22380,-3.8722,-0.5676,0.7373,523.68,1733.40,688.90
22390,-3.8722,-0.5822,0.7046,-648.19,-1610.53,-1186.10
22400,-3.8721,-0.5475,0.6593,1492.43,-1798.03,329.47
22410,-3.8721,-0.5109,0.6392,1929.93,405.15,798.16
22420,-3.8721,-0.5160,0.6715,-1382.57,1827.09,-1873.78
22430,-3.8719,-0.5608,0.7386,1961.18,1967.71,970.03
22440,-3.8719,-0.6124,0.7889,226.81,-1438.60,-670.47
22450,-3.8718,-0.6439,0.7980,1617.43,998.78,1017.15
22460,-3.8718,-0.6571,0.7754,1586.18,-1845.03,-1795.35
22470,-3.8718,-0.6812,0.7456,-101.32,-735.72,-1061.04
22480,-3.8718,-0.7363,0.7286,820.56,-548.22,-482.97
22490,-3.8717,-0.8187,0.7361,1758.06,1279.79,1688.90
22500,-3.8716,-0.8932,0.7633,-788.82,-1767.27,-1482.97
22510,-3.8715,-0.9248,0.7686,1679.93,1716.98,-1717.29
22520,-3.8715,-0.9103,0.7227,1633.06,-1611.21,1126.46
22530,-3.8716,-0.8660,0.6372,-507.57,513.79,907.65
22540,-3.8717,-0.8405,0.5361,1164.31,1576.42,-498.78
22550,-3.8716,-0.8688,0.4519,429.93,638.98,-1405.21
22560,-3.8715,-0.9280,0.4072,804.93,1857.67,1594.60
22570,-3.8715,-0.9977,0.3981,1226.81,138.79,1594.54
22580,-3.8716,-1.0786,0.4099,304.93,-1033.20,-61.77
22590,-3.8716,-1.1527,0.4219,1945.56,482.24,-1077.33
22600,-3.8716,-1.2007,0.4105,461.18,-1986.63,1516.42
22610,-3.8717,-1.2305,0.3651,-1679.44,560.12,-967.96
22620,-3.8717,-1.2441,0.3030,-1491.94,-1252.44,391.30
22630,-3.8718,-1.2412,0.2474,758.06,-1205.57,469.30
22640,-3.8721,-1.2333,0.2019,1133.06,-314.94,-374.57
22650,-3.8722,-1.2278,0.1636,-1851.32,1856.93,-1952.76
22660,-3.8724,-1.2219,0.1284,-1148.19,950.68,-218.44
22670,-3.8726,-1.2198,0.0977,-398.19,450.68,797.12
22680,-3.8728,-1.2289,0.0754,-132.57,513.18,1250.18
22690,-3.8730,-1.2433,0.0670,-1288.82,1669.43,-1578.00
22700,-3.8733,-1.2566,0.0565,867.43,591.31,-578.00
22710,-3.8735,-1.2548,0.0167,-835.69,-752.50,-15.56
22720,-3.8737,-1.2257,-0.0493,-601.32,-1846.25,156.25
22730,-3.8740,-1.1721,-0.1245,-882.57,1700.68,-484.50
22740,-3.8743,-1.1171,-0.1965,1976.81,75.81,-1968.99
22750,-3.8745,-1.0996,-0.2462,1023.68,-1142.82,858.95
22760,-3.8748,-1.1331,-0.2515,-741.94,497.80,-1312.99
22770,-3.8749,-1.1655,-0.2285,-1023.19,-174.13,-219.30
22780,-3.8749,-1.1366,-0.2205,-1179.44,-1236.69,-1344.24
22790,-3.8749,-1.0500,-0.2485,-1476.32,-205.38,1655.76
22800,-3.8750,-0.9490,-0.3000,1601.81,201.05,-687.99
22810,-3.8750,-0.8774,-0.3481,-1460.69,1607.48,93.14
22820,-3.8439,-0.8547,-0.3812,-304.44,-548.65,1218.02
22830,-3.8440,-0.8689,-0.3984,-1398.19,-782.96,-672.67
22840,-3.8440,-0.8969,-0.3997,789.31,1013.92,-1578.92
22850,-3.8440,-0.9230,-0.3889,1211.18,857.60,-1438.29
22860,-3.8440,-0.9598,-0.3662,1867.43,-1767.46,-172.67
22870,-3.8439,-1.0275,-0.3212,1148.68,1138.73,-1328.86
22880,-3.8750,-1.1080,-0.2568,492.43,-1095.76,-625.67
22890,-3.8748,-1.1522,-0.2057,-1820.07,-861.57,561.95
22900,-3.8746,-1.1412,-0.1960,523.68,1685.24,968.32
22910,-3.8745,-1.1163,-0.2151,1929.93,-1080.38,233.95
22920,-3.8745,-1.1233,-0.2257,1117.43,482.18,-1172.30
22930,-3.8744,-1.1685,-0.2100,226.81,-877.20,-1984.86
22940,-3.8743,-1.2302,-0.1711,-1554.44,1138.31,1999.57
22950,-3.8741,-1.2865,-0.1277,-1460.69,-1893.07,1921.51
22960,-3.8740,-1.3408,-0.0961,-663.82,-330.69,-1969.06
22970,-3.8739,-1.4003,-0.0559,383.06,-283.87,-78.37
22980,-3.8735,-1.4520,0.0192,773.68,856.63,78.00
22990,-3.8733,-1.4758,0.1221,-1851.32,-1534.12,-1578.12
23000,-3.8729,-1.4564,0.2307,-898.19,-362.30,-1531.07
23010,-3.8726,-1.4005,0.3176,1586.18,1544.01,-1921.45
23020,-3.8723,-1.3442,0.3667,742.43,669.13,-421.26
23030,-3.8721,-1.3218,0.3810,-54.44,-1049.56,-1874.33
