timestamp_ms,ax,ay,az,gx,gy,gz
0,-3.8715,-0.3047,0.9899,-882.57,-984.92,-1295.04
10,-3.8715,-0.3799,1.0096,1008.06,-1281.86,-123.11
20,-3.8715,-0.4684,1.0034,-616.94,1249.21,1486.33
30,-3.8717,-0.5525,0.9524,54.93,452.21,-310.55
40,-3.8718,-0.6373,0.8643,1289.31,1920.78,1142.46
50,-3.8719,-0.7296,0.7812,-1570.07,-1360.66,923.52
60,-3.8721,-0.8232,0.7379,-1382.57,14.16,-654.72
70,-3.8721,-0.9120,0.7338,-1366.94,-1532.90,-1717.35
80,-3.8721,-1.0007,0.7570,-726.32,1935.67,610.78
90,-3.8722,-1.0964,0.7826,-85.69,904.24,-1389.16
100,-3.8723,-1.1979,0.7728,-335.69,185.30,-139.10
110,-3.8723,-1.2864,0.7104,-1320.07,-1064.88,282.71
120,-3.8726,-1.3362,0.6069,-648.19,-1049.44,-76.78
130,-3.8727,-1.3521,0.4899,976.81,1700.50,-1030.09
140,-3.8728,-1.3602,0.3906,-1054.44,-1283.94,-1983.46
150,-3.8729,-1.3693,0.3213,1898.68,-1987.06,813.23
160,-3.8732,-1.3785,0.2719,742.43,1137.94,-1046.26
170,-3.8733,-1.3873,0.2257,-445.07,-1190.25,812.99
180,-3.8735,-1.3904,0.1708,-1570.07,903.50,-1171.45
190,-3.8737,-1.3859,0.1061,-1960.69,1872.25,1219.06
200,-3.8738,-1.3755,0.0408,-1382.57,1591.00,31.43
210,-3.8740,-1.3582,-0.0168,-54.44,1231.63,-624.94
220,-3.8741,-1.3406,-0.0658,-1835.69,1856.69,-609.44
230,-3.8741,-1.3306,-0.1019,414.31,-408.87,374.82
240,-3.8743,-1.3330,-0.1169,1695.56,-1033.87,-1656.49
250,-3.8743,-1.3490,-0.1096,1383.06,1044.25,1202.88
260,-3.8743,-1.3699,-0.0837,-663.82,1981.69,1156.01
270,-3.8743,-1.3914,-0.0442,664.31,1294.19,-1875.18
280,-3.8743,-1.4061,-0.0072,1914.31,-1643.37,-562.62
290,-3.8741,-1.4014,0.0056,23.68,-909.00,578.06
300,-3.8741,-1.3783,-0.0043,633.06,731.63,1421.88
310,-3.8741,-1.3517,-0.0118,-413.82,-534.00,1812.44
320,-3.8741,-1.3337,-0.0020,-1007.57,-1502.69,1718.69
330,-3.8741,-1.3230,0.0155,1289.31,-237.00,1499.94
340,-3.8741,-1.3157,0.0288,-1335.69,1997.38,1734.38
350,-3.8741,-1.3202,0.0449,-398.19,-299.50,-1031.25
360,-3.8740,-1.3438,0.0792,-976.32,1763.00,1109.44
370,-3.8740,-1.3770,0.1318,8.06,-1846.37,-218.63
380,-3.8739,-1.4048,0.1871,-241.94,887.88,-1531.01
390,-3.8738,-1.4189,0.2401,195.56,-34.00,1328.43
400,-3.8737,-1.4170,0.2965,-1616.94,-1252.81,812.93
410,-3.8735,-1.4004,0.3634,-1366.94,1965.94,1203.67
420,-3.8734,-1.3679,0.4396,758.06,-1471.50,-1905.58
430,-3.8733,-1.3112,0.5082,914.31,278.56,-1608.52
440,-3.8732,-1.2258,0.5529,179.93,1059.94,1594.73
450,-3.8730,-1.1191,0.5765,-898.19,-1221.19,204.16
460,-3.8730,-1.0032,0.6030,758.06,1810.30,-905.15
470,-3.8729,-0.8937,0.6426,-398.19,1201.11,-1733.22
480,-3.8728,-0.8018,0.6915,1617.43,-1736.15,-1858.15
490,-3.8726,-0.7194,0.7522,1383.06,529.66,313.84
500,-3.8723,-0.6261,0.8212,-70.07,295.41,782.71
510,-3.8721,-0.5101,0.8896,-132.57,1123.72,-1998.41
520,-3.8718,-0.3796,0.9534,-1288.82,1889.59,-1857.67
530,-3.8717,-0.2462,1.0040,-585.69,-1953.92,-248.17
540,-3.8716,-0.1100,1.0272,492.43,530.76,-1341.80
550,-3.8715,0.0157,1.0211,1929.93,-500.24,173.83
560,-3.8715,0.1108,1.0153,-1976.32,-1296.88,1830.08
570,-3.8713,0.1824,1.0391,-1804.44,1953.31,158.20
580,-3.8713,0.2533,1.0840,-648.19,1000.31,-716.74
590,-3.8712,0.3456,1.1301,429.93,-1249.51,-560.42
600,-3.8710,0.4602,1.1729,242.43,656.92,80.32
610,-3.8710,0.5764,1.2039,-1085.69,-1874.15,-763.37
620,-3.8710,0.6709,1.2028,1789.31,-1905.15,-1872.68
630,-3.8711,0.7240,1.1597,1883.06,1954.41,1221.07
640,-3.8713,0.7231,1.0808,679.93,438.90,-357.12
650,-3.8715,0.6742,0.9879,570.56,-1654.85,-1404.17
660,-3.8716,0.6002,0.9225,-1695.07,-1545.59,-1326.23
670,-3.8716,0.4998,0.9274,836.18,-1920.72,611.15
680,-3.8717,0.3730,0.9899,-23.19,-1295.96,-248.23
690,-3.8717,0.2551,1.0303,-241.94,-1296.20,-1935.61
700,-3.8717,0.1570,1.0045,664.31,-124.51,126.95
710,-3.8717,0.0574,0.9608,101.81,578.43,1158.20
720,-3.8716,-0.0508,0.9524,-648.19,-1015.56,345.58
730,-3.8716,-0.1388,0.9701,1508.06,1921.75,-1216.92
740,-3.8715,-0.1799,0.9905,-1757.57,187.19,642.52
750,-3.8715,-0.2041,1.0106,976.81,-1203.49,-1544.98
760,-3.8713,-0.2716,1.0382,1883.06,1374.57,298.83
770,-3.8713,-0.3904,1.0710,1242.43,905.70,1736.39
780,-3.8713,-0.5149,1.0891,-1960.69,1108.58,1017.70
790,-3.8715,-0.6168,1.0828,-1898.19,-579.16,-1513.55
800,-3.8716,-0.6947,1.0602,1054.93,-1391.85,-872.92
810,-3.8717,-0.7593,1.0244,-913.82,-282.65,-1857.36
820,-3.8719,-0.8322,0.9778,-1179.44,-860.90,-498.05
830,-3.8721,-0.9188,0.9260,1492.43,1170.23,501.89
840,-3.8723,-1.0059,0.8699,-1601.32,-1454.96,908.02
850,-3.8726,-1.1102,0.8163,-741.94,-642.64,673.52
860,-3.8728,-1.2419,0.7621,1898.68,497.80,595.34
870,-3.8732,-1.3464,0.6777,1039.31,1560.06,-732.91
880,-3.8734,-1.3799,0.5527,-335.69,-1237.06,1704.41
890,-3.8737,-1.3688,0.4205,-616.94,-1237.12,-1155.21
900,-3.8738,-1.3544,0.3198,804.93,1841.06,-1952.33
910,-3.8739,-1.3518,0.2643,-1351.32,950.44,1609.99
920,-3.8740,-1.3688,0.2468,-1023.19,1841.06,1109.86
930,-3.8741,-1.3932,0.2474,804.93,-393.31,469.18
940,-3.8744,-1.3955,0.2367,1679.93,-315.25,-999.57
950,-3.8745,-1.3756,0.1960,1383.06,-1690.25,297.30
960,-3.8748,-1.3527,0.1301,-70.07,1106.63,906.62
970,-3.8750,-1.3291,0.0522,-1132.57,669.19,828.37
980,-3.8440,-1.3126,-0.0242,1883.06,-1299.50,156.31
990,-3.8444,-1.3246,-0.0886,-7.57,919.25,-703.19
1000,-3.8446,-1.3573,-0.1484,-1538.82,669.25,-1718.93
1010,-3.8448,-1.3760,-0.2064,-1726.32,1012.94,-1390.93
1020,-3.8450,-1.3654,-0.2430,-116.94,1591.00,1358.95
1030,-3.8451,-1.3331,-0.2587,1242.43,903.56,1062.01
1040,-3.8452,-1.3025,-0.2642,1367.43,-1096.37,1015.08
1050,-3.8453,-1.2928,-0.2522,1289.31,-1799.44,-1234.92
1060,-3.8453,-1.2958,-0.2273,-1476.32,-268.19,-1688.05
1070,-3.8453,-1.2955,-0.2078,-1851.32,-1080.69,-859.86
1080,-3.8452,-1.2899,-0.2050,-1820.07,1419.31,93.32
1090,-3.8452,-1.2797,-0.2216,-1101.32,1778.69,499.57
1100,-3.8452,-1.2584,-0.2427,211.18,-346.25,374.51
1110,-3.8453,-1.2310,-0.2513,-1070.07,950.62,-625.49
1120,-3.8453,-1.2123,-0.2438,-1554.44,-158.69,-1328.67
1130,-3.8453,-1.1864,-0.2252,836.18,810.12,-1781.74
1140,-3.8453,-1.1464,-0.1957,148.68,-814.82,-1859.86
1150,-3.8453,-1.1306,-0.1423,1273.68,-1033.51,-1375.43
1160,-3.8453,-1.1376,-0.0829,-710.69,1794.62,-1203.43
1170,-3.8453,-1.1360,-0.0546,-1601.32,1403.99,-1203.31
1180,-3.8453,-1.1218,-0.0569,-1398.19,1028.99,-1265.75
1190,-3.8453,-1.1116,-0.0819,414.31,732.18,1421.75
1200,-3.8455,-1.1165,-0.1310,1726.81,1529.05,-1281.43
1210,-3.8456,-1.1261,-0.1799,1101.81,-752.20,-484.68
1220,-3.8456,-1.1348,-0.1805,-132.57,982.12,1140.26
1230,-3.8456,-1.1326,-0.1123,-1241.94,903.99,1468.38
1240,-3.8455,-1.1423,0.0112,-960.69,1638.37,124.76
1250,-3.8453,-1.1881,0.1537,1789.31,1450.87,593.75
1260,-3.8452,-1.2484,0.2701,-70.07,-314.88,-1952.88
1270,-3.8450,-1.3260,0.3143,211.18,-1408.69,94.24
1280,-3.8448,-1.3948,0.2748,-1726.32,247.38,-936.89
1290,-3.8446,-1.3944,0.2312,1476.81,-815.25,-843.26
1300,-3.8442,-1.3704,0.2472,1523.68,1606.63,687.93
1310,-3.8440,-1.3857,0.3151,601.81,-346.44,-1077.70
1320,-3.8749,-1.4117,0.4174,-1366.94,341.00,1469.36
1330,-3.8745,-1.4078,0.5144,-695.07,1434.69,641.42
1340,-3.8741,-1.3695,0.5670,-195.07,1856.57,-1811.52
1350,-3.8737,-1.3156,0.6042,711.18,591.06,-1217.65
1360,-3.8730,-1.2708,0.6583,-382.57,1356.75,719.91
1370,-3.8726,-1.2351,0.7058,1351.81,278.75,-1686.22
1380,-3.8721,-1.1835,0.7152,1914.31,-1643.07,-1717.41
1390,-3.8717,-1.0933,0.6675,523.68,-439.82,-1217.41
1400,-3.8715,-0.9614,0.5829,70.56,1450.99,-1108.09
1410,-3.8713,-0.8387,0.5197,945.56,-1376.89,-842.65
1420,-3.8712,-0.7882,0.5122,648.68,-1470.40,907.23
1430,-3.8712,-0.7981,0.5428,-882.57,1576.54,1969.73
1440,-3.8712,-0.8087,0.5717,1851.81,1498.41,-436.46
1450,-3.8711,-0.8029,0.5876,492.43,1185.91,1938.60
1460,-3.8710,-0.8090,0.6085,1242.43,-767.21,860.47
1470,-3.8708,-0.8199,0.6287,461.18,1904.66,16.78
1480,-3.8708,-0.7853,0.6138,-945.07,482.73,1938.72
1490,-3.8708,-0.6874,0.5487,-507.57,-1423.46,594.91
1500,-3.8711,-0.5713,0.4536,23.68,-1751.34,-827.09
1510,-3.8713,-0.5082,0.3770,-1116.94,-1923.03,-389.77
1520,-3.8715,-0.5356,0.3470,-1038.82,264.59,422.61
1530,-3.8717,-0.6326,0.3484,-554.44,436.40,-1514.95
1540,-3.8718,-0.7555,0.3571,-960.69,608.09,1953.80
1550,-3.8719,-0.8740,0.3594,-695.07,1717.22,-1889.95
1560,-3.8721,-0.9722,0.3573,133.06,-1986.08,-1889.95
1570,-3.8722,-1.0396,0.3510,-429.44,1748.05,547.55
1580,-3.8724,-1.0814,0.3739,-1054.44,935.42,1485.05
1590,-3.8727,-1.1394,0.4819,1586.18,-127.14,-889.95
1600,-3.8728,-1.2399,0.6149,-1835.69,1700.87,969.67
1610,-3.8730,-1.3351,0.6543,1304.93,-1283.69,1594.91
1620,-3.8733,-1.3698,0.5796,1117.43,-237.00,235.60
1630,-3.8738,-1.3527,0.4581,679.93,-1799.56,-233.28
1640,-3.8741,-1.3424,0.3491,-1132.57,-1346.44,63.35
1650,-3.8748,-1.3708,0.2579,179.93,700.50,-1874.33
1660,-3.8440,-1.4010,0.1799,539.31,1028.56,437.99
1670,-3.8445,-1.3922,0.1339,679.93,-955.87,1219.06
1680,-3.8448,-1.3655,0.1349,1804.93,1153.50,234.62
1690,-3.8452,-1.3597,0.1603,1226.81,1278.56,968.99
1700,-3.8455,-1.3729,0.1844,1961.18,528.56,140.93
1710,-3.8457,-1.3800,0.1951,273.68,-377.69,1625.31
1720,-3.8458,-1.3359,0.2144,-632.57,981.63,312.87
1730,-3.8461,-1.2765,0.2152,1008.06,-549.50,-1921.51
1740,-3.8463,-1.2589,0.1581,617.43,-440.00,-1187.13
1750,-3.8466,-1.2533,0.0791,-1132.57,247.50,-30.94
1760,-3.8467,-1.2418,0.0043,-413.82,-1861.88,1547.00
1770,-3.8468,-1.2247,-0.0497,1054.93,560.06,15.62
1780,-3.8470,-1.2057,-0.0730,-757.57,1653.81,-218.87
1790,-3.8470,-1.2026,-0.0626,1679.93,-1330.51,781.07
1800,-3.8472,-1.2427,-0.0264,-1929.44,-2.38,-1015.81
1810,-3.8472,-1.2994,-0.0084,945.56,638.18,1718.69
1820,-3.8472,-1.2931,-0.0518,1679.93,-1065.06,156.19
1830,-3.8473,-1.1952,-0.1467,-1507.57,1388.06,1937.38
1840,-3.8474,-1.0530,-0.2517,-976.32,1231.99,-437.81
1850,-3.8474,-0.9253,-0.3243,1226.81,-205.20,-1656.80
1860,-3.8474,-0.8389,-0.3453,1570.56,-1501.83,-1063.17
1870,-3.8473,-0.7911,-0.3237,633.06,-189.15,1249.27
1880,-3.8472,-0.7739,-0.2764,-1257.57,-1423.46,1139.95
1890,-3.8470,-0.7821,-0.2156,945.56,639.10,-1703.67
1900,-3.8469,-0.7991,-0.1512,-101.32,420.29,-47.30
1910,-3.8467,-0.8046,-0.1016,1726.81,654.66,1109.07
1920,-3.8466,-0.8022,-0.0824,1023.68,-985.96,718.51
1930,-3.8466,-0.8357,-0.0889,1320.56,1467.16,-1828.31
1940,-3.8466,-0.9235,-0.1146,1039.31,638.98,1562.32
1950,-3.8467,-1.0096,-0.1603,1804.93,1341.92,-140.87
1960,-3.8467,-1.0505,-0.2151,-1226.32,-502.01,1593.38
1970,-3.8468,-1.0765,-0.2542,1539.31,482.30,-1016.05
1980,-3.8468,-1.1278,-0.2528,-1788.82,-517.76,1186.95
1990,-3.8468,-1.1931,-0.2166,-351.32,-346.01,1155.70
2000,-3.8468,-1.2338,-0.1740,-710.69,294.49,-1250.43
2010,-3.8467,-1.2224,-0.1372,-1913.82,1747.56,1515.26
2020,-3.8466,-1.1660,-0.0992,-460.69,-1549.32,937.19
2030,-3.8464,-1.1078,-0.0577,-1241.94,-689.82,374.76
2040,-3.8464,-1.0854,-0.0247,-1788.82,622.80,-375.12
2050,-3.8463,-1.0975,-0.0120,1070.56,857.24,-1328.19
2060,-3.8462,-1.1270,-0.0135,-476.32,-1517.82,1765.56
2070,-3.8461,-1.1672,-0.0012,-241.94,-1721.01,1546.81
2080,-3.8459,-1.2196,0.0468,-1398.19,-142.94,-1421.94
2090,-3.8457,-1.2793,0.1107,-101.32,1997.56,1687.56
2100,-3.8455,-1.3218,0.1614,258.06,-1815.00,-562.32
2110,-3.8451,-1.3224,0.1938,-1179.44,669.25,-1155.94
2120,-3.8447,-1.2930,0.2253,-1257.57,825.50,-421.51
2130,-3.8442,-1.2771,0.2830,-1491.94,856.81,-1749.57
2140,-3.8750,-1.2826,0.3739,539.31,231.87,-1749.45
2150,-3.8745,-1.2839,0.4781,-163.82,-127.56,-1749.33
2160,-3.8740,-1.2828,0.5695,-335.69,1216.19,1610.29
2170,-3.8735,-1.2848,0.6312,-195.07,903.69,157.35
2180,-3.8732,-1.2742,0.6704,-445.07,809.94,1954.35
2190,-3.8728,-1.2423,0.6915,914.31,1825.62,-1717.47
2200,-3.8724,-1.1964,0.6769,992.43,528.81,1.34
2210,-3.8723,-1.1519,0.6268,-1132.57,-1346.13,-373.72
2220,-3.8721,-1.1293,0.5541,570.56,247.74,-1873.78
2230,-3.8718,-1.1312,0.4867,-538.82,-1064.76,1172.91
2240,-3.8716,-1.1298,0.4747,-788.82,-1689.76,-1702.21
2250,-3.8712,-1.1112,0.5382,-601.32,778.99,188.42
2260,-3.8710,-1.0792,0.6516,1773.68,904.05,594.79
2270,-3.8708,-1.0232,0.7549,1867.43,-580.26,-1733.15
2280,-3.8707,-0.9219,0.7844,1039.31,638.61,970.21
2290,-3.8707,-0.7655,0.7255,-1991.94,420.04,892.15
2300,-3.8708,-0.5861,0.6177,-1976.32,873.47,-1732.97
2310,-3.8710,-0.4541,0.5240,992.43,-923.03,-1545.72
2320,-3.8711,-0.4233,0.4982,1883.06,-907.17,-280.27
2330,-3.8711,-0.4775,0.5372,1820.56,-219.60,-1436.58
2340,-3.8711,-0.5496,0.5928,-1116.94,780.27,-1873.96
2350,-3.8711,-0.5944,0.6235,1664.31,-110.47,1016.72
2360,-3.8712,-0.6136,0.6086,-70.07,-173.10,1923.03
2370,-3.8713,-0.6307,0.5577,1461.18,1920.65,1079.28
2380,-3.8716,-0.6503,0.4967,-726.32,-595.03,-483.34
2390,-3.8717,-0.6586,0.4423,773.68,-407.53,-1999.08
2400,-3.8718,-0.6631,0.4067,-288.82,623.66,1563.35
2410,-3.8719,-0.6832,0.4109,-866.94,76.78,-608.58
2420,-3.8719,-0.7388,0.4580,554.93,608.03,-358.58
2430,-3.8718,-0.8292,0.5262,1445.56,-1360.84,1641.48
2440,-3.8717,-0.9163,0.6002,1867.43,-626.65,579.10
2450,-3.8717,-0.9703,0.6660,-1273.19,841.92,-1655.09
2460,-3.8717,-1.0027,0.7042,-195.07,1263.67,985.66
2470,-3.8718,-1.0386,0.7162,-335.69,-1845.76,423.22
2480,-3.8721,-1.0861,0.7139,-929.44,-314.58,1063.84
2490,-3.8724,-1.1316,0.6864,992.43,-611.51,-1014.28
2500,-3.8728,-1.1661,0.6355,-835.69,-127.26,-1154.97
2510,-3.8732,-1.2194,0.6044,-1257.57,1357.06,1907.47
2520,-3.8735,-1.3511,0.6111,-70.07,1372.56,32.41
2530,-3.8740,-1.5555,0.6132,-929.44,-1768.31,454.28
2540,-3.8746,-1.7281,0.5667,898.68,-1503.05,-1030.09
2550,-3.8439,-1.7906,0.4733,-1195.07,543.46,391.72
2560,-3.8445,-1.7699,0.3651,-1195.07,590.21,-1780.33
2570,-3.8450,-1.7170,0.2656,1461.18,-1253.48,1563.17
2580,-3.8455,-1.6464,0.1830,226.81,-1987.73,-624.51
2590,-3.8457,-1.5605,0.1182,1273.68,-565.73,15.93
2600,-3.8461,-1.4711,0.0685,258.06,-862.43,-1093.57
2610,-3.8463,-1.3929,0.0300,-288.82,778.32,-624.88
2620,-3.8464,-1.3413,0.0005,1711.18,-143.37,1046.88
2630,-3.8467,-1.3247,-0.0187,320.56,75.50,-78.12
2640,-3.8468,-1.3329,-0.0251,-1554.44,1622.38,-171.94
2650,-3.8468,-1.3516,-0.0199,1398.68,794.25,203.06
2660,-3.8469,-1.3824,-0.0105,-991.94,1466.06,718.69
2670,-3.8470,-1.4172,-0.0159,-945.07,-1330.87,1249.94
2680,-3.8472,-1.4210,-0.0596,-1398.19,1981.57,1499.94
2690,-3.8473,-1.3705,-0.1425,-1882.57,387.82,1656.13
2700,-3.8474,-1.2770,-0.2316,586.18,1778.56,-1437.81
2710,-3.8474,-1.1670,-0.2888,554.93,-1627.50,437.01
2720,-3.8475,-1.0673,-0.3021,-1366.94,-955.44,-344.36
2730,-3.8474,-0.9973,-0.2809,-601.32,1341.61,468.14
2740,-3.8474,-0.9615,-0.2382,351.81,60.55,-1609.92
2750,-3.8473,-0.9501,-0.1887,929.93,1529.36,1202.64
2760,-3.8472,-0.9476,-0.1501,-1601.32,-142.52,296.45
2770,-3.8472,-0.9463,-0.1351,-1288.82,794.98,-1359.68
2780,-3.8472,-0.9565,-0.1379,-1116.94,-1283.14,-109.68
2790,-3.8470,-0.9830,-0.1436,1570.56,-1642.52,359.07
2800,-3.8470,-1.0090,-0.1451,-1820.07,1638.67,405.94
2810,-3.8470,-1.0188,-0.1415,-1148.19,1435.49,405.94
2820,-3.8470,-1.0065,-0.1344,1601.81,1904.24,437.19
2830,-3.8470,-0.9807,-0.1257,-820.07,-1189.51,296.57
2840,-3.8470,-0.9753,-0.1095,-1523.19,-80.08,77.82
2850,-3.8470,-1.0115,-0.0756,-835.69,1998.05,187.26
2860,-3.8470,-1.0658,-0.0375,-1460.69,-1658.26,1124.82
2870,-3.8470,-1.1149,-0.0214,-413.82,-783.39,-937.62
2880,-3.8469,-1.1663,-0.0269,1304.93,1279.05,1499.94
2890,-3.8468,-1.2234,-0.0305,-1273.19,575.81,296.81
2900,-3.8467,-1.2644,-0.0081,-585.69,106.93,343.69
2910,-3.8466,-1.2834,0.0541,-1835.69,-1018.13,-1281.31
2920,-3.8462,-1.3051,0.1554,-273.19,-1065.06,406.31
2930,-3.8458,-1.3459,0.2816,961.18,-96.31,1343.99
2940,-3.8453,-1.3992,0.3972,-273.19,59.81,391.17
2950,-3.8448,-1.4379,0.4708,914.31,-1143.37,1047.61
2960,-3.8444,-1.4442,0.4954,-38.82,278.38,-1202.21
2970,-3.8750,-1.4310,0.4827,-851.32,-580.99,1110.29
2980,-3.8744,-1.4231,0.4762,836.18,1794.07,594.67
2990,-3.8738,-1.4312,0.5278,1851.81,965.94,1610.29
3000,-3.8732,-1.4415,0.6503,820.56,-424.68,-780.27
3010,-3.8726,-1.4254,0.8086,-507.57,-752.87,-608.15
3020,-3.8721,-1.3574,0.9264,1554.93,-487.18,-310.97
3030,-3.8717,-1.2390,0.9174,-1741.94,-1408.94,-1154.48
3040,-3.8715,-1.0989,0.7775,1414.31,1435.06,-1201.35
3050,-3.8712,-0.9781,0.6063,-648.19,-470.95,1970.21
3060,-3.8710,-0.9149,0.5101,-1195.07,1623.05,157.41
3070,-3.8708,-0.9066,0.5132,-1101.32,1310.67,1157.23
3080,-3.8707,-0.9128,0.5664,-38.82,1701.29,1891.60
3090,-3.8706,-0.9052,0.6342,-835.69,513.79,-905.15
3100,-3.8705,-0.8859,0.7054,148.68,1185.73,-108.15
3110,-3.8704,-0.8564,0.7535,-1382.57,-1689.27,-1061.16
3120,-3.8702,-0.8108,0.7555,-1616.94,467.04,673.34
3130,-3.8702,-0.7402,0.7122,226.81,717.16,1985.84
3140,-3.8702,-0.6421,0.6324,1258.06,-829.59,1595.09
3150,-3.8704,-0.5341,0.5388,1820.56,967.47,-1733.15
3160,-3.8705,-0.4504,0.4729,-351.32,983.28,1469.79
3170,-3.8706,-0.4242,0.4611,-1648.19,545.96,1204.04
3180,-3.8707,-0.4661,0.4868,1711.18,-969.60,-1655.40
3190,-3.8707,-0.5521,0.5134,351.81,-1672.79,829.04
3200,-3.8708,-0.6450,0.5204,1336.18,1733.28,-327.15
3210,-3.8708,-0.7314,0.5100,1445.56,-1376.28,1454.10
3220,-3.8710,-0.8175,0.5029,-1616.94,1295.41,1641.60
3230,-3.8711,-0.9067,0.5192,-632.57,388.98,516.60
3240,-3.8713,-0.9900,0.5507,-54.44,-1533.08,-1889.65
3250,-3.8716,-1.0546,0.5693,1289.31,-1501.95,-1748.96
3260,-3.8718,-1.1041,0.5577,1023.68,888.55,1047.97
3270,-3.8722,-1.1465,0.5308,-1320.07,-595.95,-936.46
3280,-3.8724,-1.1785,0.5125,1258.06,-49.13,282.23
3290,-3.8728,-1.1873,0.5062,1164.31,1607.06,125.98
3300,-3.8733,-1.1759,0.5125,39.31,810.18,-1014.65
3310,-3.8737,-1.1908,0.5321,1492.43,1607.06,1125.98
3320,-3.8741,-1.2731,0.5511,-413.82,122.62,1579.16
3330,-3.8746,-1.4041,0.5476,1054.93,-1440.00,94.79
3340,-3.8440,-1.5283,0.5098,289.31,-1893.37,1032.29
3350,-3.8446,-1.6149,0.4489,383.06,1262.63,1469.73
3360,-3.8452,-1.6804,0.3846,1304.93,1465.58,-811.65
3370,-3.8457,-1.7360,0.3107,914.31,1246.70,-1718.02
3380,-3.8462,-1.7573,0.2083,1804.93,-222.17,-733.83
3390,-3.8464,-1.7272,0.0978,-929.44,-1331.60,234.74
3400,-3.8467,-1.6630,0.0258,-1070.07,527.83,1593.93
3410,-3.8468,-1.5856,0.0048,-851.32,-690.80,1546.88
3420,-3.8469,-1.4937,0.0120,1054.93,621.89,-984.38
3430,-3.8469,-1.3785,0.0232,820.56,1543.95,1859.38
3440,-3.8469,-1.2477,0.0253,-445.07,-1018.37,1562.50
3450,-3.8469,-1.1273,0.0122,304.93,-752.44,1562.50
3460,-3.8469,-1.0269,-0.0215,-288.82,1575.87,1125.00
3470,-3.8470,-0.9399,-0.0740,570.56,1263.61,-234.44
3480,-3.8470,-0.8755,-0.1300,-304.44,-1455.02,1687.32
3490,-3.8472,-0.8503,-0.1748,-54.44,-626.77,-625.31
3500,-3.8472,-0.8503,-0.2051,-835.69,1638.92,1062.13
3510,-3.8473,-0.8408,-0.2220,-835.69,1763.92,-812.93
3520,-3.8473,-0.8091,-0.2275,383.06,-407.90,1983.89
3530,-3.8473,-0.7717,-0.2241,445.56,-1110.96,1374.51
3540,-3.8473,-0.7511,-0.2158,1226.81,-673.40,1327.64
3550,-3.8473,-0.7546,-0.2057,-132.57,389.10,1515.20
3560,-3.8473,-0.7880,-0.1976,-585.69,1685.97,1499.57
3570,-3.8473,-0.8557,-0.1967,-851.32,-1282.84,780.82
3580,-3.8474,-0.9417,-0.2012,-1523.19,-1157.96,-594.18
3590,-3.8474,-1.0145,-0.2004,-523.19,-1736.27,-1641.05
3600,-3.8474,-1.0493,-0.1921,-1851.32,-1642.64,-1641.05
3610,-3.8474,-1.0459,-0.1803,1695.56,-580.20,-531.68
3620,-3.8473,-1.0242,-0.1627,-1866.94,935.42,1234.01
3630,-3.8473,-1.0067,-0.1404,914.31,-814.51,-1094.12
3640,-3.8472,-1.0110,-0.1204,-851.32,-1955.14,249.69
3650,-3.8472,-1.0419,-0.0978,-1398.19,607.36,1671.63
3660,-3.8470,-1.0853,-0.0544,-1351.32,-502.08,93.51
3670,-3.8470,-1.1132,0.0013,1086.18,1044.74,-375.12
3680,-3.8469,-1.1067,0.0370,1523.68,185.30,-843.75
3690,-3.8468,-1.0776,0.0441,-1648.19,747.80,-1874.94
3700,-3.8467,-1.0602,0.0363,-1929.44,1654.11,906.31
3710,-3.8466,-1.0804,0.0376,304.93,654.17,1140.69
3720,-3.8463,-1.1370,0.0748,1711.18,825.99,218.81
3730,-3.8461,-1.2170,0.1500,-1523.19,1591.49,-1953.00
3740,-3.8457,-1.3071,0.2373,226.81,-783.63,1859.62
3750,-3.8453,-1.3859,0.3196,695.56,-1611.94,-1202.70
3760,-3.8448,-1.4365,0.3960,-1382.57,919.13,219.36
3770,-3.8445,-1.4598,0.4435,133.06,-1299.68,-1733.64
3780,-3.8440,-1.4595,0.4498,1148.68,778.38,-1374.15
3790,-3.8746,-1.4435,0.4318,1195.56,1590.88,1938.35
3800,-3.8740,-1.4370,0.4218,-757.57,-721.62,-233.58
3810,-3.8733,-1.4484,0.4557,70.56,1997.19,-1061.71
3820,-3.8726,-1.4652,0.5197,-1382.57,-1659.12,1188.35
3830,-3.8719,-1.4642,0.5817,461.18,-1471.62,1422.85
3840,-3.8715,-1.4127,0.6326,586.18,-1534.12,-920.78
3850,-3.8710,-1.2987,0.6638,-820.07,981.57,1032.47
3860,-3.8707,-1.1512,0.6616,1773.68,981.81,-904.97
3870,-3.8705,-1.0165,0.6224,648.68,700.87,-1514.34
3880,-3.8702,-0.9208,0.5579,1898.68,-314.51,563.66
3890,-3.8701,-0.8634,0.4956,-1851.32,-579.96,-1702.09
3900,-3.8700,-0.8387,0.4746,1492.43,-548.58,-155.33
3910,-3.8698,-0.8409,0.4998,648.68,763.98,766.54
3920,-3.8696,-0.8439,0.5436,367.43,-17.27,657.17
3930,-3.8696,-0.8105,0.5880,-7.57,1592.04,-952.09
3940,-3.8696,-0.7285,0.6179,258.06,-720.34,-1045.78
3950,-3.8698,-0.6241,0.6125,-1241.94,-892.09,-701.97
3960,-3.8699,-0.5319,0.5634,117.43,-1579.35,485.53
3970,-3.8701,-0.4724,0.4939,-70.07,123.90,469.85
3980,-3.8704,-0.4624,0.4398,-460.69,-766.60,407.17
3990,-3.8706,-0.5078,0.4139,820.56,311.58,110.23
4000,-3.8710,-0.6000,0.4069,-991.94,998.96,-280.46
4010,-3.8712,-0.7246,0.4136,-788.82,92.53,-452.33
4020,-3.8715,-0.8706,0.4395,-741.94,951.66,-389.83
4030,-3.8717,-1.0287,0.4803,570.56,263.92,-561.65
4040,-3.8719,-1.1747,0.5031,336.18,1497.99,-1827.21
4050,-3.8723,-1.2677,0.4734,1648.68,403.93,-686.52
4060,-3.8727,-1.2897,0.4135,1742.43,606.87,-202.21
4070,-3.8729,-1.2686,0.3741,-1070.07,934.94,266.42
4080,-3.8733,-1.2419,0.3604,1633.06,-96.25,266.30
4090,-3.8737,-1.2192,0.3463,1039.31,-1861.82,63.17
4100,-3.8740,-1.1984,0.3384,-54.44,341.31,485.05
4110,-3.8744,-1.2111,0.3567,-1382.57,-674.26,703.74
4120,-3.8749,-1.2864,0.3768,992.43,1669.49,-1421.20
4130,-3.8441,-1.3925,0.3639,-648.19,247.44,-1968.02
4140,-3.8446,-1.4756,0.3228,1773.68,-1409.00,625.67
4150,-3.8452,-1.5186,0.2738,-866.94,1325.20,-343.14
4160,-3.8456,-1.5349,0.2296,1633.06,-940.49,437.99
4170,-3.8461,-1.5378,0.1963,-460.69,1403.20,-155.82
4180,-3.8463,-1.5381,0.1719,-835.69,1137.57,1672.24
4190,-3.8466,-1.5299,0.1455,-866.94,-1987.43,1281.56
4200,-3.8468,-1.4902,0.1100,179.93,-1362.37,-1796.63
4210,-3.8469,-1.4078,0.0681,1258.06,-1909.18,406.43
4220,-3.8470,-1.2933,0.0281,-195.07,731.57,297.00
4230,-3.8472,-1.1680,0.0010,-1538.82,-393.19,-1921.88
4240,-3.8472,-1.0574,-0.0052,-1491.94,138.31,1359.38
4250,-3.8472,-0.9849,0.0027,664.31,-658.33,1437.44
4260,-3.8472,-0.9587,0.0093,1945.56,357.42,1640.62
4270,-3.8472,-0.9677,0.0033,1289.31,1201.23,1625.00
4280,-3.8472,-0.9802,-0.0204,148.68,435.61,1109.38
4290,-3.8472,-0.9768,-0.0613,-1460.69,1404.30,15.56
4300,-3.8473,-0.9629,-0.1123,-1023.19,169.92,-1640.75
4310,-3.8473,-0.9424,-0.1587,758.06,1638.73,437.26
4320,-3.8474,-0.9142,-0.1875,-616.94,-298.77,-1125.37
4330,-3.8474,-0.8826,-0.1942,-1007.57,13.79,-1859.74
4340,-3.8474,-0.8590,-0.1788,-960.69,-845.52,-1547.30
4350,-3.8474,-0.8489,-0.1449,-1945.07,1123.29,-47.24
4360,-3.8473,-0.8430,-0.1017,-648.19,1467.04,-1703.43
4370,-3.8472,-0.8408,-0.0583,101.81,-1001.65,952.88
4380,-3.8472,-0.8629,-0.0166,383.06,545.23,-828.25
4390,-3.8470,-0.9211,0.0166,1554.93,1888.92,93.69
4400,-3.8472,-0.9902,0.0272,-1898.19,-1861.21,-62.50
4410,-3.8472,-1.0396,0.0150,1258.06,-501.95,-593.75
4420,-3.8472,-1.0613,-0.0040,-1054.44,1935.42,-1500.00
4430,-3.8472,-1.0580,-0.0167,164.31,-502.08,1234.31
4440,-3.8473,-1.0352,-0.0165,586.18,1872.92,-15.69
4450,-3.8473,-1.0272,-0.0125,-491.94,1904.17,-1234.44
4460,-3.8473,-1.0585,-0.0206,523.68,-1580.14,1062.44
4470,-3.8474,-1.1053,-0.0275,523.68,1372.92,-750.06
4480,-3.8474,-1.1438,-0.0126,-1476.32,497.80,-1890.69
4490,-3.8474,-1.1799,0.0106,1601.81,-1596.01,-1453.19
4500,-3.8473,-1.2347,0.0281,976.81,1372.68,-1859.38
4510,-3.8470,-1.3153,0.0548,1961.18,-393.07,1859.38
4520,-3.8467,-1.4058,0.0948,-351.32,-971.37,1515.69
4530,-3.8462,-1.4865,0.1425,70.56,153.50,1500.18
4540,-3.8456,-1.5389,0.2102,1742.43,-1752.93,1843.99
4550,-3.8448,-1.5532,0.2933,-976.32,-1081.18,484.74
4560,-3.8442,-1.5464,0.3757,1195.56,1559.45,-296.33
4570,-3.8748,-1.5391,0.4595,-1929.44,106.32,-1280.52
4580,-3.8740,-1.5411,0.5265,-991.94,-1174.93,625.85
4590,-3.8734,-1.5367,0.5559,-1257.57,-596.80,1547.85
4600,-3.8728,-1.4967,0.5627,-695.07,-831.18,1266.66
4610,-3.8723,-1.4271,0.5607,429.93,43.95,-1889.53
4620,-3.8719,-1.3531,0.5571,1336.18,-221.56,-561.46
4630,-3.8716,-1.2858,0.5712,-1195.07,-674.56,1782.29
4640,-3.8713,-1.2302,0.6045,-570.07,1122.44,735.47
4650,-3.8712,-1.1852,0.6265,-1460.69,1388.18,532.41
4660,-3.8712,-1.1339,0.6145,304.93,200.81,-1436.28
4670,-3.8712,-1.0618,0.5757,-1132.57,-1330.38,-748.84
4680,-3.8712,-0.9752,0.5222,101.81,1701.05,-1780.15
4690,-3.8713,-0.8951,0.4653,-820.07,-1142.58,-139.65
4700,-3.8713,-0.8391,0.4158,1429.93,-423.65,1344.60
4710,-3.8713,-0.8043,0.3959,601.81,1232.73,313.29
4720,-3.8713,-0.7788,0.4259,1054.93,-1314.09,922.61
4730,-3.8713,-0.7515,0.4932,320.56,-1470.28,-1952.33
4740,-3.8713,-0.7035,0.5616,-179.44,-860.90,-1124.08
4750,-3.8713,-0.6393,0.6044,1961.18,-95.15,-686.46
4760,-3.8713,-0.5898,0.6199,-1820.07,1373.72,-530.09
4770,-3.8713,-0.5798,0.6138,508.06,-641.78,-748.84
4780,-3.8713,-0.6051,0.5845,1789.31,-1423.03,-1686.34
4790,-3.8715,-0.6514,0.5399,-1445.07,-1173.10,-92.65
4800,-3.8716,-0.7277,0.4950,633.06,1123.72,-608.34
4810,-3.8717,-0.8367,0.4694,-1132.57,-626.46,1500.92
4820,-3.8719,-0.9705,0.4738,914.31,92.10,-405.33
4830,-3.8721,-1.1134,0.5073,-210.69,654.30,-1608.46
4840,-3.8722,-1.2324,0.5619,1492.43,950.93,1047.85
4850,-3.8724,-1.3090,0.6067,-1741.94,-64.94,1563.54
4860,-3.8728,-1.3497,0.6151,461.18,1669.31,-889.47
4870,-3.8732,-1.3748,0.5852,-757.57,-1252.69,-1655.09
4880,-3.8735,-1.3926,0.5435,39.31,-1080.81,313.60
4890,-3.8740,-1.4137,0.5192,1758.06,1575.38,1188.54
4900,-3.8746,-1.4407,0.5033,-945.07,-1534.06,-217.77
4910,-3.8439,-1.4502,0.4655,-398.19,434.63,344.73
4920,-3.8445,-1.4423,0.4017,-1616.94,-409.12,1157.10
4930,-3.8451,-1.4561,0.3337,-601.32,-565.37,-358.64
4940,-3.8456,-1.5059,0.2678,1633.06,-1268.49,-405.64
4950,-3.8459,-1.5465,0.1926,-741.94,-1706.12,1156.74
4960,-3.8463,-1.5317,0.1154,-1945.07,668.82,1453.49
4970,-3.8466,-1.4746,0.0668,-54.44,-1221.80,890.81
4980,-3.8468,-1.4238,0.0504,-741.94,559.57,-1734.25
4990,-3.8469,-1.3893,0.0359,1758.06,-1534.06,1390.69
5000,-3.8470,-1.3467,0.0110,-1820.07,606.63,-1171.81
5010,-3.8470,-1.2831,-0.0160,-366.94,1419.19,1734.38
5020,-3.8470,-1.2043,-0.0347,-226.32,1966.19,1109.31
5030,-3.8470,-1.1277,-0.0463,1851.81,-424.26,546.75
5040,-3.8470,-1.0662,-0.0557,-335.69,-1908.51,124.88
5050,-3.8472,-1.0219,-0.0623,-460.69,888.49,-328.25
5060,-3.8472,-0.9889,-0.0674,1211.18,44.86,-1265.75
5070,-3.8472,-0.9570,-0.0785,1429.93,-611.33,1093.57
5080,-3.8473,-0.9199,-0.1031,1508.06,1966.86,-1375.18
5090,-3.8474,-0.8813,-0.1387,-1741.94,-1189.33,-422.12
5100,-3.8474,-0.8468,-0.1755,-804.44,-1736.15,546.57
5110,-3.8475,-0.8184,-0.2083,-382.57,1545.17,-1953.49
5120,-3.8475,-0.7919,-0.2313,-741.94,1357.73,233.95
5130,-3.8477,-0.7716,-0.2380,-1351.32,-1595.34,-781.74
5140,-3.8477,-0.7716,-0.2272,1242.43,1545.35,-969.24
5150,-3.8477,-0.8011,-0.2019,1242.43,-1064.03,-297.36
5160,-3.8475,-0.8566,-0.1676,1461.18,-1829.71,1077.70
5170,-3.8475,-0.9135,-0.1342,-1632.57,-1439.21,-1453.49
5180,-3.8475,-0.9401,-0.1072,-913.82,-1158.08,-94.06
5190,-3.8474,-0.9302,-0.0808,-320.07,-1705.02,1281.01
5200,-3.8474,-0.9116,-0.0490,945.56,1670.04,-1484.56
5210,-3.8474,-0.9142,-0.0116,-679.44,1748.17,-562.62
5220,-3.8473,-0.9467,0.0256,-1007.57,-1470.58,46.81
5230,-3.8473,-0.9895,0.0450,-1163.82,-705.02,46.88
5240,-3.8474,-1.0024,0.0333,1351.81,1779.30,-265.56
5250,-3.8474,-0.9728,0.0103,-304.44,279.24,-187.44
5260,-3.8473,-0.9343,0.0100,-507.57,1326.17,515.62
5270,-3.8473,-0.9185,0.0468,414.31,1295.04,1890.62
5280,-3.8472,-0.9269,0.1091,-1554.44,1998.17,125.06
5290,-3.8472,-0.9481,0.1753,1367.43,1982.54,-1202.94
5300,-3.8470,-0.9706,0.2249,-1351.32,-1548.77,984.68
5310,-3.8470,-0.9866,0.2416,-226.32,794.92,1969.18
5320,-3.8470,-1.0139,0.2197,1726.81,-1064.45,-1905.82
5330,-3.8470,-1.0819,0.1757,-1773.19,138.61,-1108.95
5340,-3.8469,-1.1945,0.1294,1523.68,-1502.14,-1405.94
5350,-3.8466,-1.3488,0.1035,-882.57,575.74,187.74
5360,-3.8461,-1.5334,0.1285,-632.57,1262.94,1922.06
5370,-3.8453,-1.6904,0.2222,-273.19,465.70,-77.88
5380,-3.8444,-1.7531,0.3816,-366.94,449.77,-468.32
5390,-3.8745,-1.7311,0.5664,-382.57,855.90,360.11
5400,-3.8737,-1.6666,0.7180,-1570.07,512.21,-639.53
5410,-3.8728,-1.5681,0.7887,-1320.07,-81.42,-1592.41
5420,-3.8722,-1.4525,0.7510,-710.69,965.64,-217.22
5430,-3.8716,-1.3341,0.6379,-1913.82,137.76,407.71
5440,-3.8712,-1.2122,0.5260,1242.43,1669.25,1235.60
5450,-3.8710,-1.1254,0.4575,851.81,-658.63,1719.73
5460,-3.8708,-1.1066,0.4330,-38.82,-1424.13,-999.15
5470,-3.8707,-1.1223,0.4426,-1632.57,-564.70,-905.46
5480,-3.8706,-1.1262,0.4536,351.81,669.68,1407.10
5490,-3.8706,-1.1079,0.4333,-148.19,-1924.13,1063.35
5500,-3.8707,-1.0856,0.3940,-1804.44,-517.82,-608.58
5510,-3.8707,-1.0726,0.3821,1054.93,-1549.01,-1905.52
5520,-3.8707,-1.0616,0.4155,-1288.82,919.74,1797.61
5530,-3.8707,-1.0251,0.4617,117.43,1201.05,1750.79
5540,-3.8707,-0.9420,0.4934,789.31,-892.64,766.48
5550,-3.8708,-0.8334,0.5150,-570.07,-830.02,-1842.83
5560,-3.8710,-0.7371,0.5305,1336.18,1935.85,1422.85
5570,-3.8712,-0.6768,0.5339,1664.31,-79.59,-1030.27
5580,-3.8715,-0.6671,0.5144,1383.06,358.03,-295.84
5590,-3.8717,-0.7092,0.4640,-1382.57,1858.03,-202.15
5600,-3.8719,-0.7972,0.4065,1226.81,-595.15,-108.52
5610,-3.8721,-0.9153,0.3772,1961.18,45.29,860.17
5620,-3.8723,-1.0352,0.3767,-1148.19,295.04,-1280.52
5630,-3.8724,-1.1234,0.3824,-491.94,232.30,1063.23
5640,-3.8727,-1.1550,0.3903,211.18,966.55,-327.39
5650,-3.8728,-1.1338,0.4163,164.31,1966.49,1969.48
5660,-3.8730,-1.0867,0.4554,-1116.94,1294.62,-1030.46
5670,-3.8733,-1.0375,0.4825,914.31,-1689.64,-1639.77
5680,-3.8735,-0.9933,0.4897,-788.82,1779.17,625.92
5690,-3.8739,-0.9573,0.4919,867.43,-1298.83,1844.67
5700,-3.8743,-0.9548,0.5045,1476.81,-1017.52,1235.29
5710,-3.8748,-1.0193,0.5183,1789.31,591.86,1438.48
5720,-3.8441,-1.1339,0.5018,1539.31,-1642.64,-1499.02
5730,-3.8447,-1.2498,0.4407,-1132.57,247.74,-1530.27
5740,-3.8453,-1.3424,0.3549,39.31,419.43,-749.15
5750,-3.8458,-1.4109,0.2689,179.93,1434.88,1828.80
5760,-3.8463,-1.4697,0.1987,-585.69,-1565.31,-937.01
5770,-3.8467,-1.5322,0.1436,-116.94,1450.20,-984.01
5780,-3.8469,-1.5719,0.1029,-116.94,-1612.43,1640.87
5790,-3.8472,-1.5659,0.0925,-1195.07,1184.39,-1187.32
5800,-3.8473,-1.5364,0.1088,-429.44,-143.74,1734.50
5810,-3.8474,-1.4954,0.1262,-648.19,1934.45,-1827.94
5820,-3.8475,-1.4292,0.1249,601.81,168.95,-77.88
5830,-3.8475,-1.3323,0.0997,1070.56,-2.81,-1390.44
5840,-3.8475,-1.2162,0.0519,1476.81,778.63,1828.31
5850,-3.8475,-1.0984,-0.0112,336.18,-1346.13,1437.56
5860,-3.8475,-0.9958,-0.0804,-585.69,-1424.07,1187.44
5870,-3.8475,-0.9172,-0.1438,539.31,1716.80,1249.82
5880,-3.8475,-0.8711,-0.1836,-1398.19,1607.54,-1703.43
5890,-3.8474,-0.8616,-0.1915,508.06,513.92,390.26
5900,-3.8474,-0.8669,-0.1743,1726.81,-501.71,-859.80
5910,-3.8473,-0.8630,-0.1464,1039.31,1701.42,-1890.99
5920,-3.8472,-0.8524,-0.1206,1539.31,1279.54,765.32
5930,-3.8472,-0.8511,-0.1066,-1101.32,576.42,-1234.62
5940,-3.8470,-0.8657,-0.1063,-929.44,-1626.71,156.01
5950,-3.8470,-0.8871,-0.1195,1195.56,-1595.46,937.26
5960,-3.8470,-0.8928,-0.1444,-1538.82,716.98,1281.01
5970,-3.8470,-0.8693,-0.1700,1726.81,1529.48,1499.69
5980,-3.8470,-0.8293,-0.1779,742.43,-1751.71,1687.13
5990,-3.8470,-0.8040,-0.1526,1851.81,1248.35,1843.38
6000,-3.8470,-0.8231,-0.1010,1101.81,482.79,-1953.43
6010,-3.8470,-0.8903,-0.0476,-1351.32,-907.90,-1797.12
6020,-3.8470,-0.9766,-0.0132,-1945.07,1920.10,-1734.50
6030,-3.8470,-1.0430,-0.0042,-991.94,-1673.83,-1984.44
6040,-3.8470,-1.0668,-0.0082,-1491.94,-517.70,1484.31
6050,-3.8470,-1.0530,-0.0087,-538.82,-1033.39,890.56
6060,-3.8470,-1.0219,0.0010,1226.81,-1095.83,546.81
6070,-3.8470,-0.9911,0.0256,1211.18,138.61,968.75
6080,-3.8470,-0.9664,0.0653,1148.68,-705.08,-1421.88
6090,-3.8469,-0.9541,0.1023,304.93,373.11,1062.62
6100,-3.8468,-0.9624,0.1202,1883.06,1107.48,172.06
6110,-3.8467,-0.9955,0.1290,820.56,-595.64,281.43
6120,-3.8466,-1.0531,0.1482,586.18,529.30,-1843.51
6130,-3.8463,-1.1193,0.1841,1211.18,-1017.70,-1656.01
6140,-3.8459,-1.1860,0.2266,742.43,-424.07,500.31
6150,-3.8456,-1.2555,0.2732,195.56,1013.31,516.05
6160,-3.8452,-1.3147,0.3389,-695.07,-1018.13,-1780.76
6170,-3.8447,-1.3672,0.4030,-273.19,-612.00,250.61
6180,-3.8444,-1.4299,0.4252,1008.06,-408.94,-827.39
6190,-3.8750,-1.4852,0.4254,976.81,-1565.31,1157.04
6200,-3.8744,-1.5049,0.4519,1898.68,-1534.18,1203.92
6210,-3.8738,-1.4899,0.5115,-616.94,1856.38,266.48
6220,-3.8733,-1.4497,0.5886,1304.93,1481.45,1204.10
6230,-3.8728,-1.3800,0.6646,-1554.44,-643.49,110.47
6240,-3.8724,-1.2957,0.6975,-632.57,1075.38,720.03
6250,-3.8721,-1.2333,0.6655,-1835.69,1294.31,407.59
6260,-3.8717,-1.2054,0.5977,-1851.32,1200.68,766.91
6270,-3.8713,-1.1989,0.5443,1711.18,513.24,1485.53
6280,-3.8710,-1.1938,0.5387,-1445.07,1685.12,1001.04
6290,-3.8707,-1.1727,0.5645,-804.44,966.37,1672.91
6300,-3.8706,-1.1248,0.5924,1898.68,263.31,-123.90
6310,-3.8704,-1.0547,0.6232,39.31,-158.45,1079.22
6320,-3.8702,-0.9794,0.6614,1008.06,-220.83,1157.41
6330,-3.8702,-0.9025,0.6848,-1351.32,669.92,-1326.84
6340,-3.8702,-0.8086,0.6582,492.43,-329.90,298.16
6350,-3.8705,-0.6987,0.5758,508.06,264.04,1860.66
6360,-3.8707,-0.6061,0.4730,-1429.44,1717.35,594.85
6370,-3.8711,-0.5784,0.3925,-1570.07,561.28,-1655.33
6380,-3.8713,-0.6395,0.3575,1976.81,-1751.16,1000.73
6390,-3.8716,-0.7551,0.3698,-1851.32,1779.97,1453.80
6400,-3.8718,-0.8794,0.4142,-648.19,-657.78,-843.08
6410,-3.8719,-1.0039,0.4664,-554.44,1029.48,1250.79
6420,-3.8722,-1.1239,0.4984,-491.94,-283.26,-1124.15
6430,-3.8724,-1.2147,0.4872,148.68,-189.70,-795.96
6440,-3.8727,-1.2480,0.4441,523.68,-1627.38,-1858.46
6450,-3.8729,-1.2251,0.4082,258.06,856.93,78.98
6460,-3.8733,-1.1759,0.3966,-804.44,263.18,1110.17
6470,-3.8737,-1.1292,0.4043,1492.43,-1221.07,1641.36
6480,-3.8740,-1.1096,0.4225,-523.19,-236.63,1860.11
6490,-3.8744,-1.1259,0.4337,1976.81,-1908.45,1282.04
6500,-3.8748,-1.1732,0.4291,-101.32,-471.01,266.42
6510,-3.8440,-1.2578,0.4238,1836.18,-1064.82,-842.96
6520,-3.8444,-1.3665,0.4186,-991.94,-1736.88,782.04
6530,-3.8448,-1.4529,0.3937,1101.81,1591.06,1016.42
6540,-3.8453,-1.4783,0.3385,-1960.69,-1596.62,1438.23
6550,-3.8458,-1.4359,0.2670,-1210.69,-659.18,-608.76
6560,-3.8462,-1.3578,0.2115,211.18,-1815.31,-515.14
6570,-3.8464,-1.2878,0.1869,-1788.82,-908.94,1375.37
6580,-3.8467,-1.2540,0.1865,-835.69,-65.06,734.68
6590,-3.8469,-1.2571,0.1936,-507.57,-111.88,1234.68
6600,-3.8472,-1.2749,0.1899,-898.19,794.37,-1499.63
6610,-3.8473,-1.2827,0.1643,820.56,325.62,0.37
6620,-3.8475,-1.2639,0.1077,-179.44,1044.31,1469.06
6630,-3.8478,-1.2168,0.0271,-1773.19,1794.37,-234.19
6640,-3.8479,-1.1555,-0.0551,258.06,-518.01,-546.88
6650,-3.8479,-1.0913,-0.1185,101.81,966.49,718.63
6660,-3.8480,-1.0262,-0.1547,320.56,841.61,-562.74
6670,-3.8480,-0.9633,-0.1659,648.68,216.74,-453.43
6680,-3.8479,-0.9069,-0.1564,711.18,-1220.64,1077.76
6690,-3.8479,-0.8608,-0.1331,-70.07,-1.83,-469.12
6700,-3.8478,-0.8242,-0.1102,1820.56,-1017.33,-1781.56
6710,-3.8477,-0.7931,-0.0992,-1491.94,1904.60,484.13
6720,-3.8477,-0.7723,-0.0962,-1507.57,-689.09,-1640.87
6730,-3.8475,-0.7710,-0.0933,1148.68,-298.40,77.88
6740,-3.8475,-0.7823,-0.0918,1320.56,76.60,1343.57
6750,-3.8475,-0.7875,-0.0967,-132.57,264.04,-1953.31
6760,-3.8475,-0.7808,-0.1024,-788.82,-360.96,-1500.24
6770,-3.8475,-0.7821,-0.0938,70.56,-1095.28,-1172.12
6780,-3.8475,-0.8015,-0.0659,-101.32,14.04,-187.68
6790,-3.8474,-0.8191,-0.0378,1414.31,-423.46,1718.57
6800,-3.8474,-0.8182,-0.0280,-835.69,-829.77,-531.37
6810,-3.8473,-0.8033,-0.0270,-726.32,435.85,703.06
6820,-3.8473,-0.7883,-0.0168,1179.93,560.91,1593.69
6830,-3.8473,-0.7808,-0.0011,-898.19,1857.79,-1734.44
6840,-3.8473,-0.7826,0.0067,70.56,-126.53,-1109.44
6850,-3.8473,-0.7971,0.0042,-163.82,873.41,-750.00
6860,-3.8473,-0.8267,0.0006,1976.81,545.29,-656.25
6870,-3.8473,-0.8625,0.0105,-1804.44,92.10,-328.12
6880,-3.8472,-0.8965,0.0314,1601.81,1357.67,734.38
6890,-3.8472,-0.9321,0.0605,1258.06,29.48,-499.94
6900,-3.8469,-0.9844,0.1094,695.56,-236.21,1140.69
6910,-3.8467,-1.0590,0.1731,-1991.94,-1986.33,-1843.57
6920,-3.8463,-1.1392,0.2290,461.18,-1830.20,-1093.44
6930,-3.8458,-1.2056,0.2719,-1804.44,1325.87,-1437.07
6940,-3.8453,-1.2637,0.3114,1695.56,-1189.88,-780.76
6950,-3.8447,-1.3292,0.3584,-1741.94,-127.50,500.55
6960,-3.8442,-1.4041,0.4075,1867.43,1888.00,-889.95
6970,-3.8748,-1.4924,0.4458,289.31,169.13,141.42
6980,-3.8740,-1.5900,0.4960,976.81,1075.20,750.85
6990,-3.8733,-1.6742,0.5801,492.43,-503.11,-795.96
7000,-3.8724,-1.7135,0.6774,1711.18,-1737.67,547.97
7010,-3.8718,-1.6759,0.7426,679.93,-1284.61,-1373.72
7020,-3.8713,-1.5708,0.7343,1492.43,-940.80,-545.47
7030,-3.8710,-1.4493,0.6511,-1054.44,1996.89,-295.47
7040,-3.8706,-1.3417,0.5525,-1507.57,-643.49,-1686.28
7050,-3.8704,-1.2432,0.5007,273.68,-1268.25,-686.46
7060,-3.8701,-1.1499,0.5005,883.06,106.93,1000.98
7070,-3.8701,-1.0657,0.5193,820.56,75.87,-749.02
7080,-3.8701,-0.9958,0.5331,-398.19,-1517.76,-795.90
7090,-3.8701,-0.9454,0.5355,539.31,248.05,1641.66
7100,-3.8702,-0.9083,0.5322,-1007.57,560.61,-1655.21
7110,-3.8704,-0.8678,0.5284,-257.57,138.79,1266.66
7120,-3.8706,-0.8110,0.5166,929.93,-345.46,-1577.15
7130,-3.8708,-0.7467,0.4891,195.56,-1860.96,-1749.02
7140,-3.8711,-0.7183,0.4558,429.93,-1376.46,1750.92
7150,-3.8713,-0.7582,0.4330,70.56,-1642.03,1578.98
7160,-3.8716,-0.8467,0.4238,-1038.82,-564.03,1735.17
7170,-3.8718,-0.9506,0.4178,-366.94,-1736.08,1891.42
7180,-3.8721,-1.0508,0.4083,-1663.82,1498.11,-1983.58
7190,-3.8723,-1.1285,0.3978,1508.06,279.17,-1686.71
7200,-3.8726,-1.1685,0.3918,-445.07,-1064.76,-1139.89
7210,-3.8728,-1.1720,0.4017,-1554.44,-1830.44,-405.52
7220,-3.8730,-1.1481,0.4280,1992.43,-564.82,-327.39
7230,-3.8733,-1.0839,0.4475,1054.93,-1205.38,-1717.96
7240,-3.8735,-0.9727,0.4562,1273.68,1294.74,266.48
7250,-3.8739,-0.8643,0.4744,-491.94,-1595.70,-905.40
7260,-3.8741,-0.8053,0.5048,1383.06,732.67,-1467.83
7270,-3.8744,-0.8151,0.5328,929.93,623.41,1032.23
7280,-3.8748,-0.9231,0.5499,-320.07,217.10,954.16
7290,-3.8440,-1.1177,0.5425,1851.81,-1595.58,1188.54
7300,-3.8446,-1.3131,0.4952,945.56,1450.93,-1498.96
7310,-3.8452,-1.4426,0.4164,-70.07,-596.37,-733.46
7320,-3.8457,-1.5066,0.3269,-648.19,1309.63,1641.42
7330,-3.8462,-1.5155,0.2572,-835.69,1856.38,-374.39
7340,-3.8464,-1.5018,0.2324,-1976.32,934.51,1234.86
7350,-3.8467,-1.5143,0.2389,-226.32,1762.63,344.18
7360,-3.8469,-1.5404,0.2423,-1820.07,-1409.24,62.93
7370,-3.8472,-1.5309,0.2256,-1163.82,-971.80,891.05
7380,-3.8474,-1.4829,0.1947,54.93,887.63,-718.32
7390,-3.8475,-1.4342,0.1552,-1804.44,934.57,-1030.88
7400,-3.8477,-1.3981,0.1028,429.93,-127.81,-15.38
7410,-3.8477,-1.3546,0.0441,1054.93,1169.13,-1140.44
7420,-3.8477,-1.2914,0.0017,-1382.57,1653.56,-546.81
7430,-3.8475,-1.2123,-0.0162,-1288.82,231.81,984.38
7440,-3.8475,-1.1239,-0.0219,836.18,1935.12,-765.69
7450,-3.8474,-1.0297,-0.0228,148.68,1216.55,-1640.69
7460,-3.8473,-0.9471,-0.0215,211.18,1091.74,1765.56
7470,-3.8472,-0.8920,-0.0227,-1226.32,1263.73,796.81
7480,-3.8472,-0.8480,-0.0284,1836.18,1107.60,-93.81
7490,-3.8470,-0.7917,-0.0421,-538.82,373.29,-687.56
7500,-3.8469,-0.7272,-0.0616,-1335.69,-1376.59,-1531.37
7510,-3.8468,-0.6803,-0.0681,-1070.07,123.54,968.63
7520,-3.8468,-0.6768,-0.0502,929.93,-704.47,-1375.18
7530,-3.8468,-0.7339,-0.0129,1383.06,1592.41,-422.00
7540,-3.8468,-0.8484,0.0205,-1929.44,-1642.09,-437.56
7550,-3.8468,-0.9757,0.0229,-585.69,-1361.08,-1625.00
7560,-3.8468,-1.0560,-0.0040,-882.57,-1048.83,437.50
7570,-3.8469,-1.0787,-0.0300,836.18,-502.08,-1843.81
7580,-3.8470,-1.0792,-0.0367,1929.93,169.74,-515.69
7590,-3.8470,-1.0762,-0.0240,1867.43,-689.64,1296.75
7600,-3.8470,-1.0696,0.0072,-1741.94,935.36,546.81
7610,-3.8470,-1.0629,0.0406,-898.19,935.36,781.25
7620,-3.8470,-1.0554,0.0570,-38.82,1216.61,1875.06
7630,-3.8470,-1.0602,0.0598,914.31,-689.58,-328.06
7640,-3.8469,-1.0908,0.0653,304.93,-330.20,-1968.69
7650,-3.8468,-1.1365,0.0679,383.06,372.86,1593.87
7660,-3.8467,-1.1754,0.0566,-1460.69,700.87,-468.63
7670,-3.8464,-1.1920,0.0533,1554.93,-736.69,-406.19
7680,-3.8461,-1.1901,0.0861,-570.07,-1158.63,609.44
7690,-3.8458,-1.1865,0.1562,-320.07,-971.13,-1343.63
7700,-3.8455,-1.1809,0.2360,133.06,13.31,1484.68
7710,-3.8451,-1.1630,0.2892,851.81,-1783.57,312.93
7720,-3.8448,-1.1432,0.3123,-851.32,1028.93,-1077.58
7730,-3.8445,-1.1508,0.3223,1679.93,-17.88,1422.42
7740,-3.8441,-1.2122,0.3230,711.18,1263.37,1750.61
7750,-3.8749,-1.3077,0.3328,851.81,1356.99,-999.39
7760,-3.8741,-1.3905,0.3776,617.43,-1393.19,609.99
7770,-3.8735,-1.4236,0.4468,-1976.32,341.00,-1046.14
7780,-3.8729,-1.3820,0.5046,1789.31,1200.32,-1202.27
7790,-3.8724,-1.2825,0.5232,-882.57,606.63,-1983.40
7800,-3.8721,-1.1898,0.4945,-148.19,-1018.19,875.98
7810,-3.8718,-1.1428,0.4413,-288.82,-689.88,1813.42
7820,-3.8716,-1.1227,0.4078,1726.81,497.74,-1280.40
7830,-3.8713,-1.1045,0.4128,304.93,216.55,-1077.33
7840,-3.8711,-1.0741,0.4446,-1366.94,857.18,1500.79
7850,-3.8710,-1.0227,0.4814,-1476.32,919.74,-1764.77
7860,-3.8708,-0.9636,0.4985,1101.81,1638.61,719.67
7870,-3.8708,-0.9225,0.4873,664.31,-173.77,1125.92
7880,-3.8708,-0.8893,0.4551,1929.93,-1611.21,172.79
7890,-3.8710,-0.8293,0.4205,-1820.07,-1736.15,-1764.77
7900,-3.8711,-0.7430,0.4004,1851.81,1842.10,-1217.96
7910,-3.8712,-0.6656,0.3920,898.68,-735.84,1860.11
7920,-3.8713,-0.6184,0.3900,-1195.07,-1813.84,656.98
7930,-3.8716,-0.6099,0.3872,851.81,1936.28,-374.27
7940,-3.8717,-0.6516,0.3783,1945.56,1576.90,-1624.27
7950,-3.8718,-0.7323,0.3680,601.81,436.22,860.11
7960,-3.8721,-0.8339,0.3679,-1726.32,-876.46,-608.70
7970,-3.8722,-0.9597,0.3973,1273.68,-892.27,-1389.95
7980,-3.8723,-1.0994,0.4392,1164.31,-1126.89,-1874.27
7990,-3.8724,-1.2233,0.4423,-710.69,232.18,1032.10
8000,-3.8727,-1.3132,0.3915,-570.07,622.56,-452.27
8010,-3.8728,-1.3544,0.3225,-85.69,-1877.62,-1608.64
8020,-3.8729,-1.3362,0.2736,-1351.32,1294.19,1266.24
8030,-3.8732,-1.2582,0.2551,976.81,-971.37,-390.14
8040,-3.8733,-1.1178,0.2714,-1038.82,669.37,1937.99
8050,-3.8734,-0.9382,0.3257,929.93,-1252.20,984.86
8060,-3.8735,-0.7928,0.4071,-85.69,1701.23,594.36
8070,-3.8737,-0.7631,0.4985,-1476.32,123.41,485.17
8080,-3.8739,-0.8545,0.5752,-1663.82,-173.40,-530.33
8090,-3.8741,-1.0284,0.5966,-1366.94,1638.92,-1045.78
8100,-3.8745,-1.2660,0.5441,367.43,372.99,1344.91
8110,-3.8439,-1.5122,0.4333,1961.18,1653.75,-295.84
8120,-3.8444,-1.6707,0.2987,-1554.44,-518.62,828.92
8130,-3.8450,-1.6968,0.1959,-1835.69,-1753.30,-93.20
8140,-3.8453,-1.6117,0.1729,-1179.44,1090.39,-1109.01
8150,-3.8456,-1.4532,0.2329,1711.18,-1862.55,-1999.69
8160,-3.8458,-1.2743,0.3359,1992.43,1825.26,-515.20
8170,-3.8459,-1.1353,0.4082,898.68,-986.88,1125.61
8180,-3.8462,-1.0647,0.4127,-1304.44,263.37,-1077.33
8190,-3.8463,-1.0652,0.3816,-273.19,841.61,1453.92
8200,-3.8466,-1.1382,0.3453,-335.69,857.24,-280.52
8210,-3.8467,-1.2595,0.3121,-1679.44,216.49,1344.42
8220,-3.8469,-1.3817,0.2861,-1210.69,-33.75,-593.20
8230,-3.8470,-1.4698,0.2625,-851.32,637.88,-1358.83
8240,-3.8472,-1.5043,0.2345,-132.57,1606.45,-858.89
8250,-3.8472,-1.4789,0.1985,-538.82,-1971.74,500.43
8260,-3.8473,-1.3972,0.1537,-1288.82,1418.95,-1296.51
8270,-3.8473,-1.2715,0.1082,1164.31,-315.25,-1968.51
8280,-3.8473,-1.1318,0.0746,1258.06,1856.87,-1421.69
8290,-3.8472,-1.0096,0.0623,-866.94,1560.24,609.50
8300,-3.8472,-0.9258,0.0734,-1226.32,-17.64,-234.31
8310,-3.8470,-0.8915,0.0986,1508.06,1404.42,-578.00
8320,-3.8469,-0.8969,0.1200,1898.68,638.85,-859.19
8330,-3.8468,-0.9177,0.1234,1211.18,-626.77,-1499.82
8340,-3.8467,-0.9430,0.1115,-1460.69,-189.33,1015.81
8350,-3.8467,-0.9758,0.0975,-695.07,-1720.64,-1781.07
8360,-3.8467,-1.0092,0.0950,-898.19,498.05,-1734.19
8370,-3.8467,-1.0288,0.1115,-1163.82,169.86,1968.93
8380,-3.8467,-1.0424,0.1340,320.56,-1720.76,-1952.94
8390,-3.8467,-1.0741,0.1426,-1413.82,1169.80,-1046.63
8400,-3.8466,-1.1288,0.1383,-1476.32,-1736.51,390.87
8410,-3.8466,-1.1801,0.1461,-476.32,1716.49,1984.62
8420,-3.8464,-1.2031,0.1769,961.18,-1283.57,109.62
8430,-3.8464,-1.2115,0.2062,-1991.94,-1346.13,-1296.57
8440,-3.8463,-1.2178,0.2169,929.93,-1596.13,1250.37
8450,-3.8463,-1.2098,0.2168,133.06,-221.13,-421.51
8460,-3.8462,-1.2030,0.2084,1148.68,-236.76,-1405.88
8470,-3.8459,-1.2198,0.1954,-1976.32,-1314.88,375.37
8480,-3.8457,-1.2389,0.1951,-132.57,1028.81,1937.87
8490,-3.8453,-1.2424,0.2106,1429.93,981.93,-1859.01
8500,-3.8450,-1.2385,0.2396,976.81,-1033.69,-484.01
8510,-3.8445,-1.2222,0.2919,1476.81,-1314.94,1359.80
8520,-3.8441,-1.1819,0.3505,-429.44,1372.56,-1124.45
8530,-3.8750,-1.1096,0.3927,726.81,872.68,-264.95
8540,-3.8745,-1.0245,0.4108,1976.81,-1720.95,219.48
8550,-3.8741,-0.9760,0.3956,867.43,591.74,1719.54
8560,-3.8737,-0.9740,0.3593,-913.82,-1345.70,-1358.64
8570,-3.8730,-0.9868,0.3080,-663.82,1998.05,1563.17
8580,-3.8726,-0.9723,0.2562,1695.56,-564.45,-1077.58
8590,-3.8721,-0.9132,0.2388,-445.07,810.55,703.61
8600,-3.8718,-0.8422,0.2489,-882.57,-1423.71,-1921.45
8610,-3.8716,-0.7902,0.2617,211.18,-126.65,875.43
8620,-3.8715,-0.7655,0.2827,-1132.57,1514.04,-624.51
8630,-3.8712,-0.7703,0.3057,-1976.32,201.60,-1936.95
8640,-3.8710,-0.7911,0.3158,1414.31,-860.90,969.30
8650,-3.8708,-0.8013,0.3202,-1257.57,435.91,-530.64
8660,-3.8707,-0.7881,0.3190,1445.56,998.41,-218.14
8670,-3.8706,-0.7433,0.3090,-866.94,842.16,1234.99
8680,-3.8706,-0.6584,0.3047,867.43,-438.96,969.30
8690,-3.8707,-0.5624,0.3196,-273.19,-985.72,-108.83
8700,-3.8707,-0.4884,0.3529,23.68,920.78,-1343.14
8710,-3.8707,-0.4293,0.3856,1492.43,1186.52,1813.17
8720,-3.8707,-0.3728,0.3926,1054.93,1374.15,1188.23
8730,-3.8707,-0.3309,0.3615,289.31,-1735.11,110.11
8740,-3.8708,-0.3134,0.3077,1648.68,-1719.42,-1858.70
8750,-3.8710,-0.3269,0.2633,-101.32,-594.42,-702.58
8760,-3.8710,-0.3934,0.2390,-1835.69,1718.08,62.99
8770,-3.8711,-0.5072,0.2263,1648.68,-1391.42,1422.30
8780,-3.8711,-0.6317,0.2220,-913.82,983.34,0.43
8790,-3.8712,-0.7467,0.2234,-851.32,436.22,-358.95
8800,-3.8712,-0.8361,0.2134,429.93,607.91,-452.70
8810,-3.8712,-0.8735,0.1906,992.43,-673.52,-562.13
8820,-3.8712,-0.8606,0.1819,195.56,404.54,-702.76
8830,-3.8712,-0.8236,0.1909,1851.81,-704.83,1844.06
8840,-3.8713,-0.7637,0.1914,-1413.82,451.48,-1702.76
8850,-3.8715,-0.6740,0.1813,-1741.94,514.10,1500.37
8860,-3.8716,-0.5801,0.1796,1742.43,-782.59,594.06
8870,-3.8717,-0.5073,0.1854,1758.06,-1001.16,281.56
8880,-3.8718,-0.4473,0.1997,-929.44,-251.04,1594.06
8890,-3.8718,-0.4014,0.2440,-1241.94,1577.21,1500.37
8900,-3.8718,-0.3990,0.3324,633.06,-750.79,-999.57
8910,-3.8718,-0.4620,0.4543,929.93,-1438.29,-124.39
8920,-3.8718,-0.5935,0.5652,867.43,-1829.04,1938.35
8930,-3.8721,-0.7651,0.6116,39.31,358.22,-217.65
8940,-3.8723,-0.9382,0.5782,-1929.44,-1704.65,1032.41
8950,-3.8728,-1.1023,0.5066,-85.69,-1970.64,-655.15
8960,-3.8732,-1.2632,0.4537,-1085.69,857.18,1485.35
8970,-3.8735,-1.4423,0.4449,-1679.44,-1908.75,1078.98
8980,-3.8739,-1.6439,0.4657,-601.32,965.88,-1686.65
8990,-3.8741,-1.8051,0.4707,1586.18,-378.23,219.60
9000,-3.8745,-1.8593,0.4275,961.18,262.08,1735.29
9010,-3.8749,-1.8219,0.3497,-1976.32,-1269.29,-1358.58
9020,-3.8439,-1.7467,0.2750,-1195.07,777.65,16.30
9030,-3.8442,-1.6597,0.2285,429.93,-784.67,-577.64
9040,-3.8444,-1.5721,0.2174,-429.44,1262.33,1625.43
9050,-3.8445,-1.5074,0.2290,-1226.32,-159.36,-1952.76
9060,-3.8446,-1.4756,0.2290,-945.07,1325.13,-765.20
9070,-3.8446,-1.4640,0.1978,-866.94,1325.20,359.80
9080,-3.8447,-1.4535,0.1530,617.43,1325.26,1625.37
9090,-3.8448,-1.4304,0.1140,1961.18,-409.12,-984.13
9100,-3.8448,-1.3965,0.0830,914.31,-1393.43,406.43
9110,-3.8450,-1.3671,0.0570,1258.06,-1362.12,-1749.88
9120,-3.8450,-1.3296,0.0305,1023.68,-690.19,796.94
9130,-3.8450,-1.2539,0.0066,1820.56,-80.75,15.62
9140,-3.8451,-1.1650,0.0043,-491.94,856.87,-156.25
9150,-3.8450,-1.1093,0.0316,-1116.94,560.18,687.50
9160,-3.8450,-1.0834,0.0647,-1976.32,60.30,-1546.81
9170,-3.8448,-1.0745,0.0820,1336.18,294.74,359.50
9180,-3.8448,-1.0867,0.0798,-1523.19,-1486.51,1765.75
9190,-3.8448,-1.1077,0.0543,914.31,-1767.76,1984.50
9200,-3.8448,-1.1228,0.0138,-1773.19,-1033.45,1125.06
9210,-3.8448,-1.1361,-0.0146,289.31,1779.05,0.00
9220,-3.8450,-1.1593,-0.0099,-1413.82,-1861.63,-562.56
9230,-3.8448,-1.1923,0.0229,-382.57,-1252.32,15.56
9240,-3.8448,-1.2155,0.0590,-601.32,-1049.26,1765.62
9250,-3.8447,-1.2130,0.0853,429.93,-439.88,375.06
9260,-3.8447,-1.1984,0.1125,742.43,-1064.88,-390.50
9270,-3.8446,-1.1936,0.1523,-1382.57,-1580.51,-406.07
9280,-3.8445,-1.2080,0.1890,-773.19,-486.76,-296.63
9290,-3.8444,-1.2350,0.1868,1383.06,200.74,-812.13
9300,-3.8442,-1.2510,0.1340,1929.93,-80.57,-1999.69
9310,-3.8441,-1.2418,0.0615,-116.94,1169.37,968.99
9320,-3.8440,-1.2264,0.0289,1054.93,-111.82,-1765.56
9330,-3.8750,-1.2161,0.0660,-976.32,-283.69,-875.00
9340,-3.8746,-1.1992,0.1461,351.81,466.37,-921.75
9350,-3.8741,-1.1725,0.2322,-1491.94,-1283.63,703.37
9360,-3.8738,-1.1431,0.2975,1929.93,1732.06,-1796.45
9370,-3.8734,-1.1202,0.3282,1695.56,-1908.51,-1124.45
9380,-3.8730,-1.0975,0.3297,617.43,-1970.95,-843.14
9390,-3.8727,-1.0608,0.3097,-476.32,-1783.45,-983.76
9400,-3.8723,-1.0106,0.2817,226.81,-345.83,-1358.83
9410,-3.8719,-0.9565,0.2727,-1351.32,76.11,-1468.20
9420,-3.8716,-0.9020,0.2987,1570.56,-1080.02,-1780.76
9430,-3.8712,-0.8362,0.3480,554.93,-1751.77,484.92
9440,-3.8710,-0.7498,0.4043,976.81,560.85,610.05
9450,-3.8708,-0.6519,0.4628,39.31,-235.84,-1186.77
9460,-3.8707,-0.5504,0.5051,570.56,-751.28,-202.27
9470,-3.8705,-0.4395,0.5157,1554.93,670.78,313.48
9480,-3.8704,-0.3101,0.5054,-241.94,-1969.67,344.73
9490,-3.8704,-0.1638,0.4846,320.56,702.51,-1311.52
9500,-3.8704,-0.0101,0.4546,-960.69,-1953.49,-1530.33
9510,-3.8704,0.1318,0.4164,-1288.82,-1796.94,219.60
9520,-3.8705,0.2345,0.3774,883.06,1297.12,1188.29
9530,-3.8706,0.2906,0.3466,-1976.32,312.93,-1061.77
9540,-3.8706,0.3184,0.3342,1211.18,359.92,-1093.08
9550,-3.8705,0.3464,0.3439,758.06,-1218.14,563.11
9560,-3.8705,0.3807,0.3685,351.81,16.30,-1468.08
9570,-3.8704,0.3806,0.4067,742.43,-827.39,422.55
9580,-3.8704,0.3086,0.4507,726.81,63.23,-1733.58
9590,-3.8702,0.1838,0.4801,-491.94,1688.05,157.10
9600,-3.8702,0.0503,0.4874,-460.69,1453.43,1891.54
9610,-3.8702,-0.0768,0.4758,-1554.44,-1609.31,-1202.21
9620,-3.8702,-0.2043,0.4539,-1820.07,921.69,-1295.96
9630,-3.8702,-0.3279,0.4325,1851.81,-1891.05,-1842.90
9640,-3.8702,-0.4219,0.4116,-1960.69,-625.67,922.67
9650,-3.8704,-0.4619,0.3865,-1991.94,702.27,-1530.46
9660,-3.8705,-0.4548,0.3678,883.06,1483.46,-999.27
9670,-3.8706,-0.4308,0.3741,1789.31,-907.17,-936.83
9680,-3.8707,-0.4043,0.4020,867.43,-94.60,-1358.70
9690,-3.8708,-0.3793,0.4315,258.06,-532.04,1672.61
9700,-3.8710,-0.3745,0.4598,-538.82,-750.79,1375.79
9710,-3.8711,-0.4147,0.4998,70.56,-1125.73,-936.65
9720,-3.8711,-0.5144,0.5636,-1070.07,-16.48,-1717.83
9730,-3.8711,-0.6774,0.6385,-1835.69,155.21,126.10
9740,-3.8713,-0.8936,0.6904,1304.93,1748.66,1923.10
9750,-3.8717,-1.1276,0.7003,1633.06,388.85,-467.41
9760,-3.8721,-1.3451,0.6702,-320.07,1653.99,1798.22
9770,-3.8726,-1.5393,0.6030,-163.82,1794.19,1735.66
9780,-3.8730,-1.7012,0.5079,-1023.19,1200.07,1610.53
9790,-3.8734,-1.8043,0.4203,-1741.94,1027.89,360.35
9800,-3.8738,-1.8322,0.3625,1054.93,1808.96,-1061.71
9810,-3.8739,-1.7899,0.3275,1492.43,-1581.73,250.67
9820,-3.8741,-1.7030,0.3081,-1101.32,1933.96,-1093.14
9830,-3.8743,-1.6000,0.3069,-1976.32,-550.23,-1546.33
9840,-3.8744,-1.5052,0.3177,-788.82,-706.30,-1702.58
9850,-3.8745,-1.4465,0.3212,-663.82,684.51,1141.24
9860,-3.8748,-1.4376,0.3018,-1148.19,1122.13,-1452.51
9870,-3.8750,-1.4604,0.2498,-7.57,-1362.24,-1030.70
9880,-3.8440,-1.4788,0.1685,1070.56,-18.49,-905.82
9890,-3.8442,-1.4764,0.0845,-1273.19,1575.20,-390.32
9900,-3.8444,-1.4537,0.0234,-976.32,-1174.80,1390.75
9910,-3.8445,-1.4100,-0.0111,1929.93,-987.24,1031.25
9920,-3.8446,-1.3470,-0.0229,-476.32,-1409.06,-1484.44
9930,-3.8446,-1.2715,-0.0131,-413.82,1075.44,1406.19
9940,-3.8446,-1.1962,0.0083,1258.06,-1658.75,999.94
9950,-3.8446,-1.1274,0.0215,-1101.32,1075.74,906.25
9960,-3.8446,-1.0801,0.0204,-304.44,-1236.63,1062.50
9970,-3.8446,-1.0847,0.0221,1758.06,-1377.14,1500.00
9980,-3.8446,-1.1400,0.0419,1164.31,-1158.39,-1656.25
9990,-3.8446,-1.2050,0.0696,-1913.82,1372.74,-593.69
10000,-3.8445,-1.2482,0.0874,1773.68,919.49,125.12
10010,-3.8446,-1.2710,0.0917,242.43,-799.32,-15.50
10020,-3.8446,-1.2792,0.0883,1320.56,-252.50,-890.50
10030,-3.8446,-1.2719,0.0798,273.68,-690.00,-1796.75
10040,-3.8446,-1.2562,0.0668,1211.18,-1768.13,1484.50
10050,-3.8446,-1.2468,0.0594,-788.82,560.00,1031.37
10060,-3.8446,-1.2518,0.0730,414.31,-377.44,1156.31
10070,-3.8446,-1.2721,0.1071,-226.32,1356.87,-1640.50
10080,-3.8445,-1.3107,0.1475,1179.93,1716.25,843.93
10090,-3.8444,-1.3668,0.1840,242.43,-1111.94,672.12
10100,-3.8442,-1.4199,0.2196,1054.93,-440.19,-1968.44
10110,-3.8440,-1.4386,0.2511,-1741.94,122.19,344.18
10120,-3.8439,-1.4088,0.2631,-132.57,153.38,-983.89
10130,-3.8749,-1.3463,0.2485,-320.07,1684.69,-1780.76
10140,-3.8746,-1.2684,0.2281,-320.07,-174.56,-905.82
10150,-3.8743,-1.1869,0.2288,1648.68,1216.25,-1702.70
10160,-3.8739,-1.1187,0.2535,86.18,1294.56,-483.95
10170,-3.8734,-1.0697,0.3142,820.56,466.55,-1155.76
10180,-3.8729,-1.0326,0.4177,-913.82,232.24,-780.64
10190,-3.8724,-0.9907,0.5219,-163.82,1482.30,-1264.83
10200,-3.8719,-0.9368,0.5792,1195.56,-1189.45,1172.85
10210,-3.8716,-0.8671,0.5963,101.81,-1845.58,-1108.28
10220,-3.8712,-0.7745,0.5864,1023.68,342.04,-1420.72
10230,-3.8708,-0.6742,0.5553,867.43,-923.40,126.10
10240,-3.8706,-0.5859,0.5411,1711.18,-907.59,1266.66
10250,-3.8704,-0.4989,0.5656,1008.06,1280.09,-1842.71
10260,-3.8701,-0.3937,0.6072,148.68,405.27,-1998.90
10270,-3.8699,-0.2654,0.6499,1617.43,1733.58,782.41
10280,-3.8698,-0.1151,0.6914,-1960.69,-797.42,-1389.40
10290,-3.8696,0.0443,0.7236,1273.68,515.38,-1123.66
10300,-3.8695,0.1974,0.7321,1679.93,625.06,1032.65
10310,-3.8695,0.3312,0.7148,1273.68,1703.49,1220.15
10320,-3.8695,0.4316,0.6887,-1601.32,-499.39,48.22
10330,-3.8696,0.4988,0.6648,-741.94,157.04,1751.34
10340,-3.8698,0.5414,0.6437,-148.19,1094.67,-1733.09
10350,-3.8699,0.5497,0.6317,1304.93,-1608.34,-1498.78
10360,-3.8700,0.5128,0.6272,-1632.57,860.41,-155.03
10370,-3.8700,0.4467,0.6208,1648.68,282.23,-1201.90
10380,-3.8700,0.3728,0.6136,1179.93,-530.40,-1248.84
10390,-3.8700,0.2911,0.6183,-273.19,-1452.45,-608.22
10400,-3.8699,0.1902,0.6426,1273.68,-858.83,891.78
10410,-3.8699,0.0677,0.6841,351.81,-1749.63,-592.53
10420,-3.8698,-0.0654,0.7402,679.93,-437.38,-1373.72
10430,-3.8696,-0.2023,0.7932,-366.94,-1234.56,907.65
10440,-3.8696,-0.3314,0.8146,-1882.57,1546.45,704.65
10450,-3.8698,-0.4482,0.7897,1586.18,280.58,1595.34
10460,-3.8699,-0.5651,0.7439,-1366.94,1092.83,860.90
10470,-3.8701,-0.6876,0.7213,-320.07,-766.78,-607.97
10480,-3.8704,-0.8143,0.7269,-7.57,342.35,-373.60
10490,-3.8706,-0.9482,0.7324,-226.32,1060.85,329.53
10500,-3.8711,-1.0902,0.7161,-1366.94,1763.73,-1373.60
10510,-3.8715,-1.2209,0.6763,461.18,-330.26,1.34
10520,-3.8719,-1.3116,0.6200,-273.19,-1424.32,1532.53
10530,-3.8724,-1.3595,0.5502,117.43,-627.56,-420.72
10540,-3.8728,-1.3794,0.4719,1992.43,-1565.19,-1155.21
10550,-3.8730,-1.3738,0.4039,-554.44,419.13,485.29
10560,-3.8733,-1.3325,0.3585,164.31,-283.94,500.73
10570,-3.8735,-1.2688,0.3403,1445.56,1903.63,1875.67
10580,-3.8738,-1.2142,0.3578,1601.81,-424.38,-171.26
10590,-3.8739,-1.1735,0.3907,586.18,1810.12,1172.55
10600,-3.8741,-1.1296,0.4075,1804.93,-1971.07,1000.73
10610,-3.8745,-1.0892,0.4095,-585.69,169.62,-467.96
10620,-3.8748,-1.0880,0.4099,586.18,435.36,922.67
10630,-3.8439,-1.1379,0.4009,742.43,482.24,1797.67
10640,-3.8442,-1.2155,0.3634,-1648.19,-674.13,-733.64
10650,-3.8445,-1.2959,0.2844,429.93,-1471.13,875.67
10660,-3.8448,-1.3597,0.1733,-1866.94,419.31,-1749.45
10670,-3.8451,-1.3920,0.0698,1961.18,-1799.56,906.56
10680,-3.8453,-1.3920,0.0066,1836.18,950.38,1281.37
10690,-3.8456,-1.3696,-0.0133,1836.18,856.63,-1312.50
10700,-3.8457,-1.3500,0.0005,695.56,-1690.19,906.19
10710,-3.8458,-1.3567,0.0355,-788.82,75.44,546.88
10720,-3.8459,-1.3813,0.0731,-1648.19,559.81,-1531.19
10730,-3.8459,-1.3964,0.0927,-804.44,1372.25,-1562.38
10740,-3.8459,-1.3768,0.0840,1273.68,-127.75,-515.50
10750,-3.8458,-1.3203,0.0586,-226.32,-1237.12,1078.25
10760,-3.8458,-1.2457,0.0414,-991.94,-487.00,-921.81
10770,-3.8457,-1.1663,0.0420,554.93,1310.06,1171.94
10780,-3.8457,-1.1011,0.0568,-1273.19,1388.31,-562.44
10790,-3.8456,-1.0865,0.0898,-929.44,-720.95,-1718.69
10800,-3.8455,-1.1377,0.1350,929.93,-486.51,1500.12
10810,-3.8453,-1.2209,0.1735,-1616.94,1294.62,1218.99
10820,-3.8452,-1.2911,0.1919,-273.19,-1783.69,1390.93
10830,-3.8451,-1.3337,0.1962,-1257.57,575.56,1359.74
10840,-3.8450,-1.3646,0.2065,1289.31,1122.38,906.62
10850,-3.8448,-1.3993,0.2328,1336.18,-1549.56,156.62
10860,-3.8448,-1.4250,0.2570,898.68,1809.75,-718.32
10870,-3.8447,-1.4258,0.2537,1601.81,903.44,-1483.89
10880,-3.8446,-1.4136,0.2333,1508.06,481.57,-1358.89
10890,-3.8444,-1.4124,0.2261,-929.44,1872.19,469.18
10900,-3.8441,-1.4219,0.2410,-773.19,950.32,578.55
10910,-3.8439,-1.4211,0.2716,-1991.94,-1143.43,-812.07
10920,-3.8746,-1.4021,0.3256,-1898.19,-1221.56,16.11
10930,-3.8743,-1.3784,0.4016,539.31,1684.75,-1936.89
10940,-3.8738,-1.3644,0.4635,-429.44,-580.87,1297.61
10950,-3.8732,-1.3472,0.5012,1367.43,-658.94,313.35
10960,-3.8726,-1.2955,0.5583,-429.44,169.19,-249.02
10970,-3.8718,-1.1973,0.6532,-1820.07,-518.19,-217.71
10980,-3.8711,-1.0660,0.7424,-1241.94,-377.38,579.35
10990,-3.8706,-0.9268,0.7667,-445.07,-955.26,517.03
11000,-3.8704,-0.8114,0.6993,1383.06,-1845.58,-326.66
11010,-3.8700,-0.7402,0.5710,148.68,1529.66,298.22
11020,-3.8698,-0.6870,0.4731,1258.06,1107.91,1563.60
11030,-3.8695,-0.5962,0.4727,70.56,576.78,-1202.21
11040,-3.8693,-0.4443,0.5453,-304.44,514.40,719.67
11050,-3.8693,-0.2620,0.6393,-866.94,1811.58,-842.71
11060,-3.8693,-0.0972,0.7094,-1523.19,1843.20,-1014.40
11070,-3.8693,0.0187,0.7167,-429.44,-1187.74,251.34
11080,-3.8694,0.0852,0.6652,-1601.32,-265.62,220.09
11090,-3.8695,0.1237,0.5950,-1085.69,1140.75,157.53
11100,-3.8696,0.1410,0.5326,-163.82,156.43,376.16
11110,-3.8698,0.1510,0.4913,-1945.07,172.12,1172.91
11120,-3.8699,0.1851,0.4850,-663.82,-1109.13,-1827.21
11130,-3.8700,0.2456,0.5020,-304.44,-1921.57,1579.04
11140,-3.8702,0.2948,0.5167,-554.44,250.43,-920.90
11150,-3.8704,0.2961,0.5144,1742.43,-1858.83,532.23
11160,-3.8706,0.2416,0.4958,1914.31,1844.30,-639.65
11170,-3.8707,0.1517,0.4806,-1070.07,-530.82,-108.46
11180,-3.8707,0.0558,0.4946,-570.07,1515.87,-1999.08
11190,-3.8707,-0.0399,0.5408,-851.32,-687.44,1063.42
11200,-3.8707,-0.1455,0.5922,-1101.32,1234.25,454.16
11210,-3.8708,-0.2571,0.6234,1383.06,-187.81,-108.28
11220,-3.8708,-0.3566,0.6294,-898.19,-188.05,-1264.47
11230,-3.8708,-0.4282,0.6211,-1632.57,577.39,423.10
11240,-3.8710,-0.4775,0.6117,1195.56,-485.23,766.78
11250,-3.8711,-0.5262,0.6145,-1116.94,-1688.48,329.28
11260,-3.8712,-0.5856,0.6281,648.68,-1329.16,110.53
11270,-3.8713,-0.6580,0.6379,1054.93,405.09,891.85
11280,-3.8715,-0.7313,0.6538,-210.69,1670.53,-1030.03
11290,-3.8715,-0.8014,0.6912,-1601.32,-298.34,766.85
11300,-3.8716,-0.8888,0.7434,1429.93,482.79,657.59
11310,-3.8718,-1.0164,0.7896,-1757.57,-829.90,1892.03
11320,-3.8721,-1.2007,0.8135,1914.31,1076.11,314.03
11330,-3.8724,-1.4220,0.8038,-1679.44,138.24,282.84
11340,-3.8729,-1.6226,0.7527,1992.43,-1096.56,-1045.35
11350,-3.8733,-1.7679,0.6797,320.56,356.20,-1904.79
11360,-3.8737,-1.8588,0.6077,1711.18,-987.85,-1623.72
11370,-3.8740,-1.8900,0.5325,-1913.82,1793.21,-389.47
11380,-3.8743,-1.8477,0.4500,-1913.82,168.15,-1889.59
11390,-3.8745,-1.7351,0.3715,-491.94,1605.71,-1905.40
11400,-3.8748,-1.5842,0.3060,1914.31,-440.92,-593.08
11410,-3.8749,-1.4379,0.2556,1226.81,-815.61,-1905.70
11420,-3.8750,-1.3192,0.2202,-38.82,731.51,-1530.76
11430,-3.8750,-1.2333,0.1979,-851.32,200.50,94.18
11440,-3.8439,-1.1813,0.1837,-1851.32,1341.31,-1968.38
11450,-3.8440,-1.1649,0.1726,804.93,-471.07,-405.94
11460,-3.8440,-1.1735,0.1616,-1101.32,-1892.94,328.43
11470,-3.8441,-1.1881,0.1431,1804.93,700.81,94.06
11480,-3.8444,-1.1987,0.1072,-70.07,-1674.26,-1046.63
11490,-3.8445,-1.2019,0.0551,-1429.44,1731.99,1109.56
11500,-3.8447,-1.1990,0.0017,-1835.69,-939.88,-796.81
11510,-3.8448,-1.1940,-0.0349,-1460.69,231.99,-1843.75
11520,-3.8450,-1.1920,-0.0448,-820.07,-455.51,-1390.75
11530,-3.8450,-1.1967,-0.0323,-570.07,-1721.13,515.50
11540,-3.8451,-1.2064,-0.0188,-1163.82,-127.38,-640.75
11550,-3.8451,-1.2218,-0.0140,1586.18,1606.99,-1140.69
11560,-3.8451,-1.2472,-0.0078,-382.57,-1783.69,-875.06
11570,-3.8450,-1.2852,0.0065,367.43,-986.82,31.19
11580,-3.8450,-1.3254,0.0267,-491.94,841.19,1546.88
11590,-3.8450,-1.3536,0.0498,-1648.19,-565.12,-484.38
11600,-3.8448,-1.3710,0.0784,-1257.57,-1612.06,1671.94
11610,-3.8447,-1.3950,0.1210,523.68,-1955.81,265.75
11620,-3.8447,-1.4353,0.1733,1445.56,-502.75,-702.94
11630,-3.8446,-1.4775,0.2141,289.31,-1799.68,-1827.82
11640,-3.8445,-1.5002,0.2257,-1116.94,-581.05,328.49
11650,-3.8445,-1.5052,0.2159,-23.19,903.26,1703.55
11660,-3.8445,-1.5096,0.2101,-663.82,-346.74,-1062.13
11670,-3.8444,-1.5253,0.2260,-1226.32,-1096.74,1125.37
11680,-3.8442,-1.5475,0.2561,773.68,934.51,969.18
11690,-3.8441,-1.5465,0.2809,1929.93,793.82,-1577.64
11700,-3.8439,-1.4988,0.3024,-1945.07,-34.30,1719.24
11710,-3.8749,-1.4137,0.3461,164.31,-1284.18,-1202.58
11720,-3.8745,-1.3184,0.4224,-945.07,309.69,813.17
11730,-3.8743,-1.2378,0.5110,-741.94,-1924.50,-764.83
11740,-3.8739,-1.1742,0.5802,1570.56,1419.43,-1999.02
11750,-3.8735,-1.1217,0.5981,1711.18,-1721.07,1422.97
11760,-3.8732,-1.0743,0.5782,429.93,575.93,-1123.84
11770,-3.8727,-1.0242,0.5857,-1507.57,-1970.89,-1467.65
11780,-3.8722,-0.9752,0.6531,914.31,-1017.64,1891.72
11790,-3.8718,-0.9271,0.7593,-820.07,-392.58,-326.90
11800,-3.8713,-0.8629,0.8752,1336.18,1201.29,548.34
11810,-3.8710,-0.7609,0.9777,1554.93,45.17,314.21
11820,-3.8707,-0.6184,1.0361,-1382.57,1154.72,1517.52
11830,-3.8706,-0.4600,1.0393,851.81,639.40,-91.74
11840,-3.8704,-0.3174,1.0046,1133.06,1045.96,173.89
11850,-3.8704,-0.2123,0.9496,-616.94,608.70,-982.42
11860,-3.8702,-0.1311,0.8943,836.18,1562.07,1923.71
11870,-3.8701,-0.0326,0.8624,-773.19,-1515.93,1361.08
11880,-3.8701,0.1030,0.8518,-163.82,-1593.87,-654.60
11890,-3.8701,0.2565,0.8445,1195.56,1031.43,-1513.98
11900,-3.8702,0.3961,0.8339,836.18,94.24,-217.10
11910,-3.8702,0.5056,0.8180,-1288.82,-1264.89,798.46
11920,-3.8704,0.5811,0.7922,726.81,704.10,-1748.41
11930,-3.8705,0.6219,0.7480,-1616.94,1407.35,-326.60
11940,-3.8705,0.6199,0.6925,-382.57,-248.84,673.28
11950,-3.8706,0.5546,0.6543,-648.19,641.78,1157.59
11960,-3.8707,0.4342,0.6482,-1007.57,-248.96,876.22
11970,-3.8708,0.2881,0.6672,-413.82,-1030.46,485.60
11980,-3.8710,0.1160,0.6971,883.06,1406.80,1157.53
11990,-3.8711,-0.0811,0.7313,-1148.19,1234.56,-154.91
12000,-3.8710,-0.2794,0.7719,1633.06,1624.82,626.40
12010,-3.8710,-0.4617,0.8083,242.43,-1188.05,1892.09
12020,-3.8710,-0.6179,0.8282,914.31,-516.54,-1654.72
12030,-3.8710,-0.7397,0.8292,914.31,-1969.97,1345.34
12040,-3.8711,-0.8350,0.8101,1320.56,-1845.21,-1529.66
12050,-3.8712,-0.9203,0.7812,1133.06,-298.52,-1873.47
12060,-3.8713,-1.0013,0.7579,-1788.82,13.79,892.15
12070,-3.8716,-1.0835,0.7495,-163.82,1029.24,-857.91
12080,-3.8717,-1.1780,0.7557,1320.56,-49.01,767.03
12090,-3.8719,-1.2928,0.7609,1226.81,747.68,1423.34
12100,-3.8722,-1.4200,0.7505,-1476.32,1403.69,1345.21
12110,-3.8724,-1.5305,0.7184,-1757.57,75.32,829.59
12120,-3.8728,-1.5908,0.6595,101.81,-34.24,-248.66
12130,-3.8730,-1.5894,0.5811,383.06,434.39,-1936.22
12140,-3.8733,-1.5481,0.4932,570.56,-1612.49,126.10
12150,-3.8737,-1.5000,0.4061,1851.81,-862.43,-936.58
12160,-3.8738,-1.4520,0.3423,8.06,-2.93,172.61
12170,-3.8740,-1.3912,0.3140,-1851.32,-174.74,-999.39
12180,-3.8741,-1.3088,0.3088,1929.93,200.38,-1968.14
12190,-3.8743,-1.2117,0.3076,476.81,-455.69,609.92
12200,-3.8745,-1.1179,0.2925,914.31,-611.76,-1343.20
12210,-3.8746,-1.0410,0.2534,914.31,1450.93,125.55
12220,-3.8749,-0.9821,0.1963,-1241.94,451.05,1359.86
12230,-3.8439,-0.9363,0.1337,-1695.07,1138.67,-1140.26
12240,-3.8440,-0.9042,0.0698,164.31,1123.17,593.99
12250,-3.8442,-0.8910,0.0181,273.68,951.35,-1015.50
12260,-3.8444,-0.8783,-0.0028,1961.18,-1673.65,-1765.62
12270,-3.8445,-0.8384,-0.0065,-413.82,-345.52,1078.06
12280,-3.8447,-0.7664,-0.0204,695.56,-814.15,-1406.31
12290,-3.8450,-0.6813,-0.0516,1914.31,1404.72,-1093.81
12300,-3.8452,-0.6266,-0.0944,804.93,1404.91,-1484.50
12310,-3.8455,-0.6405,-0.1327,-195.07,-63.78,-1859.62
12320,-3.8457,-0.7292,-0.1512,-1976.32,-970.03,-1922.18
12330,-3.8459,-0.8770,-0.1404,-1335.69,654.79,-1656.56
12340,-3.8462,-1.0457,-0.1060,-241.94,-1954.90,-1109.68
12350,-3.8464,-1.1826,-0.0775,-1835.69,-1548.95,-437.74
12360,-3.8466,-1.2654,-0.0730,633.06,-1908.57,718.57
12370,-3.8468,-1.3140,-0.0792,-1960.69,-1330.63,-1078.31
12380,-3.8469,-1.3477,-0.0774,-179.44,1872.38,-1281.43
12390,-3.8469,-1.3719,-0.0582,-491.94,-1893.31,609.19
12400,-3.8469,-1.3916,-0.0212,398.68,559.81,546.75
12410,-3.8469,-1.3999,0.0237,1883.06,1294.13,-1687.56
12420,-3.8468,-1.3896,0.0602,820.56,-955.87,1734.38
12430,-3.8467,-1.3663,0.0798,-1866.94,-284.00,-1718.69
12440,-3.8466,-1.3380,0.0907,1117.43,-1768.31,-874.88
12450,-3.8463,-1.3052,0.1058,742.43,-377.62,172.00
12460,-3.8462,-1.2703,0.1372,945.56,1559.94,1734.56
12470,-3.8461,-1.2544,0.1908,1414.31,1575.62,-93.51
12480,-3.8458,-1.2748,0.2604,-554.44,435.00,-1452.76
12490,-3.8456,-1.3275,0.3289,836.18,1341.25,1141.11
12500,-3.8455,-1.4044,0.3754,-1913.82,-1893.25,-718.14
12510,-3.8452,-1.4891,0.3918,242.43,59.75,906.98
12520,-3.8451,-1.5570,0.3865,1398.68,-1831.05,1891.36
12530,-3.8450,-1.5920,0.3728,711.18,1481.32,-1436.77
12540,-3.8447,-1.5946,0.3765,226.81,-268.74,266.30
12550,-3.8446,-1.5736,0.4153,-101.32,199.95,-639.89
12560,-3.8444,-1.5397,0.4735,-1413.82,1168.76,-1202.33
12570,-3.8441,-1.5026,0.5337,-1070.07,621.95,-1342.83
12580,-3.8439,-1.4641,0.5978,-320.07,325.13,-577.09
12590,-3.8748,-1.4229,0.6637,601.81,528.38,626.16
12600,-3.8745,-1.4010,0.6954,1883.06,965.94,-1733.09
12610,-3.8741,-1.4109,0.6807,679.93,1028.50,-1201.78
12620,-3.8737,-1.4126,0.6731,-585.69,-862.18,-670.59
12630,-3.8730,-1.3632,0.7196,-804.44,-1830.93,470.03
12640,-3.8727,-1.2584,0.8137,1523.68,122.31,-1576.72
12650,-3.8724,-1.1183,0.9161,-1070.07,169.37,-29.66
12660,-3.8722,-0.9867,0.9795,867.43,1279.05,1954.90
12670,-3.8721,-0.9302,0.9750,1711.18,1388.67,-498.11
12680,-3.8717,-0.9369,0.9363,945.56,810.67,1767.52
12690,-3.8712,-0.9321,0.9166,86.18,-142.46,908.02
12700,-3.8707,-0.8914,0.9288,695.56,1341.92,220.52
12710,-3.8704,-0.7950,0.9829,1914.31,-1095.52,-1576.35
12720,-3.8700,-0.6229,1.0780,-1757.57,1826.54,-216.86
12730,-3.8696,-0.3923,1.1708,273.68,1998.78,-1107.30
12740,-3.8694,-0.1262,1.2026,1789.31,1874.21,1908.51
12750,-3.8694,0.1411,1.1372,-148.19,1952.82,-1138.31
12760,-3.8695,0.3535,0.9750,-1929.44,1562.74,-1888.43
12770,-3.8698,0.4751,0.7712,1258.06,797.55,-873.11
12780,-3.8699,0.5052,0.6082,820.56,-1280.33,188.96
12790,-3.8701,0.4662,0.5267,679.93,1844.73,1126.16
12800,-3.8704,0.3843,0.5164,-320.07,-577.27,1985.35
12810,-3.8706,0.2708,0.5466,1195.56,-1905.52,-999.02
12820,-3.8707,0.1354,0.5990,-1335.69,1969.24,1204.16
12830,-3.8708,-0.0052,0.6530,1336.18,672.12,1094.91
12840,-3.8710,-0.1412,0.6799,-663.82,-406.31,1469.97
12850,-3.8711,-0.2614,0.6653,1929.93,-953.43,1438.78
12860,-3.8712,-0.3687,0.6195,-1445.07,1171.33,907.53
12870,-3.8713,-0.4865,0.5638,820.56,-688.23,344.91
12880,-3.8715,-0.6166,0.5167,1742.43,186.52,672.97
12890,-3.8716,-0.7419,0.4897,1086.18,-1844.97,-1889.65
12900,-3.8717,-0.8247,0.4822,1039.31,-1298.34,-14.71
12910,-3.8717,-0.8303,0.4939,-1554.44,1732.73,1704.04
12920,-3.8718,-0.7826,0.5265,1726.81,-767.27,-811.58
12930,-3.8718,-0.7222,0.5739,-163.82,-595.34,969.73
12940,-3.8719,-0.6603,0.6249,-429.44,1467.29,-452.03
12950,-3.8719,-0.6190,0.6776,-507.57,-1.34,-1326.97
12960,-3.8719,-0.6373,0.7344,773.68,-1251.22,1376.28
12970,-3.8721,-0.7274,0.7759,-1570.07,-1985.66,1735.78
12980,-3.8723,-0.8699,0.7819,-1101.32,-673.34,-1311.04
12990,-3.8726,-1.0449,0.7681,664.31,92.04,1220.28
13000,-3.8729,-1.2506,0.7510,-1741.94,-1673.95,1954.59
13010,-3.8733,-1.4712,0.7166,-70.07,138.12,813.96
13020,-3.8738,-1.6569,0.6552,-304.44,-268.55,-326.78
13030,-3.8740,-1.7432,0.5852,-70.07,-128.30,594.97
13040,-3.8744,-1.7036,0.5294,883.06,-1081.54,-1092.65
13050,-3.8746,-1.5916,0.4926,1945.56,-222.11,1094.73
13060,-3.8750,-1.4871,0.4680,289.31,-940.61,-670.96
13070,-3.8440,-1.4230,0.4501,1664.31,-81.05,-1592.90
13080,-3.8442,-1.4017,0.4293,1867.43,1622.19,-1546.02
13090,-3.8445,-1.4270,0.4000,586.18,-1034.00,-1233.58
13100,-3.8447,-1.4775,0.3639,1351.81,-784.06,-1186.77
13110,-3.8450,-1.5168,0.3229,-1116.94,-1409.18,-1108.70
13120,-3.8452,-1.5330,0.2734,1851.81,1340.76,-1093.14
13130,-3.8455,-1.5359,0.2100,-210.69,-987.43,-1046.39
13140,-3.8457,-1.5439,0.1288,-585.69,-1112.43,-109.01
13150,-3.8458,-1.5577,0.0377,-1616.94,496.95,-1171.63
13160,-3.8458,-1.5475,-0.0471,617.43,840.70,312.56
13170,-3.8459,-1.4817,-0.1125,1929.93,1981.32,-515.75
13180,-3.8459,-1.3600,-0.1456,-1648.19,1606.45,-609.62
13190,-3.8459,-1.2163,-0.1461,1929.93,1372.31,-187.81
13200,-3.8458,-1.0968,-0.1238,320.56,1310.12,1046.57
13210,-3.8458,-1.0363,-0.0829,-382.57,169.68,-781.49
13220,-3.8457,-1.0471,-0.0299,-632.57,1404.17,1796.69
13230,-3.8456,-1.1149,0.0176,1976.81,185.42,140.56
13240,-3.8456,-1.2003,0.0424,1304.93,-1736.57,1750.00
13250,-3.8456,-1.2583,0.0364,-1632.57,1435.12,-1359.31
13260,-3.8456,-1.2729,0.0020,-1054.44,669.37,-1109.31
13270,-3.8456,-1.2672,-0.0391,1070.56,263.12,-1171.88
13280,-3.8456,-1.2733,-0.0555,1804.93,-986.88,-1047.00
13290,-3.8456,-1.3048,-0.0295,1023.68,903.75,-109.50
13300,-3.8455,-1.3483,0.0306,992.43,231.81,1953.06
13310,-3.8453,-1.3773,0.0962,-570.07,-65.19,1187.50
13320,-3.8452,-1.3759,0.1444,-288.82,325.38,1562.68
13330,-3.8451,-1.3541,0.1752,-101.32,-1502.75,-1234.13
13340,-3.8448,-1.3455,0.2090,-1320.07,-1565.19,375.31
13350,-3.8447,-1.3751,0.2572,-210.69,-1237.06,1484.74
13360,-3.8446,-1.4281,0.3063,-7.57,934.75,1750.49
13370,-3.8445,-1.4581,0.3380,1211.18,-784.06,1484.92
13380,-3.8444,-1.4337,0.3346,1367.43,-721.62,1141.24
13390,-3.8442,-1.3695,0.2920,492.43,-1159.06,-1983.76
13400,-3.8440,-1.2961,0.2517,711.18,1387.94,1703.67
13410,-3.8750,-1.2333,0.2710,-1898.19,231.81,-249.51
13420,-3.8746,-1.1909,0.3634,-1851.32,-1299.32,-1796.39
13430,-3.8743,-1.1599,0.4985,-429.44,-1471.13,438.17
13440,-3.8740,-1.1155,0.6195,-460.69,-174.19,1797.79
13450,-3.8738,-1.0599,0.6652,1226.81,-689.70,1751.16
13460,-3.8735,-1.0219,0.6327,336.18,1154.17,-1529.97
13470,-3.8732,-1.0126,0.5867,1211.18,997.99,-1670.65
13480,-3.8727,-1.0121,0.5957,-1601.32,-892.64,641.72
13490,-3.8723,-0.9856,0.6746,-1538.82,263.61,-1467.59
13500,-3.8719,-0.9113,0.7880,1851.81,-1642.58,1579.41
13510,-3.8717,-0.7991,0.8832,-632.57,873.17,610.90
13520,-3.8717,-0.6860,0.9166,1726.81,1060.91,-60.79
13530,-3.8716,-0.5981,0.8870,195.56,1342.41,-1873.23
13540,-3.8715,-0.5299,0.8246,-554.44,1545.65,1173.58
13550,-3.8713,-0.4647,0.7509,179.93,1561.46,470.34
13560,-3.8713,-0.3934,0.6884,523.68,124.08,-420.41
13570,-3.8712,-0.3176,0.6694,1648.68,124.21,-779.91
13580,-3.8711,-0.2402,0.6980,-648.19,1702.45,-998.72
13590,-3.8710,-0.1663,0.7421,1258.06,1358.89,1657.59
13600,-3.8710,-0.1074,0.7709,-1273.19,-1000.37,-889.22
13610,-3.8708,-0.0778,0.7769,-1741.94,-1312.74,126.46
13620,-3.8708,-0.0720,0.7504,-1945.07,-547.06,954.59
13630,-3.8708,-0.0590,0.6923,-1210.69,62.32,1407.71
13640,-3.8708,-0.0297,0.6273,461.18,624.88,501.34
13650,-3.8710,-0.0044,0.5751,211.18,312.44,1688.72
13660,-3.8711,0.0028,0.5397,-554.44,1624.94,1907.35
13670,-3.8712,-0.0222,0.5231,367.43,1078.12,-1670.84
13680,-3.8713,-0.0936,0.5309,1164.31,-1031.31,-467.77
13690,-3.8713,-0.1962,0.5728,23.68,-31.43,-1999.02
13700,-3.8713,-0.3092,0.6400,-1101.32,1327.70,1938.60
13710,-3.8713,-0.4319,0.6945,429.93,1936.89,-1576.90
13720,-3.8713,-0.5566,0.7074,726.81,905.40,-1248.66
13730,-3.8713,-0.6774,0.6820,758.06,-1438.60,-1186.16
13740,-3.8713,-0.7952,0.6362,1304.93,-688.84,-1608.09
13750,-3.8713,-0.8982,0.5912,-1773.19,1451.54,1626.22
13760,-3.8713,-0.9702,0.5631,1039.31,-314.27,516.72
13770,-3.8715,-0.9961,0.5566,-179.44,91.80,-1092.65
13780,-3.8715,-0.9772,0.5677,508.06,-736.33,907.29
13790,-3.8716,-0.9464,0.5875,-1070.07,685.55,-1217.65
13800,-3.8716,-0.9220,0.6208,-1132.57,-783.14,1469.85
13810,-3.8716,-0.8945,0.6730,1992.43,-517.46,1079.28
13820,-3.8716,-0.8688,0.7318,1508.06,-1845.52,360.66
13830,-3.8717,-0.8649,0.7758,804.93,1685.79,1626.40
13840,-3.8719,-0.9060,0.7892,1304.93,-689.21,-295.41
13850,-3.8722,-0.9910,0.7830,39.31,1029.48,-967.22
13860,-3.8724,-1.0846,0.7748,1164.31,232.42,235.90
13870,-3.8729,-1.1570,0.7679,1179.93,-814.64,-561.04
13880,-3.8733,-1.2153,0.7629,-85.69,-1689.82,1517.09
13890,-3.8737,-1.2894,0.7596,445.56,1669.49,142.09
13900,-3.8740,-1.3826,0.7510,-1038.82,1247.44,813.96
13910,-3.8744,-1.4637,0.7301,-960.69,137.88,-545.41
13920,-3.8746,-1.5043,0.6940,648.68,1465.88,-1279.85
13930,-3.8749,-1.4921,0.6433,-538.82,840.76,1595.09
13940,-3.8440,-1.4365,0.5861,1023.68,-1643.55,-76.90
13950,-3.8442,-1.3676,0.5347,133.06,-971.56,-1952.03
13960,-3.8445,-1.3162,0.4918,961.18,450.44,501.04
13970,-3.8448,-1.2943,0.4504,-460.69,-1033.87,-92.83
13980,-3.8450,-1.2975,0.4034,-1663.82,1669.31,125.85
13990,-3.8452,-1.3137,0.3485,1929.93,-346.31,453.86
14000,-3.8455,-1.3363,0.2828,-148.19,622.38,938.17
14010,-3.8457,-1.3652,0.2052,961.18,216.13,-1655.70
14020,-3.8458,-1.3906,0.1230,1258.06,-1721.44,1078.49
14030,-3.8459,-1.3942,0.0449,-1991.94,-237.12,1062.68
14040,-3.8461,-1.3600,-0.0217,1554.93,1762.88,-1796.81
14050,-3.8461,-1.2837,-0.0728,1929.93,1231.69,124.94
14060,-3.8462,-1.1815,-0.1080,-304.44,-1299.44,-1250.18
14070,-3.8462,-1.0803,-0.1268,773.68,-1814.82,-1562.74
14080,-3.8462,-1.0002,-0.1298,1726.81,-220.89,-1047.18
14090,-3.8462,-0.9552,-0.1218,-23.19,-595.76,-62.81
14100,-3.8461,-0.9512,-0.1025,1742.43,419.98,1562.26
14110,-3.8461,-0.9790,-0.0704,-1741.94,-1111.27,-93.99
14120,-3.8459,-1.0138,-0.0333,-1304.44,-1001.95,-1047.06
14130,-3.8458,-1.0361,0.0002,-1757.57,-252.01,-1656.37
14140,-3.8457,-1.0485,0.0305,-616.94,44.80,1250.00
14150,-3.8457,-1.0604,0.0635,1804.93,-80.20,-625.00
14160,-3.8456,-1.0746,0.1022,273.68,138.55,1062.62
14170,-3.8456,-1.0929,0.1433,-1538.82,1091.61,-1312.32
14180,-3.8455,-1.1174,0.1825,117.43,-1642.76,187.74
14190,-3.8455,-1.1383,0.2087,976.81,-627.20,1219.06
14200,-3.8455,-1.1469,0.2155,-1695.07,-1267.88,-1968.38
14210,-3.8455,-1.1538,0.2179,1211.18,-408.51,-1155.88
14220,-3.8455,-1.1810,0.2371,320.56,-96.01,-405.88
14230,-3.8453,-1.2421,0.2837,836.18,-1642.94,1156.68
14240,-3.8452,-1.3312,0.3564,1023.68,325.68,328.67
14250,-3.8451,-1.4230,0.4403,1617.43,1638.00,1656.92
14260,-3.8448,-1.4889,0.5219,1867.43,372.19,1219.60
14270,-3.8446,-1.5104,0.5959,1429.93,-1190.43,1688.48
14280,-3.8444,-1.4825,0.6544,-1320.07,293.88,1360.53
14290,-3.8441,-1.4264,0.6909,-1757.57,-221.68,141.85
14300,-3.8440,-1.3817,0.6924,1429.93,450.32,-1201.78
14310,-3.8750,-1.3719,0.6576,-851.32,637.88,-1076.78
14320,-3.8746,-1.3851,0.6318,398.68,184.81,-1983.09
14330,-3.8743,-1.3949,0.6649,-1288.82,887.88,-1373.78
14340,-3.8739,-1.3813,0.7585,1461.18,1122.25,-1779.97
14350,-3.8735,-1.3330,0.8795,-804.44,1106.63,32.71
14360,-3.8734,-1.2653,0.9810,1383.06,591.13,-154.54
14370,-3.8732,-1.2056,1.0192,-1945.07,1575.62,-1998.11
14380,-3.8729,-1.1519,0.9907,1695.56,-1533.63,1267.58
14390,-3.8727,-1.0973,0.9309,570.56,-1174.13,-91.86
14400,-3.8722,-1.0461,0.8802,-445.07,-830.32,111.15
14410,-3.8718,-0.9854,0.8744,-1898.19,685.42,95.46
14420,-3.8716,-0.8942,0.9338,1883.06,-64.45,-404.60
14430,-3.8712,-0.7671,1.0428,1554.93,-454.90,1658.02
14440,-3.8710,-0.5978,1.1484,1820.56,1498.47,1392.64
14450,-3.8708,-0.4037,1.2094,-507.57,-985.60,-1154.05
14460,-3.8707,-0.2095,1.2294,336.18,-1188.29,-1310.18
14470,-3.8706,-0.0255,1.2163,1195.56,1374.57,658.63
14480,-3.8706,0.1273,1.1635,742.43,-296.94,1486.69
14490,-3.8706,0.2432,1.0757,304.93,922.12,-1216.49
14500,-3.8706,0.3203,0.9734,-866.94,1687.93,-1060.42
14510,-3.8707,0.3423,0.8682,1008.06,594.36,-982.48
14520,-3.8710,0.3033,0.7662,-179.44,-874.39,-1388.98
14530,-3.8712,0.2260,0.6760,-1163.82,-1921.33,360.84
14540,-3.8716,0.1378,0.6106,929.93,-1468.32,-467.47
14550,-3.8717,0.0468,0.5856,1648.68,-1843.51,1173.03
14560,-3.8718,-0.0548,0.6047,1992.43,-1046.81,688.60
14570,-3.8719,-0.1652,0.6523,992.43,1421.75,1876.16
14580,-3.8721,-0.2719,0.6963,-1132.57,-484.74,-420.65
14590,-3.8721,-0.3684,0.7157,1211.18,1140.08,1423.22
14600,-3.8722,-0.4681,0.7164,851.81,-375.73,-358.03
14610,-3.8722,-0.5873,0.7152,86.18,-282.17,1657.59
14620,-3.8723,-0.7181,0.7219,836.18,-438.66,-76.78
14630,-3.8723,-0.8381,0.7369,86.18,420.47,-1482.97
14640,-3.8723,-0.9236,0.7502,726.81,-1657.90,751.40
14650,-3.8724,-0.9491,0.7476,1789.31,45.04,-1982.91
14660,-3.8726,-0.9114,0.7255,-1476.32,-298.77,-967.35
14670,-3.8726,-0.8475,0.6982,-648.19,873.17,845.15
14680,-3.8727,-0.7970,0.6885,-476.32,1388.92,-967.41
14690,-3.8727,-0.7740,0.7086,1992.43,139.04,1657.59
14700,-3.8727,-0.7859,0.7562,929.93,-1282.78,1204.47
14710,-3.8727,-0.8336,0.8214,-585.69,810.91,1188.96
14720,-3.8727,-0.9020,0.8926,1304.93,1154.60,923.46
14730,-3.8728,-0.9712,0.9489,554.93,-1736.15,-1060.79
14740,-3.8729,-1.0117,0.9650,-304.44,1466.80,1408.08
14750,-3.8732,-1.0236,0.9407,-1491.94,-470.76,1033.08
14760,-3.8735,-1.0569,0.8972,992.43,419.86,-279.42
14770,-3.8738,-1.1365,0.8531,726.81,-1142.70,1611.08
14780,-3.8741,-1.2336,0.8097,-1460.69,1216.49,-1795.23
14790,-3.8745,-1.3162,0.7622,-1898.19,-346.19,-1795.35
14800,-3.8749,-1.3755,0.7172,-460.69,1575.50,-1186.04
14810,-3.8439,-1.4127,0.6859,-54.44,-190.25,923.22
14820,-3.8441,-1.4364,0.6716,-820.07,-190.31,188.78
14830,-3.8445,-1.4608,0.6587,148.68,1981.57,-1545.59
14840,-3.8448,-1.4774,0.6172,1023.68,325.26,-1920.59
14850,-3.8453,-1.4685,0.5360,-1101.32,-987.30,-61.34
14860,-3.8456,-1.4449,0.4199,39.31,622.13,157.29
14870,-3.8458,-1.4258,0.2839,-945.07,1762.76,1063.29
14880,-3.8459,-1.4156,0.1667,1508.06,356.57,109.92
14890,-3.8462,-1.4144,0.0959,-1195.07,1356.57,-1124.69
14900,-3.8463,-1.4133,0.0681,-1038.82,294.07,1828.31
14910,-3.8464,-1.3956,0.0674,-898.19,731.57,-1187.38
14920,-3.8464,-1.3577,0.0850,1367.43,637.88,-1593.63
14930,-3.8464,-1.3105,0.1090,-1773.19,-1112.06,-781.13
14940,-3.8464,-1.2681,0.1185,258.06,1966.19,-46.69
14950,-3.8463,-1.2400,0.1117,1695.56,-815.00,984.56
14960,-3.8463,-1.2167,0.1011,1289.31,-1689.94,-1124.82
14970,-3.8462,-1.1793,0.0903,273.68,950.74,1031.43
14980,-3.8462,-1.1261,0.0781,1054.93,-424.19,-968.63
14990,-3.8461,-1.0681,0.0679,-132.57,-1986.63,812.62
15000,-3.8461,-1.0177,0.0708,-710.69,700.99,-1546.75
15010,-3.8459,-0.9871,0.0900,1742.43,1076.11,15.75
15020,-3.8459,-0.9812,0.1199,1664.31,-470.70,1734.50
15030,-3.8459,-0.9946,0.1515,-1585.69,-642.58,-734.19
15040,-3.8459,-1.0233,0.1730,695.56,-595.70,-406.01
15050,-3.8459,-1.0734,0.1836,1023.68,-1845.76,-1437.19
15060,-3.8459,-1.1423,0.1915,-1382.57,-486.51,625.31
15070,-3.8461,-1.2108,0.2001,1789.31,528.99,-1437.13
15080,-3.8461,-1.2701,0.2094,1023.68,1622.62,-1859.01
15090,-3.8459,-1.3260,0.2240,1429.93,-1190.00,422.24
15100,-3.8458,-1.3673,0.2435,-1726.32,684.88,594.18
15110,-3.8457,-1.3639,0.2719,992.43,-815.19,-1952.70
15120,-3.8455,-1.3041,0.3163,1429.93,-1190.19,516.11
15130,-3.8453,-1.2061,0.3597,1086.18,497.44,-1405.64
15140,-3.8452,-1.1079,0.3782,1633.06,-1939.88,-233.70
15150,-3.8450,-1.0461,0.3766,-1804.44,419.68,1469.48
15160,-3.8447,-1.0319,0.3623,-1898.19,216.67,188.23
15170,-3.8445,-1.0688,0.3320,-70.07,-1611.45,281.92
15180,-3.8442,-1.1449,0.3158,-804.44,-1486.51,-655.64
15190,-3.8750,-1.2190,0.3552,1461.18,435.24,1422.49
15200,-3.8745,-1.2513,0.4525,-23.19,1481.93,766.30
15210,-3.8741,-1.2250,0.5594,-163.82,1935.00,-546.02
15220,-3.8737,-1.1545,0.6204,-788.82,-377.44,438.54
15230,-3.8734,-1.0759,0.6273,226.81,-580.38,-530.09
15240,-3.8732,-1.0223,0.5920,-1710.69,310.36,-264.40
15250,-3.8729,-1.0017,0.5229,1148.68,-205.14,1782.35
15260,-3.8727,-0.9900,0.4570,-210.69,-1048.89,0.98
15270,-3.8726,-0.9827,0.4242,1289.31,-1486.33,-1233.52
15280,-3.8723,-0.9906,0.4246,-1773.19,-1689.45,1797.67
15290,-3.8721,-0.9978,0.4575,1211.18,-1642.58,1125.79
15300,-3.8719,-0.9966,0.5056,289.31,-1423.83,-624.15
15310,-3.8717,-0.9897,0.5487,445.56,732.42,579.10
15320,-3.8716,-0.9601,0.5819,1320.56,-1751.95,1938.54
15330,-3.8715,-0.8945,0.5854,1117.43,-1501.89,-1452.03
15340,-3.8713,-0.8020,0.5486,1508.06,-1048.65,1110.47
15350,-3.8713,-0.6926,0.4968,1351.81,-1767.21,-1952.09
15360,-3.8713,-0.5781,0.4526,-648.19,-392.03,1282.17
15370,-3.8715,-0.4854,0.4165,-1991.94,1951.97,-1249.15
15380,-3.8716,-0.4294,0.3857,1883.06,1327.15,-749.21
15390,-3.8717,-0.4086,0.3475,1039.31,1389.77,-1108.64
15400,-3.8718,-0.4271,0.3010,-288.82,499.15,-1233.70
15410,-3.8718,-0.4781,0.2732,1336.18,-1453.98,609.92
15420,-3.8718,-0.5317,0.2778,-1195.07,-1016.60,766.11
15430,-3.8718,-0.5577,0.2991,-54.44,-422.97,1953.61
15440,-3.8718,-0.5509,0.3197,617.43,-1704.22,-765.08
15450,-3.8717,-0.5188,0.3289,1492.43,936.40,500.61
15460,-3.8717,-0.4674,0.3245,1601.81,-1891.66,1672.49
15470,-3.8717,-0.4203,0.3182,179.93,1545.96,-1858.76
15480,-3.8717,-0.4154,0.3188,-1788.82,749.15,1547.49
15490,-3.8717,-0.4630,0.3258,-1163.82,827.27,953.74
15500,-3.8717,-0.5405,0.3434,742.43,1717.83,1453.74
15510,-3.8717,-0.6248,0.3857,-1179.44,-32.35,-905.64
15520,-3.8716,-0.7094,0.4504,39.31,1389.40,969.48
15530,-3.8716,-0.7952,0.5099,1211.18,1670.47,-1889.77
15540,-3.8716,-0.8823,0.5402,-1773.19,1279.66,-1670.90
15550,-3.8716,-0.9600,0.5431,-929.44,1154.48,1626.04
15560,-3.8717,-1.0032,0.5352,1133.06,1529.36,-545.84
15570,-3.8718,-0.9818,0.5369,-398.19,513.61,-92.71
15580,-3.8719,-0.8826,0.5521,-1663.82,732.42,-545.84
15590,-3.8721,-0.7361,0.5741,-960.69,-1314.27,-1280.21
15600,-3.8722,-0.6090,0.6145,1789.31,1498.54,-1123.90
15610,-3.8723,-0.6221,0.6863,-1945.07,-1329.35,-545.72
15620,-3.8724,-0.8601,0.7599,383.06,-141.85,1891.91
15630,-3.8728,-1.2144,0.7845,1914.31,1279.54,-342.29
15640,-3.8732,-1.5085,0.7422,570.56,435.12,954.65
15650,-3.8737,-1.6951,0.6575,-1085.69,-987.37,970.15
15660,-3.8741,-1.8069,0.5685,-960.69,168.52,-1779.97
15670,-3.8745,-1.8389,0.4915,726.81,777.71,1188.60
15680,-3.8749,-1.7808,0.4285,633.06,-1081.73,-1702.21
15690,-3.8439,-1.6674,0.3756,70.56,-1144.10,-1936.71
15700,-3.8440,-1.5328,0.3428,-1413.82,90.45,735.11
15710,-3.8441,-1.4171,0.3492,-195.07,-112.43,1797.49
15720,-3.8442,-1.3723,0.3805,-1382.57,715.94,-749.33
15730,-3.8444,-1.4215,0.4042,351.81,716.06,-499.27
15740,-3.8445,-1.5437,0.4058,-1945.07,-252.81,-1514.89
15750,-3.8446,-1.6841,0.3741,-1585.69,-49.93,203.86
15760,-3.8448,-1.7841,0.3042,445.56,-97.05,1031.92
15770,-3.8451,-1.8007,0.2056,-351.32,-1050.42,1688.05
15780,-3.8453,-1.7162,0.0928,1523.68,-1675.42,-1093.38
15790,-3.8455,-1.5547,-0.0149,336.18,-112.73,1890.75
15800,-3.8456,-1.3657,-0.0919,1008.06,-1893.68,-453.19
15810,-3.8455,-1.1957,-0.1163,1195.56,247.31,109.19
15820,-3.8455,-1.0706,-0.0873,-1038.82,1122.62,-922.12
15830,-3.8453,-0.9990,-0.0289,-1023.19,841.61,-468.93
15840,-3.8451,-0.9843,0.0353,133.06,310.55,968.69
15850,-3.8450,-1.0114,0.0996,-1976.32,529.30,-1281.19
15860,-3.8448,-1.0486,0.1509,-1445.07,763.61,-46.69
15870,-3.8446,-1.0775,0.1711,1789.31,-673.95,468.99
15880,-3.8446,-1.1150,0.1656,-1913.82,1919.74,-140.32
15890,-3.8445,-1.1857,0.1511,1289.31,1216.55,1140.93
15900,-3.8445,-1.2733,0.1432,242.43,-642.94,781.49
15910,-3.8446,-1.3441,0.1425,1023.68,-1658.75,-202.88
15920,-3.8446,-1.3943,0.1350,-38.82,-1752.69,-749.76
15930,-3.8445,-1.4447,0.1250,1539.31,1294.13,343.99
15940,-3.8445,-1.5085,0.1404,-913.82,12.76,-749.76
15950,-3.8444,-1.5668,0.1975,-1085.69,1981.38,-93.51
15960,-3.8441,-1.5862,0.2797,-538.82,1293.76,1953.49
15970,-3.8439,-1.5552,0.3553,976.81,-190.61,734.86
15980,-3.8750,-1.4967,0.4060,945.56,1496.95,-343.08
15990,-3.8748,-1.4446,0.4270,429.93,-18.55,1985.11
16000,-3.8746,-1.4067,0.4191,-898.19,-1330.99,-92.96
16010,-3.8744,-1.3701,0.3894,-54.44,1653.44,-1452.33
16020,-3.8741,-1.3230,0.3634,633.06,1856.69,-624.27
16030,-3.8738,-1.2566,0.3772,-1335.69,-1471.37,-1749.33
16040,-3.8734,-1.1766,0.4374,-835.69,294.37,1172.61
16050,-3.8732,-1.0940,0.5205,1398.68,-2.32,-749.21
16060,-3.8728,-1.0116,0.6060,-23.19,-1361.57,547.85
16070,-3.8726,-0.9373,0.6641,-1476.32,1576.11,329.28
16080,-3.8724,-0.8716,0.6781,39.31,1013.79,-1108.09
16090,-3.8722,-0.8098,0.6544,445.56,-1189.21,1563.78
16100,-3.8719,-0.7642,0.5961,351.81,-220.34,1157.47
16110,-3.8717,-0.7286,0.5441,-1804.44,310.97,-998.84
16120,-3.8713,-0.6681,0.5505,-1257.57,1654.79,-1905.21
16130,-3.8711,-0.5671,0.6155,-1507.57,-1516.97,-545.84
16140,-3.8708,-0.4331,0.7058,-585.69,-1204.28,1923.03
16150,-3.8707,-0.2761,0.7853,570.56,-1641.48,-1811.16
16160,-3.8706,-0.1090,0.8215,664.31,530.70,1032.78
16170,-3.8706,0.0499,0.7932,-1945.07,1171.63,-1279.66
16180,-3.8705,0.1891,0.7191,-1601.32,1531.31,360.90
16190,-3.8705,0.3079,0.6428,211.18,47.24,-1076.72
16200,-3.8704,0.3997,0.5830,-585.69,-1718.20,923.10
16210,-3.8704,0.4519,0.5383,-835.69,-1374.27,954.22
16220,-3.8705,0.4622,0.5065,1851.81,907.10,-452.09
16230,-3.8705,0.4354,0.4847,-835.69,828.98,1172.85
16240,-3.8706,0.3823,0.4705,-257.57,-1952.33,-1639.71
16250,-3.8707,0.3235,0.4607,945.56,219.48,-577.21
16260,-3.8707,0.2687,0.4579,1414.31,-1030.64,485.23
16270,-3.8708,0.2032,0.4655,-1601.32,-1390.14,1500.85
16280,-3.8710,0.1154,0.4757,-1976.32,-421.51,-1811.65
16290,-3.8711,0.0093,0.4822,-1226.32,890.81,-1233.46
16300,-3.8712,-0.1089,0.4912,1195.56,1718.75,-452.21
16310,-3.8712,-0.2441,0.5062,-1929.44,-1109.62,813.42
16320,-3.8713,-0.4080,0.5281,758.06,812.01,-1045.90
16330,-3.8713,-0.5955,0.5568,-210.69,-391.48,1907.23
16340,-3.8713,-0.7885,0.5869,-210.69,-719.97,719.79
16350,-3.8715,-0.9741,0.6161,-913.82,-860.96,-1014.53
16360,-3.8715,-1.1379,0.6381,-679.44,-1126.95,719.91
16370,-3.8716,-1.2626,0.6455,-1648.19,1685.24,1751.22
16380,-3.8717,-1.3519,0.6460,-1601.32,-1361.88,-1623.78
16390,-3.8718,-1.4214,0.6514,-1038.82,-1299.56,-1170.65
16400,-3.8719,-1.4703,0.6581,-1929.44,-612.18,-983.15
16410,-3.8721,-1.4989,0.6538,-195.07,247.07,-1420.59
16420,-3.8722,-1.5167,0.6321,148.68,-299.80,1001.22
16430,-3.8724,-1.5314,0.5923,1867.43,918.88,1735.60
16440,-3.8727,-1.5392,0.5337,-7.57,-174.93,1297.97
16450,-3.8729,-1.5247,0.4637,-1007.57,325.07,1032.29
16460,-3.8732,-1.4790,0.3918,851.81,-627.99,1360.23
16470,-3.8734,-1.4088,0.3182,-1304.44,-1831.05,-1624.27
16480,-3.8735,-1.3203,0.2534,-320.07,747.19,891.24
16490,-3.8737,-1.2244,0.2090,-991.94,450.50,922.36
16500,-3.8738,-1.1318,0.1755,-710.69,-1236.82,1672.24
16510,-3.8739,-1.0375,0.1418,-866.94,-1517.88,-702.82
16520,-3.8739,-0.9296,0.1139,-788.82,-1830.20,-1952.88
16530,-3.8739,-0.8099,0.0923,1023.68,-1408.08,531.43
16540,-3.8740,-0.6954,0.0641,336.18,-173.46,1375.12
16550,-3.8741,-0.6016,0.0323,-1007.57,217.35,1031.37
16560,-3.8743,-0.5432,0.0074,-991.94,155.03,531.31
16570,-3.8744,-0.5294,-0.0109,-1523.19,967.65,640.62
16580,-3.8745,-0.5723,-0.0127,242.43,-1376.04,1656.19
16590,-3.8746,-0.6857,0.0155,-1241.94,-1610.53,-1187.56
16600,-3.8748,-0.8451,0.0581,242.43,1998.66,-546.88
16610,-3.8749,-0.9998,0.0878,-163.82,-548.58,-328.06
16620,-3.8750,-1.1311,0.0964,39.31,-751.95,-749.88
16630,-3.8439,-1.2422,0.0850,-773.19,357.12,-1312.32
16640,-3.8440,-1.3196,0.0557,1008.06,-1111.82,-796.75
16650,-3.8440,-1.3608,0.0225,-898.19,-862.00,593.81
16660,-3.8441,-1.3829,0.0079,1820.56,-1112.06,1281.25
16670,-3.8442,-1.3979,0.0214,-1007.57,1028.50,281.25
16680,-3.8445,-1.4061,0.0513,1070.56,-1252.75,-1640.62
16690,-3.8446,-1.4089,0.0813,23.68,-1424.62,1031.31
16700,-3.8447,-1.4214,0.1014,-335.69,-1580.93,1187.62
16710,-3.8448,-1.4492,0.1025,-1929.44,997.19,-1062.32
16720,-3.8448,-1.4736,0.0839,-1491.94,1137.76,1547.06
16730,-3.8448,-1.4725,0.0569,-616.94,-1252.93,234.50
16740,-3.8450,-1.4414,0.0314,-476.32,-706.05,-1124.94
16750,-3.8450,-1.3821,0.0110,-491.94,28.38,1921.94
16760,-3.8450,-1.2961,-0.0001,-898.19,1419.13,1921.88
16770,-3.8450,-1.2025,0.0106,-1898.19,-2.56,-890.69
16780,-3.8448,-1.1305,0.0460,-1913.82,1372.62,1156.25
16790,-3.8447,-1.0914,0.0924,-695.07,1903.99,109.44
16800,-3.8446,-1.0764,0.1349,304.93,-158.39,390.75
16810,-3.8445,-1.0774,0.1597,-1773.19,1279.11,1593.99
16820,-3.8444,-1.0958,0.1718,-1898.19,450.99,-1077.82
16830,-3.8441,-1.1404,0.1849,-257.57,1997.80,109.68
16840,-3.8440,-1.1993,0.1967,-1960.69,-314.76,1609.68
16850,-3.8750,-1.2462,0.2048,-1507.57,1185.12,78.49
16860,-3.8749,-1.2660,0.2234,492.43,-1768.07,-62.13
16870,-3.8745,-1.2565,0.2668,1961.18,606.87,766.05
16880,-3.8743,-1.2274,0.3273,-820.07,-1830.63,1703.61
16890,-3.8740,-1.1904,0.3776,-1101.32,1903.81,-1233.76
16900,-3.8737,-1.1533,0.4097,-366.94,341.37,1110.11
16910,-3.8733,-1.1187,0.4423,383.06,450.87,1563.29
16920,-3.8729,-1.0905,0.4813,820.56,622.80,-827.27
16930,-3.8724,-1.0679,0.5192,429.93,1622.86,1172.79
16940,-3.8721,-1.0420,0.5551,-679.44,-1533.39,-952.15
16950,-3.8717,-1.0104,0.5850,-1366.94,-939.58,-545.84
16960,-3.8713,-0.9689,0.6036,-1320.07,-1111.39,1407.35
16970,-3.8711,-0.9244,0.6050,-7.57,1279.30,188.66
16980,-3.8710,-0.9044,0.5842,1679.93,1451.29,188.66
16990,-3.8710,-0.9097,0.5651,242.43,-1204.90,-436.40
17000,-3.8708,-0.9089,0.5652,-429.44,341.92,-1139.53
17010,-3.8707,-0.8912,0.5541,-335.69,357.54,1579.22
17020,-3.8706,-0.8616,0.5287,1929.93,-1064.27,-1998.96
17030,-3.8704,-0.8015,0.5496,1726.81,-314.21,-1749.02
17040,-3.8700,-0.6824,0.6481,1414.31,-1642.21,782.29
17050,-3.8698,-0.4932,0.7794,664.31,-1032.59,-1108.15
17060,-3.8695,-0.2484,0.8783,883.06,-219.73,-982.91
17070,-3.8693,0.0096,0.9078,211.18,437.01,345.46
17080,-3.8693,0.2333,0.8674,1242.43,203.12,-982.60
17090,-3.8693,0.4027,0.7734,1867.43,-968.32,-1123.35
17100,-3.8694,0.5122,0.6580,-445.07,-999.27,-45.41
17110,-3.8695,0.5554,0.5651,1570.56,219.73,-592.47
17120,-3.8696,0.5312,0.5095,-898.19,329.16,1735.47
17130,-3.8699,0.4464,0.4777,8.06,1219.79,-670.90
17140,-3.8700,0.3287,0.4584,1148.68,1141.48,797.79
17150,-3.8702,0.2053,0.4536,-1913.82,-1327.51,-1327.27
17160,-3.8704,0.0699,0.4642,-1710.69,-1937.13,1657.10
17170,-3.8705,-0.0919,0.4882,961.18,-578.00,-1608.52
17180,-3.8705,-0.2706,0.5343,242.43,-1500.18,1500.92
17190,-3.8705,-0.4519,0.6039,1367.43,405.70,-1905.21
17200,-3.8705,-0.6310,0.6838,-1835.69,1311.58,-1561.34
17210,-3.8705,-0.8008,0.7509,-757.57,-454.41,1423.16
17220,-3.8706,-0.9453,0.7793,1508.06,123.41,-1514.16
17230,-3.8707,-1.0439,0.7578,-991.94,-236.27,1095.21
17240,-3.8710,-1.0898,0.6914,-1616.94,1013.55,1110.84
17250,-3.8713,-1.0857,0.6033,508.06,513.49,-858.03
17260,-3.8716,-1.0327,0.5251,1039.31,1232.24,423.03
17270,-3.8719,-0.9435,0.4728,-179.44,-767.70,1500.98
17280,-3.8723,-0.8518,0.4447,-757.57,529.36,-1030.33
17290,-3.8726,-0.7866,0.4254,-1023.19,935.79,1516.48
17300,-3.8728,-0.7548,0.3929,-679.44,-1532.84,1375.79
17310,-3.8730,-0.7565,0.3665,-601.32,-1689.03,-186.77
17320,-3.8730,-0.7847,0.3823,-820.07,-1079.65,672.55
17330,-3.8732,-0.8328,0.4283,-429.44,951.54,1906.98
17340,-3.8733,-0.9006,0.4692,1414.31,-1157.90,-1905.46
17350,-3.8734,-0.9712,0.4879,726.81,76.35,938.42
17360,-3.8737,-1.0159,0.4744,-304.44,-1533.20,1969.67
17370,-3.8739,-1.0182,0.4200,1976.81,732.36,1157.17
17380,-3.8743,-0.9841,0.3320,1679.93,1779.24,-280.46
17390,-3.8745,-0.9454,0.2396,-1960.69,-1486.33,-843.14
17400,-3.8748,-0.9363,0.1628,-1007.57,-1314.39,-15.20
17410,-3.8749,-0.9642,0.1073,164.31,857.54,-1280.94
17420,-3.8750,-1.0155,0.1082,586.18,1748.11,-406.07
17430,-3.8750,-1.0883,0.1841,-1976.32,1857.36,1047.06
17440,-3.8439,-1.1897,0.3005,711.18,-424.01,-1687.19
17450,-3.8440,-1.3138,0.3960,-273.19,-1518.01,-921.33
17460,-3.8441,-1.4589,0.4192,-163.82,-1299.50,1969.48
17470,-3.8444,-1.6239,0.3600,1273.68,1669.01,-1717.96
17480,-3.8446,-1.7587,0.2543,148.68,-1909.42,844.42
17490,-3.8450,-1.7904,0.1482,-1101.32,559.02,-1187.01
17500,-3.8452,-1.7183,0.0580,-1163.82,-1019.17,703.37
17510,-3.8456,-1.6204,-0.0233,70.56,-565.86,-812.44
17520,-3.8457,-1.5638,-0.0940,601.81,1028.08,390.56
17530,-3.8458,-1.5542,-0.1400,-163.82,-18.74,1624.76
17540,-3.8458,-1.5497,-0.1462,1070.56,-1909.30,-1937.81
17550,-3.8457,-1.5018,-0.1082,1648.68,1293.82,734.07
17560,-3.8456,-1.4180,-0.0381,-226.32,-1831.12,1390.38
17570,-3.8455,-1.3486,0.0459,-1491.94,-862.18,-406.37
17580,-3.8452,-1.3203,0.1311,-616.94,1887.94,-1671.81
17590,-3.8451,-1.3221,0.1935,-991.94,794.25,-15.38
17600,-3.8450,-1.3291,0.2096,-1226.32,778.63,-374.63
17610,-3.8448,-1.3258,0.1902,1883.06,-1158.87,1422.24
17620,-3.8448,-1.3156,0.1594,-1695.07,356.75,1703.49
17630,-3.8448,-1.3099,0.1359,-382.57,419.25,1281.56
17640,-3.8448,-1.3124,0.1309,336.18,1403.69,890.87
17650,-3.8448,-1.3173,0.1455,23.68,763.06,1359.62
17660,-3.8448,-1.3191,0.1793,-601.32,-1362.00,-468.51
17670,-3.8447,-1.3186,0.2211,-835.69,-1033.87,-874.69
17680,-3.8445,-1.3232,0.2433,-773.19,309.88,406.68
17690,-3.8442,-1.3339,0.2445,-1366.94,-846.37,1719.18
17700,-3.8750,-1.3356,0.2670,1273.68,-690.12,547.30
17710,-3.8745,-1.3077,0.3525,1054.93,-1815.12,-921.39
17720,-3.8739,-1.2440,0.4999,617.43,1138.06,-1514.95
17730,-3.8733,-1.1573,0.6597,773.68,-2.44,1266.54
17740,-3.8727,-1.0498,0.7977,-132.57,450.81,798.16
17750,-3.8721,-0.9194,0.9030,1633.06,-1877.08,-1873.47
17760,-3.8713,-0.7904,0.9794,-1679.44,-408.08,1345.46
17770,-3.8706,-0.6759,1.0543,-1163.82,1373.41,-1482.48
17780,-3.8699,-0.5605,1.1255,1492.43,-1032.59,-1247.99
17790,-3.8693,-0.4349,1.1614,258.06,77.03,1814.70
17800,-3.8689,-0.3132,1.1432,336.18,671.02,-1200.87
17810,-3.8687,-0.2278,1.0709,-85.69,-1656.92,-935.30
17820,-3.8685,-0.1963,0.9717,-1148.19,1093.26,-44.80
17830,-3.8684,-0.2145,0.8724,-1116.94,390.20,1626.89
17840,-3.8684,-0.2594,0.7863,554.93,-312.93,923.52
17850,-3.8684,-0.2944,0.7465,-1195.07,655.70,1032.78
17860,-3.8684,-0.2886,0.7759,-1679.44,-438.11,-982.97
17870,-3.8683,-0.2095,0.8578,-929.44,-672.49,-1889.16
17880,-3.8682,-0.0405,0.9542,1195.56,1812.07,1126.65
17890,-3.8682,0.1892,1.0194,-1179.44,-1843.87,1486.21
17900,-3.8683,0.4193,1.0225,226.81,-1515.26,-1998.05
17910,-3.8685,0.5980,0.9695,1679.93,-1124.21,-326.17
17920,-3.8688,0.6898,0.8824,554.93,94.91,-1466.86
17930,-3.8691,0.6630,0.7837,304.93,954.47,-1107.67
17940,-3.8695,0.5287,0.6963,867.43,313.78,-1998.47
17950,-3.8699,0.3446,0.6343,-320.07,1125.98,1048.22
17960,-3.8702,0.1428,0.5878,117.43,1188.17,954.35
17970,-3.8706,-0.0736,0.5540,-1710.69,-765.38,-1389.53
17980,-3.8708,-0.3032,0.5544,-1413.82,-1078.31,-952.09
17990,-3.8710,-0.5365,0.5952,1195.56,-1016.24,1547.91
18000,-3.8711,-0.7534,0.6571,-663.82,202.03,438.66
18010,-3.8713,-0.9346,0.7062,-429.44,123.47,-1498.72
18020,-3.8716,-1.0568,0.7064,383.06,-1595.58,-967.41
18030,-3.8718,-1.0950,0.6486,742.43,-1564.58,-1889.28
18040,-3.8722,-1.0535,0.5573,-148.19,-970.95,-248.78
18050,-3.8726,-0.9686,0.4642,1164.31,-658.33,-92.71
18060,-3.8729,-0.8773,0.3756,23.68,-564.39,-1280.40
18070,-3.8733,-0.8212,0.2849,-288.82,91.98,1906.98
18080,-3.8735,-0.8268,0.2291,-1101.32,482.73,328.67
18090,-3.8738,-0.8745,0.2311,-1820.07,1342.10,1469.18
18100,-3.8740,-0.9303,0.2682,70.56,1592.04,-624.57
18110,-3.8741,-1.0049,0.3469,929.93,-1658.08,1078.61
18120,-3.8744,-1.1508,0.4612,-616.94,419.86,1922.55
18130,-3.8746,-1.3610,0.5551,711.18,-955.38,-1546.02
18140,-3.8749,-1.5442,0.5660,1804.93,-940.19,-1952.09
18150,-3.8440,-1.6301,0.4606,-1648.19,465.70,-1139.53
18160,-3.8444,-1.6241,0.2839,-648.19,-1034.48,1797.73
18170,-3.8447,-1.5653,0.1244,117.43,356.20,1109.92
18180,-3.8451,-1.4897,0.0287,-351.32,-65.61,1922.06
18190,-3.8453,-1.4318,0.0094,1320.56,-315.43,1187.50
18200,-3.8456,-1.4292,0.0522,742.43,1215.94,-1718.75
18210,-3.8458,-1.4979,0.1189,1070.56,-1299.68,-15.56
18220,-3.8459,-1.6116,0.1704,273.68,-768.55,1593.93
18230,-3.8462,-1.7214,0.1710,1726.81,1824.95,-1859.07
18240,-3.8464,-1.7854,0.1082,-335.69,1902.83,-1562.19
18250,-3.8466,-1.7827,0.0052,-523.19,1855.83,422.06
18260,-3.8467,-1.7096,-0.0979,-179.44,683.96,718.75
18270,-3.8468,-1.5760,-0.1678,1179.93,-518.98,-890.87
18280,-3.8468,-1.4075,-0.1915,-1726.32,-1471.86,-687.87
18290,-3.8467,-1.2411,-0.1659,-148.19,-502.81,1671.45
18300,-3.8466,-1.1091,-0.0963,1148.68,-1221.19,-1547.24
18310,-3.8463,-1.0298,-0.0021,-1960.69,-314.70,1234.13
18320,-3.8461,-1.0100,0.0988,195.56,-252.01,828.06
18330,-3.8459,-1.0464,0.1832,-1273.19,654.24,-327.94
18340,-3.8457,-1.1234,0.2288,-1929.44,-533.33,1359.68
18350,-3.8456,-1.2130,0.2319,211.18,1294.68,-1796.45
18360,-3.8455,-1.2793,0.2035,742.43,1700.74,-1296.45
18370,-3.8453,-1.2994,0.1700,258.06,-1940.00,-280.88
18380,-3.8451,-1.2861,0.1613,1679.93,1778.69,1672.18
18390,-3.8448,-1.2677,0.1970,-616.94,653.69,1156.56
18400,-3.8446,-1.2562,0.2894,1742.43,1231.87,-874.63
18410,-3.8442,-1.2496,0.4135,-788.82,1060.00,-780.70
18420,-3.8750,-1.2358,0.5249,54.93,935.06,485.17
18430,-3.8746,-1.2068,0.6002,1820.56,-799.32,1704.10
18440,-3.8743,-1.1813,0.6327,1539.31,841.37,1969.91
18450,-3.8739,-1.1844,0.6276,804.93,997.68,1501.22
18460,-3.8735,-1.2175,0.6001,398.68,341.43,1094.97
18470,-3.8732,-1.2542,0.5870,164.31,825.74,1188.66
18480,-3.8728,-1.2903,0.6038,-523.19,-846.25,891.72
18490,-3.8724,-1.3329,0.6417,-1148.19,1294.31,1048.03
18500,-3.8719,-1.3489,0.7192,1398.68,-1846.37,94.97
18510,-3.8715,-1.3182,0.8212,-648.19,75.44,1095.15
18520,-3.8710,-1.2537,0.8890,-726.32,1122.38,-1998.41
18530,-3.8705,-1.1477,0.9259,-460.69,1810.00,-1357.67
18540,-3.8700,-0.9835,0.9685,1101.81,-1471.01,1470.52
18550,-3.8696,-0.7699,1.0009,-1882.57,-17.58,314.33
18560,-3.8695,-0.5299,0.9938,1461.18,123.47,-341.80
18570,-3.8693,-0.2953,0.9492,179.93,-782.29,814.39
18580,-3.8691,-0.1016,0.8959,-1788.82,1515.01,658.08
18590,-3.8690,0.0422,0.8702,-991.94,-1312.74,267.33
18600,-3.8690,0.1526,0.8677,1414.31,-609.31,-763.98
18610,-3.8689,0.2361,0.8466,-460.69,-937.26,126.65
18620,-3.8690,0.2854,0.7961,-1773.19,359.80,-1326.48
18630,-3.8691,0.3062,0.7467,539.31,1906.80,-1154.72
18640,-3.8694,0.3143,0.7115,-804.44,-421.33,-29.85
18650,-3.8696,0.3114,0.6621,242.43,-921.26,1798.22
18660,-3.8700,0.2974,0.5754,-132.57,750.55,1688.78
18670,-3.8704,0.2717,0.4789,-1929.44,1656.80,1985.47
18680,-3.8706,0.2148,0.4259,-1210.69,1297.36,32.17
18690,-3.8710,0.1139,0.4336,-491.94,-1484.01,-14.83
18700,-3.8711,-0.0176,0.4694,-1413.82,-499.82,1657.04
18710,-3.8712,-0.1667,0.5026,1758.06,93.69,969.67
18720,-3.8713,-0.3326,0.5381,-1335.69,343.38,-1655.27
18730,-3.8713,-0.5065,0.5850,1429.93,889.95,1751.04
18740,-3.8713,-0.6609,0.6324,-820.07,-1110.41,-1467.65
18750,-3.8713,-0.7555,0.6664,-585.69,967.41,-748.78
18760,-3.8713,-0.7686,0.6780,-695.07,1310.97,-1951.84
18770,-3.8715,-0.7125,0.6696,1633.06,-1204.65,-1826.84
18780,-3.8716,-0.6246,0.6581,804.93,1717.35,345.03
18790,-3.8718,-0.5553,0.6610,54.93,248.78,1923.16
18800,-3.8719,-0.5427,0.6879,929.93,623.90,188.78
18810,-3.8722,-0.6038,0.7419,-1460.69,61.40,-498.66
18820,-3.8723,-0.7327,0.8119,-1273.19,-1016.85,-1217.35
18830,-3.8724,-0.8882,0.8768,-1773.19,-63.96,829.65
18840,-3.8727,-1.0211,0.9115,-1679.44,248.23,814.21
18850,-3.8730,-1.1157,0.8926,1304.93,685.49,1751.77
18860,-3.8734,-1.1887,0.8274,1195.56,-1736.57,267.33
18870,-3.8739,-1.2659,0.7534,-148.19,1919.49,-1623.41
18880,-3.8743,-1.3752,0.7111,1976.81,450.62,1423.34
18890,-3.8746,-1.5316,0.7090,-23.19,-971.50,1735.72
18900,-3.8750,-1.6908,0.7190,-38.82,-1237.43,-498.66
18910,-3.8440,-1.7826,0.7137,-413.82,43.52,-1670.47
18920,-3.8442,-1.8010,0.6838,-163.82,-628.54,720.09
18930,-3.8446,-1.8022,0.6223,1476.81,-456.67,1970.03
18940,-3.8450,-1.8241,0.5266,1320.56,-331.67,-592.59
18950,-3.8452,-1.8539,0.4083,-1476.32,-581.73,-1577.15
18960,-3.8455,-1.8577,0.2925,-1288.82,277.59,-671.08
18970,-3.8456,-1.8140,0.1976,-1773.19,1449.46,-1874.45
18980,-3.8457,-1.7247,0.1261,-179.44,1308.90,-952.76
18990,-3.8457,-1.6068,0.0814,-757.57,152.83,-1624.76
19000,-3.8457,-1.4819,0.0634,-1663.82,-1565.67,-687.38
19010,-3.8456,-1.3605,0.0652,-1679.44,122.07,953.25
19020,-3.8456,-1.2468,0.0776,1867.43,356.69,-781.13
19030,-3.8455,-1.1492,0.0914,414.31,1950.68,1922.00
19040,-3.8453,-1.0739,0.0995,914.31,-283.51,453.25
19050,-3.8453,-1.0367,0.0980,-1445.07,747.86,-1484.19
19060,-3.8452,-1.0519,0.0980,-695.07,560.42,515.81
19070,-3.8452,-1.1050,0.1100,1367.43,560.42,-1577.94
19080,-3.8452,-1.1694,0.1265,-1429.44,-1908.45,-609.19
19090,-3.8452,-1.2285,0.1377,-1679.44,200.81,-921.63
19100,-3.8452,-1.2754,0.1454,-1241.94,1638.18,-1687.26
19110,-3.8452,-1.3079,0.1484,758.06,-1377.50,-1843.51
19120,-3.8452,-1.3105,0.1458,601.81,-986.94,-1109.13
19130,-3.8451,-1.2734,0.1486,258.06,-1330.69,375.24
19140,-3.8451,-1.2179,0.1610,1008.06,-971.25,-1702.88
19150,-3.8450,-1.1737,0.1732,117.43,622.62,359.68
19160,-3.8450,-1.1566,0.1763,1773.68,-1814.82,-1374.69
19170,-3.8448,-1.1676,0.1791,-38.82,-1424.19,1547.18
19180,-3.8447,-1.2010,0.1991,-1445.07,-1064.82,1578.43
19190,-3.8446,-1.2472,0.2406,-1726.32,1497.62,-718.38
19200,-3.8444,-1.2889,0.3027,367.43,-1189.94,-655.82
19210,-3.8440,-1.3088,0.3715,-976.32,-1236.94,1297.42
19220,-3.8749,-1.2887,0.4222,476.81,-440.06,156.92
19230,-3.8746,-1.2200,0.4491,-945.07,-1940.06,-389.83
19240,-3.8743,-1.1146,0.4580,-148.19,1497.56,-530.40
19250,-3.8739,-1.0005,0.4641,1336.18,-1361.57,-61.65
19260,-3.8734,-0.9041,0.4897,-54.44,-580.14,1047.73
19270,-3.8730,-0.8436,0.5437,289.31,-1298.65,-1530.33
19280,-3.8726,-0.8191,0.6144,23.68,1607.73,251.04
19290,-3.8722,-0.8114,0.6750,-835.69,-1345.40,-1498.84
19300,-3.8717,-0.8009,0.7240,148.68,-1579.71,766.91
19310,-3.8713,-0.7777,0.7706,1492.43,685.91,-1467.35
19320,-3.8710,-0.7325,0.8009,461.18,-1345.28,-107.91
19330,-3.8705,-0.6481,0.8187,-1757.57,-1470.21,1142.15
19340,-3.8701,-0.5143,0.8425,1054.93,811.22,1048.46
19350,-3.8699,-0.3412,0.8624,-1820.07,-141.66,1939.09
19360,-3.8698,-0.1582,0.8518,336.18,-1594.42,-388.98
19370,-3.8696,0.0000,0.8131,-241.94,1046.51,-920.23
19380,-3.8695,0.1172,0.7738,8.06,78.12,1392.21
19390,-3.8695,0.1990,0.7460,-991.94,-952.94,-1232.91
19400,-3.8695,0.2612,0.7223,1476.81,-515.26,-1201.72
19410,-3.8695,0.3143,0.6946,1445.56,453.61,985.78
19420,-3.8696,0.3457,0.6606,242.43,906.86,1423.22
19430,-3.8698,0.3372,0.6224,258.06,563.17,610.66
19440,-3.8700,0.2991,0.5825,-835.69,-327.51,-1045.72
19450,-3.8701,0.2495,0.5449,-1710.69,-1436.95,797.97
19460,-3.8704,0.1793,0.5137,-54.44,1750.43,-1483.34
19470,-3.8705,0.0763,0.4985,-1038.82,1750.31,641.60
19480,-3.8707,-0.0601,0.5114,1773.68,-187.38,-733.46
19490,-3.8708,-0.2283,0.5386,320.56,1468.63,-1811.52
19500,-3.8710,-0.4095,0.5602,-1210.69,952.64,1860.41
19510,-3.8711,-0.5699,0.5759,-413.82,-282.10,-1905.21
19520,-3.8712,-0.6906,0.5741,-945.07,1733.22,1360.47
19530,-3.8715,-0.7614,0.5409,-382.57,1498.60,-530.15
19540,-3.8716,-0.7651,0.4937,-1445.07,1248.47,1219.79
19550,-3.8718,-0.7026,0.4579,-1929.44,-798.40,-1389.71
19560,-3.8719,-0.6166,0.4546,-1929.44,-1376.40,94.60
19570,-3.8722,-0.5756,0.4989,1086.18,-1798.10,-1842.90
19580,-3.8723,-0.6189,0.5782,-1663.82,-126.16,63.42
19590,-3.8726,-0.7396,0.6569,789.31,-1969.97,1235.47
19600,-3.8728,-0.9139,0.7100,1336.18,92.29,1235.66
19610,-3.8732,-1.1229,0.7313,-976.32,-1111.21,-826.78
19620,-3.8735,-1.3342,0.7058,273.68,1622.80,-1561.10
19630,-3.8739,-1.4771,0.6167,1226.81,-1643.25,345.09
19640,-3.8744,-1.4956,0.4995,-1054.44,-1049.80,-608.22
19650,-3.8746,-1.4373,0.4257,570.56,-49.80,766.54
19660,-3.8749,-1.4093,0.4230,39.31,-1502.81,141.42
19670,-3.8439,-1.4629,0.4688,-382.57,-1846.56,1141.42
19680,-3.8441,-1.5859,0.5225,758.06,12.76,-1045.96
19690,-3.8442,-1.7332,0.5507,1008.06,-1112.49,485.35
19700,-3.8445,-1.8405,0.5460,-1835.69,-1503.42,1501.04
19710,-3.8447,-1.8698,0.5087,429.93,1902.65,1922.91
19720,-3.8450,-1.8320,0.4462,679.93,1121.34,-1327.15
19730,-3.8451,-1.7583,0.3754,1508.06,1121.40,641.48
19740,-3.8453,-1.6694,0.3051,-1054.44,59.02,-358.64
19750,-3.8455,-1.5758,0.2328,-1679.44,-940.80,-608.83
19760,-3.8456,-1.4783,0.1583,-1695.07,1809.39,-108.95
19770,-3.8456,-1.3779,0.0931,-1210.69,278.32,1484.68
19780,-3.8456,-1.2795,0.0476,-366.94,-65.25,93.87
19790,-3.8457,-1.1888,0.0210,226.81,-1893.13,-421.81
19800,-3.8456,-1.1141,0.0132,-163.82,-1299.26,140.62
19810,-3.8456,-1.0618,0.0229,1398.68,1700.93,1750.00
19820,-3.8455,-1.0331,0.0448,101.81,-1048.95,156.25
19830,-3.8455,-1.0260,0.0739,-226.32,1747.92,-984.31
19840,-3.8453,-1.0344,0.1031,679.93,1466.74,-1953.00
19850,-3.8452,-1.0554,0.1262,-398.19,1216.67,828.31
19860,-3.8452,-1.0873,0.1421,914.31,169.80,-718.51
19870,-3.8451,-1.1233,0.1541,836.18,-1799.01,1750.24
19880,-3.8450,-1.1605,0.1677,226.81,-267.82,578.37
19890,-3.8448,-1.1981,0.1924,-538.82,1482.06,453.43
19900,-3.8447,-1.2349,0.2371,-1351.32,638.24,1594.12
19910,-3.8446,-1.2690,0.3020,1945.56,-1643.07,-858.95
19920,-3.8444,-1.2872,0.3630,1570.56,-1330.63,500.55
19930,-3.8442,-1.2704,0.3873,-757.57,-1518.19,1688.17
19940,-3.8441,-1.2252,0.3728,1398.68,1591.25,-499.27
19950,-3.8439,-1.1841,0.3589,-820.07,-268.07,-1014.95
19960,-3.8748,-1.1715,0.3871,445.56,1950.81,594.42
19970,-3.8745,-1.1815,0.4392,-1945.07,1560.18,-421.14
19980,-3.8741,-1.1827,0.4744,773.68,232.06,-827.27
19990,-3.8738,-1.1530,0.4868,617.43,732.06,-1655.33
20000,-3.8735,-1.1016,0.4890,429.93,-1674.13,-530.33
20010,-3.8733,-1.0521,0.4899,-991.94,-1392.82,-1374.08
20020,-3.8730,-1.0150,0.4933,1336.18,-1283.33,1157.17
20030,-3.8728,-0.9902,0.4944,-1913.82,-845.76,125.92
20040,-3.8726,-0.9691,0.4912,1258.06,-705.08,485.29
20050,-3.8723,-0.9393,0.5005,-38.82,-1111.33,-1733.46
20060,-3.8719,-0.8939,0.5408,-226.32,76.23,313.48
20070,-3.8717,-0.8243,0.6108,1586.18,1232.60,-1670.84
20080,-3.8713,-0.7141,0.6891,-1507.57,-1798.52,923.03
20090,-3.8711,-0.5603,0.7378,601.81,217.35,-733.03
20100,-3.8708,-0.3903,0.7277,289.31,-1547.97,-436.10
20110,-3.8706,-0.2401,0.6646,-1945.07,1155.46,1392.03
20120,-3.8705,-0.1211,0.5790,1273.68,1077.64,1735.66
20130,-3.8704,-0.0236,0.5120,508.06,-1875.24,1157.35
20140,-3.8704,0.0505,0.4816,992.43,1546.81,-858.40
20150,-3.8704,0.0885,0.4746,-1523.19,1640.69,-452.21
20160,-3.8704,0.0930,0.4849,-663.82,750.12,-545.96
20170,-3.8704,0.0765,0.5070,-85.69,-1937.38,-624.08
20180,-3.8704,0.0499,0.5243,1804.93,890.75,-1108.40
20190,-3.8704,0.0220,0.5360,-1601.32,-890.56,1797.85
20200,-3.8705,-0.0046,0.5342,-1179.44,609.38,-61.46
20210,-3.8705,-0.0214,0.4987,-585.69,390.56,1360.41
20220,-3.8706,-0.0259,0.4331,1273.68,-156.31,-1499.08
20230,-3.8707,-0.0437,0.3693,695.56,-546.94,-467.96
20240,-3.8707,-0.0962,0.3470,-1585.69,-718.87,656.92
20250,-3.8708,-0.1875,0.3876,-304.44,437.26,-1405.58
20260,-3.8708,-0.3152,0.4648,8.06,1624.63,1344.48
20270,-3.8708,-0.4573,0.5295,-335.69,-485.05,344.60
20280,-3.8710,-0.5718,0.5522,1476.81,-204.04,-1327.15
20290,-3.8711,-0.6240,0.5436,-1179.44,-1298.03,-623.96
20300,-3.8712,-0.6066,0.5183,133.06,1592.53,-1952.09
20310,-3.8715,-0.5299,0.4813,-1632.57,-1641.85,-858.40
20320,-3.8717,-0.4222,0.4434,179.93,1623.96,-249.08
20330,-3.8718,-0.3334,0.4265,1961.18,764.77,1125.85
20340,-3.8719,-0.3029,0.4548,1336.18,-1391.30,625.79
20350,-3.8721,-0.3357,0.5292,1242.43,-1766.24,1891.48
20360,-3.8722,-0.4308,0.6381,1039.31,-250.67,-1202.15
20370,-3.8723,-0.6096,0.7584,867.43,1686.65,1719.97
20380,-3.8726,-0.8693,0.8555,1976.81,1092.53,-1670.41
20390,-3.8729,-1.1576,0.8893,742.43,1513.92,-29.60
20400,-3.8733,-1.4133,0.8450,-163.82,1841.43,-1154.54
20410,-3.8737,-1.5928,0.7531,-898.19,169.07,454.77
20420,-3.8741,-1.6702,0.6448,133.06,403.14,-1967.29
20430,-3.8745,-1.6445,0.5488,-1773.19,-1456.42,1360.60
20440,-3.8749,-1.5553,0.4852,1508.06,-1737.61,-811.46
20450,-3.8439,-1.4548,0.4470,929.93,-1878.05,-1092.83
20460,-3.8440,-1.3921,0.4296,1789.31,1231.51,250.85
20470,-3.8442,-1.4094,0.4318,1820.56,-1002.75,-1046.08
20480,-3.8444,-1.5049,0.4407,-398.19,-721.56,-1452.33
20490,-3.8445,-1.6433,0.4414,-616.94,418.88,-1280.40
20500,-3.8446,-1.7743,0.4286,1664.31,512.39,-764.77
20510,-3.8446,-1.8380,0.3962,898.68,-1128.48,250.79
20520,-3.8447,-1.8055,0.3405,742.43,-1269.23,1422.61
20530,-3.8448,-1.6930,0.2673,898.68,-409.79,-1811.89
20540,-3.8450,-1.5375,0.1887,-695.07,-1768.98,-1046.39
20550,-3.8451,-1.3738,0.1163,-788.82,168.82,-124.63
20560,-3.8451,-1.2383,0.0570,164.31,-1096.44,953.31
20570,-3.8452,-1.1560,0.0128,1508.06,-689.94,-1374.94
20580,-3.8452,-1.1234,-0.0135,39.31,1653.99,1062.50
20590,-3.8452,-1.1200,-0.0189,211.18,-1720.95,656.19
20600,-3.8452,-1.1262,-0.0040,648.68,1591.55,1718.69
20610,-3.8452,-1.1353,0.0271,-148.19,-502.26,-281.31
20620,-3.8451,-1.1488,0.0662,-1304.44,-517.88,-1890.62
20630,-3.8450,-1.1635,0.1012,961.18,482.12,1140.75
20640,-3.8448,-1.1782,0.1271,-913.82,966.43,843.93
20650,-3.8447,-1.2019,0.1499,1195.56,278.93,1047.12
20660,-3.8446,-1.2334,0.1814,-1835.69,-799.26,1406.49
20670,-3.8445,-1.2589,0.2220,-1866.94,-768.07,1328.43
20680,-3.8444,-1.2761,0.2524,-1132.57,435.00,203.55
20690,-3.8444,-1.3002,0.2551,664.31,325.62,-1780.76
20700,-3.8442,-1.3394,0.2441,1586.18,669.31,156.74
20710,-3.8442,-1.3766,0.2482,570.56,-737.00,-1405.82
20720,-3.8441,-1.3757,0.2700,-195.07,-221.50,1859.80
20730,-3.8440,-1.3229,0.2976,-85.69,-1424.62,-1421.39
20740,-3.8750,-1.2495,0.3254,-1320.07,-1893.25,1031.80
20750,-3.8748,-1.1949,0.3466,70.56,1669.43,250.61
20760,-3.8746,-1.1748,0.3610,-945.07,372.62,-155.58
20770,-3.8744,-1.1780,0.3755,1633.06,-1783.57,-296.20
20780,-3.8740,-1.1687,0.3911,1226.81,75.81,63.23
20790,-3.8738,-1.1210,0.4146,-1585.69,-1924.19,1438.23
20800,-3.8735,-1.0507,0.4481,523.68,1075.93,-1124.21
20810,-3.8733,-0.9839,0.4805,1523.68,1372.92,-702.27
20820,-3.8730,-0.9240,0.4967,-1929.44,1513.67,-1514.71
20830,-3.8728,-0.8673,0.4775,1742.43,-408.08,782.17
20840,-3.8727,-0.8218,0.4331,992.43,1138.92,-233.46
20850,-3.8723,-0.7828,0.4117,-1179.44,-548.52,985.17
20860,-3.8721,-0.7162,0.4436,-195.07,717.16,-108.58
20870,-3.8717,-0.5991,0.5160,336.18,795.47,-1030.40
20880,-3.8713,-0.4415,0.6016,-679.44,-1938.72,1188.48
20890,-3.8711,-0.2764,0.6768,-507.57,1014.71,1563.66
20900,-3.8710,-0.1549,0.7106,633.06,-1359.92,-811.22
20910,-3.8708,-0.0989,0.6860,179.93,-1031.56,-748.66
20920,-3.8707,-0.0781,0.6274,-648.19,-172.12,-748.72
20930,-3.8706,-0.0669,0.5723,-1991.94,327.94,-1780.03
20940,-3.8706,-0.0687,0.5502,-554.44,1265.44,-14.53
20950,-3.8705,-0.0728,0.5679,-788.82,-1562.68,1719.79
20960,-3.8705,-0.0450,0.5978,-1304.44,702.94,-608.28
20970,-3.8704,0.0251,0.6161,-1757.57,531.13,454.28
20980,-3.8704,0.1141,0.6307,-773.19,-1140.62,1266.78
20990,-3.8704,0.1936,0.6488,-1382.57,734.56,1860.60
21000,-3.8704,0.2496,0.6501,789.31,-952.76,1407.47
21010,-3.8705,0.2789,0.6179,-38.82,-780.82,-170.65
21020,-3.8705,0.2690,0.5635,-288.82,-905.76,1376.16
21030,-3.8706,0.2043,0.5215,-1554.44,125.49,-1545.78
21040,-3.8707,0.0869,0.5264,-1835.69,-1249.63,-217.77
21050,-3.8707,-0.0765,0.5739,-866.94,-624.88,719.73
21060,-3.8708,-0.2792,0.6328,-1788.82,1468.57,235.47
21070,-3.8711,-0.4983,0.6766,273.68,1015.08,-983.15
21080,-3.8712,-0.6909,0.6888,226.81,-1375.98,-1842.47
21090,-3.8713,-0.8116,0.6605,-429.44,186.10,1876.34
21100,-3.8715,-0.8270,0.5979,117.43,560.91,1720.03
21110,-3.8716,-0.7345,0.5266,-1851.32,545.23,1657.41
21120,-3.8717,-0.5787,0.4685,1992.43,-579.59,1813.48
21130,-3.8718,-0.4149,0.4396,1929.93,-16.78,-1311.65
21140,-3.8718,-0.2764,0.4574,-1101.32,280.40,719.60
21150,-3.8719,-0.1885,0.5203,633.06,-1438.05,-483.52
21160,-3.8719,-0.1677,0.5988,-116.94,-1391.05,-1842.77
21170,-3.8719,-0.2301,0.6809,-1460.69,655.88,485.53
21180,-3.8721,-0.3892,0.7828,-1445.07,-828.61,-858.09
21190,-3.8721,-0.6206,0.8950,-1804.44,217.96,907.78
21200,-3.8723,-0.8839,0.9860,570.56,-1423.10,-467.04
21210,-3.8726,-1.1473,1.0315,-1132.57,-1783.02,1970.64
21220,-3.8730,-1.3628,1.0065,1148.68,44.62,-310.49
21230,-3.8735,-1.4730,0.8928,1570.56,841.06,1955.08
21240,-3.8740,-1.4532,0.7104,-538.82,-1706.05,611.08
21250,-3.8745,-1.3535,0.5182,1992.43,-1049.74,-764.28
21260,-3.8748,-1.2762,0.3911,-1241.94,-1658.94,1141.60
21270,-3.8750,-1.2937,0.3688,648.68,-1924.38,250.73
21280,-3.8440,-1.4045,0.4307,-1585.69,-783.81,1469.42
21290,-3.8441,-1.5621,0.5247,226.81,-862.12,1516.42
21300,-3.8442,-1.7206,0.5966,54.93,-831.18,-1186.52
21310,-3.8444,-1.8505,0.6095,-226.32,371.58,-733.22
21320,-3.8445,-1.9264,0.5522,-851.32,-1972.41,1969.91
21330,-3.8446,-1.9268,0.4448,1429.93,-1300.66,63.54
21340,-3.8448,-1.8527,0.3250,1383.06,949.34,-764.77
21350,-3.8450,-1.7260,0.2222,-1132.57,1605.71,-280.64
21360,-3.8450,-1.5759,0.1472,-913.82,449.71,1656.68
21370,-3.8450,-1.4230,0.1056,-1710.69,-1143.74,1328.37
21380,-3.8450,-1.2885,0.0934,1867.43,1528.44,-1265.44
21390,-3.8448,-1.1923,0.1038,-913.82,-33.81,1750.12
21400,-3.8447,-1.1359,0.1359,-601.32,1294.49,1812.68
21410,-3.8446,-1.1223,0.1848,-1382.57,1403.99,-1781.01
21420,-3.8445,-1.1489,0.2378,351.81,-330.32,-1827.82
21430,-3.8444,-1.1962,0.2686,945.56,-1549.13,1109.80
21440,-3.8444,-1.2369,0.2634,-1101.32,-1611.76,-1015.14
21450,-3.8444,-1.2505,0.2362,1679.93,1731.93,-265.14
21460,-3.8444,-1.2413,0.1995,-54.44,-1752.50,-452.70
21470,-3.8444,-1.2206,0.1631,1117.43,1544.43,-1155.88
21480,-3.8444,-1.1907,0.1388,-226.32,888.18,-1296.57
21490,-3.8442,-1.1658,0.1315,-398.19,1778.87,93.99
21500,-3.8442,-1.1639,0.1458,-1210.69,841.43,-1140.38
21510,-3.8441,-1.1927,0.1879,-976.32,-1330.44,-1234.13
21520,-3.8440,-1.2419,0.2516,-663.82,60.12,-530.88
21530,-3.8750,-1.2659,0.3191,1039.31,216.31,109.86
21540,-3.8750,-1.2386,0.3455,1976.81,856.87,-30.64
21550,-3.8748,-1.1954,0.3110,1461.18,231.93,94.42
21560,-3.8746,-1.1700,0.2581,-1007.57,-174.26,1359.92
21570,-3.8745,-1.1642,0.2255,-1757.57,1044.56,-905.76
21580,-3.8743,-1.1661,0.2280,-1007.57,872.68,1469.18
21590,-3.8740,-1.1691,0.2664,-1257.57,1200.81,1016.05
21600,-3.8738,-1.1740,0.3357,-1632.57,-1892.94,1656.74
21610,-3.8735,-1.1770,0.4197,1742.43,-1017.94,-765.01
21620,-3.8732,-1.1478,0.4838,1351.81,1732.06,1203.92
21630,-3.8729,-1.0540,0.5105,1086.18,1935.24,-608.46
21640,-3.8726,-0.9208,0.5051,1101.81,1357.30,1875.98
21650,-3.8722,-0.8088,0.4958,-1851.32,670.04,1391.60
21660,-3.8718,-0.7363,0.5223,476.81,-517.21,-1717.83
21670,-3.8715,-0.6725,0.5819,1758.06,-1126.46,1860.35
21680,-3.8712,-0.5929,0.6405,1929.93,-1501.34,782.35
21690,-3.8712,-0.5063,0.6840,117.43,1998.84,-858.15
21700,-3.8711,-0.4155,0.7194,-804.44,-438.54,1298.16
21710,-3.8710,-0.3091,0.7429,-1179.44,92.90,782.65
21720,-3.8710,-0.2008,0.7278,445.56,-891.24,-1623.60
21730,-3.8710,-0.1252,0.6616,-1695.07,1171.45,-545.47
21740,-3.8707,-0.0840,0.5901,-23.19,702.82,673.16
21750,-3.8706,-0.0397,0.5735,1258.06,-453.31,-45.78
21760,-3.8705,0.0292,0.6155,-1070.07,1421.75,-14.53
21770,-3.8704,0.1135,0.6836,-257.57,-1218.75,751.16
21780,-3.8704,0.2053,0.7484,-1460.69,-499.82,1141.91
21790,-3.8704,0.3060,0.7810,-1710.69,-202.76,1860.78
21800,-3.8704,0.4023,0.7587,-820.07,-30.70,1188.96
21810,-3.8705,0.4587,0.6882,-491.94,1110.11,-670.41
21820,-3.8705,0.4453,0.6077,-1273.19,94.60,1673.22
21830,-3.8706,0.3673,0.5492,1008.06,1782.10,-764.47
21840,-3.8707,0.2485,0.5270,-976.32,-1702.45,-795.84
21850,-3.8708,0.0924,0.5471,-179.44,-546.45,-1405.27
21860,-3.8710,-0.1062,0.6075,-163.82,-1968.63,-1858.34
21870,-3.8711,-0.3254,0.6920,-1585.69,1781.01,-1686.34
21880,-3.8712,-0.5159,0.7621,-1648.19,593.08,-826.78
21890,-3.8712,-0.6301,0.7756,1976.81,1561.46,1.46
21900,-3.8713,-0.6528,0.7213,-648.19,-704.41,438.96
21910,-3.8715,-0.6058,0.6284,445.56,342.47,-1826.72
21920,-3.8715,-0.5286,0.5588,-1538.82,451.90,-655.03
21930,-3.8713,-0.4639,0.5614,351.81,-454.16,-1530.21
21940,-3.8712,-0.4469,0.6409,633.06,-125.92,922.91
21950,-3.8712,-0.4952,0.7601,-1195.07,-1954.04,1751.22
21960,-3.8712,-0.6035,0.8665,617.43,1311.52,610.84
21970,-3.8713,-0.7301,0.9435,-1241.94,-1079.35,642.27
21980,-3.8716,-0.8484,0.9705,-1445.07,779.79,392.46
21990,-3.8719,-0.9662,0.9294,-585.69,232.67,673.77
22000,-3.8724,-1.0554,0.8467,336.18,-1017.52,-310.73
22010,-3.8728,-1.0806,0.7411,914.31,388.55,-1388.98
22020,-3.8732,-1.0511,0.6367,1695.56,-1127.14,-686.10
22030,-3.8734,-1.0048,0.5757,1461.18,1513.55,-1186.28
22040,-3.8737,-1.0026,0.5889,-601.32,1701.11,-108.28
22050,-3.8738,-1.0994,0.6649,-320.07,-611.39,1782.35
22060,-3.8740,-1.2668,0.7668,-710.69,1122.80,-1139.34
22070,-3.8743,-1.4410,0.8589,1851.81,-1830.63,1626.46
22080,-3.8746,-1.5951,0.8977,-445.07,1950.26,-1435.85
22090,-3.8750,-1.7236,0.8479,-163.82,-1081.30,1939.21
22100,-3.8441,-1.8075,0.7161,-616.94,543.46,704.77
22110,-3.8445,-1.8097,0.5430,648.68,-331.67,1110.72
22120,-3.8447,-1.7281,0.3783,367.43,1512.08,1110.41
22130,-3.8448,-1.6036,0.2600,-1195.07,434.08,516.36
22140,-3.8450,-1.4741,0.2035,-1257.57,1293.70,1937.99
22150,-3.8450,-1.3621,0.2003,-679.44,-1940.43,734.74
22160,-3.8450,-1.2815,0.2240,1664.31,1653.56,953.49
22170,-3.8450,-1.2365,0.2496,-23.19,684.94,-1905.82
22180,-3.8450,-1.2192,0.2582,1742.43,-33.69,-1265.20
22190,-3.8450,-1.2092,0.2373,-54.44,1060.06,-1718.26
22200,-3.8450,-1.1891,0.1887,1226.81,-1611.76,1047.30
22210,-3.8451,-1.1646,0.1268,-195.07,169.49,-718.38
22220,-3.8451,-1.1530,0.0715,-1054.44,247.68,1250.24
22230,-3.8452,-1.1698,0.0475,429.93,1169.62,-296.75
22240,-3.8452,-1.2070,0.0676,-1726.32,-1908.57,-859.31
22250,-3.8452,-1.2295,0.1157,1508.06,669.49,-671.75
22260,-3.8451,-1.2212,0.1670,-1366.94,-1174.32,265.81
22270,-3.8451,-1.1984,0.2034,-304.44,1388.18,1781.56
22280,-3.8451,-1.1846,0.2153,-1382.57,-1955.51,-296.51
22290,-3.8450,-1.1917,0.2183,383.06,-424.19,-1718.38
22300,-3.8448,-1.1992,0.2203,-523.19,-49.26,672.24
22310,-3.8448,-1.1771,0.2043,-1491.94,216.37,1703.55
22320,-3.8448,-1.1378,0.1705,1336.18,-1830.44,-1624.63
22330,-3.8447,-1.1091,0.1486,-1632.57,1841.49,390.93
22340,-3.8447,-1.0957,0.1642,-1960.69,-970.95,-93.51
22350,-3.8445,-1.0938,0.2228,-241.94,1029.05,672.18
22360,-3.8444,-1.1060,0.3108,8.06,529.11,-874.57
22370,-3.8441,-1.1257,0.4006,-1554.44,-205.32,-61.95
22380,-3.8750,-1.1395,0.4753,-85.69,-705.38,-749.27
22390,-3.8746,-1.1334,0.5332,-1851.32,857.12,-514.71
22400,-3.8743,-1.0958,0.5698,-1070.07,263.37,-1764.59
22410,-3.8740,-1.0345,0.5828,-257.57,950.93,-1530.15
22420,-3.8738,-0.9791,0.5587,-413.82,-1392.70,501.10
22430,-3.8737,-0.9550,0.4960,-1320.07,-470.70,-1389.59
22440,-3.8734,-0.9443,0.4507,1773.68,-501.89,-186.58
22450,-3.8730,-0.9232,0.4679,-866.94,1701.23,-874.15
22460,-3.8727,-0.8990,0.5308,1836.18,-95.58,-1264.77
22470,-3.8723,-0.8696,0.6123,929.93,-48.65,-280.27
22480,-3.8718,-0.8260,0.6954,695.56,-1611.08,1173.03
22490,-3.8715,-0.7778,0.7677,-1726.32,1029.60,470.09
22500,-3.8712,-0.7241,0.8284,445.56,-1720.28,1673.34
22510,-3.8710,-0.6471,0.8650,-679.44,-1954.59,1939.09
22520,-3.8707,-0.5468,0.8491,1179.93,-1266.91,1001.65
22530,-3.8706,-0.4418,0.7825,-1976.32,702.03,-701.48
22540,-3.8704,-0.3441,0.7075,-538.82,170.96,1548.40
22550,-3.8702,-0.2578,0.6599,-38.82,-1422.61,-1654.91
22560,-3.8701,-0.1796,0.6454,-991.94,483.83,1032.53
22570,-3.8701,-0.0953,0.6572,1023.68,-1375.37,-1436.28
22580,-3.8700,0.0059,0.6835,-195.07,140.38,329.41
22590,-3.8700,0.1189,0.7091,758.06,-515.62,-1233.09
22600,-3.8699,0.2306,0.7253,-773.19,-1234.19,782.59
22610,-3.8699,0.3269,0.7263,1523.68,844.18,1376.40
22620,-3.8700,0.3823,0.7001,1851.81,969.36,-1123.60
22630,-3.8701,0.3566,0.6387,945.56,1610.11,720.09
22640,-3.8704,0.2426,0.5660,1648.68,1750.67,1641.85
22650,-3.8706,0.0785,0.5212,-945.07,453.55,-577.03
22660,-3.8707,-0.1079,0.5035,-1945.07,-1281.13,1063.48
22670,-3.8710,-0.2954,0.4927,-1804.44,468.51,-1483.40
22680,-3.8711,-0.4551,0.4924,-1804.44,-922.49,1219.67
22690,-3.8712,-0.5868,0.5177,1758.06,-954.04,-1999.08
22700,-3.8712,-0.7017,0.5702,898.68,-1719.91,704.10
22710,-3.8712,-0.7866,0.6317,-1804.44,998.60,751.10
22720,-3.8712,-0.8241,0.6770,-679.44,873.41,1235.60
22730,-3.8712,-0.8109,0.6862,-1476.32,-1329.77,641.91
22740,-3.8713,-0.7560,0.6553,211.18,-157.84,-1967.47
22750,-3.8715,-0.6763,0.6050,-757.57,-110.90,-1936.28
22760,-3.8716,-0.5979,0.5612,1445.56,1451.78,1157.41
22770,-3.8718,-0.5452,0.5389,-523.19,-157.47,-780.21
22780,-3.8719,-0.5375,0.5482,-1773.19,998.90,1063.54
22790,-3.8722,-0.5919,0.5747,-788.82,-1813.60,-1639.59
22800,-3.8724,-0.7153,0.5942,242.43,1576.97,-1780.15
22810,-3.8727,-0.8900,0.6136,445.56,76.72,1719.91
22820,-3.8729,-1.0809,0.6405,-1913.82,-1439.27,1344.91
22830,-3.8732,-1.2563,0.6604,1648.68,1997.86,360.60
22840,-3.8735,-1.3893,0.6605,-804.44,544.37,-1436.22
22850,-3.8738,-1.4659,0.6376,-1820.07,559.75,95.03
22860,-3.8741,-1.4832,0.5911,367.43,1622.13,1063.72
