timestamp_ms,ax,ay,az,gx,gy,gz
0,-3.8713,0.2589,0.0265,1367.43,-1671.39,-1250.00
10,-3.8713,0.2543,0.0342,1148.68,-608.89,-218.75
20,-3.8712,0.2500,0.0378,554.93,375.49,953.19
30,-3.8712,0.2480,0.0371,8.06,844.24,1812.56
40,-3.8712,0.2496,0.0327,-241.94,750.43,-1640.56
50,-3.8712,0.2532,0.0273,-38.82,187.93,-1406.19
60,-3.8712,0.2555,0.0233,414.31,-499.51,-1593.75
70,-3.8712,0.2544,0.0204,711.18,-1015.14,1984.38
80,-3.8712,0.2494,0.0181,570.56,-1390.14,1578.12
90,-3.8712,0.2440,0.0172,-70.07,-1687.07,1171.88
100,-3.8712,0.2422,0.0209,-757.57,-1796.45,875.00
110,-3.8712,0.2461,0.0281,-991.94,-1327.70,890.62
120,-3.8712,0.2522,0.0339,-491.94,-405.82,1078.12
130,-3.8712,0.2544,0.0352,289.31,344.24,1203.19
140,-3.8712,0.2527,0.0319,570.56,500.49,1125.06
150,-3.8712,0.2504,0.0262,351.81,78.61,828.19
160,-3.8712,0.2496,0.0219,54.93,-640.14,343.75
170,-3.8713,0.2511,0.0201,-38.82,-1202.70,-250.00
180,-3.8713,0.2542,0.0205,148.68,-1421.39,-703.12
190,-3.8713,0.2554,0.0227,539.31,-1374.51,-859.38
200,-3.8713,0.2528,0.0262,695.56,-1093.26,-828.12
210,-3.8713,0.2489,0.0287,367.43,-640.14,-703.12
220,-3.8713,0.2473,0.0280,-132.57,-327.70,-531.25
230,-3.8713,0.2467,0.0261,-335.69,-421.45,-437.50
240,-3.8713,0.2456,0.0270,-413.82,-655.82,-421.88
250,-3.8713,0.2457,0.0298,-554.44,-546.45,-187.50
260,-3.8712,0.2467,0.0299,-538.82,-187.07,234.38
270,-3.8712,0.2482,0.0264,-413.82,-171.45,468.75
280,-3.8712,0.2506,0.0223,-226.32,-624.57,375.00
290,-3.8712,0.2543,0.0219,86.18,-1140.14,93.75
300,-3.8713,0.2560,0.0248,554.93,-1202.64,-15.62
310,-3.8712,0.2534,0.0272,773.68,-827.64,156.25
320,-3.8712,0.2502,0.0272,445.56,-515.14,343.75
330,-3.8712,0.2495,0.0276,39.31,-515.14,468.75
340,-3.8712,0.2501,0.0284,-54.44,-468.32,640.62
350,-3.8712,0.2506,0.0273,23.68,-358.89,796.88
360,-3.8712,0.2502,0.0250,86.18,-499.51,718.75
370,-3.8712,0.2490,0.0248,39.31,-796.39,406.25
380,-3.8712,0.2484,0.0271,-116.94,-827.70,15.62
390,-3.8713,0.2499,0.0294,-195.07,-530.82,-140.62
400,-3.8713,0.2520,0.0299,-7.57,-233.95,-109.38
410,-3.8713,0.2534,0.0283,258.06,-171.39,-156.25
420,-3.8713,0.2540,0.0250,445.56,-374.51,-218.75
430,-3.8713,0.2545,0.0222,523.68,-796.39,-265.62
440,-3.8713,0.2561,0.0223,586.18,-1155.76,-406.25
450,-3.8713,0.2576,0.0247,789.31,-1140.14,-437.50
460,-3.8713,0.2570,0.0265,976.81,-843.26,-203.12
470,-3.8712,0.2548,0.0267,898.68,-608.89,62.50
480,-3.8712,0.2526,0.0247,617.43,-577.64,296.88
490,-3.8712,0.2510,0.0231,336.18,-843.26,562.50
500,-3.8712,0.2502,0.0248,133.06,-1046.39,734.38
510,-3.8712,0.2502,0.0277,39.31,-827.64,1015.62
520,-3.8712,0.2516,0.0289,39.31,-452.64,1562.50
530,-3.8712,0.2529,0.0283,211.18,-296.39,-1921.88
540,-3.8712,0.2516,0.0253,383.06,-374.51,-1906.25
550,-3.8712,0.2488,0.0211,211.18,-765.14,1765.62
560,-3.8712,0.2471,0.0197,-148.19,-1296.45,1453.12
570,-3.8712,0.2463,0.0216,-366.94,-1483.95,1140.62
580,-3.8712,0.2461,0.0253,-460.69,-1233.95,1000.00
590,-3.8712,0.2471,0.0281,-491.94,-765.20,1078.12
600,-3.8712,0.2489,0.0291,-366.94,-405.82,1234.38
610,-3.8712,0.2518,0.0270,-132.57,-280.82,1281.25
620,-3.8712,0.2550,0.0232,242.43,-546.39,1171.88
630,-3.8712,0.2567,0.0214,648.68,-1030.76,968.75
640,-3.8712,0.2557,0.0234,867.43,-1265.14,953.12
650,-3.8712,0.2531,0.0275,742.43,-999.51,1171.88
660,-3.8712,0.2516,0.0305,398.68,-483.89,1453.12
670,-3.8712,0.2532,0.0314,211.18,-93.26,1671.88
680,-3.8712,0.2565,0.0311,414.31,16.11,1578.19
690,-3.8712,0.2570,0.0300,836.18,-15.14,1093.75
700,-3.8712,0.2535,0.0277,898.68,-155.76,625.00
710,-3.8712,0.2493,0.0237,461.18,-452.64,390.62
720,-3.8712,0.2437,0.0173,-85.69,-968.32,140.62
730,-3.8713,0.2361,0.0121,-804.44,-1780.82,-531.25
740,-3.8713,0.2312,0.0112,-1773.19,1547.30,-1328.12
750,-3.8713,0.2323,0.0151,1601.81,1437.93,-1781.25
760,-3.8713,0.2380,0.0192,1742.43,1937.93,-1718.75
770,-3.8713,0.2451,0.0187,-1523.19,-1546.45,-1468.75
780,-3.8713,0.2501,0.0172,-616.94,-1608.95,-1390.62
790,-3.8713,0.2512,0.0212,23.68,-1796.39,-1203.12
800,-3.8713,0.2504,0.0304,164.31,-1280.76,-406.25
810,-3.8712,0.2518,0.0376,54.93,-108.89,1000.00
820,-3.8712,0.2555,0.0365,242.43,812.99,-1671.81
830,-3.8712,0.2566,0.0295,711.18,672.36,-1078.06
840,-3.8712,0.2549,0.0238,851.81,-218.26,-1203.12
850,-3.8712,0.2506,0.0220,633.06,-952.64,-1578.12
860,-3.8712,0.2457,0.0219,86.18,-1187.01,-1921.88
870,-3.8712,0.2444,0.0212,-538.82,-1202.70,1765.62
880,-3.8712,0.2462,0.0209,-710.69,-1280.82,1375.00
890,-3.8712,0.2484,0.0220,-476.32,-1327.70,843.75
900,-3.8712,0.2495,0.0240,-195.07,-1187.07,437.50
910,-3.8712,0.2495,0.0238,-54.44,-921.45,250.00
920,-3.8712,0.2479,0.0215,-54.44,-952.70,31.25
930,-3.8713,0.2448,0.0215,-257.57,-1249.57,-187.50
940,-3.8713,0.2419,0.0236,-663.82,-1249.57,-265.62
950,-3.8713,0.2419,0.0238,-1023.19,-983.95,-296.88
960,-3.8713,0.2462,0.0217,-1023.19,-952.70,-406.25
970,-3.8713,0.2515,0.0204,-476.32,-1218.32,-484.38
980,-3.8713,0.2543,0.0215,195.56,-1390.14,-390.62
990,-3.8713,0.2526,0.0232,554.93,-1249.51,-234.38
1000,-3.8713,0.2461,0.0237,336.18,-1030.76,-125.00
1010,-3.8712,0.2390,0.0233,-491.94,-968.32,125.00
1020,-3.8712,0.2351,0.0219,-1398.19,-1015.20,500.00
1030,-3.8712,0.2341,0.0195,-1898.19,-1202.70,734.38
1040,-3.8712,0.2357,0.0187,1976.81,-1499.57,765.62
1050,-3.8712,0.2405,0.0201,-1820.07,-1608.95,609.38
1060,-3.8712,0.2461,0.0223,-1210.69,-1421.45,359.38
1070,-3.8712,0.2517,0.0237,-491.94,-1140.20,187.50
1080,-3.8712,0.2574,0.0260,226.81,-968.26,62.50
1090,-3.8713,0.2600,0.0303,961.18,-671.39,-46.88
1100,-3.8712,0.2566,0.0337,1289.31,-124.51,218.75
1110,-3.8712,0.2495,0.0342,851.81,312.99,828.19
1120,-3.8712,0.2418,0.0314,-54.44,375.43,1421.94
1130,-3.8712,0.2346,0.0264,-1038.82,16.05,1640.69
1140,-3.8712,0.2306,0.0215,-1960.69,-624.57,1453.12
1150,-3.8712,0.2312,0.0183,1523.68,-1249.57,953.12
1160,-3.8712,0.2346,0.0175,1601.81,-1655.82,312.50
1170,-3.8713,0.2388,0.0183,-1960.69,-1765.20,-390.62
1180,-3.8713,0.2415,0.0198,-1429.44,-1655.82,-906.25
1190,-3.8713,0.2429,0.0216,-1085.69,-1468.32,-1093.75
1200,-3.8713,0.2450,0.0247,-898.19,-1233.95,-1093.75
1210,-3.8713,0.2474,0.0283,-632.57,-843.32,-796.88
1220,-3.8713,0.2479,0.0315,-320.07,-374.57,-109.38
1230,-3.8712,0.2458,0.0326,-257.57,31.68,671.94
1240,-3.8712,0.2421,0.0302,-523.19,172.30,1265.69
1250,-3.8712,0.2395,0.0262,-1007.57,-140.20,1500.00
1260,-3.8712,0.2405,0.0236,-1335.69,-640.20,1203.12
1270,-3.8712,0.2456,0.0226,-1210.69,-983.95,671.88
1280,-3.8712,0.2504,0.0223,-554.44,-1108.95,218.75
1290,-3.8713,0.2531,0.0223,54.93,-1140.14,-203.12
1300,-3.8713,0.2539,0.0228,398.68,-1140.14,-546.88
1310,-3.8713,0.2517,0.0258,508.06,-1077.64,-562.50
1320,-3.8713,0.2477,0.0308,226.81,-702.64,-156.25
1330,-3.8712,0.2416,0.0319,-288.82,-62.07,500.00
1340,-3.8712,0.2339,0.0262,-1070.07,78.55,968.81
1350,-3.8712,0.2305,0.0205,1945.56,-640.20,921.88
1360,-3.8712,0.2340,0.0219,1508.06,-1374.57,671.88
1370,-3.8712,0.2400,0.0271,1961.18,-1202.70,703.12
1380,-3.8712,0.2445,0.0280,-1273.19,-530.82,953.12
1390,-3.8712,0.2467,0.0223,-695.07,-421.45,1046.88
1400,-3.8712,0.2473,0.0164,-413.82,-1140.20,750.00
1410,-3.8712,0.2473,0.0172,-335.69,-1905.82,296.88
1420,-3.8712,0.2467,0.0271,-335.69,-1796.45,296.88
1430,-3.8712,0.2441,0.0375,-413.82,-530.82,1000.00
1440,-3.8712,0.2413,0.0371,-741.94,797.30,1984.44
1450,-3.8712,0.2385,0.0261,-1101.32,750.43,-1624.94
1460,-3.8712,0.2360,0.0148,-1460.69,-655.82,1843.75
1470,-3.8712,0.2350,0.0121,-1788.82,1891.05,968.75
1480,-3.8712,0.2363,0.0167,-1913.82,1547.30,468.75
1490,-3.8712,0.2393,0.0232,-1741.94,-1858.95,343.75
1500,-3.8712,0.2426,0.0275,-1366.94,-1030.82,187.50
1510,-3.8712,0.2427,0.0271,-945.07,-483.95,31.25
1520,-3.8713,0.2384,0.0234,-929.44,-530.82,-62.50
1530,-3.8713,0.2358,0.0204,-1476.32,-999.57,-359.38
1540,-3.8713,0.2399,0.0217,-1804.44,-1390.20,-609.38
1550,-3.8713,0.2483,0.0253,-1288.82,-1218.32,-531.25
1560,-3.8713,0.2568,0.0269,-210.69,-765.20,-218.75
1570,-3.8712,0.2604,0.0269,883.06,-562.01,218.75
1580,-3.8712,0.2582,0.0281,1336.18,-562.01,718.75
1590,-3.8712,0.2528,0.0291,1054.93,-405.76,1187.50
1600,-3.8712,0.2478,0.0278,367.43,-280.76,1468.75
1610,-3.8712,0.2472,0.0273,-273.19,-437.07,1578.12
1620,-3.8712,0.2493,0.0288,-351.32,-499.57,1656.25
1630,-3.8712,0.2496,0.0284,-85.69,-312.07,1703.12
1640,-3.8712,0.2472,0.0259,-38.82,-358.95,1593.75
1650,-3.8712,0.2449,0.0245,-351.32,-687.07,1312.50
1660,-3.8712,0.2450,0.0251,-648.19,-858.95,984.38
1670,-3.8712,0.2468,0.0260,-632.57,-780.82,640.62
1680,-3.8712,0.2496,0.0260,-398.19,-671.45,265.62
1690,-3.8713,0.2522,0.0256,-38.82,-671.45,-218.75
1700,-3.8713,0.2532,0.0253,289.31,-718.26,-718.75
1710,-3.8713,0.2533,0.0244,414.31,-765.14,-1093.75
1720,-3.8713,0.2543,0.0239,429.93,-874.51,-1281.25
1730,-3.8713,0.2566,0.0245,554.93,-937.01,-1312.50
1740,-3.8713,0.2595,0.0245,851.81,-858.89,-1250.00
1750,-3.8713,0.2607,0.0239,1226.81,-858.89,-1234.38
1760,-3.8713,0.2573,0.0242,1383.06,-937.01,-1140.62
1770,-3.8713,0.2495,0.0237,945.56,-905.76,-750.00
1780,-3.8713,0.2406,0.0200,-54.44,-968.32,-281.25
1790,-3.8713,0.2333,0.0142,-1195.07,-1437.07,-109.38
1800,-3.8713,0.2295,0.0111,1867.43,1812.93,-234.38
1810,-3.8713,0.2306,0.0134,1383.06,1422.30,-250.00
1820,-3.8712,0.2366,0.0189,1523.68,1719.18,171.88
1830,-3.8712,0.2450,0.0254,-1710.69,-1577.70,1000.00
1840,-3.8712,0.2528,0.0291,-632.57,-749.57,1843.75
1850,-3.8712,0.2609,0.0281,367.43,-280.76,-1718.75
1860,-3.8712,0.2662,0.0249,1398.68,-405.76,-1750.00
1870,-3.8712,0.2645,0.0226,-1913.82,-812.01,-1937.50
1880,-3.8712,0.2571,0.0220,1867.43,-1108.89,-1968.75
1890,-3.8712,0.2482,0.0228,914.31,-1187.01,-1843.75
1900,-3.8712,0.2399,0.0229,-226.32,-1077.70,-1734.38
1910,-3.8712,0.2354,0.0210,-1288.82,-1062.07,-1734.38
1920,-3.8712,0.2358,0.0175,-1866.94,-1312.07,-1968.75
1930,-3.8712,0.2384,0.0151,-1804.44,-1765.20,1437.50
1940,-3.8712,0.2416,0.0173,-1476.32,1937.93,671.88
1950,-3.8712,0.2455,0.0216,-1070.07,-1780.82,109.38
1960,-3.8713,0.2505,0.0245,-570.07,-1233.95,-140.62
1970,-3.8713,0.2545,0.0260,70.56,-858.89,-281.25
1980,-3.8713,0.2557,0.0258,586.18,-671.39,-406.25
1990,-3.8713,0.2562,0.0245,742.43,-702.64,-703.12
2000,-3.8713,0.2571,0.0251,804.93,-858.89,-1046.88
2010,-3.8713,0.2571,0.0272,914.31,-780.76,-1062.50
2020,-3.8713,0.2551,0.0281,914.31,-515.14,-906.25
2030,-3.8713,0.2532,0.0282,664.31,-405.76,-718.75
2040,-3.8713,0.2521,0.0281,414.31,-390.14,-515.62
2050,-3.8713,0.2493,0.0264,273.68,-405.76,-281.25
2060,-3.8713,0.2465,0.0240,-85.69,-624.57,-125.00
2070,-3.8713,0.2449,0.0239,-445.07,-921.45,-62.50
2080,-3.8712,0.2437,0.0250,-648.19,-937.07,46.88
2090,-3.8712,0.2430,0.0249,-804.44,-796.45,187.50
2100,-3.8712,0.2430,0.0233,-882.57,-812.07,343.75
2110,-3.8712,0.2427,0.0219,-882.57,-1015.20,296.88
2120,-3.8712,0.2429,0.0220,-929.44,-1202.70,62.50
2130,-3.8713,0.2448,0.0240,-898.19,-1187.07,-218.75
2140,-3.8713,0.2469,0.0280,-663.82,-921.45,-250.00
2150,-3.8712,0.2479,0.0315,-382.57,-421.45,93.75
2160,-3.8712,0.2484,0.0337,-257.57,31.68,453.19
2170,-3.8712,0.2501,0.0327,-195.07,312.93,843.81
2180,-3.8712,0.2512,0.0281,23.68,187.99,1203.19
2190,-3.8712,0.2498,0.0226,164.31,-405.76,1218.75
2200,-3.8712,0.2473,0.0200,-23.19,-1108.95,953.12
2210,-3.8712,0.2476,0.0216,-335.69,-1437.07,562.50
2220,-3.8712,0.2509,0.0267,-304.44,-1233.95,359.38
2230,-3.8712,0.2545,0.0327,117.43,-577.64,531.25
2240,-3.8712,0.2548,0.0355,586.18,187.99,937.56
2250,-3.8712,0.2490,0.0333,617.43,547.36,1312.56
2260,-3.8712,0.2397,0.0265,-116.94,266.05,1312.56
2270,-3.8712,0.2338,0.0188,-1304.44,-608.95,812.50
2280,-3.8712,0.2349,0.0159,1929.93,-1593.32,234.38
2290,-3.8713,0.2413,0.0173,-1929.44,-1968.32,-156.25
2300,-3.8713,0.2467,0.0188,-1101.32,-1780.82,-609.38
2310,-3.8713,0.2477,0.0195,-413.82,-1593.32,-1140.62
2320,-3.8713,0.2488,0.0219,-288.82,-1499.57,-1296.88
2330,-3.8713,0.2537,0.0275,-148.19,-1202.70,-812.50
2340,-3.8712,0.2604,0.0354,476.81,-483.89,140.62
2350,-3.8712,0.2665,0.0413,1336.18,531.74,1218.81
2360,-3.8712,0.2692,0.0410,-1882.57,1281.74,-1703.06
2370,-3.8712,0.2659,0.0347,-1538.82,1250.49,-953.06
2380,-3.8712,0.2588,0.0269,-1960.69,437.99,-890.56
2390,-3.8712,0.2522,0.0226,1133.06,-562.01,-1390.62
2400,-3.8712,0.2478,0.0212,289.31,-1108.89,-1921.88
2410,-3.8712,0.2462,0.0199,-273.19,-1280.82,1656.25
2420,-3.8712,0.2478,0.0183,-476.32,-1452.70,1234.38
2430,-3.8712,0.2511,0.0190,-273.19,-1655.82,781.25
2440,-3.8712,0.2538,0.0239,148.68,-1562.01,468.75
2450,-3.8712,0.2559,0.0321,492.43,-937.01,437.50
2460,-3.8712,0.2570,0.0392,758.06,109.86,765.69
2470,-3.8712,0.2559,0.0388,898.68,1016.11,1234.44
2480,-3.8712,0.2510,0.0306,758.06,969.24,1359.44
2490,-3.8712,0.2446,0.0206,133.06,-77.64,921.88
2500,-3.8712,0.2439,0.0177,-679.44,-1358.95,234.38
2510,-3.8713,0.2458,0.0225,-773.19,-1733.95,-531.25
2520,-3.8713,0.2494,0.0284,-523.19,-1124.57,-750.00
2530,-3.8713,0.2576,0.0327,-70.07,-358.95,-437.50
2540,-3.8713,0.2601,0.0345,976.81,187.99,-187.44
2550,-3.8712,0.2551,0.0343,1304.93,422.36,171.94
2560,-3.8712,0.2495,0.0304,664.31,391.11,453.19
2570,-3.8712,0.2446,0.0249,-54.44,-108.95,578.12
2580,-3.8712,0.2405,0.0221,-679.44,-812.07,687.50
2590,-3.8712,0.2400,0.0231,-1210.69,-1171.45,828.12
2600,-3.8712,0.2433,0.0271,-1273.19,-1046.45,1015.62
2610,-3.8712,0.2484,0.0315,-851.32,-530.82,1453.12
2620,-3.8712,0.2544,0.0322,-195.07,31.68,1875.06
2630,-3.8712,0.2587,0.0289,570.56,125.49,1859.44
2640,-3.8712,0.2590,0.0250,1117.43,-296.39,1421.88
2650,-3.8712,0.2571,0.0249,1164.31,-796.39,859.38
2660,-3.8712,0.2534,0.0281,914.31,-812.01,656.25
2670,-3.8712,0.2479,0.0293,445.56,-405.76,953.12
2680,-3.8712,0.2423,0.0260,-257.57,-249.57,1093.75
2690,-3.8712,0.2388,0.0201,-976.32,-671.45,609.38
2700,-3.8713,0.2368,0.0162,-1429.44,-1421.45,-78.12
2710,-3.8713,0.2374,0.0187,-1679.44,-1921.45,-625.00
2720,-3.8713,0.2412,0.0259,-1601.32,-1608.95,-781.25
2730,-3.8713,0.2465,0.0305,-1116.94,-687.07,-468.75
2740,-3.8713,0.2500,0.0281,-445.07,-93.32,-78.12
2750,-3.8713,0.2517,0.0223,8.06,-405.76,-62.50
2760,-3.8713,0.2521,0.0209,226.81,-1140.14,-406.25
2770,-3.8713,0.2516,0.0238,273.68,-1327.64,-640.62
2780,-3.8713,0.2502,0.0277,211.18,-952.64,-562.50
2790,-3.8713,0.2488,0.0309,39.31,-452.64,-218.75
2800,-3.8712,0.2479,0.0327,-148.19,-46.45,203.12
2810,-3.8712,0.2487,0.0323,-257.57,187.93,531.31
2820,-3.8712,0.2516,0.0297,-163.82,141.05,656.31
2830,-3.8712,0.2534,0.0269,211.18,-202.64,484.38
2840,-3.8712,0.2535,0.0270,445.56,-562.01,156.25
2850,-3.8712,0.2526,0.0278,461.18,-546.39,31.25
2860,-3.8712,0.2501,0.0266,336.18,-437.01,187.50
2870,-3.8712,0.2458,0.0242,23.68,-593.26,390.62
2880,-3.8712,0.2397,0.0219,-523.19,-905.82,343.75
2890,-3.8712,0.2355,0.0210,-1304.44,-1202.70,140.62
2900,-3.8712,0.2368,0.0228,-1851.32,-1312.07,15.62
2910,-3.8712,0.2427,0.0261,-1679.44,-1077.70,203.12
2920,-3.8712,0.2495,0.0280,-929.44,-655.82,484.38
2930,-3.8712,0.2546,0.0276,-54.44,-421.45,531.25
2940,-3.8712,0.2577,0.0271,601.81,-468.26,375.00
2950,-3.8712,0.2585,0.0267,992.43,-530.76,296.88
2960,-3.8712,0.2560,0.0250,1101.81,-577.64,421.88
2970,-3.8712,0.2504,0.0229,773.68,-796.39,406.25
2980,-3.8712,0.2450,0.0226,54.93,-1062.01,296.88
2990,-3.8712,0.2429,0.0240,-632.57,-1108.95,390.62
3000,-3.8712,0.2441,0.0270,-898.19,-921.45,640.62
3010,-3.8712,0.2467,0.0302,-741.94,-546.45,937.50
3020,-3.8712,0.2473,0.0317,-413.82,-140.20,1203.12
3030,-3.8712,0.2438,0.0311,-335.69,62.93,1484.44
3040,-3.8712,0.2379,0.0293,-788.82,-15.20,1750.00
3050,-3.8712,0.2351,0.0258,-1538.82,-249.57,1796.88
3060,-3.8712,0.2356,0.0220,-1898.19,-702.70,1468.75
3070,-3.8712,0.2373,0.0219,-1835.69,-1187.07,781.25
3080,-3.8712,0.2397,0.0253,-1616.94,-1202.70,125.00
3090,-3.8713,0.2411,0.0281,-1304.44,-765.20,-328.12
3100,-3.8713,0.2434,0.0264,-1132.57,-405.82,-921.88
3110,-3.8713,0.2490,0.0225,-835.69,-624.57,-1625.00
3120,-3.8713,0.2557,0.0220,-116.94,-1124.57,1953.12
3130,-3.8713,0.2617,0.0273,742.43,-1187.01,-1875.00
3140,-3.8713,0.2644,0.0349,1508.06,-499.51,-984.38
3150,-3.8712,0.2604,0.0383,1851.81,469.24,515.69
3160,-3.8712,0.2509,0.0347,1336.18,906.74,1953.19
3170,-3.8712,0.2421,0.0270,117.43,437.99,-1281.19
3180,-3.8712,0.2391,0.0225,-1007.57,-546.45,-1296.88
3190,-3.8712,0.2410,0.0228,-1382.57,-1124.57,-1734.38
3200,-3.8712,0.2427,0.0243,-1148.19,-1077.70,1890.62
3210,-3.8712,0.2416,0.0242,-929.44,-890.20,1625.00
3220,-3.8712,0.2383,0.0236,-1070.07,-905.82,1250.00
3230,-3.8712,0.2365,0.0255,-1491.94,-983.95,921.88
3240,-3.8712,0.2394,0.0289,-1726.32,-733.95,875.00
3250,-3.8712,0.2479,0.0322,-1351.32,-296.45,968.75
3260,-3.8712,0.2599,0.0359,-257.57,125.43,1000.06
3270,-3.8712,0.2683,0.0375,1273.68,594.24,1000.06
3280,-3.8712,0.2677,0.0342,-1648.19,797.36,937.56
3290,-3.8712,0.2596,0.0271,-1726.32,375.49,421.94
3300,-3.8713,0.2516,0.0210,1242.43,-530.76,-390.62
3310,-3.8713,0.2480,0.0199,211.18,-1312.01,-953.12
3320,-3.8713,0.2482,0.0255,-241.94,-1452.70,-1093.75
3330,-3.8713,0.2510,0.0330,-226.32,-733.95,-890.62
3340,-3.8713,0.2521,0.0350,133.06,219.24,-343.69
3350,-3.8712,0.2465,0.0306,273.68,484.86,93.81
3360,-3.8712,0.2388,0.0238,-445.07,-77.70,203.12
3370,-3.8712,0.2343,0.0199,-1429.44,-952.70,140.62
3380,-3.8712,0.2317,0.0194,1992.43,-1452.70,187.50
3390,-3.8712,0.2336,0.0210,1664.31,-1515.20,312.50
3400,-3.8712,0.2417,0.0238,1914.31,-1312.07,437.50
3410,-3.8712,0.2522,0.0266,-1054.44,-952.70,546.88
3420,-3.8712,0.2610,0.0304,289.31,-593.26,718.75
3430,-3.8712,0.2656,0.0356,1414.31,-108.89,953.12
3440,-3.8712,0.2653,0.0393,-1991.94,562.99,1312.56
3450,-3.8712,0.2604,0.0391,1961.18,1031.74,1703.19
3460,-3.8712,0.2520,0.0338,1336.18,1000.49,1828.19
3470,-3.8712,0.2440,0.0256,258.06,328.61,1625.06
3480,-3.8712,0.2422,0.0201,-757.57,-718.32,1156.25
3490,-3.8712,0.2449,0.0198,-991.94,-1421.45,625.00
3500,-3.8712,0.2466,0.0229,-648.19,-1468.32,265.62
3510,-3.8712,0.2462,0.0260,-429.44,-1062.07,15.62
3520,-3.8713,0.2452,0.0284,-476.32,-671.45,-78.12
3530,-3.8713,0.2457,0.0302,-601.32,-358.95,-156.25
3540,-3.8712,0.2498,0.0308,-538.82,-140.20,156.25
3550,-3.8712,0.2552,0.0310,-23.19,-62.07,468.75
3560,-3.8712,0.2566,0.0305,679.93,-30.76,312.50
3570,-3.8712,0.2524,0.0284,851.81,-93.26,312.50
3580,-3.8712,0.2474,0.0266,320.56,-358.89,343.75
3590,-3.8712,0.2441,0.0258,-320.07,-593.32,359.38
3600,-3.8712,0.2434,0.0251,-741.94,-702.70,359.38
3610,-3.8712,0.2466,0.0259,-835.69,-780.82,187.50
3620,-3.8713,0.2527,0.0306,-429.44,-687.07,-46.88
3630,-3.8712,0.2578,0.0371,351.81,-77.64,15.62
3640,-3.8712,0.2584,0.0382,1008.06,750.49,406.31
3650,-3.8712,0.2559,0.0344,1086.18,891.11,687.56
3660,-3.8712,0.2537,0.0325,758.06,406.74,843.81
3670,-3.8712,0.2511,0.0339,476.81,156.74,906.31
3680,-3.8712,0.2474,0.0325,148.68,344.24,765.69
3690,-3.8712,0.2485,0.0265,-320.07,156.68,593.81
3700,-3.8712,0.2540,0.0219,-179.44,-608.95,140.62
3710,-3.8713,0.2583,0.0212,523.68,-1202.64,-421.88
3720,-3.8713,0.2605,0.0234,1070.56,-1280.76,-765.62
3730,-3.8713,0.2594,0.0262,1351.81,-999.51,-937.50
3740,-3.8713,0.2534,0.0293,1211.18,-640.14,-828.12
3750,-3.8713,0.2472,0.0327,445.56,-249.51,-296.88
3760,-3.8712,0.2466,0.0352,-351.32,187.93,656.31
3770,-3.8712,0.2501,0.0343,-429.44,500.43,1625.06
3780,-3.8712,0.2537,0.0309,23.68,391.11,-1906.19
3790,-3.8712,0.2562,0.0273,476.81,-46.39,-1906.25
3800,-3.8712,0.2556,0.0270,804.93,-499.51,-2000.00
3810,-3.8712,0.2510,0.0293,726.81,-546.39,-2000.00
3820,-3.8712,0.2449,0.0299,133.06,-249.51,-1937.50
3830,-3.8712,0.2399,0.0276,-648.19,-171.45,1953.12
3840,-3.8712,0.2379,0.0253,-1288.82,-468.32,1406.25
3850,-3.8712,0.2386,0.0251,-1538.82,-765.20,625.00
3860,-3.8712,0.2405,0.0277,-1445.07,-780.82,93.75
3870,-3.8713,0.2406,0.0306,-1210.69,-452.70,-78.12
3880,-3.8713,0.2395,0.0297,-1195.07,-77.70,-109.38
3890,-3.8713,0.2402,0.0236,-1335.69,-202.70,-375.00
3900,-3.8713,0.2446,0.0181,-1241.94,-983.95,-1093.75
3910,-3.8713,0.2524,0.0188,-679.44,-1687.07,-1843.75
3920,-3.8713,0.2605,0.0270,320.56,-1593.26,-1984.38
3930,-3.8713,0.2654,0.0382,1351.81,-546.39,-1390.62
3940,-3.8713,0.2664,0.0450,1976.81,891.11,-281.19
3950,-3.8712,0.2640,0.0443,-1898.19,1766.11,875.06
3960,-3.8712,0.2590,0.0393,1804.93,1672.36,1515.69
3970,-3.8712,0.2538,0.0342,1164.31,1031.74,1531.31
3980,-3.8712,0.2487,0.0297,492.43,375.49,1312.56
3990,-3.8712,0.2416,0.0259,-163.82,-202.70,1031.25
4000,-3.8712,0.2333,0.0229,-1070.07,-687.07,671.88
4010,-3.8712,0.2281,0.0216,1867.43,-1062.07,375.00
4020,-3.8712,0.2281,0.0222,1211.18,-1233.95,250.00
4030,-3.8712,0.2322,0.0259,1211.18,-1155.82,312.50
4040,-3.8712,0.2406,0.0319,1726.81,-687.07,500.00
4050,-3.8712,0.2521,0.0359,-1195.07,78.55,734.44
4060,-3.8712,0.2615,0.0349,273.68,594.24,906.31
4070,-3.8712,0.2649,0.0309,1476.81,469.24,718.81
4080,-3.8712,0.2629,0.0289,1914.31,-46.39,265.62
4090,-3.8712,0.2592,0.0338,1664.31,-296.39,125.00
4100,-3.8712,0.2552,0.0398,1179.93,328.61,640.69
4110,-3.8712,0.2502,0.0381,679.93,1094.24,1343.81
4120,-3.8712,0.2441,0.0303,39.31,875.49,1375.06
4130,-3.8712,0.2380,0.0225,-741.94,-124.57,796.88
4140,-3.8712,0.2339,0.0193,-1523.19,-1124.57,250.00
4150,-3.8713,0.2340,0.0200,1945.56,-1530.82,-93.75
4160,-3.8713,0.2380,0.0228,1961.18,-1437.07,-187.50
4170,-3.8713,0.2455,0.0275,-1523.19,-1077.70,-78.12
4180,-3.8712,0.2549,0.0333,-570.07,-483.95,140.62
4190,-3.8712,0.2635,0.0380,633.06,266.11,531.31
4200,-3.8712,0.2683,0.0388,1742.43,859.86,921.94
4210,-3.8712,0.2673,0.0358,-1648.19,969.24,1218.81
4220,-3.8712,0.2607,0.0306,-1773.19,578.61,1546.94
4230,-3.8712,0.2499,0.0261,1383.06,-77.64,1703.12
4240,-3.8712,0.2389,0.0236,-7.57,-655.82,1515.62
4250,-3.8712,0.2321,0.0226,-1413.82,-983.95,1250.00
4260,-3.8712,0.2313,0.0240,1711.18,-1108.95,1156.25
4270,-3.8712,0.2352,0.0272,1617.43,-921.45,1046.88
4280,-3.8712,0.2418,0.0291,-1882.57,-515.20,937.50
4290,-3.8712,0.2507,0.0283,-1038.82,-280.82,859.38
4300,-3.8712,0.2573,0.0267,101.81,-374.51,656.25
4310,-3.8712,0.2589,0.0262,945.56,-577.64,281.25
4320,-3.8712,0.2571,0.0266,1148.68,-640.14,125.00
4330,-3.8712,0.2535,0.0247,914.31,-593.26,250.00
4340,-3.8712,0.2488,0.0203,461.18,-843.26,171.88
4350,-3.8713,0.2448,0.0183,-148.19,-1405.82,-187.50
4360,-3.8713,0.2439,0.0204,-663.82,-1655.82,-421.88
4370,-3.8713,0.2478,0.0217,-773.19,-1390.20,-187.50
4380,-3.8712,0.2526,0.0187,-273.19,-1218.32,234.38
4390,-3.8712,0.2510,0.0131,336.18,-1608.89,453.12
4400,-3.8712,0.2416,0.0111,133.06,1672.36,515.62
4410,-3.8712,0.2397,0.0126,-1070.07,1422.30,156.25
4420,-3.8713,0.2546,0.0122,-1304.44,1609.80,-468.75
4430,-3.8713,0.2703,0.0134,601.81,1562.99,-984.38
4440,-3.8713,0.2755,0.0209,-1398.19,1719.24,-1250.00
4450,-3.8713,0.2747,0.0322,-726.32,-1327.64,-859.38
4460,-3.8712,0.2742,0.0442,-835.69,125.49,125.06
4470,-3.8712,0.2773,0.0525,-898.19,1656.74,1312.56
4480,-3.8712,0.2823,0.0530,-491.94,-1280.76,-1671.81
4490,-3.8712,0.2803,0.0458,148.68,-1218.20,-1265.56
4500,-3.8712,0.2695,0.0361,-116.94,1859.86,-1562.44
4510,-3.8712,0.2581,0.0300,-1491.94,625.49,1687.56
4520,-3.8712,0.2496,0.0287,1039.31,-155.76,1109.38
4530,-3.8712,0.2434,0.0295,-38.82,-327.70,906.25
4540,-3.8712,0.2383,0.0280,-835.69,-218.32,734.38
4550,-3.8712,0.2351,0.0237,-1491.94,-421.45,234.38
4560,-3.8713,0.2345,0.0226,-1898.19,-968.32,-343.75
4570,-3.8713,0.2339,0.0267,-1976.32,-1108.95,-703.12
4580,-3.8713,0.2311,0.0336,1945.56,-577.70,-640.62
4590,-3.8713,0.2274,0.0370,1586.18,297.30,-140.56
4600,-3.8712,0.2240,0.0338,1117.43,734.80,375.06
4610,-3.8712,0.2212,0.0278,679.93,328.55,375.06
4620,-3.8712,0.2216,0.0234,320.56,-437.07,31.25
4630,-3.8713,0.2274,0.0233,367.43,-999.57,-453.12
4640,-3.8713,0.2350,0.0265,1117.43,-1015.20,-1015.62
4650,-3.8713,0.2411,0.0286,-1913.82,-608.95,-1453.12
4660,-3.8713,0.2449,0.0275,-1132.57,-343.32,-1781.25
4670,-3.8713,0.2469,0.0259,-648.19,-483.95,1890.62
4680,-3.8713,0.2480,0.0261,-382.57,-687.07,1828.12
4690,-3.8713,0.2490,0.0267,-241.94,-655.82,-1781.25
4700,-3.8713,0.2510,0.0264,-116.94,-577.70,-1250.00
4710,-3.8713,0.2555,0.0259,133.06,-624.51,-828.12
4720,-3.8713,0.2621,0.0272,711.18,-687.01,-562.50
4730,-3.8713,0.2673,0.0305,1554.93,-515.14,-343.75
4740,-3.8713,0.2690,0.0327,-1773.19,-93.26,-93.75
4750,-3.8712,0.2676,0.0308,-1554.44,187.99,203.19
4760,-3.8712,0.2635,0.0262,-1741.94,-62.01,265.62
4770,-3.8712,0.2567,0.0211,1742.43,-640.14,93.75
4780,-3.8713,0.2496,0.0176,867.43,-1296.39,-15.62
4790,-3.8712,0.2458,0.0166,-38.82,-1749.57,125.00
4800,-3.8712,0.2465,0.0183,-523.19,-1874.57,296.88
4810,-3.8712,0.2532,0.0228,-445.07,-1655.82,187.50
4820,-3.8712,0.2644,0.0282,414.31,-1077.64,62.50
4830,-3.8712,0.2729,0.0419,-413.82,812.99,1390.69
4840,-3.8712,0.2672,0.0409,-1054.44,1359.86,-1999.94
4850,-3.8712,0.2614,0.0332,-1788.82,1234.86,-1718.69
4860,-3.8712,0.2563,0.0249,1461.18,250.49,1843.81
4870,-3.8712,0.2498,0.0188,820.56,-812.01,1140.62
4880,-3.8712,0.2394,0.0143,-23.19,-1593.32,640.62
4890,-3.8712,0.2291,0.0135,-1351.32,1828.55,125.00
4900,-3.8713,0.2230,0.0186,1336.18,1734.80,-93.75
4910,-3.8712,0.2227,0.0254,554.93,-1624.57,390.62
4920,-3.8712,0.2278,0.0287,508.06,-749.57,1140.62
4930,-3.8712,0.2362,0.0295,1164.31,-327.70,1593.75
4940,-3.8712,0.2469,0.0308,-1757.57,-218.32,1609.38
4950,-3.8712,0.2585,0.0314,-382.57,-62.07,1578.12
4960,-3.8712,0.2650,0.0305,1101.81,16.11,1531.31
4970,-3.8712,0.2626,0.0286,1929.93,-93.26,1265.62
4980,-3.8712,0.2557,0.0277,1617.43,-343.26,843.75
4990,-3.8712,0.2479,0.0282,742.43,-452.64,656.25
5000,-3.8712,0.2408,0.0293,-257.57,-390.20,703.12
5010,-3.8712,0.2375,0.0304,-1163.82,-249.57,687.50
5020,-3.8712,0.2384,0.0320,-1585.69,-108.95,640.62
5030,-3.8712,0.2404,0.0320,-1476.32,94.18,640.69
5040,-3.8712,0.2424,0.0266,-1226.32,94.18,453.19
5050,-3.8713,0.2461,0.0197,-960.69,-593.32,-125.00
5060,-3.8713,0.2520,0.0177,-491.94,-1483.95,-937.50
5070,-3.8713,0.2574,0.0214,258.06,-1733.89,-1265.62
5080,-3.8713,0.2605,0.0273,961.18,-1265.14,-937.50
5090,-3.8713,0.2599,0.0312,1351.81,-499.51,-312.50
5100,-3.8712,0.2561,0.0309,1273.68,0.49,296.94
5110,-3.8712,0.2533,0.0288,789.31,-46.39,625.00
5120,-3.8712,0.2540,0.0277,429.93,-312.01,578.12
5130,-3.8712,0.2590,0.0294,523.68,-452.64,343.75
5140,-3.8712,0.2660,0.0327,1164.31,-233.89,250.00
5150,-3.8712,0.2698,0.0333,-1945.07,187.99,281.31
5160,-3.8712,0.2684,0.0299,-1460.69,266.11,203.19
5170,-3.8713,0.2649,0.0240,-1632.57,-171.39,-78.12
5180,-3.8713,0.2611,0.0199,1914.31,-921.39,-453.12
5190,-3.8713,0.2563,0.0186,1429.93,-1452.64,-796.88
5200,-3.8713,0.2535,0.0194,820.56,-1624.51,-968.75
5210,-3.8713,0.2552,0.0237,461.18,-1515.14,-906.25
5220,-3.8713,0.2583,0.0283,679.93,-968.26,-515.62
5230,-3.8712,0.2610,0.0299,1070.56,-374.51,93.75
5240,-3.8712,0.2644,0.0300,1414.31,-171.39,578.12
5250,-3.8712,0.2660,0.0302,1851.81,-155.76,953.12
5260,-3.8712,0.2637,0.0293,-1945.07,-140.14,1250.00
5270,-3.8712,0.2600,0.0291,1758.06,-249.51,1234.38
5280,-3.8712,0.2554,0.0315,1289.31,-280.76,1046.88
5290,-3.8712,0.2511,0.0337,695.56,31.74,1078.19
5300,-3.8712,0.2485,0.0330,148.68,312.99,1343.81
5310,-3.8712,0.2485,0.0326,-179.44,219.18,1343.81
5320,-3.8712,0.2509,0.0327,-179.44,172.30,953.19
5330,-3.8712,0.2534,0.0292,117.43,187.99,453.19
5340,-3.8713,0.2538,0.0228,445.56,-265.14,-140.62
5350,-3.8713,0.2507,0.0188,492.43,-1077.64,-1015.62
5360,-3.8713,0.2455,0.0192,101.81,-1593.26,-1843.75
5370,-3.8713,0.2429,0.0219,-570.07,-1546.45,1843.75
5380,-3.8713,0.2452,0.0254,-898.19,-1202.70,1984.38
5390,-3.8713,0.2517,0.0320,-601.32,-749.57,-1687.50
5400,-3.8713,0.2618,0.0428,226.81,94.24,-1093.69
5410,-3.8713,0.2711,0.0513,1523.68,1484.86,-15.56
5420,-3.8712,0.2747,0.0499,-1288.82,-1437.01,984.44
5430,-3.8712,0.2721,0.0385,-835.69,-1608.89,1328.19
5440,-3.8712,0.2654,0.0240,-1163.82,922.36,968.81
5450,-3.8712,0.2571,0.0160,1976.81,-921.39,234.38
5460,-3.8713,0.2489,0.0171,914.31,-1952.64,-265.62
5470,-3.8713,0.2428,0.0239,-132.57,-1812.07,-187.50
5480,-3.8712,0.2417,0.0297,-913.82,-937.07,281.25
5490,-3.8712,0.2455,0.0322,-1054.44,-202.70,734.38
5500,-3.8712,0.2531,0.0364,-570.07,125.43,1062.56
5510,-3.8712,0.2615,0.0417,398.68,656.74,1468.81
5520,-3.8712,0.2653,0.0411,1476.81,1344.24,1937.56
5530,-3.8712,0.2625,0.0338,1961.18,1266.11,-1921.81
5540,-3.8712,0.2556,0.0251,1601.81,328.61,1765.69
5550,-3.8712,0.2491,0.0210,726.81,-780.76,1156.25
5560,-3.8712,0.2480,0.0221,-101.32,-1312.07,500.00
5570,-3.8712,0.2523,0.0251,-241.94,-1171.45,0.00
5580,-3.8713,0.2590,0.0282,304.93,-780.76,-375.00
5590,-3.8713,0.2631,0.0316,1164.31,-390.14,-687.50
5600,-3.8713,0.2620,0.0367,1679.93,47.36,-906.19
5610,-3.8713,0.2582,0.0399,1539.31,703.61,-671.81
5620,-3.8713,0.2532,0.0356,1054.93,1109.86,-124.94
5630,-3.8713,0.2489,0.0264,414.31,562.99,-46.81
5640,-3.8713,0.2490,0.0194,-132.57,-624.57,-484.38
5650,-3.8713,0.2529,0.0187,-116.94,-1515.20,-859.38
5660,-3.8713,0.2572,0.0239,383.06,-1608.89,-937.50
5670,-3.8713,0.2601,0.0316,929.93,-937.01,-656.25
5680,-3.8712,0.2617,0.0391,1304.93,47.36,0.06
5690,-3.8712,0.2640,0.0465,1508.06,1000.49,765.69
5700,-3.8712,0.2695,0.0508,1804.93,1953.61,1625.06
5710,-3.8712,0.2723,0.0475,-1491.94,-1499.51,-1656.19
5720,-3.8712,0.2667,0.0369,-1132.57,-1921.39,-1453.06
5730,-3.8712,0.2557,0.0253,-1851.32,719.24,-1828.06
5740,-3.8712,0.2446,0.0192,742.43,-765.14,1437.50
5750,-3.8712,0.2377,0.0184,-679.44,-1546.45,656.25
5760,-3.8713,0.2372,0.0197,-1570.07,-1640.20,-109.38
5770,-3.8713,0.2396,0.0227,-1632.57,-1483.95,-859.38
5780,-3.8713,0.2444,0.0284,-1320.07,-1093.32,-1265.62
5790,-3.8713,0.2517,0.0364,-710.69,-358.95,-1000.00
5800,-3.8713,0.2589,0.0437,226.81,656.74,-265.56
5810,-3.8712,0.2628,0.0458,1148.68,1594.24,453.19
5820,-3.8712,0.2645,0.0428,1648.68,1859.86,921.94
5830,-3.8712,0.2671,0.0397,1867.43,1484.86,1031.31
5840,-3.8712,0.2690,0.0388,-1804.44,1078.61,843.81
5850,-3.8712,0.2683,0.0380,-1554.44,969.24,562.56
5860,-3.8712,0.2656,0.0353,-1648.19,859.86,125.06
5870,-3.8713,0.2626,0.0325,-1991.94,516.11,-499.94
5880,-3.8713,0.2596,0.0331,1617.43,156.74,-1171.81
5890,-3.8713,0.2551,0.0360,1242.43,234.86,-1562.44
5900,-3.8713,0.2500,0.0375,664.31,609.86,-1453.06
5910,-3.8713,0.2455,0.0369,8.06,797.36,-812.44
5920,-3.8712,0.2416,0.0344,-570.07,719.18,15.69
5930,-3.8712,0.2396,0.0316,-1070.07,406.68,406.31
5940,-3.8712,0.2430,0.0302,-1320.07,47.30,296.94
5950,-3.8713,0.2520,0.0303,-882.57,-140.20,-15.62
5960,-3.8713,0.2618,0.0316,258.06,-124.51,-328.12
5970,-3.8713,0.2693,0.0347,1523.68,47.36,-531.19
5980,-3.8713,0.2732,0.0398,-1523.19,437.99,-437.44
5990,-3.8713,0.2738,0.0430,-1023.19,1094.24,-15.56
6000,-3.8712,0.2705,0.0398,-945.07,1500.49,546.94
6010,-3.8712,0.2644,0.0348,-1366.94,1094.24,953.19
6020,-3.8712,0.2577,0.0327,1851.81,453.61,1109.44
6030,-3.8712,0.2512,0.0325,992.43,187.99,1171.94
6040,-3.8712,0.2458,0.0305,164.31,156.74,1328.19
6050,-3.8712,0.2428,0.0280,-523.19,-93.32,1312.50
6060,-3.8712,0.2454,0.0287,-913.82,-421.45,953.12
6070,-3.8712,0.2534,0.0312,-585.69,-327.70,562.50
6080,-3.8712,0.2626,0.0331,445.56,0.49,312.56
6090,-3.8712,0.2683,0.0345,1617.43,234.86,78.19
6100,-3.8713,0.2693,0.0383,-1648.19,422.36,-187.44
6110,-3.8713,0.2672,0.0409,-1523.19,906.74,-249.94
6120,-3.8713,0.2635,0.0381,-1788.82,1234.86,-62.44
6130,-3.8712,0.2600,0.0327,1742.43,875.49,15.69
6140,-3.8713,0.2574,0.0293,1289.31,187.99,-93.69
6150,-3.8713,0.2566,0.0298,961.18,-249.51,-93.75
6160,-3.8712,0.2573,0.0332,851.81,-187.01,187.50
6170,-3.8712,0.2582,0.0385,945.56,250.49,531.31
6180,-3.8712,0.2590,0.0431,1054.93,922.36,796.94
6190,-3.8712,0.2594,0.0432,1164.31,1516.11,1078.19
6200,-3.8712,0.2572,0.0387,1211.18,1531.74,1265.69
6210,-3.8712,0.2529,0.0338,929.93,953.61,1265.69
6220,-3.8712,0.2504,0.0319,383.06,328.61,1140.69
6230,-3.8712,0.2540,0.0317,54.93,78.61,953.19
6240,-3.8712,0.2623,0.0328,523.68,62.99,765.69
6250,-3.8712,0.2693,0.0343,1586.18,203.61,546.94
6260,-3.8712,0.2710,0.0364,-1523.19,391.11,203.19
6270,-3.8713,0.2682,0.0409,-1304.44,656.74,-218.69
6280,-3.8713,0.2657,0.0448,-1663.82,1234.86,-515.56
6290,-3.8713,0.2656,0.0431,-1976.32,1734.86,-718.69
6300,-3.8713,0.2651,0.0378,-1991.94,1516.11,-1062.44
6310,-3.8713,0.2621,0.0343,1945.56,844.24,-1437.44
6320,-3.8713,0.2578,0.0322,1554.93,391.11,-1703.06
6330,-3.8713,0.2539,0.0311,1008.06,125.49,-1890.56
6340,-3.8713,0.2533,0.0341,508.06,-15.14,1984.38
6350,-3.8713,0.2561,0.0391,429.93,359.86,-1796.81
6360,-3.8713,0.2579,0.0411,789.31,1000.49,-1140.56
6370,-3.8713,0.2560,0.0416,1023.68,1266.11,-546.81
6380,-3.8713,0.2511,0.0416,773.68,1328.61,-140.56
6390,-3.8712,0.2461,0.0385,148.68,1328.61,359.44
6400,-3.8712,0.2446,0.0332,-491.94,922.30,796.94
6410,-3.8712,0.2488,0.0305,-679.44,250.43,843.81
6420,-3.8712,0.2568,0.0328,-148.19,-93.32,718.75
6430,-3.8712,0.2660,0.0377,883.06,203.61,765.69
6440,-3.8712,0.2732,0.0420,-1945.07,828.61,859.44
6450,-3.8712,0.2739,0.0439,-1023.19,1375.49,953.19
6460,-3.8712,0.2670,0.0447,-929.44,1625.49,1031.31
6470,-3.8712,0.2566,0.0448,-1820.07,1719.24,1140.69
6480,-3.8712,0.2478,0.0411,851.81,1734.86,1343.81
6490,-3.8712,0.2412,0.0354,-273.19,1266.05,1468.81
6500,-3.8712,0.2378,0.0325,-1116.94,531.68,1390.69
6510,-3.8712,0.2395,0.0319,-1554.44,156.68,1140.69
6520,-3.8712,0.2449,0.0310,-1335.69,78.55,750.06
6530,-3.8712,0.2493,0.0284,-648.19,-30.82,265.62
6540,-3.8713,0.2507,0.0284,-85.69,-358.95,-296.88
6550,-3.8713,0.2524,0.0344,101.81,-358.89,-734.38
6560,-3.8713,0.2567,0.0427,320.56,406.74,-687.44
6570,-3.8713,0.2614,0.0471,867.43,1469.24,-312.44
6580,-3.8713,0.2651,0.0493,1461.18,-1968.26,-203.06
6590,-3.8713,0.2676,0.0527,1945.56,-1687.01,-156.19
6600,-3.8712,0.2671,0.0520,-1741.94,-1249.51,250.06
6610,-3.8712,0.2632,0.0442,-1804.44,-1343.26,671.94
6620,-3.8712,0.2555,0.0341,1695.56,1656.74,468.81
6630,-3.8713,0.2463,0.0277,711.18,359.86,-249.94
6640,-3.8713,0.2413,0.0280,-460.69,-452.70,-890.62
6650,-3.8713,0.2430,0.0316,-1101.32,-421.45,-1046.88
6660,-3.8713,0.2472,0.0330,-882.57,47.30,-968.69
6670,-3.8713,0.2499,0.0316,-351.32,219.18,-1078.06
6680,-3.8713,0.2517,0.0337,-7.57,47.30,-1218.69
6690,-3.8713,0.2538,0.0430,226.81,312.99,-890.56
6700,-3.8713,0.2557,0.0532,492.43,1500.49,-93.69
6710,-3.8712,0.2577,0.0543,742.43,-1187.01,796.94
6720,-3.8712,0.2594,0.0464,992.43,-1046.39,1171.94
6730,-3.8712,0.2615,0.0376,1211.18,1937.99,750.06
6740,-3.8712,0.2632,0.0338,1476.81,812.99,109.44
6750,-3.8713,0.2631,0.0353,1695.56,328.61,-296.81
6760,-3.8713,0.2615,0.0371,1679.93,516.11,-421.81
6770,-3.8713,0.2600,0.0370,1476.81,750.49,-312.44
6780,-3.8713,0.2615,0.0354,1289.31,734.86,-296.81
6790,-3.8713,0.2644,0.0354,1476.81,531.74,-531.19
6800,-3.8713,0.2637,0.0400,1851.81,531.74,-859.31
6810,-3.8713,0.2588,0.0454,1758.06,1125.49,-734.31
6820,-3.8713,0.2556,0.0465,1133.06,1812.99,-171.81
6830,-3.8712,0.2548,0.0435,726.81,1953.61,250.06
6840,-3.8712,0.2544,0.0388,617.43,1562.99,390.69
6850,-3.8712,0.2543,0.0364,570.56,969.24,359.44
6860,-3.8712,0.2534,0.0378,554.93,656.74,296.94
6870,-3.8712,0.2543,0.0400,445.56,844.24,421.94
6880,-3.8712,0.2593,0.0387,554.93,1125.49,546.94
6890,-3.8712,0.2661,0.0336,1195.56,953.61,406.31
6900,-3.8712,0.2701,0.0298,-1929.44,297.36,46.94
6910,-3.8713,0.2706,0.0311,-1413.82,-187.01,-250.00
6920,-3.8713,0.2686,0.0363,-1351.32,-15.14,-93.75
6930,-3.8712,0.2649,0.0396,-1616.94,641.11,484.44
6940,-3.8712,0.2599,0.0388,1914.31,1062.99,1078.19
6950,-3.8712,0.2567,0.0402,1273.68,969.24,1546.94
6960,-3.8712,0.2574,0.0477,867.43,1141.11,-1765.56
6970,-3.8712,0.2600,0.0526,961.18,-1890.14,-859.31
6980,-3.8712,0.2617,0.0458,1289.31,-1265.14,-421.81
6990,-3.8712,0.2638,0.0323,1508.06,1859.86,-859.31
7000,-3.8712,0.2666,0.0240,1773.68,141.11,-1968.69
7010,-3.8712,0.2682,0.0292,-1866.94,-921.39,890.62
7020,-3.8712,0.2690,0.0460,-1663.82,-265.14,406.25
7030,-3.8712,0.2698,0.0602,-1554.44,1891.11,937.56
7040,-3.8712,0.2692,0.0573,-1460.69,-296.39,1875.06
7050,-3.8712,0.2665,0.0396,-1538.82,-671.39,1875.06
7060,-3.8712,0.2626,0.0222,-1882.57,1062.99,796.94
7070,-3.8713,0.2604,0.0154,1617.43,-1155.76,-687.50
7080,-3.8713,0.2594,0.0194,1336.18,1969.24,-1781.25
7090,-3.8713,0.2584,0.0288,1211.18,-1515.14,1984.38
7100,-3.8713,0.2578,0.0370,1086.18,-312.01,-1781.25
7110,-3.8713,0.2566,0.0416,1008.06,734.86,-1343.69
7120,-3.8713,0.2548,0.0437,851.81,1328.61,-843.69
7130,-3.8713,0.2549,0.0430,617.43,1594.24,-265.56
7140,-3.8712,0.2588,0.0413,633.06,1500.49,125.06
7150,-3.8712,0.2637,0.0404,1133.06,1281.74,250.06
7160,-3.8712,0.2666,0.0391,1758.06,1172.36,406.31
7170,-3.8712,0.2676,0.0361,-1866.94,1000.49,578.19
7180,-3.8712,0.2664,0.0334,-1741.94,625.49,609.44
7190,-3.8712,0.2646,0.0333,-1898.19,281.74,562.56
7200,-3.8712,0.2644,0.0344,1883.06,266.11,562.56
7210,-3.8712,0.2638,0.0353,1851.81,406.74,375.06
7220,-3.8712,0.2604,0.0370,1773.68,516.11,156.31
7230,-3.8712,0.2554,0.0394,1336.18,734.86,328.19
7240,-3.8712,0.2500,0.0389,695.56,1047.36,687.56
7250,-3.8712,0.2467,0.0344,8.06,984.86,796.94
7260,-3.8712,0.2484,0.0297,-413.82,406.68,703.19
7270,-3.8712,0.2531,0.0272,-195.07,-202.70,562.50
7280,-3.8712,0.2581,0.0265,398.68,-515.14,328.12
7290,-3.8712,0.2614,0.0265,1039.31,-608.89,140.62
7300,-3.8713,0.2610,0.0254,1461.18,-608.89,-31.25
7310,-3.8713,0.2589,0.0238,1414.31,-749.51,-156.25
7320,-3.8713,0.2574,0.0250,1148.68,-952.64,-93.75
7330,-3.8712,0.2551,0.0295,961.18,-796.39,109.38
7340,-3.8712,0.2532,0.0344,664.31,-218.26,328.12
7350,-3.8712,0.2544,0.0397,414.31,406.74,578.19
7360,-3.8712,0.2574,0.0458,570.56,1078.61,1078.19
7370,-3.8712,0.2588,0.0509,961.18,1859.86,1656.31
7380,-3.8712,0.2587,0.0519,1133.06,-1483.89,-1906.19
7390,-3.8712,0.2583,0.0469,1117.43,-1358.89,-1671.81
7400,-3.8712,0.2582,0.0380,1070.56,-1999.51,-1906.19
7410,-3.8712,0.2593,0.0292,1054.93,859.86,1171.94
7420,-3.8713,0.2618,0.0244,1195.56,-265.14,-171.88
7430,-3.8713,0.2629,0.0250,1523.68,-874.51,-1406.25
7440,-3.8713,0.2610,0.0286,1664.31,-796.39,1781.25
7450,-3.8713,0.2588,0.0330,1414.31,-343.26,1359.38
7460,-3.8713,0.2570,0.0371,1133.06,219.24,1296.94
7470,-3.8713,0.2544,0.0399,898.68,750.49,1671.94
7480,-3.8713,0.2505,0.0409,570.56,1109.86,-1484.31
7490,-3.8713,0.2466,0.0388,70.56,1234.86,-546.81
7500,-3.8712,0.2450,0.0325,-429.44,969.18,62.56
7510,-3.8712,0.2469,0.0259,-632.57,156.68,203.19
7520,-3.8713,0.2515,0.0229,-382.57,-687.07,-31.25
7530,-3.8713,0.2545,0.0223,195.56,-1062.01,-328.12
7540,-3.8713,0.2556,0.0229,586.18,-1140.14,-562.50
7550,-3.8713,0.2563,0.0275,726.81,-1062.01,-640.62
7560,-3.8713,0.2571,0.0383,820.56,-483.89,-421.88
7570,-3.8712,0.2587,0.0514,914.31,906.74,265.69
7580,-3.8712,0.2599,0.0543,1117.43,-1421.39,1359.44
7590,-3.8712,0.2578,0.0421,1273.68,-1046.39,-1999.94
7600,-3.8712,0.2518,0.0242,1008.06,1391.11,1609.44
7610,-3.8712,0.2455,0.0123,242.43,-905.76,359.38
7620,-3.8713,0.2419,0.0094,-570.07,1578.55,-1125.00
7630,-3.8713,0.2430,0.0112,-1023.19,1203.55,1609.38
7640,-3.8713,0.2487,0.0157,-882.57,1437.93,781.25
7650,-3.8713,0.2563,0.0256,-163.82,-1983.95,656.25
7660,-3.8713,0.2651,0.0414,820.56,-718.26,1437.50
7670,-3.8713,0.2728,0.0547,1945.56,1297.36,-859.31
7680,-3.8712,0.2737,0.0557,-1070.07,-999.51,1171.94
7690,-3.8712,0.2667,0.0439,-960.69,-874.51,-1484.31
7700,-3.8712,0.2556,0.0293,-1851.32,1625.49,-1234.31
7710,-3.8712,0.2457,0.0193,726.81,-249.51,-1671.88
7720,-3.8712,0.2417,0.0156,-538.82,-1530.82,1687.50
7730,-3.8712,0.2435,0.0166,-1054.44,-1999.57,1046.88
7740,-3.8712,0.2480,0.0194,-820.07,-1874.57,593.75
7750,-3.8712,0.2515,0.0234,-241.94,-1515.20,421.88
7760,-3.8712,0.2523,0.0281,195.56,-999.51,421.88
7770,-3.8712,0.2522,0.0327,304.93,-405.76,609.38
7780,-3.8712,0.2521,0.0363,289.31,187.99,968.81
7790,-3.8712,0.2524,0.0352,273.68,641.11,1343.81
7800,-3.8712,0.2526,0.0289,320.56,500.49,1359.44
7810,-3.8712,0.2521,0.0223,336.18,-296.39,859.38
7820,-3.8712,0.2526,0.0183,273.68,-1140.14,62.50
7830,-3.8713,0.2551,0.0187,336.18,-1655.76,-734.38
7840,-3.8713,0.2592,0.0240,664.31,-1608.89,-1265.62
7850,-3.8713,0.2632,0.0311,1179.93,-921.39,-1390.62
7860,-3.8713,0.2649,0.0361,1695.56,-15.14,-1328.12
7870,-3.8713,0.2617,0.0386,1914.31,625.49,-1187.44
7880,-3.8713,0.2543,0.0367,1508.06,937.99,-859.31
7890,-3.8713,0.2476,0.0315,554.93,703.61,-453.06
7900,-3.8713,0.2452,0.0260,-304.44,31.68,-171.81
7910,-3.8713,0.2457,0.0233,-601.32,-671.45,-46.88
7920,-3.8713,0.2479,0.0254,-538.82,-1015.20,-15.62
7930,-3.8712,0.2529,0.0287,-257.57,-749.57,15.62
7940,-3.8712,0.2584,0.0298,383.06,-327.64,156.25
7950,-3.8712,0.2622,0.0305,1086.18,-187.01,218.75
7960,-3.8712,0.2628,0.0317,1570.56,-93.26,171.88
7970,-3.8712,0.2590,0.0316,1648.68,62.99,171.94
7980,-3.8712,0.2515,0.0284,1164.31,47.36,406.31
7990,-3.8712,0.2444,0.0219,195.56,-358.89,562.50
8000,-3.8712,0.2417,0.0150,-710.69,-1202.70,328.12
8010,-3.8713,0.2443,0.0132,-1054.44,1922.30,-187.50
8020,-3.8713,0.2505,0.0175,-726.32,1687.93,-562.50
8030,-3.8713,0.2572,0.0232,70.56,-1765.14,-609.38
8040,-3.8713,0.2632,0.0260,929.93,-1030.76,-531.25
8050,-3.8713,0.2687,0.0272,1695.56,-671.39,-328.12
8060,-3.8712,0.2725,0.0302,-1601.32,-515.14,0.00
8070,-3.8712,0.2736,0.0344,-1116.94,-140.14,312.50
8080,-3.8712,0.2721,0.0363,-976.32,406.74,703.19
8090,-3.8712,0.2683,0.0331,-1163.82,641.11,1140.69
8100,-3.8712,0.2632,0.0272,-1648.19,234.86,1343.81
8110,-3.8712,0.2577,0.0239,1695.56,-515.14,1250.00
8120,-3.8712,0.2528,0.0238,992.43,-937.01,1078.12
8130,-3.8712,0.2489,0.0236,367.43,-952.64,1062.50
8140,-3.8712,0.2473,0.0220,-132.57,-983.95,1078.12
8150,-3.8712,0.2500,0.0198,-335.69,-1187.07,781.25
8160,-3.8712,0.2550,0.0168,8.06,-1468.26,281.25
8170,-3.8713,0.2601,0.0159,648.68,-1843.26,-187.50
8180,-3.8713,0.2637,0.0211,1304.93,-1968.26,-390.62
8190,-3.8712,0.2627,0.0288,1758.06,-1296.39,15.62
8200,-3.8712,0.2588,0.0320,1633.06,-312.01,828.12
8210,-3.8712,0.2552,0.0300,1133.06,94.24,1359.44
8220,-3.8712,0.2535,0.0250,679.93,-155.76,1421.88
8230,-3.8712,0.2516,0.0193,461.18,-796.39,1265.62
8240,-3.8712,0.2485,0.0150,211.18,-1530.76,890.62
8250,-3.8712,0.2467,0.0139,-179.44,1922.30,421.88
8260,-3.8712,0.2473,0.0165,-413.82,1781.68,171.88
8270,-3.8712,0.2505,0.0219,-335.69,-1890.20,140.62
8280,-3.8712,0.2539,0.0283,70.56,-1202.64,375.00
8290,-3.8712,0.2551,0.0345,508.06,-374.51,718.75
8300,-3.8712,0.2538,0.0400,664.31,422.36,937.56
8310,-3.8712,0.2506,0.0416,492.43,1125.49,1015.69
8320,-3.8712,0.2496,0.0354,86.18,1328.61,640.69
8330,-3.8713,0.2512,0.0240,-38.82,531.68,-468.69
8340,-3.8713,0.2502,0.0145,164.31,-921.39,1968.75
8350,-3.8713,0.2467,0.0105,39.31,1859.86,468.75
8360,-3.8715,0.2441,0.0121,-413.82,1344.18,-500.00
8370,-3.8715,0.2455,0.0187,-741.94,1547.30,-781.25
8380,-3.8715,0.2511,0.0273,-570.07,-1608.95,-312.50
8390,-3.8713,0.2562,0.0345,148.68,-499.51,859.38
8400,-3.8713,0.2559,0.0385,804.93,422.36,-1828.06
8410,-3.8713,0.2523,0.0363,758.06,922.36,-781.19
8420,-3.8713,0.2510,0.0280,304.93,641.11,-62.44
8430,-3.8712,0.2551,0.0187,133.06,-421.39,218.75
8440,-3.8712,0.2639,0.0144,664.31,-1608.89,156.25
8450,-3.8712,0.2739,0.0159,1789.31,1844.24,15.62
8460,-3.8712,0.2814,0.0226,-929.44,-1968.26,78.12
8470,-3.8712,0.2837,0.0306,23.68,-1108.83,656.25
8480,-3.8712,0.2794,0.0328,320.56,-77.58,1718.75
8490,-3.8712,0.2710,0.0282,-226.32,203.61,-1296.81
8500,-3.8712,0.2632,0.0236,-1304.44,-390.14,-906.25
8510,-3.8712,0.2582,0.0245,1695.56,-983.89,-843.75
8520,-3.8712,0.2568,0.0284,1054.93,-858.89,-578.12
8530,-3.8712,0.2572,0.0291,883.06,-358.89,-171.88
8540,-3.8712,0.2562,0.0267,929.93,-280.76,-187.50
8550,-3.8712,0.2535,0.0251,804.93,-577.64,-703.12
8560,-3.8712,0.2509,0.0236,461.18,-780.76,-1406.25
8570,-3.8712,0.2482,0.0225,117.43,-983.89,1781.25
8580,-3.8712,0.2463,0.0250,-226.32,-1124.57,937.50
8590,-3.8712,0.2478,0.0288,-460.69,-796.45,343.75
8600,-3.8712,0.2512,0.0269,-273.19,-312.07,62.50
8610,-3.8713,0.2538,0.0220,164.31,-562.01,-234.38
8620,-3.8713,0.2566,0.0225,492.43,-1187.01,-625.00
8630,-3.8713,0.2596,0.0265,851.81,-1124.51,-671.88
8640,-3.8713,0.2617,0.0266,1242.43,-608.89,-437.50
8650,-3.8713,0.2612,0.0220,1508.06,-593.26,-359.38
8660,-3.8713,0.2577,0.0193,1445.56,-1187.01,-500.00
8670,-3.8713,0.2534,0.0229,992.43,-1530.76,-453.12
8680,-3.8712,0.2515,0.0277,445.56,-1062.01,15.62
8690,-3.8712,0.2545,0.0309,195.56,-452.64,593.75
8700,-3.8712,0.2617,0.0366,586.18,-46.39,1062.50
8710,-3.8712,0.2670,0.0420,1508.06,687.99,1734.44
8720,-3.8712,0.2651,0.0383,-1820.07,1375.49,-1531.19
8730,-3.8712,0.2552,0.0264,1945.56,906.74,-1390.56
8740,-3.8712,0.2421,0.0165,679.93,-624.51,1921.88
8750,-3.8712,0.2324,0.0154,-1007.57,-1890.20,906.25
8760,-3.8712,0.2292,0.0181,1758.06,1969.18,265.62
8770,-3.8712,0.2333,0.0179,1351.81,-1687.07,46.88
8780,-3.8713,0.2400,0.0157,1867.43,-1702.70,-265.62
8790,-3.8713,0.2462,0.0168,-1273.19,-1983.95,-968.75
8800,-3.8713,0.2537,0.0216,-476.32,-1843.32,-1625.00
8810,-3.8713,0.2623,0.0259,476.81,-1233.89,-1859.38
8820,-3.8713,0.2699,0.0277,1586.18,-687.01,-1984.38
8830,-3.8713,0.2732,0.0300,-1445.07,-452.64,1828.12
8840,-3.8713,0.2717,0.0343,-1023.19,-155.76,-1906.25
8850,-3.8713,0.2655,0.0339,-1210.69,391.11,-1031.19
8860,-3.8713,0.2557,0.0251,1992.43,344.24,-359.31
8870,-3.8713,0.2474,0.0137,742.43,-780.76,-484.38
8880,-3.8713,0.2457,0.0071,-320.07,1750.43,-1031.25
8890,-3.8713,0.2511,0.0107,-538.82,906.68,-1453.12
8900,-3.8713,0.2590,0.0216,148.68,1375.49,-1250.00
8910,-3.8713,0.2643,0.0288,1164.31,-1233.89,-328.12
8920,-3.8712,0.2631,0.0270,1836.18,-312.01,625.00
8930,-3.8712,0.2574,0.0233,1679.93,-546.39,1031.25
8940,-3.8712,0.2549,0.0284,961.18,-1015.14,1203.12
8950,-3.8712,0.2589,0.0396,633.06,-358.89,1812.50
8960,-3.8712,0.2648,0.0419,1148.68,1062.99,-1359.31
8970,-3.8712,0.2662,0.0299,1898.68,1359.86,-1187.44
8980,-3.8712,0.2623,0.0116,-1913.82,-171.39,1890.62
8990,-3.8712,0.2552,-0.0015,1586.18,1484.86,281.25
9000,-3.8713,0.2495,-0.0034,679.93,-187.01,-1250.06
9010,-3.8713,0.2485,0.0049,-54.44,-437.07,1843.69
9020,-3.8713,0.2512,0.0184,-179.44,625.43,1781.25
9030,-3.8713,0.2535,0.0314,164.31,-1640.14,-1453.12
9040,-3.8713,0.2509,0.0392,461.18,16.11,-62.44
9050,-3.8712,0.2455,0.0393,117.43,1016.11,1265.69
9060,-3.8712,0.2424,0.0294,-570.07,1031.68,1765.69
9070,-3.8712,0.2435,0.0144,-960.69,-233.95,1171.88
9080,-3.8713,0.2494,0.0049,-820.07,1844.18,-140.62
9090,-3.8713,0.2585,0.0044,-70.07,625.43,-1437.50
9100,-3.8713,0.2675,0.0092,1101.81,562.99,1750.00
9110,-3.8713,0.2739,0.0148,-1757.57,1172.36,1703.12
9120,-3.8713,0.2772,0.0190,-929.44,1891.11,-1671.88
9130,-3.8713,0.2761,0.0229,-507.57,-1562.01,-562.50
9140,-3.8712,0.2712,0.0262,-648.19,-1062.01,921.88
9150,-3.8712,0.2643,0.0259,-1273.19,-640.14,-1625.00
9160,-3.8712,0.2552,0.0200,1836.18,-687.01,-656.25
9170,-3.8712,0.2434,0.0106,679.93,-1437.01,-171.88
9180,-3.8712,0.2305,0.0021,-835.69,1359.80,-78.12
9190,-3.8712,0.2238,-0.0012,1508.06,266.05,-265.62
9200,-3.8712,0.2278,0.0021,648.68,-155.82,-484.44
9210,-3.8712,0.2408,0.0112,1164.31,266.05,-687.50
9220,-3.8712,0.2594,0.0245,-1163.82,1437.93,-937.50
9230,-3.8712,0.2780,0.0383,1211.18,-858.89,-1203.12
9240,-3.8712,0.2892,0.0463,-413.82,906.74,-1265.56
9250,-3.8712,0.2910,0.0438,1023.68,1922.42,-1406.19
9260,-3.8712,0.2854,0.0333,1258.06,1609.92,1968.81
9270,-3.8712,0.2742,0.0221,539.31,266.17,890.69
9280,-3.8713,0.2614,0.0151,-898.19,-1171.39,-468.75
9290,-3.8713,0.2513,0.0128,1461.18,1937.99,-1687.50
9300,-3.8713,0.2469,0.0123,179.93,1641.11,1390.62
9310,-3.8713,0.2468,0.0127,-382.57,1578.55,781.25
9320,-3.8713,0.2483,0.0155,-398.19,1625.43,531.25
9330,-3.8713,0.2509,0.0209,-210.69,1984.80,703.12
9340,-3.8713,0.2544,0.0276,117.43,-1327.64,1343.75
9350,-3.8713,0.2572,0.0325,570.56,-468.26,-1734.38
9360,-3.8713,0.2584,0.0309,929.93,156.74,-999.94
9370,-3.8713,0.2577,0.0233,1086.18,-46.39,-843.75
9380,-3.8713,0.2549,0.0143,992.43,-1015.14,-1203.12
9390,-3.8713,0.2510,0.0077,633.06,1828.61,-1625.00
9400,-3.8713,0.2491,0.0066,133.06,984.86,-1906.25
9410,-3.8713,0.2533,0.0126,-101.32,844.18,-1828.12
9420,-3.8713,0.2631,0.0236,429.93,1609.86,-1046.88
9430,-3.8712,0.2727,0.0317,1679.93,-983.89,234.38
9440,-3.8712,0.2759,0.0317,-1085.69,62.99,1500.06
9450,-3.8712,0.2725,0.0269,-679.44,62.99,-1749.94
9460,-3.8712,0.2678,0.0216,-1116.94,-562.01,-1484.38
9470,-3.8712,0.2644,0.0157,-1710.69,-1233.89,-1421.88
9480,-3.8712,0.2621,0.0090,1851.81,-1983.89,-1593.75
9490,-3.8712,0.2612,0.0039,1554.93,1156.74,1937.50
9500,-3.8712,0.2612,0.0021,1445.56,500.49,1281.25
9510,-3.8712,0.2617,0.0042,1445.56,266.11,781.25
9520,-3.8712,0.2600,0.0103,1508.06,531.74,718.75
9530,-3.8712,0.2538,0.0190,1289.31,1312.99,1171.88
9540,-3.8712,0.2454,0.0259,492.43,-1562.01,-1906.25
9550,-3.8712,0.2388,0.0251,-585.69,-687.07,-812.50
9560,-3.8712,0.2365,0.0172,-1429.44,-780.82,-187.50
9570,-3.8712,0.2367,0.0087,-1726.32,-1796.45,-484.38
9580,-3.8712,0.2389,0.0052,-1695.07,1109.80,-1468.75
9590,-3.8712,0.2440,0.0076,-1413.82,672.30,1421.88
9600,-3.8712,0.2491,0.0105,-757.57,969.18,656.25
9610,-3.8712,0.2526,0.0111,-101.32,1344.18,140.62
9620,-3.8713,0.2540,0.0132,336.18,1422.36,-343.75
9630,-3.8713,0.2528,0.0195,523.68,1687.99,-671.88
9640,-3.8713,0.2498,0.0264,367.43,-1499.51,-421.88
9650,-3.8712,0.2456,0.0276,-23.19,-624.57,328.12
9660,-3.8712,0.2416,0.0217,-554.44,-468.32,828.12
9670,-3.8712,0.2410,0.0145,-1070.07,-1218.32,625.00
9680,-3.8713,0.2433,0.0101,-1148.19,1859.80,-46.88
9690,-3.8713,0.2479,0.0074,-851.32,1297.30,-828.12
9700,-3.8713,0.2534,0.0052,-257.57,953.55,-1578.12
9710,-3.8713,0.2576,0.0061,445.56,672.36,1875.00
9720,-3.8713,0.2574,0.0116,976.81,781.74,1906.25
9730,-3.8713,0.2511,0.0183,961.18,1484.86,-1281.25
9740,-3.8713,0.2437,0.0222,148.68,-1655.76,-250.00
9750,-3.8712,0.2401,0.0221,-804.44,-1155.82,500.00
9760,-3.8712,0.2412,0.0170,-1257.57,-1171.45,750.00
9770,-3.8712,0.2452,0.0093,-1116.94,-1827.70,390.62
9780,-3.8713,0.2482,0.0033,-601.32,1187.93,-265.62
9790,-3.8713,0.2467,0.0012,-226.32,422.30,-875.00
9800,-3.8713,0.2422,0.0028,-413.82,156.68,-1328.12
9810,-3.8713,0.2404,0.0065,-991.94,359.80,-1609.38
9820,-3.8713,0.2460,0.0122,-1226.32,828.55,-1593.75
9830,-3.8713,0.2570,0.0212,-507.57,1562.93,-1250.00
9840,-3.8713,0.2672,0.0286,898.68,-1280.76,-406.25
9850,-3.8712,0.2712,0.0281,-1788.82,-343.26,750.00
9860,-3.8712,0.2686,0.0210,-1273.19,-405.76,1484.38
9870,-3.8712,0.2612,0.0138,-1616.94,-1312.01,1531.25
9880,-3.8712,0.2522,0.0093,1445.56,1766.11,1296.88
9890,-3.8712,0.2450,0.0063,289.31,1187.99,1078.12
9900,-3.8712,0.2424,0.0054,-632.57,812.93,750.00
9910,-3.8712,0.2441,0.0052,-960.69,687.93,375.00
9920,-3.8712,0.2457,0.0062,-741.94,672.30,125.00
9930,-3.8712,0.2468,0.0111,-538.82,797.30,140.62
9940,-3.8712,0.2487,0.0182,-398.19,1422.30,718.75
9950,-3.8712,0.2501,0.0217,-163.82,-1671.45,1640.62
9960,-3.8712,0.2506,0.0193,23.68,-1218.26,-1937.50
9970,-3.8712,0.2524,0.0120,86.18,-1530.76,1765.62
9980,-3.8712,0.2546,0.0023,320.56,1531.74,1078.12
9990,-3.8712,0.2540,-0.0040,601.81,297.36,78.12
10000,-3.8713,0.2498,-0.0035,523.68,-515.14,-828.19
10010,-3.8713,0.2449,0.0009,-23.19,-452.70,-1015.69
10020,-3.8713,0.2422,0.0072,-648.19,109.80,-515.62
10030,-3.8712,0.2438,0.0146,-991.94,922.30,359.38
10040,-3.8712,0.2511,0.0177,-788.82,1875.43,1453.12
10050,-3.8712,0.2584,0.0117,148.68,-1733.89,-1828.12
10060,-3.8712,0.2604,0.0021,1086.18,1500.49,1953.12
10070,-3.8712,0.2577,-0.0033,1336.18,266.11,1281.25
10080,-3.8712,0.2507,-0.0024,992.43,-421.39,984.31
10090,-3.8712,0.2402,0.0010,101.81,-312.01,1234.31
10100,-3.8712,0.2325,0.0023,-1241.94,125.43,1609.38
10110,-3.8712,0.2319,0.0049,1773.68,297.30,1843.75
10120,-3.8712,0.2377,0.0121,1695.56,625.43,-1953.12
10130,-3.8712,0.2485,0.0173,-1570.07,1547.30,-1578.12
10140,-3.8712,0.2590,0.0150,-179.44,-1780.82,-1312.50
10150,-3.8712,0.2631,0.0062,1164.31,1922.36,-1343.75
10160,-3.8712,0.2607,-0.0031,1679.93,797.36,-1484.38
10170,-3.8712,0.2548,-0.0073,1383.06,-390.14,-1703.19
10180,-3.8712,0.2477,-0.0067,617.43,-937.01,-1875.06
10190,-3.8712,0.2428,-0.0051,-288.82,-858.95,-1718.81
10200,-3.8712,0.2443,-0.0027,-913.82,-655.82,-1640.69
10210,-3.8712,0.2527,0.0038,-726.32,-343.32,-1718.81
10220,-3.8712,0.2631,0.0135,351.81,484.86,-1421.88
10230,-3.8712,0.2662,0.0214,1679.93,1734.86,-671.88
10240,-3.8712,0.2592,0.0197,-1913.82,-1265.14,-140.62
10250,-3.8712,0.2461,0.0067,1179.93,-1483.89,-343.75
10260,-3.8712,0.2334,-0.0094,-491.94,859.80,-1484.38
10270,-3.8712,0.2267,-0.0216,1883.06,-1202.70,687.44
10280,-3.8713,0.2284,-0.0221,1023.68,1234.80,-687.56
10290,-3.8713,0.2347,-0.0076,1242.43,1172.30,-1000.06
10300,-3.8713,0.2416,0.0127,-1945.07,-968.32,-390.69
10310,-3.8712,0.2458,0.0250,-1070.07,1625.43,750.00
10320,-3.8712,0.2448,0.0227,-523.19,-796.45,1656.25
10330,-3.8712,0.2388,0.0106,-663.82,-1093.32,1593.75
10340,-3.8712,0.2302,-0.0022,-1429.44,1359.80,671.88
10350,-3.8713,0.2218,-0.0099,1476.81,-280.82,-281.31
10360,-3.8713,0.2148,-0.0103,398.68,-1265.20,-937.56
10370,-3.8713,0.2095,-0.0063,-491.94,-1312.13,-1234.44
10380,-3.8713,0.2065,-0.0042,-1179.44,-812.13,-1156.31
10390,-3.8713,0.2114,-0.0038,-1554.44,-530.88,-906.31
10400,-3.8713,0.2228,0.0020,-929.44,-484.01,-328.19
10410,-3.8712,0.2334,0.0129,523.68,250.43,609.38
10420,-3.8712,0.2395,0.0186,1883.06,1656.68,1750.00
10430,-3.8712,0.2395,0.0132,-1335.69,-1624.57,-1468.75
10440,-3.8712,0.2327,0.0027,-1335.69,1687.93,-1437.50
10450,-3.8712,0.2220,-0.0031,1789.31,344.18,-1906.25
10460,-3.8712,0.2123,0.0010,429.93,-390.20,1953.06
10470,-3.8712,0.2076,0.0109,-820.07,125.37,-1796.88
10480,-3.8712,0.2102,0.0178,-1413.82,1390.99,-1578.12
10490,-3.8712,0.2175,0.0182,-1085.69,-1718.38,-1515.62
10500,-3.8712,0.2256,0.0155,-148.19,-1671.51,-2000.00
10510,-3.8712,0.2318,0.0168,883.06,1984.80,1140.62
10520,-3.8712,0.2346,0.0228,1679.93,-1843.32,828.12
10530,-3.8712,0.2321,0.0267,-1960.69,-1077.70,1125.00
10540,-3.8712,0.2253,0.0227,1711.18,-577.70,1312.50
10550,-3.8712,0.2196,0.0114,851.81,-1093.32,656.25
10560,-3.8713,0.2175,-0.0009,117.43,1453.55,-750.00
10570,-3.8713,0.2147,-0.0072,-148.19,-109.01,1968.69
10580,-3.8713,0.2076,-0.0040,-507.57,-921.51,1437.44
10590,-3.8713,0.1998,0.0035,-1413.82,-515.26,1921.81
10600,-3.8713,0.1940,0.0109,1586.18,453.49,-796.88
10610,-3.8712,0.1919,0.0143,836.18,1390.99,593.75
10620,-3.8712,0.1971,0.0107,570.56,1828.49,1656.25
10630,-3.8712,0.2072,0.0032,1242.43,1375.37,-1703.12
10640,-3.8712,0.2161,-0.0022,-1476.32,406.62,-1656.25
10650,-3.8712,0.2207,0.0009,-335.69,-280.88,-1843.81
10660,-3.8712,0.2196,0.0100,258.06,109.80,-1640.62
10670,-3.8712,0.2134,0.0165,117.43,1281.68,-1125.00
10680,-3.8712,0.2075,0.0144,-679.44,-1890.26,-968.75
10690,-3.8712,0.2076,0.0059,-1429.44,1844.12,-1500.00
10700,-3.8712,0.2108,-0.0024,-1413.82,750.37,1578.12
10710,-3.8712,0.2097,-0.0061,-1007.57,-312.13,921.81
10720,-3.8712,0.2017,-0.0042,-1148.19,-780.88,828.06
10730,-3.8712,0.1899,-0.0004,1820.56,-530.88,1234.31
10740,-3.8712,0.1821,0.0006,320.56,-46.51,1640.56
10750,-3.8712,0.1835,-0.0028,-679.44,78.43,1421.88
10760,-3.8712,0.1932,-0.0057,-507.57,-359.07,609.31
10770,-3.8713,0.2063,-0.0048,742.43,-734.01,-156.31
10780,-3.8713,0.2156,-0.0013,-1585.69,-609.01,-328.19
10790,-3.8713,0.2158,0.0048,-398.19,-171.51,-15.69
10800,-3.8712,0.2075,0.0110,-366.94,609.74,656.25
10810,-3.8712,0.1965,0.0099,-1429.44,1406.62,1250.00
10820,-3.8712,0.1892,0.0004,1164.31,1265.99,1109.38
10830,-3.8712,0.1873,-0.0103,226.81,47.24,328.12
10840,-3.8713,0.1888,-0.0148,-23.19,-1312.19,-546.94
10850,-3.8713,0.1930,-0.0094,179.93,-1890.26,-984.44
10860,-3.8713,0.1985,0.0032,711.18,-1202.76,-671.94
10870,-3.8712,0.2028,0.0133,1414.31,406.62,171.88
10880,-3.8712,0.2034,0.0155,1961.18,1703.49,1031.25
10890,-3.8712,0.1996,0.0111,-1960.69,1984.74,1609.38
10900,-3.8712,0.1942,0.0050,1554.93,1422.24,-1906.25
10910,-3.8712,0.1915,0.0011,867.43,640.99,-1640.62
10920,-3.8712,0.1932,0.0005,523.68,140.99,-1796.88
10930,-3.8712,0.1985,0.0034,742.43,62.87,-1921.88
10940,-3.8712,0.2045,0.0076,1414.31,437.87,-1546.88
10950,-3.8712,0.2051,0.0099,-1820.07,969.12,-890.62
10960,-3.8712,0.1981,0.0087,-1741.94,1265.99,-484.38
10970,-3.8712,0.1912,0.0051,1367.43,1109.74,-406.25
10980,-3.8712,0.1903,0.0018,476.81,656.62,-421.88
10990,-3.8712,0.1937,0.0005,367.43,234.74,-390.62
11000,-3.8712,0.1991,0.0034,804.93,62.87,-343.75
11010,-3.8712,0.2036,0.0084,1492.43,437.87,-15.62
11020,-3.8711,0.2015,0.0104,-1929.44,1078.49,484.38
11030,-3.8711,0.1940,0.0083,1804.93,1328.49,625.00
11040,-3.8711,0.1888,0.0037,836.18,1062.87,187.50
11050,-3.8712,0.1890,-0.0007,179.93,469.12,-656.25
11060,-3.8712,0.1937,-0.0006,195.56,-93.38,-1437.56
11070,-3.8712,0.2013,0.0045,804.93,-77.76,-1625.06
11080,-3.8712,0.2034,0.0122,1773.68,578.49,-1156.25
11090,-3.8712,0.1951,0.0187,-1960.69,1562.87,-390.62
11100,-3.8711,0.1816,0.0197,976.81,-1609.01,281.25
11110,-3.8711,0.1716,0.0107,-741.94,-1484.07,421.88
11120,-3.8712,0.1698,-0.0029,1976.81,1375.31,-46.88
11130,-3.8712,0.1733,-0.0059,1742.43,-374.69,-1718.81
11140,-3.8712,0.1781,0.0027,-1804.44,-749.69,499.94
11150,-3.8712,0.1816,0.0099,-1195.07,344.06,234.38
11160,-3.8712,0.1825,0.0114,-741.94,1265.93,406.25
11170,-3.8712,0.1813,0.0123,-632.57,1453.43,468.75
11180,-3.8712,0.1810,0.0159,-788.82,1578.43,875.00
11190,-3.8712,0.1803,0.0195,-820.07,-1968.44,1546.88
11200,-3.8712,0.1729,0.0201,-913.82,-1499.69,-1796.88
11210,-3.8712,0.1606,0.0172,-1866.94,-1421.57,-1171.88
11220,-3.8712,0.1501,0.0133,570.56,-1796.57,-765.62
11230,-3.8712,0.1449,0.0101,-773.19,1703.37,-656.25
11240,-3.8712,0.1479,0.0079,-1445.07,1297.12,-640.62
11250,-3.8712,0.1584,0.0092,-1054.44,1015.87,-796.88
11260,-3.8712,0.1720,0.0164,289.31,1172.18,-1109.38
11270,-3.8712,0.1816,0.0273,-1976.32,-1905.94,-1218.75
11280,-3.8712,0.1852,0.0343,-741.94,-499.69,-1031.25
11290,-3.8712,0.1866,0.0327,-288.82,390.93,-906.19
11300,-3.8712,0.1865,0.0237,-101.32,187.81,-1421.81
11310,-3.8712,0.1824,0.0117,-116.94,-968.44,1421.88
11320,-3.8712,0.1736,0.0013,-648.19,1500.31,125.00
11330,-3.8713,0.1621,-0.0037,-1773.19,172.18,-984.38
11340,-3.8713,0.1526,-0.0009,758.06,-468.44,-1734.44
11350,-3.8713,0.1526,0.0085,-460.69,-109.13,-1828.19
11360,-3.8713,0.1648,0.0189,-460.69,1093.99,-1171.88
11370,-3.8713,0.1832,0.0249,1101.81,-1577.82,-125.00
11380,-3.8712,0.1973,0.0261,-538.82,-812.19,765.62
11390,-3.8712,0.1991,0.0259,1258.06,-655.88,1515.62
11400,-3.8712,0.1895,0.0256,1492.43,-687.13,-1609.38
11410,-3.8712,0.1746,0.0226,258.06,-718.38,-812.50
11420,-3.8712,0.1617,0.0137,-1648.19,-1109.07,-500.00
11430,-3.8712,0.1549,0.0043,711.18,1750.31,-687.50
11440,-3.8712,0.1538,0.0031,-163.82,547.12,-1218.75
11450,-3.8712,0.1556,0.0095,-304.44,390.87,-1562.50
11460,-3.8712,0.1571,0.0172,-70.07,1218.99,-1250.00
11470,-3.8712,0.1538,0.0215,117.43,-1796.57,-656.25
11480,-3.8711,0.1439,0.0238,-304.44,-1249.76,46.88
11490,-3.8711,0.1361,0.0294,-1570.07,-952.88,1109.38
11500,-3.8711,0.1388,0.0358,1429.93,-234.13,-1734.38
11510,-3.8711,0.1503,0.0345,1773.68,578.37,-1234.31
11520,-3.8711,0.1621,0.0258,-757.57,422.12,-1812.44
11530,-3.8711,0.1683,0.0177,758.06,-702.82,843.75
11540,-3.8712,0.1654,0.0182,1554.93,-1734.07,-515.62
11550,-3.8712,0.1544,0.0264,1179.93,-1671.57,-1312.50
11560,-3.8712,0.1444,0.0332,-226.32,-624.76,-1671.88
11570,-3.8712,0.1414,0.0332,-1507.57,250.24,-1859.31
11580,-3.8712,0.1414,0.0266,-1898.19,250.24,-1984.31
11590,-3.8712,0.1398,0.0167,-1898.19,-593.51,1890.62
11600,-3.8712,0.1362,0.0078,1898.68,-1859.13,1671.88
11610,-3.8712,0.1310,0.0031,1445.56,1000.24,1421.88
11620,-3.8712,0.1290,0.0063,773.68,390.87,1406.25
11630,-3.8712,0.1351,0.0161,523.68,812.74,1750.00
11640,-3.8712,0.1456,0.0251,1304.93,-1937.26,-1609.38
11650,-3.8712,0.1565,0.0323,-1351.32,-781.01,-796.88
11660,-3.8711,0.1615,0.0393,39.31,140.93,140.69
11670,-3.8711,0.1564,0.0433,679.93,1031.56,1265.69
11680,-3.8711,0.1467,0.0410,23.68,1547.18,-1671.81
11690,-3.8711,0.1371,0.0331,-1210.69,1250.24,-1249.94
11700,-3.8711,0.1320,0.0247,1554.93,234.62,-1718.69
11710,-3.8711,0.1349,0.0187,898.68,-843.51,1156.25
11720,-3.8712,0.1432,0.0154,1273.68,-1609.13,-312.50
11730,-3.8712,0.1504,0.0160,-1663.82,1968.99,-1750.00
11740,-3.8712,0.1511,0.0214,-741.94,-1952.88,1390.62
11750,-3.8712,0.1445,0.0284,-648.19,-1265.38,1093.75
11760,-3.8712,0.1373,0.0326,-1491.94,-359.13,1171.88
11770,-3.8712,0.1378,0.0338,1586.18,172.12,1562.56
11780,-3.8712,0.1443,0.0363,1648.68,328.37,-1937.44
11790,-3.8712,0.1499,0.0399,-1523.19,640.87,-1624.94
11800,-3.8712,0.1492,0.0397,-804.44,1109.62,-1515.56
11810,-3.8712,0.1428,0.0343,-898.19,1078.37,-1765.56
11820,-3.8712,0.1376,0.0270,-1710.69,390.87,1593.81
11830,-3.8712,0.1337,0.0237,1617.43,-546.63,937.50
11840,-3.8712,0.1272,0.0289,1117.43,-968.51,796.88
11850,-3.8712,0.1178,0.0410,289.31,-296.63,1468.75
11860,-3.8712,0.1106,0.0507,-913.82,1250.18,-1421.81
11870,-3.8712,0.1079,0.0508,-1835.69,-1515.44,-390.56
11880,-3.8711,0.1063,0.0426,1820.56,-1499.82,125.06
11890,-3.8711,0.1093,0.0322,1617.43,1453.31,203.19
11900,-3.8712,0.1190,0.0266,1992.43,125.18,-109.31
11910,-3.8712,0.1294,0.0258,-757.57,-593.57,-828.12
11920,-3.8712,0.1320,0.0270,570.56,-702.88,-1468.75
11930,-3.8712,0.1284,0.0286,898.68,-546.63,-1687.50
11940,-3.8712,0.1257,0.0289,445.56,-343.51,-1750.00
11950,-3.8712,0.1238,0.0282,101.81,-296.63,-1859.38
11960,-3.8712,0.1215,0.0271,-148.19,-390.44,-1890.62
11970,-3.8712,0.1215,0.0280,-445.07,-531.07,-1625.00
11980,-3.8712,0.1234,0.0316,-445.07,-421.69,-1156.25
11990,-3.8712,0.1246,0.0358,-195.07,47.06,-703.06
12000,-3.8712,0.1285,0.0378,-38.82,578.31,-124.94
12010,-3.8711,0.1338,0.0358,461.18,843.99,406.31
12020,-3.8711,0.1326,0.0310,1133.06,578.37,562.56
12030,-3.8711,0.1250,0.0271,976.81,-31.01,437.50
12040,-3.8711,0.1166,0.0255,8.06,-531.01,375.00
12050,-3.8711,0.1106,0.0245,-1070.07,-734.19,390.62
12060,-3.8711,0.1069,0.0228,-1835.69,-859.19,234.38
12070,-3.8712,0.1052,0.0236,1695.56,-1077.94,-62.50
12080,-3.8712,0.1082,0.0295,1476.81,-984.19,-187.50
12090,-3.8711,0.1147,0.0399,1851.81,-218.57,0.00
12100,-3.8711,0.1207,0.0490,-1304.44,1109.56,406.31
12110,-3.8711,0.1249,0.0487,-538.82,-1734.19,750.06
12120,-3.8711,0.1249,0.0369,-7.57,-1765.44,578.19
12130,-3.8712,0.1210,0.0204,-7.57,718.93,-562.44
12140,-3.8712,0.1206,0.0106,-507.57,-1390.44,1578.12
12150,-3.8712,0.1272,0.0132,-554.44,1359.56,93.75
12160,-3.8713,0.1361,0.0248,289.31,1687.74,-203.12
12170,-3.8712,0.1409,0.0382,1429.93,-827.88,500.00
12180,-3.8712,0.1385,0.0497,-1960.69,890.87,1906.31
12190,-3.8712,0.1333,0.0564,1742.43,-1640.38,-281.19
12200,-3.8711,0.1298,0.0524,1070.56,-781.01,1250.06
12210,-3.8711,0.1278,0.0386,617.43,-1296.63,1859.44
12220,-3.8711,0.1260,0.0243,367.43,937.74,1437.56
12230,-3.8711,0.1244,0.0167,133.06,-890.38,375.00
12240,-3.8712,0.1208,0.0166,-70.07,-1859.19,-718.75
12250,-3.8712,0.1158,0.0231,-523.19,-1874.82,-1156.25
12260,-3.8712,0.1141,0.0333,-1163.82,-1046.69,-843.75
12270,-3.8712,0.1158,0.0421,-1382.57,265.81,-171.81
12280,-3.8711,0.1191,0.0457,-1163.82,1390.81,546.94
12290,-3.8711,0.1239,0.0417,-741.94,1843.93,937.56
12300,-3.8711,0.1267,0.0314,-132.57,1343.93,765.69
12310,-3.8711,0.1221,0.0219,226.81,15.87,46.94
12320,-3.8712,0.1113,0.0192,-366.94,-1202.94,-875.00
12330,-3.8712,0.1029,0.0238,-1741.94,-1546.69,-1500.00
12340,-3.8712,0.1064,0.0311,1179.93,-952.94,-1531.25
12350,-3.8712,0.1221,0.0353,1633.06,-15.44,-1250.00
12360,-3.8712,0.1350,0.0349,-366.94,515.81,-1140.56
12370,-3.8712,0.1362,0.0341,1289.31,468.99,-1062.44
12380,-3.8712,0.1256,0.0358,1445.56,359.62,-734.31
12390,-3.8712,0.1080,0.0365,86.18,578.37,-437.44
12400,-3.8712,0.0951,0.0332,1836.18,672.06,-187.44
12410,-3.8712,0.0938,0.0269,179.93,250.18,-140.56
12420,-3.8712,0.1023,0.0229,8.06,-562.32,-500.00
12430,-3.8712,0.1145,0.0247,1101.81,-1062.32,-1046.88
12440,-3.8712,0.1254,0.0310,-1335.69,-843.57,-1187.50
12450,-3.8712,0.1302,0.0399,54.93,-31.01,-765.62
12460,-3.8712,0.1252,0.0469,679.93,1109.62,-62.44
12470,-3.8711,0.1150,0.0477,39.31,-1999.76,593.81
12480,-3.8711,0.1099,0.0438,-1273.19,-1890.44,718.81
12490,-3.8711,0.1146,0.0376,-1929.44,1609.56,343.81
12500,-3.8712,0.1252,0.0315,-1320.07,812.68,-249.94
12510,-3.8712,0.1323,0.0289,39.31,31.49,-828.06
12520,-3.8712,0.1299,0.0302,945.56,-296.63,-1046.88
12530,-3.8712,0.1188,0.0325,633.06,-140.38,-765.62
12540,-3.8712,0.1066,0.0342,-788.82,156.43,-374.94
12550,-3.8712,0.0996,0.0345,1648.68,375.18,-234.31
12560,-3.8712,0.0988,0.0344,758.06,422.06,-234.31
12570,-3.8712,0.1017,0.0352,648.68,406.43,-281.19
12580,-3.8712,0.1062,0.0356,1023.68,500.18,-296.81
12590,-3.8712,0.1128,0.0330,1601.81,562.68,-406.19
12600,-3.8712,0.1188,0.0262,-1554.44,218.93,-843.69
12610,-3.8712,0.1193,0.0203,-788.82,-640.44,-1593.75
12620,-3.8712,0.1172,0.0209,-726.32,-1406.07,1703.12
12630,-3.8712,0.1158,0.0291,-991.94,-1327.94,1546.88
12640,-3.8712,0.1157,0.0392,-1163.82,-281.07,1921.88
12650,-3.8712,0.1179,0.0447,-1179.44,1015.81,-1406.19
12660,-3.8712,0.1205,0.0433,-898.19,1718.93,-734.31
12670,-3.8712,0.1223,0.0405,-570.07,1547.06,-421.81
12680,-3.8712,0.1227,0.0397,-335.69,1187.68,-218.69
12690,-3.8711,0.1187,0.0367,-288.82,1078.31,109.44
12700,-3.8711,0.1106,0.0300,-804.44,703.31,234.44
12710,-3.8712,0.1045,0.0234,-1835.69,-156.07,-93.75
12720,-3.8712,0.1025,0.0199,1383.06,-999.82,-687.50
12730,-3.8712,0.1031,0.0201,1133.06,-1452.94,-1281.25
12740,-3.8712,0.1057,0.0250,1211.18,-1421.69,-1671.88
12750,-3.8712,0.1083,0.0336,1539.31,-796.69,-1484.38
12760,-3.8712,0.1093,0.0406,1867.43,297.06,-968.69
12770,-3.8712,0.1115,0.0411,1992.43,1203.31,-578.06
12780,-3.8712,0.1178,0.0376,-1726.32,1265.81,-390.56
12790,-3.8712,0.1259,0.0349,-913.82,812.68,-312.44
12800,-3.8712,0.1287,0.0338,117.43,468.99,-124.94
12810,-3.8712,0.1224,0.0322,476.81,328.37,-31.19
12820,-3.8712,0.1129,0.0294,-320.07,125.18,-156.19
12830,-3.8712,0.1080,0.0281,-1538.82,-234.19,-343.75
12840,-3.8712,0.1099,0.0305,1836.18,-406.07,-500.00
12850,-3.8712,0.1146,0.0372,-1929.44,-93.57,-328.12
12860,-3.8711,0.1184,0.0452,-1320.07,765.81,281.31
12870,-3.8711,0.1196,0.0468,-835.69,1781.43,1093.81
12880,-3.8711,0.1163,0.0378,-679.44,1984.56,1562.56
12890,-3.8711,0.1090,0.0240,-1101.32,843.93,1015.69
12900,-3.8712,0.1038,0.0160,1961.18,-921.69,-187.50
12910,-3.8712,0.1057,0.0170,1289.31,-1952.94,-1375.00
12920,-3.8712,0.1121,0.0220,1539.31,-1827.94,1750.00
12930,-3.8712,0.1180,0.0255,-1648.19,-1187.32,1171.88
12940,-3.8712,0.1228,0.0271,-882.57,-734.19,750.00
12950,-3.8712,0.1274,0.0311,-273.19,-531.07,671.88
12960,-3.8712,0.1334,0.0413,320.56,-15.38,1265.62
12970,-3.8712,0.1379,0.0498,1086.18,1281.49,-1468.69
12980,-3.8712,0.1376,0.0452,1664.31,-1624.76,-140.56
12990,-3.8711,0.1329,0.0315,1617.43,1781.49,609.44
13000,-3.8711,0.1254,0.0194,1023.68,31.49,578.19
13010,-3.8711,0.1184,0.0148,54.93,-1515.38,0.00
13020,-3.8712,0.1176,0.0189,-835.69,1890.81,-468.75
13030,-3.8712,0.1212,0.0277,-945.07,-1577.94,-328.12
13040,-3.8711,0.1238,0.0359,-476.32,-452.94,312.50
13050,-3.8711,0.1200,0.0424,-148.19,593.93,968.81
13060,-3.8711,0.1134,0.0485,-632.57,1422.06,1437.56
13070,-3.8711,0.1113,0.0538,-1476.32,-1796.69,1875.06
13080,-3.8711,0.1132,0.0522,-1741.94,-1109.19,-1906.19
13090,-3.8711,0.1133,0.0402,-1507.57,-1312.32,1546.94
13100,-3.8711,0.1099,0.0247,-1491.94,1140.81,203.19
13110,-3.8712,0.1068,0.0175,-1929.44,-843.57,-1359.38
13120,-3.8712,0.1079,0.0216,1679.93,-1765.44,1796.88
13130,-3.8712,0.1105,0.0297,1820.56,-1234.19,1921.88
13140,-3.8712,0.1117,0.0347,-1851.32,-202.94,-1546.88
13150,-3.8712,0.1125,0.0380,-1695.07,437.68,-968.69
13160,-3.8712,0.1172,0.0433,-1585.69,859.56,-156.19
13170,-3.8711,0.1233,0.0487,-991.94,1547.06,703.19
13180,-3.8711,0.1262,0.0485,-210.69,-1765.44,1093.81
13190,-3.8711,0.1254,0.0392,164.31,-1796.63,843.81
13200,-3.8711,0.1204,0.0264,54.93,1015.87,46.94
13210,-3.8712,0.1129,0.0200,-585.69,-624.82,-984.38
13220,-3.8712,0.1072,0.0228,-1538.82,-1437.32,-1703.12
13230,-3.8712,0.1038,0.0283,1726.81,-1077.94,-1890.62
13240,-3.8712,0.1013,0.0309,1289.31,-374.82,-1578.12
13250,-3.8712,0.1001,0.0303,976.81,-46.69,-1156.25
13260,-3.8712,0.1021,0.0308,820.56,-124.82,-1109.38
13270,-3.8712,0.1110,0.0376,1070.56,-62.32,-1156.25
13280,-3.8712,0.1243,0.0490,-1788.82,812.68,-828.06
13290,-3.8712,0.1340,0.0573,-85.69,-1734.19,-109.31
13300,-3.8711,0.1393,0.0585,1164.31,-671.63,609.44
13310,-3.8711,0.1393,0.0518,1836.18,-515.38,890.69
13320,-3.8711,0.1328,0.0399,1836.18,-1374.76,515.69
13330,-3.8712,0.1211,0.0300,1008.06,1109.62,-390.56
13340,-3.8712,0.1075,0.0267,-491.94,-156.07,-1515.62
13350,-3.8712,0.0977,0.0311,1773.68,-577.94,1718.75
13360,-3.8712,0.0947,0.0415,508.06,-15.44,1625.00
13370,-3.8712,0.0980,0.0502,133.06,1312.68,-1687.44
13380,-3.8712,0.1046,0.0494,554.93,-1577.94,-640.56
13390,-3.8711,0.1100,0.0441,1398.68,-1671.69,171.94
13400,-3.8711,0.1122,0.0421,-1913.82,1640.81,671.94
13410,-3.8711,0.1147,0.0410,-1632.57,1390.81,765.69
13420,-3.8711,0.1173,0.0372,-1304.44,1250.18,359.44
13430,-3.8712,0.1167,0.0331,-976.32,765.81,-468.69
13440,-3.8712,0.1125,0.0328,-1054.44,234.56,-1421.81
13450,-3.8712,0.1085,0.0391,-1585.69,203.31,1984.44
13460,-3.8712,0.1083,0.0472,1898.68,1000.18,-1874.94
13470,-3.8712,0.1107,0.0508,1867.43,-1952.94,-1281.19
13480,-3.8712,0.1134,0.0482,-1820.07,-1499.82,-734.31
13490,-3.8712,0.1147,0.0419,-1476.32,-1827.94,-468.69
13500,-3.8712,0.1124,0.0343,-1304.44,1359.56,-546.81
13510,-3.8712,0.1085,0.0282,-1601.32,390.81,-999.94
13520,-3.8712,0.1072,0.0280,1898.68,-390.44,-1468.75
13530,-3.8712,0.1085,0.0344,1726.81,-421.69,-1578.12
13540,-3.8712,0.1113,0.0441,1898.68,406.43,-1265.56
13550,-3.8712,0.1134,0.0513,-1741.94,1640.81,-703.06
13560,-3.8712,0.1129,0.0525,-1476.32,-1437.32,-109.31
13570,-3.8711,0.1122,0.0499,-1538.82,-1281.07,390.69
13580,-3.8711,0.1128,0.0460,-1632.57,-1609.19,734.44
13590,-3.8711,0.1129,0.0416,-1554.44,1890.81,734.44
13600,-3.8711,0.1118,0.0367,-1538.82,1328.31,281.31
13610,-3.8712,0.1102,0.0316,-1679.44,703.31,-390.56
13620,-3.8712,0.1091,0.0281,-1882.57,47.06,-1156.19
13630,-3.8712,0.1108,0.0280,1976.81,-406.07,-1906.25
13640,-3.8712,0.1143,0.0325,-1804.44,-421.69,1625.00
13650,-3.8712,0.1157,0.0415,-1366.94,156.43,1593.81
13660,-3.8712,0.1130,0.0531,-1179.44,1312.68,-1859.31
13670,-3.8712,0.1050,0.0612,-1523.19,-1202.94,-687.44
13680,-3.8711,0.0952,0.0587,1445.56,-171.69,593.81
13690,-3.8711,0.0887,0.0468,195.56,-484.19,1187.56
13700,-3.8711,0.0894,0.0342,-632.57,1984.50,890.69
13710,-3.8711,0.0968,0.0293,-554.44,375.12,93.81
13720,-3.8712,0.1079,0.0337,398.68,-249.82,-718.75
13730,-3.8712,0.1183,0.0432,1820.56,312.68,-1203.06
13740,-3.8712,0.1235,0.0514,-851.32,1531.43,-1296.81
13750,-3.8712,0.1232,0.0511,-179.44,-1421.69,-1281.19
13760,-3.8712,0.1174,0.0410,-226.32,-1452.94,-1546.81
13770,-3.8712,0.1084,0.0286,-960.69,1250.18,1796.94
13780,-3.8712,0.1019,0.0238,1883.06,-343.57,1140.62
13790,-3.8712,0.1031,0.0294,1054.93,-952.94,937.50
13800,-3.8712,0.1119,0.0410,1211.18,-234.19,1453.12
13810,-3.8712,0.1219,0.0500,-1663.82,1250.18,-1421.81
13820,-3.8712,0.1267,0.0544,-382.57,-1593.57,-296.81
13830,-3.8711,0.1244,0.0577,226.81,-1031.01,234.44
13840,-3.8711,0.1174,0.0549,-70.07,-609.19,109.44
13850,-3.8712,0.1083,0.0424,-960.69,-968.57,-249.94
13860,-3.8712,0.1000,0.0302,1867.43,1422.06,-484.31
13870,-3.8712,0.0927,0.0282,804.93,-140.44,-453.12
13880,-3.8711,0.0890,0.0336,-132.57,-390.50,31.25
13890,-3.8711,0.0977,0.0389,-601.32,297.00,703.19
13900,-3.8711,0.1149,0.0420,508.06,984.56,875.06
13910,-3.8711,0.1271,0.0457,-1288.82,1375.18,593.81
13920,-3.8711,0.1311,0.0522,273.68,1843.99,375.06
13930,-3.8711,0.1289,0.0594,789.31,-1312.26,468.81
13940,-3.8711,0.1204,0.0620,508.06,-390.38,781.31
13950,-3.8711,0.1111,0.0574,-585.69,-62.32,1046.94
13960,-3.8711,0.1073,0.0468,-1773.19,-656.07,953.19
13970,-3.8711,0.1107,0.0358,1742.43,1984.56,390.69
13980,-3.8712,0.1195,0.0311,-1820.07,578.31,-484.31
13990,-3.8712,0.1273,0.0350,-695.07,-15.44,-1375.00
14000,-3.8712,0.1285,0.0431,304.93,484.62,-1656.19
14010,-3.8712,0.1239,0.0494,461.18,1515.87,-1421.81
14020,-3.8712,0.1154,0.0515,-132.57,-1671.69,-1109.31
14030,-3.8712,0.1058,0.0492,-1226.32,-1406.07,-906.19
14040,-3.8712,0.0992,0.0446,1554.93,-1702.94,-843.69
14050,-3.8712,0.0978,0.0409,711.18,1703.31,-874.94
14060,-3.8712,0.1013,0.0398,523.68,1234.56,-968.69
14070,-3.8712,0.1095,0.0404,976.81,1093.93,-906.19
14080,-3.8712,0.1193,0.0400,-1976.32,1172.06,-546.81
14090,-3.8712,0.1254,0.0380,-726.32,1125.18,-328.06
14100,-3.8712,0.1262,0.0369,54.93,859.62,-515.56
14110,-3.8712,0.1228,0.0398,164.31,718.99,-906.19
14120,-3.8712,0.1168,0.0483,-273.19,1093.93,-921.81
14130,-3.8712,0.1101,0.0574,-1038.82,-1812.32,-359.31
14140,-3.8711,0.1045,0.0594,-1898.19,-656.07,406.31
14150,-3.8711,0.1022,0.0520,1383.06,-390.44,765.69
14160,-3.8711,0.1040,0.0393,1086.18,-1343.57,312.56
14170,-3.8712,0.1094,0.0304,1320.56,1031.43,-609.31
14180,-3.8712,0.1160,0.0305,-1991.94,-109.19,-1468.75
14190,-3.8712,0.1205,0.0382,-1148.19,-93.57,1875.00
14200,-3.8712,0.1211,0.0476,-570.07,890.81,1718.81
14210,-3.8712,0.1202,0.0520,-491.94,-1906.07,-1765.56
14220,-3.8712,0.1185,0.0498,-601.32,-1343.57,-1031.19
14230,-3.8712,0.1151,0.0454,-820.07,-1624.82,-640.56
14240,-3.8712,0.1135,0.0435,-1257.57,1812.68,-546.81
14250,-3.8712,0.1151,0.0449,-1460.69,1562.68,-468.69
14260,-3.8712,0.1162,0.0470,-1257.57,1750.18,-359.31
14270,-3.8712,0.1136,0.0453,-1116.94,-1984.19,-328.06
14280,-3.8712,0.1075,0.0393,-1445.07,1797.06,-406.19
14290,-3.8712,0.1005,0.0333,1773.68,1031.43,-515.56
14300,-3.8712,0.0961,0.0293,867.43,265.81,-734.31
14310,-3.8712,0.0970,0.0275,304.93,-249.82,-968.75
14320,-3.8712,0.1030,0.0289,429.93,-484.19,-1156.25
14330,-3.8712,0.1113,0.0332,1195.56,-296.69,-1234.38
14340,-3.8712,0.1179,0.0389,-1741.94,250.18,-1015.56
14350,-3.8712,0.1201,0.0483,-898.19,984.56,-531.19
14360,-3.8711,0.1185,0.0597,-616.94,-1812.32,234.44
14370,-3.8711,0.1152,0.0637,-820.07,-359.19,1390.69
14380,-3.8711,0.1138,0.0540,-1241.94,156.43,-1812.38
14390,-3.8711,0.1132,0.0371,-1429.44,-1093.57,1906.31
14400,-3.8711,0.1110,0.0254,-1507.57,750.18,765.69
14410,-3.8712,0.1084,0.0254,-1788.82,-749.82,-468.75
14420,-3.8712,0.1085,0.0339,1883.06,-749.82,-1125.00
14430,-3.8712,0.1115,0.0420,1898.68,343.93,-1374.94
14440,-3.8712,0.1147,0.0468,-1726.32,1375.18,-1453.06
14450,-3.8712,0.1191,0.0498,-1304.44,1984.56,-1406.19
14460,-3.8712,0.1229,0.0496,-741.94,-1624.82,-1171.81
14470,-3.8712,0.1227,0.0465,-257.57,-1656.07,-921.81
14480,-3.8712,0.1183,0.0421,-288.82,1953.31,-890.56
14490,-3.8712,0.1086,0.0352,-851.32,1390.81,-1140.56
14500,-3.8712,0.0950,0.0282,1914.31,500.18,-1749.94
14510,-3.8712,0.0852,0.0251,164.31,-390.44,1406.25
14520,-3.8712,0.0847,0.0294,-1085.69,-781.13,687.50
14530,-3.8712,0.0935,0.0410,-1148.19,-234.25,484.38
14540,-3.8712,0.1080,0.0551,-23.19,1250.12,1203.19
14550,-3.8712,0.1216,0.0641,1836.18,-952.94,-1203.06
14560,-3.8711,0.1279,0.0663,-429.44,203.31,578.25
14570,-3.8711,0.1276,0.0638,383.06,484.62,1718.87
14580,-3.8711,0.1232,0.0558,336.18,172.12,1968.87
14590,-3.8711,0.1168,0.0426,-226.32,-859.19,1421.94
14600,-3.8711,0.1129,0.0309,-1038.82,1453.31,390.69
14610,-3.8712,0.1110,0.0275,-1538.82,-46.69,-718.75
14620,-3.8712,0.1083,0.0331,-1788.82,-484.19,-1531.25
14630,-3.8712,0.1056,0.0463,1867.43,234.56,-1718.69
14640,-3.8712,0.1019,0.0602,1523.68,1922.06,-1109.31
14650,-3.8712,0.0980,0.0635,1054.93,-296.69,-78.06
14660,-3.8711,0.0979,0.0536,554.93,125.18,547.00
14670,-3.8711,0.1018,0.0404,539.31,-1140.44,328.19
14680,-3.8712,0.1056,0.0327,1039.31,1172.06,-437.44
14690,-3.8712,0.1075,0.0328,1523.68,187.68,-1218.69
14700,-3.8712,0.1071,0.0377,1773.68,203.31,-1796.81
14710,-3.8712,0.1046,0.0426,1711.18,828.31,-1999.94
14720,-3.8712,0.1053,0.0472,1398.68,1453.31,-1953.06
14730,-3.8712,0.1110,0.0548,1492.43,-1952.94,-1718.69
14740,-3.8712,0.1168,0.0646,-1788.82,-984.19,-1187.44
14750,-3.8712,0.1190,0.0680,-1038.82,265.81,-281.13
14760,-3.8711,0.1145,0.0588,-757.57,703.31,375.12
14770,-3.8711,0.1057,0.0428,-1335.69,-468.57,171.94
14780,-3.8712,0.0992,0.0312,1539.31,1484.56,-687.44
14790,-3.8712,0.0959,0.0281,711.18,0.18,-1515.56
14800,-3.8712,0.0963,0.0299,289.31,-406.07,-1968.75
14810,-3.8712,0.1006,0.0344,336.18,-171.69,1921.88
14820,-3.8712,0.1050,0.0432,883.06,406.43,-1734.31
14830,-3.8712,0.1073,0.0554,1445.56,1531.43,-781.19
14840,-3.8711,0.1061,0.0640,1742.43,-906.07,578.19
14850,-3.8711,0.1011,0.0626,1586.18,187.68,1703.25
14860,-3.8711,0.0964,0.0535,945.56,15.81,-1781.13
14870,-3.8711,0.0925,0.0439,351.81,-1156.07,-1953.06
14880,-3.8711,0.0895,0.0394,-148.19,1625.12,1312.56
14890,-3.8711,0.0902,0.0399,-538.82,1047.00,578.19
14900,-3.8711,0.0946,0.0432,-445.07,1109.50,93.81
14910,-3.8712,0.1014,0.0476,117.43,1531.43,-265.56
14920,-3.8712,0.1077,0.0513,992.43,-1906.07,-453.06
14930,-3.8712,0.1079,0.0513,1789.31,-1437.32,-578.06
14940,-3.8712,0.1040,0.0513,1820.56,-1437.32,-765.56
14950,-3.8712,0.1040,0.0544,1320.56,-1437.32,-906.19
14960,-3.8712,0.1085,0.0560,1320.56,-1031.07,-812.44
14970,-3.8712,0.1145,0.0520,1898.68,-827.94,-640.56
14980,-3.8712,0.1183,0.0443,-1335.69,-1343.57,-953.06
14990,-3.8712,0.1179,0.0397,-851.32,1672.06,-1671.81
15000,-3.8712,0.1143,0.0397,-898.19,1078.31,1890.69
15010,-3.8712,0.1075,0.0416,-1366.94,1078.31,1890.69
15020,-3.8712,0.0979,0.0461,1773.68,1328.31,-1999.94
15030,-3.8712,0.0907,0.0558,539.31,1906.43,-1703.06
15040,-3.8712,0.0881,0.0664,-382.57,-859.25,-781.19
15050,-3.8711,0.0873,0.0668,-710.69,500.12,437.62
15060,-3.8711,0.0885,0.0544,-820.07,547.00,890.75
15070,-3.8711,0.0940,0.0404,-663.82,-1031.13,265.69
15080,-3.8712,0.1024,0.0343,39.31,1172.06,-656.19
15090,-3.8712,0.1091,0.0372,1117.43,390.81,-1203.06
15100,-3.8712,0.1101,0.0443,1976.81,765.81,-1328.06
15110,-3.8712,0.1052,0.0487,-1898.19,1672.06,-1218.69
15120,-3.8712,0.0988,0.0505,1476.81,-1765.44,-1187.44
15130,-3.8712,0.0979,0.0537,648.68,-1531.07,-1203.06
15140,-3.8712,0.1044,0.0585,539.31,-1124.82,-859.31
15150,-3.8712,0.1113,0.0601,1367.43,-515.44,-328.06
15160,-3.8711,0.1139,0.0565,-1741.94,-312.32,109.44
15170,-3.8711,0.1129,0.0508,-1413.82,-765.44,484.44
15180,-3.8711,0.1101,0.0477,-1538.82,-1499.82,765.69
15190,-3.8711,0.1090,0.0511,-1898.19,-1890.44,937.56
15200,-3.8711,0.1100,0.0555,1961.18,-1452.94,1171.94
15210,-3.8711,0.1089,0.0529,-1913.82,-890.44,1265.69
15220,-3.8711,0.1041,0.0443,1945.56,-1234.19,750.06
15230,-3.8712,0.0984,0.0378,1336.18,1672.06,-359.31
15240,-3.8712,0.0955,0.0386,601.81,843.93,-1359.31
15250,-3.8712,0.0961,0.0438,226.81,937.68,-1718.69
15260,-3.8712,0.0975,0.0468,304.93,1609.56,-1562.44
15270,-3.8712,0.0975,0.0435,492.43,1984.56,-1390.56
15280,-3.8712,0.0973,0.0359,492.43,1562.68,-1499.94
15290,-3.8712,0.0984,0.0306,461.18,593.93,-1796.81
15300,-3.8712,0.1018,0.0330,601.81,-77.94,1953.12
15310,-3.8712,0.1077,0.0420,1039.31,218.93,-1859.31
15320,-3.8712,0.1132,0.0530,1789.31,1375.18,-1203.06
15330,-3.8712,0.1162,0.0610,-1507.57,-1218.57,-359.31
15340,-3.8711,0.1177,0.0654,-1116.94,-187.32,328.19
15350,-3.8711,0.1165,0.0654,-929.44,375.18,953.25
15360,-3.8711,0.1116,0.0599,-1085.69,375.18,1375.12
15370,-3.8711,0.1075,0.0531,-1710.69,-327.94,1390.69
15380,-3.8711,0.1047,0.0481,1773.68,-1202.94,1265.69
15390,-3.8711,0.0997,0.0443,1414.31,-1843.57,1078.19
15400,-3.8711,0.0942,0.0411,773.68,1672.06,750.06
15410,-3.8711,0.0907,0.0382,70.56,1265.81,312.56
15420,-3.8712,0.0911,0.0377,-382.57,890.75,-265.56
15430,-3.8712,0.0973,0.0411,-335.69,828.25,-687.44
15440,-3.8712,0.1038,0.0530,461.18,1265.81,-656.19
15450,-3.8712,0.1033,0.0685,1289.31,-1218.57,-890.56
15460,-3.8712,0.1003,0.0747,1226.81,765.81,-546.75
15470,-3.8711,0.1010,0.0670,851.81,1562.68,250.12
15480,-3.8711,0.1025,0.0518,929.93,578.31,47.00
15490,-3.8712,0.1046,0.0432,1133.06,-1374.82,-765.56
15500,-3.8712,0.1080,0.0443,1398.68,1531.43,-1484.31
15510,-3.8712,0.1086,0.0464,1836.18,1672.06,-1765.56
15520,-3.8712,0.0997,0.0458,1914.31,1937.68,-1906.19
15530,-3.8712,0.0875,0.0446,773.68,1859.56,1796.94
15540,-3.8712,0.0831,0.0439,-788.82,1703.25,1625.06
15550,-3.8712,0.0848,0.0460,-1351.32,1625.12,1812.56
15560,-3.8712,0.0900,0.0519,-1132.57,1890.75,-1734.31
15570,-3.8712,0.0986,0.0583,-476.32,-1359.25,-1109.31
15580,-3.8712,0.1072,0.0612,633.06,-531.07,-499.94
15590,-3.8712,0.1099,0.0596,1726.81,-171.69,-31.19
15600,-3.8711,0.1050,0.0554,-1929.44,-374.82,203.19
15610,-3.8711,0.0969,0.0510,1445.56,-906.07,171.94
15620,-3.8712,0.0896,0.0498,414.31,-1468.57,-46.81
15630,-3.8712,0.0859,0.0538,-523.19,-1624.88,-218.69
15640,-3.8711,0.0878,0.0664,-991.94,-1109.25,296.94
15650,-3.8711,0.0942,0.0806,-757.57,500.12,1031.37
15660,-3.8711,0.0994,0.0782,70.56,-1687.32,1625.12
15670,-3.8711,0.0999,0.0601,726.81,-1984.19,1922.00
15680,-3.8711,0.0979,0.0421,789.31,-312.32,1000.06
15690,-3.8712,0.0928,0.0347,539.31,1390.81,-593.69
15700,-3.8712,0.0909,0.0381,-116.94,437.62,-1812.44
15710,-3.8712,0.0939,0.0475,-351.32,875.12,1625.06
15720,-3.8712,0.0931,0.0570,23.68,-1921.69,1750.06
15730,-3.8712,0.0869,0.0623,-70.07,-703.00,-1453.06
15740,-3.8712,0.0824,0.0627,-866.94,-31.13,-421.81
15750,-3.8711,0.0830,0.0619,-1445.07,31.37,468.87
15760,-3.8711,0.0880,0.0604,-1366.94,-78.00,1031.31
15770,-3.8711,0.0944,0.0577,-726.32,-265.50,1125.06
15780,-3.8711,0.0969,0.0526,86.18,-609.19,593.81
15790,-3.8712,0.0961,0.0476,414.31,-1265.44,-281.19
15800,-3.8712,0.0956,0.0493,304.93,-1906.07,-968.69
15810,-3.8712,0.0958,0.0579,242.43,-1687.32,-1156.19
15820,-3.8712,0.0927,0.0658,273.68,-593.57,-828.06
15830,-3.8712,0.0856,0.0671,-132.57,422.00,-171.75
15840,-3.8711,0.0784,0.0612,-1038.82,593.87,390.75
15850,-3.8711,0.0754,0.0527,-1960.69,-171.75,453.19
15860,-3.8712,0.0800,0.0452,1664.31,-1249.88,-15.56
15870,-3.8712,0.0901,0.0392,-1757.57,1781.37,-687.44
15880,-3.8712,0.0995,0.0392,-460.69,1015.75,-1359.31
15890,-3.8712,0.1024,0.0486,742.43,1015.81,-1718.69
15900,-3.8712,0.0988,0.0624,1117.43,-1781.07,-1390.56
15910,-3.8712,0.0939,0.0708,648.68,-15.44,-421.81
15920,-3.8711,0.0919,0.0676,23.68,1062.68,703.25
15930,-3.8711,0.0914,0.0585,-226.32,656.37,1203.25
15940,-3.8711,0.0923,0.0529,-288.82,-515.50,921.94
15950,-3.8711,0.0947,0.0522,-179.44,-1234.25,359.44
15960,-3.8712,0.0956,0.0526,133.06,-1312.32,-124.94
15970,-3.8712,0.0939,0.0527,242.43,-1265.44,-484.31
15980,-3.8712,0.0906,0.0524,23.68,-1249.82,-812.44
15990,-3.8712,0.0879,0.0509,-398.19,-1296.75,-1124.94
16000,-3.8712,0.0878,0.0513,-741.94,-1484.25,-1343.69
16010,-3.8712,0.0881,0.0540,-757.57,-1437.38,-1421.81
16020,-3.8712,0.0864,0.0553,-710.69,-1093.63,-1484.31
16030,-3.8712,0.0837,0.0540,-929.44,-921.75,-1531.19
16040,-3.8712,0.0825,0.0509,-1273.19,-1093.63,-1515.56
16050,-3.8712,0.0842,0.0475,-1429.44,-1484.25,-1640.56
16060,-3.8712,0.0902,0.0490,-1210.69,-1921.75,-1906.19
16070,-3.8712,0.0990,0.0574,-445.07,-1734.25,-1718.69
16080,-3.8712,0.1083,0.0656,679.93,-656.07,-843.69
16090,-3.8711,0.1147,0.0668,1867.43,390.81,156.37
16100,-3.8711,0.1138,0.0604,-1304.44,547.06,593.87
16110,-3.8711,0.1062,0.0505,-1429.44,-265.44,375.06
16120,-3.8712,0.0973,0.0428,1601.81,-1531.07,-93.69
16130,-3.8712,0.0892,0.0413,461.18,1484.56,-593.69
16140,-3.8712,0.0837,0.0459,-570.07,1281.37,-1015.56
16150,-3.8712,0.0811,0.0527,-1273.19,1875.12,-984.31
16160,-3.8712,0.0800,0.0570,-1616.94,-1249.88,-531.19
16170,-3.8712,0.0828,0.0576,-1757.57,-703.00,-46.81
16180,-3.8711,0.0907,0.0609,-1398.19,-624.88,312.56
16190,-3.8711,0.0980,0.0676,-382.57,-203.00,656.31
16200,-3.8711,0.0991,0.0699,554.93,656.43,1140.75
16210,-3.8711,0.0996,0.0676,695.56,953.31,1234.50
16220,-3.8711,0.1018,0.0651,758.06,656.43,578.25
16230,-3.8712,0.1017,0.0612,1039.31,328.31,-124.88
16240,-3.8712,0.0994,0.0544,1023.68,-171.69,-515.56
16250,-3.8712,0.0933,0.0459,726.81,-1031.07,-984.31
16260,-3.8712,0.0865,0.0414,-54.44,1875.12,-1718.69
16270,-3.8712,0.0850,0.0441,-913.82,1297.00,1734.44
16280,-3.8712,0.0848,0.0499,-1116.94,1640.75,1796.94
16290,-3.8712,0.0820,0.0553,-1132.57,-1609.25,-1765.56
16300,-3.8712,0.0813,0.0608,-1491.94,-921.75,-1218.69
16310,-3.8712,0.0845,0.0651,-1585.69,-218.63,-374.94
16320,-3.8711,0.0876,0.0660,-1179.44,328.25,500.12
16330,-3.8711,0.0896,0.0662,-773.19,453.25,906.37
16340,-3.8711,0.0912,0.0677,-523.19,468.87,906.37
16350,-3.8711,0.0920,0.0657,-320.07,672.00,687.62
16360,-3.8711,0.0911,0.0563,-210.69,406.37,93.87
16370,-3.8712,0.0894,0.0411,-335.69,-796.75,-1265.56
16380,-3.8712,0.0896,0.0294,-554.44,1265.75,1156.31
16390,-3.8712,0.0923,0.0314,-523.19,-234.25,203.12
16400,-3.8712,0.0940,0.0449,-179.44,15.75,156.31
16410,-3.8712,0.0914,0.0615,39.31,1750.18,1000.06
16420,-3.8712,0.0885,0.0714,-288.82,-124.88,-1968.69
16430,-3.8712,0.0883,0.0734,-663.82,1140.75,-906.13
16440,-3.8711,0.0884,0.0730,-695.07,1390.75,62.62
16450,-3.8711,0.0891,0.0679,-679.44,1343.87,687.62
16460,-3.8711,0.0929,0.0583,-585.69,687.62,953.25
16470,-3.8711,0.0983,0.0505,-101.32,-531.13,750.06
16480,-3.8711,0.0961,0.0532,586.18,-1531.07,234.44
16490,-3.8711,0.0895,0.0652,304.93,-1187.32,15.69
16500,-3.8711,0.0902,0.0746,-538.82,343.87,406.37
16510,-3.8711,0.0956,0.0748,-445.07,1547.00,797.00
16520,-3.8711,0.0991,0.0695,242.43,1578.31,687.62
16530,-3.8711,0.0977,0.0668,695.56,890.81,234.50
16540,-3.8711,0.0912,0.0685,508.06,547.06,156.37
16550,-3.8711,0.0826,0.0691,-320.07,765.75,687.62
16560,-3.8711,0.0759,0.0626,-1413.82,843.87,1250.12
16570,-3.8711,0.0732,0.0515,1726.81,15.75,1187.62
16580,-3.8711,0.0760,0.0438,1383.06,-1406.13,421.94
16590,-3.8712,0.0837,0.0446,1742.43,1609.50,-468.69
16600,-3.8712,0.0914,0.0519,-1273.19,1703.25,-999.94
16610,-3.8712,0.0939,0.0605,-288.82,-1359.25,-1171.81
16620,-3.8712,0.0913,0.0699,23.68,-249.82,-1140.56
16630,-3.8712,0.0875,0.0776,-304.44,953.25,-796.75
16640,-3.8712,0.0870,0.0785,-788.82,1937.62,-218.63
16650,-3.8711,0.0903,0.0732,-851.32,-1953.00,109.50
16660,-3.8711,0.0924,0.0646,-429.44,1375.12,125.12
16670,-3.8712,0.0905,0.0541,-163.82,265.75,-15.50
16680,-3.8712,0.0856,0.0446,-413.82,-1078.00,-468.69
16690,-3.8712,0.0798,0.0400,-1038.82,1703.25,-1187.44
16700,-3.8712,0.0769,0.0415,-1773.19,1125.12,-1781.19
16710,-3.8712,0.0786,0.0466,1851.81,1312.62,1921.94
16720,-3.8712,0.0829,0.0530,-1929.44,1968.87,1890.69
16730,-3.8712,0.0885,0.0607,-1382.57,-1218.63,1968.81
16740,-3.8712,0.0952,0.0746,-663.82,-234.25,-1609.31
16750,-3.8712,0.0974,0.0895,195.56,1547.06,-374.88
16760,-3.8711,0.0938,0.0881,476.81,-546.69,1453.25
16770,-3.8711,0.0874,0.0654,8.06,-718.57,-1671.75
16780,-3.8711,0.0811,0.0383,-804.44,375.12,1390.75
16790,-3.8712,0.0785,0.0265,-1616.94,906.37,-468.69
16800,-3.8712,0.0803,0.0337,-1945.07,-609.25,-1968.75
16810,-3.8712,0.0851,0.0477,-1710.69,312.62,1453.19
16820,-3.8712,0.0901,0.0542,-1101.32,-1890.50,1546.94
16830,-3.8712,0.0936,0.0526,-460.69,-1062.38,1515.69
16840,-3.8712,0.0980,0.0586,-7.57,-1265.50,1234.44
16850,-3.8712,0.1042,0.0769,554.93,-499.82,1765.69
16860,-3.8712,0.1086,0.0885,1351.81,1843.93,-312.38
16870,-3.8711,0.1084,0.0795,1914.31,-671.69,1781.37
16880,-3.8711,0.1034,0.0577,1883.06,-1827.94,-1531.13
16890,-3.8711,0.0955,0.0391,1242.43,-609.19,1718.81
16900,-3.8711,0.0894,0.0345,226.81,1000.18,656.31
16910,-3.8711,0.0874,0.0443,-554.44,422.00,46.94
16920,-3.8711,0.0881,0.0596,-804.44,1672.00,62.56
16930,-3.8711,0.0883,0.0690,-710.69,-374.88,640.69
16940,-3.8711,0.0864,0.0648,-695.07,828.25,1297.00
16950,-3.8711,0.0841,0.0525,-929.44,297.00,1437.62
16960,-3.8711,0.0830,0.0431,-1226.32,-1281.13,921.94
16970,-3.8711,0.0826,0.0404,-1366.94,1515.75,203.19
16980,-3.8712,0.0817,0.0417,-1413.82,1172.00,-343.69
16990,-3.8712,0.0809,0.0430,-1538.82,1343.87,-843.69
17000,-3.8712,0.0822,0.0442,-1632.57,1500.12,-1406.19
17010,-3.8712,0.0864,0.0477,-1476.32,1656.37,-1953.06
17020,-3.8712,0.0955,0.0559,-929.44,-1890.50,1656.31
17030,-3.8712,0.1083,0.0674,226.81,-843.57,1625.06
17040,-3.8712,0.1193,0.0776,1867.43,625.18,-1718.63
17050,-3.8712,0.1218,0.0814,-726.32,1937.68,-578.00
17060,-3.8711,0.1130,0.0754,-398.19,-1577.94,328.25
17070,-3.8711,0.0967,0.0618,-1523.19,1656.43,453.25
17080,-3.8712,0.0808,0.0493,383.06,-93.57,-203.06
17090,-3.8712,0.0731,0.0438,-1648.19,-1687.38,-1109.31
17100,-3.8712,0.0748,0.0430,1367.43,1609.50,-1921.81
17110,-3.8712,0.0840,0.0448,1586.18,1500.12,1500.06
17120,-3.8712,0.0953,0.0494,-1241.94,1734.50,1328.19
17130,-3.8712,0.1012,0.0591,211.18,-1671.69,1687.56
17140,-3.8712,0.0975,0.0747,961.18,-437.32,-1265.56
17150,-3.8711,0.0897,0.0894,492.43,1562.68,515.75
17160,-3.8711,0.0864,0.0897,-507.57,-562.38,-1484.25
17170,-3.8711,0.0903,0.0710,-929.44,-515.50,-374.88
17180,-3.8711,0.0972,0.0469,-429.44,1093.87,-796.75
17190,-3.8711,0.1012,0.0323,445.56,-1999.82,1703.19
17200,-3.8711,0.1030,0.0281,961.18,140.81,93.81
17210,-3.8712,0.1047,0.0288,1195.56,-406.07,-1093.75
17220,-3.8712,0.1045,0.0339,1414.31,-312.32,-1906.25
17230,-3.8712,0.1025,0.0410,1383.06,343.93,1765.69
17240,-3.8712,0.1017,0.0431,1133.06,1250.18,1953.19
17250,-3.8712,0.0991,0.0386,1023.68,1515.81,-1874.94
17260,-3.8712,0.0923,0.0334,695.56,937.68,-1953.06
17270,-3.8712,0.0831,0.0327,-179.44,281.37,-1937.44
17280,-3.8712,0.0782,0.0381,-1351.32,187.62,-1484.31
17290,-3.8712,0.0812,0.0490,-1976.32,875.12,-671.81
17300,-3.8711,0.0897,0.0586,-1601.32,-1734.25,281.31
17310,-3.8711,0.0981,0.0602,-507.57,-499.88,1140.69
17320,-3.8711,0.1022,0.0553,570.56,-296.69,1343.81
17330,-3.8711,0.1023,0.0508,1086.18,-921.69,796.94
17340,-3.8711,0.1030,0.0491,1101.81,-1499.82,250.06
17350,-3.8712,0.1041,0.0465,1195.56,-1718.57,-109.31
17360,-3.8712,0.1024,0.0402,1336.18,1953.31,-593.69
17370,-3.8712,0.1001,0.0321,1117.43,1140.81,-1421.81
17380,-3.8712,0.0985,0.0275,820.56,109.56,1687.56
17390,-3.8712,0.0967,0.0283,617.43,-484.19,1078.12
17400,-3.8712,0.0948,0.0343,383.06,-374.82,906.25
17410,-3.8712,0.0930,0.0449,148.68,390.81,1312.56
17420,-3.8712,0.0922,0.0566,-85.69,1750.12,-1687.44
17430,-3.8712,0.0941,0.0618,-195.07,-749.88,-343.69
17440,-3.8711,0.0966,0.0592,54.93,-93.57,703.19
17450,-3.8711,0.0951,0.0555,367.43,-421.69,1078.19
17460,-3.8711,0.0906,0.0527,179.93,-890.44,1109.44
17470,-3.8711,0.0878,0.0482,-398.19,-1249.88,937.56
17480,-3.8711,0.0875,0.0417,-757.57,-1828.00,328.19
17490,-3.8712,0.0892,0.0367,-788.82,1343.87,-812.44
17500,-3.8712,0.0909,0.0369,-570.07,703.25,-1999.94
17510,-3.8712,0.0927,0.0419,-351.32,718.87,1281.31
17520,-3.8712,0.0956,0.0493,-132.57,1359.50,1125.06
17530,-3.8712,0.0990,0.0548,242.43,-1687.32,1453.19
17540,-3.8712,0.1024,0.0551,679.93,-984.19,1937.56
17550,-3.8712,0.1051,0.0526,1117.43,-952.94,-1890.56
17560,-3.8712,0.1077,0.0497,1461.18,-1265.44,-1984.31
17570,-3.8712,0.1097,0.0455,1789.31,-1640.44,1875.06
17580,-3.8712,0.1097,0.0411,-1945.07,1828.31,1687.56
17590,-3.8712,0.1073,0.0406,-1945.07,1265.81,1562.56
17600,-3.8712,0.1030,0.0465,1742.43,1203.31,1812.56
17610,-3.8712,0.0992,0.0565,1195.56,1953.31,-1406.19
17620,-3.8712,0.0973,0.0652,711.18,-765.44,-109.31
17630,-3.8711,0.0958,0.0676,461.18,343.93,1312.62
17640,-3.8711,0.0952,0.0618,273.68,656.43,-1546.75
17650,-3.8711,0.0964,0.0500,195.56,-93.57,-1218.69
17660,-3.8711,0.0984,0.0385,351.81,-1593.57,-1921.81
17670,-3.8711,0.0977,0.0315,601.81,922.06,750.06
17680,-3.8712,0.0934,0.0315,508.06,31.43,-515.56
17690,-3.8712,0.0881,0.0375,-38.82,31.37,-1093.69
17700,-3.8712,0.0841,0.0475,-710.69,797.00,-953.06
17710,-3.8712,0.0834,0.0614,-1226.32,-1921.75,-468.69
17720,-3.8711,0.0879,0.0741,-1320.07,-140.50,328.19
17730,-3.8711,0.0938,0.0764,-741.94,1484.50,1297.00
17740,-3.8711,0.0958,0.0668,8.06,1781.43,1703.25
17750,-3.8711,0.0966,0.0533,273.68,547.06,1140.75
17760,-3.8711,0.0980,0.0457,367.43,-1171.69,93.81
17770,-3.8712,0.0992,0.0475,554.93,1843.93,-671.81
17780,-3.8712,0.0985,0.0544,711.18,-1921.69,-937.44
17790,-3.8712,0.0959,0.0585,617.43,-1031.07,-921.81
17800,-3.8712,0.0934,0.0564,289.31,-515.44,-1093.69
17810,-3.8712,0.0907,0.0531,-38.82,-781.13,-1562.44
17820,-3.8712,0.0908,0.0553,-382.57,-1203.00,-1999.94
17830,-3.8712,0.0948,0.0619,-366.94,-921.75,-1843.69
17840,-3.8712,0.0997,0.0660,148.68,-77.94,-1062.44
17850,-3.8712,0.1031,0.0635,773.68,453.31,-328.00
17860,-3.8712,0.1022,0.0555,1211.18,125.18,-140.50
17870,-3.8712,0.0959,0.0487,1086.18,-890.44,-515.56
17880,-3.8712,0.0867,0.0487,289.31,-1765.44,-953.06
17890,-3.8712,0.0790,0.0559,-898.19,-1765.50,-874.94
17900,-3.8712,0.0773,0.0647,-1882.57,-843.63,-312.44
17910,-3.8711,0.0824,0.0681,1898.68,281.37,343.87
17920,-3.8711,0.0906,0.0651,-1445.07,718.87,765.75
17930,-3.8711,0.0967,0.0613,-398.19,328.25,781.37
17940,-3.8711,0.0979,0.0608,383.06,-156.07,671.94
17950,-3.8711,0.0952,0.0609,539.31,-218.57,468.81
17960,-3.8711,0.0930,0.0581,195.56,-202.94,93.81
17970,-3.8712,0.0925,0.0537,-85.69,-562.38,-499.94
17980,-3.8712,0.0920,0.0497,-148.19,-1124.88,-1218.69
17990,-3.8712,0.0907,0.0516,-210.69,-1640.50,-1796.81
18000,-3.8712,0.0902,0.0629,-382.57,-1390.50,-1890.56
18010,-3.8712,0.0929,0.0753,-445.07,47.00,-1218.63
18020,-3.8712,0.0969,0.0775,-101.32,1640.75,-234.25
18030,-3.8711,0.0992,0.0687,414.31,1922.06,265.75
18040,-3.8711,0.1003,0.0582,711.18,797.06,15.75
18050,-3.8712,0.1002,0.0543,851.81,-546.69,-593.69
18060,-3.8712,0.0981,0.0563,836.18,-1046.69,-937.44
18070,-3.8712,0.0953,0.0581,570.56,-796.69,-937.44
18080,-3.8712,0.0922,0.0560,211.18,-562.32,-953.06
18090,-3.8712,0.0885,0.0541,-195.07,-828.00,-1187.44
18100,-3.8712,0.0858,0.0580,-663.82,-1078.00,-1406.19
18110,-3.8712,0.0859,0.0663,-1007.57,-578.00,-1124.94
18120,-3.8712,0.0869,0.0717,-991.94,484.50,-218.63
18130,-3.8711,0.0851,0.0692,-866.94,1172.00,812.62
18140,-3.8711,0.0814,0.0616,-1101.32,859.50,1328.25
18150,-3.8711,0.0802,0.0566,-1570.07,-109.25,1171.94
18160,-3.8711,0.0841,0.0569,-1726.32,-749.88,890.69
18170,-3.8711,0.0905,0.0573,-1226.32,-718.63,796.94
18180,-3.8711,0.0959,0.0560,-413.82,-671.75,562.56
18190,-3.8711,0.0994,0.0570,289.31,-827.94,15.69
18200,-3.8712,0.0990,0.0637,726.81,-702.94,-359.31
18210,-3.8712,0.0957,0.0748,679.93,156.43,-234.25
18220,-3.8711,0.0931,0.0830,258.06,1578.31,281.37
18230,-3.8711,0.0918,0.0803,-70.07,-1374.88,828.25
18240,-3.8711,0.0898,0.0670,-241.94,-1718.63,781.37
18250,-3.8712,0.0869,0.0520,-491.94,578.25,-62.38
18260,-3.8712,0.0835,0.0450,-866.94,-1343.63,-1249.94
18270,-3.8712,0.0817,0.0476,-1304.44,1765.75,1859.44
18280,-3.8712,0.0812,0.0544,-1538.82,-1906.13,1500.06
18290,-3.8712,0.0812,0.0605,-1601.32,-1031.13,1546.94
18300,-3.8712,0.0818,0.0667,-1601.32,-249.88,1593.81
18310,-3.8712,0.0823,0.0714,-1523.19,531.37,1640.75
18320,-3.8712,0.0844,0.0710,-1460.69,1140.75,-1874.88
18330,-3.8712,0.0905,0.0668,-1195.07,1093.87,-1203.00
18340,-3.8712,0.0999,0.0621,-413.82,547.00,-1031.13
18350,-3.8712,0.1071,0.0593,789.31,-46.69,-1234.31
18360,-3.8712,0.1085,0.0586,1711.18,-406.07,-1265.56
18370,-3.8712,0.1047,0.0604,1898.68,-499.82,-1187.44
18380,-3.8712,0.1000,0.0643,1414.31,-265.44,-1187.44
18390,-3.8712,0.1001,0.0675,804.93,234.56,-1140.50
18400,-3.8712,0.1039,0.0709,820.56,640.81,-999.88
18410,-3.8712,0.1073,0.0763,1304.93,1078.31,-749.88
18420,-3.8712,0.1096,0.0812,1742.43,1765.81,-124.88
18430,-3.8711,0.1090,0.0804,-1960.69,-1609.19,984.50
18440,-3.8711,0.1038,0.0702,1961.18,-1702.94,1922.00
18450,-3.8711,0.0940,0.0537,1289.31,984.56,-1968.63
18460,-3.8711,0.0851,0.0400,39.31,-1124.82,1328.19
18470,-3.8711,0.0825,0.0376,-1101.32,1125.12,328.19
18480,-3.8712,0.0856,0.0441,-1429.44,812.62,-499.94
18490,-3.8712,0.0916,0.0508,-1038.82,1640.75,-999.94
18500,-3.8712,0.0969,0.0559,-273.19,-1499.88,-1171.81
18510,-3.8712,0.0986,0.0627,414.31,-843.57,-1187.44
18520,-3.8712,0.0984,0.0714,633.06,31.43,-796.75
18530,-3.8711,0.0985,0.0756,601.81,1140.81,172.00
18540,-3.8711,0.0988,0.0702,617.43,1672.06,922.00
18550,-3.8711,0.0996,0.0612,648.68,984.56,828.25
18560,-3.8711,0.1014,0.0553,758.06,-171.69,156.31
18570,-3.8712,0.1019,0.0526,992.43,-921.69,-578.06
18580,-3.8712,0.1005,0.0513,1054.93,-1265.44,-1249.94
18590,-3.8712,0.0989,0.0510,867.43,-1437.32,-1781.19
18600,-3.8712,0.0959,0.0538,664.31,-1468.57,1921.94
18610,-3.8712,0.0929,0.0607,289.31,-1109.19,-1999.94
18620,-3.8712,0.0919,0.0697,-101.32,-234.25,-1343.69
18630,-3.8712,0.0918,0.0743,-226.32,922.00,-312.38
18640,-3.8711,0.0919,0.0709,-241.94,1515.75,593.87
18650,-3.8711,0.0918,0.0643,-226.32,1078.25,843.87
18660,-3.8711,0.0918,0.0602,-241.94,234.50,593.87
18670,-3.8711,0.0945,0.0593,-241.94,-296.75,218.81
18680,-3.8712,0.0984,0.0596,101.81,-406.07,-62.44
18690,-3.8712,0.0999,0.0593,601.81,-374.82,-343.69
18700,-3.8712,0.0985,0.0607,789.31,-406.07,-765.56
18710,-3.8712,0.0964,0.0654,617.43,-234.19,-1031.19
18720,-3.8712,0.0948,0.0696,351.81,375.18,-906.13
18730,-3.8712,0.0938,0.0686,148.68,906.43,-703.00
18740,-3.8712,0.0940,0.0627,8.06,781.43,-781.13
18750,-3.8712,0.0947,0.0564,39.31,31.43,-1234.25
18760,-3.8712,0.0959,0.0557,133.06,-781.07,-1734.31
18770,-3.8712,0.1003,0.0620,289.31,-874.82,-1843.69
18780,-3.8712,0.1072,0.0691,851.81,-62.32,-1609.31
18790,-3.8712,0.1121,0.0721,1726.81,843.93,-1328.00
18800,-3.8712,0.1124,0.0720,-1648.19,1234.56,-1093.63
18810,-3.8712,0.1069,0.0686,-1601.32,1218.93,-874.88
18820,-3.8712,0.0968,0.0624,1695.56,781.43,-671.75
18830,-3.8712,0.0876,0.0576,398.68,-15.44,-624.94
18840,-3.8712,0.0848,0.0568,-773.19,-624.88,-859.31
18850,-3.8712,0.0868,0.0566,-1132.57,-734.25,-953.06
18860,-3.8712,0.0894,0.0543,-882.57,-749.88,-859.31
18870,-3.8712,0.0912,0.0540,-554.44,-1046.75,-812.44
18880,-3.8712,0.0919,0.0596,-320.07,-1093.63,-671.81
18890,-3.8712,0.0909,0.0668,-226.32,-374.88,-218.69
18900,-3.8711,0.0889,0.0696,-351.32,547.00,390.75
18910,-3.8711,0.0873,0.0702,-616.94,906.37,687.62
18920,-3.8711,0.0886,0.0724,-820.07,984.50,609.50
18930,-3.8711,0.0951,0.0753,-648.19,1265.75,547.00
18940,-3.8711,0.1028,0.0763,179.93,1640.81,750.12
18950,-3.8711,0.1050,0.0732,1164.31,1765.81,953.25
18960,-3.8711,0.1003,0.0659,1445.56,1375.18,797.00
18970,-3.8711,0.0925,0.0576,851.81,437.68,281.37
18980,-3.8712,0.0870,0.0541,-148.19,-624.88,-296.81
18990,-3.8712,0.0885,0.0593,-851.32,-1078.00,-734.31
19000,-3.8712,0.0951,0.0695,-663.82,-406.13,-874.94
19010,-3.8712,0.0995,0.0750,179.93,890.81,-609.25
19020,-3.8712,0.0973,0.0730,742.43,1593.93,-249.88
19030,-3.8712,0.0913,0.0690,461.18,1343.93,-78.00
19040,-3.8712,0.0850,0.0663,-304.44,828.25,-109.25
19050,-3.8712,0.0812,0.0641,-1116.94,484.50,-328.00
19060,-3.8712,0.0802,0.0603,-1601.32,203.25,-734.25
19070,-3.8712,0.0801,0.0563,-1726.32,-281.13,-1406.19
19080,-3.8712,0.0791,0.0557,-1741.94,-796.75,1875.06
19090,-3.8712,0.0808,0.0591,-1866.94,-874.88,1593.81
19100,-3.8712,0.0862,0.0646,-1648.19,-437.38,1812.56
19110,-3.8712,0.0911,0.0684,-960.69,265.75,-1812.38
19120,-3.8712,0.0952,0.0708,-335.69,750.12,-1468.63
19130,-3.8712,0.0997,0.0748,195.56,1062.68,-1156.13
19140,-3.8712,0.1049,0.0786,773.68,1578.31,-687.38
19150,-3.8712,0.1104,0.0795,1429.93,-1937.32,-124.88
19160,-3.8711,0.1133,0.0769,-1866.94,-1827.94,203.25
19170,-3.8711,0.1121,0.0718,-1491.94,1843.93,140.75
19180,-3.8711,0.1071,0.0660,-1648.19,1187.68,62.62
19190,-3.8712,0.0984,0.0609,1711.18,453.31,-31.13
19200,-3.8712,0.0891,0.0586,601.81,-202.94,-187.44
19210,-3.8712,0.0797,0.0583,-585.69,-499.88,-140.56
19220,-3.8712,0.0706,0.0564,-1788.82,-531.13,-46.81
19230,-3.8712,0.0668,0.0546,1039.31,-781.13,-78.06
19240,-3.8712,0.0715,0.0555,554.93,-1015.50,-140.56
19250,-3.8712,0.0835,0.0593,1164.31,-890.50,-171.81
19260,-3.8712,0.0968,0.0648,-1304.44,-406.13,-218.69
19270,-3.8712,0.1062,0.0687,398.68,297.06,-374.88
19280,-3.8712,0.1123,0.0714,1601.81,797.06,-562.38
19290,-3.8712,0.1157,0.0740,-1616.94,1140.81,-687.38
19300,-3.8712,0.1161,0.0731,-1179.44,1468.93,-640.50
19310,-3.8712,0.1121,0.0676,-1132.57,1359.56,-609.25
19320,-3.8712,0.1044,0.0645,-1648.19,656.43,-843.63
19330,-3.8712,0.0977,0.0686,1367.43,250.18,-921.75
19340,-3.8712,0.0936,0.0729,508.06,781.43,-468.63
19350,-3.8711,0.0894,0.0677,-7.57,1328.25,125.12
19360,-3.8711,0.0851,0.0540,-554.44,672.00,0.12
19370,-3.8712,0.0831,0.0427,-1101.32,-1093.63,-984.31
19380,-3.8712,0.0844,0.0454,-1351.32,1468.87,1984.44
19390,-3.8712,0.0894,0.0594,-1195.07,1812.62,1750.06
19400,-3.8712,0.0967,0.0706,-554.44,-390.50,-1593.69
19410,-3.8712,0.1016,0.0708,383.06,1031.43,-734.25
19420,-3.8712,0.1022,0.0663,1008.06,1062.68,-421.75
19430,-3.8712,0.1005,0.0685,1086.18,484.56,-406.13
19440,-3.8712,0.0983,0.0771,867.43,765.81,-31.13
19450,-3.8711,0.0977,0.0814,586.18,1875.18,640.75
19460,-3.8711,0.0992,0.0746,508.06,-1577.94,1015.75
19470,-3.8711,0.0995,0.0610,711.18,1547.06,687.62
19480,-3.8712,0.0974,0.0502,742.43,-187.32,-265.56
19490,-3.8712,0.0963,0.0494,476.81,-1577.94,-1437.44
19500,-3.8712,0.0974,0.0590,336.18,-1671.69,1828.19
19510,-3.8712,0.0988,0.0696,476.81,-452.94,1906.31
19520,-3.8712,0.0986,0.0724,648.68,906.43,-1703.00
19530,-3.8712,0.0969,0.0680,633.06,1265.81,-1343.63
19540,-3.8712,0.0933,0.0637,414.31,703.31,-999.88
19550,-3.8712,0.0909,0.0658,-54.44,156.37,-703.00
19560,-3.8712,0.0918,0.0721,-351.32,422.00,-343.63
19570,-3.8711,0.0936,0.0754,-241.94,1234.50,281.37
19580,-3.8711,0.0939,0.0717,-7.57,1656.37,781.37
19590,-3.8711,0.0914,0.0637,23.68,1172.06,718.87
19600,-3.8711,0.0879,0.0575,-288.82,156.37,140.75
19610,-3.8712,0.0858,0.0571,-741.94,-640.50,-453.06
19620,-3.8712,0.0851,0.0618,-1007.57,-687.38,-765.56
19630,-3.8712,0.0837,0.0675,-1101.32,-93.63,-812.44
19640,-3.8712,0.0818,0.0721,-1273.19,640.75,-624.88
19650,-3.8712,0.0818,0.0735,-1523.19,1234.50,-328.00
19660,-3.8712,0.0839,0.0692,-1523.19,1406.37,-31.13
19670,-3.8711,0.0868,0.0609,-1257.57,859.50,0.12
19680,-3.8712,0.0896,0.0557,-882.57,-203.00,-328.06
19690,-3.8712,0.0908,0.0590,-523.19,-874.88,-749.94
19700,-3.8712,0.0930,0.0675,-366.94,-453.00,-828.06
19710,-3.8712,0.0977,0.0745,-85.69,640.75,-406.13
19720,-3.8712,0.1016,0.0759,508.06,1531.43,-31.13
19730,-3.8712,0.1038,0.0730,1008.06,1718.93,-78.00
19740,-3.8712,0.1052,0.0686,1289.31,1343.93,-359.25
19750,-3.8712,0.1027,0.0643,1476.81,781.43,-703.00
19760,-3.8712,0.0948,0.0608,1148.68,234.56,-968.63
19770,-3.8712,0.0847,0.0590,148.68,-218.57,-999.94
19780,-3.8712,0.0758,0.0598,-1148.19,-453.00,-874.94
19790,-3.8712,0.0726,0.0615,1711.18,-343.63,-593.69
19800,-3.8712,0.0748,0.0625,1304.93,-124.88,-203.06
19810,-3.8711,0.0780,0.0645,1586.18,0.12,31.37
19820,-3.8711,0.0807,0.0695,1992.43,250.12,156.37
19830,-3.8711,0.0834,0.0741,-1663.82,890.75,359.50
19840,-3.8711,0.0857,0.0735,-1320.07,1484.50,562.62
19850,-3.8711,0.0885,0.0685,-1023.19,1406.37,328.25
19860,-3.8712,0.0924,0.0640,-663.82,765.75,-468.63
19870,-3.8712,0.0955,0.0621,-163.82,187.62,-1406.13
19880,-3.8712,0.0953,0.0587,226.81,-46.69,1812.56
19890,-3.8712,0.0928,0.0540,211.18,-484.19,1140.69
19900,-3.8712,0.0908,0.0541,-116.94,-1093.63,593.81
19910,-3.8712,0.0894,0.0602,-366.94,-1078.00,578.19
19920,-3.8712,0.0875,0.0697,-554.44,-296.75,1281.31
19930,-3.8712,0.0865,0.0785,-788.82,922.00,-1578.00
19940,-3.8712,0.0895,0.0837,-913.82,-1953.00,-265.50
19950,-3.8711,0.0970,0.0851,-538.82,-1281.13,906.37
19960,-3.8711,0.1033,0.0815,429.93,-1109.19,1640.75
19970,-3.8711,0.1023,0.0748,1226.81,-1562.32,1859.50
19980,-3.8711,0.0957,0.0687,1101.81,1578.31,1672.00
19990,-3.8711,0.0862,0.0645,258.06,797.06,1312.62
20000,-3.8711,0.0762,0.0609,-960.69,250.12,922.00
20010,-3.8711,0.0693,0.0581,1758.06,-203.00,468.81
20020,-3.8712,0.0685,0.0583,883.06,-562.38,-78.06
20030,-3.8712,0.0723,0.0626,773.68,-531.13,-531.19
20040,-3.8712,0.0786,0.0677,1258.06,15.75,-640.50
20050,-3.8712,0.0873,0.0706,-1929.44,672.00,-499.88
20060,-3.8712,0.0958,0.0718,-820.07,1031.37,-296.75
20070,-3.8712,0.1001,0.0697,273.68,1187.68,-218.63
20080,-3.8712,0.0991,0.0641,820.56,922.06,-406.13
20090,-3.8712,0.0952,0.0601,695.56,203.31,-843.63
20100,-3.8712,0.0919,0.0612,195.56,-312.32,-1203.06
20110,-3.8712,0.0905,0.0663,-226.32,-171.75,-1140.56
20120,-3.8712,0.0900,0.0728,-413.82,484.50,-937.38
20130,-3.8712,0.0887,0.0768,-476.32,1312.62,-687.38
20140,-3.8712,0.0862,0.0746,-632.57,1828.25,-343.63
20150,-3.8712,0.0853,0.0669,-960.69,1547.00,-312.38
20160,-3.8712,0.0854,0.0590,-1070.07,562.62,-718.63
20170,-3.8712,0.0839,0.0544,-1054.44,-453.00,-1234.31
20180,-3.8712,0.0812,0.0548,-1257.57,-1031.13,-1546.81
20190,-3.8712,0.0793,0.0605,-1601.32,-984.25,-1374.94
20200,-3.8712,0.0798,0.0690,-1835.69,-249.88,-843.69
20210,-3.8712,0.0841,0.0763,-1773.19,828.25,-328.00
20220,-3.8711,0.0920,0.0791,-1226.32,1765.75,31.37
20230,-3.8711,0.0994,0.0782,-210.69,-1874.88,125.12
20240,-3.8711,0.1019,0.0776,726.81,-1984.19,93.87
20250,-3.8711,0.0994,0.0779,1054.93,1937.68,125.12
20260,-3.8711,0.0922,0.0748,726.81,1968.93,125.12
20270,-3.8712,0.0823,0.0659,-195.07,1578.25,-46.75
20280,-3.8712,0.0731,0.0560,-1460.69,437.62,-515.50
20290,-3.8712,0.0679,0.0515,1367.43,-828.00,-1328.06
20300,-3.8712,0.0704,0.0548,695.56,-1406.13,1859.44
20310,-3.8712,0.0806,0.0618,1023.68,-984.25,1390.69
20320,-3.8712,0.0913,0.0673,-1679.44,-93.63,1296.94
20330,-3.8712,0.0963,0.0714,-304.44,609.50,1453.25
20340,-3.8712,0.0964,0.0756,336.18,1140.81,1859.50
20350,-3.8712,0.0958,0.0764,351.81,1672.06,-1421.75
20360,-3.8712,0.0939,0.0701,273.68,1781.43,-828.00
20370,-3.8712,0.0887,0.0609,23.68,968.93,-703.00
20380,-3.8712,0.0825,0.0566,-632.57,-203.00,-921.81
20390,-3.8712,0.0798,0.0598,-1429.44,-749.88,-1124.94
20400,-3.8712,0.0830,0.0654,-1773.19,-343.63,-937.44
20410,-3.8712,0.0890,0.0686,-1366.94,375.12,-499.88
20420,-3.8712,0.0936,0.0708,-601.32,781.37,-140.50
20430,-3.8711,0.0941,0.0725,-7.57,1062.62,156.37
20440,-3.8711,0.0903,0.0708,54.93,1281.43,515.75
20450,-3.8711,0.0846,0.0660,-429.44,1062.62,859.50
20460,-3.8711,0.0780,0.0620,-1163.82,453.25,953.25
20470,-3.8711,0.0721,0.0610,1992.43,-62.38,843.81
20480,-3.8711,0.0710,0.0626,1242.43,-187.38,671.94
20490,-3.8711,0.0756,0.0653,1101.81,15.75,531.37
20500,-3.8711,0.0824,0.0682,1679.93,359.50,281.37
20510,-3.8711,0.0876,0.0717,-1445.07,734.50,31.37
20520,-3.8712,0.0884,0.0748,-773.19,1172.00,-31.13
20530,-3.8712,0.0856,0.0743,-679.44,1578.25,-15.50
20540,-3.8712,0.0822,0.0690,-1038.82,1515.75,-171.75
20550,-3.8712,0.0801,0.0626,-1476.32,828.25,-703.00
20560,-3.8712,0.0795,0.0592,-1741.94,15.75,-1484.25
20570,-3.8712,0.0820,0.0590,-1820.07,-421.75,1828.19
20580,-3.8712,0.0867,0.0621,-1491.94,-453.00,1296.94
20590,-3.8712,0.0914,0.0692,-898.19,-46.75,921.94
20600,-3.8712,0.0966,0.0757,-288.82,859.50,953.25
20610,-3.8712,0.1005,0.0778,367.43,1687.68,1297.00
20620,-3.8712,0.0996,0.0759,867.43,1953.31,1609.50
20630,-3.8712,0.0933,0.0708,758.06,1718.93,1531.37
20640,-3.8712,0.0858,0.0629,-54.44,1062.62,1250.12
20650,-3.8712,0.0818,0.0574,-1007.57,47.00,1203.25
20660,-3.8712,0.0830,0.0596,-1523.19,-656.13,1484.44
20670,-3.8712,0.0885,0.0679,-1366.94,-374.88,-1890.56
20680,-3.8712,0.0963,0.0752,-663.82,687.62,-890.50
20690,-3.8711,0.1024,0.0775,336.18,1625.18,234.50
20700,-3.8711,0.1022,0.0784,1117.43,1922.06,1062.62
20710,-3.8711,0.0966,0.0812,1086.18,-1968.57,1437.62
20720,-3.8711,0.0898,0.0814,367.43,-1609.19,1703.25
20730,-3.8711,0.0833,0.0742,-491.94,-1578.00,1859.50
20740,-3.8711,0.0782,0.0652,-1335.69,1500.12,1437.62
20750,-3.8711,0.0770,0.0613,-1976.32,343.87,750.12
20760,-3.8711,0.0801,0.0614,1867.43,-156.13,234.44
20770,-3.8712,0.0880,0.0619,-1741.94,-140.50,-62.44
20780,-3.8712,0.0966,0.0618,-726.32,-78.00,-312.44
20790,-3.8712,0.0994,0.0632,367.43,-93.57,-843.69
20800,-3.8712,0.0958,0.0669,726.81,93.93,-1390.50
20810,-3.8712,0.0891,0.0706,273.68,562.68,-1437.38
20820,-3.8712,0.0834,0.0748,-585.69,1031.37,-1140.50
20830,-3.8712,0.0797,0.0803,-1320.07,1578.25,-609.25
20840,-3.8711,0.0803,0.0815,-1788.82,-1718.63,281.37
20850,-3.8711,0.0845,0.0764,-1710.69,-1562.38,1078.25
20860,-3.8711,0.0880,0.0695,-1179.44,1781.37,1187.62
20870,-3.8711,0.0905,0.0653,-726.32,890.75,781.37
20880,-3.8711,0.0922,0.0649,-413.82,359.50,140.75
20890,-3.8712,0.0900,0.0668,-195.07,312.62,-578.00
20900,-3.8712,0.0833,0.0692,-476.32,547.00,-1109.25
20910,-3.8712,0.0768,0.0717,-1335.69,859.50,-1281.13
20920,-3.8712,0.0748,0.0726,1836.18,1172.00,-1062.38
20930,-3.8712,0.0781,0.0725,1586.18,1297.00,-781.13
20940,-3.8712,0.0842,0.0742,-1991.94,1281.37,-546.75
20950,-3.8712,0.0897,0.0765,-1210.69,1500.12,-218.63
20960,-3.8711,0.0919,0.0752,-507.57,1797.00,15.75
20970,-3.8712,0.0906,0.0720,-226.32,1625.12,-62.38
20980,-3.8712,0.0886,0.0715,-398.19,1218.87,-453.00
20990,-3.8712,0.0878,0.0752,-648.19,1156.37,-796.75
21000,-3.8712,0.0872,0.0800,-757.57,1625.12,-890.50
21010,-3.8712,0.0869,0.0829,-835.69,-1765.50,-999.88
21020,-3.8712,0.0873,0.0840,-866.94,-1390.50,-1234.25
21030,-3.8712,0.0876,0.0828,-820.07,-1249.88,-1421.75
21040,-3.8712,0.0872,0.0778,-773.19,-1406.13,-1562.38
21050,-3.8712,0.0862,0.0710,-835.69,1953.25,-1812.38
21060,-3.8712,0.0852,0.0677,-960.69,1093.87,1718.87
21070,-3.8712,0.0851,0.0704,-1085.69,672.00,1422.00
21080,-3.8712,0.0864,0.0746,-1101.32,1015.75,1484.50
21090,-3.8712,0.0889,0.0767,-929.44,1547.00,1843.87
21100,-3.8712,0.0911,0.0771,-616.94,1812.62,-1718.63
21110,-3.8712,0.0929,0.0774,-335.69,1875.12,-1406.13
21120,-3.8712,0.0933,0.0767,-101.32,1906.37,-1203.00
21130,-3.8712,0.0920,0.0747,-54.44,1812.62,-1093.63
21140,-3.8712,0.0901,0.0736,-210.69,1562.62,-953.00
21150,-3.8712,0.0859,0.0732,-460.69,1422.00,-734.25
21160,-3.8712,0.0822,0.0723,-991.94,1375.12,-531.13
21170,-3.8712,0.0837,0.0707,-1476.32,1250.12,-296.75
21180,-3.8712,0.0879,0.0685,-1273.19,1047.00,-140.50
21190,-3.8712,0.0902,0.0684,-741.94,765.75,-281.13
21200,-3.8712,0.0902,0.0741,-445.07,750.12,-453.00
21210,-3.8712,0.0880,0.0825,-445.07,1484.50,-312.38
21220,-3.8711,0.0853,0.0881,-726.32,-1437.38,172.00
21230,-3.8711,0.0856,0.0873,-1070.07,-718.63,687.62
21240,-3.8711,0.0868,0.0814,-1038.82,-828.00,875.12
21250,-3.8711,0.0873,0.0754,-882.57,-1578.00,578.25
21260,-3.8711,0.0872,0.0721,-820.07,1656.37,109.50
21270,-3.8712,0.0844,0.0702,-835.69,1234.50,-156.13
21280,-3.8712,0.0793,0.0686,-1195.07,984.50,-343.63
21290,-3.8712,0.0773,0.0703,-1835.69,781.37,-421.75
21300,-3.8712,0.0798,0.0750,1898.68,1000.12,-328.00
21310,-3.8712,0.0854,0.0804,-1773.19,1593.87,-203.00
21320,-3.8712,0.0935,0.0864,-1054.44,-1703.00,-93.63
21330,-3.8711,0.1005,0.0905,-23.19,-937.38,140.75
21340,-3.8711,0.1012,0.0892,867.43,-421.69,578.25
21350,-3.8711,0.0951,0.0817,961.18,-577.94,703.25
21360,-3.8711,0.0851,0.0728,179.93,-1546.69,187.62
21370,-3.8712,0.0754,0.0673,-1101.32,1312.62,-609.25
21380,-3.8712,0.0687,0.0653,1664.31,609.50,-1359.25
21390,-3.8712,0.0658,0.0653,804.93,359.50,1953.25
21400,-3.8712,0.0671,0.0670,429.93,359.50,1359.50
21410,-3.8712,0.0747,0.0697,601.81,578.25,1047.00
21420,-3.8712,0.0887,0.0745,1570.56,922.00,1109.50
21430,-3.8712,0.1036,0.0831,-632.57,1531.37,1578.25
21440,-3.8712,0.1146,0.0916,1273.68,-1359.19,-1421.75
21450,-3.8712,0.1194,0.0933,-1320.07,-281.07,-249.88
21460,-3.8711,0.1162,0.0878,-710.69,-62.32,422.00
21470,-3.8711,0.1080,0.0795,-1116.94,-765.44,484.50
21480,-3.8711,0.0992,0.0731,1836.18,-1827.94,265.75
21490,-3.8712,0.0916,0.0713,711.18,1359.56,-15.50
21500,-3.8712,0.0870,0.0734,-273.19,1125.12,-93.63
21510,-3.8711,0.0858,0.0779,-851.32,1390.75,140.75
21520,-3.8711,0.0862,0.0828,-1007.57,1968.87,609.50
21530,-3.8711,0.0876,0.0854,-960.69,-1406.13,1203.25
21540,-3.8711,0.0885,0.0834,-773.19,-1062.38,1640.75
21550,-3.8711,0.0880,0.0784,-663.82,-1328.00,1734.50
21560,-3.8711,0.0885,0.0732,-726.32,-1968.63,1328.25
21570,-3.8711,0.0912,0.0693,-663.82,1375.12,547.00
21580,-3.8712,0.0946,0.0677,-320.07,875.12,-343.63
21590,-3.8712,0.0973,0.0682,117.43,672.06,-1218.63
21600,-3.8712,0.0977,0.0696,461.18,734.56,-1937.38
21610,-3.8712,0.0966,0.0730,508.06,906.43,1609.50
21620,-3.8712,0.0958,0.0808,367.43,1343.93,1640.75
21630,-3.8712,0.0961,0.0892,273.68,-1656.07,-1703.00
21640,-3.8712,0.0972,0.0922,304.93,-577.94,-796.75
21650,-3.8712,0.0958,0.0874,445.56,-202.94,-203.00
21660,-3.8712,0.0901,0.0779,273.68,-812.32,-281.13
21670,-3.8712,0.0829,0.0695,-460.69,1968.87,-968.63
21680,-3.8712,0.0793,0.0669,-1382.57,890.75,-1703.00
21690,-3.8712,0.0802,0.0701,-1835.69,562.62,-1937.38
21700,-3.8712,0.0842,0.0740,-1726.32,968.87,-1703.00
21710,-3.8712,0.0900,0.0760,-1210.69,1468.87,-1484.25
21720,-3.8712,0.0945,0.0793,-476.32,1734.50,-1390.50
21730,-3.8712,0.0968,0.0850,101.81,-1843.57,-1093.63
21740,-3.8712,0.0967,0.0906,398.68,-1124.82,-531.13
21750,-3.8711,0.0940,0.0931,383.06,-406.07,93.87
21760,-3.8711,0.0895,0.0918,39.31,-77.94,609.50
21770,-3.8711,0.0852,0.0872,-538.82,-249.88,1031.37
21780,-3.8711,0.0852,0.0804,-1085.69,-843.63,1250.12
21790,-3.8711,0.0894,0.0741,-1085.69,-1703.00,1078.25
21800,-3.8711,0.0945,0.0706,-554.44,1484.50,562.62
21810,-3.8712,0.1005,0.0701,101.81,1031.43,-203.00
21820,-3.8712,0.1057,0.0724,867.43,968.93,-874.88
21830,-3.8712,0.1063,0.0748,1539.31,1265.81,-1124.88
21840,-3.8712,0.1030,0.0751,1617.43,1578.31,-1234.25
21850,-3.8712,0.0991,0.0747,1195.56,1609.56,-1515.50
21860,-3.8712,0.0967,0.0762,695.56,1562.68,-1781.13
21870,-3.8712,0.0957,0.0793,383.06,1750.18,-1656.13
21880,-3.8712,0.0950,0.0801,258.06,-1843.57,-1343.63
21890,-3.8712,0.0945,0.0785,164.31,-1749.82,-1203.00
21900,-3.8712,0.0938,0.0801,101.81,-1952.94,-1093.63
21910,-3.8712,0.0925,0.0852,8.06,-1749.82,-640.50
21920,-3.8711,0.0948,0.0873,-148.19,-1093.63,15.75
21930,-3.8711,0.0999,0.0818,148.68,-827.94,437.62
21940,-3.8711,0.1023,0.0713,789.31,-1531.07,297.00
21950,-3.8712,0.1017,0.0636,1101.81,1125.18,-390.50
21960,-3.8712,0.0985,0.0637,1023.68,140.81,-1187.38
21970,-3.8712,0.0927,0.0695,617.43,156.43,-1453.00
21980,-3.8712,0.0873,0.0763,-132.57,890.75,-1093.63
21990,-3.8712,0.0845,0.0807,-820.07,1765.75,-562.38
22000,-3.8712,0.0850,0.0801,-1179.44,-1671.75,-15.50
22010,-3.8711,0.0889,0.0756,-1116.94,-1749.88,203.25
22020,-3.8712,0.0923,0.0725,-616.94,1672.00,-78.00
22030,-3.8712,0.0942,0.0723,-179.44,1281.37,-531.13
22040,-3.8712,0.0988,0.0719,70.56,1250.18,-890.50
22050,-3.8712,0.1044,0.0696,648.68,1203.31,-1187.38
22060,-3.8712,0.1058,0.0675,1367.43,906.43,-1546.75
22070,-3.8712,0.1040,0.0704,1554.93,640.81,-1859.25
22080,-3.8712,0.1019,0.0780,1320.56,1015.81,-1812.38
22090,-3.8712,0.0997,0.0842,1054.93,1984.56,-1265.50
22100,-3.8712,0.0981,0.0863,773.68,-1218.57,-609.25
22110,-3.8712,0.0967,0.0837,570.56,-952.94,-15.50
22120,-3.8711,0.0935,0.0782,383.06,-1281.07,437.62
22130,-3.8711,0.0903,0.0731,-23.19,-1984.25,468.87
22140,-3.8711,0.0873,0.0679,-429.44,1359.50,250.12
22150,-3.8712,0.0841,0.0636,-820.07,687.62,-78.00
22160,-3.8712,0.0828,0.0629,-1226.32,140.75,-499.88
22170,-3.8712,0.0848,0.0669,-1398.19,47.00,-906.13
22180,-3.8712,0.0892,0.0748,-1132.57,562.62,-1093.63
22190,-3.8712,0.0931,0.0829,-570.07,1578.25,-1015.50
22200,-3.8712,0.0945,0.0856,-70.07,-1390.50,-843.63
22210,-3.8712,0.0948,0.0804,101.81,-1046.69,-609.25
22220,-3.8712,0.0951,0.0721,148.68,-1702.94,-484.25
22230,-3.8712,0.0974,0.0675,179.93,1234.56,-718.63
22240,-3.8712,0.1040,0.0690,476.81,640.81,-1140.50
22250,-3.8712,0.1127,0.0742,1320.56,828.31,-1437.38
22260,-3.8712,0.1180,0.0779,-1570.07,1500.18,-1499.88
22270,-3.8712,0.1160,0.0785,-882.57,1968.93,-1421.75
22280,-3.8712,0.1090,0.0814,-1148.19,-1952.94,-1312.38
22290,-3.8712,0.1017,0.0891,1961.18,-1577.94,-890.50
22300,-3.8711,0.0951,0.0924,1023.68,-593.57,93.87
22310,-3.8711,0.0897,0.0834,179.93,-171.69,1078.25
22320,-3.8711,0.0858,0.0684,-507.57,-1328.00,1078.25
22330,-3.8711,0.0844,0.0590,-1007.57,750.12,109.50
22340,-3.8712,0.0870,0.0615,-1195.07,-453.00,-921.81
22350,-3.8712,0.0940,0.0731,-851.32,-124.88,-1359.31
22360,-3.8712,0.1024,0.0848,39.31,1359.56,-1265.50
22370,-3.8712,0.1073,0.0900,1117.43,-1140.44,-1015.50
22380,-3.8712,0.1055,0.0894,1742.43,-484.19,-921.75
22390,-3.8712,0.0989,0.0857,1508.06,-562.32,-953.00
22400,-3.8712,0.0922,0.0795,664.31,-1031.07,-937.38
22410,-3.8712,0.0878,0.0713,-195.07,-1828.00,-1203.00
22420,-3.8712,0.0873,0.0642,-757.57,1125.12,-1890.50
22430,-3.8712,0.0917,0.0614,-820.07,218.87,1437.62
22440,-3.8712,0.0977,0.0658,-257.57,-140.50,1093.81
22450,-3.8712,0.1019,0.0753,508.06,422.06,1234.50
22460,-3.8712,0.1041,0.0851,1054.93,1640.81,1812.62
22470,-3.8712,0.1045,0.0919,1336.18,-1109.19,-1468.63
22480,-3.8712,0.1028,0.0948,1383.06,-234.19,-765.50
22490,-3.8712,0.0995,0.0914,1164.31,140.81,-234.19
22500,-3.8712,0.0964,0.0807,742.43,-296.69,-140.50
22510,-3.8712,0.0938,0.0677,351.81,-1671.69,-453.00
22520,-3.8712,0.0919,0.0614,8.06,672.06,-1015.50
22530,-3.8712,0.0920,0.0652,-226.32,-140.50,-1468.69
22540,-3.8712,0.0919,0.0742,-210.69,343.87,-1343.63
22550,-3.8712,0.0916,0.0814,-226.32,1500.12,-906.13
22560,-3.8712,0.0930,0.0867,-273.19,-1578.00,-453.00
22570,-3.8711,0.0966,0.0924,-85.69,-906.13,78.25
22580,-3.8711,0.1002,0.0958,367.43,-171.69,640.75
22590,-3.8711,0.1017,0.0901,836.18,265.81,1187.68
22600,-3.8711,0.0999,0.0770,1023.68,-468.57,1218.87
22610,-3.8711,0.0958,0.0667,789.31,1859.56,578.25
22620,-3.8712,0.0922,0.0647,273.68,531.43,-187.38
22630,-3.8712,0.0911,0.0698,-195.07,281.37,-687.38
22640,-3.8712,0.0946,0.0759,-335.69,937.62,-1015.50
22650,-3.8712,0.1006,0.0808,117.43,1718.93,-1328.00
22660,-3.8712,0.1050,0.0868,883.06,-1656.07,-1515.50
22670,-3.8712,0.1063,0.0938,1445.56,-890.44,-1249.88
22680,-3.8712,0.1047,0.0959,1617.43,0.18,-546.69
22690,-3.8711,0.1006,0.0901,1414.31,281.43,109.56
22700,-3.8711,0.0940,0.0802,883.06,-468.57,390.75
22710,-3.8711,0.0865,0.0731,39.31,-1734.19,312.62
22720,-3.8711,0.0811,0.0703,-913.82,1359.50,15.75
22730,-3.8712,0.0792,0.0708,-1616.94,1000.12,-421.75
22740,-3.8712,0.0811,0.0746,-1851.32,1062.62,-796.75
22750,-3.8712,0.0865,0.0809,-1616.94,1547.00,-1046.75
22760,-3.8712,0.0939,0.0881,-913.82,-1640.50,-999.88
22770,-3.8712,0.0988,0.0934,23.68,-718.57,-593.63
22780,-3.8712,0.0997,0.0934,648.68,-46.69,-124.88
22790,-3.8711,0.0979,0.0880,773.68,-46.69,156.37
22800,-3.8711,0.0940,0.0817,539.31,-734.19,109.50
22810,-3.8712,0.0906,0.0776,39.31,-1546.69,-265.50
22820,-3.8712,0.0901,0.0754,-398.19,1937.62,-921.75
22830,-3.8712,0.0925,0.0750,-460.69,1656.37,-1624.88
22840,-3.8712,0.0963,0.0781,-148.19,1593.87,1703.25
22850,-3.8712,0.1014,0.0848,336.18,-1999.82,1328.25
22860,-3.8712,0.1056,0.0895,992.43,-1140.44,1547.00
22870,-3.8712,0.1038,0.0905,1523.68,-546.69,-1781.13
22880,-3.8712,0.0951,0.0906,1289.31,-421.69,-921.75
22890,-3.8712,0.0844,0.0892,179.93,-406.07,-15.50
22900,-3.8711,0.0790,0.0834,-1195.07,-578.00,750.12
22910,-3.8711,0.0809,0.0751,-1882.57,-1328.00,1031.37
22920,-3.8711,0.0868,0.0702,-1632.57,1609.50,531.37
22930,-3.8712,0.0925,0.0703,-882.57,984.50,-203.00
22940,-3.8712,0.0946,0.0736,-148.19,1000.12,-593.63
22950,-3.8712,0.0928,0.0795,117.43,1422.06,-703.00
22960,-3.8712,0.0881,0.0876,-116.94,-1828.00,-671.75
22970,-3.8712,0.0835,0.0945,-710.69,-781.13,-359.25
22980,-3.8711,0.0812,0.0941,-1304.44,93.87,156.43
22990,-3.8711,0.0808,0.0844,-1601.32,47.00,297.06
23000,-3.8712,0.0836,0.0734,-1648.19,-1203.00,-374.88
23010,-3.8712,0.0897,0.0697,-1288.82,1390.75,-1546.75
23020,-3.8712,0.0985,0.0741,-507.57,922.00,1547.00
23030,-3.8712,0.1090,0.0826,617.43,1484.56,1312.62
23040,-3.8712,0.1168,0.0916,1961.18,-1421.69,1625.12
23050,-3.8712,0.1194,0.1012,-1038.82,-281.07,-1781.13
23060,-3.8712,0.1161,0.1100,-710.69,953.31,-937.32
23070,-3.8711,0.1062,0.1105,-1132.57,-1921.69,187.68
23080,-3.8711,0.0933,0.0986,1601.81,-1859.19,984.56
23090,-3.8711,0.0831,0.0814,-54.44,625.12,1015.81
23100,-3.8711,0.0765,0.0704,-1351.32,-1578.00,531.37
23110,-3.8712,0.0715,0.0690,1804.93,1015.75,-15.50
23120,-3.8712,0.0707,0.0725,1164.31,828.25,-468.63
23130,-3.8712,0.0767,0.0779,1054.93,1281.37,-671.75
23140,-3.8712,0.0854,0.0830,1820.56,1968.87,-546.75
23150,-3.8712,0.0936,0.0867,-1054.44,-1374.88,-437.38
23160,-3.8712,0.0992,0.0901,-7.57,-906.13,-453.00
23170,-3.8712,0.1001,0.0953,711.18,-468.57,-406.13
23180,-3.8712,0.0972,0.0999,820.56,203.31,-156.07
23190,-3.8711,0.0940,0.0963,445.56,781.43,218.93
23200,-3.8711,0.0944,0.0841,39.31,328.31,140.81
23210,-3.8712,0.0978,0.0718,86.18,-1234.19,-593.63
23220,-3.8712,0.1005,0.0676,523.68,1187.68,-1531.13
23230,-3.8712,0.1013,0.0721,867.43,656.43,1781.37
23240,-3.8712,0.1002,0.0795,976.81,1234.56,1672.00
23250,-3.8712,0.0961,0.0839,836.18,-1827.94,-1890.50
23260,-3.8712,0.0895,0.0853,304.93,-1265.44,-1249.88
23270,-3.8712,0.0837,0.0857,-538.82,-1078.00,-624.88
23280,-3.8712,0.0811,0.0830,-1273.19,-1031.13,-31.13
23290,-3.8711,0.0826,0.0773,-1616.94,-1374.88,375.12
23300,-3.8711,0.0889,0.0737,-1413.82,1890.75,234.50
23310,-3.8712,0.0947,0.0754,-616.94,1437.62,-156.13
23320,-3.8712,0.0963,0.0786,133.06,1656.43,-374.88
23330,-3.8712,0.0962,0.0782,336.18,-1937.32,-593.63
23340,-3.8712,0.0970,0.0784,320.56,-1984.19,-953.00
23350,-3.8712,0.0958,0.0854,429.93,-1968.57,-1171.75
23360,-3.8712,0.0923,0.0967,273.68,-1062.32,-843.63
23370,-3.8712,0.0919,0.1030,-179.44,375.12,-109.19
23380,-3.8711,0.0950,0.0997,-226.32,1187.62,406.43
23390,-3.8711,0.0973,0.0903,164.31,765.81,250.18
23400,-3.8712,0.0988,0.0803,461.18,-437.32,-562.38
23410,-3.8712,0.1013,0.0734,648.68,-1718.57,-1703.00
23420,-3.8712,0.1011,0.0715,976.81,1390.81,1156.37
