timestamp_ms,ax,ay,az,gx,gy,gz
0,-3.8746,-0.0627,0.9558,429.93,-1281.37,720.58
10,-3.8746,-0.0552,0.9601,-23.19,-1640.81,158.08
20,-3.8748,-0.0375,0.9650,945.56,-1093.87,-310.67
30,-3.8748,-0.0226,0.9642,-788.82,-468.87,-513.79
40,-3.8748,-0.0132,0.9619,1117.43,-562.56,-513.79
50,-3.8748,-0.0067,0.9604,-1679.44,-859.44,-420.04
60,-3.8748,-0.0039,0.9630,-851.32,-1046.94,-13.79
70,-3.8746,-0.0024,0.9692,-491.94,-718.81,329.96
80,-3.8746,-0.0024,0.9740,-304.44,78.06,205.02
90,-3.8748,-0.0004,0.9780,-304.44,687.44,-29.36
100,-3.8748,0.0135,0.9797,-38.82,1203.06,-263.73
110,-3.8748,0.0385,0.9755,1742.43,1406.25,-966.86
120,-3.8748,0.0564,0.9700,929.93,859.44,1861.27
130,-3.8748,0.0559,0.9703,-773.19,156.31,1033.14
140,-3.8748,0.0421,0.9792,-835.69,203.19,1189.39
150,-3.8748,0.0354,0.9943,1398.68,1343.81,-1748.11
160,-3.8748,0.0443,1.0039,539.31,-734.31,-935.61
170,-3.8748,0.0524,1.0024,1679.93,500.06,-701.17
180,-3.8748,0.0527,1.0012,-1288.82,312.56,-513.67
190,-3.8748,0.0592,1.0044,-1241.94,156.31,-685.55
200,-3.8748,0.0742,1.0029,-413.82,562.56,-1060.55
210,-3.8748,0.0880,0.9983,1508.06,375.12,-1451.17
220,-3.8748,0.0986,0.9976,-726.32,-218.63,-1904.36
230,-3.8748,0.1055,0.9980,633.06,-312.32,1798.77
240,-3.8748,0.1058,0.9977,1508.06,-249.82,1798.77
250,-3.8748,0.0997,0.9988,1554.93,-296.69,1892.52
260,-3.8748,0.0903,1.0011,773.68,-156.07,-1779.36
270,-3.8748,0.0802,1.0004,-429.44,140.75,-826.17
280,-3.8746,0.0718,0.9961,-1726.32,47.00,314.45
290,-3.8746,0.0642,0.9913,1195.56,-499.88,939.39
300,-3.8746,0.0570,0.9861,226.81,-1109.25,814.39
310,-3.8746,0.0521,0.9814,-695.07,-1781.19,267.52
320,-3.8748,0.0511,0.9818,-1320.07,1625.06,-279.36
330,-3.8748,0.0565,0.9889,-1445.07,1671.94,-638.73
340,-3.8748,0.0679,0.9954,-757.57,-1421.81,-654.36
350,-3.8748,0.0809,0.9972,695.56,-593.63,-310.61
360,-3.8746,0.0890,0.9999,-1632.57,-359.25,1.89
370,-3.8746,0.0895,1.0061,-601.32,-15.50,345.64
380,-3.8746,0.0872,1.0123,-538.82,781.37,892.58
390,-3.8746,0.0840,1.0126,-835.69,1578.25,1283.20
400,-3.8746,0.0811,1.0061,-1241.94,1609.50,1267.58
410,-3.8746,0.0770,0.9955,-1616.94,781.37,861.33
420,-3.8746,0.0709,0.9863,1867.43,-578.00,236.27
430,-3.8748,0.0648,0.9813,1086.18,-1749.88,-326.23
440,-3.8748,0.0613,0.9797,304.93,1609.50,-779.36
450,-3.8748,0.0619,0.9814,-148.19,1406.31,-1123.11
460,-3.8748,0.0640,0.9843,-70.07,1625.06,-1263.73
470,-3.8748,0.0642,0.9862,195.56,1984.50,-1154.36
480,-3.8748,0.0629,0.9889,226.81,-1765.50,-982.48
490,-3.8748,0.0609,0.9934,54.93,-1421.75,-794.98
500,-3.8748,0.0573,0.9983,-195.07,-843.69,-357.48
510,-3.8746,0.0551,1.0013,-663.82,-218.69,205.02
520,-3.8746,0.0605,0.9972,-945.07,171.94,533.20
530,-3.8746,0.0698,0.9841,-241.94,-359.31,486.27
540,-3.8746,0.0730,0.9675,945.56,1968.87,189.39
550,-3.8748,0.0653,0.9493,1351.81,-156.13,-482.54
560,-3.8748,0.0376,0.9299,367.43,1515.75,-1482.54
570,-3.8748,-0.0060,0.9196,820.56,-968.69,1814.27
580,-3.8748,-0.0349,0.9235,-757.57,1718.69,1439.27
590,-3.8748,-0.0286,0.9342,-460.69,-1781.37,1361.15
600,-3.8748,0.0098,0.9471,351.81,-406.31,1658.02
610,-3.8748,0.0632,0.9611,1258.06,1234.38,1798.71
620,-3.8748,0.1129,0.9751,101.81,-984.25,1642.46
630,-3.8748,0.1477,0.9878,-1538.82,812.68,1626.89
640,-3.8748,0.1659,0.9945,-1085.69,-1562.26,1876.89
650,-3.8748,0.1661,0.9927,1242.43,-702.82,-1919.98
660,-3.8748,0.1519,0.9866,1273.68,-937.19,-1888.73
670,-3.8748,0.1356,0.9836,-554.44,-1718.51,1955.02
680,-3.8748,0.1234,0.9847,1367.43,1906.49,1673.77
690,-3.8748,0.1139,0.9847,-195.07,-1952.94,1439.39
700,-3.8748,0.1089,0.9812,-1413.82,-1952.94,1080.02
710,-3.8748,0.1129,0.9760,1945.56,1593.93,486.27
720,-3.8749,0.1254,0.9714,-1538.82,922.06,-451.23
730,-3.8749,0.1401,0.9702,54.93,343.99,-1498.11
740,-3.8749,0.1523,0.9731,1945.56,187.74,-1966.86
750,-3.8749,0.1589,0.9781,-491.94,562.74,-1716.86
760,-3.8749,0.1589,0.9835,351.81,1203.43,-951.23
770,-3.8749,0.1554,0.9874,351.81,1890.93,-29.36
780,-3.8748,0.1505,0.9891,-101.32,-1609.13,767.52
790,-3.8748,0.1451,0.9905,-726.32,-1390.38,1236.27
800,-3.8748,0.1405,0.9930,-1413.82,-1218.51,1455.02
810,-3.8748,0.1384,0.9980,1992.43,-890.38,1501.89
820,-3.8748,0.1404,1.0020,1726.81,-249.76,1392.52
830,-3.8748,0.1448,1.0002,1976.81,250.24,1236.33
840,-3.8748,0.1482,0.9938,-1460.69,31.49,1064.45
850,-3.8748,0.1345,0.9857,-1023.19,-796.63,830.02
860,-3.8748,0.1069,0.9932,1226.81,-1827.88,1548.77
870,-3.8748,0.1063,1.0026,1695.56,-874.82,-1560.61
880,-3.8748,0.1375,0.9897,1617.43,328.31,-1763.67
890,-3.8748,0.1641,0.9777,1601.81,-1312.26,1408.14
900,-3.8748,0.1661,0.9768,1008.06,1140.93,173.77
910,-3.8749,0.1533,0.9788,1273.68,1031.56,-341.86
920,-3.8749,0.1458,0.9811,-366.94,1281.49,-169.98
930,-3.8748,0.1501,0.9808,-1335.69,1578.37,80.02
940,-3.8748,0.1575,0.9805,-773.19,1547.12,455.02
950,-3.8748,0.1583,0.9850,164.31,1500.31,970.64
960,-3.8748,0.1527,0.9913,273.68,-1921.57,1580.02
970,-3.8748,0.1449,0.9946,-445.07,-1109.13,-1888.73
980,-3.8748,0.1367,0.9956,-1445.07,-687.26,-1404.36
990,-3.8748,0.1301,0.9962,1508.06,-562.26,-826.23
1000,-3.8748,0.1268,0.9958,664.31,-484.13,-373.11
1010,-3.8748,0.1281,0.9917,242.43,-531.01,-185.61
1020,-3.8748,0.1318,0.9836,398.68,-1062.26,-451.23
1030,-3.8748,0.1351,0.9756,883.06,1906.49,-1154.36
1040,-3.8748,0.1353,0.9717,1304.93,875.24,-1935.61
1050,-3.8748,0.1323,0.9730,1320.56,375.24,1361.27
1060,-3.8748,0.1272,0.9775,945.56,547.12,1033.14
1070,-3.8748,0.1206,0.9822,289.31,1125.24,1345.64
1080,-3.8748,0.1156,0.9851,-554.44,1718.93,-1873.11
1090,-3.8748,0.1144,0.9860,-1195.07,-1906.07,-1107.48
1100,-3.8748,0.1165,0.9840,-1351.32,-1796.69,-732.48
1110,-3.8748,0.1195,0.9802,-1085.69,1953.31,-826.23
1120,-3.8748,0.1216,0.9774,-695.07,1468.93,-1044.98
1130,-3.8748,0.1215,0.9758,-429.44,1109.56,-1123.11
1140,-3.8748,0.1191,0.9746,-445.07,906.43,-1169.98
1150,-3.8748,0.1165,0.9761,-741.94,750.18,-1201.23
1160,-3.8748,0.1161,0.9807,-1085.69,937.68,-1091.86
1170,-3.8748,0.1190,0.9856,-1132.57,1531.43,-763.73
1180,-3.8748,0.1221,0.9894,-757.57,-1843.57,-279.36
1190,-3.8746,0.1232,0.9908,-366.94,-1359.19,142.52
1200,-3.8746,0.1255,0.9896,-226.32,-1171.69,470.64
1210,-3.8746,0.1309,0.9869,70.56,-1327.88,736.27
1220,-3.8746,0.1364,0.9855,758.06,-1671.63,830.02
1230,-3.8746,0.1396,0.9860,1461.18,-1859.13,986.27
1240,-3.8746,0.1401,0.9865,1883.06,-1796.63,1439.39
1250,-3.8746,0.1359,0.9843,1945.56,-1734.13,1923.77
1260,-3.8746,0.1295,0.9812,1398.68,1984.62,-1826.23
1270,-3.8746,0.1271,0.9775,586.18,1593.99,-1685.61
1280,-3.8746,0.1279,0.9717,273.68,1125.24,-1419.98
1290,-3.8746,0.1295,0.9673,383.06,375.24,-1201.23
1300,-3.8746,0.1294,0.9679,586.18,-187.26,-1170.04
1310,-3.8746,0.1248,0.9731,570.56,-109.13,-935.67
1320,-3.8746,0.1207,0.9805,-23.19,562.68,-248.11
1330,-3.8745,0.1222,0.9846,-538.82,1500.18,470.64
1340,-3.8745,0.1237,0.9834,-351.32,-1968.57,939.39
1350,-3.8745,0.1199,0.9811,-163.82,1875.18,1220.64
1360,-3.8745,0.1127,0.9800,-648.19,1578.31,1376.89
1370,-3.8745,0.1078,0.9769,-1570.07,1437.68,1501.89
1380,-3.8745,0.1079,0.9707,1804.93,1047.06,1736.27
1390,-3.8745,0.1117,0.9678,1820.56,250.18,1892.52
1400,-3.8745,0.1172,0.9725,-1695.07,-124.82,1908.08
1410,-3.8745,0.1249,0.9840,-991.94,484.56,-1701.23
1420,-3.8745,0.1332,0.9960,-7.57,1953.31,-748.11
1430,-3.8744,0.1390,0.9987,1054.93,-515.38,251.89
1440,-3.8744,0.1401,0.9908,1804.93,-171.63,751.89
1450,-3.8744,0.1375,0.9802,1945.56,-1171.63,611.27
1460,-3.8745,0.1357,0.9690,1601.81,1468.99,-76.23
1470,-3.8745,0.1393,0.9565,1383.06,31.49,-919.98
1480,-3.8745,0.1460,0.9474,1836.18,-1562.26,-1810.67
1490,-3.8745,0.1508,0.9463,-1304.44,1265.87,1548.71
1500,-3.8745,0.1532,0.9514,-695.07,1125.24,1423.71
1510,-3.8745,0.1548,0.9546,-382.57,1781.49,1704.96
1520,-3.8745,0.1549,0.9514,-179.44,-1812.26,-1779.42
1530,-3.8745,0.1532,0.9456,-163.82,1781.49,-1435.67
1540,-3.8745,0.1500,0.9412,-382.57,1031.49,-1607.54
1550,-3.8745,0.1471,0.9409,-788.82,468.99,1939.33
1560,-3.8745,0.1462,0.9457,-1163.82,437.74,1798.71
1570,-3.8745,0.1472,0.9532,-1273.19,1047.12,-1779.42
1580,-3.8745,0.1479,0.9602,-1148.19,-1984.13,-1170.04
1590,-3.8745,0.1472,0.9639,-1054.44,-1093.51,-795.04
1600,-3.8745,0.1443,0.9669,-1148.19,-624.76,-513.79
1610,-3.8745,0.1401,0.9727,-1523.19,-234.13,-279.42
1620,-3.8744,0.1388,0.9796,1945.56,500.24,17.52
1630,-3.8744,0.1418,0.9849,1773.68,1390.87,580.02
1640,-3.8744,0.1470,0.9877,-1835.69,-1937.26,1158.14
1650,-3.8744,0.1511,0.9862,-1179.44,-1577.88,1501.89
1660,-3.8744,0.1521,0.9805,-648.19,-1765.38,1470.64
1670,-3.8744,0.1482,0.9738,-523.19,1500.24,923.77
1680,-3.8744,0.1422,0.9680,-1023.19,640.87,17.52
1690,-3.8745,0.1368,0.9650,-1788.82,-93.51,-888.79
1700,-3.8745,0.1328,0.9641,1523.68,-484.13,-1529.42
1710,-3.8745,0.1311,0.9623,1008.06,-593.51,-1873.17
1720,-3.8745,0.1312,0.9576,789.31,-827.88,1923.71
1730,-3.8745,0.1307,0.9536,804.93,-1421.63,1767.46
1740,-3.8745,0.1287,0.9532,742.43,-1937.26,1923.71
1750,-3.8745,0.1241,0.9563,476.81,-1984.13,-1513.79
1760,-3.8745,0.1189,0.9600,-101.32,-1593.57,-826.29
1770,-3.8745,0.1152,0.9635,-773.19,-1124.82,-295.04
1780,-3.8744,0.1105,0.9688,-1241.94,-671.69,64.33
1790,-3.8744,0.1056,0.9731,-1851.32,0.18,392.52
1800,-3.8744,0.1052,0.9712,1523.68,562.68,658.14
1810,-3.8744,0.1099,0.9622,1476.81,312.68,611.27
1820,-3.8744,0.1150,0.9524,-1929.44,-843.57,48.71
1830,-3.8745,0.1182,0.9481,-1273.19,1906.43,-732.54
1840,-3.8745,0.1200,0.9508,-866.94,1359.56,-1185.67
1850,-3.8745,0.1229,0.9558,-632.57,1703.31,-982.54
1860,-3.8745,0.1283,0.9579,-257.57,-1656.07,-466.92
1870,-3.8745,0.1338,0.9574,429.93,-1390.38,-76.29
1880,-3.8744,0.1361,0.9598,1133.06,-1452.88,236.21
1890,-3.8744,0.1361,0.9664,1429.93,-1140.38,595.58
1900,-3.8744,0.1370,0.9728,1429.93,-296.63,1048.71
1910,-3.8744,0.1396,0.9734,1539.31,515.87,1580.02
1920,-3.8744,0.1427,0.9672,1883.06,593.99,1861.27
1930,-3.8744,0.1445,0.9598,-1726.32,-202.88,1704.96
1940,-3.8744,0.1456,0.9587,-1491.94,-1140.38,1486.21
1950,-3.8744,0.1440,0.9646,-1351.32,-1281.01,1533.08
1960,-3.8744,0.1395,0.9725,-1554.44,-531.01,1861.21
1970,-3.8744,0.1378,0.9764,1867.43,484.62,-1623.11
1980,-3.8744,0.1385,0.9744,1648.68,984.62,-1091.86
1990,-3.8744,0.1379,0.9713,1742.43,718.99,-888.73
2000,-3.8744,0.1364,0.9719,1664.31,328.37,-1076.23
2010,-3.8744,0.1350,0.9750,1461.18,406.49,-1341.86
2020,-3.8744,0.1338,0.9774,1289.31,797.12,-1513.73
2030,-3.8744,0.1349,0.9788,1133.06,1109.62,-1685.61
2040,-3.8744,0.1394,0.9781,1273.68,1281.49,1892.52
2050,-3.8744,0.1449,0.9761,1851.81,1203.37,1236.27
2060,-3.8744,0.1486,0.9760,-1445.07,937.74,611.27
2070,-3.8744,0.1487,0.9791,-976.32,922.12,251.89
2080,-3.8744,0.1478,0.9823,-960.69,1328.37,189.39
2090,-3.8744,0.1477,0.9808,-1070.07,1734.62,298.77
2100,-3.8744,0.1472,0.9752,-1085.69,1547.12,345.64
2110,-3.8744,0.1461,0.9733,-1148.19,828.37,376.89
2120,-3.8744,0.1429,0.9774,-1288.82,578.37,595.64
2130,-3.8744,0.1388,0.9810,-1695.07,1109.62,1095.64
2140,-3.8744,0.1375,0.9785,1773.68,1562.74,1705.02
2150,-3.8744,0.1385,0.9712,1601.81,1250.24,-1966.86
2160,-3.8744,0.1394,0.9644,1742.43,312.74,1861.27
2170,-3.8744,0.1373,0.9620,1851.81,-562.26,1376.83
2180,-3.8744,0.1317,0.9634,1586.18,-859.13,1001.83
2190,-3.8744,0.1256,0.9655,867.43,-687.26,845.58
2200,-3.8744,0.1227,0.9655,86.18,-421.63,829.96
2210,-3.8744,0.1227,0.9633,-288.82,-421.69,783.08
2220,-3.8744,0.1243,0.9629,-288.82,-702.94,564.33
2230,-3.8744,0.1259,0.9675,-85.69,-749.82,423.71
2240,-3.8744,0.1267,0.9750,117.43,-156.01,642.46
2250,-3.8744,0.1277,0.9789,226.81,797.12,970.64
2260,-3.8744,0.1294,0.9781,351.81,1297.12,1126.89
2270,-3.8744,0.1313,0.9758,570.56,1203.37,908.14
2280,-3.8744,0.1317,0.9744,820.56,906.49,423.77
2290,-3.8745,0.1307,0.9741,867.43,718.99,-29.36
2300,-3.8745,0.1304,0.9738,742.43,687.74,-294.98
2310,-3.8745,0.1311,0.9717,695.56,640.87,-373.11
2320,-3.8745,0.1317,0.9700,789.31,375.24,-529.36
2330,-3.8745,0.1302,0.9719,867.43,156.49,-810.61
2340,-3.8745,0.1284,0.9753,679.93,406.49,-888.73
2350,-3.8745,0.1277,0.9753,445.56,843.99,-826.23
2360,-3.8745,0.1279,0.9720,351.81,843.99,-794.98
2370,-3.8745,0.1281,0.9680,383.06,422.12,-841.86
2380,-3.8745,0.1276,0.9648,398.68,-93.51,-998.17
2390,-3.8745,0.1276,0.9629,336.18,-499.76,-1201.29
2400,-3.8745,0.1272,0.9613,336.18,-749.76,-1357.54
2410,-3.8745,0.1257,0.9595,289.31,-952.88,-1482.54
2420,-3.8745,0.1238,0.9595,101.81,-1187.26,-1545.04
2430,-3.8745,0.1235,0.9626,-148.19,-1187.32,-1529.42
2440,-3.8745,0.1246,0.9670,-179.44,-781.07,-1404.42
2450,-3.8745,0.1265,0.9680,-38.82,-218.57,-1170.04
2460,-3.8745,0.1278,0.9657,195.56,-93.51,-998.17
2470,-3.8745,0.1268,0.9669,367.43,-390.38,-1076.29
2480,-3.8745,0.1254,0.9720,242.43,-234.13,-1201.29
2490,-3.8745,0.1257,0.9752,54.93,422.12,-1029.36
2500,-3.8745,0.1283,0.9740,101.81,828.37,-638.73
2510,-3.8745,0.1317,0.9698,429.93,672.12,-591.86
2520,-3.8745,0.1331,0.9651,867.43,140.87,-966.86
2530,-3.8745,0.1317,0.9641,1039.31,-468.51,-1498.17
2540,-3.8745,0.1298,0.9672,867.43,-593.51,-1826.29
2550,-3.8745,0.1294,0.9696,617.43,-202.88,-1779.42
2560,-3.8745,0.1317,0.9692,570.56,109.62,-1669.98
2570,-3.8745,0.1357,0.9680,867.43,62.74,-1685.61
2580,-3.8745,0.1384,0.9698,1383.06,-93.51,-1638.79
2590,-3.8745,0.1388,0.9742,1726.81,140.87,-1560.61
2600,-3.8745,0.1403,0.9767,1773.68,703.37,-1357.48
2610,-3.8745,0.1448,0.9761,1961.18,1015.87,-982.48
2620,-3.8745,0.1497,0.9757,-1460.69,937.74,-888.73
2630,-3.8745,0.1525,0.9773,-835.69,890.87,-951.23
2640,-3.8745,0.1532,0.9800,-476.32,1093.99,-998.11
2650,-3.8745,0.1532,0.9818,-382.57,1437.74,-966.86
2660,-3.8745,0.1528,0.9812,-382.57,1672.12,-951.23
2670,-3.8745,0.1504,0.9789,-429.44,1593.99,-1091.86
2680,-3.8745,0.1462,0.9768,-741.94,1297.12,-1216.86
2690,-3.8745,0.1431,0.9758,-1273.19,1031.49,-1248.11
2700,-3.8745,0.1417,0.9744,-1679.44,906.49,-1373.11
2710,-3.8745,0.1417,0.9720,-1851.32,718.99,-1544.98
2720,-3.8745,0.1420,0.9712,-1851.32,422.12,-1654.36
2730,-3.8745,0.1412,0.9764,-1820.07,312.74,-1591.86
2740,-3.8745,0.1392,0.9850,-1913.82,984.62,-1294.98
2750,-3.8745,0.1382,0.9886,1820.56,-1921.63,-873.11
2760,-3.8745,0.1399,0.9861,1695.56,-1452.88,-404.36
2770,-3.8745,0.1416,0.9823,1914.31,-1781.01,-154.36
2780,-3.8745,0.1400,0.9807,-1866.94,1734.62,-123.11
2790,-3.8745,0.1368,0.9801,1929.93,1531.49,-263.73
2800,-3.8745,0.1357,0.9781,1523.68,1453.37,-638.73
2810,-3.8745,0.1368,0.9742,1383.06,1203.37,-1107.48
2820,-3.8745,0.1389,0.9718,1523.68,703.37,-1591.86
2830,-3.8745,0.1406,0.9735,1789.31,390.87,-1966.86
2840,-3.8745,0.1411,0.9758,-1991.94,609.62,1845.64
2850,-3.8745,0.1406,0.9750,-1929.44,906.49,1736.27
2860,-3.8745,0.1395,0.9718,-1991.94,797.12,1626.89
2870,-3.8745,0.1384,0.9694,1867.43,390.87,1408.14
2880,-3.8745,0.1372,0.9701,1726.81,78.37,1158.14
2890,-3.8745,0.1350,0.9734,1570.56,172.12,1111.27
2900,-3.8745,0.1324,0.9763,1289.31,593.99,1267.52
2910,-3.8745,0.1312,0.9767,961.18,968.99,1470.64
2920,-3.8745,0.1309,0.9742,804.93,1015.87,1611.27
2930,-3.8745,0.1295,0.9712,758.06,703.37,1626.89
2940,-3.8745,0.1267,0.9692,586.18,312.74,1501.89
2950,-3.8745,0.1233,0.9694,226.81,62.74,1423.77
2960,-3.8745,0.1206,0.9711,-210.69,78.31,1314.39
2970,-3.8745,0.1202,0.9731,-554.44,297.06,1142.52
2980,-3.8745,0.1217,0.9749,-601.32,562.68,1064.39
2990,-3.8745,0.1243,0.9750,-413.82,781.43,1064.39
3000,-3.8745,0.1265,0.9724,-85.69,797.06,1048.77
3010,-3.8745,0.1265,0.9706,195.56,468.99,923.77
3020,-3.8745,0.1248,0.9723,195.56,234.62,814.39
3030,-3.8745,0.1233,0.9766,-23.19,453.31,986.27
3040,-3.8745,0.1226,0.9803,-210.69,1000.18,1361.27
3050,-3.8745,0.1230,0.9819,-304.44,1484.56,1736.27
3060,-3.8745,0.1248,0.9814,-241.94,1687.68,-1998.11
3070,-3.8745,0.1260,0.9794,-23.19,1625.18,1970.64
3080,-3.8745,0.1265,0.9763,133.06,1359.62,1767.52
3090,-3.8745,0.1261,0.9723,195.56,968.99,1533.14
3100,-3.8745,0.1251,0.9698,148.68,453.37,1267.52
3110,-3.8745,0.1241,0.9705,23.68,140.87,1095.64
3120,-3.8745,0.1228,0.9700,-101.32,218.93,1017.52
3130,-3.8745,0.1219,0.9677,-273.19,156.43,1017.52
3140,-3.8745,0.1223,0.9658,-382.57,-140.44,1064.33
3150,-3.8745,0.1232,0.9674,-335.69,-374.82,1158.08
3160,-3.8745,0.1234,0.9723,-226.32,-171.69,1392.46
3170,-3.8745,0.1221,0.9773,-195.07,453.31,1767.52
3180,-3.8745,0.1201,0.9795,-366.94,1093.93,-1826.23
3190,-3.8745,0.1199,0.9780,-616.94,1375.18,-1576.23
3200,-3.8745,0.1210,0.9752,-648.19,1187.68,-1701.23
3210,-3.8745,0.1210,0.9730,-507.57,828.31,1861.27
3220,-3.8745,0.1180,0.9724,-507.57,547.06,1517.52
3230,-3.8745,0.1149,0.9729,-882.57,468.93,1455.02
3240,-3.8745,0.1138,0.9736,-1288.82,531.43,1517.52
3250,-3.8745,0.1138,0.9741,-1429.44,625.18,1595.64
3260,-3.8745,0.1156,0.9746,-1429.44,687.68,1673.77
3270,-3.8745,0.1193,0.9758,-1195.07,750.18,1689.39
3280,-3.8745,0.1232,0.9767,-726.32,906.43,1689.39
3290,-3.8745,0.1270,0.9769,-226.32,1015.81,1658.14
3300,-3.8745,0.1305,0.9778,258.06,1047.12,1689.39
3310,-3.8745,0.1320,0.9785,711.18,1156.49,1751.89
3320,-3.8745,0.1309,0.9781,898.68,1250.24,1689.39
3330,-3.8745,0.1288,0.9771,758.06,1203.37,1470.64
3340,-3.8745,0.1274,0.9764,492.43,1062.74,1251.89
3350,-3.8745,0.1273,0.9767,320.56,984.62,1111.27
3360,-3.8745,0.1290,0.9781,304.93,1015.87,1080.02
3370,-3.8745,0.1312,0.9813,523.68,1203.37,1236.27
3380,-3.8745,0.1310,0.9844,804.93,1609.62,1533.14
3390,-3.8745,0.1279,0.9839,773.68,-1999.76,1751.89
3400,-3.8745,0.1239,0.9790,383.06,1937.74,1720.64
3410,-3.8745,0.1207,0.9725,-132.57,1312.68,1330.02
3420,-3.8745,0.1179,0.9683,-538.82,484.56,783.14
3430,-3.8745,0.1161,0.9686,-898.19,-62.32,376.83
3440,-3.8745,0.1150,0.9718,-1132.57,-15.44,251.83
3450,-3.8745,0.1152,0.9750,-1273.19,390.81,345.64
3460,-3.8745,0.1171,0.9761,-1241.94,797.06,501.89
3470,-3.8745,0.1196,0.9740,-1007.57,937.68,501.89
3480,-3.8745,0.1216,0.9711,-679.44,672.06,236.27
3490,-3.8746,0.1218,0.9713,-429.44,297.06,-169.98
3500,-3.8746,0.1200,0.9742,-398.19,328.31,-451.23
3510,-3.8746,0.1191,0.9772,-632.57,703.31,-498.11
3520,-3.8746,0.1205,0.9777,-741.94,1078.31,-388.73
3530,-3.8746,0.1224,0.9756,-570.07,1140.81,-310.61
3540,-3.8746,0.1243,0.9744,-320.07,875.18,-357.48
3550,-3.8746,0.1257,0.9757,-85.69,718.93,-310.61
3560,-3.8746,0.1262,0.9778,101.81,890.87,-138.73
3570,-3.8746,0.1262,0.9777,164.31,1156.49,-29.36
3580,-3.8745,0.1268,0.9761,164.31,1140.87,33.14
3590,-3.8745,0.1267,0.9762,242.43,937.74,126.89
3600,-3.8745,0.1249,0.9785,226.81,953.37,205.02
3610,-3.8745,0.1230,0.9816,-7.57,1250.18,330.02
3620,-3.8745,0.1226,0.9824,-241.94,1640.81,642.52
3630,-3.8745,0.1224,0.9802,-304.44,1750.18,798.77
3640,-3.8745,0.1217,0.9762,-320.07,1468.93,611.27
3650,-3.8745,0.1202,0.9724,-413.82,953.31,126.89
3660,-3.8746,0.1193,0.9702,-601.32,468.93,-294.98
3670,-3.8746,0.1189,0.9703,-726.32,187.68,-482.48
3680,-3.8746,0.1190,0.9713,-773.19,203.31,-513.73
3690,-3.8746,0.1193,0.9722,-757.57,328.31,-451.23
3700,-3.8746,0.1190,0.9734,-726.32,437.68,-388.73
3710,-3.8746,0.1188,0.9761,-757.57,593.93,-341.86
3720,-3.8746,0.1189,0.9790,-788.82,937.68,-216.86
3730,-3.8746,0.1188,0.9806,-773.19,1312.68,-13.73
3740,-3.8745,0.1176,0.9795,-788.82,1515.81,189.39
3750,-3.8745,0.1160,0.9778,-945.07,1375.18,267.52
3760,-3.8745,0.1147,0.9779,-1148.19,1156.43,158.14
3770,-3.8745,0.1133,0.9803,-1304.44,1172.06,142.52
3780,-3.8745,0.1125,0.9830,-1491.94,1484.56,236.27
3790,-3.8745,0.1130,0.9833,-1585.69,1828.31,298.77
3800,-3.8745,0.1144,0.9817,-1523.19,1859.56,298.77
3810,-3.8745,0.1147,0.9803,-1351.32,1656.43,283.14
3820,-3.8745,0.1149,0.9783,-1304.44,1484.56,189.39
3830,-3.8746,0.1158,0.9744,-1288.82,1218.93,-44.98
3840,-3.8746,0.1176,0.9703,-1163.82,718.93,-232.48
3850,-3.8746,0.1190,0.9692,-945.07,203.31,-279.36
3860,-3.8746,0.1190,0.9729,-757.57,62.68,-232.48
3870,-3.8746,0.1180,0.9785,-757.57,531.43,-13.73
3880,-3.8745,0.1173,0.9822,-882.57,1250.18,330.02
3890,-3.8745,0.1182,0.9836,-976.32,1718.93,595.64
3900,-3.8745,0.1198,0.9832,-866.94,1906.43,626.89
3910,-3.8745,0.1213,0.9818,-663.82,1843.93,486.27
3920,-3.8745,0.1229,0.9808,-460.69,1672.06,330.02
3930,-3.8745,0.1235,0.9795,-257.57,1547.06,80.02
3940,-3.8746,0.1234,0.9768,-179.44,1375.18,-373.11
3950,-3.8746,0.1232,0.9742,-195.07,1031.43,-904.36
3960,-3.8746,0.1218,0.9717,-226.32,703.31,-1294.98
3970,-3.8746,0.1190,0.9700,-398.19,375.18,-1560.61
3980,-3.8746,0.1162,0.9702,-757.57,156.43,-1685.61
3990,-3.8746,0.1154,0.9731,-1116.94,187.68,-1623.11
4000,-3.8746,0.1176,0.9783,-1226.32,562.68,-1388.73
4010,-3.8746,0.1207,0.9828,-945.07,1218.93,-951.23
4020,-3.8746,0.1232,0.9834,-538.82,1797.06,-482.48
4030,-3.8746,0.1246,0.9813,-226.32,1875.18,-60.61
4040,-3.8745,0.1246,0.9800,-38.82,1609.56,80.02
4050,-3.8746,0.1244,0.9794,-38.82,1437.68,-123.11
4060,-3.8746,0.1234,0.9781,-70.07,1359.56,-310.61
4070,-3.8746,0.1215,0.9786,-195.07,1203.31,-357.48
4080,-3.8746,0.1201,0.9813,-445.07,1265.81,-357.48
4090,-3.8746,0.1216,0.9823,-616.94,1609.56,-451.23
4100,-3.8746,0.1262,0.9813,-429.44,1734.56,-638.73
4110,-3.8746,0.1306,0.9806,164.31,1609.62,-935.61
4120,-3.8746,0.1317,0.9814,726.81,1515.87,-1185.61
4130,-3.8746,0.1290,0.9829,867.43,1625.24,-1310.61
4140,-3.8746,0.1244,0.9817,523.68,1812.74,-1388.73
4150,-3.8746,0.1194,0.9779,-70.07,1656.43,-1404.36
4160,-3.8746,0.1141,0.9753,-710.69,1172.06,-1357.48
4170,-3.8746,0.1101,0.9750,-1382.57,843.93,-1248.11
4180,-3.8746,0.1094,0.9755,-1898.19,797.06,-1123.11
4190,-3.8746,0.1112,0.9751,-1991.94,859.56,-1076.23
4200,-3.8746,0.1134,0.9744,-1757.57,812.68,-1107.48
4210,-3.8746,0.1151,0.9746,-1476.32,718.93,-1123.11
4220,-3.8746,0.1154,0.9757,-1257.57,750.18,-1154.36
4230,-3.8746,0.1151,0.9767,-1226.32,890.81,-1216.86
4240,-3.8746,0.1154,0.9778,-1257.57,1015.81,-1123.11
4250,-3.8746,0.1163,0.9806,-1226.32,1156.43,-904.36
4260,-3.8746,0.1184,0.9843,-1101.32,1515.81,-826.23
4270,-3.8746,0.1217,0.9858,-835.69,1984.56,-904.36
4280,-3.8746,0.1256,0.9849,-413.82,-1812.32,-904.36
4290,-3.8746,0.1274,0.9824,86.18,-1937.26,-779.36
4300,-3.8746,0.1270,0.9808,320.56,1750.24,-685.61
4310,-3.8746,0.1252,0.9803,258.06,1547.12,-732.48
4320,-3.8746,0.1226,0.9791,39.31,1484.62,-810.61
4330,-3.8746,0.1191,0.9777,-304.44,1328.31,-888.73
4340,-3.8746,0.1160,0.9781,-741.94,1140.81,-888.73
4350,-3.8746,0.1147,0.9799,-1148.19,1203.31,-826.23
4360,-3.8746,0.1147,0.9797,-1304.44,1422.06,-732.48
4370,-3.8746,0.1145,0.9772,-1304.44,1406.43,-623.11
4380,-3.8746,0.1150,0.9758,-1335.69,1078.31,-654.36
4390,-3.8746,0.1156,0.9775,-1273.19,906.43,-685.61
4400,-3.8746,0.1156,0.9796,-1195.07,1125.18,-576.23
4410,-3.8746,0.1167,0.9797,-1195.07,1390.81,-466.86
4420,-3.8746,0.1188,0.9791,-1054.44,1406.43,-451.23
4430,-3.8746,0.1200,0.9792,-788.82,1328.31,-591.86
4440,-3.8746,0.1199,0.9799,-632.57,1343.93,-810.61
4450,-3.8746,0.1198,0.9803,-648.19,1422.06,-1029.36
4460,-3.8746,0.1205,0.9803,-663.82,1484.56,-1154.36
4470,-3.8746,0.1210,0.9807,-570.07,1484.56,-1232.48
4480,-3.8746,0.1210,0.9819,-507.57,1531.43,-1185.61
4490,-3.8746,0.1204,0.9821,-507.57,1687.68,-1076.23
4500,-3.8746,0.1189,0.9792,-585.69,1703.31,-1060.61
4510,-3.8746,0.1169,0.9749,-773.19,1343.93,-1123.11
4520,-3.8746,0.1161,0.9729,-1023.19,781.43,-1201.23
4530,-3.8746,0.1151,0.9735,-1132.57,531.43,-1294.98
4540,-3.8746,0.1129,0.9741,-1257.57,609.56,-1451.23
4550,-3.8746,0.1117,0.9741,-1538.82,687.68,-1607.48
4560,-3.8746,0.1116,0.9761,-1695.07,687.68,-1591.86
4570,-3.8746,0.1119,0.9806,-1710.69,937.68,-1466.86
4580,-3.8746,0.1129,0.9836,-1663.82,1515.81,-1310.61
4590,-3.8746,0.1149,0.9825,-1538.82,1906.43,-1123.11
4600,-3.8746,0.1174,0.9799,-1288.82,1765.81,-1138.73
4610,-3.8746,0.1201,0.9781,-960.69,1422.06,-1310.61
4620,-3.8746,0.1227,0.9766,-616.94,1203.31,-1544.98
4630,-3.8746,0.1244,0.9746,-288.82,1000.18,-1904.36
4640,-3.8746,0.1252,0.9745,-70.07,750.18,1845.64
4650,-3.8746,0.1248,0.9767,39.31,734.62,1908.14
4660,-3.8746,0.1217,0.9792,-23.19,1015.81,-1904.36
4670,-3.8746,0.1172,0.9797,-413.82,1343.93,-1732.48
4680,-3.8746,0.1138,0.9792,-991.94,1406.43,-1576.23
4690,-3.8746,0.1125,0.9800,-1429.44,1343.93,-1373.11
4700,-3.8746,0.1133,0.9805,-1585.69,1437.68,-1154.36
4710,-3.8746,0.1157,0.9783,-1491.94,1500.18,-1044.98
4720,-3.8746,0.1174,0.9752,-1179.44,1218.93,-1201.23
4730,-3.8746,0.1171,0.9750,-960.69,828.31,-1451.23
4740,-3.8746,0.1144,0.9771,-1007.57,797.06,-1638.73
4750,-3.8746,0.1105,0.9777,-1351.32,1062.68,-1888.73
4760,-3.8746,0.1083,0.9753,-1851.32,1140.81,1939.39
4770,-3.8746,0.1085,0.9733,1867.43,843.93,1876.89
4780,-3.8746,0.1106,0.9747,1898.68,578.31,1908.14
4790,-3.8746,0.1141,0.9781,-1835.69,765.81,-1951.23
4800,-3.8746,0.1187,0.9802,-1382.57,1203.31,-1701.23
4810,-3.8746,0.1232,0.9818,-804.44,1468.93,-1451.23
4820,-3.8746,0.1270,0.9849,-226.32,1672.06,-1216.86
4830,-3.8746,0.1289,0.9880,258.06,-1937.26,-966.86
4840,-3.8746,0.1293,0.9890,508.06,-1531.01,-794.98
4850,-3.8746,0.1273,0.9867,554.93,-1406.01,-779.36
4860,-3.8746,0.1233,0.9835,304.93,-1702.88,-732.48
4870,-3.8746,0.1183,0.9816,-210.69,1890.81,-685.61
4880,-3.8746,0.1138,0.9803,-851.32,1640.81,-654.36
4890,-3.8746,0.1117,0.9794,-1429.44,1484.56,-716.86
4900,-3.8746,0.1117,0.9786,-1695.07,1359.56,-935.61
4910,-3.8746,0.1125,0.9786,-1695.07,1265.81,-1216.86
4920,-3.8746,0.1143,0.9779,-1585.69,1265.81,-1482.48
4930,-3.8746,0.1160,0.9749,-1366.94,1172.06,-1576.23
4940,-3.8746,0.1163,0.9727,-1148.19,781.43,-1560.61
4950,-3.8746,0.1155,0.9731,-1101.32,500.18,-1482.48
4960,-3.8746,0.1147,0.9746,-1210.69,562.68,-1357.48
4970,-3.8746,0.1139,0.9755,-1304.44,750.18,-1248.11
4980,-3.8746,0.1128,0.9764,-1413.82,859.56,-1123.11
4990,-3.8746,0.1124,0.9774,-1554.44,984.56,-998.11
5000,-3.8746,0.1122,0.9781,-1601.32,1109.56,-998.11
5010,-3.8746,0.1122,0.9781,-1632.57,1203.31,-1123.11
5020,-3.8746,0.1125,0.9768,-1632.57,1203.31,-1216.86
5030,-3.8746,0.1135,0.9749,-1585.69,1031.43,-1357.48
5040,-3.8746,0.1154,0.9731,-1460.69,781.43,-1607.48
5050,-3.8746,0.1174,0.9736,-1226.32,562.68,-1935.61
5060,-3.8746,0.1195,0.9753,-960.69,625.18,1892.52
5070,-3.8746,0.1215,0.9760,-695.07,843.93,1923.77
5080,-3.8746,0.1232,0.9757,-445.07,922.06,-1966.86
5090,-3.8746,0.1240,0.9758,-226.32,890.81,-1966.86
5100,-3.8746,0.1227,0.9771,-116.94,906.43,1955.02
5110,-3.8746,0.1211,0.9783,-288.82,1062.68,1876.89
5120,-3.8746,0.1198,0.9786,-491.94,1218.93,1705.02
5130,-3.8746,0.1184,0.9786,-663.82,1265.81,1533.14
5140,-3.8746,0.1179,0.9778,-835.69,1265.81,1455.02
5150,-3.8746,0.1182,0.9762,-898.19,1156.43,1330.02
5160,-3.8746,0.1178,0.9746,-866.94,953.31,1189.39
5170,-3.8746,0.1165,0.9729,-913.82,750.18,955.02
5180,-3.8746,0.1154,0.9713,-1085.69,531.43,751.89
5190,-3.8746,0.1160,0.9709,-1226.32,328.31,689.39
5200,-3.8746,0.1182,0.9722,-1148.19,281.43,595.64
5210,-3.8746,0.1196,0.9740,-866.94,437.68,501.89
5220,-3.8746,0.1207,0.9750,-679.44,672.06,642.52
5230,-3.8746,0.1215,0.9752,-538.82,797.06,830.02
5240,-3.8746,0.1205,0.9757,-445.07,828.31,908.14
5250,-3.8746,0.1190,0.9763,-570.07,890.81,892.52
5260,-3.8746,0.1180,0.9761,-757.57,968.93,736.27
5270,-3.8746,0.1174,0.9757,-882.57,937.68,798.77
5280,-3.8746,0.1168,0.9750,-960.69,890.81,970.64
5290,-3.8746,0.1161,0.9734,-1038.82,797.06,986.27
5300,-3.8746,0.1165,0.9719,-1132.57,593.93,923.77
5310,-3.8746,0.1162,0.9716,-1085.69,406.43,783.14
5320,-3.8746,0.1140,0.9723,-1116.94,359.56,626.89
5330,-3.8746,0.1123,0.9741,-1398.19,453.31,595.64
5340,-3.8746,0.1117,0.9762,-1616.94,687.68,658.14
5350,-3.8746,0.1128,0.9784,-1695.07,953.31,798.77
5360,-3.8746,0.1152,0.9801,-1554.44,1234.56,1017.52
5370,-3.8746,0.1193,0.9806,-1241.94,1453.31,1236.27
5380,-3.8746,0.1232,0.9814,-726.32,1515.81,1408.14
5390,-3.8746,0.1240,0.9827,-226.32,1625.18,1517.52
5400,-3.8746,0.1223,0.9830,-116.94,1781.43,1658.14
5410,-3.8746,0.1208,0.9823,-335.69,1828.31,1767.52
5420,-3.8746,0.1210,0.9803,-523.19,1734.56,1783.14
5430,-3.8746,0.1219,0.9780,-507.57,1484.56,1783.14
5440,-3.8746,0.1215,0.9769,-382.57,1187.68,1751.89
5450,-3.8746,0.1195,0.9777,-445.07,1047.06,1814.39
5460,-3.8746,0.1174,0.9786,-695.07,1140.81,1970.64
5470,-3.8746,0.1154,0.9788,-960.69,1265.81,-1857.48
5480,-3.8746,0.1127,0.9783,-1226.32,1281.43,-1732.48
5490,-3.8746,0.1099,0.9795,-1570.07,1218.93,-1654.36
5500,-3.8746,0.1075,0.9816,-1929.44,1375.18,-1669.98
5510,-3.8746,0.1073,0.9818,1773.68,1640.81,-1779.36
5520,-3.8746,0.1089,0.9811,1742.43,1672.06,-1888.73
5530,-3.8746,0.1112,0.9811,1945.56,1578.31,1955.02
5540,-3.8746,0.1151,0.9813,-1757.57,1578.31,1751.89
5550,-3.8746,0.1205,0.9822,-1257.57,1609.56,1673.77
5560,-3.8746,0.1245,0.9850,-570.07,1718.93,1642.52
5570,-3.8746,0.1271,0.9879,-54.44,-1921.69,1830.02
5580,-3.8746,0.1292,0.9880,273.68,-1546.63,-1935.61
5590,-3.8746,0.1310,0.9863,539.31,-1531.01,-1873.11
5600,-3.8746,0.1317,0.9851,773.68,-1749.76,-1857.48
5610,-3.8746,0.1282,0.9850,867.43,-1906.01,-1826.23
5620,-3.8746,0.1210,0.9849,414.31,-1921.63,-1763.73
5630,-3.8746,0.1154,0.9847,-507.57,-1937.32,-1779.36
5640,-3.8746,0.1140,0.9852,-1226.32,-1952.94,-1857.48
5650,-3.8746,0.1171,0.9851,-1398.19,-1890.44,-1998.11
5660,-3.8746,0.1216,0.9841,-1007.57,-1906.07,1783.14
5670,-3.8746,0.1257,0.9832,-429.44,1968.93,1345.64
5680,-3.8746,0.1274,0.9819,101.81,1843.99,767.52
5690,-3.8746,0.1259,0.9800,320.56,1687.74,376.89
5700,-3.8746,0.1216,0.9784,117.43,1437.74,283.14
5710,-3.8746,0.1161,0.9780,-429.44,1234.56,376.89
5720,-3.8746,0.1124,0.9784,-1132.57,1187.68,501.89
5730,-3.8746,0.1116,0.9780,-1601.32,1234.56,501.89
5740,-3.8746,0.1124,0.9768,-1710.69,1187.68,283.14
5750,-3.8748,0.1143,0.9768,-1601.32,1031.43,-123.11
5760,-3.8748,0.1151,0.9781,-1366.94,1031.43,-529.36
5770,-3.8748,0.1151,0.9792,-1257.57,1203.31,-779.36
5780,-3.8748,0.1154,0.9789,-1257.57,1343.93,-919.98
5790,-3.8748,0.1161,0.9781,-1226.32,1297.06,-998.11
5800,-3.8748,0.1178,0.9784,-1132.57,1203.31,-1044.98
5810,-3.8748,0.1206,0.9802,-913.82,1234.56,-935.61
5820,-3.8748,0.1238,0.9833,-554.44,1468.93,-732.48
5830,-3.8748,0.1249,0.9849,-148.19,1859.56,-638.73
5840,-3.8748,0.1245,0.9838,-7.57,-1937.32,-623.11
5850,-3.8748,0.1246,0.9811,-54.44,1922.06,-669.98
5860,-3.8748,0.1241,0.9790,-38.82,1578.31,-654.36
5870,-3.8748,0.1222,0.9788,-101.32,1312.68,-513.73
5880,-3.8748,0.1200,0.9796,-351.32,1281.43,-498.11
5890,-3.8748,0.1190,0.9803,-632.57,1390.81,-560.61
5900,-3.8748,0.1195,0.9810,-757.57,1484.56,-591.86
5910,-3.8748,0.1204,0.9811,-695.07,1562.68,-669.98
5920,-3.8748,0.1216,0.9803,-585.69,1578.31,-669.98
5930,-3.8748,0.1232,0.9795,-429.44,1484.56,-607.48
5940,-3.8748,0.1252,0.9792,-226.32,1375.18,-748.11
5950,-3.8748,0.1256,0.9807,39.31,1343.99,-1076.23
5960,-3.8748,0.1241,0.9824,86.18,1531.49,-1076.23
5970,-3.8748,0.1233,0.9841,-101.32,1750.18,-841.86
5980,-3.8748,0.1228,0.9855,-210.69,1968.93,-607.48
5990,-3.8748,0.1226,0.9852,-273.19,-1859.19,-404.36
6000,-3.8748,0.1218,0.9855,-304.44,-1890.44,-341.86
6010,-3.8748,0.1201,0.9861,-398.19,-1859.19,-419.98
6020,-3.8748,0.1179,0.9861,-616.94,-1781.07,-529.36
6030,-3.8748,0.1176,0.9854,-898.19,-1781.07,-529.36
6040,-3.8748,0.1190,0.9845,-945.07,-1874.82,-435.61
6050,-3.8748,0.1198,0.9845,-757.57,-1984.19,-310.61
6060,-3.8748,0.1196,0.9846,-663.82,-1984.19,-232.48
6070,-3.8748,0.1193,0.9850,-679.44,-1968.57,-201.23
6080,-3.8748,0.1183,0.9846,-726.32,-1921.69,-169.98
6090,-3.8748,0.1161,0.9824,-851.32,-1968.57,-169.98
6100,-3.8748,0.1132,0.9792,-1132.57,1750.18,-279.36
6110,-3.8748,0.1110,0.9769,-1507.57,1343.93,-498.11
6120,-3.8748,0.1095,0.9755,-1788.82,1047.06,-841.86
6130,-3.8748,0.1090,0.9766,-1976.32,859.56,-1076.23
6140,-3.8748,0.1090,0.9808,1961.18,1000.18,-1123.11
6150,-3.8748,0.1095,0.9852,1961.18,1547.06,-966.86
6160,-3.8748,0.1112,0.9877,-1976.32,-1890.44,-779.36
6170,-3.8748,0.1144,0.9877,-1757.57,-1577.94,-685.61
6180,-3.8748,0.1171,0.9858,-1351.32,-1577.94,-607.48
6190,-3.8748,0.1172,0.9847,-1007.57,-1812.32,-560.61
6200,-3.8748,0.1155,0.9847,-991.94,-1952.94,-544.98
6210,-3.8748,0.1133,0.9847,-1210.69,-1952.94,-529.36
6220,-3.8748,0.1127,0.9847,-1491.94,-1952.94,-513.73
6230,-3.8748,0.1135,0.9849,-1570.07,-1952.94,-591.86
6240,-3.8748,0.1146,0.9851,-1460.69,-1937.32,-685.61
6250,-3.8748,0.1151,0.9843,-1320.07,-1906.07,-638.73
6260,-3.8748,0.1141,0.9821,-1257.57,1984.56,-576.23
6270,-3.8748,0.1129,0.9799,-1382.57,1703.31,-591.86
6280,-3.8748,0.1106,0.9790,-1538.82,1422.06,-763.73
6290,-3.8748,0.1074,0.9791,-1835.69,1312.68,-1013.73
6300,-3.8748,0.1055,0.9792,1758.06,1328.31,-1201.23
6310,-3.8748,0.1052,0.9783,1508.06,1343.93,-1419.98
6320,-3.8748,0.1056,0.9766,1476.81,1218.93,-1498.11
6330,-3.8748,0.1050,0.9762,1523.68,1000.18,-1498.11
6340,-3.8748,0.1033,0.9780,1445.56,953.31,-1498.11
6350,-3.8748,0.1027,0.9808,1226.81,1187.68,-1326.23
6360,-3.8748,0.1049,0.9838,1148.68,1547.06,-1029.36
6370,-3.8748,0.1101,0.9861,1429.93,1922.06,-748.11
6380,-3.8748,0.1165,0.9868,-1898.19,-1781.07,-685.61
6390,-3.8748,0.1227,0.9871,-1085.69,-1687.32,-763.73
6400,-3.8748,0.1281,0.9877,-288.82,-1656.07,-779.36
6410,-3.8748,0.1307,0.9882,398.68,-1577.88,-919.98
6420,-3.8748,0.1296,0.9880,742.43,-1515.38,-1107.48
6430,-3.8748,0.1256,0.9879,601.81,-1531.01,-1216.86
6440,-3.8748,0.1219,0.9888,86.18,-1546.63,-1248.11
6450,-3.8748,0.1198,0.9891,-382.57,-1437.32,-1138.73
6460,-3.8748,0.1185,0.9873,-663.82,-1390.44,-1060.61
6470,-3.8748,0.1188,0.9836,-820.07,-1624.82,-1123.11
6480,-3.8748,0.1195,0.9800,-788.82,1906.43,-1216.86
6490,-3.8748,0.1190,0.9786,-695.07,1437.68,-1279.36
6500,-3.8748,0.1174,0.9785,-757.57,1265.81,-1201.23
6510,-3.8748,0.1154,0.9785,-960.69,1250.18,-1107.48
6520,-3.8748,0.1149,0.9783,-1226.32,1250.18,-904.36
6530,-3.8748,0.1162,0.9790,-1288.82,1218.93,-701.23
6540,-3.8748,0.1172,0.9810,-1116.94,1312.68,-544.98
6550,-3.8748,0.1165,0.9819,-991.94,1562.68,-404.36
6560,-3.8748,0.1145,0.9819,-1085.69,1687.68,-341.86
6570,-3.8748,0.1135,0.9824,-1335.69,1687.68,-326.23
6580,-3.8748,0.1145,0.9829,-1460.69,1750.18,-326.23
6590,-3.8748,0.1171,0.9834,-1335.69,1812.68,-357.48
6600,-3.8748,0.1201,0.9847,-1007.57,1875.18,-373.11
6610,-3.8748,0.1223,0.9866,-616.94,-1952.94,-451.23
6620,-3.8748,0.1237,0.9873,-335.69,-1718.57,-576.23
6630,-3.8748,0.1249,0.9861,-163.82,-1624.82,-654.36
6640,-3.8748,0.1259,0.9835,-7.57,-1781.07,-904.36
6650,-3.8748,0.1266,0.9819,117.43,1890.87,-1232.48
6660,-3.8748,0.1273,0.9823,211.18,1687.74,-1310.61
6670,-3.8748,0.1261,0.9833,304.93,1734.62,-1138.73
6680,-3.8748,0.1235,0.9833,148.68,1859.62,-935.61
6690,-3.8748,0.1212,0.9834,-179.44,1859.56,-638.73
6700,-3.8748,0.1191,0.9839,-476.32,1875.18,-326.23
6710,-3.8748,0.1169,0.9845,-741.94,1937.68,-123.11
6720,-3.8748,0.1150,0.9849,-1023.19,-1984.19,-76.23
6730,-3.8748,0.1154,0.9838,-1273.19,-1937.32,-76.23
6740,-3.8748,0.1178,0.9808,-1226.32,1922.06,-138.73
6750,-3.8748,0.1199,0.9783,-913.82,1547.06,-373.11
6760,-3.8748,0.1205,0.9774,-648.19,1218.93,-654.36
6770,-3.8748,0.1204,0.9775,-570.07,1109.56,-826.23
6780,-3.8748,0.1204,0.9788,-585.69,1125.18,-904.36
6790,-3.8748,0.1205,0.9813,-585.69,1281.43,-935.61
6800,-3.8748,0.1199,0.9823,-570.07,1609.56,-904.36
6810,-3.8748,0.1202,0.9825,-648.19,1734.56,-669.98
6820,-3.8748,0.1208,0.9843,-601.32,1765.81,-388.73
6830,-3.8748,0.1202,0.9863,-523.19,1984.56,-216.86
6840,-3.8748,0.1195,0.9858,-601.32,-1749.82,-169.98
6850,-3.8748,0.1201,0.9819,-695.07,-1812.32,-201.23
6860,-3.8748,0.1207,0.9768,-616.94,1687.68,-279.36
6870,-3.8748,0.1194,0.9745,-538.82,1031.43,-466.86
6880,-3.8748,0.1161,0.9766,-710.69,734.56,-638.73
6890,-3.8748,0.1139,0.9812,-1132.57,1000.18,-498.11
6900,-3.8748,0.1146,0.9854,-1413.82,1593.93,-76.23
6910,-3.8746,0.1173,0.9869,-1320.07,-1874.82,314.39
6920,-3.8746,0.1195,0.9851,-976.32,-1671.69,470.64
6930,-3.8746,0.1190,0.9825,-695.07,-1906.07,501.89
6940,-3.8746,0.1163,0.9822,-757.57,1765.81,501.89
6950,-3.8746,0.1140,0.9825,-1101.32,1718.93,580.02
6960,-3.8746,0.1140,0.9817,-1398.19,1765.81,767.52
6970,-3.8746,0.1176,0.9801,-1398.19,1656.43,751.89
6980,-3.8746,0.1234,0.9791,-945.07,1453.31,595.64
6990,-3.8746,0.1273,0.9792,-195.07,1328.31,564.39
7000,-3.8746,0.1284,0.9788,304.93,1343.99,501.89
7010,-3.8746,0.1284,0.9775,445.56,1281.49,251.89
7020,-3.8746,0.1274,0.9777,445.56,1125.24,126.89
7030,-3.8746,0.1261,0.9797,320.56,1140.87,283.14
7040,-3.8746,0.1260,0.9803,148.68,1406.49,626.89
7050,-3.8746,0.1266,0.9785,133.06,1484.62,970.64
7060,-3.8746,0.1263,0.9766,211.18,1250.24,1080.02
7070,-3.8746,0.1245,0.9757,179.93,1000.24,923.77
7080,-3.8746,0.1208,0.9763,-54.44,890.81,767.52
7090,-3.8746,0.1162,0.9777,-523.19,968.93,783.14
7100,-3.8746,0.1123,0.9786,-1116.94,1140.81,814.39
7110,-3.8746,0.1099,0.9786,-1616.94,1265.81,673.77
7120,-3.8746,0.1099,0.9778,-1929.44,1265.81,376.89
7130,-3.8746,0.1125,0.9772,-1929.44,1156.43,126.89
7140,-3.8746,0.1162,0.9791,-1585.69,1078.31,220.64
7150,-3.8746,0.1202,0.9830,-1116.94,1328.31,564.39
7160,-3.8746,0.1249,0.9845,-601.32,1828.31,830.02
7170,-3.8746,0.1279,0.9839,-7.57,-1984.19,1126.89
7180,-3.8746,0.1273,0.9838,383.06,1937.74,1486.27
7190,-3.8746,0.1256,0.9828,304.93,1922.12,1658.14
7200,-3.8746,0.1262,0.9808,86.18,1797.12,1689.39
7210,-3.8746,0.1283,0.9796,164.31,1547.12,1548.77
7220,-3.8746,0.1295,0.9802,429.93,1390.87,1314.39
7230,-3.8746,0.1294,0.9807,586.18,1468.99,1298.77
7240,-3.8746,0.1295,0.9801,570.56,1531.49,1361.27
7250,-3.8746,0.1298,0.9794,586.18,1453.37,1361.27
7260,-3.8746,0.1292,0.9785,617.43,1359.62,1345.64
7270,-3.8746,0.1283,0.9784,539.31,1250.24,1330.02
7280,-3.8746,0.1268,0.9800,429.93,1234.62,1580.02
7290,-3.8746,0.1251,0.9816,242.43,1437.74,1876.89
7300,-3.8746,0.1233,0.9819,23.68,1640.87,1908.14
7310,-3.8746,0.1216,0.9816,-210.69,1687.68,1970.64
7320,-3.8746,0.1217,0.9794,-429.44,1640.81,-1935.61
7330,-3.8746,0.1228,0.9745,-413.82,1359.56,1892.52
7340,-3.8746,0.1238,0.9695,-273.19,734.56,1501.89
7350,-3.8746,0.1229,0.9674,-148.19,93.93,1126.89
7360,-3.8746,0.1200,0.9685,-257.57,-171.69,829.96
7370,-3.8746,0.1172,0.9717,-632.57,-31.07,767.46
7380,-3.8746,0.1162,0.9755,-991.94,375.18,986.27
7390,-3.8746,0.1167,0.9767,-1116.94,859.56,1189.39
7400,-3.8746,0.1174,0.9764,-1054.44,1015.81,1283.14
7410,-3.8746,0.1174,0.9786,-960.69,984.56,1314.39
7420,-3.8746,0.1168,0.9825,-960.69,1265.81,1580.02
7430,-3.8746,0.1173,0.9855,-1038.82,1765.81,1939.39
7440,-3.8746,0.1204,0.9851,-976.32,-1859.19,1908.14
7450,-3.8746,0.1250,0.9812,-585.69,-1906.07,1548.77
7460,-3.8746,0.1283,0.9761,8.06,1593.99,1080.02
7470,-3.8746,0.1289,0.9722,429.93,937.74,611.27
7480,-3.8746,0.1266,0.9719,508.06,437.74,251.89
7490,-3.8746,0.1228,0.9738,211.18,406.49,111.27
7500,-3.8746,0.1200,0.9742,-273.19,640.81,220.64
7510,-3.8746,0.1171,0.9734,-632.57,703.31,408.14
7520,-3.8746,0.1143,0.9725,-1007.57,593.93,658.14
7530,-3.8746,0.1143,0.9727,-1366.94,484.56,845.64
7540,-3.8746,0.1168,0.9739,-1366.94,500.18,1033.14
7550,-3.8746,0.1188,0.9762,-1038.82,656.43,1251.89
7560,-3.8746,0.1195,0.9791,-788.82,953.31,1298.77
7570,-3.8746,0.1204,0.9814,-695.07,1328.31,1408.14
7580,-3.8746,0.1217,0.9817,-585.69,1625.18,1611.27
7590,-3.8746,0.1241,0.9805,-413.82,1656.43,1673.77
7600,-3.8746,0.1265,0.9795,-101.32,1500.18,1658.14
7610,-3.8746,0.1270,0.9788,195.56,1375.24,1564.39
7620,-3.8746,0.1268,0.9783,258.06,1281.49,1455.02
7630,-3.8746,0.1273,0.9781,242.43,1218.99,1392.52
7640,-3.8746,0.1274,0.9800,304.93,1203.37,1330.02
7650,-3.8746,0.1263,0.9833,320.56,1437.74,1439.39
7660,-3.8746,0.1254,0.9852,179.93,1859.62,1705.02
7670,-3.8746,0.1260,0.9839,54.93,-1890.38,1939.39
7680,-3.8746,0.1276,0.9812,133.06,1937.74,-1919.98
7690,-3.8746,0.1282,0.9795,336.18,1593.99,-1904.36
7700,-3.8746,0.1271,0.9795,414.31,1375.24,-1935.61
7710,-3.8746,0.1255,0.9801,273.68,1375.24,-1904.36
7720,-3.8746,0.1234,0.9801,70.56,1453.37,-1779.36
7730,-3.8746,0.1217,0.9794,-195.07,1453.31,-1763.73
7740,-3.8746,0.1218,0.9783,-413.82,1359.56,-1841.86
7750,-3.8746,0.1227,0.9772,-398.19,1218.93,-1982.48
7760,-3.8746,0.1222,0.9767,-288.82,1078.31,1923.77
7770,-3.8746,0.1216,0.9784,-351.32,1015.81,1970.64
7780,-3.8746,0.1217,0.9807,-429.44,1234.56,-1904.36
7790,-3.8746,0.1221,0.9810,-413.82,1531.43,-1841.86
7800,-3.8746,0.1234,0.9803,-366.94,1562.68,-1857.48
7810,-3.8746,0.1245,0.9796,-195.07,1484.56,-1904.36
7820,-3.8746,0.1245,0.9796,-54.44,1390.81,-1935.61
7830,-3.8746,0.1244,0.9810,-54.44,1390.81,-1935.61
7840,-3.8746,0.1240,0.9818,-70.07,1562.68,-1919.98
7850,-3.8746,0.1234,0.9807,-116.94,1672.06,-1841.86
7860,-3.8746,0.1221,0.9796,-195.07,1531.43,-1888.73
7870,-3.8746,0.1202,0.9811,-366.94,1390.81,-1951.23
7880,-3.8746,0.1184,0.9830,-601.32,1578.31,-1935.61
7890,-3.8746,0.1173,0.9823,-835.69,1828.31,-1998.11
7900,-3.8746,0.1178,0.9795,-976.32,1734.56,1861.27
7910,-3.8746,0.1185,0.9772,-913.82,1375.18,1642.52
7920,-3.8746,0.1168,0.9752,-820.07,1078.31,1142.52
7930,-3.8746,0.1127,0.9730,-1038.82,828.31,642.52
7940,-3.8746,0.1090,0.9719,-1570.07,547.06,423.77
7950,-3.8746,0.1083,0.9723,1961.18,406.43,361.27
7960,-3.8746,0.1106,0.9745,1867.43,453.31,361.27
7970,-3.8746,0.1145,0.9794,-1835.69,734.56,533.14
7980,-3.8746,0.1171,0.9849,-1335.69,1359.56,1048.77
7990,-3.8746,0.1179,0.9873,-1007.57,-1937.32,1783.14
8000,-3.8746,0.1185,0.9867,-898.19,-1624.82,-1701.23
8010,-3.8746,0.1199,0.9849,-820.07,-1702.94,-1544.98
8020,-3.8746,0.1222,0.9834,-648.19,-1937.32,-1498.11
8030,-3.8746,0.1246,0.9833,-351.32,1875.18,-1388.73
8040,-3.8746,0.1265,0.9830,-38.82,1859.56,-1451.23
8050,-3.8746,0.1274,0.9825,195.56,1828.37,-1607.48
8060,-3.8746,0.1271,0.9828,320.56,1765.87,-1591.86
8070,-3.8746,0.1251,0.9830,273.68,1797.12,-1451.23
8080,-3.8746,0.1238,0.9825,23.68,1828.37,-1451.23
8090,-3.8746,0.1229,0.9822,-148.19,1765.81,-1451.23
8100,-3.8746,0.1204,0.9834,-257.57,1718.93,-1279.36
8110,-3.8746,0.1166,0.9857,-585.69,1875.18,-966.86
8120,-3.8746,0.1141,0.9862,-1070.07,-1827.94,-623.11
8130,-3.8746,0.1140,0.9850,-1382.57,-1765.44,-326.23
8140,-3.8746,0.1146,0.9836,-1398.19,-1921.69,-201.23
8150,-3.8746,0.1161,0.9812,-1320.07,1906.43,-357.48
8160,-3.8746,0.1188,0.9778,-1132.57,1593.93,-716.86
8170,-3.8746,0.1207,0.9755,-788.82,1156.43,-1169.98
8180,-3.8746,0.1213,0.9771,-538.82,859.56,-1560.61
8190,-3.8746,0.1221,0.9816,-460.69,1062.68,-1716.86
8200,-3.8746,0.1235,0.9862,-366.94,1640.81,-1701.23
8210,-3.8746,0.1250,0.9882,-179.44,-1765.44,-1544.98
8220,-3.8746,0.1252,0.9875,8.06,-1515.38,-1310.61
8230,-3.8746,0.1252,0.9860,39.31,-1593.51,-1169.98
8240,-3.8746,0.1256,0.9832,39.31,-1796.63,-1201.23
8250,-3.8746,0.1261,0.9790,86.18,1843.99,-1248.11
8260,-3.8746,0.1261,0.9753,148.68,1312.74,-1388.73
8270,-3.8746,0.1246,0.9734,148.68,843.99,-1638.73
8280,-3.8746,0.1230,0.9738,-38.82,593.93,-1779.36
8290,-3.8746,0.1227,0.9760,-241.94,640.81,-1888.73
8300,-3.8746,0.1232,0.9781,-288.82,922.06,-1904.36
8310,-3.8746,0.1241,0.9789,-226.32,1203.31,-1748.11
8320,-3.8746,0.1256,0.9788,-101.32,1297.06,-1654.36
8330,-3.8746,0.1261,0.9792,86.18,1281.49,-1763.73
8340,-3.8746,0.1250,0.9801,148.68,1343.99,-1951.23
8350,-3.8746,0.1240,0.9795,8.06,1453.37,1845.64
8360,-3.8746,0.1251,0.9772,-116.94,1375.18,1501.89
8370,-3.8746,0.1274,0.9749,23.68,1078.37,1080.02
8380,-3.8746,0.1292,0.9746,320.56,781.49,720.64
8390,-3.8746,0.1294,0.9755,539.31,750.24,548.77
8400,-3.8746,0.1287,0.9747,570.56,859.62,564.39
8410,-3.8746,0.1282,0.9731,476.81,765.87,595.64
8420,-3.8746,0.1281,0.9724,414.31,562.74,720.64
8430,-3.8746,0.1268,0.9729,398.68,468.99,892.52
8440,-3.8746,0.1238,0.9747,242.43,531.49,1048.77
8450,-3.8746,0.1199,0.9768,-148.19,765.81,1298.77
8460,-3.8746,0.1177,0.9789,-648.19,1031.43,1642.52
8470,-3.8746,0.1184,0.9800,-929.44,1297.06,-1982.48
8480,-3.8746,0.1205,0.9788,-835.69,1437.68,-1748.11
8490,-3.8746,0.1221,0.9755,-570.07,1281.43,-1794.98
8500,-3.8746,0.1232,0.9727,-366.94,859.56,1955.02
8510,-3.8746,0.1232,0.9708,-226.32,500.18,1689.39
8520,-3.8746,0.1223,0.9698,-226.32,265.81,1486.27
8530,-3.8746,0.1224,0.9707,-335.69,140.81,1455.02
8540,-3.8746,0.1232,0.9728,-320.07,250.18,1611.27
8550,-3.8746,0.1237,0.9745,-226.32,515.81,1861.27
8560,-3.8746,0.1240,0.9758,-163.82,734.56,-1841.86
8570,-3.8746,0.1256,0.9785,-116.94,906.43,-1404.36
8580,-3.8746,0.1274,0.9822,86.18,1250.24,-919.98
8590,-3.8746,0.1270,0.9854,320.56,1718.99,-482.48
8600,-3.8746,0.1251,0.9866,258.06,-1874.76,-123.11
8610,-3.8745,0.1240,0.9856,23.68,-1718.51,48.77
8620,-3.8745,0.1239,0.9830,-116.94,-1843.57,48.77
8630,-3.8746,0.1232,0.9800,-132.57,1828.31,-44.98
8640,-3.8746,0.1217,0.9794,-226.32,1437.68,-357.48
8650,-3.8746,0.1195,0.9825,-413.82,1359.56,-810.61
8660,-3.8746,0.1179,0.9866,-695.07,1765.81,-1060.61
8670,-3.8746,0.1194,0.9878,-898.19,-1718.57,-966.86
8680,-3.8746,0.1227,0.9860,-710.69,-1562.32,-591.86
8690,-3.8746,0.1243,0.9846,-288.82,-1796.69,-76.23
8700,-3.8745,0.1243,0.9871,-85.69,-1968.57,517.52
8710,-3.8745,0.1249,0.9922,-85.69,-1656.07,1205.02
8720,-3.8745,0.1273,0.9963,-7.57,-999.82,-1966.86
8730,-3.8745,0.1331,0.9985,304.93,-468.51,-1091.86
8740,-3.8745,0.1400,0.9974,1039.31,-187.26,-388.73
8750,-3.8744,0.1438,0.9943,1929.93,-327.88,48.77
8760,-3.8744,0.1445,0.9922,-1585.69,-734.13,205.02
8770,-3.8744,0.1447,0.9900,-1491.94,-999.76,111.27
8780,-3.8745,0.1444,0.9865,-1476.32,-1281.01,-373.11
8790,-3.8745,0.1439,0.9827,-1507.57,-1734.13,-966.86
8800,-3.8745,0.1433,0.9800,-1570.07,1781.49,-1435.61
8810,-3.8745,0.1409,0.9781,-1648.19,1437.74,-1951.23
8820,-3.8745,0.1348,0.9786,-1960.69,1203.37,1501.89
8830,-3.8745,0.1272,0.9805,1258.06,1265.87,1080.02
8840,-3.8745,0.1207,0.9802,289.31,1500.24,626.89
8850,-3.8745,0.1174,0.9785,-538.82,1468.93,142.52
8860,-3.8746,0.1190,0.9781,-960.69,1250.18,-232.48
8870,-3.8746,0.1237,0.9789,-757.57,1203.31,-529.36
8880,-3.8746,0.1285,0.9791,-163.82,1297.06,-888.73
8890,-3.8746,0.1324,0.9781,461.18,1328.37,-1263.73
8900,-3.8746,0.1353,0.9752,961.18,1203.37,-1544.98
8910,-3.8746,0.1359,0.9718,1320.56,828.37,-1638.73
8920,-3.8746,0.1335,0.9691,1398.68,390.87,-1669.98
8930,-3.8746,0.1300,0.9672,1101.81,47.12,-1607.48
8940,-3.8746,0.1260,0.9658,648.68,-202.88,-1388.79
8950,-3.8746,0.1218,0.9650,133.06,-374.76,-1123.17
8960,-3.8746,0.1190,0.9644,-398.19,-484.19,-795.04
8970,-3.8746,0.1173,0.9648,-757.57,-562.32,-435.67
8980,-3.8746,0.1161,0.9661,-976.32,-499.82,-45.04
8990,-3.8745,0.1147,0.9663,-1132.57,-343.57,283.08
9000,-3.8745,0.1141,0.9646,-1304.44,-312.32,392.46
9010,-3.8745,0.1144,0.9596,-1382.57,-531.07,283.08
9020,-3.8746,0.1132,0.9531,-1351.32,-1171.69,-201.29
9030,-3.8746,0.1088,0.9490,-1507.57,-1999.82,-920.04
9040,-3.8746,0.1025,0.9480,1929.93,1468.93,-1576.29
9050,-3.8746,0.0967,0.9485,1133.06,1343.93,-1857.54
9060,-3.8746,0.0924,0.9490,383.06,1406.43,-1810.67
9070,-3.8746,0.0902,0.9486,-163.82,1468.87,-1732.54
9080,-3.8746,0.0896,0.9482,-445.07,1422.00,-1701.29
9090,-3.8746,0.0901,0.9495,-523.19,1375.12,-1685.67
9100,-3.8746,0.0909,0.9531,-460.69,1531.37,-1576.29
9110,-3.8746,0.0920,0.9572,-351.32,-1999.88,-1451.29
9120,-3.8746,0.0929,0.9594,-210.69,-1484.25,-1482.54
9130,-3.8746,0.0942,0.9604,-101.32,-1203.00,-1623.17
9140,-3.8746,0.0950,0.9613,70.56,-1062.32,-1763.79
9150,-3.8746,0.0946,0.9625,164.31,-952.94,-1826.29
9160,-3.8746,0.0959,0.9644,117.43,-796.69,-1716.92
9170,-3.8746,0.0999,0.9664,289.31,-562.32,-1638.79
9180,-3.8746,0.1041,0.9690,789.31,-296.69,-1545.04
9190,-3.8746,0.1093,0.9707,1336.18,31.43,-1404.36
9200,-3.8746,0.1160,0.9713,1992.43,250.18,-1216.86
9210,-3.8746,0.1224,0.9727,-1148.19,328.31,-873.11
9220,-3.8746,0.1268,0.9753,-320.07,500.18,-341.86
9230,-3.8745,0.1295,0.9795,242.43,843.99,470.64
9240,-3.8745,0.1324,0.9836,586.18,1375.24,1392.52
9250,-3.8745,0.1368,0.9858,961.18,1906.49,-1794.98
9260,-3.8745,0.1421,0.9855,1523.68,-1812.26,-1341.86
9270,-3.8745,0.1467,0.9829,-1804.44,-1859.13,-1310.61
9280,-3.8745,0.1484,0.9811,-1210.69,1812.74,-1373.11
9290,-3.8745,0.1476,0.9818,-991.94,1578.37,-1279.36
9300,-3.8745,0.1479,0.9822,-1101.32,1672.12,-1216.86
9310,-3.8745,0.1515,0.9797,-1054.44,1718.99,-1294.98
9320,-3.8745,0.1561,0.9761,-601.32,1406.49,-1482.48
9330,-3.8745,0.1586,0.9749,-7.57,937.74,-1794.98
9340,-3.8745,0.1586,0.9769,304.93,781.56,1908.14
9350,-3.8745,0.1570,0.9797,304.93,1047.18,1798.77
9360,-3.8745,0.1552,0.9808,101.81,1406.56,1861.27
9370,-3.8745,0.1536,0.9808,-132.57,1547.12,1861.27
9380,-3.8745,0.1521,0.9812,-335.69,1547.12,1626.89
9390,-3.8745,0.1514,0.9823,-523.19,1593.99,1251.89
9400,-3.8745,0.1526,0.9828,-616.94,1734.62,955.02
9410,-3.8745,0.1564,0.9810,-460.69,1797.12,595.64
9420,-3.8745,0.1622,0.9778,23.68,1562.81,111.27
9430,-3.8746,0.1653,0.9768,773.68,1156.56,-357.48
9440,-3.8746,0.1622,0.9800,1164.31,1031.56,-826.23
9450,-3.8746,0.1556,0.9843,773.68,1437.81,-1232.48
9460,-3.8746,0.1495,0.9868,-70.07,1984.62,-1341.86
9470,-3.8746,0.1460,0.9882,-851.32,-1687.26,-1185.61
9480,-3.8746,0.1454,0.9908,-1304.44,-1515.38,-794.98
9490,-3.8746,0.1462,0.9937,-1382.57,-1171.63,-263.73
9500,-3.8745,0.1461,0.9929,-1273.19,-812.26,48.77
9510,-3.8746,0.1420,0.9868,-1288.82,-906.01,-44.98
9520,-3.8746,0.1379,0.9792,-1820.07,-1687.26,-591.86
9530,-3.8746,0.1371,0.9739,1664.31,1343.99,-1326.23
9540,-3.8746,0.1349,0.9716,1554.93,656.49,-1685.61
9550,-3.8746,0.1289,0.9734,1273.68,359.62,-1779.36
9560,-3.8746,0.1230,0.9777,508.06,593.99,-1654.36
9570,-3.8746,0.1205,0.9818,-241.94,1140.81,-1123.11
9580,-3.8746,0.1218,0.9839,-570.07,1672.06,-91.86
9590,-3.8745,0.1259,0.9858,-398.19,1937.68,798.77
9600,-3.8745,0.1285,0.9897,117.43,-1812.26,1486.27
9610,-3.8745,0.1302,0.9944,461.18,-1312.26,-1701.23
9620,-3.8745,0.1316,0.9978,679.93,-718.51,-1060.61
9630,-3.8745,0.1305,0.9968,851.81,-281.01,-623.11
9640,-3.8745,0.1262,0.9889,711.18,-406.01,-701.23
9650,-3.8745,0.1210,0.9766,164.31,-1421.63,-1357.48
9660,-3.8745,0.1155,0.9644,-507.57,1000.18,1767.52
9670,-3.8745,0.1094,0.9563,-1210.69,-562.32,1095.58
9680,-3.8745,0.1051,0.9536,-1991.94,-1593.57,845.58
9690,-3.8745,0.1057,0.9526,1461.18,-1937.32,986.21
9700,-3.8745,0.1108,0.9547,1539.31,1937.68,1486.21
9710,-3.8745,0.1202,0.9634,-1804.44,-1796.69,-1701.29
9720,-3.8745,0.1310,0.9740,-601.32,-687.32,-388.79
9730,-3.8744,0.1405,0.9803,773.68,672.12,1189.39
9740,-3.8744,0.1489,0.9828,1992.43,1484.62,-1669.98
9750,-3.8744,0.1549,0.9835,-929.44,1797.12,-1232.48
9760,-3.8744,0.1560,0.9829,-163.82,1890.87,-1326.23
9770,-3.8744,0.1538,0.9818,-23.19,1812.74,-1888.73
9780,-3.8744,0.1521,0.9761,-304.44,1672.12,1533.14
9790,-3.8744,0.1506,0.9663,-523.19,937.74,1517.52
9800,-3.8744,0.1464,0.9600,-710.69,-312.26,1642.46
9810,-3.8744,0.1379,0.9561,-1257.57,-1124.76,1642.46
9820,-3.8744,0.1309,0.9507,1664.31,-1624.76,1798.71
9830,-3.8744,0.1320,0.9481,758.06,1687.74,-1841.92
9840,-3.8744,0.1401,0.9558,898.68,1359.62,-1310.67
9850,-3.8744,0.1488,0.9703,1945.56,-1656.01,-716.92
9860,-3.8744,0.1539,0.9799,-945.07,203.37,-201.23
9870,-3.8744,0.1543,0.9777,-288.82,1422.12,-232.48
9880,-3.8744,0.1499,0.9648,-241.94,1140.87,-1107.48
9890,-3.8744,0.1428,0.9478,-804.44,-499.76,1548.71
9900,-3.8744,0.1344,0.9340,-1710.69,1312.74,251.83
9910,-3.8745,0.1235,0.9274,1211.18,-452.88,-732.60
9920,-3.8745,0.1124,0.9274,-179.44,-1296.69,-1326.35
9930,-3.8745,0.1080,0.9315,-1601.32,-1296.69,-1466.98
9940,-3.8745,0.1151,0.9401,1836.18,-765.44,-1154.48
9950,-3.8745,0.1300,0.9540,-1257.57,328.31,-513.79
9960,-3.8744,0.1478,0.9729,648.68,-1890.38,564.33
9970,-3.8744,0.1663,0.9943,-1070.07,531.49,-1873.11
9980,-3.8744,0.1821,1.0073,1289.31,-734.07,-138.73
9990,-3.8743,0.1913,1.0040,-679.44,937.81,1220.70
10000,-3.8743,0.1904,0.9889,492.43,515.99,1361.33
10010,-3.8743,0.1788,0.9714,383.06,-1421.51,158.14
10020,-3.8744,0.1600,0.9580,-1101.32,344.06,-1310.61
10030,-3.8744,0.1403,0.9482,492.43,-1374.69,1751.83
10040,-3.8744,0.1254,0.9443,1961.18,1375.24,1392.46
10050,-3.8744,0.1212,0.9490,54.93,875.24,1689.33
10060,-3.8744,0.1298,0.9567,-476.32,1468.93,-1154.42
10070,-3.8743,0.1472,0.9615,617.43,-1546.63,376.83
10080,-3.8743,0.1656,0.9615,-1148.19,-921.63,1408.08
10090,-3.8743,0.1750,0.9600,1211.18,-921.57,1626.83
10100,-3.8743,0.1724,0.9613,-1585.69,-1124.69,1517.46
10110,-3.8743,0.1626,0.9636,-1929.44,-952.82,1470.58
10120,-3.8743,0.1515,0.9617,820.56,-655.94,1439.33
10130,-3.8743,0.1414,0.9548,-601.32,-906.01,1189.33
10140,-3.8743,0.1307,0.9492,-1898.19,-1781.01,548.71
10150,-3.8744,0.1194,0.9487,742.43,1500.24,-310.67
10160,-3.8744,0.1082,0.9528,-710.69,1437.68,-873.17
10170,-3.8744,0.0995,0.9603,1851.81,1953.31,-935.67
10180,-3.8744,0.0975,0.9674,742.43,-1077.94,-904.42
10190,-3.8744,0.1042,0.9714,492.43,-171.69,-1138.79
10200,-3.8744,0.1162,0.9724,1351.81,343.93,-1560.61
10210,-3.8744,0.1248,0.9717,-1116.94,468.93,1970.64
10220,-3.8744,0.1260,0.9689,-23.19,375.18,1455.02
10230,-3.8744,0.1174,0.9611,133.06,15.87,955.02
10240,-3.8744,0.0983,0.9482,-960.69,-984.19,642.46
10250,-3.8744,0.0775,0.9336,586.18,1375.18,439.33
10260,-3.8744,0.0673,0.9243,1929.93,-499.88,220.52
10270,-3.8744,0.0723,0.9271,617.43,-1687.38,392.40
10280,-3.8744,0.0905,0.9408,1258.06,-1328.00,1236.15
10290,-3.8744,0.1150,0.9568,-413.82,422.00,-1466.92
10300,-3.8744,0.1361,0.9675,-1273.19,-1531.07,-326.29
10310,-3.8743,0.1471,0.9728,1429.93,-156.01,64.33
10320,-3.8744,0.1494,0.9785,-1163.82,515.87,-310.61
10330,-3.8744,0.1526,0.9878,-866.94,1250.24,-1029.36
10340,-3.8744,0.1578,0.9952,-460.69,-1562.26,-1482.48
10350,-3.8744,0.1571,0.9961,211.18,-609.07,-1685.61
10360,-3.8744,0.1519,0.9949,117.43,-499.69,1767.52
10370,-3.8744,0.1498,0.9954,-554.44,-656.01,939.39
10380,-3.8744,0.1558,0.9961,-820.07,-593.51,189.39
10390,-3.8745,0.1698,0.9962,-54.44,-499.76,-607.48
10400,-3.8745,0.1835,0.9960,1742.43,-484.07,-1701.23
10410,-3.8745,0.1898,0.9950,-507.57,-515.32,1095.64
10420,-3.8746,0.1902,0.9923,304.93,-640.26,-154.36
10430,-3.8746,0.1859,0.9875,351.81,-984.01,-1482.48
10440,-3.8746,0.1777,0.9819,-195.07,-1593.44,1095.64
10450,-3.8748,0.1697,0.9766,-1241.94,1687.81,-373.11
10460,-3.8748,0.1647,0.9733,1726.81,1000.31,-1560.61
10470,-3.8748,0.1637,0.9723,1086.18,578.43,1611.27
10480,-3.8748,0.1627,0.9707,961.18,453.43,1017.52
10490,-3.8748,0.1552,0.9694,836.18,250.31,830.02
10500,-3.8748,0.1432,0.9714,-132.57,78.37,830.02
10510,-3.8748,0.1370,0.9752,-1663.82,343.99,908.14
10520,-3.8748,0.1415,0.9810,1539.31,828.37,1408.14
10530,-3.8748,0.1539,0.9889,-1882.57,1562.74,-1873.11
10540,-3.8748,0.1660,0.9967,-288.82,-1421.63,-1201.23
10550,-3.8748,0.1687,1.0010,1258.06,-421.57,-623.11
10560,-3.8748,0.1626,1.0002,1601.81,125.31,-388.67
10570,-3.8748,0.1514,0.9946,820.56,31.56,-669.92
10580,-3.8748,0.1379,0.9868,-616.94,-687.26,-1279.36
10590,-3.8748,0.1338,0.9832,1664.31,-1687.26,1908.14
10600,-3.8748,0.1420,0.9812,1133.06,1843.99,1017.52
10610,-3.8748,0.1575,0.9791,-1820.07,1593.99,298.77
10620,-3.8749,0.1731,0.9788,164.31,1328.43,-294.98
10630,-3.8749,0.1791,0.9812,-1835.69,1281.56,-576.23
10640,-3.8749,0.1777,0.9868,-1070.07,1594.06,-263.73
10650,-3.8748,0.1742,0.9894,-1241.94,-1687.19,423.77
10660,-3.8748,0.1670,0.9860,-1695.07,-1359.07,1189.39
10670,-3.8748,0.1613,0.9800,1383.06,-1796.57,1595.64
10680,-3.8748,0.1619,0.9744,648.68,1437.81,1626.89
10690,-3.8748,0.1627,0.9705,726.81,719.06,1626.89
10700,-3.8748,0.1582,0.9713,836.18,219.06,1830.02
10710,-3.8748,0.1498,0.9749,258.06,328.43,-1841.86
10720,-3.8748,0.1387,0.9760,-820.07,781.49,-1419.98
10730,-3.8748,0.1252,0.9757,1758.06,922.12,-982.48
10740,-3.8748,0.1180,0.9785,39.31,890.87,-654.36
10750,-3.8748,0.1223,0.9854,-882.57,1250.18,-498.11
10760,-3.8748,0.1318,0.9945,-335.69,-1874.82,-263.73
10770,-3.8746,0.1453,1.0052,883.06,-702.88,142.52
10780,-3.8746,0.1625,1.0107,-1398.19,672.12,548.83
10790,-3.8746,0.1746,1.0071,804.93,1375.31,845.70
10800,-3.8746,0.1763,1.0004,-1648.19,906.56,736.33
10810,-3.8746,0.1718,0.9941,-1429.44,47.18,48.83
10820,-3.8748,0.1647,0.9867,1992.43,-749.69,-873.11
10830,-3.8748,0.1562,0.9796,1086.18,-1702.82,-1513.73
10840,-3.8748,0.1484,0.9735,8.06,1390.93,-1794.98
10850,-3.8748,0.1429,0.9696,-991.94,609.62,-1810.61
10860,-3.8748,0.1394,0.9690,-1695.07,109.62,-1685.61
10870,-3.8748,0.1365,0.9690,1851.81,31.49,-1591.86
10880,-3.8748,0.1311,0.9694,1476.81,31.49,-1373.11
10890,-3.8748,0.1230,0.9709,789.31,78.37,-826.23
10900,-3.8748,0.1190,0.9755,-241.94,281.43,-13.73
10910,-3.8746,0.1241,0.9810,-757.57,859.56,908.14
10920,-3.8746,0.1329,0.9843,-101.32,1562.68,1845.64
10930,-3.8746,0.1393,0.9867,1023.68,1984.62,-1404.36
10940,-3.8746,0.1396,0.9889,1836.18,-1702.88,-998.11
10950,-3.8746,0.1333,0.9911,1883.06,-1421.63,-873.11
10960,-3.8746,0.1235,0.9955,1070.56,-1140.38,-919.98
10970,-3.8746,0.1157,1.0005,-179.44,-577.94,-1091.86
10980,-3.8746,0.1146,0.9999,-1179.44,62.68,-1498.05
10990,-3.8746,0.1200,0.9929,-1320.07,-15.44,1548.77
11000,-3.8746,0.1272,0.9854,-632.57,-906.07,1.89
11010,-3.8748,0.1339,0.9813,289.31,-1874.76,-1638.73
11020,-3.8748,0.1373,0.9786,1148.68,1609.62,1220.64
11030,-3.8748,0.1364,0.9762,1586.18,1265.87,736.27
11040,-3.8748,0.1331,0.9750,1461.18,953.37,720.64
11050,-3.8748,0.1290,0.9745,1039.31,797.12,1080.02
11060,-3.8748,0.1277,0.9713,523.68,734.62,1673.77
11070,-3.8748,0.1309,0.9635,351.81,328.37,-1857.48
11080,-3.8748,0.1337,0.9546,758.06,-671.63,-1810.67
11090,-3.8748,0.1295,0.9514,1117.43,-1812.26,1970.58
11100,-3.8748,0.1176,0.9553,586.18,1781.49,1986.21
11110,-3.8748,0.1033,0.9602,-945.07,-1718.57,-1513.79
11120,-3.8748,0.0930,0.9618,1226.81,-1093.57,-638.79
11130,-3.8746,0.0873,0.9612,-85.69,-890.50,17.46
11140,-3.8746,0.0847,0.9624,-820.07,-968.63,79.96
11150,-3.8748,0.0852,0.9688,-1148.19,-812.38,-170.04
11160,-3.8748,0.0895,0.9788,-1085.69,0.12,-404.36
11170,-3.8748,0.0983,0.9871,-538.82,1281.37,-654.36
11180,-3.8748,0.1117,0.9899,586.18,-1656.07,-1123.11
11190,-3.8748,0.1282,0.9875,-1695.07,-1296.69,-1888.73
11200,-3.8748,0.1438,0.9843,414.31,-1593.51,1142.52
11210,-3.8748,0.1552,0.9835,-1585.69,1984.62,298.77
11220,-3.8749,0.1622,0.9852,-132.57,1890.87,-216.86
11230,-3.8749,0.1654,0.9877,773.68,-1890.32,-263.73
11240,-3.8748,0.1620,0.9895,1179.93,-1577.82,1.89
11250,-3.8748,0.1538,0.9895,742.43,-1343.44,220.64
11260,-3.8748,0.1481,0.9866,-304.44,-1343.51,330.02
11270,-3.8748,0.1417,0.9805,-1038.82,-1718.51,361.27
11280,-3.8748,0.1302,0.9730,-1851.32,1500.24,486.27
11290,-3.8748,0.1154,0.9669,679.93,547.12,705.02
11300,-3.8748,0.1012,0.9594,-1226.32,-234.19,751.83
11310,-3.8748,0.0939,0.9498,961.18,-1202.94,642.46
11320,-3.8748,0.0931,0.9430,23.68,1578.31,673.71
11330,-3.8748,0.0940,0.9435,-70.07,703.25,767.46
11340,-3.8748,0.0920,0.9512,39.31,765.81,1017.46
11350,-3.8748,0.0883,0.9625,-210.69,1750.12,1658.08
11360,-3.8748,0.0854,0.9725,-695.07,-796.75,-1373.17
11370,-3.8748,0.0839,0.9796,-1054.44,484.50,-341.86
11380,-3.8746,0.0818,0.9855,-1257.57,1390.75,501.89
11390,-3.8746,0.0768,0.9901,-1523.19,-1859.25,1095.64
11400,-3.8746,0.0729,0.9923,1836.18,-1265.50,1611.27
11410,-3.8746,0.0769,0.9941,1336.18,-984.25,-1919.98
11420,-3.8746,0.0919,0.9960,1851.81,-749.88,-1888.73
11430,-3.8746,0.1155,0.9960,-226.32,-515.50,1626.89
11440,-3.8746,0.1405,0.9945,-1210.69,-515.44,986.27
11450,-3.8746,0.1591,0.9917,1992.43,-702.88,439.39
11460,-3.8748,0.1670,0.9873,367.43,-1062.19,-13.73
11470,-3.8748,0.1625,0.9834,1383.06,-1624.69,-201.23
11480,-3.8748,0.1489,0.9821,804.93,1875.31,-44.98
11490,-3.8746,0.1351,0.9834,-929.44,1703.37,298.77
11500,-3.8746,0.1277,0.9867,1304.93,1875.24,736.27
11510,-3.8746,0.1221,0.9885,351.81,-1702.88,1298.77
11520,-3.8746,0.1112,0.9885,-366.94,-1468.57,1923.77
11530,-3.8746,0.0984,0.9880,-1757.57,-1468.57,-1826.23
11540,-3.8746,0.0874,0.9839,601.81,-1531.07,-1888.73
11550,-3.8746,0.0789,0.9792,-804.44,1937.62,-1779.36
11560,-3.8746,0.0726,0.9786,-1898.19,1343.87,-1701.23
11570,-3.8746,0.0664,0.9808,1304.93,1265.75,-1701.23
11580,-3.8746,0.0608,0.9840,508.06,1547.00,-1654.36
11590,-3.8746,0.0552,0.9869,-210.69,1953.19,-1544.98
11600,-3.8746,0.0524,0.9899,-929.44,-1671.81,-1310.61
11610,-3.8746,0.0543,0.9915,-1288.82,-1296.81,-1185.61
11620,-3.8746,0.0597,0.9907,-1038.82,-1093.69,-1216.86
11630,-3.8746,0.0696,0.9908,-351.32,-1187.44,-1232.48
11640,-3.8746,0.0841,0.9926,914.31,-1171.75,-1248.11
11650,-3.8746,0.0990,0.9932,-1226.32,-953.00,-1310.61
11660,-3.8746,0.1082,0.9921,679.93,-874.82,-1419.98
11670,-3.8746,0.1100,0.9923,1851.81,-1015.44,-1560.61
11680,-3.8746,0.1061,0.9935,-1913.82,-984.19,-1748.11
11690,-3.8746,0.0995,0.9930,1586.18,-827.94,-1857.48
11700,-3.8746,0.0936,0.9907,742.43,-890.44,-1810.61
11710,-3.8746,0.0908,0.9871,-7.57,-1187.38,-1810.61
11720,-3.8746,0.0914,0.9827,-366.94,-1656.13,-1841.86
11730,-3.8746,0.0925,0.9791,-288.82,1781.37,-1888.73
11740,-3.8746,0.0916,0.9769,-148.19,1328.25,1830.02
11750,-3.8746,0.0889,0.9768,-273.19,1047.00,1189.39
11760,-3.8746,0.0846,0.9803,-616.94,1031.37,486.27
11770,-3.8748,0.0787,0.9863,-1163.82,1484.50,-13.73
11780,-3.8748,0.0724,0.9938,-1913.82,-1749.88,-154.36
11790,-3.8748,0.0685,1.0013,1273.68,-796.75,-60.61
11800,-3.8746,0.0692,1.0073,773.68,172.00,17.58
11810,-3.8748,0.0734,1.0115,867.43,937.62,-91.80
11820,-3.8748,0.0796,1.0129,1398.68,1468.87,-388.67
11830,-3.8748,0.0883,1.0103,-1804.44,1656.37,-685.55
11840,-3.8748,0.0980,1.0029,-695.07,1312.62,-873.05
11850,-3.8748,0.1058,0.9939,554.93,375.18,-982.42
11860,-3.8748,0.1112,0.9854,1554.93,-781.07,-1138.73
11870,-3.8748,0.1140,0.9795,-1757.57,-1874.82,-1185.61
11880,-3.8748,0.1140,0.9774,-1398.19,1375.18,-904.36
11890,-3.8748,0.1111,0.9784,-1398.19,1109.56,-404.36
11900,-3.8746,0.1058,0.9816,-1773.19,1234.56,111.27
11910,-3.8746,0.0999,0.9847,1554.93,1640.81,455.02
11920,-3.8746,0.0950,0.9854,789.31,-1952.94,626.89
11930,-3.8746,0.0922,0.9822,164.31,-1874.82,611.27
11940,-3.8746,0.0897,0.9751,-195.07,1718.87,376.89
11950,-3.8748,0.0869,0.9663,-507.57,812.62,-91.86
11960,-3.8748,0.0851,0.9587,-866.94,-312.38,-591.92
11970,-3.8748,0.0861,0.9529,-1101.32,-1281.13,-841.92
11980,-3.8748,0.0894,0.9468,-976.32,1968.87,-966.92
11990,-3.8748,0.0916,0.9385,-554.44,1187.62,-1045.04
12000,-3.8748,0.0908,0.9303,-273.19,125.12,-1107.54
12010,-3.8748,0.0863,0.9275,-366.94,-921.75,-1029.48
12020,-3.8748,0.0791,0.9313,-945.07,-1281.13,-716.98
12030,-3.8748,0.0742,0.9386,-1866.94,-796.75,-170.10
12040,-3.8746,0.0746,0.9465,1508.06,140.75,611.21
12050,-3.8746,0.0747,0.9548,1554.93,1156.37,1517.46
12060,-3.8746,0.0734,0.9659,1570.56,-1781.13,-1357.54
12070,-3.8745,0.0767,0.9764,1398.68,-359.25,48.71
12080,-3.8745,0.0894,0.9800,1820.56,984.50,1173.77
12090,-3.8745,0.1106,0.9758,-554.44,1437.62,1580.02
12100,-3.8745,0.1342,0.9678,-1835.69,906.43,1126.89
12110,-3.8745,0.1538,0.9606,1179.93,-124.76,1.83
12120,-3.8746,0.1674,0.9568,-304.44,-1046.63,-1154.42
12130,-3.8746,0.1738,0.9559,1429.93,-1530.94,-1904.42
12140,-3.8746,0.1711,0.9578,-1741.94,-1640.32,1845.58
12150,-3.8746,0.1593,0.9650,1914.31,-1405.94,-1623.17
12160,-3.8746,0.1428,0.9791,398.68,-484.07,-138.79
12170,-3.8745,0.1278,0.9961,-1710.69,1328.37,-1935.61
12180,-3.8744,0.1179,1.0085,367.43,-499.76,283.14
12190,-3.8744,0.1125,1.0121,-898.19,1093.93,1689.45
12200,-3.8744,0.1099,1.0065,-1585.69,1547.06,1798.83
12210,-3.8744,0.1075,0.9935,-1929.44,828.31,517.58
12220,-3.8745,0.1034,0.9806,1773.68,-827.94,-1638.73
12230,-3.8745,0.0956,0.9746,1242.43,1515.81,64.39
12240,-3.8746,0.0847,0.9767,242.43,750.18,1970.64
12250,-3.8746,0.0742,0.9824,-1148.19,1015.75,314.39
12260,-3.8748,0.0675,0.9891,1508.06,1750.12,-654.36
12270,-3.8748,0.0677,0.9966,648.68,-1390.50,-1060.61
12280,-3.8748,0.0763,1.0018,679.93,-437.38,-1263.73
12290,-3.8748,0.0894,1.0039,1773.68,234.50,-1169.92
12300,-3.8748,0.1021,1.0044,-554.44,500.12,-935.55
12310,-3.8748,0.1118,1.0044,1070.56,562.68,-654.30
12320,-3.8748,0.1171,1.0055,-1679.44,562.68,-357.42
12330,-3.8748,0.1182,1.0088,-1007.57,703.31,-76.17
12340,-3.8746,0.1150,1.0123,-866.94,1125.18,298.83
12350,-3.8746,0.1095,1.0150,-1273.19,1578.31,892.58
12360,-3.8746,0.1063,1.0181,-1976.32,1922.06,1689.45
12370,-3.8746,0.1082,1.0193,1617.43,-1687.32,-1591.80
12380,-3.8746,0.1132,1.0168,1851.81,-1531.07,-1341.80
12390,-3.8746,0.1182,1.0131,-1507.57,-1843.57,-1638.67
12400,-3.8746,0.1217,1.0100,-866.94,1672.06,1798.83
12410,-3.8746,0.1229,1.0082,-413.82,1281.43,1236.33
12420,-3.8746,0.1194,1.0070,-257.57,1047.06,736.33
12430,-3.8746,0.1094,1.0034,-710.69,890.81,251.95
12440,-3.8748,0.0966,0.9985,-1991.94,437.68,-138.67
12450,-3.8748,0.0845,0.9952,367.43,-187.32,-326.23
12460,-3.8748,0.0739,0.9937,-1179.44,-609.25,-294.98
12470,-3.8746,0.0657,0.9935,1461.18,-812.38,80.02
12480,-3.8746,0.0609,0.9943,414.31,-828.00,845.64
12490,-3.8746,0.0582,0.9944,-195.07,-734.31,1689.39
12500,-3.8746,0.0562,0.9955,-538.82,-718.69,-1513.73
12510,-3.8746,0.0537,0.9987,-804.44,-578.06,-732.48
12520,-3.8746,0.0504,1.0001,-1116.94,-171.81,-29.36
12530,-3.8745,0.0482,0.9985,-1538.82,15.69,486.33
12540,-3.8745,0.0486,0.9957,-1820.07,-187.44,595.64
12550,-3.8745,0.0548,0.9919,-1773.19,-546.81,345.64
12560,-3.8746,0.0648,0.9854,-976.32,-1031.19,-123.11
12570,-3.8746,0.0664,0.9760,304.93,-1874.88,-544.98
12580,-3.8746,0.0588,0.9683,508.06,922.00,-654.36
12590,-3.8746,0.0503,0.9607,-460.69,-62.44,-607.54
12600,-3.8746,0.0421,0.9519,-1554.44,-1031.19,-513.79
12610,-3.8746,0.0369,0.9485,1398.68,1843.81,-373.17
12620,-3.8746,0.0361,0.9495,726.81,1406.31,-107.54
12630,-3.8745,0.0376,0.9501,633.06,1531.31,345.58
12640,-3.8745,0.0408,0.9506,820.56,1609.44,704.96
12650,-3.8745,0.0454,0.9512,1226.81,1671.94,814.33
12660,-3.8745,0.0518,0.9515,1820.56,1750.06,751.83
12670,-3.8745,0.0593,0.9517,-1366.94,1796.94,736.21
12680,-3.8745,0.0684,0.9515,-398.19,1812.56,626.83
12690,-3.8745,0.0769,0.9503,758.06,1797.00,251.83
12700,-3.8746,0.0825,0.9486,1851.81,1640.75,-263.79
12710,-3.8746,0.0863,0.9471,-1429.44,1422.00,-920.04
12720,-3.8746,0.0906,0.9464,-945.07,1234.50,-1685.67
12730,-3.8746,0.0933,0.9491,-398.19,1140.75,1642.46
12740,-3.8746,0.0929,0.9554,-54.44,1484.50,1111.21
12750,-3.8746,0.0914,0.9620,-101.32,-1703.00,798.71
12760,-3.8746,0.0913,0.9670,-288.82,-859.25,736.21
12770,-3.8746,0.0930,0.9716,-304.44,-218.63,689.33
12780,-3.8746,0.0959,0.9769,-85.69,359.50,611.27
12790,-3.8746,0.1006,0.9824,289.31,1047.06,626.89
12800,-3.8746,0.1072,0.9841,883.06,1750.18,580.02
12810,-3.8746,0.1144,0.9813,1726.81,1968.93,314.39
12820,-3.8748,0.1191,0.9784,-1351.32,1609.56,-138.73
12830,-3.8748,0.1204,0.9802,-741.94,1234.56,-576.23
12840,-3.8748,0.1198,0.9850,-585.69,1468.93,-732.48
12850,-3.8748,0.1200,0.9891,-663.82,-1921.69,-591.86
12860,-3.8748,0.1210,0.9927,-632.57,-1390.44,-294.98
12870,-3.8746,0.1229,0.9980,-507.57,-937.32,1.89
12880,-3.8746,0.1268,1.0034,-257.57,-249.82,142.52
12890,-3.8746,0.1321,1.0043,242.43,437.74,142.58
12900,-3.8748,0.1367,1.0010,914.31,547.12,-154.30
12910,-3.8748,0.1376,0.9961,1508.06,125.24,-763.67
12920,-3.8748,0.1327,0.9912,1617.43,-499.76,-1357.48
12930,-3.8748,0.1234,0.9878,992.43,-1124.76,-1654.36
12940,-3.8748,0.1130,0.9882,-195.07,-1562.32,-1544.98
12950,-3.8748,0.1066,0.9906,-1523.19,-1515.44,-966.86
12960,-3.8748,0.1061,0.9918,1648.68,-1202.94,-201.23
12970,-3.8746,0.1089,0.9921,1586.18,-1046.69,501.89
12980,-3.8746,0.1122,0.9933,1945.56,-1015.44,1236.27
12990,-3.8746,0.1144,0.9950,-1632.57,-859.19,1876.89
13000,-3.8746,0.1135,0.9958,-1351.32,-640.44,-1857.48
13010,-3.8746,0.1096,0.9960,-1460.69,-531.07,-1841.86
13020,-3.8746,0.1057,0.9945,-1960.69,-515.44,-1919.98
13030,-3.8746,0.1056,0.9928,1539.31,-702.94,1955.02
13040,-3.8746,0.1110,0.9924,1523.68,-921.69,1814.39
13050,-3.8746,0.1183,0.9929,-1788.82,-968.57,1611.27
13060,-3.8746,0.1238,0.9933,-851.32,-906.07,1564.39
13070,-3.8746,0.1268,0.9921,-148.19,-859.19,1626.89
13080,-3.8746,0.1260,0.9908,242.43,-1015.38,1720.64
13090,-3.8746,0.1211,0.9907,133.06,-1171.63,1845.64
13100,-3.8746,0.1143,0.9906,-491.94,-1187.32,-1966.86
13110,-3.8746,0.1083,0.9908,-1366.94,-1202.94,-1591.86
13120,-3.8746,0.1052,0.9926,1867.43,-1171.69,-982.48
13130,-3.8746,0.1062,0.9938,1476.81,-952.94,-451.23
13140,-3.8746,0.1099,0.9924,1601.81,-796.69,-123.11
13150,-3.8746,0.1129,0.9890,-1929.44,-968.57,-107.48
13160,-3.8746,0.1123,0.9851,-1538.82,-1406.07,-388.73
13170,-3.8746,0.1074,0.9814,-1616.94,-1906.07,-748.11
13180,-3.8746,0.1007,0.9773,1758.06,1625.18,-1123.11
13190,-3.8746,0.0945,0.9716,898.68,1093.93,-1419.98
13200,-3.8746,0.0881,0.9657,101.81,359.56,-1701.23
13210,-3.8746,0.0804,0.9612,-710.69,-390.50,1954.96
13220,-3.8746,0.0720,0.9589,-1695.07,-968.63,1564.33
13230,-3.8746,0.0657,0.9591,1226.81,-1265.50,1329.96
13240,-3.8746,0.0635,0.9613,414.31,-1234.25,1423.71
13250,-3.8746,0.0651,0.9630,133.06,-953.00,1642.46
13260,-3.8746,0.0688,0.9612,336.18,-734.25,1579.96
13270,-3.8746,0.0726,0.9572,820.56,-968.63,1095.58
13280,-3.8746,0.0748,0.9519,1304.93,-1484.25,361.21
13290,-3.8748,0.0745,0.9442,1586.18,1843.87,-607.54
13300,-3.8748,0.0707,0.9377,1539.31,859.50,-1685.67
13310,-3.8748,0.0636,0.9380,1054.93,31.37,1361.21
13320,-3.8748,0.0564,0.9454,148.68,62.62,892.46
13330,-3.8748,0.0533,0.9575,-773.19,1015.69,986.21
13340,-3.8748,0.0544,0.9711,-1163.82,-1437.44,1298.71
13350,-3.8748,0.0594,0.9828,-1023.19,296.94,1595.64
13360,-3.8748,0.0685,0.9907,-382.57,1796.94,1798.77
13370,-3.8748,0.0806,0.9934,773.68,-1187.38,1830.02
13380,-3.8748,0.0930,0.9929,-1679.44,-843.63,1658.14
13390,-3.8748,0.1022,0.9904,-85.69,-906.13,1314.39
13400,-3.8748,0.1067,0.9860,1086.18,-1234.19,939.39
13410,-3.8748,0.1082,0.9830,1664.31,-1796.69,705.02
13420,-3.8748,0.1090,0.9844,1851.81,1828.31,736.27
13430,-3.8748,0.1117,0.9890,1961.18,-1999.82,1189.39
13440,-3.8748,0.1173,0.9938,-1695.07,-1406.07,1986.27
13450,-3.8748,0.1243,0.9978,-976.32,-796.69,-1029.36
13460,-3.8746,0.1326,1.0005,-85.69,-281.07,1.89
13470,-3.8746,0.1417,1.0021,976.81,62.74,1095.70
13480,-3.8746,0.1500,1.0042,-1851.32,265.87,-1701.17
13490,-3.8746,0.1545,1.0065,-788.82,531.49,-669.92
13500,-3.8746,0.1541,1.0076,-210.69,828.37,-13.67
13510,-3.8745,0.1510,1.0063,-273.19,968.99,345.70
13520,-3.8745,0.1477,1.0032,-663.82,812.74,408.20
13530,-3.8745,0.1454,0.9996,-1085.69,406.49,376.95
13540,-3.8745,0.1443,0.9972,-1382.57,-46.63,501.89
13550,-3.8745,0.1439,0.9965,-1523.19,-359.13,876.89
13560,-3.8745,0.1431,0.9955,-1570.07,-452.88,1298.77
13570,-3.8745,0.1394,0.9937,-1679.44,-577.88,1642.52
13580,-3.8745,0.1331,0.9910,1851.81,-812.26,-1935.61
13590,-3.8745,0.1267,0.9869,1039.31,-1156.01,-1591.86
13600,-3.8745,0.1227,0.9814,226.81,-1671.63,-1373.11
13610,-3.8745,0.1216,0.9756,-288.82,1625.18,-1201.23
13620,-3.8745,0.1235,0.9707,-429.44,875.18,-1294.98
13630,-3.8745,0.1262,0.9681,-179.44,250.18,-1513.73
13640,-3.8745,0.1252,0.9702,164.31,-77.88,-1638.79
13650,-3.8745,0.1212,0.9783,39.31,187.74,-1623.11
13660,-3.8745,0.1177,0.9891,-476.32,1218.93,-1498.11
13670,-3.8745,0.1156,0.9977,-929.44,-1390.44,-1373.11
13680,-3.8745,0.1152,1.0027,-1195.07,-296.69,-1435.61
13690,-3.8745,0.1168,1.0055,-1241.94,343.93,-1841.80
13700,-3.8745,0.1204,1.0059,-1038.82,703.31,1314.45
13710,-3.8745,0.1248,1.0038,-585.69,750.18,142.58
13720,-3.8746,0.1282,1.0018,-23.19,484.56,-1044.92
13730,-3.8746,0.1298,1.0011,414.31,234.62,-1951.17
13740,-3.8746,0.1295,0.9989,617.43,140.87,1501.95
13750,-3.8746,0.1282,0.9948,586.18,-140.38,1251.89
13760,-3.8746,0.1279,0.9907,414.31,-671.63,1111.27
13770,-3.8746,0.1295,0.9875,383.06,-1187.26,1142.52
13780,-3.8746,0.1310,0.9862,586.18,-1593.51,1330.02
13790,-3.8746,0.1307,0.9866,773.68,-1765.38,1501.89
13800,-3.8746,0.1282,0.9869,742.43,-1718.51,1611.27
13810,-3.8746,0.1228,0.9855,414.31,-1671.63,1626.89
13820,-3.8746,0.1169,0.9817,-273.19,-1859.19,1564.39
13830,-3.8746,0.1128,0.9773,-1023.19,1656.43,1486.27
13840,-3.8746,0.1111,0.9742,-1554.44,1093.93,1236.27
13850,-3.8746,0.1140,0.9741,-1773.19,703.31,861.27
13860,-3.8746,0.1213,0.9757,-1398.19,687.68,720.64
13870,-3.8746,0.1298,0.9763,-460.69,890.81,861.27
13880,-3.8746,0.1383,0.9729,617.43,968.99,970.64
13890,-3.8746,0.1459,0.9658,1711.18,531.49,908.14
13900,-3.8746,0.1489,0.9590,-1320.07,-374.76,579.96
13910,-3.8746,0.1476,0.9561,-929.44,-1249.76,314.33
13920,-3.8746,0.1440,0.9583,-1101.32,-1624.76,314.33
13930,-3.8746,0.1405,0.9617,-1554.44,-1343.51,486.21
13940,-3.8746,0.1393,0.9623,1992.43,-906.01,751.83
13950,-3.8746,0.1405,0.9607,1836.18,-827.88,798.71
13960,-3.8746,0.1422,0.9591,1992.43,-1031.01,345.58
13970,-3.8748,0.1434,0.9600,-1788.82,-1234.13,-185.67
13980,-3.8748,0.1442,0.9635,-1632.57,-1124.76,-341.92
13990,-3.8748,0.1455,0.9673,-1538.82,-671.63,-76.29
14000,-3.8746,0.1479,0.9692,-1366.94,-187.26,345.58
14010,-3.8746,0.1508,0.9695,-1054.44,62.74,626.89
14020,-3.8746,0.1527,0.9703,-695.07,93.99,751.89
14030,-3.8746,0.1528,0.9722,-445.07,203.37,798.77
14040,-3.8746,0.1508,0.9747,-429.44,437.74,986.27
14050,-3.8746,0.1475,0.9780,-695.07,765.87,1173.77
14060,-3.8746,0.1436,0.9799,-1116.94,1187.74,1298.77
14070,-3.8746,0.1394,0.9797,-1616.94,1422.12,1345.64
14080,-3.8746,0.1343,0.9790,1851.81,1406.49,1236.27
14090,-3.8746,0.1298,0.9777,1195.56,1312.74,1001.89
14100,-3.8746,0.1273,0.9762,617.43,1140.87,876.89
14110,-3.8746,0.1266,0.9755,304.93,953.37,986.27
14120,-3.8746,0.1277,0.9764,211.18,859.62,1361.27
14130,-3.8746,0.1298,0.9802,351.81,984.62,-1966.86
14140,-3.8746,0.1322,0.9849,617.43,1468.99,-1138.73
14150,-3.8746,0.1354,0.9863,929.93,-1937.26,-388.73
14160,-3.8745,0.1383,0.9817,1336.18,-1749.76,48.77
14170,-3.8746,0.1395,0.9731,1711.18,1656.49,-13.73
14180,-3.8746,0.1387,0.9663,1867.43,562.74,-294.98
14190,-3.8746,0.1366,0.9644,1758.06,-312.26,-341.92
14200,-3.8746,0.1345,0.9668,1492.43,-562.26,-60.67
14210,-3.8745,0.1342,0.9703,1226.81,-249.76,439.33
14220,-3.8745,0.1364,0.9727,1179.93,203.37,892.52
14230,-3.8745,0.1388,0.9731,1461.18,500.24,1111.27
14240,-3.8745,0.1395,0.9731,1773.68,562.74,1064.39
14250,-3.8745,0.1384,0.9750,1867.43,562.74,939.39
14260,-3.8745,0.1344,0.9797,1726.81,797.12,908.14
14270,-3.8745,0.1294,0.9851,1211.18,1406.49,1001.89
14280,-3.8745,0.1270,0.9868,570.56,-1906.01,1048.77
14290,-3.8745,0.1295,0.9840,258.06,-1687.26,923.77
14300,-3.8745,0.1360,0.9796,586.18,1953.37,564.39
14310,-3.8745,0.1429,0.9777,1414.31,1390.87,48.77
14320,-3.8746,0.1492,0.9794,-1695.07,1140.87,-248.11
14330,-3.8746,0.1555,0.9823,-898.19,1359.62,-185.61
14340,-3.8745,0.1622,0.9834,-85.69,1734.62,1.89
14350,-3.8745,0.1680,0.9822,773.68,1875.31,236.27
14360,-3.8745,0.1714,0.9799,1508.06,1719.06,486.27
14370,-3.8745,0.1725,0.9778,1945.56,1422.18,798.77
14380,-3.8745,0.1730,0.9752,-1913.82,1156.56,1142.52
14390,-3.8745,0.1744,0.9701,-1851.32,828.43,1345.64
14400,-3.8745,0.1771,0.9644,-1663.82,172.18,1376.89
14410,-3.8745,0.1793,0.9600,-1320.07,-562.19,1126.83
14420,-3.8745,0.1788,0.9570,-1038.82,-1124.69,767.46
14430,-3.8745,0.1758,0.9565,-1101.32,-1499.69,533.08
14440,-3.8745,0.1716,0.9583,-1491.94,-1562.19,361.21
14450,-3.8745,0.1691,0.9600,1976.81,-1343.44,204.96
14460,-3.8745,0.1698,0.9626,1648.68,-1124.69,173.71
14470,-3.8745,0.1727,0.9664,1742.43,-780.94,314.33
14480,-3.8745,0.1770,0.9681,-1882.57,-296.57,283.08
14490,-3.8746,0.1819,0.9669,-1335.69,-77.82,-107.54
14500,-3.8746,0.1864,0.9644,-710.69,-234.07,-716.92
14510,-3.8746,0.1880,0.9626,-132.57,-562.19,-1341.92
14520,-3.8746,0.1854,0.9624,70.56,-780.88,-1763.79
14530,-3.8746,0.1818,0.9630,-257.57,-812.19,-1904.42
14540,-3.8746,0.1787,0.9634,-726.32,-734.07,-1951.29
14550,-3.8746,0.1760,0.9650,-1116.94,-687.19,-1904.42
14560,-3.8746,0.1727,0.9692,-1460.69,-484.07,-1716.92
14570,-3.8746,0.1703,0.9744,-1882.57,62.81,-1482.48
14580,-3.8746,0.1702,0.9771,1804.93,719.06,-1185.61
14590,-3.8746,0.1703,0.9762,1789.31,1062.81,-810.61
14600,-3.8746,0.1696,0.9731,1804.93,953.43,-623.11
14610,-3.8746,0.1672,0.9689,1711.18,562.81,-607.48
14620,-3.8746,0.1624,0.9639,1414.31,15.93,-716.86
14630,-3.8746,0.1559,0.9583,789.31,-624.69,-920.04
14640,-3.8746,0.1499,0.9545,-38.82,-1343.51,-1170.04
14650,-3.8746,0.1462,0.9534,-804.44,-1827.88,-1373.17
14660,-3.8746,0.1447,0.9524,-1273.19,-1968.51,-1576.29
14670,-3.8746,0.1428,0.9519,-1476.32,1906.49,-1763.79
14680,-3.8746,0.1398,0.9526,-1710.69,1843.99,-1826.29
14690,-3.8746,0.1361,0.9535,1898.68,1937.74,-1654.42
14700,-3.8746,0.1313,0.9550,1429.93,-1952.88,-1216.92
14710,-3.8746,0.1265,0.9584,820.56,-1765.38,-732.54
14720,-3.8746,0.1239,0.9631,195.56,-1327.88,-263.79
14730,-3.8745,0.1248,0.9673,-132.57,-718.57,220.58
14740,-3.8745,0.1289,0.9697,-23.19,-187.32,595.58
14750,-3.8745,0.1361,0.9697,508.06,125.24,626.89
14760,-3.8745,0.1458,0.9677,1429.93,125.24,439.39
14770,-3.8745,0.1567,0.9641,-1335.69,-140.38,329.96
14780,-3.8745,0.1675,0.9615,70.56,-593.44,267.46
14790,-3.8745,0.1750,0.9617,1445.56,-921.57,126.83
14800,-3.8746,0.1788,0.9620,-1585.69,-905.94,-107.54
14810,-3.8746,0.1793,0.9623,-1101.32,-859.07,-310.67
14820,-3.8746,0.1765,0.9626,-1038.82,-827.82,-341.92
14830,-3.8746,0.1713,0.9628,-1398.19,-780.94,-201.29
14840,-3.8745,0.1646,0.9631,1929.93,-765.32,95.58
14850,-3.8745,0.1595,0.9648,1070.56,-718.44,533.08
14860,-3.8745,0.1599,0.9659,429.93,-499.69,1079.96
14870,-3.8745,0.1649,0.9651,476.81,-359.07,1564.33
14880,-3.8745,0.1730,0.9636,1117.43,-468.44,-1982.54
14890,-3.8745,0.1815,0.9647,-1851.32,-655.94,-1482.54
14900,-3.8745,0.1877,0.9691,-757.57,-515.32,-1045.04
14910,-3.8745,0.1904,0.9758,39.31,47.24,-826.23
14920,-3.8745,0.1906,0.9827,383.06,906.62,-841.86
14930,-3.8745,0.1901,0.9858,398.68,1781.62,-1091.86
14940,-3.8745,0.1899,0.9841,336.18,-1812.13,-1560.61
14950,-3.8745,0.1886,0.9785,320.56,1969.12,1814.39
14960,-3.8745,0.1848,0.9712,148.68,1250.37,1236.27
14970,-3.8745,0.1799,0.9670,-335.69,312.81,908.14
14980,-3.8745,0.1741,0.9691,-960.69,-218.44,829.96
14990,-3.8745,0.1674,0.9747,-1710.69,47.18,923.77
15000,-3.8745,0.1633,0.9794,1429.93,765.93,1220.64
15010,-3.8745,0.1637,0.9818,914.31,1359.68,1580.02
15020,-3.8745,0.1681,0.9814,961.18,1672.18,1892.52
15030,-3.8745,0.1754,0.9768,1523.68,1625.31,-1888.73
15040,-3.8745,0.1824,0.9703,-1538.82,1031.56,-1888.73
15050,-3.8745,0.1868,0.9658,-648.19,203.43,1923.77
15060,-3.8745,0.1898,0.9633,-85.69,-374.69,1767.46
15070,-3.8745,0.1931,0.9620,304.93,-702.76,1751.83
15080,-3.8745,0.1976,0.9620,726.81,-859.01,1767.46
15090,-3.8745,0.2032,0.9614,1304.93,-859.01,1720.58
15100,-3.8745,0.2090,0.9591,-1976.32,-937.13,1642.46
15110,-3.8745,0.2123,0.9576,-1241.94,-1234.01,1533.08
15120,-3.8745,0.2112,0.9596,-820.07,-1421.51,1548.71
15130,-3.8745,0.2058,0.9639,-960.69,-1171.51,1767.46
15140,-3.8745,0.1969,0.9684,-1648.19,-624.63,-1826.29
15150,-3.8745,0.1885,0.9717,1211.18,-46.51,-1435.67
15160,-3.8745,0.1833,0.9733,133.06,375.37,-1326.23
15170,-3.8745,0.1829,0.9735,-523.19,578.43,-1560.61
15180,-3.8745,0.1860,0.9733,-585.69,609.68,-1873.11
15190,-3.8745,0.1887,0.9730,-179.44,578.43,1673.77
15200,-3.8745,0.1895,0.9724,164.31,547.24,986.27
15210,-3.8745,0.1897,0.9713,258.06,469.12,408.14
15220,-3.8746,0.1913,0.9703,289.31,328.49,-13.73
15230,-3.8746,0.1949,0.9692,492.43,203.49,-513.73
15240,-3.8746,0.2002,0.9669,961.18,62.87,-904.36
15250,-3.8746,0.2050,0.9642,1633.06,-234.01,-1013.79
15260,-3.8746,0.2067,0.9629,-1757.57,-577.76,-951.29
15270,-3.8746,0.2050,0.9640,-1538.82,-749.63,-810.67
15280,-3.8746,0.2019,0.9678,-1757.57,-609.01,-466.92
15290,-3.8745,0.1979,0.9722,1851.81,-124.63,48.71
15300,-3.8745,0.1937,0.9746,1336.18,437.87,705.02
15310,-3.8745,0.1902,0.9750,804.93,750.37,1548.77
15320,-3.8745,0.1871,0.9740,351.81,797.24,-1623.11
15330,-3.8745,0.1840,0.9723,-38.82,672.18,-1076.23
15340,-3.8745,0.1819,0.9713,-445.07,453.43,-919.98
15350,-3.8745,0.1829,0.9702,-710.69,328.43,-1154.36
15360,-3.8745,0.1846,0.9670,-585.69,187.81,-1779.36
15370,-3.8745,0.1794,0.9617,-366.94,-218.44,1408.08
15380,-3.8745,0.1677,0.9574,-1023.19,-905.94,642.46
15390,-3.8746,0.1578,0.9563,1476.81,-1452.82,-45.04
15400,-3.8746,0.1499,0.9553,211.18,-1593.44,-404.42
15410,-3.8746,0.1420,0.9550,-804.44,-1718.51,-326.29
15420,-3.8746,0.1376,0.9563,-1820.07,-1765.38,-248.17
15430,-3.8746,0.1375,0.9565,1617.43,-1593.51,-341.92
15440,-3.8746,0.1418,0.9563,1601.81,-1562.26,-420.04
15450,-3.8746,0.1479,0.9551,-1835.69,-1593.51,-685.67
15460,-3.8746,0.1527,0.9523,-1054.44,-1749.76,-1091.92
15470,-3.8746,0.1564,0.9478,-445.07,1890.87,-1451.29
15480,-3.8746,0.1587,0.9425,23.68,1312.81,-1716.92
15490,-3.8746,0.1583,0.9398,320.56,640.93,-1795.04
15500,-3.8746,0.1544,0.9408,273.68,297.18,-1560.67
15510,-3.8746,0.1482,0.9429,-226.32,422.12,-935.67
15520,-3.8746,0.1418,0.9457,-1023.19,687.74,-60.67
15530,-3.8745,0.1362,0.9504,-1835.69,1047.12,845.58
15540,-3.8745,0.1322,0.9540,1445.56,1656.49,1454.96
15550,-3.8745,0.1309,0.9542,929.93,-1890.38,1689.33
15560,-3.8745,0.1324,0.9529,758.06,-1859.13,1783.08
15570,-3.8745,0.1381,0.9523,961.18,1968.99,1798.71
15580,-3.8745,0.1475,0.9536,1679.93,1890.87,1767.46
15590,-3.8745,0.1598,0.9554,-1116.94,-1937.26,1861.21
15600,-3.8745,0.1724,0.9576,461.18,-1702.82,-1888.79
15610,-3.8745,0.1807,0.9609,-1929.44,-1421.57,-1576.29
15620,-3.8745,0.1830,0.9642,-866.94,-999.69,-1232.54
15630,-3.8745,0.1814,0.9661,-570.07,-577.82,-935.67
15640,-3.8745,0.1779,0.9673,-773.19,-343.44,-701.29
15650,-3.8745,0.1743,0.9679,-1226.32,-187.19,-576.29
15660,-3.8745,0.1737,0.9684,-1679.44,-109.07,-498.17
15670,-3.8745,0.1766,0.9694,-1757.57,-46.57,-529.42
15680,-3.8745,0.1816,0.9719,-1382.57,78.43,-544.98
15690,-3.8745,0.1875,0.9762,-741.94,406.56,-466.86
15700,-3.8745,0.1940,0.9806,8.06,953.49,-373.11
15710,-3.8745,0.2024,0.9838,836.18,1515.99,-357.48
15720,-3.8745,0.2112,0.9862,1914.31,1922.24,-326.23
15730,-3.8745,0.2175,0.9889,-960.69,-1765.26,-357.48
15740,-3.8745,0.2207,0.9900,-148.19,-1421.51,-482.48
15750,-3.8745,0.2206,0.9904,258.06,-1280.82,-654.36
15760,-3.8745,0.2177,0.9919,242.43,-1233.95,-935.61
15770,-3.8745,0.2139,0.9950,-132.57,-1030.88,-1138.73
15780,-3.8745,0.2107,0.9980,-616.94,-640.26,-1169.98
15790,-3.8745,0.2083,0.9994,-1023.19,-249.63,-1216.86
15800,-3.8745,0.2067,0.9996,-1335.69,-77.76,-1373.11
15810,-3.8745,0.2057,1.0005,-1538.82,-46.51,-1607.48
15820,-3.8745,0.2067,1.0006,-1663.82,62.87,-1966.80
15830,-3.8745,0.2103,0.9998,-1538.82,78.49,1517.58
15840,-3.8745,0.2150,0.9987,-1070.07,-30.88,814.39
15850,-3.8745,0.2192,0.9951,-476.32,-171.51,64.39
15860,-3.8746,0.2217,0.9893,70.56,-624.57,-685.61
15870,-3.8746,0.2211,0.9838,383.06,-1374.57,-1279.36
15880,-3.8746,0.2181,0.9803,304.93,1922.30,-1623.11
15890,-3.8746,0.2119,0.9811,-70.07,1484.74,-1794.98
15900,-3.8746,0.2004,0.9852,-866.94,1578.49,-1685.61
15910,-3.8746,0.1865,0.9908,1664.31,-1890.26,-1216.86
15920,-3.8746,0.1748,0.9973,-116.94,-1171.57,-685.61
15930,-3.8746,0.1676,1.0018,-1616.94,-343.44,-185.61
15940,-3.8745,0.1667,1.0039,1461.18,234.68,267.58
15950,-3.8745,0.1705,1.0029,1351.81,500.31,626.95
15960,-3.8745,0.1774,0.9968,1836.18,375.31,751.95
15970,-3.8745,0.1866,0.9856,-1288.82,-405.94,517.52
15980,-3.8745,0.1948,0.9720,-101.32,-1843.44,17.52
15990,-3.8746,0.1970,0.9585,945.56,422.24,-701.23
16000,-3.8746,0.1923,0.9489,1226.81,-1312.13,-1388.79
16010,-3.8746,0.1835,0.9470,617.43,1453.49,-1748.17
16020,-3.8746,0.1737,0.9521,-507.57,1219.06,-1513.79
16030,-3.8746,0.1647,0.9594,-1757.57,1875.31,-732.54
16040,-3.8745,0.1567,0.9661,1086.18,-1202.82,236.21
16050,-3.8745,0.1484,0.9730,70.56,-343.44,1095.58
16060,-3.8745,0.1390,0.9796,-991.94,547.12,1861.27
16070,-3.8745,0.1313,0.9827,1804.93,1390.87,-1544.98
16080,-3.8745,0.1289,0.9806,820.56,1781.49,-1232.48
16090,-3.8745,0.1278,0.9739,508.06,1515.87,-1263.73
16100,-3.8745,0.1234,0.9652,367.43,656.49,-1716.86
16110,-3.8745,0.1187,0.9572,-195.07,-452.94,1470.58
16120,-3.8745,0.1188,0.9492,-804.44,-1484.19,392.46
16130,-3.8746,0.1246,0.9436,-788.82,1500.18,-716.92
16140,-3.8746,0.1337,0.9438,-38.82,781.43,-1560.67
16150,-3.8746,0.1414,0.9475,1117.43,812.74,-1951.29
16160,-3.8746,0.1427,0.9496,-1898.19,1281.49,-1966.92
16170,-3.8746,0.1360,0.9501,-1726.32,1547.12,-1779.42
16180,-3.8746,0.1252,0.9514,1414.31,1609.62,-1279.42
16190,-3.8746,0.1166,0.9530,39.31,1781.49,-435.67
16200,-3.8745,0.1127,0.9545,-1070.07,1984.56,611.21
16210,-3.8745,0.1132,0.9573,-1570.07,-1827.94,1642.46
16220,-3.8745,0.1176,0.9590,-1507.57,-1468.57,-1482.54
16230,-3.8745,0.1238,0.9565,-945.07,-1249.82,-1013.79
16240,-3.8745,0.1292,0.9506,-148.19,-1562.32,-998.17
16250,-3.8745,0.1318,0.9453,539.31,1672.12,-1295.04
16260,-3.8745,0.1309,0.9431,883.06,1000.24,-1685.67
16270,-3.8745,0.1270,0.9440,758.06,718.99,1986.21
16280,-3.8745,0.1245,0.9467,258.06,828.37,1579.96
16290,-3.8745,0.1257,0.9496,-54.44,1172.06,1189.33
16300,-3.8745,0.1310,0.9532,101.81,1547.12,1111.21
16310,-3.8745,0.1398,0.9578,773.68,-1984.13,1345.58
16320,-3.8745,0.1495,0.9602,1898.68,-1406.01,1642.46
16330,-3.8745,0.1586,0.9596,-851.32,-1093.51,1923.71
16340,-3.8745,0.1654,0.9568,304.93,-1171.57,-1795.04
16350,-3.8745,0.1699,0.9509,1179.93,-1530.94,-1779.42
16360,-3.8745,0.1733,0.9419,1758.06,1719.06,1908.08
16370,-3.8745,0.1758,0.9308,-1804.44,562.81,1533.08
16380,-3.8745,0.1770,0.9189,-1491.94,-859.07,1236.15
16390,-3.8745,0.1774,0.9076,-1335.69,1625.31,1079.90
16400,-3.8745,0.1775,0.8988,-1288.82,172.18,1033.02
16410,-3.8745,0.1777,0.8939,-1273.19,-952.82,1095.46
16420,-3.8745,0.1774,0.8934,-1241.94,-1577.82,1345.46
16430,-3.8745,0.1747,0.8969,-1288.82,-1640.32,1798.58
16440,-3.8745,0.1707,0.9034,-1632.57,-1202.82,-1670.17
16450,-3.8745,0.1660,0.9131,1851.81,-359.07,-1185.79
16460,-3.8745,0.1611,0.9249,1258.06,875.31,-795.10
16470,-3.8745,0.1580,0.9353,633.06,-1609.07,-498.23
16480,-3.8745,0.1576,0.9412,226.81,-280.94,-310.73
16490,-3.8745,0.1597,0.9454,179.93,469.06,-326.29
16500,-3.8745,0.1619,0.9532,445.56,1015.93,-466.92
16510,-3.8745,0.1626,0.9641,726.81,-1984.07,-498.17
16520,-3.8745,0.1643,0.9752,820.56,-593.44,-326.29
16530,-3.8745,0.1689,0.9849,1039.31,828.43,-60.61
16540,-3.8744,0.1757,0.9902,1633.06,-1937.19,111.27
16550,-3.8744,0.1837,0.9905,-1507.57,-1249.69,220.64
16560,-3.8744,0.1941,0.9877,-476.32,-1218.44,251.89
16570,-3.8745,0.2063,0.9810,851.81,-1577.76,-13.73
16580,-3.8745,0.2184,0.9707,-1585.69,1562.87,-623.11
16590,-3.8745,0.2268,0.9618,-38.82,250.37,-1669.98
16600,-3.8745,0.2274,0.9586,1039.31,-890.20,829.96
16610,-3.8746,0.2184,0.9641,1117.43,-1296.45,-732.54
16620,-3.8746,0.2023,0.9791,-38.82,-593.38,-1685.67
16630,-3.8746,0.1854,0.9985,1898.68,1328.49,-1888.73
16640,-3.8746,0.1736,1.0156,-257.57,-187.19,-1607.48
16650,-3.8746,0.1707,1.0244,-1773.19,-1999.69,-982.42
16660,-3.8746,0.1788,1.0204,1851.81,-874.69,-232.42
16670,-3.8745,0.1960,1.0067,-1101.32,-1390.32,361.33
16680,-3.8745,0.2161,0.9889,1101.81,859.74,533.20
16690,-3.8745,0.2327,0.9719,-335.69,-1421.51,158.14
16700,-3.8746,0.2419,0.9600,1789.31,406.68,-623.11
16710,-3.8746,0.2419,0.9568,-1023.19,-1124.57,-1420.04
16720,-3.8746,0.2330,0.9650,-1023.19,-1530.82,-1873.17
16730,-3.8746,0.2167,0.9813,1836.18,-483.95,-1888.79
16740,-3.8746,0.1962,1.0005,-257.57,1609.74,-1388.73
16750,-3.8746,0.1766,1.0186,1117.43,62.87,-294.92
16760,-3.8745,0.1667,1.0291,-1382.57,-1624.69,1236.33
16770,-3.8745,0.1691,1.0291,1351.81,-280.94,-1294.92
16780,-3.8744,0.1786,1.0234,1648.68,-280.94,1.95
16790,-3.8744,0.1920,1.0143,-1132.57,-999.69,986.33
16800,-3.8744,0.2084,0.9991,586.18,1828.49,1220.70
16810,-3.8744,0.2274,0.9790,-1320.07,-109.01,548.77
16820,-3.8745,0.2450,0.9617,1117.43,1312.93,-482.48
16830,-3.8745,0.2577,0.9519,-632.57,-905.82,-1701.29
16840,-3.8745,0.2640,0.9487,992.43,1844.24,1064.33
16850,-3.8745,0.2616,0.9518,1804.93,1437.99,486.21
16860,-3.8745,0.2499,0.9596,1492.43,1828.61,892.46
16870,-3.8745,0.2312,0.9677,-7.57,-1171.45,1954.96
16880,-3.8745,0.2118,0.9731,1601.81,-140.20,-701.29
16890,-3.8744,0.1978,0.9762,-882.57,562.87,376.89
16900,-3.8744,0.1891,0.9791,1320.56,953.49,767.52
16910,-3.8744,0.1821,0.9835,211.18,1328.49,658.14
16920,-3.8744,0.1768,0.9880,-679.44,1890.93,267.52
16930,-3.8745,0.1731,0.9896,-1366.94,-1530.94,-451.23
16940,-3.8745,0.1709,0.9883,-1835.69,-1327.82,-1498.11
16950,-3.8745,0.1721,0.9866,1883.06,-1499.69,1220.64
16960,-3.8746,0.1787,0.9849,-1960.69,-1718.44,-154.36
16970,-3.8746,0.1898,0.9829,-1116.94,-1937.19,-1279.36
16980,-3.8746,0.2007,0.9828,304.93,1812.87,-1888.73
16990,-3.8746,0.2072,0.9858,1695.56,1797.24,1986.27
17000,-3.8746,0.2065,0.9917,-1476.32,-1812.13,-1732.48
17010,-3.8746,0.2001,0.9963,-1554.44,-1062.13,-1107.48
17020,-3.8746,0.1908,0.9952,1617.43,-468.38,-404.36
17030,-3.8745,0.1804,0.9884,429.93,-609.01,64.39
17040,-3.8745,0.1725,0.9789,-898.19,-1484.07,220.64
17050,-3.8745,0.1689,0.9702,-1913.82,1297.18,455.02
17060,-3.8745,0.1685,0.9644,1633.06,187.81,767.52
17070,-3.8745,0.1688,0.9623,1570.56,-562.19,1111.21
17080,-3.8745,0.1686,0.9624,1617.43,-827.82,1704.96
17090,-3.8745,0.1671,0.9629,1586.18,-812.19,-1748.17
17100,-3.8745,0.1652,0.9628,1398.68,-749.69,-1482.54
17110,-3.8745,0.1621,0.9623,1148.68,-765.32,-1466.92
17120,-3.8745,0.1594,0.9622,758.06,-827.82,-1591.92
17130,-3.8745,0.1582,0.9631,414.31,-843.44,-1560.67
17140,-3.8745,0.1576,0.9641,258.06,-718.44,-1248.17
17150,-3.8745,0.1587,0.9625,179.93,-593.44,-748.17
17160,-3.8745,0.1630,0.9597,320.56,-796.57,-263.79
17170,-3.8744,0.1687,0.9584,867.43,-1155.94,33.08
17180,-3.8744,0.1737,0.9578,1601.81,-1327.82,64.33
17190,-3.8745,0.1764,0.9580,-1757.57,-1405.94,-60.67
17200,-3.8745,0.1772,0.9594,-1413.82,-1374.69,-310.67
17210,-3.8745,0.1770,0.9626,-1304.44,-1202.82,-670.04
17220,-3.8745,0.1737,0.9674,-1335.69,-780.94,-873.17
17230,-3.8745,0.1675,0.9723,-1757.57,-171.57,-795.04
17240,-3.8745,0.1615,0.9751,1445.56,453.43,-498.11
17250,-3.8745,0.1591,0.9725,679.93,812.81,-154.36
17260,-3.8744,0.1636,0.9651,367.43,484.68,17.52
17270,-3.8745,0.1731,0.9563,945.56,-468.44,-107.54
17280,-3.8745,0.1820,0.9471,-1835.69,-1593.44,-545.04
17290,-3.8745,0.1868,0.9386,-695.07,1234.68,-1248.17
17300,-3.8745,0.1869,0.9332,-85.69,140.93,-1888.79
17310,-3.8745,0.1820,0.9321,-70.07,-546.57,1798.65
17320,-3.8745,0.1732,0.9348,-695.07,-687.19,1689.27
17330,-3.8745,0.1631,0.9427,-1820.07,-343.44,1783.02
17340,-3.8745,0.1523,0.9547,883.06,672.18,-1841.92
17350,-3.8745,0.1427,0.9664,-491.94,-1796.63,-1170.04
17360,-3.8745,0.1383,0.9750,-1726.32,-296.63,-310.67
17370,-3.8744,0.1400,0.9796,1711.18,797.12,298.77
17380,-3.8744,0.1453,0.9823,1929.93,1390.87,392.52
17390,-3.8745,0.1525,0.9846,-1398.19,1734.62,-13.73
17400,-3.8745,0.1615,0.9855,-476.32,-1968.51,-810.61
17410,-3.8745,0.1709,0.9856,679.93,-1859.07,-1794.98
17420,-3.8745,0.1790,0.9840,1883.06,-1843.44,1236.27
17430,-3.8745,0.1859,0.9784,-1085.69,1953.43,376.89
17440,-3.8746,0.1917,0.9701,-195.07,1234.68,-435.61
17450,-3.8746,0.1948,0.9645,539.31,172.24,-1169.98
17460,-3.8746,0.1943,0.9659,945.56,-546.51,-1420.04
17470,-3.8746,0.1917,0.9747,883.06,-359.01,-779.42
17480,-3.8745,0.1891,0.9856,539.31,765.99,689.39
17490,-3.8745,0.1876,0.9937,211.18,-1843.38,-1560.61
17500,-3.8745,0.1892,0.9967,23.68,-812.13,-123.11
17510,-3.8744,0.1938,0.9945,226.81,-421.51,705.02
17520,-3.8744,0.1991,0.9891,820.56,-702.76,1017.52
17530,-3.8744,0.2036,0.9814,1492.43,-1390.26,783.14
17540,-3.8744,0.2050,0.9705,-1929.44,1625.37,173.77
17550,-3.8745,0.2008,0.9595,-1757.57,219.12,-419.98
17560,-3.8745,0.1932,0.9552,1711.18,-1187.13,-763.79
17570,-3.8745,0.1863,0.9579,742.43,-1734.01,-638.79
17580,-3.8745,0.1798,0.9617,-148.19,-1390.32,-248.17
17590,-3.8744,0.1757,0.9647,-976.32,-905.94,126.83
17600,-3.8744,0.1776,0.9686,-1507.57,-515.32,283.08
17610,-3.8744,0.1843,0.9735,-1257.57,-15.32,298.71
17620,-3.8744,0.1906,0.9794,-398.19,609.68,173.77
17630,-3.8745,0.1932,0.9866,398.68,1359.74,-60.61
17640,-3.8745,0.1936,0.9945,742.43,-1718.38,-169.98
17650,-3.8745,0.1937,0.9989,789.31,-702.76,-138.73
17660,-3.8745,0.1963,0.9965,804.93,-140.26,-341.86
17670,-3.8745,0.2018,0.9899,1133.06,-452.76,-1044.98
17680,-3.8745,0.2057,0.9825,1836.18,-1296.51,-1935.61
17690,-3.8745,0.2068,0.9763,-1663.82,1765.99,1251.89
17700,-3.8745,0.2068,0.9718,-1523.19,969.12,501.89
17710,-3.8745,0.2036,0.9695,-1523.19,390.99,17.52
17720,-3.8746,0.1965,0.9685,-1929.44,94.12,-91.86
17730,-3.8745,0.1877,0.9694,1164.31,-30.88,173.71
17740,-3.8745,0.1793,0.9730,39.31,78.49,845.64
17750,-3.8745,0.1719,0.9786,-1038.82,547.18,1689.39
17760,-3.8745,0.1665,0.9829,-1991.94,1265.93,-1482.48
17770,-3.8745,0.1646,0.9838,1320.56,1812.81,-919.98
17780,-3.8745,0.1646,0.9814,1070.56,1922.18,-701.23
17790,-3.8745,0.1647,0.9777,1070.56,1625.31,-654.36
17800,-3.8745,0.1637,0.9736,1086.18,1140.93,-701.23
17810,-3.8745,0.1621,0.9679,961.18,625.31,-1029.36
17820,-3.8745,0.1616,0.9615,758.06,-109.07,-1638.79
17830,-3.8745,0.1622,0.9574,695.56,-921.57,1673.71
17840,-3.8745,0.1632,0.9546,773.68,-1452.82,1095.58
17850,-3.8745,0.1656,0.9524,898.68,-1812.19,845.58
17860,-3.8745,0.1680,0.9541,1211.18,1906.56,892.46
17870,-3.8745,0.1678,0.9604,1508.06,-1874.69,1267.46
17880,-3.8745,0.1666,0.9675,1492.43,-1062.19,-1982.54
17890,-3.8745,0.1656,0.9709,1336.18,-155.94,-1185.67
17900,-3.8745,0.1646,0.9700,1211.18,281.56,-732.48
17910,-3.8745,0.1610,0.9680,1070.56,156.56,-841.86
17920,-3.8745,0.1559,0.9666,617.43,-93.44,-1232.54
17930,-3.8745,0.1527,0.9637,-38.82,-281.01,-1560.67
17940,-3.8745,0.1525,0.9596,-445.07,-640.38,-1810.67
17950,-3.8745,0.1539,0.9574,-476.32,-1171.63,1923.71
17960,-3.8745,0.1560,0.9612,-288.82,-1452.88,1642.46
17970,-3.8745,0.1581,0.9685,-23.19,-968.51,1564.33
17980,-3.8745,0.1619,0.9744,242.43,-30.94,1689.33
17990,-3.8745,0.1687,0.9773,726.81,719.06,1751.89
18000,-3.8745,0.1771,0.9762,1601.81,1094.06,1658.14
18010,-3.8745,0.1847,0.9745,-1320.07,953.43,1517.52
18020,-3.8745,0.1888,0.9758,-351.32,734.68,1439.39
18030,-3.8745,0.1880,0.9773,179.93,906.62,1548.77
18040,-3.8745,0.1855,0.9752,70.56,1094.12,-1951.23
18050,-3.8745,0.1842,0.9688,-241.94,828.43,-1404.36
18060,-3.8745,0.1820,0.9603,-413.82,0.31,-1216.86
18070,-3.8745,0.1779,0.9532,-695.07,-1077.82,-1310.67
18080,-3.8745,0.1715,0.9500,-1226.32,-1984.07,-1388.79
18090,-3.8745,0.1647,0.9495,1961.18,1594.06,-1357.54
18100,-3.8745,0.1605,0.9496,1086.18,1531.56,-1232.54
18110,-3.8745,0.1603,0.9493,554.93,1547.18,-1060.67
18120,-3.8745,0.1632,0.9485,523.68,1515.93,-935.67
18130,-3.8745,0.1672,0.9503,898.68,1406.56,-826.29
18140,-3.8745,0.1718,0.9552,1414.31,1640.93,-779.42
18150,-3.8745,0.1761,0.9583,1992.43,-1734.07,-716.92
18160,-3.8745,0.1803,0.9561,-1445.07,-1343.44,-576.29
18170,-3.8745,0.1824,0.9517,-913.82,-1624.69,-560.67
18180,-3.8745,0.1824,0.9481,-648.19,1812.81,-748.17
18190,-3.8745,0.1819,0.9447,-648.19,1359.68,-841.92
18200,-3.8745,0.1818,0.9403,-710.69,922.18,-591.92
18210,-3.8745,0.1815,0.9355,-726.32,359.68,-279.42
18220,-3.8745,0.1807,0.9315,-757.57,-249.69,-76.35
18230,-3.8744,0.1796,0.9287,-866.94,-765.32,158.02
18240,-3.8744,0.1772,0.9276,-1007.57,-1124.69,423.65
18250,-3.8744,0.1738,0.9294,-1304.44,-1265.32,845.52
18260,-3.8744,0.1715,0.9336,-1741.94,-1030.94,1376.77
18270,-3.8744,0.1716,0.9373,1961.18,-499.69,1720.52
18280,-3.8744,0.1719,0.9399,1976.81,-30.94,1814.27
18290,-3.8744,0.1703,0.9451,-1991.94,312.81,1720.58
18300,-3.8744,0.1669,0.9547,1804.93,969.06,1548.71
18310,-3.8744,0.1609,0.9686,1367.43,-1796.57,1361.21
18320,-3.8744,0.1530,0.9867,601.81,-15.32,1033.08
18330,-3.8744,0.1444,1.0054,-413.82,-1702.88,361.27
18340,-3.8745,0.1356,1.0231,-1507.57,687.74,-607.42
18350,-3.8745,0.1281,1.0404,1367.43,-1046.63,-1591.80
18360,-3.8745,0.1251,1.0563,398.68,1172.12,1611.39
18370,-3.8745,0.1295,1.0664,23.68,-796.63,1127.01
18380,-3.8745,0.1426,1.0643,586.18,500.24,752.08
18390,-3.8745,0.1630,1.0472,-1741.94,234.62,17.70
18400,-3.8746,0.1858,1.0165,867.43,-1952.82,-1247.99
18410,-3.8746,0.2051,0.9784,-210.69,-1890.32,1236.33
18420,-3.8748,0.2168,0.9423,-1741.94,1234.74,-123.11
18430,-3.8748,0.2191,0.9133,-241.94,609.74,-1060.67
18440,-3.8748,0.2125,0.8921,54.93,906.68,-1154.48
18450,-3.8748,0.2002,0.8785,-788.82,-1812.13,-232.67
18460,-3.8746,0.1863,0.8738,1633.06,453.49,1314.21
18470,-3.8746,0.1730,0.8771,-148.19,-155.94,-592.10
18480,-3.8745,0.1604,0.8853,-1851.32,265.93,1939.21
18490,-3.8744,0.1484,0.8943,539.31,1312.81,407.96
18500,-3.8744,0.1367,0.9037,-991.94,-1531.01,-1326.42
18510,-3.8743,0.1254,0.9188,1508.06,-327.88,751.71
18520,-3.8743,0.1162,0.9417,54.93,1609.62,-1388.85
18530,-3.8741,0.1136,0.9672,-1116.94,531.43,283.08
18540,-3.8741,0.1211,0.9897,-1445.07,-202.94,1486.21
18550,-3.8741,0.1379,1.0073,-491.94,-1312.32,1830.02
18560,-3.8741,0.1605,1.0192,1664.31,937.74,923.83
18570,-3.8743,0.1841,1.0233,554.93,-1546.57,-1232.42
18580,-3.8744,0.2045,1.0217,-429.44,-1015.32,-44.92
18590,-3.8744,0.2194,1.0190,-1820.07,-1218.38,1017.58
18600,-3.8745,0.2290,1.0165,86.18,-1562.07,-1638.67
18610,-3.8745,0.2341,1.0121,1320.56,-1890.20,267.58
18620,-3.8746,0.2352,1.0038,1976.81,1547.30,-1044.92
18630,-3.8746,0.2307,0.9921,-1882.57,484.80,-1591.80
18640,-3.8746,0.2186,0.9785,1539.31,-1015.20,-1732.48
18650,-3.8746,0.1986,0.9655,-7.57,1250.37,-1513.73
18660,-3.8746,0.1729,0.9532,1429.93,-421.51,-935.67
18670,-3.8746,0.1478,0.9419,-1866.94,-1984.07,-138.79
18680,-3.8745,0.1289,0.9354,-1070.07,562.74,1033.08
18690,-3.8745,0.1171,0.9352,508.06,-265.38,-1482.60
18700,-3.8745,0.1119,0.9388,-1007.57,-296.69,-13.85
18710,-3.8744,0.1130,0.9430,-1663.82,172.06,1220.58
18720,-3.8744,0.1191,0.9458,-1523.19,703.31,-1982.54
18730,-3.8744,0.1265,0.9489,-741.94,1062.68,-1466.92
18740,-3.8744,0.1324,0.9547,195.56,1453.37,-1107.54
18750,-3.8744,0.1392,0.9620,961.18,-1796.63,-1045.04
18760,-3.8744,0.1475,0.9685,1820.56,-859.13,-1091.92
18770,-3.8744,0.1565,0.9733,-1116.94,-31.01,-1170.04
18780,-3.8744,0.1659,0.9774,39.31,578.43,-1357.48
18790,-3.8744,0.1757,0.9805,1242.43,1109.68,-1404.36
18800,-3.8744,0.1843,0.9819,-1507.57,1500.31,-1279.36
18810,-3.8744,0.1902,0.9828,-398.19,1687.81,-1044.98
18820,-3.8744,0.1917,0.9835,351.81,1797.24,-888.73
18830,-3.8744,0.1901,0.9834,539.31,1890.99,-935.61
18840,-3.8744,0.1882,0.9823,336.18,1875.37,-982.48
18850,-3.8744,0.1862,0.9797,101.81,1734.74,-1185.61
18860,-3.8744,0.1838,0.9756,-163.82,1406.56,-1544.98
18870,-3.8744,0.1794,0.9702,-460.69,875.31,-1904.36
18880,-3.8744,0.1727,0.9647,-1023.19,187.81,1814.39
18890,-3.8744,0.1655,0.9608,-1882.57,-515.32,1689.33
18900,-3.8744,0.1586,0.9575,1195.56,-1015.32,1595.58
18910,-3.8744,0.1527,0.9537,304.93,-1437.19,1439.33
18920,-3.8744,0.1488,0.9506,-445.07,-1921.63,1220.58
18930,-3.8744,0.1472,0.9493,-945.07,1672.12,829.96
18940,-3.8744,0.1471,0.9504,-1148.19,1515.87,470.58
18950,-3.8744,0.1479,0.9543,-1163.82,1656.49,158.08
18960,-3.8745,0.1497,0.9597,-1054.44,-1843.51,-76.29
18970,-3.8745,0.1520,0.9645,-835.69,-1156.01,-138.79
18980,-3.8745,0.1545,0.9661,-538.82,-546.63,-201.29
18990,-3.8745,0.1562,0.9650,-210.69,-343.51,-341.92
19000,-3.8745,0.1555,0.9647,8.06,-484.07,-560.67
19010,-3.8745,0.1532,0.9663,-85.69,-515.38,-779.42
19020,-3.8745,0.1514,0.9680,-382.57,-312.26,-982.54
19030,-3.8745,0.1511,0.9683,-616.94,-93.51,-1185.67
19040,-3.8745,0.1530,0.9689,-648.19,-62.26,-1482.54
19050,-3.8745,0.1556,0.9703,-413.82,15.87,-1826.23
19060,-3.8745,0.1571,0.9720,-70.07,203.37,1970.64
19070,-3.8745,0.1571,0.9728,117.43,422.18,1923.77
19080,-3.8745,0.1554,0.9716,117.43,515.93,-1982.48
19090,-3.8745,0.1532,0.9712,-101.32,359.62,-1638.73
19100,-3.8745,0.1520,0.9718,-382.57,312.74,-1044.98
19110,-3.8745,0.1525,0.9711,-538.82,390.87,-373.11
19120,-3.8744,0.1542,0.9681,-476.32,297.12,251.89
19130,-3.8744,0.1577,0.9633,-257.57,-77.88,642.46
19140,-3.8744,0.1625,0.9596,195.56,-702.82,861.21
19150,-3.8744,0.1665,0.9589,804.93,-1171.57,1017.46
19160,-3.8744,0.1689,0.9600,1320.56,-1265.32,1142.46
19170,-3.8744,0.1698,0.9609,1633.06,-1124.69,1283.08
19180,-3.8744,0.1683,0.9603,1742.43,-999.69,1595.58
19190,-3.8744,0.1646,0.9611,1554.93,-1077.82,1986.21
19200,-3.8744,0.1588,0.9650,1070.56,-984.07,-1716.92
19210,-3.8744,0.1525,0.9698,336.18,-484.07,-1326.29
19220,-3.8744,0.1475,0.9739,-476.32,140.87,-873.11
19230,-3.8744,0.1476,0.9766,-1116.94,656.49,-654.36
19240,-3.8744,0.1538,0.9777,-1101.32,1000.24,-544.98
19250,-3.8744,0.1630,0.9783,-304.44,1140.87,-388.73
19260,-3.8744,0.1724,0.9805,867.43,1219.06,-91.86
19270,-3.8743,0.1812,0.9834,-1929.44,1500.31,298.77
19280,-3.8743,0.1881,0.9841,-804.44,1875.31,673.77
19290,-3.8743,0.1930,0.9816,86.18,1969.12,955.02
19300,-3.8743,0.1963,0.9767,711.18,1640.99,1111.27
19310,-3.8743,0.1975,0.9713,1133.06,1015.99,1111.27
19320,-3.8743,0.1951,0.9663,1289.31,328.49,1095.64
19330,-3.8743,0.1887,0.9624,976.81,-312.13,1142.46
19340,-3.8743,0.1813,0.9598,164.31,-812.13,1142.46
19350,-3.8743,0.1754,0.9574,-788.82,-1140.32,1095.58
19360,-3.8743,0.1714,0.9556,-1538.82,-1452.82,892.46
19370,-3.8743,0.1694,0.9543,1945.56,-1687.19,517.46
19380,-3.8743,0.1686,0.9532,1695.56,-1843.44,142.46
19390,-3.8744,0.1678,0.9517,1586.18,-1984.07,-216.92
19400,-3.8744,0.1661,0.9502,1492.43,1812.81,-732.54
19410,-3.8744,0.1621,0.9506,1273.68,1625.31,-1420.04
19420,-3.8744,0.1564,0.9517,758.06,1672.18,1876.83
19430,-3.8744,0.1501,0.9525,23.68,1812.81,1079.96
19440,-3.8744,0.1450,0.9528,-773.19,1922.12,251.83
19450,-3.8745,0.1417,0.9514,-1429.44,1953.37,-482.54
19460,-3.8745,0.1411,0.9487,-1851.32,1781.49,-1216.92
19470,-3.8745,0.1436,0.9487,-1929.44,1437.74,1986.21
19480,-3.8745,0.1476,0.9514,-1616.94,1437.74,1204.96
19490,-3.8745,0.1520,0.9534,-1101.32,1781.49,658.08
19500,-3.8745,0.1559,0.9535,-538.82,-1968.51,423.71
19510,-3.8745,0.1589,0.9521,-38.82,-1952.88,329.96
19520,-3.8745,0.1589,0.9504,351.81,1875.31,251.83
19530,-3.8745,0.1559,0.9510,351.81,1656.56,236.21
19540,-3.8745,0.1510,0.9539,-38.82,1734.62,501.83
19550,-3.8745,0.1466,0.9561,-663.82,-1906.01,908.08
19560,-3.8745,0.1451,0.9561,-1226.32,-1624.76,1251.83
19570,-3.8745,0.1473,0.9534,-1413.82,-1624.76,1548.71
19580,-3.8745,0.1500,0.9489,-1132.57,-1968.51,1736.21
19590,-3.8745,0.1514,0.9456,-788.82,1453.37,1876.83
19600,-3.8745,0.1522,0.9457,-616.94,1031.49,-1935.67
19610,-3.8745,0.1534,0.9486,-507.57,1047.12,-1716.92
19620,-3.8745,0.1560,0.9526,-351.32,1422.12,-1498.17
19630,-3.8745,0.1592,0.9556,-23.19,1937.74,-1279.42
19640,-3.8745,0.1613,0.9567,383.06,-1687.19,-966.92
19650,-3.8745,0.1625,0.9573,648.68,-1546.57,-623.17
19660,-3.8745,0.1633,0.9581,804.93,-1468.44,-185.67
19670,-3.8744,0.1646,0.9587,914.31,-1359.07,517.46
19680,-3.8744,0.1663,0.9580,1070.56,-1280.94,1142.46
19690,-3.8744,0.1681,0.9559,1289.31,-1374.69,1533.08
19700,-3.8744,0.1702,0.9534,1523.68,-1640.32,1861.21
19710,-3.8744,0.1710,0.9523,1789.31,-1968.44,-1935.67
19720,-3.8744,0.1685,0.9534,1898.68,1890.93,-1920.04
19730,-3.8744,0.1635,0.9536,1570.56,-1968.44,1970.58
19740,-3.8744,0.1577,0.9523,929.93,-1937.19,1783.08
19750,-3.8744,0.1516,0.9509,195.56,1890.93,1392.46
19760,-3.8744,0.1464,0.9519,-585.69,1718.99,892.46
19770,-3.8744,0.1451,0.9558,-1257.57,1843.99,470.58
19780,-3.8744,0.1498,0.9614,-1413.82,-1656.01,376.83
19790,-3.8744,0.1588,0.9670,-820.07,-937.26,783.08
19800,-3.8744,0.1700,0.9724,336.18,-218.44,1329.96
19810,-3.8744,0.1812,0.9774,1773.68,469.06,1986.27
19820,-3.8744,0.1893,0.9800,-804.44,1109.68,-1419.98
19830,-3.8744,0.1936,0.9778,242.43,1437.87,-1294.98
19840,-3.8744,0.1942,0.9735,789.31,1156.62,-1623.11
19850,-3.8744,0.1906,0.9690,867.43,609.74,1923.77
19860,-3.8744,0.1841,0.9639,398.68,31.62,1533.14
19870,-3.8744,0.1770,0.9606,-429.44,-624.69,1251.83
19880,-3.8744,0.1714,0.9607,-1335.69,-1046.57,1173.71
19890,-3.8744,0.1718,0.9617,1945.56,-1030.94,1220.58
19900,-3.8744,0.1792,0.9633,1992.43,-905.94,1314.33
19910,-3.8744,0.1902,0.9661,-1054.44,-702.82,1486.21
19920,-3.8744,0.1998,0.9711,351.81,-343.38,1704.96
19930,-3.8744,0.2052,0.9766,1586.18,297.24,1955.02
19940,-3.8744,0.2067,0.9784,-1726.32,1000.37,-1826.23
19950,-3.8744,0.2045,0.9761,-1538.82,1234.74,-1685.61
19960,-3.8744,0.1991,0.9725,-1820.07,937.87,-1701.23
19970,-3.8744,0.1915,0.9697,1492.43,484.74,-1966.86
19980,-3.8744,0.1841,0.9685,523.68,125.37,1580.02
19990,-3.8744,0.1785,0.9688,-429.44,-30.94,1142.46
20000,-3.8744,0.1760,0.9698,-1148.19,0.31,705.02
20010,-3.8744,0.1764,0.9717,-1460.69,140.93,236.27
20020,-3.8745,0.1787,0.9753,-1413.82,375.31,-44.98
20030,-3.8745,0.1824,0.9797,-1116.94,844.06,-107.48
20040,-3.8745,0.1860,0.9843,-648.19,1406.56,-91.86
20050,-3.8744,0.1891,0.9866,-179.44,1984.68,158.14
20060,-3.8744,0.1919,0.9841,211.18,-1718.38,423.77
20070,-3.8744,0.1930,0.9785,570.56,1969.12,548.77
20080,-3.8744,0.1897,0.9730,711.18,1250.37,392.52
20090,-3.8745,0.1831,0.9698,289.31,547.24,-44.98
20100,-3.8745,0.1759,0.9675,-554.44,140.93,-544.98
20110,-3.8745,0.1696,0.9637,-1476.32,-155.94,-1091.92
20120,-3.8745,0.1636,0.9608,1711.18,-640.32,-1435.67
20130,-3.8745,0.1580,0.9617,945.56,-1015.32,-1529.42
20140,-3.8745,0.1538,0.9653,226.81,-905.94,-1388.79
20150,-3.8745,0.1534,0.9681,-304.44,-437.26,-1076.29
20160,-3.8745,0.1576,0.9679,-351.32,-77.88,-795.04
20170,-3.8745,0.1644,0.9669,179.93,-109.07,-638.79
20180,-3.8745,0.1707,0.9659,1054.93,-234.07,-482.54
20190,-3.8745,0.1741,0.9634,1851.81,-359.07,-310.67
20200,-3.8745,0.1730,0.9611,-1710.69,-687.19,-216.92
20210,-3.8745,0.1675,0.9615,-1851.32,-984.07,-170.04
20220,-3.8744,0.1605,0.9636,1445.56,-921.57,1.83
20230,-3.8744,0.1556,0.9639,554.93,-655.94,329.96
20240,-3.8744,0.1538,0.9628,-70.07,-624.76,720.58
20250,-3.8744,0.1538,0.9628,-304.44,-765.38,1095.58
20260,-3.8744,0.1542,0.9636,-304.44,-765.38,1439.33
20270,-3.8744,0.1543,0.9633,-257.57,-656.01,1642.46
20280,-3.8744,0.1545,0.9624,-241.94,-702.88,1673.71
20290,-3.8744,0.1531,0.9628,-210.69,-812.26,1533.08
20300,-3.8744,0.1494,0.9646,-398.19,-765.38,1173.71
20310,-3.8744,0.1473,0.9656,-866.94,-531.01,736.21
20320,-3.8744,0.1493,0.9642,-1132.57,-406.01,189.33
20330,-3.8745,0.1522,0.9618,-882.57,-577.88,-466.92
20340,-3.8745,0.1536,0.9597,-507.57,-890.38,-1013.79
20350,-3.8745,0.1515,0.9600,-335.69,-1156.01,-1248.17
20360,-3.8745,0.1459,0.9617,-601.32,-1124.76,-1185.67
20370,-3.8745,0.1415,0.9623,-1320.07,-906.01,-966.92
20380,-3.8745,0.1411,0.9628,-1882.57,-827.88,-654.42
20390,-3.8745,0.1440,0.9630,-1929.44,-765.38,-388.79
20400,-3.8745,0.1489,0.9622,-1554.44,-734.13,-404.42
20410,-3.8745,0.1525,0.9613,-929.44,-843.51,-638.79
20420,-3.8745,0.1519,0.9622,-476.32,-952.88,-857.54
20430,-3.8745,0.1479,0.9652,-554.44,-843.51,-951.29
20440,-3.8745,0.1433,0.9688,-1054.44,-452.88,-873.17
20450,-3.8745,0.1410,0.9707,-1648.19,0.24,-607.48
20460,-3.8745,0.1431,0.9708,-1945.07,250.24,-513.73
20470,-3.8745,0.1490,0.9700,-1679.44,265.87,-701.23
20480,-3.8745,0.1565,0.9697,-913.82,156.49,-826.23
20490,-3.8745,0.1637,0.9692,39.31,125.31,-919.98
20500,-3.8745,0.1688,0.9669,961.18,62.81,-951.23
20510,-3.8745,0.1707,0.9639,1617.43,-234.07,-810.67
20520,-3.8745,0.1688,0.9609,1851.81,-624.69,-638.79
20530,-3.8745,0.1647,0.9581,1617.43,-999.69,-513.79
20540,-3.8745,0.1594,0.9554,1086.18,-1359.07,-482.54
20550,-3.8745,0.1525,0.9534,414.31,-1702.82,-482.54
20560,-3.8745,0.1455,0.9525,-476.32,-1968.51,-576.29
20570,-3.8745,0.1423,0.9531,-1366.94,1922.12,-732.54
20580,-3.8745,0.1428,0.9574,-1773.19,-1999.76,-732.54
20590,-3.8745,0.1467,0.9650,-1710.69,-1452.88,-591.92
20600,-3.8745,0.1536,0.9731,-1210.69,-484.13,-529.42
20610,-3.8745,0.1622,0.9786,-335.69,562.74,-560.61
20620,-3.8745,0.1719,0.9802,773.68,1265.93,-763.73
20630,-3.8745,0.1793,0.9788,-1991.94,1469.06,-1091.86
20640,-3.8745,0.1824,0.9757,-1038.82,1281.56,-1560.61
20650,-3.8745,0.1818,0.9719,-648.19,890.93,1970.64
20660,-3.8745,0.1785,0.9688,-726.32,406.56,1642.52
20670,-3.8745,0.1737,0.9681,-1148.19,0.31,1501.89
20680,-3.8745,0.1714,0.9689,-1757.57,-77.82,1548.71
20690,-3.8745,0.1719,0.9697,1945.56,15.93,1845.64
20700,-3.8745,0.1730,0.9714,-1991.94,125.31,-1685.61
20710,-3.8745,0.1735,0.9730,-1851.32,344.06,-1232.48
20720,-3.8745,0.1715,0.9735,-1788.82,547.18,-873.11
20730,-3.8745,0.1663,0.9729,1961.18,609.68,-748.11
20740,-3.8745,0.1593,0.9709,1289.31,531.56,-810.61
20750,-3.8745,0.1532,0.9686,398.68,281.56,-966.86
20760,-3.8745,0.1505,0.9670,-382.57,-15.38,-1076.29
20770,-3.8745,0.1515,0.9666,-726.32,-218.51,-1091.92
20780,-3.8745,0.1532,0.9678,-601.32,-281.01,-1248.17
20790,-3.8745,0.1545,0.9695,-382.57,-124.76,-1498.17
20800,-3.8745,0.1565,0.9711,-210.69,93.99,-1716.86
20810,-3.8745,0.1604,0.9720,39.31,297.18,-1857.48
20820,-3.8745,0.1650,0.9731,539.31,422.18,-1982.48
20830,-3.8745,0.1692,0.9741,1133.06,562.81,1939.39
20840,-3.8745,0.1719,0.9746,1664.31,687.81,1970.64
20850,-3.8745,0.1710,0.9772,-1991.94,750.31,-1919.98
20860,-3.8745,0.1666,0.9810,1898.68,1078.43,-1748.11
20870,-3.8745,0.1620,0.9816,1336.18,1562.81,-1498.11
20880,-3.8745,0.1592,0.9767,742.43,1640.93,-1154.36
20890,-3.8745,0.1580,0.9686,383.06,1015.93,-1060.61
20900,-3.8745,0.1575,0.9618,226.81,-15.32,-1404.42
20910,-3.8745,0.1573,0.9572,164.31,-890.32,-1951.29
20920,-3.8745,0.1580,0.9553,148.68,-1484.07,1564.33
20930,-3.8745,0.1591,0.9581,226.81,-1718.44,1376.83
20940,-3.8745,0.1597,0.9658,367.43,-1359.07,1736.21
20950,-3.8745,0.1609,0.9742,445.56,-374.69,-1404.42
20960,-3.8745,0.1635,0.9772,601.81,703.43,-576.23
20970,-3.8745,0.1660,0.9745,929.93,1078.43,-154.36
20980,-3.8745,0.1649,0.9706,1258.06,734.68,-201.23
20990,-3.8745,0.1606,0.9672,1117.43,234.68,-529.36
21000,-3.8745,0.1569,0.9635,570.56,-202.82,-841.92
21010,-3.8745,0.1554,0.9598,86.18,-671.57,-1045.04
21020,-3.8745,0.1556,0.9572,-101.32,-1140.38,-1341.92
21030,-3.8745,0.1567,0.9565,-70.07,-1484.13,-1826.29
21040,-3.8745,0.1591,0.9591,70.56,-1562.19,1767.46
21050,-3.8745,0.1622,0.9650,367.43,-1234.07,1626.83
21060,-3.8745,0.1658,0.9719,773.68,-484.07,1626.83
21070,-3.8745,0.1676,0.9781,1226.81,406.56,1705.02
21080,-3.8745,0.1675,0.9836,1461.18,1203.43,1845.64
21090,-3.8745,0.1683,0.9874,1445.56,1906.56,-1951.23
21100,-3.8745,0.1711,0.9878,1554.93,-1609.07,-1857.48
21110,-3.8745,0.1744,0.9840,1914.31,-1562.19,1923.77
21120,-3.8745,0.1757,0.9773,-1663.82,1953.43,1376.89
21130,-3.8745,0.1742,0.9706,-1507.57,1094.06,689.39
21140,-3.8745,0.1719,0.9653,-1695.07,234.68,48.77
21150,-3.8746,0.1704,0.9639,-1991.94,-437.19,-404.42
21160,-3.8746,0.1705,0.9655,1820.56,-624.69,-482.54
21170,-3.8746,0.1714,0.9677,1836.18,-421.57,-216.92
21180,-3.8745,0.1721,0.9705,1945.56,-140.32,251.83
21190,-3.8745,0.1716,0.9725,-1960.69,219.06,845.64
21200,-3.8745,0.1697,0.9728,1976.81,484.68,1283.14
21210,-3.8745,0.1664,0.9734,1726.81,515.93,1533.14
21220,-3.8745,0.1616,0.9760,1304.93,594.06,1673.77
21230,-3.8745,0.1571,0.9780,695.56,922.18,1611.27
21240,-3.8745,0.1554,0.9769,117.43,1187.81,1283.14
21250,-3.8745,0.1572,0.9735,-101.32,1047.12,705.02
21260,-3.8745,0.1610,0.9696,133.06,609.68,48.77
21270,-3.8746,0.1659,0.9683,617.43,109.68,-466.86
21280,-3.8746,0.1711,0.9697,1242.43,-62.19,-670.04
21290,-3.8746,0.1758,0.9719,1914.31,125.31,-591.86
21300,-3.8746,0.1790,0.9753,-1491.94,406.56,-279.36
21310,-3.8745,0.1799,0.9803,-1085.69,844.06,173.77
21320,-3.8745,0.1781,0.9846,-960.69,1484.68,642.52
21330,-3.8745,0.1720,0.9857,-1195.07,-1968.44,1048.77
21340,-3.8745,0.1644,0.9843,-1976.32,-1827.82,1330.02
21350,-3.8745,0.1589,0.9817,1054.93,1984.68,1455.02
21360,-3.8745,0.1556,0.9781,351.81,1656.56,1345.64
21370,-3.8745,0.1537,0.9751,-70.07,1203.37,1126.89
21380,-3.8745,0.1541,0.9728,-320.07,812.74,1001.89
21390,-3.8745,0.1567,0.9697,-273.19,515.87,970.64
21400,-3.8745,0.1587,0.9664,70.56,125.31,955.02
21410,-3.8745,0.1588,0.9646,320.56,-296.57,1001.83
21420,-3.8745,0.1575,0.9651,336.18,-530.94,1095.58
21430,-3.8745,0.1544,0.9672,164.31,-468.44,1189.33
21440,-3.8745,0.1506,0.9698,-226.32,-202.88,1454.96
21450,-3.8745,0.1472,0.9722,-710.69,140.87,1845.64
21460,-3.8745,0.1455,0.9731,-1148.19,437.74,-1669.98
21470,-3.8745,0.1451,0.9730,-1366.94,562.74,-1279.36
21480,-3.8745,0.1442,0.9734,-1413.82,547.12,-1279.36
21490,-3.8745,0.1428,0.9738,-1538.82,593.99,-1544.98
21500,-3.8745,0.1436,0.9722,-1710.69,640.87,-1966.86
21510,-3.8745,0.1461,0.9700,-1616.94,437.74,1564.39
21520,-3.8745,0.1481,0.9688,-1288.82,156.49,1158.14
21530,-3.8745,0.1499,0.9690,-1038.82,0.24,892.52
21540,-3.8745,0.1523,0.9700,-804.44,31.49,908.14
21550,-3.8745,0.1543,0.9706,-491.94,156.49,1142.52
21560,-3.8745,0.1545,0.9716,-241.94,234.62,1486.27
21570,-3.8745,0.1533,0.9724,-210.69,359.62,1783.14
21580,-3.8745,0.1522,0.9720,-366.94,468.99,1986.27
21590,-3.8745,0.1516,0.9703,-507.57,422.12,-1794.98
21600,-3.8745,0.1511,0.9679,-585.69,203.37,-1763.73
21610,-3.8745,0.1506,0.9655,-648.19,-109.13,1861.21
21620,-3.8745,0.1499,0.9642,-710.69,-421.63,1173.71
21630,-3.8745,0.1489,0.9651,-804.44,-577.88,548.71
21640,-3.8745,0.1492,0.9674,-929.44,-468.51,111.21
21650,-3.8746,0.1504,0.9713,-898.19,-171.63,-91.92
21660,-3.8746,0.1531,0.9760,-741.94,328.37,-138.73
21670,-3.8746,0.1567,0.9797,-398.19,922.12,-123.11
21680,-3.8746,0.1602,0.9830,70.56,1406.56,-29.36
21690,-3.8746,0.1632,0.9838,508.06,1828.43,-13.73
21700,-3.8746,0.1649,0.9803,898.68,1922.18,-13.73
21710,-3.8746,0.1648,0.9742,1117.43,1484.68,-60.61
21720,-3.8746,0.1635,0.9685,1101.81,703.43,-294.98
21730,-3.8746,0.1614,0.9656,929.93,-30.94,-623.17
21740,-3.8746,0.1587,0.9659,664.31,-405.94,-826.29
21750,-3.8746,0.1559,0.9685,320.56,-359.07,-701.29
21760,-3.8746,0.1542,0.9719,-38.82,-31.01,-295.04
21770,-3.8745,0.1544,0.9753,-257.57,406.49,298.77
21780,-3.8745,0.1565,0.9780,-226.32,843.99,986.27
21790,-3.8745,0.1599,0.9783,39.31,1187.81,1595.64
21800,-3.8745,0.1632,0.9753,476.81,1219.06,1923.77
21810,-3.8745,0.1646,0.9711,898.68,844.06,1783.14
21820,-3.8745,0.1632,0.9669,1070.56,297.18,1345.64
21830,-3.8745,0.1593,0.9645,898.68,-234.07,876.83
21840,-3.8745,0.1545,0.9650,398.68,-546.57,673.71
21850,-3.8745,0.1517,0.9670,-210.69,-484.13,704.96
21860,-3.8745,0.1527,0.9701,-570.07,-218.51,829.96
21870,-3.8745,0.1566,0.9738,-445.07,172.12,986.27
21880,-3.8745,0.1603,0.9764,54.93,640.93,1267.52
21890,-3.8745,0.1614,0.9780,523.68,984.68,1548.77
21900,-3.8745,0.1604,0.9778,664.31,1187.81,1564.39
21910,-3.8745,0.1575,0.9750,539.31,1156.56,1501.89
21920,-3.8745,0.1539,0.9705,164.31,797.18,1330.02
21930,-3.8745,0.1505,0.9658,-288.82,218.99,892.52
21940,-3.8745,0.1461,0.9625,-726.32,-374.76,439.33
21950,-3.8745,0.1416,0.9622,-1288.82,-796.63,64.33
21960,-3.8746,0.1379,0.9641,-1866.94,-843.51,-123.17
21970,-3.8746,0.1361,0.9658,1664.31,-593.51,-91.92
21980,-3.8745,0.1375,0.9684,1429.93,-374.76,204.96
21990,-3.8745,0.1416,0.9738,1601.81,-46.63,767.46
22000,-3.8745,0.1470,0.9792,-1866.94,640.87,1517.52
22010,-3.8745,0.1537,0.9807,-1179.44,1343.99,-1763.73
22020,-3.8745,0.1602,0.9777,-320.07,1531.49,-1373.11
22030,-3.8745,0.1625,0.9727,508.06,1140.93,-1482.48
22040,-3.8745,0.1602,0.9683,804.93,500.31,-1919.98
22050,-3.8745,0.1555,0.9648,508.06,-62.19,1361.21
22060,-3.8745,0.1511,0.9629,-85.69,-499.76,689.33
22070,-3.8745,0.1487,0.9634,-648.19,-749.76,220.58
22080,-3.8746,0.1494,0.9662,-960.69,-687.26,-91.92
22090,-3.8746,0.1527,0.9702,-866.94,-327.88,-13.79
22100,-3.8745,0.1566,0.9738,-445.07,187.74,314.39
22110,-3.8745,0.1591,0.9750,54.93,640.93,595.64
22120,-3.8745,0.1597,0.9745,367.43,797.18,751.89
22130,-3.8745,0.1572,0.9741,445.56,734.68,845.64
22140,-3.8745,0.1511,0.9725,133.06,687.81,892.52
22150,-3.8745,0.1447,0.9701,-648.19,484.62,767.52
22160,-3.8745,0.1409,0.9686,-1476.32,172.12,611.27
22170,-3.8745,0.1417,0.9689,-1960.69,-15.38,564.33
22180,-3.8745,0.1464,0.9706,-1851.32,15.87,595.64
22190,-3.8745,0.1525,0.9719,-1257.57,234.62,658.14
22200,-3.8745,0.1578,0.9716,-476.32,406.49,533.14
22210,-3.8745,0.1606,0.9714,211.18,359.68,267.52
22220,-3.8745,0.1599,0.9730,570.56,344.06,251.89
22230,-3.8745,0.1577,0.9761,476.81,547.18,486.27
22240,-3.8745,0.1561,0.9783,195.56,937.81,908.14
22250,-3.8745,0.1559,0.9777,-7.57,1218.99,1361.27
22260,-3.8745,0.1565,0.9757,-38.82,1140.87,1705.02
22270,-3.8745,0.1580,0.9744,39.31,890.93,1923.77
22280,-3.8745,0.1594,0.9722,226.81,719.06,-1935.61
22290,-3.8745,0.1605,0.9696,414.31,437.81,1955.02
22300,-3.8745,0.1614,0.9684,554.93,109.68,1626.89
22310,-3.8745,0.1621,0.9690,664.31,-46.57,1251.83
22320,-3.8745,0.1625,0.9718,758.06,31.56,986.27
22330,-3.8745,0.1621,0.9766,804.93,390.93,955.02
22340,-3.8745,0.1606,0.9803,758.06,1000.31,1126.89
22350,-3.8745,0.1586,0.9807,570.56,1484.68,1330.02
22360,-3.8745,0.1562,0.9783,304.93,1531.56,1361.27
22370,-3.8745,0.1532,0.9746,8.06,1219.06,1095.64
22380,-3.8745,0.1503,0.9713,-382.57,750.24,720.64
22390,-3.8745,0.1484,0.9692,-757.57,328.37,298.77
22400,-3.8746,0.1482,0.9688,-991.94,62.74,-138.73
22410,-3.8746,0.1499,0.9680,-1023.19,0.24,-404.36
22420,-3.8746,0.1519,0.9657,-804.44,-93.51,-451.29
22430,-3.8746,0.1521,0.9648,-554.44,-390.38,-404.42
22440,-3.8746,0.1498,0.9670,-523.19,-499.76,-232.54
22450,-3.8745,0.1458,0.9694,-820.07,-218.51,111.21
22460,-3.8745,0.1417,0.9695,-1335.69,78.37,517.52
22470,-3.8745,0.1388,0.9690,-1851.32,93.99,939.39
22480,-3.8745,0.1371,0.9695,1773.68,31.49,1205.02
22490,-3.8745,0.1362,0.9691,1554.93,93.99,1142.52
22500,-3.8745,0.1366,0.9683,1445.56,47.12,1033.14
22510,-3.8745,0.1385,0.9681,1492.43,-62.26,892.46
22520,-3.8745,0.1415,0.9688,1742.43,-77.88,767.46
22530,-3.8745,0.1449,0.9700,-1882.57,0.24,626.89
22540,-3.8745,0.1478,0.9716,-1445.07,156.49,361.27
22550,-3.8745,0.1499,0.9727,-1070.07,359.62,189.39
22560,-3.8745,0.1508,0.9730,-804.44,500.24,64.39
22570,-3.8745,0.1499,0.9745,-695.07,547.12,48.77
22580,-3.8745,0.1471,0.9773,-804.44,734.62,392.52
22590,-3.8745,0.1443,0.9784,-1163.82,1093.99,876.89
22600,-3.8745,0.1429,0.9760,-1523.19,1234.62,1267.52
22610,-3.8745,0.1431,0.9717,-1695.07,922.12,1533.14
22620,-3.8745,0.1443,0.9686,-1679.44,375.24,1673.77
22630,-3.8745,0.1454,0.9689,-1523.19,-15.38,1611.21
22640,-3.8745,0.1465,0.9720,-1382.57,15.87,1564.39
22650,-3.8745,0.1503,0.9757,-1241.94,422.12,1611.27
22660,-3.8745,0.1549,0.9769,-757.57,890.87,1611.27
22670,-3.8745,0.1580,0.9771,-163.82,1047.12,1486.27
22680,-3.8745,0.1583,0.9777,226.81,1062.81,1236.27
22690,-3.8745,0.1567,0.9775,273.68,1140.93,1064.39
22700,-3.8745,0.1545,0.9764,70.56,1125.31,1095.64
22710,-3.8745,0.1541,0.9760,-210.69,984.62,1376.89
22720,-3.8745,0.1569,0.9786,-273.19,922.12,1783.14
22730,-3.8745,0.1617,0.9829,86.18,1265.93,-1763.73
22740,-3.8745,0.1682,0.9850,711.18,1812.81,-1435.61
22750,-3.8745,0.1738,0.9836,1539.31,-1921.57,-1294.98
22760,-3.8745,0.1757,0.9797,-1741.94,1906.56,-1435.61
22770,-3.8745,0.1733,0.9752,-1507.57,1406.56,-1763.73
22780,-3.8745,0.1675,0.9724,-1804.44,828.43,1939.39
22790,-3.8745,0.1602,0.9725,1445.56,469.06,1767.52
22800,-3.8745,0.1558,0.9749,508.06,484.68,1767.52
22810,-3.8745,0.1561,0.9778,-54.44,781.49,1986.27
22820,-3.8745,0.1595,0.9799,-7.57,1156.49,-1826.23
22830,-3.8745,0.1637,0.9801,429.93,1422.18,-1779.36
22840,-3.8745,0.1659,0.9790,961.18,1453.43,-1888.73
22850,-3.8745,0.1646,0.9790,1242.43,1312.81,-1951.23
22860,-3.8745,0.1605,0.9796,1070.56,1312.81,-1951.23
22870,-3.8745,0.1573,0.9780,554.93,1390.93,-1919.98
22880,-3.8745,0.1566,0.9740,148.68,1187.81,-1998.11
22890,-3.8745,0.1575,0.9692,54.93,672.18,1720.64
22900,-3.8745,0.1571,0.9672,164.31,62.81,1376.89
22910,-3.8745,0.1536,0.9684,117.43,-202.82,1033.08
22920,-3.8745,0.1484,0.9706,-335.69,-46.63,767.46
22930,-3.8745,0.1445,0.9718,-991.94,234.62,626.89
22940,-3.8745,0.1434,0.9708,-1491.94,390.87,580.02
22950,-3.8745,0.1445,0.9691,-1632.57,265.87,658.14
22960,-3.8745,0.1469,0.9685,-1491.94,47.12,751.89
22970,-3.8745,0.1489,0.9686,-1195.07,-31.01,751.83
22980,-3.8745,0.1499,0.9694,-929.44,-15.38,658.08
22990,-3.8745,0.1516,0.9695,-804.44,78.37,455.02
23000,-3.8745,0.1533,0.9683,-585.69,93.99,267.52
23010,-3.8745,0.1531,0.9662,-366.94,-62.26,111.21
23020,-3.8746,0.1509,0.9636,-398.19,-327.88,-91.92
23030,-3.8746,0.1472,0.9614,-679.44,-656.01,-341.92
23040,-3.8746,0.1431,0.9600,-1148.19,-937.26,-435.67
23050,-3.8746,0.1401,0.9600,-1679.44,-1124.76,-279.42
23060,-3.8746,0.1399,0.9622,1945.56,-1124.76,-60.67
23070,-3.8745,0.1420,0.9652,1914.31,-843.51,220.58
23080,-3.8745,0.1455,0.9670,-1820.07,-452.88,579.96
23090,-3.8745,0.1488,0.9691,-1366.94,-218.51,908.08
23100,-3.8745,0.1516,0.9716,-945.07,47.12,1126.89
23110,-3.8745,0.1538,0.9720,-585.69,359.62,1267.52
23120,-3.8745,0.1549,0.9698,-304.44,422.12,1267.52
23130,-3.8745,0.1527,0.9659,-163.82,140.87,1064.39
23140,-3.8745,0.1483,0.9613,-445.07,-359.13,751.83
23150,-3.8745,0.1449,0.9567,-1007.57,-952.88,329.96
23160,-3.8746,0.1438,0.9540,-1445.07,-1546.63,-60.67
23170,-3.8746,0.1442,0.9541,-1585.69,-1890.38,-201.29
23180,-3.8746,0.1455,0.9572,-1538.82,-1874.76,-91.92
23190,-3.8745,0.1483,0.9622,-1366.94,-1484.13,173.71
23200,-3.8745,0.1519,0.9673,-1007.57,-843.51,517.46
23210,-3.8745,0.1559,0.9716,-554.44,-187.26,829.96
23220,-3.8745,0.1600,0.9750,-38.82,359.62,970.64
23230,-3.8745,0.1615,0.9767,492.43,797.18,986.27
23240,-3.8745,0.1598,0.9760,679.93,1015.93,830.02
23250,-3.8745,0.1570,0.9727,461.18,922.18,580.02
23260,-3.8745,0.1537,0.9681,101.81,500.31,236.27
23270,-3.8746,0.1501,0.9629,-320.07,-77.88,-138.79
23280,-3.8746,0.1473,0.9579,-773.19,-749.76,-466.92
23290,-3.8746,0.1461,0.9553,-1132.57,-1390.38,-638.79
23300,-3.8746,0.1465,0.9569,-1288.82,-1718.51,-482.54
23310,-3.8746,0.1477,0.9617,-1241.94,-1515.38,-76.29
23320,-3.8745,0.1486,0.9668,-1085.69,-906.01,533.08
23330,-3.8745,0.1499,0.9719,-976.32,-249.76,1251.83
23340,-3.8745,0.1512,0.9767,-804.44,406.49,1892.52
23350,-3.8745,0.1520,0.9794,-632.57,1015.87,-1544.98
