timestamp_ms,ax,ay,az,gx,gy,gz
0,-3.8440,0.0460,0.9878,1758.06,-1046.81,-529.36
10,-3.8440,0.0474,0.9849,1898.68,-1562.44,-810.61
20,-3.8440,0.0496,0.9845,-1929.44,-1937.44,-1091.86
30,-3.8440,0.0513,0.9868,-1648.19,-1984.31,-1279.36
40,-3.8440,0.0494,0.9908,-1429.44,-1687.44,-1154.36
50,-3.8440,0.0455,0.9952,-1663.82,-1171.81,-716.86
60,-3.8440,0.0428,0.9983,1836.18,-609.31,-279.36
70,-3.8440,0.0437,1.0000,1492.43,-218.69,-29.36
80,-3.8439,0.0486,0.9995,1601.81,0.06,80.08
90,-3.8439,0.0536,0.9963,-1773.19,-62.44,48.77
100,-3.8440,0.0543,0.9940,-1132.57,-468.69,-232.48
110,-3.8440,0.0522,0.9926,-1038.82,-765.56,-701.23
120,-3.8440,0.0510,0.9916,-1304.44,-953.06,-951.23
130,-3.8440,0.0515,0.9917,-1460.69,-1078.06,-982.48
140,-3.8440,0.0502,0.9924,-1398.19,-1062.44,-935.61
150,-3.8440,0.0453,0.9935,-1570.07,-968.69,-810.61
160,-3.8440,0.0403,0.9950,1804.93,-828.06,-669.98
170,-3.8440,0.0365,0.9950,1164.31,-640.56,-654.36
180,-3.8440,0.0339,0.9945,679.93,-640.56,-669.98
190,-3.8440,0.0352,0.9960,351.81,-703.06,-607.48
200,-3.8440,0.0393,0.9998,508.06,-515.56,-466.86
210,-3.8440,0.0447,1.0022,1039.31,-31.19,-294.98
220,-3.8440,0.0507,1.0012,1726.81,281.31,-201.17
230,-3.8440,0.0562,0.9969,-1507.57,156.31,-263.67
240,-3.8440,0.0604,0.9918,-804.44,-390.56,-498.11
250,-3.8440,0.0627,0.9889,-257.57,-1046.81,-888.73
260,-3.8440,0.0607,0.9885,39.31,-1421.75,-1185.61
270,-3.8440,0.0532,0.9888,-226.32,-1468.69,-1201.23
280,-3.8440,0.0438,0.9883,-1179.44,-1437.44,-1076.23
290,-3.8440,0.0365,0.9868,1617.43,-1499.94,-966.86
300,-3.8440,0.0345,0.9860,679.93,-1687.44,-904.36
310,-3.8440,0.0370,0.9869,429.93,-1796.81,-873.11
320,-3.8440,0.0421,0.9883,742.43,-1671.81,-810.61
330,-3.8440,0.0487,0.9890,1398.68,-1499.94,-654.36
340,-3.8440,0.0549,0.9906,-1757.57,-1406.19,-544.98
350,-3.8440,0.0603,0.9932,-960.69,-1203.06,-435.61
360,-3.8440,0.0638,0.9952,-273.19,-874.94,-185.61
370,-3.8439,0.0630,0.9982,179.93,-609.25,80.02
380,-3.8439,0.0576,1.0042,70.56,-234.25,251.89
390,-3.8439,0.0491,1.0089,-616.94,531.31,501.95
400,-3.8439,0.0410,1.0083,-1710.69,1140.69,986.33
410,-3.8439,0.0378,1.0021,1258.06,1062.56,1283.20
420,-3.8439,0.0386,0.9930,851.81,265.69,1064.45
430,-3.8439,0.0393,0.9856,945.56,-890.56,673.77
440,-3.8439,0.0367,0.9813,1039.31,-1843.69,298.77
450,-3.8439,0.0315,0.9797,711.18,1609.44,33.14
460,-3.8439,0.0271,0.9807,39.31,1406.31,80.02
470,-3.8439,0.0265,0.9840,-523.19,1531.25,439.39
480,-3.8439,0.0289,0.9874,-601.32,1953.12,830.02
490,-3.8439,0.0315,0.9886,-288.82,-1609.38,939.39
500,-3.8439,0.0323,0.9880,39.31,-1453.06,892.52
510,-3.8439,0.0314,0.9890,148.68,-1531.19,1048.77
520,-3.8439,0.0316,0.9927,23.68,-1406.19,1533.14
530,-3.8439,0.0347,0.9962,54.93,-937.44,-1888.73
540,-3.8439,0.0378,0.9974,445.56,-484.31,-1529.36
550,-3.8439,0.0392,0.9965,851.81,-328.06,-1529.36
560,-3.8439,0.0387,0.9951,1023.68,-453.06,-1810.61
570,-3.8439,0.0370,0.9937,961.18,-624.94,1892.52
580,-3.8439,0.0349,0.9918,742.43,-812.44,1751.89
590,-3.8439,0.0343,0.9902,476.81,-1046.81,1658.14
600,-3.8439,0.0360,0.9880,398.68,-1249.94,1486.27
610,-3.8439,0.0389,0.9862,617.43,-1531.19,1267.52
620,-3.8439,0.0404,0.9852,992.43,-1765.56,1017.52
630,-3.8439,0.0396,0.9847,1179.93,-1890.56,923.77
640,-3.8439,0.0376,0.9857,1070.56,-1953.06,986.27
650,-3.8439,0.0354,0.9894,820.56,-1828.06,1095.64
660,-3.8439,0.0345,0.9937,539.31,-1359.31,1189.39
670,-3.8439,0.0361,0.9965,429.93,-812.44,1236.27
680,-3.8439,0.0396,0.9990,633.06,-453.06,1345.64
690,-3.8439,0.0437,1.0006,1070.56,-124.94,1470.64
700,-3.8439,0.0466,1.0002,1601.81,78.19,1408.20
710,-3.8439,0.0474,0.9995,1976.81,31.31,1189.45
720,-3.8439,0.0460,0.9998,-1929.44,-62.44,970.64
730,-3.8439,0.0432,0.9998,1898.68,-31.19,908.14
740,-3.8439,0.0399,0.9989,1539.31,-31.19,1001.89
750,-3.8439,0.0367,0.9982,1117.43,-140.56,1189.39
760,-3.8439,0.0342,0.9967,711.18,-234.31,1408.14
770,-3.8439,0.0334,0.9948,383.06,-421.81,1689.39
780,-3.8439,0.0345,0.9929,289.31,-671.81,1830.02
790,-3.8439,0.0337,0.9921,429.93,-906.19,1767.52
800,-3.8439,0.0300,0.9930,320.56,-1015.56,1736.27
810,-3.8439,0.0265,0.9940,-148.19,-890.62,1705.02
820,-3.8439,0.0269,0.9913,-601.32,-765.62,1533.14
830,-3.8439,0.0295,0.9854,-554.44,-1109.38,1205.02
840,-3.8439,0.0311,0.9813,-210.69,-1875.00,705.02
850,-3.8439,0.0299,0.9841,-7.57,1609.38,298.77
860,-3.8439,0.0273,0.9904,-163.82,1968.75,361.27
870,-3.8439,0.0260,0.9934,-491.94,-1234.38,767.52
880,-3.8439,0.0266,0.9921,-663.82,-843.75,1017.52
890,-3.8439,0.0280,0.9902,-585.69,-1015.62,1111.27
900,-3.8439,0.0294,0.9917,-413.82,-1250.00,1267.52
910,-3.8439,0.0309,0.9961,-226.32,-1062.50,1689.39
920,-3.8439,0.0303,0.9999,-38.82,-500.00,-1544.98
930,-3.8439,0.0254,1.0022,-116.94,-15.62,-873.11
940,-3.8439,0.0170,1.0071,-741.94,281.25,-560.55
950,-3.8439,0.0065,1.0151,-1820.07,906.25,-623.05
960,-3.8439,-0.0010,1.0206,836.18,1937.50,-841.80
970,-3.8439,0.0005,1.0162,-116.94,-1343.81,-1326.17
980,-3.8439,0.0092,1.0021,70.56,-1921.88,1580.08
990,-3.8440,0.0177,0.9844,1179.93,265.62,-154.30
1000,-3.8440,0.0209,0.9695,-1726.32,-2000.00,1986.27
1010,-3.8440,0.0175,0.9596,-1320.07,93.75,830.02
1020,-3.8440,0.0098,0.9548,-1757.57,-1171.88,704.96
1030,-3.8440,0.0031,0.9557,1258.06,-1781.25,1361.21
1040,-3.8440,-0.0002,0.9640,398.68,-1671.88,-1498.17
1050,-3.8440,0.0013,0.9773,-23.19,-593.81,-91.92
1060,-3.8439,0.0117,0.9877,179.93,1093.75,1314.39
1070,-3.8439,0.0297,0.9901,1508.06,-1578.12,-1623.11
1080,-3.8439,0.0491,0.9857,-195.07,-1265.62,-1279.36
1090,-3.8439,0.0645,0.9790,-1710.69,-1828.06,-1638.73
1100,-3.8439,0.0706,0.9745,258.06,1312.62,1736.27
1110,-3.8439,0.0662,0.9706,1039.31,734.50,1455.02
1120,-3.8439,0.0558,0.9653,476.81,234.50,1751.89
1130,-3.8439,0.0446,0.9612,-851.32,-437.44,-1763.79
1140,-3.8439,0.0364,0.9602,1711.18,-968.69,-1451.29
1150,-3.8439,0.0332,0.9628,664.31,-1093.69,-1326.29
1160,-3.8439,0.0337,0.9690,258.06,-765.56,-1279.42
1170,-3.8439,0.0369,0.9775,320.56,31.31,-1341.86
1180,-3.8439,0.0439,0.9858,726.81,1125.06,-1779.36
1190,-3.8439,0.0535,0.9897,1633.06,-1812.44,1408.14
1200,-3.8439,0.0612,0.9886,-1148.19,-1312.44,533.14
1210,-3.8440,0.0631,0.9860,-163.82,-1453.06,-248.11
1220,-3.8440,0.0590,0.9858,86.18,-1796.75,-794.98
1230,-3.8440,0.0507,0.9896,-445.07,-1812.44,-1044.98
1240,-3.8440,0.0428,0.9968,-1507.57,-1328.06,-966.86
1250,-3.8440,0.0391,1.0054,1492.43,-406.19,-498.11
1260,-3.8439,0.0404,1.0121,1008.06,687.56,95.70
1270,-3.8439,0.0441,1.0159,1179.93,1546.94,533.20
1280,-3.8439,0.0468,1.0162,1648.68,-1968.69,736.33
1290,-3.8439,0.0471,1.0133,1992.43,-1921.81,767.58
1300,-3.8439,0.0452,1.0059,-1960.69,1703.19,533.20
1310,-3.8439,0.0431,0.9944,1789.31,750.06,126.95
1320,-3.8440,0.0413,0.9847,1523.68,-718.69,-341.86
1330,-3.8440,0.0377,0.9811,1289.31,-1953.06,-748.11
1340,-3.8440,0.0334,0.9822,836.18,1578.19,-888.73
1350,-3.8440,0.0302,0.9860,289.31,1718.81,-576.23
1360,-3.8439,0.0288,0.9895,-132.57,-1796.88,189.39
1370,-3.8439,0.0298,0.9910,-304.44,-1343.75,1158.14
1380,-3.8439,0.0317,0.9926,-179.44,-1156.25,1970.64
1390,-3.8439,0.0327,0.9961,70.56,-953.06,-1623.11
1400,-3.8439,0.0326,0.9999,195.56,-499.94,-1654.36
1410,-3.8439,0.0352,1.0011,179.93,-15.56,1970.64
1420,-3.8439,0.0436,0.9969,508.06,140.69,1361.33
1430,-3.8439,0.0552,0.9897,1586.18,-390.56,517.52
1440,-3.8440,0.0641,0.9862,-929.44,-1312.44,-357.48
1450,-3.8440,0.0664,0.9880,211.18,-1765.50,-888.73
1460,-3.8440,0.0632,0.9926,508.06,-1531.13,-1044.98
1470,-3.8440,0.0574,0.9990,101.81,-953.00,-669.98
1480,-3.8439,0.0524,1.0051,-648.19,-124.94,283.14
1490,-3.8439,0.0516,1.0077,-1288.82,656.31,1314.45
1500,-3.8439,0.0540,1.0056,-1382.57,984.44,-1935.55
1510,-3.8439,0.0580,1.0015,-1085.69,718.81,-1654.30
1520,-3.8439,0.0609,0.9978,-570.07,187.56,-1701.17
1530,-3.8439,0.0613,0.9967,-195.07,-281.19,-1748.11
1540,-3.8439,0.0592,0.9971,-148.19,-421.81,-1654.36
1550,-3.8439,0.0564,0.9951,-413.82,-374.94,-1716.86
1560,-3.8439,0.0538,0.9919,-773.19,-624.94,-1919.98
1570,-3.8439,0.0503,0.9918,-1101.32,-1031.19,1970.64
1580,-3.8439,0.0459,0.9948,-1554.44,-1046.81,1939.39
1590,-3.8439,0.0428,0.9969,1883.06,-671.81,1939.39
1600,-3.8439,0.0432,0.9971,1492.43,-390.56,1923.77
1610,-3.8439,0.0459,0.9980,1539.31,-374.94,1798.77
1620,-3.8439,0.0475,1.0026,1883.06,-249.94,1611.27
1630,-3.8439,0.0460,1.0070,-1913.82,328.19,1517.58
1640,-3.8439,0.0441,1.0077,1898.68,890.69,1580.08
1650,-3.8439,0.0442,1.0037,1648.68,984.44,1689.45
1660,-3.8439,0.0457,0.9974,1664.31,468.81,1564.45
1670,-3.8439,0.0457,0.9938,1851.81,-328.06,1298.77
1680,-3.8439,0.0421,0.9939,1851.81,-796.81,1017.52
1690,-3.8439,0.0374,0.9955,1398.68,-781.19,830.02
1700,-3.8439,0.0339,0.9956,789.31,-578.06,892.52
1710,-3.8439,0.0338,0.9922,351.81,-562.44,939.39
1720,-3.8439,0.0363,0.9886,336.18,-999.94,798.77
1730,-3.8439,0.0388,0.9879,648.68,-1453.06,658.14
1740,-3.8439,0.0397,0.9884,976.81,-1546.81,533.14
1750,-3.8439,0.0378,0.9895,1086.18,-1484.31,345.64
1760,-3.8439,0.0336,0.9926,851.81,-1343.69,142.52
1770,-3.8439,0.0282,0.9969,304.93,-953.06,158.14
1780,-3.8439,0.0237,1.0000,-382.57,-390.62,361.27
1790,-3.8439,0.0227,0.9993,-960.69,0.00,423.83
1800,-3.8439,0.0265,0.9950,-1085.69,-93.75,95.64
1810,-3.8440,0.0338,0.9888,-601.32,-640.62,-576.23
1820,-3.8440,0.0419,0.9834,336.18,-1437.44,-1294.98
1830,-3.8440,0.0477,0.9806,1367.43,1875.06,-1966.86
1840,-3.8440,0.0510,0.9813,-1882.57,1515.69,1689.39
1850,-3.8440,0.0524,0.9840,-1460.69,1609.44,1986.27
1860,-3.8440,0.0518,0.9877,-1288.82,1953.19,-1310.61
1870,-3.8440,0.0500,0.9916,-1366.94,-1578.06,-623.11
1880,-3.8440,0.0488,0.9937,-1585.69,-1078.06,-169.98
1890,-3.8439,0.0482,0.9934,-1741.94,-812.44,205.02
1900,-3.8439,0.0475,0.9927,-1820.07,-843.69,626.89
1910,-3.8439,0.0459,0.9929,-1913.82,-937.44,908.14
1920,-3.8439,0.0433,0.9933,1883.06,-906.19,1111.27
1930,-3.8439,0.0400,0.9933,1554.93,-859.31,1283.14
1940,-3.8439,0.0376,0.9918,1133.06,-859.31,1314.39
1950,-3.8439,0.0367,0.9896,820.56,-1046.81,1033.14
1960,-3.8439,0.0371,0.9896,711.18,-1328.06,595.64
1970,-3.8439,0.0376,0.9928,758.06,-1328.06,486.27
1980,-3.8439,0.0378,0.9972,820.56,-921.81,720.64
1990,-3.8439,0.0372,0.9979,851.81,-359.31,892.52
2000,-3.8439,0.0355,0.9941,773.68,-265.56,923.77
2010,-3.8439,0.0328,0.9905,554.93,-749.94,751.89
2020,-3.8439,0.0302,0.9897,211.18,-1218.69,626.89
2030,-3.8439,0.0289,0.9901,-132.57,-1312.50,658.14
2040,-3.8439,0.0283,0.9901,-288.82,-1265.62,626.89
2050,-3.8439,0.0255,0.9901,-366.94,-1265.62,423.77
2060,-3.8439,0.0199,0.9888,-726.32,-1265.62,64.39
2070,-3.8440,0.0148,0.9862,-1445.07,-1437.50,-341.86
2080,-3.8440,0.0127,0.9841,1898.68,-1765.62,-669.98
2090,-3.8440,0.0148,0.9829,1633.06,1968.75,-841.86
2100,-3.8440,0.0203,0.9813,1898.68,1812.50,-779.36
2110,-3.8440,0.0260,0.9801,-1398.19,1609.38,-591.86
2120,-3.8440,0.0289,0.9818,-663.82,1453.12,-404.36
2130,-3.8439,0.0289,0.9863,-288.82,1671.88,48.77
2140,-3.8439,0.0289,0.9921,-288.82,-1750.00,736.27
2150,-3.8439,0.0302,0.9976,-288.82,-1015.62,1345.64
2160,-3.8439,0.0325,1.0018,-132.57,-312.50,1908.14
2170,-3.8439,0.0364,1.0044,164.31,234.44,-1716.80
2180,-3.8439,0.0410,1.0032,664.31,562.56,-1685.55
2190,-3.8439,0.0463,0.9998,1258.06,406.31,-1794.92
2200,-3.8439,0.0522,0.9957,1929.93,-31.19,1892.52
2210,-3.8439,0.0574,0.9916,-1304.44,-546.81,1361.27
2220,-3.8439,0.0598,0.9899,-648.19,-1078.06,861.27
2230,-3.8439,0.0599,0.9916,-335.69,-1296.81,470.64
2240,-3.8439,0.0592,0.9943,-320.07,-1078.06,267.52
2250,-3.8439,0.0579,0.9960,-413.82,-734.31,267.52
2260,-3.8439,0.0559,0.9963,-585.69,-515.56,314.39
2270,-3.8439,0.0532,0.9954,-835.69,-468.69,251.89
2280,-3.8439,0.0499,0.9926,-1179.44,-593.69,330.02
2290,-3.8439,0.0475,0.9886,-1601.32,-953.06,595.64
2300,-3.8439,0.0457,0.9854,-1913.82,-1453.06,861.27
2310,-3.8439,0.0420,0.9847,1851.81,-1874.94,1142.52
2320,-3.8439,0.0364,0.9857,1383.06,-1953.06,1517.52
2330,-3.8439,0.0319,0.9861,664.31,-1828.06,1830.02
2340,-3.8439,0.0304,0.9846,86.18,-1781.19,1751.89
2350,-3.8439,0.0322,0.9812,-101.32,-1968.75,1158.14
2360,-3.8439,0.0354,0.9780,133.06,1593.81,376.89
2370,-3.8440,0.0380,0.9774,539.31,1187.56,-310.61
2380,-3.8440,0.0392,0.9800,867.43,1109.44,-794.98
2390,-3.8440,0.0389,0.9855,1023.68,1437.56,-998.11
2400,-3.8440,0.0385,0.9934,992.43,-1859.31,-1029.36
2410,-3.8440,0.0377,1.0016,929.93,-843.69,-935.61
2420,-3.8440,0.0375,1.0073,836.18,203.19,-623.05
2430,-3.8440,0.0391,1.0095,804.93,937.56,-201.17
2440,-3.8439,0.0430,1.0087,1008.06,1218.81,142.58
2450,-3.8439,0.0464,1.0070,1508.06,1109.44,470.70
2460,-3.8439,0.0477,1.0052,1945.56,890.69,705.08
2470,-3.8439,0.0465,1.0028,-1882.57,671.94,830.08
2480,-3.8439,0.0437,1.0002,1961.18,359.44,892.58
2490,-3.8439,0.0411,0.9988,1601.81,31.31,861.33
2500,-3.8439,0.0399,0.9972,1273.68,-156.19,595.64
2510,-3.8439,0.0398,0.9940,1117.43,-359.31,298.77
2520,-3.8439,0.0405,0.9895,1101.81,-765.56,33.14
2530,-3.8440,0.0410,0.9863,1195.56,-1343.69,-138.73
2540,-3.8439,0.0403,0.9879,1258.06,-1749.94,64.39
2550,-3.8439,0.0389,0.9922,1164.31,-1546.81,595.64
2560,-3.8439,0.0380,0.9952,992.43,-999.94,1267.52
2570,-3.8439,0.0367,0.9960,867.43,-609.31,1970.64
2580,-3.8439,0.0349,0.9940,711.18,-515.56,-1419.98
2590,-3.8439,0.0334,0.9904,476.81,-765.56,-1248.11
2600,-3.8439,0.0332,0.9861,289.31,-1234.31,-1623.11
2610,-3.8439,0.0336,0.9835,258.06,-1781.19,1720.64
2620,-3.8439,0.0332,0.9828,304.93,1890.69,1064.39
2630,-3.8439,0.0309,0.9832,258.06,1796.94,533.14
2640,-3.8439,0.0288,0.9835,-38.82,1843.75,95.64
2650,-3.8440,0.0293,0.9835,-304.44,1890.62,-201.23
2660,-3.8440,0.0326,0.9856,-241.94,1890.62,-263.73
2670,-3.8440,0.0371,0.9906,179.93,-1843.69,-29.36
2680,-3.8439,0.0398,0.9979,758.06,-1203.06,361.27
2690,-3.8439,0.0396,1.0044,1101.81,-265.56,892.52
2700,-3.8439,0.0380,1.0083,1070.56,562.56,1611.33
2710,-3.8439,0.0364,1.0084,867.43,1062.56,-1888.67
2720,-3.8439,0.0359,1.0068,664.31,1078.19,-1748.05
2730,-3.8439,0.0364,1.0050,601.81,875.06,-1935.55
2740,-3.8439,0.0377,1.0028,664.31,640.69,1580.08
2750,-3.8439,0.0398,1.0012,836.18,359.44,1158.20
2760,-3.8439,0.0425,1.0004,1101.81,156.31,1126.95
2770,-3.8439,0.0438,0.9980,1445.56,46.94,1267.58
2780,-3.8439,0.0436,0.9943,1617.43,-249.94,1376.89
2790,-3.8439,0.0442,0.9916,1586.18,-734.31,1517.52
2800,-3.8439,0.0443,0.9911,1664.31,-1078.06,1720.64
2810,-3.8439,0.0438,0.9935,1679.93,-1140.56,1955.02
2820,-3.8439,0.0430,0.9976,1617.43,-828.06,-1810.61
2830,-3.8439,0.0420,1.0002,1508.06,-312.44,-1638.73
2840,-3.8439,0.0415,0.9999,1383.06,31.31,-1607.42
2850,-3.8439,0.0406,0.9976,1320.56,-15.56,-1779.36
2860,-3.8439,0.0393,0.9955,1211.18,-312.44,1892.52
2870,-3.8439,0.0387,0.9926,1039.31,-578.06,1720.64
2880,-3.8439,0.0392,0.9897,961.18,-953.06,1767.52
2890,-3.8439,0.0397,0.9885,1023.68,-1312.44,1892.52
2900,-3.8439,0.0413,0.9884,1086.18,-1468.69,1939.39
2910,-3.8439,0.0441,0.9895,1289.31,-1484.31,1908.14
2920,-3.8439,0.0468,0.9912,1648.68,-1343.69,1861.27
2930,-3.8439,0.0488,0.9932,1992.43,-1124.94,1767.52
2940,-3.8439,0.0496,0.9954,-1741.94,-874.94,1642.52
2950,-3.8439,0.0490,0.9966,-1648.19,-593.69,1658.14
2960,-3.8439,0.0470,0.9968,-1726.32,-437.44,1861.27
2970,-3.8439,0.0453,0.9954,-1976.32,-406.19,-1919.98
2980,-3.8439,0.0448,0.9922,1804.93,-593.69,-1873.11
2990,-3.8439,0.0448,0.9899,1742.43,-999.94,-1935.61
3000,-3.8439,0.0432,0.9882,1742.43,-1296.81,1892.52
3010,-3.8439,0.0403,0.9866,1539.31,-1515.56,1689.39
3020,-3.8439,0.0366,0.9860,1164.31,-1718.69,1626.89
3030,-3.8439,0.0326,0.9863,695.56,-1796.81,1580.02
3040,-3.8439,0.0298,0.9868,179.93,-1749.94,1501.89
3050,-3.8439,0.0304,0.9860,-179.44,-1687.50,1533.14
3060,-3.8439,0.0339,0.9838,-101.32,-1796.88,1705.02
3070,-3.8439,0.0380,0.9823,351.81,1921.94,1673.77
3080,-3.8439,0.0404,0.9843,867.43,1734.44,1408.14
3090,-3.8439,0.0409,0.9911,1179.93,1984.44,1376.89
3100,-3.8439,0.0399,0.9991,1242.43,-1140.56,1548.77
3110,-3.8439,0.0399,1.0020,1117.43,-109.31,1751.89
3120,-3.8439,0.0420,0.9980,1117.43,250.06,1736.33
3130,-3.8439,0.0437,0.9910,1383.06,-249.94,1408.14
3140,-3.8439,0.0435,0.9849,1601.81,-1156.19,955.02
3150,-3.8439,0.0414,0.9824,1570.56,-1937.44,548.77
3160,-3.8439,0.0387,0.9854,1304.93,1750.06,470.64
3170,-3.8439,0.0374,0.9912,961.18,-1874.94,751.89
3180,-3.8439,0.0382,0.9960,789.31,-1124.94,1189.39
3190,-3.8439,0.0417,0.9963,898.68,-515.56,1486.27
3200,-3.8439,0.0460,0.9928,1351.81,-468.69,1580.02
3210,-3.8439,0.0487,0.9888,1898.68,-921.81,1720.64
3220,-3.8439,0.0493,0.9856,-1757.57,-1437.44,1923.77
3230,-3.8439,0.0482,0.9840,-1679.44,-1843.69,-1904.36
3240,-3.8439,0.0463,0.9841,-1820.07,1953.19,-1904.36
3250,-3.8439,0.0441,0.9851,1929.93,1968.81,-1888.73
3260,-3.8439,0.0410,0.9860,1648.68,-1906.19,-1701.23
3270,-3.8439,0.0377,0.9862,1258.06,-1796.81,-1591.86
3280,-3.8439,0.0350,0.9867,836.18,-1765.56,-1591.86
3290,-3.8439,0.0338,0.9872,492.43,-1703.06,-1623.11
3300,-3.8439,0.0356,0.9869,336.18,-1640.56,-1669.98
3310,-3.8439,0.0403,0.9858,570.56,-1671.81,-1794.98
3320,-3.8439,0.0448,0.9840,1164.31,-1812.44,-1966.86
3330,-3.8439,0.0469,0.9834,1742.43,1953.19,1923.77
3340,-3.8439,0.0470,0.9843,-1991.94,1875.06,1970.64
3350,-3.8439,0.0450,0.9855,-1976.32,1984.44,-1904.36
3360,-3.8439,0.0421,0.9871,1773.68,-1859.31,-1732.48
3370,-3.8439,0.0403,0.9888,1398.68,-1656.19,-1576.23
3380,-3.8439,0.0413,0.9897,1164.31,-1437.44,-1607.48
3390,-3.8439,0.0437,0.9905,1289.31,-1312.44,-1654.36
3400,-3.8439,0.0460,0.9910,1601.81,-1218.69,-1654.36
3410,-3.8439,0.0480,0.9902,1898.68,-1156.19,-1544.98
3420,-3.8439,0.0486,0.9894,-1851.32,-1249.94,-1326.23
3430,-3.8439,0.0472,0.9895,-1773.19,-1359.31,-1138.73
3440,-3.8439,0.0455,0.9896,-1945.07,-1343.69,-1044.98
3450,-3.8439,0.0446,0.9884,1836.18,-1328.06,-1029.36
3460,-3.8439,0.0437,0.9866,1711.18,-1484.31,-1107.48
3470,-3.8439,0.0436,0.9856,1601.81,-1718.69,-1341.86
3480,-3.8439,0.0452,0.9868,1586.18,-1843.69,-1685.61
3490,-3.8439,0.0471,0.9889,1789.31,-1687.44,-1951.23
3500,-3.8439,0.0486,0.9906,-1960.69,-1421.81,1970.64
3510,-3.8439,0.0500,0.9906,-1773.19,-1203.06,1955.02
3520,-3.8439,0.0510,0.9884,-1585.69,-1203.06,1830.02
3530,-3.8439,0.0505,0.9868,-1460.69,-1484.31,1673.77
3540,-3.8439,0.0485,0.9878,-1523.19,-1687.44,1658.14
3550,-3.8439,0.0457,0.9900,-1788.82,-1562.44,1814.39
3560,-3.8439,0.0437,0.9910,1851.81,-1281.19,1986.27
3570,-3.8439,0.0435,0.9906,1601.81,-1156.19,-1888.73
3580,-3.8439,0.0436,0.9889,1570.56,-1203.06,-1763.73
3590,-3.8439,0.0432,0.9868,1586.18,-1421.81,-1888.73
3600,-3.8439,0.0420,0.9867,1539.31,-1687.44,1845.64
3610,-3.8439,0.0398,0.9867,1383.06,-1703.06,1548.77
3620,-3.8439,0.0378,0.9846,1101.81,-1703.06,1236.27
3630,-3.8439,0.0376,0.9834,851.81,-1968.69,1080.02
3640,-3.8439,0.0377,0.9854,820.56,1875.06,1173.77
3650,-3.8439,0.0381,0.9890,836.18,-1874.94,1361.27
3660,-3.8439,0.0393,0.9917,883.06,-1406.19,1486.27
3670,-3.8439,0.0409,0.9935,1039.31,-1062.44,1626.89
3680,-3.8439,0.0428,0.9943,1242.43,-828.06,1876.89
3690,-3.8439,0.0455,0.9929,1492.43,-734.31,-1951.23
3700,-3.8439,0.0460,0.9912,1836.18,-906.19,1939.39
3710,-3.8439,0.0479,0.9935,1898.68,-1124.94,1751.89
3720,-3.8439,0.0505,0.9946,-1866.94,-828.06,-1951.23
3730,-3.8439,0.0458,0.9904,-1523.19,-687.44,1939.39
3740,-3.8439,0.0353,0.9872,1867.43,-1234.31,1408.14
3750,-3.8439,0.0315,0.9856,523.68,-1640.56,1439.39
3760,-3.8439,0.0360,0.9856,39.31,-1843.69,1517.52
3770,-3.8439,0.0409,0.9874,617.43,-1843.69,1486.27
3780,-3.8439,0.0422,0.9883,1242.43,-1609.31,1517.52
3790,-3.8439,0.0397,0.9890,1414.31,-1499.94,1611.27
3800,-3.8439,0.0369,0.9907,1086.18,-1406.19,1705.02
3810,-3.8439,0.0363,0.9928,726.81,-1187.44,1845.64
3820,-3.8439,0.0375,0.9924,648.68,-921.81,-1826.23
3830,-3.8439,0.0397,0.9886,804.93,-968.69,-1529.36
3840,-3.8439,0.0415,0.9844,1086.18,-1453.06,-1529.36
3850,-3.8439,0.0425,0.9846,1320.56,-1999.94,-1513.73
3860,-3.8439,0.0431,0.9889,1445.56,-1968.69,-1216.86
3870,-3.8439,0.0415,0.9943,1523.68,-1421.81,-1123.11
3880,-3.8439,0.0380,0.9962,1320.56,-734.31,-1216.86
3890,-3.8439,0.0366,0.9932,867.43,-484.31,-1091.86
3900,-3.8439,0.0385,0.9905,695.56,-874.94,-1201.23
3910,-3.8439,0.0415,0.9902,929.93,-1218.69,-1623.11
3920,-3.8439,0.0443,0.9933,1320.56,-1249.94,-1841.86
3930,-3.8439,0.0459,0.9985,1679.93,-859.31,-1716.86
3940,-3.8439,0.0470,1.0021,1883.06,-187.44,-1404.36
3950,-3.8439,0.0491,1.0026,-1976.32,265.69,-1060.55
3960,-3.8439,0.0519,1.0020,-1710.69,328.19,-841.80
3970,-3.8439,0.0524,1.0012,-1351.32,250.06,-810.55
3980,-3.8439,0.0505,0.9998,-1288.82,156.31,-748.05
3990,-3.8439,0.0480,0.9978,-1523.19,-31.19,-841.86
4000,-3.8439,0.0454,0.9957,-1851.32,-281.19,-1279.36
4010,-3.8439,0.0443,0.9935,1820.56,-546.81,-1669.98
4020,-3.8439,0.0453,0.9911,1679.93,-828.06,-1826.23
4030,-3.8439,0.0459,0.9894,1804.93,-1140.56,-1888.73
4040,-3.8439,0.0452,0.9902,1883.06,-1359.31,-1982.48
4050,-3.8439,0.0441,0.9921,1789.31,-1249.94,-1966.86
4060,-3.8439,0.0441,0.9928,1648.68,-1015.56,-1904.36
4070,-3.8439,0.0460,0.9923,1648.68,-921.81,-1951.23
4080,-3.8439,0.0487,0.9919,1898.68,-984.31,-1998.11
4090,-3.8439,0.0502,0.9923,-1757.57,-1031.19,1892.52
4100,-3.8439,0.0491,0.9950,-1570.07,-984.31,1751.89
4110,-3.8439,0.0472,0.9983,-1710.69,-640.56,1767.52
4120,-3.8439,0.0460,0.9983,-1945.07,-218.69,1955.02
4130,-3.8439,0.0459,0.9951,1898.68,-218.69,-1919.98
4140,-3.8439,0.0481,0.9922,1883.06,-624.94,-1951.23
4150,-3.8439,0.0518,0.9893,-1835.69,-999.94,-1966.86
4160,-3.8439,0.0533,0.9871,-1366.94,-1374.94,-1904.36
4170,-3.8439,0.0525,0.9865,-1163.82,-1656.19,-1919.98
4180,-3.8439,0.0513,0.9877,-1273.19,-1734.31,-1998.11
4190,-3.8439,0.0502,0.9899,-1429.44,-1578.06,1830.02
4200,-3.8439,0.0500,0.9913,-1570.07,-1296.81,1658.14
4210,-3.8439,0.0511,0.9921,-1585.69,-1109.31,1673.77
4220,-3.8439,0.0522,0.9928,-1445.07,-1015.56,1751.89
4230,-3.8439,0.0532,0.9939,-1304.44,-921.81,1814.39
4240,-3.8439,0.0531,0.9952,-1179.44,-781.19,1861.27
4250,-3.8439,0.0516,0.9961,-1195.07,-609.31,1986.27
4260,-3.8439,0.0499,0.9950,-1382.57,-499.94,-1763.73
4270,-3.8439,0.0487,0.9934,-1601.32,-640.56,-1341.86
4280,-3.8439,0.0477,0.9935,-1757.57,-843.69,-951.23
4290,-3.8439,0.0463,0.9933,-1882.57,-828.06,-810.61
4300,-3.8439,0.0448,0.9915,1929.93,-859.31,-763.73
4310,-3.8439,0.0433,0.9883,1742.43,-1093.69,-810.61
4320,-3.8439,0.0421,0.9846,1554.93,-1499.94,-1169.98
4330,-3.8439,0.0413,0.9825,1398.68,-1968.69,-1732.48
4340,-3.8439,0.0400,0.9836,1289.31,1765.69,1736.27
4350,-3.8439,0.0387,0.9872,1133.06,1906.31,1486.27
4360,-3.8439,0.0388,0.9910,961.18,-1640.56,1548.77
4370,-3.8439,0.0409,0.9934,976.81,-1156.19,1783.14
4380,-3.8439,0.0433,0.9952,1242.43,-843.69,-1841.86
4390,-3.8439,0.0448,0.9973,1554.93,-609.31,-1498.11
4400,-3.8439,0.0455,0.9990,1742.43,-343.69,-1294.98
4410,-3.8439,0.0463,0.9990,1836.18,-124.94,-1185.61
4420,-3.8439,0.0465,0.9978,1929.93,-124.94,-1310.61
4430,-3.8439,0.0458,0.9971,1961.18,-281.19,-1576.23
4440,-3.8439,0.0438,0.9960,1867.43,-374.94,-1810.61
4450,-3.8439,0.0422,0.9934,1617.43,-515.56,-1966.86
4460,-3.8439,0.0431,0.9904,1414.31,-843.69,1923.77
4470,-3.8439,0.0458,0.9901,1523.68,-1234.31,1751.89
4480,-3.8439,0.0477,0.9932,1867.43,-1265.56,1548.77
4490,-3.8439,0.0485,0.9983,-1882.57,-874.94,1580.02
4500,-3.8439,0.0481,1.0033,-1788.82,-218.69,-1998.11
4510,-3.8439,0.0482,1.0045,-1835.69,421.94,-1482.42
4520,-3.8439,0.0487,1.0005,-1820.07,578.19,-1201.17
4530,-3.8439,0.0482,0.9941,-1757.57,62.56,-1154.30
4540,-3.8439,0.0457,0.9902,-1820.07,-749.94,-1248.11
4550,-3.8439,0.0408,0.9895,1851.81,-1249.94,-1466.86
4560,-3.8439,0.0355,0.9890,1226.81,-1343.69,-1607.48
4570,-3.8439,0.0332,0.9877,554.93,-1406.19,-1498.11
4580,-3.8439,0.0345,0.9856,258.06,-1578.06,-1310.61
4590,-3.8439,0.0371,0.9838,429.93,-1843.69,-1263.73
4600,-3.8439,0.0386,0.9852,758.06,1921.94,-1404.36
4610,-3.8439,0.0387,0.9902,945.56,-1890.56,-1544.98
4620,-3.8439,0.0381,0.9945,961.18,-1249.94,-1638.73
4630,-3.8439,0.0383,0.9950,883.06,-703.06,-1732.48
4640,-3.8439,0.0408,0.9932,914.31,-640.56,-1966.86
4650,-3.8439,0.0436,0.9915,1226.81,-874.94,1705.02
4660,-3.8439,0.0443,0.9910,1586.18,-1093.69,1376.89
4670,-3.8439,0.0420,0.9932,1679.93,-1156.19,1173.77
4680,-3.8439,0.0387,0.9965,1383.06,-874.94,1220.64
4690,-3.8439,0.0372,0.9982,961.18,-453.06,1580.02
4700,-3.8439,0.0375,0.9973,773.68,-234.31,1955.02
4710,-3.8439,0.0381,0.9949,804.93,-343.69,-1904.36
4720,-3.8439,0.0383,0.9923,883.06,-656.19,-1826.23
4730,-3.8439,0.0376,0.9911,914.31,-984.31,-1763.73
4740,-3.8439,0.0376,0.9910,820.56,-1140.56,-1748.11
4750,-3.8439,0.0391,0.9908,820.56,-1156.19,-1826.23
4760,-3.8439,0.0410,0.9901,1008.06,-1171.81,-1935.61
4770,-3.8439,0.0422,0.9888,1258.06,-1265.56,1955.02
4780,-3.8439,0.0421,0.9873,1414.31,-1437.44,1908.14
4790,-3.8439,0.0408,0.9877,1398.68,-1624.94,1986.27
4800,-3.8439,0.0389,0.9894,1226.81,-1578.06,-1873.11
4810,-3.8439,0.0387,0.9900,992.43,-1359.31,-1669.98
4820,-3.8439,0.0398,0.9888,961.18,-1281.19,-1388.73
4830,-3.8439,0.0404,0.9863,1101.81,-1437.44,-1294.98
4840,-3.8439,0.0405,0.9851,1179.93,-1749.94,-1466.86
4850,-3.8439,0.0406,0.9863,1195.56,-1906.19,-1591.86
4860,-3.8439,0.0415,0.9890,1211.18,-1749.94,-1638.73
4870,-3.8439,0.0433,0.9908,1320.56,-1406.19,-1623.11
4880,-3.8439,0.0458,0.9902,1554.93,-1171.81,-1513.73
4890,-3.8439,0.0482,0.9872,1867.43,-1249.94,-1623.11
4900,-3.8439,0.0493,0.9839,-1820.07,-1640.56,-1919.98
4910,-3.8439,0.0485,0.9827,-1679.44,1937.56,1845.64
4920,-3.8439,0.0461,0.9836,-1788.82,1781.31,1783.14
4930,-3.8439,0.0446,0.9854,1914.31,1906.31,1908.14
4940,-3.8439,0.0448,0.9878,1711.18,-1874.94,-1826.23
4950,-3.8439,0.0448,0.9913,1742.43,-1562.44,-1576.23
4960,-3.8439,0.0439,0.9950,1742.43,-1109.31,-1482.48
4970,-3.8439,0.0438,0.9976,1633.06,-640.56,-1404.36
4980,-3.8439,0.0457,0.9980,1617.43,-312.44,-1138.73
4990,-3.8439,0.0485,0.9960,1851.81,-249.94,-966.86
5000,-3.8439,0.0502,0.9929,-1788.82,-515.56,-1076.23
5010,-3.8439,0.0500,0.9915,-1570.07,-906.19,-1341.86
5020,-3.8439,0.0487,0.9913,-1585.69,-1093.69,-1607.48
5030,-3.8439,0.0479,0.9924,-1757.57,-1109.31,-1716.86
5040,-3.8439,0.0492,0.9938,-1866.94,-968.69,-1841.86
5050,-3.8439,0.0509,0.9944,-1695.07,-796.81,-1919.98
5060,-3.8439,0.0511,0.9943,-1476.32,-718.69,-1716.86
5070,-3.8439,0.0510,0.9937,-1445.07,-734.31,-1341.86
5080,-3.8439,0.0514,0.9926,-1460.69,-812.44,-966.86
5090,-3.8439,0.0496,0.9907,-1413.82,-953.06,-685.61
5100,-3.8439,0.0448,0.9885,-1648.19,-1187.44,-373.11
5110,-3.8439,0.0394,0.9872,1742.43,-1468.69,-169.98
5120,-3.8439,0.0367,0.9875,1054.93,-1640.56,-169.98
5130,-3.8439,0.0367,0.9889,711.18,-1593.69,-326.23
5140,-3.8439,0.0381,0.9895,711.18,-1421.81,-763.73
5150,-3.8439,0.0398,0.9880,883.06,-1343.69,-1216.86
5160,-3.8439,0.0413,0.9860,1101.81,-1531.19,-1669.98
5170,-3.8439,0.0424,0.9858,1289.31,-1796.81,1830.02
5180,-3.8439,0.0442,0.9889,1429.93,-1812.44,1689.39
5190,-3.8439,0.0468,0.9919,1664.31,-1421.81,1970.64
5200,-3.8439,0.0485,0.9928,1992.43,-1031.19,-1513.73
5210,-3.8439,0.0496,0.9928,-1788.82,-921.81,-1044.98
5220,-3.8439,0.0494,0.9932,-1648.19,-921.81,-873.11
5230,-3.8439,0.0474,0.9940,-1663.82,-874.94,-904.36
5240,-3.8439,0.0453,0.9941,-1929.44,-765.56,-935.61
5250,-3.8439,0.0438,0.9924,1804.93,-749.94,-1138.73
5260,-3.8439,0.0430,0.9901,1617.43,-968.69,-1544.98
5270,-3.8439,0.0436,0.9888,1508.06,-1265.56,-1966.86
5280,-3.8439,0.0458,0.9888,1586.18,-1437.44,1814.39
5290,-3.8439,0.0493,0.9899,1867.43,-1437.44,1845.64
5300,-3.8439,0.0535,0.9921,-1679.44,-1296.81,-1857.48
5310,-3.8439,0.0559,0.9940,-1148.19,-1015.56,-1435.61
5320,-3.8439,0.0549,0.9951,-835.69,-765.56,-982.48
5330,-3.8439,0.0502,0.9966,-960.69,-624.94,-560.61
5340,-3.8439,0.0435,0.9980,-1570.07,-437.44,-232.48
5350,-3.8750,0.0388,0.9983,1570.56,-249.94,95.64
5360,-3.8750,0.0391,0.9960,976.81,-218.69,330.02
5370,-3.8750,0.0430,0.9918,1008.06,-515.56,314.39
5380,-3.8750,0.0471,0.9886,1508.06,-1046.81,111.27
5390,-3.8439,0.0496,0.9877,-1960.69,-1453.06,-232.48
5400,-3.8439,0.0504,0.9890,-1648.19,-1578.06,-607.48
5410,-3.8439,0.0509,0.9917,-1538.82,-1406.19,-826.23
5420,-3.8439,0.0519,0.9941,-1476.32,-1062.44,-966.86
5430,-3.8439,0.0532,0.9965,-1351.32,-749.94,-1060.61
5440,-3.8439,0.0536,0.9985,-1179.44,-453.06,-1013.73
5450,-3.8439,0.0527,1.0007,-1132.57,-187.44,-810.61
5460,-3.8439,0.0515,1.0016,-1241.94,93.81,-560.55
5470,-3.8439,0.0509,0.9990,-1398.19,203.19,-388.67
5480,-3.8439,0.0507,0.9943,-1476.32,-124.94,-310.61
5490,-3.8439,0.0493,0.9900,-1507.57,-734.31,-576.23
5500,-3.8439,0.0476,0.9889,-1679.44,-1281.19,-1013.73
5510,-3.8439,0.0476,0.9908,-1898.19,-1421.81,-1279.36
5520,-3.8439,0.0499,0.9937,-1898.19,-1171.81,-1419.98
5530,-3.8439,0.0536,0.9949,-1601.32,-812.44,-1513.73
5540,-3.8439,0.0575,0.9940,-1132.57,-656.19,-1654.36
5550,-3.8439,0.0604,0.9913,-632.57,-765.56,-1935.61
5560,-3.8439,0.0614,0.9884,-257.57,-1109.31,1908.14
5570,-3.8439,0.0591,0.9880,-132.57,-1484.31,-1873.11
5580,-3.8439,0.0540,0.9910,-429.44,-1531.19,-1404.36
5590,-3.8439,0.0488,0.9957,-1085.69,-1156.19,-857.48
5600,-3.8439,0.0461,0.9993,-1741.94,-546.81,-388.73
5610,-3.8439,0.0470,1.0002,1914.31,-93.69,-107.48
5620,-3.8750,0.0498,0.9990,-1976.32,31.31,33.20
5630,-3.8439,0.0521,0.9961,-1616.94,-124.94,-60.61
5640,-3.8439,0.0525,0.9927,-1320.07,-499.94,-310.61
5650,-3.8439,0.0513,0.9893,-1273.19,-937.44,-607.48
5660,-3.8439,0.0496,0.9867,-1429.44,-1374.94,-857.48
5670,-3.8439,0.0477,0.9868,-1648.19,-1703.06,-966.86
5680,-3.8439,0.0469,0.9897,-1882.57,-1687.44,-935.61
5690,-3.8439,0.0474,0.9926,-1991.94,-1312.44,-654.36
5700,-3.8439,0.0486,0.9937,-1929.44,-953.06,-185.61
5710,-3.8750,0.0498,0.9941,-1773.19,-812.44,189.39
5720,-3.8750,0.0500,0.9951,-1616.94,-749.94,361.27
5730,-3.8750,0.0498,0.9956,-1585.69,-624.94,470.64
5740,-3.8750,0.0494,0.9946,-1616.94,-562.44,626.89
5750,-3.8750,0.0488,0.9923,-1663.82,-687.44,611.27
5760,-3.8750,0.0486,0.9906,-1741.94,-984.31,548.77
5770,-3.8750,0.0491,0.9897,-1773.19,-1203.06,533.14
5780,-3.8750,0.0493,0.9884,-1710.69,-1312.44,470.64
5790,-3.8750,0.0500,0.9858,-1679.44,-1484.31,330.02
5800,-3.8750,0.0508,0.9823,-1585.69,-1812.44,48.77
5810,-3.8439,0.0505,0.9790,-1491.94,1734.44,-263.73
5820,-3.8439,0.0492,0.9773,-1523.19,1312.56,-607.48
5830,-3.8439,0.0470,0.9780,-1695.07,1093.81,-919.98
5840,-3.8439,0.0448,0.9813,-1976.32,1187.56,-1123.11
5850,-3.8439,0.0442,0.9854,1742.43,1609.44,-1341.86
5860,-3.8439,0.0459,0.9867,1664.31,-1874.94,-1529.36
5870,-3.8439,0.0491,0.9852,1883.06,-1703.06,-1685.61
5880,-3.8439,0.0518,0.9843,-1710.69,-1890.56,-1841.86
5890,-3.8439,0.0524,0.9869,-1366.94,1984.44,1955.02
5900,-3.8439,0.0515,0.9916,-1288.82,-1671.81,1830.02
5910,-3.8439,0.0514,0.9930,-1398.19,-1078.06,-1935.61
5920,-3.8439,0.0538,0.9910,-1413.82,-890.56,-1482.48
5930,-3.8439,0.0576,0.9880,-1101.32,-1156.19,-1248.11
5940,-3.8439,0.0605,0.9861,-616.94,-1531.19,-1341.86
5950,-3.8439,0.0623,0.9861,-241.94,-1781.19,-1466.86
5960,-3.8439,0.0632,0.9885,-23.19,-1781.19,-1498.11
5970,-3.8439,0.0631,0.9921,101.81,-1468.63,-1310.61
5980,-3.8439,0.0614,0.9945,86.18,-1015.50,-935.61
5990,-3.8439,0.0586,0.9965,-132.57,-703.06,-591.86
6000,-3.8439,0.0555,0.9980,-491.94,-453.06,-279.36
6010,-3.8750,0.0533,0.9966,-882.57,-249.94,17.52
6020,-3.8750,0.0521,0.9911,-1163.82,-437.44,142.52
6030,-3.8439,0.0509,0.9846,-1320.07,-1140.56,-107.48
6040,-3.8439,0.0499,0.9806,-1476.32,-1968.69,-419.98
6050,-3.8439,0.0492,0.9799,-1601.32,1515.69,-529.36
6060,-3.8439,0.0475,0.9836,-1695.07,1421.94,-466.86
6070,-3.8439,0.0461,0.9897,-1913.82,1906.31,-294.98
6080,-3.8439,0.0480,0.9946,1914.31,-1312.44,-29.36
6090,-3.8750,0.0533,0.9961,-1851.32,-687.44,267.52
6100,-3.8750,0.0599,0.9948,-1163.82,-499.94,345.64
6110,-3.8750,0.0653,0.9939,-320.07,-671.81,142.52
6120,-3.8439,0.0682,0.9951,367.43,-781.13,-123.11
6130,-3.8439,0.0682,0.9961,742.43,-624.88,-388.73
6140,-3.8439,0.0658,0.9948,742.43,-499.88,-623.11
6150,-3.8439,0.0623,0.9913,429.93,-671.75,-826.23
6160,-3.8439,0.0582,0.9877,-23.19,-1109.31,-1013.73
6170,-3.8439,0.0548,0.9857,-538.82,-1578.06,-1060.61
6180,-3.8439,0.0526,0.9851,-976.32,-1828.06,-888.73
6190,-3.8439,0.0526,0.9844,-1257.57,-1906.19,-638.73
6200,-3.8439,0.0543,0.9825,-1257.57,-1999.94,-466.86
6210,-3.8439,0.0562,0.9814,-1038.82,1765.69,-419.98
6220,-3.8439,0.0573,0.9828,-804.44,1625.06,-560.61
6230,-3.8439,0.0570,0.9847,-663.82,1796.94,-904.36
6240,-3.8439,0.0557,0.9862,-695.07,-1953.06,-1169.98
6250,-3.8439,0.0549,0.9860,-866.94,-1765.56,-1341.86
6260,-3.8439,0.0548,0.9847,-960.69,-1796.81,-1560.61
6270,-3.8439,0.0547,0.9835,-976.32,-1953.06,-1810.61
6280,-3.8439,0.0532,0.9822,-991.94,1890.69,1814.39
6290,-3.8439,0.0504,0.9814,-1179.44,1718.81,1486.27
6300,-3.8439,0.0465,0.9818,-1538.82,1625.06,1220.64
6310,-3.8439,0.0421,0.9830,1961.18,1671.94,892.52
6320,-3.8439,0.0392,0.9839,1398.68,1828.19,689.39
6330,-3.8439,0.0380,0.9844,1023.68,1937.56,767.52
6340,-3.8439,0.0385,0.9869,867.43,-1999.94,1095.64
6350,-3.8439,0.0410,0.9916,929.93,-1671.81,1705.02
6360,-3.8439,0.0450,0.9961,1258.06,-1078.06,-1544.98
6370,-3.8439,0.0503,0.9979,1773.68,-499.94,-763.73
6380,-3.8439,0.0557,0.9978,-1554.44,-265.56,-29.36
6390,-3.8750,0.0585,0.9978,-866.94,-281.19,423.77
6400,-3.8750,0.0576,0.9995,-507.57,-281.19,564.39
6410,-3.8750,0.0563,1.0033,-616.94,-62.44,564.39
6420,-3.8750,0.0573,1.0074,-788.82,421.94,830.08
6430,-3.8750,0.0610,1.0104,-663.82,953.19,1142.58
6440,-3.8750,0.0659,1.0122,-179.44,1328.19,1283.20
6450,-3.8750,0.0677,1.0144,445.56,1562.62,1267.58
6460,-3.8750,0.0649,1.0159,679.93,1843.87,1064.45
6470,-3.8750,0.0591,1.0150,320.56,-1968.63,798.83
6480,-3.8750,0.0529,1.0123,-429.44,1921.94,548.83
6490,-3.8750,0.0471,1.0085,-1226.32,1578.19,423.83
6500,-3.8750,0.0424,1.0039,-1960.69,1093.81,251.95
6510,-3.8750,0.0386,0.9976,1429.93,500.06,173.83
6520,-3.8750,0.0350,0.9918,945.56,-312.44,236.27
6530,-3.8750,0.0316,0.9895,492.43,-1046.81,205.02
6540,-3.8750,0.0286,0.9891,54.93,-1343.69,189.39
6550,-3.8750,0.0259,0.9884,-335.69,-1390.62,205.02
6560,-3.8750,0.0261,0.9863,-679.44,-1484.38,158.14
6570,-3.8750,0.0305,0.9840,-648.19,-1750.00,1.89
6580,-3.8439,0.0371,0.9835,-85.69,1953.12,-201.23
6590,-3.8439,0.0443,0.9850,758.06,1890.69,-435.61
6600,-3.8439,0.0515,0.9884,1679.93,-1921.81,-482.48
6610,-3.8439,0.0587,0.9927,-1398.19,-1484.31,-451.23
6620,-3.8439,0.0663,0.9958,-476.32,-937.44,-498.11
6630,-3.8439,0.0751,0.9962,492.43,-531.13,-685.61
6640,-3.8439,0.0847,0.9927,1617.43,-484.25,-1091.86
6650,-3.8439,0.0925,0.9874,-1148.19,-937.38,-1576.23
6660,-3.8439,0.0969,0.9844,-148.19,-1609.25,-1904.36
6670,-3.8439,0.0974,0.9847,414.31,-1999.82,1923.77
6680,-3.8439,0.0946,0.9865,476.81,-1952.94,1814.39
6690,-3.8439,0.0902,0.9865,117.43,-1734.19,1798.77
6700,-3.8439,0.0857,0.9845,-445.07,-1734.25,1689.39
6710,-3.8439,0.0813,0.9819,-1023.19,-1984.25,1486.27
6720,-3.8439,0.0774,0.9791,-1585.69,1687.62,1173.77
6730,-3.8439,0.0730,0.9768,1914.31,1328.25,705.02
6740,-3.8439,0.0676,0.9746,1351.81,1031.37,236.27
6750,-3.8440,0.0627,0.9739,664.31,750.12,-107.48
6760,-3.8440,0.0587,0.9753,39.31,656.37,-404.36
6770,-3.8440,0.0549,0.9773,-476.32,843.81,-607.48
6780,-3.8440,0.0518,0.9784,-960.69,1093.81,-826.23
6790,-3.8440,0.0487,0.9769,-1366.94,1234.44,-904.36
6800,-3.8440,0.0452,0.9746,-1757.57,1046.94,-560.61
6810,-3.8439,0.0409,0.9750,1789.31,750.06,33.14
6820,-3.8439,0.0365,0.9781,1242.43,796.94,455.02
6830,-3.8439,0.0334,0.9844,679.93,1203.19,689.39
6840,-3.8439,0.0326,0.9919,289.31,-1999.94,814.39
6850,-3.8439,0.0349,0.9961,179.93,-1031.19,595.64
6860,-3.8439,0.0402,0.9957,476.81,-499.94,33.14
6870,-3.8440,0.0448,0.9944,1148.68,-546.81,-576.23
6880,-3.8440,0.0469,0.9950,1742.43,-718.69,-935.61
6890,-3.8440,0.0466,0.9972,-1991.94,-640.56,-1091.86
6900,-3.8440,0.0446,0.9990,1976.81,-359.31,-1060.61
6910,-3.8440,0.0419,0.9998,1711.18,-124.94,-716.86
6920,-3.8440,0.0387,0.9995,1367.43,-31.19,-388.73
6930,-3.8440,0.0337,0.9984,961.18,-62.44,-107.48
6940,-3.8439,0.0275,0.9974,320.56,-203.06,361.27
6950,-3.8439,0.0233,0.9967,-476.32,-328.12,1095.64
6960,-3.8439,0.0232,0.9948,-1007.57,-421.88,1908.14
6970,-3.8439,0.0258,0.9918,-1023.19,-671.88,-1326.23
6980,-3.8439,0.0295,0.9883,-695.07,-1046.88,-779.36
6990,-3.8439,0.0336,0.9839,-210.69,-1500.00,-560.61
7000,-3.8439,0.0369,0.9801,304.93,1937.56,-576.23
7010,-3.8439,0.0398,0.9779,726.81,1453.19,-732.48
7020,-3.8439,0.0419,0.9772,1101.81,1171.94,-841.86
7030,-3.8439,0.0419,0.9786,1367.43,1078.19,-919.98
7040,-3.8439,0.0411,0.9823,1367.43,1265.69,-951.23
7050,-3.8439,0.0416,0.9849,1273.68,1734.44,-951.23
7060,-3.8439,0.0449,0.9849,1336.18,-1937.44,-1013.73
7070,-3.8439,0.0502,0.9833,1758.06,-1937.44,-1091.86
7080,-3.8439,0.0547,0.9812,-1570.07,1859.44,-1216.86
7090,-3.8439,0.0592,0.9789,-991.94,1593.81,-1482.48
7100,-3.8439,0.0626,0.9775,-413.82,1296.94,-1748.11
7110,-3.8439,0.0623,0.9789,23.68,1125.12,-1857.48
7120,-3.8439,0.0604,0.9811,-23.19,1296.94,-1841.86
7130,-3.8439,0.0588,0.9830,-257.57,1578.19,-1826.23
7140,-3.8439,0.0576,0.9863,-460.69,1828.19,-1841.86
7150,-3.8439,0.0579,0.9908,-616.94,-1749.94,-1919.98
7160,-3.8439,0.0586,0.9946,-585.69,-1171.81,1923.77
7170,-3.8439,0.0591,0.9977,-491.94,-687.44,1783.14
7180,-3.8439,0.0587,0.9998,-429.44,-296.81,1658.14
7190,-3.8439,0.0562,0.9993,-476.32,-31.19,1376.89
7200,-3.8439,0.0524,0.9962,-804.44,-93.69,908.14
7210,-3.8439,0.0487,0.9928,-1288.82,-484.31,283.14
7220,-3.8440,0.0461,0.9912,-1757.57,-921.81,-326.23
7230,-3.8440,0.0454,0.9928,1914.31,-1124.94,-763.73
7240,-3.8440,0.0464,0.9969,1820.56,-921.81,-935.61
7250,-3.8440,0.0488,1.0028,1945.56,-390.56,-763.73
7260,-3.8440,0.0522,1.0088,-1741.94,359.44,-513.67
7270,-3.8440,0.0554,1.0123,-1304.44,1125.06,-404.30
7280,-3.8440,0.0571,1.0139,-898.19,1578.19,-388.67
7290,-3.8440,0.0577,1.0176,-679.44,1781.31,-310.55
7300,-3.8440,0.0579,1.0236,-601.32,-1749.94,-91.80
7310,-3.8439,0.0592,1.0293,-585.69,-984.31,470.70
7320,-3.8439,0.0630,1.0354,-413.82,-249.94,1283.20
7330,-3.8439,0.0697,1.0414,70.56,531.37,-1919.86
7340,-3.8439,0.0787,1.0441,929.93,1297.00,-1154.24
7350,-3.8439,0.0864,1.0422,-1913.82,1640.75,-654.24
7360,-3.8439,0.0900,1.0360,-929.44,1406.37,-497.99
7370,-3.8439,0.0883,1.0284,-476.32,609.50,-591.74
7380,-3.8439,0.0804,1.0216,-695.07,-359.25,-701.17
7390,-3.8439,0.0679,1.0153,-1695.07,-1234.25,-654.30
7400,-3.8439,0.0546,1.0090,695.56,1953.25,-357.42
7410,-3.8750,0.0436,1.0016,-1007.57,1156.31,126.95
7420,-3.8750,0.0355,0.9927,1586.18,203.19,470.70
7430,-3.8750,0.0264,0.9840,554.93,-937.44,626.89
7440,-3.8750,0.0153,0.9772,-616.94,1953.12,783.14
7450,-3.8750,0.0056,0.9723,1961.18,1078.12,908.14
7460,-3.8750,0.0005,0.9684,726.81,453.12,908.14
7470,-3.8750,0.0016,0.9650,70.56,-46.88,829.96
7480,-3.8750,0.0088,0.9626,211.18,-484.38,658.08
7490,-3.8750,0.0195,0.9623,1133.06,-781.25,298.71
7500,-3.8439,0.0312,0.9640,-1491.94,-828.12,-420.04
7510,-3.8439,0.0422,0.9662,8.06,-609.31,-1529.42
7520,-3.8439,0.0507,0.9685,1414.31,-328.06,1204.96
7530,-3.8439,0.0552,0.9736,-1507.57,-31.19,64.33
7540,-3.8440,0.0565,0.9791,-929.44,625.06,-904.36
7550,-3.8440,0.0573,0.9812,-757.57,1328.19,-1748.11
7560,-3.8440,0.0590,0.9808,-663.82,1593.81,1580.02
7570,-3.8440,0.0614,0.9814,-445.07,1546.94,1189.39
7580,-3.8440,0.0645,0.9856,-132.57,1625.06,1111.27
7590,-3.8440,0.0687,0.9930,258.06,-1843.63,1158.14
7600,-3.8440,0.0735,1.0023,804.93,-890.50,1392.52
7610,-3.8440,0.0791,1.0120,1414.31,297.00,1720.70
7620,-3.8440,0.0870,1.0184,-1866.94,1531.37,-1966.80
7630,-3.8440,0.0956,1.0205,-851.32,-1640.50,-1654.30
7640,-3.8440,0.1022,1.0201,242.43,-1374.82,-1279.30
7650,-3.8440,0.1046,1.0181,1086.18,-1421.69,-685.55
7660,-3.8439,0.1019,1.0142,1398.68,-1687.32,189.45
7670,-3.8439,0.0935,1.0088,1054.93,1812.68,1251.95
7680,-3.8439,0.0814,1.0000,-23.19,1125.12,-1763.67
7690,-3.8439,0.0681,0.9879,-1570.07,0.12,-1107.42
7700,-3.8439,0.0555,0.9752,726.81,-1546.75,-935.61
7710,-3.8439,0.0452,0.9651,-882.57,828.19,-1138.73
7720,-3.8439,0.0374,0.9585,1789.31,-468.69,-1404.42
7730,-3.8439,0.0312,0.9535,789.31,-1312.44,-1623.17
7740,-3.8439,0.0270,0.9510,8.06,-1953.06,-1732.54
7750,-3.8439,0.0254,0.9546,-538.82,1734.38,-1670.04
7760,-3.8439,0.0271,0.9645,-741.94,-1812.50,-1326.29
7770,-3.8439,0.0322,0.9760,-523.19,-546.88,-810.67
7780,-3.8439,0.0406,0.9852,133.06,921.94,-513.73
7790,-3.8439,0.0520,0.9924,1211.18,-1890.56,-748.11
7800,-3.8439,0.0637,0.9979,-1335.69,-968.69,-1419.98
7810,-3.8439,0.0724,0.9995,164.31,-265.50,1580.02
7820,-3.8439,0.0763,0.9971,1273.68,-62.38,361.27
7830,-3.8440,0.0745,0.9926,1773.68,-374.88,-982.48
7840,-3.8440,0.0660,0.9872,1539.31,-953.00,1705.02
7850,-3.8440,0.0516,0.9818,461.18,-1640.50,642.52
7860,-3.8441,0.0354,0.9773,-1382.57,1671.94,-13.73
7870,-3.8441,0.0209,0.9742,539.31,1093.81,-279.36
7880,-3.8441,0.0109,0.9746,-1320.07,703.12,-123.11
7890,-3.8440,0.0061,0.9758,1398.68,750.00,220.64
7900,-3.8440,0.0057,0.9761,789.31,906.25,533.14
7910,-3.8440,0.0071,0.9778,742.43,937.50,955.02
7920,-3.8440,0.0078,0.9807,914.31,1156.25,1517.52
7930,-3.8440,0.0089,0.9833,1008.06,1531.25,-1935.61
7940,-3.8440,0.0090,0.9871,1148.68,1859.38,-1341.86
7950,-3.8440,0.0076,0.9937,1164.31,-1656.25,-638.73
7960,-3.8439,0.0073,1.0013,976.81,-812.50,220.64
7970,-3.8439,0.0093,1.0070,945.56,171.88,1173.83
7980,-3.8439,0.0146,1.0099,1195.56,890.62,1908.20
7990,-3.8439,0.0225,1.0122,1883.06,1265.62,-1623.05
8000,-3.8439,0.0302,1.0156,-1116.94,1562.50,-1263.67
8010,-3.8439,0.0360,1.0201,-132.57,-2000.00,-779.30
8020,-3.8750,0.0382,1.0259,617.43,-1421.81,48.83
8030,-3.8750,0.0355,1.0310,898.68,-687.44,1251.95
8040,-3.8750,0.0293,1.0328,554.93,-31.19,-1279.30
8050,-3.8749,0.0215,1.0315,-241.94,203.12,95.76
8060,-3.8749,0.0134,1.0280,-1241.94,31.25,1002.01
8070,-3.8749,0.0081,1.0214,1726.81,-421.88,1158.20
8080,-3.8749,0.0070,1.0111,1039.31,-1265.62,486.33
8090,-3.8750,0.0083,0.9996,898.68,1421.88,-841.80
8100,-3.8750,0.0098,0.9896,1070.56,-46.88,1548.77
8110,-3.8750,0.0089,0.9845,1258.06,-1328.12,111.27
8120,-3.8439,0.0061,0.9850,1148.68,-1984.38,-873.11
8130,-3.8439,0.0051,0.9878,789.31,-1921.88,-1248.11
8140,-3.8439,0.0082,0.9929,664.31,-1562.50,-998.11
8150,-3.8439,0.0157,1.0004,1054.93,-906.25,-607.48
8160,-3.8439,0.0270,1.0071,-1976.32,46.88,-263.67
8170,-3.8750,0.0389,1.0129,-538.82,906.25,80.08
8180,-3.8750,0.0483,1.0177,992.43,1656.31,236.33
8190,-3.8750,0.0531,1.0201,-1804.44,-1734.31,33.20
8200,-3.8439,0.0518,1.0195,-1195.07,-1421.81,-373.05
8210,-3.8439,0.0453,1.0154,-1366.94,-1499.94,-701.17
8220,-3.8439,0.0360,1.0095,1804.93,1968.81,-779.30
8230,-3.8439,0.0265,1.0029,617.43,1218.81,-544.92
8240,-3.8439,0.0186,0.9968,-601.32,375.00,-248.05
8250,-3.8439,0.0134,0.9899,-1616.94,-406.25,-216.86
8260,-3.8439,0.0120,0.9811,1726.81,-1296.88,-748.11
8270,-3.8439,0.0135,0.9724,1539.31,1578.12,-1763.73
8280,-3.8439,0.0146,0.9648,1742.43,468.75,1158.14
8290,-3.8439,0.0121,0.9620,1883.06,-500.00,486.21
8300,-3.8439,0.0085,0.9639,1554.93,-859.38,329.96
8310,-3.8439,0.0063,0.9655,1101.81,-625.00,626.83
8320,-3.8439,0.0059,0.9653,820.56,-421.88,1142.46
8330,-3.8439,0.0085,0.9642,758.06,-437.50,1298.71
8340,-3.8439,0.0138,0.9625,1101.81,-578.12,1033.08
8350,-3.8439,0.0203,0.9608,1773.68,-796.88,720.58
8360,-3.8439,0.0277,0.9591,-1398.19,-1015.62,423.71
8370,-3.8439,0.0354,0.9583,-445.07,-1234.38,298.71
8380,-3.8439,0.0422,0.9602,539.31,-1343.69,439.33
8390,-3.8439,0.0469,0.9656,1414.31,-1093.69,986.21
8400,-3.8439,0.0507,0.9733,-1991.94,-406.19,-1873.17
8410,-3.8439,0.0558,0.9817,-1507.57,578.19,-435.61
8420,-3.8750,0.0621,0.9900,-851.32,1656.31,798.77
8430,-3.8750,0.0680,0.9937,-38.82,-1281.19,1455.02
8440,-3.8750,0.0698,0.9894,711.18,-812.38,1470.64
8450,-3.8750,0.0657,0.9801,945.56,-1359.25,908.14
8460,-3.8750,0.0560,0.9723,414.31,1453.25,1.89
8470,-3.8439,0.0431,0.9689,-820.07,453.19,-1091.86
8480,-3.8439,0.0305,0.9698,1523.68,15.69,1955.02
8490,-3.8439,0.0225,0.9753,-85.69,140.62,1408.14
8500,-3.8439,0.0211,0.9852,-1116.94,843.75,1126.89
8510,-3.8439,0.0262,0.9985,-1288.82,-1890.62,861.27
8520,-3.8439,0.0364,1.0110,-632.57,-187.50,517.52
8530,-3.8439,0.0486,1.0189,664.31,1406.31,17.58
8540,-3.8440,0.0585,1.0243,-1773.19,-1578.06,-607.42
8550,-3.8440,0.0656,1.0303,-507.57,-890.56,-1169.92
8560,-3.8440,0.0702,1.0355,398.68,-124.88,-1435.55
8570,-3.8440,0.0712,1.0400,992.43,547.00,-1138.61
8580,-3.8440,0.0692,1.0469,1117.43,1125.12,-310.49
8590,-3.8439,0.0665,1.0546,867.43,-1999.88,877.01
8600,-3.8439,0.0638,1.0583,523.68,-1015.50,-1529.24
8610,-3.8750,0.0609,1.0579,179.93,-531.13,298.89
8620,-3.8750,0.0568,1.0555,-195.07,-593.69,1877.01
8630,-3.8750,0.0499,1.0516,-726.32,-890.56,-935.49
8640,-3.8749,0.0396,1.0470,-1601.32,-1390.56,220.76
8650,-3.8749,0.0283,1.0426,1070.56,-1984.31,1298.89
8660,-3.8749,0.0173,1.0363,-366.94,1453.12,1892.64
8670,-3.8749,0.0071,1.0266,-1773.19,640.62,1798.89
8680,-3.8749,0.0006,1.0138,914.31,-593.75,1080.08
8690,-3.8750,0.0011,0.9983,86.18,1765.62,-216.80
8700,-3.8750,0.0089,0.9811,148.68,-218.75,-1998.11
8710,-3.8439,0.0176,0.9658,1148.68,1578.12,-107.48
8720,-3.8439,0.0227,0.9578,-1741.94,-375.00,1876.83
8730,-3.8439,0.0256,0.9548,-1085.69,-1406.25,314.33
8740,-3.8440,0.0291,0.9520,-710.69,-1781.25,-685.67
8750,-3.8440,0.0334,0.9480,-273.19,1859.38,-1357.54
8760,-3.8440,0.0375,0.9462,289.31,1343.81,-1670.04
8770,-3.8440,0.0404,0.9474,804.93,1109.44,-1420.04
8780,-3.8440,0.0413,0.9507,1179.93,1265.69,-591.92
8790,-3.8439,0.0411,0.9550,1289.31,1687.56,689.33
8800,-3.8439,0.0431,0.9586,1273.68,-1765.56,-1904.42
8810,-3.8439,0.0482,0.9602,1523.68,-1296.81,-935.67
8820,-3.8439,0.0535,0.9585,-1820.07,-1093.69,-685.67
8830,-3.8439,0.0565,0.9567,-1148.19,-1312.44,-951.29
8840,-3.8439,0.0574,0.9576,-757.57,-1546.81,-1279.42
8850,-3.8439,0.0554,0.9607,-648.19,-1421.81,-1357.54
8860,-3.8439,0.0510,0.9631,-898.19,-1031.19,-1201.29
8870,-3.8439,0.0466,0.9637,-1460.69,-718.69,-810.67
8880,-3.8439,0.0438,0.9650,1976.81,-640.56,-107.54
8890,-3.8750,0.0417,0.9685,1617.43,-484.31,720.58
8900,-3.8750,0.0397,0.9736,1351.81,-31.19,1470.58
8910,-3.8750,0.0380,0.9788,1086.18,625.06,-1810.61
8920,-3.8750,0.0369,0.9850,867.43,1281.31,-1091.86
8930,-3.8750,0.0366,0.9940,726.81,-1921.81,-544.98
8940,-3.8750,0.0361,1.0039,695.56,-765.56,-263.73
8950,-3.8750,0.0354,1.0099,633.06,500.06,-107.42
8960,-3.8750,0.0360,1.0104,539.31,1265.69,-60.55
8970,-3.8750,0.0367,1.0072,617.43,1328.19,-294.92
8980,-3.8750,0.0356,1.0033,711.18,921.94,-841.80
8990,-3.8750,0.0336,0.9995,570.56,421.94,-1607.42
9000,-3.8750,0.0330,0.9921,304.93,-62.44,1236.27
9010,-3.8439,0.0350,0.9808,226.81,-1015.56,-138.73
9020,-3.8439,0.0397,0.9723,492.43,1546.94,-1201.23
9030,-3.8439,0.0442,0.9709,1086.18,453.19,-1763.73
9040,-3.8439,0.0479,0.9761,1664.31,281.31,-1654.36
9050,-3.8439,0.0514,0.9858,-1866.94,937.56,-748.11
9060,-3.8750,0.0530,0.9983,-1413.82,-1812.44,767.52
9070,-3.8750,0.0527,1.0074,-1210.69,-218.69,-1544.98
9080,-3.8750,0.0555,1.0089,-1241.94,953.19,-248.05
9090,-3.8749,0.0625,1.0046,-882.57,1140.69,345.70
9100,-3.8749,0.0706,0.9990,8.06,593.87,298.83
9110,-3.8750,0.0774,0.9965,1039.31,-124.88,-232.48
9120,-3.8750,0.0818,0.9982,1914.31,-453.00,-935.61
9130,-3.8750,0.0836,1.0029,-1523.19,-234.25,-1716.86
9140,-3.8750,0.0834,1.0084,-1288.82,375.12,1548.83
9150,-3.8750,0.0820,1.0135,-1320.07,1078.25,1236.33
9160,-3.8750,0.0808,1.0203,-1491.94,1734.50,1330.08
9170,-3.8750,0.0796,1.0289,-1648.19,-1406.13,1830.08
9180,-3.8750,0.0797,1.0352,-1804.44,-296.75,-1310.55
9190,-3.8750,0.0830,1.0359,-1788.82,500.12,-451.11
9200,-3.8750,0.0890,1.0314,-1366.94,593.87,-91.74
9210,-3.8750,0.0950,1.0242,-601.32,15.75,-591.74
9220,-3.8750,0.0995,1.0146,164.31,-906.07,-1794.92
9230,-3.8750,0.0997,1.0006,742.43,1875.18,705.08
9240,-3.8439,0.0945,0.9860,773.68,78.31,-576.17
9250,-3.8439,0.0845,0.9763,101.81,-1796.69,-1248.11
9260,-3.8439,0.0710,0.9734,-1179.44,968.87,-1091.86
9270,-3.8750,0.0582,0.9788,1101.81,593.87,220.64
9280,-3.8750,0.0490,0.9940,-538.82,1281.31,-1404.36
9290,-3.8749,0.0441,1.0154,-1726.32,-765.56,1361.27
9300,-3.8749,0.0421,1.0325,1648.68,1968.81,-419.92
9310,-3.8748,0.0426,1.0353,1398.68,156.31,361.39
9320,-3.8749,0.0468,1.0210,1461.18,515.69,-716.74
9330,-3.8749,0.0541,0.9938,1992.43,-1312.44,439.45
9340,-3.8750,0.0614,0.9630,-1070.07,-796.81,423.77
9350,-3.8439,0.0669,0.9369,-132.57,-734.31,79.96
9360,-3.8440,0.0715,0.9169,570.56,-78.00,17.40
9370,-3.8441,0.0773,0.9037,1164.31,1359.50,658.02
9380,-3.8442,0.0839,0.8998,1898.68,-328.00,-1920.17
9390,-3.8442,0.0896,0.9072,-1257.57,-828.00,282.96
9400,-3.8444,0.0970,0.9215,-523.19,125.12,-795.10
9410,-3.8444,0.1085,0.9385,429.93,1953.31,-951.35
9420,-3.8444,0.1216,0.9584,1898.68,125.18,-107.54
9430,-3.8442,0.1333,0.9779,-429.44,-1327.94,1720.58
9440,-3.8441,0.1401,0.9924,1070.56,1172.12,173.77
9450,-3.8441,0.1411,0.9979,1945.56,-968.51,-1451.23
9460,-3.8440,0.1418,0.9912,-1929.44,-265.38,439.39
9470,-3.8440,0.1477,0.9725,-1835.69,-1124.76,1376.89
9480,-3.8440,0.1576,0.9469,-1085.69,484.62,939.39
9490,-3.8441,0.1653,0.9221,179.93,1203.43,-873.17
9500,-3.8441,0.1636,0.9028,1164.31,-1968.44,642.40
9510,-3.8442,0.1515,0.8915,945.56,-437.19,-1451.42
9520,-3.8442,0.1342,0.8888,-601.32,-1890.38,1282.96
9530,-3.8442,0.1167,0.8938,1179.93,1765.87,751.71
9540,-3.8442,0.1042,0.9073,-1054.44,-1593.57,829.83
9550,-3.8442,0.0985,0.9299,1351.81,140.81,1611.15
9560,-3.8442,0.0973,0.9615,617.43,-968.57,-716.98
9570,-3.8441,0.0974,0.9994,461.18,-921.69,1611.21
9580,-3.8441,0.0978,1.0359,476.81,-77.94,-138.73
9590,-3.8440,0.1002,1.0647,523.68,593.93,1658.26
9600,-3.8440,0.1046,1.0830,836.18,281.43,-1372.92
9610,-3.8440,0.1078,1.0900,1398.68,-1374.82,-1357.30
9620,-3.8440,0.1072,1.0909,1804.93,-484.19,-1841.67
9630,-3.8440,0.1028,1.0917,1726.81,-359.19,1923.95
9640,-3.8440,0.0988,1.0940,1164.31,-265.44,-1732.30
9650,-3.8440,0.0988,1.0978,648.68,31.43,-779.11
9660,-3.8439,0.1022,1.1003,648.68,515.81,549.01
9670,-3.8439,0.1058,1.1001,1086.18,843.93,-1888.49
9680,-3.8439,0.1078,1.0964,1554.93,812.68,-388.49
9690,-3.8750,0.1074,1.0854,1804.93,343.93,424.01
9700,-3.8750,0.1055,1.0649,1758.06,-1062.32,486.45
9710,-3.8439,0.1018,1.0387,1508.06,312.68,-185.42
9720,-3.8439,0.0948,1.0115,1039.31,953.31,-1576.11
9730,-3.8439,0.0851,0.9854,148.68,1468.93,705.08
9740,-3.8440,0.0737,0.9601,-1101.32,-1874.88,-998.11
9750,-3.8440,0.0637,0.9363,1445.56,-1109.25,1408.08
9760,-3.8440,0.0575,0.9163,164.31,-156.13,1.77
9770,-3.8441,0.0547,0.9015,-632.57,1281.31,-1388.85
9780,-3.8441,0.0532,0.8914,-991.94,-609.31,1126.71
9790,-3.8442,0.0520,0.8864,-1179.44,-1906.19,-107.67
9800,-3.8442,0.0514,0.8871,-1335.69,1453.19,-935.79
9810,-3.8442,0.0537,0.8945,-1413.82,1546.94,-1529.54
9820,-3.8442,0.0610,0.9047,-1116.94,-1499.94,-1935.79
9830,-3.8442,0.0708,0.9097,-179.44,-203.06,1751.71
9840,-3.8442,0.0806,0.9094,1070.56,437.62,1517.40
9850,-3.8442,0.0897,0.9086,-1679.44,406.37,1376.77
9860,-3.8442,0.0969,0.9103,-507.57,297.00,1298.65
9870,-3.8442,0.1021,0.9149,414.31,515.81,1470.52
9880,-3.8442,0.1052,0.9237,1070.56,1109.56,1908.02
9890,-3.8442,0.1055,0.9362,1476.81,-1765.44,-1607.60
9900,-3.8442,0.1031,0.9489,1508.06,-171.69,-1232.60
9910,-3.8442,0.1019,0.9589,1211.18,1453.31,-1091.92
9920,-3.8442,0.1046,0.9646,1054.93,-1265.44,-1310.67
9930,-3.8442,0.1117,0.9691,1398.68,-531.07,-1966.92
9940,-3.8442,0.1233,0.9762,-1695.07,47.06,1111.27
9950,-3.8442,0.1366,0.9845,-210.69,953.31,173.77
9960,-3.8444,0.1482,0.9929,1492.43,-1984.13,-591.86
9970,-3.8444,0.1587,0.9995,-1023.19,-906.01,-1044.98
9980,-3.8444,0.1693,1.0013,320.56,-62.19,-1138.73
9990,-3.8444,0.1796,0.9994,1679.93,172.18,-1029.30
10000,-3.8444,0.1884,0.9968,-1007.57,-77.82,-732.48
10010,-3.8444,0.1954,0.9946,117.43,-405.88,-107.48
10020,-3.8442,0.2003,0.9917,1023.68,-687.13,673.77
10030,-3.8442,0.2034,0.9869,1648.68,-1062.13,1423.77
10040,-3.8442,0.2039,0.9799,-1960.69,-1671.51,-1951.23
10050,-3.8442,0.1981,0.9719,-1898.19,1422.24,-1529.36
10060,-3.8442,0.1846,0.9644,1367.43,406.62,-1326.23
10070,-3.8442,0.1631,0.9567,-366.94,-562.19,-1357.54
10080,-3.8442,0.1385,0.9492,883.06,-1546.57,-1545.04
10090,-3.8442,0.1185,0.9460,1742.43,1500.24,-1935.67
10100,-3.8442,0.1080,0.9502,-820.07,1093.93,1642.46
10110,-3.8442,0.1078,0.9611,1836.18,1625.18,1392.46
10120,-3.8442,0.1150,0.9769,1804.93,-984.19,1048.71
10130,-3.8442,0.1249,0.9946,-1273.19,1047.06,720.64
10140,-3.8442,0.1346,1.0088,-7.57,-687.32,642.52
10150,-3.8442,0.1440,1.0153,1242.43,1125.24,470.70
10160,-3.8442,0.1510,1.0162,-1554.44,1953.37,1.95
10170,-3.8444,0.1528,1.0166,-663.82,-1921.63,-685.55
10180,-3.8444,0.1505,1.0194,-429.44,-1874.76,-1310.55
10190,-3.8444,0.1449,1.0239,-726.32,-1515.38,-1779.30
10200,-3.8444,0.1373,1.0286,-1445.07,-937.26,1845.70
10210,-3.8444,0.1316,1.0309,1586.18,-343.51,1517.58
10220,-3.8444,0.1289,1.0294,851.81,-46.63,1142.58
10230,-3.8444,0.1282,1.0261,508.06,-234.13,830.08
10240,-3.8444,0.1260,1.0225,414.31,-656.01,595.70
10250,-3.8444,0.1187,1.0173,133.06,-1124.76,408.20
10260,-3.8444,0.1080,1.0082,-804.44,-1781.07,298.83
10270,-3.8444,0.0981,0.9952,1836.18,1047.06,330.08
10280,-3.8444,0.0916,0.9813,570.56,-609.19,423.77
10290,-3.8444,0.0891,0.9678,-273.19,1609.50,314.39
10300,-3.8444,0.0884,0.9564,-585.69,-124.88,64.33
10310,-3.8445,0.0864,0.9507,-679.44,-1578.00,-123.17
10320,-3.8444,0.0834,0.9503,-929.44,1687.62,64.33
10330,-3.8444,0.0795,0.9548,-1320.07,1640.75,892.46
10340,-3.8444,0.0759,0.9656,-1820.07,-1781.13,-1920.04
10350,-3.8444,0.0741,0.9792,1726.81,-406.13,-763.79
10360,-3.8442,0.0758,0.9889,1492.43,1343.87,205.02
10370,-3.8442,0.0818,0.9923,1711.18,-1421.75,955.02
10380,-3.8442,0.0917,0.9904,-1523.19,-984.25,1376.89
10390,-3.8442,0.1040,0.9845,-257.57,-1234.25,1501.89
10400,-3.8442,0.1149,0.9796,1320.56,-1984.19,1345.64
10410,-3.8442,0.1196,0.9797,-1288.82,1390.81,1080.02
10420,-3.8442,0.1168,0.9851,-679.44,1406.43,970.64
10430,-3.8442,0.1096,0.9935,-1038.82,-1906.07,1205.02
10440,-3.8442,0.1030,1.0049,-1960.69,-827.94,1673.77
10450,-3.8442,0.0984,1.0187,1195.56,625.18,1814.45
10460,-3.8442,0.0934,1.0341,601.81,-1609.19,1173.83
10470,-3.8442,0.0847,1.0487,-38.82,359.50,64.51
10480,-3.8444,0.0730,1.0591,-1148.19,-1765.50,-1044.86
10490,-3.8444,0.0635,1.0619,1351.81,-437.38,-1904.24
10500,-3.8444,0.0621,1.0555,133.06,-78.00,1627.01
10510,-3.8444,0.0724,1.0420,-38.82,-890.56,1533.26
10520,-3.8444,0.0933,1.0249,1273.68,1375.12,1595.76
10530,-3.8444,0.1196,1.0090,-54.44,-812.38,1720.70
10540,-3.8444,0.1448,0.9966,-679.44,1156.43,-1966.80
10550,-3.8444,0.1622,0.9875,-1460.69,-437.26,-1466.86
10560,-3.8444,0.1678,0.9817,773.68,-1593.44,-873.11
10570,-3.8444,0.1614,0.9762,1492.43,1656.56,-138.73
10580,-3.8442,0.1470,0.9685,664.31,953.43,814.39
10590,-3.8442,0.1292,0.9600,-1179.44,-31.01,1751.83
10600,-3.8442,0.1107,0.9525,539.31,-1124.76,-1466.92
10610,-3.8442,0.0942,0.9497,-1820.07,1922.06,-795.04
10620,-3.8442,0.0812,0.9523,70.56,1562.68,-91.92
10630,-3.8441,0.0703,0.9587,-1601.32,1890.75,689.33
10640,-3.8441,0.0603,0.9685,1008.06,-1281.13,1329.96
10650,-3.8441,0.0515,0.9807,-273.19,-31.19,1486.21
10660,-3.8441,0.0448,0.9933,-1398.19,1531.31,1001.89
10670,-3.8442,0.0409,1.0054,1742.43,-859.31,-13.73
10680,-3.8442,0.0406,1.0173,1242.43,687.56,-1419.92
10690,-3.8442,0.0442,1.0292,1211.18,-1781.19,923.83
10700,-3.8444,0.0505,1.0414,1664.31,-265.56,-685.55
10710,-3.8444,0.0580,1.0538,-1523.19,1296.94,1955.14
10720,-3.8444,0.0649,1.0614,-570.07,-1109.31,908.26
10730,-3.8444,0.0714,1.0580,320.56,-140.50,127.01
10740,-3.8445,0.0802,1.0416,1148.68,-578.00,-622.99
10750,-3.8445,0.0941,1.0165,-1726.32,1328.25,-1451.11
10760,-3.8445,0.1118,0.9890,54.93,-1890.44,1736.33
10770,-3.8445,0.1296,0.9642,-1679.44,-1406.07,1267.52
10780,-3.8445,0.1417,0.9465,601.81,-577.88,1533.08
10790,-3.8445,0.1442,0.9377,-1851.32,1156.49,-1232.54
10800,-3.8444,0.1371,0.9366,-1538.82,31.49,1017.46
10810,-3.8444,0.1233,0.9403,1554.93,-109.13,-60.73
10820,-3.8442,0.1067,0.9451,-210.69,359.56,-982.54
10830,-3.8441,0.0902,0.9491,1664.31,968.93,-1998.17
10840,-3.8440,0.0735,0.9509,-445.07,1484.50,454.96
10850,-3.8440,0.0557,0.9528,1414.31,1718.87,-1826.29
10860,-3.8440,0.0370,0.9579,-866.94,1953.19,-591.92
10870,-3.8439,0.0182,0.9668,742.43,-1390.56,173.71
10880,-3.8439,0.0015,0.9788,-1663.82,-250.00,533.08
10890,-3.8439,-0.0101,0.9913,195.56,1281.25,439.39
10900,-3.8440,-0.0140,0.9990,-1288.82,-1093.81,-451.23
10910,-3.8440,-0.0078,0.9987,-1788.82,-109.44,1611.27
10920,-3.8441,0.0092,0.9922,-991.94,-156.31,-1076.23
10930,-3.8442,0.0333,0.9834,1179.93,-1000.00,-44.98
10940,-3.8442,0.0596,0.9749,273.68,1875.06,1095.64
10950,-3.8444,0.0845,0.9684,-366.94,781.31,-1310.61
10960,-3.8444,0.1052,0.9639,-1179.44,-46.75,829.96
10970,-3.8445,0.1211,0.9615,1476.81,-624.82,-279.42
10980,-3.8445,0.1302,0.9607,-491.94,-921.69,-466.92
10990,-3.8444,0.1320,0.9611,679.93,-1031.01,48.71
11000,-3.8444,0.1257,0.9635,898.68,-984.13,1236.21
11010,-3.8444,0.1133,0.9677,101.81,-671.63,-951.29
11020,-3.8442,0.0985,0.9724,-1491.94,-140.44,1158.08
11030,-3.8442,0.0852,0.9772,617.43,468.93,-669.98
11040,-3.8441,0.0764,0.9811,-1085.69,1078.25,1205.02
11050,-3.8441,0.0719,0.9818,1789.31,1578.25,-1185.61
11060,-3.8441,0.0698,0.9791,1211.18,1672.00,-91.86
11070,-3.8440,0.0686,0.9758,945.56,1328.25,267.52
11080,-3.8440,0.0680,0.9753,789.31,906.37,298.77
11090,-3.8440,0.0684,0.9772,711.18,843.87,126.89
11100,-3.8441,0.0720,0.9788,758.06,1078.25,-169.98
11110,-3.8441,0.0801,0.9778,1226.81,1281.37,-560.61
11120,-3.8441,0.0898,0.9744,-1741.94,1156.37,-1044.98
11130,-3.8441,0.0991,0.9706,-491.94,718.87,-1607.48
11140,-3.8441,0.1066,0.9692,695.56,234.56,1845.64
11150,-3.8441,0.1112,0.9707,1648.68,62.68,1455.02
11160,-3.8441,0.1133,0.9731,-1757.57,250.18,1267.52
11170,-3.8441,0.1135,0.9752,-1491.94,562.68,1220.64
11180,-3.8441,0.1107,0.9767,-1460.69,828.31,1298.77
11190,-3.8441,0.1061,0.9774,-1820.07,1015.81,1455.02
11200,-3.8441,0.1028,0.9794,1586.18,1109.56,1564.39
11210,-3.8441,0.1007,0.9843,1164.31,1359.56,1564.39
11220,-3.8441,0.0979,0.9906,898.68,1984.56,1595.64
11230,-3.8441,0.0957,0.9957,539.31,-1202.94,1783.14
11240,-3.8441,0.0956,0.9988,258.06,-546.69,-1919.98
11250,-3.8441,0.0983,1.0001,242.43,-156.07,-1748.11
11260,-3.8441,0.1027,0.9990,586.18,15.81,-1732.42
11270,-3.8441,0.1068,0.9966,1148.68,-124.82,-1794.98
11280,-3.8441,0.1090,0.9950,1679.93,-437.32,-1998.11
11290,-3.8441,0.1104,0.9954,1961.18,-640.44,1564.39
11300,-3.8441,0.1117,0.9962,-1866.94,-593.57,1001.89
11310,-3.8441,0.1138,0.9956,-1695.07,-484.19,376.89
11320,-3.8442,0.1156,0.9926,-1429.44,-562.32,-232.48
11330,-3.8442,0.1160,0.9890,-1195.07,-952.94,-748.11
11340,-3.8442,0.1141,0.9880,-1148.19,-1406.07,-1029.36
11350,-3.8442,0.1100,0.9899,-1382.57,-1531.07,-888.73
11360,-3.8442,0.1049,0.9934,-1913.82,-1296.69,-357.48
11370,-3.8441,0.0995,0.9978,1429.93,-843.57,470.64
11380,-3.8441,0.0942,1.0010,742.43,-281.07,1580.02
11390,-3.8441,0.0901,1.0022,70.56,125.18,-1294.92
11400,-3.8441,0.0864,1.0037,-460.69,281.37,-419.92
11410,-3.8440,0.0825,1.0040,-929.44,468.87,251.95
11420,-3.8440,0.0789,1.0002,-1429.44,515.75,564.45
11430,-3.8440,0.0771,0.9938,-1898.19,31.37,408.20
11440,-3.8441,0.0782,0.9882,1883.06,-796.75,-44.98
11450,-3.8441,0.0817,0.9840,-1976.32,-1515.50,-591.86
11460,-3.8441,0.0854,0.9822,-1538.82,1953.25,-794.98
11470,-3.8441,0.0872,0.9850,-1054.44,1718.87,-435.61
11480,-3.8440,0.0874,0.9904,-835.69,-1921.75,251.89
11490,-3.8440,0.0885,0.9952,-804.44,-1234.25,923.77
11500,-3.8440,0.0906,0.9980,-663.82,-609.25,1236.27
11510,-3.8440,0.0928,0.9988,-398.19,-249.88,1251.89
11520,-3.8440,0.0951,0.9985,-116.94,-156.13,1033.14
11530,-3.8440,0.0966,0.9991,179.93,-187.32,689.39
11540,-3.8440,0.0968,1.0012,367.43,-109.19,455.02
11550,-3.8440,0.0953,1.0022,398.68,156.43,283.20
11560,-3.8440,0.0924,1.0024,211.18,281.43,189.45
11570,-3.8440,0.0901,1.0033,-163.82,312.62,283.20
11580,-3.8440,0.0896,1.0049,-460.69,422.00,423.83
11590,-3.8440,0.0898,1.0070,-523.19,625.12,470.70
11600,-3.8440,0.0902,1.0096,-491.94,890.75,408.20
11610,-3.8440,0.0898,1.0120,-445.07,1234.50,423.83
11620,-3.8440,0.0873,1.0104,-491.94,1531.37,423.83
11630,-3.8440,0.0839,1.0042,-820.07,1328.25,361.33
11640,-3.8440,0.0803,0.9963,-1257.57,531.37,158.20
11650,-3.8441,0.0778,0.9904,-1710.69,-468.63,-232.48
11660,-3.8441,0.0768,0.9856,1961.18,-1234.25,-419.98
11670,-3.8441,0.0770,0.9816,1836.18,-1843.63,-310.61
11680,-3.8441,0.0782,0.9795,1867.43,1640.75,-123.11
11690,-3.8441,0.0785,0.9789,-1976.32,1375.12,-29.36
11700,-3.8441,0.0753,0.9771,-1945.07,1297.00,-29.36
11710,-3.8440,0.0712,0.9742,1648.68,1062.62,33.14
11720,-3.8440,0.0675,0.9714,1117.43,703.25,142.52
11730,-3.8440,0.0640,0.9695,648.68,343.87,251.89
11740,-3.8440,0.0624,0.9686,195.56,93.87,267.52
11750,-3.8440,0.0624,0.9680,-7.57,-15.56,173.71
11760,-3.8440,0.0626,0.9685,-7.57,-93.69,79.96
11770,-3.8441,0.0623,0.9696,23.68,-31.13,-201.29
11780,-3.8441,0.0601,0.9694,-23.19,109.44,-638.73
11790,-3.8441,0.0564,0.9674,-304.44,78.19,-1091.86
11800,-3.8441,0.0540,0.9648,-773.19,-171.81,-1529.42
11810,-3.8441,0.0540,0.9629,-1085.69,-499.94,1892.46
11820,-3.8441,0.0564,0.9634,-1085.69,-749.94,1314.33
11830,-3.8441,0.0605,0.9677,-773.19,-687.44,939.33
11840,-3.8441,0.0659,0.9741,-241.94,-140.56,720.58
11850,-3.8441,0.0734,0.9817,445.56,687.62,689.39
11860,-3.8441,0.0817,0.9867,1398.68,1656.37,814.39
11870,-3.8441,0.0887,0.9862,-1538.82,-1703.00,1080.02
11880,-3.8441,0.0940,0.9823,-632.57,-1765.50,1330.02
11890,-3.8441,0.0968,0.9790,39.31,1734.56,1439.39
11900,-3.8441,0.0964,0.9781,398.68,1312.68,1548.77
11910,-3.8441,0.0935,0.9780,351.81,1203.31,1767.52
11920,-3.8441,0.0898,0.9774,-23.19,1187.62,-1888.73
11930,-3.8441,0.0867,0.9762,-491.94,1109.50,-1607.48
11940,-3.8441,0.0841,0.9744,-898.19,953.25,-1529.36
11950,-3.8441,0.0820,0.9739,-1226.32,718.87,-1544.98
11960,-3.8441,0.0811,0.9762,-1491.94,656.37,-1404.36
11970,-3.8441,0.0818,0.9807,-1616.94,953.25,-888.73
11980,-3.8441,0.0839,0.9861,-1523.19,1531.37,-185.61
11990,-3.8440,0.0870,0.9908,-1257.57,-1781.13,470.64
12000,-3.8440,0.0911,0.9945,-851.32,-1171.75,892.52
12010,-3.8440,0.0964,0.9958,-335.69,-703.00,1033.14
12020,-3.8440,0.1028,0.9954,351.81,-531.07,798.77
12030,-3.8440,0.1080,0.9939,1164.31,-593.57,376.89
12040,-3.8440,0.1095,0.9943,1836.18,-781.07,173.77
12050,-3.8440,0.1093,0.9971,-1976.32,-734.19,330.02
12060,-3.8440,0.1099,0.9983,1992.43,-374.82,751.89
12070,-3.8440,0.1118,0.9971,-1929.44,-218.57,1189.39
12080,-3.8440,0.1146,0.9955,-1679.44,-374.82,1455.02
12090,-3.8440,0.1155,0.9950,-1320.07,-577.94,1767.52
12100,-3.8440,0.1116,0.9980,-1210.69,-640.44,-1701.23
12110,-3.8440,0.1038,1.0032,-1710.69,-249.82,-1123.11
12120,-3.8440,0.0939,1.0070,1289.31,406.43,-560.55
12130,-3.8440,0.0847,1.0072,23.68,890.81,-44.92
12140,-3.8439,0.0786,1.0054,-1148.19,922.00,205.08
12150,-3.8439,0.0762,1.0042,-1929.44,687.62,205.08
12160,-3.8439,0.0796,1.0031,1758.06,531.37,111.33
12170,-3.8440,0.0873,1.0018,-1804.44,390.75,-123.05
12180,-3.8440,0.0952,1.0006,-820.07,234.50,-576.17
12190,-3.8440,0.1007,0.9990,195.56,78.31,-1123.05
12200,-3.8440,0.1039,0.9971,898.68,-124.82,-1576.23
12210,-3.8440,0.1045,0.9948,1304.93,-374.82,1986.27
12220,-3.8440,0.1028,0.9916,1383.06,-671.69,1455.02
12230,-3.8440,0.0990,0.9890,1164.31,-1077.94,1017.52
12240,-3.8440,0.0929,0.9879,679.93,-1406.07,798.77
12250,-3.8440,0.0859,0.9869,-101.32,-1546.75,814.39
12260,-3.8440,0.0796,0.9857,-991.94,-1671.75,1064.39
12270,-3.8440,0.0748,0.9860,-1804.44,-1828.00,1439.39
12280,-3.8440,0.0709,0.9877,1586.18,-1796.75,1783.14
12290,-3.8440,0.0679,0.9878,1086.18,-1578.00,-1982.48
12300,-3.8440,0.0669,0.9855,695.56,-1562.38,-1841.86
12310,-3.8440,0.0680,0.9827,570.56,-1859.25,-1873.11
12320,-3.8440,0.0702,0.9810,711.18,1781.37,1970.64
12330,-3.8440,0.0726,0.9824,992.43,1562.62,1736.27
12340,-3.8440,0.0747,0.9862,1304.93,1750.12,1486.27
12350,-3.8440,0.0768,0.9902,1570.56,-1765.50,1251.89
12360,-3.8440,0.0803,0.9929,1836.18,-1249.88,1126.89
12370,-3.8440,0.0853,0.9940,-1710.69,-906.13,1220.64
12380,-3.8440,0.0896,0.9948,-1070.07,-765.50,1376.89
12390,-3.8440,0.0913,0.9965,-523.19,-671.75,1517.52
12400,-3.8440,0.0894,0.9977,-304.44,-453.00,1642.52
12410,-3.8440,0.0844,0.9971,-554.44,-296.75,1814.39
12420,-3.8440,0.0780,0.9949,-1195.07,-374.88,1986.27
12430,-3.8440,0.0732,0.9910,1992.43,-656.13,-1919.98
12440,-3.8440,0.0712,0.9857,1383.06,-1156.13,-1888.73
12450,-3.8440,0.0706,0.9819,1117.43,-1828.00,-1919.98
12460,-3.8440,0.0707,0.9791,1039.31,1687.62,-1951.23
12470,-3.8440,0.0709,0.9758,1054.93,1328.25,-1998.11
12480,-3.8440,0.0701,0.9734,1086.18,906.37,1970.64
12490,-3.8440,0.0682,0.9723,976.81,593.87,1923.77
12500,-3.8440,0.0671,0.9731,742.43,453.25,1908.14
12510,-3.8440,0.0674,0.9757,601.81,562.62,-1904.36
12520,-3.8440,0.0695,0.9786,633.06,890.75,-1560.61
12530,-3.8440,0.0726,0.9803,898.68,1265.75,-1294.98
12540,-3.8440,0.0754,0.9806,1304.93,1484.50,-1232.48
12550,-3.8440,0.0780,0.9814,1664.31,1515.75,-1279.36
12560,-3.8440,0.0809,0.9829,1992.43,1625.12,-1388.73
12570,-3.8440,0.0846,0.9839,-1632.57,1812.62,-1623.11
12580,-3.8440,0.0900,0.9850,-1163.82,1937.62,1955.02
12590,-3.8440,0.0961,0.9869,-476.32,-1921.75,1517.52
12600,-3.8440,0.1007,0.9907,304.93,-1671.69,1267.52
12610,-3.8440,0.1029,0.9960,898.68,-1187.32,1142.52
12620,-3.8440,0.1034,1.0013,1179.93,-515.44,1236.27
12630,-3.8440,0.1049,1.0052,1242.43,172.06,1548.83
12640,-3.8440,0.1068,1.0066,1429.93,672.06,1876.95
12650,-3.8440,0.1073,1.0052,1679.93,843.93,-1935.55
12660,-3.8440,0.1060,1.0028,1742.43,672.06,-1857.42
12670,-3.8440,0.1027,1.0004,1570.56,359.56,-1826.17
12680,-3.8440,0.0990,0.9974,1148.68,47.06,-1701.17
12690,-3.8440,0.0963,0.9948,679.93,-327.94,-1435.61
12700,-3.8440,0.0950,0.9932,336.18,-671.69,-1201.23
12710,-3.8440,0.0945,0.9929,164.31,-874.82,-841.86
12720,-3.8440,0.0948,0.9940,101.81,-906.07,-279.36
12730,-3.8439,0.0966,0.9965,148.68,-765.44,470.64
12740,-3.8439,0.0991,1.0015,367.43,-452.94,1298.77
12750,-3.8439,0.1001,1.0081,695.56,187.68,-1966.80
12760,-3.8439,0.1000,1.0132,820.56,1031.43,-1294.92
12770,-3.8439,0.0996,1.0159,804.93,1687.68,-826.17
12780,-3.8439,0.0988,1.0156,758.06,-1968.57,-654.30
12790,-3.8439,0.0979,1.0134,648.68,-1999.82,-779.30
12800,-3.8439,0.0957,1.0116,539.31,1718.93,-1169.92
12810,-3.8439,0.0903,1.0104,258.06,1484.56,-1685.55
12820,-3.8439,0.0839,1.0084,-429.44,1328.25,1705.08
12830,-3.8439,0.0781,1.0044,-1257.57,1078.25,1064.45
12840,-3.8439,0.0724,0.9983,-1991.94,562.62,439.45
12850,-3.8440,0.0659,0.9902,1273.68,-218.63,-154.36
12860,-3.8440,0.0593,0.9801,445.56,-1249.88,-638.73
12870,-3.8440,0.0544,0.9719,-398.19,1453.19,-1060.61
12880,-3.8440,0.0513,0.9675,-1023.19,406.31,-1294.98
12890,-3.8440,0.0492,0.9657,-1429.44,-156.19,-1185.67
12900,-3.8440,0.0485,0.9664,-1695.07,-390.56,-763.79
12910,-3.8440,0.0492,0.9694,-1788.82,-296.81,-295.04
12920,-3.8439,0.0518,0.9729,-1695.07,78.19,80.02
12930,-3.8439,0.0553,0.9755,-1366.94,531.31,298.77
12940,-3.8439,0.0603,0.9784,-913.82,859.44,455.02
12950,-3.8439,0.0667,0.9817,-273.19,1234.44,564.39
12960,-3.8439,0.0724,0.9836,539.31,1656.37,595.64
12970,-3.8439,0.0757,0.9833,1273.68,1906.37,439.39
12980,-3.8439,0.0767,0.9818,1695.56,1859.50,95.64
12990,-3.8440,0.0759,0.9803,1820.56,1672.00,-294.98
13000,-3.8440,0.0737,0.9790,1726.81,1484.50,-669.98
13010,-3.8440,0.0706,0.9777,1445.56,1312.62,-1123.11
13020,-3.8440,0.0674,0.9758,1039.31,1140.75,-1685.61
13030,-3.8440,0.0652,0.9739,633.06,906.37,1798.77
13040,-3.8440,0.0649,0.9723,351.81,656.37,1439.39
13050,-3.8440,0.0662,0.9716,320.56,453.25,1314.39
13060,-3.8440,0.0674,0.9729,476.81,359.50,1330.02
13070,-3.8440,0.0671,0.9745,633.06,531.37,1455.02
13080,-3.8440,0.0668,0.9747,601.81,734.50,1580.02
13090,-3.8440,0.0684,0.9741,554.93,765.75,1611.27
13100,-3.8440,0.0718,0.9729,758.06,687.62,1595.64
13110,-3.8440,0.0768,0.9719,1195.56,531.37,1595.64
13120,-3.8440,0.0835,0.9712,1836.18,406.37,1689.39
13130,-3.8440,0.0898,0.9709,-1304.44,312.62,1736.27
13140,-3.8440,0.0942,0.9719,-491.94,281.37,1845.64
13150,-3.8440,0.0961,0.9742,70.56,406.43,-1888.73
13160,-3.8440,0.0972,0.9781,304.93,703.31,-1404.36
13170,-3.8440,0.0980,0.9851,445.56,1203.31,-669.98
13180,-3.8439,0.0977,0.9948,554.93,-1906.07,126.89
13190,-3.8439,0.0973,1.0037,508.06,-671.69,892.52
13200,-3.8439,0.0981,1.0098,461.18,468.93,1751.95
13210,-3.8439,0.1017,1.0115,570.56,1250.18,-1498.05
13220,-3.8439,0.1063,1.0089,1023.68,1468.93,-1076.17
13230,-3.8439,0.1104,1.0037,1617.43,1140.81,-1123.05
13240,-3.8439,0.1140,0.9979,-1866.94,468.93,-1435.55
13250,-3.8439,0.1151,0.9935,-1398.19,-265.44,-1810.61
13260,-3.8439,0.1124,0.9904,-1257.57,-827.94,1845.64
13270,-3.8439,0.1071,0.9874,-1601.32,-1234.19,1595.64
13280,-3.8439,0.1008,0.9850,1711.18,-1609.19,1330.02
13290,-3.8439,0.0940,0.9825,914.31,-1921.69,876.89
13300,-3.8439,0.0878,0.9810,39.31,1765.81,533.14
13310,-3.8439,0.0828,0.9810,-757.57,1562.62,501.89
13320,-3.8439,0.0790,0.9817,-1398.19,1562.62,564.39
13330,-3.8439,0.0773,0.9836,-1882.57,1656.37,689.39
13340,-3.8439,0.0791,0.9868,1898.68,1906.37,1033.14
13350,-3.8439,0.0841,0.9890,-1866.94,-1687.38,1423.77
13360,-3.8439,0.0901,0.9891,-1226.32,-1406.13,1736.27
13370,-3.8439,0.0940,0.9889,-460.69,-1390.50,1845.64
13380,-3.8439,0.0948,0.9900,39.31,-1421.69,1626.89
13390,-3.8439,0.0925,0.9922,148.68,-1281.07,1314.39
13400,-3.8439,0.0873,0.9930,-148.19,-999.88,1001.89
13410,-3.8439,0.0804,0.9913,-820.07,-890.50,658.14
13420,-3.8439,0.0740,0.9882,-1695.07,-1109.25,470.64
13430,-3.8439,0.0693,0.9856,1476.81,-1515.50,314.39
13440,-3.8439,0.0679,0.9835,883.06,-1843.63,17.52
13450,-3.8440,0.0693,0.9813,695.56,1890.75,-357.48
13460,-3.8440,0.0720,0.9799,883.06,1609.50,-654.36
13470,-3.8440,0.0758,0.9799,1226.81,1422.00,-951.23
13480,-3.8440,0.0798,0.9811,1711.18,1422.00,-1419.98
13490,-3.8440,0.0839,0.9810,-1773.19,1578.25,-1904.36
13500,-3.8440,0.0883,0.9800,-1257.57,1562.62,1783.14
13510,-3.8440,0.0936,0.9807,-695.07,1437.62,1658.14
13520,-3.8440,0.1003,0.9844,-7.57,1531.37,1720.64
13530,-3.8440,0.1072,0.9896,851.81,-1999.82,-1857.48
13540,-3.8440,0.1116,0.9957,1726.81,-1327.94,-998.11
13550,-3.8440,0.1138,1.0035,-1710.69,-546.69,-13.73
13560,-3.8439,0.1143,1.0116,-1429.44,453.31,955.08
13570,-3.8439,0.1125,1.0164,-1366.94,1484.56,1767.58
13580,-3.8439,0.1091,1.0160,-1585.69,-1906.07,-1685.55
13590,-3.8439,0.1062,1.0116,1976.81,-1952.94,-1576.17
13600,-3.8439,0.1047,1.0045,1601.81,1484.56,1970.70
13610,-3.8439,0.1031,0.9978,1414.31,578.31,1267.58
13620,-3.8439,0.1014,0.9934,1211.18,-281.07,720.64
13630,-3.8439,0.1007,0.9921,992.43,-843.57,501.89
13640,-3.8439,0.1010,0.9939,898.68,-1015.44,548.77
13650,-3.8439,0.1012,0.9982,929.93,-781.07,783.14
13660,-3.8439,0.1005,1.0026,961.18,-234.19,1126.89
13670,-3.8439,0.0990,1.0054,867.43,328.31,1611.33
13680,-3.8439,0.0970,1.0063,679.93,687.68,-1826.17
13690,-3.8439,0.0945,1.0050,429.93,812.68,-1357.42
13700,-3.8439,0.0929,1.0024,101.81,640.81,-1123.05
13710,-3.8439,0.0925,1.0002,-101.32,312.62,-1060.55
13720,-3.8439,0.0916,0.9978,-148.19,31.37,-1013.67
13730,-3.8439,0.0890,0.9943,-273.19,-281.13,-966.86
13740,-3.8439,0.0846,0.9897,-601.32,-734.25,-1044.98
13750,-3.8439,0.0782,0.9856,-1163.82,-1312.38,-1326.23
13760,-3.8439,0.0707,0.9839,-1976.32,-1843.63,-1841.86
13770,-3.8439,0.0641,0.9844,1054.93,1937.62,1642.52
13780,-3.8439,0.0596,0.9845,211.18,-1999.88,1408.14
13790,-3.8439,0.0566,0.9825,-366.94,-1984.31,1267.52
13800,-3.8439,0.0560,0.9795,-741.94,1765.69,955.02
13810,-3.8439,0.0557,0.9779,-820.07,1375.06,501.89
13820,-3.8439,0.0536,0.9783,-866.94,1171.94,80.02
13830,-3.8440,0.0507,0.9799,-1132.57,1218.81,-248.11
13840,-3.8440,0.0479,0.9801,-1507.57,1421.94,-466.86
13850,-3.8440,0.0460,0.9781,-1866.94,1453.19,-544.98
13860,-3.8440,0.0450,0.9742,1898.68,1203.19,-685.61
13870,-3.8440,0.0447,0.9697,1773.68,703.19,-1060.61
13880,-3.8440,0.0452,0.9663,1726.81,125.06,-1576.23
13890,-3.8440,0.0464,0.9647,1789.31,-312.44,-1982.54
13900,-3.8440,0.0485,0.9641,1945.56,-515.56,1861.21
13910,-3.8440,0.0515,0.9639,-1788.82,-593.69,1876.83
13920,-3.8440,0.0554,0.9645,-1398.19,-624.94,1829.96
13930,-3.8440,0.0585,0.9653,-898.19,-546.81,1892.46
13940,-3.8440,0.0601,0.9664,-507.57,-437.44,-1951.29
13950,-3.8440,0.0621,0.9694,-304.44,-296.81,-1748.17
13960,-3.8440,0.0652,0.9735,-38.82,78.19,-1466.86
13970,-3.8440,0.0686,0.9788,351.81,609.50,-1263.73
13980,-3.8440,0.0725,0.9865,789.31,1281.37,-1138.73
13990,-3.8440,0.0762,0.9956,1289.31,-1734.25,-841.86
14000,-3.8440,0.0784,1.0033,1758.06,-562.38,-419.98
14010,-3.8440,0.0789,1.0071,-1960.69,422.00,-29.30
14020,-3.8439,0.0798,1.0078,-1898.19,906.37,251.95
14030,-3.8439,0.0828,1.0071,-1773.19,1000.12,251.95
14040,-3.8439,0.0862,1.0049,-1398.19,906.37,48.83
14050,-3.8440,0.0890,1.0009,-960.69,625.12,-216.80
14060,-3.8440,0.0906,0.9965,-601.32,109.50,-435.55
14070,-3.8440,0.0900,0.9938,-398.19,-453.00,-451.23
14080,-3.8440,0.0873,0.9921,-476.32,-796.75,-185.61
14090,-3.8439,0.0830,0.9900,-820.07,-1015.50,267.52
14100,-3.8439,0.0787,0.9878,-1366.94,-1281.13,798.77
14110,-3.8439,0.0751,0.9871,-1913.82,-1562.38,1205.02
14120,-3.8439,0.0721,0.9895,1617.43,-1656.13,1439.39
14130,-3.8439,0.0709,0.9927,1242.43,-1343.63,1845.64
14140,-3.8439,0.0725,0.9938,1086.18,-937.38,-1701.23
14150,-3.8439,0.0757,0.9932,1289.31,-796.75,-1466.86
14160,-3.8439,0.0797,0.9923,1695.56,-874.88,-1466.86
14170,-3.8439,0.0836,0.9929,-1788.82,-984.25,-1513.73
14180,-3.8439,0.0880,0.9961,-1288.82,-906.13,-1576.23
14190,-3.8439,0.0936,1.0005,-726.32,-499.88,-1716.86
14200,-3.8439,0.1006,1.0033,-7.57,62.62,-1888.67
14210,-3.8439,0.1073,1.0038,883.06,422.06,-1998.05
14220,-3.8439,0.1115,1.0031,1742.43,484.56,1798.83
14230,-3.8439,0.1121,1.0034,-1726.32,390.81,1501.95
14240,-3.8439,0.1096,1.0056,-1648.19,437.68,1236.33
14250,-3.8439,0.1047,1.0083,-1960.69,718.93,1126.95
14260,-3.8439,0.1010,1.0122,1414.31,1062.68,1111.33
14270,-3.8439,0.1012,1.0150,929.93,1562.68,1158.20
14280,-3.8439,0.1038,1.0140,961.18,1922.06,1220.70
14290,-3.8439,0.1069,1.0098,1289.31,1797.06,1111.33
14300,-3.8439,0.1077,1.0044,1695.56,1250.18,923.83
14310,-3.8439,0.1034,1.0000,1789.31,562.68,705.08
14320,-3.8439,0.0962,0.9962,1242.43,0.18,517.58
14330,-3.8439,0.0879,0.9930,320.56,-484.19,548.77
14340,-3.8439,0.0806,0.9907,-741.94,-890.50,642.52
14350,-3.8439,0.0762,0.9884,-1679.44,-1187.38,673.77
14360,-3.8439,0.0750,0.9874,1758.06,-1484.25,751.89
14370,-3.8439,0.0750,0.9882,1601.81,-1609.25,861.27
14380,-3.8439,0.0752,0.9894,1601.81,-1515.50,939.39
14390,-3.8439,0.0747,0.9894,1633.06,-1359.25,939.39
14400,-3.8439,0.0724,0.9882,1570.56,-1359.25,845.64
14410,-3.8439,0.0698,0.9866,1273.68,-1515.50,580.02
14420,-3.8439,0.0684,0.9855,945.56,-1718.63,345.64
14430,-3.8439,0.0676,0.9858,758.06,-1859.25,251.89
14440,-3.8439,0.0676,0.9874,664.31,-1812.38,189.39
14450,-3.8439,0.0687,0.9894,664.31,-1609.25,173.77
14460,-3.8439,0.0706,0.9923,804.93,-1359.25,142.52
14470,-3.8439,0.0719,0.9968,1039.31,-984.25,48.77
14480,-3.8440,0.0729,1.0005,1211.18,-406.13,-13.73
14490,-3.8440,0.0732,1.0004,1336.18,62.62,-60.55
14500,-3.8440,0.0734,0.9985,1383.06,47.00,-248.05
14510,-3.8440,0.0735,0.9971,1398.68,-187.38,-513.73
14520,-3.8440,0.0724,0.9950,1414.31,-374.88,-763.73
14530,-3.8440,0.0703,0.9926,1273.68,-640.50,-966.86
14540,-3.8440,0.0676,0.9910,1008.06,-953.00,-966.86
14550,-3.8440,0.0663,0.9895,664.31,-1156.13,-873.11
14560,-3.8440,0.0673,0.9885,492.43,-1343.63,-716.86
14570,-3.8440,0.0684,0.9886,617.43,-1468.63,-466.86
14580,-3.8440,0.0679,0.9893,758.06,-1453.00,-44.98
14590,-3.8439,0.0659,0.9910,695.56,-1374.88,470.64
14600,-3.8439,0.0637,0.9932,445.56,-1156.13,986.27
14610,-3.8439,0.0623,0.9939,164.31,-874.88,1423.77
14620,-3.8439,0.0620,0.9913,-23.19,-781.19,1689.39
14630,-3.8439,0.0625,0.9862,-54.44,-1109.31,1658.14
14640,-3.8439,0.0621,0.9802,8.06,-1765.50,1501.89
14650,-3.8439,0.0619,0.9742,-38.82,1468.81,1283.14
14660,-3.8439,0.0632,0.9696,-70.07,703.19,986.27
14670,-3.8439,0.0649,0.9664,101.81,109.50,736.27
14680,-3.8439,0.0652,0.9662,320.56,-296.75,642.46
14690,-3.8439,0.0652,0.9695,351.81,-328.00,783.08
14700,-3.8439,0.0646,0.9751,351.81,93.87,1189.39
14710,-3.8439,0.0641,0.9821,273.68,812.62,1626.89
14720,-3.8439,0.0658,0.9889,211.18,1703.25,1830.02
14730,-3.8439,0.0706,0.9938,429.93,-1421.75,1876.89
14740,-3.8439,0.0770,0.9946,1039.31,-796.75,1705.02
14750,-3.8439,0.0835,0.9922,1867.43,-687.38,1142.52
14760,-3.8439,0.0892,0.9891,-1304.44,-999.88,345.64
14770,-3.8440,0.0922,0.9882,-570.07,-1390.50,-404.36
14780,-3.8440,0.0920,0.9890,-195.07,-1515.50,-951.23
14790,-3.8440,0.0912,0.9910,-210.69,-1406.13,-1404.36
14800,-3.8440,0.0901,0.9937,-320.07,-1156.13,-1529.36
14810,-3.8440,0.0892,0.9961,-460.69,-812.38,-1419.98
14820,-3.8440,0.0886,0.9977,-570.07,-499.88,-1326.23
14830,-3.8440,0.0872,0.9977,-648.19,-296.75,-1185.61
14840,-3.8440,0.0845,0.9952,-835.69,-296.75,-1107.48
14850,-3.8440,0.0813,0.9902,-1179.44,-609.25,-1107.48
14860,-3.8440,0.0782,0.9855,-1585.69,-1249.88,-1044.98
14870,-3.8440,0.0754,0.9822,-1976.32,-1859.25,-904.36
14880,-3.8440,0.0731,0.9803,1664.31,1718.87,-873.11
14890,-3.8440,0.0726,0.9797,1367.43,1484.50,-904.36
14900,-3.8440,0.0739,0.9801,1304.93,1406.37,-763.73
14910,-3.8440,0.0756,0.9811,1461.18,1453.25,-466.86
14920,-3.8440,0.0770,0.9834,1679.93,1578.25,-29.36
14930,-3.8439,0.0787,0.9866,1867.43,1875.12,611.27
14940,-3.8439,0.0801,0.9886,-1913.82,-1718.63,1095.64
14950,-3.8439,0.0807,0.9884,-1741.94,-1453.00,1267.52
14960,-3.8439,0.0812,0.9869,-1663.82,-1484.25,1376.89
14970,-3.8439,0.0819,0.9862,-1601.32,-1671.75,1470.64
14980,-3.8439,0.0823,0.9873,-1507.57,-1765.50,1580.02
14990,-3.8439,0.0828,0.9888,-1460.69,-1624.88,1705.02
15000,-3.8439,0.0835,0.9901,-1398.19,-1437.38,1751.89
15010,-3.8439,0.0837,0.9916,-1304.44,-1265.50,1751.89
15020,-3.8439,0.0829,0.9935,-1273.19,-1078.00,1908.14
15030,-3.8439,0.0814,0.9952,-1382.57,-828.00,-1763.73
15040,-3.8439,0.0802,0.9963,-1570.07,-609.25,-1419.98
15050,-3.8439,0.0790,0.9962,-1726.32,-468.63,-1185.61
15060,-3.8439,0.0779,0.9943,-1882.57,-484.25,-1091.86
15070,-3.8439,0.0770,0.9919,1976.81,-734.25,-1091.86
15080,-3.8439,0.0763,0.9897,1867.43,-1031.13,-1013.73
15090,-3.8439,0.0763,0.9873,1773.68,-1312.38,-1013.73
15100,-3.8439,0.0769,0.9865,1773.68,-1624.88,-1185.61
15110,-3.8439,0.0774,0.9888,1851.81,-1734.25,-1310.61
15120,-3.8439,0.0793,0.9923,1914.31,-1437.38,-1294.98
15130,-3.8439,0.0834,0.9956,-1835.69,-984.25,-1248.11
15140,-3.8439,0.0873,1.0002,-1320.07,-562.38,-1310.61
15150,-3.8439,0.0898,1.0056,-820.07,31.37,-1388.67
15160,-3.8439,0.0907,1.0090,-491.94,718.87,-1341.80
15170,-3.8439,0.0897,1.0098,-382.57,1156.37,-1326.17
15180,-3.8439,0.0879,1.0085,-507.57,1250.12,-1482.42
15190,-3.8439,0.0851,1.0066,-741.94,1093.87,-1623.05
15200,-3.8439,0.0814,1.0049,-1101.32,843.87,-1654.30
15210,-3.8439,0.0770,1.0039,-1570.07,625.12,-1623.05
15220,-3.8439,0.0739,1.0026,1867.43,500.12,-1482.42
15230,-3.8439,0.0725,1.0002,1461.18,328.25,-1357.42
15240,-3.8439,0.0718,0.9978,1289.31,31.37,-1263.67
15250,-3.8439,0.0707,0.9960,1195.56,-281.13,-1107.48
15260,-3.8439,0.0690,0.9962,1054.93,-515.50,-748.11
15270,-3.8439,0.0668,0.9989,836.18,-484.25,-248.11
15280,-3.8750,0.0637,1.0017,554.93,-140.50,64.39
15290,-3.8750,0.0605,1.0023,164.31,218.87,95.70
15300,-3.8439,0.0576,1.0015,-241.94,296.94,-44.92
15310,-3.8439,0.0552,0.9980,-616.94,187.56,-232.42
15320,-3.8439,0.0536,0.9919,-929.44,-249.94,-654.36
15330,-3.8439,0.0533,0.9862,-1132.57,-1031.19,-1326.23
15340,-3.8439,0.0532,0.9827,-1163.82,-1765.56,1939.39
15350,-3.8439,0.0531,0.9802,-1179.44,1781.31,1298.77
15360,-3.8439,0.0538,0.9781,-1195.07,1468.81,861.27
15370,-3.8439,0.0543,0.9777,-1101.32,1203.19,658.14
15380,-3.8439,0.0540,0.9781,-1038.82,1140.69,658.14
15390,-3.8439,0.0529,0.9780,-1085.69,1203.19,923.77
15400,-3.8439,0.0513,0.9786,-1226.32,1187.56,1314.39
15410,-3.8439,0.0494,0.9801,-1429.44,1265.69,1564.39
15420,-3.8439,0.0486,0.9808,-1663.82,1453.19,1611.27
15430,-3.8439,0.0508,0.9800,-1773.19,1546.94,1470.64
15440,-3.8439,0.0558,0.9778,-1491.94,1437.56,986.27
15450,-3.8439,0.0613,0.9756,-851.32,1156.31,189.39
15460,-3.8440,0.0659,0.9739,-148.19,875.06,-638.73
15470,-3.8440,0.0696,0.9736,445.56,656.37,-1263.73
15480,-3.8440,0.0709,0.9763,914.31,625.12,-1466.86
15490,-3.8440,0.0702,0.9807,1086.18,968.87,-1341.86
15500,-3.8440,0.0690,0.9844,992.43,1531.37,-951.23
15510,-3.8440,0.0690,0.9865,836.18,-1999.88,-216.86
15520,-3.8439,0.0707,0.9866,836.18,-1734.25,705.02
15530,-3.8439,0.0742,0.9860,1054.93,-1718.63,1501.89
15540,-3.8439,0.0790,0.9857,1508.06,-1796.75,-1919.98
15550,-3.8439,0.0837,0.9865,-1882.57,-1828.00,-1482.48
15560,-3.8439,0.0879,0.9873,-1273.19,-1734.25,-1357.48
15570,-3.8439,0.0917,0.9871,-741.94,-1624.88,-1466.86
15580,-3.8439,0.0945,0.9857,-257.57,-1656.13,-1685.61
15590,-3.8439,0.0973,0.9829,101.81,-1827.94,-1966.86
15600,-3.8439,0.0997,0.9813,461.18,1812.68,1751.89
15610,-3.8439,0.0999,0.9827,773.68,1609.56,1548.77
15620,-3.8439,0.0992,0.9866,789.31,1781.43,1423.77
15630,-3.8439,0.0985,0.9915,711.18,-1718.57,1486.27
15640,-3.8439,0.0975,0.9952,617.43,-1093.57,1720.64
15650,-3.8439,0.0969,0.9967,492.43,-609.19,1955.02
15660,-3.8439,0.0968,0.9960,414.31,-421.69,-1810.61
15670,-3.8439,0.0970,0.9927,398.68,-515.44,-1873.11
15680,-3.8439,0.0981,0.9878,429.93,-937.32,1767.52
15690,-3.8439,0.1008,0.9827,570.56,-1562.32,1392.52
15700,-3.8439,0.1033,0.9790,914.31,1781.43,1126.89
15710,-3.8439,0.1034,0.9777,1226.81,1312.68,1001.89
15720,-3.8439,0.1017,0.9788,1242.43,1140.81,1064.39
15730,-3.8439,0.0992,0.9823,1023.68,1281.43,1376.89
15740,-3.8439,0.0969,0.9878,711.18,1734.56,1845.64
15750,-3.8439,0.0975,0.9940,414.31,-1562.32,-1716.86
15760,-3.8439,0.1011,0.9991,492.43,-765.44,-1279.36
15770,-3.8439,0.1046,1.0006,945.56,-109.19,-1013.73
15780,-3.8439,0.1077,1.0002,1398.68,78.31,-1123.05
15790,-3.8439,0.1101,0.9996,1789.31,31.43,-1498.05
15800,-3.8439,0.1106,0.9980,-1898.19,-46.69,-1935.61
15810,-3.8439,0.1093,0.9956,-1835.69,-249.82,1533.14
15820,-3.8439,0.1068,0.9932,1992.43,-562.32,955.02
15830,-3.8439,0.1035,0.9902,1679.93,-874.82,392.52
15840,-3.8440,0.0999,0.9866,1258.06,-1249.82,-138.73
15850,-3.8440,0.0964,0.9845,789.31,-1718.57,-388.73
15860,-3.8440,0.0936,0.9852,351.81,-1984.19,-310.61
15870,-3.8439,0.0909,0.9871,-7.57,-1890.50,1.89
15880,-3.8439,0.0881,0.9889,-351.32,-1656.13,501.89
15890,-3.8439,0.0861,0.9917,-710.69,-1421.75,1033.14
15900,-3.8439,0.0853,0.9955,-976.32,-1062.38,1455.02
15910,-3.8439,0.0852,0.9984,-1070.07,-578.00,1736.27
15920,-3.8439,0.0841,0.9985,-1085.69,-203.00,1861.27
15930,-3.8439,0.0822,0.9956,-1226.32,-187.38,1798.77
15940,-3.8439,0.0809,0.9913,-1476.32,-562.38,1658.14
15950,-3.8439,0.0807,0.9868,-1632.57,-1109.25,1564.39
15960,-3.8439,0.0809,0.9851,-1663.82,-1687.38,1486.27
15970,-3.8439,0.0812,0.9867,-1632.57,-1906.13,1595.64
15980,-3.8439,0.0802,0.9894,-1601.32,-1703.00,1892.52
15990,-3.8439,0.0774,0.9921,-1726.32,-1359.25,-1779.36
16000,-3.8439,0.0732,0.9945,1914.31,-1015.50,-1388.73
16010,-3.8439,0.0682,0.9957,1383.06,-703.00,-935.61
16020,-3.8439,0.0636,0.9957,742.43,-546.75,-623.11
16030,-3.8439,0.0598,0.9941,148.68,-546.75,-529.36
16040,-3.8439,0.0579,0.9904,-335.69,-749.94,-779.36
16050,-3.8439,0.0575,0.9861,-585.69,-1234.31,-1357.48
16060,-3.8439,0.0570,0.9833,-632.57,-1781.19,-1998.11
16070,-3.8439,0.0555,0.9821,-695.07,1859.44,1470.64
16080,-3.8439,0.0541,0.9819,-882.57,1703.19,1173.77
16090,-3.8439,0.0536,0.9824,-1070.07,1687.56,1126.89
16100,-3.8439,0.0548,0.9824,-1132.57,1750.06,1205.02
16110,-3.8439,0.0571,0.9814,-976.32,1750.06,1251.89
16120,-3.8439,0.0587,0.9806,-679.44,1625.06,1314.39
16130,-3.8439,0.0591,0.9811,-476.32,1515.69,1408.14
16140,-3.8439,0.0590,0.9830,-429.44,1578.19,1486.27
16150,-3.8439,0.0591,0.9851,-445.07,1828.19,1486.27
16160,-3.8439,0.0602,0.9858,-429.44,-1906.19,1376.89
16170,-3.8439,0.0623,0.9845,-288.82,-1812.44,1142.52
16180,-3.8439,0.0654,0.9821,-23.19,-1984.31,751.89
16190,-3.8439,0.0696,0.9819,383.06,1703.25,408.14
16200,-3.8439,0.0736,0.9840,914.31,1687.62,158.14
16210,-3.8440,0.0771,0.9856,1429.93,1953.25,-44.98
16220,-3.8439,0.0802,0.9862,1883.06,-1843.63,1.89
16230,-3.8439,0.0828,0.9860,-1726.32,-1765.50,220.64
16240,-3.8439,0.0845,0.9867,-1398.19,-1796.75,470.64
16250,-3.8439,0.0857,0.9895,-1179.44,-1703.00,736.27
16260,-3.8439,0.0873,0.9923,-1023.19,-1343.63,1033.14
16270,-3.8439,0.0903,0.9930,-820.07,-984.25,1345.64
16280,-3.8439,0.0945,0.9922,-429.44,-890.50,1548.77
16290,-3.8439,0.0977,0.9916,101.81,-999.82,1626.89
16300,-3.8439,0.0989,0.9918,508.06,-1077.94,1658.14
16310,-3.8439,0.0995,0.9917,664.31,-1046.69,1595.64
16320,-3.8439,0.1006,0.9908,742.43,-1062.32,1439.39
16330,-3.8439,0.1012,0.9906,883.06,-1171.69,1408.14
16340,-3.8439,0.1017,0.9919,961.18,-1202.94,1376.89
16350,-3.8439,0.1014,0.9945,1023.68,-1031.07,1158.14
16360,-3.8439,0.1006,0.9967,992.43,-702.94,955.02
16370,-3.8439,0.1002,0.9968,883.06,-421.69,814.39
16380,-3.8439,0.1016,0.9952,836.18,-406.07,564.39
16390,-3.8439,0.1036,0.9933,1008.06,-609.19,205.02
16400,-3.8440,0.1052,0.9919,1273.68,-859.19,-107.48
16410,-3.8440,0.1061,0.9919,1476.81,-1031.07,-216.86
16420,-3.8440,0.1055,0.9932,1586.18,-1031.07,-123.11
16430,-3.8439,0.1042,0.9943,1508.06,-874.82,48.77
16440,-3.8439,0.1039,0.9938,1351.81,-734.19,205.02
16450,-3.8439,0.1019,0.9927,1304.93,-796.69,330.02
16460,-3.8439,0.0985,0.9926,1054.93,-937.32,455.02
16470,-3.8439,0.0967,0.9926,617.43,-952.94,501.89
16480,-3.8439,0.0967,0.9929,383.06,-952.94,533.14
16490,-3.8439,0.0970,0.9941,383.06,-906.07,533.14
16500,-3.8439,0.0967,0.9940,429.93,-749.82,580.02
16510,-3.8439,0.0959,0.9912,383.06,-765.44,611.27
16520,-3.8439,0.0952,0.9882,289.31,-1124.82,455.02
16530,-3.8439,0.0927,0.9872,195.56,-1515.44,158.14
16540,-3.8440,0.0872,0.9880,-132.57,-1640.50,-44.98
16550,-3.8440,0.0817,0.9884,-835.69,-1531.13,-29.36
16560,-3.8439,0.0792,0.9871,-1538.82,-1484.25,48.77
16570,-3.8439,0.0795,0.9860,-1851.32,-1656.13,173.77
16580,-3.8439,0.0807,0.9862,-1820.07,-1796.75,298.77
16590,-3.8439,0.0812,0.9884,-1663.82,-1765.50,392.52
16600,-3.8439,0.0795,0.9912,-1601.32,-1484.25,486.27
16610,-3.8439,0.0763,0.9924,-1820.07,-1124.88,626.89
16620,-3.8439,0.0743,0.9919,1773.68,-968.63,814.39
16630,-3.8439,0.0745,0.9895,1523.68,-1031.13,923.77
16640,-3.8439,0.0758,0.9868,1539.31,-1343.63,845.64
16650,-3.8439,0.0767,0.9866,1711.18,-1687.38,705.02
16660,-3.8439,0.0756,0.9888,1820.56,-1718.63,658.14
16670,-3.8439,0.0732,0.9912,1679.93,-1437.38,626.89
16680,-3.8439,0.0709,0.9927,1383.06,-1124.88,783.14
16690,-3.8439,0.0699,0.9924,1086.18,-937.38,1033.14
16700,-3.8439,0.0707,0.9929,961.18,-968.63,1173.77
16710,-3.8439,0.0712,0.9954,1054.93,-906.13,1439.39
16720,-3.8439,0.0707,0.9978,1117.43,-593.63,1814.39
16730,-3.8439,0.0712,0.9982,1054.93,-281.13,-1873.11
16740,-3.8439,0.0721,0.9950,1117.43,-234.25,-1966.86
16750,-3.8439,0.0725,0.9900,1242.43,-640.50,1580.02
16760,-3.8439,0.0720,0.9862,1289.31,-1281.13,1142.52
16770,-3.8439,0.0707,0.9849,1226.81,-1765.50,830.02
16780,-3.8439,0.0695,0.9857,1054.93,-1937.38,673.77
16790,-3.8439,0.0686,0.9868,898.68,-1828.00,611.27
16800,-3.8439,0.0684,0.9874,789.31,-1687.38,533.14
16810,-3.8439,0.0686,0.9885,758.06,-1609.25,517.52
16820,-3.8439,0.0698,0.9894,789.31,-1468.63,611.27
16830,-3.8439,0.0714,0.9906,945.56,-1359.25,658.14
16840,-3.8439,0.0724,0.9919,1148.68,-1203.00,642.52
16850,-3.8439,0.0742,0.9929,1273.68,-1031.13,595.64
16860,-3.8439,0.0771,0.9933,1508.06,-906.13,564.39
16870,-3.8439,0.0801,0.9924,1883.06,-859.25,423.77
16880,-3.8439,0.0822,0.9906,-1741.94,-968.63,33.14
16890,-3.8440,0.0829,0.9891,-1476.32,-1203.00,-326.23
16900,-3.8440,0.0822,0.9889,-1382.57,-1390.50,-482.48
16910,-3.8440,0.0801,0.9897,-1476.32,-1421.75,-607.48
16920,-3.8440,0.0782,0.9917,-1741.94,-1312.38,-654.36
16930,-3.8440,0.0776,0.9946,-1976.32,-1062.38,-451.23
16940,-3.8440,0.0791,0.9979,1945.56,-687.38,-60.61
16950,-3.8439,0.0820,1.0010,-1866.94,-265.50,267.52
16960,-3.8439,0.0834,1.0023,-1491.94,125.12,439.45
16970,-3.8439,0.0833,1.0017,-1320.07,297.00,564.45
16980,-3.8439,0.0818,0.9994,-1335.69,218.87,720.70
16990,-3.8439,0.0784,0.9958,-1523.19,-78.00,751.89
17000,-3.8439,0.0741,0.9924,-1960.69,-531.13,517.52
17010,-3.8439,0.0717,0.9891,1492.43,-968.63,126.89
17020,-3.8440,0.0723,0.9861,1179.93,-1390.50,-154.36
17030,-3.8440,0.0734,0.9854,1258.06,-1781.13,-388.73
17040,-3.8440,0.0730,0.9873,1398.68,-1874.88,-451.23
17050,-3.8440,0.0715,0.9889,1351.81,-1624.88,-185.61
17060,-3.8439,0.0695,0.9889,1164.31,-1421.75,205.02
17070,-3.8439,0.0676,0.9880,898.68,-1421.75,455.02
17080,-3.8439,0.0660,0.9868,664.31,-1531.13,455.02
17090,-3.8439,0.0645,0.9855,461.18,-1687.38,298.77
17100,-3.8439,0.0641,0.9836,258.06,-1859.25,158.14
17110,-3.8439,0.0664,0.9805,211.18,1906.37,126.89
17120,-3.8439,0.0699,0.9785,508.06,1500.12,48.77
17130,-3.8440,0.0726,0.9807,961.18,1250.12,-169.98
17140,-3.8440,0.0734,0.9850,1304.93,1531.37,-310.61
17150,-3.8440,0.0741,0.9879,1398.68,-1921.75,-169.98
17160,-3.8439,0.0759,0.9897,1492.43,-1546.75,205.02
17170,-3.8439,0.0773,0.9918,1726.81,-1312.38,548.77
17180,-3.8439,0.0779,0.9937,1898.68,-1046.75,798.77
17190,-3.8439,0.0778,0.9937,1976.81,-812.38,923.77
17200,-3.8439,0.0769,0.9932,1961.18,-812.38,892.52
17210,-3.8439,0.0754,0.9940,1851.81,-874.88,736.27
17220,-3.8439,0.0747,0.9943,1664.31,-765.50,470.64
17230,-3.8439,0.0759,0.9926,1570.56,-734.25,205.02
17240,-3.8439,0.0786,0.9902,1726.81,-953.00,17.52
17250,-3.8440,0.0807,0.9877,-1929.44,-1249.88,-185.61
17260,-3.8440,0.0808,0.9863,-1663.82,-1578.00,-310.61
17270,-3.8440,0.0784,0.9872,-1648.19,-1749.88,-294.98
17280,-3.8440,0.0739,0.9890,-1960.69,-1640.50,-232.48
17290,-3.8440,0.0702,0.9906,1461.18,-1406.13,-91.86
17300,-3.8439,0.0680,0.9901,992.43,-1203.00,220.64
17310,-3.8439,0.0673,0.9874,711.18,-1265.50,501.89
17320,-3.8439,0.0677,0.9844,617.43,-1609.25,611.27
17330,-3.8439,0.0680,0.9823,679.93,-1999.88,564.39
17340,-3.8439,0.0681,0.9822,711.18,1734.50,455.02
17350,-3.8439,0.0687,0.9824,726.81,1718.87,361.27
17360,-3.8439,0.0703,0.9821,804.93,1750.12,345.64
17370,-3.8439,0.0729,0.9811,1008.06,1703.25,345.64
17380,-3.8439,0.0754,0.9803,1336.18,1578.25,236.27
17390,-3.8439,0.0759,0.9821,1664.31,1484.50,111.27
17400,-3.8439,0.0743,0.9861,1726.81,1703.25,111.27
17410,-3.8439,0.0731,0.9897,1523.68,-1781.13,220.64
17420,-3.8439,0.0741,0.9918,1367.43,-1312.38,298.77
17430,-3.8439,0.0759,0.9921,1492.43,-1046.75,189.39
17440,-3.8440,0.0785,0.9917,1726.81,-1015.50,-107.48
17450,-3.8440,0.0818,0.9904,-1945.07,-1062.38,-560.61
17460,-3.8440,0.0856,0.9883,-1523.19,-1234.25,-1013.73
17470,-3.8440,0.0884,0.9862,-1038.82,-1499.88,-1326.23
17480,-3.8440,0.0896,0.9850,-679.44,-1765.50,-1513.73
17490,-3.8440,0.0897,0.9854,-523.19,-1921.75,-1591.86
17500,-3.8440,0.0878,0.9868,-507.57,-1874.88,-1560.61
17510,-3.8440,0.0852,0.9891,-757.57,-1687.38,-1513.73
17520,-3.8440,0.0835,0.9930,-1085.69,-1390.50,-1279.36
17530,-3.8440,0.0828,0.9962,-1304.44,-890.50,-888.73
17540,-3.8440,0.0834,0.9960,-1398.19,-484.25,-669.98
17550,-3.8440,0.0846,0.9927,-1320.07,-515.50,-716.86
17560,-3.8440,0.0853,0.9891,-1163.82,-937.38,-888.73
17570,-3.8440,0.0845,0.9861,-1070.07,-1390.50,-1107.48
17580,-3.8440,0.0828,0.9847,-1179.44,-1781.13,-1263.73
17590,-3.8440,0.0812,0.9860,-1398.19,-1953.00,-1294.98
17600,-3.8440,0.0795,0.9885,-1601.32,-1796.75,-1044.98
17610,-3.8440,0.0779,0.9918,-1820.07,-1468.63,-529.36
17620,-3.8440,0.0764,0.9946,1976.81,-1046.75,-44.98
17630,-3.8439,0.0753,0.9972,1789.31,-687.38,455.02
17640,-3.8439,0.0745,1.0005,1648.68,-359.25,955.02
17650,-3.8439,0.0730,1.0026,1539.31,62.62,1189.45
17660,-3.8439,0.0719,1.0020,1351.81,328.25,1205.08
17670,-3.8439,0.0718,0.9988,1211.18,250.12,1126.95
17680,-3.8439,0.0720,0.9940,1195.56,-156.13,955.02
17690,-3.8439,0.0721,0.9902,1226.81,-765.50,626.89
17700,-3.8439,0.0718,0.9890,1242.43,-1249.88,314.39
17710,-3.8439,0.0703,0.9893,1195.56,-1406.13,251.89
17720,-3.8439,0.0669,0.9896,1008.06,-1374.88,330.02
17730,-3.8439,0.0640,0.9907,570.56,-1328.00,595.64
17740,-3.8439,0.0618,0.9928,195.56,-1187.38,1001.89
17750,-3.8439,0.0598,0.9945,-85.69,-921.81,1330.02
17760,-3.8439,0.0594,0.9948,-335.69,-703.06,1486.27
17770,-3.8439,0.0607,0.9928,-382.57,-671.81,1517.52
17780,-3.8439,0.0624,0.9895,-226.32,-921.81,1439.39
17790,-3.8439,0.0641,0.9873,-7.57,-1343.69,1267.52
17800,-3.8439,0.0662,0.9865,211.18,-1624.88,1126.89
17810,-3.8439,0.0679,0.9860,476.81,-1734.25,1001.89
17820,-3.8439,0.0696,0.9872,695.56,-1796.75,767.52
17830,-3.8439,0.0710,0.9902,914.31,-1640.50,595.64
17840,-3.8439,0.0718,0.9938,1101.81,-1249.88,564.39
17850,-3.8439,0.0725,0.9966,1195.56,-796.75,439.39
17860,-3.8439,0.0732,0.9974,1289.31,-437.38,236.27
17870,-3.8439,0.0736,0.9951,1383.06,-328.00,1.89
17880,-3.8440,0.0730,0.9918,1429.93,-624.88,-357.48
17890,-3.8440,0.0721,0.9901,1351.81,-1046.75,-732.48
17900,-3.8440,0.0734,0.9891,1242.43,-1265.50,-1013.73
17910,-3.8440,0.0770,0.9882,1398.68,-1390.50,-1107.48
17920,-3.8440,0.0806,0.9877,1867.43,-1515.50,-951.23
17930,-3.8440,0.0825,0.9884,-1679.44,-1578.00,-732.48
17940,-3.8440,0.0825,0.9899,-1429.44,-1484.25,-576.23
17950,-3.8440,0.0820,0.9924,-1429.44,-1296.75,-513.73
17960,-3.8440,0.0819,0.9951,-1491.94,-968.63,-482.48
17970,-3.8440,0.0818,0.9972,-1507.57,-624.88,-451.23
17980,-3.8440,0.0829,0.9982,-1523.19,-359.25,-466.86
17990,-3.8440,0.0854,0.9972,-1382.57,-234.25,-498.11
18000,-3.8440,0.0876,0.9948,-1054.44,-359.25,-576.23
18010,-3.8440,0.0880,0.9912,-773.19,-671.75,-732.48
18020,-3.8440,0.0852,0.9877,-726.32,-1124.88,-1044.98
18030,-3.8440,0.0798,0.9856,-1085.69,-1578.00,-1201.23
18040,-3.8440,0.0740,0.9846,-1773.19,-1843.63,-1076.23
18050,-3.8440,0.0698,0.9834,1476.81,-1968.63,-935.61
18060,-3.8440,0.0697,0.9813,945.56,1875.12,-763.73
18070,-3.8440,0.0735,0.9795,929.93,1609.50,-560.61
18080,-3.8440,0.0784,0.9794,1414.31,1375.12,-482.48
18090,-3.8440,0.0824,0.9822,-1960.69,1359.50,-404.36
18100,-3.8440,0.0848,0.9872,-1445.07,1718.87,-138.73
18110,-3.8439,0.0862,0.9918,-1132.57,-1640.50,173.77
18120,-3.8439,0.0870,0.9934,-960.69,-1046.75,298.77
18130,-3.8439,0.0880,0.9921,-851.32,-843.63,189.39
18140,-3.8440,0.0883,0.9894,-726.32,-1015.50,-76.23
18150,-3.8440,0.0863,0.9875,-695.07,-1359.25,-373.11
18160,-3.8440,0.0828,0.9869,-945.07,-1593.63,-466.86
18170,-3.8440,0.0782,0.9857,-1398.19,-1671.75,-404.36
18180,-3.8440,0.0712,0.9839,-1976.32,-1828.00,-435.61
18190,-3.8440,0.0616,0.9802,1117.43,1937.62,-810.61
18200,-3.8440,0.0497,0.9744,-101.32,1468.81,-1482.48
18210,-3.8440,0.0363,0.9705,-1632.57,718.81,1736.27
18220,-3.8440,0.0243,0.9697,648.68,218.81,986.27
18230,-3.8440,0.0133,0.9727,-882.57,125.00,751.89
18240,-3.8440,0.0067,0.9784,1711.18,500.00,970.64
18250,-3.8440,0.0093,0.9821,867.43,1234.38,1220.64
18260,-3.8440,0.0204,0.9821,1195.56,1703.12,1220.64
18270,-3.8440,0.0360,0.9802,-1382.57,1703.12,986.27
18280,-3.8440,0.0530,0.9801,617.43,1468.81,892.52
18290,-3.8440,0.0696,0.9850,-1210.69,1453.19,1361.27
18300,-3.8440,0.0858,0.9951,914.31,-1921.75,-1529.36
18310,-3.8440,0.1028,1.0081,-1007.57,-624.88,-185.61
18320,-3.8439,0.1211,1.0177,1164.31,1031.43,923.83
18330,-3.8439,0.1373,1.0194,-491.94,-1734.19,1705.08
18340,-3.8439,0.1466,1.0157,1586.18,-1515.38,-1841.80
18350,-3.8439,0.1469,1.0107,-1226.32,-1984.13,-1638.67
18360,-3.8439,0.1405,1.0074,-1195.07,1375.24,-1498.05
18370,-3.8439,0.1307,1.0063,1992.43,953.37,-1279.30
18380,-3.8439,0.1200,1.0044,742.43,812.74,-1076.17
18390,-3.8439,0.1105,1.0009,-632.57,562.68,-1060.55
18400,-3.8439,0.1019,0.9976,-1851.32,109.56,-1279.30
18410,-3.8439,0.0936,0.9949,1054.93,-312.32,-1857.48
18420,-3.8439,0.0863,0.9919,-7.57,-656.13,1408.14
18430,-3.8439,0.0814,0.9878,-945.07,-1031.13,736.27
18440,-3.8439,0.0787,0.9843,-1570.07,-1562.38,126.89
18450,-3.8440,0.0769,0.9851,-1913.82,1984.50,-419.98
18460,-3.8440,0.0764,0.9905,1851.81,-1906.13,-716.86
18470,-3.8440,0.0768,0.9978,1789.31,-1218.63,-701.23
18480,-3.8440,0.0773,1.0035,1836.18,-281.13,-576.23
18490,-3.8440,0.0780,1.0051,1898.68,453.25,-513.67
18500,-3.8440,0.0770,1.0028,1992.43,656.37,-591.80
18510,-3.8440,0.0723,0.9985,1867.43,359.50,-779.30
18520,-3.8440,0.0648,0.9938,1258.06,-187.38,-904.36
18530,-3.8440,0.0583,0.9910,304.93,-796.75,-951.23
18540,-3.8440,0.0548,0.9911,-523.19,-1156.19,-763.73
18550,-3.8440,0.0532,0.9934,-976.32,-1140.56,-373.11
18560,-3.8439,0.0518,0.9957,-1179.44,-843.69,1.89
18570,-3.8439,0.0502,0.9950,-1366.94,-546.81,298.77
18580,-3.8439,0.0493,0.9918,-1570.07,-640.56,423.77
18590,-3.8439,0.0491,0.9882,-1679.44,-1046.81,470.64
18600,-3.8439,0.0480,0.9854,-1710.69,-1515.56,408.14
18610,-3.8439,0.0469,0.9839,-1851.32,-1874.94,142.52
18620,-3.8440,0.0470,0.9824,-1991.94,1937.56,-341.86
18630,-3.8440,0.0486,0.9807,-1976.32,1750.06,-841.86
18640,-3.8440,0.0504,0.9791,-1773.19,1531.31,-1138.73
18650,-3.8440,0.0515,0.9800,-1538.82,1328.19,-1169.98
18660,-3.8440,0.0538,0.9847,-1398.19,1437.56,-919.98
18670,-3.8440,0.0573,0.9917,-1101.32,-1953.06,-404.36
18680,-3.8439,0.0615,0.9979,-663.82,-1062.44,251.89
18690,-3.8439,0.0673,1.0016,-116.94,-265.56,767.52
18700,-3.8439,0.0735,1.0020,617.43,203.25,1064.45
18710,-3.8439,0.0780,0.9995,1414.31,250.12,1048.83
18720,-3.8439,0.0796,0.9960,1992.43,-62.38,705.02
18730,-3.8439,0.0782,0.9932,-1804.44,-515.50,236.27
18740,-3.8440,0.0751,0.9919,-1976.32,-874.88,-154.36
18750,-3.8440,0.0721,0.9928,1617.43,-1031.13,-310.61
18760,-3.8440,0.0720,0.9944,1242.43,-921.75,-248.11
18770,-3.8440,0.0740,0.9946,1226.81,-718.63,-107.48
18780,-3.8439,0.0759,0.9945,1476.81,-687.38,64.39
18790,-3.8439,0.0775,0.9941,1726.81,-703.00,142.52
18800,-3.8439,0.0765,0.9934,1929.93,-749.88,173.77
18810,-3.8439,0.0731,0.9939,1804.93,-843.63,298.77
18820,-3.8439,0.0690,0.9944,1367.43,-781.13,486.27
18830,-3.8439,0.0654,0.9927,836.18,-718.63,595.64
18840,-3.8439,0.0631,0.9891,383.06,-937.38,580.02
18850,-3.8439,0.0619,0.9860,86.18,-1390.50,376.89
18860,-3.8439,0.0609,0.9846,-70.07,-1796.81,95.64
18870,-3.8440,0.0581,0.9852,-195.07,-1968.69,-154.36
18880,-3.8440,0.0543,0.9857,-554.44,-1890.56,-451.23
18890,-3.8440,0.0516,0.9866,-1038.82,-1828.06,-716.86
18900,-3.8440,0.0519,0.9874,-1382.57,-1718.69,-763.73
18910,-3.8440,0.0562,0.9877,-1351.32,-1609.31,-701.23
18920,-3.8440,0.0634,0.9891,-804.44,-1578.06,-685.61
18930,-3.8440,0.0715,0.9924,117.43,-1390.50,-591.86
18940,-3.8440,0.0790,0.9978,1164.31,-968.63,-185.61
18950,-3.8439,0.0831,1.0029,-1882.57,-281.13,439.39
18960,-3.8439,0.0837,1.0049,-1351.32,375.12,1126.95
18970,-3.8439,0.0817,1.0024,-1273.19,625.12,1658.20
18980,-3.8439,0.0760,0.9954,-1538.82,312.62,1783.20
18990,-3.8439,0.0677,0.9854,1742.43,-593.63,1564.39
19000,-3.8439,0.0583,0.9758,679.93,-1874.88,1095.64
19010,-3.8439,0.0494,0.9694,-523.19,906.31,626.89
19020,-3.8439,0.0430,0.9680,-1663.82,78.19,486.27
19030,-3.8439,0.0404,0.9733,1508.06,-93.69,798.71
19040,-3.8439,0.0436,0.9825,1179.93,578.19,1533.14
19050,-3.8439,0.0514,0.9924,1586.18,1765.69,-1701.23
19060,-3.8439,0.0608,0.9990,-1413.82,-968.69,-1310.61
19070,-3.8439,0.0687,0.9993,-210.69,-124.94,-1435.61
19080,-3.8439,0.0729,0.9933,804.93,-93.63,1876.89
19090,-3.8439,0.0721,0.9850,1336.18,-859.25,767.52
19100,-3.8440,0.0673,0.9788,1242.43,-1921.75,-294.98
19110,-3.8440,0.0608,0.9771,617.43,1281.37,-951.23
19120,-3.8440,0.0566,0.9807,-210.69,1062.56,-1091.86
19130,-3.8440,0.0568,0.9890,-741.94,1531.31,-716.86
19140,-3.8439,0.0616,0.9993,-726.32,-1406.19,33.14
19150,-3.8439,0.0715,1.0076,-101.32,-93.69,892.52
19160,-3.8439,0.0826,1.0106,1164.31,968.87,1548.83
19170,-3.8439,0.0900,1.0084,-1413.82,1359.50,1830.08
19180,-3.8439,0.0922,1.0033,-476.32,1078.25,1845.70
19190,-3.8439,0.0901,0.9973,-195.07,422.00,1642.58
19200,-3.8439,0.0851,0.9913,-460.69,-343.63,1439.39
19210,-3.8439,0.0795,0.9863,-1101.32,-1109.25,1486.27
19220,-3.8439,0.0750,0.9832,-1820.07,-1749.88,1642.52
19230,-3.8439,0.0729,0.9827,1601.81,1843.87,1876.89
19240,-3.8439,0.0719,0.9840,1336.18,1781.37,-1654.36
19250,-3.8439,0.0718,0.9855,1211.18,1953.25,-1201.23
19260,-3.8439,0.0745,0.9861,1195.56,-1859.25,-1044.98
19270,-3.8439,0.0796,0.9863,1539.31,-1781.13,-1232.48
19280,-3.8439,0.0850,0.9852,-1804.44,-1749.88,-1701.23
19290,-3.8439,0.0887,0.9838,-1116.94,-1890.50,1580.02
19300,-3.8439,0.0900,0.9832,-632.57,1922.00,720.64
19310,-3.8439,0.0903,0.9832,-476.32,1843.87,80.02
19320,-3.8440,0.0892,0.9834,-429.44,1843.87,-341.86
19330,-3.8440,0.0851,0.9828,-570.07,1875.12,-794.98
19340,-3.8440,0.0800,0.9829,-1101.32,1797.00,-1138.73
19350,-3.8440,0.0748,0.9827,-1757.57,1812.62,-1513.73
19360,-3.8440,0.0671,0.9805,1586.18,1781.37,-1841.86
19370,-3.8440,0.0573,0.9797,601.81,1500.12,-1857.48
19380,-3.8440,0.0525,0.9807,-663.82,1406.31,-1623.11
19390,-3.8440,0.0573,0.9823,-1273.19,1531.31,-1091.86
19400,-3.8440,0.0651,0.9844,-663.82,1734.44,-544.98
19410,-3.8440,0.0687,0.9851,336.18,-1999.88,-138.73
19420,-3.8439,0.0681,0.9856,804.93,-1906.13,298.77
19430,-3.8439,0.0658,0.9860,726.81,-1843.63,767.52
19440,-3.8439,0.0645,0.9858,429.93,-1796.75,1095.64
19450,-3.8439,0.0643,0.9856,258.06,-1812.38,1251.89
19460,-3.8439,0.0646,0.9851,242.43,-1843.63,1330.02
19470,-3.8439,0.0658,0.9836,273.68,-1906.13,1220.64
19480,-3.8439,0.0679,0.9816,429.93,1906.37,939.39
19490,-3.8439,0.0697,0.9797,695.56,1640.75,705.02
19500,-3.8439,0.0707,0.9792,929.93,1406.37,470.64
19510,-3.8439,0.0708,0.9802,1054.93,1343.87,205.02
19520,-3.8439,0.0696,0.9832,1070.56,1468.87,95.64
19530,-3.8439,0.0682,0.9873,914.31,1843.87,251.89
19540,-3.8439,0.0680,0.9911,742.43,-1624.88,580.02
19550,-3.8439,0.0676,0.9932,711.18,-1140.50,923.77
19560,-3.8439,0.0668,0.9939,664.31,-874.88,1205.02
19570,-3.8439,0.0662,0.9940,554.93,-781.13,1439.39
19580,-3.8439,0.0653,0.9930,476.81,-765.50,1705.02
19590,-3.8439,0.0642,0.9913,367.43,-890.50,1986.27
19600,-3.8439,0.0635,0.9902,226.81,-1109.25,-1810.61
19610,-3.8439,0.0627,0.9897,133.06,-1249.88,-1857.48
19620,-3.8439,0.0619,0.9900,39.31,-1312.38,1970.64
19630,-3.8439,0.0613,0.9906,-70.07,-1281.19,1939.39
19640,-3.8439,0.0614,0.9915,-148.19,-1203.06,-1919.98
19650,-3.8439,0.0623,0.9919,-132.57,-1093.69,-1794.98
19660,-3.8439,0.0636,0.9907,-23.19,-1031.19,-1935.61
19670,-3.8439,0.0649,0.9893,148.68,-1187.38,1798.77
19680,-3.8439,0.0664,0.9891,320.56,-1374.88,1705.02
19690,-3.8439,0.0685,0.9893,508.06,-1390.50,1736.27
19700,-3.8439,0.0704,0.9895,773.68,-1374.88,1783.14
19710,-3.8439,0.0707,0.9896,1023.68,-1343.63,1830.02
19720,-3.8439,0.0701,0.9886,1054.93,-1328.00,1751.89
19730,-3.8439,0.0698,0.9866,976.81,-1453.00,1392.52
19740,-3.8439,0.0706,0.9861,945.56,-1718.63,1001.89
19750,-3.8439,0.0725,0.9874,1039.31,-1781.13,720.64
19760,-3.8439,0.0750,0.9889,1289.31,-1609.25,423.77
19770,-3.8439,0.0770,0.9899,1601.81,-1421.75,95.64
19780,-3.8440,0.0784,0.9913,1867.43,-1296.75,-154.36
19790,-3.8440,0.0787,0.9929,-1960.69,-1109.25,-357.48
19800,-3.8440,0.0786,0.9938,-1913.82,-906.13,-591.86
19810,-3.8440,0.0785,0.9938,-1929.44,-796.75,-779.36
19820,-3.8440,0.0787,0.9927,-1945.07,-796.75,-982.48
19830,-3.8440,0.0779,0.9905,-1913.82,-937.38,-1294.98
19840,-3.8440,0.0752,0.9886,1976.81,-1218.63,-1529.36
19850,-3.8440,0.0721,0.9882,1633.06,-1453.00,-1591.86
19860,-3.8440,0.0686,0.9885,1242.43,-1515.50,-1669.98
19870,-3.8440,0.0654,0.9893,789.31,-1468.63,-1654.36
19880,-3.8440,0.0642,0.9893,383.06,-1374.88,-1498.11
19890,-3.8440,0.0643,0.9878,226.81,-1374.88,-1373.11
19900,-3.8440,0.0647,0.9861,242.43,-1562.38,-1310.61
19910,-3.8440,0.0657,0.9858,289.31,-1781.13,-1279.36
19920,-3.8440,0.0665,0.9873,414.31,-1812.38,-1248.11
19930,-3.8440,0.0658,0.9895,523.68,-1624.88,-1169.98
19940,-3.8440,0.0648,0.9900,429.93,-1343.63,-935.61
19950,-3.8440,0.0647,0.9888,304.93,-1281.13,-685.61
19960,-3.8440,0.0651,0.9879,289.31,-1437.38,-591.86
19970,-3.8440,0.0642,0.9893,336.18,-1546.75,-482.48
19980,-3.8440,0.0618,0.9927,226.81,-1374.88,-310.61
19990,-3.8439,0.0601,0.9958,-85.69,-937.44,64.39
20000,-3.8439,0.0607,0.9972,-304.44,-531.19,580.02
20010,-3.8439,0.0629,0.9977,-226.32,-359.31,955.02
20020,-3.8439,0.0647,0.9977,54.93,-296.75,1064.39
20030,-3.8439,0.0637,0.9976,289.31,-296.75,955.02
20040,-3.8439,0.0610,0.9979,164.31,-312.38,861.27
20050,-3.8439,0.0582,0.9982,-179.44,-265.56,814.39
20060,-3.8439,0.0553,0.9971,-538.82,-234.31,736.27
20070,-3.8439,0.0537,0.9949,-913.82,-374.94,642.52
20080,-3.8439,0.0536,0.9916,-1116.94,-656.19,330.02
20090,-3.8440,0.0536,0.9879,-1132.57,-1078.06,-107.48
20100,-3.8440,0.0538,0.9852,-1132.57,-1546.81,-404.36
20110,-3.8440,0.0543,0.9850,-1101.32,-1890.56,-513.73
20120,-3.8440,0.0535,0.9882,-1038.82,-1921.81,-451.23
20130,-3.8440,0.0520,0.9929,-1148.19,-1515.56,-185.61
20140,-3.8439,0.0520,0.9961,-1335.69,-906.19,80.02
20150,-3.8439,0.0543,0.9960,-1335.69,-499.94,251.89
20160,-3.8439,0.0573,0.9939,-1038.82,-515.56,408.14
20170,-3.8439,0.0597,0.9922,-663.82,-781.19,533.14
20180,-3.8439,0.0613,0.9921,-351.32,-999.94,517.52
20190,-3.8439,0.0620,0.9934,-148.19,-1015.56,361.27
20200,-3.8439,0.0614,0.9949,-54.44,-843.69,205.02
20210,-3.8439,0.0612,0.9958,-132.57,-656.19,33.14
20220,-3.8440,0.0638,0.9963,-163.82,-531.19,-248.11
20230,-3.8440,0.0687,0.9967,179.93,-468.63,-498.11
20240,-3.8440,0.0732,0.9971,804.93,-421.75,-576.23
20250,-3.8440,0.0756,0.9978,1383.06,-374.88,-607.48
20260,-3.8440,0.0764,0.9985,1679.93,-281.13,-560.61
20270,-3.8440,0.0760,0.9977,1789.31,-187.38,-341.86
20280,-3.8440,0.0748,0.9950,1742.43,-296.75,-107.48
20290,-3.8440,0.0728,0.9921,1586.18,-640.50,-138.73
20300,-3.8440,0.0713,0.9904,1320.56,-1015.50,-357.48
20310,-3.8440,0.0714,0.9906,1133.06,-1234.25,-435.61
20320,-3.8440,0.0720,0.9918,1148.68,-1203.00,-373.11
20330,-3.8440,0.0721,0.9930,1226.81,-1046.75,-466.86
20340,-3.8440,0.0707,0.9934,1242.43,-890.50,-732.48
20350,-3.8440,0.0687,0.9935,1054.93,-843.63,-1029.36
20360,-3.8440,0.0671,0.9929,804.93,-828.00,-1326.23
20370,-3.8440,0.0663,0.9902,601.81,-906.13,-1607.48
20380,-3.8440,0.0671,0.9877,492.43,-1249.88,-1794.98
20390,-3.8440,0.0687,0.9868,601.81,-1578.00,-1826.23
20400,-3.8440,0.0717,0.9872,804.93,-1687.38,-1841.86
20410,-3.8440,0.0752,0.9877,1179.93,-1640.50,-1951.23
20420,-3.8440,0.0769,0.9890,1633.06,-1578.00,-1904.36
20430,-3.8440,0.0769,0.9915,1851.81,-1406.13,-1654.36
20440,-3.8440,0.0750,0.9941,1851.81,-1093.63,-1404.36
20450,-3.8440,0.0720,0.9968,1601.81,-749.88,-1091.86
20460,-3.8440,0.0709,0.9978,1226.81,-406.13,-654.36
20470,-3.8440,0.0714,0.9949,1086.18,-281.13,-544.98
20480,-3.8440,0.0721,0.9904,1148.68,-656.13,-794.98
20490,-3.8440,0.0731,0.9869,1242.43,-1234.25,-1185.61
20500,-3.8440,0.0734,0.9852,1367.43,-1671.75,-1576.23
20510,-3.8440,0.0723,0.9847,1398.68,-1890.50,-1841.86
20520,-3.8440,0.0712,0.9856,1258.06,-1953.00,-1904.36
20530,-3.8440,0.0718,0.9885,1117.43,-1843.63,-1748.11
20540,-3.8440,0.0735,0.9919,1195.56,-1468.63,-1576.23
20550,-3.8440,0.0756,0.9935,1414.31,-1031.13,-1466.86
20560,-3.8440,0.0774,0.9932,1679.93,-828.00,-1388.73
20570,-3.8440,0.0773,0.9915,1914.31,-874.88,-1404.36
20580,-3.8440,0.0765,0.9896,1898.68,-1093.63,-1576.23
20590,-3.8440,0.0759,0.9889,1804.93,-1328.00,-1732.48
20600,-3.8440,0.0740,0.9889,1726.81,-1421.75,-1669.98
20610,-3.8440,0.0698,0.9900,1476.81,-1421.75,-1435.61
20620,-3.8440,0.0657,0.9916,945.56,-1281.13,-1216.86
20630,-3.8440,0.0630,0.9921,414.31,-1078.00,-1123.11
20640,-3.8440,0.0610,0.9910,70.56,-1015.50,-1029.36
20650,-3.8440,0.0599,0.9888,-179.44,-1156.19,-998.11
20660,-3.8440,0.0601,0.9868,-320.07,-1437.44,-1107.48
20670,-3.8440,0.0618,0.9855,-304.44,-1687.44,-1185.61
20680,-3.8440,0.0646,0.9834,-85.69,-1859.31,-1185.61
20690,-3.8440,0.0675,0.9816,273.68,1875.12,-1123.11
20700,-3.8440,0.0693,0.9827,648.68,1640.75,-1044.98
20710,-3.8440,0.0706,0.9869,883.06,1781.37,-888.73
20720,-3.8440,0.0712,0.9924,1039.31,-1671.75,-560.61
20730,-3.8440,0.0713,0.9968,1117.43,-968.63,-216.86
20740,-3.8439,0.0712,0.9990,1133.06,-406.13,17.52
20750,-3.8439,0.0688,0.9994,1117.43,-124.88,158.14
20760,-3.8439,0.0647,0.9979,820.56,-78.00,64.39
20770,-3.8440,0.0612,0.9949,289.31,-265.50,-248.11
20780,-3.8440,0.0598,0.9915,-163.82,-656.19,-591.86
20790,-3.8440,0.0602,0.9888,-335.69,-1093.69,-904.36
20800,-3.8440,0.0609,0.9880,-288.82,-1437.44,-1263.73
20810,-3.8440,0.0613,0.9882,-195.07,-1531.19,-1623.11
20820,-3.8440,0.0614,0.9874,-148.19,-1515.56,-1685.61
20830,-3.8440,0.0613,0.9874,-132.57,-1609.31,-1498.11
20840,-3.8440,0.0614,0.9894,-148.19,-1609.31,-1279.36
20850,-3.8440,0.0623,0.9922,-132.57,-1359.31,-1013.73
20860,-3.8440,0.0630,0.9935,-23.19,-999.94,-732.48
20870,-3.8440,0.0634,0.9928,70.56,-828.00,-513.73
20880,-3.8440,0.0642,0.9897,117.43,-921.75,-326.23
20890,-3.8440,0.0642,0.9863,226.81,-1312.38,-232.48
20900,-3.8440,0.0631,0.9852,226.81,-1749.88,-279.36
20910,-3.8440,0.0623,0.9865,86.18,-1890.50,-373.11
20920,-3.8440,0.0621,0.9888,-23.19,-1734.31,-451.23
20930,-3.8440,0.0643,0.9910,-38.82,-1437.44,-498.11
20940,-3.8440,0.0684,0.9935,242.43,-1156.13,-560.61
20950,-3.8440,0.0729,0.9957,758.06,-828.00,-638.73
20960,-3.8440,0.0769,0.9960,1336.18,-546.75,-763.73
20970,-3.8440,0.0795,0.9939,1851.81,-515.50,-998.11
20980,-3.8440,0.0793,0.9913,-1820.07,-781.13,-1279.36
20990,-3.8440,0.0770,0.9908,-1835.69,-1109.25,-1466.86
21000,-3.8440,0.0726,0.9923,1867.43,-1171.75,-1357.48
21010,-3.8440,0.0681,0.9922,1304.93,-984.25,-1060.61
21020,-3.8440,0.0662,0.9895,726.81,-999.88,-810.61
21030,-3.8440,0.0653,0.9861,476.81,-1343.63,-669.98
21040,-3.8440,0.0649,0.9845,367.43,-1781.13,-607.48
21050,-3.8440,0.0654,0.9854,320.56,-1984.25,-607.48
21060,-3.8440,0.0663,0.9873,383.06,-1874.88,-576.23
21070,-3.8440,0.0677,0.9891,492.43,-1624.88,-513.73
21080,-3.8440,0.0699,0.9895,679.93,-1390.50,-560.61
21090,-3.8440,0.0723,0.9884,961.18,-1343.63,-779.36
21100,-3.8440,0.0730,0.9877,1258.06,-1484.25,-1154.36
21110,-3.8440,0.0720,0.9885,1351.81,-1578.00,-1513.73
21120,-3.8440,0.0718,0.9910,1226.81,-1468.63,-1779.36
21130,-3.8440,0.0725,0.9924,1195.56,-1156.13,-1794.98
21140,-3.8440,0.0734,0.9911,1289.31,-968.63,-1654.36
21150,-3.8440,0.0750,0.9879,1398.68,-1140.50,-1654.36
21160,-3.8440,0.0764,0.9847,1601.81,-1546.75,-1810.61
21170,-3.8440,0.0768,0.9836,1789.31,-1953.00,-1904.36
21180,-3.8440,0.0765,0.9846,1836.18,1906.37,-1748.11
21190,-3.8440,0.0759,0.9869,1804.93,-1968.63,-1451.23
21200,-3.8440,0.0752,0.9895,1726.81,-1671.75,-998.11
21210,-3.8440,0.0751,0.9908,1633.06,-1343.63,-451.23
21220,-3.8440,0.0752,0.9912,1617.43,-1171.75,-107.48
21230,-3.8440,0.0748,0.9921,1633.06,-1124.88,-44.98
21240,-3.8440,0.0741,0.9933,1586.18,-1015.50,-169.98
21250,-3.8440,0.0742,0.9933,1492.43,-859.25,-388.73
21260,-3.8440,0.0753,0.9915,1508.06,-859.25,-654.36
21270,-3.8440,0.0765,0.9878,1648.68,-1093.63,-998.11
21280,-3.8440,0.0769,0.9858,1804.93,-1562.38,-1248.11
21290,-3.8440,0.0762,0.9869,1851.81,-1812.38,-1326.23
21300,-3.8440,0.0757,0.9897,1758.06,-1671.75,-1248.11
21310,-3.8440,0.0760,0.9933,1695.56,-1312.38,-966.86
21320,-3.8440,0.0768,0.9949,1742.43,-859.25,-591.86
21330,-3.8440,0.0765,0.9938,1836.18,-656.13,-216.86
21340,-3.8440,0.0746,0.9928,1804.93,-796.75,-29.36
21350,-3.8439,0.0718,0.9924,1554.93,-921.75,33.14
21360,-3.8439,0.0697,0.9926,1195.56,-968.63,126.89
21370,-3.8439,0.0682,0.9923,929.93,-953.00,111.27
21380,-3.8439,0.0673,0.9910,742.43,-984.25,1.89
21390,-3.8440,0.0671,0.9900,617.43,-1156.13,-107.48
21400,-3.8440,0.0673,0.9911,601.81,-1281.13,-216.86
21410,-3.8440,0.0674,0.9933,617.43,-1140.50,-294.98
21420,-3.8440,0.0679,0.9944,633.06,-859.25,-388.73
21430,-3.8440,0.0680,0.9934,695.56,-718.63,-451.23
21440,-3.8440,0.0688,0.9905,711.18,-843.63,-498.11
21450,-3.8440,0.0715,0.9880,820.56,-1218.63,-623.11
21460,-3.8440,0.0742,0.9877,1164.31,-1531.13,-810.61
21470,-3.8440,0.0757,0.9880,1508.06,-1578.00,-982.48
21480,-3.8440,0.0762,0.9884,1695.56,-1531.13,-982.48
21490,-3.8440,0.0754,0.9889,1758.06,-1484.25,-779.36
21500,-3.8440,0.0742,0.9904,1664.31,-1421.75,-529.36
21510,-3.8440,0.0735,0.9919,1508.06,-1234.25,-294.98
21520,-3.8440,0.0731,0.9918,1414.31,-1031.13,-107.48
21530,-3.8440,0.0736,0.9901,1367.43,-1046.75,-60.61
21540,-3.8440,0.0736,0.9880,1429.93,-1265.50,-154.36
21550,-3.8440,0.0718,0.9883,1429.93,-1531.13,-357.48
21560,-3.8440,0.0681,0.9910,1195.56,-1499.88,-560.61
21570,-3.8440,0.0648,0.9929,726.81,-1156.13,-591.86
21580,-3.8440,0.0642,0.9926,304.93,-906.13,-638.73
21590,-3.8440,0.0660,0.9904,226.81,-953.00,-841.86
21600,-3.8440,0.0686,0.9889,461.18,-1234.25,-951.23
21610,-3.8440,0.0696,0.9895,789.31,-1421.75,-1013.73
21620,-3.8440,0.0685,0.9913,914.31,-1343.63,-1060.61
21630,-3.8440,0.0670,0.9918,773.68,-1109.25,-810.61
21640,-3.8440,0.0668,0.9916,586.18,-1046.75,-388.73
21650,-3.8440,0.0676,0.9917,554.93,-1078.00,-76.23
21660,-3.8439,0.0680,0.9924,664.31,-1062.38,126.89
21670,-3.8439,0.0677,0.9940,711.18,-968.63,345.64
21680,-3.8439,0.0677,0.9963,679.93,-765.50,673.77
21690,-3.8439,0.0687,0.9991,679.93,-468.63,1048.77
21700,-3.8439,0.0706,1.0002,804.93,-109.25,1408.14
21710,-3.8439,0.0725,0.9980,1039.31,31.37,1595.70
21720,-3.8439,0.0734,0.9932,1289.31,-249.88,1533.14
21730,-3.8439,0.0735,0.9879,1398.68,-874.88,1236.27
21740,-3.8439,0.0721,0.9849,1414.31,-1546.75,798.77
21750,-3.8439,0.0691,0.9851,1242.43,-1937.38,423.77
21760,-3.8439,0.0660,0.9874,851.81,-1906.13,267.52
21770,-3.8439,0.0652,0.9904,461.18,-1609.25,439.39
21780,-3.8439,0.0671,0.9937,351.81,-1234.25,783.14
21790,-3.8439,0.0703,0.9974,601.81,-812.38,1142.52
21800,-3.8439,0.0718,1.0027,1008.06,-328.00,1548.77
21810,-3.8439,0.0720,1.0081,1195.56,343.87,1955.08
21820,-3.8439,0.0720,1.0114,1226.81,1031.37,-1857.42
21830,-3.8439,0.0726,1.0117,1226.81,1453.25,1986.33
21840,-3.8439,0.0741,1.0094,1304.93,1500.12,1533.20
21850,-3.8439,0.0757,1.0059,1492.43,1203.25,1033.20
21860,-3.8439,0.0760,1.0031,1695.56,750.12,689.45
21870,-3.8439,0.0739,1.0010,1742.43,390.75,345.70
21880,-3.8439,0.0712,0.9994,1461.18,125.12,111.33
21890,-3.8439,0.0702,0.9976,1117.43,-78.00,189.39
21900,-3.8439,0.0684,0.9952,992.43,-312.38,580.02
21910,-3.8439,0.0641,0.9943,758.06,-609.25,1095.64
21920,-3.8439,0.0591,0.9943,211.18,-734.25,1626.89
21930,-3.8439,0.0541,0.9930,-429.44,-734.31,-1904.36
21940,-3.8439,0.0497,0.9907,-1070.07,-890.56,-1591.86
21950,-3.8439,0.0471,0.9880,-1632.57,-1187.44,-1404.36
21960,-3.8439,0.0459,0.9852,-1960.69,-1531.19,-1357.48
21970,-3.8439,0.0457,0.9823,1883.06,-1890.56,-1451.23
21980,-3.8439,0.0466,0.9799,1851.81,1734.44,-1591.86
21990,-3.8439,0.0479,0.9790,1976.81,1421.94,-1794.98
22000,-3.8439,0.0492,0.9797,-1866.94,1312.56,-1951.23
22010,-3.8439,0.0502,0.9821,-1695.07,1406.31,-1998.11
22020,-3.8439,0.0511,0.9846,-1570.07,1703.19,-1982.48
22030,-3.8439,0.0516,0.9863,-1445.07,-1968.69,-1982.48
22040,-3.8439,0.0515,0.9874,-1382.57,-1749.94,-1982.48
22050,-3.8439,0.0516,0.9869,-1398.19,-1609.31,-1966.86
22060,-3.8439,0.0515,0.9849,-1382.57,-1671.81,1923.77
22070,-3.8439,0.0499,0.9810,-1398.19,-1937.44,1548.77
22080,-3.8439,0.0469,0.9757,-1601.32,1562.56,939.39
22090,-3.8439,0.0443,0.9717,-1991.94,890.69,314.39
22100,-3.8440,0.0442,0.9716,1679.93,375.06,-201.23
22110,-3.8440,0.0471,0.9764,1664.31,359.44,-498.11
22120,-3.8440,0.0527,0.9830,-1960.69,984.44,-607.48
22130,-3.8440,0.0608,0.9873,-1241.94,1828.19,-685.61
22140,-3.8440,0.0709,0.9886,-210.69,-1624.94,-841.86
22150,-3.8440,0.0812,0.9889,1086.18,-1453.00,-966.86
22160,-3.8440,0.0895,0.9886,-1601.32,-1421.75,-904.36
22170,-3.8440,0.0947,0.9890,-538.82,-1453.00,-763.73
22180,-3.8440,0.0963,0.9907,133.06,-1406.07,-435.61
22190,-3.8439,0.0945,0.9933,336.18,-1187.32,142.52
22200,-3.8439,0.0885,0.9963,101.81,-859.19,876.89
22210,-3.8439,0.0803,0.9979,-663.82,-468.63,1658.14
22220,-3.8439,0.0725,0.9954,-1710.69,-265.50,-1669.98
22230,-3.8439,0.0660,0.9899,1289.31,-593.63,-1248.11
22240,-3.8439,0.0608,0.9832,461.18,-1296.75,-1107.48
22250,-3.8439,0.0575,0.9764,-210.69,1843.81,-1138.73
22260,-3.8439,0.0559,0.9716,-632.57,984.44,-1248.11
22270,-3.8439,0.0544,0.9691,-835.69,359.44,-1498.11
22280,-3.8439,0.0538,0.9686,-1023.19,46.94,-1685.61
22290,-3.8439,0.0544,0.9694,-1101.32,-15.56,-1685.67
22300,-3.8439,0.0562,0.9713,-1023.19,78.19,-1748.11
22310,-3.8439,0.0583,0.9744,-804.44,328.19,-1966.86
22320,-3.8439,0.0605,0.9783,-523.19,718.81,1845.64
22330,-3.8439,0.0627,0.9822,-241.94,1218.81,1876.89
22340,-3.8439,0.0654,0.9852,39.31,1718.87,1908.14
22350,-3.8439,0.0704,0.9873,383.06,-1890.50,1861.27
22360,-3.8439,0.0778,0.9884,1023.68,-1624.88,1814.39
22370,-3.8439,0.0842,0.9893,1961.18,-1484.25,1642.52
22380,-3.8439,0.0881,0.9895,-1210.69,-1374.88,1314.39
22390,-3.8439,0.0903,0.9882,-710.69,-1343.63,970.64
22400,-3.8439,0.0903,0.9860,-429.44,-1515.50,658.14
22410,-3.8439,0.0878,0.9827,-429.44,-1796.75,283.14
22420,-3.8440,0.0847,0.9797,-757.57,1781.37,-13.73
22430,-3.8440,0.0825,0.9795,-1148.19,1406.37,-185.61
22440,-3.8440,0.0812,0.9818,-1429.44,1375.12,-169.98
22450,-3.8439,0.0814,0.9854,-1601.32,1672.00,48.77
22460,-3.8439,0.0831,0.9886,-1570.07,-1874.88,517.52
22470,-3.8439,0.0844,0.9912,-1351.32,-1453.00,1033.14
22480,-3.8439,0.0839,0.9941,-1195.07,-1124.88,1470.64
22490,-3.8439,0.0814,0.9962,-1257.57,-749.88,1955.02
22500,-3.8439,0.0771,0.9956,-1570.07,-484.25,-1685.61
22510,-3.8439,0.0741,0.9928,1883.06,-562.38,-1607.48
22520,-3.8439,0.0732,0.9899,1492.43,-921.75,-1638.73
22530,-3.8439,0.0734,0.9871,1383.06,-1296.75,-1841.86
22540,-3.8439,0.0730,0.9844,1398.68,-1656.13,1751.89
22550,-3.8439,0.0709,0.9835,1351.81,-1999.88,1298.77
22560,-3.8439,0.0667,0.9843,1086.18,1890.75,908.14
22570,-3.8439,0.0621,0.9844,539.31,1984.50,830.02
22580,-3.8439,0.0598,0.9807,-38.82,-1999.94,986.27
22590,-3.8439,0.0603,0.9724,-335.69,1531.31,986.27
22600,-3.8439,0.0631,0.9609,-273.19,468.81,705.02
22610,-3.8439,0.0669,0.9508,86.18,-999.88,173.71
22620,-3.8440,0.0695,0.9464,570.56,1703.25,-295.04
22630,-3.8440,0.0690,0.9518,898.68,1140.75,-482.54
22640,-3.8440,0.0676,0.9695,836.18,1828.25,-591.92
22650,-3.8440,0.0687,0.9939,664.31,93.87,-935.61
22660,-3.8440,0.0710,1.0168,804.93,-781.13,-1607.48
22670,-3.8440,0.0729,1.0359,1101.81,-1843.63,1611.33
22680,-3.8440,0.0715,1.0535,1336.18,593.87,986.39
22690,-3.8440,0.0654,1.0680,1164.31,-1156.13,783.26
22700,-3.8440,0.0585,1.0730,383.06,703.25,1127.08
22710,-3.8440,0.0573,1.0671,-507.57,1343.81,1892.70
22720,-3.8440,0.0631,1.0521,-663.82,593.81,-1185.42
22730,-3.8440,0.0734,1.0321,86.18,-1328.00,-435.49
22740,-3.8440,0.0842,1.0144,1398.68,109.50,-29.24
22750,-3.8439,0.0890,1.0034,-1210.69,1843.87,111.33
22760,-3.8439,0.0840,1.0000,-601.32,437.62,220.70
22770,-3.8439,0.0709,1.0029,-1241.94,0.12,626.95
22780,-3.8439,0.0525,1.0078,1086.18,375.12,1439.45
22790,-3.8439,0.0339,1.0104,-1273.19,1000.06,-1810.55
22800,-3.8439,0.0188,1.0076,351.81,1328.19,-1591.80
22810,-3.8439,0.0076,0.9999,-1585.69,968.75,-1857.42
22820,-3.8439,-0.0001,0.9901,976.81,-15.62,1517.52
22830,-3.8439,-0.0040,0.9795,-7.57,-1250.06,720.64
22840,-3.8440,-0.0021,0.9688,-507.57,1390.56,-154.36
22850,-3.8440,0.0072,0.9596,-257.57,15.56,-1107.48
22860,-3.8440,0.0245,0.9532,929.93,-1171.88,1908.08
22870,-3.8440,0.0479,0.9491,-851.32,-1984.38,845.58
22880,-3.8441,0.0719,0.9456,-1866.94,1484.44,-357.54
22890,-3.8441,0.0928,0.9418,1211.18,1031.37,-1529.42
22900,-3.8441,0.1080,0.9370,-116.94,547.00,1517.46
22910,-3.8441,0.1169,0.9318,1836.18,-62.32,986.15
22920,-3.8441,0.1191,0.9279,-1023.19,-734.19,923.65
22930,-3.8441,0.1158,0.9249,-741.94,-1234.19,1158.02
22940,-3.8441,0.1095,0.9237,-1163.82,-1609.19,1470.52
22950,-3.8441,0.1029,0.9257,-1976.32,-1765.44,1814.27
22960,-3.8441,0.0986,0.9304,1179.93,-1515.44,-1826.35
22970,-3.8441,0.0959,0.9363,633.06,-906.07,-1498.23
22980,-3.8441,0.0923,0.9427,289.31,-156.07,-1263.85
22990,-3.8441,0.0853,0.9520,-179.44,672.00,-1045.04
23000,-3.8441,0.0762,0.9631,-1070.07,1859.50,-795.04
23010,-3.8441,0.0702,0.9739,1758.06,-718.63,-513.79
23020,-3.8441,0.0701,0.9841,992.43,656.37,-185.61
23030,-3.8440,0.0763,0.9932,976.81,1968.87,189.39
23040,-3.8440,0.0867,1.0000,1773.68,-874.88,455.02
23050,-3.8440,0.0955,1.0057,-898.19,0.12,455.08
23060,-3.8440,0.0983,1.0120,226.81,734.56,486.33
23070,-3.8440,0.0938,1.0182,586.18,1531.43,845.70
23080,-3.8440,0.0848,1.0226,8.06,-1671.69,1626.95
23090,-3.8440,0.0776,1.0250,-1132.57,-1109.25,-1248.05
23100,-3.8440,0.0782,1.0249,1945.56,-796.75,-29.30
23110,-3.8439,0.0879,1.0220,-1976.32,-812.38,861.33
23120,-3.8439,0.1027,1.0187,-741.94,-1187.38,1330.08
23130,-3.8439,0.1165,1.0182,1148.68,-1609.19,1548.83
23140,-3.8439,0.1205,1.0242,-1085.69,-1671.69,1955.08
23150,-3.8439,0.1115,1.0354,-570.07,-906.07,-966.80
23160,-3.8750,0.0953,1.0463,-1726.32,531.43,673.89
23170,-3.8750,0.0797,1.0511,211.18,1922.06,-1497.99
23180,-3.8750,0.0676,1.0481,-1788.82,-1453.00,-13.61
23190,-3.8749,0.0590,1.0389,664.31,-1843.63,658.26
23200,-3.8749,0.0522,1.0281,-445.07,984.44,486.39
23210,-3.8750,0.0449,1.0210,-1304.44,-406.19,-248.05
23220,-3.8750,0.0369,1.0197,1758.06,-1312.44,-1326.17
