timestamp_ms,ax,ay,az,gx,gy,gz
0,-3.8651,1.2942,0.3055,-38.82,1502.75,-1780.88
10,-3.8645,1.1454,0.4470,1664.31,-888.12,547.42
20,-3.8641,0.9235,0.5809,-1382.57,1220.95,1782.10
30,-3.8639,0.6378,0.6903,-1788.82,-1638.85,1579.22
40,-3.8638,0.3444,0.7834,1648.68,360.60,1.34
50,-3.8639,0.0621,0.8571,86.18,281.92,1782.78
60,-3.8641,-0.2107,0.9062,-38.82,1703.19,-576.48
70,-3.8644,-0.4573,0.9365,1039.31,15.20,517.40
80,-3.8649,-0.6531,0.9677,1476.81,-110.29,-1404.48
90,-3.8654,-0.7968,1.0072,414.31,-126.28,-716.92
100,-3.8658,-0.9094,1.0344,-1976.32,935.91,-1669.92
110,-3.8665,-1.0043,1.0361,-398.19,420.04,-1482.36
120,-3.8672,-1.0800,1.0234,-538.82,638.61,-529.24
130,-3.8679,-1.1281,1.0095,1773.68,-986.51,1642.58
140,-3.8688,-1.1483,0.9838,-382.57,1232.12,1611.33
150,-3.8696,-1.1407,0.9360,1023.68,1935.24,548.77
160,-3.8706,-1.0966,0.8683,1992.43,-174.13,1986.15
170,-3.8716,-1.0145,0.7876,-351.32,-845.95,-1029.60
180,-3.8724,-0.9088,0.7172,-1851.32,826.11,-1373.47
190,-3.8732,-0.7980,0.6720,-320.07,-189.33,1782.59
200,-3.8739,-0.6963,0.6461,1867.43,-1970.34,-264.34
210,-3.8745,-0.6118,0.6283,-1116.94,-1282.65,-576.90
220,-3.8439,-0.5310,0.6189,1695.56,436.28,-61.28
230,-3.8444,-0.4338,0.6110,39.31,-766.66,391.78
240,-3.8450,-0.3168,0.5879,476.81,-1782.10,1188.66
250,-3.8456,-0.1877,0.5526,-538.82,-735.05,-1498.90
260,-3.8462,-0.0677,0.5043,-23.19,-1250.43,-670.84
270,-3.8467,0.0397,0.4299,-663.82,562.32,563.48
280,-3.8472,0.1593,0.3496,1086.18,-968.69,-1936.71
290,-3.8474,0.2734,0.3086,398.68,750.31,-874.33
300,-3.8474,0.3197,0.3138,-991.94,-499.51,-515.08
310,-3.8472,0.3043,0.3381,929.93,172.49,641.24
320,-3.8470,0.2938,0.3507,-1038.82,-718.20,-405.64
330,-3.8468,0.3221,0.3468,1617.43,891.17,-1483.70
340,-3.8466,0.3969,0.3535,1242.43,391.24,813.17
350,-3.8464,0.5154,0.3666,-1195.07,1250.73,-93.08
360,-3.8461,0.6719,0.3600,1976.81,-1077.15,-389.95
370,-3.8455,0.8627,0.3427,-1991.94,-1920.59,-436.83
380,-3.8445,1.0654,0.3423,-1570.07,-138.98,891.24
390,-3.8746,1.2539,0.3756,383.06,-185.42,-1515.01
400,-3.8733,1.4277,0.4362,508.06,80.57,1141.36
410,-3.8721,1.5795,0.4772,-1241.94,-169.13,-389.83
420,-3.8708,1.6820,0.4591,-1820.07,1081.18,-1280.33
430,-3.8698,1.7386,0.3966,-695.07,-1231.14,1328.98
440,-3.8688,1.7605,0.3380,-1445.07,-1231.02,531.98
450,-3.8678,1.7448,0.3262,1351.81,-730.96,719.36
460,-3.8668,1.7125,0.3511,-663.82,1753.36,-1061.89
470,-3.8657,1.6764,0.3734,-788.82,940.80,1375.67
480,-3.8647,1.6047,0.3923,-1413.82,-199.89,-1171.20
490,-3.8638,1.4730,0.4404,1414.31,-1778.14,1016.36
500,-3.8630,1.2778,0.5427,554.93,377.87,-1936.65
510,-3.8624,1.0156,0.6906,-429.44,1471.19,1641.66
520,-3.8621,0.7035,0.8551,-1991.94,392.58,-1045.53
530,-3.8619,0.3770,0.9945,-1945.07,1454.47,-654.60
540,-3.8621,0.0723,1.0610,258.06,-702.39,861.27
550,-3.8625,-0.1982,1.0521,1258.06,-187.38,939.51
560,-3.8633,-0.4507,1.0214,-1366.94,-1312.93,-888.61
570,-3.8640,-0.7108,1.0122,-1679.44,-1250.92,1658.20
580,-3.8649,-0.9961,1.0300,1023.68,1576.72,1517.58
590,-3.8657,-1.2815,1.0642,508.06,-142.58,642.58
600,-3.8666,-1.4929,1.0880,-23.19,231.81,1080.20
610,-3.8674,-1.6045,1.0854,914.31,-721.68,-654.17
620,-3.8682,-1.6066,1.0608,-1366.94,-1050.05,-1044.80
630,-3.8689,-1.5342,1.0009,-1632.57,-206.30,-1638.61
640,-3.8698,-1.4368,0.9131,-366.94,121.95,-279.30
650,-3.8706,-1.2808,0.8248,101.81,887.82,-1685.73
660,-3.8716,-1.1210,0.7504,70.56,1591.25,-264.04
670,-3.8724,-0.9956,0.7195,523.68,60.30,-1279.79
680,-3.8732,-0.8562,0.7275,570.56,107.42,642.03
690,-3.8739,-0.7278,0.7324,-1585.69,1138.92,1126.40
700,-3.8746,-0.6210,0.7078,-1148.19,1764.16,-1654.85
710,-3.8441,-0.4987,0.6368,523.68,-1391.85,-1686.16
720,-3.8448,-0.3534,0.5271,179.93,1530.27,1001.22
730,-3.8456,-0.1793,0.4067,-1226.32,-516.36,1547.85
740,-3.8462,0.0231,0.3004,1054.93,77.76,-46.08
750,-3.8464,0.2101,0.2327,-1038.82,-1546.88,-1530.70
760,-3.8466,0.3297,0.2135,-1101.32,1781.62,-218.32
770,-3.8466,0.3890,0.2286,-1788.82,-671.26,-15.26
780,-3.8464,0.4014,0.2607,1804.93,1266.36,984.80
790,-3.8464,0.3892,0.2963,-616.94,1375.73,-1140.14
800,-3.8463,0.4305,0.2987,1820.56,1922.61,1922.42
810,-3.8461,0.5662,0.2618,-882.57,-1764.83,547.42
820,-3.8457,0.7526,0.2178,476.81,1516.72,47.36
830,-3.8453,0.9224,0.1936,336.18,-123.54,-1312.13
840,-3.8448,1.0256,0.1960,-1929.44,783.02,1703.49
850,-3.8445,1.0704,0.2003,-710.69,1095.70,1937.87
860,-3.8442,1.1030,0.2004,1023.68,1642.70,-671.51
870,-3.8439,1.1532,0.2115,1195.56,1658.39,1734.74
880,-3.8746,1.2216,0.2509,-382.57,-919.68,-1046.51
890,-3.8738,1.2797,0.3290,367.43,111.76,906.74
900,-3.8729,1.3145,0.4170,-195.07,-1888.18,-1124.39
910,-3.8721,1.3230,0.4559,258.06,1377.56,-405.46
920,-3.8713,1.3058,0.4144,1351.81,-1638.06,-796.02
930,-3.8707,1.2833,0.3251,-851.32,1049.38,1188.29
940,-3.8702,1.2839,0.2524,273.68,1611.88,-1983.76
950,-3.8696,1.3130,0.2339,351.81,315.00,-1093.26
960,-3.8687,1.3281,0.2781,70.56,1940.06,16.05
970,-3.8676,1.2727,0.3755,-1991.94,-403.69,1922.36
980,-3.8663,1.1436,0.5060,-1085.69,64.94,-1671.14
990,-3.8652,0.9562,0.6355,-1616.94,767.82,-1858.40
1000,-3.8644,0.7288,0.7289,-1601.32,1345.58,-1530.03
1010,-3.8638,0.5061,0.7874,1289.31,1298.28,-701.72
1020,-3.8633,0.3158,0.8317,789.31,782.23,1345.28
1030,-3.8630,0.1610,0.8796,429.93,-1546.26,360.96
1040,-3.8632,0.0237,0.9385,617.43,594.06,-420.17
1050,-3.8634,-0.1488,1.0031,-960.69,125.00,-498.17
1060,-3.8638,-0.3978,1.0598,961.18,405.94,-1685.55
1070,-3.8643,-0.7041,1.0947,1086.18,-328.92,-1701.11
1080,-3.8647,-0.9954,1.1097,1883.06,139.22,267.76
1090,-3.8655,-1.2029,1.1052,601.81,-1939.45,-1122.86
1100,-3.8662,-1.3064,1.0627,-1960.69,1481.99,924.01
1110,-3.8671,-1.2926,0.9879,789.31,44.31,423.95
1120,-3.8680,-1.2316,0.9114,-1445.07,-1533.81,-310.61
1130,-3.8689,-1.2031,0.8650,-1632.57,669.43,-482.60
1140,-3.8696,-1.1844,0.8517,-1991.94,-1268.01,48.52
1150,-3.8705,-1.1899,0.8523,398.68,1028.93,1861.02
1160,-3.8712,-1.2020,0.8678,-304.44,1106.99,392.27
1170,-3.8721,-1.1851,0.8890,-1851.32,-908.63,1876.65
1180,-3.8729,-1.1646,0.9124,320.56,1810.18,-248.29
1190,-3.8735,-1.1530,0.9392,-1054.44,794.56,17.40
1200,-3.8743,-1.1157,0.9413,429.93,232.12,-1748.17
1210,-3.8749,-0.9888,0.8948,1195.56,497.80,-1513.79
1220,-3.8441,-0.7882,0.8204,1445.56,-1455.08,1001.71
1230,-3.8447,-0.5558,0.7480,-882.57,1029.66,-60.91
1240,-3.8452,-0.3016,0.6556,867.43,-235.47,970.15
1250,-3.8458,-0.0454,0.5184,1398.68,-63.11,-1905.03
1260,-3.8462,0.1831,0.3726,-1804.44,-1625.12,-1999.02
1270,-3.8462,0.3268,0.2837,-554.44,-312.19,422.55
1280,-3.8459,0.3671,0.2853,1836.18,313.11,125.55
1290,-3.8456,0.3621,0.3585,-1007.57,516.30,1672.42
1300,-3.8451,0.4050,0.4468,-1648.19,1891.30,485.05
1310,-3.8447,0.5297,0.4832,-148.19,1188.23,1250.85
1320,-3.8445,0.6958,0.4279,-195.07,1844.73,-452.21
1330,-3.8441,0.8829,0.2976,1070.56,-1233.03,-1827.33
1340,-3.8750,1.0637,0.1566,1023.68,-1904.54,-1374.45
1350,-3.8746,1.1840,0.0674,164.31,48.95,1937.81
1360,-3.8744,1.2345,0.0498,-445.07,627.26,1562.62
1370,-3.8743,1.2295,0.0743,-1976.32,-1622.62,1234.44
1380,-3.8743,1.1792,0.1088,1383.06,1518.01,-640.50
1390,-3.8740,1.1299,0.1504,-1054.44,1924.13,1734.56
1400,-3.8735,1.1328,0.2186,633.06,-747.80,1578.37
1410,-3.8728,1.1877,0.3049,1008.06,-13.43,1422.24
1420,-3.8721,1.2671,0.3527,39.31,-966.43,-1796.33
1430,-3.8715,1.3304,0.3392,-1804.44,1143.07,-733.70
1440,-3.8710,1.3525,0.2914,-1695.07,-575.56,-827.51
1450,-3.8706,1.3562,0.2535,1133.06,1299.50,-921.33
1460,-3.8702,1.3704,0.2737,1601.81,455.75,-1093.26
1470,-3.8699,1.4182,0.3384,-585.69,-966.13,-233.89
1480,-3.8694,1.4851,0.3901,1539.31,-684.75,1125.61
1490,-3.8690,1.5050,0.4164,-1898.19,1940.37,-639.89
1500,-3.8684,1.4575,0.4290,648.68,1299.80,1578.92
1510,-3.8677,1.3903,0.4518,-1429.44,-1090.94,-467.96
1520,-3.8667,1.3379,0.5143,1961.18,1830.81,-1764.77
1530,-3.8657,1.3237,0.6002,-741.94,1830.69,79.10
1540,-3.8650,1.3496,0.6764,1445.56,830.69,1313.66
1550,-3.8645,1.3365,0.7495,758.06,-1419.25,-1545.59
1560,-3.8643,1.1964,0.8506,-913.82,-59.94,-1076.72
1570,-3.8641,0.9032,0.9971,1148.68,877.32,-263.98
1580,-3.8640,0.4841,1.1646,-382.57,-373.29,-29.36
1590,-3.8640,0.0223,1.2988,1976.81,1063.42,-60.24
1600,-3.8643,-0.3944,1.3601,-1132.57,-1750.00,-372.50
1610,-3.8647,-0.7137,1.3364,1523.68,-1891.42,1674.50
1620,-3.8655,-0.8885,1.2528,648.68,-923.28,315.06
1630,-3.8663,-0.9314,1.1600,-1726.32,373.23,80.57
1640,-3.8672,-0.8912,1.1047,789.31,498.17,174.13
1650,-3.8680,-0.8361,1.1071,1929.93,1420.10,-1185.36
1660,-3.8687,-0.8727,1.1537,992.43,1717.10,830.26
1670,-3.8693,-0.9810,1.2032,304.93,-314.21,1174.07
1680,-3.8699,-1.0736,1.2109,-1554.44,-1970.70,1986.69
1690,-3.8705,-1.0996,1.1664,-1413.82,-986.51,-1638.31
1700,-3.8711,-1.0247,1.0861,-741.94,1310.30,1783.51
1710,-3.8717,-0.8843,0.9888,851.81,-970.76,642.70
1720,-3.8724,-0.7250,0.8887,-1179.44,-1423.65,-326.23
1730,-3.8730,-0.5758,0.7935,-788.82,1764.16,-904.54
1740,-3.8737,-0.4386,0.7067,-1695.07,1576.97,-295.35
1750,-3.8741,-0.3018,0.6304,-132.57,-1532.17,-1404.91
1760,-3.8745,-0.1809,0.5753,1383.06,702.51,251.22
1770,-3.8750,-0.0907,0.5413,851.81,1655.88,-733.28
1780,-3.8441,-0.0361,0.5133,398.68,1296.69,-1030.21
1790,-3.8445,-0.0115,0.4867,-616.94,1718.63,-717.77
1800,-3.8447,0.0000,0.4615,-1460.69,-1687.56,1125.92
1810,-3.8450,0.0166,0.4434,8.06,-921.88,-452.27
1820,-3.8450,0.0516,0.4341,-1866.94,750.00,-1202.27
1830,-3.8450,0.1140,0.4222,-1382.57,-437.44,-764.83
1840,-3.8450,0.2081,0.4006,-1398.19,-1952.94,1266.42
1850,-3.8452,0.3181,0.3706,-1351.32,-718.38,-639.89
1860,-3.8453,0.4169,0.3268,726.81,-561.89,31.92
1870,-3.8456,0.5222,0.2692,1367.43,1828.92,-93.14
1880,-3.8455,0.6395,0.2177,-1148.19,-1545.90,1656.74
1890,-3.8452,0.7349,0.2083,1867.43,-139.40,-1734.01
1900,-3.8448,0.7982,0.2552,-1929.44,-1342.35,-1171.51
1910,-3.8445,0.8633,0.3228,-1820.07,673.40,1797.36
1920,-3.8442,0.9725,0.3492,-1491.94,1314.15,1438.11
1930,-3.8441,1.1532,0.3092,492.43,705.02,-311.83
1940,-3.8750,1.3810,0.2319,-382.57,-419.68,516.17
1950,-3.8746,1.5809,0.1689,773.68,1690.19,-390.20
1960,-3.8739,1.7067,0.1899,-1632.57,1628.05,250.31
1970,-3.8733,1.7396,0.3284,-1538.82,315.80,-1562.13
1980,-3.8726,1.6721,0.5500,-1320.07,-1965.39,0.61
1990,-3.8719,1.5375,0.7734,-1960.69,-1590.52,1751.04
2000,-3.8712,1.4612,0.8639,804.93,-997.01,48.34
2010,-3.8706,1.5175,0.7964,-960.69,-1419.07,-1545.23
2020,-3.8699,1.6232,0.7104,-1757.57,1940.43,-1810.97
2030,-3.8691,1.6575,0.7201,-226.32,-1059.39,1235.72
2040,-3.8685,1.5486,0.8358,164.31,175.11,63.90
2050,-3.8680,1.3151,1.0072,-1773.19,-1012.63,860.96
2060,-3.8676,1.0558,1.1931,336.18,924.44,-1982.42
2070,-3.8671,0.8433,1.3589,-851.32,720.76,-1997.68
2080,-3.8667,0.6837,1.4603,-54.44,1939.09,-1716.13
2090,-3.8665,0.5468,1.4818,-476.32,-1076.84,-1700.32
2100,-3.8663,0.4127,1.4423,1992.43,1672.91,-1153.38
2110,-3.8662,0.2766,1.3678,836.18,610.17,1159.06
2120,-3.8662,0.1266,1.2830,-585.69,-921.39,-1966.13
2130,-3.8662,-0.0233,1.2137,211.18,218.99,1643.13
2140,-3.8663,-0.1472,1.1754,1023.68,-625.06,-544.56
2150,-3.8663,-0.2390,1.1493,1164.31,-1531.56,971.01
2160,-3.8663,-0.2965,1.1180,1414.31,-875.49,908.45
2170,-3.8663,-0.3156,1.0914,-1945.07,-875.61,658.39
2180,-3.8665,-0.3236,1.0776,-382.57,-281.92,345.83
2190,-3.8668,-0.4005,1.0815,-1413.82,1952.45,-169.80
2200,-3.8672,-0.6117,1.0950,742.43,-1547.67,-372.92
2210,-3.8676,-0.9232,1.0867,1711.18,170.65,861.51
2220,-3.8680,-1.1885,1.0348,1836.18,-892.46,455.20
2230,-3.8687,-1.3201,0.9436,-116.94,466.37,-1513.61
2240,-3.8693,-1.3612,0.8514,-960.69,794.25,-1310.67
2250,-3.8699,-1.3485,0.7836,1773.68,997.31,251.65
2260,-3.8706,-1.3500,0.7163,-601.32,309.81,423.40
2270,-3.8713,-1.3947,0.6305,-788.82,-299.56,-1858.03
2280,-3.8719,-1.4293,0.5341,1492.43,716.00,-1326.90
2290,-3.8724,-1.4453,0.4548,1054.93,372.19,-1483.34
2300,-3.8728,-1.4095,0.4161,-991.94,-1768.49,219.60
2310,-3.8733,-1.3162,0.3998,-413.82,1278.44,1375.79
2320,-3.8738,-1.1688,0.3800,-460.69,-815.12,-624.27
2330,-3.8741,-0.9576,0.3517,-1601.32,653.93,-77.39
2340,-3.8744,-0.7045,0.3373,1429.93,1029.36,1203.80
2350,-3.8748,-0.4189,0.3722,1836.18,-813.90,703.74
2360,-3.8440,-0.1543,0.4401,-1616.94,-344.60,1141.30
2370,-3.8446,0.0449,0.5056,258.06,343.44,907.10
2380,-3.8453,0.1749,0.5316,1758.06,718.81,813.48
2390,-3.8461,0.2478,0.4561,-1601.32,47.18,-373.96
2400,-3.8463,0.2836,0.2825,-273.19,-1624.57,-764.77
2410,-3.8461,0.3120,0.1360,304.93,156.80,-1640.08
2420,-3.8457,0.3827,0.1479,-54.44,1406.80,-890.38
2430,-3.8453,0.4821,0.3075,992.43,-1061.77,828.37
2440,-3.8452,0.5415,0.4840,1711.18,-639.71,-46.33
2450,-3.8450,0.5422,0.5757,1320.56,1954.16,-1420.96
2460,-3.8447,0.5366,0.5709,1414.31,1688.54,-1483.28
2470,-3.8444,0.5880,0.5060,695.56,1079.16,1016.72
2480,-3.8440,0.7107,0.4292,-726.32,766.72,907.23
2490,-3.8749,0.8674,0.3721,-1023.19,-1061.16,813.29
2500,-3.8745,0.9919,0.3455,-960.69,-373.35,735.05
2510,-3.8741,1.0465,0.3331,-1023.19,220.64,1172.55
2520,-3.8738,1.0603,0.2875,1961.18,-1357.36,-827.51
2530,-3.8732,1.0804,0.2244,-273.19,798.89,-1905.70
2540,-3.8723,1.1274,0.2274,-1695.07,720.83,94.18
2550,-3.8715,1.2072,0.3362,320.56,1111.57,-1780.82
2560,-3.8705,1.2885,0.4828,-1476.32,-966.43,1734.99
2570,-3.8695,1.3296,0.5421,929.93,1799.38,1985.29
2580,-3.8685,1.3258,0.4879,-1804.44,1393.19,1876.04
2590,-3.8677,1.3121,0.4125,1711.18,-1544.31,-436.58
2600,-3.8668,1.3187,0.3939,-38.82,799.38,891.42
2610,-3.8662,1.3184,0.4470,804.93,-1575.56,360.11
2620,-3.8658,1.2725,0.5609,758.06,1221.31,-1889.77
2630,-3.8655,1.1434,0.7175,-1116.94,-200.68,579.16
2640,-3.8652,0.9041,0.8700,-1632.57,-154.05,1673.22
2650,-3.8651,0.5988,0.9401,-273.19,-638.92,-92.10
2660,-3.8650,0.3058,0.8960,648.68,329.28,-1373.17
2670,-3.8649,0.0522,0.8018,-851.32,-1311.95,220.46
2680,-3.8649,-0.1677,0.7385,-1304.44,-1374.94,1626.53
2690,-3.8649,-0.3453,0.7371,-1460.69,-1453.49,-1795.47
2700,-3.8649,-0.4816,0.7939,-195.07,-1641.36,-639.22
2710,-3.8647,-0.6086,0.9060,-1632.57,1639.65,95.28
2720,-3.8650,-0.7314,1.0145,-1898.19,-16.85,1189.21
2730,-3.8655,-0.8306,1.0122,-1616.94,1873.54,908.20
2740,-3.8661,-0.8457,0.8867,1695.56,1576.48,-1154.30
2750,-3.8666,-0.7588,0.7123,-241.94,1513.92,1907.96
2760,-3.8672,-0.7347,0.5742,-1116.94,-814.03,-358.03
2770,-3.8677,-0.8763,0.5544,1961.18,1514.16,1438.60
2780,-3.8683,-1.1080,0.6394,-163.82,-1017.40,954.16
2790,-3.8691,-1.3127,0.7230,-1820.07,1857.18,-467.53
2800,-3.8699,-1.4207,0.7506,-23.19,559.88,1704.53
2810,-3.8706,-1.4403,0.7467,-1835.69,90.94,-1936.04
2820,-3.8712,-1.3950,0.7374,-351.32,-409.12,345.15
2830,-3.8718,-1.3060,0.7288,1445.56,-1596.50,1157.65
2840,-3.8723,-1.2030,0.7190,836.18,1294.31,626.40
2850,-3.8728,-1.0978,0.7002,-1976.32,44.49,1985.78
2860,-3.8732,-0.9895,0.6722,-507.57,1638.43,501.34
2870,-3.8737,-0.8807,0.6405,1351.81,-1939.45,-670.59
2880,-3.8740,-0.7838,0.6111,-726.32,1998.23,-1483.15
2890,-3.8744,-0.7155,0.5951,-320.07,-1767.21,-1326.97
2900,-3.8748,-0.6677,0.5905,429.93,186.10,-795.72
2910,-3.8439,-0.6021,0.5813,-1460.69,-407.59,-1014.53
2920,-3.8442,-0.5006,0.5533,-1054.44,-1579.35,1829.22
2930,-3.8446,-0.3929,0.5143,-70.07,-1157.29,1876.04
2940,-3.8448,-0.2942,0.4922,1711.18,1842.96,1047.85
2950,-3.8451,-0.2046,0.4896,-1648.19,-984.99,-1717.83
2960,-3.8452,-0.1272,0.4891,1820.56,-1312.93,1485.29
2970,-3.8453,-0.0699,0.4874,-273.19,-1375.31,-77.21
2980,-3.8452,-0.0432,0.4915,-945.07,-1593.93,1516.54
2990,-3.8451,-0.0396,0.5018,-1523.19,-1078.25,735.29
3000,-3.8451,-0.0339,0.5168,-1054.44,249.88,-77.15
3010,-3.8450,-0.0085,0.5308,-335.69,-1828.25,1360.35
3020,-3.8450,0.0333,0.5302,-1085.69,-46.94,110.35
3030,-3.8451,0.0818,0.5072,273.68,-140.56,-1842.77
3040,-3.8451,0.1261,0.4706,-1523.19,922.00,-905.27
3050,-3.8448,0.1694,0.4454,148.68,234.62,1438.42
3060,-3.8445,0.2351,0.4507,1695.56,1015.93,1172.73
3070,-3.8441,0.3335,0.4681,-1898.19,1687.93,1594.60
3080,-3.8439,0.4608,0.4382,-1304.44,-77.51,-1514.77
3090,-3.8749,0.6047,0.3381,-1007.57,94.60,-1014.77
3100,-3.8745,0.7688,0.2227,1414.31,-717.59,-30.64
3110,-3.8739,0.9534,0.1528,-1585.69,501.46,1906.68
3120,-3.8733,1.1509,0.1594,-1960.69,-435.67,-1015.38
3130,-3.8726,1.3407,0.2084,-679.44,408.45,62.81
3140,-3.8721,1.4966,0.2382,-382.57,-1325.56,1765.99
3150,-3.8717,1.6121,0.2460,-429.44,-1512.76,-890.20
3160,-3.8713,1.6766,0.2491,-1648.19,-512.51,1359.80
3170,-3.8710,1.6707,0.2573,-1382.57,-106.14,703.55
3180,-3.8706,1.6149,0.2720,1851.81,940.73,-468.26
3190,-3.8701,1.5829,0.2638,-1288.82,-1184.39,-640.14
3200,-3.8696,1.6064,0.2163,-1382.57,1768.68,-1374.51
3210,-3.8691,1.6682,0.1725,1633.06,-309.39,-1827.76
3220,-3.8687,1.7307,0.1917,1539.31,-1918.64,-1827.82
3230,-3.8682,1.7437,0.2826,1539.31,534.61,1687.87
3240,-3.8677,1.6746,0.4093,-804.44,175.23,1172.42
3250,-3.8672,1.5385,0.5463,-1648.19,393.86,1563.29
3260,-3.8667,1.3671,0.6913,929.93,1924.87,-1702.09
3270,-3.8662,1.1921,0.8270,-1007.57,487.00,-1326.78
3280,-3.8657,1.0463,0.9148,601.81,1861.69,814.09
3290,-3.8655,0.9346,0.9305,1929.93,1095.76,1501.77
3300,-3.8655,0.8247,0.8907,-366.94,-888.85,-279.48
3310,-3.8655,0.6857,0.8618,1570.56,-1982.79,1704.83
3320,-3.8656,0.5116,0.9014,-226.32,-1686.22,-1576.48
3330,-3.8657,0.3180,0.9913,1492.43,-624.02,-435.79
3340,-3.8657,0.1400,1.0620,711.18,-1108.76,1845.64
3350,-3.8657,0.0039,1.0740,1929.93,-62.26,1111.39
3360,-3.8658,-0.0853,1.0398,508.06,1468.75,-279.17
3370,-3.8660,-0.1360,0.9851,1086.18,1109.19,-419.86
3380,-3.8662,-0.1575,0.9294,-1398.19,-1890.93,-232.48
3390,-3.8665,-0.1707,0.8783,-148.19,-1015.99,1376.77
3400,-3.8668,-0.2057,0.8250,-1835.69,437.13,1407.96
3410,-3.8672,-0.2656,0.7676,1679.93,1608.95,439.09
3420,-3.8677,-0.3270,0.7108,-1991.94,-1734.92,-639.16
3430,-3.8680,-0.3813,0.6671,-1851.32,-1000.67,-1279.91
3440,-3.8684,-0.4374,0.6509,-804.44,1405.46,1595.03
3450,-3.8689,-0.5051,0.6658,23.68,-672.73,-1014.40
3460,-3.8694,-0.5924,0.7015,-648.19,1233.34,-1561.22
3470,-3.8700,-0.6898,0.7408,179.93,1811.34,-342.41
3480,-3.8706,-0.7773,0.7655,-288.82,-1157.65,-826.72
3490,-3.8712,-0.8461,0.7621,508.06,1998.47,1954.59
3500,-3.8718,-0.8959,0.7369,-288.82,1560.79,1517.09
3510,-3.8724,-0.9243,0.7065,1336.18,-1658.02,-1029.85
3520,-3.8729,-0.9275,0.6771,1695.56,-1548.71,-1373.66
3530,-3.8733,-0.9047,0.6473,1289.31,-1314.33,391.91
3540,-3.8737,-0.8643,0.6167,211.18,-1126.77,282.47
3550,-3.8740,-0.8135,0.5894,1383.06,-1048.58,-1467.59
3560,-3.8743,-0.7511,0.5723,-116.94,-548.52,-1061.40
3570,-3.8744,-0.6764,0.5674,-132.57,1264.10,407.35
3580,-3.8746,-0.5918,0.5690,1429.93,639.28,1782.35
3590,-3.8749,-0.5004,0.5640,258.06,842.59,-1920.78
3600,-3.8439,-0.4003,0.5364,-38.82,202.09,1141.72
3610,-3.8441,-0.2942,0.4839,773.68,671.08,94.79
3620,-3.8444,-0.2028,0.4226,-1648.19,1952.51,563.42
3630,-3.8446,-0.1433,0.3768,-1945.07,-1891.05,-624.21
3640,-3.8446,-0.1041,0.3654,1664.31,249.69,141.36
3650,-3.8447,-0.0581,0.3827,-1320.07,-1218.99,1563.17
3660,-3.8448,0.0159,0.3994,570.56,999.88,-1546.14
3670,-3.8450,0.1171,0.3964,-1960.69,-875.00,-1936.77
3680,-3.8451,0.2319,0.3828,-1007.57,-1265.44,375.73
3690,-3.8453,0.3596,0.3687,1695.56,1000.43,-686.77
3700,-3.8453,0.4999,0.3408,-1960.69,-811.83,1656.92
3710,-3.8452,0.6436,0.2880,-7.57,-374.08,-452.51
3720,-3.8447,0.7838,0.2230,-1616.94,860.60,-1499.45
3730,-3.8441,0.9240,0.1722,336.18,548.40,1750.43
3740,-3.8749,1.0840,0.1552,-1726.32,-1951.35,-93.44
3750,-3.8744,1.2802,0.1733,-1241.94,-138.55,-859.13
3760,-3.8739,1.5022,0.1995,-132.57,-1810.06,531.56
3770,-3.8735,1.7299,0.2017,289.31,1534.18,-1468.38
3780,-3.8730,1.9254,0.1672,1429.93,1815.86,-1077.76
3790,-3.8724,2.0319,0.1022,-1538.82,1409.97,1922.18
3800,-3.8718,2.0251,0.0337,86.18,1082.09,1703.31
3810,-3.8713,1.9454,-0.0090,-773.19,316.41,-1843.69
3820,-3.8710,1.8407,-0.0365,1023.68,-1152.47,1359.31
3830,-3.8707,1.7296,-0.0673,-382.57,-668.33,-1015.75
3840,-3.8702,1.6348,-0.0665,1398.68,-606.02,140.44
3850,-3.8698,1.5754,0.0129,1258.06,-512.45,1859.19
3860,-3.8691,1.5442,0.1621,1664.31,1659.30,1046.88
3870,-3.8687,1.5219,0.3124,1664.31,752.99,-593.44
3880,-3.8682,1.4868,0.3972,-1195.07,-12.70,-468.20
3890,-3.8678,1.4220,0.4072,-1679.44,-1153.38,-452.39
3900,-3.8676,1.3224,0.3854,-1976.32,127.75,-1139.83
3910,-3.8674,1.1915,0.3796,1273.68,1330.69,1781.98
3920,-3.8674,1.0405,0.4170,523.68,596.07,1031.98
3930,-3.8676,0.8889,0.5010,1195.56,1377.01,1672.67
3940,-3.8677,0.7538,0.6166,1789.31,126.71,657.23
3950,-3.8679,0.6295,0.7365,492.43,-1076.66,-1780.09
3960,-3.8680,0.4749,0.8319,586.18,-1733.15,782.65
3970,-3.8682,0.2629,0.8918,789.31,-1514.71,-1295.29
3980,-3.8682,0.0449,0.9053,1664.31,-1843.26,-1279.54
3990,-3.8682,-0.0963,0.8562,1758.06,-124.94,1282.96
4000,-3.8683,-0.1431,0.7548,-320.07,1609.13,501.65
4010,-3.8685,-0.1364,0.6432,1695.56,624.69,-1232.91
4020,-3.8687,-0.1199,0.5629,-1445.07,-1656.56,-1030.03
4030,-3.8687,-0.1179,0.5277,664.31,62.26,626.10
4040,-3.8688,-0.1375,0.5227,914.31,-437.74,1844.73
4050,-3.8689,-0.1713,0.5249,-1585.69,-1078.43,1844.73
4060,-3.8690,-0.2014,0.5255,-1913.82,-797.24,985.35
4070,-3.8693,-0.2231,0.5280,-1773.19,-719.18,-420.90
4080,-3.8694,-0.2441,0.5353,-554.44,-406.74,1469.73
4090,-3.8696,-0.2600,0.5454,758.06,530.76,-1686.46
4100,-3.8699,-0.2660,0.5461,-1273.19,1827.58,-1764.59
4110,-3.8701,-0.2655,0.5199,1961.18,1921.33,1641.66
4120,-3.8704,-0.2523,0.4625,-1976.32,-1438.05,360.35
4130,-3.8707,-0.2200,0.3834,-288.82,-781.80,-1217.90
4140,-3.8710,-0.1761,0.2897,-148.19,1093.26,-1921.14
4150,-3.8711,-0.1295,0.1876,1461.18,1093.38,234.92
4160,-3.8712,-0.0889,0.0956,-570.07,30.94,-1905.88
4170,-3.8712,-0.0707,0.0465,633.06,249.82,1547.06
4180,-3.8712,-0.0840,0.0548,-1038.82,1968.57,906.31
4190,-3.8713,-0.1215,0.0947,1258.06,-968.93,-828.06
4200,-3.8715,-0.1733,0.1261,461.18,140.38,-781.07
4210,-3.8716,-0.2256,0.1125,1820.56,155.88,-343.51
4220,-3.8716,-0.2476,0.0580,-866.94,-1578.61,-1015.44
4230,-3.8715,-0.2250,-0.0040,320.56,-562.99,765.69
4240,-3.8715,-0.1824,-0.0602,-788.82,-500.49,-1500.06
4250,-3.8715,-0.1464,-0.1055,664.31,312.13,1343.63
4260,-3.8716,-0.1210,-0.1271,1273.68,-1484.68,1609.13
4270,-3.8717,-0.1113,-0.1254,523.68,-250.24,843.44
4280,-3.8718,-0.1338,-0.1028,1758.06,-31.49,202.82
4290,-3.8719,-0.1819,-0.0568,-1116.94,-1140.93,890.38
4300,-3.8721,-0.2275,-0.0001,726.81,749.63,1953.00
4310,-3.8722,-0.2570,0.0486,-1116.94,-0.49,1234.31
4320,-3.8724,-0.2761,0.0804,-882.57,-1766.17,-1734.31
4330,-3.8727,-0.2928,0.1040,664.31,-1688.05,-1703.00
4340,-3.8729,-0.3015,0.1395,-1476.32,1327.51,-687.32
4350,-3.8730,-0.2893,0.1857,1414.31,1874.39,812.74
4360,-3.8733,-0.2562,0.2070,-1023.19,-219.36,875.31
4370,-3.8735,-0.2123,0.1799,-788.82,-1484.92,531.62
4380,-3.8738,-0.1652,0.1262,836.18,-953.55,1547.18
4390,-3.8739,-0.1165,0.0829,-1132.57,171.51,484.62
4400,-3.8740,-0.0596,0.0698,1101.81,-1375.24,1734.50
4410,-3.8740,0.0111,0.0894,383.06,953.00,1125.12
4420,-3.8740,0.0868,0.1222,1429.93,-562.50,1578.25
4430,-3.8740,0.1599,0.1410,-882.57,-359.25,-1390.44
4440,-3.8739,0.2380,0.1323,476.81,-1952.82,312.74
4450,-3.8739,0.3273,0.1052,-1523.19,937.93,-1562.26
4460,-3.8738,0.4222,0.0823,1898.68,1469.36,781.43
4470,-3.8738,0.5173,0.0811,-1945.07,-1467.96,-859.25
4480,-3.8737,0.6188,0.1046,-1773.19,-1624.02,1203.25
4490,-3.8737,0.7400,0.1346,-788.82,1391.78,-1109.19
4500,-3.8735,0.8884,0.1387,-1273.19,1235.78,1218.99
4510,-3.8734,1.0493,0.1056,1726.81,1751.71,687.74
4520,-3.8733,1.1918,0.0537,-1679.44,1517.64,1093.93
4530,-3.8732,1.2932,0.0090,554.93,-1122.68,1859.44
4540,-3.8730,1.3376,-0.0139,1539.31,1158.75,1859.38
4550,-3.8729,1.3213,-0.0176,-773.19,-1778.69,-1921.94
4560,-3.8728,1.2661,-0.0204,1133.06,1752.56,-250.06
4570,-3.8726,1.2146,-0.0457,-1929.44,1393.07,-1531.31
4580,-3.8723,1.1948,-0.0814,-523.19,-1841.43,-1531.37
4590,-3.8719,1.2053,-0.0823,945.56,1580.44,187.32
4600,-3.8717,1.2404,-0.0219,-1710.69,1471.07,-1390.81
4610,-3.8715,1.2953,0.0826,-1226.32,1205.51,-187.56
4620,-3.8712,1.3468,0.1906,1804.93,-1419.37,-843.63
4630,-3.8710,1.3629,0.2766,398.68,393.25,-1265.26
4640,-3.8706,1.3414,0.3442,-1538.82,-591.13,1187.99
4650,-3.8702,1.2972,0.4005,-288.82,65.06,-1249.33
4660,-3.8698,1.2334,0.4430,-1945.07,-731.87,1360.11
4670,-3.8694,1.1642,0.4711,1883.06,705.51,-639.77
4680,-3.8690,1.1132,0.4801,1023.68,299.13,-420.96
4690,-3.8687,1.0917,0.4657,-1507.57,1455.26,1719.67
4700,-3.8684,1.1003,0.4470,-257.57,-388.55,-483.52
4710,-3.8680,1.1147,0.4556,851.81,1220.89,1313.35
4720,-3.8678,1.0973,0.4955,-1304.44,-1685.36,1594.60
4730,-3.8677,1.0397,0.5331,461.18,-575.99,-499.08
4740,-3.8676,0.9655,0.5278,1086.18,236.39,-920.84
4750,-3.8674,0.8860,0.4680,-413.82,-435.67,266.60
4760,-3.8676,0.7858,0.3849,1414.31,-92.04,-1655.40
4770,-3.8677,0.6564,0.3280,586.18,1267.15,1547.61
4780,-3.8679,0.5046,0.3259,23.68,1985.66,-1046.26
4790,-3.8682,0.3325,0.3713,601.81,1719.73,-436.89
4800,-3.8683,0.1399,0.4338,-1429.44,-468.14,0.67
4810,-3.8685,-0.0359,0.4880,1914.31,-468.51,563.29
4820,-3.8688,-0.1378,0.5227,-585.69,-1515.75,-1170.96
4830,-3.8689,-0.1720,0.5391,-1632.57,-1078.43,-545.90
4840,-3.8689,-0.1959,0.5443,1992.43,1015.26,1047.91
4850,-3.8690,-0.2382,0.5508,-1070.07,1687.07,-1264.59
4860,-3.8691,-0.2877,0.5754,1523.68,-1484.86,-827.09
4870,-3.8693,-0.3334,0.6173,-820.07,1671.26,469.85
4880,-3.8696,-0.3862,0.6630,1336.18,-969.42,-1733.22
4890,-3.8700,-0.4528,0.7052,-1429.44,874.21,-1733.09
4900,-3.8704,-0.5122,0.7322,-1945.07,-1719.67,-1623.66
4910,-3.8707,-0.5382,0.7295,-1554.44,1733.34,-154.85
4920,-3.8710,-0.5236,0.6953,-882.57,1389.53,-1092.35
4930,-3.8712,-0.4733,0.6469,992.43,1014.59,-1170.53
4940,-3.8715,-0.3912,0.6069,-570.07,-1188.48,1673.10
4950,-3.8718,-0.2877,0.5773,1929.93,1702.33,-1264.47
4960,-3.8722,-0.1910,0.5522,-820.07,1905.64,-608.28
4970,-3.8726,-0.1377,0.5426,-445.07,-1297.30,-514.59
4980,-3.8729,-0.1462,0.5521,-1616.94,1468.44,1126.04
4990,-3.8735,-0.2021,0.5629,1289.31,-1312.81,-498.96
5000,-3.8740,-0.2714,0.5527,-1866.94,62.07,547.97
5010,-3.8746,-0.3248,0.5043,1273.68,-1234.92,-373.96
5020,-3.8749,-0.3412,0.4271,-1570.07,561.83,204.10
5030,-3.8439,-0.3188,0.3387,336.18,-1313.17,-108.58
5040,-3.8750,-0.2704,0.2477,-804.44,-625.67,313.11
5050,-3.8750,-0.1948,0.1775,1398.68,-281.80,-952.70
5060,-3.8749,-0.0989,0.1498,-929.44,-1266.05,-734.07
5070,-3.8746,-0.0078,0.1604,-648.19,-812.74,125.24
5080,-3.8745,0.0656,0.1902,-991.94,546.81,1125.31
5090,-3.8744,0.1276,0.2302,398.68,343.87,1937.87
5100,-3.8743,0.1830,0.2791,336.18,1468.99,-1483.95
5110,-3.8741,0.2280,0.3313,-570.07,-280.94,-1358.89
5120,-3.8740,0.2604,0.3708,1195.56,-1593.32,1703.74
5130,-3.8739,0.2825,0.3776,1336.18,-530.76,1250.67
5140,-3.8738,0.3105,0.3611,164.31,328.67,-655.52
5150,-3.8735,0.3691,0.3594,-241.94,-1780.70,-1530.58
5160,-3.8734,0.4572,0.3854,-741.94,-1999.33,-655.58
5170,-3.8733,0.5507,0.4188,-1476.32,1328.98,1922.61
5180,-3.8732,0.6395,0.4299,-1507.57,1610.41,547.67
5190,-3.8730,0.7356,0.4003,1867.43,-967.53,-1499.21
5200,-3.8727,0.8594,0.3634,-1835.69,-764.22,-1671.14
5210,-3.8722,1.0225,0.3881,-1991.94,-1482.73,766.30
5220,-3.8718,1.2043,0.4940,-1116.94,1673.83,875.73
5230,-3.8716,1.3376,0.5963,-1835.69,-763.31,125.92
5240,-3.8716,1.3682,0.5974,-773.19,330.69,-1467.59
5250,-3.8716,1.3124,0.5320,-866.94,471.37,-655.09
5260,-3.8715,1.2229,0.4934,-7.57,96.25,-1795.84
5270,-3.8713,1.1584,0.5045,539.31,-841.37,-842.83
5280,-3.8712,1.1672,0.5398,289.31,580.38,-139.65
5290,-3.8710,1.2616,0.5709,1414.31,1096.01,1235.41
5300,-3.8708,1.4048,0.5817,1492.43,1080.57,-123.90
5310,-3.8706,1.5414,0.5752,-179.44,-1544.19,-1842.65
5320,-3.8705,1.6368,0.5656,1304.93,1627.99,-405.15
5330,-3.8704,1.6848,0.5654,1523.68,393.80,-389.53
5340,-3.8702,1.6964,0.5663,-335.69,378.23,1704.22
5350,-3.8702,1.6793,0.5398,1148.68,487.67,-983.28
5360,-3.8701,1.6450,0.4766,-1038.82,1096.98,1016.66
5370,-3.8701,1.6083,0.4148,-1429.44,1003.17,-717.83
5380,-3.8700,1.5737,0.4120,1867.43,1096.86,1125.79
5390,-3.8700,1.5420,0.4816,1445.56,737.43,-421.08
5400,-3.8698,1.5066,0.5663,1383.06,1643.62,704.04
5410,-3.8695,1.4519,0.6052,851.81,487.30,-1764.53
5420,-3.8690,1.3721,0.6008,1851.81,1471.56,735.53
5430,-3.8685,1.2666,0.5946,-366.94,908.87,501.16
5440,-3.8682,1.1462,0.6052,-1866.94,111.82,407.41
5450,-3.8680,1.0354,0.6216,-1273.19,1470.95,-811.34
5460,-3.8679,0.9453,0.6444,539.31,-435.49,1610.53
5470,-3.8679,0.8750,0.6852,1008.06,-1513.79,141.85
5480,-3.8680,0.8154,0.7327,8.06,-295.17,595.03
5490,-3.8682,0.7576,0.7760,383.06,1782.84,1579.53
5500,-3.8683,0.6892,0.8252,976.81,-670.41,-826.66
5510,-3.8684,0.5793,0.8810,226.81,1626.34,-185.91
5520,-3.8685,0.3977,0.9193,-1835.69,766.72,-982.67
5530,-3.8687,0.1646,0.9165,-1085.69,1672.61,970.52
5540,-3.8689,-0.0571,0.8823,1070.56,1312.81,1314.27
5550,-3.8693,-0.2206,0.8395,695.56,953.00,-1029.54
5560,-3.8696,-0.3049,0.7991,-226.32,-531.74,1970.34
5570,-3.8701,-0.3055,0.7675,976.81,-1703.74,-60.97
5580,-3.8705,-0.2727,0.7496,898.68,-1750.61,-1201.66
5590,-3.8707,-0.3081,0.7468,1101.81,-31.80,704.53
5600,-3.8708,-0.4604,0.7427,570.56,-391.24,32.65
5610,-3.8708,-0.6750,0.7067,1070.56,-922.79,829.53
5620,-3.8708,-0.8239,0.6296,1601.81,-1532.59,-1373.66
5630,-3.8708,-0.7982,0.5319,-1445.07,607.73,1438.72
5640,-3.8708,-0.6188,0.4539,1836.18,92.16,94.79
5650,-3.8708,-0.3887,0.4307,804.93,-1891.85,1407.10
5660,-3.8707,-0.1672,0.4379,-1741.94,-860.17,250.79
5670,-3.8706,0.0453,0.4250,-1398.19,62.13,985.23
5680,-3.8705,0.2433,0.4071,1804.93,-1593.69,-1186.71
5690,-3.8704,0.3892,0.4431,-851.32,109.80,1750.79
5700,-3.8705,0.4336,0.5422,1820.56,719.48,1625.85
5710,-3.8708,0.3416,0.6384,-491.94,1407.04,516.66
5720,-3.8715,0.1370,0.6696,-273.19,1719.36,423.10
5730,-3.8722,-0.1178,0.6526,1539.31,1703.37,1829.41
5740,-3.8729,-0.3752,0.6313,929.93,-453.37,-1623.78
5750,-3.8737,-0.5841,0.6062,-23.19,827.33,985.60
5760,-3.8744,-0.7068,0.5594,1242.43,1608.22,391.78
5770,-3.8750,-0.7704,0.4940,1539.31,-376.40,297.91
5780,-3.8442,-0.8134,0.4226,1398.68,-751.53,688.42
5790,-3.8446,-0.7913,0.3412,-101.32,-1892.27,-858.58
5800,-3.8445,-0.6344,0.2302,-1273.19,-314.09,1516.24
5810,-3.8441,-0.3768,0.1357,-1195.07,1483.09,-62.07
5820,-3.8749,-0.1178,0.1611,-226.32,1389.83,-515.38
5830,-3.8746,0.1036,0.2966,929.93,640.38,-1999.69
5840,-3.8746,0.2896,0.4159,1273.68,1968.93,672.42
5850,-3.8748,0.4166,0.4332,1070.56,1234.92,-1764.83
5860,-3.8748,0.4810,0.3441,1336.18,-546.08,-1842.96
5870,-3.8746,0.5251,0.2031,1570.56,47.79,1469.42
5880,-3.8744,0.5833,0.1027,-773.19,-1999.02,62.87
5890,-3.8743,0.6592,0.1056,-1335.69,1141.72,-1968.57
5900,-3.8743,0.7349,0.1855,383.06,1516.91,-1062.32
5910,-3.8744,0.7820,0.2426,-1929.44,-248.60,-1546.57
5920,-3.8746,0.7828,0.1993,101.81,-951.60,-515.20
5930,-3.8746,0.7559,0.0751,211.18,1517.15,78.49
5940,-3.8745,0.7543,-0.0535,758.06,1610.84,422.00
5950,-3.8743,0.8041,-0.1005,554.93,1157.71,-1172.00
5960,-3.8739,0.8818,-0.0135,-1070.07,-857.85,-1328.37
5970,-3.8735,0.9417,0.1632,883.06,-1732.67,859.31
5980,-3.8733,0.9380,0.3175,539.31,892.46,-843.44
5990,-3.8728,0.8624,0.3793,70.56,642.46,766.24
6000,-3.8723,0.7856,0.3676,-1601.32,548.52,-1499.27
6010,-3.8717,0.7972,0.3280,570.56,-951.60,1906.92
6020,-3.8712,0.9022,0.2931,-1945.07,1985.90,-515.01
6030,-3.8707,1.0585,0.2997,-507.57,1517.33,1203.67
6040,-3.8706,1.2281,0.3599,-507.57,-1638.61,-843.20
6050,-3.8706,1.3643,0.4318,1211.18,-1935.12,-296.20
6060,-3.8704,1.4567,0.4758,-1366.94,-731.75,1797.67
6070,-3.8699,1.5144,0.4604,-1538.82,909.06,-780.33
6080,-3.8690,1.5150,0.3627,1851.81,-1059.57,-1796.02
6090,-3.8680,1.4675,0.2384,1929.93,-1575.20,-874.33
6100,-3.8669,1.4224,0.1854,-148.19,-1481.57,922.30
6110,-3.8661,1.4180,0.2156,-1929.44,-262.88,1172.18
6120,-3.8655,1.4615,0.2651,1508.06,-403.50,-1765.26
6130,-3.8650,1.5306,0.3099,-913.82,1940.31,-1530.76
6140,-3.8646,1.5819,0.3604,-70.07,-325.20,-249.45
6150,-3.8641,1.5719,0.4069,-1507.57,-1871.95,235.05
6160,-3.8638,1.4604,0.4431,1211.18,81.18,1360.17
6170,-3.8634,1.2153,0.4880,-1054.44,721.56,344.60
6180,-3.8633,0.8700,0.5642,-429.44,-1528.93,719.67
6190,-3.8634,0.5105,0.6633,-632.57,220.40,-1952.03
6200,-3.8636,0.1907,0.7504,1351.81,907.23,-139.34
6210,-3.8638,-0.0748,0.8070,414.31,47.24,95.21
6220,-3.8641,-0.2643,0.8323,-1570.07,-687.68,1251.53
6230,-3.8646,-0.3617,0.8147,-1820.07,-1453.67,-1607.79
6240,-3.8651,-0.4001,0.7502,1711.18,296.14,1110.96
6250,-3.8657,-0.4421,0.6786,789.31,46.08,-857.91
6260,-3.8662,-0.5450,0.6675,-585.69,-1125.92,1110.66
6270,-3.8668,-0.7478,0.7512,-1757.57,1452.03,-1342.47
6280,-3.8674,-1.0107,0.8846,289.31,170.41,-1201.66
6290,-3.8682,-1.2378,0.9789,-1366.94,1247.99,-451.42
6300,-3.8690,-1.3490,0.9873,1570.56,1310.06,-169.98
6310,-3.8699,-1.3677,0.9243,-663.82,-1612.06,-1857.48
6320,-3.8707,-1.3306,0.8256,945.56,-1674.56,1642.40
6330,-3.8715,-1.2301,0.7150,1695.56,1684.88,173.46
6340,-3.8722,-1.1392,0.6152,-1445.07,-471.19,-733.03
6350,-3.8727,-1.0730,0.5570,-1804.44,-1236.63,-1873.84
6360,-3.8732,-0.9900,0.5441,-1335.69,-689.64,-1045.84
6370,-3.8735,-0.9288,0.5505,1289.31,1654.30,954.16
6380,-3.8740,-0.8812,0.5608,1117.43,-1517.46,-889.59
6390,-3.8744,-0.8097,0.5653,-788.82,-204.90,1563.54
6400,-3.8748,-0.7288,0.5527,367.43,373.41,1735.47
6410,-3.8750,-0.6229,0.5233,-1273.19,-1235.84,204.16
6420,-3.8440,-0.4946,0.4775,273.68,-1001.22,735.35
6430,-3.8442,-0.3617,0.4187,695.56,1139.65,-1092.83
6440,-3.8444,-0.2111,0.3622,1711.18,1608.64,-1921.08
6450,-3.8445,-0.0455,0.3164,992.43,-1625.43,1500.67
6460,-3.8446,0.1132,0.2726,-1820.07,515.50,766.24
6470,-3.8447,0.2404,0.2245,-1507.57,-1109.19,359.86
6480,-3.8448,0.3120,0.1877,-1226.32,734.80,875.43
6490,-3.8450,0.3265,0.1810,-54.44,31.80,-1827.76
6500,-3.8450,0.2960,0.2145,1804.93,-827.51,359.68
6510,-3.8451,0.2563,0.2797,1898.68,-546.33,-140.26
6520,-3.8450,0.2711,0.3297,820.56,-202.64,562.99
6530,-3.8450,0.3486,0.3256,-1288.82,-1796.39,-1749.39
6540,-3.8448,0.4425,0.2758,633.06,1672.55,594.36
6550,-3.8448,0.5236,0.2075,648.68,-702.27,-1233.89
6560,-3.8447,0.5947,0.1503,-976.32,-1436.52,-1765.26
6570,-3.8445,0.6654,0.1399,133.06,-764.47,-1327.88
6580,-3.8440,0.7461,0.1780,1179.93,1907.53,515.87
6590,-3.8748,0.8381,0.2239,-491.94,-1217.35,1625.31
6600,-3.8741,0.9299,0.2502,-710.69,657.84,375.43
6610,-3.8737,0.9940,0.2559,-960.69,33.02,-62.01
6620,-3.8729,1.0024,0.2515,-757.57,751.89,109.86
6630,-3.8723,0.9813,0.2621,320.56,189.45,-1577.64
6640,-3.8715,0.9994,0.3083,1617.43,1548.77,109.86
6650,-3.8707,1.0991,0.3654,-70.07,-529.36,1422.42
6660,-3.8701,1.2651,0.3752,695.56,-1232.24,-1374.33
6670,-3.8695,1.4302,0.3326,1945.56,33.69,-1889.89
6680,-3.8689,1.5203,0.2883,-929.44,-1419.13,672.49
6690,-3.8684,1.5338,0.2633,-1398.19,909.18,250.55
6700,-3.8680,1.5217,0.2283,336.18,1706.12,859.86
6710,-3.8677,1.5190,0.1577,-1210.69,1221.68,734.80
6720,-3.8673,1.5322,0.0542,-1554.44,190.43,1953.43
6730,-3.8668,1.5442,-0.0565,133.06,-1059.51,796.94
6740,-3.8663,1.5201,-0.1097,1664.31,768.62,-672.00
6750,-3.8656,1.4208,-0.0569,-1413.82,1956.05,1593.51
6760,-3.8650,1.2539,0.0653,1867.43,721.50,-468.87
6770,-3.8644,1.0897,0.1829,508.06,361.82,1765.75
6780,-3.8640,0.9729,0.2603,-507.57,-591.67,-1015.32
6790,-3.8638,0.8584,0.3020,539.31,1314.39,-1077.64
6800,-3.8636,0.6823,0.3352,1883.06,-1342.10,-593.20
6810,-3.8635,0.4313,0.4143,-663.82,-1092.47,-1515.01
6820,-3.8635,0.1071,0.5798,-788.82,1032.04,-717.96
6830,-3.8636,-0.2712,0.7820,1711.18,-1781.07,-545.78
6840,-3.8639,-0.6342,0.9161,1289.31,108.83,1689.03
6850,-3.8644,-0.8755,0.9352,-1163.82,1279.97,-1341.98
6860,-3.8649,-0.9807,0.8718,-54.44,-283.02,783.02
6870,-3.8655,-0.9922,0.8029,-1523.19,-392.58,-1310.85
6880,-3.8660,-0.9258,0.7786,1008.06,-1220.70,876.53
6890,-3.8666,-0.9030,0.7990,1508.06,-329.96,-1701.66
6900,-3.8673,-1.0184,0.8546,429.93,-1720.52,-529.72
6910,-3.8682,-1.2244,0.9315,1648.68,1404.24,1923.52
6920,-3.8691,-1.4651,1.0164,-710.69,-752.44,767.40
6930,-3.8702,-1.6431,1.1017,476.81,-1893.49,-1419.92
6940,-3.8712,-1.6954,1.1520,1695.56,1028.02,939.64
6950,-3.8722,-1.6455,1.1218,-1007.57,-534.61,1486.57
6960,-3.8730,-1.5176,1.0176,1383.06,-393.86,1830.26
6970,-3.8738,-1.3308,0.8856,1758.06,-1737.37,-216.80
6980,-3.8743,-1.1182,0.7653,1664.31,1372.38,-513.92
6990,-3.8746,-0.9156,0.6858,883.06,1966.55,-826.66
7000,-3.8749,-0.7148,0.6379,-1195.07,-204.96,641.91
7010,-3.8440,-0.4988,0.5804,508.06,1670.47,-155.03
7020,-3.8441,-0.2924,0.5211,164.31,-1688.48,-608.28
7030,-3.8441,-0.1315,0.5035,-1413.82,-1281.86,-467.77
7040,-3.8441,-0.0221,0.5197,-820.07,468.44,-624.02
7050,-3.8442,0.0315,0.4950,1179.93,-1468.81,-655.27
7060,-3.8444,0.0513,0.3931,39.31,-640.56,172.79
7070,-3.8447,0.0649,0.2731,-1429.44,-1687.44,-343.02
7080,-3.8450,0.0801,0.2041,320.56,-1046.75,-15.14
7090,-3.8451,0.1093,0.1963,-1741.94,-1874.88,-1030.88
7100,-3.8451,0.1670,0.2136,1992.43,1125.18,1250.37
7110,-3.8451,0.2313,0.2249,1383.06,-655.94,-749.63
7120,-3.8450,0.2689,0.2216,1617.43,781.68,-1046.45
7130,-3.8448,0.2859,0.1982,-1570.07,359.86,500.43
7140,-3.8450,0.2979,0.1633,601.81,1375.55,-1171.51
7150,-3.8451,0.3127,0.1366,-1866.94,906.80,-155.94
7160,-3.8451,0.3363,0.1104,39.31,1484.99,-1656.01
7170,-3.8450,0.3695,0.0734,-945.07,-1874.39,1547.06
7180,-3.8447,0.4083,0.0552,-695.07,1391.30,-1109.25
7190,-3.8444,0.4563,0.0956,273.68,-936.71,-281.19
7200,-3.8440,0.5176,0.2023,-1585.69,235.23,-296.69
7210,-3.8749,0.5868,0.3274,-1741.94,1891.60,640.99
7220,-3.8748,0.6652,0.3849,-882.57,1907.35,-1374.39
7230,-3.8745,0.7511,0.3259,1148.68,1266.91,156.98
7240,-3.8743,0.8507,0.1995,148.68,1720.21,1109.99
7250,-3.8739,0.9674,0.0983,898.68,1532.90,1203.49
7260,-3.8737,1.0886,0.0616,-163.82,579.96,-281.07
7270,-3.8734,1.2156,0.0571,-648.19,-107.30,-1390.56
7280,-3.8733,1.3711,0.0369,-398.19,-685.18,-624.94
7290,-3.8730,1.5375,-0.0109,-491.94,721.37,1578.19
7300,-3.8728,1.6562,-0.0547,804.93,-1387.63,-328.19
7310,-3.8723,1.7146,-0.0530,8.06,1003.23,296.75
7320,-3.8719,1.7344,-0.0165,-523.19,1222.05,265.50
7330,-3.8717,1.7183,-0.0050,-1991.94,1893.98,1812.44
7340,-3.8715,1.6709,-0.0500,-54.44,-637.33,-1437.56
7350,-3.8711,1.6265,-0.1224,1883.06,1596.98,499.88
7360,-3.8707,1.6282,-0.1675,195.56,331.30,531.01
7370,-3.8704,1.7079,-0.1520,414.31,-1434.33,-1250.37
7380,-3.8699,1.8496,-0.1001,-1382.57,550.17,-1515.93
7390,-3.8693,1.9918,-0.0514,758.06,-808.90,468.51
7400,-3.8687,2.0454,-0.0186,-1038.82,1425.72,-1781.37
7410,-3.8679,1.9768,0.0311,1820.56,1628.97,-984.44
7420,-3.8672,1.8678,0.1106,1039.31,-11.78,-812.50
7430,-3.8666,1.7852,0.1869,-913.82,-1840.15,-921.69
7440,-3.8661,1.7125,0.2565,508.06,-74.65,1781.56
7450,-3.8657,1.6034,0.3453,-788.82,831.42,828.61
7460,-3.8655,1.4253,0.4635,1242.43,206.24,1875.67
7470,-3.8652,1.1755,0.5935,-1554.44,-669.13,1516.48
7480,-3.8651,0.8760,0.7074,-1523.19,-28.99,-1983.28
7490,-3.8651,0.5607,0.7716,133.06,-1451.42,-1733.03
7500,-3.8651,0.2638,0.7819,-226.32,-1233.34,517.09
7510,-3.8652,0.0153,0.7632,1773.68,78.61,-1889.10
7520,-3.8654,-0.1655,0.7385,1961.18,1687.50,-982.91
7530,-3.8655,-0.2631,0.7122,-1179.44,-1453.49,-904.85
7540,-3.8656,-0.2856,0.6719,-1663.82,-828.67,1251.34
7550,-3.8660,-0.2642,0.6105,-554.44,-1984.99,-92.47
7560,-3.8663,-0.2308,0.5522,-1804.44,-1844.30,1860.53
7570,-3.8669,-0.2271,0.5354,-1538.82,-1297.36,-827.09
7580,-3.8676,-0.2836,0.5461,-1054.44,546.39,1157.29
7590,-3.8683,-0.4028,0.5383,-288.82,1921.26,1407.29
7600,-3.8690,-0.5549,0.5128,445.56,921.08,-1186.46
7610,-3.8695,-0.6930,0.5055,976.81,1655.15,47.85
7620,-3.8700,-0.7877,0.5294,-695.07,717.35,235.35
7630,-3.8705,-0.8342,0.5684,-820.07,-220.34,1547.85
7640,-3.8710,-0.8492,0.6016,1226.81,763.98,-1373.90
7650,-3.8715,-0.8552,0.6235,-695.07,1013.92,-983.22
7660,-3.8719,-0.8671,0.6404,-1460.69,-173.58,-264.47
7670,-3.8723,-0.8772,0.6450,1023.68,1982.67,1985.60
7680,-3.8727,-0.8585,0.6328,-273.19,-1423.65,-1717.53
7690,-3.8730,-0.8109,0.6077,-1882.57,1013.92,-186.28
7700,-3.8733,-0.7526,0.5753,211.18,1795.29,1407.41
7710,-3.8737,-0.6849,0.5474,-320.07,1654.72,-1233.28
7720,-3.8739,-0.6072,0.5254,336.18,-1923.22,501.04
7730,-3.8743,-0.5206,0.4958,-1710.69,-735.60,-780.27
7740,-3.8745,-0.4200,0.4484,1367.43,-516.66,-920.96
7750,-3.8746,-0.3048,0.3842,-1757.57,1405.40,172.73
7760,-3.8749,-0.1869,0.3237,992.43,1186.89,-1530.52
7770,-3.8750,-0.0814,0.2921,86.18,1452.76,1781.86
7780,-3.8439,-0.0049,0.2869,1586.18,1406.07,-1843.20
7790,-3.8439,0.0381,0.2965,-616.94,734.31,453.67
7800,-3.8439,0.0685,0.3191,883.06,1953.19,1484.92
7810,-3.8750,0.1039,0.3452,773.68,843.87,1000.61
7820,-3.8749,0.1427,0.3696,1304.93,187.68,1563.17
7830,-3.8748,0.1864,0.3901,-1726.32,-687.26,688.17
7840,-3.8748,0.2456,0.3915,-132.57,1937.81,1875.73
7850,-3.8748,0.3303,0.3735,-554.44,-1890.20,-1921.14
7860,-3.8748,0.4391,0.3523,-1710.69,-186.89,1656.92
7870,-3.8748,0.5636,0.3308,211.18,1094.60,1297.55
7880,-3.8748,0.6906,0.2958,148.68,-1655.15,-1733.76
7890,-3.8746,0.7975,0.2626,398.68,1860.72,922.42
7900,-3.8746,0.8690,0.2572,-1913.82,1610.90,-77.64
7910,-3.8745,0.9017,0.2640,-757.57,923.52,-1640.14
7920,-3.8744,0.9004,0.2510,-570.07,1798.58,1062.99
7930,-3.8743,0.9012,0.1958,-741.94,126.71,1672.36
7940,-3.8740,0.9480,0.1165,-632.57,1064.21,1594.12
7950,-3.8737,1.0343,0.0808,1351.81,-1091.92,250.18
7960,-3.8734,1.1305,0.1240,398.68,-1654.24,-1640.50
7970,-3.8732,1.2300,0.2080,711.18,-122.80,1156.43
7980,-3.8730,1.3307,0.2697,1445.56,-1372.62,1672.24
7990,-3.8728,1.4174,0.2766,-1663.82,-1481.81,125.49
8000,-3.8726,1.4808,0.2478,1429.93,-591.00,-1608.89
8010,-3.8722,1.5422,0.2185,1554.93,-278.38,-765.20
8020,-3.8717,1.6281,0.2068,1414.31,-28.26,984.74
8030,-3.8713,1.7251,0.1959,398.68,-1528.08,1484.74
8040,-3.8710,1.8208,0.1625,820.56,1081.48,312.87
8050,-3.8707,1.9087,0.1122,1070.56,800.42,-1562.19
8060,-3.8704,1.9702,0.0695,320.56,-1636.90,1250.18
8070,-3.8700,1.9962,0.0548,195.56,894.47,-718.63
8080,-3.8694,1.9889,0.0790,-476.32,-980.53,1781.31
8090,-3.8688,1.9594,0.1337,-1413.82,-1886.78,-156.13
8100,-3.8679,1.9142,0.1757,-1195.07,1113.16,234.62
8110,-3.8672,1.8456,0.1747,1023.68,-1511.90,1031.56
8120,-3.8666,1.7356,0.1399,242.43,-1637.02,-1640.32
8130,-3.8661,1.5781,0.0929,-1835.69,1909.61,1609.62
8140,-3.8657,1.3871,0.0870,-1991.94,-106.32,718.87
8150,-3.8655,1.1647,0.2015,1554.93,-856.69,-1140.50
8160,-3.8651,0.9105,0.4324,1086.18,1799.13,265.99
8170,-3.8650,0.6421,0.6615,554.93,-654.48,-1264.83
8180,-3.8649,0.3536,0.7976,-1804.44,673.10,376.28
8190,-3.8650,0.0278,0.8611,1273.68,-1905.58,1673.40
8200,-3.8652,-0.3151,0.9042,-429.44,-1781.25,-1092.10
8210,-3.8655,-0.6187,0.9290,-320.07,-250.67,345.46
8220,-3.8660,-0.8254,0.9072,820.56,-1079.35,-60.73
8230,-3.8663,-0.9116,0.8346,-1648.19,138.98,-1857.60
8240,-3.8668,-0.9009,0.7327,-679.44,-1158.08,1314.09
8250,-3.8674,-0.8451,0.6331,695.56,1795.10,1095.15
8260,-3.8680,-0.7872,0.5625,-163.82,1045.17,32.47
8270,-3.8687,-0.7443,0.5348,-757.57,14.04,1329.22
8280,-3.8691,-0.7086,0.5404,742.43,467.29,-1998.96
8290,-3.8695,-0.6666,0.5599,1304.93,1186.10,1751.04
8300,-3.8699,-0.6187,0.5806,-1320.07,-313.84,-623.96
8310,-3.8702,-0.5635,0.5826,820.56,-1673.10,-186.40
8320,-3.8706,-0.4999,0.5470,-116.94,-1407.41,1016.72
8330,-3.8712,-0.4467,0.4749,23.68,-1969.73,-1170.84
8340,-3.8718,-0.4219,0.3833,-1163.82,795.96,1375.92
8350,-3.8726,-0.4227,0.2917,-1991.94,1077.27,-952.39
8360,-3.8732,-0.4332,0.2219,1898.68,1358.52,-890.08
8370,-3.8737,-0.4360,0.1887,554.93,421.02,-1468.32
8380,-3.8740,-0.4304,0.1959,195.56,171.02,1656.62
8390,-3.8743,-0.4244,0.2472,914.31,1092.90,500.37
8400,-3.8745,-0.4174,0.3369,1679.93,-344.60,1187.93
8410,-3.8748,-0.4331,0.4182,-1413.82,-860.23,1156.86
8420,-3.8750,-0.4987,0.4191,570.56,1546.02,1875.79
8430,-3.8439,-0.5851,0.3394,179.93,1655.27,-1967.96
8440,-3.8439,-0.6431,0.2502,1117.43,-548.03,234.99
8450,-3.8440,-0.6482,0.1824,1695.56,45.59,-1937.01
8460,-3.8440,-0.5973,0.1210,1039.31,-641.91,187.81
8470,-3.8440,-0.5006,0.0645,-445.07,-501.22,1062.68
8480,-3.8439,-0.3802,0.0392,-70.07,264.59,1375.12
8490,-3.8750,-0.2645,0.0582,-663.82,1030.46,-203.06
8500,-3.8748,-0.1772,0.0951,-1851.32,-531.80,-1156.19
8510,-3.8745,-0.1349,0.1296,1320.56,187.13,1640.81
8520,-3.8744,-0.1360,0.1660,-1257.57,609.07,1859.62
8530,-3.8744,-0.1514,0.1964,-1398.19,1265.32,1265.93
8540,-3.8745,-0.1250,0.1786,633.06,1155.94,1672.24
8550,-3.8745,-0.0210,0.1027,8.06,-1125.24,781.56
8560,-3.8744,0.1327,0.0406,1320.56,1156.19,1593.93
8570,-3.8741,0.2841,0.0586,992.43,1203.37,1343.81
8580,-3.8740,0.4041,0.1534,367.43,-499.45,-359.31
8590,-3.8739,0.4755,0.2855,-273.19,-358.64,-1859.13
8600,-3.8739,0.4813,0.4010,867.43,547.79,1031.80
8610,-3.8740,0.4420,0.4418,1617.43,-670.96,1453.86
8620,-3.8741,0.4581,0.3746,586.18,547.73,-1030.40
8630,-3.8739,0.5992,0.2363,-1351.32,-46.02,1016.30
8640,-3.8734,0.7804,0.1553,711.18,-1748.84,922.30
8650,-3.8729,0.9088,0.1921,-101.32,-123.54,1203.37
8660,-3.8727,1.0073,0.2748,336.18,595.52,-1593.38
8670,-3.8726,1.0947,0.3441,945.56,-826.17,-1765.14
8680,-3.8724,1.1390,0.3680,133.06,49.01,-1780.58
8690,-3.8722,1.1442,0.3307,1804.93,-888.43,1672.55
8700,-3.8718,1.1577,0.2595,-1538.82,-1669.68,1469.36
8710,-3.8715,1.2181,0.1975,195.56,1221.01,-187.01
8720,-3.8710,1.3234,0.1636,-70.07,1283.57,594.12
8730,-3.8707,1.4353,0.1392,1398.68,940.06,1156.56
8740,-3.8706,1.5085,0.1050,-273.19,1815.25,-1734.13
8750,-3.8705,1.5184,0.0819,1101.81,1440.43,1390.81
8760,-3.8705,1.4739,0.0955,-1632.57,-1512.70,-296.75
8770,-3.8704,1.4078,0.1371,664.31,221.62,-577.94
8780,-3.8701,1.3690,0.1899,211.18,1549.62,-1593.51
8790,-3.8698,1.3995,0.2449,-757.57,315.12,500.37
8800,-3.8694,1.4896,0.2883,-851.32,-653.56,-1171.45
8810,-3.8688,1.5868,0.3212,-1320.07,909.12,-1749.45
8820,-3.8682,1.6537,0.3650,-882.57,1112.43,1031.86
8830,-3.8678,1.6904,0.4333,-320.07,-1278.08,1656.92
8840,-3.8676,1.7079,0.5177,383.06,-527.95,-1342.96
8850,-3.8672,1.6747,0.6055,-1382.57,-1731.08,-1655.27
8860,-3.8667,1.5460,0.6996,-1632.57,1503.23,563.66
8870,-3.8665,1.3494,0.7756,1898.68,1549.87,-561.16
8880,-3.8662,1.1387,0.8025,726.81,-716.13,-1748.54
8890,-3.8660,0.9335,0.8069,1758.06,-1279.05,720.28
8900,-3.8657,0.7377,0.8575,-507.57,-716.98,642.15
8910,-3.8655,0.5411,0.9934,-1570.07,1767.03,376.65
8920,-3.8654,0.3134,1.1526,1273.68,-842.71,314.39
8930,-3.8655,0.0454,1.2179,117.43,-468.14,-1529.05
8940,-3.8657,-0.2029,1.1604,1820.56,-109.31,1611.69
8950,-3.8662,-0.3688,1.0443,-1960.69,546.45,1877.26
8960,-3.8668,-0.4517,0.9180,804.93,1686.77,-1794.86
8970,-3.8674,-0.4603,0.8090,-1804.44,1514.71,1923.65
8980,-3.8680,-0.3966,0.7504,1086.18,-438.42,-326.60
8990,-3.8684,-0.2958,0.7479,1242.43,61.71,1392.09
9000,-3.8688,-0.2089,0.7651,-1851.32,-250.61,-748.60
9010,-3.8690,-0.1605,0.7689,1273.68,1952.70,-1123.54
9020,-3.8693,-0.1522,0.7523,-538.82,-1562.87,1126.46
9030,-3.8696,-0.1823,0.7311,523.68,312.19,938.96
9040,-3.8701,-0.2513,0.7139,679.93,1593.38,-889.22
9050,-3.8705,-0.3456,0.6885,-163.82,-609.92,204.47
9060,-3.8710,-0.4370,0.6650,-226.32,139.89,1688.84
9070,-3.8713,-0.5013,0.6674,70.56,1139.77,501.28
9080,-3.8718,-0.5221,0.6799,-163.82,1436.46,-654.97
9090,-3.8722,-0.5115,0.6710,1179.93,-954.16,-1967.47
9100,-3.8726,-0.5042,0.6493,-1460.69,1905.21,1673.16
9110,-3.8729,-0.5135,0.6412,-523.19,-876.04,-1826.90
9120,-3.8733,-0.5205,0.6377,-1726.32,-1907.29,-1545.65
9130,-3.8737,-0.5065,0.6206,1383.06,1639.59,-1264.40
9140,-3.8740,-0.4752,0.5916,-820.07,-547.91,-45.72
9150,-3.8743,-0.4338,0.5583,-820.07,-266.60,-1748.90
9160,-3.8745,-0.3822,0.5232,476.81,-516.48,1922.91
9170,-3.8748,-0.3243,0.4802,-913.82,-1016.42,-467.77
9180,-3.8749,-0.2673,0.4420,-1507.57,1483.70,-686.58
9190,-3.8749,-0.2235,0.4196,1789.31,593.20,235.23
9200,-3.8750,-0.1995,0.4003,-601.32,1718.26,344.54
9210,-3.8439,-0.1655,0.3773,-1523.19,-750.43,47.61
9220,-3.8440,-0.0864,0.3688,-1179.44,312.13,1141.36
9230,-3.8441,0.0262,0.3961,945.56,-781.43,-421.20
9240,-3.8440,0.1404,0.4631,-632.57,-1296.88,235.11
9250,-3.8439,0.2507,0.5629,1976.81,-718.51,907.10
9260,-3.8750,0.3649,0.6677,101.81,47.36,-358.28
9270,-3.8748,0.4711,0.6888,-1288.82,1469.42,1673.16
9280,-3.8746,0.5477,0.5653,304.93,172.79,-404.91
9290,-3.8744,0.6012,0.3734,-1882.57,360.41,157.35
9300,-3.8745,0.6542,0.2196,961.18,-201.97,-1546.20
9310,-3.8748,0.7173,0.1211,-257.57,110.60,1484.80
9320,-3.8439,0.7871,0.0529,-179.44,-498.66,-1015.44
9330,-3.8440,0.8611,0.0090,758.06,-1232.85,953.19
9340,-3.8440,0.9344,-0.0043,-1773.19,1157.90,1312.50
9350,-3.8439,0.9762,0.0127,-382.57,-545.10,1234.31
9360,-3.8439,0.9594,0.0343,961.18,1626.89,-156.25
9370,-3.8439,0.9064,0.0154,-1195.07,392.46,-1203.06
9380,-3.8439,0.8820,-0.0795,23.68,1970.52,765.62
9390,-3.8750,0.9333,-0.2128,898.68,1829.83,531.07
9400,-3.8746,1.0315,-0.2542,-523.19,767.40,765.20
9410,-3.8741,1.1211,-0.1326,39.31,-529.24,483.83
9420,-3.8738,1.1813,0.0723,-491.94,-966.61,-1859.68
9430,-3.8733,1.2280,0.2283,-788.82,1252.26,359.50
9440,-3.8727,1.3098,0.2666,1195.56,1221.13,-1015.20
9450,-3.8717,1.4541,0.2596,-335.69,-1872.50,-1124.51
9460,-3.8706,1.6300,0.3169,-1866.94,1237.18,1750.49
9470,-3.8698,1.7750,0.4341,648.68,565.67,-1905.64
9480,-3.8693,1.8446,0.5110,-788.82,-434.08,1453.92
9490,-3.8691,1.8567,0.4839,117.43,1409.85,-108.40
9500,-3.8689,1.8656,0.4110,1664.31,1941.10,-1030.33
9510,-3.8684,1.8934,0.3805,-1195.07,612.98,547.67
9520,-3.8679,1.9404,0.4126,-1632.57,706.79,-874.27
9530,-3.8673,2.0061,0.4685,383.06,816.28,1578.92
9540,-3.8669,2.0618,0.5116,789.31,-27.34,-46.02
9550,-3.8666,2.0693,0.5375,-85.69,1488.34,1016.60
9560,-3.8665,2.0131,0.5217,883.06,800.90,594.79
9570,-3.8665,1.8879,0.4436,1679.93,-1214.84,-1842.77
9580,-3.8663,1.6974,0.3651,1664.31,784.91,-624.15
9590,-3.8660,1.4779,0.3657,1273.68,-1262.33,-1686.83
9600,-3.8655,1.2953,0.4531,1179.93,-1184.63,1453.80
9610,-3.8651,1.1957,0.5757,1804.93,-1997.50,-280.40
9620,-3.8649,1.1604,0.6655,1054.93,1689.82,-1936.40
9630,-3.8650,1.1239,0.6742,539.31,1189.76,876.28
9640,-3.8654,1.0422,0.6257,-132.57,-1700.99,1.28
9650,-3.8658,0.9192,0.5891,1414.31,95.76,1782.47
9660,-3.8662,0.7742,0.6010,1664.31,-591.98,1907.35
9670,-3.8665,0.6312,0.6619,-898.19,923.34,1313.66
9680,-3.8667,0.5089,0.7522,804.93,719.97,-1889.34
9690,-3.8669,0.3989,0.8369,1148.68,282.23,1563.96
9700,-3.8673,0.2802,0.8888,-929.44,-874.27,-1732.79
9710,-3.8677,0.1487,0.9166,-132.57,1766.11,626.71
9720,-3.8682,0.0249,0.9310,-960.69,1328.37,1611.15
9730,-3.8687,-0.0721,0.9236,-804.44,-828.12,-1841.98
9740,-3.8691,-0.1443,0.9012,-1226.32,-1765.81,-763.85
9750,-3.8695,-0.2024,0.8792,1539.31,-625.31,1298.58
9760,-3.8700,-0.2538,0.8755,-1898.19,546.45,-107.67
9770,-3.8704,-0.3066,0.8923,-476.32,77.58,1720.46
9780,-3.8708,-0.3625,0.9036,758.06,-1766.24,-1685.79
9790,-3.8713,-0.4116,0.8846,1601.81,-328.86,-1467.04
9800,-3.8718,-0.4392,0.8206,-679.44,1249.15,-732.67
9810,-3.8722,-0.4370,0.7279,-210.69,1045.96,1314.09
9820,-3.8726,-0.4105,0.6471,70.56,1186.65,595.15
9830,-3.8729,-0.3689,0.5922,-538.82,-1157.10,344.97
9840,-3.8733,-0.3245,0.5591,789.31,-188.23,1579.22
9850,-3.8735,-0.2953,0.5464,-1523.19,-422.55,1344.79
9860,-3.8738,-0.2825,0.5432,-1788.82,1952.51,-1436.46
9870,-3.8739,-0.2545,0.5240,-148.19,1546.26,141.66
9880,-3.8741,-0.1859,0.4863,-570.07,-906.80,-686.52
9890,-3.8741,-0.0924,0.4644,211.18,-1734.74,1266.54
9900,-3.8741,-0.0005,0.4740,179.93,-547.06,1094.60
9910,-3.8741,0.0779,0.5043,-54.44,687.44,938.42
9920,-3.8743,0.1324,0.5358,1976.81,547.00,-170.90
9930,-3.8743,0.1494,0.5513,961.18,578.37,1501.04
9940,-3.8744,0.1221,0.5593,-866.94,-1437.26,344.79
9950,-3.8748,0.0665,0.5730,-366.94,-406.07,-1139.59
9960,-3.8439,0.0270,0.5797,523.68,1343.87,-1639.53
9970,-3.8442,0.0425,0.5454,-538.82,-1796.88,-1139.53
9980,-3.8444,0.1133,0.4543,1445.56,1812.56,1.04
9990,-3.8445,0.2058,0.3444,-1491.94,-1843.57,1453.98
10000,-3.8446,0.2850,0.2621,-1648.19,78.49,-14.95
10010,-3.8446,0.3458,0.1990,492.43,1547.42,1234.86
10020,-3.8447,0.3965,0.1199,273.68,1469.42,-1593.38
10030,-3.8447,0.4193,0.0238,-1241.94,-655.52,-1515.44
10040,-3.8446,0.4106,-0.0422,1679.93,-952.33,1703.12
10050,-3.8445,0.4299,-0.0435,570.56,-1405.46,1859.25
10060,-3.8444,0.5265,-0.0081,-960.69,-1561.71,921.75
10070,-3.8444,0.6735,0.0020,-601.32,-1030.27,-1687.56
10080,-3.8442,0.8046,-0.0555,-1788.82,251.28,734.38
10090,-3.8441,0.8784,-0.1470,-1007.57,892.15,-140.75
10100,-3.8750,0.9034,-0.1836,445.56,1189.21,-859.68
10110,-3.8746,0.9109,-0.1090,-351.32,501.71,-1359.74
10120,-3.8744,0.9174,0.0558,601.81,-1951.35,-453.37
10130,-3.8741,0.9161,0.2137,1429.93,-857.60,1937.56
10140,-3.8739,0.8877,0.2828,1273.68,-638.85,437.87
10150,-3.8737,0.8262,0.2891,1633.06,204.83,-1108.83
10160,-3.8732,0.7644,0.3103,1758.06,1001.59,1625.55
10170,-3.8727,0.7622,0.4153,1851.81,-279.79,453.67
10180,-3.8724,0.8429,0.6354,1570.56,1157.71,-14.83
10190,-3.8719,0.9698,0.8722,-101.32,1329.71,1032.47
10200,-3.8712,1.1155,0.9709,148.68,-357.48,861.02
10210,-3.8702,1.2959,0.9163,-1210.69,283.39,-841.86
10220,-3.8691,1.5071,0.8082,1883.06,1283.75,251.77
10230,-3.8685,1.7109,0.7135,914.31,-543.95,-1904.72
10240,-3.8682,1.8947,0.6448,-991.94,-668.58,938.84
10250,-3.8680,2.0759,0.6033,-1476.32,-1465.09,-1483.15
10260,-3.8679,2.2528,0.5745,1726.81,1222.78,-811.34
10270,-3.8677,2.3969,0.5508,367.43,1535.64,782.35
10280,-3.8674,2.4749,0.5431,-1195.07,-1495.36,579.16
10290,-3.8672,2.4626,0.5686,789.31,1520.45,-1248.96
10300,-3.8668,2.3680,0.6364,-773.19,786.01,329.22
10310,-3.8667,2.2238,0.7303,-882.57,1457.70,-1780.03
10320,-3.8666,2.0464,0.8369,648.68,1488.71,188.90
10330,-3.8666,1.8225,0.9578,1945.56,-871.03,532.84
10340,-3.8666,1.5570,1.0947,1289.31,-1402.71,1642.46
10350,-3.8666,1.3048,1.2205,-695.07,127.99,-669.74
10360,-3.8665,1.1226,1.2837,-976.32,221.25,1127.38
10370,-3.8665,1.0239,1.2705,-304.44,314.64,-872.50
10380,-3.8665,0.9797,1.2197,-929.44,-1373.05,-28.81
10390,-3.8665,0.9460,1.1748,1414.31,126.89,-1544.49
10400,-3.8666,0.8947,1.1530,1101.81,-1623.17,-60.24
10410,-3.8666,0.7946,1.1691,-1476.32,-420.17,-372.80
10420,-3.8665,0.5802,1.2467,1711.18,1642.15,1877.26
10430,-3.8665,0.2080,1.3857,-1726.32,-420.78,-278.87
10440,-3.8665,-0.2365,1.5570,-1366.94,1375.37,-403.56
10450,-3.8666,-0.5643,1.6981,1742.43,-687.99,-1637.63
10460,-3.8669,-0.6581,1.7098,-226.32,1373.84,1237.67
10470,-3.8676,-0.5674,1.5746,-226.32,-1126.34,-1356.08
10480,-3.8682,-0.4229,1.3784,-616.94,1561.34,674.93
10490,-3.8690,-0.3195,1.1816,1883.06,452.27,-669.19
10500,-3.8698,-0.3005,1.0198,-882.57,-735.05,-1122.74
10510,-3.8702,-0.3738,0.9310,1539.31,-1453.74,501.95
10520,-3.8707,-0.5015,0.9355,164.31,-813.23,-795.10
10530,-3.8711,-0.6207,0.9965,-179.44,-235.41,-1982.60
10540,-3.8716,-0.6841,1.0272,554.93,-438.72,1673.77
10550,-3.8721,-0.6855,0.9813,445.56,-501.34,376.95
10560,-3.8726,-0.6569,0.9006,258.06,1623.66,1033.14
10570,-3.8730,-0.6372,0.8387,-70.07,-704.47,-1513.92
10580,-3.8735,-0.6575,0.7904,-1554.44,-626.28,-1170.29
10590,-3.8740,-0.7168,0.7371,-148.19,1186.16,-1139.10
10600,-3.8744,-0.7706,0.6898,258.06,-1642.03,923.28
10610,-3.8748,-0.7822,0.6678,1367.43,310.97,1876.34
10620,-3.8750,-0.7484,0.6580,-116.94,1498.41,641.91
10630,-3.8441,-0.6782,0.6265,211.18,232.91,-186.22
10640,-3.8444,-0.5780,0.5619,1195.56,201.78,-1608.15
10650,-3.8446,-0.4462,0.4740,-1976.32,-63.66,1204.16
10660,-3.8448,-0.2894,0.3792,-1101.32,686.58,1219.67
10670,-3.8451,-0.1401,0.2963,-1038.82,546.26,-1858.64
10680,-3.8453,-0.0214,0.2374,-1929.44,1937.19,-358.83
10690,-3.8455,0.0800,0.1998,1273.68,-1593.81,-1858.95
10700,-3.8456,0.1802,0.1705,-1757.57,1578.25,-952.76
10710,-3.8456,0.2834,0.1443,-929.44,1828.43,-609.07
10720,-3.8455,0.3774,0.1219,289.31,-1530.70,1765.87
10730,-3.8455,0.4438,0.0851,320.56,-389.89,-327.94
10740,-3.8453,0.4840,0.0262,820.56,-1108.52,1812.62
10750,-3.8452,0.4990,-0.0337,1961.18,-639.71,1015.62
10760,-3.8452,0.4845,-0.0935,-116.94,-311.58,-515.75
10770,-3.8451,0.4573,-0.1429,-1976.32,32.17,1796.69
10780,-3.8450,0.4445,-0.1241,-1460.69,1703.98,-906.56
10790,-3.8447,0.4590,-0.0219,898.68,110.23,-1015.87
10800,-3.8445,0.4916,0.0929,-1241.94,1203.98,-1046.94
10810,-3.8442,0.5157,0.1608,-1070.07,-108.46,-859.25
10820,-3.8439,0.5151,0.1967,-1976.32,579.10,375.31
10830,-3.8749,0.4934,0.2496,1945.56,1172.85,844.12
10840,-3.8748,0.4567,0.3414,-835.69,-45.96,-1187.07
10850,-3.8746,0.4098,0.4427,-1538.82,-296.02,-405.64
10860,-3.8744,0.3590,0.4990,461.18,672.67,-1702.27
10870,-3.8740,0.3348,0.5089,1961.18,-124.33,-530.33
10880,-3.8733,0.3894,0.5365,-1132.57,1141.24,219.73
10890,-3.8727,0.5391,0.6089,1851.81,672.61,-1389.59
10900,-3.8721,0.7406,0.6514,1008.06,1938.54,204.28
10910,-3.8718,0.9333,0.5879,-1195.07,-623.60,-201.90
10920,-3.8715,1.0796,0.4567,-523.19,-748.23,1391.72
10930,-3.8711,1.1875,0.3407,-1804.44,-1544.80,500.85
10940,-3.8707,1.3024,0.2640,8.06,-388.31,297.49
10950,-3.8704,1.4374,0.2258,-1288.82,1799.38,-1749.51
10960,-3.8698,1.5529,0.2654,-7.57,909.00,-1374.57
10970,-3.8689,1.6145,0.3737,-1226.32,1971.74,-1483.89
10980,-3.8679,1.6028,0.4594,-1335.69,-168.76,-311.83
10990,-3.8668,1.5100,0.4882,1164.31,-1200.01,-327.27
11000,-3.8657,1.3611,0.5068,1289.31,-1512.70,-45.96
11010,-3.8647,1.2206,0.5278,-1773.19,877.62,-108.40
11020,-3.8640,1.1626,0.5188,242.43,-435.12,-952.15
11030,-3.8635,1.1859,0.4753,820.56,-1591.49,344.73
11040,-3.8634,1.2056,0.4287,-195.07,846.01,-1842.83
11050,-3.8634,1.1493,0.4172,-1679.44,-1122.68,-1202.33
11060,-3.8635,1.0118,0.4597,-882.57,1408.45,-405.46
11070,-3.8636,0.8262,0.5510,1523.68,-1154.30,-764.77
11080,-3.8638,0.6106,0.6768,1758.06,-1467.16,-186.46
11090,-3.8639,0.3788,0.8081,-1835.69,-1373.84,-29.97
11100,-3.8640,0.1777,0.9059,492.43,-561.77,1470.28
11110,-3.8644,0.0352,0.9476,-1241.94,-46.57,-1342.04
11120,-3.8649,-0.0731,0.9393,508.06,1296.94,-1154.42
11130,-3.8655,-0.1852,0.8965,-1351.32,249.82,-638.79
11140,-3.8661,-0.3271,0.8484,304.93,-1234.74,-435.79
11150,-3.8666,-0.4879,0.8406,-1866.94,608.70,-1732.73
11160,-3.8671,-0.6364,0.8964,1554.93,-391.60,-1639.04
11170,-3.8676,-0.7771,0.9933,-1445.07,-1251.28,1001.71
11180,-3.8682,-0.9315,1.0701,539.31,-845.28,658.14
11190,-3.8689,-1.0835,1.0596,773.68,982.54,1767.70
11200,-3.8696,-1.1830,0.9811,1320.56,-361.51,-122.99
11210,-3.8701,-1.2053,0.9121,586.18,1591.43,-1732.48
11220,-3.8706,-1.1757,0.8663,1726.81,763.24,-607.60
11230,-3.8710,-1.1189,0.8275,1523.68,-1096.07,1220.40
11240,-3.8713,-1.0549,0.7980,789.31,1935.30,517.21
11250,-3.8717,-0.9940,0.7809,976.81,-1845.83,1267.15
11260,-3.8721,-0.9272,0.7639,773.68,-33.20,1813.96
11270,-3.8724,-0.8563,0.7343,1320.56,1795.04,-1982.91
11280,-3.8728,-0.7911,0.7017,-1601.32,1998.29,-107.97
11290,-3.8729,-0.7294,0.6725,-1257.57,1826.54,157.59
11300,-3.8732,-0.6599,0.6464,-1351.32,-1907.71,-1295.59
11310,-3.8733,-0.5789,0.6305,-460.69,-1251.34,-998.78
11320,-3.8734,-0.4945,0.6226,1914.31,717.59,-1076.90
11330,-3.8735,-0.4191,0.6062,711.18,-297.85,657.41
11340,-3.8738,-0.3527,0.5682,-1632.57,1608.52,719.91
11350,-3.8740,-0.2874,0.5139,-1132.57,749.27,438.60
11360,-3.8743,-0.2228,0.4648,-773.19,1796.26,532.23
11370,-3.8745,-0.1641,0.4323,-507.57,-484.86,1391.48
11380,-3.8748,-0.1169,0.4119,-991.94,-656.62,-874.21
11390,-3.8749,-0.0811,0.4006,1039.31,734.13,1641.42
11400,-3.8750,-0.0446,0.3981,1633.06,-703.31,344.48
11410,-3.8440,0.0062,0.4000,-1695.07,-1031.37,-1186.77
11420,-3.8441,0.0752,0.3981,804.93,-796.88,469.48
11430,-3.8444,0.1486,0.3844,1633.06,-1046.75,1219.48
11440,-3.8446,0.2019,0.3553,-976.32,1203.37,-1608.64
11450,-3.8447,0.2250,0.3153,1851.81,1484.74,1422.55
11460,-3.8448,0.2380,0.2736,804.93,359.80,-749.39
11470,-3.8448,0.2701,0.2448,-1523.19,-983.95,-1108.89
11480,-3.8448,0.3254,0.2383,-1413.82,-671.39,-999.57
11490,-3.8448,0.3828,0.2446,1664.31,-1499.39,-327.70
11500,-3.8447,0.4213,0.2477,1008.06,-686.77,1766.05
11510,-3.8446,0.4303,0.2435,1929.93,-296.08,1750.43
11520,-3.8445,0.4102,0.2449,-913.82,-827.33,-874.57
11530,-3.8442,0.3832,0.2660,508.06,-655.46,1297.30
11540,-3.8441,0.3861,0.3032,1054.93,-1952.39,-390.14
11550,-3.8439,0.4427,0.3336,1429.93,-1186.77,-1608.83
11560,-3.8749,0.5431,0.3402,679.93,-1296.02,-93.14
11570,-3.8744,0.6587,0.3353,1523.68,-452.09,672.49
11580,-3.8740,0.7750,0.3422,320.56,-1076.84,-1624.39
11590,-3.8737,0.8910,0.3770,-788.82,-201.66,-1733.76
11600,-3.8734,1.0010,0.4410,-1945.07,251.71,-1311.77
11610,-3.8732,1.1093,0.5117,133.06,455.08,1422.73
11620,-3.8729,1.2405,0.5509,1992.43,1502.14,1657.23
11630,-3.8726,1.3995,0.5490,-1210.69,-1481.99,907.29
11640,-3.8721,1.5481,0.5435,-851.32,-1731.69,188.54
11650,-3.8715,1.6418,0.5569,-1835.69,1565.49,407.29
11660,-3.8708,1.6848,0.5848,-1835.69,-715.58,-1092.71
11670,-3.8702,1.7279,0.6233,-335.69,-1137.39,-1155.15
11680,-3.8696,1.7882,0.6503,1179.93,-215.39,204.28
11690,-3.8691,1.8370,0.6432,898.68,-762.15,-608.15
11700,-3.8684,1.8694,0.6188,-851.32,-1668.33,1876.22
11710,-3.8677,1.9154,0.5950,-710.69,-793.27,423.03
11720,-3.8671,1.9778,0.5588,1179.93,159.97,688.66
11730,-3.8666,2.0294,0.5012,1164.31,-464.90,-61.46
11740,-3.8660,2.0660,0.4532,-226.32,160.16,-764.65
11750,-3.8654,2.0704,0.4672,461.18,-1980.35,1891.48
11760,-3.8649,2.0171,0.5627,1023.68,-199.10,-514.77
11770,-3.8643,1.8806,0.7150,-1804.44,35.16,469.85
11780,-3.8638,1.6281,0.9088,726.81,-480.71,1376.34
11790,-3.8634,1.2880,1.1647,398.68,331.30,-279.48
11800,-3.8632,0.9142,1.4647,867.43,1080.63,-653.99
11810,-3.8632,0.5216,1.6851,1023.68,-513.85,893.43
11820,-3.8635,0.1256,1.6873,-1226.32,-311.52,565.73
11830,-3.8641,-0.2389,1.5074,86.18,-31.01,1518.86
11840,-3.8649,-0.5282,1.3221,1429.93,968.26,-1075.20
11850,-3.8656,-0.7115,1.2471,398.68,1248.96,-700.56
11860,-3.8662,-0.8147,1.2686,929.93,-360.78,49.26
11870,-3.8669,-0.9222,1.3090,-273.19,-1611.02,-1028.81
11880,-3.8674,-1.0964,1.3124,1961.18,-439.33,1174.38
11890,-3.8679,-1.2754,1.2695,-335.69,-2.20,1643.13
11900,-3.8684,-1.3713,1.1967,758.06,-1486.88,-997.56
11910,-3.8688,-1.3656,1.0997,476.81,1184.81,1783.57
11920,-3.8691,-1.2415,0.9825,1211.18,778.56,-1372.86
11930,-3.8695,-1.0784,0.8696,1101.81,1778.81,-513.73
11940,-3.8699,-0.9590,0.7865,1976.81,-674.01,1079.77
11950,-3.8705,-0.8483,0.7451,1258.06,685.61,-998.47
11960,-3.8711,-0.7595,0.7299,-570.07,-611.08,-232.97
11970,-3.8716,-0.6946,0.7090,-1210.69,1435.97,1829.53
11980,-3.8721,-0.6127,0.6675,-898.19,-1235.78,-1154.91
11990,-3.8724,-0.5515,0.6212,1586.18,1451.90,-733.09
12000,-3.8727,-0.5356,0.5923,1414.31,-469.85,1516.78
12010,-3.8729,-0.5168,0.5858,-554.44,-172.97,219.85
12020,-3.8733,-0.4802,0.5991,1851.81,-1001.04,-30.15
12030,-3.8734,-0.4357,0.6233,-1460.69,702.15,1782.41
12040,-3.8735,-0.3914,0.6346,242.43,-203.98,1173.03
12050,-3.8737,-0.3661,0.6176,1914.31,1249.21,188.72
12060,-3.8739,-0.3501,0.5873,1148.68,-938.23,1079.28
12070,-3.8743,-0.3331,0.5620,-804.44,-813.23,-920.78
12080,-3.8746,-0.3043,0.5375,1367.43,-47.55,-1155.21
12090,-3.8750,-0.2561,0.4921,1054.93,811.89,-186.46
12100,-3.8439,-0.2015,0.4214,-773.19,-1000.55,1329.04
12110,-3.8440,-0.1519,0.3455,-1788.82,1952.70,-1217.96
12120,-3.8440,-0.1063,0.2928,570.56,234.07,-1827.45
12130,-3.8440,-0.0477,0.2842,-1601.32,1499.76,-1936.95
12140,-3.8440,0.0247,0.3046,1898.68,390.50,1859.92
12150,-3.8440,0.1057,0.3074,-835.69,-1015.62,1219.30
12160,-3.8440,0.2091,0.2523,1539.31,-656.07,47.42
12170,-3.8441,0.3336,0.1454,-1226.32,297.24,-921.39
12180,-3.8441,0.4523,0.0327,-1288.82,-1390.01,-640.38
12190,-3.8440,0.5521,-0.0414,1898.68,188.35,1390.69
12200,-3.8440,0.6189,-0.0577,-1320.07,-1295.84,-578.25
12210,-3.8439,0.6389,-0.0229,-773.19,610.53,109.25
12220,-3.8440,0.6202,0.0336,1789.31,1063.72,-421.94
12230,-3.8440,0.6006,0.0582,-601.32,298.03,-671.81
12240,-3.8750,0.6141,0.0215,883.06,-545.72,609.44
12250,-3.8746,0.6499,0.0000,-1382.57,-1248.84,1984.38
12260,-3.8741,0.6882,0.0668,-804.44,1.22,-1875.00
12270,-3.8738,0.7340,0.1770,101.81,548.22,-1640.50
12280,-3.8735,0.7798,0.2657,1961.18,-1342.35,1359.68
12290,-3.8735,0.7855,0.3097,-179.44,-1982.91,-30.76
12300,-3.8735,0.7339,0.2922,554.93,-357.85,-1968.20
12310,-3.8737,0.6753,0.2108,1945.56,1407.65,-327.58
12320,-3.8734,0.6639,0.1459,-1554.44,-1014.34,1609.74
12330,-3.8729,0.6901,0.1810,992.43,-1326.84,-1843.51
12340,-3.8723,0.7379,0.2889,336.18,-826.78,-1874.69
12350,-3.8718,0.8115,0.3982,-1538.82,985.78,1969.30
12360,-3.8716,0.9104,0.4530,-116.94,-1029.72,-843.02
12370,-3.8715,1.0144,0.4247,539.31,1986.15,-405.40
12380,-3.8713,1.1105,0.3322,1851.81,-1638.67,-546.08
12390,-3.8711,1.2041,0.2439,-1851.32,-1482.24,-577.51
12400,-3.8706,1.3016,0.2277,-1866.94,-778.93,-1280.82
12410,-3.8699,1.3771,0.2830,-1382.57,1143.13,625.43
12420,-3.8691,1.3958,0.3738,273.68,221.44,-1765.08
12430,-3.8683,1.3628,0.4731,-1335.69,-153.56,516.30
12440,-3.8676,1.3147,0.5453,-1554.44,565.12,485.29
12450,-3.8669,1.2704,0.5604,289.31,1799.44,157.29
12460,-3.8665,1.2277,0.5299,-1382.57,-263.18,157.29
12470,-3.8661,1.1879,0.4784,1148.68,-169.49,1282.23
12480,-3.8658,1.1522,0.4250,54.93,1236.69,-1702.21
12490,-3.8656,1.1271,0.4056,-507.57,-1591.55,360.17
12500,-3.8655,1.1027,0.4604,273.68,-75.93,-827.39
12510,-3.8651,1.0269,0.5902,1148.68,-1060.36,32.10
12520,-3.8649,0.8295,0.7573,-554.44,-451.17,1485.47
12530,-3.8646,0.4613,0.9282,-1820.07,939.09,1782.71
12540,-3.8645,-0.0365,1.0804,-945.07,-1186.65,-576.35
12550,-3.8645,-0.4896,1.1902,-663.82,-1687.62,-1013.55
12560,-3.8647,-0.7552,1.2356,1336.18,358.40,-1388.31
12570,-3.8651,-0.8379,1.2250,-663.82,-1829.65,924.26
12580,-3.8657,-0.7916,1.1930,758.06,810.85,-185.12
12590,-3.8662,-0.6959,1.1627,-1320.07,717.16,689.82
12600,-3.8668,-0.6246,1.1393,-1070.07,842.35,-1716.49
12610,-3.8673,-0.5967,1.1229,54.93,1842.53,-1497.80
12620,-3.8677,-0.6162,1.1031,-366.94,-251.22,861.51
12630,-3.8680,-0.6823,1.0833,1133.06,1217.53,361.51
12640,-3.8685,-0.7815,1.0835,679.93,-1329.47,-247.92
12650,-3.8689,-0.8744,1.0973,-23.19,-1298.46,1017.70
12660,-3.8695,-0.9110,1.0886,86.18,467.04,-1435.36
12670,-3.8701,-0.8810,1.0381,-601.32,-642.46,1220.83
12680,-3.8708,-0.8184,0.9675,-757.57,888.85,-201.11
12690,-3.8713,-0.7671,0.9048,-741.94,-142.27,48.71
12700,-3.8719,-0.7438,0.8584,1820.56,-173.40,1814.21
12710,-3.8724,-0.7419,0.8179,804.93,1889.16,579.77
12720,-3.8729,-0.7513,0.7777,1039.31,701.66,735.96
12730,-3.8734,-0.7609,0.7430,-163.82,-439.03,-1467.29
12740,-3.8738,-0.7621,0.7155,-1382.57,-876.53,1438.90
12750,-3.8741,-0.7572,0.6959,-1538.82,-407.78,1563.84
12760,-3.8745,-0.7543,0.6758,-913.82,1092.22,-623.66
12770,-3.8748,-0.7550,0.6414,-538.82,-1485.90,-1295.59
12780,-3.8750,-0.7505,0.5901,-632.57,-1892.15,-1139.40
12790,-3.8440,-0.7281,0.5367,-54.44,-454.65,-264.53
12800,-3.8441,-0.6877,0.5055,-1195.07,717.29,1501.04
12810,-3.8442,-0.6359,0.5050,-23.19,717.35,344.73
12820,-3.8444,-0.5692,0.5206,-1382.57,654.97,735.35
12830,-3.8445,-0.4893,0.5415,-851.32,-1344.91,-1124.02
12840,-3.8445,-0.4082,0.5562,1383.06,1327.15,-1811.46
12850,-3.8445,-0.3307,0.5533,-241.94,-797.73,1938.54
12860,-3.8445,-0.2473,0.5355,1679.93,-1156.92,-1764.59
12870,-3.8445,-0.1521,0.5010,351.81,562.01,-1123.96
12880,-3.8445,-0.0553,0.4414,539.31,140.32,-670.90
12890,-3.8445,0.0321,0.3650,929.93,515.50,-264.77
12900,-3.8444,0.1133,0.2970,117.43,-1281.19,125.67
12910,-3.8444,0.1943,0.2561,-1491.94,-1984.19,344.30
12920,-3.8444,0.2733,0.2448,883.06,781.62,781.74
12930,-3.8444,0.3550,0.2510,-1007.57,-671.39,-1827.70
12940,-3.8442,0.4490,0.2686,1445.56,125.67,734.86
12950,-3.8442,0.5471,0.2903,1476.81,-1624.15,-46.39
12960,-3.8441,0.6300,0.2926,-1960.69,1157.29,-1155.70
12970,-3.8440,0.6866,0.2649,648.68,1454.35,516.17
12980,-3.8440,0.7183,0.2140,-101.32,1907.53,1016.11
12990,-3.8440,0.7400,0.1556,-54.44,-608.03,-1734.01
13000,-3.8439,0.7793,0.1083,-1273.19,-76.72,-1327.88
13010,-3.8749,0.8513,0.0834,-241.94,1860.84,-718.57
13020,-3.8745,0.9333,0.1002,976.81,-1326.48,-1390.50
13030,-3.8741,0.9897,0.1683,-523.19,829.90,859.56
13040,-3.8739,0.9978,0.2551,-1304.44,1548.77,453.43
13050,-3.8738,0.9611,0.3018,-273.19,658.14,-249.51
13060,-3.8734,0.9344,0.2933,-976.32,-1373.17,-624.45
13070,-3.8728,0.9585,0.2942,-382.57,1548.65,1172.42
13080,-3.8722,1.0146,0.3434,-1304.44,1658.08,594.30
13090,-3.8717,1.0824,0.4073,1883.06,-44.92,453.74
13100,-3.8713,1.1501,0.4661,-1445.07,142.70,188.29
13110,-3.8711,1.1912,0.5264,-773.19,-341.55,-1827.27
13120,-3.8707,1.1840,0.5618,476.81,-622.68,1438.48
13130,-3.8702,1.1573,0.5599,-445.07,-91.49,1985.41
13140,-3.8695,1.1631,0.5712,148.68,-325.87,313.54
13150,-3.8689,1.2065,0.6188,883.06,1111.63,-889.53
13160,-3.8683,1.2529,0.6785,-1554.44,-794.56,1563.66
13170,-3.8678,1.2738,0.7809,383.06,-1153.81,391.91
13180,-3.8673,1.2439,0.9783,-945.07,-44.43,63.96
13190,-3.8668,1.1471,1.2223,-773.19,1221.13,-794.98
13200,-3.8661,1.0182,1.3811,-1163.82,455.32,1689.88
13210,-3.8654,0.8912,1.4008,-1663.82,783.20,1565.19
13220,-3.8647,0.7375,1.3551,-1913.82,-701.42,471.44
13230,-3.8646,0.5258,1.3279,-1585.69,1454.53,-684.88
13240,-3.8647,0.2435,1.3700,-695.07,1969.73,-466.19
13250,-3.8650,-0.0638,1.4685,-820.07,-640.20,-1981.75
13260,-3.8654,-0.2561,1.5316,-163.82,-15.81,1971.56
13270,-3.8656,-0.2686,1.5115,-773.19,61.95,456.12
13280,-3.8657,-0.1812,1.4573,1633.06,1483.83,331.05
13290,-3.8658,-0.1022,1.4176,820.56,-1453.49,-590.94
13300,-3.8658,-0.1030,1.4026,-1070.07,1468.51,-872.25
13310,-3.8658,-0.1880,1.4065,-1179.44,-453.37,1877.69
13320,-3.8660,-0.3273,1.4139,-54.44,46.45,1174.62
13330,-3.8663,-0.4998,1.4043,-1882.57,999.33,-872.25
13340,-3.8667,-0.6744,1.3593,39.31,-235.35,362.06
13350,-3.8673,-0.8112,1.2834,1679.93,1998.66,-559.88
13360,-3.8678,-0.8773,1.1904,179.93,295.29,-1825.62
13370,-3.8683,-0.8489,1.0966,-288.82,388.85,-1669.56
13380,-3.8687,-0.7460,1.0353,-648.19,373.29,1439.64
13390,-3.8690,-0.6416,1.0060,523.68,529.79,-1154.24
13400,-3.8694,-0.5941,0.9620,1883.06,779.97,-216.80
13410,-3.8698,-0.6083,0.8909,-38.82,-844.97,1704.96
13420,-3.8702,-0.6750,0.8430,-1851.32,-1954.35,64.21
13430,-3.8708,-0.7948,0.8605,1601.81,-79.47,939.09
13440,-3.8715,-0.9487,0.9252,-1726.32,-1845.34,-1732.73
13450,-3.8719,-1.0907,0.9836,-1429.44,-1564.39,579.90
13460,-3.8724,-1.1669,1.0007,398.68,1919.74,814.39
13470,-3.8729,-1.1493,0.9720,-1351.32,107.06,-951.17
13480,-3.8733,-1.0640,0.9103,898.68,435.24,-1529.36
13490,-3.8737,-0.9673,0.8313,-179.44,529.11,-748.23
13500,-3.8739,-0.8828,0.7478,195.56,-1580.02,-1873.41
13510,-3.8741,-0.8019,0.6763,-991.94,-267.40,-889.22
13520,-3.8743,-0.7244,0.6332,1367.43,-1423.46,1970.03
13530,-3.8744,-0.6532,0.6144,-710.69,1061.04,1594.97
13540,-3.8745,-0.5879,0.5990,398.68,-1345.03,532.41
13550,-3.8748,-0.5262,0.5807,758.06,686.34,-1092.59
13560,-3.8749,-0.4619,0.5692,648.68,-1657.29,1141.72
13570,-3.8439,-0.3854,0.5663,883.06,874.08,-498.90
13580,-3.8440,-0.2968,0.5684,-1320.07,499.21,-639.53
13590,-3.8440,-0.2158,0.5743,-1976.32,765.01,1704.22
13600,-3.8440,-0.1544,0.5710,383.06,1530.82,1485.47
13610,-3.8440,-0.0973,0.5426,242.43,1109.07,1094.85
13620,-3.8441,-0.0394,0.4922,-445.07,1468.51,-295.84
13630,-3.8441,0.0054,0.4360,-1038.82,-984.50,1813.42
13640,-3.8441,0.0344,0.3914,695.56,-187.50,891.42
13650,-3.8441,0.0616,0.3607,414.31,-1906.19,656.98
13660,-3.8442,0.1000,0.3351,-101.32,-1828.06,-671.20
13670,-3.8442,0.1520,0.3204,804.93,-1109.19,219.36
13680,-3.8444,0.2092,0.3281,-538.82,1015.87,891.24
13690,-3.8445,0.2625,0.3488,-1210.69,-1999.63,-702.51
13700,-3.8445,0.3092,0.3492,1601.81,641.11,-702.45
13710,-3.8445,0.3417,0.3220,-413.82,703.67,-389.95
13720,-3.8444,0.3438,0.3130,-257.57,1219.36,313.11
13730,-3.8444,0.3231,0.3484,8.06,63.17,-1858.76
13740,-3.8442,0.3319,0.4048,1367.43,594.36,1797.55
13750,-3.8440,0.4110,0.4407,-1507.57,-186.89,594.48
13760,-3.8750,0.5535,0.4167,617.43,407.04,-1561.65
13770,-3.8746,0.7289,0.3394,-1148.19,1344.79,203.92
13780,-3.8744,0.8911,0.2450,1304.93,-561.10,453.74
13790,-3.8741,1.0015,0.1705,-1929.44,-638.92,281.68
13800,-3.8740,1.0719,0.1368,195.56,1830.08,-1468.44
13810,-3.8739,1.1614,0.1108,1211.18,1517.70,-577.88
13820,-3.8735,1.3129,0.0624,664.31,-1810.24,1172.06
13830,-3.8730,1.5027,0.0444,54.93,-13.06,-640.56
13840,-3.8723,1.6814,0.1147,351.81,1690.43,78.19
13850,-3.8718,1.8237,0.2595,-773.19,-1309.27,265.81
13860,-3.8716,1.8844,0.4110,1445.56,1222.29,-1890.14
13870,-3.8713,1.8174,0.4789,1211.18,613.04,1453.92
13880,-3.8711,1.6719,0.4427,633.06,1300.42,-577.21
13890,-3.8706,1.5353,0.3746,-1991.94,675.11,422.73
13900,-3.8702,1.4489,0.3433,523.68,-43.88,1328.80
13910,-3.8700,1.4271,0.3733,1461.18,-59.69,-390.01
13920,-3.8698,1.4475,0.4463,-1320.07,-216.00,1938.17
13930,-3.8698,1.4561,0.4921,1289.31,1127.81,-421.02
13940,-3.8698,1.4196,0.4647,-1616.94,-1012.82,-1124.08
13950,-3.8696,1.3470,0.4065,1711.18,-512.88,1547.73
13960,-3.8694,1.2775,0.3795,429.93,33.87,-1217.96
13970,-3.8689,1.2534,0.4066,-476.32,580.57,-1155.52
13980,-3.8682,1.2874,0.4780,445.56,49.32,422.67
13990,-3.8676,1.3464,0.5673,789.31,1190.00,-795.96
14000,-3.8669,1.3759,0.6384,351.81,612.00,-717.65
14010,-3.8663,1.3169,0.6779,117.43,1721.44,563.72
14020,-3.8660,1.1757,0.7003,570.56,-1231.81,-186.22
14030,-3.8655,1.0339,0.7136,-1507.57,1642.88,141.97
14040,-3.8652,0.9396,0.7277,351.81,-654.24,-342.41
14050,-3.8647,0.8901,0.7667,273.68,1142.46,251.40
14060,-3.8645,0.8663,0.8306,1945.56,-1857.67,-1264.16
14070,-3.8643,0.8180,0.9065,-1101.32,-1685.85,251.59
14080,-3.8643,0.6774,1.0009,711.18,32.84,845.52
14090,-3.8644,0.4275,1.1034,-1288.82,110.66,-935.55
14100,-3.8644,0.1294,1.1738,-1273.19,1235.17,1064.64
14110,-3.8645,-0.1360,1.1898,570.56,-1749.76,1814.76
14120,-3.8647,-0.3191,1.1614,-1398.19,312.19,-1107.06
14130,-3.8651,-0.3973,1.0948,-835.69,671.20,-1247.74
14140,-3.8656,-0.3729,1.0090,1148.68,155.46,-1075.99
14150,-3.8661,-0.2960,0.9332,273.68,1171.14,-1888.67
14160,-3.8666,-0.2189,0.8777,-1882.57,-531.86,1486.15
14170,-3.8671,-0.1722,0.8652,-7.57,358.89,-1904.54
14180,-3.8676,-0.1871,0.9042,1961.18,-1234.74,-1310.85
14190,-3.8680,-0.2412,0.9463,54.93,-250.37,845.46
14200,-3.8687,-0.2688,0.9364,1133.06,1140.14,111.21
14210,-3.8694,-0.2362,0.8636,1601.81,-125.55,-1357.60
14220,-3.8700,-0.1572,0.7627,1773.68,-1437.99,-1248.35
14230,-3.8705,-0.0756,0.6750,-116.94,1640.26,657.71
14240,-3.8710,-0.0321,0.6266,-1663.82,-1578.31,1048.16
14250,-3.8715,-0.0405,0.6165,-101.32,218.63,-592.53
14260,-3.8718,-0.0928,0.6206,-1179.44,-1078.25,-1795.72
14270,-3.8722,-0.1753,0.6213,133.06,-547.06,1282.41
14280,-3.8726,-0.2738,0.6187,1570.56,-453.49,407.41
14290,-3.8730,-0.3669,0.6233,961.18,-797.42,-1326.97
14300,-3.8735,-0.4373,0.6411,1039.31,-203.86,-233.22
14310,-3.8739,-0.5040,0.6591,39.31,-1922.73,657.47
14320,-3.8744,-0.6130,0.6646,-507.57,373.96,-1639.34
14330,-3.8749,-0.7661,0.6615,1539.31,1076.90,-967.47
14340,-3.8441,-0.8944,0.6393,1945.56,685.97,1813.78
14350,-3.8446,-0.9244,0.5918,1523.68,1841.98,1735.60
14360,-3.8450,-0.8546,0.5413,1679.93,-236.21,1844.85
14370,-3.8452,-0.7512,0.5105,-1382.57,1295.17,-1077.09
14380,-3.8453,-0.6698,0.5006,-148.19,1357.85,-358.40
14390,-3.8453,-0.6134,0.4960,-1726.32,92.41,-1499.02
14400,-3.8453,-0.5573,0.4845,1492.43,-501.22,-1420.96
14410,-3.8453,-0.4788,0.4563,679.93,-1969.85,-967.83
14420,-3.8453,-0.3684,0.4072,-1273.19,-1579.10,-202.27
14430,-3.8452,-0.2365,0.3525,851.81,139.89,1063.29
14440,-3.8452,-0.1056,0.3146,1742.43,1140.14,-1155.58
14450,-3.8451,0.0105,0.3090,-1507.57,281.01,1438.11
14460,-3.8450,0.1201,0.3270,1351.81,-453.12,906.80
14470,-3.8448,0.2349,0.3499,-616.94,1859.56,609.99
14480,-3.8447,0.3446,0.3689,-1929.44,781.68,547.55
14490,-3.8446,0.4292,0.3733,117.43,-780.58,1422.55
14500,-3.8445,0.4799,0.3633,-1054.44,-217.96,-1374.33
14510,-3.8444,0.5079,0.3483,1429.93,-1499.08,-499.33
14520,-3.8441,0.5458,0.3152,1023.68,579.10,953.80
14530,-3.8439,0.6144,0.2672,1867.43,344.79,1938.11
14540,-3.8748,0.6970,0.2590,-1351.32,-1795.72,-374.51
14550,-3.8743,0.7723,0.3298,1226.81,1157.59,-1671.39
14560,-3.8739,0.8342,0.4622,-1132.57,-1779.79,-1655.64
14570,-3.8737,0.8705,0.5884,-1210.69,-842.16,-264.77
14580,-3.8733,0.8696,0.6252,-570.07,-685.85,938.60
14590,-3.8729,0.8542,0.5588,-679.44,32.90,907.47
14600,-3.8724,0.8748,0.4597,1351.81,-467.10,1172.91
14610,-3.8719,0.9587,0.4155,-23.19,-1154.60,-327.27
14620,-3.8715,1.0872,0.4435,-1273.19,1189.33,-467.96
14630,-3.8711,1.2305,0.4957,-835.69,767.70,1235.23
14640,-3.8710,1.3588,0.5231,1508.06,-544.49,1875.92
14650,-3.8708,1.4459,0.5065,1929.93,-1044.25,1860.35
14660,-3.8706,1.5016,0.4712,1086.18,830.93,1391.60
14670,-3.8702,1.5574,0.4535,211.18,315.43,-1967.83
14680,-3.8698,1.6249,0.4661,-648.19,-1950.13,1907.10
14690,-3.8693,1.6931,0.4913,-7.57,-340.64,407.10
14700,-3.8690,1.7568,0.4956,726.81,-1106.08,1469.67
14710,-3.8690,1.8082,0.4597,883.06,-559.08,-405.33
14720,-3.8691,1.8197,0.3855,-538.82,-1152.77,-921.02
14730,-3.8693,1.7816,0.2996,929.93,1347.29,516.36
14740,-3.8694,1.7231,0.2595,54.93,-1652.77,-890.08
14750,-3.8691,1.6708,0.3044,570.56,1222.11,1734.86
14760,-3.8688,1.6184,0.4205,1867.43,-1028.02,-1858.83
14770,-3.8683,1.5493,0.5498,-835.69,1831.24,47.67
14780,-3.8679,1.4717,0.6384,-1679.44,-1622.01,813.54
14790,-3.8676,1.3865,0.6980,383.06,1721.62,1704.35
14800,-3.8671,1.2766,0.7614,1476.81,1346.44,798.22
14810,-3.8665,1.1704,0.8444,-585.69,1455.57,235.84
14820,-3.8657,1.0975,0.9520,1820.56,80.38,142.27
14830,-3.8651,1.0197,1.0739,492.43,1861.51,-1107.54
14840,-3.8647,0.8843,1.1917,-1476.32,1455.08,-419.80
14850,-3.8647,0.6796,1.2837,1195.56,532.96,-466.43
14860,-3.8649,0.4384,1.3282,-1007.57,313.78,1455.63
14870,-3.8650,0.2312,1.3131,117.43,-1983.52,549.44
14880,-3.8651,0.1063,1.2620,1601.81,78.55,-1606.81
14890,-3.8651,0.0369,1.2178,1617.43,1531.43,361.82
14900,-3.8654,-0.0411,1.2018,726.81,-124.94,-1091.43
14910,-3.8656,-0.1550,1.1931,-1257.57,1843.63,49.19
14920,-3.8661,-0.2788,1.1614,164.31,734.07,-778.93
14930,-3.8663,-0.3846,1.1267,320.56,671.33,-1685.24
14940,-3.8665,-0.4548,1.1138,-1226.32,233.58,1049.07
14950,-3.8667,-0.4681,1.1029,1789.31,-1422.79,-1763.49
14960,-3.8671,-0.4231,1.0643,86.18,1186.58,-1013.49
14970,-3.8674,-0.3521,0.9965,1851.81,249.15,298.95
14980,-3.8679,-0.2959,0.9355,-1054.44,-438.23,173.77
14990,-3.8684,-0.2831,0.9050,-1866.94,-234.99,251.77
15000,-3.8689,-0.3210,0.8811,-226.32,-141.24,1361.08
15010,-3.8693,-0.3855,0.8359,-1085.69,796.20,298.58
15020,-3.8696,-0.4426,0.7820,-1335.69,-985.17,-1357.79
15030,-3.8699,-0.4771,0.7463,-648.19,108.46,-529.72
15040,-3.8701,-0.4834,0.7373,-1054.44,-454.10,-764.22
15050,-3.8704,-0.4476,0.7507,-1866.94,-1610.35,673.28
15060,-3.8707,-0.3729,0.7649,-1288.82,108.46,298.34
15070,-3.8712,-0.2961,0.7527,273.68,1921.14,-1295.41
15080,-3.8716,-0.2452,0.7245,-1898.19,358.76,938.96
15090,-3.8721,-0.2190,0.7086,617.43,749.51,-1545.47
15100,-3.8726,-0.2136,0.7109,-23.19,-1281.74,-1795.53
15110,-3.8730,-0.2343,0.7136,664.31,-984.80,329.47
15120,-3.8737,-0.2810,0.7002,-1976.32,-641.11,1751.34
15130,-3.8741,-0.3385,0.6750,39.31,1640.08,141.97
15140,-3.8746,-0.3896,0.6476,679.93,-1578.80,923.16
15150,-3.8750,-0.4143,0.6204,-1866.94,-1094.54,798.10
15160,-3.8441,-0.3811,0.6088,-1023.19,-578.98,-405.09
15170,-3.8444,-0.2881,0.6167,-773.19,1936.71,-498.84
15180,-3.8446,-0.1655,0.6125,-866.94,-1047.49,-1373.84
15190,-3.8448,-0.0450,0.5690,-1179.44,-1578.49,1235.53
15200,-3.8451,0.0493,0.4902,-1757.57,843.63,1079.22
15210,-3.8453,0.1169,0.3887,-1679.44,-1249.94,-1217.83
15220,-3.8455,0.1846,0.2837,-1023.19,1750.18,-1311.77
15230,-3.8455,0.2679,0.2076,-366.94,312.81,1297.42
15240,-3.8455,0.3459,0.1729,-1695.07,-1421.39,844.12
15250,-3.8456,0.4077,0.1555,289.31,-1874.33,-452.82
15260,-3.8456,0.4652,0.1240,195.56,-92.96,718.99
15270,-3.8457,0.5137,0.0743,-445.07,-124.15,640.81
15280,-3.8458,0.5428,0.0222,1758.06,1516.60,1312.62
15290,-3.8458,0.5658,-0.0221,1492.43,-1155.21,953.12
15300,-3.8457,0.6040,-0.0447,429.93,1172.97,734.31
15310,-3.8455,0.6587,-0.0273,1320.56,-1717.59,640.50
15320,-3.8452,0.7156,0.0294,320.56,501.28,-281.31
15330,-3.8447,0.7648,0.1010,-398.19,-233.03,15.62
15340,-3.8444,0.8107,0.1427,1898.68,923.34,109.56
15350,-3.8441,0.8469,0.1342,-226.32,-1732.85,-546.63
15360,-3.8750,0.8473,0.1194,414.31,1173.52,-812.26
15370,-3.8745,0.8105,0.1451,461.18,-717.10,187.68
15380,-3.8741,0.7618,0.2168,-241.94,-1420.35,-1640.38
15390,-3.8737,0.7231,0.2930,1523.68,-248.54,-1624.63
15400,-3.8730,0.7203,0.3080,570.56,1501.40,1891.17
15410,-3.8723,0.7765,0.2697,211.18,-576.72,1672.42
15420,-3.8716,0.8784,0.2458,-601.32,-1482.91,-1655.76
15430,-3.8710,0.9865,0.2715,445.56,-529.54,-1233.95
15440,-3.8705,1.0862,0.3784,-1726.32,-1248.11,-1577.64
15450,-3.8700,1.1649,0.5657,-960.69,439.58,141.36
15460,-3.8696,1.1483,0.7040,1117.43,408.51,-1842.65
15470,-3.8691,1.0100,0.7051,-1007.57,-1888.43,-967.41
15480,-3.8685,0.8430,0.6377,1289.31,-1748.05,-1248.66
15490,-3.8679,0.7241,0.5745,-85.69,1626.59,-1576.90
15500,-3.8673,0.6595,0.5355,695.56,1532.65,-983.28
15510,-3.8666,0.6371,0.5359,429.93,548.16,-795.84
15520,-3.8657,0.6458,0.5848,1554.93,594.97,1204.16
15530,-3.8650,0.6472,0.6552,-1335.69,-1139.40,1657.35
15540,-3.8644,0.5793,0.7073,-1148.19,-139.40,-717.53
15550,-3.8638,0.4448,0.7305,-1835.69,-1467.65,-1951.78
15560,-3.8633,0.3307,0.7332,945.56,1500.85,1063.90
15570,-3.8630,0.3031,0.7169,-1663.82,1844.36,1454.53
15580,-3.8632,0.3315,0.6893,-1195.07,-233.83,-686.16
15590,-3.8635,0.3394,0.6616,-1554.44,234.99,329.47
15600,-3.8644,0.3009,0.6439,-554.44,688.11,-451.84
15610,-3.8651,0.2354,0.6550,-1476.32,-1577.58,376.22
15620,-3.8658,0.1547,0.7126,-1866.94,-155.82,-1998.78
15630,-3.8662,0.0510,0.8229,-195.07,-781.01,157.59
15640,-3.8665,-0.0870,0.9614,-1460.69,1328.19,939.09
15650,-3.8667,-0.2391,1.0826,867.43,-922.06,-1966.92
15660,-3.8671,-0.3728,1.1545,1398.68,-1406.74,-1919.80
15670,-3.8676,-0.4779,1.1709,289.31,-203.86,689.70
15680,-3.8682,-0.5485,1.1465,-1163.82,1889.65,1064.76
15690,-3.8688,-0.5791,1.1111,1804.93,-1235.47,-1763.43
15700,-3.8693,-0.5790,1.0875,1883.06,-1766.78,1174.01
15710,-3.8698,-0.5658,1.0713,1898.68,-782.41,861.45
15720,-3.8704,-0.5586,1.0378,-413.82,1139.47,-263.55
15730,-3.8708,-0.5728,0.9689,508.06,858.28,-1872.99
15740,-3.8713,-0.6057,0.8700,-1304.44,30.09,1486.27
15750,-3.8718,-0.6426,0.7639,-1523.19,-626.22,-154.60
15760,-3.8721,-0.6710,0.6857,1758.06,1795.59,-1311.04
15770,-3.8722,-0.6921,0.6597,-1882.57,-220.09,673.16
15780,-3.8724,-0.7150,0.6764,-585.69,451.72,-983.09
15790,-3.8726,-0.7422,0.6877,492.43,-1407.65,173.16
15800,-3.8728,-0.7666,0.6533,1008.06,45.41,516.97
15810,-3.8730,-0.7751,0.5885,1883.06,-360.90,1626.22
15820,-3.8733,-0.7627,0.5388,789.31,-657.78,-452.03
15830,-3.8734,-0.7385,0.5226,-1616.94,982.85,1001.04
15840,-3.8737,-0.7157,0.5128,1476.81,-1095.21,1485.35
15850,-3.8739,-0.6984,0.4851,398.68,1654.85,1829.10
15860,-3.8741,-0.6802,0.4430,-1382.57,-1892.03,-967.83
15870,-3.8743,-0.6523,0.4039,945.56,717.41,1203.98
15880,-3.8745,-0.6124,0.3817,508.06,-282.53,-61.77
15890,-3.8746,-0.5647,0.3728,1617.43,873.78,-1030.52
15900,-3.8748,-0.5149,0.3635,-273.19,-266.78,-1452.45
15910,-3.8749,-0.4680,0.3481,-1898.19,-1454.16,-358.70
15920,-3.8749,-0.4253,0.3359,101.81,577.21,-1968.08
15930,-3.8749,-0.3843,0.3320,1570.56,-985.23,594.36
15940,-3.8750,-0.3439,0.3280,-1179.44,-1485.17,-827.51
15950,-3.8750,-0.3048,0.3177,-7.57,1999.27,-1530.64
15960,-3.8750,-0.2650,0.3032,992.43,686.89,-1405.64
15970,-3.8750,-0.2190,0.2902,-1913.82,-1172.42,-1108.83
15980,-3.8750,-0.1626,0.2806,-23.19,1155.76,-343.20
15990,-3.8749,-0.1021,0.2706,-804.44,-62.87,-1749.51
16000,-3.8748,-0.0479,0.2542,-1054.44,-1343.99,-1421.39
16010,-3.8746,0.0012,0.2325,1883.06,546.75,-1108.89
16020,-3.8745,0.0483,0.2223,164.31,1765.62,-1687.07
16030,-3.8744,0.0833,0.2368,-1804.44,453.19,1453.55
16040,-3.8743,0.1014,0.2600,-1335.69,-1687.38,859.80
16050,-3.8741,0.1229,0.2634,992.43,1281.43,1187.99
16060,-3.8740,0.1698,0.2483,-257.57,1718.93,-1374.51
16070,-3.8739,0.2551,0.2548,1742.43,-218.44,-155.82
16080,-3.8738,0.3679,0.3196,664.31,609.86,-452.64
16090,-3.8737,0.4531,0.4172,-898.19,906.92,-1983.76
16100,-3.8735,0.4518,0.4496,-1991.94,1407.10,-1905.46
16110,-3.8733,0.3678,0.3622,1836.18,1547.73,-1624.15
16120,-3.8729,0.2666,0.2130,-913.82,-1639.95,-1093.08
16130,-3.8724,0.2104,0.0800,-1866.94,-733.89,1531.62
16140,-3.8721,0.2350,-0.0087,-1054.44,-1765.26,-1265.50
16150,-3.8717,0.3438,-0.0608,-1913.82,-1108.95,1859.31
16160,-3.8713,0.4967,-0.0844,8.06,219.42,921.75
16170,-3.8710,0.6561,-0.0710,-413.82,1204.04,952.94
16180,-3.8706,0.8182,0.0062,-7.57,-1092.53,546.69
16190,-3.8704,0.9519,0.1472,742.43,798.46,-1718.75
16200,-3.8700,0.9803,0.2646,1851.81,-1154.42,1609.62
16210,-3.8695,0.8912,0.2772,1492.43,1876.89,-390.14
16220,-3.8688,0.7750,0.2202,-1913.82,-513.92,-1265.14
16230,-3.8682,0.7153,0.1772,-788.82,188.96,-1218.32
16240,-3.8678,0.7148,0.1884,-429.44,-1311.16,1531.56
16250,-3.8677,0.7213,0.2532,-491.94,110.72,1187.87
16260,-3.8676,0.6963,0.3666,336.18,407.65,875.49
16270,-3.8673,0.6356,0.5106,1133.06,-1076.78,-1843.08
16280,-3.8668,0.5316,0.6666,1367.43,1360.60,-1483.40
16290,-3.8662,0.3668,0.8368,54.93,1329.16,-1092.47
16300,-3.8656,0.1808,1.0042,-1038.82,-889.95,1485.96
16310,-3.8654,0.0938,1.0951,-851.32,531.56,-1169.92
16320,-3.8654,0.1449,1.0631,8.06,172.06,1580.26
16330,-3.8656,0.2469,0.9702,-1445.07,78.37,-154.17
16340,-3.8657,0.3208,0.8969,-382.57,187.93,-1201.23
16350,-3.8657,0.3330,0.8683,1070.56,-1202.51,1892.33
16360,-3.8656,0.2725,0.8837,-1366.94,-858.76,-1013.98
16370,-3.8652,0.1429,0.9264,-1116.94,1109.86,579.83
16380,-3.8650,-0.0232,0.9670,-1695.07,-1421.63,-748.23
16390,-3.8647,-0.1785,0.9808,1039.31,-203.19,-576.29
16400,-3.8646,-0.2789,0.9590,1164.31,1562.13,-1982.48
16410,-3.8647,-0.2917,0.9088,304.93,-1234.92,892.46
16420,-3.8652,-0.2312,0.8450,-1335.69,343.14,-232.60
16430,-3.8657,-0.1560,0.7775,-1585.69,171.39,751.65
16440,-3.8665,-0.1121,0.7075,39.31,-469.06,-717.29
16450,-3.8671,-0.1086,0.6476,1664.31,-1422.12,-1639.28
16460,-3.8677,-0.1354,0.6143,-1898.19,-1093.99,-1108.15
16470,-3.8682,-0.1740,0.6024,-1320.07,-1359.68,469.91
16480,-3.8688,-0.2091,0.5963,1742.43,1124.63,-889.47
16490,-3.8693,-0.2444,0.5951,1242.43,343.32,-545.72
16500,-3.8696,-0.2831,0.6052,726.81,187.01,-1873.84
16510,-3.8700,-0.3091,0.6168,-226.32,1483.76,-1842.59
16520,-3.8704,-0.3138,0.6140,445.56,-1031.86,-1998.84
16530,-3.8707,-0.3079,0.5962,-163.82,-1391.30,1188.66
16540,-3.8711,-0.2987,0.5695,601.81,327.51,298.03
16550,-3.8715,-0.2888,0.5349,1773.68,905.64,47.97
16560,-3.8718,-0.2799,0.4991,-960.69,483.76,797.91
16570,-3.8722,-0.2726,0.4661,179.93,-94.30,-1374.08
16580,-3.8724,-0.2679,0.4329,1117.43,-328.67,1032.10
16590,-3.8727,-0.2712,0.4021,1711.18,-578.67,78.92
16600,-3.8729,-0.2921,0.3879,1289.31,-516.17,531.98
16610,-3.8732,-0.3281,0.4030,-1382.57,1671.26,-1749.27
16620,-3.8733,-0.3586,0.4380,-1991.94,-406.92,313.23
16630,-3.8735,-0.3666,0.4635,-1898.19,77.39,1953.98
16640,-3.8738,-0.3521,0.4565,1086.18,-656.98,-342.90
16650,-3.8739,-0.3292,0.4209,-1054.44,-1547.61,-1842.90
16660,-3.8740,-0.3137,0.3735,1867.43,1889.95,1578.92
16670,-3.8741,-0.3016,0.3325,-148.19,-172.55,1828.80
16680,-3.8743,-0.2719,0.3082,1398.68,-1422.49,-1390.01
16690,-3.8744,-0.2212,0.2942,1211.18,-531.80,-374.45
16700,-3.8744,-0.1670,0.2827,-304.44,1671.39,641.17
16710,-3.8745,-0.1208,0.2764,-1366.94,202.76,1688.05
16720,-3.8746,-0.0814,0.2712,539.31,-609.62,-827.64
16730,-3.8746,-0.0470,0.2556,1586.18,-1265.81,1391.11
16740,-3.8746,-0.0146,0.2285,1992.43,734.25,1094.24
16750,-3.8746,0.0280,0.2054,-1866.94,1265.56,-1280.82
16760,-3.8745,0.0889,0.2057,-413.82,-1703.12,1906.62
16770,-3.8744,0.1584,0.2277,-616.94,-1671.75,765.99
16780,-3.8744,0.2296,0.2373,289.31,1140.93,1484.80
16790,-3.8744,0.3070,0.2037,1398.68,-1624.57,875.43
16800,-3.8744,0.3900,0.1362,-695.07,-1921.33,1531.62
16810,-3.8743,0.4734,0.0636,1929.93,1438.23,1015.87
16820,-3.8741,0.5522,0.0105,601.81,141.54,-1656.13
16830,-3.8740,0.6155,-0.0084,-1304.44,1344.79,-500.00
16840,-3.8739,0.6530,-0.0044,-1210.69,-1076.97,-1531.31
16850,-3.8739,0.6691,-0.0011,-413.82,-561.28,1140.56
16860,-3.8741,0.6813,-0.0062,1648.68,-139.34,-78.19
16870,-3.8743,0.7000,-0.0217,-788.82,-795.59,-1281.31
16880,-3.8743,0.7261,-0.0643,1601.81,1220.09,-1921.94
16890,-3.8740,0.7584,-0.1244,945.56,-232.97,640.44
16900,-3.8737,0.7908,-0.1378,1086.18,79.59,359.13
16910,-3.8733,0.8253,-0.0592,1226.81,-1639.10,405.94
16920,-3.8730,0.8634,0.0784,1648.68,423.46,671.75
16930,-3.8729,0.8960,0.1981,-1476.32,-1967.10,750.12
16940,-3.8728,0.9243,0.2365,-1304.44,1361.08,1890.99
16950,-3.8726,0.9630,0.1965,-1679.44,-1732.60,-249.57
16960,-3.8721,1.0297,0.1521,-726.32,1158.08,1219.12
16970,-3.8716,1.1272,0.1661,-195.07,-529.30,468.99
16980,-3.8711,1.2352,0.2303,289.31,1267.82,156.56
16990,-3.8707,1.3259,0.2990,-1882.57,1486.76,-218.32
17000,-3.8702,1.3875,0.3605,1726.81,-1731.81,-546.33
17010,-3.8698,1.4246,0.4395,1601.81,-1856.69,-1593.08
17020,-3.8693,1.4490,0.5315,-1648.19,252.75,32.10
17030,-3.8689,1.4941,0.5710,1476.81,34.06,1235.41
17040,-3.8685,1.5687,0.5194,-741.94,1096.62,-1092.65
17050,-3.8680,1.6116,0.4249,804.93,-1512.57,1625.98
17060,-3.8676,1.5544,0.3809,-1710.69,-1606.26,1282.04
17070,-3.8672,1.3733,0.4468,-1023.19,752.99,-1702.39
17080,-3.8669,1.1096,0.5865,-210.69,1190.12,-1421.02
17090,-3.8667,0.8586,0.7275,-1960.69,-919.74,579.22
17100,-3.8666,0.6785,0.8361,1914.31,1126.65,1985.78
17110,-3.8665,0.5599,0.8998,-1148.19,-983.09,439.09
17120,-3.8666,0.4703,0.9214,-320.07,-827.09,1986.08
17130,-3.8667,0.3779,0.9329,211.18,1938.42,720.52
17140,-3.8669,0.2708,0.9613,383.06,-593.02,-732.60
17150,-3.8671,0.1556,0.9987,-1335.69,-952.64,-1623.17
17160,-3.8672,0.0431,1.0203,-70.07,-171.63,1908.14
17170,-3.8673,-0.0635,1.0183,1523.68,-1406.19,1580.08
17180,-3.8674,-0.1539,0.9922,-116.94,-1640.81,345.70
17190,-3.8677,-0.2109,0.9467,304.93,-984.68,923.77
17200,-3.8680,-0.2395,0.8981,1008.06,1187.07,-1795.04
17210,-3.8684,-0.2635,0.8568,1351.81,-1031.74,751.71
17220,-3.8689,-0.2986,0.8176,-1726.32,1686.95,-1560.85
17230,-3.8693,-0.3376,0.7821,1789.31,671.26,1064.09
17240,-3.8696,-0.3708,0.7543,789.31,124.33,1564.03
17250,-3.8700,-0.3989,0.7191,539.31,561.77,-201.66
17260,-3.8702,-0.4119,0.6613,945.56,61.71,-170.47
17270,-3.8704,-0.3923,0.5771,-710.69,655.40,876.28
17280,-3.8706,-0.3411,0.4900,1789.31,1889.83,1297.97
17290,-3.8710,-0.2808,0.4370,351.81,-1266.30,-92.83
17300,-3.8713,-0.2368,0.4119,70.56,-47.42,-389.83
17310,-3.8717,-0.2184,0.3795,1695.56,733.89,1969.54
17320,-3.8721,-0.2225,0.3274,54.93,593.32,-1593.02
17330,-3.8723,-0.2450,0.2711,-476.32,1921.39,-1671.26
17340,-3.8724,-0.2844,0.2362,648.68,-1281.74,1344.24
17350,-3.8726,-0.3313,0.2428,-398.19,-1750.61,-1937.07
17360,-3.8727,-0.3610,0.2837,1601.81,-906.92,-1499.57
17370,-3.8728,-0.3594,0.3285,1804.93,327.39,1313.05
17380,-3.8730,-0.3412,0.3575,-1991.94,-1938.23,-1936.89
17390,-3.8733,-0.3236,0.3729,336.18,1780.58,1844.42
17400,-3.8735,-0.3132,0.3826,-1413.82,-250.67,-1608.70
17410,-3.8737,-0.3125,0.3860,-85.69,983.70,156.98
17420,-3.8739,-0.3202,0.3799,8.06,1421.26,-1546.14
17430,-3.8740,-0.3309,0.3693,-976.32,639.95,672.61
17440,-3.8743,-0.3400,0.3582,1648.68,-719.42,-1093.08
17450,-3.8744,-0.3436,0.3351,492.43,1858.70,1422.55
17460,-3.8745,-0.3351,0.2899,23.68,-1094.42,1109.99
17470,-3.8746,-0.3070,0.2375,1117.43,1124.33,-468.20
17480,-3.8745,-0.2631,0.2164,711.18,-1578.74,266.05
17490,-3.8745,-0.2101,0.2434,-1663.82,-281.80,1031.62
17500,-3.8745,-0.1444,0.2960,1117.43,-828.55,641.05
17510,-3.8745,-0.0715,0.3488,1523.68,1905.94,641.17
17520,-3.8745,-0.0127,0.3718,-1148.19,656.07,-1530.58
17530,-3.8744,0.0310,0.3245,-1616.94,-390.69,1688.17
17540,-3.8743,0.0825,0.2113,-23.19,1531.25,-936.89
17550,-3.8740,0.1532,0.0945,-1429.44,-953.00,-1890.26
17560,-3.8739,0.2449,0.0221,-382.57,93.99,-749.82
17570,-3.8738,0.3577,-0.0082,-648.19,-1171.45,312.50
17580,-3.8739,0.4763,-0.0267,1789.31,-1046.20,-578.19
17590,-3.8738,0.5837,-0.0540,976.81,579.04,234.31
17600,-3.8737,0.6761,-0.0704,-1273.19,1094.85,828.00
17610,-3.8734,0.7513,-0.0281,-1445.07,-1014.34,1171.69
17620,-3.8732,0.8223,0.0820,179.93,407.71,-500.06
17630,-3.8728,0.9269,0.1937,1258.06,-1498.41,1172.00
17640,-3.8726,1.0769,0.2201,-1351.32,798.65,-1577.76
17650,-3.8722,1.2267,0.1532,1851.81,173.95,-1655.82
17660,-3.8717,1.3184,0.0841,1023.68,-388.24,609.62
17670,-3.8713,1.3422,0.0859,758.06,-1231.81,1312.62
17680,-3.8711,1.3204,0.1486,-195.07,-997.44,1984.50
17690,-3.8710,1.2737,0.2368,1023.68,-981.81,1750.24
17700,-3.8710,1.2272,0.3134,-960.69,-1685.06,859.80
17710,-3.8711,1.2002,0.3375,1086.18,111.76,1984.99
17720,-3.8711,1.1907,0.3097,1633.06,-794.56,1844.36
17730,-3.8708,1.1970,0.2745,414.31,-357.06,469.30
17740,-3.8705,1.2264,0.2625,1226.81,-857.06,828.61
17750,-3.8701,1.2821,0.2670,992.43,1596.13,-1702.64
17760,-3.8698,1.3468,0.2832,117.43,-1825.62,-812.01
17770,-3.8693,1.3688,0.3119,398.68,252.62,609.92
17780,-3.8689,1.3203,0.3405,-788.82,-75.50,-561.95
17790,-3.8683,1.2358,0.3722,1008.06,-419.31,1172.49
17800,-3.8677,1.1605,0.4187,-1804.44,-356.99,1969.42
17810,-3.8671,1.1226,0.4590,554.93,1596.01,1141.42
17820,-3.8667,1.1180,0.4778,-304.44,-1247.86,1703.98
17830,-3.8665,1.1013,0.5004,-882.57,1158.39,329.04
17840,-3.8665,1.0183,0.5583,976.81,49.01,-14.65
17850,-3.8663,0.8624,0.6453,-1648.19,-529.30,1719.79
17860,-3.8663,0.6606,0.7338,-1601.32,-1404.60,1813.72
17870,-3.8663,0.4373,0.8226,570.56,1923.16,1610.78
17880,-3.8663,0.2283,0.9021,-23.19,1297.67,1501.59
17890,-3.8663,0.0720,0.9463,1226.81,-530.82,298.58
17900,-3.8665,-0.0134,0.9473,1226.81,1125.12,126.83
17910,-3.8667,-0.0432,0.9198,-1710.69,1265.56,1.83
17920,-3.8671,-0.0499,0.8928,-1523.19,1749.88,564.27
17930,-3.8676,-0.0547,0.8783,1617.43,-1703.25,-638.92
17940,-3.8679,-0.0659,0.8696,1008.06,437.38,1782.96
17950,-3.8683,-0.1101,0.8726,-429.44,-672.06,486.02
17960,-3.8688,-0.2677,0.9130,1914.31,-297.12,-576.48
17970,-3.8691,-0.5846,1.0065,1742.43,874.45,-1529.48
17980,-3.8695,-0.9496,1.1150,1179.93,842.59,751.95
17990,-3.8700,-1.1498,1.1594,-1538.82,-1267.52,908.39
18000,-3.8706,-1.1211,1.0962,836.18,419.62,-638.37
18010,-3.8711,-0.9315,0.9646,508.06,325.93,-779.11
18020,-3.8715,-0.6636,0.8217,773.68,-517.46,-1466.92
18030,-3.8718,-0.4438,0.6993,-929.44,1186.16,-185.91
18040,-3.8721,-0.3160,0.6133,-804.44,1530.33,1954.47
18050,-3.8723,-0.2351,0.5472,-445.07,-1485.05,1876.16
18060,-3.8724,-0.1913,0.4911,1914.31,-1937.99,891.66
18070,-3.8726,-0.1902,0.4596,-476.32,-1125.43,-1483.46
18080,-3.8727,-0.2096,0.4539,-335.69,-1156.68,-405.40
18090,-3.8728,-0.2258,0.4521,1179.93,-1891.05,-1842.90
18100,-3.8730,-0.2310,0.4359,-898.19,1890.14,-874.15
18110,-3.8733,-0.2235,0.4054,-1554.44,-187.99,-139.83
18120,-3.8734,-0.2131,0.3682,-601.32,-94.24,610.11
18130,-3.8737,-0.2135,0.3300,726.81,-859.80,547.55
18140,-3.8740,-0.2220,0.2911,679.93,-1750.43,-280.64
18150,-3.8743,-0.2411,0.2432,-413.82,1280.76,-30.70
18160,-3.8744,-0.2706,0.1891,1148.68,-859.86,-1374.57
18170,-3.8745,-0.2915,0.1453,1367.43,218.20,-437.13
18180,-3.8745,-0.2872,0.1292,-1304.44,-1391.24,-1984.13
18190,-3.8745,-0.2615,0.1445,-757.57,546.26,578.37
18200,-3.8746,-0.2260,0.1726,-1460.69,-1484.92,-1749.76
18210,-3.8748,-0.1831,0.1854,-913.82,-1891.11,-671.57
18220,-3.8748,-0.1338,0.1619,570.56,-250.37,234.68
18230,-3.8749,-0.0898,0.1100,-1116.94,734.07,1140.93
18240,-3.8750,-0.0632,0.0544,508.06,-1906.43,-1218.57
18250,-3.8750,-0.0472,0.0155,-85.69,-1015.81,-1578.06
18260,-3.8749,-0.0258,0.0039,1961.18,1999.88,328.12
18270,-3.8749,0.0074,0.0153,711.18,515.56,-687.50
18280,-3.8748,0.0450,0.0419,961.18,1953.12,-1296.88
18290,-3.8746,0.0802,0.0737,1773.68,1359.44,-1781.19
18300,-3.8745,0.1128,0.0853,-1726.32,1437.62,1406.37
18310,-3.8744,0.1410,0.0576,-1554.44,-1077.94,734.50
18320,-3.8743,0.1636,0.0093,-1945.07,-624.76,1203.19
18330,-3.8741,0.1884,-0.0183,945.56,1187.81,-968.75
18340,-3.8739,0.2234,-0.0082,117.43,1656.62,1203.06
18350,-3.8738,0.2643,0.0203,601.81,-1046.45,-625.06
18360,-3.8735,0.2972,0.0521,1836.18,-1405.76,-1234.38
18370,-3.8732,0.3097,0.0947,-1945.07,-1327.58,437.56
18380,-3.8728,0.3182,0.1735,-351.32,125.55,500.18
18390,-3.8724,0.3297,0.3141,742.43,-1796.26,-1952.82
18400,-3.8719,0.3083,0.4707,-1788.82,203.74,969.36
18410,-3.8715,0.2455,0.5371,-523.19,250.55,-1967.83
18420,-3.8710,0.1908,0.4812,-570.07,750.43,-295.84
18430,-3.8705,0.1984,0.3408,429.93,1594.12,1094.67
18440,-3.8704,0.2749,0.1528,1398.68,-374.63,1391.24
18450,-3.8705,0.3992,-0.0267,-804.44,-437.01,1656.49
18460,-3.8707,0.5387,-0.1243,-898.19,578.86,-937.56
18470,-3.8708,0.6631,-0.1099,961.18,94.79,702.88
18480,-3.8711,0.7600,-0.0402,883.06,1938.78,-547.12
18490,-3.8712,0.8190,0.0043,1289.31,-1139.16,-734.50
18500,-3.8713,0.8218,0.0177,836.18,548.46,-93.75
18510,-3.8713,0.7704,0.0514,1195.56,-1732.79,1328.12
18520,-3.8715,0.6840,0.1146,-1382.57,-1420.41,-984.31
18530,-3.8715,0.5870,0.1779,-445.07,-1326.84,1968.93
18540,-3.8713,0.5104,0.2430,-851.32,-1233.28,625.31
18550,-3.8712,0.4700,0.3352,1336.18,-889.65,-905.82
18560,-3.8710,0.4569,0.4399,164.31,-1092.83,-1265.01
18570,-3.8707,0.4514,0.5077,-1507.57,313.35,-1827.27
18580,-3.8705,0.4366,0.5160,1789.31,985.23,-1280.27
18590,-3.8701,0.4177,0.4904,-101.32,-1952.33,-1811.52
18600,-3.8696,0.4246,0.4769,1476.81,-1233.58,844.67
18610,-3.8691,0.4801,0.4995,-1648.19,1047.67,1360.29
18620,-3.8687,0.5709,0.5458,1461.18,-61.58,1094.67
18630,-3.8683,0.6638,0.5746,1086.18,1860.47,-1123.96
18640,-3.8679,0.7365,0.5491,976.81,1548.16,-998.90
18650,-3.8676,0.7849,0.4895,-1726.32,-1717.35,1766.66
18660,-3.8673,0.8135,0.4646,476.81,-1342.22,-1045.96
18670,-3.8671,0.8152,0.5099,133.06,-529.66,1860.23
18680,-3.8669,0.7864,0.5951,351.81,1267.21,-545.90
18690,-3.8667,0.7405,0.6814,664.31,173.40,719.91
18700,-3.8666,0.6801,0.7507,-1210.69,-779.85,876.28
18710,-3.8666,0.5842,0.8021,-945.07,95.03,-1436.04
18720,-3.8666,0.4404,0.8541,-1210.69,-1327.03,1345.28
18730,-3.8667,0.2728,0.9176,383.06,1328.98,1361.02
18740,-3.8669,0.1229,0.9763,-1070.07,1453.61,-920.10
18750,-3.8671,0.0095,1.0095,-257.57,968.93,330.02
18760,-3.8673,-0.0553,1.0148,1226.81,1218.75,-1419.92
18770,-3.8674,-0.0680,1.0103,929.93,1906.13,1220.70
18780,-3.8677,-0.0562,1.0060,-695.07,1327.94,-1138.67
18790,-3.8679,-0.0463,0.9828,820.56,781.13,-201.17
18800,-3.8680,-0.0500,0.9338,-1913.82,1812.38,-1888.73
18810,-3.8682,-0.0651,0.8754,1601.81,-453.25,1923.65
18820,-3.8683,-0.0688,0.8147,-320.07,62.32,1126.71
18830,-3.8685,-0.0490,0.7559,-804.44,296.69,-1029.66
18840,-3.8688,-0.0122,0.7007,1742.43,765.50,-170.41
18850,-3.8690,0.0360,0.6411,-1554.44,1703.06,-592.41
18860,-3.8693,0.0968,0.5748,617.43,-1937.44,-1920.65
18870,-3.8695,0.1615,0.5133,398.68,1578.31,376.10
18880,-3.8699,0.2037,0.4688,679.93,1703.43,-1264.65
18890,-3.8701,0.2111,0.4381,-1913.82,0.37,1532.17
18900,-3.8704,0.1924,0.4158,-976.32,78.49,1016.48
18910,-3.8706,0.1527,0.4032,633.06,1219.12,1703.92
18920,-3.8708,0.0967,0.4017,-445.07,-390.38,-514.89
18930,-3.8710,0.0333,0.4110,383.06,-577.94,1735.11
18940,-3.8712,-0.0278,0.4270,273.68,609.44,-467.96
18950,-3.8715,-0.0770,0.4373,445.56,-1328.19,-108.58
18960,-3.8717,-0.1155,0.4324,-1851.32,-15.81,-1296.08
18970,-3.8719,-0.1493,0.4152,1226.81,-640.87,938.29
18980,-3.8723,-0.1755,0.3936,898.68,1155.94,-124.21
18990,-3.8724,-0.1897,0.3684,1539.31,-1609.74,16.36
19000,-3.8727,-0.1898,0.3384,-273.19,-828.55,922.55
19010,-3.8729,-0.1769,0.3052,-288.82,-672.30,1719.36
19020,-3.8732,-0.1584,0.2719,1367.43,-922.24,-1858.83
19030,-3.8734,-0.1399,0.2434,-273.19,-1187.87,-1140.14
19040,-3.8735,-0.1228,0.2201,-1898.19,-828.43,375.43
19050,-3.8738,-0.1100,0.2028,289.31,187.26,-1265.20
19060,-3.8739,-0.1071,0.1965,1929.93,1968.51,1922.24
19070,-3.8740,-0.1141,0.1995,-1695.07,1171.63,1656.62
19080,-3.8741,-0.1158,0.1998,1398.68,1546.63,1906.62
19090,-3.8743,-0.0997,0.1890,1179.93,1593.51,-1202.76
19100,-3.8743,-0.0671,0.1682,-757.57,202.88,47.24
19110,-3.8744,-0.0250,0.1403,-585.69,1546.69,1219.06
19120,-3.8745,0.0168,0.1035,804.93,1968.69,-1702.88
19130,-3.8746,0.0469,0.0581,-1835.69,1250.00,-343.57
19140,-3.8746,0.0519,0.0208,-1991.94,-562.44,1921.94
19150,-3.8746,0.0256,0.0192,-1351.32,-1343.69,1984.38
19160,-3.8746,-0.0105,0.0541,-710.69,-1546.88,-203.12
19170,-3.8745,-0.0194,0.0975,-1335.69,-1062.56,-843.69
19180,-3.8743,0.0137,0.1375,1523.68,499.94,718.93
19190,-3.8740,0.0703,0.1735,1758.06,1593.75,500.24
19200,-3.8738,0.1329,0.1831,1008.06,-1796.75,1109.68
19210,-3.8735,0.2028,0.1431,1023.68,-562.26,469.06
19220,-3.8734,0.2797,0.0635,1961.18,-1687.13,1453.37
19230,-3.8734,0.3579,-0.0216,-195.07,125.49,-749.88
19240,-3.8734,0.4431,-0.0881,1820.56,1235.05,-1890.69
19250,-3.8735,0.5464,-0.1335,726.81,719.60,-593.93
19260,-3.8737,0.6613,-0.1584,1945.56,-1092.71,-15.93
19270,-3.8737,0.7606,-0.1620,648.68,-279.97,312.13
19280,-3.8738,0.8112,-0.1523,1367.43,-732.91,1984.01
19290,-3.8738,0.7949,-0.1390,-163.82,501.53,-422.18
19300,-3.8735,0.7272,-0.1213,1758.06,-1795.35,1827.82
19310,-3.8733,0.6464,-0.0953,1086.18,470.15,1812.26
19320,-3.8732,0.5912,-0.0635,-1257.57,-201.90,-93.99
19330,-3.8730,0.5967,-0.0455,-320.07,-123.90,-203.31
19340,-3.8728,0.6675,-0.0562,383.06,-1826.97,718.63
19350,-3.8726,0.7625,-0.0613,1445.56,813.78,515.50
19360,-3.8724,0.8459,-0.0311,1601.81,157.71,-187.62
19370,-3.8723,0.9132,0.0072,289.31,17.27,-421.94
19380,-3.8722,0.9622,0.0356,898.68,923.65,1515.62
19390,-3.8721,0.9805,0.0594,-835.69,564.33,578.19
19400,-3.8719,0.9664,0.0759,1508.06,-388.73,-1765.56
19410,-3.8717,0.9463,0.0920,-288.82,1720.58,-1421.75
19420,-3.8713,0.9480,0.1372,1133.06,-216.92,-1781.13
19430,-3.8708,0.9746,0.2257,1351.81,1564.33,312.74
19440,-3.8705,1.0173,0.3120,758.06,892.52,1328.55
19450,-3.8702,1.0631,0.3284,-1773.19,-60.55,-1077.58
19460,-3.8700,1.1007,0.2825,86.18,-1966.67,-1905.64
19470,-3.8698,1.1239,0.2423,898.68,158.39,1797.42
19480,-3.8695,1.1355,0.2466,-132.57,-982.24,-905.82
19490,-3.8691,1.1591,0.2888,1351.81,-435.30,1641.05
19500,-3.8688,1.2094,0.3489,367.43,971.01,813.05
19510,-3.8684,1.2665,0.4060,-1195.07,658.57,906.92
19520,-3.8680,1.3047,0.4430,-1882.57,-28.81,-343.02
19530,-3.8676,1.2990,0.4680,-991.94,705.63,-561.65
19540,-3.8671,1.2377,0.5151,-1726.32,-91.25,-1030.40
19550,-3.8666,1.1525,0.5876,-1570.07,1939.88,125.98
19560,-3.8665,1.1085,0.6139,-476.32,-779.05,-436.40
19570,-3.8663,1.1661,0.5333,1898.68,-1419.74,-780.09
19580,-3.8662,1.2944,0.4169,1273.68,267.88,1329.16
19590,-3.8662,1.3794,0.3848,1695.56,1361.88,-1389.83
19600,-3.8661,1.3429,0.4644,570.56,1252.69,688.23
19610,-3.8660,1.1843,0.5939,-101.32,-559.94,297.73
19620,-3.8658,0.9504,0.7010,-398.19,17.88,688.66
19630,-3.8658,0.7059,0.7605,1664.31,1736.21,-123.66
19640,-3.8658,0.5131,0.7726,-1632.57,1345.09,-1326.66
19650,-3.8660,0.4008,0.7476,1679.93,-1108.40,782.71
19660,-3.8662,0.3495,0.7170,-695.07,-311.77,110.78
19670,-3.8666,0.3132,0.6991,742.43,-218.08,1470.09
19680,-3.8669,0.2584,0.6769,101.81,1484.99,438.84
19690,-3.8674,0.1803,0.6472,1086.18,-1358.89,1438.78
19700,-3.8679,0.0803,0.6361,-913.82,-1155.94,766.85
19710,-3.8685,-0.0322,0.6465,-1710.69,1422.00,-1701.90
19720,-3.8691,-0.1423,0.6565,-116.94,-1234.50,-342.53
19730,-3.8696,-0.2449,0.6462,1789.31,46.57,-1404.97
19740,-3.8701,-0.3273,0.6100,664.31,-1266.11,-514.40
19750,-3.8705,-0.3685,0.5599,-1882.57,-1906.92,1954.28
19760,-3.8708,-0.3623,0.5071,836.18,-313.23,1297.91
19770,-3.8712,-0.3214,0.4620,1633.06,921.14,1204.10
19780,-3.8716,-0.2703,0.4374,-1132.57,-844.42,-1967.90
19790,-3.8719,-0.2427,0.4299,1414.31,-0.55,-233.58
19800,-3.8722,-0.2566,0.4216,945.56,-953.61,1203.92
19810,-3.8726,-0.2954,0.3965,-835.69,1983.83,1969.54
19820,-3.8729,-0.3336,0.3492,-1804.44,-1234.99,-1343.02
19830,-3.8732,-0.3546,0.2965,1304.93,718.08,281.92
19840,-3.8735,-0.3518,0.2557,-1382.57,1968.02,-983.83
19850,-3.8738,-0.3326,0.2225,-1023.19,749.27,-1437.01
19860,-3.8740,-0.2985,0.1949,1429.93,499.33,-265.20
19870,-3.8741,-0.2454,0.1782,1804.93,968.14,-1093.38
19880,-3.8743,-0.1964,0.1713,601.81,-1172.36,-812.19
19890,-3.8744,-0.1711,0.1655,-1132.57,1937.07,-1484.07
19900,-3.8745,-0.1561,0.1451,-1898.19,1202.76,78.43
19910,-3.8748,-0.1475,0.1047,23.68,-1406.56,1531.49
19920,-3.8749,-0.1561,0.0497,1133.06,1421.57,172.06
19930,-3.8750,-0.1770,-0.0192,23.68,-1625.31,46.94
19940,-3.8439,-0.1947,-0.0939,1351.81,1562.13,1171.81
19950,-3.8440,-0.1930,-0.1556,-913.82,-0.43,-47.12
19960,-3.8439,-0.1531,-0.1816,-695.07,93.32,-1828.43
19970,-3.8749,-0.0616,-0.1615,414.31,765.32,780.88
19980,-3.8746,0.0693,-0.1179,117.43,-656.37,1734.01
19990,-3.8744,0.2008,-0.0808,883.06,906.37,-812.74
20000,-3.8740,0.3054,-0.0507,1711.18,1656.62,1062.32
20010,-3.8738,0.3770,-0.0146,-898.19,1516.17,-1000.12
20020,-3.8735,0.4138,0.0120,258.06,-1874.27,-281.31
20030,-3.8733,0.4257,0.0078,976.81,1532.04,812.50
20040,-3.8733,0.4269,-0.0168,-1507.57,1000.79,1593.75
20050,-3.8734,0.4126,-0.0447,-1351.32,1844.54,-125.06
20060,-3.8734,0.3792,-0.0576,820.56,-1717.96,1796.75
20070,-3.8734,0.3469,-0.0347,539.31,625.73,921.75
20080,-3.8734,0.3341,0.0173,414.31,-436.83,1265.50
20090,-3.8734,0.3463,0.0651,-1226.32,-1780.64,-1906.25
20100,-3.8734,0.3889,0.0815,336.18,328.80,-187.38
20110,-3.8732,0.4581,0.0673,1789.31,-1561.77,1125.12
20120,-3.8729,0.5436,0.0613,-1351.32,610.23,-1781.13
20130,-3.8727,0.6338,0.0952,1586.18,-155.21,-1249.94
20140,-3.8726,0.7029,0.1472,1133.06,188.72,-1234.19
20150,-3.8726,0.7087,0.1577,1976.81,-1154.91,922.12
20160,-3.8728,0.6432,0.0817,-1273.19,188.84,-15.32
20170,-3.8728,0.5654,-0.0544,-1663.82,-1545.65,-1281.13
20180,-3.8726,0.5491,-0.1719,383.06,1032.35,1453.00
20190,-3.8722,0.6248,-0.1904,-1710.69,-1998.96,1452.76
20200,-3.8718,0.7778,-0.0809,-23.19,-373.84,812.07
20210,-3.8717,0.9556,0.0894,-429.44,1642.09,-31.43
20220,-3.8716,1.0881,0.2236,-1679.44,-560.67,-140.50
20230,-3.8715,1.1256,0.2791,-710.69,627.08,-1624.57
20240,-3.8715,1.0635,0.2550,86.18,-279.05,-1374.51
20250,-3.8716,0.9371,0.1703,133.06,642.70,-265.14
20260,-3.8716,0.7965,0.0682,-38.82,1798.65,156.56
20270,-3.8717,0.6792,0.0037,1961.18,735.90,-1718.63
20280,-3.8717,0.6063,0.0168,-1054.44,470.03,-1359.38
20290,-3.8716,0.5815,0.1207,1617.43,-1842.59,-546.88
20300,-3.8712,0.5804,0.2799,-1554.44,-545.78,-531.07
20310,-3.8706,0.5847,0.4269,-1695.07,-170.78,-1515.14
20320,-3.8699,0.6031,0.5148,-1148.19,-1358.28,407.04
20330,-3.8693,0.6331,0.5435,1211.18,1891.78,1344.73
20340,-3.8688,0.6520,0.5438,1039.31,1563.72,-61.46
20350,-3.8682,0.6373,0.5509,-538.82,1610.60,1704.16
20360,-3.8677,0.5626,0.5996,1586.18,-1483.15,-608.34
20370,-3.8671,0.4266,0.6934,23.68,751.10,438.66
20380,-3.8666,0.2941,0.7935,-1382.57,750.79,-1889.28
20390,-3.8661,0.2419,0.8568,1648.68,1563.05,-1389.10
20400,-3.8657,0.2694,0.8524,-1023.19,1672.30,1189.15
20410,-3.8656,0.3104,0.7847,-1507.57,1109.86,1064.15
20420,-3.8656,0.3162,0.6952,-257.57,438.05,1985.90
20430,-3.8655,0.2856,0.6238,476.81,984.99,376.34
20440,-3.8654,0.2395,0.5759,570.56,-155.70,-1295.72
20450,-3.8651,0.1880,0.5457,-1335.69,1719.18,-1170.78
20460,-3.8650,0.1443,0.5310,70.56,1844.12,-561.46
20470,-3.8650,0.1324,0.5134,-1523.19,-31.01,938.48
20480,-3.8652,0.1379,0.4750,961.18,1718.99,125.98
20490,-3.8656,0.1014,0.4292,1664.31,797.12,1094.67
20500,-3.8660,-0.0050,0.4146,992.43,-1062.32,-717.96
20510,-3.8662,-0.1510,0.4568,-632.57,1078.06,-686.71
20520,-3.8665,-0.2854,0.5385,679.93,-1515.93,-1327.27
20530,-3.8668,-0.3700,0.6083,-523.19,936.89,-1373.96
20540,-3.8673,-0.3989,0.6260,648.68,1874.27,-326.97
20550,-3.8678,-0.3799,0.5945,945.56,139.83,-733.15
20560,-3.8683,-0.3247,0.5364,-616.94,108.58,-1951.97
20570,-3.8688,-0.2548,0.4668,-1554.44,671.20,938.54
20580,-3.8693,-0.2010,0.4012,-601.32,-234.92,1344.60
20590,-3.8696,-0.1849,0.3616,-1726.32,-625.43,110.11
20600,-3.8700,-0.2009,0.3647,336.18,-1703.49,406.92
20610,-3.8704,-0.2288,0.4103,-1710.69,-1297.30,906.92
20620,-3.8707,-0.2568,0.4814,-1273.19,530.76,563.29
20630,-3.8712,-0.2882,0.5591,-866.94,1640.08,-530.33
20640,-3.8716,-0.3309,0.6257,-882.57,-422.49,-1577.09
20650,-3.8719,-0.3945,0.6621,1648.68,108.70,985.60
20660,-3.8724,-0.4756,0.6544,1508.06,764.83,-1139.34
20670,-3.8728,-0.5525,0.6044,-866.94,-219.73,938.72
20680,-3.8733,-0.6031,0.5282,1289.31,1373.90,-108.22
20690,-3.8737,-0.6086,0.4500,-1195.07,-376.22,-92.77
20700,-3.8739,-0.5602,0.3868,-1898.19,1608.15,1657.10
20710,-3.8741,-0.4965,0.3457,304.93,1530.15,1766.36
20720,-3.8743,-0.4393,0.3330,461.18,264.65,344.42
20730,-3.8744,-0.3721,0.3423,-226.32,-1360.29,1313.11
20740,-3.8745,-0.3065,0.3500,383.06,-172.61,-1421.26
20750,-3.8746,-0.2593,0.3396,773.68,811.89,-1202.45
20760,-3.8748,-0.2225,0.3176,-1179.44,-516.17,-968.14
20770,-3.8748,-0.1877,0.2970,-476.32,671.39,172.49
20780,-3.8749,-0.1667,0.2751,-23.19,-1969.18,-1890.08
20790,-3.8749,-0.1632,0.2415,-1335.69,-765.99,406.74
20800,-3.8750,-0.1608,0.1940,-882.57,-1078.49,-968.32
20810,-3.8750,-0.1377,0.1399,-570.07,843.38,1844.12
20820,-3.8750,-0.0901,0.0873,-1616.94,1921.57,922.12
20830,-3.8750,-0.0262,0.0417,476.81,-812.68,234.50
20840,-3.8439,0.0444,0.0081,648.68,1359.31,-531.19
20850,-3.8439,0.1073,-0.0107,1695.56,1031.31,-1000.00
20860,-3.8439,0.1534,-0.0168,1742.43,-1374.82,-640.69
20870,-3.8750,0.1829,-0.0168,-351.32,1843.99,249.94
20880,-3.8750,0.1914,-0.0226,-585.69,1844.06,1234.31
20890,-3.8750,0.1780,-0.0353,508.06,1109.74,-921.94
20900,-3.8749,0.1604,-0.0446,-1210.69,-515.32,-1922.00
20910,-3.8748,0.1667,-0.0508,539.31,-1702.82,1406.13
20920,-3.8746,0.2139,-0.0615,1351.81,1500.31,1468.63
20930,-3.8745,0.2928,-0.0719,-616.94,125.37,-765.75
20940,-3.8741,0.3749,-0.0520,1492.43,-1202.58,171.69
20950,-3.8738,0.4558,0.0295,-7.57,1344.42,843.63
20960,-3.8734,0.5480,0.1522,-1648.19,-217.90,1296.88
20970,-3.8732,0.6381,0.2485,-1851.32,-514.59,-968.51
20980,-3.8728,0.7062,0.2694,1679.93,-186.28,609.80
20990,-3.8724,0.7560,0.2336,-1601.32,-1514.28,734.86
21000,-3.8721,0.8090,0.2109,773.68,1907.71,-1640.20
21010,-3.8717,0.8722,0.2548,-445.07,-998.47,1328.49
21020,-3.8716,0.9227,0.3496,-351.32,611.02,-937.01
21030,-3.8715,0.9319,0.4310,-1882.57,751.77,922.55
21040,-3.8715,0.9271,0.4460,-710.69,-826.35,-1358.58
21050,-3.8712,0.9666,0.4031,-1320.07,1095.52,1782.10
21060,-3.8707,1.0587,0.3771,-273.19,-404.42,1922.61
21070,-3.8701,1.1696,0.4276,-476.32,267.64,719.48
21080,-3.8698,1.2615,0.5358,1711.18,-1263.37,985.17
21090,-3.8696,1.2953,0.6101,1476.81,580.57,235.41
21100,-3.8698,1.2456,0.5873,1804.93,-1903.75,391.78
21110,-3.8700,1.1345,0.4968,-554.44,-825.74,-998.90
21120,-3.8700,1.0237,0.3977,1226.81,-404.05,1282.17
21130,-3.8699,0.9717,0.3474,-960.69,-1091.80,1547.61
21140,-3.8696,0.9996,0.3633,383.06,470.64,-874.33
21150,-3.8693,1.0905,0.4036,-38.82,-1498.11,1297.55
21160,-3.8690,1.2029,0.4171,-413.82,-341.67,813.23
21170,-3.8689,1.3074,0.3994,1976.81,1392.94,-1999.21
21180,-3.8688,1.3917,0.3715,-648.19,-872.50,-1952.39
21190,-3.8687,1.4553,0.3550,-1851.32,-450.44,-1343.08
21200,-3.8684,1.5021,0.3650,-1710.69,1440.31,141.30
21210,-3.8683,1.5208,0.3873,273.68,-1278.32,688.17
21220,-3.8683,1.5063,0.4034,-1335.69,1581.05,-718.02
21230,-3.8682,1.4691,0.4250,820.56,-356.45,94.48
21240,-3.8682,1.4086,0.4979,54.93,-1590.88,532.04
21250,-3.8682,1.3181,0.6626,304.93,-262.88,-1874.08
21260,-3.8680,1.2056,0.8824,726.81,815.06,1251.28
21270,-3.8679,1.0876,1.0861,-1679.44,955.44,-1810.79
21280,-3.8677,0.9674,1.2540,-773.19,-982.30,48.95
21290,-3.8676,0.8157,1.3788,-163.82,517.46,471.19
21300,-3.8676,0.6143,1.4414,414.31,485.96,377.69
21310,-3.8677,0.3729,1.4513,-1366.94,501.16,205.93
21320,-3.8678,0.0936,1.4519,-257.57,1766.30,924.68
21330,-3.8678,-0.1886,1.4874,-7.57,1843.87,1830.93
21340,-3.8677,-0.3978,1.5576,-132.57,-1594.18,987.24
21350,-3.8676,-0.4901,1.5992,1086.18,-610.17,581.12
21360,-3.8676,-0.4458,1.5602,1273.68,717.77,-262.51
21370,-3.8676,-0.3008,1.4540,-1054.44,-282.17,1252.99
21380,-3.8679,-0.1570,1.2905,1508.06,-1875.61,1237.18
21390,-3.8685,-0.0905,1.0955,-85.69,1202.76,-544.37
21400,-3.8690,-0.1201,0.9388,429.93,234.19,-1325.99
21410,-3.8695,-0.2129,0.8649,633.06,187.26,-29.42
21420,-3.8699,-0.3083,0.8591,758.06,-1281.68,1439.15
21430,-3.8704,-0.3838,0.8685,539.31,1983.76,-60.85
21440,-3.8706,-0.4402,0.8661,-1116.94,-813.29,1939.15
21450,-3.8708,-0.4594,0.8569,-335.69,-1125.92,-857.73
21460,-3.8710,-0.4650,0.8390,1211.18,1702.21,345.40
21470,-3.8713,-0.4807,0.8112,492.43,-594.67,-998.41
21480,-3.8717,-0.5031,0.7716,-1523.19,-157.23,-1232.85
21490,-3.8721,-0.5315,0.7109,-382.57,-1219.79,1235.84
21500,-3.8724,-0.5431,0.6315,-23.19,-985.47,79.47
21510,-3.8728,-0.5337,0.5580,-1507.57,842.65,938.72
21520,-3.8730,-0.5125,0.5144,-304.44,-563.60,422.91
21530,-3.8733,-0.4856,0.4978,-1585.69,1858.34,1407.23
21540,-3.8735,-0.4561,0.4893,1851.81,-266.60,-1108.46
21550,-3.8737,-0.4264,0.4734,1633.06,-1360.29,1250.92
21560,-3.8738,-0.4028,0.4476,1429.93,608.52,188.42
21570,-3.8740,-0.3838,0.4171,445.56,1311.71,-1186.65
21580,-3.8741,-0.3625,0.3875,-1116.94,1405.46,953.92
21590,-3.8744,-0.3385,0.3573,1601.81,1608.64,-1561.77
21600,-3.8746,-0.3065,0.3212,679.93,1749.33,-530.58
21610,-3.8748,-0.2437,0.2870,773.68,1124.39,359.99
21620,-3.8439,-0.1547,0.2643,820.56,749.51,-780.70
21630,-3.8442,-0.0778,0.2332,211.18,1843.44,-608.89
21640,-3.8445,-0.0283,0.1675,-1945.07,1859.19,141.05
21650,-3.8447,0.0062,0.0829,383.06,1453.06,844.06
21660,-3.8448,0.0364,0.0067,804.93,-1390.62,-1703.00
21670,-3.8448,0.0640,-0.0425,664.31,859.44,-1218.75
21680,-3.8447,0.0951,-0.0448,195.56,-1437.38,-1937.62
21690,-3.8445,0.1556,0.0045,179.93,-1734.19,453.00
21700,-3.8442,0.2543,0.0839,-70.07,578.37,734.38
21710,-3.8440,0.3636,0.1473,554.93,-1265.14,1125.12
21720,-3.8439,0.4391,0.1444,-1445.07,-1139.95,-1046.63
21730,-3.8750,0.4565,0.0596,211.18,-1514.77,-1812.26
21740,-3.8749,0.4441,-0.0526,-1554.44,-374.15,1890.69
21750,-3.8748,0.4360,-0.1123,851.81,1266.48,-547.00
21760,-3.8745,0.4600,-0.0933,-179.44,1625.79,765.38
21770,-3.8744,0.5354,-0.0333,-1116.94,63.35,499.82
21780,-3.8743,0.6506,0.0227,539.31,-264.59,984.25
21790,-3.8741,0.7708,0.0667,-710.69,-1092.53,-125.00
21800,-3.8738,0.8596,0.1124,-1335.69,532.71,0.12
21810,-3.8737,0.8801,0.1567,-1960.69,-1607.73,-749.82
21820,-3.8734,0.8054,0.1809,664.31,64.21,719.06
21830,-3.8733,0.6689,0.1776,-898.19,-842.22,1672.18
21840,-3.8732,0.5631,0.1511,1633.06,-1264.34,-796.57
21850,-3.8729,0.5554,0.1163,86.18,-655.15,1500.24
21860,-3.8727,0.6343,0.0942,-898.19,-1108.34,1578.31
21870,-3.8724,0.7466,0.0962,1195.56,63.72,-906.07
21880,-3.8722,0.8470,0.1169,-429.44,313.90,-468.57
21890,-3.8719,0.9258,0.1525,429.93,-1029.60,-1577.94
21900,-3.8717,0.9824,0.2021,-1491.94,-482.60,578.37
21910,-3.8716,1.0052,0.2494,1758.06,1876.89,-249.63
21920,-3.8712,0.9865,0.2639,679.93,-76.17,1547.30
21930,-3.8710,0.9521,0.2511,-1726.32,1783.14,-343.26
21940,-3.8707,0.9468,0.2511,1883.06,142.46,-1187.01
21950,-3.8706,0.9885,0.2764,1195.56,142.46,1375.49
21960,-3.8706,1.0747,0.3104,-1460.69,-623.11,969.24
21970,-3.8706,1.1879,0.3433,1570.56,-263.55,1484.92
21980,-3.8705,1.2903,0.3867,54.93,-60.18,1344.36
21990,-3.8704,1.3423,0.4414,1164.31,1502.50,-77.39
22000,-3.8701,1.3180,0.4812,-179.44,502.56,-1561.65
22010,-3.8700,1.2250,0.4845,711.18,1596.31,-155.33
22020,-3.8698,1.1178,0.4686,804.93,-1981.99,-1530.33
22030,-3.8694,1.0515,0.4825,-913.82,-13.49,1250.85
22040,-3.8690,1.0509,0.5430,-1398.19,1767.64,-1014.71
22050,-3.8687,1.1249,0.6229,-1476.32,1502.01,-592.71
22060,-3.8683,1.2452,0.6996,-7.57,-263.49,1298.03
22070,-3.8680,1.3317,0.7592,-601.32,1549.26,470.09
22080,-3.8679,1.3260,0.7791,-1538.82,1174.44,204.59
22090,-3.8679,1.2374,0.7660,1742.43,-278.69,-1061.04
22100,-3.8678,1.1156,0.7659,-1601.32,-1950.74,-514.16
22110,-3.8676,1.0018,0.8033,-1195.07,-1966.61,1142.09
22120,-3.8674,0.8895,0.8556,242.43,-1169.92,1798.40
22130,-3.8673,0.7697,0.8918,1867.43,1517.33,720.40
22140,-3.8673,0.6677,0.9125,-1476.32,-1842.29,-1263.92
22150,-3.8673,0.5973,0.9338,1476.81,798.16,-763.85
22160,-3.8673,0.5414,0.9622,461.18,-467.59,79.90
22170,-3.8676,0.4872,0.9773,1304.93,-842.71,1626.83
22180,-3.8678,0.4216,0.9623,-1632.57,1094.67,-1169.98
22190,-3.8679,0.3444,0.9305,1976.81,-827.33,-1685.67
22200,-3.8680,0.2837,0.8885,86.18,-889.95,-373.23
22210,-3.8682,0.2648,0.8295,320.56,1734.92,-763.92
22220,-3.8684,0.2792,0.7542,1898.68,-1827.64,-1779.66
22230,-3.8688,0.3030,0.6707,-257.57,531.74,1173.34
22240,-3.8693,0.3185,0.5891,-1210.69,1844.30,-545.59
22250,-3.8695,0.3099,0.5364,773.68,-593.14,79.22
22260,-3.8698,0.2749,0.5337,-320.07,656.80,969.79
22270,-3.8699,0.2152,0.5682,-804.44,312.99,1063.54
22280,-3.8700,0.1287,0.6167,-445.07,734.74,-1998.90
22290,-3.8701,0.0249,0.6754,476.81,-1062.26,-498.84
22300,-3.8701,-0.0750,0.7446,-804.44,-1546.88,-1514.34
22310,-3.8701,-0.1499,0.7969,-1585.69,-672.06,-1545.47
22320,-3.8701,-0.1877,0.7922,820.56,-1984.68,282.78
22330,-3.8704,-0.1935,0.7355,-23.19,1421.45,1860.90
22340,-3.8707,-0.1804,0.6678,-757.57,-1844.18,-607.97
22350,-3.8711,-0.1614,0.6086,914.31,1499.63,-1936.22
22360,-3.8715,-0.1525,0.5609,-648.19,1921.51,548.03
22370,-3.8718,-0.1650,0.5321,492.43,-187.81,1016.66
22380,-3.8722,-0.1925,0.5171,-1116.94,124.63,-561.46
22390,-3.8724,-0.2174,0.5004,-632.57,-1797.30,-655.27
22400,-3.8726,-0.2327,0.4711,179.93,62.07,797.85
22410,-3.8728,-0.2423,0.4390,-1773.19,312.01,-202.21
22420,-3.8728,-0.2423,0.4227,992.43,202.64,203.98
22430,-3.8729,-0.2260,0.4205,992.43,-1875.49,1141.42
22440,-3.8730,-0.2041,0.4147,-913.82,1843.26,1110.17
22450,-3.8733,-0.1898,0.3835,1883.06,1093.32,-1139.83
22460,-3.8735,-0.1727,0.3247,-288.82,1108.95,-1124.27
22470,-3.8738,-0.1345,0.2610,1898.68,1577.76,-1218.14
22480,-3.8740,-0.0798,0.2115,-1210.69,1421.57,-765.14
22490,-3.8741,-0.0298,0.1746,1789.31,-906.43,390.99
22500,-3.8744,-0.0095,0.1466,195.56,-1640.69,-749.69
22510,-3.8744,-0.0234,0.1416,-1210.69,-1218.81,1047.12
22520,-3.8744,-0.0365,0.1676,1008.06,-1859.44,453.37
22530,-3.8745,-0.0251,0.2019,-663.82,1468.63,-1234.07
22540,-3.8746,-0.0031,0.2135,789.31,1859.31,-1030.88
22550,-3.8748,0.0148,0.1921,-382.57,-656.31,-1577.76
22560,-3.8749,0.0273,0.1417,1898.68,593.75,-1327.76
22570,-3.8750,0.0406,0.0741,-491.94,-1859.38,-374.76
22580,-3.8750,0.0653,0.0125,1211.18,1484.44,1343.87
22590,-3.8750,0.1069,-0.0200,367.43,1593.87,875.00
22600,-3.8750,0.1606,-0.0137,1695.56,1437.68,-1531.31
22610,-3.8749,0.2198,0.0211,570.56,-1749.69,812.44
22620,-3.8749,0.2772,0.0564,148.68,-1296.45,-1125.00
22630,-3.8748,0.3274,0.0657,-507.57,-780.76,875.06
22640,-3.8748,0.3640,0.0515,1914.31,406.86,-968.63
22650,-3.8746,0.3793,0.0370,-1398.19,-1405.58,1578.19
22660,-3.8745,0.3831,0.0314,554.93,735.11,-1890.56
22670,-3.8743,0.3948,0.0259,1039.31,16.36,-1406.19
22680,-3.8739,0.4202,0.0179,-1460.69,-686.77,-1953.12
22690,-3.8735,0.4689,0.0234,1789.31,-1702.33,1062.50
22700,-3.8733,0.5582,0.0652,23.68,-999.08,1718.75
22710,-3.8730,0.6696,0.1414,-538.82,344.79,140.75
22720,-3.8729,0.7444,0.2148,1711.18,-1904.97,-1531.01
22730,-3.8726,0.7507,0.2496,-710.69,-498.60,265.99
22740,-3.8722,0.7144,0.2515,101.81,-45.41,-155.82
22750,-3.8715,0.6846,0.2596,-554.44,188.84,94.24
22760,-3.8708,0.6941,0.2980,-366.94,1235.66,797.36
22770,-3.8704,0.7419,0.3405,851.81,-1858.03,1609.92
22780,-3.8700,0.8041,0.3544,-1023.19,-420.47,1266.24
22790,-3.8698,0.8522,0.3516,-1070.07,1360.90,1266.30
22800,-3.8696,0.8650,0.3562,1086.18,1001.65,-1108.70
22810,-3.8694,0.8417,0.3779,-1273.19,1595.40,16.30
22820,-3.8693,0.8003,0.4147,-257.57,376.59,-1343.02
22830,-3.8690,0.7660,0.4575,-1554.44,1079.65,-1233.58
22840,-3.8688,0.7560,0.5052,-1945.07,-1436.04,-671.02
22850,-3.8685,0.7659,0.5503,773.68,673.34,-827.15
22860,-3.8683,0.7793,0.5707,-1960.69,-1561.04,1532.29
22870,-3.8682,0.7930,0.5560,-241.94,1048.34,-342.65
22880,-3.8679,0.8243,0.5276,1508.06,-826.60,-108.34
22890,-3.8676,0.8866,0.5104,1523.68,-467.16,-186.52
22900,-3.8671,0.9652,0.5140,1492.43,1329.83,-420.90
22910,-3.8665,1.0356,0.5347,-445.07,1798.71,813.48
22920,-3.8661,1.0951,0.5518,570.56,439.51,-217.71
22930,-3.8657,1.1426,0.5444,179.93,-1372.86,-1717.71
22940,-3.8655,1.1593,0.5248,-1741.94,1689.70,251.04
22950,-3.8654,1.1265,0.5320,398.68,-825.87,32.23
22960,-3.8652,1.0377,0.5983,195.56,95.95,1813.54
22970,-3.8650,0.9041,0.7338,836.18,580.14,-1311.34
22980,-3.8647,0.7327,0.9044,-273.19,1923.58,-1170.47
22990,-3.8646,0.5275,1.0426,1789.31,-232.97,-1357.67
23000,-3.8646,0.3176,1.1028,-476.32,1454.10,314.51
23010,-3.8650,0.1224,1.0928,664.31,1156.86,-1310.36
23020,-3.8655,-0.0951,1.0762,-320.07,-124.82,-560.42
23030,-3.8660,-0.3698,1.1166,-163.82,1765.38,986.45
23040,-3.8667,-0.6427,1.2008,679.93,-1063.23,-1107.24
23050,-3.8674,-0.8148,1.2587,1742.43,1717.47,-1778.93
23060,-3.8682,-0.8715,1.2339,-288.82,1123.35,-810.06
23070,-3.8687,-0.8281,1.1504,461.18,1951.42,1080.51
23080,-3.8690,-0.7268,1.0728,-1991.94,-736.02,33.45
23090,-3.8694,-0.6689,1.0164,-1023.19,1326.66,783.33
23100,-3.8699,-0.6548,0.9670,-1616.94,-1891.97,-169.92
23110,-3.8704,-0.6392,0.9161,195.56,-204.41,-76.29
23120,-3.8708,-0.6472,0.8644,-1804.44,1279.97,-1716.98
23130,-3.8713,-0.6636,0.8220,1164.31,-1345.03,1204.77
23140,-3.8718,-0.6599,0.7896,-929.44,1233.03,-1826.54
