timestamp_ms,ax,ay,az,gx,gy,gz
0,-3.8682,1.7081,0.6631,-85.69,-1512.33,-1092.53
10,-3.8671,1.6931,0.6573,-1351.32,878.30,-1483.09
20,-3.8661,1.7173,0.6290,726.81,143.92,-1795.59
30,-3.8654,1.7900,0.5900,-179.44,518.92,235.60
40,-3.8651,1.8544,0.5413,1133.06,-480.90,-1873.90
50,-3.8651,1.8492,0.4845,1367.43,1284.85,1563.54
60,-3.8654,1.7540,0.4370,711.18,-1980.77,-327.21
70,-3.8655,1.5745,0.4291,523.68,-59.08,1500.79
80,-3.8656,1.3323,0.4763,1539.31,-1075.07,-1999.21
90,-3.8656,1.0688,0.5718,-1460.69,971.31,-342.83
100,-3.8654,0.8350,0.7024,820.56,1189.58,-1514.53
110,-3.8650,0.6632,0.8367,-1116.94,1907.84,548.22
120,-3.8646,0.5348,0.9614,898.68,-904.97,-1607.79
130,-3.8641,0.3923,1.0732,461.18,-936.46,-1529.42
140,-3.8638,0.1842,1.1206,-1773.19,1375.73,-419.80
150,-3.8635,-0.0980,1.0848,-413.82,-562.19,-997.86
160,-3.8634,-0.4012,1.0112,-538.82,-1125.24,48.95
170,-3.8635,-0.6675,0.9314,648.68,1452.33,142.58
180,-3.8636,-0.8831,0.8613,-1429.44,-766.97,486.15
190,-3.8638,-1.0510,0.8182,-1023.19,-1736.15,-1638.98
200,-3.8640,-1.2025,0.7921,1476.81,747.92,-45.29
210,-3.8644,-1.3422,0.7622,-1913.82,1403.87,1970.28
220,-3.8650,-1.3811,0.7360,211.18,1575.50,-1342.29
230,-3.8656,-1.2932,0.7183,-773.19,-1784.00,1063.90
240,-3.8663,-1.1985,0.7059,-1523.19,-49.44,-608.03
250,-3.8669,-1.1353,0.7072,-1398.19,-1627.38,-1779.91
260,-3.8676,-1.0414,0.7188,-1304.44,-1471.01,1126.34
270,-3.8682,-0.9457,0.7452,-1288.82,13.55,438.90
280,-3.8689,-0.8969,0.7931,-1038.82,-595.64,-467.35
290,-3.8695,-0.8652,0.8398,1211.18,1529.48,892.15
300,-3.8702,-0.8260,0.8671,1258.06,-486.08,1517.21
310,-3.8710,-0.8041,0.8807,-1726.32,-1001.65,-373.35
320,-3.8715,-0.7679,0.8929,1086.18,748.41,829.83
330,-3.8719,-0.6932,0.8988,1711.18,-1689.03,1845.46
340,-3.8723,-0.6149,0.8907,-726.32,-938.90,-1935.79
350,-3.8727,-0.5258,0.8784,1304.93,-1969.97,-60.79
360,-3.8729,-0.4299,0.8615,711.18,452.09,1642.33
370,-3.8733,-0.3422,0.8462,976.81,-1719.60,-967.10
380,-3.8735,-0.2538,0.8466,211.18,327.45,1642.27
390,-3.8738,-0.1846,0.8512,-476.32,374.45,1970.40
400,-3.8740,-0.1392,0.8577,383.06,968.38,-170.23
410,-3.8741,-0.0930,0.8744,-1804.44,1796.57,-1717.10
420,-3.8744,-0.0413,0.8885,101.81,-62.68,-857.73
430,-3.8746,0.0155,0.8853,-1273.19,1749.88,1970.46
440,-3.8750,0.0840,0.8698,1992.43,1312.50,-842.04
450,-3.8441,0.1523,0.8466,-1241.94,-671.75,1751.65
460,-3.8446,0.1954,0.8167,-491.94,359.62,1720.40
470,-3.8451,0.2115,0.7769,1023.68,531.62,1079.71
480,-3.8456,0.2261,0.7371,-913.82,-562.13,-1357.91
490,-3.8458,0.2478,0.7203,945.56,-1655.82,829.53
500,-3.8459,0.2627,0.7219,-273.19,203.55,454.53
510,-3.8459,0.2856,0.7205,1633.06,406.74,595.15
520,-3.8459,0.3485,0.6990,570.56,219.30,-1076.72
530,-3.8458,0.4534,0.6470,617.43,1469.42,1220.09
540,-3.8457,0.5751,0.5580,-1960.69,-1186.65,126.22
550,-3.8456,0.7007,0.4624,1617.43,-577.03,-1545.84
560,-3.8452,0.8549,0.4050,1695.56,-811.16,969.60
570,-3.8447,1.0747,0.3801,1429.93,-154.60,16.36
580,-3.8441,1.3352,0.3828,1570.56,658.33,1750.73
590,-3.8745,1.6078,0.4550,-1085.69,1002.56,-1233.64
600,-3.8735,1.8607,0.5717,1804.93,-1762.51,-514.77
610,-3.8726,2.0717,0.6346,-1820.07,1175.48,-217.65
620,-3.8717,2.2290,0.5735,1179.93,1238.40,-264.40
630,-3.8710,2.2590,0.4066,1320.56,1410.58,876.10
640,-3.8705,2.1531,0.2379,1164.31,51.27,-1592.96
650,-3.8699,2.0042,0.1509,-398.19,-1542.72,1500.43
660,-3.8691,1.8781,0.1615,539.31,-683.59,718.99
670,-3.8683,1.7816,0.2495,398.68,675.54,-1702.82
680,-3.8672,1.7198,0.4065,54.93,-59.02,1922.30
690,-3.8661,1.6685,0.6089,148.68,34.61,1391.42
700,-3.8651,1.5822,0.7461,1570.56,1940.73,454.28
710,-3.8644,1.4583,0.7252,-1476.32,-496.95,-607.97
720,-3.8638,1.3182,0.5802,-1335.69,830.93,1876.40
730,-3.8636,1.1716,0.4158,742.43,-1731.81,-389.53
740,-3.8638,0.9939,0.3337,1976.81,1221.01,-311.71
750,-3.8640,0.7346,0.3444,-773.19,-1279.36,-905.64
760,-3.8641,0.3844,0.3800,-1960.69,79.53,594.42
770,-3.8641,0.0061,0.4077,1211.18,641.36,-1061.77
780,-3.8638,-0.3054,0.4586,789.31,187.50,1672.67
790,-3.8634,-0.5131,0.5519,914.31,-1281.86,-1217.90
800,-3.8632,-0.6565,0.6323,-1663.82,-1344.79,-1045.84
810,-3.8632,-0.7856,0.6251,-23.19,951.78,1001.22
820,-3.8636,-0.9034,0.5260,-554.44,29.66,-186.28
830,-3.8643,-1.0356,0.3851,367.43,-658.02,1766.60
840,-3.8650,-1.1451,0.2690,-554.44,1310.42,1094.48
850,-3.8656,-1.1647,0.2296,1429.93,-1549.13,422.36
860,-3.8661,-1.1528,0.2487,-1070.07,1403.93,1828.55
870,-3.8665,-1.1637,0.2783,445.56,-158.51,-952.70
880,-3.8668,-1.1566,0.3043,-945.07,-361.69,-124.51
890,-3.8672,-1.1166,0.3378,-38.82,-1033.57,1875.55
900,-3.8677,-1.1150,0.3851,1086.18,-752.20,1375.61
910,-3.8683,-1.1370,0.4357,1289.31,1310.30,-764.89
920,-3.8689,-1.1593,0.4701,-1523.19,-221.01,-342.96
930,-3.8695,-1.1857,0.4927,-382.57,185.18,-639.71
940,-3.8701,-1.1688,0.5219,242.43,-924.19,-483.46
950,-3.8706,-1.1205,0.5638,-1601.32,-1189.82,1250.98
960,-3.8711,-1.0586,0.6224,586.18,185.30,1047.97
970,-3.8716,-0.9889,0.6891,508.06,-314.58,-1967.59
980,-3.8719,-0.9062,0.7428,1429.93,216.80,95.09
990,-3.8724,-0.8026,0.7725,8.06,-908.02,-373.60
1000,-3.8727,-0.6790,0.8038,1273.68,-1110.96,845.21
1010,-3.8730,-0.5416,0.8673,1101.81,-1095.09,-498.47
1020,-3.8733,-0.4153,0.9408,-1320.07,-969.85,-935.85
1030,-3.8735,-0.2981,0.9808,-1148.19,436.65,-1513.79
1040,-3.8738,-0.1919,0.9684,1851.81,1561.89,470.64
1050,-3.8741,-0.0931,0.9170,-554.44,-31.68,1017.46
1060,-3.8745,0.0071,0.8564,86.18,1390.44,1329.90
1070,-3.8749,0.1075,0.8146,914.31,1625.00,-920.23
1080,-3.8439,0.2114,0.8010,1773.68,265.81,-1014.04
1090,-3.8441,0.3170,0.7971,-929.44,-1468.38,-467.22
1100,-3.8444,0.4187,0.7922,586.18,-1968.14,-420.35
1110,-3.8445,0.5096,0.7969,1601.81,1407.04,1017.15
1120,-3.8446,0.5756,0.8066,1242.43,-1999.02,1470.28
1130,-3.8447,0.6075,0.8010,1679.93,-748.90,-310.97
1140,-3.8447,0.6361,0.7729,1773.68,-1467.59,985.90
1150,-3.8448,0.7013,0.7329,1429.93,-1061.28,313.96
1160,-3.8451,0.7706,0.6875,1773.68,1813.84,1985.78
1170,-3.8453,0.8096,0.6312,-1351.32,1.46,-811.16
1180,-3.8455,0.8710,0.5664,-366.94,798.40,-342.53
1190,-3.8453,0.9789,0.5184,-507.57,501.65,-608.28
1200,-3.8450,1.0808,0.5187,1304.93,-1638.73,-1389.65
1210,-3.8445,1.1749,0.5686,-1648.19,-1607.30,-1874.02
1220,-3.8439,1.2725,0.6368,-1601.32,783.51,297.97
1230,-3.8745,1.3696,0.6656,-1116.94,1518.07,923.10
1240,-3.8739,1.4810,0.6208,-679.44,1205.75,-1045.59
1250,-3.8732,1.6156,0.5658,1570.56,-528.38,-1998.84
1260,-3.8726,1.7991,0.5533,-1195.07,424.99,-405.15
1270,-3.8719,2.0251,0.5490,-1710.69,-1168.40,1438.54
1280,-3.8715,2.2422,0.5281,-773.19,-1730.47,-1655.21
1290,-3.8708,2.3857,0.5159,-991.94,-401.92,-1655.27
1300,-3.8701,2.4153,0.5441,1383.06,-1964.11,1610.35
1310,-3.8693,2.3566,0.6240,1164.31,1645.32,157.29
1320,-3.8683,2.2520,0.7340,1648.68,-120.42,376.16
1330,-3.8672,2.1104,0.8228,258.06,1957.52,1095.15
1340,-3.8661,1.9424,0.8645,-1866.94,1316.59,1251.59
1350,-3.8651,1.7614,0.8804,633.06,-1339.97,1126.65
1360,-3.8643,1.5430,0.8934,1461.18,690.92,392.33
1370,-3.8635,1.2705,0.9113,1508.06,-1637.63,1939.21
1380,-3.8628,0.9690,0.9227,-1366.94,643.07,-279.48
1390,-3.8619,0.6353,0.9379,39.31,-1888.73,-1420.10
1400,-3.8611,0.2415,1.0009,1320.56,48.10,-185.67
1410,-3.8602,-0.1978,1.1056,-1085.69,109.80,-935.55
1420,-3.8597,-0.6121,1.1687,-1304.44,1530.82,-997.86
1430,-3.8597,-0.9152,1.1194,1664.31,1608.15,-232.12
1440,-3.8601,-1.0455,0.9868,-1132.57,-704.96,-732.24
1450,-3.8608,-1.0675,0.8477,-1820.07,-1673.95,-1732.48
1460,-3.8619,-1.1104,0.7566,-632.57,513.49,1345.40
1470,-3.8633,-1.1716,0.7184,1883.06,857.18,1095.21
1480,-3.8646,-1.2161,0.7131,-1960.69,-33.57,-1514.28
1490,-3.8657,-1.2528,0.7350,351.81,-705.51,-201.78
1500,-3.8665,-1.3019,0.7793,-351.32,-1908.75,17.03
1510,-3.8673,-1.3254,0.8436,1367.43,-236.94,-482.91
1520,-3.8680,-1.2771,0.9131,-1648.19,-2.62,-1139.04
1530,-3.8688,-1.2467,0.9567,539.31,888.12,829.90
1540,-3.8696,-1.2532,0.9637,429.93,-1533.69,-1810.67
1550,-3.8705,-1.2157,0.9402,-398.19,-627.50,-326.29
1560,-3.8712,-1.1652,0.9104,398.68,356.99,-795.04
1570,-3.8718,-1.1133,0.9132,-1132.57,544.56,-1591.98
1580,-3.8723,-1.0419,0.9520,1508.06,904.05,876.77
1590,-3.8728,-1.0138,0.9962,-1351.32,1872.92,-1763.79
1600,-3.8732,-0.9927,1.0133,-1757.57,-470.76,-1904.36
1610,-3.8735,-0.9160,0.9985,945.56,1716.80,-107.42
1620,-3.8738,-0.7942,0.9801,-1241.94,-173.71,-404.36
1630,-3.8740,-0.6332,0.9730,-1648.19,1467.16,-60.61
1640,-3.8743,-0.4541,0.9718,-1038.82,561.22,-169.98
1650,-3.8745,-0.2671,0.9777,1883.06,405.33,-1529.36
1660,-3.8749,-0.0959,0.9866,1820.56,1155.70,955.02
1670,-3.8442,0.0272,0.9924,-273.19,-1703.37,1517.52
1680,-3.8450,0.1049,0.9877,-507.57,-968.75,-1701.23
1690,-3.8457,0.1470,0.9514,1429.93,-1577.94,-560.61
1700,-3.8462,0.1582,0.8811,-1179.44,1781.49,1220.58
1710,-3.8466,0.1616,0.8082,258.06,781.56,-1295.17
1720,-3.8467,0.1945,0.7577,695.56,-546.57,-373.47
1730,-3.8466,0.2689,0.7339,898.68,984.74,1063.96
1740,-3.8466,0.3707,0.7465,-1570.07,1937.99,-76.72
1750,-3.8464,0.4857,0.7852,-538.82,-452.45,-1654.85
1760,-3.8463,0.6014,0.8041,-1820.07,500.92,798.40
1770,-3.8462,0.7123,0.7576,992.43,-1076.97,939.03
1780,-3.8459,0.8029,0.6656,-820.07,970.09,1032.71
1790,-3.8456,0.8727,0.5983,-1226.32,1204.65,970.03
1800,-3.8452,0.9259,0.5909,-288.82,579.77,-1655.09
1810,-3.8448,0.9613,0.6444,-1476.32,-357.60,-686.40
1820,-3.8445,1.0107,0.7405,-945.07,-1513.79,-920.65
1830,-3.8440,1.0751,0.8148,1383.06,-1216.80,532.65
1840,-3.8746,1.1118,0.8329,1617.43,298.95,1532.84
1850,-3.8738,1.1653,0.8353,-1679.44,-1388.49,782.84
1860,-3.8730,1.3153,0.8190,1164.31,-1075.87,-1623.41
1870,-3.8723,1.5728,0.7579,367.43,830.69,798.46
1880,-3.8717,1.8612,0.6792,1320.56,1018.68,-154.79
1890,-3.8708,2.0686,0.6201,-1757.57,-1058.90,-1873.72
1900,-3.8699,2.1603,0.6085,789.31,-620.97,829.28
1910,-3.8689,2.1421,0.6488,523.68,1894.84,-155.09
1920,-3.8677,2.0596,0.7034,-1804.44,-948.97,-811.28
1930,-3.8665,1.9849,0.7133,-366.94,-1964.78,-529.91
1940,-3.8654,1.9374,0.6681,-1929.44,-699.28,1751.34
1950,-3.8645,1.9147,0.6317,-7.57,1519.35,798.16
1960,-3.8638,1.8981,0.6340,1086.18,863.10,907.47
1970,-3.8630,1.8199,0.6516,-1038.82,1159.91,1876.22
1980,-3.8623,1.6389,0.6796,961.18,-590.21,-1233.15
1990,-3.8617,1.3712,0.7117,1789.31,-1012.45,720.03
2000,-3.8615,1.0640,0.7410,-476.32,-903.63,1391.97
2010,-3.8615,0.7792,0.7600,195.56,-1154.17,-123.60
2020,-3.8613,0.5665,0.7493,-257.57,1282.71,110.84
2030,-3.8613,0.4423,0.7213,523.68,-92.65,-1811.10
2040,-3.8612,0.3793,0.7009,617.43,328.98,1063.90
2050,-3.8612,0.2983,0.7079,554.93,1719.48,1438.84
2060,-3.8615,0.1005,0.7252,-1804.44,-1390.08,-201.78
2070,-3.8618,-0.2587,0.7180,867.43,828.31,-1014.22
2080,-3.8623,-0.7051,0.7062,-1101.32,-78.67,-1154.91
2090,-3.8628,-1.1118,0.7145,1758.06,-1595.15,1501.34
2100,-3.8634,-1.3828,0.7456,1695.56,-533.45,-1717.41
2110,-3.8641,-1.5586,0.7723,-991.94,-549.62,-186.10
2120,-3.8649,-1.6873,0.7776,508.06,-1128.05,1204.59
2130,-3.8658,-1.7480,0.7893,39.31,-456.42,-1873.54
2140,-3.8669,-1.7802,0.8455,258.06,1043.46,-1982.85
2150,-3.8682,-1.8550,0.9438,148.68,230.90,-201.48
2160,-3.8691,-1.9781,1.0532,-1429.44,824.46,-248.17
2170,-3.8698,-2.0822,1.1321,-1195.07,-1175.78,330.14
2180,-3.8705,-2.1222,1.1443,1492.43,917.79,1720.95
2190,-3.8713,-2.0175,1.1041,367.43,-1519.78,-1419.68
2200,-3.8723,-1.7909,1.0446,1773.68,1339.78,-13.49
2210,-3.8732,-1.5465,1.0021,-1226.32,1715.21,-1185.49
2220,-3.8739,-1.2858,0.9852,-1945.07,278.20,-716.80
2230,-3.8744,-1.0289,0.9681,-570.07,-1877.56,1580.02
2240,-3.8749,-0.7833,0.9692,304.93,-64.51,-170.04
2250,-3.8440,-0.5088,1.0081,-257.57,76.54,-1857.48
2260,-3.8445,-0.2429,1.0469,-1116.94,1045.84,80.08
2270,-3.8452,-0.0511,1.0547,914.31,-1984.86,-1732.36
2280,-3.8458,0.0393,1.0145,1461.18,-984.50,205.14
2290,-3.8464,0.0536,0.9243,1039.31,1859.44,-1576.17
2300,-3.8467,0.0667,0.8527,-1132.57,-1687.44,-1623.23
2310,-3.8467,0.1071,0.8608,539.31,1140.75,-451.48
2320,-3.8466,0.1589,0.9065,1711.18,-1812.32,-13.98
2330,-3.8464,0.2229,0.9252,351.81,31.56,1704.90
2340,-3.8466,0.3119,0.9104,539.31,-1577.70,1579.90
2350,-3.8468,0.4386,0.8879,-70.07,531.80,1829.90
2360,-3.8470,0.6084,0.8763,148.68,1657.10,-154.54
2370,-3.8470,0.8014,0.8585,1883.06,173.03,-1138.92
2380,-3.8469,0.9562,0.8158,-1413.82,1892.15,-857.73
2390,-3.8466,1.0475,0.7756,-1601.32,423.71,95.34
2400,-3.8462,1.0846,0.7714,-1913.82,-716.74,1220.21
2410,-3.8457,1.0819,0.7919,-1163.82,-1263.55,-670.41
2420,-3.8450,1.0996,0.7957,-1507.57,1361.45,-357.85
2430,-3.8441,1.2156,0.7688,758.06,1845.89,-639.10
2440,-3.8746,1.3944,0.7457,-398.19,-1591.43,-123.54
2450,-3.8740,1.5399,0.7496,-1507.57,-544.19,1876.40
2460,-3.8735,1.6285,0.7351,1117.43,-43.88,1.40
2470,-3.8730,1.6886,0.6638,461.18,-1903.08,798.28
2480,-3.8723,1.7615,0.6128,148.68,972.05,-451.84
2490,-3.8711,1.8430,0.6588,1476.81,-1559.08,704.28
2500,-3.8699,1.8900,0.7256,-85.69,331.67,-1811.22
2510,-3.8685,1.9146,0.7346,1929.93,878.66,1532.65
2520,-3.8671,1.9808,0.7371,1070.56,-1965.03,485.78
2530,-3.8655,2.1014,0.7737,1554.93,-1652.40,720.15
2540,-3.8639,2.2769,0.7924,992.43,-964.66,-1139.16
2550,-3.8625,2.4781,0.7274,-554.44,1426.27,-623.47
2560,-3.8618,2.5674,0.6123,1211.18,1114.20,-482.97
2570,-3.8616,2.3909,0.5514,633.06,-1620.00,-1514.47
2580,-3.8615,1.9423,0.5771,-1960.69,-1417.24,-14.59
2590,-3.8610,1.3936,0.6317,617.43,1878.78,-1670.78
2600,-3.8604,0.9504,0.6632,-1616.94,862.06,-1201.90
2610,-3.8599,0.6702,0.6605,1664.31,892.46,-795.59
2620,-3.8597,0.4928,0.6306,1789.31,548.16,1610.66
2630,-3.8602,0.3402,0.5824,-913.82,719.67,-1342.53
2640,-3.8611,0.1444,0.5227,-445.07,-1452.51,1829.22
2650,-3.8621,-0.1216,0.4977,-1507.57,-1093.51,1204.10
2660,-3.8629,-0.4840,0.5344,445.56,-281.49,1219.67
2670,-3.8636,-0.9519,0.5980,-1945.07,420.90,-248.96
2680,-3.8641,-1.4491,0.6328,-1835.69,560.61,-1530.09
2690,-3.8646,-1.8367,0.6165,-1476.32,1012.76,407.47
2700,-3.8654,-2.0752,0.5889,914.31,-1081.73,63.66
2710,-3.8663,-2.1620,0.5984,-1616.94,-613.46,579.22
2720,-3.8674,-2.0906,0.6558,-726.32,605.10,-217.59
2730,-3.8683,-2.0099,0.7263,414.31,-50.96,-1670.65
2740,-3.8690,-1.9946,0.7788,-1257.57,980.41,1517.03
2750,-3.8698,-1.9592,0.8041,695.56,-300.78,-904.79
2760,-3.8705,-1.8850,0.8054,1226.81,-1066.35,-998.47
2770,-3.8712,-1.7585,0.8224,-1273.19,-894.35,1673.40
2780,-3.8719,-1.5706,0.8914,-1085.69,1277.77,-279.66
2790,-3.8723,-1.4034,0.9884,-1023.19,-1893.74,720.46
2800,-3.8726,-1.2482,1.0680,367.43,-1471.50,1.89
2810,-3.8728,-1.0435,1.1006,242.43,716.31,798.95
2820,-3.8732,-0.8225,1.0995,-1554.44,888.55,-1919.74
2830,-3.8735,-0.6001,1.1342,-1273.19,748.35,845.89
2840,-3.8740,-0.3821,1.2257,-804.44,1186.28,-763.43
2850,-3.8745,-0.2075,1.2885,-898.19,905.46,-1747.62
2860,-3.8440,-0.0665,1.2401,1445.56,937.07,-1091.25
2870,-3.8447,0.0669,1.1415,-507.57,-1250.18,1830.51
2880,-3.8452,0.1639,1.1130,570.56,-1890.50,939.70
2890,-3.8455,0.2203,1.1432,992.43,-1530.94,-1638.49
2900,-3.8456,0.3158,1.1498,211.18,-1671.45,-1669.68
2910,-3.8458,0.4862,1.1182,429.93,-827.51,1924.07
2920,-3.8463,0.6807,1.0593,-1757.57,-874.08,-794.74
2930,-3.8468,0.8401,0.9777,-866.94,-404.97,1298.89
2940,-3.8473,0.9240,0.9084,-460.69,1142.21,-1748.11
2950,-3.8475,0.9609,0.8728,-1726.32,283.02,-920.10
2960,-3.8474,1.0078,0.8435,-991.94,-279.42,-404.60
2970,-3.8468,1.0990,0.8052,1008.06,-29.30,1235.96
2980,-3.8459,1.2770,0.7903,679.93,-935.36,1189.03
2990,-3.8451,1.5154,0.7778,-538.82,1158.69,-279.72
3000,-3.8442,1.7089,0.7120,1976.81,-434.57,1735.84
3010,-3.8749,1.8308,0.6123,-1257.57,-856.08,1938.84
3020,-3.8743,1.9135,0.5437,-1648.19,-1621.46,735.53
3030,-3.8735,1.9794,0.5503,929.93,1597.47,313.54
3040,-3.8727,2.0745,0.6082,1367.43,-1558.65,-373.96
3050,-3.8715,2.1899,0.6449,1539.31,1847.78,1063.66
3060,-3.8704,2.2806,0.6150,320.56,-1448.85,-1639.40
3070,-3.8694,2.3201,0.5435,-70.07,-1276.86,-1139.47
3080,-3.8684,2.2837,0.4547,976.81,1567.02,797.91
3090,-3.8674,2.2286,0.3635,320.56,-1792.42,641.48
3100,-3.8665,2.2235,0.3159,1273.68,-1464.42,-1186.83
3110,-3.8654,2.2430,0.3440,617.43,441.83,-249.39
3120,-3.8641,2.2207,0.4214,-882.57,35.58,-561.83
3130,-3.8629,2.0850,0.4850,258.06,1941.83,1657.04
3140,-3.8619,1.8235,0.4880,-1116.94,-1917.85,-545.96
3150,-3.8610,1.5353,0.4221,1414.31,-1527.71,735.29
3160,-3.8602,1.3287,0.3313,523.68,-1965.76,1500.79
3170,-3.8596,1.2059,0.2811,-1913.82,-1591.19,438.11
3180,-3.8595,1.0569,0.2938,-1632.57,-13.31,-15.14
3190,-3.8595,0.7433,0.3535,-710.69,1611.39,1359.92
3200,-3.8601,0.2484,0.4170,-851.32,1251.40,-233.70
3210,-3.8607,-0.2852,0.4722,-195.07,1375.43,1703.92
3220,-3.8613,-0.6509,0.5731,-491.94,452.51,-420.96
3230,-3.8617,-0.7717,0.7008,695.56,1373.72,751.10
3240,-3.8622,-0.8121,0.7909,1226.81,1717.22,-529.91
3250,-3.8625,-0.9679,0.8433,54.93,1248.41,-951.60
3260,-3.8632,-1.2733,0.8523,117.43,-48.77,-295.29
3270,-3.8641,-1.5986,0.8091,1023.68,1106.87,876.65
3280,-3.8657,-1.8458,0.7738,-616.94,-425.05,-1904.72
3290,-3.8676,-2.0515,0.7902,-257.57,-941.16,517.09
3300,-3.8694,-2.1675,0.8442,1414.31,1152.22,-1467.22
3310,-3.8706,-2.1643,0.9274,-1429.44,73.85,-1576.48
3320,-3.8712,-2.0385,1.0428,-1023.19,-1285.52,314.27
3330,-3.8717,-1.8564,1.1265,-913.82,1495.97,1783.26
3340,-3.8721,-1.7262,1.1384,-1616.94,199.46,95.95
3350,-3.8727,-1.6108,1.1165,-945.07,1730.96,-279.05
3360,-3.8733,-1.4468,1.0731,1820.56,-1081.30,-1825.99
3370,-3.8740,-1.2249,1.0118,-1179.44,1372.13,-1966.67
3380,-3.8748,-0.9797,0.9624,-773.19,1528.81,-1357.42
3390,-3.8441,-0.7109,0.9572,-1398.19,-798.83,-1904.42
3400,-3.8446,-0.4581,0.9871,1008.06,-1470.15,814.33
3410,-3.8451,-0.2551,1.0228,1367.43,-1641.54,1345.64
3420,-3.8456,-0.0823,1.0391,-648.19,-1063.05,423.83
3430,-3.8463,0.0396,1.0088,1476.81,1015.44,-44.86
3440,-3.8469,0.0596,0.9121,1070.56,1125.06,1798.83
3450,-3.8474,0.0094,0.7865,-366.94,750.06,470.52
3460,-3.8477,0.0295,0.7253,1211.18,671.88,1720.28
3470,-3.8475,0.1816,0.7594,-210.69,843.75,1220.15
3480,-3.8473,0.3895,0.8209,-741.94,1203.43,1798.34
3490,-3.8470,0.5773,0.8492,1867.43,1078.86,1501.59
3500,-3.8469,0.7191,0.8348,1898.68,704.22,1986.02
3510,-3.8468,0.8130,0.8101,54.93,-1139.22,814.09
3520,-3.8468,0.9098,0.8043,70.56,-310.91,-123.47
3530,-3.8466,1.0441,0.7969,461.18,-1045.10,251.53
3540,-3.8464,1.1605,0.7628,1648.68,-1997.99,-623.47
3550,-3.8461,1.2302,0.7231,554.93,1642.88,1532.71
3560,-3.8457,1.3104,0.6990,1476.81,564.88,517.03
3570,-3.8455,1.4088,0.6873,-257.57,1471.25,-1654.91
3580,-3.8452,1.5129,0.6936,336.18,-28.50,-248.72
3590,-3.8448,1.6151,0.7184,1664.31,784.18,-1514.28
3600,-3.8444,1.7040,0.7335,-1257.57,-43.76,-1779.91
3610,-3.8748,1.8303,0.7374,-1882.57,1893.92,1188.90
3620,-3.8735,2.0686,0.7468,-1710.69,-1605.83,688.90
3630,-3.8723,2.3967,0.7175,789.31,-402.22,-936.10
3640,-3.8711,2.6615,0.6398,-1210.69,-151.61,1829.47
3650,-3.8700,2.7327,0.5485,679.93,1895.81,1907.47
3660,-3.8689,2.6107,0.4528,1789.31,-1791.56,1891.66
3670,-3.8677,2.4777,0.3948,-1820.07,1958.19,-921.02
3680,-3.8661,2.5596,0.4307,1148.68,-1463.93,266.36
3690,-3.8644,2.8212,0.5352,-366.94,-870.06,63.29
3700,-3.8627,2.9727,0.6122,1117.43,505.49,1938.54
3710,-3.8611,2.7875,0.6040,508.06,-1634.83,1188.66
3720,-3.8600,2.2548,0.5508,804.93,1317.93,-1936.34
3730,-3.8595,1.5684,0.4989,617.43,-1495.61,-14.59
3740,-3.8595,1.0114,0.4578,758.06,-137.57,-14.71
3750,-3.8595,0.6838,0.4290,1461.18,-1404.30,-14.77
3760,-3.8595,0.4646,0.4254,-460.69,-1092.47,-14.83
3770,-3.8595,0.2449,0.4520,-523.19,-1546.02,-827.33
3780,-3.8595,0.0323,0.4827,-648.19,1859.80,-577.27
3790,-3.8595,-0.1240,0.4709,148.68,1781.31,454.04
3800,-3.8600,-0.2531,0.4114,133.06,296.63,-749.08
3810,-3.8607,-0.4435,0.3848,-382.57,671.33,1703.92
3820,-3.8617,-0.7721,0.4460,-757.57,1264.71,656.98
3830,-3.8628,-1.2424,0.5596,1179.93,1107.85,1203.98
3840,-3.8639,-1.6969,0.6620,976.81,-361.82,344.79
3850,-3.8652,-2.0098,0.7206,-1195.07,746.64,-561.22
3860,-3.8665,-2.1371,0.7656,-1241.94,246.03,1423.28
3870,-3.8677,-2.0621,0.8434,-1538.82,-1988.59,-186.04
3880,-3.8685,-1.9094,0.9519,54.93,-35.28,-1014.04
3890,-3.8691,-1.8359,1.0507,-398.19,1855.59,-1748.17
3900,-3.8698,-1.8242,1.1104,1008.06,-1503.60,-1060.49
3910,-3.8704,-1.7611,1.1256,-1491.94,-1862.98,361.51
3920,-3.8713,-1.6602,1.0906,-1413.82,90.27,-529.05
3930,-3.8723,-1.5106,1.0297,-491.94,-393.92,1267.70
3940,-3.8734,-1.2871,0.9677,-1351.32,-190.49,-1326.17
3950,-3.8743,-1.0841,0.9126,-741.94,-127.56,1079.96
3960,-3.8750,-0.9464,0.8771,1242.43,825.99,-1670.10
3970,-3.8442,-0.8409,0.8651,-1132.57,279.36,1517.33
3980,-3.8446,-0.7407,0.8760,367.43,-1251.65,1986.02
3990,-3.8448,-0.6190,0.9158,1195.56,139.16,-670.17
4000,-3.8450,-0.4348,0.9606,773.68,1233.15,-795.10
4010,-3.8452,-0.1753,0.9565,351.81,-1032.10,-466.92
4020,-3.8456,0.0872,0.8896,1570.56,-1547.24,33.08
4030,-3.8463,0.2644,0.7926,-835.69,1875.12,-654.54
4040,-3.8468,0.3218,0.6976,1851.81,1453.61,1017.15
4050,-3.8472,0.3060,0.6237,1195.56,1297.49,-1092.41
4060,-3.8472,0.3276,0.6002,-820.07,-171.33,1157.41
4070,-3.8470,0.4348,0.6555,1945.56,828.74,907.41
4080,-3.8469,0.5801,0.7552,-335.69,-92.96,-748.78
4090,-3.8467,0.7025,0.8129,-1741.94,672.97,657.71
4100,-3.8467,0.7563,0.8005,1929.93,48.22,-1654.66
4110,-3.8467,0.7698,0.7518,820.56,-1529.79,-1029.72
4120,-3.8464,0.8448,0.6855,-1460.69,235.84,-1701.66
4130,-3.8458,1.0306,0.6364,148.68,-248.35,1501.28
4140,-3.8450,1.3185,0.6636,-70.07,1455.08,-1530.03
4150,-3.8440,1.6118,0.7753,773.68,940.06,220.03
4160,-3.8746,1.7815,0.8737,-1679.44,-762.51,-1607.91
4170,-3.8741,1.8116,0.8441,39.31,-168.40,-654.60
4180,-3.8735,1.7866,0.7251,-101.32,50.35,-982.73
4190,-3.8727,1.8296,0.6353,695.56,815.98,126.40
4200,-3.8718,1.9901,0.5809,-1804.44,1316.04,1094.97
4210,-3.8708,2.2075,0.5278,-1257.57,-1636.78,985.47
4220,-3.8699,2.3517,0.5045,-1429.44,-433.23,-436.52
4230,-3.8687,2.3273,0.5157,1023.68,582.70,797.85
4240,-3.8676,2.1776,0.5103,1898.68,-1979.86,-452.15
4250,-3.8663,2.0227,0.4427,-1257.57,1316.71,1204.10
4260,-3.8652,1.9789,0.3417,-1085.69,675.78,844.60
4270,-3.8643,2.1149,0.2839,1304.93,-261.78,-280.64
4280,-3.8630,2.3577,0.3063,-1288.82,347.84,938.05
4290,-3.8618,2.4683,0.3979,1789.31,-792.30,1922.42
4300,-3.8606,2.2629,0.5457,-54.44,-1057.74,1063.23
4310,-3.8597,1.7604,0.7194,1664.31,1848.14,-1858.34
4320,-3.8595,1.0690,0.8378,1336.18,81.54,-14.22
4330,-3.8595,0.3716,0.8566,836.18,-763.55,-14.04
4340,-3.8595,-0.1056,0.7963,-429.44,1641.30,-13.98
4350,-3.8595,-0.3264,0.7009,-1507.57,1937.26,-857.85
4360,-3.8597,-0.4651,0.6042,-1773.19,1733.70,-1420.53
4370,-3.8605,-0.6639,0.4968,476.81,1358.46,1469.91
4380,-3.8616,-0.9022,0.3688,-976.32,-391.97,391.54
4390,-3.8627,-1.0563,0.2719,523.68,-783.02,-499.33
4400,-3.8633,-1.0935,0.2943,804.93,-1189.58,-702.64
4410,-3.8635,-1.0972,0.4260,39.31,1685.36,422.42
4420,-3.8639,-1.2246,0.5851,-429.44,-1455.32,-108.58
4430,-3.8644,-1.5562,0.6722,-741.94,-1096.19,-873.90
4440,-3.8654,-1.9589,0.6174,820.56,-1940.55,-248.72
4450,-3.8666,-2.1417,0.5021,1273.68,-956.97,-936.34
4460,-3.8678,-2.0160,0.4398,1867.43,277.04,1954.10
4470,-3.8688,-1.7725,0.4703,1961.18,308.53,-1452.27
4480,-3.8693,-1.5554,0.5724,1133.06,215.27,500.92
4490,-3.8698,-1.4377,0.7002,914.31,1278.20,-358.28
4500,-3.8702,-1.3866,0.8220,-23.19,1637.76,-389.28
4510,-3.8708,-1.3741,0.8933,-1476.32,1231.63,329.71
4520,-3.8718,-1.4042,0.9005,117.43,-1643.31,314.21
4530,-3.8730,-1.4003,0.8618,273.68,-721.50,-1482.67
4540,-3.8741,-1.3096,0.8059,773.68,-1674.62,1704.77
4550,-3.8750,-1.1354,0.7751,383.06,-830.69,1657.78
4560,-3.8442,-0.9485,0.7662,-1320.07,-767.88,-1545.41
4570,-3.8444,-0.8008,0.7676,-1398.19,-1908.14,1782.71
4580,-3.8444,-0.6481,0.7836,1508.06,-1735.96,1782.71
4590,-3.8444,-0.4594,0.8184,1054.93,311.22,1032.78
4600,-3.8446,-0.2432,0.8295,1211.18,764.71,-264.04
4610,-3.8448,-0.0369,0.7635,883.06,-1812.99,110.96
4620,-3.8455,0.1329,0.6689,-710.69,1749.88,1829.59
4630,-3.8462,0.2485,0.6121,1023.68,1625.24,-779.97
4640,-3.8468,0.2858,0.5828,-179.44,-1655.82,-1123.84
4650,-3.8472,0.2474,0.5730,586.18,-1405.70,-1764.53
4660,-3.8473,0.1873,0.6282,-320.07,1344.18,1032.35
4670,-3.8473,0.1425,0.7417,-23.19,406.56,-608.15
4680,-3.8469,0.1272,0.8163,-1757.57,-1062.26,-764.22
4690,-3.8464,0.1929,0.7877,289.31,484.62,1782.84
4700,-3.8463,0.3530,0.7169,695.56,828.49,-701.60
4710,-3.8464,0.5477,0.6536,1195.56,-233.70,610.72
4720,-3.8468,0.7252,0.5719,-1882.57,-342.71,-1342.53
4730,-3.8468,0.8981,0.4934,836.18,1204.53,1344.85
4740,-3.8466,1.0822,0.4854,-1038.82,-842.04,-1858.46
4750,-3.8462,1.2385,0.6022,-1476.32,-1872.92,-624.08
4760,-3.8456,1.3148,0.7565,-1460.69,1080.51,1110.53
4770,-3.8447,1.3414,0.7876,304.93,830.69,1845.21
4780,-3.8748,1.4536,0.7345,-288.82,815.06,-279.72
4790,-3.8733,1.7130,0.6958,-1929.44,-1981.57,985.78
4800,-3.8722,2.0356,0.6146,-726.32,1065.80,626.34
4810,-3.8717,2.3044,0.4727,570.56,-1324.16,-201.97
4820,-3.8715,2.4202,0.3896,-1023.19,504.46,1891.54
4830,-3.8712,2.3573,0.4365,1789.31,1879.70,-1811.77
4840,-3.8704,2.2417,0.5582,1742.43,-120.42,1282.04
4850,-3.8689,2.1930,0.6414,-1054.44,-542.54,-1420.84
4860,-3.8671,2.1929,0.6240,711.18,-1901.98,-889.40
4870,-3.8654,2.1873,0.5559,695.56,-120.73,1844.91
4880,-3.8641,2.1229,0.5172,-23.19,-839.54,501.04
4890,-3.8633,1.9586,0.5640,-257.57,-1792.79,1000.98
4900,-3.8623,1.7081,0.7025,-1288.82,191.28,141.72
4910,-3.8611,1.4059,0.8719,-1351.32,1925.17,563.84
4920,-3.8599,1.1119,0.9779,-38.82,-387.94,892.27
4930,-3.8595,0.9127,0.9269,-1663.82,1174.01,-13.73
4940,-3.8595,0.7727,0.7491,836.18,-1357.60,-13.85
4950,-3.8595,0.5184,0.5717,-1085.69,-107.91,-14.22
4960,-3.8600,0.1102,0.4712,-1632.57,1172.85,-811.40
4970,-3.8607,-0.2898,0.4841,-1882.57,312.68,-1733.46
4980,-3.8612,-0.5293,0.6061,-1085.69,1983.76,172.79
4990,-3.8616,-0.5580,0.7491,258.06,1592.71,-30.09
5000,-3.8616,-0.4911,0.7919,586.18,-94.85,1.40
5010,-3.8619,-0.5176,0.6978,1148.68,1374.02,-935.97
5020,-3.8627,-0.7129,0.5460,1758.06,1327.09,-1889.28
5030,-3.8639,-1.0232,0.4309,758.06,1904.85,-1702.09
5040,-3.8652,-1.2983,0.3734,1039.31,-830.14,1438.29
5050,-3.8665,-1.4569,0.3671,1820.56,-190.06,235.05
5060,-3.8674,-1.5200,0.4276,1523.68,-1002.87,-1155.58
5070,-3.8679,-1.5447,0.5179,1445.56,-1252.99,875.79
5080,-3.8684,-1.6295,0.5800,-1710.69,-1690.55,1110.35
5090,-3.8690,-1.7380,0.6285,-570.07,-1753.23,-1936.40
5100,-3.8696,-1.7687,0.6697,1539.31,465.33,579.35
5110,-3.8704,-1.6853,0.6630,1617.43,1730.90,-1967.47
5120,-3.8711,-1.5168,0.6167,289.31,871.70,-1326.84
5130,-3.8718,-1.3458,0.5726,1851.81,-1049.87,-1873.84
5140,-3.8726,-1.2250,0.5433,-257.57,1309.81,1891.72
5150,-3.8732,-1.1562,0.5433,-788.82,1560.06,1469.79
5160,-3.8737,-1.0914,0.5812,8.06,1560.24,1266.66
5170,-3.8741,-0.9905,0.6410,304.93,-1595.89,-264.53
5180,-3.8745,-0.8772,0.6918,1226.81,-1939.45,-123.78
5190,-3.8748,-0.7838,0.7189,-273.19,560.73,1907.59
5200,-3.8750,-0.6973,0.7209,-320.07,29.66,1985.78
5210,-3.8440,-0.5830,0.6827,-1241.94,295.47,1251.40
5220,-3.8444,-0.4111,0.6169,1383.06,-594.91,-1967.47
5230,-3.8447,-0.1989,0.5544,-616.94,-1016.48,1610.53
5240,-3.8452,0.0110,0.4940,-1445.07,-1016.05,-61.46
5250,-3.8456,0.1943,0.4321,1414.31,-765.62,469.67
5260,-3.8462,0.3246,0.3845,883.06,-687.13,-796.08
5270,-3.8467,0.3507,0.3857,1554.93,1219.36,985.11
5280,-3.8472,0.2598,0.4629,898.68,1375.67,391.36
5290,-3.8475,0.1279,0.5634,1258.06,-749.51,-327.27
5300,-3.8474,0.0677,0.6230,383.06,109.62,-1748.90
5310,-3.8472,0.1329,0.6509,679.93,-249.88,1876.16
5320,-3.8470,0.2856,0.6676,1023.68,-687.26,-1873.78
5330,-3.8470,0.4397,0.6541,570.56,1453.67,298.16
5340,-3.8473,0.5438,0.5854,289.31,-280.40,1219.97
5350,-3.8477,0.5977,0.5050,1617.43,-1061.46,-1733.28
5360,-3.8480,0.6332,0.4860,508.06,641.78,-764.65
5370,-3.8480,0.7069,0.5625,1054.93,-1795.65,485.29
5380,-3.8475,0.8785,0.6877,-1507.57,1.34,1626.10
5390,-3.8463,1.2039,0.7740,461.18,32.96,1329.47
5400,-3.8448,1.6664,0.7860,-1898.19,-919.56,-1154.79
5410,-3.8748,2.1351,0.7223,1304.93,612.61,-1732.85
5420,-3.8738,2.4623,0.6290,1304.93,457.28,720.15
5430,-3.8732,2.5791,0.6056,-820.07,520.39,969.97
5440,-3.8727,2.4912,0.6992,-1866.94,1520.63,-1701.97
5450,-3.8719,2.2391,0.8326,-1116.94,1504.82,1016.97
5460,-3.8710,1.9551,0.8949,-1382.57,-1417.54,1814.09
5470,-3.8698,1.8510,0.8660,-1741.94,-1449.34,970.46
5480,-3.8687,2.0002,0.8203,929.93,-1152.65,-482.73
5490,-3.8676,2.2657,0.8541,39.31,1003.91,-623.41
5500,-3.8665,2.4130,1.0089,-1976.32,1332.52,-857.73
5510,-3.8652,2.2650,1.2427,867.43,1145.32,1423.83
5520,-3.8640,1.8131,1.4835,1929.93,-933.11,1393.01
5530,-3.8629,1.1271,1.7122,86.18,1894.17,-653.38
5540,-3.8617,0.2721,1.8979,273.68,-841.55,972.05
5550,-3.8606,-0.4932,1.8796,-1163.82,-1062.01,581.79
5560,-3.8599,-0.8038,1.5646,883.06,608.40,113.04
5570,-3.8599,-0.6265,1.1211,1117.43,279.66,-1856.32
5580,-3.8605,-0.3146,0.7966,-179.44,-485.66,-544.74
5590,-3.8610,-0.1721,0.7286,-257.57,1983.70,298.40
5600,-3.8610,-0.2466,0.8328,1976.81,1280.88,548.28
5610,-3.8605,-0.4478,0.9084,445.56,-1391.11,892.21
5620,-3.8602,-0.7288,0.8824,-1304.44,295.96,-263.85
5630,-3.8605,-1.0629,0.8119,-1273.19,967.29,-1513.92
5640,-3.8613,-1.3503,0.7192,-38.82,-64.64,-1576.60
5650,-3.8624,-1.4508,0.6154,-835.69,75.44,1532.65
5660,-3.8635,-1.3192,0.5544,-1695.07,-1221.62,-1467.59
5670,-3.8644,-1.0981,0.5612,-851.32,-1018.25,1985.41
5680,-3.8651,-0.9791,0.6079,-554.44,-158.45,-1155.21
5690,-3.8658,-1.0571,0.6619,-1320.07,1826.17,-280.09
5700,-3.8668,-1.2622,0.6973,695.56,732.30,-701.84
5710,-3.8682,-1.4912,0.6893,-1554.44,1263.12,-1858.03
5720,-3.8696,-1.6820,0.6764,1133.06,247.07,1016.97
5730,-3.8710,-1.7668,0.6942,711.18,-1409.55,-1576.84
5740,-3.8718,-1.7263,0.7356,1851.81,871.52,157.59
5750,-3.8724,-1.5975,0.7823,-960.69,-1831.54,1454.53
5760,-3.8728,-1.4725,0.7991,-476.32,153.08,48.40
5770,-3.8733,-1.3922,0.7820,-476.32,-1706.05,-1639.10
5780,-3.8738,-1.3312,0.7504,1804.93,106.63,1704.65
5790,-3.8744,-1.2765,0.7205,1617.43,59.88,-1717.29
5800,-3.8750,-1.1997,0.7128,617.43,231.87,1860.78
5810,-3.8444,-1.1088,0.7151,-1554.44,-752.38,-592.41
5820,-3.8447,-0.9984,0.6960,-1913.82,-455.32,1688.84
5830,-3.8450,-0.8606,0.6532,211.18,1107.42,110.72
5840,-3.8452,-0.7002,0.6025,1851.81,-376.71,532.47
5850,-3.8455,-0.5333,0.5483,-1616.94,1139.22,1923.03
5860,-3.8456,-0.3723,0.4933,-257.57,-1797.97,594.79
5870,-3.8457,-0.2231,0.4285,351.81,-844.48,329.04
5880,-3.8458,-0.1085,0.3658,-554.44,-1141.11,688.29
5890,-3.8459,-0.0363,0.3499,-1882.57,-1156.49,-1171.20
5900,-3.8458,-0.0055,0.3809,-632.57,796.75,297.55
5910,-3.8457,0.0082,0.4023,-695.07,765.56,1110.11
5920,-3.8456,0.0551,0.3807,1054.93,-500.00,-1593.02
5930,-3.8456,0.1510,0.3198,-945.07,734.44,-702.39
5940,-3.8457,0.2679,0.2360,-663.82,937.74,375.61
5950,-3.8461,0.3503,0.1603,-1695.07,-1796.39,281.68
5960,-3.8464,0.3486,0.1260,851.81,516.30,-1780.94
5970,-3.8464,0.3202,0.1545,633.06,125.67,187.74
5980,-3.8463,0.3960,0.2426,992.43,-218.14,-515.38
5990,-3.8458,0.6055,0.3563,-1304.44,-952.39,797.30
6000,-3.8455,0.8450,0.4506,1508.06,1610.53,-1186.83
6010,-3.8451,1.0101,0.4756,164.31,1673.52,78.98
6020,-3.8451,1.0789,0.4180,1304.93,876.95,1688.42
6030,-3.8452,1.0725,0.3357,-1898.19,1502.08,-374.21
6040,-3.8451,1.1051,0.3204,1289.31,-1029.17,-405.64
6050,-3.8445,1.3195,0.4116,1461.18,1017.76,1156.86
6060,-3.8749,1.6501,0.5454,898.68,690.06,610.17
6070,-3.8741,1.9354,0.6583,-773.19,1815.67,1626.04
6080,-3.8738,2.0614,0.7379,-257.57,269.35,-279.97
6090,-3.8737,2.0062,0.7861,-132.57,-1542.91,-45.47
6100,-3.8735,1.8530,0.8149,804.93,628.91,1564.03
6110,-3.8733,1.6974,0.8657,1195.56,316.10,1954.71
6120,-3.8726,1.6213,0.9532,1273.68,-1184.20,1.65
6130,-3.8716,1.6079,1.0178,-460.69,-1981.26,1439.33
6140,-3.8706,1.5474,1.0267,1820.56,-1715.64,-279.30
6150,-3.8696,1.3699,1.0259,-1929.44,-575.13,861.33
6160,-3.8688,1.1488,1.0664,-648.19,-684.88,658.20
6170,-3.8679,1.0564,1.1239,-945.07,502.20,-951.05
6180,-3.8668,1.1396,1.1796,-773.19,-138.61,658.39
6190,-3.8657,1.2351,1.2716,1883.06,-1013.43,1205.38
6200,-3.8645,1.1576,1.3820,-1898.19,-1231.99,549.32
6210,-3.8633,0.8632,1.4313,179.93,892.88,1424.56
6220,-3.8622,0.4526,1.4105,-1507.57,-795.23,-1637.88
6230,-3.8615,0.0620,1.3372,1945.56,547.73,-575.38
6240,-3.8611,-0.2277,1.2134,-54.44,-843.69,1721.31
6250,-3.8611,-0.3994,1.0953,-1132.57,-672.36,-1388.31
6260,-3.8611,-0.5051,1.0341,883.06,217.96,1595.89
6270,-3.8611,-0.6200,0.9958,-648.19,373.96,908.26
6280,-3.8612,-0.7617,0.9171,648.68,-516.85,-1748.11
6290,-3.8615,-0.8729,0.8232,-1491.94,1404.72,-138.85
6300,-3.8617,-0.9583,0.7578,273.68,1388.92,1485.96
6310,-3.8621,-1.0413,0.7402,1351.81,1013.73,-1904.79
6320,-3.8624,-1.1179,0.7715,-1273.19,-1236.45,-1654.85
6330,-3.8629,-1.2201,0.8196,914.31,-1236.57,-1389.16
6340,-3.8635,-1.3669,0.8468,-163.82,919.43,423.46
6350,-3.8644,-1.4978,0.8245,1039.31,403.56,157.90
6360,-3.8654,-1.5779,0.7784,289.31,1543.95,17.21
6370,-3.8665,-1.6281,0.7463,-1960.69,-346.86,-1623.54
6380,-3.8674,-1.6345,0.7469,-382.57,-456.36,1782.65
6390,-3.8684,-1.6456,0.7811,-1210.69,-378.23,-779.85
6400,-3.8693,-1.6752,0.8368,1367.43,-3.23,923.34
6410,-3.8702,-1.6990,0.8822,1586.18,-878.30,1017.21
6420,-3.8712,-1.6766,0.9050,-1460.69,934.14,-638.92
6430,-3.8719,-1.5978,0.9170,1398.68,-143.92,-1545.17
6440,-3.8727,-1.4956,0.9148,-507.57,1387.45,-795.10
6450,-3.8734,-1.3842,0.8812,570.56,1106.45,-545.10
6460,-3.8741,-1.2537,0.8159,-1163.82,809.75,-498.29
6470,-3.8748,-1.0839,0.7565,-460.69,450.62,1423.46
6480,-3.8441,-0.8932,0.7351,1273.68,841.61,-1326.66
6490,-3.8446,-0.7170,0.7375,1679.93,-1892.40,-592.35
6500,-3.8450,-0.5667,0.7257,226.81,-1579.53,-717.35
6510,-3.8452,-0.4258,0.6859,-523.19,905.09,17.03
6520,-3.8457,-0.2917,0.6346,1508.06,-188.35,-1779.97
6530,-3.8462,-0.1849,0.5913,-1335.69,1249.39,673.10
6540,-3.8468,-0.1273,0.5381,336.18,-297.24,1360.47
6550,-3.8473,-0.0936,0.4573,-288.82,890.32,1079.16
6560,-3.8475,-0.0433,0.3915,23.68,-1453.31,860.23
6570,-3.8475,0.0410,0.4082,-1538.82,-1875.12,-311.77
6580,-3.8472,0.1440,0.4978,1258.06,250.06,-1280.46
6590,-3.8468,0.2230,0.5822,-1554.44,-281.01,-764.71
6600,-3.8464,0.2505,0.6042,554.93,-1483.95,813.60
6610,-3.8463,0.2266,0.5687,70.56,1344.24,641.78
6620,-3.8464,0.1797,0.5255,1008.06,797.30,-1733.28
6630,-3.8466,0.1689,0.5200,-991.94,-734.07,1094.73
6640,-3.8467,0.2487,0.5638,1633.06,-1437.19,1985.35
6650,-3.8466,0.4269,0.6628,-163.82,172.30,16.72
6660,-3.8464,0.6383,0.7798,-1351.32,844.54,-186.22
6670,-3.8459,0.8269,0.8380,1711.18,-186.28,-420.41
6680,-3.8452,0.9802,0.7980,1851.81,-732.79,-982.79
6690,-3.8444,1.1210,0.6797,1476.81,-1857.48,32.78
6700,-3.8439,1.2601,0.5684,-507.57,-997.86,-561.22
6710,-3.8748,1.3610,0.5529,1304.93,752.44,704.22
6720,-3.8746,1.4673,0.6259,-1788.82,-1231.75,469.79
6730,-3.8743,1.6688,0.7197,-179.44,112.18,1485.60
6740,-3.8733,1.9410,0.8104,1617.43,128.23,1407.65
6750,-3.8719,2.1753,0.8794,461.18,-261.84,126.53
6760,-3.8708,2.2556,0.8920,-1554.44,566.71,-1638.92
6770,-3.8700,2.1201,0.8535,726.81,-1823.73,-1060.79
6780,-3.8693,1.8308,0.8165,-616.94,1254.09,1314.15
6790,-3.8687,1.5157,0.8167,-1648.19,519.17,-1889.04
6800,-3.8679,1.3412,0.8895,-1976.32,534.18,-248.41
6810,-3.8668,1.3322,1.0248,-320.07,1861.94,548.58
6820,-3.8657,1.3545,1.1359,-1476.32,-825.56,-1904.30
6830,-3.8645,1.3402,1.2125,1383.06,1393.25,-1966.55
6840,-3.8633,1.2416,1.3315,-445.07,-794.31,1783.57
6850,-3.8621,0.9965,1.5338,-1070.07,-1560.12,440.06
6860,-3.8611,0.5969,1.7246,-445.07,330.02,-1247.01
6870,-3.8604,0.0701,1.7440,414.31,751.16,1737.73
6880,-3.8601,-0.5178,1.5718,976.81,-765.50,1300.23
6890,-3.8602,-1.0182,1.3136,1726.81,1202.09,143.68
6900,-3.8606,-1.2252,1.0480,1679.93,154.24,533.81
6910,-3.8610,-1.1443,0.8016,-820.07,-1846.19,64.51
6920,-3.8613,-0.9437,0.6086,1539.31,-1377.26,-29.72
6930,-3.8613,-0.7367,0.4657,-788.82,1919.98,32.41
6940,-3.8616,-0.5891,0.3208,1711.18,-376.46,-1780.40
6950,-3.8619,-0.4918,0.1600,601.81,1076.97,1156.86
6960,-3.8625,-0.4347,0.0184,1054.93,499.02,765.93
6970,-3.8633,-0.4442,-0.0529,367.43,-1625.85,1328.12
6980,-3.8640,-0.5587,-0.0229,-851.32,1249.08,-1437.62
6990,-3.8646,-0.7805,0.1116,492.43,1077.03,-1593.81
7000,-3.8652,-1.0867,0.2758,101.81,-1704.65,-1156.07
7010,-3.8658,-1.4458,0.3741,914.31,-689.64,937.99
7020,-3.8666,-1.7411,0.3951,-1054.44,-96.62,63.17
7030,-3.8676,-1.8916,0.3774,1148.68,-1409.67,-546.14
7040,-3.8684,-1.8993,0.3610,1883.06,324.40,375.73
7050,-3.8694,-1.8121,0.3641,898.68,-1784.97,-624.33
7060,-3.8701,-1.7321,0.3912,54.93,-1378.54,-639.95
7070,-3.8707,-1.7047,0.4437,-1695.07,-1909.67,-858.64
7080,-3.8712,-1.7229,0.5116,1804.93,809.14,203.98
7090,-3.8718,-1.7527,0.5837,-523.19,1496.58,1547.85
7100,-3.8723,-1.7605,0.6461,-335.69,-1269.10,47.97
7110,-3.8728,-1.7122,0.6755,-1335.69,-1284.73,266.85
7120,-3.8734,-1.6057,0.6527,851.81,-1518.98,-795.59
7130,-3.8739,-1.4744,0.6086,-1523.19,-440.67,32.47
7140,-3.8745,-1.3408,0.5953,-710.69,1918.95,1548.03
7150,-3.8750,-1.1959,0.6165,383.06,216.13,1469.91
7160,-3.8442,-1.0187,0.6438,-1070.07,-1080.51,-76.97
7170,-3.8446,-0.8147,0.6572,1617.43,-1580.14,-1389.40
7180,-3.8451,-0.5983,0.6556,-273.19,138.98,-1264.34
7190,-3.8456,-0.3838,0.6575,-570.07,-63.72,626.22
7200,-3.8462,-0.2007,0.6683,-1116.94,171.08,-326.84
7210,-3.8466,-0.0787,0.6699,-1679.44,1562.07,-1342.47
7220,-3.8468,-0.0121,0.6497,1929.93,1765.44,1985.66
7230,-3.8470,0.0317,0.6073,-1538.82,-828.19,-889.40
7240,-3.8473,0.0831,0.5712,70.56,1734.44,-1998.84
7250,-3.8477,0.1489,0.5779,-1351.32,1109.50,-1295.78
7260,-3.8479,0.2284,0.6183,-929.44,1968.99,1204.22
7270,-3.8480,0.3242,0.6604,1242.43,-858.95,376.16
7280,-3.8480,0.4462,0.6896,1508.06,531.86,-1451.84
7290,-3.8477,0.6013,0.6929,1117.43,266.48,1563.84
7300,-3.8472,0.7866,0.6603,976.81,688.66,-1311.16
7310,-3.8467,0.9800,0.6207,695.56,517.15,-92.47
7320,-3.8462,1.1740,0.6295,1445.56,-544.98,1344.91
7330,-3.8459,1.3040,0.6879,-1726.32,580.38,-1108.15
7340,-3.8456,1.3237,0.7184,-1085.69,49.38,704.47
7350,-3.8451,1.3750,0.6827,1445.56,-44.31,-436.16
7360,-3.8441,1.5400,0.6514,8.06,-606.69,-14.34
7370,-3.8741,1.7515,0.6921,1133.06,-622.01,-967.53
7380,-3.8730,1.9187,0.7976,195.56,597.17,1720.09
7390,-3.8723,1.9463,0.8837,1601.81,-1902.53,-1701.60
7400,-3.8718,1.7954,0.8712,1133.06,1113.16,-295.17
7410,-3.8711,1.5659,0.8164,1820.56,-480.90,767.27
7420,-3.8701,1.4365,0.8141,445.56,503.05,970.34
7430,-3.8689,1.4969,0.8879,-116.94,205.87,-701.54
7440,-3.8674,1.6677,1.0159,-382.57,1659.12,-1982.67
7450,-3.8661,1.8101,1.1637,1476.81,-1965.52,1939.45
7460,-3.8649,1.8304,1.3075,-304.44,956.60,1408.51
7470,-3.8638,1.7058,1.4260,-1695.07,-637.08,-216.25
7480,-3.8625,1.4833,1.4894,-1648.19,-1465.45,330.87
7490,-3.8617,1.2001,1.4840,1867.43,-1356.51,596.62
7500,-3.8612,0.9160,1.4287,1617.43,1955.44,580.99
7510,-3.8611,0.7090,1.3273,1258.06,-1123.23,-1106.63
7520,-3.8610,0.6141,1.2123,-1241.94,1891.97,-1981.81
7530,-3.8608,0.6215,1.1246,-1382.57,-826.97,1471.07
7540,-3.8607,0.6324,1.0668,-445.07,-45.72,799.01
7550,-3.8607,0.5125,1.0596,961.18,548.10,-1154.17
7560,-3.8607,0.2078,1.0920,1601.81,-374.02,627.01
7570,-3.8610,-0.2081,1.1185,-1398.19,-218.38,1033.33
7580,-3.8613,-0.5916,1.1345,1367.43,-812.93,1486.51
7590,-3.8619,-0.8423,1.1456,289.31,1233.22,-91.55
7600,-3.8627,-0.9552,1.1084,195.56,-1345.40,1299.07
7610,-3.8636,-1.0127,1.0286,1742.43,1888.73,783.39
7620,-3.8646,-1.1136,0.9889,-1616.94,-330.14,501.95
7630,-3.8656,-1.2892,0.9977,1461.18,-1408.45,908.14
7640,-3.8666,-1.4833,0.9968,-1007.57,-283.81,658.14
7650,-3.8676,-1.6567,0.9760,-1851.32,-393.55,1861.27
7660,-3.8684,-1.7817,0.9648,-54.44,934.20,-1732.48
7670,-3.8691,-1.8007,0.9508,-54.44,-487.92,95.58
7680,-3.8700,-1.7659,0.9182,1523.68,1715.21,1204.96
7690,-3.8708,-1.7144,0.8839,1976.81,1543.40,1048.65
7700,-3.8717,-1.6324,0.8488,570.56,1152.89,720.46
7710,-3.8724,-1.5485,0.8313,-945.07,653.02,79.77
7720,-3.8730,-1.4446,0.8394,1804.93,-1581.18,1423.46
7730,-3.8735,-1.3413,0.8347,-898.19,-549.74,-889.04
7740,-3.8739,-1.2473,0.8065,320.56,-1143.25,-1264.04
7750,-3.8743,-1.1384,0.7654,351.81,-752.44,1454.65
7760,-3.8748,-1.0096,0.7240,-1710.69,1982.12,-1717.29
7770,-3.8440,-0.8340,0.6802,-1226.32,685.49,-1795.47
7780,-3.8445,-0.6450,0.6147,1258.06,-923.52,1938.78
7790,-3.8448,-0.4785,0.5496,1445.56,-1298.16,407.41
7800,-3.8452,-0.3346,0.5145,-1241.94,-1641.60,-592.71
7810,-3.8453,-0.2167,0.5074,1179.93,1874.33,-1967.77
7820,-3.8455,-0.1053,0.5015,273.68,968.32,-1124.02
7830,-3.8456,0.0173,0.4707,-1476.32,202.88,-608.40
7840,-3.8457,0.1443,0.4177,-1773.19,250.00,360.29
7850,-3.8461,0.2565,0.3649,-1523.19,1468.99,1141.42
7860,-3.8464,0.3303,0.3313,836.18,-1296.39,516.30
7870,-3.8468,0.3646,0.3145,-1710.69,-1593.14,1391.24
7880,-3.8470,0.3942,0.3085,-1320.07,250.67,-1015.01
7890,-3.8469,0.4404,0.3265,-1538.82,-514.89,750.55
7900,-3.8467,0.4775,0.3882,383.06,1797.73,-780.64
7910,-3.8462,0.4805,0.4919,1133.06,1688.42,-983.64
7920,-3.8457,0.4141,0.6007,1508.06,-1030.33,-1249.08
7930,-3.8453,0.2513,0.6719,1008.06,891.42,-1811.34
7940,-3.8451,0.0580,0.7063,179.93,-1999.51,735.66
7950,-3.8450,-0.0662,0.7333,-570.07,-1593.69,157.59
7960,-3.8450,-0.0179,0.7432,-460.69,1874.82,-889.22
7970,-3.8447,0.2749,0.7317,1711.18,-859.44,-404.85
7980,-3.8441,0.7375,0.7264,-804.44,1656.74,1376.40
7990,-3.8746,1.1896,0.7311,-1585.69,985.78,1282.65
8000,-3.8739,1.5245,0.7316,273.68,1580.44,1657.65
8010,-3.8733,1.6862,0.7153,-851.32,1643.55,-1857.97
8020,-3.8728,1.7178,0.6938,-163.82,-434.27,-920.53
8030,-3.8722,1.7253,0.6807,-116.94,815.80,1095.09
8040,-3.8716,1.8009,0.6980,851.81,-871.64,-123.72
8050,-3.8707,1.9789,0.7406,-1476.32,1347.23,641.97
8060,-3.8701,2.1687,0.7590,1304.93,-1199.28,-232.97
8070,-3.8694,2.2740,0.7434,1601.81,1160.46,563.96
8080,-3.8689,2.2394,0.7384,-913.82,-839.36,-1686.10
8090,-3.8684,2.1055,0.7938,-1351.32,-1480.04,-1529.85
8100,-3.8678,1.9484,0.9213,1508.06,1613.46,-1951.60
8110,-3.8669,1.7992,1.0808,1398.68,1925.66,408.02
8120,-3.8661,1.6692,1.1942,-1695.07,-1652.77,1627.08
8130,-3.8654,1.5209,1.2512,1664.31,862.61,-294.56
8140,-3.8647,1.2980,1.2998,-1320.07,159.18,1127.44
8150,-3.8646,1.0034,1.3383,-1851.32,-1622.50,2.50
8160,-3.8650,0.6898,1.3401,445.56,-701.17,533.81
8170,-3.8655,0.4210,1.3389,304.93,-467.41,346.31
8180,-3.8658,0.1803,1.3574,1898.68,-624.21,-1434.94
8190,-3.8657,-0.0548,1.3499,-913.82,1750.31,-1403.63
8200,-3.8650,-0.1931,1.2985,992.43,796.75,627.62
8210,-3.8639,-0.1340,1.2467,-710.69,-1781.68,1221.25
8220,-3.8627,0.0815,1.1880,-1148.19,-406.56,939.88
8230,-3.8617,0.2803,1.0436,-1554.44,62.62,330.44
8240,-3.8613,0.3074,0.8405,-116.94,1578.61,-1247.99
8250,-3.8615,0.1287,0.6637,-648.19,-421.33,142.21
8260,-3.8622,-0.1650,0.5446,476.81,953.37,-29.97
8270,-3.8628,-0.4246,0.5050,-1116.94,1718.38,-842.71
8280,-3.8632,-0.5476,0.5259,1664.31,655.40,563.48
8290,-3.8634,-0.5419,0.5635,1914.31,-672.97,547.85
8300,-3.8636,-0.4692,0.6094,-1351.32,139.53,-1561.40
8310,-3.8639,-0.4449,0.6649,-54.44,-1985.35,126.16
8320,-3.8645,-0.5732,0.7211,-945.07,1124.08,1423.16
8330,-3.8654,-0.8446,0.7706,-1366.94,311.34,954.53
8340,-3.8665,-1.1796,0.7999,-101.32,-1345.46,48.34
8350,-3.8678,-1.4666,0.7697,1023.68,-1596.07,1782.78
8360,-3.8690,-1.5494,0.7161,289.31,-1471.62,1767.09
8370,-3.8700,-1.4197,0.7167,1679.93,-331.18,-373.66
8380,-3.8706,-1.1951,0.7516,-1710.69,-252.81,-389.28
8390,-3.8710,-0.9813,0.7692,-960.69,216.37,1017.09
8400,-3.8715,-0.8574,0.7682,-1601.32,-1533.20,-1029.79
8410,-3.8719,-0.7961,0.7651,-1741.94,-1657.96,-998.54
8420,-3.8724,-0.7656,0.7616,-1898.19,1951.54,1329.59
8430,-3.8730,-0.7476,0.7523,-1991.94,1498.47,-811.04
8440,-3.8737,-0.7385,0.7183,320.56,311.04,-45.41
8450,-3.8743,-0.7114,0.6555,1476.81,-48.34,-748.66
8460,-3.8749,-0.6364,0.5824,945.56,-79.53,-1514.40
8470,-3.8442,-0.5269,0.5188,-1445.07,-1438.78,-217.65
8480,-3.8447,-0.4021,0.4636,570.56,-1579.16,-14.65
8490,-3.8451,-0.2922,0.4030,539.31,-641.42,-1499.15
8500,-3.8455,-0.2059,0.3446,-1398.19,-406.86,-968.02
8510,-3.8457,-0.1348,0.3087,1648.68,124.57,-1608.70
8520,-3.8458,-0.0723,0.2928,-1241.94,-469.06,563.05
8530,-3.8459,-0.0194,0.2583,-1241.94,1499.82,0.55
8540,-3.8461,0.0238,0.2036,1523.68,1078.06,62.99
8550,-3.8462,0.0765,0.1722,-945.07,-1937.50,406.62
8560,-3.8463,0.1422,0.1790,1804.93,-1953.00,406.56
8570,-3.8464,0.1917,0.2086,-1788.82,-1093.51,750.31
8580,-3.8466,0.2086,0.2526,539.31,-1296.51,-1687.13
8590,-3.8466,0.2058,0.3119,-1288.82,328.49,1375.49
8600,-3.8466,0.2001,0.3865,-1648.19,-77.76,-1015.08
8610,-3.8463,0.2067,0.4613,1617.43,1469.12,625.73
8620,-3.8461,0.2408,0.5155,-1538.82,-952.76,-1421.02
8630,-3.8457,0.3068,0.5558,-1163.82,1984.80,-342.77
8640,-3.8452,0.3881,0.6084,-726.32,-858.83,-1889.59
8650,-3.8447,0.4636,0.6749,1679.93,1875.73,266.78
8660,-3.8444,0.5156,0.7235,-648.19,-1608.52,657.53
8670,-3.8441,0.5443,0.7383,-1991.94,610.35,-670.47
8680,-3.8750,0.5980,0.7367,1679.93,-1498.96,-482.97
8690,-3.8744,0.7189,0.7650,554.93,-1701.97,-1076.72
8700,-3.8734,0.8881,0.8594,23.68,1923.28,376.46
8710,-3.8723,1.0935,0.9915,1679.93,-1998.29,642.27
8720,-3.8712,1.2786,1.0939,-23.19,-1091.67,1439.39
8730,-3.8702,1.3416,1.1190,-335.69,18.07,486.51
8740,-3.8696,1.3473,1.0659,-273.19,-763.06,1142.76
8750,-3.8694,1.4292,0.9858,461.18,440.12,-1216.67
8760,-3.8693,1.6536,0.9547,-1054.44,-1809.75,-1763.73
8770,-3.8691,1.9777,0.9971,-335.69,-1793.70,-935.67
8780,-3.8688,2.2729,1.0674,1148.68,-371.15,-1576.23
8790,-3.8682,2.4177,1.1129,-1054.44,629.39,158.33
8800,-3.8677,2.3574,1.1338,1476.81,-1542.18,-279.11
8810,-3.8672,2.2046,1.1698,1758.06,1129.58,-29.05
8820,-3.8668,2.0864,1.2363,-1804.44,1738.65,-1169.62
8830,-3.8666,2.0048,1.3096,-929.44,-1745.97,-403.87
8840,-3.8661,1.9115,1.3706,617.43,-371.09,424.38
8850,-3.8656,1.7408,1.4338,679.93,-558.78,-44.25
8860,-3.8647,1.4182,1.5126,-1163.82,-465.39,1346.50
8870,-3.8639,0.9677,1.5598,1539.31,1612.12,440.43
8880,-3.8632,0.5011,1.5210,-132.57,-341.92,237.37
8890,-3.8627,0.1144,1.4343,148.68,-1311.52,-75.20
8900,-3.8621,-0.1364,1.3671,-1351.32,-406.07,-981.63
8910,-3.8615,-0.2448,1.3262,-1445.07,-1000.31,-888.00
8920,-3.8608,-0.2727,1.2850,679.93,1765.14,424.44
8930,-3.8607,-0.3214,1.2180,1101.81,499.45,-106.87
8940,-3.8608,-0.4509,1.1172,-1132.57,-78.80,1267.94
8950,-3.8615,-0.6399,0.9951,-1710.69,-985.29,-1247.86
8960,-3.8622,-0.8245,0.8658,-1898.19,-610.66,595.64
8970,-3.8632,-0.9414,0.7333,-1523.19,-1157.90,1611.02
8980,-3.8641,-0.9996,0.6083,-491.94,1873.11,704.53
8990,-3.8651,-0.9919,0.5276,54.93,1873.05,438.66
9000,-3.8661,-0.9065,0.5029,1039.31,-455.08,-1795.90
9010,-3.8669,-0.7935,0.5283,-23.19,388.79,-1186.52
9020,-3.8677,-0.7446,0.6127,-1554.44,-360.96,1563.48
9030,-3.8684,-0.8267,0.7158,695.56,-1563.96,1594.91
9040,-3.8691,-0.9786,0.7808,-1804.44,-361.02,-873.66
9050,-3.8698,-1.1497,0.8047,-1257.57,-48.83,1095.21
9060,-3.8705,-1.2814,0.8134,851.81,-986.63,-1920.35
9070,-3.8712,-1.2985,0.8010,-7.57,122.44,-1185.91
9080,-3.8718,-1.2057,0.7747,1804.93,-1455.69,-717.22
9090,-3.8722,-1.0435,0.7637,1679.93,-830.51,1188.96
9100,-3.8726,-0.8846,0.7645,-1554.44,1763.55,1970.21
9110,-3.8729,-0.7769,0.7600,-1226.32,1873.23,-186.04
9120,-3.8732,-0.7233,0.7316,570.56,1295.35,1626.46
9130,-3.8735,-0.6920,0.6881,-570.07,1654.79,-1186.10
9140,-3.8739,-0.6375,0.6581,-570.07,92.35,-576.78
9150,-3.8743,-0.5613,0.6476,-1585.69,248.72,-45.59
9160,-3.8745,-0.4819,0.6376,164.31,-1094.85,829.35
9170,-3.8749,-0.4109,0.6079,-1679.44,1624.02,-1811.28
9180,-3.8440,-0.3409,0.5601,-585.69,1827.27,-186.34
9190,-3.8442,-0.2673,0.5063,367.43,-297.55,1297.91
9200,-3.8446,-0.1893,0.4479,1789.31,827.58,-1655.27
9210,-3.8450,-0.1099,0.3851,-226.32,1343.32,-452.27
9220,-3.8452,-0.0287,0.3335,1945.56,1312.26,-1702.39
9230,-3.8455,0.0679,0.2931,336.18,-1296.94,1922.49
9240,-3.8457,0.1707,0.2493,695.56,1515.75,1000.55
9250,-3.8459,0.2375,0.1995,1851.81,-93.44,766.05
9260,-3.8462,0.2323,0.1620,-1585.69,1531.68,-546.51
9270,-3.8462,0.1621,0.1606,1742.43,734.80,1937.81
9280,-3.8462,0.0988,0.1901,758.06,562.81,-296.57
9290,-3.8459,0.1095,0.2179,648.68,328.31,15.99
9300,-3.8458,0.1814,0.2206,-1976.32,-109.19,-1796.51
9310,-3.8456,0.2673,0.2051,-773.19,234.68,984.80
9320,-3.8455,0.3380,0.1951,-1773.19,-1749.51,-952.76
9330,-3.8452,0.3910,0.2104,-726.32,969.36,172.24
9340,-3.8451,0.4407,0.2576,-1945.07,-1061.77,890.99
9350,-3.8450,0.5052,0.3167,414.31,969.60,-1077.64
9360,-3.8446,0.6090,0.3616,679.93,532.23,-1358.76
9370,-3.8439,0.7367,0.4110,1961.18,-1717.59,485.05
9380,-3.8743,0.8350,0.5050,-1695.07,610.78,-1499.21
9390,-3.8733,0.9222,0.6288,-1116.94,642.21,1297.85
9400,-3.8726,1.0104,0.7235,-1945.07,486.15,-1748.78
9410,-3.8721,1.0458,0.7629,1336.18,611.33,1454.53
9420,-3.8719,1.0615,0.7684,1867.43,1658.26,1829.59
9430,-3.8721,1.1184,0.7603,-116.94,-1638.61,-451.66
9440,-3.8719,1.2335,0.7534,-835.69,1314.64,1220.21
9450,-3.8715,1.4225,0.8016,1898.68,439.88,798.34
9460,-3.8707,1.6838,0.9020,-1913.82,-1387.88,-1435.97
9470,-3.8700,1.9819,0.9352,-460.69,-543.64,1970.46
9480,-3.8695,2.2629,0.8425,1695.56,-293.03,595.52
9490,-3.8694,2.4609,0.7094,1664.31,-151.86,1642.21
9500,-3.8695,2.5168,0.6235,-991.94,-1198.36,-1373.66
9510,-3.8695,2.4448,0.6263,-1835.69,-182.62,110.53
9520,-3.8693,2.2821,0.7291,945.56,176.64,188.72
9530,-3.8687,2.0216,0.8887,117.43,1332.58,-1482.97
9540,-3.8676,1.6996,1.0640,-1226.32,1753.91,1470.46
9550,-3.8663,1.4156,1.2434,1554.93,190.80,1361.45
9560,-3.8652,1.2224,1.3964,1211.18,-841.00,1752.38
9570,-3.8644,1.0779,1.4695,476.81,-1263.24,-591.06
9580,-3.8636,0.9038,1.4576,1976.81,95.83,1752.87
9590,-3.8633,0.6562,1.4008,-304.44,-1420.17,-340.94
9600,-3.8630,0.3423,1.3378,8.06,-701.84,-1294.19
9610,-3.8629,-0.0035,1.2863,-179.44,-765.01,-1544.31
9620,-3.8628,-0.3287,1.2191,-445.07,656.19,1299.38
9630,-3.8628,-0.5527,1.1017,1929.93,61.83,-1091.37
9640,-3.8628,-0.6274,0.9622,1258.06,1030.15,314.64
9650,-3.8632,-0.5867,0.8560,-304.44,-829.41,-904.42
9660,-3.8636,-0.5255,0.7849,914.31,1576.97,-1310.85
9670,-3.8643,-0.5050,0.7297,742.43,483.34,1939.03
9680,-3.8650,-0.5228,0.6816,-632.57,1420.84,-186.10
9690,-3.8656,-0.5795,0.6396,1086.18,-735.41,1595.03
9700,-3.8663,-0.6561,0.5996,1836.18,1889.47,-248.78
9710,-3.8669,-0.7275,0.5472,23.68,764.34,1829.28
9720,-3.8676,-0.7886,0.4949,-1116.94,-1938.96,672.91
9730,-3.8682,-0.8038,0.4457,-929.44,-642.21,1735.29
9740,-3.8687,-0.7588,0.4027,1117.43,1060.91,-1889.77
9750,-3.8690,-0.6956,0.4004,-1116.94,-439.03,1516.36
9760,-3.8694,-0.6299,0.4263,-1023.19,-735.78,1235.11
9770,-3.8699,-0.5890,0.4333,-616.94,-1423.16,-1280.46
9780,-3.8704,-0.6040,0.4224,617.43,-516.78,-858.58
9790,-3.8707,-0.6382,0.4222,-1304.44,-1923.10,453.92
9800,-3.8712,-0.6672,0.4336,-1679.44,-1938.78,-1530.46
9810,-3.8716,-0.6854,0.4446,-1398.19,-485.72,875.79
9820,-3.8721,-0.6842,0.4526,273.68,920.53,-186.65
9830,-3.8724,-0.6581,0.4691,429.93,1951.78,-202.27
9840,-3.8727,-0.6163,0.4963,-226.32,61.16,1375.92
9850,-3.8729,-0.5723,0.5306,1117.43,-454.35,344.67
9860,-3.8732,-0.5233,0.5615,-1241.94,-63.66,110.35
9870,-3.8735,-0.4745,0.5691,1023.68,-110.41,-14.59
9880,-3.8738,-0.4258,0.5469,-726.32,858.40,-420.78
9890,-3.8740,-0.3651,0.5072,1508.06,-1985.23,-1342.71
9900,-3.8743,-0.2880,0.4607,1273.68,936.77,1016.60
9910,-3.8746,-0.2091,0.4137,-851.32,-1016.24,-733.52
9920,-3.8749,-0.1399,0.3766,1242.43,968.32,1735.17
9930,-3.8439,-0.0795,0.3446,-1898.19,218.44,235.11
9940,-3.8442,-0.0266,0.3083,1836.18,124.82,-968.08
9950,-3.8445,0.0110,0.2747,601.81,-515.69,-1218.20
9960,-3.8446,0.0387,0.2571,1414.31,-843.75,312.99
9970,-3.8447,0.0756,0.2593,961.18,906.31,484.86
9980,-3.8448,0.1249,0.2694,1679.93,1187.62,-749.51
9990,-3.8448,0.1731,0.2758,-7.57,-1515.44,-796.39
10000,-3.8448,0.2104,0.2786,-1835.69,-702.82,-1093.26
10010,-3.8448,0.2258,0.2781,-1054.44,-343.38,1672.36
10020,-3.8448,0.2202,0.2756,914.31,-405.82,47.36
10030,-3.8450,0.2188,0.2837,195.56,-718.32,-202.64
10040,-3.8448,0.2422,0.3030,8.06,312.93,-1421.33
10050,-3.8446,0.2961,0.3237,-991.94,-1218.32,1609.92
10060,-3.8442,0.3741,0.3478,1914.31,1438.05,1969.36
10070,-3.8750,0.4633,0.3739,-101.32,516.30,-1546.20
10080,-3.8745,0.5537,0.4069,-695.07,-139.77,-405.58
10090,-3.8740,0.6313,0.4426,-1116.94,79.16,-1936.71
10100,-3.8737,0.7073,0.4402,820.56,657.47,922.73
10110,-3.8734,0.8082,0.3776,-1460.69,345.09,1235.23
10120,-3.8732,0.9100,0.2961,-538.82,329.65,1313.23
10130,-3.8729,1.0179,0.2726,492.43,1908.02,-77.58
10140,-3.8724,1.1396,0.3403,-1695.07,-1107.42,469.24
10150,-3.8721,1.2319,0.4578,1883.06,-435.30,750.61
10160,-3.8717,1.3141,0.5558,1695.56,-1403.87,813.35
10170,-3.8713,1.3986,0.5962,211.18,-856.81,-1186.46
10180,-3.8707,1.4469,0.5802,-976.32,315.19,157.41
10190,-3.8702,1.4987,0.5261,1211.18,-1731.57,-717.65
10200,-3.8696,1.5760,0.4626,-163.82,-653.38,922.85
10210,-3.8693,1.6472,0.4003,1742.43,-778.20,-967.90
10220,-3.8688,1.6974,0.3353,-1148.19,-762.45,485.11
10230,-3.8683,1.7015,0.2998,1273.68,-1074.83,-1765.01
10240,-3.8676,1.6656,0.3353,1804.93,-1621.70,-1999.45
10250,-3.8667,1.6101,0.4410,1211.18,-1074.89,-1780.64
10260,-3.8657,1.5475,0.5880,-1898.19,456.24,94.60
10270,-3.8649,1.4664,0.7299,-1913.82,-731.38,860.47
10280,-3.8641,1.3253,0.8156,-288.82,1424.68,-1857.97
10290,-3.8635,1.1146,0.8212,1648.68,393.19,1048.46
10300,-3.8633,0.8667,0.7708,-1320.07,1111.51,-451.54
10310,-3.8632,0.6334,0.7279,-1054.44,-1342.10,-1607.91
10320,-3.8633,0.4462,0.7184,1086.18,1173.10,-326.72
10330,-3.8634,0.2838,0.7202,1117.43,-46.02,1954.47
10340,-3.8636,0.1261,0.7222,336.18,188.05,-1295.47
10350,-3.8639,-0.0289,0.7197,148.68,437.74,1360.78
10360,-3.8643,-0.1758,0.7024,304.93,140.56,-1842.35
10370,-3.8646,-0.2910,0.6768,1508.06,1921.51,-1561.16
10380,-3.8650,-0.3542,0.6514,-1241.94,-1359.99,1938.78
10390,-3.8655,-0.3716,0.6184,-1335.69,-610.11,-1045.65
10400,-3.8660,-0.3695,0.5831,445.56,-828.86,485.53
10410,-3.8667,-0.3729,0.5474,711.18,-1344.48,-1342.65
10420,-3.8674,-0.3718,0.4979,273.68,-1922.61,-748.96
10430,-3.8680,-0.3456,0.4318,414.31,-250.73,954.04
10440,-3.8687,-0.3156,0.3585,-226.32,-719.48,1328.92
10450,-3.8691,-0.2891,0.3076,-382.57,1905.58,703.80
10460,-3.8696,-0.2632,0.2810,-991.94,-609.99,-1952.58
10470,-3.8700,-0.2537,0.2544,-1679.44,-16.17,1859.86
10480,-3.8702,-0.2598,0.2410,-460.69,577.58,-1999.51
10490,-3.8704,-0.2866,0.2517,-1241.94,-1141.17,1500.43
10500,-3.8705,-0.3307,0.2668,-679.44,233.76,-1702.64
10510,-3.8706,-0.3807,0.2816,1679.93,-1828.80,-1140.14
10520,-3.8707,-0.4271,0.3054,-726.32,61.71,-686.95
10530,-3.8707,-0.4647,0.3270,1336.18,-891.48,266.17
10540,-3.8708,-0.4963,0.3433,523.68,1874.08,1859.99
10550,-3.8710,-0.5182,0.3623,476.81,-47.85,-671.26
10560,-3.8711,-0.5219,0.3804,1679.93,-1610.41,-1155.58
10570,-3.8713,-0.5089,0.3918,1211.18,702.09,-327.39
10580,-3.8716,-0.4969,0.3948,-1132.57,-1829.16,1906.98
10590,-3.8719,-0.4980,0.3901,398.68,-1454.10,1656.98
10600,-3.8724,-0.5088,0.3828,258.06,1952.15,-124.27
10610,-3.8728,-0.5181,0.3767,-1116.94,1014.59,-1671.14
10620,-3.8732,-0.5251,0.3734,1695.56,233.34,-1843.02
10630,-3.8735,-0.5272,0.3738,789.31,-188.54,-546.20
10640,-3.8738,-0.5137,0.3708,523.68,-141.66,1938.17
10650,-3.8740,-0.4762,0.3567,-1741.94,-516.66,750.67
10660,-3.8744,-0.4128,0.3307,-945.07,1670.90,-1030.58
10670,-3.8746,-0.3221,0.3026,-835.69,-1657.10,453.74
10680,-3.8750,-0.2084,0.2861,-1226.32,-1250.67,1500.55
10690,-3.8441,-0.0974,0.2771,1336.18,640.20,-1311.95
10700,-3.8444,-0.0154,0.2583,-460.69,-515.87,625.49
10710,-3.8446,0.0400,0.2256,-1960.69,1078.06,375.49
10720,-3.8448,0.0862,0.1890,1133.06,875.06,-1233.95
10730,-3.8450,0.1279,0.1646,-960.69,187.62,-15.26
10740,-3.8450,0.1655,0.1642,383.06,1062.74,-718.44
10750,-3.8450,0.2040,0.1764,1195.56,1015.93,-1187.19
10760,-3.8450,0.2455,0.1759,-1882.57,-1421.51,-1655.94
10770,-3.8450,0.2917,0.1511,-570.07,-1483.95,-1671.57
10780,-3.8450,0.3527,0.1082,1351.81,-655.70,-1515.38
10790,-3.8450,0.4438,0.0686,1148.68,1844.42,-46.69
10800,-3.8447,0.5618,0.0594,820.56,782.10,672.00
10810,-3.8445,0.6770,0.1031,-85.69,-389.59,1734.44
10820,-3.8441,0.7676,0.1958,-1335.69,1204.41,1781.43
10830,-3.8750,0.8229,0.2931,-1741.94,1063.96,1453.49
10840,-3.8748,0.8610,0.3508,1336.18,1517.21,-858.83
10850,-3.8745,0.8676,0.3645,-1788.82,907.90,-952.45
10860,-3.8743,0.8212,0.3568,-945.07,-1342.10,-421.20
10870,-3.8738,0.7800,0.3573,1117.43,1673.46,813.17
10880,-3.8733,0.8091,0.3853,-148.19,1735.84,-249.33
10890,-3.8726,0.8956,0.4413,-429.44,1314.03,1125.73
10900,-3.8719,0.9899,0.5085,-1351.32,486.08,813.35
10910,-3.8715,1.0988,0.5502,-1288.82,1095.64,797.85
10920,-3.8711,1.1953,0.5488,648.68,-1575.99,1735.41
10930,-3.8707,1.2590,0.5353,1008.06,-1747.68,1938.54
10940,-3.8704,1.2994,0.5355,1164.31,518.07,-592.71
10950,-3.8699,1.3115,0.5392,-1663.82,549.38,-1592.71
10960,-3.8694,1.3073,0.5216,-116.94,1018.13,-1827.09
10970,-3.8689,1.2834,0.4778,-663.82,-1231.87,1860.35
10980,-3.8684,1.2513,0.4438,289.31,1158.75,813.42
10990,-3.8680,1.2288,0.4612,179.93,814.94,-280.40
11000,-3.8676,1.2206,0.5190,1289.31,-966.37,-217.90
11010,-3.8669,1.2280,0.5737,242.43,-1560.12,1907.23
11020,-3.8663,1.2324,0.5894,1195.56,1439.88,1719.85
11030,-3.8657,1.2231,0.5621,1758.06,-560.12,376.10
11040,-3.8654,1.2065,0.5208,570.56,-44.49,-1295.84
11050,-3.8651,1.1597,0.4950,-1554.44,-1341.43,-311.52
11060,-3.8649,1.0398,0.5027,445.56,-638.37,1875.92
11070,-3.8646,0.8334,0.5443,1101.81,345.76,500.98
11080,-3.8644,0.5856,0.6072,-1320.07,1673.46,563.54
11090,-3.8641,0.3696,0.6742,-1038.82,1719.85,1844.91
11100,-3.8639,0.2144,0.7186,-679.44,-1702.45,-61.22
11110,-3.8635,0.0967,0.7340,-554.44,-15.26,1251.34
11120,-3.8634,-0.0126,0.7434,383.06,1953.31,-1373.60
11130,-3.8634,-0.1404,0.7490,-1601.32,-828.19,1313.90
11140,-3.8636,-0.2975,0.7321,-1960.69,-109.68,1001.40
11150,-3.8641,-0.4628,0.6847,1929.93,1718.14,-936.10
11160,-3.8646,-0.6006,0.6189,773.68,-344.67,610.66
11170,-3.8654,-0.6810,0.5575,-866.94,-766.85,-780.09
11180,-3.8660,-0.7025,0.5078,836.18,-626.34,251.04
11190,-3.8667,-0.7111,0.4698,-1913.82,1014.22,1438.48
11200,-3.8673,-0.7455,0.4528,992.43,154.85,219.67
11210,-3.8680,-0.7717,0.4449,586.18,1967.29,-452.27
11220,-3.8685,-0.7555,0.4258,1226.81,967.22,94.60
11230,-3.8690,-0.7013,0.4122,-695.07,-1485.90,1235.17
11240,-3.8694,-0.6586,0.4285,-1757.57,779.85,-327.33
11250,-3.8695,-0.6627,0.4684,-288.82,-1141.97,1188.29
11260,-3.8698,-0.6918,0.5103,-820.07,-32.59,-842.90
11270,-3.8700,-0.7394,0.5344,-538.82,1326.72,-1655.27
11280,-3.8704,-0.7765,0.5382,1367.43,420.41,516.66
11290,-3.8710,-0.7775,0.5389,617.43,904.72,-1686.46
11300,-3.8716,-0.7677,0.5470,492.43,998.47,-1873.96
11310,-3.8722,-0.7529,0.5535,1742.43,-1970.28,-1748.96
11320,-3.8727,-0.7360,0.5522,-366.94,-1142.15,860.41
11330,-3.8732,-0.7170,0.5476,1804.93,-1298.34,-998.96
11340,-3.8735,-0.6888,0.5441,226.81,-1892.03,-311.46
11350,-3.8738,-0.6486,0.5466,-163.82,1654.85,1532.29
11360,-3.8741,-0.5945,0.5483,992.43,1983.09,-186.46
11370,-3.8744,-0.5222,0.5396,-85.69,-1798.10,-1811.46
11380,-3.8746,-0.4255,0.5233,1164.31,1077.09,594.79
11390,-3.8750,-0.3182,0.5060,1539.31,-1000.85,-1139.65
11400,-3.8440,-0.2218,0.4786,-726.32,780.58,1235.35
11410,-3.8442,-0.1409,0.4294,-382.57,1280.76,735.29
11420,-3.8445,-0.0664,0.3693,1976.81,-1015.93,-1936.71
11430,-3.8446,-0.0049,0.3169,-491.94,-718.93,375.67
11440,-3.8448,0.0490,0.2872,-616.94,578.06,-624.39
11450,-3.8450,0.1025,0.2822,-1726.32,765.69,-108.83
11460,-3.8450,0.1488,0.2916,1133.06,125.18,1922.42
11470,-3.8450,0.1827,0.3081,-945.07,1328.37,750.55
11480,-3.8451,0.2107,0.3237,-601.32,-562.19,-233.83
11490,-3.8451,0.2410,0.3158,-1023.19,1437.87,-1483.76
11500,-3.8451,0.2733,0.2800,-1148.19,422.30,1563.11
11510,-3.8451,0.3044,0.2449,-1007.57,-155.76,1922.36
11520,-3.8450,0.3378,0.2396,-1023.19,-655.70,547.30
11530,-3.8448,0.3855,0.2749,-757.57,-1327.51,-1655.82
11540,-3.8445,0.4601,0.3380,1351.81,-811.77,219.24
11550,-3.8441,0.5555,0.4017,-1101.32,-733.52,-561.89
11560,-3.8746,0.6418,0.4485,-882.57,-577.09,360.11
11570,-3.8739,0.6913,0.4791,-1835.69,1407.47,63.35
11580,-3.8733,0.7109,0.4838,492.43,1329.47,1735.29
11590,-3.8728,0.7629,0.4323,-991.94,1923.22,1032.17
11600,-3.8726,0.8573,0.3137,1664.31,-670.41,453.92
11610,-3.8726,0.9500,0.1921,1742.43,157.90,-749.39
11620,-3.8724,1.0562,0.1482,1601.81,595.58,1656.62
11630,-3.8723,1.1862,0.1993,-804.44,-1029.24,-1218.51
11640,-3.8721,1.3134,0.3048,-163.82,1517.88,-952.76
11650,-3.8717,1.4197,0.3904,117.43,-981.81,891.17
11660,-3.8713,1.4924,0.4215,1726.81,1971.50,516.36
11670,-3.8710,1.5153,0.4198,-960.69,1955.99,-1217.96
11680,-3.8704,1.5005,0.4153,1961.18,1737.30,594.54
11690,-3.8698,1.4723,0.4307,70.56,1159.18,-1905.46
11700,-3.8690,1.4567,0.4688,461.18,-872.13,1000.79
11710,-3.8684,1.4698,0.5100,-1538.82,2.81,-1389.71
11720,-3.8678,1.4916,0.5519,148.68,1284.12,954.10
11730,-3.8674,1.5006,0.6102,-1070.07,-1356.51,-498.96
11740,-3.8671,1.4829,0.6783,86.18,-1887.70,-873.84
11750,-3.8668,1.4343,0.7410,1820.56,-1169.01,-358.09
11760,-3.8667,1.3724,0.7882,-398.19,-1153.50,-248.60
11770,-3.8666,1.2998,0.8186,-320.07,893.25,548.40
11780,-3.8666,1.2133,0.8762,-1616.94,783.75,1845.34
11790,-3.8665,1.1082,1.0239,-695.07,158.57,1032.96
11800,-3.8663,0.9485,1.2271,1851.81,-935.36,-1123.05
11810,-3.8658,0.7078,1.3733,1414.31,1064.33,393.01
11820,-3.8651,0.3931,1.4448,-1398.19,-217.41,533.87
11830,-3.8643,0.0085,1.5063,-1679.44,938.23,768.43
11840,-3.8636,-0.4528,1.5677,1101.81,812.50,659.18
11850,-3.8635,-0.9716,1.5391,-1945.07,686.58,674.93
11860,-3.8638,-1.4292,1.3451,-351.32,1013.67,1081.12
11870,-3.8641,-1.6482,1.0573,1070.56,184.69,-794.25
11880,-3.8644,-1.6431,0.8143,1039.31,-659.48,1314.51
11890,-3.8647,-1.5131,0.6920,1695.56,246.77,704.71
11900,-3.8654,-1.3334,0.6335,-1663.82,590.76,-1264.28
11910,-3.8660,-1.1713,0.5496,1336.18,1106.75,1844.97
11920,-3.8665,-1.0450,0.4449,-1913.82,-1642.94,610.41
11930,-3.8668,-0.9220,0.3712,-1757.57,966.67,1094.60
11940,-3.8671,-0.7646,0.3461,1992.43,-470.58,672.55
11950,-3.8674,-0.6102,0.3644,-1866.94,310.97,-389.95
11960,-3.8678,-0.5332,0.4012,1898.68,-1344.97,1922.55
11970,-3.8684,-0.5665,0.4188,-241.94,-626.10,-1405.52
11980,-3.8690,-0.6504,0.4117,-507.57,1623.84,-1796.08
11990,-3.8695,-0.7296,0.4004,758.06,717.47,1235.17
12000,-3.8700,-0.7787,0.3972,-1382.57,-735.84,-827.39
12010,-3.8704,-0.7721,0.4009,336.18,-1142.15,1516.36
12020,-3.8708,-0.7371,0.4117,1179.93,-673.40,-780.52
12030,-3.8712,-0.7051,0.4326,1664.31,717.29,563.29
12040,-3.8717,-0.6812,0.4626,1758.06,-610.78,-1764.83
12050,-3.8721,-0.6746,0.5000,820.56,-766.97,844.60
12060,-3.8724,-0.6689,0.5527,1664.31,14.28,579.10
12070,-3.8728,-0.6627,0.6033,-1616.94,-1235.72,1485.41
12080,-3.8732,-0.6603,0.6265,-820.07,1233.03,-45.72
12090,-3.8734,-0.6564,0.6234,-507.57,201.78,-780.03
12100,-3.8737,-0.6552,0.6000,-7.57,-188.84,1188.66
12110,-3.8740,-0.6425,0.5612,148.68,811.22,1876.16
12120,-3.8744,-0.5999,0.5229,1773.68,-157.53,-514.59
12130,-3.8746,-0.5331,0.4982,-773.19,-1048.10,-530.27
12140,-3.8748,-0.4487,0.4886,-226.32,-219.85,-1405.33
12150,-3.8748,-0.3501,0.4940,-1429.44,-1438.42,375.92
12160,-3.8749,-0.2505,0.5140,-804.44,-750.73,-764.71
12170,-3.8749,-0.1709,0.5374,-54.44,1811.95,1860.35
12180,-3.8750,-0.1221,0.5433,-1866.94,796.51,-217.71
12190,-3.8750,-0.0901,0.5212,383.06,1562.26,922.91
12200,-3.8439,-0.0485,0.4763,476.81,-1265.81,1594.73
12210,-3.8440,0.0032,0.4182,1804.93,984.25,1719.67
12220,-3.8441,0.0554,0.3551,414.31,1531.25,500.79
12230,-3.8444,0.1160,0.2913,-898.19,1453.19,-1843.08
12240,-3.8446,0.1918,0.2296,-1148.19,1281.43,-1186.95
12250,-3.8448,0.2758,0.1754,554.93,1390.99,-1858.95
12260,-3.8451,0.3577,0.1416,-695.07,-1546.39,1922.18
12270,-3.8452,0.4298,0.1436,1789.31,-1874.33,797.12
12280,-3.8452,0.4830,0.1708,-976.32,-1624.21,93.99
12290,-3.8452,0.5183,0.2042,1836.18,1860.29,-140.32
12300,-3.8450,0.5331,0.2397,-1648.19,-1858.40,-655.88
12310,-3.8446,0.5250,0.2772,242.43,-1311.46,1328.55
12320,-3.8442,0.5126,0.3193,-788.82,-514.65,16.11
12330,-3.8440,0.4843,0.3672,1617.43,875.98,-1749.39
12340,-3.8749,0.4319,0.4261,1992.43,-999.08,172.55
12350,-3.8746,0.3811,0.4954,-710.69,-1452.33,-1764.83
12360,-3.8743,0.3418,0.5559,789.31,-593.02,860.29
12370,-3.8739,0.3409,0.5951,-241.94,-843.14,1469.79
12380,-3.8734,0.4176,0.6157,-351.32,172.49,376.16
12390,-3.8730,0.5529,0.6079,1461.18,-1186.71,-467.59
12400,-3.8726,0.7046,0.5640,-1226.32,1813.54,360.53
12410,-3.8724,0.8516,0.5159,-1804.44,188.84,-530.15
12420,-3.8723,0.9790,0.5004,1008.06,-1967.10,1000.98
12430,-3.8723,1.0845,0.5315,1320.56,48.77,-1311.52
12440,-3.8721,1.1600,0.5920,-1179.44,33.33,-1217.71
12450,-3.8715,1.2126,0.6774,492.43,-216.49,1594.85
12460,-3.8706,1.2672,0.7955,-773.19,-1294.56,-1467.47
12470,-3.8695,1.3301,0.8997,-1788.82,1830.57,1470.28
12480,-3.8684,1.4116,0.9506,-1741.94,-841.19,-388.92
12490,-3.8672,1.5081,0.9465,695.56,1674.62,-1326.29
12500,-3.8661,1.5966,0.8982,1039.31,1159.18,-279.42
12510,-3.8651,1.6853,0.8274,367.43,-1028.14,-1404.54
12520,-3.8645,1.7845,0.7548,-273.19,1909.48,-170.29
12530,-3.8641,1.8685,0.6899,429.93,612.85,-1264.16
12540,-3.8640,1.8981,0.6333,-820.07,316.10,391.97
12550,-3.8643,1.8448,0.6010,-1038.82,1066.16,-1358.15
12560,-3.8646,1.7054,0.6027,148.68,925.48,-61.34
12570,-3.8649,1.5121,0.6313,-1695.07,1143.92,1048.03
12580,-3.8651,1.2922,0.6896,1554.93,815.43,-1467.53
12590,-3.8651,1.0305,0.7670,1414.31,268.13,-1186.16
12600,-3.8649,0.7341,0.8774,-85.69,-1826.17,-514.16
12610,-3.8644,0.4510,1.0317,1976.81,313.90,1204.83
12620,-3.8641,0.1808,1.1471,1742.43,63.35,-294.86
12630,-3.8640,-0.0917,1.1593,-851.32,-1171.57,-450.93
12640,-3.8640,-0.3348,1.1047,273.68,406.07,-1263.37
12650,-3.8641,-0.5071,1.0463,1148.68,1421.20,-1341.61
12660,-3.8643,-0.6066,1.0168,-898.19,1936.46,205.14
12670,-3.8646,-0.6608,1.0120,-1632.57,-1829.35,-951.17
12680,-3.8650,-0.6963,1.0170,-570.07,1545.53,-1044.92
12690,-3.8654,-0.7504,1.0298,-1116.94,-1813.90,298.83
12700,-3.8660,-0.8113,1.0408,-38.82,-173.40,-404.30
12710,-3.8665,-0.8480,1.0208,164.31,1232.79,-1279.24
12720,-3.8669,-0.8738,0.9534,-538.82,-1329.83,-232.42
12730,-3.8673,-0.8979,0.8585,164.31,-1954.83,-1045.04
12740,-3.8677,-0.8741,0.7778,1070.56,1904.48,-1295.23
12750,-3.8680,-0.7889,0.7230,117.43,-423.58,423.34
12760,-3.8687,-0.6951,0.6727,-976.32,560.91,-1217.35
12770,-3.8693,-0.6006,0.6154,-960.69,-1876.40,-1139.34
12780,-3.8699,-0.5144,0.5454,-866.94,-1219.97,-1264.47
12790,-3.8704,-0.4603,0.4819,-1835.69,1827.09,1563.54
12800,-3.8707,-0.4368,0.4567,1086.18,1702.21,407.17
12810,-3.8711,-0.4489,0.4524,101.81,-1532.10,969.60
12820,-3.8715,-0.4783,0.4338,-1445.07,1920.96,-1811.65
12830,-3.8717,-0.4854,0.4131,-1210.69,-454.10,719.54
12840,-3.8719,-0.4751,0.4170,1883.06,889.65,328.92
12850,-3.8722,-0.4629,0.4403,-804.44,1389.65,0.79
12860,-3.8726,-0.4479,0.4657,758.06,374.08,-655.40
12870,-3.8728,-0.4321,0.4832,-1320.07,-375.92,-999.15
12880,-3.8730,-0.4187,0.4904,695.56,1858.52,-14.71
12890,-3.8732,-0.3992,0.4906,-1585.69,-1219.60,-1655.33
12900,-3.8733,-0.3698,0.4867,914.31,-1188.29,1016.54
12910,-3.8735,-0.3370,0.4734,679.93,-1688.23,-1358.46
12920,-3.8738,-0.3049,0.4487,867.43,608.70,-1514.71
12930,-3.8740,-0.2706,0.4202,976.81,1452.51,1047.73
12940,-3.8744,-0.2290,0.3928,1367.43,1796.33,-952.33
12950,-3.8746,-0.1864,0.3671,-1304.44,-1703.61,1156.98
12960,-3.8750,-0.1484,0.3381,148.68,-1000.37,-514.95
12970,-3.8440,-0.1050,0.3025,1008.06,-703.43,-1171.26
12980,-3.8441,-0.0531,0.2662,-1429.44,-1265.87,219.30
12990,-3.8444,0.0024,0.2356,1211.18,-1906.37,-640.14
13000,-3.8444,0.0565,0.2125,320.56,-1843.75,109.80
13010,-3.8445,0.1017,0.1996,-757.57,-796.81,-1109.01
13020,-3.8445,0.1350,0.1996,1023.68,1547.06,-734.01
13030,-3.8444,0.1619,0.2126,1289.31,1547.12,515.99
13040,-3.8444,0.1888,0.2325,726.81,-780.94,-1859.01
13050,-3.8442,0.2166,0.2532,179.93,1765.99,16.05
13060,-3.8442,0.2422,0.2664,-273.19,406.62,-1515.14
13070,-3.8441,0.2638,0.2607,-991.94,-1905.82,1750.49
13080,-3.8440,0.2811,0.2407,1773.68,1375.49,-1905.76
13090,-3.8439,0.2942,0.2261,-7.57,-1187.01,-718.32
13100,-3.8749,0.3020,0.2374,1664.31,938.05,656.68
13110,-3.8748,0.3073,0.2814,-1335.69,-1608.83,1781.68
13120,-3.8746,0.3169,0.3362,-663.82,16.17,-1702.58
13130,-3.8745,0.3333,0.3774,570.56,-968.14,-1452.51
13140,-3.8744,0.3538,0.4041,-1335.69,313.11,-1046.14
13150,-3.8743,0.3749,0.4373,1289.31,-280.58,-186.77
13160,-3.8740,0.3934,0.5045,-7.57,-30.58,1875.79
13170,-3.8738,0.4049,0.6008,-1632.57,578.86,1657.23
13180,-3.8734,0.4237,0.6711,-163.82,906.98,94.91
13190,-3.8730,0.4777,0.6898,-1757.57,1907.04,1563.78
13200,-3.8726,0.5669,0.6852,1148.68,297.79,1329.47
13210,-3.8721,0.6671,0.6801,570.56,-295.78,-795.59
13220,-3.8715,0.7703,0.6769,1398.68,-951.84,-733.09
13230,-3.8708,0.8967,0.6666,-1398.19,-1357.91,-701.84
13240,-3.8704,1.0557,0.6578,-1210.69,1329.83,-858.09
13250,-3.8701,1.2233,0.6598,-866.94,205.14,-295.59
13260,-3.8700,1.4308,0.6494,586.18,455.51,1423.16
13270,-3.8701,1.6617,0.6146,-851.32,-872.25,-170.65
13280,-3.8701,1.8383,0.5717,711.18,-1324.89,-639.47
13290,-3.8700,1.9039,0.5469,-695.07,1175.42,-1373.90
13300,-3.8698,1.8184,0.5686,-288.82,-1996.34,1876.04
13310,-3.8694,1.6654,0.6426,758.06,784.79,1594.85
13320,-3.8689,1.4941,0.7448,1179.93,-1746.77,-889.40
13330,-3.8682,1.3313,0.8474,-741.94,-669.01,1735.78
13340,-3.8674,1.2229,0.9438,-1585.69,471.31,1345.40
13350,-3.8668,1.1620,1.0283,539.31,814.88,970.58
13360,-3.8665,1.1147,1.0735,742.43,-372.74,1033.20
13370,-3.8663,1.0449,1.0686,-1304.44,1408.39,1252.08
13380,-3.8663,0.9323,1.0424,1758.06,783.26,830.20
13390,-3.8663,0.7415,1.0255,-663.82,1423.65,877.01
13400,-3.8662,0.4673,1.0188,-1085.69,-732.97,1533.20
13410,-3.8660,0.1676,1.0087,-179.44,-1592.90,-826.17
13420,-3.8656,-0.0720,0.9845,1461.18,1109.68,-1654.30
13430,-3.8654,-0.2054,0.9390,-1210.69,-1968.93,-1326.23
13440,-3.8652,-0.2369,0.8636,1711.18,202.70,1767.46
13450,-3.8652,-0.1958,0.7578,1679.93,-1437.99,126.65
13460,-3.8654,-0.1062,0.6531,-1054.44,1015.20,376.46
13470,-3.8655,0.0034,0.5845,-1585.69,-390.87,1188.72
13480,-3.8655,0.0922,0.5538,445.56,-1187.50,360.47
13490,-3.8655,0.0951,0.5503,-195.07,-1109.25,1704.16
13500,-3.8655,-0.0283,0.5627,179.93,-1562.32,1735.41
13510,-3.8656,-0.2413,0.5846,383.06,46.81,-905.15
13520,-3.8657,-0.5027,0.6185,1117.43,-1156.74,-342.65
13530,-3.8658,-0.7750,0.6604,-335.69,-813.54,-717.59
13540,-3.8661,-1.0199,0.6877,804.93,545.35,-1061.22
13550,-3.8665,-1.1968,0.6835,1461.18,44.86,1595.09
13560,-3.8669,-1.2299,0.6503,-1179.44,-502.38,1938.78
13570,-3.8674,-1.1471,0.5997,-1413.82,-752.44,1923.10
13580,-3.8679,-1.0118,0.5647,1179.93,778.99,1548.03
13590,-3.8684,-0.8536,0.5590,-1507.57,294.86,860.47
13600,-3.8689,-0.7266,0.5742,-1257.57,-439.21,-1780.21
13610,-3.8693,-0.6176,0.6028,-991.94,1514.16,-1077.03
13620,-3.8695,-0.5223,0.6273,961.18,1170.65,938.66
13630,-3.8699,-0.4579,0.6443,1148.68,311.46,1891.85
13640,-3.8704,-0.4060,0.6508,1398.68,-1516.54,-92.53
13650,-3.8708,-0.3698,0.6365,39.31,-688.29,-686.28
13660,-3.8713,-0.3575,0.6183,679.93,1483.64,-1311.28
13670,-3.8718,-0.3718,0.6144,-1757.57,-844.48,-264.47
13680,-3.8722,-0.4060,0.6213,414.31,-1344.48,-1576.97
13690,-3.8726,-0.4464,0.6251,39.31,-453.92,-1655.09
13700,-3.8729,-0.4788,0.6171,-1132.57,30.33,-733.15
13710,-3.8732,-0.4888,0.6042,-1273.19,-1000.98,766.78
13720,-3.8735,-0.4785,0.5880,1445.56,1358.40,1938.66
13730,-3.8739,-0.4550,0.5646,-1241.94,-719.73,-717.65
13740,-3.8741,-0.4136,0.5350,1773.68,280.33,1922.97
13750,-3.8744,-0.3545,0.5042,-929.44,499.15,-1780.21
13760,-3.8746,-0.2871,0.4749,-1366.94,546.14,-264.65
13770,-3.8748,-0.2178,0.4449,-741.94,796.26,1704.04
13780,-3.8749,-0.1494,0.4183,133.06,968.32,360.23
13790,-3.8750,-0.0895,0.4072,883.06,1562.19,625.79
13800,-3.8439,-0.0488,0.4133,554.93,140.44,-1686.71
13810,-3.8439,-0.0245,0.4197,1758.06,921.75,657.04
13820,-3.8440,0.0037,0.4100,867.43,1734.31,-764.83
13830,-3.8440,0.0542,0.3884,476.81,484.38,1703.92
13840,-3.8441,0.1190,0.3613,-1054.44,1718.81,-796.14
13850,-3.8442,0.1755,0.3302,-757.57,-1749.82,-1139.95
13860,-3.8444,0.2117,0.3041,-1523.19,-1734.07,1438.11
13870,-3.8445,0.2218,0.2823,-898.19,-1077.76,859.92
13880,-3.8445,0.2159,0.2540,398.68,141.05,0.55
13890,-3.8444,0.2131,0.2380,-351.32,515.99,1078.61
13900,-3.8441,0.2133,0.2657,-710.69,-1530.88,1750.43
13910,-3.8439,0.2172,0.3201,-695.07,-1984.01,1984.86
13920,-3.8749,0.2358,0.3380,-195.07,969.12,500.61
13930,-3.8748,0.2690,0.2593,-1804.44,-733.95,-499.39
13940,-3.8744,0.2982,0.1158,-1554.44,1187.99,-1733.89
13950,-3.8739,0.3124,0.0229,-1820.07,-1171.33,343.93
13960,-3.8735,0.3373,0.0490,-7.57,-1061.95,1093.75
13970,-3.8733,0.4058,0.1880,-820.07,-1733.76,140.69
13980,-3.8733,0.5028,0.3707,-54.44,63.23,1219.12
13990,-3.8733,0.5717,0.4835,367.43,-545.90,-1905.58
14000,-3.8730,0.5889,0.4763,1179.93,1891.72,-1452.21
14010,-3.8726,0.5903,0.4180,-616.94,969.85,-405.33
14020,-3.8719,0.6218,0.3925,-429.44,1501.10,-1967.96
14030,-3.8716,0.6987,0.4232,-398.19,-1764.47,656.98
14040,-3.8717,0.7834,0.4890,1445.56,-1826.78,-1764.83
14050,-3.8721,0.8530,0.5491,289.31,-1404.72,1922.79
14060,-3.8726,0.8994,0.5773,1195.56,-1717.10,-623.96
14070,-3.8728,0.8865,0.5741,-866.94,1892.33,-670.78
14080,-3.8726,0.8448,0.5824,1476.81,1486.08,-498.90
14090,-3.8717,0.8595,0.6702,148.68,-1451.48,376.10
14100,-3.8707,0.9208,0.8346,-1976.32,1782.90,563.78
14110,-3.8699,0.9972,1.0006,1867.43,-1170.10,-1435.91
14120,-3.8691,1.1183,1.0863,-351.32,80.02,1111.33
14130,-3.8687,1.2805,1.0585,-851.32,-950.99,1002.08
14140,-3.8683,1.4260,0.9670,-85.69,-513.18,1611.39
14150,-3.8679,1.5269,0.8878,-1460.69,-216.00,220.58
14160,-3.8677,1.6095,0.8634,-554.44,1643.55,486.08
14170,-3.8676,1.6700,0.8921,-1976.32,-1481.26,-1576.48
14180,-3.8674,1.6780,0.9510,1773.68,-1809.27,-1654.54
14190,-3.8674,1.6112,1.0131,-1210.69,1737.61,-154.42
14200,-3.8674,1.4701,1.0461,-1757.57,1674.99,1830.08
14210,-3.8676,1.2772,1.0439,179.93,1909.12,-1529.24
14220,-3.8676,1.0436,1.0372,-507.57,1627.44,-1982.36
14230,-3.8674,0.7866,1.0486,1586.18,767.64,-1716.74
14240,-3.8672,0.5566,1.0731,695.56,-1779.72,-1419.86
14250,-3.8668,0.3872,1.0922,-741.94,1360.41,752.08
14260,-3.8666,0.2692,1.0837,1570.56,-202.39,-1857.30
14270,-3.8663,0.1887,1.0416,-1538.82,-1280.76,377.08
14280,-3.8663,0.1356,0.9805,164.31,1328.49,-716.74
14290,-3.8662,0.1006,0.9268,1367.43,1500.24,1142.52
14300,-3.8662,0.0718,0.9008,883.06,-1374.82,-1123.23
14310,-3.8662,0.0315,0.8888,1195.56,-703.00,-904.54
14320,-3.8662,-0.0349,0.8671,39.31,1765.69,470.46
14330,-3.8665,-0.1283,0.8309,-460.69,-1000.12,-935.85
14340,-3.8666,-0.2302,0.7930,-413.82,-1625.31,345.34
14350,-3.8668,-0.3220,0.7777,-1460.69,1515.14,1735.90
14360,-3.8671,-0.4014,0.7850,-1210.69,-438.17,-920.41
14370,-3.8673,-0.4774,0.7823,633.06,499.21,-139.10
14380,-3.8674,-0.5593,0.7550,-1101.32,155.27,439.03
14390,-3.8677,-0.6643,0.7205,414.31,655.15,813.96
14400,-3.8679,-0.7888,0.6948,-1023.19,233.03,610.78
14410,-3.8683,-0.9120,0.6807,-960.69,951.54,-451.78
14420,-3.8685,-1.0128,0.6719,-726.32,-861.21,-1904.97
14430,-3.8689,-1.0391,0.6495,-1632.57,-1986.39,-170.59
14440,-3.8691,-0.9734,0.6099,-991.94,-845.83,79.35
14450,-3.8696,-0.8967,0.5785,-585.69,-1923.83,-998.84
14460,-3.8700,-0.8379,0.5656,1226.81,-1939.27,329.22
14470,-3.8705,-0.7644,0.5552,758.06,404.60,1782.35
14480,-3.8708,-0.7170,0.5530,-1835.69,-923.40,-1811.46
14490,-3.8711,-0.6918,0.5763,226.81,-1204.53,876.04
14500,-3.8715,-0.6495,0.6073,-538.82,1779.85,-967.65
14510,-3.8717,-0.6129,0.6279,867.43,1748.72,313.66
14520,-3.8721,-0.5863,0.6375,1554.93,389.40,1094.97
14530,-3.8724,-0.5706,0.6252,961.18,1608.22,1469.97
14540,-3.8728,-0.5621,0.5918,-1023.19,45.72,-1545.65
14550,-3.8730,-0.5491,0.5557,54.93,-235.47,610.47
14560,-3.8734,-0.5276,0.5355,1726.81,-860.47,-342.71
14570,-3.8737,-0.4933,0.5295,476.81,561.46,-702.09
14580,-3.8738,-0.4432,0.5198,867.43,-204.10,32.23
14590,-3.8740,-0.3810,0.5103,-726.32,-1454.04,-1264.65
14600,-3.8741,-0.3187,0.5138,-757.57,1327.33,-1249.02
14610,-3.8743,-0.2603,0.5236,-788.82,1780.58,-1358.40
14620,-3.8744,-0.2078,0.5231,-1304.44,-969.30,-1717.77
14630,-3.8745,-0.1609,0.4988,1414.31,-1031.68,-1561.52
14640,-3.8746,-0.1182,0.4530,-585.69,-140.99,-1249.08
14650,-3.8748,-0.0690,0.3995,883.06,1999.76,-1467.90
14660,-3.8749,-0.0072,0.3473,-820.07,-843.93,-983.64
14670,-3.8749,0.0656,0.2974,-913.82,468.69,1813.17
14680,-3.8749,0.1436,0.2653,398.68,-1937.38,-93.20
14690,-3.8746,0.2024,0.2719,-1616.94,1953.37,1297.36
14700,-3.8745,0.2213,0.3065,1914.31,-1202.76,-46.39
14710,-3.8743,0.2224,0.3477,336.18,-765.20,1313.05
14720,-3.8743,0.2526,0.3951,476.81,500.43,-983.70
14730,-3.8743,0.3273,0.4419,336.18,-1421.39,485.11
14740,-3.8744,0.4128,0.4603,1898.68,563.11,47.73
14750,-3.8745,0.4740,0.4341,851.81,-1077.33,375.85
14760,-3.8746,0.5175,0.3567,679.93,-436.58,-858.58
14770,-3.8745,0.5681,0.2617,-1757.57,1657.23,-1874.33
14780,-3.8743,0.6298,0.2148,726.81,1501.10,734.86
14790,-3.8741,0.6866,0.2419,617.43,-498.78,-15.26
14800,-3.8739,0.7479,0.3262,-101.32,-1029.97,1062.93
14810,-3.8739,0.8191,0.4380,-257.57,1751.40,-811.89
14820,-3.8738,0.8561,0.5227,851.81,64.09,657.10
14830,-3.8737,0.8422,0.5343,1586.18,-1092.10,250.98
14840,-3.8735,0.8242,0.4863,-195.07,392.21,-1123.96
14850,-3.8733,0.8057,0.4265,1508.06,-1748.41,-952.21
14860,-3.8730,0.7712,0.3914,-866.94,-1404.72,-1702.33
14870,-3.8728,0.7601,0.3885,-1273.19,-1904.79,516.36
14880,-3.8727,0.7811,0.4050,1304.93,1735.84,-796.14
14890,-3.8724,0.8354,0.4181,-7.57,-154.79,1094.48
14900,-3.8723,0.9185,0.4241,-1054.44,1517.21,1250.79
14910,-3.8722,0.9998,0.4391,1570.56,-1716.98,953.92
14920,-3.8721,1.0609,0.4644,-23.19,205.02,516.48
14930,-3.8721,1.0963,0.4965,-195.07,-560.49,-155.40
14940,-3.8719,1.1030,0.5244,336.18,-450.99,-1545.96
14950,-3.8719,1.0658,0.5226,1195.56,-872.86,-186.52
14960,-3.8718,1.0128,0.5002,429.93,-1107.30,1938.48
14970,-3.8717,0.9937,0.5033,1648.68,33.20,-1124.02
14980,-3.8715,1.0159,0.5734,-804.44,423.77,-1936.52
14990,-3.8712,1.0601,0.7137,-1960.69,1392.58,1719.85
15000,-3.8710,1.0995,0.8684,-304.44,-638.61,1470.09
15010,-3.8707,1.1246,0.9661,742.43,-841.61,-701.48
15020,-3.8702,1.1487,0.9900,-38.82,-341.61,1095.58
15030,-3.8698,1.1752,0.9866,-960.69,-1279.05,-1154.36
15040,-3.8690,1.1941,1.0035,-1570.07,-1716.49,330.02
15050,-3.8683,1.2111,1.0388,851.81,455.44,658.20
15060,-3.8677,1.2501,1.0593,-976.32,971.07,-107.36
15070,-3.8671,1.2957,1.0613,23.68,-403.81,-919.86
15080,-3.8665,1.2744,1.0769,1851.81,-153.75,627.01
15090,-3.8660,1.1370,1.1277,-866.94,1846.19,-451.05
15100,-3.8652,0.9045,1.1877,1539.31,345.95,95.95
15110,-3.8646,0.6434,1.2213,-210.69,32.96,1767.94
15120,-3.8640,0.4236,1.2202,-1632.57,329.35,-1981.99
15130,-3.8635,0.2803,1.1829,-1773.19,188.29,314.88
15140,-3.8634,0.2162,1.1211,-116.94,-593.26,1314.76
15150,-3.8635,0.2007,1.0569,-320.07,-499.63,1533.39
15160,-3.8639,0.1790,1.0233,1695.56,-718.38,-216.74
15170,-3.8643,0.0983,1.0409,-1085.69,-1015.32,-1841.80
15180,-3.8647,-0.0708,1.0781,586.18,1234.56,-888.61
15190,-3.8652,-0.3116,1.0837,-1054.44,-1984.56,-1294.80
15200,-3.8658,-0.5679,1.0411,117.43,-1266.24,1361.45
15210,-3.8667,-0.7473,0.9642,-679.44,1280.09,-779.24
15220,-3.8674,-0.7648,0.8712,351.81,-563.96,-1795.04
15230,-3.8680,-0.6602,0.7959,-1882.57,-470.28,-201.48
15240,-3.8683,-0.5422,0.7618,-491.94,1889.28,1423.40
15250,-3.8685,-0.4329,0.7532,-1398.19,1530.15,-436.04
15260,-3.8687,-0.3346,0.7527,601.81,421.02,923.34
15270,-3.8690,-0.2727,0.7526,1179.93,358.70,-1186.04
15280,-3.8694,-0.2494,0.7235,1101.81,343.20,1235.84
15290,-3.8699,-0.2595,0.6589,86.18,624.51,-561.10
15300,-3.8701,-0.3132,0.5942,-1210.69,358.83,204.41
15310,-3.8705,-0.4058,0.5638,-85.69,77.45,1891.78
15320,-3.8708,-0.4917,0.5631,70.56,186.71,-1623.90
15330,-3.8712,-0.5449,0.5670,1070.56,92.77,-1311.40
15340,-3.8715,-0.5684,0.5688,-1741.94,592.65,32.35
15350,-3.8718,-0.5618,0.5625,-741.94,826.97,1469.85
15360,-3.8722,-0.5430,0.5416,101.81,14.53,-1905.15
15370,-3.8726,-0.5179,0.5026,-1491.94,1342.65,-1561.46
15380,-3.8729,-0.4861,0.4600,1711.18,342.71,-420.90
15390,-3.8732,-0.4583,0.4365,1789.31,-1110.35,-1592.90
15400,-3.8734,-0.4438,0.4320,1351.81,-110.29,-1280.46
15410,-3.8737,-0.4491,0.4384,-804.44,-688.42,-436.71
15420,-3.8738,-0.4664,0.4453,-1476.32,124.08,297.73
15430,-3.8740,-0.4778,0.4435,304.93,1014.71,860.23
15440,-3.8743,-0.4642,0.4301,-1148.19,780.27,1922.73
15450,-3.8744,-0.4221,0.4001,586.18,-938.42,94.54
15460,-3.8746,-0.3615,0.3591,1976.81,-766.48,-311.77
15470,-3.8746,-0.2933,0.3290,1742.43,1983.64,781.92
15480,-3.8748,-0.2231,0.3232,-1538.82,-1875.61,-1202.51
15490,-3.8748,-0.1490,0.3329,-554.44,1390.14,-1561.89
15500,-3.8746,-0.0681,0.3452,929.93,-1375.31,375.61
15510,-3.8746,0.0040,0.3633,-710.69,202.94,-655.58
15520,-3.8745,0.0480,0.3993,523.68,-1500.00,1531.92
15530,-3.8745,0.0608,0.4323,-1851.32,-890.56,1516.36
15540,-3.8745,0.0577,0.4346,-210.69,-671.81,125.79
15550,-3.8746,0.0568,0.4249,-601.32,-374.94,-1717.96
15560,-3.8748,0.0632,0.4191,-726.32,-1609.31,-1217.96
15570,-3.8749,0.0803,0.3949,101.81,1640.75,1797.67
15580,-3.8750,0.1167,0.3436,-1710.69,-1453.00,-1389.89
15590,-3.8750,0.1754,0.2916,-1054.44,-15.44,-733.76
15600,-3.8749,0.2487,0.2678,-1538.82,1328.43,-1577.58
15610,-3.8748,0.3231,0.2827,-163.82,-1718.32,-1608.89
15620,-3.8746,0.3868,0.3241,1367.43,188.11,-1765.08
15630,-3.8745,0.4286,0.3639,1523.68,1485.11,484.99
15640,-3.8745,0.4492,0.3798,-1132.57,-1421.08,313.17
15650,-3.8746,0.4683,0.3469,1508.06,610.23,-171.14
15660,-3.8745,0.4930,0.2710,-54.44,407.10,-686.83
15670,-3.8743,0.5055,0.2192,-882.57,-1311.58,-62.01
15680,-3.8739,0.4968,0.2300,711.18,63.48,-1593.32
15690,-3.8737,0.4838,0.2839,-398.19,1438.42,-546.45
15700,-3.8734,0.4792,0.3578,1929.93,344.67,-1577.58
15710,-3.8733,0.4749,0.4211,1351.81,1797.79,-858.70
15720,-3.8732,0.4896,0.4352,789.31,1907.17,-1421.08
15730,-3.8729,0.5653,0.4141,-1320.07,-295.96,1407.04
15740,-3.8726,0.7217,0.4177,367.43,1001.10,282.04
15750,-3.8723,0.9327,0.4829,383.06,1470.15,1563.29
15760,-3.8722,1.1471,0.6145,-601.32,1814.27,1938.42
15770,-3.8722,1.3290,0.7734,-1163.82,-1341.55,-670.72
15780,-3.8719,1.4631,0.8762,-1882.57,-997.44,63.96
15790,-3.8716,1.5696,0.8889,-710.69,159.06,-1685.79
15800,-3.8708,1.6553,0.8854,914.31,1784.30,204.83
15810,-3.8702,1.6924,0.9584,-116.94,1331.30,95.46
15820,-3.8699,1.6738,1.0879,633.06,-1324.83,111.21
15830,-3.8696,1.6472,1.1711,-1741.94,-746.77,986.45
15840,-3.8693,1.6700,1.2031,-1148.19,1909.42,1299.13
15850,-3.8688,1.7164,1.2623,1773.68,-1996.77,-1544.56
15860,-3.8682,1.7163,1.3751,-288.82,1581.42,-810.06
15870,-3.8674,1.6379,1.5065,-304.44,18.92,783.94
15880,-3.8668,1.4684,1.6025,1664.31,831.30,1862.30
15890,-3.8662,1.2134,1.6283,-38.82,1127.81,-871.89
15900,-3.8656,0.9191,1.5946,-679.44,424.19,-1278.08
15910,-3.8651,0.6479,1.5510,1648.68,111.15,1612.49
15920,-3.8649,0.4336,1.5143,-1054.44,-1467.53,-793.88
15930,-3.8646,0.2708,1.4501,-491.94,1828.92,971.68
15940,-3.8645,0.1410,1.3673,-1335.69,1609.86,34.06
15950,-3.8646,0.0341,1.3090,-1945.07,-984.13,-356.75
15960,-3.8646,-0.0485,1.2677,367.43,-453.06,49.38
15970,-3.8649,-0.1100,1.2175,1804.93,-1718.87,-216.31
15980,-3.8650,-0.1656,1.1538,1929.93,-140.87,-357.06
15990,-3.8651,-0.2244,1.0865,-1195.07,-297.24,1736.57
16000,-3.8654,-0.2749,1.0151,-710.69,-906.74,252.08
16010,-3.8658,-0.3107,0.9402,820.56,1952.58,-76.17
16020,-3.8662,-0.3386,0.8804,242.43,358.76,-1763.79
16030,-3.8666,-0.3483,0.8351,664.31,702.45,736.08
16040,-3.8669,-0.3398,0.7958,-570.07,-1094.48,1642.21
16050,-3.8672,-0.3470,0.7778,508.06,1874.33,720.28
16060,-3.8676,-0.3599,0.7776,-413.82,-422.61,-529.79
16070,-3.8678,-0.3596,0.7792,1945.56,-453.86,1329.59
16080,-3.8682,-0.3534,0.8059,1976.81,-250.73,-701.66
16090,-3.8684,-0.3369,0.8656,-1226.32,-828.86,876.53
16100,-3.8688,-0.3262,0.9263,883.06,-1188.17,1876.65
16110,-3.8691,-0.3408,0.9606,-1741.94,-1422.55,-826.35
16120,-3.8694,-0.3762,0.9612,383.06,-1031.92,611.21
16130,-3.8698,-0.4093,0.9519,-148.19,-953.92,-1795.04
16140,-3.8701,-0.4415,0.9569,-382.57,1858.52,-857.54
16150,-3.8705,-0.4752,0.9697,-507.57,-1500.92,-1638.79
16160,-3.8708,-0.4906,0.9694,-820.07,139.65,64.39
16170,-3.8713,-0.4834,0.9585,1211.18,92.77,1142.52
16180,-3.8718,-0.4701,0.9491,-1866.94,-1297.85,1533.08
16190,-3.8723,-0.4630,0.9362,-163.82,1499.02,658.08
16200,-3.8729,-0.4530,0.9084,742.43,-157.17,-748.23
16210,-3.8734,-0.4312,0.8628,-1976.32,295.96,-888.85
16220,-3.8738,-0.4032,0.8127,820.56,-1547.73,1642.27
16230,-3.8741,-0.3781,0.7744,398.68,46.08,-1920.29
16240,-3.8745,-0.3530,0.7437,-382.57,-860.17,-1107.91
16250,-3.8749,-0.3174,0.7031,-1179.44,-797.61,-264.22
16260,-3.8439,-0.2664,0.6545,-616.94,-1985.05,1391.97
16270,-3.8441,-0.2043,0.6060,1914.31,-203.67,282.47
16280,-3.8444,-0.1331,0.5515,1851.81,1577.70,641.78
16290,-3.8446,-0.0569,0.4923,-1023.19,-1390.93,-1373.96
16300,-3.8447,0.0220,0.4355,726.81,-968.87,1329.04
16310,-3.8448,0.1042,0.3839,-1179.44,-250.00,422.67
16320,-3.8450,0.1864,0.3431,1351.81,1140.81,938.23
16330,-3.8451,0.2598,0.3196,-132.57,-77.82,-155.64
16340,-3.8450,0.3173,0.3101,1258.06,906.74,1109.99
16350,-3.8448,0.3536,0.3035,617.43,-311.89,547.42
16360,-3.8447,0.3760,0.2958,1273.68,-1155.58,-1608.83
16370,-3.8445,0.3973,0.2920,133.06,1860.11,-1624.45
16380,-3.8442,0.4155,0.2925,-1132.57,1375.73,-780.70
16390,-3.8440,0.4087,0.2997,1195.56,1438.29,-202.58
16400,-3.8750,0.3848,0.3232,320.56,-1639.83,-452.58
16410,-3.8748,0.3813,0.3534,1258.06,1375.73,-1155.64
16420,-3.8745,0.4012,0.3512,820.56,1235.11,-1608.70
16430,-3.8743,0.4266,0.3030,-632.57,953.86,1203.80
16440,-3.8741,0.4614,0.2391,-1382.57,-1217.96,1859.92
16450,-3.8740,0.5051,0.1770,-929.44,-1389.77,156.68
16460,-3.8740,0.5369,0.1104,664.31,-1342.77,1000.31
16470,-3.8740,0.5688,0.0376,726.81,-1873.96,-1327.94
16480,-3.8739,0.6152,-0.0114,820.56,813.60,-1796.81
16490,-3.8738,0.6740,-0.0063,-1241.94,-1451.97,-1484.44
16500,-3.8737,0.7500,0.0381,-1726.32,-811.22,1843.69
16510,-3.8737,0.8417,0.0791,8.06,876.46,-124.94
16520,-3.8735,0.9326,0.0906,-257.57,-1873.41,-781.13
16530,-3.8733,0.9961,0.0880,-616.94,-404.48,1703.25
16540,-3.8730,1.0276,0.1095,-491.94,-732.48,1718.87
16550,-3.8728,1.0339,0.1853,-460.69,-1982.42,703.31
16560,-3.8727,1.0145,0.3030,351.81,-279.24,1984.68
16570,-3.8726,0.9745,0.4131,1867.43,-1216.80,-936.95
16580,-3.8723,0.9261,0.4956,742.43,876.89,-1764.83
16590,-3.8721,0.8813,0.5803,-1445.07,-560.73,-467.83
16600,-3.8717,0.8455,0.6935,820.56,-1717.04,-1608.28
16610,-3.8713,0.8188,0.8274,226.81,767.27,-279.91
16620,-3.8707,0.8212,0.9657,820.56,1907.84,142.21
16630,-3.8702,0.8835,1.1136,1117.43,-389.04,-263.79
16640,-3.8695,1.0101,1.2755,1101.81,-1451.42,-1763.49
16650,-3.8687,1.1868,1.4254,1304.93,-732.42,1971.19
16660,-3.8677,1.3950,1.5194,-85.69,-1544.62,-591.00
16670,-3.8667,1.5876,1.5276,-1429.44,-1512.94,-59.57
16680,-3.8660,1.7072,1.4727,-773.19,-465.70,-262.70
16690,-3.8655,1.7240,1.4327,-1476.32,503.30,-1528.38
16700,-3.8651,1.6211,1.4622,679.93,-606.02,1674.62
16710,-3.8649,1.4183,1.5442,-491.94,-840.64,-59.69
16720,-3.8645,1.1512,1.6208,1554.93,1659.00,1706.12
16730,-3.8641,0.8105,1.6481,-632.57,-529.05,409.36
16740,-3.8639,0.4060,1.6244,-241.94,-1045.35,-449.95
16750,-3.8635,0.0443,1.5345,-23.19,-77.39,643.74
16760,-3.8634,-0.1537,1.3734,1679.93,421.94,174.87
16770,-3.8636,-0.1757,1.2043,336.18,-187.81,-575.50
16780,-3.8640,-0.0963,1.0917,1523.68,-1828.49,-13.31
16790,-3.8644,-0.0011,1.0427,-320.07,-250.24,720.83
16800,-3.8649,0.0685,1.0261,-132.57,1484.31,127.01
16810,-3.8654,0.1199,1.0193,773.68,-656.13,908.20
16820,-3.8657,0.1575,1.0198,-648.19,-1531.07,80.08
16830,-3.8661,0.1586,1.0330,164.31,-1468.44,892.58
16840,-3.8665,0.1062,1.0535,304.93,219.06,1611.39
16850,-3.8668,0.0035,1.0607,1601.81,-1156.07,548.89
16860,-3.8673,-0.1290,1.0492,461.18,-234.38,1127.01
16870,-3.8678,-0.2568,1.0154,-507.57,-1687.81,127.01
16880,-3.8684,-0.3596,0.9666,-866.94,1983.83,-841.80
16890,-3.8689,-0.4355,0.9180,1976.81,-266.36,-76.29
16900,-3.8693,-0.4910,0.8718,258.06,1514.77,-670.10
16910,-3.8695,-0.5415,0.8354,1164.31,-391.60,1314.15
16920,-3.8698,-0.5792,0.8060,-1304.44,-1047.97,610.96
16930,-3.8701,-0.6068,0.7745,1867.43,-813.66,-357.85
16940,-3.8704,-0.6323,0.7499,-1663.82,-844.97,-1795.41
16950,-3.8707,-0.6263,0.7389,-929.44,-1.28,-76.72
16960,-3.8710,-0.5909,0.7261,-163.82,-1407.53,126.40
16970,-3.8715,-0.5612,0.7036,367.43,951.97,-514.22
16980,-3.8718,-0.5255,0.6837,179.93,-1922.97,-1295.53
16990,-3.8722,-0.4783,0.6649,742.43,-469.79,1688.78
17000,-3.8726,-0.4415,0.6456,-1210.69,1124.02,891.91
17010,-3.8729,-0.4083,0.6318,-507.57,-1344.67,485.60
17020,-3.8733,-0.3805,0.6158,-257.57,889.77,282.47
17030,-3.8737,-0.3647,0.5946,-695.07,-1157.04,657.41
17040,-3.8740,-0.3641,0.5770,1320.56,124.27,1579.28
17050,-3.8744,-0.3774,0.5623,1398.68,1874.27,-1545.78
17060,-3.8748,-0.3844,0.5387,-304.44,-16.42,-577.09
17070,-3.8750,-0.3773,0.5011,-1195.07,967.96,-1983.34
17080,-3.8440,-0.3594,0.4598,-288.82,155.46,-561.52
17090,-3.8441,-0.3311,0.4232,-1991.94,-1125.73,-421.02
17100,-3.8441,-0.2845,0.3962,1633.06,-1813.17,1547.67
17110,-3.8441,-0.2195,0.3923,-413.82,-1266.24,94.48
17120,-3.8442,-0.1555,0.4039,-85.69,-1766.11,1422.61
17130,-3.8444,-0.1139,0.4053,101.81,-281.56,703.86
17140,-3.8446,-0.1000,0.3875,1429.93,-109.62,-1483.64
17150,-3.8448,-0.1045,0.3529,-788.82,1609.13,-249.27
17160,-3.8450,-0.1174,0.3127,-1366.94,1187.26,-1780.58
17170,-3.8451,-0.1222,0.2914,976.81,46.63,-671.26
17180,-3.8451,-0.0927,0.3107,367.43,1312.26,-593.20
17190,-3.8450,-0.0150,0.3766,148.68,-218.93,-1780.70
17200,-3.8448,0.0928,0.4628,-1913.82,218.69,735.11
17210,-3.8448,0.2072,0.5201,-116.94,-765.50,141.48
17220,-3.8450,0.3280,0.5280,-1476.32,-1421.51,1110.35
17230,-3.8451,0.4618,0.4944,1992.43,-421.26,1407.23
17240,-3.8452,0.6030,0.4355,-882.57,-717.90,-77.21
17250,-3.8451,0.7358,0.3805,1195.56,-248.84,-1436.71
17260,-3.8450,0.8408,0.3503,-1804.44,704.53,-155.52
17270,-3.8447,0.9187,0.3501,-366.94,845.34,-1405.58
17280,-3.8445,1.0206,0.3794,1601.81,814.27,-905.58
17290,-3.8441,1.1262,0.4410,-1351.32,564.45,531.98
17300,-3.8439,1.1562,0.5140,164.31,455.32,-905.40
17310,-3.8746,1.1626,0.5651,8.06,1799.13,-1874.02
17320,-3.8739,1.1957,0.5872,820.56,330.38,438.60
17330,-3.8732,1.2206,0.6021,1054.93,-841.43,-358.28
17340,-3.8723,1.2562,0.6466,242.43,1064.88,1048.03
17350,-3.8718,1.2976,0.7125,804.93,-1231.93,-1264.40
17360,-3.8716,1.3447,0.7550,-1898.19,-794.37,-561.16
17370,-3.8715,1.4062,0.7655,133.06,643.25,-936.04
17380,-3.8713,1.4468,0.7620,8.06,1987.12,-1607.91
17390,-3.8712,1.4529,0.7572,1195.56,1534.06,-389.16
17400,-3.8710,1.4275,0.7594,1976.81,924.68,-1498.54
17410,-3.8707,1.3872,0.7667,-1273.19,1205.87,1548.34
17420,-3.8705,1.3253,0.7758,1570.56,-1856.69,32.71
17430,-3.8704,1.2509,0.7898,1648.68,-700.56,-1811.04
17440,-3.8701,1.1857,0.8113,117.43,1096.19,1985.90
17450,-3.8696,1.1326,0.8611,-226.32,-153.99,470.28
17460,-3.8690,1.0931,0.9766,976.81,-1779.05,-482.73
17470,-3.8682,1.0896,1.1598,-70.07,1002.08,-544.98
17480,-3.8672,1.1534,1.3535,-523.19,455.20,830.38
17490,-3.8663,1.2750,1.4568,-351.32,1252.20,-669.25
17500,-3.8652,1.4210,1.4178,-788.82,-1528.81,1565.31
17510,-3.8641,1.5474,1.2987,1898.68,1487.12,-1622.25
17520,-3.8632,1.5852,1.1991,-1929.44,-1762.63,1408.75
17530,-3.8627,1.5068,1.1589,-1085.69,1487.43,1658.57
17540,-3.8628,1.3499,1.1317,883.06,346.68,-950.87
17550,-3.8633,1.1621,1.0770,789.31,862.00,-1732.18
17560,-3.8640,0.9866,1.0201,758.06,1861.63,-997.92
17570,-3.8647,0.8484,0.9941,-1710.69,-1419.98,1533.20
17580,-3.8655,0.7423,1.0055,601.81,-748.35,-1966.86
17590,-3.8660,0.6499,1.0377,-976.32,704.53,876.95
17600,-3.8663,0.5577,1.0658,-804.44,829.35,-794.86
17610,-3.8665,0.4698,1.0726,-601.32,422.91,-1560.42
17620,-3.8665,0.3995,1.0699,148.68,1297.79,17.70
17630,-3.8666,0.3365,1.0651,-851.32,953.86,-1138.55
17640,-3.8666,0.2716,1.0480,-913.82,328.74,1392.70
17650,-3.8667,0.1992,1.0280,-1226.32,-1858.89,517.64
17660,-3.8671,0.1106,1.0114,1508.06,-421.51,-1904.30
17670,-3.8676,0.0177,0.9946,-1835.69,1453.31,-1826.17
17680,-3.8682,-0.0604,0.9755,-1726.32,-687.50,1548.77
17690,-3.8689,-0.1084,0.9469,273.68,874.88,-1091.86
17700,-3.8695,-0.1177,0.9056,-1866.94,1218.51,-1998.17
17710,-3.8700,-0.0955,0.8633,945.56,-62.74,548.58
17720,-3.8705,-0.0671,0.8224,-210.69,-1484.62,-1576.48
17730,-3.8708,-0.0649,0.7764,-585.69,1281.07,-357.79
17740,-3.8711,-0.1052,0.7284,-304.44,-609.56,-561.04
17750,-3.8712,-0.1716,0.6725,-1460.69,1249.76,470.15
17760,-3.8715,-0.2273,0.6160,-1960.69,-1906.62,-889.34
17770,-3.8716,-0.2543,0.5837,-1085.69,-1141.11,-780.09
17780,-3.8717,-0.2571,0.5646,-538.82,-1266.17,-1248.90
17790,-3.8718,-0.2448,0.5433,-898.19,280.70,969.85
17800,-3.8721,-0.2384,0.5389,679.93,1562.01,-1623.96
17810,-3.8723,-0.2555,0.5505,1492.43,999.51,-1045.84
17820,-3.8726,-0.2864,0.5665,-695.07,-1516.17,-561.46
17830,-3.8728,-0.3164,0.5851,-648.19,530.64,-77.03
17840,-3.8730,-0.3389,0.5875,-491.94,-1094.42,-248.90
17850,-3.8733,-0.3447,0.5706,633.06,-781.92,-280.15
17860,-3.8734,-0.3328,0.5560,-116.94,1046.14,672.97
17870,-3.8737,-0.3125,0.5483,1414.31,-813.17,1751.04
17880,-3.8739,-0.2889,0.5376,8.06,-1797.49,-1952.09
17890,-3.8741,-0.2660,0.5250,-976.32,827.51,-1670.84
17900,-3.8744,-0.2538,0.5188,1961.18,-781.80,-842.77
17910,-3.8745,-0.2545,0.5211,-476.32,-1578.67,282.23
17920,-3.8748,-0.2532,0.5199,-570.07,-1281.80,1594.73
17930,-3.8750,-0.2251,0.4945,-398.19,-1438.05,-717.77
17940,-3.8439,-0.1573,0.4448,-804.44,-687.99,-1545.96
17950,-3.8440,-0.0679,0.4022,-132.57,952.76,-608.52
17960,-3.8441,0.0146,0.3872,-679.44,-500.18,-93.02
17970,-3.8442,0.0835,0.3854,1883.06,1562.50,1938.23
17980,-3.8445,0.1495,0.3744,-1304.44,1328.25,-1218.02
17990,-3.8446,0.2179,0.3455,-851.32,-77.88,297.55
18000,-3.8448,0.2896,0.3020,-101.32,219.12,-296.20
18010,-3.8448,0.3660,0.2572,1070.56,-1343.20,-1624.45
18020,-3.8448,0.4437,0.2224,-1148.19,922.55,-1140.14
18030,-3.8448,0.5118,0.2004,804.93,469.60,-1483.95
18040,-3.8448,0.5532,0.2008,1523.68,1657.23,-1999.63
18050,-3.8447,0.5718,0.2401,-1179.44,1704.16,187.87
18060,-3.8446,0.5687,0.3192,1195.56,-1264.53,1859.80
18070,-3.8444,0.5582,0.4044,804.93,860.47,422.49
18080,-3.8442,0.5820,0.4373,-538.82,-233.34,750.73
18090,-3.8442,0.6370,0.3878,-1491.94,-30.15,-1171.08
18100,-3.8441,0.7032,0.2805,1539.31,1641.85,-1921.14
18110,-3.8439,0.7751,0.1727,-1976.32,-92.41,641.11
18120,-3.8749,0.8627,0.1176,-773.19,-1889.16,1750.31
18130,-3.8745,0.9722,0.1323,-1570.07,-951.48,234.56
18140,-3.8743,1.0836,0.2061,445.56,939.39,-1249.76
18150,-3.8740,1.1815,0.3002,-1288.82,-1622.92,-62.13
18160,-3.8737,1.2620,0.3617,-757.57,-1575.87,0.55
18170,-3.8734,1.3350,0.3794,1539.31,-1700.68,-1874.33
18180,-3.8729,1.4092,0.3993,-1116.94,565.06,1063.23
18190,-3.8723,1.4724,0.4630,383.06,-887.88,16.36
18200,-3.8718,1.5087,0.5636,476.81,-731.51,-389.77
18210,-3.8712,1.5122,0.6626,1117.43,143.55,751.10
18220,-3.8708,1.4843,0.7163,1570.56,815.43,-1920.59
18230,-3.8705,1.4288,0.7089,1992.43,-309.63,923.22
18240,-3.8702,1.3503,0.6732,-1101.32,-1262.88,-170.53
18250,-3.8698,1.2672,0.6627,851.81,-1825.50,313.78
18260,-3.8694,1.2126,0.7091,-1788.82,830.57,-1529.97
18270,-3.8689,1.2054,0.7925,-773.19,-1232.06,751.34
18280,-3.8685,1.2366,0.8688,-1695.07,1439.82,1985.90
18290,-3.8680,1.2751,0.8947,-1710.69,-794.49,454.77
18300,-3.8674,1.2955,0.8616,-773.19,-1481.93,1204.83
18310,-3.8667,1.3000,0.8160,1836.18,-1716.25,-29.60
18320,-3.8658,1.3065,0.7909,-1585.69,455.63,1064.09
18330,-3.8654,1.3207,0.7770,-757.57,1236.88,1485.90
18340,-3.8652,1.3168,0.7565,1054.93,-544.31,-623.54
18350,-3.8652,1.2653,0.7302,554.93,830.69,1251.46
18360,-3.8655,1.1700,0.7163,1961.18,1471.19,-873.60
18370,-3.8656,1.0592,0.7349,1773.68,-310.24,1704.47
18380,-3.8656,0.9535,0.7878,-413.82,-1935.49,501.40
18390,-3.8656,0.8477,0.8462,-1945.07,845.58,-310.97
18400,-3.8654,0.7249,0.8878,508.06,314.15,1486.02
18410,-3.8652,0.5795,0.9210,789.31,1642.03,-92.04
18420,-3.8650,0.4006,0.9729,-1820.07,1891.72,1611.15
18430,-3.8649,0.1600,1.0483,-710.69,531.98,236.27
18440,-3.8650,-0.1412,1.1062,492.43,-1812.19,877.01
18450,-3.8654,-0.4285,1.1018,1929.93,1609.07,-638.49
18460,-3.8657,-0.6096,1.0321,1164.31,1046.02,1486.51
18470,-3.8662,-0.6587,0.9397,1976.81,123.78,955.14
18480,-3.8668,-0.6041,0.8698,-304.44,295.53,-545.04
18490,-3.8673,-0.5353,0.8379,-1320.07,-657.47,-1529.60
18500,-3.8678,-0.4796,0.8427,-507.57,-735.47,-1092.16
18510,-3.8682,-0.3907,0.8492,-1382.57,-125.98,814.09
18520,-3.8685,-0.2810,0.8262,1992.43,717.96,954.77
18530,-3.8689,-0.1862,0.7903,39.31,1765.08,-889.04
18540,-3.8691,-0.1460,0.7550,179.93,1171.51,704.65
18550,-3.8695,-0.1681,0.7051,1320.56,655.94,329.59
18560,-3.8700,-0.2202,0.6469,-1507.57,-1734.74,-686.16
18570,-3.8704,-0.2795,0.6078,-179.44,-1187.99,-811.28
18580,-3.8707,-0.3331,0.5880,226.81,1811.95,-717.59
18590,-3.8711,-0.3634,0.5745,1367.43,-719.42,-45.78
18600,-3.8713,-0.3641,0.5646,1492.43,1546.14,-1467.65
18610,-3.8716,-0.3453,0.5613,1398.68,280.52,-1858.28
18620,-3.8718,-0.3134,0.5576,-195.07,-141.36,1329.16
18630,-3.8722,-0.2761,0.5394,-101.32,-610.05,-123.96
18640,-3.8724,-0.2511,0.5121,664.31,1061.95,-1311.46
18650,-3.8727,-0.2477,0.4891,-132.57,1561.95,-1905.27
18660,-3.8729,-0.2531,0.4724,304.93,-1375.49,1782.17
18670,-3.8732,-0.2480,0.4642,-382.57,483.83,-1624.08
18680,-3.8733,-0.2340,0.4625,258.06,-562.99,297.73
18690,-3.8735,-0.2167,0.4708,-1945.07,-781.74,-999.15
18700,-3.8737,-0.1975,0.4874,273.68,280.82,1704.04
18710,-3.8738,-0.1788,0.4944,-1273.19,-1594.18,375.92
18720,-3.8740,-0.1591,0.4789,1117.43,-703.49,-624.08
18730,-3.8741,-0.1278,0.4358,-351.32,1312.13,-1030.33
18740,-3.8743,-0.0732,0.3815,-351.32,-203.43,-452.33
18750,-3.8743,-0.0031,0.3383,-1366.94,843.57,1188.23
18760,-3.8744,0.0656,0.3083,-382.57,-687.56,-1577.51
18770,-3.8745,0.1305,0.2834,398.68,-531.13,1234.92
18780,-3.8748,0.2015,0.2598,711.18,281.49,1766.17
18790,-3.8750,0.2798,0.2372,1804.93,1250.37,-1858.89
18800,-3.8439,0.3521,0.2264,-179.44,-1640.14,656.68
18810,-3.8440,0.4026,0.2354,1070.56,985.05,1453.55
18820,-3.8441,0.4220,0.2450,-460.69,-1874.27,-1843.32
18830,-3.8442,0.4132,0.2322,-1976.32,-639.83,1078.55
18840,-3.8445,0.3867,0.1809,898.68,1719.54,-1562.07
18850,-3.8446,0.3574,0.0995,1508.06,-843.02,750.31
18860,-3.8447,0.3328,0.0289,1758.06,735.05,-1484.19
18870,-3.8447,0.3281,0.0018,-1398.19,-296.26,-406.25
18880,-3.8446,0.3496,0.0197,-1991.94,234.99,-796.88
18890,-3.8444,0.3882,0.0677,758.06,-1483.70,1578.12
18900,-3.8441,0.4427,0.1403,1695.56,672.61,-1734.25
18910,-3.8750,0.5090,0.2316,679.93,1953.98,297.12
18920,-3.8748,0.5701,0.3135,1164.31,1641.60,-1874.57
18930,-3.8745,0.6224,0.3326,976.81,126.10,-921.26
18940,-3.8743,0.6766,0.2683,-320.07,-1420.72,-593.14
18950,-3.8740,0.7291,0.1740,-1382.57,-1654.97,-812.01
18960,-3.8738,0.7607,0.1183,1336.18,-1732.97,-1171.57
18970,-3.8735,0.7587,0.1334,1383.06,-857.91,-1359.19
18980,-3.8733,0.7439,0.2102,1117.43,1079.59,-1031.01
18990,-3.8730,0.7384,0.3136,-773.19,-1092.35,-249.63
19000,-3.8727,0.7517,0.4275,-1476.32,142.03,781.86
19010,-3.8724,0.7841,0.5610,226.81,-1279.79,-1530.46
19020,-3.8721,0.8096,0.6801,367.43,-185.97,704.16
19030,-3.8717,0.7959,0.7284,-366.94,-951.60,891.91
19040,-3.8712,0.7498,0.6978,1883.06,1235.90,-1232.97
19050,-3.8705,0.7185,0.6213,-23.19,1313.90,548.22
19060,-3.8699,0.7432,0.5452,-23.19,-467.41,923.03
19070,-3.8694,0.8143,0.5024,-866.94,1782.65,-1733.34
19080,-3.8689,0.8940,0.5029,242.43,314.09,-233.40
19090,-3.8682,0.9629,0.5233,-1554.44,376.71,1688.48
19100,-3.8674,1.0260,0.5308,-741.94,-1013.79,-45.90
19110,-3.8665,1.0947,0.5220,-663.82,-60.55,16.60
19120,-3.8657,1.1532,0.5183,133.06,-1185.36,-1139.65
19130,-3.8650,1.1589,0.5258,-382.57,-1654.05,782.23
19140,-3.8645,1.0842,0.5265,351.81,-700.87,1266.60
19150,-3.8641,0.9435,0.5096,-1210.69,-607.30,-280.27
19160,-3.8636,0.7926,0.4901,773.68,1236.21,1485.35
19170,-3.8633,0.6887,0.4838,1461.18,-1264.10,16.54
19180,-3.8632,0.6376,0.4893,164.31,1923.22,1391.54
19190,-3.8632,0.5824,0.5092,1617.43,-1373.78,1375.92
19200,-3.8633,0.4524,0.5468,-1445.07,1172.97,641.60
19210,-3.8634,0.2371,0.6058,1914.31,1985.23,469.79
19220,-3.8634,-0.0209,0.6949,-1648.19,1547.30,-967.59
19230,-3.8632,-0.2738,0.7949,1336.18,968.69,-154.91
19240,-3.8628,-0.4696,0.8602,961.18,1765.08,1298.40
19250,-3.8628,-0.5944,0.8472,-101.32,-1875.98,-1779.60
19260,-3.8633,-0.6620,0.7305,-70.07,451.90,-638.98
19270,-3.8641,-0.6560,0.5225,-726.32,1514.28,-248.60
19280,-3.8650,-0.5919,0.3214,39.31,-1110.66,-77.15
19290,-3.8655,-0.4767,0.2515,242.43,1155.09,-952.51
19300,-3.8656,-0.3480,0.3347,-1007.57,202.15,1375.49
19310,-3.8657,-0.3265,0.4833,-538.82,-1141.36,-1780.64
19320,-3.8660,-0.4667,0.5869,-1788.82,1874.33,-1170.96
19330,-3.8662,-0.7180,0.6185,273.68,-860.29,563.60
19340,-3.8666,-0.9973,0.6017,101.81,-813.90,235.53
19350,-3.8671,-1.2054,0.5701,351.81,1029.30,-1545.72
19360,-3.8674,-1.2667,0.5656,1711.18,981.99,126.10
19370,-3.8680,-1.2355,0.5861,1867.43,403.75,-92.65
19380,-3.8685,-1.1968,0.6075,1867.43,-971.19,1829.22
19390,-3.8691,-1.1959,0.6168,-1179.44,1778.87,1954.28
19400,-3.8698,-1.2249,0.6071,-1070.07,-1033.63,-1686.34
19410,-3.8702,-1.2386,0.5875,-773.19,1716.31,-1576.97
19420,-3.8706,-1.2058,0.5808,1461.18,-783.69,-842.65
19430,-3.8708,-1.1238,0.5881,1664.31,-1643.01,-1936.40
19440,-3.8711,-1.0248,0.5988,164.31,-705.32,1094.85
19450,-3.8715,-0.9427,0.6027,836.18,654.24,-1311.34
19460,-3.8718,-0.9005,0.5847,-663.82,1154.36,626.16
19470,-3.8724,-0.8832,0.5439,742.43,-1142.40,-436.40
19480,-3.8729,-0.8676,0.5005,-1038.82,1638.85,-1858.34
19490,-3.8734,-0.8431,0.4844,961.18,76.42,-1249.02
19500,-3.8738,-0.8119,0.5000,86.18,-1986.02,1891.54
19510,-3.8741,-0.7772,0.5288,86.18,14.04,-967.77
19520,-3.8744,-0.7310,0.5662,523.68,-298.40,-1327.15
19530,-3.8745,-0.6696,0.6118,-1554.44,482.91,422.97
19540,-3.8748,-0.5842,0.6458,-1695.07,-1673.22,-842.59
19550,-3.8749,-0.4636,0.6548,1226.81,-1329.28,-1811.28
19560,-3.8750,-0.3131,0.6306,664.31,-172.79,719.97
19570,-3.8440,-0.1486,0.5699,-70.07,733.70,-1655.03
19580,-3.8441,0.0182,0.4966,992.43,968.44,626.10
19590,-3.8442,0.1776,0.4344,-1663.82,-437.50,672.79
19600,-3.8444,0.3217,0.3834,-1257.57,-390.32,-1530.46
19610,-3.8444,0.4419,0.3528,1179.93,1078.74,-968.02
19620,-3.8442,0.5314,0.3585,570.56,1157.10,1250.67
19630,-3.8442,0.5892,0.3843,23.68,1891.66,1485.05
19640,-3.8444,0.6073,0.3993,-570.07,1188.60,1719.48
19650,-3.8446,0.6150,0.3861,1742.43,-889.47,-1499.27
19660,-3.8448,0.6250,0.3397,-1273.19,1423.03,-764.89
19670,-3.8450,0.6124,0.2675,8.06,-514.40,-1171.26
19680,-3.8450,0.5807,0.1755,-1601.32,-1764.47,547.36
19690,-3.8451,0.5580,0.0725,-1663.82,-1530.15,-968.44
19700,-3.8451,0.5627,-0.0028,-570.07,1282.29,718.87
19710,-3.8452,0.5684,-0.0031,39.31,-358.28,843.69
19720,-3.8453,0.5713,0.0973,758.06,-389.53,-968.81
19730,-3.8452,0.5901,0.2679,1133.06,454.22,-374.82
19740,-3.8447,0.6096,0.3933,-460.69,-1702.03,1453.61
19750,-3.8440,0.6279,0.3916,-1960.69,-1655.09,188.23
19760,-3.8745,0.6620,0.3091,383.06,-1873.78,1188.23
19770,-3.8739,0.7122,0.2448,742.43,-436.22,31.80
19780,-3.8737,0.7671,0.2485,-835.69,-670.53,-1483.95
19790,-3.8735,0.8210,0.3201,-1804.44,-186.04,-93.32
19800,-3.8734,0.8727,0.4269,1101.81,970.34,1734.99
19810,-3.8734,0.9220,0.5231,-288.82,-1357.73,-1249.21
19820,-3.8733,0.9973,0.6033,-1976.32,-1045.10,-686.52
19830,-3.8729,1.1244,0.6865,-335.69,1220.64,1048.03
19840,-3.8726,1.2852,0.7764,-70.07,-122.86,-295.59
19850,-3.8719,1.4346,0.8523,508.06,-622.50,829.59
19860,-3.8715,1.5399,0.8990,-366.94,1096.50,986.02
19870,-3.8710,1.5947,0.9344,1117.43,-918.88,642.33
19880,-3.8705,1.6237,0.9783,133.06,-387.51,-1373.23
19890,-3.8699,1.6825,1.0242,-163.82,1221.86,1876.89
19900,-3.8694,1.8134,1.0699,-632.57,-903.02,-826.17
19910,-3.8689,2.0017,1.1279,117.43,956.67,-513.55
19920,-3.8683,2.2034,1.2217,226.81,378.91,-560.30
19930,-3.8674,2.3761,1.3538,-1960.69,379.27,-528.87
19940,-3.8663,2.4575,1.4775,148.68,1285.89,-1263.00
19950,-3.8651,2.3820,1.5518,-1429.44,1129.76,268.49
19960,-3.8641,2.1422,1.5658,898.68,-1370.36,-793.88
19970,-3.8633,1.8074,1.5410,-1788.82,426.03,-1059.45
19980,-3.8627,1.4911,1.4966,-648.19,1253.48,1018.62
19990,-3.8624,1.2792,1.4164,-1132.57,-434.63,-715.88
20000,-3.8622,1.1774,1.3250,-257.57,1299.32,-1825.38
20010,-3.8619,1.1444,1.2820,-1288.82,1596.01,1049.44
20020,-3.8617,1.1161,1.2950,-1507.57,95.95,-1466.25
20030,-3.8613,1.0134,1.3038,-1132.57,1767.76,-1950.62
20040,-3.8611,0.8179,1.2561,1726.81,-1107.42,-310.00
20050,-3.8610,0.6053,1.1637,695.56,782.84,1674.32
20060,-3.8613,0.4563,1.0559,1492.43,954.28,-357.12
20070,-3.8618,0.3589,0.9683,-1585.69,-842.90,908.26
20080,-3.8625,0.2434,0.9388,1945.56,-61.83,-1935.67
20090,-3.8633,0.0736,0.9419,-835.69,172.30,579.96
20100,-3.8640,-0.1382,0.9551,1429.93,562.62,517.46
20110,-3.8646,-0.3673,0.9938,-1679.44,-1734.68,1283.08
20120,-3.8651,-0.5653,1.0216,992.43,-781.98,1251.89
20130,-3.8656,-0.6796,0.9994,-351.32,-1219.91,1408.20
20140,-3.8661,-0.7219,0.9696,1023.68,-63.84,501.89
20150,-3.8667,-0.7494,0.9730,-398.19,123.54,205.02
20160,-3.8676,-0.8373,0.9836,86.18,561.04,-1169.98
20170,-3.8684,-0.9568,0.9785,836.18,1920.23,-1794.98
20180,-3.8693,-1.0153,0.9293,1539.31,1263.73,345.64
20190,-3.8701,-1.0126,0.8297,-1945.07,-1033.26,173.65
20200,-3.8710,-0.9846,0.7117,-1601.32,-1783.26,-435.91
20210,-3.8716,-0.8912,0.6073,1976.81,-892.58,-545.53
20220,-3.8719,-0.7585,0.5757,1929.93,1748.23,79.28
20230,-3.8723,-0.7766,0.6805,-1085.69,1701.60,1001.10
20240,-3.8726,-0.9347,0.8796,601.81,-876.53,-1561.22
20250,-3.8727,-1.0350,1.0175,367.43,607.54,1267.33
20260,-3.8729,-0.9885,1.0083,-476.32,-1752.08,-1232.42
20270,-3.8733,-0.8300,0.8953,1476.81,1076.17,-341.80
20280,-3.8739,-0.6453,0.7534,1773.68,-1392.27,-217.04
20290,-3.8746,-0.5137,0.6294,1414.31,451.84,1642.09
20300,-3.8441,-0.4691,0.5441,-1741.94,577.09,1157.47
20310,-3.8446,-0.4702,0.4956,-38.82,1655.27,141.66
20320,-3.8450,-0.4393,0.4941,-179.44,-547.85,-295.96
20330,-3.8450,-0.3308,0.5464,-226.32,-735.29,1454.04
20340,-3.8450,-0.1797,0.5964,1664.31,1952.45,860.41
20350,-3.8451,-0.0443,0.5763,1008.06,359.01,1798.03
20360,-3.8453,0.0636,0.4822,-1663.82,1781.13,-1311.40
20370,-3.8457,0.1469,0.3606,148.68,1718.87,-108.46
20380,-3.8461,0.2039,0.2550,-1195.07,-1843.51,-1483.70
20390,-3.8464,0.2419,0.1954,-1898.19,640.99,1734.86
20400,-3.8467,0.2596,0.1896,-1023.19,1016.05,1140.99
20410,-3.8468,0.2534,0.2128,1242.43,266.11,1031.62
20420,-3.8469,0.2391,0.2345,445.56,-765.14,-1062.13
20430,-3.8469,0.2317,0.2382,-1382.57,-1983.95,1937.93
20440,-3.8469,0.2472,0.2279,1664.31,-1515.20,-452.70
20450,-3.8467,0.3121,0.2373,-351.32,1172.30,922.30
20460,-3.8464,0.4155,0.2883,-38.82,-1624.45,1625.43
20470,-3.8461,0.5223,0.3629,1195.56,907.04,922.42
20480,-3.8457,0.6135,0.4324,-1132.57,-1545.90,1969.42
20490,-3.8453,0.6948,0.4694,-1460.69,-655.09,-452.33
20500,-3.8448,0.7615,0.4987,945.56,79.47,1125.92
20510,-3.8445,0.8068,0.5687,1476.81,-170.41,-670.96
20520,-3.8439,0.8622,0.6622,-726.32,798.40,407.35
20530,-3.8745,0.9360,0.7568,-1632.57,767.27,-1514.34
20540,-3.8737,0.9670,0.8632,-179.44,876.77,1.46
20550,-3.8729,0.9135,0.9746,-210.69,-1513.79,-1888.98
20560,-3.8722,0.8409,1.0454,929.93,751.77,1830.02
20570,-3.8716,0.8877,1.0327,-351.32,1814.09,377.01
20580,-3.8711,1.1124,0.9999,1633.06,189.21,-1247.99
20590,-3.8704,1.4171,1.0221,-1601.32,-13.49,1392.52
20600,-3.8696,1.6602,1.0708,1398.68,-1169.13,-513.67
20610,-3.8687,1.7301,1.0822,508.06,1065.73,1861.45
20620,-3.8676,1.6067,1.0364,1461.18,-1481.02,955.20
20630,-3.8666,1.4034,0.9659,1664.31,659.36,-13.61
20640,-3.8657,1.2535,0.9108,-351.32,-356.69,-1576.29
20650,-3.8652,1.1449,0.9244,461.18,580.57,-1701.35
20660,-3.8649,0.9587,1.0247,-1445.07,-1669.68,1564.27
20670,-3.8644,0.6846,1.1002,-1273.19,-841.92,-732.42
20680,-3.8633,0.4727,1.0599,-366.94,829.41,1642.76
20690,-3.8619,0.4330,0.9685,508.06,-327.21,1798.89
20700,-3.8610,0.5087,0.8904,-570.07,-30.46,-685.67
20710,-3.8604,0.5717,0.8407,1117.43,1969.73,282.96
20720,-3.8600,0.5674,0.8373,1179.93,-389.53,1626.59
20730,-3.8596,0.5226,0.8845,633.06,-827.03,-576.54
20740,-3.8595,0.4496,0.9658,-1101.32,1219.73,-13.92
20750,-3.8595,0.3224,1.0154,1554.93,-374.15,-13.79
20760,-3.8595,0.0940,0.9835,1273.68,1969.36,-13.67
20770,-3.8595,-0.2300,0.8949,39.31,1890.81,-279.36
20780,-3.8595,-0.5223,0.8203,-1429.44,-1437.99,-732.67
20790,-3.8595,-0.7051,0.8276,1148.68,1014.59,79.71
20800,-3.8599,-0.8450,0.8954,1758.06,1951.72,1392.21
20810,-3.8605,-0.9746,0.9358,-148.19,-1376.71,407.96
20820,-3.8615,-1.1189,0.8828,-741.94,-205.08,1736.15
20830,-3.8625,-1.2791,0.7982,789.31,1013.43,-998.29
20840,-3.8635,-1.4110,0.7745,289.31,-1815.00,1220.28
20850,-3.8645,-1.5176,0.8009,-601.32,-846.56,-529.79
20860,-3.8652,-1.5519,0.8572,1758.06,-1471.74,-1060.97
20870,-3.8660,-1.4723,0.9193,1367.43,1731.32,-685.85
20880,-3.8667,-1.3624,0.9650,-445.07,1684.57,564.27
20890,-3.8677,-1.2938,0.9941,1617.43,-471.44,-1576.29
20900,-3.8688,-1.2885,0.9946,-1601.32,-736.94,-123.11
20910,-3.8699,-1.3671,0.9796,-913.82,-674.44,1251.89
20920,-3.8711,-1.4631,0.9730,1023.68,1403.56,-607.48
20930,-3.8721,-1.5244,0.9791,726.81,559.63,-357.48
20940,-3.8728,-1.5333,0.9855,883.06,1340.76,-29.36
20950,-3.8733,-1.4664,0.9755,-257.57,-1846.80,-1482.48
20960,-3.8737,-1.3269,0.9545,304.93,872.13,736.27
20970,-3.8741,-1.1780,0.9211,-1835.69,-1815.12,-170.04
20980,-3.8745,-1.0690,0.8787,1226.81,1919.56,1908.02
20990,-3.8750,-0.9889,0.8344,-820.07,482.24,-1576.42
21000,-3.8442,-0.9205,0.7850,1429.93,-1189.45,-1482.79
21010,-3.8446,-0.8390,0.7401,-1820.07,498.17,595.28
21020,-3.8450,-0.7386,0.7164,617.43,-1251.65,-1873.60
21030,-3.8452,-0.6460,0.7131,1461.18,-282.71,-1623.66
21040,-3.8455,-0.5569,0.7238,1320.56,-704.41,-764.28
21050,-3.8457,-0.4421,0.7372,726.81,655.15,-982.97
21060,-3.8459,-0.3104,0.7308,-585.69,-1625.92,1001.40
21070,-3.8463,-0.1683,0.7073,273.68,1561.89,892.03
21080,-3.8468,-0.0227,0.6829,-1538.82,-1453.49,-686.16
21090,-3.8472,0.1046,0.6691,1101.81,-578.19,-826.84
21100,-3.8474,0.1888,0.6663,1398.68,1640.81,-29.97
21110,-3.8474,0.2196,0.6781,179.93,1281.62,-842.47
21120,-3.8473,0.1996,0.7142,117.43,-1202.70,1110.66
21130,-3.8474,0.1332,0.7606,1554.93,-577.76,-670.53
21140,-3.8475,0.0559,0.8062,1054.93,1359.62,1438.96
21150,-3.8477,0.0353,0.8455,-835.69,-812.44,1626.53
21160,-3.8475,0.1360,0.8768,523.68,218.81,-685.85
21170,-3.8469,0.3936,0.9364,1414.31,234.62,1845.46
21180,-3.8462,0.7535,1.0388,-1616.94,-139.89,-951.35
21190,-3.8455,1.1017,1.1591,461.18,970.21,1970.76
21200,-3.8448,1.3270,1.2614,1023.68,361.51,252.26
21210,-3.8444,1.4132,1.2955,1867.43,1455.69,-575.68
21220,-3.8748,1.4351,1.2429,898.68,1830.87,-497.50
21230,-3.8735,1.4933,1.1769,-304.44,-903.50,1533.63
21240,-3.8723,1.6578,1.1782,-851.32,-1356.51,-1857.12
21250,-3.8713,1.8951,1.1982,211.18,-1184.27,1455.38
21260,-3.8708,2.1245,1.1401,-1413.82,1378.66,1439.82
21270,-3.8707,2.3339,1.0260,-54.44,1941.59,-1029.05
21280,-3.8706,2.4875,0.9489,-1257.57,-667.36,642.58
21290,-3.8706,2.5764,0.9526,-1585.69,1457.95,-1920.04
21300,-3.8705,2.6311,1.0074,1789.31,1942.50,-1763.79
21310,-3.8702,2.6101,1.0746,789.31,958.25,-404.30
21320,-3.8698,2.5173,1.1650,-1898.19,1551.94,-451.05
21330,-3.8690,2.3663,1.3102,-1773.19,1129.88,1908.51
21340,-3.8682,2.1633,1.4792,-1101.32,-292.30,-60.00
21350,-3.8668,1.9495,1.5646,914.31,1347.96,-1622.13
21360,-3.8651,1.7892,1.5809,1539.31,269.41,721.80
21370,-3.8634,1.7074,1.6372,1023.68,-1637.15,-1106.32
21380,-3.8617,1.6591,1.7174,-1445.07,1565.80,-574.95
21390,-3.8601,1.6006,1.7225,367.43,-168.64,815.80
21400,-3.8595,1.4806,1.6605,883.06,487.49,-12.27
21410,-3.8595,1.2520,1.5778,1523.68,549.74,-12.39
21420,-3.8595,0.9653,1.4592,258.06,1955.57,-12.57
21430,-3.8595,0.6992,1.3229,-429.44,-1216.92,-356.57
21440,-3.8595,0.3994,1.2107,1508.06,1329.47,-1356.81
21450,-3.8595,-0.0300,1.1289,-866.94,-1030.52,-700.81
21460,-3.8595,-0.5219,1.0612,164.31,515.56,-29.05
21470,-3.8595,-0.9106,1.0034,1211.18,-157.29,-13.61
21480,-3.8595,-1.0758,0.9424,-554.44,451.29,-13.67
21490,-3.8595,-1.0358,0.8674,-1695.07,638.49,579.96
21500,-3.8600,-0.9619,0.8141,-570.07,-955.20,-826.48
21510,-3.8608,-0.9863,0.7870,883.06,216.86,-904.66
21520,-3.8619,-1.1376,0.7603,1758.06,748.05,64.03
21530,-3.8633,-1.3474,0.7505,-1601.32,1325.87,313.96
21540,-3.8647,-1.5365,0.7836,-460.69,75.44,-1436.04
21550,-3.8660,-1.6558,0.8667,-663.82,309.45,720.28
21560,-3.8671,-1.6715,0.9756,70.56,-1050.11,1736.02
21570,-3.8682,-1.6772,1.0800,-1945.07,887.33,-341.86
21580,-3.8693,-1.7898,1.1515,1320.56,-1753.30,455.20
21590,-3.8706,-1.9307,1.1759,-1085.69,-597.29,1814.70
21600,-3.8718,-1.9954,1.1638,883.06,-1472.53,1439.76
21610,-3.8728,-1.9567,1.1581,601.81,980.47,127.26
21620,-3.8737,-1.8174,1.2224,1554.93,246.15,-1575.87
21630,-3.8744,-1.6978,1.4015,-616.94,480.77,-60.12
21640,-3.8439,-1.6714,1.6387,-1304.44,-597.11,1596.44
21650,-3.8450,-1.6727,1.7916,-1929.44,1762.33,-1653.08
21660,-3.8462,-1.5505,1.8070,1898.68,1340.45,956.60
21670,-3.8475,-1.2373,1.7515,1539.31,-690.55,-824.65
21680,-3.8486,-0.8165,1.7058,1633.06,200.68,-1652.83
21690,-3.8495,-0.3951,1.6483,-507.57,-1642.27,1300.17
21700,-3.8501,-0.0564,1.5325,1429.93,-1000.79,1690.67
21710,-3.8505,0.1429,1.3990,789.31,171.75,-262.63
21720,-3.8505,0.2130,1.2904,-1695.07,-921.63,1237.06
21730,-3.8503,0.2542,1.2332,-726.32,1172.24,-28.75
21740,-3.8497,0.3395,1.2310,539.31,1844.24,1471.13
21750,-3.8490,0.4739,1.2119,-538.82,1563.11,-1810.12
21760,-3.8481,0.6639,1.1577,664.31,-874.08,-1700.81
21770,-3.8473,0.8981,1.1672,992.43,188.78,-435.24
21780,-3.8464,1.1112,1.2605,-1038.82,1407.96,-1935.24
21790,-3.8457,1.2908,1.3475,-1757.57,1345.89,533.69
21800,-3.8450,1.4724,1.3883,1226.81,486.88,-1653.63
21810,-3.8750,1.6998,1.4130,476.81,1705.99,-153.56
21820,-3.8732,1.9758,1.4336,1586.18,862.67,-59.75
21830,-3.8712,2.2557,1.4196,914.31,-496.15,-1309.75
21840,-3.8698,2.4778,1.3331,742.43,1707.52,2.75
21850,-3.8691,2.5779,1.1891,1164.31,-1354.55,-1794.31
21860,-3.8689,2.5326,1.0371,1976.81,208.13,908.57
21870,-3.8688,2.3802,0.9038,179.93,754.94,-1982.36
21880,-3.8682,2.2329,0.8402,679.93,-307.86,111.08
21890,-3.8672,2.1901,0.9103,1820.56,-448.79,-842.16
21900,-3.8660,2.2710,1.0507,336.18,519.90,-123.23
21910,-3.8649,2.3824,1.1110,-1304.44,-1511.23,1517.64
21920,-3.8641,2.3973,1.0709,961.18,-1792.24,-544.74
21930,-3.8634,2.2692,1.0582,-1132.57,1082.76,-622.92
21940,-3.8627,2.0245,1.1748,-1538.82,-542.48,-1513.61
21950,-3.8621,1.6838,1.3914,-851.32,-1621.09,1174.13
21960,-3.8618,1.2711,1.5691,-460.69,-1903.02,-1028.56
21970,-3.8618,0.8521,1.5908,-1288.82,846.19,-371.95
21980,-3.8617,0.5425,1.5341,1070.56,-373.35,1081.18
21990,-3.8613,0.4449,1.5286,1445.56,360.41,1127.99
22000,-3.8606,0.5011,1.5642,961.18,-342.90,1721.68
22010,-3.8597,0.5311,1.6019,148.68,219.73,1315.55
22020,-3.8595,0.3948,1.6322,-7.57,1047.85,-12.51
22030,-3.8595,0.0566,1.5957,-1460.69,922.61,-12.45
22040,-3.8595,-0.3934,1.4907,-741.94,250.06,-12.51
22050,-3.8595,-0.8180,1.3849,1648.68,-1172.67,-450.26
22060,-3.8595,-1.1034,1.2756,-695.07,1279.60,-825.44
22070,-3.8595,-1.1603,1.1368,-1226.32,-705.32,-356.93
22080,-3.8595,-1.0652,0.9777,-507.57,1528.93,877.20
22090,-3.8600,-1.0022,0.8385,-335.69,1154.11,1.89
22100,-3.8612,-1.0920,0.7317,-273.19,-658.26,-1076.54
22110,-3.8625,-1.3018,0.6554,226.81,1669.74,-1998.60
22120,-3.8636,-1.4917,0.6471,1383.06,-96.31,-373.78
22130,-3.8641,-1.6034,0.7675,1070.56,-1159.18,1454.35
22140,-3.8645,-1.6312,0.9994,-1226.32,-1753.17,-1170.41
22150,-3.8649,-1.6084,1.2324,-788.82,-65.73,455.02
22160,-3.8657,-1.6375,1.3650,-1866.94,1762.45,-544.49
22170,-3.8668,-1.7327,1.3782,-1585.69,-1268.86,283.87
22180,-3.8684,-1.8126,1.3420,-1773.19,418.46,455.81
22190,-3.8702,-1.8467,1.3196,-7.57,-206.73,-44.31
22200,-3.8717,-1.7728,1.3115,-366.94,918.21,-1309.94
22210,-3.8727,-1.6019,1.3389,1086.18,-112.85,1143.13
22220,-3.8734,-1.4747,1.4619,-1038.82,-612.55,-700.56
22230,-3.8741,-1.4573,1.6438,-757.57,-862.30,-387.82
22240,-3.8439,-1.4988,1.7924,1476.81,-1580.99,1221.92
22250,-3.8452,-1.4055,1.8622,164.31,1434.57,-746.52
22260,-3.8463,-1.0499,1.8279,101.81,-1627.75,144.23
22270,-3.8472,-0.5486,1.7092,1617.43,1982.30,784.79
22280,-3.8477,-0.1252,1.5670,1789.31,-1204.22,1503.30
22290,-3.8480,0.0732,1.4327,-23.19,593.44,-903.20
22300,-3.8484,0.0706,1.2992,1383.06,-609.25,-997.25
22310,-3.8488,-0.0017,1.2032,1039.31,-1703.00,1627.50
22320,-3.8491,0.0183,1.1982,-210.69,-1968.81,-1966.43
22330,-3.8494,0.1941,1.2179,-1648.19,1375.00,1033.57
22340,-3.8495,0.4563,1.1514,851.81,-109.01,205.44
22350,-3.8495,0.7437,1.0259,-1585.69,-624.15,-1997.80
22360,-3.8492,0.9928,0.9619,-804.44,-686.10,1798.83
22370,-3.8490,1.1604,0.9878,-913.82,-873.11,-45.04
22380,-3.8486,1.2263,1.0355,539.31,-1560.24,-1060.61
22390,-3.8481,1.1348,1.0647,976.81,549.26,236.39
22400,-3.8477,0.9542,1.0693,1258.06,283.45,-935.42
22410,-3.8467,0.8267,1.0726,-1851.32,876.83,345.83
22420,-3.8455,0.8163,1.1010,1820.56,1298.46,33.33
22430,-3.8442,0.9083,1.1273,492.43,923.46,970.89
22440,-3.8746,1.0089,1.1079,273.68,298.65,-747.80
22450,-3.8741,1.0266,1.0536,1148.68,1814.45,-1419.74
22460,-3.8740,0.9912,1.0239,-585.69,-1138.67,-60.49
22470,-3.8738,1.0199,1.1099,-1116.94,-935.61,-1638.67
22480,-3.8732,1.1449,1.3231,-1445.07,-1935.55,939.64
22490,-3.8722,1.3080,1.4979,-1445.07,1361.57,1502.56
22500,-3.8710,1.4441,1.5447,-570.07,-263.12,-278.38
22510,-3.8695,1.4968,1.5402,851.81,1721.56,-1418.88
22520,-3.8679,1.5026,1.5660,-398.19,1143.49,612.37
22530,-3.8663,1.5925,1.6405,336.18,456.05,1643.68
22540,-3.8647,1.8658,1.7329,-148.19,1987.43,534.42
22550,-3.8635,2.2954,1.7970,-1163.82,1816.10,378.36
22560,-3.8628,2.7498,1.8076,1820.56,-1979.92,1034.73
22570,-3.8624,3.0173,1.7900,-23.19,-619.69,-1449.65
22580,-3.8622,2.8901,1.7705,-1773.19,1130.86,1581.60
22590,-3.8619,2.3467,1.7561,1945.56,-1369.38,65.92
22600,-3.8616,1.6475,1.7415,383.06,785.83,-1871.58
22610,-3.8608,1.2079,1.7329,-1116.94,-1090.58,-1137.27
22620,-3.8600,1.2083,1.7255,-1382.57,1814.82,-762.27
22630,-3.8595,1.4048,1.6605,-1335.69,861.69,-902.89
22640,-3.8596,1.4565,1.5498,-179.44,549.56,1893.86
22650,-3.8601,1.2544,1.4877,-1554.44,-1622.19,268.62
22660,-3.8607,0.8854,1.4725,570.56,-1575.68,-1247.13
22670,-3.8607,0.4965,1.4913,1336.18,486.08,565.37
22680,-3.8602,0.1857,1.5688,-445.07,-1108.46,-1137.76
22690,-3.8596,-0.0890,1.6577,-226.32,812.81,-43.82
22700,-3.8595,-0.4773,1.6615,617.43,202.94,-12.39
22710,-3.8595,-1.0472,1.5273,-1085.69,686.52,-12.39
22720,-3.8596,-1.6669,1.2965,1961.18,-486.45,96.68
22730,-3.8605,-2.1660,1.0591,-1351.32,1965.45,1908.75
22740,-3.8616,-2.4277,0.8969,-1241.94,-426.15,-1544.86
22750,-3.8625,-2.3679,0.8667,1258.06,-1192.26,-1717.04
22760,-3.8633,-2.1075,0.9553,914.31,-1051.51,-295.23
22770,-3.8638,-1.9247,1.0601,-1757.57,-1707.28,-1216.92
22780,-3.8643,-1.8738,1.1060,1648.68,-300.66,361.39
22790,-3.8651,-1.8309,1.1049,164.31,1574.46,1736.51
22800,-3.8663,-1.8118,1.0917,1648.68,1433.90,267.76
22810,-3.8680,-1.8452,1.0856,101.81,-253.54,173.95
22820,-3.8700,-1.8740,1.0892,-179.44,-1034.91,-419.80
22830,-3.8716,-1.8418,1.1034,133.06,-566.16,564.58
22840,-3.8729,-1.6805,1.1322,258.06,1246.40,1299.01
22850,-3.8738,-1.4283,1.1602,898.68,934.20,-1810.30
22860,-3.8741,-1.1394,1.2031,1179.93,512.82,-1950.87
22870,-3.8743,-0.8114,1.3048,-1835.69,-1986.63,924.19
22880,-3.8745,-0.5221,1.4523,148.68,-970.34,-106.87
22890,-3.8748,-0.3116,1.5701,1179.93,1905.21,-262.82
22900,-3.8439,-0.1038,1.5782,117.43,983.76,409.30
22910,-3.8447,0.1017,1.4673,-1273.19,-1968.99,690.55
22920,-3.8459,0.1620,1.3110,1023.68,-187.32,1705.93
22930,-3.8473,-0.0006,1.1836,742.43,-187.19,-544.37
22940,-3.8483,-0.2728,1.1045,-70.07,-484.44,-1528.99
22950,-3.8486,-0.3942,1.0948,1086.18,1390.08,1533.39
22960,-3.8486,-0.1989,1.1328,1554.93,155.46,33.39
22970,-3.8490,0.1715,1.1295,-1445.07,1015.20,-763.43
22980,-3.8495,0.4531,1.1086,1961.18,578.43,502.20
22990,-3.8500,0.5437,1.1490,-1991.94,1907.10,345.89
23000,-3.8501,0.5228,1.2185,1601.81,-920.84,1955.32
23010,-3.8497,0.4951,1.2749,-1070.07,-30.27,-1716.43
23020,-3.8491,0.5721,1.3092,-616.94,-811.58,-591.31
23030,-3.8485,0.8500,1.3131,1242.43,-420.78,-60.00
23040,-3.8481,1.2032,1.3292,804.93,79.77,-1059.94
23050,-3.8480,1.3630,1.3634,-1976.32,-1857.06,1346.31
23060,-3.8479,1.2628,1.3831,-1523.19,-1481.75,-606.75
23070,-3.8470,1.1019,1.4454,1648.68,1033.69,502.69
23080,-3.8456,1.0902,1.5793,1054.93,1017.76,1096.56
23090,-3.8439,1.2976,1.6924,-445.07,-1841.67,-684.45
23100,-3.8735,1.5872,1.7152,-1898.19,627.50,393.92
23110,-3.8726,1.7439,1.6840,-835.69,-450.07,-1137.33
23120,-3.8717,1.7427,1.6310,-773.19,-449.77,1268.86
23130,-3.8708,1.6998,1.5771,-929.44,768.98,846.92
23140,-3.8698,1.7295,1.5825,1586.18,1878.30,878.05
23150,-3.8685,1.9084,1.6774,1383.06,-1434.14,-1387.57
23160,-3.8674,2.1251,1.7992,289.31,-1293.15,-12.39
23170,-3.8666,2.0995,1.8145,23.68,-1698.97,-1184.02
