timestamp_ms,ax,ay,az,gx,gy,gz
0,-3.8723,-0.8268,-0.0542,-1882.57,-486.02,1343.69
10,-3.8719,-0.8254,-0.1641,-1820.07,1076.48,1296.75
20,-3.8716,-0.8344,-0.2909,-1648.19,-986.02,-1187.87
30,-3.8712,-0.8519,-0.3844,1211.18,-1220.40,-1906.86
40,-3.8710,-0.8876,-0.4122,-1038.82,-1189.21,702.33
50,-3.8710,-0.9443,-0.3647,-1601.32,-751.77,1827.27
60,-3.8711,-0.9824,-0.2349,-866.94,1326.23,-1719.48
70,-3.8712,-0.9551,-0.0663,-1741.94,1951.17,718.26
80,-3.8713,-0.8579,0.0254,1758.06,-470.64,46.69
90,-3.8715,-0.7120,-0.0364,-1804.44,-736.08,-1125.00
100,-3.8713,-0.5659,-0.2045,867.43,-642.03,-1531.37
110,-3.8711,-0.5042,-0.3754,-429.44,1842.59,1358.95
120,-3.8710,-0.5990,-0.4756,-523.19,-32.29,-875.79
130,-3.8708,-0.8551,-0.4791,-663.82,-860.60,1842.77
140,-3.8707,-1.1840,-0.3977,-1445.07,-1314.21,764.65
150,-3.8706,-1.4363,-0.2616,461.18,1107.06,1467.96
160,-3.8705,-1.5154,-0.1561,164.31,-1471.56,-1078.67
170,-3.8702,-1.4152,-0.1968,-1960.69,28.26,-1047.18
180,-3.8698,-1.1656,-0.3887,-1132.57,-1174.68,1780.82
190,-3.8691,-0.8622,-0.6222,-1195.07,-1736.69,-1797.67
200,-3.8684,-0.6853,-0.7777,1648.68,373.29,623.78
210,-3.8677,-0.7327,-0.7855,289.31,467.41,1545.35
220,-3.8668,-0.8757,-0.7181,-1773.19,-532.71,-1876.59
230,-3.8658,-0.9058,-0.7478,-85.69,91.98,-95.15
240,-3.8647,-0.7565,-0.9124,70.56,295.10,-563.96
250,-3.8639,-0.5052,-1.0831,-820.07,-767.15,-376.83
260,-3.8634,-0.2902,-1.1882,-663.82,1373.96,-127.14
270,-3.8632,-0.2158,-1.2670,-1132.57,-78.74,-236.76
280,-3.8629,-0.2454,-1.3273,383.06,1843.32,1950.62
290,-3.8627,-0.2670,-1.3574,601.81,-1875.49,1606.75
300,-3.8624,-0.1827,-1.3967,1836.18,-1734.92,-627.69
310,-3.8621,0.0657,-1.4762,617.43,1234.01,-1455.87
320,-3.8617,0.4454,-1.5642,414.31,-953.00,1872.07
330,-3.8615,0.8416,-1.6062,1023.68,-217.90,1590.64
340,-3.8616,1.1573,-1.5804,-273.19,-1592.16,-1471.92
350,-3.8621,1.3690,-1.5135,148.68,1705.38,950.01
360,-3.8629,1.4829,-1.4401,-757.57,-1731.75,293.88
370,-3.8639,1.5123,-1.3673,1820.56,-325.26,481.51
380,-3.8649,1.4767,-1.3024,1586.18,987.30,-471.44
390,-3.8656,1.3812,-1.2675,1023.68,1299.74,1981.81
400,-3.8663,1.2274,-1.2664,804.93,1768.31,1028.75
410,-3.8672,1.0516,-1.2886,1117.43,1908.63,-752.50
420,-3.8679,0.9283,-1.3412,-1382.57,-935.49,-408.81
430,-3.8684,0.9102,-1.4243,-1163.82,329.90,-518.25
440,-3.8687,0.9581,-1.4889,508.06,1689.27,-799.68
450,-3.8688,1.0259,-1.4773,-1351.32,1423.71,1356.45
460,-3.8691,1.1012,-1.3676,-679.44,-1091.80,-487.30
470,-3.8698,1.1439,-1.1683,961.18,955.26,-1315.19
480,-3.8707,1.1335,-0.9303,-1570.07,-1544.68,-1111.69
490,-3.8717,1.0844,-0.7102,1101.81,924.07,498.17
500,-3.8727,1.0098,-0.5323,-1195.07,1095.83,-1845.15
510,-3.8734,0.9203,-0.3981,1258.06,-138.67,952.03
520,-3.8740,0.8234,-0.3005,1804.93,1048.65,358.58
530,-3.8745,0.7277,-0.2377,1398.68,1532.84,1905.64
540,-3.8748,0.6455,-0.2118,1148.68,1579.53,-1078.61
550,-3.8748,0.5787,-0.2192,-1366.94,891.85,-1609.80
560,-3.8746,0.5221,-0.2389,-1913.82,-61.40,1577.64
570,-3.8745,0.4830,-0.2410,-1163.82,1422.85,1218.26
580,-3.8745,0.4590,-0.2109,1836.18,1157.17,-1156.74
590,-3.8745,0.4303,-0.1566,-1241.94,1000.85,-984.80
600,-3.8745,0.3923,-0.0881,-913.82,-46.08,-469.12
610,-3.8745,0.3544,-0.0120,-1773.19,719.48,-672.06
620,-3.8745,0.3251,0.0591,1367.43,-1530.58,-1218.81
630,-3.8744,0.3137,0.1135,1617.43,-436.89,218.81
640,-3.8744,0.3335,0.1526,164.31,-1468.14,-15.44
650,-3.8741,0.3789,0.1871,-1304.44,-468.14,1265.87
660,-3.8739,0.4264,0.2120,508.06,-46.14,1031.56
670,-3.8737,0.4608,0.2135,-1413.82,-858.58,-452.76
680,-3.8733,0.4695,0.1957,-1007.57,-671.02,-1859.01
690,-3.8730,0.4486,0.1719,101.81,1047.79,-1624.63
700,-3.8729,0.4105,0.1589,1429.93,-1999.15,-1218.44
710,-3.8729,0.3671,0.1686,554.93,344.54,-1796.57
720,-3.8730,0.3289,0.2026,-1007.57,1578.80,1031.56
730,-3.8733,0.3104,0.2590,-1898.19,1938.11,1281.62
740,-3.8735,0.3082,0.3268,-257.57,1156.80,500.49
750,-3.8738,0.3042,0.3859,-538.82,1828.67,250.61
760,-3.8740,0.2924,0.4167,-1054.44,1391.17,-1468.02
770,-3.8741,0.2672,0.4158,1429.93,1344.30,-327.33
780,-3.8741,0.2122,0.4015,-1788.82,1219.24,-1421.08
790,-3.8741,0.1274,0.3956,-835.69,-609.01,-1389.89
800,-3.8741,0.0382,0.4045,320.56,-1359.13,-733.64
810,-3.8741,-0.0305,0.4236,898.68,-218.69,-905.52
820,-3.8743,-0.0767,0.4523,101.81,-1765.69,-342.96
830,-3.8744,-0.1134,0.4900,-1804.44,1906.07,125.85
840,-3.8748,-0.1456,0.5255,1492.43,-1265.87,-1467.83
850,-3.8750,-0.1663,0.5416,1367.43,-719.06,-1311.52
860,-3.8439,-0.1774,0.5298,-1273.19,1343.38,-389.59
870,-3.8750,-0.1958,0.4937,1304.93,-172.24,-1202.15
880,-3.8746,-0.2228,0.4432,-1054.44,-797.30,1750.92
890,-3.8741,-0.2416,0.3870,-507.57,749.51,-1530.40
900,-3.8737,-0.2452,0.3341,1086.18,1546.39,-436.77
910,-3.8732,-0.2437,0.3088,617.43,-1219.24,1031.86
920,-3.8729,-0.2426,0.3336,820.56,-453.61,578.67
930,-3.8729,-0.2347,0.3992,961.18,-1281.74,1047.49
940,-3.8730,-0.2180,0.4733,1961.18,-891.11,360.11
950,-3.8733,-0.1998,0.5237,101.81,593.32,-1389.71
960,-3.8734,-0.1959,0.5251,-1570.07,-953.55,-420.90
970,-3.8733,-0.2152,0.4752,-1070.07,-766.05,1204.10
980,-3.8732,-0.2454,0.4054,461.18,843.32,-670.96
990,-3.8729,-0.2697,0.3535,601.81,-94.24,-389.89
1000,-3.8727,-0.2899,0.3348,1492.43,1265.08,-1171.20
1010,-3.8726,-0.3153,0.3428,-1101.32,-1125.61,-796.26
1020,-3.8726,-0.3430,0.3632,-351.32,-110.05,-186.89
1030,-3.8726,-0.3585,0.3846,101.81,-1500.67,1469.42
1040,-3.8727,-0.3469,0.3950,-1882.57,1249.27,-1483.64
1050,-3.8727,-0.3141,0.3812,-398.19,-1422.61,828.86
1060,-3.8727,-0.2942,0.3450,-195.07,811.83,594.48
1070,-3.8727,-0.3185,0.3217,-1648.19,171.26,1235.05
1080,-3.8727,-0.3870,0.3339,-757.57,1186.83,-1655.64
1090,-3.8727,-0.4734,0.3468,-1523.19,-1250.79,-1015.01
1100,-3.8727,-0.5432,0.3229,-585.69,405.27,-639.95
1110,-3.8726,-0.5698,0.2705,-1523.19,1342.65,1016.24
1120,-3.8724,-0.5452,0.2229,-929.44,-1360.53,156.74
1130,-3.8723,-0.4789,0.2024,-1773.19,545.78,406.68
1140,-3.8722,-0.4185,0.2004,-1288.82,1920.90,203.49
1150,-3.8723,-0.4205,0.2145,-1554.44,1671.02,-155.88
1160,-3.8724,-0.4860,0.2534,-1820.07,-532.10,-1202.76
1170,-3.8726,-0.5796,0.2783,1804.93,452.15,-1468.26
1180,-3.8726,-0.6520,0.2299,1820.56,-360.53,-890.14
1190,-3.8724,-0.6517,0.1201,554.93,1436.22,-1562.07
1200,-3.8723,-0.5651,0.0291,586.18,-610.66,1515.81
1210,-3.8722,-0.4210,0.0107,-320.07,-266.78,1125.00
1220,-3.8721,-0.2719,0.0389,-1882.57,1389.77,-1671.88
1230,-3.8718,-0.1703,0.0359,1211.18,999.45,1000.06
1240,-3.8717,-0.1558,-0.0231,-1788.82,609.01,-93.69
1250,-3.8716,-0.2407,-0.0833,70.56,1062.19,-359.44
1260,-3.8716,-0.3892,-0.1191,1195.56,1358.89,-1687.68
1270,-3.8717,-0.5356,-0.1669,-1804.44,764.83,656.01
1280,-3.8719,-0.6327,-0.2428,-554.44,-1344.85,327.76
1290,-3.8722,-0.6675,-0.2852,-976.32,936.22,140.14
1300,-3.8723,-0.6538,-0.2238,-1429.44,-485.72,1233.76
1310,-3.8722,-0.6212,-0.1033,320.56,-626.28,1405.76
1320,-3.8719,-0.5907,-0.0621,492.43,-1204.35,46.63
1330,-3.8718,-0.5723,-0.1826,398.68,61.34,-1406.37
1340,-3.8716,-0.5774,-0.4054,-1241.94,639.47,1484.01
1350,-3.8715,-0.5967,-0.6124,-1898.19,123.84,-422.67
1360,-3.8713,-0.5813,-0.7134,-366.94,1623.78,-1141.85
1370,-3.8712,-0.4973,-0.6487,1601.81,701.97,-1954.53
1380,-3.8710,-0.3923,-0.4585,351.81,983.40,904.97
1390,-3.8708,-0.3477,-0.2946,1789.31,1327.33,-1954.04
1400,-3.8710,-0.3848,-0.2826,-491.94,-1688.23,-266.24
1410,-3.8711,-0.4735,-0.4229,-1241.94,-157.04,1202.51
1420,-3.8712,-0.5814,-0.6182,-601.32,1889.65,921.02
1430,-3.8712,-0.6696,-0.7562,1586.18,889.47,-1813.72
1440,-3.8710,-0.6921,-0.7704,-1695.07,-782.59,-1548.40
1450,-3.8705,-0.6541,-0.6917,-585.69,1404.85,-1360.90
1460,-3.8699,-0.6140,-0.6215,289.31,-516.91,1529.85
1470,-3.8694,-0.6067,-0.6462,1414.31,467.53,280.03
1480,-3.8691,-0.6326,-0.7704,-1648.19,1295.65,1717.47
1490,-3.8690,-0.6830,-0.9170,-960.69,1404.97,-782.78
1500,-3.8689,-0.7247,-0.9950,586.18,-1360.72,-814.33
1510,-3.8687,-0.7322,-0.9614,-757.57,654.79,-751.95
1520,-3.8682,-0.7452,-0.8851,-1710.69,951.66,-142.52
1530,-3.8674,-0.7863,-0.9131,617.43,-1282.71,1123.23
1540,-3.8669,-0.8043,-1.1187,-632.57,-860.96,1560.67
1550,-3.8666,-0.7690,-1.4238,1054.93,826.54,44.68
1560,-3.8662,-0.6917,-1.6682,1570.56,1764.10,-1221.56
1570,-3.8655,-0.5760,-1.7379,-523.19,-1517.03,996.70
1580,-3.8649,-0.4169,-1.6600,-1726.32,1561.34,-1456.54
1590,-3.8645,-0.2131,-1.5514,-1351.32,-469.60,527.95
1600,-3.8647,0.0093,-1.4803,726.81,1437.07,-1018.68
1610,-3.8651,0.1995,-1.4388,1195.56,-1484.38,184.57
1620,-3.8657,0.3116,-1.4030,1539.31,-171.51,-49.74
1630,-3.8661,0.3175,-1.3685,-101.32,422.42,-1440.25
1640,-3.8663,0.2291,-1.3402,648.68,828.74,1075.44
1650,-3.8666,0.1045,-1.3219,1336.18,453.55,1841.13
1660,-3.8668,0.0148,-1.3156,1383.06,-1202.94,-1330.75
1670,-3.8671,0.0085,-1.3169,1898.68,-390.62,-783.87
1680,-3.8673,0.0930,-1.3160,1101.81,-562.50,-127.62
1690,-3.8674,0.2242,-1.2985,-85.69,-453.00,75.50
1700,-3.8678,0.3361,-1.2522,711.18,1797.30,-1705.69
1710,-3.8682,0.3989,-1.1813,-976.32,-280.64,1153.75
1720,-3.8687,0.4225,-1.0989,-929.44,797.61,966.43
1730,-3.8693,0.4410,-1.0197,-1913.82,-655.46,-267.82
1740,-3.8696,0.4919,-0.9576,461.18,1485.23,107.36
1750,-3.8701,0.5660,-0.9164,-1023.19,1422.79,-345.64
1760,-3.8704,0.6254,-0.8838,461.18,-1295.78,1013.79
1770,-3.8707,0.6398,-0.8423,54.93,-1123.78,810.73
1780,-3.8712,0.5959,-0.7822,1898.68,188.72,1857.73
1790,-3.8717,0.5081,-0.7046,289.31,-123.84,-1970.34
1800,-3.8722,0.4047,-0.6189,1039.31,1813.48,-204.53
1810,-3.8724,0.3129,-0.5424,-195.07,781.98,1405.03
1820,-3.8727,0.2574,-0.4913,54.93,-1421.26,-1063.60
1830,-3.8728,0.2474,-0.4702,961.18,1109.86,-1500.98
1840,-3.8729,0.2815,-0.4617,-320.07,-187.07,-94.73
1850,-3.8729,0.3518,-0.4463,39.31,906.80,-1110.29
1860,-3.8729,0.4342,-0.4138,1039.31,-1124.33,-1891.54
1870,-3.8729,0.5012,-0.3599,-413.82,-967.96,733.52
1880,-3.8730,0.5402,-0.2870,164.31,1938.48,-1328.86
1890,-3.8732,0.5594,-0.2078,1148.68,-733.34,-78.74
1900,-3.8732,0.5679,-0.1387,-382.57,1407.29,30.82
1910,-3.8733,0.5559,-0.0868,695.56,-1748.90,140.32
1920,-3.8734,0.5177,-0.0535,-835.69,891.66,-1812.68
1930,-3.8734,0.4738,-0.0414,-1726.32,1157.23,-1859.50
1940,-3.8734,0.4496,-0.0459,648.68,-1295.96,1937.38
1950,-3.8734,0.4514,-0.0476,1554.93,-1874.15,31.13
1960,-3.8735,0.4747,-0.0258,1789.31,1907.10,781.13
1970,-3.8737,0.5105,0.0232,773.68,704.04,1328.06
1980,-3.8738,0.5452,0.0869,1351.81,-1030.27,-1593.75
1990,-3.8739,0.5645,0.1493,1789.31,-873.96,-281.13
2000,-3.8739,0.5594,0.1982,258.06,-889.53,937.74
2010,-3.8740,0.5277,0.2261,-382.57,1376.04,-1359.01
2020,-3.8740,0.4773,0.2317,-445.07,938.48,1312.93
2030,-3.8740,0.4287,0.2223,1101.81,1657.17,1156.68
2040,-3.8740,0.4023,0.2123,-1116.94,453.92,1828.55
2050,-3.8740,0.4037,0.2159,-491.94,-827.39,-1796.51
2060,-3.8740,0.4205,0.2388,-320.07,-358.64,1844.12
2070,-3.8740,0.4307,0.2727,1836.18,-1436.71,1094.18
2080,-3.8741,0.4166,0.2994,-866.94,-1092.96,-77.64
2090,-3.8741,0.3755,0.3057,1336.18,-1671.08,-1499.45
2100,-3.8741,0.3173,0.2906,70.56,-874.27,1047.42
2110,-3.8743,0.2584,0.2645,617.43,1203.74,-1030.70
2120,-3.8744,0.2043,0.2411,1086.18,1859.86,-812.01
2130,-3.8745,0.1494,0.2327,-1835.69,-1140.26,-1780.82
2140,-3.8746,0.1019,0.2526,-866.94,1781.49,625.43
2150,-3.8749,0.0839,0.2983,1054.93,328.31,-499.51
2160,-3.8749,0.1094,0.3386,-1257.57,-1812.38,281.80
2170,-3.8750,0.1606,0.3455,-1991.94,-656.07,-1655.64
2180,-3.8750,0.2026,0.3268,570.56,219.06,781.92
2190,-3.8439,0.2205,0.3104,1945.56,1828.49,-796.26
2200,-3.8439,0.2163,0.3060,226.81,-265.20,-1905.70
2210,-3.8439,0.1849,0.2904,-304.44,-827.76,-515.08
2220,-3.8750,0.1140,0.2349,-320.07,1172.18,-186.95
2230,-3.8748,-0.0115,0.1429,-1398.19,-1937.32,1406.68
2240,-3.8745,-0.1880,0.0532,-1460.69,-1687.56,484.62
2250,-3.8744,-0.3645,0.0046,-54.44,-1172.30,-171.81
2260,-3.8741,-0.4677,0.0038,1351.81,608.64,1562.50
2270,-3.8740,-0.4553,0.0393,148.68,499.08,-1046.88
2280,-3.8739,-0.3422,0.0933,1726.81,1045.96,-1093.69
2290,-3.8739,-0.1930,0.1309,211.18,-47.55,-499.88
2300,-3.8738,-0.0769,0.1160,-695.07,765.20,1984.62
2310,-3.8735,-0.0271,0.0302,-1835.69,-1140.81,-499.82
2320,-3.8730,-0.0647,-0.1046,539.31,-125.06,1687.50
2330,-3.8726,-0.2118,-0.2288,-273.19,-1375.18,906.01
2340,-3.8722,-0.4503,-0.3030,898.68,-1266.05,-1547.36
2350,-3.8719,-0.7107,-0.3262,-1632.57,1233.46,-1469.36
2360,-3.8719,-0.9232,-0.3126,1039.31,-1735.78,-1063.17
2370,-3.8721,-1.0365,-0.2832,1836.18,-1.83,1655.58
2380,-3.8723,-1.0256,-0.2462,-663.82,-236.45,-31.86
2390,-3.8723,-0.9280,-0.2074,726.81,497.99,-734.86
2400,-3.8722,-0.8311,-0.2065,1226.81,1466.92,-375.43
2410,-3.8721,-0.8062,-0.2781,1633.06,1576.48,-406.68
2420,-3.8719,-0.8815,-0.3868,820.56,420.29,1436.95
2430,-3.8718,-1.0281,-0.4661,-820.07,-1501.77,61.71
2440,-3.8718,-1.1484,-0.4829,414.31,357.36,-1219.67
2450,-3.8717,-1.1515,-0.4337,1008.06,-1799.13,811.52
2460,-3.8717,-1.0305,-0.3324,617.43,497.74,-594.60
2470,-3.8716,-0.8590,-0.2219,101.81,1466.74,-1375.67
2480,-3.8715,-0.7362,-0.1759,-1945.07,-392.33,-1797.36
2490,-3.8713,-0.7350,-0.2445,1773.68,1498.54,780.88
2500,-3.8713,-0.8488,-0.4025,1929.93,717.29,-422.36
2510,-3.8711,-0.9943,-0.5758,-632.57,498.29,405.46
2520,-3.8710,-1.0792,-0.6882,742.43,-1689.45,1295.72
2530,-3.8708,-1.0543,-0.6764,1867.43,-80.26,-1923.28
2540,-3.8706,-0.9210,-0.5243,1054.93,1435.42,-1360.72
2550,-3.8702,-0.7351,-0.3286,-1882.57,904.42,-1626.04
2560,-3.8700,-0.5789,-0.2531,1914.31,1951.66,702.45
2570,-3.8701,-0.4987,-0.3691,1914.31,-376.16,-31.80
2580,-3.8701,-0.5096,-0.5959,179.93,764.65,-938.23
2590,-3.8700,-0.6083,-0.8154,-1226.32,-266.66,1576.90
2600,-3.8699,-0.7317,-0.9465,-1851.32,-360.60,-1673.52
2610,-3.8698,-0.7889,-0.9192,-1648.19,-1142.09,-376.89
2620,-3.8695,-0.7501,-0.7461,-976.32,-1642.21,-876.83
2630,-3.8693,-0.6608,-0.5571,-7.57,514.10,-1329.59
2640,-3.8691,-0.5891,-0.5007,-570.07,701.78,1045.78
2650,-3.8693,-0.5758,-0.6317,601.81,-79.28,-1501.04
2660,-3.8694,-0.6178,-0.8679,-1695.07,-844.91,1545.59
2670,-3.8695,-0.6823,-1.0760,929.93,920.65,201.42
2680,-3.8698,-0.7177,-1.1719,679.93,-1720.09,-1564.64
2690,-3.8699,-0.6915,-1.1368,148.68,-1985.78,1591.43
2700,-3.8699,-0.6147,-0.9946,-507.57,-1501.40,-846.01
2710,-3.8695,-0.5122,-0.8293,1320.56,701.90,-1798.83
2720,-3.8689,-0.4259,-0.7539,-1554.44,1858.34,388.98
2730,-3.8683,-0.3882,-0.8097,1492.43,-485.23,1904.72
2740,-3.8676,-0.3649,-0.9182,-1679.44,374.21,92.16
2750,-3.8669,-0.3011,-0.9607,1304.93,-1516.36,1388.79
2760,-3.8663,-0.1965,-0.9014,1461.18,1046.26,-1986.27
2770,-3.8657,-0.0795,-0.7977,-1148.19,640.20,545.10
2780,-3.8654,0.0353,-0.7300,1836.18,1906.07,1670.29
2790,-3.8652,0.1268,-0.7183,523.68,-1437.44,-173.34
2800,-3.8651,0.1801,-0.7057,242.43,62.74,873.60
2810,-3.8651,0.2191,-0.6606,-945.07,1672.18,1420.47
2820,-3.8651,0.2855,-0.6442,54.93,-562.07,-32.59
2830,-3.8650,0.3898,-0.7196,554.93,1547.42,-298.16
2840,-3.8649,0.5056,-0.8550,1898.68,-108.64,-548.34
2850,-3.8647,0.6078,-0.9680,726.81,-1436.52,1295.17
2860,-3.8649,0.6791,-1.0150,1804.93,94.91,732.48
2870,-3.8654,0.7034,-1.0068,-1070.07,-1920.59,1560.49
2880,-3.8661,0.6803,-0.9789,-1960.69,-873.66,1763.61
2890,-3.8669,0.6259,-0.9547,-913.82,-1295.59,-580.08
2900,-3.8677,0.5601,-0.9406,117.43,1798.10,-892.52
2910,-3.8683,0.4893,-0.9427,-304.44,-389.59,-1158.14
2920,-3.8687,0.4133,-0.9664,-1366.94,-670.96,576.23
2930,-3.8689,0.3518,-1.0089,914.31,297.67,1029.36
2940,-3.8690,0.3357,-1.0564,1039.31,-1139.95,1263.61
2950,-3.8691,0.3694,-1.0815,-1023.19,781.86,794.80
2960,-3.8694,0.4269,-1.0596,-710.69,1563.17,185.36
2970,-3.8699,0.4789,-0.9836,-1351.32,375.79,-1830.20
2980,-3.8705,0.5110,-0.8650,1304.93,-1905.33,-314.45
2990,-3.8711,0.5259,-0.7289,1414.31,1282.23,-236.08
3000,-3.8716,0.5385,-0.5979,-679.44,-1295.90,1904.79
3010,-3.8719,0.5571,-0.4873,929.93,-530.21,405.03
3020,-3.8722,0.5773,-0.4102,-679.44,1626.04,202.15
3030,-3.8723,0.5902,-0.3715,1898.68,-498.90,592.90
3040,-3.8724,0.5892,-0.3606,-445.07,454.22,-610.11
3050,-3.8724,0.5667,-0.3579,-570.07,1844.85,-1375.73
3060,-3.8724,0.5197,-0.3479,539.31,-1811.40,1421.14
3070,-3.8726,0.4620,-0.3220,-1476.32,-530.27,-844.48
3080,-3.8727,0.4152,-0.2784,-851.32,-1217.90,-516.30
3090,-3.8728,0.3884,-0.2252,1148.68,360.17,-906.80
3100,-3.8729,0.3806,-0.1742,1726.81,-827.39,-1094.24
3110,-3.8730,0.3873,-0.1346,726.81,1703.86,-844.12
3120,-3.8732,0.4041,-0.1093,1586.18,-1233.64,-406.56
3130,-3.8733,0.4192,-0.0859,-273.19,-1983.64,-31.49
3140,-3.8733,0.4160,-0.0505,1664.31,1000.79,265.44
3150,-3.8734,0.3870,-0.0065,1258.06,1532.04,1156.13
3160,-3.8735,0.3376,0.0365,1539.31,-827.39,-281.31
3170,-3.8735,0.2836,0.0717,-773.19,672.49,-140.56
3180,-3.8734,0.2480,0.0931,304.93,1172.42,906.37
3190,-3.8734,0.2454,0.1001,-241.94,-77.70,-1406.13
3200,-3.8733,0.2672,0.1036,-585.69,812.93,265.81
3210,-3.8733,0.2909,0.1207,-1788.82,1266.11,828.31
3220,-3.8734,0.3030,0.1581,1242.43,-546.33,-187.32
3230,-3.8734,0.3123,0.2090,-1210.69,234.92,1750.31
3240,-3.8735,0.3303,0.2631,-23.19,-1249.45,-1124.63
3250,-3.8737,0.3510,0.3066,-1710.69,1672.49,-62.01
3260,-3.8737,0.3635,0.3247,929.93,-749.33,-1546.33
3270,-3.8737,0.3580,0.3153,-1460.69,1563.17,1828.74
3280,-3.8737,0.3207,0.2930,1836.18,360.05,1141.24
3290,-3.8737,0.2466,0.2721,1054.93,1500.61,1172.42
3300,-3.8737,0.1503,0.2579,-429.44,-1171.45,-1968.26
3310,-3.8737,0.0598,0.2539,-757.57,1015.87,-1233.89
3320,-3.8737,-0.0029,0.2614,-335.69,500.06,-593.26
3330,-3.8735,-0.0336,0.2787,-366.94,1468.69,578.61
3340,-3.8735,-0.0432,0.3035,-288.82,-312.62,1734.86
3350,-3.8735,-0.0458,0.3361,-1523.19,-1140.75,1641.17
3360,-3.8735,-0.0511,0.3809,-1851.32,-968.87,78.74
3370,-3.8737,-0.0652,0.4299,1461.18,765.50,1360.11
3380,-3.8738,-0.0834,0.4629,-335.69,-953.31,1860.17
3390,-3.8739,-0.0996,0.4683,1336.18,-734.56,-1577.27
3400,-3.8740,-0.1132,0.4559,-741.94,-47.12,-233.52
3410,-3.8740,-0.1273,0.4510,1523.68,-1625.24,-1249.15
3420,-3.8740,-0.1428,0.4637,-288.82,1749.69,-546.02
3430,-3.8739,-0.1522,0.4790,1726.81,-625.31,125.85
3440,-3.8739,-0.1520,0.4823,523.68,1327.82,16.54
3450,-3.8739,-0.1437,0.4739,554.93,1749.69,500.92
3460,-3.8739,-0.1265,0.4608,1617.43,671.57,-1874.08
3470,-3.8739,-0.1053,0.4470,-179.44,-1000.31,-311.65
3480,-3.8738,-0.0892,0.4384,-1476.32,1234.13,235.23
3490,-3.8738,-0.0829,0.4362,586.18,124.82,219.60
3500,-3.8738,-0.0948,0.4321,1398.68,-156.43,141.42
3510,-3.8739,-0.1356,0.4150,-132.57,-672.12,-77.33
3520,-3.8739,-0.2074,0.3754,-1351.32,1140.32,-186.71
3530,-3.8738,-0.2913,0.3143,1461.18,62.07,781.98
3540,-3.8738,-0.3561,0.2515,-1273.19,249.39,-905.64
3550,-3.8737,-0.3855,0.2153,-1570.07,202.39,-1765.14
3560,-3.8735,-0.3796,0.2253,-1335.69,-422.67,-1843.38
3570,-3.8734,-0.3501,0.2662,-585.69,858.58,-1733.95
3580,-3.8733,-0.3101,0.2976,-804.44,-1906.98,1328.61
3590,-3.8733,-0.2710,0.2842,320.56,-1891.24,-1921.33
3600,-3.8733,-0.2543,0.2135,1320.56,390.08,719.30
3610,-3.8734,-0.2831,0.1108,-538.82,-656.80,-749.63
3620,-3.8734,-0.3649,0.0262,-226.32,-1797.49,-937.32
3630,-3.8733,-0.4821,-0.0062,1304.93,-625.73,218.75
3640,-3.8733,-0.5989,0.0209,-1695.07,-782.23,-1578.19
3650,-3.8732,-0.6824,0.0829,-648.19,-1313.72,1546.88
3660,-3.8730,-0.7148,0.1295,664.31,-1376.34,578.25
3670,-3.8730,-0.6859,0.1293,508.06,592.35,-1062.26
3680,-3.8729,-0.5984,0.0807,211.18,561.16,-1890.38
3690,-3.8728,-0.4917,-0.0068,-585.69,-1657.47,-1843.63
3700,-3.8727,-0.4269,-0.1094,1070.56,-860.35,1968.69
3710,-3.8726,-0.4452,-0.1896,1367.43,-1985.23,-1265.87
3720,-3.8723,-0.5372,-0.2209,-976.32,-250.92,1046.45
3730,-3.8722,-0.6453,-0.1990,-757.57,-266.72,-1234.86
3740,-3.8721,-0.6993,-0.1307,1414.31,-1454.41,-328.55
3750,-3.8718,-0.6774,-0.0743,-1507.57,-720.15,1765.32
3760,-3.8716,-0.6013,-0.1132,1304.93,-1501.34,1531.07
3770,-3.8713,-0.4882,-0.2462,-960.69,1530.03,1937.26
3780,-3.8711,-0.3588,-0.3937,1523.68,499.02,1327.64
3790,-3.8710,-0.2524,-0.4757,-1913.82,1624.27,-860.17
3800,-3.8707,-0.2020,-0.4840,-304.44,-875.55,1889.65
3810,-3.8705,-0.2159,-0.4802,-1851.32,-1937.93,-375.98
3820,-3.8701,-0.2823,-0.5066,367.43,-1453.55,-219.73
3830,-3.8696,-0.3711,-0.5581,-132.57,-828.74,1639.59
3840,-3.8693,-0.4380,-0.6193,508.06,577.39,1983.28
3850,-3.8690,-0.4576,-0.6495,-54.44,749.08,233.15
3860,-3.8690,-0.4360,-0.5972,1429.93,874.08,1154.97
3870,-3.8690,-0.3979,-0.4879,195.56,-422.73,76.90
3880,-3.8691,-0.3856,-0.4323,1070.56,1561.71,1827.15
3890,-3.8693,-0.4271,-0.4894,-1351.32,686.71,1389.77
3900,-3.8695,-0.5134,-0.5968,1336.18,1374.15,-485.35
3910,-3.8696,-0.6152,-0.6582,-1710.69,-376.04,-1876.22
3920,-3.8698,-0.6882,-0.6235,1258.06,-235.60,1889.28
3930,-3.8699,-0.6989,-0.5236,-85.69,201.72,-188.72
3940,-3.8698,-0.6570,-0.4626,-1445.07,998.60,1498.96
3950,-3.8696,-0.5991,-0.5054,-85.69,795.53,-688.42
3960,-3.8694,-0.5569,-0.6047,-679.44,-673.10,-1407.29
3970,-3.8693,-0.5359,-0.6931,726.81,-1391.72,-829.35
3980,-3.8693,-0.5112,-0.7576,-585.69,-704.22,-845.15
3990,-3.8693,-0.4584,-0.8225,-1429.44,-954.16,217.22
4000,-3.8694,-0.3701,-0.9113,1336.18,-1266.54,1295.23
4010,-3.8695,-0.2516,-1.0034,633.06,-625.73,-892.46
4020,-3.8696,-0.1300,-1.0380,-195.07,-422.42,-127.01
4030,-3.8698,-0.0387,-0.9745,-632.57,-844.06,-423.95
4040,-3.8698,0.0145,-0.8395,-945.07,-718.87,248.05
4050,-3.8699,0.0414,-0.6995,1867.43,546.88,-1673.52
4060,-3.8699,0.0542,-0.6128,1304.93,-1531.19,1514.22
4070,-3.8698,0.0627,-0.6206,-1054.44,1562.56,92.53
4080,-3.8695,0.0690,-0.7209,39.31,562.62,983.15
4090,-3.8691,0.0668,-0.8573,836.18,-281.13,-470.21
4100,-3.8685,0.0559,-0.9558,554.93,-1734.25,1123.29
4110,-3.8680,0.0535,-0.9681,-835.69,1656.31,1982.48
4120,-3.8677,0.0751,-0.9016,-1148.19,78.19,1357.48
4130,-3.8676,0.1215,-0.8021,1617.43,593.87,-1673.65
4140,-3.8674,0.1959,-0.7152,-445.07,1328.31,592.16
4150,-3.8673,0.3013,-0.6688,1086.18,453.49,1123.60
4160,-3.8671,0.4198,-0.6755,-1429.44,-1608.83,-1907.59
4170,-3.8667,0.5265,-0.7173,1742.43,1532.04,295.53
4180,-3.8666,0.5967,-0.7538,-601.32,188.48,-79.53
4190,-3.8663,0.6051,-0.7744,383.06,-483.22,654.72
4200,-3.8663,0.5511,-0.8020,1461.18,876.16,-173.40
4210,-3.8662,0.4745,-0.8484,-1445.07,1344.79,-1423.46
4220,-3.8662,0.4192,-0.8988,742.43,-592.83,-236.08
4230,-3.8662,0.4012,-0.9323,1664.31,953.92,1201.35
4240,-3.8665,0.4163,-0.9404,-632.57,672.61,-829.96
4250,-3.8667,0.4512,-0.9280,1289.31,-374.21,-923.77
4260,-3.8669,0.4877,-0.9078,1758.06,1219.60,420.04
4270,-3.8674,0.5089,-0.8899,-1570.07,-202.21,-1517.46
4280,-3.8679,0.5013,-0.8722,1148.68,-1905.27,1857.60
4290,-3.8684,0.4603,-0.8514,179.93,360.35,232.67
4300,-3.8690,0.3931,-0.8280,-1070.07,-983.52,-814.21
4310,-3.8695,0.3163,-0.8065,-1679.44,-1983.64,-767.27
4320,-3.8699,0.2533,-0.7897,492.43,766.24,1326.54
4330,-3.8702,0.2230,-0.7750,429.93,-1077.64,-1626.59
4340,-3.8705,0.2327,-0.7615,554.93,797.30,1389.10
4350,-3.8707,0.2694,-0.7458,1789.31,-1468.32,295.35
4360,-3.8711,0.3103,-0.7156,-1507.57,531.74,1482.91
4370,-3.8715,0.3411,-0.6647,-273.19,406.80,1139.22
4380,-3.8718,0.3557,-0.5992,-335.69,-1077.51,279.91
4390,-3.8723,0.3484,-0.5259,1539.31,-702.45,-454.35
4400,-3.8727,0.3201,-0.4500,601.81,688.17,-63.54
4410,-3.8729,0.2870,-0.3757,976.81,-1593.14,-1719.67
4420,-3.8732,0.2721,-0.2996,742.43,-93.20,-1547.67
4430,-3.8733,0.2856,-0.2213,-1163.82,1656.74,702.51
4440,-3.8734,0.3175,-0.1499,570.56,-327.58,733.89
4450,-3.8735,0.3448,-0.0894,648.68,813.11,827.82
4460,-3.8738,0.3472,-0.0365,148.68,563.17,-781.43
4470,-3.8740,0.3185,0.0120,445.56,-671.20,-578.25
4480,-3.8743,0.2639,0.0608,773.68,1531.86,-1109.38
4490,-3.8744,0.1956,0.1161,1789.31,-218.26,484.44
4500,-3.8745,0.1422,0.1753,1039.31,-1140.26,1328.31
4510,-3.8745,0.1334,0.2290,-1788.82,-1562.26,265.93
4520,-3.8745,0.1742,0.2643,1086.18,1312.74,375.43
4530,-3.8745,0.2454,0.2716,-1695.07,1828.43,562.99
4540,-3.8746,0.3146,0.2587,-585.69,-1233.95,-483.89
4550,-3.8746,0.3550,0.2488,273.68,1109.99,1562.99
4560,-3.8746,0.3553,0.2621,1445.56,-155.58,344.18
4570,-3.8746,0.3275,0.2982,1492.43,1547.55,1125.49
4580,-3.8746,0.3004,0.3395,1929.93,-1827.51,-1030.70
4590,-3.8745,0.2960,0.3690,-1538.82,-546.33,406.86
4600,-3.8745,0.3134,0.3827,1898.68,-765.08,1235.05
4610,-3.8745,0.3352,0.3840,117.43,984.99,1875.73
4620,-3.8745,0.3438,0.3838,-1085.69,1156.86,-1608.64
4630,-3.8745,0.3315,0.3914,8.06,1125.67,-936.77
4640,-3.8745,0.2981,0.4014,-1554.44,-1905.64,-374.27
4650,-3.8745,0.2456,0.4041,-1835.69,-624.45,-61.77
4660,-3.8744,0.1844,0.3962,-554.44,-280.82,219.48
4670,-3.8744,0.1317,0.3813,-382.57,-1280.94,31.98
4680,-3.8745,0.0953,0.3685,867.43,812.74,-889.89
4690,-3.8745,0.0670,0.3644,211.18,-827.94,1531.92
4700,-3.8746,0.0300,0.3679,586.18,-1359.25,-249.33
4710,-3.8746,-0.0255,0.3748,-148.19,-906.25,-1983.70
4720,-3.8746,-0.0979,0.3807,742.43,-15.69,406.92
4730,-3.8748,-0.1824,0.3883,-523.19,749.76,-718.02
4740,-3.8748,-0.2698,0.4032,664.31,1718.38,-1514.89
4750,-3.8748,-0.3374,0.4282,1476.81,-375.55,1453.86
4760,-3.8748,-0.3630,0.4592,820.56,-1172.55,516.42
4770,-3.8748,-0.3495,0.4823,1539.31,-1203.86,860.23
4780,-3.8746,-0.3188,0.4796,-726.32,1749.27,454.04
4790,-3.8745,-0.2921,0.4487,-804.44,1405.58,-202.21
4800,-3.8741,-0.2797,0.4078,-1382.57,1452.51,750.85
4810,-3.8739,-0.2805,0.3718,211.18,218.20,1438.29
4820,-3.8737,-0.2787,0.3438,101.81,-391.17,1828.80
4830,-3.8734,-0.2532,0.3206,336.18,15.08,-1780.58
4840,-3.8732,-0.1998,0.2950,-398.19,1046.33,-1640.01
4850,-3.8729,-0.1333,0.2588,-1570.07,1780.82,-1905.70
4860,-3.8727,-0.0767,0.2158,-1054.44,1140.32,1453.61
4870,-3.8724,-0.0583,0.1952,-1804.44,-359.56,937.87
4880,-3.8723,-0.1006,0.2198,539.31,999.88,-1140.26
4890,-3.8723,-0.2056,0.2734,-866.94,156.01,-1155.82
4900,-3.8724,-0.3500,0.3120,1695.56,-984.80,141.11
4910,-3.8728,-0.4893,0.3098,-788.82,-47.61,-858.83
4920,-3.8730,-0.5845,0.2815,1383.06,-329.10,-265.08
4930,-3.8732,-0.6201,0.2607,1195.56,45.72,-171.33
4940,-3.8730,-0.5961,0.2643,633.06,1389.40,156.74
4950,-3.8729,-0.5272,0.2708,-288.82,1842.53,922.36
4960,-3.8728,-0.4446,0.2489,523.68,-1329.16,-780.76
4970,-3.8727,-0.3942,0.1971,-898.19,-125.92,-1077.70
4980,-3.8726,-0.4146,0.1421,1554.93,1249.21,750.37
4990,-3.8726,-0.4910,0.1144,-1054.44,-1797.73,1953.37
5000,-3.8726,-0.5660,0.1241,1164.31,-1344.73,-1906.07
5010,-3.8726,-0.5967,0.1478,-445.07,-94.91,-499.82
5020,-3.8723,-0.5679,0.1462,-366.94,-1063.72,531.49
5030,-3.8722,-0.4956,0.0990,-679.44,-1266.78,-1265.38
5040,-3.8721,-0.4277,0.0229,570.56,686.52,-765.44
5050,-3.8719,-0.4120,-0.0425,1258.06,-1047.73,1875.00
5060,-3.8719,-0.4658,-0.0938,-726.32,-1422.73,1921.75
5070,-3.8721,-0.5630,-0.1580,383.06,14.71,-1000.18
5080,-3.8722,-0.6615,-0.2244,-54.44,-204.28,-1859.74
5090,-3.8723,-0.7318,-0.2302,-663.82,-704.47,-625.49
5100,-3.8721,-0.7528,-0.1583,-1663.82,-1454.59,1124.51
5110,-3.8717,-0.7346,-0.1143,-351.32,-251.53,-1172.24
5120,-3.8712,-0.7103,-0.2020,1976.81,1389.16,718.51
5130,-3.8710,-0.7039,-0.3929,1086.18,-1845.15,1999.57
5140,-3.8708,-0.7277,-0.5957,1914.31,1717.35,-1735.17
5150,-3.8708,-0.7654,-0.7435,-1132.57,-235.84,-1391.85
5160,-3.8708,-0.7789,-0.7760,-1960.69,842.22,1654.79
5170,-3.8707,-0.7529,-0.6456,304.93,685.97,92.22
5180,-3.8706,-0.7290,-0.3971,-366.94,1373.47,-1876.28
5190,-3.8705,-0.7537,-0.1788,-1304.44,1186.04,952.33
5200,-3.8706,-0.7986,-0.1692,-460.69,1123.47,1843.38
5210,-3.8708,-0.8103,-0.3998,1789.31,-1642.21,-109.74
5220,-3.8710,-0.8032,-0.6964,289.31,842.16,1311.71
5230,-3.8711,-0.7836,-0.8617,1195.56,-1126.59,623.60
5240,-3.8710,-0.6843,-0.7998,-288.82,1717.16,279.54
5250,-3.8705,-0.5083,-0.5682,414.31,1639.28,-1892.21
5260,-3.8699,-0.3842,-0.3636,-1054.44,-719.79,-407.41
5270,-3.8695,-0.3574,-0.3904,-1163.82,1467.96,-578.86
5280,-3.8694,-0.3542,-0.6304,-1741.94,-1953.86,639.83
5290,-3.8696,-0.3527,-0.8734,-1335.69,-672.61,-1532.53
5300,-3.8699,-0.3545,-0.9633,-1132.57,218.02,920.17
5310,-3.8701,-0.3092,-0.8376,-1366.94,718.02,810.61
5320,-3.8701,-0.1880,-0.5002,429.93,796.26,982.73
5330,-3.8699,-0.0623,-0.0800,-54.44,-16.05,61.46
5340,-3.8695,-0.0037,0.0792,39.31,1781.13,-1562.68
5350,-3.8688,0.0031,-0.1942,-460.69,-1843.81,-1515.50
5360,-3.8679,-0.0582,-0.5957,398.68,-859.38,108.95
5370,-3.8673,-0.2079,-0.7919,554.93,-234.50,1186.28
5380,-3.8669,-0.3660,-0.7076,1398.68,-1344.18,154.66
5390,-3.8671,-0.4406,-0.4342,1164.31,1436.77,-1892.03
5400,-3.8672,-0.4202,-0.2189,-382.57,436.58,577.27
5410,-3.8672,-0.3163,-0.2695,-1773.19,-0.85,1905.76
5420,-3.8671,-0.1639,-0.4681,-476.32,1514.95,-31.80
5430,-3.8668,-0.0333,-0.5909,-976.32,93.38,1139.71
5440,-3.8667,0.0537,-0.6080,-257.57,374.88,748.84
5450,-3.8666,0.1240,-0.6125,-1116.94,-1828.06,264.40
5460,-3.8665,0.1892,-0.6553,-116.94,1593.93,-1798.10
5470,-3.8662,0.2123,-0.7070,226.81,125.37,-1938.78
5480,-3.8661,0.1594,-0.7239,-820.07,1500.37,-17.03
5490,-3.8660,0.0569,-0.7026,414.31,-655.94,107.91
5500,-3.8662,-0.0208,-0.6777,-710.69,-1937.44,967.35
5510,-3.8666,-0.0139,-0.6754,1351.81,1265.56,1826.78
5520,-3.8669,0.0731,-0.6932,-1773.19,1562.44,-1173.22
5530,-3.8672,0.1913,-0.7096,1367.43,-734.25,61.10
5540,-3.8676,0.2991,-0.7166,492.43,1172.24,29.85
5550,-3.8680,0.3848,-0.7476,-1710.69,281.80,-313.90
5560,-3.8683,0.4349,-0.8311,1258.06,313.23,-1048.34
5570,-3.8683,0.4312,-0.9381,-320.07,1625.79,1310.85
5580,-3.8682,0.3710,-1.0083,-804.44,-77.33,513.73
5590,-3.8682,0.2802,-0.9995,-507.57,-1061.83,-1564.51
5600,-3.8682,0.2063,-0.9175,-132.57,62.99,576.17
5610,-3.8683,0.1805,-0.8112,-1585.69,-1437.13,138.79
5620,-3.8685,0.2052,-0.7327,-882.57,172.18,-1689.09
5630,-3.8688,0.2583,-0.6976,-1726.32,-1780.88,-782.71
5640,-3.8690,0.3071,-0.6880,1070.56,-1296.39,-1204.53
5650,-3.8693,0.3379,-0.6761,-679.44,-61.95,1686.10
5660,-3.8695,0.3553,-0.6493,-741.94,1453.74,811.16
5670,-3.8698,0.3689,-0.6226,1492.43,891.30,1248.72
5680,-3.8699,0.3877,-0.6208,-773.19,313.17,123.78
5690,-3.8700,0.4166,-0.6447,1633.06,531.98,1717.53
5700,-3.8700,0.4486,-0.6683,1336.18,1485.17,811.22
5710,-3.8701,0.4692,-0.6667,1429.93,-1546.02,-1485.72
5720,-3.8704,0.4731,-0.6237,70.56,-1342.83,-235.72
5730,-3.8706,0.4611,-0.5371,570.56,172.79,295.65
5740,-3.8711,0.4376,-0.4323,-976.32,-749.15,-1485.47
5750,-3.8715,0.4174,-0.3431,23.68,672.73,592.90
5760,-3.8719,0.4094,-0.2878,1429.93,78.92,-141.30
5770,-3.8722,0.4099,-0.2668,414.31,-842.96,1718.14
5780,-3.8724,0.4141,-0.2635,476.81,1844.54,-1578.67
5790,-3.8726,0.4125,-0.2515,1008.06,-1733.58,249.45
5800,-3.8728,0.3945,-0.2153,804.93,-186.71,1577.58
5810,-3.8730,0.3656,-0.1613,-1491.94,438.23,1702.70
5820,-3.8733,0.3419,-0.1039,-1195.07,-639.95,952.76
5830,-3.8735,0.3300,-0.0525,-226.32,-1296.26,249.76
5840,-3.8738,0.3282,-0.0135,-1757.57,1281.86,546.75
5850,-3.8740,0.3351,0.0087,-1976.32,-1733.76,-1953.19
5860,-3.8743,0.3412,0.0183,-1101.32,1109.99,-31.25
5870,-3.8744,0.3412,0.0291,-320.07,-1655.64,1906.25
5880,-3.8746,0.3405,0.0571,-320.07,-280.64,-140.62
5890,-3.8748,0.3365,0.1071,-413.82,-686.89,1859.44
5900,-3.8749,0.3190,0.1689,-913.82,1703.74,781.43
5910,-3.8750,0.2878,0.2296,836.18,1625.61,1437.81
5920,-3.8439,0.2544,0.2798,851.81,1391.17,-265.20
5930,-3.8439,0.2301,0.3119,570.56,-187.01,-265.14
5940,-3.8750,0.2205,0.3223,1461.18,-77.70,1359.92
5950,-3.8750,0.2189,0.3167,226.81,1250.43,-780.64
5960,-3.8749,0.2108,0.3049,23.68,531.68,359.99
5970,-3.8749,0.1860,0.2954,-1007.57,-968.38,1328.67
5980,-3.8749,0.1392,0.2937,-179.44,1812.81,-1343.20
5990,-3.8748,0.0717,0.2988,1820.56,1593.99,250.55
6000,-3.8748,0.0033,0.3040,1179.93,-1749.88,1484.92
6010,-3.8748,-0.0402,0.3055,429.93,-1093.75,-1905.70
6020,-3.8748,-0.0585,0.3076,-1132.57,-875.12,-1421.33
6030,-3.8748,-0.0712,0.3147,523.68,-609.50,-1530.70
6040,-3.8748,-0.0914,0.3254,-1101.32,296.69,891.24
6050,-3.8749,-0.1184,0.3427,304.93,1671.69,-1890.01
6060,-3.8750,-0.1444,0.3695,851.81,-125.24,-1124.39
6070,-3.8750,-0.1637,0.4005,1523.68,-687.81,110.05
6080,-3.8439,-0.1787,0.4280,-945.07,-719.12,-1155.52
6090,-3.8439,-0.1974,0.4421,1133.06,-1203.49,-139.83
6100,-3.8750,-0.2256,0.4335,-1257.57,608.95,-1327.27
6110,-3.8749,-0.2603,0.4097,-866.94,-500.49,1922.67
6120,-3.8748,-0.2921,0.3925,-1304.44,452.58,266.42
6130,-3.8748,-0.3159,0.3959,-1382.57,-1750.61,969.48
6140,-3.8748,-0.3231,0.4178,-429.44,-1313.17,1094.48
6150,-3.8748,-0.2990,0.4397,-1351.32,1499.33,-811.71
6160,-3.8745,-0.2495,0.4413,1742.43,296.26,594.60
6170,-3.8743,-0.2081,0.4188,70.56,499.51,141.48
6180,-3.8740,-0.2064,0.3759,1367.43,1624.57,297.67
6190,-3.8738,-0.2469,0.3126,1586.18,124.57,110.11
6200,-3.8737,-0.3121,0.2305,398.68,30.76,-577.51
6210,-3.8734,-0.3859,0.1399,54.93,1515.01,-1671.45
6220,-3.8733,-0.4553,0.0653,-1382.57,1921.08,-437.26
6230,-3.8732,-0.5032,0.0442,1726.81,374.08,1875.12
6240,-3.8732,-0.5120,0.0930,-398.19,1670.84,1546.94
6250,-3.8733,-0.4832,0.1716,-1523.19,-79.16,-359.25
6260,-3.8733,-0.4398,0.2152,-1835.69,1983.40,-1702.82
6270,-3.8733,-0.4137,0.1807,-288.82,-438.42,-655.88
6280,-3.8732,-0.4319,0.0759,-945.07,-860.23,-1546.57
6290,-3.8730,-0.5072,-0.0444,726.81,1733.52,1781.37
6300,-3.8729,-0.6261,-0.1366,-913.82,-1672.91,31.13
6310,-3.8729,-0.7609,-0.2007,-132.57,-1470.03,1812.19
6320,-3.8728,-0.8938,-0.2507,-1382.57,-1673.40,843.32
6330,-3.8727,-1.0101,-0.2866,1601.81,-79.90,1358.83
6340,-3.8726,-1.0922,-0.3046,-1288.82,-673.89,1874.39
6350,-3.8724,-1.1293,-0.3047,211.18,1029.11,124.39
6360,-3.8726,-1.1230,-0.2891,-538.82,1013.37,-125.61
6370,-3.8726,-1.0851,-0.2656,258.06,-986.57,-906.86
6380,-3.8726,-1.0312,-0.2578,1117.43,-1986.51,-63.05
6390,-3.8724,-0.9755,-0.2875,8.06,-986.39,-969.30
6400,-3.8723,-0.9404,-0.3427,-851.32,-783.20,-531.86
6410,-3.8721,-0.9470,-0.3842,-366.94,154.36,-1063.17
6420,-3.8717,-0.9825,-0.3999,-1210.69,-1158.14,1936.71
6430,-3.8715,-1.0319,-0.4167,-1757.57,826.17,-282.04
6440,-3.8712,-1.1049,-0.4536,-70.07,-1330.20,-1985.23
6450,-3.8711,-1.1881,-0.5020,-1413.82,1950.93,-1329.04
6460,-3.8710,-1.2294,-0.5393,-70.07,-236.76,1561.46
6470,-3.8710,-1.1954,-0.5342,-1351.32,-1018.07,-1063.60
6480,-3.8708,-1.1145,-0.4746,-1007.57,-361.76,1577.03
6490,-3.8707,-1.0405,-0.4003,1351.81,-736.57,-657.23
6500,-3.8705,-0.9983,-0.3767,-1179.44,779.17,-844.54
6510,-3.8704,-0.9888,-0.4308,226.81,-205.08,-438.29
6520,-3.8704,-0.9999,-0.5242,1445.56,873.05,-1172.73
6530,-3.8704,-1.0173,-0.5901,23.68,919.92,483.34
6540,-3.8706,-1.0250,-0.5806,1789.31,482.36,-126.16
6550,-3.8708,-1.0042,-0.5012,804.93,1701.11,1108.22
6560,-3.8713,-0.9469,-0.3835,-523.19,-142.64,1030.21
6570,-3.8718,-0.8429,-0.2446,-1195.07,-1080.02,-1360.17
6580,-3.8719,-0.6919,-0.1123,117.43,701.48,608.89
6590,-3.8718,-0.5364,-0.0763,-554.44,1639.22,781.01
6600,-3.8715,-0.4503,-0.2017,-648.19,-1751.10,-31.43
6610,-3.8706,-0.4712,-0.3937,-1632.57,-1797.79,296.45
6620,-3.8699,-0.5740,-0.4982,-304.44,1624.02,405.46
6630,-3.8695,-0.6956,-0.4657,-1460.69,248.84,-110.35
6640,-3.8693,-0.7638,-0.3391,-1023.19,404.85,-1563.42
6650,-3.8691,-0.7419,-0.2126,-1757.57,607.85,-828.80
6660,-3.8688,-0.6417,-0.1914,1039.31,795.41,499.57
6670,-3.8684,-0.5165,-0.2800,1867.43,-485.66,483.95
6680,-3.8682,-0.4359,-0.3976,1898.68,170.84,-531.80
6690,-3.8678,-0.4204,-0.4834,211.18,1124.15,1061.71
6700,-3.8676,-0.4248,-0.5149,-1804.44,-1860.23,1686.52
6710,-3.8673,-0.4045,-0.4990,1633.06,-1891.48,-1938.54
6720,-3.8671,-0.3557,-0.4600,226.81,139.83,905.27
6730,-3.8669,-0.2847,-0.4199,-1523.19,1139.89,670.96
6740,-3.8669,-0.2003,-0.3849,-429.44,-1734.99,-1969.60
6750,-3.8668,-0.1237,-0.3549,-1632.57,-1250.43,796.08
6760,-3.8666,-0.0663,-0.3459,179.93,-1406.49,452.39
6770,-3.8663,-0.0350,-0.3761,-476.32,-265.81,-1860.11
6780,-3.8661,-0.0308,-0.4320,-476.32,-125.12,1124.21
6790,-3.8660,-0.0393,-0.4901,70.56,718.69,1077.27
6800,-3.8660,-0.0447,-0.5465,-1023.19,1281.13,-594.73
6810,-3.8660,-0.0338,-0.5956,-1710.69,-1937.62,-969.85
6820,-3.8661,0.0006,-0.6161,-320.07,-218.87,-1376.22
6830,-3.8663,0.0514,-0.6082,86.18,1140.62,-673.10
6840,-3.8666,0.1036,-0.6144,-1413.82,-1843.69,-251.22
6850,-3.8667,0.1454,-0.6646,1273.68,1359.56,1061.28
6860,-3.8669,0.1523,-0.7415,-1382.57,-1062.26,1373.66
6870,-3.8673,0.1057,-0.7998,-491.94,1093.99,-1985.84
6880,-3.8678,0.0229,-0.8090,1539.31,1625.18,-1001.59
6890,-3.8683,-0.0569,-0.7867,-1054.44,453.12,-642.21
6900,-3.8687,-0.1000,-0.7671,726.81,-687.62,1389.04
6910,-3.8690,-0.0844,-0.7598,-788.82,1827.88,-1845.28
6920,-3.8693,-0.0137,-0.7520,1211.18,-1234.56,-1657.78
6930,-3.8694,0.0864,-0.7233,-1741.94,-234.44,1029.72
6940,-3.8696,0.1934,-0.6653,-929.44,-578.00,-735.84
6950,-3.8699,0.2875,-0.5874,758.06,-1155.88,-1766.97
6960,-3.8702,0.3568,-0.5076,804.93,813.05,-1469.91
6970,-3.8706,0.4076,-0.4454,1679.93,-968.08,-1485.41
6980,-3.8710,0.4526,-0.4094,179.93,-1014.83,-360.29
6990,-3.8712,0.4956,-0.3937,1945.56,-405.40,1967.90
7000,-3.8715,0.5269,-0.3876,-554.44,1610.29,1108.58
7010,-3.8717,0.5378,-0.3768,-554.44,-1608.40,1811.71
7020,-3.8718,0.5298,-0.3496,851.81,-233.34,374.21
7030,-3.8721,0.5122,-0.3073,-179.44,-749.02,-125.73
7040,-3.8722,0.4933,-0.2623,1570.56,672.85,-1250.61
7050,-3.8723,0.4788,-0.2283,-851.32,-1577.21,77.58
7060,-3.8726,0.4659,-0.2090,1289.31,-1217.83,327.64
7070,-3.8728,0.4426,-0.1964,-351.32,1250.85,1233.95
7080,-3.8730,0.4105,-0.1777,664.31,-1139.77,-172.30
7090,-3.8732,0.3827,-0.1455,554.93,1250.79,-594.12
7100,-3.8733,0.3633,-0.1022,992.43,1375.73,-969.06
7110,-3.8734,0.3462,-0.0560,-1491.94,-1077.45,-1703.37
7120,-3.8735,0.3265,-0.0125,320.56,828.80,1953.00
7130,-3.8737,0.3058,0.0243,1804.93,-1593.14,-1296.94
7140,-3.8737,0.2919,0.0469,-851.32,-890.08,46.88
7150,-3.8738,0.2882,0.0529,1367.43,-1999.45,1000.06
7160,-3.8739,0.2867,0.0529,898.68,-1233.83,1468.81
7170,-3.8740,0.2782,0.0604,711.18,-1233.83,1937.56
7180,-3.8741,0.2566,0.0808,-382.57,-265.14,-1687.44
7190,-3.8743,0.2253,0.1135,851.81,-1655.76,-921.75
7200,-3.8743,0.1908,0.1503,851.81,-1468.32,1218.93
7210,-3.8743,0.1542,0.1849,429.93,-765.26,906.49
7220,-3.8743,0.1224,0.2175,-257.57,-327.88,1156.56
7230,-3.8743,0.1068,0.2437,-320.07,-156.07,1156.62
7240,-3.8743,0.1078,0.2609,1679.93,-812.32,1281.68
7250,-3.8743,0.1107,0.2775,1804.93,1390.81,-1546.39
7260,-3.8741,0.1039,0.2993,-1820.07,-484.19,703.61
7270,-3.8741,0.0856,0.3243,1304.93,-1687.32,-1483.83
7280,-3.8741,0.0637,0.3527,-1038.82,1515.75,-936.89
7290,-3.8741,0.0527,0.3771,164.31,1140.75,-1405.58
7300,-3.8741,0.0609,0.3793,-1241.94,265.69,1266.36
7310,-3.8743,0.0736,0.3494,-195.07,546.94,-218.02
7320,-3.8743,0.0649,0.3024,1429.93,718.87,-1389.95
7330,-3.8743,0.0282,0.2627,320.56,-1296.75,719.30
7340,-3.8744,-0.0255,0.2401,-382.57,1625.00,359.86
7350,-3.8746,-0.0885,0.2316,742.43,-1250.06,1312.93
7360,-3.8749,-0.1575,0.2292,679.93,1656.07,1078.55
7370,-3.8439,-0.2236,0.2275,-148.19,1359.01,766.05
7380,-3.8441,-0.2809,0.2218,-616.94,1140.14,969.18
7390,-3.8444,-0.3525,0.1960,54.93,405.70,-1015.20
7400,-3.8444,-0.4707,0.1459,-1116.94,1108.64,1156.62
7410,-3.8442,-0.6250,0.1017,-241.94,-1313.48,343.99
7420,-3.8441,-0.7815,0.0833,8.06,1030.03,-827.94
7430,-3.8439,-0.9072,0.0693,-23.19,-1329.71,-93.63
7440,-3.8748,-0.9619,0.0438,-116.94,888.79,1093.87
7450,-3.8745,-0.9293,0.0079,883.06,1623.11,906.31
7460,-3.8744,-0.8462,-0.0292,1054.93,1029.42,-1703.12
7470,-3.8743,-0.7581,-0.0518,-304.44,279.54,-828.19
7480,-3.8740,-0.6918,-0.0514,-1023.19,1389.10,1812.38
7490,-3.8738,-0.6703,-0.0281,-538.82,1436.10,-953.25
7500,-3.8734,-0.7074,-0.0057,-1788.82,420.53,1374.94
7510,-3.8732,-0.7943,-0.0198,1461.18,-720.15,-1875.06
7520,-3.8729,-0.8923,-0.0679,-1663.82,1482.79,124.94
7530,-3.8729,-0.9587,-0.1096,1789.31,-673.65,-1140.81
7540,-3.8728,-0.9772,-0.1014,1289.31,1982.48,421.63
7550,-3.8727,-0.9578,-0.0437,-1070.07,-970.70,1671.63
7560,-3.8724,-0.9309,0.0225,1414.31,-1580.02,-1125.12
7570,-3.8721,-0.9192,0.0415,851.81,-1111.21,593.75
7580,-3.8718,-0.9231,-0.0177,-1648.19,1326.29,1281.31
7590,-3.8716,-0.9425,-0.1147,1851.81,1748.17,312.44
7600,-3.8715,-0.9758,-0.1927,-632.57,1326.23,-1000.24
7610,-3.8712,-1.0059,-0.2218,-898.19,-658.20,-859.80
7620,-3.8708,-1.0160,-0.1971,-741.94,-377.01,1187.01
7630,-3.8705,-0.9980,-0.1371,1961.18,-1220.76,390.20
7640,-3.8702,-0.9446,-0.0854,258.06,-1533.20,-1890.93
7650,-3.8701,-0.8545,-0.0990,-898.19,1076.23,-390.81
7660,-3.8700,-0.7452,-0.1775,-1366.94,-657.96,62.26
7670,-3.8702,-0.6610,-0.2588,617.43,1295.41,-109.74
7680,-3.8705,-0.6510,-0.2921,-601.32,-1110.72,-969.30
7690,-3.8708,-0.7172,-0.2684,679.93,-1376.28,-938.11
7700,-3.8712,-0.8113,-0.2089,211.18,1654.85,-609.92
7710,-3.8715,-0.8846,-0.1488,164.31,1279.66,-1719.18
7720,-3.8716,-0.9023,-0.1182,-1226.32,966.98,1749.69
7730,-3.8716,-0.8431,-0.1434,508.06,888.85,-656.49
7740,-3.8713,-0.7272,-0.2336,86.18,1654.60,1234.07
7750,-3.8712,-0.6080,-0.3564,-1070.07,-1892.09,-437.99
7760,-3.8711,-0.5355,-0.4659,-1820.07,-1610.60,-141.36
7770,-3.8710,-0.5441,-0.5345,-538.82,373.90,983.46
7780,-3.8711,-0.6222,-0.5459,-1632.57,-407.35,-1876.10
7790,-3.8712,-0.7089,-0.4945,367.43,-1860.60,389.53
7800,-3.8715,-0.7423,-0.3990,1273.68,717.35,-188.48
7810,-3.8715,-0.6964,-0.3035,992.43,936.04,-485.17
7820,-3.8713,-0.5804,-0.2805,-1132.57,1170.47,-203.74
7830,-3.8711,-0.4244,-0.3679,1711.18,108.22,-297.42
7840,-3.8707,-0.2905,-0.5161,1679.93,921.02,-1813.23
7850,-3.8702,-0.2408,-0.6573,-1179.44,1952.51,811.46
7860,-3.8698,-0.2781,-0.7526,1179.93,-125.49,-876.34
7870,-3.8691,-0.3582,-0.7821,414.31,-313.05,904.72
7880,-3.8687,-0.4275,-0.7385,-1835.69,-94.48,826.54
7890,-3.8683,-0.4374,-0.6443,1289.31,1483.52,-470.21
7900,-3.8679,-0.3738,-0.5620,23.68,1546.02,-1860.66
7910,-3.8678,-0.2880,-0.5308,164.31,77.39,920.78
7920,-3.8679,-0.2708,-0.5458,-851.32,77.51,-1516.66
7930,-3.8679,-0.3677,-0.6133,1351.81,-1844.30,1514.53
7940,-3.8678,-0.5280,-0.7400,945.56,1514.89,-751.22
7950,-3.8673,-0.6760,-0.9011,429.93,1295.84,123.54
7960,-3.8669,-0.7711,-1.0548,1476.81,670.53,-939.27
7970,-3.8666,-0.7860,-1.1650,1304.93,998.47,-1392.70
7980,-3.8663,-0.7124,-1.2150,-601.32,-1110.96,575.81
7990,-3.8663,-0.5793,-1.2102,820.56,498.60,669.49
8000,-3.8666,-0.4248,-1.1669,1851.81,1108.22,-518.01
8010,-3.8668,-0.2776,-1.1067,1633.06,-1344.60,-1127.32
8020,-3.8671,-0.1586,-1.0540,476.81,-1641.17,763.43
8030,-3.8674,-0.0702,-1.0244,-288.82,1109.01,-1580.20
8040,-3.8677,-0.0018,-1.0190,-976.32,890.44,1294.86
8050,-3.8679,0.0630,-1.0276,-226.32,1578.06,1997.99
8060,-3.8680,0.1331,-1.0442,70.56,468.87,419.86
8070,-3.8682,0.2037,-1.0679,1039.31,-1656.01,997.92
8080,-3.8683,0.2677,-1.0890,-1913.82,-687.13,1575.99
8090,-3.8685,0.3162,-1.0879,-1726.32,609.86,-95.89
8100,-3.8687,0.3385,-1.0503,476.81,750.61,357.24
8110,-3.8689,0.3309,-0.9808,-663.82,1563.11,60.42
8120,-3.8691,0.3173,-0.8979,-1632.57,-1546.26,357.42
8130,-3.8694,0.3369,-0.8248,617.43,1063.11,-1564.27
8140,-3.8695,0.4010,-0.7791,-866.94,-1577.51,-1829.77
8150,-3.8696,0.4906,-0.7535,-663.82,281.98,1764.10
8160,-3.8699,0.5830,-0.7205,-1195.07,-452.21,-626.53
8170,-3.8701,0.6520,-0.6610,-1366.94,-217.65,-1470.21
8180,-3.8705,0.6785,-0.5775,-538.82,-608.15,-141.97
8190,-3.8707,0.6711,-0.4863,-1148.19,-1920.59,264.47
8200,-3.8711,0.6459,-0.4076,1914.31,1751.28,1295.90
8210,-3.8713,0.6060,-0.3560,-1320.07,-170.65,1483.52
8220,-3.8715,0.5612,-0.3348,1570.56,-1561.34,-1922.61
8230,-3.8715,0.5347,-0.3302,-163.82,1141.66,1061.83
8240,-3.8716,0.5374,-0.3228,445.56,1735.41,-1391.30
8250,-3.8717,0.5536,-0.3033,789.31,-1311.46,686.83
8260,-3.8721,0.5553,-0.2698,-1132.57,1172.91,-94.36
8270,-3.8723,0.5210,-0.2206,-913.82,1469.79,-1563.05
8280,-3.8726,0.4486,-0.1595,-1304.44,-233.40,-1453.61
8290,-3.8727,0.3682,-0.1047,1429.93,-421.02,874.63
8300,-3.8728,0.3156,-0.0739,-866.94,-1405.58,1202.88
8310,-3.8729,0.2939,-0.0592,398.68,-1452.51,-1093.93
8320,-3.8729,0.2847,-0.0345,1633.06,422.42,265.50
8330,-3.8730,0.2732,0.0089,445.56,-421.33,374.88
8340,-3.8733,0.2582,0.0538,-1023.19,1141.11,-203.12
8350,-3.8734,0.2445,0.0861,1054.93,-1108.89,-1046.81
8360,-3.8735,0.2302,0.1049,-695.07,-983.95,-1468.63
8370,-3.8737,0.2083,0.1154,1476.81,1422.30,-234.19
8380,-3.8737,0.1759,0.1262,-1335.69,-1234.01,-1249.82
8390,-3.8737,0.1362,0.1475,-1476.32,156.56,-1656.01
8400,-3.8737,0.0947,0.1837,1445.56,-1124.76,1984.62
8410,-3.8737,0.0585,0.2252,133.06,-484.19,1765.93
8420,-3.8737,0.0386,0.2521,-507.57,828.19,1844.18
8430,-3.8737,0.0402,0.2543,945.56,265.69,-1968.26
8440,-3.8737,0.0537,0.2456,1148.68,546.94,1797.36
8450,-3.8737,0.0645,0.2491,-1116.94,-562.44,687.93
8460,-3.8738,0.0605,0.2721,258.06,-109.25,-1233.95
8470,-3.8738,0.0398,0.3019,-241.94,-1171.81,344.24
8480,-3.8739,0.0094,0.3248,1101.81,-1359.31,1766.17
8490,-3.8740,-0.0232,0.3370,1211.18,1578.12,-733.76
8500,-3.8740,-0.0554,0.3428,1039.31,-843.81,1219.36
8510,-3.8740,-0.0854,0.3468,914.31,-109.50,188.11
8520,-3.8740,-0.1075,0.3468,1070.56,406.07,313.17
8530,-3.8740,-0.1145,0.3423,-1757.57,406.01,-1858.70
8540,-3.8739,-0.1049,0.3406,1351.81,-172.12,1063.11
8550,-3.8739,-0.0898,0.3423,-1413.82,-390.87,-1093.14
8560,-3.8739,-0.0851,0.3379,508.06,-172.06,-1499.39
8570,-3.8739,-0.0979,0.3273,1117.43,-734.56,453.74
8580,-3.8740,-0.1262,0.3229,-523.19,1906.01,1750.61
8590,-3.8741,-0.1620,0.3292,-148.19,1343.44,-483.76
8600,-3.8741,-0.1981,0.3387,-726.32,-1844.12,-1186.89
8610,-3.8740,-0.2383,0.3433,-1351.32,-625.43,281.86
8620,-3.8740,-0.2858,0.3359,1508.06,-47.36,-311.89
8630,-3.8739,-0.3375,0.3115,-570.07,-984.99,-390.01
8640,-3.8738,-0.3887,0.2728,804.93,-110.05,-608.83
8650,-3.8737,-0.4298,0.2371,-1741.94,-1063.29,-1843.26
8660,-3.8737,-0.4514,0.2285,992.43,-1641.48,-1702.70
8670,-3.8737,-0.4525,0.2665,-1773.19,1264.71,125.43
8680,-3.8738,-0.4353,0.3420,-1913.82,-1875.92,-1827.64
8690,-3.8738,-0.4016,0.4010,289.31,-203.98,-1718.14
8700,-3.8738,-0.3676,0.3894,601.81,-657.04,-374.27
8710,-3.8737,-0.3580,0.3163,961.18,1858.64,1203.86
8720,-3.8737,-0.3879,0.2356,-1820.07,499.27,-1593.14
8730,-3.8737,-0.4471,0.1844,-1648.19,-1828.92,-1421.45
8740,-3.8737,-0.5179,0.1672,-1226.32,-375.92,1750.31
8750,-3.8738,-0.5907,0.1760,1711.18,1420.84,-93.44
8760,-3.8738,-0.6550,0.2034,398.68,-1454.28,594.06
8770,-3.8740,-0.6964,0.2351,164.31,-1954.41,-30.88
8780,-3.8741,-0.7045,0.2490,-1132.57,-1892.03,-1374.57
8790,-3.8743,-0.6808,0.2308,1836.18,-110.78,-1265.20
8800,-3.8743,-0.6350,0.1893,867.43,1561.16,-249.57
8810,-3.8740,-0.5822,0.1311,-1273.19,248.72,-1937.13
8820,-3.8738,-0.5371,0.0460,1492.43,795.72,-1187.26
8830,-3.8735,-0.5215,-0.0646,-741.94,1905.15,-265.56
8840,-3.8732,-0.5613,-0.1841,1258.06,-251.04,952.94
8850,-3.8729,-0.6451,-0.3022,164.31,452.03,-1234.74
8860,-3.8726,-0.7253,-0.4042,1429.93,1326.84,30.64
8870,-3.8724,-0.7639,-0.4568,-835.69,279.79,-500.79
8880,-3.8722,-0.7513,-0.4241,-1773.19,1545.35,1999.08
8890,-3.8719,-0.6975,-0.3103,-163.82,1732.85,1999.15
8900,-3.8717,-0.6195,-0.2157,-1273.19,295.47,-719.36
8910,-3.8715,-0.5258,-0.2614,711.18,405.03,-1812.93
8920,-3.8713,-0.4268,-0.4303,711.18,-1438.54,233.83
8930,-3.8715,-0.3621,-0.6051,1383.06,936.65,1483.52
8940,-3.8717,-0.3792,-0.7095,1664.31,-1438.23,-1298.10
8950,-3.8719,-0.4817,-0.7108,-523.19,1202.33,-751.40
8960,-3.8719,-0.6174,-0.6138,-1648.19,1030.27,1623.60
8970,-3.8718,-0.7235,-0.4993,976.81,1451.90,-376.22
8980,-3.8715,-0.7692,-0.4968,-601.32,107.91,1936.52
8990,-3.8711,-0.7473,-0.6577,1554.93,420.35,1061.52
9000,-3.8708,-0.6870,-0.8850,351.81,-173.34,1998.66
9010,-3.8706,-0.6415,-1.0488,70.56,-1266.97,529.48
9020,-3.8705,-0.6310,-1.0759,1898.68,1764.34,-1142.70
9030,-3.8702,-0.6356,-0.9568,-757.57,-1704.41,-1595.89
9040,-3.8700,-0.6254,-0.7732,-1351.32,1545.59,904.36
9050,-3.8700,-0.5933,-0.6577,-38.82,1045.59,-1985.90
9060,-3.8701,-0.5406,-0.6853,70.56,-173.03,-1673.22
9070,-3.8702,-0.4786,-0.8019,-1195.07,295.78,-235.72
9080,-3.8701,-0.4414,-0.8865,-1257.57,1374.02,-1626.59
9090,-3.8699,-0.4348,-0.8656,-491.94,-1454.04,1420.10
9100,-3.8696,-0.4333,-0.7527,351.81,1217.90,920.17
9110,-3.8695,-0.4216,-0.6343,539.31,-328.98,1107.85
9120,-3.8695,-0.4025,-0.6155,-1960.69,-1172.73,748.72
9130,-3.8696,-0.3899,-0.7092,492.43,1233.58,1123.78
9140,-3.8698,-0.3984,-0.8180,-1898.19,1233.58,-1407.65
9150,-3.8696,-0.4218,-0.8593,1008.06,-688.29,1373.35
9160,-3.8694,-0.4346,-0.8407,-1976.32,-1969.60,842.04
9170,-3.8691,-0.4241,-0.8291,383.06,405.40,1373.35
9180,-3.8689,-0.3977,-0.8750,1726.81,1889.77,607.73
9190,-3.8688,-0.3680,-0.9664,1101.81,14.83,-1907.96
9200,-3.8687,-0.3396,-1.0520,898.68,311.77,-1892.52
9210,-3.8685,-0.3019,-1.0945,539.31,1358.70,1716.67
9220,-3.8684,-0.2445,-1.0964,1367.43,-78.74,-1533.45
9230,-3.8682,-0.1666,-1.0876,711.18,-328.61,1904.05
9240,-3.8679,-0.0786,-1.0955,-1320.07,796.51,-549.01
9250,-3.8676,-0.0077,-1.1167,1945.56,-203.31,325.93
9260,-3.8674,0.0176,-1.1252,-976.32,1078.06,1997.80
9270,-3.8674,-0.0044,-1.1168,-1741.94,-31.25,-267.88
9280,-3.8674,-0.0388,-1.1174,-554.44,1062.44,-908.45
9290,-3.8674,-0.0371,-1.1440,-960.69,984.25,-1533.45
9300,-3.8674,0.0238,-1.1788,-741.94,1578.00,-1392.88
9310,-3.8674,0.1263,-1.1848,-945.07,1109.38,-1330.44
9320,-3.8674,0.2371,-1.1466,179.93,343.99,1747.68
9330,-3.8676,0.3282,-1.0834,-1648.19,1234.80,-1439.76
9340,-3.8677,0.3839,-1.0283,-1976.32,1328.74,591.61
9350,-3.8679,0.4043,-0.9984,1148.68,375.73,1029.24
9360,-3.8682,0.4091,-0.9883,-241.94,203.86,1982.42
9370,-3.8683,0.4183,-0.9937,367.43,1500.79,935.55
9380,-3.8684,0.4358,-1.0077,1554.93,813.29,826.17
9390,-3.8687,0.4579,-1.0129,-210.69,-983.58,-377.01
9400,-3.8688,0.4813,-0.9908,-1382.57,-1655.40,247.99
9410,-3.8691,0.5037,-0.9395,1617.43,1172.79,-1986.33
9420,-3.8695,0.5262,-0.8717,476.81,-249.02,1294.98
9430,-3.8700,0.5505,-0.7980,-632.57,422.85,-423.58
9440,-3.8704,0.5673,-0.7197,-1523.19,1860.41,-1970.34
9450,-3.8707,0.5657,-0.6396,617.43,-123.90,1139.16
9460,-3.8711,0.5464,-0.5662,414.31,-1873.90,670.59
9470,-3.8716,0.5170,-0.5037,1945.56,-467.71,-1.16
9480,-3.8719,0.4910,-0.4501,-1820.07,-467.77,-1219.79
9490,-3.8723,0.4772,-0.4003,-1148.19,-1608.46,-1422.79
9500,-3.8726,0.4701,-0.3499,1086.18,766.54,-1985.17
9510,-3.8727,0.4587,-0.2982,179.93,-780.33,1639.89
9520,-3.8728,0.4408,-0.2472,-1273.19,1828.98,-547.49
9530,-3.8728,0.4207,-0.1968,429.93,360.23,593.26
9540,-3.8730,0.4037,-0.1470,1851.81,-1186.71,-47.30
9550,-3.8732,0.3988,-0.0990,-320.07,1188.23,-750.31
9560,-3.8732,0.4126,-0.0509,-945.07,-671.14,890.38
9570,-3.8732,0.4385,-0.0067,820.56,1485.17,1921.75
9580,-3.8730,0.4606,0.0221,133.06,-858.52,1203.06
9590,-3.8729,0.4677,0.0325,-1038.82,-1171.02,312.50
9600,-3.8729,0.4515,0.0336,-132.57,157.10,1734.44
9610,-3.8729,0.4061,0.0405,1804.93,297.73,1546.94
9620,-3.8729,0.3418,0.0610,-7.57,1188.23,984.44
9630,-3.8729,0.2866,0.0895,-241.94,-186.89,984.44
9640,-3.8729,0.2671,0.1205,695.56,-546.33,1328.25
9650,-3.8729,0.2975,0.1638,-1804.44,-577.64,1656.43
9660,-3.8729,0.3646,0.2235,-1913.82,969.30,-1921.57
9670,-3.8729,0.4297,0.2812,-1320.07,610.05,-1937.07
9680,-3.8729,0.4619,0.3151,-991.94,0.79,47.42
9690,-3.8732,0.4542,0.3195,-866.94,328.98,-530.64
9700,-3.8733,0.4155,0.3081,-1851.32,891.48,1328.74
9710,-3.8735,0.3589,0.2939,1195.56,-561.71,-1202.58
9720,-3.8737,0.2941,0.2806,1945.56,1625.67,719.30
9730,-3.8739,0.2300,0.2745,1648.68,-77.58,-280.76
9740,-3.8740,0.1750,0.2858,1445.56,-858.95,-15.14
9750,-3.8740,0.1354,0.3149,-1585.69,578.43,1109.92
9760,-3.8741,0.1189,0.3519,1336.18,312.74,-1093.14
9770,-3.8741,0.1300,0.3756,-773.19,1047.06,1860.05
9780,-3.8741,0.1599,0.3691,648.68,78.37,-1202.39
9790,-3.8740,0.1864,0.3430,476.81,-749.69,1031.92
9800,-3.8740,0.1862,0.3174,-132.57,-93.44,-1483.76
9810,-3.8740,0.1534,0.2959,-163.82,625.31,-1733.76
9820,-3.8740,0.0951,0.2706,-351.32,1875.24,250.55
9830,-3.8741,0.0233,0.2443,179.93,-1359.19,1203.61
9840,-3.8743,-0.0459,0.2357,-1007.57,-734.38,-1796.45
9850,-3.8744,-0.1023,0.2567,-1866.94,-1812.62,-421.45
9860,-3.8744,-0.1448,0.2943,-1085.69,874.76,1562.99
9870,-3.8744,-0.1730,0.3235,1476.81,1687.19,31.80
9880,-3.8745,-0.1882,0.3315,1867.43,1421.51,-1296.26
9890,-3.8745,-0.2008,0.3226,-85.69,-1547.30,1719.36
9900,-3.8745,-0.2191,0.3040,-1695.07,1312.07,1156.86
9910,-3.8745,-0.2407,0.2783,-38.82,-1078.61,516.17
9920,-3.8746,-0.2632,0.2528,1195.56,-359.86,-452.64
9930,-3.8746,-0.2921,0.2351,-1679.44,374.45,-1202.64
9940,-3.8746,-0.3265,0.2274,-1382.57,-1891.24,-1343.32
9950,-3.8746,-0.3608,0.2191,-1788.82,1124.33,-624.57
9960,-3.8745,-0.3909,0.1967,1820.56,61.77,-1702.70
9970,-3.8743,-0.4089,0.1583,1976.81,1186.71,62.87
9980,-3.8741,-0.4154,0.1027,-335.69,280.40,-827.82
9990,-3.8739,-0.4196,0.0338,-1163.82,1155.40,-1781.07
10000,-3.8737,-0.4222,-0.0332,-1695.07,342.90,468.81
10010,-3.8735,-0.4252,-0.0912,1961.18,-235.23,890.50
10020,-3.8735,-0.4365,-0.1384,1586.18,342.90,-922.06
10030,-3.8734,-0.4655,-0.1754,133.06,-1703.98,140.32
10040,-3.8734,-0.5231,-0.2216,429.93,1561.58,1859.01
10050,-3.8733,-0.6146,-0.2924,1054.93,-344.79,62.01
10060,-3.8733,-0.7349,-0.3763,1336.18,-1407.47,749.39
10070,-3.8734,-0.8629,-0.4392,1945.56,-157.71,-172.67
10080,-3.8733,-0.9565,-0.4426,1554.93,-204.83,592.83
10090,-3.8732,-0.9797,-0.3860,1570.56,-642.52,-1954.04
10100,-3.8729,-0.9375,-0.3236,-1398.19,-1392.58,-907.04
10110,-3.8726,-0.8645,-0.3363,8.06,-1408.08,1405.58
10120,-3.8723,-0.7927,-0.4580,1351.81,967.04,-547.55
10130,-3.8719,-0.7516,-0.6416,-1460.69,1389.04,389.71
10140,-3.8717,-0.7572,-0.7974,-195.07,1889.10,1279.97
10150,-3.8715,-0.7904,-0.8458,-913.82,1951.60,-876.59
10160,-3.8711,-0.8207,-0.7712,-1163.82,-251.59,1076.42
10170,-3.8708,-0.8328,-0.6326,-1038.82,1295.23,1670.35
10180,-3.8707,-0.8260,-0.5323,1414.31,-954.77,-704.41
10190,-3.8706,-0.8063,-0.5658,-1726.32,-126.65,1748.90
10200,-3.8706,-0.7760,-0.7242,804.93,-407.84,-1626.16
10210,-3.8706,-0.7485,-0.8956,679.93,-689.03,-438.96
10220,-3.8705,-0.7509,-0.9740,195.56,1373.54,-564.27
10230,-3.8702,-0.7872,-0.9242,-101.32,-657.78,1357.42
10240,-3.8701,-0.8308,-0.7810,-757.57,1717.16,1888.79
10250,-3.8701,-0.8567,-0.6180,1664.31,45.23,-267.15
10260,-3.8700,-0.8525,-0.5306,-1648.19,904.54,1201.90
10270,-3.8699,-0.8027,-0.5847,-1116.94,92.04,108.34
10280,-3.8698,-0.7123,-0.7299,1258.06,1170.29,1405.09
10290,-3.8695,-0.6072,-0.8500,836.18,-1407.65,1717.29
10300,-3.8693,-0.5063,-0.8879,-1710.69,-782.47,-1111.08
10310,-3.8690,-0.4308,-0.8627,-804.44,-1641.66,1091.98
10320,-3.8690,-0.3925,-0.8127,867.43,1592.90,-361.08
10330,-3.8689,-0.3840,-0.7754,1773.68,-16.42,326.48
10340,-3.8689,-0.3867,-0.7837,-1148.19,764.83,592.22
10350,-3.8689,-0.3752,-0.8385,-1491.94,-297.67,1076.54
10360,-3.8689,-0.3253,-0.9019,-23.19,686.71,1498.35
10370,-3.8689,-0.2208,-0.9269,-1632.57,577.45,1326.35
10380,-3.8689,-0.0583,-0.8909,-257.57,1374.51,966.92
10390,-3.8689,0.1455,-0.8118,539.31,1984.25,1935.73
10400,-3.8688,0.3477,-0.7478,-1366.94,93.99,373.41
10410,-3.8688,0.4983,-0.7411,508.06,281.92,-1657.71
10420,-3.8688,0.5652,-0.7651,-210.69,1141.54,-1204.59
10430,-3.8688,0.5430,-0.7684,351.81,-1936.40,1279.72
10440,-3.8689,0.4589,-0.7355,1508.06,1641.66,748.47
10450,-3.8691,0.3611,-0.6755,-1257.57,1860.23,1014.16
10460,-3.8695,0.3052,-0.5925,-1773.19,1531.92,-391.97
10470,-3.8698,0.3280,-0.5033,-929.44,156.80,-923.03
10480,-3.8699,0.4127,-0.4508,1992.43,-421.26,420.84
10490,-3.8701,0.5165,-0.4624,836.18,-1702.33,-485.29
10500,-3.8701,0.6094,-0.5122,-1882.57,813.48,1780.33
10510,-3.8700,0.6725,-0.5431,-1991.94,-1561.34,498.96
10520,-3.8699,0.7019,-0.5193,-1913.82,-1514.34,1686.40
10530,-3.8698,0.7135,-0.4474,1851.81,1532.59,1045.84
10540,-3.8699,0.7242,-0.3567,-663.82,-1264.28,-204.04
10550,-3.8700,0.7395,-0.2694,711.18,-1654.85,1139.89
10560,-3.8704,0.7521,-0.1958,-1335.69,1517.03,-1703.67
10570,-3.8707,0.7515,-0.1383,273.68,-1061.04,-1937.93
10580,-3.8711,0.7303,-0.1013,195.56,-1701.66,-1906.56
10590,-3.8715,0.6813,-0.1029,1492.43,-967.35,-703.37
10600,-3.8717,0.6133,-0.1503,-788.82,-1170.59,-78.37
10610,-3.8717,0.5488,-0.2151,-1491.94,766.78,1827.82
10620,-3.8717,0.4774,-0.2625,-1741.94,469.79,-469.18
10630,-3.8716,0.3828,-0.2711,1117.43,-1592.83,-1078.67
10640,-3.8715,0.2883,-0.2251,1008.06,1297.61,-1516.17
10650,-3.8713,0.2172,-0.1317,914.31,-811.95,187.01
10660,-3.8715,0.1716,-0.0349,-195.07,-859.01,-1203.43
10670,-3.8716,0.1417,0.0179,1976.81,-468.44,-609.50
10680,-3.8716,0.0978,0.0165,-1851.32,-1702.88,1640.62
10690,-3.8715,0.0026,-0.0050,523.68,-1890.44,1312.50
10700,-3.8712,-0.1470,0.0002,336.18,-640.62,-890.69
10710,-3.8708,-0.3135,0.0437,1195.56,46.57,-484.38
10720,-3.8705,-0.4688,0.0973,-116.94,1608.70,-968.69
10730,-3.8701,-0.6222,0.1393,8.06,467.83,-1921.69
10740,-3.8698,-0.7886,0.1790,367.43,1842.53,1328.37
10750,-3.8695,-0.9430,0.2400,-929.44,-1079.71,-1687.19
10760,-3.8694,-1.0408,0.3103,-695.07,-1267.52,-108.95
10770,-3.8693,-1.0687,0.3236,-1210.69,-267.70,-327.58
10780,-3.8691,-1.0348,0.2474,-788.82,1435.36,-811.89
10790,-3.8690,-0.9504,0.1483,-445.07,-314.58,-1905.82
10800,-3.8690,-0.8485,0.0953,-1648.19,-1001.89,-31.01
10810,-3.8689,-0.7606,0.0811,-601.32,217.04,468.93
10820,-3.8690,-0.6838,0.0856,-1351.32,-1610.90,-656.13
10830,-3.8690,-0.6023,0.1121,476.81,-1032.59,-1937.38
10840,-3.8690,-0.5004,0.1368,-1085.69,-1641.85,1859.56
10850,-3.8690,-0.3864,0.1112,-38.82,1530.21,-327.88
10860,-3.8688,-0.3088,0.0142,-1445.07,-1750.79,703.31
10870,-3.8685,-0.2828,-0.1278,476.81,1827.51,562.50
10880,-3.8683,-0.2467,-0.2595,-195.07,-344.36,1124.69
10890,-3.8682,-0.1440,-0.3297,429.93,-1203.61,-375.55
10900,-3.8680,0.0228,-0.3313,1570.56,1812.19,-1750.67
10910,-3.8680,0.2246,-0.2986,-1070.07,1593.75,1014.95
10920,-3.8682,0.4263,-0.2601,758.06,1781.68,593.14
10930,-3.8684,0.5934,-0.2141,-1429.44,-1296.08,1124.45
10940,-3.8688,0.7041,-0.1556,-38.82,594.85,-1859.80
10950,-3.8691,0.7356,-0.1218,-1866.94,79.47,1312.19
10960,-3.8695,0.6847,-0.1505,-1835.69,407.65,-1562.74
10970,-3.8696,0.5986,-0.2181,-351.32,735.66,15.32
10980,-3.8698,0.5360,-0.2731,633.06,79.28,108.95
10990,-3.8700,0.5225,-0.2875,617.43,1047.91,921.33
11000,-3.8705,0.5554,-0.2537,-1116.94,-795.90,-1516.24
11010,-3.8711,0.6183,-0.1721,-898.19,-467.71,1093.20
11020,-3.8719,0.6833,-0.0623,-851.32,1969.91,-594.12
11030,-3.8727,0.7198,0.0415,-523.19,32.53,1546.75
11040,-3.8734,0.7026,0.1042,148.68,1313.90,-203.06
11050,-3.8738,0.6266,0.1055,1945.56,1345.09,1468.93
11060,-3.8740,0.5160,0.0549,211.18,1501.22,-1906.07
11070,-3.8741,0.4086,-0.0063,-1945.07,-967.77,-1640.56
11080,-3.8743,0.3291,-0.0403,304.93,-811.71,-281.31
11090,-3.8743,0.2871,-0.0424,-1866.94,-1155.64,343.63
11100,-3.8745,0.2788,-0.0319,758.06,-1421.33,-1422.00
11110,-3.8748,0.2828,-0.0244,-304.44,-77.64,-1531.37
11120,-3.8750,0.2786,-0.0245,211.18,875.55,1968.69
11130,-3.8440,0.2614,-0.0334,-335.69,859.86,-1109.44
11140,-3.8441,0.2312,-0.0493,1461.18,-280.76,1624.88
11150,-3.8442,0.1880,-0.0715,1601.81,1687.93,1484.25
11160,-3.8444,0.1331,-0.0981,70.56,-1155.88,1937.32
11170,-3.8445,0.0665,-0.1260,1039.31,-562.26,-390.87
11180,-3.8445,-0.0081,-0.1542,523.68,-124.88,-875.31
11190,-3.8444,-0.0824,-0.1815,-1023.19,281.19,46.57
11200,-3.8444,-0.1490,-0.2045,1461.18,781.07,1437.13
11210,-3.8444,-0.2056,-0.2209,929.93,1843.44,1562.07
11220,-3.8445,-0.2563,-0.2344,1695.56,-266.05,-109.86
11230,-3.8445,-0.3131,-0.2482,-804.44,-1984.92,1843.26
11240,-3.8445,-0.3821,-0.2594,-70.07,249.33,108.89
11250,-3.8446,-0.4556,-0.2672,-898.19,-1188.29,-1547.42
11260,-3.8446,-0.5189,-0.2782,1695.56,1811.58,1046.33
11270,-3.8446,-0.5660,-0.2930,1586.18,405.21,1515.08
11280,-3.8445,-0.6038,-0.3059,-445.07,-1485.53,-1063.11
11290,-3.8441,-0.6476,-0.3214,-1273.19,858.15,999.39
11300,-3.8750,-0.7123,-0.3558,1117.43,-1126.28,61.83
11310,-3.8748,-0.7843,-0.4126,836.18,-1532.65,-1813.23
11320,-3.8745,-0.8376,-0.4696,-382.57,-798.46,-1141.48
11330,-3.8743,-0.8566,-0.4977,789.31,-95.40,-938.48
11340,-3.8739,-0.8228,-0.4866,-1632.57,310.79,1139.65
11350,-3.8735,-0.7372,-0.4509,-1304.44,1732.73,1108.40
11360,-3.8733,-0.6354,-0.4320,1648.68,-1704.59,-485.29
11370,-3.8730,-0.5592,-0.4755,-1320.07,717.47,-1000.85
11380,-3.8728,-0.5403,-0.5876,429.93,-844.85,-1907.23
11390,-3.8724,-0.5842,-0.7308,-1148.19,795.78,1936.34
11400,-3.8718,-0.6715,-0.8597,1226.81,-1532.41,795.41
11410,-3.8712,-0.7682,-0.9281,-1945.07,1967.41,-954.83
11420,-3.8705,-0.8351,-0.9037,1679.93,1217.22,1107.54
11430,-3.8700,-0.8604,-0.8171,1117.43,342.10,-751.77
11440,-3.8696,-0.8553,-0.7496,1883.06,-579.83,904.60
11450,-3.8696,-0.8291,-0.7571,-1476.32,60.79,1779.79
11460,-3.8698,-0.7853,-0.8223,1883.06,-892.27,1545.35
11470,-3.8699,-0.7211,-0.8804,-507.57,-1235.96,435.85
11480,-3.8700,-0.6331,-0.8640,-288.82,-673.34,-658.02
11490,-3.8698,-0.5476,-0.7677,-1023.19,1420.59,1810.79
11500,-3.8694,-0.5172,-0.6801,1914.31,1748.90,1670.35
11510,-3.8690,-0.5604,-0.7074,1804.93,967.71,-1907.59
11520,-3.8688,-0.6460,-0.8445,273.68,1467.65,-1001.40
11530,-3.8687,-0.7300,-0.9746,1320.56,-79.41,-17.33
11540,-3.8684,-0.7581,-0.9950,-1429.44,-735.84,248.05
11550,-3.8683,-0.6755,-0.8967,-1023.19,654.72,1716.80
11560,-3.8680,-0.4835,-0.7617,1539.31,1233.03,295.10
11570,-3.8678,-0.2418,-0.7145,-1882.57,-1485.35,92.22
11580,-3.8676,-0.0126,-0.8007,1054.93,562.01,-1001.40
11590,-3.8671,0.1591,-0.9353,-1601.32,1531.19,-1860.96
11600,-3.8665,0.2595,-1.0239,367.43,281.56,1013.79
11610,-3.8658,0.3264,-1.0361,1226.81,937.99,279.24
11620,-3.8655,0.4039,-0.9880,1789.31,-624.39,-627.08
11630,-3.8651,0.4849,-0.9324,-288.82,1531.98,326.17
11640,-3.8651,0.5477,-0.9004,-1929.44,657.17,-1814.33
11650,-3.8654,0.5929,-0.8607,-1882.57,751.04,-126.77
11660,-3.8657,0.6232,-0.7871,-101.32,1829.22,-1329.83
11670,-3.8662,0.6479,-0.7104,-226.32,-748.84,-1189.09
11680,-3.8666,0.6752,-0.6763,-1054.44,1063.72,1342.35
11690,-3.8668,0.7008,-0.6888,-1570.07,1438.78,748.66
11700,-3.8671,0.7289,-0.7175,1711.18,-170.53,-688.90
11710,-3.8672,0.7777,-0.7350,1304.93,157.65,-1720.15
11720,-3.8673,0.8582,-0.7296,-445.07,1923.34,107.91
11730,-3.8676,0.9497,-0.7042,1851.81,-1388.98,592.29
11740,-3.8678,1.0094,-0.6708,1570.56,1861.21,232.97
11750,-3.8682,1.0048,-0.6349,1211.18,-1857.42,-688.84
11760,-3.8684,0.9357,-0.5938,617.43,-1263.67,1326.84
11770,-3.8688,0.8436,-0.5490,-226.32,1.77,1311.34
11780,-3.8693,0.7861,-0.5042,-7.57,1735.96,-1079.22
11790,-3.8698,0.7839,-0.4547,633.06,-529.72,-876.04
11800,-3.8702,0.8188,-0.3932,351.81,1798.40,-719.67
11810,-3.8706,0.8665,-0.3207,820.56,1673.46,467.96
11820,-3.8711,0.9075,-0.2446,-1085.69,-1045.23,-219.42
11830,-3.8713,0.9285,-0.1710,164.31,689.27,1046.39
11840,-3.8717,0.9095,-0.1052,-1148.19,-1888.85,-187.87
11850,-3.8718,0.8414,-0.0623,429.93,-1466.98,1515.38
11860,-3.8719,0.7640,-0.0587,-288.82,32.84,-984.50
11870,-3.8719,0.7260,-0.0891,1804.93,485.84,-1703.25
11880,-3.8719,0.7278,-0.1279,929.93,595.15,1093.57
11890,-3.8721,0.7418,-0.1449,1164.31,-373.60,1796.57
11900,-3.8723,0.7452,-0.1265,-1038.82,1454.53,-437.81
11910,-3.8726,0.7294,-0.0818,-601.32,-186.10,-1656.56
11920,-3.8729,0.7013,-0.0284,1367.43,1532.65,-625.18
11930,-3.8732,0.6729,0.0162,1773.68,360.72,531.19
11940,-3.8735,0.6372,0.0387,-1866.94,-1920.59,-562.50
11950,-3.8737,0.5801,0.0361,1570.56,954.35,-1999.94
11960,-3.8737,0.5051,0.0099,-1741.94,626.10,843.81
11970,-3.8737,0.4221,-0.0336,664.31,1266.60,-1656.25
11980,-3.8735,0.3375,-0.0730,-1960.69,-296.08,109.25
11990,-3.8735,0.2684,-0.0853,-788.82,-1343.14,484.19
12000,-3.8737,0.2314,-0.0643,-1632.57,1078.61,-1375.18
12010,-3.8738,0.2260,-0.0226,1633.06,-233.95,-1187.68
12020,-3.8739,0.2402,0.0159,929.93,1109.80,-1859.44
12030,-3.8740,0.2493,0.0243,-1241.94,-1968.32,-1781.25
12040,-3.8740,0.2224,-0.0085,-85.69,-890.20,1140.62
12050,-3.8740,0.1556,-0.0648,476.81,-1093.32,-890.69
12060,-3.8739,0.0754,-0.1177,-70.07,-296.63,1609.19
12070,-3.8739,0.0092,-0.1531,1664.31,937.62,-984.62
12080,-3.8739,-0.0367,-0.1619,1179.93,406.25,-1140.93
12090,-3.8739,-0.0698,-0.1382,-695.07,-703.25,530.88
12100,-3.8740,-0.1011,-0.0845,-929.44,-1672.06,437.19
12110,-3.8743,-0.1483,-0.0145,-929.44,1202.88,-250.18
12120,-3.8743,-0.2228,0.0354,1023.68,-1844.06,124.94
12130,-3.8744,-0.3060,0.0201,-507.57,546.39,-1046.81
12140,-3.8744,-0.3740,-0.0579,836.18,-1406.86,-281.25
12150,-3.8743,-0.4265,-0.1407,133.06,608.64,1640.50
12160,-3.8741,-0.4720,-0.1823,1414.31,1999.15,1030.94
12170,-3.8740,-0.5155,-0.1842,-413.82,686.52,1749.63
12180,-3.8739,-0.5619,-0.1765,-1976.32,436.46,-906.62
12190,-3.8737,-0.6080,-0.1892,86.18,1420.78,1327.76
12200,-3.8734,-0.6389,-0.2352,-1820.07,-204.35,827.70
12210,-3.8732,-0.6421,-0.3066,-1773.19,1904.97,437.01
12220,-3.8730,-0.6165,-0.3837,1820.56,764.34,-906.86
12230,-3.8728,-0.5754,-0.4374,1101.81,-1094.97,499.21
12240,-3.8727,-0.5536,-0.4340,-1648.19,30.09,46.02
12250,-3.8727,-0.5840,-0.3680,1148.68,467.65,1921.02
12260,-3.8727,-0.6603,-0.2804,1258.06,905.09,-1156.98
12270,-3.8727,-0.7401,-0.2410,-507.57,123.66,-563.05
12280,-3.8726,-0.7797,-0.3062,1273.68,1170.41,1218.26
12290,-3.8724,-0.7728,-0.4557,211.18,826.60,811.89
12300,-3.8723,-0.7562,-0.6082,1086.18,1685.97,-1907.17
12310,-3.8721,-0.7640,-0.6898,-788.82,-1829.65,936.28
12320,-3.8718,-0.8000,-0.6755,-1788.82,-282.78,139.22
12330,-3.8717,-0.8478,-0.6012,1601.81,1545.29,1592.41
12340,-3.8717,-0.8789,-0.5275,-507.57,-939.21,-360.60
12350,-3.8717,-0.8601,-0.4978,-491.94,498.23,-251.04
12360,-3.8716,-0.7869,-0.5350,1914.31,295.17,1405.27
12370,-3.8715,-0.6877,-0.6241,-710.69,-470.34,-1532.35
12380,-3.8712,-0.5939,-0.7148,-23.19,123.60,-813.72
12390,-3.8708,-0.5365,-0.7737,-7.57,514.40,-1767.03
12400,-3.8705,-0.5353,-0.7936,-663.82,983.28,1779.72
12410,-3.8701,-0.5862,-0.7993,-507.57,-1563.60,904.66
12420,-3.8699,-0.6648,-0.8384,976.81,1701.97,-1954.71
12430,-3.8696,-0.7153,-0.9133,-1085.69,701.78,1279.60
12440,-3.8694,-0.6896,-0.9714,445.56,-892.03,638.79
12450,-3.8691,-0.5870,-0.9694,-257.57,-329.53,185.55
12460,-3.8690,-0.4380,-0.9095,867.43,-63.66,-1673.83
12470,-3.8689,-0.2808,-0.8314,-54.44,-407.17,-1173.71
12480,-3.8688,-0.1418,-0.7871,70.56,1593.20,-861.02
12490,-3.8685,-0.0308,-0.8031,1851.81,-734.68,404.66
12500,-3.8684,0.0515,-0.8497,70.56,1218.69,1795.29
12510,-3.8683,0.1086,-0.8680,-1398.19,-765.56,1810.79
12520,-3.8682,0.1537,-0.8359,1914.31,890.81,1263.92
12530,-3.8680,0.2028,-0.7983,-320.07,1000.24,1670.23
12540,-3.8679,0.2665,-0.8043,1961.18,1812.87,-1282.84
12550,-3.8678,0.3439,-0.8409,-1882.57,1047.36,-1189.09
12560,-3.8677,0.4196,-0.8607,23.68,360.05,435.85
12570,-3.8678,0.4854,-0.8416,1711.18,1828.92,-689.21
12580,-3.8678,0.5538,-0.7924,-1866.94,282.17,935.85
12590,-3.8679,0.6396,-0.7324,-1101.32,-1420.84,-1032.84
12600,-3.8679,0.7389,-0.6826,1883.06,-1748.78,-1892.09
12610,-3.8679,0.8322,-0.6613,-1413.82,626.40,-1876.34
12620,-3.8679,0.8932,-0.6748,-1476.32,-639.04,1498.66
12630,-3.8680,0.9127,-0.7136,-1663.82,1626.71,-1891.97
12640,-3.8682,0.9116,-0.7563,836.18,658.02,451.72
12650,-3.8684,0.9092,-0.7871,695.56,-810.73,-439.03
12660,-3.8684,0.9121,-0.8195,383.06,-748.23,1576.54
12670,-3.8684,0.9172,-0.8577,758.06,-888.85,-1876.65
12680,-3.8684,0.9126,-0.8645,1414.31,-1779.48,1592.04
12690,-3.8685,0.8971,-0.8134,820.56,1345.52,435.79
12700,-3.8689,0.8915,-0.7274,-1163.82,-107.67,-1236.02
12710,-3.8693,0.9171,-0.6469,-1882.57,-1107.67,-1548.34
12720,-3.8696,0.9707,-0.5834,1398.68,1204.90,1108.09
12730,-3.8700,1.0125,-0.5289,258.06,1330.02,967.59
12740,-3.8702,1.0000,-0.4839,1601.81,298.83,327.09
12750,-3.8705,0.9393,-0.4572,8.06,-1935.55,-438.48
12760,-3.8705,0.8730,-0.4413,242.43,1486.21,124.08
12770,-3.8707,0.8319,-0.4109,-241.94,-482.73,-1422.79
12780,-3.8710,0.8204,-0.3508,-1507.57,-592.16,-1953.98
12790,-3.8713,0.8273,-0.2771,1023.68,-904.66,-94.48
12800,-3.8716,0.8325,-0.2201,1898.68,532.84,1296.33
12810,-3.8719,0.8151,-0.1899,-1429.44,-170.29,-859.86
12820,-3.8722,0.7667,-0.1727,336.18,-310.91,1687.07
12830,-3.8724,0.6958,-0.1494,-1851.32,1892.09,93.38
12840,-3.8728,0.6199,-0.1113,1070.56,876.34,1702.82
12850,-3.8732,0.5538,-0.0656,-648.19,1751.16,-1390.87
12860,-3.8735,0.5060,-0.0229,-1101.32,-389.59,-1343.93
12870,-3.8739,0.4812,0.0116,773.68,1063.48,-1937.56
12880,-3.8743,0.4760,0.0398,1601.81,1485.29,-1500.00
12890,-3.8745,0.4835,0.0632,929.93,1094.67,1921.94
12900,-3.8746,0.4929,0.0806,1898.68,94.67,922.00
12910,-3.8748,0.4755,0.0940,-898.19,-1686.58,-953.00
12920,-3.8748,0.4043,0.1094,867.43,32.17,-1812.32
12930,-3.8749,0.2882,0.1299,-241.94,-1999.27,-296.69
12940,-3.8750,0.1647,0.1595,898.68,625.55,-452.88
12950,-3.8439,0.0656,0.2025,1086.18,422.18,-77.82
12960,-3.8439,-0.0013,0.2430,398.68,1922.00,-1984.01
12970,-3.8439,-0.0425,0.2493,-163.82,-875.06,1094.18
12980,-3.8439,-0.0637,0.2079,-1429.44,-78.25,672.30
12990,-3.8439,-0.0756,0.1342,-148.19,-1375.18,1719.12
13000,-3.8750,-0.0905,0.0565,-1663.82,1187.32,1078.37
13010,-3.8749,-0.1156,0.0009,429.93,-750.18,1562.56
13020,-3.8748,-0.1580,-0.0232,1211.18,124.76,1890.62
13030,-3.8746,-0.2162,-0.0298,-210.69,1046.51,-1468.81
13040,-3.8745,-0.2802,-0.0348,336.18,202.70,-93.81
13050,-3.8743,-0.3452,-0.0414,148.68,-438.05,1437.38
13060,-3.8741,-0.4136,-0.0499,-179.44,-1281.98,1781.13
13070,-3.8741,-0.4827,-0.0626,-929.44,1624.15,-62.62
13080,-3.8741,-0.5436,-0.0745,-1773.19,-0.98,-187.68
13090,-3.8741,-0.5828,-0.0795,-1570.07,-1516.72,-1359.56
13100,-3.8741,-0.5905,-0.0804,1414.31,1842.59,-1078.31
13110,-3.8740,-0.5735,-0.0885,429.93,1717.59,-1468.93
13120,-3.8738,-0.5527,-0.1135,-1398.19,686.34,374.82
13130,-3.8737,-0.5491,-0.1523,1258.06,1483.28,-1484.62
13140,-3.8734,-0.5707,-0.1970,1726.81,514.53,890.32
13150,-3.8732,-0.6130,-0.2490,-1038.82,-1204.28,171.45
13160,-3.8729,-0.6572,-0.3068,1539.31,139.40,187.01
13170,-3.8728,-0.6799,-0.3420,-116.94,748.66,-359.99
13180,-3.8726,-0.6808,-0.3271,976.81,233.03,1327.45
13190,-3.8724,-0.6732,-0.2764,867.43,-1860.72,1155.58
13200,-3.8724,-0.6621,-0.2346,1836.18,639.28,-359.92
13210,-3.8723,-0.6555,-0.2513,-741.94,1983.03,-1875.49
13220,-3.8722,-0.6611,-0.3411,101.81,-157.53,-1813.05
13230,-3.8721,-0.6860,-0.4615,-616.94,358.03,-47.55
13240,-3.8718,-0.7490,-0.5544,195.56,936.16,1920.96
13250,-3.8717,-0.8429,-0.5730,133.06,1045.41,-1016.72
13260,-3.8715,-0.9196,-0.5104,117.43,-1329.77,170.72
13270,-3.8713,-0.9437,-0.4452,-1695.07,-1314.33,-829.16
13280,-3.8711,-0.9167,-0.4742,-788.82,-970.64,-32.17
13290,-3.8707,-0.8623,-0.5999,-1335.69,-689.33,1014.65
13300,-3.8705,-0.8185,-0.7422,1633.06,-767.33,1873.78
13310,-3.8702,-0.8109,-0.8220,-757.57,1013.98,-1657.71
13320,-3.8700,-0.8228,-0.8124,211.18,-1204.71,-1548.52
13330,-3.8698,-0.8127,-0.7463,-1304.44,29.60,-110.96
13340,-3.8694,-0.7478,-0.6788,-23.19,482.73,-454.59
13350,-3.8689,-0.6340,-0.6525,289.31,1123.54,14.28
13360,-3.8687,-0.5254,-0.6812,-1148.19,498.72,-1563.78
13370,-3.8684,-0.4777,-0.7316,758.06,827.09,842.41
13380,-3.8683,-0.4961,-0.7594,-1132.57,-1625.98,889.16
13390,-3.8682,-0.5233,-0.7554,508.06,-1188.48,1014.10
13400,-3.8680,-0.4939,-0.7288,1023.68,-672.91,-1767.15
13410,-3.8678,-0.3978,-0.6938,789.31,-1266.60,14.16
13420,-3.8678,-0.2633,-0.6648,1086.18,-797.67,-126.40
13430,-3.8677,-0.1030,-0.6464,-1695.07,-1078.67,483.03
13440,-3.8677,0.0712,-0.6434,-1179.44,1281.01,311.22
13450,-3.8677,0.2253,-0.6488,1117.43,1640.75,-204.41
13460,-3.8674,0.3380,-0.6411,851.81,953.55,-720.03
13470,-3.8672,0.4052,-0.6224,-726.32,1938.11,-798.16
13480,-3.8669,0.4406,-0.6053,-132.57,328.86,639.40
13490,-3.8669,0.4780,-0.5842,398.68,-1483.52,-1251.22
13500,-3.8669,0.5430,-0.5383,1195.56,1219.67,1998.84
13510,-3.8671,0.6350,-0.4517,1508.06,-905.21,-1485.47
13520,-3.8673,0.7334,-0.3448,1289.31,-1811.28,-1438.42
13530,-3.8677,0.8113,-0.2526,1883.06,-139.22,296.14
13540,-3.8684,0.8496,-0.1748,-148.19,-326.60,-391.17
13550,-3.8691,0.8455,-0.0883,758.06,1626.65,-797.24
13560,-3.8698,0.8112,0.0042,226.81,704.77,187.32
13570,-3.8704,0.7679,0.0704,-163.82,532.78,-1359.38
13580,-3.8706,0.7308,0.0842,-1695.07,1017.09,0.12
13590,-3.8708,0.7062,0.0446,1554.93,-1217.35,-765.50
13600,-3.8708,0.6975,-0.0227,-1601.32,1704.47,-1656.19
13610,-3.8707,0.6997,-0.0753,1289.31,1095.09,187.44
13620,-3.8706,0.7059,-0.0961,1570.56,-1639.28,437.32
13630,-3.8706,0.7112,-0.1091,-1632.57,-295.53,-297.12
13640,-3.8706,0.7123,-0.1287,-960.69,-1967.41,-1781.49
13650,-3.8707,0.7122,-0.1444,-820.07,-467.41,546.57
13660,-3.8710,0.7109,-0.1526,-835.69,1516.97,999.69
13670,-3.8712,0.6981,-0.1603,-991.94,470.09,234.07
13680,-3.8716,0.6610,-0.1656,1367.43,-514.28,1765.26
13690,-3.8719,0.5964,-0.1580,617.43,-1201.84,-1890.99
13700,-3.8723,0.5175,-0.1333,351.81,-217.59,-1344.12
13710,-3.8726,0.4471,-0.0952,-1757.57,-1061.52,671.57
13720,-3.8728,0.4032,-0.0629,1242.43,-186.65,1312.26
13730,-3.8729,0.3849,-0.0659,-382.57,-46.14,656.07
13740,-3.8730,0.3723,-0.1063,1273.68,-436.77,1343.57
13750,-3.8732,0.3429,-0.1482,-335.69,-1608.70,1702.88
13760,-3.8733,0.2888,-0.1602,-101.32,1031.86,921.57
13770,-3.8735,0.2211,-0.1399,976.81,-499.45,-1109.74
13780,-3.8738,0.1541,-0.1036,304.93,-1905.82,-265.93
13790,-3.8739,0.0947,-0.0667,-273.19,-1265.38,734.13
13800,-3.8741,0.0449,-0.0385,133.06,-531.07,-984.56
13810,-3.8743,0.0073,-0.0254,1758.06,-921.81,-1109.50
13820,-3.8743,-0.0168,-0.0288,945.56,750.00,515.56
13830,-3.8744,-0.0323,-0.0461,1851.81,328.06,-62.56
13840,-3.8743,-0.0532,-0.0723,-132.57,-1890.75,1062.38
13850,-3.8743,-0.0952,-0.0988,1195.56,-1234.50,-922.06
13860,-3.8741,-0.1611,-0.1177,-179.44,-625.24,952.88
13870,-3.8741,-0.2373,-0.1309,-616.94,952.76,-1781.49
13880,-3.8741,-0.3065,-0.1394,1633.06,-734.86,-1390.93
13890,-3.8741,-0.3605,-0.1326,773.68,-1828.74,-1500.31
13900,-3.8741,-0.3959,-0.1056,1867.43,-953.86,-1515.93
13910,-3.8741,-0.4164,-0.0707,1336.18,-1500.79,-1187.74
13920,-3.8740,-0.4290,-0.0463,-1288.82,-1032.10,218.57
13930,-3.8740,-0.4294,-0.0508,1101.81,-1907.10,-234.50
13940,-3.8738,-0.4050,-0.0938,1039.31,1514.77,-1593.87
13950,-3.8734,-0.3522,-0.1543,164.31,14.83,749.82
13960,-3.8730,-0.2782,-0.1969,-1070.07,264.89,-1078.43
13970,-3.8726,-0.1967,-0.2074,398.68,-1188.05,-156.68
13980,-3.8721,-0.1266,-0.1943,-1163.82,1468.32,-109.80
13990,-3.8717,-0.0876,-0.1768,-195.07,-859.68,-1219.18
14000,-3.8716,-0.0892,-0.1808,789.31,1390.44,1968.38
14010,-3.8717,-0.1276,-0.2231,586.18,874.82,-1640.99
14020,-3.8718,-0.1895,-0.2854,-320.07,-547.18,655.76
14030,-3.8719,-0.2590,-0.3206,-241.94,-516.05,1155.64
14040,-3.8719,-0.3280,-0.3157,-1148.19,-1016.17,811.83
14050,-3.8719,-0.3887,-0.3252,-1976.32,-391.30,-1031.92
14060,-3.8718,-0.4358,-0.3934,-1741.94,-1610.17,-1656.92
14070,-3.8717,-0.4773,-0.5099,226.81,1655.40,1608.58
14080,-3.8716,-0.5247,-0.6521,-1085.69,-1250.98,780.21
14090,-3.8715,-0.5813,-0.7825,851.81,545.84,139.34
14100,-3.8713,-0.6288,-0.8207,1601.81,-141.78,310.91
14110,-3.8712,-0.6283,-0.7510,-476.32,-1032.53,-923.52
14120,-3.8708,-0.5537,-0.6880,-413.82,-110.66,404.72
14130,-3.8706,-0.4253,-0.7230,1133.06,-47.97,373.60
14140,-3.8706,-0.2878,-0.8385,1570.56,-532.10,-1657.71
14150,-3.8706,-0.1908,-0.9877,-835.69,686.89,13.98
14160,-3.8706,-0.1874,-1.1290,-413.82,1593.32,998.05
14170,-3.8705,-0.2679,-1.1980,23.68,-500.37,-986.63
14180,-3.8702,-0.3563,-1.1423,1711.18,-1328.67,-1955.51
14190,-3.8701,-0.3691,-1.0032,-1601.32,1796.14,-439.76
14200,-3.8700,-0.2700,-0.8947,758.06,-391.36,-1377.01
14210,-3.8700,-0.0996,-0.8772,1445.56,1499.45,-1236.15
14220,-3.8701,0.0782,-0.9207,-741.94,-265.87,-33.02
14230,-3.8701,0.2157,-0.9736,-1976.32,-1843.63,920.04
14240,-3.8701,0.2797,-1.0020,-382.57,-624.63,-845.70
14250,-3.8698,0.2687,-0.9900,-195.07,-249.51,-1533.26
14260,-3.8691,0.2415,-0.9340,-1601.32,1281.74,419.92
14270,-3.8687,0.2712,-0.8519,-1085.69,453.55,841.92
14280,-3.8684,0.3796,-0.7599,-1273.19,-1046.39,-1142.33
14290,-3.8683,0.5343,-0.6624,601.81,-1264.89,-1767.15
14300,-3.8684,0.6747,-0.5781,398.68,-780.21,-954.47
14310,-3.8687,0.7549,-0.5332,-1632.57,-1998.72,-876.16
14320,-3.8689,0.7582,-0.5449,633.06,-248.54,1717.65
14330,-3.8691,0.6970,-0.6025,1054.93,-1748.54,-1657.35
14340,-3.8693,0.6140,-0.6613,1226.81,-1123.66,-860.60
14350,-3.8691,0.5586,-0.6827,-1398.19,-639.47,326.78
14360,-3.8690,0.5565,-0.6714,-491.94,610.41,389.28
14370,-3.8689,0.6060,-0.6528,-757.57,-1936.46,1467.41
14380,-3.8688,0.6837,-0.6359,1570.56,438.66,-1470.03
14390,-3.8687,0.7545,-0.6176,-476.32,-1389.34,-923.16
14400,-3.8685,0.7964,-0.6012,586.18,954.59,-1048.10
14410,-3.8684,0.8195,-0.5970,1945.56,-951.60,1170.65
14420,-3.8684,0.8413,-0.6019,898.68,-420.29,358.15
14430,-3.8685,0.8633,-0.5983,-304.44,-1045.29,295.65
14440,-3.8688,0.8893,-0.5779,-1491.94,-576.48,1467.53
14450,-3.8690,0.9282,-0.5444,1836.18,-1967.04,920.72
14460,-3.8694,0.9637,-0.4962,-1179.44,-1685.73,-610.47
14470,-3.8696,0.9656,-0.4336,-632.57,486.21,1061.52
14480,-3.8700,0.9242,-0.3695,-398.19,501.83,-1657.10
14490,-3.8704,0.8578,-0.3082,-1695.07,704.90,-360.11
14500,-3.8706,0.8044,-0.2441,1804.93,548.52,1546.26
14510,-3.8708,0.7959,-0.1814,-1023.19,751.53,983.89
14520,-3.8711,0.8265,-0.1376,1883.06,782.78,-1672.24
14530,-3.8712,0.8590,-0.1198,1804.93,-1607.79,624.69
14540,-3.8715,0.8693,-0.1146,1961.18,673.52,-1234.62
14550,-3.8717,0.8527,-0.1019,-726.32,1329.77,-125.24
14560,-3.8719,0.8118,-0.0725,1148.68,-1045.23,-125.24
14570,-3.8721,0.7545,-0.0374,-85.69,-1279.72,390.44
14580,-3.8723,0.6934,-0.0095,586.18,-779.79,-1765.75
14590,-3.8724,0.6472,0.0112,758.06,-1217.41,578.06
14600,-3.8727,0.6235,0.0336,-1148.19,1438.72,-1515.62
14610,-3.8729,0.6105,0.0586,-179.44,298.03,-421.81
14620,-3.8730,0.5902,0.0746,-1851.32,-498.84,265.69
14630,-3.8733,0.5549,0.0785,-445.07,1547.97,1437.62
14640,-3.8735,0.5104,0.0815,-960.69,-1952.09,-374.88
14650,-3.8737,0.4613,0.0891,1336.18,-1561.52,-1281.13
14660,-3.8738,0.4130,0.0964,-945.07,-592.90,-1765.50
14670,-3.8739,0.3673,0.1041,867.43,344.54,1437.68
14680,-3.8741,0.3146,0.1172,-976.32,1328.80,-62.32
14690,-3.8743,0.2532,0.1321,273.68,-999.39,-1874.82
14700,-3.8744,0.1992,0.1429,414.31,906.74,93.99
14710,-3.8746,0.1646,0.1523,1508.06,-1702.76,1859.62
14720,-3.8748,0.1409,0.1647,1070.56,-499.69,484.62
14730,-3.8749,0.1102,0.1715,-1960.69,1078.37,1047.18
14740,-3.8750,0.0684,0.1616,-1882.57,1953.31,-452.82
14750,-3.8750,0.0289,0.1392,758.06,687.62,-187.19
14760,-3.8749,-0.0028,0.1143,-288.82,1812.50,1718.99
14770,-3.8748,-0.0365,0.0875,-351.32,-1359.44,250.18
14780,-3.8748,-0.0790,0.0577,-663.82,-781.37,-1578.00
14790,-3.8748,-0.1317,0.0298,1898.68,-593.93,-312.44
14800,-3.8748,-0.1943,0.0101,-851.32,-172.18,-203.12
14810,-3.8748,-0.2601,-0.0018,-866.94,1312.07,-1000.00
14820,-3.8748,-0.3184,-0.0051,-1288.82,-219.30,-1500.06
14830,-3.8746,-0.3643,-0.0032,-741.94,-641.30,31.19
14840,-3.8746,-0.4005,-0.0171,1383.06,-391.36,-390.69
14850,-3.8745,-0.4293,-0.0684,742.43,1827.33,-312.56
14860,-3.8743,-0.4557,-0.1559,1054.93,-735.23,31.07
14870,-3.8741,-0.4904,-0.2517,1679.93,61.58,1780.94
14880,-3.8739,-0.5258,-0.3135,1242.43,-204.10,858.83
14890,-3.8737,-0.5327,-0.3207,711.18,-110.41,264.95
14900,-3.8735,-0.4935,-0.2949,-179.44,-1032.35,-391.30
14910,-3.8733,-0.4144,-0.2784,836.18,-1735.35,-1063.11
14920,-3.8730,-0.3291,-0.3071,-1038.82,374.15,-1281.80
14930,-3.8728,-0.2941,-0.3881,1883.06,702.45,-969.36
14940,-3.8726,-0.3455,-0.4935,-1632.57,-1656.86,-110.17
14950,-3.8722,-0.4644,-0.5840,-210.69,843.02,389.65
14960,-3.8721,-0.5955,-0.6353,570.56,1264.71,-923.03
14970,-3.8719,-0.6909,-0.6414,-210.69,-1298.10,-48.16
14980,-3.8718,-0.7454,-0.6167,-429.44,1920.47,-407.53
14990,-3.8717,-0.7784,-0.5973,601.81,1076.66,1186.28
15000,-3.8717,-0.7876,-0.6057,367.43,-439.03,233.15
15010,-3.8718,-0.7637,-0.6378,-804.44,-1517.21,-1329.35
15020,-3.8718,-0.7472,-0.6848,-1741.94,-1626.53,-266.91
15030,-3.8716,-0.7906,-0.7325,367.43,357.91,389.28
15040,-3.8715,-0.8840,-0.7621,-1195.07,-1751.59,-876.46
15050,-3.8712,-0.9664,-0.7821,-1148.19,-1533.02,-610.90
15060,-3.8708,-0.9723,-0.8090,304.93,-95.64,1092.16
15070,-3.8706,-0.8694,-0.8273,-445.07,466.80,-439.09
15080,-3.8702,-0.6885,-0.8234,726.81,-1876.71,-1939.15
15090,-3.8700,-0.5033,-0.8098,-116.94,-1376.40,-423.52
15100,-3.8698,-0.3894,-0.8037,-413.82,358.34,-1079.71
15110,-3.8696,-0.4031,-0.8127,-1835.69,1139.83,-95.34
15120,-3.8695,-0.5314,-0.8322,414.31,-16.42,-1189.15
15130,-3.8694,-0.6726,-0.8384,-7.57,1498.90,295.23
15140,-3.8694,-0.7048,-0.8167,1914.31,701.78,-579.77
15150,-3.8691,-0.5859,-0.7891,1789.31,-517.03,-1048.52
15160,-3.8688,-0.3708,-0.7809,1008.06,-985.53,1404.66
15170,-3.8685,-0.1411,-0.7782,539.31,61.77,-532.78
15180,-3.8683,0.0474,-0.7448,1945.56,405.94,-1735.90
15190,-3.8682,0.1769,-0.6683,-1929.44,671.94,1279.79
15200,-3.8682,0.2667,-0.5802,-1351.32,-1546.57,1764.28
15210,-3.8682,0.3516,-0.5267,-1851.32,1734.86,-1813.66
15220,-3.8680,0.4280,-0.5463,1008.06,578.80,-1782.29
15230,-3.8678,0.4573,-0.6187,-1210.69,-1921.08,1889.53
15240,-3.8676,0.4183,-0.6689,-1460.69,813.35,1436.28
15250,-3.8674,0.3333,-0.6564,1554.93,-1624.21,1592.41
15260,-3.8674,0.2544,-0.6039,-1335.69,-15.01,545.53
15270,-3.8677,0.2231,-0.5568,570.56,-1296.39,-1266.85
15280,-3.8679,0.2488,-0.5272,570.56,734.80,-1797.97
15290,-3.8682,0.3239,-0.4915,-148.19,516.05,561.46
15300,-3.8685,0.4302,-0.4353,1461.18,1094.36,-329.10
15310,-3.8687,0.5338,-0.3728,-929.44,282.04,936.65
15320,-3.8689,0.6025,-0.3220,336.18,282.29,-235.11
15330,-3.8690,0.6191,-0.2861,1133.06,-1217.59,-1125.67
15340,-3.8691,0.5850,-0.2611,-741.94,-623.84,1593.14
15350,-3.8693,0.5216,-0.2443,-1116.94,-1420.78,46.33
15360,-3.8695,0.4563,-0.2351,-1226.32,735.35,-516.11
15370,-3.8695,0.4139,-0.2344,-1585.69,1907.10,937.01
15380,-3.8696,0.4071,-0.2373,992.43,-1999.21,-984.86
15390,-3.8698,0.4304,-0.2339,117.43,1625.79,-437.99
15400,-3.8699,0.4708,-0.2209,-898.19,-1936.71,1749.51
15410,-3.8701,0.5050,-0.2053,273.68,-280.33,-1937.99
15420,-3.8704,0.5096,-0.1904,648.68,1719.73,1468.32
15430,-3.8706,0.4854,-0.1737,1242.43,-374.02,421.45
15440,-3.8710,0.4471,-0.1520,-1866.94,1766.54,-609.74
15450,-3.8712,0.4070,-0.1233,1242.43,547.73,-1500.31
15460,-3.8715,0.3750,-0.0891,101.81,219.54,1312.26
15470,-3.8718,0.3545,-0.0551,8.06,594.48,-187.68
15480,-3.8721,0.3406,-0.0267,1383.06,953.80,1984.25
15490,-3.8724,0.3301,0.0001,-398.19,578.74,-281.31
15500,-3.8727,0.3221,0.0338,-1741.94,16.24,1359.38
15510,-3.8730,0.3142,0.0732,1242.43,328.74,-265.56
15520,-3.8733,0.3059,0.1089,226.81,1375.61,-468.63
15530,-3.8734,0.2955,0.1323,-835.69,1938.05,531.43
15540,-3.8737,0.2753,0.1433,1836.18,938.05,-1687.26
15550,-3.8738,0.2399,0.1459,-757.57,-1655.76,750.24
15560,-3.8740,0.1926,0.1472,-1288.82,-1327.70,-109.13
15570,-3.8741,0.1479,0.1560,664.31,-1155.88,-359.13
15580,-3.8741,0.1177,0.1738,-1054.44,-31.01,156.49
15590,-3.8743,0.1011,0.1892,-929.44,-1749.82,1984.68
15600,-3.8743,0.0940,0.1899,945.56,218.93,828.49
15610,-3.8744,0.0903,0.1769,39.31,312.68,-468.38
15620,-3.8744,0.0741,0.1592,-429.44,-1359.25,1750.31
15630,-3.8745,0.0325,0.1387,1492.43,375.12,-187.19
15640,-3.8745,-0.0278,0.1138,164.31,1750.06,-1562.26
15650,-3.8745,-0.0856,0.0887,445.56,-1421.94,-1531.07
15660,-3.8744,-0.1250,0.0670,1054.93,-625.18,31.37
15670,-3.8744,-0.1483,0.0431,8.06,593.51,-1078.00
15680,-3.8743,-0.1659,0.0098,1023.68,1530.94,-1328.06
15690,-3.8741,-0.1832,-0.0377,-1226.32,1265.26,-1281.25
15700,-3.8740,-0.1953,-0.0933,554.93,-812.87,-640.75
15710,-3.8738,-0.1967,-0.1371,-991.94,77.70,827.94
15720,-3.8737,-0.1896,-0.1547,-1163.82,-1531.68,-1578.43
15730,-3.8735,-0.1863,-0.1511,-257.57,218.32,-594.06
15740,-3.8734,-0.1979,-0.1514,164.31,671.51,-922.18
15750,-3.8733,-0.2196,-0.1770,-1320.07,640.20,968.44
15760,-3.8733,-0.2432,-0.2322,-101.32,1358.89,-1578.49
15770,-3.8732,-0.2739,-0.3158,883.06,-1703.61,780.76
15780,-3.8730,-0.3197,-0.4191,945.56,-406.80,655.58
15790,-3.8729,-0.3831,-0.5261,-913.82,-1625.67,-1141.48
15800,-3.8727,-0.4724,-0.6216,-1023.19,671.08,-1376.04
15810,-3.8724,-0.5946,-0.6964,-460.69,452.15,1795.65
15820,-3.8723,-0.7327,-0.7568,-101.32,-1126.22,-1079.53
15830,-3.8722,-0.8463,-0.8132,-1773.19,-860.84,-1626.53
15840,-3.8721,-0.8962,-0.8638,-320.07,-79.83,1842.10
15850,-3.8719,-0.8698,-0.9053,1289.31,1451.35,-1220.46
15860,-3.8717,-0.7950,-0.9484,679.93,138.92,-1939.27
15870,-3.8715,-0.7189,-0.9868,-1757.57,-1376.59,-95.64
15880,-3.8711,-0.6764,-0.9939,-7.57,1701.66,-1048.83
15890,-3.8707,-0.6821,-0.9769,1429.93,795.53,544.92
15900,-3.8706,-0.7256,-0.9631,695.56,-1032.59,-1298.83
15910,-3.8705,-0.7762,-0.9647,-866.94,732.91,-1501.89
15920,-3.8704,-0.7993,-0.9917,648.68,529.72,-1314.39
15930,-3.8702,-0.7729,-1.0266,1695.56,1076.54,-283.20
15940,-3.8700,-0.7029,-1.0365,1070.56,607.85,1716.74
15950,-3.8698,-0.6237,-1.0282,-1960.69,-657.65,1372.92
15960,-3.8695,-0.5669,-1.0182,179.93,405.03,1341.74
15970,-3.8694,-0.5426,-0.9993,-554.44,1686.34,-408.26
15980,-3.8693,-0.5343,-0.9633,-1445.07,108.28,-533.20
15990,-3.8691,-0.5123,-0.9276,-382.57,717.65,1998.11
16000,-3.8690,-0.4661,-0.9197,-1570.07,1280.21,763.79
16010,-3.8689,-0.3978,-0.9323,351.81,-1704.04,232.54
16020,-3.8688,-0.3113,-0.9431,1086.18,686.71,60.67
16030,-3.8688,-0.2212,-0.9369,164.31,-703.74,-751.89
16040,-3.8687,-0.1324,-0.8912,-304.44,93.26,1076.29
16050,-3.8687,-0.0364,-0.8112,-945.07,1937.19,-1783.02
16060,-3.8687,0.0679,-0.7323,-648.19,187.38,-1173.46
16070,-3.8687,0.1770,-0.6683,695.56,-1734.25,-1657.71
16080,-3.8687,0.2858,-0.6174,-1335.69,-1546.57,1014.28
16090,-3.8688,0.3817,-0.5886,586.18,969.30,-391.85
16100,-3.8688,0.4470,-0.5834,867.43,656.98,-860.53
16110,-3.8687,0.4623,-0.5800,1226.81,1328.98,358.22
16120,-3.8687,0.4232,-0.5598,-820.07,1766.48,1983.22
16130,-3.8687,0.3516,-0.5299,-1820.07,344.54,1467.65
16140,-3.8688,0.2860,-0.5040,1008.06,172.55,1795.84
16150,-3.8690,0.2560,-0.4807,617.43,-515.08,-157.29
16160,-3.8691,0.2584,-0.4562,773.68,-1530.76,1092.77
16170,-3.8694,0.2844,-0.4415,1086.18,1609.86,-1516.54
16180,-3.8695,0.3346,-0.4440,414.31,-515.08,545.96
16190,-3.8698,0.3855,-0.4396,-1163.82,-827.51,-829.04
16200,-3.8699,0.4097,-0.3947,1351.81,-264.89,905.33
16210,-3.8701,0.4159,-0.3191,445.56,1485.17,1186.71
16220,-3.8704,0.4225,-0.2540,1242.43,-842.96,1030.58
16230,-3.8706,0.4313,-0.2155,-1913.82,-514.83,1280.70
16240,-3.8708,0.4362,-0.1863,-788.82,422.67,-1797.30
16250,-3.8711,0.4354,-0.1481,-163.82,157.04,-547.24
16260,-3.8712,0.4371,-0.0944,-257.57,1047.67,46.57
16270,-3.8716,0.4459,-0.0323,-38.82,-77.33,-765.87
16280,-3.8718,0.4542,0.0245,1086.18,-139.77,1406.13
16290,-3.8722,0.4554,0.0677,-1851.32,-858.52,-796.88
16300,-3.8724,0.4510,0.0984,-1695.07,672.73,1515.75
16310,-3.8727,0.4357,0.1232,1742.43,594.60,1047.06
16320,-3.8729,0.4047,0.1475,-226.32,-233.58,1672.06
16330,-3.8732,0.3652,0.1758,-195.07,-1124.27,-1327.88
16340,-3.8734,0.3282,0.2100,-1241.94,-1499.33,-187.19
16350,-3.8735,0.3035,0.2472,-1976.32,-1124.39,1234.74
16360,-3.8738,0.2971,0.2826,-1148.19,-358.83,-374.57
16370,-3.8739,0.3063,0.3085,-1960.69,172.42,-171.33
16380,-3.8739,0.3148,0.3148,-788.82,-515.08,1578.67
16390,-3.8740,0.3058,0.3026,304.93,297.49,-390.01
16400,-3.8740,0.2780,0.2823,-851.32,-1265.08,875.55
16410,-3.8741,0.2389,0.2581,-413.82,141.11,-1968.20
16420,-3.8743,0.1896,0.2284,-1413.82,1031.68,-62.01
16430,-3.8743,0.1317,0.1995,273.68,1234.74,-1265.20
16440,-3.8743,0.0753,0.1786,867.43,1531.49,-1984.01
16450,-3.8743,0.0292,0.1648,1648.68,-1140.50,1094.06
16460,-3.8744,-0.0062,0.1542,-257.57,1093.75,-249.69
16470,-3.8744,-0.0375,0.1475,-788.82,-250.06,-1624.76
16480,-3.8744,-0.0713,0.1462,-788.82,-1109.50,1703.37
16490,-3.8744,-0.1060,0.1439,-1116.94,-1265.81,1672.12
16500,-3.8744,-0.1339,0.1273,-1554.44,-1562.74,1812.74
16510,-3.8744,-0.1521,0.0922,-1132.57,312.19,-1546.63
16520,-3.8743,-0.1646,0.0508,539.31,-187.81,1000.12
16530,-3.8741,-0.1774,0.0137,-1054.44,-1484.74,-1906.19
16540,-3.8739,-0.1903,-0.0277,1304.93,1765.26,312.50
16550,-3.8738,-0.1991,-0.0856,-351.32,468.32,-1593.81
16560,-3.8735,-0.2081,-0.1504,-1476.32,1062.07,999.82
16570,-3.8733,-0.2245,-0.1991,1367.43,765.20,702.82
16580,-3.8730,-0.2476,-0.2268,-726.32,-1469.24,1374.57
16590,-3.8728,-0.2717,-0.2551,320.56,-1016.11,-687.99
16600,-3.8724,-0.2926,-0.3020,1226.81,-641.17,1999.45
16610,-3.8721,-0.3091,-0.3646,-1445.07,1358.76,15.01
16620,-3.8718,-0.3215,-0.4275,445.56,1343.14,530.52
16630,-3.8717,-0.3285,-0.4753,-1148.19,1296.20,-719.60
16640,-3.8715,-0.3282,-0.5048,1961.18,-828.80,514.65
16650,-3.8713,-0.3226,-0.5240,1992.43,-594.42,1264.59
16660,-3.8712,-0.3177,-0.5460,-1288.82,936.83,-1266.66
16670,-3.8710,-0.3262,-0.5817,-663.82,-1875.67,1655.15
16680,-3.8707,-0.3584,-0.6243,-1741.94,1561.83,1748.84
16690,-3.8705,-0.4104,-0.6561,-1866.94,108.64,-1985.60
16700,-3.8702,-0.4684,-0.6724,-523.19,30.40,873.72
16710,-3.8701,-0.5170,-0.6792,54.93,1952.21,686.16
16720,-3.8701,-0.5557,-0.6743,1836.18,1077.09,748.66
16730,-3.8702,-0.5962,-0.6410,883.06,1702.03,1561.16
16740,-3.8704,-0.6462,-0.5806,-304.44,1967.53,1326.84
16750,-3.8705,-0.7002,-0.5286,1289.31,1701.84,-1469.91
16760,-3.8705,-0.7430,-0.5142,-1616.94,357.97,1764.59
16770,-3.8705,-0.7603,-0.5291,898.68,-1798.34,-1391.66
16780,-3.8704,-0.7510,-0.5486,-1304.44,295.35,733.34
16790,-3.8704,-0.7256,-0.5568,-116.94,1795.35,-407.35
16800,-3.8702,-0.6904,-0.5519,-866.94,748.54,-1032.35
16810,-3.8701,-0.6517,-0.5449,-366.94,1373.60,-860.47
16820,-3.8700,-0.6204,-0.5409,586.18,-1735.66,-204.22
16830,-3.8699,-0.6050,-0.5310,601.81,-1219.97,-344.85
16840,-3.8698,-0.6073,-0.5109,-1429.44,45.65,1717.71
16850,-3.8698,-0.6199,-0.4883,-1726.32,-1376.22,1264.59
16860,-3.8699,-0.6233,-0.4709,664.31,1514.40,-1594.73
16870,-3.8700,-0.6011,-0.4641,226.81,-266.85,-1172.85
16880,-3.8700,-0.5559,-0.4788,-929.44,608.15,702.21
16890,-3.8700,-0.5094,-0.5217,851.81,-1266.72,733.40
16900,-3.8700,-0.4858,-0.5768,-1195.07,1233.34,1983.34
16910,-3.8700,-0.4999,-0.6190,1820.56,-1813.48,-829.28
16920,-3.8700,-0.5526,-0.6378,23.68,780.27,-1048.10
16930,-3.8700,-0.6215,-0.6401,1273.68,-1626.10,1154.97
16940,-3.8701,-0.6752,-0.6389,461.18,-1923.10,-1610.66
16950,-3.8702,-0.7025,-0.6447,1586.18,-1766.97,-1423.16
16960,-3.8704,-0.7129,-0.6664,-1913.82,1498.60,1764.34
16970,-3.8705,-0.7205,-0.7061,758.06,-1282.65,483.03
16980,-3.8707,-0.7377,-0.7522,-210.69,1639.16,-173.28
16990,-3.8707,-0.7742,-0.7927,1586.18,-267.09,342.22
17000,-3.8708,-0.8278,-0.8252,914.31,-1454.65,1514.04
17010,-3.8710,-0.8763,-0.8495,-1945.07,-1611.02,-1407.90
17020,-3.8711,-0.8943,-0.8628,-163.82,-720.52,-1345.46
17030,-3.8712,-0.8719,-0.8628,1539.31,1576.35,795.17
17040,-3.8715,-0.8158,-0.8516,398.68,1576.42,763.92
17050,-3.8718,-0.7432,-0.8356,-413.82,-986.02,-689.21
17060,-3.8721,-0.6719,-0.8198,883.06,1061.04,1638.98
17070,-3.8723,-0.6085,-0.8024,-1991.94,-923.22,342.10
17080,-3.8727,-0.5491,-0.7795,-1882.57,1311.28,-642.21
17090,-3.8729,-0.4856,-0.7494,1726.81,233.28,-1470.28
17100,-3.8732,-0.4089,-0.7111,1851.81,92.77,-1798.34
17110,-3.8734,-0.3069,-0.6628,-335.69,999.15,-423.28
17120,-3.8734,-0.1798,-0.6047,726.81,-828.74,45.53
17130,-3.8734,-0.0493,-0.5431,992.43,-1390.99,108.15
17140,-3.8734,0.0568,-0.4908,1695.56,-1500.12,-1360.47
17150,-3.8733,0.1187,-0.4623,-726.32,1171.94,1405.27
17160,-3.8733,0.1289,-0.4614,-804.44,828.31,-829.04
17170,-3.8733,0.0981,-0.4763,508.06,937.74,-141.54
17180,-3.8733,0.0483,-0.4916,570.56,-968.57,-313.48
17190,-3.8733,0.0103,-0.4835,-1804.44,1078.19,-672.85
17200,-3.8733,0.0084,-0.4344,1320.56,-1890.62,-766.60
17210,-3.8733,0.0331,-0.3597,1086.18,390.62,-1203.98
17220,-3.8733,0.0609,-0.2903,242.43,1953.19,1796.14
17230,-3.8733,0.0830,-0.2491,-195.07,-1156.19,155.64
17240,-3.8734,0.1007,-0.2429,-1366.94,109.50,1296.39
17250,-3.8735,0.1187,-0.2559,898.68,906.43,-1625.49
17260,-3.8735,0.1346,-0.2560,-804.44,-749.82,858.83
17270,-3.8735,0.1465,-0.2264,1242.43,-765.38,561.95
17280,-3.8735,0.1647,-0.1732,-1241.94,-984.13,577.64
17290,-3.8735,0.2058,-0.1110,1086.18,1828.43,905.88
17300,-3.8735,0.2799,-0.0555,-1648.19,1797.24,-828.37
17310,-3.8733,0.3796,-0.0219,-163.82,891.11,515.50
17320,-3.8732,0.4854,-0.0187,601.81,1203.86,-437.56
17330,-3.8729,0.5730,-0.0405,-1866.94,1610.29,1687.44
17340,-3.8728,0.6223,-0.0605,1351.81,-1186.40,1406.13
17350,-3.8727,0.6487,-0.0415,-335.69,251.16,15.50
17360,-3.8726,0.6935,0.0208,-960.69,-1311.28,484.25
17370,-3.8723,0.7791,0.0823,773.68,-1342.41,187.50
17380,-3.8721,0.8948,0.0941,-273.19,-1467.29,-1953.00
17390,-3.8717,0.9995,0.0551,-1460.69,48.58,703.31
17400,-3.8715,1.0491,0.0057,-54.44,-951.23,-1312.44
17410,-3.8712,1.0243,-0.0295,-1710.69,736.39,1984.38
17420,-3.8711,0.9432,-0.0581,-882.57,220.70,-1390.69
17430,-3.8710,0.8523,-0.0973,742.43,564.33,-1703.25
17440,-3.8708,0.7838,-0.1545,1101.81,-451.48,-890.87
17450,-3.8705,0.7286,-0.2131,336.18,220.28,77.82
17460,-3.8701,0.6477,-0.2549,1273.68,720.15,1312.07
17470,-3.8698,0.5150,-0.2802,-1085.69,-623.78,-1594.30
17480,-3.8695,0.3380,-0.3063,1929.93,141.60,-63.05
17490,-3.8693,0.1326,-0.3511,-726.32,797.49,-1641.24
17500,-3.8691,-0.1034,-0.4065,976.81,-937.26,-0.73
17510,-3.8689,-0.3834,-0.4583,-1226.32,-15.87,-985.23
17520,-3.8685,-0.6960,-0.5220,-1070.07,1358.58,1983.46
17530,-3.8680,-1.0103,-0.6393,-1085.69,1201.72,-1813.54
17540,-3.8674,-1.3240,-0.8237,-1304.44,-1814.51,686.22
17550,-3.8669,-1.6416,-1.0211,-1460.69,-1424.50,717.10
17560,-3.8667,-1.9208,-1.1666,1883.06,1309.27,-986.39
17570,-3.8666,-2.0927,-1.2402,-1851.32,-1316.28,1888.31
17580,-3.8667,-2.1300,-1.2402,148.68,1261.54,1341.31
17590,-3.8671,-2.0587,-1.1592,-632.57,1261.41,-689.94
17600,-3.8674,-1.9221,-1.0060,492.43,-363.40,1763.31
17610,-3.8679,-1.7527,-0.8253,1976.81,-753.78,1576.11
17620,-3.8685,-1.5642,-0.6732,-335.69,-1628.48,-751.65
17630,-3.8690,-1.3684,-0.5818,-210.69,1840.64,451.78
17640,-3.8695,-1.1941,-0.5596,851.81,1544.19,1045.72
17650,-3.8698,-1.0907,-0.5896,-835.69,388.24,1061.40
17660,-3.8698,-1.0880,-0.6398,398.68,544.74,-1813.66
17670,-3.8695,-1.1343,-0.7053,742.43,-1877.14,-1876.28
17680,-3.8691,-1.0907,-0.8232,-1179.44,1732.12,1873.60
17690,-3.8688,-0.8630,-0.9957,398.68,-1361.51,-517.27
17700,-3.8683,-0.4976,-1.1414,1539.31,560.79,60.55
17710,-3.8680,-0.0758,-1.1757,320.56,1920.90,1653.99
17720,-3.8679,0.3755,-1.0718,-1695.07,1531.07,1872.68
17730,-3.8680,0.8344,-0.8584,70.56,-1186.77,-314.64
17740,-3.8682,1.2263,-0.6368,-1195.07,-1873.41,-1267.33
17750,-3.8683,1.4602,-0.5055,976.81,-1513.24,-251.28
17760,-3.8683,1.5229,-0.4658,-1085.69,-700.32,-516.66
17770,-3.8682,1.4928,-0.4762,-1054.44,377.93,155.33
17780,-3.8682,1.4418,-0.5082,-913.82,-950.26,1467.77
17790,-3.8682,1.3811,-0.5409,554.93,-1044.07,1592.71
17800,-3.8683,1.3196,-0.5564,789.31,-1231.69,1514.53
17810,-3.8687,1.2828,-0.5408,914.31,783.81,-141.72
17820,-3.8690,1.2567,-0.5070,211.18,-1216.25,1077.03
17830,-3.8696,1.2080,-0.4785,867.43,-888.18,1295.84
17840,-3.8705,1.1523,-0.4404,-1366.94,-1247.68,-1250.98
17850,-3.8715,1.1064,-0.3743,-491.94,-372.80,-1625.92
17860,-3.8726,1.0500,-0.3030,1633.06,95.89,-0.73
17870,-3.8735,0.9814,-0.2623,-1585.69,1220.76,-1703.74
17880,-3.8745,0.9103,-0.2577,1633.06,-1576.23,-1109.92
17890,-3.8440,0.8289,-0.2633,523.68,-982.60,624.45
17900,-3.8446,0.7273,-0.2600,-1898.19,-1701.54,1702.58
17910,-3.8450,0.6085,-0.2496,1101.81,-1279.85,546.33
17920,-3.8453,0.4824,-0.2455,1898.68,48.03,1280.76
17930,-3.8457,0.3566,-0.2672,1758.06,579.04,1296.39
17940,-3.8461,0.2361,-0.3400,1648.68,1797.55,1608.83
17950,-3.8463,0.1254,-0.4714,-1773.19,484.80,1421.20
17960,-3.8464,0.0210,-0.6398,54.93,-343.51,-1344.73
17970,-3.8463,-0.0955,-0.8158,-1304.44,-1890.62,1795.59
17980,-3.8461,-0.2458,-0.9731,-210.69,-406.49,-1767.27
17990,-3.8457,-0.4374,-1.1012,539.31,-547.36,451.17
18000,-3.8455,-0.6481,-1.2186,23.68,-938.35,294.68
18010,-3.8453,-0.8352,-1.3281,1054.93,29.97,-1830.51
18020,-3.8451,-0.9755,-1.4028,1101.81,-1986.02,763.00
18030,-3.8448,-1.0920,-1.4363,-851.32,451.17,481.63
18040,-3.8447,-1.2124,-1.4398,226.81,169.74,-487.18
18050,-3.8446,-1.3212,-1.4237,820.56,-283.63,-471.62
18060,-3.8445,-1.3995,-1.3989,-1101.32,1778.63,825.32
18070,-3.8445,-1.4570,-1.3622,867.43,950.38,-1877.75
18080,-3.8444,-1.4963,-1.2925,1508.06,1653.38,1528.56
18090,-3.8442,-1.5024,-1.1798,476.81,-1424.80,-1346.31
18100,-3.8441,-1.4684,-1.0542,-304.44,997.01,-658.57
18110,-3.8440,-1.3999,-0.9518,54.93,1075.26,1904.17
18120,-3.8440,-1.3090,-0.8789,820.56,-1815.25,-533.14
18130,-3.8439,-1.2109,-0.8335,461.18,-486.94,-470.52
18140,-3.8748,-1.1174,-0.8149,1008.06,1325.74,998.35
18150,-3.8744,-1.0345,-0.8186,976.81,-299.07,-861.02
18160,-3.8739,-0.9644,-0.8326,-413.82,-767.70,-798.52
18170,-3.8734,-0.9183,-0.8320,570.56,1435.61,-251.65
18180,-3.8728,-0.9059,-0.8060,-1538.82,1513.79,-1939.15
18190,-3.8721,-0.8907,-0.7751,54.93,841.98,498.41
18200,-3.8713,-0.8359,-0.7804,1992.43,795.10,748.47
18210,-3.8706,-0.7809,-0.8513,1008.06,123.35,60.97
18220,-3.8700,-0.8075,-0.9683,54.93,-954.65,-1564.21
18230,-3.8694,-0.9423,-1.0792,648.68,76.54,794.98
18240,-3.8691,-1.1302,-1.1322,-601.32,1873.11,-470.89
18250,-3.8689,-1.2745,-1.1179,-663.82,-908.51,622.74
18260,-3.8688,-1.2863,-1.0712,867.43,919.37,75.93
18270,-3.8687,-1.1621,-1.0316,-632.57,-1096.31,685.36
18280,-3.8684,-0.9844,-1.0330,-741.94,-33.57,841.67
18290,-3.8682,-0.8163,-1.0902,-1991.94,-205.08,-236.45
18300,-3.8678,-0.6498,-1.2020,-476.32,467.10,-1392.76
18310,-3.8674,-0.4784,-1.3413,836.18,-1845.03,-1143.01
18320,-3.8668,-0.3304,-1.4379,-1226.32,327.15,1216.13
18330,-3.8662,-0.2068,-1.4281,1711.18,-31.92,-284.12
18340,-3.8656,-0.0824,-1.3115,1539.31,1218.32,715.94
18350,-3.8655,0.0560,-1.1350,1461.18,140.44,1216.19
18360,-3.8657,0.1998,-0.9520,-820.07,-1281.19,-1221.01
18370,-3.8661,0.3219,-0.8049,1586.18,-1859.01,-1298.77
18380,-3.8665,0.4115,-0.7189,1211.18,969.36,154.66
18390,-3.8669,0.5167,-0.7197,679.93,-14.83,857.91
18400,-3.8673,0.6644,-0.8011,-1851.32,-124.02,623.54
18410,-3.8676,0.7911,-0.8644,1054.93,1454.41,-1439.09
18420,-3.8677,0.8290,-0.8197,1273.68,1360.90,-564.21
18430,-3.8678,0.7594,-0.7043,-1882.57,-920.29,-1564.15
18440,-3.8680,0.6158,-0.6154,1211.18,1845.21,-142.03
18450,-3.8682,0.4589,-0.5901,-1163.82,1235.53,795.65
18460,-3.8685,0.3259,-0.5990,-1257.57,469.60,-641.78
18470,-3.8689,0.2290,-0.6062,1726.81,-671.26,-876.22
18480,-3.8693,0.1879,-0.6000,1320.56,-1593.32,-969.97
18490,-3.8695,0.2219,-0.5883,54.93,-796.51,1686.28
18500,-3.8698,0.3186,-0.5791,414.31,703.55,-1423.03
18510,-3.8700,0.4407,-0.5720,789.31,1875.61,-735.53
18520,-3.8702,0.5527,-0.5573,414.31,-1217.90,1389.47
18530,-3.8707,0.6315,-0.5266,-1241.94,672.91,-688.60
18540,-3.8712,0.6675,-0.4786,836.18,594.97,1748.96
18550,-3.8718,0.6627,-0.4146,1445.56,-1264.34,-547.85
18560,-3.8723,0.6226,-0.3438,836.18,-1061.22,-1203.98
18570,-3.8727,0.5548,-0.2854,-304.44,1.16,296.20
18580,-3.8732,0.4817,-0.2544,-976.32,-530.21,-1828.74
18590,-3.8737,0.4216,-0.2466,1664.31,-561.58,-625.55
18600,-3.8740,0.3704,-0.2422,1976.81,438.29,796.39
18610,-3.8745,0.3188,-0.2242,-585.69,1000.67,-703.61
18620,-3.8749,0.2661,-0.1880,820.56,-702.51,-500.49
18630,-3.8439,0.2183,-0.1364,-1929.44,-62.01,1843.32
18640,-3.8441,0.1857,-0.0804,-54.44,-1452.76,-1125.31
18650,-3.8442,0.1731,-0.0331,-226.32,1703.43,-1515.81
18660,-3.8444,0.1705,-0.0037,-1835.69,-234.07,-203.25
18670,-3.8444,0.1606,-0.0013,1836.18,-468.44,-1687.56
18680,-3.8444,0.1350,-0.0270,570.56,-171.57,-1875.06
18690,-3.8444,0.0861,-0.0682,1289.31,547.12,-546.94
18700,-3.8442,0.0059,-0.1124,-976.32,-734.25,1468.57
18710,-3.8442,-0.0939,-0.1531,758.06,1609.38,-1453.37
18720,-3.8442,-0.1880,-0.1854,-7.57,421.63,1609.07
18730,-3.8444,-0.2632,-0.2053,-54.44,280.82,-890.99
18740,-3.8444,-0.3199,-0.2130,-1679.44,1733.83,437.07
18750,-3.8445,-0.3578,-0.2205,-945.07,749.33,-750.43
18760,-3.8444,-0.3809,-0.2476,-1788.82,-203.86,890.14
18770,-3.8442,-0.3997,-0.3051,-741.94,327.33,1374.51
18780,-3.8441,-0.4163,-0.3970,851.81,967.96,-281.86
18790,-3.8750,-0.4288,-0.5177,-1273.19,1202.27,264.83
18800,-3.8746,-0.4448,-0.6411,1117.43,1749.15,1186.46
18810,-3.8741,-0.4786,-0.7397,-929.44,1952.21,-1610.66
18820,-3.8735,-0.5377,-0.8020,-1257.57,1327.15,701.66
18830,-3.8730,-0.6088,-0.8260,-820.07,1358.28,607.79
18840,-3.8727,-0.6738,-0.8239,-1913.82,-1719.97,107.73
18850,-3.8726,-0.7343,-0.8228,1758.06,-1438.84,-704.77
18860,-3.8723,-0.8003,-0.8440,-1976.32,-1298.34,357.73
18870,-3.8722,-0.8676,-0.8806,1570.56,-17.21,1920.17
18880,-3.8719,-0.9235,-0.9182,961.18,-704.83,1513.85
18890,-3.8717,-0.9735,-0.9624,1804.93,-1517.46,-1798.71
18900,-3.8715,-1.0399,-1.0245,-601.32,826.17,904.36
18910,-3.8713,-1.1443,-1.1040,-1101.32,872.92,29.24
18920,-3.8713,-1.2925,-1.1832,1539.31,-1299.13,154.05
18930,-3.8715,-1.4504,-1.2295,-1429.44,559.94,-1111.69
18940,-3.8715,-1.5509,-1.2211,-1648.19,-1362.24,-861.82
18950,-3.8713,-1.5421,-1.1749,1492.43,-284.30,-1127.44
18960,-3.8711,-1.4364,-1.1483,-1382.57,1621.95,-1924.19
18970,-3.8707,-1.2911,-1.1975,148.68,1028.44,-1971.01
18980,-3.8702,-1.1445,-1.3328,-1257.57,-1268.19,-1924.26
18990,-3.8698,-1.0083,-1.5134,1508.06,1419.62,1888.00
19000,-3.8694,-0.8840,-1.6479,-1054.44,-1705.14,-924.87
19010,-3.8690,-0.7511,-1.6472,-1148.19,1076.35,1981.14
19020,-3.8688,-0.5891,-1.5156,-132.57,1170.35,-643.86
19030,-3.8685,-0.4120,-1.3503,601.81,-1985.53,-831.12
19040,-3.8683,-0.2556,-1.2539,-726.32,-828.98,1262.94
19050,-3.8682,-0.1316,-1.2615,-710.69,-484.92,-1455.63
19060,-3.8679,-0.0243,-1.3226,-835.69,-1453.43,278.75
19070,-3.8678,0.0781,-1.3510,898.68,-1281.31,-1330.75
19080,-3.8676,0.1842,-1.3038,-1991.94,-921.75,278.56
19090,-3.8676,0.2906,-1.2032,-413.82,1109.68,-690.06
19100,-3.8676,0.3799,-1.1042,1211.18,1984.92,-1049.26
19110,-3.8677,0.4436,-1.0562,633.06,-1343.02,-377.20
19120,-3.8678,0.4917,-1.0680,789.31,813.35,-720.83
19130,-3.8678,0.5442,-1.1110,-1054.44,-702.21,122.86
19140,-3.8679,0.6010,-1.1467,1664.31,1797.91,-1033.45
19150,-3.8679,0.6367,-1.1584,929.93,1219.91,1903.99
19160,-3.8680,0.6481,-1.1509,1508.06,-280.03,-1377.32
19170,-3.8682,0.6539,-1.1195,-1038.82,688.72,591.49
19180,-3.8685,0.6631,-1.0605,-288.82,704.35,-705.32
19190,-3.8689,0.6776,-0.9801,883.06,251.28,-1048.95
19200,-3.8693,0.6979,-0.8840,-1257.57,-1451.84,1388.67
19210,-3.8696,0.7156,-0.7832,1336.18,-1154.91,435.73
19220,-3.8700,0.7201,-0.6971,-398.19,-248.66,1185.91
19230,-3.8704,0.7131,-0.6370,179.93,-1232.97,-517.03
19240,-3.8706,0.7040,-0.5883,-710.69,-1529.91,-1563.78
19250,-3.8708,0.6957,-0.5302,-1882.57,704.47,1592.59
19260,-3.8711,0.6825,-0.4619,1054.93,141.97,670.84
19270,-3.8715,0.6531,-0.3942,-632.57,876.28,-454.04
19280,-3.8717,0.6019,-0.3304,-398.19,1548.10,-1625.79
19290,-3.8719,0.5468,-0.2662,1054.93,1704.28,1546.20
19300,-3.8722,0.5140,-0.1982,1992.43,1922.91,1858.83
19310,-3.8724,0.5087,-0.1304,1804.93,-1374.02,-469.18
19320,-3.8726,0.5205,-0.0665,1117.43,-686.52,1827.82
19330,-3.8727,0.5464,-0.0109,-1366.94,-514.65,859.19
19340,-3.8728,0.5780,0.0231,1945.56,-1389.59,1656.19
19350,-3.8728,0.5961,0.0186,1992.43,-1045.78,593.75
19360,-3.8728,0.5865,-0.0183,304.93,-1623.84,921.88
19370,-3.8728,0.5496,-0.0581,-913.82,1657.35,1109.31
19380,-3.8729,0.4929,-0.0792,-1648.19,563.54,-390.75
19390,-3.8729,0.4280,-0.0776,-898.19,1860.29,327.94
19400,-3.8730,0.3660,-0.0631,-1210.69,-1936.71,281.07
19410,-3.8733,0.3131,-0.0515,-1148.19,-77.45,-375.18
19420,-3.8734,0.2662,-0.0487,86.18,1406.86,1640.50
19430,-3.8737,0.2181,-0.0477,-1913.82,1766.11,-1578.25
19440,-3.8739,0.1689,-0.0400,-70.07,1890.99,-218.87
19450,-3.8740,0.1282,-0.0194,1633.06,-1124.69,-843.87
19460,-3.8740,0.0972,0.0088,414.31,1515.87,968.69
19470,-3.8740,0.0643,0.0240,445.56,1125.18,1156.25
19480,-3.8740,0.0265,0.0118,242.43,-921.75,-718.75
19490,-3.8739,-0.0052,-0.0245,-601.32,1515.62,1671.88
19500,-3.8739,-0.0272,-0.0656,-663.82,874.94,-1625.06
19510,-3.8739,-0.0509,-0.0908,523.68,-375.06,1312.32
19520,-3.8740,-0.0862,-0.0963,1492.43,390.50,-1078.31
19530,-3.8741,-0.1245,-0.0938,976.81,-312.68,-968.99
19540,-3.8743,-0.1494,-0.0989,70.56,15.38,-1797.06
19550,-3.8744,-0.1561,-0.1241,883.06,-640.93,-1765.87
19560,-3.8744,-0.1505,-0.1736,23.68,124.69,577.88
19570,-3.8744,-0.1455,-0.2373,742.43,1796.57,1390.26
19580,-3.8744,-0.1600,-0.2931,1383.06,1640.32,-422.36
19590,-3.8743,-0.2042,-0.3280,-476.32,-1500.37,1452.51
19600,-3.8743,-0.2692,-0.3490,1867.43,-1969.18,1843.08
19610,-3.8743,-0.3401,-0.3713,1554.93,-656.80,1311.77
19620,-3.8743,-0.4104,-0.4121,476.81,483.70,1796.14
19630,-3.8743,-0.4773,-0.4857,-523.19,-735.23,-63.35
19640,-3.8741,-0.5383,-0.5924,-1085.69,1842.77,-1188.48
19650,-3.8740,-0.5990,-0.7133,-898.19,186.40,1576.97
19660,-3.8739,-0.6677,-0.8152,-663.82,717.53,1951.72
19670,-3.8737,-0.7338,-0.8804,-1460.69,-329.47,-79.77
19680,-3.8732,-0.7850,-0.9338,-1913.82,-673.34,-939.27
19690,-3.8727,-0.8334,-1.0056,-476.32,482.79,-783.08
19700,-3.8721,-0.8851,-1.0957,1336.18,-704.77,232.36
19710,-3.8716,-0.9408,-1.1848,-1288.82,-236.15,-49.07
19720,-3.8710,-1.0156,-1.2412,-413.82,357.48,-361.69
19730,-3.8705,-1.1099,-1.2365,-1991.94,1138.61,1888.18
19740,-3.8704,-1.2014,-1.1766,1945.56,1747.80,-18.07
19750,-3.8704,-1.2601,-1.0966,-1773.19,1403.87,-1252.32
19760,-3.8705,-1.2565,-1.0210,-1288.82,-346.25,825.93
19770,-3.8707,-1.1873,-0.9524,-820.07,1325.62,1904.24
19780,-3.8708,-1.0836,-0.8989,39.31,-1892.94,1794.98
19790,-3.8708,-0.9814,-0.8873,1304.93,950.99,-1533.02
19800,-3.8707,-0.9014,-0.9381,-1616.94,-1564.45,-845.52
19810,-3.8705,-0.8540,-1.0341,633.06,-64.27,-1751.89
19820,-3.8702,-0.8357,-1.1207,-1304.44,-345.46,-361.45
19830,-3.8699,-0.8228,-1.1490,1039.31,560.85,-174.07
19840,-3.8694,-0.7821,-1.1257,-1304.44,935.85,-1705.38
19850,-3.8689,-0.7007,-1.1028,-101.32,-79.71,841.49
19860,-3.8685,-0.5951,-1.1149,-1679.44,-1142.03,982.18
19870,-3.8683,-0.4904,-1.1484,-163.82,1311.28,1497.80
19880,-3.8682,-0.4083,-1.1650,1242.43,1014.65,-1955.38
19890,-3.8682,-0.3566,-1.1429,-257.57,-1110.23,-1189.82
19900,-3.8682,-0.3175,-1.0955,-1632.57,1718.02,1857.12
19910,-3.8682,-0.2594,-1.0529,-632.57,-203.80,1841.55
19920,-3.8680,-0.1411,-1.0471,-1195.07,1249.45,247.92
19930,-3.8679,0.0531,-1.0947,1945.56,1984.07,-1017.70
19940,-3.8676,0.2825,-1.1669,-1195.07,-124.94,-1814.70
19950,-3.8672,0.4840,-1.2043,164.31,-1358.83,-1346.07
19960,-3.8668,0.6217,-1.1669,1961.18,1844.67,1544.49
19970,-3.8666,0.6860,-1.0676,-413.82,-1358.22,1075.81
19980,-3.8665,0.6897,-0.9572,-179.44,-654.97,591.61
19990,-3.8665,0.6639,-0.8743,289.31,1485.72,419.98
20000,-3.8666,0.6377,-0.8195,992.43,95.03,529.54
20010,-3.8669,0.6270,-0.7740,1633.06,-889.40,-32.90
20020,-3.8673,0.6279,-0.7235,258.06,923.10,-1454.65
20030,-3.8678,0.6257,-0.6571,383.06,-608.15,1279.79
20040,-3.8684,0.6167,-0.5681,101.81,-108.15,1670.53
20050,-3.8690,0.6100,-0.4650,-1054.44,-717.59,1826.97
20060,-3.8696,0.6106,-0.3619,-1913.82,485.53,-219.67
20070,-3.8700,0.6149,-0.2683,-1835.69,1673.03,843.02
20080,-3.8704,0.6188,-0.1927,-1288.82,1657.41,202.58
20090,-3.8707,0.6198,-0.1384,-788.82,-670.72,108.95
20100,-3.8711,0.6189,-0.0972,-663.82,-1717.59,437.19
20110,-3.8715,0.6188,-0.0601,-773.19,-436.34,1593.51
20120,-3.8718,0.6207,-0.0250,-788.82,313.66,-1031.37
20130,-3.8722,0.6254,0.0045,-538.82,798.03,-546.94
20140,-3.8726,0.6240,0.0243,54.93,579.35,-1546.88
20150,-3.8729,0.6039,0.0332,-116.94,-889.47,671.88
20160,-3.8734,0.5627,0.0319,1304.93,251.16,-984.31
20170,-3.8738,0.5098,0.0226,39.31,79.22,1796.94
20180,-3.8741,0.4508,0.0057,1258.06,-1108.40,1656.25
20190,-3.8745,0.3829,-0.0237,1711.18,735.23,-250.00
20200,-3.8746,0.3119,-0.0627,1023.68,969.48,515.56
20210,-3.8749,0.2531,-0.0939,-70.07,-30.70,-906.43
20220,-3.8750,0.2114,-0.0959,398.68,-15.14,-1515.87
20230,-3.8439,0.1849,-0.0631,-929.44,-280.88,1421.63
20240,-3.8441,0.1691,-0.0100,-320.07,-77.82,-422.06
20250,-3.8442,0.1533,0.0461,1648.68,-1280.94,-1687.56
20260,-3.8444,0.1365,0.0950,-366.94,1906.49,-328.06
20270,-3.8442,0.1332,0.1205,1476.81,156.49,250.18
20280,-3.8442,0.1406,0.1014,1054.93,-577.88,-265.44
20290,-3.8440,0.1318,0.0439,-1991.94,984.62,-1577.94
20300,-3.8750,0.0967,-0.0182,883.06,1625.24,-1062.44
20310,-3.8748,0.0511,-0.0530,383.06,1672.06,-1296.94
20320,-3.8746,0.0089,-0.0424,-1445.07,1218.81,-156.37
20330,-3.8745,-0.0261,0.0098,1148.68,-1421.88,-1906.37
20340,-3.8745,-0.0533,0.0662,664.31,1265.56,-1703.12
20350,-3.8745,-0.0785,0.0768,1179.93,484.25,-1749.88
20360,-3.8745,-0.1055,0.0261,1961.18,1843.57,-765.50
20370,-3.8744,-0.1345,-0.0579,-1491.94,-640.87,1093.75
20380,-3.8743,-0.1683,-0.1410,-1210.69,609.07,234.25
20390,-3.8741,-0.2063,-0.2074,-1538.82,1968.38,-1922.18
20400,-3.8739,-0.2472,-0.2601,1601.81,1468.32,-1422.30
20410,-3.8735,-0.2980,-0.3157,367.43,-1281.74,30.70
20420,-3.8733,-0.3622,-0.3936,1867.43,-391.24,233.70
20430,-3.8732,-0.4384,-0.4979,1648.68,1639.89,858.58
20440,-3.8732,-0.5349,-0.6122,-101.32,280.33,1358.40
20450,-3.8732,-0.6633,-0.7106,-460.69,1655.15,592.53
20460,-3.8732,-0.8179,-0.7814,-898.19,1061.16,-1204.53
20470,-3.8729,-0.9742,-0.8289,-679.44,-1.65,-1376.59
20480,-3.8726,-1.0962,-0.8643,-695.07,1919.92,-1017.27
20490,-3.8722,-1.1508,-0.8972,-304.44,1388.43,-32.96
20500,-3.8717,-1.1241,-0.9375,711.18,1169.62,826.35
20510,-3.8712,-1.0348,-0.9994,117.43,13.43,1045.04
20520,-3.8706,-0.9187,-1.0861,-445.07,91.67,-1595.70
20530,-3.8699,-0.8035,-1.1733,-1585.69,998.17,-1111.51
20540,-3.8691,-0.7112,-1.2274,1164.31,1826.54,-1267.94
20550,-3.8685,-0.6562,-1.2388,976.81,-1095.15,-1939.94
20560,-3.8680,-0.6471,-1.2191,8.06,1451.84,669.43
20570,-3.8677,-0.6761,-1.1755,1179.93,-32.53,200.68
20580,-3.8676,-0.7086,-1.1204,1461.18,1545.53,-49.19
20590,-3.8674,-0.7061,-1.0839,1304.93,607.97,-877.20
20600,-3.8674,-0.6562,-1.0795,1633.06,1279.85,-1580.26
20610,-3.8674,-0.5728,-1.0861,8.06,1842.47,294.74
20620,-3.8676,-0.4678,-1.0883,-1304.44,998.84,-877.14
20630,-3.8676,-0.3481,-1.0997,133.06,717.83,-752.14
20640,-3.8676,-0.2274,-1.1256,-554.44,-750.73,-174.07
20650,-3.8676,-0.1230,-1.1473,-1101.32,-62.99,-642.88
20660,-3.8676,-0.0410,-1.1489,258.06,1156.01,1138.37
20670,-3.8677,0.0232,-1.1296,-1241.94,953.00,1747.74
20680,-3.8678,0.0704,-1.0956,-1023.19,-593.75,1013.37
20690,-3.8680,0.1035,-1.0454,1023.68,-234.25,-908.45
20700,-3.8682,0.1262,-0.9833,1258.06,-1812.32,669.80
20710,-3.8684,0.1449,-0.9327,164.31,-1859.13,1310.55
20720,-3.8687,0.1689,-0.9058,-1445.07,609.62,623.17
20730,-3.8690,0.1869,-0.8822,1633.06,62.81,-204.90
20740,-3.8691,0.1758,-0.8291,-70.07,-921.57,310.73
20750,-3.8694,0.1360,-0.7367,-1491.94,1875.31,-1861.02
20760,-3.8696,0.1010,-0.6349,1414.31,1703.37,-876.46
20770,-3.8699,0.1031,-0.5632,929.93,-1265.44,1764.34
20780,-3.8701,0.1393,-0.5353,1211.18,-93.57,576.97
20790,-3.8704,0.1802,-0.5365,1836.18,-515.38,-1126.10
20800,-3.8704,0.2042,-0.5435,-929.44,-671.57,1764.53
20810,-3.8702,0.2102,-0.5482,-1851.32,-1562.13,655.15
20820,-3.8701,0.2058,-0.5570,-1085.69,1828.49,1717.65
20830,-3.8700,0.2001,-0.5679,-1648.19,703.49,-891.72
20840,-3.8698,0.2061,-0.5679,1617.43,-687.13,451.97
20850,-3.8696,0.2272,-0.5603,-1616.94,-687.13,1670.72
20860,-3.8695,0.2527,-0.5577,1086.18,281.68,1248.90
20870,-3.8695,0.2731,-0.5481,351.81,609.86,1123.90
20880,-3.8696,0.2870,-0.5083,-1038.82,1844.24,108.28
20890,-3.8700,0.2981,-0.4381,742.43,-1061.95,-1219.79
20900,-3.8704,0.3188,-0.3550,-1835.69,-77.58,-875.92
20910,-3.8707,0.3623,-0.2712,820.56,-1436.89,-547.61
20920,-3.8710,0.4294,-0.2013,-1616.94,1281.92,-1891.17
20930,-3.8711,0.5073,-0.1641,-1023.19,-1764.83,62.07
20940,-3.8712,0.5757,-0.1606,945.56,-999.02,140.26
20950,-3.8715,0.6157,-0.1670,1695.56,-561.40,-437.87
20960,-3.8717,0.6195,-0.1628,-1179.44,-1373.84,-265.99
20970,-3.8719,0.5942,-0.1499,-695.07,-842.59,109.01
20980,-3.8724,0.5525,-0.1364,70.56,813.66,1484.07
20990,-3.8729,0.5054,-0.1267,-1273.19,-1452.09,1749.69
21000,-3.8734,0.4619,-0.1212,695.56,-217.77,-1390.93
21010,-3.8738,0.4224,-0.1149,-866.94,485.23,515.38
21020,-3.8743,0.3835,-0.1021,-1929.44,1297.67,-609.62
21030,-3.8746,0.3442,-0.0833,1101.81,-1061.77,-765.87
21040,-3.8749,0.3031,-0.0612,70.56,1344.42,343.57
21050,-3.8440,0.2626,-0.0410,-1195.07,172.42,-484.50
21060,-3.8441,0.2273,-0.0294,1617.43,-1249.51,1921.75
21070,-3.8442,0.1993,-0.0297,1101.81,234.80,-1000.06
21080,-3.8442,0.1775,-0.0465,1523.68,203.49,1265.56
21090,-3.8442,0.1593,-0.0815,-1273.19,-1952.82,1218.63
21100,-3.8442,0.1395,-0.1329,398.68,1562.81,-375.18
21110,-3.8441,0.1062,-0.2004,1867.43,-1015.38,-1390.93
21120,-3.8441,0.0596,-0.2699,1601.81,-1656.07,-219.18
21130,-3.8441,0.0093,-0.3096,-366.94,1453.19,-1469.30
21140,-3.8442,-0.0411,-0.2996,1195.56,375.00,-1172.49
21150,-3.8444,-0.0918,-0.2522,-1257.57,1671.75,1140.01
21160,-3.8446,-0.1495,-0.2002,258.06,-265.81,-391.17
21170,-3.8446,-0.2255,-0.1824,867.43,-1609.68,765.20
21180,-3.8446,-0.3066,-0.2234,-851.32,671.39,-1640.99
21190,-3.8444,-0.3616,-0.3209,758.06,-578.74,640.14
21200,-3.8441,-0.3905,-0.4554,1726.81,-1063.23,1311.83
21210,-3.8439,-0.4275,-0.5968,-1976.32,1717.96,-954.04
21220,-3.8746,-0.4780,-0.6993,1289.31,-375.85,670.65
21230,-3.8741,-0.5258,-0.7438,-1179.44,-1500.98,-860.78
21240,-3.8735,-0.5847,-0.7792,711.18,811.46,1982.91
21250,-3.8730,-0.6725,-0.8801,1164.31,280.09,748.47
21260,-3.8728,-0.7854,-1.0592,1929.93,-641.97,-548.65
21270,-3.8724,-0.9191,-1.2471,-523.19,435.91,-1220.83
21280,-3.8718,-1.0464,-1.3589,-1632.57,388.79,1591.31
21290,-3.8710,-1.1169,-1.3606,-1929.44,-1923.95,919.19
21300,-3.8701,-1.1237,-1.2896,1039.31,1857.18,466.06
21310,-3.8695,-1.0952,-1.2242,179.93,-1049.07,1169.31
21320,-3.8691,-1.0405,-1.2191,-179.44,-689.70,1997.56
21330,-3.8689,-0.9598,-1.2412,-1179.44,-33.33,1513.18
21340,-3.8687,-0.8632,-1.1997,1148.68,1138.73,247.56
21350,-3.8684,-0.7632,-1.0853,1523.68,-1548.58,1747.62
21360,-3.8680,-0.6641,-1.0018,-1679.44,1092.22,-939.64
21370,-3.8676,-0.5668,-1.0157,-991.94,-220.09,-1361.39
21380,-3.8671,-0.5060,-1.0667,-538.82,1998.84,-1798.89
21390,-3.8667,-0.5032,-1.0592,-757.57,-516.66,-205.26
21400,-3.8663,-0.5040,-0.9950,-398.19,436.46,-1330.20
21410,-3.8661,-0.4420,-0.9607,-507.57,655.21,-611.33
21420,-3.8658,-0.3019,-0.9854,-570.07,1045.96,1404.36
21430,-3.8657,-0.1166,-1.0033,1367.43,1890.01,513.67
21440,-3.8657,0.0656,-0.9634,1086.18,-406.49,1935.49
21450,-3.8657,0.2235,-0.8864,398.68,687.62,-1720.64
21460,-3.8657,0.3588,-0.8274,617.43,-1452.70,1591.98
21470,-3.8658,0.4681,-0.8074,1929.93,-1905.58,-251.65
21480,-3.8658,0.5465,-0.7922,-70.07,657.10,29.66
21490,-3.8661,0.5978,-0.7518,1961.18,-1405.21,-1767.21
21500,-3.8663,0.6370,-0.7084,523.68,-233.22,-1392.15
21510,-3.8666,0.6813,-0.6953,1539.31,1329.35,404.85
21520,-3.8669,0.7277,-0.7039,-788.82,-998.72,76.72
21530,-3.8674,0.7572,-0.6976,1148.68,1907.65,-938.90
21540,-3.8678,0.7655,-0.6514,929.93,-1295.41,1545.47
21550,-3.8683,0.7607,-0.5701,1992.43,626.46,-1157.53
21560,-3.8688,0.7480,-0.4833,1383.06,-967.29,-1704.28
21570,-3.8693,0.7330,-0.4128,-241.94,-1857.97,389.65
21580,-3.8699,0.7227,-0.3534,1836.18,-842.35,-1782.10
21590,-3.8704,0.7122,-0.2974,508.06,-1232.97,671.14
21600,-3.8708,0.6959,-0.2561,-835.69,1938.84,77.51
21610,-3.8715,0.6799,-0.2339,1086.18,-779.91,-797.42
21620,-3.8719,0.6792,-0.2164,-960.69,-1936.22,1421.39
21630,-3.8724,0.6870,-0.1934,-1054.44,298.16,1249.57
21640,-3.8729,0.6715,-0.1597,-54.44,-748.72,-297.30
21650,-3.8733,0.6289,-0.1152,1961.18,-436.22,-1703.49
21660,-3.8738,0.5798,-0.0619,508.06,1251.22,-1484.62
21670,-3.8744,0.5352,0.0031,-1773.19,79.22,-515.75
21680,-3.8750,0.4923,0.0725,508.06,391.66,-1140.62
21690,-3.8442,0.4452,0.1260,-976.32,1282.17,15.75
21700,-3.8447,0.3900,0.1434,992.43,125.85,1718.99
21710,-3.8450,0.3269,0.1206,1929.93,-1639.89,1359.62
21720,-3.8451,0.2578,0.0739,1851.81,-561.89,-1374.82
21730,-3.8451,0.1796,0.0243,1008.06,1453.61,-218.63
21740,-3.8450,0.0938,-0.0189,-1007.57,-890.32,-1484.38
21750,-3.8448,0.0166,-0.0535,8.06,1578.31,484.31
21760,-3.8448,-0.0354,-0.0797,-1866.94,1156.25,703.00
21770,-3.8450,-0.0580,-0.1034,-523.19,1812.38,-172.06
21780,-3.8450,-0.0593,-0.1273,586.18,-1218.87,-937.74
21790,-3.8450,-0.0626,-0.1469,414.31,-281.37,-906.56
21800,-3.8448,-0.0989,-0.1609,-7.57,1218.57,30.94
21810,-3.8448,-0.1823,-0.1774,-648.19,-578.37,1921.51
21820,-3.8448,-0.2971,-0.2053,679.93,1312.13,-47.24
21830,-3.8447,-0.4132,-0.2463,1976.81,1733.76,1030.82
21840,-3.8447,-0.5081,-0.2913,-882.57,483.52,-1891.11
21850,-3.8446,-0.5780,-0.3282,-1023.19,-1266.66,1155.64
21860,-3.8445,-0.6373,-0.3650,-1976.32,1998.84,1499.33
21870,-3.8444,-0.6997,-0.4210,-1570.07,1295.59,671.14
21880,-3.8444,-0.7524,-0.4913,-1554.44,-1876.40,-1141.48
21890,-3.8442,-0.7744,-0.5570,-304.44,1123.47,-391.60
21900,-3.8439,-0.7604,-0.5955,883.06,717.22,-1157.35
21910,-3.8745,-0.6967,-0.6001,-1320.07,-204.65,-923.10
21920,-3.8737,-0.5597,-0.6266,-1163.82,-798.28,-610.60
21930,-3.8727,-0.3715,-0.7714,367.43,-188.60,-1688.78
21940,-3.8718,-0.2185,-1.0709,461.18,1280.52,-423.40
21950,-3.8708,-0.1609,-1.4054,39.31,-1062.93,200.99
21960,-3.8701,-0.1871,-1.5361,-585.69,124.63,91.00
21970,-3.8698,-0.2531,-1.3633,54.93,-609.74,1871.95
21980,-3.8695,-0.3062,-1.0376,-382.57,1515.08,606.69
21990,-3.8695,-0.3364,-0.7400,820.56,-797.49,-783.33
22000,-3.8694,-0.3698,-0.6079,945.56,1296.20,732.91
22010,-3.8693,-0.3948,-0.7253,679.93,-1797.61,-1641.85
22020,-3.8689,-0.4048,-0.9792,1476.81,-828.92,373.54
22030,-3.8685,-0.4243,-1.1655,195.56,-1328.92,-95.70
22040,-3.8678,-0.4301,-1.1924,1695.56,-1172.73,1325.81
22050,-3.8672,-0.3767,-1.0858,961.18,-610.23,-1986.76
22060,-3.8667,-0.2618,-0.9354,-210.69,1030.46,404.11
22070,-3.8666,-0.1165,-0.8245,-1507.57,280.70,-1017.46
22080,-3.8665,0.0177,-0.7787,1101.81,-1515.87,1467.10
22090,-3.8663,0.1162,-0.7765,-1726.32,328.12,92.22
22100,-3.8663,0.1853,-0.7966,-1116.94,609.56,-345.28
22110,-3.8662,0.2323,-0.8342,-273.19,-1968.44,-48.46
22120,-3.8661,0.2567,-0.8646,1742.43,1219.18,-1.65
22130,-3.8660,0.2672,-0.8549,867.43,1328.61,-1954.83
22140,-3.8661,0.2710,-0.8093,-1788.82,-1421.39,-189.21
22150,-3.8663,0.2646,-0.7606,-1304.44,406.74,-1.59
22160,-3.8667,0.2445,-0.7313,1883.06,-1358.89,-392.15
22170,-3.8671,0.2211,-0.7172,-695.07,-1608.95,514.16
22180,-3.8676,0.2201,-0.7036,304.93,203.55,232.97
22190,-3.8682,0.2494,-0.6788,179.93,1937.93,-423.28
22200,-3.8687,0.2937,-0.6334,-70.07,1109.80,-1266.97
22210,-3.8691,0.3389,-0.5668,1601.81,-1077.58,1608.09
22220,-3.8696,0.3745,-0.4851,-616.94,-546.26,608.22
22230,-3.8701,0.3920,-0.3973,-54.44,1906.92,717.77
22240,-3.8706,0.3856,-0.3080,-1820.07,1141.36,-1641.42
22250,-3.8710,0.3597,-0.2209,1367.43,578.86,1280.64
22260,-3.8713,0.3330,-0.1465,-1945.07,-280.58,1452.64
22270,-3.8717,0.3242,-0.0917,-1366.94,1250.61,-765.93
22280,-3.8719,0.3351,-0.0450,1508.06,266.24,-625.18
22290,-3.8721,0.3599,0.0143,-1101.32,-1765.01,-1984.50
22300,-3.8722,0.3976,0.0970,-1929.44,1828.80,-1500.00
22310,-3.8722,0.4564,0.1934,-1101.32,422.61,328.31
22320,-3.8723,0.5406,0.2791,-1570.07,750.85,-1655.88
22330,-3.8723,0.6315,0.3307,1211.18,-280.21,344.24
22340,-3.8724,0.7078,0.3374,836.18,-1670.65,516.24
22350,-3.8727,0.7548,0.3170,-1398.19,-811.16,875.61
22360,-3.8730,0.7654,0.3046,617.43,579.59,-686.89
22370,-3.8733,0.7537,0.3130,1976.81,-1014.16,1094.30
22380,-3.8737,0.7484,0.3231,476.81,63.96,-1140.01
22390,-3.8739,0.7648,0.3105,-195.07,1360.78,1953.74
22400,-3.8740,0.7852,0.2693,1898.68,-248.54,281.80
22410,-3.8741,0.7721,0.2078,508.06,-1529.72,-1124.51
22420,-3.8740,0.7026,0.1346,-1163.82,-1404.79,140.99
22430,-3.8740,0.5894,0.0601,1945.56,1235.72,1922.12
22440,-3.8740,0.4636,-0.0056,-554.44,-311.40,-874.94
22450,-3.8740,0.3527,-0.0649,-648.19,-717.90,-421.94
22460,-3.8739,0.2659,-0.1255,1148.68,-311.83,312.32
22470,-3.8739,0.1997,-0.1840,-1960.69,-62.01,-1562.81
22480,-3.8738,0.1456,-0.2307,1570.56,453.49,1593.38
22490,-3.8737,0.0892,-0.2635,-1351.32,-1531.01,1093.26
22500,-3.8735,0.0189,-0.2903,-570.07,-1734.25,61.95
22510,-3.8735,-0.0607,-0.3171,-1570.07,-1156.25,-1813.11
22520,-3.8735,-0.1390,-0.3378,242.43,-578.25,-813.17
22530,-3.8735,-0.2180,-0.3402,-1788.82,780.94,-16.30
22540,-3.8734,-0.3090,-0.3308,101.81,468.32,-141.30
22550,-3.8732,-0.4165,-0.3420,461.18,1671.26,-453.80
22560,-3.8728,-0.5249,-0.3988,-1304.44,233.52,593.08
22570,-3.8726,-0.6094,-0.4850,820.56,967.71,-1938.29
22580,-3.8722,-0.6689,-0.5581,-1991.94,1936.28,811.52
22590,-3.8718,-0.7219,-0.5790,-1616.94,576.78,889.53
22600,-3.8715,-0.7791,-0.5348,-398.19,1904.79,326.97
22610,-3.8712,-0.8414,-0.4581,289.31,-439.03,373.90
22620,-3.8711,-0.9065,-0.3975,304.93,1373.35,249.08
22630,-3.8711,-0.9617,-0.3743,-23.19,1138.79,-1813.29
22640,-3.8710,-0.9924,-0.3881,914.31,107.48,264.89
22650,-3.8710,-0.9932,-0.4235,976.81,-1658.20,1436.71
22660,-3.8710,-0.9667,-0.4526,883.06,1810.55,624.15
22670,-3.8711,-0.9241,-0.4598,273.68,-1923.77,-1719.67
22680,-3.8712,-0.8889,-0.4492,1726.81,1154.42,-141.54
22690,-3.8712,-0.8872,-0.4294,-1773.19,-1486.15,-938.42
22700,-3.8711,-0.9178,-0.4131,-1554.44,1045.10,624.15
22710,-3.8711,-0.9490,-0.4197,-1476.32,-861.21,-1000.85
22720,-3.8711,-0.9489,-0.4493,-1460.69,-1705.02,-16.48
22730,-3.8711,-0.8997,-0.4750,-1445.07,-1501.89,-188.42
22740,-3.8711,-0.8010,-0.4796,851.81,-783.02,-1375.98
22750,-3.8712,-0.6702,-0.4784,1476.81,-1376.59,-938.48
22760,-3.8713,-0.5303,-0.4994,-1773.19,-1220.09,530.27
22770,-3.8717,-0.4084,-0.5558,133.06,92.71,-32.23
22780,-3.8719,-0.3301,-0.6298,-273.19,874.15,-1251.10
22790,-3.8722,-0.3014,-0.6824,1758.06,-594.42,1201.84
