timestamp_ms,ax,ay,az,gx,gy,gz
0,-3.8740,0.7141,0.0377,1179.93,-1233.03,-234.50
10,-3.8744,0.7197,0.1008,-585.69,829.47,-671.81
20,-3.8746,0.6904,0.1454,133.06,907.65,562.68
30,-3.8749,0.6200,0.1722,383.06,-1389.28,31.49
40,-3.8439,0.5287,0.1765,-632.57,-1951.97,1953.43
50,-3.8440,0.4364,0.1512,-320.07,-1405.27,-1265.32
60,-3.8440,0.3491,0.1025,-132.57,-639.83,-1109.13
70,-3.8439,0.2709,0.0522,695.56,1125.67,1890.81
80,-3.8750,0.2058,0.0153,-1320.07,-1312.01,-1874.94
90,-3.8749,0.1505,-0.0161,-1648.19,1953.49,-1515.62
100,-3.8748,0.0957,-0.0491,-726.32,1937.74,-1406.31
110,-3.8746,0.0358,-0.0785,258.06,1718.93,-1328.25
120,-3.8745,-0.0287,-0.1041,586.18,1953.19,-812.68
130,-3.8744,-0.0912,-0.1337,336.18,-1312.56,-156.49
140,-3.8741,-0.1422,-0.1658,336.18,-1093.93,765.32
150,-3.8740,-0.1786,-0.1921,1804.93,-1203.43,-1312.87
160,-3.8738,-0.2048,-0.2128,1148.68,-578.49,1718.32
170,-3.8735,-0.2273,-0.2313,1789.31,780.82,-1969.18
180,-3.8732,-0.2460,-0.2473,-1085.69,-1594.24,202.64
190,-3.8728,-0.2556,-0.2651,523.68,358.89,233.89
200,-3.8724,-0.2493,-0.2902,-710.69,-1922.42,1233.83
210,-3.8721,-0.2273,-0.3240,101.81,-1125.49,-781.86
220,-3.8716,-0.2053,-0.3678,-1085.69,-1453.61,-1500.67
230,-3.8711,-0.2003,-0.4208,1726.81,937.07,-1922.61
240,-3.8706,-0.2142,-0.4764,-1632.57,-1844.18,874.15
250,-3.8702,-0.2393,-0.5183,586.18,-969.18,-1735.35
260,-3.8699,-0.2607,-0.5284,1383.06,1671.39,1530.21
270,-3.8696,-0.2639,-0.5165,-1366.94,374.45,-1266.66
280,-3.8694,-0.2483,-0.5143,-1773.19,1905.70,-1688.54
290,-3.8691,-0.2249,-0.5323,226.81,-1812.99,280.21
300,-3.8690,-0.2085,-0.5525,-773.19,-125.49,436.40
310,-3.8690,-0.2150,-0.5580,1320.56,1296.45,-1860.47
320,-3.8690,-0.2482,-0.5414,492.43,593.32,842.65
330,-3.8691,-0.2810,-0.4984,242.43,-1281.74,1530.15
340,-3.8693,-0.2772,-0.4452,39.31,218.20,-1657.23
350,-3.8693,-0.2250,-0.4086,523.68,-969.30,686.58
360,-3.8693,-0.1390,-0.3975,-788.82,-281.74,796.02
370,-3.8693,-0.0443,-0.3976,-1788.82,1140.32,1389.83
380,-3.8693,0.0463,-0.3885,-1663.82,1124.88,1108.58
390,-3.8693,0.1304,-0.3658,1929.93,-1734.31,108.58
400,-3.8694,0.2061,-0.3373,695.56,1172.12,-1453.86
410,-3.8694,0.2711,-0.3086,-1616.94,828.49,608.70
420,-3.8695,0.3235,-0.2864,-1288.82,500.49,-688.11
430,-3.8695,0.3612,-0.2751,1414.31,-655.64,-781.86
440,-3.8695,0.3887,-0.2725,-1757.57,781.92,-63.05
450,-3.8694,0.4130,-0.2753,1758.06,1125.73,1155.70
460,-3.8694,0.4354,-0.2817,867.43,766.42,-1672.42
470,-3.8694,0.4529,-0.2865,-257.57,-61.71,-1422.49
480,-3.8694,0.4646,-0.2830,1976.81,-671.02,1327.51
490,-3.8695,0.4731,-0.2726,-523.19,-217.90,-1625.61
500,-3.8696,0.4803,-0.2615,570.56,1110.29,-1844.30
510,-3.8698,0.4866,-0.2531,1492.43,-1467.83,1405.70
520,-3.8699,0.4908,-0.2468,-1710.69,-389.71,296.33
530,-3.8701,0.4897,-0.2407,-1163.82,407.17,-1266.11
540,-3.8702,0.4807,-0.2327,-1304.44,1188.42,1077.64
550,-3.8705,0.4639,-0.2205,1539.31,-1780.33,-406.74
560,-3.8706,0.4425,-0.2034,-616.94,-217.90,-1734.86
570,-3.8707,0.4203,-0.1827,648.68,1969.60,1218.32
580,-3.8708,0.3999,-0.1606,1804.93,610.17,593.38
590,-3.8710,0.3798,-0.1371,-804.44,-561.77,327.76
600,-3.8711,0.3602,-0.1116,617.43,-1546.14,484.07
610,-3.8712,0.3450,-0.0870,-1882.57,1719.42,1171.63
620,-3.8713,0.3362,-0.0657,164.31,860.05,-1922.06
630,-3.8715,0.3309,-0.0463,-960.69,-405.64,-968.93
640,-3.8715,0.3196,-0.0250,-1632.57,-1921.26,312.38
650,-3.8716,0.2938,0.0004,914.31,797.49,-1578.19
660,-3.8716,0.2552,0.0247,1617.43,47.42,1734.38
670,-3.8716,0.2059,0.0361,679.93,-843.26,-1546.88
680,-3.8715,0.1483,0.0370,-1632.57,625.37,656.31
690,-3.8715,0.0979,0.0425,-1007.57,734.62,-124.94
700,-3.8713,0.0656,0.0547,539.31,1437.68,-484.31
710,-3.8712,0.0498,0.0529,398.68,-999.88,-999.94
720,-3.8711,0.0470,0.0194,-1616.94,-1234.31,1578.19
730,-3.8711,0.0482,-0.0367,-1976.32,-1515.56,-1046.88
740,-3.8711,0.0405,-0.0920,-1820.07,-703.06,-562.62
750,-3.8711,0.0167,-0.1342,1195.56,218.81,-1172.06
760,-3.8711,-0.0186,-0.1637,-1851.32,-1171.88,655.94
770,-3.8712,-0.0532,-0.1832,1633.06,-937.56,780.88
780,-3.8715,-0.0814,-0.1915,1195.56,562.38,-578.49
790,-3.8716,-0.1023,-0.1908,1586.18,-500.18,1062.07
800,-3.8718,-0.1124,-0.1899,-1085.69,-406.49,-1531.68
810,-3.8721,-0.1115,-0.1896,1617.43,-297.12,-141.05
820,-3.8722,-0.1036,-0.1842,1742.43,-250.24,1155.82
830,-3.8724,-0.0936,-0.1754,-1257.57,437.26,-1844.12
840,-3.8727,-0.0807,-0.1670,23.68,1562.32,-1406.62
850,-3.8729,-0.0627,-0.1609,1679.93,-1359.56,-1265.99
860,-3.8732,-0.0406,-0.1561,-23.19,-578.31,-1031.62
870,-3.8734,-0.0161,-0.1506,-1195.07,31.13,-453.43
880,-3.8735,0.0093,-0.1450,1945.56,734.31,827.82
890,-3.8738,0.0309,-0.1443,1195.56,1437.50,-906.56
900,-3.8739,0.0447,-0.1510,-38.82,1531.25,-1515.93
910,-3.8740,0.0492,-0.1633,1726.81,671.94,-1250.31
920,-3.8741,0.0472,-0.1759,-1695.07,-906.19,-375.37
930,-3.8741,0.0442,-0.1777,-1945.07,1484.44,1687.13
940,-3.8741,0.0455,-0.1622,1664.31,1250.06,1421.51
950,-3.8741,0.0590,-0.1364,1836.18,-765.56,-1031.62
960,-3.8740,0.0908,-0.1155,-445.07,-1453.06,-1640.93
970,-3.8739,0.1420,-0.1105,-366.94,1218.87,-734.62
980,-3.8737,0.2079,-0.1139,-1820.07,1859.62,1359.13
990,-3.8734,0.2797,-0.1047,-1382.57,1422.24,437.26
1000,-3.8732,0.3579,-0.0791,-195.07,-1405.76,468.51
1010,-3.8729,0.4525,-0.0598,1820.56,1875.67,1609.19
1020,-3.8727,0.5612,-0.0641,1929.93,344.60,-218.87
1030,-3.8723,0.6675,-0.0841,-163.82,-202.09,-1843.93
1040,-3.8721,0.7544,-0.0969,1445.56,1235.66,-62.68
1050,-3.8717,0.8147,-0.0933,570.56,-404.79,687.26
1060,-3.8715,0.8472,-0.0851,289.31,64.09,93.57
1070,-3.8713,0.8566,-0.0852,445.56,1111.02,-1484.56
1080,-3.8711,0.8513,-0.1010,1648.68,1095.40,796.69
1090,-3.8710,0.8375,-0.1381,976.81,-920.23,-312.74
1100,-3.8707,0.8184,-0.1912,-788.82,-1670.29,-140.93
1110,-3.8704,0.7919,-0.2440,758.06,-467.16,1233.95
1120,-3.8701,0.7559,-0.2842,1367.43,767.15,-1453.61
1130,-3.8699,0.7170,-0.3148,758.06,-373.54,-1422.49
1140,-3.8696,0.6847,-0.3398,-210.69,-295.53,811.83
1150,-3.8695,0.6653,-0.3533,-351.32,501.28,1436.83
1160,-3.8694,0.6608,-0.3575,1164.31,-1217.47,1218.02
1170,-3.8693,0.6680,-0.3680,586.18,-1764.34,546.14
1180,-3.8693,0.6769,-0.3907,1508.06,891.91,-735.11
1190,-3.8691,0.6769,-0.4221,-1351.32,1985.66,1202.33
1200,-3.8691,0.6627,-0.4569,-1351.32,1970.03,-1766.48
1210,-3.8691,0.6360,-0.4846,836.18,1516.91,-1532.17
1220,-3.8691,0.6041,-0.4961,1414.31,1969.97,-1938.48
1230,-3.8691,0.5721,-0.4919,1336.18,501.16,858.40
1240,-3.8693,0.5382,-0.4839,1242.43,1032.35,-938.48
1250,-3.8693,0.4982,-0.4897,898.68,-1936.46,1452.15
1260,-3.8693,0.4493,-0.5126,-226.32,1313.42,530.27
1270,-3.8693,0.3934,-0.5383,1523.68,-1608.52,170.84
1280,-3.8694,0.3331,-0.5494,-1632.57,-905.52,-110.47
1290,-3.8694,0.2715,-0.5422,-1351.32,1672.49,-829.22
1300,-3.8694,0.2141,-0.5273,-1241.94,-1405.76,1905.15
1310,-3.8694,0.1664,-0.5143,-585.69,500.37,186.46
1320,-3.8695,0.1281,-0.5034,1304.93,-1827.82,-1516.66
1330,-3.8695,0.0945,-0.4937,398.68,-437.26,905.21
1340,-3.8696,0.0623,-0.4872,101.81,812.68,-1188.48
1350,-3.8698,0.0312,-0.4783,-23.19,1640.69,-313.48
1360,-3.8699,0.0066,-0.4586,8.06,-1218.69,-79.10
1370,-3.8699,-0.0054,-0.4347,851.81,1296.88,280.33
1380,-3.8700,-0.0088,-0.4196,-679.44,374.94,936.65
1390,-3.8701,-0.0161,-0.4127,-1116.94,-1687.56,1717.90
1400,-3.8702,-0.0374,-0.4014,1945.56,-812.56,-1469.60
1410,-3.8704,-0.0728,-0.3824,-773.19,640.50,-782.04
1420,-3.8705,-0.1113,-0.3643,-1304.44,-937.68,-422.67
1430,-3.8706,-0.1432,-0.3518,1758.06,1390.38,-328.86
1440,-3.8706,-0.1670,-0.3452,1679.93,-1015.93,108.64
1450,-3.8707,-0.1870,-0.3418,-1366.94,-172.24,1436.77
1460,-3.8708,-0.2085,-0.3401,70.56,265.26,-641.30
1470,-3.8708,-0.2329,-0.3334,1320.56,483.95,1124.33
1480,-3.8710,-0.2577,-0.3118,-1804.44,1343.26,-1610.05
1490,-3.8711,-0.2772,-0.2812,-976.32,108.83,-563.11
1500,-3.8711,-0.2858,-0.2572,523.68,15.08,499.45
1510,-3.8712,-0.2843,-0.2428,-570.07,-906.86,1983.83
1520,-3.8712,-0.2766,-0.2306,-382.57,936.89,62.01
1530,-3.8713,-0.2574,-0.2134,601.81,-1500.55,-1406.74
1540,-3.8713,-0.2202,-0.1931,-945.07,702.58,1827.70
1550,-3.8713,-0.1719,-0.1790,-179.44,-703.61,-1922.30
1560,-3.8713,-0.1287,-0.1726,-1991.94,1109.01,-984.74
1570,-3.8713,-0.1021,-0.1719,-460.69,1921.57,-31.62
1580,-3.8713,-0.0961,-0.1724,-1054.44,-1984.62,-62.87
1590,-3.8713,-0.1088,-0.1653,-288.82,1952.88,-1875.37
1600,-3.8715,-0.1311,-0.1497,-1913.82,-1140.87,-1437.87
1610,-3.8716,-0.1498,-0.1296,-773.19,859.07,1905.94
1620,-3.8717,-0.1544,-0.1074,836.18,-578.43,1218.44
1630,-3.8718,-0.1423,-0.0898,242.43,-1734.68,1343.51
1640,-3.8719,-0.1187,-0.0814,1789.31,515.32,-1750.18
1650,-3.8721,-0.0920,-0.0753,820.56,1593.51,-593.93
1660,-3.8721,-0.0728,-0.0671,226.81,-1625.18,406.07
1670,-3.8722,-0.0699,-0.0557,-1304.44,-578.31,921.69
1680,-3.8723,-0.0839,-0.0420,-945.07,890.44,1078.00
1690,-3.8724,-0.1068,-0.0354,1273.68,-1359.56,1281.13
1700,-3.8726,-0.1298,-0.0376,-1663.82,-515.87,1703.00
1710,-3.8727,-0.1447,-0.0376,-601.32,-797.18,-1734.50
1720,-3.8728,-0.1444,-0.0298,1492.43,-797.18,-1047.00
1730,-3.8728,-0.1255,-0.0217,1523.68,202.82,15.56
1740,-3.8729,-0.0919,-0.0161,-54.44,1234.07,1281.19
1750,-3.8730,-0.0527,-0.0060,242.43,1952.94,-1281.31
1760,-3.8730,-0.0176,0.0083,1258.06,-750.12,578.06
1770,-3.8732,0.0085,0.0182,1758.06,1078.06,-1390.62
1780,-3.8732,0.0236,0.0226,1101.81,-1671.88,593.75
1790,-3.8733,0.0250,0.0227,-976.32,-1109.38,-1640.62
1800,-3.8734,0.0183,0.0170,-788.82,-1093.75,-406.25
1810,-3.8734,0.0143,0.0088,-1648.19,-1828.12,312.50
1820,-3.8735,0.0195,0.0011,1836.18,1125.00,1187.50
1830,-3.8737,0.0360,-0.0094,-1491.94,140.62,-1000.00
1840,-3.8737,0.0591,-0.0223,617.43,-1203.06,1640.56
1850,-3.8737,0.0786,-0.0277,-429.44,1140.69,749.94
1860,-3.8737,0.0901,-0.0264,-1929.44,453.25,218.69
1870,-3.8738,0.0973,-0.0348,-460.69,625.12,-234.44
1880,-3.8738,0.1021,-0.0638,461.18,-452.94,-468.87
1890,-3.8737,0.1102,-0.1050,1070.56,-171.69,109.19
1900,-3.8737,0.1346,-0.1417,-1882.57,-1437.32,1812.26
1910,-3.8735,0.1759,-0.1691,1242.43,1859.62,499.69
1920,-3.8735,0.2246,-0.1860,-1476.32,-1640.32,-406.62
1930,-3.8734,0.2789,-0.1940,758.06,187.93,-1250.37
1940,-3.8733,0.3376,-0.1992,-288.82,-827.64,1718.32
1950,-3.8732,0.3989,-0.2035,-773.19,-1499.39,796.45
1960,-3.8730,0.4648,-0.2102,-929.44,1953.86,1124.57
1970,-3.8729,0.5363,-0.2236,-491.94,1094.60,-609.80
1980,-3.8727,0.6138,-0.2390,648.68,-623.96,-594.24
1990,-3.8723,0.6998,-0.2467,-1429.44,1407.41,577.64
2000,-3.8721,0.7909,-0.2465,1586.18,423.22,-1406.74
2010,-3.8717,0.8754,-0.2510,1242.43,454.65,1249.51
2020,-3.8713,0.9457,-0.2734,54.93,-123.29,233.83
2030,-3.8711,0.9990,-0.3118,1054.93,1001.83,-719.30
2040,-3.8707,1.0297,-0.3513,-116.94,95.64,-1938.11
2050,-3.8705,1.0291,-0.3802,-195.07,-966.80,-266.36
2060,-3.8702,0.9976,-0.3964,-273.19,-669.92,-657.04
2070,-3.8700,0.9471,-0.4012,-304.44,1267.52,483.58
2080,-3.8700,0.8881,-0.3964,1242.43,642.46,-563.29
2090,-3.8699,0.8291,-0.3939,1679.93,1267.33,1108.58
2100,-3.8699,0.7800,-0.4080,-1866.94,1579.71,-1782.04
2110,-3.8699,0.7488,-0.4358,-148.19,-217.29,-844.60
2120,-3.8698,0.7366,-0.4675,-148.19,220.15,358.52
2130,-3.8698,0.7397,-0.4952,-1710.69,157.65,-1797.79
2140,-3.8696,0.7498,-0.5125,-1304.44,610.78,592.77
2150,-3.8696,0.7562,-0.5221,-23.19,-1592.35,-1079.16
2160,-3.8695,0.7490,-0.5298,804.93,1173.34,139.59
2170,-3.8696,0.7186,-0.5349,-116.94,188.90,-1063.54
2180,-3.8698,0.6659,-0.5360,-7.57,-467.41,-1047.97
2190,-3.8699,0.6022,-0.5375,1242.43,-608.09,1217.65
2200,-3.8701,0.5334,-0.5472,1086.18,-795.72,-376.10
2210,-3.8702,0.4644,-0.5740,289.31,1954.16,-16.72
2220,-3.8702,0.4072,-0.6169,-554.44,-1467.90,-673.03
2230,-3.8701,0.3685,-0.6605,133.06,1032.04,1061.28
2240,-3.8701,0.3414,-0.6908,-820.07,-546.20,-876.34
2250,-3.8701,0.3163,-0.6981,-288.82,-421.26,-610.78
2260,-3.8701,0.2827,-0.6698,492.43,-1358.76,1107.97
2270,-3.8702,0.2316,-0.6072,195.56,-1733.83,1045.53
2280,-3.8704,0.1721,-0.5336,1648.68,-1718.32,233.15
2290,-3.8706,0.1243,-0.4738,-1960.69,-296.57,-766.72
2300,-3.8707,0.0997,-0.4376,-85.69,-640.44,-1563.48
2310,-3.8708,0.1046,-0.4202,773.68,-15.44,-1735.29
2320,-3.8710,0.1387,-0.4120,1398.68,-1781.07,-1219.60
2330,-3.8710,0.1951,-0.4071,1758.06,-734.13,77.27
2340,-3.8711,0.2578,-0.3981,976.81,-109.01,-1766.48
2350,-3.8711,0.3081,-0.3770,1008.06,1047.36,639.83
2360,-3.8712,0.3346,-0.3448,-554.44,-249.45,-1000.79
2370,-3.8712,0.3397,-0.3092,-1163.82,-140.01,1405.52
2380,-3.8713,0.3353,-0.2733,-507.57,422.49,-63.11
2390,-3.8713,0.3318,-0.2360,-1070.07,1016.24,-1031.80
2400,-3.8713,0.3374,-0.1998,-1523.19,1797.49,-1062.99
2410,-3.8712,0.3564,-0.1714,-804.44,-1577.51,280.82
2420,-3.8712,0.3870,-0.1571,1633.06,-1936.83,-1656.62
2430,-3.8712,0.4210,-0.1554,1539.31,-108.64,-109.74
2440,-3.8711,0.4495,-0.1545,1898.68,110.17,780.94
2450,-3.8711,0.4714,-0.1473,1539.31,219.60,-1812.81
2460,-3.8710,0.4893,-0.1412,351.81,1141.54,1155.94
2470,-3.8708,0.4965,-0.1404,-1366.94,1922.79,1343.44
2480,-3.8707,0.4860,-0.1410,-445.07,-1967.83,-1844.06
2490,-3.8706,0.4590,-0.1462,-1788.82,1954.04,-859.68
2500,-3.8705,0.4283,-0.1589,-1241.94,1282.10,-265.93
2510,-3.8704,0.4081,-0.1741,-1163.82,-342.96,-515.99
2520,-3.8702,0.3979,-0.1926,242.43,1719.54,-1515.99
2530,-3.8701,0.3899,-0.2335,-1054.44,-655.52,1202.70
2540,-3.8700,0.3708,-0.3142,1914.31,-1889.89,62.01
2550,-3.8700,0.3230,-0.4250,-523.19,-218.08,-578.80
2560,-3.8698,0.2386,-0.5336,1351.81,1594.36,30.40
2570,-3.8696,0.1250,-0.6150,-1445.07,-296.45,1842.65
2580,-3.8695,-0.0111,-0.6707,8.06,1281.49,-173.10
2590,-3.8693,-0.1647,-0.7202,-1413.82,-1828.19,1217.41
2600,-3.8691,-0.3221,-0.7821,-1070.07,-172.24,1764.16
2610,-3.8690,-0.4666,-0.8623,-1226.32,-94.42,-1985.96
2620,-3.8689,-0.5786,-0.9530,289.31,1639.71,-1282.96
2630,-3.8688,-0.6407,-1.0272,1945.56,-1969.91,-126.89
2640,-3.8685,-0.6472,-1.0508,1992.43,529.97,685.49
2650,-3.8685,-0.6038,-1.0155,1164.31,1514.34,-798.95
2660,-3.8685,-0.5248,-0.9517,-1273.19,-1969.97,810.49
2670,-3.8689,-0.4401,-0.8848,836.18,-1797.91,-548.77
2680,-3.8694,-0.3792,-0.8137,-320.07,-1235.29,-939.27
2690,-3.8700,-0.3470,-0.7394,-523.19,-141.42,1732.73
2700,-3.8707,-0.3345,-0.6682,-413.82,1374.27,1811.04
2710,-3.8715,-0.3351,-0.6051,1195.56,-1516.30,1217.41
2720,-3.8722,-0.3485,-0.5509,1117.43,-1438.17,1826.90
2730,-3.8728,-0.3723,-0.5016,-601.32,1499.27,498.90
2740,-3.8734,-0.3939,-0.4547,351.81,-188.23,1155.21
2750,-3.8739,-0.3976,-0.4066,1586.18,1811.71,170.96
2760,-3.8744,-0.3719,-0.3574,1117.43,-32.04,-1266.48
2770,-3.8746,-0.3142,-0.3147,398.68,-1735.11,1280.52
2780,-3.8749,-0.2349,-0.2847,-210.69,-266.30,-672.55
2790,-3.8750,-0.1504,-0.2657,1945.56,-422.36,-94.36
2800,-3.8750,-0.0718,-0.2573,758.06,1999.69,-1813.05
2810,-3.8750,-0.0037,-0.2625,-1179.44,-922.06,1436.95
2820,-3.8750,0.0533,-0.2781,-460.69,-1578.19,436.95
2830,-3.8439,0.0951,-0.2900,-1163.82,406.31,-1484.92
2840,-3.8439,0.1150,-0.2800,179.93,-1124.82,186.89
2850,-3.8440,0.1168,-0.2468,-1273.19,156.43,-1594.30
2860,-3.8440,0.1150,-0.2084,-1038.82,406.43,1390.14
2870,-3.8440,0.1228,-0.1738,-1273.19,1328.31,546.45
2880,-3.8441,0.1494,-0.1442,-273.19,1750.18,-125.37
2890,-3.8441,0.2025,-0.1234,-866.94,1547.12,-250.31
2900,-3.8440,0.2800,-0.1123,1929.93,203.49,249.76
2910,-3.8440,0.3700,-0.1050,-148.19,1625.49,-1890.87
2920,-3.8439,0.4574,-0.1030,-632.57,-1436.83,-1718.99
2930,-3.8749,0.5309,-0.1151,-1445.07,-1186.65,1187.26
2940,-3.8746,0.5950,-0.1476,-38.82,1266.60,-1781.49
2950,-3.8743,0.6703,-0.2029,164.31,1110.53,874.69
2960,-3.8739,0.7726,-0.2668,1804.93,-1967.47,1218.32
2970,-3.8735,0.8942,-0.3098,-1101.32,1845.21,-1188.05
2980,-3.8730,1.0118,-0.3112,-1538.82,345.46,140.01
2990,-3.8728,1.1036,-0.2787,1523.68,173.83,-594.36
3000,-3.8724,1.1530,-0.2432,1273.68,330.26,405.70
3010,-3.8722,1.1545,-0.2354,-413.82,877.20,562.01
3020,-3.8719,1.1158,-0.2698,-210.69,1877.20,1327.64
3030,-3.8717,1.0565,-0.3480,-1163.82,1470.89,-1047.42
3040,-3.8713,0.9967,-0.4524,-757.57,-544.86,1108.64
3050,-3.8711,0.9401,-0.5494,-413.82,-1904.36,-297.79
3060,-3.8707,0.8757,-0.6315,336.18,1673.71,-516.72
3070,-3.8702,0.7906,-0.7180,101.81,-826.42,1389.34
3080,-3.8698,0.6716,-0.8116,1211.18,95.28,717.35
3090,-3.8694,0.5044,-0.8826,1976.81,110.66,-1485.96
3100,-3.8690,0.3003,-0.8978,570.56,-967.77,45.10
3110,-3.8689,0.1141,-0.8578,-1554.44,1078.67,-1392.40
3120,-3.8687,0.0149,-0.8103,-1382.57,-1796.69,1842.04
3130,-3.8684,0.0487,-0.8066,1914.31,281.25,-1314.09
3140,-3.8682,0.2084,-0.8402,-1757.57,750.06,-454.71
3150,-3.8679,0.4258,-0.8682,-1320.07,453.49,-1173.52
3160,-3.8678,0.6178,-0.8694,-1491.94,875.79,-236.08
3170,-3.8677,0.7332,-0.8518,-913.82,719.91,-1189.21
3180,-3.8676,0.7542,-0.8312,1851.81,-1029.85,435.79
3190,-3.8676,0.6964,-0.8184,539.31,1610.84,232.73
3200,-3.8677,0.6013,-0.8024,1148.68,-748.66,-1814.15
3210,-3.8678,0.5074,-0.7655,976.81,1298.03,-1439.09
3220,-3.8679,0.4408,-0.7318,961.18,-1983.40,1451.60
3230,-3.8682,0.4147,-0.7305,429.93,-1671.02,-1048.34
3240,-3.8684,0.4125,-0.7426,1086.18,-1499.21,-595.21
3250,-3.8687,0.4014,-0.7421,804.93,953.92,-563.96
3260,-3.8689,0.3660,-0.7250,-616.94,1016.36,-704.59
3270,-3.8691,0.3080,-0.6985,-1148.19,-796.20,-532.71
3280,-3.8693,0.2399,-0.6725,-570.07,-1405.70,842.35
3290,-3.8694,0.1815,-0.6605,-1288.82,1922.30,76.78
3300,-3.8695,0.1471,-0.6643,-757.57,-546.57,1233.03
3310,-3.8696,0.1418,-0.6671,-1163.82,-1031.01,-376.34
3320,-3.8696,0.1564,-0.6665,-1835.69,-1390.38,1983.03
3330,-3.8698,0.1658,-0.6774,23.68,-1312.19,-1048.22
3340,-3.8699,0.1431,-0.6990,1226.81,1297.18,1623.66
3350,-3.8701,0.0754,-0.7124,-1679.44,-1468.51,-1392.03
3360,-3.8704,-0.0258,-0.7170,1664.31,812.62,-595.15
3370,-3.8705,-0.1443,-0.7297,711.18,234.31,1014.22
3380,-3.8707,-0.2778,-0.7596,1539.31,-1390.93,-298.34
3390,-3.8708,-0.4233,-0.8093,445.56,-1219.30,-782.78
3400,-3.8710,-0.5648,-0.8712,1820.56,421.02,-751.59
3410,-3.8711,-0.6829,-0.9280,-288.82,498.84,-95.46
3420,-3.8711,-0.7667,-0.9639,601.81,1233.03,1201.29
3430,-3.8712,-0.8163,-0.9735,1867.43,639.10,-1298.77
3440,-3.8712,-0.8385,-0.9548,-476.32,-595.40,29.30
3450,-3.8713,-0.8484,-0.9131,679.93,1795.23,1451.23
3460,-3.8715,-0.8544,-0.8694,-585.69,-861.08,-1017.46
3470,-3.8716,-0.8550,-0.8331,-1351.32,732.67,-501.71
3480,-3.8717,-0.8474,-0.7964,-1429.44,1373.29,1685.85
3490,-3.8719,-0.8262,-0.7542,-460.69,-1923.58,1357.79
3500,-3.8723,-0.7823,-0.7018,-1741.94,-517.27,-392.15
3510,-3.8726,-0.7123,-0.6354,-132.57,-1814.09,1982.97
3520,-3.8728,-0.6217,-0.5671,836.18,-1313.90,1904.97
3530,-3.8730,-0.5264,-0.5148,429.93,-579.35,-594.91
3540,-3.8732,-0.4419,-0.4806,633.06,-1876.04,1530.21
3550,-3.8734,-0.3767,-0.4572,-554.44,-1500.92,-485.35
3560,-3.8735,-0.3361,-0.4373,-210.69,1499.21,1264.71
3570,-3.8738,-0.3173,-0.4174,992.43,46.20,-813.35
3580,-3.8739,-0.3051,-0.3979,-601.32,-1406.92,1858.52
3590,-3.8740,-0.2811,-0.3783,961.18,1077.51,1592.96
3600,-3.8741,-0.2325,-0.3535,23.68,-406.80,-1422.67
3610,-3.8741,-0.1527,-0.3198,-1757.57,-1234.86,718.02
3620,-3.8743,-0.0522,-0.2830,461.18,-922.18,-453.80
3630,-3.8743,0.0477,-0.2531,1320.56,-203.25,-1016.24
3640,-3.8743,0.1311,-0.2297,-1882.57,-390.56,-1031.80
3650,-3.8743,0.1807,-0.2043,789.31,-1406.01,-1266.11
3660,-3.8743,0.1859,-0.1802,-866.94,1844.06,1421.45
3670,-3.8744,0.1589,-0.1638,-195.07,937.81,-1125.37
3680,-3.8745,0.1282,-0.1511,351.81,-968.44,-375.37
3690,-3.8745,0.1219,-0.1364,414.31,656.49,530.94
3700,-3.8746,0.1554,-0.1201,-382.57,-1452.94,-1453.43
3710,-3.8746,0.2305,-0.1031,-101.32,625.24,-1031.49
3720,-3.8745,0.3304,-0.0830,1508.06,-1202.70,-1781.49
3730,-3.8744,0.4222,-0.0676,-1695.07,1375.61,-890.81
3740,-3.8741,0.4791,-0.0736,-1945.07,-655.46,77.94
3750,-3.8741,0.4923,-0.0992,1336.18,-1420.96,-406.43
3760,-3.8740,0.4800,-0.1266,-976.32,-702.21,1265.38
3770,-3.8740,0.4810,-0.1442,1445.56,-202.21,-1969.06
3780,-3.8740,0.5280,-0.1504,1570.56,1547.79,-94.06
3790,-3.8738,0.6293,-0.1545,-413.82,750.98,796.57
3800,-3.8735,0.7683,-0.1707,554.93,219.97,499.69
3810,-3.8733,0.9130,-0.1986,-1648.19,-1842.29,1843.38
3820,-3.8730,1.0327,-0.2263,867.43,-1420.10,-625.43
3830,-3.8727,1.1084,-0.2396,195.56,-966.74,405.76
3840,-3.8724,1.1344,-0.2382,1883.06,1330.26,1452.64
3850,-3.8722,1.1196,-0.2479,1211.18,1517.82,-1047.36
3860,-3.8718,1.0806,-0.2946,-679.44,267.76,483.89
3870,-3.8716,1.0262,-0.3750,-1679.44,-1701.05,1733.76
3880,-3.8713,0.9534,-0.4600,-632.57,1.95,-641.36
3890,-3.8710,0.8607,-0.5171,-1960.69,1126.83,1811.58
3900,-3.8706,0.7618,-0.5391,-1820.07,1814.15,358.34
3910,-3.8704,0.6770,-0.5436,1523.68,-998.54,-1751.10
3920,-3.8701,0.6234,-0.5516,-1335.69,-1576.84,-297.97
3930,-3.8698,0.6077,-0.5742,-195.07,1391.78,1170.78
3940,-3.8695,0.6174,-0.6146,1789.31,-1498.84,-501.16
3950,-3.8691,0.6332,-0.6694,-960.69,1329.28,-626.22
3960,-3.8687,0.6390,-0.7196,1054.93,-1686.28,279.91
3970,-3.8683,0.6177,-0.7487,1804.93,-108.15,811.04
3980,-3.8680,0.5586,-0.7554,-929.44,173.03,-845.21
3990,-3.8678,0.4747,-0.7446,-491.94,-686.46,1560.97
4000,-3.8678,0.3964,-0.7345,773.68,688.42,-1110.84
4010,-3.8679,0.3447,-0.7456,-1257.57,1985.11,-110.84
4020,-3.8680,0.3232,-0.7723,133.06,563.17,-704.59
4030,-3.8680,0.3187,-0.7950,1383.06,1141.24,76.60
4040,-3.8682,0.3004,-0.8029,804.93,-1765.01,-1189.09
4050,-3.8682,0.2462,-0.7936,-1538.82,1234.92,1514.04
4060,-3.8683,0.1604,-0.7734,-476.32,-1577.70,-892.21
4070,-3.8683,0.0636,-0.7573,539.31,1000.31,60.97
4080,-3.8684,-0.0219,-0.7585,148.68,-937.38,670.35
4090,-3.8685,-0.0880,-0.7771,1211.18,-1078.19,1420.35
4100,-3.8687,-0.1382,-0.8114,742.43,546.69,-1610.90
4110,-3.8688,-0.1853,-0.8575,-1679.44,155.94,-1454.71
4120,-3.8689,-0.2457,-0.9020,289.31,-1750.37,920.17
4130,-3.8691,-0.3267,-0.9323,554.93,562.01,1701.35
4140,-3.8694,-0.4242,-0.9460,-1804.44,686.83,1451.29
4150,-3.8696,-0.5240,-0.9510,1711.18,-1078.98,888.73
4160,-3.8699,-0.6053,-0.9526,929.93,-1719.79,482.48
4170,-3.8701,-0.6516,-0.9530,-1476.32,-1923.10,888.73
4180,-3.8704,-0.6700,-0.9591,601.81,-1970.03,-1501.89
4190,-3.8705,-0.6906,-0.9669,-1757.57,1248.66,435.61
4200,-3.8707,-0.7382,-0.9606,-382.57,248.60,1748.11
4210,-3.8710,-0.8129,-0.9327,1523.68,1061.04,-1876.89
4220,-3.8712,-0.8994,-0.8868,-38.82,623.35,1201.29
4230,-3.8716,-0.9769,-0.8330,883.06,-1501.77,-1392.40
4240,-3.8719,-1.0272,-0.7825,-1038.82,1388.67,-1173.52
4250,-3.8723,-1.0442,-0.7386,523.68,-142.64,-1173.46
4260,-3.8727,-1.0326,-0.6989,-1648.19,1466.67,-501.46
4270,-3.8729,-1.0048,-0.6605,-163.82,-1439.58,1529.85
4280,-3.8732,-0.9685,-0.6227,-601.32,-533.26,920.53
4290,-3.8734,-0.9221,-0.5833,39.31,310.61,1248.78
4300,-3.8737,-0.8700,-0.5365,1976.81,1357.54,-1641.78
4310,-3.8738,-0.8312,-0.4847,648.68,-657.96,389.53
4320,-3.8740,-0.7893,-0.4427,1617.43,1967.10,-110.35
4330,-3.8740,-0.7211,-0.4232,-1023.19,-657.84,811.58
4340,-3.8741,-0.6410,-0.4214,-288.82,1842.29,-1594.60
4350,-3.8741,-0.5630,-0.4170,1961.18,-1923.16,186.65
4360,-3.8743,-0.5085,-0.4008,-54.44,-1360.53,-1860.23
4370,-3.8743,-0.4728,-0.3770,-1085.69,717.71,577.33
4380,-3.8744,-0.4303,-0.3541,-507.57,-235.35,-610.17
4390,-3.8744,-0.3710,-0.3392,929.93,-1313.35,1952.39
4400,-3.8744,-0.2942,-0.3301,523.68,593.02,124.33
4410,-3.8745,-0.2178,-0.3191,-1648.19,1765.01,-1735.05
4420,-3.8745,-0.1500,-0.3005,133.06,-828.55,561.83
4430,-3.8746,-0.0872,-0.2787,804.93,1546.57,-1172.49
4440,-3.8746,-0.0333,-0.2620,851.81,343.57,655.70
4450,-3.8748,0.0099,-0.2524,-257.57,-1515.75,-1766.17
4460,-3.8748,0.0483,-0.2466,1273.68,-312.50,827.58
4470,-3.8748,0.0928,-0.2433,-1804.44,437.56,1687.01
4480,-3.8746,0.1467,-0.2419,-116.94,859.50,655.76
4490,-3.8745,0.2043,-0.2423,-1210.69,1031.49,296.39
4500,-3.8745,0.2554,-0.2419,-1835.69,984.74,-1000.49
4510,-3.8745,0.2946,-0.2330,695.56,1031.74,-109.86
4520,-3.8745,0.3300,-0.2126,1711.18,-1827.58,-344.24
4530,-3.8745,0.3710,-0.1910,-1757.57,781.86,-500.43
4540,-3.8744,0.4176,-0.1760,-507.57,-452.45,515.20
4550,-3.8743,0.4651,-0.1659,1461.18,1469.54,249.63
4560,-3.8741,0.5209,-0.1616,-460.69,-1233.52,-125.37
4570,-3.8738,0.5699,-0.1725,-1320.07,-686.52,-1359.74
4580,-3.8734,0.5961,-0.2083,961.18,1922.97,-1578.49
4590,-3.8730,0.6034,-0.2714,304.93,1344.91,1671.45
4600,-3.8727,0.6099,-0.3464,1242.43,1266.78,202.58
4610,-3.8724,0.6393,-0.4019,-1929.44,-342.59,-1094.48
4620,-3.8721,0.6947,-0.4071,1836.18,563.72,1874.21
4630,-3.8717,0.7661,-0.3591,929.93,-108.03,327.27
4640,-3.8715,0.8385,-0.3118,-1929.44,-1967.29,1983.64
4650,-3.8712,0.9064,-0.3250,-663.82,95.34,-1234.99
4660,-3.8710,0.9562,-0.3866,23.68,-1591.98,1686.83
4670,-3.8708,0.9734,-0.4418,-1601.32,-1482.54,-1313.29
4680,-3.8707,0.9598,-0.4695,601.81,-544.98,-922.79
4690,-3.8706,0.9396,-0.4835,-1132.57,-91.92,-469.73
4700,-3.8705,0.9320,-0.5035,273.68,-1888.79,-188.48
4710,-3.8704,0.9344,-0.5342,-695.07,-451.35,-657.29
4720,-3.8702,0.9331,-0.5614,-382.57,-373.23,1967.65
4730,-3.8701,0.9222,-0.5721,-554.44,142.40,139.53
4740,-3.8701,0.9126,-0.5760,-1945.07,-1232.60,-1282.41
4750,-3.8700,0.9210,-0.5950,820.56,-1732.60,-1938.66
4760,-3.8699,0.9556,-0.6338,1898.68,-154.48,1701.90
4770,-3.8698,1.0020,-0.6832,-1679.44,-1123.17,1451.84
4780,-3.8696,1.0315,-0.7281,258.06,548.83,1842.41
4790,-3.8695,1.0204,-0.7528,39.31,-1201.11,-1110.84
4800,-3.8694,0.9664,-0.7559,-1382.57,-357.42,-798.40
4810,-3.8693,0.8870,-0.7549,-288.82,-748.17,1232.85
4820,-3.8693,0.8085,-0.7654,1539.31,-623.29,529.72
4830,-3.8694,0.7482,-0.7839,-507.57,-1967.22,1904.72
4840,-3.8695,0.7090,-0.8008,-226.32,-342.35,-1345.34
4850,-3.8696,0.6858,-0.8129,-1241.94,1501.34,-704.71
4860,-3.8696,0.6669,-0.8253,-210.69,-45.59,76.48
4870,-3.8698,0.6389,-0.8435,1367.43,-1639.34,1623.35
4880,-3.8698,0.5970,-0.8652,1789.31,32.47,295.23
4890,-3.8699,0.5510,-0.8896,429.93,1251.16,-64.21
4900,-3.8698,0.5070,-0.9213,-1460.69,-1873.96,45.10
4910,-3.8698,0.4622,-0.9583,898.68,-1920.90,420.04
4920,-3.8698,0.4076,-0.9978,-835.69,1344.60,1185.61
4930,-3.8698,0.3357,-1.0320,179.93,282.04,1951.17
4940,-3.8698,0.2494,-1.0499,-1023.19,-93.14,1794.80
4950,-3.8698,0.1582,-1.0585,-70.07,1609.80,529.17
4960,-3.8699,0.0693,-1.0725,258.06,515.93,-1767.70
4970,-3.8700,-0.0155,-1.0876,883.06,-1281.13,-986.51
4980,-3.8701,-0.0945,-1.0918,-1976.32,796.81,-564.64
4990,-3.8702,-0.1633,-1.0856,-85.69,265.38,-127.14
5000,-3.8704,-0.2217,-1.0770,-898.19,1062.13,-220.89
5010,-3.8705,-0.2727,-1.0616,-366.94,-1844.24,-1580.26
5020,-3.8707,-0.3182,-1.0277,1101.81,124.45,-2.08
5030,-3.8708,-0.3595,-0.9800,-726.32,468.08,779.24
5040,-3.8711,-0.3982,-0.9280,1992.43,-1422.61,654.30
5050,-3.8715,-0.4335,-0.8727,1039.31,1233.58,-173.71
5060,-3.8717,-0.4617,-0.8119,523.68,311.65,-1189.21
5070,-3.8719,-0.4747,-0.7466,914.31,92.83,-1892.21
5080,-3.8722,-0.4685,-0.6827,-757.57,452.15,-1720.21
5090,-3.8724,-0.4491,-0.6224,39.31,624.08,-845.09
5100,-3.8726,-0.4247,-0.5660,-1476.32,342.83,655.03
5110,-3.8728,-0.4028,-0.5183,1648.68,-438.35,-766.78
5120,-3.8729,-0.3898,-0.4819,445.56,1671.08,-969.79
5130,-3.8730,-0.3889,-0.4515,-1882.57,-1672.67,-375.98
5140,-3.8730,-0.3984,-0.4191,-1773.19,-1782.04,374.08
5150,-3.8732,-0.4100,-0.3810,1008.06,-1625.79,936.65
5160,-3.8733,-0.4121,-0.3390,-476.32,-750.85,1405.46
5170,-3.8734,-0.3979,-0.2958,-741.94,624.15,-1703.80
5180,-3.8734,-0.3680,-0.2528,1070.56,-1844.54,483.76
5190,-3.8734,-0.3276,-0.2136,898.68,-344.48,311.95
5200,-3.8734,-0.2885,-0.1879,-1929.44,671.20,1265.20
5210,-3.8734,-0.2589,-0.1810,-913.82,-31.86,-1500.43
5220,-3.8734,-0.2365,-0.1819,-1132.57,843.20,-390.99
5230,-3.8733,-0.2136,-0.1747,1742.43,733.89,905.88
5240,-3.8733,-0.1852,-0.1549,664.31,1655.82,-1031.62
5250,-3.8732,-0.1531,-0.1349,304.93,187.13,-1937.81
5260,-3.8730,-0.1196,-0.1270,414.31,-1250.31,1359.07
5270,-3.8730,-0.0856,-0.1259,695.56,-234.62,-140.93
5280,-3.8729,-0.0547,-0.1257,1054.93,-93.93,1437.19
5290,-3.8729,-0.0322,-0.1257,1008.06,-78.25,1702.82
5300,-3.8729,-0.0171,-0.1166,-116.94,-78.25,530.94
5310,-3.8730,-0.0042,-0.0941,1820.56,1093.69,-1297.12
5320,-3.8730,0.0103,-0.0669,-523.19,-31.31,984.13
5330,-3.8732,0.0298,-0.0474,1320.56,-562.50,-62.68
5340,-3.8730,0.0552,-0.0492,-179.44,1937.50,218.63
5350,-3.8730,0.0822,-0.0742,-929.44,1703.19,1765.50
5360,-3.8730,0.1050,-0.1111,-1476.32,-1499.88,-109.56
5370,-3.8729,0.1189,-0.1471,1445.56,1781.43,1765.38
5380,-3.8729,0.1257,-0.1666,-773.19,1172.06,-1281.56
5390,-3.8729,0.1339,-0.1571,101.81,-1327.88,-1234.74
5400,-3.8729,0.1487,-0.1270,1148.68,-109.13,-1640.99
5410,-3.8729,0.1681,-0.0944,-960.69,-249.76,1671.57
5420,-3.8729,0.1927,-0.0684,1523.68,-77.82,952.88
5430,-3.8729,0.2227,-0.0623,679.93,-749.63,1046.69
5440,-3.8729,0.2510,-0.0946,508.06,31.68,-1968.87
5450,-3.8729,0.2703,-0.1603,133.06,-108.89,-953.37
5460,-3.8729,0.2826,-0.2277,-1398.19,-515.14,-47.24
5470,-3.8728,0.3049,-0.2677,179.93,-1140.08,1749.51
5480,-3.8727,0.3523,-0.2802,-960.69,1734.92,1218.20
5490,-3.8726,0.4193,-0.2811,1101.81,141.30,1686.95
5500,-3.8724,0.4829,-0.2758,1679.93,16.42,1843.20
5510,-3.8723,0.5181,-0.2681,1820.56,704.04,1061.95
5520,-3.8723,0.5105,-0.2753,-1679.44,1688.48,-1109.92
5530,-3.8723,0.4639,-0.3049,1351.81,766.60,-1281.80
5540,-3.8723,0.4059,-0.3375,-616.94,969.60,546.26
5550,-3.8724,0.3818,-0.3518,-38.82,797.61,1780.58
5560,-3.8724,0.4226,-0.3511,883.06,-1030.52,421.14
5570,-3.8724,0.5187,-0.3468,-1898.19,-936.71,1780.52
5580,-3.8723,0.6356,-0.3413,-1601.32,-389.65,-1938.23
5590,-3.8721,0.7368,-0.3394,1367.43,313.72,389.95
5600,-3.8719,0.8002,-0.3519,-1679.44,563.90,-813.17
5610,-3.8717,0.8242,-0.3815,-1570.07,-1045.35,1218.02
5620,-3.8716,0.8188,-0.4137,1508.06,-826.54,-1875.79
5630,-3.8715,0.8032,-0.4362,820.56,-951.54,1842.90
5640,-3.8713,0.8064,-0.4391,-1179.44,173.40,1327.27
5650,-3.8712,0.8510,-0.4067,-773.19,-201.60,-1844.67
5660,-3.8710,0.9326,-0.3492,929.93,-60.85,889.77
5670,-3.8707,1.0190,-0.3190,-616.94,-701.35,780.52
5680,-3.8706,1.0640,-0.3497,-1554.44,-826.17,-906.92
5690,-3.8705,1.0265,-0.4104,195.56,-763.55,686.77
5700,-3.8706,0.9032,-0.4537,-601.32,-529.30,1124.15
5710,-3.8708,0.7368,-0.4738,-382.57,1923.58,-922.79
5720,-3.8710,0.5859,-0.4979,-1679.44,-639.22,1874.02
5730,-3.8711,0.4935,-0.5438,-991.94,266.72,-1032.23
5740,-3.8711,0.4720,-0.6066,-820.07,-1608.46,-1485.47
5750,-3.8710,0.5060,-0.6709,429.93,-1639.71,826.90
5760,-3.8708,0.5618,-0.7159,773.68,-1874.02,1123.66
5770,-3.8707,0.6006,-0.7266,-85.69,360.41,1607.97
5780,-3.8706,0.5992,-0.7168,883.06,-998.84,-1813.96
5790,-3.8705,0.5585,-0.7156,711.18,251.16,-282.65
5800,-3.8702,0.4941,-0.7352,-507.57,407.29,-1985.78
5810,-3.8701,0.4250,-0.7717,-741.94,1891.54,-345.21
5820,-3.8700,0.3632,-0.8104,-1585.69,1219.54,-1142.15
5830,-3.8700,0.3109,-0.8344,-1507.57,266.30,-1564.09
5840,-3.8701,0.2632,-0.8390,-195.07,1203.67,-1829.77
5850,-3.8704,0.2166,-0.8192,1695.56,609.86,-782.90
5860,-3.8706,0.1733,-0.7579,-273.19,-859.01,-298.52
5870,-3.8707,0.1395,-0.6641,-1804.44,-1015.32,1045.35
5880,-3.8710,0.1256,-0.5824,1867.43,-999.76,-485.72
5890,-3.8711,0.1409,-0.5464,86.18,1453.37,-735.53
5900,-3.8711,0.1813,-0.5566,-1960.69,-1937.26,873.90
5910,-3.8711,0.2269,-0.5896,-788.82,750.31,623.90
5920,-3.8711,0.2539,-0.6193,1054.93,531.68,1920.72
5930,-3.8711,0.2478,-0.6267,508.06,734.86,-657.47
5940,-3.8711,0.2137,-0.6047,-273.19,-218.32,-251.28
5950,-3.8711,0.1721,-0.5718,-632.57,-1405.88,-907.47
5960,-3.8711,0.1427,-0.5471,-1960.69,-1187.19,1576.97
5970,-3.8711,0.1354,-0.5300,-1726.32,1968.99,45.78
5980,-3.8712,0.1458,-0.5227,1336.18,156.49,-235.41
5990,-3.8711,0.1622,-0.5251,-1335.69,1093.99,858.34
6000,-3.8711,0.1748,-0.5282,773.68,781.56,-1438.54
6010,-3.8710,0.1799,-0.5261,-1616.94,390.93,748.96
6020,-3.8710,0.1774,-0.5193,-960.69,656.56,-266.66
6030,-3.8708,0.1674,-0.5118,-1288.82,1531.56,-313.54
6040,-3.8706,0.1553,-0.5096,1429.93,-1515.32,295.84
6050,-3.8705,0.1467,-0.5188,-116.94,-1234.13,998.96
6060,-3.8704,0.1422,-0.5378,-1210.69,1593.99,1498.96
6070,-3.8702,0.1398,-0.5616,-1788.82,-843.51,1217.65
6080,-3.8702,0.1339,-0.5969,1898.68,109.62,-501.10
6090,-3.8701,0.1135,-0.6445,1148.68,-406.01,264.40
6100,-3.8702,0.0709,-0.6854,-1460.69,1500.18,-282.53
6110,-3.8702,0.0094,-0.7109,1086.18,265.75,-1766.97
6120,-3.8702,-0.0608,-0.7308,1211.18,1000.00,76.72
6130,-3.8704,-0.1307,-0.7607,226.81,-1531.37,1389.16
6140,-3.8705,-0.1959,-0.8027,-726.32,-1359.68,-1532.78
6150,-3.8706,-0.2543,-0.8391,-1070.07,1265.20,-17.21
6160,-3.8706,-0.3046,-0.8510,-538.82,608.83,-1970.40
6170,-3.8706,-0.3434,-0.8337,1023.68,-906.86,107.67
6180,-3.8707,-0.3673,-0.8010,54.93,1296.20,1904.60
6190,-3.8708,-0.3779,-0.7695,992.43,1483.64,-892.21
6200,-3.8710,-0.3806,-0.7445,-366.94,1514.83,-329.65
6210,-3.8711,-0.3785,-0.7238,-710.69,717.96,-1.46
6220,-3.8711,-0.3710,-0.7025,-445.07,-625.79,123.54
6230,-3.8713,-0.3610,-0.6752,523.68,-1906.98,-501.40
6240,-3.8715,-0.3534,-0.6401,1804.93,1593.02,-1798.22
6250,-3.8716,-0.3467,-0.6028,-1226.32,-1922.61,998.72
6260,-3.8717,-0.3373,-0.5627,-366.94,-1141.36,170.65
6270,-3.8719,-0.3240,-0.5120,836.18,-16.30,-298.03
6280,-3.8721,-0.3073,-0.4476,-1460.69,-1516.30,-79.16
6290,-3.8721,-0.2867,-0.3856,679.93,-1281.86,1374.08
6300,-3.8721,-0.2612,-0.3485,-695.07,-1344.36,186.71
6310,-3.8721,-0.2338,-0.3407,-1429.44,-594.30,374.27
6320,-3.8721,-0.2076,-0.3494,-1913.82,405.76,1749.33
6330,-3.8721,-0.1840,-0.3672,1429.93,-703.55,-266.36
6340,-3.8719,-0.1675,-0.3895,461.18,1015.26,1796.14
6350,-3.8719,-0.1626,-0.4047,-1429.44,-1844.12,-485.17
6360,-3.8718,-0.1665,-0.4055,-804.44,218.38,358.58
6370,-3.8718,-0.1704,-0.3932,-1304.44,109.01,30.46
6380,-3.8719,-0.1660,-0.3761,-1804.44,1687.13,-1360.17
6390,-3.8719,-0.1495,-0.3630,-1241.94,-125.37,358.58
6400,-3.8721,-0.1222,-0.3522,867.43,1546.57,1577.39
6410,-3.8722,-0.0897,-0.3418,367.43,-1062.74,-1031.98
6420,-3.8722,-0.0610,-0.3373,523.68,265.44,874.33
6430,-3.8723,-0.0414,-0.3395,195.56,843.63,-985.05
6440,-3.8723,-0.0294,-0.3452,-1288.82,562.38,764.95
6450,-3.8724,-0.0206,-0.3505,242.43,-171.94,1999.27
6460,-3.8726,-0.0142,-0.3512,1367.43,-843.81,-1219.48
6470,-3.8727,-0.0109,-0.3440,-1804.44,-937.56,-1063.23
6480,-3.8728,-0.0010,-0.3274,-1382.57,-15.69,-1438.23
6490,-3.8729,0.0234,-0.3076,-116.94,-1890.69,-1688.17
6500,-3.8730,0.0566,-0.2959,-991.94,625.00,-1359.99
6510,-3.8732,0.0900,-0.2972,-741.94,-1874.94,-719.36
6520,-3.8733,0.1151,-0.3062,-476.32,1953.25,-594.36
6530,-3.8734,0.1234,-0.3114,-1257.57,812.68,-1297.49
6540,-3.8735,0.1158,-0.3043,-195.07,140.81,1405.64
6550,-3.8738,0.1058,-0.2869,-1163.82,1047.06,-94.36
6560,-3.8739,0.1083,-0.2662,1554.93,-718.57,-828.74
6570,-3.8740,0.1282,-0.2493,1867.43,1922.06,-250.55
6580,-3.8740,0.1681,-0.2360,414.31,93.99,1327.64
6590,-3.8740,0.2362,-0.2194,1523.68,1797.18,62.01
6600,-3.8740,0.3329,-0.2007,-1757.57,-77.70,265.14
6610,-3.8740,0.4440,-0.1885,-1382.57,-1686.89,1765.20
6620,-3.8739,0.5582,-0.1810,836.18,-124.15,952.70
6630,-3.8738,0.6727,-0.1699,-538.82,829.16,-1140.99
6640,-3.8734,0.7832,-0.1523,-1882.57,-1748.72,390.26
6650,-3.8730,0.8702,-0.1437,258.06,501.53,827.82
6660,-3.8727,0.9071,-0.1686,-601.32,1611.02,-1422.18
6670,-3.8723,0.8835,-0.2126,117.43,-1576.35,-0.37
6680,-3.8719,0.8073,-0.2419,1101.81,782.96,-500.43
6690,-3.8717,0.6951,-0.2574,-663.82,1032.78,-328.61
6700,-3.8716,0.5736,-0.2742,976.81,-951.78,-1391.17
6710,-3.8716,0.4742,-0.2946,1429.93,907.35,483.83
6720,-3.8717,0.4169,-0.3154,711.18,-1702.21,280.64
6730,-3.8718,0.4059,-0.3287,1367.43,-374.21,889.95
6740,-3.8718,0.4331,-0.3304,-38.82,1922.61,124.33
6750,-3.8718,0.4780,-0.3296,-554.44,1703.92,1843.08
6760,-3.8717,0.5200,-0.3337,1195.56,1813.42,93.08
6770,-3.8717,0.5487,-0.3419,-1429.44,1282.23,1796.20
6780,-3.8717,0.5626,-0.3491,-1757.57,235.41,-1188.17
6790,-3.8717,0.5699,-0.3505,23.68,-686.40,-1078.86
6800,-3.8717,0.5851,-0.3478,961.18,-858.28,-1250.73
6810,-3.8717,0.6140,-0.3512,-1101.32,-514.53,-297.61
6820,-3.8716,0.6528,-0.3695,-1398.19,-951.97,-1953.86
6830,-3.8715,0.6980,-0.4009,-429.44,704.35,1139.89
6840,-3.8713,0.7441,-0.4323,1351.81,688.84,952.33
6850,-3.8712,0.7803,-0.4492,-741.94,673.28,1452.27
6860,-3.8711,0.7971,-0.4493,-116.94,-1498.54,-1704.04
6870,-3.8710,0.7935,-0.4489,-1960.69,-1514.10,-704.04
6880,-3.8707,0.7756,-0.4647,1570.56,-1451.60,639.71
6890,-3.8706,0.7545,-0.4969,-710.69,517.09,-1594.67
6900,-3.8704,0.7399,-0.5416,586.18,392.09,186.52
6910,-3.8702,0.7332,-0.5957,-1288.82,-1326.72,1077.03
6920,-3.8701,0.7274,-0.6339,1851.81,-248.60,280.03
6930,-3.8701,0.7195,-0.6293,1117.43,-1139.22,1592.47
6940,-3.8701,0.7167,-0.5958,101.81,-545.47,-1985.66
6950,-3.8701,0.7327,-0.5735,-257.57,-264.28,-860.60
6960,-3.8700,0.7748,-0.5862,1789.31,-1404.85,1186.34
6970,-3.8699,0.8302,-0.6222,-820.07,970.21,342.59
6980,-3.8698,0.8802,-0.6599,-1726.32,360.96,873.78
6990,-3.8696,0.9149,-0.6914,679.93,-467.04,1670.53
7000,-3.8695,0.9303,-0.7150,1117.43,-498.23,1295.47
7010,-3.8695,0.9224,-0.7354,-913.82,486.15,-1095.15
7020,-3.8695,0.8934,-0.7595,-1929.44,1876.77,-1360.84
7030,-3.8695,0.8508,-0.7847,-1632.57,-1217.04,1107.85
7040,-3.8696,0.7979,-0.8037,914.31,-435.85,-1360.96
7050,-3.8698,0.7355,-0.8207,-1866.94,1126.53,-689.09
7060,-3.8699,0.6638,-0.8464,-1851.32,-1045.47,-470.40
7070,-3.8700,0.5822,-0.8835,976.81,-342.47,-314.21
7080,-3.8700,0.4958,-0.9233,-1476.32,-1092.65,13.85
7090,-3.8701,0.4167,-0.9573,-523.19,1813.42,873.17
7100,-3.8702,0.3531,-0.9829,1351.81,1469.54,-1173.77
7110,-3.8702,0.3049,-0.9969,1211.18,-1811.83,1794.92
7120,-3.8702,0.2626,-0.9940,-960.69,391.17,716.80
7130,-3.8704,0.2142,-0.9796,1617.43,766.11,-1267.58
7140,-3.8704,0.1562,-0.9701,-570.07,-1390.26,154.30
7150,-3.8705,0.0895,-0.9779,8.06,-171.57,1466.80
7160,-3.8706,0.0146,-0.9984,-538.82,-1171.75,-1376.95
7170,-3.8707,-0.0610,-1.0142,1883.06,203.12,-236.33
7180,-3.8707,-0.1252,-1.0079,195.56,-1797.00,857.36
7190,-3.8708,-0.1632,-0.9696,-23.19,-1000.31,1716.74
7200,-3.8710,-0.1667,-0.9076,-882.57,-94.12,-1501.95
7210,-3.8711,-0.1499,-0.8411,-1335.69,-156.62,-861.21
7220,-3.8712,-0.1382,-0.7844,820.56,359.07,-486.02
7230,-3.8713,-0.1476,-0.7434,-1679.44,-390.93,-360.96
7240,-3.8715,-0.1808,-0.7173,1117.43,859.07,-313.96
7250,-3.8716,-0.2313,-0.6965,867.43,202.76,-688.90
7260,-3.8717,-0.2799,-0.6580,-1601.32,-1141.11,1795.47
7270,-3.8719,-0.3043,-0.5946,179.93,-203.67,-688.84
7280,-3.8721,-0.2974,-0.5247,1054.93,-94.36,545.65
7290,-3.8723,-0.2727,-0.4585,1945.56,858.76,1702.09
7300,-3.8726,-0.2539,-0.3938,1101.81,1327.58,-579.04
7310,-3.8727,-0.2612,-0.3308,-491.94,1608.83,-1735.17
7320,-3.8728,-0.2972,-0.2831,-1429.44,1671.33,1936.83
7330,-3.8729,-0.3436,-0.2705,1961.18,-219.36,1733.76
7340,-3.8730,-0.3794,-0.2905,23.68,1389.95,1046.33
7350,-3.8733,-0.3944,-0.3212,-554.44,-1172.67,-375.61
7360,-3.8734,-0.3833,-0.3451,1523.68,-1094.54,1905.58
7370,-3.8735,-0.3416,-0.3501,-1054.44,-157.04,593.02
7380,-3.8737,-0.2767,-0.3269,289.31,-797.55,249.27
7390,-3.8738,-0.2104,-0.2833,586.18,-1828.67,1124.33
7400,-3.8739,-0.1573,-0.2487,1070.56,-250.43,-1047.49
7410,-3.8739,-0.1134,-0.2456,-132.57,187.13,1280.76
7420,-3.8739,-0.0706,-0.2666,1492.43,577.88,62.01
7430,-3.8740,-0.0250,-0.2920,-1023.19,1890.44,-578.67
7440,-3.8740,0.0278,-0.3101,804.93,-1359.44,-875.61
7450,-3.8740,0.0919,-0.3136,-429.44,312.50,-1234.99
7460,-3.8740,0.1635,-0.2980,-226.32,-140.50,-1516.30
7470,-3.8740,0.2275,-0.2670,929.93,1859.68,-1313.11
7480,-3.8740,0.2676,-0.2367,1133.06,1828.55,-625.55
7490,-3.8740,0.2799,-0.2264,-1741.94,1703.61,-31.74
7500,-3.8740,0.2809,-0.2385,-163.82,-983.89,-47.36
7510,-3.8740,0.2947,-0.2590,-38.82,1469.24,-0.49
7520,-3.8739,0.3335,-0.2769,1726.81,-1155.70,1061.95
7530,-3.8739,0.3870,-0.2773,-1304.44,563.11,-828.67
7540,-3.8738,0.4352,-0.2533,1539.31,500.73,1796.33
7550,-3.8737,0.4655,-0.2267,-288.82,-421.08,15.08
7560,-3.8737,0.4741,-0.2246,-413.82,-1014.77,452.64
7570,-3.8738,0.4681,-0.2532,695.56,-749.08,-500.49
7580,-3.8738,0.4695,-0.3043,-70.07,-405.40,-500.55
7590,-3.8737,0.5017,-0.3698,101.81,1047.79,-1469.36
7600,-3.8734,0.5703,-0.4391,226.81,672.85,936.77
7610,-3.8732,0.6591,-0.4941,1008.06,-202.03,952.21
7620,-3.8729,0.7394,-0.5143,367.43,751.28,1374.02
7630,-3.8727,0.7894,-0.5027,-1351.32,-1826.72,-1376.04
7640,-3.8723,0.8087,-0.4938,1054.93,-342.22,358.34
7650,-3.8721,0.8120,-0.5282,-476.32,798.40,1842.77
7660,-3.8717,0.8184,-0.6168,-54.44,392.15,14.59
7670,-3.8715,0.8374,-0.7234,758.06,1048.46,-63.72
7680,-3.8710,0.8612,-0.7897,-804.44,-592.16,170.41
7690,-3.8707,0.8750,-0.7810,-1757.57,-1076.48,-1564.09
7700,-3.8705,0.8710,-0.7279,8.06,32.96,-1751.53
7710,-3.8702,0.8528,-0.7062,-507.57,-1170.23,748.54
7720,-3.8701,0.8263,-0.7573,1164.31,1611.02,-517.03
7730,-3.8699,0.7914,-0.8513,1773.68,-935.91,-1282.78
7740,-3.8696,0.7408,-0.9395,1304.93,-967.22,1170.17
7750,-3.8695,0.6715,-0.9921,-1163.82,-248.60,1982.48
7760,-3.8694,0.5945,-0.9971,1961.18,1016.91,-1564.45
7770,-3.8691,0.5298,-0.9744,101.81,376.16,841.80
7780,-3.8689,0.4918,-0.9657,-179.44,-717.77,1310.55
7790,-3.8687,0.4834,-0.9930,-1038.82,391.54,1701.23
7800,-3.8685,0.4944,-1.0464,1883.06,891.54,-95.70
7810,-3.8684,0.5010,-1.1110,-710.69,-1936.58,-1689.58
7820,-3.8684,0.4735,-1.1768,133.06,1797.85,450.93
7830,-3.8687,0.3993,-1.2356,617.43,1375.92,-439.82
7840,-3.8688,0.2947,-1.2803,-882.57,1844.48,981.93
7850,-3.8690,0.1906,-1.3030,1726.81,125.55,-1955.63
7860,-3.8691,0.1115,-1.2965,398.68,1219.12,216.19
7870,-3.8693,0.0646,-1.2610,-1726.32,-1952.94,341.19
7880,-3.8694,0.0433,-1.2169,273.68,-1406.13,-1908.75
7890,-3.8694,0.0348,-1.1865,1554.93,234.44,91.37
7900,-3.8695,0.0225,-1.1818,461.18,125.06,1419.56
7910,-3.8696,-0.0109,-1.2065,-1116.94,734.38,-1596.07
7920,-3.8696,-0.0779,-1.2421,-1382.57,1578.06,1028.87
7930,-3.8696,-0.1727,-1.2578,-1960.69,1031.07,-1533.69
7940,-3.8695,-0.2686,-1.2374,1898.68,-984.74,544.37
7950,-3.8696,-0.3353,-1.1890,1633.06,1624.45,-143.07
7960,-3.8698,-0.3567,-1.1349,1086.18,-172.55,-611.76
7970,-3.8699,-0.3389,-1.0934,-1648.19,-1250.73,169.62
7980,-3.8702,-0.3033,-1.0643,633.06,61.83,-267.76
7990,-3.8705,-0.2766,-1.0348,1179.93,-219.36,-627.14
8000,-3.8707,-0.2792,-0.9980,601.81,-438.05,-330.20
8010,-3.8708,-0.3120,-0.9585,273.68,265.08,529.30
8020,-3.8711,-0.3616,-0.9218,70.56,1327.51,1185.61
8030,-3.8713,-0.4111,-0.8843,1726.81,-1969.48,1029.42
8040,-3.8717,-0.4520,-0.8398,-616.94,-1172.73,-17.40
8050,-3.8719,-0.4838,-0.7849,-1851.32,514.71,-1876.65
8060,-3.8723,-0.5083,-0.7166,-1913.82,-454.10,-32.84
8070,-3.8726,-0.5266,-0.6420,-1054.44,295.84,1920.47
8080,-3.8728,-0.5325,-0.5682,601.81,1842.71,545.59
8090,-3.8730,-0.5105,-0.4958,-148.19,-719.85,436.34
8100,-3.8733,-0.4553,-0.4333,-1335.69,545.84,1889.65
8110,-3.8734,-0.3765,-0.3878,1726.81,545.96,1264.77
8120,-3.8735,-0.2867,-0.3536,-179.44,-1625.79,-1094.54
8130,-3.8735,-0.2021,-0.3243,-695.07,-1250.61,-1563.23
8140,-3.8735,-0.1371,-0.2958,-1866.94,-1500.43,-250.67
8150,-3.8734,-0.1001,-0.2645,-1538.82,-1844.06,-1531.86
8160,-3.8733,-0.0955,-0.2349,-804.44,-1843.99,1030.70
8170,-3.8733,-0.1172,-0.2183,-210.69,1952.88,-1562.99
8180,-3.8733,-0.1526,-0.2184,1008.06,77.88,-1594.18
8190,-3.8733,-0.1891,-0.2272,476.81,62.19,1108.95
8200,-3.8734,-0.2152,-0.2328,-195.07,-1062.93,-406.74
8210,-3.8734,-0.2279,-0.2335,461.18,-1781.68,-1203.61
8220,-3.8734,-0.2295,-0.2336,-1163.82,-1875.49,-1062.99
8230,-3.8734,-0.2170,-0.2313,-1366.94,-1891.11,-500.49
8240,-3.8734,-0.1915,-0.2246,226.81,-1594.18,-344.24
8250,-3.8734,-0.1622,-0.2119,-507.57,-734.80,-1234.86
8260,-3.8734,-0.1377,-0.1951,-757.57,890.26,608.95
8270,-3.8735,-0.1213,-0.1802,-1616.94,-953.43,1343.32
8280,-3.8737,-0.1102,-0.1704,476.81,952.88,1374.63
8290,-3.8738,-0.1028,-0.1628,1898.68,-1797.12,1109.01
8300,-3.8739,-0.1002,-0.1538,-1148.19,-828.37,874.63
8310,-3.8740,-0.1023,-0.1420,-820.07,327.88,859.07
8320,-3.8741,-0.1005,-0.1295,-1085.69,1843.51,1562.19
8330,-3.8743,-0.0792,-0.1239,-851.32,-562.74,-656.56
8340,-3.8743,-0.0333,-0.1312,1867.43,156.07,-1609.62
8350,-3.8743,0.0249,-0.1400,-257.57,-781.37,-344.06
8360,-3.8741,0.0756,-0.1309,-804.44,-1921.88,-781.56
8370,-3.8740,0.1100,-0.1104,1679.93,-749.88,-437.81
8380,-3.8739,0.1373,-0.0980,-1913.82,1875.18,-843.99
8390,-3.8738,0.1731,-0.1022,1586.18,-546.63,1827.88
8400,-3.8737,0.2240,-0.1278,-1835.69,-1077.82,656.01
8410,-3.8735,0.2875,-0.1764,679.93,-358.95,468.44
8420,-3.8734,0.3568,-0.2356,804.93,1422.42,1780.88
8430,-3.8732,0.4193,-0.2864,1679.93,1844.42,827.64
8440,-3.8729,0.4624,-0.3252,1679.93,-655.46,827.51
8450,-3.8727,0.4868,-0.3737,-804.44,-1624.15,249.33
8460,-3.8726,0.5032,-0.4537,-1679.44,172.79,-1594.48
8470,-3.8724,0.5170,-0.5587,414.31,1922.85,-422.79
8480,-3.8723,0.5231,-0.6631,-1820.07,485.35,-876.10
8490,-3.8722,0.5074,-0.7529,-1038.82,-874.02,295.53
8500,-3.8722,0.4644,-0.8258,961.18,-374.02,810.97
8510,-3.8722,0.4138,-0.8717,-554.44,-1702.27,-17.27
8520,-3.8719,0.3868,-0.8964,976.81,422.67,-439.21
8530,-3.8716,0.3907,-0.9299,1523.68,1266.36,-1720.52
8540,-3.8712,0.4143,-0.9880,-1976.32,969.48,1576.29
8550,-3.8710,0.4449,-1.0699,1039.31,1532.04,-376.95
8560,-3.8707,0.4684,-1.1658,961.18,-952.27,-174.01
8570,-3.8705,0.4685,-1.2424,-38.82,-1217.90,-1236.69
8580,-3.8702,0.4421,-1.2727,-23.19,969.60,1622.56
8590,-3.8700,0.4111,-1.2584,601.81,1094.60,700.62
8600,-3.8699,0.4010,-1.2175,633.06,-1077.33,-65.00
8610,-3.8696,0.4219,-1.1725,-663.82,156.98,-1314.88
8620,-3.8695,0.4724,-1.1407,-1991.94,1922.67,-721.07
8630,-3.8694,0.5427,-1.1256,476.81,1985.29,169.62
8640,-3.8695,0.6188,-1.1190,1476.81,-77.09,1810.24
8650,-3.8696,0.6825,-1.1178,-788.82,766.78,-1955.32
8660,-3.8698,0.7153,-1.1227,-632.57,923.16,-1642.82
8670,-3.8699,0.7109,-1.1282,-429.44,298.22,-580.32
8680,-3.8699,0.6794,-1.1229,-991.94,-404.91,841.49
8690,-3.8700,0.6357,-1.1036,-1023.19,266.91,-1924.07
8700,-3.8701,0.5907,-1.0792,1383.06,-1264.40,-377.20
8710,-3.8701,0.5521,-1.0604,-382.57,1860.47,-1705.26
8720,-3.8701,0.5229,-1.0498,-1320.07,266.66,1372.92
8730,-3.8702,0.5027,-1.0416,-1054.44,1625.98,-970.83
8740,-3.8704,0.4910,-1.0326,351.81,-1327.15,-1627.08
8750,-3.8706,0.4863,-1.0229,-1148.19,-170.96,-423.95
8760,-3.8708,0.4860,-1.0128,-1741.94,1063.42,-298.89
8770,-3.8710,0.4836,-1.0062,-1788.82,-1639.71,419.86
8780,-3.8712,0.4734,-1.0050,1914.31,-795.96,-1189.51
8790,-3.8713,0.4591,-1.0045,601.81,-639.71,-1236.39
8800,-3.8713,0.4500,-0.9961,-1226.32,-577.27,122.99
8810,-3.8715,0.4481,-0.9739,1601.81,500.85,-1455.08
8820,-3.8715,0.4502,-0.9417,1367.43,-655.40,1373.05
8830,-3.8715,0.4491,-0.9169,1633.06,-530.40,248.11
8840,-3.8716,0.4357,-0.9205,1492.43,-1358.52,-1298.71
8850,-3.8717,0.4041,-0.9600,-226.32,-1827.33,-48.71
8860,-3.8717,0.3545,-1.0267,-273.19,1125.73,154.36
8870,-3.8718,0.2911,-1.1045,1383.06,578.80,497.99
8880,-3.8719,0.2218,-1.1750,1273.68,-1374.45,1685.30
8890,-3.8721,0.1556,-1.2217,398.68,1594.18,-283.57
8900,-3.8721,0.0964,-1.2424,-70.07,-374.76,1716.31
8910,-3.8722,0.0459,-1.2390,351.81,968.93,-893.07
8920,-3.8722,0.0062,-1.2094,1883.06,1406.31,560.06
8930,-3.8723,-0.0250,-1.1613,804.93,1203.12,-674.26
8940,-3.8722,-0.0526,-1.1058,804.93,-625.06,169.56
8950,-3.8722,-0.0847,-1.0492,1273.68,-1531.37,-1299.07
8960,-3.8721,-0.1315,-1.0001,1164.31,1718.57,1638.55
8970,-3.8721,-0.1945,-0.9656,-820.07,-0.31,-236.39
8980,-3.8719,-0.2648,-0.9407,-882.57,421.45,76.23
8990,-3.8721,-0.3289,-0.9144,-1882.57,-391.17,-1845.64
9000,-3.8722,-0.3685,-0.8740,1914.31,-1031.92,-1720.58
9010,-3.8723,-0.3726,-0.8206,836.18,139.89,1498.29
9020,-3.8724,-0.3469,-0.7639,320.56,-1016.36,685.85
9030,-3.8726,-0.3043,-0.7076,-398.19,-1766.36,217.22
9040,-3.8727,-0.2587,-0.6550,1054.93,1436.89,295.47
9050,-3.8728,-0.2238,-0.6146,-1101.32,171.33,795.59
9060,-3.8729,-0.2052,-0.5939,-632.57,1343.26,1217.53
9070,-3.8730,-0.2025,-0.5914,1742.43,-0.43,1139.40
9080,-3.8732,-0.2142,-0.5957,-1913.82,312.07,389.47
9090,-3.8734,-0.2330,-0.5898,586.18,-234.80,-1079.35
9100,-3.8735,-0.2428,-0.5663,-1820.07,515.14,1061.34
9110,-3.8738,-0.2357,-0.5314,929.93,-469.24,-626.16
9120,-3.8739,-0.2157,-0.4893,1836.18,-0.49,-1485.47
9130,-3.8740,-0.1858,-0.4396,398.68,1390.20,-1157.23
9140,-3.8740,-0.1497,-0.3888,226.81,-250.37,405.33
9150,-3.8741,-0.1124,-0.3490,851.81,-1750.31,-953.92
9160,-3.8741,-0.0752,-0.3287,1617.43,-656.49,-1625.73
9170,-3.8741,-0.0372,-0.3270,-1616.94,1937.32,-1860.05
9180,-3.8741,0.0015,-0.3334,-757.57,-1843.87,-1985.05
9190,-3.8741,0.0444,-0.3365,195.56,1328.12,1905.58
9200,-3.8741,0.0945,-0.3260,1695.56,921.94,-1860.05
9210,-3.8741,0.1444,-0.2986,101.81,-1734.19,-844.42
9220,-3.8740,0.1847,-0.2716,-1507.57,1781.49,843.14
9230,-3.8740,0.2247,-0.2622,-351.32,1234.68,-1578.67
9240,-3.8740,0.2748,-0.2667,773.68,-1562.07,-672.42
9250,-3.8740,0.3243,-0.2775,-820.07,1859.86,-859.92
9260,-3.8740,0.3668,-0.2861,1523.68,484.99,1390.08
9270,-3.8741,0.4100,-0.2802,-1038.82,-624.33,-1156.86
9280,-3.8741,0.4565,-0.2601,492.43,141.42,1671.33
9290,-3.8741,0.4944,-0.2430,-1554.44,-1296.02,-734.92
9300,-3.8740,0.5155,-0.2469,-710.69,891.54,-844.24
9310,-3.8739,0.5248,-0.2761,1992.43,391.60,-31.74
9320,-3.8737,0.5297,-0.3236,-820.07,657.23,671.33
9330,-3.8735,0.5359,-0.3856,-195.07,-1420.90,311.83
9340,-3.8735,0.5566,-0.4508,601.81,-1358.34,-313.29
9350,-3.8733,0.5972,-0.5009,-741.94,-1702.09,889.71
9360,-3.8730,0.6382,-0.5332,445.56,-108.22,30.21
9370,-3.8729,0.6646,-0.5647,1695.56,-248.78,-313.60
9380,-3.8727,0.6804,-0.6172,1070.56,-279.97,-1344.91
9390,-3.8724,0.6945,-0.7019,-898.19,1001.28,1467.53
9400,-3.8722,0.7152,-0.7993,898.68,-1842.41,1936.10
9410,-3.8718,0.7507,-0.8766,-445.07,1688.84,748.41
9420,-3.8715,0.8047,-0.9249,101.81,-201.66,873.23
9430,-3.8711,0.8737,-0.9587,-991.94,1610.90,1013.79
9440,-3.8708,0.9395,-0.9927,-163.82,1282.90,-80.02
9450,-3.8705,0.9760,-1.0391,258.06,939.33,701.17
9460,-3.8704,0.9680,-1.1023,929.93,-998.11,-892.70
9470,-3.8701,0.9219,-1.1764,-85.69,-1091.92,169.68
9480,-3.8700,0.8558,-1.2531,-1991.94,1423.65,1372.68
9490,-3.8699,0.7870,-1.3224,1554.93,-388.98,-1299.38
9500,-3.8698,0.7242,-1.3727,742.43,-1264.10,-565.12
9510,-3.8696,0.6693,-1.3885,711.18,298.28,-315.19
9520,-3.8695,0.6149,-1.3773,1679.93,-1733.09,-534.00
9530,-3.8694,0.5574,-1.3679,-1288.82,-295.72,1403.50
9540,-3.8694,0.4994,-1.3685,-648.19,907.29,466.06
9550,-3.8695,0.4387,-1.3694,-70.07,829.04,1294.19
9560,-3.8696,0.3779,-1.3682,164.31,719.60,1325.44
9570,-3.8698,0.3208,-1.3719,383.06,875.73,887.94
9580,-3.8700,0.2661,-1.3850,1070.56,391.24,-783.94
9590,-3.8702,0.2113,-1.3951,-1929.44,-1280.76,-112.12
9600,-3.8705,0.1558,-1.3912,-945.07,1422.24,-409.00
9610,-3.8707,0.1075,-1.3817,-54.44,1922.12,-80.87
9620,-3.8708,0.0709,-1.3772,1773.68,-859.19,-1674.62
9630,-3.8710,0.0425,-1.3711,1086.18,-281.13,-393.37
9640,-3.8710,0.0250,-1.3514,1445.56,500.06,-627.69
9650,-3.8708,0.0208,-1.3143,-788.82,-984.38,153.56
9660,-3.8708,0.0240,-1.2677,-1335.69,-234.38,638.00
9670,-3.8708,0.0260,-1.2242,-913.82,1734.38,185.00
9680,-3.8710,0.0164,-1.1917,-663.82,-703.12,-1268.07
9690,-3.8710,-0.0078,-1.1733,-1898.19,-531.25,91.37
9700,-3.8711,-0.0406,-1.1664,-991.94,1828.06,794.56
9710,-3.8712,-0.0796,-1.1611,-1195.07,-1281.37,1778.93
9720,-3.8713,-0.1210,-1.1479,1820.56,-609.56,-658.57
9730,-3.8713,-0.1537,-1.1256,523.68,1077.88,1638.37
9740,-3.8713,-0.1743,-1.1072,336.18,-62.81,825.87
9750,-3.8713,-0.1896,-1.1025,1695.56,-1703.49,716.55
9760,-3.8713,-0.2028,-1.1023,-257.57,-1109.80,419.68
9770,-3.8715,-0.2073,-1.0891,-1945.07,-1078.55,-1064.70
9780,-3.8716,-0.2014,-1.0573,1476.81,608.95,-142.76
9790,-3.8717,-0.1920,-1.0161,-1773.19,687.07,-642.70
9800,-3.8718,-0.1863,-0.9775,-570.07,1952.70,1904.24
9810,-3.8721,-0.1891,-0.9415,164.31,-1109.74,-80.08
9820,-3.8722,-0.2037,-0.9038,-195.07,-500.43,1669.98
9830,-3.8724,-0.2303,-0.8633,1929.93,327.70,-798.65
9840,-3.8726,-0.2627,-0.8188,-1476.32,1515.14,310.79
9850,-3.8728,-0.2920,-0.7709,-1616.94,-797.42,998.35
9860,-3.8730,-0.3118,-0.7212,-1366.94,1343.14,1295.35
9870,-3.8733,-0.3202,-0.6715,101.81,-297.49,1420.41
9880,-3.8735,-0.3221,-0.6237,-976.32,-1938.17,1936.16
9890,-3.8738,-0.3256,-0.5811,-1226.32,186.83,-798.10
9900,-3.8739,-0.3335,-0.5457,-1663.82,1639.95,1123.84
9910,-3.8741,-0.3411,-0.5118,1320.56,-1828.80,-688.60
9920,-3.8743,-0.3422,-0.4756,351.81,-1500.67,1545.84
9930,-3.8745,-0.3333,-0.4382,211.18,-860.05,-141.60
9940,-3.8746,-0.3118,-0.3994,1351.81,-78.80,-1235.29
9950,-3.8748,-0.2750,-0.3566,101.81,890.01,-1141.42
9960,-3.8748,-0.2242,-0.3143,804.93,-1625.55,249.27
9970,-3.8749,-0.1648,-0.2858,-695.07,-219.24,-360.05
9980,-3.8748,-0.1039,-0.2753,-1085.69,-562.87,-1984.99
9990,-3.8746,-0.0515,-0.2726,-1288.82,781.01,-1125.55
10000,-3.8744,-0.0139,-0.2693,1414.31,1124.88,515.08
10010,-3.8743,0.0107,-0.2632,-1773.19,1546.81,1202.58
10020,-3.8743,0.0294,-0.2510,1383.06,-1687.50,-281.80
10030,-3.8741,0.0482,-0.2328,-226.32,-125.00,249.45
10040,-3.8743,0.0712,-0.2159,-1820.07,-1796.81,-219.24
10050,-3.8743,0.1023,-0.2109,1117.43,359.50,-1062.93
10060,-3.8743,0.1454,-0.2207,1101.81,1000.18,-1547.30
10070,-3.8743,0.1979,-0.2391,-1382.57,-249.76,-1594.24
10080,-3.8743,0.2571,-0.2527,1336.18,1390.99,-1625.49
10090,-3.8743,0.3260,-0.2385,914.31,-343.26,-1375.55
10100,-3.8741,0.4037,-0.1906,1742.43,1469.36,108.89
10110,-3.8741,0.4821,-0.1328,-320.07,-389.89,-219.18
10120,-3.8739,0.5493,-0.0934,1711.18,-999.08,1155.94
10130,-3.8738,0.5902,-0.0736,-1679.44,47.91,-1500.18
10140,-3.8737,0.6001,-0.0553,-445.07,-1420.78,1968.57
10150,-3.8737,0.5939,-0.0293,820.56,923.03,-781.37
10160,-3.8737,0.5962,-0.0022,23.68,251.16,-265.69
10170,-3.8735,0.6274,0.0146,320.56,-280.09,1687.44
10180,-3.8734,0.6937,0.0043,320.56,1876.22,-1500.00
10190,-3.8732,0.7767,-0.0428,804.93,548.22,1734.38
10200,-3.8729,0.8423,-0.0991,-570.07,-1482.91,-1406.37
10210,-3.8726,0.8754,-0.1321,-179.44,-685.91,359.13
10220,-3.8723,0.8884,-0.1510,54.93,-904.54,1827.82
10230,-3.8721,0.9061,-0.1782,1726.81,673.58,1687.19
10240,-3.8719,0.9493,-0.2166,-7.57,1189.21,-812.87
10250,-3.8718,1.0264,-0.2604,1523.68,283.08,-1062.93
10260,-3.8717,1.1288,-0.3094,-616.94,-1326.17,-1578.67
10270,-3.8716,1.2307,-0.3636,492.43,392.82,-1203.74
10280,-3.8715,1.3033,-0.4189,1539.31,1455.51,-94.48
10290,-3.8712,1.3334,-0.4718,-1163.82,-1622.50,842.90
10300,-3.8711,1.3250,-0.5204,-1320.07,-388.06,655.27
10310,-3.8711,1.2916,-0.5627,1601.81,1393.19,-688.54
10320,-3.8710,1.2476,-0.5924,1336.18,-28.75,1936.34
10330,-3.8708,1.2062,-0.6097,-304.44,174.26,1545.72
10340,-3.8707,1.1752,-0.6273,-1601.32,1955.44,1967.53
10350,-3.8706,1.1521,-0.6504,-1570.07,-294.62,1936.22
10360,-3.8705,1.1281,-0.6732,-523.19,752.20,14.34
10370,-3.8706,1.0962,-0.6940,398.68,1830.32,-485.72
10380,-3.8706,1.0605,-0.7188,320.56,-825.99,701.72
10390,-3.8707,1.0330,-0.7679,-241.94,2.01,701.72
10400,-3.8708,1.0179,-0.8436,226.81,1705.14,1873.47
10410,-3.8708,1.0045,-0.8993,-1695.07,17.58,-1736.02
10420,-3.8707,0.9811,-0.9042,586.18,892.58,1154.48
10430,-3.8707,0.9537,-0.8798,1586.18,267.52,-204.90
10440,-3.8706,0.9357,-0.8547,-1913.82,-607.54,295.10
10450,-3.8707,0.9302,-0.8425,-226.32,-1404.48,-923.58
10460,-3.8707,0.9315,-0.8496,-929.44,158.02,1263.98
10470,-3.8708,0.9297,-0.8894,-757.57,-748.23,-876.71
10480,-3.8708,0.9194,-0.9528,-991.94,-1841.98,513.85
10490,-3.8710,0.8986,-0.9977,1695.56,-1951.35,-1783.14
10500,-3.8710,0.8633,-0.9990,-976.32,298.58,1029.30
10510,-3.8710,0.8168,-0.9695,-1491.94,126.65,529.30
10520,-3.8711,0.7684,-0.9318,554.93,-92.16,-189.45
10530,-3.8711,0.7235,-0.9016,-1632.57,735.84,-1595.58
10540,-3.8711,0.6826,-0.8893,617.43,595.15,451.35
10550,-3.8712,0.6448,-0.9028,-616.94,-1826.84,-1579.90
10560,-3.8712,0.6102,-0.9493,-1460.69,438.72,826.35
10570,-3.8713,0.5764,-1.0258,-1882.57,-1514.47,-142.52
10580,-3.8713,0.5376,-1.1077,1789.31,704.22,-377.01
10590,-3.8713,0.4917,-1.1649,820.56,-1780.21,-33.45
10600,-3.8712,0.4390,-1.1855,-1054.44,-1108.46,200.81
10610,-3.8713,0.3813,-1.1737,195.56,250.85,-64.82
10620,-3.8713,0.3239,-1.1462,820.56,1766.36,-658.57
10630,-3.8713,0.2684,-1.1249,1461.18,1281.86,-1752.26
10640,-3.8713,0.2124,-1.1129,-1632.57,16.11,450.93
10650,-3.8715,0.1538,-1.0986,-804.44,1547.24,1950.93
10660,-3.8716,0.0957,-1.0732,-304.44,-624.76,-892.82
10670,-3.8716,0.0416,-1.0328,258.06,-1374.82,544.74
10680,-3.8717,-0.0054,-0.9828,1336.18,-203.06,-1845.83
10690,-3.8718,-0.0406,-0.9313,-679.44,-1781.31,-689.45
10700,-3.8719,-0.0602,-0.8805,-1195.07,812.38,-1.83
10710,-3.8719,-0.0635,-0.8317,304.93,-687.62,420.10
10720,-3.8721,-0.0554,-0.7880,-116.94,1562.32,685.85
10730,-3.8722,-0.0455,-0.7545,914.31,-843.87,1060.91
10740,-3.8723,-0.0439,-0.7316,-1820.07,-562.62,1607.85
10750,-3.8724,-0.0586,-0.7100,-1616.94,-1625.12,1842.29
10760,-3.8726,-0.0881,-0.6833,508.06,1140.50,1857.97
10770,-3.8727,-0.1232,-0.6534,726.81,546.69,1717.41
10780,-3.8728,-0.1559,-0.6233,242.43,374.76,1404.97
10790,-3.8729,-0.1854,-0.6003,54.93,234.07,1108.15
10800,-3.8730,-0.2186,-0.5929,273.68,-828.49,623.78
10810,-3.8733,-0.2616,-0.6033,23.68,124.57,-188.66
10820,-3.8734,-0.3090,-0.6283,-1476.32,-1203.67,-1001.22
10830,-3.8735,-0.3479,-0.6644,461.18,-406.86,-1626.28
10840,-3.8737,-0.3671,-0.7083,-523.19,-1031.98,1779.91
10850,-3.8738,-0.3579,-0.7461,1023.68,1358.64,1311.10
10860,-3.8739,-0.3184,-0.7600,-1804.44,514.89,1201.66
10870,-3.8740,-0.2667,-0.7455,-741.94,-1266.30,1670.35
10880,-3.8741,-0.2316,-0.7072,1867.43,593.20,-1720.21
10890,-3.8743,-0.2218,-0.6538,-1632.57,1499.51,-1423.28
10900,-3.8744,-0.2189,-0.6041,-382.57,327.64,-1860.66
10910,-3.8745,-0.1962,-0.5671,-7.57,-1312.99,639.40
10920,-3.8748,-0.1379,-0.5354,-1101.32,-578.55,-1344.91
10930,-3.8749,-0.0449,-0.5048,-1648.19,-515.93,983.28
10940,-3.8750,0.0745,-0.4734,-1741.94,-593.87,233.34
10950,-3.8439,0.2087,-0.4351,1539.31,-593.63,858.40
10960,-3.8440,0.3363,-0.3842,-1273.19,312.87,-1313.35
10970,-3.8440,0.4395,-0.3241,-945.07,-1171.26,1639.83
10980,-3.8440,0.5212,-0.2653,258.06,-1483.52,1499.33
10990,-3.8440,0.5931,-0.2172,-1273.19,-1952.15,-1859.92
11000,-3.8439,0.6639,-0.1870,-70.07,204.22,93.32
11010,-3.8439,0.7433,-0.1821,992.43,63.78,-562.87
11020,-3.8749,0.8347,-0.2012,-851.32,688.90,171.51
11030,-3.8748,0.9299,-0.2292,-1148.19,-1748.41,-1172.30
11040,-3.8745,1.0140,-0.2524,-960.69,-1341.98,-547.36
11050,-3.8741,1.0753,-0.2734,1804.93,-310.55,1624.45
11060,-3.8738,1.0975,-0.3097,1648.68,1002.08,1046.33
11070,-3.8734,1.0736,-0.3643,492.43,361.51,1561.89
11080,-3.8730,1.0282,-0.4169,1429.93,1377.08,-1656.98
11090,-3.8727,0.9966,-0.4552,-382.57,-1357.42,1061.65
11100,-3.8724,1.0077,-0.4821,-429.44,1736.27,186.58
11110,-3.8723,1.0706,-0.5024,992.43,-1701.17,889.65
11120,-3.8722,1.1542,-0.5270,1039.31,-310.42,1764.59
11130,-3.8719,1.2209,-0.5580,-257.57,549.07,327.09
11140,-3.8717,1.2642,-0.5885,289.31,580.51,498.90
11150,-3.8715,1.2863,-0.6265,1820.56,674.32,889.47
11160,-3.8713,1.2944,-0.6815,648.68,-185.00,-657.53
11170,-3.8712,1.3090,-0.7424,1695.56,768.13,-673.22
11180,-3.8711,1.3342,-0.7977,-445.07,971.25,-1751.46
11190,-3.8710,1.3541,-0.8467,-1210.69,1893.19,1295.29
11200,-3.8708,1.3569,-0.8882,1336.18,-372.38,935.79
11210,-3.8707,1.3383,-0.9277,1695.56,-1684.88,685.73
11220,-3.8707,1.2979,-0.9697,-695.07,1252.56,-79.96
11230,-3.8706,1.2440,-1.0131,-1866.94,-122.50,-1173.83
11240,-3.8705,1.1945,-1.0723,-757.57,-1669.49,1451.11
11250,-3.8705,1.1522,-1.1610,898.68,-1247.68,-908.39
11260,-3.8705,1.1011,-1.2493,-507.57,-607.18,-408.57
11270,-3.8705,1.0294,-1.2915,945.56,95.89,-330.57
11280,-3.8705,0.9462,-1.2754,-226.32,-1310.55,-252.56
11290,-3.8705,0.8700,-1.2245,1117.43,751.83,-283.75
11300,-3.8705,0.8104,-1.1837,-632.57,-732.73,-393.07
11310,-3.8705,0.7614,-1.1864,-257.57,485.90,-346.07
11320,-3.8704,0.7139,-1.2217,1461.18,142.09,185.18
11330,-3.8704,0.6647,-1.2518,-616.94,-373.66,1341.31
11340,-3.8704,0.6178,-1.2529,1086.18,-233.09,-1611.88
11350,-3.8704,0.5864,-1.2219,-913.82,-373.84,-1486.88
11360,-3.8704,0.5840,-1.1709,-929.44,-405.15,1653.81
11370,-3.8705,0.6113,-1.1190,-1241.94,-1873.90,-205.44
11380,-3.8705,0.6488,-1.0713,-1741.94,766.78,1575.93
11390,-3.8705,0.6656,-1.0297,-945.07,-1123.78,841.61
11400,-3.8705,0.6475,-1.0143,1211.18,204.41,-939.51
11410,-3.8704,0.5951,-1.0327,-1116.94,-1826.90,-798.89
11420,-3.8702,0.5256,-1.0635,179.93,-186.34,-236.45
11430,-3.8700,0.4701,-1.0955,-710.69,-124.02,450.99
11440,-3.8699,0.4424,-1.1235,179.93,-217.83,1154.05
11450,-3.8698,0.4330,-1.1249,633.06,188.35,1247.80
11460,-3.8698,0.4366,-1.0848,-570.07,16.42,-783.45
11470,-3.8698,0.4536,-1.0287,-101.32,1141.42,1919.74
11480,-3.8699,0.4733,-0.9935,-1929.44,328.98,1497.99
11490,-3.8701,0.4791,-0.9885,586.18,829.04,-1548.83
11500,-3.8704,0.4615,-1.0023,1336.18,1469.67,1998.05
11510,-3.8706,0.4205,-1.0234,-913.82,-296.02,1076.11
11520,-3.8710,0.3596,-1.0408,1836.18,1000.79,-423.89
11530,-3.8712,0.2800,-1.0452,-1960.69,-1218.08,1216.67
11540,-3.8716,0.1826,-1.0354,-148.19,-1780.76,-1392.70
11550,-3.8718,0.0736,-1.0146,-616.94,-530.94,169.80
11560,-3.8722,-0.0359,-0.9845,1429.93,-1874.88,1826.11
11570,-3.8726,-0.1366,-0.9393,-585.69,1999.88,-189.45
11580,-3.8728,-0.2205,-0.8783,-1476.32,-219.06,-1330.02
11590,-3.8730,-0.2832,-0.8114,-210.69,-406.74,-1751.77
11600,-3.8733,-0.3251,-0.7474,-241.94,155.64,-1892.21
11610,-3.8735,-0.3481,-0.6898,-1601.32,343.08,-1610.84
11620,-3.8738,-0.3571,-0.6396,-554.44,-281.98,-563.90
11630,-3.8739,-0.3611,-0.5940,-1695.07,-1860.11,1404.97
11640,-3.8741,-0.3683,-0.5487,1789.31,-16.36,-360.60
11650,-3.8743,-0.3788,-0.5035,867.43,1780.52,1077.03
11660,-3.8745,-0.3884,-0.4624,-476.32,-438.29,1327.09
11670,-3.8748,-0.3942,-0.4248,-1710.69,827.33,483.46
11680,-3.8439,-0.3879,-0.3804,1554.93,1639.83,-750.85
11690,-3.8441,-0.3564,-0.3207,-1648.19,-672.67,-1500.79
11700,-3.8444,-0.2915,-0.2512,-1616.94,-1031.98,-1438.17
11710,-3.8446,-0.1998,-0.1840,-1304.44,-141.24,-31.80
11720,-3.8447,-0.0978,-0.1260,-1570.07,468.32,-94.12
11730,-3.8447,-0.0034,-0.0812,-507.57,-109.62,-297.18
11740,-3.8446,0.0723,-0.0520,-429.44,1624.94,-422.06
11750,-3.8444,0.1316,-0.0366,1258.06,1343.87,1921.75
11760,-3.8441,0.1844,-0.0372,851.81,-687.26,468.63
11770,-3.8440,0.2430,-0.0586,-382.57,-765.32,1656.13
11780,-3.8439,0.3158,-0.0945,-882.57,500.43,1562.38
11790,-3.8750,0.3977,-0.1293,429.93,-93.14,-1968.99
11800,-3.8748,0.4707,-0.1545,-1085.69,-546.14,968.44
11810,-3.8745,0.5227,-0.1775,258.06,219.67,-1297.18
11820,-3.8741,0.5696,-0.2025,-1085.69,1282.23,1765.26
11830,-3.8738,0.6418,-0.2195,914.31,-1920.78,874.57
11840,-3.8735,0.7458,-0.2242,-1835.69,-92.53,-531.74
11850,-3.8732,0.8584,-0.2263,-523.19,-701.72,687.01
11860,-3.8730,0.9540,-0.2292,1883.06,-967.10,-266.11
11870,-3.8728,1.0181,-0.2314,-1882.57,-1341.92,124.51
11880,-3.8728,1.0496,-0.2375,-1679.44,-1623.05,-1531.74
11890,-3.8727,1.0607,-0.2494,-1648.19,1595.76,749.51
11900,-3.8726,1.0680,-0.2618,-226.32,80.14,1077.64
11910,-3.8723,1.0812,-0.2715,711.18,-1513.55,93.20
11920,-3.8721,1.0996,-0.2902,-1601.32,1252.08,265.08
11930,-3.8719,1.1211,-0.3362,758.06,-1138.49,-813.11
11940,-3.8717,1.1473,-0.4103,-491.94,970.89,202.45
11950,-3.8716,1.1774,-0.5004,-1132.57,-513.43,202.27
11960,-3.8716,1.2009,-0.5989,-1288.82,-44.62,-391.66
11970,-3.8715,1.2040,-0.7035,1726.81,-653.93,-1938.72
11980,-3.8715,1.1742,-0.8146,-1882.57,1955.44,-610.78
11990,-3.8713,1.1039,-0.9382,-1695.07,-263.37,685.85
12000,-3.8712,0.9915,-1.0725,1304.93,-91.61,201.23
12010,-3.8711,0.8502,-1.2010,-1085.69,-1279.36,-845.89
12020,-3.8707,0.7102,-1.3202,836.18,-1732.73,200.74
12030,-3.8705,0.5896,-1.4343,-1085.69,-983.03,1591.13
12040,-3.8702,0.4856,-1.5250,-523.19,407.35,-1659.06
12050,-3.8700,0.3932,-1.5693,-1835.69,797.79,1450.13
12060,-3.8699,0.3140,-1.5703,-1663.82,-874.27,1637.51
12070,-3.8699,0.2560,-1.5469,195.56,-999.39,-1315.61
12080,-3.8699,0.2244,-1.5142,773.68,-1999.51,-1753.05
12090,-3.8699,0.2194,-1.4777,726.81,-1812.07,1981.38
12100,-3.8699,0.2417,-1.4387,86.18,-1140.20,-1581.05
12110,-3.8699,0.2841,-1.4003,-1054.44,-155.82,-580.99
12120,-3.8699,0.3291,-1.3582,367.43,766.17,-80.87
12130,-3.8699,0.3630,-1.3064,-1866.94,-1843.14,-1049.56
12140,-3.8699,0.3840,-1.2511,-1523.19,781.92,122.44
12150,-3.8701,0.3979,-1.1992,1164.31,-139.89,-674.38
12160,-3.8702,0.4130,-1.1550,-1054.44,-1499.27,1528.87
12170,-3.8704,0.4381,-1.1230,867.43,157.04,263.37
12180,-3.8705,0.4784,-1.1060,86.18,250.85,404.05
12190,-3.8706,0.5327,-1.1143,1242.43,-1561.58,-1345.95
12200,-3.8706,0.5856,-1.1578,195.56,1376.04,-408.45
12210,-3.8705,0.6067,-1.2269,-1038.82,-202.03,-1392.94
12220,-3.8704,0.5715,-1.2947,1664.31,-1045.72,-1643.07
12230,-3.8702,0.4807,-1.3407,1164.31,-1717.65,1356.81
12240,-3.8702,0.3535,-1.3628,1539.31,391.54,-1799.50
12250,-3.8704,0.2140,-1.3632,1258.06,1563.17,-627.69
12260,-3.8705,0.0834,-1.3448,-601.32,1515.99,622.31
12270,-3.8708,-0.0289,-1.3167,-1320.07,-140.50,-502.69
12280,-3.8711,-0.1283,-1.2843,304.93,-515.69,1388.00
12290,-3.8715,-0.2208,-1.2474,-413.82,-375.31,-1315.06
12300,-3.8718,-0.3037,-1.1987,-257.57,343.26,-377.44
12310,-3.8721,-0.3691,-1.1348,1133.06,-1422.49,794.49
12320,-3.8724,-0.4136,-1.0640,758.06,-1235.11,-955.38
12330,-3.8727,-0.4421,-0.9949,-929.44,-172.73,-1439.64
12340,-3.8729,-0.4587,-0.9258,-585.69,670.96,-720.70
12350,-3.8730,-0.4647,-0.8508,1289.31,1514.71,1482.54
12360,-3.8732,-0.4630,-0.7711,523.68,-891.54,1154.54
12370,-3.8733,-0.4568,-0.6927,742.43,1311.58,1795.35
12380,-3.8734,-0.4454,-0.6196,1539.31,-657.17,-1063.90
12390,-3.8734,-0.4279,-0.5530,-1007.57,702.21,717.53
12400,-3.8735,-0.4070,-0.4955,1242.43,1233.52,-860.47
12410,-3.8735,-0.3882,-0.4529,-85.69,592.90,1874.02
12420,-3.8735,-0.3716,-0.4230,-1679.44,-1953.92,1061.58
12430,-3.8735,-0.3497,-0.3934,445.56,1874.27,858.52
12440,-3.8735,-0.3130,-0.3585,-757.57,1655.52,1342.96
12450,-3.8735,-0.2572,-0.3312,-54.44,-1875.67,-1281.98
12460,-3.8734,-0.1873,-0.3359,-913.82,1624.45,1155.58
12470,-3.8733,-0.1180,-0.3798,39.31,1015.26,139.95
12480,-3.8733,-0.0656,-0.4326,898.68,-593.99,-860.17
12490,-3.8732,-0.0303,-0.4641,-382.57,640.44,-1157.10
12500,-3.8729,-0.0098,-0.4773,133.06,609.31,92.83
12510,-3.8728,-0.0126,-0.4821,-1241.94,-1078.19,-1454.10
12520,-3.8726,-0.0499,-0.4729,-1601.32,-1687.56,1108.40
12530,-3.8724,-0.1215,-0.4398,1617.43,-515.75,1858.40
12540,-3.8724,-0.2085,-0.3761,461.18,-281.49,-1188.42
12550,-3.8726,-0.2885,-0.2900,1320.56,-125.43,-157.04
12560,-3.8727,-0.3473,-0.2053,-913.82,-1109.99,-1875.61
12570,-3.8729,-0.3716,-0.1338,-445.07,1733.64,-1359.80
12580,-3.8732,-0.3511,-0.0652,445.56,-1110.11,-1265.93
12590,-3.8734,-0.2970,0.0089,-929.44,-328.86,-125.18
12600,-3.8735,-0.2307,0.0813,1992.43,1155.64,-1062.50
12610,-3.8735,-0.1615,0.1322,-1523.19,-1578.61,93.87
12620,-3.8737,-0.0983,0.1395,-663.82,937.13,-1281.01
12630,-3.8737,-0.0607,0.1093,-570.07,1874.76,-1827.88
12640,-3.8737,-0.0631,0.0780,242.43,1999.88,1765.81
12650,-3.8737,-0.0978,0.0680,-70.07,1999.82,906.37
12660,-3.8738,-0.1423,0.0754,-507.57,718.51,-812.38
12670,-3.8738,-0.1707,0.0952,1789.31,1671.57,953.25
12680,-3.8739,-0.1593,0.1218,-1835.69,202.76,-952.94
12690,-3.8739,-0.1010,0.1462,-382.57,-390.99,1906.43
12700,-3.8739,-0.0095,0.1578,-913.82,-1265.87,1843.99
12710,-3.8739,0.0961,0.1417,-1210.69,218.69,-1077.82
12720,-3.8738,0.1991,0.0958,304.93,-1859.19,1187.74
12730,-3.8737,0.2816,0.0369,1492.43,265.99,187.68
12740,-3.8737,0.3314,-0.0195,54.93,719.30,-1234.31
12750,-3.8735,0.3530,-0.0641,-1570.07,1500.61,390.56
12760,-3.8735,0.3644,-0.0908,1195.56,-202.45,1531.07
12770,-3.8735,0.3811,-0.1115,-1351.32,375.67,-1172.06
12780,-3.8734,0.4058,-0.1450,789.31,1735.11,109.13
12790,-3.8734,0.4338,-0.1907,-54.44,1438.23,1484.07
12800,-3.8734,0.4659,-0.2310,-460.69,-405.46,-531.68
12810,-3.8733,0.5087,-0.2535,-351.32,-1561.65,-1828.61
12820,-3.8732,0.5676,-0.2605,1117.43,-452.15,-1906.80
12830,-3.8729,0.6387,-0.2664,664.31,-1342.65,233.83
12840,-3.8727,0.7050,-0.2921,1758.06,1907.47,1093.20
12850,-3.8724,0.7468,-0.3453,-1757.57,-1389.28,-172.49
12860,-3.8721,0.7527,-0.4105,-398.19,-201.72,-1328.86
12870,-3.8718,0.7218,-0.4663,351.81,-545.41,-16.48
12880,-3.8716,0.6682,-0.5101,398.68,313.90,-1500.92
12890,-3.8715,0.6196,-0.5509,1539.31,-1295.59,-1704.16
12900,-3.8713,0.6001,-0.5935,-679.44,1485.53,1139.53
12910,-3.8712,0.6135,-0.6353,820.56,32.41,655.09
12920,-3.8711,0.6426,-0.6632,-1460.69,-1311.34,779.97
12930,-3.8710,0.6660,-0.6654,-1741.94,-889.40,764.28
12940,-3.8710,0.6749,-0.6531,1258.06,-1170.59,-1.34
12950,-3.8708,0.6732,-0.6517,-1601.32,407.53,1889.34
12960,-3.8708,0.6674,-0.6749,-1820.07,579.41,-907.53
12970,-3.8707,0.6591,-0.7164,1429.93,1610.66,1248.66
12980,-3.8706,0.6451,-0.7626,367.43,298.16,467.35
12990,-3.8706,0.6243,-0.8033,-1413.82,-1608.15,-454.65
13000,-3.8705,0.5961,-0.8318,-85.69,1173.03,1389.04
13010,-3.8705,0.5603,-0.8438,304.93,1532.41,1545.23
13020,-3.8705,0.5200,-0.8333,-273.19,1.04,76.48
13030,-3.8706,0.4819,-0.8035,-1429.44,1344.73,1873.35
13040,-3.8707,0.4551,-0.7745,1695.56,1157.17,-298.46
13050,-3.8707,0.4510,-0.7651,-1741.94,860.23,1904.72
13060,-3.8707,0.4757,-0.7764,1742.43,-1936.65,748.47
13070,-3.8707,0.5280,-0.7898,898.68,625.92,623.47
13080,-3.8707,0.6002,-0.7820,-413.82,-1092.77,1701.54
13090,-3.8707,0.6740,-0.7476,836.18,-92.59,-735.96
13100,-3.8706,0.7289,-0.7002,-1726.32,313.78,561.04
13110,-3.8706,0.7538,-0.6550,1304.93,-1623.60,1764.22
13120,-3.8706,0.7511,-0.6259,492.43,157.71,-548.16
13130,-3.8705,0.7390,-0.6284,148.68,-107.91,1576.84
13140,-3.8705,0.7406,-0.6592,-1398.19,-436.10,-376.28
13150,-3.8704,0.7596,-0.6937,-1195.07,-373.60,1404.91
13160,-3.8704,0.7781,-0.7091,1242.43,-795.41,-1298.28
13170,-3.8704,0.7771,-0.6984,-398.19,1235.84,-1032.65
13180,-3.8704,0.7501,-0.6718,-523.19,-1389.16,1529.85
13190,-3.8705,0.7032,-0.6469,23.68,-1982.91,-1704.47
13200,-3.8706,0.6484,-0.6364,-1976.32,1204.47,-1876.28
13210,-3.8707,0.5924,-0.6405,-991.94,-1451.90,-1704.41
13220,-3.8708,0.5336,-0.6552,-163.82,-1983.28,-704.41
13230,-3.8708,0.4736,-0.6754,304.93,141.66,920.59
13240,-3.8710,0.4209,-0.6893,633.06,1547.79,-1001.34
13250,-3.8710,0.3842,-0.6870,1883.06,-233.58,1717.35
13260,-3.8710,0.3674,-0.6721,1179.93,63.23,1279.91
13270,-3.8710,0.3662,-0.6509,-960.69,1969.42,1373.66
13280,-3.8710,0.3781,-0.6282,-1116.94,688.17,1889.34
13290,-3.8710,0.4032,-0.6154,398.68,-405.52,-688.78
13300,-3.8708,0.4368,-0.6191,-382.57,1235.11,-1704.35
13310,-3.8707,0.4691,-0.6345,-85.69,750.79,-438.72
13320,-3.8705,0.4883,-0.6571,54.93,-1217.83,-1438.78
13330,-3.8702,0.4844,-0.6816,-1491.94,-108.46,1623.66
13340,-3.8701,0.4601,-0.6945,-1991.94,750.92,-1016.97
13350,-3.8700,0.4290,-0.6935,-1101.32,-889.77,-1673.28
13360,-3.8699,0.3972,-0.7037,-1085.69,-764.83,1529.85
13370,-3.8698,0.3547,-0.7500,-1148.19,1922.61,842.35
13380,-3.8698,0.2880,-0.8287,1414.31,0.67,1904.79
13390,-3.8699,0.1906,-0.9141,867.43,1922.42,-1142.27
13400,-3.8701,0.0671,-0.9791,398.68,-999.63,-251.83
13410,-3.8704,-0.0658,-1.0145,601.81,-1328.00,1888.67
13420,-3.8707,-0.1923,-1.0240,-413.82,-1843.93,-1017.64
13430,-3.8711,-0.3083,-1.0122,-601.32,937.07,-142.64
13440,-3.8713,-0.4139,-0.9803,539.31,-1547.49,513.61
13450,-3.8717,-0.5020,-0.9294,-976.32,-1469.60,1279.30
13460,-3.8721,-0.5647,-0.8641,-241.94,1045.84,-1423.71
13470,-3.8723,-0.6028,-0.7928,-273.19,1405.09,513.92
13480,-3.8727,-0.6207,-0.7231,-1148.19,-1469.97,-1001.59
13490,-3.8729,-0.6169,-0.6591,554.93,-548.10,1920.41
13500,-3.8732,-0.5912,-0.6029,1039.31,-344.97,1076.78
13510,-3.8734,-0.5565,-0.5588,336.18,-1157.41,764.40
13520,-3.8737,-0.5331,-0.5267,773.68,483.28,-1907.35
13530,-3.8738,-0.5210,-0.4972,-226.32,592.65,1592.71
13540,-3.8739,-0.5031,-0.4659,1320.56,373.96,-1375.98
13550,-3.8740,-0.4686,-0.4349,-382.57,373.96,-407.17
13560,-3.8741,-0.4243,-0.4022,23.68,342.83,-657.10
13570,-3.8743,-0.3799,-0.3688,1695.56,530.40,-1625.79
13580,-3.8744,-0.3381,-0.3383,-616.94,811.71,1608.64
13590,-3.8745,-0.3026,-0.3085,726.81,718.08,1686.83
13600,-3.8746,-0.2731,-0.2760,1273.68,530.64,-1172.49
13610,-3.8746,-0.2468,-0.2415,1054.93,686.95,858.83
13620,-3.8748,-0.2208,-0.2109,414.31,1108.89,-578.61
13630,-3.8748,-0.1887,-0.1903,-257.57,1015.14,-1594.18
13640,-3.8748,-0.1431,-0.1797,-148.19,-344.18,1827.70
13650,-3.8748,-0.0822,-0.1764,1695.56,1015.32,1968.38
13660,-3.8748,-0.0160,-0.1774,1492.43,1437.32,-515.99
13670,-3.8746,0.0413,-0.1840,1961.18,1312.44,-1484.74
13680,-3.8745,0.0850,-0.2034,1289.31,453.19,-1750.37
13690,-3.8744,0.1191,-0.2375,-1116.94,1968.87,1437.07
13700,-3.8743,0.1489,-0.2750,-741.94,1593.93,46.39
13710,-3.8743,0.1844,-0.3007,-929.44,797.12,-953.67
13720,-3.8741,0.2417,-0.3094,-382.57,1515.93,-1016.24
13730,-3.8740,0.3252,-0.3093,-1054.44,391.05,-78.74
13740,-3.8738,0.4259,-0.3109,1633.06,406.86,1921.26
13750,-3.8735,0.5321,-0.3240,-1476.32,203.92,890.01
13760,-3.8733,0.6277,-0.3536,117.43,-1467.71,171.20
13770,-3.8732,0.6914,-0.3871,351.81,-1264.40,-516.36
13780,-3.8729,0.7175,-0.4037,508.06,-1545.53,-1453.92
13790,-3.8727,0.7229,-0.4036,-148.19,329.47,1202.33
13800,-3.8726,0.7241,-0.4073,539.31,345.15,-844.54
13810,-3.8724,0.7252,-0.4305,695.56,-139.22,-532.10
13820,-3.8723,0.7328,-0.4730,836.18,892.03,-1938.35
13830,-3.8723,0.7645,-0.5265,1804.93,-545.47,-157.23
13840,-3.8722,0.8380,-0.5815,1867.43,610.84,-1188.54
13850,-3.8719,0.9524,-0.6355,-726.32,1564.09,467.59
13860,-3.8717,1.0908,-0.6917,1914.31,-1341.92,811.22
13870,-3.8713,1.2340,-0.7418,-366.94,-529.17,92.35
13880,-3.8710,1.3607,-0.7754,1961.18,1049.26,1842.29
13890,-3.8705,1.4526,-0.8015,-1820.07,752.62,264.10
13900,-3.8701,1.5143,-0.8351,1945.56,1409.06,-954.71
13910,-3.8696,1.5565,-0.8802,1836.18,1112.30,-1907.90
13920,-3.8693,1.5752,-0.9272,-757.57,-668.88,-95.52
13930,-3.8689,1.5602,-0.9592,1633.06,1315.55,-595.58
13940,-3.8687,1.5027,-0.9729,-288.82,1221.74,-548.77
13950,-3.8685,1.4103,-0.9774,351.81,-528.32,-1001.95
13960,-3.8685,1.3060,-0.9913,523.68,-1106.63,-1548.83
13970,-3.8687,1.2107,-1.0261,-820.07,1111.88,-798.83
13980,-3.8688,1.1282,-1.0685,-1023.19,658.57,-1236.39
13990,-3.8689,1.0496,-1.0969,414.31,-763.43,1700.99
14000,-3.8691,0.9701,-1.1100,-1648.19,-404.24,-33.45
14010,-3.8693,0.8892,-1.1206,179.93,1923.77,1794.68
14020,-3.8695,0.8051,-1.1412,1820.56,564.21,-330.32
14030,-3.8696,0.7126,-1.1779,-945.07,1923.40,-1814.76
14040,-3.8698,0.6095,-1.2217,-773.19,1235.72,1669.56
14050,-3.8699,0.4984,-1.2501,-1976.32,-373.84,1794.43
14060,-3.8700,0.3889,-1.2457,-195.07,-14.71,1872.50
14070,-3.8701,0.2933,-1.2113,1789.31,547.61,1653.81
14080,-3.8702,0.2191,-1.1652,1554.93,953.67,810.12
14090,-3.8705,0.1649,-1.1243,54.93,-1140.20,-1205.44
14100,-3.8706,0.1254,-1.0941,1117.43,94.06,200.93
14110,-3.8708,0.0961,-1.0731,54.93,-46.63,-1549.07
14120,-3.8710,0.0687,-1.0625,304.93,-1359.19,-1674.01
14130,-3.8711,0.0316,-1.0576,804.93,0.12,-752.08
14140,-3.8711,-0.0194,-1.0403,54.93,625.06,326.05
14150,-3.8712,-0.0778,-0.9950,1523.68,-1140.69,1341.67
14160,-3.8713,-0.1320,-0.9347,-1945.07,656.07,1998.05
14170,-3.8715,-0.1757,-0.8850,-882.57,374.69,1310.67
14180,-3.8717,-0.2078,-0.8489,1523.68,-1265.99,-1111.15
14190,-3.8719,-0.2300,-0.8174,1414.31,-641.05,-361.08
14200,-3.8721,-0.2493,-0.7843,-1429.44,-609.86,513.98
14210,-3.8723,-0.2709,-0.7438,101.81,-375.49,1779.66
14220,-3.8726,-0.2970,-0.6979,1336.18,811.95,-626.46
14230,-3.8727,-0.3270,-0.6530,1992.43,-1313.11,1123.60
14240,-3.8729,-0.3584,-0.6129,-1851.32,436.83,-1313.78
14250,-3.8732,-0.3879,-0.5834,-1866.94,1561.77,-376.22
14260,-3.8734,-0.4156,-0.5653,-1648.19,1342.96,-235.53
14270,-3.8737,-0.4460,-0.5521,-1195.07,-344.60,-782.41
14280,-3.8739,-0.4777,-0.5352,-1085.69,1342.83,-1329.22
14290,-3.8741,-0.4996,-0.5093,-1132.57,-485.35,-1501.10
14300,-3.8744,-0.5013,-0.4760,54.93,-1172.85,-1391.66
14310,-3.8746,-0.4816,-0.4397,-163.82,-907.29,-1032.23
14320,-3.8749,-0.4467,-0.4015,-1632.57,-266.60,-219.67
14330,-3.8750,-0.4053,-0.3604,-1163.82,624.08,1530.46
14340,-3.8439,-0.3650,-0.3192,133.06,1889.83,593.02
14350,-3.8440,-0.3246,-0.2869,1289.31,-844.48,1389.95
14360,-3.8441,-0.2751,-0.2708,-1538.82,-703.80,-281.86
14370,-3.8441,-0.2103,-0.2695,789.31,1358.83,-1125.55
14380,-3.8441,-0.1332,-0.2720,1086.18,1515.20,-1359.92
14390,-3.8441,-0.0521,-0.2626,-1038.82,1202.82,-531.80
14400,-3.8440,0.0287,-0.2345,1336.18,-1593.87,-1984.92
14410,-3.8439,0.1104,-0.1971,-320.07,1984.38,-1391.11
14420,-3.8749,0.1940,-0.1700,-1866.94,-1234.19,765.20
14430,-3.8748,0.2812,-0.1688,836.18,-1765.26,-687.87
14440,-3.8745,0.3772,-0.1980,8.06,-1608.83,1312.13
14450,-3.8744,0.4863,-0.2489,289.31,-1343.02,-1156.68
14460,-3.8741,0.6017,-0.3004,-1741.94,141.54,249.51
14470,-3.8740,0.6979,-0.3278,1023.68,1548.03,1765.01
14480,-3.8739,0.7477,-0.3248,1336.18,-1951.78,-766.30
14490,-3.8737,0.7467,-0.3098,-288.82,-1576.72,155.58
14500,-3.8735,0.7111,-0.3069,-413.82,345.15,483.76
14510,-3.8734,0.6573,-0.3336,-976.32,720.09,968.14
14520,-3.8733,0.5990,-0.3885,148.68,1298.16,1921.20
14530,-3.8732,0.5431,-0.4509,679.93,-1733.22,1889.83
14540,-3.8732,0.4899,-0.4994,1523.68,-1717.71,-750.92
14550,-3.8732,0.4470,-0.5284,-1288.82,79.04,-1454.10
14560,-3.8732,0.4375,-0.5531,1226.81,360.23,1936.46
14570,-3.8732,0.4866,-0.5873,8.06,1203.98,-282.35
14580,-3.8729,0.5929,-0.6388,-1710.69,829.04,1155.09
14590,-3.8727,0.7296,-0.7141,-101.32,-1764.53,1326.84
14600,-3.8724,0.8735,-0.8026,1398.68,595.15,-688.90
14610,-3.8721,1.0065,-0.8806,-179.44,1267.27,-564.09
14620,-3.8716,1.1143,-0.9321,836.18,-716.80,1404.48
14630,-3.8711,1.1930,-0.9633,-1366.94,689.64,326.29
14640,-3.8707,1.2487,-0.9916,711.18,705.44,-1236.27
14650,-3.8704,1.2880,-1.0330,-163.82,1080.51,-470.70
14660,-3.8700,1.3093,-1.0931,867.43,-216.25,-1627.08
14670,-3.8698,1.3018,-1.1528,-398.19,80.63,-627.14
14680,-3.8695,1.2544,-1.1870,-1366.94,440.00,1825.87
14690,-3.8694,1.1727,-1.1875,570.56,64.94,638.31
14700,-3.8695,1.0814,-1.1597,-1882.57,2.26,-142.94
14710,-3.8695,1.0038,-1.1371,-1570.07,-435.42,513.31
14720,-3.8698,0.9503,-1.1567,492.43,-1544.92,-142.88
14730,-3.8699,0.9207,-1.2092,1648.68,-60.67,-861.69
14740,-3.8700,0.9075,-1.2509,1851.81,1220.52,-596.13
14750,-3.8700,0.8970,-1.2487,164.31,-107.60,1294.37
14760,-3.8700,0.8785,-1.2059,-1179.44,173.58,825.68
14770,-3.8700,0.8544,-1.1532,461.18,1642.33,763.24
14780,-3.8701,0.8333,-1.1178,1367.43,392.27,-424.13
14790,-3.8701,0.8180,-1.1083,-1335.69,923.46,1325.93
14800,-3.8702,0.8002,-1.1223,711.18,-1857.79,-1236.57
14810,-3.8702,0.7716,-1.1458,-1570.07,345.28,372.80
14820,-3.8704,0.7390,-1.1597,-1226.32,1345.21,-1814.76
14830,-3.8705,0.7173,-1.1597,-1398.19,-436.10,-33.57
14840,-3.8705,0.7146,-1.1509,-179.44,-436.16,1325.81
14850,-3.8706,0.7201,-1.1362,-523.19,688.84,-1986.63
14860,-3.8707,0.7101,-1.1224,179.93,-1436.10,-1752.26
14870,-3.8708,0.6665,-1.1218,-1101.32,329.47,-1736.57
14880,-3.8710,0.5885,-1.1486,1320.56,407.53,-1689.70
14890,-3.8711,0.4940,-1.1946,-663.82,985.47,-1517.88
14900,-3.8712,0.4055,-1.2305,-757.57,-905.33,-924.26
14910,-3.8713,0.3309,-1.2483,-85.69,-1499.27,-127.44
14920,-3.8715,0.2632,-1.2633,-1632.57,219.36,-111.82
14930,-3.8716,0.1919,-1.2803,1695.56,-1702.64,-893.13
14940,-3.8717,0.1152,-1.2896,570.56,125.37,-1596.25
14950,-3.8718,0.0338,-1.2853,-1241.94,-1062.32,-1190.06
14960,-3.8718,-0.0533,-1.2762,336.18,-515.56,1106.81
14970,-3.8718,-0.1467,-1.2720,1179.93,656.13,747.50
14980,-3.8718,-0.2469,-1.2705,1226.81,1202.82,169.37
14990,-3.8719,-0.3527,-1.2600,398.68,1390.14,-1049.38
15000,-3.8719,-0.4554,-1.2347,-1132.57,-1266.36,1638.12
15010,-3.8721,-0.5393,-1.1965,1711.18,1967.83,-49.32
15020,-3.8721,-0.5913,-1.1466,-1023.19,-1141.72,1481.99
15030,-3.8722,-0.6117,-1.0848,320.56,1248.84,-1705.38
15040,-3.8723,-0.6030,-1.0123,1711.18,1155.03,-1502.14
15050,-3.8724,-0.5651,-0.9460,-1179.44,-1563.72,-1470.76
15060,-3.8726,-0.5088,-0.8984,-320.07,-1079.28,-1564.39
15070,-3.8727,-0.4541,-0.8550,-1116.94,1014.59,1623.23
15080,-3.8729,-0.4109,-0.7960,1883.06,-1422.79,-64.21
15090,-3.8730,-0.3783,-0.7185,-585.69,-1875.85,1873.41
15100,-3.8732,-0.3517,-0.6343,-413.82,46.08,45.47
15110,-3.8734,-0.3276,-0.5635,-1007.57,-1172.61,-1173.16
15120,-3.8735,-0.3091,-0.5194,-1929.44,-110.05,-1985.53
15130,-3.8737,-0.3025,-0.4954,445.56,1530.64,1092.71
15140,-3.8739,-0.3126,-0.4731,1289.31,608.76,-79.10
15150,-3.8740,-0.3350,-0.4417,-7.57,-547.55,-1219.73
15160,-3.8741,-0.3600,-0.4058,1133.06,-516.30,-1844.67
15170,-3.8743,-0.3802,-0.3733,1929.93,77.39,-1735.17
15180,-3.8744,-0.3914,-0.3436,-663.82,233.58,-1172.61
15190,-3.8745,-0.3912,-0.3130,1914.31,30.46,-219.42
15200,-3.8745,-0.3746,-0.2845,1929.93,-47.67,1249.33
15210,-3.8746,-0.3389,-0.2615,54.93,-406.98,-547.49
15220,-3.8746,-0.2896,-0.2391,633.06,-1453.80,-1734.92
15230,-3.8746,-0.2324,-0.2148,-1054.44,1405.64,1452.64
15240,-3.8746,-0.1711,-0.1906,-1741.94,515.14,827.70
15250,-3.8746,-0.1117,-0.1685,-1898.19,-375.37,280.82
15260,-3.8748,-0.0635,-0.1545,1711.18,-1547.12,-78.49
15270,-3.8748,-0.0314,-0.1526,-116.94,234.19,-328.43
15280,-3.8748,-0.0073,-0.1582,-7.57,484.25,-515.93
15290,-3.8748,0.0206,-0.1669,-929.44,-234.44,-640.99
15300,-3.8748,0.0601,-0.1779,-1351.32,-1359.38,-453.49
15310,-3.8746,0.1127,-0.1931,-304.44,1234.44,405.88
15320,-3.8746,0.1749,-0.2174,-1570.07,-718.57,1562.07
15330,-3.8746,0.2419,-0.2545,-1601.32,172.18,-1687.93
15340,-3.8746,0.3104,-0.2952,-1023.19,-577.70,-1703.67
15350,-3.8746,0.3719,-0.3157,-257.57,-1780.70,1327.51
15360,-3.8748,0.4242,-0.2985,-382.57,-405.58,-235.05
15370,-3.8748,0.4753,-0.2469,-1695.07,1797.67,-813.11
15380,-3.8746,0.5226,-0.1849,851.81,391.54,1593.26
15390,-3.8745,0.5549,-0.1447,-1101.32,329.10,-500.37
15400,-3.8743,0.5702,-0.1489,-960.69,1485.41,-953.43
15410,-3.8740,0.5880,-0.1965,992.43,938.60,1984.07
15420,-3.8739,0.6427,-0.2648,-726.32,-1155.15,-422.30
15430,-3.8737,0.7538,-0.3275,-1726.32,-1889.40,1546.33
15440,-3.8734,0.9059,-0.3784,492.43,-1920.41,-1406.92
15450,-3.8730,1.0524,-0.4192,-38.82,-435.79,-922.67
15460,-3.8726,1.1465,-0.4581,-1288.82,-1654.24,1014.77
15470,-3.8722,1.1669,-0.5162,-1241.94,1361.57,1530.33
15480,-3.8719,1.1188,-0.5940,1367.43,1924.13,1389.59
15490,-3.8718,1.0365,-0.6799,-788.82,-29.11,451.90
15500,-3.8718,0.9642,-0.7798,679.93,970.76,-1376.34
15510,-3.8717,0.9269,-0.8969,-570.07,189.33,-32.78
15520,-3.8713,0.9194,-1.0159,-1351.32,1204.90,1123.23
15530,-3.8711,0.9196,-1.1177,1695.56,1970.52,-205.14
15540,-3.8707,0.9089,-1.1953,1711.18,939.27,1466.55
15550,-3.8705,0.8823,-1.2542,351.81,-998.23,950.74
15560,-3.8704,0.8486,-1.3042,945.56,-529.54,1669.37
15570,-3.8702,0.8219,-1.3557,633.06,1064.15,434.94
15580,-3.8701,0.8092,-1.4026,1211.18,-1529.66,231.69
15590,-3.8700,0.8073,-1.4263,-413.82,470.28,-1190.25
15600,-3.8698,0.8119,-1.4333,-663.82,1439.03,-1955.93
15610,-3.8696,0.8177,-1.4460,-70.07,532.78,-1455.93
15620,-3.8696,0.8114,-1.4646,679.93,-1092.16,-862.24
15630,-3.8696,0.7820,-1.4659,-132.57,532.78,1059.63
15640,-3.8698,0.7374,-1.4426,101.81,360.90,-1799.74
15650,-3.8699,0.6978,-1.4116,-1601.32,-654.85,-18.49
15660,-3.8699,0.6787,-1.3892,1320.56,-686.16,-1487.18
15670,-3.8699,0.6770,-1.3729,-1116.94,-1811.22,1216.00
15680,-3.8700,0.6732,-1.3447,-1335.69,266.91,-127.69
15690,-3.8700,0.6566,-1.2919,-1820.07,-123.72,1700.44
15700,-3.8701,0.6306,-1.2258,54.93,-1358.09,1622.44
15710,-3.8704,0.5966,-1.1713,726.81,-905.03,-439.94
15720,-3.8705,0.5547,-1.1364,367.43,-1920.72,513.31
15730,-3.8707,0.5153,-1.1113,-991.94,-1452.09,-1846.01
15740,-3.8708,0.4888,-1.0896,1961.18,1750.98,1700.93
15750,-3.8710,0.4733,-1.0760,-1429.44,532.17,-1127.14
15760,-3.8710,0.4612,-1.0741,586.18,-1733.46,904.11
15770,-3.8711,0.4476,-1.0751,-960.69,-1483.52,-470.89
15780,-3.8711,0.4313,-1.0780,1304.93,-1608.52,-1033.39
15790,-3.8711,0.4053,-1.0917,-788.82,-1983.58,-1111.51
15800,-3.8711,0.3572,-1.1108,-116.94,266.36,-1627.14
15810,-3.8711,0.2854,-1.1265,1726.81,1813.17,763.43
15820,-3.8712,0.2034,-1.1357,539.31,-186.95,-1846.01
15830,-3.8713,0.1281,-1.1392,-1960.69,-1374.63,-674.13
15840,-3.8713,0.0649,-1.1405,398.68,-1812.26,669.62
15850,-3.8715,0.0082,-1.1394,320.56,-1984.25,1732.12
15860,-3.8716,-0.0486,-1.1278,1054.93,-1843.75,1950.87
15870,-3.8717,-0.1063,-1.1028,1789.31,-343.87,1294.62
15880,-3.8718,-0.1605,-1.0730,-1601.32,-1140.87,263.43
15890,-3.8721,-0.2087,-1.0450,-538.82,-1328.49,-455.26
15900,-3.8722,-0.2522,-1.0153,1289.31,-1750.43,-267.70
15910,-3.8722,-0.2946,-0.9792,-273.19,-1938.05,685.49
15920,-3.8723,-0.3367,-0.9379,-1695.07,-1328.74,-1845.70
15930,-3.8724,-0.3737,-0.8948,914.31,-31.92,-142.52
15940,-3.8724,-0.4028,-0.8511,179.93,1483.64,1498.23
15950,-3.8726,-0.4241,-0.7991,445.56,-922.67,-1079.83
15960,-3.8727,-0.4327,-0.7334,1726.81,1733.52,-17.21
15970,-3.8727,-0.4244,-0.6630,617.43,-1860.23,811.04
15980,-3.8728,-0.4062,-0.6027,1679.93,-844.60,1873.66
15990,-3.8729,-0.3915,-0.5588,8.06,-1125.79,-579.35
16000,-3.8729,-0.3875,-0.5289,1898.68,483.58,1373.90
16010,-3.8730,-0.3949,-0.5103,-1585.69,311.71,-422.91
16020,-3.8730,-0.4078,-0.5012,1461.18,-1297.67,1670.84
16030,-3.8732,-0.4189,-0.4911,-195.07,-141.48,-594.79
16040,-3.8732,-0.4243,-0.4618,-1616.94,1155.40,702.15
16050,-3.8733,-0.4193,-0.4149,1695.56,905.40,1577.21
16060,-3.8734,-0.3995,-0.3771,-1663.82,-1094.60,-1516.48
16070,-3.8735,-0.3678,-0.3638,867.43,-250.79,-407.04
16080,-3.8735,-0.3320,-0.3651,929.93,1452.39,577.39
16090,-3.8737,-0.2975,-0.3694,1508.06,1280.58,1483.64
16100,-3.8738,-0.2683,-0.3689,1929.93,733.76,-969.48
16110,-3.8738,-0.2487,-0.3527,1664.31,796.33,1889.89
16120,-3.8738,-0.2354,-0.3190,179.93,-1125.49,-1922.61
16130,-3.8738,-0.2168,-0.2781,1883.06,-812.99,-1078.80
16140,-3.8738,-0.1859,-0.2375,258.06,421.45,-656.80
16150,-3.8738,-0.1438,-0.1958,211.18,1609.01,-1469.24
16160,-3.8738,-0.0948,-0.1490,1601.81,-1047.18,874.57
16170,-3.8739,-0.0416,-0.1023,-132.57,937.26,-734.68
16180,-3.8739,0.0117,-0.0684,-1320.07,-1078.25,-1906.49
16190,-3.8739,0.0546,-0.0491,1508.06,-750.00,1249.82
16200,-3.8739,0.0833,-0.0381,-1007.57,1718.81,421.75
16210,-3.8740,0.1029,-0.0410,-1335.69,-874.88,-609.50
16220,-3.8740,0.1177,-0.0648,1179.93,-1249.82,-1500.12
16230,-3.8740,0.1295,-0.0933,-929.44,-296.69,-1953.31
16240,-3.8740,0.1400,-0.1077,586.18,62.74,-1500.18
16250,-3.8739,0.1522,-0.1071,1929.93,-1781.01,15.38
16260,-3.8739,0.1685,-0.0967,-507.57,-1702.88,1624.76
16270,-3.8739,0.1892,-0.0813,1570.56,-374.69,-1343.99
16280,-3.8739,0.2166,-0.0686,226.81,1594.12,-531.43
16290,-3.8738,0.2548,-0.0699,-273.19,-780.88,702.94
16300,-3.8738,0.3038,-0.0894,617.43,-952.64,-1593.93
16310,-3.8737,0.3606,-0.1178,-1101.32,563.05,249.82
16320,-3.8737,0.4272,-0.1486,-1835.69,922.55,-1437.74
16330,-3.8735,0.5083,-0.1931,-1304.44,985.17,-1203.43
16340,-3.8733,0.6023,-0.2633,1070.56,-717.77,-1625.43
16350,-3.8729,0.6956,-0.3484,1101.81,-1701.97,811.95
16360,-3.8726,0.7676,-0.4296,1039.31,-592.41,874.27
16370,-3.8722,0.8165,-0.5040,-1741.94,1017.09,1577.27
16380,-3.8718,0.8599,-0.5764,523.68,-514.04,936.46
16390,-3.8716,0.9064,-0.6418,-1929.44,-1779.60,1592.59
16400,-3.8713,0.9590,-0.6958,23.68,1845.52,639.34
16410,-3.8712,1.0135,-0.7544,-1241.94,-1060.67,-32.65
16420,-3.8708,1.0402,-0.8253,1742.43,-560.55,1014.10
16430,-3.8706,1.0110,-0.8815,1148.68,-1638.61,-1720.40
16440,-3.8704,0.9359,-0.9062,1414.31,-826.17,779.48
16450,-3.8702,0.8508,-0.9098,-195.07,1.77,732.60
16460,-3.8702,0.7888,-0.9087,914.31,-451.48,-642.46
16470,-3.8701,0.7592,-0.9211,976.81,-310.97,1138.79
16480,-3.8701,0.7457,-0.9594,1179.93,-1904.79,-1408.08
16490,-3.8701,0.7279,-1.0116,-538.82,1204.53,-720.64
16500,-3.8701,0.6931,-1.0536,1179.93,-1482.97,-1486.39
16510,-3.8701,0.6427,-1.0702,726.81,1141.97,622.92
16520,-3.8702,0.5892,-1.0718,-1726.32,-983.15,-1252.14
16530,-3.8702,0.5472,-1.0803,-570.07,-1186.40,1607.24
16540,-3.8702,0.5199,-1.1012,-1945.07,1719.79,1200.99
16550,-3.8702,0.5018,-1.1254,-1445.07,-952.15,1075.93
16560,-3.8702,0.4869,-1.1470,242.43,-45.90,310.24
16570,-3.8704,0.4685,-1.1639,-1663.82,1188.42,-1939.76
16580,-3.8705,0.4421,-1.1700,-23.19,-983.52,-1471.07
16590,-3.8706,0.4104,-1.1600,601.81,-1764.77,-1658.57
16600,-3.8707,0.3816,-1.1353,539.31,-483.58,1607.06
16610,-3.8708,0.3604,-1.1036,851.81,-1311.77,513.37
16620,-3.8711,0.3439,-1.0698,-1866.94,-1264.95,-595.95
16630,-3.8712,0.3296,-1.0319,23.68,-936.83,-1580.26
16640,-3.8713,0.3275,-0.9984,-1804.44,-77.51,1482.30
16650,-3.8715,0.3472,-0.9948,1929.93,203.74,-1642.58
16660,-3.8713,0.3741,-1.0400,445.56,672.55,154.30
16670,-3.8712,0.3837,-1.1321,-101.32,-1124.33,-361.45
16680,-3.8708,0.3672,-1.2544,1117.43,-905.52,-1846.01
16690,-3.8706,0.3274,-1.3698,-991.94,-561.83,-643.13
16700,-3.8704,0.2653,-1.4342,1914.31,672.49,309.81
16710,-3.8704,0.1898,-1.4355,1961.18,422.36,1044.07
16720,-3.8705,0.1201,-1.4006,304.93,250.37,-1705.93
16730,-3.8706,0.0603,-1.3724,-616.94,718.93,450.38
16740,-3.8708,-0.0073,-1.3755,-273.19,328.19,59.81
16750,-3.8712,-0.0928,-1.4008,-929.44,-46.94,-1549.62
16760,-3.8715,-0.1901,-1.4243,133.06,718.57,1184.75
16770,-3.8717,-0.2859,-1.4285,-320.07,1702.70,1106.57
16780,-3.8719,-0.3683,-1.4086,-585.69,1171.26,-1534.06
16790,-3.8721,-0.4320,-1.3683,867.43,-281.98,1028.44
16800,-3.8722,-0.4766,-1.3193,711.18,874.15,544.19
16810,-3.8723,-0.4984,-1.2754,-991.94,-860.35,1091.13
16820,-3.8724,-0.4968,-1.2418,211.18,764.65,-1768.13
16830,-3.8726,-0.4827,-1.2150,414.31,1061.52,-893.07
16840,-3.8727,-0.4702,-1.1803,-1773.19,499.02,-611.76
16850,-3.8728,-0.4647,-1.1224,-179.44,936.52,-924.19
16860,-3.8729,-0.4656,-1.0393,523.68,342.83,1982.18
16870,-3.8730,-0.4707,-0.9434,414.31,-1016.54,76.05
16880,-3.8733,-0.4728,-0.8567,-241.94,-735.35,1935.61
16890,-3.8734,-0.4652,-0.7960,-507.57,-1641.60,420.17
16900,-3.8737,-0.4478,-0.7615,461.18,-1875.92,-79.71
16910,-3.8737,-0.4237,-0.7355,-1304.44,-1454.04,92.22
16920,-3.8738,-0.3976,-0.6945,1773.68,1874.15,404.79
16930,-3.8739,-0.3740,-0.6287,1117.43,-875.79,826.72
16940,-3.8740,-0.3560,-0.5508,133.06,-453.86,1826.84
16950,-3.8741,-0.3408,-0.4817,-1554.44,1514.89,-47.97
16960,-3.8741,-0.3259,-0.4329,383.06,-1641.30,-766.60
16970,-3.8741,-0.3092,-0.4032,-1710.69,608.70,-1016.48
16980,-3.8741,-0.2915,-0.3835,429.93,405.64,-1094.54
16990,-3.8741,-0.2747,-0.3610,-1304.44,-1078.74,-1063.29
17000,-3.8741,-0.2585,-0.3344,851.81,1811.95,-1156.98
17010,-3.8741,-0.2432,-0.3134,-1085.69,1218.20,-1297.55
17020,-3.8741,-0.2256,-0.2946,883.06,-94.24,-1313.17
17030,-3.8741,-0.1985,-0.2692,-866.94,-1687.99,-1188.11
17040,-3.8741,-0.1541,-0.2377,-1398.19,1562.07,-1000.55
17050,-3.8741,-0.0901,-0.2073,289.31,1593.44,-422.36
17060,-3.8740,-0.0168,-0.1880,476.81,1484.19,968.32
17070,-3.8740,0.0504,-0.1898,1851.81,-46.94,-875.43
17080,-3.8739,0.0962,-0.2107,-1538.82,-296.81,1327.70
17090,-3.8739,0.1116,-0.2322,320.56,1031.43,-937.93
17100,-3.8738,0.1039,-0.2417,-1710.69,-1718.57,312.01
17110,-3.8738,0.0994,-0.2397,1304.93,1062.68,780.76
17120,-3.8738,0.1271,-0.2311,726.81,1312.68,718.26
17130,-3.8738,0.1904,-0.2217,273.68,-1577.88,968.26
17140,-3.8738,0.2694,-0.2179,383.06,-374.63,1983.89
17150,-3.8738,0.3462,-0.2234,-1507.57,109.86,-109.80
17160,-3.8737,0.4092,-0.2357,320.56,-593.08,1968.26
17170,-3.8737,0.4480,-0.2487,383.06,1828.92,-844.24
17180,-3.8737,0.4657,-0.2543,1351.81,172.73,-1016.11
17190,-3.8737,0.4838,-0.2479,-382.57,-546.02,-1500.55
17200,-3.8737,0.5220,-0.2397,1929.93,266.54,-422.36
17210,-3.8735,0.5803,-0.2423,-1179.44,1313.48,-953.61
17220,-3.8733,0.6514,-0.2583,-1710.69,985.47,374.51
17230,-3.8732,0.7236,-0.2853,-616.94,-1061.28,1921.33
17240,-3.8730,0.7786,-0.3147,633.06,-514.22,-1844.36
17250,-3.8729,0.8007,-0.3389,-335.69,-279.79,530.58
17260,-3.8729,0.7891,-0.3673,-1507.57,626.53,1827.45
17270,-3.8729,0.7587,-0.4196,1008.06,985.90,-31.98
17280,-3.8727,0.7325,-0.4977,1117.43,-1701.66,858.52
17290,-3.8724,0.7301,-0.5826,1773.68,298.28,827.15
17300,-3.8722,0.7520,-0.6543,1461.18,1423.28,-1860.53
17310,-3.8719,0.7852,-0.6992,258.06,251.46,-1766.91
17320,-3.8718,0.8207,-0.7166,508.06,-1498.47,-860.78
17330,-3.8717,0.8506,-0.7323,1054.93,282.84,29.85
17340,-3.8718,0.8615,-0.7729,883.06,-1732.73,-1626.46
17350,-3.8718,0.8528,-0.8296,-1726.32,1064.15,1389.10
17360,-3.8718,0.8448,-0.8950,1164.31,1814.15,-282.90
17370,-3.8716,0.8534,-0.9773,148.68,1439.15,1685.73
17380,-3.8713,0.8807,-1.0669,1242.43,-1092.10,1951.17
17390,-3.8711,0.9220,-1.1462,742.43,-560.79,-1330.26
17400,-3.8708,0.9681,-1.2058,-1976.32,1283.02,-1861.63
17410,-3.8707,1.0011,-1.2512,-70.07,1658.08,-330.51
17420,-3.8706,1.0112,-1.2845,148.68,-154.30,-861.88
17430,-3.8705,0.9995,-1.3057,1445.56,-419.92,934.94
17440,-3.8705,0.9644,-1.3269,-54.44,876.89,1575.56
17450,-3.8705,0.9115,-1.3567,-554.44,-1841.92,1325.50
17460,-3.8705,0.8523,-1.3943,679.93,-1654.48,606.69
17470,-3.8706,0.7950,-1.4374,1101.81,1532.90,-65.25
17480,-3.8706,0.7421,-1.4791,1773.68,17.15,-674.68
17490,-3.8706,0.6934,-1.4943,-1007.57,-1326.72,-1221.68
17500,-3.8706,0.6497,-1.4645,758.06,735.72,-1518.55
17510,-3.8706,0.6117,-1.4052,-835.69,548.10,-1846.62
17520,-3.8706,0.5796,-1.3464,-1695.07,141.78,1200.38
17530,-3.8707,0.5547,-1.3035,-1804.44,-342.65,-752.69
17540,-3.8707,0.5385,-1.2812,-991.94,1157.29,653.69
17550,-3.8708,0.5265,-1.2922,929.93,1.04,-1783.75
17560,-3.8708,0.5072,-1.3380,-601.32,-1405.27,341.19
17570,-3.8710,0.4701,-1.3875,929.93,735.35,-877.62
17580,-3.8710,0.4131,-1.4041,179.93,-1592.83,-1987.12
17590,-3.8710,0.3490,-1.3901,883.06,282.04,75.38
17600,-3.8711,0.2931,-1.3796,679.93,-1936.83,1169.13
17610,-3.8712,0.2474,-1.3920,1523.68,-593.20,1481.63
17620,-3.8713,0.2018,-1.4149,-320.07,1828.55,1044.13
17630,-3.8715,0.1450,-1.4313,1836.18,-1109.01,340.94
17640,-3.8717,0.0756,-1.4352,-1429.44,797.12,-65.31
17650,-3.8718,-0.0035,-1.4221,1679.93,297.00,-159.06
17660,-3.8718,-0.0873,-1.3901,-445.07,1984.31,372.19
17670,-3.8719,-0.1639,-1.3459,836.18,-1922.06,-1940.25
17680,-3.8719,-0.2247,-1.2926,-976.32,-265.99,825.44
17690,-3.8719,-0.2687,-1.2266,-757.57,-1437.99,44.31
17700,-3.8721,-0.2992,-1.1527,1617.43,-984.92,-877.44
17710,-3.8721,-0.3199,-1.0862,1711.18,468.14,1435.24
17720,-3.8722,-0.3339,-1.0360,-945.07,983.70,-1533.39
17730,-3.8723,-0.3446,-1.0006,1273.68,-594.42,-1705.20
17740,-3.8724,-0.3569,-0.9734,-101.32,-63.23,1404.24
17750,-3.8726,-0.3726,-0.9514,-1679.44,-578.86,185.55
17760,-3.8728,-0.3896,-0.9296,320.56,-1766.36,-1423.77
17770,-3.8729,-0.4021,-0.8953,-1866.94,1030.46,482.54
17780,-3.8732,-0.4031,-0.8469,539.31,1421.08,-1533.02
17790,-3.8733,-0.3912,-0.7949,414.31,-391.42,998.29
17800,-3.8734,-0.3698,-0.7405,1929.93,-1735.17,451.54
17810,-3.8735,-0.3467,-0.6801,679.93,1233.64,904.79
17820,-3.8737,-0.3281,-0.6222,-366.94,968.02,-1923.22
17830,-3.8738,-0.3177,-0.5796,-1991.94,374.33,-719.97
17840,-3.8739,-0.3165,-0.5505,-663.82,1827.45,-157.41
17850,-3.8739,-0.3181,-0.5234,-507.57,1546.20,139.53
17860,-3.8740,-0.3154,-0.4913,-710.69,1014.95,905.21
17870,-3.8741,-0.3026,-0.4492,-366.94,1124.33,-1766.60
17880,-3.8741,-0.2732,-0.3939,1273.68,-1484.99,45.96
17890,-3.8743,-0.2283,-0.3312,1039.31,1593.20,-1391.42
17900,-3.8743,-0.1752,-0.2681,-1210.69,1624.51,-1969.42
17910,-3.8743,-0.1206,-0.2120,1586.18,1702.76,-1516.17
17920,-3.8741,-0.0684,-0.1765,570.56,874.76,202.70
17930,-3.8741,-0.0172,-0.1649,-741.94,1421.69,-1250.37
17940,-3.8740,0.0376,-0.1619,1804.93,-1093.81,1327.76
17950,-3.8740,0.0978,-0.1456,820.56,-718.69,-281.62
17960,-3.8739,0.1604,-0.1101,523.68,1359.56,1905.94
17970,-3.8739,0.2206,-0.0635,539.31,1906.56,-234.62
17980,-3.8738,0.2736,-0.0189,242.43,-124.57,1327.94
17990,-3.8738,0.3099,0.0031,-976.32,1578.61,-718.81
18000,-3.8737,0.3148,-0.0131,-320.07,391.17,1921.88
18010,-3.8735,0.2789,-0.0565,304.93,-1671.26,609.31
18020,-3.8735,0.2133,-0.1033,-288.82,766.11,1937.38
18030,-3.8735,0.1400,-0.1338,-695.07,-1218.38,531.01
18040,-3.8737,0.0803,-0.1378,1929.93,-1124.76,343.44
18050,-3.8739,0.0535,-0.1165,-1710.69,-1640.50,-1187.81
18060,-3.8740,0.0693,-0.0719,-1148.19,1093.81,1546.63
18070,-3.8741,0.1233,-0.0076,883.06,-1203.00,-1531.43
18080,-3.8741,0.1956,0.0544,-210.69,-968.57,-1250.06
18090,-3.8740,0.2626,0.0745,1039.31,-1030.88,1500.06
18100,-3.8739,0.3047,0.0298,1617.43,1531.74,703.25
18110,-3.8739,0.3145,-0.0566,-991.94,-186.95,-1562.50
18120,-3.8739,0.3068,-0.1427,258.06,750.61,-531.37
18130,-3.8738,0.3025,-0.2119,-726.32,1734.92,-1609.68
18140,-3.8735,0.3170,-0.2744,-1273.19,875.55,624.57
18150,-3.8733,0.3607,-0.3438,586.18,875.61,1577.58
18160,-3.8730,0.4287,-0.4182,-1820.07,0.67,-141.30
18170,-3.8727,0.5043,-0.4805,-1116.94,-1530.46,-1391.48
18180,-3.8723,0.5737,-0.5210,554.93,-1499.02,1233.40
18190,-3.8721,0.6376,-0.5542,1445.56,1313.60,-110.41
18200,-3.8717,0.7023,-0.6105,1617.43,1063.72,-1282.35
18210,-3.8713,0.7726,-0.7003,1898.68,1860.72,842.53
18220,-3.8711,0.8545,-0.7981,-1101.32,-1639.16,1107.97
18230,-3.8710,0.9520,-0.8695,1383.06,1845.40,-392.21
18240,-3.8707,1.0626,-0.9105,1867.43,704.96,1732.67
18250,-3.8705,1.1648,-0.9365,23.68,-544.80,998.17
18260,-3.8702,1.2129,-0.9528,1101.81,127.26,1560.67
18270,-3.8700,1.1766,-0.9838,-741.94,-1950.81,-1939.39
18280,-3.8698,1.0771,-1.0656,-1382.57,-1919.62,529.30
18290,-3.8698,0.9584,-1.1879,1883.06,-388.55,-845.89
18300,-3.8698,0.8513,-1.3018,-1320.07,-45.04,-1830.51
18310,-3.8699,0.7607,-1.3658,976.81,1376.65,-221.31
18320,-3.8699,0.6731,-1.3689,1383.06,1173.34,1294.19
18330,-3.8700,0.5771,-1.3295,-1835.69,782.53,-1455.81
18340,-3.8701,0.4716,-1.2855,1883.06,1829.22,-924.50
18350,-3.8702,0.3673,-1.2711,367.43,-545.96,-1330.69
18360,-3.8704,0.2838,-1.2955,-976.32,1297.55,1919.37
18370,-3.8705,0.2313,-1.3374,336.18,-1827.58,1966.19
18380,-3.8706,0.2036,-1.3591,1617.43,812.93,-893.25
18390,-3.8706,0.1869,-1.3353,-1929.44,-1968.38,856.69
18400,-3.8707,0.1722,-1.2721,-70.07,1078.43,-1096.37
18410,-3.8707,0.1609,-1.1998,-1945.07,1172.18,1106.87
18420,-3.8708,0.1573,-1.1526,601.81,-1577.82,-518.01
18430,-3.8708,0.1578,-1.1436,148.68,469.06,1966.49
18440,-3.8708,0.1514,-1.1616,211.18,1625.31,497.74
18450,-3.8710,0.1281,-1.1819,-616.94,-687.26,-705.44
18460,-3.8710,0.0879,-1.1847,398.68,718.99,-1549.19
18470,-3.8710,0.0403,-1.1738,-741.94,359.50,1638.31
18480,-3.8710,-0.0055,-1.1661,1164.31,1750.06,403.93
18490,-3.8711,-0.0448,-1.1676,-695.07,-1250.06,-1705.44
18500,-3.8712,-0.0820,-1.1715,-1726.32,-1437.62,-846.07
18510,-3.8713,-0.1262,-1.1667,1508.06,-1937.68,-705.44
18520,-3.8715,-0.1796,-1.1500,-148.19,-1328.43,-658.57
18530,-3.8716,-0.2347,-1.1268,1023.68,812.13,-236.63
18540,-3.8716,-0.2870,-1.0986,1961.18,-219.24,935.24
18550,-3.8717,-0.3386,-1.0691,-726.32,-609.99,-1111.57
18560,-3.8717,-0.3912,-1.0510,664.31,-828.80,1279.11
18570,-3.8718,-0.4414,-1.0520,1929.93,1483.58,-236.45
18580,-3.8718,-0.4819,-1.0604,-491.94,1358.46,1576.05
18590,-3.8719,-0.5065,-1.0560,-1679.44,280.27,-1861.45
18600,-3.8721,-0.5144,-1.0308,-820.07,842.71,1826.05
18610,-3.8722,-0.5083,-0.9871,-1835.69,77.09,1326.11
18620,-3.8723,-0.4888,-0.9365,-1054.44,1670.84,982.42
18630,-3.8724,-0.4613,-0.8905,1445.56,139.65,779.42
18640,-3.8726,-0.4341,-0.8483,961.18,-1969.67,576.35
18650,-3.8727,-0.4153,-0.8063,445.56,-563.35,498.29
18660,-3.8728,-0.4111,-0.7668,-1148.19,811.65,420.29
18670,-3.8729,-0.4210,-0.7288,-616.94,1858.52,185.97
18680,-3.8732,-0.4368,-0.6833,-1882.57,-1266.48,-48.34
18690,-3.8732,-0.4474,-0.6268,101.81,546.02,92.41
18700,-3.8733,-0.4447,-0.5677,-1257.57,-219.67,811.22
18710,-3.8734,-0.4265,-0.5140,-913.82,-657.17,1764.47
18720,-3.8735,-0.3965,-0.4663,1414.31,-1782.10,-1376.04
18730,-3.8737,-0.3597,-0.4231,1258.06,327.33,-485.29
18740,-3.8737,-0.3190,-0.3838,1961.18,1858.64,452.27
18750,-3.8738,-0.2794,-0.3472,-820.07,-1110.05,1702.33
18760,-3.8739,-0.2460,-0.3088,242.43,-422.42,-125.73
18770,-3.8739,-0.2168,-0.2657,523.68,483.89,-1156.86
18780,-3.8739,-0.1886,-0.2238,258.06,1999.57,-1797.42
18790,-3.8739,-0.1603,-0.1930,-132.57,-625.43,1312.01
18800,-3.8740,-0.1310,-0.1779,-507.57,-687.87,-219.18
18810,-3.8740,-0.0997,-0.1738,-757.57,1249.69,-1953.49
18820,-3.8740,-0.0690,-0.1707,-757.57,1765.38,452.76
18830,-3.8741,-0.0398,-0.1608,-820.07,-1828.31,-1437.87
18840,-3.8741,-0.0115,-0.1461,-1085.69,-562.62,187.13
18850,-3.8743,0.0135,-0.1276,-1460.69,1312.44,1718.44
18860,-3.8744,0.0308,-0.1019,1742.43,-328.12,-765.93
18870,-3.8744,0.0387,-0.0726,-54.44,-1046.88,593.51
18880,-3.8745,0.0449,-0.0535,961.18,-1296.81,1609.19
18890,-3.8746,0.0609,-0.0608,1758.06,1156.31,-1703.25
18900,-3.8748,0.0905,-0.0963,-195.07,218.81,-750.12
18910,-3.8748,0.1300,-0.1488,-413.82,-328.00,999.76
18920,-3.8748,0.1731,-0.2090,648.68,953.37,93.44
18930,-3.8748,0.2096,-0.2661,-1835.69,1250.31,1593.32
18940,-3.8746,0.2340,-0.2986,-1163.82,1937.87,1686.95
18950,-3.8745,0.2517,-0.2990,1961.18,1781.68,-172.49
18960,-3.8743,0.2738,-0.3025,226.81,1734.86,-391.24
18970,-3.8740,0.3075,-0.3567,-945.07,1281.74,-203.74
18980,-3.8738,0.3512,-0.4694,-632.57,-1655.70,-438.23
18990,-3.8735,0.3987,-0.5964,961.18,-77.45,-500.98
19000,-3.8732,0.4465,-0.6825,-960.69,-343.02,155.03
19010,-3.8729,0.5034,-0.7192,1164.31,641.48,1936.16
19020,-3.8726,0.5734,-0.7465,445.56,-61.52,982.91
19030,-3.8722,0.6389,-0.7970,1398.68,454.22,795.41
19040,-3.8718,0.6750,-0.8597,1789.31,1985.60,514.04
19050,-3.8716,0.6779,-0.9009,-1585.69,1954.41,-1236.08
19060,-3.8713,0.6699,-0.9098,-1226.32,688.78,-1001.77
19070,-3.8711,0.6715,-0.9019,1758.06,-451.84,-1986.21
19080,-3.8708,0.6755,-0.8932,1961.18,563.78,1638.85
19090,-3.8705,0.6663,-0.9059,-1523.19,1673.16,29.48
19100,-3.8701,0.6387,-0.9579,1289.31,48.16,1123.23
19110,-3.8698,0.5959,-1.0275,1758.06,1391.85,1591.86
19120,-3.8695,0.5466,-1.0817,289.31,485.53,372.99
19130,-3.8696,0.5006,-1.1080,1976.81,1547.91,-799.01
19140,-3.8698,0.4723,-1.1027,86.18,-1827.15,1591.55
19150,-3.8700,0.4697,-1.0712,461.18,-1139.71,-642.82
19160,-3.8701,0.4774,-1.0280,133.06,-1108.46,1513.49
19170,-3.8702,0.4778,-0.9832,1117.43,422.79,982.36
19180,-3.8704,0.4606,-0.9303,1164.31,-1842.83,-1361.33
19190,-3.8704,0.4130,-0.8536,-1038.82,922.73,-1470.58
19200,-3.8702,0.3389,-0.7533,867.43,-1264.83,482.67
19210,-3.8701,0.2720,-0.6616,-616.94,-421.26,326.60
19220,-3.8700,0.2429,-0.6207,-1179.44,-687.01,1436.16
19230,-3.8699,0.2522,-0.6462,-898.19,547.30,-860.60
19240,-3.8696,0.2780,-0.7162,289.31,1281.74,1201.84
19250,-3.8695,0.2970,-0.7861,-413.82,328.61,-1126.40
19260,-3.8694,0.2997,-0.8214,-1976.32,-624.45,-1360.96
19270,-3.8694,0.2872,-0.8162,-1632.57,-1140.08,-798.52
19280,-3.8694,0.2668,-0.7848,773.68,-468.20,201.48
19290,-3.8696,0.2484,-0.7479,-1835.69,-452.64,-1329.71
19300,-3.8698,0.2374,-0.7244,-195.07,266.05,404.79
19310,-3.8700,0.2322,-0.7155,-1601.32,-718.32,-1704.59
19320,-3.8701,0.2251,-0.7114,1726.81,422.30,561.10
19330,-3.8704,0.2098,-0.7080,820.56,937.93,-907.65
19340,-3.8705,0.1849,-0.7113,-1132.57,1375.37,1795.47
19350,-3.8706,0.1582,-0.7290,-320.07,953.43,1357.97
19360,-3.8707,0.1417,-0.7667,258.06,-1312.19,1764.16
19370,-3.8708,0.1360,-0.8174,-1851.32,1859.62,-954.65
19380,-3.8708,0.1270,-0.8624,1414.31,-624.76,1654.60
19390,-3.8708,0.0999,-0.8983,258.06,1609.62,1357.67
19400,-3.8708,0.0515,-0.9351,789.31,1015.81,1295.10
19410,-3.8708,-0.0128,-0.9696,-1398.19,312.56,498.17
19420,-3.8710,-0.0922,-0.9927,-1632.57,-93.81,-1580.08
19430,-3.8711,-0.1786,-1.0057,211.18,952.94,-830.08
19440,-3.8712,-0.2484,-1.0181,1148.68,-719.12,-533.26
19450,-3.8712,-0.2878,-1.0371,211.18,1702.64,13.61
19460,-3.8713,-0.3043,-1.0602,-835.69,-734.99,935.42
19470,-3.8715,-0.3192,-1.0797,1054.93,311.89,1982.30
19480,-3.8716,-0.3478,-1.0944,-851.32,1811.83,-1174.01
19490,-3.8717,-0.3895,-1.0983,-507.57,-63.23,-767.82
19500,-3.8718,-0.4387,-1.0824,-1851.32,-563.29,-517.82
19510,-3.8718,-0.4880,-1.0522,-148.19,1467.83,13.49
19520,-3.8719,-0.5229,-1.0172,1539.31,1327.15,826.05
19530,-3.8721,-0.5354,-0.9778,1070.56,1811.46,1966.74
19540,-3.8722,-0.5344,-0.9323,-523.19,-1141.72,-595.70
19550,-3.8722,-0.5312,-0.8806,-398.19,686.40,1045.04
19560,-3.8723,-0.5300,-0.8257,8.06,-704.16,-1173.65
19570,-3.8723,-0.5282,-0.7717,164.31,-1672.91,732.73
19580,-3.8724,-0.5194,-0.7230,398.68,1233.34,-1579.65
19590,-3.8726,-0.4991,-0.6805,1523.68,-532.29,-282.71
19600,-3.8726,-0.4708,-0.6428,117.43,905.27,811.16
19610,-3.8727,-0.4430,-0.6130,-257.57,1733.40,-1845.03
19620,-3.8728,-0.4221,-0.5945,-695.07,1545.96,-1.22
19630,-3.8728,-0.4100,-0.5826,1976.81,-78.98,-1891.85
19640,-3.8728,-0.4028,-0.5702,-476.32,1436.65,217.59
19650,-3.8729,-0.3970,-0.5505,445.56,-969.54,-1782.41
19660,-3.8729,-0.3900,-0.5199,1195.56,1546.08,217.65
19670,-3.8730,-0.3774,-0.4818,-1913.82,1467.96,-1610.41
19680,-3.8730,-0.3549,-0.4465,-304.44,-1657.04,967.77
19690,-3.8730,-0.3199,-0.4214,-1413.82,-1141.36,14.71
19700,-3.8732,-0.2710,-0.4047,-945.07,-1922.55,-469.60
19710,-3.8732,-0.2109,-0.3911,1320.56,218.20,-250.79
19720,-3.8730,-0.1490,-0.3799,1008.06,1952.70,811.71
19730,-3.8730,-0.0922,-0.3738,929.93,-609.68,-1563.29
19740,-3.8730,-0.0419,-0.3724,211.18,171.69,-203.86
19750,-3.8729,0.0022,-0.3657,-1351.32,343.63,61.77
19760,-3.8730,0.0411,-0.3444,289.31,1187.50,-828.86
19770,-3.8730,0.0771,-0.3077,1273.68,-78.06,1655.52
19780,-3.8732,0.1111,-0.2606,1883.06,609.50,-156.86
19790,-3.8732,0.1436,-0.2122,-1773.19,-1359.19,1968.20
19800,-3.8732,0.1777,-0.1703,-1616.94,843.99,155.82
19810,-3.8733,0.2122,-0.1376,-1241.94,-1796.57,-1594.12
19820,-3.8733,0.2415,-0.1128,-835.69,-1609.01,890.32
19830,-3.8734,0.2616,-0.0933,-1085.69,1562.93,-47.12
19840,-3.8734,0.2737,-0.0797,1492.43,62.99,-172.06
19850,-3.8733,0.2794,-0.0806,-960.69,1797.36,468.57
19860,-3.8733,0.2780,-0.1001,-226.32,1687.99,1390.44
19870,-3.8733,0.2693,-0.1230,-413.82,-812.01,-1797.12
19880,-3.8733,0.2545,-0.1282,-1523.19,250.49,-812.74
19890,-3.8732,0.2294,-0.1117,586.18,-405.76,1077.82
19900,-3.8730,0.1976,-0.0846,1367.43,1703.55,531.01
19910,-3.8729,0.1780,-0.0608,1304.93,1172.24,1437.32
19920,-3.8728,0.1802,-0.0515,-1210.69,219.06,-859.50
19930,-3.8726,0.1968,-0.0590,-929.44,1406.56,1078.00
19940,-3.8724,0.2219,-0.0834,1195.56,453.49,-1062.62
19950,-3.8722,0.2510,-0.1206,414.31,1328.55,343.57
19960,-3.8721,0.2782,-0.1581,133.06,562.99,1156.01
19970,-3.8719,0.2990,-0.1859,-382.57,-233.89,1890.26
19980,-3.8718,0.3059,-0.2031,-1726.32,203.67,-1015.99
19990,-3.8716,0.2958,-0.2224,-835.69,-1999.45,343.32
20000,-3.8715,0.2762,-0.2535,1867.43,-468.20,1140.14
20010,-3.8713,0.2571,-0.2915,-632.57,-452.64,546.33
20020,-3.8713,0.2448,-0.3267,914.31,-1312.01,-1641.24
20030,-3.8713,0.2473,-0.3561,-663.82,-1812.07,-844.42
20040,-3.8713,0.2655,-0.3840,-335.69,-1577.70,-297.61
20050,-3.8712,0.2894,-0.4099,1992.43,-1155.76,499.21
20060,-3.8712,0.3055,-0.4292,1054.93,-468.20,1952.27
20070,-3.8712,0.3008,-0.4434,-882.57,1063.05,-47.73
20080,-3.8711,0.2729,-0.4575,-1491.94,-749.45,1905.33
20090,-3.8711,0.2324,-0.4777,-1054.44,1437.99,-610.29
20100,-3.8710,0.1924,-0.5046,1758.06,-1140.20,77.15
20110,-3.8710,0.1609,-0.5321,633.06,-593.38,186.46
20120,-3.8710,0.1418,-0.5557,601.81,-109.07,420.78
20130,-3.8710,0.1322,-0.5703,-1835.69,875.24,952.03
20140,-3.8710,0.1235,-0.5720,929.93,-999.76,1717.59
20150,-3.8710,0.1095,-0.5685,-179.44,-1218.57,-1329.28
20160,-3.8710,0.0916,-0.5734,-1976.32,-765.44,-798.03
20170,-3.8710,0.0739,-0.5886,-273.19,-1390.50,-1360.53
20180,-3.8710,0.0574,-0.6073,1461.18,656.37,1045.72
20190,-3.8711,0.0408,-0.6268,-648.19,-1734.31,-1110.60
20200,-3.8711,0.0249,-0.6471,1226.81,-234.31,29.97
20210,-3.8713,0.0129,-0.6663,-804.44,1171.88,-48.16
20220,-3.8715,0.0049,-0.6868,1664.31,-1281.25,-1188.84
20230,-3.8716,-0.0010,-0.7108,633.06,93.75,1029.91
20240,-3.8718,-0.0067,-0.7374,-116.94,1031.19,-1110.78
20250,-3.8719,-0.0177,-0.7618,-851.32,1624.94,420.41
20260,-3.8722,-0.0427,-0.7671,1742.43,-1500.06,1795.35
20270,-3.8724,-0.0863,-0.7372,-1460.69,1828.00,-532.78
20280,-3.8726,-0.1411,-0.6732,961.18,1656.07,1873.54
20290,-3.8727,-0.1831,-0.5988,1945.56,1843.44,1811.16
20300,-3.8727,-0.1819,-0.5476,570.56,-625.37,139.40
20310,-3.8727,-0.1254,-0.5345,726.81,1921.51,1248.90
20320,-3.8726,-0.0271,-0.5492,-38.82,-406.56,889.53
20330,-3.8724,0.0864,-0.5746,539.31,1718.69,1905.15
20340,-3.8723,0.1902,-0.6000,-929.44,-1546.75,-891.78
20350,-3.8721,0.2684,-0.6180,351.81,-796.51,61.28
20360,-3.8719,0.3199,-0.6198,-1632.57,891.11,733.15
20370,-3.8718,0.3479,-0.6049,961.18,672.49,1186.28
20380,-3.8717,0.3556,-0.5873,539.31,-1421.20,1576.90
20390,-3.8716,0.3539,-0.5791,1523.68,828.80,1951.97
20400,-3.8715,0.3550,-0.5831,1304.93,1875.67,-1813.66
20410,-3.8713,0.3610,-0.5968,1445.56,1360.05,1998.84
20420,-3.8712,0.3700,-0.6139,-1788.82,-389.95,1170.65
20430,-3.8712,0.3827,-0.6293,-632.57,1422.55,-204.35
20440,-3.8711,0.4026,-0.6455,992.43,-546.14,-1829.41
20450,-3.8710,0.4302,-0.6635,-460.69,1375.73,873.72
20460,-3.8708,0.4568,-0.6737,-929.44,-921.08,201.78
20470,-3.8708,0.4689,-0.6726,-1523.19,1766.48,-282.59
20480,-3.8707,0.4579,-0.6711,23.68,1907.17,-1470.09
20490,-3.8707,0.4326,-0.6766,-1382.57,-1905.40,-376.34
20500,-3.8707,0.4142,-0.6847,-616.94,1391.42,-782.59
20510,-3.8707,0.4166,-0.6932,1023.68,360.17,-1126.34
20520,-3.8707,0.4366,-0.6982,1336.18,-733.58,-532.65
20530,-3.8706,0.4592,-0.6868,-101.32,-1374.21,842.35
20540,-3.8706,0.4702,-0.6589,-1210.69,94.60,-1360.72
20550,-3.8705,0.4707,-0.6334,195.56,-342.83,779.91
20560,-3.8705,0.4706,-0.6262,258.06,-1077.21,-126.28
20570,-3.8702,0.4706,-0.6422,242.43,-155.33,686.22
20580,-3.8701,0.4657,-0.6779,242.43,1797.79,-1173.16
20590,-3.8699,0.4540,-0.7272,-382.57,1235.23,1936.16
20600,-3.8696,0.4252,-0.7993,-1882.57,-1077.27,-1798.34
20610,-3.8694,0.3640,-0.9054,-1570.07,1688.29,-610.96
20620,-3.8691,0.2686,-1.0341,-1398.19,110.05,-64.27
20630,-3.8689,0.1512,-1.1482,-1616.94,-358.89,1997.92
20640,-3.8688,0.0314,-1.2137,-632.57,1031.49,560.24
20650,-3.8689,-0.0757,-1.2347,23.68,640.69,-596.13
20660,-3.8690,-0.1685,-1.2375,-1679.44,1968.57,-1111.82
20670,-3.8693,-0.2512,-1.2402,-1554.44,1609.01,-346.19
20680,-3.8695,-0.3286,-1.2521,-148.19,1265.08,-1018.07
20690,-3.8698,-0.4048,-1.2793,1945.56,-250.67,1966.25
20700,-3.8700,-0.4789,-1.3174,195.56,264.83,794.37
20710,-3.8704,-0.5470,-1.3533,-1288.82,-610.35,-627.62
20720,-3.8706,-0.6052,-1.3741,1992.43,-1204.22,1294.19
20730,-3.8710,-0.6479,-1.3740,-1460.69,123.78,-1283.94
20740,-3.8712,-0.6720,-1.3477,1070.56,139.34,591.06
20750,-3.8716,-0.6844,-1.2850,1992.43,-485.72,-643.31
20760,-3.8718,-0.6929,-1.1919,398.68,-470.09,-1236.94
20770,-3.8721,-0.6986,-1.0929,-679.44,-548.28,-1814.88
20780,-3.8723,-0.6987,-1.0067,-1413.82,123.60,1216.61
20790,-3.8727,-0.6921,-0.9343,-1429.44,-845.15,-173.89
20800,-3.8729,-0.6824,-0.8671,-585.69,420.47,-1861.21
20810,-3.8732,-0.6727,-0.7968,664.31,1029.91,607.67
20820,-3.8734,-0.6605,-0.7217,1898.68,-1970.09,14.04
20830,-3.8737,-0.6415,-0.6490,-538.82,-360.72,982.91
20840,-3.8739,-0.6147,-0.5868,1898.68,936.22,-563.78
20850,-3.8740,-0.5803,-0.5393,1320.56,905.03,-938.66
20860,-3.8741,-0.5408,-0.5042,1726.81,-1016.78,-329.22
20870,-3.8741,-0.5013,-0.4724,-1210.69,-516.72,1108.34
20880,-3.8743,-0.4658,-0.4386,-163.82,-454.16,-766.60
20890,-3.8743,-0.4366,-0.4021,383.06,-125.92,1795.96
20900,-3.8743,-0.4133,-0.3660,117.43,546.02,358.58
20910,-3.8744,-0.3921,-0.3350,-898.19,1171.02,-1375.73
20920,-3.8744,-0.3705,-0.3092,1820.56,1139.83,499.33
20930,-3.8745,-0.3470,-0.2819,586.18,436.77,-1844.36
20940,-3.8746,-0.3208,-0.2465,-413.82,-63.23,-125.61
20950,-3.8746,-0.2903,-0.2068,-1054.44,468.08,1843.26
20960,-3.8746,-0.2531,-0.1699,-1148.19,1546.26,218.32
20970,-3.8748,-0.2119,-0.1405,-382.57,-1734.92,-1000.37
20980,-3.8748,-0.1724,-0.1229,883.06,-1969.18,-1609.68
20990,-3.8748,-0.1390,-0.1204,1945.56,280.88,-1406.49
21000,-3.8748,-0.1129,-0.1294,-1788.82,609.07,-734.62
21010,-3.8748,-0.0900,-0.1455,1554.93,-547.12,-172.18
21020,-3.8748,-0.0660,-0.1683,492.43,1390.44,-234.68
21030,-3.8748,-0.0389,-0.1931,-445.07,-1531.43,-1156.62
21040,-3.8748,-0.0031,-0.2163,-976.32,-703.25,1593.32
21050,-3.8748,0.0480,-0.2415,-382.57,328.06,937.07
21060,-3.8748,0.1173,-0.2666,-1851.32,1093.81,1921.39
21070,-3.8746,0.2021,-0.2931,-976.32,1875.18,1327.58
21080,-3.8745,0.2938,-0.3335,1883.06,-1515.26,-1109.99
21090,-3.8743,0.3839,-0.3873,1617.43,1313.05,1702.45
21100,-3.8740,0.4672,-0.4349,1148.68,-1577.39,858.58
21110,-3.8739,0.5411,-0.4614,-195.07,328.98,-188.35
21120,-3.8737,0.6091,-0.4713,1273.68,938.54,-1469.67
21130,-3.8734,0.6780,-0.4871,1976.81,-326.97,1327.15
21140,-3.8732,0.7468,-0.5204,-1210.69,1657.53,514.65
21150,-3.8729,0.8090,-0.5615,-398.19,1392.03,92.71
21160,-3.8728,0.8582,-0.6001,-445.07,126.53,-329.22
21170,-3.8726,0.8942,-0.6292,1851.81,-810.85,-1251.22
21180,-3.8723,0.9231,-0.6432,-1538.82,-529.54,1764.34
21190,-3.8721,0.9532,-0.6484,-1835.69,1673.65,1217.47
21200,-3.8718,0.9918,-0.6644,-1976.32,1001.83,920.59
21210,-3.8716,1.0372,-0.7018,-1038.82,-1044.98,951.78
21220,-3.8713,1.0743,-0.7471,773.68,-1826.11,1264.22
21230,-3.8711,1.0795,-0.7839,1523.68,377.08,920.41
21240,-3.8710,1.0375,-0.8220,-1820.07,-341.67,-1110.96
21250,-3.8708,0.9552,-0.8853,804.93,-1216.74,-642.27
21260,-3.8707,0.8577,-0.9786,-1726.32,-1310.67,-658.02
21270,-3.8706,0.7654,-1.0819,1789.31,-1263.98,-361.33
21280,-3.8704,0.6877,-1.1577,1976.81,1517.09,1154.11
21290,-3.8701,0.6365,-1.1667,39.31,-186.16,466.43
21300,-3.8699,0.6166,-1.1061,1476.81,-1342.53,763.31
21310,-3.8698,0.6255,-1.0234,-1070.07,-1576.97,-2.20
21320,-3.8695,0.6566,-0.9626,70.56,1001.22,701.11
21330,-3.8695,0.6942,-0.9225,54.93,782.53,-1142.52
21340,-3.8695,0.7212,-0.8806,867.43,1923.22,-1079.96
21350,-3.8695,0.7283,-0.8258,320.56,-717.35,1201.35
21360,-3.8696,0.7103,-0.7616,1226.81,-1701.72,-1798.52
21370,-3.8698,0.6664,-0.6995,-1070.07,-1483.03,-1329.65
21380,-3.8699,0.6146,-0.6606,1304.93,-1529.97,-188.90
21390,-3.8699,0.5807,-0.6589,-1320.07,-561.34,-1751.34
21400,-3.8699,0.5664,-0.6792,-1663.82,-342.65,1670.53
21410,-3.8699,0.5485,-0.6903,508.06,1063.60,-1954.47
21420,-3.8699,0.5029,-0.6796,-1788.82,-358.34,-970.15
21430,-3.8698,0.4277,-0.6670,383.06,1016.60,61.16
21440,-3.8698,0.3436,-0.6796,-1241.94,-1374.21,936.16
21450,-3.8698,0.2716,-0.7140,-7.57,1016.24,1436.16
21460,-3.8698,0.2158,-0.7487,-1226.32,609.86,1576.72
21470,-3.8698,0.1661,-0.7819,-366.94,172.24,1920.41
21480,-3.8698,0.1095,-0.8281,1273.68,-77.82,-1564.09
21490,-3.8698,0.0302,-0.8937,-1976.32,-1999.82,-1298.52
21500,-3.8698,-0.0785,-0.9668,-132.57,1609.38,-1486.15
21510,-3.8698,-0.2047,-1.0273,1961.18,265.44,1435.61
21520,-3.8699,-0.3311,-1.0640,1804.93,515.20,-1267.64
21530,-3.8700,-0.4381,-1.0812,1633.06,-172.55,1607.24
21540,-3.8702,-0.5104,-1.0914,-70.07,1624.08,-1564.64
21550,-3.8705,-0.5428,-1.0983,-1320.07,311.46,-845.89
21560,-3.8706,-0.5435,-1.1016,-1476.32,-563.60,1763.43
21570,-3.8707,-0.5339,-1.1050,-1554.44,-985.47,-1205.32
21580,-3.8707,-0.5388,-1.1018,-335.69,-1422.97,1279.05
21590,-3.8708,-0.5718,-1.0797,-960.69,-1016.72,-595.95
21600,-3.8710,-0.6327,-1.0334,-1179.44,1811.34,-158.39
21610,-3.8711,-0.7112,-0.9664,-976.32,-266.91,-1533.33
21620,-3.8713,-0.7882,-0.8868,976.81,311.10,-376.89
21630,-3.8715,-0.8473,-0.8059,-882.57,-1501.59,76.35
21640,-3.8717,-0.8859,-0.7349,-445.07,857.67,529.66
21650,-3.8719,-0.9091,-0.6771,-1382.57,1951.35,1295.41
21660,-3.8722,-0.9202,-0.6265,-351.32,1341.92,-1845.09
21670,-3.8724,-0.9220,-0.5767,-1773.19,-173.71,-1079.41
21680,-3.8727,-0.9146,-0.5242,1992.43,-1798.71,-48.03
21690,-3.8728,-0.8951,-0.4709,-1054.44,920.04,1561.46
21700,-3.8730,-0.8644,-0.4211,1429.93,-267.40,-125.98
21710,-3.8732,-0.8268,-0.3717,1367.43,-1892.33,-953.98
21720,-3.8733,-0.7894,-0.3226,-1820.07,435.85,-860.11
21730,-3.8734,-0.7576,-0.2810,-1038.82,-1282.84,-78.80
21740,-3.8734,-0.7317,-0.2505,-960.69,45.35,983.83
21750,-3.8735,-0.7113,-0.2257,-1648.19,-48.34,-1922.42
21760,-3.8737,-0.6949,-0.1993,961.18,-876.40,-484.86
21770,-3.8737,-0.6763,-0.1705,-945.07,-1501.40,1468.32
21780,-3.8738,-0.6501,-0.1473,1445.56,-1813.84,-234.74
21790,-3.8738,-0.6173,-0.1359,789.31,1154.97,-1625.31
21800,-3.8738,-0.5813,-0.1344,992.43,-1376.22,1405.94
21810,-3.8738,-0.5461,-0.1425,1601.81,-1188.66,296.57
21820,-3.8739,-0.5138,-0.1589,-1898.19,1780.15,-1281.56
21830,-3.8739,-0.4834,-0.1771,-1757.57,-329.16,1015.26
21840,-3.8740,-0.4512,-0.1951,-1866.94,1342.77,-531.62
21850,-3.8740,-0.4126,-0.2145,-1741.94,-954.04,-1812.93
21860,-3.8740,-0.3635,-0.2302,-804.44,561.65,1202.70
21870,-3.8740,-0.3038,-0.2351,1476.81,-1453.86,702.64
21880,-3.8740,-0.2395,-0.2295,1117.43,1921.26,952.64
21890,-3.8740,-0.1766,-0.2257,1351.81,-1359.86,1999.51
21900,-3.8740,-0.1195,-0.2352,1398.68,-875.37,-453.61
21910,-3.8739,-0.0693,-0.2534,711.18,1906.01,1218.26
21920,-3.8739,-0.0215,-0.2712,-866.94,-422.06,-969.30
21930,-3.8738,0.0297,-0.2894,1258.06,1296.81,999.45
21940,-3.8738,0.0909,-0.3051,-195.07,-1046.88,-656.86
21950,-3.8737,0.1652,-0.3110,-351.32,953.25,-1438.11
21960,-3.8735,0.2445,-0.3046,1148.68,187.81,-1156.86
21970,-3.8734,0.3182,-0.2893,-695.07,1016.05,-313.11
21980,-3.8732,0.3761,-0.2712,742.43,-1030.64,530.64
21990,-3.8730,0.4088,-0.2556,148.68,1281.98,983.83
22000,-3.8729,0.4142,-0.2513,336.18,-717.96,952.58
22010,-3.8728,0.4036,-0.2640,1023.68,-171.08,718.20
22020,-3.8727,0.4028,-0.2839,-335.69,-1796.14,577.58
22030,-3.8726,0.4338,-0.3026,-429.44,-343.02,921.26
22040,-3.8724,0.4923,-0.3209,-460.69,1266.42,1843.14
22050,-3.8723,0.5540,-0.3302,-976.32,-1077.21,-938.17
22060,-3.8721,0.5929,-0.3180,-1085.69,1735.41,343.08
22070,-3.8719,0.5944,-0.2971,-101.32,-702.03,1343.08
22080,-3.8718,0.5616,-0.3000,86.18,1969.91,-1938.11
22090,-3.8717,0.5082,-0.3385,-101.32,1594.79,-1766.24
22100,-3.8716,0.4465,-0.3899,1054.93,672.85,1264.95
22110,-3.8716,0.3925,-0.4283,1164.31,-1905.40,-157.04
22120,-3.8715,0.3599,-0.4469,-1757.57,1172.61,-750.85
22130,-3.8713,0.3438,-0.4501,-1929.44,-1202.45,-594.67
22140,-3.8712,0.3253,-0.4460,8.06,-1608.70,-719.67
22150,-3.8711,0.2836,-0.4413,1648.68,-1093.14,1811.58
22160,-3.8711,0.2083,-0.4414,304.93,-483.83,-1563.42
22170,-3.8711,0.1085,-0.4541,-1335.69,-499.63,1295.96
22180,-3.8712,-0.0007,-0.4784,1898.68,1875.18,-1422.79
22190,-3.8713,-0.1079,-0.5029,-85.69,-1218.81,1827.15
22200,-3.8716,-0.1973,-0.5194,-1804.44,-359.62,-141.66
22210,-3.8717,-0.2498,-0.5375,-1241.94,1530.82,-438.54
22220,-3.8717,-0.2495,-0.5688,39.31,-781.74,-516.72
22230,-3.8715,-0.1888,-0.6084,70.56,-797.36,655.09
22240,-3.8712,-0.0784,-0.6447,-163.82,-1859.80,-1844.97
22250,-3.8708,0.0511,-0.6714,1976.81,1499.82,873.72
22260,-3.8706,0.1737,-0.6885,-1445.07,-1937.44,-1391.97
22270,-3.8702,0.2766,-0.6991,-1757.57,-124.69,232.97
22280,-3.8700,0.3466,-0.7032,-585.69,-1483.89,-1063.90
22290,-3.8696,0.3760,-0.7023,367.43,1985.05,-1720.15
22300,-3.8693,0.3798,-0.7032,133.06,-1889.89,1139.22
22310,-3.8690,0.3878,-0.7146,617.43,1985.11,-1345.15
22320,-3.8688,0.4214,-0.7443,1648.68,531.98,-1767.03
22330,-3.8687,0.4705,-0.7814,1945.56,735.17,-188.96
22340,-3.8685,0.5098,-0.7909,226.81,-14.71,-267.21
22350,-3.8684,0.5264,-0.7664,1258.06,-1233.40,1951.54
22360,-3.8684,0.5238,-0.7406,-616.94,1907.23,-1954.65
22370,-3.8685,0.5032,-0.7295,-945.07,1204.10,-548.34
22380,-3.8687,0.4572,-0.7184,414.31,-1374.02,-1282.71
22390,-3.8688,0.3881,-0.7004,-1476.32,47.73,670.47
22400,-3.8690,0.3075,-0.6893,1679.93,-1655.52,1561.10
22410,-3.8693,0.2319,-0.6926,-632.57,-233.83,-1845.15
22420,-3.8695,0.1770,-0.7031,1695.56,-655.82,-454.53
22430,-3.8696,0.1448,-0.7141,-1335.69,-1999.69,-1282.65
22440,-3.8698,0.1251,-0.7201,-1460.69,593.99,-235.78
22450,-3.8698,0.1052,-0.7244,23.68,-171.63,-1892.09
22460,-3.8698,0.0728,-0.7373,1476.81,-718.57,873.54
22470,-3.8699,0.0214,-0.7582,1320.56,1625.12,-813.96
22480,-3.8699,-0.0437,-0.7794,-1257.57,-1046.88,701.60
22490,-3.8700,-0.1145,-0.7943,-1585.69,249.88,1139.10
22500,-3.8701,-0.1874,-0.7997,1351.81,-1656.49,404.66
22510,-3.8704,-0.2612,-0.8014,23.68,1655.88,-1173.46
22520,-3.8705,-0.3353,-0.8097,-1429.44,1436.95,842.16
22530,-3.8707,-0.4070,-0.8223,1086.18,374.33,-1407.84
22540,-3.8708,-0.4730,-0.8265,-85.69,-1235.23,123.35
22550,-3.8711,-0.5312,-0.8186,-538.82,-1782.23,1560.85
22560,-3.8713,-0.5807,-0.8020,8.06,-766.66,-954.77
22570,-3.8715,-0.6255,-0.7782,1679.93,1358.22,779.66
22580,-3.8717,-0.6716,-0.7469,-54.44,404.97,-1220.28
22590,-3.8718,-0.7180,-0.7100,-1960.69,404.91,982.91
22600,-3.8721,-0.7604,-0.6711,101.81,1139.22,-329.53
22610,-3.8722,-0.7927,-0.6354,-1320.07,-1892.15,-923.22
22620,-3.8723,-0.8079,-0.6060,-1460.69,-1314.09,-548.16
22630,-3.8723,-0.8054,-0.5801,601.81,-1548.46,592.53
22640,-3.8724,-0.7944,-0.5493,914.31,1764.04,-1813.66
22650,-3.8726,-0.7833,-0.5089,-1679.44,1701.54,-63.60
22660,-3.8726,-0.7714,-0.4648,-257.57,-1126.59,1545.84
22670,-3.8727,-0.7527,-0.4288,1273.68,514.10,-1125.92
22680,-3.8728,-0.7209,-0.4028,-335.69,1123.47,-141.48
22690,-3.8728,-0.6744,-0.3785,-273.19,451.66,921.08
22700,-3.8729,-0.6217,-0.3502,1679.93,-438.84,-1500.79
22710,-3.8729,-0.5748,-0.3177,429.93,-813.72,702.39
22720,-3.8730,-0.5396,-0.2834,-1570.07,-657.41,-360.05
22730,-3.8730,-0.5117,-0.2511,-1054.44,-266.72,-641.24
22740,-3.8730,-0.4868,-0.2279,-1491.94,-126.04,-344.30
22750,-3.8729,-0.4631,-0.2170,1695.56,-1157.23,30.76
22760,-3.8729,-0.4373,-0.2142,726.81,233.46,374.57
