timestamp_ms,ax,ay,az,gx,gy,gz
0,-3.8701,-0.1354,-0.0352,1429.93,-406.74,1327.94
10,-3.8702,-0.0637,-0.0326,-1320.07,-484.68,124.88
20,-3.8702,0.0106,-0.0834,-148.19,-156.43,1265.50
30,-3.8701,0.0967,-0.1770,1367.43,1328.12,-562.68
40,-3.8698,0.1804,-0.2745,383.06,1343.93,77.76
50,-3.8695,0.2406,-0.3561,-898.19,859.68,671.33
60,-3.8693,0.2578,-0.4064,-1195.07,-1577.70,124.27
70,-3.8693,0.2247,-0.4121,1008.06,-15.14,-375.85
80,-3.8694,0.1603,-0.3894,773.68,-749.57,-953.98
90,-3.8698,0.0981,-0.3638,523.68,-1843.44,-1188.29
100,-3.8702,0.0554,-0.3473,570.56,1437.68,-219.48
110,-3.8706,0.0234,-0.3463,-898.19,-453.06,-828.86
120,-3.8708,-0.0101,-0.3657,-991.94,-328.12,-328.86
130,-3.8708,-0.0393,-0.3995,-1288.82,1203.06,1186.77
140,-3.8708,-0.0497,-0.4320,-1023.19,874.88,1905.46
150,-3.8708,-0.0409,-0.4470,1648.68,718.63,-750.85
160,-3.8708,-0.0320,-0.4338,-1226.32,-1203.25,-782.17
170,-3.8708,-0.0367,-0.3972,-85.69,484.25,889.77
180,-3.8710,-0.0479,-0.3535,-695.07,1171.75,202.33
190,-3.8712,-0.0511,-0.3162,1883.06,-1234.50,-1063.23
200,-3.8713,-0.0397,-0.2949,1461.18,-453.25,-625.67
210,-3.8713,-0.0144,-0.2943,-1070.07,-1734.50,-1188.11
220,-3.8712,0.0204,-0.3087,-1835.69,-1656.31,561.89
230,-3.8712,0.0588,-0.3196,-1382.57,484.38,1796.26
240,-3.8712,0.0945,-0.3112,-460.69,-906.19,1452.45
250,-3.8712,0.1168,-0.2971,101.81,172.06,983.76
260,-3.8712,0.1263,-0.3024,-1038.82,1968.93,1733.76
270,-3.8712,0.1385,-0.3229,179.93,1297.12,-984.99
280,-3.8712,0.1586,-0.3292,1742.43,-1327.88,-922.55
290,-3.8712,0.1802,-0.3026,304.93,1859.68,1233.70
300,-3.8713,0.2000,-0.2554,-929.44,1265.93,-1281.86
310,-3.8713,0.2140,-0.2180,1601.81,-687.13,-1891.17
320,-3.8712,0.2220,-0.2200,-601.32,94.12,858.95
330,-3.8711,0.2396,-0.2609,429.93,-155.82,1937.01
340,-3.8710,0.2926,-0.3016,-1320.07,-1390.20,-359.92
350,-3.8707,0.3783,-0.3092,1461.18,1391.17,15.01
360,-3.8707,0.4651,-0.2926,429.93,422.61,874.39
370,-3.8708,0.5193,-0.2812,-460.69,-1452.27,1936.89
380,-3.8710,0.5205,-0.2834,-1523.19,0.98,1671.33
390,-3.8711,0.4751,-0.2855,-1366.94,-280.27,1108.76
400,-3.8713,0.4047,-0.2864,820.56,-545.96,-281.86
410,-3.8715,0.3237,-0.2936,-195.07,-655.52,-1125.61
420,-3.8716,0.2351,-0.2883,1445.56,-1577.51,-641.24
430,-3.8716,0.1599,-0.2548,-1898.19,-905.82,1015.01
440,-3.8717,0.1252,-0.2153,476.81,-609.07,-1344.30
450,-3.8718,0.1392,-0.1829,39.31,437.74,-906.68
460,-3.8719,0.1849,-0.1475,1820.56,593.99,-47.24
470,-3.8719,0.2195,-0.1202,-320.07,1125.31,-781.56
480,-3.8718,0.2036,-0.1306,101.81,609.80,1437.26
490,-3.8717,0.1420,-0.1799,-1929.44,-718.38,-1719.06
500,-3.8716,0.0792,-0.2366,-1820.07,968.99,-344.12
510,-3.8715,0.0492,-0.2792,-1851.32,1718.87,-1266.11
520,-3.8715,0.0375,-0.3090,-1695.07,265.69,-1734.92
530,-3.8716,0.0175,-0.3185,804.93,453.19,1827.51
540,-3.8718,0.0128,-0.2833,-1757.57,-765.62,-1172.55
550,-3.8719,0.0699,-0.2324,1648.68,-265.62,1640.01
560,-3.8719,0.1932,-0.2402,961.18,-1749.88,-1937.99
570,-3.8717,0.3550,-0.3174,742.43,1250.37,249.51
580,-3.8715,0.5295,-0.4143,1445.56,-624.33,1796.20
590,-3.8712,0.6965,-0.4987,-210.69,-1030.27,-703.98
600,-3.8710,0.8412,-0.5509,1164.31,173.22,1530.27
610,-3.8710,0.9501,-0.5493,-320.07,1485.96,1764.53
620,-3.8712,1.0122,-0.4885,1617.43,1689.33,-969.85
630,-3.8715,1.0477,-0.3843,1570.56,1470.70,1327.15
640,-3.8717,1.0977,-0.2760,-1882.57,-1185.49,1546.08
650,-3.8718,1.1813,-0.2103,508.06,674.01,1421.33
660,-3.8719,1.2700,-0.1952,-788.82,1080.38,-94.18
670,-3.8718,1.3340,-0.1945,-1429.44,-981.93,374.57
680,-3.8718,1.3585,-0.1949,-1241.94,-888.06,-766.05
690,-3.8717,1.3762,-0.1962,1898.68,-950.50,-734.80
700,-3.8715,1.3943,-0.1791,164.31,-1106.69,1452.70
710,-3.8712,1.3542,-0.1639,-1523.19,1080.81,-906.62
720,-3.8708,1.2778,-0.1641,1351.81,-981.75,327.76
730,-3.8707,1.1813,-0.1689,-429.44,-997.56,-1953.49
740,-3.8706,1.0481,-0.1741,-788.82,-1622.74,187.13
750,-3.8706,0.8962,-0.1805,-1835.69,1720.76,359.01
760,-3.8706,0.7745,-0.2051,-1273.19,892.33,1562.13
770,-3.8705,0.7179,-0.2665,-851.32,1751.46,999.57
780,-3.8704,0.6947,-0.3586,-101.32,1891.97,1702.58
790,-3.8702,0.6663,-0.4368,929.93,-1904.91,-1922.61
800,-3.8701,0.6379,-0.4666,1289.31,95.03,92.90
810,-3.8702,0.6288,-0.4487,1664.31,282.47,-1719.67
820,-3.8704,0.6469,-0.3971,492.43,-1436.28,561.58
830,-3.8706,0.6924,-0.3381,-1195.07,1173.10,108.58
840,-3.8710,0.7500,-0.3075,633.06,720.09,-875.67
850,-3.8711,0.7926,-0.3239,8.06,642.09,46.26
860,-3.8712,0.8059,-0.3749,1461.18,-1451.60,608.70
870,-3.8712,0.7831,-0.4301,-835.69,17.15,827.39
880,-3.8712,0.7168,-0.4709,242.43,954.65,-813.35
890,-3.8711,0.6208,-0.4957,-241.94,-279.91,1936.52
900,-3.8710,0.5286,-0.5059,-523.19,548.03,61.52
910,-3.8710,0.4647,-0.5037,-335.69,-749.02,1186.46
920,-3.8710,0.4319,-0.4934,-507.57,-467.90,780.21
930,-3.8711,0.4207,-0.4747,-710.69,844.54,-1422.85
940,-3.8712,0.4211,-0.4441,1851.81,-764.83,-813.48
950,-3.8713,0.4310,-0.4012,1914.31,-842.96,-579.04
960,-3.8715,0.4521,-0.3546,-820.07,641.42,-360.17
970,-3.8716,0.4801,-0.3221,1883.06,-1389.77,-578.86
980,-3.8717,0.5046,-0.3160,1461.18,-1233.46,-1469.42
990,-3.8718,0.5123,-0.3384,601.81,-452.15,1718.08
1000,-3.8719,0.4917,-0.3843,1586.18,688.48,-1656.92
1010,-3.8719,0.4530,-0.4355,-1054.44,-1186.58,1311.71
1020,-3.8719,0.4125,-0.4707,1992.43,250.85,-1891.48
1030,-3.8719,0.3655,-0.4865,804.93,-249.21,-782.23
1040,-3.8718,0.3162,-0.4811,-1210.69,1735.05,499.02
1050,-3.8718,0.2805,-0.4498,476.81,-1577.51,1389.65
1060,-3.8719,0.2659,-0.4056,-85.69,-1577.64,-110.29
1070,-3.8721,0.2705,-0.3754,-1960.69,78.61,-563.29
1080,-3.8722,0.2822,-0.3754,-1366.94,-46.39,1717.96
1090,-3.8723,0.2777,-0.4026,133.06,-46.33,1358.58
1100,-3.8724,0.2456,-0.4366,-445.07,469.24,-63.29
1110,-3.8723,0.2012,-0.4506,-554.44,109.80,530.40
1120,-3.8723,0.1646,-0.4373,1758.06,-1671.51,733.46
1130,-3.8724,0.1392,-0.4144,1070.56,31.56,-875.85
1140,-3.8724,0.1127,-0.3987,1820.56,-1046.63,186.65
1150,-3.8726,0.0769,-0.3885,-1570.07,968.93,1061.71
1160,-3.8727,0.0372,-0.3726,1851.81,-1734.25,-1828.92
1170,-3.8728,0.0017,-0.3580,773.68,312.56,-656.98
1180,-3.8728,-0.0280,-0.3805,226.81,-1828.12,514.89
1190,-3.8729,-0.0602,-0.4618,429.93,-687.56,-688.29
1200,-3.8728,-0.0990,-0.5725,304.93,906.13,-672.79
1210,-3.8724,-0.1333,-0.6604,-663.82,-1265.87,-1985.53
1220,-3.8719,-0.1464,-0.7119,-1054.44,-515.93,1451.78
1230,-3.8715,-0.1218,-0.7628,1273.68,890.32,-438.90
1240,-3.8708,-0.0558,-0.8420,414.31,-1625.24,-1329.65
1250,-3.8702,0.0337,-0.9286,867.43,234.25,842.10
1260,-3.8698,0.1169,-0.9779,320.56,1140.69,638.79
1270,-3.8694,0.1790,-0.9720,-1023.19,-1171.69,1279.30
1280,-3.8691,0.2201,-0.9303,-1085.69,-421.57,-1658.20
1290,-3.8690,0.2245,-0.8795,179.93,922.30,-579.96
1300,-3.8689,0.1765,-0.8176,742.43,-577.70,888.85
1310,-3.8689,0.0880,-0.7385,-1398.19,-655.94,404.60
1320,-3.8690,-0.0245,-0.6600,-726.32,1468.87,-782.71
1330,-3.8690,-0.1464,-0.5833,867.43,-468.81,1264.28
1340,-3.8691,-0.2719,-0.4966,1273.68,1359.07,-1907.41
1350,-3.8693,-0.3962,-0.4072,1211.18,452.58,1952.15
1360,-3.8694,-0.4904,-0.3390,1289.31,-110.17,874.15
1370,-3.8696,-0.5339,-0.2939,1242.43,624.02,-1250.67
1380,-3.8698,-0.5444,-0.2585,-335.69,-1610.47,1186.89
1390,-3.8699,-0.5450,-0.2429,-1679.44,-1079.22,1718.20
1400,-3.8700,-0.5474,-0.2511,-1757.57,920.78,-156.74
1410,-3.8700,-0.5685,-0.2594,1945.56,-126.10,-719.30
1420,-3.8699,-0.6149,-0.2509,-757.57,-1188.66,233.83
1430,-3.8699,-0.6628,-0.2471,1304.93,-94.97,-1063.05
1440,-3.8698,-0.6917,-0.2744,-835.69,389.28,-562.99
1450,-3.8695,-0.6976,-0.3278,-523.19,889.22,343.20
1460,-3.8695,-0.6788,-0.3920,-1288.82,-1938.90,-188.17
1470,-3.8694,-0.6414,-0.4484,1117.43,1842.41,327.33
1480,-3.8695,-0.6023,-0.4789,1914.31,-1376.28,858.46
1490,-3.8698,-0.5680,-0.4880,-1085.69,-1282.47,1795.90
1500,-3.8700,-0.5259,-0.4949,-695.07,1545.72,1514.65
1510,-3.8702,-0.4716,-0.5161,695.56,670.84,1780.27
1520,-3.8705,-0.4169,-0.5498,-351.32,1952.15,-1032.29
1530,-3.8706,-0.3702,-0.5758,-1351.32,1639.77,952.03
1540,-3.8708,-0.3367,-0.5853,617.43,-1688.23,-1173.03
1550,-3.8710,-0.3151,-0.5808,914.31,1093.08,342.59
1560,-3.8712,-0.2974,-0.5601,-320.07,1671.20,1498.84
1570,-3.8715,-0.2764,-0.5228,1945.56,327.51,-1469.85
1580,-3.8716,-0.2471,-0.4832,633.06,1093.20,655.21
1590,-3.8717,-0.2089,-0.4589,383.06,-1828.61,1108.40
1600,-3.8718,-0.1661,-0.4513,1273.68,1280.82,-547.79
1610,-3.8718,-0.1274,-0.4521,-1257.57,-1750.37,-1141.54
1620,-3.8718,-0.0963,-0.4581,-304.44,-1859.68,-282.17
1630,-3.8717,-0.0728,-0.4694,-320.07,1374.76,1170.96
1640,-3.8717,-0.0586,-0.4762,-1304.44,-62.68,1420.90
1650,-3.8717,-0.0492,-0.4696,508.06,-937.62,217.77
1660,-3.8718,-0.0387,-0.4568,1711.18,-93.87,-1500.98
1670,-3.8718,-0.0308,-0.4532,-945.07,1546.75,1420.96
1680,-3.8718,-0.0248,-0.4644,70.56,1999.94,1514.71
1690,-3.8718,-0.0098,-0.4878,836.18,578.06,1920.96
1700,-3.8718,0.0055,-0.5214,-1241.94,1578.06,1264.65
1710,-3.8719,0.0131,-0.5566,711.18,1265.62,-16.66
1720,-3.8719,0.0312,-0.5796,1679.93,750.00,-1313.60
1730,-3.8719,0.0619,-0.5795,8.06,1812.56,1092.59
1740,-3.8719,0.1029,-0.5647,-70.07,1828.19,342.59
1750,-3.8719,0.1542,-0.5637,1179.93,-281.07,670.72
1760,-3.8719,0.2057,-0.5822,-257.57,-156.01,358.22
1770,-3.8721,0.2596,-0.5981,-1663.82,1484.74,-1485.53
1780,-3.8722,0.3175,-0.6038,1242.43,-562.01,-376.22
1790,-3.8722,0.3666,-0.6108,648.68,-1280.64,951.90
1800,-3.8723,0.3976,-0.6285,-1070.07,1813.17,-438.72
1810,-3.8723,0.4152,-0.6469,-1101.32,-452.39,-423.16
1820,-3.8722,0.4316,-0.6545,1148.68,1203.92,326.84
1830,-3.8722,0.4573,-0.6605,-741.94,219.54,1123.72
1840,-3.8722,0.4974,-0.6755,-1460.69,-546.02,1529.91
1850,-3.8722,0.5502,-0.6947,-320.07,1532.17,1561.16
1860,-3.8722,0.6028,-0.7069,-1570.07,-920.84,1998.60
1870,-3.8722,0.6467,-0.7037,1164.31,1516.78,-626.40
1880,-3.8721,0.6815,-0.6898,-1210.69,1923.10,920.47
1890,-3.8721,0.7098,-0.6804,-757.57,-295.59,-1954.53
1900,-3.8721,0.7443,-0.6819,-1132.57,907.59,-563.84
1910,-3.8719,0.7944,-0.6887,-726.32,720.15,1108.03
1920,-3.8719,0.8707,-0.6925,1695.56,-154.72,-767.03
1930,-3.8718,0.9777,-0.6938,-538.82,-638.98,-1313.90
1940,-3.8717,1.0885,-0.6902,1148.68,-810.61,-829.53
1950,-3.8716,1.1763,-0.6682,-663.82,-341.67,-298.28
1960,-3.8715,1.2352,-0.6232,-1429.44,-1528.99,-954.47
1970,-3.8713,1.2579,-0.5652,-1882.57,236.76,467.53
1980,-3.8713,1.2490,-0.5125,1023.68,-341.31,717.59
1990,-3.8713,1.2281,-0.4755,-116.94,-1591.37,764.59
2000,-3.8713,1.2059,-0.4415,1211.18,-856.99,1217.77
2010,-3.8713,1.1776,-0.4069,-1632.57,-513.31,-1829.04
2020,-3.8713,1.1636,-0.3765,-1257.57,-75.87,-719.60
2030,-3.8712,1.1692,-0.3363,945.56,-185.24,-1578.92
2040,-3.8711,1.1656,-0.3374,1664.31,955.38,-438.17
2050,-3.8710,1.1534,-0.3860,1211.18,814.76,-1469.42
2060,-3.8710,1.1001,-0.4058,-351.32,-1404.05,-1078.92
2070,-3.8708,0.9847,-0.3929,820.56,64.64,108.58
2080,-3.8708,0.8696,-0.3774,-1945.07,1705.02,-1547.67
2090,-3.8708,0.8059,-0.3680,-679.44,-310.85,-1203.92
2100,-3.8710,0.7814,-0.3547,-835.69,892.15,-78.86
2110,-3.8711,0.7712,-0.3413,23.68,-1404.72,-344.48
2120,-3.8712,0.7709,-0.3394,-1273.19,313.96,-297.55
2130,-3.8712,0.7721,-0.3501,-1320.07,563.96,889.95
2140,-3.8713,0.7656,-0.3685,-1163.82,-811.04,-1110.11
2150,-3.8713,0.7555,-0.3768,-1991.94,829.59,1233.64
2160,-3.8715,0.7424,-0.3649,711.18,-232.91,-563.29
2170,-3.8715,0.7229,-0.3507,-960.69,1298.28,874.27
2180,-3.8716,0.6980,-0.3524,539.31,-889.22,-1219.48
2190,-3.8716,0.6738,-0.3721,1351.81,-1108.03,-719.48
2200,-3.8715,0.6609,-0.4033,-1741.94,376.28,-1281.98
2210,-3.8713,0.6642,-0.4354,601.81,376.28,-641.42
2220,-3.8712,0.6885,-0.4556,1023.68,266.91,-47.73
2230,-3.8711,0.7314,-0.4529,133.06,1688.84,-1125.92
2240,-3.8711,0.7804,-0.4294,1633.06,-1967.35,1467.83
2250,-3.8713,0.8218,-0.3949,-101.32,1032.71,-844.60
2260,-3.8716,0.8419,-0.3594,1195.56,1454.71,1655.46
2270,-3.8719,0.8387,-0.3342,-226.32,-1998.41,-531.98
2280,-3.8722,0.8217,-0.3260,-632.57,1220.34,-1031.92
2290,-3.8723,0.7961,-0.3380,1179.93,-1732.79,1077.45
2300,-3.8724,0.7616,-0.3699,1914.31,735.90,1999.33
2310,-3.8724,0.7240,-0.4091,1492.43,657.71,-1844.48
2320,-3.8724,0.6908,-0.4336,679.93,-357.97,-47.73
2330,-3.8723,0.6620,-0.4271,429.93,501.34,436.65
2340,-3.8724,0.6334,-0.3894,742.43,1329.41,-1610.23
2350,-3.8726,0.6022,-0.3341,1086.18,-1842.53,-1578.92
2360,-3.8727,0.5704,-0.2792,1086.18,1235.53,1671.20
2370,-3.8728,0.5400,-0.2375,1023.68,266.72,952.58
2380,-3.8729,0.5103,-0.2150,1133.06,1594.79,671.39
2390,-3.8730,0.4773,-0.2111,1320.56,485.35,1140.20
2400,-3.8732,0.4398,-0.2214,1101.81,985.29,-969.18
2410,-3.8732,0.3970,-0.2391,304.93,-342.90,-1187.99
2420,-3.8730,0.3480,-0.2551,-1179.44,1391.36,546.39
2430,-3.8730,0.2982,-0.2593,554.93,-655.58,-266.17
2440,-3.8729,0.2563,-0.2458,-1820.07,-1186.95,-1594.30
2450,-3.8729,0.2274,-0.2161,820.56,531.74,-1359.86
2460,-3.8729,0.2133,-0.1813,1117.43,344.18,608.95
2470,-3.8730,0.2125,-0.1622,-695.07,797.24,1859.01
2480,-3.8730,0.2174,-0.1714,-788.82,-765.26,30.88
2490,-3.8732,0.2168,-0.1996,-163.82,-1937.13,-109.74
2500,-3.8730,0.2002,-0.2314,-241.94,-1546.51,1249.57
2510,-3.8730,0.1671,-0.2594,1633.06,-1624.63,-172.36
2520,-3.8729,0.1241,-0.2878,1398.68,-1202.82,-1031.80
2530,-3.8728,0.0742,-0.3290,-101.32,-843.57,-1672.49
2540,-3.8727,0.0146,-0.3842,1508.06,1890.75,-1672.55
2550,-3.8726,-0.0629,-0.4374,1883.06,-1171.88,-0.79
2560,-3.8722,-0.1537,-0.4778,-38.82,31.07,592.90
2570,-3.8718,-0.2266,-0.5112,336.18,-1140.93,452.15
2580,-3.8715,-0.2522,-0.5573,-991.94,-1422.36,-829.16
2590,-3.8708,-0.2388,-0.6467,-273.19,686.95,577.03
2600,-3.8702,-0.2261,-0.7780,1445.56,1233.89,-1907.53
2610,-3.8695,-0.2489,-0.8879,-929.44,437.01,-892.15
2620,-3.8688,-0.3209,-0.9082,148.68,-1641.11,1560.73
2630,-3.8684,-0.4186,-0.8250,-1070.07,-235.05,-611.21
2640,-3.8683,-0.4956,-0.6788,-1570.07,-1578.98,-157.90
2650,-3.8683,-0.5355,-0.5411,570.56,1124.02,1389.28
2660,-3.8685,-0.5615,-0.4565,-538.82,-1251.10,-1594.85
2670,-3.8688,-0.6056,-0.4021,133.06,1577.03,233.46
2680,-3.8691,-0.6805,-0.3365,-1507.57,545.65,577.33
2690,-3.8695,-0.7827,-0.2596,898.68,936.16,1561.83
2700,-3.8698,-0.8937,-0.1909,-179.44,-1220.34,452.58
2710,-3.8700,-0.9705,-0.1393,1617.43,-423.65,1390.20
2720,-3.8701,-0.9636,-0.1066,-210.69,-1814.45,1859.07
2730,-3.8701,-0.8759,-0.0867,664.31,-1626.89,-1156.49
2740,-3.8700,-0.7670,-0.0632,-101.32,920.10,968.57
2750,-3.8700,-0.6826,-0.0281,1836.18,-79.65,374.82
2760,-3.8701,-0.6318,0.0083,633.06,420.53,843.69
2770,-3.8702,-0.6110,0.0316,-866.94,1076.84,15.62
2780,-3.8705,-0.6136,0.0371,1804.93,61.28,-1187.44
2790,-3.8706,-0.6316,0.0320,1461.18,764.40,1828.19
2800,-3.8707,-0.6599,0.0287,-835.69,108.09,-1703.06
2810,-3.8707,-0.6982,0.0287,-460.69,-313.84,671.88
2820,-3.8707,-0.7305,0.0162,-1366.94,-313.90,750.00
2830,-3.8707,-0.7322,-0.0150,-1491.94,-1907.71,-2000.00
2840,-3.8707,-0.7092,-0.0538,-1710.69,-1907.71,-906.31
2850,-3.8707,-0.6895,-0.0928,1226.81,1123.60,-890.75
2860,-3.8707,-0.6892,-0.1294,-241.94,139.22,-1781.43
2870,-3.8707,-0.7000,-0.1599,-210.69,-548.28,1359.07
2880,-3.8707,-0.7032,-0.1829,-1585.69,-454.53,765.26
2890,-3.8708,-0.6943,-0.2021,1992.43,607.97,-62.87
2900,-3.8708,-0.6769,-0.2250,-866.94,-1860.78,-922.30
2910,-3.8708,-0.6512,-0.2615,1367.43,-782.59,-844.24
2920,-3.8708,-0.6191,-0.3087,648.68,-1454.41,-391.17
2930,-3.8708,-0.5852,-0.3403,758.06,498.78,-1063.11
2940,-3.8708,-0.5526,-0.3384,1101.81,451.97,171.20
2950,-3.8711,-0.5204,-0.3197,1273.68,702.03,-485.05
2960,-3.8712,-0.4858,-0.3154,1398.68,-907.29,-953.80
2970,-3.8712,-0.4469,-0.3323,1820.56,-360.35,530.58
2980,-3.8713,-0.4041,-0.3539,-1195.07,1483.46,-797.55
2990,-3.8713,-0.3619,-0.3719,289.31,-1282.04,1327.39
3000,-3.8715,-0.3223,-0.3860,1679.93,405.52,-1344.48
3010,-3.8716,-0.2876,-0.3953,-1241.94,-1391.30,-313.29
3020,-3.8716,-0.2626,-0.4006,-804.44,1421.26,983.58
3030,-3.8717,-0.2418,-0.4033,-1601.32,733.83,-1328.92
3040,-3.8717,-0.2224,-0.4086,1054.93,390.14,389.83
3050,-3.8718,-0.2083,-0.4265,-460.69,-281.74,-1688.35
3060,-3.8718,-0.1833,-0.4540,1351.81,1421.45,764.77
3070,-3.8719,-0.1301,-0.4698,539.31,1905.88,-891.54
3080,-3.8719,-0.0603,-0.4670,-648.19,-125.31,530.27
3090,-3.8721,0.0035,-0.4614,289.31,234.25,1045.96
3100,-3.8722,0.0514,-0.4657,461.18,937.50,1170.96
3110,-3.8723,0.0828,-0.4827,-1413.82,390.69,858.46
3120,-3.8724,0.0978,-0.5099,-1398.19,-1781.13,577.15
3130,-3.8726,0.1144,-0.5372,523.68,-1265.44,1686.46
3140,-3.8726,0.1542,-0.5568,-1351.32,-765.44,61.40
3150,-3.8727,0.2096,-0.5612,-257.57,734.62,-1282.35
3160,-3.8727,0.2607,-0.5490,-1163.82,172.24,920.78
3170,-3.8728,0.2998,-0.5334,1383.06,1734.86,-1626.10
3180,-3.8729,0.3220,-0.5298,-1616.94,-280.70,-157.35
3190,-3.8729,0.3250,-0.5358,1226.81,188.11,-407.29
3200,-3.8728,0.3185,-0.5385,1601.81,-577.51,-360.47
3210,-3.8726,0.3184,-0.5436,773.68,-921.26,-1391.72
3220,-3.8723,0.3385,-0.5663,758.06,-1577.51,1702.03
3230,-3.8722,0.3757,-0.5989,-663.82,-483.76,-157.41
3240,-3.8719,0.4131,-0.6244,101.81,-655.52,545.65
3250,-3.8719,0.4423,-0.6354,883.06,78.92,-782.47
3260,-3.8718,0.4630,-0.6361,617.43,-1327.27,404.97
3270,-3.8718,0.4698,-0.6368,-726.32,-1421.02,-1688.78
3280,-3.8717,0.4652,-0.6404,148.68,-1514.71,-1423.16
3290,-3.8715,0.4556,-0.6553,-445.07,-1967.90,29.97
3300,-3.8713,0.4362,-0.6794,-1679.44,125.85,1436.22
3310,-3.8712,0.4193,-0.6998,-163.82,1032.04,-391.97
3320,-3.8710,0.4261,-0.7124,1679.93,-1577.33,-1282.65
3330,-3.8707,0.4717,-0.7151,-1445.07,813.29,1389.22
3340,-3.8706,0.5552,-0.7162,383.06,469.67,-1423.28
3350,-3.8705,0.6427,-0.7177,-929.44,329.16,-1751.40
3360,-3.8704,0.7163,-0.7126,-1726.32,141.85,857.97
3370,-3.8704,0.7870,-0.7102,-304.44,782.59,701.72
3380,-3.8705,0.8470,-0.6995,742.43,1095.28,498.60
3390,-3.8707,0.8889,-0.6642,429.93,-1529.60,-1751.40
3400,-3.8710,0.9218,-0.6266,1789.31,-1013.92,-485.72
3410,-3.8711,0.9396,-0.5797,1992.43,-201.35,-829.41
3420,-3.8711,0.9512,-0.5232,273.68,1798.71,-173.03
3430,-3.8710,0.9867,-0.4944,1758.06,1033.08,-1282.29
3440,-3.8708,1.0452,-0.4969,-1695.07,720.64,952.15
3450,-3.8708,1.1140,-0.4912,1789.31,392.64,1639.65
3460,-3.8708,1.1700,-0.4630,-1398.19,1127.14,1624.02
3470,-3.8708,1.2015,-0.4486,1773.68,736.63,905.33
3480,-3.8710,1.2307,-0.4453,1804.93,-1419.56,1795.96
3490,-3.8711,1.2601,-0.4362,1539.31,-997.62,1311.58
3500,-3.8712,1.2920,-0.4261,1304.93,174.32,-1375.85
3510,-3.8712,1.3324,-0.4250,1383.06,1455.63,-1547.73
3520,-3.8712,1.3613,-0.4458,-1445.07,1596.31,-1922.73
3530,-3.8712,1.3550,-0.4847,-1741.94,-1059.88,514.71
3540,-3.8713,1.3126,-0.5288,1445.56,1955.75,-1907.23
3550,-3.8715,1.2356,-0.5697,23.68,315.06,-657.29
3560,-3.8715,1.1156,-0.6071,-1835.69,-919.49,-1969.91
3570,-3.8715,0.9546,-0.6467,-1195.07,-1700.99,-1298.10
3580,-3.8713,0.7748,-0.6951,-1804.44,1220.58,545.59
3590,-3.8713,0.6094,-0.7372,-820.07,-967.29,-1657.65
3600,-3.8713,0.4840,-0.7474,-1991.94,1641.78,-782.71
3610,-3.8713,0.4103,-0.7209,1961.18,329.04,-1392.09
3620,-3.8715,0.3906,-0.6768,523.68,-280.46,-235.84
3630,-3.8716,0.4200,-0.6377,-1991.94,1375.73,-1220.09
3640,-3.8717,0.4692,-0.6166,1773.68,-1624.21,1498.72
3650,-3.8718,0.5021,-0.6202,70.56,1079.04,1389.40
3660,-3.8719,0.5002,-0.6532,273.68,610.35,-235.60
3670,-3.8718,0.4607,-0.7129,39.31,391.60,1951.84
3680,-3.8716,0.3995,-0.7832,-1023.19,750.85,92.35
3690,-3.8713,0.3381,-0.8318,-851.32,-249.27,482.79
3700,-3.8712,0.2880,-0.8223,-710.69,1531.86,-267.27
3710,-3.8711,0.2620,-0.7502,867.43,-1249.45,-1579.77
3720,-3.8712,0.2651,-0.6520,1539.31,-30.76,-1235.90
3730,-3.8715,0.2863,-0.5710,1945.56,547.36,-1641.91
3740,-3.8717,0.3112,-0.5277,648.68,-1093.20,545.72
3750,-3.8719,0.3293,-0.5233,-163.82,453.67,483.34
3760,-3.8721,0.3309,-0.5504,-1835.69,1016.24,811.46
3770,-3.8721,0.3154,-0.5840,-1632.57,1547.49,-1735.47
3780,-3.8719,0.2971,-0.5996,383.06,1250.61,-1563.66
3790,-3.8718,0.2828,-0.6023,-1960.69,-749.45,-1485.60
3800,-3.8717,0.2639,-0.6104,211.18,-1093.20,983.15
3810,-3.8717,0.2391,-0.6261,1789.31,1875.49,1201.90
3820,-3.8718,0.2148,-0.6365,-1382.57,-140.20,-266.91
3830,-3.8718,0.1934,-0.6328,-491.94,-1468.38,1326.84
3840,-3.8719,0.1725,-0.6165,758.06,-999.63,1983.09
3850,-3.8721,0.1505,-0.5858,-1913.82,1094.06,1389.40
3860,-3.8723,0.1292,-0.5377,-726.32,1015.87,-266.78
3870,-3.8724,0.1110,-0.4897,539.31,-827.88,-1969.85
3880,-3.8726,0.0918,-0.4751,-1788.82,1312.68,1702.15
3890,-3.8727,0.0648,-0.5021,-241.94,-812.38,-0.98
3900,-3.8726,0.0243,-0.5416,304.93,-265.50,858.34
3910,-3.8726,-0.0264,-0.5590,-882.57,-1328.12,-766.72
3920,-3.8724,-0.0646,-0.5470,633.06,468.69,-1001.10
3930,-3.8722,-0.0664,-0.5220,-257.57,1999.82,92.65
3940,-3.8721,-0.0305,-0.5150,-491.94,1202.94,-1626.04
3950,-3.8718,0.0293,-0.5516,101.81,-1906.31,-1235.41
3960,-3.8715,0.0962,-0.6210,-241.94,1390.62,1280.15
3970,-3.8711,0.1500,-0.6879,320.56,515.81,201.90
3980,-3.8708,0.1838,-0.7235,-788.82,-46.63,-1454.53
3990,-3.8705,0.2048,-0.7236,-460.69,-609.07,326.66
4000,-3.8702,0.2166,-0.7068,-1773.19,-624.63,1982.91
4010,-3.8700,0.2148,-0.6909,-273.19,1531.62,-345.15
4020,-3.8696,0.1935,-0.6705,-491.94,-437.13,14.22
4030,-3.8695,0.1438,-0.6262,773.68,-1827.76,154.91
4040,-3.8696,0.0568,-0.5488,-1585.69,-156.01,-1938.78
4050,-3.8699,-0.0612,-0.4508,-726.32,1750.06,-485.47
4060,-3.8700,-0.1791,-0.3551,179.93,-1687.62,561.58
4070,-3.8702,-0.2661,-0.2756,1086.18,-1437.87,-0.73
4080,-3.8702,-0.3245,-0.2090,1945.56,733.83,-1953.67
4090,-3.8702,-0.3782,-0.1475,-1523.19,1264.95,1280.82
4100,-3.8702,-0.4316,-0.0947,-398.19,1139.83,499.69
4110,-3.8702,-0.4547,-0.0659,758.06,-110.23,702.88
4120,-3.8702,-0.4181,-0.0826,1804.93,-422.79,-297.06
4130,-3.8700,-0.3252,-0.1384,-1507.57,1436.65,640.44
4140,-3.8699,-0.1976,-0.1866,-1616.94,-1703.80,905.94
4150,-3.8699,-0.0571,-0.2014,-1288.82,124.57,-1312.87
4160,-3.8699,0.0793,-0.1937,695.56,-1765.75,-1859.80
4170,-3.8700,0.1923,-0.1760,-1835.69,-796.75,-78.55
4180,-3.8700,0.2545,-0.1552,617.43,1469.12,343.38
4190,-3.8701,0.2625,-0.1331,586.18,141.11,312.19
4200,-3.8702,0.2378,-0.1073,1601.81,-1030.76,218.44
4210,-3.8705,0.2045,-0.0875,-1554.44,-1733.95,-734.62
4220,-3.8706,0.1843,-0.0863,-1820.07,797.24,1468.57
4230,-3.8707,0.1830,-0.1019,-398.19,953.43,812.32
4240,-3.8708,0.1907,-0.1334,-570.07,-1046.57,-1125.24
4250,-3.8707,0.2007,-0.1818,414.31,-1077.76,62.19
4260,-3.8707,0.2125,-0.2352,1695.56,734.74,-500.37
4270,-3.8706,0.2241,-0.2758,-788.82,1890.99,-1281.74
4280,-3.8706,0.2334,-0.2988,695.56,703.55,-266.17
4290,-3.8706,0.2396,-0.3116,1883.06,1750.43,-1516.24
4300,-3.8707,0.2389,-0.3207,-1320.07,109.80,-78.74
4310,-3.8707,0.2352,-0.3325,-1413.82,-1046.45,1296.20
4320,-3.8708,0.2411,-0.3571,-1882.57,1437.93,-125.67
4330,-3.8708,0.2603,-0.3961,-1132.57,-1702.70,-188.23
4340,-3.8708,0.2828,-0.4283,1320.56,1297.36,-344.54
4350,-3.8708,0.2904,-0.4312,211.18,1172.42,-1735.23
4360,-3.8710,0.2710,-0.4086,1179.93,813.05,-625.85
4370,-3.8711,0.2328,-0.3799,-1304.44,-296.39,-922.73
4380,-3.8712,0.1981,-0.3544,1804.93,-624.57,-1828.92
4390,-3.8713,0.1832,-0.3319,1367.43,-1359.01,1858.64
4400,-3.8715,0.1868,-0.3191,-538.82,1515.93,-891.30
4410,-3.8715,0.1967,-0.3257,-85.69,-843.44,1921.20
4420,-3.8715,0.2045,-0.3485,1179.93,-1687.13,1686.83
4430,-3.8715,0.2100,-0.3737,-1820.07,-609.01,-1875.73
4440,-3.8715,0.2092,-0.3934,-1116.94,172.24,-1547.61
4450,-3.8715,0.1990,-0.4071,-1210.69,1640.99,-1813.29
4460,-3.8715,0.1826,-0.4148,1476.81,-109.01,-1688.35
4470,-3.8715,0.1533,-0.4240,-616.94,-1093.44,-1000.85
4480,-3.8715,0.1133,-0.4476,-366.94,1734.62,-110.23
4490,-3.8713,0.0814,-0.4862,-1491.94,-1296.69,967.83
4500,-3.8713,0.0675,-0.5242,-1570.07,1765.75,1577.15
4510,-3.8713,0.0734,-0.5461,648.68,906.37,670.84
4520,-3.8715,0.0951,-0.5480,1398.68,-1906.13,1905.15
4530,-3.8716,0.1145,-0.5402,179.93,1859.56,1827.03
4540,-3.8717,0.1143,-0.5402,-1335.69,-1140.44,1623.90
4550,-3.8718,0.1011,-0.5553,-1366.94,-1140.44,-1094.85
4560,-3.8718,0.0953,-0.5785,945.56,922.06,-1860.47
4570,-3.8718,0.1073,-0.5994,211.18,1953.31,1670.72
4580,-3.8718,0.1328,-0.6130,1742.43,-718.57,280.03
4590,-3.8719,0.1628,-0.6267,1008.06,1531.49,-766.85
4600,-3.8719,0.1906,-0.6514,851.81,-218.44,-470.03
4610,-3.8718,0.2206,-0.6838,398.68,625.37,420.59
4620,-3.8719,0.2615,-0.7104,242.43,469.18,-1.34
4630,-3.8719,0.3135,-0.7178,1476.81,1062.99,904.85
4640,-3.8722,0.3716,-0.7002,133.06,125.61,-860.78
4650,-3.8724,0.4260,-0.6685,-429.44,-1624.33,-829.53
4660,-3.8727,0.4764,-0.6409,-1460.69,-1561.71,-1266.97
4670,-3.8728,0.5259,-0.6329,992.43,1969.67,967.47
4680,-3.8729,0.5669,-0.6376,-679.44,-1014.65,-407.53
4690,-3.8728,0.6069,-0.6422,570.56,-1608.28,1061.22
4700,-3.8728,0.6621,-0.6589,1695.56,1798.03,-907.53
4710,-3.8727,0.7178,-0.6948,758.06,-342.47,1123.66
4720,-3.8726,0.7532,-0.7434,-116.94,-936.16,139.22
4730,-3.8724,0.7689,-0.7891,414.31,845.21,889.16
4740,-3.8723,0.7634,-0.7981,-1570.07,-998.54,-1204.71
4750,-3.8721,0.7384,-0.7554,1726.81,1845.21,717.16
4760,-3.8719,0.7125,-0.6887,-1476.32,-686.10,732.85
4770,-3.8719,0.7004,-0.6383,-788.82,-154.91,-1345.15
4780,-3.8718,0.7004,-0.6182,1664.31,-1701.78,201.84
4790,-3.8718,0.7050,-0.6140,1664.31,876.34,-1173.10
4800,-3.8717,0.7125,-0.6194,-1757.57,1407.59,-63.72
4810,-3.8713,0.7263,-0.6385,-788.82,720.09,561.28
4820,-3.8711,0.7493,-0.6689,976.81,-1732.97,-548.16
4830,-3.8707,0.7675,-0.6948,-85.69,-1623.60,1436.16
4840,-3.8705,0.7695,-0.7081,-1757.57,-936.04,1076.72
4850,-3.8704,0.7544,-0.7068,-1491.94,1360.84,-1735.78
4860,-3.8702,0.7202,-0.6727,570.56,1532.71,842.35
4870,-3.8704,0.6785,-0.6006,195.56,1892.03,-95.09
4880,-3.8705,0.6486,-0.5212,-1148.19,-873.72,-423.10
4890,-3.8706,0.6395,-0.4722,-976.32,1282.47,1248.96
4900,-3.8708,0.6322,-0.4510,1867.43,-436.28,1920.90
4910,-3.8711,0.6182,-0.4352,929.93,-1733.15,-219.67
4920,-3.8711,0.6232,-0.4189,-866.94,298.03,967.90
4930,-3.8711,0.6564,-0.4110,-226.32,-1623.84,811.65
4940,-3.8711,0.6968,-0.4156,23.68,-608.09,483.52
4950,-3.8712,0.7319,-0.4178,1195.56,-1201.78,1858.52
4960,-3.8713,0.7701,-0.4082,1695.56,-1482.97,592.90
4970,-3.8716,0.8116,-0.3899,-1413.82,-248.54,-1203.98
4980,-3.8717,0.8456,-0.3695,-101.32,-1904.72,-532.04
4990,-3.8717,0.8657,-0.3591,242.43,704.77,1983.64
5000,-3.8718,0.8723,-0.3569,-1179.44,-1967.10,-313.23
5010,-3.8718,0.8748,-0.3479,-335.69,-1685.85,46.14
5020,-3.8721,0.8851,-0.3336,-23.19,-529.60,-485.11
5030,-3.8722,0.9061,-0.3224,1304.93,1298.58,-1344.42
5040,-3.8723,0.9336,-0.3168,-7.57,-1263.92,-1641.30
5050,-3.8724,0.9564,-0.3193,-491.94,-545.10,-860.05
5060,-3.8724,0.9611,-0.3422,-1570.07,-873.17,1827.45
5070,-3.8724,0.9445,-0.3876,-976.32,204.96,-1172.55
5080,-3.8723,0.9124,-0.4396,898.68,-1607.54,686.71
5090,-3.8723,0.8673,-0.4835,789.31,-263.85,-1891.54
5100,-3.8723,0.8159,-0.5128,-976.32,-1888.98,-829.10
5110,-3.8723,0.7701,-0.5293,445.56,-1639.04,-391.66
5120,-3.8723,0.7362,-0.5371,-1413.82,251.46,-969.79
5130,-3.8723,0.7157,-0.5383,-1757.57,-748.60,1764.53
5140,-3.8723,0.7070,-0.5397,-382.57,-904.91,14.53
5150,-3.8724,0.6996,-0.5530,-1491.94,-1076.78,-1469.85
5160,-3.8724,0.6870,-0.5873,1554.93,1220.09,-1313.60
5170,-3.8723,0.6588,-0.6309,-54.44,829.41,1186.34
5180,-3.8722,0.6227,-0.6664,336.18,-748.72,1264.34
5190,-3.8721,0.6013,-0.6749,-288.82,-1295.72,1608.03
5200,-3.8719,0.5854,-0.6613,976.81,1610.53,1358.03
5210,-3.8719,0.5631,-0.6578,-1054.44,-639.53,-1391.97
5220,-3.8719,0.5369,-0.6631,86.18,-202.03,779.91
5230,-3.8721,0.5062,-0.6583,726.81,-873.96,-1891.97
5240,-3.8721,0.4728,-0.6506,804.93,-264.65,467.41
5250,-3.8721,0.4449,-0.6539,523.68,719.67,498.72
5260,-3.8721,0.4257,-0.6576,961.18,297.73,1701.84
5270,-3.8721,0.4039,-0.6526,-1507.57,-171.08,-1063.84
5280,-3.8719,0.3674,-0.6530,-288.82,469.48,186.22
5290,-3.8719,0.3199,-0.6675,-960.69,422.55,-845.03
5300,-3.8718,0.2794,-0.6749,961.18,-1436.89,-282.59
5310,-3.8717,0.2562,-0.6537,-226.32,1609.86,-1235.72
5320,-3.8717,0.2487,-0.6133,804.93,328.61,-1688.78
5330,-3.8718,0.2505,-0.5781,-163.82,1500.43,-1266.85
5340,-3.8719,0.2538,-0.5598,70.56,-1999.51,1514.47
5350,-3.8721,0.2500,-0.5599,492.43,344.24,30.15
5360,-3.8723,0.2322,-0.5836,8.06,328.61,-297.97
5370,-3.8723,0.1960,-0.6216,1726.81,1297.30,-719.91
5380,-3.8722,0.1506,-0.6483,1101.81,437.87,-1329.35
5390,-3.8721,0.1143,-0.6674,-710.69,1015.87,1436.22
5400,-3.8721,0.0917,-0.6975,-1366.94,-1421.69,1498.66
5410,-3.8722,0.0731,-0.7274,-257.57,-1281.13,-438.90
5420,-3.8723,0.0562,-0.7384,1367.43,-1109.25,-48.34
5430,-3.8724,0.0409,-0.7391,-804.44,1484.44,-798.34
5440,-3.8726,0.0155,-0.7568,1242.43,1390.69,-876.46
5450,-3.8726,-0.0211,-0.8014,1992.43,-875.00,-798.40
5460,-3.8723,-0.0557,-0.8533,1304.93,1437.44,623.41
5470,-3.8721,-0.0861,-0.8928,883.06,-1203.25,795.17
5480,-3.8718,-0.1163,-0.9199,992.43,1734.19,1357.60
5490,-3.8716,-0.1451,-0.9370,1117.43,-1734.62,1451.29
5500,-3.8713,-0.1816,-0.9442,1429.93,77.82,1138.79
5510,-3.8711,-0.2573,-0.9524,758.06,-844.12,685.61
5520,-3.8708,-0.3906,-0.9528,-929.44,-1891.17,1341.86
5530,-3.8706,-0.5657,-0.9030,-1991.94,-1938.29,-1001.89
5540,-3.8704,-0.7529,-0.7747,-398.19,436.34,-1814.27
5550,-3.8702,-0.9270,-0.5854,-366.94,857.85,185.97
5560,-3.8704,-1.0673,-0.3883,1351.81,1076.29,998.84
5570,-3.8706,-1.1403,-0.2307,-601.32,-1689.64,-1500.79
5580,-3.8708,-1.1177,-0.1381,-1945.07,-1517.88,-281.74
5590,-3.8710,-1.0231,-0.1089,945.56,-1658.45,-344.06
5600,-3.8710,-0.9180,-0.1046,1054.93,-1923.89,-797.12
5610,-3.8708,-0.8409,-0.0897,-1491.94,-1376.83,281.01
5620,-3.8708,-0.7852,-0.0725,367.43,529.60,1499.82
5630,-3.8708,-0.7379,-0.0723,-491.94,-1267.21,-609.56
5640,-3.8707,-0.7073,-0.0828,1554.93,-1235.84,-1297.06
5650,-3.8706,-0.6870,-0.0938,1476.81,1420.47,-109.56
5660,-3.8704,-0.6595,-0.1027,70.56,14.28,1890.44
5670,-3.8702,-0.6222,-0.1078,-413.82,-1126.34,-1531.49
5680,-3.8701,-0.5878,-0.1154,367.43,-1782.47,296.63
5690,-3.8701,-0.5850,-0.1367,773.68,1248.84,46.63
5700,-3.8702,-0.6254,-0.1608,1133.06,-1485.53,-15.93
5710,-3.8701,-0.6724,-0.1661,-38.82,-563.78,1499.63
5720,-3.8701,-0.6875,-0.1637,1945.56,-1251.34,-156.62
5730,-3.8700,-0.6661,-0.1724,8.06,-938.84,1609.01
5740,-3.8700,-0.6202,-0.1841,-1257.57,1951.78,1312.13
5750,-3.8701,-0.5741,-0.1917,617.43,451.90,1952.76
5760,-3.8702,-0.5544,-0.2017,-1476.32,-516.78,468.32
5770,-3.8705,-0.5621,-0.2120,1039.31,-1797.97,-109.80
5780,-3.8705,-0.5801,-0.2184,54.93,873.90,-1750.43
5790,-3.8705,-0.5951,-0.2251,1758.06,61.34,-1359.80
5800,-3.8705,-0.5985,-0.2400,-163.82,-798.10,-1109.86
5810,-3.8705,-0.5874,-0.2675,-601.32,1295.65,-1641.11
5820,-3.8705,-0.5704,-0.3008,820.56,1780.09,1765.08
5830,-3.8705,-0.5547,-0.3251,-1007.57,1514.47,1468.14
5840,-3.8705,-0.5365,-0.3391,1008.06,-1594.85,1655.58
5850,-3.8705,-0.5117,-0.3555,-663.82,608.28,1624.33
5860,-3.8705,-0.4808,-0.3746,-1491.94,-1485.41,311.77
5870,-3.8706,-0.4463,-0.3881,-1538.82,61.52,1983.64
5880,-3.8707,-0.4125,-0.3964,-1116.94,-1657.17,-891.42
5890,-3.8708,-0.3881,-0.3992,-788.82,1280.40,-907.04
5900,-3.8710,-0.3787,-0.3990,-1663.82,921.08,1733.58
5910,-3.8711,-0.3813,-0.4011,-460.69,936.71,467.96
5920,-3.8712,-0.3870,-0.3979,-804.44,671.08,374.21
5930,-3.8713,-0.3865,-0.3839,-1523.19,1077.33,686.71
5940,-3.8715,-0.3770,-0.3724,-1460.69,-1125.79,702.33
5950,-3.8716,-0.3621,-0.3823,-241.94,342.96,1249.27
5960,-3.8717,-0.3499,-0.4119,1664.31,-922.61,-813.29
5970,-3.8717,-0.3462,-0.4440,-773.19,-703.86,1921.02
5980,-3.8717,-0.3407,-0.4651,-304.44,-813.23,733.46
5990,-3.8718,-0.3191,-0.4708,398.68,483.70,-1454.04
6000,-3.8719,-0.2843,-0.4640,-835.69,-250.67,-1329.10
6010,-3.8721,-0.2432,-0.4547,-382.57,624.39,-1657.17
6020,-3.8722,-0.2015,-0.4617,883.06,1812.01,-954.04
6030,-3.8722,-0.1703,-0.4945,-1788.82,921.45,795.96
6040,-3.8723,-0.1472,-0.5393,-1788.82,718.38,-891.60
6050,-3.8723,-0.1263,-0.5831,1164.31,-1015.93,1217.65
6060,-3.8724,-0.1110,-0.6265,-163.82,1374.69,-860.53
6070,-3.8724,-0.0974,-0.6642,1804.93,-172.12,1514.34
6080,-3.8726,-0.0819,-0.6859,-460.69,-1000.24,-173.22
6090,-3.8726,-0.0669,-0.6897,1523.68,218.57,1858.03
6100,-3.8726,-0.0525,-0.6807,-554.44,-265.81,545.47
6110,-3.8726,-0.0360,-0.6683,1289.31,890.50,483.03
6120,-3.8726,-0.0107,-0.6641,-601.32,-1531.37,1170.53
6130,-3.8726,0.0347,-0.6779,-1366.94,-984.44,-1907.59
6140,-3.8726,0.1042,-0.7203,445.56,1234.44,-1204.47
6150,-3.8726,0.1978,-0.7817,1351.81,-202.94,-1454.59
6160,-3.8726,0.3062,-0.8429,1320.56,-62.13,1076.54
6170,-3.8726,0.3986,-0.8933,-804.44,109.92,107.73
6180,-3.8726,0.4587,-0.9178,-976.32,1656.98,1998.23
6190,-3.8724,0.5104,-0.9153,-1273.19,-1483.52,-1470.58
6200,-3.8723,0.5840,-0.9126,1336.18,-1155.27,-829.96
6210,-3.8722,0.6870,-0.9205,-1241.94,-811.40,-1486.21
6220,-3.8721,0.8114,-0.9253,-54.44,-1826.84,1482.54
6230,-3.8719,0.9417,-0.9216,-132.57,1564.03,841.92
6240,-3.8718,1.0670,-0.9083,539.31,-1966.92,1607.54
6250,-3.8716,1.1782,-0.8910,586.18,-263.55,326.29
6260,-3.8715,1.2612,-0.8695,-1179.44,1955.38,-361.15
6270,-3.8712,1.3202,-0.8361,1445.56,705.57,-1892.33
6280,-3.8711,1.3661,-0.7903,992.43,986.94,-1470.40
6290,-3.8710,1.4061,-0.7356,-1132.57,-1153.63,1029.66
6300,-3.8710,1.4161,-0.6733,-7.57,1846.44,1295.41
6310,-3.8711,1.3920,-0.6272,1273.68,1815.25,-610.72
6320,-3.8711,1.3616,-0.5793,-1820.07,-278.56,-235.66
6330,-3.8708,1.2749,-0.5232,-1710.69,1846.37,-1032.41
6340,-3.8705,1.1349,-0.5610,-804.44,1033.69,-1235.41
6350,-3.8701,1.0322,-0.6772,1273.68,189.70,827.03
6360,-3.8699,0.9843,-0.7434,133.06,1314.51,483.03
6370,-3.8698,0.9459,-0.7189,1992.43,845.64,1436.04
6380,-3.8698,0.8801,-0.6581,1086.18,-13.79,-1595.21
6390,-3.8698,0.8234,-0.6398,664.31,-232.67,1014.28
6400,-3.8699,0.7896,-0.6620,1398.68,-1889.04,983.09
6410,-3.8701,0.7451,-0.6702,1070.56,-732.85,-985.72
6420,-3.8704,0.6997,-0.6490,-616.94,-1779.85,-798.22
6430,-3.8706,0.6639,-0.6210,1570.56,923.22,1576.84
6440,-3.8708,0.6378,-0.5990,992.43,516.91,405.03
6450,-3.8711,0.6232,-0.5789,1648.68,-670.65,951.90
6460,-3.8713,0.6140,-0.5629,-226.32,1907.41,-532.41
6470,-3.8715,0.6104,-0.5610,-1398.19,-45.72,-657.41
6480,-3.8716,0.6112,-0.5714,-1866.94,188.66,-1.10
6490,-3.8716,0.6024,-0.5826,-1757.57,-1139.47,1764.47
6500,-3.8716,0.5780,-0.5929,1117.43,1423.03,545.72
6510,-3.8717,0.5538,-0.6036,1992.43,110.47,-94.91
6520,-3.8717,0.5460,-0.6123,-1101.32,-1264.59,-141.85
6530,-3.8716,0.5516,-0.6222,1898.68,1626.04,1045.65
6540,-3.8716,0.5573,-0.6357,-1382.57,360.41,-485.60
6550,-3.8715,0.5560,-0.6514,-663.82,-1373.96,-1438.78
6560,-3.8713,0.5504,-0.6675,-820.07,626.04,1983.09
6570,-3.8712,0.5454,-0.6798,-1538.82,-1436.46,1279.91
6580,-3.8712,0.5435,-0.6821,1820.56,985.41,-720.09
6590,-3.8712,0.5424,-0.6730,1570.56,688.54,-813.84
6600,-3.8712,0.5360,-0.6608,1429.93,1860.41,1217.41
6610,-3.8713,0.5198,-0.6495,617.43,-577.09,-1595.09
6620,-3.8715,0.4951,-0.6393,-1460.69,860.35,-251.28
6630,-3.8715,0.4719,-0.6362,-616.94,-1827.21,1670.59
6640,-3.8715,0.4546,-0.6418,414.31,-1436.58,561.22
6650,-3.8716,0.4342,-0.6467,-1804.44,1844.60,-235.66
6660,-3.8716,0.4065,-0.6405,-413.82,1219.54,1811.22
6670,-3.8717,0.3702,-0.6210,39.31,-1983.58,-1485.66
6680,-3.8718,0.3301,-0.5969,-601.32,516.30,-1141.85
6690,-3.8719,0.2959,-0.5735,-1741.94,-405.64,-454.35
6700,-3.8719,0.2715,-0.5483,1883.06,-1405.70,623.84
6710,-3.8721,0.2592,-0.5288,-1241.94,1812.99,-1657.35
6720,-3.8721,0.2528,-0.5283,1179.93,312.99,952.09
6730,-3.8721,0.2391,-0.5500,367.43,375.49,702.09
6740,-3.8721,0.2112,-0.5736,-1382.57,1594.18,1264.53
6750,-3.8721,0.1761,-0.5780,-960.69,-1421.51,264.47
6760,-3.8722,0.1478,-0.5730,-1445.07,-1984.07,264.47
6770,-3.8724,0.1292,-0.5804,-1070.07,-1343.51,-923.03
6780,-3.8726,0.1179,-0.6073,539.31,1703.37,-704.28
6790,-3.8726,0.1129,-0.6597,-898.19,-1734.19,1889.40
6800,-3.8726,0.1086,-0.7450,-1538.82,-437.32,-391.97
6810,-3.8723,0.0984,-0.8350,1914.31,640.81,654.79
6820,-3.8722,0.0824,-0.8868,601.81,1125.18,763.98
6830,-3.8723,0.0697,-0.9083,-1445.07,-1515.50,-1158.02
6840,-3.8724,0.0586,-0.9396,929.93,-265.50,107.54
6850,-3.8727,0.0323,-0.9961,-491.94,-265.56,-1658.14
6860,-3.8727,-0.0144,-1.0710,148.68,500.06,-1673.83
6870,-3.8724,-0.0701,-1.1570,-1835.69,-1078.19,-1252.14
6880,-3.8719,-0.1274,-1.2385,-960.69,-78.31,-1658.57
6890,-3.8715,-0.1980,-1.2919,-304.44,1484.07,-439.94
6900,-3.8710,-0.3009,-1.3035,-1335.69,-1344.18,-1986.94
6910,-3.8706,-0.4568,-1.2693,1492.43,1171.26,747.44
6920,-3.8704,-0.6805,-1.1794,1539.31,1545.96,1700.62
6930,-3.8700,-0.9443,-1.0157,898.68,1045.53,528.93
6940,-3.8696,-1.1838,-0.7870,-866.94,1998.11,-830.14
6950,-3.8691,-1.3632,-0.5471,476.81,-721.07,-1657.84
6960,-3.8689,-1.4993,-0.3580,1523.68,1981.69,-1235.47
6970,-3.8689,-1.6034,-0.2365,101.81,-1815.43,249.27
6980,-3.8693,-1.6389,-0.1724,-1226.32,1746.83,-1141.11
6990,-3.8695,-1.5587,-0.1438,-1773.19,1949.89,874.63
7000,-3.8699,-1.3777,-0.1287,492.43,1606.32,-1937.81
7010,-3.8702,-1.1738,-0.1323,-335.69,-455.87,-1906.56
7020,-3.8706,-1.0170,-0.1367,1758.06,-924.19,-219.06
7030,-3.8707,-0.9391,-0.1031,1836.18,-1486.39,1015.32
7040,-3.8708,-0.9342,-0.0593,-195.07,-1189.39,-500.24
7050,-3.8707,-0.9681,-0.0693,429.93,420.04,-1703.25
7060,-3.8706,-1.0123,-0.1250,86.18,-861.27,1952.94
7070,-3.8706,-1.0513,-0.1687,-1570.07,13.61,-390.87
7080,-3.8706,-1.0703,-0.1837,1445.56,-1580.20,-1609.74
7090,-3.8707,-1.0630,-0.1882,-991.94,497.86,-906.62
7100,-3.8708,-1.0312,-0.1877,-54.44,-80.26,-1094.18
7110,-3.8710,-0.9875,-0.1844,8.06,-17.64,-719.18
7120,-3.8710,-0.9453,-0.1965,1601.81,404.30,1155.88
7130,-3.8711,-0.9041,-0.2395,-991.94,-1142.52,-47.30
7140,-3.8711,-0.8572,-0.2994,289.31,1357.60,-1234.86
7150,-3.8711,-0.8079,-0.3488,-1710.69,1685.79,1296.26
7160,-3.8712,-0.7655,-0.3864,601.81,-626.59,-860.11
7170,-3.8713,-0.7323,-0.4293,-1976.32,-1439.03,-297.67
7180,-3.8715,-0.7081,-0.4816,-1726.32,1061.04,-766.48
7190,-3.8716,-0.6956,-0.5325,1367.43,-1626.40,-1016.60
7200,-3.8716,-0.6926,-0.5773,-1023.19,-142.03,467.65
7210,-3.8716,-0.6873,-0.6194,-648.19,-1876.40,76.97
7220,-3.8717,-0.6632,-0.6500,39.31,733.03,-391.85
7230,-3.8717,-0.6213,-0.6506,-882.57,811.16,858.09
7240,-3.8718,-0.5813,-0.6234,476.81,733.15,889.34
7250,-3.8719,-0.5564,-0.5977,1601.81,217.59,1670.65
7260,-3.8719,-0.5442,-0.5906,789.31,-485.47,358.15
7270,-3.8719,-0.5311,-0.5850,-1648.19,420.78,1795.72
7280,-3.8718,-0.5063,-0.5649,23.68,1139.59,1655.09
7290,-3.8717,-0.4672,-0.5428,-804.44,-297.91,-1923.03
7300,-3.8716,-0.4152,-0.5366,211.18,-1469.67,936.40
7310,-3.8716,-0.3629,-0.5493,-1132.57,-672.73,1436.40
7320,-3.8717,-0.3276,-0.5670,1554.93,1702.39,-1.10
7330,-3.8717,-0.3107,-0.5747,-1929.44,-563.17,-1907.41
7340,-3.8717,-0.2994,-0.5806,242.43,-1547.49,1295.72
7350,-3.8717,-0.2849,-0.6023,1679.93,1702.51,1592.59
7360,-3.8717,-0.2633,-0.6459,-460.69,-1078.74,608.15
7370,-3.8718,-0.2268,-0.7010,-1695.07,1343.20,1373.72
7380,-3.8719,-0.1852,-0.7504,-1023.19,-1719.24,1764.22
7390,-3.8721,-0.1649,-0.7810,304.93,-31.62,-923.40
7400,-3.8721,-0.1603,-0.7915,-1101.32,46.51,1060.97
7410,-3.8722,-0.1553,-0.8105,-507.57,-1297.24,-1485.96
7420,-3.8722,-0.1442,-0.8698,133.06,265.32,248.41
7430,-3.8723,-0.1206,-0.9717,1554.93,687.19,-189.21
7440,-3.8722,-0.0956,-1.0874,570.56,-359.62,966.80
7450,-3.8721,-0.0721,-1.1602,-226.32,827.88,107.24
7460,-3.8721,-0.0314,-1.1794,-1226.32,-484.56,-189.82
7470,-3.8719,0.0259,-1.1957,-7.57,1046.75,1028.93
7480,-3.8719,0.0874,-1.2407,-679.44,-1046.88,638.24
7490,-3.8719,0.1487,-1.3059,-804.44,1187.62,747.56
7500,-3.8719,0.2091,-1.3624,-960.69,843.99,-1658.81
7510,-3.8718,0.2651,-1.3983,-1226.32,1609.74,887.94
7520,-3.8718,0.3174,-1.4099,1945.56,1016.11,-299.62
7530,-3.8717,0.3842,-1.4003,633.06,-468.14,-1362.18
7540,-3.8716,0.4792,-1.3926,1179.93,766.36,1512.88
7550,-3.8715,0.6089,-1.3959,1351.81,1750.92,1387.88
7560,-3.8713,0.7717,-1.3986,1945.56,1329.28,-1159.00
7570,-3.8712,0.9374,-1.3782,-1210.69,985.84,-721.50
7580,-3.8711,1.0686,-1.3131,-7.57,-404.48,997.25
7590,-3.8711,1.1819,-1.2235,789.31,-76.05,763.00
7600,-3.8711,1.3014,-1.1322,-710.69,-607.12,310.06
7610,-3.8711,1.4076,-1.0186,-1413.82,-919.37,-1580.38
7620,-3.8710,1.4832,-0.8948,179.93,1627.75,1263.61
7630,-3.8710,1.5085,-0.8347,1851.81,1471.62,263.85
7640,-3.8711,1.4886,-0.8309,1101.81,1159.18,232.73
7650,-3.8712,1.4249,-0.8114,-1445.07,1643.49,1967.10
7660,-3.8712,1.2937,-0.7712,-1601.32,143.37,-64.09
7670,-3.8711,1.1361,-0.6982,1601.81,1283.75,-329.65
7680,-3.8710,1.0251,-0.5996,1429.93,-1372.80,-188.90
7690,-3.8707,0.9645,-0.5396,-773.19,-748.05,608.15
7700,-3.8706,0.9158,-0.5453,-538.82,-1060.67,1061.40
7710,-3.8706,0.8655,-0.5887,1226.81,-1795.10,-266.72
7720,-3.8705,0.8201,-0.6340,-1210.69,642.27,92.59
7730,-3.8706,0.7815,-0.6722,976.81,-1154.66,-766.91
7740,-3.8706,0.7476,-0.7109,39.31,1954.65,-1657.59
7750,-3.8706,0.7192,-0.7551,-304.44,1001.40,1779.85
7760,-3.8706,0.6892,-0.7963,70.56,-654.85,889.10
7770,-3.8707,0.6503,-0.8221,226.81,-1920.53,-485.96
7780,-3.8707,0.6056,-0.8239,-757.57,-1233.15,1685.85
7790,-3.8708,0.5677,-0.7998,1523.68,-1451.97,-1157.90
7800,-3.8710,0.5448,-0.7616,679.93,1626.10,-1407.84
7810,-3.8711,0.5474,-0.7242,1742.43,-1483.34,1670.35
7820,-3.8712,0.5884,-0.6931,-1929.44,-702.09,-1907.71
7830,-3.8712,0.6371,-0.6704,-679.44,-717.65,1623.60
7840,-3.8712,0.6476,-0.6610,1554.93,-1811.28,-579.47
7850,-3.8711,0.6135,-0.6643,-1101.32,-608.15,-1891.97
7860,-3.8710,0.5565,-0.6812,-1460.69,-1030.09,-1891.97
7870,-3.8708,0.5077,-0.7078,-757.57,813.54,-32.59
7880,-3.8706,0.4746,-0.7307,992.43,1407.23,-470.15
7890,-3.8704,0.4493,-0.7281,758.06,-1530.33,-892.09
7900,-3.8702,0.4338,-0.6798,1523.68,-1202.27,-829.59
7910,-3.8702,0.4364,-0.5948,-460.69,985.17,1014.28
7920,-3.8705,0.4624,-0.5050,-132.57,-139.83,1014.40
7930,-3.8708,0.5052,-0.4344,-804.44,-639.77,1889.59
7940,-3.8712,0.5481,-0.3931,679.93,391.60,-1657.10
7950,-3.8715,0.5719,-0.3921,-1835.69,1688.54,1014.83
7960,-3.8716,0.5740,-0.4365,1211.18,1813.60,592.96
7970,-3.8716,0.5623,-0.4926,1476.81,126.10,1764.77
7980,-3.8715,0.5437,-0.5092,-23.19,954.16,92.77
7990,-3.8716,0.5273,-0.4822,1601.81,-1170.84,1905.21
8000,-3.8718,0.5177,-0.4518,-491.94,-1717.77,-1485.35
8010,-3.8721,0.5150,-0.4453,-1726.32,-1827.15,1483.46
8020,-3.8723,0.5146,-0.4567,1929.93,-999.02,-1579.04
8030,-3.8724,0.5073,-0.4672,1883.06,1547.85,1124.08
8040,-3.8727,0.4944,-0.4705,945.56,204.10,-485.29
8050,-3.8728,0.4821,-0.4852,-710.69,-217.83,733.40
8060,-3.8730,0.4650,-0.5424,1711.18,1891.54,-1329.10
8070,-3.8730,0.4297,-0.6423,-476.32,-1421.02,358.28
8080,-3.8730,0.3610,-0.7531,-991.94,1782.04,-1.28
8090,-3.8727,0.2651,-0.8372,-1788.82,-389.95,1654.72
8100,-3.8723,0.1648,-0.8542,1945.56,844.24,435.85
8110,-3.8722,0.0764,-0.7974,1101.81,-1343.44,-1736.08
8120,-3.8722,0.0095,-0.7174,1789.31,1937.62,-1845.34
8130,-3.8723,-0.0320,-0.6775,1226.81,171.88,-1142.03
8140,-3.8724,-0.0592,-0.7068,-85.69,1296.75,-610.72
8150,-3.8724,-0.0857,-0.7832,429.93,1546.75,-1595.15
8160,-3.8723,-0.1093,-0.8579,1039.31,-234.56,123.41
8170,-3.8723,-0.1273,-0.8904,-1976.32,-1797.12,-1986.08
8180,-3.8723,-0.1487,-0.8733,-288.82,-1953.43,1935.73
8190,-3.8723,-0.1815,-0.8373,976.81,234.07,1201.42
8200,-3.8723,-0.2279,-0.8190,773.68,843.38,-829.77
8210,-3.8721,-0.2760,-0.8212,-1163.82,-812.99,-1392.27
8220,-3.8717,-0.3029,-0.8284,679.93,-1094.30,-1361.02
8230,-3.8713,-0.3069,-0.8271,1242.43,1983.76,-126.65
8240,-3.8710,-0.3180,-0.8019,726.81,-1859.99,-470.40
8250,-3.8707,-0.3572,-0.7512,-695.07,1374.33,-782.84
8260,-3.8706,-0.4307,-0.6858,-1710.69,-141.36,-939.03
8270,-3.8705,-0.5492,-0.6115,883.06,233.52,1467.41
8280,-3.8704,-0.7131,-0.5266,1711.18,1748.90,123.78
8290,-3.8702,-0.9023,-0.4277,726.81,607.97,342.71
8300,-3.8700,-1.0686,-0.3132,508.06,1263.85,30.40
8310,-3.8698,-1.1903,-0.2102,-773.19,-80.26,-1391.30
8320,-3.8695,-1.2583,-0.1497,-351.32,1106.99,-687.93
8330,-3.8693,-1.2507,-0.1444,-1054.44,856.87,968.44
8340,-3.8691,-1.1790,-0.1957,-85.69,1528.75,-1890.93
8350,-3.8690,-1.0708,-0.2682,1101.81,-1033.57,1749.57
8360,-3.8690,-0.9470,-0.3108,-1054.44,1685.36,1530.70
8370,-3.8691,-0.8221,-0.3113,-1210.69,232.48,827.51
8380,-3.8694,-0.7047,-0.2866,-1226.32,170.23,1061.89
8390,-3.8696,-0.6071,-0.2462,1804.93,-673.28,983.76
8400,-3.8699,-0.5520,-0.2180,-1695.07,498.78,-1469.24
8410,-3.8700,-0.5376,-0.2368,1351.81,108.28,1624.57
8420,-3.8701,-0.5317,-0.2905,-804.44,1702.03,-1328.61
8430,-3.8701,-0.5192,-0.3401,-54.44,-1172.97,1780.64
8440,-3.8701,-0.5126,-0.3776,1554.93,483.34,1468.08
8450,-3.8701,-0.5208,-0.4205,-1601.32,-313.54,1014.83
8460,-3.8701,-0.5273,-0.4711,1351.81,-1813.54,780.40
8470,-3.8702,-0.5149,-0.5155,508.06,-282.29,-610.35
8480,-3.8704,-0.4918,-0.5466,-1898.19,-1969.79,-1501.04
8490,-3.8706,-0.4683,-0.5667,1054.93,-1954.10,-1516.72
8500,-3.8708,-0.4418,-0.5812,70.56,-516.54,1280.09
8510,-3.8711,-0.4071,-0.5950,-538.82,1624.08,1576.97
8520,-3.8712,-0.3693,-0.6107,-101.32,-141.48,811.28
8530,-3.8713,-0.3357,-0.6227,742.43,1843.02,1858.15
8540,-3.8715,-0.3013,-0.6217,1039.31,311.83,-1376.22
8550,-3.8716,-0.2621,-0.6078,1445.56,436.89,-1938.72
8560,-3.8717,-0.2227,-0.5847,-1538.82,-1781.80,889.40
8570,-3.8718,-0.1879,-0.5536,-491.94,1171.39,530.09
8580,-3.8719,-0.1637,-0.5161,-38.82,1155.82,1983.28
8590,-3.8719,-0.1562,-0.4872,-945.07,1952.76,1123.96
8600,-3.8719,-0.1654,-0.4841,8.06,1655.94,1389.65
8610,-3.8719,-0.1678,-0.5004,-1163.82,-1953.49,-1360.35
8620,-3.8719,-0.1433,-0.5154,-1476.32,-31.62,-94.79
8630,-3.8718,-0.1073,-0.5254,1664.31,-1953.43,842.71
8640,-3.8718,-0.0824,-0.5312,-1726.32,765.38,-1063.54
8650,-3.8717,-0.0701,-0.5208,1461.18,15.44,1702.09
8660,-3.8717,-0.0621,-0.4971,-960.69,1359.19,-1532.29
8670,-3.8717,-0.0563,-0.4801,54.93,390.50,545.90
8680,-3.8718,-0.0540,-0.4827,804.93,-1437.62,1639.65
8690,-3.8719,-0.0532,-0.5034,1101.81,-1765.75,-407.23
8700,-3.8719,-0.0480,-0.5343,1195.56,-422.00,-719.79
8710,-3.8718,-0.0321,-0.5717,1867.43,-375.12,889.53
8720,-3.8717,-0.0123,-0.6155,-101.32,-1156.37,155.09
8730,-3.8716,0.0039,-0.6672,-1570.07,1234.31,30.03
8740,-3.8716,0.0046,-0.7240,508.06,-1406.25,-813.84
8750,-3.8715,-0.0192,-0.7755,601.81,-671.88,1717.29
8760,-3.8713,-0.0472,-0.8159,1554.93,749.94,435.97
8770,-3.8713,-0.0464,-0.8507,1961.18,-422.00,-517.27
8780,-3.8712,0.0062,-0.8888,-1929.44,-875.12,1732.67
8790,-3.8712,0.1101,-0.9326,804.93,-1765.62,-689.27
8800,-3.8711,0.2404,-0.9800,-1898.19,625.18,1935.67
8810,-3.8710,0.3759,-1.0193,-1226.32,-1437.07,-1689.45
8820,-3.8708,0.5071,-1.0398,117.43,1531.98,-1392.64
8830,-3.8708,0.6027,-1.0399,914.31,-1092.77,-486.45
8840,-3.8708,0.6456,-1.0177,1148.68,-1108.22,1747.92
8850,-3.8710,0.6602,-0.9788,-1351.32,1735.60,-1345.76
8860,-3.8711,0.6622,-0.9446,508.06,-1279.97,-1939.45
8870,-3.8712,0.6653,-0.9307,773.68,-904.97,-1455.02
8880,-3.8712,0.6968,-0.9229,1164.31,876.28,1951.29
8890,-3.8711,0.7769,-0.9039,1195.56,1876.34,279.42
8900,-3.8710,0.9144,-0.8739,-554.44,298.34,998.23
8910,-3.8708,1.1105,-0.8466,1054.93,142.40,-767.33
8920,-3.8706,1.3456,-0.8384,-1851.32,-357.24,-1923.58
8930,-3.8705,1.5585,-0.8469,242.43,690.12,-689.15
8940,-3.8704,1.6913,-0.8508,-507.57,-403.26,467.04
8950,-3.8705,1.7476,-0.8115,492.43,-902.95,467.04
8960,-3.8707,1.7709,-0.6946,-304.44,128.36,1623.41
8970,-3.8710,1.7937,-0.5541,-1320.07,-902.83,170.47
8980,-3.8715,1.8462,-0.4279,1601.81,1081.60,-735.47
8990,-3.8718,1.8810,-0.2864,320.56,1237.98,1249.15
9000,-3.8722,1.7904,-0.1555,773.68,-652.59,640.01
9010,-3.8724,1.6171,-0.0887,1179.93,97.23,1046.57
9020,-3.8724,1.4456,-0.1127,-1007.57,643.74,-1109.56
9030,-3.8721,1.2900,-0.2227,1039.31,1580.93,-1234.62
9040,-3.8716,1.1642,-0.3732,1133.06,-497.50,249.51
9050,-3.8713,1.0653,-0.5037,1023.68,236.63,1296.14
9060,-3.8712,0.9926,-0.5895,367.43,-466.67,-344.79
9070,-3.8711,0.9570,-0.6389,-945.07,548.77,-594.91
9080,-3.8711,0.9597,-0.6525,-1491.94,-1779.42,-360.66
9090,-3.8711,0.9789,-0.6285,-1148.19,486.21,264.34
9100,-3.8713,0.9808,-0.6061,1304.93,-451.23,-1704.41
9110,-3.8715,0.9523,-0.6559,1554.93,-1576.23,-860.60
9120,-3.8712,0.9033,-0.8021,1898.68,48.71,-1157.53
9130,-3.8706,0.8226,-0.9764,-366.94,1329.83,717.16
9140,-3.8701,0.7065,-1.0677,1304.93,-982.79,1279.30
9150,-3.8700,0.6001,-1.0239,-1554.44,-670.53,-1142.76
9160,-3.8701,0.5441,-0.8995,820.56,938.66,591.74
9170,-3.8706,0.5344,-0.7886,1648.68,860.41,-345.52
9180,-3.8710,0.5370,-0.7345,414.31,-936.46,1670.29
9190,-3.8713,0.5168,-0.7108,742.43,1985.41,1092.29
9200,-3.8717,0.4656,-0.6826,-1835.69,1016.60,1998.60
9210,-3.8721,0.3933,-0.6628,-398.19,625.85,-48.22
9220,-3.8722,0.3055,-0.6888,-1648.19,-843.02,1733.03
9230,-3.8722,0.2101,-0.7618,-882.57,-171.33,-626.40
9240,-3.8719,0.1274,-0.8346,-1101.32,-1515.26,-829.65
9250,-3.8717,0.0726,-0.8608,320.56,1172.12,-751.65
9260,-3.8716,0.0436,-0.8278,1304.93,1812.62,-314.21
9270,-3.8716,0.0343,-0.7561,1586.18,-1953.06,-79.77
9280,-3.8716,0.0444,-0.6923,398.68,-781.19,451.60
9290,-3.8718,0.0702,-0.6735,1695.56,-609.31,1748.60
9300,-3.8721,0.1046,-0.6981,992.43,1797.00,-1345.09
9310,-3.8722,0.1381,-0.7333,1398.68,-1359.19,-954.53
9320,-3.8722,0.1528,-0.7444,1679.93,-1859.13,-1626.46
9330,-3.8722,0.1309,-0.7297,-429.44,718.99,1092.29
9340,-3.8723,0.0765,-0.7211,758.06,-1406.01,-970.21
9350,-3.8723,0.0149,-0.7424,1804.93,-296.75,904.79
9360,-3.8724,-0.0435,-0.7886,1914.31,968.75,1482.91
9370,-3.8726,-0.1019,-0.8276,-1554.44,-922.00,1529.66
9380,-3.8726,-0.1490,-0.8356,-1038.82,-1922.12,123.35
9390,-3.8726,-0.1675,-0.8253,929.93,1062.19,-1751.65
9400,-3.8724,-0.1671,-0.8158,-1429.44,-1625.37,1576.48
9410,-3.8723,-0.1925,-0.8146,-1382.57,-406.62,498.35
9420,-3.8722,-0.2710,-0.8313,-632.57,-250.43,685.85
9430,-3.8719,-0.3641,-0.8788,1320.56,1608.83,45.23
9440,-3.8717,-0.4104,-0.9448,1398.68,-469.48,1107.60
9450,-3.8715,-0.4034,-0.9843,-523.19,-922.73,-767.52
9460,-3.8711,-0.3617,-0.9526,367.43,-1969.54,-423.83
9470,-3.8706,-0.2958,-0.8566,1711.18,-1922.61,91.86
9480,-3.8704,-0.2358,-0.7450,-1851.32,-1625.61,1357.67
9490,-3.8702,-0.2202,-0.6421,1820.56,655.76,-1579.59
9500,-3.8701,-0.2736,-0.5507,-179.44,1827.64,14.34
9510,-3.8701,-0.3926,-0.4757,992.43,1530.70,45.78
9520,-3.8701,-0.5391,-0.4124,1758.06,-875.79,1280.27
9530,-3.8700,-0.6741,-0.3418,-991.94,-766.72,639.77
9540,-3.8700,-0.7971,-0.2770,1726.81,264.28,-16.30
9550,-3.8699,-0.8618,-0.2271,1976.81,560.91,1655.70
9560,-3.8699,-0.8081,-0.1818,1695.56,-1048.58,-1922.36
9570,-3.8698,-0.6642,-0.1613,570.56,748.41,30.88
9580,-3.8698,-0.5125,-0.1721,-1007.57,-626.34,-609.74
9590,-3.8698,-0.4155,-0.1853,-1585.69,1983.34,-31.62
9600,-3.8698,-0.3733,-0.1791,-1179.44,296.02,890.26
9610,-3.8699,-0.3636,-0.1696,226.81,1093.02,827.76
9620,-3.8700,-0.3577,-0.1971,1461.18,-1688.23,-1828.49
9630,-3.8700,-0.3448,-0.2598,-1773.19,-1219.48,-1922.30
9640,-3.8699,-0.3390,-0.3000,-132.57,-1235.11,390.08
9650,-3.8699,-0.3496,-0.3044,617.43,1608.70,-1438.11
9660,-3.8699,-0.3711,-0.3088,-741.94,1046.14,-1625.61
9670,-3.8700,-0.3809,-0.3284,508.06,483.64,-625.61
9680,-3.8701,-0.3789,-0.3461,-741.94,1983.58,-1672.55
9690,-3.8702,-0.3865,-0.3420,-491.94,-282.04,671.14
9700,-3.8705,-0.4000,-0.3293,-1460.69,233.58,-453.80
9710,-3.8706,-0.4042,-0.3400,804.93,1858.58,-1047.55
9720,-3.8707,-0.4006,-0.3822,273.68,499.21,-1828.80
9730,-3.8708,-0.3961,-0.4335,726.81,-907.04,905.46
9740,-3.8710,-0.3851,-0.4696,1304.93,530.46,233.52
9750,-3.8711,-0.3606,-0.4871,-1288.82,-94.54,1155.27
9760,-3.8712,-0.3275,-0.4926,1851.81,1671.14,-1157.23
9770,-3.8712,-0.2964,-0.4862,-1913.82,968.08,686.52
9780,-3.8713,-0.2734,-0.4730,-1929.44,1780.64,-1500.98
9790,-3.8715,-0.2604,-0.4694,1008.06,-531.80,-63.48
9800,-3.8715,-0.2505,-0.4799,-1320.07,-63.05,1092.77
9810,-3.8716,-0.2362,-0.4938,-54.44,-1406.80,1905.27
9820,-3.8717,-0.2139,-0.5028,1773.68,812.01,-1172.85
9830,-3.8717,-0.1797,-0.5082,633.06,-344.18,1233.34
9840,-3.8717,-0.1276,-0.5162,1008.06,-1031.62,1873.96
9850,-3.8716,-0.0559,-0.5291,-320.07,1937.19,264.59
9860,-3.8716,0.0151,-0.5415,851.81,296.75,-1547.91
9870,-3.8716,0.0537,-0.5411,1945.56,-1312.50,-1704.22
9880,-3.8717,0.0446,-0.5205,-1116.94,-1265.56,-1547.97
9890,-3.8719,-0.0291,-0.4832,1711.18,1375.06,-1610.41
9900,-3.8722,-0.1663,-0.4449,289.31,-1828.19,-1250.98
9910,-3.8722,-0.3169,-0.4388,-1273.19,-937.87,1920.96
9920,-3.8719,-0.4371,-0.4836,-554.44,-156.92,436.58
9930,-3.8717,-0.4989,-0.5677,54.93,-1891.48,-1516.60
9940,-3.8715,-0.4878,-0.6619,148.68,-657.23,-579.28
9950,-3.8712,-0.4304,-0.7244,1570.56,-704.10,1233.03
9960,-3.8711,-0.3478,-0.7294,914.31,-703.98,311.04
9970,-3.8712,-0.2523,-0.7002,-507.57,-1344.48,-313.96
9980,-3.8713,-0.1742,-0.6929,-288.82,-1609.92,-610.78
9990,-3.8715,-0.1289,-0.7394,1711.18,-672.24,-704.53
10000,-3.8715,-0.0975,-0.8356,-491.94,1374.69,-1110.84
10010,-3.8713,-0.0549,-0.9585,-476.32,1062.26,1326.48
10020,-3.8712,0.0050,-1.0743,976.81,1328.00,1076.23
10030,-3.8711,0.0886,-1.1444,648.68,-1515.62,950.99
10040,-3.8711,0.1969,-1.1512,-648.19,1515.75,-1517.88
10050,-3.8711,0.3186,-1.1216,1211.18,640.99,1622.74
10060,-3.8712,0.4543,-1.0969,789.31,438.11,-799.07
10070,-3.8713,0.6178,-1.0825,-1835.69,-405.40,-1752.20
10080,-3.8716,0.8119,-1.0602,-913.82,1438.66,-845.89
10090,-3.8717,1.0157,-1.0348,-70.07,298.40,685.42
10100,-3.8718,1.2045,-1.0192,-1976.32,-451.17,1388.55
10110,-3.8718,1.3643,-0.9968,-1820.07,1549.19,1935.49
10120,-3.8717,1.5045,-0.9304,-1366.94,408.87,-1626.95
10130,-3.8715,1.6467,-0.8116,586.18,909.18,-1392.46
10140,-3.8711,1.7679,-0.6958,-1210.69,112.55,1076.54
10150,-3.8708,1.8424,-0.6338,-1695.07,-1059.08,1795.47
10160,-3.8707,1.8314,-0.6173,-163.82,-1121.46,-1516.91
10170,-3.8706,1.7014,-0.6163,-1570.07,987.92,-173.10
10180,-3.8702,1.5300,-0.5962,1789.31,1112.67,1405.03
10190,-3.8699,1.3573,-0.5881,-148.19,-309.57,1576.90
10200,-3.8695,1.1841,-0.6490,1742.43,721.37,-1907.41
10210,-3.8691,1.0643,-0.7469,-429.44,924.13,170.59
10220,-3.8690,0.9921,-0.8314,242.43,392.70,1561.04
10230,-3.8690,0.9064,-0.8992,-1007.57,1580.02,-157.90
10240,-3.8689,0.7820,-0.9596,23.68,908.02,-1642.40
10250,-3.8688,0.6388,-1.0056,101.81,1173.40,654.36
10260,-3.8688,0.5042,-1.0220,1773.68,-717.53,591.74
10270,-3.8689,0.4078,-1.0096,539.31,1188.48,654.24
10280,-3.8691,0.3822,-0.9730,211.18,-1233.58,263.61
10290,-3.8695,0.4517,-0.9122,929.93,-546.14,-923.83
10300,-3.8696,0.5649,-0.8617,1820.56,-764.77,591.92
10310,-3.8699,0.6418,-0.8407,320.56,1704.22,-1876.71
10320,-3.8701,0.6735,-0.8296,-1835.69,391.85,998.35
10330,-3.8705,0.6637,-0.8486,-1788.82,1813.78,1763.98
10340,-3.8707,0.6001,-0.9495,961.18,-623.72,1638.92
10350,-3.8707,0.4989,-1.1141,820.56,-1530.09,-1455.02
10360,-3.8705,0.3944,-1.2397,-132.57,1391.54,1138.43
10370,-3.8704,0.3092,-1.2559,-1507.57,1313.23,810.06
10380,-3.8705,0.2540,-1.1777,-413.82,-749.45,1419.37
10390,-3.8707,0.2319,-1.0583,523.68,1250.49,497.68
10400,-3.8711,0.2350,-0.9435,1695.56,531.68,201.05
10410,-3.8716,0.2483,-0.8577,-1913.82,-765.20,-1548.77
10420,-3.8719,0.2638,-0.8081,-210.69,-1780.82,1232.67
10430,-3.8723,0.2705,-0.8019,1773.68,562.99,1420.29
10440,-3.8726,0.2490,-0.8533,-1366.94,1359.86,529.66
10450,-3.8727,0.1918,-0.9493,-116.94,-1218.32,-1782.96
10460,-3.8726,0.1023,-1.0400,554.93,-1515.26,-1033.14
10470,-3.8723,-0.0122,-1.0737,1101.81,-1124.82,-1377.08
10480,-3.8721,-0.1235,-1.0371,-1554.44,-1421.94,482.24
10490,-3.8721,-0.2006,-0.9614,195.56,-734.62,1326.05
10500,-3.8722,-0.2301,-0.8790,-1663.82,952.70,1654.36
10510,-3.8723,-0.2142,-0.8086,-1445.07,-500.49,763.85
10520,-3.8724,-0.1740,-0.7758,586.18,515.20,1779.66
10530,-3.8724,-0.1311,-0.7896,1742.43,718.38,1732.85
10540,-3.8724,-0.0952,-0.8177,-773.19,-1047.18,-1032.84
10550,-3.8724,-0.0697,-0.8242,-179.44,-656.49,-720.40
10560,-3.8724,-0.0565,-0.8075,-913.82,-1484.56,-1251.65
10570,-3.8724,-0.0576,-0.7896,773.68,656.13,-1642.21
10580,-3.8724,-0.0839,-0.7866,633.06,-1047.00,-1392.21
10590,-3.8723,-0.1409,-0.7974,1273.68,-672.06,514.04
10600,-3.8722,-0.2120,-0.8146,1976.81,1952.82,420.29
10610,-3.8721,-0.2806,-0.8240,867.43,-250.43,1654.60
10620,-3.8718,-0.3411,-0.7981,86.18,-1453.67,45.23
10630,-3.8717,-0.3890,-0.7274,351.81,1858.70,-1360.96
10640,-3.8715,-0.4138,-0.6298,-1788.82,-1094.54,373.54
10650,-3.8713,-0.4215,-0.5264,-960.69,-594.60,-1563.78
10660,-3.8711,-0.4465,-0.4346,-1945.07,639.77,1748.96
10670,-3.8708,-0.5138,-0.3724,-1148.19,389.71,-1250.85
10680,-3.8705,-0.6198,-0.3380,-1757.57,342.71,-1985.11
10690,-3.8701,-0.7607,-0.3090,679.93,748.78,-1672.55
10700,-3.8698,-0.9103,-0.2623,-1366.94,467.22,1077.51
10710,-3.8695,-1.0083,-0.1709,-507.57,-1564.33,1843.20
10720,-3.8693,-1.0022,-0.0576,-1054.44,-1861.39,-1703.49
10730,-3.8690,-0.8864,-0.0031,-273.19,638.61,-343.87
10740,-3.8687,-0.7427,-0.0487,-1445.07,-376.77,-1968.81
10750,-3.8684,-0.6550,-0.1473,945.56,1779.79,-672.00
10760,-3.8682,-0.6367,-0.2323,164.31,1154.97,1374.69
10770,-3.8680,-0.6708,-0.2892,-1491.94,-1720.03,327.64
10780,-3.8682,-0.7196,-0.3154,-1851.32,-1001.34,-250.61
10790,-3.8683,-0.7448,-0.3046,-101.32,-360.84,1530.58
10800,-3.8687,-0.7441,-0.2679,679.93,1029.79,1718.14
10810,-3.8691,-0.7427,-0.2369,758.06,1717.29,-984.92
10820,-3.8695,-0.7545,-0.2352,945.56,1686.04,515.14
10830,-3.8699,-0.7722,-0.2568,-570.07,1904.72,327.64
10840,-3.8702,-0.7828,-0.2866,1164.31,-860.90,-1703.67
10850,-3.8705,-0.7849,-0.3141,-195.07,-673.46,749.39
10860,-3.8708,-0.7792,-0.3334,-460.69,-189.09,-1266.30
10870,-3.8711,-0.7576,-0.3550,273.68,1342.22,905.58
10880,-3.8713,-0.7181,-0.3915,-960.69,-1423.40,233.64
10890,-3.8716,-0.6724,-0.4324,86.18,1904.85,811.71
10900,-3.8718,-0.6298,-0.4646,1945.56,670.53,-1516.48
10910,-3.8719,-0.5857,-0.4888,-601.32,545.59,858.46
10920,-3.8722,-0.5342,-0.5078,1039.31,1451.97,-282.23
10930,-3.8723,-0.4794,-0.5228,-366.94,-985.47,-985.41
10940,-3.8724,-0.4307,-0.5380,-1351.32,1092.77,-1719.79
10950,-3.8726,-0.3979,-0.5588,883.06,-844.60,1373.90
10960,-3.8727,-0.3842,-0.5825,1070.56,483.58,1561.40
10970,-3.8727,-0.3817,-0.6031,-1163.82,1452.33,498.84
10980,-3.8727,-0.3826,-0.6218,-851.32,-1188.29,1920.65
10990,-3.8727,-0.3761,-0.6467,-960.69,421.08,-32.47
11000,-3.8726,-0.3575,-0.6766,-132.57,1233.58,1233.09
11010,-3.8726,-0.3268,-0.6971,-1757.57,1405.52,1217.41
11020,-3.8727,-0.2839,-0.7047,-1820.07,-1219.42,-157.65
11030,-3.8727,-0.2405,-0.7052,-335.69,1811.89,-1204.53
11040,-3.8727,-0.2100,-0.7091,1226.81,1749.51,-376.40
11050,-3.8726,-0.1912,-0.7313,1133.06,1249.57,1482.97
11060,-3.8726,-0.1746,-0.7709,-460.69,-1594.18,-688.96
11070,-3.8724,-0.1523,-0.8068,1664.31,1343.38,670.35
11080,-3.8724,-0.1198,-0.8273,508.06,749.69,185.91
11090,-3.8726,-0.0795,-0.8381,679.93,-1875.24,1138.98
11100,-3.8727,-0.0458,-0.8478,1836.18,734.19,920.23
11110,-3.8728,-0.0249,-0.8617,-1851.32,-500.12,1217.04
11120,-3.8729,-0.0126,-0.8820,820.56,1718.69,-1517.33
11130,-3.8729,-0.0125,-0.9191,-1601.32,-875.06,1701.35
11140,-3.8728,-0.0282,-0.9873,-1585.69,-1625.06,1404.42
11150,-3.8726,-0.0453,-1.0868,398.68,1640.56,-1955.08
11160,-3.8722,-0.0479,-1.1940,-1788.82,906.13,700.99
11170,-3.8719,-0.0400,-1.2769,1883.06,-812.62,1903.87
11180,-3.8718,-0.0281,-1.3352,-1116.94,578.00,-596.25
11190,-3.8717,-0.0048,-1.3925,414.31,1109.31,1544.25
11200,-3.8717,0.0400,-1.4783,-601.32,1781.19,-1815.25
11210,-3.8717,0.1230,-1.6011,1133.06,-1218.69,-112.30
11220,-3.8716,0.2465,-1.7166,-241.94,-937.32,-300.05
11230,-3.8713,0.3954,-1.7703,-445.07,281.68,949.77
11240,-3.8712,0.5757,-1.7760,-1382.57,1406.98,-472.23
11250,-3.8710,0.7959,-1.7837,1695.56,672.97,-800.35
11260,-3.8707,1.0563,-1.7859,1883.06,-310.97,-1019.17
11270,-3.8706,1.3450,-1.7552,-788.82,-591.74,-19.17
11280,-3.8706,1.6421,-1.6964,164.31,-669.25,-144.10
11290,-3.8707,1.9401,-1.6351,-1804.44,-1137.45,-1581.48
11300,-3.8710,2.2224,-1.5681,336.18,-1293.09,231.14
11310,-3.8715,2.4186,-1.4410,476.81,-714.42,-1987.49
11320,-3.8719,2.4722,-1.2664,1586.18,-448.43,-877.87
11330,-3.8723,2.4635,-1.0713,445.56,1911.07,1778.75
11340,-3.8727,2.4056,-0.8665,-663.82,-1120.24,60.36
11350,-3.8732,2.2299,-0.7023,-70.07,1098.39,-689.21
11360,-3.8734,2.0219,-0.5593,1429.93,-1886.29,-1032.65
11370,-3.8734,1.8680,-0.4380,-1195.07,410.16,623.90
11380,-3.8734,1.7240,-0.4144,-882.57,-58.90,-188.42
11390,-3.8730,1.5653,-0.5109,679.93,-1043.52,61.65
11400,-3.8728,1.4200,-0.6753,367.43,-1387.57,-594.79
11410,-3.8723,1.2681,-0.8325,1773.68,1565.25,170.53
11420,-3.8719,1.1055,-0.9418,-1679.44,1439.94,1623.35
11430,-3.8716,0.9929,-1.0103,1508.06,-544.74,794.98
11440,-3.8715,0.9534,-1.0500,-898.19,-1310.61,-142.64
11450,-3.8713,0.9515,-1.0642,-1960.69,1595.58,1935.42
11460,-3.8715,0.9746,-1.0687,1804.93,-216.92,-892.76
11470,-3.8716,1.0255,-1.0836,758.06,-794.98,1513.49
11480,-3.8718,1.0710,-1.1155,-726.32,1298.83,-517.76
11490,-3.8719,1.0543,-1.1625,1101.81,1220.83,841.55
11500,-3.8722,0.9623,-1.2240,-1038.82,-794.86,669.56
11510,-3.8724,0.8392,-1.3082,-820.07,-670.04,-1143.07
11520,-3.8724,0.7240,-1.4059,-570.07,548.46,-471.31
11530,-3.8722,0.6118,-1.4813,679.93,48.28,872.25
11540,-3.8721,0.5107,-1.4971,-1679.44,-1608.22,-627.93
11550,-3.8719,0.4535,-1.4358,1383.06,375.98,-940.43
11560,-3.8719,0.4395,-1.3285,-1945.07,219.60,28.44
11570,-3.8723,0.4424,-1.2512,258.06,1953.98,-1893.25
11580,-3.8727,0.4374,-1.2639,633.06,-155.40,-1299.38
11590,-3.8728,0.4032,-1.3398,-7.57,-1780.46,1606.87
11600,-3.8728,0.3359,-1.4178,-382.57,500.73,-299.50
11610,-3.8726,0.2527,-1.4736,-991.94,-1483.76,403.44
11620,-3.8724,0.1805,-1.4854,351.81,-624.51,1512.70
11630,-3.8723,0.1394,-1.4456,-882.57,1875.31,528.32
11640,-3.8724,0.1322,-1.3882,1851.81,-1031.01,-1502.87
11650,-3.8726,0.1512,-1.3553,929.93,-1687.26,825.38
11660,-3.8728,0.1754,-1.3619,-632.57,-1484.13,-815.19
11670,-3.8729,0.1757,-1.3927,-1538.82,1672.18,-221.44
11680,-3.8729,0.1406,-1.4379,-1507.57,1734.68,1934.75
11690,-3.8729,0.0774,-1.5085,-1991.94,-46.63,1309.63
11700,-3.8729,0.0010,-1.5986,1914.31,-1093.63,-1487.37
11710,-3.8729,-0.0770,-1.6766,133.06,-625.00,-753.17
11720,-3.8729,-0.1721,-1.7152,-1851.32,1406.07,1824.83
11730,-3.8729,-0.3044,-1.6880,1976.81,468.38,1762.27
11740,-3.8728,-0.4586,-1.5865,1039.31,-47.49,1559.14
11750,-3.8727,-0.5907,-1.4213,1304.93,936.58,-1753.11
11760,-3.8726,-0.6663,-1.2130,398.68,-1907.41,44.07
11770,-3.8727,-0.6821,-1.0009,-1273.19,748.66,1716.37
11780,-3.8728,-0.6680,-0.8196,695.56,-95.09,326.11
11790,-3.8730,-0.6874,-0.6903,-1491.94,-891.97,1623.35
11800,-3.8732,-0.8060,-0.6064,23.68,-345.09,936.10
11810,-3.8732,-1.0332,-0.5215,836.18,-1610.96,-876.22
11820,-3.8728,-1.3036,-0.4076,-241.94,1263.55,-1969.79
11830,-3.8723,-1.5106,-0.2827,1148.68,-158.81,-1985.23
11840,-3.8717,-1.5804,-0.1622,-1351.32,-174.87,93.14
11850,-3.8712,-1.5068,-0.0630,1711.18,-753.11,765.26
11860,-3.8708,-1.3475,-0.0001,-866.94,-49.87,171.69
11870,-3.8707,-1.2166,-0.0562,-476.32,-2.69,1546.81
11880,-3.8706,-1.1042,-0.2245,289.31,825.74,874.88
11890,-3.8705,-0.9501,-0.3280,-1335.69,-720.95,-1484.86
11900,-3.8704,-0.7985,-0.2935,-1601.32,-1970.64,-1719.42
11910,-3.8704,-0.6833,-0.1986,1804.93,-1548.46,1749.39
11920,-3.8704,-0.5845,-0.1283,539.31,-1407.59,249.57
11930,-3.8705,-0.4812,-0.1140,1195.56,-407.41,-1234.68
11940,-3.8705,-0.3785,-0.1406,-1585.69,1420.90,-250.24
11950,-3.8702,-0.2861,-0.1755,-445.07,-1985.17,1859.07
11960,-3.8700,-0.2212,-0.2163,-616.94,1546.26,-1765.99
11970,-3.8698,-0.1759,-0.2606,-304.44,327.64,1468.32
11980,-3.8696,-0.1360,-0.2854,1492.43,-1344.12,1452.58
11990,-3.8696,-0.1204,-0.2861,-1398.19,-515.93,1265.01
12000,-3.8698,-0.1486,-0.2958,601.81,-609.62,1233.76
12010,-3.8700,-0.2111,-0.3320,992.43,-1844.06,-563.11
12020,-3.8701,-0.2699,-0.3740,992.43,1515.20,-1235.05
12030,-3.8702,-0.2938,-0.4098,1461.18,140.08,-860.11
12040,-3.8704,-0.2882,-0.4509,-1601.32,-438.11,-1313.35
12050,-3.8705,-0.2675,-0.4984,-882.57,-1703.74,1639.71
12060,-3.8706,-0.2374,-0.5392,1773.68,218.20,764.65
12070,-3.8708,-0.2046,-0.5675,1617.43,-1000.49,-876.10
12080,-3.8711,-0.1819,-0.5852,1820.56,-625.43,-391.78
12090,-3.8713,-0.1727,-0.5896,726.81,1109.01,-1141.78
12100,-3.8716,-0.1671,-0.5800,1898.68,546.51,-1594.91
12110,-3.8718,-0.1622,-0.5674,-1382.57,1780.88,-673.03
12120,-3.8719,-0.1646,-0.5646,-757.57,-609.74,-907.41
12130,-3.8719,-0.1714,-0.5762,-1054.44,-250.37,-798.03
12140,-3.8718,-0.1760,-0.5994,-1929.44,-1734.74,-1907.41
12150,-3.8717,-0.1764,-0.6323,1476.81,-703.49,14.40
12160,-3.8718,-0.1681,-0.6654,1429.93,-922.24,-485.66
12170,-3.8718,-0.1486,-0.6854,-1507.57,-1156.62,1123.66
12180,-3.8719,-0.1266,-0.6962,992.43,280.94,-1423.22
12190,-3.8719,-0.1108,-0.7089,-195.07,-1094.06,-1485.78
12200,-3.8718,-0.0970,-0.7284,1820.56,1281.01,1373.60
12210,-3.8718,-0.0784,-0.7485,-413.82,-1218.99,-438.96
12220,-3.8718,-0.0479,-0.7632,1976.81,202.94,1732.91
12230,-3.8719,-0.0073,-0.7776,1883.06,-1672.00,29.72
12240,-3.8722,0.0260,-0.7931,-929.44,484.31,498.47
12250,-3.8724,0.0291,-0.7977,-663.82,-1515.62,-1939.09
12260,-3.8726,0.0082,-0.7911,-273.19,1890.62,-95.34
12270,-3.8724,-0.0056,-0.8009,1054.93,-1265.62,1748.41
12280,-3.8723,0.0024,-0.8486,-710.69,1499.94,482.79
12290,-3.8723,0.0392,-0.9292,320.56,-625.00,-423.58
12300,-3.8722,0.1044,-1.0214,1023.68,1062.56,-1579.96
12310,-3.8722,0.1788,-1.0975,1367.43,1265.81,-939.51
12320,-3.8722,0.2322,-1.1387,-1101.32,-484.07,966.55
12330,-3.8723,0.2389,-1.1406,1726.81,-1749.57,1622.74
12340,-3.8723,0.2115,-1.1271,-1413.82,-1999.57,153.99
12350,-3.8723,0.1898,-1.1470,-913.82,-265.26,1935.24
12360,-3.8722,0.2068,-1.2288,304.93,1187.87,1497.74
12370,-3.8721,0.2776,-1.3547,-1523.19,-1280.88,1825.68
12380,-3.8719,0.3851,-1.4700,-460.69,-1405.76,-1971.44
12390,-3.8718,0.5022,-1.5291,1304.93,-155.52,872.07
12400,-3.8718,0.6234,-1.5378,289.31,282.23,1809.51
12410,-3.8718,0.7483,-1.5350,-195.07,-842.59,1621.95
12420,-3.8718,0.8927,-1.5393,-210.69,-482.97,-393.68
12430,-3.8716,1.0717,-1.5422,-1726.32,-1029.54,700.07
12440,-3.8715,1.2760,-1.5233,1179.93,-1404.17,-128.05
12450,-3.8711,1.5258,-1.4696,-663.82,1018.07,809.51
12460,-3.8710,1.8069,-1.4026,-695.07,-106.45,-299.80
12470,-3.8708,2.0466,-1.3374,-710.69,472.23,-534.00
12480,-3.8708,2.1997,-1.2322,1976.81,816.47,-1283.87
12490,-3.8711,2.2268,-1.0686,1570.56,-1714.48,841.31
12500,-3.8716,2.1453,-0.9282,1039.31,-776.92,-1986.51
12510,-3.8719,2.0498,-0.8483,-1398.19,1191.65,-1939.33
12520,-3.8722,1.9336,-0.7694,-1616.94,-574.16,-1345.46
12530,-3.8723,1.7485,-0.6898,-491.94,1519.35,-610.90
12540,-3.8722,1.5438,-0.6469,-179.44,-293.52,326.72
12550,-3.8721,1.3644,-0.6528,1617.43,1206.12,29.97
12560,-3.8719,1.2113,-0.7041,-1351.32,440.12,904.97
12570,-3.8718,1.0844,-0.7876,-945.07,1877.32,1811.10
12580,-3.8717,0.9816,-0.8854,-1195.07,-810.42,1560.91
12590,-3.8717,0.9010,-0.9681,1648.68,-1326.23,-814.27
12600,-3.8717,0.8373,-1.0175,-663.82,79.83,-1611.27
12610,-3.8717,0.7860,-1.0414,-820.07,1767.21,544.86
12620,-3.8718,0.7421,-1.0598,617.43,-1295.35,-627.08
12630,-3.8718,0.6888,-1.0721,-1007.57,345.15,-1064.58
12640,-3.8718,0.6365,-1.0714,179.93,-1233.03,1622.86
12650,-3.8719,0.6279,-1.0503,1476.81,-1139.40,-955.26
12660,-3.8719,0.6636,-1.0029,383.06,1563.72,1951.05
12670,-3.8719,0.7006,-0.9541,945.56,-373.72,-1830.14
12680,-3.8719,0.7202,-0.9302,1679.93,1876.34,701.23
12690,-3.8721,0.7306,-0.9445,195.56,938.90,1123.17
12700,-3.8722,0.7289,-1.0055,1523.68,-889.22,1138.73
12710,-3.8723,0.7073,-1.0920,1304.93,-701.72,-486.39
12720,-3.8722,0.6721,-1.1719,-1460.69,220.09,1904.11
12730,-3.8719,0.6343,-1.2273,-1960.69,-1998.72,325.81
12740,-3.8717,0.6084,-1.2454,1195.56,-1092.53,841.31
12750,-3.8716,0.5992,-1.2184,1883.06,594.91,-1080.57
12760,-3.8716,0.5920,-1.1654,711.18,48.03,-1564.88
12770,-3.8717,0.5747,-1.1121,-210.69,-1170.78,107.06
12780,-3.8721,0.5438,-1.0806,1570.56,1657.35,-220.95
12790,-3.8722,0.5029,-1.0913,1617.43,1688.54,-1799.01
12800,-3.8722,0.4646,-1.1136,383.06,313.48,-1642.76
12810,-3.8722,0.4436,-1.0896,-523.19,1453.98,-377.20
12820,-3.8723,0.4478,-1.0219,789.31,532.10,-408.39
12830,-3.8726,0.4646,-0.9583,1320.56,1203.98,-1798.89
12840,-3.8729,0.4651,-0.9344,-523.19,1344.60,-1611.27
12850,-3.8733,0.4231,-0.9613,-460.69,391.48,-1767.46
12860,-3.8737,0.3289,-1.0310,-1835.69,953.92,-1408.14
12870,-3.8740,0.2006,-1.1267,-1898.19,31.86,-283.26
12880,-3.8743,0.0745,-1.2328,1679.93,-218.38,-1096.01
12890,-3.8744,-0.0269,-1.3353,1539.31,-1796.75,747.56
12900,-3.8745,-0.1080,-1.4208,570.56,1093.69,294.25
12910,-3.8746,-0.1790,-1.5018,-1820.07,-1843.99,1669.07
12920,-3.8745,-0.2487,-1.6080,1101.81,-219.12,950.13
12930,-3.8741,-0.3298,-1.7181,179.93,-1812.99,-1003.17
12940,-3.8734,-0.4294,-1.7651,1789.31,93.08,-815.86
12950,-3.8724,-0.5270,-1.6947,1039.31,-1922.73,887.15
12960,-3.8716,-0.5919,-1.5150,554.93,-907.29,-1268.98
12970,-3.8707,-0.6108,-1.2777,242.43,-1907.41,1981.38
12980,-3.8700,-0.5842,-1.0272,1820.56,467.53,1044.37
12990,-3.8696,-0.5485,-0.8118,1226.81,530.09,-392.64
13000,-3.8695,-0.5403,-0.6586,1804.93,108.28,-1079.71
13010,-3.8696,-0.5865,-0.5455,-1148.19,-282.35,1436.16
13020,-3.8699,-0.6923,-0.4204,929.93,-1813.66,280.15
13030,-3.8702,-0.8049,-0.2748,-601.32,-1798.28,-360.23
13040,-3.8704,-0.8687,-0.1692,976.81,842.16,-1969.30
13050,-3.8704,-0.8608,-0.1521,820.56,-1642.33,1015.26
13060,-3.8702,-0.7809,-0.2177,1820.56,545.17,1390.32
13070,-3.8700,-0.6243,-0.3120,54.93,154.72,1562.07
13080,-3.8698,-0.4338,-0.4012,101.81,76.90,1405.64
13090,-3.8696,-0.3025,-0.5221,476.81,655.40,999.21
13100,-3.8696,-0.2114,-0.6342,1289.31,1186.89,-1047.91
13110,-3.8694,-0.1021,-0.6462,945.56,-1156.68,483.09
13120,-3.8693,-0.0219,-0.5767,-1054.44,1296.63,-626.28
13130,-3.8690,-0.0112,-0.4977,1211.18,-1796.94,498.84
13140,-3.8690,-0.0586,-0.4717,-1429.44,312.44,1592.77
13150,-3.8691,-0.1321,-0.5146,508.06,-359.50,1264.65
13160,-3.8694,-0.2089,-0.5802,-898.19,-1859.68,-1001.04
13170,-3.8695,-0.2784,-0.6212,1273.68,1749.57,-1860.53
13180,-3.8696,-0.3115,-0.6393,367.43,499.45,-1407.47
13190,-3.8698,-0.3057,-0.6477,133.06,-1813.11,1998.72
13200,-3.8700,-0.2992,-0.6506,883.06,1108.76,-1751.28
13210,-3.8702,-0.3208,-0.6554,1711.18,733.76,123.72
13220,-3.8706,-0.3583,-0.6678,-1054.44,124.33,-1345.03
13230,-3.8707,-0.3778,-0.6973,-1851.32,-1469.48,545.53
13240,-3.8708,-0.3721,-0.7405,-351.32,-1235.17,1498.60
13250,-3.8710,-0.3544,-0.7754,383.06,1233.64,-1079.59
13260,-3.8711,-0.3295,-0.7841,-1351.32,764.89,-1298.40
13270,-3.8712,-0.3003,-0.7622,1836.18,-344.42,404.66
13280,-3.8715,-0.2676,-0.7146,1570.56,-1547.49,1248.47
13290,-3.8717,-0.2240,-0.6581,1758.06,546.33,-1079.53
13300,-3.8718,-0.1785,-0.6226,-663.82,-219.24,1889.28
13310,-3.8719,-0.1483,-0.6243,1164.31,327.76,1811.28
13320,-3.8721,-0.1320,-0.6554,1023.68,109.07,-657.47
13330,-3.8721,-0.1165,-0.6985,-882.57,124.69,-1188.78
13340,-3.8721,-0.0962,-0.7275,1101.81,-1390.87,-48.28
13350,-3.8719,-0.0706,-0.7234,-304.44,-1109.62,1998.54
13360,-3.8719,-0.0371,-0.6979,-1023.19,-578.31,-1563.96
13370,-3.8721,0.0084,-0.6718,-741.94,-1312.62,-579.53
13380,-3.8722,0.0648,-0.6545,1086.18,-1984.38,-1860.72
13390,-3.8723,0.1158,-0.6460,304.93,218.87,326.84
13400,-3.8726,0.1526,-0.6385,-1163.82,1312.68,-985.66
13410,-3.8727,0.1793,-0.6412,-460.69,-1734.13,-923.16
13420,-3.8727,0.1962,-0.6696,-1038.82,1922.18,1451.84
13430,-3.8727,0.2079,-0.7180,1117.43,-1702.76,-1235.72
13440,-3.8726,0.2192,-0.7783,-1382.57,94.12,-1938.90
13450,-3.8724,0.2389,-0.8518,70.56,375.43,1857.85
13460,-3.8723,0.2788,-0.9263,-1413.82,-1030.82,-1407.96
13470,-3.8722,0.3364,-0.9669,-304.44,1437.99,-1454.96
13480,-3.8722,0.3962,-0.9618,-929.44,234.99,810.61
13490,-3.8724,0.4333,-0.9447,-1273.19,891.36,591.86
13500,-3.8728,0.4417,-0.9434,-523.19,-921.08,-908.14
13510,-3.8729,0.4388,-0.9673,539.31,-749.15,904.36
13520,-3.8730,0.4286,-1.0171,179.93,188.35,-1830.02
13530,-3.8730,0.4066,-1.0659,-1132.57,1813.29,1466.74
13540,-3.8730,0.3829,-1.0953,54.93,-436.71,1216.61
13550,-3.8730,0.3810,-1.1172,1023.68,-202.39,622.80
13560,-3.8730,0.4269,-1.1377,773.68,1000.73,997.80
13570,-3.8729,0.5426,-1.1357,-1351.32,-1624.21,638.37
13580,-3.8727,0.7417,-1.1158,1461.18,-1373.96,13.37
13590,-3.8724,1.1630,-1.1702,-1054.44,1173.28,1482.18
13600,-3.8715,2.0044,-1.1930,867.43,-1778.99,-1752.32
13610,-3.8707,3.1582,-1.1871,570.56,-699.22,1513.24
13620,-3.8715,3.6592,-1.3213,258.06,53.04,216.43
13630,-3.8719,2.9241,-1.2141,383.06,-1117.86,1841.13
13640,-3.8718,1.9280,-0.6633,-1710.69,599.43,-455.51
13650,-3.8717,1.3468,-0.2509,-1210.69,-902.53,-141.97
13660,-3.8711,1.0110,-0.2621,398.68,-106.75,-1766.17
13670,-3.8705,0.8358,-0.3315,1414.31,-1544.92,-875.55
13680,-3.8701,0.6967,-0.2769,-1007.57,1564.09,1280.58
13690,-3.8701,0.5865,-0.2595,1179.93,563.84,-1438.05
13700,-3.8701,0.5728,-0.3153,-913.82,-1217.65,140.08
13710,-3.8704,0.5509,-0.3361,1320.56,-358.28,-141.30
13720,-3.8704,0.5333,-0.3459,-1476.32,985.41,108.70
13730,-3.8705,0.4818,-0.4073,273.68,-280.21,-656.98
13740,-3.8705,0.3409,-0.4946,1679.93,-139.71,-1844.60
13750,-3.8707,0.4050,-0.5222,-351.32,688.11,1420.90
13760,-3.8711,0.7943,-0.4647,-148.19,1156.98,1686.46
13770,-3.8713,1.1172,-0.4143,1679.93,517.15,405.33
13780,-3.8718,1.1549,-0.3982,-991.94,-1029.11,-860.23
13790,-3.8722,1.0784,-0.3711,-163.82,1033.45,483.58
13800,-3.8726,1.0358,-0.3561,-1960.69,502.08,-672.61
13810,-3.8726,1.0287,-0.4048,586.18,-1576.11,905.52
13820,-3.8726,1.0254,-0.5031,-320.07,189.45,-1203.92
13830,-3.8724,1.0269,-0.5953,-741.94,-388.67,-1032.29
13840,-3.8723,1.0297,-0.6534,-554.44,-201.17,-1376.22
13850,-3.8723,1.0135,-0.6857,-195.07,361.33,-673.16
13860,-3.8723,0.9844,-0.6969,1742.43,236.33,1670.53
13870,-3.8724,0.9667,-0.6820,-1991.94,-1201.23,-517.03
13880,-3.8724,0.9677,-0.6531,-257.57,704.96,639.28
13890,-3.8726,0.9784,-0.6349,-132.57,408.08,561.22
13900,-3.8728,0.9774,-0.6464,1242.43,-1263.73,-532.53
13910,-3.8729,0.9459,-0.6925,1117.43,1267.52,-1423.16
13920,-3.8730,0.8911,-0.7615,1086.18,-638.79,-720.15
13930,-3.8730,0.8264,-0.8334,-1929.44,-1467.04,-1454.65
13940,-3.8729,0.7451,-0.8884,1789.31,1329.71,1467.10
13950,-3.8727,0.6429,-0.9092,-616.94,-1717.35,279.48
13960,-3.8726,0.5438,-0.8878,-1695.07,-373.78,-298.71
13970,-3.8724,0.4789,-0.8405,1617.43,-1639.59,-658.02
13980,-3.8724,0.4519,-0.7986,1304.93,422.79,-1017.27
13990,-3.8724,0.4397,-0.7784,1851.81,1782.10,732.79
14000,-3.8726,0.4271,-0.7693,289.31,360.23,-1079.65
14010,-3.8726,0.4120,-0.7544,-1320.07,1532.04,-1642.15
14020,-3.8726,0.3896,-0.7419,742.43,-561.71,1295.35
14030,-3.8727,0.3529,-0.7501,1883.06,1031.98,-1345.21
14040,-3.8728,0.3008,-0.7751,1179.93,-14.95,-392.15
14050,-3.8728,0.2449,-0.7936,-1491.94,781.80,1482.85
14060,-3.8728,0.2062,-0.7830,-648.19,-1577.70,217.16
14070,-3.8728,0.1969,-0.7532,-1601.32,-218.38,232.79
14080,-3.8728,0.1964,-0.7488,1211.18,-405.88,-1329.65
14090,-3.8727,0.1758,-0.7903,1148.68,156.62,-642.09
14100,-3.8724,0.1343,-0.8491,-1491.94,-1155.94,92.16
14110,-3.8724,0.0858,-0.8997,1195.56,-687.26,-1189.21
14120,-3.8723,0.0397,-0.9368,-1007.57,843.87,373.23
14130,-3.8723,0.0049,-0.9493,1086.18,93.81,1857.54
14140,-3.8723,-0.0077,-0.9438,633.06,-1515.62,-1548.77
14150,-3.8723,-0.0061,-0.9501,-976.32,-796.94,1654.36
14160,-3.8723,-0.0151,-0.9686,-773.19,-1593.81,169.98
14170,-3.8724,-0.0540,-0.9716,-1929.44,31.19,-845.64
14180,-3.8724,-0.1198,-0.9542,1101.81,-343.87,-533.20
14190,-3.8723,-0.1943,-0.9447,679.93,1874.76,1638.73
14200,-3.8722,-0.2614,-0.9396,-866.94,-906.68,-189.39
14210,-3.8718,-0.3104,-0.9000,-1445.07,-250.55,-658.14
14220,-3.8713,-0.3383,-0.8245,273.68,811.89,1154.48
14230,-3.8710,-0.3474,-0.7443,711.18,-1516.30,-1939.15
14240,-3.8706,-0.3671,-0.6703,-460.69,749.27,686.04
14250,-3.8704,-0.4454,-0.5958,1023.68,-1781.98,233.03
14260,-3.8702,-0.5872,-0.5146,-1007.57,-250.92,1795.65
14270,-3.8700,-0.7345,-0.4266,851.81,-1860.53,202.09
14280,-3.8698,-0.8348,-0.3528,1992.43,1404.79,77.27
14290,-3.8696,-0.8628,-0.3265,1148.68,-1142.27,-422.61
14300,-3.8694,-0.7838,-0.3473,1570.56,-1782.96,1264.95
14310,-3.8694,-0.6055,-0.3794,-320.07,-439.09,-860.11
14320,-3.8695,-0.4318,-0.4238,-1491.94,-548.10,-1250.79
14330,-3.8698,-0.3042,-0.4753,742.43,1764.77,-1828.98
14340,-3.8699,-0.1716,-0.4812,1070.56,-828.74,1592.77
14350,-3.8699,-0.0630,-0.4476,-1960.69,-1578.49,-0.98
14360,-3.8696,-0.0323,-0.4333,-54.44,-1281.43,1452.21
14370,-3.8695,-0.0635,-0.4645,-132.57,546.75,905.40
14380,-3.8695,-0.1346,-0.5182,-116.94,562.32,155.33
14390,-3.8696,-0.2426,-0.5629,-1226.32,1687.19,-1672.91
14400,-3.8696,-0.3615,-0.5955,961.18,-31.74,1889.47
14410,-3.8696,-0.4489,-0.6165,1742.43,-203.86,-1704.35
14420,-3.8696,-0.4843,-0.6227,-1445.07,1108.46,342.53
14430,-3.8699,-0.4774,-0.6244,-1976.32,311.52,1358.15
14440,-3.8702,-0.4504,-0.6375,-1101.32,92.77,-1391.85
14450,-3.8705,-0.4189,-0.6693,-1648.19,-1579.04,45.59
14460,-3.8708,-0.3866,-0.7070,-1616.94,-1657.10,-423.22
14470,-3.8710,-0.3484,-0.7249,-1476.32,1514.83,404.85
14480,-3.8712,-0.3003,-0.7206,-585.69,-766.36,1404.79
14490,-3.8715,-0.2504,-0.7135,1570.56,-219.36,-876.46
14500,-3.8716,-0.2034,-0.7108,-38.82,686.95,-360.78
14510,-3.8716,-0.1522,-0.7030,1976.81,1030.82,-1501.40
14520,-3.8716,-0.0955,-0.6780,523.68,-1969.06,1420.47
14530,-3.8717,-0.0427,-0.6294,-210.69,1234.13,-48.22
14540,-3.8717,-0.0126,-0.5690,-1460.69,-547.00,-1751.28
14550,-3.8718,-0.0149,-0.5226,-1601.32,-812.56,-63.66
14560,-3.8718,-0.0310,-0.5072,-1898.19,1124.94,1639.59
14570,-3.8718,-0.0375,-0.5223,39.31,-906.31,92.71
14580,-3.8719,-0.0339,-0.5574,-788.82,1156.13,-719.79
14590,-3.8718,-0.0197,-0.5950,-335.69,671.75,795.78
14600,-3.8717,0.0126,-0.6102,1492.43,-140.69,1045.65
14610,-3.8716,0.0637,-0.5925,1617.43,1890.62,326.90
14620,-3.8717,0.1292,-0.5596,164.31,156.37,-376.16
14630,-3.8718,0.2019,-0.5305,539.31,375.24,-79.22
14640,-3.8719,0.2638,-0.5142,1851.81,94.12,-860.41
14650,-3.8721,0.2925,-0.5083,1773.68,-1812.01,-1579.16
14660,-3.8722,0.2953,-0.5122,1445.56,-1061.95,-547.91
14670,-3.8722,0.2954,-0.5336,1804.93,-1561.95,-1547.91
14680,-3.8722,0.3026,-0.5579,1820.56,-296.33,-1219.85
14690,-3.8722,0.3156,-0.5635,-1257.57,594.30,-1.10
14700,-3.8721,0.3206,-0.5626,398.68,-124.39,389.47
14710,-3.8722,0.3063,-0.5762,1039.31,-15.01,-454.28
14720,-3.8722,0.2830,-0.6013,-788.82,-1749.45,-798.03
14730,-3.8722,0.2679,-0.6279,226.81,-968.20,-594.97
14740,-3.8722,0.2697,-0.6486,-1695.07,-374.51,-1345.03
14750,-3.8722,0.2917,-0.6624,-1476.32,984.86,639.34
14760,-3.8723,0.3209,-0.6785,1351.81,-780.70,1420.53
14770,-3.8724,0.3336,-0.7017,1086.18,1156.86,-1282.59
14780,-3.8724,0.3192,-0.7310,-1288.82,-1811.89,-1923.28
14790,-3.8724,0.2838,-0.7559,867.43,-1561.89,-1813.96
14800,-3.8724,0.2483,-0.7709,336.18,-749.45,1529.72
14810,-3.8724,0.2365,-0.7885,-210.69,1328.55,76.60
14820,-3.8726,0.2620,-0.8182,-1726.32,-921.45,-64.09
14830,-3.8724,0.3181,-0.8607,1539.31,-733.89,-1501.65
14840,-3.8723,0.3965,-0.9081,726.81,1828.74,-1282.96
14850,-3.8722,0.5201,-0.9515,-1241.94,-233.64,-501.83
14860,-3.8721,0.6975,-0.9857,-1413.82,-1795.90,-642.52
14870,-3.8719,0.8964,-1.0020,1289.31,1829.47,1138.67
14880,-3.8719,1.0867,-0.9896,-1257.57,-248.29,1888.61
14890,-3.8719,1.2596,-0.9501,-898.19,1330.20,-517.58
14900,-3.8718,1.4347,-0.8865,1242.43,-1606.93,-611.27
14910,-3.8717,1.6091,-0.8115,-351.32,-1466.00,-220.52
14920,-3.8716,1.7363,-0.7446,1976.81,128.11,1389.04
14930,-3.8716,1.7654,-0.6622,-1741.94,690.86,357.91
14940,-3.8717,1.6853,-0.5641,1976.81,-762.21,561.16
14950,-3.8719,1.5713,-0.4785,-273.19,-199.89,-1673.03
14960,-3.8721,1.4991,-0.3971,1133.06,-1246.95,1639.65
14970,-3.8722,1.4474,-0.3125,-101.32,1174.74,-703.92
14980,-3.8722,1.3693,-0.2493,1273.68,2.81,-578.74
14990,-3.8721,1.2556,-0.2283,-726.32,96.37,-78.61
15000,-3.8718,1.1238,-0.2528,726.81,-1216.31,-734.86
15010,-3.8716,1.0115,-0.3132,-148.19,-357.24,-1172.42
15020,-3.8713,0.9377,-0.3856,1476.81,-91.80,1311.83
15030,-3.8712,0.8921,-0.4562,39.31,-1357.54,-1532.04
15040,-3.8711,0.8712,-0.5304,-1804.44,1611.08,-985.29
15050,-3.8710,0.8716,-0.6240,-476.32,111.02,-1797.91
15060,-3.8710,0.8766,-0.7301,-429.44,126.65,-688.72
15070,-3.8710,0.8768,-0.8098,211.18,-1451.42,-1329.59
15080,-3.8711,0.8612,-0.8224,242.43,345.46,-1220.34
15090,-3.8713,0.8185,-0.7672,-1757.57,-1263.98,-1423.52
15100,-3.8717,0.7627,-0.6937,773.68,1798.46,-1376.53
15110,-3.8721,0.7200,-0.6565,1633.06,-795.41,826.72
15120,-3.8724,0.7133,-0.6589,164.31,-29.85,264.28
15130,-3.8728,0.7378,-0.6759,-695.07,-342.41,-63.84
15140,-3.8728,0.7576,-0.7122,-1554.44,1485.78,311.16
15150,-3.8728,0.7524,-0.7820,976.81,845.21,717.35
15160,-3.8727,0.7100,-0.8866,320.56,-92.29,-939.09
15170,-3.8722,0.6136,-1.0140,-1116.94,-1483.03,1591.98
15180,-3.8716,0.4965,-1.1257,-1445.07,-1795.72,1872.99
15190,-3.8710,0.4193,-1.1858,-445.07,-92.83,325.87
15200,-3.8707,0.4000,-1.1843,1679.93,219.54,-1658.57
15210,-3.8707,0.4243,-1.1189,-788.82,406.98,-846.07
15220,-3.8708,0.4764,-1.0205,-1679.44,782.04,-1908.45
15230,-3.8711,0.5265,-0.9502,992.43,1375.92,1716.74
15240,-3.8715,0.5330,-0.9415,-601.32,-1624.02,-330.02
15250,-3.8716,0.4954,-0.9716,226.81,-514.59,201.23
15260,-3.8717,0.4449,-0.9896,-585.69,-358.46,1482.42
15270,-3.8717,0.4064,-0.9735,961.18,1328.98,341.80
15280,-3.8718,0.3973,-0.9388,23.68,-608.58,1935.55
15290,-3.8719,0.4215,-0.9148,-1132.57,-171.14,-1783.14
15300,-3.8721,0.4554,-0.9266,1961.18,-1092.96,1951.29
15310,-3.8722,0.4685,-0.9766,-1695.07,1391.48,1670.04
15320,-3.8723,0.4430,-1.0406,-23.19,-999.15,654.30
15330,-3.8726,0.3806,-1.0934,711.18,-1202.27,1966.67
15340,-3.8728,0.2968,-1.1202,726.81,47.61,-1080.26
15350,-3.8729,0.2122,-1.1144,1992.43,609.92,1138.43
15360,-3.8730,0.1483,-1.0951,-835.69,1359.74,404.05
15370,-3.8732,0.1047,-1.0967,-1007.57,-171.63,-1642.82
15380,-3.8730,0.0618,-1.1097,1414.31,-374.82,-1924.07
15390,-3.8728,0.0217,-1.0945,-85.69,1953.19,1216.55
15400,-3.8727,0.0011,-1.0447,-1210.69,-93.75,1810.30
15410,-3.8727,-0.0026,-0.9886,148.68,-1718.75,1513.55
15420,-3.8728,0.0033,-0.9503,-320.07,1468.69,-1611.33
15430,-3.8729,0.0128,-0.9464,429.93,-1640.62,-1330.02
15440,-3.8730,0.0107,-0.9858,1648.68,-1140.62,-455.02
15450,-3.8730,-0.0178,-1.0508,1383.06,1812.50,-1595.70
15460,-3.8729,-0.0685,-1.1027,1726.81,1515.56,419.80
15470,-3.8729,-0.1205,-1.1144,-757.57,-1125.18,-17.82
15480,-3.8728,-0.1545,-1.0925,586.18,1374.76,-1377.20
15490,-3.8727,-0.1625,-1.0663,226.81,171.57,91.61
15500,-3.8727,-0.1497,-1.0483,-788.82,-469.12,-1502.14
15510,-3.8726,-0.1271,-1.0256,851.81,1827.82,-80.20
15520,-3.8722,-0.1149,-0.9890,-257.57,734.07,76.11
15530,-3.8719,-0.1372,-0.9504,1304.93,1421.63,-1876.95
15540,-3.8716,-0.2015,-0.9178,-1554.44,-1640.93,-1361.27
15550,-3.8711,-0.3044,-0.8895,-1788.82,-1469.18,-1658.08
15560,-3.8706,-0.4373,-0.8654,1039.31,-1844.36,-986.15
15570,-3.8701,-0.5757,-0.8237,39.31,1249.15,529.54
15580,-3.8699,-0.6873,-0.7344,-1679.44,-1423.03,357.73
15590,-3.8699,-0.7513,-0.5997,39.31,-1985.72,-1454.59
15600,-3.8699,-0.7762,-0.4543,-163.82,-751.53,764.40
15610,-3.8700,-0.7832,-0.3346,648.68,1857.85,1186.58
15620,-3.8701,-0.7905,-0.2635,-241.94,1185.91,1436.83
15630,-3.8702,-0.8104,-0.2651,-1179.44,-1720.34,1936.95
15640,-3.8704,-0.8087,-0.3384,273.68,-1923.46,-234.92
15650,-3.8702,-0.7404,-0.4176,492.43,701.54,-422.55
15660,-3.8699,-0.6329,-0.4454,1242.43,-1438.96,-1485.23
15670,-3.8695,-0.5251,-0.4390,-1007.57,-1001.28,1811.58
15680,-3.8694,-0.4259,-0.4309,789.31,-172.91,-375.92
15690,-3.8694,-0.3558,-0.4308,1492.43,858.52,-438.35
15700,-3.8694,-0.3372,-0.4336,-1538.82,874.27,749.15
15710,-3.8695,-0.3726,-0.4299,851.81,514.95,-250.85
15720,-3.8694,-0.4359,-0.4242,320.56,983.64,1139.77
15730,-3.8694,-0.4866,-0.4257,211.18,1717.90,749.15
15740,-3.8695,-0.5013,-0.4304,1726.81,1530.27,1296.02
15750,-3.8696,-0.4846,-0.4368,-163.82,920.84,374.15
15760,-3.8699,-0.4574,-0.4453,1976.81,108.40,-1360.23
15770,-3.8700,-0.4369,-0.4586,1461.18,-985.29,1139.71
15780,-3.8701,-0.4226,-0.4832,86.18,1311.65,983.46
15790,-3.8702,-0.4086,-0.5170,1914.31,-1828.98,1592.77
15800,-3.8704,-0.3892,-0.5448,-288.82,1842.90,-1876.04
15810,-3.8705,-0.3625,-0.5553,-1804.44,-1719.54,-1485.47
15820,-3.8706,-0.3365,-0.5464,1601.81,936.77,-1844.85
15830,-3.8707,-0.3219,-0.5231,929.93,-1922.55,1248.90
15840,-3.8708,-0.3130,-0.5006,-1195.07,1061.83,1623.96
15850,-3.8710,-0.2960,-0.4948,-54.44,-63.17,-282.29
15860,-3.8710,-0.2775,-0.5020,-1882.57,686.89,1889.65
15870,-3.8711,-0.2673,-0.5029,492.43,-234.92,-672.91
15880,-3.8711,-0.2550,-0.4930,1789.31,-359.92,280.21
15890,-3.8712,-0.2349,-0.4878,-632.57,905.70,1295.90
15900,-3.8713,-0.2256,-0.5012,1945.56,1577.64,-469.73
15910,-3.8713,-0.2399,-0.5312,-866.94,-141.11,-313.54
15920,-3.8712,-0.2620,-0.5610,1304.93,15.14,1030.21
15930,-3.8712,-0.2694,-0.5775,-1523.19,202.58,1077.03
15940,-3.8713,-0.2617,-0.5735,1523.68,-1906.80,1217.59
15950,-3.8716,-0.2571,-0.5488,-1491.94,-1391.17,-1829.28
15960,-3.8718,-0.2686,-0.5256,-898.19,1765.08,-1157.35
15970,-3.8719,-0.2924,-0.5312,1633.06,733.83,1889.59
15980,-3.8721,-0.3094,-0.5647,-1413.82,15.01,-32.29
15990,-3.8721,-0.3040,-0.6078,398.68,-266.24,-516.78
16000,-3.8721,-0.2759,-0.6489,1101.81,-1781.86,-626.22
16010,-3.8719,-0.2378,-0.6833,695.56,952.58,389.34
16020,-3.8719,-0.2122,-0.7139,1570.56,546.39,-1157.59
16030,-3.8718,-0.2091,-0.7428,851.81,640.20,1639.22
16040,-3.8718,-0.2163,-0.7688,1242.43,937.07,-892.09
16050,-3.8718,-0.2164,-0.7985,320.56,1608.95,1732.85
16060,-3.8719,-0.1979,-0.8412,304.93,1812.07,1639.04
16070,-3.8721,-0.1528,-0.8940,-1320.07,343.32,1967.10
16080,-3.8721,-0.0762,-0.9458,445.56,1577.82,888.85
16090,-3.8721,0.0198,-0.9897,-1741.94,-1047.06,326.23
16100,-3.8722,0.1132,-1.0237,-1460.69,1312.50,1763.67
16110,-3.8723,0.1976,-1.0485,-1507.57,968.93,1044.86
16120,-3.8726,0.2797,-1.0673,1304.93,1797.24,-533.33
16130,-3.8727,0.3584,-1.0823,-195.07,-608.89,-1345.89
16140,-3.8728,0.4301,-1.0939,1883.06,1469.42,-314.64
16150,-3.8728,0.4963,-1.1066,-945.07,-14.83,-1549.07
16160,-3.8728,0.5477,-1.1271,-460.69,-1639.71,-1627.20
16170,-3.8727,0.5856,-1.1571,-1882.57,-264.59,122.74
16180,-3.8727,0.6523,-1.2061,-1038.82,-108.28,-17.94
16190,-3.8726,0.7920,-1.2720,-491.94,1626.22,-127.38
16200,-3.8724,1.0000,-1.3202,1383.06,1189.03,-1346.25
16210,-3.8723,1.2526,-1.3169,8.06,-982.42,-1893.25
16220,-3.8722,1.5110,-1.2549,336.18,-560.06,-1205.75
16230,-3.8721,1.7194,-1.1564,1414.31,-622.07,1872.50
16240,-3.8721,1.8387,-1.0453,86.18,-12.27,716.43
16250,-3.8722,1.8873,-0.9526,-632.57,-1793.33,622.92
16260,-3.8724,1.9220,-0.8960,1586.18,-1933.84,-1251.89
16270,-3.8727,1.9504,-0.8287,-1976.32,1316.22,-861.15
16280,-3.8728,1.9381,-0.7158,1664.31,1925.66,-1470.40
16290,-3.8728,1.8663,-0.5934,86.18,378.78,-704.53
16300,-3.8727,1.7157,-0.5093,-1101.32,50.48,1655.09
16310,-3.8727,1.4917,-0.4867,-382.57,-1184.20,-32.29
16320,-3.8724,1.2555,-0.4928,-1054.44,1705.99,-1875.98
16330,-3.8721,1.0615,-0.4558,711.18,924.32,-579.10
16340,-3.8716,0.9243,-0.3745,-116.94,1658.26,-125.92
16350,-3.8711,0.8116,-0.2937,-1679.44,64.27,-313.23
16360,-3.8706,0.6703,-0.2444,-101.32,-1592.22,-594.36
16370,-3.8701,0.5166,-0.2318,1804.93,720.03,749.51
16380,-3.8699,0.3914,-0.2340,-1866.94,-1670.90,827.64
16390,-3.8698,0.2904,-0.2537,-1898.19,-1952.39,1905.76
16400,-3.8695,0.2200,-0.2928,1179.93,-468.20,405.70
16410,-3.8694,0.2015,-0.3098,164.31,-1483.95,-391.24
16420,-3.8693,0.2340,-0.2765,1804.93,344.12,1515.01
16430,-3.8695,0.2926,-0.2152,1961.18,609.80,-1781.80
16440,-3.8699,0.3715,-0.1631,1461.18,453.67,30.82
16450,-3.8704,0.4921,-0.1287,-445.07,-874.33,343.38
16460,-3.8708,0.6552,-0.0980,-1007.57,-467.83,-1297.18
16470,-3.8712,0.8315,-0.0743,-132.57,-545.65,-328.37
16480,-3.8715,0.9902,-0.0593,-1554.44,-1514.04,1984.19
16490,-3.8717,1.1111,-0.0442,-1241.94,408.14,906.13
16500,-3.8721,1.1884,-0.0416,-1773.19,-1654.11,-187.62
16510,-3.8723,1.2209,-0.0638,117.43,-1325.81,1734.25
16520,-3.8727,1.2100,-0.0931,289.31,-169.49,-656.43
16530,-3.8729,1.1674,-0.1144,-1116.94,80.44,-1781.43
16540,-3.8730,1.1128,-0.1313,1429.93,1361.63,281.01
16550,-3.8732,1.0625,-0.1487,-1554.44,-810.36,-1109.68
16560,-3.8730,1.0256,-0.1627,8.06,970.83,624.69
16570,-3.8730,0.9952,-0.1675,-710.69,-826.17,-1531.62
16580,-3.8730,0.9572,-0.1545,-601.32,-1435.61,-1234.74
16590,-3.8730,0.9017,-0.1174,-1476.32,220.58,1030.94
16600,-3.8732,0.8206,-0.0701,-570.07,970.46,312.26
16610,-3.8734,0.7090,-0.0408,1039.31,-967.16,1374.82
16620,-3.8735,0.5836,-0.0420,-1241.94,-1217.41,359.25
16630,-3.8735,0.4757,-0.0612,-1288.82,-1373.90,781.13
16640,-3.8734,0.3958,-0.0798,898.68,172.79,-1234.50
16650,-3.8732,0.3385,-0.0870,-1335.69,1781.98,-15.81
16660,-3.8728,0.2953,-0.0770,-663.82,859.99,1093.57
16670,-3.8726,0.2612,-0.0541,1804.93,-1858.83,265.44
16680,-3.8724,0.2480,-0.0297,1445.56,1078.61,718.63
16690,-3.8724,0.2644,-0.0151,-241.94,203.55,-1968.81
16700,-3.8724,0.2958,-0.0203,1851.81,-1937.01,1734.31
16710,-3.8724,0.3208,-0.0485,1867.43,1406.80,-1656.31
16720,-3.8723,0.3279,-0.0940,1070.56,1797.49,1312.38
16730,-3.8722,0.3126,-0.1525,1976.81,-30.64,-1937.74
16740,-3.8721,0.2776,-0.2148,23.68,484.99,-1156.56
16750,-3.8719,0.2299,-0.2659,-460.69,500.49,-1609.80
16760,-3.8719,0.1775,-0.2961,1429.93,1969.18,-484.92
16770,-3.8719,0.1295,-0.3059,-1273.19,-1905.94,1936.89
16780,-3.8721,0.0940,-0.3035,586.18,843.99,-906.86
16790,-3.8721,0.0818,-0.3059,39.31,1156.43,608.76
16800,-3.8722,0.0919,-0.3335,-1523.19,843.87,-953.74
16810,-3.8722,0.0988,-0.3916,-226.32,1312.62,-1203.80
16820,-3.8721,0.0806,-0.4637,648.68,1875.18,436.71
16830,-3.8721,0.0421,-0.5293,-1679.44,640.75,-625.92
16840,-3.8719,0.0018,-0.5768,1398.68,250.06,1170.84
16850,-3.8719,-0.0284,-0.6051,242.43,-1828.12,186.34
16860,-3.8721,-0.0453,-0.6230,367.43,-1437.56,1280.03
16870,-3.8722,-0.0519,-0.6392,-1788.82,265.50,1280.03
16880,-3.8724,-0.0487,-0.6652,1367.43,-1797.00,-32.53
16890,-3.8726,-0.0430,-0.7158,1773.68,-1125.12,-1766.97
16900,-3.8727,-0.0476,-0.7875,-1491.94,390.50,-563.90
16910,-3.8726,-0.0619,-0.8539,1914.31,-781.37,-1720.34
16920,-3.8723,-0.0818,-0.8879,86.18,-1281.37,1092.04
16930,-3.8721,-0.1080,-0.8799,1539.31,-1640.81,607.60
16940,-3.8719,-0.1392,-0.8428,-1820.07,-609.62,-204.90
16950,-3.8717,-0.1687,-0.8086,-1804.44,140.32,-376.65
16960,-3.8713,-0.1914,-0.7977,-1585.69,515.26,1529.66
16970,-3.8710,-0.2174,-0.7977,-491.94,1905.82,1592.16
16980,-3.8706,-0.2590,-0.7889,179.93,1905.82,1764.04
16990,-3.8704,-0.3130,-0.7590,-1148.19,-969.30,-860.96
17000,-3.8702,-0.3778,-0.7009,-54.44,-1141.30,-267.15
17010,-3.8702,-0.4546,-0.6199,-351.32,-1703.92,-438.90
17020,-3.8702,-0.5354,-0.5304,1820.56,670.96,686.28
17030,-3.8704,-0.5999,-0.4490,-523.19,123.90,1623.96
17040,-3.8705,-0.6421,-0.3909,-773.19,-1454.35,-969.67
17050,-3.8705,-0.6776,-0.3752,1820.56,1983.09,124.21
17060,-3.8706,-0.6769,-0.3912,1273.68,-16.97,-1328.92
17070,-3.8705,-0.6219,-0.4042,1367.43,1936.16,1827.33
17080,-3.8702,-0.5627,-0.4094,398.68,280.03,483.58
17090,-3.8701,-0.5243,-0.4230,-23.19,-391.78,-1328.98
17100,-3.8700,-0.5029,-0.4441,898.68,1873.96,1780.40
17110,-3.8700,-0.5063,-0.4595,-366.94,-829.16,1045.96
17120,-3.8701,-0.5356,-0.4667,-804.44,1202.09,452.21
17130,-3.8704,-0.5702,-0.4694,-554.44,280.15,874.08
17140,-3.8706,-0.5819,-0.4730,-976.32,-63.66,842.77
17150,-3.8708,-0.5579,-0.4755,1523.68,-532.41,-1266.60
17160,-3.8710,-0.5039,-0.4598,601.81,-844.85,-1469.73
17170,-3.8711,-0.4412,-0.4248,-491.94,1155.21,-110.29
17180,-3.8710,-0.3977,-0.4005,-460.69,1639.71,280.40
17190,-3.8710,-0.3854,-0.4137,1101.81,749.21,-47.67
17200,-3.8707,-0.3903,-0.4504,-1320.07,-938.29,1514.77
17210,-3.8706,-0.3907,-0.4740,-1945.07,-1641.42,-391.54
17220,-3.8704,-0.3766,-0.4652,1992.43,-657.04,1577.15
17230,-3.8702,-0.3461,-0.4384,-195.07,467.96,-1766.54
17240,-3.8701,-0.3021,-0.4165,-288.82,-94.48,124.08
17250,-3.8702,-0.2568,-0.4055,1336.18,-1297.49,-407.10
17260,-3.8702,-0.2228,-0.3911,-866.94,108.83,-1828.92
17270,-3.8702,-0.2015,-0.3607,-507.57,1952.64,874.21
17280,-3.8704,-0.1882,-0.3295,-1788.82,1843.32,-703.86
17290,-3.8704,-0.1732,-0.3091,-85.69,1843.32,1093.08
17300,-3.8705,-0.1527,-0.2970,1836.18,452.76,-734.99
17310,-3.8705,-0.1315,-0.2938,461.18,1999.69,-1484.99
17320,-3.8705,-0.1217,-0.2994,-820.07,-1594.06,-1531.86
17330,-3.8705,-0.1339,-0.3008,429.93,1687.26,-1063.11
17340,-3.8705,-0.1625,-0.2858,-1132.57,1515.32,-281.86
17350,-3.8705,-0.2013,-0.2697,-788.82,-562.87,-641.24
17360,-3.8705,-0.2446,-0.2688,-1757.57,1499.57,1015.08
17370,-3.8706,-0.2781,-0.2742,695.56,1608.89,905.70
17380,-3.8708,-0.2979,-0.2765,414.31,921.33,-453.67
17390,-3.8710,-0.3086,-0.2786,1883.06,624.39,-1656.80
17400,-3.8711,-0.3199,-0.2853,508.06,358.76,1983.83
17410,-3.8712,-0.3368,-0.2937,-945.07,-500.67,-1484.99
17420,-3.8712,-0.3480,-0.3076,898.68,-1578.80,108.76
17430,-3.8713,-0.3522,-0.3472,-538.82,639.89,-1500.61
17440,-3.8713,-0.3636,-0.4142,-1070.07,-422.61,1108.64
17450,-3.8715,-0.3752,-0.4807,1461.18,-1000.73,-532.10
17460,-3.8715,-0.3643,-0.5265,-23.19,-1516.42,77.15
17470,-3.8717,-0.3315,-0.5536,1383.06,624.27,1717.71
17480,-3.8719,-0.2979,-0.5684,1570.56,1155.58,952.03
17490,-3.8723,-0.2743,-0.5806,1883.06,-734.99,-313.66
17500,-3.8724,-0.2557,-0.6079,898.68,1702.58,108.22
17510,-3.8727,-0.2393,-0.6599,-726.32,-1797.42,-782.47
17520,-3.8727,-0.2030,-0.7172,1383.06,-453.61,1342.41
17530,-3.8727,-0.1205,-0.7573,-1976.32,218.32,670.47
17540,-3.8728,-0.0131,-0.7761,586.18,-922.12,1873.47
17550,-3.8729,0.0686,-0.7848,-1663.82,671.81,904.72
17560,-3.8730,0.1105,-0.7936,789.31,-453.00,717.16
17570,-3.8732,0.1320,-0.8088,-1851.32,-1577.94,-970.34
17580,-3.8730,0.1476,-0.8390,898.68,468.99,467.16
17590,-3.8729,0.1763,-0.8815,-1101.32,609.62,1638.98
17600,-3.8727,0.2351,-0.9254,-1429.44,-827.82,873.23
17610,-3.8726,0.3206,-0.9692,-1898.19,1547.30,-720.58
17620,-3.8723,0.4187,-1.0128,1039.31,-61.89,201.17
17630,-3.8722,0.5153,-1.0461,1601.81,-1639.83,654.24
17640,-3.8721,0.6113,-1.0582,1961.18,-1905.27,497.92
17650,-3.8721,0.7239,-1.0490,-1741.94,548.03,-1611.45
17660,-3.8721,0.8510,-1.0249,664.31,1735.78,-1877.08
17670,-3.8721,0.9785,-0.9819,929.93,814.15,-1798.89
17680,-3.8721,1.0924,-0.9215,1258.06,-1685.61,-80.08
17690,-3.8719,1.1614,-0.8511,-163.82,-1951.05,-1923.71
17700,-3.8718,1.1683,-0.7699,664.31,-935.24,857.67
17710,-3.8717,1.1283,-0.6967,1554.93,1455.38,1467.22
17720,-3.8715,1.0743,-0.6490,429.93,-1169.68,732.97
17730,-3.8712,1.0428,-0.6021,1523.68,923.95,-485.66
17740,-3.8707,0.9979,-0.5768,1492.43,-1060.49,1139.40
17750,-3.8704,0.9257,-0.6010,-257.57,-1826.23,-969.91
17760,-3.8700,0.8665,-0.6313,-1507.57,-920.10,-1360.60
17770,-3.8698,0.7576,-0.6372,-1085.69,-810.85,795.59
17780,-3.8698,0.5543,-0.6205,976.81,-1561.04,342.47
17790,-3.8699,0.3369,-0.6062,-1038.82,579.16,1717.53
17800,-3.8698,0.1663,-0.6077,-866.94,-1593.14,295.65
17810,-3.8695,0.0332,-0.6083,1289.31,-1780.94,1045.65
17820,-3.8693,-0.0436,-0.5979,258.06,-1859.31,1498.78
17830,-3.8691,-0.0327,-0.5994,-1570.07,-515.75,1311.28
17840,-3.8691,0.0341,-0.6241,-179.44,-703.25,342.53
17850,-3.8693,0.1068,-0.6469,367.43,109.44,1092.53
17860,-3.8694,0.1527,-0.6572,1679.93,1203.31,-1579.41
17870,-3.8694,0.1615,-0.6628,-445.07,-124.76,561.16
17880,-3.8695,0.1593,-0.6628,679.93,-843.44,1561.16
17890,-3.8698,0.1727,-0.6522,398.68,-843.44,-704.47
17900,-3.8700,0.2013,-0.6351,-1882.57,515.93,1014.34
17910,-3.8705,0.2340,-0.6124,1773.68,-1296.51,-1.28
17920,-3.8708,0.2673,-0.5746,1961.18,1609.80,-1469.97
17930,-3.8712,0.3126,-0.5331,-1773.19,-1546.39,-1485.53
17940,-3.8715,0.3713,-0.5118,23.68,-233.76,1452.03
17950,-3.8717,0.4187,-0.5132,-460.69,-1514.95,-641.66
17960,-3.8717,0.4312,-0.5295,1601.81,-1686.71,920.84
17970,-3.8716,0.3953,-0.5599,-804.44,219.54,123.96
17980,-3.8713,0.3079,-0.6039,-1398.19,328.86,217.65
17990,-3.8711,0.1993,-0.6548,-585.69,-1296.33,1905.03
18000,-3.8708,0.1145,-0.6973,1523.68,187.87,-1970.03
18010,-3.8707,0.0775,-0.7064,-1335.69,-1249.82,-1282.65
18020,-3.8707,0.1050,-0.6687,1929.93,1578.25,-1907.65
18030,-3.8710,0.1808,-0.6143,1445.56,-1593.57,-985.72
18040,-3.8712,0.2559,-0.5801,-851.32,1375.31,201.90
18050,-3.8716,0.2971,-0.5481,758.06,1750.49,-688.66
18060,-3.8717,0.3259,-0.5035,-1960.69,1844.30,-641.72
18070,-3.8717,0.3687,-0.4923,1726.81,-452.51,280.21
18080,-3.8719,0.4064,-0.5254,-804.44,985.05,-188.48
18090,-3.8719,0.4258,-0.5669,23.68,750.79,1139.59
18100,-3.8719,0.4354,-0.6091,-1491.94,-561.71,-907.41
18110,-3.8717,0.4337,-0.6511,-257.57,-1967.96,1108.15
18120,-3.8716,0.4121,-0.6783,-476.32,657.04,-673.16
18130,-3.8715,0.3831,-0.6732,758.06,1172.67,-954.47
18140,-3.8715,0.3566,-0.6313,1039.31,1828.86,-1157.59
18150,-3.8716,0.3324,-0.5743,1648.68,-811.83,-1516.91
18160,-3.8718,0.3091,-0.5244,-1445.07,-1515.01,-501.16
18170,-3.8721,0.2850,-0.4850,-429.44,875.55,-688.54
18180,-3.8723,0.2631,-0.4495,492.43,1922.42,-735.35
18190,-3.8724,0.2432,-0.4193,1679.93,-1530.76,702.21
18200,-3.8726,0.2153,-0.4070,-866.94,-1671.45,530.40
18210,-3.8727,0.1713,-0.4252,-429.44,-93.38,-16.48
18220,-3.8726,0.1224,-0.4746,1929.93,1578.43,-32.10
18230,-3.8723,0.0854,-0.5242,-320.07,-749.82,-1485.35
18240,-3.8722,0.0696,-0.5375,-1054.44,906.37,-501.04
18250,-3.8721,0.0756,-0.5192,914.31,-796.75,483.28
18260,-3.8722,0.0935,-0.5029,1679.93,1547.00,-1891.66
18270,-3.8723,0.1119,-0.5079,-23.19,-374.88,-1891.66
18280,-3.8724,0.1190,-0.5280,-1663.82,-1015.44,1186.46
18290,-3.8727,0.1083,-0.5553,-757.57,422.06,-641.66
18300,-3.8728,0.0841,-0.5947,1867.43,922.06,967.65
18310,-3.8729,0.0554,-0.6464,-1226.32,-124.88,608.15
18320,-3.8729,0.0216,-0.6929,-898.19,1265.69,92.47
18330,-3.8729,-0.0199,-0.7244,-1226.32,-687.50,-1860.78
18340,-3.8728,-0.0558,-0.7601,1461.18,-703.19,1357.91
18350,-3.8727,-0.0721,-0.8290,867.43,-1281.37,-892.15
18360,-3.8723,-0.0723,-0.9326,-1226.32,1906.07,1998.35
18370,-3.8718,-0.0671,-1.0345,-1241.94,640.44,1091.92
18380,-3.8713,-0.0653,-1.1003,-585.69,-406.43,544.80
18390,-3.8710,-0.0651,-1.1184,-351.32,-828.31,-814.70
18400,-3.8705,-0.0615,-1.0986,-320.07,859.19,-64.70
18410,-3.8699,-0.0693,-1.0646,133.06,-609.50,-1127.20
18420,-3.8694,-0.1199,-1.0211,-866.94,-250.18,-908.39
18430,-3.8690,-0.2351,-0.9581,664.31,1312.26,747.99
18440,-3.8689,-0.4027,-0.8629,1914.31,1374.51,466.86
18450,-3.8690,-0.5763,-0.7173,461.18,1561.71,-48.58
18460,-3.8691,-0.7115,-0.5189,-1757.57,201.97,-1470.15
18470,-3.8694,-0.7898,-0.3132,929.93,1592.35,702.09
18480,-3.8698,-0.7999,-0.1682,-1085.69,-79.71,1499.33
18490,-3.8701,-0.7396,-0.1171,1617.43,-1517.21,-750.37
18500,-3.8702,-0.6316,-0.1346,1336.18,1029.79,765.38
18510,-3.8702,-0.5107,-0.1713,-835.69,-1220.03,124.69
18520,-3.8702,-0.4159,-0.2037,-1366.94,-1907.29,-94.12
18530,-3.8700,-0.3550,-0.2334,-1226.32,1936.65,1577.70
18540,-3.8699,-0.2947,-0.2607,-1429.44,-1860.11,-1781.74
18550,-3.8698,-0.2200,-0.2787,-1710.69,-1359.99,327.58
18560,-3.8698,-0.1562,-0.2831,-148.19,343.26,890.08
18570,-3.8698,-0.1243,-0.2858,8.06,-219.06,843.14
18580,-3.8698,-0.1172,-0.2889,101.81,-562.74,93.14
18590,-3.8699,-0.1273,-0.2809,1008.06,-968.99,1983.76
18600,-3.8700,-0.1631,-0.2621,-288.82,62.19,1827.58
18610,-3.8702,-0.2264,-0.2487,-866.94,-1531.62,-16.17
18620,-3.8704,-0.2938,-0.2555,-976.32,187.01,-1969.24
18630,-3.8705,-0.3412,-0.2762,-1601.32,-688.11,1843.20
18640,-3.8705,-0.3617,-0.2979,336.18,655.58,608.83
18650,-3.8705,-0.3608,-0.3214,1711.18,1889.89,952.51
18660,-3.8705,-0.3492,-0.3472,1820.56,-1125.73,14.95
18670,-3.8706,-0.3356,-0.3688,-695.07,-422.61,1514.89
18680,-3.8707,-0.3279,-0.3868,1054.93,811.83,-953.86
18690,-3.8707,-0.3339,-0.4030,-1960.69,-1500.67,702.33
18700,-3.8708,-0.3474,-0.4119,1273.68,436.83,1874.21
18710,-3.8710,-0.3558,-0.4077,-460.69,-703.86,-250.85
18720,-3.8710,-0.3536,-0.3933,-1538.82,-172.61,-63.35
18730,-3.8708,-0.3436,-0.3835,-1257.57,1671.14,1639.83
18740,-3.8708,-0.3318,-0.3866,23.68,-1078.80,-1875.79
18750,-3.8710,-0.3236,-0.3910,1539.31,-1469.42,-407.04
18760,-3.8711,-0.3276,-0.3798,-1413.82,1968.08,-1594.54
18770,-3.8712,-0.3406,-0.3445,-1929.44,-594.42,749.21
18780,-3.8713,-0.3516,-0.2993,414.31,-78.80,1624.27
18790,-3.8713,-0.3579,-0.2699,-991.94,1702.39,1952.51
18800,-3.8713,-0.3539,-0.2574,-1804.44,1468.02,-0.55
18810,-3.8712,-0.3351,-0.2424,-1288.82,-938.23,1780.70
18820,-3.8712,-0.3087,-0.2164,1117.43,983.70,1780.76
18830,-3.8713,-0.2872,-0.1880,492.43,311.89,-266.05
18840,-3.8713,-0.2726,-0.1686,-757.57,-47.49,983.95
18850,-3.8715,-0.2645,-0.1670,1117.43,-1563.05,-844.12
18860,-3.8715,-0.2697,-0.1886,-1851.32,-1359.92,-1453.49
18870,-3.8715,-0.2771,-0.2339,1492.43,-125.55,-1344.18
18880,-3.8715,-0.2734,-0.3013,539.31,-1922.42,-1578.61
18890,-3.8715,-0.2535,-0.3767,1008.06,1452.58,1546.26
18900,-3.8715,-0.2086,-0.4313,-445.07,-203.67,217.96
18910,-3.8716,-0.1511,-0.4519,1304.93,812.07,889.77
18920,-3.8718,-0.0961,-0.4503,664.31,-1828.43,-235.29
18930,-3.8719,-0.0411,-0.4447,-288.82,-1625.24,-1313.42
18940,-3.8721,0.0123,-0.4501,-1257.57,-906.37,-1954.04
18950,-3.8722,0.0568,-0.4762,1586.18,-1609.38,-1704.04
18960,-3.8722,0.0936,-0.5189,-726.32,-953.06,702.15
18970,-3.8722,0.1311,-0.5555,-7.57,1578.25,452.09
18980,-3.8723,0.1649,-0.5752,789.31,890.87,1889.53
18990,-3.8726,0.1836,-0.5826,1117.43,-1624.69,-344.91
19000,-3.8727,0.1917,-0.5876,-491.94,1422.18,326.97
19010,-3.8729,0.1936,-0.6007,539.31,781.62,-1829.28
19020,-3.8730,0.1853,-0.6169,789.31,-890.26,-891.85
19030,-3.8729,0.1775,-0.6340,-273.19,1031.56,1264.40
19040,-3.8728,0.1713,-0.6724,-1273.19,-1155.94,-845.03
19050,-3.8726,0.1625,-0.7407,1929.93,1937.81,-1298.22
19060,-3.8723,0.1526,-0.8237,804.93,1187.81,-1001.46
19070,-3.8721,0.1327,-0.8898,-460.69,-1437.26,-1923.52
19080,-3.8719,0.1194,-0.9185,992.43,-1890.38,-408.02
19090,-3.8718,0.1335,-0.9247,-710.69,-1562.32,-1048.71
19100,-3.8718,0.1722,-0.9229,1101.81,1640.87,-751.83
19110,-3.8718,0.2335,-0.9193,-1945.07,1875.31,-1814.33
19120,-3.8718,0.3052,-0.9269,1898.68,-1671.45,-1923.71
19130,-3.8717,0.3666,-0.9403,-929.44,1359.92,216.92
19140,-3.8716,0.4130,-0.9465,-1070.07,-358.70,248.11
19150,-3.8715,0.4501,-0.9463,867.43,-1155.46,919.98
19160,-3.8713,0.4918,-0.9420,1617.43,-1124.15,-1376.89
19170,-3.8711,0.5527,-0.9436,-1038.82,-577.21,1623.11
19180,-3.8708,0.6313,-0.9573,-1241.94,-780.21,1029.36
19190,-3.8706,0.7297,-0.9426,820.56,1469.97,638.73
19200,-3.8705,0.8329,-0.8857,1414.31,-654.85,-1814.39
19210,-3.8705,0.9117,-0.8026,-1382.57,-1373.41,-986.15
19220,-3.8706,0.9692,-0.7097,711.18,1267.40,-720.34
19230,-3.8707,1.0221,-0.6295,70.56,1158.14,1107.97
19240,-3.8708,1.0757,-0.5831,-1163.82,-576.17,170.59
19250,-3.8710,1.1321,-0.5601,1695.56,1361.45,-579.28
19260,-3.8708,1.1467,-0.5338,914.31,314.70,-1610.47
19270,-3.8707,1.0750,-0.5188,-1210.69,-325.93,-719.85
19280,-3.8706,0.9952,-0.5109,1601.81,1595.83,-1766.66
19290,-3.8706,0.9496,-0.4906,-601.32,-1388.73,-1407.29
19300,-3.8706,0.8750,-0.4630,1554.93,1204.96,-454.10
19310,-3.8706,0.7852,-0.4529,8.06,736.08,-141.54
19320,-3.8706,0.7095,-0.4569,508.06,-1967.22,1842.83
19330,-3.8707,0.6292,-0.4633,-1179.44,1516.97,-1594.67
19340,-3.8708,0.5438,-0.4714,539.31,704.35,-1313.42
19350,-3.8708,0.4607,-0.4899,1617.43,-342.71,30.27
19360,-3.8710,0.3912,-0.5227,-1023.19,1297.73,-610.35
19370,-3.8710,0.3589,-0.5579,-1913.82,1094.48,-563.54
19380,-3.8710,0.3763,-0.5729,1945.56,594.42,1998.90
19390,-3.8711,0.4249,-0.5574,179.93,-1327.39,1576.97
19400,-3.8713,0.4722,-0.5248,-1601.32,657.04,-1891.72
19410,-3.8716,0.4944,-0.4915,445.56,829.04,733.34
19420,-3.8719,0.4872,-0.4688,-710.69,1094.67,-907.23
19430,-3.8722,0.4661,-0.4575,-1632.57,0.92,-1469.67
19440,-3.8724,0.4396,-0.4561,-335.69,1438.35,-407.17
19450,-3.8726,0.4087,-0.4617,273.68,1625.85,-672.79
19460,-3.8726,0.3777,-0.4674,320.56,907.04,1889.71
19470,-3.8726,0.3452,-0.4767,351.81,172.61,1749.08
19480,-3.8726,0.3118,-0.4810,195.56,-1014.95,-1969.73
19490,-3.8726,0.2996,-0.4695,-85.69,-1561.95,-1282.23
19500,-3.8726,0.3031,-0.4706,-1648.19,-93.20,-1360.35
19510,-3.8726,0.2762,-0.5061,-1195.07,-233.83,-844.73
19520,-3.8723,0.2444,-0.5332,-632.57,-780.76,373.96
19530,-3.8721,0.2448,-0.5461,-710.69,-249.57,936.40
19540,-3.8718,0.2675,-0.5822,-663.82,-1905.82,373.90
19550,-3.8717,0.3048,-0.6141,-1757.57,1484.86,748.84
19560,-3.8717,0.3359,-0.6184,-976.32,1391.17,1998.78
19570,-3.8717,0.3378,-0.6360,-991.94,844.36,-1579.35
19580,-3.8716,0.3029,-0.6927,-757.57,-1405.64,-1298.16
19590,-3.8712,0.2664,-0.7601,-1226.32,-671.33,61.10
19600,-3.8710,0.2527,-0.7883,-1898.19,-1296.39,-1517.15
19610,-3.8707,0.2468,-0.7562,351.81,-905.76,-564.09
19620,-3.8705,0.2499,-0.7134,-398.19,-796.45,623.47
19630,-3.8705,0.2656,-0.6957,-7.57,687.93,217.35
19640,-3.8707,0.2786,-0.6844,-1991.94,-1046.39,-204.53
19650,-3.8708,0.2799,-0.6759,-335.69,391.11,-1891.97
19660,-3.8710,0.2811,-0.6814,-163.82,1484.86,-1923.22
19670,-3.8710,0.2866,-0.6924,-7.57,781.74,842.41
19680,-3.8710,0.2853,-0.7036,695.56,-624.45,404.85
19690,-3.8711,0.2637,-0.7173,523.68,1938.05,-1313.90
19700,-3.8711,0.2135,-0.7286,1758.06,187.99,45.47
19710,-3.8712,0.1553,-0.7294,-663.82,-1265.26,545.41
19720,-3.8715,0.1158,-0.7134,-116.94,-1359.13,-470.21
19730,-3.8716,0.0997,-0.6908,-1163.82,687.68,795.47
19740,-3.8718,0.0990,-0.6720,773.68,-421.69,1154.85
19750,-3.8721,0.0969,-0.6583,679.93,1984.56,1826.78
19760,-3.8722,0.0735,-0.6545,414.31,-265.44,264.28
19770,-3.8723,0.0283,-0.6595,1414.31,218.87,-1860.66
19780,-3.8723,-0.0099,-0.6616,-366.94,-421.88,-1938.84
19790,-3.8723,-0.0276,-0.6512,-1257.57,-671.94,951.78
19800,-3.8724,-0.0483,-0.6426,476.81,656.19,1967.47
19810,-3.8726,-0.0706,-0.6411,1820.56,1765.50,1608.09
19820,-3.8727,-0.0763,-0.6326,-1023.19,1952.94,1014.34
19830,-3.8728,-0.0844,-0.6312,-1757.57,-953.31,1811.22
19840,-3.8728,-0.1075,-0.6542,1211.18,-781.43,1561.22
19850,-3.8727,-0.1425,-0.6969,-1757.57,281.01,951.84
19860,-3.8726,-0.1798,-0.7446,1773.68,-1187.81,-392.03
19870,-3.8722,-0.1974,-0.7865,992.43,702.76,1248.54
19880,-3.8718,-0.1841,-0.8250,-1257.57,-656.68,1826.54
19890,-3.8713,-0.1583,-0.8577,445.56,-1578.49,263.98
19900,-3.8710,-0.1427,-0.8685,-257.57,-1765.99,-1579.83
19910,-3.8706,-0.1547,-0.8534,1742.43,843.44,1138.92
19920,-3.8705,-0.2085,-0.8265,211.18,-1219.06,-1611.08
19930,-3.8705,-0.2974,-0.7828,1320.56,-1781.68,-704.77
19940,-3.8705,-0.4034,-0.7073,1945.56,-188.11,1670.29
19950,-3.8706,-0.5071,-0.6125,367.43,1483.58,-423.28
19960,-3.8706,-0.5962,-0.5212,-898.19,1608.34,-1579.35
19970,-3.8706,-0.6704,-0.4386,-304.44,1295.65,1608.34
19980,-3.8706,-0.7313,-0.3552,-1804.44,-126.34,1436.58
19990,-3.8706,-0.7814,-0.2823,-1601.32,-1454.59,-735.11
20000,-3.8705,-0.8069,-0.2452,-7.57,-126.59,-328.74
20010,-3.8702,-0.7952,-0.2502,726.81,623.41,1483.89
20020,-3.8701,-0.7402,-0.2832,-1773.19,-17.21,1311.95
20030,-3.8701,-0.6377,-0.3030,1258.06,-235.84,-1625.61
20040,-3.8701,-0.5159,-0.2928,-1616.94,1233.09,-1547.49
20050,-3.8701,-0.4100,-0.2828,1976.81,-1469.79,-1172.49
20060,-3.8700,-0.3247,-0.2887,-476.32,-188.35,405.64
20070,-3.8700,-0.2449,-0.3047,-1554.44,-938.17,-781.86
20080,-3.8699,-0.1669,-0.3273,664.31,1015.14,1952.51
20090,-3.8699,-0.1074,-0.3455,-1351.32,-1875.37,-844.42
20100,-3.8699,-0.0713,-0.3499,-1741.94,-203.37,-1063.23
20110,-3.8699,-0.0592,-0.3457,-1116.94,-765.81,1546.14
20120,-3.8700,-0.0829,-0.3331,429.93,-234.50,-656.98
20130,-3.8700,-0.1282,-0.3153,1398.68,1374.82,905.58
20140,-3.8701,-0.1687,-0.3085,-398.19,-344.06,-1672.55
20150,-3.8702,-0.1995,-0.3186,-1585.69,530.88,-406.86
20160,-3.8702,-0.2185,-0.3363,-1523.19,-766.05,1249.33
20170,-3.8704,-0.2266,-0.3485,39.31,968.32,-953.80
20180,-3.8704,-0.2325,-0.3495,-991.94,-594.24,61.77
20190,-3.8705,-0.2410,-0.3425,-1757.57,-719.24,171.14
20200,-3.8707,-0.2521,-0.3314,1164.31,171.39,-235.05
20210,-3.8708,-0.2660,-0.3225,-257.57,1593.20,-469.42
20220,-3.8708,-0.2867,-0.3241,1961.18,-1266.17,327.45
20230,-3.8710,-0.3177,-0.3419,-695.07,-1469.36,-1156.92
20240,-3.8710,-0.3506,-0.3717,-663.82,249.33,-750.67
20250,-3.8708,-0.3741,-0.4001,-866.94,436.77,811.77
20260,-3.8708,-0.3888,-0.4192,117.43,796.14,-1860.17
20270,-3.8708,-0.3948,-0.4272,-1757.57,-1641.42,-1750.85
20280,-3.8708,-0.3967,-0.4305,1476.81,1327.33,1139.77
20290,-3.8710,-0.3971,-0.4268,1226.81,905.46,-469.60
20300,-3.8710,-0.3933,-0.4053,1179.93,1389.83,1092.90
20310,-3.8711,-0.3846,-0.3728,1664.31,139.83,1092.96
20320,-3.8712,-0.3685,-0.3445,-1226.32,296.08,124.27
20330,-3.8715,-0.3481,-0.3367,836.18,-78.86,-766.36
20340,-3.8716,-0.3274,-0.3564,-554.44,921.14,-719.42
20350,-3.8716,-0.3059,-0.3894,-1898.19,-1610.05,1327.39
20360,-3.8716,-0.2832,-0.4114,851.81,-1828.74,1421.08
20370,-3.8716,-0.2649,-0.4111,-241.94,-641.24,-1516.48
20380,-3.8716,-0.2587,-0.3992,-1898.19,-609.92,-94.60
20390,-3.8715,-0.2610,-0.3892,-1101.32,921.33,1842.96
20400,-3.8715,-0.2603,-0.3898,-1398.19,-1797.42,-141.42
20410,-3.8713,-0.2493,-0.4094,-1304.44,-1875.55,1061.71
20420,-3.8713,-0.2312,-0.4441,101.81,-391.11,1358.52
20430,-3.8713,-0.2087,-0.4758,-1585.69,-828.61,905.33
20440,-3.8715,-0.1788,-0.4913,1289.31,-891.05,-766.60
20450,-3.8716,-0.1444,-0.4897,1117.43,1124.63,-329.10
20460,-3.8717,-0.1217,-0.4799,1523.68,1327.82,-1157.23
20470,-3.8718,-0.1298,-0.4794,429.93,-1406.49,-1094.73
20480,-3.8718,-0.1602,-0.5054,-601.32,-1344.06,-1844.73
20490,-3.8717,-0.1827,-0.5533,-491.94,-672.24,905.21
20500,-3.8716,-0.1724,-0.5978,617.43,1187.13,623.90
20510,-3.8716,-0.1315,-0.6184,1945.56,-500.37,1951.90
20520,-3.8717,-0.0848,-0.6173,-820.07,859.07,-407.47
20530,-3.8718,-0.0449,-0.6052,1148.68,999.82,-1360.60
20540,-3.8721,-0.0178,-0.5925,-1741.94,-1453.25,-376.22
20550,-3.8723,-0.0129,-0.5790,1726.81,171.81,-1344.91
20560,-3.8726,-0.0270,-0.5555,-1648.19,1906.19,1389.47
20570,-3.8728,-0.0454,-0.5402,554.93,906.19,1686.40
20580,-3.8729,-0.0458,-0.5585,-1804.44,-1125.12,1280.15
20590,-3.8729,-0.0134,-0.6035,-1851.32,531.13,1358.28
20600,-3.8728,0.0441,-0.6525,-1710.69,-1234.44,530.03
20610,-3.8728,0.1095,-0.6875,1648.68,484.44,-735.66
20620,-3.8728,0.1638,-0.6965,-1976.32,0.18,-985.72
20630,-3.8728,0.1925,-0.6731,976.81,-1155.94,342.35
20640,-3.8729,0.1851,-0.6323,648.68,1844.12,873.66
20650,-3.8730,0.1461,-0.6027,-304.44,-937.19,-1516.91
20660,-3.8729,0.1227,-0.6064,-1288.82,-1140.38,405.03
20670,-3.8727,0.1649,-0.6564,-288.82,-1624.82,1311.28
20680,-3.8722,0.2816,-0.7382,1117.43,-15.32,1592.41
20690,-3.8716,0.4478,-0.8143,54.93,1516.17,1576.66
20700,-3.8711,0.6228,-0.8528,1320.56,-233.52,-486.02
20710,-3.8707,0.7653,-0.8441,-273.19,-1155.09,-173.58
20720,-3.8705,0.8384,-0.7969,1961.18,-45.41,748.29
20730,-3.8706,0.8461,-0.7191,-679.44,-1998.41,-407.84
20740,-3.8706,0.8433,-0.6237,304.93,-45.23,1186.04
20750,-3.8706,0.8683,-0.5480,-54.44,173.46,1686.28
20760,-3.8704,0.8939,-0.5205,-851.32,1861.02,202.03
20770,-3.8701,0.8845,-0.5414,-1570.07,1376.71,-797.91
20780,-3.8698,0.8542,-0.5616,1226.81,-1295.17,-1329.22
20790,-3.8695,0.7922,-0.5599,1351.81,111.02,-501.10
20800,-3.8694,0.6602,-0.5574,1414.31,329.65,-829.22
20810,-3.8694,0.4786,-0.5513,508.06,657.53,-672.97
20820,-3.8694,0.2997,-0.5475,1273.68,1438.42,-485.47
20830,-3.8693,0.1573,-0.5491,-1632.57,1922.42,1092.65
20840,-3.8693,0.0503,-0.5492,148.68,1719.06,-1688.60
20850,-3.8693,-0.0383,-0.5363,-1554.44,1703.19,1733.28
20860,-3.8694,-0.1097,-0.5115,-898.19,-625.12,-1235.47
20870,-3.8695,-0.1498,-0.4935,1961.18,-1453.37,1498.96
20880,-3.8698,-0.1589,-0.4838,836.18,843.44,-1875.98
20890,-3.8700,-0.1462,-0.4696,-335.69,-1906.62,639.65
20900,-3.8704,-0.1102,-0.4481,1289.31,-94.06,-1969.73
20910,-3.8707,-0.0536,-0.4159,1898.68,-1343.99,-391.54
20920,-3.8710,0.0092,-0.3782,1148.68,-1218.87,1952.27
20930,-3.8712,0.0721,-0.3606,1179.93,-406.25,921.08
20940,-3.8715,0.1466,-0.3799,1242.43,1843.87,-1625.73
20950,-3.8715,0.2161,-0.4110,-1226.32,-624.76,921.08
20960,-3.8713,0.2478,-0.4305,-335.69,-609.01,155.40
20970,-3.8712,0.2458,-0.4399,-273.19,891.05,749.15
20980,-3.8711,0.2295,-0.4375,-523.19,-312.07,92.83
20990,-3.8711,0.2124,-0.4247,1383.06,0.43,1467.90
21000,-3.8711,0.2030,-0.4189,-804.44,1640.99,1077.27
21010,-3.8711,0.2039,-0.4252,1992.43,-1624.63,655.40
21020,-3.8711,0.2231,-0.4395,-1898.19,1578.49,999.15
21030,-3.8711,0.2562,-0.4594,570.56,-249.57,-1563.42
21040,-3.8710,0.2963,-0.4851,804.93,1203.61,1202.21
21050,-3.8710,0.3373,-0.5115,1929.93,1906.80,-16.60
21060,-3.8708,0.3553,-0.5193,-820.07,-1468.14,-1969.79
21070,-3.8708,0.3447,-0.4934,1492.43,1531.92,-1251.04
21080,-3.8708,0.3281,-0.4407,133.06,844.42,295.90
21090,-3.8711,0.3177,-0.3944,-1991.94,-405.64,1670.96
21100,-3.8713,0.3160,-0.3673,679.93,1516.24,1155.46
21110,-3.8716,0.3301,-0.3489,461.18,984.99,-1828.86
21120,-3.8717,0.3579,-0.3303,-1741.94,-655.64,1686.77
21130,-3.8718,0.3890,-0.3212,1820.56,1719.42,-1047.55
21140,-3.8718,0.4124,-0.3329,1804.93,-1108.64,1499.33
21150,-3.8718,0.4218,-0.3575,789.31,1391.42,1499.33
21160,-3.8718,0.4127,-0.3855,1992.43,-1764.83,-1250.73
21170,-3.8717,0.3865,-0.4102,836.18,-1342.96,811.71
21180,-3.8717,0.3572,-0.4161,1476.81,-499.27,-1125.85
21190,-3.8717,0.3359,-0.3931,1726.81,-1264.95,-735.23
21200,-3.8717,0.3250,-0.3521,-991.94,1688.11,1280.46
21210,-3.8718,0.3236,-0.3123,1601.81,-1061.89,1624.27
21220,-3.8719,0.3302,-0.2845,1429.93,31.86,1827.51
21230,-3.8721,0.3424,-0.2704,-1726.32,-421.26,-1359.99
21240,-3.8722,0.3505,-0.2657,-163.82,1391.24,-141.17
21250,-3.8722,0.3453,-0.2690,867.43,1985.05,1765.08
21260,-3.8722,0.3296,-0.2805,211.18,1563.17,686.95
21270,-3.8722,0.3075,-0.2986,-1804.44,94.36,811.95
21280,-3.8722,0.2827,-0.3191,-632.57,1781.80,-1219.36
21290,-3.8721,0.2610,-0.3362,195.56,-843.20,-1860.05
21300,-3.8719,0.2429,-0.3458,1414.31,969.24,1093.08
21310,-3.8719,0.2294,-0.3452,-898.19,-265.20,-1328.86
21320,-3.8719,0.2195,-0.3341,1367.43,-187.07,-1594.48
21330,-3.8721,0.2081,-0.3151,101.81,1234.80,-391.30
21340,-3.8722,0.1931,-0.2979,-1351.32,-327.76,-1828.80
21350,-3.8724,0.1715,-0.2958,726.81,1875.37,-1078.74
21360,-3.8727,0.1379,-0.3126,1961.18,-1859.07,-953.74
21370,-3.8729,0.0868,-0.3417,1664.31,-15.38,-672.55
21380,-3.8730,0.0187,-0.3781,-882.57,265.75,905.58
21390,-3.8732,-0.0514,-0.4160,-1601.32,-390.62,1874.21
21400,-3.8732,-0.0968,-0.4459,1429.93,-1234.50,-1657.10
21410,-3.8730,-0.1112,-0.4628,-382.57,-1062.74,30.33
21420,-3.8730,-0.1172,-0.4482,1773.68,781.01,-1094.67
21430,-3.8728,-0.1163,-0.3993,1008.06,-1359.62,452.21
21440,-3.8726,-0.0933,-0.3575,1117.43,906.01,483.58
21450,-3.8723,-0.0498,-0.3647,70.56,-1750.18,1468.02
21460,-3.8721,-0.0056,-0.4440,1633.06,1328.00,-1469.48
21470,-3.8717,0.0089,-0.5793,-710.69,-812.56,905.33
21480,-3.8713,-0.0221,-0.7128,1148.68,1843.75,1811.34
21490,-3.8708,-0.0895,-0.7987,1179.93,781.19,1029.85
21500,-3.8704,-0.1744,-0.8167,554.93,1781.07,1514.04
21510,-3.8699,-0.2523,-0.7888,1679.93,-515.99,-1689.15
21520,-3.8694,-0.3003,-0.7639,-288.82,-953.67,-1142.21
21530,-3.8689,-0.3118,-0.7435,1570.56,-1766.24,1092.22
21540,-3.8687,-0.2987,-0.6943,101.81,843.14,967.29
21550,-3.8687,-0.2874,-0.6033,1773.68,-859.99,139.22
21560,-3.8690,-0.3048,-0.4858,-773.19,-1203.74,-251.22
21570,-3.8694,-0.3632,-0.3666,992.43,1827.51,-1344.73
21580,-3.8699,-0.4500,-0.2612,1523.68,1093.02,-203.86
21590,-3.8702,-0.5369,-0.1774,-1585.69,-1422.79,-1266.17
21600,-3.8705,-0.5940,-0.1260,-710.69,1311.40,-640.99
21610,-3.8705,-0.6031,-0.1047,-23.19,-110.60,-1469.06
21620,-3.8704,-0.5778,-0.0950,-1195.07,-1391.85,937.26
21630,-3.8704,-0.5532,-0.0892,-1945.07,-141.78,-1328.37
21640,-3.8704,-0.5468,-0.0900,1195.56,592.65,-1953.31
21650,-3.8705,-0.5492,-0.0940,-1976.32,498.90,-140.81
21660,-3.8705,-0.5493,-0.1029,1711.18,-16.72,-1750.24
21670,-3.8705,-0.5354,-0.1224,1695.56,-1157.35,-1359.62
21680,-3.8704,-0.4965,-0.1495,-523.19,342.65,577.88
21690,-3.8704,-0.4427,-0.1733,461.18,874.02,-1281.56
21700,-3.8704,-0.3933,-0.1827,-663.82,1827.21,-562.87
21710,-3.8704,-0.3589,-0.1797,1664.31,624.21,1546.51
21720,-3.8705,-0.3473,-0.1677,-1929.44,1014.89,1765.26
21730,-3.8706,-0.3538,-0.1520,-445.07,-1453.86,-1906.62
21740,-3.8706,-0.3621,-0.1520,-1273.19,561.77,187.19
21750,-3.8706,-0.3612,-0.1737,1664.31,561.77,515.32
21760,-3.8706,-0.3510,-0.2028,1773.68,1780.52,-1672.24
21770,-3.8705,-0.3358,-0.2314,-913.82,-1938.23,124.57
21780,-3.8705,-0.3206,-0.2610,1023.68,-1610.05,890.14
21790,-3.8705,-0.3090,-0.2926,-1023.19,-1391.30,1108.83
21800,-3.8705,-0.3038,-0.3190,461.18,-1438.11,1702.51
21810,-3.8705,-0.3053,-0.3290,1117.43,-813.11,-1406.92
21820,-3.8705,-0.3057,-0.3219,929.93,1905.64,-1047.55
21830,-3.8705,-0.2985,-0.3105,883.06,-1188.11,1874.33
21840,-3.8706,-0.2836,-0.3115,1804.93,265.01,-672.49
21850,-3.8706,-0.2635,-0.3293,-288.82,140.01,671.26
21860,-3.8707,-0.2435,-0.3550,-1726.32,1858.83,-1516.30
21870,-3.8707,-0.2299,-0.3752,836.18,-1422.36,249.27
21880,-3.8708,-0.2262,-0.3809,-1413.82,-16.11,1999.21
21890,-3.8708,-0.2329,-0.3746,-945.07,-734.86,577.33
21900,-3.8708,-0.2443,-0.3688,-1804.44,62.01,171.14
21910,-3.8710,-0.2534,-0.3740,742.43,812.01,-141.36
21920,-3.8710,-0.2520,-0.3864,-429.44,140.08,-656.98
21930,-3.8710,-0.2285,-0.3923,-241.94,-1438.05,-1657.04
21940,-3.8710,-0.1857,-0.3839,-1241.94,1796.39,61.71
21950,-3.8711,-0.1337,-0.3611,242.43,-1125.37,249.21
21960,-3.8713,-0.0730,-0.3301,-1101.32,1796.57,-516.36
21970,-3.8715,-0.0010,-0.3003,-1335.69,1765.44,-1797.55
21980,-3.8716,0.0820,-0.2784,-116.94,1578.06,671.26
21990,-3.8718,0.1694,-0.2667,-1491.94,359.50,-578.67
22000,-3.8719,0.2462,-0.2654,1695.56,1859.68,-578.67
22010,-3.8719,0.3051,-0.2726,-476.32,-1968.32,1077.58
22020,-3.8719,0.3434,-0.2885,-945.07,1109.92,155.70
22030,-3.8719,0.3567,-0.3109,-38.82,-921.26,77.51
22040,-3.8721,0.3483,-0.3265,1664.31,203.80,-63.11
22050,-3.8721,0.3169,-0.3220,586.18,-1796.20,-813.17
22060,-3.8721,0.2623,-0.2996,570.56,-1218.14,1796.20
22070,-3.8721,0.2020,-0.2686,1586.18,1656.74,280.64
22080,-3.8722,0.1501,-0.2384,1867.43,1625.37,-344.30
22090,-3.8721,0.1099,-0.2255,-773.19,1484.62,1062.01
22100,-3.8719,0.0844,-0.2444,-1929.44,-859.19,30.76
22110,-3.8719,0.0741,-0.2872,-1195.07,718.87,-234.86
22120,-3.8717,0.0696,-0.3291,1492.43,-765.50,296.26
22130,-3.8716,0.0524,-0.3551,914.31,1875.12,811.83
22140,-3.8715,0.0161,-0.3698,-1288.82,-1453.06,452.39
22150,-3.8715,-0.0306,-0.3864,-1929.44,671.88,-1313.23
22160,-3.8715,-0.0771,-0.4044,86.18,-1437.56,-907.04
22170,-3.8715,-0.1205,-0.4143,-1866.94,249.82,-1750.79
22180,-3.8715,-0.1625,-0.4196,586.18,-1015.87,1858.52
22190,-3.8715,-0.1956,-0.4374,-788.82,-1687.87,-719.60
22200,-3.8713,-0.2108,-0.4735,-1023.19,30.82,1999.15
22210,-3.8712,-0.1990,-0.5115,1023.68,-594.18,999.02
22220,-3.8712,-0.1602,-0.5393,-1460.69,-1453.55,-813.54
22230,-3.8712,-0.1061,-0.5493,-491.94,-1015.99,-516.72
22240,-3.8712,-0.0352,-0.5327,-1570.07,1702.88,1545.78
22250,-3.8713,0.0521,-0.4972,-491.94,-172.00,952.03
22260,-3.8716,0.1394,-0.4530,-1320.07,359.44,-735.35
22270,-3.8717,0.2080,-0.4011,1851.81,-1984.13,-688.42
22280,-3.8717,0.2430,-0.3466,-1366.94,656.62,1639.83
22290,-3.8717,0.2487,-0.3083,-882.57,-358.95,1343.02
22300,-3.8717,0.2501,-0.3051,-163.82,531.68,-1969.36
22310,-3.8717,0.2461,-0.3325,23.68,953.61,-1250.61
22320,-3.8717,0.2075,-0.3617,-491.94,1437.93,-735.05
22330,-3.8716,0.1477,-0.3730,-1429.44,1703.49,1593.02
22340,-3.8715,0.1080,-0.3777,-1085.69,250.24,-1328.86
22350,-3.8712,0.1085,-0.3871,1836.18,-343.57,1686.71
22360,-3.8710,0.1531,-0.4021,1898.68,-1546.69,1108.58
22370,-3.8708,0.2281,-0.4247,-398.19,531.49,-1125.79
22380,-3.8707,0.3091,-0.4503,1211.18,1641.05,-1469.60
22390,-3.8706,0.3799,-0.4629,-429.44,-1640.08,1561.58
22400,-3.8705,0.4426,-0.4532,633.06,750.73,436.58
22410,-3.8705,0.5018,-0.4275,664.31,1985.23,-1375.92
22420,-3.8704,0.5663,-0.4006,242.43,1282.23,14.77
22430,-3.8704,0.6256,-0.3892,492.43,719.85,1202.33
22440,-3.8704,0.6462,-0.3835,86.18,-1811.28,-250.79
22450,-3.8702,0.6362,-0.3708,-1273.19,-1092.53,-1125.79
22460,-3.8701,0.6198,-0.3672,1445.56,532.47,280.52
22470,-3.8701,0.5908,-0.3629,-663.82,1001.16,108.64
22480,-3.8702,0.5598,-0.3345,-366.94,1547.97,-1735.11
22490,-3.8704,0.5472,-0.3064,-335.69,1188.54,374.33
22500,-3.8707,0.5452,-0.3022,-1945.07,782.29,-1297.49
22510,-3.8710,0.5376,-0.3070,1789.31,1313.54,-1375.61
22520,-3.8711,0.5237,-0.2981,820.56,704.16,-16.24
22530,-3.8710,0.5063,-0.2820,-960.69,1844.73,1327.51
22540,-3.8710,0.4867,-0.2853,820.56,-92.77,-875.61
22550,-3.8710,0.4675,-0.3127,-1695.07,-514.71,-375.61
22560,-3.8710,0.4480,-0.3485,-148.19,-30.40,-31.92
22570,-3.8708,0.4237,-0.3783,1351.81,-608.52,1327.39
22580,-3.8708,0.4003,-0.3898,-1757.57,-421.08,-641.42
22590,-3.8707,0.3975,-0.3802,-757.57,-1889.89,280.46
22600,-3.8708,0.4171,-0.3633,-1116.94,-671.14,-1110.17
22610,-3.8710,0.4514,-0.3508,1398.68,1500.79,-94.48
22620,-3.8710,0.4907,-0.3496,1789.31,-905.40,514.89
22630,-3.8711,0.5103,-0.3646,-1179.44,-749.08,-1516.36
22640,-3.8711,0.4987,-0.3934,1320.56,1329.10,-625.73
22650,-3.8710,0.4724,-0.4224,-163.82,1641.54,-1250.79
22660,-3.8708,0.4514,-0.4413,476.81,1938.42,-1735.23
22670,-3.8708,0.4468,-0.4550,1789.31,-483.52,-79.04
22680,-3.8708,0.4626,-0.4707,1195.56,1766.48,-813.42
22690,-3.8708,0.4948,-0.4883,-773.19,-249.15,577.15
22700,-3.8710,0.5343,-0.5092,-663.82,1500.92,1139.65
22710,-3.8711,0.5720,-0.5400,398.68,-1170.84,-1594.79
22720,-3.8711,0.5983,-0.5824,1226.81,-1123.90,1108.28
