timestamp_ms,ax,ay,az,gx,gy,gz
0,-3.8707,-0.4155,-0.9001,-398.19,686.71,-111.08
10,-3.8702,-0.4307,-0.9258,-1179.44,796.02,-1673.65
20,-3.8699,-0.4337,-0.9153,883.06,1514.77,451.29
30,-3.8699,-0.4558,-0.8551,492.43,-1141.48,-1345.58
40,-3.8700,-0.5151,-0.7611,1664.31,-1438.42,-1939.21
50,-3.8702,-0.6003,-0.6550,-1929.44,-1407.29,-1501.53
60,-3.8705,-0.6984,-0.5409,-835.69,170.65,-313.78
70,-3.8706,-0.8112,-0.4154,-1382.57,-1220.15,-782.35
80,-3.8706,-0.9459,-0.2893,179.93,-1157.84,686.65
90,-3.8707,-1.0988,-0.1853,-1070.07,-1017.52,-734.99
100,-3.8707,-1.2518,-0.1250,-632.57,294.68,-1281.62
110,-3.8707,-1.3795,-0.1222,-226.32,13.12,-31.49
120,-3.8706,-1.4437,-0.1628,-570.07,372.25,-531.49
130,-3.8704,-1.4124,-0.2051,-788.82,-830.99,390.26
140,-3.8702,-1.2916,-0.2170,-773.19,1762.82,421.45
150,-3.8702,-1.1228,-0.1907,-1320.07,231.81,952.70
160,-3.8704,-0.9514,-0.1450,289.31,-392.82,-1578.55
170,-3.8705,-0.8131,-0.1228,-1773.19,1451.23,-1031.56
180,-3.8705,-0.7262,-0.1423,-70.07,295.23,687.26
190,-3.8705,-0.6757,-0.1759,-945.07,1795.41,1343.44
200,-3.8704,-0.6383,-0.1997,1523.68,1498.66,265.26
210,-3.8704,-0.6050,-0.2163,-1695.07,-1548.16,-562.93
220,-3.8702,-0.5686,-0.2256,-1429.44,326.90,1890.20
230,-3.8702,-0.5321,-0.2286,-773.19,-860.53,-562.99
240,-3.8701,-0.5065,-0.2461,-101.32,-1251.10,890.14
250,-3.8701,-0.4956,-0.2864,-820.07,514.59,-1344.24
260,-3.8701,-0.4921,-0.3252,570.56,-641.60,-625.61
270,-3.8701,-0.4835,-0.3546,1023.68,-1610.35,1952.45
280,-3.8702,-0.4722,-0.3978,-1882.57,-1375.98,-1016.36
290,-3.8704,-0.4669,-0.4592,-429.44,1092.77,-485.17
300,-3.8704,-0.4612,-0.5204,242.43,1233.46,233.46
310,-3.8705,-0.4395,-0.5782,976.81,1405.33,-1719.79
320,-3.8705,-0.4044,-0.6399,-241.94,1999.08,1795.72
330,-3.8705,-0.3745,-0.6957,242.43,-1891.42,1608.09
340,-3.8705,-0.3623,-0.7299,70.56,-1031.98,701.72
350,-3.8706,-0.3663,-0.7375,1633.06,-1406.98,-1642.09
360,-3.8707,-0.3727,-0.7214,1117.43,1608.64,-1767.09
370,-3.8708,-0.3715,-0.6934,304.93,-328.86,951.66
380,-3.8710,-0.3604,-0.6720,461.18,-735.11,29.85
390,-3.8711,-0.3378,-0.6721,1883.06,1999.27,858.03
400,-3.8711,-0.3051,-0.6930,773.68,1983.70,29.91
410,-3.8711,-0.2650,-0.7216,961.18,-688.11,373.60
420,-3.8712,-0.2222,-0.7439,-1913.82,-344.30,-204.59
430,-3.8712,-0.1825,-0.7455,-429.44,796.39,1545.41
440,-3.8713,-0.1489,-0.7256,648.68,593.38,1889.16
450,-3.8715,-0.1201,-0.6995,945.56,-859.68,1420.41
460,-3.8716,-0.0969,-0.6858,633.06,-1515.87,1904.85
470,-3.8716,-0.0873,-0.6937,-398.19,234.13,779.91
480,-3.8716,-0.0852,-0.7135,836.18,-781.43,576.72
490,-3.8717,-0.0756,-0.7339,1101.81,687.32,-767.03
500,-3.8717,-0.0515,-0.7581,-1663.82,-1922.06,1670.41
510,-3.8717,-0.0129,-0.7937,1414.31,-1015.75,1764.10
520,-3.8716,0.0396,-0.8395,-1648.19,-1578.19,779.66
530,-3.8715,0.1093,-0.8784,1070.56,546.94,-1548.52
540,-3.8713,0.1864,-0.8877,1992.43,-437.32,-470.52
550,-3.8712,0.2473,-0.8700,-132.57,-1624.69,1138.85
560,-3.8713,0.2810,-0.8439,-335.69,641.05,-689.21
570,-3.8715,0.2938,-0.8170,-23.19,-15.14,-736.08
580,-3.8716,0.2928,-0.7909,1617.43,-577.58,1201.48
590,-3.8718,0.2825,-0.7736,1492.43,-1233.83,-1985.96
600,-3.8719,0.2715,-0.7758,164.31,984.92,357.85
610,-3.8721,0.2755,-0.7903,-1241.94,703.61,1498.47
620,-3.8721,0.3044,-0.7993,-726.32,-1155.76,1685.91
630,-3.8719,0.3527,-0.8014,-1023.19,1688.05,295.29
640,-3.8719,0.4027,-0.8087,1148.68,1422.55,-689.09
650,-3.8718,0.4441,-0.8297,-445.07,485.11,1748.41
660,-3.8718,0.4816,-0.8540,851.81,1797.73,-220.40
670,-3.8717,0.5256,-0.8546,1648.68,-1311.58,1467.04
680,-3.8717,0.5831,-0.8210,-710.69,-1389.65,1592.04
690,-3.8717,0.6462,-0.7722,-1351.32,-1092.65,248.35
700,-3.8717,0.7109,-0.7417,-1273.19,1157.47,373.47
710,-3.8717,0.7856,-0.7471,-991.94,1063.84,-126.46
720,-3.8715,0.8734,-0.7583,570.56,376.53,-1985.84
730,-3.8713,0.9707,-0.7448,-195.07,-1060.85,-95.28
740,-3.8712,1.0787,-0.7197,258.06,673.77,-392.09
750,-3.8711,1.1968,-0.7063,-1913.82,-122.92,1170.41
760,-3.8712,1.3016,-0.6797,1195.56,1596.07,-704.53
770,-3.8713,1.3787,-0.6008,-1382.57,1002.50,701.78
780,-3.8717,1.4501,-0.4750,476.81,-903.56,-423.10
790,-3.8718,1.5336,-0.3245,1617.43,-794.07,624.02
800,-3.8719,1.6570,-0.2268,304.93,-1528.26,-891.30
810,-3.8717,1.8008,-0.2594,101.81,-1028.02,93.26
820,-3.8715,1.8502,-0.3722,-1491.94,-1199.65,-172.42
830,-3.8710,1.7577,-0.4828,836.18,362.98,-422.61
840,-3.8704,1.5999,-0.5730,992.43,-1793.46,639.65
850,-3.8700,1.4669,-0.6395,789.31,-1340.64,-954.28
860,-3.8698,1.3839,-0.6687,-226.32,-1856.57,858.09
870,-3.8699,1.3403,-0.6683,1148.68,-1591.06,-1954.47
880,-3.8701,1.3168,-0.6691,-429.44,-1544.31,-1266.97
890,-3.8704,1.2742,-0.6879,554.93,-1638.06,1983.03
900,-3.8706,1.1813,-0.7111,-898.19,-44.43,-1204.53
910,-3.8707,1.0380,-0.7319,-788.82,986.63,-360.78
920,-3.8706,0.8687,-0.7606,867.43,-1685.49,748.54
930,-3.8705,0.7062,-0.7991,-804.44,-1357.73,373.47
940,-3.8704,0.5836,-0.8385,-1601.32,1720.09,920.29
950,-3.8702,0.5177,-0.8578,-1288.82,672.97,1670.23
960,-3.8702,0.4882,-0.8306,-1726.32,-1795.90,-142.33
970,-3.8702,0.4791,-0.7554,-1507.57,1688.42,779.60
980,-3.8705,0.4976,-0.6615,1336.18,-686.58,107.85
990,-3.8710,0.5374,-0.5830,-304.44,-670.96,-673.22
1000,-3.8713,0.5825,-0.5433,789.31,1376.04,1686.34
1010,-3.8717,0.6174,-0.5546,-1429.44,-1545.78,-1782.35
1020,-3.8719,0.6230,-0.6130,-960.69,1016.78,-79.22
1030,-3.8719,0.5823,-0.6768,-241.94,1532.41,-516.85
1040,-3.8719,0.4984,-0.6868,-1460.69,1376.10,-16.97
1050,-3.8719,0.4078,-0.6355,-195.07,94.67,779.91
1060,-3.8722,0.3413,-0.5760,211.18,-1342.96,-1891.91
1070,-3.8724,0.2959,-0.5562,-304.44,-1733.76,-923.03
1080,-3.8726,0.2556,-0.5682,1883.06,813.05,-1376.10
1090,-3.8726,0.2083,-0.5831,726.81,-733.89,1280.09
1100,-3.8726,0.1582,-0.5876,-1335.69,1359.74,-1954.28
1110,-3.8726,0.1180,-0.5835,258.06,781.56,-704.28
1120,-3.8724,0.0936,-0.5728,-882.57,1312.68,1967.59
1130,-3.8723,0.0867,-0.5464,-7.57,-1312.38,-594.91
1140,-3.8721,0.0941,-0.5078,-898.19,-1937.38,467.65
1150,-3.8721,0.1162,-0.4753,54.93,-999.82,467.71
1160,-3.8723,0.1510,-0.4657,-1116.94,-843.57,-1454.10
1170,-3.8726,0.1855,-0.4862,-663.82,390.87,-875.92
1180,-3.8727,0.2091,-0.5267,-241.94,1765.93,-1094.73
1190,-3.8727,0.2190,-0.5743,-1226.32,578.49,-1172.91
1200,-3.8726,0.2089,-0.6265,39.31,-1515.20,1045.72
1210,-3.8726,0.1711,-0.6737,-1257.57,-187.13,-63.78
1220,-3.8724,0.1167,-0.6951,1914.31,1765.93,-454.47
1230,-3.8722,0.0702,-0.6956,-1054.44,-968.57,186.10
1240,-3.8721,0.0488,-0.7102,992.43,-1031.13,1936.10
1250,-3.8718,0.0477,-0.7562,-1741.94,1093.81,1232.97
1260,-3.8716,0.0465,-0.8127,-1882.57,-796.81,-1642.15
1270,-3.8712,0.0328,-0.8494,1961.18,-31.19,467.10
1280,-3.8710,0.0106,-0.8500,211.18,-718.69,-1532.96
1290,-3.8706,-0.0084,-0.8188,1367.43,-796.88,326.42
1300,-3.8704,-0.0295,-0.7739,-1070.07,-796.94,-1423.52
1310,-3.8700,-0.0695,-0.7178,226.81,953.06,795.35
1320,-3.8698,-0.1198,-0.6368,-882.57,140.44,-767.03
1330,-3.8694,-0.1685,-0.5463,679.93,-1500.24,-173.16
1340,-3.8689,-0.2379,-0.4841,-1554.44,-1906.62,1858.28
1350,-3.8685,-0.3531,-0.4471,1554.93,-1953.61,124.02
1360,-3.8685,-0.5104,-0.3921,-1195.07,-1219.48,-1844.67
1370,-3.8687,-0.6780,-0.3014,-1320.07,1827.09,1171.08
1380,-3.8689,-0.8375,-0.2169,1226.81,1436.16,-859.99
1390,-3.8690,-0.9696,-0.1908,804.93,248.35,-359.80
1400,-3.8690,-1.0187,-0.2197,-101.32,-408.20,-1406.68
1410,-3.8689,-0.9640,-0.2631,1617.43,-111.39,452.64
1420,-3.8689,-0.8406,-0.2992,617.43,-1658.14,-281.80
1430,-3.8688,-0.6930,-0.3171,414.31,1717.10,1780.64
1440,-3.8688,-0.5690,-0.3221,-695.07,-579.53,1764.95
1450,-3.8688,-0.5039,-0.3221,-820.07,-1219.91,530.58
1460,-3.8689,-0.4930,-0.3110,-491.94,-1219.79,-1391.30
1470,-3.8690,-0.5175,-0.3038,898.68,202.15,1890.01
1480,-3.8693,-0.5688,-0.3118,1773.68,1123.96,921.26
1490,-3.8696,-0.6309,-0.3236,-804.44,108.22,765.01
1500,-3.8700,-0.6796,-0.3359,-741.94,-1407.53,14.95
1510,-3.8704,-0.7019,-0.3596,1023.68,1014.28,1233.70
1520,-3.8706,-0.7043,-0.4037,-1835.69,1982.97,-1688.23
1530,-3.8707,-0.6958,-0.4608,1851.81,342.35,-875.79
1540,-3.8707,-0.6703,-0.5088,-1054.44,1029.85,499.08
1550,-3.8708,-0.6252,-0.5341,-1788.82,-1110.72,61.46
1560,-3.8711,-0.5692,-0.5398,-23.19,-345.03,1842.65
1570,-3.8713,-0.5120,-0.5300,-851.32,-1079.28,1827.03
1580,-3.8717,-0.4626,-0.5101,-1523.19,170.84,-110.41
1590,-3.8719,-0.4230,-0.4930,789.31,-1282.17,1639.59
1600,-3.8722,-0.3845,-0.4911,1867.43,905.40,1920.90
1610,-3.8723,-0.3363,-0.5012,-1210.69,1155.46,1764.65
1620,-3.8724,-0.2791,-0.5052,961.18,-141.30,-610.41
1630,-3.8724,-0.2292,-0.4944,289.31,-656.80,592.71
1640,-3.8726,-0.2014,-0.4801,-1335.69,733.89,717.77
1650,-3.8727,-0.1917,-0.4767,-1773.19,-1437.93,499.02
1660,-3.8728,-0.1808,-0.4832,-523.19,-1000.43,999.02
1670,-3.8729,-0.1552,-0.4929,867.43,-1828.49,-1172.85
1680,-3.8729,-0.1122,-0.5023,148.68,921.57,-1625.98
1690,-3.8729,-0.0648,-0.5112,1648.68,-281.49,-329.16
1700,-3.8728,-0.0372,-0.5331,-288.82,-1422.06,-1657.29
1710,-3.8727,-0.0264,-0.5839,-757.57,-218.87,-1876.10
1720,-3.8726,-0.0133,-0.6532,633.06,1281.19,-1985.53
1730,-3.8724,0.0038,-0.7114,-1695.07,406.19,920.59
1740,-3.8724,0.0245,-0.7415,492.43,937.50,1529.85
1750,-3.8726,0.0566,-0.7512,-851.32,1093.75,-563.96
1760,-3.8727,0.1107,-0.7620,-741.94,-156.19,-32.78
1770,-3.8727,0.1841,-0.7936,-1820.07,-1531.07,1998.47
1780,-3.8726,0.2555,-0.8534,-429.44,-1577.82,1139.04
1790,-3.8723,0.3164,-0.9277,711.18,-1233.89,810.79
1800,-3.8722,0.3772,-0.9919,508.06,1250.61,-517.46
1810,-3.8721,0.4359,-1.0277,289.31,1031.98,779.30
1820,-3.8722,0.4774,-1.0283,-195.07,453.92,857.36
1830,-3.8724,0.5017,-1.0093,1117.43,375.92,-1392.64
1840,-3.8726,0.5226,-1.0029,226.81,-1186.52,-1720.76
1850,-3.8726,0.5619,-1.0398,-1101.32,-374.02,-205.14
1860,-3.8722,0.6337,-1.1251,-70.07,-1092.71,169.80
1870,-3.8718,0.7360,-1.2211,1117.43,-14.40,1872.74
1880,-3.8713,0.8656,-1.2799,-1788.82,-295.47,1028.81
1890,-3.8711,1.0146,-1.2782,-1195.07,173.52,-174.38
1900,-3.8710,1.1659,-1.2257,1883.06,392.58,1919.37
1910,-3.8712,1.2946,-1.1514,1242.43,-888.37,-1158.69
1920,-3.8716,1.4056,-1.0690,1711.18,627.50,-502.26
1930,-3.8718,1.5172,-0.9706,-70.07,-825.44,-1533.39
1940,-3.8719,1.6144,-0.8624,-1788.82,-231.45,-1783.20
1950,-3.8719,1.6888,-0.7708,-1351.32,1612.49,1545.17
1960,-3.8719,1.7512,-0.7163,179.93,1347.05,-1439.03
1970,-3.8718,1.8008,-0.6993,164.31,315.92,139.22
1980,-3.8718,1.8256,-0.6796,-1491.94,-1512.15,-1610.78
1990,-3.8717,1.8185,-0.6237,1679.93,1019.17,-907.59
2000,-3.8715,1.7892,-0.5847,773.68,175.42,561.28
2010,-3.8716,1.7384,-0.6042,1023.68,1159.73,-501.16
2020,-3.8717,1.6652,-0.6207,-1476.32,-1340.39,1608.15
2030,-3.8718,1.5815,-0.6040,1148.68,550.11,670.65
2040,-3.8719,1.4955,-0.5895,-1554.44,-1309.45,764.40
2050,-3.8721,1.4174,-0.5887,-570.07,549.74,-1860.53
2060,-3.8721,1.3488,-0.5944,1429.93,643.37,264.47
2070,-3.8722,1.2906,-0.6017,648.68,-75.50,1951.90
2080,-3.8723,1.2449,-0.6210,1211.18,-1013.12,1858.15
2090,-3.8724,1.2002,-0.6667,-648.19,518.01,61.28
2100,-3.8726,1.1564,-0.7313,1633.06,-1341.43,529.91
2110,-3.8726,1.1100,-0.8015,23.68,-1607.12,1982.91
2120,-3.8724,1.0533,-0.8767,-1913.82,1408.39,-189.09
2130,-3.8721,0.9995,-0.9368,-1163.82,-216.74,185.73
2140,-3.8719,0.9602,-0.9536,-54.44,95.64,-814.33
2150,-3.8718,0.9355,-0.9252,-1085.69,1939.33,1185.61
2160,-3.8719,0.9250,-0.8689,-241.94,1579.90,1232.54
2170,-3.8722,0.9194,-0.8154,-1585.69,783.02,1482.67
2180,-3.8724,0.8976,-0.7891,1695.56,-373.23,1420.23
2190,-3.8727,0.8505,-0.7855,-1101.32,-998.29,-892.21
2200,-3.8728,0.7826,-0.7958,867.43,-545.23,-1329.71
2210,-3.8729,0.7023,-0.8186,179.93,-1857.85,-470.34
2220,-3.8729,0.6191,-0.8567,1898.68,-779.91,1185.85
2230,-3.8729,0.5338,-0.9105,-741.94,-1655.09,1326.42
2240,-3.8728,0.4487,-0.9630,336.18,-545.84,1982.54
2250,-3.8726,0.3702,-0.9906,1445.56,735.23,873.11
2260,-3.8724,0.2959,-0.9872,-601.32,1203.80,-298.83
2270,-3.8722,0.2189,-0.9725,1883.06,1641.17,-1876.95
2280,-3.8719,0.1298,-0.9822,23.68,-483.95,1326.17
2290,-3.8716,0.0294,-1.0140,617.43,-1718.51,1466.80
2300,-3.8711,-0.0599,-0.9951,-226.32,-1796.88,1529.24
2310,-3.8708,-0.1145,-0.8695,336.18,640.50,-111.33
2320,-3.8708,-0.1143,-0.6941,1351.81,718.51,-1751.71
2330,-3.8712,-0.0518,-0.5685,1383.06,-828.37,-1251.40
2340,-3.8717,0.0389,-0.5250,1383.06,-750.12,-1204.28
2350,-3.8722,0.1107,-0.5321,992.43,796.94,-516.66
2360,-3.8726,0.1484,-0.5499,-1820.07,-109.19,-766.72
2370,-3.8728,0.1567,-0.5570,-991.94,1609.62,1998.90
2380,-3.8730,0.1372,-0.5619,70.56,703.43,-501.10
2390,-3.8730,0.0897,-0.5986,1570.56,78.37,889.53
2400,-3.8729,0.0273,-0.6681,-507.57,-624.88,248.78
2410,-3.8728,-0.0265,-0.7225,-491.94,-1515.62,-454.47
2420,-3.8726,-0.0612,-0.7351,617.43,-468.81,-1782.71
2430,-3.8724,-0.0743,-0.7240,179.93,1921.75,-95.21
2440,-3.8722,-0.0632,-0.7262,-1507.57,-656.43,-751.46
2450,-3.8718,-0.0396,-0.7733,-85.69,-937.68,1982.91
2460,-3.8713,-0.0343,-0.8630,-1054.44,1031.13,1295.35
2470,-3.8707,-0.0797,-0.9410,-382.57,1546.75,1513.92
2480,-3.8700,-0.1843,-0.9462,1804.93,-437.68,29.36
2490,-3.8694,-0.3351,-0.8766,414.31,-1094.12,435.61
2500,-3.8690,-0.5201,-0.7554,1117.43,-188.17,-1048.65
2510,-3.8688,-0.7356,-0.5784,1429.93,-672.91,-657.78
2520,-3.8685,-0.9891,-0.3676,1851.81,1982.91,983.22
2530,-3.8684,-1.2760,-0.2125,1398.68,966.80,-1469.48
2540,-3.8683,-1.5588,-0.1691,679.93,810.00,-1641.05
2550,-3.8683,-1.7732,-0.1884,476.81,-1628.05,-1859.74
2560,-3.8684,-1.8438,-0.2172,1039.31,-97.23,1562.07
2570,-3.8685,-1.7322,-0.2290,8.06,215.15,46.45
2580,-3.8687,-1.4882,-0.2201,-1710.69,-1300.29,1515.14
2590,-3.8687,-1.2131,-0.2273,1523.68,-159.18,655.76
2600,-3.8688,-0.9751,-0.2615,726.81,-1080.51,1280.76
2610,-3.8690,-0.8047,-0.2850,-804.44,-1455.08,-1375.55
2620,-3.8693,-0.7112,-0.2936,1008.06,-470.34,-328.74
2630,-3.8694,-0.6787,-0.3341,976.81,-1563.90,1765.01
2640,-3.8695,-0.6882,-0.4136,1133.06,1248.66,749.33
2650,-3.8696,-0.7070,-0.4921,-85.69,-923.28,608.52
2660,-3.8698,-0.7025,-0.5369,1508.06,1029.85,280.27
2670,-3.8700,-0.6918,-0.5466,-1913.82,-704.53,1467.65
2680,-3.8704,-0.6987,-0.5505,-538.82,-1954.53,-188.60
2690,-3.8706,-0.7113,-0.5768,-1429.44,1545.47,1264.53
2700,-3.8708,-0.7134,-0.6288,961.18,-1813.90,451.97
2710,-3.8711,-0.6971,-0.6874,695.56,-470.15,-1548.16
2720,-3.8712,-0.6621,-0.7303,-1226.32,29.85,-1079.47
2730,-3.8712,-0.6060,-0.7545,-741.94,-1470.09,-1892.09
2740,-3.8712,-0.5276,-0.7723,-1554.44,-563.72,-1126.53
2750,-3.8712,-0.4413,-0.7976,476.81,1155.21,-1173.40
2760,-3.8712,-0.3639,-0.8356,-476.32,1920.96,1170.29
2770,-3.8713,-0.3015,-0.8820,1429.93,1061.77,-1361.02
2780,-3.8713,-0.2494,-0.9200,1414.31,-875.61,498.23
2790,-3.8715,-0.2008,-0.9277,86.18,-1750.49,-1017.46
2800,-3.8715,-0.1509,-0.9052,-1695.07,1265.20,607.54
2810,-3.8716,-0.0887,-0.8738,695.56,155.94,1029.48
2820,-3.8717,-0.0201,-0.8540,648.68,171.69,1263.92
2830,-3.8718,0.0317,-0.8610,1429.93,-1296.94,-1626.71
2840,-3.8718,0.0594,-0.8960,70.56,1796.94,1123.29
2850,-3.8718,0.0732,-0.9347,-382.57,1312.56,232.60
2860,-3.8719,0.0879,-0.9562,1383.06,359.50,810.67
2870,-3.8722,0.1357,-0.9683,-741.94,1609.50,-658.14
2880,-3.8723,0.2352,-0.9803,1383.06,62.74,-830.02
2890,-3.8723,0.3335,-0.9889,-1882.57,-1483.95,-1970.70
2900,-3.8723,0.3522,-0.9886,-1304.44,1422.49,1998.05
2910,-3.8724,0.2710,-0.9797,1086.18,1453.80,-548.83
2920,-3.8726,0.1406,-0.9915,-1304.44,-1405.76,-1564.45
2930,-3.8727,0.0432,-1.0366,-1991.94,1093.99,-1330.08
2940,-3.8727,0.0048,-1.0782,1539.31,-687.44,-1408.33
2950,-3.8726,0.0022,-1.0994,617.43,1984.38,1372.86
2960,-3.8726,0.0289,-1.1202,289.31,-718.75,-377.20
2970,-3.8726,0.0840,-1.1512,-288.82,609.38,-236.57
2980,-3.8726,0.1663,-1.1954,-1241.94,640.75,-486.63
2990,-3.8724,0.2598,-1.2599,1289.31,-1015.32,888.24
3000,-3.8723,0.3413,-1.3313,1258.06,-1265.14,-1924.38
3010,-3.8721,0.4155,-1.3705,-304.44,1594.36,-1518.25
3020,-3.8718,0.5105,-1.3486,1195.56,578.92,-955.81
3030,-3.8716,0.6447,-1.2888,1351.81,-624.02,-1549.56
3040,-3.8713,0.8107,-1.2440,-1476.32,-967.53,1278.69
3050,-3.8711,1.0081,-1.2349,-226.32,767.15,1435.06
3060,-3.8707,1.2366,-1.2362,1039.31,1939.45,388.18
3070,-3.8704,1.4691,-1.2191,-1710.69,1768.01,1606.93
3080,-3.8700,1.6820,-1.1914,54.93,-44.01,-1330.57
3090,-3.8698,1.8545,-1.1570,-695.07,-496.77,-455.51
3100,-3.8696,1.9841,-1.0784,1383.06,-90.15,-1580.44
3110,-3.8696,2.1158,-0.9343,1976.81,1972.60,1716.61
3120,-3.8698,2.2316,-0.7550,-1163.82,410.34,-236.21
3130,-3.8698,2.2354,-0.6165,1648.68,-636.29,1201.60
3140,-3.8699,2.1008,-0.5739,-1866.94,1098.08,-1407.47
3150,-3.8699,1.8701,-0.6421,914.31,-1449.04,686.34
3160,-3.8699,1.5701,-0.7784,-616.94,1816.10,-266.91
3170,-3.8694,1.2472,-0.8890,976.81,362.43,1107.85
3180,-3.8688,0.9973,-0.9730,-351.32,-1794.49,732.60
3190,-3.8684,0.8474,-1.0789,-335.69,-544.98,1326.17
3200,-3.8685,0.7319,-1.1669,476.81,1907.90,-17.76
3210,-3.8688,0.6261,-1.1761,1695.56,-1357.97,1794.56
3220,-3.8691,0.5536,-1.1244,148.68,1454.35,1794.56
3230,-3.8695,0.5055,-1.0597,-1132.57,79.16,1794.68
3240,-3.8699,0.4645,-1.0033,711.18,360.35,435.42
3250,-3.8704,0.4340,-0.9597,-538.82,-421.02,1576.11
3260,-3.8708,0.3973,-0.9434,-445.07,1157.04,-673.77
3270,-3.8711,0.3344,-0.9712,-1132.57,-749.27,-1923.77
3280,-3.8711,0.2557,-1.0275,-1195.07,-311.89,779.30
3290,-3.8710,0.1718,-1.0747,742.43,484.86,560.49
3300,-3.8708,0.0830,-1.0919,1992.43,-1562.19,1404.11
3310,-3.8707,0.0062,-1.0681,-1366.94,234.50,122.86
3320,-3.8708,-0.0341,-0.9984,804.93,-718.75,1654.11
3330,-3.8711,-0.0275,-0.9062,-351.32,218.63,-1986.33
3340,-3.8715,0.0127,-0.8253,492.43,15.56,-689.27
3350,-3.8717,0.0542,-0.7762,1633.06,-1640.62,217.10
3360,-3.8721,0.0720,-0.7651,-1054.44,640.69,-235.90
3370,-3.8722,0.0630,-0.7786,1226.81,-1937.38,-517.15
3380,-3.8722,0.0402,-0.7969,70.56,343.87,-1439.03
3390,-3.8721,0.0089,-0.8048,1148.68,-1999.94,592.16
3400,-3.8721,-0.0216,-0.7852,1148.68,984.38,-282.84
3410,-3.8719,-0.0315,-0.7314,1242.43,-484.44,264.04
3420,-3.8721,-0.0292,-0.6703,-23.19,-1609.50,1076.66
3430,-3.8723,-0.0156,-0.6361,273.68,-1781.31,-1595.09
3440,-3.8726,0.0128,-0.6439,-1991.94,-1406.31,-1704.41
3450,-3.8727,0.0399,-0.6848,1648.68,1578.12,123.72
3460,-3.8728,0.0609,-0.7366,1117.43,343.81,514.28
3470,-3.8729,0.0737,-0.7820,-195.07,1718.81,-1345.21
3480,-3.8729,0.0602,-0.8179,1445.56,-93.63,764.04
3490,-3.8730,0.0063,-0.8552,-288.82,-687.44,1935.85
3500,-3.8732,-0.0803,-0.8970,820.56,-1468.75,-1.71
3510,-3.8732,-0.1887,-0.9413,1726.81,1202.94,-439.27
3520,-3.8732,-0.2997,-0.9884,-148.19,-469.18,-283.14
3530,-3.8730,-0.3658,-1.0403,1648.68,1499.39,-1923.83
3540,-3.8728,-0.3225,-1.1013,1179.93,-1141.36,-1564.58
3550,-3.8723,-0.1768,-1.1663,-1273.19,-953.80,-1408.45
3560,-3.8716,-0.0305,-1.2244,1383.06,-1265.99,1700.81
3570,-3.8707,0.0026,-1.2494,101.81,-703.19,919.43
3580,-3.8700,-0.1437,-1.2173,336.18,78.12,1966.31
3590,-3.8695,-0.4353,-1.1230,1617.43,202.82,-1205.51
3600,-3.8693,-0.7590,-0.9786,289.31,264.77,-1533.45
3610,-3.8693,-1.0182,-0.8042,-1148.19,-1251.53,-1080.08
3620,-3.8694,-1.1776,-0.5952,1679.93,1076.11,-439.09
3630,-3.8694,-1.2603,-0.3507,1273.68,-174.19,155.03
3640,-3.8695,-1.3130,-0.1224,-1304.44,-877.50,-1125.73
3650,-3.8694,-1.3519,0.0083,-54.44,341.13,624.76
3660,-3.8693,-1.3602,-0.0044,-1038.82,1075.44,703.12
3670,-3.8691,-1.3140,-0.1062,1898.68,-549.56,1312.44
3680,-3.8690,-1.2107,-0.2067,-179.44,-1580.75,359.13
3690,-3.8690,-1.0923,-0.2592,1039.31,1560.12,-672.30
3700,-3.8688,-0.9946,-0.2653,195.56,-1158.39,1765.08
3710,-3.8685,-0.9067,-0.2755,695.56,-1939.45,-703.67
3720,-3.8683,-0.8282,-0.3163,-54.44,748.17,-1094.30
3730,-3.8682,-0.7761,-0.3649,1992.43,-470.40,30.58
3740,-3.8684,-0.7523,-0.4039,664.31,1310.97,-891.36
3750,-3.8687,-0.7399,-0.4427,-288.82,310.97,1967.96
3760,-3.8690,-0.7111,-0.4874,1304.93,-657.71,-1829.04
3770,-3.8694,-0.6595,-0.5237,992.43,1623.60,-1579.10
3780,-3.8696,-0.5985,-0.5480,-413.82,983.03,655.21
3790,-3.8699,-0.5497,-0.5865,-601.32,1873.78,920.78
3800,-3.8701,-0.5276,-0.6522,1648.68,936.40,-1001.16
3810,-3.8702,-0.5273,-0.7222,476.81,530.21,-1204.41
3820,-3.8704,-0.5360,-0.7792,508.06,-422.91,-657.71
3830,-3.8705,-0.5339,-0.8124,-601.32,280.15,-501.53
3840,-3.8706,-0.4991,-0.8065,-335.69,30.15,1857.79
3850,-3.8708,-0.4224,-0.7716,117.43,780.27,1685.91
3860,-3.8711,-0.3098,-0.7386,1945.56,1249.15,1264.10
3870,-3.8713,-0.1892,-0.7283,351.81,1468.14,-1688.96
3880,-3.8716,-0.0985,-0.7366,-210.69,-1203.55,-48.34
3890,-3.8717,-0.0476,-0.7454,-601.32,1734.13,1029.79
3900,-3.8719,-0.0203,-0.7355,1914.31,609.25,811.04
3910,-3.8722,-0.0017,-0.7156,1414.31,1874.94,1264.16
3920,-3.8723,0.0216,-0.7114,-210.69,421.81,-1907.65
3930,-3.8723,0.0587,-0.7278,-1226.32,937.50,-642.03
3940,-3.8722,0.1093,-0.7626,-476.32,-1156.19,-1657.71
3950,-3.8721,0.1769,-0.8013,1992.43,-1609.19,1185.97
3960,-3.8721,0.2666,-0.8142,-1351.32,1437.81,-1829.71
3970,-3.8722,0.3632,-0.7948,-1866.94,-218.26,-251.65
3980,-3.8723,0.4406,-0.7576,-1507.57,-1733.70,-564.09
3990,-3.8723,0.4760,-0.7156,398.68,-967.90,685.97
4000,-3.8723,0.4619,-0.6794,929.93,407.17,1186.10
4010,-3.8723,0.4130,-0.6553,-866.94,1032.10,-220.09
4020,-3.8722,0.3484,-0.6497,867.43,125.79,889.34
4030,-3.8723,0.2869,-0.6619,601.81,844.42,-1579.41
4040,-3.8724,0.2438,-0.6742,726.81,-718.20,1233.03
4050,-3.8727,0.2275,-0.6808,-788.82,1703.55,-860.72
4060,-3.8728,0.2351,-0.6897,1133.06,859.80,-1282.59
4070,-3.8728,0.2549,-0.6903,-1898.19,-280.82,-251.40
4080,-3.8726,0.2815,-0.6792,633.06,-358.89,-1454.53
4090,-3.8723,0.3141,-0.6814,39.31,1063.05,-1173.22
4100,-3.8721,0.3494,-0.7076,211.18,781.86,-1485.72
4110,-3.8718,0.3843,-0.7529,726.81,1422.55,1295.47
4120,-3.8717,0.4199,-0.8098,1195.56,-374.27,-64.03
4130,-3.8715,0.4679,-0.8673,1758.06,344.54,-876.59
4140,-3.8712,0.5320,-0.8992,-101.32,985.23,1888.92
4150,-3.8710,0.5956,-0.8843,101.81,907.29,123.23
4160,-3.8708,0.6569,-0.8470,242.43,-1186.34,654.48
4170,-3.8708,0.7369,-0.8192,86.18,-420.59,1295.17
4180,-3.8710,0.8550,-0.8055,-1663.82,-857.97,-486.02
4190,-3.8710,0.9882,-0.7971,1445.56,892.27,1170.29
4200,-3.8711,1.1063,-0.7756,-1507.57,1970.64,-454.71
4210,-3.8711,1.2303,-0.7501,1617.43,720.89,-142.15
4220,-3.8710,1.3855,-0.7452,1492.43,-13.24,1873.47
4230,-3.8708,1.5654,-0.7493,1351.81,612.06,1576.66
4240,-3.8707,1.7245,-0.7339,383.06,96.80,1592.29
4250,-3.8707,1.8085,-0.7034,742.43,-1934.14,-1579.59
4260,-3.8710,1.8661,-0.6649,-507.57,1972.23,-157.65
4270,-3.8713,1.8937,-0.5768,-1132.57,-1105.77,-1188.84
4280,-3.8717,1.8462,-0.4363,-1601.32,-1824.46,-1485.53
4290,-3.8721,1.7842,-0.3334,320.56,159.85,1483.52
4300,-3.8726,1.7025,-0.3049,383.06,1331.60,796.20
4310,-3.8729,1.5602,-0.2955,1929.93,972.05,858.76
4320,-3.8730,1.4006,-0.2821,-288.82,-1825.13,-1531.86
4330,-3.8729,1.2815,-0.2683,-710.69,-106.69,-1938.11
4340,-3.8728,1.2137,-0.2501,39.31,1658.75,-1813.05
4350,-3.8728,1.1708,-0.2340,-632.57,-13.31,-766.17
4360,-3.8728,1.1296,-0.2347,1867.43,-1950.87,1437.01
4370,-3.8729,1.0824,-0.2659,601.81,1955.32,-891.11
4380,-3.8729,1.0300,-0.3214,-1445.07,1970.83,1921.33
4390,-3.8729,1.0011,-0.3893,-148.19,-1138.67,-16.30
4400,-3.8727,0.9919,-0.4603,148.68,-1826.17,-1625.79
4410,-3.8724,0.9712,-0.5098,-1023.19,1080.02,-1657.17
4420,-3.8723,0.9325,-0.5162,320.56,-1248.11,-79.16
4430,-3.8722,0.8823,-0.4910,-632.57,1923.65,811.46
4440,-3.8723,0.8342,-0.4584,945.56,1157.96,1780.27
4450,-3.8724,0.8014,-0.4292,-1210.69,1329.71,1202.21
4460,-3.8726,0.7812,-0.4139,-1413.82,1064.03,1155.40
4470,-3.8727,0.7588,-0.4138,8.06,-982.85,-1453.98
4480,-3.8727,0.7225,-0.4156,1133.06,-967.29,1046.02
4490,-3.8727,0.6748,-0.4165,492.43,-1201.72,77.27
4500,-3.8728,0.6268,-0.4282,-1616.94,-1311.22,-78.98
4510,-3.8727,0.5908,-0.4539,242.43,1188.72,1733.52
4520,-3.8726,0.5631,-0.4789,-366.94,1907.35,1170.96
4530,-3.8726,0.5359,-0.4886,86.18,-1295.78,-172.85
4540,-3.8724,0.5145,-0.4855,601.81,1454.16,108.40
4550,-3.8726,0.4984,-0.4916,1867.43,1860.35,-1500.98
4560,-3.8726,0.4849,-0.5192,-195.07,1079.04,936.52
4570,-3.8726,0.4711,-0.5596,-1929.44,1547.79,233.34
4580,-3.8726,0.4491,-0.6069,304.93,375.92,967.65
4590,-3.8724,0.4227,-0.6537,1492.43,-1686.65,592.53
4600,-3.8723,0.3958,-0.6847,-1882.57,328.92,1717.47
4610,-3.8722,0.3613,-0.7070,-1335.69,360.11,1248.66
4620,-3.8722,0.3237,-0.7444,-1741.94,1500.67,-1204.53
4630,-3.8721,0.2948,-0.8052,1445.56,719.36,295.41
4640,-3.8721,0.2766,-0.8635,1742.43,938.05,-485.96
4650,-3.8719,0.2684,-0.8839,-585.69,1469.24,-407.96
4660,-3.8718,0.2697,-0.8695,-1632.57,-1140.14,1982.60
4670,-3.8718,0.2739,-0.8550,-1476.32,703.61,-1673.58
4680,-3.8718,0.2743,-0.8624,-929.44,-1437.01,-1423.58
4690,-3.8717,0.2697,-0.8840,-882.57,1609.86,498.29
4700,-3.8717,0.2616,-0.8989,-1476.32,-1155.76,-579.90
4710,-3.8716,0.2484,-0.8895,1492.43,937.99,1216.98
4720,-3.8716,0.2271,-0.8547,-195.07,-1858.95,888.85
4730,-3.8717,0.1946,-0.8058,1070.56,-1405.82,-548.58
4740,-3.8717,0.1449,-0.7485,914.31,859.74,-1439.09
4750,-3.8717,0.0748,-0.6898,-1445.07,187.74,-657.71
4760,-3.8716,-0.0123,-0.6462,1586.18,-296.75,1920.47
4770,-3.8715,-0.1078,-0.6206,-1570.07,1296.81,1545.59
4780,-3.8713,-0.1969,-0.5959,-1788.82,577.88,1951.90
4790,-3.8712,-0.2653,-0.5554,-1195.07,-266.05,-610.60
4800,-3.8710,-0.3058,-0.5023,-1945.07,921.33,-1797.97
4810,-3.8707,-0.3175,-0.4532,867.43,-281.86,-938.54
4820,-3.8704,-0.3126,-0.4178,-632.57,1999.33,-1485.29
4830,-3.8700,-0.3243,-0.3998,-7.57,-1469.42,-735.23
4840,-3.8696,-0.3793,-0.3901,-1507.57,843.08,-1469.54
4850,-3.8694,-0.4628,-0.3719,-538.82,-1922.67,-1985.17
4860,-3.8693,-0.5359,-0.3392,773.68,405.33,889.89
4870,-3.8693,-0.5668,-0.2953,-585.69,592.65,202.45
4880,-3.8694,-0.5470,-0.2498,-538.82,-1782.41,-1672.49
4890,-3.8694,-0.4996,-0.2189,1992.43,45.78,499.51
4900,-3.8695,-0.4706,-0.2081,54.93,-0.98,-1250.49
4910,-3.8695,-0.4943,-0.2106,-226.32,1374.02,1296.45
4920,-3.8695,-0.5602,-0.2217,742.43,1061.52,187.07
4930,-3.8696,-0.6243,-0.2336,304.93,-360.47,-734.86
4940,-3.8696,-0.6544,-0.2391,101.81,-1891.85,-1781.74
4950,-3.8696,-0.6382,-0.2434,242.43,1404.97,1858.89
4960,-3.8696,-0.5808,-0.2603,-1679.44,858.09,-578.61
4970,-3.8695,-0.5105,-0.2864,1664.31,-1298.03,-1891.17
4980,-3.8695,-0.4506,-0.3007,-1335.69,-641.66,-641.24
4990,-3.8695,-0.4146,-0.2952,-1663.82,1530.33,1077.51
5000,-3.8698,-0.4095,-0.2841,-1054.44,-1766.48,-719.36
5010,-3.8699,-0.4227,-0.2817,-413.82,-344.60,280.64
5020,-3.8701,-0.4320,-0.2950,1898.68,-47.73,-844.36
5030,-3.8701,-0.4171,-0.3251,711.18,-1750.85,-1953.74
5040,-3.8700,-0.3796,-0.3641,-1382.57,-1594.60,124.33
5050,-3.8700,-0.3375,-0.3970,-585.69,1405.46,1952.39
5060,-3.8700,-0.2969,-0.4122,804.93,1202.45,1280.46
5070,-3.8701,-0.2595,-0.4039,-1991.94,-750.61,-1735.23
5080,-3.8702,-0.2271,-0.3757,-1210.69,311.95,1421.08
5090,-3.8705,-0.2004,-0.3419,-1054.44,-78.61,-1000.79
5100,-3.8706,-0.1802,-0.3191,-1648.19,249.57,499.33
5110,-3.8708,-0.1597,-0.3104,945.56,-828.49,-766.30
5120,-3.8710,-0.1365,-0.3092,-429.44,280.88,-1328.74
5130,-3.8711,-0.1171,-0.3156,-1460.69,437.19,-1609.99
5140,-3.8712,-0.1025,-0.3295,1023.68,-375.24,-1672.55
5150,-3.8713,-0.0916,-0.3469,-1116.94,1843.51,-1063.17
5160,-3.8713,-0.0830,-0.3607,289.31,-390.81,1124.27
5170,-3.8715,-0.0718,-0.3617,1383.06,1843.57,-438.23
5180,-3.8715,-0.0541,-0.3453,-1179.44,1718.57,46.14
5190,-3.8717,-0.0343,-0.3180,1086.18,-187.62,-1266.36
5200,-3.8718,-0.0204,-0.3027,-382.57,-687.62,1702.45
5210,-3.8719,-0.0140,-0.3204,1398.68,1265.56,-766.24
5220,-3.8718,-0.0063,-0.3647,-1788.82,-1000.06,61.83
5230,-3.8718,0.0090,-0.4149,-804.44,1328.06,-469.48
5240,-3.8716,0.0321,-0.4561,1164.31,-1109.38,46.02
5250,-3.8716,0.0645,-0.4777,117.43,1625.06,-485.29
5260,-3.8715,0.1025,-0.4777,258.06,-1140.50,780.27
5270,-3.8716,0.1379,-0.4661,1133.06,-1140.44,-454.10
5280,-3.8717,0.1621,-0.4500,1664.31,343.99,-188.42
5290,-3.8718,0.1622,-0.4382,758.06,-1593.44,-1422.79
5300,-3.8719,0.1414,-0.4508,773.68,-93.44,-1344.67
5310,-3.8719,0.1216,-0.4988,-1898.19,-1702.88,1702.21
5320,-3.8719,0.1132,-0.5657,-429.44,156.43,-766.60
5330,-3.8718,0.1119,-0.6304,-1507.57,-406.07,-1594.91
5340,-3.8717,0.1141,-0.6874,-1663.82,-687.32,-1579.41
5350,-3.8716,0.1211,-0.7351,-1382.57,15.81,-1485.72
5360,-3.8715,0.1478,-0.7670,-491.94,1906.43,1436.04
5370,-3.8715,0.2081,-0.7760,-1070.07,1828.37,1357.85
5380,-3.8716,0.2900,-0.7648,-1351.32,672.24,1107.85
5390,-3.8718,0.3706,-0.7501,1133.06,-1890.08,-1907.78
5400,-3.8721,0.4309,-0.7465,-554.44,-14.95,-985.90
5410,-3.8722,0.4716,-0.7550,-835.69,453.92,-767.09
5420,-3.8721,0.5159,-0.7794,367.43,-639.71,795.35
5430,-3.8719,0.5759,-0.8226,-1960.69,235.35,-1610.90
5440,-3.8717,0.6660,-0.8726,1726.81,-1295.78,1920.23
5450,-3.8715,0.8090,-0.9133,1258.06,313.78,529.54
5460,-3.8715,1.0006,-0.9241,-445.07,-904.72,-564.33
5470,-3.8715,1.2103,-0.8915,86.18,1720.70,-1642.46
5480,-3.8716,1.4078,-0.8311,-1070.07,1892.94,-1595.52
5490,-3.8717,1.5776,-0.7667,211.18,1627.75,888.98
5500,-3.8719,1.7166,-0.7085,1945.56,1862.43,-1251.53
5510,-3.8722,1.8199,-0.6504,-273.19,1315.80,-360.78
5520,-3.8724,1.8749,-0.5859,961.18,753.54,-704.41
5530,-3.8727,1.8728,-0.5013,-7.57,1003.60,-1188.66
5540,-3.8729,1.8296,-0.3937,-273.19,-168.27,-1204.16
5550,-3.8732,1.7725,-0.2831,-1804.44,1612.92,1655.46
5560,-3.8734,1.6885,-0.1998,-1116.94,-230.96,1452.51
5570,-3.8735,1.5869,-0.1677,133.06,-1574.83,-1797.30
5580,-3.8735,1.5056,-0.1761,-866.94,-1465.70,-1797.24
5590,-3.8735,1.4326,-0.1991,726.81,1456.05,-31.62
5600,-3.8733,1.3516,-0.2291,-616.94,-1481.63,1421.45
5610,-3.8730,1.2897,-0.2666,1008.06,-1325.50,-1656.74
5620,-3.8727,1.2532,-0.3152,1086.18,1877.50,890.08
5630,-3.8724,1.1978,-0.3795,414.31,-341.31,-485.05
5640,-3.8721,1.1038,-0.4655,1320.56,-575.81,1858.58
5650,-3.8717,0.9872,-0.5797,1289.31,424.01,280.33
5660,-3.8715,0.8663,-0.6948,-1632.57,1798.77,-798.03
5670,-3.8711,0.7570,-0.7581,-1101.32,-935.85,1779.85
5680,-3.8708,0.6747,-0.7383,898.68,-1029.79,467.22
5690,-3.8708,0.6317,-0.6608,-1632.57,1501.28,404.79
5700,-3.8711,0.6278,-0.5795,867.43,-576.90,-1813.84
5710,-3.8713,0.6495,-0.5291,367.43,1829.35,1483.22
5720,-3.8716,0.6879,-0.5150,-851.32,282.47,1420.84
5730,-3.8718,0.7368,-0.5311,54.93,-1920.53,-516.66
5740,-3.8718,0.7848,-0.5724,-1679.44,17.03,983.34
5750,-3.8718,0.8177,-0.6316,461.18,-1264.10,-766.78
5760,-3.8716,0.8297,-0.6886,679.93,-842.16,1311.22
5770,-3.8715,0.8235,-0.7111,-1788.82,-139.04,-704.53
5780,-3.8713,0.8036,-0.6864,1414.31,985.96,1623.60
5790,-3.8715,0.7734,-0.6320,-1132.57,142.15,-532.59
5800,-3.8716,0.7334,-0.5706,-991.94,-889.16,1873.72
5810,-3.8718,0.6881,-0.5250,1883.06,-1029.85,-829.28
5820,-3.8719,0.6476,-0.5088,86.18,798.22,1639.59
5830,-3.8721,0.6199,-0.5166,-1101.32,-1123.78,-1954.16
5840,-3.8722,0.5999,-0.5402,-648.19,1876.16,-297.91
5850,-3.8722,0.5808,-0.5725,789.31,-1139.47,-688.60
5860,-3.8721,0.5686,-0.5991,-1648.19,-1280.15,1889.47
5870,-3.8719,0.5659,-0.6111,789.31,-686.40,998.78
5880,-3.8719,0.5663,-0.6187,445.56,1782.35,-1938.72
5890,-3.8719,0.5675,-0.6294,492.43,813.60,936.28
5900,-3.8721,0.5684,-0.6455,648.68,-561.40,-1907.53
5910,-3.8722,0.5631,-0.6685,758.06,1376.10,-1720.03
5920,-3.8723,0.5505,-0.6923,86.18,-1561.40,-1220.09
5930,-3.8723,0.5356,-0.7108,-1523.19,-608.34,623.60
5940,-3.8724,0.5134,-0.7325,570.56,1016.66,-376.40
5950,-3.8724,0.4785,-0.7661,1726.81,-1764.65,-454.59
5960,-3.8723,0.4373,-0.7997,1258.06,1938.42,123.47
5970,-3.8723,0.3970,-0.8197,-23.19,1641.42,670.29
5980,-3.8723,0.3660,-0.8234,-1179.44,-921.14,935.85
5990,-3.8723,0.3488,-0.8137,-1148.19,-1389.95,1076.48
6000,-3.8723,0.3357,-0.8055,648.68,-155.58,592.10
6010,-3.8724,0.3169,-0.8121,-1023.19,891.24,-595.34
6020,-3.8724,0.2908,-0.8300,570.56,47.49,-1532.84
6030,-3.8724,0.2533,-0.8395,1226.81,1766.17,-1064.15
6040,-3.8723,0.2035,-0.8257,429.93,547.36,1763.98
6050,-3.8722,0.1503,-0.7959,-1945.07,-1687.13,-1032.90
6060,-3.8719,0.1074,-0.7653,-757.57,-1874.76,1310.91
6070,-3.8718,0.0867,-0.7427,1758.06,-1952.94,-376.53
6080,-3.8716,0.0836,-0.7323,-898.19,937.62,-1704.59
6090,-3.8713,0.0922,-0.7268,-1288.82,-1734.25,-1485.84
6100,-3.8710,0.1047,-0.7086,-195.07,-1031.13,1529.79
6110,-3.8706,0.1039,-0.6660,1414.31,1297.06,-1282.65
6120,-3.8702,0.0784,-0.6152,1304.93,-1249.82,-1188.84
6130,-3.8700,0.0077,-0.5845,-1960.69,1250.12,-1094.97
6140,-3.8699,-0.1201,-0.5676,992.43,1187.50,1358.22
6150,-3.8700,-0.2760,-0.5282,633.06,-640.87,-1469.91
6160,-3.8701,-0.4164,-0.4449,679.93,405.70,170.84
6170,-3.8705,-0.5127,-0.3372,-1288.82,-938.35,-282.17
6180,-3.8707,-0.5674,-0.2540,-1616.94,858.34,-750.67
6190,-3.8708,-0.6042,-0.2316,-616.94,-501.16,1874.45
6200,-3.8708,-0.6340,-0.2592,-1335.69,-1626.22,1999.51
6210,-3.8707,-0.6304,-0.2994,-1148.19,-1157.53,-1969.30
6220,-3.8706,-0.5713,-0.3275,-679.44,1686.22,-734.99
6230,-3.8704,-0.4895,-0.3435,-1116.94,-1907.41,1108.70
6240,-3.8702,-0.4230,-0.3553,1351.81,45.90,-938.17
6250,-3.8700,-0.3684,-0.3669,1867.43,-1469.60,186.77
6260,-3.8700,-0.3168,-0.3792,851.81,1046.14,-703.86
6270,-3.8700,-0.2744,-0.3849,-538.82,-516.30,-32.04
6280,-3.8700,-0.2554,-0.3829,883.06,-1250.55,-1172.67
6290,-3.8701,-0.2666,-0.3842,-679.44,-1000.55,-94.54
6300,-3.8702,-0.2992,-0.3909,1883.06,-1156.80,-1047.67
6310,-3.8704,-0.3290,-0.3982,1711.18,1983.76,1186.71
6320,-3.8705,-0.3308,-0.4119,1898.68,1046.20,1030.46
6330,-3.8706,-0.2971,-0.4352,1664.31,-703.80,-500.85
6340,-3.8706,-0.2433,-0.4529,1976.81,311.89,-750.85
6350,-3.8706,-0.1980,-0.4562,867.43,-1953.61,-1407.17
6360,-3.8707,-0.1797,-0.4562,-1335.69,1624.57,-79.04
6370,-3.8708,-0.1833,-0.4625,1008.06,1624.63,-688.42
6380,-3.8710,-0.1934,-0.4723,539.31,812.13,-1610.29
6390,-3.8711,-0.1938,-0.4761,-741.94,-437.93,-1938.48
6400,-3.8712,-0.1787,-0.4727,-804.44,-922.30,-1375.98
6410,-3.8712,-0.1514,-0.4674,1133.06,-484.74,124.02
6420,-3.8713,-0.1216,-0.4646,633.06,187.19,1405.33
6430,-3.8715,-0.1001,-0.4669,445.56,546.63,1624.08
6440,-3.8716,-0.0851,-0.4723,-804.44,249.76,-1797.79
6450,-3.8716,-0.0732,-0.4767,1117.43,-437.68,124.02
6460,-3.8717,-0.0685,-0.4760,-1366.94,-1000.18,-1438.48
6470,-3.8717,-0.0713,-0.4672,-757.57,-906.43,592.77
6480,-3.8718,-0.0669,-0.4552,-1116.94,218.57,-1907.17
6490,-3.8719,-0.0431,-0.4535,-554.44,1749.82,-172.79
6500,-3.8719,-0.0114,-0.4678,-1507.57,1968.63,-922.79
6510,-3.8718,0.0135,-0.4949,-1445.07,140.56,545.96
6520,-3.8717,0.0333,-0.5278,1742.43,656.25,827.15
6530,-3.8716,0.0581,-0.5570,273.68,437.56,-672.91
6540,-3.8713,0.0800,-0.5787,-554.44,703.19,1577.03
6550,-3.8712,0.0894,-0.5884,-1757.57,1922.00,1608.22
6560,-3.8712,0.1035,-0.5786,-554.44,687.62,-1829.28
6570,-3.8713,0.1268,-0.5549,1258.06,1937.68,-1298.03
6580,-3.8715,0.1476,-0.5298,242.43,968.99,1139.53
6590,-3.8716,0.1669,-0.5190,-1101.32,187.74,577.09
6600,-3.8717,0.1902,-0.5393,1367.43,1562.81,1764.59
6610,-3.8718,0.2175,-0.5801,351.81,-1030.88,-16.72
6620,-3.8718,0.2454,-0.6102,-148.19,1750.37,-32.41
6630,-3.8717,0.2682,-0.6166,-585.69,1891.05,1639.40
6640,-3.8717,0.2717,-0.6136,-1663.82,1078.61,-891.85
6650,-3.8716,0.2533,-0.6158,-1210.69,1453.61,342.53
6660,-3.8716,0.2240,-0.6221,429.93,1172.36,1905.03
6670,-3.8716,0.1996,-0.6240,679.93,375.43,-579.35
6680,-3.8716,0.2037,-0.6185,1554.93,125.37,-735.60
6690,-3.8716,0.2321,-0.6172,-1913.82,828.49,342.53
6700,-3.8717,0.2573,-0.6370,1711.18,1000.43,905.03
6710,-3.8718,0.2648,-0.6852,945.56,-1530.76,-891.91
6720,-3.8718,0.2510,-0.7524,1898.68,297.36,1170.53
6730,-3.8719,0.2180,-0.8137,133.06,-312.01,-1970.28
6740,-3.8719,0.1804,-0.8452,-85.69,-155.88,-1704.77
6750,-3.8717,0.1617,-0.8357,-898.19,-187.19,263.92
6760,-3.8715,0.1967,-0.8048,711.18,1031.56,1388.98
6770,-3.8712,0.3043,-0.7950,1179.93,984.74,998.41
6780,-3.8711,0.4625,-0.8247,-1038.82,-1765.08,435.91
6790,-3.8712,0.6387,-0.8708,-788.82,-1561.65,-79.77
6800,-3.8713,0.8098,-0.9010,1758.06,532.47,-298.58
6810,-3.8715,0.9484,-0.8918,-335.69,673.40,1873.23
6820,-3.8716,1.0260,-0.8221,1398.68,1845.58,-1720.52
6830,-3.8716,1.0642,-0.7029,-663.82,-1232.42,-267.27
6840,-3.8713,1.1152,-0.6029,226.81,-1966.67,1123.60
6850,-3.8711,1.2037,-0.5807,-1241.94,-1169.74,905.03
6860,-3.8708,1.3208,-0.6101,-1913.82,1674.19,1155.09
6870,-3.8707,1.4448,-0.6289,1070.56,1908.81,-1173.10
6880,-3.8706,1.5491,-0.6130,945.56,-497.19,14.34
6890,-3.8707,1.6047,-0.5627,-1710.69,1534.24,639.40
6900,-3.8710,1.6132,-0.4730,1414.31,-28.14,-501.16
6910,-3.8711,1.6196,-0.3604,-1507.57,-543.76,-1297.85
6920,-3.8712,1.6293,-0.2700,-679.44,1878.11,-31.98
6930,-3.8712,1.6313,-0.2303,554.93,1440.67,-719.30
6940,-3.8712,1.6135,-0.2260,820.56,-1481.20,921.39
6950,-3.8713,1.5370,-0.2184,-1460.69,-918.76,1671.39
6960,-3.8713,1.4137,-0.2061,742.43,49.87,718.32
6970,-3.8713,1.3047,-0.2131,961.18,1627.75,1780.82
6980,-3.8713,1.2437,-0.2395,-991.94,721.25,-1875.43
6990,-3.8713,1.2051,-0.2844,-804.44,1346.13,390.14
7000,-3.8715,1.1598,-0.3577,-1741.94,-403.93,-781.86
7010,-3.8713,1.0900,-0.4515,461.18,-1778.99,421.14
7020,-3.8713,0.9758,-0.5331,-476.32,-1794.80,-1188.42
7030,-3.8712,0.8123,-0.5651,914.31,-232.48,1467.65
7040,-3.8712,0.6287,-0.5262,-23.19,-326.60,-298.03
7050,-3.8712,0.4734,-0.4382,476.81,641.85,-63.54
7060,-3.8712,0.3839,-0.3539,601.81,-92.83,936.58
7070,-3.8715,0.3558,-0.3218,1148.68,-1296.14,-610.11
7080,-3.8715,0.3525,-0.3679,1554.93,-1186.83,811.83
7090,-3.8713,0.3441,-0.4751,1133.06,906.92,-485.11
7100,-3.8707,0.3208,-0.5875,54.93,-811.83,61.52
7110,-3.8702,0.2977,-0.6489,1070.56,797.49,-876.16
7120,-3.8699,0.3016,-0.6313,-1882.57,938.05,-1313.78
7130,-3.8699,0.3350,-0.5415,-1382.57,-811.95,-798.16
7140,-3.8701,0.3748,-0.4149,-1116.94,-1311.89,-485.47
7150,-3.8705,0.4083,-0.2953,-23.19,-1108.70,-547.73
7160,-3.8708,0.4425,-0.2070,273.68,-1796.08,702.51
7170,-3.8713,0.4829,-0.1492,648.68,1500.85,577.70
7180,-3.8718,0.5255,-0.1174,1820.56,907.17,1577.82
7190,-3.8722,0.5662,-0.1219,-726.32,969.73,-1453.37
7200,-3.8723,0.5963,-0.1694,476.81,391.72,1687.26
7210,-3.8723,0.6075,-0.2419,336.18,-1686.34,-1797.24
7220,-3.8722,0.6035,-0.3052,1773.68,1032.41,1202.64
7230,-3.8722,0.5886,-0.3385,1258.06,938.66,-375.61
7240,-3.8721,0.5624,-0.3530,-648.19,672.97,608.70
7250,-3.8721,0.5305,-0.3555,-7.57,-1186.46,718.02
7260,-3.8722,0.4948,-0.3359,-85.69,-1499.02,-1594.48
7270,-3.8724,0.4541,-0.3047,-663.82,1000.92,-0.67
7280,-3.8727,0.4155,-0.2883,-1866.94,1000.85,-1344.36
7290,-3.8729,0.3822,-0.3058,1195.56,-905.46,1858.76
7300,-3.8730,0.3501,-0.3549,929.93,860.11,1718.14
7310,-3.8729,0.3228,-0.4045,820.56,-1421.20,1171.14
7320,-3.8727,0.3027,-0.4319,1320.56,219.36,1624.21
7330,-3.8724,0.2874,-0.4504,-1241.94,719.30,-1219.60
7340,-3.8722,0.2761,-0.4702,789.31,-1655.70,-204.04
7350,-3.8719,0.2651,-0.4781,-648.19,-187.01,-657.23
7360,-3.8718,0.2529,-0.4648,1945.56,-1202.64,-1641.60
7370,-3.8719,0.2429,-0.4349,383.06,500.49,-875.92
7380,-3.8722,0.2368,-0.4138,-898.19,328.55,-141.48
7390,-3.8723,0.2310,-0.4312,-1679.44,-968.32,1249.15
7400,-3.8724,0.2244,-0.4790,1570.56,812.93,-1313.35
7410,-3.8723,0.2234,-0.5247,726.81,-1312.07,77.15
7420,-3.8723,0.2296,-0.5555,601.81,844.18,-1063.54
7430,-3.8722,0.2377,-0.5861,1398.68,891.05,1655.15
7440,-3.8721,0.2410,-0.6342,-1570.07,984.80,280.09
7450,-3.8721,0.2333,-0.6987,-1148.19,-1171.45,-470.03
7460,-3.8718,0.2122,-0.7600,1867.43,-1437.07,467.35
7470,-3.8717,0.1866,-0.8051,-835.69,-1280.88,-173.40
7480,-3.8713,0.1680,-0.8326,-101.32,953.43,1217.16
7490,-3.8711,0.1583,-0.8402,1508.06,1422.18,-1267.27
7500,-3.8708,0.1505,-0.8284,273.68,453.43,-751.65
7510,-3.8706,0.1301,-0.8015,-726.32,1968.99,-517.27
7520,-3.8704,0.0876,-0.7631,664.31,1406.49,-517.21
7530,-3.8701,0.0237,-0.7133,-773.19,-1671.75,-1564.03
7540,-3.8699,-0.0562,-0.6515,-960.69,703.12,92.35
7550,-3.8698,-0.1427,-0.5889,820.56,624.88,701.84
7560,-3.8696,-0.2208,-0.5363,1742.43,640.32,686.34
7570,-3.8696,-0.2786,-0.4912,-257.57,-625.49,-813.60
7580,-3.8696,-0.3152,-0.4443,351.81,1140.08,-1063.48
7590,-3.8696,-0.3398,-0.3840,-335.69,-860.05,92.83
7600,-3.8699,-0.3638,-0.3081,508.06,-1141.30,-375.79
7610,-3.8700,-0.3927,-0.2358,1445.56,577.39,-828.74
7620,-3.8700,-0.4275,-0.1963,1742.43,1827.33,640.14
7630,-3.8700,-0.4525,-0.1884,1289.31,-1110.23,952.70
7640,-3.8700,-0.4440,-0.1937,-1913.82,-94.67,-422.30
7650,-3.8699,-0.4099,-0.2186,-820.07,-782.17,-1094.18
7660,-3.8698,-0.3600,-0.2563,-460.69,30.40,1671.45
7670,-3.8698,-0.2946,-0.2776,1929.93,-797.61,-281.80
7680,-3.8696,-0.2366,-0.2720,-1695.07,483.76,1311.95
7690,-3.8696,-0.2013,-0.2550,1726.81,1202.64,-1531.80
7700,-3.8696,-0.1886,-0.2505,-1757.57,-625.43,-1766.17
7710,-3.8698,-0.1976,-0.2635,-132.57,-47.30,-281.80
7720,-3.8699,-0.2175,-0.2859,-1288.82,-1719.18,-109.92
7730,-3.8699,-0.2313,-0.3088,164.31,-578.55,46.26
7740,-3.8700,-0.2289,-0.3224,-1601.32,483.89,577.51
7750,-3.8701,-0.2131,-0.3260,-1288.82,-1250.49,1452.45
7760,-3.8702,-0.1953,-0.3287,726.81,-1719.18,-1297.55
7770,-3.8702,-0.1857,-0.3335,-991.94,1937.07,296.20
7780,-3.8704,-0.1862,-0.3427,242.43,1327.76,1843.08
7790,-3.8705,-0.1891,-0.3556,179.93,155.88,-1938.17
7800,-3.8706,-0.1858,-0.3611,-195.07,-1500.43,499.27
7810,-3.8708,-0.1731,-0.3527,226.81,1796.51,-1391.36
7820,-3.8710,-0.1550,-0.3427,1851.81,-1125.37,1905.52
7830,-3.8711,-0.1400,-0.3466,164.31,155.94,-1453.80
7840,-3.8711,-0.1290,-0.3643,-1913.82,-344.06,561.77
7850,-3.8711,-0.1185,-0.3871,-507.57,1390.32,327.39
7860,-3.8711,-0.1143,-0.4084,836.18,-1531.49,1077.33
7870,-3.8711,-0.1130,-0.4288,1383.06,-265.87,1905.40
7880,-3.8711,-0.1017,-0.4526,1539.31,1124.76,-953.98
7890,-3.8710,-0.0808,-0.4740,-1007.57,-1922.12,389.71
7900,-3.8710,-0.0616,-0.4796,1664.31,-656.43,624.02
7910,-3.8711,-0.0460,-0.4657,117.43,-1375.12,-1157.23
7920,-3.8712,-0.0270,-0.4453,-1882.57,406.13,-172.79
7930,-3.8712,-0.0046,-0.4349,554.93,-984.44,983.46
7940,-3.8713,0.0159,-0.4408,-585.69,343.69,-1000.85
7950,-3.8713,0.0278,-0.4618,-1960.69,-421.88,1577.21
7960,-3.8713,0.0297,-0.4917,-429.44,890.62,608.46
7970,-3.8713,0.0352,-0.5201,-195.07,1062.50,624.02
7980,-3.8713,0.0609,-0.5404,508.06,1421.94,967.71
7990,-3.8713,0.1063,-0.5483,-195.07,-1171.81,1061.40
8000,-3.8713,0.1632,-0.5416,1617.43,1812.68,1858.28
8010,-3.8713,0.2249,-0.5195,898.68,-1327.82,-1344.85
8020,-3.8713,0.2833,-0.4869,789.31,1500.43,889.59
8030,-3.8716,0.3270,-0.4559,273.68,1672.42,-47.85
8040,-3.8717,0.3562,-0.4343,1867.43,1641.24,1514.71
8050,-3.8719,0.3826,-0.4227,1601.81,406.92,-938.35
8060,-3.8721,0.4103,-0.4119,976.81,1891.36,983.52
8070,-3.8722,0.4354,-0.3948,523.68,-717.96,171.02
8080,-3.8723,0.4530,-0.3859,-257.57,1469.54,-1500.79
8090,-3.8722,0.4653,-0.4021,1992.43,-1389.77,608.58
8100,-3.8721,0.4722,-0.4347,-429.44,532.10,983.58
8110,-3.8719,0.4698,-0.4655,445.56,360.29,-1750.85
8120,-3.8718,0.4553,-0.4910,148.68,422.79,-1157.17
8130,-3.8717,0.4338,-0.5122,-1710.69,1157.10,1811.52
8140,-3.8717,0.4122,-0.5205,-460.69,-1561.71,-844.79
8150,-3.8717,0.3871,-0.5143,773.68,1375.79,-1126.04
8160,-3.8717,0.3568,-0.5110,1554.93,-1827.39,1858.34
8170,-3.8717,0.3320,-0.5277,1679.93,-1405.58,1483.34
8180,-3.8717,0.3242,-0.5619,-1491.94,453.74,-1704.16
8190,-3.8717,0.3291,-0.5978,1508.06,78.74,-172.97
8200,-3.8716,0.3334,-0.6250,-1866.94,-515.01,717.53
8210,-3.8716,0.3324,-0.6447,-1320.07,0.61,655.03
8220,-3.8716,0.3363,-0.6639,-1445.07,1484.99,811.22
8230,-3.8716,0.3579,-0.6863,-945.07,-983.76,-1938.84
8240,-3.8715,0.3965,-0.7140,1820.56,156.92,373.66
8250,-3.8715,0.4435,-0.7450,-1241.94,610.11,-657.65
8260,-3.8713,0.5006,-0.7661,773.68,641.48,-1782.71
8270,-3.8713,0.5646,-0.7727,86.18,1938.48,-95.28
8280,-3.8713,0.6326,-0.7684,273.68,1094.85,-189.03
8290,-3.8713,0.7175,-0.7526,976.81,1641.85,-829.65
8300,-3.8713,0.8196,-0.7333,-148.19,-326.78,-735.90
8310,-3.8713,0.9344,-0.7231,914.31,-1857.79,-376.46
8320,-3.8713,1.0614,-0.7181,-382.57,-560.73,-1188.96
8330,-3.8713,1.1746,-0.6973,-132.57,80.14,811.10
8340,-3.8715,1.2537,-0.6501,-1648.19,-1247.74,-1423.28
8350,-3.8715,1.2986,-0.5874,476.81,783.69,29.97
8360,-3.8716,1.3252,-0.5222,-1773.19,815.00,1733.22
8370,-3.8716,1.3584,-0.4611,1633.06,1158.81,280.21
8380,-3.8717,1.3918,-0.4059,1883.06,987.00,-172.79
8390,-3.8716,1.3947,-0.3580,-1835.69,49.56,249.21
8400,-3.8716,1.3678,-0.3267,-1476.32,-1825.44,421.14
8410,-3.8717,1.3612,-0.3196,-913.82,-1809.88,-1266.30
8420,-3.8717,1.3677,-0.3209,-1757.57,-903.63,1046.20
8430,-3.8717,1.3416,-0.3275,-929.44,-1075.50,1296.20
8440,-3.8717,1.3022,-0.3528,-273.19,-1919.31,218.08
8450,-3.8718,1.2559,-0.3666,-1304.44,-1153.75,1780.52
8460,-3.8718,1.1755,-0.3457,758.06,1080.57,1608.64
8470,-3.8718,1.0857,-0.3279,-1523.19,-247.74,-1516.36
8480,-3.8718,1.0189,-0.3420,-1023.19,-1966.67,1186.83
8490,-3.8719,0.9729,-0.3684,-1570.07,220.70,1858.70
8500,-3.8721,0.9379,-0.3912,539.31,845.64,-1485.11
8510,-3.8721,0.8936,-0.4176,54.93,1923.71,1499.21
8520,-3.8719,0.8315,-0.4471,-1616.94,-1451.42,1124.15
8530,-3.8717,0.7653,-0.4771,-1554.44,-1232.79,1202.21
8540,-3.8715,0.7079,-0.5038,1961.18,-1061.04,-954.10
8550,-3.8712,0.6699,-0.5140,-1382.57,-483.03,-532.29
8560,-3.8711,0.6549,-0.4979,1758.06,-1795.59,-157.29
8570,-3.8711,0.6580,-0.4636,-163.82,266.85,-985.35
8580,-3.8712,0.6716,-0.4275,226.81,657.53,1983.46
8590,-3.8715,0.6825,-0.4071,1976.81,1282.53,-657.10
8600,-3.8716,0.6779,-0.4194,-632.57,-108.09,-1875.85
8610,-3.8716,0.6605,-0.4611,-1226.32,-1686.22,186.65
8620,-3.8716,0.6401,-0.5068,554.93,985.66,1030.33
8630,-3.8716,0.6178,-0.5376,1945.56,-873.78,-1376.04
8640,-3.8716,0.5916,-0.5547,-913.82,-811.34,-485.47
8650,-3.8716,0.5637,-0.5662,-273.19,1001.10,-422.97
8660,-3.8716,0.5372,-0.5720,164.31,-467.65,-1079.28
8670,-3.8716,0.5111,-0.5645,773.68,-1217.71,1436.34
8680,-3.8717,0.4781,-0.5402,1429.93,-249.02,1951.97
8690,-3.8718,0.4425,-0.5087,1211.18,-1139.71,233.28
8700,-3.8721,0.4153,-0.4821,648.68,-1108.52,-1735.41
8710,-3.8722,0.3947,-0.4648,1164.31,-1702.33,905.27
8720,-3.8724,0.3716,-0.4598,-1476.32,500.73,-0.92
8730,-3.8724,0.3395,-0.4708,-429.44,1141.30,545.96
8740,-3.8726,0.2971,-0.4910,-538.82,-265.01,-204.10
8750,-3.8724,0.2483,-0.5028,-1960.69,1156.80,1233.40
8760,-3.8724,0.2032,-0.4937,-210.69,-358.95,-782.29
8770,-3.8723,0.1786,-0.4667,-1976.32,812.87,686.52
8780,-3.8723,0.1750,-0.4340,-1132.57,265.93,1170.96
8790,-3.8723,0.1770,-0.4025,-1585.69,453.43,155.40
8800,-3.8724,0.1711,-0.3744,-1335.69,484.68,1546.08
8810,-3.8726,0.1573,-0.3553,1914.31,78.43,1514.89
8820,-3.8727,0.1467,-0.3578,148.68,-1484.07,858.64
8830,-3.8728,0.1411,-0.3888,-1210.69,-1796.63,-1844.48
8840,-3.8727,0.1367,-0.4310,-1929.44,-1765.38,546.08
8850,-3.8726,0.1393,-0.4545,1508.06,828.37,-750.85
8860,-3.8723,0.1532,-0.4519,1836.18,1828.37,-1938.42
8870,-3.8722,0.1753,-0.4425,-382.57,-1843.51,-1375.92
8880,-3.8721,0.2003,-0.4442,-1554.44,-640.32,967.83
8890,-3.8721,0.2220,-0.4615,1648.68,-859.01,1702.21
8900,-3.8721,0.2313,-0.4950,429.93,922.30,1233.46
8910,-3.8722,0.2158,-0.5380,1617.43,641.05,-532.23
8920,-3.8722,0.1709,-0.5743,-366.94,-859.01,483.28
8930,-3.8723,0.1084,-0.5924,1883.06,-1515.32,1576.97
8940,-3.8723,0.0533,-0.6006,1883.06,172.06,1014.47
8950,-3.8722,0.0250,-0.6240,-1163.82,-874.94,967.53
8960,-3.8719,0.0253,-0.6763,-788.82,125.00,-1844.97
8970,-3.8716,0.0420,-0.7472,-757.57,1437.50,-1579.47
8980,-3.8712,0.0490,-0.8165,1383.06,359.44,-392.09
8990,-3.8707,0.0238,-0.8676,-1726.32,-515.56,1467.10
9000,-3.8704,-0.0393,-0.8986,-945.07,953.12,-517.33
9010,-3.8699,-0.1328,-0.9089,-1023.19,999.88,1107.60
9020,-3.8695,-0.2396,-0.8868,-991.94,-328.43,1748.17
9030,-3.8691,-0.3533,-0.8259,1336.18,-1500.49,404.48
9040,-3.8690,-0.4724,-0.7346,-1210.69,-1703.86,-673.52
9050,-3.8689,-0.5890,-0.6266,-460.69,1983.40,436.04
9060,-3.8691,-0.6904,-0.5181,617.43,-188.66,-1516.91
9070,-3.8695,-0.7515,-0.4172,-366.94,1701.72,-1391.66
9080,-3.8699,-0.7528,-0.3250,-179.44,-1392.15,1358.52
9090,-3.8702,-0.7211,-0.2609,-351.32,-1579.65,-656.92
9100,-3.8704,-0.6970,-0.2466,-288.82,-1376.46,-1516.17
9110,-3.8704,-0.6871,-0.2650,-1210.69,451.72,-1859.86
9120,-3.8702,-0.6886,-0.2795,54.93,-1907.59,671.33
9130,-3.8701,-0.7004,-0.2933,-132.57,232.97,780.70
9140,-3.8700,-0.6956,-0.3224,-1648.19,-1532.65,1061.89
9150,-3.8699,-0.6417,-0.3491,-1023.19,-1251.40,264.95
9160,-3.8699,-0.5420,-0.3545,1867.43,-673.16,-1891.36
9170,-3.8699,-0.4247,-0.3486,-1366.94,-1360.47,-1594.48
9180,-3.8699,-0.3159,-0.3457,1648.68,-610.23,1514.89
9190,-3.8699,-0.2383,-0.3413,-429.44,-235.05,61.77
9200,-3.8700,-0.2125,-0.3287,1508.06,327.64,1796.20
9210,-3.8701,-0.2416,-0.3179,804.93,1937.07,-1078.80
9220,-3.8701,-0.3024,-0.3223,1086.18,-672.36,124.33
9230,-3.8702,-0.3534,-0.3453,1304.93,-1234.99,1421.20
9240,-3.8704,-0.3701,-0.3828,-1226.32,-188.23,-1610.11
9250,-3.8705,-0.3549,-0.4211,633.06,-985.11,-500.79
9260,-3.8705,-0.3207,-0.4534,-1413.82,-1891.36,936.65
9270,-3.8706,-0.2854,-0.4810,-1038.82,1983.70,-1875.92
9280,-3.8707,-0.2621,-0.4934,-523.19,-1547.49,-1563.48
9290,-3.8708,-0.2505,-0.4801,-1538.82,858.83,1795.90
9300,-3.8710,-0.2462,-0.4575,-54.44,-1438.05,670.90
9310,-3.8712,-0.2548,-0.4543,492.43,1452.64,-438.42
9320,-3.8713,-0.2706,-0.4760,-601.32,1858.83,-407.17
9330,-3.8713,-0.2729,-0.5070,1367.43,-906.80,1186.52
9340,-3.8713,-0.2499,-0.5356,1070.56,-875.55,30.21
9350,-3.8715,-0.2064,-0.5582,23.68,-547.36,-376.10
9360,-3.8715,-0.1575,-0.5729,1586.18,562.07,-1110.47
9370,-3.8715,-0.1136,-0.5703,-148.19,-1312.87,1530.09
9380,-3.8715,-0.0793,-0.5474,1461.18,-984.62,123.84
9390,-3.8716,-0.0532,-0.5234,1851.81,1952.94,-1047.97
9400,-3.8716,-0.0342,-0.5208,1195.56,1015.50,-1907.29
9410,-3.8716,-0.0223,-0.5416,-366.94,1359.25,1764.59
9420,-3.8716,-0.0109,-0.5732,1148.68,-1312.56,1561.40
9430,-3.8716,0.0090,-0.6031,-1382.57,-1359.44,780.09
9440,-3.8716,0.0360,-0.6246,1164.31,-1203.12,92.53
9450,-3.8716,0.0649,-0.6261,617.43,46.94,670.65
9460,-3.8716,0.0931,-0.6031,320.56,-140.50,1201.84
9470,-3.8717,0.1183,-0.5782,-70.07,-1203.00,-876.22
9480,-3.8718,0.1389,-0.5758,-851.32,1984.56,-1501.16
9490,-3.8719,0.1543,-0.5912,1789.31,-1702.88,1811.34
9500,-3.8721,0.1582,-0.6079,-241.94,328.37,-1548.03
9510,-3.8722,0.1464,-0.6250,258.06,-1812.19,-204.35
9520,-3.8722,0.1267,-0.6460,-1257.57,0.24,1201.90
9530,-3.8723,0.1190,-0.6687,226.81,1312.74,-876.28
9540,-3.8723,0.1317,-0.6909,-757.57,-1593.57,-1204.47
9550,-3.8722,0.1539,-0.7079,867.43,-437.26,311.10
9560,-3.8722,0.1757,-0.7186,-288.82,1390.87,1561.10
9570,-3.8722,0.1934,-0.7338,-1507.57,15.93,1092.35
9580,-3.8723,0.2031,-0.7693,758.06,-1921.51,-126.46
9590,-3.8722,0.1975,-0.8290,-1991.94,1531.62,201.60
9600,-3.8722,0.1730,-0.8945,1289.31,1890.99,-923.52
9610,-3.8721,0.1305,-0.9376,-1851.32,1500.31,-1392.40
9620,-3.8719,0.0833,-0.9487,711.18,-15.38,201.23
9630,-3.8721,0.0524,-0.9595,-1335.69,-1437.38,-1033.14
9640,-3.8721,0.0560,-1.0021,-1288.82,1187.56,435.61
9650,-3.8722,0.1085,-1.0643,-820.07,-265.56,-1064.51
9660,-3.8722,0.2051,-1.1152,1898.68,-234.19,-345.89
9670,-3.8721,0.3322,-1.1436,-1741.94,1250.37,1904.05
9680,-3.8719,0.4767,-1.1589,-1476.32,1625.61,435.24
9690,-3.8718,0.6326,-1.1571,1023.68,-342.83,575.81
9700,-3.8717,0.8063,-1.1453,976.81,-108.15,-1205.44
9710,-3.8715,0.9891,-1.1322,-788.82,1407.78,1185.24
9720,-3.8713,1.1646,-1.1091,-1382.57,-919.98,1935.24
9730,-3.8712,1.3301,-1.0723,1070.56,-1966.49,29.05
9740,-3.8712,1.4880,-1.0265,-1741.94,-1247.44,200.99
9750,-3.8713,1.6245,-0.9703,-1523.19,612.24,-1377.01
9760,-3.8713,1.7070,-0.8792,-54.44,-200.01,357.42
9770,-3.8715,1.7244,-0.7577,-1491.94,-527.95,-861.15
9780,-3.8715,1.7090,-0.6501,726.81,-981.02,1982.85
9790,-3.8716,1.7021,-0.5725,-1241.94,784.55,-32.53
9800,-3.8716,1.7124,-0.5140,1883.06,-1277.95,686.34
9810,-3.8717,1.7169,-0.4972,-804.44,-1793.58,889.59
9820,-3.8718,1.6943,-0.5134,-226.32,362.67,-829.10
9830,-3.8717,1.6282,-0.5139,883.06,-1715.45,764.59
9840,-3.8716,1.5068,-0.4985,414.31,-1778.08,342.71
9850,-3.8716,1.3613,-0.4932,883.06,190.43,-1360.35
9860,-3.8716,1.2443,-0.5026,-1741.94,877.62,-1688.48
9870,-3.8716,1.1613,-0.5330,-726.32,-325.74,717.71
9880,-3.8717,1.0759,-0.5977,648.68,-216.49,-1.10
9890,-3.8716,0.9594,-0.6871,1726.81,-497.92,-329.35
9900,-3.8713,0.8146,-0.7670,-1195.07,48.71,-95.09
9910,-3.8711,0.6747,-0.7999,273.68,1829.71,-626.53
9920,-3.8710,0.5791,-0.7651,-1632.57,1610.66,1951.54
9930,-3.8711,0.5336,-0.6810,-1866.94,-1936.40,-439.03
9940,-3.8712,0.5055,-0.5909,304.93,829.16,-1688.84
9950,-3.8713,0.4629,-0.5286,711.18,360.35,139.47
9960,-3.8716,0.3916,-0.5056,-741.94,344.60,-1704.16
9970,-3.8717,0.2958,-0.5137,-1866.94,-718.02,-1610.41
9980,-3.8717,0.1938,-0.5417,1867.43,-1749.45,-1719.79
9990,-3.8716,0.1023,-0.5907,820.56,-1343.38,-469.85
10000,-3.8712,0.0358,-0.6473,1101.81,390.81,1717.59
10010,-3.8708,0.0089,-0.6710,586.18,1140.69,811.22
10020,-3.8707,0.0226,-0.6307,1148.68,-1890.62,-1329.47
10030,-3.8707,0.0654,-0.5377,-1101.32,-734.38,467.47
10040,-3.8710,0.1206,-0.4243,383.06,-828.00,608.28
10050,-3.8713,0.1763,-0.3325,-554.44,1687.68,-1219.60
10060,-3.8716,0.2377,-0.2983,-1429.44,1437.81,1093.08
10070,-3.8718,0.2926,-0.3103,-1570.07,1812.93,93.14
10080,-3.8721,0.3193,-0.3280,1461.18,281.80,171.26
10090,-3.8722,0.3448,-0.3199,883.06,-1983.76,389.95
10100,-3.8722,0.3792,-0.2963,148.68,-952.45,-1500.67
10110,-3.8719,0.3883,-0.2889,539.31,-1921.14,499.39
10120,-3.8718,0.3795,-0.3110,1711.18,-983.64,-47.49
10130,-3.8716,0.3771,-0.3486,586.18,188.23,1358.76
10140,-3.8716,0.3939,-0.3650,273.68,-624.27,-1391.36
10150,-3.8716,0.4346,-0.3525,-1570.07,1281.98,327.39
10160,-3.8717,0.4611,-0.3503,-366.94,-1124.21,436.77
10170,-3.8718,0.4376,-0.3890,-976.32,-842.90,1952.39
10180,-3.8718,0.3767,-0.4387,23.68,-1796.02,-813.29
10190,-3.8717,0.3102,-0.4485,226.81,-155.52,1952.21
10200,-3.8717,0.2654,-0.4213,-288.82,-1405.70,-1907.17
10210,-3.8718,0.2545,-0.3922,1976.81,-1921.39,-1219.60
10220,-3.8719,0.2683,-0.3900,586.18,1797.36,1811.71
10230,-3.8721,0.2869,-0.4302,-1648.19,-1921.39,1327.33
10240,-3.8722,0.2941,-0.4944,726.81,938.05,-438.35
10250,-3.8722,0.2882,-0.5334,1648.68,719.30,-32.23
10260,-3.8722,0.2694,-0.5393,898.68,-280.70,1608.28
10270,-3.8724,0.2283,-0.5559,-1507.57,-1030.76,1514.53
10280,-3.8728,0.1656,-0.5884,1226.81,844.18,-1829.22
10290,-3.8732,0.0930,-0.5900,1211.18,687.81,-594.91
10300,-3.8733,0.0154,-0.5593,-85.69,484.50,311.34
10310,-3.8733,-0.0618,-0.5472,1976.81,406.25,108.28
10320,-3.8730,-0.1310,-0.5715,101.81,1968.63,170.78
10330,-3.8727,-0.1830,-0.6204,-757.57,-1140.93,1483.22
10340,-3.8723,-0.2115,-0.6895,586.18,609.01,-563.72
10350,-3.8719,-0.2266,-0.7661,929.93,-234.80,-1157.65
10360,-3.8717,-0.2427,-0.8055,-991.94,1952.64,-1220.28
10370,-3.8715,-0.2661,-0.7795,945.56,905.76,185.91
10380,-3.8713,-0.2950,-0.7238,1945.56,233.83,435.97
10390,-3.8712,-0.3279,-0.6819,-1757.57,-625.61,701.66
10400,-3.8711,-0.3765,-0.6576,-1960.69,733.70,1623.66
10410,-3.8708,-0.4407,-0.6284,-179.44,-157.04,14.28
10420,-3.8707,-0.5028,-0.5770,-398.19,-422.79,-141.91
10430,-3.8705,-0.5515,-0.5045,-351.32,-1844.79,-32.41
10440,-3.8702,-0.5824,-0.4229,1414.31,-563.60,-1094.79
10450,-3.8701,-0.6047,-0.3436,1461.18,1889.47,-1313.35
10460,-3.8701,-0.6362,-0.2697,-1398.19,30.03,-1938.17
10470,-3.8702,-0.6750,-0.1946,-1429.44,1498.72,-922.42
10480,-3.8702,-0.7025,-0.1274,1601.81,-891.97,-1641.05
10490,-3.8701,-0.7117,-0.1051,-1913.82,-298.28,-1297.18
10500,-3.8699,-0.7103,-0.1356,914.31,-1438.90,-1593.99
10510,-3.8696,-0.7096,-0.1700,1086.18,-1345.15,1734.07
10520,-3.8695,-0.7148,-0.1707,1179.93,-1751.40,-1375.37
10530,-3.8694,-0.7156,-0.1508,508.06,-1829.53,1749.63
10540,-3.8693,-0.6982,-0.1421,414.31,717.35,952.82
10550,-3.8691,-0.6646,-0.1556,-1366.94,1826.72,140.32
10560,-3.8691,-0.6224,-0.1764,-1054.44,92.41,1921.57
10570,-3.8691,-0.5856,-0.1841,336.18,1436.28,734.01
10580,-3.8694,-0.5668,-0.1724,1054.93,451.97,-78.49
10590,-3.8695,-0.5634,-0.1550,-538.82,1951.97,984.01
10600,-3.8698,-0.5647,-0.1533,-101.32,170.72,-1656.56
10610,-3.8699,-0.5627,-0.1663,-273.19,389.47,1671.57
10620,-3.8700,-0.5532,-0.1796,-23.19,-1266.78,-281.62
10630,-3.8700,-0.5369,-0.1979,1195.56,1030.15,-15.99
10640,-3.8699,-0.5199,-0.2297,-710.69,-1313.60,1108.95
10650,-3.8699,-0.5068,-0.2701,1461.18,-1391.66,1608.89
10660,-3.8699,-0.4998,-0.3062,-866.94,1436.46,780.70
10670,-3.8700,-0.4996,-0.3252,39.31,827.15,-1188.11
10680,-3.8701,-0.5035,-0.3274,54.93,-1610.35,-1094.42
10690,-3.8702,-0.5032,-0.3206,-445.07,-1891.66,93.08
10700,-3.8706,-0.4941,-0.3105,-398.19,-1016.66,-547.55
10710,-3.8708,-0.4805,-0.3094,758.06,264.65,-906.86
10720,-3.8710,-0.4650,-0.3243,-1491.94,405.27,390.01
10730,-3.8712,-0.4491,-0.3386,492.43,-1500.92,-219.42
10740,-3.8712,-0.4332,-0.3441,-1476.32,670.96,1171.20
10750,-3.8712,-0.4186,-0.3589,554.93,-32.10,155.52
10760,-3.8712,-0.4032,-0.3889,-1570.07,-1922.73,764.89
10770,-3.8712,-0.3867,-0.4139,398.68,-1766.42,-1688.29
10780,-3.8712,-0.3682,-0.4176,-1491.94,-969.54,-1000.85
10790,-3.8712,-0.3447,-0.4062,883.06,-1438.23,1483.52
10800,-3.8713,-0.3214,-0.3949,-116.94,14.89,-1953.92
10810,-3.8715,-0.3033,-0.3909,-1132.57,1468.08,-1813.29
10820,-3.8716,-0.2902,-0.4025,1179.93,1983.76,-969.54
10830,-3.8716,-0.2775,-0.4290,-1132.57,499.39,796.08
10840,-3.8717,-0.2626,-0.4501,492.43,1108.83,-1172.73
10850,-3.8717,-0.2473,-0.4534,-1601.32,-1594.30,577.21
10860,-3.8718,-0.2343,-0.4535,351.81,1983.89,-1500.92
10870,-3.8718,-0.2281,-0.4720,-1976.32,1968.26,-1954.04
10880,-3.8717,-0.2261,-0.5112,-1195.07,-406.74,217.77
10890,-3.8717,-0.2126,-0.5474,-929.44,-1422.36,-688.54
10900,-3.8716,-0.1764,-0.5520,789.31,1952.70,217.65
10910,-3.8717,-0.1215,-0.5239,1429.93,1359.01,1530.15
10920,-3.8718,-0.0671,-0.4915,461.18,952.88,639.59
10930,-3.8719,-0.0261,-0.4789,-585.69,1109.19,249.02
10940,-3.8721,0.0024,-0.4830,664.31,-1281.31,1342.77
10950,-3.8722,0.0206,-0.4883,320.56,-1828.12,-313.48
10960,-3.8722,0.0350,-0.4960,-1351.32,1500.00,-719.73
10970,-3.8722,0.0526,-0.5138,492.43,515.69,-563.48
10980,-3.8722,0.0688,-0.5375,-1257.57,-1765.56,-1360.41
10990,-3.8722,0.0729,-0.5731,820.56,-796.75,1217.65
11000,-3.8722,0.0638,-0.6255,1336.18,-1359.25,311.34
11010,-3.8723,0.0504,-0.6653,179.93,-62.38,-360.66
11020,-3.8723,0.0438,-0.6639,-1538.82,-1156.19,-1298.22
11030,-3.8723,0.0486,-0.6321,1617.43,-984.31,1045.53
11040,-3.8724,0.0604,-0.6053,-1773.19,-906.19,-345.03
11050,-3.8723,0.0759,-0.6149,-257.57,-1484.31,1092.53
11060,-3.8722,0.0923,-0.6677,1726.81,1297.00,-1532.47
11070,-3.8719,0.1008,-0.7434,-179.44,-1468.63,-1641.97
11080,-3.8717,0.1107,-0.8148,914.31,843.93,-1267.09
11090,-3.8715,0.1373,-0.8751,-1820.07,-296.69,1138.98
11100,-3.8713,0.1659,-0.9209,1586.18,-15.38,1295.10
11110,-3.8712,0.1821,-0.9445,1242.43,-1874.69,-1486.21
11120,-3.8710,0.2113,-0.9647,-679.44,-890.32,1888.73
11130,-3.8707,0.3007,-1.0164,-945.07,515.99,1982.48
11140,-3.8705,0.4636,-1.1013,-1507.57,1906.80,1997.99
11150,-3.8702,0.6851,-1.1742,-648.19,-967.90,-1705.32
11160,-3.8700,0.9559,-1.1941,-304.44,1704.41,-1642.94
11170,-3.8699,1.2538,-1.1682,-1632.57,-841.92,-1330.51
11180,-3.8700,1.5200,-1.1069,492.43,-1528.81,-252.32
11190,-3.8702,1.6858,-0.9946,-1429.44,-1684.57,1997.80
11200,-3.8706,1.7328,-0.8232,-210.69,690.73,310.55
11210,-3.8711,1.7050,-0.6487,1804.93,-1371.64,1326.48
11220,-3.8715,1.6630,-0.5076,-1757.57,972.05,889.34
11230,-3.8717,1.6458,-0.4276,867.43,-965.52,764.59
11240,-3.8719,1.6428,-0.4307,-1335.69,1268.80,124.15
11250,-3.8722,1.6283,-0.4294,-1710.69,878.17,530.40
11260,-3.8723,1.5789,-0.3745,429.93,1034.42,-532.10
11270,-3.8722,1.4866,-0.3295,-1898.19,65.55,-1438.23
11280,-3.8721,1.3728,-0.3583,-1710.69,1830.99,1561.83
11290,-3.8721,1.2562,-0.4407,-273.19,-1856.75,-1860.11
11300,-3.8721,1.1487,-0.5215,804.93,-403.81,264.71
11310,-3.8722,1.0459,-0.5897,-960.69,1252.20,764.59
11320,-3.8723,0.9423,-0.6609,1883.06,517.64,-1923.03
11330,-3.8723,0.8400,-0.7323,617.43,-591.92,-1782.59
11340,-3.8722,0.7325,-0.7852,-476.32,-1732.79,623.54
11350,-3.8722,0.6287,-0.8087,1773.68,-498.60,-142.21
11360,-3.8721,0.5585,-0.8114,476.81,485.60,1826.54
11370,-3.8721,0.5342,-0.8080,-507.57,141.66,1639.04
11380,-3.8721,0.5428,-0.8065,383.06,579.16,482.79
11390,-3.8722,0.5629,-0.8135,1492.43,766.66,-517.21
11400,-3.8722,0.5776,-0.8347,54.93,-123.90,-1282.90
11410,-3.8722,0.5795,-0.8649,1945.56,1157.35,-1986.02
11420,-3.8722,0.5658,-0.8962,-1820.07,1297.97,1904.54
11430,-3.8722,0.5431,-0.9296,429.93,1282.35,-142.40
11440,-3.8721,0.5254,-0.9634,1523.68,1016.66,-204.96
11450,-3.8719,0.5074,-0.9922,-741.94,688.48,-517.52
11460,-3.8718,0.4755,-1.0118,961.18,1000.98,-1814.45
11470,-3.8717,0.4342,-1.0265,867.43,-1514.71,497.99
11480,-3.8717,0.4011,-1.0354,-413.82,610.17,-1455.14
11490,-3.8716,0.3865,-1.0261,-648.19,-530.52,60.42
11500,-3.8716,0.3813,-0.9966,1476.81,656.98,1029.24
11510,-3.8716,0.3678,-0.9762,820.56,438.23,1482.42
11520,-3.8716,0.3485,-0.9907,-913.82,-952.45,1279.30
11530,-3.8716,0.3405,-1.0300,617.43,1188.17,248.05
11540,-3.8717,0.3218,-1.0634,-413.82,156.86,1404.24
11550,-3.8718,0.2773,-1.0763,1195.56,-108.76,1044.74
11560,-3.8719,0.2357,-1.0754,-491.94,-1765.14,-1299.01
11570,-3.8718,0.2260,-1.0546,-1820.07,-1655.82,482.24
11580,-3.8718,0.2555,-1.0243,929.93,1016.05,-267.70
11590,-3.8717,0.3112,-1.0121,711.18,891.11,1591.74
11600,-3.8717,0.3733,-1.0239,-163.82,-1546.33,1326.11
11610,-3.8718,0.4110,-1.0413,-210.69,938.17,-1564.51
11620,-3.8719,0.4021,-1.0441,617.43,-1280.46,1013.55
11630,-3.8722,0.3563,-1.0303,-523.19,-1639.89,1810.42
11640,-3.8724,0.2964,-1.0114,1617.43,125.67,1888.61
11650,-3.8727,0.2371,-1.0002,1945.56,-1452.58,-1877.01
11660,-3.8729,0.1860,-1.0057,-1648.19,-30.82,-986.39
11670,-3.8730,0.1448,-1.0264,-179.44,-734.07,1372.99
11680,-3.8732,0.1071,-1.0564,-1460.69,625.24,1701.11
11690,-3.8732,0.0660,-1.1007,1711.18,781.43,529.17
11700,-3.8732,0.0153,-1.1444,461.18,-890.50,-1564.70
11710,-3.8730,-0.0399,-1.1406,1961.18,1515.62,-1346.01
11720,-3.8729,-0.0895,-1.0724,-1101.32,-1984.50,-1455.38
11730,-3.8728,-0.1335,-0.9766,554.93,-1250.18,325.99
11740,-3.8729,-0.1700,-0.9193,-1085.69,-984.68,-298.83
11750,-3.8729,-0.2096,-0.9265,-1757.57,-1656.62,1607.54
11760,-3.8729,-0.2717,-0.9565,1179.93,1421.45,1826.29
11770,-3.8727,-0.3455,-0.9513,1226.81,1577.58,-1955.02
11780,-3.8721,-0.3994,-0.8944,-210.69,-1750.73,201.23
11790,-3.8715,-0.4143,-0.8309,883.06,1530.46,-392.40
11800,-3.8707,-0.3922,-0.8032,-1023.19,1655.40,1951.48
11810,-3.8702,-0.3503,-0.7974,1804.93,1202.33,-329.71
11820,-3.8699,-0.3092,-0.7715,-835.69,1952.39,-314.09
11830,-3.8696,-0.2924,-0.7164,429.93,1265.01,1982.85
11840,-3.8696,-0.2979,-0.6525,-1413.82,311.89,-720.15
11850,-3.8696,-0.2988,-0.5922,1883.06,499.39,654.97
11860,-3.8699,-0.2970,-0.5389,1758.06,218.14,-1673.03
11870,-3.8701,-0.3020,-0.4965,1992.43,-969.36,-1563.60
11880,-3.8702,-0.2998,-0.4578,1351.81,468.14,967.77
11890,-3.8704,-0.2927,-0.4137,1633.06,1421.26,-1469.67
11900,-3.8704,-0.2939,-0.3910,-1460.69,-938.11,1780.40
11910,-3.8704,-0.2814,-0.4038,-1616.94,1968.14,-1297.67
11920,-3.8702,-0.2233,-0.4318,-7.57,327.51,1046.08
11930,-3.8702,-0.1385,-0.4631,-570.07,749.51,-594.60
11940,-3.8701,-0.0702,-0.4717,-1726.32,734.07,811.58
11950,-3.8701,-0.0364,-0.4509,-976.32,-359.56,1202.15
11960,-3.8701,-0.0248,-0.4437,-648.19,-1703.25,1186.58
11970,-3.8701,-0.0248,-0.4617,836.18,-781.31,655.33
11980,-3.8702,-0.0414,-0.4745,836.18,921.81,-938.42
11990,-3.8702,-0.0680,-0.4753,-1288.82,-718.87,342.77
12000,-3.8704,-0.0880,-0.4849,-695.07,-828.31,1452.15
12010,-3.8705,-0.0986,-0.5117,742.43,1952.94,-79.10
12020,-3.8705,-0.1113,-0.5446,-616.94,-1484.62,-751.04
12030,-3.8705,-0.1338,-0.5680,1758.06,-1687.74,1342.65
12040,-3.8706,-0.1588,-0.5746,-1116.94,-687.81,1545.72
12050,-3.8707,-0.1763,-0.5781,-320.07,-1531.62,733.22
12060,-3.8710,-0.1836,-0.5970,1445.56,-1984.74,-204.28
12070,-3.8711,-0.1768,-0.6241,508.06,-406.62,-688.72
12080,-3.8712,-0.1545,-0.6423,1383.06,124.63,-844.97
12090,-3.8713,-0.1267,-0.6484,226.81,1796.57,-1313.78
12100,-3.8715,-0.1044,-0.6492,-210.69,1015.32,-1954.41
12110,-3.8716,-0.0897,-0.6519,-1351.32,921.63,-1923.16
12120,-3.8717,-0.0792,-0.6566,523.68,577.94,-1360.66
12130,-3.8718,-0.0675,-0.6604,1867.43,-31.43,-1110.72
12140,-3.8719,-0.0544,-0.6586,-632.57,-515.81,-970.09
12150,-3.8721,-0.0430,-0.6458,1039.31,-281.37,-95.09
12160,-3.8721,-0.0299,-0.6266,-1491.94,1359.25,1904.97
12170,-3.8721,-0.0162,-0.6161,179.93,-187.56,795.59
12180,-3.8721,-0.0103,-0.6239,1929.93,1156.19,217.53
12190,-3.8721,-0.0166,-0.6410,-1304.44,156.19,139.40
12200,-3.8721,-0.0319,-0.6577,1883.06,1968.69,404.97
12210,-3.8721,-0.0479,-0.6748,-70.07,-172.00,1342.41
12220,-3.8721,-0.0518,-0.6947,1883.06,1640.50,-1126.34
12230,-3.8721,-0.0374,-0.7173,1383.06,-906.37,-235.78
12240,-3.8719,-0.0076,-0.7358,-773.19,203.00,76.72
12250,-3.8721,0.0342,-0.7437,-960.69,1828.06,-32.71
12260,-3.8721,0.0808,-0.7423,383.06,812.56,-610.84
12270,-3.8721,0.1244,-0.7397,-1648.19,984.50,-1079.59
12280,-3.8721,0.1670,-0.7445,-70.07,1312.68,-1267.09
12290,-3.8721,0.2145,-0.7646,1383.06,703.43,1904.79
12300,-3.8722,0.2678,-0.7937,-538.82,-1874.63,-95.28
12310,-3.8722,0.3245,-0.8126,-1710.69,-1593.26,670.29
12320,-3.8723,0.3783,-0.8121,1539.31,-15.01,248.35
12330,-3.8726,0.4283,-0.7939,429.93,47.61,-720.34
12340,-3.8727,0.4618,-0.7738,-1163.82,-1624.21,1967.16
12350,-3.8728,0.4609,-0.7642,-882.57,953.98,-1782.78
12360,-3.8728,0.4414,-0.7661,-991.94,-1811.65,-735.90
12370,-3.8727,0.4286,-0.7924,508.06,1938.35,-189.03
12380,-3.8726,0.4241,-0.8425,-1132.57,-1421.08,-720.34
12390,-3.8724,0.4219,-0.8804,-1710.69,157.04,685.85
12400,-3.8724,0.4185,-0.8817,-1991.94,-686.71,1248.23
12410,-3.8724,0.4230,-0.8546,1570.56,-858.58,982.60
12420,-3.8726,0.4469,-0.8235,-1851.32,-1389.83,-720.46
12430,-3.8726,0.4805,-0.8145,1211.18,-1405.40,1170.23
12440,-3.8726,0.5081,-0.8412,1508.06,-249.08,1592.10
12450,-3.8724,0.5286,-0.9050,1039.31,329.10,-1798.52
12460,-3.8722,0.5576,-0.9805,-335.69,157.23,-1783.02
12470,-3.8719,0.6089,-1.0336,-616.94,-1498.96,1216.80
12480,-3.8719,0.6680,-1.0571,1945.56,-295.72,-502.08
12490,-3.8719,0.7158,-1.0428,1508.06,688.78,-298.95
12500,-3.8718,0.7639,-0.9858,-366.94,-1483.03,388.55
12510,-3.8718,0.8356,-0.9241,1789.31,1813.96,341.80
12520,-3.8719,0.9272,-0.8873,-1038.82,1720.34,-1548.71
12530,-3.8721,1.0194,-0.8684,-1304.44,-1576.35,-1423.65
12540,-3.8722,1.1090,-0.8529,-1507.57,845.70,-1501.71
12550,-3.8722,1.1929,-0.8309,1961.18,-1169.74,529.54
12560,-3.8722,1.2533,-0.7896,695.56,1642.94,1810.85
12570,-3.8721,1.3011,-0.7288,429.93,-1060.06,-1689.09
12580,-3.8719,1.3522,-0.6694,-1445.07,-1278.75,-126.46
12590,-3.8718,1.3878,-0.6193,1086.18,-1684.88,-641.97
12600,-3.8718,1.3949,-0.5663,1648.68,737.06,-548.10
12610,-3.8718,1.3696,-0.5089,-1445.07,-481.69,326.97
12620,-3.8721,1.3350,-0.4532,-679.44,-1138.00,-579.16
12630,-3.8721,1.3253,-0.4083,-1116.94,1986.94,936.58
12640,-3.8721,1.3224,-0.3887,1648.68,-263.06,1467.90
12650,-3.8721,1.2897,-0.3833,1273.68,-1747.44,1624.21
12660,-3.8721,1.2268,-0.3627,1086.18,-1060.00,-1891.42
12670,-3.8721,1.1477,-0.3420,1039.31,1580.51,-266.36
12680,-3.8719,1.0776,-0.3519,-1085.69,220.95,1014.95
12690,-3.8719,1.0299,-0.3804,1945.56,-1044.80,1733.64
12700,-3.8719,0.9775,-0.4165,-163.82,-685.55,1655.46
12710,-3.8719,0.9149,-0.4553,1133.06,-1310.61,983.52
12720,-3.8719,0.8657,-0.4827,1117.43,1720.52,1358.46
12730,-3.8719,0.8304,-0.4943,-1179.44,-1779.60,-1125.98
12740,-3.8718,0.7921,-0.4957,-1695.07,735.96,764.65
12750,-3.8718,0.7432,-0.4911,1398.68,548.40,-1907.23
12760,-3.8718,0.6852,-0.4897,-866.94,1142.03,-1641.60
12770,-3.8718,0.6215,-0.4984,-288.82,1313.78,1999.02
12780,-3.8718,0.5574,-0.5100,-445.07,204.28,1499.02
12790,-3.8718,0.5037,-0.5187,-648.19,-1280.21,1514.59
12800,-3.8718,0.4717,-0.5284,476.81,1610.35,-907.29
12810,-3.8717,0.4614,-0.5421,383.06,360.29,-1188.54
12820,-3.8716,0.4663,-0.5531,-929.44,-1389.77,-126.10
12830,-3.8713,0.4761,-0.5553,-304.44,1203.98,436.40
12840,-3.8713,0.4740,-0.5507,945.56,922.79,-766.72
12850,-3.8713,0.4537,-0.5413,679.93,1516.54,-63.60
12860,-3.8713,0.4277,-0.5295,-1913.82,-1280.40,-1204.22
12870,-3.8713,0.4016,-0.5197,-1241.94,219.54,639.59
12880,-3.8715,0.3726,-0.5101,-585.69,1485.11,-1282.29
12890,-3.8715,0.3524,-0.4993,-304.44,-1296.20,1577.09
12900,-3.8715,0.3547,-0.4866,1117.43,94.42,280.27
12910,-3.8716,0.3817,-0.4657,1414.31,1719.42,-1485.35
12920,-3.8716,0.4297,-0.4382,867.43,391.36,764.71
12930,-3.8717,0.4849,-0.4247,-991.94,-92.96,-844.67
12940,-3.8717,0.5201,-0.4497,-1929.44,1641.54,-1188.35
12950,-3.8716,0.5332,-0.5160,-1413.82,-1561.52,-1422.79
12960,-3.8713,0.5509,-0.5991,258.06,1954.16,1592.71
12970,-3.8712,0.5767,-0.6714,-1476.32,-686.46,-829.35
12980,-3.8711,0.5848,-0.7124,1820.56,-1936.40,1389.28
12990,-3.8711,0.5651,-0.7119,-1132.57,813.60,998.60
13000,-3.8712,0.5363,-0.6746,336.18,876.10,-1938.90
13010,-3.8713,0.5125,-0.6155,648.68,1657.29,623.66
13020,-3.8716,0.4889,-0.5492,1601.81,1219.73,1045.65
13030,-3.8719,0.4701,-0.4894,-1413.82,1704.04,-501.10
13040,-3.8722,0.4657,-0.4520,179.93,1360.29,858.40
13050,-3.8726,0.4639,-0.4471,-382.57,-1858.52,-829.04
13060,-3.8727,0.4474,-0.4752,-616.94,-1233.52,1108.46
13070,-3.8727,0.4193,-0.5223,1273.68,-827.27,858.40
13080,-3.8726,0.3903,-0.5648,1679.93,1141.42,1030.21
13090,-3.8724,0.3608,-0.5848,1961.18,-296.14,1561.34
13100,-3.8723,0.3303,-0.5795,-1804.44,1141.30,123.84
13110,-3.8724,0.3042,-0.5594,-1710.69,1828.74,-94.91
13120,-3.8724,0.2830,-0.5392,-1054.44,391.17,764.53
13130,-3.8727,0.2577,-0.5297,226.81,-1015.08,-16.72
13140,-3.8728,0.2247,-0.5358,992.43,203.61,-282.29
13150,-3.8728,0.1909,-0.5562,773.68,-577.70,1467.65
13160,-3.8728,0.1643,-0.5831,445.56,812.87,702.03
13170,-3.8728,0.1426,-0.6052,1039.31,1359.68,639.47
13180,-3.8728,0.1252,-0.6213,-1741.94,-1468.51,1592.53
13190,-3.8728,0.1138,-0.6426,39.31,468.99,-641.85
13200,-3.8727,0.1053,-0.6782,-1429.44,1750.18,1967.47
13210,-3.8726,0.0988,-0.7247,1492.43,1187.68,-1438.84
13220,-3.8723,0.0942,-0.7695,648.68,-765.44,1701.66
13230,-3.8721,0.0912,-0.8016,70.56,1500.18,-907.78
13240,-3.8717,0.0825,-0.8147,-320.07,1390.75,1842.16
13250,-3.8713,0.0653,-0.8156,-1429.44,-281.13,638.98
13260,-3.8711,0.0458,-0.8138,367.43,-390.50,-1267.27
13270,-3.8707,0.0129,-0.8063,1867.43,-171.81,92.10
13280,-3.8705,-0.0541,-0.7839,1664.31,796.88,717.16
13290,-3.8702,-0.1545,-0.7394,1086.18,-328.25,248.41
13300,-3.8701,-0.2662,-0.6666,226.81,1374.69,1904.79
13310,-3.8700,-0.3676,-0.5643,1929.93,-1313.05,1233.03
13320,-3.8700,-0.4519,-0.4366,961.18,-219.48,-579.28
13330,-3.8699,-0.5352,-0.3196,-1835.69,124.08,483.52
13340,-3.8700,-0.6368,-0.2804,-491.94,-891.72,-110.05
13350,-3.8700,-0.7339,-0.3354,-1507.57,123.72,-891.17
13360,-3.8700,-0.7892,-0.4235,-1929.44,1076.66,-531.92
13370,-3.8699,-0.8241,-0.4893,-1007.57,1810.91,1514.77
13380,-3.8698,-0.8588,-0.5280,-1476.32,1388.98,1452.15
13390,-3.8695,-0.8398,-0.5681,-1913.82,435.79,1108.34
13400,-3.8691,-0.7230,-0.6255,508.06,-704.77,764.47
13410,-3.8689,-0.5415,-0.6769,-538.82,-48.34,-813.78
13420,-3.8688,-0.3602,-0.6841,-1304.44,1373.90,-704.47
13430,-3.8689,-0.2303,-0.6339,1898.68,452.39,-673.22
13440,-3.8693,-0.1774,-0.5465,-1476.32,-1125.49,-595.03
13450,-3.8698,-0.1946,-0.4576,1304.93,-1937.87,-860.47
13460,-3.8702,-0.2555,-0.4044,-898.19,1437.07,-110.29
13470,-3.8705,-0.3267,-0.3922,-695.07,249.45,796.08
13480,-3.8707,-0.3739,-0.3999,-1804.44,1811.83,-1703.92
13490,-3.8708,-0.3860,-0.4077,148.68,827.39,-1719.54
13500,-3.8710,-0.3800,-0.4108,-1398.19,-172.67,-1344.60
13510,-3.8711,-0.3679,-0.4154,-632.57,-563.29,-422.73
13520,-3.8711,-0.3503,-0.4238,914.31,-1156.98,-1688.35
13530,-3.8711,-0.3374,-0.4308,-835.69,1764.89,-1407.10
13540,-3.8711,-0.3324,-0.4331,820.56,874.33,-1922.73
13550,-3.8712,-0.3253,-0.4387,1461.18,577.45,-1157.10
13560,-3.8713,-0.3086,-0.4502,-1632.57,-141.30,-1454.04
13570,-3.8715,-0.2819,-0.4568,508.06,-1609.99,-16.54
13580,-3.8715,-0.2523,-0.4489,-70.07,1546.26,-1360.29
13590,-3.8715,-0.2238,-0.4253,-288.82,-1438.05,342.83
13600,-3.8716,-0.1930,-0.3929,-632.57,1577.64,46.02
13610,-3.8718,-0.1600,-0.3622,-695.07,1718.32,1483.58
13620,-3.8721,-0.1318,-0.3356,-476.32,1655.88,1405.52
13630,-3.8723,-0.1108,-0.3040,-866.94,1062.19,1921.20
13640,-3.8724,-0.0840,-0.2639,1820.56,1109.13,968.14
13650,-3.8726,-0.0399,-0.2321,1258.06,-1765.81,-1188.05
13660,-3.8726,0.0051,-0.2285,-1101.32,-1687.62,-1156.74
13670,-3.8724,0.0228,-0.2568,664.31,-1250.00,921.39
13680,-3.8723,0.0040,-0.3033,-1070.07,-875.00,483.83
13690,-3.8722,-0.0344,-0.3431,523.68,1171.88,202.51
13700,-3.8722,-0.0753,-0.3627,-398.19,93.63,-781.92
13710,-3.8721,-0.1018,-0.3702,-1632.57,1593.57,1796.14
13720,-3.8719,-0.0936,-0.3857,-1023.19,624.76,452.39
13730,-3.8719,-0.0527,-0.4261,23.68,-1359.56,-78.92
13740,-3.8717,0.0059,-0.4869,1258.06,1468.63,514.77
13750,-3.8716,0.0723,-0.5457,758.06,1671.88,1217.77
13760,-3.8715,0.1356,-0.5839,1258.06,-1843.63,436.40
13770,-3.8715,0.1788,-0.6051,1367.43,1265.87,1358.22
13780,-3.8715,0.1885,-0.6233,-1101.32,-1452.82,1217.53
13790,-3.8715,0.1771,-0.6366,133.06,219.12,1389.40
13800,-3.8715,0.1750,-0.6381,-1320.07,-1484.07,1639.34
13810,-3.8715,0.1940,-0.6376,-1585.69,-1671.57,967.47
13820,-3.8716,0.2242,-0.6442,836.18,-1609.01,-1141.91
13830,-3.8716,0.2556,-0.6575,711.18,1547.30,295.59
13840,-3.8717,0.2800,-0.6716,726.81,-155.76,-1860.72
13850,-3.8717,0.2958,-0.6802,-148.19,-1968.26,826.78
13860,-3.8717,0.3093,-0.6887,1867.43,938.05,858.03
13870,-3.8717,0.3270,-0.7084,-398.19,-155.70,-1720.15
13880,-3.8716,0.3500,-0.7394,1867.43,1328.74,342.35
13890,-3.8716,0.3684,-0.7679,804.93,1360.05,1529.79
13900,-3.8716,0.3721,-0.7759,-835.69,1703.80,920.35
13910,-3.8717,0.3635,-0.7610,-366.94,688.17,-1189.03
13920,-3.8718,0.3530,-0.7445,-1460.69,-1405.58,-110.90
13930,-3.8718,0.3525,-0.7439,1195.56,703.80,1217.29
13940,-3.8719,0.3716,-0.7599,1133.06,781.92,-642.09
13950,-3.8719,0.4036,-0.7823,-429.44,-1264.95,-1970.28
13960,-3.8719,0.4402,-0.7930,-335.69,-139.89,1248.41
13970,-3.8721,0.4769,-0.7902,351.81,-1499.15,-32.84
13980,-3.8721,0.4996,-0.7830,1054.93,-1139.71,1357.79
13990,-3.8722,0.5133,-0.7692,-38.82,-217.83,-907.84
14000,-3.8722,0.5308,-0.7581,1711.18,1547.85,1826.60
14010,-3.8722,0.5393,-0.7576,-54.44,-1030.27,1576.60
14020,-3.8722,0.5303,-0.7581,1039.31,-967.71,-564.03
14030,-3.8721,0.5159,-0.7610,-116.94,-1030.27,-1267.15
14040,-3.8719,0.5157,-0.7706,-1960.69,-1405.27,-1439.03
14050,-3.8718,0.5377,-0.7859,-1976.32,1360.35,-1673.40
14060,-3.8717,0.5662,-0.8059,836.18,-592.71,920.29
14070,-3.8717,0.5920,-0.8159,476.81,844.85,-1564.09
14080,-3.8716,0.6345,-0.8003,-210.69,-436.40,123.35
14090,-3.8716,0.7123,-0.7639,1226.81,1563.72,-1126.59
14100,-3.8715,0.8187,-0.7281,-820.07,-1779.91,-1767.15
14110,-3.8713,0.9354,-0.7054,804.93,-1201.54,1045.41
14120,-3.8713,1.0436,-0.6903,-257.57,1704.90,-1251.40
14130,-3.8713,1.1313,-0.6721,1586.18,-357.36,-329.53
14140,-3.8712,1.2081,-0.6439,820.56,1970.95,561.16
14150,-3.8712,1.2881,-0.6079,-1351.32,1580.44,1826.84
14160,-3.8712,1.3633,-0.5499,883.06,-1810.00,-251.22
14170,-3.8711,1.4158,-0.4968,-1491.94,1612.00,545.78
14180,-3.8712,1.4432,-0.4756,1226.81,409.00,-1844.73
14190,-3.8713,1.4587,-0.4518,742.43,-872.19,-32.23
14200,-3.8713,1.4381,-0.4083,-1273.19,-1825.32,-1985.29
14210,-3.8715,1.3462,-0.3649,86.18,-262.82,655.40
14220,-3.8717,1.2258,-0.3531,320.56,1299.50,-1672.61
14230,-3.8718,1.1351,-0.3705,914.31,-1200.74,-844.48
14240,-3.8718,1.0725,-0.4003,1304.93,580.32,-844.48
14250,-3.8718,1.0110,-0.4397,1289.31,767.70,-32.04
14260,-3.8717,0.9296,-0.4775,1414.31,-279.30,1077.21
14270,-3.8717,0.8164,-0.5087,-1007.57,-1123.23,-1469.73
14280,-3.8716,0.6787,-0.5304,508.06,-1107.79,483.34
14290,-3.8716,0.5488,-0.5343,-1116.94,110.66,-454.16
14300,-3.8715,0.4543,-0.5352,-1741.94,-389.59,-532.35
14310,-3.8713,0.3901,-0.5615,-1835.69,-499.15,-594.85
14320,-3.8712,0.3480,-0.6080,1945.56,125.73,-422.97
14330,-3.8711,0.3340,-0.6398,554.93,-1827.45,-188.72
14340,-3.8710,0.3462,-0.6328,-1241.94,-1890.01,-1016.91
14350,-3.8708,0.3713,-0.5941,320.56,-999.33,123.72
14360,-3.8710,0.3937,-0.5493,-460.69,-46.20,-423.10
14370,-3.8710,0.4137,-0.5186,-1601.32,1688.23,-1813.60
14380,-3.8711,0.4370,-0.5074,961.18,1625.79,-251.04
14390,-3.8711,0.4617,-0.5049,-54.44,-952.33,639.59
14400,-3.8712,0.4849,-0.4954,-898.19,-624.15,1764.59
14410,-3.8713,0.5070,-0.4795,-1929.44,594.67,-1313.48
14420,-3.8715,0.5331,-0.4675,898.68,-1374.02,-1329.10
14430,-3.8716,0.5608,-0.4630,242.43,157.29,-1844.67
14440,-3.8717,0.5846,-0.4601,-210.69,735.41,-1016.54
14450,-3.8717,0.6072,-0.4618,-1163.82,1110.47,1358.46
14460,-3.8718,0.6232,-0.4803,1726.81,891.78,-0.92
14470,-3.8718,0.6246,-0.5098,-226.32,-1483.22,-282.23
14480,-3.8717,0.6066,-0.5297,-38.82,-1248.84,670.84
14490,-3.8717,0.5659,-0.5260,1648.68,204.28,623.96
14500,-3.8718,0.5204,-0.5024,445.56,672.97,-1844.79
14510,-3.8719,0.4874,-0.4709,-1382.57,-311.52,1702.09
14520,-3.8721,0.4670,-0.4380,-1601.32,-280.33,639.65
14530,-3.8723,0.4606,-0.4111,-210.69,-61.65,-235.29
14540,-3.8724,0.4636,-0.3986,-1038.82,-624.15,-969.60
14550,-3.8726,0.4601,-0.3979,-648.19,985.23,-953.92
14560,-3.8727,0.4393,-0.4010,-1101.32,1063.35,-203.92
14570,-3.8727,0.4034,-0.4026,242.43,672.73,1014.83
14580,-3.8728,0.3612,-0.3972,-351.32,469.48,-1047.67
14590,-3.8728,0.3234,-0.3821,-1757.57,1156.92,1514.83
14600,-3.8728,0.2986,-0.3708,1398.68,-905.64,1092.96
14610,-3.8728,0.2888,-0.3810,-1773.19,531.80,1983.64
14620,-3.8727,0.2886,-0.4094,976.81,-765.08,342.96
14630,-3.8727,0.2900,-0.4391,945.56,-405.70,-0.85
14640,-3.8726,0.2856,-0.4595,1133.06,-202.58,-563.42
14650,-3.8724,0.2693,-0.4712,570.56,1188.05,1186.58
14660,-3.8724,0.2466,-0.4735,-1523.19,-312.01,1327.15
14670,-3.8724,0.2302,-0.4751,-429.44,-608.95,936.52
14680,-3.8724,0.2258,-0.4912,1476.81,-812.07,530.27
14690,-3.8724,0.2321,-0.5187,914.31,1125.43,420.90
14700,-3.8724,0.2412,-0.5411,1711.18,1609.80,1264.59
14710,-3.8724,0.2427,-0.5515,-1116.94,-1265.20,-766.72
14720,-3.8723,0.2292,-0.5582,-929.44,1406.68,1467.65
14730,-3.8723,0.2034,-0.5771,1351.81,547.30,-719.85
14740,-3.8722,0.1702,-0.6145,-1960.69,-1874.63,1983.22
14750,-3.8721,0.1300,-0.6581,1789.31,1344.06,-1782.47
14760,-3.8719,0.0878,-0.6952,648.68,-234.13,-423.22
14770,-3.8717,0.0613,-0.7365,-757.57,-984.25,-1282.65
14780,-3.8715,0.0642,-0.7906,-148.19,1734.44,-1345.21
14790,-3.8712,0.0906,-0.8298,226.81,-1203.00,1514.04
14800,-3.8711,0.1118,-0.8306,-398.19,1781.37,-1220.40
14810,-3.8710,0.0840,-0.8108,-1679.44,1687.68,-720.40
14820,-3.8707,-0.0099,-0.7930,-1241.94,218.87,639.04
14830,-3.8705,-0.1503,-0.7839,-1257.57,-1484.44,201.54
14840,-3.8702,-0.3093,-0.7726,773.68,-328.43,-1439.09
14850,-3.8699,-0.4618,-0.7365,414.31,1124.39,-1954.65
14860,-3.8696,-0.5862,-0.6677,898.68,1749.08,-1126.46
14870,-3.8695,-0.6664,-0.5730,976.81,-1454.28,-1673.22
14880,-3.8695,-0.7086,-0.4680,-1288.82,-1329.47,951.97
14890,-3.8696,-0.7201,-0.3789,1304.93,107.97,1920.96
14900,-3.8698,-0.6957,-0.3304,-163.82,-485.84,-1188.29
14910,-3.8698,-0.6433,-0.3234,-1038.82,1717.35,421.20
14920,-3.8699,-0.5712,-0.3311,1664.31,-1376.28,-594.42
14930,-3.8699,-0.4912,-0.3265,-1101.32,1639.47,-922.55
14940,-3.8699,-0.4244,-0.3113,1133.06,-1782.23,-1281.92
14950,-3.8699,-0.3738,-0.2996,1679.93,171.02,-1922.49
14960,-3.8699,-0.3320,-0.2968,164.31,1671.14,-1984.99
14970,-3.8699,-0.2953,-0.3058,1508.06,-1969.42,-1328.74
14980,-3.8699,-0.2639,-0.3162,-1788.82,874.39,-1188.11
14990,-3.8699,-0.2444,-0.3130,-1773.19,-453.67,1124.33
15000,-3.8700,-0.2399,-0.3003,726.81,-47.36,1249.33
15010,-3.8701,-0.2455,-0.2913,1304.93,1577.64,140.01
15020,-3.8704,-0.2595,-0.2842,586.18,-1266.11,-672.49
15030,-3.8705,-0.2781,-0.2783,-1210.69,-359.92,-281.86
15040,-3.8705,-0.2853,-0.2867,414.31,390.08,1233.83
15050,-3.8706,-0.2712,-0.3088,-507.57,-688.11,-375.61
15060,-3.8706,-0.2456,-0.3291,1289.31,483.83,-1656.86
15070,-3.8706,-0.2196,-0.3364,570.56,1890.14,249.33
15080,-3.8707,-0.1974,-0.3358,-101.32,952.64,1046.20
15090,-3.8708,-0.1798,-0.3431,-1257.57,1030.82,1608.70
15100,-3.8710,-0.1675,-0.3617,992.43,93.38,-1485.05
15110,-3.8711,-0.1588,-0.3816,-1429.44,1718.38,-641.36
15120,-3.8712,-0.1520,-0.3956,-320.07,-828.49,-516.42
15130,-3.8713,-0.1465,-0.4039,554.93,1374.69,-1250.79
15140,-3.8715,-0.1395,-0.4113,1258.06,312.19,1702.33
15150,-3.8716,-0.1327,-0.4238,-1851.32,-625.31,1092.90
15160,-3.8717,-0.1335,-0.4395,-976.32,1765.32,1967.90
15170,-3.8717,-0.1370,-0.4468,-1085.69,-234.68,1639.71
15180,-3.8717,-0.1310,-0.4514,-1523.19,-1172.18,-157.17
15190,-3.8716,-0.1180,-0.4696,-757.57,-1765.93,-1594.67
15200,-3.8715,-0.1039,-0.4908,898.68,-93.99,14.65
15210,-3.8715,-0.0884,-0.4919,-1288.82,1187.26,233.40
15220,-3.8716,-0.0758,-0.4752,695.56,1046.69,-750.98
15230,-3.8716,-0.0702,-0.4570,-1695.07,-812.68,-1844.73
15240,-3.8716,-0.0712,-0.4436,-976.32,1515.44,999.08
15250,-3.8717,-0.0778,-0.4340,-1101.32,-765.81,-735.29
15260,-3.8717,-0.0830,-0.4281,-1945.07,468.57,1186.65
15270,-3.8718,-0.0759,-0.4248,1383.06,1218.57,-1125.85
15280,-3.8718,-0.0575,-0.4193,-1710.69,1640.44,280.40
15290,-3.8719,-0.0376,-0.4141,648.68,-1656.37,-1750.85
15300,-3.8719,-0.0168,-0.4160,-804.44,-984.50,1655.40
15310,-3.8719,0.0072,-0.4259,1851.81,-1234.44,-1407.10
15320,-3.8718,0.0352,-0.4421,929.93,1484.38,1061.65
15330,-3.8718,0.0697,-0.4628,508.06,-593.69,-235.29
15340,-3.8717,0.1075,-0.4768,929.93,765.75,639.71
15350,-3.8718,0.1405,-0.4747,1773.68,-1031.07,-594.73
15360,-3.8718,0.1582,-0.4666,1992.43,-765.38,874.02
15370,-3.8719,0.1556,-0.4707,258.06,281.56,-1250.92
15380,-3.8719,0.1482,-0.4940,-70.07,-249.76,-1047.85
15390,-3.8718,0.1555,-0.5303,-1023.19,765.87,1249.02
15400,-3.8718,0.1835,-0.5637,-85.69,125.24,-63.54
15410,-3.8717,0.2300,-0.5834,-507.57,-155.94,1217.59
15420,-3.8717,0.2809,-0.5948,1445.56,1328.55,201.97
15430,-3.8718,0.3215,-0.6089,-38.82,-140.14,-1657.47
15440,-3.8718,0.3514,-0.6321,1164.31,-1936.89,1826.90
15450,-3.8718,0.3812,-0.6653,992.43,-905.58,-829.41
15460,-3.8717,0.4183,-0.7012,804.93,-1155.52,717.41
15470,-3.8717,0.4611,-0.7321,1554.93,-1749.21,920.47
15480,-3.8718,0.5004,-0.7585,-976.32,-1702.27,-1079.59
15490,-3.8719,0.5265,-0.7811,54.93,-1092.77,-1985.90
15500,-3.8722,0.5427,-0.7928,-601.32,16.60,-1579.65
15510,-3.8724,0.5540,-0.7906,1476.81,-1483.34,467.16
15520,-3.8728,0.5551,-0.7786,-1085.69,-1202.09,-1923.46
15530,-3.8730,0.5443,-0.7633,-945.07,344.79,-767.15
15540,-3.8730,0.5411,-0.7521,1679.93,-1702.09,-564.03
15550,-3.8728,0.5713,-0.7572,1273.68,-264.59,-1189.03
15560,-3.8724,0.6415,-0.7834,1133.06,-920.78,1951.60
15570,-3.8721,0.7340,-0.8065,-1882.57,-280.03,920.29
15580,-3.8718,0.8225,-0.8008,1961.18,767.03,1701.54
15590,-3.8716,0.8915,-0.7577,1289.31,1501.59,498.41
15600,-3.8715,0.9495,-0.6852,-1882.57,-982.67,-985.90
15610,-3.8712,1.0214,-0.6150,1539.31,298.71,-985.72
15620,-3.8708,1.1063,-0.5781,-1257.57,1283.20,358.15
15630,-3.8706,1.1749,-0.5730,1617.43,-1997.86,1608.22
15640,-3.8704,1.2094,-0.5746,-1601.32,-1341.49,1030.09
15650,-3.8702,1.2133,-0.5779,-1195.07,-1544.56,-1657.41
15660,-3.8701,1.2181,-0.5604,-695.07,-1966.43,-610.53
15670,-3.8699,1.2092,-0.4989,-70.07,267.94,1717.65
15680,-3.8698,1.1440,-0.4666,-1210.69,142.94,-688.48
15690,-3.8696,1.0706,-0.4923,-1554.44,283.45,1889.71
15700,-3.8696,1.0232,-0.5092,1039.31,986.45,1530.27
15710,-3.8698,0.9758,-0.5099,-1023.19,-1169.92,-1235.41
15720,-3.8699,0.9410,-0.5153,914.31,-1263.73,-1735.41
15730,-3.8701,0.9397,-0.5160,461.18,-1951.29,-594.79
15740,-3.8704,0.9524,-0.5098,289.31,1954.96,1733.34
15750,-3.8707,0.9613,-0.5024,1914.31,-1248.17,-1188.54
15760,-3.8710,0.9663,-0.4962,-945.07,-310.67,608.34
15770,-3.8712,0.9602,-0.4918,-304.44,486.21,77.15
15780,-3.8715,0.9297,-0.4879,-1085.69,1048.71,1514.65
15790,-3.8716,0.8729,-0.4850,-991.94,1548.65,249.02
15800,-3.8718,0.7959,-0.4860,-257.57,1923.52,-438.48
15810,-3.8719,0.7042,-0.4976,1883.06,1798.40,-282.23
15820,-3.8719,0.6089,-0.5228,-1851.32,313.84,1639.65
15830,-3.8719,0.5266,-0.5520,1945.56,1079.28,1608.34
15840,-3.8719,0.4724,-0.5702,-585.69,1344.73,-1329.22
15850,-3.8719,0.4534,-0.5687,476.81,-983.46,-469.91
15860,-3.8719,0.4629,-0.5531,-1960.69,-796.02,-579.28
15870,-3.8719,0.4841,-0.5363,-741.94,1203.98,-1735.47
15880,-3.8719,0.4993,-0.5249,1976.81,-639.71,155.15
15890,-3.8721,0.4966,-0.5166,-85.69,813.42,1170.84
15900,-3.8722,0.4735,-0.5096,-429.44,1875.92,1873.96
15910,-3.8723,0.4321,-0.5087,617.43,-1233.46,-547.91
15920,-3.8723,0.3759,-0.5302,-679.44,-1108.58,-16.66
15930,-3.8721,0.3156,-0.5823,117.43,141.36,1952.09
15940,-3.8717,0.2710,-0.6318,398.68,1469.36,498.84
15950,-3.8715,0.2562,-0.6299,-1304.44,-874.51,-1829.41
15960,-3.8713,0.2690,-0.5695,804.93,-624.51,-1595.03
15970,-3.8713,0.2949,-0.4875,-1554.44,-890.14,1030.09
15980,-3.8715,0.3218,-0.4193,1758.06,1594.30,45.90
15990,-3.8717,0.3472,-0.3765,1195.56,-1671.26,1577.27
16000,-3.8719,0.3684,-0.3634,445.56,-186.83,-360.17
16010,-3.8721,0.3805,-0.3799,-835.69,1485.05,-141.36
16020,-3.8721,0.3823,-0.4124,711.18,-624.27,-1125.79
16030,-3.8719,0.3761,-0.4462,945.56,-780.52,61.65
16040,-3.8719,0.3644,-0.4751,148.68,-1108.64,-1891.54
16050,-3.8718,0.3497,-0.4929,-1351.32,-811.83,202.15
16060,-3.8718,0.3331,-0.4977,773.68,906.92,1858.40
16070,-3.8718,0.3153,-0.5022,-1351.32,297.49,1733.40
16080,-3.8719,0.2972,-0.5177,367.43,-280.64,-1016.66
16090,-3.8721,0.2793,-0.5405,-1945.07,1734.92,-1610.41
16100,-3.8722,0.2537,-0.5610,-241.94,-1187.01,1780.15
16110,-3.8723,0.2074,-0.5754,476.81,187.99,-1360.47
16120,-3.8723,0.1392,-0.5854,-1445.07,-1655.88,-1923.03
16130,-3.8722,0.0591,-0.5841,1820.56,1062.74,389.47
16140,-3.8722,-0.0172,-0.5590,-429.44,1234.44,-1.16
16150,-3.8721,-0.0726,-0.5221,1804.93,468.69,-657.35
16160,-3.8719,-0.0966,-0.5066,-1288.82,1187.32,-1282.29
16170,-3.8718,-0.0941,-0.5165,-351.32,-828.37,-1282.29
16180,-3.8717,-0.0769,-0.5256,-38.82,1906.01,-1782.29
16190,-3.8717,-0.0563,-0.5251,-1835.69,734.19,-313.54
16200,-3.8717,-0.0446,-0.5289,804.93,796.75,-110.41
16210,-3.8716,-0.0475,-0.5366,-1695.07,312.38,639.59
16220,-3.8716,-0.0637,-0.5367,1929.93,-672.00,-1782.35
16230,-3.8716,-0.0880,-0.5308,-148.19,-687.68,-688.60
16240,-3.8716,-0.1127,-0.5205,742.43,77.94,-610.41
16250,-3.8716,-0.1284,-0.5012,1586.18,1390.38,-469.79
16260,-3.8715,-0.1272,-0.4814,-429.44,-140.93,1342.71
16270,-3.8713,-0.1023,-0.4791,-273.19,-1609.68,1780.27
16280,-3.8711,-0.0515,-0.4894,-1085.69,-1312.74,795.90
16290,-3.8708,0.0121,-0.4952,1414.31,1374.88,639.65
16300,-3.8707,0.0656,-0.4966,1554.93,609.38,-657.23
16310,-3.8705,0.0897,-0.4875,398.68,437.62,14.65
16320,-3.8705,0.0726,-0.4521,-507.57,1593.87,1436.52
16330,-3.8706,0.0107,-0.3986,1304.93,-1874.88,-704.04
16340,-3.8707,-0.0822,-0.3568,1383.06,984.38,-563.29
16350,-3.8707,-0.1786,-0.3424,1492.43,-1656.43,186.77
16360,-3.8708,-0.2559,-0.3396,1148.68,187.13,-641.30
16370,-3.8707,-0.3010,-0.3323,-741.94,546.33,1858.70
16380,-3.8706,-0.3156,-0.3220,1476.81,1483.76,-891.30
16390,-3.8704,-0.3140,-0.3148,-382.57,-1203.80,1952.45
16400,-3.8701,-0.3075,-0.3197,-179.44,-281.92,1030.58
16410,-3.8700,-0.3022,-0.3403,648.68,-906.86,-938.17
16420,-3.8699,-0.3108,-0.3605,1320.56,452.51,-875.67
16430,-3.8698,-0.3452,-0.3633,226.81,1874.39,1671.14
16440,-3.8696,-0.4004,-0.3597,-179.44,1514.89,280.52
16450,-3.8696,-0.4625,-0.3722,758.06,1967.96,-266.36
16460,-3.8695,-0.5153,-0.3962,804.93,374.08,-156.98
16470,-3.8694,-0.5348,-0.4081,-1945.07,1295.84,-625.79
16480,-3.8694,-0.5051,-0.3987,-445.07,-219.85,-78.98
16490,-3.8694,-0.4425,-0.3815,-648.19,983.34,452.33
16500,-3.8696,-0.3862,-0.3666,-632.57,-813.42,-1094.54
16510,-3.8698,-0.3634,-0.3518,-1429.44,1092.96,1686.77
16520,-3.8699,-0.3745,-0.3438,1492.43,-1016.36,1124.27
16530,-3.8700,-0.3967,-0.3492,70.56,14.89,733.70
16540,-3.8701,-0.4030,-0.3593,1226.81,-688.29,718.02
16550,-3.8702,-0.3833,-0.3694,429.93,-1969.54,1811.77
16560,-3.8702,-0.3467,-0.3898,-1054.44,733.58,374.27
16570,-3.8702,-0.3081,-0.4238,-366.94,-1875.73,249.21
16580,-3.8702,-0.2765,-0.4561,570.56,1765.01,983.52
16590,-3.8702,-0.2585,-0.4681,617.43,1640.08,1264.71
16600,-3.8704,-0.2562,-0.4612,-1085.69,93.20,-125.92
16610,-3.8704,-0.2611,-0.4524,-788.82,983.83,436.58
16620,-3.8705,-0.2606,-0.4521,-1413.82,-1891.17,92.83
16630,-3.8706,-0.2458,-0.4630,-1351.32,-1859.92,530.33
16640,-3.8707,-0.2212,-0.4838,539.31,749.51,-1750.92
16650,-3.8707,-0.1980,-0.5057,-304.44,-1906.74,874.02
16660,-3.8708,-0.1838,-0.5171,-1335.69,-719.18,-516.66
16670,-3.8708,-0.1816,-0.5115,476.81,1827.76,1655.21
16680,-3.8710,-0.1842,-0.4955,758.06,-1453.49,-344.79
16690,-3.8710,-0.1769,-0.4843,429.93,593.38,1467.77
16700,-3.8711,-0.1526,-0.4854,1367.43,-1969.12,-907.23
16710,-3.8711,-0.1174,-0.4934,476.81,1890.32,967.77
16720,-3.8712,-0.0825,-0.5002,976.81,859.13,-407.23
16730,-3.8712,-0.0564,-0.5013,1445.56,-15.81,1905.21
16740,-3.8713,-0.0452,-0.5001,789.31,-156.37,-626.04
16750,-3.8713,-0.0465,-0.5026,-1773.19,-0.12,905.21
16760,-3.8715,-0.0490,-0.5060,-1945.07,-312.62,-1172.91
16770,-3.8715,-0.0428,-0.5054,1742.43,-750.12,498.96
16780,-3.8716,-0.0288,-0.5057,-1476.32,-672.00,1420.84
16790,-3.8717,-0.0173,-0.5139,320.56,-718.81,1702.09
16800,-3.8718,-0.0150,-0.5227,1789.31,-1765.69,1561.46
16810,-3.8719,-0.0206,-0.5239,-1913.82,1109.31,858.34
16820,-3.8722,-0.0298,-0.5226,1367.43,953.06,-282.29
16830,-3.8723,-0.0380,-0.5243,195.56,1124.94,-1235.41
16840,-3.8724,-0.0400,-0.5289,-851.32,906.13,-1204.16
16850,-3.8724,-0.0341,-0.5360,-1116.94,312.38,108.34
16860,-3.8726,-0.0233,-0.5526,-351.32,-593.87,-1251.10
16870,-3.8726,-0.0127,-0.5800,1023.68,1281.19,-1376.10
16880,-3.8726,-0.0029,-0.6003,-1616.94,1781.19,-454.28
16890,-3.8724,0.0098,-0.6069,-366.94,-828.19,733.15
16900,-3.8724,0.0315,-0.6158,1258.06,-1687.50,1248.78
16910,-3.8724,0.0665,-0.6350,39.31,1171.94,936.28
16920,-3.8724,0.1040,-0.6556,523.68,-1281.13,154.97
16930,-3.8726,0.1249,-0.6689,1320.56,78.31,-516.91
16940,-3.8726,0.1261,-0.6774,-7.57,-1624.82,-220.09
16950,-3.8724,0.1267,-0.6930,148.68,1297.12,-1907.59
16960,-3.8723,0.1498,-0.7262,226.81,-702.88,1967.35
16970,-3.8722,0.2000,-0.7714,-820.07,-952.88,1107.91
16980,-3.8722,0.2642,-0.8129,1601.81,1265.99,-1876.53
16990,-3.8722,0.3243,-0.8466,1820.56,-46.39,1013.98
17000,-3.8723,0.3624,-0.8679,1523.68,-358.76,-1361.08
17010,-3.8723,0.3743,-0.8672,-1601.32,906.92,1310.79
17020,-3.8723,0.3752,-0.8599,-85.69,1000.67,-1501.71
17030,-3.8722,0.3894,-0.8788,39.31,1938.23,-1907.96
17040,-3.8721,0.4321,-0.9227,1851.81,-483.64,-251.77
17050,-3.8718,0.4966,-0.9620,-679.44,1891.42,1670.04
17060,-3.8717,0.5687,-0.9808,-429.44,860.29,1623.11
17070,-3.8717,0.6334,-0.9867,804.93,-1545.78,-1376.95
17080,-3.8717,0.6709,-0.9783,1086.18,1704.35,1544.92
17090,-3.8717,0.6805,-0.9467,1883.06,-1217.47,810.55
17100,-3.8717,0.6829,-0.9039,-882.57,-1170.59,1638.73
17110,-3.8716,0.7100,-0.8733,-585.69,298.16,326.35
17120,-3.8716,0.7843,-0.8643,-1116.94,220.09,-111.08
17130,-3.8715,0.8939,-0.8690,398.68,1376.53,-1970.46
17140,-3.8715,1.0071,-0.8729,-1570.07,767.33,-1220.46
17150,-3.8715,1.1011,-0.8578,914.31,267.58,-64.21
17160,-3.8713,1.1711,-0.8214,945.56,-1794.74,-1142.33
17170,-3.8712,1.2283,-0.7843,1914.31,-1138.37,-626.65
17180,-3.8710,1.2954,-0.7565,1226.81,-388.24,232.79
17190,-3.8708,1.3651,-0.7202,1820.56,-825.62,451.60
17200,-3.8708,1.4307,-0.6647,-1257.57,-184.88,-595.21
17210,-3.8707,1.5081,-0.5884,-866.94,-1075.38,1467.41
17220,-3.8707,1.5408,-0.5347,1039.31,690.43,1592.59
17230,-3.8708,1.5319,-0.5298,1226.81,-434.51,-954.22
17240,-3.8708,1.5294,-0.5106,86.18,190.49,14.59
17250,-3.8710,1.4724,-0.4796,-226.32,-1356.45,-1094.79
17260,-3.8710,1.3535,-0.4948,476.81,-1387.76,1811.52
17270,-3.8711,1.2410,-0.5359,1258.06,674.50,-1422.85
17280,-3.8712,1.1521,-0.5569,-1148.19,-591.37,1952.03
17290,-3.8713,1.0745,-0.5656,-523.19,720.95,139.53
17300,-3.8716,1.0140,-0.5791,1539.31,-388.55,1998.84
17310,-3.8717,0.9683,-0.5956,1804.93,1876.95,623.84
17320,-3.8718,0.9200,-0.6157,-54.44,-232.54,1295.65
17330,-3.8718,0.8699,-0.6472,1773.68,1189.27,701.90
17340,-3.8718,0.8245,-0.6918,-648.19,1157.90,-1673.16
17350,-3.8717,0.7721,-0.7349,1539.31,-545.29,1232.97
17360,-3.8716,0.7059,-0.7596,-1163.82,1938.96,1139.16
17370,-3.8715,0.6396,-0.7649,-1632.57,-1233.03,1639.10
17380,-3.8713,0.5879,-0.7543,1883.06,-1905.03,1748.47
17390,-3.8712,0.5577,-0.7319,-741.94,-545.78,826.60
17400,-3.8712,0.5547,-0.7072,-601.32,-1686.46,-1063.96
17410,-3.8711,0.5802,-0.6832,-991.94,1485.41,717.35
17420,-3.8711,0.6190,-0.6597,-1726.32,547.97,1904.91
17430,-3.8711,0.6458,-0.6396,-757.57,-436.34,1545.53
17440,-3.8711,0.6434,-0.6284,-1335.69,-1873.78,123.72
17450,-3.8712,0.6116,-0.6350,-1632.57,-436.28,-1688.78
17460,-3.8712,0.5614,-0.6650,-1710.69,-1280.09,811.22
17470,-3.8712,0.5060,-0.7065,-132.57,-1123.96,795.53
17480,-3.8712,0.4520,-0.7334,773.68,1563.48,-1470.15
17490,-3.8711,0.4050,-0.7213,1867.43,-1874.15,1264.16
17500,-3.8711,0.3739,-0.6653,-148.19,-327.39,-1532.71
17510,-3.8712,0.3662,-0.5872,-132.57,-1155.58,-266.97
17520,-3.8713,0.3779,-0.5153,-1116.94,844.42,1530.09
17530,-3.8716,0.3889,-0.4705,383.06,-1952.39,1967.71
17540,-3.8717,0.3724,-0.4689,1789.31,-218.02,374.02
17550,-3.8717,0.3258,-0.4962,-320.07,-14.95,249.02
17560,-3.8717,0.2761,-0.5089,1711.18,484.99,-875.98
17570,-3.8717,0.2448,-0.4797,-648.19,-1140.14,-32.29
17580,-3.8717,0.2333,-0.4241,-663.82,-1405.82,-1563.48
17590,-3.8718,0.2317,-0.3767,1867.43,1719.18,-16.48
17600,-3.8718,0.2313,-0.3578,1664.31,-218.32,1155.46
17610,-3.8719,0.2292,-0.3579,1617.43,-1796.45,1983.64
17620,-3.8721,0.2233,-0.3547,1351.81,-1812.07,-1235.11
17630,-3.8721,0.2120,-0.3386,586.18,-1405.82,374.27
17640,-3.8722,0.1981,-0.3179,-851.32,656.62,-281.92
17650,-3.8721,0.1865,-0.3088,1367.43,-687.13,296.20
17660,-3.8721,0.1771,-0.3209,-116.94,469.06,280.64
17670,-3.8722,0.1655,-0.3475,-1320.07,-1077.82,-938.17
17680,-3.8722,0.1487,-0.3660,1195.56,-484.07,1686.77
17690,-3.8723,0.1248,-0.3617,-960.69,1156.49,-313.23
17700,-3.8724,0.0940,-0.3452,-23.19,1703.31,-406.98
17710,-3.8726,0.0547,-0.3303,39.31,-187.32,-1875.73
17720,-3.8727,0.0062,-0.3181,-991.94,1718.81,-1485.05
17730,-3.8726,-0.0431,-0.3057,804.93,-718.75,1093.08
17740,-3.8723,-0.0831,-0.3097,-1507.57,890.50,-703.74
17750,-3.8718,-0.1047,-0.3512,1367.43,374.82,1874.39
17760,-3.8713,-0.1006,-0.4120,-1398.19,-937.74,389.89
17770,-3.8711,-0.0760,-0.4480,-866.94,-718.99,-203.98
17780,-3.8708,-0.0503,-0.4418,-1726.32,-1328.31,-391.54
17790,-3.8706,-0.0454,-0.4108,1570.56,-531.37,1889.71
17800,-3.8704,-0.0728,-0.3649,-1804.44,-562.62,905.40
17810,-3.8701,-0.1294,-0.3018,-1304.44,1312.32,577.39
17820,-3.8700,-0.2067,-0.2263,-554.44,1390.32,-1625.61
17830,-3.8699,-0.3049,-0.1421,1554.93,-953.55,1624.51
17840,-3.8698,-0.4202,-0.0592,976.81,1827.51,515.32
17850,-3.8696,-0.5287,-0.0040,-1773.19,436.65,515.50
17860,-3.8695,-0.6080,0.0166,336.18,-501.04,1203.06
17870,-3.8694,-0.6464,0.0376,-1820.07,-1860.60,625.00
17880,-3.8694,-0.6434,0.0845,1273.68,826.84,375.06
17890,-3.8695,-0.6012,0.1366,1648.68,-1173.16,15.75
17900,-3.8698,-0.5248,0.1666,-945.07,1498.78,1672.12
17910,-3.8700,-0.4374,0.1711,836.18,1342.71,-562.19
17920,-3.8701,-0.3634,0.1631,23.68,1921.02,-890.32
17930,-3.8701,-0.3105,0.1559,1492.43,889.89,1531.56
17940,-3.8701,-0.2784,0.1508,258.06,-31.86,-1749.76
17950,-3.8700,-0.2596,0.1437,367.43,-688.05,781.49
17960,-3.8699,-0.2421,0.1277,-1226.32,-1594.30,281.49
17970,-3.8699,-0.2213,0.0981,1023.68,358.89,-265.38
17980,-3.8698,-0.2058,0.0684,-320.07,577.64,-1656.07
17990,-3.8698,-0.1973,0.0505,1664.31,765.20,-265.50
18000,-3.8698,-0.1836,0.0450,-1241.94,-1516.05,-718.69
18010,-3.8698,-0.1610,0.0527,508.06,1780.88,359.44
18020,-3.8700,-0.1395,0.0658,-601.32,-1234.74,-734.31
18030,-3.8701,-0.1324,0.0696,-1851.32,437.19,1000.12
18040,-3.8704,-0.1471,0.0590,-945.07,921.57,-1171.75
18050,-3.8705,-0.1855,0.0265,1179.93,-437.81,-1718.69
18060,-3.8705,-0.2406,-0.0367,258.06,-594.12,1531.25
18070,-3.8704,-0.2897,-0.1108,1211.18,-687.99,1624.88
18080,-3.8702,-0.3054,-0.1620,-1070.07,1827.51,-234.62
18090,-3.8701,-0.2810,-0.1743,914.31,-719.36,-375.37
18100,-3.8701,-0.2390,-0.1536,39.31,1702.58,-1125.37
18110,-3.8702,-0.2083,-0.1244,1414.31,358.89,1890.32
18120,-3.8705,-0.1996,-0.1072,1351.81,93.32,-1359.62
18130,-3.8707,-0.2045,-0.1045,-1538.82,-1703.55,-297.12
18140,-3.8708,-0.2125,-0.1207,1836.18,-1359.80,-453.37
18150,-3.8708,-0.2219,-0.1556,804.93,562.07,-1453.37
18160,-3.8708,-0.2263,-0.1876,-398.19,93.26,-1547.18
18170,-3.8708,-0.2189,-0.2019,-960.69,-0.49,1140.20
18180,-3.8710,-0.1991,-0.2046,-7.57,-1828.61,1968.32
18190,-3.8711,-0.1660,-0.2048,-1476.32,1827.70,1702.70
18200,-3.8712,-0.1226,-0.2031,-1241.94,1796.51,1593.32
18210,-3.8713,-0.0812,-0.1959,320.56,-1984.62,-1781.68
18220,-3.8713,-0.0594,-0.1854,1617.43,-1062.68,280.82
18230,-3.8713,-0.0616,-0.1722,398.68,281.13,984.01
18240,-3.8712,-0.0763,-0.1616,117.43,1968.63,93.38
18250,-3.8712,-0.0947,-0.1665,-1757.57,-672.06,-359.74
18260,-3.8711,-0.1105,-0.1874,-116.94,-1297.12,1952.76
18270,-3.8711,-0.1088,-0.2039,1867.43,31.01,-1844.12
18280,-3.8711,-0.0828,-0.1967,-1913.82,1921.63,312.07
18290,-3.8712,-0.0452,-0.1732,1414.31,-1156.43,1499.57
18300,-3.8713,-0.0111,-0.1572,-1773.19,1843.63,-1234.74
18310,-3.8713,0.0081,-0.1644,-1413.82,-109.44,937.13
18320,-3.8713,0.0095,-0.1965,1039.31,-1046.88,890.26
18330,-3.8713,0.0032,-0.2344,1226.81,-1156.25,-1297.30
18340,-3.8712,0.0015,-0.2507,414.31,-2000.00,1249.51
18350,-3.8712,0.0111,-0.2406,195.56,-93.75,-1344.30
18360,-3.8712,0.0289,-0.2231,1429.93,1203.12,-1828.61
18370,-3.8712,0.0438,-0.2169,-288.82,-562.50,858.89
18380,-3.8713,0.0477,-0.2251,1617.43,234.44,-16.05
18390,-3.8712,0.0432,-0.2360,-1882.57,-812.44,187.01
18400,-3.8712,0.0366,-0.2397,1539.31,1796.94,999.51
18410,-3.8712,0.0321,-0.2402,695.56,1312.56,1421.39
18420,-3.8712,0.0359,-0.2452,117.43,1250.06,1671.39
18430,-3.8712,0.0532,-0.2548,601.81,609.44,1796.39
18440,-3.8712,0.0790,-0.2675,-1179.44,-609.31,1905.70
18450,-3.8712,0.1073,-0.2877,-1882.57,1765.75,-1063.05
18460,-3.8711,0.1354,-0.3103,1742.43,-827.94,296.26
18470,-3.8711,0.1593,-0.3267,1336.18,281.49,1124.39
18480,-3.8711,0.1830,-0.3370,398.68,-1812.19,1280.58
18490,-3.8711,0.2117,-0.3447,-570.07,859.68,186.83
18500,-3.8712,0.2405,-0.3519,-898.19,-124.63,-1813.23
18510,-3.8712,0.2599,-0.3622,-1210.69,-1046.45,139.89
18520,-3.8713,0.2675,-0.3778,1273.68,1641.11,-1344.48
18530,-3.8713,0.2678,-0.4000,-1757.57,-358.89,-1625.79
18540,-3.8713,0.2689,-0.4264,-1710.69,797.36,-703.92
18550,-3.8712,0.2777,-0.4504,-1570.07,1422.36,327.27
18560,-3.8712,0.2930,-0.4689,-445.07,-1655.76,811.58
18570,-3.8712,0.3082,-0.4827,1508.06,-15.08,764.65
18580,-3.8712,0.3192,-0.4871,-538.82,-1780.70,77.15
18590,-3.8713,0.3300,-0.4775,867.43,1656.86,-985.35
18600,-3.8713,0.3463,-0.4650,-1757.57,-1124.39,-1344.73
18610,-3.8713,0.3732,-0.4686,336.18,485.05,-141.54
18620,-3.8712,0.4149,-0.4913,-226.32,16.30,-1610.29
18630,-3.8711,0.4729,-0.5186,1117.43,1110.17,-1969.73
18640,-3.8710,0.5404,-0.5419,539.31,1625.92,-1922.91
18650,-3.8708,0.6110,-0.5568,1179.93,-1358.34,1577.03
18660,-3.8708,0.6854,-0.5610,-1788.82,735.53,-282.35
18670,-3.8707,0.7698,-0.5513,-257.57,188.78,764.53
18680,-3.8707,0.8651,-0.5266,-1460.69,1438.96,1373.90
18690,-3.8707,0.9570,-0.4926,-1257.57,595.40,1139.59
18700,-3.8708,1.0444,-0.4517,-1491.94,954.96,-79.10
18710,-3.8708,1.1172,-0.4186,1695.56,-1810.49,1702.21
18720,-3.8710,1.1740,-0.3959,-991.94,-1575.99,-1344.60
18730,-3.8711,1.2292,-0.3586,-1726.32,1330.38,-563.29
18740,-3.8711,1.2684,-0.3102,1351.81,-1903.87,436.77
18750,-3.8712,1.2780,-0.2762,-1632.57,299.32,483.76
18760,-3.8715,1.2725,-0.2529,-413.82,643.07,-609.92
18770,-3.8716,1.2693,-0.2327,-1116.94,-372.56,-797.42
18780,-3.8716,1.2523,-0.2349,-1523.19,-1778.81,733.89
18790,-3.8717,1.2115,-0.2601,304.93,1939.94,-1031.74
18800,-3.8717,1.1646,-0.2850,-913.82,-1294.56,1561.95
18810,-3.8717,1.1204,-0.2981,1070.56,-482.12,61.89
18820,-3.8718,1.0747,-0.3013,-585.69,1845.89,1358.76
18830,-3.8719,1.0232,-0.3007,1570.56,1439.58,1530.64
18840,-3.8721,0.9670,-0.3040,-1023.19,1517.58,1249.39
18850,-3.8722,0.9072,-0.3138,-210.69,1095.58,1327.51
18860,-3.8723,0.8467,-0.3315,133.06,-170.10,-1141.30
18870,-3.8723,0.7965,-0.3578,383.06,1564.15,-1328.80
18880,-3.8722,0.7592,-0.3903,1961.18,-1795.35,827.39
18890,-3.8721,0.7272,-0.4229,1179.93,-1951.66,546.08
18900,-3.8719,0.6913,-0.4503,1086.18,1876.40,842.90
18910,-3.8718,0.6481,-0.4730,492.43,-1639.28,1858.46
18920,-3.8717,0.6040,-0.4899,-1038.82,-545.65,-235.35
18930,-3.8715,0.5706,-0.4895,1320.56,1298.03,1139.65
18940,-3.8713,0.5546,-0.4587,1039.31,1344.85,45.90
18950,-3.8715,0.5555,-0.4042,-1007.57,1282.29,-188.42
18960,-3.8715,0.5708,-0.3517,-882.57,266.66,1296.08
18970,-3.8716,0.5968,-0.3252,1070.56,-1014.53,-1922.61
18980,-3.8717,0.6262,-0.3297,398.68,-1623.84,-735.05
18990,-3.8717,0.6530,-0.3563,164.31,1798.10,1343.08
19000,-3.8717,0.6792,-0.3910,-413.82,-1608.15,264.89
19010,-3.8718,0.6982,-0.4312,-1054.44,1954.41,-938.29
19020,-3.8718,0.6903,-0.4923,1383.06,813.84,1577.27
19030,-3.8718,0.6509,-0.5675,367.43,985.72,-579.10
19040,-3.8716,0.5931,-0.6112,-679.44,-639.40,1967.59
19050,-3.8715,0.5322,-0.5955,-70.07,1766.72,-391.85
19060,-3.8713,0.4802,-0.5441,133.06,-217.71,545.65
19070,-3.8715,0.4417,-0.4932,1476.81,-1639.71,1295.78
19080,-3.8717,0.4137,-0.4575,539.31,875.85,-594.73
19090,-3.8718,0.3927,-0.4385,961.18,1438.29,1030.33
19100,-3.8719,0.3779,-0.4288,-1726.32,-124.27,842.83
19110,-3.8721,0.3680,-0.4161,383.06,1110.11,-532.10
19120,-3.8721,0.3564,-0.4009,-882.57,-1264.95,-1032.10
19130,-3.8721,0.3383,-0.3956,1633.06,688.17,-1813.29
19140,-3.8721,0.3156,-0.4019,-695.07,1359.99,1467.96
19150,-3.8721,0.2925,-0.4078,398.68,563.11,952.33
19160,-3.8722,0.2727,-0.4039,1445.56,-202.58,-110.23
19170,-3.8722,0.2588,-0.3898,-1085.69,297.36,1452.33
19180,-3.8723,0.2524,-0.3740,1133.06,-1890.14,1546.08
19190,-3.8724,0.2545,-0.3635,320.56,125.49,1030.52
19200,-3.8726,0.2657,-0.3572,586.18,1469.24,1061.77
19210,-3.8727,0.2844,-0.3563,-1976.32,-1718.26,1827.39
19220,-3.8728,0.3010,-0.3649,414.31,-1608.83,-922.61
19230,-3.8728,0.3057,-0.3748,-1460.69,1297.42,780.52
19240,-3.8729,0.2919,-0.3752,-866.94,31.80,-938.23
19250,-3.8729,0.2582,-0.3711,1367.43,-30.70,-1125.79
19260,-3.8728,0.2184,-0.3779,1054.93,500.49,-1860.11
19270,-3.8726,0.1937,-0.4041,-38.82,-374.63,1733.58
19280,-3.8722,0.1953,-0.4469,804.93,281.62,311.71
19290,-3.8718,0.2307,-0.5067,1008.06,-1202.76,452.21
19300,-3.8715,0.3018,-0.5833,1539.31,-858.95,-1969.79
19310,-3.8710,0.3871,-0.6608,-1366.94,1344.30,155.09
19320,-3.8706,0.4550,-0.7140,1554.93,-577.39,936.16
19330,-3.8704,0.4841,-0.7281,-1757.57,610.23,-1142.03
19340,-3.8701,0.4661,-0.7080,1976.81,-1202.21,561.04
19350,-3.8701,0.4058,-0.6653,-335.69,1375.85,-1985.78
19360,-3.8701,0.3282,-0.6077,-54.44,-1155.52,1092.41
19370,-3.8702,0.2628,-0.5424,-1976.32,-1780.64,-938.72
19380,-3.8704,0.2155,-0.4784,1648.68,-1421.39,-329.22
19390,-3.8705,0.1702,-0.4240,-413.82,-1234.01,-969.73
19400,-3.8706,0.1151,-0.3827,1789.31,1734.68,-1500.85
19410,-3.8706,0.0535,-0.3551,-1257.57,-984.19,264.83
19420,-3.8706,-0.0023,-0.3314,-1148.19,-1453.06,1218.02
19430,-3.8706,-0.0406,-0.3005,-288.82,1593.69,-266.30
19440,-3.8705,-0.0568,-0.2633,-1195.07,1546.75,-1906.86
19450,-3.8705,-0.0594,-0.2255,742.43,-1687.62,-109.92
19460,-3.8704,-0.0745,-0.1929,398.68,-843.87,1374.51
19470,-3.8704,-0.1178,-0.1748,-1523.19,-672.06,-750.43
19480,-3.8702,-0.1776,-0.1755,929.93,1640.38,-1531.62
19490,-3.8701,-0.2299,-0.1832,1273.68,1546.51,-531.62
19500,-3.8699,-0.2606,-0.1880,-1413.82,562.01,-1937.87
19510,-3.8696,-0.2683,-0.1942,-1351.32,-47.42,1358.95
19520,-3.8695,-0.2574,-0.1971,1664.31,-844.30,-578.55
19530,-3.8694,-0.2413,-0.1859,-945.07,-1219.30,-1406.68
19540,-3.8694,-0.2396,-0.1705,1117.43,218.26,-1359.74
19550,-3.8694,-0.2642,-0.1643,1336.18,-1812.99,93.38
19560,-3.8695,-0.3065,-0.1627,-1804.44,-1016.17,405.88
19570,-3.8696,-0.3400,-0.1703,773.68,-813.11,1171.51
19580,-3.8698,-0.3417,-0.2003,492.43,-1781.92,-906.62
19590,-3.8698,-0.3116,-0.2433,273.68,-1625.67,1937.07
19600,-3.8698,-0.2675,-0.2731,117.43,874.39,890.14
19610,-3.8699,-0.2310,-0.2799,1773.68,1061.95,-828.67
19620,-3.8700,-0.2200,-0.2773,-1554.44,187.01,-94.30
19630,-3.8701,-0.2291,-0.2828,-148.19,515.14,-563.05
19640,-3.8702,-0.2384,-0.3025,-1320.07,-187.99,-641.24
19650,-3.8702,-0.2350,-0.3330,1492.43,1296.39,452.51
19660,-3.8704,-0.2178,-0.3690,1929.93,1390.14,-1735.05
19670,-3.8704,-0.1953,-0.4012,133.06,780.82,14.89
19680,-3.8705,-0.1755,-0.4227,-991.94,655.82,1499.21
19690,-3.8706,-0.1600,-0.4365,1539.31,1905.88,-953.98
19700,-3.8706,-0.1459,-0.4432,-476.32,140.26,921.02
19710,-3.8707,-0.1304,-0.4393,1336.18,-719.06,-1094.67
19720,-3.8707,-0.1110,-0.4272,-679.44,-219.06,514.71
19730,-3.8708,-0.0830,-0.4139,1804.93,1327.88,1561.65
19740,-3.8710,-0.0543,-0.4065,1383.06,-968.93,-1563.35
19750,-3.8711,-0.0444,-0.4066,1054.93,-15.75,-219.60
19760,-3.8711,-0.0603,-0.4075,-1679.44,-31.37,1499.15
19770,-3.8712,-0.0880,-0.4073,289.31,-140.75,-313.35
19780,-3.8712,-0.1083,-0.4136,742.43,-125.18,-625.85
19790,-3.8711,-0.1134,-0.4232,-1851.32,-922.12,217.90
19800,-3.8711,-0.1069,-0.4274,1492.43,1843.51,342.90
19810,-3.8712,-0.0936,-0.4274,-1679.44,1312.26,-360.23
19820,-3.8712,-0.0734,-0.4354,23.68,1312.32,-985.23
19830,-3.8712,-0.0507,-0.4536,-1382.57,281.07,-1703.98
19840,-3.8712,-0.0336,-0.4705,1523.68,1953.00,1295.96
19850,-3.8712,-0.0183,-0.4780,-288.82,-203.25,327.15
19860,-3.8713,0.0056,-0.4805,1664.31,-1171.94,-297.85
19870,-3.8713,0.0403,-0.4830,726.81,-1500.00,-454.10
19880,-3.8713,0.0714,-0.4880,1164.31,-1828.06,-438.48
19890,-3.8713,0.0907,-0.4939,1148.68,1531.37,-1204.10
19900,-3.8713,0.1069,-0.4904,-382.57,781.37,108.40
19910,-3.8716,0.1254,-0.4714,1695.56,1234.56,-250.98
19920,-3.8717,0.1342,-0.4523,54.93,-343.51,-875.98
19930,-3.8718,0.1272,-0.4604,1179.93,-1890.38,-219.67
19940,-3.8718,0.1184,-0.4980,289.31,1062.74,-1204.04
19950,-3.8717,0.1218,-0.5380,-835.69,250.18,233.40
19960,-3.8717,0.1404,-0.5618,-398.19,-859.19,-1407.35
19970,-3.8717,0.1743,-0.5740,1976.81,93.99,-313.60
19980,-3.8717,0.2289,-0.5782,-1679.44,-1468.44,-1329.28
19990,-3.8718,0.3019,-0.5702,1304.93,1984.80,-1938.66
20000,-3.8721,0.3787,-0.5469,-1351.32,-983.83,1842.59
20010,-3.8723,0.4391,-0.5132,476.81,-1999.27,-1469.85
20020,-3.8723,0.4567,-0.4844,211.18,-1686.65,1014.59
20030,-3.8722,0.4243,-0.4724,-1538.82,-1999.15,-547.85
20040,-3.8718,0.3643,-0.4716,-1679.44,-467.96,-735.35
20050,-3.8715,0.3014,-0.4766,-1366.94,-358.70,-1719.73
20060,-3.8712,0.2665,-0.4963,-1413.82,-999.45,1420.90
20070,-3.8711,0.2793,-0.5325,-1882.57,469.24,1170.90
20080,-3.8711,0.3141,-0.5558,-241.94,-155.76,-797.97
20090,-3.8710,0.3359,-0.5469,211.18,859.99,1952.03
20100,-3.8708,0.3462,-0.5308,-991.94,-1999.39,-1688.60
20110,-3.8707,0.3677,-0.5334,320.56,63.17,-94.79
20120,-3.8705,0.4158,-0.5620,-929.44,-280.58,-891.72
20130,-3.8702,0.4989,-0.6141,1226.81,63.29,-79.22
20140,-3.8699,0.6254,-0.6781,-132.57,1391.54,280.03
20150,-3.8698,0.7789,-0.7249,54.93,1204.35,1920.53
20160,-3.8698,0.9174,-0.7098,-288.82,-779.79,-642.09
20170,-3.8699,0.9916,-0.6215,1429.93,1142.40,-48.28
20180,-3.8700,1.0238,-0.5072,-1070.07,455.02,1420.65
20190,-3.8702,1.0916,-0.4246,-945.07,-919.92,-1282.29
20200,-3.8704,1.1573,-0.4031,-273.19,1658.33,1014.77
20210,-3.8706,1.1565,-0.3898,148.68,408.51,-1594.54
20220,-3.8707,1.0989,-0.3285,39.31,-1888.37,546.08
20230,-3.8708,1.0363,-0.2771,664.31,1955.26,-219.42
20240,-3.8707,1.0231,-0.2837,648.68,533.26,-1484.92
20250,-3.8706,1.0386,-0.3140,-1038.82,-310.55,-1563.11
20260,-3.8705,1.0240,-0.3331,945.56,-185.49,1608.70
20270,-3.8705,0.9525,-0.3387,-913.82,1361.33,1421.20
20280,-3.8706,0.8358,-0.3328,1929.93,642.46,-1453.80
20290,-3.8707,0.6956,-0.3054,-1007.57,1407.84,-1328.80
20300,-3.8708,0.5574,-0.2618,1039.31,907.59,1999.39
20310,-3.8710,0.4446,-0.2255,-648.19,-1514.59,655.70
20320,-3.8712,0.3635,-0.2065,914.31,-858.52,-109.86
20330,-3.8712,0.3126,-0.1979,-1460.69,1563.17,890.20
20340,-3.8713,0.2891,-0.1952,23.68,-1327.51,-250.43
20350,-3.8713,0.2932,-0.1981,1008.06,-983.83,-47.30
20360,-3.8712,0.3231,-0.2074,1539.31,-1358.83,1155.82
20370,-3.8712,0.3595,-0.2249,1367.43,1453.74,-797.30
20380,-3.8711,0.3810,-0.2472,-1976.32,-780.58,1671.39
20390,-3.8711,0.3824,-0.2640,773.68,360.11,-422.36
20400,-3.8710,0.3738,-0.2657,961.18,-1796.14,936.95
20410,-3.8710,0.3698,-0.2532,-148.19,1985.05,-1953.67
20420,-3.8710,0.3838,-0.2379,-663.82,-405.58,-1594.30
20430,-3.8710,0.4216,-0.2310,1133.06,1547.61,1749.51
20440,-3.8710,0.4745,-0.2291,1976.81,-1561.71,655.76
20450,-3.8711,0.5272,-0.2231,742.43,-1327.21,-391.11
20460,-3.8711,0.5690,-0.2107,-507.57,-561.52,-1422.36
20470,-3.8711,0.5968,-0.1985,836.18,1032.35,1577.70
20480,-3.8711,0.6116,-0.2056,398.68,-1405.09,-1703.55
20490,-3.8710,0.6193,-0.2434,-1710.69,1688.66,-1781.68
20500,-3.8707,0.6362,-0.2902,-726.32,844.91,155.76
20510,-3.8706,0.6763,-0.3121,1445.56,-1139.40,-1188.11
20520,-3.8704,0.7411,-0.2985,-1429.44,48.16,686.89
20530,-3.8704,0.8236,-0.2662,-1132.57,1798.28,-703.74
20540,-3.8704,0.9126,-0.2391,1429.93,1923.46,1874.45
20550,-3.8705,0.9868,-0.2343,820.56,1392.40,1280.76
20560,-3.8707,1.0198,-0.2645,-1679.44,-1982.48,-922.36
20570,-3.8708,0.9983,-0.3190,-1460.69,-1857.42,1186.95
20580,-3.8711,0.9293,-0.3622,-210.69,-826.23,-110.05
20590,-3.8712,0.8422,-0.3785,-1038.82,1642.40,1749.27
20600,-3.8715,0.7595,-0.3866,-195.07,-451.54,1905.46
20610,-3.8717,0.6835,-0.4041,1226.81,-1482.91,-1438.29
20620,-3.8718,0.6108,-0.4225,-507.57,282.53,-1657.04
20630,-3.8718,0.5433,-0.4250,-1804.44,1923.03,1217.90
20640,-3.8718,0.4839,-0.4082,1554.93,1594.79,686.65
20650,-3.8719,0.4305,-0.3772,1945.56,-249.08,1858.52
20660,-3.8722,0.3820,-0.3408,-882.57,-280.46,-407.04
20670,-3.8724,0.3396,-0.3146,898.68,375.73,-547.55
20680,-3.8726,0.3011,-0.3135,-523.19,-265.01,358.70
20690,-3.8727,0.2654,-0.3402,-1445.07,-124.45,764.95
20700,-3.8727,0.2355,-0.3807,1976.81,453.61,1218.08
20710,-3.8727,0.2056,-0.4115,-1851.32,-733.95,-688.29
20720,-3.8726,0.1671,-0.4142,-1679.44,-671.51,499.15
20730,-3.8726,0.1240,-0.3960,1398.68,-1015.32,77.27
20740,-3.8727,0.0889,-0.3838,-116.94,1312.68,1874.21
20750,-3.8728,0.0681,-0.3989,-616.94,-1124.88,-1203.92
20760,-3.8728,0.0558,-0.4509,726.81,937.62,561.71
20770,-3.8729,0.0393,-0.5308,-851.32,-1718.69,-47.79
20780,-3.8728,0.0071,-0.6086,1039.31,62.56,139.59
20790,-3.8728,-0.0413,-0.6685,914.31,-1906.25,436.28
20800,-3.8728,-0.0963,-0.7203,-1273.19,-1547.00,717.41
20810,-3.8728,-0.1683,-0.7695,-320.07,-187.74,1764.16
20820,-3.8727,-0.2585,-0.8126,-1538.82,1515.26,1014.10
20830,-3.8726,-0.3538,-0.8309,-1085.69,-0.55,-845.40
20840,-3.8722,-0.4636,-0.8230,-1273.19,1655.52,1779.60
20850,-3.8717,-0.5906,-0.8163,664.31,-1329.04,1967.10
20860,-3.8711,-0.7183,-0.8265,414.31,-469.91,-595.40
20870,-3.8702,-0.8348,-0.8385,70.56,-1782.65,592.10
20880,-3.8695,-0.9484,-0.7919,1148.68,685.85,1545.23
20890,-3.8689,-1.0793,-0.6442,-1382.57,-1345.64,1295.29
20900,-3.8685,-1.2238,-0.4333,1851.81,1560.36,1029.97
20910,-3.8685,-1.3492,-0.2393,-632.57,544.43,-922.73
20920,-3.8688,-1.4216,-0.1127,-695.07,1387.94,-937.99
20930,-3.8691,-1.4202,-0.0476,-1960.69,1590.94,15.38
20940,-3.8698,-1.3384,-0.0145,-1773.19,1919.07,1999.88
20950,-3.8704,-1.1844,0.0031,695.56,-1846.37,-625.06
20960,-3.8708,-0.9885,0.0179,398.68,403.93,-1109.38
20970,-3.8711,-0.8014,0.0315,1476.81,-1689.45,875.00
20980,-3.8712,-0.6724,0.0215,1429.93,45.29,-265.56
20990,-3.8710,-0.6241,-0.0184,1945.56,-1235.72,-1156.25
21000,-3.8706,-0.6307,-0.0674,117.43,1655.03,1781.19
21010,-3.8704,-0.6497,-0.1105,-726.32,-610.66,-1375.18
21020,-3.8702,-0.6614,-0.1423,851.81,1873.72,-765.87
21030,-3.8701,-0.6545,-0.1600,-648.19,1795.53,905.94
21040,-3.8701,-0.6293,-0.1654,226.81,-470.03,890.26
21050,-3.8702,-0.5955,-0.1581,-538.82,-1157.53,-1172.24
21060,-3.8704,-0.5526,-0.1381,-210.69,-219.97,-1703.49
21070,-3.8705,-0.5009,-0.1245,1273.68,-1657.35,405.94
21080,-3.8707,-0.4497,-0.1339,-101.32,77.09,-687.74
21090,-3.8707,-0.4060,-0.1537,-1554.44,-1125.92,609.07
21100,-3.8707,-0.3737,-0.1713,39.31,342.96,280.94
21110,-3.8707,-0.3573,-0.1879,179.93,-1906.98,1562.13
21120,-3.8707,-0.3542,-0.1969,-1726.32,-31.98,-719.18
21130,-3.8706,-0.3531,-0.1917,-1335.69,-1188.23,546.45
21140,-3.8706,-0.3389,-0.1866,-1195.07,-516.36,1905.82
21150,-3.8706,-0.3093,-0.1938,633.06,124.33,-640.99
21160,-3.8706,-0.2765,-0.1996,414.31,-797.49,-94.18
21170,-3.8706,-0.2451,-0.1914,617.43,-1531.80,-750.43
21180,-3.8706,-0.2203,-0.1711,633.06,-484.86,1062.07
21190,-3.8707,-0.2118,-0.1404,-195.07,-1891.11,718.38
21200,-3.8710,-0.2135,-0.1022,898.68,-1953.55,-609.68
21210,-3.8711,-0.2119,-0.0702,679.93,-1062.93,-937.74
21220,-3.8711,-0.1985,-0.0516,883.06,-969.18,484.19
21230,-3.8712,-0.1742,-0.0427,-1398.19,1405.82,-531.37
21240,-3.8712,-0.1521,-0.0420,1711.18,-1453.49,-843.87
21250,-3.8712,-0.1454,-0.0448,539.31,-1359.68,-1968.87
21260,-3.8713,-0.1567,-0.0421,1398.68,-1719.06,-1031.37
21270,-3.8715,-0.1846,-0.0350,-54.44,-1375.37,-1703.25
21280,-3.8716,-0.2264,-0.0315,383.06,-469.12,968.63
21290,-3.8718,-0.2760,-0.0276,-976.32,-16.11,-297.00
21300,-3.8719,-0.3284,-0.0112,679.93,483.83,-750.06
21310,-3.8721,-0.3749,0.0135,1976.81,-1422.55,-78.19
21320,-3.8721,-0.4108,0.0148,23.68,1749.27,-1750.00
21330,-3.8719,-0.4402,-0.0482,-570.07,1905.40,1140.62
21340,-3.8717,-0.4548,-0.1665,-335.69,1842.83,453.00
21350,-3.8715,-0.4357,-0.2836,1789.31,-1297.79,155.88
21360,-3.8713,-0.3794,-0.3564,242.43,-282.10,1171.26
21370,-3.8713,-0.3076,-0.3718,-554.44,-1610.17,1811.77
21380,-3.8715,-0.2488,-0.3558,633.06,421.26,-328.86
21390,-3.8715,-0.2164,-0.3555,164.31,-1531.74,1999.27
21400,-3.8715,-0.2007,-0.3906,304.93,-1484.80,-1703.86
21410,-3.8713,-0.1832,-0.4452,-1679.44,-1984.80,30.46
21420,-3.8713,-0.1534,-0.4954,554.93,-969.12,1608.46
21430,-3.8713,-0.1095,-0.5352,367.43,609.07,-1750.98
21440,-3.8713,-0.0533,-0.5668,1992.43,-484.62,-1391.72
21450,-3.8713,0.0194,-0.5864,1179.93,-531.37,-923.03
21460,-3.8713,0.1062,-0.5924,-1507.57,937.50,-626.16
21470,-3.8713,0.1801,-0.5945,1601.81,172.06,-735.53
21480,-3.8713,0.2183,-0.6068,-945.07,-93.44,-844.97
21490,-3.8713,0.2345,-0.6345,-54.44,-1671.51,-485.60
21500,-3.8713,0.2523,-0.6685,-1976.32,-1218.32,-454.41
21510,-3.8713,0.2770,-0.6965,304.93,-1562.01,-1423.22
21520,-3.8713,0.3066,-0.7224,-538.82,-1155.76,732.97
21530,-3.8715,0.3408,-0.7500,-741.94,-468.20,-485.84
21540,-3.8713,0.3844,-0.7638,-366.94,0.61,576.66
21550,-3.8713,0.4431,-0.7565,1211.18,-1764.89,-1407.78
21560,-3.8713,0.5103,-0.7480,726.81,-827.27,-1235.90
21570,-3.8713,0.5748,-0.7513,1320.56,250.98,342.29
21580,-3.8715,0.6305,-0.7552,1586.18,-170.78,857.85
21590,-3.8716,0.6792,-0.7532,711.18,-670.65,-1220.28
21600,-3.8716,0.7327,-0.7484,-1054.44,-404.97,-907.78
21610,-3.8715,0.7920,-0.7377,1789.31,204.53,1404.79
21620,-3.8713,0.8533,-0.7207,1383.06,1579.65,1701.66
21630,-3.8712,0.9187,-0.7048,1226.81,-248.35,-1532.71
21640,-3.8711,0.9916,-0.6881,1601.81,1783.02,889.22
21650,-3.8711,1.0616,-0.6727,-1070.07,-76.23,154.85
21660,-3.8712,1.0929,-0.6510,-101.32,1892.64,1576.78
21670,-3.8713,1.0865,-0.6052,-101.32,673.95,-1516.91
21680,-3.8715,1.0892,-0.5486,-913.82,-1466.67,-657.47
21690,-3.8715,1.1061,-0.4728,-570.07,1783.33,1592.65
21700,-3.8715,1.1082,-0.4095,1586.18,-513.49,-1329.10
21710,-3.8715,1.0819,-0.4103,1851.81,-419.74,-203.98
21720,-3.8713,1.0453,-0.4171,-1507.57,-513.55,264.77
21730,-3.8713,1.0277,-0.3859,1804.93,-1388.61,-610.23
21740,-3.8711,1.0167,-0.3674,-445.07,-1388.67,1655.46
21750,-3.8708,0.9888,-0.3910,-1851.32,970.70,171.14
21760,-3.8708,0.9489,-0.4178,-1429.44,1955.02,-578.92
21770,-3.8708,0.8973,-0.4247,1461.18,-1482.54,-1500.85
21780,-3.8708,0.8330,-0.4265,-1132.57,1642.33,296.02
21790,-3.8710,0.7645,-0.4332,-1366.94,1407.84,-1063.35
21800,-3.8710,0.7032,-0.4403,1867.43,548.34,1749.15
21810,-3.8710,0.6609,-0.4393,-1976.32,-358.03,61.58
21820,-3.8711,0.6437,-0.4309,601.81,-233.09,1030.33
21830,-3.8712,0.6489,-0.4213,-1601.32,844.97,46.02
21840,-3.8715,0.6619,-0.4147,-929.44,-1920.65,1186.65
21850,-3.8717,0.6737,-0.4133,726.81,-1076.84,796.02
21860,-3.8719,0.6929,-0.4122,-1757.57,-904.97,217.90
21870,-3.8722,0.7229,-0.4041,695.56,-764.28,1280.40
21880,-3.8723,0.7496,-0.3932,539.31,282.65,967.96
21890,-3.8724,0.7633,-0.3994,-38.82,1673.28,-625.79
21900,-3.8723,0.7588,-0.4351,1711.18,876.46,108.58
21910,-3.8723,0.7301,-0.4912,1133.06,313.96,-735.23
21920,-3.8721,0.6823,-0.5540,1461.18,1126.40,249.02
21930,-3.8719,0.6222,-0.6124,-663.82,1095.03,1952.03
21940,-3.8718,0.5609,-0.6556,-351.32,1610.53,-173.10
21950,-3.8716,0.5125,-0.6809,-195.07,79.16,1639.34
21960,-3.8715,0.4829,-0.6929,1601.81,844.73,-1563.84
21970,-3.8713,0.4752,-0.6877,1820.56,-686.58,514.22
21980,-3.8715,0.4786,-0.6586,836.18,-30.33,-173.28
21990,-3.8715,0.4802,-0.6211,1273.68,-295.96,1686.16
22000,-3.8716,0.4827,-0.6069,1476.81,500.92,-94.97
22010,-3.8715,0.4908,-0.6255,1789.31,-1686.58,1045.65
22020,-3.8713,0.4980,-0.6549,-1163.82,-61.58,1420.59
22030,-3.8712,0.4946,-0.6749,-241.94,172.79,-1751.28
22040,-3.8711,0.4753,-0.6774,-679.44,1610.29,623.66
22050,-3.8712,0.4476,-0.6556,851.81,1297.79,-313.84
22060,-3.8712,0.4275,-0.6211,1304.93,78.98,92.47
22070,-3.8715,0.4225,-0.6077,-1273.19,500.79,-673.10
22080,-3.8715,0.4242,-0.6346,-1913.82,-1780.46,780.03
22090,-3.8715,0.4126,-0.6771,-1695.07,-1233.58,-923.16
22100,-3.8713,0.3798,-0.6903,820.56,1328.92,-251.34
22110,-3.8712,0.3418,-0.6577,617.43,-358.64,1764.22
22120,-3.8713,0.3153,-0.6064,-241.94,-186.89,-1704.47
22130,-3.8716,0.2979,-0.5726,367.43,-1624.39,1951.90
22140,-3.8719,0.2786,-0.5651,-1866.94,-1296.33,-298.03
22150,-3.8722,0.2466,-0.5685,-335.69,-327.64,-1844.91
22160,-3.8724,0.1991,-0.5674,-429.44,-765.20,-1985.53
22170,-3.8727,0.1438,-0.5630,1492.43,-624.63,-719.91
22180,-3.8728,0.0879,-0.5636,-1585.69,-62.26,-1126.16
22190,-3.8728,0.0317,-0.5707,-741.94,-140.50,1451.97
22200,-3.8728,-0.0283,-0.5828,70.56,-1046.81,1748.84
22210,-3.8728,-0.0881,-0.6002,383.06,1421.81,-1032.41
22220,-3.8727,-0.1239,-0.6199,726.81,-812.68,-1782.47
22230,-3.8724,-0.1096,-0.6401,148.68,671.63,92.53
22240,-3.8723,-0.0547,-0.6678,1976.81,-1922.12,-235.66
22250,-3.8721,-0.0001,-0.7032,1008.06,-1468.87,-407.59
22260,-3.8718,0.0277,-0.7395,-7.57,1999.94,1248.60
22270,-3.8718,0.0333,-0.7810,-445.07,1343.75,-17.09
22280,-3.8717,0.0360,-0.8243,273.68,31.31,1951.60
22290,-3.8716,0.0459,-0.8601,617.43,-1515.56,1560.85
22300,-3.8715,0.0564,-0.8898,1883.06,1906.31,-17.33
22310,-3.8711,0.0630,-0.9016,-773.19,-1890.56,1607.60
22320,-3.8707,0.0632,-0.8823,70.56,593.87,1873.23
22330,-3.8704,0.0613,-0.8417,101.81,-937.38,-548.65
22340,-3.8700,0.0610,-0.7954,-148.19,265.69,-1017.27
22350,-3.8698,0.0468,-0.7384,-179.44,-1812.44,1201.54
22360,-3.8698,-0.0016,-0.6566,1992.43,1484.44,1842.29
22370,-3.8699,-0.0936,-0.5632,-195.07,-31.31,-1438.84
22380,-3.8700,-0.2114,-0.4835,23.68,-78.31,1030.09
22390,-3.8702,-0.3116,-0.4166,945.56,-1875.43,-1000.98
22400,-3.8704,-0.3882,-0.3484,117.43,-1313.11,-1391.48
22410,-3.8704,-0.4655,-0.2927,-1679.44,-578.92,452.39
22420,-3.8704,-0.4995,-0.2643,429.93,-1454.04,124.39
22430,-3.8704,-0.4498,-0.2576,70.56,-1813.48,-1906.80
22440,-3.8702,-0.3655,-0.2666,-1570.07,-954.04,1890.08
22450,-3.8701,-0.2963,-0.2782,1226.81,1889.89,1327.58
22460,-3.8701,-0.2382,-0.2805,-1913.82,405.64,-1328.67
22470,-3.8701,-0.1824,-0.2823,1523.68,108.89,-1109.92
22480,-3.8700,-0.1466,-0.2899,664.31,-125.37,311.89
22490,-3.8700,-0.1426,-0.2971,1242.43,-1094.06,-484.99
22500,-3.8699,-0.1582,-0.3030,1758.06,1984.07,-1297.49
22510,-3.8699,-0.1786,-0.3091,-241.94,1234.01,-328.74
22520,-3.8699,-0.1991,-0.3091,1148.68,452.76,-1766.24
22530,-3.8700,-0.2189,-0.3080,-1476.32,452.70,-422.49
22540,-3.8700,-0.2365,-0.3234,-7.57,593.26,1483.76
22550,-3.8700,-0.2452,-0.3524,1742.43,-1375.49,1436.83
22560,-3.8700,-0.2433,-0.3851,617.43,-1094.24,-1063.23
22570,-3.8700,-0.2362,-0.4209,867.43,-1281.74,-266.42
22580,-3.8700,-0.2273,-0.4513,1773.68,-1859.86,-1188.35
22590,-3.8700,-0.2211,-0.4677,-1085.69,-1750.49,764.71
22600,-3.8701,-0.2225,-0.4780,-288.82,155.76,1639.71
22610,-3.8702,-0.2236,-0.4855,-476.32,-1172.36,1639.65
22620,-3.8704,-0.2159,-0.4821,-616.94,1874.51,842.77
22630,-3.8706,-0.2035,-0.4670,367.43,-1687.93,-438.48
22640,-3.8707,-0.1942,-0.4481,1961.18,233.95,-1641.54
22650,-3.8708,-0.1895,-0.4293,-851.32,-1344.18,1452.21
22660,-3.8710,-0.1841,-0.4102,-241.94,1062.07,1077.27
22670,-3.8711,-0.1724,-0.3948,445.56,-484.74,1733.52
22680,-3.8712,-0.1505,-0.3854,1945.56,1484.01,-360.17
22690,-3.8712,-0.1244,-0.3798,742.43,-1312.81,1921.08
22700,-3.8713,-0.1050,-0.3740,86.18,-593.99,-453.92
22710,-3.8715,-0.0968,-0.3590,-1429.44,140.38,-125.73
22720,-3.8716,-0.0935,-0.3286,-382.57,-1937.74,-828.86
22730,-3.8717,-0.0881,-0.2943,39.31,1952.94,-1547.55
22740,-3.8718,-0.0798,-0.2736,726.81,-1656.43,-1000.61
22750,-3.8718,-0.0723,-0.2739,1789.31,999.82,-1516.17
