timestamp_ms,ax,ay,az,gx,gy,gz
0,-3.8750,0.0387,0.9855,336.18,1890.69,-1419.98
10,-3.8750,0.0408,0.9868,961.18,-1859.31,-982.48
20,-3.8750,0.0408,0.9897,1226.81,-1687.44,-498.11
30,-3.8749,0.0397,0.9949,1226.81,-1312.44,111.27
40,-3.8749,0.0376,0.9963,1086.18,-656.19,861.27
50,-3.8749,0.0330,0.9919,820.56,-468.69,1548.77
60,-3.8749,0.0264,0.9850,226.81,-1031.19,-1935.61
70,-3.8749,0.0197,0.9788,-616.94,-1921.88,-1591.86
80,-3.8749,0.0132,0.9762,-1476.32,1281.25,-1513.73
90,-3.8749,0.0079,0.9795,1695.56,953.12,-1513.73
100,-3.8749,0.0043,0.9866,1023.68,1375.00,-1451.23
110,-3.8749,-0.0009,0.9926,554.93,-1718.75,-1357.48
120,-3.8749,-0.0065,0.9966,-101.32,-937.56,-1232.48
130,-3.8749,-0.0079,1.0010,-820.07,-421.94,-1466.86
140,-3.8749,-0.0068,1.0033,-1007.57,140.56,1970.70
150,-3.8749,-0.0081,1.0004,-866.94,437.44,-1888.67
160,-3.8749,-0.0116,0.9948,-1023.19,62.44,-1232.42
170,-3.8749,-0.0145,0.9896,-1476.32,-656.31,-1201.23
180,-3.8749,-0.0159,0.9860,-1851.32,-1312.56,1986.27
190,-3.8749,-0.0164,0.9869,1976.81,-1781.31,908.14
200,-3.8750,-0.0168,0.9932,1914.31,-1656.31,-138.73
210,-3.8750,-0.0171,1.0024,1851.81,-859.44,-826.23
220,-3.8750,-0.0160,1.0122,1820.56,328.06,-904.30
230,-3.8750,-0.0135,1.0183,1961.18,1578.06,-576.17
240,-3.8749,-0.0088,1.0205,-1726.32,-1640.69,64.45
250,-3.8749,-0.0010,1.0219,-1116.94,-1359.44,814.45
260,-3.8749,0.0082,1.0225,-116.94,-1187.56,1642.58
270,-3.8749,0.0172,1.0194,1054.93,-1125.00,-1404.30
280,-3.8749,0.0240,1.0110,-1788.82,-1515.62,-716.80
290,-3.8749,0.0292,0.9987,-913.82,1406.25,-591.80
300,-3.8749,0.0341,0.9839,-257.57,-171.88,-1029.36
310,-3.8749,0.0404,0.9709,367.43,1937.56,-1857.48
320,-3.8749,0.0507,0.9651,1179.93,281.31,1111.27
330,-3.8749,0.0621,0.9647,-1507.57,-468.69,64.33
340,-3.8750,0.0710,0.9659,-38.82,-515.56,-685.67
350,-3.8750,0.0746,0.9679,1101.81,-359.25,-1076.29
360,-3.8750,0.0723,0.9688,1554.93,-109.25,-1216.92
370,-3.8750,0.0658,0.9684,1258.06,0.12,-1201.23
380,-3.8750,0.0615,0.9688,429.93,-46.75,-1138.79
390,-3.8750,0.0597,0.9716,-116.94,0.06,-1060.61
400,-3.8750,0.0573,0.9773,-351.32,359.44,-935.61
410,-3.8750,0.0538,0.9836,-663.82,1093.81,-857.48
420,-3.8750,0.0500,0.9882,-1101.32,1906.31,-935.61
430,-3.8750,0.0463,0.9912,-1585.69,-1515.56,-1201.23
440,-3.8750,0.0414,0.9940,1929.93,-1124.94,-1435.61
450,-3.8750,0.0345,0.9971,1304.93,-765.56,-1623.11
460,-3.8750,0.0258,0.9971,429.93,-374.94,-1685.61
470,-3.8750,0.0170,0.9929,-695.07,-375.00,-1466.86
480,-3.8750,0.0096,0.9878,-1820.07,-906.25,-1373.11
490,-3.8750,0.0060,0.9841,1242.43,-1562.50,-1576.23
500,-3.8750,0.0057,0.9854,773.68,1968.75,-1841.86
510,-3.8750,0.0081,0.9945,742.43,-1875.00,-1998.11
520,-3.8750,0.0093,1.0056,1039.31,-703.12,-1841.86
530,-3.8750,0.0077,1.0100,1195.56,718.75,-982.42
540,-3.8749,0.0054,1.0083,992.43,1281.25,470.70
550,-3.8749,0.0034,1.0060,695.56,1062.50,1798.83
560,-3.8749,0.0017,1.0040,445.56,765.62,-1498.05
570,-3.8749,0.0001,1.0040,226.81,515.62,-1216.80
580,-3.8749,-0.0018,1.0083,23.68,515.62,-935.55
590,-3.8749,-0.0046,1.0122,-226.32,1078.06,-591.80
600,-3.8749,-0.0076,1.0110,-585.69,1578.06,-388.67
610,-3.8749,-0.0090,1.0070,-960.69,1421.81,-341.80
620,-3.8749,-0.0084,1.0034,-1148.19,906.19,-419.92
630,-3.8749,-0.0044,1.0002,-1070.07,453.06,-732.42
640,-3.8749,0.0012,0.9962,-554.44,46.81,-1154.30
650,-3.8749,0.0055,0.9913,164.31,-484.38,-1607.48
660,-3.8749,0.0088,0.9877,711.18,-1109.38,1736.27
670,-3.8749,0.0131,0.9857,1133.06,-1578.12,814.39
680,-3.8750,0.0188,0.9846,1679.93,-1828.12,-91.86
690,-3.8750,0.0232,0.9833,-1585.69,-1968.75,-763.73
700,-3.8750,0.0249,0.9824,-1023.19,1859.38,-1185.61
710,-3.8750,0.0249,0.9816,-804.44,1750.00,-1388.73
720,-3.8750,0.0247,0.9808,-804.44,1640.62,-1419.98
730,-3.8750,0.0251,0.9819,-835.69,1546.88,-1326.23
740,-3.8750,0.0255,0.9839,-773.19,1687.50,-1341.86
750,-3.8750,0.0242,0.9843,-726.32,1937.50,-1294.98
760,-3.8750,0.0220,0.9832,-898.19,1984.38,-1044.98
770,-3.8750,0.0206,0.9833,-1179.44,1843.75,-794.98
780,-3.8750,0.0216,0.9871,-1351.32,1859.38,-576.23
790,-3.8750,0.0239,0.9932,-1226.32,-1656.25,-404.36
800,-3.8750,0.0254,0.9966,-929.44,-875.00,-373.11
810,-3.8750,0.0260,0.9960,-741.94,-437.50,-435.61
820,-3.8750,0.0270,0.9939,-663.82,-515.62,-591.86
830,-3.8750,0.0281,0.9916,-538.82,-781.25,-763.73
840,-3.8750,0.0289,0.9904,-398.19,-1078.12,-841.86
850,-3.8750,0.0297,0.9900,-288.82,-1234.38,-904.36
860,-3.8750,0.0303,0.9891,-195.07,-1281.25,-982.48
870,-3.8750,0.0303,0.9888,-116.94,-1390.62,-951.23
880,-3.8750,0.0308,0.9894,-116.94,-1437.50,-1076.23
890,-3.8750,0.0326,0.9890,-54.44,-1359.38,-1576.23
900,-3.8750,0.0356,0.9869,179.93,-1406.19,1939.39
910,-3.8750,0.0387,0.9850,570.56,-1671.81,1783.14
920,-3.8750,0.0402,0.9852,961.18,-1921.81,1736.27
930,-3.8750,0.0398,0.9873,1148.68,-1890.56,1533.14
940,-3.8750,0.0372,0.9890,1101.81,-1624.94,1455.02
950,-3.8750,0.0331,0.9902,773.68,-1406.19,1689.39
960,-3.8750,0.0306,0.9922,242.43,-1249.94,1783.14
970,-3.8750,0.0297,0.9939,-70.07,-1000.00,1517.52
980,-3.8750,0.0275,0.9928,-195.07,-781.25,1330.02
990,-3.8750,0.0240,0.9895,-476.32,-921.88,1470.64
1000,-3.8750,0.0206,0.9858,-913.82,-1343.75,1626.89
1010,-3.8750,0.0184,0.9839,-1351.32,-1812.50,1533.14
1020,-3.8750,0.0175,0.9854,-1632.57,1937.50,1423.77
1030,-3.8750,0.0175,0.9911,-1757.57,-1875.00,1486.27
1040,-3.8750,0.0175,0.9988,-1757.57,-1140.62,1751.89
1050,-3.8750,0.0177,1.0052,-1757.57,-156.25,-1794.98
1060,-3.8750,0.0192,1.0089,-1726.32,671.88,-1169.92
1070,-3.8750,0.0220,1.0090,-1538.82,1140.62,-623.05
1080,-3.8750,0.0259,1.0079,-1179.44,1156.25,-435.55
1090,-3.8750,0.0302,1.0077,-679.44,1015.62,-748.05
1100,-3.8750,0.0325,1.0059,-132.57,984.38,-1326.17
1110,-3.8750,0.0312,1.0015,164.31,750.06,-1451.17
1120,-3.8750,0.0291,0.9962,8.06,187.56,-1044.92
1130,-3.8750,0.0289,0.9919,-273.19,-484.38,-732.48
1140,-3.8750,0.0306,0.9894,-288.82,-1031.25,-810.61
1150,-3.8750,0.0330,0.9896,-70.07,-1359.38,-1263.73
1160,-3.8750,0.0355,0.9926,226.81,-1328.06,-1763.73
1170,-3.8750,0.0382,0.9973,554.93,-953.06,-1982.48
1180,-3.8750,0.0399,0.9998,898.68,-343.69,-1998.11
1190,-3.8750,0.0381,0.9969,1117.43,-31.19,1986.27
1200,-3.8750,0.0326,0.9905,883.06,-390.56,1892.52
1210,-3.8750,0.0266,0.9860,179.93,-1218.69,1705.02
1220,-3.8750,0.0231,0.9865,-585.69,-1796.88,1392.52
1230,-3.8750,0.0211,0.9889,-1038.82,-1734.38,1048.77
1240,-3.8750,0.0190,0.9906,-1288.82,-1421.88,830.02
1250,-3.8750,0.0177,0.9907,-1554.44,-1203.12,783.14
1260,-3.8750,0.0173,0.9899,-1726.32,-1187.50,876.89
1270,-3.8750,0.0167,0.9891,-1773.19,-1296.88,1048.77
1280,-3.8750,0.0176,0.9889,-1851.32,-1390.62,1189.39
1290,-3.8750,0.0205,0.9890,-1741.94,-1421.88,1345.64
1300,-3.8750,0.0247,0.9890,-1366.94,-1406.25,1517.52
1310,-3.8750,0.0271,0.9895,-835.69,-1406.25,1689.39
1320,-3.8750,0.0262,0.9905,-523.19,-1343.75,1939.39
1330,-3.8750,0.0245,0.9902,-632.57,-1218.75,-1826.23
1340,-3.8750,0.0233,0.9891,-851.32,-1250.00,-1591.86
1350,-3.8750,0.0212,0.9894,-1007.57,-1390.62,-1544.98
1360,-3.8750,0.0186,0.9901,-1273.19,-1359.38,-1701.23
1370,-3.8750,0.0145,0.9907,-1616.94,-1265.62,-1685.61
1380,-3.8750,0.0087,0.9928,1867.43,-1187.50,-1466.86
1390,-3.8750,0.0034,0.9949,1117.43,-921.88,-1169.98
1400,-3.8750,0.0007,0.9967,445.56,-656.25,-919.98
1410,-3.8750,-0.0006,0.9995,101.81,-421.88,-732.48
1420,-3.8750,-0.0015,1.0032,-70.07,-46.94,-623.11
1430,-3.8750,-0.0010,1.0061,-179.44,421.81,-701.17
1440,-3.8750,0.0002,1.0068,-116.94,796.81,-982.42
1450,-3.8750,0.0004,1.0046,39.31,875.00,-1232.42
1460,-3.8750,0.0012,1.0009,54.93,593.75,-1326.17
1470,-3.8750,0.0050,0.9972,164.31,109.38,-1544.92
1480,-3.8750,0.0104,0.9946,648.68,-359.38,-1935.61
1490,-3.8750,0.0150,0.9926,1336.18,-687.50,1845.64
1500,-3.8750,0.0186,0.9905,1929.93,-953.12,1908.14
1510,-3.8750,0.0208,0.9884,-1616.94,-1218.75,1876.89
1520,-3.8750,0.0214,0.9875,-1335.69,-1484.38,1830.02
1530,-3.8750,0.0203,0.9884,-1257.57,-1593.75,1814.39
1540,-3.8750,0.0182,0.9896,-1398.19,-1484.38,1580.02
1550,-3.8750,0.0142,0.9907,-1663.82,-1328.12,1205.02
1560,-3.8750,0.0090,0.9905,1820.56,-1187.50,986.27
1570,-3.8750,0.0062,0.9905,1164.31,-1218.75,1158.14
1580,-3.8750,0.0056,0.9922,804.93,-1218.75,1642.52
1590,-3.8750,0.0052,0.9932,726.81,-1000.00,-1966.86
1600,-3.8750,0.0046,0.9918,679.93,-875.00,-1701.23
1610,-3.8750,0.0051,0.9897,601.81,-1046.88,-1513.73
1620,-3.8750,0.0081,0.9874,664.31,-1312.50,-1404.36
1630,-3.8750,0.0132,0.9867,1039.31,-1609.38,-1216.86
1640,-3.8750,0.0184,0.9890,1695.56,-1703.12,-794.98
1650,-3.8750,0.0219,0.9910,-1632.57,-1406.25,-388.73
1660,-3.8750,0.0220,0.9900,-1195.07,-1156.25,-201.23
1670,-3.8750,0.0189,0.9884,-1179.44,-1281.25,-107.48
1680,-3.8750,0.0143,0.9890,-1570.07,-1484.38,-91.86
1690,-3.8750,0.0101,0.9904,1836.18,-1406.25,-263.73
1700,-3.8750,0.0079,0.9915,1304.93,-1234.38,-638.73
1710,-3.8750,0.0062,0.9927,1023.68,-1093.75,-1013.73
1720,-3.8750,0.0043,0.9935,804.93,-937.50,-1279.36
1730,-3.8750,0.0028,0.9940,554.93,-828.12,-1591.86
1740,-3.8750,0.0044,0.9945,367.43,-765.62,-1998.11
1750,-3.8750,0.0096,0.9945,570.56,-703.12,1595.64
1760,-3.8750,0.0154,0.9941,1242.43,-703.12,1439.39
1770,-3.8750,0.0183,0.9940,1976.81,-750.00,1658.14
1780,-3.8750,0.0177,0.9948,-1648.19,-765.62,-1919.98
1790,-3.8750,0.0166,0.9963,-1726.32,-671.88,-1435.61
1800,-3.8750,0.0166,0.9974,-1866.94,-468.75,-1029.36
1810,-3.8750,0.0193,0.9968,-1866.94,-328.12,-748.11
1820,-3.8750,0.0232,0.9940,-1523.19,-406.25,-591.86
1830,-3.8750,0.0267,0.9901,-1023.19,-765.62,-748.11
1840,-3.8750,0.0288,0.9868,-570.07,-1265.62,-1326.23
1850,-3.8750,0.0292,0.9858,-304.44,-1687.50,-1935.61
1860,-3.8750,0.0288,0.9867,-257.57,-1812.50,1673.77
1870,-3.8750,0.0284,0.9874,-304.44,-1703.12,1236.27
1880,-3.8750,0.0273,0.9861,-351.32,-1609.38,689.39
1890,-3.8750,0.0250,0.9847,-491.94,-1781.25,314.39
1900,-3.8750,0.0231,0.9858,-788.82,-1953.12,111.27
1910,-3.8439,0.0225,0.9878,-1038.82,-1812.50,-263.73
1920,-3.8439,0.0221,0.9885,-1116.94,-1562.50,-591.86
1930,-3.8439,0.0201,0.9872,-1163.82,-1468.75,-591.86
1940,-3.8439,0.0178,0.9845,-1413.82,-1640.62,-466.86
1950,-3.8439,0.0164,0.9813,-1710.69,-1984.38,-419.98
1960,-3.8439,0.0162,0.9785,-1898.19,1609.38,-435.61
1970,-3.8439,0.0170,0.9781,-1913.82,1250.00,-263.73
1980,-3.8750,0.0188,0.9814,-1820.07,1203.12,189.39
1990,-3.8750,0.0209,0.9855,-1585.69,1625.00,611.27
2000,-3.8750,0.0208,0.9866,-1320.07,-1859.38,830.02
2010,-3.8750,0.0182,0.9863,-1335.69,-1718.75,970.64
2020,-3.8750,0.0153,0.9879,-1663.82,-1750.00,1080.02
2030,-3.8750,0.0122,0.9924,1961.18,-1546.88,1142.52
2040,-3.8750,0.0089,0.9990,1570.56,-968.75,1345.64
2050,-3.8750,0.0062,1.0052,1148.68,-125.00,1705.02
2060,-3.8750,0.0018,1.0083,804.93,671.88,-1810.55
2070,-3.8750,-0.0046,1.0089,242.43,1062.50,-1169.92
2080,-3.8750,-0.0082,1.0089,-585.69,1156.19,-591.80
2090,-3.8750,-0.0074,1.0073,-1038.82,1156.19,-451.17
2100,-3.8750,-0.0056,1.0038,-945.07,953.06,-576.17
2110,-3.8750,-0.0050,0.9999,-710.69,499.94,-685.55
2120,-3.8750,-0.0055,0.9966,-632.57,-0.06,-841.86
2130,-3.8750,-0.0060,0.9944,-695.07,-421.94,-1123.11
2140,-3.8750,-0.0046,0.9945,-757.57,-703.19,-1326.23
2150,-3.8750,-0.0029,0.9958,-585.69,-687.56,-1544.98
2160,-3.8750,-0.0022,0.9972,-366.94,-515.69,-1810.61
2170,-3.8750,-0.0024,0.9980,-273.19,-343.81,1955.02
2180,-3.8750,-0.0029,0.9985,-304.44,-234.44,1798.77
2190,-3.8750,-0.0023,0.9994,-366.94,-171.94,1720.64
2200,-3.8750,0.0006,1.0010,-288.82,-62.56,1783.14
2210,-3.8750,0.0054,1.0020,86.18,125.00,-1935.55
2220,-3.8750,0.0096,1.0032,695.56,250.00,-1451.17
2230,-3.8750,0.0122,1.0056,1242.43,406.25,-982.42
2240,-3.8750,0.0128,1.0068,1570.56,718.75,-716.80
2250,-3.8750,0.0116,1.0048,1648.68,875.00,-591.80
2260,-3.8750,0.0094,0.9999,1492.43,609.38,-482.42
2270,-3.8750,0.0082,0.9950,1211.18,-15.62,-451.23
2280,-3.8750,0.0089,0.9922,1054.93,-640.62,-669.98
2290,-3.8750,0.0100,0.9917,1148.68,-1000.00,-1013.73
2300,-3.8750,0.0094,0.9927,1289.31,-1062.50,-1279.36
2310,-3.8750,0.0073,0.9928,1211.18,-937.50,-1466.86
2320,-3.8750,0.0045,0.9915,945.56,-921.88,-1638.73
2330,-3.8750,0.0018,0.9895,586.18,-1093.75,-1810.61
2340,-3.8750,0.0001,0.9886,242.43,-1343.75,1970.64
2350,-3.8750,0.0007,0.9899,23.68,-1453.12,1767.52
2360,-3.8750,0.0038,0.9919,101.81,-1296.88,1767.52
2370,-3.8750,0.0081,0.9922,492.43,-1031.25,1845.64
2380,-3.8750,0.0121,0.9902,1039.31,-1000.00,1783.14
2390,-3.8750,0.0161,0.9879,1554.93,-1250.00,1751.89
2400,-3.8750,0.0194,0.9860,-1929.44,-1546.88,1830.02
2410,-3.8750,0.0208,0.9845,-1507.57,-1796.88,1970.64
2420,-3.8750,0.0222,0.9839,-1335.69,-1984.38,-1998.11
2430,-3.8750,0.0251,0.9841,-1148.19,1937.50,1861.27
2440,-3.8750,0.0287,0.9836,-773.19,1968.75,1658.14
2450,-3.8750,0.0319,0.9825,-320.07,1906.25,1455.02
2460,-3.8750,0.0336,0.9830,86.18,1765.69,1314.39
2470,-3.8750,0.0332,0.9839,304.93,1828.19,1361.27
2480,-3.8750,0.0308,0.9845,258.06,1937.56,1580.02
2490,-3.8750,0.0267,0.9862,-54.44,-1984.38,1861.27
2500,-3.8750,0.0212,0.9893,-570.07,-1765.62,-1748.11
2510,-3.8750,0.0150,0.9929,-1273.19,-1375.00,-1373.11
2520,-3.8750,0.0095,0.9967,1929.93,-906.25,-1169.98
2530,-3.8750,0.0059,1.0005,1226.81,-421.88,-1013.73
2540,-3.8750,0.0048,1.0042,758.06,62.50,-904.30
2550,-3.8750,0.0035,1.0060,617.43,531.25,-966.80
2560,-3.8750,0.0012,1.0040,461.18,765.62,-1107.42
2570,-3.8750,-0.0006,0.9985,164.31,515.62,-1138.67
2580,-3.8750,-0.0023,0.9924,-70.07,-171.94,-1091.86
2590,-3.8750,-0.0031,0.9885,-288.82,-953.19,-1123.11
2600,-3.8750,-0.0016,0.9861,-382.57,-1453.19,-1404.36
2610,-3.8750,0.0013,0.9844,-195.07,-1765.69,-1794.98
2620,-3.8750,0.0035,0.9846,179.93,-2000.00,1955.02
2630,-3.8750,0.0040,0.9880,461.18,-1968.75,1861.27
2640,-3.8750,0.0035,0.9918,523.68,-1531.25,1986.27
2650,-3.8750,0.0033,0.9935,461.18,-1046.88,-1716.86
2660,-3.8750,0.0040,0.9933,429.93,-828.12,-1451.23
2670,-3.8750,0.0052,0.9916,523.68,-859.38,-1357.48
2680,-3.8750,0.0061,0.9891,679.93,-1078.12,-1404.36
2690,-3.8750,0.0067,0.9884,789.31,-1390.62,-1451.23
2700,-3.8750,0.0088,0.9908,867.43,-1484.38,-1466.86
2710,-3.8750,0.0123,0.9944,1133.06,-1171.88,-1466.86
2720,-3.8750,0.0153,0.9958,1586.18,-718.75,-1513.73
2730,-3.8750,0.0171,0.9960,1961.18,-531.25,-1404.36
2740,-3.8750,0.0183,0.9952,-1804.44,-515.62,-1388.73
2750,-3.8750,0.0189,0.9939,-1648.19,-609.38,-1544.98
2760,-3.8750,0.0183,0.9917,-1570.07,-781.25,-1591.86
2770,-3.8750,0.0165,0.9895,-1648.19,-1062.50,-1466.86
2780,-3.8750,0.0126,0.9890,-1882.57,-1343.75,-1185.61
2790,-3.8750,0.0076,0.9904,1617.43,-1406.25,-732.48
2800,-3.8750,0.0031,0.9927,976.81,-1234.38,-388.73
2810,-3.8750,0.0002,0.9951,398.68,-937.50,-138.73
2820,-3.8749,-0.0006,0.9963,39.31,-625.00,17.52
2830,-3.8750,0.0002,0.9951,-70.07,-453.19,-29.36
2840,-3.8750,0.0028,0.9921,39.31,-625.00,-263.73
2850,-3.8750,0.0072,0.9874,367.43,-1015.62,-607.48
2860,-3.8750,0.0115,0.9821,929.93,-1609.38,-888.73
2870,-3.8750,0.0135,0.9794,1476.81,1703.12,-1138.73
2880,-3.8750,0.0121,0.9808,1742.43,1359.38,-1419.98
2890,-3.8750,0.0096,0.9849,1554.93,1546.88,-1544.98
2900,-3.8750,0.0092,0.9893,1242.43,-1937.50,-1513.73
2910,-3.8750,0.0096,0.9934,1179.93,-1375.00,-1388.73
2920,-3.8750,0.0093,0.9967,1242.43,-843.75,-1185.61
2930,-3.8750,0.0084,0.9974,1195.56,-421.88,-1263.73
2940,-3.8750,0.0076,0.9960,1086.18,-328.12,-1435.61
2950,-3.8750,0.0059,0.9944,976.81,-515.62,-1529.36
2960,-3.8750,0.0026,0.9933,758.06,-718.75,-1513.73
2970,-3.8750,0.0002,0.9933,336.18,-859.38,-1263.73
2980,-3.8750,0.0005,0.9948,39.31,-859.38,-982.48
2990,-3.8750,0.0035,0.9958,70.56,-671.88,-794.98
3000,-3.8750,0.0074,0.9941,461.18,-531.25,-623.11
3010,-3.8750,0.0107,0.9915,961.18,-750.00,-529.36
3020,-3.8750,0.0131,0.9904,1383.06,-1093.75,-623.11
3030,-3.8750,0.0145,0.9901,1679.93,-1234.38,-716.86
3040,-3.8750,0.0168,0.9902,1867.43,-1265.62,-732.48
3050,-3.8750,0.0187,0.9896,-1835.69,-1250.00,-654.36
3060,-3.8750,0.0186,0.9886,-1601.32,-1328.12,-654.36
3070,-3.8750,0.0161,0.9880,-1616.94,-1453.12,-841.86
3080,-3.8750,0.0129,0.9872,-1929.44,-1531.25,-1169.98
3090,-3.8750,0.0101,0.9868,1664.31,-1640.62,-1638.73
3100,-3.8750,0.0076,0.9880,1304.93,-1687.50,1876.89
3110,-3.8750,0.0055,0.9900,976.81,-1531.25,1642.52
3120,-3.8750,0.0031,0.9921,711.18,-1281.25,1626.89
3130,-3.8750,0.0009,0.9932,398.68,-1015.62,1642.52
3140,-3.8750,-0.0002,0.9927,117.43,-875.00,1689.39
3150,-3.8750,-0.0010,0.9917,-23.19,-921.94,1986.27
3160,-3.8750,-0.0013,0.9921,-116.94,-1046.94,-1544.98
3170,-3.8750,-0.0004,0.9941,-163.82,-1000.06,-1201.23
3180,-3.8750,0.0013,0.9971,-38.82,-734.44,-998.11
3190,-3.8750,0.0031,1.0005,179.93,-375.00,-873.11
3200,-3.8750,0.0050,1.0044,398.68,62.50,-748.05
3210,-3.8750,0.0081,1.0079,648.68,562.50,-623.05
3220,-3.8750,0.0114,1.0095,1039.31,1015.62,-669.92
3230,-3.8750,0.0142,1.0094,1461.18,1218.75,-826.17
3240,-3.8750,0.0153,1.0089,1820.56,1203.12,-716.80
3250,-3.8750,0.0142,1.0085,1961.18,1140.62,-513.67
3260,-3.8750,0.0126,1.0084,1820.56,1093.75,-404.30
3270,-3.8750,0.0114,1.0087,1617.43,1078.12,-498.05
3280,-3.8750,0.0111,1.0070,1461.18,1109.38,-716.80
3290,-3.8750,0.0133,1.0035,1429.93,890.62,-748.05
3300,-3.8750,0.0175,1.0015,1711.18,453.12,-763.67
3310,-3.8750,0.0226,0.9994,-1757.57,187.50,-904.30
3320,-3.8750,0.0271,0.9956,-1101.32,-78.12,-1107.48
3330,-3.8750,0.0294,0.9899,-523.19,-562.50,-1373.11
3340,-3.8750,0.0311,0.9840,-226.32,-1296.88,-1763.73
3350,-3.8750,0.0327,0.9808,-7.57,1953.12,1798.77
3360,-3.8750,0.0344,0.9795,195.56,1546.94,1376.89
3370,-3.8750,0.0359,0.9794,414.31,1375.06,1142.52
3380,-3.8750,0.0356,0.9810,601.81,1359.44,1142.52
3390,-3.8750,0.0328,0.9834,570.56,1562.56,1126.89
3400,-3.8750,0.0283,0.9861,211.18,1875.06,1048.77
3410,-3.8750,0.0247,0.9896,-366.94,-1781.25,1111.27
3420,-3.8750,0.0217,0.9928,-835.69,-1328.12,1126.89
3430,-3.8750,0.0173,0.9943,-1210.69,-921.88,1033.14
3440,-3.8750,0.0125,0.9945,-1773.19,-734.38,1158.14
3450,-3.8750,0.0081,0.9951,1601.81,-703.12,1439.39
3460,-3.8750,0.0057,0.9968,1039.31,-625.00,1658.14
3470,-3.8750,0.0063,0.9980,742.43,-406.25,1908.14
3480,-3.8750,0.0078,0.9978,820.56,-250.00,-1685.61
3490,-3.8750,0.0103,0.9966,1008.06,-281.25,-1216.86
3500,-3.8750,0.0140,0.9945,1320.56,-437.50,-857.48
3510,-3.8750,0.0173,0.9924,1804.93,-703.12,-654.36
3520,-3.8750,0.0186,0.9911,-1773.19,-968.75,-763.73
3530,-3.8750,0.0183,0.9905,-1616.94,-1140.62,-1029.36
3540,-3.8750,0.0168,0.9907,-1648.19,-1218.75,-1248.11
3550,-3.8750,0.0145,0.9908,-1835.69,-1187.50,-1451.23
3560,-3.8750,0.0129,0.9912,1867.43,-1171.88,-1591.86
3570,-3.8750,0.0123,0.9926,1664.31,-1125.00,-1591.86
3580,-3.8750,0.0122,0.9935,1586.18,-953.12,-1435.61
3590,-3.8750,0.0128,0.9945,1570.56,-828.12,-1216.86
3600,-3.8750,0.0148,0.9962,1648.68,-703.12,-1044.98
3610,-3.8750,0.0186,0.9968,1898.68,-484.38,-857.48
3620,-3.8750,0.0236,0.9944,-1616.94,-406.25,-748.11
3630,-3.8750,0.0291,0.9905,-976.32,-718.75,-732.48
3640,-3.8750,0.0337,0.9883,-273.19,-1218.75,-669.98
3650,-3.8750,0.0374,0.9885,320.56,-1499.94,-607.48
3660,-3.8750,0.0398,0.9897,789.31,-1468.69,-623.11
3670,-3.8750,0.0403,0.9915,1101.81,-1312.44,-669.98
3680,-3.8750,0.0392,0.9935,1164.31,-1093.69,-779.36
3690,-3.8750,0.0367,0.9950,1023.68,-828.06,-982.48
3700,-3.8750,0.0337,0.9950,711.18,-640.56,-1248.11
3710,-3.8750,0.0303,0.9940,320.56,-640.56,-1404.36
3720,-3.8750,0.0267,0.9939,-116.94,-765.62,-1404.36
3730,-3.8750,0.0238,0.9952,-570.07,-781.25,-1154.36
3740,-3.8750,0.0219,0.9971,-945.07,-609.38,-857.48
3750,-3.8750,0.0216,0.9985,-1195.07,-375.00,-826.23
3760,-3.8750,0.0232,0.9987,-1226.32,-187.50,-904.36
3770,-3.8750,0.0254,0.9966,-1023.19,-171.88,-935.61
3780,-3.8750,0.0272,0.9937,-741.94,-437.50,-919.98
3790,-3.8750,0.0300,0.9906,-507.57,-812.50,-857.48
3800,-3.8750,0.0349,0.9885,-148.19,-1203.12,-810.61
3810,-3.8750,0.0415,0.9895,476.81,-1468.69,-810.61
3820,-3.8750,0.0470,0.9918,1320.56,-1343.69,-841.86
3830,-3.8750,0.0492,0.9919,-1976.32,-1046.81,-966.86
3840,-3.8750,0.0485,0.9894,-1695.07,-1031.19,-1091.86
3850,-3.8750,0.0453,0.9857,-1788.82,-1359.31,-1279.36
3860,-3.8750,0.0409,0.9829,1804.93,-1828.06,-1638.73
3870,-3.8750,0.0377,0.9821,1242.43,1812.56,1939.39
3880,-3.8750,0.0369,0.9818,836.18,1703.19,1486.27
3890,-3.8750,0.0378,0.9814,726.81,1671.94,1314.39
3900,-3.8750,0.0391,0.9821,851.81,1625.06,1501.89
3910,-3.8750,0.0403,0.9843,1008.06,1703.19,1814.39
3920,-3.8750,0.0420,0.9862,1164.31,1984.44,-1701.23
3930,-3.8750,0.0437,0.9866,1383.06,-1765.56,-1123.11
3940,-3.8750,0.0446,0.9861,1601.81,-1718.69,-669.98
3950,-3.8750,0.0442,0.9851,1711.18,-1781.19,-466.86
3960,-3.8750,0.0428,0.9843,1664.31,-1906.19,-451.23
3970,-3.8750,0.0406,0.9833,1492.43,1984.44,-498.11
3980,-3.8750,0.0394,0.9833,1211.18,1859.44,-607.48
3990,-3.8750,0.0383,0.9843,1054.93,1859.44,-857.48
4000,-3.8750,0.0366,0.9851,914.31,1984.44,-1123.11
4010,-3.8750,0.0354,0.9851,695.56,-1906.19,-1357.48
4020,-3.8750,0.0348,0.9845,539.31,-1906.19,-1498.11
4030,-3.8750,0.0343,0.9850,461.18,-1984.31,-1529.36
4040,-3.8750,0.0337,0.9868,398.68,-1921.81,-1482.48
4050,-3.8750,0.0344,0.9885,320.56,-1687.44,-1341.86
4060,-3.8750,0.0364,0.9896,414.31,-1468.69,-1138.73
4070,-3.8750,0.0380,0.9899,664.31,-1328.06,-779.36
4080,-3.8750,0.0382,0.9893,867.43,-1296.81,-388.73
4090,-3.8750,0.0374,0.9885,898.68,-1374.94,-123.11
4100,-3.8749,0.0350,0.9883,789.31,-1468.69,64.39
4110,-3.8749,0.0311,0.9884,492.43,-1499.94,220.64
4120,-3.8749,0.0269,0.9888,-7.57,-1484.38,205.02
4130,-3.8749,0.0239,0.9905,-554.44,-1437.50,33.14
4140,-3.8750,0.0231,0.9926,-929.44,-1218.75,-232.48
4150,-3.8750,0.0225,0.9924,-1038.82,-953.12,-482.48
4160,-3.8750,0.0215,0.9917,-1116.94,-968.75,-544.98
4170,-3.8750,0.0209,0.9918,-1241.94,-1062.50,-498.11
4180,-3.8750,0.0204,0.9921,-1320.07,-1046.88,-482.48
4190,-3.8750,0.0200,0.9915,-1382.57,-1015.62,-466.86
4200,-3.8750,0.0212,0.9918,-1429.44,-1093.75,-419.98
4210,-3.8750,0.0245,0.9938,-1273.19,-1046.88,-419.98
4220,-3.8750,0.0295,0.9948,-851.32,-796.88,-419.98
4230,-3.8750,0.0348,0.9930,-210.69,-671.88,-357.48
4240,-3.8750,0.0381,0.9891,461.18,-890.56,-341.86
4250,-3.8750,0.0394,0.9855,883.06,-1390.56,-419.98
4260,-3.8750,0.0409,0.9857,1054.93,-1859.31,-607.48
4270,-3.8750,0.0432,0.9893,1242.43,-1828.06,-810.61
4280,-3.8750,0.0444,0.9901,1539.31,-1374.94,-966.86
4290,-3.8750,0.0427,0.9873,1695.56,-1265.56,-998.11
4300,-3.8750,0.0400,0.9841,1476.81,-1624.94,-998.11
4310,-3.8750,0.0391,0.9834,1133.06,1968.81,-1044.98
4320,-3.8750,0.0399,0.9869,1008.06,1875.06,-1388.73
4330,-3.8750,0.0406,0.9926,1117.43,-1671.81,-1935.61
4340,-3.8750,0.0396,0.9952,1211.18,-953.06,1908.14
4350,-3.8750,0.0365,0.9934,1070.56,-609.31,-1841.86
4360,-3.8750,0.0325,0.9906,679.93,-843.69,-1560.61
4370,-3.8750,0.0297,0.9893,164.31,-1203.06,-1404.36
4380,-3.8750,0.0292,0.9906,-195.07,-1375.00,-1419.98
4390,-3.8750,0.0304,0.9951,-257.57,-1203.12,-1482.48
4400,-3.8750,0.0311,0.9990,-101.32,-625.00,-1279.36
4410,-3.8750,0.0304,0.9991,-7.57,-125.00,-826.23
4420,-3.8750,0.0287,0.9977,-101.32,-109.38,-310.61
4430,-3.8749,0.0272,0.9969,-320.07,-296.88,64.39
4440,-3.8749,0.0273,0.9985,-507.57,-390.62,189.39
4450,-3.8750,0.0289,1.0029,-491.94,-187.50,-13.73
4460,-3.8750,0.0306,1.0077,-288.82,375.00,-482.42
4470,-3.8750,0.0314,1.0094,-70.07,984.38,-779.30
4480,-3.8750,0.0317,1.0060,23.68,1203.19,-701.17
4490,-3.8750,0.0326,0.9995,70.56,765.69,-529.30
4500,-3.8750,0.0333,0.9938,179.93,-62.44,-685.61
4510,-3.8750,0.0341,0.9897,273.68,-796.81,-1091.86
4520,-3.8750,0.0336,0.9873,367.43,-1312.44,-1388.73
4530,-3.8750,0.0306,0.9863,304.93,-1624.94,-1435.61
4540,-3.8750,0.0258,0.9862,-70.07,-1750.00,-1294.98
4550,-3.8750,0.0211,0.9854,-695.07,-1765.62,-1216.86
4560,-3.8750,0.0189,0.9825,-1288.82,-1875.00,-1466.86
4570,-3.8750,0.0195,0.9795,-1570.07,1765.62,-1857.48
4580,-3.8750,0.0206,0.9792,-1491.94,1375.00,1767.52
4590,-3.8750,0.0197,0.9817,-1351.32,1343.75,1439.39
4600,-3.8750,0.0189,0.9847,-1476.32,1656.25,1298.77
4610,-3.8750,0.0208,0.9882,-1570.07,-1953.12,1361.27
4620,-3.8750,0.0244,0.9923,-1335.69,-1515.62,1533.14
4630,-3.8750,0.0289,0.9965,-866.94,-984.38,1720.64
4640,-3.8750,0.0339,0.9985,-288.82,-453.12,1986.27
4650,-3.8750,0.0387,0.9979,351.81,-187.44,-1669.98
4660,-3.8750,0.0408,0.9952,961.18,-265.56,-1185.61
4670,-3.8750,0.0402,0.9918,1226.81,-609.31,-560.61
4680,-3.8749,0.0374,0.9904,1148.68,-1046.81,48.77
4690,-3.8749,0.0333,0.9915,789.31,-1234.31,626.89
4700,-3.8749,0.0292,0.9941,273.68,-1093.69,1064.39
4710,-3.8749,0.0255,0.9980,-257.57,-750.00,1392.52
4720,-3.8749,0.0227,1.0001,-726.32,-250.00,1548.77
4730,-3.8749,0.0219,0.9979,-1085.69,15.62,1111.33
4740,-3.8749,0.0228,0.9937,-1195.07,-265.62,126.89
4750,-3.8750,0.0239,0.9904,-1070.07,-812.50,-1029.36
4760,-3.8750,0.0243,0.9886,-929.44,-1234.38,1923.77
4770,-3.8750,0.0239,0.9904,-882.57,-1453.12,1392.52
4780,-3.8750,0.0249,0.9960,-929.44,-1234.38,1611.27
4790,-3.8750,0.0293,1.0016,-804.44,-515.62,-1794.98
4800,-3.8750,0.0354,1.0039,-241.94,203.12,-1216.80
4810,-3.8750,0.0397,1.0027,539.31,500.06,-669.92
4820,-3.8750,0.0404,0.9996,1086.18,343.81,-294.92
4830,-3.8750,0.0398,0.9956,1179.93,-46.81,-169.98
4840,-3.8750,0.0403,0.9924,1101.81,-562.44,-154.36
4850,-3.8750,0.0410,0.9883,1164.31,-968.69,-169.98
4860,-3.8750,0.0438,0.9823,1258.06,-1499.94,-341.86
4870,-3.8750,0.0490,0.9766,1617.43,1734.44,-669.98
4880,-3.8750,0.0549,0.9734,-1726.32,1000.06,-1138.73
4890,-3.8750,0.0615,0.9739,-960.69,593.81,-1544.98
4900,-3.8750,0.0659,0.9790,-116.94,656.31,-1669.98
4910,-3.8750,0.0640,0.9875,445.56,1312.62,-1451.23
4920,-3.8750,0.0554,0.9966,195.56,-1593.63,-904.36
4930,-3.8750,0.0426,1.0043,-898.19,-437.44,-76.23
4940,-3.8749,0.0278,1.0087,1461.18,546.94,783.20
4950,-3.8749,0.0139,1.0098,-429.44,1109.38,1267.58
4960,-3.8749,0.0040,1.0092,1789.31,1250.00,1267.58
4970,-3.8749,-0.0016,1.0063,523.68,1171.88,923.83
4980,-3.8749,-0.0052,1.0009,-195.07,828.06,361.33
4990,-3.8750,-0.0083,0.9946,-663.82,124.94,-263.67
5000,-3.8750,-0.0104,0.9901,-1054.44,-671.94,-951.23
5010,-3.8750,-0.0110,0.9875,-1320.07,-1250.06,-1544.98
5020,-3.8750,-0.0088,0.9871,-1398.19,-1578.19,-1966.86
5030,-3.8750,-0.0027,0.9873,-1116.94,-1640.69,1736.27
5040,-3.8750,0.0078,0.9871,-335.69,-1609.44,1439.39
5050,-3.8750,0.0206,0.9847,1008.06,-1656.25,1158.14
5060,-3.8750,0.0320,0.9813,-1351.32,-1953.12,1236.27
5070,-3.8750,0.0398,0.9803,101.81,1609.44,1689.39
5080,-3.8750,0.0433,0.9822,1101.81,1484.44,-1779.36
5090,-3.8750,0.0426,0.9861,1554.93,1718.81,-1388.73
5100,-3.8750,0.0383,0.9895,1461.18,-1781.19,-1201.23
5110,-3.8750,0.0316,0.9894,914.31,-1343.69,-1123.11
5120,-3.8750,0.0245,0.9880,54.93,-1359.31,-1076.23
5130,-3.8750,0.0183,0.9877,-851.32,-1531.25,-1169.98
5140,-3.8750,0.0145,0.9880,-1648.19,-1578.12,-1326.23
5150,-3.8750,0.0145,0.9885,1867.43,-1531.25,-1310.61
5160,-3.8750,0.0159,0.9894,1867.43,-1468.75,-1091.86
5170,-3.8750,0.0164,0.9900,-1960.69,-1359.38,-888.73
5180,-3.8750,0.0166,0.9907,-1898.19,-1281.25,-794.98
5190,-3.8750,0.0172,0.9919,-1866.94,-1187.50,-810.61
5200,-3.8750,0.0181,0.9928,-1788.82,-1031.25,-826.23
5210,-3.8750,0.0190,0.9922,-1679.44,-921.88,-888.73
5220,-3.8750,0.0204,0.9916,-1554.44,-1000.00,-1076.23
5230,-3.8750,0.0219,0.9932,-1382.57,-1078.12,-1216.86
5240,-3.8750,0.0225,0.9948,-1195.07,-875.00,-1294.98
5250,-3.8750,0.0214,0.9944,-1116.94,-671.88,-1404.36
5260,-3.8750,0.0176,0.9929,-1257.57,-718.75,-1529.36
5270,-3.8750,0.0129,0.9911,-1741.94,-906.25,-1498.11
5280,-3.8750,0.0112,0.9893,1664.31,-1140.62,-1373.11
5290,-3.8750,0.0135,0.9886,1445.56,-1375.00,-1232.48
5300,-3.8750,0.0177,0.9895,1742.43,-1453.12,-1060.61
5310,-3.8750,0.0210,0.9900,-1726.32,-1343.75,-1013.73
5320,-3.8750,0.0222,0.9894,-1304.44,-1281.25,-857.48
5330,-3.8750,0.0225,0.9896,-1148.19,-1359.38,-498.11
5340,-3.8750,0.0221,0.9907,-1116.94,-1328.12,-310.61
5350,-3.8750,0.0201,0.9905,-1163.82,-1187.50,-435.61
5360,-3.8750,0.0164,0.9889,-1413.82,-1218.75,-591.86
5370,-3.8750,0.0128,0.9872,-1898.19,-1421.88,-794.98
5380,-3.8750,0.0114,0.9858,1648.68,-1640.62,-1216.86
5390,-3.8750,0.0118,0.9851,1461.18,-1812.50,-1841.86
5400,-3.8750,0.0134,0.9849,1523.68,-1906.25,1501.89
5410,-3.8750,0.0142,0.9836,1726.81,-1937.50,1033.14
5420,-3.8750,0.0139,0.9813,1820.56,1906.25,658.14
5430,-3.8750,0.0121,0.9799,1789.31,1609.38,595.64
5440,-3.8750,0.0063,0.9807,1554.93,1421.88,1017.52
5450,-3.8750,-0.0012,0.9836,820.56,1531.25,1751.89
5460,-3.8750,-0.0039,0.9863,-148.19,1921.81,-1576.23
5470,-3.8750,0.0007,0.9893,-491.94,-1734.44,-1185.61
5480,-3.8750,0.0092,0.9943,101.81,-1375.00,-919.98
5490,-3.8750,0.0168,1.0006,1179.93,-734.38,-591.86
5500,-3.8750,0.0214,1.0060,-1835.69,78.12,-326.17
5510,-3.8750,0.0231,1.0106,-1257.57,765.62,-154.30
5520,-3.8750,0.0237,1.0148,-1038.82,1359.38,-29.30
5530,-3.8749,0.0240,1.0181,-960.69,1890.62,80.08
5540,-3.8749,0.0242,1.0221,-913.82,-1687.50,126.95
5550,-3.8749,0.0240,1.0282,-898.19,-1171.88,142.58
5560,-3.8749,0.0240,1.0366,-913.82,-390.62,314.45
5570,-3.8749,0.0237,1.0441,-913.82,687.50,720.76
5580,-3.8749,0.0220,1.0458,-960.69,1640.62,1064.51
5590,-3.8749,0.0195,1.0406,-1179.44,1859.38,1142.64
5600,-3.8749,0.0183,1.0306,-1491.94,1203.12,939.51
5610,-3.8749,0.0189,1.0197,-1648.19,-78.12,470.70
5620,-3.8750,0.0212,1.0088,-1570.07,-1484.38,-232.42
5630,-3.8750,0.0254,0.9974,-1273.19,1125.00,-1185.55
5640,-3.8750,0.0297,0.9865,-741.94,-328.12,1720.64
5650,-3.8750,0.0326,0.9767,-195.07,-1734.38,814.39
5660,-3.8750,0.0352,0.9688,179.93,1015.69,220.64
5670,-3.8439,0.0383,0.9628,508.06,0.06,-154.36
5680,-3.8439,0.0424,0.9565,914.31,-765.56,-451.29
5690,-3.8439,0.0471,0.9495,1429.93,-1562.44,-716.92
5700,-3.8439,0.0508,0.9412,-1960.69,1531.31,-1045.04
5710,-3.8439,0.0522,0.9331,-1491.94,468.81,-1404.42
5720,-3.8439,0.0526,0.9290,-1304.44,-562.44,-1529.48
5730,-3.8439,0.0535,0.9291,-1257.57,-1093.69,-1482.60
5740,-3.8439,0.0538,0.9335,-1148.19,-1078.06,-1576.35
5750,-3.8439,0.0513,0.9431,-1101.32,-515.56,-1810.73
5760,-3.8439,0.0452,0.9570,-1429.44,718.81,-1966.92
5770,-3.8439,0.0358,0.9719,1789.31,-1499.94,-1966.92
5780,-3.8439,0.0239,0.9858,586.18,406.31,-1654.36
5790,-3.8439,0.0123,0.9994,-929.44,-1812.50,-935.61
5800,-3.8750,0.0022,1.0143,1586.18,-78.12,142.52
5810,-3.8750,-0.0073,1.0278,289.31,1828.12,1361.33
5820,-3.8750,-0.0167,1.0372,-929.44,-421.94,-1466.80
5830,-3.8750,-0.0255,1.0422,1867.43,781.19,-372.99
5840,-3.8749,-0.0311,1.0424,742.43,1421.81,673.89
5850,-3.8749,-0.0304,1.0378,23.68,1437.44,1814.51
5860,-3.8749,-0.0233,1.0309,117.43,859.31,-1138.61
5870,-3.8749,-0.0110,1.0240,1023.68,-31.31,-404.30
5880,-3.8749,0.0034,1.0187,-1398.19,-906.31,-13.67
5890,-3.8748,0.0165,1.0149,445.56,-1609.38,17.58
5900,-3.8749,0.0272,1.0096,-1882.57,1906.25,-373.05
5910,-3.8749,0.0356,1.0024,-507.57,1234.38,-1060.55
5920,-3.8749,0.0425,0.9948,570.56,312.56,-1919.92
5930,-3.8749,0.0477,0.9872,1445.56,-671.81,908.14
5940,-3.8750,0.0498,0.9807,-1882.57,-1640.56,-513.73
5950,-3.8750,0.0485,0.9768,-1616.94,1531.31,-1873.11
5960,-3.8750,0.0460,0.9745,-1788.82,1031.31,783.14
5970,-3.8439,0.0414,0.9724,1898.68,734.44,-560.61
5980,-3.8439,0.0336,0.9717,1304.93,468.81,-1544.98
5990,-3.8439,0.0249,0.9741,304.93,375.06,1736.27
6000,-3.8439,0.0167,0.9778,-804.44,687.50,1111.27
6010,-3.8439,0.0103,0.9806,-1851.32,1156.25,736.27
6020,-3.8439,0.0056,0.9829,1320.56,1515.62,861.27
6030,-3.8439,0.0020,0.9856,726.81,1812.50,1533.14
6040,-3.8439,-0.0005,0.9904,258.06,-1843.75,-1404.36
6050,-3.8750,0.0004,0.9976,-54.44,-1218.81,142.52
6060,-3.8750,0.0056,1.0051,54.93,-312.50,-1857.48
6070,-3.8749,0.0128,1.0109,726.81,656.25,298.83
6080,-3.8749,0.0192,1.0140,1648.68,1390.62,-1841.80
6090,-3.8749,0.0234,1.0143,-1538.82,1796.88,-544.92
6100,-3.8748,0.0255,1.0114,-991.94,1828.12,205.08
6110,-3.8748,0.0255,1.0067,-726.32,1453.12,298.83
6120,-3.8749,0.0227,1.0017,-726.32,859.38,-326.17
6130,-3.8749,0.0172,0.9967,-1085.69,218.75,-1576.17
6140,-3.8749,0.0125,0.9922,-1788.82,-421.88,767.52
6150,-3.8750,0.0105,0.9882,1601.81,-1000.00,-966.86
6160,-3.8750,0.0122,0.9835,1351.81,-1515.62,1564.39
6170,-3.8750,0.0173,0.9805,1570.56,1890.62,595.64
6180,-3.8439,0.0227,0.9794,-1773.19,1500.00,-60.61
6190,-3.8439,0.0261,0.9778,-1085.69,1359.38,-513.73
6200,-3.8439,0.0266,0.9760,-648.19,1156.25,-685.61
6210,-3.8439,0.0240,0.9767,-585.69,921.88,-607.48
6220,-3.8439,0.0199,0.9802,-913.82,1015.62,-498.11
6230,-3.8439,0.0154,0.9833,-1445.07,1468.75,-388.73
6240,-3.8439,0.0105,0.9841,1976.81,1859.38,-13.73
6250,-3.8750,0.0056,0.9854,1351.81,1968.75,642.52
6260,-3.8750,0.0013,0.9888,726.81,-1875.00,1361.27
6270,-3.8750,-0.0020,0.9945,179.93,-1437.50,-1951.23
6280,-3.8750,-0.0043,1.0015,-241.94,-687.56,-1232.48
6290,-3.8750,-0.0043,1.0063,-538.82,203.06,-591.80
6300,-3.8750,-0.0018,1.0070,-538.82,828.06,-13.67
6310,-3.8749,0.0013,1.0050,-226.32,906.19,251.95
6320,-3.8749,0.0044,1.0021,179.93,640.62,142.58
6330,-3.8750,0.0089,0.9989,570.56,265.62,-138.67
6340,-3.8750,0.0148,0.9971,1148.68,-140.62,-373.11
6350,-3.8750,0.0204,0.9967,1898.68,-375.00,-591.86
6360,-3.8750,0.0233,0.9966,-1382.57,-421.88,-763.73
6370,-3.8750,0.0248,0.9951,-1007.57,-437.50,-951.23
6380,-3.8750,0.0272,0.9911,-820.07,-625.00,-1232.48
6390,-3.8750,0.0305,0.9857,-507.57,-1140.62,-1576.23
6400,-3.8750,0.0349,0.9822,-85.69,-1828.12,-1935.61
6410,-3.8750,0.0399,0.9818,476.81,1718.81,1783.14
6420,-3.8750,0.0417,0.9835,1117.43,1671.94,1611.27
6430,-3.8750,0.0393,0.9869,1351.81,1890.69,1548.77
6440,-3.8750,0.0337,0.9907,1039.31,-1671.81,1564.39
6450,-3.8750,0.0275,0.9919,320.56,-1187.44,1689.39
6460,-3.8750,0.0223,0.9904,-476.32,-1031.25,1876.89
6470,-3.8750,0.0195,0.9894,-1132.57,-1234.38,1939.39
6480,-3.8750,0.0190,0.9904,-1491.94,-1359.38,1861.27
6490,-3.8750,0.0189,0.9918,-1554.44,-1234.38,1798.77
6500,-3.8750,0.0195,0.9935,-1570.07,-1046.88,1876.89
6510,-3.8750,0.0210,0.9946,-1491.94,-828.12,-1935.61
6520,-3.8750,0.0236,0.9941,-1304.44,-687.50,-1810.61
6530,-3.8750,0.0258,0.9929,-976.32,-750.00,-1732.48
6540,-3.8750,0.0265,0.9926,-695.07,-906.25,-1669.98
6550,-3.8750,0.0262,0.9930,-601.32,-953.12,-1654.36
6560,-3.8750,0.0264,0.9932,-632.57,-890.62,-1669.98
6570,-3.8750,0.0276,0.9919,-616.94,-875.00,-1748.11
6580,-3.8750,0.0291,0.9899,-460.69,-1031.25,-1794.98
6590,-3.8750,0.0314,0.9888,-273.19,-1296.88,-1701.23
6600,-3.8750,0.0334,0.9890,23.68,-1437.44,-1591.86
6610,-3.8750,0.0343,0.9897,289.31,-1406.19,-1654.36
6620,-3.8750,0.0331,0.9893,398.68,-1312.44,-1998.11
6630,-3.8750,0.0284,0.9879,242.43,-1374.94,1517.52
6640,-3.8750,0.0221,0.9869,-351.32,-1546.88,1126.89
6650,-3.8750,0.0155,0.9878,-1163.82,-1671.88,861.27
6660,-3.8750,0.0099,0.9896,1992.43,-1562.50,736.27
6670,-3.8750,0.0070,0.9912,1273.68,-1328.12,767.52
6680,-3.8750,0.0077,0.9938,898.68,-1125.00,1017.52
6690,-3.8750,0.0104,0.9971,992.43,-796.88,1486.27
6700,-3.8750,0.0121,0.9989,1336.18,-375.00,-1966.86
6710,-3.8750,0.0131,0.9989,1554.93,-140.62,-1388.73
6720,-3.8750,0.0127,0.9990,1679.93,-140.62,-826.23
6730,-3.8750,0.0104,0.9993,1633.06,-125.00,-482.48
6740,-3.8750,0.0076,0.9991,1336.18,-93.75,-482.48
6750,-3.8750,0.0063,0.9966,976.81,-109.38,-669.98
6760,-3.8750,0.0070,0.9926,820.56,-437.50,-951.23
6770,-3.8750,0.0084,0.9894,898.68,-953.12,-1482.48
6780,-3.8750,0.0109,0.9872,1086.18,-1359.38,1892.52
6790,-3.8750,0.0140,0.9866,1398.68,-1640.62,1439.39
6800,-3.8750,0.0173,0.9868,1804.93,-1718.75,1126.89
6810,-3.8750,0.0204,0.9872,-1773.19,-1687.50,1017.52
6820,-3.8750,0.0221,0.9874,-1382.57,-1640.62,1236.27
6830,-3.8750,0.0225,0.9884,-1163.82,-1609.38,1626.89
6840,-3.8750,0.0220,0.9890,-1116.94,-1484.38,1939.39
6850,-3.8750,0.0214,0.9879,-1179.44,-1406.25,-1841.86
6860,-3.8750,0.0195,0.9869,-1257.57,-1546.88,-1763.73
6870,-3.8750,0.0159,0.9869,-1491.94,-1671.88,-1748.11
6880,-3.8750,0.0115,0.9878,-1960.69,-1671.88,-1841.86
6890,-3.8750,0.0084,0.9891,1476.81,-1562.50,-1841.86
6900,-3.8750,0.0100,0.9912,1086.18,-1390.62,-1669.98
6910,-3.8750,0.0190,0.9950,1289.31,-1125.00,-1576.23
6920,-3.8750,0.0327,1.0010,-1554.44,-640.62,-1560.61
6930,-3.8750,0.0442,1.0055,195.56,125.06,-1669.92
6940,-3.8750,0.0485,1.0048,1664.31,703.19,-1982.42
6950,-3.8750,0.0459,1.0000,-1788.82,609.44,1580.08
6960,-3.8750,0.0386,0.9937,1883.06,0.06,1142.58
6970,-3.8750,0.0303,0.9890,945.56,-812.44,767.52
6980,-3.8750,0.0227,0.9886,-116.94,-1406.25,595.64
6990,-3.8750,0.0161,0.9912,-1085.69,-1453.12,705.02
7000,-3.8750,0.0123,0.9952,-1929.44,-1125.00,1017.52
7010,-3.8750,0.0121,1.0004,1586.18,-609.38,1564.39
7020,-3.8750,0.0133,1.0049,1554.93,46.88,-1857.42
7030,-3.8750,0.0135,1.0059,1711.18,625.00,-1451.17
7040,-3.8750,0.0127,1.0028,1742.43,750.00,-1091.80
7050,-3.8750,0.0105,0.9974,1633.06,359.38,-888.67
7060,-3.8750,0.0084,0.9919,1351.81,-328.12,-919.98
7070,-3.8750,0.0081,0.9889,1086.18,-1031.25,-1107.48
7080,-3.8750,0.0092,0.9882,1039.31,-1421.88,-1326.23
7090,-3.8750,0.0117,0.9873,1179.93,-1515.62,-1560.61
7100,-3.8750,0.0162,0.9866,1508.06,-1625.00,-1826.23
7110,-3.8750,0.0214,0.9862,-1913.82,-1718.75,1939.39
7120,-3.8750,0.0253,0.9856,-1257.57,-1765.62,1673.77
7130,-3.8750,0.0271,0.9855,-757.57,-1843.75,1220.64
7140,-3.8750,0.0265,0.9847,-523.19,-1859.38,673.77
7150,-3.8750,0.0238,0.9835,-601.32,-1953.12,173.77
7160,-3.8439,0.0206,0.9836,-945.07,1890.62,-138.73
7170,-3.8439,0.0177,0.9849,-1351.32,1906.25,-294.98
7180,-3.8439,0.0149,0.9861,-1726.32,-1937.50,-169.98
7190,-3.8750,0.0135,0.9899,1914.31,-1781.25,251.89
7200,-3.8750,0.0140,0.9955,1742.43,-1296.88,736.27
7210,-3.8750,0.0159,0.9979,1804.93,-578.12,1001.89
7220,-3.8750,0.0186,0.9965,-1960.69,-265.62,1251.89
7230,-3.8750,0.0215,0.9946,-1616.94,-453.12,1736.27
7240,-3.8750,0.0243,0.9946,-1241.94,-687.50,-1716.86
7250,-3.8750,0.0273,0.9951,-882.57,-687.50,-1326.23
7260,-3.8750,0.0294,0.9950,-491.94,-625.00,-1123.11
7270,-3.8750,0.0292,0.9948,-226.32,-640.62,-966.86
7280,-3.8750,0.0271,0.9938,-257.57,-671.88,-935.61
7290,-3.8750,0.0237,0.9923,-523.19,-796.88,-1091.86
7300,-3.8750,0.0192,0.9921,-960.69,-984.38,-1279.36
7310,-3.8750,0.0150,0.9938,-1538.82,-1015.62,-1607.48
7320,-3.8750,0.0122,0.9955,1929.93,-796.88,1970.64
7330,-3.8750,0.0090,0.9950,1570.56,-578.12,1642.52
7340,-3.8750,0.0050,0.9928,1164.31,-640.62,1423.77
7350,-3.8750,0.0011,0.9911,648.68,-921.88,1330.02
7360,-3.8750,-0.0018,0.9908,148.68,-1140.62,1205.02
7370,-3.8750,-0.0018,0.9926,-226.32,-1156.31,1205.02
7380,-3.8750,0.0016,0.9954,-226.32,-937.56,1330.02
7390,-3.8750,0.0076,0.9956,211.18,-593.75,1501.89
7400,-3.8750,0.0134,0.9930,976.81,-562.50,1783.14
7410,-3.8750,0.0177,0.9917,1726.81,-890.62,-1888.73
7420,-3.8750,0.0205,0.9923,-1726.32,-1062.50,-1560.61
7430,-3.8750,0.0229,0.9927,-1366.94,-984.38,-1388.73
7440,-3.8750,0.0248,0.9917,-1054.44,-937.50,-1373.11
7450,-3.8750,0.0247,0.9904,-820.07,-1062.50,-1248.11
7460,-3.8750,0.0221,0.9896,-835.69,-1234.38,-1029.36
7470,-3.8750,0.0177,0.9904,-1163.82,-1328.12,-873.11
7480,-3.8750,0.0123,0.9915,-1726.32,-1234.38,-857.48
7490,-3.8750,0.0076,0.9927,1586.18,-1093.75,-857.48
7500,-3.8750,0.0035,0.9937,976.81,-937.50,-826.23
7510,-3.8750,-0.0004,0.9951,461.18,-812.50,-763.73
7520,-3.8750,-0.0017,0.9976,-38.82,-609.44,-935.61
7530,-3.8750,-0.0001,1.0004,-210.69,-296.94,-1451.23
7540,-3.8750,0.0022,1.0016,-7.57,62.44,1970.70
7550,-3.8750,0.0054,1.0009,289.31,203.12,1486.33
7560,-3.8750,0.0087,0.9994,695.56,109.38,1095.70
7570,-3.8750,0.0105,0.9984,1117.43,-78.12,736.27
7580,-3.8750,0.0088,0.9977,1351.81,-203.12,533.14
7590,-3.8750,0.0038,0.9965,1133.06,-296.88,439.39
7600,-3.8750,0.0000,0.9941,492.43,-453.12,439.39
7610,-3.8750,-0.0007,0.9922,8.06,-750.00,642.52
7620,-3.8750,0.0026,0.9921,-85.69,-984.44,939.39
7630,-3.8750,0.0094,0.9912,336.18,-1015.62,1267.52
7640,-3.8750,0.0170,0.9875,1211.18,-1125.00,1720.64
7650,-3.8750,0.0228,0.9840,-1820.07,-1593.75,-1794.98
7660,-3.8750,0.0275,0.9828,-1070.07,1953.12,-1357.48
7670,-3.8750,0.0309,0.9839,-476.32,1796.88,-951.23
7680,-3.8750,0.0316,0.9863,-38.82,1937.50,-748.11
7690,-3.8750,0.0300,0.9889,54.93,-1749.94,-779.36
7700,-3.8750,0.0259,0.9904,-148.19,-1421.88,-951.23
7710,-3.8750,0.0209,0.9894,-679.44,-1234.38,-1185.61
7720,-3.8750,0.0170,0.9873,-1320.07,-1359.38,-1591.86
7730,-3.8750,0.0139,0.9871,-1820.07,-1625.00,1720.64
7740,-3.8750,0.0115,0.9880,1789.31,-1656.25,1048.77
7750,-3.8750,0.0088,0.9884,1476.81,-1531.25,564.39
7760,-3.8750,0.0051,0.9883,1133.06,-1484.38,298.77
7770,-3.8750,0.0017,0.9891,664.31,-1500.00,345.64
7780,-3.8750,0.0009,0.9926,226.81,-1390.62,814.39
7790,-3.8750,0.0016,0.9978,117.43,-953.12,1548.77
7800,-3.8750,0.0027,1.0033,211.18,-281.25,-1857.48
7810,-3.8750,0.0039,1.0050,351.81,421.88,-1482.42
7820,-3.8750,0.0049,1.0016,508.06,640.62,-1232.42
7830,-3.8750,0.0060,0.9950,633.06,203.12,-1044.92
7840,-3.8750,0.0079,0.9896,773.68,-640.62,-1013.73
7850,-3.8750,0.0094,0.9882,1023.68,-1328.12,-1091.86
7860,-3.8750,0.0103,0.9884,1211.18,-1515.62,-1185.61
7870,-3.8750,0.0128,0.9886,1320.56,-1484.38,-1232.48
7880,-3.8750,0.0168,0.9885,1648.68,-1453.12,-1294.98
7890,-3.8750,0.0203,0.9890,-1835.69,-1468.75,-1435.61
7900,-3.8750,0.0205,0.9905,-1398.19,-1406.25,-1701.23
7910,-3.8750,0.0170,0.9911,-1366.94,-1218.75,1955.02
7920,-3.8750,0.0112,0.9918,-1820.07,-1140.62,1673.77
7930,-3.8750,0.0070,0.9939,1445.56,-1046.88,1486.27
7940,-3.8750,0.0055,0.9958,898.68,-781.25,1220.64
7950,-3.8750,0.0043,0.9966,711.18,-531.25,814.39
7960,-3.8750,0.0028,0.9967,554.93,-437.50,564.39
7970,-3.8750,0.0028,0.9960,367.43,-421.88,517.52
7980,-3.8750,0.0046,0.9945,367.43,-515.62,595.64
7990,-3.8750,0.0078,0.9937,601.81,-703.12,876.89
8000,-3.8750,0.0114,0.9939,1008.06,-812.50,1298.77
8010,-3.8750,0.0149,0.9943,1461.18,-781.25,1798.77
8020,-3.8750,0.0168,0.9957,1914.31,-734.38,-1560.61
8030,-3.8750,0.0157,0.9984,-1835.69,-546.88,-919.98
8040,-3.8750,0.0131,0.9998,-1976.32,-203.12,-529.36
8050,-3.8750,0.0109,0.9994,1679.93,-31.25,-498.11
8060,-3.8750,0.0088,0.9969,1398.68,-78.12,-841.86
8070,-3.8750,0.0070,0.9928,1133.06,-390.62,-1341.86
8080,-3.8750,0.0065,0.9895,898.68,-921.88,-1779.36
8090,-3.8750,0.0067,0.9875,836.18,-1343.75,1798.77
8100,-3.8750,0.0065,0.9875,867.43,-1593.75,1345.64
8110,-3.8750,0.0048,0.9889,836.18,-1593.75,955.02
8120,-3.8750,0.0027,0.9897,617.43,-1421.88,798.77
8130,-3.8750,0.0012,0.9899,351.81,-1312.50,751.89
8140,-3.8750,0.0010,0.9894,164.31,-1296.88,720.64
8150,-3.8750,0.0013,0.9888,133.06,-1359.38,798.77
8160,-3.8750,0.0020,0.9886,179.93,-1437.50,986.27
8170,-3.8750,0.0035,0.9894,258.06,-1453.12,1126.89
8180,-3.8750,0.0061,0.9908,461.18,-1359.38,1064.39
8190,-3.8750,0.0096,0.9930,789.31,-1171.88,908.14
8200,-3.8750,0.0131,0.9945,1242.43,-890.62,876.89
8210,-3.8750,0.0160,0.9940,1679.93,-703.12,1001.89
8220,-3.8750,0.0187,0.9930,-1945.07,-765.62,1142.52
8230,-3.8750,0.0195,0.9944,-1601.32,-890.62,1251.89
8240,-3.8750,0.0192,0.9978,-1491.94,-718.75,1408.14
8250,-3.8750,0.0195,1.0006,-1538.82,-281.25,1548.77
8260,-3.8750,0.0200,1.0021,-1491.94,78.12,1736.33
8270,-3.8750,0.0197,1.0050,-1429.44,265.62,-1763.67
8280,-3.8750,0.0181,1.0090,-1476.32,640.62,-919.92
8290,-3.8749,0.0134,1.0131,-1679.44,1156.25,111.33
8300,-3.8749,0.0071,1.0179,1726.81,1671.88,1283.20
8310,-3.8749,0.0043,1.0210,914.31,-1703.12,-1951.17
8320,-3.8749,0.0061,1.0168,554.93,-1312.50,1673.83
8330,-3.8749,0.0088,1.0043,789.31,-1843.75,189.45
8340,-3.8750,0.0110,0.9883,1133.06,546.88,-1591.80
8350,-3.8750,0.0133,0.9777,1414.31,-1500.00,1095.64
8360,-3.8750,0.0184,0.9751,1711.18,1140.62,330.02
8370,-3.8439,0.0245,0.9757,-1632.57,812.50,-201.23
8380,-3.8439,0.0282,0.9769,-851.32,890.62,-544.98
8390,-3.8439,0.0286,0.9791,-382.57,1046.88,-607.48
8400,-3.8439,0.0266,0.9818,-335.69,1328.12,-591.86
8410,-3.8439,0.0229,0.9838,-585.69,1671.88,-341.86
8420,-3.8750,0.0184,0.9854,-1054.44,1921.88,220.64
8430,-3.8750,0.0137,0.9888,-1632.57,-1875.00,1064.39
8440,-3.8750,0.0099,0.9954,1758.06,-1437.50,1970.64
8450,-3.8750,0.0068,1.0016,1273.68,-593.75,-1388.73
8460,-3.8750,0.0039,1.0039,883.06,203.12,-1060.55
8470,-3.8750,-0.0005,1.0016,508.06,500.00,-873.05
8480,-3.8750,-0.0070,0.9963,-54.44,218.69,-748.05
8490,-3.8750,-0.0120,0.9917,-882.57,-453.19,-779.36
8500,-3.8750,-0.0125,0.9911,-1523.19,-1046.94,-888.73
8510,-3.8750,-0.0084,0.9933,-1585.69,-1125.06,-982.48
8520,-3.8750,-0.0029,0.9940,-1070.07,-843.81,-1154.36
8530,-3.8750,0.0012,0.9928,-366.94,-750.06,-1310.61
8540,-3.8750,0.0046,0.9923,164.31,-921.88,-1263.73
8550,-3.8750,0.0079,0.9926,601.81,-984.38,-1341.86
8560,-3.8750,0.0101,0.9924,1023.68,-953.12,-1685.61
8570,-3.8750,0.0105,0.9918,1304.93,-968.75,-1904.36
8580,-3.8750,0.0096,0.9915,1351.81,-1046.88,1892.52
8590,-3.8750,0.0099,0.9913,1242.43,-1093.75,1673.77
8600,-3.8750,0.0107,0.9917,1273.68,-1109.38,1580.02
8610,-3.8750,0.0109,0.9923,1383.06,-1062.50,1501.89
8620,-3.8750,0.0103,0.9922,1398.68,-984.38,1580.02
8630,-3.8750,0.0099,0.9907,1320.56,-1000.00,1705.02
8640,-3.8750,0.0121,0.9885,1273.68,-1187.50,1611.27
8650,-3.8750,0.0167,0.9883,1554.93,-1468.75,1423.77
8660,-3.8750,0.0220,0.9916,-1851.32,-1500.00,1439.39
8670,-3.8750,0.0253,0.9960,-1179.44,-1078.12,1720.64
8680,-3.8750,0.0250,0.9966,-757.57,-515.62,-1935.61
8690,-3.8750,0.0215,0.9926,-788.82,-437.50,-1591.86
8700,-3.8750,0.0168,0.9875,-1241.94,-953.12,-1201.23
8710,-3.8750,0.0150,0.9855,-1835.69,-1593.75,-919.98
8720,-3.8750,0.0171,0.9862,1929.93,-1859.38,-841.86
8730,-3.8750,0.0199,0.9882,-1804.44,-1765.62,-935.61
8740,-3.8750,0.0205,0.9901,-1445.07,-1515.62,-904.36
8750,-3.8750,0.0211,0.9935,-1366.94,-1265.62,-435.61
8760,-3.8750,0.0208,0.9967,-1288.82,-828.12,-341.86
8770,-3.8750,0.0175,0.9960,-1335.69,-421.88,-951.23
8780,-3.8750,0.0140,0.9933,-1757.57,-515.62,-1513.73
8790,-3.8750,0.0111,0.9923,1804.93,-859.38,-1841.86
8800,-3.8750,0.0088,0.9921,1429.93,-984.38,1955.02
8810,-3.8750,0.0072,0.9917,1133.06,-1015.62,-1888.73
8820,-3.8750,0.0068,0.9923,929.93,-1062.50,-1482.48
8830,-3.8750,0.0077,0.9940,883.06,-984.38,-1091.86
8840,-3.8750,0.0089,0.9957,992.43,-765.62,-748.11
8850,-3.8750,0.0106,0.9971,1148.68,-546.88,-388.73
8860,-3.8749,0.0142,0.9980,1367.43,-375.00,48.77
8870,-3.8749,0.0188,0.9980,1820.56,-250.00,298.77
8880,-3.8749,0.0221,0.9961,-1585.69,-250.00,251.89
8890,-3.8749,0.0228,0.9932,-1163.82,-500.00,1.89
8900,-3.8750,0.0221,0.9901,-1070.07,-875.00,-232.48
8910,-3.8750,0.0217,0.9874,-1163.82,-1265.62,-544.98
8920,-3.8750,0.0211,0.9855,-1210.69,-1609.38,-919.98
8930,-3.8750,0.0198,0.9851,-1288.82,-1859.38,-1154.36
8940,-3.8750,0.0187,0.9852,-1460.69,-1906.25,-1326.23
8950,-3.8750,0.0170,0.9858,-1601.32,-1890.62,-1482.48
8960,-3.8750,0.0154,0.9880,-1820.07,-1812.50,-1388.73
8970,-3.8750,0.0150,0.9901,1976.81,-1531.25,-1123.11
8980,-3.8750,0.0157,0.9906,1929.93,-1265.62,-1044.98
8990,-3.8750,0.0162,0.9894,-1976.32,-1203.12,-1060.61
9000,-3.8750,0.0161,0.9884,-1913.82,-1359.38,-1091.86
9010,-3.8750,0.0154,0.9879,-1929.44,-1484.38,-1357.48
9020,-3.8750,0.0132,0.9873,1976.81,-1546.88,-1623.11
9030,-3.8750,0.0104,0.9878,1695.56,-1625.00,-1591.86
9040,-3.8750,0.0078,0.9900,1336.18,-1562.50,-1435.61
9050,-3.8750,0.0059,0.9926,1008.06,-1281.25,-1201.23
9060,-3.8750,0.0057,0.9952,758.06,-953.12,-716.86
9070,-3.8749,0.0094,0.9983,742.43,-609.38,173.77
9080,-3.8749,0.0161,1.0006,1211.18,-218.75,1251.89
9090,-3.8749,0.0205,1.0011,-1929.44,78.12,-1732.42
9100,-3.8749,0.0214,0.9996,-1366.94,140.62,-1013.67
9110,-3.8749,0.0217,0.9969,-1257.57,-46.88,-841.86
9120,-3.8749,0.0228,0.9935,-1210.69,-390.62,-1060.61
9130,-3.8749,0.0243,0.9905,-1070.07,-828.12,-1232.48
9140,-3.8749,0.0262,0.9883,-882.57,-1218.75,-1435.61
9150,-3.8749,0.0302,0.9855,-632.57,-1500.00,1908.14
9160,-3.8749,0.0347,0.9816,-132.57,-1859.38,814.39
9170,-3.8750,0.0392,0.9794,445.56,1640.69,-248.11
9180,-3.8750,0.0427,0.9806,1023.68,1359.44,-1216.86
9190,-3.8750,0.0428,0.9839,1476.81,1515.69,1939.39
9200,-3.8750,0.0381,0.9869,1492.43,1937.56,1439.39
9210,-3.8750,0.0291,0.9899,883.06,-1671.81,1408.14
9220,-3.8750,0.0173,0.9938,-273.19,-1296.88,1736.27
9230,-3.8750,0.0057,0.9985,-1773.19,-796.88,-1779.36
9240,-3.8750,-0.0033,1.0024,742.43,-187.50,-1013.73
9250,-3.8749,-0.0090,1.0045,-413.82,328.06,64.45
9260,-3.8749,-0.0112,1.0044,-1148.19,593.69,1189.45
9270,-3.8749,-0.0111,1.0029,-1429.44,578.06,-1841.80
9280,-3.8749,-0.0099,1.0011,-1413.82,390.56,-1216.80
9290,-3.8749,-0.0081,0.9996,-1257.57,156.19,-951.17
9300,-3.8749,-0.0055,0.9969,-1023.19,-31.31,-1029.36
9310,-3.8749,-0.0031,0.9929,-695.07,-375.06,-1404.36
9320,-3.8749,-0.0023,0.9891,-382.57,-890.69,-1763.73
9330,-3.8749,-0.0032,0.9869,-288.82,-1375.06,-1951.23
9340,-3.8749,-0.0046,0.9855,-398.19,-1656.31,-1904.36
9350,-3.8749,-0.0052,0.9836,-585.69,-1843.81,-1685.61
9360,-3.8749,-0.0044,0.9827,-663.82,1921.81,-1560.61
9370,-3.8749,-0.0032,0.9825,-554.44,1796.81,-1748.11
9380,-3.8749,-0.0031,0.9822,-398.19,1781.19,1783.14
9390,-3.8749,-0.0033,0.9813,-382.57,1734.31,1298.77
9400,-3.8749,-0.0048,0.9797,-413.82,1624.94,1111.27
9410,-3.8749,-0.0076,0.9772,-601.32,1421.81,1189.39
9420,-3.8749,-0.0096,0.9750,-960.69,1093.69,1408.14
9430,-3.8749,-0.0096,0.9746,-1226.32,812.44,1564.39
9440,-3.8749,-0.0070,0.9764,-1226.32,765.56,1626.89
9450,-3.8749,-0.0010,0.9781,-882.57,999.94,1548.77
9460,-3.8749,0.0059,0.9789,-116.94,1218.69,1345.64
9470,-3.8749,0.0109,0.9807,758.06,1296.88,1220.64
9480,-3.8749,0.0142,0.9847,1398.68,1531.25,1361.27
9490,-3.8749,0.0177,0.9896,1820.56,-1953.12,1564.39
9500,-3.8749,0.0238,0.9955,-1726.32,-1328.12,1408.14
9510,-3.8749,0.0315,1.0021,-945.07,-578.12,767.52
9520,-3.8750,0.0386,1.0070,39.31,265.69,-29.30
9530,-3.8750,0.0446,1.0090,945.56,890.69,-623.05
9540,-3.8750,0.0480,1.0085,1711.18,1156.31,-966.80
9550,-3.8750,0.0477,1.0042,-1851.32,1093.81,-1232.42
9560,-3.8750,0.0436,0.9951,-1882.57,531.31,-1310.55
9570,-3.8750,0.0360,0.9854,1586.18,-624.94,-1107.48
9580,-3.8750,0.0249,0.9786,617.43,-1874.94,-685.61
9590,-3.8750,0.0111,0.9772,-804.44,1265.62,-76.23
9600,-3.8749,-0.0023,0.9827,1429.93,1078.12,548.77
9610,-3.8749,-0.0115,0.9943,-288.82,1796.81,1080.02
9620,-3.8749,-0.0143,1.0067,-1460.69,-718.81,1814.39
9630,-3.8749,-0.0120,1.0153,-1820.07,874.94,-1013.67
9640,-3.8748,-0.0073,1.0190,-1523.19,1968.69,595.70
9650,-3.8748,-0.0029,1.0198,-929.44,-1546.94,-1779.30
9660,-3.8748,0.0001,1.0195,-366.94,-1453.19,-638.67
9670,-3.8748,0.0020,1.0178,23.68,-1500.00,-107.42
9680,-3.8748,0.0027,1.0105,258.06,-1718.75,-294.92
9690,-3.8748,0.0032,0.9982,351.81,1343.75,-794.92
9700,-3.8748,0.0034,0.9861,414.31,-234.38,-1373.11
9710,-3.8748,0.0031,0.9773,445.56,-1781.25,1705.02
9720,-3.8748,0.0032,0.9733,398.68,1093.75,439.39
9730,-3.8749,0.0042,0.9723,414.31,578.12,-1154.36
9740,-3.8749,0.0055,0.9724,539.31,453.12,955.02
9750,-3.8750,0.0060,0.9713,711.18,468.75,-888.73
9760,-3.8750,0.0040,0.9684,773.68,328.12,1564.39
9770,-3.8750,0.0004,0.9668,523.68,-46.88,642.46
9780,-3.8750,-0.0035,0.9689,54.93,-250.00,329.96
9790,-3.8750,-0.0062,0.9722,-445.07,31.19,298.77
9800,-3.8750,-0.0070,0.9741,-788.82,453.06,767.52
9810,-3.8750,-0.0059,0.9773,-882.57,703.06,1751.89
9820,-3.8750,-0.0029,0.9836,-741.94,1109.31,-1248.11
9830,-3.8750,0.0021,0.9907,-366.94,1921.81,-513.73
9840,-3.8749,0.0078,0.9954,273.68,-1187.50,80.02
9850,-3.8749,0.0137,0.9972,1008.06,-593.75,626.89
9860,-3.8749,0.0199,0.9979,1758.06,-359.38,1189.39
9870,-3.8749,0.0255,0.9988,-1445.07,-265.62,1736.27
9880,-3.8749,0.0295,1.0001,-726.32,-156.25,-1748.11
9890,-3.8749,0.0299,0.9993,-210.69,15.62,-1169.92
9900,-3.8749,0.0271,0.9946,-163.82,-93.75,-544.98
9910,-3.8749,0.0223,0.9908,-523.19,-687.50,-60.61
9920,-3.8748,0.0167,0.9908,-1132.57,-1171.88,205.02
9930,-3.8748,0.0095,0.9927,-1851.32,-1171.88,314.39
9940,-3.8748,0.0002,0.9939,1226.81,-937.50,283.14
9950,-3.8748,-0.0095,0.9943,39.31,-781.25,48.77
9960,-3.8749,-0.0172,0.9941,-1210.69,-718.81,-263.73
9970,-3.8749,-0.0217,0.9948,1804.93,-734.44,-748.11
9980,-3.8749,-0.0239,0.9958,1226.81,-656.31,-1419.98
9990,-3.8749,-0.0245,0.9965,945.56,-515.69,1876.89
10000,-3.8749,-0.0242,0.9968,867.43,-437.56,1205.02
10010,-3.8749,-0.0231,0.9972,914.31,-390.69,720.64
10020,-3.8749,-0.0211,0.9980,1054.93,-343.81,455.02
10030,-3.8749,-0.0197,0.9993,1304.93,-234.44,220.64
10040,-3.8749,-0.0197,0.9995,1492.43,-78.19,17.52
10050,-3.8750,-0.0204,0.9985,1492.43,-46.94,-201.23
10060,-3.8750,-0.0200,0.9971,1398.68,-171.94,-451.23
10070,-3.8750,-0.0179,0.9956,1445.56,-359.44,-654.36
10080,-3.8750,-0.0150,0.9950,1711.18,-546.94,-685.61
10090,-3.8750,-0.0117,0.9961,-1913.82,-625.06,-373.11
10100,-3.8749,-0.0100,0.9974,-1491.94,-484.44,298.77
10110,-3.8749,-0.0100,0.9971,-1273.19,-312.56,1283.14
10120,-3.8749,-0.0103,0.9954,-1273.19,-359.44,-1607.48
10130,-3.8749,-0.0089,0.9922,-1304.44,-578.19,-763.73
10140,-3.8749,-0.0050,0.9869,-1132.57,-984.44,-263.73
10150,-3.8749,0.0012,0.9810,-632.57,-1656.31,-29.36
10160,-3.8749,0.0090,0.9768,164.31,1562.50,-248.11
10170,-3.8749,0.0148,0.9760,1164.31,1031.25,-826.23
10180,-3.8749,0.0162,0.9774,1898.68,921.88,-1466.86
10190,-3.8749,0.0156,0.9807,-1913.82,1109.38,-1998.11
10200,-3.8749,0.0140,0.9846,-1991.94,1531.25,1486.27
10210,-3.8749,0.0115,0.9874,1804.93,-1968.75,923.77
10220,-3.8749,0.0073,0.9895,1476.81,-1609.38,501.89
10230,-3.8749,0.0012,0.9916,945.56,-1343.75,345.64
10240,-3.8749,-0.0054,0.9949,164.31,-1078.12,580.02
10250,-3.8749,-0.0120,1.0001,-679.44,-640.69,1017.52
10260,-3.8749,-0.0179,1.0040,-1523.19,31.19,1236.33
10270,-3.8749,-0.0237,1.0018,1711.18,531.19,1283.20
10280,-3.8749,-0.0280,0.9962,976.81,249.94,1408.20
10290,-3.8749,-0.0298,0.9933,429.93,-468.81,1564.39
10300,-3.8749,-0.0293,0.9934,195.56,-843.81,1673.77
10310,-3.8749,-0.0272,0.9943,258.06,-828.19,1673.77
10320,-3.8749,-0.0231,0.9943,523.68,-718.81,1564.39
10330,-3.8749,-0.0164,0.9930,1054.93,-718.81,1470.64
10340,-3.8749,-0.0083,0.9907,1914.31,-875.06,1345.64
10350,-3.8749,0.0009,0.9879,-1054.44,-1171.94,1251.89
10360,-3.8749,0.0098,0.9871,117.43,-1546.88,1345.64
10370,-3.8749,0.0154,0.9882,1258.06,-1656.25,1455.02
10380,-3.8749,0.0160,0.9888,1976.81,-1515.62,1533.14
10390,-3.8749,0.0126,0.9893,-1945.07,-1437.50,1564.39
10400,-3.8749,0.0068,0.9902,1617.43,-1375.00,1392.52
10410,-3.8749,-0.0001,0.9913,883.06,-1250.00,1017.52
10420,-3.8749,-0.0067,0.9933,-7.57,-1093.81,751.89
10430,-3.8749,-0.0121,0.9969,-851.32,-843.81,908.14
10440,-3.8749,-0.0154,0.9996,-1538.82,-375.06,1283.14
10450,-3.8749,-0.0157,0.9996,-1960.69,-31.31,1486.27
10460,-3.8749,-0.0131,0.9976,1992.43,-31.31,1408.14
10470,-3.8749,-0.0094,0.9946,-1663.82,-296.94,1205.02
10480,-3.8749,-0.0060,0.9927,-1195.07,-671.94,1001.89
10490,-3.8749,-0.0031,0.9908,-757.57,-921.94,876.89
10500,-3.8749,-0.0007,0.9888,-382.57,-1156.31,673.77
10510,-3.8749,0.0020,0.9882,-85.69,-1421.94,642.52
10520,-3.8749,0.0042,0.9915,258.06,-1515.62,798.77
10530,-3.8749,0.0049,0.9957,539.31,-1093.75,1080.02
10540,-3.8749,0.0043,0.9985,633.06,-546.88,1517.52
10550,-3.8749,0.0023,1.0005,554.93,-187.50,1939.39
10560,-3.8749,0.0005,1.0000,304.93,62.50,-1779.30
10570,-3.8749,-0.0012,0.9971,70.56,0.00,-1638.67
10580,-3.8749,-0.0040,0.9940,-148.19,-359.44,-1701.23
10590,-3.8749,-0.0066,0.9907,-507.57,-750.06,-1998.11
10600,-3.8749,-0.0077,0.9861,-835.69,-1171.94,1642.52
10610,-3.8749,-0.0065,0.9828,-976.32,-1765.69,1267.52
10620,-3.8749,-0.0029,0.9833,-820.07,1812.44,923.77
10630,-3.8749,0.0009,0.9855,-366.94,1874.94,736.27
10640,-3.8749,0.0042,0.9869,117.43,-1859.38,720.64
10650,-3.8749,0.0065,0.9868,539.31,-1671.88,751.89
10660,-3.8749,0.0065,0.9879,836.18,-1687.50,876.89
10670,-3.8749,0.0048,0.9910,836.18,-1546.88,1080.02
10680,-3.8749,0.0029,0.9932,617.43,-1156.25,1048.77
10690,-3.8749,0.0006,0.9933,383.06,-875.00,892.52
10700,-3.8749,-0.0032,0.9916,86.18,-859.38,845.64
10710,-3.8749,-0.0084,0.9901,-398.19,-1062.56,986.27
10720,-3.8749,-0.0133,0.9902,-1070.07,-1250.06,1189.39
10730,-3.8749,-0.0166,0.9917,-1695.07,-1234.44,1392.52
10740,-3.8749,-0.0170,0.9937,1883.06,-1046.94,1595.64
10750,-3.8749,-0.0140,0.9948,1836.18,-796.94,1736.27
10760,-3.8749,-0.0095,0.9951,-1788.82,-656.31,-1935.61
10770,-3.8749,-0.0049,0.9930,-1210.69,-609.44,-1591.86
10780,-3.8749,-0.0011,0.9904,-616.94,-875.06,-1591.86
10790,-3.8749,0.0012,0.9919,-132.57,-1218.81,-1669.98
10800,-3.8749,0.0023,0.9974,164.31,-1031.25,-1669.98
10810,-3.8749,0.0037,1.0001,304.93,-328.12,-1794.98
10820,-3.8749,0.0060,0.9968,476.81,15.62,-1810.55
10830,-3.8749,0.0077,0.9922,773.68,-406.25,-1560.61
10840,-3.8749,0.0071,0.9895,992.43,-1000.00,-1435.61
10850,-3.8749,0.0040,0.9885,914.31,-1343.75,-1591.86
10860,-3.8749,0.0015,0.9883,523.68,-1468.75,-1951.23
10870,-3.8749,-0.0015,0.9889,195.56,-1500.00,1783.14
10880,-3.8749,-0.0056,0.9901,-179.44,-1406.31,1486.27
10890,-3.8749,-0.0063,0.9893,-710.69,-1250.06,1142.52
10900,-3.8749,-0.0034,0.9888,-804.44,-1359.44,1205.02
10910,-3.8749,-0.0020,0.9911,-429.44,-1421.94,1408.14
10920,-3.8749,-0.0026,0.9924,-241.94,-1125.06,1423.77
10930,-3.8749,-0.0031,0.9922,-320.07,-953.19,1501.89
10940,-3.8749,-0.0039,0.9916,-382.57,-984.44,1939.39
10950,-3.8749,-0.0054,0.9910,-491.94,-1062.56,-1326.23
10960,-3.8749,-0.0068,0.9902,-679.44,-1140.69,-576.23
10970,-3.8749,-0.0078,0.9897,-866.94,-1234.44,-29.36
10980,-3.8748,-0.0071,0.9907,-991.94,-1296.94,173.77
10990,-3.8748,-0.0051,0.9913,-898.19,-1171.94,142.52
11000,-3.8749,-0.0040,0.9916,-648.19,-1093.81,-154.36
11010,-3.8749,-0.0048,0.9943,-507.57,-1062.56,-576.23
11020,-3.8749,-0.0062,1.0000,-601.32,-718.81,-888.73
11030,-3.8749,-0.0054,1.0039,-788.82,15.56,-1279.30
11040,-3.8749,-0.0017,1.0018,-679.44,515.56,-1873.05
11050,-3.8749,0.0005,0.9956,-210.69,249.94,1642.58
11060,-3.8749,0.0001,0.9894,70.56,-562.50,1455.02
11070,-3.8749,-0.0009,0.9869,23.68,-1359.38,1423.77
11080,-3.8749,-0.0024,0.9886,-101.32,-1656.31,1626.89
11090,-3.8749,-0.0039,0.9922,-304.44,-1437.56,-1873.11
11100,-3.8749,-0.0046,0.9968,-491.94,-984.44,-1341.86
11110,-3.8749,-0.0042,1.0010,-585.69,-390.69,-1076.23
11120,-3.8749,-0.0020,1.0021,-523.19,140.56,-998.05
11130,-3.8749,0.0021,0.9988,-241.94,281.19,-873.05
11140,-3.8749,0.0071,0.9932,273.68,-156.25,-810.61
11150,-3.8749,0.0121,0.9871,914.31,-875.00,-904.36
11160,-3.8749,0.0156,0.9813,1554.93,-1656.25,-1263.73
11170,-3.8749,0.0153,0.9783,-1991.94,1609.38,-1701.23
11180,-3.8749,0.0120,0.9777,1961.18,1218.75,1923.77
11190,-3.8749,0.0081,0.9766,1539.31,1140.62,1548.77
11200,-3.8749,0.0052,0.9730,1039.31,1000.00,1236.27
11210,-3.8749,0.0055,0.9679,679.93,546.88,923.77
11220,-3.8749,0.0090,0.9648,711.18,-109.38,517.46
11230,-3.8750,0.0153,0.9650,1164.31,-500.00,-45.04
11240,-3.8750,0.0212,0.9664,1961.18,-484.38,-607.54
11250,-3.8750,0.0212,0.9692,-1273.19,-296.88,-1045.04
11260,-3.8750,0.0156,0.9756,-1273.19,62.50,-1201.23
11270,-3.8750,0.0084,0.9869,-1991.94,875.00,-888.73
11280,-3.8750,0.0017,0.9998,1086.18,-1671.88,-263.73
11290,-3.8749,-0.0049,1.0079,226.81,-31.25,642.52
11300,-3.8749,-0.0129,1.0109,-616.94,1031.19,1673.83
11310,-3.8749,-0.0210,1.0106,-1648.19,1406.19,-1513.67
11320,-3.8749,-0.0254,1.0073,1320.56,1374.94,-1169.92
11330,-3.8749,-0.0250,1.0020,758.06,953.06,-1154.30
11340,-3.8749,-0.0223,0.9967,804.93,265.56,-1263.67
11350,-3.8749,-0.0186,0.9935,1148.68,-406.31,-1248.11
11360,-3.8749,-0.0155,0.9939,1633.06,-812.56,-1123.11
11370,-3.8749,-0.0135,0.9973,-1976.32,-765.69,-935.61
11380,-3.8749,-0.0114,1.0017,-1726.32,-328.19,-482.48
11390,-3.8748,-0.0085,1.0066,-1445.07,234.31,33.20
11400,-3.8748,-0.0052,1.0109,-1085.69,859.31,376.95
11410,-3.8748,-0.0029,1.0114,-663.82,1406.19,392.58
11420,-3.8748,-0.0020,1.0070,-366.94,1468.69,48.83
11430,-3.8749,-0.0009,1.0012,-241.94,906.19,-451.17
11440,-3.8749,0.0006,0.9969,-101.32,171.81,-966.80
11450,-3.8749,0.0026,0.9938,86.18,-390.62,-1591.86
11460,-3.8749,0.0046,0.9929,336.18,-796.88,1705.02
11470,-3.8749,0.0061,0.9939,601.81,-906.25,939.39
11480,-3.8749,0.0078,0.9918,789.31,-781.25,126.89
11490,-3.8750,0.0109,0.9865,1008.06,-1046.88,-279.36
11500,-3.8750,0.0149,0.9817,1398.68,-1734.38,-326.23
11510,-3.8750,0.0190,0.9791,1914.31,1656.25,-357.48
11520,-3.8750,0.0221,0.9790,-1554.44,1328.12,-326.23
11530,-3.8750,0.0227,0.9807,-1163.82,1312.50,-216.86
11540,-3.8750,0.0205,0.9829,-1085.69,1531.25,-91.86
11550,-3.8749,0.0170,0.9851,-1366.94,1812.50,158.14
11560,-3.8749,0.0132,0.9857,-1820.07,-1906.25,455.02
11570,-3.8749,0.0096,0.9846,1695.56,-1828.12,767.52
11580,-3.8749,0.0065,0.9846,1242.43,-1968.75,1033.14
11590,-3.8749,0.0052,0.9868,836.18,-1968.75,1298.77
11600,-3.8749,0.0065,0.9886,679.93,-1687.50,1658.14
11610,-3.8749,0.0074,0.9913,836.18,-1453.12,-1841.86
11620,-3.8749,0.0060,0.9941,961.18,-1109.38,-1560.61
11630,-3.8749,0.0016,0.9934,773.68,-750.00,-1654.36
11640,-3.8749,-0.0044,0.9897,211.18,-843.75,-1810.61
11650,-3.8749,-0.0101,0.9871,-554.44,-1296.94,1970.64
11660,-3.8749,-0.0148,0.9885,-1288.82,-1640.69,1830.02
11670,-3.8749,-0.0172,0.9934,-1882.57,-1453.19,1970.64
11680,-3.8749,-0.0170,0.9976,1804.93,-828.19,-1810.61
11690,-3.8749,-0.0145,0.9989,1836.18,-296.94,-1638.73
11700,-3.8749,-0.0111,0.9978,-1851.32,-125.06,-1607.48
11710,-3.8749,-0.0072,0.9950,-1413.82,-265.69,-1841.86
11720,-3.8749,-0.0024,0.9916,-913.82,-625.06,1923.77
11730,-3.8749,0.0018,0.9884,-304.44,-1062.56,1736.27
11740,-3.8749,0.0038,0.9868,242.43,-1484.38,1533.14
11750,-3.8749,0.0035,0.9869,492.43,-1687.50,1486.27
11760,-3.8749,0.0029,0.9889,461.18,-1671.88,1611.27
11770,-3.8749,0.0037,0.9934,383.06,-1421.88,1751.89
11780,-3.8749,0.0052,0.9979,476.81,-843.75,1861.27
11790,-3.8749,0.0065,1.0001,679.93,-265.62,-1982.48
11800,-3.8749,0.0068,0.9991,836.18,15.62,-1810.55
11810,-3.8749,0.0057,0.9958,883.06,-109.38,-1794.98
11820,-3.8749,0.0039,0.9915,742.43,-531.25,-1873.11
11830,-3.8749,0.0023,0.9883,508.06,-1093.75,-1951.23
11840,-3.8749,0.0024,0.9890,304.93,-1500.00,1939.39
11850,-3.8749,0.0042,0.9918,320.56,-1406.25,1814.39
11860,-3.8749,0.0068,0.9935,539.31,-1046.88,1830.02
11870,-3.8749,0.0093,0.9944,883.06,-828.12,1861.27
11880,-3.8749,0.0115,0.9950,1195.56,-718.75,1923.77
11890,-3.8749,0.0143,0.9956,1476.81,-640.62,-1935.61
11900,-3.8749,0.0165,0.9956,1836.18,-562.50,-1873.11
11910,-3.8749,0.0157,0.9945,-1882.57,-562.50,-1873.11
11920,-3.8749,0.0118,0.9924,-1976.32,-703.12,-1904.36
11930,-3.8749,0.0079,0.9915,1523.68,-968.75,-1919.98
11940,-3.8749,0.0061,0.9929,1023.68,-1093.75,-1810.61
11950,-3.8749,0.0057,0.9952,789.31,-906.25,-1716.86
11960,-3.8749,0.0055,0.9973,742.43,-609.38,-1607.48
11970,-3.8749,0.0048,0.9987,711.18,-343.75,-1544.98
11980,-3.8749,0.0029,0.9989,617.43,-171.88,-1529.36
11990,-3.8749,0.0007,0.9987,383.06,-140.62,-1623.11
12000,-3.8749,-0.0009,0.9979,101.81,-171.88,-1873.11
12010,-3.8749,-0.0011,0.9955,-101.32,-250.06,1908.14
12020,-3.8749,-0.0005,0.9922,-132.57,-562.56,1798.77
12030,-3.8749,-0.0011,0.9886,-54.44,-984.44,1736.27
12040,-3.8749,-0.0021,0.9851,-132.57,-1437.56,1658.14
12050,-3.8749,-0.0022,0.9836,-257.57,-1890.69,1595.64
12060,-3.8749,-0.0010,0.9839,-273.19,1921.81,1736.27
12070,-3.8749,0.0018,0.9854,-116.94,1953.06,1970.64
12080,-3.8749,0.0056,0.9875,242.43,-1875.00,-1904.36
12090,-3.8749,0.0094,0.9888,726.81,-1593.75,-1794.98
12100,-3.8749,0.0115,0.9886,1211.18,-1437.50,-1654.36
12110,-3.8749,0.0109,0.9874,1476.81,-1453.12,-1513.73
12120,-3.8749,0.0073,0.9858,1398.68,-1609.38,-1529.36
12130,-3.8749,0.0026,0.9846,945.56,-1812.50,-1763.73
12140,-3.8749,-0.0024,0.9847,336.18,-1968.75,1986.27
12150,-3.8749,-0.0063,0.9856,-304.44,-1937.56,1939.39
12160,-3.8749,-0.0087,0.9863,-804.44,-1828.19,-1966.86
12170,-3.8749,-0.0077,0.9877,-1101.32,-1734.44,-1888.73
12180,-3.8749,-0.0044,0.9894,-976.32,-1562.56,-1888.73
12190,-3.8749,-0.0007,0.9906,-554.44,-1343.81,-1873.11
12200,-3.8749,0.0023,0.9904,-85.69,-1187.56,-1904.36
12210,-3.8749,0.0051,0.9891,304.93,-1234.38,-1935.61
12220,-3.8749,0.0076,0.9883,664.31,-1390.62,-1857.48
12230,-3.8749,0.0099,0.9883,976.81,-1500.00,-1810.61
12240,-3.8749,0.0135,0.9896,1273.68,-1500.00,-1841.86
12250,-3.8749,0.0162,0.9913,1742.43,-1328.12,-1873.11
12260,-3.8749,0.0161,0.9930,-1913.82,-1109.38,-1888.73
12270,-3.8749,0.0148,0.9935,-1929.44,-890.62,-1935.61
12280,-3.8749,0.0132,0.9928,1898.68,-828.12,1970.64
12290,-3.8749,0.0125,0.9922,1695.56,-921.88,1970.64
12300,-3.8749,0.0116,0.9918,1601.81,-1000.00,-1873.11
12310,-3.8749,0.0104,0.9927,1492.43,-1046.88,-1732.48
12320,-3.8749,0.0105,0.9966,1336.18,-937.50,-1607.48
12330,-3.8749,0.0106,1.0006,1351.81,-437.50,-1466.86
12340,-3.8749,0.0078,1.0012,1367.43,78.12,-1357.42
12350,-3.8749,0.0023,0.9995,1008.06,156.25,-1248.05
12360,-3.8749,-0.0038,0.9969,304.93,-62.50,-1029.36
12370,-3.8749,-0.0084,0.9951,-476.32,-375.06,-748.11
12380,-3.8749,-0.0096,0.9957,-1070.07,-609.44,-466.86
12390,-3.8749,-0.0060,0.9977,-1226.32,-531.31,-263.73
12400,-3.8749,0.0020,0.9980,-757.57,-281.31,-310.61
12410,-3.8749,0.0105,0.9956,258.06,-250.00,-623.11
12420,-3.8749,0.0159,0.9922,1351.81,-562.50,-1060.61
12430,-3.8749,0.0175,0.9901,-1960.69,-1000.00,-1607.48
12440,-3.8749,0.0161,0.9891,-1757.57,-1265.62,1767.52
12450,-3.8749,0.0133,0.9894,-1929.44,-1390.62,1283.14
12460,-3.8749,0.0114,0.9913,1711.18,-1359.38,1048.77
12470,-3.8749,0.0116,0.9944,1461.18,-1109.38,1173.77
12480,-3.8749,0.0125,0.9976,1492.43,-718.75,1626.89
12490,-3.8749,0.0142,1.0005,1601.81,-312.50,-1888.73
12500,-3.8749,0.0166,1.0021,1820.56,62.50,-1654.30
12510,-3.8749,0.0160,1.0011,-1866.94,265.62,-1685.55
12520,-3.8749,0.0132,0.9982,-1945.07,140.62,-1904.30
12530,-3.8749,0.0104,0.9941,1695.56,-234.38,1814.39
12540,-3.8749,0.0101,0.9902,1336.18,-750.00,1626.89
12550,-3.8749,0.0128,0.9877,1304.93,-1250.00,1330.02
12560,-3.8749,0.0173,0.9862,1648.68,-1578.12,892.52
12570,-3.8749,0.0229,0.9846,-1773.19,-1765.62,611.27
12580,-3.8749,0.0281,0.9830,-1054.44,-1968.75,533.14
12590,-3.8749,0.0309,0.9828,-398.19,1828.12,595.64
12600,-3.8749,0.0323,0.9838,-38.82,1796.88,720.64
12610,-3.8749,0.0343,0.9844,148.68,1921.94,876.89
12620,-3.8749,0.0355,0.9845,398.68,-1999.94,1033.14
12630,-3.8749,0.0374,0.9850,554.93,-1984.31,970.64
12640,-3.8749,0.0411,0.9875,789.31,-1921.81,892.52
12650,-3.8749,0.0422,0.9921,1273.68,-1593.69,876.89
12660,-3.8749,0.0376,0.9943,1414.31,-1015.56,720.64
12670,-3.8749,0.0304,0.9949,820.56,-734.31,626.89
12680,-3.8749,0.0238,0.9949,-101.32,-656.25,705.02
12690,-3.8749,0.0192,0.9945,-945.07,-656.25,923.77
12700,-3.8749,0.0168,0.9950,-1538.82,-703.12,1236.27
12710,-3.8749,0.0170,0.9958,-1835.69,-640.62,1595.64
12720,-3.8749,0.0176,0.9967,-1820.07,-531.25,1876.89
12730,-3.8749,0.0171,0.9976,-1741.94,-421.88,-1810.61
12740,-3.8749,0.0156,0.9988,-1804.44,-312.50,-1451.23
12750,-3.8749,0.0137,1.0004,-1991.94,-156.25,-1154.36
12760,-3.8749,0.0133,1.0002,1758.06,46.88,-1138.67
12770,-3.8749,0.0151,0.9974,1711.18,31.25,-1419.92
12780,-3.8749,0.0167,0.9950,1945.56,-328.12,-1638.73
12790,-3.8749,0.0178,0.9945,-1851.32,-640.62,-1685.61
12800,-3.8749,0.0188,0.9945,-1710.69,-703.12,-1748.11
12810,-3.8749,0.0189,0.9963,-1585.69,-703.12,-1763.73
12820,-3.8749,0.0197,1.0001,-1570.07,-468.75,-1701.23
12830,-3.8749,0.0214,1.0028,-1476.32,15.62,-1810.55
12840,-3.8749,0.0233,1.0026,-1257.57,359.38,-1841.80
12850,-3.8749,0.0236,1.0006,-1007.57,328.12,-1623.05
12860,-3.8749,0.0228,0.9982,-976.32,78.12,-1482.42
12870,-3.8749,0.0229,0.9963,-1070.07,-234.38,-1591.86
12880,-3.8749,0.0236,0.9954,-1054.44,-468.75,-1966.86
12890,-3.8749,0.0245,0.9951,-976.32,-593.75,1736.27
12900,-3.8749,0.0255,0.9951,-851.32,-625.00,1814.39
12910,-3.8749,0.0259,0.9949,-726.32,-625.00,-1794.98
12920,-3.8749,0.0258,0.9939,-679.44,-656.25,-1310.61
12930,-3.8749,0.0247,0.9927,-695.07,-781.25,-1044.98
12940,-3.8749,0.0239,0.9926,-835.69,-937.50,-919.98
12950,-3.8749,0.0250,0.9922,-929.44,-953.12,-951.23
12960,-3.8749,0.0266,0.9900,-788.82,-1000.00,-1154.36
12970,-3.8749,0.0283,0.9872,-585.69,-1281.25,-1607.48
12980,-3.8749,0.0293,0.9846,-366.94,-1640.62,1845.64
12990,-3.8749,0.0297,0.9834,-241.94,-1968.75,1595.64
13000,-3.8749,0.0299,0.9829,-195.07,1875.00,1595.64
13010,-3.8749,0.0295,0.9832,-163.82,1812.50,1798.77
13020,-3.8749,0.0293,0.9841,-210.69,1843.75,-1935.61
13030,-3.8749,0.0292,0.9839,-241.94,1968.75,-1951.23
13040,-3.8749,0.0284,0.9836,-257.57,1937.50,1939.39
13050,-3.8749,0.0287,0.9863,-351.32,1906.25,1830.02
13060,-3.8749,0.0291,0.9884,-320.07,-1750.00,1642.52
13070,-3.8749,0.0267,0.9886,-273.19,-1484.38,1845.64
13080,-3.8749,0.0229,0.9890,-570.07,-1453.12,-1388.73
13090,-3.8749,0.0197,0.9901,-1054.44,-1406.25,-716.86
13100,-3.8749,0.0177,0.9919,-1476.32,-1265.62,-341.86
13110,-3.8749,0.0164,0.9939,-1726.32,-1031.25,-138.73
13120,-3.8749,0.0151,0.9944,-1898.19,-781.25,-310.61
13130,-3.8749,0.0137,0.9935,1945.56,-718.75,-701.23
13140,-3.8749,0.0120,0.9910,1758.06,-828.12,-1091.86
13150,-3.8749,0.0094,0.9877,1539.31,-1156.25,-1419.98
13160,-3.8749,0.0067,0.9851,1211.18,-1578.12,-1779.36
13170,-3.8749,0.0043,0.9838,867.43,-1906.25,1751.89
13180,-3.8749,0.0023,0.9829,554.93,1921.88,1423.77
13190,-3.8749,0.0032,0.9810,304.93,1812.50,1314.39
13200,-3.8749,0.0051,0.9790,414.31,1562.50,1314.39
13210,-3.8749,0.0073,0.9795,664.31,1312.50,1408.14
13220,-3.8749,0.0135,0.9838,945.56,1375.00,1658.14
13230,-3.8749,0.0222,0.9893,1742.43,1921.88,1580.02
13240,-3.8749,0.0304,0.9897,-1148.19,-1375.00,1017.52
13250,-3.8749,0.0372,0.9836,-101.32,-1312.50,345.64
13260,-3.8750,0.0422,0.9745,773.68,1906.31,-185.61
13270,-3.8750,0.0460,0.9656,1414.31,734.44,-685.61
13280,-3.8750,0.0505,0.9590,1898.68,-406.19,-1341.92
13290,-3.8750,0.0555,0.9554,-1523.19,-1249.94,-1670.04
13300,-3.8750,0.0591,0.9554,-882.57,-1703.06,-1545.04
13310,-3.8750,0.0620,0.9603,-429.44,-1703.06,-1216.92
13320,-3.8750,0.0651,0.9701,-54.44,-1078.06,-545.04
13330,-3.8749,0.0677,0.9827,336.18,172.00,376.89
13340,-3.8749,0.0692,0.9938,679.93,1781.37,1376.89
13350,-3.8749,0.0680,1.0009,867.43,-796.75,-1623.11
13360,-3.8749,0.0649,1.0050,711.18,109.50,-779.30
13370,-3.8749,0.0598,1.0071,320.56,640.75,-91.80
13380,-3.8748,0.0522,1.0068,-335.69,906.31,486.33
13390,-3.8748,0.0447,1.0046,-1304.44,875.06,892.58
13400,-3.8748,0.0383,1.0024,1726.81,593.81,1017.58
13410,-3.8748,0.0337,1.0013,914.31,312.56,814.45
13420,-3.8748,0.0312,1.0002,320.56,171.94,376.95
13430,-3.8749,0.0308,0.9991,8.06,31.31,-76.17
13440,-3.8749,0.0299,0.9988,-54.44,-109.38,-623.11
13450,-3.8749,0.0291,0.9980,-163.82,-156.25,-1310.61
13460,-3.8749,0.0294,0.9962,-273.19,-250.00,-1935.61
13470,-3.8749,0.0306,0.9939,-226.32,-484.38,1580.02
13480,-3.8749,0.0317,0.9921,-70.07,-781.25,1267.52
13490,-3.8749,0.0327,0.9906,70.56,-1015.56,1142.52
13500,-3.8749,0.0345,0.9894,195.56,-1203.06,1111.27
13510,-3.8749,0.0363,0.9894,429.93,-1359.31,1095.64
13520,-3.8749,0.0363,0.9910,648.68,-1359.31,1173.77
13530,-3.8749,0.0341,0.9923,648.68,-1156.19,1486.27
13540,-3.8749,0.0299,0.9922,367.43,-984.31,1783.14
13550,-3.8749,0.0265,0.9908,-163.82,-1000.00,1814.39
13560,-3.8749,0.0248,0.9893,-601.32,-1171.88,1392.52
13570,-3.8749,0.0247,0.9885,-820.07,-1375.00,783.14
13580,-3.8749,0.0267,0.9891,-835.69,-1468.75,533.14
13590,-3.8749,0.0291,0.9902,-570.07,-1390.62,626.89
13600,-3.8749,0.0304,0.9916,-273.19,-1250.00,845.64
13610,-3.8749,0.0317,0.9939,-101.32,-1078.12,1126.89
13620,-3.8749,0.0341,0.9968,70.56,-781.19,1439.39
13630,-3.8749,0.0367,0.9993,367.43,-406.19,1564.39
13640,-3.8749,0.0386,1.0004,711.18,-93.69,1564.39
13650,-3.8749,0.0392,1.0000,945.56,46.94,1689.45
13660,-3.8749,0.0382,0.9987,1023.68,0.06,-1951.17
13670,-3.8749,0.0364,0.9971,898.68,-171.81,-1591.86
13680,-3.8749,0.0344,0.9957,664.31,-374.94,-1607.48
13690,-3.8749,0.0336,0.9948,414.31,-546.81,-1919.98
13700,-3.8749,0.0344,0.9928,304.93,-671.81,1908.14
13710,-3.8749,0.0349,0.9901,414.31,-921.81,1892.52
13720,-3.8749,0.0339,0.9882,476.81,-1265.56,1720.64
13730,-3.8749,0.0331,0.9877,351.81,-1515.56,1314.39
13740,-3.8749,0.0339,0.9879,242.43,-1578.06,939.39
13750,-3.8749,0.0354,0.9890,351.81,-1546.81,720.64
13760,-3.8749,0.0365,0.9886,539.31,-1406.19,673.77
13770,-3.8749,0.0376,0.9861,679.93,-1453.06,798.77
13780,-3.8749,0.0383,0.9827,820.56,-1781.19,861.27
13790,-3.8749,0.0386,0.9795,914.31,1781.31,876.89
13800,-3.8749,0.0386,0.9791,945.56,1375.06,908.14
13810,-3.8749,0.0381,0.9816,945.56,1328.19,986.27
13820,-3.8749,0.0371,0.9857,883.06,1640.69,1173.77
13830,-3.8749,0.0367,0.9907,758.06,-1828.06,1533.14
13840,-3.8749,0.0369,0.9958,711.18,-1187.44,1986.27
13850,-3.8749,0.0365,1.0007,726.81,-531.19,-1732.48
13860,-3.8749,0.0363,1.0038,679.93,93.81,-1654.30
13870,-3.8749,0.0356,1.0031,648.68,484.44,-1701.17
13880,-3.8749,0.0347,0.9988,570.56,390.69,-1779.30
13890,-3.8749,0.0332,0.9940,445.56,-156.19,-1607.48
13900,-3.8749,0.0327,0.9913,258.06,-765.56,-1357.48
13910,-3.8749,0.0342,0.9919,195.56,-1109.31,-1279.36
13920,-3.8749,0.0374,0.9944,383.06,-1031.19,-1248.11
13930,-3.8749,0.0415,0.9968,789.31,-718.69,-1107.48
13940,-3.8749,0.0447,0.9973,1320.56,-406.19,-1013.73
13950,-3.8749,0.0465,0.9952,1726.81,-343.69,-1123.11
13960,-3.8749,0.0476,0.9907,1961.18,-609.31,-1248.11
13970,-3.8749,0.0470,0.9866,-1898.19,-1187.44,-1451.23
13980,-3.8749,0.0438,0.9851,-1976.32,-1718.69,-1654.36
13990,-3.8749,0.0388,0.9871,1617.43,-1906.19,-1701.23
14000,-3.8749,0.0331,0.9911,976.81,-1656.19,-1591.86
14010,-3.8749,0.0270,0.9955,242.43,-1140.56,-1373.11
14020,-3.8749,0.0220,0.9990,-538.82,-578.12,-1201.23
14030,-3.8749,0.0195,0.9995,-1179.44,-125.00,-1060.61
14040,-3.8749,0.0193,0.9977,-1491.94,-62.50,-904.36
14050,-3.8749,0.0201,0.9956,-1523.19,-296.88,-857.48
14060,-3.8749,0.0212,0.9944,-1413.82,-562.50,-1123.11
14070,-3.8749,0.0231,0.9937,-1273.19,-718.75,-1498.11
14080,-3.8749,0.0256,0.9924,-1038.82,-812.50,-1654.36
14090,-3.8749,0.0282,0.9915,-710.69,-968.75,-1732.48
14100,-3.8749,0.0288,0.9910,-382.57,-1093.75,-1638.73
14110,-3.8749,0.0276,0.9913,-304.44,-1156.25,-1419.98
14120,-3.8749,0.0267,0.9919,-460.69,-1109.38,-1294.98
14130,-3.8749,0.0267,0.9916,-570.07,-1031.25,-1185.61
14140,-3.8749,0.0267,0.9902,-570.07,-1078.12,-1091.86
14150,-3.8749,0.0273,0.9880,-570.07,-1250.00,-1013.73
14160,-3.8749,0.0289,0.9865,-491.94,-1531.25,-1107.48
14170,-3.8749,0.0311,0.9858,-288.82,-1734.38,-1466.86
14180,-3.8749,0.0333,0.9852,-7.57,-1812.50,-1982.48
14190,-3.8749,0.0352,0.9844,273.68,-1890.56,1439.39
14200,-3.8749,0.0352,0.9830,508.06,-1999.94,1080.02
14210,-3.8749,0.0325,0.9823,508.06,1828.19,939.39
14220,-3.8749,0.0287,0.9832,164.31,1734.44,814.39
14230,-3.8749,0.0273,0.9868,-320.07,1843.75,876.89
14240,-3.8749,0.0293,0.9906,-491.94,-1687.50,1158.14
14250,-3.8749,0.0323,0.9929,-241.94,-1203.12,1626.89
14260,-3.8749,0.0348,0.9941,148.68,-906.19,-1763.73
14270,-3.8749,0.0352,0.9921,461.18,-749.94,-1357.48
14280,-3.8749,0.0338,0.9879,508.06,-1015.56,-1341.86
14290,-3.8749,0.0333,0.9845,336.18,-1546.81,-1607.48
14300,-3.8749,0.0350,0.9839,273.68,-1984.31,-1904.36
14310,-3.8749,0.0393,0.9861,492.43,1937.56,1845.64
14320,-3.8749,0.0450,0.9890,1039.31,-1781.19,1720.64
14330,-3.8749,0.0497,0.9910,1773.68,-1406.19,1751.89
14340,-3.8749,0.0532,0.9897,-1632.57,-1156.19,1720.64
14350,-3.8749,0.0553,0.9861,-1179.44,-1312.44,1611.27
14360,-3.8749,0.0546,0.9833,-913.82,-1781.19,1564.39
14370,-3.8749,0.0526,0.9832,-1007.57,1859.44,1486.27
14380,-3.8749,0.0509,0.9841,-1257.57,1843.81,1470.64
14390,-3.8749,0.0499,0.9857,-1476.32,1968.81,1580.02
14400,-3.8749,0.0504,0.9874,-1601.32,-1828.06,1720.64
14410,-3.8749,0.0520,0.9886,-1538.82,-1609.31,1861.27
14420,-3.8749,0.0521,0.9901,-1335.69,-1453.06,-1998.11
14430,-3.8749,0.0500,0.9926,-1320.07,-1265.56,-1810.61
14440,-3.8749,0.0470,0.9949,-1585.69,-953.06,-1654.36
14450,-3.8749,0.0433,0.9962,-1976.32,-656.19,-1623.11
14460,-3.8749,0.0398,0.9979,1554.93,-484.31,-1513.73
14470,-3.8749,0.0370,0.9985,1101.81,-265.56,-1357.48
14480,-3.8749,0.0353,0.9973,742.43,-187.44,-1201.23
14490,-3.8749,0.0343,0.9961,523.68,-343.69,-1091.86
14500,-3.8749,0.0325,0.9955,398.68,-499.94,-1232.48
14510,-3.8749,0.0326,0.9949,164.31,-578.06,-1466.86
14520,-3.8749,0.0374,0.9944,179.93,-656.19,-1576.23
14530,-3.8749,0.0421,0.9940,789.31,-718.69,-1513.73
14540,-3.8749,0.0436,0.9949,1398.68,-765.56,-1357.48
14550,-3.8749,0.0426,0.9963,1586.18,-656.19,-1310.61
14560,-3.8749,0.0417,0.9961,1461.18,-468.69,-1232.48
14570,-3.8749,0.0421,0.9930,1351.81,-499.94,-1201.23
14580,-3.8749,0.0427,0.9895,1398.68,-890.56,-1388.73
14590,-3.8749,0.0435,0.9873,1476.81,-1343.69,-1654.36
14600,-3.8749,0.0449,0.9858,1570.56,-1624.94,1986.27
14610,-3.8749,0.0477,0.9846,1758.06,-1812.44,1751.89
14620,-3.8749,0.0515,0.9838,-1882.57,-1968.69,1642.52
14630,-3.8749,0.0544,0.9836,-1398.19,1921.94,1580.02
14640,-3.8749,0.0558,0.9839,-1023.19,1906.31,1626.89
14650,-3.8749,0.0554,0.9851,-851.32,1937.56,1736.27
14660,-3.8749,0.0526,0.9868,-898.19,-1906.19,1845.64
14670,-3.8749,0.0480,0.9883,-1257.57,-1687.44,1923.77
14680,-3.8749,0.0419,0.9891,-1851.32,-1499.94,1970.64
14690,-3.8749,0.0356,0.9904,1367.43,-1390.56,1908.14
14700,-3.8749,0.0302,0.9923,570.56,-1234.31,1908.14
14710,-3.8749,0.0275,0.9934,-132.57,-984.38,-1888.73
14720,-3.8749,0.0271,0.9927,-476.32,-843.75,-1638.73
14730,-3.8749,0.0280,0.9921,-523.19,-937.50,-1591.86
14740,-3.8749,0.0302,0.9919,-413.82,-1015.62,-1779.36
14750,-3.8749,0.0336,0.9913,-132.57,-1031.25,1970.64
14760,-3.8749,0.0372,0.9900,304.93,-1109.31,1689.39
14770,-3.8749,0.0402,0.9893,773.68,-1281.19,1626.89
14780,-3.8749,0.0417,0.9891,1148.68,-1374.94,1814.39
14790,-3.8749,0.0425,0.9895,1351.81,-1390.56,-1935.61
14800,-3.8749,0.0421,0.9907,1445.56,-1343.69,-1623.11
14810,-3.8749,0.0413,0.9916,1398.68,-1187.44,-1404.36
14820,-3.8749,0.0416,0.9919,1289.31,-1078.06,-1341.86
14830,-3.8749,0.0442,0.9921,1336.18,-1031.19,-1341.86
14840,-3.8749,0.0470,0.9929,1664.31,-1015.56,-1419.98
14850,-3.8749,0.0493,0.9945,-1976.32,-906.19,-1498.11
14860,-3.8749,0.0507,0.9961,-1679.44,-703.06,-1669.98
14870,-3.8749,0.0508,0.9971,-1507.57,-499.94,-1888.73
14880,-3.8749,0.0498,0.9980,-1491.94,-374.94,-1982.48
14890,-3.8749,0.0486,0.9985,-1616.94,-249.94,-1998.11
14900,-3.8749,0.0479,0.9985,-1773.19,-187.44,-1998.11
14910,-3.8749,0.0469,1.0000,-1866.94,-187.44,1923.77
14920,-3.8749,0.0447,1.0010,-1991.94,0.06,1876.95
14930,-3.8749,0.0425,1.0005,1726.81,125.06,1986.33
14940,-3.8749,0.0398,0.9998,1445.56,62.56,-1794.92
14950,-3.8749,0.0364,0.9983,1101.81,-31.19,-1498.11
14960,-3.8749,0.0341,0.9973,664.31,-218.69,-1044.98
14970,-3.8749,0.0343,0.9979,367.43,-343.69,-591.86
14980,-3.8749,0.0372,0.9979,398.68,-265.56,-388.73
14990,-3.8749,0.0400,0.9948,773.68,-265.56,-498.11
15000,-3.8749,0.0403,0.9891,1133.06,-671.81,-748.11
15010,-3.8749,0.0393,0.9834,1164.31,-1390.56,-904.36
15020,-3.8749,0.0396,0.9789,1039.31,1875.06,-1029.36
15030,-3.8749,0.0414,0.9775,1070.56,1296.94,-1232.48
15040,-3.8749,0.0432,0.9795,1304.93,1125.06,-1513.73
15050,-3.8749,0.0444,0.9825,1539.31,1375.06,-1857.48
15060,-3.8749,0.0439,0.9844,1695.56,1765.69,1861.27
15070,-3.8749,0.0416,0.9846,1633.06,-1999.94,1658.14
15080,-3.8749,0.0393,0.9847,1336.18,-1968.69,1361.27
15090,-3.8749,0.0383,0.9850,1039.31,-1953.06,908.14
15100,-3.8749,0.0382,0.9857,914.31,-1921.81,501.89
15110,-3.8749,0.0386,0.9868,898.68,-1828.06,205.02
15120,-3.8749,0.0402,0.9873,945.56,-1687.44,48.77
15130,-3.8749,0.0433,0.9874,1148.68,-1624.94,111.27
15140,-3.8749,0.0475,0.9884,1554.93,-1609.31,361.27
15150,-3.8749,0.0514,0.9895,-1913.82,-1484.31,736.27
15160,-3.8749,0.0531,0.9888,-1413.82,-1343.69,1142.52
15170,-3.8749,0.0525,0.9854,-1195.07,-1437.44,1439.39
15180,-3.8749,0.0510,0.9816,-1273.19,-1874.94,1783.14
15190,-3.8749,0.0498,0.9803,-1460.69,1640.69,-1779.36
15200,-3.8749,0.0498,0.9811,-1616.94,1484.44,-1498.11
15210,-3.8749,0.0508,0.9823,-1616.94,1578.19,-1466.86
15220,-3.8749,0.0508,0.9836,-1491.94,1734.44,-1576.23
15230,-3.8749,0.0488,0.9851,-1491.94,1906.31,-1669.98
15240,-3.8749,0.0454,0.9863,-1741.94,-1906.19,-1763.73
15250,-3.8749,0.0415,0.9883,1820.56,-1749.94,1955.02
15260,-3.8749,0.0380,0.9912,1320.56,-1499.94,1611.27
15270,-3.8749,0.0353,0.9934,867.43,-1124.94,1501.89
15280,-3.8749,0.0337,0.9951,523.68,-843.69,1767.52
15290,-3.8749,0.0334,0.9979,320.56,-624.94,-1794.98
15300,-3.8749,0.0347,1.0000,289.31,-265.56,-1326.23
15310,-3.8749,0.0372,1.0001,445.56,0.06,-982.42
15320,-3.8749,0.0393,1.0004,773.68,15.69,-794.92
15330,-3.8749,0.0402,1.0010,1039.31,46.94,-669.92
15340,-3.8749,0.0410,1.0011,1148.68,125.06,-716.80
15350,-3.8749,0.0428,1.0005,1258.06,140.69,-951.17
15360,-3.8749,0.0454,0.9984,1492.43,62.56,-1263.67
15370,-3.8749,0.0476,0.9949,1820.56,-203.06,-1576.23
15380,-3.8749,0.0493,0.9913,-1898.19,-656.19,-1888.73
15390,-3.8749,0.0514,0.9882,-1679.44,-1109.31,1861.27
15400,-3.8749,0.0540,0.9852,-1413.82,-1515.56,1751.89
15410,-3.8749,0.0559,0.9833,-1085.69,-1890.56,1751.89
15420,-3.8749,0.0569,0.9828,-835.69,1859.44,1845.64
15430,-3.8749,0.0568,0.9827,-710.69,1796.94,-1904.36
15440,-3.8749,0.0551,0.9827,-726.32,1781.31,-1716.86
15450,-3.8749,0.0514,0.9832,-945.07,1781.31,-1669.98
15460,-3.8749,0.0459,0.9850,-1413.82,1843.81,-1701.23
15470,-3.8749,0.0398,0.9879,1883.06,-1921.81,-1857.48
15480,-3.8749,0.0328,0.9915,1101.81,-1546.81,1955.02
15490,-3.8749,0.0253,0.9938,211.18,-1093.69,1751.89
15500,-3.8749,0.0181,0.9948,-757.57,-796.88,1408.14
15510,-3.8749,0.0123,0.9958,-1679.44,-671.88,955.02
15520,-3.8749,0.0107,0.9971,1586.18,-531.25,611.27
15530,-3.8749,0.0139,0.9984,1383.06,-375.00,423.77
15540,-3.8749,0.0200,1.0002,1789.31,-203.12,392.52
15550,-3.8749,0.0272,1.0032,-1429.44,31.25,533.20
15560,-3.8749,0.0353,1.0052,-507.57,406.25,736.33
15570,-3.8749,0.0430,1.0042,523.68,671.94,876.95
15580,-3.8749,0.0483,1.0006,1508.06,531.31,1017.58
15590,-3.8749,0.0521,0.9960,-1804.44,78.19,1330.08
15600,-3.8749,0.0574,0.9929,-1320.07,-515.56,1658.14
15610,-3.8749,0.0637,0.9919,-648.19,-906.19,1705.02
15620,-3.8749,0.0682,0.9902,164.31,-1031.13,1517.52
15630,-3.8749,0.0693,0.9856,742.43,-1249.88,1111.27
15640,-3.8749,0.0679,0.9794,883.06,-1843.63,767.52
15650,-3.8749,0.0651,0.9752,695.56,1359.50,736.27
15660,-3.8749,0.0618,0.9744,336.18,828.25,767.52
15670,-3.8749,0.0598,0.9753,-85.69,718.81,501.89
15680,-3.8749,0.0609,0.9758,-335.69,843.81,64.39
15690,-3.8750,0.0623,0.9753,-195.07,906.31,-154.36
15700,-3.8750,0.0623,0.9747,-23.19,843.81,-263.73
15710,-3.8750,0.0619,0.9747,-23.19,765.69,-294.98
15720,-3.8750,0.0597,0.9775,-70.07,765.69,-107.48
15730,-3.8749,0.0540,0.9832,-351.32,1125.06,330.02
15740,-3.8749,0.0452,0.9891,-1085.69,1843.81,892.52
15750,-3.8749,0.0358,0.9938,1789.31,-1390.56,1376.89
15760,-3.8749,0.0288,0.9978,586.18,-796.81,1861.27
15770,-3.8749,0.0254,1.0020,-304.44,-281.25,-1701.23
15780,-3.8749,0.0258,1.0055,-741.94,250.00,-1404.30
15790,-3.8749,0.0286,1.0072,-695.07,703.12,-1154.30
15800,-3.8749,0.0310,1.0072,-335.69,921.88,-1013.67
15810,-3.8749,0.0321,1.0059,-23.19,921.88,-951.17
15820,-3.8749,0.0331,1.0035,117.43,750.06,-919.92
15830,-3.8749,0.0356,1.0016,242.43,453.19,-1013.67
15840,-3.8749,0.0398,1.0001,570.56,203.19,-1232.42
15850,-3.8749,0.0455,0.9973,1101.81,15.69,-1544.92
15860,-3.8749,0.0525,0.9929,1836.18,-343.69,-1904.36
15870,-3.8749,0.0591,0.9886,-1273.19,-906.19,1783.14
15880,-3.8749,0.0636,0.9851,-429.44,-1453.06,1501.89
15890,-3.8749,0.0657,0.9823,148.68,-1906.13,1158.14
15900,-3.8749,0.0648,0.9805,414.31,1734.50,720.64
15910,-3.8749,0.0625,0.9794,304.93,1500.12,439.39
15920,-3.8749,0.0602,0.9788,8.06,1359.50,314.39
15930,-3.8749,0.0580,0.9788,-288.82,1281.31,455.02
15940,-3.8749,0.0560,0.9802,-570.07,1281.31,798.77
15950,-3.8749,0.0543,0.9838,-820.07,1468.81,1126.89
15960,-3.8749,0.0529,0.9872,-1038.82,1921.94,1361.27
15970,-3.8749,0.0510,0.9883,-1226.32,-1640.56,1470.64
15980,-3.8749,0.0488,0.9895,-1460.69,-1499.94,1580.02
15990,-3.8749,0.0466,0.9930,-1741.94,-1343.69,1736.27
16000,-3.8749,0.0455,0.9965,1976.81,-890.56,1798.77
16010,-3.8749,0.0452,0.9987,1836.18,-453.06,1830.02
16020,-3.8749,0.0452,0.9990,1789.31,-171.81,1955.02
16030,-3.8749,0.0452,0.9978,1789.31,-124.94,1986.27
16040,-3.8749,0.0459,0.9958,1789.31,-281.19,1955.02
16050,-3.8749,0.0476,0.9940,1883.06,-531.19,1923.77
16060,-3.8749,0.0487,0.9926,-1898.19,-765.56,1892.52
16070,-3.8749,0.0485,0.9911,-1757.57,-953.06,-1966.86
16080,-3.8749,0.0483,0.9910,-1788.82,-1140.56,-1779.36
16090,-3.8749,0.0488,0.9923,-1804.44,-1156.19,-1669.98
16100,-3.8749,0.0486,0.9933,-1741.94,-984.31,-1607.48
16110,-3.8749,0.0470,0.9935,-1773.19,-859.31,-1685.61
16120,-3.8749,0.0436,0.9927,-1976.32,-828.06,-1966.86
16130,-3.8749,0.0402,0.9906,1586.18,-937.44,1689.39
16140,-3.8749,0.0377,0.9884,1148.68,-1203.06,1345.64
16150,-3.8749,0.0350,0.9872,836.18,-1484.31,1189.39
16160,-3.8749,0.0317,0.9883,492.43,-1640.56,1283.14
16170,-3.8749,0.0287,0.9902,70.56,-1499.94,1236.27
16180,-3.8749,0.0261,0.9921,-320.07,-1250.00,830.02
16190,-3.8749,0.0229,0.9941,-648.19,-1015.62,439.39
16200,-3.8749,0.0192,0.9949,-1054.44,-750.00,439.39
16210,-3.8749,0.0168,0.9938,-1538.82,-656.25,923.77
16220,-3.8749,0.0181,0.9935,-1835.69,-796.88,1673.77
16230,-3.8749,0.0228,0.9955,-1679.44,-828.12,-1716.86
16240,-3.8749,0.0281,0.9966,-1070.07,-578.12,-1498.11
16250,-3.8749,0.0320,0.9946,-398.19,-437.50,-1482.48
16260,-3.8749,0.0336,0.9906,101.81,-687.44,-1373.11
16270,-3.8749,0.0343,0.9871,304.93,-1203.06,-1419.98
16280,-3.8749,0.0367,0.9850,398.68,-1656.19,-1669.98
16290,-3.8749,0.0409,0.9856,711.18,-1921.81,-1826.23
16300,-3.8749,0.0449,0.9877,1242.43,-1843.69,-1935.61
16310,-3.8749,0.0471,0.9885,1758.06,-1578.06,1876.89
16320,-3.8749,0.0461,0.9879,-1960.69,-1468.69,1642.52
16330,-3.8749,0.0414,0.9868,1914.31,-1546.81,1361.27
16340,-3.8749,0.0349,0.9860,1304.93,-1687.44,1205.02
16350,-3.8749,0.0289,0.9862,476.81,-1796.81,1236.27
16360,-3.8749,0.0258,0.9880,-288.82,-1765.62,1283.14
16370,-3.8749,0.0264,0.9916,-695.07,-1531.25,1283.14
16380,-3.8749,0.0300,0.9938,-616.94,-1078.12,1314.39
16390,-3.8749,0.0348,0.9930,-148.19,-796.88,1486.27
16400,-3.8749,0.0386,0.9930,461.18,-890.56,1751.89
16410,-3.8749,0.0409,0.9965,945.56,-890.56,-1982.48
16420,-3.8749,0.0410,0.9995,1242.43,-453.06,-1732.48
16430,-3.8749,0.0402,0.9998,1258.06,-62.44,-1435.61
16440,-3.8749,0.0387,0.9988,1148.68,-31.19,-1138.73
16450,-3.8749,0.0366,0.9982,961.18,-156.19,-998.11
16460,-3.8749,0.0349,0.9977,695.56,-234.31,-1123.11
16470,-3.8749,0.0333,0.9969,476.81,-296.81,-1404.36
16480,-3.8749,0.0317,0.9956,273.68,-390.56,-1669.98
16490,-3.8749,0.0306,0.9937,70.56,-562.44,-1888.73
16500,-3.8749,0.0312,0.9915,-70.07,-812.50,1830.02
16510,-3.8749,0.0347,0.9899,8.06,-1093.69,1626.89
16520,-3.8749,0.0397,0.9894,445.56,-1296.81,1470.64
16530,-3.8749,0.0443,0.9882,1086.18,-1359.31,1251.89
16540,-3.8749,0.0470,0.9854,1679.93,-1515.56,1064.39
16550,-3.8749,0.0463,0.9829,-1976.32,-1874.94,1017.52
16560,-3.8749,0.0442,0.9822,1929.93,1812.56,1064.39
16570,-3.8749,0.0421,0.9833,1664.31,1718.81,1283.14
16580,-3.8749,0.0387,0.9858,1398.68,1859.44,1580.02
16590,-3.8749,0.0333,0.9884,961.18,-1812.44,1783.14
16600,-3.8749,0.0287,0.9897,273.68,-1484.31,1892.52
16610,-3.8749,0.0271,0.9897,-320.07,-1312.50,1861.27
16620,-3.8749,0.0284,0.9891,-523.19,-1312.50,1626.89
16630,-3.8749,0.0311,0.9885,-351.32,-1390.62,1392.52
16640,-3.8749,0.0342,0.9877,-7.57,-1468.75,1298.77
16650,-3.8749,0.0366,0.9879,383.06,-1578.06,1267.52
16660,-3.8749,0.0396,0.9901,695.56,-1546.81,1392.52
16670,-3.8749,0.0422,0.9938,1070.56,-1265.56,1580.02
16680,-3.8749,0.0428,0.9963,1414.31,-796.81,1923.77
16690,-3.8749,0.0421,0.9974,1492.43,-468.69,-1607.48
16700,-3.8749,0.0417,0.9984,1398.68,-328.06,-1232.48
16710,-3.8749,0.0410,0.9985,1351.81,-203.06,-1060.61
16720,-3.8749,0.0394,0.9977,1258.06,-187.44,-1138.73
16730,-3.8749,0.0377,0.9968,1054.93,-296.81,-1357.48
16740,-3.8749,0.0356,0.9952,836.18,-406.19,-1591.86
16750,-3.8749,0.0333,0.9930,570.56,-609.31,-1826.23
16760,-3.8749,0.0310,0.9912,273.68,-890.56,1814.39
16770,-3.8749,0.0291,0.9900,-23.19,-1125.00,1470.64
16780,-3.8749,0.0280,0.9893,-273.19,-1281.25,1361.27
16790,-3.8749,0.0271,0.9894,-413.82,-1375.00,1470.64
16800,-3.8749,0.0262,0.9894,-523.19,-1359.38,1689.39
16810,-3.8749,0.0255,0.9901,-632.57,-1359.38,1923.77
16820,-3.8749,0.0244,0.9916,-726.32,-1265.62,-1748.11
16830,-3.8749,0.0237,0.9922,-866.94,-1078.12,-1341.86
16840,-3.8749,0.0249,0.9919,-960.69,-1000.00,-1107.48
16850,-3.8749,0.0264,0.9918,-804.44,-1031.25,-1216.86
16860,-3.8749,0.0266,0.9915,-616.94,-1046.88,-1654.36
16870,-3.8749,0.0265,0.9908,-585.69,-1093.75,1830.02
16880,-3.8749,0.0264,0.9893,-601.32,-1171.88,1345.64
16890,-3.8749,0.0262,0.9883,-616.94,-1375.00,1142.52
16900,-3.8749,0.0270,0.9905,-632.57,-1500.00,1408.14
16910,-3.8749,0.0295,0.9954,-538.82,-1218.75,1767.52
16920,-3.8749,0.0341,0.9988,-210.69,-593.75,1830.02
16930,-3.8749,0.0378,0.9958,367.43,-156.19,1689.39
16940,-3.8749,0.0376,0.9894,851.81,-531.19,1595.64
16950,-3.8749,0.0353,0.9843,820.56,-1359.31,1626.89
16960,-3.8749,0.0355,0.9824,523.68,1984.44,1517.52
16970,-3.8749,0.0402,0.9835,554.93,1750.06,1267.52
16980,-3.8749,0.0455,0.9852,1148.68,1890.69,1158.14
16990,-3.8749,0.0486,0.9856,1836.18,-1890.56,1205.02
17000,-3.8749,0.0493,0.9846,-1773.19,-1843.69,1314.39
17010,-3.8749,0.0481,0.9830,-1679.44,-1968.69,1361.27
17020,-3.8749,0.0441,0.9823,-1835.69,1828.19,1392.52
17030,-3.8749,0.0367,0.9839,1648.68,1734.44,1423.77
17040,-3.8749,0.0281,0.9878,711.18,1937.56,1486.27
17050,-3.8749,0.0203,0.9922,-398.19,-1562.50,1689.39
17060,-3.8749,0.0143,0.9955,-1398.19,-1000.00,1955.02
17070,-3.8749,0.0104,0.9974,1836.18,-578.12,-1716.86
17080,-3.8749,0.0098,0.9991,1336.18,-328.12,-1466.86
17090,-3.8749,0.0127,1.0005,1258.06,-109.38,-1294.98
17100,-3.8749,0.0166,1.0004,1633.06,62.50,-1248.05
17110,-3.8749,0.0187,0.9984,-1866.94,46.88,-1216.80
17120,-3.8749,0.0195,0.9961,-1601.32,-203.12,-1013.73
17130,-3.8749,0.0211,0.9948,-1491.94,-500.00,-716.86
17140,-3.8749,0.0244,0.9957,-1288.82,-671.88,-513.73
17150,-3.8749,0.0287,0.9985,-866.94,-546.88,-529.36
17160,-3.8749,0.0338,0.9996,-320.07,-187.50,-810.61
17170,-3.8749,0.0393,0.9982,336.18,-46.81,-1107.48
17180,-3.8749,0.0436,0.9951,1039.31,-234.31,-1279.36
17190,-3.8749,0.0468,0.9923,1586.18,-624.94,-1498.11
17200,-3.8749,0.0487,0.9896,1992.43,-984.31,-1873.11
17210,-3.8749,0.0494,0.9869,-1757.57,-1328.06,1673.77
17220,-3.8749,0.0485,0.9855,-1663.82,-1671.81,1205.02
17230,-3.8749,0.0464,0.9846,-1788.82,-1859.31,923.77
17240,-3.8749,0.0441,0.9844,1945.56,-1968.69,1142.52
17250,-3.8749,0.0422,0.9852,1648.68,-1999.94,1580.02
17260,-3.8749,0.0411,0.9865,1414.31,-1890.56,1720.64
17270,-3.8749,0.0385,0.9872,1273.68,-1734.31,1673.77
17280,-3.8749,0.0339,0.9885,929.93,-1640.56,1658.14
17290,-3.8749,0.0284,0.9905,351.81,-1468.69,1767.52
17300,-3.8749,0.0221,0.9919,-351.32,-1218.75,-1982.48
17310,-3.8749,0.0161,0.9932,-1163.82,-1031.25,-1794.98
17320,-3.8749,0.0121,0.9946,-1929.44,-875.00,-1732.48
17330,-3.8749,0.0120,0.9960,1554.93,-687.50,-1638.73
17340,-3.8749,0.0161,0.9960,1539.31,-515.62,-1576.23
17350,-3.8749,0.0237,0.9944,-1929.44,-515.62,-1544.98
17360,-3.8749,0.0325,0.9927,-960.69,-718.75,-1560.61
17370,-3.8749,0.0386,0.9915,164.31,-937.44,-1638.73
17380,-3.8749,0.0417,0.9904,945.56,-1093.69,-1716.86
17390,-3.8749,0.0430,0.9901,1351.81,-1234.31,-1763.73
17400,-3.8749,0.0421,0.9906,1508.06,-1265.56,-1810.61
17410,-3.8749,0.0399,0.9905,1398.68,-1203.06,-1888.73
17420,-3.8749,0.0380,0.9893,1117.43,-1218.69,1908.14
17430,-3.8749,0.0365,0.9884,867.43,-1374.94,1798.77
17440,-3.8749,0.0353,0.9886,679.93,-1484.31,1892.52
17450,-3.8749,0.0356,0.9901,523.68,-1453.06,1955.02
17460,-3.8749,0.0367,0.9915,570.56,-1265.56,1861.27
17470,-3.8749,0.0365,0.9916,711.18,-1093.69,1736.27
17480,-3.8749,0.0349,0.9919,679.93,-1078.06,1626.89
17490,-3.8749,0.0341,0.9932,476.81,-1031.19,1501.89
17500,-3.8749,0.0348,0.9938,367.43,-874.94,1330.02
17510,-3.8749,0.0360,0.9932,461.18,-796.81,1361.27
17520,-3.8749,0.0366,0.9921,617.43,-874.94,1705.02
17530,-3.8749,0.0371,0.9923,695.56,-1015.56,-1779.36
17540,-3.8749,0.0374,0.9940,758.06,-984.31,-1263.73
17550,-3.8749,0.0376,0.9961,789.31,-765.56,-982.48
17560,-3.8749,0.0372,0.9957,820.56,-499.94,-1091.86
17570,-3.8749,0.0356,0.9932,773.68,-546.81,-1326.23
17580,-3.8749,0.0328,0.9910,570.56,-874.94,-1482.48
17590,-3.8749,0.0292,0.9897,211.18,-1156.19,-1638.73
17600,-3.8749,0.0267,0.9889,-257.57,-1312.50,-1951.23
17610,-3.8749,0.0265,0.9880,-570.07,-1421.88,1580.02
17620,-3.8749,0.0267,0.9882,-601.32,-1531.25,1298.77
17630,-3.8749,0.0272,0.9896,-570.07,-1515.62,1345.64
17640,-3.8749,0.0286,0.9918,-507.57,-1328.12,1705.02
17650,-3.8749,0.0303,0.9948,-335.69,-1046.88,-1935.61
17660,-3.8749,0.0312,0.9957,-116.94,-671.88,-1935.61
17670,-3.8749,0.0316,0.9928,8.06,-546.81,1720.64
17680,-3.8749,0.0312,0.9877,54.93,-921.81,1345.64
17690,-3.8749,0.0302,0.9845,8.06,-1578.06,1267.52
17700,-3.8749,0.0297,0.9847,-132.57,-1984.38,1470.64
17710,-3.8749,0.0311,0.9869,-195.07,-1953.12,1611.27
17720,-3.8749,0.0349,0.9900,-7.57,-1671.88,1673.77
17730,-3.8749,0.0400,0.9916,476.81,-1281.19,1736.27
17740,-3.8749,0.0438,0.9912,1133.06,-1078.06,1830.02
17750,-3.8749,0.0442,0.9905,1617.43,-1124.94,1986.27
17760,-3.8749,0.0405,0.9908,1664.31,-1218.69,-1763.73
17770,-3.8749,0.0360,0.9912,1195.56,-1171.81,-1638.73
17780,-3.8749,0.0326,0.9911,617.43,-1124.94,-1685.61
17790,-3.8749,0.0297,0.9907,179.93,-1140.56,-1779.36
17800,-3.8749,0.0280,0.9896,-195.07,-1187.50,-1904.36
17810,-3.8749,0.0281,0.9890,-413.82,-1328.12,1923.77
17820,-3.8749,0.0298,0.9886,-398.19,-1406.25,1689.39
17830,-3.8749,0.0315,0.9895,-179.44,-1453.12,1439.39
17840,-3.8749,0.0320,0.9910,39.31,-1343.69,1205.02
17850,-3.8749,0.0328,0.9906,101.81,-1156.19,1236.27
17860,-3.8749,0.0345,0.9884,211.18,-1203.06,1548.77
17870,-3.8749,0.0369,0.9866,429.93,-1484.31,1830.02
17880,-3.8749,0.0397,0.9868,726.81,-1718.69,1986.27
17890,-3.8749,0.0420,0.9895,1086.18,-1687.44,-1904.36
17900,-3.8749,0.0441,0.9919,1383.06,-1343.69,-1935.61
17910,-3.8749,0.0444,0.9917,1648.68,-1031.19,1908.14
17920,-3.8749,0.0426,0.9905,1695.56,-1062.44,1783.14
17930,-3.8749,0.0425,0.9900,1461.18,-1218.69,1720.64
17940,-3.8749,0.0450,0.9896,1445.56,-1281.19,1705.02
17950,-3.8749,0.0468,0.9893,1773.68,-1328.06,1611.27
17960,-3.8749,0.0464,0.9890,1992.43,-1374.94,1392.52
17970,-3.8749,0.0450,0.9890,1945.56,-1406.19,1158.14
17980,-3.8749,0.0447,0.9884,1773.68,-1406.19,1142.52
17990,-3.8749,0.0437,0.9882,1726.81,-1484.31,1330.02
18000,-3.8749,0.0403,0.9888,1601.81,-1515.56,1673.77
18010,-3.8749,0.0352,0.9899,1164.31,-1437.44,-1998.11
18020,-3.8749,0.0305,0.9905,508.06,-1296.81,-1857.48
18030,-3.8749,0.0275,0.9904,-85.69,-1218.75,-1826.23
18040,-3.8749,0.0254,0.9911,-476.32,-1234.38,-1794.98
18050,-3.8749,0.0245,0.9935,-741.94,-1140.62,-1779.36
18060,-3.8749,0.0251,0.9955,-851.32,-828.12,-1732.48
18070,-3.8749,0.0261,0.9957,-773.19,-578.12,-1732.48
18080,-3.8749,0.0267,0.9949,-648.19,-546.88,-1888.73
18090,-3.8749,0.0273,0.9927,-570.07,-656.25,1986.27
18100,-3.8749,0.0282,0.9901,-491.94,-937.50,1876.89
18110,-3.8749,0.0295,0.9890,-382.57,-1265.62,1814.39
18120,-3.8749,0.0309,0.9900,-210.69,-1406.25,1830.02
18130,-3.8749,0.0326,0.9926,-38.82,-1281.25,1955.02
18140,-3.8749,0.0343,0.9955,179.93,-953.06,-1732.48
18150,-3.8749,0.0356,0.9967,398.68,-578.06,-1638.73
18160,-3.8749,0.0365,0.9950,570.56,-421.81,-1810.61
18170,-3.8749,0.0377,0.9921,679.93,-640.56,1986.27
18180,-3.8749,0.0382,0.9901,836.18,-1015.56,1705.02
18190,-3.8749,0.0375,0.9899,898.68,-1265.56,1455.02
18200,-3.8749,0.0363,0.9910,804.93,-1296.81,1376.89
18210,-3.8749,0.0343,0.9927,648.68,-1156.19,1376.89
18220,-3.8749,0.0325,0.9940,398.68,-937.44,1376.89
18230,-3.8749,0.0311,0.9954,164.31,-765.56,1392.52
18240,-3.8749,0.0306,0.9967,-7.57,-593.75,1595.64
18250,-3.8749,0.0314,0.9971,-70.07,-421.88,1798.77
18260,-3.8749,0.0325,0.9962,23.68,-374.94,1876.89
18270,-3.8749,0.0325,0.9927,164.31,-484.31,1939.39
18280,-3.8749,0.0322,0.9890,164.31,-937.44,1986.27
18290,-3.8749,0.0327,0.9880,133.06,-1406.19,-1904.36
18300,-3.8749,0.0338,0.9896,195.56,-1531.19,-1763.73
18310,-3.8749,0.0350,0.9926,336.18,-1328.06,-1763.73
18320,-3.8749,0.0360,0.9952,492.43,-953.06,-1857.48
18330,-3.8749,0.0366,0.9978,617.43,-609.31,-1841.86
18340,-3.8749,0.0367,1.0002,695.56,-281.19,-1810.61
18350,-3.8749,0.0349,1.0007,711.18,31.31,1986.33
18360,-3.8749,0.0314,0.9982,476.81,93.81,1564.45
18370,-3.8749,0.0280,0.9932,23.68,-234.31,1220.64
18380,-3.8749,0.0260,0.9883,-413.82,-875.00,1314.39
18390,-3.8749,0.0259,0.9860,-663.82,-1500.00,1564.39
18400,-3.8749,0.0276,0.9858,-679.44,-1796.88,1736.27
18410,-3.8749,0.0308,0.9868,-460.69,-1812.50,1861.27
18420,-3.8749,0.0344,0.9873,-54.44,-1687.50,1845.64
18430,-3.8749,0.0383,0.9851,414.31,-1624.94,1861.27
18440,-3.8749,0.0410,0.9817,914.31,-1906.19,-1841.86
18450,-3.8749,0.0414,0.9799,1258.06,1656.31,-1466.86
18460,-3.8749,0.0409,0.9800,1304.93,1421.94,-1294.98
18470,-3.8749,0.0413,0.9819,1242.43,1437.56,-1357.48
18480,-3.8749,0.0416,0.9836,1289.31,1687.56,-1451.23
18490,-3.8749,0.0405,0.9847,1336.18,1906.31,-1576.23
18500,-3.8749,0.0378,0.9847,1195.56,-1953.06,-1826.23
18510,-3.8749,0.0344,0.9845,851.81,-1953.06,1892.52
18520,-3.8749,0.0312,0.9878,414.31,-1984.31,1548.77
18530,-3.8749,0.0281,0.9948,8.06,-1562.44,1283.14
18540,-3.8749,0.0251,1.0018,-398.19,-671.88,1189.39
18550,-3.8749,0.0233,1.0065,-773.19,234.38,1080.08
18560,-3.8749,0.0234,1.0068,-1007.57,828.12,1048.83
18570,-3.8749,0.0261,1.0034,-991.94,875.00,1267.58
18580,-3.8749,0.0302,0.9989,-648.19,437.50,1455.08
18590,-3.8749,0.0353,0.9957,-132.57,-140.62,1376.89
18600,-3.8749,0.0399,0.9937,523.68,-546.81,1111.27
18610,-3.8749,0.0421,0.9904,1117.43,-812.44,908.14
18620,-3.8749,0.0431,0.9877,1398.68,-1234.31,923.77
18630,-3.8749,0.0433,0.9874,1523.68,-1578.06,1064.39
18640,-3.8749,0.0436,0.9889,1554.93,-1609.31,1283.14
18650,-3.8749,0.0444,0.9904,1586.18,-1421.81,1439.39
18660,-3.8749,0.0457,0.9905,1695.56,-1234.31,1533.14
18670,-3.8749,0.0455,0.9895,1851.81,-1218.69,1580.02
18680,-3.8749,0.0436,0.9873,1836.18,-1343.69,1548.77
18690,-3.8749,0.0403,0.9852,1586.18,-1624.94,1439.39
18700,-3.8749,0.0359,0.9845,1164.31,-1890.56,1314.39
18710,-3.8749,0.0305,0.9854,601.81,-1984.31,1220.64
18720,-3.8749,0.0258,0.9868,-85.69,-1875.00,1126.89
18730,-3.8749,0.0219,0.9889,-695.07,-1687.50,1111.27
18740,-3.8749,0.0190,0.9913,-1195.07,-1421.88,1173.77
18750,-3.8749,0.0186,0.9929,-1554.44,-1109.38,1267.52
18760,-3.8749,0.0197,0.9940,-1616.94,-906.25,1267.52
18770,-3.8749,0.0208,0.9956,-1476.32,-765.62,1158.14
18780,-3.8749,0.0216,0.9962,-1335.69,-562.50,1048.77
18790,-3.8749,0.0239,0.9950,-1226.32,-484.38,955.02
18800,-3.8749,0.0280,0.9933,-929.44,-640.62,845.64
18810,-3.8749,0.0332,0.9922,-413.82,-859.38,783.14
18820,-3.8749,0.0393,0.9930,258.06,-999.94,876.89
18830,-3.8749,0.0448,0.9952,1039.31,-890.56,1064.39
18840,-3.8749,0.0507,0.9967,1742.43,-609.31,1220.64
18850,-3.8749,0.0564,0.9958,-1507.57,-421.81,1251.89
18860,-3.8749,0.0609,0.9932,-773.19,-531.19,1220.64
18870,-3.8749,0.0641,0.9894,-195.07,-874.94,1158.14
18880,-3.8749,0.0657,0.9857,211.18,-1359.25,1095.64
18890,-3.8749,0.0662,0.9838,414.31,-1828.00,923.77
18900,-3.8749,0.0635,0.9835,476.81,1922.00,658.14
18910,-3.8749,0.0579,0.9840,133.06,1890.75,486.27
18920,-3.8749,0.0524,0.9845,-585.69,1953.19,486.27
18930,-3.8749,0.0477,0.9852,-1288.82,-1984.31,689.39
18940,-3.8749,0.0419,0.9869,-1882.57,-1890.56,939.39
18950,-3.8749,0.0342,0.9890,1367.43,-1671.81,1189.39
18960,-3.8749,0.0280,0.9902,383.06,-1406.19,1408.14
18970,-3.8749,0.0240,0.9905,-413.82,-1250.00,1626.89
18980,-3.8749,0.0209,0.9902,-913.82,-1218.75,1814.39
18990,-3.8749,0.0197,0.9907,-1320.07,-1250.00,1955.02
19000,-3.8749,0.0214,0.9919,-1476.32,-1187.50,-1966.86
19010,-3.8749,0.0233,0.9929,-1257.57,-1031.25,-1826.23
19020,-3.8749,0.0239,0.9950,-1007.57,-906.25,-1669.98
19030,-3.8749,0.0242,0.9969,-929.44,-640.62,-1779.36
19040,-3.8749,0.0243,0.9969,-898.19,-390.62,-1966.86
19050,-3.8749,0.0244,0.9962,-882.57,-390.62,1970.64
19060,-3.8749,0.0256,0.9962,-866.94,-484.38,1955.02
19070,-3.8749,0.0280,0.9966,-710.69,-484.38,1908.14
19080,-3.8749,0.0310,0.9973,-413.82,-437.50,1923.77
19090,-3.8749,0.0337,0.9982,-23.19,-343.75,1970.64
19100,-3.8749,0.0363,0.9979,320.56,-234.31,1783.14
19110,-3.8749,0.0381,0.9951,648.68,-265.56,1330.02
19120,-3.8749,0.0381,0.9905,883.06,-624.94,892.52
19130,-3.8749,0.0361,0.9850,883.06,-1218.69,642.52
19140,-3.8749,0.0345,0.9808,633.06,-1921.81,595.64
19150,-3.8749,0.0356,0.9802,429.93,1546.94,611.27
19160,-3.8749,0.0397,0.9814,570.56,1468.81,642.52
19170,-3.8749,0.0439,0.9825,1086.18,1625.06,783.14
19180,-3.8749,0.0477,0.9817,1633.06,1765.69,876.89
19190,-3.8749,0.0521,0.9810,-1882.57,1656.31,783.14
19200,-3.8749,0.0568,0.9814,-1320.07,1562.56,548.77
19210,-3.8749,0.0592,0.9818,-726.32,1625.06,205.02
19220,-3.8750,0.0581,0.9813,-413.82,1671.94,-107.48
19230,-3.8750,0.0544,0.9807,-554.44,1609.44,-263.73
19240,-3.8750,0.0494,0.9819,-1023.19,1531.31,-310.61
19250,-3.8750,0.0448,0.9854,-1663.82,1687.56,-29.36
19260,-3.8749,0.0421,0.9889,1742.43,-1874.94,564.39
19270,-3.8749,0.0406,0.9935,1398.68,-1421.81,1142.52
19280,-3.8749,0.0385,0.9987,1211.18,-828.06,1673.77
19290,-3.8749,0.0360,1.0006,929.93,-171.81,-1794.98
19300,-3.8749,0.0330,0.9993,617.43,78.19,-1310.55
19310,-3.8749,0.0289,0.9973,226.81,-93.69,-1013.73
19320,-3.8749,0.0250,0.9983,-288.82,-343.75,-810.61
19330,-3.8749,0.0232,1.0015,-788.82,-218.75,-638.73
19340,-3.8749,0.0237,1.0051,-1023.19,187.50,-654.30
19350,-3.8749,0.0248,1.0071,-960.69,656.25,-919.92
19360,-3.8749,0.0260,1.0054,-820.07,906.25,-1466.80
19370,-3.8749,0.0265,1.0002,-663.82,687.50,-1998.05
19380,-3.8749,0.0262,0.9946,-601.32,31.25,1689.45
19390,-3.8749,0.0254,0.9915,-632.57,-687.50,1392.52
19400,-3.8749,0.0248,0.9900,-741.94,-1093.75,1142.52
19410,-3.8749,0.0255,0.9891,-820.07,-1281.25,908.14
19420,-3.8749,0.0282,0.9890,-726.32,-1390.62,783.14
19430,-3.8749,0.0315,0.9902,-382.57,-1406.25,767.52
19440,-3.8749,0.0339,0.9916,39.31,-1249.94,798.77
19450,-3.8749,0.0345,0.9922,351.81,-1078.06,892.52
19460,-3.8749,0.0336,0.9933,429.93,-999.94,1064.39
19470,-3.8749,0.0315,0.9955,304.93,-859.31,1251.89
19480,-3.8749,0.0277,0.9967,39.31,-578.06,1486.27
19490,-3.8749,0.0227,0.9960,-445.07,-421.88,1767.52
19500,-3.8749,0.0195,0.9943,-1085.69,-515.62,1923.77
19510,-3.8749,0.0194,0.9924,-1491.94,-734.38,-1919.98
19520,-3.8749,0.0206,0.9916,-1507.57,-968.75,-1732.48
19530,-3.8749,0.0214,0.9917,-1351.32,-1078.12,-1748.11
19540,-3.8749,0.0214,0.9918,-1257.57,-1062.50,-1982.48
19550,-3.8749,0.0217,0.9915,-1257.57,-1046.88,1705.02
19560,-3.8749,0.0233,0.9896,-1210.69,-1093.75,1345.64
19570,-3.8749,0.0249,0.9875,-1007.57,-1328.12,923.77
19580,-3.8749,0.0269,0.9872,-804.44,-1593.75,611.27
19590,-3.8749,0.0298,0.9882,-554.44,-1640.62,658.14
19600,-3.8749,0.0327,0.9894,-179.44,-1515.62,955.02
19610,-3.8749,0.0350,0.9904,195.56,-1359.31,1236.27
19620,-3.8749,0.0356,0.9908,492.43,-1234.31,1408.14
19630,-3.8749,0.0349,0.9907,570.56,-1171.81,1408.14
19640,-3.8749,0.0348,0.9902,476.81,-1187.44,1283.14
19650,-3.8749,0.0347,0.9891,461.18,-1249.94,1189.39
19660,-3.8749,0.0344,0.9889,445.56,-1390.56,1033.14
19670,-3.8749,0.0345,0.9904,414.31,-1421.81,876.89
19680,-3.8749,0.0350,0.9926,429.93,-1234.31,892.52
19690,-3.8749,0.0355,0.9946,492.43,-953.06,1048.77
19700,-3.8749,0.0355,0.9958,554.93,-687.44,1251.89
19710,-3.8749,0.0356,0.9952,554.93,-531.19,1408.14
19720,-3.8749,0.0349,0.9928,570.56,-609.31,1626.89
19730,-3.8749,0.0331,0.9904,476.81,-921.81,1939.39
19740,-3.8749,0.0312,0.9900,242.43,-1234.31,-1779.36
19750,-3.8749,0.0303,0.9929,8.06,-1281.19,-1498.11
19760,-3.8749,0.0312,0.9968,-116.94,-906.25,-1341.86
19770,-3.8749,0.0332,0.9982,8.06,-406.19,-1498.11
19780,-3.8749,0.0339,0.9957,258.06,-234.31,-1998.11
19790,-3.8749,0.0326,0.9910,351.81,-546.81,1439.39
19800,-3.8749,0.0308,0.9872,179.93,-1156.19,1189.39
19810,-3.8749,0.0298,0.9863,-54.44,-1640.62,1111.27
19820,-3.8749,0.0304,0.9877,-179.44,-1750.00,1205.02
19830,-3.8749,0.0320,0.9895,-101.32,-1578.12,1548.77
19840,-3.8749,0.0334,0.9901,101.81,-1343.69,1814.39
19850,-3.8749,0.0334,0.9889,289.31,-1265.56,1830.02
19860,-3.8749,0.0311,0.9871,289.31,-1421.81,1705.02
19870,-3.8749,0.0269,0.9863,-7.57,-1656.25,1470.64
19880,-3.8749,0.0223,0.9875,-554.44,-1750.00,1361.27
19890,-3.8749,0.0192,0.9894,-1132.57,-1593.75,1345.64
19900,-3.8749,0.0167,0.9912,-1538.82,-1359.38,1298.77
19910,-3.8749,0.0156,0.9939,-1851.32,-1125.00,1408.14
19920,-3.8749,0.0164,0.9972,-1991.94,-781.25,1720.64
19930,-3.8749,0.0181,0.9989,-1898.19,-359.38,-1935.61
19940,-3.8749,0.0205,0.9987,-1679.44,-140.62,-1748.11
19950,-3.8749,0.0221,0.9965,-1366.94,-171.88,-1794.98
19960,-3.8749,0.0231,0.9924,-1163.82,-453.12,1986.27
19970,-3.8749,0.0247,0.9882,-1038.82,-968.75,1798.77
19980,-3.8749,0.0277,0.9854,-835.69,-1515.62,1642.52
19990,-3.8749,0.0325,0.9854,-445.07,-1875.00,1376.89
20000,-3.8749,0.0381,0.9858,164.31,-1874.94,955.02
20010,-3.8749,0.0430,0.9854,883.06,-1812.44,595.64
20020,-3.8749,0.0442,0.9855,1508.06,-1874.94,689.39
20030,-3.8749,0.0411,0.9875,1664.31,-1859.31,1001.89
20040,-3.8749,0.0365,0.9900,1273.68,-1593.69,1236.27
20050,-3.8749,0.0326,0.9910,679.93,-1281.19,1439.39
20060,-3.8749,0.0303,0.9910,179.93,-1156.19,1642.52
20070,-3.8749,0.0294,0.9906,-116.94,-1156.25,1814.39
20080,-3.8749,0.0294,0.9905,-226.32,-1203.12,1955.02
20090,-3.8749,0.0293,0.9907,-226.32,-1218.75,1970.64
20100,-3.8749,0.0278,0.9911,-241.94,-1187.50,1814.39
20110,-3.8749,0.0264,0.9913,-429.44,-1140.62,1533.14
20120,-3.8749,0.0258,0.9922,-616.94,-1109.38,1455.02
20130,-3.8749,0.0243,0.9933,-695.07,-1000.00,1533.14
20140,-3.8749,0.0215,0.9946,-882.57,-859.38,1705.02
20150,-3.8749,0.0190,0.9962,-1241.94,-687.50,1908.14
20160,-3.8749,0.0181,0.9963,-1554.44,-484.38,-1998.11
20170,-3.8749,0.0189,0.9950,-1679.44,-468.75,-1904.36
20180,-3.8749,0.0195,0.9928,-1570.07,-640.62,-1654.36
20190,-3.8749,0.0200,0.9911,-1491.94,-921.88,-1419.98
20200,-3.8749,0.0215,0.9919,-1429.44,-1140.62,-1435.61
20210,-3.8749,0.0239,0.9944,-1241.94,-1031.25,-1701.23
20220,-3.8749,0.0267,0.9960,-929.44,-718.75,-1982.48
20230,-3.8749,0.0297,0.9949,-570.07,-515.62,1767.52
20240,-3.8749,0.0320,0.9926,-195.07,-656.25,1564.39
20250,-3.8749,0.0330,0.9904,101.81,-953.06,1455.02
20260,-3.8749,0.0333,0.9882,226.81,-1234.31,1220.64
20270,-3.8749,0.0334,0.9877,273.68,-1515.56,970.64
20280,-3.8749,0.0316,0.9889,289.31,-1578.06,1080.02
20290,-3.8749,0.0289,0.9900,54.93,-1421.81,1423.77
20300,-3.8749,0.0271,0.9904,-288.82,-1281.25,1642.52
20310,-3.8749,0.0255,0.9899,-523.19,-1234.38,1720.64
20320,-3.8749,0.0243,0.9896,-726.32,-1296.88,1720.64
20330,-3.8749,0.0236,0.9907,-882.57,-1328.12,1658.14
20340,-3.8749,0.0226,0.9921,-976.32,-1187.50,1611.27
20350,-3.8749,0.0219,0.9930,-1101.32,-1015.62,1595.64
20360,-3.8749,0.0201,0.9932,-1195.07,-890.62,1595.64
20370,-3.8749,0.0170,0.9919,-1413.82,-875.00,1517.52
20380,-3.8749,0.0155,0.9906,-1820.07,-1031.25,1548.77
20390,-3.8749,0.0168,0.9904,1992.43,-1203.12,1736.27
20400,-3.8749,0.0189,0.9916,-1835.69,-1234.38,1923.77
20410,-3.8749,0.0214,0.9927,-1570.07,-1078.12,-1919.98
20420,-3.8749,0.0239,0.9930,-1257.57,-937.50,-1919.98
20430,-3.8749,0.0262,0.9934,-929.44,-890.62,1908.14
20440,-3.8749,0.0270,0.9934,-632.57,-843.75,1658.14
20450,-3.8749,0.0262,0.9924,-538.82,-843.75,1423.77
20460,-3.8749,0.0248,0.9906,-632.57,-968.75,1298.77
20470,-3.8749,0.0234,0.9886,-820.07,-1203.12,1283.14
20480,-3.8749,0.0228,0.9893,-991.94,-1453.12,1470.64
20490,-3.8749,0.0237,0.9941,-1070.07,-1375.00,1751.89
20500,-3.8749,0.0264,0.9993,-960.69,-750.00,1814.39
20510,-3.8749,0.0282,0.9993,-616.94,-93.75,1580.02
20520,-3.8749,0.0281,0.9932,-382.57,-93.75,1345.64
20530,-3.8749,0.0281,0.9872,-398.19,-875.00,1330.02
20540,-3.8749,0.0294,0.9847,-398.19,-1640.62,1314.39
20550,-3.8749,0.0316,0.9854,-226.32,-1953.12,1189.39
20560,-3.8749,0.0347,0.9877,54.93,-1874.94,1220.64
20570,-3.8749,0.0361,0.9890,445.56,-1578.06,1345.64
20580,-3.8749,0.0358,0.9886,633.06,-1406.19,1423.77
20590,-3.8749,0.0352,0.9875,586.18,-1453.06,1517.52
20600,-3.8749,0.0344,0.9877,508.06,-1593.69,1595.64
20610,-3.8749,0.0332,0.9906,414.31,-1578.06,1658.14
20620,-3.8749,0.0306,0.9934,258.06,-1203.06,1705.02
20630,-3.8749,0.0269,0.9957,-70.07,-843.75,1923.77
20640,-3.8749,0.0229,0.9974,-554.44,-546.88,-1763.73
20650,-3.8749,0.0209,0.9980,-1054.44,-328.12,-1623.11
20660,-3.8749,0.0205,0.9983,-1320.07,-250.00,-1576.23
20670,-3.8749,0.0215,0.9976,-1366.94,-218.75,-1529.36
20680,-3.8749,0.0239,0.9954,-1241.94,-312.50,-1669.98
20690,-3.8749,0.0269,0.9927,-929.44,-593.75,-1873.11
20700,-3.8749,0.0300,0.9907,-554.44,-937.50,1892.52
20710,-3.8749,0.0332,0.9885,-148.19,-1187.50,1470.64
20720,-3.8749,0.0352,0.9866,258.06,-1468.69,1033.14
20730,-3.8749,0.0365,0.9851,508.06,-1718.69,736.27
20740,-3.8749,0.0382,0.9836,679.93,-1906.19,626.89
20750,-3.8749,0.0400,0.9829,898.68,1906.31,642.52
20760,-3.8749,0.0405,0.9828,1133.06,1812.56,626.89
20770,-3.8749,0.0399,0.9830,1195.56,1796.94,517.52
20780,-3.8749,0.0389,0.9836,1117.43,1828.19,408.14
20790,-3.8749,0.0367,0.9850,992.43,1906.31,376.89
20800,-3.8749,0.0325,0.9873,711.18,-1921.81,439.39
20810,-3.8749,0.0273,0.9895,164.31,-1624.94,611.27
20820,-3.8749,0.0238,0.9919,-491.94,-1343.75,830.02
20830,-3.8749,0.0221,0.9934,-945.07,-1031.25,1158.14
20840,-3.8749,0.0206,0.9935,-1163.82,-843.75,1533.14
20850,-3.8749,0.0198,0.9941,-1351.32,-828.12,1767.52
20860,-3.8749,0.0204,0.9940,-1460.69,-750.00,1876.89
20870,-3.8749,0.0216,0.9930,-1382.57,-765.62,-1966.86
20880,-3.8749,0.0231,0.9927,-1226.32,-890.62,-1841.86
20890,-3.8749,0.0249,0.9923,-1038.82,-937.50,-1873.11
20900,-3.8749,0.0262,0.9921,-804.44,-984.38,-1873.11
20910,-3.8749,0.0265,0.9930,-632.57,-1015.62,-1685.61
20920,-3.8749,0.0253,0.9937,-601.32,-890.62,-1451.23
20930,-3.8749,0.0233,0.9928,-757.57,-812.50,-1451.23
20940,-3.8749,0.0226,0.9919,-1007.57,-921.88,-1560.61
20950,-3.8749,0.0234,0.9918,-1101.32,-1031.25,-1669.98
20960,-3.8749,0.0251,0.9917,-991.94,-1046.88,-1716.86
20970,-3.8749,0.0275,0.9910,-773.19,-1062.50,-1857.48
20980,-3.8749,0.0302,0.9888,-476.32,-1156.25,1830.02
20990,-3.8749,0.0328,0.9866,-132.57,-1437.50,1486.27
21000,-3.8749,0.0349,0.9860,211.18,-1718.69,1111.27
21010,-3.8749,0.0350,0.9865,476.81,-1796.81,751.89
21020,-3.8749,0.0337,0.9882,492.43,-1734.31,580.02
21030,-3.8749,0.0331,0.9904,320.56,-1515.56,580.02
21040,-3.8749,0.0336,0.9926,242.43,-1234.31,720.64
21050,-3.8749,0.0343,0.9945,304.93,-953.06,1080.02
21060,-3.8749,0.0348,0.9966,398.68,-703.06,1486.27
21070,-3.8749,0.0339,0.9973,461.18,-437.44,1845.64
21080,-3.8749,0.0319,0.9968,351.81,-343.69,-1904.36
21090,-3.8749,0.0299,0.9956,86.18,-406.19,-1888.73
21100,-3.8749,0.0276,0.9940,-163.82,-562.50,-1982.48
21110,-3.8749,0.0255,0.9932,-460.69,-765.62,1798.77
21120,-3.8749,0.0245,0.9922,-726.32,-875.00,1533.14
21130,-3.8749,0.0255,0.9908,-851.32,-1000.00,1501.89
21140,-3.8749,0.0276,0.9912,-726.32,-1171.88,1642.52
21150,-3.8749,0.0299,0.9928,-460.69,-1125.00,1751.89
21160,-3.8749,0.0316,0.9930,-163.82,-921.88,1830.02
21170,-3.8749,0.0310,0.9922,54.93,-890.56,1876.89
21180,-3.8749,0.0289,0.9912,-23.19,-1000.00,1830.02
21190,-3.8749,0.0261,0.9910,-288.82,-1125.00,1658.14
21200,-3.8749,0.0234,0.9917,-648.19,-1156.25,1517.52
21210,-3.8749,0.0219,0.9926,-991.94,-1062.50,1392.52
21220,-3.8749,0.0220,0.9935,-1195.07,-953.12,1189.39
21230,-3.8749,0.0225,0.9950,-1179.44,-828.12,986.27
21240,-3.8749,0.0212,0.9957,-1116.94,-640.62,908.14
21250,-3.8749,0.0208,0.9950,-1273.19,-546.88,1111.27
21260,-3.8749,0.0223,0.9944,-1335.69,-640.62,1501.89
21270,-3.8749,0.0247,0.9945,-1132.57,-718.75,1814.39
21280,-3.8749,0.0266,0.9945,-835.69,-703.12,1955.02
21290,-3.8749,0.0275,0.9927,-585.69,-703.12,1923.77
21300,-3.8749,0.0266,0.9904,-476.32,-937.50,1970.64
21310,-3.8749,0.0249,0.9900,-585.69,-1234.38,-1935.61
21320,-3.8749,0.0259,0.9902,-804.44,-1281.25,1923.77
21330,-3.8749,0.0292,0.9889,-679.44,-1250.00,1626.89
21340,-3.8749,0.0320,0.9860,-257.57,-1421.88,1345.64
21350,-3.8749,0.0328,0.9838,101.81,-1796.81,1126.89
21360,-3.8749,0.0320,0.9838,211.18,1921.94,892.52
21370,-3.8749,0.0304,0.9850,101.81,1921.94,673.77
21380,-3.8749,0.0280,0.9868,-101.32,-1921.88,517.52
21390,-3.8749,0.0244,0.9895,-413.82,-1687.50,501.89
21400,-3.8749,0.0209,0.9928,-866.94,-1343.75,736.27
21410,-3.8749,0.0194,0.9957,-1320.07,-921.88,1033.14
21420,-3.8749,0.0194,0.9982,-1507.57,-546.88,1314.39
21430,-3.8749,0.0200,0.9999,-1507.57,-234.38,1751.89
21440,-3.8749,0.0220,1.0004,-1429.44,-15.62,-1716.86
21450,-3.8749,0.0243,1.0009,-1179.44,46.88,-1341.80
21460,-3.8749,0.0255,1.0015,-882.57,109.38,-1248.05
21470,-3.8749,0.0255,1.0009,-726.32,187.50,-1294.92
21480,-3.8749,0.0261,0.9993,-726.32,109.38,-1388.67
21490,-3.8749,0.0291,0.9973,-648.19,-93.75,-1763.73
21500,-3.8749,0.0328,0.9934,-273.19,-343.75,1611.27
21510,-3.8749,0.0352,0.9889,211.18,-843.69,1111.27
21520,-3.8749,0.0354,0.9861,508.06,-1421.81,798.77
21530,-3.8749,0.0347,0.9841,539.31,-1781.19,595.64
21540,-3.8749,0.0343,0.9836,445.56,1968.81,564.39
21550,-3.8749,0.0332,0.9860,398.68,1906.31,626.89
21560,-3.8749,0.0319,0.9888,258.06,-1796.81,736.27
21570,-3.8749,0.0311,0.9896,86.18,-1437.44,908.14
21580,-3.8749,0.0311,0.9899,-7.57,-1328.12,1251.89
21590,-3.8749,0.0316,0.9901,-7.57,-1296.88,1798.77
21600,-3.8749,0.0315,0.9894,54.93,-1265.56,-1732.48
21610,-3.8749,0.0302,0.9895,39.31,-1359.31,-1482.48
21620,-3.8749,0.0277,0.9908,-132.57,-1343.75,-1482.48
21630,-3.8749,0.0250,0.9921,-445.07,-1171.88,-1748.11
21640,-3.8749,0.0227,0.9921,-788.82,-1015.62,1830.02
21650,-3.8749,0.0216,0.9895,-1085.69,-1015.62,1345.64
21660,-3.8749,0.0221,0.9861,-1226.32,-1343.75,970.64
21670,-3.8749,0.0242,0.9855,-1163.82,-1781.25,830.02
21680,-3.8749,0.0282,0.9877,-898.19,-1859.38,892.52
21690,-3.8749,0.0327,0.9908,-382.57,-1578.12,1142.52
21700,-3.8749,0.0359,0.9930,195.56,-1171.81,1517.52
21710,-3.8749,0.0380,0.9943,601.81,-890.56,1767.52
21720,-3.8749,0.0394,0.9949,867.43,-734.31,1720.64
21730,-3.8749,0.0402,0.9949,1054.93,-656.19,1517.52
21740,-3.8749,0.0406,0.9948,1148.68,-656.19,1251.89
21750,-3.8749,0.0415,0.9932,1211.18,-671.81,1033.14
21760,-3.8749,0.0425,0.9912,1320.56,-874.94,1001.89
21770,-3.8749,0.0417,0.9907,1445.56,-1124.94,1064.39
21780,-3.8749,0.0383,0.9899,1351.81,-1187.44,1064.39
21790,-3.8749,0.0338,0.9885,914.31,-1296.81,1017.52
21800,-3.8749,0.0297,0.9883,336.18,-1468.69,970.64
21810,-3.8749,0.0262,0.9894,-195.07,-1500.00,814.39
21820,-3.8749,0.0245,0.9915,-632.57,-1359.38,626.89
21830,-3.8749,0.0243,0.9934,-851.32,-1093.75,548.77
21840,-3.8749,0.0244,0.9939,-882.57,-843.75,517.52
21850,-3.8749,0.0248,0.9930,-866.94,-781.25,501.89
21860,-3.8749,0.0258,0.9917,-820.07,-890.62,705.02
21870,-3.8749,0.0262,0.9907,-695.07,-1062.50,1111.27
21880,-3.8749,0.0255,0.9907,-632.57,-1187.50,1455.02
21890,-3.8749,0.0242,0.9910,-726.32,-1187.50,1595.64
21900,-3.8749,0.0233,0.9908,-898.19,-1156.25,1720.64
21910,-3.8749,0.0247,0.9908,-1007.57,-1171.88,1861.27
21920,-3.8749,0.0275,0.9905,-835.69,-1171.88,1814.39
21930,-3.8749,0.0312,0.9902,-476.32,-1218.75,1564.39
21940,-3.8749,0.0360,0.9902,8.06,-1249.94,1251.89
21950,-3.8749,0.0399,0.9897,617.43,-1249.94,1017.52
21960,-3.8749,0.0422,0.9891,1117.43,-1312.44,783.14
21970,-3.8749,0.0438,0.9900,1414.31,-1390.56,626.89
21980,-3.8749,0.0431,0.9908,1617.43,-1281.19,580.02
21990,-3.8749,0.0403,0.9912,1523.68,-1171.81,626.89
22000,-3.8749,0.0364,0.9926,1164.31,-1124.94,720.64
22010,-3.8749,0.0319,0.9929,664.31,-953.06,892.52
22020,-3.8749,0.0288,0.9917,86.18,-906.19,1126.89
22030,-3.8749,0.0283,0.9923,-304.44,-1062.50,1298.77
22040,-3.8749,0.0294,0.9954,-366.94,-984.38,1392.52
22050,-3.8749,0.0305,0.9978,-226.32,-593.75,1314.39
22060,-3.8749,0.0300,0.9972,-85.69,-281.25,1173.77
22070,-3.8749,0.0284,0.9951,-148.19,-359.38,1142.52
22080,-3.8749,0.0270,0.9927,-351.32,-625.00,1158.14
22090,-3.8749,0.0269,0.9906,-538.82,-937.50,1205.02
22100,-3.8749,0.0286,0.9885,-554.44,-1203.12,1314.39
22110,-3.8749,0.0308,0.9869,-335.69,-1468.75,1470.64
22120,-3.8749,0.0322,0.9865,-54.44,-1671.88,1517.52
22130,-3.8749,0.0326,0.9869,133.06,-1734.31,1408.14
22140,-3.8749,0.0322,0.9883,179.93,-1671.81,1220.64
22150,-3.8749,0.0315,0.9901,133.06,-1499.94,1064.39
22160,-3.8749,0.0302,0.9918,39.31,-1265.56,970.64
22170,-3.8749,0.0286,0.9938,-132.57,-1046.88,892.52
22180,-3.8749,0.0269,0.9958,-335.69,-796.88,767.52
22190,-3.8749,0.0248,0.9966,-554.44,-531.25,611.27
22200,-3.8749,0.0232,0.9940,-820.07,-437.50,517.52
22210,-3.8749,0.0226,0.9895,-1023.19,-765.62,595.64
22220,-3.8749,0.0237,0.9872,-1101.32,-1343.75,705.02
22230,-3.8749,0.0264,0.9889,-960.69,-1640.62,767.52
22240,-3.8749,0.0298,0.9928,-616.94,-1421.88,892.52
22250,-3.8749,0.0339,0.9957,-179.44,-921.88,1017.52
22260,-3.8749,0.0387,0.9966,351.81,-546.81,1173.77
22270,-3.8749,0.0431,0.9957,961.18,-437.44,1236.27
22280,-3.8749,0.0461,0.9945,1523.68,-546.81,1158.14
22290,-3.8749,0.0476,0.9924,1914.31,-703.06,955.02
22300,-3.8749,0.0471,0.9891,-1898.19,-968.69,689.39
22310,-3.8749,0.0443,0.9862,-1960.69,-1390.56,580.02
22320,-3.8749,0.0391,0.9852,1679.93,-1765.56,642.52
22330,-3.8749,0.0334,0.9855,1008.06,-1890.56,705.02
22340,-3.8749,0.0299,0.9871,289.31,-1859.31,798.77
22350,-3.8749,0.0277,0.9899,-163.82,-1656.25,736.27
22360,-3.8749,0.0248,0.9916,-445.07,-1296.88,470.64
22370,-3.8749,0.0206,0.9904,-820.07,-1078.12,283.14
22380,-3.8749,0.0182,0.9879,-1351.32,-1234.38,236.27
22390,-3.8749,0.0211,0.9874,-1663.82,-1546.88,330.02
22400,-3.8749,0.0280,0.9904,-1288.82,-1609.38,533.14
22410,-3.8749,0.0343,0.9954,-413.82,-1234.38,720.64
22420,-3.8749,0.0386,0.9977,398.68,-593.69,861.27
22430,-3.8749,0.0396,0.9955,945.56,-296.81,1080.02
22440,-3.8749,0.0374,0.9916,1070.56,-578.06,1251.89
22450,-3.8749,0.0332,0.9882,789.31,-1078.06,1173.77
22460,-3.8749,0.0286,0.9873,258.06,-1515.56,1001.89
22470,-3.8749,0.0255,0.9891,-335.69,-1625.00,876.89
22480,-3.8749,0.0243,0.9912,-726.32,-1390.62,830.02
22490,-3.8749,0.0261,0.9921,-882.57,-1125.00,845.64
22500,-3.8749,0.0304,0.9922,-648.19,-1015.62,939.39
22510,-3.8749,0.0349,0.9933,-101.32,-1000.00,1173.77
22520,-3.8749,0.0375,0.9945,476.81,-859.31,1439.39
22530,-3.8749,0.0387,0.9954,804.93,-703.06,1392.52
22540,-3.8749,0.0391,0.9952,961.18,-593.69,1111.27
22550,-3.8749,0.0378,0.9933,1008.06,-609.31,1048.77
22560,-3.8749,0.0359,0.9906,851.81,-859.31,1205.02
22570,-3.8749,0.0344,0.9897,601.81,-1203.06,1314.39
22580,-3.8749,0.0338,0.9910,414.31,-1312.44,1298.77
22590,-3.8749,0.0332,0.9922,336.18,-1156.19,1142.52
22600,-3.8749,0.0316,0.9924,258.06,-999.94,939.39
22610,-3.8749,0.0309,0.9924,54.93,-968.69,876.89
22620,-3.8749,0.0316,0.9922,-38.82,-968.75,830.02
22630,-3.8749,0.0325,0.9918,54.93,-999.94,626.89
22640,-3.8749,0.0336,0.9916,164.31,-1046.81,376.89
22650,-3.8749,0.0353,0.9921,304.93,-1078.06,267.52
22660,-3.8749,0.0369,0.9922,523.68,-1015.56,220.64
22670,-3.8749,0.0374,0.9918,726.81,-999.94,236.27
22680,-3.8749,0.0363,0.9917,789.31,-1046.81,392.52
22690,-3.8749,0.0341,0.9926,648.68,-1062.44,658.14
22700,-3.8749,0.0319,0.9935,367.43,-953.06,814.39
22710,-3.8749,0.0303,0.9930,86.18,-828.06,892.52
22720,-3.8749,0.0308,0.9926,-116.94,-890.62,892.52
22730,-3.8749,0.0325,0.9928,-54.44,-953.12,751.89
22740,-3.8749,0.0338,0.9918,164.31,-921.81,720.64
22750,-3.8749,0.0347,0.9900,336.18,-1046.81,861.27
22760,-3.8749,0.0353,0.9890,445.56,-1281.19,1048.77
22770,-3.8749,0.0355,0.9894,523.68,-1406.19,1189.39
22780,-3.8749,0.0356,0.9899,554.93,-1359.31,1189.39
22790,-3.8749,0.0363,0.9899,570.56,-1296.81,1142.52
22800,-3.8749,0.0365,0.9893,648.68,-1296.81,1001.89
22810,-3.8749,0.0364,0.9889,679.93,-1374.94,767.52
22820,-3.8749,0.0363,0.9894,664.31,-1421.81,517.52
22830,-3.8749,0.0343,0.9899,648.68,-1359.31,455.02
22840,-3.8749,0.0306,0.9902,398.68,-1296.81,548.77
22850,-3.8749,0.0275,0.9906,-70.07,-1250.00,658.14
22860,-3.8749,0.0251,0.9908,-476.32,-1203.12,673.77
22870,-3.8749,0.0232,0.9902,-773.19,-1171.88,517.52
22880,-3.8749,0.0215,0.9893,-1023.19,-1250.00,486.27
22890,-3.8749,0.0199,0.9899,-1241.94,-1375.00,580.02
22900,-3.8749,0.0194,0.9918,-1445.07,-1296.88,830.02
22910,-3.8749,0.0208,0.9948,-1507.57,-1046.88,1205.02
22920,-3.8749,0.0222,0.9969,-1335.69,-671.88,1548.77
22930,-3.8749,0.0234,0.9961,-1148.19,-390.62,1830.02
22940,-3.8749,0.0261,0.9934,-991.94,-500.00,1908.14
22950,-3.8749,0.0299,0.9916,-648.19,-843.75,1830.02
22960,-3.8749,0.0331,0.9917,-163.82,-1078.12,1736.27
22970,-3.8749,0.0345,0.9924,242.43,-1062.44,1439.39
22980,-3.8749,0.0345,0.9915,429.93,-968.69,1001.89
22990,-3.8749,0.0338,0.9891,429.93,-1093.69,642.52
23000,-3.8749,0.0332,0.9882,336.18,-1390.56,423.77
23010,-3.8749,0.0330,0.9884,258.06,-1515.56,283.14
23020,-3.8749,0.0336,0.9893,226.81,-1484.31,158.14
23030,-3.8749,0.0345,0.9900,304.93,-1374.94,142.52
23040,-3.8749,0.0348,0.9905,429.93,-1281.19,251.89
23050,-3.8749,0.0345,0.9918,461.18,-1218.69,376.89
23060,-3.8749,0.0345,0.9924,429.93,-1046.81,408.14
23070,-3.8749,0.0341,0.9917,429.93,-968.69,298.77
23080,-3.8749,0.0320,0.9911,367.43,-1062.44,267.52
