timestamp_ms,ax,ay,az,gx,gy,gz
0,-3.8439,0.1073,0.9962,1289.31,-749.82,-1669.98
10,-3.8439,0.1217,0.9971,1742.43,-484.19,1267.52
20,-3.8439,0.1270,0.9977,-413.82,-374.82,361.27
30,-3.8439,0.1168,0.9879,258.06,-296.63,1017.52
40,-3.8439,0.1165,0.9763,-1038.82,-1546.69,-1404.36
50,-3.8750,0.1144,0.9696,-1085.69,968.93,251.89
60,-3.8750,0.1210,0.9639,-1351.32,109.56,1064.39
70,-3.8750,0.1289,0.9645,-507.57,-624.82,1470.58
80,-3.8750,0.1332,0.9709,508.06,-546.63,1689.33
90,-3.8750,0.1340,0.9778,1054.93,281.49,-1794.98
100,-3.8750,0.1342,0.9818,1164.31,1156.49,-935.61
110,-3.8750,0.1437,0.9871,1179.93,1672.12,-435.61
120,-3.8750,0.1530,0.9960,-1601.32,-1656.01,-123.11
130,-3.8749,0.1462,0.9932,-413.82,-515.38,267.52
140,-3.8750,0.1381,0.9832,-1273.19,-874.76,-326.23
150,-3.8750,0.1434,0.9877,1679.93,1843.99,1845.64
160,-3.8750,0.1464,1.0004,-1632.57,-1577.88,158.14
170,-3.8439,0.1470,1.0055,-1257.57,47.12,-794.92
180,-3.8439,0.1472,1.0032,-1179.44,703.37,-560.55
190,-3.8750,0.1444,0.9952,-1148.19,406.49,33.20
200,-3.8750,0.1420,0.9838,-1507.57,-609.13,17.52
210,-3.8439,0.1421,0.9757,-1820.07,1922.12,-685.61
220,-3.8439,0.1497,0.9728,-1804.44,890.87,-1404.36
230,-3.8439,0.1658,0.9774,-835.69,515.87,-1998.11
240,-3.8439,0.1776,0.9854,1226.81,1109.68,1970.64
250,-3.8439,0.1790,0.9884,-1257.57,-1874.69,-919.98
260,-3.8750,0.1755,0.9879,-1085.69,-1484.07,517.52
270,-3.8750,0.1764,0.9893,-1523.19,-1546.57,1095.64
280,-3.8750,0.1793,0.9847,-1413.82,-1374.69,283.14
290,-3.8439,0.1787,0.9709,-1038.82,-1952.82,-1044.98
300,-3.8439,0.1763,0.9622,-1116.94,281.56,-1998.11
310,-3.8439,0.1737,0.9652,-1429.44,-843.44,1376.83
320,-3.8439,0.1733,0.9760,-1757.57,-452.82,1017.46
330,-3.8439,0.1741,0.9824,-1804.44,922.18,1126.89
340,-3.8439,0.1715,0.9789,-1710.69,1750.31,1626.89
350,-3.8439,0.1682,0.9741,1961.18,1297.18,-1857.48
360,-3.8439,0.1661,0.9731,1539.31,687.81,-1591.86
370,-3.8439,0.1636,0.9758,1273.68,562.81,-1560.61
380,-3.8439,0.1598,0.9810,945.56,906.56,-1623.11
390,-3.8439,0.1561,0.9882,461.18,1562.81,-1763.73
400,-3.8439,0.1521,0.9911,-7.57,-1515.38,-1888.73
410,-3.8439,0.1476,0.9868,-523.19,-1140.38,-1607.48
420,-3.8439,0.1459,0.9824,-1101.32,-1687.26,-1076.23
430,-3.8439,0.1453,0.9818,-1320.07,1750.24,-451.23
440,-3.8750,0.1464,0.9839,-1398.19,1672.12,17.52
450,-3.8750,0.1558,0.9922,-1257.57,1937.74,17.52
460,-3.8750,0.1609,1.0006,-54.44,-999.76,1.89
470,-3.8750,0.1566,0.9980,601.81,78.43,408.20
480,-3.8750,0.1553,0.9921,54.93,-249.69,876.89
490,-3.8750,0.1567,0.9922,-116.94,-1015.38,548.77
500,-3.8439,0.1553,0.9961,70.56,-999.69,-779.36
510,-3.8439,0.1520,0.9952,-116.94,-499.76,-1998.11
520,-3.8439,0.1469,0.9922,-538.82,-609.13,1923.77
530,-3.8439,0.1432,0.9902,-1195.07,-999.76,-1294.98
540,-3.8439,0.1454,0.9926,-1663.82,-1249.76,-623.11
550,-3.8439,0.1477,0.9955,-1382.57,-952.88,-466.86
560,-3.8439,0.1482,0.9882,-1085.69,-577.88,-732.48
570,-3.8439,0.1478,0.9796,-1023.19,-1515.38,-1107.48
580,-3.8439,0.1484,0.9777,-1070.07,1390.87,-1357.48
590,-3.8439,0.1541,0.9781,-991.94,1140.87,-1435.61
600,-3.8439,0.1565,0.9791,-273.19,1203.37,-982.48
610,-3.8439,0.1537,0.9768,39.31,1328.43,-310.61
620,-3.8439,0.1554,0.9720,-320.07,1031.49,-60.61
630,-3.8750,0.1581,0.9717,-101.32,422.12,1.89
640,-3.8439,0.1567,0.9744,242.43,375.31,-29.36
650,-3.8439,0.1549,0.9749,70.56,719.06,-138.73
660,-3.8439,0.1544,0.9783,-163.82,781.49,-107.48
670,-3.8439,0.1531,0.9803,-226.32,1218.99,-216.86
680,-3.8439,0.1516,0.9779,-398.19,1484.62,-623.11
690,-3.8439,0.1520,0.9781,-585.69,1172.12,-1263.73
700,-3.8439,0.1519,0.9785,-538.82,1203.37,1861.27
710,-3.8439,0.1486,0.9755,-554.44,1250.24,1470.64
720,-3.8439,0.1472,0.9769,-976.32,859.62,1689.39
730,-3.8439,0.1533,0.9857,-1148.19,1047.12,1908.14
740,-3.8439,0.1600,0.9916,-366.94,-1827.88,-1810.61
750,-3.8439,0.1639,0.9893,492.43,-1077.82,-1482.48
760,-3.8439,0.1726,0.9825,992.43,-1374.69,-1138.73
770,-3.8439,0.1855,0.9763,-1898.19,1765.93,-763.73
780,-3.8439,0.1924,0.9720,-241.94,969.06,-451.23
790,-3.8439,0.1884,0.9706,633.06,422.24,-576.23
800,-3.8439,0.1794,0.9716,117.43,234.74,-1138.73
810,-3.8439,0.1703,0.9751,-1023.19,359.68,-1466.86
820,-3.8439,0.1615,0.9806,1804.93,812.81,-1107.48
830,-3.8439,0.1561,0.9850,679.93,1515.93,-466.86
840,-3.8439,0.1510,0.9871,-7.57,-1921.63,-310.61
850,-3.8439,0.1439,0.9868,-663.82,-1656.01,-544.98
860,-3.8439,0.1373,0.9860,-1570.07,-1687.26,-841.86
870,-3.8439,0.1332,0.9858,1586.18,-1796.63,-1060.61
880,-3.8439,0.1323,0.9860,1054.93,-1812.26,-966.86
890,-3.8439,0.1340,0.9858,945.56,-1796.63,-716.86
900,-3.8439,0.1361,0.9879,1164.31,-1812.26,-482.48
910,-3.8439,0.1364,0.9912,1429.93,-1546.63,-373.11
920,-3.8439,0.1348,0.9918,1461.18,-1124.76,-279.36
930,-3.8439,0.1337,0.9899,1258.06,-1046.63,-216.86
940,-3.8439,0.1318,0.9862,1117.43,-1296.63,-263.73
950,-3.8439,0.1287,0.9823,883.06,-1765.38,-435.61
960,-3.8439,0.1283,0.9819,476.81,1734.62,-748.11
970,-3.8439,0.1315,0.9833,429.93,1687.74,-1279.36
980,-3.8439,0.1381,0.9827,836.18,1859.62,-1857.48
990,-3.8439,0.1453,0.9796,1679.93,1781.49,1861.27
1000,-3.8439,0.1499,0.9763,-1398.19,1390.87,1892.52
1010,-3.8439,0.1530,0.9755,-804.44,968.99,-1966.86
1020,-3.8439,0.1544,0.9760,-413.82,859.62,-1794.98
1030,-3.8439,0.1534,0.9773,-226.32,922.12,-1341.86
1040,-3.8439,0.1494,0.9827,-351.32,1093.99,-685.61
1050,-3.8439,0.1454,0.9906,-866.94,1781.49,-279.36
1060,-3.8439,0.1433,0.9943,-1382.57,-1202.88,-419.98
1070,-3.8439,0.1422,0.9893,-1648.19,-734.13,-1013.73
1080,-3.8439,0.1416,0.9795,-1788.82,-1374.76,-1544.98
1090,-3.8439,0.1429,0.9724,-1866.94,1375.24,-1826.23
1100,-3.8439,0.1460,0.9711,-1695.07,468.99,1939.39
1110,-3.8439,0.1482,0.9739,-1304.44,297.12,1798.77
1120,-3.8439,0.1494,0.9792,-1023.19,656.49,1845.64
1130,-3.8439,0.1499,0.9852,-866.94,1343.99,1908.14
1140,-3.8439,0.1519,0.9905,-804.44,-1890.38,-1966.86
1150,-3.8439,0.1560,0.9940,-554.44,-1218.51,-1810.61
1160,-3.8439,0.1575,0.9946,-23.19,-765.38,-1716.86
1170,-3.8439,0.1548,0.9930,164.31,-687.19,-1716.86
1180,-3.8439,0.1503,0.9913,-179.44,-890.38,-1623.11
1190,-3.8439,0.1466,0.9906,-757.57,-1109.13,-1419.98
1200,-3.8439,0.1456,0.9916,-1226.32,-1202.88,-1341.86
1210,-3.8439,0.1462,0.9922,-1351.32,-1077.88,-1404.36
1220,-3.8439,0.1469,0.9902,-1273.19,-999.76,-1419.98
1230,-3.8439,0.1470,0.9871,-1195.07,-1249.76,-1373.11
1240,-3.8439,0.1475,0.9836,-1179.44,-1656.01,-1404.36
1250,-3.8439,0.1483,0.9797,-1116.94,1906.49,-1357.48
1260,-3.8439,0.1484,0.9767,-1007.57,1406.49,-1216.86
1270,-3.8439,0.1486,0.9768,-991.94,1015.87,-951.23
1280,-3.8439,0.1494,0.9806,-976.32,1031.49,-748.11
1290,-3.8439,0.1501,0.9852,-866.94,1515.87,-779.36
1300,-3.8439,0.1510,0.9850,-773.19,-1890.38,-1185.61
1310,-3.8439,0.1514,0.9799,-663.82,-1921.63,-1669.98
1320,-3.8439,0.1516,0.9736,-616.94,1422.12,-1904.36
1330,-3.8439,0.1510,0.9700,-585.69,625.24,-1966.86
1340,-3.8439,0.1488,0.9713,-663.82,156.49,-1966.86
1350,-3.8439,0.1460,0.9762,-945.07,328.37,-1935.61
1360,-3.8439,0.1438,0.9822,-1304.44,953.37,-1810.61
1370,-3.8439,0.1434,0.9882,-1585.69,1718.99,-1638.73
1380,-3.8439,0.1451,0.9917,-1632.57,-1515.38,-1498.11
1390,-3.8439,0.1476,0.9904,-1413.82,-1062.26,-1482.48
1400,-3.8439,0.1481,0.9850,-1101.32,-1234.13,-1341.86
1410,-3.8439,0.1464,0.9799,-1038.82,-1921.63,-1123.11
1420,-3.8439,0.1434,0.9766,-1257.57,1422.12,-1123.11
1430,-3.8439,0.1403,0.9761,-1632.57,1000.24,-1232.48
1440,-3.8439,0.1360,0.9778,1961.18,937.74,-1373.11
1450,-3.8439,0.1320,0.9796,1414.31,1156.49,-1341.86
1460,-3.8439,0.1307,0.9830,898.68,1390.87,-1169.98
1470,-3.8439,0.1322,0.9882,742.43,1828.37,-1138.73
1480,-3.8439,0.1343,0.9910,929.93,-1515.38,-1279.36
1490,-3.8439,0.1362,0.9893,1195.56,-1156.01,-1482.48
1500,-3.8439,0.1375,0.9849,1445.56,-1374.76,-1654.36
1510,-3.8439,0.1376,0.9807,1601.81,-1937.26,-1638.73
1520,-3.8439,0.1367,0.9795,1617.43,1531.49,-1623.11
1530,-3.8439,0.1350,0.9813,1508.06,1375.24,-1732.48
1540,-3.8439,0.1331,0.9854,1289.31,1609.62,-1701.23
1550,-3.8439,0.1322,0.9891,1039.31,-1874.76,-1669.98
1560,-3.8439,0.1337,0.9883,929.93,-1390.38,-1748.11
1570,-3.8439,0.1378,0.9845,1117.43,-1499.76,-1576.23
1580,-3.8439,0.1421,0.9823,1648.68,-1984.13,-1201.23
1590,-3.8439,0.1448,0.9812,-1804.44,1734.62,-1154.36
1600,-3.8439,0.1456,0.9803,-1460.69,1593.99,-1388.73
1610,-3.8439,0.1453,0.9796,-1351.32,1484.62,-1669.98
1620,-3.8439,0.1438,0.9789,-1398.19,1390.87,-1857.48
1630,-3.8439,0.1420,0.9779,-1585.69,1297.12,-1888.73
1640,-3.8439,0.1389,0.9784,-1820.07,1172.12,-1716.86
1650,-3.8439,0.1348,0.9830,1789.31,1234.62,-1498.11
1660,-3.8439,0.1324,0.9890,1258.06,1828.37,-1373.11
1670,-3.8439,0.1322,0.9924,961.18,-1406.01,-1326.23
1680,-3.8439,0.1322,0.9919,929.93,-968.51,-1341.86
1690,-3.8439,0.1313,0.9900,929.93,-1031.01,-1248.11
1700,-3.8439,0.1292,0.9888,820.56,-1281.01,-998.11
1710,-3.8439,0.1267,0.9878,539.31,-1437.26,-748.11
1720,-3.8439,0.1260,0.9861,226.81,-1562.26,-623.11
1730,-3.8439,0.1272,0.9846,133.06,-1781.01,-591.86
1740,-3.8439,0.1294,0.9845,289.31,-1968.51,-544.98
1750,-3.8439,0.1323,0.9836,570.56,-1984.13,-591.86
1760,-3.8439,0.1367,0.9828,945.56,1906.49,-701.23
1770,-3.8439,0.1403,0.9841,1508.06,1797.12,-841.86
1780,-3.8439,0.1416,0.9861,1961.18,1968.99,-982.48
1790,-3.8439,0.1410,0.9875,-1866.94,-1781.01,-1248.11
1800,-3.8439,0.1399,0.9879,-1945.07,-1593.51,-1513.73
1810,-3.8439,0.1392,0.9867,1914.31,-1546.63,-1466.86
1820,-3.8439,0.1383,0.9851,1820.56,-1702.88,-1310.61
1830,-3.8439,0.1360,0.9836,1711.18,-1906.01,-1326.23
1840,-3.8439,0.1333,0.9832,1414.31,1906.49,-1310.61
1850,-3.8439,0.1317,0.9836,1070.56,1843.99,-1185.61
1860,-3.8439,0.1316,0.9850,867.43,1906.49,-935.61
1870,-3.8439,0.1321,0.9880,851.81,-1921.63,-560.61
1880,-3.8439,0.1327,0.9910,914.31,-1531.01,-232.48
1890,-3.8439,0.1332,0.9912,992.43,-1156.01,-263.73
1900,-3.8439,0.1324,0.9888,1054.93,-1124.76,-560.61
1910,-3.8439,0.1313,0.9846,961.18,-1437.26,-904.36
1920,-3.8439,0.1304,0.9799,820.56,-1968.51,-1248.11
1930,-3.8439,0.1299,0.9777,695.56,1422.12,-1451.23
1940,-3.8439,0.1301,0.9790,633.06,1140.87,-1482.48
1950,-3.8439,0.1317,0.9819,664.31,1312.74,-1419.98
1960,-3.8439,0.1339,0.9847,867.43,1687.74,-1201.23
1970,-3.8439,0.1357,0.9858,1148.68,-1952.88,-966.86
1980,-3.8439,0.1364,0.9860,1383.06,-1812.26,-951.23
1990,-3.8439,0.1367,0.9869,1461.18,-1796.63,-1076.23
2000,-3.8439,0.1368,0.9873,1508.06,-1671.63,-1216.86
2010,-3.8439,0.1351,0.9865,1523.68,-1624.76,-1404.36
2020,-3.8439,0.1323,0.9860,1304.93,-1734.13,-1544.98
2030,-3.8439,0.1311,0.9872,945.56,-1796.63,-1685.61
2040,-3.8439,0.1323,0.9891,789.31,-1640.38,-1763.73
2050,-3.8439,0.1355,0.9889,945.56,-1390.38,-1607.48
2060,-3.8439,0.1381,0.9866,1351.81,-1421.63,-1201.23
2070,-3.8439,0.1370,0.9845,1679.93,-1718.51,-794.98
2080,-3.8439,0.1322,0.9846,1539.31,-1984.13,-560.61
2090,-3.8439,0.1270,0.9869,929.93,-1968.51,-435.61
2100,-3.8439,0.1233,0.9906,258.06,-1671.63,-404.36
2110,-3.8439,0.1207,0.9926,-210.69,-1202.94,-482.48
2120,-3.8439,0.1191,0.9911,-538.82,-952.94,-701.23
2130,-3.8439,0.1204,0.9858,-741.94,-1140.44,-919.98
2140,-3.8439,0.1263,0.9795,-585.69,-1812.32,-982.48
2150,-3.8439,0.1357,0.9742,179.93,1375.24,-1154.36
2160,-3.8439,0.1426,0.9711,1383.06,703.37,-1388.73
2170,-3.8439,0.1412,0.9718,-1741.94,297.12,-1248.11
2180,-3.8439,0.1320,0.9755,-1913.82,390.87,-873.11
2190,-3.8439,0.1208,0.9795,898.68,859.62,-451.23
2200,-3.8439,0.1132,0.9829,-523.19,1375.18,-29.36
2210,-3.8750,0.1093,0.9846,-1507.57,1812.68,189.39
2220,-3.8750,0.1090,0.9858,1992.43,-1968.57,361.27
2230,-3.8750,0.1141,0.9893,1961.18,-1812.32,408.14
2240,-3.8750,0.1240,0.9946,-1382.57,-1374.82,158.14
2250,-3.8439,0.1382,1.0009,-116.94,-687.32,-263.73
2260,-3.8439,0.1530,1.0043,1695.56,109.62,-904.30
2270,-3.8439,0.1613,0.9990,-413.82,547.12,-1669.92
2280,-3.8439,0.1614,0.9884,648.68,-124.69,1923.77
2290,-3.8439,0.1525,0.9802,664.31,-1484.07,1955.02
2300,-3.8439,0.1404,0.9766,-476.32,1468.99,-1873.11
2310,-3.8439,0.1328,0.9766,1976.81,1000.24,-1669.98
2320,-3.8439,0.1293,0.9800,1008.06,1000.24,-1341.86
2330,-3.8439,0.1287,0.9849,554.93,1437.74,-982.48
2340,-3.8439,0.1309,0.9885,476.81,-1937.26,-669.98
2350,-3.8439,0.1332,0.9902,758.06,-1468.51,-279.36
2360,-3.8439,0.1337,0.9890,1054.93,-1249.76,-60.61
2370,-3.8439,0.1326,0.9850,1117.43,-1406.01,-154.36
2380,-3.8439,0.1312,0.9805,976.81,-1921.63,-388.73
2390,-3.8439,0.1317,0.9773,804.93,1500.24,-685.61
2400,-3.8439,0.1335,0.9755,867.43,1093.99,-1232.48
2410,-3.8439,0.1342,0.9758,1101.81,859.62,-1966.86
2420,-3.8439,0.1340,0.9792,1179.93,906.49,1673.77
2430,-3.8439,0.1337,0.9835,1164.31,1343.99,1611.27
2440,-3.8439,0.1328,0.9857,1117.43,1890.87,1642.52
2450,-3.8439,0.1321,0.9860,1008.06,-1827.88,1923.77
2460,-3.8439,0.1306,0.9854,914.31,-1796.63,-1560.61
2470,-3.8439,0.1290,0.9847,726.81,-1874.76,-1044.98
2480,-3.8439,0.1285,0.9874,523.68,-1952.88,-685.61
2490,-3.8439,0.1281,0.9926,461.18,-1609.13,-529.36
2500,-3.8439,0.1281,0.9957,398.68,-952.88,-623.11
2510,-3.8439,0.1283,0.9950,398.68,-546.63,-904.36
2520,-3.8439,0.1265,0.9913,429.93,-640.38,-1154.36
2530,-3.8439,0.1216,0.9860,195.56,-1109.13,-1357.48
2540,-3.8439,0.1188,0.9819,-429.44,-1796.69,-1498.11
2550,-3.8439,0.1193,0.9813,-788.82,1687.68,-1419.98
2560,-3.8439,0.1202,0.9819,-726.32,1609.56,-1185.61
2570,-3.8439,0.1227,0.9823,-601.32,1687.68,-951.23
2580,-3.8439,0.1262,0.9825,-288.82,1734.56,-857.48
2590,-3.8439,0.1305,0.9817,164.31,1765.87,-935.61
2600,-3.8439,0.1354,0.9803,711.18,1656.49,-1201.23
2610,-3.8439,0.1385,0.9805,1336.18,1484.62,-1529.36
2620,-3.8439,0.1384,0.9812,1742.43,1500.24,-1716.86
2630,-3.8439,0.1370,0.9811,1726.81,1593.99,-1638.73
2640,-3.8439,0.1342,0.9829,1539.31,1578.37,-1341.86
2650,-3.8439,0.1295,0.9875,1179.93,1812.74,-935.61
2660,-3.8439,0.1232,0.9923,586.18,-1593.51,-701.23
2670,-3.8439,0.1162,0.9948,-226.32,-984.19,-763.73
2680,-3.8439,0.1122,0.9949,-1116.94,-671.69,-919.98
2690,-3.8439,0.1128,0.9939,-1632.57,-656.07,-1044.98
2700,-3.8439,0.1156,0.9918,-1554.44,-781.07,-1123.11
2710,-3.8439,0.1191,0.9884,-1195.07,-1046.69,-1060.61
2720,-3.8439,0.1226,0.9847,-741.94,-1484.19,-919.98
2730,-3.8439,0.1244,0.9832,-304.44,-1952.94,-748.11
2740,-3.8439,0.1272,0.9829,-70.07,1843.93,-576.23
2750,-3.8439,0.1345,0.9834,289.31,1812.74,-294.98
2760,-3.8750,0.1462,0.9871,1226.81,1875.24,95.64
2770,-3.8750,0.1549,0.9915,-1273.19,-1656.01,189.39
2780,-3.8439,0.1561,0.9900,-163.82,-1093.51,-326.23
2790,-3.8439,0.1531,0.9828,-7.57,-1281.01,-1029.36
2800,-3.8439,0.1473,0.9761,-398.19,1797.12,-1404.36
2810,-3.8439,0.1385,0.9755,-1132.57,937.74,-1669.98
2820,-3.8439,0.1284,0.9800,1742.43,859.62,1970.64
2830,-3.8439,0.1210,0.9851,445.56,1437.74,1845.64
2840,-3.8439,0.1176,0.9891,-507.57,-1906.07,-1966.86
2850,-3.8439,0.1167,0.9913,-945.07,-1390.44,-1607.48
2860,-3.8439,0.1177,0.9911,-1054.44,-1109.19,-1029.36
2870,-3.8439,0.1199,0.9902,-929.44,-1140.44,-529.36
2880,-3.8439,0.1216,0.9895,-648.19,-1249.82,-263.73
2890,-3.8439,0.1206,0.9904,-429.44,-1343.57,-44.98
2900,-3.8750,0.1161,0.9921,-554.44,-1234.19,48.77
2910,-3.8439,0.1099,0.9926,-1132.57,-1015.44,-60.61
2920,-3.8439,0.1063,0.9910,-1929.44,-952.94,-404.36
2930,-3.8439,0.1095,0.9872,1617.43,-1156.07,-919.98
2940,-3.8439,0.1165,0.9817,-1976.32,-1640.44,-1451.23
2950,-3.8439,0.1229,0.9781,-1085.69,1656.43,-1701.23
2960,-3.8439,0.1279,0.9784,-257.57,1203.31,-1716.86
2970,-3.8439,0.1321,0.9823,383.06,1234.62,-1701.23
2980,-3.8439,0.1334,0.9882,914.31,1734.62,-1560.61
2990,-3.8439,0.1306,0.9934,1086.18,-1515.38,-1310.61
3000,-3.8439,0.1259,0.9958,726.81,-843.51,-1169.98
3010,-3.8439,0.1223,0.9945,117.43,-531.01,-1107.48
3020,-3.8439,0.1213,0.9911,-335.69,-702.94,-998.11
3030,-3.8439,0.1222,0.9878,-460.69,-1140.44,-919.98
3040,-3.8439,0.1223,0.9843,-351.32,-1562.32,-982.48
3050,-3.8439,0.1191,0.9806,-335.69,1984.56,-1013.73
3060,-3.8439,0.1134,0.9802,-741.94,1515.81,-826.23
3070,-3.8439,0.1090,0.9841,-1476.32,1468.93,-576.23
3080,-3.8439,0.1067,0.9891,1961.18,1968.93,-482.48
3090,-3.8439,0.1067,0.9926,1664.31,-1390.44,-498.11
3100,-3.8439,0.1099,0.9939,1664.31,-952.94,-404.36
3110,-3.8439,0.1141,0.9919,-1929.44,-781.07,-279.36
3120,-3.8439,0.1162,0.9874,-1382.57,-1031.07,-310.61
3130,-3.8439,0.1151,0.9841,-1116.94,-1609.19,-576.23
3140,-3.8439,0.1139,0.9821,-1257.57,1968.93,-966.86
3150,-3.8439,0.1145,0.9806,-1413.82,1703.31,-1326.23
3160,-3.8439,0.1163,0.9806,-1335.69,1515.81,-1466.86
3170,-3.8439,0.1207,0.9819,-1101.32,1515.81,-1279.36
3180,-3.8439,0.1267,0.9839,-538.82,1687.68,-982.48
3190,-3.8439,0.1302,0.9850,226.81,1937.74,-669.98
3200,-3.8439,0.1292,0.9855,679.93,-1921.63,-388.73
3210,-3.8439,0.1249,0.9875,539.31,-1859.13,-310.61
3220,-3.8439,0.1189,0.9902,-7.57,-1593.57,-513.73
3230,-3.8439,0.1135,0.9908,-773.19,-1249.82,-826.23
3240,-3.8439,0.1122,0.9895,-1460.69,-1171.69,-1013.73
3250,-3.8439,0.1140,0.9873,-1632.57,-1343.57,-1029.36
3260,-3.8439,0.1178,0.9856,-1398.19,-1624.82,-966.86
3270,-3.8439,0.1219,0.9858,-913.82,-1843.57,-935.61
3280,-3.8439,0.1237,0.9869,-382.57,-1812.32,-982.48
3290,-3.8439,0.1230,0.9873,-163.82,-1671.69,-1013.73
3300,-3.8439,0.1218,0.9877,-241.94,-1624.82,-1044.98
3310,-3.8439,0.1212,0.9878,-398.19,-1577.94,-982.48
3320,-3.8439,0.1219,0.9877,-476.32,-1562.32,-810.61
3330,-3.8439,0.1237,0.9877,-382.57,-1577.94,-716.86
3340,-3.8439,0.1244,0.9862,-163.82,-1577.94,-716.86
3350,-3.8439,0.1237,0.9835,-70.07,-1765.44,-748.11
3360,-3.8439,0.1223,0.9823,-163.82,1890.81,-748.11
3370,-3.8439,0.1212,0.9835,-335.69,1734.56,-732.48
3380,-3.8439,0.1210,0.9866,-476.32,1890.81,-810.61
3390,-3.8439,0.1216,0.9893,-507.57,-1718.57,-966.86
3400,-3.8439,0.1234,0.9906,-429.44,-1374.82,-1076.23
3410,-3.8439,0.1259,0.9916,-195.07,-1202.94,-951.23
3420,-3.8439,0.1266,0.9915,117.43,-1077.88,-654.36
3430,-3.8439,0.1259,0.9899,211.18,-1093.51,-373.11
3440,-3.8439,0.1235,0.9873,117.43,-1296.63,-341.86
3450,-3.8439,0.1211,0.9833,-179.44,-1624.82,-576.23
3460,-3.8439,0.1200,0.9795,-491.94,1859.56,-873.11
3470,-3.8439,0.1191,0.9802,-632.57,1375.18,-1107.48
3480,-3.8439,0.1169,0.9854,-741.94,1468.93,-1294.98
3490,-3.8439,0.1133,0.9911,-1023.19,-1874.82,-1513.73
3500,-3.8439,0.1107,0.9935,-1491.94,-1140.44,-1560.61
3510,-3.8439,0.1102,0.9924,-1820.07,-827.94,-1357.48
3520,-3.8439,0.1104,0.9908,-1882.57,-968.57,-1029.36
3530,-3.8439,0.1084,0.9899,-1866.94,-1171.69,-607.48
3540,-3.8439,0.1040,0.9891,1883.06,-1296.69,-373.11
3550,-3.8439,0.1007,0.9889,1320.56,-1390.44,-357.48
3560,-3.8439,0.1011,0.9893,898.68,-1421.69,-388.73
3570,-3.8439,0.1042,0.9896,945.56,-1374.82,-498.11
3580,-3.8439,0.1091,0.9897,1351.81,-1327.94,-716.86
3590,-3.8439,0.1162,0.9882,1976.81,-1312.32,-966.86
3600,-3.8439,0.1265,0.9863,-1116.94,-1515.44,-1201.23
3610,-3.8439,0.1373,0.9851,195.56,-1749.76,-1341.86
3620,-3.8439,0.1439,0.9835,1586.18,-1906.01,-1404.36
3630,-3.8439,0.1434,0.9818,-1570.07,1890.87,-1404.36
3640,-3.8439,0.1384,0.9813,-1632.57,1672.12,-1294.98
3650,-3.8439,0.1335,0.9827,1726.81,1609.62,-1169.98
3660,-3.8439,0.1301,0.9847,1101.81,1781.49,-1107.48
3670,-3.8439,0.1257,0.9868,664.31,-1952.88,-1169.98
3680,-3.8439,0.1205,0.9884,101.81,-1687.26,-1232.48
3690,-3.8439,0.1182,0.9890,-570.07,-1484.19,-1060.61
3700,-3.8439,0.1191,0.9899,-866.94,-1406.07,-748.11
3710,-3.8439,0.1194,0.9916,-741.94,-1296.69,-529.36
3720,-3.8439,0.1185,0.9919,-710.69,-1077.94,-482.48
3730,-3.8439,0.1182,0.9904,-820.07,-1031.07,-482.48
3740,-3.8439,0.1180,0.9878,-866.94,-1234.19,-498.11
3750,-3.8439,0.1172,0.9856,-882.57,-1562.32,-560.61
3760,-3.8439,0.1156,0.9841,-991.94,-1843.57,-654.36
3770,-3.8439,0.1157,0.9841,-1195.07,1968.93,-716.86
3780,-3.8439,0.1185,0.9862,-1179.44,1968.93,-810.61
3790,-3.8439,0.1215,0.9889,-820.07,-1765.44,-935.61
3800,-3.8439,0.1237,0.9899,-445.07,-1421.69,-1044.98
3810,-3.8439,0.1249,0.9874,-163.82,-1296.69,-1294.98
3820,-3.8439,0.1249,0.9845,-7.57,-1609.19,-1451.23
3830,-3.8439,0.1241,0.9828,-7.57,-1984.19,-1404.36
3840,-3.8439,0.1230,0.9813,-101.32,1797.06,-1326.23
3850,-3.8439,0.1230,0.9802,-241.94,1609.56,-1310.61
3860,-3.8439,0.1233,0.9797,-241.94,1468.93,-1263.73
3870,-3.8439,0.1227,0.9810,-210.69,1406.43,-998.11
3880,-3.8439,0.1208,0.9850,-288.82,1562.68,-638.73
3890,-3.8439,0.1194,0.9904,-523.19,-1921.69,-373.11
3900,-3.8439,0.1183,0.9943,-710.69,-1234.19,-216.86
3910,-3.8439,0.1168,0.9960,-851.32,-734.19,-169.98
3920,-3.8439,0.1156,0.9944,-1038.82,-515.44,-466.86
3930,-3.8439,0.1151,0.9897,-1195.07,-718.57,-982.48
3940,-3.8439,0.1165,0.9852,-1257.57,-1312.32,-1263.73
3950,-3.8439,0.1194,0.9835,-1085.69,-1890.44,-1263.73
3960,-3.8439,0.1226,0.9850,-710.69,1890.81,-1263.73
3970,-3.8439,0.1249,0.9886,-304.44,-1921.69,-1341.86
3980,-3.8439,0.1248,0.9916,-7.57,-1452.94,-1388.73
3990,-3.8439,0.1198,0.9886,-23.19,-1077.94,-1576.23
4000,-3.8439,0.1188,0.9812,-663.82,-1452.94,-1529.36
4010,-3.8439,0.1315,0.9777,-788.82,1593.93,-794.98
4020,-3.8750,0.1478,0.9817,836.18,1140.87,423.77
4030,-3.8750,0.1528,0.9886,-1070.07,1656.49,1439.39
4040,-3.8750,0.1425,0.9922,-429.44,-1452.88,1595.64
4050,-3.8750,0.1238,0.9906,-1757.57,-999.76,1017.52
4060,-3.8750,0.1071,0.9867,-148.19,-1202.94,64.39
4070,-3.8439,0.0994,0.9836,1711.18,-1702.94,-1029.36
4080,-3.8439,0.0999,0.9813,726.81,1906.43,-1857.48
4090,-3.8439,0.1044,0.9811,789.31,1609.56,1751.89
4100,-3.8439,0.1101,0.9850,1367.43,1578.31,1751.89
4110,-3.8439,0.1147,0.9883,-1898.19,-1921.69,1892.52
4120,-3.8439,0.1196,0.9867,-1304.44,-1499.82,-1763.73
4130,-3.8439,0.1232,0.9843,-679.44,-1702.94,-1138.73
4140,-3.8439,0.1224,0.9858,-226.32,1984.56,-357.48
4150,-3.8750,0.1211,0.9916,-320.07,-1812.32,251.89
4160,-3.8750,0.1217,0.9956,-491.94,-1077.94,470.64
4170,-3.8750,0.1226,0.9965,-413.82,-562.32,439.39
4180,-3.8750,0.1229,0.9934,-304.44,-452.94,111.27
4190,-3.8439,0.1213,0.9868,-257.57,-843.57,-529.36
4200,-3.8439,0.1179,0.9833,-460.69,-1687.32,-1169.98
4210,-3.8439,0.1160,0.9835,-898.19,1859.56,-1607.48
4220,-3.8439,0.1169,0.9839,-1148.19,1890.81,-1794.98
4230,-3.8439,0.1195,0.9843,-1023.19,1937.68,-1732.48
4240,-3.8439,0.1223,0.9863,-695.07,1984.56,-1435.61
4250,-3.8439,0.1240,0.9895,-335.69,-1749.82,-1013.73
4260,-3.8439,0.1232,0.9904,-116.94,-1343.57,-701.23
4270,-3.8439,0.1202,0.9883,-226.32,-1234.19,-623.11
4280,-3.8439,0.1163,0.9860,-601.32,-1499.82,-732.48
4290,-3.8439,0.1141,0.9843,-1101.32,-1796.69,-982.48
4300,-3.8439,0.1150,0.9833,-1382.57,1984.56,-1294.98
4310,-3.8439,0.1168,0.9835,-1273.19,1859.56,-1482.48
4320,-3.8439,0.1195,0.9852,-1038.82,1890.81,-1373.11
4330,-3.8439,0.1226,0.9886,-695.07,-1890.44,-1154.36
4340,-3.8439,0.1255,0.9899,-304.44,-1452.94,-982.48
4350,-3.8439,0.1282,0.9890,70.56,-1296.63,-966.86
4360,-3.8439,0.1279,0.9871,414.31,-1406.01,-1060.61
4370,-3.8439,0.1249,0.9841,383.06,-1656.01,-1013.73
4380,-3.8439,0.1217,0.9841,-7.57,1968.93,-857.48
4390,-3.8439,0.1206,0.9868,-413.82,1968.93,-857.48
4400,-3.8439,0.1226,0.9885,-554.44,-1687.32,-810.61
4410,-3.8439,0.1237,0.9873,-304.44,-1468.57,-716.86
4420,-3.8439,0.1233,0.9844,-163.82,-1624.82,-794.98
4430,-3.8439,0.1248,0.9821,-210.69,-1999.82,-1029.36
4440,-3.8439,0.1263,0.9794,-23.19,1703.31,-1341.86
4450,-3.8439,0.1243,0.9775,179.93,1359.62,-1513.73
4460,-3.8439,0.1188,0.9775,-85.69,1125.18,-1498.11
4470,-3.8439,0.1135,0.9788,-788.82,1125.18,-1451.23
4480,-3.8439,0.1127,0.9810,-1460.69,1281.43,-1357.48
4490,-3.8439,0.1154,0.9834,-1570.07,1562.68,-1185.61
4500,-3.8439,0.1174,0.9851,-1226.32,1875.18,-1013.73
4510,-3.8439,0.1172,0.9865,-960.69,-1906.07,-998.11
4520,-3.8439,0.1162,0.9869,-991.94,-1734.19,-1169.98
4530,-3.8439,0.1187,0.9866,-1116.94,-1671.69,-1248.11
4540,-3.8439,0.1261,0.9869,-804.44,-1718.57,-1107.48
4550,-3.8439,0.1332,0.9882,148.68,-1671.63,-888.73
4560,-3.8439,0.1340,0.9905,1054.93,-1515.38,-701.23
4570,-3.8439,0.1285,0.9937,1164.31,-1218.51,-544.98
4580,-3.8439,0.1196,0.9945,461.18,-812.26,-576.23
4590,-3.8439,0.1136,0.9921,-679.44,-702.94,-826.23
4600,-3.8439,0.1162,0.9891,-1445.07,-1015.44,-904.36
4610,-3.8439,0.1243,0.9891,-1116.94,-1390.44,-685.61
4620,-3.8439,0.1281,0.9919,-85.69,-1390.44,-279.36
4630,-3.8439,0.1232,0.9927,398.68,-1031.01,-107.48
4640,-3.8439,0.1135,0.9886,-226.32,-937.32,-341.86
4650,-3.8439,0.1066,0.9827,-1460.69,-1452.94,-576.23
4660,-3.8439,0.1075,0.9783,1648.68,1781.43,-591.86
4670,-3.8439,0.1149,0.9786,1773.68,1218.93,-498.11
4680,-3.8439,0.1232,0.9825,-1288.82,1265.81,-341.86
4690,-3.8439,0.1272,0.9866,-226.32,1765.81,-201.23
4700,-3.8439,0.1257,0.9884,289.31,-1718.51,-201.23
4710,-3.8439,0.1213,0.9879,101.81,-1484.13,-263.73
4720,-3.8439,0.1157,0.9869,-460.69,-1546.69,-216.86
4730,-3.8439,0.1119,0.9868,-1179.44,-1671.69,-123.11
4740,-3.8439,0.1124,0.9879,-1663.82,-1687.32,-279.36
4750,-3.8439,0.1152,0.9869,-1601.32,-1546.69,-779.36
4760,-3.8439,0.1167,0.9833,-1241.94,-1671.69,-1451.23
4770,-3.8439,0.1168,0.9803,-1054.44,1859.56,-1716.86
4780,-3.8439,0.1173,0.9803,-1038.82,1484.56,-1419.98
4790,-3.8439,0.1191,0.9835,-976.32,1484.56,-1013.73
4800,-3.8439,0.1212,0.9879,-741.94,1890.81,-701.23
4810,-3.8439,0.1229,0.9904,-476.32,-1546.69,-576.23
4820,-3.8439,0.1250,0.9885,-257.57,-1234.19,-685.61
4830,-3.8439,0.1290,0.9850,8.06,-1468.51,-857.48
4840,-3.8439,0.1322,0.9840,523.68,-1921.63,-904.36
4850,-3.8439,0.1315,0.9860,929.93,1953.37,-1060.61
4860,-3.8439,0.1271,0.9884,836.18,-1796.63,-1310.61
4870,-3.8439,0.1205,0.9897,273.68,-1484.13,-1451.23
4880,-3.8439,0.1151,0.9901,-570.07,-1312.32,-1326.23
4890,-3.8439,0.1138,0.9884,-1257.57,-1265.44,-1044.98
4900,-3.8439,0.1160,0.9860,-1429.44,-1484.19,-763.73
4910,-3.8439,0.1205,0.9846,-1148.19,-1796.69,-591.86
4920,-3.8439,0.1259,0.9840,-570.07,-1968.57,-701.23
4930,-3.8439,0.1307,0.9827,117.43,1953.37,-998.11
4940,-3.8439,0.1339,0.9808,742.43,1781.49,-1341.86
4950,-3.8439,0.1335,0.9800,1148.68,1547.12,-1607.48
4960,-3.8439,0.1300,0.9800,1101.81,1437.74,-1685.61
4970,-3.8439,0.1270,0.9816,648.68,1437.74,-1623.11
4980,-3.8439,0.1262,0.9855,258.06,1640.87,-1482.48
4990,-3.8439,0.1271,0.9891,164.31,-1859.13,-1326.23
5000,-3.8439,0.1277,0.9911,273.68,-1390.38,-1232.48
5010,-3.8439,0.1270,0.9904,351.81,-1140.38,-1201.23
5020,-3.8439,0.1268,0.9885,258.06,-1234.13,-1060.61
5030,-3.8439,0.1259,0.9882,242.43,-1468.51,-794.98
5040,-3.8439,0.1227,0.9882,117.43,-1515.38,-591.86
5050,-3.8439,0.1202,0.9869,-288.82,-1515.44,-498.11
5060,-3.8439,0.1188,0.9850,-601.32,-1671.69,-498.11
5070,-3.8439,0.1162,0.9843,-788.82,-1921.69,-513.73
5080,-3.8439,0.1121,0.9858,-1116.94,1984.56,-466.86
5090,-3.8439,0.1084,0.9875,-1648.19,-1812.32,-576.23
5100,-3.8439,0.1073,0.9882,1883.06,-1593.57,-794.98
5110,-3.8439,0.1093,0.9888,1742.43,-1515.44,-826.23
5120,-3.8439,0.1152,0.9885,1992.43,-1437.32,-810.61
5130,-3.8439,0.1233,0.9860,-1241.94,-1468.57,-873.11
5140,-3.8439,0.1285,0.9824,-210.69,-1796.69,-1013.73
5150,-3.8439,0.1296,0.9790,461.18,1750.24,-1107.48
5160,-3.8439,0.1276,0.9775,601.81,1312.74,-1044.98
5170,-3.8439,0.1240,0.9784,336.18,1125.24,-998.11
5180,-3.8439,0.1219,0.9808,-116.94,1234.56,-904.36
5190,-3.8439,0.1223,0.9850,-382.57,1547.06,-763.73
5200,-3.8439,0.1238,0.9891,-335.69,-1921.69,-748.11
5210,-3.8439,0.1261,0.9901,-148.19,-1390.44,-873.11
5220,-3.8439,0.1278,0.9875,148.68,-1265.38,-1185.61
5230,-3.8439,0.1274,0.9845,367.43,-1593.51,-1560.61
5240,-3.8439,0.1249,0.9834,320.56,-1984.13,-1888.73
5250,-3.8439,0.1216,0.9838,-7.57,1875.18,1970.64
5260,-3.8439,0.1190,0.9860,-429.44,1922.06,-1888.73
5270,-3.8439,0.1176,0.9907,-757.57,-1796.69,-1544.98
5280,-3.8439,0.1162,0.9944,-945.07,-1187.32,-1123.11
5290,-3.8439,0.1154,0.9948,-1116.94,-718.57,-779.36
5300,-3.8439,0.1155,0.9935,-1226.32,-671.69,-544.98
5310,-3.8439,0.1174,0.9906,-1210.69,-827.94,-435.61
5320,-3.8439,0.1205,0.9871,-960.69,-1202.94,-294.98
5330,-3.8439,0.1227,0.9856,-570.07,-1656.07,-138.73
5340,-3.8439,0.1218,0.9865,-288.82,-1843.57,-123.11
5350,-3.8439,0.1179,0.9883,-398.19,-1734.19,-169.98
5360,-3.8439,0.1129,0.9904,-898.19,-1499.82,-279.36
5370,-3.8439,0.1094,0.9916,-1538.82,-1234.19,-529.36
5380,-3.8439,0.1099,0.9907,-1991.94,-1077.94,-841.86
5390,-3.8439,0.1132,0.9882,-1929.44,-1187.32,-951.23
5400,-3.8439,0.1179,0.9851,-1507.57,-1515.44,-951.23
5410,-3.8439,0.1243,0.9816,-898.19,-1906.07,-998.11
5420,-3.8439,0.1300,0.9781,-85.69,1640.81,-951.23
5430,-3.8439,0.1337,0.9772,648.68,1203.37,-685.61
5440,-3.8439,0.1357,0.9796,1117.43,1078.37,-326.23
5450,-3.8439,0.1351,0.9843,1383.06,1390.87,-138.73
5460,-3.8439,0.1301,0.9883,1304.93,1984.62,-232.48
5470,-3.8439,0.1218,0.9899,664.31,-1499.76,-435.61
5480,-3.8439,0.1139,0.9901,-398.19,-1296.69,-498.11
5490,-3.8439,0.1096,0.9899,-1413.82,-1265.44,-576.23
5500,-3.8439,0.1095,0.9894,-1960.69,-1296.69,-873.11
5510,-3.8439,0.1112,0.9888,-1976.32,-1359.19,-1169.98
5520,-3.8439,0.1144,0.9882,-1757.57,-1437.32,-1169.98
5530,-3.8439,0.1188,0.9895,-1351.32,-1515.44,-966.86
5540,-3.8439,0.1217,0.9917,-788.82,-1343.57,-716.86
5550,-3.8439,0.1229,0.9922,-413.82,-1062.32,-482.48
5560,-3.8439,0.1241,0.9913,-257.57,-999.82,-373.11
5570,-3.8439,0.1261,0.9896,-101.32,-1109.19,-404.36
5580,-3.8439,0.1278,0.9867,148.68,-1327.88,-591.86
5590,-3.8439,0.1282,0.9832,367.43,-1702.88,-1029.36
5600,-3.8439,0.1261,0.9801,414.31,1843.99,-1482.48
5610,-3.8439,0.1222,0.9791,148.68,1453.37,-1685.61
5620,-3.8439,0.1187,0.9811,-351.32,1328.31,-1701.23
5630,-3.8439,0.1174,0.9851,-804.44,1578.31,-1669.98
5640,-3.8439,0.1168,0.9891,-960.69,-1906.07,-1544.98
5650,-3.8439,0.1158,0.9921,-1038.82,-1390.44,-1326.23
5660,-3.8439,0.1158,0.9928,-1163.82,-1015.44,-1138.73
5670,-3.8439,0.1178,0.9911,-1163.82,-921.69,-1029.36
5680,-3.8439,0.1195,0.9882,-913.82,-1140.44,-888.73
5690,-3.8439,0.1179,0.9865,-695.07,-1515.44,-638.73
5700,-3.8439,0.1149,0.9863,-898.19,-1734.19,-591.86
5710,-3.8439,0.1151,0.9854,-1288.82,-1749.82,-763.73
5720,-3.8439,0.1188,0.9851,-1257.57,-1874.82,-857.48
5730,-3.8439,0.1219,0.9863,-788.82,-1906.07,-904.36
5740,-3.8439,0.1228,0.9869,-382.57,-1749.82,-1044.98
5750,-3.8439,0.1216,0.9858,-273.19,-1671.69,-1185.61
5760,-3.8439,0.1180,0.9851,-429.44,-1812.32,-1154.36
5770,-3.8439,0.1121,0.9857,-882.57,-1906.07,-935.61
5780,-3.8439,0.1066,0.9863,-1648.19,-1827.94,-732.48
5790,-3.8439,0.1047,0.9863,1648.68,-1749.82,-654.36
5800,-3.8439,0.1071,0.9863,1414.31,-1749.82,-732.48
5810,-3.8439,0.1123,0.9869,1711.18,-1749.82,-951.23
5820,-3.8439,0.1174,0.9877,-1616.94,-1671.69,-1044.98
5830,-3.8439,0.1194,0.9875,-960.69,-1577.94,-888.73
5840,-3.8439,0.1185,0.9878,-710.69,-1593.57,-748.11
5850,-3.8439,0.1171,0.9890,-820.07,-1562.32,-685.61
5860,-3.8439,0.1150,0.9900,-1007.57,-1406.07,-591.86
5870,-3.8439,0.1128,0.9894,-1273.19,-1281.07,-404.36
5880,-3.8439,0.1116,0.9879,-1554.44,-1359.19,-326.23
5890,-3.8439,0.1127,0.9877,-1710.69,-1546.69,-404.36
5900,-3.8439,0.1157,0.9878,-1570.07,-1577.94,-529.36
5910,-3.8439,0.1183,0.9879,-1179.44,-1562.32,-701.23
5920,-3.8439,0.1189,0.9885,-851.32,-1546.69,-794.98
5930,-3.8439,0.1183,0.9883,-773.19,-1468.57,-794.98
5940,-3.8439,0.1171,0.9863,-851.32,-1499.82,-638.73
5950,-3.8439,0.1176,0.9855,-1007.57,-1749.82,-498.11
5960,-3.8439,0.1202,0.9868,-945.07,-1859.19,-513.73
5970,-3.8439,0.1222,0.9880,-601.32,-1687.32,-623.11
5980,-3.8439,0.1215,0.9878,-351.32,-1531.07,-654.36
5990,-3.8439,0.1205,0.9860,-445.07,-1562.32,-701.23
6000,-3.8439,0.1218,0.9846,-570.07,-1796.69,-732.48
6010,-3.8439,0.1239,0.9854,-398.19,-1968.57,-748.11
6020,-3.8439,0.1252,0.9863,-132.57,-1874.82,-951.23
6030,-3.8439,0.1251,0.9860,39.31,-1749.76,-1185.61
6040,-3.8439,0.1237,0.9843,23.68,-1796.63,-1341.86
6050,-3.8439,0.1208,0.9833,-163.82,1984.56,-1404.36
6060,-3.8439,0.1171,0.9844,-523.19,1859.56,-1357.48
6070,-3.8439,0.1136,0.9878,-1007.57,-1999.82,-1232.48
6080,-3.8439,0.1122,0.9929,-1445.07,-1562.32,-966.86
6090,-3.8439,0.1132,0.9968,-1632.57,-906.07,-591.86
6100,-3.8439,0.1151,0.9971,-1507.57,-406.07,-404.36
6110,-3.8439,0.1185,0.9935,-1257.57,-374.82,-591.86
6120,-3.8439,0.1241,0.9867,-820.07,-827.94,-1076.23
6130,-3.8439,0.1293,0.9794,-101.32,-1702.94,-1591.86
6140,-3.8439,0.1316,0.9757,554.93,1359.62,-1919.98
6150,-3.8439,0.1309,0.9769,851.81,890.87,-1904.36
6160,-3.8439,0.1287,0.9810,758.06,1047.12,-1498.11
6170,-3.8439,0.1249,0.9860,476.81,1562.74,-904.36
6180,-3.8439,0.1199,0.9896,-7.57,-1796.69,-419.98
6190,-3.8439,0.1141,0.9908,-648.19,-1327.94,-326.23
6200,-3.8439,0.1102,0.9902,-1382.57,-1171.69,-529.36
6210,-3.8439,0.1095,0.9888,-1882.57,-1249.82,-810.61
6220,-3.8439,0.1100,0.9869,-1976.32,-1437.32,-1076.23
6230,-3.8439,0.1111,0.9865,-1913.82,-1671.69,-1294.98
6240,-3.8439,0.1143,0.9879,-1773.19,-1734.19,-1279.36
6250,-3.8439,0.1189,0.9888,-1366.94,-1546.69,-1076.23
6260,-3.8439,0.1219,0.9873,-773.19,-1437.32,-919.98
6270,-3.8439,0.1217,0.9841,-382.57,-1624.82,-763.73
6280,-3.8439,0.1204,0.9818,-413.82,1968.93,-623.11
6290,-3.8439,0.1208,0.9833,-585.69,1672.06,-576.23
6300,-3.8439,0.1223,0.9861,-523.19,1859.56,-701.23
6310,-3.8439,0.1234,0.9862,-335.69,-1781.07,-998.11
6320,-3.8439,0.1228,0.9841,-195.07,-1765.44,-1294.98
6330,-3.8439,0.1215,0.9819,-273.19,1968.93,-1373.11
6340,-3.8439,0.1228,0.9828,-445.07,1687.68,-1341.86
6350,-3.8439,0.1279,0.9863,-273.19,1797.06,-1419.98
6360,-3.8439,0.1327,0.9873,383.06,-1749.76,-1498.11
6370,-3.8439,0.1339,0.9852,992.43,-1624.76,-1357.48
6380,-3.8439,0.1301,0.9850,1148.68,-1890.38,-998.11
6390,-3.8439,0.1233,0.9865,664.31,-1921.63,-826.23
6400,-3.8439,0.1184,0.9883,-210.69,-1734.19,-904.36
6410,-3.8439,0.1172,0.9901,-835.69,-1499.82,-904.36
6420,-3.8439,0.1184,0.9918,-991.94,-1265.44,-701.23
6430,-3.8439,0.1202,0.9934,-835.69,-1046.69,-638.73
6440,-3.8439,0.1215,0.9927,-601.32,-843.57,-841.86
6450,-3.8439,0.1227,0.9891,-445.07,-937.32,-1248.11
6460,-3.8439,0.1235,0.9846,-288.82,-1390.44,-1669.98
6470,-3.8439,0.1201,0.9811,-179.44,-1968.57,-1794.98
6480,-3.8439,0.1132,0.9808,-616.94,1578.31,-1669.98
6490,-3.8439,0.1077,0.9839,-1507.57,1547.06,-1388.73
6500,-3.8439,0.1072,0.9878,1789.31,1937.68,-966.86
6510,-3.8439,0.1115,0.9906,1726.81,-1562.32,-498.11
6520,-3.8439,0.1169,0.9912,-1726.32,-1202.94,-169.98
6530,-3.8439,0.1211,0.9894,-1023.19,-1124.82,-123.11
6540,-3.8439,0.1238,0.9866,-491.94,-1359.19,-451.23
6550,-3.8439,0.1251,0.9844,-148.19,-1718.57,-966.86
6560,-3.8439,0.1250,0.9836,23.68,-1999.76,-1498.11
6570,-3.8439,0.1235,0.9841,8.06,1906.49,-1919.98
6580,-3.8439,0.1229,0.9847,-179.44,1968.93,1892.52
6590,-3.8439,0.1243,0.9839,-257.57,-1952.94,-1982.48
6600,-3.8439,0.1257,0.9822,-85.69,1937.68,-1654.36
6610,-3.8439,0.1251,0.9834,101.81,1718.99,-1279.36
6620,-3.8439,0.1222,0.9884,23.68,1875.24,-998.11
6630,-3.8439,0.1174,0.9930,-351.32,-1484.19,-826.23
6640,-3.8439,0.1135,0.9924,-960.69,-890.44,-794.98
6650,-3.8439,0.1129,0.9871,-1460.69,-968.57,-966.86
6660,-3.8439,0.1160,0.9817,-1538.82,-1656.07,-1044.98
6670,-3.8439,0.1208,0.9794,-1148.19,1656.43,-982.48
6680,-3.8439,0.1227,0.9800,-523.19,1359.56,-826.23
6690,-3.8439,0.1198,0.9818,-288.82,1437.68,-607.48
6700,-3.8439,0.1158,0.9818,-663.82,1672.06,-341.86
6710,-3.8750,0.1139,0.9812,-1163.82,1672.06,17.52
6720,-3.8750,0.1156,0.9847,-1413.82,1593.93,345.64
6730,-3.8750,0.1207,0.9915,-1195.07,-1952.94,126.89
6740,-3.8439,0.1260,0.9952,-538.82,-1093.57,-732.48
6750,-3.8439,0.1302,0.9934,133.06,-609.13,-1794.98
6760,-3.8439,0.1346,0.9880,679.93,-843.51,1361.27
6770,-3.8439,0.1389,0.9829,1242.43,-1531.01,876.89
6780,-3.8439,0.1404,0.9832,1789.31,1812.74,751.89
6790,-3.8439,0.1373,0.9886,1976.81,1843.99,845.64
6800,-3.8439,0.1317,0.9937,1586.18,-1452.88,1080.02
6810,-3.8439,0.1267,0.9962,867.43,-812.26,1908.14
6820,-3.8439,0.1228,0.9993,226.81,-484.13,-794.98
6830,-3.8750,0.1187,1.0022,-273.19,-93.57,158.14
6840,-3.8750,0.1141,0.9998,-804.44,281.43,470.70
6850,-3.8750,0.1116,0.9927,-1382.57,-31.07,376.89
6860,-3.8750,0.1122,0.9856,-1710.69,-937.32,80.02
6870,-3.8439,0.1139,0.9808,-1632.57,-1843.57,-498.11
6880,-3.8439,0.1163,0.9779,-1413.82,1547.06,-1216.86
6890,-3.8439,0.1201,0.9777,-1101.32,1172.06,-1638.73
6900,-3.8439,0.1237,0.9788,-616.94,1140.81,-1669.98
6910,-3.8439,0.1255,0.9797,-163.82,1281.43,-1451.23
6920,-3.8439,0.1254,0.9812,70.56,1406.49,-1076.23
6930,-3.8439,0.1223,0.9836,54.93,1593.99,-576.23
6940,-3.8439,0.1151,0.9865,-335.69,1906.43,-154.36
6950,-3.8750,0.1078,0.9890,-1257.57,-1734.19,111.27
6960,-3.8750,0.1042,0.9926,1804.93,-1406.07,267.52
6970,-3.8750,0.1034,0.9961,1351.81,-952.94,283.14
6980,-3.8750,0.1050,0.9963,1242.43,-499.82,64.39
6990,-3.8439,0.1097,0.9928,1445.56,-468.57,-232.48
7000,-3.8439,0.1173,0.9861,-1945.07,-921.69,-701.23
7010,-3.8439,0.1256,0.9784,-976.32,-1781.07,-1357.48
7020,-3.8439,0.1313,0.9744,86.18,1234.62,-1857.48
7030,-3.8439,0.1324,0.9752,820.56,718.99,1861.27
7040,-3.8439,0.1285,0.9791,961.18,828.37,1783.14
7050,-3.8439,0.1212,0.9852,461.18,1328.37,1939.39
7060,-3.8439,0.1140,0.9932,-476.32,-1890.44,-1779.36
7070,-3.8439,0.1093,1.0001,-1398.19,-874.82,-1466.86
7080,-3.8439,0.1060,1.0015,1992.43,15.81,-1279.30
7090,-3.8439,0.1034,0.9971,1570.56,187.68,-1154.30
7100,-3.8439,0.1038,0.9919,1242.43,-374.82,-982.48
7110,-3.8439,0.1078,0.9884,1289.31,-1031.07,-951.23
7120,-3.8439,0.1143,0.9856,1804.93,-1484.19,-951.23
7130,-3.8439,0.1213,0.9845,-1366.94,-1843.57,-857.48
7140,-3.8439,0.1277,0.9850,-460.69,-1984.19,-826.23
7150,-3.8439,0.1329,0.9855,351.81,-1921.63,-951.23
7160,-3.8439,0.1355,0.9847,1023.68,-1859.13,-1123.11
7170,-3.8439,0.1343,0.9830,1351.81,-1952.88,-1248.11
7180,-3.8439,0.1311,0.9814,1195.56,1828.37,-1216.86
7190,-3.8439,0.1274,0.9808,789.31,1625.24,-935.61
7200,-3.8439,0.1222,0.9827,320.56,1547.12,-529.36
7210,-3.8439,0.1163,0.9867,-351.32,1781.43,-294.98
7220,-3.8439,0.1133,0.9895,-1101.32,-1702.94,-248.11
7230,-3.8439,0.1151,0.9888,-1491.94,-1343.57,-326.23
7240,-3.8439,0.1191,0.9866,-1257.57,-1437.32,-466.86
7250,-3.8439,0.1223,0.9856,-741.94,-1718.57,-607.48
7260,-3.8439,0.1235,0.9843,-335.69,-1843.57,-763.73
7270,-3.8439,0.1234,0.9824,-179.44,1984.56,-763.73
7280,-3.8439,0.1223,0.9829,-195.07,1750.18,-638.73
7290,-3.8439,0.1202,0.9865,-335.69,1812.68,-388.73
7300,-3.8439,0.1178,0.9908,-601.32,-1734.19,-60.61
7310,-3.8750,0.1163,0.9937,-913.82,-1171.69,17.52
7320,-3.8439,0.1169,0.9941,-1101.32,-812.32,-294.98
7330,-3.8439,0.1178,0.9916,-1023.19,-749.82,-810.61
7340,-3.8439,0.1166,0.9882,-913.82,-1077.94,-1326.23
7350,-3.8439,0.1143,0.9877,-1070.07,-1515.44,-1607.48
7360,-3.8439,0.1104,0.9891,-1366.94,-1577.94,-1560.61
7370,-3.8439,0.1058,0.9901,-1866.94,-1390.44,-1341.86
7380,-3.8439,0.1035,0.9893,1554.93,-1265.44,-1076.23
7390,-3.8439,0.1044,0.9868,1258.06,-1374.82,-794.98
7400,-3.8439,0.1090,0.9844,1367.43,-1687.32,-560.61
7410,-3.8439,0.1160,0.9834,1961.18,-1999.82,-341.86
7420,-3.8439,0.1215,0.9841,-1148.19,1875.18,-76.23
7430,-3.8750,0.1240,0.9856,-445.07,1968.93,1.89
7440,-3.8439,0.1255,0.9883,-116.94,-1843.57,-169.98
7450,-3.8439,0.1266,0.9894,70.56,-1499.76,-388.73
7460,-3.8439,0.1274,0.9871,211.18,-1359.13,-748.11
7470,-3.8439,0.1262,0.9843,320.56,-1656.01,-1263.73
7480,-3.8439,0.1219,0.9818,164.31,1984.62,-1701.23
7490,-3.8439,0.1177,0.9810,-382.57,1672.06,-1982.48
7500,-3.8439,0.1143,0.9828,-929.44,1562.68,1861.27
7510,-3.8439,0.1106,0.9862,-1366.94,1797.06,1908.14
7520,-3.8439,0.1069,0.9902,-1835.69,-1765.44,-1794.98
7530,-3.8439,0.1044,0.9935,1695.56,-1249.82,-1310.61
7540,-3.8439,0.1053,0.9943,1367.43,-827.94,-826.23
7550,-3.8439,0.1110,0.9937,1492.43,-734.19,-435.61
7560,-3.8439,0.1176,0.9911,-1788.82,-812.32,-248.11
7570,-3.8439,0.1223,0.9863,-945.07,-1140.44,-232.48
7580,-3.8439,0.1239,0.9824,-335.69,-1749.82,-232.48
7590,-3.8439,0.1228,0.9813,-132.57,1750.18,-263.73
7600,-3.8439,0.1206,0.9819,-273.19,1609.56,-482.48
7610,-3.8439,0.1183,0.9814,-554.44,1687.68,-873.11
7620,-3.8439,0.1185,0.9796,-851.32,1625.18,-1123.11
7630,-3.8439,0.1212,0.9807,-820.07,1390.81,-1185.61
7640,-3.8439,0.1237,0.9834,-476.32,1531.43,-1279.36
7650,-3.8439,0.1265,0.9846,-163.82,1875.18,-1357.48
7660,-3.8439,0.1266,0.9852,195.56,-1968.51,-1232.48
7670,-3.8439,0.1227,0.9874,211.18,-1890.38,-888.73
7680,-3.8439,0.1183,0.9900,-288.82,-1609.19,-638.73
7690,-3.8439,0.1165,0.9899,-851.32,-1281.07,-544.98
7700,-3.8439,0.1174,0.9895,-1085.69,-1296.69,-482.48
7710,-3.8439,0.1202,0.9904,-960.69,-1343.57,-498.11
7720,-3.8439,0.1237,0.9900,-601.32,-1234.19,-607.48
7730,-3.8439,0.1272,0.9877,-163.82,-1281.07,-623.11
7740,-3.8439,0.1292,0.9862,289.31,-1577.88,-419.98
7750,-3.8439,0.1284,0.9851,539.31,-1765.38,-404.36
7760,-3.8439,0.1263,0.9835,445.56,-1906.01,-716.86
7770,-3.8439,0.1244,0.9835,179.93,1890.87,-888.73
7780,-3.8439,0.1226,0.9854,-70.07,1890.81,-919.98
7790,-3.8439,0.1215,0.9863,-304.44,-1874.82,-888.73
7800,-3.8439,0.1223,0.9860,-445.07,-1749.82,-748.11
7810,-3.8439,0.1223,0.9851,-335.69,-1796.69,-576.23
7820,-3.8439,0.1201,0.9845,-335.69,-1906.07,-513.73
7830,-3.8439,0.1166,0.9857,-616.94,-1984.19,-623.11
7840,-3.8439,0.1140,0.9875,-1070.07,-1827.94,-810.61
7850,-3.8439,0.1161,0.9875,-1398.19,-1593.57,-904.36
7860,-3.8439,0.1207,0.9865,-1132.57,-1593.57,-779.36
7870,-3.8439,0.1259,0.9861,-538.82,-1734.19,-544.98
7880,-3.8439,0.1299,0.9858,117.43,-1781.01,-373.11
7890,-3.8439,0.1306,0.9855,633.06,-1812.26,-201.23
7900,-3.8439,0.1277,0.9856,726.81,-1859.13,-29.36
7910,-3.8750,0.1218,0.9856,351.81,-1843.51,48.77
7920,-3.8439,0.1152,0.9868,-398.19,-1843.57,-76.23
7930,-3.8439,0.1105,0.9905,-1241.94,-1687.32,-201.23
7940,-3.8439,0.1112,0.9948,-1851.32,-1218.57,-216.86
7950,-3.8439,0.1173,0.9956,-1757.57,-671.69,-357.48
7960,-3.8439,0.1229,0.9922,-976.32,-562.32,-591.86
7970,-3.8439,0.1250,0.9873,-257.57,-999.82,-763.73
7980,-3.8439,0.1230,0.9843,8.06,-1624.76,-966.86
7990,-3.8439,0.1187,0.9838,-241.94,1984.56,-1154.36
8000,-3.8439,0.1156,0.9849,-804.44,1922.06,-1154.36
8010,-3.8439,0.1158,0.9863,-1195.07,-1937.32,-873.11
8020,-3.8439,0.1187,0.9877,-1163.82,-1749.82,-451.23
8030,-3.8439,0.1218,0.9883,-804.44,-1577.94,-138.73
8040,-3.8750,0.1217,0.9880,-398.19,-1499.82,17.52
8050,-3.8439,0.1183,0.9867,-413.82,-1531.07,-123.11
8060,-3.8439,0.1155,0.9846,-851.32,-1702.94,-466.86
8070,-3.8439,0.1163,0.9835,-1210.69,-1968.57,-919.98
8080,-3.8439,0.1210,0.9839,-1101.32,1890.81,-1451.23
8090,-3.8439,0.1267,0.9836,-507.57,1937.68,-1732.48
8100,-3.8439,0.1315,0.9825,226.81,1906.49,-1654.36
8110,-3.8439,0.1324,0.9823,836.18,1765.87,-1419.98
8120,-3.8439,0.1290,0.9828,961.18,1734.62,-1310.61
8130,-3.8439,0.1248,0.9833,523.68,1797.12,-1294.98
8140,-3.8439,0.1222,0.9846,-23.19,1859.56,-1091.86
8150,-3.8439,0.1216,0.9869,-351.32,-1968.57,-904.36
8160,-3.8439,0.1223,0.9882,-429.44,-1671.69,-873.11
8170,-3.8439,0.1248,0.9880,-335.69,-1515.44,-888.73
8180,-3.8439,0.1281,0.9869,-23.19,-1531.07,-779.36
8190,-3.8439,0.1304,0.9856,398.68,-1671.63,-529.36
8200,-3.8439,0.1313,0.9869,695.56,-1843.51,-310.61
8210,-3.8439,0.1299,0.9885,820.56,-1671.63,-341.86
8220,-3.8439,0.1257,0.9865,633.06,-1468.51,-638.73
8230,-3.8439,0.1221,0.9829,101.81,-1734.13,-763.73
8240,-3.8439,0.1188,0.9821,-366.94,1812.68,-591.86
8250,-3.8439,0.1155,0.9839,-788.82,1703.31,-466.86
8260,-3.8439,0.1146,0.9858,-1210.69,1937.68,-404.36
8270,-3.8439,0.1172,0.9869,-1320.07,-1812.32,-326.23
8280,-3.8439,0.1227,0.9872,-991.94,-1671.69,-310.61
8290,-3.8439,0.1296,0.9866,-288.82,-1640.44,-279.36
8300,-3.8439,0.1368,0.9854,601.81,-1718.51,-201.23
8310,-3.8439,0.1414,0.9841,1523.68,-1874.76,-91.86
8320,-3.8439,0.1404,0.9836,-1898.19,1968.99,-13.73
8330,-3.8439,0.1340,0.9847,1976.81,1906.49,-76.23
8340,-3.8439,0.1244,0.9866,1164.31,-1952.88,-373.11
8350,-3.8439,0.1157,0.9880,-70.07,-1718.57,-638.73
8360,-3.8439,0.1117,0.9891,-1179.44,-1531.07,-623.11
8370,-3.8439,0.1130,0.9889,-1695.07,-1390.44,-482.48
8380,-3.8439,0.1182,0.9872,-1523.19,-1421.69,-357.48
8390,-3.8439,0.1250,0.9858,-866.94,-1640.44,-201.23
8400,-3.8439,0.1315,0.9854,8.06,-1812.26,-138.73
8410,-3.8439,0.1357,0.9855,836.18,-1874.76,-169.98
8420,-3.8439,0.1368,0.9863,1383.06,-1859.13,-201.23
8430,-3.8439,0.1353,0.9875,1523.68,-1749.76,-154.36
8440,-3.8439,0.1333,0.9879,1320.56,-1593.51,-76.23
8450,-3.8439,0.1318,0.9871,1070.56,-1546.63,-216.86
8460,-3.8439,0.1310,0.9861,883.06,-1656.01,-560.61
8470,-3.8439,0.1318,0.9858,773.68,-1781.01,-841.86
8480,-3.8439,0.1334,0.9855,883.06,-1812.26,-951.23
8490,-3.8439,0.1345,0.9851,1086.18,-1859.13,-873.11
8500,-3.8439,0.1335,0.9851,1226.81,-1906.01,-701.23
8510,-3.8439,0.1301,0.9854,1101.81,-1906.01,-638.73
8520,-3.8439,0.1267,0.9860,664.31,-1874.76,-748.11
8530,-3.8439,0.1245,0.9869,226.81,-1796.63,-732.48
8540,-3.8439,0.1222,0.9878,-54.44,-1671.69,-591.86
8550,-3.8439,0.1199,0.9878,-351.32,-1562.32,-654.36
8560,-3.8439,0.1190,0.9879,-648.19,-1562.32,-794.98
8570,-3.8439,0.1191,0.9882,-757.57,-1546.69,-701.23
8580,-3.8439,0.1188,0.9883,-741.94,-1515.44,-404.36
8590,-3.8439,0.1177,0.9880,-788.82,-1499.82,-310.61
8600,-3.8439,0.1167,0.9867,-929.44,-1531.07,-404.36
8610,-3.8439,0.1176,0.9844,-1054.44,-1702.94,-419.98
8620,-3.8439,0.1198,0.9823,-945.07,-1999.82,-373.11
8630,-3.8439,0.1221,0.9822,-663.82,1734.56,-482.48
8640,-3.8439,0.1227,0.9841,-366.94,1718.93,-576.23
8650,-3.8439,0.1210,0.9856,-288.82,1968.93,-560.61
8660,-3.8439,0.1189,0.9860,-507.57,-1843.57,-638.73
8670,-3.8439,0.1194,0.9861,-773.19,-1796.69,-654.36
8680,-3.8439,0.1224,0.9857,-710.69,-1781.07,-576.23
8690,-3.8439,0.1252,0.9845,-320.07,-1827.94,-513.73
8700,-3.8439,0.1263,0.9834,39.31,-1984.13,-560.61
8710,-3.8439,0.1257,0.9829,179.93,1875.24,-685.61
8720,-3.8439,0.1243,0.9838,101.81,1812.74,-748.11
8730,-3.8439,0.1232,0.9846,-85.69,1922.06,-716.86
8740,-3.8439,0.1232,0.9846,-226.32,-1968.57,-654.36
8750,-3.8439,0.1229,0.9860,-226.32,-1968.57,-513.73
8760,-3.8439,0.1224,0.9874,-257.57,-1796.69,-373.11
8770,-3.8439,0.1226,0.9872,-320.07,-1609.19,-279.36
8780,-3.8439,0.1241,0.9878,-304.44,-1640.44,-185.61
8790,-3.8439,0.1267,0.9888,-101.32,-1562.32,-107.48
8800,-3.8439,0.1281,0.9901,226.81,-1437.26,-107.48
8810,-3.8439,0.1279,0.9921,398.68,-1265.38,-123.11
8820,-3.8439,0.1262,0.9932,383.06,-1015.38,-29.36
8830,-3.8750,0.1234,0.9932,164.31,-874.76,173.77
8840,-3.8750,0.1194,0.9929,-195.07,-874.82,330.02
8850,-3.8750,0.1152,0.9926,-710.69,-906.07,361.27
8860,-3.8750,0.1147,0.9905,-1241.94,-952.94,267.52
8870,-3.8750,0.1180,0.9863,-1304.44,-1218.57,142.52
8880,-3.8439,0.1226,0.9827,-882.57,-1749.82,-13.73
8890,-3.8439,0.1262,0.9822,-304.44,1781.43,-91.86
8900,-3.8439,0.1294,0.9829,164.31,1718.99,-154.36
8910,-3.8439,0.1323,0.9828,570.56,1812.74,-107.48
8920,-3.8750,0.1327,0.9823,945.56,1797.12,48.77
8930,-3.8750,0.1313,0.9819,992.43,1734.62,111.27
8940,-3.8750,0.1304,0.9828,820.56,1687.74,33.14
8950,-3.8439,0.1276,0.9850,695.56,1797.12,-29.36
8960,-3.8439,0.1226,0.9877,336.18,-1921.63,-91.86
8970,-3.8439,0.1189,0.9895,-304.44,-1577.94,-263.73
8980,-3.8439,0.1174,0.9897,-773.19,-1343.57,-310.61
8990,-3.8439,0.1195,0.9900,-960.69,-1312.32,-123.11
9000,-3.8750,0.1240,0.9912,-695.07,-1281.07,126.89
9010,-3.8750,0.1271,0.9905,-116.94,-1124.82,314.39
9020,-3.8750,0.1266,0.9871,273.68,-1218.51,376.89
9030,-3.8750,0.1243,0.9845,211.18,-1656.01,189.39
9040,-3.8439,0.1233,0.9832,-85.69,-1984.19,-216.86
9050,-3.8439,0.1243,0.9819,-210.69,1843.93,-669.98
9060,-3.8439,0.1262,0.9818,-85.69,1687.68,-982.48
9070,-3.8439,0.1273,0.9830,164.31,1672.12,-1076.23
9080,-3.8439,0.1285,0.9850,304.93,1828.37,-841.86
9090,-3.8439,0.1305,0.9873,461.18,-1921.63,-326.23
9100,-3.8750,0.1310,0.9890,711.18,-1624.76,126.89
9110,-3.8750,0.1294,0.9879,773.68,-1406.01,236.27
9120,-3.8750,0.1262,0.9851,570.56,-1546.63,142.52
9130,-3.8439,0.1241,0.9829,164.31,-1906.01,-91.86
9140,-3.8439,0.1239,0.9828,-101.32,1812.68,-498.11
9150,-3.8439,0.1229,0.9845,-132.57,1797.06,-826.23
9160,-3.8439,0.1219,0.9871,-257.57,-1984.19,-779.36
9170,-3.8439,0.1219,0.9893,-382.57,-1656.07,-591.86
9180,-3.8439,0.1207,0.9902,-382.57,-1374.82,-419.98
9190,-3.8439,0.1177,0.9905,-538.82,-1249.82,-263.73
9200,-3.8439,0.1155,0.9899,-929.44,-1218.57,-107.48
9210,-3.8750,0.1147,0.9885,-1210.69,-1296.69,142.52
9220,-3.8750,0.1134,0.9874,-1304.44,-1468.57,376.89
9230,-3.8750,0.1118,0.9869,-1476.32,-1609.19,470.64
9240,-3.8750,0.1113,0.9861,-1679.44,-1671.69,376.89
9250,-3.8750,0.1135,0.9854,-1741.94,-1781.07,283.14
9260,-3.8750,0.1167,0.9856,-1460.69,-1874.82,267.52
9270,-3.8750,0.1177,0.9856,-1054.44,-1843.57,189.39
9280,-3.8750,0.1160,0.9856,-929.44,-1843.57,48.77
9290,-3.8439,0.1146,0.9854,-1148.19,-1843.57,-29.36
9300,-3.8439,0.1174,0.9847,-1320.07,-1874.82,-91.86
9310,-3.8439,0.1239,0.9850,-960.69,-1952.94,-44.98
9320,-3.8750,0.1284,0.9863,-132.57,-1921.69,142.52
9330,-3.8750,0.1281,0.9880,445.56,-1749.76,251.89
9340,-3.8750,0.1257,0.9885,398.68,-1531.01,189.39
9350,-3.8750,0.1234,0.9866,101.81,-1468.51,126.89
9360,-3.8750,0.1222,0.9845,-195.07,-1718.57,126.89
9370,-3.8750,0.1219,0.9846,-351.32,-1984.19,95.64
9380,-3.8750,0.1217,0.9865,-382.57,-1968.57,17.52
9390,-3.8750,0.1213,0.9891,-413.82,-1734.19,64.39
9400,-3.8750,0.1213,0.9911,-460.69,-1390.44,220.64
9410,-3.8750,0.1217,0.9901,-460.69,-1140.44,298.77
9420,-3.8750,0.1211,0.9863,-413.82,-1265.44,173.77
9430,-3.8439,0.1199,0.9830,-491.94,-1749.82,-44.98
9440,-3.8439,0.1207,0.9822,-648.19,1828.31,-29.36
9450,-3.8750,0.1238,0.9840,-538.82,1718.93,95.64
9460,-3.8750,0.1263,0.9877,-148.19,1953.31,220.64
9470,-3.8750,0.1278,0.9908,179.93,-1577.88,455.02
9480,-3.8750,0.1277,0.9919,367.43,-1171.63,642.52
9490,-3.8750,0.1261,0.9913,351.81,-1031.01,376.89
9500,-3.8439,0.1256,0.9884,148.68,-1109.13,-169.98
9510,-3.8439,0.1265,0.9845,86.18,-1484.13,-638.73
9520,-3.8439,0.1266,0.9817,195.56,-1984.13,-919.98
9530,-3.8439,0.1245,0.9814,211.18,1656.49,-904.36
9540,-3.8439,0.1221,0.9839,-54.44,1625.18,-623.11
9550,-3.8439,0.1215,0.9856,-366.94,1937.68,-169.98
9560,-3.8750,0.1219,0.9858,-445.07,-1843.57,361.27
9570,-3.8750,0.1228,0.9877,-382.57,-1812.32,876.89
9580,-3.8750,0.1227,0.9926,-273.19,-1577.94,1548.77
9590,-3.8750,0.1212,0.9962,-288.82,-952.94,-1810.61
9600,-3.8750,0.1199,0.9950,-476.32,-484.19,-1763.73
9610,-3.8750,0.1196,0.9913,-648.19,-640.44,1845.64
9620,-3.8750,0.1207,0.9883,-679.44,-1109.19,1142.52
9630,-3.8750,0.1223,0.9847,-538.82,-1499.82,251.89
9640,-3.8439,0.1230,0.9805,-335.69,-1952.94,-451.23
9650,-3.8439,0.1213,0.9784,-241.94,1500.18,-685.61
9660,-3.8439,0.1190,0.9796,-460.69,1234.56,-654.36
9670,-3.8439,0.1177,0.9814,-757.57,1390.81,-513.73
9680,-3.8439,0.1168,0.9844,-929.44,1625.18,-60.61
9690,-3.8750,0.1180,0.9885,-1038.82,-1999.82,548.77
9700,-3.8750,0.1207,0.9923,-882.57,-1468.57,1064.39
9710,-3.8750,0.1224,0.9933,-538.82,-984.19,1501.89
9720,-3.8750,0.1221,0.9911,-320.07,-859.19,1767.52
9730,-3.8750,0.1218,0.9873,-366.94,-1140.44,1611.27
9740,-3.8750,0.1233,0.9838,-398.19,-1624.82,1220.64
9750,-3.8750,0.1246,0.9810,-210.69,1922.06,830.02
9760,-3.8750,0.1256,0.9790,-38.82,1562.68,673.77
9770,-3.8750,0.1263,0.9779,86.18,1312.74,861.27
9780,-3.8750,0.1284,0.9797,179.93,1172.12,1080.02
9790,-3.8750,0.1305,0.9846,445.56,1406.49,1017.52
9800,-3.8750,0.1287,0.9899,711.18,-1968.51,908.14
9810,-3.8750,0.1229,0.9930,476.81,-1296.63,1017.52
9820,-3.8750,0.1176,0.9935,-257.57,-890.44,1361.27
9830,-3.8750,0.1161,0.9912,-945.07,-827.94,1689.39
9840,-3.8750,0.1188,0.9878,-1132.57,-1124.82,1751.89
9850,-3.8750,0.1233,0.9855,-788.82,-1562.32,1486.27
9860,-3.8750,0.1282,0.9841,-210.69,-1859.19,1080.02
9870,-3.8750,0.1312,0.9825,414.31,1968.99,986.27
9880,-3.8750,0.1301,0.9816,804.93,1765.87,1298.77
9890,-3.8750,0.1239,0.9833,664.31,1640.87,1533.14
9900,-3.8750,0.1146,0.9862,-132.57,1859.56,1439.39
9910,-3.8750,0.1062,0.9884,-1320.07,-1765.44,1267.52
9920,-3.8750,0.1029,0.9882,1601.81,-1484.19,1267.52
9930,-3.8750,0.1073,0.9857,1179.93,-1515.44,1298.77
9940,-3.8750,0.1169,0.9821,1742.43,-1827.94,1267.52
9950,-3.8750,0.1260,0.9807,-1023.19,1703.31,1361.27
9960,-3.8750,0.1305,0.9828,133.06,1531.49,1533.14
9970,-3.8750,0.1294,0.9865,711.18,1797.12,1595.64
9980,-3.8750,0.1256,0.9891,570.56,-1734.13,1564.39
9990,-3.8750,0.1217,0.9884,86.18,-1390.38,1470.64
10000,-3.8750,0.1183,0.9852,-413.82,-1484.19,1251.89
10010,-3.8750,0.1167,0.9819,-851.32,-1890.44,861.27
10020,-3.8750,0.1177,0.9800,-1054.44,1687.68,486.27
10030,-3.8750,0.1215,0.9795,-929.44,1437.68,189.39
10040,-3.8750,0.1272,0.9805,-445.07,1375.18,95.64
10050,-3.8750,0.1320,0.9834,289.31,1500.24,267.52
10060,-3.8750,0.1342,0.9875,898.68,1875.24,611.27
10070,-3.8750,0.1360,0.9893,1179.93,-1593.51,1080.02
10080,-3.8750,0.1359,0.9889,1414.31,-1374.76,1486.27
10090,-3.8750,0.1326,0.9899,1398.68,-1421.63,1720.64
10100,-3.8750,0.1279,0.9911,976.81,-1296.63,1892.52
10110,-3.8750,0.1233,0.9906,383.06,-1140.38,1908.14
10120,-3.8750,0.1202,0.9896,-210.69,-1202.94,1876.89
10130,-3.8750,0.1200,0.9889,-601.32,-1327.94,1955.02
10140,-3.8750,0.1206,0.9891,-632.57,-1421.69,-1951.23
10150,-3.8750,0.1211,0.9901,-554.44,-1390.44,-1701.23
10160,-3.8750,0.1232,0.9921,-491.94,-1265.44,-1451.23
10170,-3.8750,0.1246,0.9927,-226.32,-1015.44,-1748.11
10180,-3.8750,0.1237,0.9895,-38.82,-937.32,-1685.61
10190,-3.8750,0.1206,0.9865,-163.82,-1343.57,-1107.48
10200,-3.8750,0.1173,0.9873,-554.44,-1734.19,-982.48
10210,-3.8750,0.1152,0.9897,-976.32,-1624.82,-1138.73
10220,-3.8750,0.1155,0.9902,-1241.94,-1312.32,-1419.98
10230,-3.8750,0.1189,0.9885,-1210.69,-1249.82,-1826.23
10240,-3.8750,0.1229,0.9855,-773.19,-1468.57,-1982.48
10250,-3.8750,0.1252,0.9841,-257.57,-1859.19,-1732.48
10260,-3.8750,0.1267,0.9845,39.31,1968.99,-1248.11
10270,-3.8750,0.1273,0.9844,226.81,-1984.13,-748.11
10280,-3.8750,0.1256,0.9840,304.93,-1999.76,-576.23
10290,-3.8750,0.1230,0.9849,86.18,1953.37,-794.98
10300,-3.8750,0.1206,0.9839,-241.94,-1937.32,-1310.61
10310,-3.8750,0.1178,0.9813,-554.44,1937.68,-1935.61
10320,-3.8750,0.1160,0.9818,-913.82,1609.56,1611.27
10330,-3.8750,0.1158,0.9854,-1148.19,1672.06,1486.27
10340,-3.8750,0.1167,0.9888,-1163.82,-1874.82,1705.02
10350,-3.8750,0.1171,0.9908,-1054.44,-1437.32,-1794.98
10360,-3.8750,0.1161,0.9921,-1007.57,-1171.69,-1154.36
10370,-3.8750,0.1161,0.9921,-1132.57,-1015.44,-701.23
10380,-3.8750,0.1178,0.9902,-1132.57,-1015.44,-591.86
10390,-3.8750,0.1199,0.9877,-913.82,-1249.82,-607.48
10400,-3.8750,0.1199,0.9865,-648.19,-1577.94,-763.73
10410,-3.8750,0.1166,0.9863,-648.19,-1734.19,-1107.48
10420,-3.8750,0.1122,0.9860,-1070.07,-1749.82,-1419.98
10430,-3.8750,0.1091,0.9855,-1632.57,-1796.69,-1701.23
10440,-3.8750,0.1082,0.9858,1976.81,-1859.19,-1935.61
10450,-3.8750,0.1079,0.9868,1851.81,-1812.32,-1998.11
10460,-3.8750,0.1069,0.9867,1820.56,-1687.32,-1998.11
10470,-3.8750,0.1071,0.9857,1695.56,-1702.94,1876.89
10480,-3.8750,0.1108,0.9850,1711.18,-1827.94,1689.39
10490,-3.8750,0.1160,0.9844,-1804.44,-1921.69,1736.27
10500,-3.8750,0.1189,0.9845,-1148.19,-1999.82,1892.52
10510,-3.8750,0.1199,0.9857,-773.19,-1984.19,1970.64
10520,-3.8750,0.1194,0.9874,-648.19,-1827.94,-1873.11
10530,-3.8750,0.1177,0.9893,-710.69,-1609.19,-1732.48
10540,-3.8750,0.1157,0.9899,-929.44,-1374.82,-1638.73
10550,-3.8750,0.1157,0.9886,-1179.44,-1296.69,-1560.61
10560,-3.8750,0.1171,0.9860,-1179.44,-1452.94,-1560.61
10570,-3.8750,0.1168,0.9836,-1007.57,-1796.69,-1654.36
10580,-3.8750,0.1152,0.9827,-1038.82,1906.43,-1716.86
10590,-3.8750,0.1141,0.9828,-1241.94,1781.43,-1638.73
10600,-3.8750,0.1128,0.9843,-1382.57,1797.06,-1544.98
10610,-3.8750,0.1113,0.9861,-1554.44,1984.56,-1638.73
10620,-3.8750,0.1105,0.9866,-1741.94,-1781.07,-1748.11
10630,-3.8750,0.1111,0.9849,-1851.32,-1718.57,-1826.23
10640,-3.8750,0.1141,0.9816,-1773.19,-1937.32,-1904.36
10650,-3.8750,0.1193,0.9789,-1382.57,1640.81,-1888.73
10660,-3.8750,0.1244,0.9797,-726.32,1297.06,-1857.48
10670,-3.8750,0.1281,0.9828,-70.07,1406.43,-1826.23
10680,-3.8750,0.1306,0.9851,398.68,1797.12,-1888.73
10690,-3.8750,0.1322,0.9863,726.81,-1906.01,1955.02
10700,-3.8750,0.1331,0.9854,929.93,-1749.76,1767.52
10710,-3.8750,0.1338,0.9845,1039.31,-1874.76,1720.64
10720,-3.8750,0.1335,0.9856,1133.06,-1984.13,1939.39
10730,-3.8750,0.1300,0.9875,1101.81,-1843.51,-1623.11
10740,-3.8750,0.1233,0.9882,648.68,-1593.51,-1185.61
10750,-3.8750,0.1179,0.9873,-210.69,-1515.44,-919.98
10760,-3.8750,0.1169,0.9868,-898.19,-1624.82,-951.23
10770,-3.8750,0.1182,0.9880,-1023.19,-1687.32,-1107.48
10780,-3.8750,0.1184,0.9891,-866.94,-1531.07,-1154.36
10790,-3.8750,0.1163,0.9891,-835.69,-1390.44,-904.36
10800,-3.8750,0.1133,0.9897,-1101.32,-1390.44,-513.73
10810,-3.8750,0.1106,0.9915,-1491.94,-1312.32,-341.86
10820,-3.8750,0.1089,0.9941,-1835.69,-1093.57,-404.36
10830,-3.8750,0.1095,0.9967,1945.56,-749.82,-826.23
10840,-3.8750,0.1127,0.9967,-1976.32,-421.69,-1341.86
10850,-3.8750,0.1177,0.9939,-1570.07,-421.69,-1607.48
10860,-3.8750,0.1232,0.9883,-929.44,-781.07,-1732.48
10870,-3.8750,0.1273,0.9817,-226.32,-1499.82,-1982.48
10880,-3.8750,0.1288,0.9778,304.93,1656.49,1548.77
10890,-3.8750,0.1276,0.9779,492.43,1156.49,970.64
10900,-3.8750,0.1237,0.9803,336.18,1172.12,658.14
10910,-3.8750,0.1171,0.9834,-163.82,1484.56,892.52
10920,-3.8750,0.1100,0.9857,-1007.57,1875.18,1376.89
10930,-3.8750,0.1052,0.9854,-1913.82,-1827.94,1876.89
10940,-3.8750,0.1030,0.9839,1476.81,-1874.82,-1732.48
10950,-3.8750,0.1031,0.9834,1195.56,1937.68,-1669.98
10960,-3.8750,0.1051,0.9849,1211.18,1875.18,-1810.61
10970,-3.8750,0.1061,0.9879,1461.18,-1937.32,-1888.73
10980,-3.8750,0.1038,0.9895,1586.18,-1546.69,-1810.61
10990,-3.8750,0.0991,0.9884,1289.31,-1343.57,-1513.73
11000,-3.8750,0.0950,0.9872,695.56,-1484.19,-1294.98
11010,-3.8750,0.0934,0.9868,164.31,-1640.44,-1435.61
11020,-3.8750,0.0953,0.9860,-38.82,-1687.38,-1654.36
11030,-3.8750,0.0984,0.9852,211.18,-1796.69,-1748.11
11040,-3.8750,0.1005,0.9845,601.81,-1890.44,-1873.11
11050,-3.8750,0.1021,0.9832,867.43,-1984.19,-1982.48
11060,-3.8750,0.1039,0.9827,1070.56,1843.93,-1857.48
11070,-3.8750,0.1067,0.9843,1304.93,1781.43,-1607.48
11080,-3.8750,0.1104,0.9874,1664.31,1984.56,-1373.11
11090,-3.8750,0.1138,0.9897,-1866.94,-1609.19,-1169.98
11100,-3.8750,0.1172,0.9877,-1429.44,-1312.32,-1044.98
11110,-3.8750,0.1204,0.9838,-991.94,-1577.94,-1029.36
11120,-3.8750,0.1219,0.9805,-585.69,1922.06,-1201.23
11130,-3.8750,0.1232,0.9780,-382.57,1500.18,-1529.36
11140,-3.8750,0.1257,0.9773,-226.32,1187.68,-1935.61
11150,-3.8750,0.1298,0.9785,101.81,1093.99,1658.14
11160,-3.8750,0.1361,0.9795,617.43,1250.24,1236.27
11170,-3.8750,0.1436,0.9792,1429.93,1375.24,705.02
11180,-3.8750,0.1490,0.9797,-1616.94,1343.99,173.77
11190,-3.8439,0.1469,0.9836,-913.82,1406.49,-29.36
11200,-3.8750,0.1398,0.9896,-1195.07,1906.49,517.52
11210,-3.8750,0.1375,0.9963,1898.68,-1327.88,1658.14
11220,-3.8750,0.1362,0.9996,1601.81,-468.51,-1216.86
11230,-3.8750,0.1278,0.9962,1445.56,-46.63,-732.48
11240,-3.8750,0.1154,0.9906,367.43,-484.13,-951.23
11250,-3.8750,0.1057,0.9877,-1226.32,-1202.94,-1310.61
11260,-3.8750,0.1014,0.9874,1539.31,-1577.94,-1591.86
11270,-3.8750,0.1008,0.9877,992.43,-1609.19,-1763.73
11280,-3.8750,0.1007,0.9874,914.31,-1577.94,-1732.48
11290,-3.8750,0.1000,0.9890,898.68,-1609.19,-1435.61
11300,-3.8750,0.1001,0.9933,804.93,-1406.07,-904.36
11310,-3.8750,0.1021,0.9962,820.56,-859.19,-341.86
11320,-3.8749,0.1050,0.9958,1070.56,-484.19,80.02
11330,-3.8749,0.1077,0.9934,1445.56,-531.07,111.27
11340,-3.8750,0.1100,0.9888,1789.31,-843.57,-466.86
11350,-3.8750,0.1130,0.9830,-1913.82,-1437.32,-1513.73
11360,-3.8750,0.1157,0.9789,-1523.19,1828.31,1392.52
11370,-3.8750,0.1172,0.9771,-1179.44,1297.06,548.77
11380,-3.8750,0.1185,0.9768,-991.94,1062.68,298.77
11390,-3.8750,0.1219,0.9791,-820.07,1031.43,705.02
11400,-3.8750,0.1257,0.9829,-382.57,1328.31,1298.77
11410,-3.8750,0.1277,0.9871,101.81,1812.74,1736.27
11420,-3.8750,0.1270,0.9908,351.81,-1656.01,1986.27
11430,-3.8750,0.1213,0.9932,258.06,-1171.63,-1794.98
11440,-3.8750,0.1129,0.9966,-460.69,-874.82,-1310.61
11450,-3.8750,0.1063,1.0001,-1538.82,-437.32,-810.61
11460,-3.8750,0.1040,1.0009,1617.43,15.81,-873.05
11470,-3.8750,0.1073,0.9980,1320.56,109.56,-1419.92
11480,-3.8750,0.1133,0.9912,1742.43,-249.82,1861.27
11490,-3.8750,0.1187,0.9844,-1491.94,-1124.82,1361.27
11500,-3.8750,0.1212,0.9813,-804.44,-1999.82,1142.52
11510,-3.8750,0.1217,0.9810,-476.32,1609.56,1064.39
11520,-3.8750,0.1218,0.9829,-413.82,1562.68,1345.64
11530,-3.8750,0.1204,0.9875,-398.19,1812.68,1876.89
11540,-3.8750,0.1176,0.9929,-585.69,-1593.57,-1732.48
11550,-3.8750,0.1139,0.9955,-945.07,-906.07,-1576.23
11560,-3.8750,0.1111,0.9939,-1413.82,-577.94,-1623.11
11570,-3.8750,0.1102,0.9893,-1773.19,-781.07,-1810.61
11580,-3.8750,0.1111,0.9865,-1882.57,-1374.82,1955.02
11590,-3.8750,0.1119,0.9871,-1773.19,-1734.19,1845.64
11600,-3.8750,0.1130,0.9880,-1663.82,-1656.07,1970.64
11610,-3.8750,0.1174,0.9872,-1523.19,-1531.07,-1748.11
11620,-3.8750,0.1228,0.9855,-960.69,-1640.44,-1435.61
11630,-3.8750,0.1240,0.9849,-273.19,-1859.19,-1357.48
11640,-3.8750,0.1216,0.9846,-116.94,-1937.32,-1544.98
11650,-3.8750,0.1180,0.9834,-429.44,-1968.57,-1794.98
11660,-3.8750,0.1155,0.9827,-882.57,1875.18,-1935.61
11670,-3.8750,0.1145,0.9840,-1210.69,1781.43,1892.52
11680,-3.8750,0.1141,0.9858,-1335.69,1953.31,1689.39
11690,-3.8750,0.1146,0.9871,-1382.57,-1812.32,1673.77
11700,-3.8750,0.1162,0.9861,-1320.07,-1656.07,1767.52
11710,-3.8750,0.1176,0.9839,-1116.94,-1781.07,1830.02
11720,-3.8750,0.1185,0.9834,-945.07,1937.68,1892.52
11730,-3.8750,0.1188,0.9841,-820.07,1875.18,1908.14
11740,-3.8750,0.1185,0.9854,-788.82,1968.93,-1998.11
11750,-3.8750,0.1188,0.9878,-820.07,-1874.82,-1701.23
11760,-3.8750,0.1188,0.9913,-788.82,-1562.32,-1294.98
11770,-3.8750,0.1213,0.9948,-788.82,-1109.19,-919.98
11780,-3.8750,0.1240,0.9948,-460.69,-671.69,-810.61
11790,-3.8750,0.1226,0.9897,-116.94,-671.69,-1123.11
11800,-3.8750,0.1205,0.9839,-304.44,-1312.32,-1623.11
11810,-3.8750,0.1205,0.9817,-570.07,1937.68,1861.27
11820,-3.8750,0.1204,0.9832,-570.07,1656.43,1470.64
11830,-3.8750,0.1191,0.9861,-585.69,1843.93,1298.77
11840,-3.8750,0.1200,0.9883,-741.94,-1781.07,1439.39
11850,-3.8750,0.1221,0.9883,-632.57,-1499.82,1658.14
11860,-3.8750,0.1222,0.9869,-366.94,-1499.82,1705.02
11870,-3.8750,0.1224,0.9857,-351.32,-1671.69,1736.27
11880,-3.8750,0.1241,0.9852,-320.07,-1827.94,1845.64
11890,-3.8750,0.1292,0.9854,-101.32,-1890.44,1939.39
11900,-3.8750,0.1350,0.9857,539.31,-1874.76,-1982.48
11910,-3.8750,0.1381,0.9854,1289.31,-1827.88,-1982.48
11920,-3.8750,0.1394,0.9839,1679.93,-1874.76,1970.64
11930,-3.8750,0.1390,0.9828,1851.81,1937.74,1939.39
11940,-3.8750,0.1337,0.9828,1804.93,1797.12,1970.64
11950,-3.8750,0.1256,0.9839,1117.43,1797.12,1923.77
11960,-3.8750,0.1198,0.9852,86.18,1937.74,1814.39
11970,-3.8750,0.1177,0.9860,-663.82,-1890.44,1642.52
11980,-3.8750,0.1187,0.9871,-929.44,-1796.69,1580.02
11990,-3.8750,0.1223,0.9882,-804.44,-1656.07,1658.14
12000,-3.8750,0.1274,0.9875,-335.69,-1515.44,1798.77
12010,-3.8750,0.1340,0.9857,320.56,-1593.51,-1966.86
12020,-3.8750,0.1403,0.9854,1164.31,-1827.88,-1763.73
12030,-3.8750,0.1437,0.9857,1961.18,-1874.76,-1841.86
12040,-3.8750,0.1438,0.9852,-1601.32,-1827.88,1861.27
12050,-3.8750,0.1405,0.9856,-1585.69,-1890.38,1564.39
12060,-3.8750,0.1340,0.9866,1992.43,-1843.51,1486.27
12070,-3.8750,0.1265,0.9865,1164.31,-1718.51,1517.52
12080,-3.8750,0.1217,0.9867,195.56,-1734.13,1626.89
12090,-3.8750,0.1223,0.9879,-413.82,-1702.94,1783.14
12100,-3.8750,0.1274,0.9867,-335.69,-1546.69,1689.39
12110,-3.8750,0.1329,0.9827,320.56,-1702.88,1330.02
12120,-3.8750,0.1359,0.9794,1023.68,1781.49,1048.77
12130,-3.8750,0.1362,0.9796,1398.68,1359.62,1095.64
12140,-3.8750,0.1351,0.9836,1445.56,1390.87,1470.64
12150,-3.8750,0.1334,0.9879,1304.93,1906.49,-1982.48
12160,-3.8750,0.1320,0.9900,1086.18,-1546.63,-1591.86
12170,-3.8750,0.1320,0.9888,898.68,-1281.01,-1451.23
12180,-3.8750,0.1315,0.9854,898.68,-1437.26,-1560.61
12190,-3.8750,0.1302,0.9828,836.18,-1874.76,-1966.86
12200,-3.8750,0.1300,0.9819,679.93,1797.12,1376.89
12210,-3.8750,0.1298,0.9819,648.68,1687.74,798.77
12220,-3.8750,0.1287,0.9841,617.43,1687.74,798.77
12230,-3.8750,0.1278,0.9869,476.81,1968.99,1345.64
12240,-3.8750,0.1270,0.9884,367.43,-1671.63,-1966.86
12250,-3.8750,0.1257,0.9882,258.06,-1484.13,-1419.98
12260,-3.8750,0.1241,0.9867,101.81,-1515.38,-1185.61
12270,-3.8750,0.1239,0.9856,-101.32,-1702.94,-1404.36
12280,-3.8750,0.1265,0.9846,-132.57,-1843.57,1955.02
12290,-3.8750,0.1307,0.9830,195.56,-1968.51,1330.02
12300,-3.8750,0.1353,0.9812,742.43,1828.37,1173.77
12310,-3.8750,0.1404,0.9816,1320.56,1593.99,1501.89
12320,-3.8750,0.1462,0.9840,1976.81,1640.87,1861.27
12330,-3.8750,0.1490,0.9847,-1273.19,1953.37,1923.77
12340,-3.8750,0.1466,0.9846,-913.82,-1952.88,1767.52
12350,-3.8750,0.1405,0.9855,-1226.32,-1968.51,1611.27
12360,-3.8750,0.1337,0.9872,1992.43,-1859.13,1501.89
12370,-3.8750,0.1298,0.9878,1117.43,-1640.38,1361.27
12380,-3.8750,0.1294,0.9862,617.43,-1562.26,1439.39
12390,-3.8750,0.1307,0.9847,570.56,-1765.38,1767.52
12400,-3.8750,0.1317,0.9847,742.43,-1952.88,-1966.86
12410,-3.8750,0.1323,0.9852,867.43,-1952.88,-1966.86
12420,-3.8750,0.1326,0.9857,945.56,-1890.38,-1982.48
12430,-3.8750,0.1317,0.9871,976.81,-1827.88,-1794.98
12440,-3.8750,0.1296,0.9895,867.43,-1656.01,-1513.73
12450,-3.8750,0.1281,0.9910,601.81,-1343.51,-1310.61
12460,-3.8750,0.1276,0.9899,398.68,-1156.01,-1294.98
12470,-3.8750,0.1272,0.9874,336.18,-1296.63,-1388.73
12480,-3.8750,0.1260,0.9858,289.31,-1609.13,-1607.48
12490,-3.8750,0.1249,0.9852,133.06,-1812.26,1986.27
12500,-3.8750,0.1255,0.9846,-7.57,-1890.44,1611.27
12510,-3.8750,0.1267,0.9851,70.56,-1968.51,1470.64
12520,-3.8750,0.1285,0.9863,226.81,-1906.01,1501.89
12530,-3.8750,0.1296,0.9873,461.18,-1749.76,1580.02
12540,-3.8750,0.1294,0.9873,601.81,-1624.76,1736.27
12550,-3.8750,0.1294,0.9866,570.56,-1624.76,1892.52
12560,-3.8750,0.1289,0.9872,570.56,-1718.51,-1919.98
12570,-3.8750,0.1290,0.9894,508.06,-1640.38,-1732.48
12580,-3.8750,0.1310,0.9896,523.68,-1359.13,-1748.11
12590,-3.8750,0.1328,0.9875,773.68,-1327.88,-1873.11
12600,-3.8750,0.1329,0.9849,1008.06,-1593.51,-1966.86
12610,-3.8750,0.1311,0.9835,1023.68,-1937.26,1939.39
12620,-3.8750,0.1285,0.9841,789.31,1890.87,1908.14
12630,-3.8750,0.1257,0.9847,461.18,1968.99,1830.02
12640,-3.8750,0.1238,0.9843,101.81,-1952.88,1736.27
12650,-3.8750,0.1254,0.9835,-148.19,1984.56,1689.39
12660,-3.8750,0.1293,0.9829,54.93,1890.87,1533.14
12670,-3.8750,0.1326,0.9822,554.93,1812.74,1251.89
12680,-3.8750,0.1349,0.9827,976.81,1718.99,1048.77
12690,-3.8750,0.1361,0.9835,1273.68,1781.49,1080.02
12700,-3.8750,0.1356,0.9838,1429.93,1890.87,1361.27
12710,-3.8750,0.1334,0.9845,1367.43,1922.12,1736.27
12720,-3.8750,0.1315,0.9861,1086.18,-1984.13,1986.27
12730,-3.8750,0.1310,0.9863,836.18,-1781.01,1923.77
12740,-3.8750,0.1317,0.9844,773.68,-1749.76,1626.89
12750,-3.8750,0.1338,0.9827,867.43,-1999.76,1361.27
12760,-3.8750,0.1362,0.9834,1133.06,1781.49,1361.27
12770,-3.8750,0.1372,0.9858,1445.56,1875.24,1501.89
12780,-3.8750,0.1377,0.9871,1570.56,-1812.26,1689.39
12790,-3.8750,0.1388,0.9873,1633.06,-1656.01,1923.77
12800,-3.8750,0.1387,0.9874,1773.68,-1624.76,-1982.48
12810,-3.8750,0.1351,0.9871,1758.06,-1609.13,1970.64
12820,-3.8750,0.1305,0.9867,1304.93,-1656.01,1830.02
12830,-3.8750,0.1288,0.9861,711.18,-1702.88,1548.77
12840,-3.8750,0.1298,0.9846,492.43,-1781.01,1439.39
12850,-3.8750,0.1307,0.9834,617.43,-1968.51,1673.77
12860,-3.8750,0.1312,0.9846,742.43,1875.24,1970.64
12870,-3.8750,0.1307,0.9868,804.93,-1968.51,-1654.36
12880,-3.8750,0.1298,0.9869,742.43,-1687.26,-1357.48
12890,-3.8750,0.1292,0.9856,617.43,-1671.63,-1357.48
12900,-3.8750,0.1284,0.9838,539.31,-1843.51,-1498.11
12910,-3.8750,0.1294,0.9825,445.56,1922.12,-1701.23
12920,-3.8750,0.1321,0.9822,570.56,1765.87,-1935.61
12930,-3.8750,0.1331,0.9814,914.31,1718.99,1767.52
12940,-3.8750,0.1313,0.9819,1039.31,1625.24,1595.64
12950,-3.8750,0.1288,0.9843,820.56,1687.74,1595.64
12960,-3.8750,0.1277,0.9847,492.43,1984.62,1595.64
12970,-3.8750,0.1301,0.9827,351.81,-1952.88,1548.77
12980,-3.8750,0.1331,0.9825,664.31,1781.49,1580.02
12990,-3.8750,0.1338,0.9838,1039.31,1765.87,1658.14
13000,-3.8750,0.1362,0.9851,1133.06,1922.12,1658.14
13010,-3.8750,0.1393,0.9877,1445.56,-1906.01,1705.02
13020,-3.8750,0.1384,0.9901,1836.18,-1577.88,1783.14
13030,-3.8750,0.1349,0.9899,1726.81,-1265.38,1736.27
13040,-3.8750,0.1329,0.9871,1273.68,-1296.63,1658.14
13050,-3.8750,0.1335,0.9843,1023.68,-1656.01,1611.27
13060,-3.8750,0.1346,0.9839,1101.81,1984.62,1548.77
13070,-3.8750,0.1334,0.9860,1242.43,1937.74,1533.14
13080,-3.8750,0.1312,0.9877,1086.18,-1796.63,1564.39
13090,-3.8750,0.1310,0.9878,804.93,-1577.88,1595.64
13100,-3.8750,0.1328,0.9874,773.68,-1562.26,1626.89
13110,-3.8750,0.1343,0.9868,1008.06,-1609.13,1595.64
13120,-3.8750,0.1339,0.9858,1195.56,-1687.26,1501.89
13130,-3.8750,0.1326,0.9843,1148.68,-1812.26,1408.14
13140,-3.8750,0.1318,0.9839,976.81,1984.62,1470.64
13150,-3.8750,0.1317,0.9852,883.06,1937.74,1642.52
13160,-3.8750,0.1318,0.9860,867.43,-1890.38,1783.14
13170,-3.8750,0.1332,0.9856,883.06,-1796.63,1892.52
13180,-3.8750,0.1355,0.9849,1054.93,-1843.51,-1998.11
13190,-3.8750,0.1364,0.9840,1351.81,-1937.26,-1857.48
13200,-3.8750,0.1346,0.9827,1461.18,1953.37,-1857.48
13210,-3.8750,0.1322,0.9823,1242.43,1781.49,1908.14
13220,-3.8750,0.1299,0.9824,929.93,1734.62,1548.77
13230,-3.8750,0.1294,0.9819,633.06,1750.24,1376.89
13240,-3.8750,0.1312,0.9817,570.56,1687.74,1470.64
13250,-3.8750,0.1332,0.9827,804.93,1656.49,1595.64
13260,-3.8750,0.1344,0.9849,1054.93,1781.49,1673.77
13270,-3.8750,0.1355,0.9867,1211.18,-1937.26,1595.64
13280,-3.8750,0.1346,0.9872,1351.81,-1702.88,1548.77
13290,-3.8750,0.1322,0.9868,1242.43,-1640.38,1642.52
13300,-3.8750,0.1321,0.9866,929.93,-1687.26,1798.77
13310,-3.8750,0.1327,0.9872,914.31,-1718.51,1892.52
13320,-3.8750,0.1306,0.9877,992.43,-1640.38,1908.14
13330,-3.8750,0.1283,0.9863,726.81,-1577.88,1908.14
13340,-3.8750,0.1290,0.9854,429.93,-1749.76,-1982.48
13350,-3.8750,0.1333,0.9866,523.68,-1874.76,-1919.98
13360,-3.8750,0.1375,0.9872,1070.56,-1718.51,1876.89
13370,-3.8750,0.1382,0.9852,1601.81,-1640.38,1611.27
13380,-3.8750,0.1350,0.9836,1695.56,-1890.38,1455.02
13390,-3.8750,0.1299,0.9833,1289.31,1906.49,1392.52
13400,-3.8750,0.1271,0.9819,633.06,1859.62,1392.52
13410,-3.8750,0.1283,0.9800,273.68,1687.74,1517.52
13420,-3.8750,0.1307,0.9802,429.93,1437.74,1736.27
13430,-3.8750,0.1329,0.9828,742.43,1468.99,1736.27
13440,-3.8750,0.1346,0.9845,1023.68,1797.12,1470.64
13450,-3.8750,0.1348,0.9846,1242.43,-1984.13,1345.64
13460,-3.8750,0.1317,0.9857,1258.06,-1968.51,1533.14
13470,-3.8750,0.1271,0.9871,867.43,-1827.88,1689.39
13480,-3.8750,0.1240,0.9871,273.68,-1656.01,1751.89
13490,-3.8750,0.1243,0.9873,-116.94,-1656.07,1876.89
13500,-3.8750,0.1270,0.9875,-85.69,-1624.82,1892.52
13510,-3.8750,0.1293,0.9862,258.06,-1593.51,1798.77
13520,-3.8750,0.1305,0.9841,554.93,-1765.38,1642.52
13530,-3.8750,0.1332,0.9823,711.18,1968.99,1361.27
13540,-3.8750,0.1372,0.9810,1054.93,1734.62,1064.39
13550,-3.8750,0.1398,0.9806,1570.56,1562.74,908.14
13560,-3.8750,0.1389,0.9817,1898.68,1515.87,955.02
13570,-3.8750,0.1367,0.9838,1789.31,1656.49,1126.89
13580,-3.8750,0.1362,0.9866,1508.06,1922.12,1501.89
13590,-3.8750,0.1372,0.9889,1445.56,-1718.51,1876.89
13600,-3.8750,0.1382,0.9889,1570.56,-1421.63,1908.14
13610,-3.8750,0.1390,0.9866,1695.56,-1421.63,1689.39
13620,-3.8750,0.1396,0.9835,1804.93,-1718.51,1595.64
13630,-3.8750,0.1393,0.9823,1883.06,1890.87,1673.77
13640,-3.8750,0.1392,0.9830,1836.18,1734.62,1720.64
13650,-3.8750,0.1404,0.9838,1820.56,1828.37,1642.52
13660,-3.8750,0.1415,0.9839,1976.81,1922.12,1564.39
13670,-3.8750,0.1415,0.9839,-1882.57,1937.74,1580.02
13680,-3.8750,0.1387,0.9844,-1882.57,1937.74,1580.02
13690,-3.8750,0.1328,0.9858,1758.06,-1999.76,1642.52
13700,-3.8750,0.1256,0.9874,1008.06,-1812.26,1908.14
13710,-3.8750,0.1200,0.9885,86.18,-1609.13,-1794.98
13720,-3.8750,0.1168,0.9889,-632.57,-1468.57,-1607.48
13730,-3.8750,0.1166,0.9888,-1038.82,-1421.69,-1638.73
13740,-3.8750,0.1195,0.9884,-1070.07,-1437.32,-1794.98
13750,-3.8750,0.1249,0.9867,-695.07,-1484.19,1955.02
13760,-3.8750,0.1312,0.9832,-7.57,-1702.94,1533.14
13770,-3.8750,0.1362,0.9789,804.93,1843.99,1251.89
13780,-3.8750,0.1387,0.9767,1445.56,1297.12,1345.64
13790,-3.8750,0.1378,0.9786,1758.06,1015.87,1548.77
13800,-3.8750,0.1350,0.9841,1648.68,1265.87,1845.64
13810,-3.8750,0.1328,0.9908,1289.31,1968.99,-1826.23
13820,-3.8750,0.1312,0.9940,1008.06,-1171.63,-1654.36
13830,-3.8750,0.1295,0.9916,804.93,-765.38,-1544.98
13840,-3.8750,0.1276,0.9863,586.18,-1077.88,-1576.23
13850,-3.8750,0.1261,0.9810,336.18,-1749.76,-1919.98
13860,-3.8750,0.1257,0.9762,148.68,1562.74,1455.02
13870,-3.8750,0.1257,0.9738,101.81,953.37,923.77
13880,-3.8750,0.1254,0.9753,101.81,640.87,783.14
13890,-3.8750,0.1250,0.9805,54.93,843.99,1142.52
13900,-3.8750,0.1238,0.9871,8.06,1500.24,1783.14
13910,-3.8750,0.1216,0.9933,-148.19,-1656.07,-1732.48
13920,-3.8750,0.1196,0.9979,-429.44,-859.19,-1498.11
13930,-3.8750,0.1191,0.9987,-679.44,-265.44,-1498.11
13940,-3.8750,0.1200,0.9961,-741.94,-171.69,-1544.98
13950,-3.8750,0.1210,0.9924,-632.57,-499.82,-1607.48
13960,-3.8750,0.1223,0.9888,-507.57,-968.57,-1810.61
13970,-3.8750,0.1262,0.9852,-335.69,-1437.32,1861.27
13980,-3.8750,0.1321,0.9825,164.31,-1890.38,1595.64
13990,-3.8750,0.1376,0.9823,914.31,1765.87,1439.39
14000,-3.8750,0.1406,0.9834,1617.43,1734.62,1314.39
14010,-3.8750,0.1412,0.9841,-1991.94,1875.24,1298.77
14020,-3.8750,0.1393,0.9838,-1913.82,1968.99,1439.39
14030,-3.8750,0.1354,0.9832,1836.18,1922.12,1564.39
14040,-3.8750,0.1312,0.9832,1336.18,1843.99,1580.02
14050,-3.8750,0.1298,0.9833,804.93,1843.99,1564.39
14060,-3.8750,0.1315,0.9849,617.43,1859.62,1595.64
14070,-3.8750,0.1337,0.9886,836.18,-1937.26,1736.27
14080,-3.8750,0.1339,0.9915,1117.43,-1452.88,1720.64
14090,-3.8750,0.1323,0.9905,1148.68,-1093.51,1564.39
14100,-3.8750,0.1295,0.9865,945.56,-1218.51,1548.77
14110,-3.8750,0.1260,0.9828,586.18,-1734.13,1658.14
14120,-3.8750,0.1234,0.9821,133.06,1797.12,1720.64
14130,-3.8750,0.1249,0.9836,-195.07,1703.31,1830.02
14140,-3.8750,0.1293,0.9851,-7.57,1906.43,-1919.98
14150,-3.8750,0.1338,0.9854,554.93,-1906.01,-1794.98
14160,-3.8750,0.1370,0.9850,1133.06,-1874.76,-1873.11
14170,-3.8750,0.1377,0.9850,1539.31,-1921.63,-1826.23
14180,-3.8750,0.1357,0.9852,1633.06,-1921.63,-1826.23
14190,-3.8750,0.1324,0.9850,1383.06,-1890.38,1939.39
14200,-3.8750,0.1295,0.9840,961.18,-1921.63,1564.39
14210,-3.8750,0.1272,0.9818,586.18,1953.37,1314.39
14220,-3.8750,0.1248,0.9807,289.31,1672.12,1330.02
14230,-3.8750,0.1238,0.9832,-23.19,1531.43,1580.02
14240,-3.8750,0.1251,0.9871,-148.19,1843.93,1783.14
14250,-3.8750,0.1272,0.9894,23.68,-1656.01,1939.39
14260,-3.8750,0.1295,0.9888,289.31,-1359.13,-1826.23
14270,-3.8750,0.1310,0.9877,586.18,-1437.26,-1701.23
14280,-3.8750,0.1296,0.9866,773.68,-1577.88,-1732.48
14290,-3.8750,0.1261,0.9847,601.81,-1718.51,-1857.48
14300,-3.8750,0.1217,0.9846,148.68,-1952.88,-1982.48
14310,-3.8750,0.1184,0.9861,-413.82,-1968.57,1861.27
14320,-3.8750,0.1172,0.9871,-835.69,-1781.07,1658.14
14330,-3.8750,0.1178,0.9868,-991.94,-1656.07,1673.77
14340,-3.8750,0.1195,0.9871,-913.82,-1687.32,1814.39
14350,-3.8750,0.1213,0.9875,-695.07,-1656.07,1814.39
14360,-3.8750,0.1233,0.9869,-460.69,-1593.57,1642.52
14370,-3.8750,0.1256,0.9860,-210.69,-1671.69,1564.39
14380,-3.8750,0.1277,0.9855,86.18,-1796.63,1611.27
14390,-3.8750,0.1289,0.9850,351.81,-1859.13,1736.27
14400,-3.8750,0.1300,0.9845,508.06,-1921.63,1814.39
14410,-3.8750,0.1302,0.9841,648.68,-1984.13,1861.27
14420,-3.8750,0.1288,0.9843,679.93,1968.99,1923.77
14430,-3.8750,0.1259,0.9851,492.43,1984.62,1876.89
14440,-3.8750,0.1216,0.9861,117.43,-1906.01,1830.02
14450,-3.8750,0.1176,0.9857,-429.44,-1781.07,1798.77
14460,-3.8750,0.1161,0.9852,-945.07,-1827.94,1736.27
14470,-3.8750,0.1183,0.9852,-1132.57,-1890.44,1611.27
14480,-3.8750,0.1234,0.9854,-851.32,-1890.44,1486.27
14490,-3.8750,0.1289,0.9865,-195.07,-1874.82,1423.77
14500,-3.8750,0.1331,0.9868,508.06,-1734.13,1439.39
14510,-3.8750,0.1346,0.9856,1039.31,-1687.26,1501.89
14520,-3.8750,0.1327,0.9851,1242.43,-1843.51,1642.52
14530,-3.8750,0.1285,0.9852,992.43,-1906.01,1798.77
14540,-3.8750,0.1243,0.9857,461.18,-1890.38,1861.27
14550,-3.8750,0.1227,0.9869,-85.69,-1827.94,1955.02
14560,-3.8750,0.1237,0.9883,-288.82,-1671.69,-1888.73
14570,-3.8750,0.1248,0.9896,-163.82,-1499.82,-1935.61
14580,-3.8750,0.1255,0.9900,-23.19,-1327.94,1845.64
14590,-3.8750,0.1254,0.9889,70.56,-1281.01,1798.77
14600,-3.8750,0.1238,0.9882,54.93,-1421.63,1970.64
14610,-3.8750,0.1218,0.9884,-148.19,-1515.44,-1919.98
14620,-3.8750,0.1206,0.9901,-398.19,-1484.19,-1888.73
14630,-3.8750,0.1216,0.9918,-554.44,-1265.44,-1904.36
14640,-3.8750,0.1245,0.9890,-429.44,-1046.69,1955.02
14650,-3.8750,0.1268,0.9821,-54.44,-1406.07,1705.02
14660,-3.8750,0.1285,0.9768,242.43,1703.37,1689.39
14670,-3.8750,0.1312,0.9768,461.18,1031.49,1923.77
14680,-3.8750,0.1345,0.9818,804.93,1031.49,-1841.86
14690,-3.8750,0.1371,0.9884,1226.81,1672.12,-1654.36
14700,-3.8750,0.1361,0.9918,1554.93,-1484.13,-1576.23
14710,-3.8750,0.1307,0.9908,1429.93,-1046.63,-1466.86
14720,-3.8750,0.1252,0.9882,742.43,-1171.63,-1388.73
14730,-3.8750,0.1224,0.9865,39.31,-1515.38,-1623.11
14740,-3.8750,0.1223,0.9863,-320.07,-1734.19,1955.02
14750,-3.8750,0.1228,0.9863,-335.69,-1749.82,1642.52
14760,-3.8750,0.1226,0.9861,-273.19,-1749.82,1548.77
14770,-3.8750,0.1211,0.9861,-304.44,-1781.07,1658.14
14780,-3.8750,0.1189,0.9857,-491.94,-1781.07,1798.77
14790,-3.8750,0.1182,0.9858,-773.19,-1827.94,-1966.86
14800,-3.8750,0.1178,0.9871,-866.94,-1812.32,-1748.11
14810,-3.8750,0.1184,0.9871,-913.82,-1656.07,-1841.86
14820,-3.8750,0.1228,0.9854,-835.69,-1656.07,1923.77
14830,-3.8750,0.1288,0.9839,-273.19,-1874.82,1736.27
14840,-3.8750,0.1324,0.9828,492.43,1937.74,1517.52
14850,-3.8750,0.1333,0.9835,961.18,1797.12,1345.64
14860,-3.8750,0.1324,0.9854,1070.56,1890.87,1189.39
14870,-3.8750,0.1316,0.9855,961.18,-1874.76,1017.52
14880,-3.8750,0.1305,0.9839,851.81,-1859.13,892.52
14890,-3.8750,0.1287,0.9829,711.18,1937.74,892.52
14900,-3.8750,0.1284,0.9836,476.81,1812.74,892.52
14910,-3.8750,0.1293,0.9857,445.56,1906.49,1017.52
14920,-3.8750,0.1282,0.9866,554.93,-1827.88,1376.89
14930,-3.8750,0.1254,0.9866,414.31,-1718.51,1783.14
14940,-3.8750,0.1237,0.9886,54.93,-1718.51,-1873.11
14950,-3.8750,0.1235,0.9896,-163.82,-1452.94,-1779.36
14960,-3.8750,0.1237,0.9878,-179.44,-1327.94,1986.27
14970,-3.8750,0.1235,0.9850,-163.82,-1562.32,1689.39
14980,-3.8750,0.1233,0.9832,-179.44,-1921.69,1455.02
14990,-3.8750,0.1241,0.9829,-210.69,1843.93,1173.77
15000,-3.8750,0.1249,0.9840,-101.32,1812.68,1048.77
15010,-3.8750,0.1248,0.9855,-7.57,1953.31,1251.89
15020,-3.8750,0.1246,0.9871,-23.19,-1859.19,1533.14
15030,-3.8750,0.1255,0.9872,-38.82,-1656.07,1705.02
15040,-3.8750,0.1278,0.9863,70.56,-1640.38,1830.02
15050,-3.8750,0.1302,0.9865,367.43,-1749.76,1892.52
15060,-3.8750,0.1327,0.9866,679.93,-1734.13,1845.64
15070,-3.8750,0.1356,0.9862,992.43,-1718.51,1767.52
15080,-3.8750,0.1368,0.9863,1367.43,-1765.38,1751.89
15090,-3.8750,0.1338,0.9869,1523.68,-1749.76,1767.52
15100,-3.8750,0.1274,0.9874,1133.06,-1671.63,1736.27
15110,-3.8750,0.1212,0.9866,320.56,-1609.13,1783.14
15120,-3.8750,0.1184,0.9845,-476.32,-1718.57,1798.77
15130,-3.8750,0.1190,0.9835,-835.69,-1984.19,1798.77
15140,-3.8750,0.1211,0.9854,-757.57,1890.81,-1998.11
15150,-3.8750,0.1230,0.9875,-491.94,-1874.82,-1841.86
15160,-3.8750,0.1255,0.9878,-241.94,-1593.57,-1904.36
15170,-3.8750,0.1300,0.9866,70.56,-1562.26,-1888.73
15180,-3.8750,0.1348,0.9857,648.68,-1718.51,-1716.86
15190,-3.8750,0.1365,0.9862,1258.06,-1827.88,-1623.11
15200,-3.8750,0.1356,0.9878,1476.81,-1765.38,-1591.86
15210,-3.8750,0.1334,0.9894,1367.43,-1562.26,-1607.48
15220,-3.8750,0.1296,0.9900,1086.18,-1359.13,-1779.36
15230,-3.8750,0.1248,0.9895,601.81,-1281.01,1970.64
15240,-3.8750,0.1206,0.9879,-23.19,-1343.57,1751.89
15250,-3.8750,0.1205,0.9857,-554.44,-1546.69,1673.77
15260,-3.8750,0.1256,0.9838,-570.07,-1827.94,1798.77
15270,-3.8750,0.1309,0.9834,86.18,1922.12,-1935.61
15280,-3.8750,0.1337,0.9852,758.06,1875.24,-1794.98
15290,-3.8750,0.1350,0.9861,1117.43,-1890.38,-1826.23
15300,-3.8750,0.1359,0.9851,1289.31,-1781.01,-1763.73
15310,-3.8750,0.1351,0.9838,1398.68,-1906.01,-1685.61
15320,-3.8750,0.1312,0.9822,1304.93,1922.12,-1748.11
15330,-3.8750,0.1241,0.9823,804.93,1718.99,-1919.98
15340,-3.8750,0.1182,0.9852,-101.32,1734.56,1876.89
15350,-3.8750,0.1161,0.9888,-866.94,-1890.44,1798.77
15360,-3.8750,0.1167,0.9904,-1132.57,-1437.32,1814.39
15370,-3.8750,0.1185,0.9889,-1054.44,-1234.19,1830.02
15380,-3.8750,0.1222,0.9832,-820.07,-1421.69,1736.27
15390,-3.8750,0.1278,0.9773,-351.32,1843.93,1611.27
15400,-3.8750,0.1329,0.9771,367.43,1093.99,1517.52
15410,-3.8750,0.1332,0.9814,1023.68,1062.74,1439.39
15420,-3.8750,0.1296,0.9865,1054.93,1625.24,1564.39
15430,-3.8750,0.1257,0.9902,601.81,-1734.13,1830.02
15440,-3.8750,0.1222,0.9915,101.81,-1249.76,1986.27
15450,-3.8750,0.1193,0.9904,-351.32,-1093.57,1986.27
15460,-3.8750,0.1168,0.9890,-726.32,-1234.19,1892.52
15470,-3.8750,0.1165,0.9874,-1038.82,-1406.07,1642.52
15480,-3.8750,0.1198,0.9854,-1085.69,-1609.19,1298.77
15490,-3.8750,0.1235,0.9840,-663.82,-1874.82,1205.02
15500,-3.8750,0.1254,0.9847,-179.44,1953.31,1486.27
15510,-3.8750,0.1255,0.9863,54.93,-1952.88,1908.14
15520,-3.8750,0.1245,0.9866,70.56,-1749.76,-1763.73
15530,-3.8750,0.1233,0.9854,-54.44,-1718.57,-1607.48
15540,-3.8750,0.1240,0.9838,-210.69,-1874.82,-1685.61
15550,-3.8750,0.1277,0.9829,-116.94,1922.06,-1904.36
15560,-3.8750,0.1324,0.9814,351.81,1812.74,1767.52
15570,-3.8750,0.1354,0.9791,961.18,1625.24,1470.64
15580,-3.8750,0.1348,0.9779,1336.18,1328.37,1283.14
15590,-3.8750,0.1317,0.9797,1258.06,1172.12,1345.64
15600,-3.8750,0.1282,0.9834,867.43,1406.49,1642.52
15610,-3.8750,0.1261,0.9867,414.31,1875.24,1986.27
15620,-3.8750,0.1248,0.9895,148.68,-1702.88,-1794.98
15630,-3.8750,0.1243,0.9913,-23.19,-1343.57,-1716.86
15640,-3.8750,0.1257,0.9911,-85.69,-1109.19,-1716.86
15650,-3.8750,0.1284,0.9886,101.81,-1140.38,-1794.98
15660,-3.8750,0.1302,0.9855,445.56,-1452.88,-1826.23
15670,-3.8750,0.1311,0.9840,679.93,-1859.13,-1779.36
15680,-3.8750,0.1300,0.9849,789.31,1953.37,-1779.36
15690,-3.8750,0.1266,0.9857,648.68,-1937.26,-1763.73
15700,-3.8750,0.1237,0.9867,211.18,-1827.88,-1623.11
15710,-3.8750,0.1228,0.9880,-163.82,-1702.94,-1623.11
15720,-3.8750,0.1238,0.9874,-273.19,-1531.07,-1951.23
15730,-3.8750,0.1261,0.9855,-148.19,-1609.19,1736.27
15740,-3.8750,0.1287,0.9844,148.68,-1859.13,1611.27
15750,-3.8750,0.1315,0.9849,476.81,-1999.76,1470.64
15760,-3.8750,0.1329,0.9856,836.18,-1937.26,1392.52
15770,-3.8750,0.1326,0.9850,1023.68,-1843.51,1501.89
15780,-3.8750,0.1327,0.9834,976.81,-1921.63,1736.27
15790,-3.8750,0.1332,0.9828,992.43,1875.24,1986.27
15800,-3.8750,0.1316,0.9838,1054.93,1797.12,-1857.48
15810,-3.8750,0.1278,0.9855,851.81,1922.12,-1826.23
15820,-3.8750,0.1232,0.9873,367.43,-1859.13,-1888.73
15830,-3.8750,0.1196,0.9886,-226.32,-1624.82,-1904.36
15840,-3.8750,0.1188,0.9894,-679.44,-1452.94,-1982.48
15850,-3.8750,0.1218,0.9890,-788.82,-1359.19,1845.64
15860,-3.8750,0.1256,0.9867,-398.19,-1406.07,1689.39
15870,-3.8750,0.1262,0.9835,86.18,-1702.88,1720.64
15880,-3.8750,0.1245,0.9832,164.31,1890.87,1861.27
15890,-3.8750,0.1219,0.9852,-54.44,1843.93,1783.14
15900,-3.8750,0.1187,0.9865,-382.57,-1890.44,1658.14
15910,-3.8750,0.1146,0.9865,-804.44,-1734.19,1642.52
15920,-3.8750,0.1123,0.9865,-1320.07,-1734.19,1626.89
15930,-3.8750,0.1151,0.9866,-1616.94,-1734.19,1486.27
15940,-3.8750,0.1207,0.9873,-1257.57,-1718.57,1314.39
15950,-3.8750,0.1252,0.9882,-538.82,-1624.82,1423.77
15960,-3.8750,0.1284,0.9888,39.31,-1515.38,1720.64
15970,-3.8750,0.1304,0.9879,445.56,-1437.26,1955.02
15980,-3.8750,0.1302,0.9863,695.56,-1546.63,-1919.98
15990,-3.8750,0.1292,0.9852,679.93,-1749.76,-1888.73
16000,-3.8750,0.1284,0.9844,539.31,-1890.38,-1982.48
16010,-3.8750,0.1281,0.9844,445.56,-1999.76,1861.27
16020,-3.8750,0.1278,0.9850,398.68,-1999.76,1611.27
16030,-3.8750,0.1270,0.9854,367.43,-1921.63,1361.27
16040,-3.8750,0.1260,0.9854,258.06,-1874.76,1220.64
16050,-3.8750,0.1254,0.9845,133.06,-1874.76,1205.02
16060,-3.8750,0.1262,0.9840,54.93,-1984.13,1251.89
16070,-3.8750,0.1260,0.9844,164.31,1953.37,1345.64
16080,-3.8750,0.1241,0.9841,133.06,-1999.76,1330.02
16090,-3.8750,0.1215,0.9829,-101.32,1968.93,1111.27
16100,-3.8750,0.1183,0.9812,-445.07,1812.68,892.52
16110,-3.8750,0.1189,0.9813,-851.32,1593.93,970.64
16120,-3.8750,0.1226,0.9846,-773.19,1609.56,1330.02
16130,-3.8750,0.1266,0.9890,-304.44,-1968.57,1767.52
16140,-3.8750,0.1290,0.9928,211.18,-1406.01,-1857.48
16150,-3.8750,0.1284,0.9935,523.68,-921.63,-1685.61
16160,-3.8750,0.1262,0.9908,445.56,-827.88,-1748.11
16170,-3.8750,0.1252,0.9875,164.31,-1171.63,1939.39
16180,-3.8750,0.1260,0.9846,39.31,-1593.51,1501.89
16190,-3.8750,0.1272,0.9834,133.06,-1968.51,1283.14
16200,-3.8750,0.1278,0.9846,289.31,1875.24,1345.64
16210,-3.8750,0.1259,0.9867,367.43,-1968.51,1486.27
16220,-3.8750,0.1217,0.9875,117.43,-1702.88,1689.39
16230,-3.8750,0.1193,0.9872,-413.82,-1593.57,1892.52
16240,-3.8750,0.1211,0.9861,-726.32,-1640.44,1986.27
16250,-3.8750,0.1254,0.9850,-491.94,-1781.07,1939.39
16260,-3.8750,0.1294,0.9835,54.93,-1921.63,1736.27
16270,-3.8750,0.1317,0.9812,570.56,1890.87,1470.64
16280,-3.8750,0.1332,0.9796,867.43,1593.99,1220.64
16290,-3.8750,0.1348,0.9806,1054.93,1390.87,1142.52
16300,-3.8750,0.1349,0.9836,1258.06,1515.87,1111.27
16310,-3.8750,0.1338,0.9868,1273.68,1906.49,1048.77
16320,-3.8750,0.1329,0.9878,1133.06,-1687.26,1126.89
16330,-3.8750,0.1310,0.9869,1023.68,-1562.26,1376.89
16340,-3.8750,0.1273,0.9860,773.68,-1671.63,1564.39
16350,-3.8750,0.1228,0.9856,304.93,-1796.63,1626.89
16360,-3.8750,0.1187,0.9872,-273.19,-1843.57,1580.02
16370,-3.8750,0.1160,0.9886,-804.44,-1640.44,1486.27
16380,-3.8750,0.1150,0.9882,-1148.19,-1452.94,1423.77
16390,-3.8750,0.1154,0.9851,-1273.19,-1515.44,1501.89
16400,-3.8750,0.1166,0.9834,-1226.32,-1906.07,-1998.11
16410,-3.8750,0.1185,0.9886,-1070.07,1875.18,1783.14
16420,-3.8750,0.1212,0.9948,-820.07,-1452.94,970.64
16430,-3.8750,0.1221,0.9939,-476.32,-671.69,1017.52
16440,-3.8750,0.1189,0.9893,-366.94,-781.07,1673.77
16450,-3.8750,0.1154,0.9865,-773.19,-1374.82,-1873.11
16460,-3.8750,0.1150,0.9856,-1226.32,-1734.19,-1998.11
16470,-3.8750,0.1189,0.9839,-1273.19,-1843.57,1486.27
16480,-3.8750,0.1262,0.9825,-773.19,1937.68,923.77
16490,-3.8750,0.1333,0.9827,164.31,1765.87,580.02
16500,-3.8750,0.1368,0.9825,1070.56,1781.49,517.52
16510,-3.8750,0.1370,0.9832,1523.68,1765.87,595.64
16520,-3.8750,0.1348,0.9854,1539.31,1843.99,798.77
16530,-3.8750,0.1305,0.9888,1258.06,-1874.76,1173.77
16540,-3.8750,0.1252,0.9921,711.18,-1437.26,1470.64
16550,-3.8750,0.1207,0.9924,39.31,-1015.38,1689.39
16560,-3.8750,0.1177,0.9906,-538.82,-968.57,1923.77
16570,-3.8750,0.1173,0.9888,-929.44,-1202.94,1955.02
16580,-3.8750,0.1199,0.9872,-976.32,-1437.32,1783.14
16590,-3.8750,0.1226,0.9863,-648.19,-1640.44,1486.27
16600,-3.8750,0.1237,0.9856,-304.44,-1749.82,1080.02
16610,-3.8750,0.1241,0.9841,-163.82,-1843.57,908.14
16620,-3.8750,0.1229,0.9829,-101.32,1968.93,1205.02
16630,-3.8750,0.1193,0.9835,-257.57,1812.68,1642.52
16640,-3.8750,0.1157,0.9849,-726.32,1890.81,-1998.11
16650,-3.8750,0.1155,0.9856,-1179.44,-1937.32,-1857.48
16660,-3.8750,0.1194,0.9863,-1210.69,-1843.57,-1951.23
16670,-3.8750,0.1262,0.9867,-710.69,-1749.82,1736.27
16680,-3.8750,0.1327,0.9851,164.31,-1702.88,1173.77
16690,-3.8750,0.1361,0.9836,992.43,-1906.01,720.64
16700,-3.8750,0.1361,0.9841,1429.93,1906.49,689.39
16710,-3.8750,0.1327,0.9872,1429.93,1968.99,1001.89
16720,-3.8750,0.1272,0.9912,992.43,-1640.38,1501.89
16730,-3.8750,0.1224,0.9926,289.31,-1124.76,1970.64
16740,-3.8750,0.1213,0.9894,-320.07,-952.94,-1919.98
16750,-3.8750,0.1228,0.9835,-460.69,-1359.19,1986.27
16760,-3.8750,0.1238,0.9806,-273.19,1890.81,1923.77
16770,-3.8750,0.1230,0.9823,-148.19,1515.81,1830.02
16780,-3.8750,0.1224,0.9863,-241.94,1734.56,1626.89
16790,-3.8750,0.1228,0.9888,-320.07,-1749.82,1408.14
16800,-3.8750,0.1235,0.9873,-273.19,-1437.32,1251.89
16810,-3.8750,0.1244,0.9832,-179.44,-1624.82,1173.77
16820,-3.8750,0.1255,0.9810,-70.07,1843.93,1236.27
16830,-3.8750,0.1246,0.9833,70.56,1562.74,1423.77
16840,-3.8750,0.1208,0.9872,-38.82,1859.56,1564.39
16850,-3.8750,0.1167,0.9902,-523.19,-1640.44,1736.27
16860,-3.8750,0.1146,0.9917,-1054.44,-1249.82,1908.14
16870,-3.8750,0.1154,0.9906,-1320.07,-1062.32,1970.64
16880,-3.8750,0.1174,0.9877,-1226.32,-1202.94,1939.39
16890,-3.8750,0.1199,0.9847,-960.69,-1577.94,1876.89
16900,-3.8750,0.1226,0.9836,-648.19,-1952.94,1861.27
16910,-3.8750,0.1237,0.9851,-304.44,1906.43,1986.27
16920,-3.8750,0.1234,0.9872,-163.82,-1906.07,-1685.61
16930,-3.8750,0.1212,0.9877,-195.07,-1640.44,-1419.98
16940,-3.8750,0.1156,0.9872,-476.32,-1577.94,-1404.36
16950,-3.8750,0.1111,0.9871,-1195.07,-1640.44,-1529.36
16960,-3.8750,0.1119,0.9873,-1773.19,-1656.07,-1857.48
16970,-3.8750,0.1162,0.9878,-1663.82,-1624.82,1830.02
16980,-3.8750,0.1216,0.9879,-1116.94,-1562.32,1908.14
16990,-3.8750,0.1265,0.9874,-429.44,-1546.69,-1888.73
17000,-3.8750,0.1274,0.9858,195.56,-1609.13,-1779.36
17010,-3.8750,0.1228,0.9841,320.56,-1812.26,-1763.73
17020,-3.8750,0.1176,0.9840,-273.19,1968.93,-1794.98
17030,-3.8750,0.1165,0.9844,-945.07,1953.31,-1826.23
17040,-3.8750,0.1184,0.9845,-1085.69,-1999.82,-1888.73
17050,-3.8750,0.1211,0.9854,-835.69,-1984.19,-1873.11
17060,-3.8750,0.1235,0.9871,-491.94,-1874.82,-1701.23
17070,-3.8750,0.1237,0.9880,-179.44,-1656.07,-1435.61
17080,-3.8750,0.1195,0.9885,-163.82,-1531.07,-1326.23
17090,-3.8750,0.1141,0.9889,-695.07,-1468.57,-1498.11
17100,-3.8750,0.1113,0.9878,-1382.57,-1421.69,-1794.98
17110,-3.8750,0.1118,0.9855,-1741.94,-1562.32,-1904.36
17120,-3.8750,0.1165,0.9844,-1679.44,-1859.19,-1763.73
17130,-3.8750,0.1239,0.9852,-1085.69,-1999.82,-1591.86
17140,-3.8750,0.1305,0.9865,-132.57,-1890.44,-1482.48
17150,-3.8750,0.1327,0.9869,711.18,-1734.13,-1451.23
17160,-3.8750,0.1304,0.9858,992.43,-1671.63,-1623.11
17170,-3.8750,0.1251,0.9838,695.56,-1812.26,-1982.48
17180,-3.8750,0.1199,0.9825,23.68,1922.12,1736.27
17190,-3.8750,0.1176,0.9840,-648.19,1765.81,1705.02
17200,-3.8750,0.1182,0.9869,-945.07,1953.31,1923.77
17210,-3.8750,0.1193,0.9889,-866.94,-1671.69,-1623.11
17220,-3.8750,0.1204,0.9890,-726.32,-1421.69,-1216.86
17230,-3.8750,0.1219,0.9879,-585.69,-1406.07,-1091.86
17240,-3.8750,0.1217,0.9873,-382.57,-1546.69,-1076.23
17250,-3.8750,0.1187,0.9873,-413.82,-1624.82,-1232.48
17260,-3.8750,0.1151,0.9863,-804.44,-1624.82,-1607.48
17270,-3.8750,0.1130,0.9857,-1257.57,-1749.82,-1919.98
17280,-3.8750,0.1123,0.9871,-1523.19,-1827.94,1970.64
17290,-3.8750,0.1135,0.9885,-1616.94,-1656.07,-1935.61
17300,-3.8750,0.1178,0.9889,-1460.69,-1468.57,-1701.23
17310,-3.8750,0.1229,0.9888,-913.82,-1421.69,-1404.36
17320,-3.8750,0.1249,0.9879,-257.57,-1437.32,-1279.36
17330,-3.8750,0.1241,0.9866,-7.57,-1546.69,-1326.23
17340,-3.8750,0.1219,0.9865,-101.32,-1718.57,-1419.98
17350,-3.8750,0.1189,0.9875,-382.57,-1734.19,-1544.98
17360,-3.8750,0.1158,0.9883,-773.19,-1593.57,-1701.23
17370,-3.8750,0.1138,0.9882,-1163.82,-1499.82,-1951.23
17380,-3.8750,0.1124,0.9877,-1429.44,-1515.44,1939.39
17390,-3.8750,0.1117,0.9879,-1601.32,-1577.94,-1904.36
17400,-3.8750,0.1117,0.9885,-1695.07,-1546.69,-1669.98
17410,-3.8750,0.1132,0.9885,-1695.07,-1468.57,-1466.86
17420,-3.8750,0.1165,0.9888,-1507.57,-1468.57,-1248.11
17430,-3.8750,0.1198,0.9883,-1085.69,-1437.32,-1185.61
17440,-3.8750,0.1215,0.9850,-663.82,-1499.82,-1373.11
17450,-3.8750,0.1207,0.9818,-445.07,-1921.69,-1560.61
17460,-3.8750,0.1199,0.9822,-538.82,1672.06,-1654.36
17470,-3.8750,0.1207,0.9849,-648.19,1718.93,-1794.98
17480,-3.8750,0.1228,0.9865,-538.82,-1937.32,-1888.73
17490,-3.8750,0.1243,0.9858,-273.19,-1734.19,-1857.48
17500,-3.8750,0.1246,0.9845,-85.69,-1812.32,-1716.86
17510,-3.8750,0.1240,0.9852,-38.82,-1984.19,-1482.48
17520,-3.8750,0.1218,0.9888,-116.94,-1890.44,-1294.98
17530,-3.8750,0.1183,0.9927,-398.19,-1437.32,-1263.73
17540,-3.8750,0.1147,0.9933,-851.32,-937.32,-1341.86
17550,-3.8750,0.1116,0.9905,-1304.44,-859.19,-1466.86
17560,-3.8750,0.1102,0.9871,-1710.69,-1218.57,-1544.98
17570,-3.8750,0.1116,0.9849,-1882.57,-1656.07,-1466.86
17580,-3.8750,0.1141,0.9844,-1710.69,-1937.32,-1341.86
17590,-3.8750,0.1179,0.9849,-1382.57,-1999.82,-1216.86
17600,-3.8750,0.1217,0.9852,-898.19,-1937.32,-1185.61
17610,-3.8750,0.1238,0.9851,-413.82,-1890.44,-1279.36
17620,-3.8750,0.1235,0.9861,-148.19,-1906.07,-1357.48
17630,-3.8750,0.1226,0.9866,-179.44,-1781.07,-1544.98
17640,-3.8750,0.1221,0.9849,-304.44,-1718.57,-1873.11
17650,-3.8750,0.1229,0.9824,-366.94,-1937.32,-1998.11
17660,-3.8750,0.1248,0.9828,-257.57,1750.18,-1873.11
17670,-3.8750,0.1257,0.9840,-23.19,1797.06,-1732.48
17680,-3.8750,0.1251,0.9836,101.81,1953.37,-1669.98
17690,-3.8750,0.1228,0.9834,23.68,1906.49,-1591.86
17700,-3.8750,0.1201,0.9844,-273.19,1875.18,-1451.23
17710,-3.8750,0.1180,0.9854,-616.94,-1999.82,-1341.86
17720,-3.8750,0.1180,0.9861,-882.57,-1874.82,-1263.73
17730,-3.8750,0.1202,0.9871,-882.57,-1781.07,-1232.48
17740,-3.8750,0.1211,0.9883,-601.32,-1656.07,-1201.23
17750,-3.8750,0.1190,0.9890,-491.94,-1499.82,-998.11
17760,-3.8750,0.1163,0.9878,-757.57,-1406.07,-841.86
17770,-3.8750,0.1152,0.9851,-1101.32,-1562.32,-1091.86
17780,-3.8750,0.1158,0.9817,-1241.94,-1906.07,-1576.23
17790,-3.8750,0.1165,0.9799,-1163.82,1656.43,-1857.48
17800,-3.8750,0.1152,0.9805,-1085.69,1422.06,-1873.11
17810,-3.8750,0.1134,0.9823,-1241.94,1500.18,-1638.73
17820,-3.8750,0.1128,0.9841,-1476.32,1734.56,-1279.36
17830,-3.8750,0.1144,0.9860,-1554.44,1968.93,-1154.36
17840,-3.8750,0.1180,0.9873,-1351.32,-1796.69,-1279.36
17850,-3.8750,0.1219,0.9872,-882.57,-1624.82,-1466.86
17860,-3.8750,0.1248,0.9866,-382.57,-1640.44,-1654.36
17870,-3.8750,0.1265,0.9868,-23.19,-1718.57,-1763.73
17880,-3.8750,0.1263,0.9863,195.56,-1687.26,-1841.86
17890,-3.8750,0.1241,0.9863,179.93,-1749.76,-1919.98
17900,-3.8750,0.1223,0.9885,-101.32,-1749.82,-1982.48
17910,-3.8750,0.1205,0.9913,-335.69,-1468.57,-1841.86
17920,-3.8750,0.1167,0.9932,-570.07,-1109.19,-1529.36
17930,-3.8750,0.1123,0.9928,-1054.44,-874.82,-1216.86
17940,-3.8750,0.1089,0.9908,-1616.94,-921.69,-998.11
17950,-3.8750,0.1078,0.9895,1945.56,-1171.69,-841.86
17960,-3.8750,0.1091,0.9902,1804.93,-1343.57,-638.73
17970,-3.8750,0.1099,0.9915,1976.81,-1249.82,-466.86
17980,-3.8750,0.1090,0.9905,-1929.44,-1093.57,-498.11
17990,-3.8750,0.1088,0.9875,1961.18,-1218.57,-716.86
18000,-3.8750,0.1106,0.9841,1929.93,-1593.57,-1091.86
18010,-3.8750,0.1127,0.9814,-1835.69,1968.93,-1482.48
18020,-3.8750,0.1129,0.9801,-1570.07,1625.18,-1716.86
18030,-3.8750,0.1119,0.9803,-1538.82,1453.31,-1748.11
18040,-3.8750,0.1117,0.9814,-1663.82,1484.56,-1513.73
18050,-3.8750,0.1132,0.9836,-1695.07,1625.18,-1138.73
18060,-3.8750,0.1158,0.9873,-1507.57,1906.43,-919.98
18070,-3.8750,0.1193,0.9906,-1163.82,-1624.82,-857.48
18080,-3.8750,0.1224,0.9902,-726.32,-1202.94,-919.98
18090,-3.8750,0.1249,0.9882,-320.07,-1249.82,-1076.23
18100,-3.8750,0.1276,0.9865,-7.57,-1515.44,-1404.36
18110,-3.8750,0.1292,0.9830,336.18,-1734.13,1986.27
18120,-3.8750,0.1282,0.9806,539.31,1828.37,1361.27
18130,-3.8750,0.1244,0.9829,414.31,1515.87,1095.64
18140,-3.8750,0.1202,0.9880,-70.07,1812.68,1392.52
18150,-3.8750,0.1188,0.9934,-601.32,-1531.07,1970.64
18160,-3.8750,0.1204,0.9967,-788.82,-843.57,-1451.23
18170,-3.8750,0.1227,0.9951,-585.69,-421.69,-1044.98
18180,-3.8750,0.1215,0.9891,-288.82,-624.82,-904.36
18190,-3.8750,0.1179,0.9838,-445.07,-1390.44,-919.98
18200,-3.8750,0.1152,0.9832,-898.19,1922.06,-1154.36
18210,-3.8750,0.1146,0.9856,-1241.94,1843.93,-1623.11
18220,-3.8750,0.1160,0.9879,-1320.07,-1843.57,-1998.11
18230,-3.8750,0.1190,0.9890,-1148.19,-1546.69,1955.02
18240,-3.8750,0.1210,0.9884,-757.57,-1406.07,-1888.73
18250,-3.8750,0.1202,0.9873,-507.57,-1484.19,-1654.36
18260,-3.8750,0.1180,0.9875,-601.32,-1624.82,-1404.36
18270,-3.8750,0.1161,0.9879,-882.57,-1593.57,-1294.98
18280,-3.8750,0.1146,0.9879,-1132.57,-1546.69,-1326.23
18290,-3.8750,0.1136,0.9884,-1320.07,-1546.69,-1357.48
18300,-3.8750,0.1147,0.9884,-1445.07,-1484.19,-1373.11
18310,-3.8750,0.1176,0.9868,-1304.44,-1484.19,-1373.11
18320,-3.8750,0.1191,0.9847,-945.07,-1687.32,-1373.11
18330,-3.8750,0.1185,0.9836,-741.94,-1952.94,-1357.48
18340,-3.8750,0.1171,0.9836,-820.07,1906.43,-1326.23
18350,-3.8750,0.1165,0.9839,-1007.57,1906.43,-1341.86
18360,-3.8750,0.1174,0.9851,-1085.69,1937.68,-1357.48
18370,-3.8750,0.1184,0.9869,-960.69,-1906.07,-1263.73
18380,-3.8750,0.1179,0.9879,-835.69,-1671.69,-1216.86
18390,-3.8750,0.1174,0.9868,-898.19,-1546.69,-1466.86
18400,-3.8750,0.1183,0.9839,-960.69,-1687.32,-1701.23
18410,-3.8750,0.1193,0.9816,-851.32,1937.68,-1716.86
18420,-3.8750,0.1188,0.9828,-726.32,1640.81,-1576.23
18430,-3.8750,0.1154,0.9867,-788.82,1797.06,-1279.36
18440,-3.8750,0.1105,0.9900,-1226.32,-1702.94,-1091.86
18450,-3.8750,0.1079,0.9904,-1851.32,-1281.07,-1044.98
18460,-3.8750,0.1073,0.9885,1820.56,-1234.19,-1044.98
18470,-3.8750,0.1083,0.9897,1742.43,-1468.57,-1013.73
18480,-3.8750,0.1113,0.9929,1867.43,-1312.32,-1044.98
18490,-3.8750,0.1140,0.9919,-1741.94,-906.07,-1263.73
18500,-3.8750,0.1139,0.9883,-1398.19,-1031.07,-1404.36
18510,-3.8750,0.1106,0.9855,-1413.82,-1499.82,-1373.11
18520,-3.8750,0.1061,0.9846,-1835.69,-1859.19,-1341.86
18530,-3.8750,0.1025,0.9862,1586.18,-1968.57,-1560.61
18540,-3.8750,0.1014,0.9895,1133.06,-1765.44,-1763.73
18550,-3.8750,0.1029,0.9919,992.43,-1343.57,-1685.61
18560,-3.8750,0.1055,0.9912,1179.93,-1031.07,-1701.23
18570,-3.8750,0.1097,0.9879,1508.06,-1124.82,-1716.86
18580,-3.8750,0.1165,0.9836,-1945.07,-1546.69,-1466.86
18590,-3.8750,0.1216,0.9810,-1085.69,1906.43,-1482.48
18600,-3.8750,0.1230,0.9816,-429.44,1562.68,-1544.98
18610,-3.8750,0.1243,0.9839,-241.94,1640.81,-1498.11
18620,-3.8750,0.1246,0.9850,-85.69,1937.68,-1685.61
18630,-3.8750,0.1216,0.9845,-38.82,-1921.69,1892.52
18640,-3.8750,0.1180,0.9844,-429.44,-1984.19,1564.39
18650,-3.8750,0.1167,0.9863,-882.57,-1999.82,1580.02
18660,-3.8750,0.1162,0.9879,-1054.44,-1749.82,1783.14
18670,-3.8750,0.1169,0.9875,-1116.94,-1546.69,1876.89
18680,-3.8750,0.1183,0.9874,-1023.19,-1593.57,1845.64
18690,-3.8750,0.1193,0.9889,-851.32,-1609.19,1986.27
18700,-3.8750,0.1196,0.9899,-726.32,-1421.69,-1826.23
18710,-3.8750,0.1204,0.9900,-679.44,-1296.69,-1638.73
18720,-3.8750,0.1219,0.9894,-585.69,-1281.07,-1544.98
18730,-3.8750,0.1238,0.9880,-382.57,-1359.19,-1560.61
18740,-3.8750,0.1254,0.9873,-148.19,-1531.07,-1513.73
18750,-3.8750,0.1254,0.9867,54.93,-1624.76,-1341.86
18760,-3.8750,0.1227,0.9868,54.93,-1702.88,-1216.86
18770,-3.8750,0.1180,0.9877,-288.82,-1687.32,-1154.36
18780,-3.8750,0.1135,0.9878,-882.57,-1577.94,-1216.86
18790,-3.8750,0.1132,0.9866,-1460.69,-1562.32,-1357.48
18800,-3.8750,0.1168,0.9856,-1507.57,-1718.57,-1341.86
18810,-3.8750,0.1193,0.9855,-1038.82,-1843.57,-1154.36
18820,-3.8750,0.1172,0.9861,-726.32,-1859.19,-966.86
18830,-3.8750,0.1123,0.9856,-991.94,-1781.07,-841.86
18840,-3.8750,0.1089,0.9821,-1616.94,-1843.57,-951.23
18850,-3.8750,0.1101,0.9799,1945.56,1703.31,-1498.11
18860,-3.8750,0.1147,0.9828,-1898.19,1422.06,1955.02
18870,-3.8750,0.1190,0.9856,-1304.44,1797.06,-1998.11
18880,-3.8750,0.1195,0.9856,-757.57,-1843.57,-1513.73
18890,-3.8750,0.1172,0.9867,-695.07,-1843.57,-873.11
18900,-3.8750,0.1156,0.9901,-991.94,-1702.94,-466.86
18910,-3.8750,0.1156,0.9929,-1195.07,-1265.44,-404.36
18920,-3.8750,0.1139,0.9929,-1195.07,-906.07,-638.73
18930,-3.8750,0.1119,0.9912,-1413.82,-906.07,-1154.36
18940,-3.8750,0.1118,0.9895,-1663.82,-1124.82,-1560.61
18950,-3.8750,0.1108,0.9874,-1679.44,-1343.57,-1716.86
18960,-3.8750,0.1091,0.9855,-1804.44,-1609.19,-1607.48
18970,-3.8750,0.1083,0.9857,1976.81,-1859.19,-1185.61
18980,-3.8750,0.1068,0.9883,1867.43,-1827.94,-685.61
18990,-3.8750,0.1055,0.9910,1679.93,-1499.82,-341.86
19000,-3.8750,0.1041,0.9913,1508.06,-1156.07,-138.73
19010,-3.8750,0.1024,0.9906,1336.18,-1109.19,-216.86
19020,-3.8750,0.1017,0.9890,1117.43,-1202.94,-560.61
19030,-3.8750,0.1017,0.9867,1023.68,-1406.07,-1013.73
19040,-3.8750,0.1021,0.9850,1023.68,-1702.94,-1419.98
19050,-3.8750,0.1041,0.9843,1070.56,-1921.69,-1560.61
19060,-3.8750,0.1067,0.9844,1336.18,1984.56,-1498.11
19070,-3.8750,0.1083,0.9847,1664.31,-1999.82,-1341.86
19080,-3.8750,0.1075,0.9849,1867.43,-1952.94,-1154.36
19090,-3.8750,0.1055,0.9852,1773.68,-1937.32,-951.23
19100,-3.8750,0.1042,0.9866,1508.06,-1890.44,-794.98
19110,-3.8750,0.1041,0.9884,1351.81,-1718.57,-763.73
19120,-3.8750,0.1058,0.9891,1336.18,-1484.19,-763.73
19130,-3.8750,0.1101,0.9885,1554.93,-1390.44,-873.11
19140,-3.8750,0.1140,0.9879,-1898.19,-1468.57,-1154.36
19150,-3.8750,0.1143,0.9871,-1398.19,-1546.69,-1341.86
19160,-3.8750,0.1130,0.9851,-1366.94,-1656.07,-1419.98
19170,-3.8750,0.1105,0.9844,-1523.19,-1906.07,-1373.11
19180,-3.8750,0.1045,0.9857,-1851.32,-1999.82,-1294.98
19190,-3.8750,0.0990,0.9874,1383.06,-1827.94,-1232.48
19200,-3.8750,0.0977,0.9883,679.93,-1609.19,-935.61
19210,-3.8750,0.0983,0.9885,508.06,-1499.82,-591.86
19220,-3.8750,0.0988,0.9888,586.18,-1468.57,-326.23
19230,-3.8750,0.0985,0.9884,648.68,-1437.32,-91.86
19240,-3.8749,0.0980,0.9874,617.43,-1484.19,64.39
19250,-3.8750,0.0988,0.9855,554.93,-1609.19,-91.86
19260,-3.8750,0.1014,0.9830,648.68,-1859.19,-498.11
19270,-3.8750,0.1058,0.9814,992.43,1828.31,-919.98
19280,-3.8750,0.1102,0.9806,1554.93,1625.18,-1154.36
19290,-3.8750,0.1143,0.9811,-1882.57,1515.81,-1123.11
19300,-3.8750,0.1168,0.9828,-1366.94,1578.31,-982.48
19310,-3.8750,0.1166,0.9841,-1038.82,1797.06,-888.73
19320,-3.8750,0.1135,0.9865,-1070.07,1968.93,-857.48
19330,-3.8750,0.1086,0.9907,-1460.69,-1734.19,-732.48
19340,-3.8750,0.1030,0.9933,1914.31,-1187.32,-560.61
19350,-3.8750,0.1001,0.9938,1195.56,-859.19,-529.36
19360,-3.8750,0.1003,0.9924,820.56,-796.69,-654.36
19370,-3.8750,0.1016,0.9918,851.81,-968.57,-685.61
19380,-3.8750,0.1016,0.9928,1008.06,-1046.69,-591.86
19390,-3.8750,0.1001,0.9928,1008.06,-921.69,-482.48
19400,-3.8750,0.0996,0.9917,820.56,-921.69,-357.48
19410,-3.8750,0.1003,0.9908,758.06,-1062.32,-216.86
19420,-3.8749,0.1023,0.9921,851.81,-1171.69,48.77
19430,-3.8749,0.1044,0.9937,1101.81,-1015.44,376.89
19440,-3.8749,0.1051,0.9938,1367.43,-812.32,470.64
19450,-3.8749,0.1047,0.9918,1461.18,-796.69,533.14
19460,-3.8749,0.1047,0.9893,1414.31,-1046.69,595.64
19470,-3.8749,0.1069,0.9889,1414.31,-1374.82,486.27
19480,-3.8749,0.1096,0.9882,1695.56,-1421.69,64.39
19490,-3.8750,0.1101,0.9847,-1960.69,-1515.44,-341.86
19500,-3.8750,0.1097,0.9806,-1898.19,-1952.94,-326.23
19510,-3.8749,0.1094,0.9803,-1945.07,1515.81,48.77
19520,-3.8749,0.1091,0.9836,-1991.94,1484.56,455.02
19530,-3.8749,0.1089,0.9861,1976.81,1906.43,595.64
19540,-3.8749,0.1088,0.9868,1945.56,-1781.07,423.77
19550,-3.8749,0.1083,0.9868,1929.93,-1687.32,251.89
19560,-3.8749,0.1067,0.9883,1867.43,-1687.32,158.14
19570,-3.8750,0.1049,0.9929,1664.31,-1499.82,-13.73
19580,-3.8749,0.1024,0.9955,1429.93,-906.07,142.52
19590,-3.8749,0.0995,0.9933,1117.43,-577.94,1205.02
19600,-3.8749,0.0969,0.9915,742.43,-859.19,-1763.73
19610,-3.8749,0.0950,0.9923,414.31,-1093.57,-1732.48
19620,-3.8749,0.0940,0.9929,164.31,-984.19,1970.64
19630,-3.8749,0.0950,0.9919,39.31,-906.07,1767.52
19640,-3.8749,0.0977,0.9900,164.31,-1031.07,1455.02
19650,-3.8749,0.1000,0.9873,508.06,-1281.07,1251.89
19660,-3.8749,0.1008,0.9844,804.93,-1624.82,1314.39
19670,-3.8749,0.1001,0.9829,914.31,-1999.82,1408.14
19680,-3.8749,0.0994,0.9835,820.56,1812.68,1439.39
19690,-3.8749,0.0999,0.9855,726.81,1890.81,1642.52
19700,-3.8749,0.1008,0.9888,789.31,-1859.19,1955.02
19710,-3.8749,0.1008,0.9924,914.31,-1437.32,-1794.98
19720,-3.8749,0.0999,0.9926,914.31,-968.57,-1482.48
19730,-3.8749,0.0984,0.9899,789.31,-952.94,-1310.61
19740,-3.8749,0.0979,0.9875,601.81,-1296.69,-1341.86
19750,-3.8749,0.0986,0.9874,539.31,-1593.57,-1294.98
19760,-3.8749,0.0985,0.9882,633.06,-1609.19,-1279.36
19770,-3.8749,0.0964,0.9866,617.43,-1515.44,-1279.36
19780,-3.8749,0.0940,0.9857,351.81,-1718.57,-1107.48
19790,-3.8749,0.0938,0.9873,39.31,-1827.94,-1091.86
19800,-3.8749,0.0952,0.9868,8.06,-1624.82,-1201.23
19810,-3.8749,0.0956,0.9841,195.56,-1687.32,-810.61
19820,-3.8749,0.0934,0.9821,242.43,1968.93,-201.23
19830,-3.8749,0.0903,0.9816,-38.82,1703.25,-91.86
19840,-3.8749,0.0885,0.9819,-429.44,1640.75,-373.11
19850,-3.8749,0.0887,0.9827,-663.82,1687.62,-482.48
19860,-3.8749,0.0897,0.9834,-632.57,1781.37,-513.73
19870,-3.8749,0.0909,0.9830,-507.57,1875.12,-498.11
19880,-3.8749,0.0918,0.9817,-351.32,1828.25,-201.23
19890,-3.8748,0.0916,0.9834,-241.94,1656.37,251.89
19900,-3.8748,0.0909,0.9866,-273.19,1875.12,486.27
19910,-3.8748,0.0912,0.9871,-351.32,-1718.63,564.39
19920,-3.8748,0.0930,0.9863,-320.07,-1656.13,798.77
19930,-3.8748,0.0941,0.9865,-85.69,-1749.88,1017.52
19940,-3.8748,0.0930,0.9872,54.93,-1734.19,986.27
19950,-3.8748,0.0918,0.9865,-85.69,-1640.50,736.27
19960,-3.8748,0.0917,0.9849,-241.94,-1734.25,423.77
19970,-3.8748,0.0930,0.9851,-257.57,-1937.38,189.39
19980,-3.8748,0.0953,0.9867,-85.69,-1906.13,251.89
19990,-3.8748,0.0958,0.9880,211.18,-1702.94,611.27
20000,-3.8748,0.0929,0.9883,273.68,-1531.07,1017.52
20010,-3.8748,0.0886,0.9879,-101.32,-1499.88,1236.27
20020,-3.8748,0.0865,0.9873,-648.19,-1546.75,1283.14
20030,-3.8748,0.0873,0.9866,-913.82,-1624.88,1220.64
20040,-3.8748,0.0896,0.9861,-820.07,-1718.63,1064.39
20050,-3.8748,0.0911,0.9860,-523.19,-1781.13,1001.89
20060,-3.8748,0.0914,0.9861,-335.69,-1796.75,1033.14
20070,-3.8748,0.0917,0.9862,-288.82,-1781.13,1095.64
20080,-3.8748,0.0909,0.9862,-257.57,-1765.50,1189.39
20090,-3.8748,0.0896,0.9880,-351.32,-1765.50,1267.52
20100,-3.8748,0.0895,0.9893,-523.19,-1531.13,1220.64
20110,-3.8748,0.0903,0.9883,-538.82,-1374.88,1111.27
20120,-3.8748,0.0905,0.9872,-429.44,-1499.88,955.02
20130,-3.8748,0.0891,0.9862,-413.82,-1640.50,923.77
20140,-3.8748,0.0885,0.9865,-585.69,-1765.50,1111.27
20150,-3.8748,0.0902,0.9886,-663.82,-1734.25,1189.39
20160,-3.8748,0.0935,0.9890,-445.07,-1453.00,1048.77
20170,-3.8748,0.0963,0.9858,-23.19,-1406.13,783.14
20180,-3.8748,0.0985,0.9817,336.18,-1812.32,611.27
20190,-3.8748,0.0999,0.9795,617.43,1656.43,767.52
20200,-3.8748,0.1002,0.9805,789.31,1375.18,1017.52
20210,-3.8748,0.0996,0.9828,836.18,1500.18,1080.02
20220,-3.8748,0.0986,0.9855,758.06,1797.06,814.39
20230,-3.8748,0.0980,0.9868,633.06,-1859.19,392.52
20240,-3.8748,0.0974,0.9868,554.93,-1687.32,189.39
20250,-3.8748,0.0973,0.9867,476.81,-1687.32,189.39
20260,-3.8748,0.0964,0.9866,461.18,-1702.94,251.89
20270,-3.8748,0.0953,0.9875,351.81,-1718.57,423.77
20280,-3.8748,0.0927,0.9894,211.18,-1593.57,642.52
20290,-3.8748,0.0875,0.9916,-132.57,-1359.25,861.27
20300,-3.8748,0.0828,0.9948,-788.82,-1078.00,1111.27
20310,-3.8748,0.0796,0.9956,-1398.19,-671.75,1267.52
20320,-3.8748,0.0778,0.9926,-1804.44,-562.38,1173.77
20330,-3.8748,0.0776,0.9877,1961.18,-953.00,1095.64
20340,-3.8748,0.0808,0.9824,1945.56,-1578.00,1220.64
20350,-3.8748,0.0867,0.9790,-1648.19,1750.12,1267.52
20360,-3.8748,0.0922,0.9799,-898.19,1312.62,1158.14
20370,-3.8748,0.0956,0.9844,-195.07,1422.00,1017.52
20380,-3.8748,0.0968,0.9888,242.43,-1999.82,970.64
20390,-3.8748,0.0957,0.9902,398.68,-1437.32,955.02
20400,-3.8748,0.0930,0.9888,258.06,-1249.82,830.02
20410,-3.8748,0.0902,0.9866,-85.69,-1437.38,705.02
20420,-3.8748,0.0891,0.9847,-445.07,-1718.63,720.64
20430,-3.8748,0.0894,0.9847,-585.69,-1953.00,830.02
20440,-3.8748,0.0895,0.9860,-554.44,-1953.00,970.64
20450,-3.8748,0.0900,0.9863,-538.82,-1796.75,1017.52
20460,-3.8748,0.0912,0.9851,-476.32,-1749.88,1048.77
20470,-3.8748,0.0924,0.9836,-320.07,-1906.13,1126.89
20480,-3.8748,0.0923,0.9872,-163.82,1906.37,1298.77
20490,-3.8748,0.0902,0.9935,-179.44,-1640.50,1314.39
20500,-3.8748,0.0879,0.9950,-445.07,-828.00,986.27
20510,-3.8748,0.0867,0.9924,-741.94,-640.50,736.27
20520,-3.8748,0.0856,0.9889,-898.19,-968.63,564.39
20530,-3.8748,0.0848,0.9861,-1038.82,-1421.75,283.14
20540,-3.8748,0.0856,0.9843,-1132.57,-1781.13,95.64
20550,-3.8748,0.0880,0.9845,-1038.82,1984.50,64.39
20560,-3.8748,0.0916,0.9862,-726.32,-1984.25,220.64
20570,-3.8748,0.0942,0.9863,-273.19,-1765.50,548.77
20580,-3.8748,0.0952,0.9856,70.56,-1749.82,970.64
20590,-3.8748,0.0946,0.9854,195.56,-1843.57,1283.14
20600,-3.8748,0.0912,0.9857,117.43,-1874.82,1345.64
20610,-3.8748,0.0862,0.9856,-320.07,-1828.00,1126.89
20620,-3.8748,0.0828,0.9844,-960.69,-1843.63,736.27
20630,-3.8748,0.0803,0.9834,-1398.19,-1999.88,439.39
20640,-3.8748,0.0793,0.9840,-1710.69,1875.12,298.77
20650,-3.8748,0.0823,0.9861,-1835.69,1953.25,189.39
20660,-3.8748,0.0886,0.9890,-1460.69,-1781.13,220.64
20670,-3.8748,0.0950,0.9915,-648.19,-1406.13,439.39
20680,-3.8748,0.0984,0.9913,164.31,-1093.57,658.14
20690,-3.8748,0.0989,0.9885,601.81,-1109.19,861.27
20700,-3.8748,0.0977,0.9850,664.31,-1468.57,783.14
20710,-3.8748,0.0948,0.9838,508.06,-1921.69,548.77
20720,-3.8748,0.0903,0.9847,148.68,1922.06,595.64
20730,-3.8748,0.0854,0.9860,-429.44,-1953.00,814.39
20740,-3.8748,0.0824,0.9871,-1054.44,-1796.75,986.27
20750,-3.8748,0.0819,0.9878,-1445.07,-1656.13,923.77
20760,-3.8748,0.0846,0.9879,-1507.57,-1562.38,705.02
20770,-3.8748,0.0908,0.9862,-1163.82,-1546.75,501.89
20780,-3.8748,0.0975,0.9841,-366.94,-1765.50,408.14
20790,-3.8748,0.1017,0.9843,492.43,1968.93,470.64
20800,-3.8748,0.1010,0.9862,1023.68,1984.56,564.39
20810,-3.8748,0.0958,0.9895,929.93,-1765.44,736.27
20820,-3.8748,0.0879,0.9918,273.68,-1343.57,892.52
20830,-3.8748,0.0792,0.9918,-741.94,-1046.75,798.77
20840,-3.8748,0.0735,0.9910,-1851.32,-1046.75,564.39
20850,-3.8748,0.0728,0.9912,1414.31,-1156.13,439.39
20860,-3.8748,0.0760,0.9933,1320.56,-1124.88,517.52
20870,-3.8748,0.0811,0.9938,1742.43,-859.25,798.77
20880,-3.8748,0.0863,0.9899,-1616.94,-796.75,1017.52
20890,-3.8748,0.0922,0.9830,-945.07,-1296.75,1001.89
20900,-3.8748,0.0975,0.9784,-195.07,1828.25,845.64
20910,-3.8748,0.0997,0.9786,492.43,1234.56,642.52
20920,-3.8748,0.0994,0.9822,773.68,1265.81,439.39
20930,-3.8748,0.0980,0.9854,726.81,1718.93,220.64
20940,-3.8748,0.0962,0.9872,554.93,-1874.82,33.14
20950,-3.8749,0.0941,0.9880,320.56,-1640.44,-29.36
20960,-3.8748,0.0919,0.9885,54.93,-1531.07,80.02
20970,-3.8748,0.0902,0.9891,-226.32,-1468.63,439.39
20980,-3.8748,0.0891,0.9896,-445.07,-1390.50,955.02
20990,-3.8748,0.0890,0.9912,-585.69,-1328.00,1533.14
21000,-3.8748,0.0905,0.9934,-601.32,-1124.88,1908.14
21010,-3.8748,0.0914,0.9941,-413.82,-843.63,1986.27
21020,-3.8748,0.0905,0.9928,-288.82,-749.88,1908.14
21030,-3.8748,0.0885,0.9900,-413.82,-921.75,1736.27
21040,-3.8748,0.0875,0.9860,-663.82,-1281.13,1501.89
21050,-3.8748,0.0883,0.9829,-788.82,-1796.75,1142.52
21060,-3.8748,0.0900,0.9817,-695.07,1812.62,861.27
21070,-3.8748,0.0912,0.9822,-476.32,1656.37,736.27
21080,-3.8748,0.0927,0.9854,-320.07,1718.87,767.52
21090,-3.8748,0.0938,0.9894,-132.57,-1874.88,1048.77
21100,-3.8748,0.0941,0.9919,8.06,-1359.19,1267.52
21110,-3.8748,0.0941,0.9921,54.93,-1031.07,1205.02
21120,-3.8748,0.0936,0.9882,54.93,-1015.44,876.89
21130,-3.8748,0.0924,0.9819,-7.57,-1515.50,517.52
21140,-3.8748,0.0906,0.9779,-163.82,1687.62,376.89
21150,-3.8748,0.0905,0.9791,-398.19,1172.00,330.02
21160,-3.8748,0.0927,0.9840,-413.82,1328.25,486.27
21170,-3.8748,0.0952,0.9889,-132.57,1953.25,830.02
21180,-3.8748,0.0970,0.9905,195.56,-1421.69,1126.89
21190,-3.8748,0.0979,0.9885,429.93,-1218.57,1236.27
21200,-3.8748,0.0980,0.9862,539.31,-1468.57,1173.77
21210,-3.8748,0.0977,0.9849,554.93,-1765.44,814.39
21220,-3.8748,0.0972,0.9838,508.06,-1937.32,283.14
21230,-3.8749,0.0951,0.9841,445.56,1922.06,-107.48
21240,-3.8749,0.0919,0.9868,179.93,1968.93,-294.98
21250,-3.8749,0.0905,0.9897,-226.32,-1687.38,-263.73
21260,-3.8748,0.0903,0.9906,-413.82,-1312.38,1.89
21270,-3.8748,0.0907,0.9884,-429.44,-1203.00,376.89
21280,-3.8748,0.0918,0.9849,-382.57,-1484.25,642.52
21290,-3.8748,0.0934,0.9819,-241.94,-1937.38,767.52
21300,-3.8748,0.0948,0.9805,-38.82,1687.62,751.89
21310,-3.8748,0.0944,0.9805,148.68,1500.18,626.89
21320,-3.8748,0.0927,0.9811,86.18,1500.18,517.52
21330,-3.8748,0.0905,0.9833,-132.57,1578.25,455.02
21340,-3.8748,0.0884,0.9872,-413.82,1859.50,345.64
21350,-3.8748,0.0880,0.9899,-679.44,-1640.50,17.52
21360,-3.8749,0.0875,0.9904,-726.32,-1296.75,-419.98
21370,-3.8749,0.0847,0.9907,-788.82,-1234.25,-779.36
21380,-3.8749,0.0822,0.9883,-1148.19,-1187.38,-1294.98
21390,-3.8749,0.0865,0.9823,-1476.32,-1499.88,-1607.48
21400,-3.8749,0.0994,0.9805,-913.82,1734.50,-1107.48
21410,-3.8749,0.1141,0.9856,726.81,1500.18,-169.98
21420,-3.8748,0.1240,0.9921,-1382.57,-1843.57,705.02
21430,-3.8748,0.1237,0.9948,-116.94,-1015.44,1408.14
21440,-3.8748,0.1132,0.9935,-163.82,-671.69,-1935.61
21450,-3.8748,0.0980,0.9904,-1507.57,-827.94,-1544.98
21460,-3.8748,0.0842,0.9869,554.93,-1234.19,-1591.86
21470,-3.8748,0.0775,0.9851,-1210.69,-1671.75,1970.64
21480,-3.8748,0.0779,0.9850,1929.93,-1906.13,1423.77
21490,-3.8748,0.0819,0.9855,1976.81,-1921.75,876.89
21500,-3.8748,0.0875,0.9843,-1507.57,-1859.25,486.27
21510,-3.8748,0.0933,0.9817,-788.82,1984.50,423.77
21520,-3.8748,0.0968,0.9805,-54.44,1656.37,564.39
21530,-3.8748,0.0979,0.9810,398.68,1500.18,767.52
21540,-3.8748,0.0979,0.9821,539.31,1562.68,939.39
21550,-3.8748,0.0973,0.9847,539.31,1703.31,1189.39
21560,-3.8748,0.0967,0.9877,461.18,-1952.94,1173.77
21570,-3.8748,0.0977,0.9871,383.06,-1577.94,720.64
21580,-3.8748,0.1005,0.9825,508.06,-1656.07,142.52
21590,-3.8749,0.1041,0.9789,867.43,1765.81,-435.61
21600,-3.8749,0.1085,0.9785,1336.18,1297.06,-935.61
21610,-3.8749,0.1136,0.9799,1898.68,1250.18,-1185.61
21620,-3.8749,0.1196,0.9807,-1445.07,1422.06,-1044.98
21630,-3.8749,0.1252,0.9823,-679.44,1531.43,-560.61
21640,-3.8748,0.1270,0.9860,39.31,1734.62,1.89
21650,-3.8748,0.1221,0.9899,258.06,-1796.63,408.14
21660,-3.8748,0.1119,0.9929,-366.94,-1296.69,564.39
21670,-3.8748,0.1002,0.9954,-1663.82,-906.07,486.27
21680,-3.8748,0.0892,0.9976,836.18,-593.57,314.39
21690,-3.8748,0.0819,0.9977,-570.07,-312.38,158.14
21700,-3.8748,0.0809,0.9952,-1507.57,-296.75,173.77
21710,-3.8748,0.0863,0.9910,-1632.57,-609.25,330.02
21720,-3.8748,0.0946,0.9867,-945.07,-1156.13,533.14
21730,-3.8748,0.1019,0.9843,117.43,-1702.94,830.02
21740,-3.8748,0.1057,0.9832,1054.93,1984.56,861.27
21750,-3.8748,0.1071,0.9825,1539.31,1843.93,673.77
21760,-3.8748,0.1069,0.9822,1711.18,1765.81,533.14
21770,-3.8748,0.1044,0.9817,1695.56,1718.93,408.14
21780,-3.8748,0.0999,0.9806,1367.43,1656.43,283.14
21790,-3.8748,0.0946,0.9802,789.31,1515.81,236.27
21800,-3.8748,0.0902,0.9824,117.43,1468.93,283.14
21810,-3.8748,0.0878,0.9857,-445.07,1750.12,205.02
21820,-3.8748,0.0875,0.9882,-757.57,-1828.00,33.14
21830,-3.8748,0.0881,0.9901,-788.82,-1515.50,48.77
21840,-3.8748,0.0890,0.9912,-710.69,-1265.50,251.89
21850,-3.8748,0.0897,0.9908,-601.32,-1124.88,455.02
21860,-3.8748,0.0906,0.9880,-507.57,-1171.75,705.02
21870,-3.8748,0.0916,0.9849,-398.19,-1531.13,1017.52
21880,-3.8748,0.0925,0.9843,-273.19,-1937.38,1189.39
21890,-3.8748,0.0938,0.9861,-148.19,1984.50,1267.52
21900,-3.8748,0.0938,0.9894,8.06,-1781.07,1345.64
21910,-3.8748,0.0920,0.9913,8.06,-1359.19,1376.89
21920,-3.8748,0.0896,0.9888,-210.69,-1109.25,1298.77
21930,-3.8748,0.0885,0.9850,-523.19,-1437.38,1033.14
21940,-3.8748,0.0883,0.9838,-663.82,-1921.75,642.52
21950,-3.8748,0.0870,0.9835,-695.07,1922.00,298.77
21960,-3.8748,0.0857,0.9829,-851.32,1890.75,80.02
21970,-3.8749,0.0859,0.9825,-1023.19,1812.62,-44.98
21980,-3.8749,0.0869,0.9834,-991.94,1765.75,-123.11
21990,-3.8749,0.0881,0.9850,-866.94,1875.12,-91.86
22000,-3.8748,0.0908,0.9867,-710.69,-1921.75,111.27
22010,-3.8748,0.0947,0.9883,-366.94,-1703.00,361.27
22020,-3.8748,0.0972,0.9890,133.06,-1499.82,658.14
22030,-3.8748,0.0983,0.9900,445.56,-1406.07,939.39
22040,-3.8748,0.0986,0.9918,586.18,-1281.07,1095.64
22050,-3.8748,0.0984,0.9924,633.06,-1046.69,1017.52
22060,-3.8748,0.0981,0.9902,601.81,-968.57,830.02
22070,-3.8748,0.0984,0.9873,570.56,-1249.82,720.64
22080,-3.8748,0.0985,0.9863,601.81,-1624.82,501.89
22090,-3.8748,0.0988,0.9861,617.43,-1749.82,173.77
22100,-3.8748,0.0988,0.9857,648.68,-1781.07,111.27
22110,-3.8748,0.0988,0.9867,648.68,-1827.94,439.39
22120,-3.8748,0.0984,0.9891,648.68,-1702.94,861.27
22130,-3.8748,0.0975,0.9913,601.81,-1390.44,1095.64
22140,-3.8748,0.0969,0.9915,492.43,-1109.19,1189.39
22150,-3.8748,0.0951,0.9884,414.31,-1093.57,1298.77
22160,-3.8748,0.0914,0.9855,179.93,-1484.19,1251.89
22170,-3.8748,0.0884,0.9849,-288.82,-1859.25,1033.14
22180,-3.8748,0.0870,0.9865,-679.44,-1937.38,845.64
22190,-3.8748,0.0874,0.9888,-851.32,-1734.25,720.64
22200,-3.8748,0.0896,0.9889,-804.44,-1437.38,486.27
22210,-3.8748,0.0929,0.9869,-523.19,-1421.75,267.52
22220,-3.8748,0.0947,0.9851,-101.32,-1671.75,236.27
22230,-3.8748,0.0945,0.9849,133.06,-1906.07,298.77
22240,-3.8748,0.0933,0.9860,101.81,-1937.32,376.89
22250,-3.8748,0.0909,0.9882,-54.44,-1796.75,470.64
22260,-3.8748,0.0880,0.9899,-351.32,-1515.50,439.39
22270,-3.8748,0.0857,0.9897,-726.32,-1296.75,236.27
22280,-3.8748,0.0848,0.9872,-1023.19,-1312.38,126.89
22290,-3.8748,0.0862,0.9838,-1132.57,-1640.50,173.77
22300,-3.8748,0.0897,0.9830,-960.69,1922.00,361.27
22310,-3.8748,0.0928,0.9854,-507.57,1828.25,705.02
22320,-3.8748,0.0922,0.9878,-116.94,-1874.88,1111.27
22330,-3.8748,0.0890,0.9877,-195.07,-1562.38,1330.02
22340,-3.8748,0.0872,0.9845,-601.32,-1578.00,1314.39
22350,-3.8748,0.0874,0.9808,-835.69,-1984.25,1033.14
22360,-3.8748,0.0894,0.9786,-804.44,1547.00,564.39
22370,-3.8748,0.0938,0.9783,-554.44,1265.75,189.39
22380,-3.8748,0.1011,0.9796,8.06,1218.93,95.64
22390,-3.8748,0.1091,0.9817,945.56,1390.81,392.52
22400,-3.8748,0.1136,0.9844,1976.81,1656.43,955.02
22410,-3.8748,0.1110,0.9882,-1445.07,-1999.82,1455.02
22420,-3.8748,0.1007,0.9921,-1788.82,-1515.44,1626.89
22430,-3.8748,0.0891,0.9944,898.68,-1015.44,1611.27
22440,-3.8748,0.0806,0.9945,-585.69,-718.63,1486.27
22450,-3.8748,0.0748,0.9945,-1679.44,-703.00,1361.27
22460,-3.8748,0.0715,0.9971,1586.18,-703.00,1189.39
22470,-3.8748,0.0730,1.0011,1164.31,-374.88,1205.02
22480,-3.8748,0.0776,1.0004,1351.81,140.75,1533.20
22490,-3.8748,0.0803,0.9968,1945.56,47.00,1939.45
22500,-3.8748,0.0802,0.9969,-1710.69,-406.13,-1701.23
22510,-3.8748,0.0792,0.9968,-1726.32,-390.50,-1701.23
22520,-3.8748,0.0781,0.9948,-1851.32,-406.13,1923.77
22530,-3.8748,0.0760,0.9923,-1991.94,-671.75,1548.77
22540,-3.8748,0.0726,0.9912,1742.43,-984.25,1220.64
22550,-3.8748,0.0712,0.9929,1304.93,-1124.88,1033.14
22560,-3.8748,0.0730,0.9955,1117.43,-906.13,970.64
22570,-3.8748,0.0753,0.9949,1351.81,-578.00,923.77
22580,-3.8748,0.0769,0.9912,1648.68,-656.13,970.64
22590,-3.8748,0.0773,0.9875,1851.81,-1124.88,1126.89
22600,-3.8748,0.0756,0.9851,1898.68,-1593.63,1251.89
22610,-3.8748,0.0724,0.9829,1679.93,-1906.13,1283.14
22620,-3.8748,0.0699,0.9814,1273.68,1812.62,1361.27
22630,-3.8748,0.0688,0.9812,961.18,1625.12,1501.89
22640,-3.8748,0.0691,0.9810,820.56,1593.87,1564.39
22650,-3.8748,0.0699,0.9807,851.81,1562.62,1595.64
22660,-3.8748,0.0697,0.9822,961.18,1531.37,1501.89
22670,-3.8748,0.0685,0.9849,929.93,1718.87,1345.64
22680,-3.8748,0.0686,0.9875,773.68,-1937.38,1236.27
22690,-3.8748,0.0709,0.9879,789.31,-1593.63,1158.14
22700,-3.8748,0.0765,0.9845,1086.18,-1546.75,1064.39
22710,-3.8748,0.0869,0.9801,1804.93,-1984.25,1048.77
22720,-3.8748,0.0973,0.9786,-866.94,1453.25,1251.89
22730,-3.8748,0.1028,0.9790,461.18,1265.81,1423.77
22740,-3.8748,0.1038,0.9800,1164.31,1312.68,1501.89
22750,-3.8748,0.1080,0.9805,1289.31,1437.68,1751.89
22760,-3.8748,0.1138,0.9800,1836.18,1500.18,-1966.86
22770,-3.8748,0.1111,0.9801,-1429.44,1437.68,1908.14
22780,-3.8748,0.1036,0.9812,-1773.19,1453.31,1470.64
22790,-3.8748,0.0981,0.9832,1273.68,1593.93,1236.27
22800,-3.8748,0.0944,0.9866,570.56,1843.93,1345.64
22810,-3.8748,0.0903,0.9895,86.18,-1718.57,1439.39
22820,-3.8748,0.0857,0.9904,-429.44,-1343.63,1580.02
22830,-3.8748,0.0824,0.9905,-1023.19,-1234.25,1955.02
22840,-3.8748,0.0813,0.9896,-1445.07,-1218.63,-1841.86
22850,-3.8748,0.0826,0.9858,-1585.69,-1328.00,1908.14
22860,-3.8748,0.0845,0.9807,-1413.82,-1812.38,1611.27
22870,-3.8748,0.0861,0.9784,-1179.44,1531.37,1455.02
22880,-3.8748,0.0869,0.9803,-976.32,1234.50,1298.77
22890,-3.8748,0.0876,0.9849,-866.94,1484.50,1189.39
22900,-3.8748,0.0886,0.9885,-773.19,-1937.38,1267.52
22910,-3.8748,0.0887,0.9894,-648.19,-1468.63,1330.02
22920,-3.8748,0.0875,0.9871,-632.57,-1359.25,1267.52
22930,-3.8748,0.0846,0.9846,-788.82,-1656.13,1298.77
22940,-3.8748,0.0798,0.9855,-1163.82,-1968.63,1330.02
22950,-3.8748,0.0746,0.9877,-1773.19,-1859.25,1330.02
22960,-3.8748,0.0695,0.9897,1554.93,-1578.00,1408.14
22970,-3.8748,0.0660,0.9923,898.68,-1312.38,1564.39
22980,-3.8748,0.0651,0.9941,461.18,-984.25,1783.14
22990,-3.8748,0.0652,0.9939,336.18,-749.88,-1982.48
23000,-3.8748,0.0662,0.9915,351.81,-781.13,-1951.23
23010,-3.8748,0.0679,0.9875,476.81,-1093.63,1876.89
