timestamp_ms,ax,ay,az,gx,gy,gz
0,-3.8439,0.1127,-0.9811,-304.44,1125.18,1841.80
10,-3.8439,0.0972,-0.9822,-1570.07,-1577.94,-1361.33
20,-3.8439,0.0752,-0.9949,445.56,-1718.57,-111.33
30,-3.8750,0.0494,-1.0033,1633.06,656.37,1966.80
40,-3.8749,0.0277,-1.0004,-1663.82,-421.81,888.61
50,-3.8748,0.0170,-0.9946,-445.07,-46.88,435.49
60,-3.8748,0.0167,-0.9915,-1820.07,687.50,-111.33
70,-3.8746,0.0234,-0.9851,-1851.32,1093.75,-1501.95
80,-3.8746,0.0294,-0.9733,-991.94,1906.25,-33.20
90,-3.8745,0.0298,-0.9651,-226.32,-578.12,294.92
100,-3.8745,0.0269,-0.9697,-179.44,468.75,13.73
110,-3.8746,0.0223,-0.9836,-554.44,-125.00,-330.08
120,-3.8746,0.0157,-0.9948,-1132.57,-1906.25,-689.45
130,-3.8746,0.0109,-0.9941,-1976.32,671.88,-1064.45
140,-3.8746,0.0103,-0.9860,1398.68,750.00,-1533.20
150,-3.8746,0.0132,-0.9817,1320.56,1796.88,1841.80
160,-3.8746,0.0187,-0.9832,1695.56,-1656.25,1091.80
170,-3.8746,0.0232,-0.9844,-1601.32,-1843.75,154.30
180,-3.8748,0.0212,-0.9861,-1023.19,-2000.00,-1298.83
190,-3.8748,0.0155,-0.9915,-1273.19,1781.25,873.05
200,-3.8749,0.0165,-0.9900,1992.43,1093.75,-767.58
210,-3.8749,0.0275,-0.9706,-1882.57,1281.25,1998.05
220,-3.8749,0.0405,-0.9435,-476.32,-234.38,1310.55
230,-3.8749,0.0453,-0.9312,1195.56,-765.56,1841.86
240,-3.8749,0.0385,-0.9412,1804.93,812.56,-611.21
250,-3.8749,0.0249,-0.9651,929.93,-468.69,-361.27
260,-3.8749,0.0150,-0.9902,-804.44,468.75,982.48
270,-3.8750,0.0166,-1.0035,1929.93,1250.00,373.05
280,-3.8440,0.0280,-1.0045,-1866.94,-453.12,-564.51
290,-3.8441,0.0433,-1.0013,-413.82,-578.12,-752.01
300,-3.8441,0.0555,-1.0006,1554.93,-171.81,560.49
310,-3.8442,0.0586,-1.0051,-882.57,-78.06,-95.76
320,-3.8441,0.0552,-1.0088,-491.94,-656.19,1263.61
330,-3.8441,0.0510,-1.0028,-929.44,-1124.94,-236.39
340,-3.8440,0.0454,-0.9866,-1460.69,-359.31,-1720.76
350,-3.8439,0.0360,-0.9692,1820.56,1718.81,248.05
360,-3.8439,0.0226,-0.9575,617.43,-62.44,1482.42
370,-3.8439,0.0063,-0.9565,-1101.32,1437.50,-1705.02
380,-3.8439,-0.0071,-0.9648,820.56,1562.50,-689.39
390,-3.8750,-0.0112,-0.9725,-898.19,515.56,560.61
400,-3.8750,-0.0052,-0.9764,-1429.44,-468.81,1169.92
410,-3.8750,0.0066,-0.9821,-663.82,-968.81,810.55
420,-3.8750,0.0175,-0.9917,851.81,-1703.12,232.42
430,-3.8750,0.0260,-0.9972,-1757.57,1062.50,419.92
440,-3.8750,0.0325,-0.9938,-663.82,359.38,1201.17
450,-3.8750,0.0347,-0.9919,164.31,796.94,1716.80
460,-3.8750,0.0344,-0.9943,445.56,1031.31,1873.05
470,-3.8750,0.0356,-0.9941,414.31,734.44,1857.42
480,-3.8750,0.0387,-0.9930,570.56,750.06,1701.17
490,-3.8750,0.0416,-0.9928,961.18,890.69,1310.55
500,-3.8750,0.0415,-0.9941,1336.18,921.94,748.05
510,-3.8750,0.0372,-0.9934,1320.56,750.06,310.55
520,-3.8439,0.0328,-0.9897,773.68,843.81,-1.95
530,-3.8439,0.0323,-0.9868,211.18,1312.56,-345.70
540,-3.8439,0.0355,-0.9835,148.68,1687.56,-720.70
550,-3.8439,0.0422,-0.9813,554.93,-1890.56,-1517.58
560,-3.8439,0.0510,-0.9869,1414.31,-1609.31,1201.17
570,-3.8439,0.0612,-0.9991,-1460.69,1671.94,154.30
580,-3.8440,0.0724,-1.0073,-163.82,109.44,-330.08
590,-3.8440,0.0811,-1.0083,1273.68,-937.38,-689.51
600,-3.8440,0.0828,-1.0076,-1616.94,-1062.38,-1439.51
610,-3.8440,0.0730,-1.0062,-1398.19,-968.63,1029.24
620,-3.8441,0.0514,-1.0020,1351.81,-796.75,-1298.89
630,-3.8441,0.0229,-1.0027,-1413.82,-249.94,497.99
640,-3.8442,-0.0074,-1.0133,-1054.44,-343.75,-470.76
650,-3.8441,-0.0338,-1.0179,-945.07,-1687.56,169.86
660,-3.8441,-0.0497,-1.0060,-320.07,1718.63,-1830.14
670,-3.8440,-0.0542,-0.9856,1648.68,-750.12,1294.86
680,-3.8439,-0.0497,-0.9707,1070.56,1859.25,935.55
690,-3.8750,-0.0382,-0.9705,1648.68,-234.50,373.05
700,-3.8750,-0.0254,-0.9758,-882.57,-203.25,-986.33
710,-3.8749,-0.0168,-0.9747,758.06,-890.69,419.92
720,-3.8749,-0.0140,-0.9706,1851.81,-750.06,513.67
730,-3.8750,-0.0129,-0.9656,-1788.82,-218.81,-314.45
740,-3.8750,-0.0103,-0.9612,-1648.19,421.81,-1751.89
750,-3.8750,-0.0083,-0.9600,-1304.44,984.31,169.98
760,-3.8439,-0.0073,-0.9623,-1054.44,1140.56,1654.36
770,-3.8440,-0.0006,-0.9679,-929.44,843.69,-861.27
780,-3.8440,0.0149,-0.9711,-70.07,124.94,1232.48
790,-3.8440,0.0325,-0.9703,1914.31,-296.88,154.30
800,-3.8441,0.0453,-0.9724,164.31,-203.06,-626.95
810,-3.8441,0.0552,-0.9775,1804.93,-468.69,-1533.20
820,-3.8441,0.0648,-0.9801,-929.44,-1124.94,1498.05
830,-3.8441,0.0713,-0.9824,304.93,-1453.00,607.42
840,-3.8442,0.0760,-0.9857,1133.06,-1749.88,-283.20
850,-3.8442,0.0830,-0.9856,1742.43,1828.25,-1392.58
860,-3.8442,0.0917,-0.9844,-1366.94,1843.87,1169.92
870,-3.8444,0.0977,-0.9844,-257.57,-1999.88,-408.20
880,-3.8444,0.0972,-0.9873,508.06,-1999.82,-1564.45
890,-3.8444,0.0896,-0.9934,445.56,1625.18,1841.80
900,-3.8444,0.0801,-0.9944,-523.19,843.87,1732.42
910,-3.8444,0.0732,-0.9862,-1741.94,718.87,1857.42
920,-3.8444,0.0686,-0.9746,1383.06,1765.75,1685.55
930,-3.8444,0.0629,-0.9679,789.31,-749.88,1138.67
940,-3.8444,0.0521,-0.9689,54.93,109.50,404.36
950,-3.8445,0.0363,-0.9718,-1320.07,-15.56,-548.83
960,-3.8445,0.0186,-0.9684,648.68,-390.56,-1408.20
970,-3.8445,-0.0004,-0.9606,-1616.94,46.88,-1814.39
980,-3.8445,-0.0195,-0.9569,-38.82,1062.44,-1611.27
990,-3.8445,-0.0359,-0.9575,1508.06,1531.19,-814.39
1000,-3.8444,-0.0466,-0.9597,-585.69,1453.00,310.61
1010,-3.8444,-0.0499,-0.9634,-1960.69,1171.75,1685.61
1020,-3.8444,-0.0468,-0.9680,1617.43,703.00,-720.64
1030,-3.8442,-0.0405,-0.9716,-1976.32,109.25,748.11
1040,-3.8442,-0.0352,-0.9731,-1179.44,-343.87,-1923.83
1050,-3.8442,-0.0303,-0.9714,-491.94,-547.00,-501.95
1060,-3.8441,-0.0245,-0.9656,133.06,-328.19,904.30
1070,-3.8441,-0.0199,-0.9618,867.43,421.81,1779.36
1080,-3.8441,-0.0154,-0.9662,1461.18,906.19,-1986.27
1090,-3.8441,-0.0066,-0.9763,-1960.69,343.69,-1986.27
1100,-3.8441,0.0038,-0.9834,-835.69,-953.19,1576.17
1110,-3.8441,0.0123,-0.9861,492.43,-1875.00,669.92
1120,-3.8442,0.0214,-0.9865,1586.18,1781.25,-251.95
1130,-3.8442,0.0289,-0.9857,-1257.57,1734.38,-970.70
1140,-3.8442,0.0343,-0.9873,-288.82,1828.12,-1642.58
1150,-3.8442,0.0405,-0.9882,398.68,1625.06,1826.17
1160,-3.8442,0.0432,-0.9877,1195.56,1515.69,1498.05
1170,-3.8442,0.0372,-0.9911,1539.31,1578.19,1326.17
1180,-3.8442,0.0259,-0.9937,773.68,1140.69,1654.30
1190,-3.8442,0.0153,-0.9884,-679.44,812.50,-1439.45
1200,-3.8442,0.0073,-0.9757,1961.18,1484.38,-439.45
1210,-3.8441,0.0013,-0.9657,945.56,-890.62,373.05
1220,-3.8441,-0.0024,-0.9646,179.93,390.62,1123.11
1230,-3.8441,-0.0056,-0.9686,-304.44,546.81,1513.73
1240,-3.8441,-0.0084,-0.9725,-710.69,31.19,1107.48
1250,-3.8442,-0.0099,-0.9740,-1070.07,-468.81,-220.70
1260,-3.8442,-0.0137,-0.9781,-1257.57,-656.31,-1876.95
1270,-3.8442,-0.0188,-0.9860,-1741.94,-1187.56,1154.30
1280,-3.8442,-0.0193,-0.9871,1601.81,1812.44,1107.42
1290,-3.8442,-0.0142,-0.9780,1539.31,1671.81,1419.92
1300,-3.8442,-0.0082,-0.9683,-1804.44,-1171.94,1826.17
1310,-3.8442,-0.0038,-0.9624,-1038.82,78.06,-1533.14
1320,-3.8442,-0.0021,-0.9591,-476.32,828.06,-814.39
1330,-3.8442,-0.0033,-0.9614,-257.57,1249.94,-517.52
1340,-3.8442,-0.0070,-0.9722,-413.82,953.06,-830.02
1350,-3.8442,-0.0106,-0.9858,-882.57,-421.94,-1236.33
1360,-3.8442,-0.0106,-0.9929,-1351.32,1828.06,-1439.45
1370,-3.8442,-0.0073,-0.9900,-1351.32,921.81,-1517.58
1380,-3.8442,-0.0046,-0.9840,-929.44,1296.81,-1439.45
1390,-3.8442,-0.0023,-0.9827,-585.69,-1937.56,-1048.83
1400,-3.8442,0.0015,-0.9847,-288.82,-1765.69,-626.95
1410,-3.8442,0.0043,-0.9844,195.56,1953.12,-626.95
1420,-3.8442,0.0039,-0.9803,554.93,-2000.00,-1111.33
1430,-3.8442,0.0004,-0.9790,508.06,-1484.38,-1689.45
1440,-3.8442,-0.0063,-0.9812,54.93,-1312.50,-1845.70
1450,-3.8442,-0.0120,-0.9832,-804.44,-1578.19,-1376.95
1460,-3.8442,-0.0129,-0.9822,-1523.19,-1828.19,-783.20
1470,-3.8442,-0.0121,-0.9777,-1648.19,-1703.19,-642.58
1480,-3.8442,-0.0143,-0.9730,-1538.82,-1125.06,-814.45
1490,-3.8442,-0.0192,-0.9723,-1820.07,-531.31,-1033.20
1500,-3.8442,-0.0256,-0.9739,1554.93,-437.56,-1314.45
1510,-3.8442,-0.0327,-0.9753,726.81,-640.69,-1486.33
1520,-3.8442,-0.0382,-0.9779,-179.44,-828.25,-1423.83
1530,-3.8442,-0.0437,-0.9810,-882.57,-1156.37,-1017.58
1540,-3.8442,-0.0499,-0.9868,-1585.69,-1547.00,-205.08
1550,-3.8441,-0.0515,-0.9962,1617.43,1703.00,1169.92
1560,-3.8441,-0.0457,-1.0012,1414.31,499.88,-955.08
1570,-3.8440,-0.0332,-0.9963,-1835.69,-140.75,1247.99
1580,-3.8440,-0.0139,-0.9825,-241.94,484.25,-423.83
1590,-3.8439,0.0090,-0.9668,-1773.19,-1750.06,1466.80
1600,-3.8439,0.0281,-0.9575,1164.31,250.00,-1314.39
1610,-3.8439,0.0376,-0.9557,-398.19,1437.50,-798.77
1620,-3.8439,0.0398,-0.9584,820.56,1671.94,-923.77
1630,-3.8439,0.0409,-0.9642,1101.81,1328.19,-1564.39
1640,-3.8439,0.0420,-0.9714,1242.43,578.19,1419.98
1650,-3.8439,0.0430,-0.9800,1383.06,-343.69,419.92
1660,-3.8440,0.0480,-0.9857,1508.06,-1437.44,-267.58
1670,-3.8440,0.0529,-0.9862,-1851.32,1828.19,-689.45
1680,-3.8440,0.0525,-0.9871,-1226.32,1765.69,-1001.95
1690,-3.8440,0.0500,-0.9886,-1273.19,1656.31,-1283.20
1700,-3.8440,0.0465,-0.9897,-1585.69,1453.19,-1517.58
1710,-3.8440,0.0386,-0.9911,1961.18,1312.56,-1908.20
1720,-3.8440,0.0303,-0.9922,945.56,1140.69,1341.80
1730,-3.8440,0.0261,-0.9948,-116.94,1000.00,544.92
1740,-3.8441,0.0240,-0.9987,-648.19,671.88,-298.83
1750,-3.8441,0.0251,-1.0002,-913.82,171.88,-1064.45
1760,-3.8441,0.0320,-0.9993,-773.19,-31.25,-1830.14
1770,-3.8441,0.0400,-0.9985,101.81,93.81,1185.55
1780,-3.8442,0.0405,-0.9980,1133.06,187.56,-64.45
1790,-3.8442,0.0282,-0.9951,1195.56,250.06,-1626.95
1800,-3.8442,0.0045,-0.9943,-382.57,625.00,544.92
1810,-3.8444,-0.0242,-0.9979,586.18,734.38,-908.20
1820,-3.8444,-0.0504,-1.0017,914.31,281.19,-1017.58
1830,-3.8442,-0.0702,-1.0018,1554.93,-203.25,138.61
1840,-3.8442,-0.0829,-0.9954,-976.32,-218.93,-1970.76
1850,-3.8441,-0.0895,-0.9857,1398.68,609.19,529.30
1860,-3.8441,-0.0890,-0.9773,554.93,1843.57,-470.70
1870,-3.8440,-0.0803,-0.9712,617.43,-1078.31,-1486.33
1880,-3.8439,-0.0682,-0.9694,1726.81,-297.06,1044.92
1890,-3.8439,-0.0565,-0.9705,-726.32,-62.68,-1048.83
1900,-3.8750,-0.0432,-0.9709,773.68,-203.25,185.55
1910,-3.8750,-0.0294,-0.9666,-1523.19,-265.75,560.55
1920,-3.8750,-0.0184,-0.9623,242.43,296.81,138.73
1930,-3.8439,-0.0111,-0.9684,1648.68,843.69,-876.89
1940,-3.8439,-0.0037,-0.9799,-1413.82,62.44,1935.61
1950,-3.8439,0.0076,-0.9878,-460.69,-1406.31,919.92
1960,-3.8440,0.0209,-0.9895,976.81,1562.50,-189.45
1970,-3.8440,0.0319,-0.9869,-1320.07,1343.75,-1533.20
1980,-3.8440,0.0391,-0.9862,86.18,1671.94,1154.30
1990,-3.8440,0.0441,-0.9874,1008.06,1765.69,232.42
2000,-3.8441,0.0466,-0.9847,1648.68,1609.44,-298.83
2010,-3.8441,0.0448,-0.9797,1976.81,1953.19,-705.08
2020,-3.8441,0.0374,-0.9797,1742.43,-1406.19,-1080.08
2030,-3.8441,0.0247,-0.9832,789.31,-1406.19,-1439.45
2040,-3.8441,0.0083,-0.9849,-835.69,-1843.75,-1736.33
2050,-3.8441,-0.0104,-0.9845,1070.56,1937.50,-1767.58
2060,-3.8441,-0.0265,-0.9832,-1320.07,1999.94,-1408.20
2070,-3.8441,-0.0355,-0.9810,617.43,-1828.19,-1017.58
2080,-3.8441,-0.0399,-0.9761,-538.82,-1547.00,-1001.95
2090,-3.8441,-0.0432,-0.9701,-1101.32,-922.00,-1236.33
2100,-3.8441,-0.0486,-0.9695,-1523.19,-156.37,-1470.70
2110,-3.8441,-0.0543,-0.9758,1789.31,-78.25,-1767.58
2120,-3.8441,-0.0540,-0.9814,1054.93,-890.75,1888.67
2130,-3.8441,-0.0468,-0.9850,1101.81,-1609.50,1607.42
2140,-3.8441,-0.0375,-0.9883,-1976.32,1937.38,1623.05
2150,-3.8441,-0.0291,-0.9880,-788.82,1515.50,-1970.70
2160,-3.8441,-0.0229,-0.9863,289.31,1546.81,-1470.70
2170,-3.8441,-0.0177,-0.9847,1070.56,1765.56,-955.08
2180,-3.8441,-0.0106,-0.9828,1742.43,1968.69,-392.58
2190,-3.8440,-0.0043,-0.9830,-1351.32,-1781.31,123.05
2200,-3.8440,0.0002,-0.9858,-538.82,-1812.56,607.42
2210,-3.8440,0.0048,-0.9904,39.31,1812.50,1076.17
2220,-3.8440,0.0089,-0.9957,617.43,1234.38,1466.80
2230,-3.8440,0.0125,-0.9982,1148.68,546.88,1873.05
2240,-3.8440,0.0153,-0.9941,1601.81,234.38,-1564.45
2250,-3.8440,0.0167,-0.9869,1961.18,750.00,-986.33
2260,-3.8440,0.0173,-0.9824,-1851.32,1671.88,-517.58
2270,-3.8440,0.0170,-0.9789,-1773.19,-1750.00,-236.33
2280,-3.8440,0.0145,-0.9760,-1820.07,-1296.88,-111.33
2290,-3.8440,0.0111,-0.9750,1867.43,-921.88,-95.70
2300,-3.8439,0.0077,-0.9751,1429.93,-796.88,44.92
2310,-3.8439,0.0057,-0.9746,992.43,-812.50,669.92
2320,-3.8439,0.0095,-0.9712,742.43,-750.00,1482.42
2330,-3.8439,0.0168,-0.9655,1226.81,-312.50,-1814.45
2340,-3.8439,0.0212,-0.9626,-1835.69,421.88,-1330.02
2350,-3.8439,0.0200,-0.9655,-1273.19,781.25,-1205.02
2360,-3.8439,0.0165,-0.9713,-1429.44,421.88,-1283.14
2370,-3.8439,0.0144,-0.9764,-1882.57,-328.12,-1486.33
2380,-3.8439,0.0155,-0.9777,1851.81,-984.38,-1642.58
2390,-3.8439,0.0200,-0.9786,1992.43,-1140.62,-1642.58
2400,-3.8439,0.0255,-0.9818,-1429.44,-1265.62,-1392.58
2410,-3.8439,0.0278,-0.9851,-726.32,-1671.88,-1001.95
2420,-3.8439,0.0245,-0.9874,-429.44,1906.25,-736.33
2430,-3.8439,0.0192,-0.9878,-851.32,1609.38,-689.45
2440,-3.8439,0.0161,-0.9869,-1538.82,1562.50,-876.95
2450,-3.8439,0.0153,-0.9829,-1929.44,1671.88,-1283.20
2460,-3.8439,0.0170,-0.9762,1961.18,-1812.50,-1939.45
2470,-3.8439,0.0193,-0.9722,-1820.07,-953.12,982.42
2480,-3.8440,0.0211,-0.9728,-1523.19,-437.50,-376.95
2490,-3.8440,0.0249,-0.9760,-1288.82,-515.62,-1720.70
2500,-3.8440,0.0284,-0.9812,-804.44,-921.88,951.17
2510,-3.8441,0.0294,-0.9865,-351.32,-1593.75,-283.20
2520,-3.8441,0.0276,-0.9896,-226.32,1734.38,-1439.45
2530,-3.8441,0.0211,-0.9910,-460.69,1328.12,1560.55
2540,-3.8441,0.0115,-0.9899,-1288.82,1156.25,935.55
2550,-3.8441,0.0033,-0.9882,1476.81,1296.88,685.55
2560,-3.8441,-0.0016,-0.9882,429.93,1515.62,904.30
2570,-3.8441,-0.0011,-0.9866,-195.07,1531.19,1716.80
2580,-3.8441,0.0024,-0.9819,-132.57,1734.31,-1080.08
2590,-3.8440,0.0065,-0.9752,320.56,-1687.50,201.17
2600,-3.8440,0.0095,-0.9689,836.18,-828.12,1419.92
2610,-3.8440,0.0116,-0.9688,1226.81,-15.62,-1595.70
2620,-3.8440,0.0144,-0.9756,1492.43,0.00,-876.89
2630,-3.8440,0.0182,-0.9846,1851.81,-875.00,-376.95
2640,-3.8440,0.0222,-0.9907,-1663.82,1968.75,-158.20
2650,-3.8440,0.0265,-0.9913,-1148.19,1187.50,-48.83
2660,-3.8440,0.0300,-0.9897,-601.32,1109.38,-95.70
2670,-3.8440,0.0304,-0.9924,-148.19,1312.50,-330.08
2680,-3.8440,0.0292,-0.9984,-101.32,968.75,-658.20
2690,-3.8440,0.0302,-1.0027,-257.57,203.12,-798.83
2700,-3.8440,0.0311,-1.0056,-132.57,-343.75,-423.89
2710,-3.8439,0.0288,-1.0084,-7.57,-718.75,529.24
2720,-3.8439,0.0221,-1.0098,-304.44,-1078.12,-1767.64
2730,-3.8750,0.0156,-1.0098,-1163.82,-1250.00,701.11
2740,-3.8750,0.0159,-1.0092,-1991.94,-1250.00,-705.14
2750,-3.8749,0.0244,-1.0029,-1960.69,-1171.88,1607.36
2760,-3.8749,0.0375,-0.9878,-866.94,-375.00,-705.14
2770,-3.8748,0.0481,-0.9736,804.93,1562.56,107.42
2780,-3.8748,0.0515,-0.9691,-1835.69,-624.94,419.92
2790,-3.8748,0.0470,-0.9718,-1398.19,-46.81,248.05
2800,-3.8749,0.0367,-0.9777,-1976.32,-390.56,-798.83
2810,-3.8749,0.0249,-0.9857,711.18,-1140.56,1654.30
2820,-3.8749,0.0150,-0.9917,-804.44,1828.12,294.92
2830,-3.8750,0.0067,-0.9908,1929.93,1062.50,-705.08
2840,-3.8750,-0.0020,-0.9869,867.43,1171.88,-1658.20
2850,-3.8750,-0.0099,-0.9856,-241.94,1687.44,1388.67
2860,-3.8750,-0.0145,-0.9861,-1257.57,1859.31,732.42
2870,-3.8750,-0.0145,-0.9841,-1851.32,1796.81,91.80
2880,-3.8439,-0.0079,-0.9821,-1851.32,-1953.19,-658.20
2890,-3.8439,0.0051,-0.9849,-1007.57,-1687.56,-1345.70
2900,-3.8439,0.0203,-0.9885,664.31,1937.50,-1845.70
2910,-3.8439,0.0345,-0.9878,-1398.19,1468.75,1966.80
2920,-3.8439,0.0459,-0.9836,429.93,1562.56,1904.30
2930,-3.8439,0.0525,-0.9806,1883.06,-1906.19,1857.42
2940,-3.8439,0.0551,-0.9792,-1273.19,-1515.56,1794.92
2950,-3.8439,0.0566,-0.9788,-945.07,-1343.69,1732.42
2960,-3.8439,0.0597,-0.9816,-741.94,-1281.19,1685.55
2970,-3.8439,0.0626,-0.9879,-351.32,-1640.56,1701.17
2980,-3.8439,0.0656,-0.9949,23.68,1547.00,1623.05
2990,-3.8439,0.0684,-0.9995,398.68,656.37,1419.92
3000,-3.8439,0.0695,-1.0004,758.06,62.62,1482.42
3010,-3.8439,0.0698,-0.9987,898.68,-46.75,-1955.14
3020,-3.8439,0.0688,-0.9973,945.56,172.00,-1111.33
3030,-3.8439,0.0636,-0.9961,820.56,343.87,-80.08
3040,-3.8750,0.0569,-0.9952,148.68,500.12,1123.05
3050,-3.8750,0.0535,-0.9943,-710.69,609.44,-1798.83
3060,-3.8750,0.0530,-0.9921,-1148.19,734.44,-1095.70
3070,-3.8750,0.0544,-0.9910,-1210.69,1015.69,-705.08
3080,-3.8750,0.0564,-0.9877,-1023.19,1156.31,-564.45
3090,-3.8750,0.0546,-0.9805,-773.19,1578.19,-736.33
3100,-3.8750,0.0480,-0.9779,-1007.57,-1499.94,-1111.33
3110,-3.8750,0.0417,-0.9762,-1851.32,-1171.81,-1126.95
3120,-3.8750,0.0385,-0.9656,1351.81,-953.06,-767.58
3130,-3.8750,0.0345,-0.9532,929.93,406.31,-751.89
3140,-3.8750,0.0258,-0.9491,429.93,1984.44,-1330.02
3150,-3.8750,0.0109,-0.9537,-695.07,-1484.38,1294.98
3160,-3.8439,-0.0063,-0.9618,1398.68,1921.88,-767.52
3170,-3.8439,-0.0183,-0.9685,-804.44,906.19,966.86
3180,-3.8440,-0.0214,-0.9735,1664.31,46.81,-1314.39
3190,-3.8440,-0.0192,-0.9760,1273.68,-593.81,841.80
3200,-3.8441,-0.0155,-0.9760,1554.93,-906.31,-267.58
3210,-3.8441,-0.0061,-0.9791,-1976.32,-906.31,-814.45
3220,-3.8441,0.0079,-0.9852,-773.19,-1312.56,-798.83
3230,-3.8441,0.0162,-0.9894,1023.68,1890.62,-501.95
3240,-3.8441,0.0153,-0.9922,-1913.82,1359.38,-423.83
3250,-3.8441,0.0088,-0.9911,1961.18,1000.00,-314.45
3260,-3.8440,-0.0009,-0.9849,1133.06,1140.62,466.80
3270,-3.8440,-0.0093,-0.9763,-101.32,1953.06,-1876.95
3280,-3.8439,-0.0096,-0.9690,-1179.44,-953.19,841.80
3290,-3.8750,-0.0048,-0.9667,-1226.32,-15.69,435.55
3300,-3.8749,0.0050,-0.9694,-601.32,281.19,310.61
3310,-3.8748,0.0251,-0.9688,648.68,-78.12,13.67
3320,-3.8748,0.0500,-0.9652,-773.19,0.00,-736.27
3330,-3.8746,0.0743,-0.9709,-1585.69,453.19,-1939.39
3340,-3.8745,0.1018,-0.9828,1523.68,-281.13,326.17
3350,-3.8745,0.1284,-0.9877,1039.31,-1796.69,1638.67
3360,-3.8745,0.1492,-0.9862,445.56,1578.37,1701.17
3370,-3.8745,0.1642,-0.9843,-898.19,1765.87,654.30
3380,-3.8746,0.1711,-0.9818,1023.68,-1984.07,-1501.95
3390,-3.8748,0.1696,-0.9817,1914.31,-1671.57,-1033.20
3400,-3.8749,0.1639,-0.9874,1711.18,-1655.94,-1501.95
3410,-3.8750,0.1561,-0.9987,992.43,1609.68,-1876.95
3420,-3.8439,0.1471,-1.0139,-7.57,172.12,-1470.70
3430,-3.8440,0.1388,-1.0251,-1163.82,-1781.01,-173.89
3440,-3.8440,0.1329,-1.0272,1773.68,781.49,1857.36
3450,-3.8440,0.1315,-1.0227,1023.68,515.87,529.24
3460,-3.8441,0.1329,-1.0125,836.18,1093.99,-33.26
3470,-3.8440,0.1339,-0.9994,1023.68,-1593.51,91.74
3480,-3.8440,0.1361,-0.9897,1148.68,78.37,560.55
3490,-3.8440,0.1393,-0.9863,1429.93,1312.74,1216.80
3500,-3.8440,0.1390,-0.9867,1836.18,1750.24,1794.92
3510,-3.8440,0.1339,-0.9861,1804.93,1703.37,-1751.95
3520,-3.8440,0.1250,-0.9840,1148.68,1781.49,-1314.45
3530,-3.8440,0.1151,-0.9829,8.06,-1952.88,-1064.45
3540,-3.8440,0.1053,-0.9832,-1257.57,-1812.32,-814.45
3550,-3.8440,0.0955,-0.9818,1492.43,-1843.57,-501.95
3560,-3.8440,0.0867,-0.9760,226.81,-1671.69,-236.33
3570,-3.8440,0.0787,-0.9714,-898.19,-921.75,-126.95
3580,-3.8440,0.0715,-0.9761,-1913.82,-343.63,-314.45
3590,-3.8440,0.0648,-0.9861,1164.31,-937.38,-798.83
3600,-3.8440,0.0588,-0.9906,304.93,1781.37,-1298.83
3610,-3.8440,0.0565,-0.9875,-460.69,1203.19,-1751.95
3620,-3.8440,0.0585,-0.9843,-757.57,1593.81,1841.80
3630,-3.8440,0.0587,-0.9827,-507.57,-1984.31,1748.05
3640,-3.8440,0.0538,-0.9817,-476.32,-1781.19,1826.17
3650,-3.8440,0.0475,-0.9794,-1101.32,-1656.19,1919.92
3660,-3.8440,0.0388,-0.9797,-1913.82,-1359.31,1998.05
3670,-3.8440,0.0281,-0.9849,976.81,-1406.19,1998.05
3680,-3.8440,0.0228,-0.9882,-398.19,1937.50,1935.55
3690,-3.8440,0.0237,-0.9874,-1070.07,1515.62,1732.42
3700,-3.8440,0.0264,-0.9869,-960.69,1609.38,1326.17
3710,-3.8440,0.0314,-0.9880,-616.94,1671.88,888.67
3720,-3.8440,0.0387,-0.9873,23.68,1531.31,716.80
3730,-3.8440,0.0466,-0.9832,961.18,1625.06,826.17
3740,-3.8440,0.0548,-0.9769,1976.81,-1843.69,1279.30
3750,-3.8440,0.0619,-0.9698,-976.32,-1046.81,1998.05
3760,-3.8440,0.0673,-0.9645,-70.07,-140.56,-1267.58
3770,-3.8440,0.0721,-0.9625,617.43,547.00,-517.52
3780,-3.8439,0.0773,-0.9657,1242.43,797.00,263.73
3790,-3.8439,0.0819,-0.9707,1898.68,390.75,919.98
3800,-3.8439,0.0846,-0.9725,-1507.57,-249.88,1185.55
3810,-3.8439,0.0853,-0.9708,-1163.82,-484.25,1091.80
3820,-3.8439,0.0834,-0.9681,-1070.07,-265.50,841.80
3830,-3.8439,0.0757,-0.9684,-1320.07,78.25,607.48
3840,-3.8439,0.0626,-0.9718,1695.56,47.00,435.61
3850,-3.8439,0.0493,-0.9758,23.68,-390.50,248.05
3860,-3.8439,0.0382,-0.9778,-1679.44,-906.19,29.30
3870,-3.8440,0.0280,-0.9783,898.68,-1156.19,-95.70
3880,-3.8440,0.0186,-0.9786,-413.82,-1218.75,-189.45
3890,-3.8440,0.0109,-0.9758,-1616.94,-1265.62,-376.95
3900,-3.8440,0.0059,-0.9670,1398.68,-906.25,-830.08
3910,-3.8440,0.0016,-0.9561,758.06,218.75,-1736.27
3920,-3.8440,-0.0043,-0.9536,211.18,1625.00,1310.61
3930,-3.8440,-0.0142,-0.9661,-538.82,1953.06,482.48
3940,-3.8441,-0.0276,-0.9829,-1804.44,359.31,-189.39
3950,-3.8441,-0.0348,-0.9889,476.81,-1796.94,-595.70
3960,-3.8441,-0.0289,-0.9839,-445.07,1437.38,-830.08
3970,-3.8441,-0.0176,-0.9812,304.93,-1921.94,-720.70
3980,-3.8440,-0.0096,-0.9849,1758.06,-1578.19,91.80
3990,-3.8440,-0.0016,-0.9890,-1226.32,1953.06,1279.30
4000,-3.8440,0.0079,-0.9900,-195.07,1421.81,-1501.95
4010,-3.8439,0.0109,-0.9912,1023.68,1281.25,13.67
4020,-3.8439,0.0015,-0.9946,1398.68,1125.00,-1658.20
4030,-3.8750,-0.0115,-0.9949,195.56,687.50,1544.92
4040,-3.8749,-0.0134,-0.9872,-1460.69,671.81,732.42
4050,-3.8749,0.0013,-0.9779,-1710.69,1656.19,-720.70
4060,-3.8748,0.0262,-0.9758,179.93,-1171.88,1294.92
4070,-3.8748,0.0518,-0.9791,-632.57,-906.25,-939.45
4080,-3.8746,0.0769,-0.9855,-1366.94,-1328.06,591.80
4090,-3.8746,0.1010,-0.9919,1851.81,1859.50,1623.05
4100,-3.8746,0.1198,-0.9932,929.93,1031.43,-1986.33
4110,-3.8746,0.1305,-0.9911,-663.82,875.18,1935.55
4120,-3.8746,0.1344,-0.9908,711.18,1140.87,1685.55
4130,-3.8746,0.1320,-0.9946,1211.18,1172.12,1279.30
4140,-3.8746,0.1222,-1.0021,898.68,687.74,654.30
4150,-3.8748,0.1083,-1.0089,-351.32,-265.44,-33.26
4160,-3.8748,0.0953,-1.0099,1867.43,-1140.44,-548.89
4170,-3.8748,0.0856,-1.0063,211.18,-1265.44,-1205.14
4180,-3.8748,0.0797,-1.0013,-1038.82,-812.38,1841.74
4190,-3.8748,0.0746,-0.9957,-1788.82,-171.75,1029.24
4200,-3.8748,0.0653,-0.9908,1554.93,547.00,404.30
4210,-3.8749,0.0559,-0.9893,367.43,1172.00,-236.33
4220,-3.8749,0.0500,-0.9919,-835.69,1375.06,-908.20
4230,-3.8749,0.0450,-0.9963,-1585.69,1031.31,-1548.83
4240,-3.8749,0.0416,-0.9991,1773.68,468.81,1951.17
4250,-3.8749,0.0371,-0.9982,1336.18,109.44,1669.92
4260,-3.8749,0.0281,-0.9933,758.06,234.44,1826.17
4270,-3.8749,0.0181,-0.9883,-398.19,859.38,-1720.70
4280,-3.8749,0.0110,-0.9854,-1679.44,1500.00,-1205.08
4290,-3.8749,0.0090,-0.9832,1414.31,1875.00,-642.58
4300,-3.8749,0.0125,-0.9811,1164.31,-1843.75,-267.58
4310,-3.8749,0.0181,-0.9790,1601.81,-1578.12,-220.70
4320,-3.8749,0.0221,-0.9796,-1679.44,-1312.50,-392.58
4330,-3.8749,0.0240,-0.9833,-1163.82,-1390.62,-626.95
4340,-3.8749,0.0249,-0.9868,-913.82,-1859.38,-814.45
4350,-3.8749,0.0243,-0.9851,-804.44,1687.50,-986.33
4360,-3.8749,0.0210,-0.9783,-882.57,1906.25,-1361.33
4370,-3.8749,0.0154,-0.9730,-1304.44,-1218.75,1966.80
4380,-3.8749,0.0104,-0.9719,1976.81,-546.88,1232.42
4390,-3.8749,0.0084,-0.9728,1336.18,-406.25,482.42
4400,-3.8750,0.0081,-0.9736,1086.18,-515.62,-361.33
4410,-3.8750,0.0070,-0.9756,1039.31,-625.00,-1345.70
4420,-3.8750,0.0060,-0.9779,898.68,-875.00,1654.30
4430,-3.8750,0.0068,-0.9786,773.68,-1171.88,763.67
4440,-3.8439,0.0087,-0.9785,883.06,-1265.62,-158.20
4450,-3.8439,0.0120,-0.9790,1117.43,-1250.00,-1220.70
4460,-3.8439,0.0184,-0.9805,1539.31,-1312.50,1607.42
4470,-3.8439,0.0264,-0.9828,-1632.57,-1500.00,341.80
4480,-3.8440,0.0320,-0.9845,-616.94,-1796.88,-642.58
4490,-3.8440,0.0347,-0.9871,101.81,1984.44,-970.70
4500,-3.8440,0.0389,-0.9911,445.56,1656.31,-673.83
4510,-3.8439,0.0479,-0.9930,992.43,1140.69,185.55
4520,-3.8439,0.0590,-0.9924,-1866.94,890.69,1279.30
4530,-3.8439,0.0668,-0.9918,-445.07,968.81,-1642.58
4540,-3.8439,0.0692,-0.9924,554.93,1047.00,-408.20
4550,-3.8750,0.0697,-0.9924,867.43,968.87,1107.42
4560,-3.8750,0.0724,-0.9886,929.93,968.87,-1408.20
4570,-3.8750,0.0754,-0.9841,1273.68,1453.25,-330.08
4580,-3.8749,0.0735,-0.9828,1664.31,-1968.63,404.30
4590,-3.8749,0.0619,-0.9855,1414.31,-1796.75,1029.30
4600,-3.8749,0.0443,-0.9910,-70.07,1859.44,1513.67
4610,-3.8749,0.0295,-0.9927,1679.93,1156.31,1748.05
4620,-3.8749,0.0201,-0.9888,-210.69,937.50,1779.30
4630,-3.8749,0.0149,-0.9854,-1413.82,1437.50,1763.67
4640,-3.8749,0.0140,-0.9841,1914.31,1875.00,1841.80
4650,-3.8749,0.0164,-0.9833,1804.93,-1968.75,1904.30
4660,-3.8749,0.0192,-0.9829,-1898.19,-1859.38,1794.92
4670,-3.8749,0.0199,-0.9847,-1538.82,-1812.50,1607.42
4680,-3.8749,0.0172,-0.9878,-1445.07,1953.12,1529.30
4690,-3.8749,0.0133,-0.9899,-1788.82,1562.50,1638.67
4700,-3.8749,0.0105,-0.9900,1711.18,1296.88,1998.05
4710,-3.8749,0.0099,-0.9880,1351.81,1281.25,-1298.83
4720,-3.8749,0.0128,-0.9836,1273.68,1531.25,-501.95
4730,-3.8749,0.0154,-0.9795,1648.68,-1906.25,-80.08
4740,-3.8748,0.0134,-0.9795,1976.81,-1375.00,29.30
4750,-3.8748,0.0087,-0.9843,1726.81,-1375.00,13.67
4760,-3.8749,0.0037,-0.9891,1117.43,-1984.38,-126.95
4770,-3.8749,0.0007,-0.9901,476.81,1390.62,-486.33
4780,-3.8749,-0.0002,-0.9882,101.81,1265.62,-955.08
4790,-3.8749,-0.0027,-0.9872,-23.19,1531.19,-1361.33
4800,-3.8749,-0.0073,-0.9886,-335.69,1656.19,-1470.70
4810,-3.8749,-0.0114,-0.9888,-929.44,1468.69,-1267.58
4820,-3.8749,-0.0116,-0.9850,-1445.07,1453.06,-1064.45
4830,-3.8749,-0.0093,-0.9808,-1476.32,1937.44,-1095.70
4840,-3.8749,-0.0079,-0.9806,-1179.44,-1531.31,-1283.20
4850,-3.8749,-0.0063,-0.9836,-1007.57,-1500.06,-1408.20
4860,-3.8749,-0.0026,-0.9869,-804.44,-1890.69,-1423.83
4870,-3.8749,0.0033,-0.9880,-320.07,1687.44,-1376.95
4880,-3.8749,0.0112,-0.9861,429.93,1531.25,-1439.45
4890,-3.8749,0.0198,-0.9863,1445.56,1781.25,-1611.33
4900,-3.8749,0.0265,-0.9910,-1460.69,1750.00,-1861.33
4910,-3.8749,0.0289,-0.9943,-601.32,1156.25,1951.17
4920,-3.8749,0.0266,-0.9926,-288.82,734.38,1919.92
4930,-3.8749,0.0215,-0.9883,-585.69,953.12,1998.05
4940,-3.8749,0.0159,-0.9827,-1241.94,1500.00,-1689.45
4950,-3.8749,0.0101,-0.9773,-1960.69,-1781.25,-1048.83
4960,-3.8749,0.0050,-0.9745,1304.93,-1093.75,-283.20
4970,-3.8748,0.0027,-0.9746,648.68,-734.38,169.92
4980,-3.8748,0.0049,-0.9779,351.81,-750.00,44.92
4990,-3.8749,0.0074,-0.9834,633.06,-1171.88,-830.08
5000,-3.8749,0.0094,-0.9901,961.18,-1875.00,1826.17
5010,-3.8749,0.0127,-0.9952,1211.18,1265.62,451.17
5020,-3.8750,0.0146,-0.9957,1633.06,609.38,-705.08
5030,-3.8750,0.0148,-0.9932,1883.06,546.88,-1392.58
5040,-3.8750,0.0148,-0.9933,1898.68,875.00,-1595.70
5050,-3.8750,0.0162,-0.9974,1898.68,859.38,-1345.70
5060,-3.8750,0.0211,-0.9994,-1913.82,328.12,-845.70
5070,-3.8750,0.0278,-0.9939,-1288.82,78.12,-126.95
5080,-3.8749,0.0323,-0.9846,-429.44,781.25,794.92
5090,-3.8749,0.0337,-0.9792,148.68,1968.81,1529.30
5100,-3.8749,0.0341,-0.9806,320.56,-1343.69,1841.80
5110,-3.8749,0.0336,-0.9851,367.43,-1515.56,1685.55
5120,-3.8749,0.0323,-0.9879,304.93,1906.31,1076.17
5130,-3.8749,0.0311,-0.9885,148.68,1546.94,169.92
5140,-3.8750,0.0292,-0.9894,-7.57,1468.75,-673.83
5150,-3.8750,0.0267,-0.9886,-257.57,1359.38,-1142.58
5160,-3.8750,0.0247,-0.9835,-570.07,1453.12,-1423.83
5170,-3.8750,0.0205,-0.9763,-835.69,-1890.62,-1626.95
5180,-3.8750,0.0132,-0.9729,-1366.94,-968.75,-1861.33
5190,-3.8750,0.0063,-0.9773,1695.56,-531.25,1529.30
5200,-3.8750,0.0024,-0.9861,820.56,-1093.75,623.05
5210,-3.8439,0.0018,-0.9928,320.56,1781.25,-330.08
5220,-3.8439,0.0046,-0.9960,242.43,921.88,-1064.45
5230,-3.8439,0.0092,-0.9955,601.81,515.62,-1392.58
5240,-3.8439,0.0143,-0.9918,1179.93,578.12,-1486.33
5250,-3.8439,0.0204,-0.9862,1836.18,1046.88,-1158.20
5260,-3.8439,0.0260,-0.9785,-1382.57,1765.62,-548.83
5270,-3.8750,0.0271,-0.9739,-663.82,-1250.00,60.55
5280,-3.8750,0.0232,-0.9769,-523.19,-656.25,794.92
5290,-3.8750,0.0179,-0.9833,-1023.19,-1046.88,1685.55
5300,-3.8750,0.0161,-0.9858,-1695.07,-1859.38,-1548.83
5310,-3.8750,0.0198,-0.9830,-1929.44,1812.50,-1126.95
5320,-3.8750,0.0240,-0.9802,-1460.69,-1828.12,-861.33
5330,-3.8750,0.0247,-0.9823,-913.82,-1468.75,-626.95
5340,-3.8750,0.0223,-0.9858,-835.69,-1734.38,-517.58
5350,-3.8750,0.0181,-0.9867,-1132.57,1812.50,-673.83
5360,-3.8750,0.0128,-0.9867,-1679.44,1703.12,-1080.08
5370,-3.8750,0.0071,-0.9888,1648.68,1703.12,-1611.33
5380,-3.8750,0.0037,-0.9922,914.31,1437.50,1810.55
5390,-3.8750,0.0048,-0.9937,476.81,1000.00,1357.42
5400,-3.8750,0.0071,-0.9922,617.43,812.50,1232.42
5410,-3.8750,0.0074,-0.9908,914.31,1000.00,1232.42
5420,-3.8750,0.0049,-0.9884,961.18,1171.88,1279.30
5430,-3.8750,-0.0004,-0.9829,633.06,1484.38,1388.67
5440,-3.8750,-0.0048,-0.9795,-38.82,-1796.94,1263.67
5450,-3.8750,-0.0060,-0.9801,-601.32,-1359.44,904.30
5460,-3.8750,-0.0057,-0.9844,-757.57,-1437.56,357.42
5470,-3.8439,-0.0044,-0.9907,-726.32,-1984.44,-283.20
5480,-3.8439,-0.0031,-0.9926,-554.44,1203.06,-720.70
5490,-3.8439,-0.0033,-0.9901,-382.57,968.69,-986.33
5500,-3.8439,-0.0042,-0.9882,-413.82,1281.19,-939.45
5510,-3.8439,-0.0055,-0.9862,-523.19,1531.19,-423.83
5520,-3.8750,-0.0072,-0.9822,-695.07,1781.19,544.92
5530,-3.8750,-0.0063,-0.9780,-913.82,-1703.19,1685.55
5540,-3.8750,-0.0040,-0.9744,-804.44,-1171.94,-1251.95
5550,-3.8750,-0.0018,-0.9695,-507.57,-703.19,-533.20
5560,-3.8750,0.0034,-0.9662,-226.32,-78.19,-501.95
5570,-3.8750,0.0099,-0.9695,445.56,328.12,-1033.14
5580,-3.8750,0.0134,-0.9791,1273.68,-93.75,-1720.70
5590,-3.8750,0.0126,-0.9900,1726.81,-1328.12,1591.80
5600,-3.8750,0.0082,-0.9965,1617.43,1281.25,919.92
5610,-3.8750,0.0020,-0.9968,1054.93,453.12,388.67
5620,-3.8439,-0.0023,-0.9917,258.06,406.25,-1.95
5630,-3.8439,-0.0027,-0.9838,-288.82,1078.06,-173.83
5640,-3.8439,-0.0018,-0.9801,-335.69,-1906.31,-111.33
5650,-3.8750,-0.0024,-0.9836,-226.32,-1437.56,154.30
5660,-3.8750,-0.0045,-0.9873,-304.44,-1890.69,685.55
5670,-3.8750,-0.0090,-0.9866,-570.07,1640.56,1138.67
5680,-3.8750,-0.0154,-0.9833,-1148.19,1734.31,1404.30
5690,-3.8750,-0.0210,-0.9807,-1960.69,-1843.81,1685.55
5700,-3.8750,-0.0258,-0.9812,1320.56,-1515.69,-1986.33
5710,-3.8750,-0.0276,-0.9822,711.18,-1578.19,-1736.33
5720,-3.8750,-0.0275,-0.9811,476.81,-1703.19,-1892.58
5730,-3.8750,-0.0287,-0.9796,492.43,-1562.56,1701.17
5740,-3.8750,-0.0294,-0.9811,336.18,-1375.06,1294.92
5750,-3.8750,-0.0273,-0.9855,242.43,-1562.56,1076.17
5760,-3.8750,-0.0216,-0.9866,508.06,1874.94,1029.30
5770,-3.8750,-0.0137,-0.9839,1242.43,1734.31,826.17
5780,-3.8750,-0.0065,-0.9827,-1741.94,-1921.94,498.05
5790,-3.8750,-0.0024,-0.9849,-820.07,-1765.69,216.80
5800,-3.8750,-0.0002,-0.9893,-304.44,1953.06,91.80
5810,-3.8750,0.0010,-0.9933,-23.19,1390.56,169.92
5820,-3.8750,-0.0015,-0.9950,133.06,859.38,404.30
5830,-3.8750,-0.0048,-0.9939,-179.44,656.19,716.80
5840,-3.8750,-0.0049,-0.9910,-601.32,796.81,1107.42
5850,-3.8750,-0.0021,-0.9879,-616.94,1171.81,1779.30
5860,-3.8750,0.0012,-0.9849,-257.57,1562.44,-1455.08
5870,-3.8750,0.0017,-0.9818,164.31,1937.50,-861.33
5880,-3.8750,-0.0012,-0.9801,226.81,-1671.88,-580.08
5890,-3.8750,-0.0071,-0.9816,-148.19,-1437.56,-642.58
5900,-3.8750,-0.0148,-0.9847,-898.19,-1625.06,-955.08
5910,-3.8750,-0.0194,-0.9877,-1882.57,1968.69,-1376.95
5920,-3.8750,-0.0166,-0.9891,1523.68,1593.69,-1798.83
5930,-3.8750,-0.0109,-0.9896,1883.06,1406.19,1857.42
5940,-3.8750,-0.0081,-0.9899,-1382.57,1343.69,1826.17
5950,-3.8750,-0.0068,-0.9879,-1023.19,1312.44,-1923.83
5960,-3.8750,-0.0071,-0.9845,-866.94,1562.44,-1455.08
5970,-3.8750,-0.0079,-0.9800,-898.19,1999.94,-908.20
5980,-3.8750,-0.0085,-0.9756,-1007.57,-1421.94,-595.70
5990,-3.8750,-0.0115,-0.9769,-1085.69,-859.44,-580.08
6000,-3.8750,-0.0161,-0.9841,-1460.69,-1031.31,-720.70
6010,-3.8750,-0.0187,-0.9906,1945.56,-1953.19,-986.33
6020,-3.8750,-0.0172,-0.9921,1617.43,1218.69,-1205.08
6030,-3.8750,-0.0131,-0.9895,1804.93,1031.19,-1220.70
6040,-3.8750,-0.0084,-0.9863,-1663.82,1359.31,-1080.08
6050,-3.8750,-0.0059,-0.9845,-1070.07,1765.56,-783.20
6060,-3.8750,-0.0057,-0.9840,-741.94,1999.94,-470.70
6070,-3.8750,-0.0060,-0.9829,-726.32,-1937.56,-267.58
6080,-3.8750,-0.0055,-0.9796,-757.57,-1796.94,-392.58
6090,-3.8750,-0.0035,-0.9771,-695.07,-1375.06,-783.20
6100,-3.8750,-0.0011,-0.9778,-445.07,-1046.94,-1314.45
6110,-3.8750,0.0016,-0.9849,-132.57,-1140.69,-1970.70
6120,-3.8750,0.0051,-0.9965,211.18,1937.50,1576.17
6130,-3.8750,0.0114,-1.0043,664.31,453.12,1451.17
6140,-3.8750,0.0216,-1.0040,1461.18,-546.88,1544.86
6150,-3.8750,0.0320,-0.9958,-1226.32,-515.62,1888.61
6160,-3.8750,0.0367,-0.9847,101.81,531.31,-1501.95
6170,-3.8750,0.0349,-0.9792,711.18,1953.19,-939.45
6180,-3.8750,0.0273,-0.9797,476.81,-1343.69,-470.70
6190,-3.8750,0.0166,-0.9810,-491.94,-1406.25,-1.95
6200,-3.8749,0.0061,-0.9816,-1866.94,-1562.50,435.55
6210,-3.8749,-0.0021,-0.9814,789.31,-1640.62,763.67
6220,-3.8749,-0.0051,-0.9806,-257.57,-1609.44,1107.42
6230,-3.8749,-0.0052,-0.9814,-648.19,-1500.06,1263.67
6240,-3.8749,-0.0070,-0.9841,-663.82,-1609.44,1232.42
6250,-3.8749,-0.0099,-0.9850,-882.57,-1953.19,1263.67
6260,-3.8749,-0.0143,-0.9845,-1257.57,1937.44,1201.17
6270,-3.8749,-0.0219,-0.9858,-1820.07,1999.94,935.55
6280,-3.8749,-0.0292,-0.9874,1211.18,1828.06,685.55
6290,-3.8749,-0.0336,-0.9862,273.68,1624.94,732.42
6300,-3.8749,-0.0353,-0.9839,-288.82,1781.13,810.55
6310,-3.8749,-0.0337,-0.9841,-507.57,-1922.00,904.30
6320,-3.8749,-0.0302,-0.9861,-304.44,-1953.25,951.17
6330,-3.8749,-0.0292,-0.9867,148.68,1796.81,904.30
6340,-3.8749,-0.0321,-0.9828,273.68,1718.69,1060.55
6350,-3.8749,-0.0369,-0.9778,-101.32,-1781.37,1201.17
6360,-3.8749,-0.0387,-0.9791,-710.69,-1140.75,1154.30
6370,-3.8749,-0.0358,-0.9868,-945.07,-1312.62,1107.42
6380,-3.8749,-0.0297,-0.9928,-570.07,1703.00,1138.67
6390,-3.8749,-0.0227,-0.9913,211.18,937.44,1404.30
6400,-3.8749,-0.0179,-0.9866,1101.81,1124.94,1560.55
6410,-3.8749,-0.0168,-0.9862,1711.18,1734.31,1498.05
6420,-3.8749,-0.0170,-0.9877,1851.81,1781.19,1607.42
6430,-3.8749,-0.0150,-0.9856,1836.18,1593.69,1716.80
6440,-3.8749,-0.0125,-0.9795,-1913.82,1859.31,1810.55
6450,-3.8749,-0.0142,-0.9758,-1585.69,-1359.44,1826.17
6460,-3.8749,-0.0197,-0.9811,-1804.44,-890.69,1638.67
6470,-3.8749,-0.0226,-0.9900,1492.43,-1562.56,1232.42
6480,-3.8749,-0.0199,-0.9948,1117.43,1296.81,701.17
6490,-3.8749,-0.0118,-0.9958,1461.18,687.44,76.17
6500,-3.8750,-0.0016,-0.9969,-1507.57,546.81,-705.08
6510,-3.8750,0.0027,-0.9974,-195.07,406.19,-1314.45
6520,-3.8750,-0.0023,-0.9954,351.81,328.12,-1751.95
6530,-3.8750,-0.0084,-0.9932,-288.82,609.31,1951.17
6540,-3.8750,-0.0076,-0.9917,-1070.07,890.56,1888.67
6550,-3.8750,-0.0026,-0.9897,-960.69,1078.06,-1955.08
6560,-3.8750,0.0012,-0.9885,-320.07,1328.06,-1548.83
6570,-3.8750,0.0046,-0.9869,164.31,1468.75,-923.83
6580,-3.8750,0.0101,-0.9843,601.81,1671.88,-158.20
6590,-3.8749,0.0137,-0.9802,1304.93,-1984.38,419.92
6600,-3.8749,0.0115,-0.9762,1758.06,-1468.75,716.80
6610,-3.8749,0.0051,-0.9757,1476.81,-953.12,919.92
6620,-3.8749,-0.0018,-0.9771,664.31,-890.62,1248.05
6630,-3.8749,-0.0070,-0.9773,-226.32,-1046.94,1701.17
6640,-3.8749,-0.0085,-0.9791,-882.57,-1078.19,1888.67
6650,-3.8749,-0.0067,-0.9835,-1085.69,-1312.56,1498.05
6660,-3.8749,-0.0032,-0.9868,-851.32,-1875.06,685.55
6670,-3.8750,0.0002,-0.9875,-398.19,1703.06,-298.83
6680,-3.8750,0.0018,-0.9868,39.31,1593.75,-1330.08
6690,-3.8750,-0.0018,-0.9872,242.43,1687.50,-1986.33
6700,-3.8750,-0.0103,-0.9891,-226.32,1656.19,1873.05
6710,-3.8750,-0.0181,-0.9890,-1304.44,1406.19,1951.17
6720,-3.8750,-0.0212,-0.9857,1695.56,1421.81,-1908.20
6730,-3.8750,-0.0199,-0.9821,1289.31,1843.69,-1814.45
6740,-3.8750,-0.0159,-0.9806,1461.18,-1687.56,-1689.45
6750,-3.8750,-0.0118,-0.9800,1976.81,-1500.06,-1564.45
6760,-3.8750,-0.0090,-0.9817,-1507.57,-1421.94,-1673.83
6770,-3.8750,-0.0060,-0.9869,-1148.19,-1640.69,-1876.95
6780,-3.8750,-0.0032,-0.9891,-757.57,1687.44,-1908.20
6790,-3.8750,-0.0026,-0.9868,-398.19,1406.19,-1986.33
6800,-3.8750,-0.0048,-0.9871,-320.07,1703.06,-1986.33
6810,-3.8750,-0.0078,-0.9899,-601.32,1671.81,-1658.20
6820,-3.8750,-0.0100,-0.9875,-991.94,1312.44,-1126.95
6830,-3.8750,-0.0116,-0.9799,-1273.19,1609.31,-908.20
6840,-3.8750,-0.0140,-0.9740,-1476.32,-1406.31,-1080.08
6850,-3.8750,-0.0189,-0.9747,-1788.82,-656.31,-1439.45
6860,-3.8750,-0.0243,-0.9823,1586.18,-750.06,-1861.33
6870,-3.8750,-0.0250,-0.9885,898.68,-1718.81,1951.17
6880,-3.8750,-0.0198,-0.9889,804.93,1484.31,-1955.08
6890,-3.8750,-0.0116,-0.9875,1476.81,1437.44,-1626.95
6900,-3.8750,-0.0037,-0.9856,-1476.32,1609.31,-1111.33
6910,-3.8750,0.0026,-0.9834,-460.69,1859.31,-517.58
6920,-3.8749,0.0048,-0.9803,336.18,-1875.00,91.80
6930,-3.8749,0.0027,-0.9773,617.43,-1484.38,341.80
6940,-3.8749,-0.0005,-0.9786,351.81,-1093.75,294.92
6950,-3.8749,-0.0037,-0.9860,-54.44,-1250.06,248.05
6960,-3.8749,-0.0056,-0.9951,-460.69,1812.44,404.30
6970,-3.8749,-0.0035,-0.9991,-710.69,640.56,748.05
6980,-3.8749,-0.0001,-0.9965,-445.07,124.94,951.17
6990,-3.8749,-0.0013,-0.9893,-7.57,468.69,1107.42
7000,-3.8749,-0.0101,-0.9816,-163.82,1390.56,1279.30
7010,-3.8749,-0.0260,-0.9789,-1288.82,-1625.06,1060.55
7020,-3.8749,-0.0448,-0.9822,679.93,-1281.31,388.67
7030,-3.8750,-0.0586,-0.9858,-1726.32,-1703.25,-517.58
7040,-3.8750,-0.0636,-0.9871,508.06,1828.00,-1455.08
7050,-3.8750,-0.0619,-0.9886,-132.57,1671.69,1498.05
7060,-3.8750,-0.0570,-0.9894,86.18,1468.63,638.67
7070,-3.8750,-0.0502,-0.9852,711.18,1374.88,341.80
7080,-3.8750,-0.0439,-0.9790,1586.18,1906.13,216.80
7090,-3.8750,-0.0394,-0.9749,-1616.94,-1297.00,107.42
7100,-3.8439,-0.0350,-0.9740,-1038.82,-765.75,-1.95
7110,-3.8439,-0.0306,-0.9769,-476.32,-656.37,-173.83
7120,-3.8439,-0.0255,-0.9822,86.18,-1031.31,-220.70
7130,-3.8439,-0.0189,-0.9873,742.43,-1703.19,-64.45
7140,-3.8750,-0.0121,-0.9891,1586.18,1640.56,388.67
7150,-3.8750,-0.0061,-0.9866,-1538.82,1406.19,1154.30
7160,-3.8750,-0.0035,-0.9839,-773.19,1734.31,1904.30
7170,-3.8750,-0.0055,-0.9835,-445.07,-1921.94,-1423.83
7180,-3.8750,-0.0070,-0.9871,-695.07,-1875.06,-705.08
7190,-3.8749,-0.0049,-0.9912,-882.57,1671.81,60.55
7200,-3.8749,-0.0010,-0.9897,-616.94,1140.56,638.67
7210,-3.8749,0.0044,-0.9839,-116.94,1328.06,919.92
7220,-3.8749,0.0090,-0.9779,570.56,-1937.50,951.17
7230,-3.8749,0.0088,-0.9767,1164.31,-1171.88,763.67
7240,-3.8749,0.0007,-0.9812,1133.06,-1015.62,279.30
7250,-3.8750,-0.0085,-0.9871,101.81,-1593.75,-642.58
7260,-3.8750,-0.0098,-0.9910,-1085.69,1671.81,-1658.20
7270,-3.8750,-0.0046,-0.9918,-1241.94,1171.81,1482.42
7280,-3.8750,0.0018,-0.9908,-585.69,1062.44,810.55
7290,-3.8750,0.0051,-0.9891,242.43,1171.88,248.05
7300,-3.8439,0.0027,-0.9869,664.31,1390.62,-1.95
7310,-3.8750,-0.0040,-0.9844,351.81,1671.88,29.30
7320,-3.8750,-0.0142,-0.9828,-507.57,-1984.44,123.05
7330,-3.8750,-0.0248,-0.9840,-1804.44,-1781.31,294.92
7340,-3.8750,-0.0322,-0.9855,836.18,-1937.56,607.42
7350,-3.8750,-0.0344,-0.9860,-116.94,1874.88,1029.30
7360,-3.8750,-0.0314,-0.9850,-398.19,1812.38,1576.17
7370,-3.8750,-0.0253,-0.9816,-7.57,1937.38,-1861.33
7380,-3.8750,-0.0203,-0.9780,773.68,-1625.06,-1580.08
7390,-3.8750,-0.0198,-0.9781,1414.31,-1171.94,-1501.95
7400,-3.8750,-0.0236,-0.9801,1476.81,-1187.56,-1486.33
7410,-3.8750,-0.0305,-0.9827,992.43,-1437.56,-1689.45
7420,-3.8750,-0.0374,-0.9878,101.81,-1765.69,-1939.45
7430,-3.8750,-0.0396,-0.9929,-773.19,1578.00,-1814.45
7440,-3.8750,-0.0360,-0.9944,-1054.44,921.75,-1470.70
7450,-3.8750,-0.0283,-0.9926,-601.32,734.25,-1126.95
7460,-3.8750,-0.0194,-0.9877,383.06,968.69,-580.08
7470,-3.8749,-0.0139,-0.9817,1523.68,1593.69,29.30
7480,-3.8749,-0.0148,-0.9780,-1773.19,-1640.69,326.17
7490,-3.8749,-0.0215,-0.9785,-1882.57,-1171.94,216.80
7500,-3.8750,-0.0312,-0.9830,1258.06,-1234.44,-64.45
7510,-3.8750,-0.0389,-0.9872,8.06,-1812.56,-455.08
7520,-3.8750,-0.0405,-0.9868,-976.32,1656.13,-626.95
7530,-3.8750,-0.0356,-0.9840,-1179.44,1703.00,-298.83
7540,-3.8749,-0.0269,-0.9824,-554.44,-1937.62,341.80
7550,-3.8749,-0.0175,-0.9829,570.56,-1734.44,998.05
7560,-3.8749,-0.0095,-0.9846,1773.68,-1796.94,1404.30
7570,-3.8749,-0.0037,-0.9878,-1210.69,1984.31,1685.55
7580,-3.8749,0.0024,-0.9924,-460.69,1578.06,1966.80
7590,-3.8749,0.0127,-0.9955,320.56,968.75,-1908.20
7600,-3.8749,0.0255,-0.9960,1633.06,578.12,-1908.20
7610,-3.8749,0.0364,-0.9980,-726.32,515.62,-1876.95
7620,-3.8749,0.0435,-1.0022,664.31,250.06,-1783.20
7630,-3.8749,0.0452,-1.0024,1570.56,-281.19,-1580.14
7640,-3.8749,0.0422,-0.9976,1789.31,-312.44,-1330.14
7650,-3.8749,0.0367,-0.9910,1414.31,312.56,-1673.83
7660,-3.8749,0.0267,-0.9844,711.18,1156.31,1341.80
7670,-3.8749,0.0133,-0.9821,-570.07,-2000.00,138.67
7680,-3.8750,0.0012,-0.9860,1711.18,-1703.12,-1048.83
7690,-3.8750,-0.0082,-0.9928,164.31,1796.88,-1736.33
7700,-3.8750,-0.0122,-0.9941,-1038.82,937.44,-1892.58
7710,-3.8750,-0.0109,-0.9855,-1554.44,765.56,-1939.45
7720,-3.8750,-0.0134,-0.9747,-1382.57,1874.94,-1939.45
7730,-3.8750,-0.0255,-0.9706,-1710.69,-750.06,-1658.20
7740,-3.8750,-0.0432,-0.9725,742.43,-218.81,-1251.95
7750,-3.8750,-0.0597,-0.9764,-1523.19,-468.87,-1080.08
7760,-3.8750,-0.0710,-0.9778,367.43,-968.87,-1236.33
7770,-3.8750,-0.0736,-0.9750,-1085.69,-1140.81,-1533.20
7780,-3.8750,-0.0695,-0.9719,-1413.82,-781.43,-1845.70
7790,-3.8750,-0.0686,-0.9723,-882.57,-390.81,1732.42
7800,-3.8750,-0.0720,-0.9753,-773.19,-437.68,1091.80
7810,-3.8750,-0.0753,-0.9779,-1210.69,-828.31,373.05
7820,-3.8439,-0.0789,-0.9784,-1632.57,-1156.43,-251.95
7830,-3.8439,-0.0841,-0.9788,1914.31,-1218.93,-767.58
7840,-3.8439,-0.0886,-0.9795,1242.43,-1265.81,-939.45
7850,-3.8439,-0.0897,-0.9786,664.31,-1359.56,-830.08
7860,-3.8439,-0.0869,-0.9766,523.68,-1250.18,-720.70
7870,-3.8439,-0.0841,-0.9757,883.06,-984.56,-673.83
7880,-3.8439,-0.0837,-0.9784,1242.43,-875.18,-751.95
7890,-3.8439,-0.0802,-0.9836,1289.31,-1218.93,-767.58
7900,-3.8439,-0.0686,-0.9865,1742.43,-1890.81,-486.33
7910,-3.8750,-0.0519,-0.9829,-773.19,1749.82,123.05
7920,-3.8750,-0.0355,-0.9769,1367.43,-1797.00,716.80
7930,-3.8750,-0.0227,-0.9773,-538.82,-1031.37,1076.17
7940,-3.8750,-0.0165,-0.9832,1101.81,-1078.19,1294.92
7950,-3.8750,-0.0175,-0.9878,1898.68,-1828.19,1482.42
7960,-3.8750,-0.0220,-0.9888,1773.68,1578.06,1513.67
7970,-3.8750,-0.0259,-0.9869,1195.56,1453.06,1373.05
7980,-3.8750,-0.0278,-0.9854,695.56,1687.44,1201.17
7990,-3.8750,-0.0273,-0.9873,445.56,1890.56,1091.80
8000,-3.8750,-0.0245,-0.9891,508.06,1640.56,1060.55
8010,-3.8750,-0.0228,-0.9879,867.43,1406.19,1029.30
8020,-3.8750,-0.0244,-0.9862,1086.18,1562.44,935.55
8030,-3.8750,-0.0280,-0.9861,883.06,1781.19,794.92
8040,-3.8750,-0.0315,-0.9888,429.93,1796.81,779.30
8050,-3.8750,-0.0326,-0.9893,-23.19,1453.00,1076.17
8060,-3.8750,-0.0305,-0.9855,-163.82,1390.50,1498.05
8070,-3.8750,-0.0261,-0.9840,101.81,1874.94,1732.42
8080,-3.8750,-0.0219,-0.9851,664.31,-1937.56,1794.92
8090,-3.8750,-0.0197,-0.9858,1211.18,1921.81,1716.80
8100,-3.8750,-0.0205,-0.9857,1492.43,1828.06,1607.42
8110,-3.8750,-0.0238,-0.9847,1383.06,1843.69,1498.05
8120,-3.8750,-0.0255,-0.9856,961.18,1968.69,1529.30
8130,-3.8750,-0.0236,-0.9884,742.43,1859.31,1732.42
8140,-3.8750,-0.0204,-0.9889,992.43,1499.94,1919.92
8150,-3.8750,-0.0181,-0.9867,1398.68,1437.44,-1955.08
8160,-3.8750,-0.0168,-0.9838,1695.56,1718.69,-1736.33
8170,-3.8750,-0.0161,-0.9823,1851.81,-1906.31,-1408.20
8180,-3.8750,-0.0155,-0.9856,1945.56,-1718.81,-986.33
8190,-3.8750,-0.0134,-0.9886,-1976.32,1859.31,-455.08
8200,-3.8749,-0.0096,-0.9872,-1710.69,1468.69,154.30
8210,-3.8749,-0.0043,-0.9872,-1226.32,1656.19,857.42
8220,-3.8749,0.0039,-0.9913,-538.82,1656.19,1701.17
8230,-3.8749,0.0122,-0.9945,508.06,1109.38,-1548.83
8240,-3.8749,0.0175,-0.9921,1570.56,703.12,-1251.95
8250,-3.8749,0.0178,-0.9857,-1757.57,1015.62,-1330.08
8260,-3.8749,0.0127,-0.9819,-1710.69,1828.12,-1783.20
8270,-3.8749,0.0037,-0.9829,1633.06,-1687.50,1310.55
8280,-3.8749,-0.0073,-0.9866,476.81,-1812.50,91.80
8290,-3.8750,-0.0188,-0.9888,-929.44,1734.31,-1126.95
8300,-3.8750,-0.0297,-0.9878,1601.81,1453.06,1779.30
8310,-3.8750,-0.0399,-0.9855,211.18,1578.06,1044.92
8320,-3.8750,-0.0493,-0.9816,-1101.32,1874.88,935.55
8330,-3.8750,-0.0579,-0.9772,1695.56,-1625.12,1091.80
8340,-3.8750,-0.0630,-0.9779,601.81,-1062.62,1576.17
8350,-3.8750,-0.0643,-0.9812,-54.44,-1156.43,-1548.83
8360,-3.8750,-0.0638,-0.9801,-226.32,-1578.31,-486.33
8370,-3.8749,-0.0615,-0.9744,-163.82,-1437.68,513.67
8380,-3.8749,-0.0599,-0.9689,133.06,-703.25,1232.42
8390,-3.8749,-0.0610,-0.9698,336.18,-0.12,1513.67
8400,-3.8749,-0.0632,-0.9760,195.56,-125.12,1373.05
8410,-3.8749,-0.0640,-0.9819,-85.69,-906.43,998.05
8420,-3.8749,-0.0609,-0.9854,-179.44,-1672.06,607.42
8430,-3.8749,-0.0541,-0.9874,211.18,1890.50,373.05
8440,-3.8749,-0.0461,-0.9880,1086.18,1624.88,404.30
8450,-3.8749,-0.0403,-0.9861,-1898.19,1546.75,685.55
8460,-3.8749,-0.0358,-0.9833,-1148.19,1796.75,1060.55
8470,-3.8749,-0.0325,-0.9805,-570.07,-1843.87,1435.55
8480,-3.8749,-0.0322,-0.9791,-148.19,-1484.50,1576.17
8490,-3.8749,-0.0337,-0.9797,-116.94,-1312.62,1435.55
8500,-3.8749,-0.0337,-0.9822,-304.44,-1390.75,1216.80
8510,-3.8749,-0.0305,-0.9858,-304.44,-1703.25,1185.55
8520,-3.8749,-0.0242,-0.9886,101.81,1828.06,1357.42
8530,-3.8749,-0.0153,-0.9888,914.31,1468.69,1513.67
8540,-3.8749,-0.0033,-0.9895,-1945.07,1453.06,1466.80
8550,-3.8749,0.0112,-0.9937,-413.82,1359.31,1294.92
8560,-3.8749,0.0242,-0.9984,1445.56,812.50,1013.67
8570,-3.8749,0.0332,-0.9988,-898.19,203.12,451.17
8580,-3.8750,0.0365,-0.9973,258.06,156.31,-345.70
8590,-3.8750,0.0347,-1.0009,679.93,343.81,-1189.45
8600,-3.8750,0.0328,-1.0056,445.56,-109.31,-1736.39
8610,-3.8750,0.0323,-1.0018,211.18,-718.69,-1752.01
8620,-3.8750,0.0299,-0.9912,148.68,-234.31,-1377.01
8630,-3.8750,0.0226,-0.9823,-163.82,1125.00,-845.70
8640,-3.8750,0.0079,-0.9790,-1101.32,-1734.38,-251.95
8650,-3.8749,-0.0110,-0.9817,1023.68,-1312.50,419.92
8660,-3.8749,-0.0267,-0.9856,-1398.19,-1640.69,1029.30
8670,-3.8749,-0.0350,-0.9843,586.18,1859.31,1466.80
8680,-3.8749,-0.0376,-0.9801,-476.32,-1968.87,1685.55
8690,-3.8749,-0.0398,-0.9771,-804.44,-1437.62,1748.05
8700,-3.8749,-0.0446,-0.9746,-1085.69,-1047.00,1591.80
8710,-3.8749,-0.0530,-0.9746,-1695.07,-734.50,982.42
8720,-3.8749,-0.0649,-0.9785,1226.81,-734.50,91.80
8730,-3.8750,-0.0770,-0.9854,-304.44,-1234.56,-673.83
8740,-3.8750,-0.0853,-0.9913,-1851.32,1890.44,-939.45
8750,-3.8750,-0.0865,-0.9907,1086.18,1124.82,-783.20
8760,-3.8750,-0.0801,-0.9839,929.93,1202.94,-533.20
8770,-3.8750,-0.0699,-0.9772,1758.06,-1922.06,-142.58
8780,-3.8749,-0.0626,-0.9734,-945.07,-1062.68,326.17
8790,-3.8749,-0.0594,-0.9730,-7.57,-578.31,763.67
8800,-3.8749,-0.0581,-0.9755,398.68,-531.37,1216.80
8810,-3.8749,-0.0582,-0.9786,570.56,-843.87,1451.17
8820,-3.8749,-0.0593,-0.9810,554.93,-1250.12,1388.67
8830,-3.8749,-0.0583,-0.9810,414.31,-1547.00,1248.05
8840,-3.8749,-0.0575,-0.9790,539.31,-1547.00,998.05
8850,-3.8749,-0.0592,-0.9791,648.68,-1297.00,591.80
8860,-3.8749,-0.0588,-0.9821,429.93,-1312.62,326.17
8870,-3.8749,-0.0549,-0.9855,476.81,-1687.62,263.67
8880,-3.8749,-0.0502,-0.9862,976.81,1874.88,232.42
8890,-3.8749,-0.0458,-0.9829,1586.18,1781.13,357.42
8900,-3.8749,-0.0421,-0.9775,-1851.32,-1797.00,607.42
8910,-3.8749,-0.0411,-0.9727,-1382.57,-1109.50,576.17
8920,-3.8749,-0.0439,-0.9722,-1257.57,-484.50,279.30
8930,-3.8749,-0.0448,-0.9781,-1616.94,-422.00,169.92
8940,-3.8749,-0.0393,-0.9852,-1726.32,-1187.62,466.80
8950,-3.8749,-0.0276,-0.9867,-1023.19,1906.13,857.42
8960,-3.8749,-0.0137,-0.9866,476.81,1718.69,998.05
8970,-3.8749,-0.0040,-0.9902,-1741.94,1734.31,732.42
8980,-3.8749,-0.0011,-0.9941,-507.57,1265.56,248.05
8990,-3.8750,-0.0012,-0.9955,-132.57,765.56,-251.95
9000,-3.8750,-0.0021,-0.9954,-148.19,593.69,-517.58
9010,-3.8750,-0.0022,-0.9933,-257.57,609.31,-361.33
9020,-3.8750,-0.0024,-0.9908,-273.19,874.94,-33.20
9030,-3.8749,-0.0045,-0.9905,-304.44,1187.44,341.80
9040,-3.8749,-0.0082,-0.9905,-570.07,1234.31,904.30
9050,-3.8749,-0.0150,-0.9902,-1038.82,1234.31,1451.17
9060,-3.8749,-0.0248,-0.9882,-1913.82,1265.56,1841.80
9070,-3.8749,-0.0321,-0.9851,836.18,1531.19,1966.80
9080,-3.8749,-0.0341,-0.9835,-101.32,1921.75,1716.80
9090,-3.8749,-0.0328,-0.9816,-351.32,-1875.12,1294.92
9100,-3.8749,-0.0321,-0.9772,-195.07,-1625.12,732.42
9110,-3.8749,-0.0349,-0.9736,-101.32,-1062.62,76.17
9120,-3.8750,-0.0435,-0.9756,-460.69,-609.50,-533.20
9130,-3.8750,-0.0551,-0.9817,-1554.44,-859.50,-1126.95
9140,-3.8750,-0.0623,-0.9874,961.18,-1640.75,-1767.58
9150,-3.8750,-0.0614,-0.9886,39.31,1624.88,1638.67
9160,-3.8750,-0.0543,-0.9852,148.68,1468.63,1482.42
9170,-3.8750,-0.0450,-0.9808,1054.93,1906.13,1935.55
9180,-3.8750,-0.0374,-0.9777,-1757.57,-1531.37,-1330.08
9190,-3.8750,-0.0345,-0.9768,-773.19,-1125.12,-705.08
9200,-3.8750,-0.0393,-0.9788,-413.82,-1015.75,-158.20
9210,-3.8749,-0.0490,-0.9805,-1023.19,-1265.75,263.67
9220,-3.8749,-0.0571,-0.9812,1742.43,-1484.50,544.92
9230,-3.8749,-0.0594,-0.9817,695.56,-1578.25,654.30
9240,-3.8749,-0.0563,-0.9817,398.68,-1640.75,451.17
9250,-3.8749,-0.0505,-0.9805,804.93,-1640.75,138.67
9260,-3.8750,-0.0457,-0.9791,1539.31,-1484.50,-189.45
9270,-3.8750,-0.0452,-0.9789,-1835.69,-1312.62,-455.08
9280,-3.8750,-0.0502,-0.9795,-1773.19,-1281.37,-673.83
9290,-3.8750,-0.0580,-0.9817,1586.18,-1359.50,-830.08
9300,-3.8750,-0.0625,-0.9849,586.18,-1640.75,-783.20
9310,-3.8750,-0.0596,-0.9865,8.06,1953.00,-626.95
9320,-3.8750,-0.0485,-0.9851,383.06,1749.88,-345.70
9330,-3.8750,-0.0337,-0.9849,1804.93,1921.75,-48.83
9340,-3.8749,-0.0209,-0.9871,-304.44,1953.00,232.42
9350,-3.8749,-0.0157,-0.9890,1336.18,1671.81,607.42
9360,-3.8749,-0.0199,-0.9905,1992.43,1421.81,888.67
9370,-3.8749,-0.0283,-0.9885,1461.18,1234.31,998.05
9380,-3.8749,-0.0361,-0.9854,383.06,1484.31,826.17
9390,-3.8749,-0.0400,-0.9854,-616.94,1890.50,529.30
9400,-3.8749,-0.0374,-0.9835,-1116.94,1890.50,451.17
9410,-3.8749,-0.0289,-0.9781,-773.19,-1875.12,404.30
9420,-3.8749,-0.0217,-0.9744,304.93,-1187.56,263.67
9430,-3.8749,-0.0227,-0.9753,1226.81,-703.19,29.30
9440,-3.8750,-0.0309,-0.9811,1101.81,-828.19,-220.70
9450,-3.8750,-0.0409,-0.9897,54.93,-1562.56,-267.58
9460,-3.8749,-0.0468,-0.9963,-1226.32,1328.00,123.05
9470,-3.8749,-0.0459,-0.9963,-1976.32,484.25,841.80
9480,-3.8749,-0.0397,-0.9885,-1866.94,484.25,1873.05
9490,-3.8749,-0.0302,-0.9774,-1070.07,1484.25,-783.20
9500,-3.8748,-0.0227,-0.9727,148.68,-1093.81,404.30
9510,-3.8748,-0.0197,-0.9766,1101.81,-484.44,1044.92
9520,-3.8748,-0.0214,-0.9802,1492.43,-984.44,1013.67
9530,-3.8748,-0.0289,-0.9810,1273.68,-1453.19,591.80
9540,-3.8748,-0.0382,-0.9827,304.93,-1546.94,341.80
9550,-3.8748,-0.0441,-0.9854,-882.57,-1765.75,232.42
9560,-3.8748,-0.0442,-0.9878,-1632.57,1890.50,76.17
9570,-3.8748,-0.0386,-0.9885,-1648.19,1578.00,13.67
9580,-3.8748,-0.0295,-0.9861,-929.44,1484.25,107.42
9590,-3.8748,-0.0200,-0.9845,226.81,1796.81,341.80
9600,-3.8748,-0.0132,-0.9871,1445.56,1999.94,701.17
9610,-3.8748,-0.0099,-0.9919,-1679.44,1671.81,1029.30
9620,-3.8748,-0.0093,-0.9934,-1257.57,1046.81,1341.80
9630,-3.8748,-0.0120,-0.9901,-1179.44,859.31,1607.42
9640,-3.8748,-0.0164,-0.9862,-1523.19,1281.19,1904.30
9650,-3.8748,-0.0200,-0.9818,1914.31,1781.19,-1626.95
9660,-3.8748,-0.0201,-0.9771,1445.56,-1656.31,-1267.58
9670,-3.8748,-0.0153,-0.9763,1429.93,-1046.94,-1298.83
9680,-3.8748,-0.0084,-0.9797,-1945.07,-953.19,-1705.08
9690,-3.8748,-0.0034,-0.9843,-1070.07,-1390.69,1529.30
9700,-3.8748,-0.0020,-0.9897,-429.44,-1968.81,591.80
9710,-3.8749,-0.0027,-0.9945,-241.94,1328.06,-158.20
9720,-3.8749,-0.0062,-0.9956,-335.69,718.69,-595.70
9730,-3.8749,-0.0122,-0.9924,-788.82,578.06,-767.58
9740,-3.8749,-0.0176,-0.9882,-1554.44,984.31,-626.95
9750,-3.8749,-0.0209,-0.9863,1758.06,1531.19,-267.58
9760,-3.8749,-0.0225,-0.9856,1336.18,1765.56,-33.20
9770,-3.8749,-0.0226,-0.9845,1133.06,1859.31,-48.83
9780,-3.8749,-0.0221,-0.9847,1117.43,1999.94,-220.70
9790,-3.8749,-0.0219,-0.9845,1179.93,1968.69,-455.08
9800,-3.8749,-0.0214,-0.9866,1211.18,1999.94,-814.45
9810,-3.8749,-0.0220,-0.9934,1273.68,1734.31,-1111.33
9820,-3.8749,-0.0237,-0.9980,1195.56,859.31,-1314.45
9830,-3.8749,-0.0238,-0.9955,976.81,265.56,-1470.70
9840,-3.8749,-0.0210,-0.9895,961.18,593.69,-1408.20
9850,-3.8749,-0.0183,-0.9841,1320.56,1359.31,-1173.83
9860,-3.8749,-0.0171,-0.9819,1664.31,-1953.19,-1017.58
9870,-3.8749,-0.0177,-0.9816,1820.56,-1671.94,-939.45
9880,-3.8749,-0.0215,-0.9799,1742.43,-1625.06,-939.45
9890,-3.8749,-0.0256,-0.9790,1258.06,-1406.31,-1126.95
9900,-3.8749,-0.0271,-0.9794,726.81,-1296.94,-1345.70
9910,-3.8749,-0.0264,-0.9816,539.31,-1343.81,-1501.95
9920,-3.8749,-0.0232,-0.9868,633.06,-1625.06,-1533.20
9930,-3.8749,-0.0178,-0.9890,1039.31,1703.06,-1455.08
9940,-3.8749,-0.0131,-0.9844,1726.81,1421.81,-1283.20
9950,-3.8749,-0.0118,-0.9778,-1663.82,-1984.44,-1017.58
9960,-3.8749,-0.0150,-0.9729,-1507.57,-1140.69,-798.83
9970,-3.8749,-0.0199,-0.9707,-1913.82,-515.69,-861.33
9980,-3.8749,-0.0238,-0.9731,1461.18,-234.44,-1314.45
9990,-3.8749,-0.0273,-0.9807,961.18,-546.94,1919.92
10000,-3.8749,-0.0286,-0.9886,508.06,-1515.69,1091.80
10010,-3.8749,-0.0244,-0.9930,351.81,1468.69,248.05
10020,-3.8750,-0.0173,-0.9956,883.06,906.19,-580.08
10030,-3.8750,-0.0135,-0.9988,1789.31,578.06,-1173.83
10040,-3.8750,-0.0155,-1.0013,-1726.32,171.81,-1189.45
10050,-3.8750,-0.0199,-0.9990,-1976.32,-156.31,-392.64
10060,-3.8749,-0.0223,-0.9904,1461.18,140.56,857.42
10070,-3.8749,-0.0229,-0.9799,1148.68,1249.94,1935.55
10080,-3.8749,-0.0249,-0.9691,1070.56,-1406.31,-1345.70
10090,-3.8749,-0.0291,-0.9624,820.56,-31.31,-923.83
10100,-3.8749,-0.0339,-0.9642,289.31,828.06,-986.27
10110,-3.8749,-0.0364,-0.9744,-335.69,593.63,-1689.39
10120,-3.8749,-0.0359,-0.9885,-648.19,-703.25,935.55
10130,-3.8750,-0.0320,-0.9945,-585.69,1484.25,-548.83
10140,-3.8750,-0.0260,-0.9889,-85.69,718.63,-1736.33
10150,-3.8750,-0.0219,-0.9795,679.93,1437.44,1685.55
10160,-3.8750,-0.0206,-0.9718,1211.18,-1359.44,1982.42
10170,-3.8750,-0.0215,-0.9662,1367.43,-375.06,-1267.58
10180,-3.8750,-0.0250,-0.9645,1258.06,343.69,-564.39
10190,-3.8749,-0.0308,-0.9692,804.93,562.44,44.98
10200,-3.8749,-0.0371,-0.9778,70.56,-46.94,748.05
10210,-3.8749,-0.0430,-0.9855,-741.94,-1140.75,1591.80
10220,-3.8749,-0.0463,-0.9921,-1491.94,1874.88,-1439.45
10230,-3.8749,-0.0443,-0.9980,-1913.82,1031.13,-251.95
10240,-3.8748,-0.0345,-1.0021,-1663.82,265.50,1107.42
10250,-3.8748,-0.0181,-1.0050,-413.82,-250.12,-1283.26
10260,-3.8746,0.0007,-1.0065,1695.56,-625.06,435.49
10270,-3.8746,0.0183,-1.0044,101.81,-828.12,-1877.01
10280,-3.8746,0.0309,-0.9971,-1648.19,-562.50,-439.51
10290,-3.8745,0.0347,-0.9860,-38.82,375.00,701.17
10300,-3.8745,0.0271,-0.9784,445.56,1796.94,1451.17
10310,-3.8745,0.0129,-0.9789,-523.19,-1234.38,1654.30
10320,-3.8745,0.0000,-0.9823,1664.31,-1296.88,1357.42
10330,-3.8745,-0.0104,-0.9843,8.06,-1734.38,498.05
10340,-3.8746,-0.0175,-0.9850,-1320.07,-1968.81,-861.33
10350,-3.8746,-0.0208,-0.9855,1773.68,1937.44,1373.05
10360,-3.8748,-0.0233,-0.9878,1351.81,1874.94,-689.45
10370,-3.8748,-0.0264,-0.9908,1023.68,1578.06,1154.30
10380,-3.8749,-0.0282,-0.9917,633.06,1187.44,-845.70
10390,-3.8749,-0.0289,-0.9877,398.68,1078.06,1466.80
10400,-3.8749,-0.0298,-0.9795,304.93,1593.69,76.17
10410,-3.8750,-0.0311,-0.9706,195.56,-1359.44,-1033.20
10420,-3.8750,-0.0328,-0.9636,23.68,-218.81,1982.42
10430,-3.8750,-0.0363,-0.9600,-195.07,671.75,779.36
10440,-3.8439,-0.0420,-0.9615,-632.57,1140.50,-830.02
10450,-3.8439,-0.0498,-0.9711,-1366.94,937.38,1326.23
10460,-3.8440,-0.0532,-0.9851,1633.06,-281.37,-205.08
10470,-3.8440,-0.0479,-0.9946,1195.56,1921.75,-1158.20
10480,-3.8440,-0.0367,-0.9980,1883.06,703.00,-1689.45
10490,-3.8440,-0.0229,-0.9972,-695.07,265.50,-1986.33
10500,-3.8440,-0.0089,-0.9939,1070.56,374.94,1810.55
10510,-3.8440,0.0023,-0.9940,-1132.57,796.81,1966.80
10520,-3.8440,0.0093,-0.9968,304.93,765.62,-1142.58
10530,-3.8439,0.0074,-0.9960,1195.56,406.25,201.17
10540,-3.8439,-0.0038,-0.9874,961.18,515.62,1576.17
10550,-3.8439,-0.0205,-0.9767,-476.32,1624.94,-1283.20
10560,-3.8439,-0.0391,-0.9697,1383.06,-1000.06,-392.58
10570,-3.8750,-0.0546,-0.9689,-991.94,-109.50,232.42
10580,-3.8750,-0.0624,-0.9730,1023.68,-0.12,638.67
10590,-3.8750,-0.0610,-0.9768,23.68,-531.37,888.67
10600,-3.8750,-0.0527,-0.9803,195.56,-1015.75,779.30
10610,-3.8750,-0.0414,-0.9871,1258.06,-1468.87,419.92
10620,-3.8750,-0.0306,-0.9933,-1288.82,1671.75,388.67
10630,-3.8750,-0.0231,-0.9923,86.18,874.94,888.67
10640,-3.8750,-0.0201,-0.9833,1054.93,999.94,1701.17
10650,-3.8750,-0.0227,-0.9731,1429.93,-1843.81,-1486.33
10660,-3.8750,-0.0299,-0.9681,1101.81,-546.94,-892.58
10670,-3.8750,-0.0375,-0.9678,179.93,93.69,-564.39
10680,-3.8750,-0.0404,-0.9723,-788.82,140.50,-392.52
10690,-3.8750,-0.0338,-0.9832,-1163.82,-437.62,-142.58
10700,-3.8749,-0.0175,-0.9918,-320.07,-1828.25,310.55
10710,-3.8749,0.0049,-0.9918,1773.68,1062.44,1060.55
10720,-3.8749,0.0269,-0.9879,633.06,1046.88,1966.80
10730,-3.8749,0.0427,-0.9840,-554.44,1546.88,-939.45
10740,-3.8749,0.0518,-0.9801,1476.81,-1953.06,-33.20
10750,-3.8748,0.0553,-0.9786,-1366.94,-1453.06,388.67
10760,-3.8748,0.0540,-0.9807,-913.82,-1265.56,263.67
10770,-3.8749,0.0470,-0.9861,-1085.69,-1531.19,-189.45
10780,-3.8749,0.0339,-0.9945,-1976.32,1781.31,-767.58
10790,-3.8749,0.0175,-1.0015,351.81,703.19,-1158.20
10800,-3.8749,0.0018,-1.0004,-1757.57,-187.50,-1298.89
10810,-3.8749,-0.0095,-0.9930,242.43,-46.88,-1377.01
10820,-3.8749,-0.0171,-0.9880,-1210.69,906.19,-1501.95
10830,-3.8749,-0.0214,-0.9901,1820.56,1546.81,-1876.95
10840,-3.8749,-0.0221,-0.9963,1273.68,1281.19,1513.67
10850,-3.8749,-0.0192,-1.0012,1179.93,484.31,1029.30
10860,-3.8749,-0.0137,-1.0007,1554.93,-140.69,1107.36
10870,-3.8749,-0.0061,-0.9905,-1741.94,-78.19,1388.61
10880,-3.8749,0.0010,-0.9757,-773.19,1234.31,1451.17
10890,-3.8749,0.0011,-0.9702,133.06,-890.62,1357.42
10900,-3.8749,-0.0071,-0.9757,148.68,-187.50,1373.05
10910,-3.8749,-0.0181,-0.9860,-898.19,-875.06,1623.05
10920,-3.8749,-0.0264,-0.9938,1695.56,1812.44,-1955.08
10930,-3.8749,-0.0305,-0.9907,633.06,812.44,-1501.95
10940,-3.8749,-0.0310,-0.9821,101.81,1203.06,-1001.95
10950,-3.8749,-0.0293,-0.9758,39.31,-1687.56,-376.95
10960,-3.8748,-0.0293,-0.9742,258.06,-890.69,138.67
10970,-3.8748,-0.0302,-0.9742,258.06,-687.56,201.17
10980,-3.8749,-0.0291,-0.9724,148.68,-687.56,-220.70
10990,-3.8749,-0.0271,-0.9723,289.31,-453.19,-1017.58
11000,-3.8749,-0.0248,-0.9762,539.31,-437.56,1982.42
11010,-3.8749,-0.0225,-0.9818,836.18,-937.56,982.42
11020,-3.8750,-0.0223,-0.9854,1133.06,-1656.31,-158.20
11030,-3.8750,-0.0256,-0.9867,1148.68,1890.56,-1361.33
11040,-3.8750,-0.0331,-0.9882,726.81,1718.69,1779.30
11050,-3.8750,-0.0415,-0.9891,-226.32,1531.13,1357.42
11060,-3.8750,-0.0463,-0.9890,-1304.44,1406.13,1419.92
11070,-3.8750,-0.0431,-0.9873,-1913.82,1421.75,-1970.70
11080,-3.8750,-0.0317,-0.9830,-1507.57,1640.50,-1064.45
11090,-3.8750,-0.0160,-0.9768,-54.44,-1812.62,-95.70
11100,-3.8749,-0.0015,-0.9714,1961.18,-1015.69,810.55
11110,-3.8749,0.0066,-0.9717,-179.44,-328.19,1326.17
11120,-3.8749,0.0052,-0.9805,851.81,-375.00,1138.67
11130,-3.8749,-0.0031,-0.9904,679.93,-1500.00,482.42
11140,-3.8750,-0.0139,-0.9933,-382.57,1249.94,-470.70
11150,-3.8750,-0.0222,-0.9912,-1773.19,874.94,-1626.95
11160,-3.8750,-0.0233,-0.9907,1164.31,1140.56,1341.80
11170,-3.8750,-0.0171,-0.9949,1023.68,1203.06,529.30
11180,-3.8439,-0.0061,-0.9998,1820.56,671.81,-17.58
11190,-3.8439,0.0039,-0.9984,-773.19,46.81,-111.33
11200,-3.8750,0.0087,-0.9905,508.06,203.12,60.55
11210,-3.8750,0.0049,-0.9862,1117.43,1218.75,232.42
11220,-3.8750,-0.0082,-0.9899,633.06,1765.62,591.80
11230,-3.8750,-0.0236,-0.9940,-1038.82,1312.44,1201.17
11240,-3.8750,-0.0330,-0.9926,992.43,781.19,1732.42
11250,-3.8750,-0.0353,-0.9844,-210.69,968.63,-1767.58
11260,-3.8750,-0.0333,-0.9731,-507.57,-1984.50,-1267.58
11270,-3.8750,-0.0309,-0.9663,-257.57,-547.00,-1095.70
11280,-3.8750,-0.0323,-0.9696,54.93,328.06,-1173.77
11290,-3.8750,-0.0375,-0.9801,-132.57,-93.87,-1267.58
11300,-3.8750,-0.0421,-0.9879,-788.82,-1437.62,-1439.45
11310,-3.8750,-0.0443,-0.9878,-1382.57,1562.38,-1705.08
11320,-3.8750,-0.0436,-0.9833,-1663.82,1578.00,-1908.20
11330,-3.8750,-0.0414,-0.9823,-1570.07,-1843.87,1935.55
11340,-3.8750,-0.0378,-0.9862,-1288.82,-1718.87,-1908.20
11350,-3.8750,-0.0309,-0.9882,-835.69,1781.13,-1392.58
11360,-3.8750,-0.0239,-0.9854,54.93,1531.19,-923.83
11370,-3.8750,-0.0217,-0.9800,945.56,1890.56,-330.08
11380,-3.8749,-0.0244,-0.9747,1226.81,-1421.94,638.67
11390,-3.8749,-0.0293,-0.9720,883.06,-750.06,1623.05
11400,-3.8749,-0.0341,-0.9720,258.06,-406.31,-1595.70
11410,-3.8749,-0.0365,-0.9713,-351.32,-406.37,-970.70
11420,-3.8749,-0.0350,-0.9723,-663.82,-312.62,-892.58
11430,-3.8749,-0.0286,-0.9781,-476.32,-437.62,-1408.20
11440,-3.8749,-0.0168,-0.9856,351.81,-1187.56,1857.42
11450,-3.8749,-0.0037,-0.9917,1851.81,1859.31,1169.92
11460,-3.8749,0.0085,-0.9958,-460.69,1078.06,560.55
11470,-3.8750,0.0182,-1.0010,1101.81,531.25,-1.95
11480,-3.8750,0.0237,-1.0048,-1663.82,-125.00,-408.26
11490,-3.8750,0.0256,-1.0017,-960.69,-609.38,-627.01
11500,-3.8750,0.0225,-0.9946,-710.69,-218.75,-548.89
11510,-3.8750,0.0134,-0.9906,-1116.94,687.50,-236.33
11520,-3.8749,0.0032,-0.9928,1726.81,1203.12,216.80
11530,-3.8749,-0.0056,-0.9978,414.31,921.88,748.05
11540,-3.8749,-0.0100,-0.9977,-710.69,296.81,1294.92
11550,-3.8749,-0.0084,-0.9910,-1273.19,312.44,1888.67
11560,-3.8749,-0.0046,-0.9833,-1070.07,1171.81,-1408.20
11570,-3.8749,-0.0026,-0.9803,-585.69,-1843.81,-876.95
11580,-3.8749,-0.0042,-0.9808,-320.07,-1468.81,-642.58
11590,-3.8749,-0.0092,-0.9813,-523.19,-1531.31,-501.95
11600,-3.8749,-0.0156,-0.9813,-1163.82,-1593.81,-642.58
11610,-3.8749,-0.0220,-0.9802,-1991.94,-1593.81,-1111.33
11620,-3.8749,-0.0278,-0.9785,1195.56,-1453.19,-1798.83
11630,-3.8749,-0.0345,-0.9756,445.56,-1234.44,1576.17
11640,-3.8749,-0.0438,-0.9729,-413.82,-859.50,1154.30
11650,-3.8749,-0.0552,-0.9720,-1601.32,-515.75,857.42
11660,-3.8749,-0.0667,-0.9739,945.56,-406.37,857.42
11670,-3.8749,-0.0750,-0.9760,-523.19,-640.81,1279.30
11680,-3.8749,-0.0753,-0.9749,-1585.69,-906.43,-1892.58
11690,-3.8749,-0.0695,-0.9745,-1632.57,-765.81,-783.20
11700,-3.8748,-0.0590,-0.9766,-882.57,-718.93,216.80
11710,-3.8748,-0.0425,-0.9805,461.18,-984.50,544.92
11720,-3.8748,-0.0186,-0.9873,-1429.44,-1484.50,498.05
11730,-3.8748,0.0132,-0.9910,1633.06,1640.56,873.05
11740,-3.8748,0.0453,-0.9879,1695.56,1156.25,1451.17
11750,-3.8748,0.0712,-0.9834,1804.93,1546.94,1435.55
11760,-3.8748,0.0874,-0.9836,1117.43,-1874.88,623.05
11770,-3.8749,0.0903,-0.9902,-804.44,-1906.13,-501.95
11780,-3.8749,0.0789,-0.9966,-429.44,1250.12,1576.17
11790,-3.8750,0.0573,-1.0032,-1898.19,437.62,-1158.20
11800,-3.8750,0.0352,-1.0099,-663.82,-406.19,669.86
11810,-3.8439,0.0177,-1.0101,508.06,-1265.56,-564.51
11820,-3.8439,0.0060,-1.0026,-1726.32,-1296.88,-970.76
11830,-3.8439,0.0005,-0.9883,773.68,-328.12,-580.14
11840,-3.8750,-0.0031,-0.9767,70.56,1500.00,357.42
11850,-3.8750,-0.0085,-0.9775,-382.57,-1000.06,1669.92
11860,-3.8750,-0.0138,-0.9858,-1085.69,-1109.44,-705.08
11870,-3.8749,-0.0164,-0.9890,-1757.57,1828.06,732.42
11880,-3.8749,-0.0164,-0.9844,1914.31,1421.81,1685.55
11890,-3.8749,-0.0144,-0.9780,1914.31,-1984.44,-1939.45
11900,-3.8749,-0.0137,-0.9736,-1835.69,-1171.94,1701.17
11910,-3.8749,-0.0168,-0.9725,-1741.94,-609.44,576.17
11920,-3.8750,-0.0215,-0.9763,1851.81,-468.81,-1095.70
11930,-3.8750,-0.0242,-0.9838,1258.06,-953.19,1076.17
11940,-3.8439,-0.0247,-0.9939,914.31,-1906.31,-298.83
11950,-3.8439,-0.0209,-1.0055,851.81,796.81,-580.08
11960,-3.8750,-0.0088,-1.0118,1336.18,-687.56,497.99
11970,-3.8750,0.0109,-1.0078,-1116.94,-1500.06,-1205.14
11980,-3.8749,0.0304,-0.9958,1398.68,-1000.00,-1970.76
11990,-3.8748,0.0406,-0.9807,-101.32,531.25,1732.42
12000,-3.8746,0.0361,-0.9697,1211.18,-1531.19,1107.42
12010,-3.8746,0.0201,-0.9657,633.06,-124.94,-345.70
12020,-3.8745,-0.0002,-0.9656,-1413.82,390.62,1169.98
12030,-3.8745,-0.0195,-0.9666,-23.19,421.81,1310.61
12040,-3.8745,-0.0333,-0.9680,1508.06,296.81,169.98
12050,-3.8746,-0.0405,-0.9709,-257.57,109.25,-1970.64
12060,-3.8748,-0.0402,-0.9764,-1179.44,-265.75,-736.33
12070,-3.8748,-0.0341,-0.9852,-1132.57,-968.87,216.80
12080,-3.8749,-0.0276,-0.9952,-351.32,1906.13,1138.67
12090,-3.8750,-0.0251,-1.0035,476.81,624.94,-1251.95
12100,-3.8750,-0.0255,-1.0077,789.31,-437.56,1513.61
12110,-3.8750,-0.0260,-1.0044,742.43,-968.81,1326.11
12120,-3.8750,-0.0271,-0.9927,679.93,-546.94,1966.74
12130,-3.8750,-0.0302,-0.9779,539.31,953.06,-689.45
12140,-3.8749,-0.0347,-0.9667,148.68,-1156.31,1029.30
12150,-3.8749,-0.0360,-0.9631,-429.44,281.13,-1392.52
12160,-3.8749,-0.0319,-0.9658,-601.32,734.25,-205.02
12170,-3.8748,-0.0247,-0.9711,-70.07,390.50,451.23
12180,-3.8748,-0.0166,-0.9795,851.81,-281.31,685.55
12190,-3.8748,-0.0087,-0.9911,1883.06,-1359.44,826.17
12200,-3.8748,-0.0012,-1.0009,-1101.32,1156.19,1123.05
12210,-3.8748,0.0045,-1.0048,-148.19,-93.81,1716.74
12220,-3.8748,0.0074,-1.0028,586.18,-609.38,-1455.14
12230,-3.8748,0.0090,-0.9957,961.18,-359.38,-533.26
12240,-3.8746,0.0114,-0.9865,1164.31,546.88,232.42
12250,-3.8746,0.0148,-0.9801,1461.18,1734.38,904.30
12260,-3.8746,0.0186,-0.9778,1898.68,-1453.12,1373.05
12270,-3.8746,0.0215,-0.9788,-1616.94,-1156.25,1201.17
12280,-3.8746,0.0226,-0.9817,-1241.94,-1281.25,341.80
12290,-3.8748,0.0210,-0.9852,-1101.32,-1656.25,-955.08
12300,-3.8748,0.0176,-0.9869,-1304.44,1890.62,1404.30
12310,-3.8749,0.0138,-0.9856,-1741.94,1671.88,-783.20
12320,-3.8749,0.0084,-0.9851,1773.68,1843.75,638.67
12330,-3.8750,0.0023,-0.9921,1086.18,1906.25,-1611.33
12340,-3.8750,-0.0043,-1.0017,304.93,1015.62,919.92
12350,-3.8750,-0.0121,-1.0031,-538.82,-203.19,76.11
12360,-3.8439,-0.0204,-0.9950,-1538.82,-375.06,-252.01
12370,-3.8750,-0.0298,-0.9823,1398.68,656.19,76.17
12380,-3.8750,-0.0389,-0.9689,195.56,-1718.81,716.80
12390,-3.8750,-0.0458,-0.9596,-976.32,-0.12,1076.17
12400,-3.8750,-0.0482,-0.9645,-1851.32,1187.38,1060.61
12410,-3.8750,-0.0400,-0.9825,1836.18,562.38,1232.48
12420,-3.8750,-0.0201,-0.9927,-1116.94,-1750.12,1966.80
12430,-3.8750,0.0029,-0.9857,1429.93,953.06,-1017.58
12440,-3.8749,0.0176,-0.9745,383.06,1828.12,29.30
12450,-3.8749,0.0181,-0.9690,-1741.94,-734.38,966.80
12460,-3.8749,0.0076,-0.9703,-1679.44,-31.25,1373.05
12470,-3.8749,-0.0088,-0.9742,976.81,-203.12,1138.67
12480,-3.8749,-0.0239,-0.9796,-1116.94,-687.56,326.17
12490,-3.8750,-0.0309,-0.9846,945.56,-1375.06,-845.70
12500,-3.8750,-0.0321,-0.9854,54.93,1984.31,-1986.33
12510,-3.8750,-0.0350,-0.9805,-101.32,1890.50,1482.42
12520,-3.8750,-0.0425,-0.9711,-476.32,-1484.50,1935.55
12530,-3.8750,-0.0533,-0.9624,-1429.44,-281.37,-1126.95
12540,-3.8750,-0.0679,-0.9592,1179.93,828.00,-1.89
12550,-3.8749,-0.0836,-0.9581,-679.44,1234.19,1185.61
12560,-3.8749,-0.0950,-0.9595,1304.93,1374.82,1904.36
12570,-3.8749,-0.1019,-0.9697,-148.19,1202.88,-1892.52
12580,-3.8749,-0.1025,-0.9857,-1038.82,-109.62,-1830.08
12590,-3.8749,-0.0923,-0.9938,-1116.94,1843.51,-1658.20
12600,-3.8749,-0.0752,-0.9908,195.56,812.32,-1064.45
12610,-3.8749,-0.0603,-0.9894,-1616.94,1187.32,-48.83
12620,-3.8748,-0.0475,-0.9962,289.31,1374.88,1513.67
12630,-3.8748,-0.0353,-1.0028,1929.93,499.88,-314.45
12640,-3.8746,-0.0271,-1.0004,-507.57,-343.87,1904.24
12650,-3.8746,-0.0220,-0.9919,539.31,-31.31,-220.76
12660,-3.8745,-0.0195,-0.9844,1195.56,1046.81,1404.30
12670,-3.8745,-0.0198,-0.9811,1508.06,-1984.44,-1220.70
12680,-3.8745,-0.0203,-0.9789,1476.81,-1562.56,-205.08
12690,-3.8744,-0.0172,-0.9753,1414.31,-1281.31,326.17
12700,-3.8744,-0.0101,-0.9724,1804.93,-828.19,263.67
12710,-3.8745,-0.0022,-0.9708,-1288.82,-453.19,-283.20
12720,-3.8745,0.0022,-0.9711,-273.19,-250.06,-1330.08
12730,-3.8745,0.0006,-0.9735,289.31,-296.88,1123.05
12740,-3.8746,-0.0072,-0.9772,86.18,-609.38,-736.33
12750,-3.8746,-0.0175,-0.9788,-913.82,-1062.56,1357.42
12760,-3.8748,-0.0258,-0.9768,1773.68,-1265.69,-548.83
12770,-3.8748,-0.0308,-0.9717,711.18,-1015.69,1685.55
12780,-3.8748,-0.0339,-0.9655,70.56,-359.44,248.05
12790,-3.8749,-0.0382,-0.9634,-335.69,437.38,-1080.02
12800,-3.8749,-0.0437,-0.9697,-882.57,703.00,1810.61
12810,-3.8749,-0.0481,-0.9783,-1585.69,-109.50,998.05
12820,-3.8749,-0.0522,-0.9829,1851.81,-1203.25,294.92
12830,-3.8750,-0.0544,-0.9868,1320.56,-1797.00,-267.58
12840,-3.8750,-0.0499,-0.9911,1039.31,1703.00,-392.58
12850,-3.8749,-0.0389,-0.9958,1617.43,1156.13,123.05
12860,-3.8749,-0.0255,-1.0022,-976.32,546.75,1357.42
12870,-3.8749,-0.0114,-1.0060,742.43,-265.69,-970.76
12880,-3.8748,0.0034,-1.0031,-1445.07,-750.06,732.36
12890,-3.8748,0.0155,-0.9955,445.56,-390.62,-1673.89
12900,-3.8748,0.0232,-0.9873,1992.43,578.12,-345.70
12910,-3.8746,0.0278,-0.9799,-1023.19,1625.00,826.17
12920,-3.8746,0.0286,-0.9756,-429.44,-1421.88,1951.17
12930,-3.8746,0.0265,-0.9762,-335.69,-875.00,-1173.83
12940,-3.8746,0.0253,-0.9792,-601.32,-953.12,-658.20
12950,-3.8746,0.0229,-0.9801,-757.57,-1343.75,-392.58
12960,-3.8746,0.0177,-0.9790,-1054.44,-1453.12,-439.45
12970,-3.8746,0.0123,-0.9781,-1726.32,-1312.50,-673.83
12980,-3.8746,0.0088,-0.9775,1586.18,-1203.12,-861.33
12990,-3.8746,0.0093,-0.9775,1133.06,-1125.00,-1048.83
13000,-3.8746,0.0164,-0.9805,1195.56,-1125.00,-1251.95
13010,-3.8746,0.0283,-0.9868,-1898.19,-1500.00,-1517.58
13020,-3.8746,0.0400,-0.9980,-366.94,1687.50,-1908.20
13030,-3.8746,0.0500,-1.0123,1133.06,250.06,1982.42
13040,-3.8746,0.0599,-1.0233,-1585.69,-1578.06,-1533.26
13050,-3.8746,0.0670,-1.0256,-320.07,1015.69,-908.26
13060,-3.8746,0.0674,-1.0165,586.18,718.87,-392.64
13070,-3.8745,0.0591,-0.9998,633.06,1890.75,107.36
13080,-3.8745,0.0417,-0.9838,-429.44,31.31,701.17
13090,-3.8745,0.0179,-0.9724,1351.81,-1921.81,1623.05
13100,-3.8745,-0.0066,-0.9672,-1695.07,-468.75,-1392.58
13110,-3.8745,-0.0266,-0.9680,-835.69,218.69,-439.39
13120,-3.8744,-0.0377,-0.9695,601.81,109.31,466.86
13130,-3.8744,-0.0388,-0.9684,-820.07,-78.25,1091.80
13140,-3.8744,-0.0353,-0.9657,-960.69,62.38,1357.48
13150,-3.8744,-0.0319,-0.9639,-507.57,406.13,1388.73
13160,-3.8744,-0.0325,-0.9662,-70.07,640.50,1388.73
13170,-3.8744,-0.0382,-0.9700,-148.19,343.63,1482.48
13180,-3.8744,-0.0430,-0.9709,-882.57,-140.75,1326.17
13190,-3.8744,-0.0431,-0.9717,-1491.94,-265.75,716.80
13200,-3.8744,-0.0408,-0.9750,-1507.57,-359.50,60.55
13210,-3.8745,-0.0361,-0.9773,-1210.69,-781.37,-345.70
13220,-3.8745,-0.0294,-0.9760,-616.94,-1078.25,-611.33
13230,-3.8745,-0.0222,-0.9728,242.43,-906.31,-955.08
13240,-3.8745,-0.0171,-0.9694,1164.31,-500.06,-1408.20
13250,-3.8745,-0.0165,-0.9672,1820.56,-62.56,1763.67
13260,-3.8745,-0.0211,-0.9697,1898.68,218.69,669.98
13270,-3.8746,-0.0277,-0.9799,1304.93,-109.44,-314.45
13280,-3.8746,-0.0305,-0.9910,461.18,-1406.31,-1001.95
13290,-3.8746,-0.0286,-0.9928,101.81,1171.81,-1283.20
13300,-3.8746,-0.0247,-0.9862,351.81,937.44,-1251.95
13310,-3.8746,-0.0219,-0.9801,851.81,1781.19,-1267.58
13320,-3.8746,-0.0233,-0.9789,1211.18,-1437.56,-1345.70
13330,-3.8746,-0.0278,-0.9784,1023.68,-1281.31,-1361.33
13340,-3.8746,-0.0336,-0.9751,445.56,-1218.81,-1251.95
13350,-3.8746,-0.0400,-0.9707,-288.82,-797.00,-1173.83
13360,-3.8746,-0.0431,-0.9690,-1116.94,-234.50,-1080.08
13370,-3.8746,-0.0413,-0.9705,-1507.57,-15.75,-986.33
13380,-3.8746,-0.0355,-0.9712,-1273.19,-203.25,-986.33
13390,-3.8746,-0.0281,-0.9707,-538.82,-297.00,-1220.70
13400,-3.8746,-0.0226,-0.9735,414.31,-234.44,-1876.95
13410,-3.8746,-0.0192,-0.9779,1117.43,-593.81,1294.92
13420,-3.8746,-0.0168,-0.9803,1554.93,-1156.31,638.67
13430,-3.8746,-0.0153,-0.9832,1851.81,-1468.81,201.17
13440,-3.8746,-0.0144,-0.9866,-1945.07,-1828.19,91.80
13450,-3.8746,-0.0143,-0.9868,-1835.69,1734.31,341.80
13460,-3.8746,-0.0138,-0.9832,-1820.07,1703.06,919.92
13470,-3.8746,-0.0139,-0.9814,-1757.57,-1828.19,1623.05
13480,-3.8746,-0.0150,-0.9827,-1773.19,-1609.44,-1642.58
13490,-3.8746,-0.0161,-0.9834,-1913.82,-1765.69,-892.58
13500,-3.8746,-0.0176,-0.9836,1945.56,-1859.44,-95.70
13510,-3.8745,-0.0194,-0.9825,1758.06,-1890.69,748.05
13520,-3.8745,-0.0189,-0.9821,1523.68,-1750.06,1748.05
13530,-3.8745,-0.0127,-0.9856,1586.18,-1687.56,-1064.45
13540,-3.8744,-0.0024,-0.9865,-1616.94,1859.31,60.55
13550,-3.8744,0.0066,-0.9821,-304.44,1749.94,591.80
13560,-3.8744,0.0103,-0.9808,851.81,-1703.12,388.67
13570,-3.8745,0.0073,-0.9838,1320.56,-1546.88,-408.20
13580,-3.8745,0.0020,-0.9851,945.56,-1921.88,-1720.70
13590,-3.8745,-0.0057,-0.9851,258.06,1906.25,591.80
13600,-3.8746,-0.0166,-0.9858,-726.32,1921.81,-1205.08
13610,-3.8746,-0.0298,-0.9862,1883.06,1828.06,1013.67
13620,-3.8748,-0.0444,-0.9867,195.56,1781.19,-517.58
13630,-3.8748,-0.0569,-0.9852,-1679.44,1718.63,-1720.70
13640,-3.8748,-0.0651,-0.9790,726.81,1906.13,1123.05
13650,-3.8749,-0.0686,-0.9720,-320.07,-1297.06,-111.33
13660,-3.8749,-0.0658,-0.9690,-773.19,-406.43,-1033.20
13670,-3.8749,-0.0566,-0.9686,-413.82,-15.81,-1345.70
13680,-3.8749,-0.0441,-0.9700,758.06,31.13,-1126.89
13690,-3.8749,-0.0331,-0.9733,-1632.57,-140.75,-470.70
13700,-3.8748,-0.0262,-0.9778,-226.32,-562.62,701.17
13710,-3.8748,-0.0215,-0.9819,648.68,-1140.69,-1720.70
13720,-3.8748,-0.0179,-0.9835,1258.06,-1671.94,-80.08
13730,-3.8746,-0.0167,-0.9813,1711.18,-1875.06,1154.30
13740,-3.8746,-0.0187,-0.9767,1867.43,-1593.81,1779.30
13750,-3.8746,-0.0229,-0.9719,1617.43,-1000.06,1966.80
13760,-3.8746,-0.0270,-0.9686,1070.56,-390.69,1498.05
13770,-3.8746,-0.0293,-0.9702,554.93,31.19,341.86
13780,-3.8748,-0.0308,-0.9768,258.06,-171.94,-1314.45
13790,-3.8748,-0.0352,-0.9843,70.56,-1015.69,1029.30
13800,-3.8749,-0.0442,-0.9924,-491.94,-1968.87,-173.83
13810,-3.8749,-0.0536,-0.9966,-1648.19,984.25,-673.83
13820,-3.8749,-0.0558,-0.9918,1148.68,453.00,-408.20
13830,-3.8748,-0.0503,-0.9834,867.43,1062.38,466.80
13840,-3.8748,-0.0405,-0.9761,1570.56,-1859.50,1732.42
13850,-3.8748,-0.0310,-0.9719,-1179.44,-922.00,-908.20
13860,-3.8746,-0.0269,-0.9714,39.31,-390.69,154.30
13870,-3.8746,-0.0292,-0.9724,570.56,-328.19,654.30
13880,-3.8746,-0.0378,-0.9762,273.68,-453.19,607.42
13890,-3.8746,-0.0491,-0.9860,-835.69,-937.62,404.30
13900,-3.8746,-0.0553,-0.9939,1726.81,1812.38,435.55
13910,-3.8746,-0.0519,-0.9912,929.93,796.75,763.67
13920,-3.8746,-0.0420,-0.9835,1367.43,1140.50,919.92
13930,-3.8746,-0.0322,-0.9778,-1366.94,-1875.12,935.55
13940,-3.8746,-0.0264,-0.9731,-116.94,-1140.75,888.67
13950,-3.8746,-0.0267,-0.9724,633.06,-546.94,466.80
13960,-3.8748,-0.0317,-0.9812,586.18,-453.19,-80.08
13970,-3.8746,-0.0371,-0.9941,-54.44,-1578.25,29.30
13980,-3.8746,-0.0406,-0.9960,-741.94,765.50,701.17
13990,-3.8746,-0.0404,-0.9835,-1195.07,531.13,1560.55
14000,-3.8746,-0.0377,-0.9692,-1163.82,-1875.12,-1642.58
14010,-3.8746,-0.0352,-0.9614,-820.07,-47.00,-1111.33
14020,-3.8746,-0.0343,-0.9601,-491.94,953.00,-1080.02
14030,-3.8746,-0.0361,-0.9647,-382.57,1124.88,-1955.02
14040,-3.8746,-0.0397,-0.9755,-616.94,531.13,263.73
14050,-3.8748,-0.0432,-0.9895,-1070.07,-843.87,1779.30
14060,-3.8749,-0.0460,-0.9993,-1523.19,1359.25,-1095.70
14070,-3.8749,-0.0468,-0.9990,-1882.57,109.25,482.42
14080,-3.8750,-0.0444,-0.9913,-1976.32,140.50,-986.33
14090,-3.8750,-0.0408,-0.9805,-1679.44,1124.88,-1642.58
14100,-3.8750,-0.0408,-0.9697,-1210.69,-1484.50,-1705.08
14110,-3.8750,-0.0485,-0.9689,-1210.69,-109.50,-1314.45
14120,-3.8749,-0.0570,-0.9813,1804.93,-0.12,91.80
14130,-3.8749,-0.0560,-0.9882,711.18,-1593.87,-1298.83
14140,-3.8748,-0.0431,-0.9768,836.18,1531.13,1701.17
14150,-3.8746,-0.0240,-0.9619,-1507.57,-1015.75,779.30
14160,-3.8746,-0.0074,-0.9585,929.93,890.56,-48.77
14170,-3.8745,0.0046,-0.9640,-945.07,1328.06,-1205.02
14180,-3.8744,0.0123,-0.9691,601.81,609.38,779.36
14190,-3.8744,0.0135,-0.9733,1586.18,-46.88,1826.17
14200,-3.8744,0.0066,-0.9812,1742.43,-578.12,-1939.45
14210,-3.8744,-0.0048,-0.9918,851.81,-1593.75,1779.30
14220,-3.8744,-0.0133,-0.9991,-601.32,1062.44,1373.05
14230,-3.8744,-0.0153,-0.9979,-1695.07,124.94,1185.55
14240,-3.8744,-0.0117,-0.9904,-1945.07,281.19,1263.67
14250,-3.8744,-0.0044,-0.9823,-1491.94,1249.94,1591.80
14260,-3.8744,0.0051,-0.9760,-554.44,-1718.81,1748.05
14270,-3.8744,0.0084,-0.9728,664.31,-921.88,1154.30
14280,-3.8745,-0.0002,-0.9763,1086.18,-515.62,-220.70
14290,-3.8745,-0.0182,-0.9884,-23.19,-953.19,1763.67
14300,-3.8746,-0.0389,-1.0033,1679.93,1499.94,-126.95
14310,-3.8746,-0.0537,-1.0114,-976.32,-406.37,-1017.64
14320,-3.8746,-0.0555,-1.0049,1133.06,-1437.62,-845.76
14330,-3.8745,-0.0463,-0.9869,898.68,-609.50,279.24
14340,-3.8745,-0.0365,-0.9694,-1913.82,1687.38,-1955.08
14350,-3.8745,-0.0350,-0.9614,-663.82,-62.62,-173.83
14360,-3.8744,-0.0431,-0.9595,-476.32,953.00,951.23
14370,-3.8744,-0.0555,-0.9563,-1507.57,1203.00,1091.86
14380,-3.8744,-0.0668,-0.9553,898.68,1609.25,185.61
14390,-3.8745,-0.0723,-0.9625,-538.82,1734.19,-1501.89
14400,-3.8745,-0.0693,-0.9736,-1241.94,812.32,841.86
14410,-3.8746,-0.0581,-0.9790,-866.94,-609.56,-517.58
14420,-3.8746,-0.0449,-0.9778,570.56,-1297.00,-1845.70
14430,-3.8746,-0.0376,-0.9753,-1741.94,-1140.75,966.80
14440,-3.8746,-0.0398,-0.9756,-804.44,-828.25,216.80
14450,-3.8748,-0.0503,-0.9803,-1085.69,-859.50,-173.83
14460,-3.8748,-0.0629,-0.9850,1570.56,-1468.87,-189.45
14470,-3.8746,-0.0684,-0.9843,-38.82,1937.32,138.67
14480,-3.8746,-0.0652,-0.9812,-741.94,-1968.93,529.30
14490,-3.8746,-0.0579,-0.9786,-335.69,-1578.31,873.05
14500,-3.8746,-0.0494,-0.9742,601.81,-1250.12,1326.17
14510,-3.8746,-0.0433,-0.9690,1679.93,-687.62,1654.30
14520,-3.8746,-0.0439,-0.9702,-1538.82,-15.75,1513.67
14530,-3.8746,-0.0514,-0.9817,-1616.94,-172.00,1138.67
14540,-3.8746,-0.0580,-0.9944,1429.93,-1640.75,1107.42
14550,-3.8746,-0.0557,-0.9978,586.18,734.25,1451.17
14560,-3.8746,-0.0438,-0.9940,883.06,296.75,1951.17
14570,-3.8746,-0.0287,-0.9919,-1601.32,781.13,-1314.45
14580,-3.8746,-0.0162,-0.9922,336.18,1046.81,-423.83
14590,-3.8745,-0.0094,-0.9893,1929.93,1015.56,263.67
14600,-3.8745,-0.0085,-0.9846,-1195.07,1390.56,560.55
14610,-3.8745,-0.0100,-0.9818,-1085.69,1984.31,591.80
14620,-3.8745,-0.0094,-0.9835,-1273.19,-1656.31,435.55
14630,-3.8745,-0.0066,-0.9897,-1195.07,-1875.06,76.17
14640,-3.8746,-0.0021,-0.9948,-835.69,1328.06,-142.58
14650,-3.8745,0.0039,-0.9929,-257.57,687.44,29.30
14660,-3.8745,0.0077,-0.9852,508.06,906.25,294.92
14670,-3.8745,0.0040,-0.9775,992.43,1890.62,498.05
14680,-3.8745,-0.0065,-0.9736,523.68,-1125.00,685.55
14690,-3.8745,-0.0200,-0.9769,-820.07,-609.44,685.55
14700,-3.8745,-0.0308,-0.9824,1445.56,-1031.31,498.05
14710,-3.8745,-0.0356,-0.9816,70.56,-1734.44,341.80
14720,-3.8745,-0.0364,-0.9753,-554.44,-1625.12,154.30
14730,-3.8746,-0.0371,-0.9695,-648.19,-828.25,-33.20
14740,-3.8745,-0.0406,-0.9667,-741.94,-78.25,13.67
14750,-3.8745,-0.0471,-0.9640,-1195.07,281.13,357.48
14760,-3.8745,-0.0532,-0.9595,1976.81,624.88,732.48
14770,-3.8745,-0.0569,-0.9565,1195.56,1203.00,841.86
14780,-3.8745,-0.0598,-0.9586,726.81,1578.00,466.86
14790,-3.8746,-0.0610,-0.9642,351.81,1312.38,-283.14
14800,-3.8746,-0.0598,-0.9696,195.56,593.63,-1439.39
14810,-3.8746,-0.0571,-0.9751,351.81,-93.87,1091.80
14820,-3.8748,-0.0546,-0.9825,695.56,-797.00,-298.83
14830,-3.8748,-0.0533,-0.9902,1023.68,-1750.12,-1330.08
14840,-3.8748,-0.0527,-0.9933,1179.93,1265.50,-1736.33
14850,-3.8748,-0.0519,-0.9908,1258.06,874.88,-1642.58
14860,-3.8748,-0.0507,-0.9844,1367.43,1187.38,-1267.58
14870,-3.8748,-0.0509,-0.9751,1523.68,-1984.50,-611.33
14880,-3.8746,-0.0540,-0.9711,1492.43,-797.00,185.55
14890,-3.8746,-0.0555,-0.9756,1101.81,-281.37,919.92
14900,-3.8746,-0.0526,-0.9800,898.68,-859.50,1513.67
14910,-3.8746,-0.0479,-0.9810,1273.68,-1422.00,1826.17
14920,-3.8746,-0.0420,-0.9813,1883.06,-1547.00,1763.67
14930,-3.8746,-0.0328,-0.9833,-1366.94,-1593.87,1701.17
14940,-3.8746,-0.0209,-0.9810,-195.07,-1843.87,1826.17
14950,-3.8746,-0.0112,-0.9741,1336.18,-1546.94,1951.17
14960,-3.8746,-0.0072,-0.9686,-1429.44,-671.94,-1892.58
14970,-3.8746,-0.0104,-0.9661,-913.82,31.19,-1767.52
14980,-3.8746,-0.0210,-0.9655,-1320.07,359.31,-1720.64
14990,-3.8746,-0.0352,-0.9668,1320.56,437.44,-1798.77
15000,-3.8746,-0.0494,-0.9750,-491.94,265.50,1951.23
15010,-3.8746,-0.0598,-0.9877,1679.93,-781.37,1482.42
15020,-3.8746,-0.0630,-0.9941,351.81,1593.63,576.17
15030,-3.8748,-0.0619,-0.9917,-54.44,765.44,-580.08
15040,-3.8748,-0.0607,-0.9899,86.18,1078.00,-1689.45
15050,-3.8748,-0.0566,-0.9943,242.43,1312.38,1576.17
15060,-3.8748,-0.0458,-0.9966,758.06,749.88,1419.92
15070,-3.8748,-0.0298,-0.9884,-1851.32,453.00,1591.80
15080,-3.8748,-0.0145,-0.9723,195.56,1499.94,1857.42
15090,-3.8748,-0.0074,-0.9568,-1851.32,-437.56,-1986.33
15100,-3.8748,-0.0110,-0.9536,-945.07,1546.81,1826.23
15110,-3.8748,-0.0190,-0.9703,-1398.19,1953.06,1279.36
15120,-3.8748,-0.0228,-0.9957,1570.56,-187.56,623.05
15130,-3.8748,-0.0148,-1.0107,1086.18,562.44,404.30
15140,-3.8748,0.0060,-1.0106,-1882.57,-1359.44,1169.86
15150,-3.8748,0.0302,-1.0032,773.68,-1359.38,-1173.89
15160,-3.8746,0.0469,-0.9943,-132.57,-406.25,1029.24
15170,-3.8746,0.0511,-0.9846,-1991.94,734.44,-642.58
15180,-3.8745,0.0414,-0.9756,-1445.07,1968.81,1076.17
15190,-3.8745,0.0166,-0.9697,1304.93,-874.94,1669.92
15200,-3.8745,-0.0190,-0.9729,-1866.94,-125.00,1232.42
15210,-3.8745,-0.0542,-0.9872,1570.56,-515.69,248.05
15220,-3.8746,-0.0769,-0.9994,1070.56,1656.13,-908.20
15230,-3.8746,-0.0829,-0.9969,-1835.69,93.57,1982.42
15240,-3.8746,-0.0775,-0.9824,1398.68,406.07,1169.92
15250,-3.8746,-0.0720,-0.9685,-1913.82,-1734.56,857.42
15260,-3.8746,-0.0739,-0.9658,-1210.69,46.69,826.23
15270,-3.8746,-0.0822,-0.9724,-1445.07,390.44,935.61
15280,-3.8746,-0.0930,-0.9784,1492.43,-453.31,873.05
15290,-3.8746,-0.1016,-0.9805,101.81,-1218.93,669.92
15300,-3.8746,-0.0984,-0.9767,-991.94,-1484.62,826.17
15310,-3.8746,-0.0857,-0.9691,-585.69,-1000.24,888.67
15320,-3.8746,-0.0795,-0.9708,1039.31,-31.43,607.42
15330,-3.8746,-0.0782,-0.9800,1836.18,-250.18,341.80
15340,-3.8746,-0.0720,-0.9838,1992.43,-1422.06,232.42
15350,-3.8746,-0.0636,-0.9799,-1210.69,-1906.43,169.92
15360,-3.8746,-0.0579,-0.9724,-132.57,-1406.43,13.67
15370,-3.8748,-0.0583,-0.9695,601.81,-453.25,-173.83
15380,-3.8748,-0.0659,-0.9691,539.31,-78.25,-126.95
15390,-3.8748,-0.0752,-0.9652,-429.44,-31.43,-17.58
15400,-3.8748,-0.0807,-0.9603,-1616.94,468.57,-376.89
15410,-3.8748,-0.0796,-0.9587,1679.93,1093.57,-923.77
15420,-3.8748,-0.0704,-0.9600,1820.56,1296.69,-1251.89
15430,-3.8748,-0.0544,-0.9614,-1007.57,1140.44,-1314.39
15440,-3.8748,-0.0350,-0.9595,1039.31,953.00,-1064.39
15450,-3.8748,-0.0142,-0.9567,-476.32,1203.00,-658.14
15460,-3.8748,0.0048,-0.9603,-1804.44,1562.44,-345.64
15470,-3.8748,0.0200,-0.9730,617.43,1078.12,-642.52
15480,-3.8748,0.0314,-0.9941,-1429.44,-546.88,-1861.33
15490,-3.8748,0.0382,-1.0133,23.68,750.06,482.42
15500,-3.8749,0.0427,-1.0201,898.68,-1703.06,-767.64
15510,-3.8749,0.0475,-1.0150,1476.81,1421.94,-1205.14
15520,-3.8749,0.0488,-1.0033,-1913.82,-1921.81,-892.64
15530,-3.8749,0.0381,-0.9950,-1741.94,-421.81,-17.64
15540,-3.8748,0.0112,-0.9958,883.06,640.69,1341.80
15550,-3.8748,-0.0262,-0.9967,1445.56,531.25,-705.08
15560,-3.8746,-0.0619,-0.9856,648.68,437.44,1482.42
15570,-3.8746,-0.0857,-0.9668,86.18,1859.25,-330.08
15580,-3.8745,-0.0977,-0.9553,1039.31,265.44,1826.23
15590,-3.8745,-0.0995,-0.9557,-491.94,1734.13,-95.64
15600,-3.8744,-0.0924,-0.9545,-726.32,1687.26,1623.11
15610,-3.8744,-0.0831,-0.9496,179.93,1843.57,-1767.52
15620,-3.8744,-0.0815,-0.9504,1367.43,-1531.43,1451.23
15630,-3.8745,-0.0931,-0.9572,1570.56,-1640.81,-455.02
15640,-3.8745,-0.1166,-0.9651,86.18,1499.82,904.36
15650,-3.8746,-0.1442,-0.9684,1086.18,484.13,-1892.52
15660,-3.8748,-0.1661,-0.9670,1554.93,62.19,-236.27
15670,-3.8748,-0.1781,-0.9695,-1257.57,234.01,-1501.89
15680,-3.8748,-0.1820,-0.9800,1211.18,-78.49,-1205.08
15690,-3.8746,-0.1785,-0.9905,711.18,-1422.24,466.80
15700,-3.8746,-0.1693,-0.9863,1164.31,1234.01,-986.33
15710,-3.8745,-0.1609,-0.9675,-1663.82,1765.26,1779.30
15720,-3.8744,-0.1510,-0.9513,-585.69,171.51,123.11
15730,-3.8744,-0.1337,-0.9489,679.93,-1750.31,1529.36
15740,-3.8744,-0.1146,-0.9573,-1101.32,-1437.81,1826.23
15750,-3.8744,-0.1014,-0.9685,1336.18,1484.13,1076.23
15760,-3.8745,-0.0897,-0.9821,-976.32,46.63,-408.14
15770,-3.8745,-0.0737,-0.9988,523.68,-1687.68,-1970.70
15780,-3.8745,-0.0548,-1.0106,-1429.44,171.69,919.92
15790,-3.8745,-0.0366,-1.0116,992.43,-1343.87,482.36
15800,-3.8745,-0.0226,-1.0002,-679.44,-1468.87,716.74
15810,-3.8745,-0.0187,-0.9843,1117.43,-15.69,1404.24
15820,-3.8745,-0.0253,-0.9757,1617.43,-1968.81,-1736.33
15830,-3.8745,-0.0334,-0.9772,773.68,-875.06,-611.33
15840,-3.8744,-0.0361,-0.9797,-273.19,-1062.62,544.92
15850,-3.8744,-0.0315,-0.9775,-616.94,-1390.75,1169.92
15860,-3.8744,-0.0217,-0.9727,-23.19,-1109.50,1248.05
15870,-3.8744,-0.0126,-0.9690,1226.81,-484.44,857.42
15880,-3.8744,-0.0094,-0.9691,-1601.32,-15.69,169.92
15890,-3.8745,-0.0134,-0.9733,-1195.07,-31.31,-830.08
15900,-3.8745,-0.0215,-0.9808,-1710.69,-562.56,1654.30
15910,-3.8746,-0.0291,-0.9877,1258.06,-1531.31,-80.08
15920,-3.8746,-0.0336,-0.9904,289.31,1593.69,-1580.08
15930,-3.8746,-0.0338,-0.9904,-288.82,1249.88,1482.42
15940,-3.8746,-0.0315,-0.9884,-320.07,1249.88,1138.67
15950,-3.8746,-0.0298,-0.9838,-23.19,1499.88,1138.67
15960,-3.8746,-0.0281,-0.9779,195.56,-1906.31,1326.17
15970,-3.8746,-0.0258,-0.9747,414.31,-1156.31,1857.42
15980,-3.8746,-0.0217,-0.9740,711.18,-750.06,-1408.20
15990,-3.8746,-0.0162,-0.9733,1226.81,-656.31,-798.83
16000,-3.8746,-0.0117,-0.9740,1929.93,-562.56,-486.33
16010,-3.8746,-0.0083,-0.9762,-1491.94,-656.31,-345.70
16020,-3.8746,-0.0063,-0.9784,-1054.44,-937.56,-439.45
16030,-3.8746,-0.0063,-0.9833,-804.44,-1218.81,-939.45
16040,-3.8746,-0.0071,-0.9850,-804.44,-1843.81,-1580.08
16050,-3.8746,-0.0082,-0.9821,-898.19,1937.44,1888.67
16060,-3.8746,-0.0100,-0.9805,-1038.82,-1687.56,1435.55
16070,-3.8746,-0.0122,-0.9805,-1273.19,-1484.44,1248.05
16080,-3.8746,-0.0151,-0.9847,-1554.44,-1484.44,1263.67
16090,-3.8746,-0.0184,-0.9943,-1929.44,1968.69,1498.05
16100,-3.8746,-0.0198,-0.9985,1648.68,749.94,1998.05
16110,-3.8746,-0.0186,-0.9941,1476.81,203.06,-1408.20
16120,-3.8746,-0.0139,-0.9883,1633.06,765.56,-876.95
16130,-3.8746,-0.0061,-0.9827,-1773.19,1515.56,-423.83
16140,-3.8746,0.0007,-0.9777,-773.19,-1765.69,-220.70
16150,-3.8746,0.0046,-0.9814,101.81,-1140.62,-80.08
16160,-3.8745,0.0096,-0.9915,601.81,-1625.00,701.17
16170,-3.8745,0.0170,-0.9918,1242.43,1093.75,-1970.70
16180,-3.8745,0.0222,-0.9802,-1820.07,1046.88,-611.33
16190,-3.8744,0.0222,-0.9686,-1148.19,-1468.75,419.92
16200,-3.8744,0.0153,-0.9625,-1148.19,15.62,857.48
16210,-3.8744,0.0021,-0.9613,1961.18,796.88,466.86
16220,-3.8745,-0.0128,-0.9631,273.68,953.12,-736.27
16230,-3.8745,-0.0237,-0.9677,-1632.57,734.31,1607.48
16240,-3.8746,-0.0282,-0.9747,976.81,156.19,-126.89
16250,-3.8746,-0.0292,-0.9816,398.68,-750.06,-1767.58
16260,-3.8746,-0.0305,-0.9865,273.68,-1625.06,1076.17
16270,-3.8746,-0.0338,-0.9874,101.81,1749.94,779.30
16280,-3.8746,-0.0391,-0.9850,-320.07,1624.88,1373.05
16290,-3.8746,-0.0439,-0.9832,-991.94,1937.38,-1220.70
16300,-3.8745,-0.0452,-0.9783,-1616.94,-1828.25,513.67
16310,-3.8745,-0.0419,-0.9688,-1773.19,-1203.25,1873.05
16320,-3.8745,-0.0392,-0.9614,-1351.32,15.50,-1361.27
16330,-3.8745,-0.0399,-0.9618,-1007.57,953.00,-1064.39
16340,-3.8745,-0.0424,-0.9701,-1101.32,906.13,-1345.64
16350,-3.8745,-0.0452,-0.9808,-1413.82,-156.37,1857.42
16360,-3.8745,-0.0458,-0.9882,-1773.19,-1531.37,935.55
16370,-3.8745,-0.0415,-0.9872,-1851.32,1531.13,357.42
16380,-3.8745,-0.0352,-0.9821,-1304.44,1656.13,248.05
16390,-3.8745,-0.0298,-0.9797,-491.94,-1687.62,248.05
16400,-3.8745,-0.0266,-0.9814,195.56,-1390.69,357.42
16410,-3.8745,-0.0269,-0.9845,601.81,-1609.44,404.30
16420,-3.8745,-0.0295,-0.9825,570.56,1999.94,263.67
16430,-3.8745,-0.0331,-0.9763,226.81,-1750.06,29.30
16440,-3.8746,-0.0374,-0.9718,-226.32,-953.25,-345.70
16450,-3.8746,-0.0427,-0.9734,-773.19,-375.12,-1033.20
16460,-3.8746,-0.0450,-0.9811,-1460.69,-578.25,-1564.45
16470,-3.8746,-0.0420,-0.9865,-1757.57,-1562.62,-1705.08
16480,-3.8746,-0.0364,-0.9845,-1366.94,1749.88,-1751.95
16490,-3.8746,-0.0328,-0.9796,-648.19,1999.88,-1642.58
16500,-3.8746,-0.0330,-0.9746,-195.07,-1375.12,-1330.08
16510,-3.8746,-0.0360,-0.9711,-210.69,-734.50,-1095.70
16520,-3.8746,-0.0394,-0.9711,-601.32,-281.37,-1017.58
16530,-3.8746,-0.0416,-0.9725,-1038.82,-281.37,-1048.83
16540,-3.8746,-0.0433,-0.9762,-1320.07,-468.87,-1111.33
16550,-3.8746,-0.0448,-0.9828,-1538.82,-937.62,-1220.70
16560,-3.8746,-0.0439,-0.9855,-1726.32,-1781.37,-1455.08
16570,-3.8746,-0.0416,-0.9805,-1616.94,1874.88,-1923.83
16580,-3.8746,-0.0409,-0.9717,-1320.07,-1484.50,1310.55
16590,-3.8746,-0.0413,-0.9677,-1226.32,-359.50,388.67
16600,-3.8748,-0.0404,-0.9727,-1273.19,156.13,-283.14
16610,-3.8748,-0.0366,-0.9784,-1163.82,-484.50,-548.83
16620,-3.8748,-0.0315,-0.9803,-679.44,-1218.87,-330.08
16630,-3.8746,-0.0288,-0.9783,-23.19,-1468.87,591.80
16640,-3.8746,-0.0299,-0.9723,320.56,-1203.19,1935.55
16650,-3.8746,-0.0332,-0.9685,179.93,-437.56,-783.20
16660,-3.8745,-0.0367,-0.9708,-241.94,46.75,169.98
16670,-3.8745,-0.0375,-0.9772,-695.07,-250.12,591.80
16680,-3.8745,-0.0331,-0.9825,-788.82,-1062.62,498.05
16690,-3.8745,-0.0253,-0.9852,-226.32,-1750.12,44.92
16700,-3.8746,-0.0184,-0.9857,773.68,1906.19,-689.45
16710,-3.8746,-0.0164,-0.9833,1648.68,1843.69,-1486.33
16720,-3.8746,-0.0205,-0.9783,1914.31,-1843.81,1794.92
16730,-3.8746,-0.0288,-0.9752,1383.06,-1203.19,1138.67
16740,-3.8746,-0.0385,-0.9813,320.56,-812.56,732.42
16750,-3.8746,-0.0452,-0.9883,-913.82,-1593.87,951.17
16760,-3.8746,-0.0448,-0.9857,-1773.19,1515.50,1623.05
16770,-3.8746,-0.0404,-0.9789,-1726.32,1843.63,-1611.33
16780,-3.8746,-0.0369,-0.9762,-1163.82,-1281.37,-705.08
16790,-3.8745,-0.0344,-0.9758,-710.69,-937.62,310.55
16800,-3.8745,-0.0326,-0.9724,-398.19,-890.75,935.55
16810,-3.8745,-0.0310,-0.9692,-163.82,-453.25,982.42
16820,-3.8745,-0.0325,-0.9720,39.31,-46.94,826.17
16830,-3.8745,-0.0370,-0.9773,-148.19,-406.37,482.42
16840,-3.8746,-0.0419,-0.9811,-726.32,-1078.25,-126.95
16850,-3.8746,-0.0447,-0.9824,-1351.32,-1562.62,-658.20
16860,-3.8746,-0.0424,-0.9823,-1710.69,-1734.50,-939.45
16870,-3.8746,-0.0375,-0.9835,-1413.82,-1718.87,-908.20
16880,-3.8746,-0.0337,-0.9821,-788.82,-1875.12,-611.33
16890,-3.8746,-0.0337,-0.9772,-304.44,-1687.62,-298.83
16900,-3.8746,-0.0398,-0.9728,-304.44,-1062.62,-173.83
16910,-3.8746,-0.0508,-0.9700,-1085.69,-500.12,-298.83
16920,-3.8746,-0.0629,-0.9706,1508.06,-140.75,-642.58
16930,-3.8746,-0.0692,-0.9761,-38.82,-218.93,-970.70
16940,-3.8746,-0.0665,-0.9788,-851.32,-922.06,-1142.58
16950,-3.8746,-0.0590,-0.9750,-507.57,-1265.81,-1345.70
16960,-3.8746,-0.0513,-0.9698,461.18,-781.37,-1751.95
16970,-3.8746,-0.0474,-0.9670,1445.56,-125.12,1701.17
16980,-3.8746,-0.0486,-0.9677,1945.56,234.25,919.98
16990,-3.8748,-0.0518,-0.9696,1789.31,156.13,-1.89
17000,-3.8748,-0.0533,-0.9711,1383.06,-93.87,-736.33
17010,-3.8748,-0.0519,-0.9713,1179.93,-281.37,-1423.83
17020,-3.8748,-0.0474,-0.9734,1367.43,-312.62,1998.05
17030,-3.8748,-0.0396,-0.9827,1945.56,-578.25,1544.92
17040,-3.8748,-0.0309,-0.9923,-1054.44,-1765.75,1201.17
17050,-3.8748,-0.0239,-0.9924,54.93,999.94,1373.05
17060,-3.8748,-0.0175,-0.9862,945.56,984.31,-1830.08
17070,-3.8748,-0.0099,-0.9814,1773.68,1781.19,-626.95
17080,-3.8746,-0.0021,-0.9818,-1257.57,-1609.44,857.42
17090,-3.8746,0.0032,-0.9836,-257.57,-1656.31,-1689.45
17100,-3.8746,0.0021,-0.9794,414.31,-1906.25,-470.70
17110,-3.8745,-0.0034,-0.9714,273.68,-1359.38,513.67
17120,-3.8745,-0.0050,-0.9706,-429.44,-328.19,1435.55
17130,-3.8745,-0.0040,-0.9749,-632.57,-218.81,-1564.45
17140,-3.8745,-0.0044,-0.9811,-507.57,-765.69,-1048.83
17150,-3.8745,0.0005,-0.9886,-554.44,-1562.56,-955.08
17160,-3.8745,0.0087,-0.9911,70.56,1453.12,-767.58
17170,-3.8745,0.0115,-0.9861,1117.43,1140.62,-361.33
17180,-3.8744,0.0071,-0.9780,1476.81,1781.25,201.17
17190,-3.8744,-0.0032,-0.9725,914.31,-1187.50,638.67
17200,-3.8744,-0.0154,-0.9730,-398.19,-468.81,732.42
17210,-3.8744,-0.0248,-0.9772,-1960.69,-531.31,466.80
17220,-3.8745,-0.0298,-0.9801,836.18,-1062.56,-95.70
17230,-3.8745,-0.0322,-0.9828,195.56,-1437.56,-830.08
17240,-3.8745,-0.0334,-0.9869,-116.94,-1781.37,-1376.95
17250,-3.8745,-0.0332,-0.9900,-273.19,1687.38,-1470.70
17260,-3.8745,-0.0312,-0.9896,-241.94,1296.75,-1158.20
17270,-3.8745,-0.0261,-0.9861,8.06,1343.69,-361.33
17280,-3.8744,-0.0149,-0.9812,664.31,1796.81,669.92
17290,-3.8744,-0.0006,-0.9768,-1898.19,-1578.19,1388.67
17300,-3.8744,0.0076,-0.9753,-70.07,-1015.69,1591.80
17310,-3.8744,0.0042,-0.9774,976.81,-843.75,1341.80
17320,-3.8744,-0.0082,-0.9821,539.31,-1109.38,841.80
17330,-3.8744,-0.0233,-0.9885,-1038.82,-1687.56,216.80
17340,-3.8745,-0.0341,-0.9901,1023.68,1484.31,-361.33
17350,-3.8745,-0.0364,-0.9823,-351.32,1281.13,-720.70
17360,-3.8745,-0.0325,-0.9720,-648.19,-1718.87,-1017.58
17370,-3.8745,-0.0262,-0.9685,-148.19,-406.37,-1376.95
17380,-3.8745,-0.0195,-0.9716,648.68,46.81,-1783.14
17390,-3.8745,-0.0137,-0.9771,1508.06,-343.81,1591.80
17400,-3.8745,-0.0118,-0.9836,-1741.94,-1046.94,623.05
17410,-3.8746,-0.0153,-0.9896,-1507.57,-1890.69,-345.70
17420,-3.8746,-0.0203,-0.9907,-1945.07,1343.69,-767.58
17430,-3.8746,-0.0233,-0.9851,1414.31,1203.06,-783.20
17440,-3.8746,-0.0244,-0.9755,1023.68,1921.81,-767.58
17450,-3.8746,-0.0269,-0.9685,883.06,-843.81,-736.33
17460,-3.8746,-0.0312,-0.9688,570.56,46.81,-705.02
17470,-3.8746,-0.0348,-0.9722,8.06,15.56,-720.64
17480,-3.8746,-0.0356,-0.9756,-445.07,-422.00,-970.70
17490,-3.8746,-0.0331,-0.9797,-554.44,-859.50,-1330.08
17500,-3.8746,-0.0275,-0.9843,-226.32,-1390.75,-1595.70
17510,-3.8746,-0.0212,-0.9867,492.43,-1968.81,-1720.70
17520,-3.8746,-0.0140,-0.9822,1289.31,1718.69,-1501.95
17530,-3.8746,-0.0078,-0.9725,-1788.82,-1703.19,-1314.45
17540,-3.8746,-0.0093,-0.9662,-991.94,-468.81,-1626.95
17550,-3.8746,-0.0212,-0.9697,-1179.44,343.69,1638.73
17560,-3.8746,-0.0382,-0.9794,1289.31,-109.44,654.30
17570,-3.8748,-0.0514,-0.9861,-882.57,-1343.87,-361.33
17580,-3.8748,-0.0555,-0.9829,1429.93,1796.75,-1126.95
17590,-3.8748,-0.0513,-0.9762,898.68,-1797.00,-1658.20
17600,-3.8748,-0.0393,-0.9750,1445.56,-937.62,-1861.33
17610,-3.8748,-0.0221,-0.9752,-1023.19,-781.37,-1595.70
17620,-3.8748,-0.0076,-0.9742,1179.93,-812.56,-1220.70
17630,-3.8748,-0.0023,-0.9768,-960.69,-687.56,-939.45
17640,-3.8748,-0.0070,-0.9830,-288.82,-1015.69,-736.33
17650,-3.8748,-0.0167,-0.9886,-882.57,-1812.56,-689.45
17660,-3.8748,-0.0233,-0.9865,1867.43,1468.69,-611.33
17670,-3.8748,-0.0231,-0.9791,1023.68,1749.94,-314.45
17680,-3.8746,-0.0187,-0.9745,1054.93,-1312.56,76.17
17690,-3.8746,-0.0146,-0.9730,1617.43,-718.81,482.42
17700,-3.8746,-0.0151,-0.9773,-1866.94,-531.31,826.17
17710,-3.8746,-0.0211,-0.9858,-1929.44,-1078.19,1154.30
17720,-3.8746,-0.0283,-0.9900,1304.93,1828.06,1607.42
17730,-3.8746,-0.0344,-0.9852,383.06,1296.81,-1876.95
17740,-3.8746,-0.0421,-0.9772,-398.19,1906.13,-1455.08
17750,-3.8746,-0.0509,-0.9739,-1382.57,-1062.62,-1033.20
17760,-3.8746,-0.0591,-0.9747,1492.43,-640.75,-580.08
17770,-3.8746,-0.0636,-0.9758,445.56,-750.12,-158.20
17780,-3.8745,-0.0627,-0.9761,-132.57,-890.81,466.80
17790,-3.8745,-0.0580,-0.9767,-23.19,-922.06,1107.42
17800,-3.8745,-0.0510,-0.9791,586.18,-1000.12,1638.67
17810,-3.8745,-0.0442,-0.9818,1476.81,-1312.62,-1830.08
17820,-3.8745,-0.0389,-0.9851,-1648.19,-1656.37,-1533.20
17830,-3.8745,-0.0336,-0.9873,-976.32,1921.75,-1642.58
17840,-3.8745,-0.0254,-0.9839,-288.82,1640.50,1857.42
17850,-3.8745,-0.0161,-0.9791,758.06,-1921.94,1107.42
17860,-3.8745,-0.0070,-0.9796,1945.56,-1312.56,419.92
17870,-3.8746,0.0010,-0.9816,-882.57,-1375.06,-48.83
17880,-3.8746,0.0032,-0.9789,133.06,-1640.62,-439.45
17890,-3.8746,-0.0042,-0.9752,414.31,-1296.88,-1033.20
17900,-3.8746,-0.0184,-0.9774,-523.19,-812.56,-1720.70
17910,-3.8746,-0.0334,-0.9822,1648.68,-1093.81,1873.05
17920,-3.8746,-0.0452,-0.9841,-273.19,-1703.25,1466.80
17930,-3.8746,-0.0522,-0.9847,-1773.19,-1953.25,1107.42
17940,-3.8746,-0.0560,-0.9840,1320.56,1968.63,1169.92
17950,-3.8746,-0.0576,-0.9802,836.18,-1937.62,1373.05
17960,-3.8746,-0.0587,-0.9749,633.06,-1453.25,1248.05
17970,-3.8746,-0.0616,-0.9724,492.43,-765.75,701.17
17980,-3.8748,-0.0656,-0.9736,117.43,-453.25,-48.83
17990,-3.8748,-0.0684,-0.9775,-382.57,-609.56,-892.58
18000,-3.8748,-0.0674,-0.9845,-741.94,-1109.56,-1689.45
18010,-3.8748,-0.0605,-0.9916,-616.94,1999.82,1998.05
18020,-3.8748,-0.0507,-0.9944,258.06,1093.63,-1923.83
18030,-3.8748,-0.0400,-0.9899,1523.68,734.25,-1783.20
18040,-3.8748,-0.0305,-0.9795,-1116.94,1312.38,-1564.45
18050,-3.8748,-0.0256,-0.9701,101.81,-1359.44,-1376.95
18060,-3.8748,-0.0275,-0.9678,726.81,-156.31,-1283.20
18070,-3.8748,-0.0349,-0.9716,492.43,140.56,-1158.14
18080,-3.8748,-0.0452,-0.9749,-460.69,-343.87,-751.95
18090,-3.8746,-0.0531,-0.9741,-1773.19,-765.75,91.80
18100,-3.8746,-0.0546,-0.9700,1211.18,-672.00,966.80
18110,-3.8746,-0.0516,-0.9655,1023.68,-140.75,1810.55
18120,-3.8746,-0.0479,-0.9661,1398.68,437.38,-1439.39
18130,-3.8746,-0.0430,-0.9697,1883.06,359.25,-1126.89
18140,-3.8746,-0.0405,-0.9746,-1491.94,-109.50,-1345.70
18150,-3.8746,-0.0396,-0.9801,-1179.44,-734.50,-1861.33
18160,-3.8746,-0.0348,-0.9862,-1054.44,-1437.62,1435.55
18170,-3.8746,-0.0280,-0.9924,-445.07,1781.13,857.42
18180,-3.8746,-0.0189,-0.9934,429.93,984.31,576.17
18190,-3.8746,-0.0076,-0.9879,1586.18,859.31,638.67
18200,-3.8746,0.0022,-0.9816,-960.69,1562.44,1169.92
18210,-3.8746,0.0057,-0.9789,289.31,-1640.62,1826.17
18220,-3.8746,-0.0010,-0.9828,742.43,-1296.88,-1736.33
18230,-3.8746,-0.0157,-0.9910,-116.94,-1781.31,-1751.95
18240,-3.8746,-0.0297,-0.9944,1992.43,1171.81,1966.80
18250,-3.8746,-0.0354,-0.9921,211.18,734.31,1826.17
18260,-3.8746,-0.0309,-0.9878,-523.19,1031.13,-1923.83
18270,-3.8746,-0.0208,-0.9803,54.93,1578.06,-1173.83
18280,-3.8746,-0.0128,-0.9730,1351.81,-1468.81,-283.20
18290,-3.8745,-0.0128,-0.9708,-1632.57,-531.31,279.30
18300,-3.8745,-0.0225,-0.9729,-1632.57,-250.06,232.42
18310,-3.8746,-0.0389,-0.9755,1133.06,-515.69,-439.45
18320,-3.8746,-0.0564,-0.9763,-976.32,-843.87,-1517.58
18330,-3.8746,-0.0675,-0.9761,789.31,-953.25,1216.80
18340,-3.8746,-0.0681,-0.9769,-632.57,-922.06,169.92
18350,-3.8748,-0.0601,-0.9780,-710.69,-1031.43,-345.70
18360,-3.8748,-0.0504,-0.9751,320.56,-1172.00,-408.20
18370,-3.8748,-0.0463,-0.9703,1554.93,-797.00,-236.33
18380,-3.8746,-0.0498,-0.9706,-1913.82,-187.62,60.55
18390,-3.8746,-0.0565,-0.9733,1633.06,-218.87,591.80
18400,-3.8746,-0.0590,-0.9747,773.68,-562.62,1138.67
18410,-3.8746,-0.0532,-0.9756,461.18,-750.12,1435.55
18420,-3.8746,-0.0406,-0.9768,1195.56,-859.50,1685.55
18430,-3.8746,-0.0258,-0.9763,-1195.07,-1015.75,-1876.95
18440,-3.8746,-0.0129,-0.9709,711.18,-953.19,-1251.95
18450,-3.8746,-0.0068,-0.9658,-1648.19,-265.69,-830.08
18460,-3.8746,-0.0112,-0.9678,-866.94,390.56,-533.14
18470,-3.8746,-0.0248,-0.9747,-1429.44,140.56,-330.02
18480,-3.8746,-0.0426,-0.9829,836.18,-750.06,-408.20
18490,-3.8746,-0.0568,-0.9901,-1445.07,-1797.00,-533.20
18500,-3.8746,-0.0615,-0.9943,742.43,1281.13,-283.20
18510,-3.8745,-0.0573,-0.9933,133.06,749.88,373.05
18520,-3.8745,-0.0460,-0.9872,679.93,874.88,1091.80
18530,-3.8745,-0.0359,-0.9800,-1882.57,1656.13,1779.30
18540,-3.8745,-0.0331,-0.9781,-585.69,-1422.00,-1720.70
18550,-3.8745,-0.0353,-0.9810,-226.32,-1187.62,-1642.58
18560,-3.8745,-0.0386,-0.9841,-507.57,-1547.00,1857.42
18570,-3.8745,-0.0402,-0.9867,-929.44,-1953.25,966.80
18580,-3.8746,-0.0389,-0.9873,-1132.57,1718.63,-48.83
18590,-3.8746,-0.0371,-0.9855,-976.32,1640.50,-1158.20
18600,-3.8746,-0.0382,-0.9857,-741.94,1874.88,1904.30
18610,-3.8746,-0.0403,-0.9916,-882.57,1843.63,1482.42
18620,-3.8746,-0.0380,-0.9966,-1148.19,1093.63,1748.05
18630,-3.8746,-0.0306,-0.9955,-851.32,453.00,-1548.83
18640,-3.8746,-0.0210,-0.9917,86.18,593.69,-611.33
18650,-3.8745,-0.0125,-0.9873,1320.56,1078.06,701.17
18660,-3.8745,-0.0083,-0.9817,-1585.69,1640.56,-1939.45
18670,-3.8745,-0.0103,-0.9742,-1054.44,-1640.69,-1220.70
18680,-3.8745,-0.0181,-0.9669,-1304.44,-687.56,-1658.20
18690,-3.8745,-0.0305,-0.9636,1695.56,249.94,919.98
18700,-3.8746,-0.0452,-0.9688,101.81,671.81,-1111.27
18710,-3.8746,-0.0563,-0.9802,-1773.19,15.50,904.36
18720,-3.8748,-0.0558,-0.9895,804.93,-1453.25,-533.20
18730,-3.8748,-0.0449,-0.9900,867.43,1359.25,-1314.45
18740,-3.8748,-0.0323,-0.9829,-1741.94,1296.75,-1830.08
18750,-3.8748,-0.0267,-0.9753,-132.57,-1797.00,1654.30
18760,-3.8748,-0.0309,-0.9714,586.18,-828.19,1326.17
18770,-3.8748,-0.0410,-0.9718,54.93,-328.19,1216.80
18780,-3.8748,-0.0479,-0.9760,-1241.94,-375.12,1373.05
18790,-3.8748,-0.0448,-0.9778,1883.06,-906.37,1794.92
18800,-3.8748,-0.0358,-0.9768,-1726.32,-1140.75,-1830.08
18810,-3.8748,-0.0284,-0.9778,-570.07,-1015.75,-1548.83
18820,-3.8748,-0.0265,-0.9814,367.43,-1140.69,-1361.33
18830,-3.8748,-0.0305,-0.9838,617.43,-1609.44,-1236.33
18840,-3.8748,-0.0364,-0.9829,101.81,-1906.31,-1158.20
18850,-3.8748,-0.0377,-0.9818,-648.19,-1797.00,-1189.45
18860,-3.8748,-0.0355,-0.9800,-820.07,-1656.37,-1220.70
18870,-3.8748,-0.0339,-0.9761,-538.82,-1422.00,-1283.20
18880,-3.8748,-0.0345,-0.9766,-335.69,-922.00,-1501.95
18890,-3.8748,-0.0352,-0.9829,-413.82,-984.50,-1439.45
18900,-3.8748,-0.0337,-0.9858,-491.94,-1797.00,-1001.95
18910,-3.8748,-0.0311,-0.9832,-304.44,1828.00,-486.33
18920,-3.8748,-0.0287,-0.9779,23.68,-1828.19,-33.20
18930,-3.8746,-0.0289,-0.9744,336.18,-1156.31,154.30
18940,-3.8748,-0.0332,-0.9716,304.93,-703.19,-126.95
18950,-3.8748,-0.0404,-0.9670,-241.94,-343.87,-939.45
18960,-3.8748,-0.0494,-0.9646,-1163.82,234.25,1919.98
18970,-3.8748,-0.0568,-0.9673,1679.93,546.75,966.86
18980,-3.8748,-0.0586,-0.9690,742.43,203.00,513.73
18990,-3.8748,-0.0566,-0.9648,508.06,-15.75,529.30
19000,-3.8748,-0.0540,-0.9615,758.06,515.50,763.73
19010,-3.8748,-0.0541,-0.9670,1101.81,937.38,1029.36
19020,-3.8748,-0.0565,-0.9813,1086.18,234.25,1544.98
19030,-3.8748,-0.0547,-0.9935,773.68,-1593.87,-1673.83
19040,-3.8748,-0.0470,-0.9963,1008.06,843.63,-501.95
19050,-3.8746,-0.0370,-0.9945,1992.43,484.25,1310.55
19060,-3.8746,-0.0297,-0.9926,-726.32,718.63,-298.83
19070,-3.8745,-0.0284,-0.9906,211.18,968.69,1966.80
19080,-3.8745,-0.0321,-0.9873,367.43,1218.69,-564.45
19090,-3.8745,-0.0391,-0.9823,-101.32,1640.50,-64.45
19100,-3.8745,-0.0472,-0.9796,-991.94,-1718.87,-955.08
19110,-3.8745,-0.0535,-0.9832,1961.18,-1375.12,966.80
19120,-3.8746,-0.0537,-0.9919,1164.31,-1828.25,-1439.45
19130,-3.8746,-0.0454,-1.0007,1133.06,1046.75,732.42
19140,-3.8748,-0.0323,-1.0028,-1804.44,-78.25,-80.14
19150,-3.8746,-0.0209,-0.9966,-132.57,-343.87,76.11
19160,-3.8746,-0.0172,-0.9880,1336.18,453.06,982.42
19170,-3.8746,-0.0243,-0.9811,1804.93,1546.81,-1783.20
19180,-3.8746,-0.0404,-0.9741,898.68,-1562.56,-689.45
19190,-3.8746,-0.0615,-0.9667,-1163.82,-672.00,-173.83
19200,-3.8746,-0.0803,-0.9647,133.06,281.13,-111.27
19210,-3.8745,-0.0861,-0.9713,1726.81,531.07,138.73
19220,-3.8745,-0.0746,-0.9769,992.43,-312.68,873.05
19230,-3.8745,-0.0519,-0.9752,-1538.82,-1031.43,1794.92
19240,-3.8745,-0.0294,-0.9714,1367.43,-812.62,-1595.70
19250,-3.8745,-0.0177,-0.9706,242.43,-328.19,-1548.83
19260,-3.8745,-0.0200,-0.9734,1742.43,-218.81,1763.67
19270,-3.8745,-0.0342,-0.9777,1445.56,-578.19,310.55
19280,-3.8746,-0.0524,-0.9808,-366.94,-1125.12,-1673.83
19290,-3.8746,-0.0632,-0.9843,1304.93,-1531.37,435.55
19300,-3.8748,-0.0604,-0.9863,-85.69,-1968.93,-923.83
19310,-3.8748,-0.0454,-0.9858,273.68,1765.50,-1658.20
19320,-3.8748,-0.0273,-0.9843,-1804.44,1828.00,-1830.08
19330,-3.8748,-0.0149,-0.9832,508.06,-1968.81,-1595.70
19340,-3.8748,-0.0109,-0.9844,-1898.19,-1828.19,-1142.58
19350,-3.8748,-0.0148,-0.9847,-1382.57,-1984.44,-689.45
19360,-3.8748,-0.0239,-0.9814,-1882.57,1968.69,-361.33
19370,-3.8748,-0.0320,-0.9766,945.56,-1609.44,-189.45
19380,-3.8748,-0.0337,-0.9739,-85.69,-984.50,-95.70
19390,-3.8746,-0.0277,-0.9744,-304.44,-640.75,60.55
19400,-3.8746,-0.0168,-0.9749,461.18,-703.19,294.92
19410,-3.8746,-0.0072,-0.9730,1851.81,-765.69,341.80
19420,-3.8748,-0.0045,-0.9720,-913.82,-531.31,-126.95
19430,-3.8748,-0.0096,-0.9735,-570.07,-406.31,-830.08
19440,-3.8748,-0.0200,-0.9783,-1226.32,-593.81,-1517.58
19450,-3.8748,-0.0309,-0.9845,1445.56,-1203.19,1888.67
19460,-3.8748,-0.0365,-0.9867,54.93,1999.94,1623.05
19470,-3.8748,-0.0359,-0.9863,-663.82,1718.63,1826.17
19480,-3.8748,-0.0317,-0.9889,-585.69,1765.50,-1486.33
19490,-3.8748,-0.0265,-0.9927,-54.44,1437.38,-455.08
19500,-3.8746,-0.0221,-0.9932,617.43,953.06,638.67
19510,-3.8746,-0.0216,-0.9897,1179.93,890.56,1373.05
19520,-3.8746,-0.0243,-0.9830,1242.43,1328.06,1685.55
19530,-3.8746,-0.0292,-0.9781,898.68,-1812.56,1654.30
19540,-3.8746,-0.0332,-0.9785,273.68,-1187.56,1466.80
19550,-3.8746,-0.0344,-0.9806,-241.94,-1234.50,1263.67
19560,-3.8746,-0.0338,-0.9814,-398.19,-1500.12,701.17
19570,-3.8748,-0.0341,-0.9818,-320.07,-1609.50,-330.08
19580,-3.8748,-0.0375,-0.9834,-351.32,-1656.37,-1220.70
19590,-3.8748,-0.0424,-0.9854,-788.82,-1859.50,-1533.20
19600,-3.8748,-0.0448,-0.9852,-1413.82,1890.50,-1361.33
19610,-3.8748,-0.0424,-0.9821,-1726.32,1906.13,-736.33
19620,-3.8746,-0.0370,-0.9769,-1413.82,-1687.62,216.80
19630,-3.8746,-0.0336,-0.9706,-726.32,-1031.37,1216.80
19640,-3.8746,-0.0347,-0.9667,-288.82,-218.87,1810.55
19650,-3.8746,-0.0408,-0.9698,-429.44,281.13,1873.11
19660,-3.8746,-0.0487,-0.9800,-1210.69,-125.12,1685.55
19670,-3.8746,-0.0537,-0.9901,1773.68,-1422.00,1263.67
19680,-3.8746,-0.0540,-0.9924,1133.06,1281.13,826.17
19690,-3.8746,-0.0520,-0.9860,1101.81,984.25,638.67
19700,-3.8746,-0.0503,-0.9777,1351.81,1812.38,857.42
19710,-3.8746,-0.0511,-0.9725,1570.56,-1125.12,1279.30
19720,-3.8746,-0.0559,-0.9712,1461.18,-468.87,1810.55
19730,-3.8746,-0.0601,-0.9735,851.81,-297.00,-1689.45
19740,-3.8746,-0.0608,-0.9764,320.56,-593.87,-1486.33
19750,-3.8746,-0.0594,-0.9800,226.81,-968.87,-1689.45
19760,-3.8746,-0.0575,-0.9836,398.68,-1422.00,1763.67
19770,-3.8746,-0.0547,-0.9844,648.68,-1890.75,1154.30
19780,-3.8746,-0.0494,-0.9817,1008.06,-1984.50,732.42
19790,-3.8746,-0.0424,-0.9808,1679.93,-1640.75,544.92
19800,-3.8746,-0.0356,-0.9834,-1413.82,-1531.37,560.55
19810,-3.8746,-0.0300,-0.9846,-554.44,-1859.50,779.30
19820,-3.8746,-0.0265,-0.9818,164.31,1984.31,763.67
19830,-3.8746,-0.0302,-0.9785,617.43,-1656.31,435.55
19840,-3.8748,-0.0427,-0.9771,148.68,-1234.44,-80.08
19850,-3.8748,-0.0592,-0.9764,-1460.69,-1047.00,-751.95
19860,-3.8748,-0.0726,-0.9767,429.93,-968.87,-1439.45
19870,-3.8748,-0.0779,-0.9784,-1288.82,-1000.18,-1814.45
19880,-3.8748,-0.0747,-0.9792,-1960.69,-1218.93,-1689.45
19890,-3.8748,-0.0654,-0.9780,-1554.44,-1328.31,-1173.83
19900,-3.8748,-0.0542,-0.9783,-366.94,-1172.06,-408.20
19910,-3.8746,-0.0443,-0.9811,1070.56,-1203.25,451.17
19920,-3.8746,-0.0375,-0.9830,-1663.82,-1562.62,1154.30
19930,-3.8746,-0.0349,-0.9824,-788.82,-1812.62,1669.92
19940,-3.8746,-0.0345,-0.9807,-460.69,-1734.50,-1845.70
19950,-3.8746,-0.0328,-0.9786,-413.82,-1515.75,-1376.95
19960,-3.8746,-0.0293,-0.9764,-195.07,-1250.12,-1142.58
19970,-3.8746,-0.0299,-0.9764,258.06,-968.81,-1142.58
19980,-3.8746,-0.0389,-0.9823,179.93,-968.81,-1439.45
19990,-3.8746,-0.0525,-0.9919,-976.32,-1718.87,1998.05
20000,-3.8746,-0.0632,-0.9960,1289.31,1046.75,1560.55
20010,-3.8746,-0.0685,-0.9910,-85.69,531.07,1388.67
20020,-3.8746,-0.0695,-0.9844,-757.57,1171.69,1388.67
20030,-3.8746,-0.0686,-0.9797,-882.57,-1984.56,1935.55
20040,-3.8746,-0.0674,-0.9749,-773.19,-1390.81,-892.58
20050,-3.8745,-0.0643,-0.9751,-616.94,-765.81,529.30
20060,-3.8745,-0.0543,-0.9819,-226.32,-797.06,-1783.20
20070,-3.8745,-0.0337,-0.9856,1054.93,-1672.00,-33.20
20080,-3.8744,-0.0066,-0.9835,-304.44,1859.25,1060.55
20090,-3.8744,0.0178,-0.9792,-835.69,-1875.06,1107.42
20100,-3.8745,0.0312,-0.9763,-1710.69,-1343.75,-17.58
20110,-3.8745,0.0254,-0.9757,8.06,-968.69,1857.42
20120,-3.8746,0.0005,-0.9764,-741.94,-890.62,-1048.83
20130,-3.8748,-0.0336,-0.9814,70.56,-984.38,-267.58
20140,-3.8748,-0.0645,-0.9852,-288.82,-1609.50,1154.30
20150,-3.8749,-0.0836,-0.9835,-241.94,1906.07,-345.70
20160,-3.8749,-0.0880,-0.9833,1304.93,-1875.18,-673.83
20170,-3.8749,-0.0792,-0.9828,742.43,-1843.93,-1.95
20180,-3.8748,-0.0648,-0.9757,1867.43,-1781.43,1123.05
20190,-3.8748,-0.0542,-0.9664,-288.82,-875.18,-1830.08
20200,-3.8748,-0.0527,-0.9637,1070.56,312.38,-1220.64
20210,-3.8748,-0.0563,-0.9707,1258.06,656.13,-1064.39
20220,-3.8748,-0.0575,-0.9783,804.93,-234.50,-1017.58
20230,-3.8748,-0.0526,-0.9796,648.68,-1203.25,-955.08
20240,-3.8748,-0.0435,-0.9781,1273.68,-1375.12,-955.08
20250,-3.8748,-0.0366,-0.9797,-1554.44,-1187.62,-986.33
20260,-3.8748,-0.0347,-0.9839,-679.44,-1390.75,-1189.45
20270,-3.8748,-0.0354,-0.9846,-429.44,-1922.00,-1548.83
20280,-3.8748,-0.0345,-0.9835,-523.19,1984.25,1935.55
20290,-3.8748,-0.0272,-0.9855,-413.82,-1875.12,1623.05
20300,-3.8748,-0.0139,-0.9874,523.68,1874.94,1888.67
20310,-3.8748,0.0005,-0.9852,-1773.19,1624.94,-1486.33
20320,-3.8748,0.0093,-0.9825,70.56,1890.62,-720.70
20330,-3.8746,0.0051,-0.9871,1195.56,-1765.62,44.92
20340,-3.8746,-0.0084,-0.9948,664.31,1656.25,451.17
20350,-3.8746,-0.0214,-0.9963,-1070.07,687.44,498.05
20360,-3.8746,-0.0286,-0.9905,1273.68,484.31,248.05
20370,-3.8748,-0.0305,-0.9822,351.81,1234.31,-361.33
20380,-3.8748,-0.0327,-0.9742,101.81,-1703.19,-1236.33
20390,-3.8748,-0.0411,-0.9691,-179.44,-687.62,1732.42
20400,-3.8748,-0.0515,-0.9720,-1257.57,-31.37,826.17
20410,-3.8748,-0.0574,-0.9774,1414.31,-406.37,451.17
20420,-3.8748,-0.0590,-0.9784,664.31,-1093.87,388.67
20430,-3.8748,-0.0608,-0.9795,461.18,-1218.87,123.05
20440,-3.8749,-0.0642,-0.9821,226.81,-1359.50,-236.33
20450,-3.8749,-0.0686,-0.9829,-210.69,-1687.68,-580.08
20460,-3.8749,-0.0720,-0.9803,-773.19,-1797.06,-361.33
20470,-3.8748,-0.0702,-0.9786,-1210.69,-1468.93,482.42
20480,-3.8748,-0.0621,-0.9796,-976.32,-1250.18,1451.17
20490,-3.8748,-0.0520,-0.9807,54.93,-1375.12,1982.42
20500,-3.8748,-0.0459,-0.9806,1351.81,-1515.75,-1955.08
20510,-3.8748,-0.0461,-0.9800,-1866.94,-1500.12,1951.17
20520,-3.8748,-0.0498,-0.9813,-1898.19,-1422.00,1607.42
20530,-3.8748,-0.0526,-0.9849,1633.06,-1593.87,1294.92
20540,-3.8748,-0.0508,-0.9880,1273.68,1953.00,1404.30
20550,-3.8748,-0.0458,-0.9879,1508.06,1546.75,-1939.45
20560,-3.8748,-0.0420,-0.9841,-1851.32,1562.38,-814.45
20570,-3.8746,-0.0402,-0.9796,-1366.94,-1953.25,591.80
20580,-3.8746,-0.0402,-0.9750,-1132.57,-1375.12,-1923.83
20590,-3.8746,-0.0402,-0.9717,-1132.57,-781.37,-689.45
20600,-3.8746,-0.0366,-0.9730,-1132.57,-359.50,-33.20
20610,-3.8746,-0.0277,-0.9781,-679.44,-531.37,-111.33
20620,-3.8746,-0.0164,-0.9828,461.18,-1187.56,-830.08
20630,-3.8746,-0.0066,-0.9851,1914.31,-1781.31,1841.80
20640,-3.8746,-0.0016,-0.9860,-835.69,1921.81,76.17
20650,-3.8748,-0.0039,-0.9882,-195.07,1812.44,-1642.58
20660,-3.8748,-0.0122,-0.9915,-491.94,1531.19,998.05
20670,-3.8748,-0.0234,-0.9935,-1554.44,1109.31,232.42
20680,-3.8748,-0.0350,-0.9918,1008.06,843.69,138.67
20690,-3.8748,-0.0469,-0.9862,-476.32,1062.38,529.30
20700,-3.8748,-0.0597,-0.9816,-1991.94,1781.13,1201.17
20710,-3.8748,-0.0723,-0.9780,367.43,-1625.12,1904.30
20720,-3.8748,-0.0802,-0.9744,-1241.94,-1172.06,-1517.58
20730,-3.8748,-0.0779,-0.9747,1742.43,-703.31,-923.83
20740,-3.8748,-0.0641,-0.9775,-1960.69,-750.18,-283.20
20750,-3.8746,-0.0453,-0.9769,-195.07,-1109.56,216.80
20760,-3.8746,-0.0322,-0.9740,-1788.82,-1031.37,451.17
20770,-3.8746,-0.0322,-0.9723,-116.94,-656.37,294.92
20780,-3.8748,-0.0448,-0.9738,-116.94,-437.62,-251.95
20790,-3.8748,-0.0604,-0.9769,-1726.32,-625.12,-1080.08
20800,-3.8748,-0.0682,-0.9797,273.68,-1031.37,-1923.83
20810,-3.8748,-0.0638,-0.9847,-726.32,-1390.81,1341.80
20820,-3.8748,-0.0498,-0.9911,-163.82,1968.57,951.17
20830,-3.8748,-0.0321,-0.9917,1633.06,1156.13,1091.80
20840,-3.8748,-0.0187,-0.9838,-101.32,1078.00,1513.67
20850,-3.8748,-0.0164,-0.9736,1617.43,-1906.31,1779.30
20860,-3.8748,-0.0264,-0.9707,1914.31,-609.44,1763.67
20870,-3.8748,-0.0410,-0.9773,633.06,-234.44,1544.92
20880,-3.8748,-0.0497,-0.9895,-1241.94,-1078.25,1466.80
20890,-3.8748,-0.0460,-1.0000,1648.68,1359.25,1544.92
20900,-3.8748,-0.0310,-1.0029,-1882.57,15.50,1341.80
20910,-3.8748,-0.0156,-0.9987,39.31,-359.44,935.49
20920,-3.8748,-0.0101,-0.9918,-1991.94,187.44,529.30
20930,-3.8749,-0.0145,-0.9855,-1288.82,1062.44,-189.45
20940,-3.8749,-0.0265,-0.9796,-1851.32,1874.94,-1423.83
20950,-3.8749,-0.0459,-0.9773,617.43,-1375.06,1138.67
20960,-3.8749,-0.0676,-0.9824,-1866.94,-1078.25,466.80
20970,-3.8749,-0.0797,-0.9861,-648.19,-1734.56,1185.55
20980,-3.8749,-0.0759,-0.9784,1804.93,1796.69,-1111.33
20990,-3.8748,-0.0634,-0.9635,-1710.69,-1218.93,701.17
21000,-3.8748,-0.0533,-0.9542,-101.32,687.32,-1892.52
21010,-3.8748,-0.0532,-0.9557,1179.93,1874.88,-1345.64
21020,-3.8748,-0.0618,-0.9640,1195.56,1687.38,-1830.02
21030,-3.8748,-0.0714,-0.9779,101.81,624.88,1107.48
21040,-3.8749,-0.0762,-0.9905,-1132.57,-1156.43,-1.95
21050,-3.8749,-0.0731,-0.9948,-1741.94,1234.19,-923.83
21060,-3.8749,-0.0653,-0.9928,-1351.32,687.32,-1626.95
21070,-3.8749,-0.0592,-0.9874,-351.32,937.32,-1861.33
21080,-3.8749,-0.0607,-0.9803,429.93,1624.88,-1392.58
21090,-3.8749,-0.0698,-0.9740,242.43,-1468.87,-439.45
21100,-3.8748,-0.0802,-0.9705,-929.44,-656.43,576.17
21110,-3.8748,-0.0854,-0.9714,1742.43,-203.31,1482.42
21120,-3.8748,-0.0817,-0.9749,1070.56,-328.31,-1705.08
21130,-3.8748,-0.0675,-0.9757,1554.93,-765.81,-1080.08
21140,-3.8748,-0.0490,-0.9747,-632.57,-875.18,-876.95
21150,-3.8748,-0.0363,-0.9767,1742.43,-750.12,-1095.70
21160,-3.8748,-0.0322,-0.9834,-632.57,-1000.12,-1658.20
21170,-3.8748,-0.0319,-0.9895,-116.94,-1859.50,1341.80
21180,-3.8748,-0.0309,-0.9943,-70.07,1359.25,216.80
21190,-3.8749,-0.0258,-1.0002,54.93,749.94,-267.58
21200,-3.8748,-0.0157,-1.0013,711.18,-15.69,279.24
21210,-3.8748,-0.0050,-0.9919,1992.43,-156.31,1247.99
21220,-3.8748,-0.0031,-0.9783,-632.57,1046.81,-1830.08
21230,-3.8748,-0.0177,-0.9706,-382.57,-1203.19,-1095.70
21240,-3.8748,-0.0454,-0.9714,1742.43,-218.81,-923.83
21250,-3.8748,-0.0735,-0.9778,-1804.44,-328.25,-1455.08
21260,-3.8748,-0.0905,-0.9818,-1398.19,-1140.81,1607.42
21270,-3.8748,-0.0914,-0.9799,429.93,-1656.43,607.42
21280,-3.8749,-0.0789,-0.9788,304.93,-1406.43,-205.08
21290,-3.8749,-0.0620,-0.9813,1914.31,-1265.81,-376.95
21300,-3.8749,-0.0493,-0.9823,70.56,-1593.87,-126.95
21310,-3.8748,-0.0457,-0.9821,1695.56,-1718.87,185.55
21320,-3.8748,-0.0529,-0.9846,-1835.69,-1687.62,529.30
21330,-3.8748,-0.0658,-0.9869,1242.43,1984.25,951.17
21340,-3.8748,-0.0746,-0.9860,-413.82,1687.32,1623.05
21350,-3.8748,-0.0732,-0.9819,-1538.82,1812.32,-1345.70
21360,-3.8748,-0.0631,-0.9749,-1366.94,-1672.06,-173.83
21370,-3.8746,-0.0494,-0.9698,-70.07,-765.81,763.67
21380,-3.8746,-0.0409,-0.9739,1679.93,-125.12,1091.80
21390,-3.8746,-0.0415,-0.9877,-1226.32,-640.75,966.80
21400,-3.8746,-0.0470,-1.0002,-1304.44,1593.63,591.80
21410,-3.8746,-0.0507,-1.0011,1992.43,-15.75,76.11
21420,-3.8748,-0.0502,-0.9940,1523.68,-125.12,-283.26
21430,-3.8748,-0.0470,-0.9861,1586.18,781.13,-111.33
21440,-3.8746,-0.0443,-0.9790,1992.43,1796.75,654.30
21450,-3.8746,-0.0426,-0.9724,-1663.82,-1297.00,1623.05
21460,-3.8746,-0.0420,-0.9686,-1445.07,-453.25,-1595.70
21470,-3.8746,-0.0455,-0.9694,-1366.94,31.13,-1283.14
21480,-3.8746,-0.0529,-0.9711,-1820.07,-62.62,-1626.95
21490,-3.8746,-0.0624,-0.9742,1242.43,-281.37,1341.80
21500,-3.8746,-0.0725,-0.9805,23.68,-687.62,44.92
21510,-3.8748,-0.0791,-0.9845,-1273.19,-1484.56,-1095.70
21520,-3.8748,-0.0798,-0.9846,1883.06,1999.82,1935.55
21530,-3.8748,-0.0768,-0.9833,1789.31,1984.19,1185.55
21540,-3.8748,-0.0723,-0.9818,-1820.07,-1843.93,919.92
21550,-3.8748,-0.0680,-0.9795,-1241.94,-1656.43,1373.05
21560,-3.8748,-0.0660,-0.9744,-695.07,-1359.56,-1798.83
21570,-3.8748,-0.0685,-0.9708,-445.07,-703.31,-1267.58
21580,-3.8748,-0.0732,-0.9763,-757.57,-250.18,-1158.20
21590,-3.8748,-0.0752,-0.9822,-1366.94,-953.31,-1048.83
21600,-3.8748,-0.0713,-0.9781,-1616.94,-1703.31,-892.58
21610,-3.8748,-0.0631,-0.9711,-1116.94,-1187.68,-1001.95
21620,-3.8748,-0.0570,-0.9731,-70.07,-281.43,-1439.45
21630,-3.8748,-0.0570,-0.9832,711.18,-547.00,-1970.70
21640,-3.8748,-0.0610,-0.9893,711.18,-1828.25,1576.17
21650,-3.8748,-0.0659,-0.9880,195.56,1390.50,1029.30
21660,-3.8748,-0.0677,-0.9822,-429.44,1546.69,544.92
21670,-3.8748,-0.0676,-0.9767,-663.82,-1703.31,248.05
21680,-3.8749,-0.0693,-0.9749,-648.19,-1000.18,-17.58
21690,-3.8748,-0.0734,-0.9736,-866.94,-765.81,29.30
21700,-3.8748,-0.0779,-0.9745,-1382.57,-609.56,107.42
21710,-3.8749,-0.0802,-0.9789,-1960.69,-718.93,-95.70
21720,-3.8749,-0.0782,-0.9827,1742.43,-1281.43,-189.45
21730,-3.8749,-0.0721,-0.9838,1992.43,-1765.81,-158.20
21740,-3.8749,-0.0651,-0.9829,-1226.32,-1906.43,-111.33
21750,-3.8749,-0.0607,-0.9817,-320.07,-1797.06,-17.58
21760,-3.8748,-0.0602,-0.9781,242.43,-1640.75,107.42
21770,-3.8748,-0.0631,-0.9728,304.93,-1187.62,91.80
21780,-3.8749,-0.0671,-0.9719,-70.07,-500.18,-1.95
21790,-3.8749,-0.0696,-0.9760,-585.69,-390.81,-95.70
21800,-3.8749,-0.0681,-0.9803,-898.19,-906.43,-158.20
21810,-3.8749,-0.0619,-0.9817,-710.69,-1468.93,-95.70
21820,-3.8748,-0.0531,-0.9806,86.18,-1640.75,154.30
21830,-3.8748,-0.0477,-0.9819,1211.18,-1500.12,513.67
21840,-3.8748,-0.0499,-0.9861,1898.68,-1672.00,732.42
21850,-3.8748,-0.0583,-0.9880,1617.43,1796.75,748.05
21860,-3.8748,-0.0684,-0.9866,539.31,1546.75,919.92
21870,-3.8748,-0.0746,-0.9819,-741.94,1734.19,1419.92
21880,-3.8748,-0.0756,-0.9772,-1538.82,-1672.06,-1908.20
21890,-3.8748,-0.0737,-0.9767,-1663.82,-1062.68,-1251.95
21900,-3.8748,-0.0702,-0.9791,-1429.44,-1000.18,-423.83
21910,-3.8746,-0.0663,-0.9799,-976.32,-1312.68,623.05
21920,-3.8746,-0.0619,-0.9780,-476.32,-1406.43,1623.05
21930,-3.8746,-0.0571,-0.9768,86.18,-1172.00,-1845.70
21940,-3.8746,-0.0526,-0.9766,695.56,-1015.75,-1830.08
21950,-3.8746,-0.0482,-0.9751,1273.68,-984.50,1857.42
21960,-3.8746,-0.0428,-0.9729,1836.18,-797.00,1138.67
21970,-3.8748,-0.0396,-0.9750,-1476.32,-515.75,-95.70
21980,-3.8748,-0.0424,-0.9847,-1054.44,-781.37,-1330.08
21990,-3.8748,-0.0471,-0.9932,-1413.82,1968.63,-1830.08
22000,-3.8748,-0.0515,-0.9919,1976.81,890.50,-1767.58
22010,-3.8748,-0.0569,-0.9910,1414.31,1046.75,-1705.08
22020,-3.8748,-0.0618,-0.9922,726.81,1171.75,-1330.08
22030,-3.8748,-0.0638,-0.9883,101.81,1015.50,-658.20
22040,-3.8748,-0.0624,-0.9825,-163.82,1515.44,-189.45
22050,-3.8746,-0.0576,-0.9783,23.68,-1750.12,185.55
22060,-3.8746,-0.0529,-0.9758,633.06,-1203.25,373.05
22070,-3.8746,-0.0514,-0.9753,1242.43,-890.75,91.80
22080,-3.8748,-0.0551,-0.9768,1429.93,-828.25,-283.20
22090,-3.8748,-0.0590,-0.9811,961.18,-1015.75,-298.83
22100,-3.8746,-0.0559,-0.9833,461.18,-1562.62,44.92
22110,-3.8746,-0.0476,-0.9799,851.81,-1843.87,388.67
22120,-3.8746,-0.0378,-0.9741,1914.31,-1406.37,638.67
22130,-3.8746,-0.0320,-0.9708,-835.69,-672.00,841.80
22140,-3.8746,-0.0349,-0.9744,-85.69,-250.12,654.30
22150,-3.8748,-0.0443,-0.9839,-460.69,-703.25,-189.45
22160,-3.8748,-0.0563,-0.9893,-1663.82,-1922.00,-1501.95
22170,-3.8748,-0.0680,-0.9843,804.93,1390.50,998.05
22180,-3.8749,-0.0792,-0.9751,-695.07,-1968.93,-439.45
22190,-3.8749,-0.0898,-0.9688,1867.43,-797.06,-1486.33
22200,-3.8749,-0.0994,-0.9674,508.06,15.44,-1939.39
22210,-3.8749,-0.1040,-0.9700,-710.69,187.26,-1876.89
22220,-3.8749,-0.0952,-0.9762,-1304.44,-140.87,-1564.45
22230,-3.8749,-0.0718,-0.9829,-179.44,-937.74,-1283.20
22240,-3.8749,-0.0420,-0.9861,-1179.44,-1797.06,-1111.33
22250,-3.8749,-0.0178,-0.9869,-1366.94,1796.75,-861.33
22260,-3.8749,-0.0044,-0.9867,1726.81,1687.44,-408.20
22270,-3.8749,0.0021,-0.9872,-554.44,1718.69,-80.08
22280,-3.8749,0.0050,-0.9915,273.68,1640.62,-48.83
22290,-3.8749,0.0085,-0.9961,648.68,1093.75,-80.08
22300,-3.8749,0.0154,-0.9974,1101.81,500.00,-236.33
22310,-3.8749,0.0183,-0.9951,1976.81,328.12,-408.20
22320,-3.8749,0.0116,-0.9899,-1648.19,625.00,-126.95
22330,-3.8748,-0.0026,-0.9850,1492.43,1296.88,513.67
22340,-3.8748,-0.0210,-0.9860,-320.07,1937.44,1169.92
22350,-3.8748,-0.0393,-0.9900,1320.56,1812.44,-1908.20
22360,-3.8748,-0.0485,-0.9901,-1023.19,1296.75,-548.83
22370,-3.8746,-0.0455,-0.9843,1804.93,1281.13,1029.30
22380,-3.8746,-0.0381,-0.9750,-1820.07,-1968.87,-1392.58
22390,-3.8745,-0.0332,-0.9684,-866.94,-781.37,107.42
22400,-3.8745,-0.0330,-0.9679,-241.94,62.38,1169.98
22410,-3.8745,-0.0360,-0.9760,-210.69,124.88,1201.23
22420,-3.8745,-0.0372,-0.9894,-601.32,-906.37,685.55
22430,-3.8745,-0.0327,-0.9983,-757.57,1374.88,248.05
22440,-3.8746,-0.0234,-0.9968,-179.44,234.25,-173.83
22450,-3.8746,-0.0135,-0.9907,1008.06,421.81,-517.58
22460,-3.8746,-0.0065,-0.9906,-1726.32,1203.06,-751.95
22470,-3.8746,-0.0061,-0.9976,-820.07,1218.69,-1220.70
22480,-3.8746,-0.0111,-0.9995,-773.19,328.06,1966.80
22490,-3.8746,-0.0150,-0.9937,-1413.82,78.06,1029.30
22500,-3.8746,-0.0154,-0.9874,-1913.82,828.06,248.05
22510,-3.8746,-0.0146,-0.9817,-1960.69,1624.94,29.30
22520,-3.8746,-0.0173,-0.9746,-1866.94,-1640.69,373.05
