timestamp_ms,ax,ay,az,gx,gy,gz
0,-3.8723,0.3380,0.6272,-991.94,547.49,641.85
10,-3.8723,0.3367,0.6295,-726.32,281.86,1298.10
20,-3.8723,0.3331,0.6360,-898.19,578.74,-1858.15
30,-3.8723,0.3296,0.6447,-1351.32,1406.86,-1076.90
40,-3.8723,0.3275,0.6500,-1804.44,-1483.76,-483.15
50,-3.8722,0.3269,0.6498,1929.93,-796.26,1.22
60,-3.8722,0.3274,0.6476,1851.81,-827.51,423.10
70,-3.8722,0.3265,0.6464,1914.31,-1108.76,673.10
80,-3.8722,0.3226,0.6465,1804.93,-1265.01,704.35
90,-3.8722,0.3162,0.6481,1304.93,-1249.39,485.60
100,-3.8722,0.3093,0.6492,476.81,-1046.26,79.35
110,-3.8723,0.3038,0.6475,-398.19,-905.70,-311.28
120,-3.8723,0.3007,0.6442,-1101.32,-1124.45,-701.90
130,-3.8723,0.2994,0.6414,-1507.57,-1546.33,-1295.65
140,-3.8723,0.2987,0.6394,-1663.82,-1905.70,-1951.90
150,-3.8723,0.2976,0.6384,-1757.57,1844.30,1469.97
160,-3.8723,0.2982,0.6377,-1898.19,1719.30,1141.85
170,-3.8723,0.3010,0.6381,-1820.07,1625.55,844.97
180,-3.8723,0.3043,0.6389,-1460.69,1672.42,298.10
190,-3.8724,0.3073,0.6378,-1038.82,1781.80,-233.15
200,-3.8724,0.3097,0.6346,-663.82,1641.17,-576.90
210,-3.8724,0.3107,0.6317,-351.32,1234.92,-764.40
220,-3.8724,0.3097,0.6306,-226.32,859.92,-780.03
230,-3.8724,0.3080,0.6316,-351.32,719.30,-608.15
240,-3.8724,0.3098,0.6343,-570.07,844.30,-280.03
250,-3.8723,0.3163,0.6372,-335.69,1188.05,141.85
260,-3.8723,0.3230,0.6382,492.43,1563.11,735.60
270,-3.8723,0.3269,0.6368,1351.81,1688.11,1329.35
280,-3.8723,0.3257,0.6350,1851.81,1516.24,1751.22
290,-3.8723,0.3217,0.6345,1695.56,1281.86,-1936.28
300,-3.8723,0.3187,0.6346,1179.93,1219.36,-1795.65
310,-3.8723,0.3191,0.6354,804.93,1234.99,-1811.28
320,-3.8723,0.3237,0.6365,851.81,1328.74,-1858.15
330,-3.8723,0.3300,0.6365,1445.56,1469.36,-1873.78
340,-3.8723,0.3335,0.6351,-1757.57,1469.36,-1905.03
350,-3.8723,0.3336,0.6327,-1304.44,1297.49,1969.97
360,-3.8723,0.3322,0.6309,-1288.82,984.99,1829.35
370,-3.8723,0.3306,0.6311,-1476.32,750.61,1798.10
380,-3.8723,0.3304,0.6332,-1679.44,781.86,1657.47
390,-3.8723,0.3313,0.6346,-1695.07,1047.49,1298.10
400,-3.8723,0.3315,0.6338,-1585.69,1234.99,1001.22
410,-3.8723,0.3312,0.6317,-1554.44,1125.61,735.60
420,-3.8723,0.3303,0.6299,-1601.32,859.99,469.97
430,-3.8723,0.3290,0.6292,-1710.69,625.61,485.60
440,-3.8723,0.3280,0.6294,-1882.57,531.86,579.35
450,-3.8723,0.3274,0.6305,1992.43,563.11,579.35
460,-3.8723,0.3260,0.6320,1914.31,703.74,391.85
470,-3.8723,0.3243,0.6320,1742.43,891.24,1.22
480,-3.8724,0.3236,0.6290,1523.68,891.24,-405.03
490,-3.8724,0.3243,0.6255,1429.93,516.24,-623.78
500,-3.8724,0.3269,0.6246,1523.68,63.11,-545.65
510,-3.8724,0.3308,0.6266,1851.81,-46.26,-311.34
520,-3.8724,0.3325,0.6290,-1648.19,203.74,-30.03
530,-3.8723,0.3311,0.6306,-1429.44,516.24,141.85
540,-3.8723,0.3278,0.6313,-1616.94,719.36,298.10
550,-3.8723,0.3228,0.6307,1961.18,813.11,391.85
560,-3.8723,0.3171,0.6305,1320.56,734.99,298.10
570,-3.8723,0.3140,0.6312,601.81,703.74,251.22
580,-3.8723,0.3148,0.6329,195.56,797.49,469.97
590,-3.8723,0.3195,0.6362,304.93,1016.24,860.60
600,-3.8723,0.3254,0.6388,898.68,1438.11,1313.72
610,-3.8723,0.3279,0.6385,1664.31,1766.24,1844.97
620,-3.8723,0.3245,0.6361,1976.81,1734.99,-1639.40
630,-3.8723,0.3184,0.6350,1539.31,1422.49,-1108.15
640,-3.8723,0.3134,0.6372,758.06,1281.86,-733.15
650,-3.8723,0.3113,0.6399,117.43,1563.11,-530.03
660,-3.8723,0.3134,0.6389,-148.19,1906.80,-373.78
670,-3.8723,0.3186,0.6344,117.43,1781.86,-201.90
680,-3.8722,0.3252,0.6316,789.31,1203.74,48.10
690,-3.8722,0.3301,0.6317,1633.06,844.36,173.10
700,-3.8722,0.3313,0.6332,-1741.94,859.99,110.60
710,-3.8723,0.3276,0.6350,-1585.69,1047.49,-92.53
720,-3.8723,0.3204,0.6365,1945.56,1281.86,-358.15
730,-3.8723,0.3141,0.6388,1023.68,1469.36,-686.28
740,-3.8723,0.3115,0.6407,211.18,1766.24,-1061.28
750,-3.8723,0.3134,0.6409,-116.94,-1983.83,-1311.28
760,-3.8723,0.3167,0.6407,117.43,-1968.14,-1389.40
770,-3.8723,0.3184,0.6411,539.31,-1983.76,-1373.78
780,-3.8723,0.3174,0.6406,758.06,-1936.89,-1358.15
790,-3.8723,0.3145,0.6396,633.06,-1999.39,-1389.40
800,-3.8723,0.3112,0.6387,258.06,1875.61,-1655.03
810,-3.8723,0.3101,0.6373,-163.82,1750.55,1907.47
820,-3.8723,0.3121,0.6361,-304.44,1578.67,1516.85
830,-3.8723,0.3164,0.6344,-38.82,1422.42,1126.22
840,-3.8723,0.3204,0.6327,508.06,1203.74,688.72
850,-3.8723,0.3204,0.6305,1023.68,984.99,266.85
860,-3.8724,0.3157,0.6284,1023.68,703.74,-61.28
870,-3.8724,0.3105,0.6292,414.31,438.11,-373.78
880,-3.8724,0.3091,0.6324,-241.94,531.80,-561.28
890,-3.8724,0.3110,0.6345,-429.44,953.67,-655.03
900,-3.8724,0.3153,0.6337,-179.44,1219.30,-717.53
910,-3.8724,0.3213,0.6309,367.43,1109.99,-748.78
920,-3.8724,0.3258,0.6274,1133.06,750.61,-623.78
930,-3.8724,0.3290,0.6251,1711.18,313.11,-358.15
940,-3.8724,0.3312,0.6257,-1882.57,16.24,-45.65
950,-3.8723,0.3312,0.6290,-1601.32,94.36,329.35
960,-3.8723,0.3291,0.6321,-1601.32,516.24,657.47
970,-3.8723,0.3260,0.6328,-1866.94,906.86,891.85
980,-3.8723,0.3236,0.6316,1742.43,1000.61,1126.22
990,-3.8723,0.3235,0.6307,1429.93,844.36,1423.10
1000,-3.8723,0.3254,0.6307,1414.31,734.99,1813.72
1010,-3.8723,0.3275,0.6306,1664.31,734.99,-1701.90
1020,-3.8723,0.3293,0.6312,1929.93,719.36,-1123.78
1030,-3.8723,0.3314,0.6324,-1835.69,797.49,-764.40
1040,-3.8723,0.3319,0.6332,-1570.07,953.74,-717.53
1050,-3.8723,0.3292,0.6331,-1507.57,1047.49,-748.78
1060,-3.8723,0.3242,0.6316,-1851.32,1031.86,-1014.40
1070,-3.8723,0.3188,0.6289,1508.06,844.36,-1420.65
1080,-3.8723,0.3152,0.6273,820.56,500.61,-1764.40
1090,-3.8723,0.3146,0.6285,351.81,297.49,1969.97
1100,-3.8723,0.3152,0.6306,273.68,453.74,1688.72
1110,-3.8723,0.3151,0.6318,351.81,719.36,1423.10
1120,-3.8723,0.3140,0.6328,336.18,875.61,1407.47
1130,-3.8723,0.3131,0.6342,195.56,1000.61,1469.97
1140,-3.8723,0.3123,0.6357,86.18,1172.49,1282.47
1150,-3.8723,0.3109,0.6361,-23.19,1375.55,1094.97
1160,-3.8723,0.3092,0.6353,-195.07,1422.42,1126.22
1170,-3.8723,0.3081,0.6353,-413.82,1313.05,1141.85
1180,-3.8723,0.3083,0.6360,-554.44,1313.05,1204.35
1190,-3.8723,0.3099,0.6360,-523.19,1406.80,1391.85
1200,-3.8723,0.3135,0.6357,-320.07,1406.80,1610.60
1210,-3.8723,0.3180,0.6355,133.06,1375.61,1844.97
1220,-3.8723,0.3210,0.6351,711.18,1344.36,-1967.53
1230,-3.8723,0.3206,0.6342,1101.81,1297.49,-1998.78
1240,-3.8723,0.3177,0.6321,1039.31,1172.49,1844.97
1250,-3.8723,0.3157,0.6309,679.93,906.86,1844.97
1260,-3.8723,0.3157,0.6321,414.31,750.61,1876.22
1270,-3.8723,0.3175,0.6339,414.31,906.86,1704.35
1280,-3.8723,0.3198,0.6345,648.68,1141.24,1407.47
1290,-3.8723,0.3213,0.6343,945.56,1219.36,1251.22
1300,-3.8723,0.3212,0.6345,1133.06,1188.11,1391.85
1310,-3.8723,0.3209,0.6360,1117.43,1219.36,1719.97
1320,-3.8723,0.3207,0.6376,1086.18,1406.86,1985.60
1330,-3.8723,0.3207,0.6372,1054.93,1609.99,1938.72
1340,-3.8723,0.3215,0.6350,1054.93,1563.11,1673.10
1350,-3.8723,0.3239,0.6327,1164.31,1281.86,1454.35
1360,-3.8723,0.3282,0.6313,1461.18,984.99,1376.22
1370,-3.8723,0.3337,0.6324,-1976.32,813.11,1438.72
1380,-3.8723,0.3376,0.6353,-1273.19,953.74,1485.60
1390,-3.8723,0.3374,0.6373,-773.19,1313.11,1344.97
1400,-3.8723,0.3330,0.6375,-804.44,1578.74,1251.22
1410,-3.8723,0.3281,0.6360,-1366.94,1594.36,1141.85
1420,-3.8723,0.3252,0.6335,-1991.94,1406.86,969.97
1430,-3.8723,0.3230,0.6320,1633.06,1094.36,860.60
1440,-3.8723,0.3198,0.6305,1351.81,891.24,969.97
1450,-3.8723,0.3168,0.6295,945.56,703.74,1329.35
1460,-3.8723,0.3162,0.6309,554.93,578.74,1923.10
1470,-3.8723,0.3174,0.6338,476.81,750.61,-1326.90
1480,-3.8723,0.3181,0.6368,633.06,1125.61,-701.90
1490,-3.8723,0.3169,0.6389,726.81,1516.24,-295.65
1500,-3.8723,0.3145,0.6392,570.56,1781.86,-139.40
1510,-3.8723,0.3135,0.6388,258.06,1813.11,-264.40
1520,-3.8723,0.3148,0.6373,133.06,1766.24,-686.28
1530,-3.8723,0.3160,0.6344,304.93,1578.74,-1186.28
1540,-3.8723,0.3146,0.6324,461.18,1203.74,-1655.03
1550,-3.8723,0.3105,0.6332,273.68,953.74,1954.35
1560,-3.8723,0.3066,0.6351,-241.94,1047.42,1751.22
1570,-3.8723,0.3063,0.6361,-741.94,1297.42,1641.85
1580,-3.8723,0.3109,0.6361,-788.82,1422.42,1516.85
1590,-3.8723,0.3207,0.6345,-195.07,1422.42,1391.85
1600,-3.8723,0.3351,0.6313,1054.93,1219.36,1469.97
1610,-3.8723,0.3483,0.6295,-1101.32,813.11,1688.72
1620,-3.8723,0.3505,0.6281,586.18,578.80,1782.47
1630,-3.8723,0.3390,0.6254,867.43,391.30,1766.85
1640,-3.8723,0.3213,0.6230,-601.32,47.49,1641.85
1650,-3.8723,0.3082,0.6235,1133.06,-249.39,1438.66
1660,-3.8723,0.3058,0.6266,-538.82,-186.95,1298.03
1670,-3.8723,0.3123,0.6298,-851.32,203.67,1501.22
1680,-3.8723,0.3225,0.6321,-23.19,609.92,-1998.78
1690,-3.8723,0.3292,0.6337,1289.31,906.86,-1545.65
1700,-3.8723,0.3281,0.6344,-1851.32,1109.99,-1311.28
1710,-3.8723,0.3198,0.6340,-1991.94,1203.74,-1201.90
1720,-3.8723,0.3090,0.6339,945.56,1156.86,-1389.40
1730,-3.8723,0.3005,0.6342,-445.07,1141.17,-1842.53
1740,-3.8723,0.2969,0.6337,-1523.19,1172.42,1766.85
1750,-3.8723,0.2987,0.6322,-1991.94,1109.92,1485.60
1760,-3.8723,0.3027,0.6312,-1757.57,922.42,1266.85
1770,-3.8723,0.3055,0.6321,-1241.94,797.42,1219.97
1780,-3.8723,0.3059,0.6349,-882.57,906.80,1423.10
1790,-3.8723,0.3044,0.6383,-835.69,1266.17,1610.60
1800,-3.8723,0.3026,0.6411,-1023.19,1703.67,1735.60
1810,-3.8723,0.3004,0.6431,-1257.57,-1936.95,1985.60
1820,-3.8723,0.2986,0.6425,-1538.82,-1686.95,-1873.78
1830,-3.8723,0.2972,0.6398,-1773.19,-1765.08,-1983.15
1840,-3.8723,0.2976,0.6377,-1945.07,1891.17,1766.85
1850,-3.8723,0.3015,0.6373,-1898.19,1625.55,1485.60
1860,-3.8723,0.3070,0.6383,-1398.19,1578.67,1376.22
1870,-3.8723,0.3107,0.6383,-695.07,1703.67,1548.10
1880,-3.8723,0.3116,0.6364,-226.32,1703.67,1766.85
1890,-3.8723,0.3102,0.6342,-101.32,1453.67,1860.60
1900,-3.8723,0.3083,0.6331,-288.82,1172.42,1766.85
1910,-3.8723,0.3074,0.6328,-523.19,1031.80,1579.35
1920,-3.8723,0.3081,0.6332,-648.19,1000.55,1469.97
1930,-3.8723,0.3108,0.6346,-554.44,1047.42,1438.72
1940,-3.8723,0.3138,0.6370,-210.69,1234.92,1423.10
1950,-3.8723,0.3159,0.6376,179.93,1531.86,1469.97
1960,-3.8723,0.3176,0.6361,445.56,1609.99,1641.85
1970,-3.8723,0.3201,0.6342,664.31,1422.49,1891.85
1980,-3.8723,0.3236,0.6324,976.81,1172.49,-1842.53
1990,-3.8723,0.3285,0.6315,1429.93,953.74,-1639.40
2000,-3.8723,0.3336,0.6304,-1945.07,828.74,-1467.53
2010,-3.8723,0.3368,0.6292,-1288.82,688.11,-1420.65
2020,-3.8723,0.3368,0.6281,-882.57,531.86,-1358.15
2030,-3.8723,0.3330,0.6268,-882.57,391.24,-1170.65
2040,-3.8723,0.3274,0.6263,-1366.94,234.99,-967.53
2050,-3.8723,0.3223,0.6272,1914.31,172.49,-842.53
2060,-3.8723,0.3184,0.6290,1258.06,281.86,-920.65
2070,-3.8723,0.3156,0.6311,758.06,516.24,-1217.53
2080,-3.8723,0.3130,0.6343,398.68,781.86,-1420.65
2090,-3.8723,0.3103,0.6384,70.56,1188.11,-1592.53
2100,-3.8723,0.3077,0.6404,-273.19,1719.30,-1936.28
2110,-3.8723,0.3038,0.6399,-601.32,1969.30,1548.10
2120,-3.8723,0.2999,0.6385,-1101.32,1906.80,844.97
2130,-3.8723,0.2993,0.6376,-1601.32,1734.92,329.35
2140,-3.8723,0.3019,0.6362,-1679.44,1609.92,173.10
2150,-3.8723,0.3059,0.6360,-1351.32,1438.05,157.47
2160,-3.8723,0.3097,0.6368,-835.69,1406.80,313.72
2170,-3.8723,0.3120,0.6375,-351.32,1516.17,844.97
2180,-3.8723,0.3120,0.6388,-54.44,1594.30,1516.85
2190,-3.8723,0.3109,0.6415,-54.44,1766.17,-1858.15
2200,-3.8723,0.3096,0.6445,-195.07,-1890.08,-1342.53
2210,-3.8723,0.3081,0.6459,-366.94,-1499.45,-1014.40
2220,-3.8723,0.3081,0.6449,-554.44,-1327.58,-936.28
2230,-3.8723,0.3108,0.6415,-554.44,-1452.58,-1076.90
2240,-3.8723,0.3143,0.6370,-210.69,-1890.08,-1280.03
2250,-3.8723,0.3177,0.6335,242.43,1531.86,-1358.15
2260,-3.8723,0.3199,0.6323,679.93,1094.36,-1451.90
2270,-3.8723,0.3203,0.6329,961.18,938.11,-1639.40
2280,-3.8723,0.3188,0.6335,1008.06,1016.24,-1811.28
2290,-3.8723,0.3169,0.6339,820.56,1094.36,-1983.15
2300,-3.8723,0.3152,0.6340,570.56,1141.24,1782.47
2310,-3.8723,0.3136,0.6329,351.81,1156.86,1501.22
2320,-3.8723,0.3142,0.6306,148.68,1016.24,1251.22
2330,-3.8723,0.3179,0.6281,226.81,719.36,1110.60
2340,-3.8723,0.3219,0.6272,695.56,391.24,1266.85
2350,-3.8723,0.3252,0.6292,1211.18,281.86,1673.10
2360,-3.8723,0.3280,0.6329,1633.06,531.86,1985.60
2370,-3.8723,0.3284,0.6367,1992.43,1016.24,-1967.53
2380,-3.8723,0.3264,0.6376,-1960.69,1500.61,1907.47
2390,-3.8723,0.3236,0.6359,1789.31,1609.99,1735.60
2400,-3.8723,0.3220,0.6346,1429.93,1391.24,1626.22
2410,-3.8723,0.3210,0.6346,1226.81,1234.99,1704.35
2420,-3.8723,0.3186,0.6360,1101.81,1234.99,1938.72
2430,-3.8723,0.3157,0.6388,789.31,1406.86,-1826.90
2440,-3.8723,0.3121,0.6409,414.31,1766.24,-1655.03
2450,-3.8723,0.3079,0.6406,-38.82,-1968.20,-1530.03
2460,-3.8723,0.3051,0.6395,-585.69,-1999.45,-1545.65
2470,-3.8723,0.3066,0.6382,-945.07,1859.92,-1717.53
2480,-3.8723,0.3109,0.6355,-741.94,1688.05,-1842.53
2490,-3.8723,0.3154,0.6324,-195.07,1344.30,-1811.28
2500,-3.8723,0.3188,0.6310,383.06,953.74,-1811.28
2510,-3.8723,0.3198,0.6321,820.56,766.24,-1701.90
2520,-3.8723,0.3181,0.6340,945.56,906.86,-1436.28
2530,-3.8723,0.3153,0.6355,726.81,1156.86,-1280.03
2540,-3.8723,0.3130,0.6367,367.43,1344.36,-1326.90
2550,-3.8723,0.3113,0.6372,70.56,1500.61,-1623.78
2560,-3.8723,0.3102,0.6359,-148.19,1563.05,1985.60
2570,-3.8723,0.3105,0.6337,-288.82,1391.17,1657.47
2580,-3.8723,0.3119,0.6327,-241.94,1109.92,1516.85
2590,-3.8723,0.3129,0.6338,-70.07,984.92,1563.72
2600,-3.8723,0.3126,0.6359,54.93,1125.61,1735.60
2610,-3.8723,0.3102,0.6366,23.68,1391.24,1907.47
2620,-3.8723,0.3070,0.6357,-288.82,1484.92,-1998.78
2630,-3.8723,0.3060,0.6345,-695.07,1375.55,1876.22
2640,-3.8723,0.3085,0.6334,-820.07,1219.30,1641.85
2650,-3.8723,0.3125,0.6324,-507.57,1078.67,1610.60
2660,-3.8723,0.3164,0.6322,8.06,953.74,1813.72
2670,-3.8723,0.3180,0.6328,508.06,922.49,1969.97
2680,-3.8723,0.3171,0.6343,711.18,1000.61,1907.47
2690,-3.8723,0.3147,0.6364,601.81,1188.11,1719.97
2700,-3.8723,0.3123,0.6384,289.31,1453.74,1579.35
2710,-3.8723,0.3107,0.6390,-23.19,1719.30,1501.22
2720,-3.8723,0.3099,0.6377,-226.32,1797.42,1329.35
2730,-3.8723,0.3107,0.6348,-320.07,1625.55,1110.60
2740,-3.8723,0.3136,0.6318,-226.32,1250.55,938.72
2750,-3.8723,0.3171,0.6309,148.68,875.61,829.35
2760,-3.8723,0.3201,0.6326,601.81,750.61,923.10
2770,-3.8723,0.3218,0.6349,976.81,969.36,1219.97
2780,-3.8723,0.3217,0.6357,1195.56,1266.24,1516.85
2790,-3.8723,0.3195,0.6348,1179.93,1375.61,1673.10
2800,-3.8723,0.3163,0.6340,898.68,1250.61,1829.35
2810,-3.8723,0.3147,0.6353,492.43,1156.86,-1920.65
2820,-3.8723,0.3152,0.6365,289.31,1313.11,-1748.78
2830,-3.8723,0.3163,0.6361,351.81,1469.36,-1780.03
2840,-3.8723,0.3173,0.6350,492.43,1422.49,-1936.28
2850,-3.8723,0.3184,0.6355,617.43,1281.86,-1936.28
2860,-3.8723,0.3186,0.6372,758.06,1344.36,-1733.15
2870,-3.8723,0.3174,0.6383,789.31,1563.11,-1467.53
2880,-3.8723,0.3160,0.6378,633.06,1703.74,-1405.03
2890,-3.8723,0.3142,0.6367,461.18,1641.24,-1592.53
2900,-3.8723,0.3114,0.6359,226.81,1500.61,-1967.53
2910,-3.8723,0.3091,0.6351,-132.57,1391.17,1532.47
2920,-3.8723,0.3088,0.6350,-429.44,1297.42,1204.35
2930,-3.8723,0.3108,0.6362,-460.69,1281.80,1298.10
2940,-3.8723,0.3141,0.6394,-210.69,1438.05,1673.10
2950,-3.8723,0.3171,0.6420,211.18,1844.36,-1951.90
2960,-3.8723,0.3184,0.6414,601.81,-1827.51,-1826.90
2970,-3.8723,0.3177,0.6388,758.06,-1905.64,1985.60
2980,-3.8723,0.3168,0.6360,679.93,1766.24,1641.85
2990,-3.8723,0.3165,0.6340,554.93,1406.86,1329.35
3000,-3.8723,0.3171,0.6331,523.68,1156.86,1079.35
3010,-3.8723,0.3180,0.6321,601.81,1031.86,938.72
3020,-3.8723,0.3184,0.6322,711.18,906.86,1001.22
3030,-3.8723,0.3195,0.6331,758.06,922.49,1188.72
3040,-3.8723,0.3206,0.6334,898.68,1031.86,1344.97
3050,-3.8723,0.3210,0.6343,1039.31,1078.74,1391.85
3060,-3.8723,0.3210,0.6351,1101.81,1188.11,1501.22
3070,-3.8723,0.3204,0.6350,1101.81,1297.49,1688.72
3080,-3.8723,0.3198,0.6349,1023.68,1281.86,1860.60
3090,-3.8723,0.3188,0.6357,945.56,1266.24,1891.85
3100,-3.8723,0.3179,0.6378,820.56,1375.61,1907.47
3110,-3.8723,0.3176,0.6394,695.56,1641.24,1938.72
3120,-3.8723,0.3181,0.6393,664.31,1844.36,1798.10
3130,-3.8723,0.3196,0.6384,726.81,1828.74,1423.10
3140,-3.8723,0.3223,0.6370,914.31,1719.36,876.22
3150,-3.8723,0.3253,0.6349,1258.06,1531.86,407.47
3160,-3.8723,0.3259,0.6333,1648.68,1266.24,157.47
3170,-3.8723,0.3225,0.6312,1726.81,1063.11,141.85
3180,-3.8723,0.3169,0.6294,1289.31,797.49,360.60
3190,-3.8723,0.3129,0.6289,570.56,563.11,704.35
3200,-3.8723,0.3123,0.6296,54.93,500.61,1110.60
3210,-3.8723,0.3145,0.6322,-23.19,594.30,1563.72
3220,-3.8723,0.3181,0.6362,258.06,922.49,-1811.28
3230,-3.8723,0.3195,0.6384,726.81,1438.11,-1186.28
3240,-3.8723,0.3181,0.6375,898.68,1719.36,-983.15
3250,-3.8723,0.3171,0.6353,726.81,1594.36,-1186.28
3260,-3.8723,0.3180,0.6329,601.81,1313.11,-1545.65
3270,-3.8723,0.3201,0.6312,711.18,1016.24,-1858.15
3280,-3.8723,0.3207,0.6310,976.81,797.49,-1967.53
3290,-3.8723,0.3192,0.6322,1054.93,766.24,-1905.03
3300,-3.8723,0.3173,0.6353,867.43,922.49,-1764.40
3310,-3.8723,0.3148,0.6383,617.43,1313.11,-1748.78
3320,-3.8723,0.3120,0.6395,304.93,1703.74,-1858.15
3330,-3.8723,0.3120,0.6376,-54.44,1859.92,1891.85
3340,-3.8723,0.3158,0.6332,-54.44,1609.92,1563.72
3350,-3.8723,0.3207,0.6305,429.93,1047.49,1360.60
3360,-3.8723,0.3245,0.6300,1054.93,703.74,1313.72
3370,-3.8723,0.3259,0.6300,1539.31,641.24,1516.85
3380,-3.8723,0.3251,0.6312,1726.81,641.24,1719.97
3390,-3.8723,0.3226,0.6338,1617.43,797.49,1688.72
3400,-3.8723,0.3192,0.6355,1304.93,1125.61,1407.47
3410,-3.8723,0.3156,0.6355,867.43,1344.36,969.97
3420,-3.8723,0.3120,0.6337,398.68,1344.36,673.10
3430,-3.8723,0.3102,0.6317,-54.44,1109.92,688.72
3440,-3.8723,0.3109,0.6317,-288.82,859.92,938.72
3450,-3.8723,0.3137,0.6349,-195.07,859.92,1157.47
3460,-3.8723,0.3175,0.6405,164.31,1266.24,1423.10
3470,-3.8723,0.3197,0.6443,648.68,1984.99,1673.10
3480,-3.8723,0.3180,0.6425,929.93,-1530.64,1782.47
3490,-3.8723,0.3136,0.6371,711.18,-1765.01,1719.97
3500,-3.8723,0.3103,0.6342,148.68,1547.49,1516.85
3510,-3.8723,0.3108,0.6353,-273.19,1172.42,1423.10
3520,-3.8723,0.3138,0.6373,-210.69,1313.05,1579.35
3530,-3.8723,0.3159,0.6384,179.93,1578.74,1813.72
3540,-3.8723,0.3158,0.6375,445.56,1719.36,1954.35
3550,-3.8723,0.3152,0.6351,429.93,1594.36,1860.60
3560,-3.8723,0.3160,0.6328,351.81,1297.49,1719.97
3570,-3.8723,0.3187,0.6310,461.18,1000.61,1657.47
3580,-3.8723,0.3221,0.6304,804.93,766.24,1594.97
3590,-3.8723,0.3242,0.6310,1242.43,688.11,1641.85
3600,-3.8723,0.3243,0.6333,1508.06,766.24,1876.22
3610,-3.8723,0.3234,0.6365,1523.68,1063.11,-1842.53
3620,-3.8723,0.3217,0.6387,1398.68,1469.36,-1826.90
3630,-3.8723,0.3193,0.6383,1179.93,1750.61,1954.35
3640,-3.8723,0.3174,0.6357,883.06,1703.74,1688.72
3650,-3.8723,0.3157,0.6335,633.06,1375.61,1485.60
3660,-3.8723,0.3140,0.6337,414.31,1094.36,1360.60
3670,-3.8723,0.3131,0.6359,195.56,1109.99,1266.85
3680,-3.8723,0.3138,0.6384,86.18,1391.24,1376.22
3690,-3.8723,0.3167,0.6401,179.93,1719.36,1626.22
3700,-3.8723,0.3201,0.6406,539.31,1938.11,1751.22
3710,-3.8723,0.3231,0.6394,976.81,-1999.39,1610.60
3720,-3.8723,0.3257,0.6357,1367.43,1844.36,1266.85
3730,-3.8723,0.3264,0.6298,1695.56,1375.61,829.35
3740,-3.8723,0.3265,0.6250,1789.31,609.99,454.35
3750,-3.8723,0.3280,0.6243,1804.93,0.61,344.97
3760,-3.8723,0.3295,0.6270,1992.43,-93.14,532.41
3770,-3.8723,0.3284,0.6307,-1820.07,250.61,985.60
3780,-3.8723,0.3245,0.6337,-1960.69,734.99,1438.72
3790,-3.8723,0.3193,0.6376,1539.31,1109.99,1751.22
3800,-3.8723,0.3160,0.6407,883.06,1609.99,-1998.78
3810,-3.8723,0.3154,0.6407,461.18,-1983.76,-1920.65
3820,-3.8723,0.3168,0.6383,383.06,-1983.76,1938.72
3830,-3.8723,0.3195,0.6355,554.93,1703.74,1735.60
3840,-3.8723,0.3220,0.6339,898.68,1344.36,1485.60
3850,-3.8723,0.3241,0.6337,1226.81,1141.24,1173.10
3860,-3.8723,0.3258,0.6333,1492.43,1109.99,829.35
3870,-3.8723,0.3259,0.6322,1711.18,1063.11,548.10
3880,-3.8723,0.3241,0.6310,1726.81,922.49,485.60
3890,-3.8723,0.3208,0.6313,1492.43,766.24,766.85
3900,-3.8723,0.3176,0.6348,1070.56,813.11,1266.85
3910,-3.8723,0.3145,0.6383,664.31,1250.61,1798.10
3920,-3.8723,0.3103,0.6405,258.06,1703.74,-1858.15
3930,-3.8723,0.3054,0.6421,-273.19,1984.92,-1733.15
3940,-3.8723,0.3016,0.6431,-898.19,-1811.95,-1842.53
3950,-3.8723,0.3002,0.6417,-1382.57,-1686.95,1782.47
3960,-3.8723,0.3019,0.6376,-1570.07,-1858.83,1454.35
3970,-3.8723,0.3063,0.6337,-1351.32,1609.92,1407.47
3980,-3.8723,0.3112,0.6337,-788.82,1109.92,1704.35
3990,-3.8723,0.3140,0.6364,-163.82,1109.92,-1920.65
4000,-3.8723,0.3125,0.6387,195.56,1453.74,-1655.03
4010,-3.8723,0.3082,0.6396,8.06,1750.61,-1389.40
4020,-3.8723,0.3041,0.6394,-538.82,1875.55,-1217.53
4030,-3.8723,0.3019,0.6384,-1070.07,1844.30,-1139.40
4040,-3.8723,0.3018,0.6373,-1351.32,1719.30,-1092.53
4050,-3.8723,0.3033,0.6367,-1366.94,1578.67,-1092.53
4060,-3.8723,0.3062,0.6362,-1163.82,1500.55,-1108.15
4070,-3.8723,0.3103,0.6361,-804.44,1438.05,-1045.65
4080,-3.8723,0.3147,0.6384,-273.19,1422.42,-1014.40
4090,-3.8723,0.3181,0.6412,289.31,1719.36,-1170.65
4100,-3.8723,0.3201,0.6409,726.81,-1921.26,-1326.90
4110,-3.8723,0.3202,0.6376,976.81,-1968.14,-1405.03
4120,-3.8723,0.3201,0.6335,992.43,1609.99,-1623.78
4130,-3.8723,0.3213,0.6324,976.81,1094.36,-1951.90
4140,-3.8723,0.3229,0.6348,1133.06,953.74,1688.72
4150,-3.8723,0.3235,0.6357,1336.18,1250.61,1407.47
4160,-3.8723,0.3225,0.6335,1414.31,1375.61,1251.22
4170,-3.8723,0.3221,0.6312,1289.31,1094.36,1173.10
4180,-3.8723,0.3240,0.6310,1242.43,797.49,1235.60
4190,-3.8723,0.3267,0.6326,1476.81,766.24,1391.85
4200,-3.8723,0.3275,0.6332,1820.56,969.36,1407.47
4210,-3.8723,0.3258,0.6317,1929.93,1047.49,1157.47
4220,-3.8723,0.3234,0.6304,1711.18,859.99,766.85
4230,-3.8723,0.3208,0.6311,1398.68,688.11,407.47
4240,-3.8723,0.3186,0.6333,1070.56,781.86,282.47
4250,-3.8723,0.3171,0.6353,789.31,1063.11,391.85
4260,-3.8723,0.3162,0.6355,601.81,1313.11,688.72
4270,-3.8723,0.3160,0.6348,476.81,1344.36,1126.22
4280,-3.8723,0.3164,0.6348,461.18,1250.61,1423.10
4290,-3.8723,0.3174,0.6357,508.06,1250.61,1594.97
4300,-3.8723,0.3184,0.6384,633.06,1375.61,1813.72
4310,-3.8723,0.3185,0.6409,758.06,1719.36,-1967.53
4320,-3.8723,0.3168,0.6407,773.68,-1968.14,-1780.03
4330,-3.8723,0.3148,0.6390,554.93,-1983.76,-1623.78
4340,-3.8723,0.3142,0.6371,304.93,1797.49,-1530.03
4350,-3.8723,0.3142,0.6356,226.81,1547.49,-1576.90
4360,-3.8723,0.3143,0.6339,226.81,1359.99,-1733.15
4370,-3.8723,0.3151,0.6323,242.43,1141.24,-1826.90
4380,-3.8723,0.3152,0.6323,336.18,938.11,-1717.53
4390,-3.8723,0.3130,0.6345,351.81,938.11,-1592.53
4400,-3.8723,0.3091,0.6373,70.56,1219.36,-1717.53
4410,-3.8723,0.3051,0.6385,-429.44,1578.67,-1951.90
4420,-3.8723,0.3031,0.6379,-945.07,1734.92,1844.97
4430,-3.8723,0.3058,0.6355,-1195.07,1656.80,1673.10
4440,-3.8723,0.3112,0.6339,-851.32,1344.30,1673.10
4450,-3.8723,0.3149,0.6349,-163.82,1141.17,1751.22
4460,-3.8723,0.3151,0.6362,320.56,1266.24,1735.60
4470,-3.8723,0.3119,0.6367,336.18,1438.11,1751.22
4480,-3.8723,0.3085,0.6376,-70.07,1500.55,1829.35
4490,-3.8723,0.3075,0.6373,-507.57,1609.92,1782.47
4500,-3.8723,0.3093,0.6354,-632.57,1578.67,1626.22
4510,-3.8723,0.3135,0.6342,-398.19,1328.67,1548.10
4520,-3.8723,0.3182,0.6340,133.06,1172.49,1485.60
4530,-3.8723,0.3213,0.6344,742.43,1156.86,1532.47
4540,-3.8723,0.3224,0.6340,1133.06,1203.74,1548.10
4550,-3.8723,0.3217,0.6321,1273.68,1156.86,1516.85
4560,-3.8723,0.3208,0.6309,1179.93,906.86,1485.60
4570,-3.8723,0.3207,0.6313,1070.56,750.61,1376.22
4580,-3.8723,0.3204,0.6323,1054.93,813.11,1251.22
4590,-3.8723,0.3191,0.6324,1023.68,938.11,1266.85
4600,-3.8723,0.3164,0.6323,851.81,953.74,1376.22
4610,-3.8723,0.3145,0.6338,508.06,938.11,1423.10
4620,-3.8723,0.3140,0.6354,258.06,1125.61,1391.85
4630,-3.8723,0.3130,0.6364,195.56,1328.74,1282.47
4640,-3.8723,0.3116,0.6371,70.56,1453.74,1188.72
4650,-3.8723,0.3113,0.6372,-101.32,1547.42,1001.22
4660,-3.8723,0.3108,0.6360,-148.19,1563.05,829.35
4670,-3.8723,0.3114,0.6344,-210.69,1406.80,891.85
4680,-3.8723,0.3135,0.6343,-132.57,1203.67,1016.85
4690,-3.8723,0.3149,0.6351,133.06,1188.11,1141.85
4700,-3.8723,0.3153,0.6365,320.56,1297.49,1282.47
4710,-3.8723,0.3154,0.6372,367.43,1469.36,1219.97
4720,-3.8723,0.3159,0.6351,383.06,1563.11,1141.85
4730,-3.8723,0.3184,0.6316,445.56,1297.49,1188.72
4740,-3.8723,0.3230,0.6294,758.06,844.36,1266.85
4750,-3.8723,0.3263,0.6296,1351.81,563.11,1579.35
4760,-3.8723,0.3250,0.6318,1773.68,594.36,-1936.28
4770,-3.8723,0.3184,0.6344,1601.81,875.61,-1561.28
4780,-3.8723,0.3096,0.6373,758.06,1203.74,-1217.53
4790,-3.8723,0.3026,0.6411,-366.94,1578.67,-1061.28
4800,-3.8723,0.2992,0.6432,-1257.57,-1936.95,-1248.78
4810,-3.8723,0.3003,0.6420,-1695.07,-1671.33,-1530.03
4820,-3.8723,0.3053,0.6400,-1554.44,-1827.58,-1592.53
4830,-3.8723,0.3104,0.6384,-913.82,1922.42,-1498.78
4840,-3.8723,0.3130,0.6379,-257.57,1719.30,-1389.40
4850,-3.8723,0.3140,0.6393,70.56,1656.86,-1233.15
4860,-3.8723,0.3142,0.6411,195.56,1828.74,-1217.53
4870,-3.8723,0.3120,0.6421,226.81,-1936.89,-1342.53
4880,-3.8723,0.3081,0.6406,-54.44,-1811.95,-1514.40
4890,-3.8723,0.3055,0.6375,-554.44,-1999.45,-1733.15
4900,-3.8723,0.3063,0.6349,-882.57,1594.30,-1998.78
4910,-3.8723,0.3113,0.6339,-788.82,1266.17,1704.35
4920,-3.8723,0.3157,0.6349,-148.19,1141.17,1594.97
4930,-3.8723,0.3151,0.6366,414.31,1266.24,1813.72
4940,-3.8723,0.3108,0.6384,336.18,1484.99,-1967.53
4950,-3.8723,0.3054,0.6398,-210.69,1719.30,-1889.40
4960,-3.8723,0.3013,0.6398,-898.19,1891.17,-1936.28
4970,-3.8723,0.2997,0.6381,-1429.44,1891.17,1829.35
4980,-3.8723,0.3013,0.6359,-1632.57,1672.42,1454.35
4990,-3.8723,0.3047,0.6354,-1429.44,1391.17,1094.97
5000,-3.8723,0.3080,0.6366,-991.94,1328.67,1079.35
5010,-3.8723,0.3099,0.6371,-570.07,1484.92,1391.85
5020,-3.8723,0.3103,0.6378,-320.07,1547.42,1641.85
5030,-3.8723,0.3103,0.6379,-273.19,1641.17,1594.97
5040,-3.8723,0.3104,0.6355,-273.19,1656.80,1391.85
5050,-3.8723,0.3110,0.6337,-257.57,1344.30,1407.47
5060,-3.8723,0.3129,0.6351,-179.44,1109.92,1657.47
5070,-3.8723,0.3156,0.6384,54.93,1297.49,-1905.03
5080,-3.8723,0.3170,0.6409,398.68,1719.36,-1545.65
5090,-3.8723,0.3171,0.6418,586.18,-1968.14,-1326.90
5100,-3.8723,0.3165,0.6411,601.81,-1843.14,-1123.78
5110,-3.8723,0.3162,0.6392,523.68,-1936.89,-1201.90
5120,-3.8723,0.3171,0.6367,476.81,1813.11,-1545.65
5130,-3.8723,0.3195,0.6353,601.81,1500.61,-1826.90
5140,-3.8723,0.3239,0.6346,898.68,1313.11,-1967.53
5150,-3.8723,0.3284,0.6343,1461.18,1234.99,1907.47
5160,-3.8723,0.3297,0.6344,-1960.69,1188.11,1735.60
5170,-3.8723,0.3268,0.6349,-1788.82,1203.74,1344.97
5180,-3.8723,0.3202,0.6340,1836.18,1266.24,641.85
5190,-3.8724,0.3140,0.6307,992.43,1156.86,-170.65
5200,-3.8724,0.3149,0.6267,195.56,734.99,-748.78
5210,-3.8724,0.3252,0.6238,320.56,219.36,-1139.40
5220,-3.8724,0.3362,0.6222,1633.06,-155.64,-1217.59
5230,-3.8724,0.3387,0.6230,-960.69,-358.76,-764.47
5240,-3.8723,0.3331,0.6263,-632.57,-249.39,63.66
5250,-3.8723,0.3235,0.6315,-1351.32,172.49,1001.22
5260,-3.8723,0.3145,0.6373,1414.31,828.74,1813.72
5270,-3.8723,0.3083,0.6425,258.06,1578.74,-1576.90
5280,-3.8723,0.3055,0.6449,-523.19,-1765.08,-1092.53
5290,-3.8723,0.3052,0.6437,-882.57,-1452.58,-686.28
5300,-3.8723,0.3070,0.6411,-929.44,-1608.83,-311.28
5310,-3.8723,0.3088,0.6401,-695.07,-1936.95,-14.40
5320,-3.8722,0.3102,0.6414,-460.69,1938.05,219.97
5330,-3.8722,0.3108,0.6428,-288.82,-1905.70,407.47
5340,-3.8722,0.3091,0.6440,-210.69,-1718.20,376.22
5350,-3.8723,0.3062,0.6444,-429.44,-1561.95,-30.03
5360,-3.8723,0.3042,0.6437,-804.44,-1515.08,-670.65
5370,-3.8723,0.3042,0.6416,-1054.44,-1608.83,-1358.15
5380,-3.8723,0.3057,0.6394,-1054.44,-1874.45,-1889.40
5390,-3.8723,0.3079,0.6395,-866.94,1844.30,1876.22
5400,-3.8723,0.3080,0.6415,-585.69,1859.92,1985.60
5410,-3.8723,0.3054,0.6432,-570.07,-1890.08,-1842.53
5420,-3.8723,0.3032,0.6444,-898.19,-1671.33,-1826.90
5430,-3.8723,0.3029,0.6456,-1179.44,-1515.08,-1795.65
5440,-3.8723,0.3036,0.6462,-1226.32,-1358.83,-1748.78
5450,-3.8723,0.3049,0.6444,-1132.57,-1280.70,-1795.65
5460,-3.8723,0.3066,0.6398,-960.69,-1515.08,-1983.15
5470,-3.8723,0.3076,0.6349,-741.94,1891.17,1657.47
5480,-3.8723,0.3082,0.6317,-616.94,1266.17,1360.60
5490,-3.8723,0.3098,0.6310,-538.82,859.92,1266.85
5500,-3.8723,0.3120,0.6317,-335.69,766.17,1313.72
5510,-3.8723,0.3151,0.6338,-54.44,859.92,1454.35
5520,-3.8723,0.3180,0.6349,336.18,1125.61,1563.72
5530,-3.8723,0.3203,0.6333,711.18,1266.24,1423.10
5540,-3.8723,0.3230,0.6307,1008.06,1063.11,1048.10
5550,-3.8723,0.3271,0.6285,1351.81,734.99,657.47
5560,-3.8723,0.3315,0.6276,1883.06,453.74,532.47
5570,-3.8723,0.3341,0.6278,-1554.44,328.74,594.97
5580,-3.8723,0.3346,0.6292,-1226.32,359.99,844.97
5590,-3.8723,0.3329,0.6317,-1163.82,531.86,1141.85
5600,-3.8723,0.3296,0.6342,-1382.57,859.99,1313.72
5610,-3.8723,0.3260,0.6353,-1804.44,1172.49,1344.97
5620,-3.8723,0.3246,0.6348,1742.43,1313.11,1188.72
5630,-3.8723,0.3258,0.6320,1554.93,1250.61,938.72
5640,-3.8723,0.3274,0.6284,1711.18,891.24,704.35
5650,-3.8723,0.3293,0.6268,1914.31,438.11,735.60
5660,-3.8723,0.3304,0.6289,-1835.69,234.99,1032.47
5670,-3.8723,0.3291,0.6343,-1695.07,500.61,1407.47
5680,-3.8723,0.3256,0.6389,-1866.94,1188.11,1626.22
5690,-3.8723,0.3199,0.6401,1679.93,1781.86,1454.35
5700,-3.8723,0.3138,0.6381,961.18,1938.11,1141.85
5710,-3.8723,0.3107,0.6359,179.93,1672.49,954.35
5720,-3.8723,0.3119,0.6357,-226.32,1391.17,923.10
5730,-3.8723,0.3151,0.6362,-70.07,1375.55,1048.10
5740,-3.8723,0.3165,0.6357,336.18,1438.11,1235.60
5750,-3.8723,0.3157,0.6348,523.68,1375.61,1391.85
5760,-3.8723,0.3146,0.6350,414.31,1250.61,1548.10
5770,-3.8723,0.3145,0.6359,273.68,1281.86,1719.97
5780,-3.8723,0.3154,0.6360,258.06,1391.24,1938.72
5790,-3.8723,0.3158,0.6345,383.06,1406.86,-1826.90
5800,-3.8723,0.3145,0.6337,429.93,1219.36,-1655.03
5810,-3.8723,0.3120,0.6364,258.06,1109.99,-1764.40
5820,-3.8723,0.3093,0.6407,-54.44,1453.67,-1936.28
5830,-3.8723,0.3068,0.6431,-398.19,-1983.83,-1842.53
5840,-3.8723,0.3057,0.6431,-726.32,-1686.95,-1608.15
5850,-3.8723,0.3073,0.6418,-866.94,-1686.95,-1483.15
5860,-3.8723,0.3090,0.6405,-663.82,-1843.20,-1451.90
5870,-3.8723,0.3098,0.6392,-445.07,1984.92,-1576.90
5880,-3.8723,0.3107,0.6375,-335.69,1813.05,-1748.78
5890,-3.8723,0.3116,0.6366,-226.32,1594.30,-1780.03
5900,-3.8723,0.3127,0.6354,-101.32,1484.92,-1858.15
5910,-3.8723,0.3138,0.6339,39.31,1328.74,1923.10
5920,-3.8723,0.3162,0.6342,179.93,1141.24,1798.10
5930,-3.8723,0.3193,0.6350,476.81,1172.49,1657.47
5940,-3.8723,0.3204,0.6339,883.06,1281.86,1376.22
5950,-3.8723,0.3196,0.6307,1023.68,1141.24,1032.47
5960,-3.8723,0.3191,0.6281,914.31,734.99,751.22
5970,-3.8723,0.3198,0.6276,851.81,391.24,673.10
5980,-3.8723,0.3214,0.6292,945.56,328.74,829.35
5990,-3.8723,0.3232,0.6311,1148.68,531.86,1016.85
6000,-3.8723,0.3230,0.6324,1383.06,781.86,1251.22
6010,-3.8723,0.3203,0.6337,1351.81,953.74,1532.47
6020,-3.8723,0.3170,0.6337,1008.06,1109.99,1719.97
6030,-3.8723,0.3152,0.6332,586.18,1109.99,1657.47
6040,-3.8723,0.3154,0.6329,351.81,1047.49,1376.22
6050,-3.8723,0.3170,0.6326,383.06,1016.24,1173.10
6060,-3.8723,0.3203,0.6323,586.18,969.36,954.35
6070,-3.8723,0.3235,0.6318,1008.06,938.11,688.72
6080,-3.8723,0.3250,0.6311,1414.31,875.61,641.85
6090,-3.8723,0.3242,0.6305,1601.81,781.86,798.10
6100,-3.8723,0.3213,0.6304,1508.06,703.74,1032.47
6110,-3.8723,0.3180,0.6313,1133.06,688.11,1344.97
6120,-3.8723,0.3160,0.6338,711.18,813.11,1688.72
6130,-3.8723,0.3148,0.6370,461.18,1125.61,-1951.90
6140,-3.8723,0.3134,0.6394,304.93,1531.86,-1670.65
6150,-3.8723,0.3115,0.6399,117.43,1844.36,-1639.40
6160,-3.8723,0.3105,0.6385,-116.94,1906.80,-1764.40
6170,-3.8723,0.3120,0.6368,-241.94,1734.92,-1889.40
6180,-3.8723,0.3152,0.6353,-54.44,1516.17,-1936.28
6190,-3.8723,0.3182,0.6343,351.81,1313.11,-1983.15
6200,-3.8723,0.3193,0.6334,742.43,1188.11,1954.35
6210,-3.8723,0.3180,0.6322,883.06,1078.74,-1998.78
6220,-3.8723,0.3162,0.6331,711.18,922.49,-1905.03
6230,-3.8723,0.3151,0.6367,476.81,1031.86,-1920.65
6240,-3.8723,0.3141,0.6399,336.18,1500.61,1829.35
6250,-3.8723,0.3137,0.6387,211.18,1906.86,1610.60
6260,-3.8723,0.3149,0.6345,164.31,1750.61,1563.72
6270,-3.8723,0.3176,0.6321,320.56,1219.36,1360.60
6280,-3.8723,0.3204,0.6320,664.31,906.86,954.35
6290,-3.8723,0.3221,0.6318,1023.68,891.24,704.35
6300,-3.8723,0.3234,0.6306,1242.43,875.61,860.60
6310,-3.8723,0.3237,0.6292,1398.68,719.36,1219.97
6320,-3.8723,0.3223,0.6301,1445.56,531.86,1423.10
6330,-3.8723,0.3195,0.6335,1258.06,656.86,1485.60
6340,-3.8723,0.3164,0.6357,898.68,1094.36,1532.47
6350,-3.8723,0.3138,0.6357,508.06,1375.61,1516.85
6360,-3.8723,0.3137,0.6359,179.93,1375.61,1360.60
6370,-3.8723,0.3179,0.6368,164.31,1391.24,1141.85
6380,-3.8723,0.3248,0.6371,695.56,1516.24,1032.47
6390,-3.8723,0.3308,0.6351,1586.18,1547.49,1063.72
6400,-3.8723,0.3324,0.6313,-1648.19,1297.49,1126.22
6410,-3.8723,0.3296,0.6281,-1445.07,813.11,1141.85
6420,-3.8723,0.3245,0.6278,-1804.44,391.24,1251.22
6430,-3.8723,0.3188,0.6304,1539.31,359.99,1548.10
6440,-3.8723,0.3142,0.6337,820.56,688.11,1923.10
6450,-3.8723,0.3116,0.6364,226.81,1109.99,-1780.03
6460,-3.8723,0.3116,0.6376,-101.32,1453.67,-1639.40
6470,-3.8723,0.3141,0.6381,-101.32,1609.92,-1592.53
6480,-3.8723,0.3180,0.6385,211.18,1672.49,-1608.15
6490,-3.8723,0.3207,0.6379,711.18,1734.99,-1717.53
6500,-3.8723,0.3210,0.6354,1054.93,1656.86,-1998.78
6510,-3.8723,0.3192,0.6326,1101.81,1328.74,1688.72
6520,-3.8723,0.3162,0.6313,867.43,969.36,1469.97
6530,-3.8723,0.3140,0.6332,476.81,813.11,1438.72
6540,-3.8723,0.3120,0.6371,195.56,1047.49,1516.85
6550,-3.8723,0.3096,0.6399,-54.44,1547.42,1626.22
6560,-3.8723,0.3090,0.6409,-366.94,1906.80,1829.35
6570,-3.8723,0.3107,0.6405,-445.07,-1968.20,-1983.15
6580,-3.8723,0.3129,0.6395,-226.32,1984.92,-1826.90
6590,-3.8723,0.3140,0.6390,54.93,1859.99,-1764.40
6600,-3.8723,0.3120,0.6389,195.56,1797.49,-1920.65
6610,-3.8723,0.3083,0.6377,-54.44,1781.80,1891.85
6620,-3.8723,0.3066,0.6362,-523.19,1625.55,1735.60
6630,-3.8723,0.3082,0.6368,-741.94,1438.05,1548.10
6640,-3.8723,0.3113,0.6376,-538.82,1516.17,1344.97
6650,-3.8723,0.3134,0.6354,-148.19,1609.92,1173.10
6660,-3.8723,0.3142,0.6322,117.43,1328.74,1141.85
6670,-3.8723,0.3156,0.6313,226.81,922.49,1219.97
6680,-3.8723,0.3173,0.6333,398.68,813.11,1360.60
6690,-3.8723,0.3187,0.6357,617.43,1063.11,1501.22
6700,-3.8723,0.3193,0.6370,804.93,1375.61,1688.72
6710,-3.8723,0.3186,0.6365,883.06,1531.86,1844.97
6720,-3.8723,0.3182,0.6346,789.31,1469.36,1844.97
6730,-3.8723,0.3195,0.6328,742.43,1234.99,1626.22
6740,-3.8723,0.3218,0.6328,898.68,1000.61,1438.72
6750,-3.8723,0.3234,0.6337,1195.56,1000.61,1485.60
6760,-3.8723,0.3237,0.6344,1398.68,1109.99,1579.35
6770,-3.8723,0.3229,0.6355,1445.56,1203.74,1594.97
6780,-3.8723,0.3209,0.6367,1336.18,1344.36,1438.72
6790,-3.8723,0.3197,0.6371,1086.18,1500.61,1266.85
6800,-3.8723,0.3197,0.6360,929.93,1547.49,1219.97
6810,-3.8723,0.3191,0.6345,929.93,1406.86,1251.22
6820,-3.8723,0.3179,0.6340,851.81,1219.36,1251.22
6830,-3.8723,0.3173,0.6338,695.56,1156.86,1157.47
6840,-3.8723,0.3179,0.6332,617.43,1125.61,1032.47
6850,-3.8723,0.3186,0.6339,695.56,1047.49,1001.22
6860,-3.8723,0.3181,0.6354,789.31,1141.24,1048.10
6870,-3.8723,0.3159,0.6362,726.81,1328.74,1141.85
6880,-3.8723,0.3130,0.6373,445.56,1438.11,1110.60
6890,-3.8723,0.3101,0.6385,70.56,1578.74,1063.72
6900,-3.8723,0.3079,0.6392,-304.44,1734.92,1157.47
6910,-3.8723,0.3063,0.6398,-585.69,1813.05,1298.10
6920,-3.8723,0.3041,0.6416,-788.82,1891.17,1454.35
6930,-3.8723,0.3029,0.6427,-1070.07,-1874.45,1454.35
6940,-3.8723,0.3041,0.6415,-1226.32,-1733.83,1423.10
6950,-3.8723,0.3079,0.6401,-1070.07,-1890.08,1501.22
6960,-3.8723,0.3123,0.6387,-585.69,1938.05,1657.47
6970,-3.8723,0.3140,0.6378,-23.19,1750.55,1782.47
6980,-3.8723,0.3126,0.6387,195.56,1641.24,1907.47
6990,-3.8723,0.3101,0.6400,23.68,1750.61,-1920.65
7000,-3.8723,0.3083,0.6407,-304.44,1922.42,-1858.15
7010,-3.8723,0.3071,0.6407,-523.19,-1983.83,-1889.40
7020,-3.8723,0.3074,0.6407,-679.44,-1983.83,-1920.65
7030,-3.8723,0.3093,0.6405,-648.19,-1983.83,-1905.03
7040,-3.8723,0.3115,0.6406,-398.19,1984.92,-1889.40
7050,-3.8723,0.3131,0.6410,-116.94,-1999.45,-1889.40
7060,-3.8723,0.3136,0.6406,86.18,-1952.51,-1811.28
7070,-3.8723,0.3137,0.6403,148.68,-1999.39,-1764.40
7080,-3.8723,0.3145,0.6405,164.31,1953.74,-1998.78
7090,-3.8723,0.3163,0.6407,258.06,1984.99,1579.35
7100,-3.8723,0.3186,0.6400,492.43,-1983.76,1344.97
7110,-3.8723,0.3191,0.6378,789.31,1922.49,1266.85
7120,-3.8723,0.3180,0.6350,851.81,1641.24,1188.72
7130,-3.8723,0.3179,0.6343,711.18,1281.86,1173.10
7140,-3.8723,0.3187,0.6366,695.56,1188.11,1251.22
7150,-3.8723,0.3191,0.6401,804.93,1484.99,1454.35
7160,-3.8723,0.3179,0.6425,851.81,1938.11,1501.22
7170,-3.8723,0.3149,0.6427,695.56,-1765.01,1251.22
7180,-3.8723,0.3134,0.6411,320.56,-1733.76,969.97
7190,-3.8723,0.3143,0.6395,117.43,-1936.89,860.60
7200,-3.8723,0.3164,0.6388,242.43,1859.99,876.22
7210,-3.8723,0.3176,0.6377,508.06,1766.24,782.47
7220,-3.8723,0.3162,0.6361,664.31,1625.61,579.35
7230,-3.8723,0.3136,0.6354,476.81,1422.49,485.60
7240,-3.8723,0.3119,0.6368,148.68,1328.74,501.22
7250,-3.8723,0.3108,0.6393,-70.07,1516.17,563.72
7260,-3.8723,0.3103,0.6412,-210.69,1828.67,594.97
7270,-3.8723,0.3099,0.6417,-273.19,-1921.33,641.85
7280,-3.8723,0.3086,0.6418,-320.07,-1858.83,735.60
7290,-3.8723,0.3077,0.6426,-491.94,-1843.20,938.72
7300,-3.8723,0.3080,0.6440,-601.32,-1749.45,1298.10
7310,-3.8723,0.3090,0.6459,-570.07,-1561.95,1735.60
7320,-3.8723,0.3104,0.6471,-445.07,-1327.58,-1873.78
7330,-3.8723,0.3103,0.6473,-257.57,-1171.33,-1608.15
7340,-3.8723,0.3099,0.6473,-273.19,-1140.08,-1405.03
7350,-3.8723,0.3104,0.6472,-320.07,-1140.08,-1295.65
7360,-3.8723,0.3096,0.6467,-257.57,-1155.70,-1342.53
7370,-3.8723,0.3079,0.6456,-366.94,-1218.20,-1420.65
7380,-3.8723,0.3075,0.6445,-585.69,-1358.83,-1436.28
7390,-3.8723,0.3087,0.6437,-632.57,-1499.45,-1420.65
7400,-3.8723,0.3112,0.6425,-476.32,-1608.83,-1467.53
7410,-3.8723,0.3140,0.6410,-163.82,-1765.08,-1780.03
7420,-3.8723,0.3160,0.6390,195.56,-1952.51,1626.22
7430,-3.8723,0.3169,0.6365,461.18,1797.49,1001.22
7440,-3.8723,0.3168,0.6345,570.56,1469.36,469.97
7450,-3.8723,0.3175,0.6342,554.93,1219.36,141.85
7460,-3.8723,0.3186,0.6351,648.68,1172.49,79.35
7470,-3.8723,0.3186,0.6360,789.31,1297.49,16.85
7480,-3.8724,0.3181,0.6366,789.31,1406.86,-14.40
7490,-3.8723,0.3168,0.6373,726.81,1484.99,141.85
7500,-3.8723,0.3143,0.6381,554.93,1578.74,438.72
7510,-3.8723,0.3124,0.6396,242.43,1672.49,766.85
7520,-3.8723,0.3124,0.6417,-7.57,1875.55,1048.10
7530,-3.8723,0.3140,0.6434,-7.57,-1858.83,1188.72
7540,-3.8723,0.3167,0.6428,195.56,-1640.01,1251.22
7550,-3.8723,0.3202,0.6400,539.31,-1718.14,1360.60
7560,-3.8723,0.3239,0.6373,992.43,1922.49,1501.22
7570,-3.8723,0.3260,0.6366,1461.18,1578.74,1688.72
7580,-3.8723,0.3257,0.6376,1742.43,1484.99,1954.35
7590,-3.8723,0.3220,0.6392,1695.56,1609.99,-1842.53
7600,-3.8723,0.3168,0.6412,1226.81,1813.11,-1639.40
7610,-3.8723,0.3129,0.6436,554.93,-1921.26,-1436.28
7620,-3.8723,0.3113,0.6449,54.93,-1624.39,-1405.03
7630,-3.8723,0.3129,0.6442,-148.19,-1452.58,-1561.28
7640,-3.8723,0.3162,0.6422,54.93,-1546.26,-1717.53
7650,-3.8723,0.3191,0.6410,476.81,-1796.26,-1842.53
7660,-3.8723,0.3209,0.6409,851.81,-1952.51,-1889.40
7670,-3.8723,0.3198,0.6410,1086.18,-1968.14,-1842.53
7680,-3.8723,0.3162,0.6410,945.56,-1952.51,-1951.90
7690,-3.8723,0.3123,0.6401,476.81,-1952.51,1735.60
7700,-3.8723,0.3092,0.6387,-23.19,1938.05,1391.85
7710,-3.8723,0.3075,0.6372,-413.82,1750.55,1188.72
7720,-3.8723,0.3082,0.6368,-632.57,1563.05,1079.35
7730,-3.8723,0.3112,0.6382,-538.82,1516.17,938.72
7740,-3.8723,0.3141,0.6399,-163.82,1688.05,876.22
7750,-3.8723,0.3159,0.6418,211.18,1906.86,1001.22
7760,-3.8723,0.3157,0.6431,445.56,-1843.14,1329.35
7770,-3.8723,0.3131,0.6427,414.31,-1686.89,1532.47
7780,-3.8723,0.3098,0.6411,86.18,-1733.76,1313.72
7790,-3.8723,0.3088,0.6403,-335.69,-1936.95,876.22
7800,-3.8723,0.3112,0.6399,-460.69,1953.67,532.47
7810,-3.8723,0.3141,0.6395,-163.82,1906.80,391.85
7820,-3.8723,0.3156,0.6395,211.18,1859.99,376.22
7830,-3.8723,0.3149,0.6407,398.68,1859.99,485.60
7840,-3.8723,0.3123,0.6432,320.56,-1983.76,641.85
7850,-3.8723,0.3099,0.6445,-23.19,-1671.33,798.10
7860,-3.8723,0.3086,0.6442,-320.07,-1499.45,876.22
7870,-3.8723,0.3087,0.6418,-491.94,-1546.33,860.60
7880,-3.8723,0.3096,0.6392,-476.32,-1843.20,751.22
7890,-3.8723,0.3104,0.6371,-366.94,1813.05,751.22
7900,-3.8723,0.3119,0.6371,-257.57,1547.42,1016.85
7910,-3.8723,0.3142,0.6392,-70.07,1547.42,1454.35
7920,-3.8723,0.3173,0.6412,226.81,1813.11,1860.60
7930,-3.8723,0.3201,0.6416,617.43,-1921.26,-1873.78
7940,-3.8723,0.3201,0.6410,976.81,-1874.39,-1780.03
7950,-3.8723,0.3173,0.6403,976.81,-1952.51,-1873.78
7960,-3.8723,0.3145,0.6409,617.43,1953.74,1954.35
7970,-3.8723,0.3135,0.6433,258.06,-1968.14,1751.22
7980,-3.8723,0.3142,0.6448,133.06,-1655.64,1501.22
7990,-3.8723,0.3162,0.6431,226.81,-1468.14,1266.85
8000,-3.8723,0.3181,0.6399,476.81,-1686.89,1266.85
8010,-3.8723,0.3185,0.6381,726.81,1906.86,1407.47
8020,-3.8723,0.3177,0.6388,773.68,1672.49,1579.35
8030,-3.8723,0.3171,0.6407,679.93,1766.24,1844.97
8040,-3.8723,0.3163,0.6411,601.81,-1983.76,-1873.78
8050,-3.8723,0.3154,0.6392,492.43,-1936.89,-1826.90
8060,-3.8723,0.3163,0.6373,383.06,1813.11,1891.85
8070,-3.8723,0.3192,0.6381,492.43,1578.74,1469.97
8080,-3.8723,0.3225,0.6390,867.43,1672.49,1048.10
8090,-3.8723,0.3241,0.6371,1289.31,1797.49,673.10
8100,-3.8723,0.3251,0.6342,1492.43,1547.49,485.60
8110,-3.8723,0.3269,0.6337,1617.43,1172.49,610.60
8120,-3.8723,0.3276,0.6359,1851.81,1109.99,844.97
8130,-3.8723,0.3246,0.6392,1945.56,1391.24,1110.60
8140,-3.8723,0.3185,0.6425,1554.93,1813.11,1407.47
8150,-3.8723,0.3118,0.6453,773.68,-1765.01,1548.10
8160,-3.8723,0.3075,0.6467,-85.69,-1405.70,1469.97
8170,-3.8723,0.3073,0.6464,-632.57,-1218.20,1235.60
8180,-3.8723,0.3104,0.6440,-663.82,-1265.08,954.35
8190,-3.8723,0.3147,0.6410,-257.57,-1561.95,954.35
8200,-3.8723,0.3191,0.6385,289.31,-1952.51,1298.10
8210,-3.8723,0.3228,0.6373,851.81,1734.99,1688.72
8220,-3.8723,0.3230,0.6373,1320.56,1578.74,1876.22
8230,-3.8723,0.3204,0.6383,1351.81,1578.74,1719.97
8240,-3.8723,0.3168,0.6388,1023.68,1703.74,1188.72
8250,-3.8723,0.3137,0.6375,554.93,1766.24,407.47
8260,-3.8724,0.3131,0.6354,164.31,1594.36,-248.78
8270,-3.8724,0.3143,0.6335,86.18,1328.74,-545.65
8280,-3.8724,0.3170,0.6333,242.43,1094.36,-436.28
8290,-3.8723,0.3195,0.6348,586.18,1063.11,1.22
8300,-3.8723,0.3198,0.6375,898.68,1250.61,516.85
8310,-3.8723,0.3188,0.6407,945.56,1594.36,985.60
8320,-3.8723,0.3179,0.6429,820.56,-1983.76,1329.35
8330,-3.8723,0.3165,0.6427,695.56,-1702.51,1579.35
8340,-3.8723,0.3164,0.6400,523.68,-1733.76,1704.35
8350,-3.8723,0.3182,0.6368,508.06,1922.49,1735.60
8360,-3.8723,0.3206,0.6350,742.43,1516.24,1704.35
8370,-3.8723,0.3218,0.6343,1039.31,1281.86,1579.35
8380,-3.8723,0.3221,0.6332,1195.56,1188.11,1469.97
8390,-3.8723,0.3221,0.6313,1242.43,1047.49,1188.72
8400,-3.8723,0.3218,0.6294,1242.43,813.11,813.72
8410,-3.8723,0.3219,0.6293,1195.56,563.11,548.10
8420,-3.8723,0.3236,0.6307,1211.18,547.49,438.72
8430,-3.8723,0.3250,0.6329,1429.93,734.99,532.47
8440,-3.8723,0.3234,0.6359,1601.81,1016.24,782.47
8450,-3.8723,0.3187,0.6382,1398.68,1391.24,1157.47
8460,-3.8723,0.3131,0.6404,804.93,1688.11,1454.35
8470,-3.8723,0.3091,0.6426,86.18,1969.36,1344.97
8480,-3.8723,0.3070,0.6427,-429.44,-1749.45,938.72
8490,-3.8723,0.3076,0.6406,-695.07,-1733.83,610.60
8500,-3.8723,0.3097,0.6376,-616.94,-1999.45,438.72
8510,-3.8723,0.3121,0.6348,-351.32,1609.92,266.85
8520,-3.8723,0.3137,0.6338,-38.82,1250.55,204.35
8530,-3.8723,0.3135,0.6357,164.31,1125.61,313.72
8540,-3.8723,0.3115,0.6388,133.06,1375.61,532.47
8550,-3.8723,0.3094,0.6417,-116.94,1766.17,766.85
8560,-3.8723,0.3083,0.6433,-382.57,-1858.83,954.35
8570,-3.8723,0.3091,0.6425,-523.19,-1655.70,1126.22
8580,-3.8723,0.3114,0.6407,-429.44,-1765.08,1157.47
8590,-3.8723,0.3142,0.6400,-132.57,-1983.83,1063.72
8600,-3.8723,0.3173,0.6396,226.81,1922.49,1157.47
8610,-3.8723,0.3196,0.6390,617.43,1875.61,1282.47
8620,-3.8723,0.3206,0.6382,914.31,1797.49,1360.60
8630,-3.8723,0.3206,0.6382,1039.31,1688.11,1579.35
8640,-3.8723,0.3192,0.6392,1039.31,1688.11,1798.10
8650,-3.8723,0.3167,0.6406,867.43,1813.11,1938.72
8660,-3.8723,0.3146,0.6418,539.31,-1999.39,-1873.78
8670,-3.8723,0.3140,0.6427,273.68,-1843.14,-1592.53
8680,-3.8723,0.3151,0.6428,195.56,-1733.76,-1373.78
8690,-3.8723,0.3175,0.6425,336.18,-1718.14,-1436.28
8700,-3.8723,0.3201,0.6416,648.68,-1765.01,-1748.78
8710,-3.8723,0.3214,0.6389,976.81,-1874.39,1844.97
8720,-3.8723,0.3219,0.6354,1148.68,1781.86,1360.60
8730,-3.8723,0.3224,0.6329,1211.18,1328.74,954.35
8740,-3.8723,0.3237,0.6335,1273.68,1016.24,719.97
8750,-3.8723,0.3246,0.6371,1445.56,1094.36,641.85
8760,-3.8723,0.3225,0.6398,1554.93,1547.49,548.10
8770,-3.8723,0.3181,0.6403,1289.31,1891.24,235.60
8780,-3.8723,0.3142,0.6396,726.81,1953.74,1.22
8790,-3.8723,0.3124,0.6395,226.81,1875.61,63.72
8800,-3.8723,0.3131,0.6409,-7.57,1859.92,266.85
8810,-3.8723,0.3154,0.6425,86.18,-1968.14,516.85
8820,-3.8723,0.3168,0.6425,383.06,-1765.01,704.35
8830,-3.8723,0.3168,0.6410,554.93,-1765.01,813.72
8840,-3.8723,0.3167,0.6399,554.93,-1952.51,969.97
8850,-3.8723,0.3163,0.6394,539.31,1906.86,1110.60
8860,-3.8723,0.3156,0.6390,492.43,1844.36,1126.22
8870,-3.8723,0.3154,0.6398,398.68,1797.49,1094.97
8880,-3.8723,0.3163,0.6412,383.06,1891.24,1063.72
8890,-3.8723,0.3169,0.6429,492.43,-1921.26,1094.97
8900,-3.8723,0.3174,0.6436,570.56,-1702.51,1235.60
8910,-3.8723,0.3179,0.6429,633.06,-1624.39,1391.85
8920,-3.8723,0.3180,0.6431,695.56,-1702.51,1454.35
8930,-3.8723,0.3180,0.6431,711.18,-1686.89,1485.60
8940,-3.8723,0.3185,0.6431,711.18,-1686.89,1501.22
8950,-3.8723,0.3186,0.6422,773.68,-1686.89,1469.97
8960,-3.8723,0.3181,0.6416,789.31,-1796.26,1282.47
8970,-3.8723,0.3185,0.6410,726.81,-1874.39,969.97
8980,-3.8723,0.3196,0.6401,773.68,-1952.51,516.85
8990,-3.8723,0.3203,0.6396,914.31,1938.11,1.22
9000,-3.8724,0.3217,0.6387,1008.06,1875.61,-389.40
9010,-3.8724,0.3231,0.6367,1179.93,1750.61,-655.03
9020,-3.8724,0.3235,0.6339,1367.43,1500.61,-811.28
9030,-3.8724,0.3220,0.6316,1414.31,1141.24,-717.53
9040,-3.8724,0.3186,0.6311,1226.81,844.36,-467.53
9050,-3.8724,0.3149,0.6339,789.31,781.86,-61.28
9060,-3.8723,0.3121,0.6403,320.56,1141.24,532.47
9070,-3.8723,0.3105,0.6467,-38.82,1953.67,1141.85
9080,-3.8723,0.3109,0.6505,-241.94,-1218.20,1782.47
9090,-3.8723,0.3113,0.6510,-195.07,-733.83,-1701.90
9100,-3.8723,0.3108,0.6487,-148.19,-671.33,-1420.65
9110,-3.8723,0.3119,0.6458,-210.69,-968.20,-1342.53
9120,-3.8723,0.3157,0.6436,-70.07,-1343.20,-1514.40
9130,-3.8723,0.3203,0.6426,414.31,-1624.39,-1826.90
9140,-3.8723,0.3231,0.6414,1008.06,-1749.39,1923.10
9150,-3.8723,0.3241,0.6399,1367.43,-1905.64,1844.97
9160,-3.8723,0.3229,0.6392,1492.43,1906.86,1798.10
9170,-3.8723,0.3193,0.6394,1336.18,1813.11,1907.47
9180,-3.8723,0.3156,0.6411,883.06,1844.36,-1748.78
9190,-3.8723,0.3119,0.6439,398.68,-1936.89,-1545.65
9200,-3.8723,0.3087,0.6459,-70.07,-1577.58,-1639.40
9210,-3.8723,0.3073,0.6464,-476.32,-1327.58,-1983.15
9220,-3.8723,0.3073,0.6450,-663.82,-1265.08,1673.10
9230,-3.8723,0.3090,0.6427,-663.82,-1436.95,1391.85
9240,-3.8723,0.3115,0.6409,-445.07,-1733.83,1094.97
9250,-3.8723,0.3134,0.6410,-116.94,-1968.20,876.22
9260,-3.8723,0.3136,0.6429,117.43,-1952.51,735.60
9270,-3.8723,0.3112,0.6451,148.68,-1702.51,548.10
9280,-3.8723,0.3063,0.6461,-163.82,-1421.33,344.97
9290,-3.8723,0.3021,0.6454,-788.82,-1296.33,157.47
9300,-3.8724,0.3016,0.6440,-1320.07,-1390.08,-201.90
9310,-3.8724,0.3055,0.6426,-1382.57,-1561.95,-592.53
9320,-3.8724,0.3118,0.6416,-882.57,-1749.45,-795.65
9330,-3.8724,0.3175,0.6412,-85.69,-1874.45,-764.40
9340,-3.8724,0.3206,0.6411,648.68,-1921.26,-451.90
9350,-3.8723,0.3191,0.6418,1039.31,-1936.89,16.85
9360,-3.8723,0.3148,0.6429,851.81,-1843.14,313.72
9370,-3.8723,0.3116,0.6437,304.93,-1702.51,469.97
9380,-3.8723,0.3118,0.6443,-101.32,-1608.83,688.72
9390,-3.8723,0.3138,0.6449,-85.69,-1530.70,938.72
9400,-3.8723,0.3156,0.6459,179.93,-1452.51,1188.72
9410,-3.8723,0.3167,0.6471,398.68,-1327.51,1344.97
9420,-3.8723,0.3162,0.6481,539.31,-1171.26,1485.60
9430,-3.8723,0.3145,0.6473,476.81,-1046.26,1673.10
9440,-3.8723,0.3137,0.6453,258.06,-1140.01,1813.72
9450,-3.8723,0.3160,0.6444,164.31,-1405.64,1782.47
9460,-3.8723,0.3196,0.6437,461.18,-1515.01,1719.97
9470,-3.8723,0.3199,0.6422,914.31,-1608.76,1610.60
9480,-3.8723,0.3170,0.6405,961.18,-1796.26,1407.47
9490,-3.8723,0.3142,0.6414,586.18,1984.99,1282.47
9500,-3.8723,0.3146,0.6448,226.81,-1905.64,1266.85
9510,-3.8723,0.3165,0.6475,273.68,-1468.14,1298.10
9520,-3.8723,0.3171,0.6477,523.68,-1124.39,1235.60
9530,-3.8723,0.3151,0.6455,601.81,-1093.14,1188.72
9540,-3.8723,0.3109,0.6434,336.18,-1374.39,1266.85
9550,-3.8723,0.3083,0.6442,-195.07,-1640.08,1251.22
9560,-3.8723,0.3092,0.6477,-523.19,-1546.33,1063.72
9570,-3.8723,0.3102,0.6499,-413.82,-1093.20,844.97
9580,-3.8723,0.3094,0.6492,-288.82,-811.95,735.60
9590,-3.8723,0.3091,0.6476,-382.57,-905.70,782.47
9600,-3.8723,0.3092,0.6464,-429.44,-1108.83,876.22
9610,-3.8723,0.3096,0.6454,-413.82,-1265.08,891.85
9620,-3.8723,0.3097,0.6437,-366.94,-1390.08,766.85
9630,-3.8723,0.3092,0.6417,-351.32,-1608.83,485.60
9640,-3.8723,0.3083,0.6410,-413.82,-1858.83,219.97
9650,-3.8723,0.3090,0.6431,-523.19,-1952.58,32.47
9660,-3.8724,0.3113,0.6458,-445.07,-1686.95,-170.65
9670,-3.8724,0.3141,0.6469,-148.19,-1343.20,-217.53
9680,-3.8724,0.3153,0.6464,211.18,-1202.51,-295.65
9690,-3.8724,0.3143,0.6447,367.43,-1265.01,-545.65
9700,-3.8724,0.3134,0.6426,242.43,-1483.76,-889.40
9710,-3.8724,0.3137,0.6414,117.43,-1749.39,-1014.40
9720,-3.8724,0.3159,0.6422,164.31,-1905.64,-592.53
9730,-3.8723,0.3179,0.6448,445.56,-1796.26,48.10
9740,-3.8723,0.3168,0.6475,695.56,-1468.14,563.72
9750,-3.8723,0.3136,0.6506,554.93,-1124.39,1048.10
9760,-3.8723,0.3112,0.6536,148.68,-718.14,1454.35
9770,-3.8723,0.3103,0.6534,-163.82,-343.20,1735.60
9780,-3.8723,0.3112,0.6510,-273.19,-358.83,1891.85
9790,-3.8723,0.3135,0.6479,-163.82,-671.33,1923.10
9800,-3.8723,0.3157,0.6448,133.06,-1061.89,-1920.65
9810,-3.8723,0.3159,0.6423,414.31,-1468.14,-1701.90
9820,-3.8723,0.3147,0.6423,445.56,-1780.64,-1530.03
9830,-3.8723,0.3126,0.6445,289.31,-1780.64,-1373.78
9840,-3.8723,0.3092,0.6467,23.68,-1499.39,-1451.90
9850,-3.8723,0.3058,0.6487,-413.82,-1218.20,-1826.90
9860,-3.8723,0.3048,0.6493,-851.32,-968.20,1766.85
9870,-3.8723,0.3070,0.6477,-976.32,-890.08,1563.72
9880,-3.8723,0.3110,0.6451,-695.07,-1093.20,1438.72
9890,-3.8723,0.3141,0.6421,-179.44,-1421.33,1313.72
9900,-3.8723,0.3149,0.6404,211.18,-1811.89,1282.47
9910,-3.8723,0.3143,0.6401,320.56,1969.36,1141.85
9920,-3.8723,0.3113,0.6404,242.43,1938.11,829.35
9930,-3.8723,0.3088,0.6410,-148.19,1969.30,407.47
9940,-3.8723,0.3101,0.6428,-460.69,-1952.58,16.85
9950,-3.8724,0.3138,0.6442,-304.44,-1718.20,-280.03
9960,-3.8724,0.3184,0.6443,179.93,-1546.26,-483.15
9970,-3.8724,0.3236,0.6432,758.06,-1530.64,-514.40
9980,-3.8724,0.3284,0.6412,1429.93,-1671.26,-248.78
9990,-3.8723,0.3319,0.6395,-1960.69,-1921.26,251.22
10000,-3.8723,0.3324,0.6388,-1507.57,1859.99,735.60
10010,-3.8723,0.3298,0.6388,-1445.07,1766.24,860.60
10020,-3.8723,0.3264,0.6396,-1773.19,1766.24,626.22
10030,-3.8723,0.3236,0.6411,1789.31,1875.61,219.97
10040,-3.8724,0.3226,0.6427,1429.93,-1936.89,-217.53
10050,-3.8724,0.3235,0.6450,1304.93,-1733.76,-373.78
10060,-3.8724,0.3217,0.6475,1414.31,-1436.89,-61.28
10070,-3.8723,0.3165,0.6483,1179.93,-1124.39,438.72
10080,-3.8723,0.3118,0.6486,523.68,-1015.01,829.35
10090,-3.8723,0.3091,0.6497,-85.69,-983.83,1094.97
10100,-3.8723,0.3077,0.6512,-429.44,-843.20,1313.72
10110,-3.8723,0.3064,0.6522,-601.32,-640.08,1688.72
10120,-3.8723,0.3040,0.6523,-773.19,-515.08,-1889.40
10130,-3.8723,0.3008,0.6527,-1085.69,-499.45,-1623.78
10140,-3.8723,0.2982,0.6531,-1491.94,-452.58,-1717.53
10150,-3.8723,0.2969,0.6526,-1820.07,-405.70,-1983.15
10160,-3.8723,0.2964,0.6512,-1991.94,-468.20,1751.22
10170,-3.8723,0.2980,0.6498,1945.56,-640.08,1469.97
10180,-3.8723,0.3011,0.6482,-1851.32,-827.58,1266.85
10190,-3.8723,0.3048,0.6466,-1445.07,-1030.70,1298.10
10200,-3.8723,0.3071,0.6459,-976.32,-1233.83,1423.10
10210,-3.8723,0.3073,0.6462,-679.44,-1327.58,1469.97
10220,-3.8723,0.3068,0.6469,-663.82,-1280.70,1423.10
10230,-3.8723,0.3046,0.6475,-726.32,-1202.58,1063.72
10240,-3.8723,0.3009,0.6476,-1007.57,-1124.45,673.10
10250,-3.8723,0.2999,0.6470,-1476.32,-1108.83,469.97
10260,-3.8723,0.3037,0.6459,-1601.32,-1186.95,329.35
10270,-3.8723,0.3112,0.6447,-1116.94,-1327.58,173.10
10280,-3.8723,0.3186,0.6439,-163.82,-1483.83,79.35
10290,-3.8723,0.3225,0.6428,789.31,-1577.51,63.72
10300,-3.8723,0.3231,0.6416,1289.31,-1718.14,48.10
10310,-3.8724,0.3212,0.6411,1367.43,-1874.39,-61.28
10320,-3.8724,0.3181,0.6412,1117.43,-1936.89,-264.40
10330,-3.8724,0.3176,0.6422,726.81,-1921.26,-311.28
10340,-3.8724,0.3193,0.6440,664.31,-1796.26,-45.65
10350,-3.8723,0.3212,0.6467,883.06,-1561.89,454.35
10360,-3.8723,0.3228,0.6497,1117.43,-1218.14,923.10
10370,-3.8723,0.3226,0.6504,1320.56,-843.14,1157.47
10380,-3.8723,0.3206,0.6492,1304.93,-749.39,1235.60
10390,-3.8723,0.3177,0.6473,1039.31,-905.64,1204.35
10400,-3.8723,0.3164,0.6465,679.93,-1140.01,1110.60
10410,-3.8723,0.3175,0.6461,508.06,-1249.39,1016.85
10420,-3.8723,0.3206,0.6451,648.68,-1296.26,844.97
10430,-3.8723,0.3239,0.6444,1039.31,-1421.26,516.85
10440,-3.8723,0.3245,0.6426,1461.18,-1515.01,313.72
10450,-3.8723,0.3230,0.6395,1539.31,-1749.39,235.60
10460,-3.8723,0.3215,0.6390,1351.81,1859.99,313.72
10470,-3.8723,0.3207,0.6416,1164.31,1797.49,407.47
10480,-3.8723,0.3193,0.6448,1054.93,-1874.39,344.97
10490,-3.8723,0.3171,0.6465,883.06,-1468.14,141.85
10500,-3.8724,0.3156,0.6451,601.81,-1249.39,-61.28
10510,-3.8724,0.3167,0.6426,398.68,-1421.26,-76.90
10520,-3.8724,0.3197,0.6404,539.31,-1749.39,-30.03
10530,-3.8723,0.3220,0.6396,929.93,1969.36,63.72
10540,-3.8723,0.3214,0.6405,1226.81,1875.61,313.72
10550,-3.8723,0.3180,0.6422,1148.68,1984.99,532.47
10560,-3.8723,0.3127,0.6443,711.18,-1796.26,673.10
10570,-3.8723,0.3075,0.6467,39.31,-1530.64,751.22
10580,-3.8723,0.3044,0.6492,-632.57,-1218.20,782.47
10590,-3.8723,0.3051,0.6500,-1023.19,-905.70,860.60
10600,-3.8723,0.3083,0.6484,-945.07,-796.33,938.72
10610,-3.8723,0.3124,0.6456,-523.19,-999.45,1016.85
10620,-3.8723,0.3164,0.6438,-7.57,-1358.83,1188.72
10630,-3.8723,0.3187,0.6434,508.06,-1593.14,1438.72
10640,-3.8723,0.3177,0.6448,804.93,-1640.01,1532.47
10650,-3.8723,0.3143,0.6459,679.93,-1468.14,1516.85
10660,-3.8723,0.3108,0.6460,242.43,-1327.51,1313.72
10670,-3.8723,0.3081,0.6453,-210.69,-1311.95,954.35
10680,-3.8723,0.3069,0.6436,-554.44,-1405.70,657.47
10690,-3.8723,0.3083,0.6405,-710.69,-1624.45,407.47
10700,-3.8723,0.3121,0.6377,-523.19,1984.92,79.35
10710,-3.8724,0.3165,0.6367,-38.82,1625.55,-233.15
10720,-3.8724,0.3203,0.6387,523.68,1500.61,-389.40
10730,-3.8724,0.3223,0.6414,1008.06,1750.61,-358.15
10740,-3.8724,0.3204,0.6428,1258.06,-1905.64,-92.53
10750,-3.8723,0.3164,0.6428,1023.68,-1718.14,204.35
10760,-3.8723,0.3131,0.6415,508.06,-1718.14,407.47
10770,-3.8723,0.3118,0.6407,86.18,-1890.01,501.22
10780,-3.8723,0.3132,0.6418,-85.69,-1983.83,673.10
10790,-3.8723,0.3164,0.6438,101.81,-1843.14,829.35
10800,-3.8723,0.3197,0.6443,508.06,-1593.14,829.35
10810,-3.8723,0.3221,0.6429,929.93,-1530.64,798.10
10820,-3.8723,0.3229,0.6412,1242.43,-1702.51,876.22
10830,-3.8723,0.3217,0.6406,1336.18,-1921.26,1032.47
10840,-3.8723,0.3191,0.6407,1179.93,-1999.39,954.35
10850,-3.8723,0.3164,0.6410,851.81,-1983.76,657.47
10860,-3.8723,0.3148,0.6417,508.06,-1952.51,298.10
10870,-3.8723,0.3146,0.6428,304.93,-1858.76,1.22
10880,-3.8724,0.3146,0.6443,273.68,-1718.14,-61.28
10890,-3.8724,0.3135,0.6454,273.68,-1530.64,-30.03
10900,-3.8723,0.3124,0.6459,133.06,-1390.01,110.60
10910,-3.8723,0.3120,0.6465,-7.57,-1327.58,360.60
10920,-3.8723,0.3118,0.6469,-54.44,-1249.45,579.35
10930,-3.8723,0.3104,0.6469,-85.69,-1202.58,579.35
10940,-3.8723,0.3098,0.6459,-257.57,-1202.58,360.60
10950,-3.8723,0.3114,0.6447,-335.69,-1327.58,204.35
10960,-3.8723,0.3137,0.6439,-132.57,-1483.83,235.60
10970,-3.8723,0.3157,0.6431,164.31,-1577.51,344.97
10980,-3.8723,0.3169,0.6423,414.31,-1686.89,423.10
10990,-3.8723,0.3185,0.6418,570.56,-1780.64,485.60
11000,-3.8723,0.3204,0.6411,773.68,-1843.14,563.72
11010,-3.8723,0.3210,0.6407,1023.68,-1936.89,766.85
11020,-3.8723,0.3197,0.6415,1101.81,-1983.76,1048.10
11030,-3.8723,0.3169,0.6440,929.93,-1890.01,1360.60
11040,-3.8723,0.3135,0.6470,570.56,-1561.89,1563.72
11050,-3.8723,0.3104,0.6484,133.06,-1186.89,1501.22
11060,-3.8723,0.3099,0.6488,-257.57,-999.45,1407.47
11070,-3.8723,0.3110,0.6484,-320.07,-952.58,1391.85
11080,-3.8723,0.3124,0.6473,-179.44,-999.45,1329.35
11090,-3.8723,0.3140,0.6459,-7.57,-1140.08,1204.35
11100,-3.8723,0.3154,0.6450,195.56,-1327.51,1079.35
11110,-3.8723,0.3170,0.6453,383.06,-1436.89,969.97
11120,-3.8723,0.3179,0.6445,586.18,-1405.64,938.72
11130,-3.8723,0.3186,0.6434,695.56,-1499.39,938.72
11140,-3.8723,0.3188,0.6437,789.31,-1640.01,907.47
11150,-3.8723,0.3176,0.6436,820.56,-1608.76,829.35
11160,-3.8723,0.3157,0.6426,664.31,-1624.39,751.22
11170,-3.8723,0.3148,0.6428,414.31,-1749.39,657.47
11180,-3.8723,0.3152,0.6447,304.93,-1718.14,563.72
11190,-3.8723,0.3156,0.6479,351.81,-1483.76,610.60
11200,-3.8723,0.3154,0.6511,398.68,-1061.89,673.10
11210,-3.8723,0.3138,0.6510,383.06,-655.64,735.60
11220,-3.8723,0.3101,0.6481,179.93,-671.26,829.35
11230,-3.8723,0.3063,0.6455,-304.44,-1046.33,860.60
11240,-3.8723,0.3060,0.6449,-788.82,-1374.45,907.47
11250,-3.8723,0.3087,0.6449,-820.07,-1452.58,891.85
11260,-3.8723,0.3123,0.6450,-476.32,-1452.58,813.72
11270,-3.8723,0.3149,0.6453,-23.19,-1436.95,766.85
11280,-3.8723,0.3153,0.6450,320.56,-1405.64,641.85
11290,-3.8723,0.3145,0.6442,367.43,-1436.89,360.60
11300,-3.8724,0.3151,0.6432,258.06,-1546.26,-123.78
11310,-3.8724,0.3174,0.6418,336.18,-1671.26,-576.90
11320,-3.8724,0.3190,0.6396,633.06,-1843.14,-717.53
11330,-3.8724,0.3196,0.6384,836.18,1875.61,-576.90
11340,-3.8724,0.3192,0.6403,914.31,1719.36,-233.15
11350,-3.8723,0.3173,0.6450,867.43,1953.74,235.60
11360,-3.8723,0.3142,0.6501,617.43,-1436.89,813.72
11370,-3.8723,0.3118,0.6541,226.81,-780.64,1313.72
11380,-3.8723,0.3107,0.6565,-85.69,-280.70,1688.72
11390,-3.8723,0.3112,0.6555,-226.32,31.80,1970.03
11400,-3.8723,0.3134,0.6519,-163.82,-93.20,-1858.15
11410,-3.8723,0.3160,0.6473,117.43,-561.89,-1858.15
11420,-3.8723,0.3186,0.6434,461.18,-1140.01,-1983.15
11430,-3.8723,0.3221,0.6409,789.31,-1640.01,1876.22
11440,-3.8723,0.3239,0.6401,1242.43,-1968.14,1688.72
11450,-3.8723,0.3219,0.6421,1461.18,1938.11,1501.22
11460,-3.8723,0.3181,0.6447,1211.18,-1811.89,1204.35
11470,-3.8723,0.3134,0.6444,726.81,-1483.76,844.97
11480,-3.8723,0.3091,0.6420,117.43,-1515.01,579.35
11490,-3.8723,0.3086,0.6396,-429.44,-1827.58,407.47
11500,-3.8723,0.3116,0.6393,-491.94,1875.55,282.47
11510,-3.8723,0.3145,0.6418,-101.32,1828.67,344.97
11520,-3.8723,0.3147,0.6442,258.06,-1843.14,469.97
11530,-3.8723,0.3130,0.6448,289.31,-1546.26,423.10
11540,-3.8723,0.3112,0.6450,70.56,-1468.14,282.47
11550,-3.8723,0.3103,0.6445,-163.82,-1436.95,63.72
11560,-3.8723,0.3105,0.6433,-273.19,-1499.45,79.35
11570,-3.8723,0.3113,0.6423,-241.94,-1655.70,423.10
11580,-3.8723,0.3124,0.6422,-148.19,-1780.70,735.60
11590,-3.8723,0.3125,0.6429,-7.57,-1796.33,923.10
11600,-3.8723,0.3113,0.6442,8.06,-1702.51,1063.72
11610,-3.8723,0.3097,0.6454,-148.19,-1546.33,1141.85
11620,-3.8723,0.3090,0.6462,-351.32,-1390.08,1032.47
11630,-3.8723,0.3092,0.6460,-445.07,-1280.70,844.97
11640,-3.8723,0.3099,0.6449,-413.82,-1311.95,594.97
11650,-3.8723,0.3116,0.6437,-320.07,-1452.58,344.97
11660,-3.8723,0.3142,0.6428,-101.32,-1608.83,141.85
11670,-3.8723,0.3149,0.6425,226.81,-1718.14,157.47
11680,-3.8723,0.3134,0.6426,320.56,-1765.01,329.35
11690,-3.8723,0.3113,0.6436,117.43,-1749.39,516.85
11700,-3.8723,0.3090,0.6453,-148.19,-1624.45,735.60
11710,-3.8723,0.3068,0.6470,-445.07,-1405.70,891.85
11720,-3.8723,0.3071,0.6473,-726.32,-1186.95,860.60
11730,-3.8723,0.3097,0.6467,-679.44,-1140.08,751.22
11740,-3.8723,0.3116,0.6456,-351.32,-1218.20,610.60
11750,-3.8723,0.3131,0.6443,-101.32,-1358.83,548.10
11760,-3.8723,0.3140,0.6432,86.18,-1530.64,594.97
11770,-3.8723,0.3146,0.6423,195.56,-1671.26,563.72
11780,-3.8723,0.3152,0.6420,273.68,-1780.64,469.97
11790,-3.8723,0.3159,0.6427,351.81,-1827.51,438.72
11800,-3.8723,0.3169,0.6443,445.56,-1733.76,548.10
11810,-3.8723,0.3162,0.6459,570.56,-1530.64,735.60
11820,-3.8723,0.3140,0.6470,476.81,-1327.51,876.22
11830,-3.8723,0.3120,0.6470,195.56,-1186.89,876.22
11840,-3.8723,0.3109,0.6454,-54.44,-1186.95,782.47
11850,-3.8723,0.3118,0.6451,-195.07,-1390.08,751.22
11860,-3.8723,0.3135,0.6458,-85.69,-1421.33,704.35
11870,-3.8723,0.3145,0.6456,133.06,-1343.14,688.72
11880,-3.8723,0.3146,0.6455,258.06,-1358.76,813.72
11890,-3.8723,0.3154,0.6455,273.68,-1374.39,1048.10
11900,-3.8723,0.3148,0.6462,383.06,-1374.39,1266.85
11910,-3.8723,0.3123,0.6472,304.93,-1280.64,1360.60
11920,-3.8723,0.3097,0.6475,-23.19,-1155.70,1423.10
11930,-3.8723,0.3071,0.6467,-351.32,-1124.45,1391.85
11940,-3.8723,0.3053,0.6462,-679.44,-1218.20,1376.22
11950,-3.8723,0.3060,0.6465,-913.82,-1280.70,1407.47
11960,-3.8723,0.3096,0.6481,-820.07,-1249.45,1391.85
11970,-3.8723,0.3127,0.6493,-366.94,-1046.33,1298.10
11980,-3.8723,0.3132,0.6490,39.31,-890.01,1157.47
11990,-3.8723,0.3114,0.6476,101.81,-921.26,969.97
12000,-3.8723,0.3081,0.6458,-132.57,-1108.83,751.22
12010,-3.8723,0.3059,0.6455,-554.44,-1343.20,641.85
12020,-3.8723,0.3068,0.6477,-835.69,-1374.45,626.22
12030,-3.8723,0.3090,0.6490,-726.32,-1093.20,610.60
12040,-3.8723,0.3103,0.6482,-445.07,-921.33,423.10
12050,-3.8723,0.3105,0.6464,-273.19,-1030.70,126.22
12060,-3.8723,0.3098,0.6451,-241.94,-1265.08,126.22
12070,-3.8723,0.3087,0.6450,-335.69,-1421.33,376.22
12080,-3.8723,0.3088,0.6459,-476.32,-1436.95,501.22
12090,-3.8723,0.3094,0.6461,-460.69,-1327.58,501.22
12100,-3.8723,0.3090,0.6453,-382.57,-1296.33,485.60
12110,-3.8723,0.3085,0.6459,-445.07,-1405.70,548.10
12120,-3.8723,0.3083,0.6484,-507.57,-1327.58,688.72
12130,-3.8723,0.3070,0.6493,-523.19,-999.45,798.10
12140,-3.8723,0.3055,0.6476,-695.07,-890.08,688.72
12150,-3.8723,0.3058,0.6462,-882.57,-1108.83,344.97
12160,-3.8724,0.3081,0.6462,-851.32,-1280.70,-92.53
12170,-3.8724,0.3118,0.6469,-554.44,-1280.70,-326.90
12180,-3.8724,0.3152,0.6464,-85.69,-1202.58,-201.90
12190,-3.8723,0.3168,0.6461,351.81,-1265.01,219.97
12200,-3.8723,0.3163,0.6472,554.93,-1296.26,673.10
12210,-3.8723,0.3136,0.6484,492.43,-1155.64,1016.85
12220,-3.8723,0.3093,0.6498,148.68,-999.39,1298.10
12230,-3.8723,0.3055,0.6506,-398.19,-827.58,1532.47
12240,-3.8723,0.3033,0.6510,-882.57,-718.20,1766.85
12250,-3.8723,0.3031,0.6519,-1163.82,-671.33,1985.60
12260,-3.8723,0.3047,0.6526,-1195.07,-561.95,-1858.15
12270,-3.8723,0.3070,0.6525,-991.94,-468.20,-1811.28
12280,-3.8723,0.3085,0.6519,-695.07,-483.83,-1967.53
12290,-3.8723,0.3091,0.6505,-507.57,-561.95,1657.47
12300,-3.8723,0.3101,0.6473,-429.44,-733.83,1126.22
12310,-3.8723,0.3121,0.6428,-304.44,-1140.08,501.22
12320,-3.8724,0.3149,0.6395,-38.82,-1718.20,-61.28
12330,-3.8724,0.3175,0.6392,320.56,1859.99,-373.78
12340,-3.8724,0.3188,0.6400,648.68,1813.11,-530.03
12350,-3.8724,0.3174,0.6404,820.56,1922.49,-498.78
12360,-3.8724,0.3142,0.6421,633.06,1969.36,-264.40
12370,-3.8724,0.3107,0.6445,226.81,-1811.89,-30.03
12380,-3.8723,0.3083,0.6471,-226.32,-1499.45,94.97
12390,-3.8723,0.3081,0.6493,-523.19,-1171.33,219.97
12400,-3.8723,0.3094,0.6498,-554.44,-890.08,407.47
12410,-3.8723,0.3112,0.6494,-382.57,-827.58,563.72
12420,-3.8723,0.3127,0.6488,-163.82,-874.45,610.60
12430,-3.8723,0.3137,0.6469,39.31,-952.51,594.97
12440,-3.8723,0.3146,0.6449,164.31,-1202.51,516.85
12450,-3.8723,0.3151,0.6444,273.68,-1452.51,454.35
12460,-3.8723,0.3142,0.6451,336.18,-1515.01,516.85
12470,-3.8723,0.3115,0.6465,226.81,-1421.26,735.60
12480,-3.8723,0.3071,0.6481,-116.94,-1249.45,985.60
12490,-3.8723,0.3031,0.6493,-679.44,-1046.33,1110.60
12500,-3.8723,0.3011,0.6501,-1195.07,-890.08,1110.60
12510,-3.8723,0.3020,0.6503,-1445.07,-780.70,1141.85
12520,-3.8723,0.3044,0.6495,-1335.69,-765.08,1204.35
12530,-3.8723,0.3068,0.6481,-1023.19,-858.83,1173.10
12540,-3.8723,0.3081,0.6466,-726.32,-1046.33,954.35
12550,-3.8723,0.3087,0.6455,-554.44,-1233.83,610.60
12560,-3.8723,0.3094,0.6453,-476.32,-1374.45,313.72
12570,-3.8723,0.3090,0.6458,-382.57,-1405.70,79.35
12580,-3.8724,0.3068,0.6455,-445.07,-1343.20,-45.65
12590,-3.8723,0.3044,0.6453,-726.32,-1374.45,63.72
12600,-3.8723,0.3024,0.6464,-1023.19,-1405.70,485.60
12610,-3.8723,0.3010,0.6489,-1288.82,-1265.08,813.72
12620,-3.8723,0.3004,0.6516,-1460.69,-936.95,891.85
12630,-3.8723,0.3005,0.6523,-1538.82,-593.20,1001.22
12640,-3.8723,0.3019,0.6521,-1523.19,-499.45,1141.85
12650,-3.8723,0.3040,0.6514,-1351.32,-530.70,1266.85
12660,-3.8723,0.3053,0.6506,-1085.69,-624.45,1329.35
12670,-3.8723,0.3063,0.6499,-913.82,-718.20,1454.35
12680,-3.8723,0.3073,0.6490,-788.82,-811.95,1688.72
12690,-3.8723,0.3076,0.6479,-663.82,-921.33,1829.35
12700,-3.8723,0.3083,0.6477,-616.94,-1061.95,1782.47
12710,-3.8723,0.3102,0.6486,-523.19,-1093.20,1594.97
12720,-3.8723,0.3130,0.6499,-288.82,-983.83,1298.10
12730,-3.8723,0.3163,0.6503,70.56,-811.89,907.47
12740,-3.8723,0.3188,0.6479,492.43,-765.01,657.47
12750,-3.8723,0.3196,0.6443,820.56,-1061.89,548.10
12760,-3.8723,0.3182,0.6420,914.31,-1530.64,548.10
12770,-3.8723,0.3158,0.6422,742.43,-1827.51,594.97
12780,-3.8723,0.3129,0.6447,429.93,-1796.26,626.22
12790,-3.8723,0.3091,0.6475,54.93,-1483.76,719.97
12800,-3.8723,0.3047,0.6498,-429.44,-1124.45,751.22
12810,-3.8723,0.3005,0.6499,-991.94,-827.58,673.10
12820,-3.8723,0.2990,0.6467,-1523.19,-811.95,548.10
12830,-3.8723,0.3014,0.6425,-1726.32,-1218.20,344.97
12840,-3.8723,0.3062,0.6396,-1413.82,-1765.08,63.72
12850,-3.8724,0.3108,0.6387,-804.44,1875.55,-186.28
12860,-3.8724,0.3116,0.6383,-210.69,1750.55,-436.28
12870,-3.8724,0.3074,0.6378,-101.32,1703.67,-514.40
12880,-3.8724,0.3014,0.6393,-648.19,1641.17,-451.90
12890,-3.8724,0.2974,0.6437,-1413.82,1828.67,-326.90
12900,-3.8724,0.2957,0.6484,-1929.44,-1608.83,-201.90
12910,-3.8724,0.2954,0.6514,1851.81,-999.45,-61.28
12920,-3.8723,0.2961,0.6514,1820.56,-624.45,79.35
12930,-3.8723,0.2975,0.6495,1914.31,-624.45,157.47
12940,-3.8723,0.2999,0.6475,-1913.82,-858.83,219.97
12950,-3.8723,0.3031,0.6464,-1601.32,-1124.45,219.97
12960,-3.8723,0.3049,0.6456,-1195.07,-1265.08,313.72
12970,-3.8723,0.3042,0.6453,-960.69,-1358.83,454.35
12980,-3.8723,0.3018,0.6464,-1054.44,-1405.70,532.47
12990,-3.8723,0.2992,0.6490,-1366.94,-1265.08,454.35
13000,-3.8723,0.2980,0.6527,-1695.07,-921.33,407.47
13010,-3.8723,0.2986,0.6554,-1851.32,-452.58,469.97
13020,-3.8723,0.3007,0.6558,-1773.19,-108.83,579.35
13030,-3.8723,0.3041,0.6548,-1507.57,-61.95,704.35
13040,-3.8723,0.3083,0.6548,-1070.07,-186.95,798.10
13050,-3.8723,0.3131,0.6573,-523.19,-186.95,985.60
13060,-3.8723,0.3185,0.6602,86.18,141.24,1204.41
13070,-3.8723,0.3230,0.6591,773.68,500.61,1407.53
13080,-3.8723,0.3267,0.6544,1351.81,359.99,1516.91
13090,-3.8723,0.3297,0.6501,1820.56,-233.76,1610.60
13100,-3.8723,0.3322,0.6475,-1788.82,-780.64,1751.22
13110,-3.8723,0.3331,0.6459,-1476.32,-1124.39,1876.22
13120,-3.8723,0.3323,0.6453,-1351.32,-1327.51,1985.60
13130,-3.8723,0.3304,0.6454,-1460.69,-1405.64,1938.72
13140,-3.8723,0.3285,0.6453,-1695.07,-1390.01,1548.10
13150,-3.8723,0.3259,0.6444,-1945.07,-1405.64,1063.72
13160,-3.8723,0.3229,0.6442,1726.81,-1515.01,579.35
13170,-3.8723,0.3202,0.6438,1336.18,-1546.26,48.10
13180,-3.8724,0.3168,0.6423,992.43,-1593.14,-530.03
13190,-3.8724,0.3143,0.6429,554.93,-1780.64,-1045.65
13200,-3.8724,0.3143,0.6465,242.43,-1702.51,-1451.90
13210,-3.8724,0.3143,0.6497,242.43,-1249.39,-1780.03
13220,-3.8724,0.3126,0.6498,242.43,-843.14,-1983.15
13230,-3.8724,0.3093,0.6484,23.68,-827.51,-1951.90
13240,-3.8724,0.3065,0.6483,-398.19,-999.45,-1811.28
13250,-3.8724,0.3049,0.6481,-757.57,-1015.08,-1576.90
13260,-3.8724,0.3048,0.6486,-960.69,-1046.33,-1045.65
13270,-3.8724,0.3065,0.6505,-976.32,-983.83,-186.28
13280,-3.8723,0.3066,0.6514,-757.57,-733.83,548.10
13290,-3.8723,0.3040,0.6512,-741.94,-624.45,1094.97
13300,-3.8723,0.3014,0.6522,-1085.69,-640.08,1626.22
13310,-3.8723,0.2990,0.6538,-1413.82,-515.08,-1983.15
13320,-3.8723,0.2963,0.6548,-1726.32,-311.95,-1717.53
13330,-3.8723,0.2928,0.6556,1929.93,-186.95,-1530.03
13340,-3.8723,0.2899,0.6562,1492.43,-77.58,-1420.65
13350,-3.8723,0.2893,0.6567,1117.43,0.55,-1404.97
13360,-3.8723,0.2904,0.6573,1039.31,63.05,-1467.47
13370,-3.8723,0.2920,0.6575,1179.93,141.17,-1498.72
13380,-3.8723,0.2930,0.6571,1383.06,156.80,-1498.72
13390,-3.8723,0.2931,0.6567,1508.06,109.92,-1514.34
13400,-3.8723,0.2930,0.6570,1523.68,63.05,-1608.09
13410,-3.8723,0.2932,0.6577,1508.06,94.30,-1654.97
13420,-3.8723,0.2941,0.6578,1539.31,188.05,-1576.84
13430,-3.8723,0.2947,0.6578,1648.68,203.67,-1436.22
13440,-3.8723,0.2952,0.6566,1726.81,203.67,-1436.22
13450,-3.8723,0.2974,0.6541,1789.31,47.42,-1576.84
13460,-3.8723,0.3015,0.6521,-1929.44,-280.70,-1701.90
13470,-3.8723,0.3069,0.6506,-1398.19,-530.70,-1873.78
13480,-3.8723,0.3120,0.6488,-710.69,-718.20,1923.10
13490,-3.8723,0.3164,0.6466,-54.44,-952.58,1829.35
13500,-3.8723,0.3190,0.6447,508.06,-1233.76,1719.97
13510,-3.8723,0.3185,0.6432,836.18,-1483.76,1329.35
13520,-3.8723,0.3168,0.6428,773.68,-1671.26,798.10
13530,-3.8723,0.3167,0.6437,554.93,-1718.14,344.97
13540,-3.8724,0.3182,0.6443,539.31,-1608.76,-92.53
13550,-3.8724,0.3202,0.6433,742.43,-1530.64,-655.03
13560,-3.8724,0.3207,0.6412,992.43,-1655.64,-1311.28
13570,-3.8724,0.3199,0.6384,1054.93,-1921.26,-1826.90
13580,-3.8724,0.3201,0.6362,961.18,1719.36,1594.97
13590,-3.8724,0.3212,0.6361,976.81,1438.11,1141.85
13600,-3.8724,0.3224,0.6382,1117.43,1422.49,1048.10
13610,-3.8724,0.3220,0.6409,1273.68,1688.11,1204.35
13620,-3.8724,0.3202,0.6428,1226.81,-1968.14,1469.97
13630,-3.8724,0.3179,0.6439,992.43,-1718.14,1876.22
13640,-3.8724,0.3154,0.6454,695.56,-1577.51,-1655.03
13650,-3.8724,0.3127,0.6471,383.06,-1390.01,-1186.28
13660,-3.8724,0.3101,0.6477,39.31,-1171.26,-655.03
13670,-3.8724,0.3080,0.6466,-304.44,-1093.20,-233.15
13680,-3.8723,0.3079,0.6460,-570.07,-1233.83,48.10
13690,-3.8723,0.3102,0.6467,-585.69,-1311.95,407.47
13700,-3.8723,0.3130,0.6475,-288.82,-1218.20,798.10
13710,-3.8723,0.3146,0.6471,70.56,-1124.39,1126.22
13720,-3.8723,0.3130,0.6472,273.68,-1171.26,1313.72
13730,-3.8723,0.3087,0.6490,70.56,-1155.64,1438.72
13740,-3.8723,0.3047,0.6504,-476.32,-921.33,1501.22
13750,-3.8723,0.3018,0.6506,-991.94,-749.45,1391.85
13760,-3.8723,0.2994,0.6505,-1366.94,-718.20,1188.72
13770,-3.8723,0.2983,0.6509,-1663.82,-733.83,1219.97
13780,-3.8723,0.2993,0.6516,-1804.44,-686.95,1501.22
13790,-3.8723,0.3024,0.6516,-1679.44,-593.20,1829.35
13800,-3.8723,0.3065,0.6503,-1288.82,-593.20,-1826.90
13810,-3.8723,0.3104,0.6488,-757.57,-765.08,-1608.15
13820,-3.8723,0.3126,0.6487,-257.57,-952.58,-1514.40
13830,-3.8723,0.3110,0.6495,23.68,-968.14,-1467.53
13840,-3.8723,0.3077,0.6508,-179.44,-858.83,-1670.65
13850,-3.8723,0.3054,0.6517,-601.32,-702.58,1891.85
13860,-3.8723,0.3043,0.6515,-898.19,-577.58,1423.10
13870,-3.8723,0.3043,0.6500,-1038.82,-608.83,891.85
13880,-3.8723,0.3065,0.6479,-1038.82,-796.33,376.22
13890,-3.8724,0.3104,0.6461,-757.57,-1061.95,-108.15
13900,-3.8724,0.3138,0.6443,-257.57,-1296.33,-436.28
13910,-3.8724,0.3159,0.6429,179.93,-1530.64,-514.40
13920,-3.8724,0.3169,0.6436,445.56,-1702.51,-530.03
13930,-3.8724,0.3167,0.6456,570.56,-1624.39,-639.40
13940,-3.8724,0.3158,0.6462,539.31,-1358.76,-733.15
13950,-3.8724,0.3157,0.6444,429.93,-1280.64,-905.03
13960,-3.8724,0.3159,0.6414,414.31,-1515.01,-1123.78
13970,-3.8724,0.3168,0.6393,445.56,-1905.64,-1155.03
13980,-3.8724,0.3181,0.6400,554.93,1828.74,-967.53
13990,-3.8724,0.3179,0.6433,726.81,1922.49,-561.28
14000,-3.8724,0.3145,0.6477,695.56,-1655.64,-92.53
14010,-3.8723,0.3082,0.6503,258.06,-1093.14,173.10
14020,-3.8723,0.3015,0.6492,-538.82,-765.08,16.85
14030,-3.8724,0.2979,0.6461,-1398.19,-905.70,-233.15
14040,-3.8724,0.2999,0.6445,-1866.94,-1296.33,-248.78
14050,-3.8724,0.3063,0.6445,-1601.32,-1499.45,-30.03
14060,-3.8723,0.3135,0.6448,-788.82,-1499.45,344.97
14070,-3.8723,0.3177,0.6459,133.06,-1468.14,860.60
14080,-3.8723,0.3175,0.6476,679.93,-1327.51,1360.60
14090,-3.8723,0.3140,0.6494,648.68,-1108.76,1641.85
14100,-3.8723,0.3086,0.6508,195.56,-874.39,1704.35
14110,-3.8723,0.3043,0.6509,-491.94,-702.58,1688.72
14120,-3.8723,0.3026,0.6505,-1038.82,-686.95,1610.60
14130,-3.8723,0.3043,0.6498,-1257.57,-733.83,1485.60
14140,-3.8723,0.3077,0.6483,-1038.82,-827.58,1376.22
14150,-3.8723,0.3120,0.6471,-601.32,-1015.08,1329.35
14160,-3.8723,0.3148,0.6465,-54.44,-1171.33,1407.47
14170,-3.8723,0.3135,0.6456,304.93,-1249.39,1485.60
14180,-3.8723,0.3094,0.6443,133.06,-1358.76,1329.35
14190,-3.8723,0.3057,0.6434,-382.57,-1530.70,954.35
14200,-3.8723,0.3035,0.6439,-866.94,-1640.08,579.35
14210,-3.8723,0.3036,0.6459,-1148.19,-1577.58,235.60
14220,-3.8724,0.3060,0.6487,-1132.57,-1327.58,-108.15
14230,-3.8724,0.3083,0.6499,-820.07,-968.20,-233.15
14240,-3.8724,0.3085,0.6495,-523.19,-811.95,-233.15
14250,-3.8724,0.3073,0.6484,-507.57,-858.83,-217.53
14260,-3.8724,0.3060,0.6467,-663.82,-999.45,-186.28
14270,-3.8724,0.3052,0.6459,-820.07,-1218.20,-92.53
14280,-3.8724,0.3046,0.6467,-929.44,-1327.58,-14.40
14290,-3.8723,0.3055,0.6473,-1007.57,-1218.20,63.72
14300,-3.8723,0.3080,0.6461,-882.57,-1140.08,266.85
14310,-3.8723,0.3104,0.6439,-570.07,-1296.33,485.60
14320,-3.8723,0.3118,0.6432,-257.57,-1577.58,688.72
14330,-3.8723,0.3125,0.6445,-85.69,-1671.33,891.85
14340,-3.8723,0.3137,0.6469,8.06,-1499.39,985.60
14350,-3.8723,0.3153,0.6483,164.31,-1202.51,954.35
14360,-3.8723,0.3181,0.6484,367.43,-1015.01,1048.10
14370,-3.8723,0.3201,0.6476,726.81,-999.39,1141.85
14380,-3.8723,0.3196,0.6472,976.81,-1108.76,1173.10
14390,-3.8723,0.3184,0.6481,914.31,-1155.64,1282.47
14400,-3.8723,0.3173,0.6489,758.06,-1046.26,1266.85
14410,-3.8723,0.3158,0.6498,617.43,-936.89,1188.72
14420,-3.8723,0.3151,0.6499,429.93,-827.51,1063.72
14430,-3.8723,0.3157,0.6482,336.18,-811.89,954.35
14440,-3.8723,0.3170,0.6465,414.31,-1030.64,938.72
14450,-3.8723,0.3190,0.6459,586.18,-1249.39,938.72
14460,-3.8723,0.3210,0.6471,836.18,-1327.51,766.85
14470,-3.8723,0.3221,0.6486,1101.81,-1171.26,501.22
14480,-3.8723,0.3212,0.6478,1242.43,-983.76,344.97
14490,-3.8723,0.3186,0.6459,1117.43,-1077.51,235.60
14500,-3.8723,0.3151,0.6447,789.31,-1327.51,126.22
14510,-3.8723,0.3108,0.6445,336.18,-1483.76,63.72
14520,-3.8723,0.3070,0.6450,-210.69,-1499.45,141.85
14530,-3.8723,0.3049,0.6462,-695.07,-1436.95,313.72
14540,-3.8723,0.3043,0.6476,-960.69,-1280.70,360.60
14550,-3.8723,0.3030,0.6481,-1038.82,-1108.83,251.22
14560,-3.8723,0.3009,0.6479,-1210.69,-1046.33,94.97
14570,-3.8723,0.3005,0.6483,-1476.32,-1061.95,16.85
14580,-3.8724,0.3013,0.6486,-1523.19,-1015.08,-14.40
14590,-3.8723,0.3018,0.6481,-1429.44,-983.83,16.85
14600,-3.8723,0.3024,0.6482,-1366.94,-1046.33,63.72
14610,-3.8723,0.3014,0.6492,-1288.82,-1030.70,63.72
14620,-3.8723,0.2987,0.6500,-1413.82,-905.70,157.47
14630,-3.8723,0.2971,0.6512,-1757.57,-796.33,313.72
14640,-3.8723,0.2975,0.6530,-1960.69,-640.08,563.72
14650,-3.8723,0.2990,0.6537,-1913.82,-421.33,844.97
14660,-3.8723,0.3011,0.6533,-1726.32,-327.58,1157.47
14670,-3.8723,0.3040,0.6525,-1445.07,-374.45,1610.60
14680,-3.8723,0.3057,0.6520,-1085.69,-483.83,-1936.28
14690,-3.8723,0.3049,0.6521,-866.94,-546.33,-1748.78
14700,-3.8723,0.3040,0.6526,-960.69,-530.70,-1826.90
14710,-3.8723,0.3038,0.6526,-1085.69,-468.20,-1905.03
14720,-3.8723,0.3052,0.6520,-1101.32,-468.20,-1983.15
14730,-3.8723,0.3076,0.6509,-929.44,-546.33,1876.22
14740,-3.8723,0.3088,0.6482,-616.94,-686.95,1657.47
14750,-3.8723,0.3092,0.6448,-460.69,-1030.70,1313.72
14760,-3.8723,0.3113,0.6427,-413.82,-1468.20,954.35
14770,-3.8723,0.3146,0.6431,-148.19,-1733.83,641.85
14780,-3.8723,0.3163,0.6454,273.68,-1686.89,376.22
14790,-3.8724,0.3152,0.6465,492.43,-1390.01,-61.28
14800,-3.8724,0.3131,0.6447,351.81,-1249.39,-592.53
14810,-3.8724,0.3119,0.6421,86.18,-1483.76,-1092.53
14820,-3.8724,0.3124,0.6411,-70.07,-1811.95,-1389.40
14830,-3.8724,0.3148,0.6423,-7.57,-1936.95,-1405.03
14840,-3.8724,0.3171,0.6438,304.93,-1780.64,-1123.78
14850,-3.8724,0.3162,0.6449,601.81,-1593.14,-748.78
14860,-3.8724,0.3135,0.6469,476.81,-1452.51,-295.65
14870,-3.8723,0.3101,0.6487,133.06,-1202.51,235.60
14880,-3.8723,0.3054,0.6499,-304.44,-968.20,688.72
14890,-3.8723,0.3020,0.6505,-898.19,-811.95,1001.22
14900,-3.8723,0.3010,0.6501,-1335.69,-733.83,1157.47
14910,-3.8723,0.3018,0.6500,-1460.69,-780.70,1282.47
14920,-3.8723,0.3037,0.6503,-1366.94,-796.33,1438.72
14930,-3.8723,0.3058,0.6504,-1116.94,-765.08,1641.85
14940,-3.8723,0.3073,0.6498,-851.32,-749.45,1782.47
14950,-3.8723,0.3070,0.6486,-663.82,-827.58,1735.60
14960,-3.8723,0.3057,0.6472,-695.07,-983.83,1594.97
14970,-3.8723,0.3046,0.6465,-866.94,-1155.70,1376.22
14980,-3.8723,0.3036,0.6472,-1007.57,-1249.45,1141.85
14990,-3.8723,0.3026,0.6487,-1132.57,-1155.70,985.60
15000,-3.8723,0.3020,0.6503,-1257.57,-968.20,923.10
15010,-3.8723,0.3024,0.6516,-1335.69,-765.08,844.97
15020,-3.8723,0.3029,0.6520,-1288.82,-593.20,735.60
15030,-3.8723,0.3033,0.6510,-1226.32,-546.33,657.47
15040,-3.8723,0.3049,0.6489,-1163.82,-671.33,469.97
15050,-3.8723,0.3074,0.6462,-960.69,-936.95,94.97
15060,-3.8724,0.3093,0.6448,-648.19,-1280.70,-233.15
15070,-3.8724,0.3107,0.6454,-398.19,-1468.20,-467.53
15080,-3.8724,0.3114,0.6471,-226.32,-1390.08,-592.53
15090,-3.8724,0.3115,0.6482,-132.57,-1171.33,-545.65
15100,-3.8724,0.3101,0.6486,-116.94,-1030.70,-295.65
15110,-3.8723,0.3075,0.6487,-304.44,-983.83,63.72
15120,-3.8723,0.3058,0.6492,-632.57,-968.20,516.85
15130,-3.8723,0.3049,0.6498,-851.32,-905.70,1048.10
15140,-3.8723,0.3036,0.6498,-960.69,-827.58,1516.85
15150,-3.8723,0.3016,0.6499,-1132.57,-827.58,1735.60
15160,-3.8723,0.2998,0.6516,-1382.57,-811.95,1688.72
15170,-3.8723,0.2990,0.6533,-1616.94,-593.20,1469.97
15180,-3.8723,0.2999,0.6520,-1726.32,-374.45,1141.85
15190,-3.8723,0.3021,0.6476,-1601.32,-546.33,751.22
15200,-3.8723,0.3048,0.6439,-1320.07,-1108.83,501.22
15210,-3.8723,0.3076,0.6436,-976.32,-1577.58,469.97
15220,-3.8723,0.3102,0.6461,-616.94,-1624.45,516.85
15230,-3.8723,0.3118,0.6497,-288.82,-1296.33,657.47
15240,-3.8723,0.3118,0.6509,-85.69,-843.20,844.97
15250,-3.8723,0.3102,0.6495,-85.69,-686.95,985.60
15260,-3.8723,0.3091,0.6475,-288.82,-858.83,1032.47
15270,-3.8723,0.3094,0.6455,-429.44,-1124.45,1016.85
15280,-3.8723,0.3098,0.6443,-382.57,-1374.45,985.60
15290,-3.8723,0.3094,0.6448,-335.69,-1530.70,969.97
15300,-3.8723,0.3068,0.6465,-382.57,-1468.20,1048.10
15310,-3.8723,0.3025,0.6490,-726.32,-1249.45,1079.35
15320,-3.8723,0.2990,0.6508,-1273.19,-921.33,1032.47
15330,-3.8723,0.2980,0.6498,-1726.32,-702.58,954.35
15340,-3.8723,0.2994,0.6477,-1851.32,-827.58,782.47
15350,-3.8723,0.3020,0.6466,-1663.82,-1093.20,688.72
15360,-3.8723,0.3037,0.6470,-1335.69,-1233.83,563.72
15370,-3.8723,0.3040,0.6479,-1116.94,-1186.95,360.60
15380,-3.8723,0.3035,0.6487,-1085.69,-1061.95,266.85
15390,-3.8723,0.3036,0.6492,-1148.19,-968.20,251.22
15400,-3.8723,0.3040,0.6488,-1132.57,-905.70,376.22
15410,-3.8723,0.3049,0.6486,-1085.69,-952.58,704.35
15420,-3.8723,0.3062,0.6493,-960.69,-983.83,1063.72
15430,-3.8723,0.3062,0.6508,-804.44,-890.08,1329.35
15440,-3.8723,0.3048,0.6523,-804.44,-702.58,1454.35
15450,-3.8723,0.3038,0.6523,-976.32,-499.45,1438.72
15460,-3.8723,0.3044,0.6509,-1101.32,-499.45,1344.97
15470,-3.8723,0.3069,0.6503,-1023.19,-686.95,1219.97
15480,-3.8723,0.3107,0.6508,-710.69,-765.08,1048.10
15490,-3.8723,0.3138,0.6497,-226.32,-702.58,969.97
15500,-3.8723,0.3146,0.6464,179.93,-843.14,907.47
15510,-3.8723,0.3125,0.6434,273.68,-1265.01,735.60
15520,-3.8723,0.3107,0.6426,8.06,-1640.01,501.22
15530,-3.8723,0.3105,0.6437,-226.32,-1749.45,251.22
15540,-3.8723,0.3108,0.6455,-241.94,-1608.83,79.35
15550,-3.8723,0.3108,0.6466,-210.69,-1374.45,32.47
15560,-3.8723,0.3103,0.6461,-210.69,-1233.83,63.72
15570,-3.8723,0.3094,0.6445,-273.19,-1296.33,173.10
15580,-3.8723,0.3096,0.6428,-382.57,-1499.45,298.10
15590,-3.8723,0.3102,0.6420,-366.94,-1718.20,516.85
15600,-3.8723,0.3102,0.6420,-288.82,-1827.58,657.47
15610,-3.8723,0.3098,0.6432,-288.82,-1827.58,704.35
15620,-3.8723,0.3082,0.6453,-335.69,-1671.33,923.10
15630,-3.8723,0.3054,0.6471,-538.82,-1405.70,1173.10
15640,-3.8723,0.3024,0.6487,-898.19,-1171.33,1298.10
15650,-3.8723,0.3004,0.6486,-1288.82,-968.20,1266.85
15660,-3.8723,0.3007,0.6462,-1538.82,-983.83,1251.22
15670,-3.8723,0.3031,0.6434,-1507.57,-1280.70,1532.47
15680,-3.8723,0.3057,0.6426,-1195.07,-1640.08,-1967.53
15690,-3.8723,0.3059,0.6443,-866.94,-1749.45,-1498.78
15700,-3.8723,0.3030,0.6470,-835.69,-1530.70,-1264.40
15710,-3.8723,0.2977,0.6505,-1210.69,-1186.95,-1233.15
15720,-3.8723,0.2932,0.6547,-1882.57,-733.83,-1530.03
15730,-3.8723,0.2914,0.6572,1539.31,-202.58,1907.47
15740,-3.8723,0.2915,0.6572,1304.93,125.55,1360.66
15750,-3.8723,0.2933,0.6537,1320.56,125.55,860.66
15760,-3.8723,0.2974,0.6482,1554.93,-327.58,407.47
15770,-3.8723,0.3019,0.6442,-1929.44,-1030.70,204.35
15780,-3.8723,0.3049,0.6427,-1351.32,-1546.33,298.10
15790,-3.8723,0.3064,0.6436,-960.69,-1733.83,532.47
15800,-3.8723,0.3059,0.6460,-773.19,-1624.45,641.85
15810,-3.8723,0.3040,0.6497,-835.69,-1311.95,610.60
15820,-3.8723,0.3026,0.6521,-1085.69,-843.20,548.10
15830,-3.8723,0.3025,0.6516,-1257.57,-530.70,391.85
15840,-3.8723,0.3048,0.6493,-1273.19,-593.20,282.47
15850,-3.8723,0.3104,0.6464,-976.32,-890.08,344.97
15860,-3.8723,0.3174,0.6434,-257.57,-1265.08,438.72
15870,-3.8723,0.3224,0.6403,633.06,-1640.01,485.60
15880,-3.8723,0.3237,0.6375,1273.68,1953.74,423.10
15890,-3.8723,0.3223,0.6368,1445.56,1594.36,298.10
15900,-3.8723,0.3201,0.6379,1258.06,1516.24,298.10
15910,-3.8723,0.3179,0.6403,976.81,1656.86,407.47
15920,-3.8723,0.3163,0.6439,695.56,1953.74,626.22
15930,-3.8723,0.3152,0.6477,492.43,-1577.51,938.72
15940,-3.8723,0.3136,0.6501,351.81,-1093.14,1251.22
15950,-3.8723,0.3107,0.6511,148.68,-780.64,1594.97
15960,-3.8723,0.3075,0.6520,-226.32,-655.70,1985.60
15970,-3.8723,0.3044,0.6516,-632.57,-546.33,-1748.78
15980,-3.8723,0.3018,0.6498,-1023.19,-593.20,-1655.03
15990,-3.8723,0.3011,0.6493,-1366.94,-827.58,-1717.53
16000,-3.8723,0.3032,0.6508,-1445.07,-890.08,-1936.28
16010,-3.8723,0.3057,0.6527,-1179.44,-702.58,1938.72
16020,-3.8723,0.3060,0.6527,-866.94,-452.58,1798.10
16030,-3.8723,0.3035,0.6494,-820.07,-452.58,1548.10
16040,-3.8723,0.3013,0.6456,-1148.19,-874.45,1344.97
16050,-3.8723,0.3032,0.6450,-1429.44,-1358.83,985.60
16060,-3.8723,0.3087,0.6455,-1179.44,-1436.95,516.85
16070,-3.8723,0.3131,0.6451,-476.32,-1374.45,110.60
16080,-3.8724,0.3126,0.6450,86.18,-1421.26,-139.40
16090,-3.8724,0.3076,0.6455,23.68,-1436.89,-170.65
16100,-3.8724,0.3004,0.6464,-616.94,-1374.45,-155.03
16110,-3.8724,0.2936,0.6461,-1538.82,-1265.08,-405.03
16120,-3.8724,0.2896,0.6440,1586.18,-1296.33,-936.28
16130,-3.8724,0.2892,0.6412,1070.56,-1561.95,-1467.53
16140,-3.8724,0.2919,0.6398,1023.68,-1921.33,-1717.53
16150,-3.8724,0.2966,0.6406,1367.43,1891.17,-1764.40
16160,-3.8724,0.3004,0.6428,1976.81,-1999.45,-1873.78
16170,-3.8724,0.2998,0.6440,-1538.82,-1718.20,1844.97
16180,-3.8724,0.2969,0.6437,-1616.94,-1561.95,1469.97
16190,-3.8724,0.2944,0.6427,-1991.94,-1608.83,1219.97
16200,-3.8724,0.2936,0.6428,1695.56,-1733.83,1344.97
16210,-3.8724,0.2957,0.6454,1586.18,-1718.20,1891.85
16220,-3.8724,0.2990,0.6490,1851.81,-1390.08,-1155.03
16230,-3.8723,0.3014,0.6525,-1726.32,-921.33,110.60
16240,-3.8723,0.3013,0.6562,-1413.82,-483.83,1407.47
16250,-3.8723,0.2996,0.6604,-1429.44,0.55,-1654.97
16260,-3.8723,0.2983,0.6630,-1648.19,531.80,-998.72
16270,-3.8723,0.2987,0.6633,-1804.44,859.92,-467.47
16280,-3.8723,0.3026,0.6614,-1757.57,906.80,-264.34
16290,-3.8723,0.3102,0.6576,-1257.57,656.80,-170.59
16300,-3.8723,0.3198,0.6533,-288.82,172.42,-61.22
16310,-3.8723,0.3287,0.6498,945.56,-374.39,-108.15
16320,-3.8723,0.3348,0.6487,-1913.82,-827.51,-389.40
16330,-3.8723,0.3341,0.6500,-1132.57,-968.14,-655.03
16340,-3.8723,0.3252,0.6512,-1226.32,-796.26,-1186.28
16350,-3.8723,0.3212,0.6488,1633.06,-640.01,1985.60
16360,-3.8723,0.3287,0.6464,1117.43,-952.51,1469.97
16370,-3.8723,0.3335,0.6464,-1913.82,-1265.01,1063.72
16380,-3.8723,0.3308,0.6453,-1304.44,-1265.01,657.47
16390,-3.8723,0.3280,0.6442,-1648.19,-1405.64,438.72
16400,-3.8723,0.3243,0.6445,1992.43,-1546.26,282.47
16410,-3.8724,0.3195,0.6476,1523.68,-1499.39,-45.65
16420,-3.8724,0.3163,0.6516,898.68,-1108.76,-389.40
16430,-3.8724,0.3130,0.6519,492.43,-593.14,-498.78
16440,-3.8724,0.3094,0.6505,70.56,-561.89,-530.03
16450,-3.8724,0.3082,0.6506,-382.57,-733.83,-623.78
16460,-3.8724,0.3082,0.6515,-538.82,-718.20,-780.03
16470,-3.8724,0.3073,0.6522,-538.82,-608.83,-764.40
16480,-3.8724,0.3069,0.6536,-663.82,-515.08,-467.53
16490,-3.8724,0.3066,0.6555,-710.69,-343.20,-248.78
16500,-3.8724,0.3042,0.6562,-741.94,-93.20,-358.15
16510,-3.8724,0.3007,0.6556,-1054.44,0.55,-623.72
16520,-3.8724,0.2983,0.6541,-1507.57,-77.58,-858.15
16530,-3.8724,0.2979,0.6520,-1804.44,-280.70,-858.15
16540,-3.8724,0.2997,0.6512,-1866.94,-546.33,-514.40
16550,-3.8724,0.3025,0.6525,-1632.57,-640.08,-108.15
16560,-3.8723,0.3037,0.6553,-1273.19,-483.83,188.72
16570,-3.8723,0.3035,0.6586,-1116.94,-124.45,329.35
16580,-3.8723,0.3030,0.6592,-1148.19,297.42,329.41
16590,-3.8723,0.3029,0.6569,-1210.69,375.55,79.41
16600,-3.8724,0.3040,0.6533,-1226.32,78.67,-326.84
16610,-3.8724,0.3065,0.6495,-1085.69,-374.45,-514.40
16620,-3.8724,0.3094,0.6461,-757.57,-858.83,-405.03
16630,-3.8724,0.3112,0.6445,-382.57,-1296.33,-217.53
16640,-3.8724,0.3108,0.6449,-163.82,-1499.45,-139.40
16650,-3.8724,0.3076,0.6465,-210.69,-1452.58,-123.78
16660,-3.8724,0.3046,0.6481,-616.94,-1249.45,-186.28
16670,-3.8724,0.3031,0.6481,-1007.57,-1046.33,-295.65
16680,-3.8724,0.3044,0.6472,-1195.07,-1046.33,-264.40
16690,-3.8724,0.3082,0.6471,-1023.19,-1155.70,-108.15
16700,-3.8723,0.3113,0.6473,-538.82,-1171.33,126.22
16710,-3.8723,0.3116,0.6476,-148.19,-1140.08,501.22
16720,-3.8723,0.3096,0.6492,-101.32,-1108.83,985.60
16730,-3.8723,0.3055,0.6526,-366.94,-905.70,1329.35
16740,-3.8723,0.2999,0.6561,-882.57,-468.20,1423.10
16750,-3.8723,0.2943,0.6571,-1601.32,-15.08,1173.10
16760,-3.8723,0.2924,0.6552,1679.93,109.92,782.53
16770,-3.8723,0.2966,0.6528,1429.93,-140.08,485.60
16780,-3.8723,0.3041,0.6549,1976.81,-436.95,266.85
16790,-3.8724,0.3087,0.6602,-1070.07,-171.33,-123.78
16800,-3.8724,0.3071,0.6622,-476.32,500.55,-795.59
16810,-3.8724,0.3007,0.6588,-679.44,766.17,-1545.59
16820,-3.8724,0.2930,0.6538,-1507.57,328.67,1970.03
16830,-3.8724,0.2880,0.6519,1508.06,-311.95,-1983.15
16840,-3.8724,0.2878,0.6545,867.43,-561.95,-1467.53
16850,-3.8724,0.2927,0.6600,851.81,-218.20,-576.90
16860,-3.8723,0.2992,0.6646,1476.81,484.92,516.91
16870,-3.8723,0.3032,0.6649,-1695.07,1063.05,1516.91
16880,-3.8723,0.3051,0.6617,-1179.44,1109.92,-1748.72
16890,-3.8723,0.3074,0.6570,-945.07,703.67,-1420.59
16900,-3.8723,0.3110,0.6516,-648.19,94.30,-1467.47
16910,-3.8723,0.3159,0.6469,-179.44,-593.20,-1764.40
16920,-3.8723,0.3209,0.6431,445.56,-1202.51,1829.35
16930,-3.8723,0.3246,0.6406,1086.18,-1686.89,1391.85
16940,-3.8723,0.3267,0.6399,1554.93,-1999.39,1016.85
16950,-3.8723,0.3269,0.6417,1820.56,1906.86,798.10
16960,-3.8723,0.3243,0.6449,1851.81,-1858.76,751.22
16970,-3.8723,0.3202,0.6472,1523.68,-1452.51,735.60
16980,-3.8723,0.3162,0.6487,992.43,-1155.64,751.22
16990,-3.8723,0.3134,0.6498,476.81,-968.14,813.72
17000,-3.8723,0.3125,0.6505,117.43,-827.51,813.72
17010,-3.8723,0.3130,0.6503,8.06,-733.76,704.35
17020,-3.8723,0.3127,0.6505,70.56,-765.01,548.10
17030,-3.8723,0.3108,0.6508,39.31,-733.76,438.72
17040,-3.8723,0.3083,0.6504,-210.69,-702.58,344.97
17050,-3.8723,0.3065,0.6483,-523.19,-749.45,313.72
17060,-3.8723,0.3057,0.6451,-757.57,-1015.08,329.35
17070,-3.8723,0.3051,0.6436,-866.94,-1421.33,391.85
17080,-3.8723,0.3030,0.6449,-945.07,-1624.45,516.85
17090,-3.8723,0.2996,0.6488,-1210.69,-1452.58,751.22
17100,-3.8723,0.2955,0.6530,-1648.19,-952.58,985.60
17110,-3.8723,0.2919,0.6550,1836.18,-421.33,1016.85
17120,-3.8723,0.2910,0.6552,1367.43,-155.70,907.47
17130,-3.8723,0.2935,0.6542,1258.06,-140.08,829.35
17140,-3.8723,0.2987,0.6528,1570.56,-265.08,813.72
17150,-3.8723,0.3046,0.6510,-1757.57,-436.95,751.22
17160,-3.8723,0.3074,0.6481,-1007.57,-671.33,719.97
17170,-3.8723,0.3071,0.6462,-648.19,-1046.33,782.47
17180,-3.8723,0.3053,0.6461,-679.44,-1280.70,735.60
17190,-3.8723,0.3038,0.6459,-913.82,-1296.33,548.10
17200,-3.8723,0.3048,0.6445,-1101.32,-1327.58,376.22
17210,-3.8723,0.3075,0.6429,-976.32,-1499.45,188.72
17220,-3.8723,0.3104,0.6426,-632.57,-1702.58,48.10
17230,-3.8723,0.3121,0.6433,-257.57,-1749.45,110.60
17240,-3.8723,0.3119,0.6438,-38.82,-1655.70,173.10
17250,-3.8723,0.3105,0.6439,-70.07,-1593.20,173.10
17260,-3.8723,0.3087,0.6444,-241.94,-1577.58,313.72
17270,-3.8723,0.3073,0.6448,-476.32,-1515.08,594.97
17280,-3.8723,0.3079,0.6455,-663.82,-1468.20,782.47
17290,-3.8723,0.3093,0.6462,-585.69,-1374.45,907.47
17300,-3.8723,0.3105,0.6467,-398.19,-1280.70,1063.72
17310,-3.8723,0.3119,0.6469,-241.94,-1218.20,985.60
17320,-3.8723,0.3115,0.6455,-70.07,-1202.58,610.60
17330,-3.8723,0.3107,0.6432,-116.94,-1374.45,94.97
17340,-3.8724,0.3110,0.6412,-226.32,-1671.33,-405.03
17350,-3.8724,0.3123,0.6398,-179.44,-1921.33,-842.53
17360,-3.8724,0.3142,0.6401,-23.19,1891.17,-951.90
17370,-3.8724,0.3158,0.6420,226.81,1938.11,-701.90
17380,-3.8724,0.3156,0.6438,429.93,-1827.51,-201.90
17390,-3.8723,0.3125,0.6454,398.68,-1593.14,407.47
17400,-3.8723,0.3066,0.6467,8.06,-1390.01,923.10
17410,-3.8723,0.3026,0.6492,-741.94,-1218.20,1141.85
17420,-3.8723,0.3025,0.6521,-1257.57,-905.70,1094.97
17430,-3.8723,0.3038,0.6536,-1273.19,-530.70,1001.22
17440,-3.8723,0.3054,0.6519,-1101.32,-343.20,1016.85
17450,-3.8723,0.3075,0.6488,-898.19,-561.95,1048.10
17460,-3.8723,0.3104,0.6475,-632.57,-952.58,876.22
17470,-3.8723,0.3125,0.6481,-257.57,-1124.45,548.10
17480,-3.8723,0.3123,0.6483,8.06,-1046.26,188.72
17490,-3.8724,0.3091,0.6470,-23.19,-1015.08,-217.53
17500,-3.8724,0.3051,0.6444,-429.44,-1186.95,-639.40
17510,-3.8724,0.3031,0.6428,-945.07,-1515.08,-842.53
17520,-3.8724,0.3033,0.6434,-1195.07,-1718.20,-748.78
17530,-3.8724,0.3043,0.6445,-1163.82,-1640.08,-326.90
17540,-3.8723,0.3043,0.6450,-1038.82,-1499.45,266.85
17550,-3.8723,0.3029,0.6450,-1038.82,-1436.95,829.35
17560,-3.8723,0.3007,0.6456,-1226.32,-1436.95,1063.72
17570,-3.8723,0.2993,0.6477,-1507.57,-1358.83,985.60
17580,-3.8723,0.3004,0.6493,-1679.44,-1093.20,782.47
17590,-3.8723,0.3020,0.6484,-1538.82,-890.08,579.35
17600,-3.8723,0.3037,0.6469,-1335.69,-999.45,532.47
17610,-3.8723,0.3063,0.6472,-1116.94,-1202.58,735.60
17620,-3.8723,0.3075,0.6503,-788.82,-1155.70,1048.10
17630,-3.8723,0.3068,0.6549,-632.57,-765.08,1485.60
17640,-3.8723,0.3052,0.6582,-726.32,-171.33,-1998.78
17650,-3.8723,0.3027,0.6600,-929.44,250.55,-1701.84
17660,-3.8723,0.3005,0.6606,-1241.94,484.92,-1701.84
17670,-3.8723,0.3003,0.6597,-1523.19,563.05,-1858.09
17680,-3.8723,0.3031,0.6581,-1554.44,438.05,1782.53
17690,-3.8723,0.3085,0.6569,-1195.07,234.92,1329.41
17700,-3.8723,0.3137,0.6555,-507.57,78.67,1095.03
17710,-3.8723,0.3167,0.6541,164.31,-93.14,1048.10
17720,-3.8723,0.3165,0.6526,539.31,-280.64,860.60
17730,-3.8723,0.3142,0.6511,523.68,-468.14,532.47
17740,-3.8723,0.3118,0.6492,226.81,-655.64,235.60
17750,-3.8723,0.3113,0.6464,-85.69,-905.70,63.72
17760,-3.8723,0.3130,0.6438,-148.19,-1265.08,94.97
17770,-3.8723,0.3160,0.6433,70.56,-1593.14,204.35
17780,-3.8723,0.3182,0.6444,461.18,-1655.64,235.60
17790,-3.8723,0.3177,0.6450,742.43,-1515.01,282.47
17800,-3.8723,0.3153,0.6450,679.93,-1436.89,454.35
17810,-3.8723,0.3127,0.6445,367.43,-1436.89,532.47
17820,-3.8723,0.3102,0.6440,39.31,-1499.39,501.22
17830,-3.8723,0.3088,0.6440,-288.82,-1561.95,344.97
17840,-3.8723,0.3092,0.6444,-460.69,-1561.95,204.35
17850,-3.8723,0.3091,0.6449,-413.82,-1515.08,204.35
17860,-3.8723,0.3075,0.6455,-429.44,-1452.58,173.10
17870,-3.8723,0.3046,0.6465,-632.57,-1374.45,16.85
17880,-3.8724,0.3021,0.6476,-1007.57,-1249.45,-217.53
17890,-3.8724,0.3013,0.6482,-1320.07,-1108.83,-373.78
17900,-3.8724,0.3004,0.6478,-1429.44,-1030.70,-264.40
17910,-3.8723,0.2997,0.6471,-1538.82,-1077.58,48.10
17920,-3.8723,0.3002,0.6477,-1632.57,-1171.33,454.35
17930,-3.8723,0.2998,0.6497,-1570.07,-1093.20,938.72
17940,-3.8723,0.2977,0.6514,-1616.94,-843.20,1423.10
17950,-3.8723,0.2958,0.6530,-1882.57,-624.45,1813.72
17960,-3.8723,0.2954,0.6549,1867.43,-421.33,1954.35
17970,-3.8723,0.2963,0.6559,1820.56,-171.33,1860.60
17980,-3.8723,0.2980,0.6538,1929.93,-46.33,1673.10
17990,-3.8723,0.3008,0.6504,-1851.32,-311.95,1423.10
18000,-3.8723,0.3036,0.6488,-1491.94,-749.45,1235.60
18010,-3.8723,0.3053,0.6494,-1132.57,-952.58,1126.22
18020,-3.8723,0.3047,0.6511,-913.82,-874.45,1016.85
18030,-3.8723,0.3037,0.6530,-991.94,-655.70,829.35
18040,-3.8723,0.3041,0.6537,-1116.94,-421.33,594.97
18050,-3.8723,0.3042,0.6520,-1070.07,-327.58,282.47
18060,-3.8724,0.3037,0.6477,-1054.44,-546.33,-76.90
18070,-3.8724,0.3047,0.6442,-1116.94,-1093.20,-342.53
18080,-3.8724,0.3083,0.6442,-991.94,-1546.33,-436.28
18090,-3.8724,0.3125,0.6470,-523.19,-1546.33,-139.40
18100,-3.8723,0.3142,0.6497,8.06,-1186.89,313.72
18110,-3.8723,0.3131,0.6519,226.81,-843.14,594.97
18120,-3.8723,0.3113,0.6534,86.18,-561.89,688.72
18130,-3.8723,0.3109,0.6532,-148.19,-358.83,594.97
18140,-3.8723,0.3116,0.6511,-195.07,-390.08,391.85
18150,-3.8723,0.3127,0.6488,-101.32,-655.70,219.97
18160,-3.8723,0.3135,0.6475,39.31,-952.51,173.10
18170,-3.8723,0.3147,0.6499,133.06,-1124.39,298.10
18180,-3.8723,0.3151,0.6520,289.31,-811.89,329.35
18190,-3.8723,0.3119,0.6497,336.18,-546.26,173.10
18200,-3.8724,0.3063,0.6483,-70.07,-843.20,-108.15
18210,-3.8724,0.3040,0.6484,-788.82,-1015.08,-436.28
18220,-3.8724,0.3070,0.6490,-1085.69,-999.45,-639.40
18230,-3.8724,0.3123,0.6495,-695.07,-921.33,-670.65
18240,-3.8724,0.3174,0.6484,-23.19,-858.83,-514.40
18250,-3.8724,0.3197,0.6462,633.06,-999.39,-295.65
18260,-3.8724,0.3174,0.6447,929.93,-1280.64,-76.90
18270,-3.8723,0.3119,0.6455,633.06,-1483.76,219.97
18280,-3.8723,0.3053,0.6481,-70.07,-1374.45,610.60
18290,-3.8723,0.2997,0.6494,-913.82,-1046.33,1001.22
18300,-3.8723,0.2968,0.6497,-1632.57,-874.45,1313.72
18310,-3.8723,0.2966,0.6503,1992.43,-843.20,1563.72
18320,-3.8723,0.2986,0.6528,1976.81,-765.08,1735.60
18330,-3.8723,0.3009,0.6562,-1773.19,-436.95,1719.97
18340,-3.8723,0.3014,0.6580,-1476.32,0.55,1610.66
18350,-3.8723,0.2992,0.6567,-1413.82,219.30,1470.03
18360,-3.8723,0.2963,0.6532,-1695.07,63.05,1141.91
18370,-3.8723,0.2949,0.6501,1929.93,-390.08,798.10
18380,-3.8723,0.2953,0.6505,1758.06,-780.70,735.60
18390,-3.8723,0.2970,0.6537,1804.93,-733.83,829.35
18400,-3.8723,0.2988,0.6562,-1976.32,-327.58,1016.85
18410,-3.8723,0.2991,0.6573,-1741.94,0.55,1298.16
18420,-3.8723,0.2982,0.6575,-1710.69,141.17,1516.91
18430,-3.8723,0.2976,0.6571,-1820.07,156.80,1516.91
18440,-3.8723,0.2981,0.6555,-1898.19,109.92,1298.16
18450,-3.8723,0.3010,0.6525,-1835.69,-93.20,1032.47
18460,-3.8723,0.3057,0.6487,-1460.69,-483.83,798.10
18470,-3.8723,0.3094,0.6458,-866.94,-968.20,563.72
18480,-3.8723,0.3115,0.6443,-382.57,-1343.20,329.35
18490,-3.8723,0.3125,0.6448,-116.94,-1530.70,173.10
18500,-3.8724,0.3135,0.6453,8.06,-1468.14,-92.53
18510,-3.8724,0.3153,0.6448,133.06,-1405.64,-530.03
18520,-3.8724,0.3167,0.6429,367.43,-1468.14,-967.53
18530,-3.8724,0.3176,0.6407,539.31,-1702.51,-1280.03
18540,-3.8724,0.3186,0.6401,664.31,-1983.76,-1451.90
18550,-3.8724,0.3185,0.6414,789.31,1938.11,-1498.78
18560,-3.8724,0.3165,0.6423,773.68,-1905.64,-1436.28
18570,-3.8724,0.3135,0.6421,523.68,-1780.64,-1373.78
18580,-3.8724,0.3110,0.6421,133.06,-1811.89,-1123.78
18590,-3.8724,0.3098,0.6433,-179.44,-1811.95,-639.40
18600,-3.8724,0.3101,0.6466,-335.69,-1655.70,-233.15
18610,-3.8723,0.3113,0.6498,-304.44,-1233.83,16.85
18620,-3.8723,0.3116,0.6501,-148.19,-827.58,391.85
18630,-3.8723,0.3113,0.6504,-101.32,-780.70,829.35
18640,-3.8723,0.3112,0.6517,-148.19,-749.45,1157.47
18650,-3.8723,0.3101,0.6527,-163.82,-577.58,1329.35
18660,-3.8723,0.3081,0.6526,-304.44,-452.58,1579.35
18670,-3.8723,0.3058,0.6521,-554.44,-468.20,1907.47
18680,-3.8723,0.3031,0.6515,-851.32,-530.70,-1920.65
18690,-3.8723,0.3003,0.6509,-1195.07,-608.83,-1842.53
18700,-3.8723,0.2991,0.6521,-1554.44,-686.95,-1936.28
18710,-3.8723,0.2991,0.6545,-1710.69,-530.70,1844.97
18720,-3.8723,0.2985,0.6558,-1710.69,-218.20,1391.85
18730,-3.8723,0.2981,0.6556,-1788.82,-61.95,813.72
18740,-3.8723,0.2992,0.6539,-1835.69,-77.58,188.72
18750,-3.8724,0.3022,0.6516,-1695.07,-296.33,-545.65
18760,-3.8724,0.3075,0.6493,-1304.44,-593.20,-1201.90
18770,-3.8724,0.3140,0.6473,-632.57,-890.08,-1670.65
18780,-3.8724,0.3191,0.6472,195.56,-1140.01,-1795.65
18790,-3.8724,0.3207,0.6478,851.81,-1155.64,-1701.90
18800,-3.8724,0.3185,0.6467,1054.93,-1077.51,-1373.78
18810,-3.8724,0.3145,0.6455,773.68,-1218.14,-826.90
18820,-3.8724,0.3107,0.6464,258.06,-1374.39,-405.03
18830,-3.8724,0.3081,0.6486,-226.32,-1265.08,-45.65
18840,-3.8723,0.3073,0.6508,-554.44,-983.83,454.35
18850,-3.8723,0.3079,0.6530,-663.82,-702.58,1032.47
18860,-3.8723,0.3092,0.6542,-585.69,-421.33,1532.47
18870,-3.8723,0.3110,0.6538,-413.82,-265.08,1844.97
18880,-3.8723,0.3129,0.6522,-179.44,-311.95,-1983.15
18890,-3.8723,0.3146,0.6505,54.93,-515.01,-1905.03
18900,-3.8723,0.3149,0.6495,273.68,-733.76,-1826.90
18910,-3.8723,0.3135,0.6484,320.56,-858.76,-1748.78
18920,-3.8723,0.3119,0.6464,133.06,-999.39,-1717.53
18930,-3.8723,0.3107,0.6458,-70.07,-1265.08,-1686.28
18940,-3.8723,0.3096,0.6475,-226.32,-1343.20,-1701.90
18950,-3.8723,0.3087,0.6505,-366.94,-1124.45,-1842.53
18960,-3.8723,0.3073,0.6533,-476.32,-733.83,1923.10
18970,-3.8723,0.3057,0.6549,-663.82,-374.45,1610.60
18980,-3.8723,0.3052,0.6528,-866.94,-171.33,1251.22
18990,-3.8723,0.3048,0.6481,-929.44,-436.95,844.97
19000,-3.8723,0.3047,0.6465,-976.32,-1046.33,407.47
19010,-3.8723,0.3057,0.6489,-991.94,-1249.45,16.85
19020,-3.8724,0.3062,0.6522,-866.94,-936.95,-170.65
19030,-3.8724,0.3057,0.6548,-804.44,-515.08,-264.40
19040,-3.8724,0.3041,0.6556,-866.94,-186.95,-483.15
19050,-3.8724,0.3009,0.6550,-1070.07,-77.58,-670.65
19060,-3.8724,0.2985,0.6533,-1476.32,-155.70,-764.40
19070,-3.8724,0.2993,0.6516,-1788.82,-374.45,-826.90
19080,-3.8724,0.3030,0.6508,-1679.44,-593.20,-811.28
19090,-3.8724,0.3073,0.6498,-1210.69,-702.58,-748.78
19100,-3.8724,0.3101,0.6490,-663.82,-827.58,-733.15
19110,-3.8724,0.3105,0.6493,-304.44,-921.33,-826.90
19120,-3.8724,0.3091,0.6499,-241.94,-890.08,-951.90
19130,-3.8724,0.3086,0.6499,-429.44,-811.95,-764.40
19140,-3.8724,0.3097,0.6497,-491.94,-811.95,-358.15
19150,-3.8724,0.3124,0.6487,-351.32,-843.20,-170.65
19160,-3.8724,0.3162,0.6476,-7.57,-968.20,-76.90
19170,-3.8723,0.3193,0.6471,476.81,-1108.76,48.10
19180,-3.8723,0.3208,0.6475,883.06,-1171.26,251.22
19190,-3.8723,0.3209,0.6497,1070.56,-1124.39,657.47
19200,-3.8723,0.3199,0.6525,1086.18,-843.14,1094.97
19210,-3.8723,0.3171,0.6547,961.18,-483.76,1423.10
19220,-3.8723,0.3135,0.6559,601.81,-202.51,1704.35
19230,-3.8723,0.3110,0.6554,133.06,-46.26,1860.60
19240,-3.8723,0.3098,0.6537,-179.44,-108.83,1829.35
19250,-3.8723,0.3105,0.6525,-335.69,-327.58,1626.22
19260,-3.8723,0.3124,0.6521,-241.94,-483.83,1360.60
19270,-3.8723,0.3145,0.6515,-7.57,-530.70,1110.60
19280,-3.8723,0.3152,0.6509,258.06,-608.76,923.10
19290,-3.8723,0.3145,0.6498,351.81,-686.89,766.85
19300,-3.8723,0.3130,0.6477,258.06,-827.51,516.85
19310,-3.8723,0.3113,0.6464,70.56,-1093.14,1.22
19320,-3.8724,0.3102,0.6458,-148.19,-1265.08,-451.90
19330,-3.8724,0.3107,0.6456,-288.82,-1343.20,-545.65
19340,-3.8724,0.3125,0.6465,-226.32,-1358.83,-498.78
19350,-3.8724,0.3132,0.6479,8.06,-1249.39,-545.65
19360,-3.8724,0.3116,0.6499,101.81,-1061.89,-530.03
19370,-3.8724,0.3086,0.6504,-101.32,-811.95,-545.65
19380,-3.8724,0.3063,0.6499,-491.94,-749.45,-686.28
19390,-3.8724,0.3062,0.6499,-788.82,-811.95,-858.15
19400,-3.8724,0.3080,0.6495,-804.44,-811.95,-967.53
19410,-3.8724,0.3113,0.6492,-570.07,-858.83,-951.90
19420,-3.8724,0.3130,0.6482,-148.19,-905.70,-951.90
19430,-3.8724,0.3115,0.6466,70.56,-1030.64,-764.40
19440,-3.8724,0.3097,0.6456,-116.94,-1233.83,-217.53
19450,-3.8723,0.3088,0.6459,-351.32,-1358.83,501.22
19460,-3.8723,0.3096,0.6473,-460.69,-1327.58,1313.72
19470,-3.8723,0.3123,0.6489,-366.94,-1140.08,-1748.78
19480,-3.8723,0.3145,0.6510,-23.19,-936.95,-826.90
19490,-3.8723,0.3142,0.6523,258.06,-671.26,-139.40
19500,-3.8722,0.3123,0.6523,226.81,-499.39,188.72
19510,-3.8723,0.3093,0.6514,-23.19,-499.45,-14.40
19520,-3.8723,0.3069,0.6487,-398.19,-624.45,-670.65
19530,-3.8723,0.3059,0.6445,-710.69,-968.20,-1561.28
19540,-3.8723,0.3077,0.6421,-835.69,-1499.45,1298.10
19550,-3.8723,0.3123,0.6426,-601.32,-1811.95,110.60
19560,-3.8724,0.3168,0.6444,-23.19,-1749.45,-795.65
19570,-3.8724,0.3186,0.6461,554.93,-1515.01,-1436.28
19580,-3.8724,0.3160,0.6462,789.31,-1296.26,-1858.15
19590,-3.8724,0.3109,0.6451,461.18,-1280.64,1766.85
19600,-3.8724,0.3062,0.6444,-195.07,-1421.33,1360.60
19610,-3.8724,0.3021,0.6445,-804.44,-1515.08,1001.22
19620,-3.8724,0.3007,0.6444,-1320.07,-1499.45,844.97
19630,-3.8724,0.3041,0.6443,-1507.57,-1515.08,1048.10
19640,-3.8724,0.3093,0.6453,-1070.07,-1530.70,1594.97
19650,-3.8724,0.3132,0.6470,-398.19,-1405.70,-1717.53
19660,-3.8724,0.3157,0.6484,101.81,-1186.89,-1108.15
19670,-3.8724,0.3165,0.6483,414.31,-999.39,-530.03
19680,-3.8724,0.3151,0.6470,523.68,-1015.01,-45.65
19690,-3.8723,0.3123,0.6456,336.18,-1186.89,126.22
19700,-3.8723,0.3113,0.6455,-23.19,-1358.83,110.60
19710,-3.8723,0.3147,0.6469,-148.19,-1374.45,1.22
19720,-3.8724,0.3199,0.6493,289.31,-1202.51,-61.28
19730,-3.8724,0.3228,0.6510,961.18,-890.01,-45.65
19740,-3.8724,0.3217,0.6494,1320.56,-671.26,-14.40
19750,-3.8723,0.3187,0.6460,1179.93,-874.39,48.10
19760,-3.8723,0.3171,0.6448,804.93,-1311.89,266.85
19770,-3.8723,0.3171,0.6462,601.81,-1468.14,626.22
19780,-3.8723,0.3169,0.6479,601.81,-1280.64,891.85
19790,-3.8723,0.3154,0.6489,570.56,-1061.89,1048.10
19800,-3.8723,0.3130,0.6493,383.06,-936.89,1173.10
19810,-3.8723,0.3110,0.6498,70.56,-890.01,1204.35
19820,-3.8723,0.3110,0.6498,-179.44,-827.58,1079.35
19830,-3.8723,0.3130,0.6488,-179.44,-827.58,985.60
19840,-3.8723,0.3165,0.6469,70.56,-952.51,969.97
19850,-3.8723,0.3203,0.6443,523.68,-1202.51,876.22
19860,-3.8723,0.3231,0.6432,1008.06,-1530.64,766.85
19870,-3.8723,0.3231,0.6437,1367.43,-1671.26,626.22
19880,-3.8723,0.3188,0.6448,1367.43,-1608.76,641.85
19890,-3.8723,0.3136,0.6466,820.56,-1468.14,876.22
19900,-3.8723,0.3092,0.6493,148.68,-1233.76,1110.60
19910,-3.8723,0.3048,0.6522,-413.82,-890.08,1282.47
19920,-3.8723,0.3013,0.6555,-976.32,-515.08,1469.97
19930,-3.8723,0.2992,0.6566,-1429.44,-93.20,1548.10
19940,-3.8723,0.2997,0.6554,-1695.07,47.42,1501.28
19950,-3.8723,0.3037,0.6533,-1632.57,-108.83,1298.10
19960,-3.8723,0.3090,0.6508,-1116.94,-374.45,876.22
19970,-3.8723,0.3137,0.6492,-445.07,-702.58,344.97
19980,-3.8724,0.3163,0.6477,164.31,-905.64,-30.03
19990,-3.8724,0.3149,0.6447,492.43,-1093.14,-248.78
20000,-3.8724,0.3121,0.6425,320.56,-1483.76,-467.53
20010,-3.8724,0.3103,0.6440,-38.82,-1765.08,-483.15
20020,-3.8724,0.3092,0.6479,-273.19,-1561.95,-280.03
20030,-3.8724,0.3082,0.6499,-413.82,-1061.95,-170.65
20040,-3.8724,0.3076,0.6488,-538.82,-811.95,-123.78
20050,-3.8724,0.3086,0.6466,-616.94,-952.58,-233.15
20060,-3.8724,0.3116,0.6447,-491.94,-1233.83,-498.78
20070,-3.8724,0.3156,0.6437,-101.32,-1483.83,-623.78
20080,-3.8724,0.3181,0.6437,398.68,-1608.76,-670.65
20090,-3.8724,0.3199,0.6439,726.81,-1608.76,-686.28
20100,-3.8724,0.3218,0.6437,961.18,-1577.51,-561.28
20110,-3.8724,0.3226,0.6434,1195.56,-1608.76,-295.65
20120,-3.8723,0.3226,0.6442,1304.93,-1640.01,48.10
20130,-3.8723,0.3218,0.6464,1304.93,-1546.26,313.72
20140,-3.8723,0.3192,0.6486,1195.56,-1265.01,532.47
20150,-3.8723,0.3157,0.6500,867.43,-983.76,813.72
20160,-3.8723,0.3132,0.6498,414.31,-796.26,1001.22
20170,-3.8723,0.3123,0.6483,101.81,-827.51,1032.47
20180,-3.8723,0.3125,0.6477,-23.19,-1015.08,1141.85
20190,-3.8723,0.3132,0.6482,8.06,-1093.14,1282.47
20200,-3.8723,0.3136,0.6493,101.81,-1030.64,1391.85
20210,-3.8723,0.3134,0.6506,148.68,-890.01,1610.60
20220,-3.8723,0.3113,0.6517,117.43,-718.14,1844.97
20230,-3.8723,0.3083,0.6521,-148.19,-577.58,1782.47
20240,-3.8723,0.3074,0.6509,-523.19,-530.70,1313.72
20250,-3.8723,0.3077,0.6499,-648.19,-686.95,704.35
20260,-3.8723,0.3079,0.6495,-601.32,-811.95,126.22
20270,-3.8724,0.3076,0.6483,-585.69,-858.83,-201.90
20280,-3.8724,0.3076,0.6471,-616.94,-1015.08,-311.28
20290,-3.8724,0.3090,0.6470,-616.94,-1171.33,-248.78
20300,-3.8723,0.3102,0.6484,-445.07,-1186.95,110.60
20310,-3.8723,0.3080,0.6505,-288.82,-999.45,579.35
20320,-3.8723,0.3046,0.6511,-570.07,-733.83,782.47
20330,-3.8723,0.3041,0.6500,-1007.57,-655.70,719.97
20340,-3.8723,0.3063,0.6481,-1070.07,-796.33,563.72
20350,-3.8723,0.3099,0.6471,-788.82,-1046.33,298.10
20360,-3.8723,0.3141,0.6477,-320.07,-1171.33,1.22
20370,-3.8724,0.3153,0.6481,211.18,-1093.14,-201.90
20380,-3.8724,0.3132,0.6466,367.43,-1046.26,-264.40
20390,-3.8724,0.3108,0.6440,101.81,-1233.76,-311.28
20400,-3.8724,0.3112,0.6423,-210.69,-1561.95,-280.03
20410,-3.8724,0.3152,0.6438,-163.82,-1780.70,-217.53
20420,-3.8724,0.3196,0.6475,351.81,-1593.14,-217.53
20430,-3.8724,0.3206,0.6498,914.31,-1124.39,-248.78
20440,-3.8724,0.3179,0.6503,1039.31,-827.51,-155.03
20450,-3.8723,0.3138,0.6501,695.56,-765.01,219.97
20460,-3.8723,0.3101,0.6499,179.93,-780.64,516.85
20470,-3.8723,0.3077,0.6494,-304.44,-811.95,610.60
20480,-3.8723,0.3074,0.6484,-601.32,-874.45,626.22
20490,-3.8723,0.3073,0.6478,-648.19,-999.45,485.60
20500,-3.8723,0.3066,0.6481,-663.82,-1077.58,282.47
20510,-3.8723,0.3071,0.6487,-741.94,-1046.33,157.47
20520,-3.8723,0.3087,0.6499,-679.44,-968.20,173.10
20530,-3.8723,0.3093,0.6517,-476.32,-811.95,313.72
20540,-3.8723,0.3086,0.6533,-398.19,-577.58,626.22
20550,-3.8723,0.3070,0.6536,-491.94,-374.45,1063.72
20560,-3.8723,0.3047,0.6530,-695.07,-343.20,1391.85
20570,-3.8723,0.3027,0.6531,-991.94,-421.33,1376.22
20580,-3.8723,0.3030,0.6537,-1241.94,-405.70,1157.47
20590,-3.8723,0.3057,0.6538,-1210.69,-327.58,798.10
20600,-3.8723,0.3097,0.6523,-866.94,-311.95,344.97
20610,-3.8723,0.3140,0.6493,-351.32,-499.45,32.47
20620,-3.8724,0.3173,0.6469,195.56,-890.01,-45.65
20630,-3.8723,0.3179,0.6469,617.43,-1202.51,204.35
20640,-3.8723,0.3160,0.6490,695.56,-1202.51,563.72
20650,-3.8723,0.3134,0.6505,461.18,-921.26,782.47
20660,-3.8723,0.3107,0.6510,117.43,-733.76,782.47
20670,-3.8723,0.3087,0.6511,-226.32,-671.33,563.72
20680,-3.8723,0.3082,0.6488,-476.32,-655.70,173.10
20690,-3.8724,0.3104,0.6450,-538.82,-952.58,-248.78
20700,-3.8724,0.3145,0.6432,-257.57,-1436.95,-483.15
20710,-3.8724,0.3176,0.6444,258.06,-1671.26,-576.90
20720,-3.8724,0.3180,0.6473,664.31,-1515.01,-576.90
20730,-3.8724,0.3143,0.6497,711.18,-1140.01,-342.53
20740,-3.8723,0.3080,0.6498,242.43,-843.14,126.22
20750,-3.8723,0.3018,0.6489,-570.07,-827.58,469.97
20760,-3.8723,0.2986,0.6484,-1366.94,-936.95,516.85
20770,-3.8723,0.3005,0.6488,-1773.19,-999.45,454.35
20780,-3.8723,0.3054,0.6503,-1523.19,-952.58,579.35
20790,-3.8723,0.3101,0.6514,-898.19,-765.08,798.10
20800,-3.8723,0.3123,0.6519,-304.44,-624.45,907.47
20810,-3.8723,0.3116,0.6523,-23.19,-561.95,876.22
20820,-3.8723,0.3105,0.6526,-101.32,-499.45,641.85
20830,-3.8723,0.3094,0.6512,-241.94,-468.20,391.85
20840,-3.8723,0.3101,0.6483,-382.57,-640.08,344.97
20850,-3.8723,0.3119,0.6460,-304.44,-1015.08,501.22
20860,-3.8723,0.3120,0.6459,-70.07,-1311.95,782.47
20870,-3.8723,0.3097,0.6478,-54.44,-1327.58,1063.72
20880,-3.8723,0.3047,0.6511,-351.32,-1077.58,1266.85
20890,-3.8723,0.2992,0.6541,-991.94,-655.70,1282.47
20900,-3.8723,0.2974,0.6543,-1695.07,-280.70,1079.35
20910,-3.8723,0.2994,0.6517,-1929.44,-249.45,782.47
20920,-3.8723,0.3037,0.6489,-1663.82,-577.58,469.97
20930,-3.8723,0.3097,0.6470,-1116.94,-936.95,94.97
20940,-3.8724,0.3157,0.6461,-351.32,-1186.95,-217.53
20950,-3.8724,0.3192,0.6461,414.31,-1296.26,-264.40
20960,-3.8724,0.3179,0.6465,867.43,-1296.26,-108.15
20970,-3.8723,0.3126,0.6475,695.56,-1249.39,188.72
20980,-3.8723,0.3055,0.6506,23.68,-1124.39,626.22
20990,-3.8723,0.2988,0.6545,-882.57,-718.20,1079.35
21000,-3.8723,0.2949,0.6567,-1741.94,-218.20,1219.97
21010,-3.8723,0.2958,0.6562,1758.06,63.05,1016.91
21020,-3.8723,0.3002,0.6537,1867.43,0.55,735.66
21030,-3.8723,0.3066,0.6501,-1570.07,-327.58,298.10
21040,-3.8724,0.3131,0.6459,-741.94,-780.70,-201.90
21050,-3.8724,0.3182,0.6422,86.18,-1327.51,-498.78
21060,-3.8724,0.3212,0.6409,742.43,-1796.26,-561.28
21070,-3.8724,0.3193,0.6418,1117.43,-1968.14,-483.15
21080,-3.8724,0.3142,0.6445,883.06,-1843.14,-342.53
21090,-3.8724,0.3079,0.6479,226.81,-1499.39,-186.28
21100,-3.8723,0.3024,0.6519,-585.69,-1061.95,79.35
21110,-3.8723,0.2993,0.6545,-1288.82,-561.95,344.97
21120,-3.8723,0.2994,0.6543,-1679.44,-218.20,407.47
21130,-3.8723,0.3027,0.6519,-1663.82,-249.45,329.35
21140,-3.8723,0.3081,0.6494,-1241.94,-561.95,329.35
21150,-3.8723,0.3134,0.6487,-554.44,-874.45,423.10
21160,-3.8723,0.3159,0.6501,117.43,-968.14,454.35
21170,-3.8723,0.3149,0.6517,445.56,-780.64,391.85
21180,-3.8723,0.3104,0.6516,320.56,-577.51,329.35
21190,-3.8723,0.3038,0.6506,-257.57,-593.20,282.47
21200,-3.8723,0.2985,0.6504,-1101.32,-718.20,501.22
21210,-3.8723,0.2976,0.6519,-1788.82,-749.45,1110.60
21220,-3.8723,0.3016,0.6555,-1898.19,-561.95,1751.22
21230,-3.8723,0.3069,0.6578,-1382.57,-93.20,-1795.65
21240,-3.8723,0.3094,0.6561,-710.69,203.67,-1639.34
21250,-3.8723,0.3091,0.6522,-382.57,-15.08,-1780.03
21260,-3.8723,0.3079,0.6486,-429.44,-515.08,1938.72
21270,-3.8723,0.3079,0.6467,-585.69,-983.83,1548.10
21280,-3.8723,0.3088,0.6467,-585.69,-1218.20,1094.97
21290,-3.8723,0.3097,0.6461,-460.69,-1218.20,626.22
21300,-3.8723,0.3096,0.6458,-351.32,-1296.33,173.10
21310,-3.8724,0.3081,0.6471,-366.94,-1343.20,-326.90
21320,-3.8724,0.3066,0.6493,-554.44,-1171.33,-780.03
21330,-3.8724,0.3054,0.6499,-741.94,-890.08,-1014.40
21340,-3.8724,0.3051,0.6495,-898.19,-811.95,-1092.53
21350,-3.8724,0.3051,0.6490,-945.07,-858.83,-1092.53
21360,-3.8724,0.3048,0.6494,-945.07,-921.33,-1030.03
21370,-3.8724,0.3040,0.6510,-976.32,-874.45,-920.65
21380,-3.8724,0.3024,0.6527,-1085.69,-671.33,-686.28
21390,-3.8724,0.3014,0.6542,-1288.82,-452.58,-248.78
21400,-3.8723,0.3033,0.6552,-1413.82,-265.08,204.35
21410,-3.8723,0.3087,0.6553,-1163.82,-140.08,454.35
21420,-3.8723,0.3137,0.6534,-476.32,-124.45,485.60
21430,-3.8723,0.3160,0.6505,164.31,-358.76,438.72
21440,-3.8723,0.3170,0.6478,461.18,-733.76,391.85
21450,-3.8723,0.3185,0.6466,586.18,-1077.51,469.97
21460,-3.8723,0.3202,0.6471,773.68,-1233.76,766.85
21470,-3.8723,0.3213,0.6488,992.43,-1171.26,1188.72
21480,-3.8723,0.3212,0.6506,1133.06,-952.51,1501.22
21490,-3.8723,0.3198,0.6509,1117.43,-718.14,1641.85
21500,-3.8723,0.3169,0.6487,945.56,-686.89,1501.22
21510,-3.8723,0.3145,0.6456,570.56,-968.14,1094.97
21520,-3.8723,0.3151,0.6449,258.06,-1358.76,735.60
21530,-3.8723,0.3171,0.6465,336.18,-1452.51,532.47
21540,-3.8723,0.3187,0.6483,601.81,-1249.39,423.10
21550,-3.8723,0.3177,0.6495,804.93,-1015.01,391.85
21560,-3.8723,0.3140,0.6500,679.93,-858.76,313.72
21570,-3.8723,0.3090,0.6508,195.56,-796.26,188.72
21580,-3.8723,0.3051,0.6516,-445.07,-702.58,157.47
21590,-3.8723,0.3038,0.6516,-945.07,-593.20,141.85
21600,-3.8723,0.3059,0.6519,-1101.32,-593.20,204.35
21610,-3.8723,0.3092,0.6525,-835.69,-561.95,423.10
21620,-3.8723,0.3118,0.6526,-413.82,-483.83,532.47
21630,-3.8723,0.3136,0.6517,-85.69,-468.20,391.85
21640,-3.8723,0.3138,0.6509,148.68,-577.51,219.97
21650,-3.8723,0.3120,0.6519,179.93,-686.89,126.22
21660,-3.8724,0.3101,0.6537,-54.44,-561.95,-30.03
21670,-3.8724,0.3098,0.6536,-304.44,-327.58,-280.03
21680,-3.8724,0.3104,0.6512,-335.69,-343.20,-561.28
21690,-3.8724,0.3126,0.6483,-257.57,-640.08,-748.78
21700,-3.8724,0.3165,0.6477,23.68,-1015.01,-670.65
21710,-3.8724,0.3201,0.6492,523.68,-1093.14,-295.65
21720,-3.8723,0.3206,0.6509,976.81,-905.64,157.47
21730,-3.8723,0.3176,0.6517,1039.31,-686.89,704.35
21740,-3.8723,0.3146,0.6510,664.31,-577.51,1126.22
21750,-3.8723,0.3132,0.6501,273.68,-671.26,1266.85
21760,-3.8723,0.3132,0.6495,101.81,-780.64,1282.47
21770,-3.8723,0.3130,0.6482,101.81,-858.76,1266.85
21780,-3.8723,0.3126,0.6466,70.56,-1030.64,1110.60
21790,-3.8723,0.3130,0.6453,23.68,-1233.76,860.60
21800,-3.8723,0.3135,0.6449,70.56,-1405.64,657.47
21810,-3.8723,0.3140,0.6456,133.06,-1452.51,313.72
21820,-3.8724,0.3153,0.6459,195.56,-1358.76,-217.53
21830,-3.8724,0.3159,0.6451,367.43,-1327.51,-670.65
21840,-3.8724,0.3147,0.6450,445.56,-1421.26,-748.78
21850,-3.8724,0.3116,0.6458,289.31,-1436.89,-467.53
21860,-3.8724,0.3081,0.6472,-101.32,-1343.20,-14.40
21870,-3.8723,0.3059,0.6495,-554.44,-1155.70,376.22
21880,-3.8723,0.3059,0.6511,-835.69,-858.83,563.72
21890,-3.8723,0.3058,0.6516,-835.69,-655.70,782.47
21900,-3.8723,0.3049,0.6515,-851.32,-593.20,1094.97
21910,-3.8723,0.3046,0.6514,-960.69,-608.83,1407.47
21920,-3.8723,0.3044,0.6522,-1007.57,-624.45,1532.47
21930,-3.8723,0.3035,0.6519,-1023.19,-515.08,1376.22
21940,-3.8723,0.3010,0.6495,-1148.19,-561.95,1126.22
21950,-3.8723,0.2980,0.6470,-1460.69,-858.83,907.47
21960,-3.8723,0.2970,0.6450,-1851.32,-1186.95,626.22
21970,-3.8723,0.2992,0.6449,-1976.32,-1436.95,454.35
21980,-3.8723,0.3040,0.6473,-1695.07,-1452.58,657.47
21990,-3.8723,0.3097,0.6501,-1085.69,-1140.08,1048.10
22000,-3.8723,0.3131,0.6515,-351.32,-780.70,1423.10
22010,-3.8723,0.3130,0.6520,86.18,-608.76,1626.22
22020,-3.8723,0.3118,0.6508,70.56,-546.26,1563.72
22030,-3.8723,0.3109,0.6478,-85.69,-702.58,1235.60
22040,-3.8723,0.3116,0.6459,-195.07,-1077.58,798.10
22050,-3.8723,0.3158,0.6467,-101.32,-1327.58,329.35
22060,-3.8724,0.3206,0.6495,429.93,-1218.14,-233.15
22070,-3.8724,0.3225,0.6515,1039.31,-858.76,-889.40
22080,-3.8724,0.3224,0.6510,1289.31,-608.76,-1608.15
22090,-3.8724,0.3209,0.6486,1273.68,-671.26,1844.97
22100,-3.8724,0.3201,0.6456,1086.18,-983.76,1579.35
22110,-3.8724,0.3210,0.6437,976.81,-1358.76,1454.35
22120,-3.8724,0.3237,0.6436,1101.81,-1608.76,1501.22
22130,-3.8724,0.3274,0.6450,1445.56,-1624.39,1798.10
22140,-3.8724,0.3293,0.6469,1914.31,-1436.89,-1826.90
22150,-3.8724,0.3279,0.6477,-1835.69,-1202.51,-1483.15
22160,-3.8724,0.3250,0.6472,1976.81,-1093.14,-1076.90
22170,-3.8724,0.3226,0.6453,1601.81,-1155.64,-733.15
22180,-3.8724,0.3224,0.6428,1304.93,-1405.64,-561.28
22190,-3.8724,0.3250,0.6425,1273.68,-1718.14,-545.65
22200,-3.8724,0.3269,0.6436,1601.81,-1765.01,-576.90
22210,-3.8724,0.3254,0.6450,1851.81,-1624.39,-342.53
22220,-3.8723,0.3221,0.6484,1664.31,-1436.89,157.47
22230,-3.8723,0.3169,0.6538,1242.43,-999.39,563.72
22240,-3.8723,0.3105,0.6583,570.56,-311.89,938.72
22250,-3.8723,0.3058,0.6598,-241.94,266.17,1423.16
22260,-3.8723,0.3054,0.6592,-851.32,453.67,1829.41
22270,-3.8723,0.3086,0.6583,-898.19,375.55,-1936.22
22280,-3.8723,0.3119,0.6577,-491.94,266.17,-1920.59
22290,-3.8723,0.3134,0.6569,-70.07,188.05,1954.41
22300,-3.8723,0.3127,0.6558,117.43,78.74,1923.16
22310,-3.8723,0.3123,0.6538,39.31,-61.89,1735.60
22320,-3.8723,0.3142,0.6499,-23.19,-311.95,1173.10
22330,-3.8723,0.3167,0.6439,226.81,-811.89,423.10
22340,-3.8724,0.3176,0.6383,539.31,-1577.51,-280.03
22350,-3.8724,0.3171,0.6364,664.31,1703.74,-608.15
22360,-3.8724,0.3145,0.6389,601.81,1453.74,-467.53
22370,-3.8724,0.3092,0.6442,258.06,1781.86,-139.40
22380,-3.8723,0.3015,0.6494,-413.82,-1546.33,188.72
22390,-3.8723,0.2935,0.6537,-1398.19,-874.45,376.22
22400,-3.8723,0.2881,0.6560,1570.56,-327.58,376.22
22410,-3.8723,0.2870,0.6567,883.06,-30.70,313.72
22420,-3.8723,0.2906,0.6552,742.43,63.05,298.16
22430,-3.8723,0.2985,0.6517,1211.18,-140.08,298.10
22440,-3.8723,0.3066,0.6493,-1788.82,-577.58,438.72
22450,-3.8723,0.3113,0.6479,-741.94,-890.08,782.47
22460,-3.8723,0.3109,0.6483,-148.19,-1061.95,1235.60
22470,-3.8723,0.3071,0.6497,-195.07,-1015.08,1563.72
22480,-3.8723,0.3035,0.6517,-679.44,-843.20,1704.35
22490,-3.8723,0.3014,0.6536,-1148.19,-577.58,1704.35
22500,-3.8723,0.3021,0.6543,-1413.82,-343.20,1594.97
22510,-3.8723,0.3053,0.6533,-1320.07,-249.45,1438.72
22520,-3.8723,0.3099,0.6510,-913.82,-374.45,1157.47
22530,-3.8723,0.3147,0.6481,-320.07,-671.33,673.10
22540,-3.8723,0.3187,0.6447,289.31,-1046.26,266.85
22550,-3.8724,0.3221,0.6415,804.93,-1483.76,-30.03
22560,-3.8724,0.3230,0.6399,1242.43,-1890.01,-514.40
22570,-3.8724,0.3214,0.6393,1351.81,1906.86,-998.78
22580,-3.8724,0.3193,0.6395,1148.68,1828.74,-1280.03
22590,-3.8724,0.3177,0.6411,883.06,1859.99,-1373.78
22600,-3.8724,0.3168,0.6438,679.93,-1936.89,-1326.90
22610,-3.8724,0.3158,0.6459,554.93,-1593.14,-1170.65
22620,-3.8724,0.3148,0.6465,429.93,-1327.51,-1014.40
22630,-3.8724,0.3146,0.6458,304.93,-1249.39,-936.28
22640,-3.8724,0.3153,0.6459,273.68,-1343.14,-936.28
22650,-3.8724,0.3182,0.6476,367.43,-1327.51,-1014.40
22660,-3.8724,0.3210,0.6486,742.43,-1108.76,-1139.40
22670,-3.8724,0.3221,0.6477,1101.81,-983.76,-1108.15
22680,-3.8724,0.3214,0.6461,1242.43,-1093.14,-795.65
22690,-3.8724,0.3191,0.6450,1148.68,-1296.26,-311.28
22700,-3.8723,0.3170,0.6454,851.81,-1436.89,266.85
22710,-3.8723,0.3163,0.6469,586.18,-1390.01,829.35
22720,-3.8723,0.3164,0.6478,492.43,-1202.51,1204.35
22730,-3.8723,0.3165,0.6482,508.06,-1077.51,1532.47
22740,-3.8723,0.3153,0.6488,523.68,-1030.64,1688.72
22750,-3.8723,0.3112,0.6492,367.43,-952.51,1548.10
22760,-3.8723,0.3057,0.6479,-163.82,-905.70,1282.47
22770,-3.8723,0.3024,0.6450,-866.94,-1061.95,969.97
22780,-3.8723,0.3030,0.6429,-1288.82,-1436.95,735.60
22790,-3.8723,0.3069,0.6448,-1210.69,-1702.58,735.60
22800,-3.8723,0.3119,0.6493,-710.69,-1468.20,719.97
22810,-3.8723,0.3145,0.6531,-70.07,-890.08,704.35
22820,-3.8723,0.3118,0.6547,258.06,-405.64,844.97
22830,-3.8723,0.3058,0.6544,-85.69,-202.58,954.35
22840,-3.8723,0.3010,0.6536,-851.32,-233.83,985.60
22850,-3.8723,0.2991,0.6528,-1460.69,-343.20,1016.85
22860,-3.8723,0.3008,0.6526,-1710.69,-436.95,1063.72
22870,-3.8723,0.3043,0.6526,-1491.94,-468.20,1032.47
22880,-3.8723,0.3073,0.6526,-1038.82,-468.20,923.10
22890,-3.8723,0.3094,0.6512,-663.82,-468.20,704.35
22900,-3.8723,0.3120,0.6478,-382.57,-640.08,469.97
22910,-3.8723,0.3158,0.6440,-54.44,-1077.58,204.35
22920,-3.8724,0.3196,0.6414,429.93,-1561.89,-14.40
22930,-3.8724,0.3218,0.6409,914.31,-1905.64,-108.15
22940,-3.8724,0.3224,0.6433,1195.56,-1968.14,-108.15
22950,-3.8723,0.3209,0.6462,1273.68,-1655.64,32.47
22960,-3.8723,0.3186,0.6475,1086.18,-1280.64,251.22
22970,-3.8723,0.3170,0.6476,789.31,-1124.39,423.10
22980,-3.8723,0.3165,0.6479,586.18,-1108.76,579.35
22990,-3.8723,0.3160,0.6487,523.68,-1061.89,673.10
23000,-3.8723,0.3157,0.6492,461.18,-968.14,579.35
23010,-3.8723,0.3170,0.6487,414.31,-905.64,360.60
23020,-3.8723,0.3188,0.6482,586.18,-968.14,157.47
23030,-3.8724,0.3198,0.6479,820.56,-1030.64,-30.03
23040,-3.8724,0.3197,0.6460,945.56,-1061.89,-233.15
23050,-3.8724,0.3186,0.6437,929.93,-1311.89,-326.90
23060,-3.8724,0.3167,0.6434,789.31,-1608.76,-311.28
23070,-3.8724,0.3137,0.6437,539.31,-1640.01,-264.40
23080,-3.8724,0.3101,0.6438,164.31,-1608.76,-311.28
23090,-3.8724,0.3076,0.6443,-304.44,-1593.20,-326.90
23100,-3.8724,0.3087,0.6464,-616.94,-1530.70,-217.53
23110,-3.8723,0.3112,0.6486,-476.32,-1265.08,32.47
23120,-3.8723,0.3125,0.6486,-163.82,-983.83,360.60
23130,-3.8723,0.3125,0.6478,8.06,-983.76,688.72
23140,-3.8723,0.3118,0.6473,8.06,-1077.51,876.22
23150,-3.8723,0.3103,0.6479,-85.69,-1140.08,751.22
23160,-3.8723,0.3097,0.6495,-273.19,-1061.95,282.47
23170,-3.8724,0.3114,0.6499,-351.32,-858.83,-326.90
23180,-3.8724,0.3146,0.6483,-132.57,-811.95,-748.78
23190,-3.8724,0.3180,0.6443,273.68,-1015.01,-936.28
23200,-3.8724,0.3208,0.6403,711.18,-1530.64,-826.90
23210,-3.8724,0.3219,0.6400,1070.56,1953.74,-451.90
23220,-3.8723,0.3198,0.6439,1211.18,1922.49,63.72
23230,-3.8723,0.3134,0.6484,945.56,-1577.51,626.22
23240,-3.8723,0.3038,0.6512,117.43,-999.39,1079.35
23250,-3.8723,0.2954,0.6537,-1101.32,-640.08,1407.47
23260,-3.8723,0.2917,0.6556,1820.56,-327.58,1548.10
23270,-3.8723,0.2939,0.6549,1351.81,-77.58,1563.72
23280,-3.8723,0.3004,0.6525,1633.06,-171.33,1469.97
23290,-3.8723,0.3086,0.6498,-1538.82,-483.83,1329.35
23300,-3.8723,0.3140,0.6471,-491.94,-827.58,1313.72
23310,-3.8723,0.3143,0.6461,195.56,-1171.26,1391.85
23320,-3.8723,0.3105,0.6464,242.43,-1296.26,1360.60
23330,-3.8723,0.3051,0.6487,-241.94,-1265.08,1266.85
23340,-3.8723,0.3003,0.6527,-945.07,-968.20,1204.35
23350,-3.8723,0.2990,0.6559,-1554.44,-452.58,1157.47
23360,-3.8723,0.3016,0.6561,-1726.32,-46.33,1173.10
23370,-3.8723,0.3068,0.6531,-1382.57,-15.08,1173.10
