timestamp_ms,ax,ay,az,gx,gy,gz
0,-3.8712,-0.0802,-0.1123,1961.18,-1390.81,-562.74
10,-3.8712,-0.0706,-0.1080,1742.43,1640.44,-687.74
20,-3.8711,-0.0497,-0.1007,-1023.19,-1812.68,343.51
30,-3.8711,-0.0260,-0.0925,1648.68,-875.12,-1750.24
40,-3.8711,-0.0031,-0.0826,679.93,171.81,-62.68
50,-3.8710,0.0175,-0.0756,-382.57,1437.44,718.57
60,-3.8710,0.0321,-0.0713,-1757.57,-1671.88,406.07
70,-3.8711,0.0400,-0.0695,117.43,-1124.94,-593.93
80,-3.8711,0.0430,-0.0745,1133.06,-890.56,-1781.43
90,-3.8711,0.0465,-0.0845,1508.06,-1531.19,921.69
100,-3.8712,0.0553,-0.0933,1961.18,1187.56,-515.81
110,-3.8712,0.0704,-0.1025,-913.82,62.56,-1937.68
120,-3.8712,0.0867,-0.1147,1023.68,-1124.88,640.38
130,-3.8713,0.0912,-0.1283,-898.19,1312.62,-984.62
140,-3.8713,0.0746,-0.1436,-320.07,-421.75,1171.57
150,-3.8715,0.0465,-0.1575,1554.93,1625.12,-703.43
160,-3.8715,0.0211,-0.1661,1961.18,-156.19,1390.26
170,-3.8716,0.0083,-0.1752,-1288.82,-1265.62,-375.37
180,-3.8716,0.0135,-0.1904,1070.56,1578.12,-1687.87
190,-3.8716,0.0238,-0.2069,1742.43,-375.00,1312.07
200,-3.8716,0.0238,-0.2205,-945.07,1515.62,249.57
210,-3.8717,0.0125,-0.2318,-945.07,-218.75,-1094.24
220,-3.8717,-0.0067,-0.2413,1601.81,-1671.88,-1984.86
230,-3.8717,-0.0297,-0.2484,-851.32,1124.94,-1656.74
240,-3.8717,-0.0480,-0.2544,211.18,218.69,-437.99
250,-3.8716,-0.0554,-0.2567,1867.43,-547.00,843.20
260,-3.8716,-0.0603,-0.2478,914.31,-843.87,-1953.67
270,-3.8716,-0.0715,-0.2278,289.31,296.75,-687.99
280,-3.8715,-0.0847,-0.2024,-1148.19,-1140.81,343.26
290,-3.8715,-0.0934,-0.1781,1164.31,-1890.81,1077.70
300,-3.8715,-0.0983,-0.1591,54.93,1218.57,-1609.74
310,-3.8713,-0.1007,-0.1449,-570.07,-343.99,687.13
320,-3.8713,-0.1024,-0.1315,-882.57,1468.51,-375.31
330,-3.8712,-0.1052,-0.1134,-1101.32,-812.74,-1578.43
340,-3.8711,-0.1047,-0.0934,-1460.69,1499.76,327.88
350,-3.8711,-0.0979,-0.0758,-1398.19,62.26,1515.44
360,-3.8711,-0.0883,-0.0599,-523.19,-1687.74,-1578.31
370,-3.8711,-0.0809,-0.0466,711.18,343.57,-1109.50
380,-3.8711,-0.0808,-0.0374,1648.68,-1953.31,-656.37
390,-3.8710,-0.0829,-0.0315,1664.31,-765.81,359.25
400,-3.8710,-0.0808,-0.0267,1398.68,-15.81,1499.88
410,-3.8710,-0.0785,-0.0223,1664.31,593.57,1999.94
420,-3.8710,-0.0809,-0.0193,1961.18,1156.07,1624.94
430,-3.8710,-0.0845,-0.0184,1648.68,1546.69,953.06
440,-3.8710,-0.0798,-0.0239,1195.56,1656.07,562.44
450,-3.8710,-0.0647,-0.0374,1789.31,952.94,124.94
460,-3.8711,-0.0469,-0.0538,-273.19,-765.81,-828.25
470,-3.8711,-0.0360,-0.0681,-1991.94,1124.88,1640.50
480,-3.8712,-0.0344,-0.0796,-601.32,-703.25,-78.31
490,-3.8712,-0.0381,-0.0887,-398.19,1828.00,-1406.43
500,-3.8712,-0.0428,-0.0929,-866.94,656.13,1687.32
510,-3.8712,-0.0459,-0.0939,-1476.32,124.88,984.19
520,-3.8712,-0.0448,-0.0942,-1866.94,-0.12,390.38
530,-3.8712,-0.0411,-0.0925,-1726.32,-47.00,62.26
540,-3.8712,-0.0394,-0.0892,-1257.57,171.75,281.07
550,-3.8712,-0.0421,-0.0859,-1038.82,593.63,890.44
560,-3.8712,-0.0481,-0.0817,-1382.57,1015.50,1546.69
570,-3.8712,-0.0535,-0.0747,1851.81,1562.38,1859.19
580,-3.8712,-0.0574,-0.0668,1164.31,-1547.00,1843.57
590,-3.8712,-0.0624,-0.0592,664.31,-531.37,1890.44
600,-3.8712,-0.0691,-0.0520,23.68,437.38,-1531.37
610,-3.8712,-0.0764,-0.0491,-835.69,1359.19,-609.50
620,-3.8711,-0.0778,-0.0518,-1773.19,1734.19,203.00
630,-3.8711,-0.0712,-0.0555,-1945.07,1390.44,828.00
640,-3.8711,-0.0646,-0.0555,-1101.32,906.07,1109.25
650,-3.8711,-0.0638,-0.0540,-257.57,906.07,874.88
660,-3.8711,-0.0664,-0.0519,-163.82,1109.19,140.50
670,-3.8712,-0.0732,-0.0476,-491.94,1374.82,-609.50
680,-3.8712,-0.0845,-0.0448,-1366.94,1921.69,-750.12
690,-3.8712,-0.0935,-0.0469,1195.56,-1718.93,-78.25
700,-3.8711,-0.0964,-0.0531,39.31,-1984.56,1062.38
710,-3.8711,-0.0947,-0.0597,-335.69,1218.51,1968.63
720,-3.8711,-0.0919,-0.0614,-116.94,374.76,-1937.62
730,-3.8711,-0.0890,-0.0563,242.43,156.07,1312.38
740,-3.8711,-0.0851,-0.0483,617.43,812.32,390.50
750,-3.8712,-0.0826,-0.0458,1117.43,1827.94,-234.50
760,-3.8712,-0.0856,-0.0508,1429.93,-1843.93,-984.50
770,-3.8712,-0.0906,-0.0586,1054.93,1515.44,-1953.25
780,-3.8712,-0.0955,-0.0656,414.31,515.44,1390.50
790,-3.8712,-0.1027,-0.0739,-210.69,-375.24,1046.69
800,-3.8712,-0.1079,-0.0819,-1132.57,-1437.74,1296.69
810,-3.8712,-0.1104,-0.0760,-1804.44,1531.01,-1812.68
820,-3.8712,-0.1130,-0.0574,1883.06,-1718.99,-437.68
830,-3.8711,-0.1082,-0.0354,1539.31,671.63,1687.38
840,-3.8710,-0.0885,-0.0111,-1835.69,-515.87,218.63
850,-3.8710,-0.0635,0.0079,679.93,-1406.43,1921.81
860,-3.8710,-0.0537,0.0154,-116.94,1031.07,1953.12
870,-3.8710,-0.0709,0.0143,1133.06,1984.25,640.62
880,-3.8711,-0.1038,0.0089,-1070.07,1843.57,-609.38
890,-3.8711,-0.1255,0.0023,-1273.19,1156.01,-921.88
900,-3.8711,-0.1183,-0.0109,-54.44,312.19,-1078.12
910,-3.8711,-0.0914,-0.0315,867.43,-1375.24,1531.19
920,-3.8712,-0.0692,-0.0500,304.93,-15.81,-640.75
930,-3.8712,-0.0607,-0.0590,-851.32,1609.19,-1672.00
940,-3.8712,-0.0570,-0.0581,242.43,468.63,-1500.12
950,-3.8712,-0.0597,-0.0515,711.18,578.00,-953.25
960,-3.8711,-0.0736,-0.0337,367.43,1421.75,578.00
970,-3.8711,-0.0865,-0.0024,-1413.82,-297.06,-172.00
980,-3.8710,-0.0801,0.0275,929.93,-297.06,-234.44
990,-3.8708,-0.0569,0.0436,1758.06,-468.93,-1734.38
1000,-3.8708,-0.0508,0.0543,726.81,1593.63,1421.94
1010,-3.8710,-0.0724,0.0629,1508.06,-1031.37,-1437.44
1020,-3.8710,-0.0974,0.0504,-1257.57,62.32,1062.62
1030,-3.8710,-0.1080,0.0159,-460.69,-1531.49,1109.44
1040,-3.8710,-0.0989,-0.0193,-1820.07,-1953.37,968.75
1050,-3.8711,-0.0802,-0.0404,-648.19,1546.63,-515.69
1060,-3.8711,-0.0709,-0.0541,1742.43,-1156.43,499.88
1070,-3.8712,-0.0734,-0.0681,-1070.07,1093.57,1078.00
1080,-3.8713,-0.0764,-0.0806,-1382.57,-703.31,-1765.81
1090,-3.8713,-0.0741,-0.0924,-1773.19,1702.94,515.44
1100,-3.8715,-0.0668,-0.1024,-1476.32,187.32,-109.56
1110,-3.8715,-0.0563,-0.1069,-538.82,-1093.93,-172.12
1120,-3.8715,-0.0475,-0.1056,804.93,-1672.00,-172.12
1130,-3.8715,-0.0438,-0.0996,1929.93,-1500.12,-47.12
1140,-3.8713,-0.0448,-0.0913,-1601.32,-734.50,437.26
1150,-3.8713,-0.0485,-0.0835,-1726.32,328.00,1124.82
1160,-3.8713,-0.0522,-0.0764,1804.93,1328.00,-1937.68
1170,-3.8713,-0.0557,-0.0697,1320.56,-1765.75,-484.56
1180,-3.8712,-0.0574,-0.0636,883.06,-906.37,1327.94
1190,-3.8712,-0.0536,-0.0569,664.31,-125.12,-984.56
1200,-3.8711,-0.0449,-0.0480,1148.68,734.25,156.13
1210,-3.8711,-0.0358,-0.0392,-1741.94,1874.88,640.50
1220,-3.8711,-0.0283,-0.0345,-570.07,-1000.12,484.25
1230,-3.8711,-0.0222,-0.0370,383.06,-406.31,46.75
1240,-3.8712,-0.0182,-0.0452,1164.31,-718.81,-156.37
1250,-3.8712,-0.0178,-0.0532,1679.93,-1765.69,-140.75
1260,-3.8712,-0.0209,-0.0562,1726.81,1203.06,-15.75
1270,-3.8711,-0.0251,-0.0553,1336.18,828.06,31.13
1280,-3.8712,-0.0291,-0.0529,789.31,937.44,-218.87
1290,-3.8712,-0.0331,-0.0507,289.31,1249.94,-468.87
1300,-3.8712,-0.0383,-0.0497,-226.32,1531.13,-609.50
1310,-3.8712,-0.0442,-0.0507,-898.19,1656.13,-687.62
1320,-3.8712,-0.0490,-0.0529,-1648.19,1531.13,-672.00
1330,-3.8712,-0.0529,-0.0536,1742.43,1249.88,-687.62
1340,-3.8712,-0.0596,-0.0524,1242.43,1156.13,-953.25
1350,-3.8712,-0.0706,-0.0504,383.06,1312.38,-1109.50
1360,-3.8712,-0.0824,-0.0486,-1023.19,1562.32,-890.75
1370,-3.8712,-0.0903,-0.0470,1461.18,1796.69,-797.00
1380,-3.8712,-0.0909,-0.0455,445.56,1999.82,-984.50
1390,-3.8712,-0.0848,-0.0460,367.43,-1812.68,-1078.25
1400,-3.8712,-0.0770,-0.0465,1148.68,-1875.18,-937.62
1410,-3.8712,-0.0729,-0.0452,-1851.32,-1937.68,-672.00
1420,-3.8712,-0.0740,-0.0415,-1320.07,-1765.81,-312.62
1430,-3.8712,-0.0790,-0.0361,-1460.69,-1297.06,-47.00
1440,-3.8711,-0.0859,-0.0294,1898.68,-609.56,31.13
1450,-3.8712,-0.0917,-0.0231,1008.06,249.82,-78.19
1460,-3.8712,-0.0931,-0.0212,273.68,1062.32,-343.81
1470,-3.8712,-0.0911,-0.0251,86.18,1296.69,-437.56
1480,-3.8712,-0.0879,-0.0325,351.81,796.69,-234.44
1490,-3.8711,-0.0863,-0.0397,758.06,-140.81,203.00
1500,-3.8711,-0.0874,-0.0430,961.18,-1062.68,781.13
1510,-3.8711,-0.0898,-0.0417,820.56,-1484.56,1203.00
1520,-3.8711,-0.0897,-0.0360,508.06,-1328.31,1359.25
1530,-3.8711,-0.0830,-0.0282,523.68,-593.93,1218.63
1540,-3.8711,-0.0703,-0.0236,1383.06,406.07,749.94
1550,-3.8712,-0.0573,-0.0261,-991.94,999.82,-109.44
1560,-3.8712,-0.0504,-0.0339,679.93,671.75,-1156.31
1570,-3.8712,-0.0518,-0.0431,1554.93,-328.25,1906.13
1580,-3.8712,-0.0553,-0.0526,1383.06,-1500.12,1078.00
1590,-3.8712,-0.0581,-0.0586,929.93,1281.13,343.63
1600,-3.8712,-0.0623,-0.0585,570.56,515.50,93.63
1610,-3.8712,-0.0665,-0.0552,39.31,531.13,453.00
1620,-3.8712,-0.0703,-0.0486,-507.57,952.94,1140.50
1630,-3.8712,-0.0746,-0.0386,-991.94,1796.69,1921.75
1640,-3.8712,-0.0789,-0.0286,-1538.82,-922.06,-1515.75
1650,-3.8712,-0.0847,-0.0208,1914.31,359.19,-1250.06
1660,-3.8712,-0.0912,-0.0151,1164.31,1359.19,-968.81
1670,-3.8712,-0.0967,-0.0107,336.18,-1922.06,-562.56
1680,-3.8712,-0.1013,-0.0062,-366.94,-1359.62,-234.44
1690,-3.8712,-0.1036,-0.0024,-960.69,-781.49,-62.56
1700,-3.8712,-0.1044,-0.0012,-1257.57,-297.12,-31.31
1710,-3.8712,-0.1050,-0.0028,-1351.32,-140.87,-93.81
1720,-3.8712,-0.1058,-0.0051,-1429.44,-343.99,-15.69
1730,-3.8711,-0.1066,-0.0072,-1538.82,-640.87,296.81
1740,-3.8711,-0.1073,-0.0087,-1632.57,-906.49,609.31
1750,-3.8711,-0.1086,-0.0073,-1726.32,-1093.99,609.31
1760,-3.8711,-0.1100,-0.0054,-1898.19,-922.12,171.81
1770,-3.8712,-0.1091,-0.0072,1929.93,-672.12,-265.69
1780,-3.8712,-0.1038,-0.0121,-1960.69,-906.49,-406.31
1790,-3.8712,-0.0945,-0.0154,-1273.19,-1531.49,-312.56
1800,-3.8712,-0.0845,-0.0150,-85.69,-1953.37,-218.81
1810,-3.8712,-0.0760,-0.0117,1195.56,-1906.43,-15.69
1820,-3.8711,-0.0721,-0.0062,-1726.32,-1484.56,531.19
1830,-3.8711,-0.0724,-0.0006,-1226.32,-781.43,1328.06
1840,-3.8711,-0.0754,0.0049,-1257.57,-62.68,-1921.94
1850,-3.8711,-0.0815,0.0115,-1648.19,640.44,-1265.62
1860,-3.8711,-0.0883,0.0177,1570.56,1484.19,-968.75
1870,-3.8711,-0.0944,0.0212,711.18,-1718.93,-1187.50
1880,-3.8711,-0.0984,0.0200,-70.07,-1265.87,-1500.00
1890,-3.8711,-0.0988,0.0145,-585.69,-1422.12,-1750.00
1900,-3.8711,-0.0969,0.0088,-632.57,1874.76,-1859.38
1910,-3.8711,-0.0956,0.0049,-398.19,1140.38,-1984.38
1920,-3.8711,-0.0963,0.0011,-226.32,640.38,1578.12
1930,-3.8711,-0.0990,-0.0043,-320.07,156.01,875.00
1940,-3.8711,-0.1033,-0.0109,-663.82,-531.49,46.81
1950,-3.8712,-0.1072,-0.0173,-1210.69,-1375.24,-937.56
1960,-3.8712,-0.1085,-0.0231,-1710.69,1796.63,-1781.31
1970,-3.8712,-0.1068,-0.0276,-1882.57,1062.26,1593.69
1980,-3.8712,-0.1034,-0.0310,-1663.82,484.13,1124.94
1990,-3.8712,-0.1003,-0.0341,-1226.32,46.63,812.44
2000,-3.8712,-0.1008,-0.0375,-835.69,-343.99,531.13
2010,-3.8712,-0.1063,-0.0400,-898.19,-781.49,343.63
2020,-3.8712,-0.1144,-0.0409,-1601.32,-1109.62,296.75
2030,-3.8712,-0.1210,-0.0388,1367.43,-1218.99,296.75
2040,-3.8712,-0.1244,-0.0341,523.68,-953.37,234.25
2050,-3.8712,-0.1244,-0.0294,86.18,-343.99,312.38
2060,-3.8712,-0.1187,-0.0284,86.18,249.76,687.44
2070,-3.8712,-0.1116,-0.0277,820.56,374.76,1437.44
2080,-3.8712,-0.1107,-0.0210,1726.81,468.51,-1390.69
2090,-3.8712,-0.1118,-0.0106,1836.18,1327.88,-0.06
2100,-3.8711,-0.1074,-0.0011,1695.56,-1343.99,1031.19
2110,-3.8711,-0.0988,0.0081,-1741.94,-125.24,1359.31
2120,-3.8711,-0.0922,0.0151,-632.57,1046.63,1281.25
2130,-3.8711,-0.0906,0.0168,211.18,1952.94,1187.50
2140,-3.8711,-0.0922,0.0133,414.31,-1828.31,1281.25
2150,-3.8711,-0.0941,0.0083,211.18,1718.57,1484.38
2160,-3.8711,-0.0951,0.0034,-38.82,1077.88,1500.00
2170,-3.8711,-0.0925,-0.0011,-163.82,452.88,1281.25
2180,-3.8711,-0.0864,-0.0039,164.31,-125.18,1046.81
2190,-3.8711,-0.0815,-0.0050,945.56,-484.56,828.06
2200,-3.8711,-0.0811,-0.0054,1570.56,-625.18,718.69
2210,-3.8711,-0.0828,-0.0066,1633.06,-672.06,624.94
2220,-3.8711,-0.0841,-0.0076,1414.31,-828.31,234.31
2230,-3.8712,-0.0841,-0.0083,1242.43,-953.31,-453.19
2240,-3.8712,-0.0825,-0.0121,1242.43,-1047.06,-1031.31
2250,-3.8712,-0.0813,-0.0188,1445.56,-1531.43,-1203.19
2260,-3.8712,-0.0828,-0.0256,1601.81,1609.19,-1125.06
2270,-3.8712,-0.0854,-0.0289,1414.31,734.19,-1031.31
2280,-3.8712,-0.0868,-0.0280,1070.56,312.32,-1078.19
2290,-3.8712,-0.0862,-0.0251,898.68,437.32,-1406.31
2300,-3.8712,-0.0842,-0.0237,976.81,796.69,-1765.69
2310,-3.8712,-0.0833,-0.0244,1226.81,984.19,-1906.31
2320,-3.8712,-0.0856,-0.0247,1351.81,890.44,-1718.81
2330,-3.8712,-0.0907,-0.0234,1054.93,859.19,-1328.19
2340,-3.8712,-0.0963,-0.0212,398.68,1015.44,-1031.31
2350,-3.8712,-0.0983,-0.0162,-320.07,1296.63,-890.69
2360,-3.8712,-0.0957,-0.0068,-570.07,1937.26,-906.31
2370,-3.8712,-0.0911,-0.0032,-241.94,-859.62,-1546.94
2380,-3.8712,-0.0886,-0.0183,351.81,-390.81,-1968.81
2390,-3.8712,-0.0900,-0.0396,664.31,1671.69,-843.81
2400,-3.8711,-0.0924,-0.0426,492.43,-1047.06,1015.50
2410,-3.8711,-0.0956,-0.0254,179.93,-1437.68,1812.38
2420,-3.8711,-0.1003,-0.0031,-226.32,765.38,1093.69
2430,-3.8712,-0.1052,0.0112,-835.69,-375.24,-125.06
2440,-3.8712,-0.1061,0.0111,-1460.69,1452.88,-984.38
2450,-3.8712,-0.1014,-0.0010,-1570.07,1437.26,-1109.38
2460,-3.8712,-0.0955,-0.0156,-976.32,-109.62,-296.94
2470,-3.8711,-0.0922,-0.0239,-210.69,-1984.62,874.94
2480,-3.8711,-0.0929,-0.0237,211.18,952.94,1640.56
2490,-3.8711,-0.0953,-0.0176,117.43,984.19,1781.19
2500,-3.8711,-0.0972,-0.0105,-195.07,1765.38,1374.94
2510,-3.8711,-0.0984,-0.0071,-429.44,-1328.37,843.69
2520,-3.8711,-0.0980,-0.0099,-585.69,-890.87,406.19
2530,-3.8711,-0.0962,-0.0170,-538.82,-1250.24,203.06
2540,-3.8711,-0.0940,-0.0237,-304.44,1843.51,265.56
2550,-3.8711,-0.0905,-0.0272,-23.19,984.13,218.69
2560,-3.8712,-0.0878,-0.0264,429.93,531.07,-171.94
2570,-3.8712,-0.0880,-0.0226,773.68,640.44,-781.31
2580,-3.8712,-0.0908,-0.0210,742.43,1124.82,-1484.44
2590,-3.8712,-0.0945,-0.0236,383.06,1327.94,-1937.56
2600,-3.8712,-0.0958,-0.0284,-85.69,999.76,-1843.81
2610,-3.8712,-0.0946,-0.0325,-257.57,374.76,-1500.06
2620,-3.8712,-0.0939,-0.0326,-101.32,-140.87,-1125.12
2630,-3.8712,-0.0944,-0.0303,-7.57,-156.49,-875.12
2640,-3.8712,-0.0945,-0.0280,-70.07,140.38,-875.06
2650,-3.8712,-0.0936,-0.0272,-85.69,437.26,-1093.81
2660,-3.8712,-0.0924,-0.0287,23.68,531.07,-1234.44
2670,-3.8712,-0.0942,-0.0271,179.93,343.57,-1390.69
2680,-3.8712,-0.0999,-0.0187,-54.44,546.63,1999.94
2690,-3.8712,-0.0996,-0.0138,-773.19,1624.76,796.81
2700,-3.8713,-0.0870,-0.0211,-741.94,-1750.24,-281.31
2710,-3.8713,-0.0701,-0.0331,867.43,1312.32,-390.69
2720,-3.8712,-0.0583,-0.0426,-960.69,-218.93,187.38
2730,-3.8712,-0.0538,-0.0490,539.31,-1437.62,999.88
2740,-3.8712,-0.0542,-0.0500,1117.43,1749.88,1859.25
2750,-3.8712,-0.0549,-0.0446,1070.56,1609.25,-1406.37
2760,-3.8712,-0.0531,-0.0352,976.81,-1687.62,-843.87
2770,-3.8712,-0.0499,-0.0255,1211.18,-484.50,-281.37
2780,-3.8711,-0.0508,-0.0223,1617.43,749.88,421.81
2790,-3.8711,-0.0590,-0.0276,1508.06,1156.13,1234.31
2800,-3.8711,-0.0715,-0.0319,461.18,484.25,1828.06
2810,-3.8711,-0.0847,-0.0286,-1148.19,-62.68,1718.63
2820,-3.8711,-0.0962,-0.0234,1164.31,359.19,1062.44
2830,-3.8711,-0.1033,-0.0225,-304.44,1015.38,296.81
2840,-3.8712,-0.1060,-0.0238,-1210.69,1140.38,-171.94
2850,-3.8712,-0.1041,-0.0244,-1554.44,968.51,-343.81
2860,-3.8712,-0.0999,-0.0242,-1320.07,890.38,-312.56
2870,-3.8712,-0.0978,-0.0216,-773.19,921.63,-187.56
2880,-3.8712,-0.1008,-0.0162,-507.57,1249.76,-109.44
2890,-3.8712,-0.1093,-0.0107,-898.19,1937.26,-62.56
2900,-3.8711,-0.1195,-0.0059,-1976.32,-1359.62,140.56
2910,-3.8711,-0.1283,-0.0020,711.18,-734.62,187.44
2920,-3.8711,-0.1340,0.0000,-413.82,-234.68,15.56
2930,-3.8712,-0.1361,-0.0001,-1148.19,15.32,-234.38
2940,-3.8712,-0.1354,-0.0021,-1413.82,-0.31,-468.81
2950,-3.8712,-0.1306,-0.0049,-1320.07,-250.31,-453.19
2960,-3.8712,-0.1241,-0.0079,-710.69,-609.68,-250.06
2970,-3.8712,-0.1183,-0.0085,117.43,-1000.24,-140.69
2980,-3.8712,-0.1113,-0.0076,867.43,-1078.37,-312.56
2990,-3.8712,-0.1038,-0.0081,1758.06,-953.37,-515.69
3000,-3.8712,-0.0983,-0.0104,-1273.19,-1015.87,-375.06
3010,-3.8711,-0.0955,-0.0133,-570.07,-1312.74,78.06
3020,-3.8711,-0.0936,-0.0146,-210.69,-1687.74,624.94
3030,-3.8711,-0.0919,-0.0112,23.68,-1859.56,999.94
3040,-3.8711,-0.0925,-0.0034,242.43,-1422.06,937.44
3050,-3.8711,-0.0944,0.0034,164.31,-422.06,390.56
3060,-3.8712,-0.0935,0.0013,-70.07,452.88,-156.25
3070,-3.8712,-0.0895,-0.0078,39.31,187.32,-281.25
3080,-3.8712,-0.0858,-0.0168,554.93,-984.56,-78.19
3090,-3.8711,-0.0864,-0.0214,1023.68,1859.19,328.06
3100,-3.8711,-0.0919,-0.0197,945.56,1281.07,765.56
3110,-3.8711,-0.0972,-0.0150,242.43,1499.82,812.44
3120,-3.8711,-0.0985,-0.0109,-429.44,-1906.49,406.19
3130,-3.8712,-0.0973,-0.0093,-601.32,-1375.24,-140.69
3140,-3.8712,-0.0970,-0.0115,-445.07,-1172.12,-718.81
3150,-3.8712,-0.0995,-0.0176,-413.82,-1453.37,-1171.94
3160,-3.8712,-0.1016,-0.0250,-726.32,1765.38,-1437.56
3170,-3.8712,-0.0999,-0.0305,-991.94,812.26,-1593.81
3180,-3.8712,-0.0957,-0.0336,-773.19,109.13,-1734.44
3190,-3.8712,-0.0922,-0.0345,-241.94,-281.49,-1812.62
3200,-3.8712,-0.0918,-0.0339,211.18,-406.43,-1875.12
3210,-3.8712,-0.0969,-0.0320,258.06,-328.31,1921.75
3220,-3.8712,-0.1044,-0.0299,-398.19,-78.37,1671.75
3230,-3.8712,-0.1089,-0.0300,-1351.32,187.26,1499.94
3240,-3.8712,-0.1086,-0.0316,-1929.44,171.63,1328.06
3250,-3.8712,-0.1047,-0.0325,-1898.19,-31.49,1187.38
3260,-3.8712,-0.0990,-0.0328,-1398.19,-140.87,1328.00
3270,-3.8712,-0.0941,-0.0319,-663.82,-187.74,1828.00
3280,-3.8712,-0.0928,-0.0270,-38.82,-62.74,-1343.87
3290,-3.8712,-0.0941,-0.0172,133.06,562.32,-515.69
3300,-3.8712,-0.0956,-0.0084,-38.82,1812.26,-171.94
3310,-3.8712,-0.0956,-0.0065,-226.32,-1062.74,-125.06
3320,-3.8711,-0.0923,-0.0095,-226.32,-812.74,15.56
3330,-3.8712,-0.0853,-0.0156,195.56,-1203.31,-15.69
3340,-3.8712,-0.0762,-0.0231,1086.18,-1984.56,-343.81
3350,-3.8712,-0.0647,-0.0278,-1741.94,1062.32,-671.94
3360,-3.8712,-0.0515,-0.0282,-273.19,452.94,-781.31
3370,-3.8712,-0.0409,-0.0260,1414.31,406.13,-359.44
3380,-3.8711,-0.0391,-0.0212,-1226.32,687.38,609.31
3390,-3.8711,-0.0482,-0.0131,-991.94,1296.75,1796.81
3400,-3.8711,-0.0653,-0.0026,1836.18,-1656.37,-1656.31
3410,-3.8711,-0.0857,0.0057,-351.32,-312.68,-1937.56
3420,-3.8711,-0.1046,0.0048,1039.31,749.82,1531.25
3430,-3.8711,-0.1177,-0.0048,-1382.57,624.76,1375.00
3440,-3.8711,-0.1237,-0.0144,945.56,-593.99,1578.06
3450,-3.8711,-0.1246,-0.0188,179.93,-1828.37,1546.81
3460,-3.8711,-0.1251,-0.0167,54.93,1609.13,921.81
3470,-3.8712,-0.1278,-0.0110,-7.57,1874.69,-281.31
3480,-3.8712,-0.1326,-0.0090,-351.32,-1390.93,-1875.06
3490,-3.8712,-0.1379,-0.0154,-960.69,-1140.93,687.44
3500,-3.8713,-0.1421,-0.0276,-1648.19,-1953.43,-78.19
3510,-3.8713,-0.1439,-0.0400,1820.56,484.07,-296.94
3520,-3.8713,-0.1416,-0.0482,1586.18,-1109.68,-234.50
3530,-3.8713,-0.1357,-0.0482,1883.06,1843.44,-31.37
3540,-3.8712,-0.1277,-0.0410,-1366.94,1843.44,156.13
3550,-3.8712,-0.1185,-0.0330,-335.69,-1234.68,171.75
3560,-3.8712,-0.1115,-0.0283,836.18,-203.37,187.38
3570,-3.8712,-0.1051,-0.0282,1742.43,390.38,468.69
3580,-3.8712,-0.0975,-0.0308,-1445.07,406.01,1109.31
3590,-3.8712,-0.0891,-0.0314,-476.32,77.88,1984.31
3600,-3.8712,-0.0819,-0.0265,601.81,-0.18,-1187.62
3610,-3.8712,-0.0773,-0.0165,1523.68,624.82,-500.06
3620,-3.8711,-0.0740,-0.0044,-1882.57,1906.07,62.44
3630,-3.8711,-0.0718,0.0052,-1460.69,-547.06,640.56
3640,-3.8711,-0.0692,0.0101,-1179.44,687.32,1281.25
3650,-3.8711,-0.0648,0.0121,-851.32,1312.32,1968.75
3660,-3.8711,-0.0618,0.0150,-288.82,1562.32,-1453.12
3670,-3.8711,-0.0620,0.0176,101.81,1937.38,-1187.50
3680,-3.8711,-0.0636,0.0150,70.56,-1734.50,-1218.75
3690,-3.8711,-0.0676,0.0096,-132.57,1937.32,-1218.75
3700,-3.8711,-0.0747,0.0052,-648.19,1249.82,-1171.88
3710,-3.8711,-0.0804,0.0022,-1554.44,687.32,-1359.38
3720,-3.8711,-0.0845,0.0005,1711.18,296.69,-1875.00
3730,-3.8711,-0.0886,0.0001,1195.56,77.94,1390.62
3740,-3.8711,-0.0922,-0.0027,664.31,31.07,625.00
3750,-3.8711,-0.0950,-0.0085,211.18,-328.31,46.81
3760,-3.8712,-0.0994,-0.0137,-148.19,-1078.37,-390.69
3770,-3.8712,-0.1042,-0.0179,-710.69,-1734.62,-796.94
3780,-3.8712,-0.1086,-0.0236,-1335.69,1718.51,-1250.06
3790,-3.8712,-0.1130,-0.0282,-1898.19,999.76,-1828.19
3800,-3.8712,-0.1171,-0.0303,1539.31,406.01,1703.06
3810,-3.8712,-0.1185,-0.0310,1023.68,140.38,1374.94
3820,-3.8712,-0.1163,-0.0322,836.18,46.63,968.69
3830,-3.8712,-0.1127,-0.0341,1117.43,-109.62,593.63
3840,-3.8712,-0.1086,-0.0349,1586.18,-343.99,499.88
3850,-3.8712,-0.1038,-0.0336,-1898.19,-453.37,562.38
3860,-3.8712,-0.1013,-0.0317,-1273.19,-281.49,640.50
3870,-3.8712,-0.1016,-0.0298,-960.69,-47.12,812.38
3880,-3.8712,-0.1012,-0.0277,-991.94,202.88,1031.19
3890,-3.8712,-0.0994,-0.0254,-945.07,468.51,1328.06
3900,-3.8712,-0.0967,-0.0220,-710.69,765.38,1687.44
3910,-3.8712,-0.0947,-0.0179,-366.94,1202.88,-1921.94
3920,-3.8712,-0.0946,-0.0155,-116.94,1718.51,-1453.19
3930,-3.8712,-0.0953,-0.0138,-101.32,-1968.99,-1000.06
3940,-3.8712,-0.0952,-0.0093,-195.07,-1750.24,-562.56
3950,-3.8712,-0.0944,-0.0029,-179.44,-1172.12,-187.56
3960,-3.8711,-0.0938,0.0013,-70.07,-359.62,62.44
3970,-3.8711,-0.0935,0.0021,8.06,187.32,265.62
3980,-3.8711,-0.0934,0.0020,39.31,281.07,578.12
3990,-3.8711,-0.0959,0.0028,54.93,265.44,703.12
4000,-3.8711,-0.1013,0.0032,-273.19,374.76,609.38
4010,-3.8711,-0.1067,0.0027,-960.69,421.63,484.38
4020,-3.8711,-0.1085,0.0021,-1648.19,359.13,187.50
4030,-3.8712,-0.1050,0.0016,-1882.57,281.01,-109.38
4040,-3.8712,-0.0989,0.0009,-1429.44,218.51,-140.62
4050,-3.8712,-0.0942,-0.0002,-648.19,124.76,-125.00
4060,-3.8712,-0.0924,-0.0007,-54.44,-15.87,-140.69
4070,-3.8712,-0.0918,-0.0012,179.93,-78.31,-203.19
4080,-3.8712,-0.0895,-0.0024,258.06,-140.81,-390.69
4090,-3.8712,-0.0824,-0.0054,554.93,-297.06,-765.69
4100,-3.8712,-0.0691,-0.0099,1461.18,-672.06,-1187.56
4110,-3.8712,-0.0486,-0.0135,-835.69,-1250.18,-1359.44
4120,-3.8712,-0.0234,-0.0114,1789.31,-1718.87,-984.44
4130,-3.8711,-0.0057,-0.0037,1008.06,-1437.56,124.94
4140,-3.8711,-0.0055,0.0060,-726.32,-453.19,1937.44
4150,-3.8711,-0.0205,0.0172,-695.07,781.19,-265.62
4160,-3.8710,-0.0438,0.0293,1383.06,-1781.31,781.25
4170,-3.8710,-0.0707,0.0391,-1601.32,-234.50,906.25
4180,-3.8710,-0.0972,0.0443,-1038.82,1015.44,359.44
4190,-3.8711,-0.1194,0.0428,-429.44,1687.26,-343.69
4200,-3.8711,-0.1342,0.0339,726.81,1499.76,-859.31
4210,-3.8711,-0.1400,0.0211,-1163.82,359.07,-1359.31
4220,-3.8711,-0.1410,0.0098,-1913.82,-1281.56,1984.38
4230,-3.8711,-0.1462,0.0006,1961.18,1265.32,1046.88
4240,-3.8712,-0.1591,-0.0073,1289.31,93.44,-296.88
4250,-3.8712,-0.1761,-0.0148,-351.32,-922.24,-1890.69
4260,-3.8712,-0.1935,-0.0203,1461.18,-1875.37,515.56
4270,-3.8713,-0.2024,-0.0255,-757.57,1421.45,-812.56
4280,-3.8713,-0.1963,-0.0347,-1898.19,749.57,-1843.81
4290,-3.8713,-0.1829,-0.0427,-1116.94,-422.30,1546.75
4300,-3.8713,-0.1730,-0.0452,601.81,-1453.49,1359.25
4310,-3.8713,-0.1649,-0.0464,1867.43,-1765.99,1124.88
4320,-3.8713,-0.1542,-0.0464,-1101.32,-1922.24,1015.50
4330,-3.8713,-0.1436,-0.0428,273.68,-1922.18,1218.63
4340,-3.8713,-0.1326,-0.0365,1633.06,-1469.06,1718.63
4350,-3.8713,-0.1171,-0.0294,-960.69,-656.56,-1500.12
4360,-3.8713,-0.0984,-0.0219,1023.68,249.76,-406.31
4370,-3.8712,-0.0812,-0.0134,-585.69,1218.51,1078.06
4380,-3.8712,-0.0685,-0.0034,1617.43,-1703.31,-1343.81
4390,-3.8711,-0.0625,0.0077,-757.57,-422.06,124.94
4400,-3.8711,-0.0619,0.0177,8.06,999.88,1375.00
4410,-3.8711,-0.0613,0.0264,86.18,-1718.87,-1609.38
4420,-3.8711,-0.0587,0.0344,164.31,-609.50,-859.38
4430,-3.8711,-0.0548,0.0405,492.43,421.75,-437.44
4440,-3.8711,-0.0504,0.0420,992.43,1203.00,-156.19
4450,-3.8710,-0.0493,0.0381,1554.93,1390.50,281.31
4460,-3.8710,-0.0544,0.0323,1695.56,890.50,656.31
4470,-3.8710,-0.0656,0.0284,1039.31,156.13,656.31
4480,-3.8710,-0.0802,0.0265,-382.57,-343.93,187.50
4490,-3.8711,-0.0952,0.0245,1742.43,-593.93,-687.50
4500,-3.8711,-0.1061,0.0211,-179.44,-843.99,-1875.00
4510,-3.8711,-0.1108,0.0156,-1570.07,-1281.49,906.25
4520,-3.8712,-0.1110,0.0081,1820.56,-1984.62,-156.25
4530,-3.8712,-0.1095,0.0005,1804.93,1046.63,-1046.88
4540,-3.8712,-0.1097,-0.0046,1992.43,77.88,-1828.12
4550,-3.8712,-0.1117,-0.0081,1961.18,-578.37,1499.94
4560,-3.8712,-0.1133,-0.0105,1711.18,-1015.87,843.69
4570,-3.8712,-0.1132,-0.0129,1508.06,-1328.37,234.31
4580,-3.8713,-0.1121,-0.0162,1523.68,-1640.87,-0.06
4590,-3.8712,-0.1116,-0.0181,1664.31,1937.26,187.44
4600,-3.8712,-0.1115,-0.0156,1726.81,1702.88,578.06
4610,-3.8712,-0.1101,-0.0104,1742.43,-1984.62,968.69
4620,-3.8712,-0.1069,-0.0043,1914.31,-1312.74,1265.56
4630,-3.8712,-0.1019,0.0009,-1679.44,-531.49,1656.19
4640,-3.8712,-0.0970,0.0039,-1038.82,124.76,-1890.62
4650,-3.8712,-0.0938,0.0059,-413.82,515.38,-1359.38
4660,-3.8712,-0.0905,0.0070,8.06,765.44,-906.25
4670,-3.8712,-0.0867,0.0074,429.93,906.07,-593.75
4680,-3.8712,-0.0850,0.0093,914.31,968.57,-140.62
4690,-3.8711,-0.0848,0.0129,1133.06,1202.94,421.88
4700,-3.8711,-0.0831,0.0172,1148.68,1671.69,765.62
4710,-3.8711,-0.0804,0.0210,1367.43,-1781.43,921.88
4720,-3.8711,-0.0787,0.0232,1711.18,-1297.06,1156.25
4730,-3.8711,-0.0791,0.0234,1929.93,-1015.81,1375.00
4740,-3.8711,-0.0814,0.0222,1883.06,-984.56,1453.12
4750,-3.8711,-0.0841,0.0208,1586.18,-1140.81,1328.12
4760,-3.8711,-0.0861,0.0195,1242.43,-1328.31,1000.00
4770,-3.8711,-0.0867,0.0183,992.43,-1484.56,578.12
4780,-3.8711,-0.0869,0.0171,914.31,-1640.81,171.88
4790,-3.8712,-0.0874,0.0166,883.06,-1797.06,-125.00
4800,-3.8712,-0.0870,0.0168,820.56,-1859.56,-421.88
4810,-3.8712,-0.0875,0.0153,867.43,-1828.31,-500.00
4820,-3.8712,-0.0912,0.0115,804.93,1968.57,-171.88
4830,-3.8711,-0.0961,0.0090,336.18,1484.19,296.88
4840,-3.8711,-0.0996,0.0100,-288.82,1171.63,578.12
4850,-3.8711,-0.1006,0.0128,-741.94,1296.63,593.75
4860,-3.8711,-0.0999,0.0154,-866.94,1656.01,437.50
4870,-3.8711,-0.0983,0.0153,-773.19,1984.13,31.25
4880,-3.8712,-0.0968,0.0125,-570.07,1968.51,-546.88
4890,-3.8712,-0.0970,0.0084,-382.57,1609.13,-1093.75
4900,-3.8712,-0.0973,0.0042,-413.82,1093.51,-1468.75
4910,-3.8712,-0.0944,0.0010,-445.07,546.63,-1625.00
4920,-3.8712,-0.0903,-0.0005,-70.07,140.38,-1546.88
4930,-3.8712,-0.0886,0.0009,445.56,-47.06,-1359.44
4940,-3.8712,-0.0880,0.0040,664.31,124.82,-1218.75
4950,-3.8712,-0.0883,0.0066,742.43,531.07,-1046.88
4960,-3.8712,-0.0895,0.0082,711.18,859.19,-921.88
4970,-3.8712,-0.0902,0.0089,554.93,1062.32,-843.75
4980,-3.8712,-0.0891,0.0084,461.18,1156.07,-843.75
4990,-3.8712,-0.0865,0.0066,601.81,1093.57,-984.38
5000,-3.8712,-0.0834,0.0048,929.93,859.19,-984.38
5010,-3.8712,-0.0811,0.0040,1336.18,624.82,-734.38
5020,-3.8712,-0.0813,0.0046,1633.06,531.07,-468.75
5030,-3.8712,-0.0840,0.0057,1601.81,609.19,-296.88
5040,-3.8712,-0.0875,0.0076,1258.06,749.82,-281.25
5050,-3.8712,-0.0911,0.0107,804.93,984.19,-359.38
5060,-3.8712,-0.0927,0.0131,351.81,1390.44,-359.38
5070,-3.8712,-0.0916,0.0144,148.68,1687.32,-281.25
5080,-3.8712,-0.0894,0.0151,289.31,1859.19,-78.12
5090,-3.8711,-0.0879,0.0148,570.56,1952.94,281.25
5100,-3.8711,-0.0886,0.0153,758.06,1906.07,593.75
5110,-3.8711,-0.0916,0.0168,664.31,1968.57,703.12
5120,-3.8711,-0.0936,0.0172,289.31,-1828.31,593.75
5130,-3.8711,-0.0938,0.0160,23.68,-1781.43,453.12
5140,-3.8711,-0.0923,0.0138,8.06,-1937.68,359.38
5150,-3.8711,-0.0896,0.0116,195.56,1781.07,218.75
5160,-3.8711,-0.0854,0.0100,539.31,1499.82,125.00
5170,-3.8711,-0.0811,0.0081,1070.56,1296.69,46.88
5180,-3.8712,-0.0793,0.0056,1633.06,1046.69,-78.12
5190,-3.8712,-0.0800,0.0038,1851.81,734.19,-343.75
5200,-3.8712,-0.0820,0.0021,1773.68,499.82,-843.75
5210,-3.8712,-0.0850,0.0005,1508.06,281.07,-1390.62
5220,-3.8712,-0.0870,-0.0001,1133.06,77.94,-1843.75
5230,-3.8712,-0.0865,0.0002,867.43,-0.18,-1906.31
5240,-3.8712,-0.0837,0.0009,929.93,46.69,-1578.12
5250,-3.8712,-0.0820,0.0023,1289.31,124.82,-1015.62
5260,-3.8712,-0.0826,0.0045,1508.06,312.32,-546.88
5270,-3.8712,-0.0862,0.0059,1429.93,593.57,-406.25
5280,-3.8712,-0.0913,0.0056,976.81,765.44,-609.38
5290,-3.8712,-0.0948,0.0038,320.56,734.19,-1093.75
5300,-3.8712,-0.0952,0.0013,-132.57,499.76,-1593.75
5310,-3.8712,-0.0920,-0.0001,-179.44,187.26,-1875.00
5320,-3.8712,-0.0872,-0.0012,226.81,-0.18,-1843.81
5330,-3.8712,-0.0825,-0.0015,851.81,-140.81,-1421.94
5340,-3.8712,-0.0806,0.0015,1445.56,-172.06,-578.19
5350,-3.8711,-0.0826,0.0070,1695.56,202.94,218.75
5360,-3.8711,-0.0876,0.0139,1429.93,906.07,531.25
5370,-3.8711,-0.0931,0.0200,789.31,1796.69,578.12
5380,-3.8711,-0.0973,0.0212,86.18,-1422.06,578.12
5390,-3.8711,-0.0994,0.0165,-445.07,-1265.87,703.12
5400,-3.8711,-0.0996,0.0090,-710.69,-1875.24,1062.50
5410,-3.8711,-0.0975,0.0040,-741.94,1171.63,1468.75
5420,-3.8711,-0.0938,0.0042,-476.32,531.01,1500.00
5430,-3.8711,-0.0901,0.0065,8.06,546.69,1015.62
5440,-3.8711,-0.0872,0.0062,476.81,843.57,375.00
5450,-3.8712,-0.0847,0.0028,851.81,812.32,-250.00
5460,-3.8712,-0.0822,-0.0039,1164.31,374.82,-906.25
5470,-3.8712,-0.0780,-0.0137,1492.43,-484.56,-1640.69
5480,-3.8712,-0.0737,-0.0231,-1976.32,-1734.56,1609.31
5490,-3.8712,-0.0714,-0.0288,-1429.44,1062.32,1156.19
5500,-3.8712,-0.0710,-0.0302,-1132.57,327.94,1015.56
5510,-3.8712,-0.0709,-0.0267,-1085.69,156.07,1140.56
5520,-3.8712,-0.0710,-0.0195,-1070.07,593.57,1453.06
5530,-3.8712,-0.0730,-0.0111,-1085.69,1515.44,1937.44
5540,-3.8712,-0.0756,-0.0028,-1335.69,-1406.43,-1343.81
5550,-3.8712,-0.0773,0.0052,-1663.82,-343.93,-625.06
5560,-3.8711,-0.0784,0.0131,-1882.57,687.32,15.62
5570,-3.8711,-0.0803,0.0193,1976.81,1687.32,703.12
5580,-3.8711,-0.0834,0.0222,1726.81,-1515.81,1343.75
5590,-3.8711,-0.0867,0.0222,1336.18,-1140.81,1921.88
5600,-3.8711,-0.0898,0.0210,914.31,-1140.81,-1593.75
5610,-3.8711,-0.0913,0.0197,508.06,-1297.06,-1328.12
5620,-3.8711,-0.0906,0.0183,320.56,-1468.93,-1390.62
5630,-3.8711,-0.0898,0.0164,414.31,-1640.81,-1562.50
5640,-3.8711,-0.0886,0.0127,508.06,-1890.81,-1765.62
5650,-3.8711,-0.0865,0.0084,664.31,1640.44,1937.50
5660,-3.8711,-0.0846,0.0049,929.93,1093.57,1640.62
5670,-3.8711,-0.0847,0.0020,1179.93,640.44,1281.25
5680,-3.8711,-0.0862,-0.0002,1164.31,265.44,703.12
5690,-3.8711,-0.0851,-0.0026,976.81,-15.81,93.69
5700,-3.8712,-0.0818,-0.0048,1117.43,-312.68,-437.56
5710,-3.8712,-0.0798,-0.0073,1539.31,-593.93,-859.44
5720,-3.8712,-0.0784,-0.0117,1789.31,-922.06,-1140.69
5730,-3.8712,-0.0758,-0.0173,1976.81,-1484.56,-1171.94
5740,-3.8712,-0.0737,-0.0215,-1695.07,1796.69,-953.19
5750,-3.8712,-0.0735,-0.0216,-1429.44,1265.44,-750.06
5760,-3.8712,-0.0741,-0.0177,-1398.19,1249.82,-812.56
5770,-3.8712,-0.0726,-0.0116,-1476.32,1749.82,-1093.81
5780,-3.8712,-0.0676,-0.0066,-1288.82,-1468.93,-1296.94
5790,-3.8712,-0.0616,-0.0054,-648.19,-828.31,-828.19
5800,-3.8711,-0.0581,-0.0062,117.43,-672.00,171.81
5810,-3.8711,-0.0570,-0.0062,570.56,-781.37,734.31
5820,-3.8711,-0.0583,-0.0054,711.18,-781.37,828.06
5830,-3.8711,-0.0616,-0.0048,539.31,-672.00,968.69
5840,-3.8711,-0.0662,-0.0055,117.43,-593.87,1265.56
5850,-3.8711,-0.0698,-0.0085,-460.69,-687.68,1609.31
5860,-3.8711,-0.0718,-0.0133,-929.44,-1078.31,1718.69
5870,-3.8711,-0.0756,-0.0170,-1179.44,-1687.68,1312.44
5880,-3.8711,-0.0835,-0.0183,-1663.82,1843.57,406.19
5890,-3.8712,-0.0925,-0.0204,1320.56,1671.69,-750.06
5900,-3.8712,-0.0970,-0.0264,164.31,1406.07,-1843.81
5910,-3.8712,-0.0938,-0.0341,-413.82,640.38,1484.31
5920,-3.8712,-0.0837,-0.0391,8.06,-343.93,1374.88
5930,-3.8712,-0.0721,-0.0388,1289.31,-984.56,1812.38
5940,-3.8712,-0.0648,-0.0350,-1226.32,-953.31,-1453.25
5950,-3.8712,-0.0658,-0.0304,-288.82,-468.93,-781.37
5960,-3.8712,-0.0728,-0.0255,-413.82,124.82,-546.94
5970,-3.8712,-0.0795,-0.0215,-1304.44,749.82,-671.94
5980,-3.8712,-0.0820,-0.0195,1836.18,1265.44,-875.06
5990,-3.8712,-0.0789,-0.0195,1508.06,1515.44,-1140.69
6000,-3.8712,-0.0729,-0.0214,1914.31,1515.44,-1250.06
6010,-3.8712,-0.0676,-0.0248,-1320.07,1281.07,-1109.44
6020,-3.8712,-0.0662,-0.0275,-648.19,843.57,-1000.06
6030,-3.8712,-0.0701,-0.0284,-460.69,499.82,-1093.81
6040,-3.8712,-0.0759,-0.0269,-960.69,374.82,-1359.44
6050,-3.8712,-0.0790,-0.0227,-1710.69,577.94,-1546.94
6060,-3.8712,-0.0765,-0.0176,1898.68,1109.19,-1140.69
6070,-3.8712,-0.0695,-0.0114,-1788.82,1765.44,-156.31
6080,-3.8711,-0.0602,-0.0028,-882.57,-1437.68,1171.81
6090,-3.8711,-0.0526,0.0079,304.93,-343.87,-1593.81
6100,-3.8711,-0.0525,0.0165,1273.68,1031.13,-1234.38
6110,-3.8711,-0.0562,0.0165,1289.31,-1875.12,-1750.00
6120,-3.8711,-0.0566,0.0050,820.56,-1875.12,1812.50
6130,-3.8711,-0.0543,-0.0144,758.06,656.13,1984.38
6140,-3.8711,-0.0513,-0.0337,1054.93,-1828.25,-1750.06
6150,-3.8711,-0.0487,-0.0450,1445.56,-297.00,-1656.37
6160,-3.8711,-0.0492,-0.0463,1773.68,-1750.12,-1515.75
6170,-3.8711,-0.0509,-0.0392,1711.18,-1906.37,-1140.75
6180,-3.8711,-0.0524,-0.0264,1492.43,-1000.12,-656.37
6190,-3.8711,-0.0541,-0.0138,1304.93,640.50,-437.56
6200,-3.8711,-0.0548,-0.0090,1086.18,-1750.12,-671.94
6210,-3.8711,-0.0533,-0.0139,992.43,-1140.75,-1218.81
6220,-3.8711,-0.0499,-0.0259,1179.93,-1765.75,-1859.44
6230,-3.8711,-0.0425,-0.0406,1617.43,703.00,1359.31
6240,-3.8711,-0.0291,-0.0533,-1429.44,-1187.62,531.13
6250,-3.8712,-0.0146,-0.0631,289.31,1187.44,-78.25
6260,-3.8712,-0.0070,-0.0702,-1866.94,-62.56,-625.18
6270,-3.8712,-0.0089,-0.0723,-882.57,-968.81,-1390.81
6280,-3.8712,-0.0175,-0.0697,-1132.57,-1234.44,1640.44
6290,-3.8712,-0.0273,-0.0634,1773.68,-906.31,890.44
6300,-3.8712,-0.0347,-0.0569,508.06,-93.81,140.44
6310,-3.8713,-0.0359,-0.0580,-429.44,734.25,-797.00
6320,-3.8713,-0.0332,-0.0664,-585.69,593.63,-1015.75
6330,-3.8713,-0.0314,-0.0718,-241.94,-484.50,-297.06
6340,-3.8712,-0.0320,-0.0668,-7.57,-1172.00,843.57
6350,-3.8712,-0.0375,-0.0520,-85.69,-531.37,-1750.18
6360,-3.8712,-0.0509,-0.0333,-788.82,1359.25,-406.37
6370,-3.8711,-0.0702,-0.0197,1492.43,-250.12,718.63
6380,-3.8711,-0.0885,-0.0146,-976.32,1499.82,1624.94
6390,-3.8711,-0.0992,-0.0157,679.93,-1859.56,-1406.31
6400,-3.8711,-0.1018,-0.0177,-695.07,1999.76,-390.69
6410,-3.8710,-0.0964,-0.0183,-1023.19,1749.76,156.19
6420,-3.8710,-0.0823,-0.0208,-335.69,1671.63,218.69
6430,-3.8710,-0.0640,-0.0271,1476.81,1359.19,93.69
6440,-3.8711,-0.0491,-0.0359,-179.44,546.69,-156.31
6450,-3.8711,-0.0413,-0.0474,1726.81,-578.25,-797.00
6460,-3.8711,-0.0406,-0.0605,-1273.19,1953.00,-1890.75
6470,-3.8711,-0.0446,-0.0721,-1195.07,265.50,624.88
6480,-3.8712,-0.0460,-0.0820,-1695.07,-1218.87,-1281.43
6490,-3.8712,-0.0399,-0.0924,-1882.57,1515.50,734.19
6500,-3.8713,-0.0269,-0.1056,-1101.32,187.38,-656.43
6510,-3.8713,-0.0099,-0.1191,570.56,-1500.06,-1468.99
6520,-3.8713,0.0039,-0.1278,-1257.57,765.56,-1968.99
6530,-3.8713,0.0085,-0.1306,508.06,-359.38,1796.57
6540,-3.8713,0.0063,-0.1271,1101.81,-718.75,1593.44
6550,-3.8713,-0.0002,-0.1166,820.56,-265.62,1484.07
6560,-3.8713,-0.0154,-0.1025,-23.19,1093.69,1593.51
6570,-3.8713,-0.0375,-0.0920,-1960.69,-1109.44,-1984.62
6580,-3.8713,-0.0569,-0.0857,-788.82,234.25,-1140.81
6590,-3.8713,-0.0671,-0.0771,726.81,1046.75,-0.18
6600,-3.8712,-0.0673,-0.0665,-585.69,-1859.56,1077.94
6610,-3.8712,-0.0619,-0.0577,-601.32,-500.18,1859.19
6620,-3.8712,-0.0588,-0.0514,86.18,624.88,-1172.00
6630,-3.8711,-0.0614,-0.0450,476.81,1437.38,203.00
6640,-3.8711,-0.0670,-0.0365,148.68,-1750.12,1765.50
6650,-3.8711,-0.0740,-0.0280,-570.07,-656.43,-1015.75
6660,-3.8711,-0.0820,-0.0240,-1460.69,437.32,-546.94
6670,-3.8711,-0.0885,-0.0270,1508.06,937.32,-546.94
6680,-3.8711,-0.0922,-0.0353,679.93,562.32,-593.81
6690,-3.8711,-0.0924,-0.0448,211.18,-500.18,-765.75
6700,-3.8711,-0.0872,-0.0520,179.93,-1718.93,-1187.62
6710,-3.8711,-0.0778,-0.0560,851.81,1359.19,-1828.25
6720,-3.8711,-0.0686,-0.0587,-1945.07,843.57,1328.00
6730,-3.8711,-0.0635,-0.0616,-773.19,499.82,281.13
6740,-3.8712,-0.0621,-0.0648,-116.94,124.82,-828.25
6750,-3.8712,-0.0635,-0.0702,54.93,-281.37,-1922.06
6760,-3.8712,-0.0651,-0.0775,-116.94,-968.93,1218.57
6770,-3.8712,-0.0637,-0.0840,-320.07,-1906.43,734.19
6780,-3.8712,-0.0574,-0.0880,-148.19,1265.44,531.07
6790,-3.8712,-0.0491,-0.0907,664.31,749.88,312.32
6800,-3.8712,-0.0428,-0.0927,1726.81,406.13,15.44
6810,-3.8713,-0.0408,-0.0933,-1476.32,156.13,-140.81
6820,-3.8713,-0.0447,-0.0940,-1210.69,78.00,-0.18
6830,-3.8712,-0.0527,-0.0944,-1710.69,-15.75,249.76
6840,-3.8712,-0.0596,-0.0920,1258.06,-62.62,468.51
6850,-3.8712,-0.0618,-0.0880,383.06,234.25,640.44
6860,-3.8712,-0.0610,-0.0841,101.81,749.88,577.94
6870,-3.8712,-0.0574,-0.0817,195.56,1249.88,406.07
6880,-3.8712,-0.0490,-0.0814,664.31,1562.38,437.32
6890,-3.8712,-0.0411,-0.0819,1742.43,1593.63,781.07
6900,-3.8712,-0.0385,-0.0802,-1257.57,1531.13,1390.44
6910,-3.8712,-0.0392,-0.0739,-913.82,1749.88,-1937.68
6920,-3.8712,-0.0422,-0.0637,-1007.57,-1437.62,-1422.06
6930,-3.8712,-0.0480,-0.0526,-1398.19,-140.75,-906.43
6940,-3.8712,-0.0571,-0.0406,1867.43,1281.13,-375.12
6950,-3.8712,-0.0675,-0.0294,695.56,-1187.62,-140.75
6960,-3.8712,-0.0741,-0.0245,-632.57,249.82,-46.94
6970,-3.8711,-0.0770,-0.0248,-1476.32,874.82,328.06
6980,-3.8711,-0.0795,-0.0236,-1851.32,843.57,859.31
6990,-3.8711,-0.0834,-0.0195,1836.18,999.82,1281.19
7000,-3.8711,-0.0885,-0.0146,1336.18,1515.44,1499.94
7010,-3.8711,-0.0942,-0.0088,679.93,-1859.56,1531.19
7020,-3.8711,-0.1002,-0.0034,-54.44,-1109.62,1468.69
7030,-3.8711,-0.1045,-0.0009,-820.07,-422.12,1421.81
7040,-3.8711,-0.1023,-0.0022,-1366.94,-93.99,1374.94
7050,-3.8711,-0.0939,-0.0057,-1085.69,-265.87,1687.44
7060,-3.8711,-0.0854,-0.0095,-7.57,-718.99,-1515.69
7070,-3.8711,-0.0831,-0.0118,1070.56,-1203.31,-468.81
7080,-3.8710,-0.0857,-0.0127,1367.43,-1500.18,234.31
7090,-3.8710,-0.0891,-0.0135,1039.31,-1609.56,312.44
7100,-3.8711,-0.0914,-0.0159,601.81,-1718.93,-125.06
7110,-3.8711,-0.0916,-0.0203,304.93,1984.19,-1187.56
7120,-3.8711,-0.0870,-0.0247,289.31,1421.69,1484.31
7130,-3.8711,-0.0752,-0.0299,867.43,859.19,265.56
7140,-3.8712,-0.0605,-0.0386,-1616.94,187.32,-828.19
7150,-3.8712,-0.0513,-0.0487,258.06,-922.00,-1734.50
7160,-3.8712,-0.0485,-0.0558,1445.56,1781.13,1656.13
7170,-3.8712,-0.0505,-0.0566,1804.93,874.88,1390.50
7180,-3.8712,-0.0525,-0.0513,1539.31,765.50,1359.25
7190,-3.8712,-0.0503,-0.0420,1289.31,1453.00,1578.00
7200,-3.8712,-0.0474,-0.0321,1570.56,-1359.50,-1953.25
7210,-3.8712,-0.0485,-0.0258,1945.56,-93.87,-1218.87
7220,-3.8712,-0.0535,-0.0232,1804.93,718.63,-437.56
7230,-3.8711,-0.0618,-0.0220,1164.31,1046.75,249.94
7240,-3.8711,-0.0723,-0.0212,101.81,1203.00,671.81
7250,-3.8711,-0.0806,-0.0206,-1241.94,1296.69,906.19
7260,-3.8711,-0.0817,-0.0189,1695.56,1374.82,1374.94
7270,-3.8711,-0.0758,-0.0148,1554.93,1593.57,1968.69
7280,-3.8711,-0.0690,-0.0094,-1695.07,-1875.18,-1671.94
7290,-3.8711,-0.0671,-0.0057,-820.07,-1187.68,-1593.81
7300,-3.8711,-0.0712,-0.0054,-585.69,-718.93,-1656.31
7310,-3.8711,-0.0757,-0.0093,-1101.32,-672.06,-1703.19
7320,-3.8711,-0.0773,-0.0160,-1679.44,-1172.06,-1687.56
7330,-3.8711,-0.0751,-0.0215,-1882.57,1968.57,-1640.69
7340,-3.8711,-0.0698,-0.0229,-1601.32,1265.44,-1796.94
7350,-3.8711,-0.0652,-0.0212,-929.44,1077.94,1749.94
7360,-3.8711,-0.0640,-0.0189,-335.69,1296.69,1421.81
7370,-3.8711,-0.0665,-0.0204,-179.44,1593.57,1374.94
7380,-3.8711,-0.0701,-0.0256,-507.57,1406.07,1156.19
7390,-3.8711,-0.0726,-0.0315,-960.69,734.19,781.19
7400,-3.8711,-0.0740,-0.0370,-1288.82,-15.81,249.88
7410,-3.8712,-0.0715,-0.0438,-1460.69,-718.93,-297.00
7420,-3.8712,-0.0647,-0.0516,-1148.19,-1593.93,-468.87
7430,-3.8712,-0.0575,-0.0577,-273.19,1406.07,-343.87
7440,-3.8712,-0.0536,-0.0618,648.68,624.88,-562.62
7450,-3.8712,-0.0525,-0.0652,1148.68,109.25,-1265.75
7460,-3.8712,-0.0525,-0.0675,1289.31,-328.25,1671.69
7470,-3.8712,-0.0546,-0.0671,1289.31,-625.12,374.82
7480,-3.8713,-0.0579,-0.0660,1023.68,-578.25,-578.31
7490,-3.8713,-0.0590,-0.0669,601.81,-437.62,-453.31
7500,-3.8712,-0.0565,-0.0676,461.18,-547.00,640.44
7510,-3.8712,-0.0538,-0.0636,773.68,-640.75,1952.94
7520,-3.8712,-0.0552,-0.0544,1117.43,-125.12,-937.68
7530,-3.8712,-0.0594,-0.0453,945.56,1046.75,-187.62
7540,-3.8711,-0.0626,-0.0392,398.68,-1781.37,468.63
7550,-3.8711,-0.0654,-0.0345,-7.57,-1000.18,1078.00
7560,-3.8711,-0.0685,-0.0331,-366.94,-406.43,1515.50
7570,-3.8711,-0.0690,-0.0378,-757.57,-218.93,1874.88
7580,-3.8711,-0.0682,-0.0453,-820.07,-828.31,-1718.87
7590,-3.8711,-0.0691,-0.0505,-726.32,-1781.43,-1625.12
7600,-3.8711,-0.0701,-0.0533,-835.69,1546.69,1640.50
7610,-3.8711,-0.0680,-0.0573,-960.69,1187.32,328.00
7620,-3.8712,-0.0614,-0.0643,-695.07,687.32,-906.37
7630,-3.8712,-0.0518,-0.0734,148.68,-218.87,-1500.18
7640,-3.8712,-0.0414,-0.0812,1383.06,-1375.12,-1390.81
7650,-3.8712,-0.0339,-0.0850,-1288.82,1624.88,-1297.06
7660,-3.8712,-0.0314,-0.0848,-335.69,1140.50,-1609.56
7670,-3.8712,-0.0334,-0.0822,-7.57,1156.13,1952.94
7680,-3.8712,-0.0358,-0.0797,-273.19,1499.88,1687.32
7690,-3.8712,-0.0352,-0.0796,-570.07,1812.38,1718.57
7700,-3.8712,-0.0309,-0.0803,-491.94,1828.00,-1906.43
7710,-3.8712,-0.0245,-0.0801,54.93,1734.31,-1422.06
7720,-3.8712,-0.0219,-0.0779,867.43,1765.56,-937.68
7730,-3.8712,-0.0260,-0.0742,1211.18,-1953.19,-453.31
7740,-3.8712,-0.0338,-0.0712,679.93,-1484.44,-172.06
7750,-3.8712,-0.0392,-0.0687,-320.07,-1093.87,-109.56
7760,-3.8712,-0.0409,-0.0670,-1007.57,-781.37,-172.06
7770,-3.8712,-0.0406,-0.0686,-1226.32,-562.62,-312.68
7780,-3.8712,-0.0417,-0.0724,-1195.07,-765.75,-578.31
7790,-3.8712,-0.0452,-0.0756,-1335.69,-1250.12,-640.81
7800,-3.8712,-0.0513,-0.0757,-1773.19,-1656.37,-578.31
7810,-3.8712,-0.0593,-0.0745,1445.56,-1672.00,-765.81
7820,-3.8712,-0.0646,-0.0734,414.31,-1515.75,-843.93
7830,-3.8712,-0.0667,-0.0688,-257.57,-1375.18,-718.93
7840,-3.8712,-0.0664,-0.0634,-523.19,-797.06,-906.43
7850,-3.8712,-0.0648,-0.0638,-491.94,-93.93,-1593.93
7860,-3.8712,-0.0667,-0.0697,-288.82,-156.43,1734.19
7870,-3.8712,-0.0741,-0.0762,-523.19,-906.43,1437.32
7880,-3.8712,-0.0811,-0.0804,-1476.32,-1734.56,1374.82
7890,-3.8712,-0.0814,-0.0809,1633.06,1718.57,1562.32
7900,-3.8712,-0.0779,-0.0781,1586.18,1656.07,1843.57
7910,-3.8712,-0.0763,-0.0742,-1960.69,-1984.56,-1703.31
7920,-3.8712,-0.0762,-0.0706,-1757.57,-1484.56,-906.43
7930,-3.8712,-0.0715,-0.0656,-1741.94,-1015.81,-62.68
7940,-3.8711,-0.0690,-0.0575,-1148.19,-375.18,265.44
7950,-3.8711,-0.1039,-0.0442,-820.07,656.07,390.50
7960,-3.8711,-0.1338,-0.0284,-1288.82,-1640.87,1562.38
7970,-3.8711,-0.1033,-0.0232,-1116.94,374.69,-718.81
7980,-3.8710,-0.0670,-0.0320,-1210.69,1046.63,124.94
7990,-3.8710,-0.1068,-0.0277,-570.07,-78.31,390.50
8000,-3.8710,-0.1104,-0.0347,-1663.82,468.51,-1765.69
8010,-3.8710,-0.0306,-0.0593,1883.06,-422.12,-859.50
8020,-3.8710,-0.0215,-0.0590,86.18,421.81,-1234.50
8030,-3.8710,-0.0253,-0.0603,1258.06,468.69,-1812.62
8040,-3.8711,0.0226,-0.0741,773.68,296.81,-1203.25
8050,-3.8712,0.0419,-0.0839,-1101.32,-1484.38,-1000.18
8060,-3.8712,0.0222,-0.0896,1367.43,1265.69,234.19
8070,-3.8713,0.0048,-0.0898,-1148.19,531.25,-1875.18
8080,-3.8713,-0.0112,-0.0916,617.43,500.00,1546.69
8090,-3.8713,-0.0332,-0.0963,-1429.44,296.81,-1672.06
8100,-3.8713,-0.0446,-0.0947,-241.94,-312.62,-1093.99
8110,-3.8713,-0.0432,-0.0938,-1695.07,-109.50,-1047.12
8120,-3.8713,-0.0492,-0.1052,-1523.19,15.50,-625.18
8130,-3.8712,-0.0648,-0.1166,1711.18,-1453.25,593.51
8140,-3.8712,-0.0751,-0.1128,-288.82,1093.57,-1656.49
8150,-3.8711,-0.0797,-0.0989,-1601.32,1577.94,93.51
8160,-3.8711,-0.0839,-0.0811,1804.93,-640.81,1296.63
8170,-3.8711,-0.0851,-0.0620,1273.68,1640.44,1874.82
8180,-3.8711,-0.0824,-0.0509,1117.43,77.94,1984.25
8190,-3.8711,-0.0752,-0.0536,1461.18,1499.82,1781.13
8200,-3.8711,-0.0685,-0.0663,-1616.94,1156.07,1484.25
8210,-3.8711,-0.0635,-0.0818,-757.57,-468.93,1452.94
8220,-3.8711,-0.0597,-0.0942,-116.94,1546.69,1656.07
8230,-3.8711,-0.0570,-0.0988,367.43,-47.00,1577.88
8240,-3.8711,-0.0459,-0.0974,711.18,-625.12,796.63
8250,-3.8712,-0.0397,-0.0939,-1866.94,-453.25,-765.87
8260,-3.8712,-0.0452,-0.0885,-1070.07,-0.12,1796.63
8270,-3.8712,-0.0361,-0.0934,-1773.19,687.38,1062.32
8280,-3.8712,-0.0306,-0.1067,-616.94,62.38,468.57
8290,-3.8712,-0.0463,-0.1173,86.18,-1640.69,577.88
8300,-3.8712,-0.0541,-0.1283,-1913.82,999.88,1218.51
8310,-3.8712,-0.0579,-0.1425,1086.18,-406.37,1765.32
8320,-3.8712,-0.0760,-0.1471,601.81,1781.13,-1156.56
8330,-3.8712,-0.0956,-0.1226,-1726.32,1187.32,-500.31
8340,-3.8712,-0.0846,-0.0833,-226.32,327.88,-1203.37
8350,-3.8712,-0.0349,-0.0616,1179.93,1359.19,1484.19
8360,-3.8712,0.0135,-0.0680,-460.69,124.88,1140.50
8370,-3.8712,0.0253,-0.0962,1742.43,-703.12,-1359.56
8380,-3.8711,0.0096,-0.1296,-757.57,-312.50,1015.38
8390,-3.8711,-0.0131,-0.1415,1242.43,-593.75,-1640.93
8400,-3.8711,-0.0336,-0.1299,-1663.82,1906.19,1577.82
8410,-3.8712,-0.0446,-0.1176,-288.82,-609.50,-484.68
8420,-3.8712,-0.0464,-0.1193,-1695.07,968.63,-1625.24
8430,-3.8712,-0.0463,-0.1366,-1929.44,749.88,-1047.12
8440,-3.8712,-0.0516,-0.1487,-1913.82,-1468.87,-265.93
8450,-3.8712,-0.0636,-0.1466,1398.68,984.25,-656.56
8460,-3.8712,-0.0763,-0.1489,-132.57,1249.82,-1734.68
8470,-3.8712,-0.0905,-0.1580,-1757.57,952.94,-1734.68
8480,-3.8712,-0.1034,-0.1709,429.93,-203.31,-453.49
8490,-3.8711,-0.1003,-0.1697,-1226.32,-1859.62,468.38
8500,-3.8711,-0.0785,-0.1558,-835.69,-1703.37,280.88
8510,-3.8712,-0.0541,-0.1556,1961.18,77.94,-781.56
8520,-3.8712,-0.0394,-0.1642,1086.18,93.63,-1687.81
8530,-3.8712,-0.0217,-0.1567,-1038.82,-1000.12,-1406.62
8540,-3.8712,-0.0022,-0.1495,1226.81,-46.94,-609.74
8550,-3.8712,-0.0020,-0.1660,-273.19,874.94,-344.06
8560,-3.8712,-0.0150,-0.1836,-241.94,-1234.44,-734.74
8570,-3.8712,-0.0209,-0.1901,-1913.82,515.56,-1547.24
8580,-3.8712,-0.0189,-0.1962,1336.18,-312.56,1358.95
8590,-3.8712,-0.0128,-0.1985,1586.18,-1093.81,280.82
8600,-3.8713,-0.0010,-0.1903,-1632.57,-1390.69,-344.18
8610,-3.8713,-0.0017,-0.1880,-116.94,-343.81,-687.93
8620,-3.8713,-0.0157,-0.1952,-210.69,-46.94,-641.05
8630,-3.8712,-0.0237,-0.1941,1992.43,-968.81,124.57
8640,-3.8712,-0.0248,-0.1835,976.81,-828.19,1077.70
8650,-3.8712,-0.0292,-0.1761,836.18,531.19,1515.26
8660,-3.8712,-0.0403,-0.1761,273.68,1468.69,1374.63
8670,-3.8712,-0.0477,-0.1802,-1148.19,1468.63,1515.26
8680,-3.8712,-0.0438,-0.1846,1898.68,953.00,-1859.74
8690,-3.8712,-0.0388,-0.1919,-1601.32,390.50,-1375.37
8700,-3.8712,-0.0309,-0.1917,-960.69,-547.00,-1344.18
8710,-3.8712,-0.0221,-0.1854,54.93,-515.69,-1484.80
8720,-3.8712,-0.0262,-0.1887,1179.93,281.19,-1594.12
8730,-3.8712,-0.0326,-0.1949,648.68,-140.69,-1937.93
8740,-3.8712,-0.0293,-0.1949,-163.82,-937.62,1718.32
8750,-3.8712,-0.0204,-0.1890,258.06,-937.56,1749.57
8760,-3.8712,-0.0088,-0.1864,1398.68,-171.94,1843.32
8770,-3.8712,0.0037,-0.1897,-1116.94,156.19,1890.26
8780,-3.8712,0.0079,-0.1954,476.81,-281.25,1983.95
8790,-3.8712,0.0083,-0.2009,1023.68,-1015.62,-1844.18
8800,-3.8712,0.0105,-0.1997,1070.56,-1718.75,-1687.93
8810,-3.8712,0.0134,-0.1938,1351.81,-1562.50,-1844.18
8820,-3.8712,0.0177,-0.1914,1726.81,-812.50,1749.57
8830,-3.8712,0.0132,-0.1945,-1726.32,-500.00,1265.20
8840,-3.8712,0.0104,-0.2012,1695.56,-890.62,921.45
8850,-3.8712,0.0233,-0.2108,1336.18,-1750.00,733.95
8860,-3.8712,0.0337,-0.2179,-1007.57,1015.62,546.45
8870,-3.8712,0.0339,-0.2202,320.56,109.44,218.32
8880,-3.8713,0.0339,-0.2190,351.81,-187.44,-0.49
8890,-3.8713,0.0312,-0.2214,351.81,-31.19,-94.24
8900,-3.8712,0.0261,-0.2253,8.06,-343.69,30.76
8910,-3.8712,0.0283,-0.2184,-648.19,-843.75,499.51
8920,-3.8712,0.0256,-0.2125,-366.94,46.88,702.70
8930,-3.8712,0.0048,-0.2135,-710.69,796.88,265.20
8940,-3.8713,-0.0118,-0.2168,617.43,671.88,-391.05
8950,-3.8713,-0.0078,-0.2208,-1507.57,265.56,-312.93
8960,-3.8712,0.0021,-0.2198,-991.94,-250.06,921.39
8970,-3.8712,0.0096,-0.2163,273.68,-140.62,1952.64
8980,-3.8712,0.0181,-0.2180,1242.43,312.50,1890.20
8990,-3.8712,0.0275,-0.2207,-1679.44,93.75,1827.70
9000,-3.8712,0.0338,-0.2184,-476.32,-250.00,1905.76
9010,-3.8712,0.0331,-0.2118,336.18,46.94,1437.07
9020,-3.8712,0.0251,-0.2083,242.43,890.69,1187.07
9030,-3.8712,0.0210,-0.2012,-773.19,1343.75,1655.82
9040,-3.8712,0.0250,-0.1910,-1304.44,-1750.00,-1219.18
9050,-3.8712,0.0183,-0.1974,-788.82,-453.12,-31.68
9060,-3.8711,0.0056,-0.2130,-1648.19,-1265.62,15.20
9070,-3.8712,0.0024,-0.2255,726.81,734.38,-1141.05
9080,-3.8712,0.0051,-0.2341,320.56,-859.38,1327.64
9090,-3.8712,0.0157,-0.2368,664.31,-1968.75,702.64
9100,-3.8712,0.0281,-0.2295,-1976.32,1687.50,1405.76
9110,-3.8712,0.0320,-0.2177,-398.19,-1375.00,-1812.99
9120,-3.8712,0.0341,-0.2126,101.81,140.69,-1984.80
9130,-3.8712,0.0350,-0.2162,367.43,781.31,1187.07
9140,-3.8712,0.0345,-0.2206,492.43,328.19,390.20
9150,-3.8713,0.0378,-0.2195,429.93,-234.31,-78.61
9160,-3.8713,0.0406,-0.2150,851.81,-93.69,-47.36
9170,-3.8712,0.0377,-0.2137,1211.18,484.44,515.20
9180,-3.8712,0.0315,-0.2206,836.18,640.69,1030.82
9190,-3.8712,0.0278,-0.2305,39.31,-234.31,827.64
9200,-3.8712,0.0302,-0.2352,-429.44,-1500.00,108.89
9210,-3.8713,0.0354,-0.2317,-132.57,1890.62,-312.99
9220,-3.8712,0.0374,-0.2229,539.31,-1656.19,108.89
9230,-3.8712,0.0375,-0.2133,789.31,-531.19,1280.76
9240,-3.8712,0.0332,-0.2036,804.93,703.19,-1625.43
9250,-3.8712,0.0249,-0.2008,258.06,1937.56,-1266.05
9260,-3.8712,0.0210,-0.2057,-804.44,-1703.12,-1547.30
9270,-3.8712,0.0182,-0.2130,-1304.44,1671.88,1812.07
9280,-3.8712,0.0129,-0.2185,-1663.82,734.38,1327.70
9290,-3.8712,0.0114,-0.2180,1664.31,31.25,1155.82
9300,-3.8712,0.0167,-0.2134,1461.18,93.75,952.70
9310,-3.8712,0.0267,-0.2073,-1851.32,687.50,1015.20
9320,-3.8712,0.0332,-0.2053,-570.07,1468.75,1577.70
9330,-3.8712,0.0332,-0.2115,258.06,1718.81,-1812.93
9340,-3.8712,0.0326,-0.2200,258.06,921.94,-1516.05
9350,-3.8712,0.0332,-0.2227,179.93,-156.19,-1875.49
9360,-3.8712,0.0326,-0.2208,258.06,-499.94,1249.51
9370,-3.8712,0.0305,-0.2197,179.93,-265.56,546.39
9380,-3.8712,0.0319,-0.2241,-85.69,-125.00,327.64
9390,-3.8712,0.0355,-0.2308,86.18,-687.44,452.64
9400,-3.8712,0.0403,-0.2334,554.93,-1546.81,577.64
9410,-3.8712,0.0465,-0.2322,1164.31,-1874.94,515.14
9420,-3.8712,0.0490,-0.2271,1961.18,-1718.69,296.39
9430,-3.8713,0.0488,-0.2197,-1726.32,-1062.44,-62.99
9440,-3.8713,0.0504,-0.2131,-1741.94,-124.94,-484.86
9450,-3.8713,0.0525,-0.2058,-1538.82,718.81,-547.30
9460,-3.8712,0.0481,-0.2035,-1273.19,1656.31,218.32
9470,-3.8712,0.0338,-0.2100,-1835.69,1953.19,1108.95
9480,-3.8712,0.0184,-0.2198,336.18,1125.06,1374.57
9490,-3.8712,0.0133,-0.2316,-1632.57,-140.62,1780.76
9500,-3.8712,0.0175,-0.2411,1711.18,-1640.62,-1531.74
9510,-3.8712,0.0251,-0.2437,-1757.57,1140.62,-1422.36
9520,-3.8712,0.0326,-0.2389,-773.19,812.50,-1437.99
9530,-3.8712,0.0338,-0.2278,179.93,1421.94,-1375.49
9540,-3.8712,0.0287,-0.2168,336.18,-1156.19,-1266.11
9550,-3.8712,0.0223,-0.2141,-320.07,250.00,-1234.80
9560,-3.8712,0.0209,-0.2233,-1132.57,593.75,1999.57
9570,-3.8712,0.0254,-0.2352,-1320.07,-578.12,843.26
9580,-3.8712,0.0316,-0.2396,-741.94,1890.62,77.64
9590,-3.8712,0.0399,-0.2360,54.93,1328.19,312.01
9600,-3.8712,0.0443,-0.2295,1117.43,1796.94,1124.51
9610,-3.8712,0.0421,-0.2263,1679.93,-1374.94,1858.89
9620,-3.8712,0.0347,-0.2273,1398.68,-968.69,1983.89
9630,-3.8712,0.0275,-0.2314,445.56,-1093.69,1405.76
9640,-3.8712,0.0248,-0.2346,-476.32,-1625.00,577.64
9650,-3.8713,0.0197,-0.2306,-820.07,1968.75,-156.74
9660,-3.8713,0.0127,-0.2205,-1476.32,-1515.62,-516.11
9670,-3.8712,0.0085,-0.2103,1633.06,-218.75,108.89
9680,-3.8712,0.0114,-0.2045,1101.81,1078.12,1249.57
9690,-3.8712,0.0211,-0.2042,1461.18,1828.12,1671.45
9700,-3.8712,0.0273,-0.2096,-1288.82,1859.38,1374.57
9710,-3.8712,0.0283,-0.2172,-491.94,1171.88,1405.82
9720,-3.8712,0.0278,-0.2220,-366.94,203.12,1983.95
9730,-3.8712,0.0286,-0.2217,-429.44,-421.88,-1500.49
9740,-3.8712,0.0314,-0.2184,-335.69,-375.00,-1656.74
9750,-3.8712,0.0348,-0.2174,23.68,46.94,1733.95
9760,-3.8712,0.0430,-0.2181,461.18,171.94,1140.20
9770,-3.8712,0.0498,-0.2151,1508.06,78.19,702.70
9780,-3.8712,0.0525,-0.2124,-1616.94,468.81,577.70
9790,-3.8712,0.0519,-0.2150,-1273.19,812.56,733.95
9800,-3.8712,0.0430,-0.2198,-1351.32,484.44,1030.82
9810,-3.8712,0.0347,-0.2245,1508.06,-140.56,1108.89
9820,-3.8712,0.0332,-0.2264,445.56,-734.31,843.26
9830,-3.8712,0.0396,-0.2268,258.06,-984.31,437.01
9840,-3.8712,0.0470,-0.2233,1070.56,-1031.19,155.76
9850,-3.8713,0.0515,-0.2189,-1976.32,-578.06,-31.74
9860,-3.8713,0.0527,-0.2153,-1398.19,-15.56,-250.49
9870,-3.8713,0.0466,-0.2131,-1241.94,437.56,-531.68
9880,-3.8713,0.0366,-0.2146,1976.81,718.81,-687.93
9890,-3.8713,0.0254,-0.2168,695.56,531.31,-656.68
9900,-3.8713,0.0167,-0.2162,-741.94,250.00,-375.43
9910,-3.8712,0.0114,-0.2113,-1851.32,328.12,202.70
9920,-3.8712,0.0084,-0.2058,1461.18,953.12,765.20
9930,-3.8712,0.0083,-0.2014,1086.18,1656.25,1327.70
9940,-3.8712,0.0049,-0.1971,1070.56,-1781.25,-1937.93
9950,-3.8712,-0.0028,-0.1926,633.06,-1234.38,-1219.18
9960,-3.8712,-0.0087,-0.1897,-351.32,-640.69,-781.68
9970,-3.8712,-0.0104,-0.1888,-1101.32,-265.69,-375.43
9980,-3.8711,-0.0074,-0.1918,-1320.07,-156.31,312.07
9990,-3.8711,-0.0032,-0.1996,-945.07,-531.31,1140.20
10000,-3.8711,-0.0018,-0.2035,-398.19,-1531.31,1983.95
10010,-3.8711,-0.0035,-0.1985,-226.32,1968.69,-1969.18
10020,-3.8711,-0.0035,-0.1938,-445.07,-1390.69,999.57
10030,-3.8712,0.0000,-0.1952,-445.07,-796.94,-187.93
10040,-3.8712,0.0016,-0.1987,8.06,-984.38,-1359.80
10050,-3.8712,-0.0017,-0.2013,211.18,-1437.50,1405.82
10060,-3.8712,-0.0056,-0.2054,-210.69,-1750.06,358.95
10070,-3.8713,-0.0056,-0.2153,-710.69,1718.69,-531.68
10080,-3.8713,-0.0023,-0.2307,-710.69,453.06,-1266.05
10090,-3.8713,0.0078,-0.2467,-288.82,-1515.69,-1437.99
10100,-3.8713,0.0286,-0.2560,1008.06,421.88,-1031.74
10110,-3.8713,0.0527,-0.2579,-335.69,-765.62,-1094.30
10120,-3.8713,0.0740,-0.2579,-1241.94,-1015.56,1858.83
10130,-3.8713,0.0862,-0.2579,1476.81,-1015.50,265.08
10140,-3.8715,0.0848,-0.2593,-960.69,-1015.50,-1281.80
10150,-3.8715,0.0797,-0.2590,-1132.57,-1187.38,1874.45
10160,-3.8715,0.0791,-0.2517,-1788.82,-1156.13,-1297.42
10170,-3.8713,0.0758,-0.2365,-1866.94,-218.63,1249.45
10180,-3.8713,0.0627,-0.2150,1711.18,1734.50,-125.49
10190,-3.8712,0.0414,-0.1967,39.31,484.50,1030.82
10200,-3.8712,0.0105,-0.1904,1304.93,-1171.81,1030.82
10210,-3.8712,-0.0286,-0.1948,1351.81,-375.00,952.70
10220,-3.8712,-0.0653,-0.2020,351.81,-921.94,1812.07
10230,-3.8712,-0.0919,-0.2025,-351.32,-1843.93,-578.55
10240,-3.8711,-0.1104,-0.1940,242.43,-1906.43,640.20
10250,-3.8711,-0.1254,-0.1821,1883.06,-812.74,890.20
10260,-3.8711,-0.1344,-0.1750,-38.82,702.82,452.76
10270,-3.8712,-0.1331,-0.1759,-1195.07,1609.07,-359.74
10280,-3.8712,-0.1302,-0.1814,-1023.19,1499.69,-1469.12
10290,-3.8712,-0.1346,-0.1859,-663.82,796.57,1499.63
10300,-3.8712,-0.1406,-0.1873,-1226.32,218.44,859.01
10310,-3.8712,-0.1409,-0.1874,-1991.94,46.57,46.51
10320,-3.8713,-0.1460,-0.1852,1976.81,30.94,1968.38
10330,-3.8715,-0.1479,-0.1785,1320.56,312.19,-844.12
10340,-3.8715,-0.1244,-0.1744,1070.56,1171.57,1749.63
10350,-3.8715,-0.0914,-0.1794,86.18,1687.26,-1937.87
10360,-3.8715,-0.0712,-0.1859,304.93,1046.69,-1031.62
10370,-3.8713,-0.0599,-0.1876,-1101.32,218.57,452.76
10380,-3.8713,-0.0507,-0.1844,336.18,-0.12,-1266.05
10390,-3.8712,-0.0410,-0.1770,1523.68,406.13,1249.63
10400,-3.8712,-0.0277,-0.1646,-1241.94,1359.25,-890.99
10410,-3.8711,-0.0175,-0.1472,461.18,-1046.94,265.26
10420,-3.8711,-0.0178,-0.1306,1773.68,1171.81,1155.94
10430,-3.8711,-0.0222,-0.1204,1726.81,-703.19,-1890.93
10440,-3.8711,-0.0222,-0.1163,1164.31,609.31,-1109.62
10450,-3.8711,-0.0223,-0.1158,1164.31,1124.94,-609.62
10460,-3.8711,-0.0265,-0.1168,1148.68,1187.44,-297.12
10470,-3.8711,-0.0294,-0.1195,617.43,1062.44,-250.24
10480,-3.8711,-0.0325,-0.1226,242.43,718.69,-640.87
10490,-3.8711,-0.0425,-0.1238,-148.19,328.00,-1203.37
10500,-3.8711,-0.0555,-0.1243,-1429.44,171.75,-1531.49
10510,-3.8711,-0.0635,-0.1243,898.68,109.25,-1640.87
10520,-3.8711,-0.0702,-0.1227,-116.94,109.19,1999.76
10530,-3.8711,-0.0803,-0.1210,-976.32,312.32,1515.38
10540,-3.8711,-0.0878,-0.1217,1726.81,531.07,999.76
10550,-3.8711,-0.0865,-0.1271,773.68,437.32,468.51
10560,-3.8711,-0.0823,-0.1337,929.93,-250.18,265.32
10570,-3.8711,-0.0829,-0.1354,1476.81,-1093.93,171.57
10580,-3.8712,-0.0854,-0.1348,1398.68,-1312.68,-531.56
10590,-3.8712,-0.0840,-0.1365,1070.56,-1234.56,-1719.06
10600,-3.8712,-0.0813,-0.1400,1258.06,-1453.31,1234.07
10610,-3.8712,-0.0809,-0.1426,1601.81,-1906.43,624.69
10620,-3.8712,-0.0823,-0.1434,1648.68,1765.44,374.69
10630,-3.8712,-0.0836,-0.1442,1476.81,1656.07,155.94
10640,-3.8713,-0.0807,-0.1462,1304.93,1562.32,-15.93
10650,-3.8713,-0.0764,-0.1476,1679.93,1296.69,-0.31
10660,-3.8712,-0.0798,-0.1451,-1773.19,1124.82,327.82
10670,-3.8712,-0.0895,-0.1399,1789.31,1437.32,890.32
10680,-3.8712,-0.0979,-0.1348,554.93,-1890.81,1437.19
10690,-3.8712,-0.1007,-0.1317,-523.19,-1234.62,1921.57
10700,-3.8712,-0.0966,-0.1307,-882.57,-843.99,-1812.81
10710,-3.8712,-0.0873,-0.1300,-351.32,-718.99,-1765.93
10720,-3.8712,-0.0780,-0.1243,836.18,-625.18,-1344.06
10730,-3.8712,-0.0757,-0.1130,-1976.32,109.19,-547.12
10740,-3.8711,-0.0785,-0.1000,-1679.44,1546.69,218.51
10750,-3.8711,-0.0817,-0.0869,1961.18,-781.43,1015.38
10760,-3.8711,-0.0862,-0.0890,1554.93,890.44,1890.44
10770,-3.8711,-0.0930,-0.1198,976.81,624.82,-1562.68
10780,-3.8711,-0.0936,-0.1533,101.81,687.32,-1750.24
10790,-3.8711,-0.0809,-0.1549,23.68,390.44,1359.07
10800,-3.8712,-0.0647,-0.1287,1648.68,187.32,-375.31
10810,-3.8712,-0.0538,-0.1056,-273.19,-453.31,1546.57
10820,-3.8712,-0.0502,-0.1060,1117.43,-1500.12,140.38
10830,-3.8713,-0.0596,-0.1263,1586.18,-1547.00,-203.37
10840,-3.8712,-0.0819,-0.1449,383.06,-156.37,421.57
10850,-3.8712,-0.1088,-0.1492,1523.68,1468.57,1421.57
10860,-3.8712,-0.1245,-0.1388,-1913.82,921.63,-1859.68
10870,-3.8712,-0.1111,-0.1234,70.56,-1750.24,-1406.56
10880,-3.8712,-0.0703,-0.1211,1789.31,218.51,-1031.49
10890,-3.8712,-0.0385,-0.1230,-991.94,515.44,-953.37
10900,-3.8712,-0.0350,-0.1189,-913.82,265.50,-1109.62
10910,-3.8712,-0.0437,-0.1150,-476.32,796.75,-953.37
10920,-3.8712,-0.0532,-0.1079,-1585.69,1296.75,-359.62
10930,-3.8711,-0.0568,-0.0955,1195.56,-1797.00,406.01
10940,-3.8711,-0.0552,-0.0830,742.43,-203.25,1046.63
10950,-3.8711,-0.0677,-0.0975,945.56,1390.50,1140.44
10960,-3.8711,-0.0870,-0.1239,-663.82,-468.93,796.63
10970,-3.8711,-0.0897,-0.1226,867.43,156.07,156.01
10980,-3.8712,-0.0885,-0.1115,523.68,327.94,-437.74
10990,-3.8712,-0.0980,-0.1140,679.93,1749.82,-593.99
11000,-3.8712,-0.1118,-0.1221,-538.82,1421.63,-843.99
11010,-3.8712,-0.1123,-0.1235,1695.56,390.38,-1437.74
11020,-3.8712,-0.1035,-0.1287,1633.06,202.88,1687.26
11030,-3.8712,-0.1039,-0.1415,-1241.94,-453.37,812.19
11040,-3.8712,-0.1034,-0.1427,-1288.82,1906.01,765.32
11050,-3.8712,-0.0934,-0.1299,-1226.32,1749.76,-1953.43
11060,-3.8712,-0.0856,-0.1204,54.93,-609.56,-125.31
11070,-3.8711,-0.0848,-0.1205,1054.93,609.19,1031.01
11080,-3.8711,-0.0814,-0.1213,1148.68,593.57,687.26
11090,-3.8712,-0.0723,-0.1210,1586.18,484.19,-718.99
11100,-3.8712,-0.0708,-0.1239,-1241.94,531.07,-1593.99
11110,-3.8712,-0.0706,-0.1201,-1054.44,156.07,-1437.74
11120,-3.8712,-0.0635,-0.1189,-1023.19,640.44,-750.24
11130,-3.8711,-0.0535,-0.1238,-116.94,796.69,390.38
11140,-3.8711,-0.0392,-0.1132,1164.31,171.75,890.38
11150,-3.8712,-0.0374,-0.1078,-1007.57,1531.13,-547.12
11160,-3.8712,-0.0516,-0.1248,-773.19,-1781.37,1437.26
11170,-3.8712,-0.0564,-0.1365,1398.68,46.75,968.51
11180,-3.8712,-0.0543,-0.1351,789.31,-1453.25,1890.32
11190,-3.8712,-0.0548,-0.1343,1054.93,-1281.37,-969.06
11200,-3.8712,-0.0532,-0.1377,992.43,-1172.00,-359.68
11210,-3.8712,-0.0513,-0.1410,1195.56,-1609.50,-172.18
11220,-3.8711,-0.0492,-0.1366,1445.56,1968.63,15.32
11230,-3.8712,-0.0416,-0.1293,1711.18,-1468.87,-281.56
11240,-3.8712,-0.0306,-0.1261,-1320.07,-531.37,-1422.18
11250,-3.8712,-0.0261,-0.1290,86.18,-125.06,1124.69
11260,-3.8712,-0.0282,-0.1362,664.31,-500.06,218.44
11270,-3.8712,-0.0343,-0.1422,398.68,-1421.94,312.19
11280,-3.8712,-0.0381,-0.1436,-382.57,1812.38,1468.44
11290,-3.8712,-0.0366,-0.1399,-866.94,1640.50,-1344.06
11300,-3.8712,-0.0354,-0.1357,-679.44,-1890.75,-1172.18
11310,-3.8712,-0.0385,-0.1298,-523.19,-1359.50,-1297.18
11320,-3.8712,-0.0487,-0.1208,-913.82,-593.87,-844.06
11330,-3.8712,-0.0532,-0.1117,1773.68,546.75,-140.87
11340,-3.8711,-0.0507,-0.1085,1195.56,1718.63,390.38
11350,-3.8711,-0.0574,-0.1219,1523.68,-1875.12,124.76
11360,-3.8712,-0.0610,-0.1302,664.31,406.13,-93.99
11370,-3.8711,-0.0540,-0.1257,195.56,-656.37,202.82
11380,-3.8712,-0.0447,-0.1228,1101.81,-78.25,-812.81
11390,-3.8712,-0.0386,-0.1191,-1710.69,296.75,1749.76
11400,-3.8712,-0.0354,-0.1200,-929.44,765.50,1937.26
11410,-3.8712,-0.0326,-0.1243,-523.19,656.13,-890.87
11420,-3.8712,-0.0320,-0.1289,-163.82,109.25,-62.74
11430,-3.8711,-0.0311,-0.1343,-85.69,-484.50,265.32
11440,-3.8711,-0.0342,-0.1345,23.68,-1171.94,249.69
11450,-3.8712,-0.0399,-0.1304,-366.94,-1203.25,-156.56
11460,-3.8712,-0.0431,-0.1294,-1101.32,-672.00,-672.18
11470,-3.8712,-0.0385,-0.1301,-1507.57,-547.00,-1015.93
11480,-3.8712,-0.0339,-0.1349,-913.82,-640.75,-1250.31
11490,-3.8712,-0.0353,-0.1411,-335.69,-1250.12,-1500.31
11500,-3.8712,-0.0328,-0.1394,-507.57,1953.00,-1875.31
11510,-3.8712,-0.0325,-0.1345,-195.07,-1828.25,1796.57
11520,-3.8712,-0.0323,-0.1282,-148.19,-1203.25,-1953.43
11530,-3.8712,-0.0343,-0.1235,-132.57,-390.75,-1140.93
11540,-3.8712,-0.0422,-0.1249,-382.57,203.00,-468.99
11550,-3.8711,-0.0408,-0.1279,-1398.19,31.13,31.01
11560,-3.8711,-0.0316,-0.1316,-1210.69,-359.50,452.82
11570,-3.8711,-0.0239,-0.1331,-38.82,-828.25,484.07
11580,-3.8711,-0.0271,-0.1322,945.56,-1015.69,280.94
11590,-3.8712,-0.0370,-0.1316,539.31,-906.31,-78.43
11600,-3.8712,-0.0426,-0.1320,-726.32,-828.25,-750.31
11610,-3.8712,-0.0463,-0.1381,-1445.07,-875.12,-1656.56
11620,-3.8712,-0.0403,-0.1440,-1913.82,-1656.37,1812.19
11630,-3.8712,-0.0267,-0.1447,-1148.19,1578.00,-1922.18
11640,-3.8712,-0.0194,-0.1465,586.18,1499.94,-1031.56
11650,-3.8711,-0.0220,-0.1476,1523.68,1265.56,124.69
11660,-3.8711,-0.0243,-0.1428,1195.56,1124.94,468.44
11670,-3.8712,-0.0184,-0.1362,898.68,1734.31,-172.18
11680,-3.8712,-0.0104,-0.1381,1648.68,-1421.94,-609.68
11690,-3.8712,-0.0094,-0.1467,-1320.07,-1656.31,-328.43
11700,-3.8712,-0.0164,-0.1536,-1195.07,1234.31,-203.43
11710,-3.8712,-0.0219,-0.1583,1914.31,359.31,-1047.18
11720,-3.8712,-0.0228,-0.1582,1211.18,-250.06,1609.01
11730,-3.8712,-0.0222,-0.1583,1086.18,-234.44,562.13
11740,-3.8712,-0.0198,-0.1621,1164.31,-250.06,30.88
11750,-3.8713,-0.0150,-0.1626,1476.81,-734.44,-203.49
11760,-3.8713,-0.0083,-0.1627,-1913.82,-796.94,-703.49
11770,-3.8713,-0.0031,-0.1599,-1054.44,-812.56,-1172.24
11780,-3.8713,-0.0065,-0.1515,-382.57,-453.19,-1078.49
11790,-3.8713,-0.0093,-0.1470,-820.07,624.94,-765.93
11800,-3.8712,-0.0178,-0.1509,-1179.44,1203.06,421.57
11810,-3.8712,-0.0367,-0.1550,1726.81,703.06,-1437.81
11820,-3.8711,-0.0421,-0.1573,-695.07,171.75,296.57
11830,-3.8711,-0.0316,-0.1617,-1382.57,-125.12,734.01
11840,-3.8711,-0.0232,-0.1602,-38.82,-687.62,421.51
11850,-3.8711,-0.0256,-0.1580,1039.31,-484.44,437.13
11860,-3.8711,-0.0344,-0.1625,726.81,-203.19,984.01
11870,-3.8711,-0.0325,-0.1675,-398.19,-781.37,1468.38
11880,-3.8711,-0.0181,-0.1678,-148.19,-1422.00,1155.88
11890,-3.8711,-0.0137,-0.1559,1695.56,-1468.81,280.88
11900,-3.8712,-0.0144,-0.1550,-1741.94,62.44,-375.31
11910,-3.8712,-0.0148,-0.1698,-1835.69,171.81,-1453.43
11920,-3.8712,-0.0194,-0.1738,-1882.57,-1718.81,1937.13
11930,-3.8712,-0.0215,-0.1747,1523.68,1765.56,-1406.62
11940,-3.8712,-0.0176,-0.1766,1258.06,1656.19,-890.99
11950,-3.8712,-0.0103,-0.1770,1758.06,1406.19,-984.74
11960,-3.8712,-0.0010,-0.1786,-1304.44,1359.31,-1422.24
11970,-3.8712,0.0054,-0.1815,-116.94,1156.19,-1969.12
11980,-3.8712,0.0071,-0.1848,695.56,765.62,1577.76
11990,-3.8712,0.0092,-0.1874,914.31,343.75,1187.13
12000,-3.8712,0.0094,-0.1874,1179.93,15.62,671.51
12010,-3.8712,0.0072,-0.1848,1211.18,15.62,187.13
12020,-3.8713,0.0045,-0.1779,929.93,343.75,-156.62
12030,-3.8712,0.0048,-0.1732,586.18,1234.38,77.76
12040,-3.8712,0.0000,-0.1790,617.43,1828.12,952.76
12050,-3.8712,-0.0106,-0.1886,8.06,1093.75,1999.63
12060,-3.8712,-0.0131,-0.1957,-1351.32,-125.06,-1234.80
12070,-3.8712,-0.0110,-0.1938,-1663.82,-1031.31,-1109.80
12080,-3.8712,-0.0084,-0.1853,-1398.19,-796.94,-1656.68
12090,-3.8712,-0.0035,-0.1781,-1070.07,296.81,1374.63
12100,-3.8712,0.0034,-0.1763,-445.07,1218.69,437.13
12110,-3.8712,0.0145,-0.1810,445.56,1437.50,46.51
12120,-3.8712,0.0165,-0.1897,1867.43,828.12,296.51
12130,-3.8712,0.0034,-0.1978,-1882.57,-281.25,1030.82
12140,-3.8712,-0.0074,-0.1986,445.56,-1312.50,1921.45
12150,-3.8712,-0.0095,-0.1904,-945.07,-1406.31,-1547.30
12160,-3.8712,-0.0129,-0.1813,-1210.69,-359.44,-1531.68
12170,-3.8712,-0.0238,-0.1776,-1648.19,812.44,-1625.37
12180,-3.8712,-0.0345,-0.1758,961.18,1281.19,-1672.24
12190,-3.8712,-0.0386,-0.1733,-413.82,1515.50,-1250.37
12200,-3.8712,-0.0409,-0.1735,-929.44,1828.00,-234.74
12210,-3.8711,-0.0392,-0.1727,-1226.32,1812.38,812.13
12220,-3.8711,-0.0358,-0.1704,-1007.57,1906.13,1280.88
12230,-3.8711,-0.0367,-0.1718,-570.07,-1797.00,921.51
12240,-3.8711,-0.0369,-0.1766,-695.07,-1968.87,140.26
12250,-3.8712,-0.0330,-0.1825,-710.69,1406.13,-562.87
12260,-3.8712,-0.0243,-0.1859,-210.69,656.13,-984.74
12270,-3.8712,-0.0168,-0.1875,898.68,218.69,-1359.74
12280,-3.8712,-0.0144,-0.1893,1851.81,15.56,-1640.99
12290,-3.8712,-0.0150,-0.1917,-1835.69,-218.81,-1891.05
12300,-3.8712,-0.0159,-0.1936,-1913.82,-515.69,1702.70
12310,-3.8712,-0.0159,-0.1954,1976.81,-765.69,1343.32
12320,-3.8712,-0.0137,-0.1985,1976.81,-1000.06,1265.20
12330,-3.8712,-0.0076,-0.2026,-1741.94,-1390.69,1577.70
12340,-3.8712,0.0021,-0.2073,-960.69,-1921.94,-1937.93
12350,-3.8712,0.0149,-0.2155,273.68,1468.75,-1922.30
12360,-3.8712,0.0222,-0.2455,1914.31,421.88,1421.45
12370,-3.8712,0.0493,-0.2441,-1148.19,578.12,843.26
12380,-3.8713,0.0712,-0.2185,-1679.44,750.06,-203.61
12390,-3.8713,0.0555,-0.2209,1117.43,31.37,999.57
12400,-3.8715,0.0374,-0.2300,-882.57,-281.19,-969.24
12410,-3.8713,0.0315,-0.2208,789.31,-1437.44,640.14
12420,-3.8713,0.0203,-0.1947,39.31,-265.56,-1266.11
12430,-3.8713,-0.0118,-0.1876,-1398.19,-921.88,-594.18
12440,-3.8712,-0.0369,-0.1862,-1507.57,-0.06,905.82
12450,-3.8712,-0.0486,-0.1781,-710.69,187.38,-1140.99
12460,-3.8712,-0.0621,-0.1779,1789.31,1218.63,-875.37
12470,-3.8712,-0.0714,-0.1903,54.93,1249.88,1905.88
12480,-3.8712,-0.0796,-0.2050,-1132.57,-343.93,921.45
12490,-3.8712,-0.1035,-0.1749,1820.56,1781.07,1921.45
12500,-3.8712,-0.1322,-0.1370,-1241.94,1624.76,-875.37
12510,-3.8712,-0.1709,-0.1837,-913.82,-1515.93,-31.56
12520,-3.8711,-0.1251,-0.1908,-1866.94,499.63,-1500.37
12530,-3.8711,0.0022,-0.1206,-7.57,-406.56,-1391.05
12540,-3.8712,0.0376,-0.1282,289.31,562.50,-1062.74
12550,-3.8712,0.0089,-0.2076,820.56,-406.19,593.44
12560,-3.8712,-0.0049,-0.2505,1148.68,1421.88,1327.70
12570,-3.8712,-0.0107,-0.2350,-616.94,-46.94,-1547.42
12580,-3.8712,-0.0004,-0.2117,-1366.94,1937.44,1577.64
12590,-3.8713,0.0222,-0.2050,-38.82,921.81,-0.43
12600,-3.8713,0.0367,-0.2141,-1148.19,1765.62,-672.30
12610,-3.8713,0.0388,-0.2260,711.18,593.81,-797.30
12620,-3.8713,0.0348,-0.2313,976.81,-921.81,-875.49
12630,-3.8713,0.0332,-0.2273,461.18,-1609.31,-1000.49
12640,-3.8713,0.0369,-0.2179,258.06,-1093.69,-891.11
12650,-3.8713,0.0402,-0.2122,726.81,109.44,-125.43
12660,-3.8712,0.0266,-0.2137,1148.68,843.81,1093.32
12670,-3.8712,-0.0421,-0.2030,-585.69,640.62,-1187.93
12680,-3.8711,-0.1050,-0.1843,-1382.57,-1968.87,-1141.05
12690,-3.8710,-0.0819,-0.1841,-1429.44,421.63,-1797.24
12700,-3.8710,-0.0364,-0.1913,1523.68,452.94,-1969.12
12710,-3.8711,-0.0143,-0.2006,-648.19,-468.87,-109.80
12720,-3.8711,0.0100,-0.2144,-1820.07,-1656.31,515.20
12730,-3.8712,0.0408,-0.2255,1289.31,562.50,1515.20
12740,-3.8713,0.0582,-0.2336,1226.81,-859.31,-328.61
12750,-3.8713,0.0552,-0.2377,-538.82,-1906.19,-1312.99
12760,-3.8713,0.0338,-0.2352,-929.44,1578.19,-1953.61
12770,-3.8713,-0.0032,-0.2251,336.18,1890.69,1671.39
12780,-3.8713,-0.0300,-0.2186,-398.19,-796.94,1687.01
12790,-3.8713,-0.0391,-0.2206,164.31,31.19,1780.82
12800,-3.8713,-0.0356,-0.2202,-991.94,-218.87,1921.39
12810,-3.8713,-0.0190,-0.2218,-554.44,-172.00,-1750.49
12820,-3.8713,-0.0107,-0.2247,1570.56,-375.06,-1094.24
12830,-3.8713,-0.0173,-0.2242,-1366.94,-750.06,-625.49
12840,-3.8713,-0.0253,-0.2213,1789.31,-687.56,-672.36
12850,-3.8713,-0.0222,-0.2141,773.68,-312.56,-78.61
12860,-3.8712,-0.0044,-0.2043,1164.31,609.31,1983.95
12870,-3.8711,0.0262,-0.1912,-554.44,1859.31,202.70
12880,-3.8711,0.0460,-0.1879,-632.57,-468.75,1030.82
12890,-3.8712,0.0417,-0.1942,1898.68,-46.81,-16.05
12900,-3.8712,0.0250,-0.1964,1351.81,-859.31,-1797.30
12910,-3.8712,0.0156,-0.2029,-788.82,-1140.62,1077.70
12920,-3.8712,0.0201,-0.2211,-1991.94,-1968.75,577.70
12930,-3.8712,0.0326,-0.2224,-1413.82,-296.88,124.51
12940,-3.8712,0.0260,-0.2111,179.93,-468.69,140.14
12950,-3.8712,0.0038,-0.2257,-663.82,984.38,546.45
12960,-3.8712,0.0016,-0.2434,492.43,-890.62,1468.26
12970,-3.8712,0.0194,-0.2521,211.18,843.75,-1484.86
12980,-3.8712,0.0338,-0.2323,-1507.57,-265.62,1405.70
12990,-3.8712,0.0284,-0.1946,336.18,-1734.31,858.89
13000,-3.8712,0.0150,-0.2034,-351.32,-906.25,1249.57
13010,-3.8712,0.0067,-0.2261,1929.93,1968.75,1374.57
13020,-3.8712,-0.0024,-0.2229,867.43,-937.50,-1375.49
13030,-3.8712,-0.0101,-0.2123,-304.44,-515.69,-547.36
13040,-3.8712,-0.0148,-0.2089,-1288.82,843.69,-469.18
13050,-3.8712,-0.0210,-0.2102,-1882.57,1281.19,-891.05
13060,-3.8712,-0.0219,-0.2123,1320.56,1109.31,-1656.68
13070,-3.8712,-0.0161,-0.2169,1211.18,843.69,1921.45
13080,-3.8712,-0.0092,-0.2186,1945.56,249.94,1843.32
13090,-3.8712,-0.0028,-0.2174,-1163.82,31.19,1780.82
13100,-3.8712,0.0004,-0.2146,-351.32,187.44,1624.57
13110,-3.8712,-0.0065,-0.2623,54.93,531.25,1640.20
13120,-3.8712,-0.0083,-0.2461,-820.07,-1562.56,1546.33
13130,-3.8712,0.0031,-0.1797,-1054.44,515.56,1562.01
13140,-3.8712,0.0131,-0.2056,398.68,1000.00,796.51
13150,-3.8712,0.0104,-0.2482,1679.93,1687.50,765.20
13160,-3.8712,-0.0040,-0.2673,1336.18,234.38,1874.51
13170,-3.8712,-0.0154,-0.2598,-507.57,1796.81,1686.95
13180,-3.8712,-0.0126,-0.2418,-1960.69,-1234.44,999.45
13190,-3.8712,-0.0034,-0.2338,-1601.32,1062.44,483.89
13200,-3.8712,0.0066,-0.2384,-429.44,-1906.31,202.64
13210,-3.8713,0.0142,-0.2526,851.81,1484.38,-172.36
13220,-3.8713,0.0210,-0.2560,1820.56,-328.12,-688.05
13230,-3.8713,0.0328,-0.2489,-1304.44,-765.62,-938.05
13240,-3.8713,0.0416,-0.2461,211.18,140.69,-1172.36
13250,-3.8713,0.0391,-0.2454,1336.18,500.06,-1156.74
13260,-3.8713,0.0306,-0.2440,1008.06,593.81,-969.24
13270,-3.8713,0.0239,-0.2444,-70.07,765.62,-953.61
13280,-3.8713,0.0242,-0.2410,-929.44,718.75,-812.99
13290,-3.8713,0.0303,-0.2363,-898.19,1156.25,-219.24
13300,-3.8712,0.0337,-0.2384,-116.94,1750.00,562.01
13310,-3.8712,0.0320,-0.2368,320.56,1484.44,1062.01
13320,-3.8712,0.0215,-0.2288,101.81,1687.56,1093.26
13330,-3.8712,0.0048,-0.2233,-1241.94,-1281.25,812.01
13340,-3.8712,-0.0052,-0.2231,617.43,-578.12,827.64
13350,-3.8712,-0.0055,-0.2240,-663.82,-546.94,1124.51
13360,-3.8712,-0.0021,-0.2256,-695.07,-656.31,1483.89
13370,-3.8712,0.0012,-0.2262,-257.57,-859.44,1843.26
13380,-3.8712,0.0010,-0.2251,164.31,-953.12,1999.51
13390,-3.8712,-0.0009,-0.2211,133.06,-812.50,1983.89
13400,-3.8712,-0.0070,-0.2159,-101.32,-281.31,-1969.24
13410,-3.8712,-0.0157,-0.2194,-882.57,374.94,-1750.43
13420,-3.8712,-0.0203,-0.2456,1992.43,-62.56,-1516.11
13430,-3.8712,-0.0155,-0.2440,1414.31,578.06,-1641.11
13440,-3.8712,-0.0096,-0.2031,-1976.32,781.19,-1703.61
13450,-3.8712,-0.0105,-0.1948,-1226.32,-1984.44,1718.32
13460,-3.8712,-0.0118,-0.2095,-1335.69,-921.94,1702.70
13470,-3.8712,-0.0096,-0.2209,-1507.57,1203.06,-1531.68
13480,-3.8712,-0.0023,-0.2306,-1226.32,-265.69,-1875.49
13490,-3.8712,0.0038,-0.2322,-288.82,-1500.06,1202.64
13500,-3.8712,0.0063,-0.2262,492.43,-1718.75,358.89
13510,-3.8712,0.0107,-0.2155,820.56,-953.12,327.64
13520,-3.8712,0.0126,-0.2107,1383.06,421.88,858.95
13530,-3.8712,0.0100,-0.2145,1617.43,1031.25,1312.07
13540,-3.8712,0.0051,-0.2158,1289.31,546.88,1390.20
13550,-3.8712,0.0020,-0.2168,664.31,375.00,1233.95
13560,-3.8712,-0.0049,-0.2161,258.06,250.00,937.07
13570,-3.8712,-0.0073,-0.2119,-616.94,359.31,1077.70
13580,-3.8712,0.0024,-0.2122,-929.44,890.56,1249.57
13590,-3.8712,0.0072,-0.2301,320.56,843.75,608.95
13600,-3.8712,0.0115,-0.2424,929.93,-1453.12,280.76
13610,-3.8712,0.0128,-0.2366,1476.81,968.75,187.01
13620,-3.8712,0.0055,-0.2350,1648.68,1718.75,124.51
13630,-3.8712,-0.0012,-0.2343,711.18,1921.88,452.64
13640,-3.8712,0.0023,-0.2330,-148.19,-1968.81,358.89
13650,-3.8713,0.0157,-0.2344,304.93,-1828.12,-453.61
13660,-3.8713,0.0323,-0.2372,-1976.32,-2000.00,-1687.99
13670,-3.8713,0.0499,-0.2412,148.68,1640.69,874.51
13680,-3.8715,0.0625,-0.2461,-1601.32,1125.06,-297.36
13690,-3.8715,0.0637,-0.2474,8.06,500.12,-797.36
13700,-3.8715,0.0538,-0.2407,164.31,328.25,-219.24
13710,-3.8713,0.0421,-0.2372,-1101.32,1187.56,937.01
13720,-3.8713,0.0233,-0.2391,1398.68,1640.69,-1922.36
13730,-3.8713,-0.0032,-0.2363,-1007.57,1390.62,-781.74
13740,-3.8712,-0.0247,-0.2272,-398.19,1765.56,687.01
13750,-3.8712,-0.0359,-0.2153,851.81,-1062.56,-1641.11
13760,-3.8712,-0.0389,-0.2133,-585.69,453.00,-156.68
13770,-3.8711,-0.0433,-0.2256,-976.32,718.63,1046.45
13780,-3.8711,-0.0464,-0.2325,-1538.82,-859.50,1718.26
13790,-3.8711,-0.0419,-0.2272,-1929.44,-1750.12,1655.76
13800,-3.8711,-0.0332,-0.2174,-1351.32,-1062.62,1202.64
13810,-3.8711,-0.0298,-0.2123,-241.94,187.38,780.82
13820,-3.8711,-0.0320,-0.2158,195.56,843.69,233.95
13830,-3.8712,-0.0350,-0.2164,-85.69,390.50,-172.30
13840,-3.8712,-0.0374,-0.2120,-476.32,312.38,-453.55
13850,-3.8712,-0.0347,-0.2079,-773.19,874.88,-875.43
13860,-3.8712,-0.0260,-0.2063,-429.44,1406.13,-1172.30
13870,-3.8712,-0.0151,-0.2115,679.93,1609.31,-1344.18
13880,-3.8712,-0.0067,-0.2203,-1929.44,937.44,-1969.18
13890,-3.8712,-0.0005,-0.2269,-851.32,-187.56,874.51
13900,-3.8713,0.0056,-0.2290,-54.44,-1031.31,-266.11
13910,-3.8713,0.0066,-0.2274,726.81,-1312.50,-891.11
13920,-3.8713,0.0049,-0.2275,851.81,-1109.38,-625.49
13930,-3.8712,0.0038,-0.2216,633.06,-1125.00,374.51
13940,-3.8712,-0.0035,-0.2156,492.43,-359.38,905.76
13950,-3.8712,-0.0126,-0.2170,-445.07,421.81,858.95
13960,-3.8712,-0.0155,-0.2194,-1601.32,234.31,1171.45
13970,-3.8712,-0.0120,-0.2708,-1976.32,-62.56,1671.39
13980,-3.8712,-0.0070,-0.2770,-1523.19,1359.31,718.20
13990,-3.8712,0.0121,-0.2170,-882.57,562.44,186.95
14000,-3.8713,0.0275,-0.2123,1554.93,218.75,-1141.05
14010,-3.8713,0.0183,-0.2283,-476.32,828.12,1546.45
14020,-3.8713,0.0063,-0.2313,-1648.19,-1218.75,-1266.11
14030,-3.8712,-0.0029,-0.2323,820.56,-1609.38,46.39
14040,-3.8712,-0.0079,-0.2400,-366.94,-1718.81,624.51
14050,-3.8713,-0.0104,-0.2443,-1007.57,1296.81,-172.36
14060,-3.8713,-0.0138,-0.2444,-1320.07,749.94,-1281.74
14070,-3.8713,-0.0137,-0.2429,-1757.57,734.31,-1781.74
14080,-3.8713,-0.0099,-0.2373,-1741.94,921.81,-1453.61
14090,-3.8713,-0.0063,-0.2319,-1257.57,1640.56,-469.24
14100,-3.8712,-0.0043,-0.2249,-804.44,-1671.94,687.01
14110,-3.8712,-0.0076,-0.2172,-538.82,-765.69,1593.26
14120,-3.8712,-0.0157,-0.2157,-960.69,218.69,-1781.68
14130,-3.8712,-0.0220,-0.2205,1992.43,406.19,-1469.18
14140,-3.8712,-0.0217,-0.2278,1195.56,-203.19,-1797.36
14150,-3.8712,-0.0171,-0.2333,1226.81,-1140.69,1280.76
14160,-3.8712,-0.0129,-0.2305,1820.56,-1843.81,327.64
14170,-3.8712,-0.0129,-0.2198,-1648.19,-1484.44,202.64
14180,-3.8712,-0.0123,-0.2085,-1648.19,-125.06,1108.89
14190,-3.8712,-0.0128,-0.2035,-1570.07,1328.06,-1625.43
14200,-3.8712,-0.0194,-0.2086,-1632.57,1968.69,-1047.30
14210,-3.8712,-0.0219,-0.2198,1523.68,1312.44,-1437.93
14220,-3.8712,-0.0162,-0.2299,1211.18,-125.06,1655.76
14230,-3.8712,-0.0100,-0.2311,1929.93,-1406.31,358.89
14240,-3.8713,-0.0050,-0.2206,-1273.19,-1562.56,-562.99
14250,-3.8713,-0.0029,-0.2092,-632.57,-218.81,-422.36
14260,-3.8712,-0.0023,-0.2091,-366.94,1234.31,390.20
14270,-3.8712,-0.0115,-0.2084,-288.82,1249.94,796.45
14280,-3.8712,-0.0269,-0.2024,-1460.69,1343.69,515.20
14290,-3.8712,-0.0316,-0.2021,570.56,-1890.69,124.57
14300,-3.8713,-0.0375,-0.2141,-38.82,-1859.50,-109.80
14310,-3.8712,-0.0420,-0.2240,-788.82,609.25,327.70
14320,-3.8712,-0.0457,-0.2236,-1366.94,-656.37,983.89
14330,-3.8712,-0.0541,-0.2205,-1835.69,-609.50,1640.14
14340,-3.8712,-0.0601,-0.2128,1086.18,-203.25,-844.24
14350,-3.8711,-0.0651,-0.2087,320.56,781.13,608.95
14360,-3.8711,-0.0693,-0.2097,-320.07,1296.69,749.57
14370,-3.8712,-0.0680,-0.2097,-866.94,1171.69,-62.93
14380,-3.8712,-0.0555,-0.2059,-695.07,1171.69,-1109.80
14390,-3.8712,-0.0406,-0.1985,898.68,1656.13,-1656.68
14400,-3.8712,-0.0337,-0.1952,-1195.07,-1390.75,-1719.18
14410,-3.8712,-0.0354,-0.1997,-304.44,-968.87,-1578.55
14420,-3.8712,-0.0415,-0.2081,-523.19,-1547.00,-1062.93
14430,-3.8712,-0.0481,-0.2147,-1304.44,1374.88,-500.43
14440,-3.8712,-0.0531,-0.2190,1851.81,531.13,-437.93
14450,-3.8712,-0.0537,-0.2231,1211.18,-15.75,-1266.11
14460,-3.8712,-0.0530,-0.2230,1133.06,-547.00,1421.39
14470,-3.8712,-0.0552,-0.2158,1226.81,-531.37,421.39
14480,-3.8712,-0.0591,-0.2101,945.56,390.50,77.70
14490,-3.8712,-0.0638,-0.2179,445.56,1124.88,374.57
14500,-3.8712,-0.0687,-0.2372,-163.82,124.82,905.82
14510,-3.8712,-0.0684,-0.2544,-788.82,1656.07,1124.51
14520,-3.8712,-0.0562,-0.2671,-741.94,-547.06,1171.33
14530,-3.8712,-0.0276,-0.2826,820.56,1828.00,1858.83
14540,-3.8712,0.0201,-0.3046,476.81,-156.31,-969.36
14550,-3.8712,0.0852,-0.3284,-1413.82,1015.62,-1578.74
14560,-3.8713,0.1539,-0.3459,-1085.69,1968.87,-1625.67
14570,-3.8716,0.2013,-0.3528,-288.82,-281.01,-78.86
14580,-3.8717,0.2161,-0.3544,1773.68,-1155.88,1796.14
14590,-3.8718,0.1990,-0.3536,-335.69,-1359.01,1874.27
14600,-3.8718,0.1581,-0.3450,1476.81,-1265.26,874.27
14610,-3.8718,0.1021,-0.3278,242.43,-155.94,-1578.86
14620,-3.8717,0.0428,-0.3029,1070.56,-1952.94,1749.33
14630,-3.8716,-0.0134,-0.2694,1492.43,1234.44,-1781.86
14640,-3.8715,-0.0770,-0.2260,-1710.69,1531.19,-797.42
14650,-3.8713,-0.1376,-0.1770,-1851.32,-906.43,-0.49
14660,-3.8712,-0.1780,-0.1375,-1601.32,1359.07,-187.87
14670,-3.8711,-0.1903,-0.1096,1226.81,-1578.49,-1672.18
14680,-3.8711,-0.1703,-0.1124,-351.32,1983.95,-297.12
14690,-3.8710,-0.1305,-0.1550,-1788.82,1624.63,656.01
14700,-3.8710,-0.1069,-0.1924,-695.07,171.57,1390.32
14710,-3.8710,-0.1173,-0.2009,-1679.44,-609.62,1202.70
14720,-3.8711,-0.1312,-0.1958,992.43,-1703.37,-31.68
14730,-3.8711,-0.1248,-0.1918,-788.82,-1047.18,-1094.18
14740,-3.8711,-0.1074,-0.1962,39.31,-531.49,-1516.05
14750,-3.8711,-0.0948,-0.2043,-1741.94,-1093.99,1968.32
14760,-3.8711,-0.0923,-0.2098,-132.57,1859.13,983.95
14770,-3.8712,-0.0948,-0.2142,195.56,1156.07,-234.80
14780,-3.8712,-0.0914,-0.2113,-132.57,593.51,-1016.05
14790,-3.8712,-0.0776,-0.2002,304.93,968.57,-1000.43
14800,-3.8712,-0.0609,-0.1918,-1929.44,-1609.56,-766.05
14810,-3.8712,-0.0491,-0.1890,211.18,-531.37,-875.43
14820,-3.8712,-0.0480,-0.1895,1726.81,-172.00,-1156.68
14830,-3.8712,-0.0563,-0.1947,1867.43,-234.50,-1297.30
14840,-3.8712,-0.0625,-0.2012,804.93,-906.37,-1328.55
14850,-3.8712,-0.0603,-0.2039,8.06,-1734.50,-1312.93
14860,-3.8712,-0.0573,-0.2042,289.31,1921.75,-1375.43
14870,-3.8712,-0.0596,-0.2051,679.93,1874.88,-1594.18
14880,-3.8712,-0.0657,-0.2072,383.06,1765.50,-1953.55
14890,-3.8712,-0.0729,-0.2085,-398.19,1499.82,1530.82
14900,-3.8712,-0.0792,-0.2080,-1320.07,1327.94,1062.07
14910,-3.8712,-0.0829,-0.2073,1867.43,1390.44,718.32
14920,-3.8712,-0.0840,-0.2078,1398.68,1484.19,280.82
14930,-3.8713,-0.0840,-0.2097,1258.06,1421.69,-266.05
14940,-3.8713,-0.0831,-0.2113,1258.06,1171.69,-906.68
14950,-3.8713,-0.0814,-0.2129,1367.43,968.57,-1297.30
14960,-3.8713,-0.0792,-0.2159,1586.18,765.44,-1187.93
14970,-3.8713,-0.0796,-0.2164,1867.43,374.82,-734.80
14980,-3.8713,-0.0847,-0.2128,1820.56,312.32,-172.30
14990,-3.8712,-0.0903,-0.2078,1164.31,781.07,312.07
15000,-3.8712,-0.0931,-0.2046,445.56,1421.69,530.82
15010,-3.8712,-0.0940,-0.2037,86.18,1827.94,640.20
15020,-3.8712,-0.0913,-0.2043,-23.19,1937.26,905.82
15030,-3.8712,-0.0859,-0.2056,320.56,1859.19,1140.20
15040,-3.8712,-0.0826,-0.2065,1008.06,1702.94,1327.70
15050,-3.8712,-0.0807,-0.2092,1429.93,1577.94,1499.57
15060,-3.8712,-0.0718,-0.2100,1679.93,1234.19,1452.70
15070,-3.8712,-0.0573,-0.2067,-1179.44,1140.44,968.32
15080,-3.8712,-0.0476,-0.2054,679.93,1562.38,171.45
15090,-3.8713,-0.0437,-0.2091,1914.31,1718.63,-437.93
15100,-3.8713,-0.0426,-0.2147,-1585.69,1249.88,-781.68
15110,-3.8713,-0.0457,-0.2157,-1445.07,531.13,-922.30
15120,-3.8713,-0.0574,-0.2142,-1835.69,406.13,-937.93
15130,-3.8713,-0.0818,-0.2178,664.31,593.63,-1078.55
15140,-3.8713,-0.1111,-0.2218,1539.31,140.44,-1203.55
15150,-3.8713,-0.1254,-0.2180,1789.31,-375.24,-1187.99
15160,-3.8713,-0.1171,-0.2065,-38.82,109.07,-1078.55
15170,-3.8713,-0.1034,-0.1990,1023.68,1577.88,-562.93
15180,-3.8712,-0.0963,-0.2008,-1226.32,-1453.37,202.70
15190,-3.8712,-0.0934,-0.2061,-320.07,-1687.74,374.57
15200,-3.8713,-0.0927,-0.2122,54.93,1640.44,-453.55
15210,-3.8713,-0.0928,-0.2188,148.68,859.19,-1875.43
15220,-3.8713,-0.0929,-0.2245,133.06,15.44,765.20
15230,-3.8715,-0.0918,-0.2285,117.43,-718.93,-31.74
15240,-3.8715,-0.0841,-0.2277,258.06,-1234.56,-125.49
15250,-3.8713,-0.0748,-0.2278,1242.43,-1125.18,108.89
15260,-3.8713,-0.0725,-0.2285,-1570.07,-1140.81,468.26
15270,-3.8713,-0.0737,-0.2223,-1273.19,-1234.56,890.14
15280,-3.8713,-0.0778,-0.2130,-1429.44,-437.68,1155.76
15290,-3.8713,-0.0831,-0.2040,-1945.07,749.82,1483.95
15300,-3.8713,-0.0837,-0.1967,1367.43,1906.07,-1687.93
15310,-3.8713,-0.0792,-0.1915,1289.31,-1156.43,-391.05
15320,-3.8712,-0.0728,-0.1871,1867.43,-500.18,1343.32
15330,-3.8712,-0.0686,-0.1813,-1304.44,62.32,-906.62
15340,-3.8712,-0.0708,-0.1736,-773.19,812.32,-94.12
15350,-3.8712,-0.0757,-0.1643,-1054.44,1796.69,-0.37
15360,-3.8711,-0.0747,-0.1512,-1679.44,-1015.81,234.01
15370,-3.8711,-0.0696,-0.1351,-1554.44,656.07,546.57
15380,-3.8711,-0.0684,-0.1228,-898.19,-1281.43,827.82
15390,-3.8711,-0.0714,-0.1167,-741.94,296.69,1687.26
15400,-3.8711,-0.0757,-0.1124,-1132.57,1077.94,-1312.74
15410,-3.8711,-0.0818,-0.1091,-1679.44,1624.82,-1125.24
15420,-3.8711,-0.0935,-0.1068,1539.31,-1953.31,-1359.62
15430,-3.8711,-0.1089,-0.1036,39.31,-1656.43,-1093.99
15440,-3.8711,-0.1157,-0.1051,-1929.44,-1250.24,-547.12
15450,-3.8711,-0.1122,-0.1130,1195.56,-1437.74,-703.37
15460,-3.8711,-0.1045,-0.1218,1648.68,1546.63,-1593.99
15470,-3.8711,-0.0929,-0.1272,-1366.94,421.63,921.63
15480,-3.8712,-0.0817,-0.1276,117.43,-265.81,-1031.56
15490,-3.8712,-0.0771,-0.1238,1554.93,-312.68,1562.19
15500,-3.8712,-0.0808,-0.1211,-1866.94,171.69,1468.51
15510,-3.8712,-0.0870,-0.1218,1664.31,515.44,-1672.12
15520,-3.8712,-0.0905,-0.1254,867.43,421.69,-750.24
15530,-3.8712,-0.0913,-0.1283,429.93,-31.43,-562.81
15540,-3.8712,-0.0908,-0.1285,320.56,-406.43,-1109.68
15550,-3.8712,-0.0875,-0.1292,383.06,-437.68,-1890.93
15560,-3.8712,-0.0819,-0.1305,804.93,-515.81,1593.44
15570,-3.8712,-0.0803,-0.1288,1523.68,-687.68,1546.57
15580,-3.8712,-0.0852,-0.1233,1726.81,-468.93,-1859.68
15590,-3.8712,-0.0913,-0.1194,1101.81,234.19,-1172.12
15600,-3.8712,-0.0952,-0.1201,320.56,734.19,-1172.12
15610,-3.8712,-0.0979,-0.1244,-179.44,640.38,-1937.74
15620,-3.8712,-0.0974,-0.1306,-523.19,93.51,937.26
15630,-3.8713,-0.0981,-0.1375,-460.69,-703.37,-47.18
15640,-3.8713,-0.1129,-0.1372,-554.44,-1578.37,-94.06
15650,-3.8712,-0.1361,-0.1243,1554.93,-1547.12,1374.69
15660,-3.8712,-0.1449,-0.1091,-1413.82,109.07,-656.49
15670,-3.8711,-0.1299,-0.1047,1461.18,-1953.43,312.26
15680,-3.8711,-0.1080,-0.1079,-616.94,-1390.93,46.63
15690,-3.8712,-0.0925,-0.1105,-1820.07,-1797.12,-1062.74
15700,-3.8712,-0.0793,-0.1124,164.31,1874.82,1765.38
15710,-3.8712,-0.0725,-0.1133,1851.81,1624.82,1343.51
15720,-3.8712,-0.0698,-0.1088,-1273.19,1515.44,1124.76
15730,-3.8712,-0.0664,-0.1115,-929.44,-1906.43,406.01
15740,-3.8713,-0.0699,-0.1229,-491.94,1749.82,-0.24
15750,-3.8712,-0.0790,-0.1215,-945.07,281.07,812.26
15760,-3.8712,-0.0846,-0.1105,1898.68,468.57,-1547.12
15770,-3.8712,-0.0814,-0.1060,1179.93,1874.82,-31.49
15780,-3.8711,-0.0752,-0.1083,1586.18,-1547.06,999.76
15790,-3.8711,-0.0741,-0.1055,-1616.94,-1843.93,1421.63
15800,-3.8711,-0.0736,-0.0990,-1476.32,-1484.56,1468.51
15810,-3.8711,-0.0690,-0.1019,-1413.82,-656.43,1062.26
15820,-3.8711,-0.0605,-0.1053,-820.07,-1031.43,312.26
15830,-3.8712,-0.0492,-0.0979,258.06,-1468.87,-156.49
15840,-3.8712,-0.0381,-0.0834,1711.18,-515.75,-797.12
15850,-3.8712,-0.0435,-0.0709,-866.94,1343.63,-1156.43
15860,-3.8712,-0.0751,-0.0657,-1554.44,-1062.62,-515.81
15870,-3.8711,-0.1121,-0.0695,-1601.32,-390.81,218.57
15880,-3.8711,-0.1322,-0.0894,1664.31,-875.24,343.57
15890,-3.8711,-0.1260,-0.1104,-913.82,577.82,187.32
15900,-3.8711,-0.1038,-0.1113,-116.94,1890.32,15.38
15910,-3.8712,-0.0859,-0.1045,-1273.19,1765.38,-578.37
15920,-3.8712,-0.0748,-0.0992,1008.06,-1359.56,-1437.74
15930,-3.8712,-0.0690,-0.0973,-1570.07,-687.68,-1547.12
15940,-3.8712,-0.0763,-0.0914,-820.07,-437.68,-1062.74
15950,-3.8712,-0.0885,-0.0776,-1757.57,312.32,-750.18
15960,-3.8712,-0.0941,-0.0718,679.93,-1922.06,-812.68
15970,-3.8712,-0.0913,-0.0770,-38.82,-1172.12,-593.93
15980,-3.8711,-0.0830,-0.0878,320.56,-1843.93,140.44
15990,-3.8711,-0.0758,-0.0981,1383.06,781.07,390.44
16000,-3.8711,-0.0725,-0.1061,-1695.07,-547.06,249.76
16010,-3.8711,-0.0740,-0.1066,-1273.19,-1562.68,437.26
16020,-3.8711,-0.0786,-0.1047,-1460.69,-1625.18,765.38
16030,-3.8711,-0.0822,-0.1060,1945.56,-1390.81,577.88
16040,-3.8712,-0.0742,-0.0994,1492.43,-1547.06,-625.24
16050,-3.8712,-0.0721,-0.1040,-1491.94,-703.31,1999.76
16060,-3.8712,-0.0859,-0.1082,-1226.32,-1297.06,1593.51
16070,-3.8712,-0.1010,-0.0906,1008.06,-1828.31,1734.13
16080,-3.8712,-0.1174,-0.0785,-913.82,421.63,-1609.56
16090,-3.8712,-0.1179,-0.0851,976.81,1968.51,-203.31
16100,-3.8711,-0.0931,-0.1003,914.31,1124.76,874.82
16110,-3.8711,-0.0698,-0.1051,86.18,-828.31,859.13
16120,-3.8711,-0.0564,-0.1007,-929.44,-1437.68,202.88
16130,-3.8712,-0.0431,-0.1024,789.31,-875.12,-484.62
16140,-3.8712,-0.0394,-0.1073,-1507.57,-1093.87,-797.12
16150,-3.8712,-0.0469,-0.1038,-1038.82,-1718.87,-718.99
16160,-3.8712,-0.0532,-0.1046,-1991.94,-1265.75,-718.99
16170,-3.8712,-0.0536,-0.1101,1195.56,-1375.12,-718.99
16180,-3.8712,-0.0549,-0.1055,1148.68,1921.75,-750.24
16190,-3.8712,-0.0573,-0.0986,976.81,-1484.50,-640.87
16200,-3.8712,-0.0637,-0.0989,679.93,-609.50,-281.49
16210,-3.8711,-0.0806,-0.0983,-148.19,-640.81,202.88
16220,-3.8711,-0.0812,-0.0959,1695.56,-562.68,421.63
16230,-3.8712,-0.0642,-0.1006,1617.43,-265.81,-484.62
16240,-3.8712,-0.0642,-0.1078,-210.69,-859.56,1890.38
16250,-3.8712,-0.0712,-0.1107,-210.69,-1781.43,1234.13
16260,-3.8712,-0.0609,-0.1123,-1101.32,1843.57,1890.38
16270,-3.8712,-0.0510,-0.1117,211.18,1640.50,-1265.87
16280,-3.8712,-0.0494,-0.1028,1476.81,1718.63,-672.12
16290,-3.8712,-0.0568,-0.0906,1679.93,-1140.75,-140.87
16300,-3.8711,-0.0625,-0.0890,742.43,421.75,624.82
16310,-3.8711,-0.0665,-0.0986,8.06,624.88,1468.57
16320,-3.8711,-0.0741,-0.1014,-507.57,-609.56,1765.38
16330,-3.8711,-0.0687,-0.1000,-1476.32,-968.93,1562.26
16340,-3.8711,-0.0604,-0.1091,-788.82,-781.43,749.76
16350,-3.8712,-0.0564,-0.1189,273.68,-1953.25,-187.74
16360,-3.8712,-0.0577,-0.1196,789.31,796.75,-484.62
16370,-3.8712,-0.0590,-0.1163,617.43,703.00,-843.99
16380,-3.8712,-0.0497,-0.1161,461.18,1124.88,-1453.37
16390,-3.8712,-0.0410,-0.1257,1648.68,1156.13,-1672.12
16400,-3.8712,-0.0404,-0.1351,-1241.94,-78.25,-1219.06
16410,-3.8712,-0.0369,-0.1348,-1163.82,-1281.37,-719.06
16420,-3.8712,-0.0305,-0.1301,-710.69,-1234.50,-594.06
16430,-3.8712,-0.0256,-0.1228,101.81,-640.69,-828.43
16440,-3.8712,-0.0332,-0.1190,726.81,296.81,-1468.99
16450,-3.8712,-0.0540,-0.1207,-241.94,781.13,-1984.62
16460,-3.8712,-0.0582,-0.1179,1101.81,562.38,1718.51
16470,-3.8712,-0.0521,-0.1147,554.93,921.75,1687.26
16480,-3.8712,-0.0588,-0.1160,1336.18,1328.00,-1797.12
16490,-3.8712,-0.0646,-0.1160,476.81,1171.75,-1156.49
16500,-3.8712,-0.0645,-0.1139,-257.57,1171.69,-765.87
16510,-3.8712,-0.0684,-0.1108,-241.94,1437.32,-718.99
16520,-3.8712,-0.0750,-0.1044,-741.94,1827.94,-968.99
16530,-3.8712,-0.0765,-0.1058,-1585.69,-1343.93,-1031.49
16540,-3.8712,-0.0680,-0.1176,-1788.82,-1531.43,-390.87
16550,-3.8711,-0.0581,-0.1250,-695.07,968.57,515.38
16560,-3.8711,-0.0531,-0.1241,570.56,15.50,421.63
16570,-3.8712,-0.0533,-0.1199,1211.18,124.88,-828.37
16580,-3.8712,-0.0557,-0.1194,1179.93,671.75,1968.51
16590,-3.8712,-0.0549,-0.1222,883.06,734.25,1296.63
16600,-3.8712,-0.0511,-0.1255,976.81,374.88,1109.13
16610,-3.8712,-0.0438,-0.1273,1461.18,-47.00,1702.82
16620,-3.8712,-0.0372,-0.1241,-1601.32,-281.37,-1203.43
16630,-3.8712,-0.0320,-0.1171,-757.57,124.88,-422.12
16640,-3.8712,-0.0356,-0.1130,-85.69,1031.13,-578.37
16650,-3.8712,-0.0447,-0.1154,-554.44,1546.75,-1406.49
16660,-3.8712,-0.0487,-0.1187,-1710.69,1249.88,1827.88
16670,-3.8712,-0.0544,-0.1199,1773.68,828.00,1593.51
16680,-3.8712,-0.0599,-0.1179,1039.31,671.75,-1984.62
16690,-3.8712,-0.0575,-0.1100,336.18,921.75,-1828.37
16700,-3.8712,-0.0548,-0.1040,648.68,1937.38,-1812.74
16710,-3.8712,-0.0701,-0.1031,992.43,-1297.00,-1265.87
16720,-3.8712,-0.0793,-0.1053,-960.69,-1187.68,-687.74
16730,-3.8712,-0.0658,-0.1052,1851.81,-1468.93,-93.99
16740,-3.8711,-0.0592,-0.0968,-413.82,-1453.31,999.76
16750,-3.8711,-0.0612,-0.0868,429.93,-375.12,1906.01
16760,-3.8711,-0.0645,-0.0831,179.93,906.13,-1812.68
16770,-3.8711,-0.0778,-0.0896,-241.94,1374.82,-1531.43
16780,-3.8711,-0.0825,-0.0995,-1945.07,546.69,-1843.93
16790,-3.8711,-0.0707,-0.1055,1445.56,-718.93,921.63
16800,-3.8712,-0.0629,-0.1080,-1038.82,-1484.56,-218.99
16810,-3.8712,-0.0623,-0.1091,-38.82,-1812.68,-1125.24
16820,-3.8712,-0.0642,-0.1106,39.31,-1953.25,-1984.62
16830,-3.8712,-0.0675,-0.1117,-210.69,1859.19,1812.26
16840,-3.8712,-0.0720,-0.1143,-632.57,1718.57,-1765.87
16850,-3.8712,-0.0750,-0.1182,-1210.69,1390.44,-1125.24
16860,-3.8712,-0.0735,-0.1211,-1585.69,890.44,-718.99
16870,-3.8712,-0.0647,-0.1244,-1398.19,515.44,-734.62
16880,-3.8712,-0.0522,-0.1292,-273.19,93.57,-890.87
16890,-3.8712,-0.0463,-0.1382,1320.56,-515.75,-1109.68
16900,-3.8712,-0.0454,-0.1494,-1913.82,-1672.00,1984.07
16910,-3.8713,-0.0496,-0.1538,-1804.44,890.50,-187.81
16920,-3.8713,-0.0585,-0.1500,1664.31,328.00,1624.69
16930,-3.8713,-0.0610,-0.1415,523.68,812.38,1249.69
16940,-3.8713,-0.0558,-0.1316,195.56,1906.13,-1125.31
16950,-3.8712,-0.0455,-0.1265,867.43,-828.25,1655.94
16960,-3.8711,-0.0375,-0.1257,-1820.07,-172.00,1109.07
16970,-3.8711,-0.0371,-0.1290,-788.82,-78.25,-140.93
16980,-3.8710,-0.0385,-0.1390,-741.94,-500.12,218.44
16990,-3.8711,-0.0381,-0.1534,-913.82,-1781.37,-1937.81
17000,-3.8712,-0.0389,-0.1654,-866.94,374.88,-1109.68
17010,-3.8712,-0.0431,-0.1664,-976.32,-1156.37,515.26
17020,-3.8713,-0.0459,-0.1583,-1507.57,-1281.37,-734.74
17030,-3.8713,-0.0416,-0.1520,-1866.94,-250.12,-1172.24
17040,-3.8713,-0.0315,-0.1484,-1320.07,562.38,-812.81
17050,-3.8712,-0.0245,-0.1410,-23.19,1015.50,155.94
17060,-3.8712,-0.0266,-0.1321,867.43,1968.69,1624.69
17070,-3.8712,-0.0338,-0.1255,601.81,-890.69,-406.56
17080,-3.8711,-0.0349,-0.1222,-320.07,-47.00,1671.57
17090,-3.8711,-0.0222,-0.1260,-460.69,374.88,-422.12
17100,-3.8710,-0.0001,-0.1331,1164.31,-109.44,921.57
17110,-3.8710,0.0223,-0.1373,-7.57,-1015.69,1249.69
17120,-3.8710,0.0341,-0.1431,-1132.57,-1578.12,687.19
17130,-3.8711,0.0298,-0.1527,367.43,1687.56,-750.31
17140,-3.8711,0.0153,-0.1665,-179.44,453.12,843.44
17150,-3.8712,0.0006,-0.1761,1961.18,-1312.50,-1656.62
17160,-3.8712,-0.0103,-0.1747,86.18,1453.12,499.63
17170,-3.8713,-0.0182,-0.1691,-1304.44,1656.19,-656.62
17180,-3.8713,-0.0226,-0.1676,1679.93,-1625.06,-969.12
17190,-3.8713,-0.0245,-0.1998,1117.43,-1437.56,-422.24
17200,-3.8712,-0.0087,-0.2239,867.43,-1562.56,858.95
17210,-3.8712,-0.0027,-0.2000,-1101.32,-640.69,1905.76
17220,-3.8712,-0.0227,-0.1423,-335.69,-1578.19,1733.95
17230,-3.8712,-0.0305,-0.0881,1101.81,1796.81,405.94
17240,-3.8713,-0.0328,-0.0924,101.81,734.31,-922.06
17250,-3.8713,-0.0433,-0.1313,-195.07,187.38,-531.43
17260,-3.8712,-0.0482,-0.1617,-1538.82,-797.00,1312.19
17270,-3.8712,-0.0468,-0.1672,1836.18,-687.62,-1062.87
17280,-3.8712,-0.0309,-0.1511,-1976.32,-1390.75,-297.24
17290,-3.8712,-0.0338,-0.1329,54.93,671.81,-156.56
17300,-3.8712,-0.0770,-0.1387,-320.07,-1000.12,-500.31
17310,-3.8712,-0.0867,-0.1688,-1851.32,-1734.56,-1625.31
17320,-3.8712,-0.0422,-0.1827,914.31,-1593.93,577.76
17330,-3.8713,-0.0060,-0.1610,-1398.19,624.88,-484.74
17340,-3.8713,-0.0046,-0.1338,-757.57,-593.81,-390.99
17350,-3.8712,-0.0149,-0.1284,-585.69,-1109.44,421.57
17360,-3.8712,-0.0254,-0.1395,-1898.19,-421.94,1749.69
17370,-3.8712,-0.0364,-0.1460,758.06,-1843.81,-906.56
17380,-3.8711,-0.0419,-0.1411,-648.19,1328.00,109.07
17390,-3.8711,-0.0425,-0.1333,-1351.32,1953.00,812.19
17400,-3.8711,-0.0459,-0.1304,-1429.44,-1047.00,1218.44
17410,-3.8711,-0.0494,-0.1332,-1866.94,-672.00,1187.19
17420,-3.8711,-0.0436,-0.1390,1679.93,-1031.37,530.94
17430,-3.8712,-0.0251,-0.1420,-1570.07,-1781.37,-437.81
17440,-3.8712,-0.0074,-0.1400,789.31,1843.69,-937.81
17450,-3.8712,-0.0073,-0.1371,-945.07,-1906.31,-531.56
17460,-3.8711,-0.0192,-0.1339,-929.44,-1531.31,359.07
17470,-3.8711,-0.0259,-0.1315,1554.93,-1125.06,921.57
17480,-3.8711,-0.0215,-0.1311,695.56,-812.56,1124.69
17490,-3.8711,-0.0087,-0.1327,1258.06,-765.69,1327.82
17500,-3.8711,0.0067,-0.1366,-1101.32,-968.81,1515.32
17510,-3.8711,0.0155,-0.1431,867.43,-1484.38,1452.82
17520,-3.8711,0.0157,-0.1493,1992.43,1687.50,937.19
17530,-3.8711,0.0144,-0.1521,-1976.32,890.62,62.19
17540,-3.8712,0.0116,-0.1523,1851.81,531.25,-797.18
17550,-3.8712,0.0009,-0.1515,1492.43,500.00,-1156.56
17560,-3.8712,-0.0164,-0.1512,117.43,609.38,-1203.43
17570,-3.8712,-0.0283,-0.1522,1914.31,656.19,-1328.43
17580,-3.8712,-0.0284,-0.1536,383.06,531.19,-1594.06
17590,-3.8712,-0.0244,-0.1554,367.43,359.31,1952.82
17600,-3.8712,-0.0237,-0.1566,883.06,124.94,1484.07
17610,-3.8712,-0.0262,-0.1571,976.81,-31.31,1187.13
17620,-3.8712,-0.0293,-0.1586,648.68,-93.81,1093.38
17630,-3.8712,-0.0306,-0.1584,258.06,-281.31,1249.63
17640,-3.8712,-0.0316,-0.1562,86.18,-265.69,1484.01
17650,-3.8712,-0.0339,-0.1552,-38.82,15.50,1671.57
17660,-3.8712,-0.0349,-0.1594,-335.69,156.13,1780.94
17670,-3.8712,-0.0288,-0.1667,-460.69,-390.75,1890.26
17680,-3.8712,-0.0153,-0.1680,320.56,-1328.19,-1953.49
17690,-3.8712,0.0007,-0.1610,-1945.07,-1484.44,-1656.62
17700,-3.8712,0.0126,-0.1531,101.81,-609.38,-1234.74
17710,-3.8712,0.0139,-0.1479,1617.43,406.25,-734.68
17720,-3.8712,0.0074,-0.1458,1789.31,1062.50,-453.43
17730,-3.8712,0.0021,-0.1475,961.18,1343.75,-672.18
17740,-3.8712,-0.0018,-0.1501,273.68,1125.00,-1015.93
17750,-3.8712,-0.0051,-0.1501,-226.32,796.81,-1250.31
17760,-3.8712,-0.0062,-0.1481,-648.19,796.81,-1156.56
17770,-3.8712,-0.0066,-0.1444,-788.82,1062.44,-359.68
17780,-3.8711,-0.0101,-0.1366,-835.69,1531.19,687.19
17790,-3.8711,-0.0198,-0.1295,-1288.82,-1468.81,1484.07
17800,-3.8711,-0.0339,-0.1293,1476.81,-562.56,1796.57
17810,-3.8711,-0.0468,-0.1328,-335.69,-531.37,1655.94
17820,-3.8711,-0.0530,-0.1353,-1976.32,-984.50,1155.94
17830,-3.8711,-0.0520,-0.1376,1226.81,-1297.00,499.69
17840,-3.8712,-0.0448,-0.1411,1351.81,-1593.87,-15.93
17850,-3.8712,-0.0358,-0.1462,-1726.32,1953.00,-328.43
17860,-3.8712,-0.0320,-0.1527,-570.07,1296.75,-344.06
17870,-3.8712,-0.0361,-0.1567,-85.69,468.63,-203.43
17880,-3.8712,-0.0474,-0.1559,-616.94,-47.00,-422.24
17890,-3.8712,-0.0612,-0.1531,1945.56,62.38,-1312.81
17900,-3.8712,-0.0665,-0.1543,179.93,421.75,1187.19
17910,-3.8713,-0.0588,-0.1630,-507.57,265.44,-328.43
17920,-3.8713,-0.0432,-0.1749,476.81,-843.87,-1406.62
17930,-3.8713,-0.0306,-0.1820,-1523.19,1624.88,1702.76
17940,-3.8713,-0.0319,-0.1825,86.18,718.69,1109.01
17950,-3.8713,-0.0476,-0.1799,-70.07,656.13,827.76
17960,-3.8713,-0.0679,-0.1775,1914.31,984.25,765.26
17970,-3.8713,-0.0792,-0.1748,-679.44,1296.69,859.01
17980,-3.8713,-0.0756,-0.1716,1867.43,1640.44,1187.13
17990,-3.8713,-0.0591,-0.1670,-1663.82,-1953.31,1905.88
18000,-3.8713,-0.0389,-0.1597,445.56,-1359.50,-1000.37
18010,-3.8712,-0.0254,-0.1527,-976.32,-422.00,562.13
18020,-3.8712,-0.0262,-0.1472,758.06,468.69,-1828.43
18030,-3.8712,-0.0416,-0.1414,648.68,1171.81,-406.56
18040,-3.8711,-0.0615,-0.1346,-1320.07,1921.75,749.69
18050,-3.8711,-0.0745,-0.1262,133.06,-1218.87,1374.69
18060,-3.8711,-0.0765,-0.1179,-1523.19,-140.81,1452.82
18070,-3.8711,-0.0702,-0.1157,-1788.82,921.69,999.76
18080,-3.8711,-0.0570,-0.1230,-976.32,1202.94,406.01
18090,-3.8711,-0.0424,-0.1348,711.18,265.50,374.76
18100,-3.8711,-0.0356,-0.1407,-1413.82,-1234.50,1077.82
18110,-3.8711,-0.0391,-0.1340,-554.44,1999.88,1609.07
18120,-3.8711,-0.0491,-0.1228,-991.94,-1140.75,1405.94
18130,-3.8711,-0.0612,-0.1178,1726.81,296.75,937.26
18140,-3.8711,-0.0696,-0.1188,179.93,937.38,406.01
18150,-3.8712,-0.0708,-0.1240,-898.19,812.32,-406.49
18160,-3.8712,-0.0658,-0.1306,-1054.44,140.44,-1531.49
18170,-3.8712,-0.0574,-0.1367,-413.82,-703.31,1640.32
18180,-3.8712,-0.0498,-0.1427,664.31,-1484.50,1437.19
18190,-3.8712,-0.0481,-0.1453,1633.06,1749.88,1546.57
18200,-3.8712,-0.0507,-0.1422,1851.81,1421.75,1859.07
18210,-3.8712,-0.0549,-0.1368,1523.68,1812.38,-1781.56
18220,-3.8712,-0.0596,-0.1331,976.81,-1500.12,-1515.93
18230,-3.8712,-0.0632,-0.1312,383.06,-1015.75,-1484.68
18240,-3.8712,-0.0637,-0.1285,-85.69,-781.43,-1734.68
18250,-3.8712,-0.0586,-0.1262,-148.19,-437.68,-1969.06
18260,-3.8712,-0.0488,-0.1279,508.06,-140.75,1999.69
18270,-3.8712,-0.0367,-0.1323,1758.06,-359.50,-1625.31
18280,-3.8712,-0.0265,-0.1342,-695.07,-922.00,-890.93
18290,-3.8711,-0.0242,-0.1311,617.43,-1156.31,109.07
18300,-3.8711,-0.0309,-0.1260,914.31,-765.69,999.69
18310,-3.8711,-0.0437,-0.1230,54.93,-109.44,1265.32
18320,-3.8711,-0.0581,-0.1229,-1585.69,265.50,765.38
18330,-3.8712,-0.0667,-0.1246,570.56,281.13,-218.99
18340,-3.8712,-0.0659,-0.1273,-523.19,62.32,-1422.12
18350,-3.8712,-0.0601,-0.1288,-429.44,-281.43,1577.82
18360,-3.8712,-0.0564,-0.1278,320.56,-468.87,1202.82
18370,-3.8712,-0.0594,-0.1237,789.31,-343.87,1359.07
18380,-3.8712,-0.0686,-0.1173,398.68,187.38,-1953.37
18390,-3.8712,-0.0801,-0.1125,-773.19,999.82,-922.12
18400,-3.8711,-0.0891,-0.1112,1758.06,1609.19,62.26
18410,-3.8711,-0.0906,-0.1128,601.81,1781.07,546.63
18420,-3.8711,-0.0840,-0.1165,414.31,1577.94,484.13
18430,-3.8711,-0.0725,-0.1212,1258.06,1109.19,171.63
18440,-3.8712,-0.0598,-0.1261,-1273.19,499.82,-328.37
18450,-3.8712,-0.0486,-0.1305,351.81,-125.12,-1000.31
18460,-3.8712,-0.0427,-0.1348,1789.31,-687.62,-1781.56
18470,-3.8712,-0.0433,-0.1366,-1460.69,-1234.50,1515.32
18480,-3.8712,-0.0470,-0.1360,-1538.82,-1468.87,890.32
18490,-3.8712,-0.0498,-0.1370,1992.43,-1390.75,343.44
18500,-3.8712,-0.0491,-0.1403,1633.06,-1515.75,109.07
18510,-3.8712,-0.0443,-0.1427,1726.81,-1937.62,124.69
18520,-3.8712,-0.0364,-0.1411,-1663.82,1749.88,421.57
18530,-3.8712,-0.0291,-0.1342,-648.19,1953.00,1109.07
18540,-3.8712,-0.0261,-0.1223,289.31,-1156.31,-1859.68
18550,-3.8712,-0.0284,-0.1102,664.31,359.31,-593.99
18560,-3.8711,-0.0352,-0.1028,367.43,1906.19,640.38
18570,-3.8711,-0.0441,-0.0996,-491.94,-1140.75,1734.13
18580,-3.8711,-0.0544,-0.0981,-1632.57,-734.50,-1484.62
18590,-3.8711,-0.0652,-0.0977,1039.31,-547.00,-1172.12
18600,-3.8711,-0.0724,-0.0959,-335.69,-484.56,-1234.62
18610,-3.8711,-0.0739,-0.0936,-1257.57,-265.81,-1437.74
18620,-3.8711,-0.0729,-0.0933,-1445.07,31.07,-1593.93
18630,-3.8711,-0.0748,-0.0973,-1320.07,77.94,-1765.81
18640,-3.8711,-0.0797,-0.1046,-1570.07,-437.68,1859.13
18650,-3.8711,-0.0836,-0.1110,1804.93,-1375.18,1234.13
18660,-3.8711,-0.0850,-0.1145,1304.93,1812.32,281.01
18670,-3.8712,-0.0826,-0.1184,1133.06,1359.19,-1031.49
18680,-3.8712,-0.0757,-0.1244,1429.93,859.19,1468.51
18690,-3.8712,-0.0646,-0.1302,-1679.44,93.57,296.63
18700,-3.8713,-0.0513,-0.1356,-257.57,-656.43,-453.43
18710,-3.8713,-0.0417,-0.1396,1445.56,-1343.87,-890.93
18720,-3.8713,-0.0410,-0.1390,-1335.69,-1859.50,-828.43
18730,-3.8713,-0.0475,-0.1345,-1241.94,-1781.37,-328.43
18740,-3.8712,-0.0562,-0.1294,1929.93,-1203.25,296.57
18750,-3.8712,-0.0629,-0.1237,820.56,-547.00,1093.44
18760,-3.8712,-0.0645,-0.1165,-38.82,187.32,1984.13
18770,-3.8712,-0.0615,-0.1090,-241.94,1109.19,-1390.87
18780,-3.8712,-0.0582,-0.1046,133.06,-1937.62,-984.62
18790,-3.8712,-0.0562,-0.1039,554.93,-1375.12,-437.74
18800,-3.8711,-0.0553,-0.1049,820.56,-1281.37,312.26
18810,-3.8711,-0.0547,-0.1053,929.93,-1406.37,1234.13
18820,-3.8711,-0.0535,-0.1027,1008.06,-1468.87,1984.13
18830,-3.8711,-0.0532,-0.0974,1164.31,-1125.12,-1797.12
18840,-3.8711,-0.0538,-0.0939,1195.56,-453.25,-1968.99
18850,-3.8711,-0.0527,-0.0938,1117.43,-0.12,1546.63
18860,-3.8711,-0.0505,-0.0995,1258.06,15.50,749.82
18870,-3.8712,-0.0475,-0.1110,1539.31,-718.87,-0.24
18880,-3.8712,-0.0410,-0.1168,1929.93,1812.38,-343.99
18890,-3.8712,-0.0359,-0.1163,-1241.94,1062.38,-656.49
18900,-3.8712,-0.0398,-0.1165,-585.69,1124.88,-875.24
18910,-3.8712,-0.0475,-0.1132,-1085.69,1109.25,-859.62
18920,-3.8712,-0.0520,-0.1079,1929.93,1531.13,-1047.12
18930,-3.8712,-0.0547,-0.1075,1351.81,-1797.00,-1515.87
18940,-3.8712,-0.0553,-0.1083,1008.06,-1750.12,-1750.24
18950,-3.8712,-0.0531,-0.1060,929.93,-1843.87,-1859.62
18960,-3.8712,-0.0519,-0.1031,1211.18,-1547.00,1906.01
18970,-3.8712,-0.0520,-0.0984,1367.43,-1187.62,1531.01
18980,-3.8712,-0.0520,-0.0950,1351.81,-578.25,812.26
18990,-3.8712,-0.0530,-0.1014,1351.81,-140.75,77.88
19000,-3.8713,-0.0527,-0.1113,1226.81,-968.87,-47.12
19010,-3.8712,-0.0502,-0.1154,1258.06,1765.50,374.76
19020,-3.8712,-0.0491,-0.1140,1586.18,1249.88,1202.88
19030,-3.8712,-0.0488,-0.1089,1726.81,1421.75,-1500.24
19040,-3.8712,-0.0468,-0.1011,1758.06,-1922.00,-125.24
19050,-3.8711,-0.0449,-0.0940,-1976.32,-922.00,1046.63
19060,-3.8711,-0.0477,-0.0892,-1741.94,-15.75,1906.01
19070,-3.8711,-0.0538,-0.0886,1898.68,593.63,-1672.06
19080,-3.8711,-0.0592,-0.0983,1117.43,671.75,-1437.68
19090,-3.8711,-0.0604,-0.1091,429.93,-562.62,-750.24
19100,-3.8711,-0.0562,-0.1033,273.68,-1953.25,-359.62
19110,-3.8711,-0.0542,-0.0889,820.56,-1203.25,-1328.37
19120,-3.8711,-0.0602,-0.0907,1070.56,640.50,968.57
19130,-3.8712,-0.0649,-0.1102,304.93,406.13,-140.81
19140,-3.8712,-0.0590,-0.1244,-304.44,1906.07,-234.62
19150,-3.8712,-0.0500,-0.1191,461.18,93.63,-172.12
19160,-3.8712,-0.0498,-0.1063,1601.81,765.50,-593.99
19170,-3.8712,-0.0573,-0.1023,1633.06,-1593.87,-1265.87
19180,-3.8712,-0.0631,-0.1079,679.93,-1078.25,-1640.87
19190,-3.8712,-0.0621,-0.1135,-70.07,-1797.06,-1547.12
19200,-3.8712,-0.0554,-0.1122,54.93,1484.25,-1468.99
19210,-3.8712,-0.0474,-0.1068,914.31,1656.13,-1437.74
19220,-3.8712,-0.0450,-0.1053,1945.56,-1656.37,-1187.74
19230,-3.8712,-0.0507,-0.1100,-1757.57,-1468.87,-703.37
19240,-3.8712,-0.0582,-0.1135,1523.68,1937.38,-47.12
19250,-3.8711,-0.0630,-0.1112,554.93,1484.25,468.51
19260,-3.8711,-0.0658,-0.1058,-54.44,1781.07,406.01
19270,-3.8712,-0.0671,-0.1003,-413.82,-1531.43,-187.74
19280,-3.8712,-0.0663,-0.0975,-585.69,-828.31,-890.87
19290,-3.8712,-0.0623,-0.1002,-476.32,-468.93,-1453.37
19300,-3.8712,-0.0555,-0.1063,39.31,-812.62,-1750.24
19310,-3.8712,-0.0510,-0.1127,898.68,-1593.87,-1812.74
19320,-3.8712,-0.0520,-0.1156,1476.81,1593.63,-1797.12
19330,-3.8712,-0.0554,-0.1149,1351.81,1218.63,-1922.12
19340,-3.8712,-0.0558,-0.1134,914.31,1312.38,1890.38
19350,-3.8712,-0.0529,-0.1116,867.43,1499.88,1874.76
19360,-3.8712,-0.0500,-0.1093,1242.43,1734.25,-1968.99
19370,-3.8712,-0.0496,-0.1075,1601.81,-1968.87,-1859.62
19380,-3.8712,-0.0515,-0.1079,1664.31,-1750.12,-1765.87
19390,-3.8712,-0.0532,-0.1091,1414.31,-1797.00,-1406.49
19400,-3.8712,-0.0535,-0.1085,1195.56,-1953.25,-890.87
19410,-3.8712,-0.0541,-0.1050,1164.31,-1875.12,-437.74
19420,-3.8712,-0.0560,-0.1003,1086.18,-1422.00,-78.37
19430,-3.8711,-0.0579,-0.0970,836.18,-828.25,15.38
19440,-3.8711,-0.0562,-0.0953,601.81,-406.37,31.01
19450,-3.8711,-0.0503,-0.0959,820.56,-187.62,140.38
19460,-3.8711,-0.0439,-0.0980,1570.56,-265.75,390.38
19470,-3.8711,-0.0408,-0.0989,-1616.94,-531.37,609.13
19480,-3.8711,-0.0413,-0.0991,-1210.69,-640.75,484.13
19490,-3.8711,-0.0414,-0.0999,-1273.19,-672.00,281.01
19500,-3.8711,-0.0387,-0.1016,-1288.82,-765.75,234.13
19510,-3.8711,-0.0354,-0.1051,-945.07,-984.50,93.51
19520,-3.8712,-0.0345,-0.1085,-523.19,-1437.62,-218.99
19530,-3.8712,-0.0387,-0.1093,-413.82,-1875.12,-547.12
19540,-3.8712,-0.0479,-0.1078,-945.07,-1968.87,-859.62
19550,-3.8712,-0.0558,-0.1064,1883.06,-1781.37,-1250.24
19560,-3.8712,-0.0563,-0.1063,867.43,-1609.50,-1531.49
19570,-3.8712,-0.0515,-0.1080,804.93,-1593.87,-1515.87
19580,-3.8712,-0.0465,-0.1094,1414.31,-1812.62,-1375.24
19590,-3.8712,-0.0439,-0.1090,-1945.07,-1984.50,-1218.99
19600,-3.8712,-0.0454,-0.1082,-1616.94,-1937.62,-1203.37
19610,-3.8712,-0.0498,-0.1077,-1804.44,-1828.25,-1343.99
19620,-3.8712,-0.0529,-0.1088,1633.06,-1765.75,-1484.62
19630,-3.8712,-0.0521,-0.1121,1242.43,-1906.37,-1468.99
19640,-3.8712,-0.0494,-0.1135,1336.18,1671.75,-1437.74
19650,-3.8712,-0.0481,-0.1099,1679.93,1484.25,-1218.99
19660,-3.8712,-0.0492,-0.1033,1851.81,1953.00,-843.99
19670,-3.8712,-0.0502,-0.0991,1711.18,-1203.25,-500.24
19680,-3.8712,-0.0504,-0.0988,1586.18,-672.00,-140.87
19690,-3.8712,-0.0521,-0.0996,1554.93,-625.12,-15.87
19700,-3.8712,-0.0538,-0.1014,1336.18,-734.50,-140.87
19710,-3.8712,-0.0536,-0.1033,1117.43,-968.87,-328.37
19720,-3.8712,-0.0519,-0.1025,1148.68,-1203.25,-484.62
19730,-3.8712,-0.0504,-0.1003,1367.43,-1109.50,-562.74
19740,-3.8712,-0.0490,-0.0994,1554.93,-828.25,-484.62
19750,-3.8712,-0.0469,-0.0991,1742.43,-703.25,-265.87
19760,-3.8712,-0.0458,-0.0988,-1991.94,-672.00,-31.49
19770,-3.8712,-0.0457,-0.1003,-1851.32,-625.12,-15.87
19780,-3.8712,-0.0452,-0.1036,-1835.69,-828.25,-328.37
19790,-3.8712,-0.0448,-0.1071,-1773.19,-1250.12,-765.87
19800,-3.8712,-0.0439,-0.1084,-1726.32,-1687.62,-1234.62
19810,-3.8712,-0.0430,-0.1066,-1616.94,-1859.50,-1343.99
19820,-3.8712,-0.0443,-0.1030,-1491.94,-1625.12,-984.62
19830,-3.8712,-0.0488,-0.0983,-1663.82,-1172.00,-484.62
19840,-3.8712,-0.0547,-0.0944,1758.06,-562.62,-47.12
19850,-3.8711,-0.0583,-0.0961,1008.06,-62.62,281.01
19860,-3.8711,-0.0579,-0.1017,539.31,-281.37,468.51
19870,-3.8711,-0.0544,-0.1029,601.81,-1000.12,359.13
19880,-3.8712,-0.0504,-0.1008,1039.31,-1156.37,-203.37
19890,-3.8712,-0.0477,-0.1011,1554.93,-890.75,-547.12
19900,-3.8712,-0.0479,-0.1008,1898.68,-922.00,-375.24
19910,-3.8712,-0.0508,-0.0990,1883.06,-890.75,-47.12
19920,-3.8711,-0.0547,-0.0979,1508.06,-656.37,156.01
19930,-3.8711,-0.0565,-0.0957,1008.06,-515.75,234.13
19940,-3.8711,-0.0559,-0.0914,773.68,-234.50,124.76
19950,-3.8712,-0.0573,-0.0895,851.81,312.38,-234.56
19960,-3.8712,-0.0610,-0.0942,679.93,562.38,-625.18
19970,-3.8712,-0.0619,-0.1039,195.56,-47.00,-843.99
19980,-3.8712,-0.0574,-0.1119,86.18,-1281.37,-718.99
19990,-3.8712,-0.0527,-0.1116,664.31,1687.38,-312.74
20000,-3.8711,-0.0525,-0.1030,1258.06,1734.25,15.38
20010,-3.8711,-0.0552,-0.0950,1289.31,-1172.00,31.01
20020,-3.8712,-0.0580,-0.0955,945.56,-140.75,-312.74
20030,-3.8712,-0.0579,-0.1029,586.18,-203.25,-797.12
20040,-3.8712,-0.0541,-0.1104,601.81,-1156.37,-1125.24
20050,-3.8712,-0.0519,-0.1149,1086.18,1890.50,-1218.99
20060,-3.8712,-0.0558,-0.1155,1367.43,1312.38,-1203.37
20070,-3.8712,-0.0620,-0.1121,867.43,1234.25,-1250.24
20080,-3.8712,-0.0647,-0.1086,70.56,1671.75,-1484.62
20090,-3.8712,-0.0635,-0.1071,-273.19,-1890.81,-1703.37
20100,-3.8712,-0.0608,-0.1075,-116.94,-1687.68,1952.88
20110,-3.8712,-0.0591,-0.1119,226.81,-1750.12,1312.26
20120,-3.8712,-0.0598,-0.1198,445.56,1687.38,859.13
20130,-3.8712,-0.0627,-0.1268,351.81,687.38,859.13
20140,-3.8712,-0.0653,-0.1276,-23.19,-218.93,1155.94
20150,-3.8712,-0.0669,-0.1212,-351.32,-312.68,1546.57
20160,-3.8712,-0.0681,-0.1119,-554.44,499.82,1921.63
20170,-3.8712,-0.0670,-0.1047,-710.69,1687.32,-1828.37
20180,-3.8712,-0.0624,-0.1025,-570.07,-1390.81,-1547.12
20190,-3.8712,-0.0559,-0.1038,23.68,-1109.50,-1172.12
20200,-3.8712,-0.0520,-0.1042,851.81,-1265.75,-734.62
20210,-3.8712,-0.0549,-0.1033,1351.81,-1328.25,-343.99
20220,-3.8712,-0.0618,-0.1023,976.81,-1203.25,-297.12
20230,-3.8712,-0.0638,-0.1023,101.81,-1078.25,-515.87
20240,-3.8712,-0.0582,-0.1025,-163.82,-1078.31,-672.12
20250,-3.8712,-0.0503,-0.1023,554.93,-1109.50,-625.24
20260,-3.8712,-0.0463,-0.1027,1570.56,-1078.25,-375.24
20270,-3.8711,-0.0474,-0.1029,-1913.82,-1125.12,62.26
20280,-3.8711,-0.0499,-0.1014,1945.56,-1156.37,468.51
20290,-3.8711,-0.0492,-0.0997,1617.43,-968.87,718.51
20300,-3.8711,-0.0436,-0.0983,1711.18,-750.12,1046.63
20310,-3.8711,-0.0360,-0.0948,-1570.07,-562.62,1343.51
20320,-3.8711,-0.0311,-0.0900,-601.32,-125.12,1452.88
20330,-3.8711,-0.0302,-0.0853,23.68,499.94,1406.07
20340,-3.8711,-0.0323,-0.0842,148.68,1093.69,1421.69
20350,-3.8711,-0.0371,-0.0913,-132.57,1234.25,1437.32
20360,-3.8711,-0.0432,-0.1040,-741.94,328.00,1390.44
20370,-3.8711,-0.0496,-0.1107,-1523.19,-1297.00,1234.13
20380,-3.8711,-0.0558,-0.1082,1664.31,1843.63,702.88
20390,-3.8712,-0.0618,-0.1039,867.43,-1828.25,-156.49
20400,-3.8712,-0.0658,-0.1031,101.81,-1281.37,-1078.37
20410,-3.8712,-0.0656,-0.1071,-413.82,-1187.68,1921.63
20420,-3.8712,-0.0625,-0.1161,-382.57,-1687.68,890.38
20430,-3.8712,-0.0598,-0.1276,8.06,1156.13,312.26
20440,-3.8712,-0.0577,-0.1338,351.81,-312.62,359.07
20450,-3.8712,-0.0579,-0.1311,617.43,-1109.50,655.94
20460,-3.8712,-0.0619,-0.1228,601.81,-765.75,1015.32
20470,-3.8712,-0.0676,-0.1145,86.18,296.75,1327.88
20480,-3.8712,-0.0710,-0.1113,-648.19,1359.19,1406.01
20490,-3.8712,-0.0693,-0.1133,-1085.69,1765.44,1359.13
20500,-3.8712,-0.0614,-0.1163,-866.94,1515.44,1327.88
20510,-3.8712,-0.0518,-0.1161,148.68,1124.88,1609.13
20520,-3.8712,-0.0486,-0.1118,1383.06,1156.13,-1562.74
20530,-3.8712,-0.0516,-0.1058,1789.31,1703.00,-656.49
20540,-3.8712,-0.0547,-0.1017,1398.68,-1531.37,-187.74
20550,-3.8712,-0.0538,-0.1006,1008.06,-1000.12,-62.74
20560,-3.8712,-0.0474,-0.1028,1117.43,-859.50,-109.62
20570,-3.8712,-0.0398,-0.1063,1945.56,-1140.75,-140.87
20580,-3.8712,-0.0376,-0.1080,-1085.69,-1593.87,-156.49
20590,-3.8712,-0.0410,-0.1075,-804.44,-1812.62,-140.87
20600,-3.8712,-0.0443,-0.1063,-1241.94,-1750.12,-31.49
20610,-3.8711,-0.0437,-0.1053,-1663.82,-1593.87,62.26
20620,-3.8711,-0.0426,-0.1044,-1585.69,-1468.87,77.88
20630,-3.8712,-0.0443,-0.1044,-1445.07,-1343.87,-109.62
20640,-3.8712,-0.0487,-0.1071,-1663.82,-1343.87,-578.37
20650,-3.8712,-0.0529,-0.1117,1773.68,-1687.62,-1140.87
20660,-3.8712,-0.0527,-0.1150,1242.43,1718.63,-1656.49
20670,-3.8712,-0.0491,-0.1155,1258.06,1296.75,1968.51
20680,-3.8712,-0.0475,-0.1134,1726.81,1234.25,1968.51
20690,-3.8712,-0.0493,-0.1100,1929.93,1499.88,-1812.74
20700,-3.8712,-0.0526,-0.1068,1695.56,1937.38,-1718.99
20710,-3.8712,-0.0566,-0.1045,1273.68,-1656.37,-1687.74
20720,-3.8712,-0.0601,-0.1035,758.06,-1359.50,-1656.49
20730,-3.8712,-0.0605,-0.1046,320.56,-1234.50,-1515.87
20740,-3.8712,-0.0603,-0.1060,258.06,-1375.12,-1218.99
20750,-3.8712,-0.0621,-0.1047,289.31,-1547.00,-1000.24
20760,-3.8712,-0.0638,-0.1012,54.93,-1390.75,-828.37
20770,-3.8712,-0.0631,-0.0983,-163.82,-937.68,-531.49
20780,-3.8712,-0.0590,-0.0969,-70.07,-562.68,-125.24
20790,-3.8711,-0.0525,-0.0966,461.18,-390.75,234.13
20800,-3.8711,-0.0470,-0.0956,1289.31,-343.87,609.13
20810,-3.8711,-0.0453,-0.0933,1992.43,-218.87,984.13
20820,-3.8711,-0.0459,-0.0914,-1788.82,78.00,1327.94
20830,-3.8711,-0.0454,-0.0918,-1866.94,312.38,1624.82
20840,-3.8711,-0.0424,-0.0925,-1804.44,265.50,1796.69
20850,-3.8711,-0.0392,-0.0919,-1413.82,171.75,1796.69
20860,-3.8711,-0.0377,-0.0916,-1007.57,249.88,1468.57
20870,-3.8711,-0.0363,-0.0961,-820.07,296.75,734.19
20880,-3.8712,-0.0353,-0.1082,-632.57,-281.37,-125.24
20890,-3.8712,-0.0370,-0.1245,-507.57,-1828.25,-562.74
20900,-3.8712,-0.0421,-0.1312,-726.32,78.00,-406.49
20910,-3.8712,-0.0513,-0.1172,-1382.57,-781.37,-265.93
20920,-3.8712,-0.0637,-0.0951,1445.56,1015.50,-1125.24
20930,-3.8712,-0.0734,-0.0891,-148.19,-156.43,1343.51
20940,-3.8712,-0.0728,-0.1027,-1382.57,609.19,390.44
20950,-3.8712,-0.0624,-0.1201,-1304.44,-1125.18,281.01
20960,-3.8712,-0.0540,-0.1263,23.68,640.50,687.26
20970,-3.8712,-0.0580,-0.1184,1101.81,-156.37,1218.44
20980,-3.8712,-0.0718,-0.1042,586.18,859.25,1765.38
20990,-3.8712,-0.0828,-0.0951,-1179.44,-1328.31,-1843.99
21000,-3.8712,-0.0802,-0.0973,1414.31,-156.43,-1859.62
21010,-3.8712,-0.0664,-0.1074,1742.43,-437.68,-1797.12
21020,-3.8712,-0.0549,-0.1184,-491.94,-1734.56,-1234.62
21030,-3.8712,-0.0525,-0.1207,976.81,859.25,-312.74
21040,-3.8711,-0.0551,-0.1073,1289.31,562.38,390.38
21050,-3.8711,-0.0582,-0.0905,961.18,-1718.87,265.38
21060,-3.8712,-0.0587,-0.0884,554.93,437.38,-297.06
21070,-3.8712,-0.0530,-0.0958,492.43,703.00,-281.43
21080,-3.8712,-0.0435,-0.0991,1226.81,-250.12,-15.87
21090,-3.8712,-0.0380,-0.0999,-1554.44,-672.00,-93.99
21100,-3.8712,-0.0388,-0.1021,-851.32,-765.75,-156.49
21110,-3.8712,-0.0420,-0.1033,-960.69,-1047.00,-93.99
21120,-3.8711,-0.0470,-0.1031,-1366.94,-1203.25,31.01
21130,-3.8711,-0.0521,-0.1002,1992.43,-1187.62,249.76
21140,-3.8711,-0.0547,-0.0963,1336.18,-812.62,343.51
21150,-3.8711,-0.0562,-0.0973,1008.06,-312.62,140.38
21160,-3.8712,-0.0565,-0.1021,820.56,-437.62,-78.37
21170,-3.8712,-0.0549,-0.1041,773.68,-1047.00,-218.99
21180,-3.8712,-0.0564,-0.1013,976.81,-1312.62,-531.49
21190,-3.8712,-0.0626,-0.0988,789.31,-953.25,-968.99
21200,-3.8712,-0.0684,-0.1000,-7.57,-625.18,-1250.24
21210,-3.8712,-0.0692,-0.1033,-741.94,-781.43,-1312.74
21220,-3.8712,-0.0667,-0.1061,-851.32,-1203.31,-1250.24
21230,-3.8712,-0.0634,-0.1056,-523.19,-1562.68,-1265.87
21240,-3.8712,-0.0624,-0.1023,-101.32,-1500.18,-1359.62
21250,-3.8712,-0.0640,-0.0986,23.68,-1078.25,-1359.62
21260,-3.8712,-0.0647,-0.0951,-179.44,-609.56,-1312.74
21270,-3.8712,-0.0626,-0.0930,-273.19,-156.43,-1218.99
21280,-3.8712,-0.0598,-0.0938,-7.57,109.19,-859.56
21290,-3.8712,-0.0579,-0.0948,351.81,15.50,-343.93
21300,-3.8711,-0.0570,-0.0905,601.81,-125.12,62.26
21310,-3.8712,-0.0586,-0.0808,711.18,437.38,-203.31
21320,-3.8712,-0.0588,-0.0818,508.06,1671.75,-1203.31
21330,-3.8712,-0.0524,-0.0996,476.81,1546.75,-1843.93
21340,-3.8712,-0.0404,-0.1143,1304.93,-734.50,-1703.37
21350,-3.8712,-0.0320,-0.1141,-1163.82,1390.50,-1281.49
21360,-3.8712,-0.0358,-0.1100,-85.69,1406.13,-828.37
21370,-3.8712,-0.0485,-0.1104,-570.07,1937.38,-172.12
21380,-3.8711,-0.0605,-0.1134,1804.93,1890.50,968.51
21390,-3.8711,-0.0684,-0.1124,258.06,1499.88,-1750.24
21400,-3.8711,-0.0751,-0.0994,-741.94,1624.82,-828.37
21410,-3.8711,-0.0804,-0.0760,-1601.32,-703.31,-953.37
21420,-3.8711,-0.0818,-0.0638,1711.18,-1718.93,1390.44
21430,-3.8712,-0.0764,-0.0817,1539.31,-156.43,-687.68
21440,-3.8712,-0.0619,-0.1108,-1773.19,1562.32,-1578.31
21450,-3.8712,-0.0492,-0.1196,86.18,1828.00,-1468.99
21460,-3.8712,-0.0544,-0.1085,1711.18,703.00,-1250.24
21470,-3.8712,-0.0735,-0.0953,1039.31,-1875.12,-1156.49
21480,-3.8712,-0.0841,-0.0909,-1398.19,-187.68,-1125.24
21490,-3.8712,-0.0765,-0.0951,1242.43,374.82,-1156.43
21500,-3.8712,-0.0597,-0.1017,-1788.82,-156.43,-1437.74
21510,-3.8712,-0.0463,-0.1069,367.43,-1000.12,-1922.12
21520,-3.8712,-0.0426,-0.1119,-1913.82,-1672.00,1702.88
21530,-3.8712,-0.0461,-0.1161,-1445.07,1687.38,1827.88
21540,-3.8712,-0.0479,-0.1143,-1898.19,1156.13,-1625.24
21550,-3.8712,-0.0471,-0.1069,1883.06,1390.50,-1093.99
21560,-3.8712,-0.0514,-0.0990,1976.81,-1672.00,-890.87
21570,-3.8712,-0.0583,-0.0920,1429.93,-656.37,-1000.24
21580,-3.8712,-0.0599,-0.0900,539.31,234.25,-1562.68
21590,-3.8712,-0.0543,-0.0997,336.18,499.88,1859.19
21600,-3.8712,-0.0457,-0.1132,1054.93,-750.12,-1843.99
21610,-3.8712,-0.0414,-0.1132,-1835.69,1531.13,-672.12
21620,-3.8711,-0.0482,-0.0992,-1288.82,1531.13,546.63
21630,-3.8711,-0.0647,-0.0878,1836.18,-687.62,1093.51
21640,-3.8711,-0.0790,-0.0900,-273.19,781.07,921.69
21650,-3.8711,-0.0808,-0.1006,1898.68,499.82,577.94
21660,-3.8711,-0.0712,-0.1099,1664.31,-859.56,327.88
21670,-3.8711,-0.0593,-0.1133,-1101.32,1952.94,109.13
21680,-3.8711,-0.0541,-0.1115,414.31,1515.50,77.88
21690,-3.8711,-0.0565,-0.1051,1086.18,1749.88,202.88
21700,-3.8711,-0.0610,-0.0961,773.68,-1437.62,202.88
21710,-3.8712,-0.0616,-0.0889,195.56,-281.37,-140.87
21720,-3.8712,-0.0576,-0.0890,117.43,640.50,-922.06
21730,-3.8712,-0.0516,-0.0986,633.06,624.88,-1797.06
21740,-3.8712,-0.0464,-0.1136,1398.68,-609.50,1765.38
21750,-3.8712,-0.0448,-0.1238,-1929.44,1468.63,1937.26
21760,-3.8712,-0.0488,-0.1229,-1726.32,171.75,-1437.74
21770,-3.8712,-0.0588,-0.1136,1758.06,281.13,-890.87
21780,-3.8712,-0.0706,-0.1049,476.81,1468.63,-828.37
21790,-3.8712,-0.0752,-0.1028,-1023.19,-1406.43,-1172.12
21800,-3.8712,-0.0706,-0.1055,-1616.94,-1140.81,-1765.87
21810,-3.8712,-0.0635,-0.1096,-1023.19,-1484.56,1702.88
21820,-3.8712,-0.0602,-0.1127,-116.94,1984.19,1577.88
21830,-3.8712,-0.0618,-0.1112,304.93,1593.63,1921.63
21840,-3.8712,-0.0657,-0.1046,101.81,1781.13,-1406.49
21850,-3.8712,-0.0682,-0.0964,-398.19,-1375.18,-640.87
21860,-3.8712,-0.0668,-0.0923,-726.32,-328.31,-140.87
21870,-3.8711,-0.0614,-0.0950,-538.82,202.94,93.57
21880,-3.8711,-0.0536,-0.1007,148.68,-140.75,218.51
21890,-3.8711,-0.0452,-0.1049,1148.68,-875.12,249.76
21900,-3.8711,-0.0410,-0.1060,-1773.19,-1406.37,312.26
21910,-3.8711,-0.0427,-0.1049,-1241.94,-1547.00,312.26
21920,-3.8712,-0.0465,-0.1040,-1460.69,-1406.37,-15.87
21930,-3.8712,-0.0491,-0.1057,-1945.07,-1297.00,-609.62
21940,-3.8712,-0.0492,-0.1096,1726.81,-1515.75,-1234.62
21950,-3.8712,-0.0479,-0.1140,1711.18,1984.25,-1625.24
21960,-3.8712,-0.0486,-0.1165,1883.06,1421.75,-1765.87
21970,-3.8712,-0.0538,-0.1149,1789.31,1109.25,-1703.37
21980,-3.8712,-0.0616,-0.1112,1117.43,1312.38,-1609.62
21990,-3.8712,-0.0679,-0.1077,117.43,1781.13,-1640.87
22000,-3.8712,-0.0691,-0.1039,-679.44,-1765.81,-1750.24
22010,-3.8712,-0.0673,-0.1007,-835.69,-1281.43,-1734.62
22020,-3.8712,-0.0664,-0.1001,-601.32,-875.18,-1562.74
22030,-3.8712,-0.0671,-0.1022,-491.94,-797.06,-1281.49
22040,-3.8712,-0.0685,-0.1031,-585.69,-1062.68,-875.24
22050,-3.8712,-0.0688,-0.1016,-757.57,-1187.68,-484.62
22060,-3.8712,-0.0667,-0.0986,-804.44,-984.56,-234.62
22070,-3.8712,-0.0626,-0.0972,-523.19,-609.56,-47.12
22080,-3.8711,-0.0588,-0.0981,-7.57,-422.06,218.51
22090,-3.8711,-0.0554,-0.1003,476.81,-547.00,234.13
22100,-3.8712,-0.0507,-0.1031,914.31,-828.25,-31.49
22110,-3.8712,-0.0449,-0.1055,1523.68,-1187.62,-453.37
22120,-3.8712,-0.0406,-0.1074,-1741.94,-1484.50,-922.12
22130,-3.8712,-0.0399,-0.1091,-1195.07,-1734.50,-1078.37
22140,-3.8712,-0.0444,-0.1094,-1101.32,-1953.25,-750.24
22150,-3.8712,-0.0520,-0.1078,-1679.44,-1984.50,-406.49
22160,-3.8712,-0.0574,-0.1047,1351.81,-1781.37,-375.24
22170,-3.8712,-0.0583,-0.1023,664.31,-1390.75,-437.74
22180,-3.8712,-0.0571,-0.1017,539.31,-1078.25,-453.37
22190,-3.8712,-0.0571,-0.1017,695.56,-1000.12,-390.87
22200,-3.8712,-0.0585,-0.1003,695.56,-1000.12,-375.24
22210,-3.8712,-0.0596,-0.0984,523.68,-828.25,-781.49
22220,-3.8712,-0.0592,-0.0984,383.06,-578.25,-1422.12
22230,-3.8712,-0.0581,-0.1021,429.93,-578.25,-1781.49
22240,-3.8712,-0.0582,-0.1067,570.56,-1047.00,-1640.87
22250,-3.8712,-0.0603,-0.1085,554.93,-1640.75,-1172.12
22260,-3.8712,-0.0632,-0.1071,289.31,-1875.12,-765.87
22270,-3.8712,-0.0651,-0.1039,-85.69,-1687.68,-468.99
22280,-3.8712,-0.0648,-0.1010,-320.07,-1281.43,-172.12
22290,-3.8712,-0.0621,-0.0984,-288.82,-906.43,-78.37
22300,-3.8712,-0.0577,-0.0968,54.93,-578.25,-406.49
22310,-3.8712,-0.0531,-0.0991,617.43,-375.12,-875.24
22320,-3.8712,-0.0502,-0.1055,1211.18,-672.00,-1140.87
22330,-3.8712,-0.0507,-0.1111,1586.18,-1484.50,-1047.12
22340,-3.8712,-0.0547,-0.1117,1523.68,1796.75,-547.12
22350,-3.8712,-0.0601,-0.1071,1008.06,1718.63,-47.12
22360,-3.8711,-0.0641,-0.1010,320.56,-1687.62,171.63
22370,-3.8711,-0.0634,-0.0956,-195.07,-906.43,15.38
22380,-3.8712,-0.0571,-0.0933,-101.32,-218.93,-562.74
22390,-3.8712,-0.0502,-0.0959,695.56,78.00,-1172.06
22400,-3.8712,-0.0461,-0.1010,1586.18,-265.75,-1375.24
22410,-3.8712,-0.0477,-0.1040,-1898.19,-906.37,-1015.87
22420,-3.8712,-0.0551,-0.1038,1898.68,-1297.00,-390.87
22430,-3.8711,-0.0641,-0.1002,961.18,-1265.75,140.38
22440,-3.8711,-0.0701,-0.0964,-195.07,-812.68,421.63
22450,-3.8711,-0.0703,-0.0952,-960.69,-328.31,327.88
22460,-3.8712,-0.0653,-0.0964,-991.94,-172.06,-15.87
22470,-3.8712,-0.0581,-0.0985,-351.32,-328.31,-484.62
22480,-3.8712,-0.0537,-0.1003,570.56,-593.87,-1047.12
22490,-3.8712,-0.0536,-0.1031,1133.06,-828.25,-1406.49
22500,-3.8712,-0.0554,-0.1063,1148.68,-1187.62,-1281.49
22510,-3.8712,-0.0579,-0.1068,914.31,-1593.87,-843.99
22520,-3.8712,-0.0608,-0.1051,601.81,-1656.37,-515.87
22530,-3.8712,-0.0627,-0.1035,226.81,-1437.62,-375.24
22540,-3.8712,-0.0627,-0.1042,-23.19,-1234.56,-515.87
22550,-3.8712,-0.0626,-0.1062,-23.19,-1328.31,-1015.87
22560,-3.8712,-0.0624,-0.1072,-7.57,-1578.31,-1656.49
22570,-3.8712,-0.0618,-0.1071,23.68,-1703.25,1812.26
