timestamp_ms,ax,ay,az,gx,gy,gz
0,-3.8734,0.0259,0.8893,-851.32,1703.12,-248.29
10,-3.8734,0.0269,0.8910,-679.44,1828.12,-92.04
20,-3.8733,0.0270,0.8898,-554.44,-1953.12,267.33
30,-3.8733,0.0262,0.8859,-538.82,1890.62,486.08
40,-3.8733,0.0255,0.8816,-632.57,1390.62,486.08
50,-3.8733,0.0232,0.8782,-726.32,843.75,423.58
60,-3.8733,0.0197,0.8778,-1023.19,406.25,220.46
70,-3.8734,0.0156,0.8809,-1476.32,359.38,-92.04
80,-3.8734,0.0116,0.8844,-1991.94,750.00,-201.42
90,-3.8734,0.0090,0.8873,1492.43,1203.12,-76.42
100,-3.8733,0.0089,0.8884,1164.31,1578.12,64.21
110,-3.8733,0.0104,0.8888,1148.68,1718.75,48.58
120,-3.8734,0.0121,0.8893,1336.18,1765.62,-138.92
130,-3.8734,0.0132,0.8892,1554.93,1828.12,-201.42
140,-3.8734,0.0132,0.8899,1695.56,1812.50,-92.04
150,-3.8733,0.0126,0.8911,1695.56,1906.25,48.58
160,-3.8733,0.0131,0.8918,1617.43,-1937.50,251.71
170,-3.8733,0.0142,0.8916,1679.93,-1843.75,548.58
180,-3.8733,0.0154,0.8909,1820.56,-1875.00,845.46
190,-3.8733,0.0167,0.8907,1976.81,-1968.75,1095.46
200,-3.8733,0.0190,0.8914,-1851.32,-1984.38,1189.21
210,-3.8733,0.0214,0.8921,-1554.44,-1906.25,1220.46
220,-3.8733,0.0219,0.8925,-1257.57,-1812.50,1251.71
230,-3.8733,0.0210,0.8912,-1195.07,-1765.62,1157.96
240,-3.8733,0.0194,0.8882,-1304.44,-1921.88,1017.33
250,-3.8733,0.0177,0.8857,-1507.57,1687.50,876.71
260,-3.8733,0.0171,0.8848,-1726.32,1375.00,595.46
270,-3.8733,0.0160,0.8840,-1804.44,1250.00,267.33
280,-3.8733,0.0139,0.8838,-1945.07,1156.25,17.33
290,-3.8734,0.0126,0.8851,1789.31,1125.00,-107.67
300,-3.8734,0.0142,0.8893,1617.43,1296.88,-107.67
310,-3.8733,0.0177,0.8947,1820.56,1828.12,111.08
320,-3.8733,0.0203,0.8979,-1726.32,-1484.38,486.08
330,-3.8733,0.0197,0.8970,-1398.19,-1062.50,798.58
340,-3.8733,0.0160,0.8928,-1476.32,-1187.50,939.21
350,-3.8733,0.0126,0.8878,-1945.07,-1718.75,986.08
360,-3.8733,0.0106,0.8851,1617.43,1640.62,986.08
370,-3.8733,0.0099,0.8853,1367.43,1296.88,986.08
380,-3.8733,0.0112,0.8876,1273.68,1312.50,1048.58
390,-3.8733,0.0143,0.8899,1445.56,1609.38,1236.08
400,-3.8733,0.0170,0.8903,1836.18,1906.25,1439.21
410,-3.8733,0.0192,0.8883,-1820.07,1953.12,1361.08
420,-3.8733,0.0217,0.8844,-1538.82,1703.12,1048.58
430,-3.8733,0.0236,0.8800,-1210.69,1203.12,720.46
440,-3.8733,0.0227,0.8757,-976.32,640.62,439.21
450,-3.8733,0.0198,0.8721,-1085.69,93.75,111.08
460,-3.8734,0.0164,0.8713,-1460.69,-375.00,-263.98
470,-3.8734,0.0149,0.8739,-1898.19,-468.75,-482.73
480,-3.8734,0.0160,0.8782,1914.31,-140.62,-498.35
490,-3.8734,0.0175,0.8829,-1945.07,406.25,-451.42
500,-3.8734,0.0183,0.8861,-1757.57,1015.62,-232.67
510,-3.8733,0.0182,0.8871,-1648.19,1421.88,126.71
520,-3.8733,0.0166,0.8871,-1663.82,1546.88,329.83
530,-3.8733,0.0142,0.8872,-1866.94,1546.88,392.33
540,-3.8733,0.0121,0.8876,1820.56,1562.50,532.96
550,-3.8733,0.0110,0.8884,1554.93,1609.38,736.08
560,-3.8733,0.0104,0.8896,1414.31,1718.75,939.21
570,-3.8733,0.0104,0.8903,1336.18,1875.00,1204.83
580,-3.8733,0.0114,0.8903,1336.18,1953.12,1361.08
590,-3.8733,0.0123,0.8901,1461.18,1953.12,1314.21
600,-3.8733,0.0123,0.8905,1586.18,1937.50,1189.21
610,-3.8733,0.0123,0.8915,1586.18,1984.38,1142.33
620,-3.8733,0.0134,0.8923,1586.18,-1890.62,1236.08
630,-3.8733,0.0155,0.8923,1726.81,-1781.25,1157.96
640,-3.8733,0.0177,0.8909,1992.43,-1781.25,986.08
650,-3.8733,0.0200,0.8892,-1726.32,-1968.75,907.96
660,-3.8733,0.0215,0.8878,-1429.44,1812.50,798.58
670,-3.8733,0.0214,0.8864,-1241.94,1640.62,579.83
680,-3.8733,0.0205,0.8842,-1257.57,1453.12,345.46
690,-3.8733,0.0188,0.8816,-1366.94,1171.88,157.96
700,-3.8733,0.0178,0.8802,-1585.69,843.75,32.96
710,-3.8734,0.0178,0.8818,-1710.69,671.88,-76.42
720,-3.8734,0.0159,0.8834,-1710.69,875.00,-263.92
730,-3.8734,0.0151,0.8846,-1960.69,1078.12,-451.42
740,-3.8734,0.0175,0.8859,1945.56,1234.38,-435.79
750,-3.8734,0.0177,0.8856,-1757.57,1390.62,-248.29
760,-3.8734,0.0159,0.8878,-1726.32,1359.38,-29.54
770,-3.8733,0.0137,0.8923,-1960.69,1640.62,32.96
780,-3.8733,0.0128,0.8960,1758.06,-1781.25,142.33
790,-3.8733,0.0143,0.8970,1648.68,-1312.50,361.08
800,-3.8733,0.0151,0.8951,1836.18,-1187.50,564.21
810,-3.8733,0.0153,0.8938,1945.56,-1421.88,579.83
820,-3.8733,0.0150,0.8956,1961.18,-1593.75,1.71
830,-3.8734,0.0138,0.8987,1929.93,-1359.38,-404.54
840,-3.8733,0.0100,0.9000,1773.68,-968.75,64.21
850,-3.8733,0.0063,0.8987,1289.31,-796.88,767.33
860,-3.8733,0.0065,0.8959,820.56,-968.75,1079.83
870,-3.8733,0.0092,0.8939,836.18,-1328.12,1079.83
880,-3.8733,0.0111,0.8921,1179.93,-1578.12,892.33
890,-3.8733,0.0114,0.8898,1429.93,-1812.50,532.96
900,-3.8733,0.0114,0.8877,1461.18,1890.62,282.96
910,-3.8733,0.0122,0.8868,1461.18,1625.00,79.83
920,-3.8734,0.0129,0.8871,1570.56,1515.62,-232.67
930,-3.8734,0.0127,0.8868,1664.31,1546.88,-592.04
940,-3.8734,0.0122,0.8856,1633.06,1515.62,-810.79
950,-3.8734,0.0126,0.8855,1570.56,1359.38,-763.92
960,-3.8734,0.0122,0.8871,1617.43,1343.75,-482.67
970,-3.8734,0.0118,0.8894,1570.56,1546.88,-45.17
980,-3.8733,0.0122,0.8918,1523.68,1843.75,376.71
990,-3.8733,0.0105,0.8938,1570.56,-1843.75,548.58
1000,-3.8733,0.0065,0.8934,1351.81,-1593.75,517.33
1010,-3.8733,0.0007,0.8901,836.18,-1640.62,564.21
1020,-3.8733,-0.0045,0.8889,101.81,1937.50,704.83
1030,-3.8733,-0.0063,0.8910,-570.07,1796.81,595.46
1040,-3.8733,-0.0045,0.8915,-804.44,-1937.56,267.33
1050,-3.8734,0.0001,0.8887,-570.07,-1875.06,-232.67
1060,-3.8734,0.0015,0.8813,23.68,1750.00,-654.54
1070,-3.8734,-0.0049,0.8730,195.56,812.50,-295.17
1080,-3.8733,-0.0143,0.8711,-616.94,-234.44,329.77
1090,-3.8733,-0.0199,0.8717,-1820.07,-484.44,220.40
1100,-3.8734,-0.0206,0.8705,1461.18,-406.31,-170.23
1110,-3.8734,-0.0151,0.8689,1367.43,-562.56,-279.60
1120,-3.8734,-0.0034,0.8693,-1929.44,-765.69,-60.85
1130,-3.8733,0.0095,0.8727,-429.44,-718.81,314.15
1140,-3.8733,0.0204,0.8783,1226.81,-296.88,657.90
1150,-3.8733,0.0286,0.8833,-1382.57,421.88,1142.33
1160,-3.8733,0.0330,0.8873,-335.69,1062.50,1814.21
1170,-3.8733,0.0353,0.8914,226.81,1578.19,-1342.04
1180,-3.8733,0.0392,0.8954,523.68,-1906.19,-373.29
1190,-3.8732,0.0442,0.8976,1023.68,-1390.56,548.58
1200,-3.8732,0.0474,0.8960,1664.31,-1109.31,1251.71
1210,-3.8732,0.0457,0.8921,-1929.44,-1312.44,1532.96
1220,-3.8732,0.0402,0.8855,1851.81,-1812.44,1423.58
1230,-3.8732,0.0350,0.8779,1148.68,1343.81,986.08
1240,-3.8732,0.0327,0.8746,492.43,375.06,173.58
1250,-3.8733,0.0336,0.8717,195.56,-46.81,-1170.23
1260,-3.8733,0.0353,0.8632,304.93,-421.81,1361.02
1270,-3.8733,0.0394,0.8510,523.68,-1515.56,361.02
1280,-3.8734,0.0455,0.8424,1054.93,921.94,-420.23
1290,-3.8734,0.0505,0.8405,1836.18,-171.81,-1389.04
1300,-3.8734,0.0535,0.8400,-1523.19,-421.81,1845.34
1310,-3.8734,0.0549,0.8407,-1148.19,-484.31,1314.09
1320,-3.8734,0.0581,0.8451,-960.69,-390.56,782.84
1330,-3.8734,0.0629,0.8511,-554.44,171.94,376.65
1340,-3.8734,0.0647,0.8535,54.93,937.62,79.77
1350,-3.8734,0.0643,0.8492,289.31,1250.12,111.02
1360,-3.8734,0.0668,0.8474,242.43,703.25,876.65
1370,-3.8734,0.0691,0.8634,554.93,468.87,1970.40
1380,-3.8734,0.0696,0.8955,851.81,-1484.25,-1060.85
1390,-3.8734,0.0699,0.9247,914.31,-1374.88,-201.42
1400,-3.8733,0.0706,0.9371,961.18,-1640.50,845.52
1410,-3.8733,0.0715,0.9351,1039.31,-46.75,-1638.85
1420,-3.8732,0.0728,0.9292,1164.31,-312.38,33.02
1430,-3.8732,0.0771,0.9265,1320.56,-1062.38,1283.02
1440,-3.8732,0.0831,0.9271,1883.06,-1406.13,1845.52
1450,-3.8732,0.0896,0.9257,-1351.32,-1328.00,-1920.10
1460,-3.8732,0.0966,0.9196,-523.19,-1515.50,-1935.73
1470,-3.8732,0.1029,0.9111,367.43,1703.31,1908.02
1480,-3.8732,0.1078,0.9030,1179.93,625.18,1689.27
1490,-3.8732,0.1122,0.8969,1804.93,-421.69,1220.46
1500,-3.8732,0.1161,0.8917,-1632.57,-1202.94,626.71
1510,-3.8733,0.1167,0.8843,-1132.57,-1859.19,-60.79
1520,-3.8733,0.1171,0.8768,-1054.44,1187.68,-685.79
1530,-3.8733,0.1195,0.8728,-1007.57,234.56,-1154.54
1540,-3.8733,0.1223,0.8683,-695.07,-281.07,-1654.60
1550,-3.8733,0.1228,0.8610,-335.69,-859.19,1845.40
1560,-3.8733,0.1229,0.8549,-273.19,-1796.69,1439.15
1570,-3.8733,0.1238,0.8523,-257.57,1422.06,923.52
1580,-3.8733,0.1238,0.8533,-148.19,1093.93,220.40
1590,-3.8734,0.1216,0.8580,-148.19,1218.93,-467.10
1600,-3.8734,0.1194,0.8667,-429.44,1828.31,-842.10
1610,-3.8734,0.1154,0.8807,-710.69,-1062.32,-654.60
1620,-3.8734,0.1058,0.8972,-1226.32,734.56,-76.42
1630,-3.8733,0.0944,0.9084,1554.93,-1156.07,704.83
1640,-3.8733,0.0835,0.9115,86.18,281.43,1439.27
1650,-3.8733,0.0751,0.9075,-1304.44,672.00,-1841.98
1660,-3.8733,0.0730,0.9015,1617.43,156.37,-1123.23
1670,-3.8733,0.0741,0.8954,1351.81,-609.25,-717.04
1680,-3.8733,0.0715,0.8872,1492.43,-1390.50,-638.92
1690,-3.8733,0.0670,0.8770,1164.31,1562.62,-732.67
1700,-3.8733,0.0637,0.8658,586.18,250.12,-998.29
1710,-3.8733,0.0638,0.8553,164.31,-1171.75,-1513.98
1720,-3.8733,0.0687,0.8433,179.93,1484.50,1907.90
1730,-3.8733,0.0728,0.8271,804.93,-62.38,1157.84
1740,-3.8733,0.0725,0.8053,1320.56,1875.12,142.21
1750,-3.8734,0.0704,0.7820,1289.31,-921.75,-1045.35
1760,-3.8734,0.0732,0.7656,1023.68,93.87,1642.15
1770,-3.8734,0.0792,0.7607,1383.06,-1999.88,95.21
1780,-3.8735,0.0829,0.7635,-1851.32,1375.12,-1545.41
1790,-3.8735,0.0840,0.7660,-1382.57,1734.50,1110.84
1800,-3.8735,0.0851,0.7742,-1241.94,-1953.00,204.59
1810,-3.8737,0.0917,0.7928,-1101.32,-906.13,-107.91
1820,-3.8735,0.1013,0.8203,-257.57,1484.50,204.65
1830,-3.8735,0.1134,0.8557,976.81,1000.18,1329.71
1840,-3.8735,0.1296,0.8959,-1476.32,1531.43,-123.35
1850,-3.8734,0.1478,0.9336,601.81,-1327.88,-498.29
1860,-3.8733,0.1575,0.9623,-1070.07,-499.76,-654.48
1870,-3.8732,0.1444,0.9808,164.31,-827.82,-1279.42
1880,-3.8730,0.1167,0.9896,-1507.57,1547.12,1126.89
1890,-3.8730,0.0955,0.9911,-1054.44,-1327.94,-1388.73
1900,-3.8730,0.0823,0.9850,226.81,-1140.44,-623.11
1910,-3.8730,0.0703,0.9725,-1460.69,-1921.75,-638.73
1920,-3.8730,0.0616,0.9595,1008.06,484.50,-1279.36
1930,-3.8730,0.0576,0.9485,-101.32,-1187.44,1486.21
1940,-3.8732,0.0548,0.9368,-616.94,1406.31,-357.54
1950,-3.8732,0.0514,0.9230,-976.32,-93.69,1517.40
1960,-3.8733,0.0520,0.9087,-1413.82,-1859.31,-529.48
1970,-3.8733,0.0585,0.8978,-1335.69,312.56,1564.27
1980,-3.8733,0.0670,0.8915,-507.57,-1078.06,95.46
1990,-3.8734,0.0718,0.8892,586.18,-1890.50,-763.92
2000,-3.8734,0.0718,0.8916,1195.56,1812.62,-1310.79
2010,-3.8734,0.0682,0.8953,1195.56,-1874.88,-1795.17
2020,-3.8734,0.0608,0.8967,742.43,-1406.13,1845.46
2030,-3.8734,0.0527,0.8959,-210.69,-1218.69,1611.08
2040,-3.8734,0.0471,0.8966,-1241.94,-1328.06,1517.33
2050,-3.8734,0.0480,0.9006,-1960.69,-1234.31,1564.21
2060,-3.8734,0.0555,0.9017,-1851.32,-718.69,-1951.42
2070,-3.8734,0.0645,0.8994,-882.57,-578.06,-1201.42
2080,-3.8734,0.0675,0.8978,258.06,-874.88,-951.42
2090,-3.8734,0.0636,0.8978,648.68,-1078.00,-1045.17
2100,-3.8734,0.0596,0.9008,148.68,-1078.00,-842.04
2110,-3.8734,0.0616,0.9044,-366.94,-703.06,-201.42
2120,-3.8733,0.0667,0.9093,-101.32,-234.31,423.58
2130,-3.8733,0.0675,0.9154,539.31,390.75,861.15
2140,-3.8733,0.0646,0.9174,648.68,1172.00,1079.90
2150,-3.8733,0.0618,0.9128,273.68,1422.00,1220.52
2160,-3.8733,0.0593,0.9069,-85.69,843.81,1392.40
2170,-3.8733,0.0568,0.9021,-398.19,78.19,1486.15
2180,-3.8733,0.0580,0.8964,-726.32,-531.19,1454.83
2190,-3.8733,0.0652,0.8903,-570.07,-1265.56,1329.83
2200,-3.8733,0.0731,0.8851,351.81,1953.25,1173.58
2210,-3.8733,0.0780,0.8806,1367.43,1297.00,1095.46
2220,-3.8733,0.0814,0.8774,1992.43,718.87,1095.46
2230,-3.8733,0.0859,0.8754,-1570.07,312.62,1173.58
2240,-3.8733,0.0903,0.8722,-991.94,47.00,1470.46
2250,-3.8733,0.0912,0.8687,-429.44,-359.25,1642.27
2260,-3.8733,0.0903,0.8673,-320.07,-812.38,1392.27
2270,-3.8733,0.0912,0.8685,-429.44,-984.25,1048.52
2280,-3.8733,0.0930,0.8712,-320.07,-828.00,767.27
2290,-3.8733,0.0925,0.8730,-85.69,-484.25,517.27
2300,-3.8733,0.0889,0.8743,-148.19,-249.88,157.90
2310,-3.8734,0.0830,0.8754,-616.94,-93.63,-201.48
2320,-3.8734,0.0763,0.8765,-1366.94,47.00,-529.54
2330,-3.8734,0.0701,0.8792,1773.68,187.62,-1045.17
2340,-3.8734,0.0660,0.8849,976.81,531.37,-1310.79
2350,-3.8734,0.0651,0.8922,461.18,1265.75,-935.79
2360,-3.8734,0.0667,0.8967,336.18,-1796.75,-123.29
2370,-3.8733,0.0671,0.9004,539.31,-1218.63,939.21
2380,-3.8733,0.0638,0.9049,601.81,-749.88,1970.46
2390,-3.8733,0.0583,0.9056,179.93,-171.75,-1342.04
2400,-3.8733,0.0541,0.9021,-523.19,-78.06,-826.42
2410,-3.8733,0.0544,0.8981,-1070.07,-531.19,-435.79
2420,-3.8733,0.0587,0.8947,-1023.19,-1046.81,-326.42
2430,-3.8733,0.0649,0.8921,-476.32,-1484.31,-529.54
2440,-3.8733,0.0714,0.8907,320.56,-1812.38,-982.67
2450,-3.8733,0.0773,0.8892,1148.68,-1984.25,-1482.67
2460,-3.8733,0.0792,0.8856,1898.68,1812.62,-1935.79
2470,-3.8733,0.0769,0.8789,-1851.32,1359.50,1532.96
2480,-3.8733,0.0748,0.8721,1851.81,500.12,1001.71
2490,-3.8733,0.0748,0.8685,1586.18,-374.88,720.40
2500,-3.8733,0.0764,0.8672,1586.18,-828.00,611.02
2510,-3.8733,0.0786,0.8656,1789.31,-999.88,470.40
2520,-3.8733,0.0803,0.8640,-1929.44,-1203.00,251.65
2530,-3.8733,0.0815,0.8628,-1710.69,-1406.13,17.27
2540,-3.8734,0.0826,0.8635,-1554.44,-1562.38,-45.23
2550,-3.8733,0.0830,0.8652,-1413.82,-1468.63,157.90
2560,-3.8733,0.0829,0.8668,-1366.94,-1249.88,454.77
2570,-3.8733,0.0829,0.8688,-1382.57,-1046.75,861.02
2580,-3.8733,0.0824,0.8705,-1382.57,-796.75,1267.27
2590,-3.8733,0.0806,0.8721,-1445.07,-578.00,1532.90
2600,-3.8733,0.0773,0.8729,-1679.44,-374.88,1861.02
2610,-3.8733,0.0740,0.8732,1898.68,-265.50,-1717.10
2620,-3.8733,0.0726,0.8739,1476.81,-234.25,-1373.35
2630,-3.8733,0.0732,0.8752,1304.93,-140.50,-1138.98
2640,-3.8733,0.0736,0.8773,1383.06,31.37,-1123.29
2650,-3.8733,0.0732,0.8796,1429.93,297.00,-1170.17
2660,-3.8733,0.0726,0.8823,1383.06,593.87,-1154.54
2670,-3.8733,0.0712,0.8837,1304.93,937.62,-1201.42
2680,-3.8733,0.0695,0.8828,1117.43,1109.50,-1420.17
2690,-3.8733,0.0684,0.8813,898.68,1000.12,-1717.04
2700,-3.8733,0.0685,0.8798,758.06,812.62,-1842.04
2710,-3.8733,0.0697,0.8785,773.68,609.50,-1920.17
2720,-3.8733,0.0707,0.8783,929.93,453.25,1829.83
2730,-3.8733,0.0704,0.8784,1054.93,422.00,1501.71
2740,-3.8733,0.0698,0.8782,1023.68,437.62,1282.96
2750,-3.8733,0.0707,0.8789,945.56,406.37,1251.71
2760,-3.8733,0.0726,0.8806,1054.93,500.12,1376.71
2770,-3.8733,0.0742,0.8809,1304.93,718.87,1689.21
2780,-3.8733,0.0747,0.8801,1508.06,750.12,-1998.29
2790,-3.8733,0.0746,0.8805,1570.56,656.37,-1795.17
2800,-3.8733,0.0748,0.8818,1554.93,703.25,-1670.17
2810,-3.8733,0.0743,0.8828,1586.18,875.12,-1623.29
2820,-3.8733,0.0731,0.8832,1523.68,1000.12,-1654.54
2830,-3.8733,0.0726,0.8837,1367.43,1047.00,-1717.04
2840,-3.8733,0.0710,0.8831,1304.93,1109.50,-1857.67
2850,-3.8733,0.0701,0.8815,1101.81,1031.37,1986.08
2860,-3.8733,0.0701,0.8805,976.81,828.25,1923.58
2870,-3.8733,0.0690,0.8793,976.81,703.25,1986.08
2880,-3.8733,0.0688,0.8789,836.18,547.00,-1904.54
2890,-3.8733,0.0713,0.8805,820.56,500.12,-1904.54
2900,-3.8733,0.0741,0.8816,1133.06,703.25,-1920.17
2910,-3.8733,0.0753,0.8809,1492.43,843.87,-1935.79
2920,-3.8733,0.0753,0.8790,1648.68,750.12,-1873.29
2930,-3.8733,0.0741,0.8768,1648.68,515.75,-1826.42
2940,-3.8733,0.0724,0.8751,1492.43,234.50,-1842.04
2950,-3.8733,0.0715,0.8741,1273.68,15.75,-1857.67
2960,-3.8733,0.0712,0.8744,1164.31,-109.25,-1842.10
2970,-3.8733,0.0715,0.8766,1117.43,-78.00,-1810.85
2980,-3.8733,0.0723,0.8788,1164.31,203.25,-1795.17
2990,-3.8733,0.0719,0.8790,1258.06,484.50,-1810.79
3000,-3.8733,0.0712,0.8778,1211.18,515.75,-1842.04
3010,-3.8733,0.0712,0.8763,1117.43,359.50,-1842.04
3020,-3.8733,0.0713,0.8756,1117.43,172.00,-1857.67
3030,-3.8733,0.0715,0.8757,1133.06,78.25,1970.46
3040,-3.8733,0.0717,0.8770,1164.31,93.87,1720.46
3050,-3.8733,0.0709,0.8783,1179.93,250.12,1611.08
3060,-3.8733,0.0695,0.8785,1086.18,422.00,1595.46
3070,-3.8733,0.0674,0.8777,898.68,453.25,1579.83
3080,-3.8733,0.0660,0.8765,633.06,343.87,1579.83
3090,-3.8733,0.0668,0.8761,461.18,187.62,1579.83
3100,-3.8733,0.0686,0.8766,554.93,140.75,1548.58
3110,-3.8733,0.0692,0.8776,789.31,203.25,1439.21
3120,-3.8733,0.0682,0.8787,867.43,328.25,1236.08
3130,-3.8733,0.0676,0.8807,742.43,468.87,1142.33
3140,-3.8733,0.0680,0.8837,664.31,734.50,1236.08
3150,-3.8733,0.0682,0.8856,711.18,1109.50,1361.08
3160,-3.8733,0.0682,0.8857,742.43,1359.50,1564.21
3170,-3.8733,0.0692,0.8851,742.43,1375.12,1767.33
3180,-3.8733,0.0708,0.8859,867.43,1297.00,1954.83
3190,-3.8733,0.0720,0.8879,1070.56,1390.75,-1904.54
3200,-3.8733,0.0736,0.8896,1226.81,1656.37,-1748.29
3210,-3.8733,0.0767,0.8900,1429.93,1875.12,-1373.29
3220,-3.8733,0.0806,0.8896,1820.56,1922.00,-1013.92
3230,-3.8733,0.0826,0.8883,-1679.44,1875.12,-904.54
3240,-3.8733,0.0824,0.8865,-1413.82,1703.25,-1013.92
3250,-3.8733,0.0819,0.8845,-1445.07,1468.87,-1310.79
3260,-3.8733,0.0808,0.8829,-1507.57,1218.87,-1638.92
3270,-3.8733,0.0790,0.8815,-1648.19,1015.75,1954.83
3280,-3.8733,0.0767,0.8805,-1882.57,828.25,1517.33
3290,-3.8733,0.0750,0.8806,1820.56,703.25,1142.33
3300,-3.8733,0.0737,0.8811,1601.81,718.87,954.83
3310,-3.8733,0.0720,0.8809,1445.56,781.37,892.33
3320,-3.8733,0.0702,0.8789,1226.81,750.12,829.83
3330,-3.8733,0.0684,0.8765,992.43,500.12,876.71
3340,-3.8733,0.0669,0.8748,758.06,187.62,923.58
3350,-3.8733,0.0654,0.8738,570.56,-31.13,861.02
3360,-3.8733,0.0635,0.8730,383.06,-156.13,720.40
3370,-3.8733,0.0618,0.8739,133.06,-249.88,720.40
3380,-3.8733,0.0616,0.8770,-85.69,-140.56,892.27
3390,-3.8733,0.0632,0.8816,-101.32,250.06,1095.46
3400,-3.8733,0.0651,0.8859,101.81,843.87,1345.46
3410,-3.8733,0.0656,0.8883,336.18,1390.75,1595.46
3420,-3.8733,0.0649,0.8895,398.68,1703.25,1892.33
3430,-3.8733,0.0651,0.8904,320.56,1859.50,-1873.29
3440,-3.8733,0.0662,0.8910,336.18,1968.87,-1810.79
3450,-3.8733,0.0679,0.8920,476.81,-1953.00,-1873.29
3460,-3.8733,0.0701,0.8923,695.56,-1828.00,1986.08
3470,-3.8733,0.0720,0.8909,976.81,-1781.13,1829.83
3480,-3.8733,0.0735,0.8878,1226.81,-1968.63,1814.21
3490,-3.8733,0.0754,0.8844,1414.31,1640.75,1814.21
3500,-3.8733,0.0770,0.8817,1664.31,1203.25,1642.33
3510,-3.8733,0.0776,0.8810,1867.43,859.50,1501.71
3520,-3.8733,0.0781,0.8821,1945.56,765.75,1501.71
3530,-3.8733,0.0779,0.8824,-1991.94,906.37,1548.58
3540,-3.8733,0.0758,0.8821,1976.81,953.25,1657.96
3550,-3.8733,0.0741,0.8822,1711.18,906.37,1736.08
3560,-3.8733,0.0742,0.8843,1492.43,922.00,1720.46
3570,-3.8733,0.0763,0.8883,1508.06,1187.62,1673.58
3580,-3.8733,0.0760,0.8905,1773.68,1703.25,1829.83
3590,-3.8733,0.0713,0.8881,1742.43,1984.50,-1763.92
3600,-3.8733,0.0670,0.8848,1133.06,1672.00,-1404.54
3610,-3.8733,0.0642,0.8820,586.18,1250.12,-1482.67
3620,-3.8733,0.0624,0.8784,226.81,890.75,-1904.54
3630,-3.8733,0.0624,0.8759,-7.57,437.56,1626.71
3640,-3.8733,0.0627,0.8752,-7.57,109.44,1189.21
3650,-3.8733,0.0623,0.8752,39.31,31.37,907.96
3660,-3.8733,0.0604,0.8737,-23.19,31.31,736.08
3670,-3.8733,0.0604,0.8715,-257.57,-171.81,626.65
3680,-3.8733,0.0623,0.8702,-257.57,-453.06,548.52
3690,-3.8733,0.0637,0.8721,-23.19,-609.31,454.77
3700,-3.8733,0.0679,0.8773,164.31,-374.88,517.27
3710,-3.8733,0.0731,0.8807,695.56,297.00,876.71
3720,-3.8733,0.0760,0.8804,1367.43,734.50,1392.33
3730,-3.8733,0.0763,0.8801,1742.43,687.62,1845.46
3740,-3.8733,0.0740,0.8824,1773.68,656.37,-1904.54
3750,-3.8733,0.0702,0.8848,1476.81,953.25,-1779.54
3760,-3.8733,0.0670,0.8850,992.43,1250.12,-1670.17
3770,-3.8733,0.0671,0.8838,586.18,1281.37,-1623.29
3780,-3.8733,0.0712,0.8827,601.81,1125.12,-1638.92
3790,-3.8733,0.0757,0.8829,1117.43,984.50,-1701.42
3800,-3.8733,0.0751,0.8833,1695.56,1015.75,-1873.29
3810,-3.8733,0.0702,0.8823,1617.43,1062.62,1939.21
3820,-3.8733,0.0665,0.8812,992.43,937.62,1751.71
3830,-3.8733,0.0669,0.8811,523.68,797.00,1564.21
3840,-3.8733,0.0690,0.8805,570.56,781.37,1470.46
3850,-3.8733,0.0690,0.8798,836.18,703.25,1532.96
3860,-3.8733,0.0667,0.8784,836.18,609.50,1532.96
3870,-3.8733,0.0658,0.8757,539.31,437.62,1439.21
3880,-3.8733,0.0654,0.8743,429.93,93.87,1392.33
3890,-3.8733,0.0640,0.8737,383.06,-93.63,1361.02
3900,-3.8733,0.0637,0.8730,195.56,-171.75,1204.77
3910,-3.8733,0.0649,0.8732,164.31,-249.88,986.02
3920,-3.8733,0.0664,0.8739,320.56,-234.25,845.40
3930,-3.8733,0.0687,0.8743,508.06,-140.50,861.02
3940,-3.8733,0.0707,0.8741,804.93,-93.63,986.02
3950,-3.8733,0.0702,0.8740,1054.93,-109.25,1111.02
3960,-3.8733,0.0682,0.8754,992.43,-124.88,1236.02
3970,-3.8733,0.0664,0.8774,742.43,47.00,1204.83
3980,-3.8733,0.0652,0.8790,508.06,312.62,986.08
3990,-3.8733,0.0654,0.8802,351.81,515.75,845.46
4000,-3.8733,0.0670,0.8812,383.06,672.00,986.08
4010,-3.8733,0.0690,0.8828,586.18,797.00,1361.08
4020,-3.8733,0.0702,0.8846,836.18,1000.12,1657.96
4030,-3.8733,0.0728,0.8868,992.43,1234.50,1907.96
4040,-3.8733,0.0754,0.8888,1320.56,1515.75,-1779.54
4050,-3.8733,0.0763,0.8894,1664.31,1765.75,-1482.67
4060,-3.8733,0.0768,0.8898,1773.68,1843.87,-1388.92
4070,-3.8733,0.0771,0.8911,1836.18,1890.75,-1592.04
4080,-3.8733,0.0785,0.8922,1883.06,-1937.38,-1888.92
4090,-3.8733,0.0804,0.8916,-1945.07,-1796.75,1861.08
4100,-3.8733,0.0808,0.8894,-1695.07,-1874.88,1642.33
4110,-3.8733,0.0793,0.8867,-1648.19,1843.87,1439.21
4120,-3.8733,0.0764,0.8843,-1835.69,1500.12,1282.96
4130,-3.8733,0.0725,0.8824,1789.31,1187.62,1173.58
4140,-3.8733,0.0688,0.8817,1289.31,953.25,1017.33
4150,-3.8733,0.0668,0.8818,820.56,859.50,876.71
4160,-3.8733,0.0660,0.8829,554.93,875.12,704.83
4170,-3.8733,0.0652,0.8835,461.18,1015.75,689.21
4180,-3.8733,0.0636,0.8832,351.81,1093.87,720.46
4190,-3.8733,0.0623,0.8829,148.68,1047.00,736.08
4200,-3.8733,0.0625,0.8832,-23.19,1015.69,689.21
4210,-3.8733,0.0632,0.8838,8.06,1047.00,657.96
4220,-3.8733,0.0646,0.8845,101.81,1125.12,751.71
4230,-3.8733,0.0660,0.8842,273.68,1218.87,892.33
4240,-3.8733,0.0669,0.8833,461.18,1172.00,1017.33
4250,-3.8733,0.0674,0.8828,570.56,1062.62,1048.58
4260,-3.8733,0.0680,0.8827,633.06,1000.12,1064.21
4270,-3.8733,0.0684,0.8837,711.18,984.50,1204.83
4280,-3.8733,0.0698,0.8851,758.06,1109.50,1376.71
4290,-3.8733,0.0719,0.8866,945.56,1297.00,1439.21
4300,-3.8733,0.0732,0.8873,1211.18,1484.50,1548.58
4310,-3.8733,0.0735,0.8856,1383.06,1578.25,1626.71
4320,-3.8733,0.0721,0.8833,1414.31,1359.50,1439.21
4330,-3.8733,0.0706,0.8827,1242.43,1062.62,1157.96
4340,-3.8733,0.0684,0.8834,1039.31,984.50,782.96
4350,-3.8733,0.0677,0.8838,758.06,1078.25,470.46
4360,-3.8733,0.0701,0.8837,679.93,1125.12,407.96
4370,-3.8733,0.0715,0.8840,976.81,1109.50,361.08
4380,-3.8733,0.0706,0.8850,1164.31,1156.37,361.08
4390,-3.8733,0.0685,0.8862,1039.31,1281.37,470.46
4400,-3.8733,0.0675,0.8878,773.68,1437.62,642.33
4410,-3.8733,0.0679,0.8885,648.68,1640.75,861.08
4420,-3.8733,0.0677,0.8878,695.56,1734.50,1111.08
4430,-3.8733,0.0671,0.8871,679.93,1640.75,1361.08
4440,-3.8733,0.0667,0.8860,601.81,1547.00,1579.83
4450,-3.8733,0.0667,0.8846,539.31,1406.37,1595.46
4460,-3.8733,0.0677,0.8835,539.31,1234.50,1282.96
4470,-3.8733,0.0692,0.8833,679.93,1093.87,907.96
4480,-3.8733,0.0696,0.8833,867.43,1062.62,673.58
4490,-3.8733,0.0685,0.8827,914.31,1062.62,564.21
4500,-3.8733,0.0675,0.8823,773.68,984.50,517.33
4510,-3.8733,0.0675,0.8822,648.68,937.62,517.33
4520,-3.8733,0.0671,0.8822,648.68,922.00,517.33
4530,-3.8733,0.0660,0.8827,601.81,922.00,595.46
4540,-3.8733,0.0651,0.8833,461.18,984.50,704.83
4550,-3.8733,0.0651,0.8839,336.18,1062.62,782.96
4560,-3.8733,0.0653,0.8853,336.18,1140.75,829.83
4570,-3.8733,0.0653,0.8876,367.43,1312.62,782.96
4580,-3.8733,0.0653,0.8894,367.43,1609.50,782.96
4590,-3.8733,0.0651,0.8900,367.43,1843.87,861.08
4600,-3.8733,0.0641,0.8900,336.18,1922.00,970.46
4610,-3.8733,0.0626,0.8899,211.18,1922.00,1189.21
4620,-3.8733,0.0608,0.8885,23.68,1906.37,1392.33
4630,-3.8733,0.0594,0.8866,-210.69,1734.44,1439.21
4640,-3.8733,0.0603,0.8849,-382.57,1484.44,1314.21
4650,-3.8733,0.0625,0.8835,-273.19,1265.69,1032.96
4660,-3.8733,0.0648,0.8827,8.06,1093.87,689.21
4670,-3.8733,0.0671,0.8821,304.93,984.50,376.71
4680,-3.8733,0.0681,0.8817,601.81,906.37,173.58
4690,-3.8733,0.0682,0.8817,726.81,859.50,204.83
4700,-3.8733,0.0693,0.8816,742.43,859.50,517.33
4710,-3.8733,0.0703,0.8816,883.06,843.87,829.83
4720,-3.8733,0.0695,0.8811,1008.06,843.87,845.46
4730,-3.8733,0.0682,0.8804,898.68,781.37,814.21
4740,-3.8733,0.0674,0.8801,742.43,687.62,861.08
4750,-3.8733,0.0668,0.8800,633.06,656.37,814.21
4760,-3.8733,0.0671,0.8802,554.93,640.75,704.83
4770,-3.8733,0.0673,0.8809,601.81,672.00,673.58
4780,-3.8733,0.0658,0.8817,617.43,750.12,611.08
4790,-3.8733,0.0637,0.8832,429.93,859.50,548.58
4800,-3.8733,0.0623,0.8840,164.31,1047.00,564.21
4810,-3.8733,0.0619,0.8848,-23.19,1156.31,548.58
4820,-3.8733,0.0631,0.8871,-70.07,1250.06,564.21
4830,-3.8733,0.0638,0.8894,86.18,1547.00,657.96
4840,-3.8733,0.0627,0.8909,179.93,1843.87,736.08
4850,-3.8733,0.0613,0.8918,39.31,-1968.63,829.83
4860,-3.8733,0.0602,0.8925,-148.19,-1843.69,923.58
4870,-3.8733,0.0602,0.8927,-288.82,-1765.56,939.21
4880,-3.8733,0.0614,0.8917,-288.82,-1734.31,923.58
4890,-3.8733,0.0631,0.8893,-132.57,-1859.31,907.96
4900,-3.8733,0.0643,0.8875,86.18,1828.25,939.21
4910,-3.8733,0.0653,0.8867,242.43,1593.87,892.33
4920,-3.8733,0.0664,0.8862,367.43,1500.12,751.71
4930,-3.8733,0.0675,0.8860,508.06,1437.62,673.58
4940,-3.8733,0.0682,0.8856,648.68,1406.37,611.08
4950,-3.8733,0.0684,0.8854,742.43,1359.50,611.08
4960,-3.8733,0.0680,0.8857,758.06,1328.25,673.58
4970,-3.8733,0.0673,0.8867,711.18,1375.12,689.21
4980,-3.8733,0.0660,0.8867,617.43,1500.12,657.96
4990,-3.8733,0.0648,0.8861,461.18,1500.12,611.08
5000,-3.8733,0.0637,0.8862,304.93,1422.00,626.71
5010,-3.8733,0.0632,0.8866,164.31,1437.62,782.96
5020,-3.8733,0.0637,0.8865,101.81,1484.50,923.58
5030,-3.8733,0.0648,0.8859,164.31,1468.87,970.46
5040,-3.8733,0.0653,0.8851,304.93,1390.75,1017.33
5050,-3.8733,0.0654,0.8844,367.43,1297.00,1048.58
5060,-3.8733,0.0660,0.8837,383.06,1203.25,1017.33
5070,-3.8733,0.0671,0.8835,461.18,1109.50,876.71
5080,-3.8733,0.0673,0.8842,601.81,1093.87,657.96
5090,-3.8733,0.0670,0.8853,617.43,1172.00,454.83
5100,-3.8733,0.0667,0.8862,586.18,1312.62,329.83
5110,-3.8733,0.0663,0.8870,539.31,1437.62,345.46
5120,-3.8733,0.0671,0.8876,492.43,1531.37,392.33
5130,-3.8733,0.0677,0.8867,601.81,1609.50,517.33
5140,-3.8733,0.0681,0.8855,679.93,1500.12,689.21
5150,-3.8733,0.0679,0.8849,726.81,1343.87,798.58
5160,-3.8733,0.0675,0.8843,695.56,1265.75,876.71
5170,-3.8733,0.0676,0.8837,648.68,1187.62,892.33
5180,-3.8733,0.0681,0.8834,664.31,1109.50,798.58
5190,-3.8733,0.0681,0.8833,726.81,1078.25,736.08
5200,-3.8733,0.0673,0.8835,726.81,1062.62,657.96
5210,-3.8733,0.0667,0.8837,617.43,1093.87,517.33
5220,-3.8733,0.0669,0.8835,539.31,1109.50,392.33
5230,-3.8733,0.0665,0.8837,570.56,1093.87,376.71
5240,-3.8733,0.0657,0.8837,523.68,1109.50,376.71
5250,-3.8733,0.0654,0.8835,414.31,1109.50,345.46
5260,-3.8733,0.0658,0.8837,383.06,1093.87,454.83
5270,-3.8733,0.0671,0.8839,429.93,1109.50,657.96
5280,-3.8733,0.0685,0.8846,601.81,1140.75,751.71
5290,-3.8733,0.0688,0.8853,773.68,1234.50,642.33
5300,-3.8733,0.0688,0.8855,820.56,1312.62,532.96
5310,-3.8733,0.0679,0.8853,820.56,1343.87,595.46
5320,-3.8733,0.0664,0.8851,695.56,1312.62,673.58
5330,-3.8733,0.0647,0.8857,508.06,1297.00,720.46
5340,-3.8733,0.0626,0.8867,289.31,1375.12,798.58
5350,-3.8733,0.0616,0.8870,23.68,1500.12,845.46
5360,-3.8733,0.0629,0.8865,-101.32,1531.31,798.58
5370,-3.8733,0.0653,0.8860,54.93,1468.87,704.83
5380,-3.8733,0.0675,0.8855,367.43,1406.37,626.71
5390,-3.8733,0.0691,0.8851,648.68,1343.87,486.08
5400,-3.8733,0.0699,0.8850,851.81,1297.00,423.58
5410,-3.8733,0.0702,0.8845,961.18,1281.37,501.71
5420,-3.8733,0.0707,0.8838,992.43,1218.87,642.33
5430,-3.8733,0.0713,0.8838,1054.93,1125.12,782.96
5440,-3.8733,0.0714,0.8846,1133.06,1125.12,939.21
5450,-3.8733,0.0706,0.8853,1148.68,1234.50,1017.33
5460,-3.8733,0.0686,0.8861,1039.31,1312.62,954.83
5470,-3.8733,0.0669,0.8878,789.31,1422.00,579.83
5480,-3.8733,0.0667,0.8885,570.56,1640.75,157.96
5490,-3.8734,0.0671,0.8877,539.31,1734.50,-123.29
5500,-3.8734,0.0674,0.8860,601.81,1625.12,-326.42
5510,-3.8734,0.0674,0.8851,633.06,1406.37,-326.42
5520,-3.8734,0.0673,0.8854,633.06,1297.00,-154.54
5530,-3.8734,0.0670,0.8855,617.43,1328.25,-13.92
5540,-3.8733,0.0674,0.8854,586.18,1343.87,111.08
5550,-3.8733,0.0677,0.8859,633.06,1328.25,439.21
5560,-3.8733,0.0688,0.8873,679.93,1390.75,798.58
5570,-3.8733,0.0701,0.8893,820.56,1578.25,1048.58
5580,-3.8733,0.0701,0.8905,976.81,1828.25,1095.46
5590,-3.8733,0.0688,0.8905,976.81,1984.50,954.83
5600,-3.8733,0.0682,0.8900,820.56,1984.50,845.46
5610,-3.8733,0.0684,0.8892,742.43,1922.00,736.08
5620,-3.8733,0.0687,0.8879,758.06,1812.62,657.96
5630,-3.8733,0.0691,0.8877,804.93,1656.37,611.08
5640,-3.8733,0.0693,0.8888,851.81,1625.12,595.46
5650,-3.8733,0.0699,0.8896,883.06,1765.75,595.46
5660,-3.8733,0.0698,0.8894,961.18,1875.12,501.71
5670,-3.8733,0.0685,0.8879,945.56,1843.87,314.21
5680,-3.8733,0.0677,0.8868,773.68,1656.37,173.58
5690,-3.8733,0.0680,0.8867,679.93,1515.75,142.33
5700,-3.8733,0.0688,0.8864,711.18,1500.12,236.08
5710,-3.8733,0.0701,0.8861,820.56,1453.25,470.46
5720,-3.8733,0.0709,0.8864,976.81,1422.00,704.83
5730,-3.8733,0.0696,0.8872,1086.18,1453.25,814.21
5740,-3.8733,0.0674,0.8884,914.31,1562.62,876.71
5750,-3.8733,0.0670,0.8896,633.06,1718.87,782.96
5760,-3.8733,0.0690,0.8899,586.18,1875.12,564.21
5770,-3.8733,0.0709,0.8889,836.18,1906.37,376.71
5780,-3.8733,0.0708,0.8870,1086.18,1781.37,189.21
5790,-3.8734,0.0691,0.8843,1070.56,1531.37,-154.54
5800,-3.8734,0.0669,0.8816,851.81,1187.62,-482.67
5810,-3.8734,0.0654,0.8798,570.56,843.87,-529.54
5820,-3.8734,0.0654,0.8800,383.06,609.50,-279.54
5830,-3.8733,0.0665,0.8821,383.06,640.75,111.08
5840,-3.8733,0.0670,0.8854,523.68,906.37,439.21
5850,-3.8733,0.0659,0.8879,586.18,1328.25,657.96
5860,-3.8733,0.0642,0.8892,445.56,1656.37,751.71
5870,-3.8733,0.0630,0.8911,226.81,1812.62,923.58
5880,-3.8733,0.0636,0.8938,70.56,-1937.38,1126.71
5890,-3.8733,0.0651,0.8953,148.68,-1593.63,1251.71
5900,-3.8733,0.0663,0.8948,336.18,-1406.13,1361.08
5910,-3.8733,0.0680,0.8921,492.43,-1468.63,1298.58
5920,-3.8733,0.0702,0.8881,711.18,-1812.38,1001.71
5930,-3.8733,0.0720,0.8840,992.43,1672.00,657.96
5940,-3.8733,0.0724,0.8813,1226.81,1156.37,345.46
5950,-3.8733,0.0708,0.8799,1273.68,812.62,48.58
5960,-3.8734,0.0688,0.8798,1070.56,625.12,-138.92
5970,-3.8734,0.0663,0.8801,820.56,609.50,-154.54
5980,-3.8734,0.0638,0.8798,492.43,656.37,-154.54
5990,-3.8734,0.0635,0.8796,179.93,609.50,-201.42
6000,-3.8734,0.0640,0.8807,133.06,593.87,-201.42
6010,-3.8734,0.0643,0.8824,195.56,734.50,-92.04
6020,-3.8733,0.0652,0.8845,242.43,953.25,79.83
6030,-3.8733,0.0665,0.8868,351.81,1218.87,173.58
6040,-3.8733,0.0680,0.8885,523.68,1515.75,157.96
6050,-3.8733,0.0692,0.8892,711.18,1734.50,267.33
6060,-3.8733,0.0695,0.8894,867.43,1812.62,532.96
6070,-3.8733,0.0687,0.8896,898.68,1843.87,767.33
6080,-3.8733,0.0679,0.8896,804.93,1875.12,1017.33
6090,-3.8733,0.0664,0.8899,695.56,1875.12,1267.33
6100,-3.8733,0.0647,0.8903,508.06,1906.37,1439.21
6110,-3.8733,0.0645,0.8911,289.31,1953.25,1517.33
6120,-3.8733,0.0656,0.8918,258.06,-1937.38,1407.96
6130,-3.8733,0.0669,0.8911,398.68,-1843.63,1048.58
6140,-3.8733,0.0677,0.8893,570.56,-1937.38,595.46
6150,-3.8733,0.0690,0.8866,679.93,1828.25,142.33
6160,-3.8734,0.0703,0.8835,836.18,1484.50,-263.92
6170,-3.8734,0.0708,0.8816,1008.06,1093.87,-560.79
6180,-3.8734,0.0708,0.8811,1070.56,843.87,-607.67
6190,-3.8734,0.0717,0.8818,1070.56,781.37,-404.54
6200,-3.8734,0.0729,0.8837,1179.93,875.12,-29.54
6210,-3.8733,0.0740,0.8865,1336.18,1109.50,470.46
6220,-3.8733,0.0758,0.8910,1476.81,1468.87,954.83
6230,-3.8733,0.0798,0.8978,1711.18,-1953.00,1407.96
6240,-3.8733,0.0902,0.9097,-1773.19,-1078.00,1782.96
6250,-3.8733,0.1085,0.9264,-445.07,437.62,-1966.98
6260,-3.8733,0.1265,0.9418,1898.68,-1421.69,-1857.60
6270,-3.8733,0.1315,0.9487,195.56,547.12,-1826.29
6280,-3.8733,0.1158,0.9420,836.18,1437.74,-1810.67
6290,-3.8733,0.0825,0.9202,-1163.82,578.31,1954.96
6300,-3.8733,0.0490,0.8912,-1429.44,1781.37,1798.65
6310,-3.8733,0.0322,0.8674,-1726.32,-1921.81,1861.08
6320,-3.8733,0.0341,0.8550,133.06,-968.69,1720.40
6330,-3.8733,0.0466,0.8499,367.43,1437.56,1439.15
6340,-3.8733,0.0577,0.8457,1976.81,781.31,1173.52
6350,-3.8733,0.0583,0.8419,-601.32,250.06,892.27
6360,-3.8733,0.0490,0.8409,-523.19,-234.31,532.84
6370,-3.8733,0.0358,0.8444,-1726.32,-359.31,173.46
6380,-3.8734,0.0237,0.8503,586.18,78.19,-29.60
6390,-3.8734,0.0156,0.8552,-960.69,843.75,-123.35
6400,-3.8734,0.0123,0.8591,-1991.94,1468.75,-248.35
6410,-3.8734,0.0111,0.8646,1586.18,1968.75,-513.98
6420,-3.8734,0.0111,0.8716,1429.93,-1328.12,-842.10
6430,-3.8734,0.0107,0.8782,1429.93,-437.50,-1154.60
6440,-3.8734,0.0085,0.8837,1383.06,406.25,-1404.54
6450,-3.8734,0.0061,0.8868,1101.81,1109.38,-1513.92
6460,-3.8734,0.0046,0.8878,789.31,1515.62,-1467.04
6470,-3.8734,0.0051,0.8879,601.81,1640.62,-1123.29
6480,-3.8734,0.0076,0.8892,664.31,1656.25,-482.67
6490,-3.8733,0.0134,0.8914,976.81,1812.50,157.96
6500,-3.8733,0.0215,0.8937,1726.81,-1906.25,689.21
6510,-3.8733,0.0282,0.8955,-1241.94,-1609.38,907.96
6520,-3.8733,0.0320,0.8981,-382.57,-1375.00,782.96
6530,-3.8733,0.0341,0.9019,101.81,-1046.81,532.96
6540,-3.8733,0.0372,0.9054,367.43,-562.44,439.21
6550,-3.8733,0.0416,0.9075,773.68,-109.31,548.58
6560,-3.8733,0.0453,0.9064,1336.18,156.31,798.65
6570,-3.8733,0.0491,0.9011,1804.93,15.69,1033.02
6580,-3.8733,0.0540,0.8936,-1710.69,-656.19,1142.33
6590,-3.8733,0.0592,0.8860,-1085.69,-1624.94,1189.21
6600,-3.8733,0.0637,0.8810,-413.82,1406.31,1157.96
6610,-3.8733,0.0665,0.8787,164.31,765.75,970.46
6620,-3.8733,0.0680,0.8777,523.68,468.87,782.96
6630,-3.8733,0.0676,0.8783,711.18,343.87,673.58
6640,-3.8733,0.0637,0.8802,664.31,422.00,611.08
6650,-3.8733,0.0581,0.8827,164.31,672.00,564.21
6660,-3.8733,0.0533,0.8849,-554.44,984.44,486.08
6670,-3.8733,0.0500,0.8857,-1163.82,1265.69,470.46
6680,-3.8733,0.0463,0.8851,-1585.69,1375.06,626.71
6690,-3.8733,0.0414,0.8842,1929.93,1296.94,720.46
6700,-3.8733,0.0364,0.8843,1304.93,1171.94,532.96
6710,-3.8733,0.0317,0.8856,664.31,1187.56,157.96
6720,-3.8734,0.0291,0.8877,70.56,1359.44,-107.67
6730,-3.8734,0.0284,0.8909,-273.19,1625.00,-310.79
6740,-3.8734,0.0282,0.8943,-351.32,-1968.75,-373.29
6750,-3.8734,0.0277,0.8958,-382.57,-1531.25,-185.79
6760,-3.8734,0.0270,0.8954,-445.07,-1343.75,-13.92
6770,-3.8734,0.0272,0.8939,-538.82,-1390.62,-13.92
6780,-3.8733,0.0288,0.8918,-507.57,-1578.12,32.96
6790,-3.8733,0.0312,0.8907,-304.44,-1843.75,111.08
6800,-3.8733,0.0352,0.8910,8.06,-1984.31,95.46
6810,-3.8733,0.0399,0.8920,508.06,-1953.06,126.71
6820,-3.8733,0.0442,0.8931,1117.43,-1828.06,220.46
6830,-3.8733,0.0469,0.8932,1664.31,-1687.44,376.71
6840,-3.8733,0.0487,0.8922,-1991.94,-1671.81,486.08
6850,-3.8733,0.0500,0.8907,-1757.57,-1796.81,470.46
6860,-3.8733,0.0515,0.8893,-1585.69,-1984.31,407.96
6870,-3.8733,0.0525,0.8887,-1398.19,1828.19,361.08
6880,-3.8733,0.0526,0.8889,-1273.19,1750.06,220.46
6890,-3.8734,0.0519,0.8888,-1257.57,1781.31,-13.92
6900,-3.8734,0.0507,0.8876,-1351.32,1765.69,-107.67
6910,-3.8734,0.0493,0.8871,-1507.57,1609.44,-45.17
6920,-3.8733,0.0474,0.8882,-1679.44,1546.94,64.21
6930,-3.8733,0.0454,0.8892,-1929.44,1687.56,142.33
6940,-3.8733,0.0425,0.8895,1820.56,1812.56,236.08
6950,-3.8733,0.0391,0.8894,1445.56,1859.44,407.96
6960,-3.8733,0.0365,0.8893,1008.06,1843.81,564.21
6970,-3.8733,0.0353,0.8888,679.93,1828.19,548.58
6980,-3.8733,0.0350,0.8881,523.68,1765.69,470.46
6990,-3.8733,0.0348,0.8878,492.43,1671.94,407.96
7000,-3.8733,0.0350,0.8883,461.18,1640.69,298.58
7010,-3.8733,0.0355,0.8890,492.43,1703.19,95.46
7020,-3.8734,0.0365,0.8894,554.93,1796.94,-29.54
7030,-3.8734,0.0378,0.8899,679.93,1843.81,-76.42
7040,-3.8734,0.0392,0.8906,851.81,1906.31,-92.04
7050,-3.8734,0.0410,0.8901,1023.68,-1999.94,-45.17
7060,-3.8733,0.0428,0.8877,1258.06,1937.56,1.71
7070,-3.8733,0.0447,0.8860,1492.43,1625.06,64.21
7080,-3.8733,0.0465,0.8857,1726.81,1406.31,126.71
7090,-3.8733,0.0477,0.8867,1961.18,1375.06,95.46
7100,-3.8733,0.0480,0.8876,-1882.57,1500.06,95.46
7110,-3.8733,0.0476,0.8882,-1851.32,1609.44,157.96
7120,-3.8733,0.0469,0.8892,-1898.19,1687.56,236.08
7130,-3.8733,0.0465,0.8896,-1991.94,1812.56,220.46
7140,-3.8733,0.0461,0.8895,1961.18,1875.06,111.08
7150,-3.8733,0.0449,0.8898,1914.31,1859.44,48.58
7160,-3.8733,0.0428,0.8895,1758.06,1890.69,64.21
7170,-3.8733,0.0413,0.8890,1492.43,1859.44,142.33
7180,-3.8733,0.0410,0.8896,1289.31,1796.94,220.46
7190,-3.8733,0.0414,0.8899,1258.06,1875.06,204.83
7200,-3.8733,0.0416,0.8895,1304.93,1906.31,204.83
7210,-3.8733,0.0409,0.8895,1336.18,1859.44,236.08
7220,-3.8733,0.0397,0.8890,1242.43,1859.44,236.08
7230,-3.8733,0.0391,0.8882,1086.18,1796.94,251.71
7240,-3.8733,0.0394,0.8887,1008.06,1687.56,314.21
7250,-3.8733,0.0411,0.8893,1054.93,1750.06,267.33
7260,-3.8733,0.0432,0.8890,1273.68,1828.19,173.58
7270,-3.8733,0.0442,0.8879,1539.31,1796.94,48.58
7280,-3.8734,0.0446,0.8877,1664.31,1656.31,-13.92
7290,-3.8733,0.0449,0.8879,1711.18,1625.06,95.46
7300,-3.8733,0.0444,0.8876,1758.06,1656.31,189.21
7310,-3.8733,0.0442,0.8877,1695.56,1609.44,267.33
7320,-3.8733,0.0452,0.8887,1664.31,1625.06,251.71
7330,-3.8733,0.0464,0.8899,1789.31,1750.06,189.21
7340,-3.8733,0.0471,0.8911,1945.56,1906.31,267.33
7350,-3.8733,0.0491,0.8934,-1960.69,-1937.44,376.71
7360,-3.8733,0.0543,0.8977,-1710.69,-1640.56,486.08
7370,-3.8733,0.0634,0.9030,-1038.82,-1093.69,751.71
7380,-3.8733,0.0741,0.9089,117.43,-421.75,1361.08
7390,-3.8733,0.0824,0.9149,1492.43,343.87,-1779.48
7400,-3.8733,0.0856,0.9197,-1445.07,1109.50,-951.35
7410,-3.8733,0.0811,0.9200,-1038.82,1718.87,-295.10
7420,-3.8733,0.0696,0.9150,-1616.94,1765.75,-107.60
7430,-3.8733,0.0599,0.9088,914.31,1125.12,-388.85
7440,-3.8733,0.0569,0.9036,-320.07,328.19,-1013.85
7450,-3.8733,0.0553,0.8975,-710.69,-343.69,-1810.79
7460,-3.8733,0.0508,0.8900,-913.82,-1124.94,1345.46
7470,-3.8733,0.0425,0.8840,-1491.94,1921.94,564.21
7480,-3.8733,0.0314,0.8798,1445.56,1156.31,32.96
7490,-3.8734,0.0209,0.8757,23.68,609.44,-295.17
7500,-3.8734,0.0143,0.8722,-1320.07,93.75,-498.29
7510,-3.8734,0.0109,0.8687,1836.18,-359.38,-670.23
7520,-3.8734,0.0092,0.8651,1398.68,-812.50,-842.10
7530,-3.8734,0.0079,0.8622,1179.93,-1265.62,-1092.10
7540,-3.8734,0.0054,0.8600,1023.68,-1640.62,-1467.10
7550,-3.8734,0.0009,0.8590,695.56,-1921.88,-1638.98
7560,-3.8734,-0.0043,0.8590,117.43,1953.12,-1795.23
7570,-3.8734,-0.0082,0.8595,-538.82,1968.69,1986.02
7580,-3.8734,-0.0100,0.8615,-1038.82,-1968.81,-1998.35
7590,-3.8734,-0.0106,0.8647,-1273.19,-1718.81,-1857.73
7600,-3.8734,-0.0098,0.8691,-1351.32,-1296.94,-1670.23
7610,-3.8734,-0.0077,0.8745,-1241.94,-734.44,-1357.73
7620,-3.8734,-0.0050,0.8793,-976.32,-46.94,-982.73
7630,-3.8734,-0.0011,0.8831,-632.57,562.44,-685.79
7640,-3.8734,0.0044,0.8864,-132.57,1046.81,-435.79
7650,-3.8734,0.0111,0.8894,570.56,1453.12,-170.17
7660,-3.8733,0.0170,0.8927,1429.93,1843.75,111.08
7670,-3.8733,0.0212,0.8949,-1820.07,-1734.38,454.83
7680,-3.8733,0.0250,0.8954,-1273.19,-1453.12,876.71
7690,-3.8733,0.0286,0.8943,-788.82,-1390.62,1251.71
7700,-3.8733,0.0334,0.8922,-335.69,-1531.25,1361.08
7710,-3.8733,0.0402,0.8901,289.31,-1796.81,1345.46
7720,-3.8733,0.0459,0.8883,1148.68,1937.56,1345.46
7730,-3.8733,0.0485,0.8866,1883.06,1703.19,1282.96
7740,-3.8733,0.0486,0.8861,-1788.82,1484.44,1236.08
7750,-3.8733,0.0479,0.8861,-1773.19,1421.94,1220.46
7760,-3.8733,0.0475,0.8859,-1866.94,1421.94,1298.58
7770,-3.8733,0.0469,0.8862,-1913.82,1390.69,1486.08
7780,-3.8733,0.0455,0.8872,-1991.94,1437.56,1439.21
7790,-3.8733,0.0433,0.8876,1836.18,1562.56,1157.96
7800,-3.8733,0.0399,0.8875,1554.93,1609.44,907.96
7810,-3.8733,0.0360,0.8881,1117.43,1593.81,736.08
7820,-3.8733,0.0331,0.8892,617.43,1671.94,486.08
7830,-3.8733,0.0311,0.8893,242.43,1812.56,314.21
7840,-3.8733,0.0292,0.8892,-7.57,1828.12,282.96
7850,-3.8733,0.0264,0.8894,-257.57,1812.50,204.83
7860,-3.8733,0.0236,0.8898,-616.94,1843.75,95.46
7870,-3.8733,0.0217,0.8901,-976.32,1890.62,17.33
7880,-3.8734,0.0204,0.8906,-1210.69,1937.50,-45.17
7890,-3.8733,0.0203,0.8912,-1382.57,-2000.00,17.33
7900,-3.8733,0.0210,0.8920,-1398.19,-1921.88,79.83
7910,-3.8733,0.0232,0.8917,-1304.44,-1828.12,17.33
7920,-3.8733,0.0273,0.8916,-1023.19,-1859.38,32.96
7930,-3.8733,0.0302,0.8923,-491.94,-1875.00,189.21
7940,-3.8733,0.0312,0.8932,-132.57,-1781.25,454.83
7950,-3.8733,0.0330,0.8937,8.06,-1671.81,673.58
7960,-3.8733,0.0365,0.8934,226.81,-1609.31,689.21
7970,-3.8733,0.0389,0.8920,679.93,-1640.56,579.83
7980,-3.8733,0.0393,0.8900,992.43,-1828.06,517.33
7990,-3.8733,0.0404,0.8885,1039.31,1921.94,486.08
8000,-3.8733,0.0419,0.8879,1179.93,1734.44,392.33
8010,-3.8733,0.0428,0.8885,1367.43,1656.31,329.83
8020,-3.8733,0.0431,0.8896,1492.43,1734.44,329.83
8030,-3.8733,0.0417,0.8896,1523.68,1875.06,298.58
8040,-3.8733,0.0393,0.8883,1351.81,1875.06,282.96
8050,-3.8733,0.0370,0.8872,1039.31,1703.19,282.96
8060,-3.8733,0.0353,0.8873,742.43,1562.56,329.83
8070,-3.8733,0.0336,0.8887,523.68,1578.19,407.96
8080,-3.8733,0.0332,0.8893,304.93,1750.06,439.21
8090,-3.8733,0.0330,0.8888,258.06,1828.19,454.83
8100,-3.8733,0.0326,0.8890,226.81,1765.69,423.58
8110,-3.8733,0.0321,0.8899,179.93,1796.94,267.33
8120,-3.8733,0.0309,0.8918,117.43,1906.31,173.58
8130,-3.8733,0.0293,0.8937,-38.82,-1843.75,204.83
8140,-3.8733,0.0277,0.8940,-241.94,-1609.38,314.21
8150,-3.8733,0.0269,0.8928,-445.07,-1562.50,361.08
8160,-3.8733,0.0278,0.8905,-554.44,-1718.75,282.96
8170,-3.8733,0.0289,0.8885,-429.44,1984.38,32.96
8180,-3.8734,0.0291,0.8872,-288.82,1734.38,-357.67
8190,-3.8734,0.0289,0.8859,-273.19,1562.50,-638.92
8200,-3.8734,0.0291,0.8851,-288.82,1390.62,-513.92
8210,-3.8734,0.0298,0.8855,-273.19,1296.88,-170.17
8220,-3.8734,0.0298,0.8865,-179.44,1343.75,-76.42
8230,-3.8734,0.0317,0.8884,-179.44,1468.75,-170.17
8240,-3.8734,0.0334,0.8901,70.56,1718.81,-201.42
8250,-3.8734,0.0320,0.8901,289.31,1937.56,-123.29
8260,-3.8733,0.0317,0.8904,101.81,1937.56,48.58
8270,-3.8733,0.0331,0.8915,70.56,1968.81,173.58
8280,-3.8733,0.0352,0.8923,242.43,-1890.56,314.21
8290,-3.8733,0.0367,0.8917,508.06,-1781.19,548.58
8300,-3.8733,0.0364,0.8900,711.18,-1859.31,689.21
8310,-3.8733,0.0343,0.8900,664.31,1921.94,689.21
8320,-3.8733,0.0317,0.8914,398.68,1921.94,689.21
8330,-3.8733,0.0305,0.8914,70.56,-1906.19,548.58
8340,-3.8733,0.0309,0.8898,-85.69,-1906.25,236.08
8350,-3.8734,0.0328,0.8873,-38.82,1890.62,-185.79
8360,-3.8734,0.0348,0.8850,211.18,1578.19,-701.42
8370,-3.8734,0.0350,0.8835,461.18,1281.31,-1123.29
8380,-3.8734,0.0336,0.8829,492.43,1093.81,-1248.29
8390,-3.8734,0.0310,0.8835,304.93,1015.69,-1060.79
8400,-3.8734,0.0286,0.8851,-23.19,1093.75,-513.92
8410,-3.8733,0.0269,0.8877,-335.69,1296.88,189.21
8420,-3.8733,0.0260,0.8912,-554.44,1625.00,751.71
8430,-3.8733,0.0254,0.8948,-663.82,-1921.88,1111.08
8440,-3.8733,0.0254,0.8965,-741.94,-1468.75,1236.08
8450,-3.8733,0.0264,0.8958,-741.94,-1250.00,1111.08
8460,-3.8733,0.0282,0.8948,-616.94,-1343.75,798.58
8470,-3.8733,0.0292,0.8938,-382.57,-1468.75,267.33
8480,-3.8734,0.0288,0.8926,-257.57,-1593.75,-248.29
8490,-3.8734,0.0281,0.8912,-304.44,-1750.00,-529.54
8500,-3.8734,0.0270,0.8896,-398.19,-1921.88,-623.29
8510,-3.8734,0.0269,0.8876,-538.82,1875.00,-670.17
8520,-3.8734,0.0283,0.8857,-554.44,1609.38,-732.67
8530,-3.8734,0.0297,0.8859,-366.94,1375.00,-717.04
8540,-3.8734,0.0305,0.8866,-195.07,1390.62,-638.92
8550,-3.8734,0.0311,0.8876,-85.69,1484.38,-467.04
8560,-3.8734,0.0303,0.8882,-7.57,1609.38,-217.04
8570,-3.8733,0.0289,0.8882,-116.94,1687.50,1.71
8580,-3.8733,0.0284,0.8884,-288.82,1687.50,142.33
8590,-3.8733,0.0286,0.8893,-351.32,1718.75,173.58
8600,-3.8733,0.0286,0.8905,-335.69,1828.12,282.96
8610,-3.8733,0.0283,0.8916,-335.69,1984.38,407.96
8620,-3.8733,0.0280,0.8922,-366.94,-1875.00,361.08
8630,-3.8733,0.0275,0.8925,-413.82,-1796.88,189.21
8640,-3.8733,0.0270,0.8923,-476.32,-1765.62,95.46
8650,-3.8733,0.0267,0.8923,-538.82,-1781.25,142.33
8660,-3.8733,0.0270,0.8918,-570.07,-1781.25,251.71
8670,-3.8733,0.0278,0.8914,-538.82,-1843.75,251.71
8680,-3.8733,0.0286,0.8911,-429.44,-1906.25,189.21
8690,-3.8733,0.0295,0.8909,-335.69,-1937.50,79.83
8700,-3.8734,0.0303,0.8903,-210.69,-1968.75,-29.54
8710,-3.8734,0.0302,0.8896,-116.94,1953.12,-107.67
8720,-3.8734,0.0295,0.8890,-132.57,1875.00,-185.79
8730,-3.8734,0.0287,0.8884,-210.69,1796.88,-326.42
8740,-3.8734,0.0277,0.8878,-320.07,1718.75,-451.42
8750,-3.8734,0.0271,0.8872,-445.07,1640.62,-467.04
8760,-3.8734,0.0275,0.8875,-523.19,1562.50,-388.92
8770,-3.8734,0.0280,0.8882,-476.32,1593.75,-185.79
8780,-3.8734,0.0272,0.8887,-413.82,1687.50,-13.92
8790,-3.8733,0.0260,0.8896,-507.57,1750.00,79.83
8800,-3.8733,0.0251,0.8907,-663.82,1875.00,111.08
8810,-3.8733,0.0240,0.8916,-773.19,-1984.38,32.96
8820,-3.8734,0.0231,0.8926,-913.82,-1875.00,-217.04
8830,-3.8734,0.0233,0.8926,-1038.82,-1750.00,-560.79
8840,-3.8734,0.0250,0.8920,-1007.57,-1750.00,-857.67
8850,-3.8734,0.0278,0.8914,-788.82,-1828.12,-1060.79
8860,-3.8734,0.0300,0.8901,-429.44,-1906.25,-1045.17
8870,-3.8734,0.0312,0.8882,-148.19,1937.50,-873.29
8880,-3.8734,0.0317,0.8868,8.06,1687.56,-654.54
8890,-3.8734,0.0306,0.8864,70.56,1515.69,-295.17
8900,-3.8733,0.0287,0.8862,-70.07,1453.12,189.21
8910,-3.8733,0.0275,0.8862,-320.07,1437.50,657.96
8920,-3.8733,0.0267,0.8873,-476.32,1437.50,892.33
8930,-3.8733,0.0262,0.8901,-570.07,1578.12,923.58
8940,-3.8733,0.0270,0.8934,-632.57,1937.50,751.71
8950,-3.8733,0.0277,0.8959,-538.82,-1640.62,407.96
8960,-3.8733,0.0275,0.8959,-445.07,-1328.12,32.96
8970,-3.8734,0.0271,0.8949,-476.32,-1328.12,-248.29
8980,-3.8734,0.0278,0.8940,-523.19,-1453.12,-451.42
8990,-3.8734,0.0289,0.8923,-429.44,-1562.50,-513.92
9000,-3.8734,0.0300,0.8894,-288.82,-1781.25,-451.42
9010,-3.8734,0.0309,0.8868,-148.19,1843.75,-263.92
9020,-3.8733,0.0306,0.8861,-38.82,1515.62,64.21
9030,-3.8733,0.0294,0.8861,-70.07,1421.88,282.96
9040,-3.8733,0.0284,0.8857,-226.32,1421.88,204.83
9050,-3.8734,0.0292,0.8851,-351.32,1375.00,-92.04
9060,-3.8734,0.0302,0.8849,-257.57,1296.88,-404.54
9070,-3.8734,0.0302,0.8855,-132.57,1265.62,-654.54
9080,-3.8734,0.0288,0.8862,-132.57,1343.75,-857.67
9090,-3.8734,0.0273,0.8873,-304.44,1437.50,-842.04
9100,-3.8734,0.0269,0.8892,-491.94,1578.12,-623.29
9110,-3.8734,0.0261,0.8910,-554.44,1812.50,-435.79
9120,-3.8734,0.0251,0.8917,-648.19,-1953.12,-217.04
9130,-3.8733,0.0253,0.8918,-773.19,-1859.38,95.46
9140,-3.8733,0.0264,0.8927,-757.57,-1843.75,282.96
9150,-3.8733,0.0270,0.8934,-616.94,-1734.38,361.08
9160,-3.8733,0.0272,0.8926,-538.82,-1640.62,392.33
9170,-3.8733,0.0281,0.8914,-507.57,-1750.00,361.08
9180,-3.8733,0.0294,0.8911,-398.19,-1906.25,314.21
9190,-3.8733,0.0305,0.8917,-226.32,-1937.50,189.21
9200,-3.8733,0.0303,0.8914,-85.69,-1859.38,17.33
9210,-3.8734,0.0293,0.8895,-116.94,-1906.25,-60.79
9220,-3.8734,0.0288,0.8878,-241.94,1859.38,-45.17
9230,-3.8734,0.0294,0.8871,-304.44,1640.62,-138.92
9240,-3.8734,0.0310,0.8868,-226.32,1546.88,-295.17
9250,-3.8734,0.0317,0.8878,-23.19,1515.62,-388.92
9260,-3.8734,0.0315,0.8877,70.56,1640.69,-498.29
9270,-3.8734,0.0305,0.8867,39.31,1625.06,-513.92
9280,-3.8734,0.0308,0.8866,-85.69,1500.00,-342.04
9290,-3.8734,0.0317,0.8876,-54.44,1484.38,-217.04
9300,-3.8734,0.0311,0.8889,70.56,1609.44,-217.04
9310,-3.8734,0.0292,0.8895,-7.57,1781.25,-185.79
9320,-3.8734,0.0273,0.8899,-257.57,1859.38,-138.92
9330,-3.8734,0.0265,0.8909,-491.94,1906.25,-185.79
9340,-3.8734,0.0262,0.8920,-601.32,-1968.75,-310.79
9350,-3.8734,0.0266,0.8931,-632.57,-1828.12,-357.67
9360,-3.8734,0.0267,0.8938,-585.69,-1687.50,-232.67
9370,-3.8733,0.0265,0.8931,-570.07,-1593.75,64.21
9380,-3.8733,0.0270,0.8915,-601.32,-1687.50,236.08
9390,-3.8733,0.0286,0.8903,-538.82,-1890.62,173.58
9400,-3.8733,0.0303,0.8894,-335.69,1953.12,17.33
9410,-3.8734,0.0315,0.8893,-116.94,1843.75,-107.67
9420,-3.8734,0.0317,0.8903,39.31,1828.19,-123.29
9430,-3.8734,0.0316,0.8911,70.56,1953.19,-123.29
9440,-3.8734,0.0322,0.8920,54.93,-1937.44,-123.29
9450,-3.8734,0.0328,0.8921,133.06,-1828.06,-107.67
9460,-3.8734,0.0337,0.8915,211.18,-1812.44,-170.17
9470,-3.8734,0.0343,0.8906,320.56,-1890.56,-263.92
9480,-3.8734,0.0334,0.8898,398.68,-1999.94,-248.29
9490,-3.8734,0.0317,0.8894,289.31,1890.69,-248.29
9500,-3.8734,0.0303,0.8895,70.56,1843.81,-310.79
9510,-3.8734,0.0302,0.8899,-116.94,1859.38,-342.04
9520,-3.8734,0.0306,0.8907,-132.57,1906.25,-232.67
9530,-3.8734,0.0303,0.8911,-70.07,-1984.38,-201.42
9540,-3.8734,0.0294,0.8911,-116.94,-1937.50,-357.67
9550,-3.8734,0.0289,0.8920,-226.32,-1937.50,-420.17
9560,-3.8734,0.0287,0.8929,-288.82,-1828.12,-342.04
9570,-3.8734,0.0283,0.8934,-320.07,-1703.12,-217.04
9580,-3.8734,0.0282,0.8943,-366.94,-1640.62,-232.67
9590,-3.8734,0.0284,0.8948,-382.57,-1531.25,-248.29
9600,-3.8734,0.0288,0.8933,-351.32,-1468.75,-29.54
9610,-3.8733,0.0292,0.8907,-304.44,-1656.25,95.46
9620,-3.8733,0.0291,0.8885,-257.57,-1984.38,1.71
9630,-3.8734,0.0293,0.8873,-273.19,1734.38,-107.67
9640,-3.8734,0.0303,0.8873,-241.94,1578.12,-185.79
9650,-3.8734,0.0314,0.8882,-116.94,1578.12,-342.04
9660,-3.8734,0.0315,0.8890,23.68,1687.56,-529.54
9670,-3.8734,0.0308,0.8904,39.31,1796.94,-592.04
9680,-3.8734,0.0300,0.8917,-54.44,1968.75,-576.42
9690,-3.8734,0.0298,0.8918,-148.19,-1859.38,-560.79
9700,-3.8734,0.0299,0.8915,-179.44,-1843.75,-373.29
9710,-3.8734,0.0306,0.8916,-163.82,-1890.62,-92.04
9720,-3.8733,0.0308,0.8925,-70.07,-1875.00,189.21
9730,-3.8733,0.0302,0.8921,-54.44,-1765.62,376.71
9740,-3.8733,0.0303,0.8907,-132.57,-1812.50,407.96
9750,-3.8733,0.0308,0.8899,-116.94,-1984.38,236.08
9760,-3.8734,0.0309,0.8890,-54.44,1906.25,-60.79
9770,-3.8734,0.0308,0.8882,-38.82,1796.88,-232.67
9780,-3.8734,0.0302,0.8875,-54.44,1687.50,-342.04
9790,-3.8734,0.0293,0.8873,-132.57,1593.75,-576.42
9800,-3.8734,0.0291,0.8877,-241.94,1578.12,-717.04
9810,-3.8734,0.0302,0.8888,-273.19,1625.00,-670.17
9820,-3.8734,0.0317,0.8904,-132.57,1765.62,-529.54
9830,-3.8734,0.0331,0.8903,70.56,1968.81,-451.42
9840,-3.8734,0.0341,0.8890,242.43,1953.19,-420.17
9850,-3.8734,0.0344,0.8888,367.43,1796.94,-295.17
9860,-3.8734,0.0341,0.8895,414.31,1765.69,-170.17
9870,-3.8734,0.0336,0.8904,367.43,1859.44,-107.67
9880,-3.8734,0.0333,0.8911,304.93,1968.81,-29.54
9890,-3.8733,0.0333,0.8915,273.68,-1937.44,126.71
9900,-3.8733,0.0337,0.8920,273.68,-1890.56,314.21
9910,-3.8733,0.0342,0.8936,320.56,-1828.06,345.46
9920,-3.8733,0.0342,0.8950,383.06,-1624.94,298.58
9930,-3.8733,0.0332,0.8950,383.06,-1437.44,282.96
9940,-3.8733,0.0323,0.8942,258.06,-1437.44,314.21
9950,-3.8733,0.0327,0.8940,148.68,-1546.81,267.33
9960,-3.8733,0.0338,0.8939,195.56,-1562.44,95.46
9970,-3.8734,0.0341,0.8931,336.18,-1578.06,-154.54
9980,-3.8734,0.0334,0.8921,367.43,-1687.44,-295.17
9990,-3.8734,0.0325,0.8917,289.31,-1812.44,-279.54
10000,-3.8734,0.0322,0.8916,164.31,-1859.31,-248.29
10010,-3.8734,0.0330,0.8910,133.06,-1874.94,-138.92
10020,-3.8733,0.0338,0.8896,226.81,-1953.06,111.08
10030,-3.8733,0.0337,0.8878,336.18,1875.06,251.71
10040,-3.8733,0.0331,0.8859,320.56,1640.69,189.21
10050,-3.8733,0.0314,0.8846,242.43,1390.69,32.96
10060,-3.8734,0.0292,0.8844,23.68,1234.44,-170.17
10070,-3.8734,0.0286,0.8856,-257.57,1203.12,-435.79
10080,-3.8734,0.0284,0.8873,-335.69,1359.38,-701.42
10090,-3.8734,0.0272,0.8882,-351.32,1578.12,-873.29
10100,-3.8734,0.0251,0.8890,-507.57,1687.50,-873.29
10110,-3.8734,0.0234,0.8900,-773.19,1796.88,-810.79
10120,-3.8734,0.0228,0.8903,-991.94,1921.88,-638.92
10130,-3.8734,0.0236,0.8899,-1070.07,1953.12,-482.67
10140,-3.8734,0.0253,0.8903,-976.32,1906.25,-404.54
10150,-3.8734,0.0270,0.8905,-757.57,1953.12,-295.17
10160,-3.8734,0.0284,0.8901,-538.82,1984.38,-154.54
10170,-3.8734,0.0303,0.8900,-351.32,1937.50,-13.92
10180,-3.8733,0.0323,0.8899,-116.94,1921.88,189.21
10190,-3.8733,0.0338,0.8899,148.68,1906.31,454.83
10200,-3.8733,0.0345,0.8900,336.18,1906.31,657.96
10210,-3.8733,0.0342,0.8898,429.93,1921.94,736.08
10220,-3.8733,0.0341,0.8899,383.06,1890.69,579.83
10230,-3.8733,0.0347,0.8905,367.43,1906.31,251.71
10240,-3.8734,0.0353,0.8916,445.56,1984.44,-92.04
10250,-3.8734,0.0360,0.8921,523.68,-1874.94,-482.67
10260,-3.8734,0.0377,0.8914,617.43,-1812.44,-857.67
10270,-3.8734,0.0387,0.8900,836.18,-1906.19,-1154.54
10280,-3.8734,0.0380,0.8885,961.18,1921.94,-1310.79
10290,-3.8734,0.0365,0.8879,867.43,1734.44,-1263.92
10300,-3.8734,0.0348,0.8882,679.93,1656.31,-904.54
10310,-3.8734,0.0337,0.8881,461.18,1687.56,-373.29
10320,-3.8733,0.0320,0.8879,320.56,1671.94,95.46
10330,-3.8733,0.0295,0.8892,101.81,1656.31,548.58
10340,-3.8733,0.0276,0.8914,-210.69,1812.50,845.46
10350,-3.8733,0.0262,0.8927,-460.69,-1906.25,892.33
10360,-3.8733,0.0260,0.8931,-632.57,-1734.38,704.83
10370,-3.8733,0.0266,0.8931,-663.82,-1687.50,314.21
10380,-3.8734,0.0273,0.8923,-585.69,-1687.50,-185.79
10390,-3.8734,0.0281,0.8907,-491.94,-1781.25,-607.67
10400,-3.8734,0.0284,0.8884,-398.19,-1984.38,-873.29
10410,-3.8734,0.0297,0.8859,-351.32,1718.75,-1045.17
10420,-3.8734,0.0315,0.8850,-195.07,1390.62,-1092.04
10430,-3.8734,0.0323,0.8862,39.31,1281.31,-967.04
10440,-3.8734,0.0326,0.8882,148.68,1437.56,-779.54
10450,-3.8734,0.0337,0.8898,179.93,1687.56,-560.79
10460,-3.8734,0.0350,0.8914,320.56,1890.69,-342.04
10470,-3.8734,0.0364,0.8923,492.43,-1906.19,-92.04
10480,-3.8733,0.0381,0.8920,664.31,-1781.19,204.83
10490,-3.8733,0.0387,0.8914,883.06,-1828.06,517.33
10500,-3.8733,0.0377,0.8910,961.18,-1906.19,673.58
10510,-3.8733,0.0364,0.8904,836.18,-1953.06,626.71
10520,-3.8733,0.0354,0.8892,664.31,1968.81,470.46
10530,-3.8733,0.0348,0.8876,539.31,1812.56,126.71
10540,-3.8734,0.0347,0.8864,461.18,1609.44,-310.79
10550,-3.8734,0.0350,0.8865,445.56,1453.19,-685.79
10560,-3.8734,0.0348,0.8873,492.43,1468.81,-888.92
10570,-3.8734,0.0337,0.8882,461.18,1578.19,-1013.92
10580,-3.8734,0.0327,0.8898,320.56,1687.56,-1185.79
10590,-3.8734,0.0321,0.8925,195.56,1890.69,-1295.17
10600,-3.8734,0.0315,0.8953,117.43,-1765.56,-1248.29
10610,-3.8734,0.0306,0.8972,39.31,-1406.19,-982.67
10620,-3.8734,0.0292,0.8986,-70.07,-1156.25,-576.42
10630,-3.8734,0.0276,0.8994,-257.57,-984.38,-170.17
10640,-3.8733,0.0264,0.8993,-460.69,-875.00,111.08
10650,-3.8733,0.0261,0.8982,-616.94,-890.62,267.33
10660,-3.8733,0.0271,0.8973,-648.19,-1031.25,361.08
10670,-3.8733,0.0282,0.8973,-523.19,-1140.62,439.21
10680,-3.8733,0.0289,0.8973,-382.57,-1140.62,423.58
10690,-3.8733,0.0291,0.8961,-288.82,-1140.62,267.33
10700,-3.8733,0.0293,0.8939,-273.19,-1296.88,95.46
10710,-3.8734,0.0308,0.8916,-241.94,-1578.12,-76.42
10720,-3.8734,0.0326,0.8888,-54.44,-1875.00,-248.29
10730,-3.8734,0.0337,0.8865,179.93,1765.69,-404.54
10740,-3.8734,0.0342,0.8851,320.56,1468.81,-607.67
10750,-3.8734,0.0349,0.8848,383.06,1296.94,-842.04
10760,-3.8734,0.0353,0.8851,476.81,1250.06,-967.04
10770,-3.8734,0.0350,0.8853,523.68,1296.94,-1045.17
10780,-3.8734,0.0355,0.8851,492.43,1312.56,-1138.92
10790,-3.8734,0.0361,0.8856,554.93,1296.94,-1107.67
10800,-3.8734,0.0358,0.8868,633.06,1359.44,-904.54
10810,-3.8734,0.0348,0.8888,586.18,1515.69,-701.42
10820,-3.8734,0.0338,0.8912,461.18,1765.69,-638.92
10830,-3.8734,0.0332,0.8942,336.18,-1921.81,-592.04
10840,-3.8734,0.0328,0.8964,258.06,-1546.81,-435.79
10850,-3.8734,0.0326,0.8970,211.18,-1265.56,-217.04
10860,-3.8734,0.0326,0.8967,179.93,-1187.44,-107.67
10870,-3.8733,0.0317,0.8959,179.93,-1218.69,1.71
10880,-3.8733,0.0309,0.8948,70.56,-1328.06,204.83
10890,-3.8733,0.0308,0.8940,-38.82,-1468.75,470.46
10900,-3.8733,0.0309,0.8939,-54.44,-1562.50,736.08
10910,-3.8733,0.0308,0.8943,-38.82,-1578.12,798.58
10920,-3.8733,0.0304,0.8936,-54.44,-1531.25,704.83
10930,-3.8733,0.0312,0.8918,-101.32,-1625.00,361.08
10940,-3.8734,0.0331,0.8907,8.06,-1843.69,-217.04
10950,-3.8734,0.0354,0.8896,242.43,-1984.31,-857.67
10960,-3.8734,0.0380,0.8885,539.31,1875.06,-1326.42
10970,-3.8734,0.0398,0.8875,867.43,1734.44,-1435.79
10980,-3.8734,0.0396,0.8868,1101.81,1593.81,-1388.92
10990,-3.8734,0.0383,0.8864,1070.56,1515.69,-1373.29
11000,-3.8734,0.0377,0.8865,914.31,1453.19,-1342.04
11010,-3.8734,0.0376,0.8870,836.18,1468.81,-1217.04
11020,-3.8734,0.0383,0.8876,820.56,1531.31,-857.67
11030,-3.8734,0.0387,0.8887,914.31,1609.44,-295.17
11040,-3.8733,0.0371,0.8894,961.18,1750.06,236.08
11050,-3.8733,0.0334,0.8907,758.06,1843.81,611.08
11060,-3.8733,0.0291,0.8938,289.31,-1984.31,923.58
11070,-3.8733,0.0262,0.8972,-273.19,-1593.75,1173.58
11080,-3.8733,0.0261,0.8987,-632.57,-1156.25,1173.58
11090,-3.8733,0.0277,0.8987,-648.19,-968.75,798.58
11100,-3.8733,0.0300,0.8972,-445.07,-968.75,267.33
11110,-3.8734,0.0322,0.8949,-148.19,-1156.25,-279.54
11120,-3.8734,0.0333,0.8920,133.06,-1453.06,-873.29
11130,-3.8734,0.0332,0.8884,273.68,-1828.06,-1310.79
11140,-3.8734,0.0334,0.8854,258.06,1718.81,-1388.92
11150,-3.8734,0.0347,0.8833,289.31,1328.19,-1201.42
11160,-3.8734,0.0356,0.8827,445.56,1062.56,-873.29
11170,-3.8734,0.0359,0.8845,570.56,984.44,-451.42
11180,-3.8734,0.0355,0.8873,601.81,1218.81,-107.67
11190,-3.8733,0.0343,0.8892,554.93,1578.19,32.96
11200,-3.8733,0.0327,0.8901,398.68,1812.56,79.83
11210,-3.8733,0.0320,0.8909,195.56,1937.56,79.83
11220,-3.8734,0.0327,0.8922,101.81,-1968.69,-45.17
11230,-3.8734,0.0336,0.8945,195.56,-1796.81,-279.54
11240,-3.8734,0.0334,0.8965,304.93,-1499.94,-654.54
11250,-3.8734,0.0330,0.8966,289.31,-1249.94,-1029.54
11260,-3.8734,0.0328,0.8959,226.81,-1234.31,-1170.17
11270,-3.8734,0.0350,0.8950,211.18,-1328.06,-1060.79
11280,-3.8734,0.0381,0.8943,492.43,-1437.44,-701.42
11290,-3.8734,0.0397,0.8939,883.06,-1531.19,-248.29
11300,-3.8733,0.0387,0.8932,1086.18,-1578.06,220.46
11310,-3.8733,0.0355,0.8911,961.18,-1671.81,689.21
11320,-3.8733,0.0326,0.8894,554.93,-1937.44,1079.83
11330,-3.8733,0.0316,0.8889,179.93,1843.81,1126.71
11340,-3.8733,0.0321,0.8885,54.93,1781.31,861.08
11350,-3.8733,0.0320,0.8883,117.43,1734.44,470.46
11360,-3.8733,0.0303,0.8885,101.81,1703.19,48.58
11370,-3.8734,0.0275,0.8892,-116.94,1734.38,-451.42
11380,-3.8734,0.0256,0.8894,-476.32,1812.50,-1013.92
11390,-3.8734,0.0269,0.8889,-710.69,1843.75,-1498.29
11400,-3.8734,0.0300,0.8877,-554.44,1781.25,-1810.79
11410,-3.8734,0.0331,0.8868,-148.19,1625.00,-1904.54
11420,-3.8734,0.0354,0.8871,242.43,1515.69,-1810.79
11430,-3.8734,0.0369,0.8878,539.31,1546.94,-1498.29
11440,-3.8734,0.0378,0.8889,726.81,1640.69,-1060.79
11450,-3.8734,0.0385,0.8901,851.81,1781.31,-607.67
11460,-3.8734,0.0386,0.8911,929.93,1937.56,-76.42
11470,-3.8733,0.0386,0.8923,945.56,-1937.44,501.71
11480,-3.8733,0.0382,0.8940,945.56,-1781.19,970.46
11490,-3.8733,0.0366,0.8953,898.68,-1562.44,1282.96
11500,-3.8733,0.0336,0.8956,695.56,-1406.19,1314.21
11510,-3.8733,0.0306,0.8953,304.93,-1359.31,1079.83
11520,-3.8733,0.0292,0.8940,-70.07,-1406.25,736.08
11530,-3.8733,0.0291,0.8928,-257.57,-1562.50,345.46
11540,-3.8734,0.0295,0.8922,-273.19,-1718.75,-123.29
11550,-3.8734,0.0311,0.8915,-210.69,-1796.88,-592.04
11560,-3.8734,0.0331,0.8899,-7.57,-1890.62,-951.42
11570,-3.8734,0.0342,0.8873,242.43,1906.31,-1248.29
11580,-3.8734,0.0342,0.8853,383.06,1578.19,-1404.54
11590,-3.8734,0.0341,0.8838,383.06,1312.56,-1232.67
11600,-3.8734,0.0343,0.8831,367.43,1125.06,-967.04
11610,-3.8734,0.0345,0.8838,398.68,1031.31,-779.54
11620,-3.8734,0.0345,0.8861,429.93,1125.06,-513.92
11630,-3.8734,0.0344,0.8894,429.93,1421.94,-295.17
11640,-3.8734,0.0342,0.8928,414.31,1843.81,-138.92
11650,-3.8733,0.0342,0.8954,383.06,-1718.69,32.96
11660,-3.8733,0.0339,0.8960,383.06,-1390.56,220.46
11670,-3.8733,0.0330,0.8948,351.81,-1312.44,376.71
11680,-3.8733,0.0319,0.8938,226.81,-1468.69,439.21
11690,-3.8733,0.0311,0.8937,86.18,-1593.69,376.71
11700,-3.8733,0.0312,0.8937,-7.57,-1609.38,236.08
11710,-3.8733,0.0321,0.8931,8.06,-1609.31,64.21
11720,-3.8734,0.0337,0.8926,117.43,-1687.44,-92.04
11730,-3.8734,0.0354,0.8927,320.56,-1749.94,-232.67
11740,-3.8734,0.0366,0.8926,539.31,-1734.31,-326.42
11750,-3.8734,0.0374,0.8912,695.56,-1749.94,-435.79
11760,-3.8734,0.0370,0.8889,789.31,-1921.81,-607.67
11770,-3.8734,0.0364,0.8876,742.43,1781.31,-685.79
11780,-3.8734,0.0360,0.8878,664.31,1609.44,-732.67
11790,-3.8734,0.0354,0.8887,617.43,1640.69,-717.04
11800,-3.8734,0.0348,0.8893,539.31,1750.06,-592.04
11810,-3.8734,0.0345,0.8896,461.18,1828.19,-451.42
11820,-3.8734,0.0337,0.8900,429.93,1875.06,-326.42
11830,-3.8734,0.0325,0.8905,320.56,1921.94,-154.54
11840,-3.8734,0.0317,0.8911,164.31,1984.44,-76.42
11850,-3.8734,0.0316,0.8922,70.56,-1937.44,-76.42
11860,-3.8733,0.0317,0.8927,54.93,-1796.81,1.71
11870,-3.8733,0.0328,0.8921,70.56,-1734.31,79.83
11880,-3.8733,0.0338,0.8912,211.18,-1812.44,126.71
11890,-3.8733,0.0336,0.8911,336.18,-1921.81,17.33
11900,-3.8734,0.0337,0.8912,304.93,-1937.44,-185.79
11910,-3.8734,0.0342,0.8906,320.56,-1921.81,-295.17
11920,-3.8734,0.0343,0.8898,383.06,-1999.94,-263.92
11930,-3.8734,0.0341,0.8893,398.68,1890.69,-154.54
11940,-3.8734,0.0339,0.8887,367.43,1828.19,-92.04
11950,-3.8734,0.0339,0.8884,351.81,1750.06,-107.67
11960,-3.8734,0.0342,0.8885,351.81,1718.81,-154.54
11970,-3.8734,0.0348,0.8887,383.06,1734.44,-92.04
11980,-3.8734,0.0347,0.8888,461.18,1750.06,-76.42
11990,-3.8734,0.0336,0.8893,445.56,1765.69,-154.54
12000,-3.8734,0.0328,0.8898,304.93,1828.19,-248.29
12010,-3.8734,0.0327,0.8895,211.18,1890.69,-435.79
12020,-3.8734,0.0328,0.8890,195.56,1859.44,-638.92
12030,-3.8734,0.0327,0.8896,211.18,1796.94,-717.04
12040,-3.8734,0.0333,0.8914,195.56,1875.06,-607.67
12050,-3.8734,0.0342,0.8932,273.68,-1906.19,-420.17
12060,-3.8734,0.0338,0.8950,383.06,-1671.81,-217.04
12070,-3.8734,0.0325,0.8966,336.18,-1437.44,-29.54
12080,-3.8733,0.0317,0.8973,164.31,-1234.31,79.83
12090,-3.8733,0.0325,0.8977,70.56,-1140.56,64.21
12100,-3.8733,0.0331,0.8976,164.31,-1093.69,17.33
12110,-3.8733,0.0337,0.8966,242.43,-1109.31,111.08
12120,-3.8733,0.0352,0.8960,320.56,-1234.31,236.08
12130,-3.8733,0.0361,0.8950,508.06,-1312.44,282.96
12140,-3.8733,0.0355,0.8933,633.06,-1437.44,189.21
12150,-3.8734,0.0347,0.8914,554.93,-1656.19,-29.54
12160,-3.8734,0.0341,0.8887,445.56,-1906.19,-263.92
12170,-3.8734,0.0337,0.8857,367.43,1750.06,-435.79
12180,-3.8734,0.0341,0.8838,320.56,1375.06,-623.29
12190,-3.8734,0.0347,0.8829,367.43,1125.06,-701.42
12200,-3.8734,0.0348,0.8828,445.56,1015.69,-748.29
12210,-3.8734,0.0341,0.8834,461.18,1000.06,-748.29
12220,-3.8734,0.0326,0.8846,367.43,1078.19,-576.42
12230,-3.8734,0.0306,0.8871,179.93,1234.44,-357.67
12240,-3.8734,0.0293,0.8895,-70.07,1546.88,-248.29
12250,-3.8734,0.0287,0.8901,-241.94,1859.38,-232.67
12260,-3.8734,0.0282,0.8903,-320.07,1937.50,-232.67
12270,-3.8734,0.0281,0.8912,-382.57,1953.12,-170.17
12280,-3.8734,0.0288,0.8918,-398.19,-1921.88,-138.92
12290,-3.8734,0.0295,0.8917,-304.44,-1843.75,-154.54
12300,-3.8734,0.0288,0.8914,-210.69,-1859.38,-123.29
12310,-3.8734,0.0280,0.8915,-304.44,-1906.25,-29.54
12320,-3.8733,0.0284,0.8918,-413.82,-1890.62,17.33
12330,-3.8733,0.0300,0.8912,-351.32,-1843.75,48.58
12340,-3.8733,0.0320,0.8893,-148.19,-1921.88,1.71
12350,-3.8734,0.0345,0.8882,101.81,1828.19,-45.17
12360,-3.8734,0.0369,0.8882,429.93,1687.56,-107.67
12370,-3.8734,0.0372,0.8883,726.81,1687.56,-185.79
12380,-3.8734,0.0360,0.8887,773.68,1703.19,-217.04
12390,-3.8734,0.0350,0.8887,617.43,1750.06,-279.54
12400,-3.8734,0.0348,0.8887,492.43,1750.06,-326.42
12410,-3.8734,0.0347,0.8893,461.18,1750.06,-279.54
12420,-3.8734,0.0345,0.8904,445.56,1828.19,-217.04
12430,-3.8734,0.0349,0.8906,429.93,1968.81,-201.42
12440,-3.8734,0.0338,0.8909,476.81,-1999.94,-232.67
12450,-3.8734,0.0310,0.8916,336.18,-1968.69,-217.04
12460,-3.8734,0.0288,0.8921,-23.19,-1875.00,-185.79
12470,-3.8734,0.0266,0.8918,-304.44,-1812.50,-123.29
12480,-3.8733,0.0267,0.8926,-585.69,-1843.75,32.96
12490,-3.8733,0.0289,0.8932,-570.07,-1750.00,173.58
12500,-3.8733,0.0293,0.8916,-288.82,-1671.88,173.58
12510,-3.8733,0.0298,0.8907,-241.94,-1875.00,17.33
12520,-3.8734,0.0308,0.8911,-179.44,-1984.38,-92.04
12530,-3.8734,0.0315,0.8915,-54.44,-1937.50,-154.54
12540,-3.8734,0.0316,0.8914,39.31,-1890.56,-138.92
12550,-3.8734,0.0309,0.8900,54.93,-1906.19,-45.17
12560,-3.8734,0.0304,0.8885,-38.82,1921.88,-60.79
12570,-3.8734,0.0304,0.8879,-101.32,1734.38,-217.04
12580,-3.8734,0.0309,0.8878,-101.32,1656.25,-357.67
12590,-3.8734,0.0319,0.8885,-38.82,1640.62,-373.29
12600,-3.8734,0.0325,0.8893,86.18,1734.44,-373.29
12610,-3.8734,0.0322,0.8896,164.31,1828.19,-373.29
12620,-3.8734,0.0320,0.8903,133.06,1875.06,-373.29
12630,-3.8734,0.0320,0.8906,101.81,1953.19,-388.92
12640,-3.8734,0.0316,0.8909,101.81,-1999.94,-310.79
12650,-3.8734,0.0311,0.8914,54.93,-1968.69,-13.92
12660,-3.8733,0.0333,0.8921,-7.57,-1906.25,236.08
12670,-3.8733,0.0370,0.8916,273.68,-1812.44,173.58
12680,-3.8733,0.0387,0.8905,742.43,-1874.94,48.58
12690,-3.8733,0.0388,0.8910,961.18,1984.44,79.83
12700,-3.8733,0.0369,0.8922,976.81,-1953.06,111.08
12710,-3.8733,0.0337,0.8921,726.81,-1796.81,142.33
12720,-3.8733,0.0314,0.8920,320.56,-1812.44,111.08
12730,-3.8734,0.0306,0.8917,23.68,-1828.06,-60.79
12740,-3.8734,0.0306,0.8904,-70.07,-1859.38,-279.54
12750,-3.8734,0.0303,0.8882,-70.07,1968.75,-451.42
12760,-3.8734,0.0295,0.8861,-116.94,1687.50,-482.67
12770,-3.8734,0.0291,0.8859,-210.69,1421.88,-435.79
12780,-3.8734,0.0293,0.8867,-273.19,1390.62,-388.92
12790,-3.8734,0.0298,0.8885,-241.94,1500.00,-279.54
12800,-3.8734,0.0314,0.8909,-179.44,1734.38,-217.04
12810,-3.8734,0.0331,0.8920,23.68,-1968.69,-217.04
12820,-3.8734,0.0333,0.8915,242.43,-1828.06,-170.17
12830,-3.8734,0.0347,0.8911,273.68,-1890.56,-107.67
12840,-3.8734,0.0367,0.8912,445.56,-1937.44,-123.29
12850,-3.8734,0.0382,0.8909,711.18,-1921.81,-138.92
12860,-3.8734,0.0380,0.8896,898.68,-1968.69,-76.42
12870,-3.8733,0.0378,0.8882,867.43,1875.06,95.46
12880,-3.8733,0.0386,0.8884,851.81,1687.56,329.83
12890,-3.8733,0.0388,0.8890,945.56,1718.81,470.46
12900,-3.8733,0.0389,0.8883,976.81,1796.94,454.83
12910,-3.8733,0.0392,0.8875,992.43,1703.19,361.08
12920,-3.8733,0.0391,0.8876,1023.68,1593.81,126.71
12930,-3.8734,0.0387,0.8889,1008.06,1609.44,-217.04
12940,-3.8734,0.0388,0.8905,961.18,1781.31,-404.54
12950,-3.8734,0.0397,0.8911,976.81,1984.44,-232.67
12960,-3.8733,0.0403,0.8907,1086.18,-1937.44,111.08
12970,-3.8733,0.0397,0.8894,1164.31,-1984.31,314.21
12980,-3.8733,0.0385,0.8884,1086.18,1843.81,345.46
12990,-3.8733,0.0374,0.8881,929.93,1718.81,345.46
13000,-3.8733,0.0355,0.8883,789.31,1671.94,267.33
13010,-3.8733,0.0342,0.8888,554.93,1703.19,95.46
13020,-3.8733,0.0353,0.8900,383.06,1765.69,17.33
13030,-3.8734,0.0356,0.8917,523.68,1921.94,-13.92
13040,-3.8734,0.0337,0.8916,570.56,-1859.31,-13.92
13050,-3.8733,0.0322,0.8901,320.56,-1874.94,48.58
13060,-3.8733,0.0316,0.8887,133.06,1937.56,64.21
13070,-3.8733,0.0320,0.8873,54.93,1750.06,95.46
13080,-3.8733,0.0343,0.8864,101.81,1578.19,126.71
13090,-3.8733,0.0376,0.8859,398.68,1453.19,111.08
13100,-3.8733,0.0399,0.8854,820.56,1390.69,126.71
13110,-3.8733,0.0406,0.8851,1117.43,1328.19,173.58
13120,-3.8733,0.0404,0.8853,1211.18,1296.94,220.46
13130,-3.8733,0.0406,0.8865,1179.93,1312.56,345.46
13140,-3.8733,0.0417,0.8877,1211.18,1468.81,423.58
13150,-3.8733,0.0438,0.8884,1351.81,1625.06,298.58
13160,-3.8734,0.0457,0.8878,1617.43,1718.81,-13.92
13170,-3.8734,0.0453,0.8860,1851.81,1640.69,-232.67
13180,-3.8734,0.0421,0.8851,1804.93,1406.31,-279.54
13190,-3.8734,0.0380,0.8860,1398.68,1296.94,-107.67
13200,-3.8733,0.0349,0.8882,867.43,1406.31,236.08
13210,-3.8733,0.0344,0.8904,476.81,1687.56,532.96
13220,-3.8733,0.0361,0.8920,414.31,1968.81,736.08
13230,-3.8733,0.0380,0.8927,633.06,-1828.06,751.71
13240,-3.8733,0.0385,0.8923,867.43,-1734.31,626.71
13250,-3.8733,0.0385,0.8909,929.93,-1781.19,470.46
13260,-3.8733,0.0396,0.8896,929.93,-1968.69,329.83
13270,-3.8733,0.0397,0.8899,1070.56,1875.06,282.96
13280,-3.8733,0.0385,0.8899,1086.18,1906.31,361.08
13290,-3.8733,0.0378,0.8887,929.93,1906.31,486.08
13300,-3.8733,0.0391,0.8877,851.81,1750.06,470.46
13310,-3.8733,0.0416,0.8872,1008.06,1625.06,204.83
13320,-3.8734,0.0442,0.8867,1336.18,1562.56,-123.29
13330,-3.8734,0.0463,0.8864,1664.31,1500.06,-279.54
13340,-3.8734,0.0465,0.8860,1929.93,1453.19,-310.79
13350,-3.8734,0.0436,0.8856,1961.18,1406.31,-295.17
13360,-3.8734,0.0391,0.8862,1586.18,1359.44,-92.04
13370,-3.8733,0.0355,0.8873,1008.06,1437.56,267.33
13380,-3.8733,0.0348,0.8889,554.93,1578.19,517.33
13390,-3.8733,0.0354,0.8906,461.18,1781.31,611.08
13400,-3.8733,0.0364,0.8920,539.31,-1999.94,611.08
13410,-3.8733,0.0371,0.8927,664.31,-1828.06,532.96
13420,-3.8733,0.0366,0.8928,758.06,-1734.31,439.21
13430,-3.8733,0.0358,0.8920,695.56,-1718.69,407.96
13440,-3.8733,0.0355,0.8907,586.18,-1828.06,470.46
13450,-3.8733,0.0363,0.8890,554.93,-1984.31,548.58
13460,-3.8733,0.0375,0.8877,648.68,1796.94,564.21
13470,-3.8733,0.0402,0.8872,804.93,1625.06,454.83
13480,-3.8733,0.0435,0.8870,1148.68,1562.56,267.33
13490,-3.8734,0.0455,0.8870,1570.56,1531.31,-107.67
13500,-3.8734,0.0458,0.8870,1836.18,1531.31,-607.67
13510,-3.8734,0.0449,0.8856,1867.43,1531.31,-873.29
13520,-3.8734,0.0442,0.8835,1758.06,1359.44,-888.92
13530,-3.8734,0.0435,0.8828,1664.31,1093.81,-732.67
13540,-3.8734,0.0428,0.8842,1570.56,1000.06,-435.79
13550,-3.8734,0.0413,0.8875,1492.43,1171.94,-13.92
13560,-3.8733,0.0374,0.8910,1289.31,1593.81,454.83
13570,-3.8733,0.0325,0.8933,789.31,-1953.06,907.96
13580,-3.8733,0.0292,0.8960,164.31,-1656.19,1282.96
13590,-3.8733,0.0287,0.8994,-257.57,-1312.50,1532.96
13600,-3.8733,0.0299,0.9015,-320.07,-875.00,1657.96
13610,-3.8733,0.0328,0.9005,-163.82,-609.38,1532.96
13620,-3.8733,0.0370,0.8967,211.18,-734.31,1267.33
13630,-3.8733,0.0411,0.8922,742.43,-1218.69,892.33
13640,-3.8733,0.0448,0.8873,1273.68,-1796.81,282.96
13650,-3.8734,0.0477,0.8827,1742.43,1578.19,-295.17
13660,-3.8734,0.0499,0.8798,-1882.57,984.44,-857.67
13670,-3.8734,0.0505,0.8784,-1601.32,609.44,-1326.42
13680,-3.8734,0.0500,0.8779,-1523.19,437.56,-1513.92
13690,-3.8734,0.0491,0.8779,-1585.69,375.06,-1435.79
13700,-3.8734,0.0477,0.8785,-1710.69,375.06,-1279.54
13710,-3.8734,0.0461,0.8809,-1882.57,453.19,-1045.17
13720,-3.8734,0.0446,0.8844,1914.31,750.06,-592.04
13730,-3.8733,0.0419,0.8888,1711.18,1203.19,1.71
13740,-3.8733,0.0392,0.8928,1367.43,1765.69,517.33
13750,-3.8733,0.0374,0.8954,1023.68,-1718.69,845.46
13760,-3.8733,0.0353,0.8955,789.31,-1390.56,1001.71
13770,-3.8733,0.0334,0.8940,523.68,-1374.94,986.08
13780,-3.8733,0.0337,0.8929,289.31,-1562.44,954.83
13790,-3.8733,0.0350,0.8925,320.56,-1703.06,970.46
13800,-3.8733,0.0354,0.8926,492.43,-1765.56,939.21
13810,-3.8733,0.0348,0.8926,539.31,-1749.94,954.83
13820,-3.8733,0.0343,0.8923,461.18,-1749.94,970.46
13830,-3.8733,0.0345,0.8910,398.68,-1781.19,782.96
13840,-3.8733,0.0365,0.8889,429.93,-1953.06,423.58
13850,-3.8733,0.0387,0.8872,679.93,1781.31,17.33
13860,-3.8734,0.0398,0.8857,961.18,1562.56,-232.67
13870,-3.8734,0.0406,0.8848,1101.81,1375.06,-217.04
13880,-3.8734,0.0416,0.8844,1211.18,1250.06,-170.17
13890,-3.8734,0.0435,0.8839,1336.18,1203.19,-248.29
13900,-3.8734,0.0453,0.8833,1570.56,1140.69,-388.92
13910,-3.8734,0.0458,0.8833,1804.93,1062.56,-420.17
13920,-3.8734,0.0450,0.8838,1867.43,1062.56,-326.42
13930,-3.8734,0.0436,0.8848,1773.68,1125.06,-217.04
13940,-3.8734,0.0421,0.8856,1586.18,1250.06,-76.42
13950,-3.8734,0.0415,0.8873,1398.68,1359.44,-45.17
13960,-3.8734,0.0416,0.8900,1320.56,1578.19,-76.42
13970,-3.8733,0.0413,0.8922,1336.18,1921.94,32.96
13980,-3.8733,0.0405,0.8933,1289.31,-1796.81,189.21
13990,-3.8733,0.0399,0.8932,1195.56,-1656.19,392.33
14000,-3.8733,0.0393,0.8920,1117.43,-1671.81,564.21
14010,-3.8733,0.0387,0.8914,1039.31,-1828.06,595.46
14020,-3.8733,0.0380,0.8916,961.18,-1906.19,579.83
14030,-3.8733,0.0376,0.8916,867.43,-1874.94,611.08
14040,-3.8733,0.0386,0.8910,820.56,-1874.94,595.46
14050,-3.8733,0.0402,0.8900,945.56,-1953.06,423.58
14060,-3.8733,0.0422,0.8881,1148.68,1921.94,173.58
14070,-3.8734,0.0437,0.8865,1414.31,1671.94,-60.79
14080,-3.8734,0.0435,0.8855,1601.81,1468.81,-263.92
14090,-3.8734,0.0431,0.8844,1570.56,1343.81,-404.54
14100,-3.8734,0.0432,0.8842,1523.68,1203.19,-498.29
14110,-3.8734,0.0432,0.8848,1539.31,1171.94,-623.29
14120,-3.8734,0.0428,0.8853,1539.31,1250.06,-592.04
14130,-3.8734,0.0426,0.8864,1492.43,1312.56,-279.54
14140,-3.8733,0.0422,0.8877,1461.18,1453.19,142.33
14150,-3.8733,0.0414,0.8890,1414.31,1625.06,486.08
14160,-3.8733,0.0402,0.8912,1304.93,1796.94,673.58
14170,-3.8733,0.0387,0.8936,1148.68,-1921.81,720.46
14180,-3.8733,0.0365,0.8938,961.18,-1624.94,720.46
14190,-3.8733,0.0352,0.8932,679.93,-1593.69,720.46
14200,-3.8733,0.0355,0.8928,508.06,-1671.81,611.08
14210,-3.8733,0.0360,0.8917,554.93,-1718.69,439.21
14220,-3.8733,0.0363,0.8893,617.43,-1859.31,236.08
14230,-3.8733,0.0365,0.8865,648.68,1828.19,17.33
14240,-3.8734,0.0370,0.8848,679.93,1468.81,-76.42
14250,-3.8733,0.0378,0.8849,742.43,1250.06,17.33
14260,-3.8733,0.0398,0.8866,851.81,1265.69,142.33
14270,-3.8733,0.0417,0.8884,1101.81,1484.44,220.46
14280,-3.8733,0.0424,0.8889,1351.81,1718.81,173.58
14290,-3.8734,0.0422,0.8883,1429.93,1781.31,-29.54
14300,-3.8734,0.0433,0.8879,1414.31,1703.19,-232.67
14310,-3.8734,0.0444,0.8878,1554.93,1656.31,-342.04
14320,-3.8734,0.0444,0.8884,1695.56,1640.69,-279.54
14330,-3.8734,0.0443,0.8890,1695.56,1718.81,-201.42
14340,-3.8734,0.0448,0.8892,1679.93,1796.94,-154.54
14350,-3.8734,0.0442,0.8890,1742.43,1812.56,-13.92
14360,-3.8733,0.0432,0.8881,1664.31,1796.94,157.96
14370,-3.8733,0.0424,0.8875,1539.31,1671.94,282.96
14380,-3.8733,0.0416,0.8885,1429.93,1593.81,314.21
14390,-3.8733,0.0408,0.8905,1336.18,1734.44,282.96
14400,-3.8733,0.0389,0.8925,1226.81,1984.44,282.96
14410,-3.8733,0.0367,0.8938,992.43,-1765.56,407.96
14420,-3.8733,0.0353,0.8948,711.18,-1593.69,532.96
14430,-3.8733,0.0358,0.8958,523.68,-1468.69,564.21
14440,-3.8733,0.0374,0.8956,586.18,-1343.69,564.21
14450,-3.8733,0.0386,0.8938,789.31,-1359.31,626.71
14460,-3.8733,0.0396,0.8899,945.56,-1593.69,720.46
14470,-3.8733,0.0403,0.8860,1070.56,1906.31,704.83
14480,-3.8733,0.0405,0.8835,1164.31,1406.31,532.96
14490,-3.8733,0.0414,0.8826,1195.56,1093.81,298.58
14500,-3.8734,0.0428,0.8831,1304.93,968.81,-13.92
14510,-3.8734,0.0442,0.8840,1492.43,1031.31,-342.04
14520,-3.8734,0.0446,0.8849,1664.31,1156.31,-498.29
14530,-3.8734,0.0432,0.8853,1711.18,1265.69,-560.79
14540,-3.8734,0.0408,0.8851,1539.31,1312.56,-654.54
14550,-3.8734,0.0393,0.8856,1226.81,1296.94,-717.04
14560,-3.8734,0.0383,0.8872,1039.31,1359.44,-670.17
14570,-3.8734,0.0377,0.8896,914.31,1562.56,-451.42
14580,-3.8734,0.0371,0.8918,836.18,1875.06,-217.04
14590,-3.8733,0.0375,0.8933,758.06,-1843.69,1.71
14600,-3.8733,0.0387,0.8938,804.93,-1656.19,220.46
14610,-3.8733,0.0394,0.8936,961.18,-1593.69,407.96
14620,-3.8733,0.0393,0.8929,1054.93,-1624.94,626.71
14630,-3.8733,0.0388,0.8920,1039.31,-1703.06,767.33
14640,-3.8733,0.0383,0.8917,976.81,-1828.06,814.21
14650,-3.8733,0.0382,0.8920,914.31,-1859.31,829.83
14660,-3.8733,0.0391,0.8915,898.68,-1828.06,782.96
14670,-3.8733,0.0406,0.8900,1008.06,-1890.56,579.83
14680,-3.8733,0.0431,0.8882,1211.18,1921.94,251.71
14690,-3.8733,0.0454,0.8865,1523.68,1687.56,64.21
14700,-3.8733,0.0464,0.8850,1820.56,1468.81,1.71
14710,-3.8734,0.0463,0.8842,1945.56,1281.31,-45.17
14720,-3.8734,0.0455,0.8838,1929.93,1171.94,-123.29
14730,-3.8734,0.0441,0.8838,1836.18,1125.06,-185.79
14740,-3.8734,0.0427,0.8845,1648.68,1125.06,-123.29
14750,-3.8733,0.0411,0.8854,1476.81,1218.81,79.83
14760,-3.8733,0.0396,0.8862,1273.68,1328.19,236.08
14770,-3.8733,0.0380,0.8871,1070.56,1437.56,173.58
14780,-3.8733,0.0363,0.8879,867.43,1546.94,95.46
14790,-3.8733,0.0352,0.8892,648.68,1656.31,95.46
14800,-3.8733,0.0350,0.8907,508.06,1812.56,79.83
14810,-3.8733,0.0356,0.8917,492.43,-1984.31,142.33
14820,-3.8733,0.0367,0.8923,570.56,-1859.31,267.33
14830,-3.8733,0.0377,0.8926,711.18,-1781.19,423.58
14840,-3.8733,0.0381,0.8922,836.18,-1749.94,517.33
14850,-3.8733,0.0389,0.8917,883.06,-1796.81,532.96
14860,-3.8733,0.0403,0.8909,992.43,-1859.31,454.83
14870,-3.8733,0.0421,0.8895,1164.31,-1968.69,314.21
14880,-3.8733,0.0437,0.8882,1398.68,1859.44,189.21
14890,-3.8734,0.0444,0.8879,1601.81,1687.56,-29.54
14900,-3.8734,0.0454,0.8877,1695.56,1656.31,-248.29
14910,-3.8734,0.0464,0.8872,1820.56,1625.06,-248.29
14920,-3.8734,0.0460,0.8870,1945.56,1562.56,-123.29
14930,-3.8734,0.0448,0.8871,1898.68,1531.31,-45.17
14940,-3.8734,0.0438,0.8875,1742.43,1546.94,-29.54
14950,-3.8733,0.0428,0.8876,1617.43,1593.81,17.33
14960,-3.8733,0.0414,0.8882,1492.43,1609.44,64.21
14970,-3.8733,0.0400,0.8896,1304.93,1687.56,48.58
14980,-3.8733,0.0392,0.8904,1133.06,1875.06,204.83
14990,-3.8733,0.0388,0.8904,1023.68,1968.81,470.46
15000,-3.8733,0.0385,0.8903,976.81,1968.81,532.96
15010,-3.8733,0.0376,0.8894,929.93,1953.19,579.83
15020,-3.8733,0.0363,0.8885,820.56,1843.81,736.08
15030,-3.8733,0.0349,0.8882,648.68,1734.44,736.08
15040,-3.8733,0.0352,0.8881,476.81,1687.56,579.83
15050,-3.8733,0.0364,0.8878,508.06,1671.94,361.08
15060,-3.8733,0.0385,0.8868,664.31,1640.69,189.21
15070,-3.8733,0.0409,0.8851,929.93,1515.69,32.96
15080,-3.8734,0.0426,0.8839,1242.43,1296.94,-154.54
15090,-3.8734,0.0428,0.8833,1461.18,1140.69,-357.67
15100,-3.8734,0.0427,0.8837,1492.43,1062.56,-467.04
15110,-3.8734,0.0431,0.8849,1476.81,1109.44,-420.17
15120,-3.8734,0.0443,0.8870,1523.68,1265.69,-138.92
15130,-3.8733,0.0447,0.8898,1679.93,1531.31,173.58
15140,-3.8733,0.0436,0.8914,1726.81,1890.69,376.71
15150,-3.8733,0.0428,0.8917,1586.18,-1906.19,423.58
15160,-3.8733,0.0422,0.8917,1492.43,-1859.31,439.21
15170,-3.8733,0.0417,0.8917,1414.31,-1859.31,579.83
15180,-3.8733,0.0417,0.8917,1351.81,-1859.31,720.46
15190,-3.8733,0.0411,0.8914,1351.81,-1859.31,814.21
15200,-3.8733,0.0398,0.8905,1273.68,-1906.19,829.83
15210,-3.8733,0.0393,0.8892,1101.81,1984.44,611.08
15220,-3.8733,0.0403,0.8873,1039.31,1812.56,282.96
15230,-3.8733,0.0414,0.8854,1164.31,1578.19,32.96
15240,-3.8734,0.0419,0.8845,1304.93,1328.19,-170.17
15250,-3.8734,0.0416,0.8853,1367.43,1218.81,-388.92
15260,-3.8734,0.0415,0.8867,1336.18,1312.56,-545.17
15270,-3.8734,0.0413,0.8876,1320.56,1500.06,-467.04
15280,-3.8734,0.0411,0.8884,1289.31,1609.44,-279.54
15290,-3.8734,0.0410,0.8901,1273.68,1718.81,-123.29
15300,-3.8733,0.0415,0.8923,1258.06,1937.56,79.83
15310,-3.8733,0.0427,0.8937,1320.56,-1781.19,423.58
15320,-3.8733,0.0435,0.8933,1476.81,-1609.31,907.96
15330,-3.8733,0.0435,0.8926,1570.56,-1656.19,1454.83
15340,-3.8733,0.0428,0.8914,1570.56,-1749.94,1704.83
15350,-3.8733,0.0424,0.8892,1492.43,-1906.19,1454.83
15360,-3.8733,0.0428,0.8873,1429.93,1812.56,892.33
15370,-3.8733,0.0430,0.8860,1492.43,1578.19,220.46
15380,-3.8734,0.0416,0.8844,1508.06,1406.31,-373.29
15390,-3.8734,0.0402,0.8832,1336.18,1203.19,-842.04
15400,-3.8734,0.0382,0.8817,1148.68,1046.94,-1154.54
15410,-3.8734,0.0355,0.8807,898.68,859.44,-1295.17
15420,-3.8734,0.0341,0.8815,554.93,734.44,-1326.42
15430,-3.8734,0.0347,0.8834,367.43,828.19,-1201.42
15440,-3.8734,0.0371,0.8866,445.56,1078.19,-826.42
15450,-3.8734,0.0398,0.8892,758.06,1484.44,-373.29
15460,-3.8733,0.0415,0.8903,1101.81,1812.56,32.96
15470,-3.8733,0.0437,0.8907,1320.56,1953.19,548.58
15480,-3.8733,0.0464,0.8920,1601.81,-1984.31,939.21
15490,-3.8733,0.0472,0.8939,1945.56,-1828.06,939.21
15500,-3.8733,0.0463,0.8942,-1945.07,-1578.06,736.08
15510,-3.8733,0.0444,0.8932,1929.93,-1546.81,626.71
15520,-3.8733,0.0425,0.8927,1695.56,-1671.81,548.58
15530,-3.8733,0.0404,0.8927,1445.56,-1734.31,501.71
15540,-3.8733,0.0389,0.8926,1179.93,-1734.31,532.96
15550,-3.8733,0.0383,0.8918,992.43,-1749.94,548.58
15560,-3.8733,0.0388,0.8907,914.31,-1843.69,392.33
15570,-3.8733,0.0403,0.8896,976.81,-1984.31,95.46
15580,-3.8734,0.0410,0.8885,1164.31,1875.06,-201.42
15590,-3.8734,0.0398,0.8877,1258.06,1734.44,-326.42
15600,-3.8734,0.0376,0.8868,1101.81,1625.06,-232.67
15610,-3.8734,0.0360,0.8860,820.56,1515.69,-107.67
15620,-3.8734,0.0358,0.8855,617.43,1406.31,-29.54
15630,-3.8733,0.0360,0.8843,586.18,1343.81,1.71
15640,-3.8734,0.0350,0.8813,617.43,1187.56,-123.29
15650,-3.8734,0.0326,0.8783,492.43,812.56,-373.29
15660,-3.8734,0.0298,0.8767,179.93,421.94,-748.29
15670,-3.8734,0.0280,0.8779,-179.44,218.75,-1076.42
15680,-3.8734,0.0302,0.8817,-413.82,375.00,-1045.17
15690,-3.8734,0.0353,0.8864,-132.57,859.38,-810.79
15700,-3.8734,0.0380,0.8890,523.68,1453.19,-592.04
15710,-3.8734,0.0372,0.8899,867.43,1796.94,-295.17
15720,-3.8733,0.0370,0.8904,773.68,1906.31,32.96
15730,-3.8733,0.0405,0.8916,742.43,1968.81,423.58
15740,-3.8733,0.0453,0.8947,1195.56,-1874.94,782.96
15750,-3.8733,0.0472,0.8960,1804.93,-1484.31,939.21
15760,-3.8733,0.0491,0.8948,-1945.07,-1312.44,1079.83
15770,-3.8733,0.0513,0.8945,-1710.69,-1468.69,1267.33
15780,-3.8733,0.0515,0.8943,-1429.44,-1499.94,1173.58
15790,-3.8733,0.0513,0.8940,-1398.19,-1531.19,970.46
15800,-3.8733,0.0511,0.8945,-1429.44,-1562.44,767.33
15810,-3.8733,0.0490,0.8942,-1445.07,-1499.94,548.58
15820,-3.8733,0.0458,0.8917,-1726.32,-1546.81,267.33
15830,-3.8733,0.0441,0.8887,1867.43,-1859.31,1.71
15840,-3.8734,0.0431,0.8877,1648.68,1750.06,-185.79
15850,-3.8734,0.0413,0.8888,1523.68,1625.06,-404.54
15860,-3.8734,0.0369,0.8905,1289.31,1765.69,-451.42
15870,-3.8734,0.0319,0.8922,726.81,1984.44,-295.17
15880,-3.8734,0.0289,0.8932,86.18,-1796.81,-92.04
15890,-3.8733,0.0275,0.8926,-288.82,-1671.88,64.21
15900,-3.8733,0.0262,0.8915,-476.32,-1750.00,126.71
15910,-3.8733,0.0253,0.8915,-632.57,-1890.62,236.08
15920,-3.8733,0.0244,0.8920,-757.57,-1890.62,423.58
15930,-3.8733,0.0242,0.8926,-866.94,-1828.12,564.21
15940,-3.8733,0.0251,0.8936,-898.19,-1750.00,720.46
15950,-3.8733,0.0267,0.8940,-773.19,-1625.00,923.58
15960,-3.8733,0.0292,0.8933,-570.07,-1562.50,954.83
15970,-3.8733,0.0322,0.8918,-257.57,-1656.25,767.33
15980,-3.8733,0.0355,0.8903,133.06,-1843.69,532.96
15990,-3.8733,0.0377,0.8889,554.93,1953.19,329.83
16000,-3.8733,0.0386,0.8878,836.18,1781.31,157.96
16010,-3.8733,0.0392,0.8862,945.56,1640.69,79.83
16020,-3.8734,0.0397,0.8846,1023.68,1437.56,-45.17
16030,-3.8734,0.0403,0.8837,1086.18,1234.44,-170.17
16040,-3.8734,0.0410,0.8833,1164.31,1109.44,-232.67
16050,-3.8734,0.0411,0.8827,1258.06,1062.56,-295.17
16060,-3.8734,0.0403,0.8816,1273.68,984.44,-201.42
16070,-3.8733,0.0399,0.8812,1164.31,843.81,1.71
16080,-3.8733,0.0398,0.8824,1117.43,796.94,204.83
16090,-3.8733,0.0381,0.8850,1101.81,953.19,361.08
16100,-3.8733,0.0352,0.8873,883.06,1281.31,501.71
16110,-3.8733,0.0323,0.8894,508.06,1578.19,611.08
16120,-3.8733,0.0304,0.8911,148.68,1843.81,720.46
16130,-3.8733,0.0304,0.8926,-101.32,-1937.50,861.08
16140,-3.8733,0.0312,0.8932,-101.32,-1750.00,1032.96
16150,-3.8733,0.0310,0.8929,8.06,-1671.81,1111.08
16160,-3.8733,0.0302,0.8915,-23.19,-1703.12,1173.58
16170,-3.8733,0.0300,0.8899,-132.57,-1890.62,1298.58
16180,-3.8733,0.0309,0.8889,-148.19,1906.25,1314.21
16190,-3.8733,0.0320,0.8872,-38.82,1781.25,1236.08
16200,-3.8733,0.0334,0.8855,101.81,1562.56,1048.58
16210,-3.8733,0.0348,0.8834,289.31,1343.81,689.21
16220,-3.8733,0.0348,0.8816,461.18,1078.19,345.46
16230,-3.8733,0.0334,0.8810,461.18,843.81,79.83
16240,-3.8733,0.0323,0.8810,289.31,765.69,17.33
16250,-3.8733,0.0317,0.8811,148.68,765.69,126.71
16260,-3.8733,0.0319,0.8821,70.56,781.31,282.96
16270,-3.8733,0.0327,0.8845,86.18,906.31,423.58
16280,-3.8733,0.0342,0.8875,195.56,1218.81,501.71
16290,-3.8733,0.0355,0.8892,383.06,1593.81,548.58
16300,-3.8733,0.0361,0.8896,554.93,1812.56,579.83
16310,-3.8733,0.0361,0.8892,633.06,1875.06,564.21
16320,-3.8733,0.0367,0.8875,633.06,1812.56,579.83
16330,-3.8733,0.0382,0.8853,711.18,1593.81,595.46
16340,-3.8733,0.0382,0.8842,898.68,1312.56,673.58
16350,-3.8733,0.0358,0.8845,898.68,1171.94,861.08
16360,-3.8733,0.0321,0.8856,586.18,1218.81,1142.33
16370,-3.8733,0.0286,0.8860,117.43,1359.44,1439.21
16380,-3.8733,0.0264,0.8861,-335.69,1406.25,1579.83
16390,-3.8733,0.0251,0.8866,-616.94,1421.88,1611.08
16400,-3.8733,0.0244,0.8873,-773.19,1484.38,1579.83
16410,-3.8733,0.0240,0.8877,-866.94,1578.12,1470.46
16420,-3.8733,0.0237,0.8876,-913.82,1625.00,1407.96
16430,-3.8733,0.0249,0.8875,-960.69,1609.38,1361.08
16440,-3.8733,0.0275,0.8868,-804.44,1593.75,1189.21
16450,-3.8733,0.0311,0.8857,-476.32,1515.62,923.58
16460,-3.8733,0.0359,0.8842,-7.57,1375.00,564.21
16470,-3.8733,0.0404,0.8820,601.81,1171.94,142.33
16480,-3.8734,0.0438,0.8794,1179.93,890.69,-185.79
16490,-3.8734,0.0449,0.8776,1617.43,562.56,-388.92
16500,-3.8734,0.0452,0.8777,1758.06,328.19,-404.54
16510,-3.8734,0.0446,0.8785,1789.31,343.81,-76.42
16520,-3.8733,0.0425,0.8798,1711.18,453.19,548.58
16530,-3.8733,0.0405,0.8811,1445.56,609.44,1126.71
16540,-3.8733,0.0386,0.8831,1195.56,781.31,1517.33
16550,-3.8733,0.0361,0.8862,945.56,1031.31,1673.58
16560,-3.8733,0.0339,0.8901,633.06,1437.56,1861.08
16570,-3.8733,0.0320,0.8931,351.81,1937.56,1954.83
16580,-3.8733,0.0306,0.8940,101.81,-1687.44,1782.96
16590,-3.8733,0.0299,0.8940,-70.07,-1562.50,1486.08
16600,-3.8733,0.0293,0.8932,-163.82,-1562.50,1157.96
16610,-3.8733,0.0295,0.8906,-241.94,-1671.88,954.83
16620,-3.8733,0.0302,0.8873,-210.69,-2000.00,861.08
16630,-3.8733,0.0304,0.8856,-132.57,1578.12,782.96
16640,-3.8733,0.0305,0.8851,-101.32,1359.38,736.08
16650,-3.8733,0.0310,0.8840,-85.69,1296.88,673.58
16660,-3.8733,0.0319,0.8820,-23.19,1156.25,704.83
16670,-3.8733,0.0331,0.8806,86.18,890.69,814.21
16680,-3.8733,0.0352,0.8818,242.43,718.81,876.71
16690,-3.8733,0.0360,0.8840,508.06,875.06,876.71
16700,-3.8733,0.0349,0.8851,617.43,1156.31,876.71
16710,-3.8733,0.0343,0.8855,476.81,1296.94,970.46
16720,-3.8733,0.0350,0.8857,398.68,1343.81,954.83
16730,-3.8733,0.0364,0.8862,492.43,1375.06,798.58
16740,-3.8733,0.0387,0.8868,664.31,1437.56,782.96
16750,-3.8733,0.0398,0.8873,961.18,1515.69,892.33
16760,-3.8733,0.0391,0.8870,1101.81,1578.19,1001.71
16770,-3.8733,0.0380,0.8868,1008.06,1531.31,1204.83
16780,-3.8733,0.0370,0.8870,867.43,1515.69,1392.33
16790,-3.8733,0.0358,0.8871,742.43,1531.31,1376.71
16800,-3.8733,0.0347,0.8872,586.18,1546.94,1267.33
16810,-3.8733,0.0343,0.8860,445.56,1562.56,1157.96
16820,-3.8733,0.0336,0.8840,398.68,1406.31,1048.58
16830,-3.8733,0.0330,0.8832,304.93,1156.31,923.58
16840,-3.8733,0.0341,0.8838,226.81,1046.94,720.46
16850,-3.8733,0.0361,0.8853,367.43,1125.06,454.83
16860,-3.8733,0.0369,0.8878,633.06,1312.56,282.96
16870,-3.8733,0.0356,0.8892,726.81,1640.69,423.58
16880,-3.8733,0.0339,0.8892,570.56,1812.56,736.08
16890,-3.8733,0.0337,0.8892,351.81,1812.56,1032.96
16900,-3.8733,0.0349,0.8894,320.56,1812.56,1220.46
16910,-3.8733,0.0361,0.8892,476.81,1843.81,1282.96
16920,-3.8733,0.0370,0.8884,633.06,1812.56,1407.96
16930,-3.8733,0.0365,0.8876,742.43,1718.81,1736.08
16940,-3.8733,0.0358,0.8871,679.93,1609.44,1876.71
16950,-3.8733,0.0360,0.8867,586.18,1546.94,1751.71
16960,-3.8733,0.0363,0.8854,617.43,1500.06,1501.71
16970,-3.8733,0.0365,0.8839,648.68,1328.19,1111.08
16980,-3.8733,0.0369,0.8826,679.93,1140.69,657.96
16990,-3.8733,0.0360,0.8816,726.81,968.81,236.08
17000,-3.8733,0.0344,0.8809,617.43,843.81,64.21
17010,-3.8733,0.0337,0.8810,414.31,750.06,142.33
17020,-3.8733,0.0341,0.8818,320.56,765.69,314.21
17030,-3.8733,0.0350,0.8821,367.43,875.06,532.96
17040,-3.8733,0.0358,0.8823,492.43,906.31,704.83
17050,-3.8733,0.0364,0.8837,586.18,937.56,829.83
17060,-3.8733,0.0363,0.8861,664.31,1109.44,986.08
17070,-3.8733,0.0353,0.8882,648.68,1421.94,1204.83
17080,-3.8733,0.0353,0.8895,523.68,1687.56,1251.71
17090,-3.8733,0.0358,0.8901,523.68,1859.44,1157.96
17100,-3.8733,0.0355,0.8896,586.18,1937.56,1157.96
17110,-3.8733,0.0352,0.8888,554.93,1875.06,1173.58
17120,-3.8733,0.0345,0.8877,508.06,1765.69,1126.71
17130,-3.8733,0.0334,0.8867,429.93,1625.06,1157.96
17140,-3.8733,0.0323,0.8857,289.31,1500.06,1220.46
17150,-3.8733,0.0327,0.8854,148.68,1375.06,1204.83
17160,-3.8733,0.0344,0.8860,195.56,1328.19,1173.58
17170,-3.8733,0.0365,0.8868,414.31,1406.31,1189.21
17180,-3.8733,0.0382,0.8867,679.93,1515.69,1220.46
17190,-3.8733,0.0396,0.8859,898.68,1500.06,1142.33
17200,-3.8733,0.0405,0.8851,1070.56,1390.69,1064.21
17210,-3.8733,0.0399,0.8843,1195.56,1296.94,1048.58
17220,-3.8733,0.0388,0.8826,1117.43,1187.56,1017.33
17230,-3.8733,0.0391,0.8815,976.81,968.81,986.08
17240,-3.8733,0.0402,0.8813,1008.06,828.19,923.58
17250,-3.8733,0.0410,0.8815,1148.68,812.56,736.08
17260,-3.8733,0.0409,0.8826,1258.06,828.19,579.83
17270,-3.8733,0.0389,0.8844,1242.43,968.81,532.96
17280,-3.8733,0.0370,0.8859,992.43,1203.19,532.96
17290,-3.8733,0.0363,0.8866,742.43,1390.69,611.08
17300,-3.8733,0.0360,0.8867,648.68,1484.44,845.46
17310,-3.8733,0.0352,0.8866,617.43,1500.06,1111.08
17320,-3.8733,0.0344,0.8867,508.06,1484.44,1267.33
17330,-3.8733,0.0342,0.8868,414.31,1500.06,1392.33
17340,-3.8733,0.0338,0.8877,383.06,1515.69,1532.96
17350,-3.8733,0.0332,0.8889,336.18,1625.06,1626.71
17360,-3.8733,0.0333,0.8896,258.06,1781.31,1564.21
17370,-3.8733,0.0344,0.8898,273.68,1875.06,1376.71
17380,-3.8733,0.0363,0.8887,414.31,1890.69,1251.71
17390,-3.8733,0.0381,0.8864,648.68,1750.06,1204.83
17400,-3.8733,0.0389,0.8833,883.06,1453.19,1142.33
17410,-3.8733,0.0388,0.8813,992.43,1062.56,1064.21
17420,-3.8733,0.0374,0.8809,976.81,812.56,970.46
17430,-3.8733,0.0356,0.8817,789.31,750.06,907.96
17440,-3.8733,0.0358,0.8834,570.56,859.44,892.33
17450,-3.8733,0.0365,0.8845,586.18,1078.19,814.21
17460,-3.8733,0.0365,0.8849,679.93,1218.81,751.71
17470,-3.8733,0.0366,0.8850,679.93,1265.69,798.58
17480,-3.8733,0.0374,0.8854,695.56,1281.31,767.33
17490,-3.8733,0.0377,0.8857,789.31,1328.19,782.96
17500,-3.8733,0.0367,0.8854,836.18,1375.06,954.83
17510,-3.8733,0.0353,0.8849,711.18,1328.19,1204.83
17520,-3.8733,0.0348,0.8843,523.68,1265.69,1392.33
17530,-3.8733,0.0350,0.8843,461.18,1187.56,1486.08
17540,-3.8733,0.0355,0.8848,492.43,1187.56,1470.46
17550,-3.8733,0.0355,0.8860,554.93,1250.06,1392.33
17560,-3.8733,0.0349,0.8866,554.93,1406.31,1376.71
17570,-3.8733,0.0345,0.8860,476.81,1484.44,1407.96
17580,-3.8733,0.0352,0.8856,429.93,1406.31,1376.71
17590,-3.8733,0.0361,0.8854,508.06,1359.44,1282.96
17600,-3.8733,0.0372,0.8849,633.06,1328.19,1189.21
17610,-3.8733,0.0382,0.8845,773.68,1265.69,1079.83
17620,-3.8733,0.0380,0.8842,898.68,1218.81,986.08
17630,-3.8733,0.0369,0.8831,867.43,1171.94,892.33
17640,-3.8733,0.0363,0.8813,726.81,1031.31,814.21
17650,-3.8733,0.0364,0.8806,648.68,812.56,814.21
17660,-3.8733,0.0371,0.8816,664.31,718.81,907.96
17670,-3.8733,0.0378,0.8839,758.06,843.81,970.46
17680,-3.8733,0.0378,0.8867,851.81,1140.69,986.08
17690,-3.8733,0.0372,0.8888,851.81,1500.06,970.46
17700,-3.8733,0.0374,0.8901,773.68,1765.69,1032.96
17710,-3.8733,0.0386,0.8912,789.31,1937.56,1173.58
17720,-3.8733,0.0394,0.8916,945.56,-1921.81,1282.96
17730,-3.8733,0.0389,0.8904,1054.93,-1874.94,1548.58
17740,-3.8733,0.0378,0.8875,992.43,1968.81,1782.96
17750,-3.8733,0.0372,0.8843,851.81,1593.81,1939.21
17760,-3.8733,0.0367,0.8828,773.68,1187.56,-1888.92
17770,-3.8733,0.0370,0.8821,711.18,1000.06,-1998.29
17780,-3.8733,0.0370,0.8811,742.43,906.31,1579.83
17790,-3.8733,0.0355,0.8804,742.43,781.31,1048.58
17800,-3.8733,0.0339,0.8796,554.93,687.56,579.83
17810,-3.8733,0.0326,0.8795,351.81,593.81,361.08
17820,-3.8733,0.0315,0.8807,179.93,578.19,361.08
17830,-3.8733,0.0311,0.8820,39.31,734.44,423.58
17840,-3.8733,0.0325,0.8820,-7.57,890.62,454.83
17850,-3.8733,0.0343,0.8823,164.31,890.69,595.46
17860,-3.8733,0.0356,0.8840,398.68,937.56,876.71
17870,-3.8733,0.0358,0.8861,570.56,1156.31,1157.96
17880,-3.8733,0.0349,0.8876,586.18,1421.94,1361.08
17890,-3.8733,0.0349,0.8881,476.81,1609.44,1532.96
17900,-3.8733,0.0360,0.8882,476.81,1671.94,1751.71
17910,-3.8733,0.0374,0.8878,617.43,1687.56,1986.08
17920,-3.8733,0.0385,0.8871,789.31,1640.69,-1920.17
17930,-3.8733,0.0383,0.8859,929.93,1546.94,1986.08
17940,-3.8733,0.0371,0.8848,914.31,1390.69,1814.21
17950,-3.8733,0.0364,0.8848,758.06,1250.06,1642.33
17960,-3.8733,0.0361,0.8849,664.31,1250.06,1548.58
17970,-3.8733,0.0366,0.8844,633.06,1265.69,1439.21
17980,-3.8733,0.0377,0.8837,695.56,1203.19,1204.83
17990,-3.8733,0.0385,0.8826,836.18,1109.44,1032.96
18000,-3.8733,0.0382,0.8817,929.93,968.81,986.08
18010,-3.8733,0.0367,0.8815,898.68,859.44,939.21
18020,-3.8733,0.0348,0.8810,711.18,828.19,907.96
18030,-3.8733,0.0337,0.8802,461.18,765.69,1032.96
18040,-3.8733,0.0331,0.8812,320.56,671.94,1157.96
18050,-3.8733,0.0334,0.8833,242.43,796.94,1251.71
18060,-3.8733,0.0342,0.8849,289.31,1062.56,1314.21
18070,-3.8733,0.0347,0.8860,383.06,1265.69,1251.71
18080,-3.8733,0.0345,0.8860,445.56,1406.31,1157.96
18090,-3.8733,0.0347,0.8853,429.93,1406.31,1126.71
18100,-3.8733,0.0355,0.8846,445.56,1312.56,1126.71
18110,-3.8733,0.0360,0.8846,554.93,1234.44,1126.71
18120,-3.8733,0.0361,0.8846,617.43,1234.44,1126.71
18130,-3.8733,0.0366,0.8844,633.06,1234.44,1236.08
18140,-3.8733,0.0372,0.8844,695.56,1203.19,1439.21
18150,-3.8733,0.0374,0.8846,773.68,1203.19,1517.33
18160,-3.8733,0.0375,0.8853,789.31,1234.44,1532.96
18170,-3.8733,0.0376,0.8854,804.93,1312.56,1564.21
18180,-3.8733,0.0380,0.8850,820.56,1328.19,1595.46
18190,-3.8733,0.0380,0.8853,867.43,1281.31,1532.96
18200,-3.8733,0.0376,0.8856,867.43,1312.56,1298.58
18210,-3.8733,0.0375,0.8853,820.56,1359.44,1048.58
18220,-3.8733,0.0370,0.8844,804.93,1312.56,939.21
18230,-3.8733,0.0366,0.8837,742.43,1203.19,892.33
18240,-3.8733,0.0365,0.8828,695.56,1109.44,892.33
18250,-3.8733,0.0358,0.8827,679.93,1000.06,954.83
18260,-3.8733,0.0349,0.8831,586.18,984.44,986.08
18270,-3.8733,0.0344,0.8833,476.81,1031.31,1017.33
18280,-3.8733,0.0342,0.8840,414.31,1062.56,1173.58
18290,-3.8733,0.0347,0.8850,383.06,1156.31,1392.33
18300,-3.8733,0.0353,0.8857,445.56,1281.31,1501.71
18310,-3.8733,0.0358,0.8864,523.68,1375.06,1579.83
18320,-3.8733,0.0365,0.8864,586.18,1453.19,1611.08
18330,-3.8733,0.0365,0.8859,679.93,1453.19,1548.58
18340,-3.8733,0.0365,0.8855,679.93,1390.69,1579.83
18350,-3.8733,0.0374,0.8849,679.93,1343.81,1579.83
18360,-3.8733,0.0381,0.8833,789.31,1265.69,1454.83
18370,-3.8733,0.0377,0.8823,883.06,1062.56,1220.46
18380,-3.8733,0.0382,0.8824,836.18,937.56,1001.71
18390,-3.8733,0.0388,0.8831,898.68,953.19,892.33
18400,-3.8733,0.0381,0.8838,976.81,1031.31,892.33
18410,-3.8733,0.0378,0.8843,883.06,1125.06,970.46
18420,-3.8733,0.0375,0.8844,851.81,1187.56,1064.21
18430,-3.8733,0.0361,0.8848,804.93,1203.19,1204.83
18440,-3.8733,0.0349,0.8854,633.06,1250.06,1392.33
18450,-3.8733,0.0347,0.8856,476.81,1328.19,1595.46
18460,-3.8733,0.0349,0.8860,445.56,1359.44,1626.71
18470,-3.8733,0.0352,0.8865,476.81,1406.31,1564.21
18480,-3.8733,0.0356,0.8857,508.06,1468.81,1454.83
18490,-3.8733,0.0358,0.8837,570.56,1375.06,1361.08
18500,-3.8733,0.0358,0.8821,586.18,1109.44,1267.33
18510,-3.8733,0.0363,0.8821,586.18,906.31,1111.08
18520,-3.8733,0.0366,0.8832,648.68,906.31,1032.96
18530,-3.8733,0.0363,0.8849,695.56,1046.94,1064.21
18540,-3.8733,0.0353,0.8864,648.68,1265.69,1111.08
18550,-3.8733,0.0345,0.8875,523.68,1453.19,1157.96
18560,-3.8733,0.0361,0.8893,429.93,1593.81,1236.08
18570,-3.8733,0.0393,0.8905,633.06,1828.19,1439.21
18580,-3.8733,0.0411,0.8894,1039.31,1984.44,1845.46
18590,-3.8733,0.0406,0.8868,1273.68,1843.81,-1763.92
18600,-3.8733,0.0387,0.8842,1211.18,1515.69,-1623.29
18610,-3.8733,0.0367,0.8818,961.18,1171.94,-1748.29
18620,-3.8733,0.0360,0.8799,711.18,875.06,-1998.29
18630,-3.8733,0.0363,0.8787,617.43,625.06,1642.33
18640,-3.8733,0.0361,0.8782,648.68,468.81,1189.21
18650,-3.8733,0.0347,0.8782,633.06,406.31,829.83
18660,-3.8733,0.0322,0.8778,445.56,406.31,579.83
18670,-3.8733,0.0308,0.8779,133.06,359.44,439.21
18680,-3.8733,0.0309,0.8798,-54.44,375.00,392.33
18690,-3.8733,0.0315,0.8821,-38.82,609.38,376.71
18700,-3.8733,0.0327,0.8845,39.31,906.31,486.08
18710,-3.8733,0.0339,0.8864,195.56,1218.81,767.33
18720,-3.8733,0.0336,0.8870,351.81,1453.19,1032.96
18730,-3.8733,0.0325,0.8866,304.93,1531.31,1282.96
18740,-3.8733,0.0334,0.8861,164.31,1484.44,1595.46
18750,-3.8733,0.0363,0.8864,289.31,1421.94,1861.08
18760,-3.8733,0.0393,0.8873,648.68,1453.19,1923.58
18770,-3.8733,0.0408,0.8885,1039.31,1578.19,1923.58
18780,-3.8733,0.0406,0.8885,1226.81,1734.44,1907.96
18790,-3.8733,0.0404,0.8873,1211.18,1734.44,1923.58
18800,-3.8733,0.0403,0.8856,1179.93,1578.19,-1935.79
18810,-3.8733,0.0409,0.8835,1164.31,1359.44,-1857.67
18820,-3.8733,0.0419,0.8816,1242.43,1093.81,1954.83
18830,-3.8733,0.0417,0.8805,1367.43,843.81,1595.46
18840,-3.8733,0.0409,0.8804,1351.81,703.19,1236.08
18850,-3.8733,0.0391,0.8805,1242.43,687.56,939.21
18860,-3.8733,0.0367,0.8804,1008.06,703.19,829.83
18870,-3.8733,0.0353,0.8805,711.18,687.56,861.08
18880,-3.8733,0.0343,0.8812,523.68,703.19,954.83
18890,-3.8733,0.0331,0.8818,398.68,796.94,1048.58
18900,-3.8733,0.0321,0.8820,242.43,875.06,1064.21
18910,-3.8733,0.0317,0.8828,117.43,890.69,1001.71
18920,-3.8733,0.0315,0.8842,70.56,1000.06,1001.71
18930,-3.8733,0.0319,0.8850,39.31,1171.94,1095.46
18940,-3.8733,0.0325,0.8854,86.18,1281.31,1267.33
18950,-3.8733,0.0336,0.8859,164.31,1328.19,1486.08
18960,-3.8733,0.0354,0.8866,304.93,1390.69,1642.33
18970,-3.8733,0.0361,0.8872,539.31,1484.44,1657.96
18980,-3.8733,0.0367,0.8876,633.06,1562.56,1595.46
18990,-3.8733,0.0378,0.8875,711.18,1609.44,1517.33
19000,-3.8733,0.0380,0.8868,851.81,1593.81,1501.71
19010,-3.8733,0.0382,0.8862,867.43,1515.69,1548.58
19020,-3.8733,0.0393,0.8855,898.68,1437.56,1548.58
19030,-3.8733,0.0402,0.8848,1039.31,1343.81,1501.71
19040,-3.8733,0.0408,0.8849,1148.68,1250.06,1439.21
19050,-3.8733,0.0410,0.8853,1226.81,1265.69,1376.71
19060,-3.8733,0.0405,0.8850,1258.06,1312.56,1345.46
19070,-3.8733,0.0397,0.8840,1195.56,1281.31,1267.33
19080,-3.8733,0.0383,0.8829,1086.18,1156.31,1142.33
19090,-3.8733,0.0363,0.8827,914.31,1015.69,970.46
19100,-3.8733,0.0347,0.8833,648.68,984.44,892.33
19110,-3.8733,0.0339,0.8840,445.56,1062.56,1048.58
19120,-3.8733,0.0339,0.8844,351.81,1156.31,1236.08
19130,-3.8733,0.0344,0.8856,351.81,1203.19,1439.21
19140,-3.8733,0.0348,0.8864,414.31,1359.44,1595.46
19150,-3.8733,0.0347,0.8857,461.18,1453.19,1564.21
19160,-3.8733,0.0345,0.8856,445.56,1375.06,1470.46
19170,-3.8733,0.0345,0.8860,429.93,1359.44,1454.83
19180,-3.8733,0.0345,0.8859,429.93,1406.31,1517.33
19190,-3.8733,0.0347,0.8851,429.93,1390.69,1486.08
19200,-3.8733,0.0352,0.8844,445.56,1296.94,1423.58
19210,-3.8733,0.0359,0.8843,508.06,1203.19,1439.21
19220,-3.8733,0.0364,0.8844,601.81,1187.56,1407.96
19230,-3.8733,0.0369,0.8848,664.31,1203.19,1361.08
19240,-3.8733,0.0382,0.8853,726.81,1250.06,1345.46
19250,-3.8733,0.0391,0.8851,898.68,1312.56,1314.21
19260,-3.8733,0.0386,0.8848,1008.06,1296.94,1220.46
19270,-3.8733,0.0376,0.8850,945.56,1250.06,1236.08
19280,-3.8733,0.0365,0.8848,820.56,1281.31,1329.83
19290,-3.8733,0.0360,0.8845,679.93,1250.06,1329.83
19300,-3.8733,0.0361,0.8846,617.43,1218.81,1329.83
19310,-3.8733,0.0358,0.8850,633.06,1234.44,1407.96
19320,-3.8733,0.0347,0.8848,586.18,1281.31,1439.21
19330,-3.8733,0.0341,0.8832,445.56,1250.06,1423.58
19340,-3.8733,0.0344,0.8816,367.43,1046.94,1361.08
19350,-3.8733,0.0341,0.8817,414.31,843.81,1267.33
19360,-3.8733,0.0338,0.8833,367.43,859.44,1204.83
19370,-3.8733,0.0345,0.8851,336.18,1062.56,1173.58
19380,-3.8733,0.0347,0.8870,429.93,1296.94,1189.21
19390,-3.8733,0.0332,0.8876,445.56,1531.31,1251.71
19400,-3.8733,0.0319,0.8866,258.06,1609.44,1329.83
19410,-3.8733,0.0321,0.8864,86.18,1484.44,1376.71
19420,-3.8733,0.0336,0.8866,117.43,1453.19,1329.83
19430,-3.8733,0.0361,0.8864,304.93,1484.44,1470.46
19440,-3.8733,0.0372,0.8856,633.06,1453.19,1720.46
19450,-3.8733,0.0361,0.8846,773.68,1359.44,1907.96
19460,-3.8733,0.0354,0.8838,633.06,1234.44,1986.08
19470,-3.8733,0.0365,0.8827,539.31,1125.06,1876.71
19480,-3.8733,0.0383,0.8818,679.93,984.44,1720.46
19490,-3.8733,0.0381,0.8812,914.31,875.06,1517.33
19500,-3.8733,0.0359,0.8809,883.06,796.94,1204.83
19510,-3.8733,0.0336,0.8809,601.81,750.06,892.33
19520,-3.8733,0.0317,0.8811,304.93,750.06,657.96
19530,-3.8733,0.0317,0.8816,70.56,781.31,532.96
19540,-3.8733,0.0326,0.8827,70.56,843.81,642.33
19550,-3.8733,0.0331,0.8843,179.93,984.44,892.33
19560,-3.8733,0.0328,0.8862,242.43,1187.56,1236.08
19570,-3.8733,0.0317,0.8876,211.18,1437.56,1611.08
19580,-3.8733,0.0308,0.8877,70.56,1609.44,1798.58
19590,-3.8733,0.0306,0.8872,-54.44,1625.00,1845.46
19600,-3.8733,0.0315,0.8865,-70.07,1562.50,1923.58
19610,-3.8733,0.0322,0.8859,39.31,1468.81,1939.21
19620,-3.8733,0.0320,0.8851,133.06,1390.69,1736.08
19630,-3.8733,0.0314,0.8840,101.81,1296.94,1532.96
19640,-3.8733,0.0305,0.8828,23.68,1156.31,1454.83
19650,-3.8733,0.0305,0.8818,-85.69,1000.00,1439.21
19660,-3.8733,0.0321,0.8815,-85.69,875.00,1470.46
19670,-3.8733,0.0343,0.8820,117.43,828.19,1486.08
19680,-3.8733,0.0363,0.8828,398.68,890.69,1439.21
19690,-3.8733,0.0377,0.8828,648.68,1000.06,1314.21
19700,-3.8733,0.0380,0.8820,836.18,1000.06,1314.21
19710,-3.8733,0.0363,0.8816,867.43,890.69,1376.71
19720,-3.8733,0.0348,0.8823,648.68,843.81,1486.08
19730,-3.8733,0.0337,0.8838,461.18,937.56,1689.21
19740,-3.8733,0.0327,0.8850,320.56,1125.06,1798.58
19750,-3.8733,0.0319,0.8851,195.56,1281.31,1923.58
19760,-3.8733,0.0306,0.8853,86.18,1296.94,-1982.67
19770,-3.8733,0.0305,0.8855,-70.07,1312.50,1923.58
19780,-3.8733,0.0308,0.8851,-85.69,1343.75,1736.08
19790,-3.8733,0.0312,0.8839,-54.44,1296.88,1532.96
19800,-3.8733,0.0321,0.8822,8.06,1140.69,1251.71
19810,-3.8733,0.0322,0.8811,117.43,921.94,1111.08
19820,-3.8733,0.0320,0.8810,133.06,781.31,1111.08
19830,-3.8733,0.0327,0.8811,101.81,765.69,1079.83
19840,-3.8733,0.0344,0.8815,195.56,781.31,1157.96
19850,-3.8733,0.0359,0.8815,414.31,828.19,1298.58
19860,-3.8733,0.0366,0.8812,601.81,828.19,1329.83
19870,-3.8733,0.0365,0.8811,695.56,796.94,1220.46
19880,-3.8733,0.0358,0.8818,679.93,781.31,1220.46
19890,-3.8733,0.0348,0.8833,586.18,875.06,1439.21
19900,-3.8733,0.0344,0.8844,461.18,1062.56,1704.83
19910,-3.8733,0.0342,0.8846,414.31,1203.19,1798.58
19920,-3.8733,0.0339,0.8844,383.06,1234.44,1782.96
19930,-3.8733,0.0337,0.8840,351.81,1203.19,1689.21
19940,-3.8733,0.0333,0.8845,320.56,1156.31,1611.08
19950,-3.8733,0.0332,0.8848,273.68,1218.81,1626.71
19960,-3.8733,0.0334,0.8843,258.06,1250.06,1689.21
19970,-3.8733,0.0337,0.8842,289.31,1187.56,1673.58
19980,-3.8733,0.0339,0.8842,320.56,1171.94,1548.58
19990,-3.8733,0.0337,0.8844,351.81,1171.94,1454.83
20000,-3.8733,0.0332,0.8845,320.56,1203.19,1486.08
20010,-3.8733,0.0327,0.8843,258.06,1218.81,1626.71
20020,-3.8733,0.0321,0.8840,195.56,1187.56,1689.21
20030,-3.8733,0.0320,0.8834,117.43,1156.31,1720.46
20040,-3.8733,0.0323,0.8827,101.81,1078.19,1673.58
20050,-3.8733,0.0325,0.8820,148.68,984.44,1423.58
20060,-3.8733,0.0327,0.8810,164.31,890.69,1126.71
20070,-3.8733,0.0341,0.8806,195.56,765.69,1001.71
20080,-3.8733,0.0356,0.8813,367.43,718.81,986.08
20090,-3.8733,0.0355,0.8833,570.56,812.56,970.46
20100,-3.8733,0.0337,0.8850,554.93,1062.56,923.58
20110,-3.8733,0.0323,0.8862,320.56,1281.31,1032.96
20120,-3.8733,0.0332,0.8881,148.68,1437.56,1298.58
20130,-3.8733,0.0345,0.8898,258.06,1671.94,1595.46
20140,-3.8733,0.0348,0.8895,429.93,1890.69,1767.33
20150,-3.8733,0.0349,0.8879,461.18,1859.44,1939.21
20160,-3.8733,0.0352,0.8864,476.81,1656.31,-1873.29
20170,-3.8733,0.0352,0.8853,508.06,1453.19,-1810.79
20180,-3.8733,0.0356,0.8843,508.06,1312.56,-1904.54
20190,-3.8733,0.0364,0.8826,570.56,1187.56,1782.96
20200,-3.8733,0.0367,0.8806,664.31,968.81,1361.08
20210,-3.8733,0.0360,0.8799,711.18,718.81,1079.83
20220,-3.8733,0.0344,0.8796,617.43,625.06,892.33
20230,-3.8733,0.0336,0.8795,414.31,593.81,720.46
20240,-3.8733,0.0327,0.8796,304.93,578.19,673.58
20250,-3.8733,0.0321,0.8800,195.56,593.81,720.46
20260,-3.8733,0.0323,0.8812,117.43,640.69,845.46
20270,-3.8733,0.0327,0.8834,148.68,796.94,1032.96
20280,-3.8733,0.0327,0.8855,195.56,1078.19,1282.96
20290,-3.8733,0.0322,0.8870,195.56,1343.81,1486.08
20300,-3.8733,0.0316,0.8877,133.06,1531.31,1595.46
20310,-3.8733,0.0319,0.8878,54.93,1625.06,1782.96
20320,-3.8733,0.0327,0.8882,86.18,1640.69,1954.83
20330,-3.8733,0.0332,0.8889,195.56,1687.56,1939.21
20340,-3.8733,0.0342,0.8883,258.06,1781.31,1861.08
20350,-3.8733,0.0359,0.8866,383.06,1703.19,1782.96
20360,-3.8733,0.0372,0.8851,601.81,1484.44,1751.71
20370,-3.8733,0.0376,0.8845,773.68,1296.94,1736.08
20380,-3.8733,0.0376,0.8848,820.56,1218.81,1673.58
20390,-3.8733,0.0380,0.8845,820.56,1250.06,1657.96
20400,-3.8733,0.0386,0.8839,867.43,1218.81,1611.08
20410,-3.8733,0.0394,0.8835,945.56,1140.69,1611.08
20420,-3.8733,0.0402,0.8834,1054.93,1093.81,1626.71
20430,-3.8733,0.0405,0.8831,1148.68,1078.19,1517.33
20440,-3.8733,0.0400,0.8817,1195.56,1031.31,1376.71
20450,-3.8733,0.0381,0.8810,1133.06,859.44,1251.71
20460,-3.8733,0.0363,0.8810,883.06,765.69,1173.58
20470,-3.8733,0.0349,0.8812,648.68,765.69,1157.96
20480,-3.8733,0.0337,0.8822,476.81,796.94,1173.58
20490,-3.8733,0.0325,0.8838,320.56,921.94,1220.46
20500,-3.8733,0.0312,0.8855,164.31,1125.06,1267.33
20510,-3.8733,0.0302,0.8862,8.06,1343.81,1282.96
20520,-3.8733,0.0295,0.8861,-132.57,1437.50,1361.08
20530,-3.8733,0.0302,0.8865,-210.69,1421.88,1454.83
20540,-3.8733,0.0316,0.8873,-132.57,1468.75,1564.21
20550,-3.8733,0.0333,0.8877,54.93,1578.19,1673.58
20560,-3.8733,0.0352,0.8870,273.68,1625.06,1642.33
20570,-3.8733,0.0369,0.8856,508.06,1531.31,1532.96
20580,-3.8733,0.0386,0.8844,726.81,1359.44,1439.21
20590,-3.8733,0.0409,0.8833,945.56,1203.19,1439.21
20600,-3.8733,0.0428,0.8820,1242.43,1062.56,1439.21
20610,-3.8733,0.0433,0.8809,1492.43,890.69,1314.21
20620,-3.8733,0.0427,0.8810,1554.93,750.06,1189.21
20630,-3.8733,0.0411,0.8820,1476.81,765.69,1236.08
20640,-3.8733,0.0393,0.8826,1273.68,890.69,1392.33
20650,-3.8733,0.0376,0.8828,1039.31,968.81,1486.08
20660,-3.8733,0.0354,0.8839,820.56,1000.06,1392.33
20670,-3.8733,0.0336,0.8850,539.31,1140.69,1298.58
20680,-3.8733,0.0332,0.8861,304.93,1281.31,1376.71
20690,-3.8733,0.0337,0.8868,258.06,1421.94,1439.21
20700,-3.8733,0.0339,0.8860,320.56,1515.69,1345.46
20710,-3.8733,0.0339,0.8848,351.81,1406.31,1236.08
20720,-3.8733,0.0343,0.8842,351.81,1250.06,1236.08
20730,-3.8733,0.0347,0.8837,398.68,1171.94,1314.21
20740,-3.8733,0.0354,0.8833,445.56,1109.44,1439.21
20750,-3.8733,0.0360,0.8832,539.31,1062.56,1564.21
20760,-3.8733,0.0365,0.8833,617.43,1046.94,1626.71
20770,-3.8733,0.0366,0.8832,679.93,1062.56,1611.08
20780,-3.8733,0.0367,0.8829,695.56,1046.94,1564.21
20790,-3.8733,0.0366,0.8834,711.18,1015.69,1486.08
20800,-3.8733,0.0363,0.8839,695.56,1078.19,1407.96
20810,-3.8733,0.0355,0.8832,648.68,1140.69,1329.83
20820,-3.8733,0.0347,0.8816,554.93,1046.94,1345.46
20830,-3.8733,0.0352,0.8811,445.56,843.81,1423.58
20840,-3.8733,0.0360,0.8824,508.06,781.31,1392.33
20850,-3.8733,0.0358,0.8842,617.43,953.19,1329.83
20860,-3.8733,0.0343,0.8848,586.18,1171.94,1298.58
20870,-3.8733,0.0334,0.8853,398.68,1250.06,1236.08
20880,-3.8733,0.0344,0.8867,289.31,1312.56,1142.33
20890,-3.8733,0.0361,0.8884,414.31,1500.06,1095.46
20900,-3.8733,0.0378,0.8890,633.06,1718.81,1407.96
20910,-3.8733,0.0386,0.8879,851.81,1796.94,1970.46
20920,-3.8733,0.0376,0.8857,945.56,1656.31,-1529.54
20930,-3.8733,0.0367,0.8832,820.56,1375.06,-1310.79
20940,-3.8733,0.0374,0.8821,711.18,1046.94,-1467.04
20950,-3.8733,0.0391,0.8816,789.31,906.31,-1826.42
20960,-3.8733,0.0402,0.8805,1008.06,843.81,1689.21
20970,-3.8733,0.0400,0.8799,1148.68,703.19,1204.83
20980,-3.8733,0.0385,0.8798,1133.06,625.06,798.58
20990,-3.8733,0.0365,0.8794,929.93,609.44,470.46
21000,-3.8733,0.0352,0.8793,679.93,562.56,345.46
21010,-3.8733,0.0349,0.8799,508.06,546.94,392.33
21020,-3.8733,0.0355,0.8810,476.81,625.06,564.21
21030,-3.8733,0.0359,0.8823,554.93,765.69,814.21
21040,-3.8733,0.0354,0.8838,601.81,937.56,1157.96
21050,-3.8733,0.0349,0.8860,539.31,1125.06,1595.46
21060,-3.8733,0.0347,0.8878,476.81,1406.31,-1982.67
21070,-3.8733,0.0337,0.8889,445.56,1640.69,-1732.67
21080,-3.8733,0.0322,0.8885,320.56,1781.31,-1545.17
21090,-3.8733,0.0314,0.8875,133.06,1734.44,-1373.29
21100,-3.8733,0.0321,0.8871,23.68,1593.81,-1357.67
21110,-3.8733,0.0339,0.8870,117.43,1546.94,-1607.67
21120,-3.8733,0.0349,0.8861,351.81,1531.31,-1982.67
21130,-3.8733,0.0354,0.8848,476.81,1421.94,1689.21
21140,-3.8733,0.0364,0.8828,539.31,1250.06,1407.96
21150,-3.8733,0.0378,0.8802,664.31,1000.06,1173.58
21160,-3.8733,0.0400,0.8787,851.81,671.94,892.33
21170,-3.8733,0.0417,0.8781,1133.06,468.81,626.71
21180,-3.8733,0.0419,0.8773,1351.81,390.69,548.58
21190,-3.8733,0.0415,0.8771,1367.43,296.94,689.21
21200,-3.8733,0.0413,0.8782,1320.56,265.69,954.83
21210,-3.8733,0.0410,0.8800,1289.31,406.31,1314.21
21220,-3.8733,0.0403,0.8820,1258.06,640.69,1548.58
21230,-3.8733,0.0383,0.8831,1164.31,890.69,1642.33
21240,-3.8733,0.0361,0.8835,914.31,1031.31,1767.33
21250,-3.8733,0.0338,0.8844,633.06,1093.81,1923.58
21260,-3.8733,0.0316,0.8856,336.18,1203.19,-1888.92
21270,-3.8733,0.0305,0.8872,54.93,1359.44,-1732.67
21280,-3.8733,0.0294,0.8884,-85.69,1562.50,-1732.67
21290,-3.8733,0.0283,0.8884,-226.32,1718.75,-1826.42
21300,-3.8733,0.0288,0.8875,-366.94,1718.75,-1904.54
21310,-3.8733,0.0314,0.8859,-304.44,1593.75,1923.58
21320,-3.8733,0.0342,0.8837,23.68,1390.69,1657.96
21330,-3.8733,0.0365,0.8817,383.06,1109.44,1392.33
21340,-3.8733,0.0378,0.8809,679.93,859.44,1189.21
21350,-3.8733,0.0388,0.8810,851.81,750.06,1111.08
21360,-3.8733,0.0396,0.8807,976.81,765.69,1126.71
21370,-3.8733,0.0408,0.8801,1070.56,734.44,1126.71
21380,-3.8733,0.0420,0.8802,1226.81,656.31,1111.08
21390,-3.8733,0.0422,0.8813,1383.06,671.94,1189.21
21400,-3.8733,0.0416,0.8826,1414.31,812.56,1282.96
21410,-3.8733,0.0405,0.8839,1336.18,968.81,1298.58
21420,-3.8733,0.0402,0.8850,1195.56,1140.69,1220.46
21430,-3.8733,0.0406,0.8854,1148.68,1281.31,1157.96
21440,-3.8733,0.0405,0.8850,1211.18,1328.19,1111.08
21450,-3.8733,0.0393,0.8844,1195.56,1281.31,1048.58
21460,-3.8733,0.0377,0.8840,1039.31,1203.19,1189.21
21470,-3.8733,0.0360,0.8839,836.18,1156.31,1517.33
21480,-3.8733,0.0344,0.8842,617.43,1140.69,1782.96
21490,-3.8733,0.0334,0.8843,414.31,1171.94,1954.83
21500,-3.8733,0.0331,0.8844,289.31,1187.56,-1967.04
21510,-3.8733,0.0333,0.8856,242.43,1203.19,-1951.42
21520,-3.8733,0.0336,0.8861,273.68,1359.44,-1982.67
21530,-3.8733,0.0334,0.8851,304.93,1421.94,1861.08
21540,-3.8733,0.0326,0.8838,289.31,1296.94,1626.71
21550,-3.8733,0.0316,0.8826,179.93,1125.06,1267.33
21560,-3.8733,0.0321,0.8822,54.93,968.81,1048.58
21570,-3.8733,0.0342,0.8824,117.43,921.94,1157.96
21580,-3.8733,0.0363,0.8816,383.06,953.19,1314.21
21590,-3.8733,0.0376,0.8809,648.68,843.81,1298.58
21600,-3.8733,0.0381,0.8816,820.56,750.06,1236.08
21610,-3.8733,0.0375,0.8824,883.06,843.81,1236.08
21620,-3.8733,0.0366,0.8822,804.93,953.19,1361.08
21630,-3.8733,0.0367,0.8813,695.56,921.94,1501.71
21640,-3.8733,0.0381,0.8817,711.18,812.56,1470.46
21650,-3.8733,0.0397,0.8839,883.06,859.44,1376.71
21660,-3.8733,0.0406,0.8867,1086.18,1140.69,1376.71
21670,-3.8733,0.0402,0.8888,1211.18,1500.06,1423.58
21680,-3.8733,0.0380,0.8900,1148.68,1765.69,1454.83
21690,-3.8733,0.0356,0.8907,867.43,1921.94,1626.71
21700,-3.8733,0.0355,0.8915,570.56,-1984.31,1970.46
21710,-3.8733,0.0378,0.8912,554.93,-1890.56,-1763.92
21720,-3.8733,0.0399,0.8890,851.81,-1921.81,-1654.54
21730,-3.8733,0.0396,0.8861,1117.43,1796.94,-1685.79
21740,-3.8733,0.0391,0.8832,1070.56,1421.94,-1795.17
21750,-3.8733,0.0396,0.8802,1008.06,1046.94,1970.46
21760,-3.8733,0.0394,0.8779,1070.56,671.94,1626.71
21770,-3.8733,0.0382,0.8768,1054.93,375.06,1220.46
21780,-3.8733,0.0360,0.8762,898.68,234.44,814.21
21790,-3.8733,0.0333,0.8766,617.43,156.31,486.08
21800,-3.8733,0.0312,0.8777,273.68,203.19,423.58
21810,-3.8733,0.0305,0.8794,8.06,343.81,657.96
21820,-3.8733,0.0312,0.8817,-85.69,562.50,1001.71
21830,-3.8733,0.0330,0.8842,8.06,859.44,1314.21
21840,-3.8733,0.0341,0.8859,226.81,1171.94,1579.83
21850,-3.8733,0.0341,0.8871,367.43,1390.69,1751.71
21860,-3.8733,0.0342,0.8876,367.43,1546.94,1876.71
21870,-3.8733,0.0348,0.8876,383.06,1609.44,1970.46
21880,-3.8733,0.0363,0.8870,461.18,1609.44,-1951.42
21890,-3.8733,0.0378,0.8856,648.68,1531.31,-1935.79
21900,-3.8733,0.0381,0.8844,851.81,1359.44,-1951.42
21910,-3.8733,0.0375,0.8840,883.06,1203.19,-1998.29
21920,-3.8733,0.0370,0.8842,804.93,1156.31,1939.21
21930,-3.8733,0.0366,0.8842,742.43,1171.94,1907.96
21940,-3.8733,0.0371,0.8833,695.56,1171.94,1767.33
21950,-3.8733,0.0382,0.8812,758.06,1062.56,1548.58
21960,-3.8733,0.0394,0.8798,898.68,796.94,1298.58
21970,-3.8733,0.0402,0.8798,1054.93,609.44,1111.08
21980,-3.8733,0.0399,0.8796,1148.68,609.44,1048.58
21990,-3.8733,0.0383,0.8800,1117.43,593.81,1157.96
22000,-3.8733,0.0366,0.8812,914.31,640.69,1407.96
22010,-3.8733,0.0352,0.8826,695.56,796.94,1751.71
22020,-3.8733,0.0349,0.8837,508.06,968.81,1939.21
22030,-3.8733,0.0349,0.8839,476.81,1109.44,1845.46
22040,-3.8733,0.0345,0.8837,476.81,1140.69,1673.58
22050,-3.8733,0.0342,0.8838,429.93,1109.44,1595.46
22060,-3.8733,0.0336,0.8846,383.06,1125.06,1595.46
22070,-3.8733,0.0332,0.8859,304.93,1234.44,1689.21
22080,-3.8733,0.0328,0.8865,258.06,1390.69,1861.08
22090,-3.8733,0.0332,0.8861,211.18,1468.81,1876.71
22100,-3.8733,0.0347,0.8851,258.06,1421.94,1704.83
22110,-3.8733,0.0358,0.8838,445.56,1296.94,1548.58
22120,-3.8733,0.0370,0.8831,586.18,1125.06,1579.83
22130,-3.8733,0.0386,0.8823,742.43,1031.31,1673.58
22140,-3.8733,0.0402,0.8822,945.56,937.56,1704.83
22150,-3.8733,0.0416,0.8829,1148.68,921.94,1751.71
22160,-3.8733,0.0422,0.8827,1336.18,1015.69,1767.33
22170,-3.8733,0.0419,0.8826,1414.31,984.44,1689.21
22180,-3.8733,0.0409,0.8829,1367.43,968.81,1673.58
22190,-3.8733,0.0398,0.8835,1242.43,1015.69,1657.96
22200,-3.8733,0.0389,0.8838,1101.81,1093.81,1579.83
22210,-3.8733,0.0381,0.8832,992.43,1125.06,1486.08
22220,-3.8733,0.0375,0.8826,883.06,1046.94,1392.33
22230,-3.8733,0.0369,0.8823,804.93,968.81,1376.71
22240,-3.8733,0.0359,0.8828,726.81,937.56,1423.58
22250,-3.8733,0.0347,0.8833,601.81,1000.06,1501.71
22260,-3.8733,0.0334,0.8831,445.56,1062.56,1517.33
22270,-3.8733,0.0327,0.8831,289.31,1031.31,1626.71
22280,-3.8733,0.0326,0.8829,195.56,1031.31,1782.96
22290,-3.8733,0.0325,0.8833,179.93,1015.69,1829.83
22300,-3.8733,0.0326,0.8843,164.31,1062.56,1907.96
22310,-3.8733,0.0328,0.8848,179.93,1187.56,1939.21
22320,-3.8733,0.0332,0.8845,211.18,1250.06,1892.33
22330,-3.8733,0.0347,0.8842,258.06,1218.81,1798.58
22340,-3.8733,0.0360,0.8839,445.56,1171.94,1548.58
22350,-3.8733,0.0360,0.8834,617.43,1140.69,1454.83
22360,-3.8733,0.0359,0.8824,617.43,1078.19,1626.71
22370,-3.8733,0.0356,0.8822,601.81,953.19,1767.33
22380,-3.8733,0.0352,0.8824,570.56,921.94,1798.58
22390,-3.8733,0.0354,0.8826,508.06,953.19,1751.71
22400,-3.8733,0.0367,0.8824,539.31,968.81,1689.21
22410,-3.8733,0.0369,0.8823,711.18,953.19,1657.96
22420,-3.8733,0.0354,0.8817,726.81,937.56,1611.08
22430,-3.8733,0.0342,0.8812,539.31,859.44,1579.83
22440,-3.8733,0.0338,0.8815,383.06,796.94,1611.08
22450,-3.8733,0.0343,0.8827,336.18,828.19,1736.08
22460,-3.8733,0.0352,0.8840,398.68,984.44,1798.58
22470,-3.8733,0.0348,0.8849,508.06,1156.31,1798.58
22480,-3.8733,0.0336,0.8855,461.18,1265.69,1782.96
22490,-3.8733,0.0327,0.8857,304.93,1343.81,1689.21
22500,-3.8733,0.0327,0.8866,195.56,1375.06,1642.33
22510,-3.8733,0.0341,0.8871,195.56,1484.44,1657.96
22520,-3.8733,0.0360,0.8867,367.43,1546.94,1829.83
22530,-3.8733,0.0371,0.8853,617.43,1500.06,-1935.79
22540,-3.8733,0.0364,0.8827,758.06,1312.56,-1763.92
22550,-3.8733,0.0345,0.8801,664.31,984.44,-1623.29
22560,-3.8733,0.0339,0.8784,429.93,656.31,-1685.79
22570,-3.8733,0.0354,0.8779,351.81,437.56,1986.08
22580,-3.8733,0.0371,0.8785,539.31,375.06,1611.08
22590,-3.8733,0.0367,0.8795,758.06,453.19,1376.71
22600,-3.8733,0.0350,0.8809,711.18,578.19,1204.83
22610,-3.8733,0.0332,0.8817,492.43,750.06,1157.96
22620,-3.8733,0.0321,0.8818,258.06,859.44,1220.46
22630,-3.8733,0.0333,0.8824,117.43,875.06,1282.96
22640,-3.8733,0.0355,0.8832,273.68,953.19,1501.71
22650,-3.8733,0.0360,0.8838,554.93,1046.94,1782.96
22660,-3.8733,0.0347,0.8845,617.43,1125.06,1845.46
22670,-3.8733,0.0330,0.8849,445.56,1218.81,1986.08
22680,-3.8733,0.0325,0.8853,226.81,1265.69,-1748.29
22690,-3.8733,0.0330,0.8855,164.31,1312.56,-1638.92
22700,-3.8733,0.0342,0.8850,226.81,1343.81,-1685.79
22710,-3.8733,0.0350,0.8838,383.06,1281.31,-1795.17
22720,-3.8733,0.0345,0.8828,492.43,1125.06,1986.08
22730,-3.8733,0.0331,0.8822,429.93,1000.06,1642.33
22740,-3.8733,0.0314,0.8817,242.43,921.94,1376.71
22750,-3.8733,0.0312,0.8813,23.68,859.44,1376.71
22760,-3.8733,0.0321,0.8813,8.06,812.56,1454.83
22770,-3.8733,0.0332,0.8809,117.43,812.56,1439.21
22780,-3.8733,0.0347,0.8802,258.06,750.06,1501.71
22790,-3.8733,0.0349,0.8804,445.56,671.94,1689.21
22800,-3.8733,0.0338,0.8810,476.81,687.56,1939.21
22810,-3.8733,0.0333,0.8823,336.18,765.69,-1810.79
22820,-3.8733,0.0338,0.8835,273.68,937.56,-1717.04
22830,-3.8733,0.0341,0.8843,336.18,1093.81,-1795.17
22840,-3.8733,0.0339,0.8843,367.43,1187.56,-1904.54
22850,-3.8733,0.0328,0.8824,351.81,1187.56,1939.21
22860,-3.8733,0.0297,0.8806,211.18,953.19,1579.83
22870,-3.8733,0.0261,0.8802,-195.07,718.75,1173.58
22880,-3.8733,0.0258,0.8796,-648.19,671.88,970.46
22890,-3.8733,0.0291,0.8798,-695.07,593.75,986.08
22900,-3.8733,0.0331,0.8813,-273.19,609.38,1204.83
22910,-3.8733,0.0344,0.8832,242.43,812.56,1564.21
22920,-3.8733,0.0339,0.8844,414.31,1046.94,1829.83
22930,-3.8733,0.0344,0.8849,351.81,1203.19,-1982.67
22940,-3.8733,0.0372,0.8853,414.31,1265.69,-1842.04
22950,-3.8733,0.0413,0.8854,773.68,1312.56,-1763.92
22960,-3.8733,0.0438,0.8845,1289.31,1328.19,-1779.54
22970,-3.8733,0.0439,0.8835,1617.43,1218.81,-1763.92
22980,-3.8733,0.0426,0.8828,1633.06,1093.81,-1763.92
22990,-3.8733,0.0406,0.8818,1461.18,1000.06,-1763.92
23000,-3.8733,0.0391,0.8815,1211.18,875.06,-1857.67
23010,-3.8733,0.0383,0.8813,1008.06,828.19,1954.83
23020,-3.8733,0.0383,0.8818,914.31,812.56,1782.96
23030,-3.8733,0.0380,0.8824,914.31,875.06,1642.33
23040,-3.8733,0.0363,0.8821,867.43,953.19,1501.71
23050,-3.8733,0.0344,0.8813,648.68,906.31,1423.58
23060,-3.8733,0.0332,0.8807,414.31,812.56,1532.96
23070,-3.8733,0.0323,0.8807,258.06,734.44,1611.08
23080,-3.8733,0.0321,0.8818,148.68,734.44,1720.46
23090,-3.8733,0.0321,0.8828,117.43,875.06,1861.08
23100,-3.8733,0.0319,0.8832,117.43,1000.06,1939.21
23110,-3.8733,0.0317,0.8832,86.18,1046.94,1923.58
23120,-3.8733,0.0315,0.8821,70.56,1046.94,1798.58
23130,-3.8733,0.0317,0.8801,39.31,906.31,1767.33
23140,-3.8733,0.0332,0.8798,70.56,656.31,1767.33
23150,-3.8733,0.0347,0.8811,258.06,609.44,1798.58
23160,-3.8733,0.0356,0.8828,445.56,781.31,1892.33
23170,-3.8733,0.0369,0.8844,570.56,1000.06,1876.71
23180,-3.8733,0.0374,0.8853,726.81,1203.19,1767.33
23190,-3.8733,0.0375,0.8860,789.31,1312.56,1736.08
23200,-3.8733,0.0378,0.8865,804.93,1406.31,1861.08
23210,-3.8733,0.0381,0.8865,851.81,1468.81,-1920.17
23220,-3.8733,0.0381,0.8860,883.06,1468.81,-1810.79
23230,-3.8733,0.0386,0.8849,883.06,1406.31,-1732.67
23240,-3.8733,0.0393,0.8834,945.56,1265.69,-1545.17
23250,-3.8733,0.0402,0.8823,1039.31,1078.19,-1467.04
23260,-3.8733,0.0408,0.8810,1148.68,937.56,-1717.04
23270,-3.8733,0.0398,0.8796,1226.81,765.69,1798.58
23280,-3.8733,0.0370,0.8790,1101.81,593.81,1470.46
23290,-3.8733,0.0345,0.8790,742.43,515.69,1329.83
23300,-3.8733,0.0337,0.8793,429.93,515.69,1204.83
23310,-3.8733,0.0337,0.8800,320.56,546.94,1173.58
23320,-3.8733,0.0337,0.8804,320.56,640.69,1236.08
23330,-3.8733,0.0341,0.8806,320.56,687.56,1361.08
23340,-3.8733,0.0342,0.8817,367.43,718.81,1486.08
23350,-3.8733,0.0336,0.8832,383.06,859.44,1704.83
23360,-3.8733,0.0326,0.8846,304.93,1046.94,1939.21
23370,-3.8733,0.0333,0.8855,179.93,1234.44,-1935.79
23380,-3.8733,0.0356,0.8856,273.68,1343.81,-1873.29
23390,-3.8733,0.0382,0.8853,570.56,1359.44,-1795.17
23400,-3.8733,0.0399,0.8848,898.68,1312.56,-1732.67
23410,-3.8733,0.0400,0.8842,1117.43,1250.06,-1795.17
23420,-3.8733,0.0391,0.8834,1133.06,1171.94,-1873.29
23430,-3.8733,0.0378,0.8832,1008.06,1078.19,-1873.29
23440,-3.8733,0.0378,0.8833,851.81,1046.94,-1951.42
23450,-3.8733,0.0389,0.8834,851.81,1062.56,1954.83
23460,-3.8733,0.0403,0.8832,992.43,1078.19,1923.58
23470,-3.8733,0.0411,0.8818,1164.31,1046.94,1845.46
23480,-3.8733,0.0416,0.8805,1273.68,875.06,1704.83
23490,-3.8733,0.0414,0.8801,1336.18,703.19,1626.71
23500,-3.8733,0.0402,0.8804,1304.93,656.31,1704.83
23510,-3.8733,0.0385,0.8801,1148.68,687.56,1892.33
23520,-3.8733,0.0374,0.8800,929.93,656.31,1923.58
23530,-3.8733,0.0376,0.8801,789.31,640.69,1751.71
23540,-3.8733,0.0374,0.8804,820.56,656.31,1751.71
23550,-3.8733,0.0359,0.8810,789.31,687.56,1814.21
23560,-3.8733,0.0339,0.8820,601.81,765.69,1720.46
23570,-3.8733,0.0327,0.8837,351.81,890.69,1548.58
23580,-3.8733,0.0327,0.8849,195.56,1109.44,1470.46
23590,-3.8733,0.0332,0.8849,195.56,1265.69,1486.08
23600,-3.8733,0.0336,0.8840,258.06,1265.69,1532.96
23610,-3.8733,0.0338,0.8835,304.93,1156.31,1673.58
23620,-3.8733,0.0347,0.8834,336.18,1093.81,1829.83
23630,-3.8733,0.0361,0.8839,445.56,1078.19,1939.21
23640,-3.8733,0.0377,0.8851,633.06,1140.69,-1888.92
23650,-3.8733,0.0389,0.8851,836.18,1296.94,-1748.29
23660,-3.8733,0.0398,0.8844,992.43,1296.94,-1717.04
23670,-3.8733,0.0405,0.8838,1101.81,1203.19,-1826.42
23680,-3.8733,0.0415,0.8833,1195.56,1125.06,-1998.29
