timestamp_ms,ax,ay,az,gx,gy,gz
0,-3.8717,0.2124,-0.0869,1539.31,-1780.82,-1390.81
10,-3.8717,0.2107,-0.0878,-804.44,875.37,-1547.06
20,-3.8717,0.2212,-0.0840,-1023.19,765.99,-1265.81
30,-3.8717,0.2285,-0.0803,320.56,1250.43,-234.56
40,-3.8716,0.2236,-0.0757,1258.06,1719.18,1359.19
50,-3.8716,0.2092,-0.0676,633.06,-1687.07,-1000.18
60,-3.8715,0.1913,-0.0559,-1210.69,-655.88,343.57
70,-3.8715,0.1792,-0.0378,492.43,844.12,1609.25
80,-3.8715,0.1802,-0.0144,-1054.44,-843.44,-687.62
90,-3.8713,0.1901,0.0072,-929.44,-1843.44,1578.06
100,-3.8713,0.2045,0.0187,336.18,922.24,-515.62
110,-3.8713,0.2225,0.0165,-1820.07,-1609.01,-171.88
120,-3.8713,0.2373,0.0066,492.43,-1890.20,-1421.88
130,-3.8713,0.2412,-0.0035,-1616.94,844.18,1078.12
140,-3.8713,0.2327,-0.0099,-1116.94,-452.70,671.81
150,-3.8713,0.2179,-0.0002,1789.31,-1265.20,1249.94
160,-3.8713,0.2076,0.0378,-101.32,-30.88,-1890.69
170,-3.8713,0.2139,0.0837,-1413.82,844.12,-749.94
180,-3.8712,0.2472,0.1096,-616.94,-1280.88,1015.75
190,-3.8712,0.2981,0.1118,-351.32,-1968.32,-1015.44
200,-3.8711,0.3429,0.0986,-1835.69,-1686.95,437.68
210,-3.8711,0.3663,0.0812,-101.32,625.61,953.31
220,-3.8711,0.3660,0.0692,-1101.32,-1608.70,609.50
230,-3.8712,0.3508,0.0686,-1148.19,860.05,-265.50
240,-3.8712,0.3353,0.0756,914.31,781.92,-1171.75
250,-3.8712,0.3251,0.0880,-1070.07,1672.49,-1781.13
260,-3.8712,0.3165,0.1042,1617.43,-733.76,-1953.00
270,-3.8712,0.3063,0.1198,523.68,1344.36,-1281.07
280,-3.8712,0.2958,0.1307,-788.82,-671.33,-218.57
290,-3.8711,0.2932,0.1295,1867.43,734.92,453.37
300,-3.8711,0.3048,0.1169,1539.31,578.67,750.24
310,-3.8711,0.3229,0.1066,-976.32,-1030.70,406.43
320,-3.8712,0.3398,0.1102,1336.18,1641.24,-562.32
330,-3.8712,0.3549,0.1233,-491.94,-1890.01,-1656.07
340,-3.8712,0.3629,0.1300,1429.93,-218.08,1343.93
350,-3.8712,0.3547,0.1255,-1538.82,641.30,672.12
360,-3.8712,0.3306,0.1160,1414.31,63.17,187.74
370,-3.8713,0.3048,0.1107,-1679.44,-1155.64,-202.94
380,-3.8712,0.2893,0.1151,-976.32,-1827.58,156.43
390,-3.8712,0.2867,0.1306,1039.31,-1265.08,1500.18
400,-3.8712,0.2987,0.1543,711.18,719.30,-515.38
410,-3.8711,0.3221,0.1765,-1757.57,-249.45,-1984.13
420,-3.8710,0.3468,0.1888,1242.43,-1405.64,1156.56
430,-3.8708,0.3617,0.1891,398.68,172.55,390.99
440,-3.8708,0.3527,0.1808,-1695.07,203.80,-1171.51
450,-3.8707,0.3177,0.1724,1148.68,-858.70,328.43
460,-3.8707,0.2753,0.1725,679.93,-1936.89,1437.81
470,-3.8707,0.2472,0.1914,-757.57,-1921.39,-1280.94
480,-3.8707,0.2430,0.2349,-351.32,500.43,-562.13
490,-3.8707,0.2611,0.2921,-882.57,-1937.07,-593.32
500,-3.8707,0.2935,0.3429,1429.93,1391.11,-155.70
510,-3.8706,0.3304,0.3694,1570.56,-108.83,672.49
520,-3.8706,0.3700,0.3658,-1695.07,-718.14,235.05
530,-3.8707,0.4163,0.3406,-632.57,-1171.20,610.05
540,-3.8710,0.4708,0.3085,1289.31,-405.46,-1468.14
550,-3.8711,0.5231,0.2832,273.68,-514.71,984.92
560,-3.8712,0.5525,0.2760,-1038.82,250.98,1953.67
570,-3.8712,0.5432,0.2910,-1273.19,-670.84,1734.86
580,-3.8712,0.4954,0.3243,1539.31,1251.04,-140.08
590,-3.8711,0.4241,0.3663,-585.69,1516.54,-952.51
600,-3.8710,0.3546,0.3977,-1710.69,-1108.58,-1905.58
610,-3.8708,0.3074,0.4009,1398.68,-1093.08,235.11
620,-3.8708,0.2889,0.3777,-648.19,-686.95,860.11
630,-3.8708,0.2926,0.3441,992.43,344.30,31.98
640,-3.8710,0.3076,0.3156,1461.18,47.42,-1389.95
650,-3.8710,0.3269,0.3014,-616.94,391.17,1625.61
660,-3.8710,0.3413,0.3015,1851.81,-1421.26,797.42
670,-3.8711,0.3439,0.3090,-304.44,-1405.64,-61.95
680,-3.8711,0.3311,0.3168,23.68,-452.45,-671.33
690,-3.8711,0.3059,0.3236,-1616.94,547.49,-811.89
700,-3.8711,0.2809,0.3262,-835.69,1422.42,-436.89
710,-3.8710,0.2664,0.3197,-38.82,1750.49,94.36
720,-3.8710,0.2635,0.3064,-1898.19,922.36,344.36
730,-3.8710,0.2717,0.2924,1742.43,-780.76,156.80
740,-3.8711,0.2858,0.2838,-1210.69,1422.36,-265.08
750,-3.8711,0.2968,0.2845,586.18,328.67,-546.33
760,-3.8711,0.3013,0.2938,1992.43,422.42,-499.45
770,-3.8710,0.2972,0.3141,-1429.44,1609.92,422.42
780,-3.8710,0.2831,0.3485,-1945.07,203.67,-1265.01
790,-3.8708,0.2649,0.3873,242.43,609.92,-1764.95
800,-3.8707,0.2537,0.4148,1914.31,1578.61,-1796.14
810,-3.8706,0.2549,0.4232,476.81,1094.24,-1936.71
820,-3.8705,0.2657,0.4171,633.06,-1827.64,969.54
830,-3.8705,0.2793,0.4047,-1976.32,1391.11,1407.04
840,-3.8706,0.2910,0.3927,-241.94,-202.64,-108.64
850,-3.8706,0.2930,0.3872,1258.06,-1733.83,-1639.89
860,-3.8706,0.2733,0.3909,1508.06,1563.05,1719.48
870,-3.8706,0.2345,0.4050,-1007.57,-1968.26,-1702.39
880,-3.8705,0.1877,0.4241,-1976.32,-155.82,203.86
890,-3.8705,0.1436,0.4338,39.31,-1718.38,-1342.96
900,-3.8704,0.1123,0.4288,-1616.94,-468.51,547.67
910,-3.8704,0.0967,0.4158,-1616.94,-1109.19,1360.17
920,-3.8704,0.0923,0.3993,383.06,1218.93,703.92
930,-3.8705,0.0881,0.3810,-179.44,-890.50,-1530.52
940,-3.8706,0.0743,0.3651,-710.69,765.75,-483.64
950,-3.8706,0.0511,0.3508,1523.68,-1265.50,875.67
960,-3.8707,0.0248,0.3337,-1445.07,906.31,-1030.58
970,-3.8707,-0.0009,0.3167,-820.07,-1281.25,1531.86
980,-3.8707,-0.0219,0.3046,-101.32,546.81,63.11
990,-3.8708,-0.0325,0.2947,1211.18,-1000.06,-1233.83
1000,-3.8708,-0.0348,0.2823,-148.19,1734.25,1750.55
1010,-3.8708,-0.0365,0.2678,-445.07,156.13,859.92
1020,-3.8710,-0.0381,0.2535,-663.82,-1703.25,-155.76
1030,-3.8710,-0.0343,0.2417,-866.94,468.63,-1374.51
1040,-3.8710,-0.0201,0.2329,-382.57,-1047.00,1312.93
1050,-3.8711,0.0032,0.2255,1429.93,1828.06,-155.82
1060,-3.8711,0.0302,0.2177,414.31,859.38,-1890.20
1070,-3.8711,0.0553,0.2115,-132.57,-140.62,375.37
1080,-3.8712,0.0719,0.2090,-913.82,-921.81,-765.26
1090,-3.8712,0.0743,0.2043,1211.18,-1249.88,-905.88
1100,-3.8712,0.0669,0.1912,1523.68,-1843.63,-468.38
1110,-3.8712,0.0560,0.1707,570.56,468.87,-234.01
1120,-3.8712,0.0439,0.1489,-820.07,1843.81,-671.57
1130,-3.8712,0.0319,0.1289,1633.06,-937.44,1812.74
1140,-3.8713,0.0229,0.1113,86.18,500.06,-421.63
1150,-3.8713,0.0237,0.0990,-1054.44,-1750.00,1203.31
1160,-3.8715,0.0341,0.0917,-960.69,671.88,-702.94
1170,-3.8715,0.0492,0.0890,367.43,-265.56,-1609.25
1180,-3.8715,0.0638,0.0975,-1695.07,-609.31,1922.00
1190,-3.8715,0.0748,0.1221,179.93,484.50,1515.81
1200,-3.8715,0.0889,0.1499,1586.18,-374.88,1015.81
1210,-3.8715,0.1110,0.1663,-616.94,-812.38,578.37
1220,-3.8715,0.1311,0.1764,-1788.82,1281.43,515.93
1230,-3.8715,0.1415,0.1885,789.31,-1421.63,437.81
1240,-3.8716,0.1426,0.1964,-1882.57,125.24,-109.01
1250,-3.8716,0.1327,0.1959,-1741.94,1140.87,-452.76
1260,-3.8716,0.1108,0.1918,992.43,1078.37,-312.13
1270,-3.8716,0.0880,0.1865,-1804.44,547.06,-468.38
1280,-3.8716,0.0787,0.1746,-726.32,-124.88,-1577.82
1290,-3.8716,0.0812,0.1575,-1913.82,-1656.13,328.43
1300,-3.8717,0.0842,0.1466,-1601.32,156.37,1969.06
1310,-3.8717,0.0804,0.1412,-1210.69,-1234.25,218.99
1320,-3.8718,0.0742,0.1305,-1695.07,-1921.75,-531.01
1330,-3.8718,0.0721,0.1101,1508.06,703.25,-968.51
1340,-3.8718,0.0721,0.0834,1242.43,-1906.13,1656.43
1350,-3.8719,0.0724,0.0549,1242.43,-1328.00,-546.75
1360,-3.8719,0.0726,0.0298,1273.68,-968.63,1437.56
1370,-3.8719,0.0697,0.0148,1304.93,-187.38,234.38
1380,-3.8721,0.0638,0.0121,929.93,1890.75,-62.50
1390,-3.8719,0.0599,0.0171,179.93,1547.00,125.00
1400,-3.8719,0.0621,0.0240,-320.07,-1812.44,593.75
1410,-3.8719,0.0686,0.0312,-38.82,-921.81,1531.25
1420,-3.8719,0.0743,0.0388,789.31,0.12,-1437.44
1430,-3.8719,0.0792,0.0409,1523.68,968.87,-687.44
1440,-3.8719,0.0846,0.0365,-1851.32,1234.50,-343.69
1450,-3.8719,0.0948,0.0304,-1163.82,672.00,-593.69
1460,-3.8719,0.1122,0.0243,148.68,-109.19,-1312.50
1470,-3.8719,0.1293,0.0215,-1632.57,-890.44,1937.50
1480,-3.8719,0.1365,0.0219,554.93,-1249.76,1437.50
1490,-3.8719,0.1312,0.0226,1476.81,-1202.88,1328.12
1500,-3.8719,0.1217,0.0245,804.93,-1109.13,1375.00
1510,-3.8719,0.1188,0.0280,-413.82,-859.19,1093.75
1520,-3.8719,0.1250,0.0348,-788.82,-421.69,812.50
1530,-3.8719,0.1302,0.0470,8.06,453.37,140.69
1540,-3.8721,0.1298,0.0566,679.93,-1984.13,-968.69
1550,-3.8721,0.1299,0.0509,617.43,-749.76,-1468.69
1560,-3.8721,0.1310,0.0306,633.06,-1484.13,-874.94
1570,-3.8721,0.1284,0.0052,773.68,-77.88,-31.25
1580,-3.8719,0.1241,-0.0266,445.56,672.12,734.38
1590,-3.8719,0.1227,-0.0609,-101.32,593.93,1562.44
1600,-3.8719,0.1283,-0.0854,-288.82,203.31,1656.13
1610,-3.8719,0.1469,-0.0968,429.93,1062.74,1656.07
1620,-3.8719,0.1735,-0.0941,-1195.07,-390.38,-1687.74
1630,-3.8719,0.1992,-0.0771,-1788.82,-46.57,-562.74
1640,-3.8718,0.2245,-0.0582,1508.06,-1874.63,437.32
1650,-3.8718,0.2517,-0.0444,742.43,547.30,1609.25
1660,-3.8718,0.2740,-0.0364,226.81,-1687.01,-922.00
1670,-3.8717,0.2877,-0.0392,-913.82,-655.76,187.38
1680,-3.8717,0.2966,-0.0505,836.18,-1015.08,546.75
1690,-3.8717,0.3016,-0.0631,1976.81,1531.80,593.63
1700,-3.8717,0.3011,-0.0750,-1382.57,-77.58,1109.19
1710,-3.8717,0.2972,-0.0790,-1445.07,-1593.20,-1672.06
1720,-3.8717,0.2966,-0.0659,-1945.07,1891.17,-15.81
1730,-3.8716,0.3029,-0.0399,1976.81,-436.95,-1859.56
1740,-3.8715,0.3170,-0.0118,-1226.32,-1108.83,562.38
1750,-3.8715,0.3351,0.0098,586.18,-1515.01,-1562.56
1760,-3.8715,0.3477,0.0206,-1101.32,1250.61,-468.75
1770,-3.8715,0.3475,0.0183,508.06,-1358.70,-515.62
1780,-3.8715,0.3359,0.0043,492.43,-1655.58,-1625.00
1790,-3.8715,0.3167,-0.0127,-991.94,547.49,796.88
1800,-3.8716,0.2935,-0.0253,539.31,-1624.39,-1140.69
1810,-3.8716,0.2749,-0.0312,1570.56,766.17,796.81
1820,-3.8717,0.2633,-0.0271,-804.44,0.49,-218.81
1830,-3.8716,0.2462,-0.0099,1711.18,531.74,531.19
1840,-3.8716,0.2216,0.0127,-476.32,-1265.20,-1609.44
1850,-3.8715,0.2001,0.0289,367.43,1625.43,578.12
1860,-3.8715,0.1846,0.0365,1617.43,-296.51,-1125.00
1870,-3.8713,0.1768,0.0371,-366.94,672.18,218.81
1880,-3.8715,0.1865,0.0322,-1366.94,750.31,-124.94
1890,-3.8715,0.2211,0.0283,-116.94,125.31,-1515.56
1900,-3.8715,0.2732,0.0319,304.93,-374.57,1515.62
1910,-3.8715,0.3262,0.0479,-1023.19,78.61,-1859.31
1920,-3.8713,0.3604,0.0718,1758.06,-1874.39,109.44
1930,-3.8713,0.3633,0.0920,-1866.94,1188.17,-1578.00
1940,-3.8712,0.3373,0.1006,-1491.94,-218.08,734.50
1950,-3.8712,0.2933,0.0935,-820.07,875.61,-656.07
1960,-3.8711,0.2455,0.0797,1554.93,-30.70,1672.00
1970,-3.8711,0.2108,0.0736,-570.07,-1796.45,-1437.38
1980,-3.8711,0.2057,0.0795,-1007.57,1422.24,-1781.13
1990,-3.8711,0.2322,0.0983,-1663.82,-1827.76,1468.87
2000,-3.8711,0.2827,0.1290,1726.81,578.55,718.93
2010,-3.8711,0.3462,0.1631,195.56,516.17,31.49
2020,-3.8712,0.4009,0.1847,320.56,875.67,-1030.94
2030,-3.8712,0.4315,0.1898,-679.44,-358.64,1906.56
2040,-3.8712,0.4393,0.1923,-757.57,297.67,1234.74
2050,-3.8712,0.4354,0.2030,242.43,610.23,765.99
2060,-3.8712,0.4321,0.2168,-257.57,1985.17,359.74
2070,-3.8712,0.4290,0.2279,-679.44,-249.21,390.99
2080,-3.8712,0.4171,0.2373,-1085.69,1172.67,984.80
2090,-3.8712,0.3962,0.2375,1398.68,-1624.21,1500.43
2100,-3.8712,0.3735,0.2219,-1273.19,-1593.02,1562.93
2110,-3.8712,0.3505,0.2010,-179.44,406.92,1594.18
2120,-3.8712,0.3253,0.1888,867.43,1735.05,1719.12
2130,-3.8712,0.2977,0.1884,1648.68,172.49,1344.12
2140,-3.8712,0.2715,0.1952,-1882.57,109.92,406.62
2150,-3.8713,0.2505,0.2037,-1241.94,984.86,-374.63
2160,-3.8713,0.2344,0.2125,70.56,-1921.39,-765.26
2170,-3.8713,0.2244,0.2228,-1991.94,-796.45,-1093.38
2180,-3.8713,0.2263,0.2360,726.81,516.05,-1999.57
2190,-3.8713,0.2457,0.2542,976.81,-1796.45,312.93
2200,-3.8715,0.2828,0.2841,-538.82,531.68,-1655.76
2210,-3.8715,0.3307,0.3263,211.18,359.92,859.92
2220,-3.8715,0.3787,0.3690,-1663.82,1766.24,391.24
2230,-3.8715,0.4109,0.3998,476.81,-764.89,1141.30
2240,-3.8715,0.4148,0.4124,601.81,-827.33,-1421.14
2250,-3.8715,0.3907,0.4098,1101.81,782.04,-30.46
2260,-3.8713,0.3441,0.4030,-1976.32,453.86,1407.04
2270,-3.8713,0.2867,0.4025,54.93,-421.20,-780.52
2280,-3.8712,0.2369,0.4062,711.18,-483.83,1266.36
2290,-3.8712,0.2117,0.4091,-1663.82,0.43,-827.33
2300,-3.8711,0.2146,0.4136,-898.19,359.74,1016.42
2310,-3.8711,0.2316,0.4243,-523.19,937.87,-702.33
2320,-3.8710,0.2494,0.4384,1648.68,-1687.07,-1577.33
2330,-3.8708,0.2626,0.4478,-70.07,109.80,-1452.27
2340,-3.8707,0.2654,0.4498,1617.43,1312.99,-921.02
2350,-3.8706,0.2542,0.4471,1976.81,1578.61,-639.77
2360,-3.8705,0.2318,0.4402,539.31,1234.86,-1186.65
2370,-3.8704,0.2087,0.4291,1679.93,344.18,1297.73
2380,-3.8704,0.1892,0.4183,-1273.19,-1077.76,-764.83
2390,-3.8702,0.1710,0.4137,226.81,1547.24,1032.04
2400,-3.8702,0.1542,0.4144,1898.68,953.43,-733.58
2410,-3.8701,0.1389,0.4119,-257.57,1047.12,1953.92
2420,-3.8700,0.1327,0.4011,1789.31,718.99,578.92
2430,-3.8700,0.1455,0.3848,992.43,-656.01,-1702.39
2440,-3.8700,0.1759,0.3684,-1366.94,1250.24,-1343.02
2450,-3.8700,0.2148,0.3615,-1476.32,-843.44,-1921.20
2460,-3.8700,0.2460,0.3685,-491.94,-1734.01,1391.30
2470,-3.8700,0.2512,0.3857,-507.57,-827.70,-1968.08
2480,-3.8700,0.2253,0.4036,164.31,1375.49,-14.89
2490,-3.8699,0.1838,0.4119,851.81,-343.32,1610.11
2500,-3.8699,0.1486,0.4061,-460.69,719.06,1735.17
2510,-3.8699,0.1261,0.3882,-976.32,-15.38,219.48
2520,-3.8700,0.1129,0.3712,148.68,1687.74,1875.73
2530,-3.8701,0.1079,0.3636,-1538.82,-484.19,-843.08
2540,-3.8701,0.1112,0.3645,1820.56,-1452.94,500.67
2550,-3.8702,0.1205,0.3693,-1757.57,-1343.57,-1780.58
2560,-3.8704,0.1306,0.3733,-570.07,-734.19,-46.20
2570,-3.8704,0.1368,0.3755,726.81,-218.51,1344.42
2580,-3.8705,0.1371,0.3800,1523.68,62.74,-1296.14
2590,-3.8705,0.1311,0.3905,1554.93,640.87,703.86
2600,-3.8706,0.1224,0.4067,789.31,1984.62,-514.89
2610,-3.8706,0.1163,0.4250,-320.07,62.68,-983.58
2620,-3.8706,0.1151,0.4357,-1101.32,-1593.57,-1171.08
2630,-3.8706,0.1190,0.4324,-1257.57,-234.19,1985.17
2640,-3.8706,0.1243,0.4199,-757.57,-656.07,47.67
2650,-3.8707,0.1252,0.4070,-85.69,1750.18,1453.92
2660,-3.8708,0.1199,0.3971,39.31,93.99,-1171.08
2670,-3.8708,0.1100,0.3853,-648.19,-1171.69,313.23
2680,-3.8710,0.0962,0.3689,-1913.82,1312.68,1828.86
2690,-3.8711,0.0752,0.3540,320.56,-781.07,-639.95
2700,-3.8711,0.0476,0.3479,1633.06,1312.62,1141.30
2710,-3.8712,0.0206,0.3534,-1898.19,531.31,-436.83
2720,-3.8712,-0.0017,0.3651,-1351.32,1234.38,-1077.45
2730,-3.8712,-0.0165,0.3723,-210.69,-1250.06,-1030.58
2740,-3.8712,-0.0175,0.3660,1898.68,-328.19,-1218.08
2750,-3.8712,-0.0050,0.3412,1773.68,-1140.69,1531.92
2760,-3.8713,0.0112,0.3036,-632.57,-312.56,-733.76
2770,-3.8713,0.0231,0.2634,1445.56,-1140.62,594.30
2780,-3.8715,0.0289,0.2300,-1038.82,1718.75,1984.86
2790,-3.8716,0.0276,0.2102,-288.82,1437.50,-140.20
2800,-3.8716,0.0162,0.2029,-460.69,-1093.75,-1515.26
2810,-3.8716,-0.0049,0.2017,-1913.82,1968.75,1812.87
2820,-3.8716,-0.0281,0.2015,-616.94,1828.06,1906.62
2830,-3.8716,-0.0464,0.1986,414.31,1812.44,-1312.13
2840,-3.8716,-0.0562,0.1929,-1929.44,1437.38,-234.01
2850,-3.8715,-0.0510,0.1862,820.56,703.00,344.12
2860,-3.8715,-0.0276,0.1781,1476.81,-156.37,31.56
2870,-3.8716,0.0056,0.1681,476.81,-1187.56,-937.19
2880,-3.8716,0.0344,0.1559,726.81,1515.62,1515.93
2890,-3.8717,0.0521,0.1409,414.31,-46.81,-281.01
2900,-3.8717,0.0583,0.1233,-1320.07,-1968.69,-1968.51
2910,-3.8717,0.0541,0.1055,-523.19,-218.69,531.43
2920,-3.8718,0.0414,0.0913,-1070.07,1500.06,-531.07
2930,-3.8718,0.0265,0.0820,1304.93,-312.44,-1062.38
2940,-3.8718,0.0170,0.0758,-601.32,-1500.00,-1531.13
2950,-3.8718,0.0151,0.0725,-1820.07,1703.12,-1921.75
2960,-3.8718,0.0189,0.0702,1945.56,1281.25,1640.75
2970,-3.8718,0.0269,0.0613,-1570.07,984.38,953.25
2980,-3.8719,0.0342,0.0446,-554.44,-156.25,-171.81
2990,-3.8719,0.0314,0.0248,383.06,1703.19,-1828.06
3000,-3.8719,0.0157,0.0078,23.68,-828.06,578.12
3010,-3.8721,-0.0043,-0.0018,-1976.32,1000.00,-687.50
3020,-3.8721,-0.0128,-0.0034,-538.82,-218.81,-1562.56
3030,-3.8721,0.0039,0.0005,-1632.57,-421.94,1859.31
3040,-3.8721,0.0454,0.0048,508.06,62.50,1390.62
3050,-3.8721,0.0953,0.0048,1820.56,609.44,781.25
3060,-3.8722,0.1365,-0.0023,211.18,609.56,-46.88
3070,-3.8722,0.1564,-0.0194,1476.81,-296.63,-1078.19
3080,-3.8722,0.1516,-0.0433,23.68,1515.93,1953.06
3090,-3.8722,0.1313,-0.0648,-585.69,-1546.63,1359.25
3100,-3.8722,0.1102,-0.0795,820.56,-296.63,1249.82
3110,-3.8722,0.1024,-0.0872,-1882.57,1828.31,1796.69
3120,-3.8722,0.1106,-0.0883,1117.43,843.93,-1062.68
3130,-3.8721,0.1292,-0.0833,-1835.69,703.31,874.82
3140,-3.8721,0.1526,-0.0736,539.31,1343.99,-843.93
3150,-3.8719,0.1755,-0.0656,-460.69,-1421.63,1140.44
3160,-3.8719,0.1935,-0.0646,-1523.19,-390.32,-1203.31
3170,-3.8719,0.2046,-0.0699,773.68,-265.26,-390.81
3180,-3.8719,0.2085,-0.0820,-1804.44,-952.76,-1125.18
3190,-3.8719,0.2059,-0.1000,-1304.44,1500.37,1249.82
3200,-3.8721,0.1980,-0.1201,-1632.57,-796.51,-328.37
3210,-3.8721,0.1846,-0.1427,1351.81,625.37,-1328.37
3220,-3.8721,0.1680,-0.1576,-366.94,1734.68,1890.32
3230,-3.8721,0.1567,-0.1544,1508.06,-171.57,1296.51
3240,-3.8721,0.1589,-0.1378,70.56,234.68,1421.57
3250,-3.8721,0.1733,-0.1140,351.81,-1640.32,1734.07
3260,-3.8721,0.2012,-0.0886,-1804.44,1406.56,-1718.99
3270,-3.8721,0.2406,-0.0659,1758.06,656.62,-687.68
3280,-3.8719,0.2794,-0.0519,-1195.07,-437.07,93.57
3290,-3.8721,0.3096,-0.0532,-226.32,1359.86,-93.87
3300,-3.8721,0.3287,-0.0677,-366.94,1188.05,-1078.25
3310,-3.8721,0.3369,-0.0879,-1913.82,-671.26,-1734.56
3320,-3.8721,0.3385,-0.0988,-866.94,750.61,-1531.43
3330,-3.8721,0.3390,-0.0892,-663.82,-640.01,-718.99
3340,-3.8719,0.3433,-0.0629,-601.32,578.74,468.57
3350,-3.8719,0.3564,-0.0277,-54.44,-46.26,-1937.68
3360,-3.8718,0.3812,0.0071,1633.06,453.80,124.94
3370,-3.8718,0.4116,0.0327,804.93,906.98,-1734.38
3380,-3.8718,0.4340,0.0444,695.56,188.29,-78.06
3390,-3.8717,0.4421,0.0382,-445.07,1688.29,687.56
3400,-3.8717,0.4420,0.0183,601.81,891.48,656.31
3410,-3.8718,0.4351,-0.0049,586.18,-1655.40,-187.50
3420,-3.8718,0.4216,-0.0221,-304.44,-624.21,-1640.69
3430,-3.8718,0.4069,-0.0266,1976.81,1172.67,984.31
3440,-3.8718,0.3907,-0.0195,86.18,594.54,343.69
3450,-3.8718,0.3665,-0.0026,-1976.32,1500.73,562.44
3460,-3.8718,0.3344,0.0220,-1085.69,-327.45,1203.06
3470,-3.8718,0.3060,0.0469,-1195.07,-1186.89,1687.50
3480,-3.8718,0.2976,0.0601,-820.07,-1999.45,-1906.19
3490,-3.8718,0.3203,0.0475,-1898.19,-311.95,-1468.69
3500,-3.8718,0.3691,0.0168,1008.06,-1921.26,-1453.06
3510,-3.8718,0.4283,-0.0074,-741.94,-1843.08,-1187.50
3520,-3.8718,0.4746,-0.0162,-1163.82,-952.33,-484.44
3530,-3.8717,0.4897,-0.0104,758.06,1922.79,296.81
3540,-3.8717,0.4775,0.0010,-1304.44,-1327.21,1921.81
3550,-3.8716,0.4486,0.0083,1133.06,125.92,359.38
3560,-3.8716,0.4103,0.0160,1429.93,1063.35,-671.88
3570,-3.8715,0.3751,0.0260,523.68,-1952.33,1875.00
3580,-3.8715,0.3663,0.0317,23.68,-671.14,-390.62
3590,-3.8713,0.3899,0.0356,-1101.32,63.17,1312.56
3600,-3.8713,0.4236,0.0446,1914.31,563.23,-499.94
3610,-3.8712,0.4486,0.0580,-1773.19,1703.92,1656.31
3620,-3.8712,0.4633,0.0748,1429.93,-577.27,-265.56
3630,-3.8711,0.4739,0.0946,-695.07,1578.98,-1937.38
3640,-3.8710,0.4861,0.1136,664.31,110.29,1125.18
3650,-3.8708,0.4990,0.1268,-1773.19,-1452.21,218.93
3660,-3.8708,0.5059,0.1294,-116.94,235.29,1765.87
3670,-3.8708,0.5002,0.1221,758.06,563.48,1312.74
3680,-3.8710,0.4836,0.1149,39.31,-374.02,-234.19
3690,-3.8710,0.4697,0.1147,1914.31,-1295.96,-1499.82
3700,-3.8710,0.4670,0.1213,133.06,-1311.58,-1734.19
3710,-3.8710,0.4662,0.1295,-210.69,-467.90,-1421.69
3720,-3.8710,0.4601,0.1335,-320.07,578.98,-1390.38
3730,-3.8710,0.4551,0.1343,-1101.32,1094.60,-1874.76
3740,-3.8710,0.4567,0.1375,-1741.94,1188.35,1125.24
3750,-3.8711,0.4655,0.1466,-1538.82,1594.60,-374.76
3760,-3.8711,0.4762,0.1613,-413.82,-1233.52,-1921.63
3770,-3.8711,0.4766,0.1796,961.18,641.54,969.06
3780,-3.8711,0.4572,0.1987,1008.06,-1014.71,594.06
3790,-3.8711,0.4227,0.2166,-1476.32,1438.35,1000.37
3800,-3.8711,0.3878,0.2300,-1882.57,-280.46,1687.87
3810,-3.8711,0.3656,0.2401,1648.68,1438.23,1891.05
3820,-3.8711,0.3616,0.2523,-1195.07,-1264.95,1172.30
3830,-3.8712,0.3745,0.2683,-1710.69,297.55,-30.76
3840,-3.8712,0.3979,0.2860,-54.44,-1655.58,-874.51
3850,-3.8712,0.4238,0.3010,-1054.44,610.11,-1155.70
3860,-3.8712,0.4496,0.3109,-1741.94,-1467.96,-1124.45
3870,-3.8712,0.4703,0.3159,1554.93,-202.27,-702.58
3880,-3.8711,0.4755,0.3184,211.18,438.42,141.24
3890,-3.8711,0.4572,0.3218,867.43,750.92,1344.36
3900,-3.8711,0.4225,0.3239,-1476.32,1188.35,-1483.76
3910,-3.8711,0.3906,0.3196,-1913.82,1453.92,-765.01
3920,-3.8711,0.3732,0.3118,-1991.94,906.98,-358.76
3930,-3.8710,0.3691,0.3057,-226.32,-93.08,78.67
3940,-3.8710,0.3760,0.3043,-741.94,-874.33,453.67
3950,-3.8710,0.3871,0.3080,133.06,-1046.14,1156.80
3960,-3.8710,0.3954,0.3134,1554.93,-577.39,-1093.20
3970,-3.8708,0.3953,0.3170,-1382.57,110.11,1406.86
3980,-3.8708,0.3809,0.3196,-1398.19,578.86,-265.01
3990,-3.8707,0.3562,0.3242,758.06,906.98,1844.36
4000,-3.8707,0.3291,0.3274,1601.81,1500.67,-390.01
4010,-3.8706,0.3041,0.3257,-1866.94,1906.86,484.99
4020,-3.8706,0.2859,0.3201,-1070.07,1688.05,94.36
4030,-3.8707,0.2753,0.3121,601.81,969.30,-1765.01
4040,-3.8708,0.2695,0.3037,-757.57,-46.39,-843.20
4050,-3.8710,0.2660,0.2949,-1491.94,-1124.51,-1093.20
4060,-3.8711,0.2628,0.2850,-1945.07,1750.49,1922.42
4070,-3.8712,0.2604,0.2759,1648.68,484.86,1281.80
4080,-3.8713,0.2596,0.2722,1336.18,-687.01,1937.99
4090,-3.8713,0.2589,0.2803,1242.43,-1155.76,1062.99
4100,-3.8713,0.2552,0.3031,1148.68,-124.51,-687.01
4110,-3.8712,0.2468,0.3395,679.93,-1202.64,-15.08
4120,-3.8710,0.2300,0.3850,-398.19,-546.45,-1905.64
4130,-3.8707,0.2004,0.4303,1445.56,1281.68,1328.86
4140,-3.8705,0.1659,0.4652,1664.31,-921.51,1000.79
4150,-3.8704,0.1418,0.4857,1242.43,-452.82,-280.40
4160,-3.8701,0.1373,0.4922,-1835.69,-1827.88,1000.92
4170,-3.8700,0.1498,0.4878,1586.18,-999.76,1000.92
4180,-3.8700,0.1663,0.4773,-820.07,-1562.26,-592.83
4190,-3.8700,0.1736,0.4636,1289.31,1094.06,-30.33
4200,-3.8700,0.1681,0.4456,-1773.19,-655.94,-1061.65
4210,-3.8700,0.1541,0.4248,1523.68,1031.56,1063.35
4220,-3.8701,0.1310,0.4103,-273.19,-1624.76,-811.71
4230,-3.8701,0.0989,0.4091,773.68,515.87,1766.42
4240,-3.8701,0.0675,0.4164,664.31,359.56,907.04
4250,-3.8701,0.0470,0.4197,648.68,1297.00,438.29
4260,-3.8702,0.0354,0.4120,-1976.32,1718.81,-61.71
4270,-3.8702,0.0260,0.3983,539.31,734.44,-1249.21
4280,-3.8702,0.0188,0.3810,-663.82,-1015.62,438.23
4290,-3.8704,0.0125,0.3635,-1585.69,765.62,1563.23
4300,-3.8705,0.0009,0.3512,1601.81,-1468.75,-1171.20
4310,-3.8705,-0.0160,0.3441,117.43,953.12,422.55
4320,-3.8706,-0.0312,0.3412,1961.18,62.44,-1921.20
4330,-3.8707,-0.0416,0.3384,8.06,-312.56,-77.51
4340,-3.8707,-0.0447,0.3319,-1320.07,-672.00,-1858.76
4350,-3.8707,-0.0387,0.3252,-1710.69,-1500.12,516.24
4360,-3.8708,-0.0223,0.3247,-945.07,1640.50,-843.14
4370,-3.8708,0.0024,0.3322,1148.68,1578.06,-1921.26
4380,-3.8708,0.0260,0.3416,320.56,-1484.38,1016.24
4390,-3.8708,0.0381,0.3447,-663.82,-281.25,125.61
4400,-3.8710,0.0380,0.3402,883.06,125.06,-593.08
4410,-3.8710,0.0322,0.3281,867.43,-453.06,-1843.14
4420,-3.8710,0.0293,0.3073,133.06,-1999.94,16.24
4430,-3.8711,0.0304,0.2831,-241.94,-671.88,1266.17
4440,-3.8712,0.0314,0.2637,-101.32,234.38,-1905.70
4450,-3.8713,0.0312,0.2512,23.68,1750.06,-952.64
4460,-3.8713,0.0328,0.2406,8.06,156.31,641.11
4470,-3.8715,0.0370,0.2253,211.18,-1203.06,-1202.70
4480,-3.8715,0.0400,0.2058,742.43,843.81,844.18
4490,-3.8716,0.0397,0.1832,1133.06,-1656.19,-1374.63
4500,-3.8716,0.0364,0.1583,1086.18,-546.81,578.43
4510,-3.8717,0.0321,0.1365,664.31,265.69,-1124.69
4520,-3.8717,0.0289,0.1238,117.43,1468.81,1547.12
4530,-3.8717,0.0300,0.1172,-288.82,-156.25,359.56
4540,-3.8718,0.0388,0.1069,-148.19,-1000.00,-968.57
4550,-3.8718,0.0482,0.0903,976.81,1687.56,1547.06
4560,-3.8718,0.0464,0.0742,-1820.07,-437.44,78.25
4570,-3.8719,0.0348,0.0593,1945.56,1500.06,-1140.50
4580,-3.8719,0.0193,0.0408,461.18,-406.19,-1999.94
4590,-3.8719,0.0027,0.0198,-1523.19,1218.75,1015.69
4600,-3.8721,-0.0078,0.0006,351.81,-1468.75,-437.50
4610,-3.8721,-0.0049,-0.0161,-991.94,93.69,1953.12
4620,-3.8721,0.0105,-0.0317,-616.94,1953.06,343.69
4630,-3.8722,0.0287,-0.0444,1351.81,-62.50,-1218.87
4640,-3.8722,0.0393,-0.0538,-320.07,-1687.50,1609.25
4650,-3.8722,0.0396,-0.0614,1039.31,1109.44,781.13
4660,-3.8722,0.0345,-0.0680,1070.56,140.69,62.38
4670,-3.8723,0.0316,-0.0753,429.93,-703.06,-640.81
4680,-3.8723,0.0361,-0.0786,54.93,-1640.56,-1172.06
4690,-3.8723,0.0457,-0.0713,633.06,1937.56,-1578.31
4700,-3.8723,0.0538,-0.0560,1851.81,-1124.94,-1859.56
4710,-3.8723,0.0551,-0.0450,-1101.32,828.19,-1812.62
4720,-3.8723,0.0490,-0.0503,-945.07,-1765.56,-1453.25
4730,-3.8723,0.0419,-0.0719,-1726.32,1562.56,-843.87
4740,-3.8723,0.0383,-0.0994,1367.43,-1203.06,-281.43
4750,-3.8722,0.0411,-0.1232,914.31,-718.69,452.88
4760,-3.8722,0.0503,-0.1379,1273.68,234.44,1734.13
4770,-3.8722,0.0574,-0.1448,-1554.44,-1656.19,-1234.68
4780,-3.8722,0.0563,-0.1511,-648.19,1468.81,-953.43
4790,-3.8722,0.0450,-0.1610,-788.82,656.31,-1015.93
4800,-3.8722,0.0297,-0.1726,1773.68,-609.31,-1187.87
4810,-3.8722,0.0226,-0.1802,-195.07,1906.25,-1125.37
4820,-3.8722,0.0280,-0.1790,-1101.32,937.50,-531.62
4830,-3.8721,0.0469,-0.1696,-413.82,1093.75,249.63
4840,-3.8721,0.0798,-0.1582,-1991.94,-1703.06,718.38
4850,-3.8721,0.1206,-0.1528,-1773.19,-249.88,734.01
4860,-3.8721,0.1561,-0.1512,-554.44,437.68,874.69
4870,-3.8721,0.1764,-0.1470,-7.57,640.87,1827.82
4880,-3.8721,0.1814,-0.1371,-1413.82,1187.81,-625.31
4890,-3.8719,0.1797,-0.1222,-773.19,-1546.57,1155.94
4900,-3.8719,0.1808,-0.1051,-991.94,359.68,-1047.12
4910,-3.8718,0.1940,-0.0869,-851.32,-1452.82,624.76
4920,-3.8718,0.2239,-0.0692,836.18,875.37,-1672.06
4930,-3.8718,0.2616,-0.0575,664.31,-858.95,-109.56
4940,-3.8717,0.2887,-0.0560,1492.43,641.11,843.63
4950,-3.8717,0.2933,-0.0619,961.18,828.67,1109.25
4960,-3.8717,0.2791,-0.0725,1554.93,78.67,968.63
4970,-3.8717,0.2573,-0.0845,-273.19,-1280.76,796.69
4980,-3.8717,0.2362,-0.0913,945.56,1187.99,749.82
4990,-3.8717,0.2197,-0.0874,-1757.57,312.93,859.19
5000,-3.8717,0.2118,-0.0690,133.06,812.93,1765.44
5010,-3.8717,0.2080,-0.0393,-882.57,-827.76,-93.93
5020,-3.8716,0.2047,-0.0117,-1366.94,-1030.88,-1375.12
5030,-3.8715,0.2053,0.0012,-1788.82,-1499.63,859.31
5040,-3.8715,0.2122,-0.0001,-1710.69,156.62,1875.00
5050,-3.8715,0.2206,-0.0045,-835.69,-15.26,1546.81
5060,-3.8715,0.2235,-0.0051,242.43,-577.70,62.44
5070,-3.8716,0.2159,-0.0027,617.43,-655.82,1734.31
5080,-3.8717,0.1930,-0.0027,-351.32,-343.38,-625.06
5090,-3.8717,0.1624,-0.0106,711.18,-343.38,1749.94
5100,-3.8717,0.1420,-0.0254,789.31,-1359.07,999.94
5110,-3.8717,0.1375,-0.0398,-1820.07,750.24,812.44
5120,-3.8717,0.1422,-0.0460,1601.81,-1093.51,906.13
5130,-3.8717,0.1581,-0.0455,-1788.82,-1890.38,1421.75
5140,-3.8717,0.1829,-0.0399,242.43,-1827.82,-1109.50
5150,-3.8716,0.1985,-0.0238,-585.69,-1109.07,1140.50
5160,-3.8716,0.2017,0.0027,1414.31,953.49,-140.69
5170,-3.8715,0.2058,0.0309,1820.56,344.12,-875.00
5180,-3.8713,0.2136,0.0560,-1648.19,-46.51,-1656.25
5190,-3.8712,0.2230,0.0778,-648.19,-827.76,234.44
5200,-3.8712,0.2333,0.0927,554.93,1953.55,859.50
5210,-3.8712,0.2422,0.1030,1867.43,-140.20,1515.75
5220,-3.8712,0.2507,0.1119,-991.94,1187.93,-1046.69
5230,-3.8711,0.2642,0.1179,101.81,-1671.39,937.68
5240,-3.8711,0.2892,0.1204,1820.56,-905.76,-1468.57
5250,-3.8711,0.3265,0.1162,1023.68,-593.20,-718.57
5260,-3.8711,0.3685,0.1090,1804.93,-1124.39,-546.69
5270,-3.8711,0.4030,0.1104,-820.07,1953.80,-687.32
5280,-3.8711,0.4233,0.1257,-413.82,-1874.27,-546.69
5290,-3.8710,0.4305,0.1487,-1804.44,94.54,500.24
5300,-3.8710,0.4298,0.1660,-882.57,-967.96,-1968.51
5310,-3.8710,0.4200,0.1710,-976.32,1250.79,-1077.82
5320,-3.8710,0.4023,0.1638,1773.68,1891.42,-1265.32
5330,-3.8710,0.3894,0.1469,-491.94,969.48,-1968.44
5340,-3.8710,0.3862,0.1282,1851.81,-1202.39,1156.49
5350,-3.8710,0.3843,0.1173,1445.56,406.98,0.24
5360,-3.8711,0.3778,0.1183,1195.56,-983.64,-1109.19
5370,-3.8711,0.3688,0.1293,367.43,-858.64,1984.56
5380,-3.8711,0.3550,0.1445,-788.82,547.55,1765.87
5390,-3.8711,0.3322,0.1622,1445.56,-1499.33,-1312.26
5400,-3.8710,0.3090,0.1783,-1476.32,766.24,62.81
5410,-3.8710,0.2986,0.1827,-445.07,-1171.33,687.81
5420,-3.8711,0.3031,0.1774,-1773.19,-608.83,-109.07
5430,-3.8711,0.3228,0.1715,-1195.07,-1296.33,-1999.69
5440,-3.8712,0.3545,0.1710,1320.56,1953.74,-171.57
5450,-3.8712,0.3856,0.1779,1383.06,1891.30,1844.06
5460,-3.8712,0.4064,0.1906,1367.43,-1233.64,94.06
5470,-3.8713,0.4117,0.2069,23.68,391.42,-1093.38
5480,-3.8713,0.4015,0.2245,711.18,-1514.83,-1280.88
5490,-3.8713,0.3787,0.2412,-601.32,735.11,-452.70
5500,-3.8712,0.3508,0.2562,476.81,-1124.27,812.93
5510,-3.8712,0.3260,0.2664,914.31,797.55,1656.74
5520,-3.8712,0.3059,0.2725,1742.43,-1905.64,1844.24
5530,-3.8712,0.2888,0.2787,-835.69,-1124.45,1562.99
5540,-3.8712,0.2792,0.2834,976.81,-327.58,1125.49
5550,-3.8712,0.2794,0.2855,-257.57,281.74,1078.67
5560,-3.8712,0.2804,0.2930,-226.32,547.36,1969.30
5570,-3.8712,0.2736,0.3120,-101.32,1500.49,-265.08
5580,-3.8711,0.2648,0.3363,-976.32,-62.01,-1577.58
5590,-3.8710,0.2598,0.3560,1898.68,-952.64,1938.11
5600,-3.8708,0.2535,0.3689,1258.06,1562.99,1250.67
5610,-3.8708,0.2396,0.3802,461.18,-780.76,-202.45
5620,-3.8707,0.2208,0.3892,-1320.07,672.30,-1983.64
5630,-3.8706,0.2058,0.3911,273.68,1812.93,422.61
5640,-3.8706,0.1958,0.3879,-1648.19,-1937.13,-1405.52
5650,-3.8706,0.1904,0.3821,1070.56,1656.62,-421.14
5660,-3.8706,0.1926,0.3726,383.06,906.62,-827.39
5670,-3.8706,0.1992,0.3612,664.31,-312.13,1938.17
5680,-3.8706,0.2094,0.3584,1508.06,-1765.26,719.42
5690,-3.8706,0.2239,0.3729,-1195.07,1875.37,469.42
5700,-3.8706,0.2362,0.4010,664.31,-265.20,1672.55
5710,-3.8705,0.2405,0.4313,-1757.57,-671.45,110.11
5720,-3.8705,0.2369,0.4534,-1210.69,-796.45,-1311.71
5730,-3.8704,0.2280,0.4579,-1663.82,-1968.32,297.73
5740,-3.8704,0.2167,0.4448,1195.56,-1390.20,578.98
5750,-3.8705,0.2058,0.4244,-257.57,937.87,-374.15
5760,-3.8705,0.1964,0.4071,-1648.19,-1671.51,1750.79
5770,-3.8706,0.1846,0.3958,1148.68,109.74,-671.08
5780,-3.8706,0.1669,0.3882,-366.94,-1343.44,969.48
5790,-3.8707,0.1459,0.3820,1367.43,1687.81,-889.89
5800,-3.8707,0.1287,0.3763,-1320.07,890.87,1750.73
5810,-3.8707,0.1174,0.3712,476.81,172.12,750.73
5820,-3.8707,0.1041,0.3696,-960.69,-484.19,266.30
5830,-3.8707,0.0814,0.3763,1336.18,-687.32,703.80
5840,-3.8707,0.0538,0.3877,-1570.07,172.00,-1921.14
5850,-3.8707,0.0288,0.3936,-1101.32,1625.06,-546.14
5860,-3.8706,0.0094,0.3885,-304.44,-1625.00,94.48
5870,-3.8706,-0.0052,0.3772,1211.18,1734.38,297.61
5880,-3.8706,-0.0190,0.3656,-663.82,296.81,281.98
5890,-3.8707,-0.0337,0.3519,1570.56,-1187.56,-186.83
5900,-3.8707,-0.0464,0.3352,-304.44,1062.38,-952.45
5910,-3.8707,-0.0575,0.3243,-1929.44,-1078.25,-1046.26
5920,-3.8707,-0.0703,0.3260,648.68,1531.13,-499.39
5930,-3.8706,-0.0791,0.3405,-991.94,1749.82,391.24
5940,-3.8706,-0.0745,0.3615,1883.06,-406.43,-1968.14
5950,-3.8705,-0.0588,0.3802,-1523.19,-1718.93,406.92
5960,-3.8705,-0.0419,0.3953,476.81,687.38,-1327.39
5970,-3.8705,-0.0298,0.4072,-1351.32,-1390.75,-77.39
5980,-3.8704,-0.0192,0.4124,195.56,140.56,250.79
5990,-3.8704,-0.0032,0.4109,1554.93,796.81,0.79
6000,-3.8705,0.0186,0.4061,-398.19,609.31,-827.33
6010,-3.8705,0.0405,0.3994,-1616.94,-15.62,1797.61
6020,-3.8705,0.0566,0.3910,1195.56,-874.94,297.61
6030,-3.8706,0.0659,0.3796,-741.94,-1953.06,-1061.77
6040,-3.8706,0.0706,0.3635,445.56,593.87,1391.36
6050,-3.8707,0.0696,0.3442,1039.31,-1468.63,-905.58
6060,-3.8707,0.0615,0.3251,914.31,62.62,172.55
6070,-3.8708,0.0457,0.3076,-116.94,1609.44,1219.36
6080,-3.8710,0.0237,0.2876,1851.81,-624.94,-1405.70
6090,-3.8711,0.0016,0.2585,-960.69,812.50,-218.20
6100,-3.8711,-0.0139,0.2200,211.18,1093.75,281.74
6110,-3.8712,-0.0215,0.1799,-1773.19,171.81,203.55
6120,-3.8713,-0.0208,0.1493,1258.06,-953.19,187.81
6130,-3.8715,-0.0094,0.1317,1351.81,-875.06,1203.37
6140,-3.8716,0.0087,0.1282,-1195.07,874.94,-437.26
6150,-3.8716,0.0245,0.1345,1117.43,406.25,-921.63
6160,-3.8716,0.0330,0.1410,-851.32,1218.75,-812.26
6170,-3.8716,0.0343,0.1464,226.81,-1953.06,-687.26
6180,-3.8716,0.0321,0.1573,398.68,-1265.56,-671.63
6190,-3.8716,0.0300,0.1704,117.43,140.69,-702.82
6200,-3.8716,0.0298,0.1747,-148.19,1812.50,-280.94
6210,-3.8715,0.0305,0.1703,-179.44,-1640.62,750.31
6220,-3.8715,0.0298,0.1630,-85.69,1796.88,1609.68
6230,-3.8715,0.0293,0.1537,-179.44,859.38,1515.93
6240,-3.8715,0.0327,0.1412,-241.94,-328.12,500.24
6250,-3.8716,0.0367,0.1266,195.56,-1921.81,-1093.51
6260,-3.8716,0.0376,0.1144,711.18,203.19,1250.24
6270,-3.8717,0.0396,0.1067,820.56,-1359.31,-140.44
6280,-3.8717,0.0469,0.1005,1070.56,1656.31,-1296.69
6290,-3.8717,0.0568,0.0928,-1991.94,859.44,1500.18
6300,-3.8717,0.0643,0.0820,-726.32,-124.94,93.87
6310,-3.8718,0.0669,0.0714,242.43,-1499.88,-1109.25
6320,-3.8718,0.0636,0.0670,570.56,1140.75,1859.50
6330,-3.8718,0.0604,0.0658,148.68,578.25,953.25
6340,-3.8719,0.0603,0.0634,-257.57,421.94,-93.63
6350,-3.8719,0.0620,0.0529,-273.19,109.44,-1546.75
6360,-3.8719,0.0653,0.0292,-54.44,-1234.31,859.44
6370,-3.8721,0.0671,0.0016,367.43,-265.50,-984.38
6380,-3.8721,0.0673,-0.0194,601.81,203.25,953.12
6390,-3.8722,0.0675,-0.0325,617.43,1515.75,-1000.06
6400,-3.8722,0.0668,-0.0388,648.68,-156.13,1593.63
6410,-3.8722,0.0657,-0.0392,554.93,-968.63,1062.38
6420,-3.8722,0.0687,-0.0376,414.31,-1015.50,984.25
6430,-3.8722,0.0773,-0.0378,804.93,-812.38,687.38
6440,-3.8723,0.0892,-0.0444,1898.68,-843.63,-0.12
6450,-3.8723,0.1011,-0.0581,-570.07,-1687.38,-1015.75
6460,-3.8723,0.1113,-0.0759,945.56,562.68,1312.38
6470,-3.8724,0.1205,-0.0978,-1741.94,-1718.57,-797.06
6480,-3.8724,0.1278,-0.1195,-570.07,-515.44,1406.01
6490,-3.8724,0.1289,-0.1357,367.43,703.37,171.63
6500,-3.8726,0.1205,-0.1449,508.06,-1374.76,-344.06
6510,-3.8724,0.1094,-0.1465,-570.07,1453.31,499.69
6520,-3.8724,0.1023,-0.1399,-1991.94,1250.18,-1469.06
6530,-3.8723,0.1049,-0.1245,1101.81,-1906.07,796.57
6540,-3.8723,0.1251,-0.1096,1429.93,62.68,-984.62
6550,-3.8722,0.1610,-0.1051,23.68,1968.99,577.88
6560,-3.8722,0.2002,-0.1086,617.43,-1452.82,1281.01
6570,-3.8722,0.2305,-0.1162,1633.06,-1905.88,1468.51
6580,-3.8722,0.2489,-0.1215,1508.06,1125.43,1843.51
6590,-3.8722,0.2594,-0.1161,-132.57,453.55,-1172.12
6600,-3.8721,0.2655,-0.1027,1211.18,1141.11,687.26
6610,-3.8721,0.2712,-0.0874,1992.43,-1140.14,-687.74
6620,-3.8719,0.2777,-0.0706,-1273.19,812.99,1656.07
6630,-3.8719,0.2833,-0.0516,-445.07,-1030.76,-687.68
6640,-3.8718,0.2866,-0.0334,273.68,1391.17,468.63
6650,-3.8718,0.2848,-0.0181,695.56,-280.70,1015.50
6660,-3.8718,0.2769,-0.0027,461.18,1688.05,1296.81
6670,-3.8718,0.2695,0.0121,-554.44,-343.26,1781.19
6680,-3.8718,0.2699,0.0215,-1491.94,1547.36,-1593.75
6690,-3.8718,0.2817,0.0227,-1445.07,-1249.51,-1062.50
6700,-3.8718,0.3041,0.0161,70.56,-1093.20,-921.88
6710,-3.8718,0.3293,0.0063,-1070.07,-1936.95,-1265.62
6720,-3.8718,0.3470,0.0020,-1835.69,813.11,-1593.75
6730,-3.8718,0.3494,0.0084,429.93,250.67,-1515.62
6740,-3.8718,0.3385,0.0240,726.81,1078.80,-937.50
6750,-3.8717,0.3267,0.0410,-663.82,-921.26,265.62
6760,-3.8717,0.3276,0.0476,1820.56,1250.61,-1937.44
6770,-3.8716,0.3429,0.0414,1945.56,-1905.64,15.69
6780,-3.8716,0.3616,0.0304,-101.32,1297.49,1546.94
6790,-3.8716,0.3792,0.0171,-1710.69,-108.70,-1921.88
6800,-3.8716,0.3978,0.0007,539.31,-1811.77,1718.75
6810,-3.8716,0.4175,-0.0128,-1070.07,94.48,875.00
6820,-3.8716,0.4370,-0.0172,1445.56,-1639.83,140.56
6830,-3.8716,0.4581,-0.0071,-54.44,1797.67,374.94
6840,-3.8716,0.4784,0.0157,-1351.32,-905.40,1437.44
6850,-3.8716,0.4901,0.0488,1242.43,-1983.46,-546.88
6860,-3.8715,0.4885,0.0931,-1257.57,-1749.08,-1406.19
6870,-3.8713,0.4816,0.1389,-1460.69,-77.21,1484.50
6880,-3.8713,0.4857,0.1670,1648.68,1782.17,-890.38
6890,-3.8713,0.5001,0.1733,-1820.07,1375.92,-452.82
6900,-3.8713,0.5059,0.1685,23.68,-1811.52,-577.82
6910,-3.8713,0.4910,0.1586,758.06,1563.48,-952.82
6920,-3.8713,0.4598,0.1482,-1148.19,297.79,-1827.82
6930,-3.8713,0.4264,0.1418,-1132.57,-1030.40,1187.74
6940,-3.8713,0.3982,0.1443,-1413.82,-1842.96,1312.74
6950,-3.8713,0.3737,0.1616,-1023.19,-1530.52,-952.88
6960,-3.8712,0.3553,0.1974,-163.82,688.17,-1702.82
6970,-3.8711,0.3479,0.2413,1492.43,1266.30,-1296.51
6980,-3.8710,0.3517,0.2750,539.31,-1108.70,-1312.07
6990,-3.8708,0.3612,0.2897,1023.68,-796.20,937.99
7000,-3.8708,0.3733,0.2900,-1757.57,1078.80,1547.42
7010,-3.8708,0.3893,0.2880,-210.69,1125.67,1406.80
7020,-3.8708,0.4102,0.2924,1836.18,860.11,1047.42
7030,-3.8708,0.4358,0.3007,508.06,1422.67,703.67
7040,-3.8708,0.4595,0.3088,-210.69,-1514.83,781.80
7050,-3.8708,0.4755,0.3141,-1179.44,-467.90,938.05
7060,-3.8708,0.4832,0.3163,867.43,204.04,828.74
7070,-3.8708,0.4814,0.3212,1851.81,485.29,813.11
7080,-3.8708,0.4734,0.3312,1633.06,1110.29,1344.36
7090,-3.8708,0.4658,0.3430,601.81,-1608.46,-1640.01
7100,-3.8708,0.4594,0.3536,-366.94,-92.90,-358.76
7110,-3.8707,0.4531,0.3624,-1195.07,1266.48,750.67
7120,-3.8707,0.4464,0.3691,-1991.94,-1608.52,1297.55
7130,-3.8707,0.4353,0.3741,1148.68,-749.15,1110.05
7140,-3.8707,0.4199,0.3755,-273.19,-108.58,78.80
7150,-3.8708,0.4052,0.3687,1758.06,63.29,-1421.14
7160,-3.8708,0.3906,0.3572,-132.57,-811.77,1188.17
7170,-3.8708,0.3698,0.3490,-1991.94,1719.48,94.42
7180,-3.8710,0.3400,0.3470,-663.82,672.55,-655.58
7190,-3.8710,0.3051,0.3496,-476.32,422.49,-1280.58
7200,-3.8710,0.2681,0.3507,-945.07,750.55,1969.42
7210,-3.8710,0.2341,0.3466,-1679.44,891.11,1219.42
7220,-3.8710,0.2102,0.3365,1976.81,359.80,328.80
7230,-3.8711,0.2008,0.3217,-1085.69,-921.51,-999.39
7240,-3.8711,0.2034,0.3047,1711.18,1172.24,1219.36
7250,-3.8712,0.2085,0.2910,-1960.69,-999.63,-671.33
7260,-3.8712,0.2122,0.2845,-1304.44,1250.37,1609.92
7270,-3.8713,0.2190,0.2830,-835.69,422.24,-155.70
7280,-3.8713,0.2334,0.2821,39.31,219.18,1906.80
7290,-3.8713,0.2554,0.2827,1883.06,109.80,141.17
7300,-3.8715,0.2798,0.2883,695.56,187.99,-702.58
7310,-3.8713,0.2950,0.3004,-179.44,906.74,563.05
7320,-3.8712,0.2915,0.3214,1773.68,-1546.33,234.92
7330,-3.8711,0.2740,0.3472,1320.56,1141.17,1313.11
7340,-3.8710,0.2572,0.3635,-913.82,437.99,-1546.20
7350,-3.8708,0.2465,0.3623,929.93,-1468.26,-1249.33
7360,-3.8707,0.2382,0.3516,-445.07,-1624.57,1594.42
7370,-3.8707,0.2310,0.3413,-1507.57,1000.43,-889.95
7380,-3.8706,0.2241,0.3378,1570.56,-312.07,375.61
7390,-3.8706,0.2151,0.3451,695.56,-765.20,-1499.39
7400,-3.8705,0.2046,0.3605,-460.69,172.24,1500.67
7410,-3.8704,0.1962,0.3801,-1804.44,-1859.01,766.30
7420,-3.8702,0.1940,0.4025,1117.43,656.62,0.73
7430,-3.8702,0.2007,0.4233,836.18,-484.01,-1218.02
7440,-3.8701,0.2124,0.4376,1695.56,-1812.13,469.54
7450,-3.8701,0.2188,0.4454,-804.44,15.99,750.85
7460,-3.8701,0.2098,0.4487,8.06,1016.05,94.60
7470,-3.8702,0.1831,0.4462,-1132.57,1437.87,-1046.02
7480,-3.8702,0.1421,0.4343,-554.44,1109.68,1157.10
7490,-3.8704,0.0946,0.4147,-1804.44,-406.01,-952.33
7500,-3.8704,0.0479,0.3917,117.43,1078.31,1016.42
7510,-3.8705,0.0016,0.3726,-1866.94,-1859.31,-952.39
7520,-3.8705,-0.0375,0.3645,211.18,-312.50,1500.67
7530,-3.8705,-0.0597,0.3721,-788.82,-1328.25,844.42
7540,-3.8705,-0.0686,0.3955,367.43,-359.50,969.42
7550,-3.8705,-0.0723,0.4266,-773.19,-1359.56,1531.98
7560,-3.8705,-0.0743,0.4481,-1241.94,-1375.18,-1874.21
7570,-3.8705,-0.0757,0.4484,-1507.57,1374.82,-1280.40
7580,-3.8705,-0.0756,0.4298,-1679.44,1406.07,-1358.52
7590,-3.8705,-0.0721,0.4008,-1663.82,-968.93,532.04
7600,-3.8706,-0.0618,0.3732,-1226.32,-687.68,844.48
7610,-3.8707,-0.0463,0.3605,101.81,-218.87,1203.80
7620,-3.8708,-0.0339,0.3652,-1913.82,-1843.87,-1343.08
7630,-3.8708,-0.0291,0.3754,-335.69,-1234.50,1203.80
7640,-3.8708,-0.0310,0.3762,289.31,62.44,313.23
7650,-3.8710,-0.0371,0.3641,39.31,171.81,-733.64
7660,-3.8710,-0.0454,0.3459,-741.94,-1375.12,1531.92
7670,-3.8711,-0.0530,0.3284,-1804.44,296.75,-718.08
7680,-3.8711,-0.0526,0.3110,1226.81,-1953.25,578.74
7690,-3.8712,-0.0437,0.2903,1273.68,-172.00,1250.55
7700,-3.8713,-0.0349,0.2646,-1585.69,1171.75,875.55
7710,-3.8716,-0.0280,0.2355,-460.69,1890.50,-124.51
7720,-3.8717,-0.0150,0.2148,429.93,-1843.81,-405.82
7730,-3.8717,0.0173,0.2134,-1913.82,-484.44,1219.12
7740,-3.8717,0.0714,0.2262,-1773.19,-687.50,1015.99
7750,-3.8717,0.1294,0.2458,1148.68,953.25,1844.18
7760,-3.8717,0.1672,0.2681,570.56,-531.01,-1249.57
7770,-3.8717,0.1785,0.2830,1414.31,-1687.19,-358.89
7780,-3.8716,0.1722,0.2809,-1148.19,219.06,516.17
7790,-3.8716,0.1537,0.2605,-1945.07,-46.57,1172.36
7800,-3.8716,0.1263,0.2281,-320.07,1343.99,1297.36
7810,-3.8716,0.0973,0.1959,179.93,1203.37,719.18
7820,-3.8717,0.0707,0.1713,461.18,1078.31,-187.13
7830,-3.8717,0.0519,0.1497,1054.93,1922.00,-1296.57
7840,-3.8717,0.0459,0.1299,-1351.32,-843.69,1625.24
7850,-3.8717,0.0492,0.1158,1883.06,625.06,687.74
7860,-3.8718,0.0565,0.1074,-1695.07,-1171.81,-359.19
7870,-3.8718,0.0671,0.1014,-757.57,1750.06,-1515.44
7880,-3.8718,0.0775,0.0950,601.81,984.50,890.81
7890,-3.8719,0.0811,0.0872,1929.93,156.37,-1296.69
7900,-3.8721,0.0778,0.0754,-1616.94,-843.63,-218.63
7910,-3.8721,0.0725,0.0586,1961.18,1656.37,47.00
7920,-3.8723,0.0686,0.0402,1289.31,-499.88,-328.06
7930,-3.8724,0.0696,0.0253,789.31,1140.75,-1390.56
7940,-3.8726,0.0831,0.0139,914.31,-765.50,1250.00
7950,-3.8727,0.1146,0.0031,-1351.32,1781.37,609.38
7960,-3.8728,0.1573,-0.0068,-1320.07,390.81,1562.50
7970,-3.8728,0.1938,-0.0148,148.68,-874.69,15.56
7980,-3.8729,0.2097,-0.0214,820.56,-1890.26,-406.31
7990,-3.8728,0.1935,-0.0253,-1148.19,1265.99,265.56
8000,-3.8728,0.1403,-0.0282,773.68,765.99,1749.94
8010,-3.8727,0.0723,-0.0406,1961.18,390.87,46.81
8020,-3.8727,0.0249,-0.0673,1258.06,-1203.00,-1343.87
8030,-3.8726,0.0164,-0.0975,-804.44,-609.38,734.19
8040,-3.8726,0.0408,-0.1210,-1898.19,-484.38,1687.26
8050,-3.8726,0.0829,-0.1337,1226.81,515.69,1749.76
8060,-3.8726,0.1279,-0.1324,-1382.57,-1109.25,1796.57
8070,-3.8726,0.1600,-0.1188,383.06,-952.88,-1609.68
8080,-3.8726,0.1710,-0.1005,492.43,797.18,-15.87
8090,-3.8724,0.1680,-0.0867,1898.68,-859.07,-1062.74
8100,-3.8723,0.1654,-0.0789,1508.06,906.56,-1062.68
8110,-3.8722,0.1730,-0.0752,1179.93,1906.56,-1312.68
8120,-3.8721,0.1962,-0.0719,-1851.32,-1624.69,1281.07
8130,-3.8721,0.2295,-0.0684,1117.43,-1202.76,-1343.93
8140,-3.8721,0.2588,-0.0671,1383.06,-749.57,-593.93
8150,-3.8719,0.2748,-0.0643,1133.06,-593.26,249.82
8160,-3.8719,0.2744,-0.0565,-820.07,-233.89,406.07
8170,-3.8721,0.2643,-0.0491,-866.94,766.11,-422.00
8180,-3.8721,0.2571,-0.0436,1836.18,1719.24,-1031.37
8190,-3.8721,0.2593,-0.0309,914.31,-1577.64,-1031.37
8200,-3.8721,0.2731,-0.0087,1195.56,47.36,-921.94
8210,-3.8721,0.2969,0.0098,-1038.82,-1108.89,-1031.31
8220,-3.8721,0.3274,0.0146,-1991.94,1250.55,-687.50
8230,-3.8719,0.3660,0.0170,1914.31,1875.61,609.38
8240,-3.8719,0.4080,0.0319,-1148.19,-1827.45,-1812.50
8250,-3.8719,0.4427,0.0658,226.81,78.92,-15.56
8260,-3.8718,0.4681,0.1089,679.93,422.73,-1562.38
8270,-3.8717,0.4873,0.1488,-70.07,1938.35,1812.68
8280,-3.8716,0.4991,0.1886,-1616.94,-952.21,1718.99
8290,-3.8715,0.5082,0.2235,-101.32,141.54,1109.74
8300,-3.8715,0.5262,0.2379,1054.93,610.35,-515.20
8310,-3.8713,0.5527,0.2288,-632.57,-1545.90,562.93
8320,-3.8715,0.5757,0.2057,-1241.94,1282.29,-62.07
8330,-3.8715,0.5913,0.1787,1695.56,-1670.78,1953.49
8340,-3.8715,0.5978,0.1534,-304.44,-1123.90,94.06
8350,-3.8716,0.5873,0.1317,523.68,-358.22,-796.63
8360,-3.8716,0.5603,0.1222,-820.07,860.47,-593.51
8370,-3.8715,0.5276,0.1353,-273.19,-358.34,1109.56
8380,-3.8713,0.4979,0.1643,-460.69,1313.48,422.12
8390,-3.8712,0.4784,0.1920,-257.57,1032.17,62.81
8400,-3.8712,0.4771,0.2058,1242.43,579.04,-1468.38
8410,-3.8712,0.4919,0.2056,1070.56,-1655.33,-734.01
8420,-3.8712,0.5066,0.1996,-1023.19,-1686.58,-1359.01
8430,-3.8712,0.5114,0.1909,851.81,1547.85,1015.99
8440,-3.8713,0.5114,0.1781,1461.18,438.48,-1015.26
8450,-3.8713,0.5061,0.1685,1461.18,-1202.15,1500.31
8460,-3.8713,0.4904,0.1696,789.31,1563.48,812.81
8470,-3.8713,0.4666,0.1761,-1226.32,1704.04,687.81
8480,-3.8713,0.4346,0.1815,-273.19,-1452.27,1281.56
8490,-3.8713,0.3977,0.1844,-366.94,-764.83,-1734.07
8500,-3.8713,0.3688,0.1870,-1085.69,-389.89,-952.82
8510,-3.8713,0.3560,0.1937,-788.82,-61.83,-327.82
8520,-3.8712,0.3568,0.2090,1570.56,797.55,437.87
8530,-3.8712,0.3722,0.2358,1679.93,-1249.33,1625.37
8540,-3.8712,0.4047,0.2738,-351.32,-1811.83,-155.82
8550,-3.8711,0.4429,0.3156,-195.07,-952.39,-780.76
8560,-3.8710,0.4747,0.3517,695.56,391.48,-765.01
8570,-3.8708,0.4937,0.3774,773.68,1016.54,-671.20
8580,-3.8707,0.4963,0.3879,-804.44,313.42,-1749.27
8590,-3.8707,0.4852,0.3850,-460.69,1657.17,-483.64
8600,-3.8707,0.4641,0.3772,-1882.57,1282.17,-311.77
8610,-3.8707,0.4382,0.3740,-585.69,282.10,-889.89
8620,-3.8707,0.4165,0.3816,101.81,-124.15,-1639.95
8630,-3.8707,0.4048,0.3954,1320.56,844.54,-1905.52
8640,-3.8707,0.4020,0.4065,-179.44,-1389.89,-1780.52
8650,-3.8707,0.4037,0.4114,-538.82,31.98,-1608.58
8660,-3.8707,0.4109,0.4099,-320.07,656.98,-1717.96
8670,-3.8707,0.4243,0.4070,601.81,469.54,1547.67
8680,-3.8707,0.4358,0.4117,-1679.44,94.54,141.42
8690,-3.8708,0.4366,0.4248,-210.69,703.92,-1452.33
8700,-3.8708,0.4263,0.4374,-101.32,-1624.21,1141.42
8710,-3.8710,0.4117,0.4418,-1429.44,-14.83,-530.46
8720,-3.8710,0.4025,0.4355,711.18,547.67,813.35
8730,-3.8711,0.4036,0.4246,-476.32,-249.27,1469.54
8740,-3.8712,0.4120,0.4183,-335.69,-1655.52,-1608.58
8750,-3.8713,0.4196,0.4193,742.43,1547.67,-124.21
8760,-3.8713,0.4250,0.4240,1711.18,1672.67,-1733.58
8770,-3.8713,0.4235,0.4324,-1585.69,-1733.58,-1921.08
8780,-3.8713,0.4031,0.4468,-1788.82,-655.46,-780.46
8790,-3.8712,0.3669,0.4613,-398.19,1188.23,1407.10
8800,-3.8712,0.3274,0.4662,-1023.19,-952.45,-171.02
8810,-3.8711,0.2926,0.4614,1914.31,-327.51,1610.23
8820,-3.8711,0.2683,0.4537,1461.18,-936.95,-1296.02
8830,-3.8711,0.2601,0.4479,-1648.19,-1921.39,-186.65
8840,-3.8710,0.2672,0.4460,1304.93,1328.61,1594.60
8850,-3.8710,0.2787,0.4490,-1788.82,1094.24,-108.52
8860,-3.8708,0.2849,0.4584,-320.07,1469.24,-1780.40
8870,-3.8707,0.2823,0.4751,476.81,-1327.58,438.35
8880,-3.8707,0.2698,0.4968,148.68,813.05,-1030.33
8890,-3.8706,0.2479,0.5194,-1460.69,-405.76,-1624.08
8900,-3.8705,0.2194,0.5352,-257.57,-1515.20,-1639.65
8910,-3.8704,0.1886,0.5339,86.18,500.43,1641.66
8920,-3.8704,0.1583,0.5138,148.68,344.12,-842.71
8930,-3.8704,0.1282,0.4824,273.68,1765.93,-1358.40
8940,-3.8704,0.0999,0.4525,414.31,1750.24,969.67
8950,-3.8705,0.0758,0.4325,789.31,1922.06,-639.77
8960,-3.8705,0.0597,0.4203,1711.18,-640.50,-1811.71
8970,-3.8705,0.0540,0.4127,-351.32,1796.94,1141.42
8980,-3.8706,0.0598,0.4095,-1085.69,828.19,-436.71
8990,-3.8706,0.0745,0.4137,-335.69,421.94,1453.92
9000,-3.8707,0.0887,0.4326,1539.31,953.25,-186.71
9010,-3.8707,0.0959,0.4663,-632.57,-624.88,-733.58
9020,-3.8706,0.0969,0.5018,289.31,-312.32,32.10
9030,-3.8706,0.0951,0.5238,414.31,234.56,1922.85
9040,-3.8706,0.0941,0.5266,179.93,-952.94,-311.52
9050,-3.8706,0.0916,0.5134,54.93,-593.57,-249.02
9060,-3.8706,0.0846,0.4862,-273.19,1718.87,1532.23
9070,-3.8707,0.0769,0.4493,-1163.82,-1765.50,1938.42
9080,-3.8708,0.0653,0.4103,1851.81,1515.75,-1889.77
9090,-3.8710,0.0471,0.3776,367.43,515.75,-1342.96
9100,-3.8710,0.0287,0.3577,-1960.69,328.19,203.86
9110,-3.8711,0.0142,0.3527,-320.07,1781.25,-983.70
9120,-3.8711,0.0048,0.3564,1820.56,1140.62,-1358.70
9130,-3.8711,0.0043,0.3601,617.43,1625.00,-1202.45
9140,-3.8711,0.0142,0.3627,554.93,-1906.25,-905.58
9150,-3.8711,0.0312,0.3613,1820.56,-1578.12,-1358.70
9160,-3.8711,0.0500,0.3522,8.06,-1749.94,1141.30
9170,-3.8712,0.0669,0.3357,-1585.69,1078.19,-1077.45
9180,-3.8713,0.0778,0.3138,570.56,-1031.13,-249.39
9190,-3.8715,0.0817,0.2814,1961.18,172.00,-171.26
9200,-3.8715,0.0785,0.2386,-1538.82,15.75,172.42
9210,-3.8716,0.0708,0.1953,-1945.07,-1453.00,937.93
9220,-3.8717,0.0657,0.1573,1070.56,1000.12,1937.87
9230,-3.8718,0.0646,0.1294,414.31,140.75,-1046.57
9240,-3.8718,0.0608,0.1178,273.68,562.62,765.87
9250,-3.8719,0.0524,0.1289,-210.69,-921.81,-187.32
9260,-3.8719,0.0535,0.1582,-1288.82,500.06,-93.51
9270,-3.8718,0.0682,0.1901,-1148.19,250.06,1297.18
9280,-3.8718,0.0859,0.2161,742.43,328.25,-859.01
9290,-3.8717,0.1050,0.2314,-991.94,-343.63,344.12
9300,-3.8717,0.1278,0.2332,1445.56,1625.18,1562.93
9310,-3.8717,0.1492,0.2328,367.43,1843.99,-671.45
9320,-3.8716,0.1584,0.2391,-898.19,1797.12,578.55
9330,-3.8716,0.1522,0.2457,289.31,-1390.32,937.93
9340,-3.8716,0.1365,0.2440,-507.57,-546.63,656.68
9350,-3.8716,0.1161,0.2329,1476.81,-765.38,281.68
9360,-3.8716,0.0917,0.2262,-1132.57,1812.68,1016.05
9370,-3.8716,0.0631,0.2294,-257.57,953.25,-718.32
9380,-3.8715,0.0371,0.2281,86.18,1359.50,1656.68
9390,-3.8715,0.0239,0.2109,758.06,1203.19,-1952.70
9400,-3.8716,0.0276,0.1810,-929.44,-1000.00,-93.38
9410,-3.8716,0.0437,0.1515,-460.69,-828.12,0.31
9420,-3.8718,0.0640,0.1306,1601.81,-609.31,-531.01
9430,-3.8719,0.0844,0.1156,195.56,718.87,-734.13
9440,-3.8721,0.1022,0.1001,-1195.07,-1203.00,-46.69
9450,-3.8721,0.1143,0.0842,1086.18,812.68,1718.93
9460,-3.8721,0.1196,0.0732,-1366.94,-1218.57,343.87
9470,-3.8722,0.1208,0.0656,-679.44,1375.18,-843.63
9480,-3.8722,0.1213,0.0542,-523.19,390.81,1812.62
9490,-3.8722,0.1193,0.0382,-460.69,-1062.32,343.81
9500,-3.8723,0.1139,0.0219,-726.32,890.81,-1187.44
9510,-3.8723,0.1079,0.0067,-1413.82,-1202.94,1734.38
9520,-3.8723,0.1005,-0.0094,1820.56,859.56,1328.12
9530,-3.8723,0.0918,-0.0266,867.43,-1202.94,1249.94
9540,-3.8723,0.0865,-0.0457,-241.94,593.87,1124.94
9550,-3.8723,0.0870,-0.0643,-913.82,-1843.63,781.13
9560,-3.8723,0.0914,-0.0745,-851.32,-234.25,499.82
9570,-3.8723,0.0980,-0.0753,-288.82,-1531.13,218.57
9580,-3.8724,0.1067,-0.0759,554.93,-1640.44,-468.93
9590,-3.8724,0.1165,-0.0808,1664.31,-1718.57,-1312.68
9600,-3.8724,0.1248,-0.0872,-1085.69,1656.43,-1968.93
9610,-3.8724,0.1304,-0.0925,-23.19,843.93,1937.32
9620,-3.8724,0.1355,-0.0927,695.56,156.49,-1609.56
9630,-3.8724,0.1415,-0.0845,1351.81,140.87,-406.43
9640,-3.8723,0.1440,-0.0682,-1882.57,1187.74,1827.94
9650,-3.8722,0.1431,-0.0493,-1554.44,-734.13,343.57
9660,-3.8722,0.1466,-0.0387,-1679.44,1687.74,-1984.50
9670,-3.8722,0.1610,-0.0399,-1226.32,-952.88,-1297.00
9680,-3.8722,0.1863,-0.0465,617.43,-1109.07,-1203.25
9690,-3.8722,0.2164,-0.0514,-148.19,-1952.82,-1625.12
9700,-3.8722,0.2446,-0.0474,-288.82,1422.24,1984.25
9710,-3.8722,0.2699,-0.0338,-679.44,1937.93,-1953.25
9720,-3.8722,0.2947,-0.0162,-1445.07,-327.64,-1281.37
9730,-3.8722,0.3148,-0.0028,1726.81,1922.42,-234.44
9740,-3.8721,0.3309,0.0006,304.93,-358.76,609.31
9750,-3.8721,0.3492,0.0002,-1632.57,78.74,1890.62
9760,-3.8721,0.3671,0.0074,711.18,31.92,-671.88
9770,-3.8721,0.3796,0.0184,-1007.57,953.80,-515.62
9780,-3.8721,0.3894,0.0225,601.81,-1639.89,-1171.88
9790,-3.8721,0.3949,0.0204,1851.81,-1124.27,-1031.25
9800,-3.8721,0.3887,0.0194,-1445.07,-1389.89,-296.88
9810,-3.8719,0.3767,0.0200,1758.06,-1514.89,234.38
9820,-3.8719,0.3698,0.0231,226.81,-1436.77,343.75
9830,-3.8719,0.3724,0.0331,-663.82,-1046.20,500.00
9840,-3.8719,0.3853,0.0519,-320.07,235.05,1796.94
9850,-3.8718,0.4014,0.0791,1320.56,-1358.64,46.94
9860,-3.8718,0.4176,0.1152,-616.94,-1874.27,-1687.38
9870,-3.8717,0.4417,0.1549,1461.18,-1249.21,187.68
9880,-3.8717,0.4769,0.1830,539.31,-171.02,1140.87
9890,-3.8717,0.5139,0.1909,1054.93,-577.21,719.06
9900,-3.8718,0.5381,0.1827,1789.31,438.48,-62.13
9910,-3.8718,0.5375,0.1694,883.06,-608.34,-234.07
9920,-3.8717,0.5215,0.1719,804.93,1688.54,453.43
9930,-3.8717,0.5089,0.1942,-1241.94,-1999.02,-1484.07
9940,-3.8716,0.5012,0.2205,1148.68,860.35,-1874.63
9950,-3.8715,0.4939,0.2471,164.31,219.73,-1733.95
9960,-3.8713,0.4904,0.2704,-773.19,-374.08,1641.05
9970,-3.8712,0.4901,0.2880,-1226.32,-1389.71,531.74
9980,-3.8712,0.4908,0.3029,-1257.57,860.29,-1296.33
9990,-3.8712,0.4974,0.3085,-1163.82,-1233.46,-921.33
10000,-3.8712,0.5126,0.2987,-320.07,-514.71,1359.92
10010,-3.8713,0.5297,0.2750,1617.43,-1764.65,1859.92
10020,-3.8715,0.5399,0.2437,-195.07,-795.90,1641.11
10030,-3.8716,0.5398,0.2163,1117.43,-811.46,1828.55
10040,-3.8717,0.5322,0.2094,1101.81,-311.46,-546.51
10050,-3.8717,0.5245,0.2308,133.06,-1202.09,-1343.38
10060,-3.8717,0.5239,0.2767,-851.32,1547.85,-608.95
10070,-3.8716,0.5352,0.3478,-929.44,-577.15,1891.11
10080,-3.8715,0.5591,0.4396,508.06,516.66,1625.67
10090,-3.8713,0.6073,0.5330,-429.44,266.66,-1436.65
10100,-3.8711,0.6870,0.6039,1742.43,219.91,1141.66
10110,-3.8710,0.7777,0.6293,-54.44,1298.16,-1139.47
10120,-3.8710,0.8503,0.6019,-445.07,548.34,-420.65
10130,-3.8711,0.8785,0.5341,851.81,1048.52,-1045.72
10140,-3.8713,0.8491,0.4502,461.18,361.08,-264.59
10150,-3.8715,0.7714,0.3788,695.56,1626.65,1203.98
10160,-3.8716,0.6697,0.3409,-1257.57,485.84,1688.23
10170,-3.8716,0.5779,0.3411,1726.81,-358.09,-1843.14
10180,-3.8715,0.5159,0.3678,1976.81,-342.65,-1905.64
10190,-3.8713,0.4758,0.4048,-1960.69,-920.90,-546.20
10200,-3.8711,0.4443,0.4387,914.31,-186.58,531.98
10210,-3.8710,0.4222,0.4615,883.06,157.10,969.60
10220,-3.8708,0.4148,0.4703,-1945.07,-921.08,532.10
10230,-3.8708,0.4237,0.4684,1101.81,203.92,-1264.71
10240,-3.8708,0.4437,0.4633,-1757.57,-46.08,-467.90
10250,-3.8708,0.4587,0.4615,804.93,-702.27,-671.02
10260,-3.8708,0.4597,0.4645,-1273.19,-921.02,-1499.15
10270,-3.8708,0.4480,0.4689,-1148.19,-546.02,1532.10
10280,-3.8708,0.4287,0.4753,1351.81,16.48,1032.17
10290,-3.8708,0.4119,0.4871,-1116.94,844.54,1079.04
10300,-3.8708,0.4009,0.5037,726.81,-1655.46,1500.92
10310,-3.8708,0.3910,0.5227,-679.44,469.48,-1686.52
10320,-3.8708,0.3801,0.5397,-1945.07,-1093.02,-592.77
10330,-3.8707,0.3691,0.5474,664.31,1078.86,547.91
10340,-3.8707,0.3615,0.5449,-741.94,-1936.83,1454.16
10350,-3.8707,0.3610,0.5353,-1726.32,1750.67,1329.16
10360,-3.8707,0.3625,0.5236,-1788.82,516.30,344.79
10370,-3.8708,0.3586,0.5164,-1585.69,-983.70,-295.90
10380,-3.8708,0.3470,0.5167,1914.31,-1905.58,-233.40
10390,-3.8707,0.3376,0.5247,429.93,-1858.70,172.85
10400,-3.8707,0.3385,0.5349,-773.19,-843.14,157.23
10410,-3.8708,0.3401,0.5383,-663.82,469.36,-358.34
10420,-3.8708,0.3284,0.5319,-460.69,906.86,-1030.21
10430,-3.8708,0.3013,0.5204,-1960.69,78.74,1938.54
10440,-3.8708,0.2681,0.5123,-1429.44,-1390.08,1110.35
10450,-3.8708,0.2401,0.5140,-1679.44,1578.61,1844.73
10460,-3.8708,0.2178,0.5233,-1257.57,1797.30,-514.65
10470,-3.8707,0.1987,0.5305,-116.94,-1015.26,782.23
10480,-3.8707,0.1880,0.5306,1445.56,-93.38,1500.98
10490,-3.8707,0.1821,0.5250,70.56,-77.76,610.35
10500,-3.8708,0.1726,0.5149,-679.44,-796.57,1907.23
10510,-3.8710,0.1547,0.5012,-1898.19,1906.56,-1858.40
10520,-3.8711,0.1243,0.4858,-195.07,156.49,-1311.52
10530,-3.8711,0.0809,0.4738,-85.69,-1812.32,688.42
10540,-3.8712,0.0348,0.4731,-1632.57,640.75,-249.08
10550,-3.8712,0.0038,0.4841,461.18,562.56,-405.33
10560,-3.8712,-0.0018,0.4962,492.43,1968.75,-61.58
10570,-3.8712,0.0071,0.5021,-226.32,-468.81,-14.71
10580,-3.8712,0.0063,0.5060,914.31,265.62,-45.90
10590,-3.8711,-0.0176,0.5099,820.56,765.62,375.98
10600,-3.8711,-0.0573,0.5076,1758.06,1281.19,1047.85
10610,-3.8711,-0.1000,0.4991,679.93,984.25,1766.60
10620,-3.8711,-0.1375,0.4834,-788.82,-93.99,-1624.08
10630,-3.8711,-0.1656,0.4612,-1585.69,1890.32,-1499.08
10640,-3.8711,-0.1880,0.4454,-1195.07,-953.49,1969.60
10650,-3.8711,-0.2074,0.4395,-54.44,1030.82,1250.85
10660,-3.8711,-0.2214,0.4323,1461.18,265.20,1110.23
10670,-3.8711,-0.2255,0.4182,-335.69,-656.74,1422.67
10680,-3.8711,-0.2195,0.3999,-851.32,1546.39,1266.42
10690,-3.8712,-0.2087,0.3821,-85.69,-797.36,-61.77
10700,-3.8712,-0.1936,0.3677,1289.31,921.45,1578.86
10710,-3.8713,-0.1759,0.3572,-773.19,-922.30,-874.33
10720,-3.8713,-0.1624,0.3466,1492.43,1734.01,1110.05
10730,-3.8715,-0.1583,0.3302,-773.19,374.63,-468.08
10740,-3.8715,-0.1600,0.3104,-257.57,-1719.12,-1843.14
10750,-3.8715,-0.1633,0.2924,-476.32,-250.37,516.17
10760,-3.8716,-0.1650,0.2771,-898.19,1437.13,-1093.20
10770,-3.8716,-0.1615,0.2664,-1116.94,-515.99,1734.86
10780,-3.8716,-0.1534,0.2583,-663.82,-1890.99,469.24
10790,-3.8717,-0.1436,0.2477,367.43,1077.82,-1265.14
10800,-3.8717,-0.1326,0.2318,1633.06,-281.56,812.93
10810,-3.8718,-0.1200,0.2152,-960.69,1687.19,-890.20
10820,-3.8718,-0.1099,0.2035,648.68,-437.74,1375.37
10830,-3.8719,-0.1055,0.1943,1945.56,-1937.74,-390.26
10840,-3.8719,-0.1050,0.1835,-1491.94,890.38,-1671.51
10850,-3.8719,-0.1034,0.1711,-1429.44,-500.24,1187.81
10860,-3.8721,-0.0992,0.1594,-1226.32,1921.63,-109.07
10870,-3.8721,-0.0935,0.1484,-695.07,421.63,-1218.44
10880,-3.8721,-0.0861,0.1350,39.31,-984.56,1812.74
10890,-3.8721,-0.0786,0.1183,992.43,1296.69,734.62
10900,-3.8722,-0.0730,0.1033,1945.56,-843.93,-437.32
10910,-3.8722,-0.0686,0.0934,-1335.69,1234.19,-1281.07
10920,-3.8722,-0.0642,0.0869,-773.19,-31.43,-1562.38
10930,-3.8722,-0.0610,0.0839,-210.69,-859.56,-1374.88
10940,-3.8722,-0.0564,0.0803,195.56,-1250.12,-937.38
10950,-3.8722,-0.0477,0.0740,789.31,-1703.25,-484.25
10960,-3.8722,-0.0381,0.0686,1898.68,1484.25,-171.75
10970,-3.8722,-0.0269,0.0614,-866.94,796.75,-140.50
10980,-3.8722,-0.0148,0.0503,570.56,-125.06,-234.31
10990,-3.8722,-0.0085,0.0400,-1882.57,-1546.94,-156.19
11000,-3.8722,-0.0131,0.0342,-1085.69,1140.56,-31.19
11010,-3.8722,-0.0245,0.0300,-1663.82,390.56,-46.81
11020,-3.8721,-0.0316,0.0233,867.43,-140.69,78.12
11030,-3.8721,-0.0284,0.0120,-38.82,-1000.12,171.88
11040,-3.8722,-0.0206,0.0022,367.43,1546.81,-93.75
11050,-3.8722,-0.0155,-0.0009,1367.43,296.81,-609.38
11060,-3.8722,-0.0129,0.0006,-1976.32,-93.81,-937.56
11070,-3.8722,-0.0073,0.0039,-1648.19,93.69,-828.12
11080,-3.8722,0.0034,0.0028,-929.44,515.56,-515.62
11090,-3.8722,0.0166,-0.0072,445.56,359.38,-468.75
11100,-3.8722,0.0304,-0.0217,-1866.94,-921.88,-1187.56
11110,-3.8722,0.0474,-0.0387,-101.32,1218.75,1484.31
11120,-3.8722,0.0667,-0.0541,-1929.44,-953.06,406.13
11130,-3.8722,0.0767,-0.0535,539.31,1078.25,328.00
11140,-3.8722,0.0723,-0.0305,1820.56,1156.37,1921.75
11150,-3.8721,0.0612,0.0105,1258.06,93.87,1421.81
11160,-3.8719,0.0540,0.0551,-163.82,1343.81,1828.12
11170,-3.8718,0.0680,0.0815,-1085.69,-953.06,1937.56
11180,-3.8717,0.1095,0.0818,711.18,-1562.38,953.25
11190,-3.8717,0.1581,0.0591,-1976.32,-1531.07,1656.37
11200,-3.8718,0.1907,0.0269,242.43,-437.19,-374.94
11210,-3.8718,0.2003,0.0029,414.31,-562.13,15.62
11220,-3.8719,0.1919,-0.0077,1648.68,375.37,93.75
11230,-3.8721,0.1722,-0.0068,570.56,-984.01,1453.06
11240,-3.8721,0.1442,0.0031,-1945.07,-874.69,1187.44
11250,-3.8721,0.1193,0.0182,-1538.82,390.87,-703.12
11260,-3.8719,0.1083,0.0394,-726.32,-1671.69,-1078.12
11270,-3.8718,0.1055,0.0702,1867.43,1047.06,-734.31
11280,-3.8716,0.1061,0.1057,1508.06,984.56,0.12
11290,-3.8716,0.1145,0.1322,1586.18,1531.43,-15.44
11300,-3.8715,0.1326,0.1409,-1335.69,922.06,-1687.26
11310,-3.8715,0.1558,0.1320,976.81,-1968.51,-1359.13
11320,-3.8715,0.1821,0.1095,-54.44,890.87,1125.24
11330,-3.8716,0.2114,0.0844,-679.44,-1984.07,-1359.19
11340,-3.8716,0.2347,0.0659,-929.44,-1202.76,343.87
11350,-3.8717,0.2416,0.0590,-1945.07,437.93,-468.63
11360,-3.8716,0.2417,0.0637,-1070.07,-452.70,609.44
11370,-3.8716,0.2588,0.0779,-1054.44,156.68,-874.88
11380,-3.8715,0.2992,0.0972,1133.06,1969.24,-1359.25
11390,-3.8713,0.3506,0.1104,-1695.07,438.05,-1718.57
11400,-3.8712,0.3994,0.1062,883.06,-1874.33,937.68
11410,-3.8712,0.4349,0.0863,-866.94,1594.48,-1546.69
11420,-3.8712,0.4495,0.0638,-320.07,-952.33,-1015.50
11430,-3.8712,0.4354,0.0486,1539.31,172.73,-1624.88
11440,-3.8712,0.3916,0.0396,-257.57,-1780.46,953.19
11450,-3.8713,0.3318,0.0330,-1866.94,1063.23,-62.44
11460,-3.8712,0.2776,0.0327,-1523.19,219.36,390.69
11470,-3.8712,0.2458,0.0413,-460.69,187.99,1687.56
11480,-3.8712,0.2438,0.0474,-523.19,1281.68,1937.56
11490,-3.8712,0.2738,0.0438,-788.82,-1937.07,-1687.44
11500,-3.8711,0.3206,0.0443,-945.07,1609.86,62.56
11510,-3.8711,0.3549,0.0579,1039.31,1672.49,1937.56
11520,-3.8710,0.3655,0.0834,1429.93,-593.08,156.31
11530,-3.8710,0.3542,0.1144,-1210.69,-1327.45,-1124.88
11540,-3.8708,0.3267,0.1399,1351.81,-1358.70,1687.68
11550,-3.8708,0.2914,0.1555,1820.56,1906.86,-31.01
11560,-3.8707,0.2573,0.1682,1304.93,-93.20,1078.37
11570,-3.8707,0.2323,0.1862,945.56,1531.74,1344.06
11580,-3.8707,0.2258,0.2018,1742.43,-171.45,1515.93
11590,-3.8707,0.2411,0.2086,914.31,1828.55,-1843.38
11600,-3.8707,0.2670,0.2098,-1132.57,-1296.45,-1218.38
11610,-3.8707,0.2968,0.2072,-1820.07,-1140.14,-1218.38
11620,-3.8707,0.3273,0.2062,1992.43,-1483.83,-984.01
11630,-3.8706,0.3472,0.2208,1898.68,-1608.76,15.99
11640,-3.8706,0.3519,0.2571,445.56,266.30,1594.18
11650,-3.8705,0.3464,0.3025,1054.93,906.92,359.86
11660,-3.8704,0.3358,0.3447,351.81,-1280.58,141.17
11670,-3.8704,0.3247,0.3760,-1007.57,125.61,-202.45
11680,-3.8702,0.3169,0.3923,1570.56,125.61,-1389.89
11690,-3.8701,0.3115,0.3981,570.56,-1780.64,203.86
11700,-3.8701,0.3075,0.3959,-116.94,-1046.33,360.11
11710,-3.8702,0.3029,0.3806,-632.57,-1327.58,-889.89
11720,-3.8702,0.2960,0.3539,-1226.32,719.30,516.36
11730,-3.8704,0.2914,0.3302,1898.68,1297.42,1078.80
11740,-3.8705,0.2941,0.3218,1304.93,-1733.83,1656.86
11750,-3.8706,0.3035,0.3318,1648.68,1188.05,-1124.39
11760,-3.8706,0.3126,0.3556,-1148.19,-1530.70,297.49
11770,-3.8707,0.3168,0.3844,23.68,1516.24,1672.55
11780,-3.8708,0.3151,0.4083,554.93,1203.74,-983.64
11790,-3.8708,0.3124,0.4208,336.18,266.24,47.67
11800,-3.8710,0.3173,0.4244,-7.57,1859.92,563.29
11810,-3.8711,0.3252,0.4226,617.43,-1671.26,391.42
11820,-3.8712,0.3248,0.4196,1633.06,-1905.64,125.79
11830,-3.8713,0.3093,0.4225,1586.18,1703.74,500.79
11840,-3.8715,0.2786,0.4344,-398.19,-1921.33,1953.92
11850,-3.8715,0.2417,0.4521,-335.69,-390.14,969.54
11860,-3.8715,0.2092,0.4678,-1054.44,1875.43,1750.85
11870,-3.8715,0.1842,0.4779,-1210.69,-124.63,-233.52
11880,-3.8713,0.1605,0.4836,-413.82,1172.18,-1827.21
11890,-3.8712,0.1289,0.4838,554.93,1906.56,500.92
11900,-3.8712,0.0839,0.4790,508.06,1922.12,-795.96
11910,-3.8711,0.0298,0.4739,-1257.57,1312.62,-1108.46
11920,-3.8710,-0.0214,0.4739,-179.44,656.25,-405.33
11930,-3.8707,-0.0630,0.4727,1273.68,671.81,844.67
11940,-3.8706,-0.0983,0.4583,-54.44,515.44,1969.67
11950,-3.8705,-0.1311,0.4369,-570.07,-1328.37,-1624.15
11960,-3.8704,-0.1627,0.4213,-773.19,-62.81,-1983.58
11970,-3.8702,-0.1919,0.4115,-820.07,1937.13,1735.17
11980,-3.8701,-0.2125,0.4045,-554.44,687.07,1641.42
11990,-3.8700,-0.2191,0.4020,804.93,-203.55,688.23
12000,-3.8700,-0.2109,0.3997,-38.82,-531.74,-1921.14
12010,-3.8700,-0.1919,0.3912,1008.06,-828.55,1438.23
12020,-3.8701,-0.1752,0.3818,-554.44,-1906.68,-514.89
12030,-3.8701,-0.1710,0.3793,1586.18,890.26,1656.98
12040,-3.8701,-0.1755,0.3789,-1882.57,562.13,485.11
12050,-3.8702,-0.1768,0.3724,1539.31,515.26,-780.52
12060,-3.8702,-0.1725,0.3627,1383.06,-312.87,1141.30
12070,-3.8704,-0.1691,0.3593,1929.93,-1562.87,-1936.83
12080,-3.8705,-0.1642,0.3710,-1632.57,1999.63,-1686.83
12090,-3.8706,-0.1506,0.3982,-1007.57,-500.37,-1186.83
12100,-3.8706,-0.1261,0.4252,726.81,-1015.93,125.73
12110,-3.8707,-0.0981,0.4392,-132.57,-1562.81,-1764.83
12120,-3.8707,-0.0773,0.4407,-554.44,234.13,657.10
12130,-3.8708,-0.0654,0.4355,-1882.57,421.69,-1280.40
12140,-3.8708,-0.0587,0.4271,-366.94,-234.56,219.54
12150,-3.8710,-0.0571,0.4165,492.43,-1312.62,1344.54
12160,-3.8711,-0.0616,0.4059,695.56,1328.00,-1436.71
12170,-3.8711,-0.0692,0.3958,117.43,-31.37,375.73
12180,-3.8712,-0.0778,0.3823,-851.32,-1328.31,-1233.64
12190,-3.8712,-0.0841,0.3657,-1945.07,952.94,1250.73
12200,-3.8713,-0.0839,0.3501,1242.43,-1172.06,-624.33
12210,-3.8713,-0.0764,0.3373,1273.68,827.94,1485.05
12220,-3.8715,-0.0664,0.3319,-1773.19,-812.68,-546.26
12230,-3.8715,-0.0566,0.3331,-491.94,-1500.18,1484.99
12240,-3.8715,-0.0428,0.3284,758.06,-1343.87,375.61
12250,-3.8716,-0.0270,0.3108,-1476.32,-1953.25,-249.39
12260,-3.8716,-0.0194,0.2861,554.93,-203.19,-1108.83
12270,-3.8716,-0.0247,0.2605,1523.68,640.56,1719.30
12280,-3.8716,-0.0370,0.2350,851.81,1359.31,250.49
12290,-3.8717,-0.0492,0.2108,-726.32,-1906.37,-1452.70
12300,-3.8717,-0.0625,0.1948,1711.18,-1000.12,1453.49
12310,-3.8717,-0.0745,0.1888,8.06,953.00,1281.62
12320,-3.8717,-0.0725,0.1857,-1523.19,187.32,1453.49
12330,-3.8717,-0.0526,0.1813,-1273.19,-218.93,1609.68
12340,-3.8717,-0.0250,0.1786,1273.68,-781.37,1687.81
12350,-3.8717,0.0012,0.1779,804.93,-1125.06,1297.18
12360,-3.8717,0.0183,0.1747,164.31,-1234.38,406.56
12370,-3.8718,0.0168,0.1682,-1648.19,-1640.62,-374.69
12380,-3.8718,-0.0012,0.1600,-1835.69,1531.25,-874.69
12390,-3.8718,-0.0215,0.1511,-148.19,499.94,-1046.57
12400,-3.8718,-0.0300,0.1445,1258.06,-640.69,-812.26
12410,-3.8718,-0.0190,0.1401,164.31,-1484.44,-609.13
12420,-3.8718,0.0116,0.1331,1570.56,1953.06,-1171.63
12430,-3.8718,0.0515,0.1207,1492.43,1031.25,1359.62
12440,-3.8719,0.0835,0.1089,-1398.19,-546.81,-359.19
12450,-3.8719,0.0956,0.1021,-1304.44,1937.62,-1734.19
12460,-3.8719,0.0894,0.0938,242.43,1062.68,1172.06
12470,-3.8719,0.0707,0.0797,-554.44,0.12,328.31
12480,-3.8721,0.0461,0.0645,1054.93,-1796.75,-109.25
12490,-3.8721,0.0231,0.0491,1914.31,250.06,-249.88
12500,-3.8721,0.0071,0.0339,-1038.82,-1718.75,-546.81
12510,-3.8721,0.0005,0.0209,914.31,343.75,-1406.19
12520,-3.8721,0.0040,0.0107,70.56,-1328.12,1093.75
12530,-3.8722,0.0187,0.0020,523.68,1375.00,-625.00
12540,-3.8722,0.0410,-0.0062,-1601.32,250.00,1890.62
12550,-3.8722,0.0601,-0.0090,1258.06,-796.81,671.81
12560,-3.8723,0.0676,-0.0054,-304.44,-1156.19,-265.69
12570,-3.8723,0.0662,-0.0037,664.31,-687.38,-296.94
12580,-3.8722,0.0571,-0.0107,476.81,-468.63,249.94
12590,-3.8722,0.0425,-0.0254,-679.44,-1374.94,156.19
12600,-3.8723,0.0326,-0.0435,1445.56,750.06,-906.31
12610,-3.8723,0.0353,-0.0593,179.93,-1562.44,1484.25
12620,-3.8724,0.0499,-0.0664,523.68,406.31,-0.12
12630,-3.8724,0.0712,-0.0616,-1601.32,-499.94,-687.68
12640,-3.8723,0.0958,-0.0393,1117.43,109.50,140.50
12650,-3.8723,0.1273,0.0044,273.68,-1031.07,-1156.37
12660,-3.8722,0.1729,0.0586,304.93,562.74,-875.00
12670,-3.8721,0.2336,0.1078,-1866.94,-499.69,-249.94
12680,-3.8719,0.3015,0.1461,1914.31,1797.30,-171.69
12690,-3.8718,0.3619,0.1714,-1398.19,-1296.33,-1187.26
12700,-3.8717,0.4047,0.1835,-1663.82,1938.17,203.43
12710,-3.8717,0.4325,0.1829,-195.07,-514.89,62.81
12720,-3.8718,0.4517,0.1676,-632.57,-592.96,-1405.94
12730,-3.8718,0.4659,0.1440,1820.56,1453.98,578.43
12740,-3.8719,0.4775,0.1208,-351.32,-1561.65,-1406.01
12750,-3.8719,0.4863,0.1003,1133.06,-530.33,922.06
12760,-3.8721,0.4976,0.0833,-1741.94,844.67,-593.57
12770,-3.8721,0.5145,0.0712,-304.44,-1342.83,-1843.63
12780,-3.8721,0.5269,0.0664,1867.43,1110.35,1406.37
12790,-3.8721,0.5269,0.0695,-554.44,500.98,1000.12
12800,-3.8721,0.5223,0.0734,-554.44,891.60,828.25
12810,-3.8721,0.5159,0.0739,-1132.57,1391.60,1093.87
12820,-3.8721,0.5068,0.0719,-1960.69,1454.10,1906.37
12830,-3.8721,0.5050,0.0707,883.06,1204.10,-1015.50
12840,-3.8721,0.5096,0.0753,648.68,1047.85,-140.50
12850,-3.8719,0.5095,0.0861,1242.43,1641.60,453.25
12860,-3.8719,0.5026,0.0996,1226.81,-983.40,1172.00
12870,-3.8719,0.4902,0.1104,336.18,750.98,-1937.32
12880,-3.8719,0.4684,0.1172,-1241.94,-1874.08,-624.82
12890,-3.8718,0.4354,0.1226,-38.82,-999.15,750.18
12900,-3.8718,0.4001,0.1243,-257.57,-311.71,1375.18
12910,-3.8718,0.3708,0.1213,-773.19,-93.02,1703.31
12920,-3.8718,0.3546,0.1176,-523.19,-468.08,-1687.32
12930,-3.8718,0.3586,0.1145,1398.68,-952.45,-187.32
12940,-3.8717,0.3718,0.1179,1914.31,-1343.08,-890.44
12950,-3.8716,0.3750,0.1377,-398.19,-905.58,-562.32
12960,-3.8715,0.3717,0.1648,8.06,1625.73,-984.13
12970,-3.8713,0.3735,0.1841,-413.82,1094.42,1937.81
12980,-3.8712,0.3794,0.1946,-179.44,-436.83,797.18
12990,-3.8712,0.3926,0.2008,570.56,906.98,-1124.63
13000,-3.8712,0.4188,0.2014,-1741.94,1703.86,-452.76
13010,-3.8712,0.4512,0.1947,1617.43,1782.04,-702.76
13020,-3.8712,0.4762,0.1859,1758.06,922.73,-968.38
13030,-3.8712,0.4882,0.1796,961.18,-202.21,-499.69
13040,-3.8711,0.4948,0.1741,-1507.57,-1014.71,578.43
13050,-3.8711,0.5067,0.1757,-663.82,-1717.83,-1655.94
13060,-3.8710,0.5216,0.2002,867.43,-1514.65,1484.68
13070,-3.8708,0.5341,0.2523,-1226.32,1625.98,-1968.38
13080,-3.8707,0.5472,0.3215,367.43,297.91,-374.51
13090,-3.8705,0.5619,0.3943,-1945.07,1157.29,-1327.51
13100,-3.8702,0.5728,0.4585,-70.07,-1530.21,-1546.14
13110,-3.8700,0.5741,0.4979,1320.56,-1311.40,828.98
13120,-3.8699,0.5607,0.4969,1492.43,-264.53,79.04
13130,-3.8699,0.5297,0.4580,-226.32,-389.59,16.54
13140,-3.8700,0.4795,0.4055,-195.07,-1374.02,-1967.90
13150,-3.8701,0.4187,0.3647,1383.06,-92.83,-796.14
13160,-3.8702,0.3700,0.3405,1601.81,-1311.71,-108.70
13170,-3.8702,0.3420,0.3258,-632.57,-421.20,688.11
13180,-3.8704,0.3232,0.3151,-210.69,1703.74,1625.61
13190,-3.8705,0.3081,0.3105,1383.06,328.74,-1780.64
13200,-3.8706,0.3005,0.3207,-554.44,-249.45,-1171.33
13210,-3.8706,0.3031,0.3468,-1523.19,1047.42,438.11
13220,-3.8707,0.3179,0.3812,-1195.07,391.17,-389.95
13230,-3.8706,0.3416,0.4124,695.56,797.49,0.73
13240,-3.8706,0.3623,0.4310,-273.19,781.86,360.17
13250,-3.8707,0.3669,0.4316,-1616.94,-827.45,-421.08
13260,-3.8707,0.3481,0.4170,-1023.19,-749.33,1907.04
13270,-3.8707,0.3107,0.3982,570.56,1375.67,78.92
13280,-3.8708,0.2710,0.3851,-226.32,-1030.70,-1343.02
13290,-3.8708,0.2421,0.3811,-1304.44,1297.36,1953.86
13300,-3.8708,0.2273,0.3883,-1007.57,781.68,-1983.64
13310,-3.8708,0.2185,0.4087,1101.81,1703.55,-1108.64
13320,-3.8707,0.2062,0.4364,-23.19,312.87,47.67
13330,-3.8707,0.1917,0.4612,-1601.32,-140.26,1282.04
13340,-3.8707,0.1799,0.4756,539.31,-968.38,-1530.40
13350,-3.8707,0.1708,0.4751,-960.69,875.31,-889.71
13360,-3.8707,0.1587,0.4651,1867.43,812.81,-530.33
13370,-3.8707,0.1415,0.4564,320.56,-468.44,-389.77
13380,-3.8707,0.1222,0.4507,-1882.57,-1577.88,-546.02
13390,-3.8707,0.1031,0.4462,-351.32,1687.68,-749.15
13400,-3.8707,0.0856,0.4441,1211.18,1109.56,-717.90
13410,-3.8707,0.0725,0.4425,-1038.82,843.87,-264.77
13420,-3.8706,0.0585,0.4360,1289.31,640.75,0.85
13430,-3.8707,0.0334,0.4249,-507.57,-187.44,-77.33
13440,-3.8707,-0.0044,0.4128,289.31,-1609.31,-702.33
13450,-3.8707,-0.0470,0.4004,-554.44,859.31,-1796.08
13460,-3.8707,-0.0841,0.3892,1992.43,-734.50,1297.61
13470,-3.8707,-0.1073,0.3810,1242.43,1827.94,641.36
13480,-3.8708,-0.1117,0.3739,-1726.32,781.01,-14.89
13490,-3.8708,-0.0994,0.3656,1711.18,-125.24,-1077.45
13500,-3.8708,-0.0776,0.3582,-710.69,-1187.74,1360.05
13510,-3.8710,-0.0565,0.3534,-1929.44,1859.19,-671.20
13520,-3.8710,-0.0441,0.3488,773.68,1249.88,1016.30
13530,-3.8711,-0.0408,0.3408,-1632.57,656.13,-1077.45
13540,-3.8711,-0.0405,0.3275,-1210.69,-359.50,1344.36
13550,-3.8712,-0.0367,0.3079,-1179.44,1937.38,-124.39
13560,-3.8712,-0.0265,0.2850,-695.07,-578.25,-1890.08
13570,-3.8712,-0.0132,0.2672,617.43,499.94,281.80
13580,-3.8713,-0.0023,0.2590,-1679.44,-1781.31,-1296.39
13590,-3.8713,0.0089,0.2600,-288.82,1171.81,1687.99
13600,-3.8713,0.0255,0.2670,1148.68,1281.25,1219.24
13610,-3.8713,0.0483,0.2738,-726.32,-1828.12,781.74
13620,-3.8715,0.0752,0.2755,-1804.44,-953.06,-187.01
13630,-3.8715,0.0959,0.2683,1633.06,-734.25,-1968.26
13640,-3.8716,0.1008,0.2510,289.31,-1656.07,-374.51
13650,-3.8716,0.0913,0.2291,914.31,125.18,1031.74
13660,-3.8717,0.0741,0.2108,-304.44,1328.25,-1218.32
13670,-3.8717,0.0576,0.1985,1492.43,-1015.50,1297.24
13680,-3.8717,0.0496,0.1892,-616.94,1406.31,437.87
13690,-3.8718,0.0525,0.1792,-1648.19,218.81,-562.13
13700,-3.8718,0.0632,0.1666,-1273.19,-1062.44,1672.18
13710,-3.8719,0.0745,0.1527,101.81,1328.25,-702.82
13720,-3.8719,0.0779,0.1406,1539.31,-453.00,734.62
13730,-3.8721,0.0724,0.1371,1976.81,-1999.88,-1327.88
13740,-3.8721,0.0667,0.1398,1273.68,1547.00,1437.74
13750,-3.8721,0.0699,0.1378,539.31,1890.75,422.12
13760,-3.8722,0.0808,0.1281,961.18,1640.75,-890.38
13770,-3.8722,0.0925,0.1151,-1648.19,390.75,1234.62
13780,-3.8723,0.1019,0.1022,-148.19,-1265.50,-1343.57
13790,-3.8723,0.1086,0.0900,1054.93,1078.31,156.43
13800,-3.8724,0.1130,0.0801,1914.31,-484.19,-1874.88
13810,-3.8724,0.1156,0.0714,-1523.19,-1749.82,547.00
13820,-3.8726,0.1149,0.0640,-1195.07,1140.81,-499.88
13830,-3.8726,0.1112,0.0597,-1288.82,187.68,-984.25
13840,-3.8726,0.1108,0.0555,-1757.57,-359.19,-874.94
13850,-3.8726,0.1172,0.0446,-1804.44,-890.44,-515.56
13860,-3.8726,0.1273,0.0280,-991.94,1703.31,-453.06
13870,-3.8726,0.1389,0.0114,304.93,-421.63,-968.75
13880,-3.8726,0.1558,-0.0034,1789.31,1453.37,-1921.88
13890,-3.8726,0.1813,-0.0143,-54.44,-437.26,1203.06
13900,-3.8726,0.2098,-0.0194,-788.82,-1827.82,796.81
13910,-3.8726,0.2330,-0.0162,-1132.57,1515.99,1093.69
13920,-3.8726,0.2507,-0.0044,1836.18,1922.30,-1968.81
13930,-3.8726,0.2697,0.0085,101.81,-562.01,-421.94
13940,-3.8724,0.2917,0.0140,-1476.32,1094.24,1359.38
13950,-3.8724,0.3099,0.0126,1351.81,1797.42,-1015.62
13960,-3.8723,0.3213,0.0126,-320.07,1609.92,171.88
13970,-3.8723,0.3306,0.0187,1133.06,1609.99,750.00
13980,-3.8723,0.3403,0.0309,-1679.44,-1608.76,1281.25
13990,-3.8723,0.3486,0.0526,-429.44,-46.26,-1625.00
14000,-3.8722,0.3573,0.0844,633.06,-1264.95,531.31
14010,-3.8721,0.3699,0.1194,1742.43,-1202.45,15.75
14020,-3.8721,0.3857,0.1467,-648.19,-718.08,-640.44
14030,-3.8719,0.4064,0.1567,1383.06,-1218.02,1875.24
14040,-3.8719,0.4287,0.1498,23.68,63.29,-171.57
14050,-3.8718,0.4440,0.1377,-1116.94,-827.33,843.99
14060,-3.8718,0.4539,0.1302,836.18,1625.85,687.74
14070,-3.8719,0.4640,0.1312,-1898.19,672.73,-31.01
14080,-3.8718,0.4718,0.1453,-601.32,797.73,328.37
14090,-3.8718,0.4746,0.1721,398.68,-1405.33,1953.37
14100,-3.8717,0.4781,0.2035,758.06,-1967.83,265.93
14110,-3.8717,0.4867,0.2336,1211.18,-1952.21,-671.51
14120,-3.8716,0.5013,0.2609,-1695.07,1907.17,-843.32
14130,-3.8715,0.5204,0.2821,179.93,1391.60,-1218.26
14140,-3.8713,0.5371,0.2950,-1382.57,110.35,1516.17
14150,-3.8713,0.5503,0.2982,758.06,1766.66,-905.70
14160,-3.8713,0.5610,0.2893,-1554.44,-1827.09,-390.08
14170,-3.8712,0.5591,0.2745,-179.44,1032.29,203.67
14180,-3.8712,0.5358,0.2649,-429.44,-858.34,1625.49
14190,-3.8712,0.5000,0.2657,586.18,1907.29,-421.39
14200,-3.8711,0.4669,0.2789,8.06,-1983.40,1437.99
14210,-3.8711,0.4440,0.3029,-226.32,-296.02,-437.01
14220,-3.8710,0.4290,0.3326,836.18,-1233.52,-1311.95
14230,-3.8708,0.4191,0.3588,-1085.69,-1421.08,-1108.76
14240,-3.8707,0.4139,0.3763,1648.68,1922.67,-358.70
14250,-3.8705,0.4093,0.3885,992.43,172.67,235.11
14260,-3.8704,0.4000,0.3969,398.68,1735.17,63.23
14270,-3.8704,0.3834,0.3987,-788.82,-1202.39,-1389.89
14280,-3.8704,0.3574,0.3917,1086.18,-968.02,-405.52
14290,-3.8704,0.3232,0.3766,1758.06,-1858.70,-639.89
14300,-3.8704,0.2865,0.3619,1383.06,203.74,-1264.89
14310,-3.8704,0.2550,0.3552,679.93,-1671.33,-1718.08
14320,-3.8704,0.2355,0.3580,648.68,1469.24,-1421.20
14330,-3.8704,0.2281,0.3662,-1851.32,1828.55,-639.95
14340,-3.8704,0.2272,0.3746,1211.18,-1124.57,-186.83
14350,-3.8704,0.2227,0.3873,1086.18,-46.45,-171.20
14360,-3.8704,0.2117,0.4095,508.06,1578.55,-155.52
14370,-3.8702,0.2002,0.4364,-898.19,422.24,32.04
14380,-3.8702,0.1926,0.4585,1633.06,-140.26,297.67
14390,-3.8702,0.1869,0.4719,664.31,-1312.13,469.60
14400,-3.8702,0.1782,0.4786,-70.07,406.56,375.92
14410,-3.8702,0.1647,0.4805,-1179.44,1265.93,125.92
14420,-3.8704,0.1466,0.4817,1086.18,1500.31,-389.71
14430,-3.8704,0.1274,0.4869,-1226.32,1656.49,-1155.33
14440,-3.8704,0.1108,0.4938,320.56,-1671.63,-1764.71
14450,-3.8704,0.0991,0.4973,-1804.44,-796.69,-1999.08
14460,-3.8704,0.0951,0.4934,695.56,-343.57,1766.54
14470,-3.8704,0.0984,0.4814,179.93,-843.57,766.54
14480,-3.8705,0.1040,0.4658,601.81,1625.18,-999.08
14490,-3.8705,0.1039,0.4554,1320.56,-374.82,1235.23
14500,-3.8705,0.0930,0.4546,1304.93,-1702.94,47.73
14510,-3.8706,0.0748,0.4575,-85.69,-1812.38,-530.40
14520,-3.8706,0.0555,0.4580,1586.18,-1437.38,-764.77
14530,-3.8706,0.0381,0.4539,-882.57,-1374.94,-1077.27
14540,-3.8706,0.0239,0.4468,883.06,-1906.19,-1686.65
14550,-3.8706,0.0153,0.4376,-929.44,1187.50,1453.98
14560,-3.8706,0.0121,0.4248,1961.18,15.62,203.98
14570,-3.8707,0.0154,0.4088,1554.93,-1625.00,-1702.33
14580,-3.8707,0.0250,0.3926,1976.81,328.12,47.67
14590,-3.8708,0.0323,0.3809,-788.82,-1750.00,1828.86
14600,-3.8708,0.0316,0.3765,148.68,750.06,110.11
14610,-3.8710,0.0253,0.3773,54.93,187.56,-1108.64
14620,-3.8710,0.0195,0.3804,-757.57,296.88,1750.73
14630,-3.8710,0.0205,0.3826,-1491.94,687.50,297.61
14640,-3.8711,0.0278,0.3776,-1366.94,968.75,-1889.89
14650,-3.8712,0.0372,0.3624,-429.44,328.12,-749.27
14660,-3.8712,0.0458,0.3394,773.68,-1609.31,391.30
14670,-3.8713,0.0521,0.3109,1867.43,-562.44,1891.24
14680,-3.8715,0.0536,0.2795,-1320.07,-203.06,-390.08
14690,-3.8715,0.0491,0.2515,-1132.57,-218.69,1562.99
14700,-3.8716,0.0370,0.2321,-1710.69,187.56,-374.51
14710,-3.8716,0.0215,0.2213,742.43,1703.19,1937.93
14720,-3.8716,0.0144,0.2151,-1241.94,328.12,1141.05
14730,-3.8716,0.0150,0.2111,1851.81,-468.75,1219.12
14740,-3.8716,0.0159,0.2089,1929.93,-984.38,1672.24
14750,-3.8716,0.0175,0.2061,-1960.69,-1265.62,1890.99
14760,-3.8716,0.0220,0.1992,-1757.57,-1625.00,1734.74
14770,-3.8716,0.0277,0.1910,-1179.44,1500.00,1359.74
14780,-3.8716,0.0371,0.1859,-445.07,453.12,984.74
14790,-3.8716,0.0511,0.1827,758.06,-203.06,547.18
14800,-3.8717,0.0620,0.1760,-1445.07,-609.31,-374.69
14810,-3.8717,0.0619,0.1628,-54.44,-1468.69,-1812.19
14820,-3.8717,0.0505,0.1459,-70.07,843.81,625.31
14830,-3.8718,0.0347,0.1296,-1523.19,-1328.06,-874.76
14840,-3.8718,0.0229,0.1174,445.56,593.81,-1999.76
14850,-3.8718,0.0192,0.1119,-1054.44,-968.75,1390.81
14860,-3.8718,0.0253,0.1128,-1538.82,-1671.88,1062.68
14870,-3.8718,0.0393,0.1158,-757.57,-1562.50,468.93
14880,-3.8719,0.0552,0.1141,1039.31,-1171.81,-609.19
14890,-3.8719,0.0667,0.1047,-929.44,-1390.56,-1874.82
14900,-3.8719,0.0702,0.0924,539.31,1406.37,890.81
14910,-3.8721,0.0665,0.0819,992.43,-171.75,-265.50
14920,-3.8721,0.0590,0.0748,523.68,-1515.50,-1234.25
14930,-3.8721,0.0522,0.0704,-445.07,1578.19,1828.25
14940,-3.8721,0.0510,0.0693,-1304.44,1015.69,828.25
14950,-3.8722,0.0558,0.0726,-1460.69,875.06,-78.00
14960,-3.8722,0.0674,0.0796,-851.32,1296.94,-874.88
14970,-3.8722,0.0856,0.0906,633.06,-1812.38,-1718.63
14980,-3.8722,0.1066,0.1050,-1038.82,-406.13,1593.87
14990,-3.8722,0.1250,0.1166,1648.68,1437.68,1453.31
15000,-3.8722,0.1339,0.1154,8.06,-1077.88,1500.18
15010,-3.8722,0.1285,0.1002,1148.68,-1234.13,1609.56
15020,-3.8722,0.1097,0.0776,461.18,828.37,1843.93
15030,-3.8722,0.0953,0.0516,-1945.07,1937.68,1625.12
15040,-3.8722,0.1082,0.0260,211.18,-1390.44,765.69
15050,-3.8723,0.1470,0.0024,1851.81,-671.69,-453.12
15060,-3.8723,0.1925,-0.0186,-1179.44,312.74,-1812.50
15070,-3.8723,0.2292,-0.0356,648.68,1625.37,703.06
15080,-3.8724,0.2485,-0.0497,1351.81,-562.07,-297.00
15090,-3.8724,0.2500,-0.0582,-179.44,1641.05,-250.12
15100,-3.8723,0.2440,-0.0597,8.06,547.36,968.63
15110,-3.8723,0.2419,-0.0540,-757.57,359.80,-968.87
15120,-3.8722,0.2457,-0.0421,-1023.19,1094.18,1062.38
15130,-3.8722,0.2539,-0.0273,-538.82,-1390.20,-937.62
15140,-3.8721,0.2651,-0.0123,508.06,500.49,1624.94
15150,-3.8719,0.2787,-0.0011,1945.56,-1577.64,328.06
15160,-3.8719,0.2959,0.0029,-320.07,-140.14,-1406.31
15170,-3.8718,0.3140,0.0010,1883.06,375.55,468.75
15180,-3.8718,0.3282,-0.0020,195.56,125.61,-1859.38
15190,-3.8718,0.3357,-0.0021,-1976.32,-249.39,-187.56
15200,-3.8717,0.3379,0.0001,-1023.19,-265.01,1734.31
15210,-3.8717,0.3402,0.0060,-741.94,16.24,-140.62
15220,-3.8716,0.3450,0.0144,-445.07,766.24,1593.75
15230,-3.8716,0.3517,0.0214,164.31,1844.42,-1437.50
15240,-3.8716,0.3572,0.0262,1023.68,-1264.95,-1125.00
15250,-3.8716,0.3600,0.0332,1726.81,-639.95,-890.62
15260,-3.8716,0.3625,0.0435,-1913.82,250.67,-718.69
15270,-3.8716,0.3695,0.0533,-1585.69,1563.17,-1046.81
15280,-3.8716,0.3851,0.0636,-695.07,-1171.20,-1406.19
15290,-3.8716,0.4097,0.0767,1304.93,141.36,-812.38
15300,-3.8715,0.4382,0.0950,445.56,1813.29,1140.75
15310,-3.8715,0.4647,0.1228,101.81,157.10,-296.69
15320,-3.8713,0.4865,0.1589,-507.57,-280.40,-1687.32
15330,-3.8712,0.5072,0.1964,-1726.32,344.67,1047.18
15340,-3.8712,0.5312,0.2253,929.93,1141.60,-327.76
15350,-3.8711,0.5540,0.2383,8.06,844.79,1422.30
15360,-3.8711,0.5653,0.2368,-1085.69,-1498.96,-1796.45
15370,-3.8711,0.5591,0.2301,367.43,-1686.40,-1437.07
15380,-3.8711,0.5398,0.2224,-429.44,1454.16,-1546.45
15390,-3.8711,0.5166,0.2134,1101.81,469.79,-1515.20
15400,-3.8711,0.4922,0.2078,-1866.94,-686.52,-812.13
15410,-3.8710,0.4637,0.2115,-991.94,-1405.33,484.74
15420,-3.8710,0.4313,0.2273,-632.57,-921.02,-1843.38
15430,-3.8710,0.4017,0.2473,-788.82,1094.54,-265.20
15440,-3.8708,0.3824,0.2623,-570.07,-343.02,953.55
15450,-3.8708,0.3734,0.2737,961.18,1578.86,-1827.64
15460,-3.8708,0.3701,0.2875,-195.07,-968.08,-546.39
15470,-3.8707,0.3716,0.3070,-616.94,797.55,688.05
15480,-3.8707,0.3772,0.3333,-429.44,-702.45,-1796.33
15490,-3.8707,0.3845,0.3622,289.31,-1343.02,-233.76
15500,-3.8706,0.3971,0.3884,1226.81,-1639.89,750.67
15510,-3.8706,0.4149,0.4072,-1163.82,1719.48,844.48
15520,-3.8706,0.4257,0.4152,1117.43,125.79,719.54
15530,-3.8706,0.4180,0.4125,-1507.57,1141.42,1110.17
15540,-3.8706,0.3926,0.4028,1508.06,797.67,1578.92
15550,-3.8706,0.3536,0.3871,-1741.94,-436.77,1328.86
15560,-3.8706,0.3083,0.3690,1273.68,1547.55,594.48
15570,-3.8707,0.2655,0.3572,-523.19,-765.08,-14.95
15580,-3.8706,0.2290,0.3588,1992.43,1719.24,110.05
15590,-3.8706,0.2004,0.3729,1320.56,1922.30,1610.05
15600,-3.8705,0.1802,0.3912,1664.31,-265.26,125.67
15610,-3.8705,0.1663,0.4044,-929.44,-1921.57,-1139.89
15620,-3.8704,0.1564,0.4071,1289.31,-234.07,1281.98
15630,-3.8704,0.1516,0.4038,23.68,109.68,-717.96
15640,-3.8702,0.1495,0.4036,-585.69,-312.26,735.11
15650,-3.8702,0.1455,0.4059,-851.32,-343.51,1672.61
15660,-3.8702,0.1371,0.4052,-1366.94,-46.63,-1483.64
15670,-3.8702,0.1184,0.4005,1554.93,-140.38,-749.27
15680,-3.8702,0.0847,0.3925,-835.69,-734.19,-639.89
15690,-3.8702,0.0408,0.3828,-1148.19,-1765.50,-671.14
15700,-3.8702,-0.0067,0.3728,1226.81,1000.06,-499.27
15710,-3.8702,-0.0521,0.3654,-851.32,-265.69,-186.83
15720,-3.8701,-0.0898,0.3573,1336.18,-1218.87,63.17
15730,-3.8702,-0.1139,0.3428,508.06,1749.82,-343.08
15740,-3.8702,-0.1193,0.3243,1429.93,-109.62,-1530.64
15750,-3.8702,-0.1118,0.3074,742.43,1531.01,281.86
15760,-3.8704,-0.1005,0.2952,1695.56,-640.87,1281.80
15770,-3.8705,-0.0880,0.2892,-851.32,1796.63,-1655.70
15780,-3.8706,-0.0767,0.2891,742.43,1031.07,-124.45
15790,-3.8706,-0.0680,0.2899,-1804.44,1015.44,1453.67
15800,-3.8707,-0.0615,0.2872,-695.07,1124.82,-1015.08
15810,-3.8707,-0.0592,0.2833,133.06,781.13,531.80
15820,-3.8708,-0.0581,0.2809,429.93,281.13,-1843.20
15830,-3.8708,-0.0536,0.2776,570.56,-31.37,125.49
15840,-3.8710,-0.0474,0.2733,1148.68,-453.25,-1687.01
15850,-3.8710,-0.0442,0.2679,1945.56,-1000.12,250.49
15860,-3.8711,-0.0481,0.2588,-1648.19,-1687.62,1891.11
15870,-3.8712,-0.0579,0.2472,1851.81,1140.50,-155.76
15880,-3.8712,-0.0659,0.2362,601.81,-343.87,-1765.20
15890,-3.8712,-0.0667,0.2264,-429.44,-1750.18,781.68
15900,-3.8713,-0.0601,0.2183,-523.19,999.82,-687.07
15910,-3.8713,-0.0509,0.2129,320.56,-47.00,1812.87
15920,-3.8713,-0.0421,0.2107,1492.43,-734.50,375.37
15930,-3.8715,-0.0344,0.2101,-1382.57,-1015.75,-952.76
15940,-3.8715,-0.0293,0.2112,-398.19,-1093.87,1797.24
15950,-3.8715,-0.0260,0.2139,258.06,-953.19,719.12
15960,-3.8716,-0.0211,0.2139,679.93,-609.44,-296.51
15970,-3.8716,-0.0145,0.2064,1304.93,-609.44,-1405.88
15980,-3.8716,-0.0085,0.1891,-1851.32,-1562.56,1422.24
15990,-3.8716,-0.0043,0.1616,-1085.69,218.69,203.49
16000,-3.8717,-0.0027,0.1298,-538.82,703.06,-1343.44
16010,-3.8717,-0.0046,0.1012,-335.69,624.94,812.74
16020,-3.8718,-0.0088,0.0803,-585.69,968.69,-890.44
16030,-3.8718,-0.0131,0.0663,-1116.94,-1703.19,1703.25
16040,-3.8718,-0.0145,0.0542,-1663.82,499.94,297.00
16050,-3.8719,-0.0100,0.0403,-1851.32,-1046.94,-1453.06
16060,-3.8719,0.0002,0.0256,-1273.19,1171.81,765.69
16070,-3.8721,0.0101,0.0151,39.31,-718.75,-609.38
16080,-3.8721,0.0150,0.0106,1304.93,1937.50,-1546.88
16090,-3.8721,0.0170,0.0073,1929.93,1359.38,-1968.75
16100,-3.8721,0.0161,0.0052,-1820.07,937.50,-1593.75
16110,-3.8721,0.0145,0.0095,-1929.44,671.88,-640.62
16120,-3.8719,0.0210,0.0179,1867.43,1218.75,78.12
16130,-3.8719,0.0415,0.0249,-1304.44,-1703.12,265.62
16140,-3.8719,0.0696,0.0305,1320.56,-812.44,109.38
16150,-3.8721,0.0929,0.0355,914.31,-93.63,-406.25
16160,-3.8721,0.1066,0.0382,-101.32,547.00,-999.94
16170,-3.8721,0.1119,0.0392,1648.68,890.81,-1578.06
16180,-3.8721,0.1140,0.0361,-1663.82,1015.81,1515.69
16190,-3.8721,0.1143,0.0256,-1398.19,625.18,15.69
16200,-3.8722,0.1127,0.0154,-1366.94,-718.57,-1828.12
16210,-3.8722,0.1145,0.0107,-1570.07,1968.93,500.00
16220,-3.8723,0.1244,0.0077,-1335.69,1375.18,-1000.00
16230,-3.8723,0.1410,0.0024,-70.07,984.56,1375.00
16240,-3.8724,0.1555,-0.0052,-1945.07,312.74,-421.88
16250,-3.8724,0.1624,-0.0140,-85.69,-671.63,-1765.69
16260,-3.8724,0.1646,-0.0214,789.31,-1796.57,1624.94
16270,-3.8724,0.1665,-0.0243,1070.56,1265.93,1656.19
16280,-3.8724,0.1700,-0.0240,1320.56,890.93,-1765.69
16290,-3.8724,0.1786,-0.0271,1773.68,922.18,-937.56
16300,-3.8724,0.1938,-0.0321,-1132.57,531.56,-171.94
16310,-3.8723,0.2117,-0.0319,820.56,-109.01,421.75
16320,-3.8723,0.2285,-0.0258,-898.19,-77.76,687.38
16330,-3.8723,0.2478,-0.0186,1258.06,703.55,874.94
16340,-3.8723,0.2719,-0.0121,-273.19,1625.43,1328.06
16350,-3.8723,0.2983,-0.0038,-1195.07,-1546.39,-1781.31
16360,-3.8723,0.3250,0.0054,-1804.44,-483.83,-546.94
16370,-3.8722,0.3492,0.0121,1601.81,688.11,593.75
16380,-3.8722,0.3668,0.0182,711.18,1547.55,1453.12
16390,-3.8722,0.3734,0.0299,-1038.82,-1671.20,1843.75
16400,-3.8722,0.3713,0.0547,-195.07,-171.20,1984.38
16410,-3.8722,0.3685,0.0927,-460.69,-999.33,-1546.81
16420,-3.8722,0.3727,0.1328,-820.07,-139.95,-249.88
16430,-3.8721,0.3878,0.1726,-288.82,1000.67,-1577.88
16440,-3.8719,0.4147,0.2203,1648.68,-1905.52,-921.57
16450,-3.8717,0.4495,0.2706,1086.18,203.92,1469.18
16460,-3.8715,0.4883,0.3020,1539.31,-1358.52,31.74
16470,-3.8713,0.5270,0.2985,-1491.94,-1342.83,594.30
16480,-3.8713,0.5559,0.2671,-538.82,-1795.90,-1718.20
16490,-3.8713,0.5624,0.2330,-835.69,-1811.46,-1812.01
16500,-3.8713,0.5431,0.2148,-7.57,1829.16,1141.05
16510,-3.8715,0.5126,0.2131,1523.68,-498.96,-234.01
16520,-3.8715,0.4895,0.2197,1617.43,-717.77,-687.13
16530,-3.8713,0.4803,0.2340,-1335.69,125.92,281.68
16540,-3.8713,0.4889,0.2604,1492.43,1954.04,1969.18
16550,-3.8713,0.5216,0.2910,-1413.82,1329.04,-46.39
16560,-3.8712,0.5706,0.3127,-1226.32,1250.98,-1421.33
16570,-3.8711,0.6034,0.3273,1039.31,32.35,-1686.89
16580,-3.8710,0.5896,0.3373,1242.43,1891.78,-921.26
16590,-3.8708,0.5308,0.3395,-523.19,-827.03,-218.14
16600,-3.8707,0.4484,0.3314,-54.44,-545.90,-1030.64
16610,-3.8707,0.3657,0.3134,1398.68,-1577.27,-249.39
16620,-3.8707,0.3032,0.2906,-1179.44,110.05,-1530.64
16630,-3.8707,0.2700,0.2731,-1179.44,1203.67,422.42
16640,-3.8708,0.2693,0.2682,-1429.44,-1046.39,-1343.26
16650,-3.8708,0.2961,0.2764,-1523.19,-1671.39,1625.49
16660,-3.8708,0.3340,0.2960,1914.31,-624.45,1219.24
16670,-3.8708,0.3743,0.3243,-1241.94,1891.24,1250.55
16680,-3.8708,0.4142,0.3558,-85.69,1516.30,-1968.14
16690,-3.8707,0.4443,0.3868,1023.68,1547.67,78.80
16700,-3.8707,0.4540,0.4176,883.06,1516.48,-811.77
16710,-3.8706,0.4397,0.4502,-1882.57,1453.98,-1467.96
16720,-3.8705,0.4088,0.4780,289.31,1625.85,1438.35
16730,-3.8705,0.3738,0.4884,336.18,1188.29,-624.08
16740,-3.8705,0.3453,0.4818,-148.19,-1483.70,-217.83
16750,-3.8705,0.3302,0.4716,211.18,1672.55,-1452.21
16760,-3.8705,0.3296,0.4669,-1726.32,359.99,297.79
16770,-3.8706,0.3414,0.4727,-1804.44,-233.76,-1733.52
16780,-3.8706,0.3597,0.4918,-288.82,500.61,1219.67
16790,-3.8706,0.3713,0.5151,-1945.07,-1046.20,1000.92
16800,-3.8706,0.3669,0.5276,-460.69,1938.17,1141.60
16810,-3.8706,0.3484,0.5255,-1023.19,-468.08,1016.60
16820,-3.8706,0.3206,0.5159,601.81,-733.70,235.35
16830,-3.8707,0.2897,0.5072,1039.31,-1968.14,-920.90
16840,-3.8707,0.2648,0.5034,1086.18,922.42,1797.85
16850,-3.8707,0.2479,0.5022,1898.68,437.99,657.23
16860,-3.8707,0.2314,0.5017,-257.57,281.68,110.35
16870,-3.8707,0.2095,0.5000,1633.06,219.18,360.35
16880,-3.8707,0.1803,0.4949,-1179.44,0.37,1079.10
16890,-3.8707,0.1459,0.4877,-913.82,-655.94,-1827.21
16900,-3.8707,0.1104,0.4825,-1320.07,-1577.88,-530.33
16910,-3.8706,0.0752,0.4828,-1866.94,1765.81,469.67
16920,-3.8706,0.0427,0.4845,1633.06,1797.00,1125.92
16930,-3.8706,0.0159,0.4790,1476.81,-1984.31,1563.42
16940,-3.8706,-0.0085,0.4639,-1960.69,1312.50,1391.54
16950,-3.8706,-0.0333,0.4458,-1085.69,-609.44,469.60
16960,-3.8707,-0.0568,0.4305,-257.57,1078.00,-1139.77
16970,-3.8707,-0.0767,0.4176,742.43,-875.12,1063.29
16980,-3.8708,-0.0939,0.4077,-1804.44,1468.57,-405.46
16990,-3.8708,-0.1056,0.4044,-7.57,202.88,-1186.71
17000,-3.8708,-0.1060,0.4058,-1507.57,-218.99,-1327.39
17010,-3.8708,-0.0946,0.4038,-1554.44,-47.12,-1483.64
17020,-3.8708,-0.0829,0.3972,-101.32,-297.12,-1593.02
17030,-3.8708,-0.0856,0.3925,1398.68,-1140.81,-1624.27
17040,-3.8708,-0.1006,0.3936,1054.93,-1750.18,-1374.27
17050,-3.8708,-0.1146,0.3965,-866.94,-1609.62,-1014.89
17060,-3.8708,-0.1211,0.3938,1336.18,-1234.62,-1061.77
17070,-3.8708,-0.1238,0.3837,508.06,-1578.37,-1999.27
17080,-3.8708,-0.1249,0.3677,164.31,1124.76,203.86
17090,-3.8710,-0.1227,0.3492,23.68,-922.12,-1780.58
17100,-3.8710,-0.1194,0.3346,304.93,718.51,563.17
17110,-3.8711,-0.1136,0.3263,726.81,-1156.49,-702.51
17120,-3.8711,-0.0994,0.3202,1461.18,1781.01,-1874.39
17130,-3.8711,-0.0790,0.3116,-710.69,999.76,875.61
17140,-3.8712,-0.0634,0.2991,1898.68,-93.93,-671.33
17150,-3.8712,-0.0576,0.2828,-101.32,-1703.31,1406.80
17160,-3.8713,-0.0571,0.2656,633.06,218.63,-452.58
17170,-3.8713,-0.0563,0.2500,695.56,-1984.50,-1937.01
17180,-3.8713,-0.0525,0.2371,804.93,15.50,609.86
17190,-3.8715,-0.0488,0.2275,1289.31,-1640.75,-749.57
17200,-3.8715,-0.0485,0.2217,1758.06,1140.50,-1827.70
17210,-3.8715,-0.0468,0.2164,1804.93,390.50,1344.18
17220,-3.8715,-0.0388,0.2095,-1976.32,-281.37,844.12
17230,-3.8715,-0.0254,0.2024,-960.69,-1172.00,437.87
17240,-3.8716,-0.0062,0.1941,758.06,1921.81,-62.13
17250,-3.8716,0.0157,0.1832,-788.82,859.31,-874.63
17260,-3.8716,0.0295,0.1692,-1976.32,-546.88,1531.56
17270,-3.8717,0.0272,0.1521,-210.69,1656.25,-484.07
17280,-3.8717,0.0116,0.1350,-507.57,-531.25,1343.99
17290,-3.8718,-0.0056,0.1191,1492.43,1281.25,-984.13
17300,-3.8718,-0.0114,0.1039,-710.69,-734.44,828.31
17310,-3.8719,-0.0009,0.0920,-1445.07,1312.44,-827.94
17320,-3.8719,0.0203,0.0865,-101.32,-203.19,1765.75
17330,-3.8719,0.0433,0.0886,-1398.19,-921.88,859.50
17340,-3.8719,0.0618,0.0977,1554.93,-656.19,1125.12
17350,-3.8719,0.0742,0.1091,-85.69,500.06,-1859.19
17360,-3.8719,0.0862,0.1167,1508.06,1968.87,-859.19
17370,-3.8719,0.1047,0.1116,-960.69,-1062.38,-640.44
17380,-3.8719,0.1295,0.0890,1414.31,-1718.57,-1702.94
17390,-3.8719,0.1509,0.0541,586.18,-609.13,203.25
17400,-3.8721,0.1604,0.0203,-679.44,-1077.88,1562.56
17410,-3.8722,0.1597,-0.0050,539.31,-1405.94,-1312.50
17420,-3.8722,0.1564,-0.0236,445.56,-640.32,46.81
17430,-3.8723,0.1572,-0.0347,23.68,984.68,1984.31
17440,-3.8723,0.1656,-0.0413,133.06,-437.19,406.13
17450,-3.8724,0.1775,-0.0447,1211.18,-1280.94,-718.87
17460,-3.8724,0.1849,-0.0399,-1273.19,-1718.44,-1406.37
17470,-3.8724,0.1912,-0.0321,-320.07,-1109.07,-1843.87
17480,-3.8724,0.2085,-0.0321,476.81,-109.01,1562.38
17490,-3.8724,0.2391,-0.0392,-1304.44,-109.01,937.38
17500,-3.8724,0.2711,-0.0404,-1382.57,-1015.20,734.25
17510,-3.8724,0.2938,-0.0264,-1288.82,-1171.39,1453.00
17520,-3.8724,0.3076,-0.0006,1617.43,625.55,-421.94
17530,-3.8723,0.3158,0.0321,-616.94,-77.58,-1140.69
17540,-3.8722,0.3184,0.0698,429.93,109.99,-1671.81
17550,-3.8721,0.3201,0.1025,758.06,938.11,1015.75
17560,-3.8721,0.3278,0.1165,976.81,1125.61,-1202.94
17570,-3.8721,0.3378,0.1129,1961.18,-1093.14,-343.57
17580,-3.8721,0.3458,0.1063,-757.57,-1546.26,-202.94
17590,-3.8721,0.3569,0.1039,273.68,1610.05,-499.82
17600,-3.8721,0.3760,0.0992,1695.56,1297.55,-1062.32
17610,-3.8721,0.3992,0.0912,133.06,703.86,-1546.69
17620,-3.8721,0.4176,0.0876,-898.19,-327.39,1687.62
17630,-3.8721,0.4271,0.0907,1461.18,-780.46,265.75
17640,-3.8722,0.4290,0.0983,-1320.07,-389.83,-1328.00
17650,-3.8722,0.4232,0.1128,-1085.69,578.92,-1968.57
17660,-3.8722,0.4108,0.1338,-1820.07,-1561.71,-1593.57
17670,-3.8722,0.3955,0.1494,586.18,1125.79,-671.63
17680,-3.8721,0.3821,0.1548,-1366.94,-874.27,140.87
17690,-3.8721,0.3792,0.1539,914.31,-186.77,15.87
17700,-3.8722,0.3895,0.1461,539.31,-296.14,-452.88
17710,-3.8721,0.4028,0.1368,1867.43,-1296.14,47.12
17720,-3.8721,0.4094,0.1398,-429.44,1516.36,-1593.51
17730,-3.8719,0.4104,0.1620,414.31,1891.42,-1421.63
17740,-3.8718,0.4136,0.2006,539.31,735.17,-77.82
17750,-3.8716,0.4279,0.2430,945.56,1672.67,1609.74
17760,-3.8715,0.4600,0.2684,-1226.32,-889.83,-1249.57
17770,-3.8713,0.5061,0.2693,-1116.94,-1639.77,1969.24
17780,-3.8713,0.5521,0.2521,789.31,-1530.27,-1905.76
17790,-3.8715,0.5853,0.2238,-1320.07,266.66,-343.26
17800,-3.8715,0.6006,0.1958,-1070.07,641.72,469.18
17810,-3.8716,0.6017,0.1798,883.06,1063.66,1765.99
17820,-3.8716,0.5989,0.1788,1023.68,-983.22,47.18
17830,-3.8717,0.5973,0.1896,664.31,-1108.22,-265.32
17840,-3.8716,0.5964,0.2158,461.18,266.78,1109.74
17850,-3.8716,0.5985,0.2596,351.81,-373.84,-187.13
17860,-3.8715,0.6067,0.3123,617.43,1235.53,-296.39
17870,-3.8712,0.6206,0.3601,1664.31,-30.09,188.05
17880,-3.8712,0.6377,0.3887,-554.44,-1905.09,-218.08
17890,-3.8711,0.6583,0.3948,1633.06,1751.22,1375.73
17900,-3.8711,0.6770,0.3851,273.68,-1467.47,375.73
17910,-3.8712,0.6814,0.3672,-1335.69,1298.16,1906.98
17920,-3.8712,0.6643,0.3525,-773.19,-998.72,235.05
17930,-3.8712,0.6284,0.3497,1039.31,1126.28,219.42
17940,-3.8712,0.5820,0.3563,445.56,766.85,1469.42
17950,-3.8712,0.5341,0.3652,-1491.94,1610.47,-749.33
17960,-3.8711,0.4921,0.3696,367.43,-1248.96,828.80
17970,-3.8711,0.4600,0.3708,-1007.57,-686.58,-1796.20
17980,-3.8711,0.4397,0.3761,-1116.94,-530.40,-108.70
17990,-3.8710,0.4330,0.3895,289.31,141.48,1797.61
18000,-3.8710,0.4369,0.4095,-570.07,1860.17,-374.27
18010,-3.8708,0.4470,0.4286,-70.07,422.67,1110.17
18020,-3.8708,0.4608,0.4386,1226.81,-1139.77,1719.54
18030,-3.8708,0.4673,0.4391,-1007.57,141.48,1563.35
18040,-3.8708,0.4541,0.4336,-179.44,203.98,1125.85
18050,-3.8708,0.4196,0.4264,-1866.94,-499.15,1282.04
18060,-3.8708,0.3701,0.4247,1711.18,-1421.08,-1467.96
18070,-3.8707,0.3176,0.4297,-616.94,-1639.95,782.04
18080,-3.8707,0.2755,0.4344,664.31,-999.39,-608.58
18090,-3.8706,0.2480,0.4357,-726.32,-390.14,1407.04
18100,-3.8706,0.2365,0.4352,-241.94,-233.95,-1530.46
18110,-3.8706,0.2410,0.4365,-1726.32,-296.45,-1374.21
18120,-3.8706,0.2562,0.4432,-1148.19,-124.57,-1389.83
18130,-3.8706,0.2728,0.4568,804.93,734.86,-686.65
18140,-3.8705,0.2764,0.4727,-1070.07,-1530.76,891.48
18150,-3.8705,0.2577,0.4867,-616.94,500.49,-1233.46
18160,-3.8704,0.2197,0.4963,992.43,-1702.64,125.92
18170,-3.8704,0.1755,0.5045,133.06,-468.32,641.54
18180,-3.8704,0.1359,0.5118,-1523.19,578.43,438.48
18190,-3.8704,0.1058,0.5172,1398.68,1515.87,375.98
18200,-3.8704,0.0854,0.5272,1554.93,-1796.69,1157.23
18210,-3.8704,0.0671,0.5436,-1054.44,-515.50,-1124.02
18220,-3.8702,0.0455,0.5590,601.81,1578.25,844.79
18230,-3.8702,0.0154,0.5647,1836.18,-453.06,-1327.09
18240,-3.8701,-0.0295,0.5603,1976.81,281.25,313.60
18250,-3.8701,-0.0850,0.5502,226.81,-265.69,860.41
18260,-3.8702,-0.1361,0.5336,1133.06,-1562.68,-311.46
18270,-3.8702,-0.1680,0.5078,-1413.82,312.19,1626.04
18280,-3.8704,-0.1815,0.4775,-1491.94,1015.26,-545.90
18290,-3.8704,-0.1858,0.4543,773.68,1140.26,1094.67
18300,-3.8705,-0.1830,0.4451,226.81,-1828.49,-1108.52
18310,-3.8705,-0.1752,0.4457,586.18,984.01,1188.35
18320,-3.8705,-0.1649,0.4496,1586.18,1062.13,203.98
18330,-3.8706,-0.1559,0.4512,-1101.32,1562.13,-905.40
18340,-3.8706,-0.1453,0.4467,54.93,1765.32,985.23
18350,-3.8707,-0.1288,0.4387,1414.31,1187.19,-1655.40
18360,-3.8708,-0.1057,0.4320,-476.32,171.57,-155.40
18370,-3.8708,-0.0792,0.4264,-1523.19,-687.74,1766.42
18380,-3.8710,-0.0547,0.4185,1867.43,-1406.43,-186.71
18390,-3.8710,-0.0354,0.4054,1008.06,1578.00,1453.92
18400,-3.8711,-0.0220,0.3883,-523.19,-93.87,-1702.39
18410,-3.8712,-0.0123,0.3708,1195.56,1718.69,-1139.89
18420,-3.8713,-0.0026,0.3553,-1570.07,-515.69,-139.95
18430,-3.8713,0.0054,0.3396,-320.07,1499.94,1360.05
18440,-3.8715,0.0044,0.3199,695.56,-531.25,-593.14
18450,-3.8715,-0.0068,0.2979,570.56,953.12,-1843.14
18460,-3.8715,-0.0206,0.2747,-866.94,-1859.44,797.42
18470,-3.8716,-0.0275,0.2461,1367.43,-828.19,-1390.14
18480,-3.8717,-0.0267,0.2124,492.43,-484.44,-93.32
18490,-3.8717,-0.0229,0.1792,586.18,-796.94,1062.87
18500,-3.8718,-0.0170,0.1508,1070.56,-1046.94,-1390.32
18510,-3.8718,-0.0096,0.1295,1836.18,-687.56,781.49
18520,-3.8719,0.0015,0.1165,-1226.32,593.69,-593.51
18530,-3.8719,0.0199,0.1079,195.56,-1093.75,-1484.19
18540,-3.8719,0.0414,0.1005,-1445.07,1812.50,-1952.94
18550,-3.8719,0.0614,0.0957,1304.93,859.44,1406.43
18560,-3.8719,0.0784,0.0903,-132.57,250.06,359.56
18570,-3.8721,0.0896,0.0787,-1960.69,-437.38,-562.38
18580,-3.8721,0.0922,0.0647,-523.19,-1921.75,-1343.63
18590,-3.8721,0.0846,0.0558,-195.07,281.37,-1953.00
18600,-3.8721,0.0713,0.0511,-1163.82,-859.25,1703.19
18610,-3.8721,0.0646,0.0452,1133.06,-1453.00,1734.44
18620,-3.8721,0.0685,0.0374,273.68,1781.37,-1937.44
18630,-3.8721,0.0823,0.0319,773.68,781.37,-1671.81
18640,-3.8721,0.1124,0.0288,-1460.69,78.25,-1796.81
18650,-3.8721,0.1553,0.0249,-1601.32,-312.32,1671.88
18660,-3.8721,0.1953,0.0195,-116.94,-812.26,1078.12
18670,-3.8721,0.2169,0.0120,1008.06,-1499.63,921.88
18680,-3.8721,0.2128,0.0049,-226.32,1531.62,1375.00
18690,-3.8721,0.1891,-0.0001,-757.57,625.37,1968.75
18700,-3.8721,0.1598,-0.0074,211.18,-15.26,-1812.56
18710,-3.8721,0.1367,-0.0172,461.18,-952.82,1765.56
18720,-3.8721,0.1248,-0.0269,1508.06,1797.12,718.69
18730,-3.8722,0.1252,-0.0380,-23.19,562.68,-734.44
18740,-3.8722,0.1323,-0.0483,39.31,-859.13,-1937.62
18750,-3.8722,0.1359,-0.0510,945.56,1812.74,1312.38
18760,-3.8722,0.1364,-0.0475,1398.68,1468.99,859.25
18770,-3.8722,0.1458,-0.0441,1461.18,1922.12,374.88
18780,-3.8723,0.1656,-0.0403,-1335.69,-1640.38,-375.12
18790,-3.8723,0.1843,-0.0339,1211.18,-1155.94,-984.50
18800,-3.8723,0.1973,-0.0267,-398.19,-343.44,-1265.75
18810,-3.8723,0.2092,-0.0242,1258.06,578.49,-1093.81
18820,-3.8723,0.2202,-0.0262,-1210.69,906.62,-500.06
18830,-3.8722,0.2284,-0.0272,195.56,641.05,78.06
18840,-3.8723,0.2336,-0.0267,1242.43,516.05,-0.06
18850,-3.8723,0.2389,-0.0292,1914.31,578.55,-1031.31
18860,-3.8723,0.2480,-0.0332,-1413.82,266.05,1781.19
18870,-3.8723,0.2633,-0.0360,-241.94,-249.57,828.00
18880,-3.8724,0.2815,-0.0378,1711.18,-608.89,-203.25
18890,-3.8724,0.3004,-0.0333,39.31,-843.20,-1062.62
18900,-3.8724,0.3202,-0.0205,-1538.82,-265.08,-1687.62
18910,-3.8724,0.3439,-0.0059,992.43,1375.61,-1218.81
18920,-3.8723,0.3745,0.0043,23.68,-749.33,156.19
18930,-3.8723,0.4071,0.0114,-54.44,547.55,1578.12
18940,-3.8723,0.4349,0.0208,117.43,1453.92,-875.00
18950,-3.8722,0.4521,0.0308,-320.07,-1342.96,562.50
18960,-3.8722,0.4537,0.0410,1883.06,-61.65,1812.50
18970,-3.8722,0.4369,0.0525,-1913.82,1250.85,-874.94
18980,-3.8721,0.4080,0.0640,-70.07,-1280.46,703.19
18990,-3.8721,0.3806,0.0704,226.81,188.29,-1874.88
19000,-3.8721,0.3629,0.0630,726.81,1016.36,-1015.50
19010,-3.8721,0.3580,0.0430,-1538.82,63.17,-749.88
19020,-3.8721,0.3649,0.0261,1836.18,1500.67,-671.81
19030,-3.8721,0.3766,0.0232,-1288.82,-655.58,-62.50
19040,-3.8719,0.3864,0.0382,211.18,-1030.52,1515.62
19050,-3.8719,0.3943,0.0717,1461.18,891.36,-62.44
19060,-3.8718,0.4054,0.1133,-1523.19,1172.61,-1015.50
19070,-3.8717,0.4210,0.1466,-101.32,-1499.27,-1671.69
19080,-3.8716,0.4358,0.1644,1898.68,-1233.58,1437.74
19090,-3.8716,0.4431,0.1699,-210.69,1047.67,-296.57
19100,-3.8715,0.4407,0.1670,726.81,1750.85,703.43
19110,-3.8715,0.4326,0.1593,414.31,1375.85,437.81
19120,-3.8716,0.4252,0.1510,-616.94,391.42,-187.19
19130,-3.8716,0.4192,0.1506,-1570.07,-671.08,-171.63
19140,-3.8715,0.4139,0.1647,1664.31,-717.96,593.99
19150,-3.8715,0.4138,0.1886,992.43,1078.92,-1827.82
19160,-3.8713,0.4178,0.2146,976.81,141.42,625.37
19170,-3.8713,0.4174,0.2401,1492.43,-530.46,-702.76
19180,-3.8712,0.4126,0.2621,1429.93,-1264.83,1203.55
19190,-3.8712,0.4133,0.2745,820.56,1547.67,1750.49
19200,-3.8712,0.4244,0.2780,914.31,-858.58,797.36
19210,-3.8713,0.4420,0.2793,-1663.82,-421.08,-1140.14
19220,-3.8713,0.4619,0.2825,586.18,-249.15,297.36
19230,-3.8715,0.4846,0.2833,-866.94,157.10,1500.55
19240,-3.8716,0.5078,0.2791,-1960.69,266.54,-30.70
19250,-3.8715,0.5190,0.2788,1008.06,-280.27,781.74
19260,-3.8715,0.5073,0.2955,-1554.44,-311.52,-640.14
19270,-3.8713,0.4790,0.3304,945.56,1829.10,-1061.95
19280,-3.8712,0.4487,0.3765,1320.56,-1702.21,-905.64
19290,-3.8711,0.4250,0.4240,1445.56,188.35,-233.64
19300,-3.8708,0.4135,0.4575,-1585.69,-1733.58,485.17
19310,-3.8708,0.4180,0.4615,929.93,-1436.71,-14.77
19320,-3.8707,0.4297,0.4381,1508.06,-921.08,1016.48
19330,-3.8708,0.4321,0.4084,-991.94,78.92,-452.27
19340,-3.8708,0.4197,0.3882,-679.44,282.04,625.79
19350,-3.8710,0.3983,0.3817,1726.81,1688.29,1891.36
19360,-3.8710,0.3739,0.3883,-1007.57,860.11,297.61
19370,-3.8711,0.3530,0.4075,-132.57,1703.80,-77.39
19380,-3.8710,0.3391,0.4381,1195.56,156.92,1438.29
19390,-3.8708,0.3320,0.4708,-585.69,78.74,547.73
19400,-3.8708,0.3342,0.4923,-1491.94,266.24,-311.58
19410,-3.8707,0.3440,0.4965,-1210.69,-983.76,1641.54
19420,-3.8707,0.3534,0.4867,39.31,-452.45,-1889.71
19430,-3.8707,0.3553,0.4728,1242.43,-1702.45,1297.79
19440,-3.8708,0.3470,0.4585,1492.43,516.30,-155.33
19450,-3.8708,0.3303,0.4419,429.93,-1311.83,-1577.27
19460,-3.8708,0.3092,0.4248,-1710.69,563.11,1375.85
19470,-3.8708,0.2893,0.4116,-413.82,-1624.45,625.79
19480,-3.8710,0.2740,0.4075,1039.31,688.05,-249.21
19490,-3.8710,0.2661,0.4144,-913.82,156.74,-702.33
19500,-3.8710,0.2654,0.4307,-1929.44,1047.36,-452.33
19510,-3.8710,0.2666,0.4532,1976.81,-874.51,-171.08
19520,-3.8708,0.2723,0.4794,-1866.94,-1983.89,782.10
19530,-3.8708,0.2788,0.5074,-1132.57,1359.86,-327.21
19540,-3.8706,0.2725,0.5432,-304.44,953.61,391.60
19550,-3.8705,0.2595,0.5919,-1116.94,1531.74,1626.04
19560,-3.8704,0.2595,0.6462,1226.81,-233.89,-1186.40
19570,-3.8702,0.2749,0.6979,1226.81,-1280.76,-155.03
19580,-3.8700,0.2964,0.7407,-804.44,1328.61,173.22
19590,-3.8700,0.3179,0.7645,1945.56,-1186.95,-732.97
19600,-3.8699,0.3308,0.7623,695.56,1859.99,1017.09
19610,-3.8699,0.3267,0.7371,-1648.19,1578.74,782.71
19620,-3.8700,0.2983,0.7017,1820.56,-1655.64,-1498.60
19630,-3.8701,0.2482,0.6683,-1804.44,1813.05,-748.66
19640,-3.8701,0.1942,0.6403,-226.32,1547.30,173.16
19650,-3.8702,0.1523,0.6158,867.43,1953.49,1563.72
19660,-3.8704,0.1272,0.5911,-491.94,-1171.63,-826.97
19670,-3.8704,0.1167,0.5662,289.31,-343.51,844.85
19680,-3.8705,0.1154,0.5450,-1054.44,468.93,-1280.15
19690,-3.8705,0.1207,0.5323,-1226.32,1765.81,891.66
19700,-3.8706,0.1306,0.5282,-538.82,140.81,-608.34
19710,-3.8706,0.1403,0.5272,726.81,-390.38,-1795.90
19720,-3.8706,0.1410,0.5231,1961.18,-515.38,1094.73
19730,-3.8707,0.1300,0.5146,-1945.07,-1046.63,-389.65
19740,-3.8707,0.1157,0.5065,648.68,1875.24,1797.85
19750,-3.8708,0.1052,0.4958,-1179.44,828.31,-358.40
19760,-3.8708,0.1010,0.4803,1476.81,-531.07,1344.67
19770,-3.8710,0.1016,0.4640,929.93,1484.56,-1045.96
19780,-3.8710,0.1041,0.4467,1008.06,-609.19,407.10
19790,-3.8711,0.1072,0.4285,1336.18,1172.06,1735.23
19800,-3.8712,0.1080,0.4102,1726.81,-1156.07,-1108.58
19810,-3.8712,0.1045,0.3906,1836.18,500.18,32.04
19820,-3.8713,0.0929,0.3696,1383.06,-1999.82,1235.11
19830,-3.8715,0.0701,0.3478,-101.32,-687.38,-1405.58
19840,-3.8715,0.0417,0.3254,976.81,515.75,94.42
19850,-3.8716,0.0140,0.3029,1351.81,1656.31,1828.74
19860,-3.8716,-0.0128,0.2817,1804.93,-1234.38,16.17
19870,-3.8717,-0.0361,0.2650,-1632.57,78.06,-1608.83
19880,-3.8717,-0.0436,0.2552,-616.94,1937.38,672.36
19890,-3.8718,-0.0232,0.2515,-1570.07,687.38,-812.01
19900,-3.8718,0.0167,0.2493,1039.31,203.06,1672.36
19910,-3.8719,0.0564,0.2432,-1851.32,-93.75,-202.70
19920,-3.8719,0.0764,0.2297,-773.19,-874.94,1859.80
19930,-3.8719,0.0682,0.2139,1789.31,1406.37,203.55
19940,-3.8721,0.0424,0.1998,742.43,-624.88,-952.76
19950,-3.8721,0.0142,0.1882,1429.93,1578.19,-1046.51
19960,-3.8719,-0.0068,0.1831,1820.56,93.75,47.24
19970,-3.8719,-0.0155,0.1841,-866.94,-546.94,1797.18
19980,-3.8719,-0.0090,0.1840,-1976.32,-421.94,-218.44
19990,-3.8718,0.0078,0.1783,-1148.19,-437.56,1375.31
20000,-3.8718,0.0262,0.1663,1008.06,-1171.88,-1984.07
20010,-3.8718,0.0428,0.1509,-632.57,1281.25,1781.56
20020,-3.8718,0.0560,0.1383,1492.43,-687.44,1312.74
20030,-3.8718,0.0643,0.1289,-820.07,1703.19,1406.49
20040,-3.8718,0.0687,0.1187,242.43,500.12,-1984.13
20050,-3.8718,0.0748,0.1053,804.93,-812.38,-1874.82
20060,-3.8718,0.0884,0.0884,1586.18,1484.50,1328.31
20070,-3.8719,0.1040,0.0703,-679.44,-687.38,-156.13
20080,-3.8719,0.1138,0.0546,1320.56,1000.18,-1640.50
20090,-3.8719,0.1188,0.0468,-1429.44,-1015.44,1656.31
20100,-3.8719,0.1216,0.0499,-788.82,1984.56,1625.06
20110,-3.8719,0.1238,0.0575,-429.44,-1609.19,1953.19
20120,-3.8719,0.1261,0.0591,-148.19,-640.44,-1562.44
20130,-3.8719,0.1296,0.0502,148.68,-437.26,-1484.31
20140,-3.8719,0.1351,0.0303,601.81,-1577.88,1703.19
20150,-3.8719,0.1448,0.0049,1304.93,-124.76,109.38
20160,-3.8721,0.1583,-0.0154,-1460.69,625.24,-1875.00
20170,-3.8721,0.1670,-0.0255,273.68,-1968.44,406.19
20180,-3.8722,0.1639,-0.0254,1383.06,734.68,-406.31
20190,-3.8722,0.1527,-0.0197,992.43,750.31,-156.31
20200,-3.8721,0.1421,-0.0133,-445.07,1484.62,562.44
20210,-3.8721,0.1381,-0.0099,-1804.44,-1702.88,1093.69
20220,-3.8721,0.1450,-0.0143,1679.93,-1265.38,1015.56
20230,-3.8721,0.1610,-0.0260,-1429.44,-1827.88,359.31
20240,-3.8722,0.1793,-0.0392,617.43,672.18,-546.94
20250,-3.8722,0.1949,-0.0510,-1038.82,-1015.32,-1562.62
20260,-3.8722,0.2075,-0.0615,961.18,1469.12,1281.13
20270,-3.8723,0.2234,-0.0714,-1429.44,125.37,-31.37
20280,-3.8723,0.2444,-0.0834,601.81,-1140.20,-1375.18
20290,-3.8723,0.2600,-0.0969,-710.69,1328.55,1296.69
20300,-3.8723,0.2668,-0.1079,1289.31,-405.76,171.63
20310,-3.8724,0.2670,-0.1154,-1835.69,-1812.01,-468.99
20320,-3.8724,0.2577,-0.1212,-1820.07,1234.86,-1062.74
20330,-3.8724,0.2455,-0.1261,992.43,484.86,-1609.62
20340,-3.8724,0.2394,-0.1288,-570.07,-140.20,-1890.93
20350,-3.8724,0.2462,-0.1265,-1351.32,-483.95,1952.82
20360,-3.8724,0.2739,-0.1185,-476.32,-187.07,1999.69
20370,-3.8724,0.3141,-0.1045,-929.44,828.61,-1187.74
20380,-3.8723,0.3463,-0.0836,211.18,-1374.39,734.13
20390,-3.8723,0.3634,-0.0625,336.18,1297.55,-609.56
20400,-3.8722,0.3695,-0.0459,-1476.32,0.67,1781.13
20410,-3.8722,0.3647,-0.0336,-695.07,-1874.33,-781.37
20420,-3.8722,0.3540,-0.0325,-1304.44,-296.20,-672.00
20430,-3.8722,0.3488,-0.0476,1320.56,-155.58,1937.38
20440,-3.8723,0.3517,-0.0734,648.68,1906.92,-328.25
20450,-3.8723,0.3591,-0.0983,1023.68,-1389.95,1515.44
20460,-3.8723,0.3683,-0.1036,1976.81,-577.45,906.01
20470,-3.8723,0.3744,-0.0725,-851.32,-1264.95,-125.24
20480,-3.8721,0.3781,-0.0140,-70.07,-1280.58,-1828.31
20490,-3.8718,0.3915,0.0468,398.68,-1796.14,1453.06
20500,-3.8717,0.4252,0.0935,-1882.57,1985.11,-359.31
20510,-3.8716,0.4738,0.1187,-1570.07,-30.46,-609.25
20520,-3.8715,0.5269,0.1177,648.68,-811.58,531.43
20530,-3.8716,0.5715,0.0979,-554.44,-936.52,-468.57
20540,-3.8716,0.5931,0.0729,1164.31,532.35,937.68
20550,-3.8717,0.5924,0.0454,-70.07,1329.22,1562.62
20560,-3.8718,0.5795,0.0165,-163.82,1813.60,-1828.06
20570,-3.8719,0.5646,-0.0105,-1820.07,-1889.53,-359.38
20580,-3.8719,0.5529,-0.0286,273.68,-1342.65,-1031.31
20590,-3.8718,0.5469,-0.0255,-1226.32,344.79,593.69
20600,-3.8717,0.5507,-0.0007,-1991.94,735.41,93.69
20610,-3.8716,0.5668,0.0383,-1507.57,-92.71,656.19
20620,-3.8715,0.5876,0.0858,554.93,907.35,1421.94
20630,-3.8713,0.5970,0.1295,-773.19,-1014.53,1937.62
20640,-3.8712,0.5885,0.1572,429.93,579.28,1656.49
20650,-3.8712,0.5693,0.1656,-663.82,126.10,-249.69
20660,-3.8711,0.5493,0.1597,883.06,1204.22,453.43
20670,-3.8711,0.5321,0.1505,-1679.44,438.54,844.06
20680,-3.8711,0.5223,0.1482,117.43,-733.34,1297.12
20690,-3.8711,0.5239,0.1512,-1132.57,-1030.27,1578.37
20700,-3.8711,0.5292,0.1593,-929.44,-639.65,1890.87
20710,-3.8711,0.5303,0.1801,-257.57,391.60,-1921.57
20720,-3.8711,0.5299,0.2097,-116.94,-952.15,1812.81
20730,-3.8711,0.5297,0.2319,-163.82,-1155.27,1562.87
20740,-3.8711,0.5234,0.2352,-195.07,1688.48,1625.43
20750,-3.8711,0.5083,0.2236,-991.94,-1889.65,1891.05
20760,-3.8711,0.4861,0.2096,1070.56,625.98,-1780.82
20770,-3.8711,0.4591,0.2054,-1773.19,-1170.96,-952.76
20780,-3.8710,0.4314,0.2197,-1226.32,-1702.27,765.99
20790,-3.8710,0.4133,0.2480,-773.19,125.79,-812.07
20800,-3.8708,0.4139,0.2854,914.31,-249.21,-1702.70
20810,-3.8707,0.4275,0.3341,992.43,532.04,1797.42
20820,-3.8706,0.4465,0.3912,-1273.19,-1233.58,1719.36
20830,-3.8705,0.4703,0.4401,1164.31,-1921.02,-1530.52
20840,-3.8704,0.4908,0.4656,211.18,329.04,-733.52
20850,-3.8702,0.4978,0.4712,-1163.82,-405.33,-1327.27
20860,-3.8702,0.4919,0.4615,-273.19,313.42,-92.83
20870,-3.8702,0.4775,0.4398,-1023.19,-920.96,-1077.27
20880,-3.8702,0.4590,0.4178,1133.06,297.79,344.60
20890,-3.8704,0.4377,0.4059,-1241.94,1485.23,953.92
20900,-3.8705,0.4164,0.4070,39.31,-46.02,1781.98
20910,-3.8706,0.4005,0.4122,1304.93,94.54,-233.58
20920,-3.8706,0.3888,0.4128,-726.32,766.36,-1030.46
20930,-3.8706,0.3760,0.4175,1773.68,844.48,-1249.21
20940,-3.8706,0.3553,0.4309,133.06,1438.23,-1421.08
20950,-3.8706,0.3242,0.4404,1492.43,-843.08,-1624.21
20960,-3.8706,0.2877,0.4352,1508.06,375.61,1735.23
20970,-3.8706,0.2521,0.4205,836.18,-296.33,313.29
20980,-3.8707,0.2219,0.4065,273.68,1828.61,-1702.33
20990,-3.8707,0.2002,0.3945,414.31,31.68,94.54
21000,-3.8708,0.1904,0.3838,1633.06,-1499.63,1891.36
21010,-3.8710,0.1904,0.3767,383.06,1125.37,-389.89
21020,-3.8710,0.1930,0.3781,383.06,219.12,1813.23
21030,-3.8710,0.1909,0.3877,711.18,390.99,1453.86
21040,-3.8710,0.1794,0.3997,445.56,1625.37,-921.14
21050,-3.8708,0.1520,0.4082,-1023.19,-843.44,1938.23
21060,-3.8707,0.1150,0.4125,-538.82,250.24,1172.67
21070,-3.8707,0.0808,0.4124,-1273.19,797.06,-92.96
21080,-3.8706,0.0543,0.4076,-1648.19,781.37,1891.42
21090,-3.8706,0.0408,0.4000,-1038.82,171.94,-749.21
21100,-3.8706,0.0383,0.3876,1226.81,-796.81,-468.02
21110,-3.8706,0.0388,0.3708,914.31,1609.44,-843.02
21120,-3.8706,0.0382,0.3562,976.81,-531.19,-1343.08
21130,-3.8706,0.0371,0.3511,898.68,1593.81,-1624.33
21140,-3.8706,0.0372,0.3571,758.06,937.56,-1374.33
21150,-3.8706,0.0391,0.3672,773.68,1703.19,-733.70
21160,-3.8706,0.0414,0.3746,1008.06,-999.94,-61.83
21170,-3.8705,0.0420,0.3739,1304.93,-46.81,375.67
21180,-3.8705,0.0433,0.3641,1383.06,-140.56,391.30
21190,-3.8706,0.0463,0.3508,1554.93,-1390.56,-139.95
21200,-3.8706,0.0492,0.3379,1929.93,906.31,-1343.08
21210,-3.8706,0.0527,0.3234,-1695.07,-749.94,625.61
21220,-3.8707,0.0530,0.3077,-1241.94,1390.69,-1952.51
21230,-3.8708,0.0449,0.2939,-1210.69,-609.31,-593.20
21240,-3.8708,0.0336,0.2789,1758.06,1625.06,391.17
21250,-3.8710,0.0293,0.2562,304.93,-296.81,937.99
21260,-3.8711,0.0334,0.2327,-241.94,796.88,1641.11
21270,-3.8712,0.0402,0.2253,289.31,1781.31,-1046.45
21280,-3.8712,0.0439,0.2385,1148.68,843.81,1062.93
21290,-3.8712,0.0431,0.2670,1633.06,-1468.69,391.05
21300,-3.8712,0.0370,0.3035,1523.68,-1828.06,797.36
21310,-3.8712,0.0308,0.3286,742.43,-1156.19,1859.92
21320,-3.8712,0.0347,0.3254,-54.44,-1937.50,-905.64
21330,-3.8712,0.0459,0.2968,445.56,1656.31,-811.89
21340,-3.8712,0.0529,0.2581,1883.06,1984.44,1203.67
21350,-3.8713,0.0520,0.2238,-1226.32,1031.31,1594.24
21360,-3.8715,0.0442,0.1979,-1335.69,640.69,1781.68
21370,-3.8716,0.0278,0.1796,1664.31,1328.19,-859.01
21380,-3.8716,0.0051,0.1627,-429.44,-1015.62,1703.43
21390,-3.8716,-0.0142,0.1431,664.31,828.12,906.56
21400,-3.8716,-0.0245,0.1257,-1804.44,-1671.94,156.49
21410,-3.8717,-0.0280,0.1195,867.43,109.31,-515.38
21420,-3.8717,-0.0255,0.1232,429.93,-687.56,-843.57
21430,-3.8717,-0.0155,0.1224,742.43,-218.81,-1077.94
21440,-3.8717,-0.0022,0.1097,-1976.32,-312.56,-1452.94
21450,-3.8717,0.0059,0.0928,-273.19,-1937.56,1953.31
21460,-3.8717,0.0100,0.0804,758.06,-125.00,1093.87
21470,-3.8717,0.0178,0.0751,1289.31,-1703.12,250.12
21480,-3.8718,0.0306,0.0743,-1710.69,1609.38,-390.50
21490,-3.8718,0.0481,0.0747,-70.07,1515.62,-1218.63
21500,-3.8718,0.0680,0.0721,-1835.69,1562.56,1656.37
21510,-3.8718,0.0852,0.0642,711.18,1234.50,375.12
21520,-3.8719,0.0979,0.0525,-1085.69,218.87,-921.75
21530,-3.8719,0.1052,0.0431,539.31,-1281.07,-1937.44
21540,-3.8719,0.1067,0.0400,1476.81,1515.81,1250.06
21550,-3.8719,0.1030,0.0386,1664.31,1125.18,406.31
21560,-3.8721,0.0989,0.0308,1195.56,937.68,-703.06
21570,-3.8721,0.0990,0.0153,664.31,-62.32,1578.12
21580,-3.8722,0.1049,0.0001,679.93,1953.31,-625.00
21590,-3.8722,0.1138,-0.0093,1429.93,15.81,1265.62
21600,-3.8723,0.1245,-0.0172,-1429.44,-1187.32,-421.94
21610,-3.8723,0.1385,-0.0249,-54.44,1797.06,-1593.81
21620,-3.8723,0.1548,-0.0264,1742.43,812.74,1593.69
21630,-3.8723,0.1700,-0.0210,-179.44,625.24,906.19
21640,-3.8723,0.1837,-0.0131,1773.68,1312.81,421.81
21650,-3.8723,0.1962,-0.0054,-476.32,-1671.57,296.81
21660,-3.8723,0.2078,0.0015,1117.43,-687.13,656.19
21670,-3.8723,0.2186,0.0015,-1398.19,187.87,765.62
21680,-3.8723,0.2296,-0.0083,-7.57,187.87,46.88
21690,-3.8724,0.2422,-0.0225,1398.68,-1062.07,-1265.69
21700,-3.8724,0.2523,-0.0366,-991.94,1125.43,1187.44
21710,-3.8724,0.2587,-0.0474,304.93,-687.01,281.13
21720,-3.8724,0.2611,-0.0464,1117.43,1937.99,1109.25
21730,-3.8724,0.2579,-0.0266,1429.93,-1937.01,-31.37
21740,-3.8723,0.2560,0.0038,1023.68,594.24,-546.94
21750,-3.8722,0.2683,0.0281,773.68,484.86,-1906.25
21760,-3.8721,0.2988,0.0454,-1648.19,-405.76,0.00
21770,-3.8721,0.3446,0.0603,-1741.94,1813.05,1343.81
21780,-3.8721,0.3999,0.0643,117.43,-280.58,1750.06
21790,-3.8721,0.4486,0.0499,-804.44,235.11,937.62
21800,-3.8722,0.4763,0.0242,1429.93,-1608.52,-968.69
21810,-3.8722,0.4813,-0.0042,976.81,-905.33,1015.62
21820,-3.8723,0.4725,-0.0314,1617.43,-530.33,-656.31
21830,-3.8723,0.4639,-0.0502,492.43,-14.71,-1406.37
21840,-3.8723,0.4559,-0.0494,-616.94,1578.98,-312.62
21850,-3.8722,0.4406,-0.0219,-1632.57,1672.73,-1359.50
21860,-3.8721,0.4210,0.0244,398.68,1203.98,-921.94
21870,-3.8718,0.4089,0.0660,1898.68,-874.21,296.88
21880,-3.8717,0.4116,0.0823,351.81,453.92,1390.75
21890,-3.8716,0.4281,0.0721,695.56,-1467.96,984.50
21900,-3.8716,0.4509,0.0505,-1195.07,1235.17,-1624.88
21910,-3.8716,0.4706,0.0304,1726.81,-1530.40,-1765.56
21920,-3.8716,0.4828,0.0175,242.43,-108.46,1734.38
21930,-3.8716,0.4885,0.0123,1804.93,-1764.71,1171.88
21940,-3.8716,0.4805,0.0170,-1460.69,1579.04,968.75
21950,-3.8716,0.4491,0.0378,1508.06,-1827.21,-1500.00
21960,-3.8715,0.4038,0.0750,1492.43,844.60,1968.81
21970,-3.8713,0.3638,0.1191,-304.44,1594.48,-1421.75
21980,-3.8712,0.3363,0.1626,-1429.44,-749.33,-46.69
21990,-3.8710,0.3281,0.1982,-945.07,813.11,1844.06
22000,-3.8708,0.3485,0.2222,-1991.94,1375.61,-124.63
22010,-3.8706,0.4009,0.2332,617.43,438.17,891.05
22020,-3.8706,0.4811,0.2303,-679.44,1844.48,-765.20
22030,-3.8706,0.5664,0.2207,1586.18,1485.29,-1437.07
22040,-3.8706,0.6283,0.2114,508.06,251.10,437.93
22050,-3.8707,0.6510,0.2009,429.93,-936.28,-1624.63
22060,-3.8707,0.6302,0.1860,-663.82,1719.97,812.87
22070,-3.8708,0.5801,0.1721,679.93,-186.28,-796.57
22080,-3.8708,0.5273,0.1672,-1741.94,-1967.65,1187.81
22090,-3.8710,0.4919,0.1753,-491.94,1407.23,-468.44
22100,-3.8710,0.4755,0.1951,-1023.19,-1561.58,-530.94
22110,-3.8708,0.4692,0.2216,867.43,969.67,937.87
22120,-3.8708,0.4714,0.2452,70.56,360.29,-858.95
22130,-3.8707,0.4824,0.2583,351.81,-608.46,1828.55
22140,-3.8707,0.4924,0.2612,1758.06,1063.42,-46.39
22150,-3.8706,0.4877,0.2583,-960.69,1438.42,391.11
22160,-3.8707,0.4609,0.2533,-1570.07,1063.42,-280.76
22170,-3.8707,0.4220,0.2495,-991.94,422.73,-1202.64
22180,-3.8707,0.3903,0.2521,-1976.32,-61.71,1641.05
22190,-3.8708,0.3782,0.2649,1961.18,266.36,-124.51
22200,-3.8708,0.3845,0.2887,414.31,1906.98,-1937.01
22210,-3.8708,0.3971,0.3170,1226.81,953.86,1125.55
22220,-3.8708,0.4062,0.3353,-1163.82,578.86,1047.49
22230,-3.8708,0.4083,0.3383,8.06,-1077.33,1484.99
22240,-3.8708,0.3956,0.3370,273.68,-702.33,-1765.01
22250,-3.8708,0.3651,0.3395,-1351.32,-858.64,-1374.39
22260,-3.8708,0.3282,0.3419,-1257.57,-546.20,-1577.51
22270,-3.8708,0.2961,0.3398,-1976.32,-233.76,1813.11
22280,-3.8708,0.2701,0.3325,1914.31,-499.45,672.49
22290,-3.8710,0.2461,0.3207,-1413.82,-1437.01,-515.01
22300,-3.8710,0.2167,0.3124,-491.94,1047.30,-358.76
22310,-3.8708,0.1804,0.3215,-257.57,-15.26,-1671.33
22320,-3.8707,0.1366,0.3600,-898.19,1156.56,-1327.51
22330,-3.8705,0.0905,0.4189,1492.43,-1921.63,406.92
22340,-3.8704,0.0581,0.4679,-413.82,1625.12,-483.58
22350,-3.8701,0.0459,0.4882,-554.44,-109.31,1422.73
22360,-3.8701,0.0502,0.4818,1883.06,-1515.56,-202.21
22370,-3.8701,0.0682,0.4587,-1570.07,1671.94,-1374.08
22380,-3.8702,0.0934,0.4331,742.43,-1281.13,-686.65
22390,-3.8704,0.1152,0.4176,-38.82,-562.38,-702.33
22400,-3.8705,0.1299,0.4174,-1241.94,1453.31,-14.83
22410,-3.8705,0.1404,0.4333,633.06,1422.12,-1889.83
22420,-3.8705,0.1439,0.4598,1976.81,-531.01,1453.92
22430,-3.8705,0.1327,0.4833,-1570.07,-1140.38,1578.98
22440,-3.8705,0.1093,0.4967,992.43,1859.62,-1733.46
22450,-3.8705,0.0854,0.4944,1992.43,-421.69,-1108.46
22460,-3.8705,0.0709,0.4728,-1054.44,-718.63,-1436.58
22470,-3.8705,0.0708,0.4410,1086.18,515.75,1016.54
22480,-3.8706,0.0830,0.4097,1070.56,453.25,-1639.77
22490,-3.8707,0.0961,0.3860,-1366.94,437.62,-796.08
22500,-3.8707,0.1028,0.3722,304.93,1406.43,266.36
22510,-3.8708,0.1066,0.3624,1164.31,-359.19,1703.80
22520,-3.8710,0.1100,0.3480,1648.68,-1609.19,-671.20
22530,-3.8710,0.1086,0.3269,-1913.82,547.06,953.80
22540,-3.8711,0.0995,0.3080,1914.31,1843.93,-858.76
22550,-3.8711,0.0875,0.2998,742.43,-577.94,-1890.08
22560,-3.8711,0.0796,0.3014,-788.82,-1624.88,1469.30
22570,-3.8711,0.0737,0.3041,-1804.44,-1421.75,875.55
22580,-3.8711,0.0669,0.2979,1445.56,-1078.00,63.05
22590,-3.8712,0.0605,0.2781,570.56,-1874.88,-1530.70
22600,-3.8713,0.0565,0.2463,-241.94,-406.19,-140.14
22610,-3.8713,0.0554,0.2125,-757.57,-468.69,672.30
22620,-3.8715,0.0593,0.1866,-898.19,-796.81,1312.87
22630,-3.8716,0.0701,0.1694,-398.19,-109.31,-1968.44
22640,-3.8717,0.0835,0.1561,976.81,1687.62,-671.57
22650,-3.8717,0.0902,0.1449,-1304.44,-15.50,1422.12
22660,-3.8718,0.0880,0.1353,-445.07,-1453.00,-77.88
22670,-3.8718,0.0833,0.1265,-726.32,1312.62,-1593.51
22680,-3.8718,0.0802,0.1195,-1335.69,187.62,797.12
22690,-3.8719,0.0820,0.1187,-1726.32,-703.00,-749.82
22700,-3.8719,0.0902,0.1254,-1491.94,-812.38,-1406.07
22710,-3.8719,0.0983,0.1365,-445.07,47.00,-1374.76
22720,-3.8719,0.1036,0.1406,586.18,1468.93,-1781.01
22730,-3.8719,0.1072,0.1287,1273.68,-1999.82,1484.62
22740,-3.8719,0.1067,0.1077,1726.81,468.93,859.62
22750,-3.8719,0.1046,0.0908,1664.31,1781.43,468.93
22760,-3.8719,0.1066,0.0829,1398.68,-374.82,93.87
22770,-3.8721,0.1139,0.0823,1648.68,-1390.44,-328.00
22780,-3.8721,0.1245,0.0826,-1413.82,-1468.57,-640.50
22790,-3.8721,0.1343,0.0770,-54.44,-1421.69,-1062.38
22800,-3.8721,0.1415,0.0630,1195.56,1859.62,-1953.00
22810,-3.8721,0.1483,0.0431,-1882.57,62.74,531.37
22820,-3.8722,0.1517,0.0244,-1007.57,1515.87,-1171.81
22830,-3.8722,0.1483,0.0118,-570.07,-874.76,1343.75
22840,-3.8722,0.1450,0.0057,-1007.57,1515.87,125.00
22850,-3.8723,0.1503,0.0046,-1429.44,734.62,-734.38
22860,-3.8723,0.1610,0.0034,-757.57,593.99,-1406.25
22870,-3.8723,0.1700,0.0007,617.43,437.81,-1750.00
22880,-3.8723,0.1726,-0.0013,1773.68,94.06,-1906.25
22890,-3.8723,0.1682,0.0007,-1898.19,-171.57,-1953.19
22900,-3.8723,0.1598,0.0093,1539.31,94.06,-1406.25
22910,-3.8723,0.1554,0.0179,461.18,1187.81,-421.88
22920,-3.8722,0.1647,0.0164,-101.32,-1702.88,296.88
22930,-3.8722,0.1862,-0.0013,1086.18,-1905.94,390.62
22940,-3.8722,0.2147,-0.0221,-163.82,-171.57,93.69
22950,-3.8723,0.2460,-0.0366,-507.57,1172.24,-656.31
22960,-3.8723,0.2744,-0.0411,-507.57,-687.07,-734.50
22970,-3.8722,0.2915,-0.0305,-866.94,-1265.14,437.38
22980,-3.8722,0.2946,-0.0062,1320.56,94.30,-1296.94
22990,-3.8721,0.2965,0.0302,1711.18,-796.33,1906.19
23000,-3.8719,0.3098,0.0673,1961.18,-140.08,1078.12
23010,-3.8718,0.3359,0.0942,-335.69,609.92,93.87
23020,-3.8718,0.3691,0.1047,-991.94,63.11,-1531.07
23030,-3.8718,0.4014,0.0981,-741.94,1406.92,-171.69
23040,-3.8718,0.4231,0.0831,-616.94,563.23,-374.82
23050,-3.8718,0.4355,0.0679,-1835.69,-1358.58,-1968.63
23060,-3.8719,0.4471,0.0509,-241.94,688.29,-109.25
23070,-3.8719,0.4598,0.0287,1242.43,-1483.52,1796.94
23080,-3.8719,0.4659,0.0093,-1132.57,-327.27,375.00
23090,-3.8721,0.4587,0.0012,-351.32,1188.35,-46.88
23100,-3.8719,0.4420,0.0048,-1273.19,157.10,390.62
23110,-3.8719,0.4254,0.0159,586.18,610.23,1078.12
23120,-3.8719,0.4127,0.0342,-1538.82,-1967.96,1984.38
23130,-3.8719,0.4014,0.0569,836.18,375.79,-234.31
23140,-3.8718,0.3938,0.0687,-616.94,-718.02,-1843.69
23150,-3.8717,0.3927,0.0596,-1585.69,797.61,187.62
23160,-3.8717,0.3948,0.0361,-1726.32,-374.27,1375.06
23170,-3.8717,0.4000,0.0095,-1460.69,625.73,-1999.94
23180,-3.8717,0.4104,-0.0106,-788.82,1219.48,-1265.62
23190,-3.8717,0.4208,-0.0186,539.31,-1358.58,-156.31
23200,-3.8716,0.4255,-0.0050,1867.43,1625.79,1515.56
23210,-3.8716,0.4247,0.0365,-1523.19,-639.83,-187.56
23220,-3.8715,0.4254,0.0942,-1632.57,672.67,-1390.56
