timestamp_ms,ax,ay,az,gx,gy,gz
0,-3.8723,0.1602,-0.1597,-70.07,-749.76,1218.44
10,-3.8723,0.1738,-0.1801,508.06,-437.19,593.38
20,-3.8723,0.1895,-0.1840,-1741.94,953.43,780.88
30,-3.8723,0.2036,-0.1670,258.06,453.49,-1969.12
40,-3.8722,0.2130,-0.1283,-1929.44,-1374.63,593.38
50,-3.8722,0.2172,-0.0742,-726.32,-421.51,-47.18
60,-3.8721,0.2178,-0.0194,-195.07,-1499.63,-515.81
70,-3.8719,0.2114,0.0155,-116.94,1515.99,-1781.31
80,-3.8718,0.2032,0.0240,-929.44,1984.74,359.38
90,-3.8718,0.2023,0.0181,-1976.32,-921.51,-1359.38
100,-3.8718,0.2118,0.0039,1898.68,-1687.13,-234.38
110,-3.8718,0.2341,-0.0188,-882.57,500.37,-312.50
120,-3.8717,0.2660,-0.0361,1976.81,1594.18,312.44
130,-3.8717,0.3020,-0.0291,-1945.07,-624.51,-1453.25
140,-3.8716,0.3356,0.0063,-1335.69,281.80,1843.69
150,-3.8715,0.3584,0.0585,-1038.82,813.11,1734.38
160,-3.8713,0.3693,0.1093,1883.06,-514.95,1468.81
170,-3.8712,0.3684,0.1359,-726.32,1985.05,531.43
180,-3.8712,0.3605,0.1265,-835.69,1391.30,-1265.38
190,-3.8712,0.3511,0.0896,-1851.32,188.17,-484.13
200,-3.8712,0.3365,0.0421,945.56,-530.58,-1687.38
210,-3.8713,0.3271,-0.0048,-913.82,1391.24,-328.06
220,-3.8713,0.3385,-0.0361,1883.06,-608.76,1999.94
230,-3.8713,0.3622,-0.0327,-663.82,-624.39,-1109.50
240,-3.8712,0.3835,0.0011,-1632.57,-186.83,1687.38
250,-3.8711,0.4016,0.0443,1101.81,141.36,921.88
260,-3.8711,0.4194,0.0781,-585.69,1672.61,-93.69
270,-3.8710,0.4377,0.0950,1695.56,-1999.21,-1671.75
280,-3.8710,0.4604,0.1063,39.31,157.10,-46.69
290,-3.8708,0.4930,0.1256,-1054.44,1610.23,468.93
300,-3.8710,0.5333,0.1443,-882.57,79.04,-687.26
310,-3.8710,0.5717,0.1449,273.68,-1530.21,812.74
320,-3.8711,0.5981,0.1243,1179.93,-1452.03,-1999.76
330,-3.8712,0.6060,0.0920,570.56,-92.59,-843.57
340,-3.8713,0.5948,0.0580,1570.56,-217.59,-15.50
350,-3.8713,0.5695,0.0287,148.68,-576.97,531.31
360,-3.8715,0.5380,0.0066,898.68,-327.03,1546.88
370,-3.8716,0.5063,-0.0070,867.43,844.79,-109.38
380,-3.8716,0.4766,-0.0073,820.56,-889.65,-0.06
390,-3.8715,0.4504,0.0077,1008.06,-936.58,1656.19
400,-3.8713,0.4364,0.0314,1664.31,985.23,187.50
410,-3.8713,0.4453,0.0532,-132.57,16.42,-1218.69
420,-3.8712,0.4750,0.0654,1008.06,-1186.65,1109.44
430,-3.8712,0.5125,0.0707,804.93,375.92,-703.00
440,-3.8711,0.5459,0.0762,1601.81,1047.85,1281.37
450,-3.8711,0.5693,0.0859,1883.06,1751.04,-812.38
460,-3.8710,0.5769,0.1023,883.06,-998.90,1531.37
470,-3.8708,0.5674,0.1243,1851.81,1094.85,406.43
480,-3.8708,0.5481,0.1523,633.06,-92.65,-187.32
490,-3.8707,0.5222,0.1874,-1835.69,-498.96,-249.76
500,-3.8706,0.4922,0.2180,-1148.19,-14.65,-609.07
510,-3.8705,0.4629,0.2284,-991.94,-92.83,1625.37
520,-3.8705,0.4354,0.2184,-741.94,1235.23,-1702.70
530,-3.8705,0.4121,0.2008,-257.57,-46.08,-1874.63
540,-3.8705,0.3987,0.1881,758.06,1703.92,1640.99
550,-3.8705,0.4017,0.1851,-960.69,78.86,1094.12
560,-3.8705,0.4241,0.1906,-570.07,-311.77,656.56
570,-3.8705,0.4592,0.2042,-1710.69,391.42,531.62
580,-3.8705,0.4877,0.2230,-1210.69,-1858.52,687.87
590,-3.8705,0.4913,0.2401,-1570.07,547.79,1000.43
600,-3.8705,0.4646,0.2478,-1101.32,-1264.71,1250.43
610,-3.8705,0.4159,0.2395,-523.19,-280.40,1406.68
620,-3.8705,0.3617,0.2185,1242.43,-1342.96,1531.68
630,-3.8705,0.3140,0.1964,-1695.07,-30.58,1609.74
640,-3.8705,0.2795,0.1852,195.56,1141.24,1890.99
650,-3.8705,0.2640,0.1915,-210.69,-296.39,-1312.19
660,-3.8705,0.2694,0.2084,1804.93,516.11,-77.76
670,-3.8704,0.2883,0.2229,-1507.57,-1327.64,1047.24
680,-3.8704,0.3048,0.2303,914.31,531.80,-1937.07
690,-3.8704,0.3053,0.2345,-976.32,1484.92,-1187.07
700,-3.8704,0.2850,0.2430,-913.82,-1983.83,-687.07
710,-3.8704,0.2450,0.2546,492.43,-890.08,-171.45
720,-3.8702,0.1908,0.2609,-632.57,594.18,0.49
730,-3.8704,0.1323,0.2556,429.93,1390.99,-499.51
740,-3.8704,0.0768,0.2374,945.56,718.99,-1312.01
750,-3.8704,0.0327,0.2152,1836.18,-1609.25,1781.68
760,-3.8704,0.0033,0.2007,195.56,-453.06,797.24
770,-3.8705,-0.0179,0.1929,429.93,1687.50,-609.01
780,-3.8705,-0.0262,0.1864,1711.18,703.06,1969.12
790,-3.8705,-0.0188,0.1844,648.68,-125.06,937.81
800,-3.8706,-0.0021,0.1898,1601.81,-375.06,-515.32
810,-3.8706,0.0228,0.1985,-257.57,312.44,1344.12
820,-3.8707,0.0513,0.2045,-1070.07,1406.25,-1187.13
830,-3.8707,0.0726,0.2045,-1429.44,-1828.06,281.62
840,-3.8708,0.0814,0.1936,1304.93,-1828.00,1328.49
850,-3.8710,0.0834,0.1691,-1570.07,781.37,1531.62
860,-3.8711,0.0851,0.1357,-1320.07,1640.75,1172.18
870,-3.8712,0.0824,0.1050,-1101.32,1375.12,1297.12
880,-3.8713,0.0725,0.0900,-1445.07,1437.62,-1249.82
890,-3.8713,0.0580,0.0929,1289.31,-484.25,1312.62
900,-3.8713,0.0380,0.1057,-570.07,-109.31,625.12
910,-3.8713,0.0198,0.1233,867.43,1531.31,359.56
920,-3.8713,0.0139,0.1443,-1460.69,-218.75,312.68
930,-3.8713,0.0188,0.1593,1789.31,-1531.25,234.62
940,-3.8715,0.0221,0.1571,-1585.69,390.62,-62.19
950,-3.8715,0.0129,0.1395,-1163.82,109.38,-484.07
960,-3.8715,-0.0071,0.1135,1664.31,1859.38,-1546.63
970,-3.8715,-0.0305,0.0847,-898.19,-1453.19,593.93
980,-3.8716,-0.0500,0.0620,101.81,-1140.69,-1374.88
990,-3.8716,-0.0616,0.0511,1601.81,-47.00,328.19
1000,-3.8717,-0.0682,0.0472,117.43,-1437.62,1468.81
1010,-3.8718,-0.0708,0.0399,-726.32,-1937.68,-1359.31
1020,-3.8718,-0.0670,0.0251,-1054.44,1124.82,171.94
1030,-3.8719,-0.0566,0.0052,-570.07,-765.81,1625.00
1040,-3.8721,-0.0435,-0.0156,758.06,687.38,-781.25
1050,-3.8721,-0.0315,-0.0292,-1554.44,-1984.50,1796.81
1060,-3.8721,-0.0177,-0.0320,-23.19,281.13,843.69
1070,-3.8722,0.0016,-0.0325,1742.43,-78.19,-547.00
1080,-3.8722,0.0211,-0.0383,211.18,-156.25,-1953.25
1090,-3.8722,0.0342,-0.0461,-1288.82,-906.25,906.13
1100,-3.8723,0.0406,-0.0524,383.06,-1906.19,-312.62
1110,-3.8723,0.0416,-0.0603,1211.18,1296.94,-1797.00
1120,-3.8723,0.0389,-0.0752,1336.18,281.31,359.25
1130,-3.8724,0.0387,-0.0958,992.43,-1624.94,-1703.31
1140,-3.8724,0.0453,-0.1138,961.18,-265.56,499.76
1150,-3.8726,0.0521,-0.1272,1804.93,1437.56,-1093.99
1160,-3.8726,0.0549,-0.1366,-1320.07,-281.19,1374.69
1170,-3.8726,0.0570,-0.1425,-960.69,-1484.31,124.69
1180,-3.8727,0.0597,-0.1519,-695.07,1765.69,-969.06
1190,-3.8727,0.0652,-0.1646,-351.32,562.56,-937.81
1200,-3.8726,0.0717,-0.1683,351.81,-1062.38,859.01
1210,-3.8726,0.0764,-0.1570,1179.93,-1546.75,-781.62
1220,-3.8724,0.0867,-0.1353,1789.31,-93.63,1171.51
1230,-3.8724,0.1064,-0.1123,-898.19,-1312.38,-1203.43
1240,-3.8723,0.1334,-0.0935,1633.06,1625.18,390.38
1250,-3.8723,0.1622,-0.0793,1086.18,31.49,-1859.56
1260,-3.8722,0.1838,-0.0671,773.68,1844.06,109.19
1270,-3.8722,0.1970,-0.0527,-460.69,-593.44,-1859.56
1280,-3.8721,0.2081,-0.0391,1226.81,1250.37,609.25
1290,-3.8721,0.2201,-0.0309,-1351.32,-999.63,-140.75
1300,-3.8719,0.2346,-0.0256,179.93,47.30,-875.06
1310,-3.8718,0.2506,-0.0194,-1960.69,719.18,1703.06
1320,-3.8718,0.2620,-0.0173,86.18,1516.11,-1015.69
1330,-3.8718,0.2703,-0.0288,1539.31,1781.74,-1968.81
1340,-3.8719,0.2878,-0.0571,-1398.19,312.99,-828.19
1350,-3.8719,0.3168,-0.0936,851.81,688.05,515.50
1360,-3.8721,0.3485,-0.1241,554.93,16.24,-687.68
1370,-3.8721,0.3809,-0.1401,617.43,110.05,-797.12
1380,-3.8719,0.4159,-0.1399,758.06,-1936.77,452.82
1390,-3.8719,0.4510,-0.1226,1242.43,-1905.46,-281.56
1400,-3.8717,0.4749,-0.0895,1742.43,313.35,609.13
1410,-3.8716,0.4823,-0.0503,789.31,547.79,1234.19
1420,-3.8716,0.4849,-0.0211,1742.43,1563.42,-47.00
1430,-3.8715,0.4955,-0.0159,-1929.44,1297.79,984.31
1440,-3.8715,0.5151,-0.0367,-570.07,1969.67,1343.69
1450,-3.8715,0.5349,-0.0687,1945.56,-702.15,1890.50
1460,-3.8715,0.5425,-0.0968,476.81,-795.84,-1406.43
1470,-3.8715,0.5385,-0.1185,1445.56,-389.59,-1687.74
1480,-3.8715,0.5325,-0.1328,929.93,829.16,1937.26
1490,-3.8715,0.5291,-0.1295,164.31,-998.96,-500.31
1500,-3.8713,0.5295,-0.0978,-273.19,-577.15,-765.93
1510,-3.8712,0.5386,-0.0416,-210.69,-514.65,-93.99
1520,-3.8710,0.5610,0.0150,945.56,-1327.09,203.00
1530,-3.8710,0.5985,0.0566,-179.44,1922.91,-140.62
1540,-3.8708,0.6415,0.0862,617.43,-748.84,-578.06
1550,-3.8707,0.6761,0.1082,-1882.57,-967.53,-953.00
1560,-3.8706,0.6986,0.1274,-1445.07,1845.03,-1796.69
1570,-3.8705,0.7100,0.1403,1429.93,313.84,265.87
1580,-3.8705,0.7128,0.1364,-1116.94,1954.47,1015.87
1590,-3.8705,0.7117,0.1217,-757.57,1454.47,828.37
1600,-3.8706,0.7001,0.1096,-898.19,-420.53,-281.07
1610,-3.8706,0.6630,0.0955,1617.43,-1967.41,-1109.19
1620,-3.8706,0.5931,0.0837,867.43,220.03,-781.07
1630,-3.8706,0.5044,0.0902,-70.07,-1280.15,-921.75
1640,-3.8706,0.4250,0.1047,570.56,-452.15,1843.87
1650,-3.8706,0.3666,0.1123,-1585.69,1407.04,640.81
1660,-3.8707,0.3281,0.1116,-1070.07,-1624.33,-327.94
1670,-3.8707,0.3152,0.0999,-1991.94,-1718.14,-1281.07
1680,-3.8707,0.3257,0.0854,351.81,781.86,1406.43
1690,-3.8708,0.3510,0.0829,1695.56,-1061.89,-921.75
1700,-3.8708,0.3899,0.0902,929.93,-1389.95,328.25
1710,-3.8710,0.4362,0.1012,1914.31,-452.39,-1531.13
1720,-3.8710,0.4717,0.1189,-163.82,953.92,-1812.32
1730,-3.8710,0.4789,0.1417,383.06,-780.33,-843.57
1740,-3.8708,0.4502,0.1626,1304.93,-1858.46,625.24
1750,-3.8708,0.3954,0.1827,1633.06,813.35,-1312.19
1760,-3.8707,0.3347,0.2008,-1382.57,-608.64,1922.18
1770,-3.8706,0.2817,0.2076,-1148.19,1703.74,1687.87
1780,-3.8705,0.2427,0.2074,70.56,-1421.33,906.62
1790,-3.8705,0.2184,0.2115,-929.44,-1452.70,-702.76
1800,-3.8704,0.2086,0.2224,-38.82,-921.51,-1937.13
1810,-3.8702,0.2086,0.2391,-1288.82,469.12,672.30
1820,-3.8702,0.2145,0.2562,-1288.82,-1390.26,1906.68
1830,-3.8702,0.2245,0.2666,-538.82,797.24,-1280.76
1840,-3.8702,0.2271,0.2726,742.43,-1874.57,-546.39
1850,-3.8702,0.2162,0.2710,1070.56,-1108.95,-390.14
1860,-3.8702,0.1973,0.2576,-320.07,-1312.13,-858.89
1870,-3.8702,0.1757,0.2432,1258.06,969.12,-1030.76
1880,-3.8702,0.1536,0.2441,-1507.57,-874.69,-358.95
1890,-3.8701,0.1322,0.2622,-335.69,-749.76,797.30
1900,-3.8701,0.1171,0.2836,929.93,1562.74,1750.49
1910,-3.8701,0.1118,0.2976,-1007.57,297.06,-1640.08
1920,-3.8701,0.1094,0.3079,-1679.44,-1906.07,-983.83
1930,-3.8701,0.0991,0.3239,-1991.94,-593.57,-280.70
1940,-3.8701,0.0750,0.3368,695.56,1453.31,-452.51
1950,-3.8701,0.0499,0.3293,1601.81,-890.50,-1249.39
1960,-3.8701,0.0408,0.3090,-1601.32,-1843.69,1609.99
1970,-3.8702,0.0464,0.2887,1226.81,-453.06,-936.95
1980,-3.8704,0.0548,0.2684,1945.56,953.19,-655.70
1990,-3.8705,0.0522,0.2472,-976.32,-1640.56,-749.51
2000,-3.8706,0.0342,0.2273,-1304.44,-359.31,-405.82
2010,-3.8706,0.0055,0.2155,383.06,1093.81,984.80
2020,-3.8707,-0.0220,0.2120,711.18,-421.88,-718.38
2030,-3.8707,-0.0367,0.2108,1195.56,-843.81,1797.24
2040,-3.8707,-0.0359,0.2152,-695.07,-1000.12,312.87
2050,-3.8708,-0.0211,0.2329,-585.69,-437.62,-546.51
2060,-3.8708,0.0023,0.2578,1304.93,1828.06,-374.57
2070,-3.8707,0.0217,0.2737,304.93,1000.00,156.74
2080,-3.8707,0.0282,0.2742,-1210.69,-968.75,344.24
2090,-3.8707,0.0231,0.2610,-382.57,-906.25,109.86
2100,-3.8708,0.0099,0.2369,-1038.82,1406.25,-780.76
2110,-3.8708,-0.0070,0.2083,1273.68,-1671.88,1141.05
2120,-3.8710,-0.0212,0.1823,-882.57,-1328.19,1984.74
2130,-3.8711,-0.0294,0.1615,1289.31,-656.31,-1452.82
2140,-3.8712,-0.0323,0.1404,242.43,687.44,-702.82
2150,-3.8712,-0.0315,0.1149,-132.57,1984.25,93.99
2160,-3.8713,-0.0256,0.0890,-23.19,-1281.37,890.81
2170,-3.8715,-0.0100,0.0681,726.81,-593.81,-1999.88
2180,-3.8716,0.0081,0.0566,-1273.19,734.31,-656.13
2190,-3.8716,0.0126,0.0526,1039.31,-750.00,609.44
2200,-3.8717,0.0020,0.0463,1617.43,-1265.62,1984.44
2210,-3.8718,-0.0120,0.0277,258.06,1921.88,-499.94
2220,-3.8718,-0.0188,-0.0002,-1523.19,-437.56,1281.25
2230,-3.8719,-0.0153,-0.0228,1601.81,-15.69,-31.31
2240,-3.8719,-0.0024,-0.0286,-1945.07,1093.69,-640.69
2250,-3.8719,0.0150,-0.0239,-304.44,359.31,-1687.56
2260,-3.8719,0.0325,-0.0223,1929.93,937.50,609.31
2270,-3.8721,0.0482,-0.0282,164.31,1140.69,-1000.06
2280,-3.8721,0.0620,-0.0371,-1820.07,390.69,1812.44
2290,-3.8721,0.0748,-0.0448,-54.44,-749.94,781.13
2300,-3.8722,0.0824,-0.0522,1586.18,-1734.25,-140.75
2310,-3.8722,0.0774,-0.0596,-1445.07,1312.62,-593.87
2320,-3.8722,0.0575,-0.0677,1914.31,375.12,-625.12
2330,-3.8722,0.0312,-0.0795,-632.57,-671.81,-625.18
2340,-3.8722,0.0106,-0.0935,8.06,1828.19,-812.68
2350,-3.8722,0.0013,-0.1069,1367.43,31.25,-1375.18
2360,-3.8722,0.0054,-0.1145,179.93,-1687.50,1671.63
2370,-3.8722,0.0216,-0.1104,695.56,1343.75,562.26
2380,-3.8723,0.0437,-0.1021,-1226.32,1875.00,-531.49
2390,-3.8723,0.0631,-0.1036,1601.81,-1062.44,-1765.87
2400,-3.8723,0.0748,-0.1162,86.18,-1265.50,968.51
2410,-3.8724,0.0793,-0.1322,1586.18,1125.12,-375.24
2420,-3.8724,0.0819,-0.1475,-1835.69,-921.75,1999.69
2430,-3.8724,0.0897,-0.1594,-1507.57,1125.12,390.32
2440,-3.8726,0.1097,-0.1654,-507.57,-406.13,-719.12
2450,-3.8726,0.1368,-0.1635,-1945.07,-1171.69,-500.37
2460,-3.8724,0.1566,-0.1548,1523.68,-921.63,1202.76
2470,-3.8724,0.1635,-0.1433,54.93,187.81,-625.31
2480,-3.8723,0.1639,-0.1353,929.93,1656.56,1343.44
2490,-3.8723,0.1661,-0.1353,992.43,-1312.19,-1265.93
2500,-3.8723,0.1738,-0.1447,1273.68,-1312.19,-765.93
2510,-3.8723,0.1870,-0.1617,-1741.94,1484.68,-1281.56
2520,-3.8723,0.2040,-0.1796,-54.44,-702.82,1499.63
2530,-3.8723,0.2241,-0.1842,-1882.57,1015.99,312.13
2540,-3.8724,0.2433,-0.1699,695.56,422.30,-203.49
2550,-3.8724,0.2560,-0.1508,-851.32,-1749.57,-297.24
2560,-3.8724,0.2631,-0.1461,773.68,703.61,-219.06
2570,-3.8723,0.2693,-0.1615,1679.93,1297.36,109.07
2580,-3.8723,0.2764,-0.1820,-1523.19,-671.39,1155.88
2590,-3.8723,0.2845,-0.1875,-616.94,703.61,-594.12
2600,-3.8722,0.2920,-0.1721,429.93,0.55,-1437.87
2610,-3.8721,0.2908,-0.1443,1383.06,1969.30,1968.38
2620,-3.8719,0.2748,-0.1138,1226.81,1531.80,1046.57
2630,-3.8719,0.2502,-0.0913,-820.07,1437.99,-609.62
2640,-3.8718,0.2361,-0.0865,39.31,312.99,421.69
2650,-3.8718,0.2493,-0.1001,-1773.19,922.30,749.82
2660,-3.8718,0.2839,-0.1217,-85.69,-812.07,1796.63
2670,-3.8718,0.3193,-0.1410,351.81,422.42,-640.87
2680,-3.8717,0.3453,-0.1536,883.06,1953.74,359.07
2690,-3.8717,0.3672,-0.1549,211.18,344.42,1609.07
2700,-3.8716,0.3878,-0.1409,-991.94,172.55,890.32
2710,-3.8715,0.3981,-0.1104,1648.68,1969.48,-1953.43
2720,-3.8713,0.3900,-0.0675,-1038.82,1875.73,-953.37
2730,-3.8712,0.3718,-0.0238,1929.93,-639.89,-1843.93
2740,-3.8712,0.3613,0.0050,-398.19,953.80,-640.69
2750,-3.8711,0.3711,0.0157,-1741.94,641.30,46.88
2760,-3.8711,0.3986,0.0197,-491.94,-1983.70,1765.62
2770,-3.8711,0.4310,0.0190,-976.32,-1483.64,-328.12
2780,-3.8710,0.4641,0.0043,-820.07,-1561.71,109.38
2790,-3.8711,0.4966,-0.0216,-585.69,547.73,-171.88
2800,-3.8710,0.5194,-0.0377,-429.44,1235.29,515.56
2810,-3.8710,0.5291,-0.0276,-1507.57,-827.15,-1703.25
2820,-3.8708,0.5392,0.0037,-273.19,469.73,296.81
2830,-3.8708,0.5632,0.0382,1023.68,469.79,-1343.75
2840,-3.8707,0.5966,0.0682,101.81,891.72,-1796.81
2850,-3.8706,0.6261,0.1034,367.43,735.53,-1484.25
2860,-3.8705,0.6429,0.1576,148.68,1235.60,-1406.07
2870,-3.8704,0.6479,0.2238,-1695.07,173.10,-1827.82
2880,-3.8702,0.6475,0.2737,-1054.44,641.85,1625.43
2890,-3.8701,0.6307,0.2878,-1116.94,-967.53,687.99
2900,-3.8701,0.5879,0.2645,742.43,844.97,-1640.08
2910,-3.8701,0.5298,0.2148,-741.94,1860.47,1953.61
2920,-3.8702,0.4678,0.1622,-179.44,-499.02,-249.63
2930,-3.8702,0.4104,0.1267,-116.94,766.48,703.43
2940,-3.8704,0.3645,0.1189,539.31,219.54,-1952.88
2950,-3.8704,0.3306,0.1353,-1335.69,-780.58,828.31
2960,-3.8704,0.3037,0.1552,-1679.44,1313.11,562.74
2970,-3.8704,0.2822,0.1620,-1116.94,-140.08,750.24
2980,-3.8704,0.2665,0.1610,133.06,734.92,1734.68
2990,-3.8704,0.2581,0.1641,-1882.57,609.86,-593.44
3000,-3.8702,0.2598,0.1720,1039.31,1000.49,1047.18
3010,-3.8702,0.2695,0.1848,1258.06,-1983.89,-1530.94
3020,-3.8701,0.2745,0.2029,-1491.94,-343.26,234.68
3030,-3.8701,0.2659,0.2168,-851.32,1969.24,1890.99
3040,-3.8701,0.2466,0.2185,-1960.69,-249.51,-1437.13
3050,-3.8701,0.2239,0.2129,-429.44,-30.82,-1390.26
3060,-3.8701,0.2058,0.2076,664.31,-749.57,-1280.88
3070,-3.8701,0.2000,0.2040,-1648.19,-1421.51,-1421.51
3080,-3.8701,0.2083,0.2025,1601.81,-1890.26,1703.49
3090,-3.8701,0.2253,0.2063,-1335.69,1922.24,547.24
3100,-3.8702,0.2423,0.2163,851.81,-1593.32,-218.38
3110,-3.8702,0.2515,0.2310,-976.32,-312.07,-327.76
3120,-3.8701,0.2496,0.2479,195.56,1562.99,16.05
3130,-3.8701,0.2415,0.2610,-38.82,-265.20,375.43
3140,-3.8701,0.2365,0.2626,-1085.69,1406.68,391.11
3150,-3.8702,0.2386,0.2520,-1726.32,1609.80,-374.51
3160,-3.8702,0.2427,0.2382,-1445.07,250.43,1812.99
3170,-3.8704,0.2407,0.2343,-929.44,-1515.20,-421.45
3180,-3.8704,0.2327,0.2419,-1179.44,1984.80,1766.05
3190,-3.8704,0.2223,0.2502,1789.31,-1030.82,422.30
3200,-3.8705,0.2084,0.2538,461.18,31.68,-718.26
3210,-3.8705,0.1913,0.2562,-1320.07,484.74,-1999.51
3220,-3.8705,0.1742,0.2615,492.43,797.24,656.74
3230,-3.8706,0.1594,0.2731,-1695.07,1469.06,-437.01
3240,-3.8706,0.1453,0.2859,414.31,-1046.57,-1499.51
3250,-3.8706,0.1320,0.2878,-1398.19,593.99,1031.80
3260,-3.8707,0.1178,0.2800,898.68,843.99,-546.33
3270,-3.8707,0.0961,0.2749,-913.82,-156.07,-1827.64
3280,-3.8707,0.0674,0.2787,304.93,-812.32,844.24
3290,-3.8708,0.0400,0.2827,633.06,-328.00,-890.14
3300,-3.8708,0.0181,0.2743,1133.06,187.56,1406.80
3310,-3.8710,0.0007,0.2539,-1679.44,-890.62,-62.01
3320,-3.8710,-0.0099,0.2334,101.81,500.00,-1749.51
3330,-3.8710,-0.0121,0.2233,-1257.57,1890.56,406.68
3340,-3.8711,-0.0074,0.2246,-1538.82,593.69,-1530.82
3350,-3.8711,0.0017,0.2313,-945.07,765.56,484.80
3360,-3.8712,0.0107,0.2357,226.81,1609.38,-1015.20
3370,-3.8712,0.0142,0.2360,1383.06,-1828.12,-1749.57
3380,-3.8712,0.0083,0.2329,1820.56,-1796.88,-1937.07
3390,-3.8712,-0.0042,0.2233,1070.56,1812.50,1781.68
3400,-3.8712,-0.0138,0.2051,-523.19,593.69,703.55
3410,-3.8713,-0.0142,0.1788,-1757.57,-1734.44,-1280.88
3420,-3.8713,-0.0092,0.1499,-1804.44,-1093.81,359.68
3430,-3.8715,-0.0060,0.1260,-1163.82,-796.94,-1796.63
3440,-3.8715,-0.0079,0.1117,-757.57,140.56,390.87
3450,-3.8716,-0.0129,0.1025,-1007.57,-1687.56,-1531.07
3460,-3.8716,-0.0157,0.0894,-1648.19,1140.56,187.68
3470,-3.8717,-0.0125,0.0693,1992.43,-546.94,1453.25
3480,-3.8718,-0.0032,0.0460,-1585.69,890.56,-1671.75
3490,-3.8719,0.0073,0.0231,-398.19,1906.19,-671.81
3500,-3.8719,0.0127,0.0031,945.56,-1046.88,921.88
3510,-3.8721,0.0127,-0.0123,1633.06,390.62,-781.25
3520,-3.8721,0.0129,-0.0208,1633.06,-1578.12,-1687.56
3530,-3.8721,0.0186,-0.0201,1664.31,1343.75,1781.19
3540,-3.8721,0.0271,-0.0146,-1616.94,1421.88,1140.56
3550,-3.8722,0.0352,-0.0168,-523.19,-1875.00,-0.06
3560,-3.8722,0.0457,-0.0322,508.06,1843.81,-1890.69
3570,-3.8722,0.0590,-0.0532,1851.81,-124.94,296.75
3580,-3.8723,0.0690,-0.0692,-445.07,1187.56,-922.00
3590,-3.8723,0.0709,-0.0724,836.18,-859.25,-1531.43
3600,-3.8723,0.0660,-0.0648,1086.18,-1265.50,-1531.43
3610,-3.8723,0.0571,-0.0576,461.18,-296.75,-1593.93
3620,-3.8723,0.0472,-0.0603,-679.44,625.06,1406.13
3630,-3.8724,0.0413,-0.0752,-1945.07,281.31,-437.62
3640,-3.8724,0.0439,-0.0944,1289.31,-1624.94,1796.69
3650,-3.8724,0.0569,-0.1069,1633.06,-78.06,421.63
3660,-3.8726,0.0791,-0.1079,-710.69,-1687.44,-359.62
3670,-3.8726,0.1049,-0.0997,-1866.94,-1812.38,-640.87
3680,-3.8726,0.1283,-0.0898,1429.93,-765.44,-718.99
3690,-3.8726,0.1504,-0.0839,429.93,500.24,-672.06
3700,-3.8726,0.1720,-0.0869,-741.94,1265.87,-906.43
3710,-3.8726,0.1909,-0.0994,-1976.32,875.31,-1359.56
3720,-3.8726,0.2067,-0.1124,445.56,-718.38,-1750.24
3730,-3.8726,0.2162,-0.1198,-1538.82,1609.74,1843.51
3740,-3.8726,0.2125,-0.1235,-320.07,672.24,1218.51
3750,-3.8726,0.2013,-0.1238,-788.82,187.87,577.88
3760,-3.8726,0.1924,-0.1160,1773.68,156.62,218.51
3770,-3.8727,0.1893,-0.0974,633.06,1156.62,-47.12
3780,-3.8727,0.1914,-0.0697,242.43,-468.38,-281.49
3790,-3.8727,0.2002,-0.0356,508.06,-921.51,-109.56
3800,-3.8726,0.2246,-0.0082,1633.06,-562.13,156.13
3810,-3.8727,0.2776,-0.0112,758.06,-1046.45,-78.19
3820,-3.8726,0.3586,-0.0422,-460.69,-1437.01,499.94
3830,-3.8726,0.4425,-0.0726,1914.31,-1405.58,-640.75
3840,-3.8724,0.5023,-0.0858,648.68,-1296.02,-484.56
3850,-3.8722,0.5350,-0.0802,304.93,1016.60,77.94
3860,-3.8721,0.5466,-0.0598,492.43,1735.41,1452.94
3870,-3.8719,0.5392,-0.0358,1976.81,344.79,-953.25
3880,-3.8718,0.5217,-0.0162,1023.68,-577.09,-437.62
3890,-3.8717,0.5056,-0.0001,-1210.69,1922.85,-1390.69
3900,-3.8716,0.4965,0.0121,726.81,-14.65,1093.69
3910,-3.8716,0.4974,0.0127,-445.07,1547.79,-546.88
3920,-3.8715,0.5072,-0.0013,-320.07,1625.92,1859.38
3930,-3.8713,0.5132,-0.0203,929.93,-170.90,906.19
3940,-3.8713,0.5043,-0.0341,1695.56,1407.23,-484.44
3950,-3.8712,0.4854,-0.0431,554.93,-358.40,765.50
3960,-3.8712,0.4674,-0.0507,-1866.94,-1514.71,1484.25
3970,-3.8712,0.4540,-0.0570,-163.82,1516.48,-1734.50
3980,-3.8712,0.4452,-0.0612,-1882.57,703.98,-1453.25
3990,-3.8712,0.4465,-0.0675,992.43,172.73,1343.63
4000,-3.8713,0.4647,-0.0748,1164.31,-639.77,-1015.81
4010,-3.8713,0.5011,-0.0751,-507.57,-1577.27,640.44
4020,-3.8715,0.5533,-0.0664,148.68,-1608.40,-1015.81
4030,-3.8715,0.6136,-0.0482,-1163.82,-498.96,-1172.06
4040,-3.8713,0.6670,-0.0205,-1445.07,1829.28,828.00
4050,-3.8712,0.6991,0.0170,1383.06,1376.28,921.81
4060,-3.8711,0.7076,0.0624,1492.43,-1826.78,1968.75
4070,-3.8710,0.7031,0.1068,-1413.82,-14.28,-1515.56
4080,-3.8708,0.6952,0.1450,-1991.94,1673.22,-1562.32
4090,-3.8707,0.6870,0.1823,992.43,-1436.16,-1531.01
4100,-3.8706,0.6729,0.2166,-54.44,-670.59,-1640.32
4110,-3.8705,0.6466,0.2371,-1866.94,-279.97,1172.24
4120,-3.8705,0.6097,0.2379,-1226.32,-1655.03,-1671.45
4130,-3.8705,0.5680,0.2230,-1945.07,-1545.72,1453.55
4140,-3.8706,0.5308,0.2013,711.18,547.97,-1093.32
4150,-3.8707,0.5078,0.1819,-54.44,1766.60,-484.01
4160,-3.8707,0.4999,0.1797,1008.06,-717.77,281.56
4170,-3.8708,0.5038,0.1976,-7.57,-999.08,-1999.69
4180,-3.8708,0.5184,0.2246,492.43,1297.85,1234.74
4190,-3.8708,0.5372,0.2581,-1632.57,750.98,-1812.07
4200,-3.8708,0.5472,0.2935,773.68,1032.29,-46.39
4210,-3.8707,0.5420,0.3190,-1945.07,1563.54,1922.42
4220,-3.8707,0.5199,0.3286,1383.06,829.16,-327.51
4230,-3.8706,0.4845,0.3263,-1445.07,-1936.52,484.99
4240,-3.8706,0.4470,0.3214,-1976.32,1766.54,547.49
4250,-3.8706,0.4146,0.3186,1226.81,1141.48,859.99
4260,-3.8706,0.3894,0.3177,1070.56,782.04,1719.36
4270,-3.8706,0.3773,0.3193,1851.81,672.61,-1530.64
4280,-3.8706,0.3816,0.3247,304.93,875.73,-1108.76
4290,-3.8706,0.3960,0.3372,851.81,1563.23,-1046.26
4300,-3.8706,0.4120,0.3622,-1304.44,-843.02,-999.39
4310,-3.8705,0.4218,0.3983,742.43,-1639.83,110.05
4320,-3.8705,0.4194,0.4291,1992.43,-1014.83,-1264.89
4330,-3.8704,0.4031,0.4379,1695.56,-1077.33,1688.29
4340,-3.8704,0.3771,0.4242,-398.19,47.61,-249.15
4350,-3.8702,0.3475,0.3981,273.68,-1702.39,391.42
4360,-3.8704,0.3145,0.3721,492.43,-1046.20,-77.39
4370,-3.8704,0.2809,0.3578,258.06,-374.39,-874.33
4380,-3.8704,0.2531,0.3624,-38.82,1797.36,-1311.83
4390,-3.8704,0.2336,0.3834,398.68,-1608.89,-1124.33
4400,-3.8704,0.2180,0.4122,1914.31,1078.55,-733.64
4410,-3.8702,0.2021,0.4438,-85.69,765.99,47.67
4420,-3.8702,0.1826,0.4761,1883.06,812.87,1875.85
4430,-3.8702,0.1542,0.4996,-616.94,937.81,-186.58
4440,-3.8701,0.1193,0.5054,-257.57,-46.63,1032.17
4450,-3.8701,0.0864,0.4945,-726.32,687.68,1500.98
4460,-3.8701,0.0608,0.4756,-929.44,-703.00,1016.54
4470,-3.8702,0.0426,0.4567,-210.69,875.06,-155.33
4480,-3.8702,0.0282,0.4423,1461.18,-1546.81,-1686.65
4490,-3.8702,0.0149,0.4299,-382.57,609.38,219.60
4500,-3.8704,0.0017,0.4213,1914.31,-968.75,1438.29
4510,-3.8705,-0.0139,0.4219,226.81,1921.88,-1733.58
4520,-3.8705,-0.0254,0.4260,-1773.19,-1984.44,0.79
4530,-3.8706,-0.0294,0.4241,758.06,-1453.19,-1046.08
4540,-3.8706,-0.0356,0.4158,242.43,-1703.19,1407.04
4550,-3.8707,-0.0422,0.4042,-554.44,1234.25,-1139.83
4560,-3.8707,-0.0381,0.3875,-1398.19,-250.12,203.86
4570,-3.8708,-0.0226,0.3636,-866.94,1609.25,1563.23
4580,-3.8710,-0.0048,0.3347,1117.43,-1437.56,-1686.83
4590,-3.8711,0.0103,0.3042,-601.32,-1140.69,-1827.51
4600,-3.8712,0.0238,0.2786,1320.56,-1062.50,1906.80
4610,-3.8713,0.0409,0.2603,-945.07,-343.75,-1358.89
4620,-3.8713,0.0632,0.2468,1242.43,1312.56,359.86
4630,-3.8715,0.0863,0.2375,101.81,-406.13,-1749.57
4640,-3.8715,0.1027,0.2308,-945.07,-1593.63,219.18
4650,-3.8716,0.1042,0.2244,1148.68,1547.06,-1062.07
4660,-3.8716,0.0868,0.2158,1351.81,718.93,-1843.32
4670,-3.8716,0.0569,0.2070,-882.57,-374.88,1500.37
4680,-3.8716,0.0276,0.1980,-710.69,-1499.94,984.74
4690,-3.8716,0.0109,0.1818,-460.69,1343.75,15.99
4700,-3.8717,0.0118,0.1536,1398.68,-734.38,-1827.82
4710,-3.8718,0.0226,0.1199,1523.68,-343.75,-234.13
4720,-3.8718,0.0303,0.0936,-1101.32,-656.25,1375.18
4730,-3.8719,0.0303,0.0774,-116.94,-15.62,-609.25
4740,-3.8719,0.0258,0.0643,-116.94,1906.25,1734.50
4750,-3.8719,0.0181,0.0493,-695.07,234.38,359.50
4760,-3.8721,0.0106,0.0360,-1679.44,-1687.50,-718.69
4770,-3.8721,0.0100,0.0309,1367.43,609.38,-1359.31
4780,-3.8721,0.0170,0.0417,1289.31,-46.88,-1140.62
4790,-3.8721,0.0280,0.0681,-1820.07,1343.75,-15.56
4800,-3.8719,0.0443,0.0948,-413.82,718.75,1547.00
4810,-3.8719,0.0647,0.1061,1679.93,140.69,-984.19
4820,-3.8719,0.0781,0.0957,289.31,1578.25,-640.44
4830,-3.8719,0.0751,0.0641,-1991.94,250.12,1734.56
4840,-3.8721,0.0579,0.0182,1617.43,203.25,-1343.63
4850,-3.8722,0.0358,-0.0262,-585.69,-1671.81,-859.38
4860,-3.8722,0.0153,-0.0565,586.18,640.69,124.94
4870,-3.8723,-0.0001,-0.0692,1961.18,765.62,-1953.25
4880,-3.8723,-0.0074,-0.0646,-7.57,-843.81,1077.94
4890,-3.8723,-0.0061,-0.0460,-945.07,-250.06,1031.07
4900,-3.8723,0.0028,-0.0247,-773.19,-1875.06,1296.75
4910,-3.8723,0.0145,-0.0165,367.43,843.75,1093.69
4920,-3.8723,0.0220,-0.0267,1867.43,1890.62,124.94
4930,-3.8724,0.0225,-0.0476,-1179.44,578.12,-1390.69
4940,-3.8724,0.0194,-0.0703,-1116.94,1906.25,984.25
4950,-3.8726,0.0194,-0.0895,-1507.57,-1000.00,-640.81
4960,-3.8726,0.0277,-0.1050,-1507.57,546.88,1546.69
4970,-3.8726,0.0428,-0.1177,-445.07,-1437.50,249.76
4980,-3.8726,0.0649,-0.1187,1492.43,937.56,218.51
4990,-3.8726,0.0934,-0.1013,320.56,812.62,1499.76
5000,-3.8726,0.1228,-0.0752,-38.82,-968.63,-328.37
5010,-3.8724,0.1500,-0.0566,-273.19,-1624.82,1921.69
5020,-3.8724,0.1813,-0.0551,-788.82,750.24,-265.75
5030,-3.8723,0.2212,-0.0660,-788.82,953.43,1265.50
5040,-3.8723,0.2618,-0.0785,320.56,-452.70,-1625.18
5050,-3.8723,0.2925,-0.0859,1523.68,1953.61,-468.93
5060,-3.8722,0.3086,-0.0857,1445.56,1000.55,1593.57
5070,-3.8721,0.3132,-0.0747,-491.94,1031.80,531.07
5080,-3.8721,0.3101,-0.0585,101.81,-1561.89,-359.56
5090,-3.8719,0.2998,-0.0474,-304.44,516.17,-1984.50
5100,-3.8719,0.2910,-0.0465,-1616.94,1938.05,-1015.75
5110,-3.8719,0.2926,-0.0522,1258.06,-1952.58,-1515.75
5120,-3.8719,0.3064,-0.0594,1461.18,1313.05,1078.00
5130,-3.8719,0.3280,-0.0658,-773.19,391.17,156.13
5140,-3.8719,0.3466,-0.0688,1992.43,-421.26,1343.57
5150,-3.8718,0.3534,-0.0643,367.43,-811.83,296.69
5160,-3.8718,0.3528,-0.0471,1242.43,-233.70,-281.43
5170,-3.8717,0.3503,-0.0145,1164.31,1969.42,-500.12
5180,-3.8716,0.3470,0.0221,851.81,-1858.70,-796.94
5190,-3.8715,0.3462,0.0417,429.93,-1171.20,1765.62
5200,-3.8715,0.3481,0.0393,320.56,1344.42,-1296.81
5210,-3.8715,0.3478,0.0276,570.56,1031.92,-1828.06
5220,-3.8715,0.3466,0.0151,523.68,-468.08,562.50
5230,-3.8716,0.3514,-0.0001,367.43,1938.17,-1750.00
5240,-3.8716,0.3646,-0.0164,992.43,-14.95,328.06
5250,-3.8717,0.3782,-0.0231,-1320.07,1906.92,-78.19
5260,-3.8716,0.3779,-0.0115,414.31,1047.61,859.31
5270,-3.8716,0.3661,0.0135,383.06,-1468.02,-1687.56
5280,-3.8715,0.3562,0.0391,-1132.57,1735.05,15.62
5290,-3.8715,0.3522,0.0531,1601.81,1000.67,1359.44
5300,-3.8715,0.3484,0.0519,1086.18,-1202.45,1640.69
5310,-3.8715,0.3413,0.0419,601.81,-1358.70,750.06
5320,-3.8716,0.3298,0.0247,-304.44,1359.99,-999.94
5330,-3.8716,0.3173,-0.0016,-1773.19,-843.14,937.50
5340,-3.8717,0.3090,-0.0199,617.43,-202.51,-1984.44
5350,-3.8718,0.3149,-0.0142,-445.07,1453.67,-187.56
5360,-3.8717,0.3488,0.0015,320.56,-1811.89,1124.94
5370,-3.8716,0.4083,0.0217,648.68,188.17,-1609.38
5380,-3.8713,0.4744,0.0638,273.68,-1217.96,-1421.88
5390,-3.8711,0.5282,0.1313,726.81,172.79,-328.00
5400,-3.8707,0.5642,0.2092,-382.57,813.48,281.49
5410,-3.8706,0.5850,0.2754,226.81,-1217.65,-327.76
5420,-3.8704,0.5929,0.3135,-1116.94,-748.90,1031.74
5430,-3.8704,0.5920,0.3208,-101.32,126.10,-186.89
5440,-3.8702,0.5911,0.3097,-210.69,1063.60,406.86
5450,-3.8704,0.5989,0.2946,-335.69,-358.28,-561.95
5460,-3.8704,0.6129,0.2776,664.31,1704.28,1281.80
5470,-3.8705,0.6227,0.2585,-1538.82,-467.59,-1765.14
5480,-3.8706,0.6212,0.2458,-288.82,1094.91,-1218.26
5490,-3.8707,0.6099,0.2450,-476.32,-530.09,-140.20
5500,-3.8707,0.5984,0.2498,-1929.44,-639.47,1766.05
5510,-3.8707,0.5941,0.2551,601.81,-30.09,94.18
5520,-3.8708,0.5927,0.2634,54.93,657.41,-1327.64
5530,-3.8708,0.5892,0.2754,-132.57,1719.85,1453.61
5540,-3.8708,0.5845,0.2864,-570.07,-748.90,406.74
5550,-3.8710,0.5768,0.2964,-1179.44,657.35,-530.70
5560,-3.8710,0.5613,0.3083,1836.18,1938.60,-1436.95
5570,-3.8710,0.5328,0.3158,-148.19,-530.21,1469.30
5580,-3.8710,0.4933,0.3158,211.18,422.91,266.24
5590,-3.8711,0.4509,0.3164,-851.32,422.79,-530.64
5600,-3.8711,0.4146,0.3247,1726.81,500.85,-671.26
5610,-3.8710,0.3901,0.3374,1070.56,1563.29,63.11
5620,-3.8710,0.3785,0.3440,1945.56,-811.77,1313.11
5630,-3.8710,0.3766,0.3444,461.18,31.98,-1561.83
5640,-3.8710,0.3787,0.3452,211.18,78.86,-749.33
5650,-3.8710,0.3801,0.3494,476.81,188.23,-202.45
5660,-3.8708,0.3795,0.3599,664.31,719.48,750.67
5670,-3.8708,0.3768,0.3793,586.18,-1936.77,-1546.20
5680,-3.8707,0.3735,0.4010,242.43,547.61,610.11
5690,-3.8707,0.3687,0.4202,-179.44,-671.20,-1280.52
5700,-3.8706,0.3590,0.4352,-804.44,1781.92,469.54
5710,-3.8706,0.3416,0.4398,1961.18,-296.20,1750.79
5720,-3.8706,0.3146,0.4312,-273.19,297.49,-1717.90
5730,-3.8706,0.2805,0.4163,273.68,-811.89,-1842.96
5740,-3.8706,0.2484,0.4053,-85.69,1281.74,1953.92
5750,-3.8706,0.2324,0.4054,-195.07,-124.57,-1874.27
5760,-3.8706,0.2361,0.4174,1758.06,-108.95,-1468.02
5770,-3.8706,0.2501,0.4371,-1773.19,1422.30,-842.96
5780,-3.8705,0.2678,0.4641,23.68,-46.39,110.17
5790,-3.8705,0.2858,0.4928,-1710.69,-593.26,1297.73
5800,-3.8705,0.2932,0.5073,586.18,-921.33,-1186.58
5810,-3.8704,0.2756,0.4988,1539.31,938.05,329.10
5820,-3.8704,0.2305,0.4755,-710.69,-155.76,1329.04
5830,-3.8704,0.1703,0.4529,1508.06,859.80,1907.17
5840,-3.8704,0.1104,0.4427,1804.93,1969.06,-1264.77
5850,-3.8702,0.0636,0.4491,-1866.94,672.06,235.23
5860,-3.8702,0.0363,0.4642,148.68,1484.50,-1608.52
5870,-3.8701,0.0270,0.4796,648.68,-578.06,969.60
5880,-3.8701,0.0315,0.4897,-538.82,1390.62,-1092.83
5890,-3.8701,0.0441,0.4844,39.31,-1312.44,-936.58
5900,-3.8701,0.0542,0.4626,1648.68,-1999.94,1641.54
5910,-3.8702,0.0548,0.4376,-1054.44,-781.19,-530.40
5920,-3.8702,0.0487,0.4177,-976.32,15.69,969.60
5930,-3.8704,0.0430,0.4036,-1757.57,1468.81,-1967.96
5940,-3.8705,0.0424,0.3960,1508.06,-343.69,-1264.89
5950,-3.8706,0.0488,0.3962,1429.93,-1312.44,-718.02
5960,-3.8707,0.0648,0.3993,-1741.94,-1281.19,-30.52
5970,-3.8707,0.0905,0.3954,304.93,-890.50,813.23
5980,-3.8708,0.1176,0.3812,-413.82,-1390.50,1578.86
5990,-3.8710,0.1353,0.3591,-945.07,797.06,-1811.77
6000,-3.8711,0.1409,0.3391,1320.56,1968.99,-1374.33
6010,-3.8712,0.1405,0.3356,-1960.69,-593.51,-327.51
6020,-3.8712,0.1389,0.3457,1992.43,-1046.63,1656.86
6030,-3.8713,0.1351,0.3544,1789.31,250.24,-14.95
6040,-3.8713,0.1268,0.3517,1304.93,1359.62,-1546.20
6050,-3.8713,0.1136,0.3336,242.43,1015.87,531.92
6060,-3.8715,0.0973,0.3022,-1445.07,-1296.69,1828.74
6070,-3.8716,0.0792,0.2659,461.18,-1312.32,-1030.70
6080,-3.8716,0.0596,0.2327,-1851.32,-1968.63,547.36
6090,-3.8717,0.0419,0.2028,-366.94,1781.31,-1655.82
6100,-3.8717,0.0262,0.1721,1367.43,1953.19,140.99
6110,-3.8718,0.0065,0.1411,-632.57,-1968.75,1890.93
6120,-3.8719,-0.0157,0.1160,836.18,-1937.50,-515.38
6130,-3.8719,-0.0272,0.0983,1992.43,-1140.69,593.93
6140,-3.8721,-0.0171,0.0825,523.68,593.69,937.68
6150,-3.8722,0.0125,0.0632,1820.56,-1421.94,797.00
6160,-3.8723,0.0503,0.0421,1601.81,93.75,890.75
6170,-3.8724,0.0842,0.0308,-1554.44,1390.69,1953.19
6180,-3.8724,0.1036,0.0372,-1210.69,-62.38,609.38
6190,-3.8726,0.1056,0.0492,1273.68,765.81,-93.69
6200,-3.8726,0.1003,0.0459,1523.68,-1702.94,-1406.19
6210,-3.8726,0.0968,0.0221,851.81,1875.18,1015.69
6220,-3.8727,0.0923,-0.0132,398.68,-1171.69,-406.25
6230,-3.8727,0.0851,-0.0492,-179.44,-1687.38,-1843.81
6240,-3.8727,0.0793,-0.0769,-1101.32,1703.25,781.13
6250,-3.8728,0.0765,-0.0852,-1835.69,-1843.63,-265.81
6260,-3.8728,0.0729,-0.0721,1804.93,1093.87,-984.56
6270,-3.8728,0.0685,-0.0470,1336.18,-1234.25,-1343.93
6280,-3.8728,0.0676,-0.0248,773.68,1984.50,-1703.25
6290,-3.8728,0.0754,-0.0181,664.31,828.25,1484.31
6300,-3.8728,0.0957,-0.0280,1664.31,1687.62,62.44
6310,-3.8729,0.1240,-0.0511,258.06,422.06,1890.56
6320,-3.8730,0.1499,-0.0836,-116.94,1453.31,-703.25
6330,-3.8730,0.1702,-0.1180,-804.44,1297.12,687.32
6340,-3.8732,0.1899,-0.1494,1789.31,890.93,-1500.24
6350,-3.8732,0.2086,-0.1661,320.56,875.37,1999.69
6360,-3.8730,0.2234,-0.1469,-1288.82,-1265.26,687.13
6370,-3.8729,0.2318,-0.0969,601.81,1203.55,1890.32
6380,-3.8728,0.2346,-0.0492,1679.93,-405.82,-828.37
6390,-3.8727,0.2352,-0.0265,-1960.69,1703.55,-578.25
6400,-3.8726,0.2313,-0.0326,-1882.57,609.80,-1578.19
6410,-3.8724,0.2208,-0.0573,1617.43,-171.45,359.25
6420,-3.8724,0.2145,-0.0814,273.68,672.30,1437.38
6430,-3.8724,0.2271,-0.0900,-538.82,1578.49,-1312.68
6440,-3.8723,0.2589,-0.0729,1070.56,484.80,1484.19
6450,-3.8722,0.2979,-0.0315,1148.68,-1327.64,390.44
6460,-3.8722,0.3344,0.0007,-1866.94,-30.70,-1375.12
6470,-3.8721,0.3551,-0.0006,-1195.07,94.36,1562.50
6480,-3.8719,0.3512,-0.0127,1461.18,-77.45,1343.69
6490,-3.8718,0.3411,-0.0138,961.18,-1624.33,859.31
6500,-3.8718,0.3488,-0.0046,-335.69,-1765.01,-312.56
6510,-3.8717,0.3778,0.0104,648.68,-593.08,-1765.69
6520,-3.8716,0.4175,0.0264,367.43,1328.86,250.00
6530,-3.8716,0.4603,0.0399,1445.56,-624.21,937.50
6540,-3.8716,0.5011,0.0525,-1070.07,1110.23,437.56
6550,-3.8716,0.5258,0.0623,148.68,-1280.27,15.69
6560,-3.8716,0.5262,0.0601,-695.07,-30.27,281.31
6570,-3.8716,0.5081,0.0421,-632.57,-311.52,1359.44
6580,-3.8716,0.4706,0.0162,1039.31,1391.60,-906.19
6590,-3.8715,0.4183,-0.0072,242.43,-1920.96,484.38
6600,-3.8715,0.3766,-0.0225,1554.93,-921.08,953.06
6610,-3.8715,0.3685,-0.0226,211.18,1125.73,1781.19
6620,-3.8713,0.3936,-0.0015,-820.07,1110.05,156.19
6630,-3.8713,0.4366,0.0394,-1616.94,-186.77,-343.81
6640,-3.8712,0.4795,0.0872,-101.32,1047.67,-374.94
6650,-3.8711,0.5122,0.1241,1383.06,-842.83,-734.25
6660,-3.8710,0.5343,0.1439,1570.56,-108.40,-1437.32
6670,-3.8708,0.5442,0.1494,398.68,-1577.09,-1843.51
6680,-3.8707,0.5450,0.1467,1664.31,-873.96,1859.62
6690,-3.8706,0.5398,0.1456,1773.68,-1217.71,1312.74
6700,-3.8705,0.5284,0.1528,1101.81,-1358.34,172.12
6710,-3.8705,0.5159,0.1653,-351.32,-436.52,1640.87
6720,-3.8705,0.5059,0.1771,-1960.69,1157.23,1234.68
6730,-3.8706,0.4993,0.1893,758.06,-1327.15,-468.44
6740,-3.8706,0.4968,0.2007,-85.69,235.29,1203.49
6750,-3.8707,0.4978,0.2069,-398.19,1688.42,-1499.63
6760,-3.8708,0.4980,0.2064,-273.19,-1514.71,-327.76
6770,-3.8708,0.4948,0.1969,-241.94,-1577.21,672.24
6780,-3.8710,0.4900,0.1830,-663.82,1204.04,1922.24
6790,-3.8710,0.4816,0.1780,-1273.19,-577.21,187.81
6800,-3.8711,0.4677,0.1943,1648.68,-1217.83,-609.07
6810,-3.8711,0.4523,0.2333,-132.57,875.85,-562.13
6820,-3.8710,0.4352,0.2820,1898.68,1860.23,47.30
6830,-3.8710,0.4172,0.3268,-288.82,94.54,1000.55
6840,-3.8710,0.4014,0.3604,1414.31,1828.92,1891.24
6850,-3.8710,0.3876,0.3757,-616.94,-1874.27,1813.17
6860,-3.8711,0.3806,0.3639,1617.43,94.48,-421.14
6870,-3.8712,0.3850,0.3300,726.81,-1421.14,-1014.95
6880,-3.8713,0.4011,0.2933,1289.31,-1764.89,1766.24
6890,-3.8715,0.4325,0.2708,-648.19,1547.61,1750.55
6900,-3.8715,0.4720,0.2721,-632.57,-1342.96,406.74
6910,-3.8715,0.4968,0.2964,429.93,-1170.96,-1687.01
6920,-3.8713,0.4952,0.3318,-398.19,1938.42,-1374.45
6930,-3.8712,0.4802,0.3711,-601.32,-1530.33,-15.01
6940,-3.8710,0.4731,0.4185,1476.81,-499.08,1766.30
6950,-3.8708,0.4866,0.4711,570.56,1563.42,-264.83
6960,-3.8706,0.5223,0.5101,-1710.69,297.79,969.67
6970,-3.8705,0.5723,0.5222,-1132.57,1297.85,782.23
6980,-3.8705,0.6218,0.5121,1258.06,-1155.15,-1202.15
6990,-3.8705,0.6577,0.4949,-398.19,1548.03,-1264.65
7000,-3.8705,0.6738,0.4800,195.56,-654.97,-1655.33
7010,-3.8705,0.6635,0.4691,-1741.94,1438.78,-1608.46
7020,-3.8705,0.6285,0.4650,929.93,48.16,-1920.96
7030,-3.8705,0.5836,0.4698,461.18,-483.15,1813.35
7040,-3.8705,0.5386,0.4882,-1288.82,141.72,-1811.58
7050,-3.8705,0.4962,0.5195,945.56,-1514.59,-436.58
7060,-3.8704,0.4557,0.5519,-476.32,-1499.08,-1905.27
7070,-3.8702,0.4136,0.5681,-1663.82,-1358.52,1126.04
7080,-3.8702,0.3682,0.5582,945.56,719.54,-952.03
7090,-3.8702,0.3197,0.5270,-866.94,-546.20,-811.46
7100,-3.8702,0.2673,0.4884,929.93,-546.26,-1936.52
7110,-3.8702,0.2163,0.4567,-1773.19,-1483.89,344.67
7120,-3.8704,0.1760,0.4395,-304.44,-1546.51,-1546.02
7130,-3.8704,0.1458,0.4342,-1460.69,250.31,703.98
7140,-3.8705,0.1163,0.4357,-1335.69,-421.63,-233.58
7150,-3.8705,0.0842,0.4436,-1101.32,-234.19,-77.33
7160,-3.8704,0.0559,0.4619,-1210.69,781.37,1063.35
7170,-3.8704,0.0376,0.4891,-835.69,-874.94,-842.90
7180,-3.8702,0.0302,0.5148,820.56,-1390.56,1500.92
7190,-3.8702,0.0311,0.5293,-132.57,1890.62,-842.77
7200,-3.8702,0.0359,0.5334,-7.57,-250.00,-202.15
7210,-3.8702,0.0353,0.5299,601.81,281.31,-764.59
7220,-3.8702,0.0244,0.5178,523.68,-171.81,1297.85
7230,-3.8704,0.0079,0.4973,-866.94,-1718.75,-1670.90
7240,-3.8705,-0.0071,0.4800,1023.68,-343.75,-920.96
7250,-3.8705,-0.0155,0.4747,-898.19,1453.06,141.54
7260,-3.8706,-0.0127,0.4767,-1976.32,781.19,1625.92
7270,-3.8707,0.0026,0.4832,-1616.94,1031.19,-624.08
7280,-3.8707,0.0229,0.4937,336.18,1843.75,1610.29
7290,-3.8707,0.0414,0.4961,-1054.44,-812.50,110.29
7300,-3.8708,0.0543,0.4850,1304.93,-499.94,-1327.21
7310,-3.8708,0.0558,0.4666,-1038.82,-1921.81,1922.79
7320,-3.8708,0.0452,0.4390,-851.32,-281.19,1063.35
7330,-3.8710,0.0309,0.3998,1789.31,187.56,-889.77
7340,-3.8710,0.0189,0.3605,-38.82,-828.12,485.11
7350,-3.8711,0.0062,0.3351,-1570.07,-1859.38,1969.42
7360,-3.8712,-0.0106,0.3196,804.93,-1109.38,-452.51
7370,-3.8712,-0.0288,0.2971,-1351.32,921.81,547.49
7380,-3.8713,-0.0431,0.2596,320.56,-1953.19,656.80
7390,-3.8715,-0.0514,0.2172,-1507.57,1249.88,359.86
7400,-3.8716,-0.0587,0.1887,1429.93,-187.62,687.87
7410,-3.8717,-0.0695,0.1814,492.43,171.75,1844.12
7420,-3.8718,-0.0792,0.1860,-882.57,-765.81,-202.82
7430,-3.8718,-0.0850,0.1938,1867.43,-172.06,-1624.69
7440,-3.8718,-0.0885,0.2085,1133.06,827.94,1406.62
7450,-3.8718,-0.0881,0.2354,679.93,-1297.06,844.12
7460,-3.8718,-0.0748,0.2722,726.81,-1859.56,453.55
7470,-3.8718,-0.0498,0.3215,-1570.07,-1140.81,625.49
7480,-3.8718,-0.0300,0.3809,1633.06,1171.75,1672.49
7490,-3.8718,-0.0194,0.4243,164.31,765.56,-905.52
7500,-3.8717,-0.0085,0.4297,1523.68,-1671.94,250.79
7510,-3.8717,0.0017,0.4044,-1085.69,-984.44,375.79
7520,-3.8718,0.0118,0.3690,226.81,-234.38,-1483.64
7530,-3.8719,0.0292,0.3319,1523.68,-765.62,-1733.70
7540,-3.8721,0.0507,0.2922,-257.57,-1515.62,563.11
7550,-3.8723,0.0684,0.2561,-1507.57,1406.31,-858.83
7560,-3.8724,0.0812,0.2332,758.06,781.37,-905.76
7570,-3.8724,0.0903,0.2257,-1601.32,1843.87,516.05
7580,-3.8726,0.0941,0.2256,-429.44,890.75,-827.70
7590,-3.8726,0.0911,0.2201,54.93,875.18,-1468.32
7600,-3.8726,0.0881,0.2004,-335.69,172.00,1547.30
7610,-3.8727,0.0938,0.1633,-710.69,1656.37,-609.01
7620,-3.8727,0.1071,0.1118,8.06,906.43,47.18
7630,-3.8729,0.1218,0.0554,1711.18,-1687.32,-124.82
7640,-3.8730,0.1322,0.0035,-398.19,-906.07,-218.69
7650,-3.8730,0.1312,-0.0409,929.93,453.37,1000.00
7660,-3.8732,0.1116,-0.0743,804.93,-1234.13,-0.12
7670,-3.8730,0.0806,-0.0906,-1710.69,-1515.44,515.44
7680,-3.8730,0.0591,-0.0903,-1679.44,406.37,1984.19
7690,-3.8730,0.0532,-0.0883,-429.44,437.56,-1031.43
7700,-3.8730,0.0552,-0.0973,-1179.44,703.19,-1172.06
7710,-3.8730,0.0619,-0.1150,-929.44,-453.06,-1781.49
7720,-3.8730,0.0657,-0.1320,-70.07,1281.31,1484.13
7730,-3.8730,0.0547,-0.1447,414.31,-890.50,687.19
7740,-3.8730,0.0291,-0.1572,-991.94,1484.44,171.57
7750,-3.8730,0.0039,-0.1682,-273.19,-125.00,937.13
7760,-3.8729,-0.0076,-0.1611,508.06,-1531.25,187.13
7770,-3.8728,-0.0065,-0.1163,-960.69,-609.44,1999.63
7780,-3.8726,0.0063,-0.0365,-820.07,1124.94,437.26
7790,-3.8724,0.0520,0.0366,820.56,-671.88,1124.88
7800,-3.8723,0.1522,0.0638,-1335.69,687.56,46.94
7810,-3.8723,0.2871,0.0619,-507.57,172.12,1578.25
7820,-3.8723,0.4077,0.0605,758.06,-77.58,1062.56
7830,-3.8723,0.4796,0.0580,195.56,-249.21,15.69
7840,-3.8723,0.4948,0.0543,1398.68,-577.21,656.31
7850,-3.8723,0.4653,0.0591,-663.82,-1045.96,-1562.44
7860,-3.8723,0.4213,0.0734,-429.44,-436.65,-421.81
7870,-3.8722,0.3986,0.0912,1929.93,1391.42,390.75
7880,-3.8722,0.4115,0.1064,-976.32,-327.39,-1874.88
7890,-3.8721,0.4449,0.1183,679.93,1625.79,500.18
7900,-3.8721,0.4823,0.1250,961.18,-858.52,-1890.44
7910,-3.8721,0.5201,0.1185,1742.43,0.92,-1577.88
7920,-3.8721,0.5498,0.0994,-1413.82,-827.15,-1202.94
7930,-3.8721,0.5614,0.0811,-1616.94,719.79,-484.19
7940,-3.8719,0.5640,0.0797,-132.57,-1623.96,234.50
7950,-3.8719,0.5750,0.1001,195.56,-1795.78,-1843.63
7960,-3.8718,0.5989,0.1285,1601.81,813.60,-1812.32
7970,-3.8717,0.6200,0.1433,664.31,454.28,-718.51
7980,-3.8716,0.6150,0.1364,-632.57,-1655.09,-249.76
7990,-3.8715,0.5741,0.1176,-1273.19,1454.28,-531.01
8000,-3.8713,0.5072,0.0989,1492.43,-952.03,-484.19
8010,-3.8711,0.4320,0.0836,929.93,657.23,93.93
8020,-3.8711,0.3671,0.0729,-695.07,-1296.08,-156.13
8030,-3.8710,0.3258,0.0720,-1007.57,1328.80,-1765.50
8040,-3.8710,0.3193,0.0815,1711.18,1219.36,-687.38
8050,-3.8710,0.3578,0.0936,883.06,-1561.89,-718.63
8060,-3.8710,0.4304,0.1027,1804.93,-14.95,-1562.38
8070,-3.8710,0.5013,0.1128,-898.19,1141.42,1265.81
8080,-3.8710,0.5432,0.1254,179.93,-1561.52,812.68
8090,-3.8710,0.5560,0.1385,1539.31,47.91,1328.37
8100,-3.8710,0.5509,0.1504,-820.07,1735.41,-1499.76
8110,-3.8708,0.5345,0.1594,-1476.32,-748.96,203.37
8120,-3.8708,0.5027,0.1665,429.93,407.29,1859.68
8130,-3.8708,0.4551,0.1725,351.81,1313.48,-1296.57
8140,-3.8708,0.4042,0.1737,-1741.94,-1921.02,1969.06
8150,-3.8710,0.3605,0.1654,-257.57,-1764.89,-1124.69
8160,-3.8711,0.3303,0.1520,-1851.32,1172.55,-1827.82
8170,-3.8712,0.3180,0.1432,-1710.69,-546.26,1250.24
8180,-3.8713,0.3258,0.1439,711.18,-1671.26,562.74
8190,-3.8715,0.3557,0.1514,1711.18,-1577.51,609.62
8200,-3.8716,0.4048,0.1617,1539.31,-624.33,1968.99
8210,-3.8716,0.4662,0.1797,-179.44,703.86,703.43
8220,-3.8716,0.5287,0.2169,-320.07,-999.15,1219.06
8230,-3.8716,0.5721,0.2731,-320.07,-233.40,-359.01
8240,-3.8713,0.5907,0.3309,1242.43,-1045.78,281.74
8250,-3.8712,0.5977,0.3798,-382.57,-1639.53,-1780.64
8260,-3.8711,0.6051,0.4066,508.06,610.53,-1702.39
8270,-3.8711,0.6246,0.3910,1461.18,48.03,-530.46
8280,-3.8711,0.6727,0.3376,-38.82,-1951.97,-561.77
8290,-3.8711,0.7456,0.2883,-1882.57,-779.97,-1280.64
8300,-3.8711,0.8129,0.2759,-554.44,907.65,-1390.08
8310,-3.8710,0.8523,0.2947,54.93,-685.91,625.49
8320,-3.8708,0.8610,0.3385,1101.81,1720.40,953.67
8330,-3.8707,0.8342,0.4059,-1788.82,-670.23,-811.89
8340,-3.8705,0.7644,0.4775,-1210.69,-45.29,-1014.89
8350,-3.8702,0.6543,0.5322,1851.81,1126.46,-249.08
8360,-3.8700,0.5293,0.5569,-241.94,126.22,-530.21
8370,-3.8698,0.4275,0.5516,-241.94,-717.77,1516.66
8380,-3.8696,0.3652,0.5388,-1273.19,-1389.83,-1483.34
8390,-3.8695,0.3433,0.5348,-1241.94,969.42,1922.91
8400,-3.8695,0.3562,0.5359,-54.44,453.74,-1202.09
8410,-3.8695,0.3888,0.5437,1601.81,594.42,-1998.96
8420,-3.8695,0.4155,0.5629,1773.68,1594.48,532.29
8430,-3.8696,0.4147,0.5834,1195.56,47.67,-1514.53
8440,-3.8696,0.3848,0.5951,1086.18,-1327.33,251.10
8450,-3.8698,0.3317,0.5956,1258.06,172.61,-1920.72
8460,-3.8698,0.2684,0.5947,-1538.82,234.99,298.03
8470,-3.8699,0.2173,0.6036,-1632.57,125.49,-561.34
8480,-3.8699,0.1862,0.6169,-179.44,1265.99,-936.34
8490,-3.8699,0.1648,0.6229,-163.82,-1030.94,-1545.72
8500,-3.8699,0.1506,0.6151,1101.81,-265.32,-1858.22
8510,-3.8699,0.1515,0.5950,-710.69,-1265.38,969.91
8520,-3.8700,0.1630,0.5681,-601.32,156.49,860.53
8530,-3.8702,0.1736,0.5399,867.43,719.06,-686.40
8540,-3.8704,0.1741,0.5187,-1773.19,1109.68,-1077.09
8550,-3.8704,0.1559,0.5112,-1710.69,-1609.07,79.10
8560,-3.8705,0.1261,0.5122,-38.82,1437.74,1766.60
8570,-3.8705,0.1038,0.5167,148.68,1562.74,422.85
8580,-3.8705,0.0884,0.5278,1289.31,-1859.19,579.10
8590,-3.8705,0.0709,0.5419,-679.44,-437.38,1188.48
8600,-3.8705,0.0533,0.5461,1086.18,1359.50,1876.04
8610,-3.8705,0.0281,0.5319,-1163.82,1906.31,1251.04
8620,-3.8706,-0.0054,0.4993,-398.19,78.12,-514.59
8630,-3.8706,-0.0364,0.4608,-679.44,-78.19,1094.67
8640,-3.8707,-0.0613,0.4279,-648.19,-1000.12,1094.60
8650,-3.8708,-0.0675,0.3987,164.31,-1218.87,563.29
8660,-3.8710,-0.0507,0.3726,-632.57,-953.31,156.98
8670,-3.8712,-0.0247,0.3522,1523.68,-297.00,-61.83
8680,-3.8712,0.0018,0.3373,851.81,1093.69,0.67
8690,-3.8713,0.0262,0.3279,242.43,-828.12,1031.86
8700,-3.8715,0.0442,0.3232,-632.57,1968.75,-515.01
8710,-3.8715,0.0532,0.3204,1664.31,1375.06,-1749.39
8720,-3.8715,0.0527,0.3184,-1179.44,1015.69,266.24
8730,-3.8716,0.0437,0.3112,-1241.94,750.06,-1999.39
8740,-3.8716,0.0247,0.2927,1601.81,-171.81,219.30
8750,-3.8717,-0.0066,0.2668,-835.69,1468.75,-921.33
8760,-3.8717,-0.0442,0.2383,-835.69,-1828.19,1406.74
8770,-3.8718,-0.0768,0.2103,-1648.19,-1484.50,-1562.07
8780,-3.8719,-0.0992,0.1868,-1820.07,-1062.68,-1421.51
8790,-3.8721,-0.1139,0.1638,-695.07,-78.37,-1187.19
8800,-3.8721,-0.1230,0.1345,1429.93,984.13,578.43
8810,-3.8722,-0.1298,0.1067,258.06,1234.13,-1812.26
8820,-3.8723,-0.1331,0.0927,-601.32,1671.57,-1781.07
8830,-3.8724,-0.1268,0.0895,-1023.19,-125.31,1890.75
8840,-3.8726,-0.1038,0.0905,-226.32,-531.56,-1234.25
8850,-3.8726,-0.0646,0.1044,-1273.19,-406.49,1890.75
8860,-3.8726,-0.0187,0.1373,-257.57,1374.82,-1265.44
8870,-3.8724,0.0276,0.1732,1617.43,1593.69,703.37
8880,-3.8724,0.0647,0.1960,-460.69,-1828.12,-1077.82
8890,-3.8723,0.0874,0.2001,289.31,1093.87,390.99
8900,-3.8723,0.0988,0.1838,-804.44,1609.50,1219.12
8910,-3.8723,0.1088,0.1547,648.68,-468.57,1297.18
8920,-3.8723,0.1260,0.1189,1929.93,-202.94,109.62
8930,-3.8724,0.1514,0.0768,133.06,-781.01,1922.06
8940,-3.8726,0.1786,0.0355,-616.94,1828.37,-218.63
8950,-3.8726,0.2046,0.0043,-1132.57,547.18,1625.06
8960,-3.8727,0.2338,-0.0206,-1804.44,547.24,-796.88
8970,-3.8727,0.2625,-0.0460,1929.93,1359.80,1156.19
8980,-3.8728,0.2825,-0.0723,1601.81,-1890.14,-312.62
8990,-3.8728,0.2960,-0.0957,164.31,-1249.45,-797.06
9000,-3.8727,0.3062,-0.1124,1898.68,-249.45,46.63
9010,-3.8727,0.3104,-0.1210,-804.44,1609.92,1827.88
9020,-3.8727,0.3020,-0.1263,-257.57,516.17,-281.49
9030,-3.8726,0.2769,-0.1313,-1335.69,-171.33,921.57
9040,-3.8726,0.2413,-0.1355,-554.44,-812.01,1859.07
9050,-3.8726,0.2133,-0.1398,-1101.32,-1343.32,-1125.31
9060,-3.8726,0.2147,-0.1456,-695.07,-1890.26,-547.18
9070,-3.8726,0.2533,-0.1541,-507.57,1359.74,-594.06
9080,-3.8726,0.3081,-0.1599,429.93,281.74,-640.93
9090,-3.8726,0.3486,-0.1562,-554.44,-468.20,-203.49
9100,-3.8724,0.3654,-0.1456,633.06,0.67,530.94
9110,-3.8724,0.3685,-0.1300,-1226.32,1360.05,1562.19
9120,-3.8724,0.3685,-0.1024,-820.07,-639.95,-547.18
9130,-3.8723,0.3687,-0.0620,-820.07,-1108.70,1859.13
9140,-3.8723,0.3711,-0.0249,-804.44,63.17,-250.12
9150,-3.8722,0.3772,-0.0088,-491.94,813.17,703.06
9160,-3.8722,0.3806,-0.0175,289.31,-1124.27,343.69
9170,-3.8723,0.3717,-0.0435,726.81,1766.36,-1875.06
9180,-3.8724,0.3539,-0.0778,-413.82,-1561.83,1968.63
9190,-3.8726,0.3425,-0.1108,1304.93,-1952.45,952.94
9200,-3.8727,0.3511,-0.1339,-148.19,1813.11,1140.38
9210,-3.8727,0.3746,-0.1350,945.56,-1139.95,1015.32
9220,-3.8726,0.3950,-0.1014,-38.82,-1280.58,859.07
9230,-3.8724,0.4052,-0.0382,-1429.44,-983.64,-828.37
9240,-3.8722,0.4091,0.0253,-132.57,-889.89,-1672.00
9250,-3.8719,0.4141,0.0603,367.43,-764.83,796.88
9260,-3.8718,0.4275,0.0594,1008.06,-280.46,1515.69
9270,-3.8717,0.4518,0.0331,-1273.19,-389.83,156.31
9280,-3.8717,0.4817,-0.0063,1836.18,235.23,703.19
9290,-3.8718,0.5100,-0.0519,1664.31,-811.58,-812.56
9300,-3.8718,0.5350,-0.0905,1289.31,1360.35,1109.25
9310,-3.8718,0.5544,-0.1036,492.43,422.91,734.19
9320,-3.8718,0.5649,-0.0831,-1023.19,-1264.59,-672.12
9330,-3.8716,0.5707,-0.0396,320.56,1360.47,296.69
9340,-3.8715,0.5812,0.0165,1054.93,-1061.40,-1140.75
9350,-3.8712,0.5936,0.0846,-1601.32,-1889.53,-1562.50
9360,-3.8710,0.5959,0.1526,-7.57,-1170.78,1156.37
9370,-3.8708,0.5951,0.1996,289.31,-467.59,-1859.13
9380,-3.8708,0.5990,0.2194,179.93,1548.03,-452.76
9390,-3.8708,0.6256,0.2058,679.93,79.28,656.68
9400,-3.8710,0.6775,0.1587,86.18,-1655.03,1109.74
9410,-3.8711,0.7080,0.1038,-1273.19,313.78,-968.44
9420,-3.8711,0.6940,0.0699,-1366.94,1282.59,-1499.82
9430,-3.8711,0.6556,0.0739,836.18,954.47,-109.25
9440,-3.8710,0.6132,0.1121,-70.07,1454.35,-421.75
9450,-3.8707,0.5779,0.1610,-1507.57,-1655.09,343.93
9460,-3.8706,0.5575,0.1959,1976.81,610.47,344.06
9470,-3.8706,0.5466,0.2097,-632.57,1079.16,-859.01
9480,-3.8705,0.5375,0.1968,1976.81,-1155.21,312.87
9490,-3.8706,0.5365,0.1550,804.93,1188.54,-452.76
9500,-3.8706,0.5508,0.1016,679.93,-155.21,1984.62
9510,-3.8706,0.5747,0.0663,-1491.94,1001.04,1297.06
9520,-3.8706,0.5922,0.0734,1570.56,485.47,-1593.63
9530,-3.8705,0.5984,0.1267,-195.07,1391.72,672.00
9540,-3.8705,0.6047,0.2148,601.81,219.91,-484.13
9550,-3.8704,0.6167,0.3082,1414.31,-498.84,-921.51
9560,-3.8702,0.6293,0.3752,-1054.44,-545.72,-1327.58
9570,-3.8701,0.6312,0.4004,554.93,32.47,1094.48
9580,-3.8701,0.6111,0.3781,804.93,-748.78,1469.48
9590,-3.8702,0.5676,0.3213,-1773.19,391.78,-624.27
9600,-3.8704,0.5183,0.2545,664.31,1126.10,-1140.01
9610,-3.8705,0.4849,0.1991,-1648.19,579.10,1266.11
9620,-3.8706,0.4690,0.1726,-1929.44,1485.29,406.62
9630,-3.8707,0.4569,0.1729,39.31,-1905.33,500.31
9640,-3.8708,0.4413,0.2001,-1507.57,-1874.15,828.43
9650,-3.8710,0.4194,0.2782,492.43,1610.23,-1499.63
9660,-3.8710,0.3867,0.4095,1695.56,-389.83,-265.14
9670,-3.8707,0.3545,0.5497,1508.06,422.61,1485.17
9680,-3.8705,0.3380,0.6466,1383.06,-1639.95,-1952.09
9690,-3.8702,0.3330,0.6780,-726.32,-1233.76,-1233.15
9700,-3.8700,0.3226,0.6527,-1366.94,-1218.14,970.03
9710,-3.8700,0.2949,0.5974,1304.93,-452.51,-905.03
9720,-3.8700,0.2532,0.5422,1758.06,469.30,1985.53
9730,-3.8701,0.2065,0.5089,414.31,1406.74,-530.21
9740,-3.8701,0.1597,0.5038,-1554.44,1140.99,1313.48
9750,-3.8701,0.1194,0.5231,445.56,484.68,469.73
9760,-3.8701,0.0996,0.5649,-710.69,-1046.69,1360.35
9770,-3.8701,0.1034,0.6141,758.06,312.68,-139.53
9780,-3.8700,0.1221,0.6439,1242.43,-1390.44,-826.97
9790,-3.8699,0.1414,0.6458,-366.94,-1577.94,1641.85
9800,-3.8699,0.1508,0.6210,-1898.19,-1343.51,1469.97
9810,-3.8700,0.1545,0.5725,-695.07,-515.38,-1061.34
9820,-3.8701,0.1476,0.5095,-210.69,1281.49,-1780.15
9830,-3.8702,0.1295,0.4546,-1101.32,1218.99,47.85
9840,-3.8705,0.1163,0.4160,586.18,-1812.26,1610.23
9850,-3.8706,0.1125,0.3843,-1101.32,1250.18,375.79
9860,-3.8707,0.1158,0.3707,-1585.69,1187.68,1719.48
9870,-3.8707,0.1289,0.3846,-1163.82,-546.69,906.92
9880,-3.8707,0.1531,0.4141,508.06,1234.62,1860.11
9890,-3.8707,0.1841,0.4385,-398.19,1000.24,-108.58
9900,-3.8706,0.2186,0.4417,-429.44,125.31,1203.98
9910,-3.8706,0.2520,0.4216,-7.57,531.62,547.73
9920,-3.8707,0.2723,0.3923,258.06,1969.24,-1967.96
9930,-3.8708,0.2715,0.3700,-1132.57,-1780.76,-1186.77
9940,-3.8710,0.2557,0.3580,-1241.94,-640.14,-499.33
9950,-3.8710,0.2322,0.3518,742.43,1828.61,500.67
9960,-3.8711,0.1995,0.3486,1726.81,1031.68,-1905.58
9970,-3.8711,0.1584,0.3483,1539.31,625.37,203.80
9980,-3.8712,0.1146,0.3475,289.31,578.43,-1483.70
9990,-3.8712,0.0728,0.3435,-1320.07,484.56,1344.42
10000,-3.8712,0.0330,0.3420,1320.56,-31.13,875.61
10010,-3.8712,-0.0057,0.3484,226.81,-218.69,547.49
10020,-3.8713,-0.0349,0.3502,-726.32,609.31,-233.70
10030,-3.8713,-0.0471,0.3320,-460.69,843.63,-1780.58
10040,-3.8715,-0.0476,0.2987,1976.81,-1484.50,-311.89
10050,-3.8716,-0.0492,0.2666,1914.31,-1750.12,-15.08
10060,-3.8717,-0.0594,0.2404,1711.18,-1859.50,-437.01
10070,-3.8718,-0.0743,0.2197,398.68,-1218.87,-15.20
10080,-3.8718,-0.0928,0.2087,-1507.57,140.44,922.30
10090,-3.8719,-0.1111,0.2020,133.06,-1265.81,1422.24
10100,-3.8721,-0.1199,0.1873,1789.31,1874.76,1812.87
10110,-3.8722,-0.1191,0.1611,664.31,-15.87,-1671.57
10120,-3.8723,-0.1099,0.1284,758.06,640.38,-749.69
10130,-3.8724,-0.0907,0.0946,1945.56,452.88,-124.76
10140,-3.8724,-0.0618,0.0638,398.68,124.82,187.68
10150,-3.8726,-0.0300,0.0378,101.81,187.38,1203.25
10160,-3.8727,-0.0092,0.0150,164.31,859.31,-968.69
10170,-3.8727,-0.0060,-0.0066,-1163.82,1937.44,1343.75
10180,-3.8727,-0.0143,-0.0276,-757.57,-828.19,62.44
10190,-3.8728,-0.0269,-0.0470,-1820.07,484.31,-421.94
10200,-3.8728,-0.0394,-0.0619,570.56,1999.94,-390.75
10210,-3.8728,-0.0460,-0.0732,-1038.82,93.63,-937.62
10220,-3.8728,-0.0428,-0.0859,-1882.57,-1359.50,1906.07
10230,-3.8728,-0.0315,-0.1027,-1476.32,1015.50,1109.19
10240,-3.8728,-0.0165,-0.1178,-23.19,-1125.12,656.01
10250,-3.8728,-0.0046,-0.1245,1898.68,937.44,31.01
10260,-3.8729,0.0010,-0.1221,-585.69,78.06,-562.74
10270,-3.8729,0.0043,-0.1166,133.06,375.00,-922.12
10280,-3.8729,0.0096,-0.1155,554.93,1078.12,-1312.74
10290,-3.8729,0.0199,-0.1189,1242.43,1218.75,-1750.24
10300,-3.8729,0.0331,-0.1207,-1445.07,781.25,1906.01
10310,-3.8729,0.0441,-0.1171,242.43,546.94,1156.01
10320,-3.8730,0.0565,-0.1124,1648.68,1015.69,-765.87
10330,-3.8730,0.0764,-0.1129,-757.57,1609.44,843.51
10340,-3.8732,0.0977,-0.1174,1789.31,1547.00,-734.62
10350,-3.8732,0.1132,-0.1217,508.06,968.93,-1843.99
10360,-3.8732,0.1338,-0.1243,-1507.57,422.06,1577.88
10370,-3.8732,0.1693,-0.1237,1133.06,93.99,1624.76
10380,-3.8732,0.2159,-0.1213,1679.93,172.18,1890.38
10390,-3.8732,0.2705,-0.1211,-351.32,469.12,-1625.24
10400,-3.8732,0.3191,-0.1193,-1366.94,500.49,-125.24
10410,-3.8730,0.3417,-0.1101,851.81,734.99,-781.49
10420,-3.8729,0.3408,-0.0974,-257.57,1906.86,-765.87
10430,-3.8728,0.3351,-0.0830,-366.94,-468.14,-1203.37
10440,-3.8727,0.3296,-0.0664,-1101.32,1375.61,1781.07
10450,-3.8726,0.3185,-0.0607,-1804.44,-499.39,656.07
10460,-3.8726,0.2991,-0.0732,773.68,234.99,-390.75
10470,-3.8724,0.2725,-0.0938,-1710.69,-1374.45,1843.57
10480,-3.8724,0.2434,-0.1080,-1116.94,0.49,-1000.18
10490,-3.8724,0.2249,-0.1046,-835.69,-1827.70,-109.62
10500,-3.8723,0.2375,-0.0795,789.31,-1390.20,968.51
10510,-3.8723,0.2932,-0.0402,-1585.69,1828.55,-1359.56
10520,-3.8722,0.3708,-0.0023,1539.31,-1140.08,1703.00
10530,-3.8721,0.4352,0.0212,-523.19,-296.20,1906.19
10540,-3.8719,0.4742,0.0253,-288.82,-1280.46,-968.75
10550,-3.8717,0.4851,0.0192,711.18,-764.71,343.75
10560,-3.8716,0.4661,0.0127,-1898.19,-1545.96,265.62
10570,-3.8716,0.4321,0.0016,-335.69,1625.85,-1640.62
10580,-3.8716,0.4034,-0.0173,-679.44,203.92,-343.75
10590,-3.8715,0.3906,-0.0311,-351.32,1781.98,1109.31
10600,-3.8715,0.3990,-0.0258,-1991.94,16.36,-1000.06
10610,-3.8713,0.4274,0.0007,-913.82,703.86,1765.56
10620,-3.8712,0.4709,0.0425,-1288.82,94.54,1250.00
10630,-3.8711,0.5229,0.0881,289.31,1438.42,828.19
10640,-3.8710,0.5748,0.1195,-1054.44,-717.77,250.12
10650,-3.8710,0.6232,0.1304,1586.18,-702.03,-859.19
10660,-3.8708,0.6653,0.1324,-226.32,688.66,1281.49
10670,-3.8708,0.6993,0.1295,1164.31,954.41,-1327.88
10680,-3.8708,0.7283,0.1180,1523.68,579.47,-1124.76
10690,-3.8708,0.7578,0.1096,1226.81,-889.22,1953.31
10700,-3.8708,0.7891,0.1182,1008.06,-1967.29,437.68
10710,-3.8710,0.8141,0.1410,1008.06,-873.47,-656.07
10720,-3.8710,0.8285,0.1676,211.18,-1951.54,-421.63
10730,-3.8708,0.8331,0.1886,-1945.07,1454.71,844.06
10740,-3.8708,0.8247,0.1992,-1351.32,142.21,-1405.88
10750,-3.8707,0.7928,0.2031,1570.56,1501.59,359.74
10760,-3.8707,0.7358,0.2074,1492.43,-1998.47,1703.49
10770,-3.8707,0.6643,0.2150,-1804.44,-1451.72,-1671.51
10780,-3.8707,0.5944,0.2216,1039.31,-483.09,-1968.38
10790,-3.8707,0.5444,0.2180,86.18,360.53,797.30
10800,-3.8708,0.5199,0.2035,1695.56,-92.71,-343.38
10810,-3.8708,0.5138,0.1887,-1445.07,-1952.15,-1155.88
10820,-3.8708,0.5320,0.1858,1773.68,157.23,1312.87
10830,-3.8708,0.5759,0.2096,101.81,-217.71,297.18
10840,-3.8708,0.6248,0.2640,1726.81,-1170.78,1547.24
10850,-3.8707,0.6652,0.3313,-23.19,1798.03,891.11
10860,-3.8706,0.6881,0.4025,1148.68,-1592.47,-1999.39
10870,-3.8705,0.6793,0.4716,86.18,-483.03,-296.14
10880,-3.8702,0.6406,0.5188,-1038.82,360.66,500.92
10890,-3.8702,0.5891,0.5336,-1991.94,-1592.53,-45.90
10900,-3.8701,0.5391,0.5281,-585.69,297.97,-1967.71
10910,-3.8701,0.4971,0.5181,1008.06,-405.21,-670.90
10920,-3.8701,0.4648,0.5051,-366.94,-1686.58,-92.77
10930,-3.8701,0.4407,0.4906,-491.94,657.10,-358.40
10940,-3.8701,0.4176,0.4877,414.31,-1202.27,-249.08
10950,-3.8700,0.3939,0.5094,1461.18,-1577.33,1344.67
10960,-3.8699,0.3772,0.5557,-1570.07,1203.86,219.73
10970,-3.8699,0.3680,0.6123,289.31,-874.27,-264.59
10980,-3.8698,0.3567,0.6619,-882.57,-1624.33,-764.47
10990,-3.8696,0.3370,0.6848,1664.31,719.42,-1951.84
11000,-3.8696,0.3077,0.6710,-851.32,-343.14,-483.09
11010,-3.8696,0.2667,0.6337,-601.32,1891.17,-529.97
11020,-3.8696,0.2177,0.5946,-1851.32,1109.86,-1967.53
11030,-3.8698,0.1698,0.5669,-132.57,109.74,-530.09
11040,-3.8698,0.1285,0.5549,1742.43,562.81,1001.10
11050,-3.8699,0.0857,0.5554,461.18,-968.51,-795.84
11060,-3.8699,0.0424,0.5583,-1023.19,-906.13,-1873.96
11070,-3.8699,0.0154,0.5566,1429.93,-531.19,1079.16
11080,-3.8700,0.0103,0.5494,1976.81,-750.00,-123.96
11090,-3.8700,0.0206,0.5426,1320.56,-1671.88,-733.34
11100,-3.8700,0.0359,0.5411,-1351.32,1453.12,-1483.34
11110,-3.8700,0.0428,0.5388,601.81,1265.69,329.16
11120,-3.8701,0.0349,0.5233,1492.43,968.81,266.66
11130,-3.8704,0.0160,0.4918,476.81,-1015.56,-1108.40
11140,-3.8705,-0.0043,0.4546,-1945.07,-1046.88,1032.17
11150,-3.8707,-0.0172,0.4196,-538.82,-1796.94,-780.40
11160,-3.8708,-0.0203,0.3915,1804.93,1718.69,-1874.21
11170,-3.8710,-0.0168,0.3770,1414.31,-1875.06,1875.73
11180,-3.8711,-0.0134,0.3832,1851.81,265.56,-1561.77
11190,-3.8711,-0.0066,0.4088,-1710.69,1062.44,219.48
11200,-3.8712,0.0171,0.4332,-835.69,343.69,-1171.08
11210,-3.8712,0.0580,0.4398,-1804.44,-546.88,-1796.08
11220,-3.8712,0.0944,0.4341,-570.07,296.94,-1358.52
11230,-3.8712,0.1038,0.4231,86.18,-437.32,-342.96
11240,-3.8711,0.0861,0.4075,1289.31,-1843.57,344.54
11250,-3.8711,0.0571,0.3890,-976.32,156.37,485.17
11260,-3.8711,0.0271,0.3749,-679.44,1796.94,188.23
11270,-3.8712,0.0020,0.3658,-523.19,-15.62,-968.08
11280,-3.8712,-0.0116,0.3540,258.06,-1171.88,1063.17
11290,-3.8713,-0.0109,0.3354,-1476.32,1328.06,-1530.58
11300,-3.8715,0.0006,0.3151,-1382.57,-1046.94,-343.14
11310,-3.8715,0.0153,0.2948,86.18,328.12,1078.74
11320,-3.8716,0.0269,0.2689,1961.18,1734.38,1906.80
11330,-3.8717,0.0334,0.2384,-554.44,-1578.12,-1999.51
11340,-3.8718,0.0349,0.2098,289.31,-1484.31,-1874.57
11350,-3.8719,0.0320,0.1907,476.81,-1140.56,-1187.13
11360,-3.8719,0.0271,0.1871,101.81,406.31,453.49
11370,-3.8721,0.0238,0.1927,-523.19,-46.88,-577.82
11380,-3.8721,0.0234,0.1929,-945.07,671.88,-874.63
11390,-3.8721,0.0270,0.1819,-991.94,687.50,-984.01
11400,-3.8721,0.0339,0.1661,-538.82,-718.75,-749.69
11410,-3.8721,0.0376,0.1564,351.81,1265.69,-374.69
11420,-3.8721,0.0381,0.1544,820.56,15.69,-452.82
11430,-3.8721,0.0370,0.1509,883.06,-234.31,-1109.13
11440,-3.8721,0.0255,0.1433,742.43,-687.44,-1718.51
11450,-3.8721,-0.0021,0.1372,-726.32,-1656.25,-1906.01
11460,-3.8721,-0.0372,0.1313,-257.57,1578.06,1922.12
11470,-3.8721,-0.0653,0.1208,-757.57,828.00,1484.62
11480,-3.8721,-0.0748,0.1071,-351.32,-515.81,625.18
11490,-3.8722,-0.0590,0.0990,-1570.07,1718.57,-796.69
11500,-3.8722,-0.0145,0.1063,461.18,687.38,-1359.19
11510,-3.8722,0.0458,0.1256,-1851.32,1624.94,-46.69
11520,-3.8721,0.0964,0.1355,1867.43,78.19,1859.62
11530,-3.8721,0.1147,0.1174,351.81,1343.93,-796.63
11540,-3.8721,0.0925,0.0724,-1304.44,-968.57,-140.44
11550,-3.8721,0.0421,0.0145,-148.19,1265.75,-921.75
11560,-3.8721,-0.0094,-0.0430,1398.68,1859.44,640.62
11570,-3.8722,-0.0414,-0.0945,-1195.07,-1484.44,1624.88
11580,-3.8723,-0.0601,-0.1331,-1288.82,-78.25,-1390.87
11590,-3.8724,-0.0773,-0.1514,320.56,-1015.75,-125.31
11600,-3.8724,-0.0933,-0.1522,-1882.57,640.44,1874.69
11610,-3.8724,-0.0997,-0.1421,70.56,531.07,952.82
11620,-3.8724,-0.0845,-0.1232,-757.57,1827.88,1030.94
11630,-3.8724,-0.0414,-0.1008,1195.56,249.82,1671.63
11640,-3.8724,0.0219,-0.0864,-1288.82,-890.75,-1812.74
11650,-3.8724,0.0837,-0.0935,-1195.07,937.50,1374.82
11660,-3.8726,0.1243,-0.1266,-1273.19,31.37,-1031.43
11670,-3.8727,0.1366,-0.1752,-85.69,-202.94,-78.43
11680,-3.8727,0.1260,-0.2223,1492.43,1578.37,905.88
11690,-3.8728,0.1036,-0.2579,133.06,-452.88,-1781.74
11700,-3.8728,0.0813,-0.2743,1273.68,-1015.44,1046.33
11710,-3.8728,0.0677,-0.2611,-1585.69,890.75,-1719.30
11720,-3.8727,0.0710,-0.2219,679.93,-1421.75,1358.83
11730,-3.8726,0.0946,-0.1757,1101.81,-406.13,1233.89
11740,-3.8724,0.1351,-0.1331,117.43,1515.81,1046.51
11750,-3.8723,0.1855,-0.0951,1304.93,-1031.01,484.07
11760,-3.8723,0.2290,-0.0653,-241.94,-171.57,-422.12
11770,-3.8722,0.2495,-0.0509,1320.56,-358.95,1265.44
11780,-3.8722,0.2531,-0.0618,-54.44,1484.80,781.13
11790,-3.8723,0.2566,-0.0984,398.68,94.24,-1500.12
11800,-3.8724,0.2682,-0.1379,851.81,-593.26,-250.24
11810,-3.8724,0.2871,-0.1511,-1663.82,-1655.76,1984.07
11820,-3.8724,0.3121,-0.1346,758.06,656.80,1390.32
11830,-3.8724,0.3446,-0.1053,-38.82,-1233.83,-1594.06
11840,-3.8723,0.3809,-0.0715,117.43,-1483.70,1546.63
11850,-3.8722,0.4084,-0.0339,758.06,-1155.52,-1187.68
11860,-3.8719,0.4164,-0.0013,289.31,-342.96,1171.75
11870,-3.8718,0.4048,0.0079,1304.93,-171.08,-906.31
11880,-3.8716,0.3798,-0.0111,-179.44,1016.36,62.50
11890,-3.8716,0.3468,-0.0416,617.43,-1421.14,-78.19
11900,-3.8715,0.3142,-0.0681,398.68,-1327.45,-1859.50
11910,-3.8715,0.2947,-0.0863,226.81,-718.14,-1250.18
11920,-3.8715,0.2936,-0.0953,1726.81,953.67,-1218.93
11930,-3.8715,0.3014,-0.0966,1586.18,-202.58,-1000.24
11940,-3.8715,0.3065,-0.0901,-1413.82,-358.83,-515.87
11950,-3.8713,0.3070,-0.0780,-757.57,469.30,827.94
11960,-3.8713,0.3008,-0.0608,-695.07,-1983.83,-265.81
11970,-3.8711,0.2898,-0.0328,-1491.94,219.30,124.88
11980,-3.8710,0.2839,0.0009,1101.81,-202.58,640.50
11990,-3.8708,0.2899,0.0266,351.81,109.92,125.00
12000,-3.8708,0.3099,0.0386,1117.43,-593.20,-1609.38
12010,-3.8708,0.3375,0.0369,-320.07,938.05,-953.06
12020,-3.8708,0.3656,0.0248,-788.82,719.36,1890.69
12030,-3.8710,0.3920,0.0096,-1195.07,-827.45,-281.25
12040,-3.8710,0.4102,0.0007,-1820.07,1235.11,1734.38
12050,-3.8710,0.4110,0.0044,508.06,94.54,578.12
12060,-3.8710,0.3955,0.0258,617.43,563.29,625.00
12070,-3.8710,0.3770,0.0626,-1366.94,-702.39,-1609.38
12080,-3.8708,0.3655,0.1025,258.06,16.36,-1984.25
12090,-3.8707,0.3646,0.1353,-1210.69,1125.67,-1609.19
12100,-3.8706,0.3760,0.1537,-1320.07,1313.17,-1890.38
12110,-3.8705,0.3922,0.1492,133.06,-327.39,922.12
12120,-3.8705,0.3966,0.1293,-1788.82,-905.52,-859.13
12130,-3.8705,0.3795,0.1079,-1226.32,547.61,-62.26
12140,-3.8705,0.3552,0.0876,586.18,1813.23,-1171.69
12150,-3.8705,0.3430,0.0730,1476.81,-780.58,547.00
12160,-3.8706,0.3453,0.0673,-85.69,1344.36,1703.25
12170,-3.8707,0.3596,0.0665,211.18,610.05,-1312.38
12180,-3.8708,0.3824,0.0671,-1960.69,516.30,-531.13
12190,-3.8708,0.4102,0.0684,961.18,594.48,218.87
12200,-3.8710,0.4406,0.0737,508.06,750.79,1422.00
12210,-3.8711,0.4713,0.0851,398.68,1438.35,-1093.63
12220,-3.8711,0.5010,0.1011,336.18,-1108.46,406.37
12230,-3.8712,0.5272,0.1216,133.06,938.48,1859.56
12240,-3.8713,0.5475,0.1481,-507.57,-436.52,-374.82
12250,-3.8713,0.5585,0.1782,-1913.82,-1045.84,1828.37
12260,-3.8713,0.5598,0.2008,-507.57,-1186.46,750.31
12270,-3.8713,0.5559,0.2100,-335.69,1704.16,672.24
12280,-3.8713,0.5537,0.2144,-835.69,-1123.96,1453.49
12290,-3.8713,0.5530,0.2225,-1116.94,-561.46,-1140.26
12300,-3.8712,0.5465,0.2386,-1210.69,485.41,687.93
12310,-3.8712,0.5337,0.2626,1961.18,-1452.09,-890.20
12320,-3.8711,0.5203,0.2867,320.56,1610.41,1641.11
12330,-3.8710,0.5132,0.3115,-1398.19,704.10,219.30
12340,-3.8710,0.5137,0.3470,1695.56,-124.02,-718.20
12350,-3.8708,0.5199,0.3921,1758.06,422.85,-936.83
12360,-3.8707,0.5281,0.4335,-1445.07,-1811.52,-327.39
12370,-3.8706,0.5206,0.4580,-398.19,-514.65,-561.71
12380,-3.8705,0.4912,0.4503,-1351.32,-1374.02,1063.35
12390,-3.8705,0.4576,0.4031,-1116.94,1641.54,-1858.52
12400,-3.8705,0.4283,0.3384,-1413.82,-405.40,-858.64
12410,-3.8705,0.4092,0.2931,-1163.82,-686.71,-561.89
12420,-3.8705,0.4050,0.2875,383.06,1516.42,-483.83
12430,-3.8704,0.4095,0.3215,-148.19,797.61,234.92
12440,-3.8704,0.4128,0.3842,429.93,1157.04,-968.14
12450,-3.8701,0.4073,0.4553,851.81,1172.67,78.86
12460,-3.8700,0.3976,0.5118,148.68,-1717.96,1000.85
12470,-3.8699,0.3949,0.5317,-1101.32,1516.36,157.23
12480,-3.8699,0.4020,0.5029,-1445.07,63.23,1422.91
12490,-3.8699,0.4025,0.4369,-538.82,375.73,235.35
12500,-3.8700,0.3756,0.3651,-476.32,-77.39,985.17
12510,-3.8701,0.3229,0.3143,86.18,-1264.89,1219.42
12520,-3.8702,0.2585,0.2925,1336.18,234.99,1953.74
12530,-3.8704,0.1938,0.2987,1101.81,1437.99,-686.95
12540,-3.8704,0.1388,0.3373,820.56,-1765.26,922.42
12550,-3.8705,0.0983,0.4210,1773.68,-827.88,-515.01
12560,-3.8704,0.0742,0.5376,586.18,1890.81,1250.79
12570,-3.8702,0.0803,0.6371,1508.06,812.62,1719.79
12580,-3.8701,0.1370,0.6722,-1710.69,1547.00,1688.72
12590,-3.8701,0.2417,0.6390,1539.31,-1952.88,-1342.47
12600,-3.8702,0.3531,0.5696,-1054.44,1797.30,-748.78
12610,-3.8704,0.4215,0.5044,1211.18,906.92,719.85
12620,-3.8706,0.4250,0.4734,1961.18,563.29,-1733.40
12630,-3.8707,0.3728,0.4722,-1585.69,594.54,-1952.21
12640,-3.8707,0.2927,0.4735,-273.19,438.17,0.92
12650,-3.8708,0.2070,0.4613,1476.81,609.92,-1124.08
12660,-3.8708,0.1221,0.4399,-1491.94,-952.76,1969.60
12670,-3.8708,0.0439,0.4231,-366.94,312.68,1016.48
12680,-3.8708,-0.0183,0.4210,1633.06,-1843.69,844.54
12690,-3.8708,-0.0573,0.4240,1664.31,1906.19,-1499.21
12700,-3.8707,-0.0665,0.4166,679.93,-1718.87,750.79
12710,-3.8707,-0.0533,0.4022,-507.57,1343.57,1813.29
12720,-3.8707,-0.0334,0.3928,1179.93,-500.12,1281.98
12730,-3.8708,-0.0129,0.3888,-273.19,-1703.25,-421.14
12740,-3.8708,0.0081,0.3807,-1648.19,1781.19,860.11
12750,-3.8710,0.0231,0.3605,1039.31,734.38,1047.61
12760,-3.8711,0.0261,0.3251,-1038.82,-1859.38,250.67
12770,-3.8713,0.0228,0.2850,-648.19,1609.38,-905.64
12780,-3.8715,0.0188,0.2554,-1070.07,484.38,-1155.70
12790,-3.8715,0.0134,0.2374,-1585.69,687.50,203.61
12800,-3.8716,0.0043,0.2291,1726.81,-1609.38,-812.07
12810,-3.8716,-0.0142,0.2368,554.93,1328.12,-952.70
12820,-3.8716,-0.0360,0.2552,-1804.44,-1671.94,-983.95
12830,-3.8716,-0.0486,0.2673,-601.32,687.38,-733.89
12840,-3.8716,-0.0549,0.2676,1789.31,-1765.75,-499.51
12850,-3.8716,-0.0596,0.2548,976.81,-1734.50,-1483.89
12860,-3.8717,-0.0568,0.2233,383.06,624.88,-249.51
12870,-3.8717,-0.0422,0.1836,742.43,593.63,375.43
12880,-3.8718,-0.0198,0.1591,-1398.19,-484.50,1719.06
12890,-3.8718,0.0009,0.1605,1476.81,374.94,562.81
12900,-3.8718,0.0059,0.1796,117.43,546.88,1344.06
12910,-3.8718,-0.0067,0.1973,758.06,-1015.62,-1234.07
12920,-3.8718,-0.0184,0.1980,-851.32,1265.56,-780.88
12930,-3.8718,-0.0151,0.1764,1648.68,1359.31,-1312.13
12940,-3.8718,0.0031,0.1382,-1929.44,-1406.31,1109.68
12950,-3.8719,0.0327,0.0952,398.68,1687.50,-1937.26
12960,-3.8721,0.0688,0.0597,195.56,187.56,-1202.94
12970,-3.8721,0.0984,0.0402,820.56,-359.25,1078.19
12980,-3.8721,0.1068,0.0415,601.81,1140.81,296.94
12990,-3.8722,0.0946,0.0532,1679.93,1312.68,-890.56
13000,-3.8722,0.0778,0.0565,117.43,-1187.32,1500.06
13010,-3.8722,0.0669,0.0505,1961.18,-765.50,140.69
13020,-3.8723,0.0638,0.0472,570.56,-1531.13,-484.31
13030,-3.8723,0.0695,0.0460,179.93,-1953.00,-749.94
13040,-3.8723,0.0780,0.0393,898.68,1890.75,-1328.06
13050,-3.8723,0.0779,0.0270,1992.43,1031.37,1343.81
13060,-3.8724,0.0629,0.0082,1976.81,-546.75,-859.38
13070,-3.8726,0.0389,-0.0203,54.93,1047.00,-125.00
13080,-3.8727,0.0183,-0.0566,992.43,1406.31,-328.19
13090,-3.8728,0.0081,-0.0967,-1648.19,750.00,-718.87
13100,-3.8729,0.0061,-0.1340,1039.31,-375.00,-578.37
13110,-3.8729,0.0059,-0.1605,789.31,-1156.25,562.19
13120,-3.8730,0.0031,-0.1715,758.06,-546.88,-1969.12
13130,-3.8732,0.0001,-0.1686,398.68,-1953.12,-1094.12
13140,-3.8732,0.0107,-0.1514,23.68,-1578.12,1593.38
13150,-3.8732,0.0380,-0.1180,1383.06,625.00,-531.56
13160,-3.8730,0.0712,-0.0778,867.43,890.69,-1750.24
13170,-3.8729,0.1152,-0.0510,1117.43,-1953.00,156.07
13180,-3.8729,0.1779,-0.0507,-1241.94,1468.93,1406.13
13190,-3.8729,0.2488,-0.0680,-1226.32,1515.93,-1140.75
13200,-3.8728,0.3148,-0.0833,-148.19,-702.70,1187.32
13210,-3.8727,0.3672,-0.0813,304.93,1344.36,296.69
13220,-3.8726,0.3972,-0.0593,-991.94,1594.42,156.07
13230,-3.8724,0.4082,-0.0212,-1148.19,406.98,984.25
13240,-3.8723,0.4093,0.0238,258.06,1282.04,-1875.06
13250,-3.8722,0.4081,0.0542,398.68,-952.33,-1687.50
13260,-3.8721,0.4137,0.0459,242.43,-1061.71,484.44
13270,-3.8721,0.4253,-0.0023,961.18,1875.79,390.69
13280,-3.8722,0.4342,-0.0662,-1554.44,-296.08,-1093.81
13290,-3.8722,0.4379,-0.1135,-413.82,-467.96,-1968.93
13300,-3.8722,0.4349,-0.1241,54.93,1469.60,1999.76
13310,-3.8722,0.4321,-0.1025,-320.07,110.17,1406.01
13320,-3.8722,0.4370,-0.0707,-679.44,-1124.21,-1922.12
13330,-3.8721,0.4348,-0.0431,-54.44,-1046.08,-1515.81
13340,-3.8718,0.4124,-0.0181,-335.69,-1514.83,718.63
13350,-3.8717,0.3853,-0.0002,789.31,1688.29,1046.81
13360,-3.8717,0.3810,0.0089,1320.56,-30.52,-953.19
13370,-3.8716,0.4036,0.0148,773.68,1141.36,265.62
13380,-3.8716,0.4380,0.0114,-335.69,1891.36,531.25
13390,-3.8717,0.4750,-0.0071,70.56,1453.98,-812.50
13400,-3.8717,0.5021,-0.0319,804.93,-905.33,1359.31
13410,-3.8717,0.5029,-0.0457,273.68,-77.15,703.00
13420,-3.8717,0.4772,-0.0353,383.06,-1842.77,984.25
13430,-3.8717,0.4448,-0.0032,1086.18,-514.71,1187.38
13440,-3.8717,0.4221,0.0405,945.56,-405.40,1156.19
13450,-3.8717,0.4128,0.0885,-1960.69,1188.29,1281.31
13460,-3.8717,0.4130,0.1324,851.81,-671.08,1359.50
13470,-3.8717,0.4163,0.1522,867.43,953.92,859.62
13480,-3.8717,0.4211,0.1250,1289.31,-514.83,15.87
13490,-3.8718,0.4349,0.0609,1914.31,0.79,-77.88
13500,-3.8717,0.4535,0.0007,-320.07,-202.33,1859.44
13510,-3.8716,0.4604,-0.0221,-1945.07,94.60,-1562.50
13520,-3.8713,0.4500,-0.0052,-1054.44,1172.73,140.56
13530,-3.8712,0.4285,0.0361,1601.81,-671.02,1093.69
13540,-3.8711,0.4031,0.0874,-1148.19,625.79,187.56
13550,-3.8711,0.3816,0.1288,-398.19,-811.77,1906.37
13560,-3.8710,0.3733,0.1555,851.81,485.11,1265.87
13570,-3.8708,0.3724,0.1755,-210.69,-93.08,-921.63
13580,-3.8706,0.3701,0.1840,-320.07,-1530.58,750.31
13590,-3.8705,0.3710,0.1736,-616.94,-452.45,219.06
13600,-3.8705,0.3859,0.1492,-507.57,-1780.58,1609.68
13610,-3.8705,0.4164,0.1261,1398.68,-905.52,-1468.51
13620,-3.8705,0.4519,0.1219,1304.93,141.42,-202.88
13630,-3.8704,0.4806,0.1368,1851.81,-389.77,625.18
13640,-3.8704,0.5039,0.1541,1523.68,1516.54,218.99
13650,-3.8705,0.5234,0.1670,508.06,-280.27,-734.13
13660,-3.8705,0.5303,0.1851,-991.94,1375.98,-1015.32
13670,-3.8705,0.5173,0.2098,-116.94,-311.52,-390.32
13680,-3.8704,0.4840,0.2369,-1773.19,-1139.65,1500.37
13690,-3.8702,0.4424,0.2662,1961.18,-1670.96,703.55
13700,-3.8701,0.4080,0.2942,633.06,-1921.02,469.24
13710,-3.8701,0.3864,0.3177,226.81,1657.04,-155.70
13720,-3.8700,0.3749,0.3315,1461.18,672.61,1906.86
13730,-3.8700,0.3654,0.3315,-7.57,-1561.83,-1561.89
13740,-3.8700,0.3518,0.3234,-1226.32,-1561.83,1672.49
13750,-3.8700,0.3350,0.3145,1039.31,1391.30,156.86
13760,-3.8701,0.3184,0.3101,-1116.94,250.61,1953.74
13770,-3.8702,0.3090,0.3116,758.06,-311.89,-1015.08
13780,-3.8704,0.3105,0.3174,-445.07,-108.83,-499.45
13790,-3.8704,0.3196,0.3304,-241.94,625.55,141.24
13800,-3.8705,0.3252,0.3562,914.31,-1702.51,1609.99
13810,-3.8705,0.3242,0.3895,1633.06,1594.36,360.05
13820,-3.8705,0.3256,0.4193,1508.06,1859.99,219.48
13830,-3.8705,0.3322,0.4388,1679.93,1672.49,344.54
13840,-3.8705,0.3386,0.4506,-1476.32,172.49,266.48
13850,-3.8706,0.3364,0.4575,-648.19,1672.49,-124.15
13860,-3.8706,0.3148,0.4536,-929.44,-1436.89,-639.77
13870,-3.8706,0.2715,0.4348,304.93,-1936.89,-999.15
13880,-3.8706,0.2169,0.4106,-1241.94,-343.26,-952.33
13890,-3.8706,0.1716,0.3949,-226.32,562.87,-592.96
13900,-3.8706,0.1587,0.3915,1976.81,-1452.82,-421.14
13910,-3.8706,0.1903,0.3997,320.56,-1890.32,-546.14
13920,-3.8706,0.2526,0.4211,367.43,-843.38,-655.52
13930,-3.8706,0.3132,0.4550,336.18,1906.74,-577.33
13940,-3.8705,0.3453,0.4962,101.81,-1765.01,47.73
13950,-3.8705,0.3372,0.5323,211.18,-483.70,1813.42
13960,-3.8704,0.2998,0.5452,-835.69,141.24,907.29
13970,-3.8702,0.2572,0.5314,-1616.94,1781.80,251.04
13980,-3.8702,0.2179,0.4979,929.93,16.11,-1858.34
13990,-3.8702,0.1737,0.4501,-101.32,-265.26,1704.04
14000,-3.8704,0.1216,0.3938,-1757.57,1609.68,-999.15
14010,-3.8705,0.0703,0.3414,-429.44,-1593.57,-436.77
14020,-3.8705,0.0377,0.3141,1008.06,-296.75,891.24
14030,-3.8706,0.0302,0.3258,836.18,203.19,-1155.64
14040,-3.8706,0.0380,0.3737,-132.57,1703.12,-1202.51
14050,-3.8705,0.0519,0.4451,867.43,-171.81,485.05
14060,-3.8705,0.0687,0.5082,-1351.32,968.81,1235.23
14070,-3.8705,0.0913,0.5332,804.93,1047.00,-1936.52
14080,-3.8704,0.1118,0.5203,-304.44,250.12,235.41
14090,-3.8704,0.1195,0.4849,-1679.44,-1406.07,1563.48
14100,-3.8705,0.1133,0.4379,-695.07,-1937.32,-452.21
14110,-3.8706,0.0973,0.3844,-1491.94,47.06,-952.27
14120,-3.8707,0.0737,0.3368,461.18,1203.31,-1749.27
14130,-3.8708,0.0482,0.3108,1445.56,-890.50,1703.74
14140,-3.8710,0.0338,0.3193,-1820.07,-218.69,-1952.58
14150,-3.8710,0.0343,0.3589,336.18,875.06,281.86
14160,-3.8710,0.0438,0.4131,398.68,1937.56,578.80
14170,-3.8710,0.0551,0.4656,1617.43,875.06,-1436.71
14180,-3.8708,0.0680,0.4929,-945.07,-406.19,797.73
14190,-3.8708,0.0841,0.4735,711.18,-906.13,1407.17
14200,-3.8710,0.0918,0.4172,-1226.32,609.50,-545.96
14210,-3.8711,0.0808,0.3486,-241.94,1406.37,-1124.21
14220,-3.8712,0.0574,0.2832,-1648.19,625.12,266.30
14230,-3.8715,0.0358,0.2268,-648.19,250.06,1234.92
14240,-3.8717,0.0236,0.1802,586.18,1031.31,-952.70
14250,-3.8718,0.0183,0.1427,-976.32,-937.50,1703.43
14260,-3.8719,0.0186,0.1129,-1648.19,-1734.38,1203.37
14270,-3.8721,0.0245,0.0952,-1616.94,-1546.88,1359.56
14280,-3.8722,0.0378,0.1138,-851.32,187.50,-593.57
14290,-3.8721,0.0492,0.1924,851.81,-1437.44,1672.06
14300,-3.8719,0.0480,0.3002,-1695.07,625.06,1906.62
14310,-3.8718,0.0499,0.3701,-1851.32,-1578.06,766.17
14320,-3.8718,0.0656,0.3728,-1601.32,-624.94,-905.58
14330,-3.8717,0.0765,0.3307,398.68,-281.13,1266.30
14340,-3.8717,0.0632,0.2743,1804.93,-1671.75,1578.74
14350,-3.8718,0.0305,0.2152,101.81,-890.50,-1608.89
14360,-3.8719,-0.0016,0.1550,-85.69,-453.12,1234.74
14370,-3.8721,-0.0214,0.1027,-195.07,-140.69,1578.37
14380,-3.8722,-0.0287,0.0719,1273.68,1156.19,-187.32
14390,-3.8722,-0.0245,0.0651,336.18,1218.69,-1374.88
14400,-3.8722,-0.0107,0.0732,867.43,343.69,1765.75
14410,-3.8722,0.0077,0.0902,-1366.94,1390.56,-1968.63
14420,-3.8722,0.0227,0.1122,992.43,-453.12,-78.00
14430,-3.8721,0.0304,0.1265,-1085.69,-1640.62,-1484.19
14440,-3.8719,0.0331,0.1221,-101.32,187.50,78.37
14450,-3.8721,0.0352,0.0994,242.43,-374.94,-343.57
14460,-3.8721,0.0387,0.0673,508.06,718.81,1703.31
14470,-3.8722,0.0386,0.0355,961.18,609.44,-812.38
14480,-3.8722,0.0303,0.0095,945.56,546.94,859.44
14490,-3.8723,0.0182,-0.0088,-116.94,1218.75,-1062.50
14500,-3.8723,0.0144,-0.0178,-1663.82,-1125.00,1390.56
14510,-3.8723,0.0239,-0.0194,1851.81,1718.75,578.06
14520,-3.8723,0.0367,-0.0198,-929.44,1515.62,921.81
14530,-3.8723,0.0448,-0.0258,711.18,1468.81,1374.94
14540,-3.8723,0.0486,-0.0425,1742.43,703.19,843.69
14550,-3.8723,0.0481,-0.0668,-1773.19,-1437.44,187.38
14560,-3.8723,0.0453,-0.0835,-1835.69,-546.81,359.19
14570,-3.8723,0.0448,-0.0808,1804.93,1312.56,1156.07
14580,-3.8723,0.0488,-0.0636,1742.43,1656.31,1906.07
14590,-3.8723,0.0562,-0.0482,-1741.94,-140.56,1937.32
14600,-3.8723,0.0627,-0.0613,-804.44,1828.19,1171.75
14610,-3.8723,0.0753,-0.1034,39.31,156.37,890.50
14620,-3.8724,0.0942,-0.1462,1648.68,-1234.25,-187.74
14630,-3.8724,0.1121,-0.1768,70.56,1281.43,593.44
14640,-3.8726,0.1371,-0.1967,-1648.19,1375.18,1515.26
14650,-3.8727,0.1654,-0.2078,1554.93,-1171.63,-141.05
14660,-3.8727,0.1808,-0.2018,1179.93,1406.56,-47.30
14670,-3.8726,0.1897,-0.1736,-851.32,-1827.82,1155.82
14680,-3.8726,0.2097,-0.1298,289.31,1781.62,-1219.12
14690,-3.8724,0.2343,-0.0876,-1148.19,-609.01,905.94
14700,-3.8724,0.2457,-0.0599,1992.43,781.68,-62.68
14710,-3.8723,0.2471,-0.0421,-538.82,328.55,-609.50
14720,-3.8722,0.2500,-0.0283,-366.94,-1390.20,-1547.00
14730,-3.8721,0.2621,-0.0209,8.06,375.49,687.44
14740,-3.8721,0.2836,-0.0240,1554.93,1328.61,1578.06
14750,-3.8721,0.3076,-0.0388,304.93,922.42,1078.06
14760,-3.8721,0.3280,-0.0597,-616.94,-968.20,46.75
14770,-3.8722,0.3405,-0.0739,1992.43,359.99,-703.25
14780,-3.8722,0.3425,-0.0724,-413.82,-1452.51,-828.31
14790,-3.8721,0.3345,-0.0579,-148.19,-1265.01,265.44
14800,-3.8721,0.3184,-0.0392,-1179.44,594.36,-984.50
14810,-3.8719,0.3003,-0.0245,758.06,-1015.01,-1078.25
14820,-3.8718,0.2844,-0.0153,-1554.44,859.92,-1609.44
14830,-3.8717,0.2761,-0.0050,414.31,-1952.58,781.19
14840,-3.8717,0.2874,0.0060,-648.19,-640.14,-1687.56
14850,-3.8717,0.3195,0.0121,789.31,766.17,-703.12
14860,-3.8717,0.3596,0.0126,898.68,1547.49,-453.12
14870,-3.8717,0.4025,0.0077,-1960.69,1610.05,-1093.75
14880,-3.8717,0.4470,0.0016,-476.32,985.11,-1375.00
14890,-3.8717,0.4709,0.0028,1226.81,203.98,-218.75
14900,-3.8716,0.4553,0.0165,289.31,360.29,-1953.12
14910,-3.8715,0.4211,0.0430,-1710.69,-1889.77,734.38
14920,-3.8713,0.4004,0.0754,1914.31,1500.79,156.31
14930,-3.8712,0.3990,0.1033,-741.94,1656.98,172.00
14940,-3.8712,0.4115,0.1207,-913.82,1219.48,-546.69
14950,-3.8711,0.4353,0.1210,679.93,-546.08,1000.18
14960,-3.8711,0.4679,0.0933,-273.19,-514.83,625.18
14970,-3.8712,0.5074,0.0458,-101.32,-61.65,-984.25
14980,-3.8712,0.5428,0.0107,961.18,1860.35,1578.19
14990,-3.8712,0.5531,0.0098,1492.43,1376.04,1171.88
15000,-3.8712,0.5393,0.0466,-1195.07,1251.04,1765.62
15010,-3.8712,0.5214,0.1136,1039.31,1969.79,-31.19
15020,-3.8710,0.5105,0.1932,-1257.57,-1452.15,593.93
15030,-3.8708,0.5063,0.2645,1351.81,735.35,-1796.51
15040,-3.8707,0.5005,0.3036,820.56,1860.35,-1608.89
15050,-3.8706,0.4900,0.2993,70.56,-1139.65,0.55
15060,-3.8707,0.4751,0.2594,-1273.19,-1686.58,-1171.33
15070,-3.8708,0.4518,0.1992,820.56,1204.04,-687.01
15080,-3.8710,0.4219,0.1346,1836.18,1500.85,1484.74
15090,-3.8712,0.3945,0.0778,-1991.94,1235.17,-1718.51
15100,-3.8713,0.3782,0.0406,-1491.94,1953.86,390.75
15110,-3.8715,0.3705,0.0361,414.31,1203.86,1812.56
15120,-3.8715,0.3656,0.0676,-570.07,625.67,-656.19
15130,-3.8712,0.3640,0.1227,-1195.07,656.92,265.75
15140,-3.8711,0.3716,0.1885,-1398.19,-296.20,-1249.82
15150,-3.8708,0.3875,0.2584,-429.44,125.67,1375.37
15160,-3.8707,0.4003,0.3170,1601.81,1078.86,-1093.26
15170,-3.8706,0.4059,0.3521,-757.57,578.86,-1233.76
15180,-3.8705,0.4083,0.3682,-38.82,1063.23,1391.30
15190,-3.8705,0.4071,0.3726,273.68,-874.21,-436.83
15200,-3.8704,0.4050,0.3704,117.43,-311.71,1266.30
15210,-3.8704,0.4103,0.3694,-148.19,-593.02,-1905.58
15220,-3.8704,0.4230,0.3760,523.68,-717.96,-1718.08
15230,-3.8704,0.4331,0.3871,-1851.32,125.79,-1561.77
15240,-3.8704,0.4347,0.3932,-554.44,1547.67,1922.61
15250,-3.8705,0.4323,0.3888,-351.32,-1671.08,-171.14
15260,-3.8705,0.4297,0.3846,-663.82,1766.42,1156.98
15270,-3.8706,0.4170,0.3918,-991.94,1235.17,-889.89
15280,-3.8706,0.3862,0.4028,1383.06,-1842.96,1578.86
15290,-3.8707,0.3425,0.4022,1445.56,-436.77,-139.89
15300,-3.8707,0.2921,0.3862,-148.19,-515.01,1313.23
15310,-3.8708,0.2465,0.3679,1398.68,1438.05,-1608.64
15320,-3.8708,0.2137,0.3650,-445.07,-905.82,188.17
15330,-3.8710,0.1919,0.3796,-632.57,-1280.88,-593.08
15340,-3.8708,0.1825,0.4049,570.56,594.12,360.11
15350,-3.8708,0.1943,0.4373,-632.57,-171.57,-1421.14
15360,-3.8707,0.2313,0.4714,883.06,-30.88,-1952.33
15370,-3.8706,0.2791,0.5057,1617.43,344.18,-1233.46
15380,-3.8705,0.3145,0.5442,-273.19,734.86,1969.73
15390,-3.8705,0.3352,0.5699,258.06,1656.86,-1592.71
15400,-3.8705,0.3479,0.5636,-1085.69,953.74,1844.85
15410,-3.8705,0.3481,0.5327,539.31,141.30,1110.47
15420,-3.8705,0.3407,0.4933,570.56,188.17,63.54
15430,-3.8706,0.3407,0.4570,-382.57,-858.76,-1655.33
15440,-3.8707,0.3540,0.4312,-382.57,-1499.39,-61.65
15450,-3.8707,0.3748,0.4210,1320.56,-811.83,1407.04
15460,-3.8708,0.3981,0.4282,-23.19,1891.30,-546.08
15470,-3.8708,0.4196,0.4456,-1038.82,-1186.77,-1249.21
15480,-3.8708,0.4277,0.4636,1711.18,1032.04,-749.15
15490,-3.8707,0.4160,0.4725,-1241.94,-655.46,63.35
15500,-3.8707,0.3903,0.4635,1258.06,485.17,235.29
15510,-3.8708,0.3605,0.4410,1961.18,-671.14,-155.40
15520,-3.8708,0.3317,0.4205,-1851.32,453.80,-624.15
15530,-3.8708,0.3047,0.4130,-1538.82,1828.74,-936.71
15540,-3.8708,0.2825,0.4165,-991.94,859.92,-1061.71
15550,-3.8708,0.2664,0.4193,164.31,1313.05,-1374.21
15560,-3.8708,0.2506,0.4156,-1898.19,1672.36,-1780.46
15570,-3.8708,0.2261,0.4080,86.18,1203.61,1688.29
15580,-3.8708,0.1919,0.3975,945.56,219.18,657.04
15590,-3.8710,0.1552,0.3838,570.56,-1124.63,-702.39
15600,-3.8710,0.1210,0.3760,-132.57,1125.24,1750.73
15610,-3.8710,0.0869,0.3896,-507.57,125.18,860.11
15620,-3.8710,0.0538,0.4219,-866.94,1875.12,1594.48
15630,-3.8710,0.0319,0.4551,-1101.32,-1999.94,-124.21
15640,-3.8708,0.0238,0.4801,86.18,-1749.94,-1186.65
15650,-3.8707,0.0227,0.4901,-945.07,1453.12,1375.92
15660,-3.8707,0.0273,0.4789,-1085.69,-1265.62,-952.21
15670,-3.8707,0.0375,0.4490,-491.94,1296.88,-1342.83
15680,-3.8708,0.0510,0.4045,804.93,1468.81,-77.27
15690,-3.8708,0.0704,0.3645,-1460.69,-218.69,578.86
15700,-3.8710,0.0929,0.3463,1023.68,-1343.63,1297.55
15710,-3.8711,0.1123,0.3485,-101.32,328.25,-1171.20
15720,-3.8711,0.1244,0.3629,-1616.94,609.56,1766.30
15730,-3.8711,0.1281,0.3739,-70.07,-1546.69,1391.30
15740,-3.8711,0.1251,0.3732,398.68,-140.38,1516.30
15750,-3.8711,0.1167,0.3640,23.68,-234.13,-1843.08
15760,-3.8711,0.1072,0.3513,-1054.44,-1406.07,-1311.83
15770,-3.8711,0.1036,0.3336,1726.81,968.93,-1468.08
15780,-3.8711,0.1088,0.3107,1273.68,-1296.69,1391.24
15790,-3.8712,0.1201,0.2850,1929.93,-234.19,-936.95
15800,-3.8713,0.1317,0.2555,-616.94,484.56,-61.95
15810,-3.8713,0.1349,0.2213,867.43,703.37,891.11
15820,-3.8715,0.1218,0.1884,1273.68,328.37,-1858.95
15830,-3.8716,0.0968,0.1603,-398.19,109.56,-390.26
15840,-3.8716,0.0714,0.1375,398.68,515.81,1594.06
15850,-3.8717,0.0562,0.1205,1148.68,1593.87,-15.38
15860,-3.8717,0.0573,0.1105,-804.44,-578.06,-1812.32
15870,-3.8717,0.0763,0.1101,-663.82,-1859.31,328.31
15880,-3.8718,0.1073,0.1202,1773.68,-1906.13,-1265.44
15890,-3.8718,0.1390,0.1332,1742.43,-609.19,1297.06
15900,-3.8718,0.1604,0.1357,1804.93,1047.12,0.24
15910,-3.8719,0.1595,0.1222,539.31,1375.31,-1077.88
15920,-3.8719,0.1311,0.0997,429.93,-359.07,-1999.82
15930,-3.8719,0.0872,0.0824,789.31,765.87,1109.56
15940,-3.8719,0.0470,0.0765,-835.69,-1453.00,640.75
15950,-3.8719,0.0234,0.0809,-1976.32,1796.94,1093.87
15960,-3.8719,0.0212,0.0913,-991.94,-1640.62,1984.50
15970,-3.8719,0.0385,0.0997,-1273.19,-312.50,-1687.38
15980,-3.8719,0.0702,0.0978,929.93,765.69,1687.68
15990,-3.8721,0.1058,0.0824,992.43,515.75,-15.44
16000,-3.8721,0.1300,0.0575,1554.93,-1452.94,1140.75
16010,-3.8722,0.1368,0.0277,648.68,-640.38,1703.19
16020,-3.8723,0.1285,-0.0038,1523.68,-452.88,-1500.00
16030,-3.8723,0.1066,-0.0325,461.18,-484.13,93.69
16040,-3.8724,0.0786,-0.0474,1648.68,-156.07,-1437.62
16050,-3.8724,0.0519,-0.0504,-1929.44,1937.62,953.00
16060,-3.8724,0.0300,-0.0667,-1351.32,1546.94,734.25
16070,-3.8724,0.0100,-0.0938,-148.19,-531.25,-1953.31
16080,-3.8724,-0.0109,-0.1023,1289.31,0.00,1343.57
16090,-3.8726,-0.0173,-0.0992,-1382.57,-1078.19,-1297.12
16100,-3.8726,-0.0020,-0.1121,1789.31,-687.56,109.13
16110,-3.8727,0.0247,-0.1387,-241.94,1671.81,-1625.24
16120,-3.8727,0.0535,-0.1592,-835.69,-1750.00,1577.82
16130,-3.8727,0.0793,-0.1663,-1148.19,-374.94,905.88
16140,-3.8727,0.0991,-0.1621,-1835.69,-1281.13,609.01
16150,-3.8727,0.1141,-0.1493,695.56,-749.82,1327.76
16160,-3.8727,0.1270,-0.1300,-1382.57,890.81,-1125.31
16170,-3.8726,0.1437,-0.1024,258.06,-640.38,1452.82
16180,-3.8724,0.1672,-0.0688,-1601.32,-1109.13,593.51
16190,-3.8724,0.1957,-0.0383,1414.31,-812.19,-250.18
16200,-3.8723,0.2253,-0.0175,1054.93,-905.88,-1375.12
16210,-3.8722,0.2467,-0.0045,851.81,1766.05,1140.56
16220,-3.8722,0.2520,0.0032,-413.82,-577.70,-718.81
16230,-3.8721,0.2463,0.0040,258.06,406.74,859.38
16240,-3.8721,0.2400,-0.0040,-460.69,516.05,1687.50
16250,-3.8721,0.2415,-0.0167,-1273.19,-515.20,-1703.19
16260,-3.8721,0.2516,-0.0298,-1085.69,1859.80,-1437.56
16270,-3.8721,0.2697,-0.0444,211.18,187.99,1796.81
16280,-3.8721,0.2979,-0.0576,-1476.32,-1687.01,703.00
16290,-3.8721,0.3269,-0.0579,-1866.94,625.55,390.50
16300,-3.8721,0.3406,-0.0382,1851.81,594.36,1624.88
16310,-3.8721,0.3339,-0.0024,-398.19,-890.01,-187.62
16320,-3.8719,0.3224,0.0352,-1257.57,-311.89,1906.19
16330,-3.8719,0.3228,0.0568,1273.68,500.61,-578.06
16340,-3.8719,0.3350,0.0551,1320.56,-733.76,-218.69
16350,-3.8719,0.3499,0.0375,-1116.94,-952.51,-843.69
16360,-3.8719,0.3630,0.0134,789.31,797.55,1968.81
16370,-3.8721,0.3750,-0.0094,-1523.19,1719.42,-171.88
16380,-3.8721,0.3854,-0.0222,8.06,-1202.39,1468.69
16390,-3.8721,0.3921,-0.0189,1336.18,1156.98,484.31
16400,-3.8721,0.3976,0.0044,-1804.44,1578.86,1265.56
16410,-3.8721,0.4142,0.0474,-1101.32,563.23,-156.25
16420,-3.8719,0.4420,0.1023,1023.68,-1936.71,-62.44
16430,-3.8718,0.4659,0.1534,586.18,1094.60,-202.94
16440,-3.8717,0.4794,0.1738,-351.32,-358.52,1984.62
16450,-3.8717,0.4795,0.1526,1367.43,-1749.08,-1515.32
16460,-3.8717,0.4662,0.1088,1383.06,-467.83,1375.24
16470,-3.8718,0.4482,0.0629,-320.07,1922.73,-890.44
16480,-3.8718,0.4359,0.0288,1383.06,47.73,1109.50
16490,-3.8718,0.4329,0.0203,-195.07,-311.71,1015.62
16500,-3.8718,0.4348,0.0459,-585.69,-1405.46,-359.38
16510,-3.8716,0.4365,0.1010,-335.69,1875.79,312.56
16520,-3.8715,0.4370,0.1643,-116.94,922.67,1359.56
16530,-3.8713,0.4398,0.2096,-54.44,1032.04,1656.56
16540,-3.8712,0.4465,0.2234,304.93,-1171.02,859.74
16550,-3.8712,0.4581,0.2072,1164.31,594.60,-1187.07
16560,-3.8711,0.4718,0.1776,-1351.32,-1483.52,125.37
16570,-3.8711,0.4799,0.1578,398.68,-1264.71,1187.81
16580,-3.8711,0.4806,0.1541,1429.93,204.04,1703.43
16590,-3.8711,0.4783,0.1581,1523.68,-280.33,-1609.13
16600,-3.8710,0.4745,0.1671,1226.81,235.29,734.68
16610,-3.8708,0.4674,0.1887,742.43,1391.54,922.18
16620,-3.8707,0.4640,0.2283,-163.82,157.10,1812.87
16630,-3.8706,0.4734,0.2831,-601.32,1219.60,-1187.07
16640,-3.8705,0.4954,0.3424,601.81,235.29,-218.20
16650,-3.8704,0.5275,0.3899,-585.69,-170.96,-46.26
16660,-3.8702,0.5649,0.4115,-476.32,1907.23,1406.98
16670,-3.8702,0.5986,0.3965,320.56,672.97,344.54
16680,-3.8704,0.6147,0.3547,633.06,-1248.84,-1030.52
16690,-3.8704,0.6013,0.3190,-1304.44,1407.41,-1952.45
16700,-3.8704,0.5636,0.3090,976.81,829.28,1766.24
16710,-3.8704,0.5133,0.3246,148.68,-452.03,-1546.33
16720,-3.8702,0.4613,0.3616,1711.18,1547.85,78.74
16730,-3.8702,0.4178,0.4108,-945.07,-1717.90,-1843.08
16740,-3.8701,0.3849,0.4551,1492.43,578.92,282.04
16750,-3.8701,0.3605,0.4746,1273.68,-1749.27,1735.23
16760,-3.8701,0.3500,0.4635,-1851.32,750.67,1516.54
16770,-3.8702,0.3562,0.4314,804.93,-671.20,-889.77
16780,-3.8704,0.3658,0.3979,1601.81,-780.58,-483.58
16790,-3.8704,0.3579,0.3822,-1163.82,-1061.83,578.86
16800,-3.8705,0.3223,0.3871,1820.56,922.55,-1171.14
16810,-3.8705,0.2667,0.3990,1258.06,1547.49,1828.86
16820,-3.8705,0.2084,0.4027,-1851.32,-921.39,1485.11
16830,-3.8705,0.1641,0.3977,-1320.07,-452.76,1735.11
16840,-3.8705,0.1443,0.3883,1008.06,-1093.44,1922.61
16850,-3.8705,0.1567,0.3728,-1523.19,1703.37,1406.98
16860,-3.8705,0.2080,0.3557,70.56,-280.94,860.05
16870,-3.8705,0.2916,0.3536,-1366.94,1531.62,1485.05
16880,-3.8705,0.3766,0.3766,1336.18,1266.17,-733.70
16890,-3.8704,0.4268,0.4182,211.18,203.86,-1968.02
16900,-3.8702,0.4272,0.4697,-1366.94,1532.04,-1905.46
16910,-3.8701,0.3884,0.5188,-1304.44,125.79,-1061.58
16920,-3.8700,0.3368,0.5521,1726.81,-1593.02,-61.52
16930,-3.8698,0.2963,0.5676,-882.57,-1327.51,688.54
16940,-3.8696,0.2744,0.5674,1929.93,656.80,219.85
16950,-3.8696,0.2677,0.5520,-866.94,625.49,1469.85
16960,-3.8696,0.2689,0.5264,-1726.32,-1343.26,516.66
16970,-3.8698,0.2675,0.5023,-1570.07,-624.51,-1280.27
16980,-3.8698,0.2549,0.4922,-1757.57,297.36,1469.73
16990,-3.8698,0.2295,0.4983,633.06,-999.51,610.29
17000,-3.8699,0.1982,0.5099,1383.06,-218.32,-592.83
17010,-3.8699,0.1715,0.5164,1383.06,1265.99,1797.85
17020,-3.8700,0.1547,0.5189,1961.18,-1905.94,-139.65
17030,-3.8700,0.1498,0.5236,-195.07,-1577.88,1563.48
17040,-3.8701,0.1567,0.5321,-820.07,-984.13,-1217.77
17050,-3.8701,0.1663,0.5436,70.56,109.68,251.04
17060,-3.8702,0.1649,0.5527,1289.31,1578.43,-1983.34
17070,-3.8704,0.1503,0.5524,1117.43,-1249.69,-1202.09
17080,-3.8705,0.1289,0.5361,-757.57,-1296.63,-1608.34
17090,-3.8706,0.1058,0.5085,508.06,625.24,1938.54
17100,-3.8707,0.0851,0.4834,1554.93,1093.93,-1967.77
17110,-3.8708,0.0685,0.4677,-1101.32,1875.12,-1467.83
17120,-3.8710,0.0562,0.4587,773.68,-140.50,-546.02
17130,-3.8710,0.0491,0.4513,-804.44,-1281.19,1016.48
17140,-3.8711,0.0472,0.4419,-1710.69,1765.69,-874.15
17150,-3.8711,0.0448,0.4293,-1945.07,562.56,969.60
17160,-3.8712,0.0367,0.4106,1742.43,-1046.81,1985.17
17170,-3.8713,0.0278,0.3838,711.18,562.56,-296.08
17180,-3.8713,0.0153,0.3621,-429.44,1125.00,-1343.02
17190,-3.8713,-0.0048,0.3551,1961.18,-1656.25,1203.80
17200,-3.8715,-0.0193,0.3536,-601.32,1468.69,-1077.45
17210,-3.8715,-0.0156,0.3458,1539.31,1281.19,672.55
17220,-3.8716,0.0049,0.3314,-1991.94,281.19,-702.45
17230,-3.8716,0.0250,0.3167,633.06,-1578.12,-1686.89
17240,-3.8716,0.0330,0.3026,-788.82,531.25,953.74
17250,-3.8717,0.0317,0.2882,226.81,-1265.56,-1233.83
17260,-3.8717,0.0284,0.2649,70.56,890.69,375.55
17270,-3.8718,0.0242,0.2245,-351.32,1906.25,-1358.89
17280,-3.8718,0.0111,0.1788,-898.19,734.38,578.55
17290,-3.8719,-0.0092,0.1437,1429.93,-1109.38,1156.56
17300,-3.8721,-0.0229,0.1155,-1163.82,-1593.81,1390.87
17310,-3.8722,-0.0266,0.0857,1070.56,-1203.19,-1296.69
17320,-3.8722,-0.0289,0.0587,601.81,-1015.69,1078.25
17330,-3.8722,-0.0337,0.0410,304.93,-468.81,31.31
17340,-3.8723,-0.0396,0.0311,-304.44,1265.50,-624.94
17350,-3.8723,-0.0446,0.0234,-1054.44,-0.12,-1156.25
17360,-3.8723,-0.0480,0.0134,-1695.07,-984.50,-1734.38
17370,-3.8723,-0.0505,0.0031,1867.43,1734.25,1593.75
17380,-3.8723,-0.0522,-0.0021,1539.31,406.13,1343.75
17390,-3.8723,-0.0544,-0.0037,1320.56,-250.12,1765.56
17400,-3.8723,-0.0592,-0.0092,1039.31,-453.25,-1640.69
17410,-3.8723,-0.0649,-0.0234,429.93,-1156.37,-1296.94
17420,-3.8723,-0.0723,-0.0461,-304.44,1015.44,-1484.44
17430,-3.8723,-0.0828,-0.0702,-1241.94,-1890.81,-1953.25
17440,-3.8723,-0.0930,-0.0885,1414.31,-968.93,1656.07
17450,-3.8723,-0.0980,-0.0990,101.81,687.32,1593.57
17460,-3.8723,-0.0970,-0.1024,-538.82,-656.49,-1984.62
17470,-3.8723,-0.0939,-0.1014,-413.82,-1093.99,-1156.49
17480,-3.8723,-0.0939,-0.0988,-7.57,-968.99,-468.99
17490,-3.8723,-0.0979,-0.0966,-7.57,-625.24,-218.99
17500,-3.8723,-0.1023,-0.0946,-523.19,-343.99,-62.74
17510,-3.8722,-0.1030,-0.0895,-1085.69,-93.99,546.63
17520,-3.8722,-0.0990,-0.0819,-1179.44,562.26,1609.19
17530,-3.8722,-0.0934,-0.0826,-663.82,1531.01,-1843.93
17540,-3.8722,-0.0884,-0.0964,54.93,1437.32,1749.82
17550,-3.8722,-0.0861,-0.1165,695.56,-328.31,812.26
17560,-3.8723,-0.0880,-0.1338,992.43,1109.19,-31.49
17570,-3.8723,-0.0936,-0.1444,742.43,-1109.56,-640.93
17580,-3.8723,-0.1012,-0.1483,23.68,1531.07,-1078.43
17590,-3.8723,-0.1073,-0.1448,-945.07,1031.01,-1031.56
17600,-3.8723,-0.1078,-0.1365,-1726.32,1484.13,-453.43
17610,-3.8722,-0.0975,-0.1262,-1788.82,-1453.37,843.44
17620,-3.8722,-0.0767,-0.1141,-476.32,-140.87,-1312.81
17630,-3.8721,-0.0527,-0.1061,-1804.44,1406.07,15.38
17640,-3.8721,-0.0343,-0.1057,1258.06,-1562.62,499.76
17650,-3.8721,-0.0219,-0.1060,-382.57,-1515.75,874.76
17660,-3.8721,-0.0105,-0.1034,1211.18,-1546.94,1609.13
17670,-3.8721,-0.0006,-0.1056,-1335.69,-1218.81,-1828.37
17680,-3.8721,0.0055,-0.1195,-70.07,-1500.06,1968.51
17690,-3.8721,0.0066,-0.1399,711.18,703.12,890.38
17700,-3.8722,0.0012,-0.1530,851.81,-1906.25,-390.93
17710,-3.8722,-0.0051,-0.1471,164.31,421.88,-922.18
17720,-3.8722,-0.0046,-0.1229,-648.19,1187.44,-437.81
17730,-3.8721,0.0060,-0.0905,-585.69,281.19,1140.38
17740,-3.8721,0.0286,-0.0608,773.68,421.88,-265.81
17750,-3.8719,0.0624,-0.0415,-335.69,218.75,-1250.12
17760,-3.8718,0.1027,-0.0364,-7.57,-1312.44,1015.50
17770,-3.8718,0.1394,-0.0427,1148.68,-656.07,1703.00
17780,-3.8718,0.1669,-0.0524,1851.81,-1468.51,984.25
17790,-3.8719,0.1860,-0.0602,1367.43,1297.18,-515.75
17800,-3.8719,0.1948,-0.0645,-179.44,297.18,1437.38
17810,-3.8721,0.1895,-0.0662,945.56,-249.63,-640.81
17820,-3.8721,0.1724,-0.0679,258.06,-468.38,-1750.18
17830,-3.8721,0.1538,-0.0675,-1929.44,-687.19,-1625.18
17840,-3.8721,0.1421,-0.0599,-304.44,-640.38,-484.56
17850,-3.8719,0.1406,-0.0438,-1804.44,328.37,999.88
17860,-3.8719,0.1492,-0.0258,-1991.94,-1609.13,-1687.62
17870,-3.8719,0.1624,-0.0087,-898.19,703.37,-640.69
17880,-3.8718,0.1699,0.0112,789.31,-1109.07,78.06
17890,-3.8718,0.1676,0.0381,1758.06,1437.81,546.88
17900,-3.8718,0.1647,0.0685,1461.18,875.31,703.19
17910,-3.8718,0.1752,0.0896,1086.18,765.93,625.12
17920,-3.8718,0.2083,0.0917,-1570.07,-530.94,937.62
17930,-3.8718,0.2566,0.0762,-1335.69,-265.26,1890.75
17940,-3.8718,0.3049,0.0525,851.81,1750.49,-640.50
17950,-3.8717,0.3477,0.0332,-960.69,-1280.70,1250.06
17960,-3.8717,0.3737,0.0287,508.06,250.67,-765.56
17970,-3.8716,0.3679,0.0370,-163.82,-327.45,1359.38
17980,-3.8716,0.3289,0.0436,-898.19,735.05,-109.31
17990,-3.8715,0.2712,0.0378,-1898.19,1578.74,-1531.19
18000,-3.8713,0.2186,0.0248,-1273.19,844.24,1125.06
18010,-3.8712,0.1865,0.0205,-7.57,-827.76,281.25
18020,-3.8711,0.1810,0.0352,-116.94,-1374.69,0.00
18030,-3.8711,0.2002,0.0610,-820.07,500.31,-609.31
18040,-3.8710,0.2373,0.0814,1633.06,-187.13,1312.56
18050,-3.8710,0.2871,0.0868,-1616.94,-1577.70,1734.50
18060,-3.8710,0.3444,0.0825,758.06,-890.08,1703.25
18070,-3.8710,0.4025,0.0790,86.18,-1436.83,-1843.63
18080,-3.8710,0.4493,0.0793,-476.32,-1889.89,-1546.75
18090,-3.8710,0.4766,0.0830,1523.68,-1842.90,1984.50
18100,-3.8710,0.4874,0.0913,1008.06,-1374.08,1328.25
18110,-3.8710,0.4834,0.1104,-1601.32,-311.58,1562.62
18120,-3.8710,0.4603,0.1449,1883.06,-1874.08,-843.57
18130,-3.8708,0.4283,0.1794,-1070.07,-1452.27,1437.74
18140,-3.8708,0.4061,0.1846,-1163.82,-1030.46,-859.07
18150,-3.8708,0.3975,0.1570,-7.57,-374.27,-390.32
18160,-3.8708,0.4004,0.1222,-1116.94,94.48,-952.82
18170,-3.8708,0.4171,0.1006,-741.94,-358.64,-1921.69
18180,-3.8708,0.4390,0.0978,1398.68,875.79,1547.06
18190,-3.8708,0.4519,0.1141,195.56,516.48,-1781.07
18200,-3.8707,0.4464,0.1498,1851.81,-1389.77,156.43
18210,-3.8707,0.4193,0.2034,1148.68,-827.27,-1234.13
18220,-3.8706,0.3795,0.2668,1679.93,-1967.96,1469.12
18230,-3.8705,0.3436,0.3247,586.18,-1843.02,828.61
18240,-3.8704,0.3242,0.3615,-7.57,1563.11,1281.86
18250,-3.8702,0.3262,0.3732,1508.06,-1733.76,1156.92
18260,-3.8702,0.3413,0.3707,1758.06,-233.76,-733.70
18270,-3.8701,0.3517,0.3683,-304.44,-546.26,63.17
18280,-3.8702,0.3536,0.3721,1023.68,-858.70,-358.70
18290,-3.8702,0.3521,0.3829,1273.68,-374.33,-1249.33
18300,-3.8702,0.3409,0.4015,1070.56,1016.30,-1858.64
18310,-3.8702,0.3182,0.4283,-351.32,-608.76,1860.11
18320,-3.8702,0.2953,0.4606,742.43,-1171.26,-1686.71
18330,-3.8702,0.2804,0.4874,1804.93,-1046.33,-358.52
18340,-3.8701,0.2751,0.4932,-101.32,-1608.89,1125.92
18350,-3.8701,0.2721,0.4741,-773.19,-874.51,1297.79
18360,-3.8702,0.2560,0.4431,-1163.82,687.99,-249.08
18370,-3.8702,0.2224,0.4189,773.68,719.24,1641.48
18380,-3.8702,0.1796,0.4158,476.81,1625.43,469.54
18390,-3.8702,0.1409,0.4313,-1007.57,1219.06,532.04
18400,-3.8702,0.1144,0.4539,-1960.69,-796.63,1047.67
18410,-3.8702,0.0983,0.4792,-1351.32,-1906.07,-1889.77
18420,-3.8702,0.0895,0.5043,586.18,1343.93,-14.71
18430,-3.8701,0.0884,0.5156,-538.82,547.00,-1983.40
18440,-3.8701,0.0961,0.5021,-679.44,-1999.88,-749.02
18450,-3.8701,0.1069,0.4725,304.93,265.81,-717.77
18460,-3.8701,0.1107,0.4478,1695.56,484.56,-905.33
18470,-3.8701,0.1042,0.4387,-1820.07,1312.68,-858.52
18480,-3.8701,0.0978,0.4435,1351.81,156.43,-1061.65
18490,-3.8701,0.1028,0.4513,523.68,765.81,-1561.65
18500,-3.8701,0.1207,0.4578,1164.31,1765.81,1860.23
18510,-3.8701,0.1487,0.4716,-538.82,-1406.07,1188.35
18520,-3.8701,0.1832,0.4926,-960.69,359.62,375.92
18530,-3.8701,0.2081,0.5059,-538.82,-952.82,344.67
18540,-3.8701,0.2036,0.4980,-1351.32,750.37,1547.85
18550,-3.8701,0.1680,0.4691,-1929.44,-249.63,-639.71
18560,-3.8700,0.1190,0.4401,1508.06,47.18,1375.92
18570,-3.8700,0.0770,0.4314,-757.57,328.31,-967.90
18580,-3.8699,0.0519,0.4423,1867.43,-781.13,78.92
18590,-3.8699,0.0437,0.4646,-1351.32,609.44,672.73
18600,-3.8699,0.0447,0.4939,1601.81,-531.19,1219.60
18610,-3.8699,0.0480,0.5254,1726.81,-781.19,1438.42
18620,-3.8699,0.0527,0.5507,-1851.32,-749.94,938.48
18630,-3.8700,0.0580,0.5619,-1241.94,-1515.56,-45.84
18640,-3.8700,0.0602,0.5519,-570.07,-78.06,-1483.34
18650,-3.8700,0.0508,0.5277,-288.82,-1359.31,485.41
18660,-3.8701,0.0204,0.5105,-1491.94,-453.06,-1811.52
18670,-3.8701,-0.0283,0.5087,-1382.57,1343.75,250.98
18680,-3.8702,-0.0776,0.5126,383.06,1124.94,-1342.77
18690,-3.8702,-0.1128,0.5077,-1929.44,1624.82,657.23
18700,-3.8704,-0.1311,0.4886,1570.56,999.76,-1920.90
18710,-3.8705,-0.1354,0.4633,-773.19,-1437.81,-1108.46
18720,-3.8706,-0.1317,0.4359,-1320.07,-687.81,-1467.90
18730,-3.8707,-0.1248,0.4095,-851.32,-187.81,1703.92
18740,-3.8708,-0.1178,0.3921,39.31,437.26,1672.67
18750,-3.8710,-0.1095,0.3862,929.93,-1797.12,-1702.39
18760,-3.8711,-0.0967,0.3862,1992.43,1452.88,-952.39
18770,-3.8712,-0.0829,0.3838,-366.94,1452.88,-186.77
18780,-3.8712,-0.0741,0.3760,1398.68,1140.44,641.36
18790,-3.8713,-0.0697,0.3647,-1476.32,140.44,1797.61
18800,-3.8715,-0.0658,0.3496,-913.82,-1297.06,-468.08
18810,-3.8715,-0.0582,0.3312,-413.82,765.44,1610.05
18820,-3.8716,-0.0471,0.3171,554.93,-1593.87,-499.39
18830,-3.8716,-0.0415,0.3138,1976.81,609.25,1844.36
18840,-3.8716,-0.0452,0.3123,-1304.44,187.38,1094.36
18850,-3.8716,-0.0464,0.2947,-1773.19,-15.75,94.30
18860,-3.8717,-0.0375,0.2559,-1929.44,1734.25,1953.67
18870,-3.8718,-0.0259,0.2102,-788.82,765.50,-827.64
18880,-3.8718,-0.0215,0.1742,695.56,-1078.19,562.87
18890,-3.8719,-0.0219,0.1537,1258.06,-1687.56,-1546.57
18900,-3.8719,-0.0187,0.1433,1211.18,-312.56,547.12
18910,-3.8721,-0.0098,0.1357,1617.43,-1640.69,-1093.51
18920,-3.8721,-0.0020,0.1292,-1241.94,1390.56,1968.99
18930,-3.8721,-0.0031,0.1243,-241.94,546.81,1281.49
18940,-3.8721,-0.0112,0.1221,-382.57,-78.19,437.68
18950,-3.8722,-0.0182,0.1211,-1429.44,-359.44,-452.94
18960,-3.8722,-0.0225,0.1165,1679.93,-484.44,-1390.44
18970,-3.8722,-0.0277,0.1047,1133.06,-1078.19,1390.81
18980,-3.8723,-0.0343,0.0867,461.18,1421.81,-296.69
18990,-3.8723,-0.0422,0.0663,-382.57,-890.75,1797.00
19000,-3.8723,-0.0502,0.0470,-1398.19,499.88,78.25
19010,-3.8724,-0.0537,0.0291,1586.18,-1968.87,-578.06
19020,-3.8723,-0.0505,0.0111,1133.06,-265.75,218.75
19030,-3.8723,-0.0385,-0.0087,1539.31,1437.38,1625.00
19040,-3.8723,-0.0143,-0.0286,-913.82,-1093.87,-500.06
19050,-3.8722,0.0157,-0.0466,-1820.07,359.31,1640.56
19060,-3.8722,0.0417,-0.0649,-1976.32,-1968.75,-625.12
19070,-3.8721,0.0624,-0.0806,1351.81,-312.44,593.57
19080,-3.8721,0.0780,-0.0939,-7.57,1687.56,1296.69
19090,-3.8721,0.0847,-0.1125,1992.43,-15.50,1374.76
19100,-3.8721,0.0784,-0.1383,-1148.19,1593.87,906.01
19110,-3.8721,0.0593,-0.1647,-1960.69,-1703.00,234.07
19120,-3.8722,0.0337,-0.1829,-398.19,-1078.06,-156.62
19130,-3.8722,0.0104,-0.1898,320.56,593.81,-312.87
19140,-3.8722,-0.0043,-0.1937,1336.18,-296.88,-687.93
19150,-3.8722,-0.0090,-0.1998,-538.82,-781.31,-1484.80
19160,-3.8722,-0.0032,-0.2019,-1148.19,-1562.56,1499.57
19170,-3.8722,0.0117,-0.1942,-398.19,-1828.19,874.57
19180,-3.8722,0.0272,-0.1790,1508.06,-859.38,749.57
19190,-3.8722,0.0415,-0.1620,-507.57,1093.75,1062.13
19200,-3.8722,0.0647,-0.1473,1320.56,-734.31,1530.88
19210,-3.8722,0.0964,-0.1387,289.31,1140.75,1734.07
19220,-3.8722,0.1208,-0.1411,351.81,-1749.82,1968.44
19230,-3.8722,0.1244,-0.1565,-523.19,1937.68,-1719.06
19240,-3.8722,0.1111,-0.1790,-70.07,-31.07,-1344.12
19250,-3.8722,0.0958,-0.1996,-1773.19,1093.93,-703.49
19260,-3.8722,0.0896,-0.2141,273.68,-1546.69,-109.80
19270,-3.8721,0.0983,-0.2211,-523.19,593.87,77.70
19280,-3.8721,0.1238,-0.2170,586.18,-296.69,202.64
19290,-3.8721,0.1635,-0.2000,-148.19,218.93,999.57
19300,-3.8721,0.2172,-0.1731,929.93,-1593.44,-1500.43
19310,-3.8719,0.2839,-0.1478,-195.07,1844.12,93.38
19320,-3.8719,0.3496,-0.1372,351.81,1078.67,1234.07
19330,-3.8719,0.3927,-0.1490,758.06,-1561.83,1765.32
19340,-3.8719,0.4003,-0.1774,-1726.32,922.61,1812.19
19350,-3.8719,0.3715,-0.2068,-757.57,1297.61,1093.38
19360,-3.8721,0.3157,-0.2279,-445.07,1531.92,-687.93
19370,-3.8721,0.2529,-0.2360,414.31,-1171.26,1577.64
19380,-3.8721,0.1987,-0.2297,383.06,1797.36,1140.14
19390,-3.8721,0.1611,-0.2148,1445.56,-1405.88,1671.39
19400,-3.8721,0.1442,-0.1978,633.06,500.31,-1766.05
19410,-3.8721,0.1428,-0.1836,-1538.82,-1312.26,-1406.68
19420,-3.8721,0.1464,-0.1818,-1710.69,500.24,-1062.87
19430,-3.8721,0.1504,-0.1917,-1257.57,734.62,-265.99
19440,-3.8719,0.1534,-0.1978,-741.94,-531.01,1015.20
19450,-3.8719,0.1553,-0.1898,-351.32,-1312.26,-1516.05
19460,-3.8719,0.1587,-0.1704,-116.94,-296.63,-234.80
19470,-3.8718,0.1663,-0.1478,320.56,-1812.19,280.88
19480,-3.8718,0.1823,-0.1357,1289.31,1078.43,93.44
19490,-3.8719,0.2045,-0.1447,-663.82,-1374.69,-328.43
19500,-3.8719,0.2224,-0.1669,-1820.07,1484.74,-906.56
19510,-3.8719,0.2327,-0.1886,476.81,-1358.95,-1515.99
19520,-3.8719,0.2374,-0.2065,1789.31,-140.20,-1969.18
19530,-3.8719,0.2423,-0.2170,-1601.32,1562.93,1937.07
19540,-3.8719,0.2604,-0.2148,-976.32,219.18,-1812.93
19550,-3.8719,0.2959,-0.2020,1336.18,500.49,-1172.30
19560,-3.8718,0.3324,-0.1847,1883.06,-1858.83,296.45
19570,-3.8718,0.3513,-0.1646,-1445.07,359.99,-1140.99
19580,-3.8717,0.3448,-0.1348,976.81,-1061.83,-1453.49
19590,-3.8716,0.3154,-0.0935,148.68,-1249.33,-1078.43
19600,-3.8715,0.2815,-0.0465,383.06,31.86,-359.56
19610,-3.8713,0.2664,-0.0044,39.31,-1952.58,-172.00
19620,-3.8712,0.2770,0.0184,-1898.19,-562.01,-1984.44
19630,-3.8712,0.3074,0.0206,-538.82,-1640.14,1781.25
19640,-3.8713,0.3468,0.0116,-648.19,-1358.83,-125.00
19650,-3.8713,0.3813,0.0027,398.68,1485.05,1828.12
19660,-3.8713,0.3960,0.0074,820.56,344.48,843.75
19670,-3.8713,0.3895,0.0308,-1304.44,953.86,1234.38
19680,-3.8713,0.3735,0.0652,1867.43,-61.77,-1421.88
19690,-3.8713,0.3586,0.0950,-179.44,344.42,-109.25
19700,-3.8712,0.3495,0.1084,1914.31,156.92,312.68
19710,-3.8713,0.3464,0.1123,742.43,1875.67,-452.94
19720,-3.8713,0.3406,0.1174,351.81,-1624.33,1750.18
19730,-3.8715,0.3274,0.1240,-398.19,-968.14,-187.32
19740,-3.8715,0.3162,0.1248,1914.31,-124.39,-1515.44
19750,-3.8715,0.3141,0.1113,476.81,-30.64,1812.68
19760,-3.8715,0.3258,0.0919,211.18,-1749.39,1625.18
19770,-3.8715,0.3536,0.0854,1711.18,-233.76,-1921.75
19780,-3.8715,0.3866,0.0983,1273.68,-1061.83,-999.88
19790,-3.8713,0.4071,0.1189,1492.43,578.86,140.81
19800,-3.8713,0.4022,0.1348,117.43,-780.46,-1812.32
19810,-3.8712,0.3719,0.1459,-507.57,1250.73,1593.99
19820,-3.8711,0.3303,0.1542,-382.57,-1327.45,1765.87
19830,-3.8710,0.2931,0.1613,-1710.69,-265.01,-1812.26
19840,-3.8708,0.2744,0.1738,1523.68,641.17,-984.07
19850,-3.8707,0.2808,0.1919,-866.94,-1749.51,-296.57
19860,-3.8706,0.3033,0.2092,-54.44,562.99,-499.63
19870,-3.8705,0.3335,0.2294,-1163.82,-1218.20,-1343.38
19880,-3.8704,0.3684,0.2601,-1304.44,1359.99,1453.55
19890,-3.8702,0.4021,0.3015,-835.69,1297.55,500.49
19900,-3.8701,0.4205,0.3470,-523.19,-1405.52,188.05
19910,-3.8701,0.4121,0.3876,1836.18,422.67,-30.58
19920,-3.8700,0.3770,0.4082,758.06,1610.17,-1030.52
19930,-3.8699,0.3253,0.3932,258.06,250.73,110.17
19940,-3.8700,0.2755,0.3451,1648.68,-1671.26,-1452.39
19950,-3.8701,0.2438,0.2871,-726.32,172.36,-1218.08
19960,-3.8702,0.2299,0.2446,-788.82,750.43,-1890.08
19970,-3.8704,0.2223,0.2323,1429.93,-687.07,-1890.20
19980,-3.8705,0.2131,0.2468,461.18,1734.80,-546.45
19990,-3.8705,0.2013,0.2703,-710.69,-405.88,1812.93
20000,-3.8705,0.1886,0.2952,1773.68,-1405.88,1344.24
20010,-3.8705,0.1796,0.3247,148.68,1781.62,-1968.20
20020,-3.8705,0.1819,0.3557,-1007.57,1562.81,-749.39
20030,-3.8704,0.1975,0.3813,-710.69,1531.56,344.42
20040,-3.8704,0.2191,0.3932,1289.31,812.87,1110.11
20050,-3.8704,0.2334,0.3866,54.93,-1671.45,1703.86
20060,-3.8704,0.2251,0.3673,1883.06,1484.80,1813.23
20070,-3.8704,0.1904,0.3468,820.56,-983.95,1016.30
20080,-3.8705,0.1409,0.3309,383.06,390.99,-624.33
20090,-3.8705,0.0933,0.3207,-1960.69,-1640.38,1313.11
20100,-3.8706,0.0625,0.3137,-54.44,1047.00,-218.14
20110,-3.8706,0.0570,0.3075,8.06,156.37,-749.39
20120,-3.8706,0.0741,0.3041,-695.07,-640.56,-874.45
20130,-3.8706,0.0967,0.3076,1492.43,-1078.00,-1249.45
20140,-3.8706,0.1071,0.3224,383.06,-624.82,-1358.83
20150,-3.8706,0.1119,0.3473,1711.18,1265.81,-499.39
20160,-3.8705,0.1288,0.3683,-1663.82,453.31,750.67
20170,-3.8705,0.1581,0.3743,492.43,-859.13,1563.17
20180,-3.8705,0.1864,0.3695,242.43,-93.44,1766.30
20190,-3.8705,0.1998,0.3630,-132.57,-702.82,1828.80
20200,-3.8705,0.1942,0.3582,1586.18,-1530.88,1906.92
20210,-3.8705,0.1729,0.3527,867.43,1844.12,1906.92
20220,-3.8705,0.1415,0.3483,-1866.94,1140.93,1906.92
20230,-3.8705,0.1075,0.3502,-1882.57,578.37,-1936.83
20240,-3.8705,0.0786,0.3579,1773.68,828.31,-1749.33
20250,-3.8705,0.0619,0.3685,-1929.44,1812.62,-1718.08
20260,-3.8705,0.0626,0.3815,-70.07,-828.06,-1468.08
20270,-3.8705,0.0831,0.3916,23.68,828.25,-874.27
20280,-3.8705,0.1156,0.3905,-1351.32,-1874.88,-843.02
20290,-3.8705,0.1415,0.3751,-1195.07,1984.56,-1983.64
20300,-3.8705,0.1475,0.3562,-1882.57,15.87,375.73
20310,-3.8706,0.1310,0.3458,-1116.94,1593.99,-936.83
20320,-3.8706,0.0989,0.3418,773.68,265.87,1969.42
20330,-3.8706,0.0626,0.3354,664.31,-249.82,813.11
20340,-3.8707,0.0283,0.3241,23.68,-1062.38,-452.51
20350,-3.8707,-0.0028,0.3118,-366.94,1484.38,-1811.89
20360,-3.8707,-0.0293,0.3025,-351.32,-78.19,750.55
20370,-3.8708,-0.0475,0.2942,258.06,-1265.69,-686.95
20380,-3.8708,-0.0548,0.2843,1929.93,1671.75,-1890.08
20390,-3.8708,-0.0503,0.2775,992.43,406.13,1094.30
20400,-3.8708,-0.0382,0.2770,1570.56,-468.87,78.61
20410,-3.8710,-0.0229,0.2825,-882.57,-531.37,-608.89
20420,-3.8710,-0.0076,0.2970,1070.56,171.81,-327.58
20430,-3.8708,0.0013,0.3153,-960.69,-1968.81,750.55
20440,-3.8708,0.0049,0.3245,179.93,359.38,1469.36
20450,-3.8708,0.0104,0.3250,633.06,1531.25,1563.11
20460,-3.8708,0.0144,0.3270,1336.18,1593.75,1484.99
20470,-3.8708,0.0107,0.3313,1851.81,1859.38,1516.24
20480,-3.8708,0.0002,0.3326,1383.06,-1593.75,1672.49
20490,-3.8708,-0.0143,0.3254,39.31,-1421.88,1781.86
20500,-3.8708,-0.0295,0.3086,-1820.07,1671.81,1719.36
20510,-3.8708,-0.0378,0.2875,226.81,-484.44,906.80
20520,-3.8710,-0.0331,0.2659,-835.69,812.38,-733.83
20530,-3.8710,-0.0166,0.2515,-226.32,-1953.25,1453.61
20540,-3.8710,0.0067,0.2533,1883.06,203.06,62.99
20550,-3.8711,0.0336,0.2637,867.43,421.88,-562.01
20560,-3.8711,0.0577,0.2659,304.93,1750.06,-796.39
20570,-3.8711,0.0746,0.2585,-601.32,-1968.69,-1093.26
20580,-3.8711,0.0834,0.2511,1554.93,1093.87,-1733.89
20590,-3.8711,0.0813,0.2476,-1320.07,140.75,1547.36
20600,-3.8711,0.0653,0.2490,-1585.69,-312.38,937.93
20610,-3.8711,0.0374,0.2520,367.43,-124.88,219.18
20620,-3.8712,0.0050,0.2498,789.31,250.06,-874.51
20630,-3.8712,-0.0248,0.2411,648.68,-31.25,1578.55
20640,-3.8713,-0.0469,0.2281,836.18,-1125.06,-280.82
20650,-3.8713,-0.0577,0.2151,-1991.94,1218.63,1594.18
20660,-3.8715,-0.0562,0.2050,617.43,-453.25,-796.51
20670,-3.8715,-0.0428,0.1982,820.56,-1750.12,797.24
20680,-3.8716,-0.0248,0.1987,-1476.32,1390.50,-1140.26
20690,-3.8716,-0.0133,0.2050,836.18,1453.06,1609.74
20700,-3.8716,-0.0133,0.2069,-1695.07,-1750.06,734.74
20710,-3.8716,-0.0187,0.1963,-1695.07,-1500.06,15.99
20720,-3.8717,-0.0244,0.1732,1617.43,1140.56,-780.88
20730,-3.8717,-0.0273,0.1423,883.06,-1812.56,-1937.19
20740,-3.8717,-0.0245,0.1091,508.06,-1765.69,578.37
20750,-3.8718,-0.0236,0.0808,867.43,1984.31,-874.82
20760,-3.8718,-0.0339,0.0598,992.43,-1640.69,-1578.00
20770,-3.8718,-0.0541,0.0433,-335.69,-328.25,-1890.56
20780,-3.8718,-0.0764,0.0291,1086.18,1562.38,1546.94
20790,-3.8718,-0.0930,0.0151,-1773.19,-265.81,843.75
20800,-3.8718,-0.1023,0.0024,101.81,1952.94,125.00
20810,-3.8719,-0.1075,-0.0062,-1085.69,327.88,-531.25
20820,-3.8719,-0.1118,-0.0127,-1757.57,-781.49,-984.44
20830,-3.8719,-0.1166,-0.0205,1695.56,-1609.62,-1468.81
20840,-3.8719,-0.1195,-0.0278,1086.18,1390.38,1890.56
20850,-3.8719,-0.1151,-0.0311,711.18,452.88,1312.44
20860,-3.8719,-0.1025,-0.0284,1273.68,31.01,1078.06
20870,-3.8719,-0.0870,-0.0222,-1116.94,374.76,968.69
20880,-3.8719,-0.0741,-0.0154,867.43,1171.69,515.56
20890,-3.8721,-0.0675,-0.0126,-1476.32,-1953.31,-296.94
20900,-3.8721,-0.0659,-0.0181,-632.57,-1593.93,-1562.56
20910,-3.8721,-0.0647,-0.0327,-429.44,1702.94,687.44
20920,-3.8722,-0.0573,-0.0533,-273.19,-172.06,-1062.62
20930,-3.8722,-0.0443,-0.0723,679.93,1187.38,-1953.25
20940,-3.8722,-0.0339,-0.0800,-1663.82,-1234.50,-1953.31
20950,-3.8722,-0.0280,-0.0762,-335.69,1781.13,-1718.93
20960,-3.8722,-0.0211,-0.0712,429.93,-1734.44,-1500.18
20970,-3.8722,-0.0125,-0.0693,1304.93,-1093.81,-1250.18
20980,-3.8722,-0.0059,-0.0676,-1585.69,-859.44,-1000.18
20990,-3.8722,0.0010,-0.0668,-741.94,-640.69,-1234.56
21000,-3.8722,0.0151,-0.0751,133.06,-546.88,1890.44
21010,-3.8722,0.0361,-0.0933,1945.56,-1609.38,937.32
21020,-3.8722,0.0586,-0.1117,633.06,62.56,171.69
21030,-3.8723,0.0828,-0.1239,-491.94,1703.19,-672.12
21040,-3.8723,0.1085,-0.1302,-1398.19,140.75,-1812.74
21050,-3.8723,0.1316,-0.1328,1898.68,-671.69,1202.82
21060,-3.8723,0.1487,-0.1348,851.81,-999.76,530.94
21070,-3.8724,0.1614,-0.1356,-960.69,-1249.76,-234.68
21080,-3.8724,0.1731,-0.1301,664.31,-1359.07,-1078.43
21090,-3.8724,0.1830,-0.1165,-1835.69,-655.94,-1297.18
21100,-3.8724,0.1890,-0.0994,-570.07,1094.06,-453.37
21110,-3.8723,0.1965,-0.0863,195.56,-718.38,1046.63
21120,-3.8723,0.2125,-0.0833,1164.31,953.49,-1672.06
21130,-3.8723,0.2347,-0.0909,-788.82,1344.12,-953.31
21140,-3.8723,0.2534,-0.1036,-1945.07,359.80,-250.18
21150,-3.8722,0.2545,-0.1149,445.56,-1265.14,968.51
21160,-3.8722,0.2329,-0.1179,586.18,1297.36,-1265.87
21170,-3.8721,0.1996,-0.1124,1820.56,906.68,1281.01
21180,-3.8719,0.1692,-0.1042,1554.93,1609.74,609.13
21190,-3.8719,0.1537,-0.0940,1664.31,-1343.44,-62.74
21200,-3.8718,0.1604,-0.0818,-320.07,-31.01,-1578.37
21210,-3.8717,0.1844,-0.0731,539.31,1531.56,15.44
21220,-3.8717,0.2124,-0.0730,-382.57,-1359.07,968.57
21230,-3.8717,0.2289,-0.0773,-804.44,-1343.38,1515.44
21240,-3.8717,0.2240,-0.0775,1304.93,-1890.20,-1859.56
21250,-3.8717,0.2017,-0.0768,679.93,-1921.45,-1328.31
21260,-3.8717,0.1738,-0.0757,1820.56,-1827.76,-1156.43
21270,-3.8717,0.1504,-0.0653,-1741.94,-1687.19,-968.93
21280,-3.8717,0.1387,-0.0470,-741.94,-359.13,-781.43
21290,-3.8717,0.1411,-0.0342,1758.06,1984.62,-1187.62
21300,-3.8717,0.1515,-0.0358,-1929.44,-374.76,1406.13
21310,-3.8718,0.1658,-0.0470,-601.32,-577.88,-843.87
21320,-3.8718,0.1947,-0.0620,1226.81,1984.68,390.50
21330,-3.8719,0.2487,-0.0797,929.93,62.87,-1859.50
21340,-3.8719,0.3256,-0.0918,-163.82,1797.30,1624.82
21350,-3.8719,0.4070,-0.0834,1679.93,250.61,-640.81
21360,-3.8718,0.4673,-0.0496,101.81,1328.92,-1390.81
21370,-3.8717,0.4918,0.0037,-179.44,1657.10,-1297.00
21380,-3.8716,0.4830,0.0686,-1038.82,469.67,-203.12
21390,-3.8713,0.4558,0.1354,1836.18,782.17,1984.50
21400,-3.8711,0.4244,0.1891,-1648.19,1328.98,375.24
21410,-3.8710,0.3979,0.2109,-1663.82,203.92,1687.87
21420,-3.8708,0.3840,0.1945,-1054.44,-999.27,640.99
21430,-3.8708,0.3856,0.1558,1164.31,891.36,469.12
21440,-3.8710,0.3997,0.1167,1367.43,-61.77,-1968.51
21450,-3.8711,0.4230,0.0883,-835.69,-1061.77,-781.07
21460,-3.8711,0.4592,0.0784,-1851.32,-702.33,1484.50
21470,-3.8711,0.5000,0.0865,-1210.69,-1967.90,562.62
21480,-3.8712,0.5199,0.1056,8.06,-920.90,-171.75
21490,-3.8712,0.4980,0.1339,-1445.07,1516.60,-406.07
21500,-3.8711,0.4397,0.1686,-241.94,1141.54,828.37
21510,-3.8711,0.3805,0.1927,289.31,1578.98,-827.82
21520,-3.8710,0.3536,0.1903,711.18,672.61,1547.24
21530,-3.8710,0.3646,0.1716,1273.68,360.05,-827.76
21540,-3.8710,0.4000,0.1576,-1320.07,1969.42,-171.57
21550,-3.8710,0.4376,0.1526,-788.82,172.61,-546.57
21560,-3.8710,0.4553,0.1519,23.68,-467.90,-1999.76
21570,-3.8710,0.4460,0.1517,-1710.69,-561.65,203.37
21580,-3.8711,0.4149,0.1495,1101.81,-577.27,-1374.76
21590,-3.8711,0.3801,0.1439,1117.43,-858.58,1234.62
21600,-3.8711,0.3606,0.1401,664.31,-1577.39,890.87
21610,-3.8711,0.3600,0.1503,-1835.69,1938.17,-1671.63
21620,-3.8710,0.3762,0.1750,-1913.82,-764.95,718.99
21630,-3.8710,0.4006,0.2076,164.31,-1593.02,-1046.57
21640,-3.8708,0.4197,0.2440,-710.69,-1421.14,812.87
21650,-3.8708,0.4282,0.2773,1726.81,-764.83,-1608.95
21660,-3.8708,0.4294,0.2948,-1179.44,-499.21,-562.01
21670,-3.8708,0.4299,0.2880,-1023.19,1735.17,-343.20
21680,-3.8708,0.4326,0.2672,-960.69,860.17,-827.58
21690,-3.8708,0.4336,0.2531,-616.94,-1796.08,-1499.51
21700,-3.8708,0.4321,0.2560,-491.94,391.42,-1624.51
21710,-3.8708,0.4285,0.2744,-679.44,766.42,-749.51
21720,-3.8707,0.4185,0.3024,-1148.19,-874.21,656.74
21730,-3.8707,0.4021,0.3309,1570.56,-1296.08,-1733.83
21740,-3.8706,0.3811,0.3546,-523.19,-1639.89,250.61
21750,-3.8706,0.3569,0.3722,789.31,1391.36,-1389.95
21760,-3.8705,0.3330,0.3831,1695.56,-358.70,875.67
21770,-3.8705,0.3146,0.3860,-1366.94,1031.86,-1936.77
21780,-3.8705,0.3062,0.3821,273.68,1406.86,-1889.89
21790,-3.8705,0.3051,0.3740,-804.44,906.80,1172.61
21800,-3.8706,0.3087,0.3635,-945.07,-124.45,-952.45
21810,-3.8706,0.3202,0.3534,-476.32,-1468.20,172.55
21820,-3.8707,0.3395,0.3492,992.43,1234.99,1297.55
21830,-3.8708,0.3618,0.3563,-538.82,703.74,-1327.45
21840,-3.8708,0.3809,0.3756,-1679.44,1610.05,469.42
21850,-3.8710,0.3896,0.3994,758.06,78.86,-1124.27
21860,-3.8710,0.3842,0.4136,1883.06,-874.27,1797.61
21870,-3.8710,0.3650,0.4081,1179.93,938.23,813.29
21880,-3.8711,0.3385,0.3822,-1273.19,235.05,-764.83
21890,-3.8711,0.3136,0.3433,-663.82,922.49,1266.36
21900,-3.8712,0.2942,0.3047,148.68,-61.89,-202.51
21910,-3.8712,0.2770,0.2799,1664.31,-999.45,-546.33
21920,-3.8711,0.2570,0.2767,-538.82,-171.39,172.36
21930,-3.8711,0.2352,0.2942,898.68,-577.64,1828.61
21940,-3.8710,0.2208,0.3258,-1882.57,1656.68,516.17
21950,-3.8710,0.2242,0.3650,273.68,1703.55,-202.51
21960,-3.8708,0.2529,0.4019,711.18,-1280.82,-1264.95
21970,-3.8707,0.2994,0.4318,383.06,-562.01,1344.48
21980,-3.8706,0.3461,0.4564,-1663.82,-733.83,47.67
21990,-3.8706,0.3839,0.4753,304.93,-1577.45,-1155.40
22000,-3.8705,0.4097,0.4882,1148.68,844.48,1954.04
22010,-3.8704,0.4142,0.4969,445.56,-1514.83,1047.79
22020,-3.8702,0.3900,0.5024,1023.68,-389.83,63.42
22030,-3.8702,0.3401,0.5073,1929.93,313.23,-1014.65
22040,-3.8701,0.2787,0.5172,-460.69,938.11,1579.10
22050,-3.8700,0.2208,0.5321,-320.07,-1796.39,94.73
22060,-3.8700,0.1727,0.5437,273.68,109.80,-1186.46
22070,-3.8699,0.1355,0.5430,-1882.57,1594.06,1016.66
22080,-3.8699,0.1082,0.5293,1351.81,1500.24,1813.54
22090,-3.8699,0.0859,0.5103,1851.81,-249.82,1266.60
22100,-3.8700,0.0649,0.4924,-991.94,1312.62,-139.65
22110,-3.8700,0.0515,0.4775,320.56,-968.63,1766.54
22120,-3.8701,0.0511,0.4657,-1398.19,1125.06,-1092.83
22130,-3.8702,0.0531,0.4568,-1445.07,-390.56,-811.65
22140,-3.8704,0.0455,0.4530,-1195.07,-1531.19,-1171.02
22150,-3.8705,0.0267,0.4557,1836.18,1984.44,-1592.90
22160,-3.8706,0.0006,0.4586,-570.07,-1671.88,-1624.15
22170,-3.8707,-0.0258,0.4539,86.18,-1296.88,-1499.15
22180,-3.8708,-0.0458,0.4447,711.18,-1890.69,-1358.52
22190,-3.8710,-0.0520,0.4437,-1851.32,937.38,-577.27
22200,-3.8710,-0.0400,0.4573,1351.81,812.38,1203.98
22210,-3.8710,-0.0098,0.4777,-1116.94,-1453.25,235.23
22220,-3.8710,0.0314,0.4922,-1241.94,1156.19,172.79
22230,-3.8710,0.0654,0.4904,23.68,-999.94,47.79
22240,-3.8711,0.0781,0.4666,383.06,-1234.25,-858.46
22250,-3.8711,0.0706,0.4269,-1991.94,-281.13,922.73
22260,-3.8712,0.0569,0.3861,1039.31,-1359.25,-1905.46
22270,-3.8713,0.0465,0.3577,-710.69,1421.94,-61.77
22280,-3.8713,0.0388,0.3439,1961.18,1781.31,-1061.83
22290,-3.8713,0.0314,0.3396,976.81,15.69,-1218.08
22300,-3.8713,0.0264,0.3407,23.68,-531.19,-905.64
22310,-3.8712,0.0259,0.3430,-616.94,-390.62,0.61
22320,-3.8712,0.0273,0.3433,-679.44,-93.75,1250.61
22330,-3.8712,0.0277,0.3373,-491.94,-62.50,-1483.76
22340,-3.8712,0.0259,0.3175,-445.07,-828.12,-999.39
22350,-3.8712,0.0250,0.2808,-679.44,640.62,1703.74
22360,-3.8713,0.0262,0.2347,-788.82,-62.50,-1015.14
22370,-3.8715,0.0248,0.1918,-632.57,-1953.12,-265.20
22380,-3.8715,0.0162,0.1600,-820.07,546.88,422.24
22390,-3.8716,0.0018,0.1396,-1913.82,484.38,1828.43
22400,-3.8716,-0.0156,0.1266,242.43,1875.00,218.99
22410,-3.8717,-0.0336,0.1189,-1991.94,218.69,-921.63
22420,-3.8717,-0.0477,0.1165,-288.82,-765.75,-1859.19
22430,-3.8717,-0.0559,0.1162,1898.68,-1078.25,1375.18
22440,-3.8717,-0.0557,0.1121,851.81,-1109.50,406.43
22450,-3.8718,-0.0482,0.0994,883.06,-1640.75,-1374.82
22460,-3.8719,-0.0356,0.0790,1836.18,734.25,-31.07
22470,-3.8719,-0.0173,0.0540,-554.44,-1875.12,937.62
22480,-3.8721,0.0024,0.0286,1789.31,-1078.19,1984.44
22490,-3.8722,0.0125,0.0077,320.56,-343.75,-546.88
22500,-3.8722,0.0051,-0.0055,1601.81,984.38,1531.25
22510,-3.8722,-0.0118,-0.0112,664.31,-703.12,453.06
22520,-3.8723,-0.0280,-0.0157,-1507.57,-1421.94,-125.06
22530,-3.8723,-0.0371,-0.0255,429.93,1999.94,-765.69
22540,-3.8723,-0.0388,-0.0398,-741.94,749.88,-1468.81
22550,-3.8723,-0.0365,-0.0577,-960.69,-1078.25,1984.25
22560,-3.8723,-0.0354,-0.0792,-663.82,624.88,1890.50
22570,-3.8723,-0.0403,-0.0990,-523.19,1874.88,1921.69
22580,-3.8723,-0.0474,-0.1136,-1148.19,-656.37,1609.13
22590,-3.8723,-0.0509,-0.1255,1945.56,1468.63,1359.13
22600,-3.8723,-0.0475,-0.1373,1492.43,-47.00,1546.57
22610,-3.8723,-0.0372,-0.1494,1929.93,-1562.62,1671.57
22620,-3.8723,-0.0236,-0.1598,-757.57,890.50,1421.57
22630,-3.8723,-0.0104,-0.1658,992.43,-437.56,1093.38
22640,-3.8723,-0.0020,-0.1646,-1320.07,-1203.19,999.63
22650,-3.8723,0.0010,-0.1572,-241.94,-1046.94,1499.63
22660,-3.8723,0.0006,-0.1504,133.06,-125.00,-1859.74
22670,-3.8723,0.0040,-0.1460,86.18,750.00,-1656.56
22680,-3.8723,0.0168,-0.1399,523.68,1312.50,-1687.81
22690,-3.8723,0.0366,-0.1344,-1835.69,-1906.25,-1484.68
22700,-3.8723,0.0612,-0.1382,695.56,-1203.06,-1250.31
22710,-3.8723,0.0925,-0.1505,-163.82,-1687.44,-875.31
22720,-3.8722,0.1232,-0.1621,-148.19,734.50,62.19
22730,-3.8722,0.1395,-0.1658,-226.32,-749.82,1343.38
22740,-3.8722,0.1400,-0.1616,1867.43,-1218.51,-1547.24
22750,-3.8722,0.1296,-0.1567,1929.93,-687.26,-640.99
22760,-3.8721,0.1161,-0.1544,601.81,-62.26,515.26
22770,-3.8721,0.1129,-0.1504,-1132.57,234.56,1890.32
22780,-3.8721,0.1262,-0.1432,-1538.82,750.18,-1172.18
22790,-3.8721,0.1506,-0.1412,164.31,1672.12,-1281.56
22800,-3.8721,0.1801,-0.1492,-710.69,1922.12,1890.32
22810,-3.8721,0.2072,-0.1605,-945.07,906.56,1343.44
22820,-3.8721,0.2227,-0.1661,-1476.32,-546.51,1390.26
22830,-3.8721,0.2236,-0.1647,508.06,-1265.20,1452.76
22840,-3.8721,0.2197,-0.1637,633.06,-1077.70,1327.76
22850,-3.8721,0.2264,-0.1615,133.06,-952.70,1265.26
22860,-3.8721,0.2504,-0.1499,992.43,-671.45,1296.51
22870,-3.8721,0.2826,-0.1342,54.93,812.99,1046.57
22880,-3.8721,0.3086,-0.1249,179.93,-1171.33,718.44
22890,-3.8721,0.3198,-0.1257,-491.94,16.17,968.51
22900,-3.8721,0.3157,-0.1315,945.56,-93.14,1796.57
22910,-3.8721,0.3009,-0.1324,414.31,-827.51,-1265.93
22920,-3.8721,0.2860,-0.1246,-1476.32,-952.58,-469.06
22930,-3.8719,0.2826,-0.1073,617.43,47.42,452.88
22940,-3.8719,0.2944,-0.0813,179.93,-1733.83,1812.26
22950,-3.8718,0.3165,-0.0548,1695.56,1594.30,93.57
22960,-3.8718,0.3411,-0.0424,523.68,984.99,-1140.75
22970,-3.8717,0.3633,-0.0496,-335.69,-1421.26,1421.75
22980,-3.8717,0.3756,-0.0675,-1491.94,1656.92,-437.62
22990,-3.8716,0.3689,-0.0836,86.18,-639.89,390.44
23000,-3.8717,0.3467,-0.0902,-773.19,1297.55,-234.56
23010,-3.8717,0.3177,-0.0856,383.06,453.80,-1343.93
23020,-3.8717,0.2844,-0.0712,679.93,1047.49,-1984.56
23030,-3.8717,0.2504,-0.0502,414.31,-1108.83,1906.07
23040,-3.8717,0.2260,-0.0227,54.93,1578.61,-1500.12
23050,-3.8717,0.2223,0.0076,929.93,1094.18,-296.94
23060,-3.8716,0.2415,0.0238,461.18,969.18,484.38
23070,-3.8716,0.2754,0.0150,-1085.69,-952.70,171.88
23080,-3.8717,0.3123,-0.0101,-741.94,1922.36,-593.75
23090,-3.8717,0.3402,-0.0347,-23.19,-1296.33,-968.81
23100,-3.8717,0.3523,-0.0519,-445.07,-436.89,-859.50
23110,-3.8717,0.3507,-0.0640,1101.81,1360.05,-406.37
23120,-3.8716,0.3402,-0.0681,898.68,-186.83,702.94
23130,-3.8716,0.3224,-0.0605,-445.07,-718.14,-1390.81
23140,-3.8715,0.3041,-0.0436,1273.68,250.61,609.25
23150,-3.8715,0.2990,-0.0198,-1070.07,-1577.58,-1828.25
23160,-3.8715,0.3163,0.0114,-1726.32,1469.30,-125.06
23170,-3.8713,0.3523,0.0458,492.43,1453.74,1953.12
