timestamp_ms,ax,ay,az,gx,gy,gz
0,-3.8719,0.4603,0.0875,-1445.07,1094.60,-1390.44
10,-3.8719,0.4741,0.0795,-1070.07,-796.02,484.50
20,-3.8721,0.4971,0.0803,695.56,-1827.21,-921.75
30,-3.8721,0.5275,0.0878,-366.94,-1717.83,-1421.75
40,-3.8721,0.5586,0.0990,-476.32,-764.65,-906.13
50,-3.8719,0.5865,0.1173,-491.94,672.91,593.93
60,-3.8719,0.6198,0.1443,-913.82,-983.28,-1327.94
70,-3.8718,0.6647,0.1729,-663.82,-1530.09,984.62
80,-3.8718,0.7134,0.1954,1086.18,-1873.72,-890.32
90,-3.8717,0.7627,0.2123,-679.44,1016.97,672.24
100,-3.8717,0.8114,0.2219,1633.06,-826.66,1672.24
110,-3.8717,0.8434,0.2185,-132.57,407.78,-1702.70
120,-3.8717,0.8434,0.2014,-38.82,-29.66,-1718.38
130,-3.8717,0.8168,0.1727,-38.82,1782.84,937.87
140,-3.8718,0.7820,0.1398,554.93,-1889.04,-1671.57
150,-3.8719,0.7517,0.1061,101.81,1892.15,-921.63
160,-3.8719,0.7281,0.0728,226.81,1579.59,109.56
170,-3.8721,0.7107,0.0483,1211.18,1313.90,-1828.00
180,-3.8721,0.6973,0.0371,-1023.19,-1811.16,1250.06
190,-3.8721,0.6846,0.0347,1258.06,751.34,1328.19
200,-3.8721,0.6744,0.0348,-366.94,438.78,-1656.19
210,-3.8721,0.6720,0.0315,-1663.82,454.41,-703.06
220,-3.8721,0.6775,0.0209,-1976.32,32.53,-921.81
230,-3.8721,0.6851,0.0054,-1273.19,-1326.84,1796.88
240,-3.8721,0.6885,-0.0115,-304.44,688.78,0.00
250,-3.8722,0.6846,-0.0299,133.06,-1467.41,-1750.06
260,-3.8722,0.6733,-0.0438,-366.94,173.16,1406.19
270,-3.8722,0.6556,-0.0449,-1804.44,-1608.09,1890.50
280,-3.8722,0.6305,-0.0359,-70.07,-1748.78,-640.75
290,-3.8721,0.5970,-0.0261,711.18,-592.53,1296.75
300,-3.8721,0.5610,-0.0198,429.93,657.41,-750.06
310,-3.8719,0.5292,-0.0167,-179.44,1469.79,921.81
320,-3.8719,0.5051,-0.0190,-257.57,1860.35,-1828.19
330,-3.8719,0.4915,-0.0288,664.31,1563.48,-1109.44
340,-3.8719,0.4860,-0.0431,-1085.69,313.42,-953.19
350,-3.8719,0.4836,-0.0542,-1788.82,-1514.71,-1343.87
360,-3.8719,0.4811,-0.0592,1914.31,1063.42,-1875.12
370,-3.8719,0.4777,-0.0598,1586.18,422.79,-1781.37
380,-3.8719,0.4755,-0.0558,1148.68,344.67,-875.12
390,-3.8718,0.4746,-0.0470,867.43,860.29,406.13
400,-3.8718,0.4758,-0.0305,758.06,1985.29,1937.38
410,-3.8718,0.4822,-0.0052,914.31,94.67,-437.56
420,-3.8717,0.4948,0.0221,1726.81,-670.96,1359.31
430,-3.8717,0.5125,0.0474,-663.82,-1170.96,-968.75
440,-3.8717,0.5361,0.0690,1601.81,-1936.52,-515.56
450,-3.8717,0.5647,0.0848,633.06,829.16,-1234.25
460,-3.8717,0.5906,0.0970,289.31,-1139.53,-1906.13
470,-3.8717,0.6060,0.1083,-398.19,422.97,-1921.69
480,-3.8717,0.6082,0.1211,1570.56,1860.53,-921.69
490,-3.8716,0.5958,0.1364,1851.81,-498.84,672.06
500,-3.8716,0.5680,0.1508,273.68,1454.28,-1702.88
510,-3.8716,0.5305,0.1633,711.18,-702.03,-124.76
520,-3.8715,0.4954,0.1760,-85.69,907.23,1094.06
530,-3.8715,0.4731,0.1852,-585.69,-1467.83,1656.56
540,-3.8715,0.4639,0.1882,570.56,-295.96,1859.68
550,-3.8715,0.4603,0.1887,-616.94,94.60,-1937.13
560,-3.8715,0.4596,0.1904,-1070.07,157.10,-1749.63
570,-3.8715,0.4581,0.1917,-1163.82,375.85,-1437.13
580,-3.8715,0.4498,0.1919,-1351.32,532.10,-968.38
590,-3.8715,0.4369,0.1947,1586.18,563.35,-546.51
600,-3.8713,0.4248,0.1979,-70.07,922.67,125.37
610,-3.8713,0.4139,0.2024,-1616.94,1328.92,1625.37
620,-3.8713,0.4015,0.2115,992.43,1907.04,-187.13
630,-3.8712,0.3867,0.2247,-601.32,-921.14,-1999.63
640,-3.8712,0.3728,0.2411,1508.06,766.36,-562.07
650,-3.8712,0.3650,0.2550,-273.19,-1139.95,-593.32
660,-3.8712,0.3690,0.2616,-1273.19,641.30,-1937.01
670,-3.8713,0.3895,0.2623,-757.57,1485.05,-437.01
680,-3.8715,0.4235,0.2603,1867.43,1578.86,-108.89
690,-3.8715,0.4613,0.2566,-1788.82,1313.29,0.49
700,-3.8716,0.4960,0.2555,-945.07,844.60,1016.11
710,-3.8717,0.5208,0.2573,-507.57,704.04,-749.51
720,-3.8717,0.5245,0.2593,-1335.69,938.48,-1374.51
730,-3.8717,0.5029,0.2621,-851.32,1188.48,-858.89
740,-3.8716,0.4641,0.2654,383.06,1547.85,500.49
750,-3.8716,0.4227,0.2708,-585.69,1969.60,-1702.64
760,-3.8715,0.3884,0.2816,-1882.57,-1342.96,406.74
770,-3.8715,0.3616,0.2983,1726.81,47.61,-1358.83
780,-3.8713,0.3425,0.3162,-1710.69,-1811.83,484.92
790,-3.8713,0.3374,0.3241,-148.19,469.36,1703.74
800,-3.8713,0.3445,0.3181,-804.44,1484.99,-1765.01
810,-3.8713,0.3534,0.3052,101.81,719.42,1797.49
820,-3.8713,0.3569,0.2915,1242.43,-936.83,1047.42
830,-3.8713,0.3481,0.2841,1695.56,1313.17,1234.92
840,-3.8713,0.3278,0.2864,570.56,360.05,-1968.20
850,-3.8713,0.3092,0.2942,1961.18,656.86,-1921.33
860,-3.8713,0.3003,0.2979,-413.82,1656.80,1281.80
870,-3.8713,0.2974,0.2916,-1554.44,-1874.45,406.80
880,-3.8715,0.3002,0.2815,-1929.44,1328.67,-15.08
890,-3.8713,0.3068,0.2791,-1570.07,31.80,250.55
900,-3.8713,0.3125,0.2909,-726.32,-280.70,937.99
910,-3.8713,0.3175,0.3087,8.06,1234.99,1500.55
920,-3.8713,0.3225,0.3201,648.68,-483.76,1469.30
930,-3.8713,0.3314,0.3199,1289.31,969.36,359.99
940,-3.8715,0.3480,0.3070,-1570.07,953.74,-1733.76
950,-3.8715,0.3696,0.2833,554.93,-702.45,750.55
960,-3.8715,0.3846,0.2644,-679.44,266.30,1672.42
970,-3.8713,0.3790,0.2651,1242.43,1844.48,625.49
980,-3.8712,0.3494,0.2809,523.68,1938.23,16.11
990,-3.8712,0.3092,0.2985,726.81,-46.20,-921.39
1000,-3.8711,0.2765,0.3062,-413.82,-1796.33,1672.42
1010,-3.8711,0.2595,0.3041,-601.32,-812.01,-421.33
1020,-3.8710,0.2628,0.3002,1226.81,-1077.64,469.30
1030,-3.8710,0.2842,0.2902,1648.68,-1577.64,703.67
1040,-3.8710,0.3120,0.2721,383.06,1141.17,750.55
1050,-3.8710,0.3373,0.2571,-54.44,-1171.33,78.61
1060,-3.8711,0.3579,0.2522,-820.07,906.86,-1890.14
1070,-3.8712,0.3743,0.2557,1820.56,281.92,-1062.01
1080,-3.8713,0.3862,0.2629,-85.69,735.05,-921.39
1090,-3.8715,0.3912,0.2737,1445.56,1656.98,-968.26
1100,-3.8716,0.3899,0.2885,-1913.82,-968.02,-968.26
1110,-3.8717,0.3854,0.3013,1914.31,922.61,-874.45
1120,-3.8718,0.3743,0.3057,1336.18,-1436.77,-155.70
1130,-3.8718,0.3516,0.3020,-85.69,-874.33,1828.67
1140,-3.8718,0.3267,0.2979,1008.06,-1343.08,953.67
1150,-3.8718,0.3157,0.2941,1820.56,-1874.39,703.67
1160,-3.8718,0.3126,0.2870,414.31,1641.24,563.05
1170,-3.8718,0.3013,0.2756,23.68,734.99,391.17
1180,-3.8718,0.2760,0.2571,-1429.44,-718.20,1344.24
1190,-3.8717,0.2366,0.2365,-663.82,906.74,531.74
1200,-3.8716,0.1930,0.2180,-1710.69,-1733.95,1109.80
1210,-3.8715,0.1580,0.1970,711.18,-93.38,1406.62
1220,-3.8713,0.1299,0.1716,226.81,1219.06,453.49
1230,-3.8713,0.1017,0.1461,633.06,1968.99,-1890.32
1240,-3.8713,0.0706,0.1252,1023.68,-1296.69,-999.76
1250,-3.8712,0.0354,0.1132,1039.31,31.37,468.99
1260,-3.8712,-0.0035,0.1084,539.31,-1515.56,-937.32
1270,-3.8711,-0.0386,0.1072,-445.07,1890.56,-1484.19
1280,-3.8710,-0.0618,0.1058,-929.44,1734.25,1937.68
1290,-3.8708,-0.0701,0.1033,101.81,1562.38,375.18
1300,-3.8708,-0.0598,0.1019,-960.69,1234.19,1547.06
1310,-3.8708,-0.0331,0.1012,351.81,1062.38,1625.18
1320,-3.8708,0.0000,0.1003,-226.32,968.63,1125.18
1330,-3.8708,0.0293,0.1010,8.06,843.75,531.43
1340,-3.8708,0.0493,0.1056,-241.94,921.88,265.81
1350,-3.8708,0.0605,0.1208,-1679.44,1515.69,562.68
1360,-3.8708,0.0675,0.1521,-241.94,-531.19,1781.43
1370,-3.8708,0.0735,0.1993,648.68,-531.13,-93.51
1380,-3.8707,0.0836,0.2511,1414.31,1515.75,1828.49
1390,-3.8707,0.1039,0.2913,-1288.82,140.75,-1233.89
1400,-3.8707,0.1364,0.3065,1304.93,1281.43,-1249.45
1410,-3.8707,0.1772,0.2916,1461.18,-765.38,1875.55
1420,-3.8708,0.2167,0.2576,-1304.44,1328.43,-327.58
1430,-3.8710,0.2449,0.2242,-257.57,969.12,-108.89
1440,-3.8711,0.2560,0.2030,-648.19,703.55,-640.20
1450,-3.8712,0.2506,0.1960,773.68,1984.86,-359.01
1460,-3.8712,0.2334,0.2028,86.18,1094.24,-1765.26
1470,-3.8712,0.2136,0.2205,1883.06,1953.55,-765.26
1480,-3.8711,0.2025,0.2356,-648.19,219.12,1328.55
1490,-3.8711,0.2064,0.2362,1929.93,-1843.38,-718.32
1500,-3.8710,0.2239,0.2281,-1570.07,-1765.26,547.30
1510,-3.8710,0.2472,0.2214,664.31,1203.55,812.93
1520,-3.8710,0.2664,0.2195,-351.32,344.18,47.30
1530,-3.8711,0.2770,0.2208,-1898.19,94.24,-1249.57
1540,-3.8711,0.2795,0.2284,-538.82,266.11,1891.05
1550,-3.8711,0.2750,0.2461,-210.69,1234.86,1734.80
1560,-3.8711,0.2716,0.2683,-788.82,-499.51,1656.68
1570,-3.8711,0.2771,0.2826,-1226.32,-1655.76,1125.49
1580,-3.8712,0.2905,0.2743,-523.19,172.36,-233.83
1590,-3.8712,0.3112,0.2493,1195.56,-890.08,1703.61
1600,-3.8713,0.3394,0.2295,-163.82,-93.20,-515.20
1610,-3.8713,0.3698,0.2205,-554.44,1375.61,875.43
1620,-3.8715,0.3976,0.2188,-663.82,219.42,1609.80
1630,-3.8716,0.4249,0.2202,-1101.32,0.73,-1921.45
1640,-3.8717,0.4545,0.2188,-1601.32,188.29,-1312.07
1650,-3.8718,0.4841,0.2115,-1820.07,0.85,-562.07
1660,-3.8718,0.5085,0.2015,1976.81,-920.96,578.49
1670,-3.8719,0.5227,0.1959,1101.81,1797.85,-968.38
1680,-3.8719,0.5239,0.2000,-1085.69,1079.10,-796.51
1690,-3.8718,0.5126,0.2104,-929.44,1594.73,656.62
1700,-3.8718,0.4907,0.2194,1617.43,-1061.52,-1249.63
1710,-3.8717,0.4624,0.2256,-1179.44,79.04,937.93
1720,-3.8717,0.4374,0.2322,-804.44,875.85,-1124.57
1730,-3.8716,0.4253,0.2351,-7.57,1719.54,234.80
1740,-3.8716,0.4255,0.2311,-1554.44,-1905.46,922.30
1750,-3.8716,0.4301,0.2207,-1523.19,1578.92,1172.30
1760,-3.8716,0.4308,0.2089,-945.07,250.79,1109.80
1770,-3.8716,0.4231,0.1996,-851.32,-1264.83,922.24
1780,-3.8716,0.4097,0.1929,-1835.69,1547.67,781.62
1790,-3.8716,0.3953,0.1881,445.56,688.29,797.24
1800,-3.8716,0.3798,0.1849,-1398.19,78.86,984.74
1810,-3.8716,0.3624,0.1824,617.43,-327.39,1422.18
1820,-3.8716,0.3495,0.1798,-1601.32,-655.58,-1562.19
1830,-3.8715,0.3428,0.1770,742.43,-983.70,0.31
1840,-3.8715,0.3384,0.1738,-116.94,-1343.14,1469.06
1850,-3.8715,0.3394,0.1698,-679.44,-1749.39,-1546.57
1860,-3.8715,0.3474,0.1620,-554.44,1734.99,-1109.07
1870,-3.8715,0.3586,0.1539,476.81,735.05,-1249.69
1880,-3.8715,0.3743,0.1517,1914.31,-296.20,-1624.76
1890,-3.8715,0.3931,0.1550,-85.69,-577.45,-1749.76
1900,-3.8715,0.4097,0.1626,-1679.44,-155.52,-1249.76
1910,-3.8715,0.4224,0.1714,445.56,813.29,-1140.32
1920,-3.8715,0.4329,0.1780,-1929.44,1938.29,1703.43
1930,-3.8715,0.4453,0.1865,-585.69,-1217.96,125.31
1940,-3.8716,0.4575,0.2019,1008.06,-124.15,-218.44
1950,-3.8715,0.4663,0.2250,-1429.44,1844.60,1640.99
1960,-3.8713,0.4736,0.2502,-304.44,797.73,656.68
1970,-3.8713,0.4822,0.2690,633.06,32.17,-765.14
1980,-3.8712,0.4960,0.2764,1726.81,-1561.58,781.74
1990,-3.8712,0.5157,0.2726,-507.57,-624.08,1219.24
2000,-3.8712,0.5342,0.2555,-1976.32,-1108.40,391.11
2010,-3.8713,0.5472,0.2281,383.06,704.16,-1843.26
2020,-3.8715,0.5599,0.1991,-1945.07,1204.16,-1343.32
2030,-3.8716,0.5719,0.1725,-320.07,1485.41,-1452.76
2040,-3.8717,0.5807,0.1525,1211.18,-1920.78,-1562.19
2050,-3.8718,0.5890,0.1373,-1663.82,-483.28,-671.63
2060,-3.8718,0.5953,0.1239,-601.32,1579.22,1609.62
2070,-3.8718,0.5977,0.1150,211.18,-139.47,484.56
2080,-3.8718,0.5936,0.1090,508.06,-1280.09,0.18
2090,-3.8718,0.5841,0.1082,-7.57,1954.22,750.18
2100,-3.8718,0.5754,0.1163,-1226.32,1844.85,-1906.07
2110,-3.8718,0.5740,0.1273,1664.31,-1108.28,-734.19
2120,-3.8717,0.5781,0.1332,1476.81,297.97,468.99
2130,-3.8717,0.5797,0.1334,-1991.94,1047.97,1828.37
2140,-3.8717,0.5742,0.1302,-1788.82,1079.22,-1390.38
2150,-3.8717,0.5636,0.1191,1508.06,672.97,-1843.51
2160,-3.8717,0.5482,0.0955,148.68,-748.90,968.93
2170,-3.8718,0.5286,0.0648,-1820.07,219.79,-593.57
2180,-3.8718,0.5062,0.0385,-335.69,297.85,1218.87
2190,-3.8719,0.4840,0.0266,804.93,922.85,-1015.56
2200,-3.8719,0.4670,0.0256,1961.18,-592.83,1859.38
2210,-3.8719,0.4554,0.0256,-210.69,-717.90,1968.75
2220,-3.8719,0.4503,0.0267,-1695.07,-717.90,1906.25
2230,-3.8719,0.4574,0.0292,1648.68,-577.27,765.62
2240,-3.8721,0.4763,0.0315,-1445.07,-264.77,-312.50
2250,-3.8721,0.5048,0.0436,976.81,32.17,-312.44
2260,-3.8719,0.5400,0.0732,617.43,1579.10,921.94
2270,-3.8718,0.5732,0.1139,1133.06,1376.04,15.75
2280,-3.8717,0.5990,0.1556,1383.06,-1420.78,406.43
2290,-3.8716,0.6226,0.1857,679.93,-76.97,359.62
2300,-3.8716,0.6460,0.1941,-304.44,-233.22,-1093.44
2310,-3.8716,0.6685,0.1842,-1304.44,844.97,-249.63
2320,-3.8716,0.6929,0.1682,1570.56,-420.59,-749.69
2330,-3.8716,0.7179,0.1562,695.56,1532.59,-1734.07
2340,-3.8716,0.7375,0.1510,-101.32,1.34,1453.43
2350,-3.8716,0.7466,0.1471,-1585.69,-670.47,1047.12
2360,-3.8716,0.7411,0.1376,-429.44,-1170.47,750.24
2370,-3.8717,0.7238,0.1234,-1132.57,1610.78,-156.01
2380,-3.8717,0.7054,0.1099,648.68,-201.72,-1702.94
2390,-3.8717,0.6952,0.0983,-1695.07,-1936.16,656.43
2400,-3.8718,0.6918,0.0873,992.43,579.47,-734.19
2410,-3.8718,0.6904,0.0787,554.93,-826.78,-1781.13
2420,-3.8718,0.6869,0.0725,383.06,-1920.53,1484.50
2430,-3.8718,0.6781,0.0640,-70.07,1282.53,734.50
2440,-3.8719,0.6639,0.0505,-1195.07,188.78,-171.75
2450,-3.8719,0.6466,0.0391,992.43,-1529.97,-703.06
2460,-3.8719,0.6245,0.0343,-1226.32,1001.22,-374.94
2470,-3.8718,0.5956,0.0332,-54.44,391.78,578.19
2480,-3.8718,0.5607,0.0347,242.43,251.16,1890.69
2490,-3.8718,0.5234,0.0383,-226.32,438.54,-515.56
2500,-3.8717,0.4899,0.0415,-991.94,907.23,921.94
2510,-3.8717,0.4644,0.0411,-1288.82,1313.42,1859.44
2520,-3.8717,0.4476,0.0392,-554.44,1266.48,-1687.44
2530,-3.8717,0.4380,0.0405,1304.93,1016.48,-1749.94
2540,-3.8717,0.4373,0.0479,70.56,1188.35,1640.69
2550,-3.8717,0.4476,0.0588,-23.19,-1874.21,968.81
2560,-3.8717,0.4662,0.0710,1304.93,-467.90,828.19
2570,-3.8717,0.4899,0.0830,-320.07,1094.60,1000.12
2580,-3.8717,0.5164,0.0916,-1288.82,-1374.08,593.87
2590,-3.8718,0.5377,0.0948,-1898.19,-280.27,-140.50
2600,-3.8718,0.5486,0.0941,836.18,141.66,-296.69
2610,-3.8717,0.5509,0.0925,-1773.19,47.91,109.56
2620,-3.8717,0.5458,0.0928,-1476.32,-155.21,734.50
2630,-3.8717,0.5330,0.0942,1867.43,-123.96,1375.12
2640,-3.8717,0.5138,0.0977,226.81,63.54,-1906.07
2650,-3.8717,0.4945,0.1061,1773.68,500.98,-1093.57
2660,-3.8717,0.4833,0.1173,-695.07,1579.04,-562.32
2670,-3.8717,0.4836,0.1246,1867.43,-983.46,-390.44
2680,-3.8717,0.4930,0.1235,1914.31,-45.96,-124.82
2690,-3.8716,0.5005,0.1185,-882.57,-186.58,953.31
2700,-3.8716,0.4962,0.1193,70.56,-827.15,-968.57
2710,-3.8715,0.4801,0.1278,-476.32,-733.46,1328.31
2720,-3.8715,0.4554,0.1362,1461.18,360.29,-1031.01
2730,-3.8715,0.4285,0.1379,-1695.07,1438.35,-202.88
2740,-3.8715,0.4087,0.1371,-1148.19,1657.04,-202.88
2750,-3.8715,0.4000,0.1370,320.56,1547.67,-702.88
2760,-3.8715,0.4010,0.1381,-788.82,1531.98,-1296.63
2770,-3.8715,0.4082,0.1407,-663.82,1672.61,1968.99
2780,-3.8715,0.4154,0.1439,258.06,-1983.58,1015.87
2790,-3.8716,0.4152,0.1492,1179.93,-1577.33,-156.01
2800,-3.8716,0.4073,0.1592,1148.68,-905.46,-1359.13
2810,-3.8716,0.4015,0.1709,148.68,375.79,1406.56
2820,-3.8716,0.4023,0.1771,-601.32,1875.73,703.43
2830,-3.8716,0.4054,0.1813,-491.94,-1327.39,1250.31
2840,-3.8716,0.4055,0.1891,-101.32,-796.14,-1062.19
2850,-3.8715,0.3984,0.1986,-85.69,203.86,1859.74
2860,-3.8713,0.3822,0.2072,-991.94,1422.61,1781.62
2870,-3.8712,0.3600,0.2113,929.93,-1483.64,1203.49
2880,-3.8712,0.3396,0.2047,-1913.82,-952.45,-1327.76
2890,-3.8712,0.3304,0.1853,-523.19,-1796.26,1859.74
2900,-3.8713,0.3373,0.1610,-1695.07,-280.64,-796.57
2910,-3.8715,0.3616,0.1442,-820.07,609.99,-843.44
2920,-3.8716,0.3998,0.1372,-1710.69,-1546.20,-1546.63
2930,-3.8717,0.4408,0.1389,-820.07,1563.23,-1218.51
2940,-3.8717,0.4753,0.1488,429.93,1782.10,1203.37
2950,-3.8717,0.4991,0.1609,851.81,-952.21,1453.37
2960,-3.8717,0.5103,0.1720,-101.32,594.67,-640.32
2970,-3.8716,0.5079,0.1852,1320.56,-1983.40,-1687.19
2980,-3.8715,0.4916,0.2025,1023.68,-295.90,734.68
2990,-3.8715,0.4626,0.2189,-1070.07,1922.79,1844.12
3000,-3.8715,0.4307,0.2263,-773.19,16.48,-1937.07
3010,-3.8715,0.4036,0.2209,-866.94,969.54,1766.05
3020,-3.8715,0.3781,0.2051,-335.69,281.98,859.80
3030,-3.8716,0.3560,0.1913,398.68,-1749.27,-593.38
3040,-3.8716,0.3427,0.1860,1570.56,485.05,-1905.88
3050,-3.8716,0.3359,0.1898,-132.57,-186.89,-1890.32
3060,-3.8716,0.3340,0.2009,-991.94,297.49,-202.76
3070,-3.8715,0.3359,0.2125,-1241.94,1719.36,-1577.76
3080,-3.8713,0.3405,0.2241,-991.94,-796.26,1156.62
3090,-3.8713,0.3505,0.2347,-413.82,688.11,-1296.45
3100,-3.8713,0.3699,0.2399,867.43,-1952.45,-1702.70
3110,-3.8713,0.3961,0.2373,-648.19,-1296.20,391.05
3120,-3.8715,0.4158,0.2261,-1288.82,-1624.27,1922.30
3130,-3.8715,0.4196,0.2134,1226.81,938.29,62.93
3140,-3.8716,0.4097,0.2100,1711.18,-686.71,-499.63
3150,-3.8715,0.3905,0.2189,445.56,-1124.21,359.74
3160,-3.8715,0.3704,0.2354,1992.43,16.36,-1499.57
3170,-3.8713,0.3604,0.2511,-585.69,-1874.33,656.68
3180,-3.8713,0.3629,0.2581,-1866.94,141.30,1219.24
3190,-3.8713,0.3682,0.2531,-1538.82,1031.92,141.11
3200,-3.8715,0.3646,0.2375,-866.94,391.30,-1358.89
3210,-3.8715,0.3472,0.2203,-1320.07,-1593.08,1672.30
3220,-3.8715,0.3196,0.2102,445.56,203.80,1359.80
3230,-3.8715,0.2893,0.2073,914.31,-1093.14,1484.74
3240,-3.8715,0.2616,0.2107,1039.31,-1468.20,1765.99
3250,-3.8715,0.2411,0.2183,1492.43,-1030.76,1406.62
3260,-3.8716,0.2318,0.2258,-1132.57,-62.07,-30.88
3270,-3.8716,0.2327,0.2306,1679.93,906.68,-1890.20
3280,-3.8716,0.2405,0.2310,1789.31,1516.05,1500.43
3290,-3.8716,0.2515,0.2295,-1210.69,1562.93,-312.07
3300,-3.8713,0.2606,0.2341,195.56,1375.49,172.30
3310,-3.8712,0.2653,0.2489,1367.43,1969.24,1172.30
3320,-3.8711,0.2668,0.2635,1961.18,-140.14,1062.93
3330,-3.8711,0.2676,0.2656,-1835.69,1734.86,-1124.51
3340,-3.8711,0.2743,0.2550,-1741.94,-1999.51,-1671.39
3350,-3.8712,0.2914,0.2341,-882.57,641.11,-437.01
3360,-3.8712,0.3119,0.2092,1304.93,1969.30,219.18
3370,-3.8713,0.3262,0.1951,-70.07,-1218.20,-1874.63
3380,-3.8713,0.3278,0.1996,1758.06,969.36,1672.24
3390,-3.8713,0.3120,0.2144,1961.18,1547.49,-1452.76
3400,-3.8712,0.2750,0.2313,-54.44,-561.95,562.87
3410,-3.8712,0.2266,0.2478,-788.82,1609.86,-624.57
3420,-3.8711,0.1777,0.2605,1008.06,-280.82,-1671.45
3430,-3.8710,0.1292,0.2600,-1241.94,1344.06,766.11
3440,-3.8710,0.0859,0.2404,539.31,1281.49,-1937.01
3450,-3.8710,0.0558,0.2090,-991.94,-1234.25,1719.18
3460,-3.8710,0.0375,0.1743,-851.32,-1249.94,140.99
3470,-3.8711,0.0270,0.1495,804.93,-1687.44,-1218.44
3480,-3.8711,0.0237,0.1453,-538.82,-859.38,1890.87
3490,-3.8711,0.0295,0.1576,-960.69,-1406.25,1359.62
3500,-3.8711,0.0460,0.1748,-210.69,171.88,1844.06
3510,-3.8711,0.0674,0.1899,1898.68,-1624.94,-749.69
3520,-3.8710,0.0812,0.2023,633.06,312.62,890.99
3530,-3.8710,0.0826,0.2114,-1601.32,1890.75,-1952.76
3540,-3.8710,0.0756,0.2155,-1413.82,-937.38,-1437.13
3550,-3.8710,0.0631,0.2144,1679.93,-421.75,-1296.51
3560,-3.8710,0.0466,0.2106,86.18,-562.38,-1499.63
3570,-3.8710,0.0291,0.2037,1976.81,-1046.81,1953.49
3580,-3.8710,0.0132,0.1917,-273.19,-1921.88,1328.49
3590,-3.8710,0.0017,0.1797,1695.56,531.25,750.37
3600,-3.8710,-0.0020,0.1721,226.81,-1000.00,187.81
3610,-3.8711,0.0031,0.1685,-241.94,-1953.19,-155.94
3620,-3.8711,0.0133,0.1687,398.68,1562.50,-327.82
3630,-3.8711,0.0255,0.1750,1711.18,1593.75,-624.69
3640,-3.8711,0.0406,0.1886,-726.32,-1593.75,-749.69
3650,-3.8711,0.0601,0.2048,1211.18,140.69,-343.38
3660,-3.8710,0.0813,0.2179,-304.44,-1781.19,297.24
3670,-3.8710,0.0988,0.2260,-1585.69,-109.25,719.12
3680,-3.8710,0.1069,0.2311,648.68,922.06,766.05
3690,-3.8710,0.1078,0.2377,1695.56,1578.31,406.68
3700,-3.8711,0.1069,0.2491,1804.93,-1577.94,-187.07
3710,-3.8711,0.1067,0.2618,1695.56,-109.19,-858.95
3720,-3.8711,0.1091,0.2721,1664.31,1515.81,-1796.39
3730,-3.8711,0.1135,0.2806,1976.81,-1171.69,719.24
3740,-3.8712,0.1178,0.2874,-1460.69,-77.94,-1280.76
3750,-3.8712,0.1235,0.2909,-913.82,781.43,703.67
3760,-3.8713,0.1337,0.2896,-179.44,1234.56,-1202.58
3770,-3.8713,0.1464,0.2832,1117.43,1062.74,922.42
3780,-3.8715,0.1569,0.2776,-1257.57,250.24,-827.58
3790,-3.8715,0.1648,0.2693,86.18,-468.44,1656.74
3800,-3.8715,0.1681,0.2540,1101.81,-1530.94,1016.11
3810,-3.8715,0.1659,0.2384,1523.68,515.93,1406.74
3820,-3.8715,0.1631,0.2289,1242.43,-1484.07,-1796.45
3830,-3.8715,0.1635,0.2295,883.06,1297.18,-577.70
3840,-3.8713,0.1693,0.2427,929.93,1375.31,1172.30
3850,-3.8713,0.1820,0.2657,1679.93,-937.19,-390.20
3860,-3.8712,0.1990,0.2904,-695.07,-1984.07,-1827.64
3870,-3.8711,0.2159,0.3071,1476.81,1172.24,0.55
3880,-3.8711,0.2256,0.3129,-351.32,-687.13,766.17
3890,-3.8711,0.2241,0.3107,883.06,47.30,531.86
3900,-3.8712,0.2166,0.3079,695.56,-233.95,-46.33
3910,-3.8712,0.2092,0.3102,-273.19,-593.38,-218.20
3920,-3.8711,0.2065,0.3173,-1210.69,-296.51,125.55
3930,-3.8711,0.2092,0.3259,-1554.44,609.74,844.36
3940,-3.8711,0.2150,0.3328,-1210.69,1719.12,1750.61
3950,-3.8711,0.2212,0.3354,-476.32,-1405.88,-1358.76
3960,-3.8711,0.2249,0.3354,320.56,-1062.07,-749.39
3970,-3.8711,0.2285,0.3352,789.31,-1062.07,-358.76
3980,-3.8711,0.2362,0.3311,1258.06,-1093.32,-202.51
3990,-3.8711,0.2493,0.3193,-1757.57,-1624.57,-358.76
4000,-3.8711,0.2699,0.3018,-85.69,875.43,-874.39
4010,-3.8711,0.2966,0.2842,-1445.07,-1374.51,-1843.20
4020,-3.8711,0.3247,0.2697,1976.81,375.55,1016.17
4030,-3.8711,0.3492,0.2572,1570.56,-1483.76,219.24
4040,-3.8712,0.3645,0.2441,711.18,922.55,-140.14
4050,-3.8712,0.3654,0.2321,-1335.69,-749.33,-312.07
4060,-3.8712,0.3531,0.2253,-1226.32,1703.80,-765.20
4070,-3.8712,0.3342,0.2192,1211.18,844.42,1937.93
4080,-3.8713,0.3153,0.2081,-1210.69,63.11,-593.32
4090,-3.8715,0.3102,0.1920,367.43,-1358.76,-468.38
4100,-3.8716,0.3303,0.1742,-288.82,578.67,-1218.38
4110,-3.8717,0.3689,0.1630,-1710.69,-1702.51,-640.32
4120,-3.8717,0.4077,0.1627,-773.19,860.05,-968.44
4130,-3.8716,0.4357,0.1747,195.56,828.92,1375.31
4140,-3.8715,0.4586,0.2024,-226.32,-1639.83,1312.81
4150,-3.8713,0.4828,0.2432,-1288.82,1907.10,-1640.26
4160,-3.8712,0.5021,0.2820,1804.93,-874.08,-546.45
4170,-3.8711,0.5161,0.3014,273.68,94.73,-1561.95
4180,-3.8711,0.5303,0.2906,-1929.44,-1420.90,-1624.45
4190,-3.8712,0.5455,0.2518,-116.94,1204.10,-405.70
4200,-3.8713,0.5587,0.1991,1836.18,235.41,-1624.51
4210,-3.8715,0.5658,0.1527,-476.32,1485.41,484.74
4220,-3.8716,0.5609,0.1230,429.93,-452.03,62.74
4230,-3.8717,0.5358,0.1033,-195.07,-248.96,1312.68
4240,-3.8717,0.4917,0.0925,586.18,1219.79,93.93
4250,-3.8717,0.4423,0.0917,-1054.44,-155.33,625.12
4260,-3.8717,0.4028,0.0927,617.43,-264.77,-1906.13
4270,-3.8717,0.3790,0.0878,-429.44,-139.89,-234.25
4280,-3.8716,0.3685,0.0739,523.68,-764.89,828.25
4290,-3.8716,0.3728,0.0498,-820.07,1453.80,187.62
4300,-3.8717,0.3904,0.0211,-273.19,-1624.33,1671.94
4310,-3.8718,0.4163,0.0012,1976.81,-1296.14,-1953.12
4320,-3.8719,0.4409,-0.0046,1289.31,157.04,-1187.50
4330,-3.8719,0.4501,-0.0027,445.56,-592.90,-1890.69
4340,-3.8718,0.4419,0.0088,1617.43,-342.90,765.56
4350,-3.8717,0.4323,0.0358,570.56,1125.85,1609.38
4360,-3.8716,0.4390,0.0677,-663.82,578.92,-1140.56
4370,-3.8715,0.4681,0.0844,195.56,672.73,-796.75
4380,-3.8713,0.5089,0.0824,-70.07,-1202.27,-1953.00
4390,-3.8713,0.5417,0.0737,1148.68,-1452.15,-718.63
4400,-3.8713,0.5533,0.0621,1351.81,1438.54,-468.63
4410,-3.8713,0.5438,0.0428,-1163.82,-45.84,-734.31
4420,-3.8713,0.5215,0.0189,1617.43,1485.41,-1249.94
4430,-3.8713,0.4971,0.0000,-1241.94,-1577.15,-1921.88
4440,-3.8713,0.4830,-0.0101,-366.94,0.92,1312.50
4450,-3.8713,0.4884,-0.0110,1836.18,-1295.96,812.44
4460,-3.8713,0.5099,0.0002,-1476.32,-1405.33,843.69
4470,-3.8713,0.5354,0.0212,1273.68,32.23,1921.88
4480,-3.8712,0.5593,0.0414,539.31,-1280.21,109.38
4490,-3.8712,0.5802,0.0499,-398.19,1297.91,1984.44
4500,-3.8712,0.5956,0.0431,-1726.32,-1608.28,-1687.44
4510,-3.8712,0.6023,0.0256,242.43,1516.78,1203.19
4520,-3.8713,0.6023,0.0072,1101.81,-717.59,-562.50
4530,-3.8713,0.5973,-0.0027,1101.81,923.03,1859.38
4540,-3.8713,0.5869,-0.0028,461.18,-342.59,578.06
4550,-3.8715,0.5750,0.0010,-866.94,-358.28,-453.19
4560,-3.8715,0.5665,0.0034,1601.81,126.10,-1031.25
4570,-3.8715,0.5634,-0.0002,523.68,438.60,-1515.62
4580,-3.8715,0.5630,-0.0092,117.43,-30.15,1328.06
4590,-3.8716,0.5640,-0.0199,70.56,-1170.78,-609.44
4600,-3.8716,0.5641,-0.0303,195.56,1454.22,1578.06
4610,-3.8716,0.5593,-0.0399,211.18,126.10,484.31
4620,-3.8716,0.5496,-0.0441,-398.19,-1108.34,203.00
4630,-3.8716,0.5371,-0.0408,-1648.19,-1639.59,468.63
4640,-3.8716,0.5203,-0.0367,758.06,-1217.71,796.75
4650,-3.8716,0.5010,-0.0354,-1398.19,-702.15,578.00
4660,-3.8717,0.4854,-0.0380,133.06,-530.27,-187.62
4670,-3.8717,0.4740,-0.0426,-1866.94,-858.46,-781.37
4680,-3.8717,0.4661,-0.0457,679.93,-1452.21,-1359.50
4690,-3.8717,0.4636,-0.0454,-335.69,-1842.90,1562.38
4700,-3.8717,0.4683,-0.0442,-648.19,-1811.65,62.38
4710,-3.8718,0.4778,-0.0439,-54.44,-1655.40,-1343.87
4720,-3.8718,0.4906,-0.0425,1164.31,-1624.08,1968.63
4730,-3.8718,0.5049,-0.0394,-1195.07,-1436.58,-1968.87
4740,-3.8718,0.5148,-0.0342,633.06,-1045.90,-1297.00
4750,-3.8718,0.5162,-0.0239,1898.68,-374.02,-250.12
4760,-3.8717,0.5103,-0.0114,-1913.82,938.48,546.81
4770,-3.8717,0.5009,0.0010,1320.56,-1452.15,578.06
4780,-3.8718,0.4967,0.0165,117.43,125.98,-171.88
4790,-3.8718,0.5100,0.0380,-413.82,-1889.71,-1593.75
4800,-3.8718,0.5480,0.0635,1289.31,860.35,609.44
4810,-3.8719,0.6067,0.0891,-1851.32,126.04,-749.88
4820,-3.8719,0.6769,0.1125,1664.31,-592.59,-1265.50
4830,-3.8719,0.7444,0.1252,-1351.32,-1592.47,1906.43
4840,-3.8719,0.7960,0.1266,-710.69,32.65,0.24
4850,-3.8721,0.8295,0.1262,1898.68,204.65,1781.49
4860,-3.8721,0.8396,0.1250,-1820.07,157.84,453.37
4870,-3.8721,0.8148,0.1279,-523.19,1.59,906.49
4880,-3.8721,0.7592,0.1439,304.93,376.59,-531.01
4890,-3.8719,0.6898,0.1681,1179.93,-1576.66,-624.76
4900,-3.8718,0.6217,0.1919,304.93,1516.97,-109.07
4910,-3.8716,0.5593,0.2140,-413.82,563.66,859.74
4920,-3.8715,0.5045,0.2314,-398.19,-608.34,1734.74
4930,-3.8713,0.4617,0.2413,586.18,1625.98,1891.05
4940,-3.8712,0.4338,0.2458,-898.19,-1108.52,703.55
4950,-3.8712,0.4282,0.2456,-460.69,-530.46,1859.80
4960,-3.8712,0.4482,0.2378,-1179.44,-561.71,1203.55
4970,-3.8713,0.4834,0.2295,1383.06,-1561.65,-1421.45
4980,-3.8715,0.5156,0.2296,1883.06,1375.92,-1749.57
4990,-3.8716,0.5350,0.2333,-1991.94,1391.60,1297.30
5000,-3.8717,0.5421,0.2338,492.43,1860.41,1172.30
5010,-3.8718,0.5358,0.2334,1398.68,1922.91,-1374.57
5020,-3.8718,0.5082,0.2355,586.18,1876.04,1875.43
5030,-3.8718,0.4572,0.2417,1054.93,-1858.40,-780.82
5040,-3.8717,0.3976,0.2543,-1476.32,-1061.65,-1483.95
5050,-3.8716,0.3464,0.2690,-1101.32,547.61,-1530.76
5060,-3.8715,0.3097,0.2777,351.81,-1561.83,-1983.89
5070,-3.8713,0.2841,0.2765,-351.32,-452.58,1062.99
5080,-3.8713,0.2682,0.2728,367.43,-608.83,-546.39
5090,-3.8712,0.2690,0.2743,-1663.82,-1077.64,1125.49
5100,-3.8712,0.2889,0.2784,-1554.44,-890.14,1937.99
5110,-3.8712,0.3195,0.2861,992.43,-358.83,1516.11
5120,-3.8712,0.3568,0.2988,898.68,625.61,94.30
5130,-3.8713,0.4021,0.3077,1679.93,-1749.33,-1124.45
5140,-3.8713,0.4484,0.3126,-523.19,-608.64,-811.95
5150,-3.8712,0.4829,0.3226,1398.68,16.48,1078.74
5160,-3.8712,0.4960,0.3386,1820.56,1297.79,-718.14
5170,-3.8711,0.4861,0.3539,-507.57,-655.33,578.74
5180,-3.8711,0.4623,0.3654,-1773.19,1297.79,797.55
5190,-3.8711,0.4395,0.3733,-820.07,-1233.52,31.92
5200,-3.8712,0.4266,0.3772,258.06,-217.90,1531.92
5210,-3.8713,0.4248,0.3704,-1382.57,282.04,1860.11
5220,-3.8715,0.4249,0.3514,-1616.94,-592.96,-999.33
5230,-3.8715,0.4142,0.3314,-1601.32,985.17,-1999.33
5240,-3.8715,0.3881,0.3212,1023.68,-1577.33,-1186.89
5250,-3.8713,0.3523,0.3253,1679.93,1110.11,828.74
5260,-3.8713,0.3196,0.3389,1101.81,1641.30,-999.39
5270,-3.8712,0.2981,0.3483,914.31,-624.39,219.36
5280,-3.8713,0.2896,0.3400,-1835.69,578.67,-30.58
5290,-3.8713,0.2896,0.3163,1070.56,-483.83,-1640.01
5300,-3.8713,0.2909,0.2905,1070.56,484.92,219.36
5310,-3.8715,0.2871,0.2737,1242.43,1188.05,-1311.95
5320,-3.8715,0.2727,0.2716,758.06,-968.20,-1265.14
5330,-3.8713,0.2469,0.2782,-1085.69,-1233.89,609.86
5340,-3.8713,0.2145,0.2841,-382.57,-390.20,-608.89
5350,-3.8712,0.1808,0.2836,-538.82,359.74,1719.30
5360,-3.8712,0.1521,0.2736,-851.32,297.18,-1280.70
5370,-3.8712,0.1360,0.2523,-523.19,-984.13,1703.61
5380,-3.8713,0.1351,0.2236,1414.31,297.12,-983.89
5390,-3.8713,0.1423,0.1987,1304.93,625.24,469.18
5400,-3.8715,0.1503,0.1868,-1773.19,1437.74,-140.26
5410,-3.8713,0.1580,0.1895,-757.57,-93.51,1703.43
5420,-3.8712,0.1678,0.1976,226.81,250.31,984.74
5430,-3.8711,0.1786,0.2015,1492.43,1297.18,531.62
5440,-3.8711,0.1880,0.2050,-1132.57,1797.18,-249.63
5450,-3.8710,0.1967,0.2076,70.56,-1765.26,1797.24
5460,-3.8710,0.2042,0.2045,1179.93,-1421.51,-1046.51
5470,-3.8708,0.2085,0.1982,-1851.32,-1827.76,156.62
5480,-3.8708,0.2089,0.1901,-1304.44,1375.37,1250.37
5490,-3.8708,0.2057,0.1809,-1257.57,328.49,1937.87
5500,-3.8708,0.2002,0.1753,-1663.82,-843.38,-1718.44
5510,-3.8708,0.1925,0.1752,1633.06,-1562.13,-1343.44
5520,-3.8708,0.1819,0.1781,648.68,-1577.76,-718.44
5530,-3.8708,0.1699,0.1809,-710.69,-1202.82,-171.57
5540,-3.8708,0.1613,0.1836,1758.06,-843.44,-124.69
5550,-3.8708,0.1639,0.1898,648.68,-499.69,-624.69
5560,-3.8708,0.1820,0.2020,992.43,297.18,-1124.63
5570,-3.8708,0.2108,0.2150,-695.07,1859.68,-1484.01
5580,-3.8708,0.2401,0.2241,-1007.57,-484.01,1734.74
5590,-3.8708,0.2632,0.2310,-1257.57,687.93,391.05
5600,-3.8710,0.2791,0.2382,1695.56,1562.99,-1171.45
5610,-3.8710,0.2896,0.2493,-273.19,-1515.14,1625.43
5620,-3.8710,0.2983,0.2659,1070.56,-93.20,844.18
5630,-3.8710,0.3093,0.2854,-1804.44,-1968.20,391.11
5640,-3.8710,0.3218,0.3016,-398.19,531.80,141.17
5650,-3.8711,0.3282,0.3087,1195.56,-1390.01,-405.70
5660,-3.8711,0.3223,0.3055,-1976.32,-483.76,-1624.45
5670,-3.8711,0.3041,0.2950,1258.06,-890.01,78.67
5680,-3.8712,0.2769,0.2800,-1070.07,1766.17,703.67
5690,-3.8713,0.2451,0.2667,-554.44,-155.76,984.86
5700,-3.8715,0.2184,0.2628,-616.94,-1858.95,-1843.26
5710,-3.8715,0.2084,0.2732,-38.82,1640.99,1156.74
5720,-3.8715,0.2233,0.2974,-1320.07,-1030.88,-1687.01
5730,-3.8713,0.2621,0.3286,586.18,-1937.07,906.80
5740,-3.8713,0.3190,0.3549,1554.93,-1937.01,-108.76
5750,-3.8712,0.3810,0.3691,836.18,1422.49,-1280.58
5760,-3.8711,0.4233,0.3727,773.68,-749.27,860.05
5770,-3.8711,0.4281,0.3696,-1804.44,-296.08,-1889.95
5780,-3.8711,0.3911,0.3625,-1195.07,-686.71,-1014.95
5790,-3.8710,0.3191,0.3535,-1929.44,-1593.02,16.30
5800,-3.8710,0.2367,0.3431,851.81,1250.61,985.05
5810,-3.8710,0.1687,0.3293,-1695.07,-77.70,1125.61
5820,-3.8710,0.1315,0.3168,1601.81,-1843.44,391.24
5830,-3.8711,0.1305,0.3065,836.18,547.12,-1124.39
5840,-3.8711,0.1530,0.2938,711.18,-765.38,484.92
5850,-3.8712,0.1893,0.2856,-413.82,1609.62,1531.80
5860,-3.8713,0.2385,0.2881,242.43,562.87,-1077.58
5870,-3.8713,0.2921,0.2931,-1460.69,875.43,1516.17
5880,-3.8713,0.3383,0.2955,1398.68,1516.17,1078.67
5890,-3.8713,0.3762,0.2944,-695.07,1828.74,625.55
5900,-3.8715,0.4106,0.2858,164.31,1688.23,-593.20
5910,-3.8715,0.4395,0.2690,570.56,578.92,1688.05
5920,-3.8715,0.4587,0.2513,258.06,-1561.65,203.61
5930,-3.8716,0.4659,0.2411,-1273.19,172.73,-999.51
5940,-3.8716,0.4617,0.2424,-351.32,-1139.77,-1483.95
5950,-3.8716,0.4545,0.2542,-898.19,-967.90,-874.57
5960,-3.8715,0.4537,0.2690,-1820.07,532.10,469.24
5970,-3.8715,0.4620,0.2806,-1913.82,-1561.65,1812.99
5980,-3.8715,0.4779,0.2881,-851.32,-77.27,-1515.14
5990,-3.8715,0.4984,0.2913,1179.93,875.92,-1296.33
6000,-3.8715,0.5233,0.2889,-195.07,1282.17,-999.45
6010,-3.8715,0.5499,0.2821,-1007.57,985.35,-280.70
6020,-3.8713,0.5721,0.2745,-1601.32,110.41,625.55
6030,-3.8713,0.5880,0.2655,1242.43,-858.28,797.36
6040,-3.8713,0.5975,0.2511,-726.32,1985.47,156.74
6050,-3.8715,0.5980,0.2312,492.43,141.78,-687.01
6060,-3.8715,0.5854,0.2072,554.93,1594.91,-1983.95
6070,-3.8716,0.5604,0.1788,-1054.44,-1483.28,-343.38
6080,-3.8716,0.5316,0.1450,-257.57,-1108.34,15.93
6090,-3.8718,0.5125,0.1085,54.93,-1436.46,-140.38
6100,-3.8718,0.5094,0.0779,1601.81,1891.60,234.56
6110,-3.8719,0.5166,0.0627,1211.18,1969.73,1625.12
6120,-3.8719,0.5262,0.0651,-1866.94,32.23,375.12
6130,-3.8719,0.5372,0.0762,-632.57,329.10,390.75
6140,-3.8719,0.5464,0.0842,773.68,1751.04,1578.25
6150,-3.8719,0.5452,0.0859,1945.56,-1217.71,-390.50
6160,-3.8718,0.5400,0.0864,1789.31,-998.96,1328.25
6170,-3.8718,0.5432,0.0858,1133.06,-936.46,-1953.00
6180,-3.8718,0.5560,0.0800,1539.31,-1014.59,-1859.25
6190,-3.8718,0.5702,0.0696,-820.07,-1764.59,-1640.50
6200,-3.8718,0.5757,0.0569,992.43,907.35,-1203.00
6210,-3.8718,0.5708,0.0444,1695.56,-717.65,-984.31
6220,-3.8718,0.5575,0.0349,1070.56,1688.60,-671.81
6230,-3.8718,0.5370,0.0293,-632.57,469.79,-109.31
6240,-3.8718,0.5155,0.0261,742.43,-248.96,-46.88
6250,-3.8718,0.5017,0.0228,1992.43,-655.27,-687.50
6260,-3.8718,0.4979,0.0159,226.81,-1077.15,-1375.00
6270,-3.8718,0.5016,0.0017,-257.57,-1967.83,-1765.62
6280,-3.8718,0.5118,-0.0166,211.18,219.73,1859.38
6290,-3.8718,0.5242,-0.0311,1523.68,1875.98,1890.56
6300,-3.8718,0.5339,-0.0328,-898.19,16.60,-968.81
6310,-3.8717,0.5471,-0.0175,351.81,-202.09,1531.13
6320,-3.8716,0.5671,0.0117,-1960.69,1766.66,1624.94
6330,-3.8715,0.5872,0.0446,601.81,1501.10,-1031.25
6340,-3.8712,0.5994,0.0668,-835.69,1704.22,328.19
6350,-3.8711,0.6016,0.0701,726.81,548.03,250.12
6360,-3.8711,0.5966,0.0568,1008.06,969.91,-1937.38
6370,-3.8711,0.5883,0.0353,367.43,-733.22,-1906.19
6380,-3.8711,0.5825,0.0178,-695.07,516.72,1093.81
6390,-3.8711,0.5830,0.0111,-1429.44,-1717.65,15.62
6400,-3.8712,0.5868,0.0107,-1366.94,1422.97,-500.00
6410,-3.8712,0.5883,0.0095,-882.57,1376.10,-531.25
6420,-3.8712,0.5845,0.0052,-695.07,1219.85,-609.38
6430,-3.8712,0.5786,-0.0016,-1179.44,672.97,-1312.50
6440,-3.8712,0.5757,-0.0110,-1929.44,-202.03,1359.31
6450,-3.8713,0.5774,-0.0232,1695.56,-1405.15,-671.94
6460,-3.8713,0.5819,-0.0380,1914.31,1032.35,859.31
6470,-3.8715,0.5847,-0.0542,-1507.57,-858.28,-1687.62
6480,-3.8715,0.5822,-0.0673,-1148.19,1063.60,296.75
6490,-3.8716,0.5708,-0.0719,-1476.32,-608.28,-422.06
6500,-3.8715,0.5488,-0.0675,1070.56,-1202.03,31.07
6510,-3.8715,0.5215,-0.0582,-1741.94,-639.59,1187.32
6520,-3.8715,0.4971,-0.0526,-1241.94,547.85,-1375.12
6530,-3.8715,0.4808,-0.0516,-366.94,1266.54,-406.37
6540,-3.8715,0.4738,-0.0507,1554.93,1391.54,-390.75
6550,-3.8715,0.4728,-0.0481,648.68,1516.54,-468.87
6560,-3.8713,0.4728,-0.0422,523.68,1844.67,31.13
6570,-3.8713,0.4722,-0.0348,523.68,-1405.33,781.13
6580,-3.8713,0.4733,-0.0283,445.56,-452.21,1265.50
6590,-3.8713,0.4792,-0.0243,586.18,375.92,781.19
6600,-3.8715,0.4913,-0.0238,1351.81,891.54,-1125.06
6610,-3.8716,0.5066,-0.0276,-1101.32,954.04,-62.56
6620,-3.8716,0.5205,-0.0322,851.81,469.73,1046.81
6630,-3.8717,0.5299,-0.0316,-1366.94,-124.02,-625.12
6640,-3.8717,0.5326,-0.0250,-163.82,-45.90,-1297.00
6650,-3.8717,0.5292,-0.0182,179.93,797.91,1968.69
6660,-3.8717,0.5214,-0.0137,-257.57,1672.85,765.56
6670,-3.8718,0.5125,-0.0111,-1257.57,-1749.02,-843.81
6680,-3.8718,0.5060,-0.0121,1601.81,-1420.90,1562.44
6690,-3.8718,0.5040,-0.0140,773.68,-1545.90,468.69
6700,-3.8718,0.5068,-0.0110,523.68,-1795.90,46.81
6710,-3.8718,0.5103,0.0011,883.06,-1405.27,437.44
6720,-3.8718,0.5095,0.0199,1320.56,141.60,1406.25
6730,-3.8718,0.5022,0.0392,1226.81,-1452.15,-1140.62
6740,-3.8717,0.4866,0.0564,289.31,1016.60,531.31
6750,-3.8717,0.4653,0.0698,-1710.69,-780.33,-1921.81
6760,-3.8717,0.4432,0.0786,-429.44,938.35,-765.50
6770,-3.8717,0.4252,0.0848,742.43,-1936.65,-437.38
6780,-3.8717,0.4148,0.0907,-1570.07,-1139.83,-1234.25
6790,-3.8717,0.4116,0.0955,1101.81,-389.83,1328.25
6800,-3.8717,0.4148,0.1000,695.56,219.54,203.31
6810,-3.8718,0.4232,0.1085,1101.81,797.67,-93.57
6820,-3.8717,0.4324,0.1229,-1820.07,1891.42,578.31
6830,-3.8717,0.4358,0.1410,-648.19,-264.83,-1906.07
6840,-3.8716,0.4286,0.1637,-210.69,-1952.33,109.62
6850,-3.8716,0.4128,0.1898,-1132.57,953.92,-1577.82
6860,-3.8715,0.3969,0.2090,851.81,297.67,328.49
6870,-3.8715,0.3888,0.2126,-1195.07,-1249.27,453.49
6880,-3.8716,0.3944,0.2028,1773.68,-780.52,1969.12
6890,-3.8717,0.4167,0.1893,-1507.57,1953.86,1250.37
6900,-3.8719,0.4515,0.1841,1351.81,235.17,-140.26
6910,-3.8719,0.4906,0.1903,1804.93,-436.65,328.43
6920,-3.8719,0.5237,0.2061,-1195.07,360.29,156.62
6930,-3.8719,0.5388,0.2288,-960.69,-1624.02,-1030.88
6940,-3.8718,0.5260,0.2534,976.81,1282.29,-593.32
6950,-3.8717,0.4843,0.2773,-663.82,438.48,-93.26
6960,-3.8716,0.4259,0.2952,1992.43,-499.08,-280.76
6970,-3.8715,0.3682,0.3022,-1476.32,1782.04,-1108.83
6980,-3.8713,0.3236,0.2964,-866.94,-1311.83,1078.67
6990,-3.8713,0.3007,0.2769,1429.93,1938.11,1641.17
7000,-3.8713,0.3043,0.2495,-1507.57,-561.95,516.11
7010,-3.8715,0.3274,0.2272,-1038.82,-61.95,-827.70
7020,-3.8715,0.3541,0.2240,1914.31,1078.74,-233.95
7030,-3.8713,0.3684,0.2419,1336.18,672.55,-1233.95
7040,-3.8712,0.3593,0.2686,-835.69,-1030.58,-608.95
7050,-3.8710,0.3286,0.2889,1992.43,-1624.33,734.86
7060,-3.8708,0.2935,0.2959,-1929.44,984.99,1313.05
7070,-3.8708,0.2754,0.2928,1570.56,1875.55,-593.20
7080,-3.8708,0.2887,0.2843,-741.94,1484.86,-1593.20
7090,-3.8710,0.3358,0.2710,961.18,391.17,-874.45
7100,-3.8711,0.3998,0.2606,-1007.57,-1311.89,-218.26
7110,-3.8711,0.4509,0.2677,-820.07,1360.11,-937.01
7120,-3.8710,0.4666,0.2985,1726.81,-1733.52,1766.11
7130,-3.8708,0.4399,0.3383,-273.19,-1796.02,-1499.45
7140,-3.8707,0.3807,0.3615,320.56,-702.27,-1061.89
7150,-3.8706,0.3152,0.3561,742.43,-1733.64,1016.30
7160,-3.8707,0.2678,0.3290,351.81,1578.74,-686.83
7170,-3.8708,0.2501,0.2972,-1710.69,-1890.14,-1843.14
7180,-3.8711,0.2643,0.2770,23.68,-1952.64,-186.95
7190,-3.8712,0.2999,0.2747,1836.18,-546.39,-1108.89
7200,-3.8712,0.3352,0.2863,-1601.32,-843.20,297.36
7210,-3.8712,0.3483,0.3018,-1085.69,641.24,125.55
7220,-3.8712,0.3252,0.3145,586.18,-1374.33,-1358.83
7230,-3.8711,0.2650,0.3245,1633.06,250.61,-1374.39
7240,-3.8710,0.1827,0.3351,1929.93,1531.74,1766.24
7250,-3.8710,0.1035,0.3477,-601.32,-1109.07,-1093.14
7260,-3.8710,0.0460,0.3511,1258.06,500.18,-1796.20
7270,-3.8711,0.0106,0.3337,1898.68,937.56,-233.70
7280,-3.8711,-0.0099,0.2996,1367.43,-1281.25,63.11
7290,-3.8712,-0.0165,0.2634,-1257.57,-1640.69,344.30
7300,-3.8713,-0.0148,0.2397,1898.68,1734.31,-1702.64
7310,-3.8713,-0.0171,0.2346,-1882.57,-1296.94,-999.57
7320,-3.8712,-0.0291,0.2441,1820.56,-1953.19,1625.43
7330,-3.8711,-0.0480,0.2570,289.31,-734.44,1031.68
7340,-3.8710,-0.0654,0.2700,1867.43,906.13,1078.61
7350,-3.8708,-0.0789,0.2821,-366.94,-1422.06,1641.11
7360,-3.8707,-0.0920,0.2845,1914.31,124.82,-1436.95
7370,-3.8706,-0.1055,0.2744,226.81,437.32,-733.83
7380,-3.8705,-0.1174,0.2594,-1491.94,-859.62,-1546.39
7390,-3.8705,-0.1285,0.2458,976.81,1218.51,-437.01
7400,-3.8705,-0.1393,0.2330,-445.07,-515.93,-530.82
7410,-3.8705,-0.1407,0.2192,-1820.07,1843.44,-1140.20
7420,-3.8705,-0.1257,0.2108,1992.43,77.82,1687.93
7430,-3.8706,-0.0961,0.2142,-85.69,-1000.31,-155.88
7440,-3.8706,-0.0524,0.2227,-288.82,-562.74,1375.37
7450,-3.8707,0.0028,0.2314,1304.93,515.50,-1312.07
7460,-3.8707,0.0608,0.2423,367.43,1625.00,328.55
7470,-3.8708,0.1117,0.2556,-210.69,-984.31,-1421.45
7480,-3.8708,0.1498,0.2720,-1695.07,718.93,1031.74
7490,-3.8710,0.1781,0.2863,-820.07,-1187.26,-952.64
7500,-3.8710,0.1964,0.2887,-1195.07,640.93,906.80
7510,-3.8711,0.2063,0.2794,1148.68,953.49,-843.20
7520,-3.8711,0.2106,0.2673,-1585.69,-234.01,1281.74
7530,-3.8712,0.2097,0.2568,-1038.82,-1780.88,-1187.01
7540,-3.8712,0.2061,0.2496,-1148.19,875.37,328.61
7550,-3.8713,0.2039,0.2463,-1616.94,-46.51,-1780.82
7560,-3.8713,0.2069,0.2456,-1898.19,-468.38,547.30
7570,-3.8715,0.2109,0.2455,-1507.57,-562.13,-405.82
7580,-3.8715,0.2157,0.2452,-991.94,-577.76,-905.82
7590,-3.8715,0.2230,0.2440,-382.57,-609.01,-1296.45
7600,-3.8715,0.2313,0.2435,554.93,-765.20,-1437.07
7610,-3.8715,0.2423,0.2461,1617.43,-827.70,-1405.82
7620,-3.8715,0.2571,0.2479,-976.32,-499.57,-1515.20
7630,-3.8715,0.2737,0.2448,914.31,-265.14,-1655.82
7640,-3.8715,0.2848,0.2415,-960.69,-671.39,-1671.45
7650,-3.8715,0.2849,0.2413,461.18,-1093.20,-1905.82
7660,-3.8715,0.2732,0.2429,476.81,-1108.83,1531.68
7670,-3.8715,0.2549,0.2458,-1023.19,-905.76,1094.18
7680,-3.8715,0.2374,0.2511,633.06,-530.76,906.68
7690,-3.8715,0.2245,0.2589,-1601.32,141.05,391.11
7700,-3.8716,0.2166,0.2698,742.43,1141.05,-452.64
7710,-3.8716,0.2140,0.2825,-273.19,-1468.38,-1077.64
7720,-3.8716,0.2192,0.2968,-601.32,156.62,-1171.33
7730,-3.8716,0.2338,0.3145,70.56,1984.80,-515.08
7740,-3.8715,0.2565,0.3314,1929.93,250.43,328.74
7750,-3.8715,0.2853,0.3448,836.18,-1577.64,672.49
7760,-3.8715,0.3162,0.3534,523.68,141.17,735.05
7770,-3.8715,0.3469,0.3628,476.81,1234.99,1797.55
7780,-3.8713,0.3818,0.3878,414.31,-1561.83,1094.42
7790,-3.8712,0.4255,0.4290,883.06,1641.36,1547.61
7800,-3.8711,0.4785,0.4656,-1523.19,-1092.96,1969.54
7810,-3.8710,0.5377,0.4779,1258.06,-405.33,1532.10
7820,-3.8710,0.5911,0.4583,836.18,1172.91,-811.58
7830,-3.8710,0.6274,0.4146,-335.69,-1342.65,-1811.65
7840,-3.8711,0.6451,0.3583,320.56,1063.72,1969.54
7850,-3.8713,0.6501,0.3019,-1413.82,1860.60,-311.83
7860,-3.8715,0.6514,0.2566,-773.19,-1358.15,1563.05
7870,-3.8716,0.6510,0.2250,-616.94,844.97,1641.11
7880,-3.8716,0.6464,0.2070,-663.82,798.10,687.93
7890,-3.8716,0.6361,0.1964,-1257.57,-1498.78,1265.99
7900,-3.8716,0.6201,0.1846,1429.93,1141.85,1547.24
7910,-3.8716,0.6056,0.1626,-616.94,-373.84,94.06
7920,-3.8717,0.6023,0.1298,1523.68,813.66,719.06
7930,-3.8718,0.6078,0.0964,1101.81,610.53,359.62
7940,-3.8721,0.6144,0.0684,1804.93,344.91,-109.19
7950,-3.8722,0.6172,0.0465,-1351.32,751.16,-140.50
7960,-3.8722,0.6135,0.0328,-991.94,1954.28,1015.69
7970,-3.8723,0.6066,0.0292,-1460.69,204.28,-374.94
7980,-3.8723,0.6055,0.0350,1648.68,-264.47,-531.25
7990,-3.8722,0.6145,0.0457,1508.06,485.53,140.69
8000,-3.8722,0.6288,0.0541,-1335.69,1844.91,1406.31
8010,-3.8722,0.6526,0.0597,492.43,-1076.90,-937.44
8020,-3.8721,0.6935,0.0673,-460.69,-358.15,812.56
8030,-3.8721,0.7354,0.0767,773.68,610.72,-171.75
8040,-3.8718,0.7618,0.0919,-1866.94,1813.90,172.00
8050,-3.8717,0.7726,0.1182,1523.68,-232.91,562.62
8060,-3.8716,0.7644,0.1510,-1101.32,-873.54,1015.81
8070,-3.8715,0.7404,0.1801,1851.81,-670.41,1593.99
8080,-3.8713,0.7153,0.1957,-1226.32,-951.72,1515.93
8090,-3.8712,0.6991,0.1974,-429.44,1048.22,125.37
8100,-3.8712,0.7010,0.1870,1492.43,1266.97,890.99
8110,-3.8713,0.7229,0.1650,1742.43,-61.16,-202.82
8120,-3.8713,0.7518,0.1409,539.31,1126.40,1734.68
8130,-3.8715,0.7742,0.1256,242.43,-1967.29,-671.63
8140,-3.8715,0.7865,0.1246,-898.19,79.59,1234.62
8150,-3.8715,0.7946,0.1302,679.93,-45.35,265.81
8160,-3.8715,0.8003,0.1310,1711.18,673.40,500.24
8170,-3.8715,0.8026,0.1207,-1554.44,767.15,781.49
8180,-3.8715,0.8060,0.1022,-1257.57,-545.35,203.31
8190,-3.8716,0.8042,0.0804,-820.07,1079.65,-1327.94
8200,-3.8716,0.7860,0.0553,-1054.44,-1701.60,515.75
8210,-3.8717,0.7502,0.0294,617.43,-920.35,-1828.06
8220,-3.8717,0.7057,0.0074,39.31,-232.91,93.75
8230,-3.8718,0.6682,-0.0072,-1663.82,954.47,-1093.75
8240,-3.8718,0.6478,-0.0118,1539.31,-920.59,-875.06
8250,-3.8717,0.6432,-0.0051,-1070.07,-1514.40,703.06
8260,-3.8717,0.6465,0.0077,-1663.82,-655.03,-937.56
8270,-3.8716,0.6553,0.0197,-1241.94,985.60,1328.12
8280,-3.8716,0.6711,0.0260,-116.94,-1483.15,-1156.25
8290,-3.8716,0.6918,0.0223,1914.31,-670.59,-921.88
8300,-3.8716,0.7114,0.0103,554.93,-1139.28,1859.38
8310,-3.8717,0.7222,-0.0062,-929.44,1313.84,-187.50
8320,-3.8717,0.7169,-0.0240,445.56,-795.47,1968.69
8330,-3.8717,0.6979,-0.0370,-226.32,923.22,765.56
8340,-3.8717,0.6727,-0.0409,1336.18,-733.03,312.38
8350,-3.8717,0.6471,-0.0391,-1882.57,-1233.09,593.63
8360,-3.8717,0.6222,-0.0344,-1163.82,-998.78,1328.00
8370,-3.8717,0.6000,-0.0225,-351.32,-405.09,1828.00
8380,-3.8717,0.5836,0.0005,804.93,1126.16,1796.81
8390,-3.8717,0.5737,0.0316,-1288.82,63.60,1828.12
8400,-3.8717,0.5708,0.0660,1445.56,47.97,-1421.81
8410,-3.8717,0.5758,0.0934,1070.56,454.22,-93.63
8420,-3.8716,0.5830,0.1038,1711.18,-45.78,1312.62
8430,-3.8716,0.5822,0.1047,-1366.94,1282.35,-1531.07
8440,-3.8716,0.5662,0.1108,-1476.32,1407.35,-843.57
8450,-3.8716,0.5380,0.1234,476.81,-1811.40,-734.19
8460,-3.8716,0.5088,0.1335,867.43,-202.09,-1249.82
8470,-3.8716,0.4869,0.1407,1133.06,1094.73,1828.37
8480,-3.8716,0.4747,0.1514,-1663.82,-1983.46,281.49
8490,-3.8717,0.4718,0.1620,773.68,-624.08,1765.87
8500,-3.8718,0.4736,0.1683,398.68,735.29,-718.44
8510,-3.8718,0.4751,0.1741,633.06,1547.79,1859.68
8520,-3.8718,0.4742,0.1860,820.56,-1717.83,1640.93
8530,-3.8718,0.4733,0.2032,711.18,-186.58,-1593.44
8540,-3.8718,0.4728,0.2178,586.18,-1983.46,-577.76
8550,-3.8718,0.4703,0.2253,523.68,-124.08,-249.63
8560,-3.8718,0.4631,0.2252,211.18,844.67,-249.57
8570,-3.8717,0.4514,0.2249,-710.69,828.98,219.18
8580,-3.8717,0.4382,0.2299,1789.31,782.10,1094.18
8590,-3.8717,0.4219,0.2371,101.81,1422.73,-1593.32
8600,-3.8717,0.4017,0.2435,-1991.94,-1655.46,-93.32
8610,-3.8716,0.3857,0.2504,-570.07,-827.39,1062.93
8620,-3.8716,0.3804,0.2571,1383.06,47.61,1437.99
8630,-3.8716,0.3840,0.2583,695.56,906.98,1484.86
8640,-3.8716,0.3961,0.2562,1164.31,1063.23,-1499.51
8650,-3.8715,0.4135,0.2634,-1288.82,797.61,875.49
8660,-3.8713,0.4215,0.2821,929.93,1719.54,375.49
8670,-3.8712,0.4091,0.3043,1961.18,110.17,766.17
8680,-3.8711,0.3810,0.3230,367.43,-1046.08,1281.80
8690,-3.8710,0.3503,0.3314,773.68,1344.48,328.74
8700,-3.8710,0.3284,0.3224,851.81,-1577.45,234.99
8710,-3.8711,0.3199,0.2955,-1960.69,1266.24,1078.74
8720,-3.8712,0.3298,0.2650,961.18,1828.74,422.42
8730,-3.8715,0.3611,0.2440,-1773.19,1922.49,-421.39
8740,-3.8716,0.4066,0.2363,-1773.19,-764.95,-358.95
8750,-3.8716,0.4508,0.2408,54.93,-1749.21,1906.68
8760,-3.8716,0.4786,0.2576,1711.18,-1171.02,-890.20
8770,-3.8715,0.4823,0.2836,1273.68,969.67,-1015.14
8780,-3.8713,0.4580,0.3058,1742.43,297.79,-327.58
8790,-3.8712,0.4117,0.3140,-1366.94,-858.52,-811.95
8800,-3.8711,0.3612,0.3065,711.18,188.29,656.86
8810,-3.8711,0.3221,0.2888,-1757.57,-764.95,172.42
8820,-3.8712,0.3044,0.2697,1242.43,969.36,-1733.83
8830,-3.8713,0.3129,0.2577,-1023.19,-1483.83,-327.64
8840,-3.8713,0.3427,0.2565,54.93,984.99,1328.61
8850,-3.8713,0.3770,0.2656,-132.57,828.74,78.61
8860,-3.8713,0.3981,0.2871,258.06,-1999.27,437.99
8870,-3.8713,0.3945,0.3158,-1038.82,750.73,-1733.83
8880,-3.8712,0.3663,0.3390,-1491.94,422.61,766.24
8890,-3.8712,0.3214,0.3519,-1101.32,-608.70,-1061.89
8900,-3.8712,0.2649,0.3539,1148.68,1047.49,-233.70
8910,-3.8712,0.2100,0.3434,1914.31,1297.36,-1327.45
8920,-3.8713,0.1697,0.3141,-1116.94,-46.51,-686.89
8930,-3.8715,0.1465,0.2666,1726.81,203.43,-1702.51
8940,-3.8716,0.1422,0.2197,-1241.94,-1874.76,1312.99
8950,-3.8717,0.1537,0.1880,-1788.82,125.24,-1796.45
8960,-3.8717,0.1714,0.1766,-320.07,62.74,-1999.63
8970,-3.8716,0.1890,0.1841,1945.56,-1390.32,640.93
8980,-3.8715,0.1998,0.2021,195.56,-437.13,1109.68
8990,-3.8713,0.1981,0.2275,1586.18,1875.37,-1812.13
9000,-3.8712,0.1835,0.2506,1367.43,1125.37,-1280.82
9010,-3.8711,0.1580,0.2539,-507.57,78.43,-1952.64
9020,-3.8710,0.1281,0.2365,226.81,500.31,641.11
9030,-3.8710,0.1022,0.2107,398.68,-1734.13,-1249.57
9040,-3.8708,0.0813,0.1882,1086.18,-1031.07,140.99
9050,-3.8708,0.0586,0.1741,-1585.69,93.87,1156.62
9060,-3.8708,0.0317,0.1697,-491.94,-1718.69,-1405.94
9070,-3.8707,0.0048,0.1730,70.56,1718.81,578.43
9080,-3.8707,-0.0159,0.1797,617.43,-1859.38,-1421.57
9090,-3.8706,-0.0270,0.1880,1976.81,-984.44,109.68
9100,-3.8706,-0.0287,0.1985,554.93,78.06,1187.87
9110,-3.8706,-0.0178,0.2111,336.18,1421.81,1719.12
9120,-3.8706,0.0082,0.2214,1726.81,-968.81,1437.87
9130,-3.8706,0.0460,0.2263,1054.93,343.75,437.93
9140,-3.8707,0.0825,0.2225,1898.68,968.81,-1187.07
9150,-3.8707,0.1029,0.2101,-1429.44,484.50,516.05
9160,-3.8708,0.1068,0.1960,1179.93,-1109.19,-1968.38
9170,-3.8710,0.1055,0.1882,1679.93,1093.93,-62.13
9180,-3.8710,0.1077,0.1880,1508.06,93.93,-1577.76
9190,-3.8710,0.1132,0.1914,1789.31,62.68,1781.62
9200,-3.8710,0.1187,0.1980,-1507.57,500.18,1937.87
9210,-3.8710,0.1232,0.2091,-804.44,1343.93,1969.12
9220,-3.8710,0.1272,0.2225,-226.32,-1234.19,1797.24
9230,-3.8710,0.1312,0.2318,289.31,484.62,1953.55
9240,-3.8710,0.1350,0.2306,804.93,1672.12,-1905.82
9250,-3.8710,0.1377,0.2167,1289.31,1515.87,1391.05
9260,-3.8711,0.1404,0.1929,1633.06,-265.38,-593.38
9270,-3.8711,0.1454,0.1702,1976.81,687.74,703.49
9280,-3.8712,0.1549,0.1583,-1382.57,1781.49,1797.18
9290,-3.8713,0.1709,0.1582,-163.82,265.87,-874.69
9300,-3.8713,0.1913,0.1689,1883.06,250.31,1484.68
9310,-3.8713,0.2157,0.1887,492.43,1625.37,1047.18
9320,-3.8713,0.2432,0.2096,-382.57,156.62,1437.87
9330,-3.8713,0.2694,0.2246,-866.94,-1171.45,-1734.01
9340,-3.8713,0.2926,0.2307,-1507.57,750.49,-1062.07
9350,-3.8713,0.3114,0.2253,1461.18,1531.80,-1452.70
9360,-3.8713,0.3259,0.2106,-132.57,844.30,562.93
9370,-3.8715,0.3380,0.1930,1726.81,-1046.26,1203.49
9380,-3.8716,0.3500,0.1754,-726.32,703.74,1656.62
9390,-3.8717,0.3640,0.1635,804.93,-1546.20,-609.07
9400,-3.8717,0.3789,0.1598,-1398.19,922.55,-1187.19
9410,-3.8717,0.3901,0.1599,508.06,453.86,-1062.19
9420,-3.8717,0.3971,0.1594,1945.56,469.48,-1093.44
9430,-3.8717,0.3992,0.1577,-1163.82,406.98,-1046.57
9440,-3.8717,0.3967,0.1580,-898.19,188.23,-437.19
9450,-3.8716,0.3928,0.1594,-1210.69,219.48,765.93
9460,-3.8716,0.3850,0.1581,-1710.69,406.98,-1437.19
9470,-3.8715,0.3713,0.1577,1289.31,235.11,640.93
9480,-3.8715,0.3553,0.1608,-460.69,188.17,-1859.07
9490,-3.8715,0.3438,0.1609,1492.43,578.80,-827.82
9500,-3.8713,0.3387,0.1578,8.06,594.42,500.31
9510,-3.8713,0.3362,0.1570,-632.57,203.74,-1374.69
9520,-3.8712,0.3284,0.1544,-960.69,94.36,1094.06
9530,-3.8712,0.3105,0.1481,-1960.69,-233.76,-827.88
9540,-3.8711,0.2867,0.1460,-241.94,-1046.33,781.49
9550,-3.8711,0.2617,0.1500,711.18,-1311.95,1812.74
9560,-3.8711,0.2410,0.1586,1508.06,-796.39,1984.62
9570,-3.8711,0.2378,0.1698,-1148.19,297.30,1687.81
9580,-3.8711,0.2623,0.1797,-1554.44,1734.80,-1859.07
9590,-3.8710,0.3094,0.1953,1586.18,-999.51,47.18
9600,-3.8710,0.3641,0.2261,-382.57,1000.55,-905.88
9610,-3.8708,0.4158,0.2666,-1382.57,938.17,-1140.20
9620,-3.8707,0.4572,0.3005,1226.81,-1874.21,-1202.64
9630,-3.8706,0.4805,0.3147,-1476.32,-1530.40,1594.30
9640,-3.8706,0.4832,0.3008,1508.06,282.17,1531.86
9650,-3.8707,0.4663,0.2594,1851.81,-1499.08,1953.67
9660,-3.8710,0.4304,0.2062,-304.44,1203.98,-312.01
9670,-3.8711,0.3909,0.1547,-898.19,-1608.58,0.37
9680,-3.8713,0.3689,0.1139,-1960.69,-202.39,250.24
9690,-3.8716,0.3672,0.0913,-773.19,-1421.20,-1843.57
9700,-3.8717,0.3774,0.0863,-991.94,-311.83,-1109.25
9710,-3.8717,0.3944,0.0923,320.56,-952.39,1953.25
9720,-3.8717,0.4103,0.0995,-1507.57,-186.77,-1421.75
9730,-3.8716,0.4160,0.1046,523.68,735.17,453.31
9740,-3.8716,0.4094,0.1115,1258.06,1391.42,-1343.57
9750,-3.8715,0.3965,0.1177,414.31,-1733.58,47.06
9760,-3.8716,0.3877,0.1151,-1241.94,-936.77,-265.44
9770,-3.8716,0.3947,0.0967,1633.06,-1264.89,1625.18
9780,-3.8717,0.4167,0.0654,-1476.32,375.73,-1202.94
9790,-3.8717,0.4384,0.0352,1351.81,375.79,703.25
9800,-3.8718,0.4512,0.0184,117.43,500.85,-749.94
9810,-3.8718,0.4565,0.0159,1758.06,-1639.77,1796.88
9820,-3.8718,0.4545,0.0199,-1554.44,-1967.90,1234.38
9830,-3.8718,0.4518,0.0262,-1820.07,-1452.27,1953.12
9840,-3.8718,0.4586,0.0370,1836.18,-639.77,-406.25
9850,-3.8717,0.4757,0.0540,-1288.82,735.23,1906.31
9860,-3.8717,0.4982,0.0680,898.68,-1092.83,-249.94
9870,-3.8716,0.5208,0.0723,-226.32,704.04,953.25
9880,-3.8716,0.5372,0.0685,-1335.69,1250.98,-1749.88
9890,-3.8716,0.5480,0.0621,773.68,766.66,-1218.63
9900,-3.8716,0.5640,0.0557,-1851.32,-45.84,1703.19
9910,-3.8716,0.5867,0.0459,195.56,-873.90,531.31
9920,-3.8716,0.6036,0.0353,-898.19,1876.10,671.94
9930,-3.8716,0.6088,0.0334,1273.68,516.78,1671.94
9940,-3.8716,0.6068,0.0428,1929.93,282.41,-234.31
9950,-3.8715,0.6077,0.0598,1679.93,1485.53,-906.19
9960,-3.8713,0.6191,0.0801,1789.31,-342.59,-1187.44
9970,-3.8712,0.6409,0.0940,-741.94,-1748.84,-1890.50
9980,-3.8711,0.6683,0.0947,-1960.69,32.47,328.31
9990,-3.8711,0.6930,0.0874,1554.93,126.28,1531.43
10000,-3.8711,0.7050,0.0800,711.18,-811.16,1984.50
10010,-3.8711,0.7047,0.0740,-1757.57,-1764.28,1656.37
10020,-3.8711,0.7004,0.0660,-1788.82,1470.09,687.62
10030,-3.8712,0.6951,0.0524,1664.31,454.47,-796.75
10040,-3.8712,0.6869,0.0359,976.81,-1295.53,1250.06
10050,-3.8713,0.6741,0.0223,-70.07,595.03,-343.69
10060,-3.8713,0.6544,0.0138,-1710.69,-1139.34,-1093.75
10070,-3.8713,0.6295,0.0110,-226.32,1766.85,-1406.25
10080,-3.8713,0.6023,0.0099,586.18,1407.47,-1859.38
10090,-3.8713,0.5737,0.0020,1101.81,1266.78,1171.88
10100,-3.8715,0.5480,-0.0153,1445.56,251.10,-93.75
10110,-3.8715,0.5287,-0.0363,-1851.32,-1952.09,-1500.06
10120,-3.8715,0.5153,-0.0549,-320.07,-639.65,796.75
10130,-3.8716,0.5072,-0.0686,1961.18,969.73,-1375.12
10140,-3.8716,0.5063,-0.0778,929.93,-780.27,156.07
10150,-3.8717,0.5134,-0.0803,820.56,-1952.15,-1703.31
10160,-3.8717,0.5261,-0.0752,1726.81,1719.73,1296.69
10170,-3.8717,0.5364,-0.0636,-648.19,-1624.02,312.32
10180,-3.8718,0.5386,-0.0485,664.31,-139.59,-875.18
10190,-3.8718,0.5349,-0.0353,945.56,1797.91,-1781.37
10200,-3.8718,0.5320,-0.0288,476.81,-514.59,-1937.62
10210,-3.8718,0.5322,-0.0271,101.81,313.54,-1156.31
10220,-3.8718,0.5327,-0.0261,133.06,532.29,-250.06
10230,-3.8718,0.5330,-0.0255,195.56,657.29,-140.69
10240,-3.8718,0.5320,-0.0275,226.81,735.41,-625.06
10250,-3.8718,0.5231,-0.0349,101.81,485.41,-1031.31
10260,-3.8718,0.5016,-0.0420,-1038.82,-467.77,-515.75
10270,-3.8717,0.4697,-0.0343,211.18,-1374.02,1156.13
10280,-3.8717,0.4349,-0.0110,133.06,-389.71,-422.00
10290,-3.8716,0.4080,0.0140,-320.07,-1405.46,-1500.06
10300,-3.8715,0.3923,0.0282,226.81,1797.67,1062.50
10310,-3.8715,0.3865,0.0278,-1773.19,-389.89,-1750.00
10320,-3.8715,0.3896,0.0198,1476.81,-436.77,1812.50
10330,-3.8715,0.3994,0.0131,1883.06,-1468.02,406.25
10340,-3.8716,0.4141,0.0129,-866.94,1672.61,-1234.38
10350,-3.8716,0.4342,0.0201,1008.06,1657.04,1390.62
10360,-3.8716,0.4563,0.0331,-413.82,-1421.08,875.00
10370,-3.8716,0.4742,0.0513,-1585.69,235.23,1140.69
10380,-3.8716,0.4852,0.0758,711.18,-1436.58,1796.94
10390,-3.8716,0.4906,0.1034,-1882.57,1704.04,-874.88
10400,-3.8715,0.4915,0.1256,-1195.07,1235.29,1000.18
10410,-3.8715,0.4852,0.1370,-1085.69,79.04,-1015.38
10420,-3.8713,0.4688,0.1404,-1882.57,1532.17,718.99
10430,-3.8713,0.4404,0.1404,8.06,1969.67,-1796.63
10440,-3.8713,0.4048,0.1407,383.06,1969.60,-499.76
10450,-3.8712,0.3755,0.1421,-179.44,-1983.64,62.74
10460,-3.8713,0.3623,0.1395,70.56,-1811.77,-577.88
10470,-3.8713,0.3639,0.1293,-1616.94,1860.05,1890.87
10480,-3.8713,0.3748,0.1193,-1413.82,547.55,250.24
10490,-3.8715,0.3893,0.1212,-23.19,-733.70,-734.19
10500,-3.8715,0.3997,0.1378,1836.18,-483.64,-468.57
10510,-3.8713,0.4034,0.1637,-835.69,1641.36,1375.24
10520,-3.8712,0.4031,0.1927,-351.32,953.86,203.43
10530,-3.8712,0.3975,0.2179,-398.19,672.61,-1202.76
10540,-3.8711,0.3859,0.2288,-1116.94,-108.64,78.49
10550,-3.8712,0.3734,0.2222,1398.68,1281.98,-843.32
10560,-3.8715,0.3955,0.1982,226.81,578.86,94.12
10570,-3.8716,0.4138,0.2125,-1366.94,1375.73,-30.88
10580,-3.8715,0.4215,0.2314,976.81,-796.08,1390.99
10590,-3.8715,0.4144,0.2515,1961.18,1625.79,-358.95
10600,-3.8713,0.3920,0.2651,1054.93,188.29,1828.61
10610,-3.8713,0.3613,0.2665,-1820.07,1938.23,-796.39
10620,-3.8713,0.3352,0.2545,-1741.94,-1889.95,-812.01
10630,-3.8713,0.3218,0.2301,-1085.69,578.74,1562.99
10640,-3.8715,0.3228,0.2036,1195.56,1453.74,-1093.32
10650,-3.8715,0.3368,0.1859,1320.56,-1936.89,140.99
10660,-3.8716,0.3612,0.1824,-882.57,-202.51,-1640.32
10670,-3.8716,0.3884,0.1964,-1757.57,-655.58,-1562.19
10680,-3.8715,0.4070,0.2227,1726.81,1141.36,94.12
10690,-3.8715,0.4059,0.2496,101.81,500.79,-1452.70
10700,-3.8713,0.3846,0.2664,-38.82,-46.14,1297.30
10710,-3.8713,0.3529,0.2638,1242.43,-1905.52,-405.76
10720,-3.8712,0.3151,0.2443,1179.93,1766.30,1016.11
10730,-3.8712,0.2787,0.2177,336.18,-733.76,1203.55
10740,-3.8713,0.2509,0.1886,-320.07,-140.14,-374.63
10750,-3.8713,0.2299,0.1613,117.43,141.11,375.37
10760,-3.8715,0.2168,0.1466,1429.93,641.05,797.18
10770,-3.8716,0.2137,0.1539,-241.94,-1234.01,-1484.13
10780,-3.8716,0.2202,0.1799,-632.57,-296.51,-1312.26
10790,-3.8715,0.2334,0.2161,195.56,-968.32,1844.06
10800,-3.8713,0.2485,0.2600,1883.06,-343.32,-780.88
10810,-3.8711,0.2637,0.3051,-179.44,1281.68,656.74
10820,-3.8711,0.2788,0.3312,1758.06,-952.64,-124.45
10830,-3.8711,0.2889,0.3270,-304.44,-1608.89,-77.51
10840,-3.8711,0.2876,0.2994,992.43,1859.92,1297.49
10850,-3.8712,0.2762,0.2610,820.56,-1671.33,1063.05
10860,-3.8713,0.2623,0.2245,-632.57,1406.74,937.99
10870,-3.8715,0.2521,0.1975,1586.18,734.86,-1249.57
10880,-3.8715,0.2440,0.1804,273.68,1281.74,-484.01
10890,-3.8713,0.2271,0.1725,-757.57,-905.82,-734.07
10900,-3.8711,0.1919,0.1716,1070.56,-1921.45,969.06
10910,-3.8710,0.1453,0.1748,570.56,1969.12,-687.19
10920,-3.8707,0.0985,0.1760,-1398.19,-1624.76,1031.56
10930,-3.8706,0.0575,0.1727,617.43,-1468.57,1000.31
10940,-3.8706,0.0278,0.1664,-632.57,-1890.56,-1109.07
10950,-3.8706,0.0137,0.1588,-429.44,1296.88,-374.69
10960,-3.8705,0.0135,0.1525,1758.06,328.12,515.93
10970,-3.8705,0.0226,0.1449,1742.43,-484.38,1781.49
10980,-3.8705,0.0363,0.1392,-1101.32,-1453.12,-1218.51
10990,-3.8705,0.0555,0.1415,648.68,1812.56,-1577.88
11000,-3.8705,0.0840,0.1509,-882.57,-1890.56,843.99
11010,-3.8706,0.1202,0.1637,-1241.94,-687.38,-1062.26
11020,-3.8706,0.1587,0.1761,-601.32,953.31,890.93
11030,-3.8707,0.1938,0.1853,320.56,-1452.82,-1093.44
11040,-3.8707,0.2220,0.1908,820.56,-280.88,1109.68
11050,-3.8708,0.2427,0.1964,429.93,422.30,-296.51
11060,-3.8708,0.2566,0.2043,-929.44,1141.05,-1359.01
11070,-3.8708,0.2664,0.2095,851.81,-1843.26,1265.99
11080,-3.8710,0.2740,0.2074,-1898.19,-1187.01,-421.51
11090,-3.8710,0.2778,0.2021,-913.82,-1452.64,1875.37
11100,-3.8710,0.2755,0.1997,-429.44,1875.49,0.37
11110,-3.8711,0.2644,0.1996,-726.32,1562.99,-1765.26
11120,-3.8711,0.2426,0.1997,1851.81,1547.36,1000.37
11130,-3.8711,0.2134,0.1989,-945.07,1562.93,78.49
11140,-3.8712,0.1826,0.1940,-679.44,1453.49,-1249.63
11150,-3.8712,0.1556,0.1875,-616.94,828.43,750.37
11160,-3.8713,0.1354,0.1832,-70.07,0.24,-1796.51
11170,-3.8715,0.1200,0.1827,1336.18,-546.63,-296.57
11180,-3.8715,0.1028,0.1887,-632.57,-609.19,-1890.32
11190,-3.8715,0.0818,0.2001,1164.31,156.43,1500.37
11200,-3.8715,0.0657,0.2178,-1523.19,1609.50,1703.49
11210,-3.8715,0.0641,0.2489,414.31,-124.88,-1499.63
11220,-3.8715,0.0822,0.2921,211.18,-140.50,-46.45
11230,-3.8713,0.1172,0.3306,-1476.32,1390.75,-1530.70
11240,-3.8712,0.1604,0.3529,-991.94,-1687.32,1359.99
11250,-3.8712,0.2059,0.3590,539.31,1172.18,-889.95
11260,-3.8712,0.2505,0.3508,-1632.57,1953.49,-1405.58
11270,-3.8713,0.2875,0.3281,70.56,906.74,-296.20
11280,-3.8715,0.3130,0.3008,804.93,-1999.45,-405.64
11290,-3.8716,0.3289,0.2858,70.56,-1499.39,-140.08
11300,-3.8716,0.3390,0.2843,-1898.19,578.74,1453.67
11310,-3.8716,0.3485,0.2893,-601.32,391.24,625.55
11320,-3.8716,0.3605,0.2906,617.43,1031.92,813.05
11330,-3.8716,0.3752,0.2792,-1851.32,1203.80,953.67
11340,-3.8716,0.3914,0.2539,39.31,-264.89,344.24
11350,-3.8717,0.4036,0.2294,-1898.19,500.73,-890.14
11360,-3.8717,0.4099,0.2213,-335.69,1360.11,-1890.20
11370,-3.8717,0.4125,0.2252,476.81,328.92,-1937.07
11380,-3.8717,0.4143,0.2292,804.93,828.92,-999.57
11390,-3.8716,0.4163,0.2266,1039.31,1344.54,187.93
11400,-3.8716,0.4170,0.2194,1289.31,1000.79,1234.80
11410,-3.8716,0.4150,0.2141,1383.06,78.92,-1765.20
11420,-3.8716,0.4106,0.2158,1133.06,-592.96,-734.01
11430,-3.8715,0.4028,0.2242,570.56,-374.21,812.87
11440,-3.8715,0.3896,0.2325,-429.44,703.86,-905.82
11450,-3.8713,0.3708,0.2375,1883.06,1766.36,1422.30
11460,-3.8713,0.3499,0.2388,-523.19,-1593.08,-1265.20
11470,-3.8713,0.3320,0.2380,789.31,-1436.83,-1265.20
11480,-3.8713,0.3235,0.2350,-1491.94,-1530.64,1328.55
11490,-3.8715,0.3300,0.2211,1414.31,-1921.26,-1546.45
11500,-3.8716,0.3508,0.1982,-1757.57,297.49,-1124.57
11510,-3.8717,0.3827,0.1793,914.31,1375.67,-577.76
11520,-3.8717,0.4235,0.1716,992.43,-1046.14,812.81
11530,-3.8717,0.4637,0.1824,-1788.82,1969.54,562.81
11540,-3.8717,0.4913,0.2136,-632.57,-655.40,-718.44
11550,-3.8715,0.5065,0.2576,-1101.32,-655.33,265.99
11560,-3.8713,0.5205,0.2990,836.18,969.73,-1780.76
11570,-3.8712,0.5398,0.3215,-1366.94,-1733.40,-921.33
11580,-3.8711,0.5636,0.3171,1101.81,1157.29,1484.99
11590,-3.8712,0.5942,0.2814,148.68,594.85,-15.01
11600,-3.8713,0.6254,0.2245,70.56,16.78,-1358.83
11610,-3.8716,0.6473,0.1625,54.93,735.60,-390.20
11620,-3.8717,0.6582,0.1083,-1132.57,798.10,1187.81
11630,-3.8718,0.6565,0.0822,258.06,1860.66,1922.06
11640,-3.8718,0.6431,0.0912,39.31,-1483.09,-1109.25
11650,-3.8717,0.6274,0.1260,-1679.44,-326.90,-1437.38
11660,-3.8716,0.6212,0.1704,320.56,126.22,-1140.38
11670,-3.8715,0.6288,0.2018,-476.32,1813.66,-1718.44
11680,-3.8715,0.6455,0.2045,492.43,1829.35,-62.13
11690,-3.8715,0.6710,0.1813,-1366.94,-1826.90,-1171.51
11700,-3.8716,0.7086,0.1451,1898.68,-795.59,-921.57
11710,-3.8717,0.7500,0.1078,-1288.82,-1420.53,-1765.38
11720,-3.8718,0.7821,0.0809,8.06,1798.34,-1968.57
11730,-3.8719,0.7915,0.0654,117.43,-1639.10,-624.88
11740,-3.8719,0.7749,0.0526,1320.56,376.53,1562.62
11750,-3.8719,0.7462,0.0408,-804.44,-1264.16,109.44
11760,-3.8721,0.7198,0.0338,-476.32,1220.15,-890.56
11770,-3.8721,0.7043,0.0300,148.68,329.53,-1312.44
11780,-3.8721,0.7052,0.0288,-1835.69,-154.91,-968.75
11790,-3.8719,0.7228,0.0436,-1726.32,-311.16,156.25
11800,-3.8719,0.7517,0.0785,523.68,1579.53,1984.44
11810,-3.8718,0.7817,0.1178,226.81,-1951.66,781.37
11820,-3.8717,0.8007,0.1448,70.56,-920.35,62.68
11830,-3.8717,0.8053,0.1541,-1507.57,-1467.22,-1140.38
11840,-3.8716,0.8018,0.1479,-913.82,-279.72,343.99
11850,-3.8716,0.7930,0.1309,-1366.94,-1060.97,328.37
11860,-3.8717,0.7769,0.1128,1508.06,751.53,-390.38
11870,-3.8717,0.7559,0.0999,-554.44,-1561.04,-1484.19
11880,-3.8717,0.7401,0.0878,758.06,782.71,672.06
11890,-3.8718,0.7328,0.0697,-1257.57,-764.22,-1437.38
11900,-3.8718,0.7253,0.0450,1804.93,923.28,1078.25
11910,-3.8718,0.7095,0.0244,851.81,1767.03,343.81
11920,-3.8718,0.6825,0.0155,-1179.44,-873.66,250.00
11930,-3.8718,0.6467,0.0128,-632.57,1985.66,687.50
11940,-3.8718,0.6108,0.0070,-1210.69,1641.85,1234.38
11950,-3.8718,0.5828,-0.0081,-1804.44,891.78,1296.88
11960,-3.8718,0.5620,-0.0306,-1398.19,-1030.15,546.81
11970,-3.8719,0.5460,-0.0564,-54.44,79.16,-1093.81
11980,-3.8719,0.5299,-0.0778,1898.68,782.29,843.63
11990,-3.8721,0.5092,-0.0870,-163.82,-1952.15,-734.56
12000,-3.8721,0.4901,-0.0803,1179.93,860.35,-1172.06
12010,-3.8721,0.4839,-0.0476,-1257.57,1719.67,-672.06
12020,-3.8719,0.4972,0.0165,1945.56,1907.17,187.38
12030,-3.8719,0.5326,0.0931,-351.32,-1889.71,1828.12
12040,-3.8718,0.5825,0.1583,179.93,-77.09,-1999.88
12050,-3.8717,0.6315,0.1989,-1429.44,266.72,-296.57
12060,-3.8715,0.6698,0.2119,836.18,1454.35,281.62
12070,-3.8715,0.6925,0.2133,1742.43,-873.72,-1218.38
12080,-3.8715,0.6947,0.2144,648.68,-701.78,-655.88
12090,-3.8715,0.6757,0.2120,929.93,-561.16,-1187.13
12100,-3.8715,0.6392,0.2032,-1507.57,-858.09,1781.62
12110,-3.8715,0.5939,0.1908,1820.56,-1983.15,844.12
12120,-3.8715,0.5518,0.1796,23.68,423.03,47.24
12130,-3.8716,0.5271,0.1714,-1366.94,-1014.59,-874.69
12140,-3.8716,0.5251,0.1639,-523.19,1938.48,-1874.69
12150,-3.8716,0.5372,0.1591,-773.19,985.35,1203.43
12160,-3.8716,0.5537,0.1616,773.68,360.41,328.43
12170,-3.8716,0.5680,0.1711,-1116.94,688.54,125.31
12180,-3.8716,0.5729,0.1896,711.18,1907.35,1515.93
12190,-3.8715,0.5621,0.2158,1336.18,266.72,203.49
12200,-3.8715,0.5421,0.2411,-38.82,-373.96,-655.88
12210,-3.8713,0.5267,0.2534,1398.68,-1139.59,1391.05
12220,-3.8713,0.5248,0.2467,-570.07,438.48,531.74
12230,-3.8715,0.5380,0.2266,-820.07,-420.90,78.55
12240,-3.8717,0.5598,0.2036,867.43,1001.04,984.80
12250,-3.8719,0.5804,0.1893,-335.69,-1936.46,984.74
12260,-3.8722,0.5914,0.1869,-1695.07,235.47,1109.74
12270,-3.8724,0.5890,0.1936,-288.82,-77.03,-1437.19
12280,-3.8726,0.5782,0.2094,-601.32,782.35,-1390.26
12290,-3.8726,0.5697,0.2328,-1976.32,-1202.03,859.74
12300,-3.8727,0.5707,0.2551,929.93,1797.97,-140.20
12310,-3.8727,0.5857,0.2714,1054.93,657.35,-1358.89
12320,-3.8727,0.6173,0.2839,-1023.19,-1264.53,656.74
12330,-3.8728,0.6626,0.2957,-976.32,344.91,-1952.58
12340,-3.8729,0.7162,0.3132,820.56,1845.03,-124.45
12350,-3.8729,0.7697,0.3378,-320.07,95.09,-733.76
12360,-3.8728,0.8081,0.3698,-1476.32,-764.16,1469.36
12370,-3.8727,0.8197,0.4188,-554.44,-670.35,-749.33
12380,-3.8723,0.7954,0.4844,929.93,1610.96,750.79
12390,-3.8719,0.7263,0.5485,1820.56,-1998.47,516.54
12400,-3.8717,0.6310,0.5864,976.81,-1795.47,-92.71
12410,-3.8713,0.5521,0.5840,773.68,-936.28,610.47
12420,-3.8712,0.5117,0.5392,-1320.07,-1248.96,329.22
12430,-3.8713,0.4972,0.4700,1508.06,1016.60,-1764.59
12440,-3.8715,0.4869,0.4148,-351.32,157.17,125.92
12450,-3.8717,0.4703,0.3920,-1663.82,1094.67,1516.42
12460,-3.8718,0.4478,0.3905,211.18,-1827.21,-1421.14
12470,-3.8717,0.4240,0.3995,1320.56,1985.23,922.61
12480,-3.8716,0.4060,0.4119,-1726.32,-858.58,1985.11
12490,-3.8715,0.3959,0.4191,-23.19,719.48,-1577.33
12500,-3.8713,0.3927,0.4196,-1320.07,1641.36,563.29
12510,-3.8713,0.4000,0.4154,-1726.32,1703.86,110.17
12520,-3.8715,0.4153,0.4006,-788.82,1172.61,1672.67
12530,-3.8716,0.4282,0.3739,1164.31,-717.96,-1030.52
12540,-3.8716,0.4354,0.3507,-1179.44,-139.83,969.42
12550,-3.8717,0.4357,0.3341,-257.57,891.42,-186.83
12560,-3.8716,0.4218,0.3235,-226.32,-1233.58,391.24
12570,-3.8716,0.3928,0.3267,1992.43,1407.04,-1108.76
12580,-3.8715,0.3600,0.3384,-1710.69,1813.23,1953.74
12590,-3.8713,0.3318,0.3511,-1913.82,-686.83,984.99
12600,-3.8712,0.3082,0.3606,-1523.19,938.11,188.17
12610,-3.8712,0.2913,0.3584,-538.82,-1843.20,-952.45
12620,-3.8711,0.2825,0.3405,1289.31,1875.55,828.80
12630,-3.8711,0.2754,0.3146,164.31,-421.33,813.11
12640,-3.8712,0.2653,0.2906,-741.94,266.11,-1327.51
12650,-3.8713,0.2526,0.2723,1961.18,1203.61,-811.95
12660,-3.8715,0.2405,0.2609,336.18,-1140.14,-155.76
12670,-3.8715,0.2321,0.2595,-1210.69,1391.05,1875.49
12680,-3.8715,0.2311,0.2675,1711.18,1219.18,1672.36
12690,-3.8715,0.2379,0.2744,1586.18,-1765.20,-1093.26
12700,-3.8713,0.2465,0.2761,-1538.82,-874.57,766.11
12710,-3.8713,0.2500,0.2740,-445.07,-655.82,-1468.26
12720,-3.8712,0.2451,0.2684,8.06,-921.39,359.86
12730,-3.8712,0.2339,0.2607,-616.94,-1640.20,-1452.64
12740,-3.8711,0.2238,0.2494,1945.56,1375.43,453.61
12750,-3.8711,0.2197,0.2325,648.68,-77.70,1359.80
12760,-3.8711,0.2211,0.2100,133.06,1766.05,953.55
12770,-3.8712,0.2216,0.1825,304.93,-1124.57,-202.76
12780,-3.8712,0.2166,0.1588,367.43,-640.20,-780.94
12790,-3.8711,0.2069,0.1492,-273.19,328.49,62.81
12800,-3.8711,0.1954,0.1523,-1507.57,-905.88,-1687.26
12810,-3.8710,0.1875,0.1608,1023.68,-499.63,1359.62
12820,-3.8708,0.1868,0.1691,8.06,578.49,515.93
12830,-3.8708,0.1920,0.1748,-85.69,1640.93,-765.32
12840,-3.8707,0.1979,0.1771,586.18,-1624.63,1140.93
12850,-3.8707,0.2001,0.1776,1336.18,-1327.76,-1749.69
12860,-3.8707,0.2021,0.1777,1617.43,-1265.26,-1218.44
12870,-3.8707,0.2081,0.1772,1883.06,-1249.63,-1187.19
12880,-3.8707,0.2183,0.1748,-1351.32,-1312.13,-1593.44
12890,-3.8707,0.2311,0.1726,-54.44,-1624.63,1594.06
12900,-3.8707,0.2434,0.1729,1586.18,-1905.82,219.06
12910,-3.8708,0.2515,0.1747,-835.69,-1874.57,-1265.32
12920,-3.8708,0.2551,0.1818,195.56,-1640.14,1469.06
12930,-3.8708,0.2615,0.1962,664.31,-733.89,250.31
12940,-3.8710,0.2737,0.2144,1476.81,1109.86,-890.26
12950,-3.8710,0.2899,0.2316,-960.69,-562.01,-1843.38
12960,-3.8710,0.3070,0.2411,1117.43,1641.17,1203.55
12970,-3.8710,0.3188,0.2412,-695.07,-1140.08,31.68
12980,-3.8711,0.3225,0.2385,820.56,-1124.39,-1312.07
12990,-3.8711,0.3181,0.2362,1289.31,-1468.14,1125.43
13000,-3.8712,0.3099,0.2357,726.81,-1765.01,-608.95
13010,-3.8712,0.3031,0.2366,-320.07,-1827.58,1578.55
13020,-3.8713,0.2936,0.2330,-1195.07,-1718.20,-312.07
13030,-3.8713,0.2764,0.2246,1586.18,1828.67,-1780.82
13040,-3.8713,0.2504,0.2183,-616.94,750.49,-1921.45
13050,-3.8713,0.2219,0.2200,54.93,-62.01,-30.88
13060,-3.8712,0.1957,0.2312,414.31,156.68,-93.32
13070,-3.8710,0.1639,0.2574,1054.93,1594.12,1828.55
13080,-3.8707,0.1285,0.3016,992.43,953.43,484.86
13090,-3.8706,0.1111,0.3490,461.18,-1390.38,1297.42
13100,-3.8706,0.1228,0.3767,-1773.19,672.06,-1343.08
13110,-3.8706,0.1467,0.3676,-273.19,218.93,922.61
13120,-3.8707,0.1652,0.3300,-1210.69,-952.88,94.42
13130,-3.8710,0.1780,0.2892,1148.68,-1765.32,688.11
13140,-3.8712,0.1877,0.2600,-1210.69,1015.93,1234.92
13150,-3.8715,0.1949,0.2469,39.31,1281.62,-327.64
13160,-3.8715,0.2074,0.2454,961.18,-390.26,281.68
13170,-3.8716,0.2351,0.2487,-1445.07,-593.38,-1327.70
13180,-3.8716,0.2797,0.2524,-1898.19,-171.45,-1796.45
13190,-3.8716,0.3334,0.2551,-195.07,312.99,1766.11
13200,-3.8716,0.3903,0.2535,-1320.07,656.86,719.24
13210,-3.8717,0.4399,0.2397,1961.18,453.86,-718.26
13220,-3.8717,0.4706,0.2151,320.56,-1311.65,1844.18
13230,-3.8717,0.4821,0.1914,242.43,-467.83,640.99
13240,-3.8717,0.4824,0.1777,1711.18,500.92,156.62
13250,-3.8717,0.4771,0.1740,1758.06,-1249.08,703.43
13260,-3.8717,0.4630,0.1735,1070.56,-1733.46,-1984.07
13270,-3.8717,0.4423,0.1721,-726.32,-1796.02,-202.82
13280,-3.8716,0.4253,0.1718,617.43,-1967.90,-1562.19
13290,-3.8715,0.4181,0.1768,-1554.44,1985.17,-1921.57
13300,-3.8713,0.4180,0.1886,1523.68,-1374.21,1844.06
13310,-3.8712,0.4209,0.2014,1508.06,141.42,937.87
13320,-3.8712,0.4282,0.2119,1883.06,1782.04,-952.76
13330,-3.8711,0.4432,0.2186,-1179.44,-874.21,187.87
13340,-3.8711,0.4664,0.2198,742.43,-14.77,750.37
13350,-3.8711,0.4919,0.2178,-288.82,141.48,687.93
13360,-3.8712,0.5098,0.2178,-1023.19,-124.08,-77.76
13370,-3.8712,0.5168,0.2192,1258.06,-124.02,-1280.88
13380,-3.8712,0.5186,0.2131,-1835.69,63.48,531.68
13390,-3.8713,0.5260,0.1968,-1616.94,-717.77,1140.99
13400,-3.8715,0.5460,0.1787,-663.82,1188.48,1531.62
13410,-3.8716,0.5723,0.1665,1898.68,-1123.96,-1452.82
13420,-3.8716,0.5951,0.1628,1258.06,1313.60,1109.68
13430,-3.8716,0.6082,0.1680,179.93,844.91,1203.43
13440,-3.8716,0.6130,0.1753,1851.81,1501.16,1906.56
13450,-3.8716,0.6141,0.1741,-1523.19,-1561.34,-999.69
13460,-3.8716,0.6123,0.1582,-1382.57,-1717.59,-124.69
13470,-3.8716,0.6122,0.1335,-1616.94,251.16,-374.69
13480,-3.8716,0.6201,0.1099,-1632.57,1094.91,1843.99
13490,-3.8717,0.6365,0.0895,-616.94,-1936.34,-999.82
13500,-3.8717,0.6559,0.0728,1476.81,-545.65,406.37
13510,-3.8718,0.6711,0.0607,-38.82,1313.72,-1046.75
13520,-3.8718,0.6803,0.0532,1914.31,-233.09,-1281.19
13530,-3.8718,0.6876,0.0487,-913.82,-1186.22,-406.19
13540,-3.8717,0.6995,0.0461,23.68,-1764.28,1015.69
13550,-3.8717,0.7203,0.0422,1539.31,1907.59,-1874.94
13560,-3.8717,0.7450,0.0297,211.18,1407.65,-1453.06
13570,-3.8717,0.7648,0.0099,-632.57,-201.72,-1796.88
13580,-3.8717,0.7806,-0.0126,1898.68,1267.09,953.12
13590,-3.8718,0.7898,-0.0377,-70.07,-1607.91,-890.69
13600,-3.8718,0.7933,-0.0592,1101.81,-826.60,1015.50
13610,-3.8719,0.8003,-0.0724,1554.93,423.40,-906.37
13620,-3.8719,0.8091,-0.0784,-1554.44,-1264.10,1593.57
13630,-3.8719,0.8167,-0.0808,-429.44,1970.28,624.82
13640,-3.8719,0.8262,-0.0811,539.31,1657.84,484.19
13650,-3.8719,0.8385,-0.0784,1758.06,1626.59,921.69
13660,-3.8719,0.8510,-0.0770,-663.82,1970.34,1140.44
13670,-3.8719,0.8590,-0.0818,929.93,-1857.73,671.69
13680,-3.8721,0.8575,-0.0913,1961.18,1532.90,-656.43
13690,-3.8721,0.8435,-0.1013,1773.68,314.15,1421.69
13700,-3.8722,0.8190,-0.1093,-23.19,-967.16,-437.74
13710,-3.8722,0.7899,-0.1149,836.18,-1982.79,-1687.74
13720,-3.8722,0.7577,-0.1177,1117.43,1298.40,1890.38
13730,-3.8722,0.7236,-0.1162,992.43,938.96,-1984.62
13740,-3.8722,0.6925,-0.1123,633.06,1126.40,-1218.99
13750,-3.8721,0.6653,-0.1064,648.68,1626.34,499.76
13760,-3.8721,0.6415,-0.0999,1164.31,-1623.72,-1172.12
13770,-3.8719,0.6222,-0.0929,-1882.57,-780.03,937.26
13780,-3.8719,0.6071,-0.0864,-351.32,110.53,-1625.18
13790,-3.8719,0.5922,-0.0804,1711.18,938.66,-453.31
13800,-3.8718,0.5739,-0.0698,-195.07,1704.22,874.82
13810,-3.8718,0.5549,-0.0536,1461.18,-936.40,-1203.31
13820,-3.8717,0.5396,-0.0370,-960.69,1141.66,1312.38
13830,-3.8717,0.5267,-0.0236,1070.56,-733.34,-468.87
13840,-3.8716,0.5171,-0.0103,-570.07,985.35,953.06
13850,-3.8716,0.5129,0.0057,-1804.44,-1311.52,1796.81
13860,-3.8716,0.5149,0.0226,1664.31,735.35,-1343.75
13870,-3.8716,0.5220,0.0389,1914.31,-1108.40,-93.75
13880,-3.8715,0.5298,0.0548,-1179.44,985.35,1140.69
13890,-3.8715,0.5286,0.0704,-179.44,-983.40,-1968.69
13900,-3.8715,0.5118,0.0868,-335.69,1016.60,-1062.38
13910,-3.8713,0.4849,0.1027,1523.68,-889.65,234.50
13920,-3.8713,0.4558,0.1173,-1929.44,1141.54,-1937.32
13930,-3.8713,0.4305,0.1311,-1648.19,-983.52,-218.57
13940,-3.8712,0.4159,0.1461,-882.57,782.04,718.99
13950,-3.8712,0.4181,0.1627,1242.43,-1296.08,562.74
13960,-3.8713,0.4404,0.1794,1523.68,828.92,-859.07
13970,-3.8713,0.4789,0.1978,383.06,-1030.40,531.56
13980,-3.8715,0.5258,0.2260,1304.93,1313.42,1359.74
13990,-3.8716,0.5731,0.2677,-695.07,922.85,-1343.32
14000,-3.8716,0.6119,0.3097,1367.43,-1733.28,1031.74
14010,-3.8716,0.6328,0.3392,-1663.82,-358.22,422.42
14020,-3.8716,0.6313,0.3500,1008.06,-576.90,500.61
14030,-3.8716,0.6084,0.3361,820.56,798.10,1141.30
14040,-3.8716,0.5623,0.3081,1883.06,-983.22,-1827.51
14050,-3.8716,0.4989,0.2856,-23.19,-561.46,-1077.58
14060,-3.8716,0.4390,0.2758,-132.57,563.42,-1218.20
14070,-3.8716,0.3962,0.2732,195.56,-702.27,1922.36
14080,-3.8716,0.3663,0.2694,-1273.19,-1030.52,922.36
14090,-3.8716,0.3391,0.2638,-1101.32,-1514.95,203.61
14100,-3.8717,0.3135,0.2629,-585.69,1766.24,-15.14
14110,-3.8716,0.2937,0.2728,133.06,1656.86,719.24
14120,-3.8716,0.2816,0.2898,1601.81,-1077.58,-1171.39
14130,-3.8715,0.2745,0.3038,54.93,1094.30,-1983.83
14140,-3.8713,0.2660,0.3079,-851.32,-1108.89,1234.92
14150,-3.8713,0.2531,0.3046,-1945.07,-593.26,-624.45
14160,-3.8712,0.2417,0.2999,398.68,-1015.14,219.30
14170,-3.8712,0.2373,0.2971,-1054.44,-1608.95,297.42
14180,-3.8713,0.2390,0.2981,-1616.94,-1968.32,-30.70
14190,-3.8713,0.2490,0.3051,-1398.19,-1843.32,-265.08
14200,-3.8712,0.2654,0.3148,-116.94,-952.70,234.92
14210,-3.8712,0.2750,0.3213,1976.81,297.36,1672.49
14220,-3.8712,0.2719,0.3250,-788.82,1125.49,-61.89
14230,-3.8711,0.2606,0.3269,-1195.07,1594.24,-1811.89
14240,-3.8710,0.2455,0.3225,1367.43,1844.24,16.24
14250,-3.8710,0.2286,0.3123,-570.07,1281.68,-1905.64
14260,-3.8708,0.2122,0.3057,1273.68,-30.82,344.30
14270,-3.8708,0.1981,0.3042,-835.69,-874.63,1844.30
14280,-3.8708,0.1875,0.3021,1367.43,-1062.13,-1405.70
14290,-3.8708,0.1809,0.2990,8.06,-1327.76,-968.20
14300,-3.8708,0.1786,0.2969,-835.69,-1734.07,-890.08
14310,-3.8708,0.1755,0.2982,-1132.57,-1999.69,-1218.20
14320,-3.8708,0.1691,0.3029,-1523.19,-1827.82,-1811.95
14330,-3.8708,0.1593,0.3048,1648.68,-1234.07,1594.30
14340,-3.8708,0.1497,0.3019,398.68,-984.07,844.30
14350,-3.8710,0.1458,0.2966,-835.69,-1359.13,-390.08
14360,-3.8710,0.1487,0.2925,-1335.69,1968.99,1750.55
14370,-3.8711,0.1577,0.2898,-960.69,1437.74,-546.33
14380,-3.8711,0.1669,0.2861,195.56,1094.06,1656.80
14390,-3.8711,0.1670,0.2803,1367.43,625.31,688.05
14400,-3.8711,0.1537,0.2681,1383.06,-124.69,62.99
14410,-3.8712,0.1315,0.2479,-320.07,-1687.26,-358.89
14420,-3.8712,0.1106,0.2266,836.18,-265.38,-562.07
14430,-3.8712,0.0928,0.2081,-1835.69,1000.18,-515.20
14440,-3.8712,0.0704,0.1925,-116.94,-1359.25,-30.88
14450,-3.8711,0.0441,0.1780,1023.68,640.75,953.49
14460,-3.8711,0.0216,0.1633,1648.68,-1218.69,-1405.94
14470,-3.8710,0.0031,0.1478,-1226.32,906.25,937.81
14480,-3.8710,-0.0161,0.1342,398.68,-1078.12,-390.38
14490,-3.8708,-0.0319,0.1268,1945.56,1187.44,-1984.13
14500,-3.8707,-0.0399,0.1281,-70.07,249.88,187.74
14510,-3.8707,-0.0411,0.1367,-1101.32,406.13,-1452.88
14520,-3.8706,-0.0406,0.1450,-1257.57,1515.50,1203.37
14530,-3.8706,-0.0358,0.1503,-1195.07,-1422.00,-452.88
14540,-3.8705,-0.0156,0.1553,-570.07,-750.12,468.99
14550,-3.8706,0.0189,0.1565,-1991.94,-109.44,-265.38
14560,-3.8706,0.0602,0.1527,-1570.07,31.25,1969.06
14570,-3.8707,0.1053,0.1512,-288.82,-453.06,-406.01
14580,-3.8707,0.1504,0.1565,1492.43,-640.44,765.87
14590,-3.8708,0.1923,0.1687,-741.94,31.49,-1921.57
14600,-3.8708,0.2316,0.1831,617.43,1594.12,265.93
14610,-3.8710,0.2690,0.1963,1648.68,-562.07,-624.69
14620,-3.8710,0.3060,0.2080,-1554.44,1125.49,-1015.26
14630,-3.8710,0.3397,0.2141,-820.07,-1374.45,-968.38
14640,-3.8710,0.3628,0.2144,-507.57,-593.14,-1077.76
14650,-3.8710,0.3726,0.2109,-1554.44,-561.83,1578.49
14660,-3.8711,0.3690,0.2050,-304.44,-999.33,-968.38
14670,-3.8711,0.3541,0.2014,-757.57,-1764.95,156.62
14680,-3.8712,0.3336,0.2051,1336.18,1781.92,1750.37
14690,-3.8712,0.3154,0.2139,-1288.82,-1749.39,203.49
14700,-3.8713,0.3038,0.2227,383.06,-624.39,-437.13
14710,-3.8713,0.2991,0.2292,-1101.32,500.55,-655.82
14720,-3.8713,0.3005,0.2340,-1710.69,1344.30,-983.95
14730,-3.8713,0.3062,0.2360,-1523.19,1953.67,-1640.20
14740,-3.8713,0.3136,0.2340,-804.44,-1796.33,1422.30
14750,-3.8713,0.3187,0.2290,148.68,1953.74,281.68
14760,-3.8715,0.3180,0.2234,804.93,1313.11,-812.07
14770,-3.8715,0.3135,0.2180,711.18,594.36,-1515.20
14780,-3.8715,0.3054,0.2137,133.06,-93.14,-1734.01
14790,-3.8715,0.2948,0.2113,-898.19,-640.08,-1796.51
14800,-3.8715,0.2865,0.2084,1742.43,-952.58,-1968.38
14810,-3.8715,0.2844,0.2048,679.93,-1327.58,1500.37
14820,-3.8715,0.2931,0.2026,414.31,-1780.70,781.62
14830,-3.8715,0.3169,0.1991,1523.68,1938.05,0.37
14840,-3.8716,0.3484,0.1876,570.56,1484.99,-1155.88
14850,-3.8716,0.3715,0.1682,601.81,16.30,1312.87
14860,-3.8717,0.3777,0.1450,-445.07,1531.92,-312.19
14870,-3.8717,0.3699,0.1219,351.81,-1436.77,-1593.51
14880,-3.8717,0.3539,0.1056,-648.19,-389.95,-1952.94
14890,-3.8717,0.3350,0.1039,1304.93,1516.30,-859.19
14900,-3.8716,0.3182,0.1161,-1116.94,1297.49,-1906.07
14910,-3.8715,0.3074,0.1324,742.43,-1140.01,-1968.57
14920,-3.8713,0.3004,0.1447,-648.19,953.67,1406.49
14930,-3.8713,0.2942,0.1481,-1538.82,-1483.83,-609.13
14940,-3.8713,0.2874,0.1433,1664.31,-1046.33,-15.38
14950,-3.8713,0.2839,0.1356,789.31,-1655.70,-374.76
14960,-3.8713,0.2889,0.1342,351.81,1359.92,-734.13
14970,-3.8713,0.3008,0.1438,992.43,1172.42,-62.26
14980,-3.8712,0.3170,0.1600,-1491.94,-1593.20,1718.99
14990,-3.8711,0.3369,0.1769,586.18,484.99,234.68
15000,-3.8711,0.3572,0.1882,-866.94,-1358.76,-1124.69
15010,-3.8710,0.3735,0.1903,1726.81,94.42,734.74
15020,-3.8710,0.3826,0.1853,-179.44,360.05,1609.74
15030,-3.8710,0.3851,0.1740,976.81,-280.52,1328.43
15040,-3.8711,0.3866,0.1586,1304.93,-1733.64,-30.94
15050,-3.8711,0.3921,0.1456,1492.43,297.61,-1827.82
15060,-3.8711,0.4078,0.1409,-1804.44,-1358.64,343.99
15070,-3.8712,0.4329,0.1427,211.18,-1967.96,-906.01
15080,-3.8712,0.4606,0.1440,-585.69,-1733.58,-1281.01
15090,-3.8712,0.4832,0.1420,-1038.82,-1561.65,-999.76
15100,-3.8712,0.4960,0.1354,1851.81,-1827.21,-546.63
15110,-3.8712,0.5001,0.1204,-507.57,1329.04,-593.51
15120,-3.8712,0.4928,0.0974,23.68,-592.77,-1702.94
15130,-3.8713,0.4767,0.0721,-913.82,469.67,-218.57
15140,-3.8713,0.4595,0.0459,1023.68,1235.29,93.87
15150,-3.8716,0.4407,0.0165,-1179.44,1875.85,-171.81
15160,-3.8717,0.4161,-0.0125,414.31,-1889.77,-406.25
15170,-3.8718,0.3884,-0.0350,1273.68,-1592.96,-62.56
15180,-3.8718,0.3629,-0.0472,1726.81,-483.64,1374.88
15190,-3.8718,0.3431,-0.0465,-1538.82,1953.80,421.75
15200,-3.8718,0.3323,-0.0356,-70.07,-1952.51,1281.13
15210,-3.8718,0.3276,-0.0178,-1460.69,-561.89,-0.12
15220,-3.8717,0.3245,0.0005,1945.56,1719.36,-703.19
15230,-3.8716,0.3182,0.0062,1539.31,63.11,1156.25
15240,-3.8716,0.3068,-0.0056,742.43,797.49,578.12
15250,-3.8717,0.2959,-0.0323,-726.32,-718.20,1203.06
15260,-3.8719,0.2994,-0.0664,1883.06,-140.08,-343.87
15270,-3.8721,0.3304,-0.0878,-1663.82,-499.45,1765.44
15280,-3.8722,0.3855,-0.0851,-1695.07,766.24,-1875.18
15290,-3.8722,0.4421,-0.0564,1351.81,1110.11,-937.68
15300,-3.8721,0.4858,-0.0067,601.81,782.10,-109.50
15310,-3.8718,0.5175,0.0453,-1804.44,-858.46,-1218.81
15320,-3.8716,0.5370,0.0848,-1757.57,1797.85,-1499.94
15330,-3.8713,0.5446,0.1028,742.43,-1139.59,859.50
15340,-3.8713,0.5446,0.0953,1711.18,1157.29,-406.07
15350,-3.8713,0.5509,0.0670,1711.18,204.16,-1984.19
15360,-3.8715,0.5791,0.0358,-1476.32,579.16,1734.50
15370,-3.8716,0.6284,0.0223,-1866.94,579.22,1578.19
15380,-3.8717,0.6809,0.0287,445.56,-1139.40,-531.25
15390,-3.8717,0.7153,0.0447,-835.69,-326.84,-234.38
15400,-3.8716,0.7224,0.0566,-429.44,1720.09,1906.31
15410,-3.8715,0.7106,0.0586,476.81,-748.60,625.06
15420,-3.8715,0.6954,0.0571,-1038.82,-498.66,-953.06
15430,-3.8713,0.6897,0.0604,1023.68,-686.16,1015.69
15440,-3.8713,0.6984,0.0648,289.31,-264.28,-1593.69
15450,-3.8713,0.7181,0.0612,1398.68,298.22,-859.25
15460,-3.8713,0.7412,0.0437,-70.07,-170.53,-1562.44
15470,-3.8713,0.7550,0.0140,-1116.94,1595.15,0.06
15480,-3.8715,0.7455,-0.0197,648.68,1798.34,859.38
15490,-3.8716,0.7131,-0.0461,-570.07,1485.78,-1812.56
15500,-3.8716,0.6732,-0.0603,-710.69,-1904.91,703.00
15510,-3.8716,0.6333,-0.0674,-1820.07,282.53,453.00
15520,-3.8716,0.5983,-0.0707,1070.56,-623.78,1015.44
15530,-3.8716,0.5773,-0.0708,586.18,-1045.72,1624.82
15540,-3.8716,0.5710,-0.0701,1898.68,-1061.40,1999.82
15550,-3.8716,0.5753,-0.0653,1101.81,-967.65,-1890.81
15560,-3.8716,0.5894,-0.0537,1648.68,-358.28,1812.32
15570,-3.8716,0.6097,-0.0382,-554.44,1126.10,1734.25
15580,-3.8716,0.6256,-0.0255,-1945.07,-889.47,-1968.87
15590,-3.8716,0.6260,-0.0214,86.18,735.60,-1609.44
15600,-3.8716,0.6089,-0.0251,133.06,1266.85,-1390.69
15610,-3.8716,0.5851,-0.0289,1945.56,782.41,-1250.06
15620,-3.8716,0.5662,-0.0276,-1101.32,297.97,-1156.31
15630,-3.8716,0.5538,-0.0219,476.81,469.85,-1046.94
15640,-3.8716,0.5474,-0.0143,-1101.32,1204.16,-890.69
15650,-3.8716,0.5461,-0.0105,-1929.44,-1827.09,-984.44
15660,-3.8716,0.5452,-0.0098,1914.31,-1342.71,-1265.69
15670,-3.8716,0.5398,-0.0051,1789.31,-1248.96,-1500.06
15680,-3.8716,0.5294,0.0054,1101.81,-655.21,-1187.56
15690,-3.8716,0.5171,0.0168,-226.32,688.48,-296.88
15700,-3.8715,0.5066,0.0253,-1804.44,-1842.77,640.62
15710,-3.8715,0.4989,0.0338,851.81,-764.65,1671.88
15720,-3.8715,0.4913,0.0460,-132.57,329.04,-1187.44
15730,-3.8715,0.4789,0.0596,-1101.32,1891.54,-46.81
15740,-3.8713,0.4594,0.0725,1304.93,-374.08,953.19
15750,-3.8713,0.4374,0.0844,-1195.07,1282.10,1359.50
15760,-3.8713,0.4196,0.0919,-7.57,-1202.33,1218.87
15770,-3.8713,0.4060,0.0957,1711.18,-233.58,843.87
15780,-3.8713,0.3938,0.1003,-23.19,250.73,515.81
15790,-3.8713,0.3813,0.1075,-1585.69,844.48,62.68
15800,-3.8715,0.3695,0.1127,820.56,1766.36,-1312.32
15810,-3.8715,0.3601,0.1123,-695.07,-1577.45,172.06
15820,-3.8716,0.3545,0.1118,-1898.19,-1624.33,1093.93
15830,-3.8717,0.3524,0.1189,1383.06,-1686.83,-1999.82
15840,-3.8718,0.3492,0.1342,1117.43,-780.58,-546.69
15850,-3.8718,0.3408,0.1506,711.18,1172.55,-1890.38
15860,-3.8718,0.3267,0.1617,-366.94,-718.14,-1952.88
15870,-3.8718,0.3077,0.1660,1820.56,703.74,-1218.44
15880,-3.8718,0.2888,0.1689,-601.32,1250.55,-280.94
15890,-3.8717,0.2786,0.1768,976.81,1625.55,687.81
15900,-3.8717,0.2789,0.1887,-335.69,-1374.51,1922.18
15910,-3.8717,0.2847,0.1978,-288.82,156.74,-655.88
15920,-3.8716,0.2886,0.1979,445.56,1313.05,1015.99
15930,-3.8716,0.2836,0.1952,945.56,1328.67,-484.01
15940,-3.8715,0.2688,0.1970,304.93,984.92,-1359.01
15950,-3.8713,0.2524,0.2056,-1585.69,1219.24,1656.62
15960,-3.8713,0.2510,0.2178,320.56,-1687.01,-187.13
15970,-3.8712,0.2769,0.2292,133.06,-124.51,859.74
15980,-3.8712,0.3241,0.2394,-554.44,1344.24,1422.30
15990,-3.8712,0.3772,0.2483,1492.43,-1358.76,1906.68
16000,-3.8712,0.4221,0.2550,289.31,-218.02,-1843.32
16010,-3.8712,0.4451,0.2588,-1960.69,641.42,-1577.64
16020,-3.8712,0.4382,0.2644,976.81,1125.85,-921.39
16030,-3.8712,0.4091,0.2728,101.81,1844.60,-249.51
16040,-3.8711,0.3752,0.2784,367.43,-1077.33,31.74
16050,-3.8712,0.3503,0.2798,39.31,-358.64,-343.26
16060,-3.8712,0.3409,0.2803,851.81,-186.83,-1499.51
16070,-3.8712,0.3474,0.2789,-351.32,-124.39,672.36
16080,-3.8713,0.3596,0.2723,476.81,-296.20,-1140.14
16090,-3.8713,0.3633,0.2635,-1960.69,-1139.95,1891.11
16100,-3.8713,0.3530,0.2522,-1491.94,1735.05,-1843.26
16110,-3.8713,0.3292,0.2390,1195.56,281.92,-733.89
16120,-3.8712,0.2980,0.2310,-1851.32,-1405.64,719.18
16130,-3.8712,0.2697,0.2291,-1851.32,1563.05,-1905.82
16140,-3.8712,0.2515,0.2313,-1476.32,1328.61,-999.57
16150,-3.8712,0.2422,0.2334,195.56,1609.86,-483.95
16160,-3.8712,0.2335,0.2328,-991.94,1875.43,-15.20
16170,-3.8711,0.2217,0.2316,1898.68,1797.30,312.93
16180,-3.8711,0.2106,0.2291,383.06,1641.05,187.93
16190,-3.8712,0.2001,0.2235,-1038.82,1328.49,-405.82
16200,-3.8712,0.1909,0.2167,1617.43,609.74,-1374.57
16210,-3.8712,0.1877,0.2128,445.56,-265.26,1578.49
16220,-3.8712,0.1909,0.2152,39.31,-765.26,937.87
16230,-3.8712,0.1996,0.2280,445.56,-452.76,1094.12
16240,-3.8712,0.2122,0.2494,1554.93,1187.87,-1780.82
16250,-3.8712,0.2294,0.2695,-835.69,-77.76,-108.95
16260,-3.8711,0.2516,0.2800,1367.43,-1499.57,1000.49
16270,-3.8711,0.2727,0.2766,211.18,-155.76,984.86
16280,-3.8711,0.2860,0.2638,-1085.69,-593.26,328.61
16290,-3.8712,0.2869,0.2502,617.43,1766.17,-655.76
16300,-3.8712,0.2751,0.2383,726.81,31.80,-1999.51
16310,-3.8712,0.2538,0.2260,-773.19,-1499.51,797.30
16320,-3.8712,0.2294,0.2119,492.43,922.36,437.93
16330,-3.8712,0.2062,0.1959,1367.43,-874.57,1047.24
16340,-3.8712,0.1860,0.1805,-1601.32,1078.49,-1765.26
16350,-3.8712,0.1709,0.1681,-179.44,-890.32,-374.69
16360,-3.8711,0.1575,0.1578,1883.06,1515.93,1719.06
16370,-3.8710,0.1433,0.1505,164.31,203.43,1015.93
16380,-3.8708,0.1327,0.1469,-1648.19,-734.13,1172.12
16390,-3.8707,0.1283,0.1440,992.43,-1202.88,1937.74
16400,-3.8706,0.1285,0.1390,429.93,-1562.26,-1452.88
16410,-3.8705,0.1338,0.1287,461.18,1797.12,1765.87
16420,-3.8705,0.1415,0.1141,1133.06,468.99,-890.38
16430,-3.8705,0.1483,0.1016,-1882.57,-1390.38,-1140.44
16440,-3.8705,0.1547,0.0944,-1007.57,1000.24,1687.68
16450,-3.8705,0.1650,0.0923,-195.07,78.37,375.18
16460,-3.8706,0.1799,0.0945,1133.06,-187.19,-562.38
16470,-3.8706,0.1968,0.1008,-960.69,94.06,-1452.94
16480,-3.8706,0.2190,0.1113,1195.56,906.62,1109.56
16490,-3.8707,0.2499,0.1234,39.31,-1749.57,-999.82
16500,-3.8707,0.2830,0.1346,-7.57,-202.70,812.68
16510,-3.8708,0.3099,0.1462,226.81,1234.92,-1062.26
16520,-3.8708,0.3301,0.1571,-320.07,-1280.70,1172.12
16530,-3.8710,0.3459,0.1661,-1741.94,109.99,-718.44
16540,-3.8710,0.3560,0.1724,289.31,1266.30,1281.56
16550,-3.8711,0.3557,0.1755,1570.56,-1936.83,-421.57
16560,-3.8711,0.3455,0.1776,1539.31,-1530.58,-1609.07
16570,-3.8711,0.3287,0.1790,226.81,-1264.95,1484.68
16580,-3.8711,0.3087,0.1812,-1913.82,-1093.14,672.18
16590,-3.8712,0.2910,0.1874,-476.32,-811.95,-155.94
16600,-3.8712,0.2776,0.1982,1258.06,-15.08,-999.69
16610,-3.8712,0.2690,0.2140,-460.69,1375.49,-1859.01
16620,-3.8712,0.2686,0.2297,-1554.44,-608.89,1000.37
16630,-3.8713,0.2761,0.2379,-1616.94,1406.74,-562.07
16640,-3.8713,0.2886,0.2374,-648.19,-1546.39,1156.68
16650,-3.8715,0.2998,0.2310,945.56,-1608.83,1812.93
16660,-3.8716,0.3047,0.2233,-1616.94,1563.05,1625.43
16670,-3.8717,0.3059,0.2173,-991.94,578.67,1375.43
16680,-3.8718,0.3063,0.2144,-835.69,-186.95,1969.12
16690,-3.8718,0.3076,0.2172,-788.82,-561.95,15.99
16700,-3.8719,0.3167,0.2249,-616.94,-202.58,-655.88
16710,-3.8719,0.3344,0.2314,539.31,781.86,-499.57
16720,-3.8718,0.3569,0.2316,-1195.07,1625.61,312.93
16730,-3.8718,0.3822,0.2227,1695.56,1641.30,1125.43
16740,-3.8718,0.4053,0.2040,929.93,500.73,1203.55
16750,-3.8718,0.4182,0.1769,-116.94,-1889.89,672.24
16760,-3.8718,0.4137,0.1488,1539.31,-1358.58,578.43
16770,-3.8718,0.3912,0.1276,961.18,-952.33,1672.12
16780,-3.8718,0.3580,0.1140,-1913.82,328.86,-46.63
16790,-3.8717,0.3243,0.1049,1836.18,-1405.58,-1171.69
16800,-3.8716,0.2966,0.1010,1523.68,1422.49,1422.06
16810,-3.8716,0.2780,0.1011,1976.81,922.42,-640.44
16820,-3.8715,0.2695,0.1033,-413.82,937.99,875.18
16830,-3.8715,0.2747,0.1107,-1491.94,1219.24,-1624.82
16840,-3.8715,0.2953,0.1241,-835.69,-1827.64,-31.07
16850,-3.8713,0.3245,0.1367,1804.93,-108.83,1312.68
16860,-3.8713,0.3531,0.1405,1539.31,1500.61,1781.49
16870,-3.8713,0.3741,0.1345,1211.18,1985.05,1093.99
16880,-3.8715,0.3840,0.1281,-101.32,1219.42,-218.51
16890,-3.8715,0.3862,0.1301,1164.31,391.36,-1281.01
16900,-3.8715,0.3838,0.1382,1445.56,656.98,-1281.01
16910,-3.8715,0.3787,0.1494,1133.06,1688.23,-296.63
16920,-3.8713,0.3748,0.1642,476.81,-874.27,984.62
16930,-3.8713,0.3746,0.1809,-23.19,1016.30,-1296.57
16940,-3.8712,0.3789,0.1951,-38.82,-843.08,765.93
16950,-3.8712,0.3860,0.2023,508.06,969.48,-1405.88
16960,-3.8712,0.3921,0.2057,1414.31,1891.36,-15.26
16970,-3.8711,0.3943,0.2053,-1804.44,-1671.14,500.37
16980,-3.8712,0.3922,0.1979,-1523.19,-1718.02,-155.88
16990,-3.8712,0.3854,0.1852,-1788.82,1328.86,-1640.26
17000,-3.8712,0.3752,0.1713,1336.18,-296.14,547.18
17010,-3.8713,0.3665,0.1584,39.31,1922.61,-1374.69
17020,-3.8713,0.3600,0.1486,-1085.69,281.92,844.06
17030,-3.8715,0.3511,0.1475,-1913.82,-983.70,-15.38
17040,-3.8713,0.3435,0.1521,945.56,-1124.33,390.87
17050,-3.8713,0.3448,0.1520,-23.19,-530.64,1437.74
17060,-3.8713,0.3525,0.1455,148.68,-546.20,-1656.01
17070,-3.8713,0.3613,0.1288,1133.06,-1374.33,1875.24
17080,-3.8715,0.3644,0.0990,-1741.94,485.05,-265.38
17090,-3.8715,0.3538,0.0608,-1351.32,672.55,375.18
17100,-3.8716,0.3270,0.0197,1289.31,-218.08,46.94
17110,-3.8718,0.2866,-0.0210,1867.43,-1483.76,-671.88
17120,-3.8719,0.2361,-0.0580,695.56,1313.05,-1234.44
17130,-3.8721,0.1863,-0.0830,-1773.19,578.55,-1281.37
17140,-3.8722,0.1678,-0.0912,-148.19,1375.31,-312.68
17150,-3.8722,0.2061,-0.0820,1492.43,328.43,-1953.31
17160,-3.8722,0.2998,-0.0479,-1616.94,1500.37,-1922.06
17170,-3.8721,0.4436,0.0103,-1616.94,1875.55,171.75
17180,-3.8719,0.6281,0.0842,789.31,1313.35,125.00
17190,-3.8718,0.8270,0.1709,398.68,-1217.53,890.75
17200,-3.8717,1.0009,0.2628,1867.43,1876.59,1703.43
17210,-3.8716,1.1227,0.3431,117.43,1642.58,-1390.14
17220,-3.8715,1.1957,0.3936,-288.82,-75.99,-593.14
17230,-3.8713,1.2300,0.4114,1054.93,-1622.68,-921.14
17240,-3.8712,1.2269,0.3953,1445.56,658.63,172.67
17250,-3.8713,1.1907,0.3430,1054.93,-1403.87,-1702.39
17260,-3.8715,1.1311,0.2683,414.31,-91.43,1813.11
17270,-3.8717,1.0558,0.1890,789.31,-1654.05,-671.39
17280,-3.8719,0.9785,0.1184,-851.32,189.51,-343.38
17290,-3.8722,0.9095,0.0613,1258.06,-841.86,-468.57
17300,-3.8723,0.8513,0.0142,429.93,-154.48,1453.19
17310,-3.8724,0.8065,-0.0198,976.81,1814.15,-1390.62
17320,-3.8724,0.7734,-0.0406,-757.57,1470.28,953.06
17330,-3.8726,0.7527,-0.0492,-991.94,-1201.66,-78.25
17340,-3.8724,0.7490,-0.0406,351.81,1704.59,578.00
17350,-3.8724,0.7574,-0.0204,-116.94,-1201.72,-1078.25
17360,-3.8723,0.7676,0.0015,961.18,1392.09,-1937.56
17370,-3.8722,0.7788,0.0188,-1741.94,188.96,1046.88
17380,-3.8722,0.7885,0.0282,-304.44,-1592.29,-281.25
17390,-3.8721,0.7877,0.0354,929.93,-389.10,-1515.62
17400,-3.8719,0.7745,0.0490,836.18,532.78,1656.31
17410,-3.8718,0.7538,0.0659,-851.32,-1732.91,1500.06
17420,-3.8717,0.7281,0.0812,492.43,438.96,-1859.25
17430,-3.8716,0.7009,0.0914,1211.18,-1607.97,-765.50
17440,-3.8715,0.6729,0.0967,1726.81,-295.53,-109.25
17450,-3.8713,0.6421,0.1002,-1866.94,376.28,-718.57
17460,-3.8712,0.6084,0.1003,-1804.44,829.35,1359.56
17470,-3.8712,0.5739,0.0964,1883.06,844.91,-1327.94
17480,-3.8712,0.5411,0.0861,1461.18,344.85,-593.57
17490,-3.8712,0.5126,0.0665,1273.68,-983.34,-343.63
17500,-3.8711,0.4889,0.0470,1617.43,516.60,31.37
17510,-3.8711,0.4705,0.0377,-1413.82,-1983.46,1078.19
17520,-3.8711,0.4576,0.0435,226.81,829.04,-453.06
17530,-3.8710,0.4492,0.0575,-1413.82,1563.35,-937.44
17540,-3.8708,0.4412,0.0619,1508.06,-639.77,-1578.06
17550,-3.8707,0.4274,0.0483,476.81,-77.27,750.06
17560,-3.8707,0.4044,0.0281,-1288.82,-1811.71,1546.94
17570,-3.8707,0.3794,0.0173,-226.32,-405.52,1109.38
17580,-3.8707,0.3643,0.0220,570.56,-1780.52,125.00
17590,-3.8708,0.3622,0.0293,-1366.94,-1186.83,-1281.25
17600,-3.8708,0.3711,0.0320,-1632.57,-249.33,437.50
17610,-3.8710,0.3922,0.0376,-491.94,94.42,718.81
17620,-3.8712,0.4279,0.0454,-1788.82,813.23,-1140.56
17630,-3.8715,0.4718,0.0483,-1226.32,1813.29,-1031.19
17640,-3.8717,0.5095,0.0361,398.68,-1811.58,-1281.19
17650,-3.8718,0.5356,0.0215,1226.81,625.98,343.81
17660,-3.8721,0.5530,0.0256,570.56,-1248.96,-31.25
17670,-3.8721,0.5624,0.0432,-1210.69,-717.71,890.62
17680,-3.8722,0.5657,0.0635,-7.57,1532.29,-1234.31
17690,-3.8722,0.5653,0.0845,414.31,126.10,1375.12
17700,-3.8722,0.5612,0.1046,367.43,-1186.40,875.12
17710,-3.8722,0.5537,0.1193,-163.82,1391.66,1000.18
17720,-3.8722,0.5433,0.1229,-1116.94,-733.34,1093.93
17730,-3.8722,0.5272,0.1143,1554.93,-264.59,625.18
17740,-3.8723,0.5016,0.1001,-507.57,-1374.02,-484.19
17750,-3.8723,0.4642,0.0884,211.18,813.48,-1734.19
17760,-3.8723,0.4240,0.0847,-570.07,-686.65,1484.50
17770,-3.8723,0.3900,0.0881,-1726.32,-1155.46,1750.12
17780,-3.8723,0.3599,0.0975,1929.93,-718.02,-328.00
17790,-3.8722,0.3284,0.1178,-1929.44,485.05,-968.57
17800,-3.8721,0.2943,0.1437,-1960.69,-921.26,-406.07
17810,-3.8718,0.2621,0.1606,1679.93,-1608.83,1125.24
17820,-3.8717,0.2347,0.1635,1554.93,562.99,-1405.94
17830,-3.8716,0.2151,0.1558,-1945.07,922.30,-1452.82
17840,-3.8716,0.2103,0.1454,-460.69,-62.13,-281.01
17850,-3.8716,0.2273,0.1385,-1070.07,-1390.26,1843.99
17860,-3.8717,0.2662,0.1365,1101.81,1734.80,-1702.88
17870,-3.8718,0.3162,0.1445,-1913.82,1469.24,-202.88
17880,-3.8717,0.3572,0.1653,476.81,-1499.39,0.24
17890,-3.8717,0.3752,0.1940,1726.81,1156.92,-609.07
17900,-3.8715,0.3707,0.2277,39.31,828.86,1656.62
17910,-3.8712,0.3516,0.2638,-538.82,1141.30,1125.43
17920,-3.8711,0.3330,0.2950,1008.06,1766.30,-780.76
17930,-3.8710,0.3287,0.3127,-1366.94,1766.24,-1890.08
17940,-3.8710,0.3367,0.3134,-1913.82,31.86,1453.74
17950,-3.8711,0.3440,0.2997,-898.19,109.99,-1686.89
17960,-3.8712,0.3447,0.2756,39.31,-1639.95,-1343.20
17970,-3.8712,0.3337,0.2498,133.06,-718.08,172.36
17980,-3.8713,0.3073,0.2351,-1273.19,-30.64,-812.07
17990,-3.8713,0.2732,0.2382,-663.82,-1905.70,-593.32
18000,-3.8712,0.2366,0.2552,-1023.19,-1515.14,781.68
18010,-3.8712,0.1985,0.2743,-1710.69,672.30,-1171.39
18020,-3.8711,0.1703,0.2893,1414.31,-890.26,1000.49
18030,-3.8711,0.1597,0.2963,1804.93,1031.56,-811.95
18040,-3.8710,0.1610,0.2924,445.56,1922.18,1391.17
18050,-3.8710,0.1691,0.2827,617.43,1422.18,-671.33
18060,-3.8708,0.1772,0.2736,1648.68,187.81,938.05
18070,-3.8708,0.1771,0.2676,-1304.44,-984.07,-1624.51
18080,-3.8708,0.1655,0.2628,-1320.07,-1749.69,-593.26
18090,-3.8708,0.1429,0.2546,1195.56,1640.93,-265.14
18100,-3.8708,0.1141,0.2406,-1695.07,593.99,-437.01
18110,-3.8708,0.0845,0.2234,-1382.57,-1202.94,-655.82
18120,-3.8708,0.0560,0.2076,-1179.44,593.87,-812.07
18130,-3.8708,0.0305,0.1925,-820.07,-1421.81,-827.76
18140,-3.8708,0.0068,0.1780,-85.69,640.62,-484.01
18150,-3.8707,-0.0187,0.1672,883.06,-1218.75,453.43
18160,-3.8707,-0.0469,0.1635,1617.43,1421.81,-1796.57
18170,-3.8706,-0.0721,0.1653,-1991.94,937.38,359.68
18180,-3.8706,-0.0864,0.1694,-1226.32,1171.69,-1640.32
18190,-3.8705,-0.0880,0.1714,945.56,1702.94,406.56
18200,-3.8705,-0.0834,0.1682,742.43,1952.94,-1718.44
18210,-3.8705,-0.0724,0.1621,1336.18,1546.69,-530.94
18220,-3.8704,-0.0540,0.1562,-1257.57,765.44,187.81
18230,-3.8704,-0.0343,0.1505,1101.81,15.50,484.68
18240,-3.8705,-0.0186,0.1456,-382.57,-718.87,-62.26
18250,-3.8705,-0.0103,0.1431,1633.06,-1343.81,-1374.76
18260,-3.8705,-0.0085,0.1417,-1304.44,-1671.94,1000.24
18270,-3.8706,-0.0078,0.1398,-1085.69,-1843.81,-921.63
18280,-3.8706,-0.0032,0.1410,-991.94,1906.19,1281.49
18290,-3.8706,0.0092,0.1479,-398.19,-1937.56,93.99
18300,-3.8707,0.0289,0.1555,1179.93,-1062.50,-484.13
18310,-3.8707,0.0507,0.1582,-288.82,-93.75,-796.63
18320,-3.8707,0.0698,0.1583,-1507.57,250.06,-1609.07
18330,-3.8707,0.0873,0.1632,945.56,265.75,875.31
18340,-3.8708,0.1022,0.1711,-820.07,890.75,-624.69
18350,-3.8708,0.1116,0.1790,1086.18,1906.43,-1655.94
18360,-3.8708,0.1165,0.1866,-1710.69,-1093.57,1453.43
18370,-3.8708,0.1144,0.1910,-1085.69,-109.19,609.68
18380,-3.8708,0.1035,0.1941,-1351.32,453.31,250.37
18390,-3.8708,0.0894,0.2007,1258.06,843.93,15.99
18400,-3.8710,0.0807,0.2103,-554.44,1687.62,-702.76
18410,-3.8710,0.0854,0.2208,-1663.82,-1078.00,-1827.76
18420,-3.8710,0.1017,0.2296,-1054.44,265.75,625.43
18430,-3.8711,0.1221,0.2358,1023.68,1390.81,-1468.32
18440,-3.8711,0.1404,0.2388,-366.94,-1812.32,0.43
18450,-3.8712,0.1512,0.2386,1976.81,-1437.26,1531.68
18460,-3.8713,0.1537,0.2354,-632.57,-1452.88,-687.07
18470,-3.8713,0.1523,0.2288,-320.07,-1874.76,1391.05
18480,-3.8713,0.1519,0.2261,-491.94,1281.49,234.80
18490,-3.8713,0.1578,0.2323,-554.44,937.74,141.05
18500,-3.8713,0.1698,0.2389,211.18,1734.68,672.30
18510,-3.8713,0.1819,0.2303,1742.43,-1421.57,906.68
18520,-3.8713,0.1931,0.2069,-710.69,1484.68,859.80
18530,-3.8713,0.1989,0.1764,726.81,-1515.26,390.99
18540,-3.8715,0.1927,0.1448,1461.18,-1421.51,-827.82
18550,-3.8715,0.1779,0.1233,679.93,-1468.38,1734.62
18560,-3.8715,0.1646,0.1179,-1226.32,-218.44,953.31
18570,-3.8715,0.1565,0.1244,1070.56,-905.94,1609.56
18580,-3.8715,0.1547,0.1364,39.31,-77.82,-562.32
18590,-3.8713,0.1669,0.1478,-195.07,1453.37,1109.62
18600,-3.8713,0.1918,0.1554,1367.43,-1077.82,-1734.13
18610,-3.8713,0.2200,0.1617,554.93,-109.01,-562.26
18620,-3.8712,0.2424,0.1667,164.31,703.55,234.68
18630,-3.8712,0.2557,0.1714,-960.69,1344.18,78.43
18640,-3.8713,0.2681,0.1797,742.43,1937.99,-405.94
18650,-3.8713,0.2821,0.1947,-1679.44,-999.51,-46.57
18660,-3.8712,0.2931,0.2151,117.43,922.42,1437.87
18670,-3.8712,0.2987,0.2323,1523.68,-468.20,-749.63
18680,-3.8711,0.3009,0.2417,-1757.57,1734.92,891.05
18690,-3.8711,0.3009,0.2454,-1476.32,-1061.95,1703.55
18700,-3.8711,0.2970,0.2449,-1476.32,-593.20,1531.68
18710,-3.8711,0.2910,0.2418,-1976.32,-655.70,953.55
18720,-3.8711,0.2878,0.2391,1258.06,-1046.33,375.43
18730,-3.8711,0.2861,0.2391,851.81,-1390.08,422.30
18740,-3.8711,0.2833,0.2476,633.06,-1390.08,1734.80
18750,-3.8710,0.2812,0.2720,273.68,-311.95,484.80
18760,-3.8710,0.2849,0.3019,8.06,-1186.95,-46.39
18770,-3.8708,0.2992,0.3176,476.81,-1358.83,-1077.58
18780,-3.8707,0.3209,0.3118,-1695.07,656.80,125.61
18790,-3.8708,0.3457,0.2856,1086.18,-93.14,-1546.33
18800,-3.8710,0.3743,0.2412,258.06,563.17,1469.30
18810,-3.8712,0.4114,0.1925,-85.69,-1124.33,-1468.32
18820,-3.8713,0.4548,0.1625,664.31,641.42,844.12
18830,-3.8715,0.4856,0.1600,-1773.19,797.73,-1312.19
18840,-3.8715,0.4918,0.1757,-1835.69,485.29,-249.69
18850,-3.8713,0.4797,0.1935,-1038.82,-1514.71,-1577.82
18860,-3.8712,0.4578,0.2043,1414.31,766.54,1344.12
18870,-3.8712,0.4333,0.2021,-1398.19,-1842.90,-593.38
18880,-3.8712,0.4130,0.1830,-523.19,1875.79,-562.13
18890,-3.8712,0.4039,0.1508,867.43,-577.33,515.93
18900,-3.8715,0.4109,0.1165,-288.82,-702.39,-531.01
18910,-3.8716,0.4314,0.0875,601.81,-1092.96,-1937.32
18920,-3.8717,0.4628,0.0671,-773.19,-796.08,1515.75
18930,-3.8718,0.4949,0.0603,-757.57,594.60,-921.75
18940,-3.8718,0.5156,0.0682,-648.19,-280.33,-437.44
18950,-3.8717,0.5244,0.0830,-1991.94,735.35,1968.87
18960,-3.8716,0.5234,0.0944,-866.94,-1374.02,797.00
18970,-3.8716,0.5177,0.0979,-991.94,79.10,-1156.07
18980,-3.8716,0.5151,0.0951,-1726.32,532.23,-499.82
18990,-3.8716,0.5153,0.0875,1945.56,172.85,-874.82
19000,-3.8716,0.5214,0.0770,1961.18,-795.90,-1999.88
19010,-3.8716,0.5411,0.0675,-1257.57,1860.35,140.75
19020,-3.8717,0.5659,0.0662,1273.68,641.66,-1093.63
19030,-3.8717,0.5829,0.0785,445.56,469.85,-281.13
19040,-3.8716,0.5906,0.1014,-1382.57,-1952.03,-1921.75
19050,-3.8715,0.5944,0.1241,-398.19,985.47,593.93
19060,-3.8715,0.5983,0.1365,86.18,-108.22,-1812.32
19070,-3.8715,0.6045,0.1361,586.18,1469.91,-1296.63
19080,-3.8715,0.6163,0.1251,1383.06,1423.03,-1937.26
19090,-3.8715,0.6340,0.1099,-1101.32,16.78,297.12
19100,-3.8716,0.6488,0.0953,1164.31,-1936.28,-1859.19
19110,-3.8716,0.6538,0.0819,-945.07,204.35,422.06
19120,-3.8717,0.6497,0.0699,-304.44,-1514.40,-312.38
19130,-3.8717,0.6367,0.0563,-835.69,954.35,-171.75
19140,-3.8716,0.6204,0.0457,1508.06,-795.65,406.31
19150,-3.8716,0.6060,0.0441,-585.69,1844.91,1265.69
19160,-3.8716,0.5844,0.0419,1570.56,1641.78,-1453.06
19170,-3.8716,0.5477,0.0337,-1195.07,1360.47,-156.19
19180,-3.8715,0.5022,0.0195,-1882.57,313.54,609.44
19190,-3.8715,0.4573,0.0021,289.31,-1499.02,1093.75
19200,-3.8715,0.4233,-0.0139,-1460.69,266.48,1171.88
19210,-3.8715,0.4081,-0.0284,-1804.44,-1780.46,499.94
19220,-3.8716,0.4163,-0.0393,242.43,360.17,-953.19
19230,-3.8716,0.4464,-0.0457,1289.31,-1030.46,1281.13
19240,-3.8717,0.4843,-0.0490,1148.68,-1842.90,-125.12
19250,-3.8717,0.5143,-0.0447,1992.43,1735.29,-797.00
19260,-3.8717,0.5305,-0.0306,1836.18,-1717.77,-797.00
19270,-3.8717,0.5366,-0.0114,-85.69,79.10,-203.19
19280,-3.8716,0.5406,0.0094,695.56,-1452.09,1187.44
19290,-3.8716,0.5449,0.0271,1211.18,1204.16,-781.25
19300,-3.8715,0.5481,0.0349,1758.06,-530.21,937.50
19310,-3.8715,0.5481,0.0315,-1835.69,469.79,1281.31
19320,-3.8715,0.5433,0.0238,-1835.69,32.29,265.69
19330,-3.8716,0.5360,0.0181,1554.93,-952.09,-1578.12
19340,-3.8716,0.5282,0.0140,617.43,-1686.46,406.25
19350,-3.8717,0.5201,0.0150,-382.57,1797.85,-1296.88
19360,-3.8717,0.5115,0.0225,-1413.82,1922.85,1656.25
19370,-3.8717,0.5037,0.0321,1476.81,-1124.02,1109.38
19380,-3.8717,0.4967,0.0438,476.81,110.35,906.31
19390,-3.8717,0.4901,0.0612,-413.82,1610.29,1281.31
19400,-3.8717,0.4875,0.0806,-1257.57,-170.96,-1999.94
19410,-3.8717,0.4912,0.0951,-1585.69,-1686.58,-1109.25
19420,-3.8717,0.4972,0.1051,-1116.94,172.79,-265.44
19430,-3.8716,0.4943,0.1139,-351.32,1454.04,297.06
19440,-3.8716,0.4722,0.1227,-726.32,-1420.96,781.43
19450,-3.8716,0.4320,0.1309,445.56,-295.96,1718.93
19460,-3.8716,0.3834,0.1418,-695.07,750.79,-296.63
19470,-3.8715,0.3384,0.1556,1086.18,-1843.02,1875.24
19480,-3.8715,0.3070,0.1686,-679.44,-77.51,-312.26
19490,-3.8713,0.2932,0.1812,-695.07,1578.67,1437.81
19500,-3.8713,0.2935,0.1960,1539.31,-811.95,-1234.07
19510,-3.8713,0.3008,0.2123,1570.56,1094.30,-1046.51
19520,-3.8713,0.3115,0.2241,-1491.94,-827.58,1609.74
19530,-3.8715,0.3209,0.2341,-116.94,688.05,-30.82
19540,-3.8715,0.3239,0.2490,1086.18,1969.36,-749.57
19550,-3.8715,0.3199,0.2675,1461.18,-124.39,-655.82
19560,-3.8715,0.3087,0.2844,961.18,-1765.01,-171.39
19570,-3.8713,0.2931,0.2954,-476.32,406.80,281.80
19580,-3.8713,0.2809,0.2988,1523.68,1813.05,547.42
19590,-3.8713,0.2755,0.2961,-38.82,-1749.51,594.30
19600,-3.8713,0.2758,0.2927,-726.32,1906.74,453.67
19610,-3.8713,0.2767,0.2952,-695.07,1469.24,266.17
19620,-3.8713,0.2726,0.2997,-570.07,1781.74,172.42
19630,-3.8713,0.2609,0.2993,-1101.32,-1640.14,188.05
19640,-3.8713,0.2472,0.2957,1398.68,-1687.01,297.42
19650,-3.8713,0.2391,0.2939,-351.32,1844.18,359.92
19660,-3.8713,0.2379,0.2986,-1382.57,1625.43,719.30
19670,-3.8713,0.2391,0.3076,-1538.82,-1780.82,-1936.95
19680,-3.8712,0.2373,0.3170,-1382.57,-624.57,1094.30
19690,-3.8711,0.2424,0.3323,-1616.94,578.55,1297.49
19700,-3.8710,0.2603,0.3497,-960.69,-1468.32,375.61
19710,-3.8710,0.2716,0.3506,1320.56,766.11,1844.42
19720,-3.8710,0.2688,0.3340,-1226.32,875.49,-1514.95
19730,-3.8710,0.2659,0.3098,-1585.69,-1249.51,1438.11
19740,-3.8711,0.2676,0.2844,-1960.69,-343.26,-1436.95
19750,-3.8712,0.2684,0.2659,-1741.94,406.74,-280.70
19760,-3.8712,0.2634,0.2648,-1632.57,-1968.26,-1187.01
19770,-3.8711,0.2544,0.2838,1726.81,1891.11,359.86
19780,-3.8711,0.2484,0.3116,570.56,328.61,-343.20
19790,-3.8710,0.2512,0.3331,-195.07,-108.95,-452.58
19800,-3.8708,0.2605,0.3429,164.31,-1358.89,-1655.64
19810,-3.8708,0.2733,0.3412,1351.81,-108.89,-1311.89
19820,-3.8708,0.2888,0.3312,-1007.57,-327.64,1141.24
19830,-3.8710,0.3027,0.3230,976.81,-1608.83,-765.01
19840,-3.8710,0.3119,0.3213,-1241.94,1344.30,1484.99
19850,-3.8711,0.3187,0.3199,-70.07,1125.55,-124.39
19860,-3.8711,0.3225,0.3173,804.93,953.74,-1280.64
19870,-3.8711,0.3179,0.3136,1289.31,609.99,1891.24
19880,-3.8711,0.3026,0.3094,695.56,141.24,1000.61
19890,-3.8711,0.2838,0.3116,-1257.57,-390.08,109.92
19900,-3.8712,0.2701,0.3177,336.18,-108.83,-890.08
19910,-3.8712,0.2664,0.3201,-1413.82,672.36,1813.11
19920,-3.8712,0.2728,0.3173,-1898.19,969.24,172.49
19930,-3.8713,0.2872,0.3110,-1070.07,609.86,-1718.14
19940,-3.8713,0.3102,0.3038,773.68,-186.95,203.67
19950,-3.8715,0.3330,0.2957,-288.82,-1108.83,-1749.45
19960,-3.8715,0.3452,0.2894,-1366.94,1844.36,1109.92
19970,-3.8715,0.3489,0.2892,195.56,1047.55,1094.30
19980,-3.8715,0.3503,0.2926,664.31,1016.30,-1983.83
19990,-3.8715,0.3521,0.2965,851.81,1453.80,-765.08
20000,-3.8715,0.3552,0.2982,1070.56,1953.80,-30.70
20010,-3.8713,0.3574,0.2944,1476.81,-1827.45,31.80
20020,-3.8715,0.3518,0.2853,1758.06,1688.17,-405.70
20030,-3.8715,0.3368,0.2744,1039.31,516.30,-936.95
20040,-3.8715,0.3186,0.2643,-882.57,-874.39,-1452.64
20050,-3.8715,0.3013,0.2574,789.31,1828.74,1953.61
20060,-3.8715,0.2832,0.2539,-1429.44,953.67,1406.74
20070,-3.8715,0.2646,0.2507,258.06,500.55,1125.49
20080,-3.8715,0.2489,0.2496,1883.06,94.24,1359.86
20090,-3.8715,0.2360,0.2535,-132.57,-46.45,-1812.07
20100,-3.8715,0.2230,0.2590,-1788.82,453.55,-358.89
20110,-3.8713,0.2086,0.2605,554.93,1156.68,1781.74
20120,-3.8713,0.1949,0.2568,-1288.82,1344.12,-218.26
20130,-3.8712,0.1805,0.2499,961.18,875.37,922.36
20140,-3.8712,0.1616,0.2415,-882.57,-15.32,1281.68
20150,-3.8712,0.1399,0.2339,695.56,-1093.44,1391.05
20160,-3.8712,0.1213,0.2275,1914.31,1937.74,1859.80
20170,-3.8712,0.1121,0.2203,-460.69,1125.18,-1062.07
20180,-3.8712,0.1119,0.2106,-1648.19,203.31,-171.45
20190,-3.8712,0.1130,0.1985,-1663.82,-1046.69,-124.63
20200,-3.8712,0.1102,0.1891,-1523.19,1406.43,-452.76
20210,-3.8712,0.1042,0.1869,-1882.57,203.31,-609.01
20220,-3.8712,0.0985,0.1917,1351.81,-77.94,-280.94
20230,-3.8711,0.0942,0.2023,617.43,531.43,859.74
20240,-3.8711,0.0918,0.2119,70.56,1890.81,-1812.13
20250,-3.8711,0.0967,0.2123,-241.94,-874.88,-1218.38
20260,-3.8711,0.1080,0.2024,383.06,-827.94,-1827.76
20270,-3.8711,0.1179,0.1890,1836.18,1906.43,406.62
20280,-3.8712,0.1171,0.1770,-898.19,187.68,-1827.76
20290,-3.8712,0.1062,0.1661,-1007.57,-1343.57,578.43
20300,-3.8712,0.0952,0.1577,1601.81,1265.81,469.06
20310,-3.8712,0.0939,0.1542,195.56,187.68,1187.81
20320,-3.8712,0.1060,0.1544,23.68,-265.44,1625.24
20330,-3.8712,0.1268,0.1606,1570.56,-234.19,1859.62
20340,-3.8712,0.1506,0.1760,242.43,562.74,-1796.57
20350,-3.8712,0.1753,0.1998,-710.69,-1468.51,-1437.19
20360,-3.8712,0.2003,0.2272,-1554.44,1578.43,-1109.01
20370,-3.8712,0.2207,0.2484,1648.68,1078.49,-1187.07
20380,-3.8712,0.2311,0.2577,258.06,-202.70,-1780.82
20390,-3.8712,0.2323,0.2579,1586.18,984.80,1187.99
20400,-3.8713,0.2263,0.2566,1742.43,1016.05,-249.51
20410,-3.8713,0.2122,0.2548,976.81,844.18,-1765.14
20420,-3.8713,0.1929,0.2468,-835.69,609.74,1297.36
20430,-3.8713,0.1788,0.2345,695.56,-405.88,1219.18
20440,-3.8713,0.1757,0.2253,-1101.32,-1984.07,1297.30
20450,-3.8713,0.1803,0.2234,-1507.57,844.06,937.93
20460,-3.8713,0.1891,0.2281,-913.82,594.06,625.43
20470,-3.8713,0.2029,0.2362,211.18,1203.49,859.80
20480,-3.8713,0.2212,0.2438,1976.81,-1765.26,1516.05
20490,-3.8713,0.2411,0.2480,320.56,-796.45,-1905.82
20500,-3.8713,0.2598,0.2450,-1132.57,-249.57,1875.43
20510,-3.8713,0.2686,0.2314,1258.06,-640.14,969.18
20520,-3.8715,0.2578,0.2109,-1616.94,1625.49,-265.20
20530,-3.8715,0.2301,0.1897,1008.06,-999.51,-1484.01
20540,-3.8715,0.1934,0.1724,1461.18,281.68,1562.87
20550,-3.8715,0.1560,0.1571,758.06,-1937.13,265.93
20560,-3.8716,0.1289,0.1403,-23.19,109.62,-1859.07
20570,-3.8717,0.1183,0.1270,508.06,1953.37,-343.51
20580,-3.8717,0.1241,0.1272,-851.32,250.18,1062.74
20590,-3.8718,0.1405,0.1447,-101.32,281.43,-1952.88
20600,-3.8719,0.1654,0.1654,1992.43,-1484.13,-1077.88
20610,-3.8719,0.2043,0.1765,1179.93,1172.18,1500.31
20620,-3.8719,0.2572,0.1893,-1835.69,-1405.88,-921.57
20630,-3.8718,0.3158,0.2209,929.93,234.86,-702.76
20640,-3.8716,0.3737,0.2708,429.93,281.86,1234.80
20650,-3.8713,0.4316,0.3291,-163.82,-1343.08,31.74
20660,-3.8712,0.4825,0.3784,-741.94,-1874.21,-1265.01
20670,-3.8710,0.5201,0.4075,1773.68,438.42,735.11
20680,-3.8708,0.5481,0.4189,-1413.82,157.23,1532.04
20690,-3.8707,0.5616,0.4172,-1835.69,1626.04,422.67
20700,-3.8707,0.5519,0.4016,-101.32,1407.29,1063.29
20710,-3.8708,0.5253,0.3710,-1351.32,-592.71,-14.89
20720,-3.8708,0.4956,0.3323,-757.57,-514.65,-1546.20
20730,-3.8708,0.4677,0.2958,-554.44,-1467.83,1234.99
20740,-3.8708,0.4429,0.2692,-132.57,1860.23,438.05
20750,-3.8708,0.4226,0.2532,695.56,-1546.02,0.49
20760,-3.8708,0.4061,0.2451,-1898.19,407.04,78.61
20770,-3.8708,0.3969,0.2443,-7.57,-624.27,641.05
20780,-3.8708,0.4004,0.2495,-1195.07,-733.64,1781.68
20790,-3.8708,0.4120,0.2568,-741.94,-61.77,-233.95
20800,-3.8707,0.4194,0.2618,742.43,875.79,1859.86
20810,-3.8707,0.4171,0.2632,1695.56,1516.42,-687.01
20820,-3.8707,0.4022,0.2573,1398.68,1688.29,-233.89
20830,-3.8707,0.3712,0.2371,-507.57,938.23,-1530.76
20840,-3.8708,0.3262,0.1982,-476.32,-1655.58,-1608.95
20850,-3.8710,0.2853,0.1494,1758.06,1375.61,390.99
20860,-3.8712,0.2689,0.1090,523.68,-874.45,-1624.76
20870,-3.8713,0.2717,0.0870,-1570.07,1953.61,734.56
20880,-3.8716,0.2789,0.0822,-1210.69,-858.89,-437.38
20890,-3.8717,0.2853,0.0874,-288.82,-1483.89,-624.88
20900,-3.8717,0.3008,0.0964,523.68,-811.95,156.37
20910,-3.8718,0.3387,0.1022,-1491.94,344.30,672.06
20920,-3.8719,0.3939,0.1016,-632.57,1078.74,125.18
20930,-3.8722,0.4508,0.0994,-1570.07,1000.73,-406.07
20940,-3.8722,0.4979,0.1002,1711.18,719.60,468.93
20950,-3.8722,0.5359,0.1135,-257.57,829.04,265.81
20960,-3.8722,0.5660,0.1425,601.81,-1467.71,-531.07
20970,-3.8719,0.5815,0.1711,461.18,-1764.53,687.74
20980,-3.8718,0.5781,0.1871,-1554.44,1907.35,-1577.82
20990,-3.8717,0.5599,0.1880,-1991.94,-45.78,-655.94
21000,-3.8716,0.5433,0.1759,-320.07,63.54,-1171.51
21010,-3.8715,0.5387,0.1561,1554.93,-1483.34,0.31
21020,-3.8716,0.5364,0.1323,961.18,-14.59,-1484.13
21030,-3.8717,0.5227,0.1068,664.31,938.54,-140.38
21040,-3.8717,0.4988,0.0840,-1085.69,1672.85,1687.68
21050,-3.8717,0.4828,0.0715,-148.19,-1249.08,1047.00
21060,-3.8717,0.4861,0.0731,1804.93,1157.17,-1656.13
21070,-3.8716,0.5029,0.0867,-1773.19,1360.29,1140.75
21080,-3.8715,0.5322,0.1058,383.06,-905.27,531.37
21090,-3.8713,0.5743,0.1221,133.06,1547.91,140.81
21100,-3.8713,0.6077,0.1310,1523.68,-373.90,-640.44
21110,-3.8712,0.6173,0.1299,1789.31,766.78,1125.24
21120,-3.8712,0.6129,0.1212,-976.32,626.16,1640.87
21130,-3.8712,0.6064,0.1112,-1538.82,-483.22,1656.43
21140,-3.8712,0.6074,0.1007,1633.06,-1764.47,1047.06
21150,-3.8712,0.6224,0.0945,1758.06,891.78,187.68
21160,-3.8713,0.6466,0.0906,-320.07,94.91,-468.57
21170,-3.8713,0.6687,0.0834,-1226.32,-405.03,-1312.38
21180,-3.8713,0.6853,0.0801,1601.81,-1326.84,1640.75
21190,-3.8713,0.6917,0.0791,-273.19,-1748.72,812.62
21200,-3.8713,0.6832,0.0717,539.31,-1873.66,515.75
21210,-3.8715,0.6641,0.0525,-538.82,1173.16,-46.75
21220,-3.8715,0.6406,0.0217,1008.06,-1279.97,-1828.06
21230,-3.8716,0.6191,-0.0117,-1991.94,-1217.53,-546.88
21240,-3.8716,0.6023,-0.0404,-741.94,-1498.84,437.44
21250,-3.8717,0.5920,-0.0596,1101.81,-1170.72,1656.13
21260,-3.8718,0.5916,-0.0699,-210.69,376.10,-375.12
21270,-3.8718,0.5963,-0.0729,-273.19,-952.03,-1500.18
21280,-3.8718,0.5955,-0.0737,336.18,-1326.97,1531.07
21290,-3.8718,0.5841,-0.0823,226.81,-1436.34,202.94
21300,-3.8719,0.5706,-0.0875,-1226.32,1469.85,-875.18
21310,-3.8719,0.5677,-0.0613,1039.31,797.97,-1078.31
21320,-3.8718,0.5807,0.0083,679.93,157.35,249.88
21330,-3.8718,0.5997,0.1017,-1663.82,1063.60,-390.62
21340,-3.8716,0.6066,0.1759,773.68,1016.78,515.81
21350,-3.8715,0.5934,0.2021,1648.68,-1483.22,1078.43
21360,-3.8715,0.5682,0.1880,-38.82,1876.10,-452.76
21370,-3.8715,0.5459,0.1615,742.43,63.60,-499.63
21380,-3.8715,0.5374,0.1481,1883.06,672.91,1422.18
21390,-3.8716,0.5436,0.1573,789.31,-1045.84,-1702.88
21400,-3.8717,0.5555,0.1807,1586.18,141.66,-249.69
21410,-3.8717,0.5598,0.2014,-882.57,-873.96,-1187.19
21420,-3.8717,0.5544,0.2097,-335.69,1782.29,-1015.26
21430,-3.8717,0.5498,0.2094,-1023.19,-1155.21,-655.88
21440,-3.8716,0.5474,0.2151,-1616.94,-1202.09,172.24
21450,-3.8716,0.5410,0.2351,-1929.44,-467.71,-1796.51
21460,-3.8715,0.5264,0.2590,1258.06,-1905.21,1469.18
21470,-3.8713,0.4972,0.2725,-616.94,1157.23,1109.86
21480,-3.8713,0.4568,0.2698,-351.32,-1124.08,-296.39
21490,-3.8712,0.4167,0.2544,-1523.19,-1467.90,219.24
21500,-3.8713,0.3840,0.2362,1351.81,563.29,-1312.01
21510,-3.8715,0.3644,0.2244,1164.31,-1764.89,-124.57
21520,-3.8715,0.3613,0.2218,-1351.32,719.42,672.30
21530,-3.8716,0.3723,0.2261,-1741.94,391.30,1906.68
21540,-3.8717,0.3894,0.2356,-335.69,938.17,-93.32
21550,-3.8717,0.4032,0.2496,1851.81,-1843.02,-1390.20
21560,-3.8717,0.4076,0.2637,-382.57,-46.14,1750.43
21570,-3.8717,0.4026,0.2739,179.93,1750.79,484.86
21580,-3.8718,0.3927,0.2822,-460.69,-936.77,1953.61
21590,-3.8719,0.3817,0.2899,-1726.32,125.73,1984.92
21600,-3.8721,0.3751,0.2952,867.43,1110.11,1391.17
21610,-3.8722,0.3796,0.3029,23.68,1781.98,1063.05
21620,-3.8723,0.3951,0.3177,601.81,-1233.64,1750.55
21630,-3.8723,0.4142,0.3422,-1413.82,672.61,359.99
21640,-3.8723,0.4193,0.3761,1023.68,-202.33,1063.11
21650,-3.8723,0.4045,0.4192,1679.93,141.42,-764.89
21660,-3.8722,0.3778,0.4640,-210.69,1656.98,-1452.33
21670,-3.8721,0.3479,0.4867,367.43,-608.64,-452.27
21680,-3.8718,0.3253,0.4816,539.31,-1702.45,1922.79
21690,-3.8717,0.3037,0.4678,1648.68,1641.24,-295.96
21700,-3.8716,0.2742,0.4564,-1116.94,-124.45,-233.52
21710,-3.8715,0.2440,0.4440,-898.19,-1577.64,-1561.65
21720,-3.8713,0.2208,0.4270,-757.57,828.55,594.60
21730,-3.8713,0.2036,0.4069,273.68,-1343.32,-1686.71
21740,-3.8713,0.1886,0.3835,-1929.44,78.49,-796.08
21750,-3.8713,0.1738,0.3605,148.68,1094.12,-249.27
21760,-3.8712,0.1610,0.3484,-1741.94,-1859.07,688.17
21770,-3.8712,0.1512,0.3514,617.43,594.06,-1280.58
21780,-3.8711,0.1433,0.3599,-632.57,984.62,-1093.08
21790,-3.8708,0.1389,0.3636,-1648.19,-1937.26,219.42
21800,-3.8707,0.1393,0.3552,1789.31,-1452.88,110.05
21810,-3.8707,0.1459,0.3353,1836.18,1468.99,1547.55
21820,-3.8707,0.1584,0.3168,-1320.07,-1077.88,1422.49
21830,-3.8707,0.1752,0.3036,289.31,547.18,781.86
21840,-3.8707,0.1919,0.2960,-1570.07,-1140.32,484.92
21850,-3.8707,0.2010,0.2955,570.56,1890.99,1063.05
21860,-3.8707,0.2046,0.2994,1742.43,1828.49,-1671.33
21870,-3.8707,0.2106,0.3051,-1804.44,-1671.51,-640.08
21880,-3.8707,0.2250,0.3101,-1038.82,-952.76,-921.33
21890,-3.8707,0.2546,0.3140,804.93,-312.07,1031.80
21900,-3.8708,0.2949,0.3146,601.81,187.99,1594.36
21910,-3.8710,0.3319,0.3090,1758.06,266.17,1672.49
21920,-3.8711,0.3583,0.3008,-1507.57,-452.51,1875.55
21930,-3.8712,0.3721,0.2925,1867.43,-1499.33,-1858.83
21940,-3.8713,0.3744,0.2854,-366.94,1438.17,-1233.83
21950,-3.8713,0.3661,0.2839,-70.07,531.92,63.05
21960,-3.8715,0.3508,0.2915,-1132.57,344.42,-1827.58
21970,-3.8715,0.3447,0.3090,914.31,1313.17,1250.55
21980,-3.8715,0.3583,0.3280,133.06,-452.45,1031.80
21990,-3.8715,0.3817,0.3345,1867.43,1985.05,1281.86
22000,-3.8715,0.4006,0.3292,867.43,-1186.77,1563.11
22010,-3.8715,0.4072,0.3208,-710.69,-1858.64,1078.74
22020,-3.8715,0.3982,0.3140,133.06,1063.29,172.49
22030,-3.8715,0.3756,0.3115,-1023.19,188.23,234.99
22040,-3.8715,0.3444,0.3149,86.18,-124.27,1813.05
22050,-3.8713,0.3092,0.3201,86.18,313.17,313.11
22060,-3.8713,0.2754,0.3207,-413.82,969.30,-1702.51
22070,-3.8713,0.2457,0.3131,-741.94,1047.36,-1046.26
22080,-3.8713,0.2201,0.3019,-538.82,78.55,-1593.14
22090,-3.8713,0.2010,0.2941,179.93,-1358.95,1438.05
22100,-3.8713,0.1919,0.2877,1742.43,1640.99,875.55
22110,-3.8713,0.1890,0.2786,570.56,828.49,750.55
22120,-3.8713,0.1871,0.2688,195.56,-343.38,891.11
22130,-3.8713,0.1854,0.2627,-38.82,-1593.44,1016.11
22140,-3.8713,0.1824,0.2587,-257.57,1625.31,703.61
22150,-3.8713,0.1770,0.2548,-648.19,1109.68,328.61
22160,-3.8713,0.1711,0.2526,-1335.69,609.68,547.36
22170,-3.8713,0.1649,0.2510,1914.31,328.43,1625.49
22180,-3.8713,0.1545,0.2505,1117.43,125.31,-249.51
22190,-3.8712,0.1416,0.2493,-210.69,62.74,-1546.39
22200,-3.8711,0.1294,0.2412,-1866.94,-93.51,1203.55
22210,-3.8711,0.1167,0.2269,570.56,-1124.76,-280.82
22220,-3.8710,0.1033,0.2106,-1054.44,1047.06,1672.30
22230,-3.8710,0.0885,0.1971,1226.81,-1046.69,-749.63
22240,-3.8708,0.0737,0.1925,-663.82,1234.50,484.74
22250,-3.8708,0.0637,0.1995,1445.56,640.75,1281.62
22260,-3.8708,0.0635,0.2157,164.31,1531.37,1922.24
22270,-3.8708,0.0752,0.2371,133.06,-390.50,-1452.76
22280,-3.8708,0.0975,0.2633,1633.06,-1656.13,-843.32
22290,-3.8708,0.1272,0.2893,492.43,1703.31,-483.89
22300,-3.8708,0.1598,0.3059,289.31,1031.49,-686.95
22310,-3.8708,0.1913,0.3129,461.18,-843.44,-1733.83
22320,-3.8708,0.2178,0.3158,492.43,47.24,172.49
22330,-3.8710,0.2355,0.3186,-116.94,422.24,1531.86
22340,-3.8711,0.2448,0.3235,-1851.32,781.68,-890.01
22350,-3.8711,0.2494,0.3323,-663.82,1406.68,1297.49
22360,-3.8712,0.2534,0.3462,-70.07,-1468.32,-46.26
22370,-3.8712,0.2618,0.3617,445.56,312.99,-983.70
22380,-3.8712,0.2753,0.3734,1523.68,-1702.64,-1811.83
22390,-3.8712,0.2932,0.3784,-757.57,-202.64,875.67
22400,-3.8713,0.3153,0.3739,1539.31,438.05,-1249.27
22410,-3.8713,0.3356,0.3601,367.43,-140.01,31.92
22420,-3.8715,0.3506,0.3438,-1038.82,-1905.64,1516.30
22430,-3.8716,0.3629,0.3345,883.06,0.67,-233.70
22440,-3.8716,0.3785,0.3342,-1538.82,-1186.83,-1296.26
22450,-3.8716,0.4026,0.3369,461.18,-1218.02,-1983.76
22460,-3.8716,0.4297,0.3357,-460.69,-874.27,1484.99
22470,-3.8716,0.4514,0.3273,-991.94,-1030.46,1016.24
22480,-3.8716,0.4642,0.3129,1789.31,1891.48,359.99
22490,-3.8717,0.4680,0.2952,-570.07,47.73,-530.64
22500,-3.8717,0.4645,0.2793,-85.69,1782.10,-1374.45
22510,-3.8717,0.4597,0.2683,-538.82,-249.15,-1874.51
22520,-3.8717,0.4587,0.2615,-1148.19,-1655.40,-1405.76
22530,-3.8716,0.4608,0.2601,-1273.19,1469.60,141.11
22540,-3.8716,0.4644,0.2629,-1007.57,1297.73,-1937.01
22550,-3.8716,0.4678,0.2671,-554.44,1657.10,-312.01
22560,-3.8715,0.4736,0.2720,-116.94,-1811.65,859.86
22570,-3.8715,0.4836,0.2764,633.06,-1186.58,1703.61
22580,-3.8715,0.4927,0.2788,1914.31,-624.08,-1687.01
22590,-3.8715,0.4905,0.2845,-929.44,-311.58,-1046.39
22600,-3.8713,0.4735,0.3022,-1210.69,422.79,578.67
22610,-3.8713,0.4460,0.3304,617.43,-1311.58,-421.33
22620,-3.8712,0.4175,0.3590,1101.81,-1702.27,-702.51
22630,-3.8711,0.4014,0.3734,1445.56,1953.92,-1483.70
22640,-3.8711,0.4010,0.3638,-616.94,-202.39,-108.70
22650,-3.8711,0.4075,0.3340,-663.82,-1436.77,-1186.83
22660,-3.8712,0.4115,0.2969,164.31,-1249.21,-515.01
22670,-3.8713,0.4119,0.2659,679.93,-1999.21,-890.08
22680,-3.8715,0.4106,0.2450,726.81,-1967.96,-733.89
22690,-3.8715,0.4116,0.2341,570.56,-639.83,875.43
22700,-3.8716,0.4160,0.2325,695.56,1969.54,-15.20
22710,-3.8715,0.4221,0.2393,1258.06,1766.42,281.68
22720,-3.8715,0.4286,0.2506,-1960.69,-1374.21,1328.55
22730,-3.8715,0.4337,0.2635,-1132.57,78.92,-1265.14
22740,-3.8713,0.4376,0.2734,-476.32,1735.17,219.24
22750,-3.8713,0.4427,0.2766,23.68,-999.15,1328.61
22760,-3.8713,0.4520,0.2727,679.93,-592.90,1375.49
22770,-3.8713,0.4646,0.2631,1867.43,-1092.90,234.86
22780,-3.8715,0.4752,0.2517,-523.19,1672.73,-1374.51
22790,-3.8715,0.4836,0.2451,836.18,219.67,1156.74
22800,-3.8715,0.4934,0.2440,1914.31,-624.08,16.05
22810,-3.8716,0.5045,0.2462,-835.69,-764.71,-265.20
22820,-3.8715,0.5146,0.2483,586.18,-483.40,156.68
22830,-3.8715,0.5271,0.2473,1883.06,-217.77,797.30
22840,-3.8715,0.5422,0.2418,-523.19,-342.77,1156.68
22850,-3.8715,0.5582,0.2301,1414.31,-1045.84,281.68
22860,-3.8716,0.5785,0.2086,-538.82,1454.16,1828.55
22870,-3.8717,0.6006,0.1780,-1945.07,-1295.78,-1359.01
22880,-3.8718,0.6179,0.1445,883.06,-1217.59,-421.57
22890,-3.8718,0.6272,0.1172,-898.19,-1498.84,968.99
22900,-3.8719,0.6323,0.1021,289.31,-998.78,-968.57
22910,-3.8719,0.6385,0.0969,945.56,1063.72,-1890.44
22920,-3.8719,0.6425,0.0933,1742.43,407.47,-1609.19
22930,-3.8719,0.6392,0.0856,-1757.57,-61.28,-687.38
22940,-3.8718,0.6326,0.0745,1820.56,-1045.65,187.62
22950,-3.8718,0.6294,0.0649,976.81,1532.47,703.25
22960,-3.8718,0.6327,0.0546,570.56,313.72,890.75
22970,-3.8718,0.6410,0.0372,992.43,-1014.40,703.19
22980,-3.8719,0.6510,0.0145,-1945.07,766.85,-234.31
22990,-3.8719,0.6604,-0.0089,-663.82,1860.60,1906.25
23000,-3.8721,0.6655,-0.0311,539.31,-1139.34,-125.06
23010,-3.8721,0.6635,-0.0472,1195.56,16.91,-1281.31
23020,-3.8721,0.6571,-0.0524,929.93,1954.41,-1203.25
23030,-3.8721,0.6508,-0.0537,117.43,1298.16,-765.75
23040,-3.8721,0.6498,-0.0601,-695.07,1126.22,-812.62
23050,-3.8721,0.6582,-0.0751,-820.07,313.72,-1437.62
23060,-3.8721,0.6758,-0.0950,258.06,-1608.09,1562.32
23070,-3.8721,0.6982,-0.1063,-1491.94,-154.97,468.51
23080,-3.8722,0.7185,-0.1045,1383.06,-1608.03,-156.49
23090,-3.8721,0.7291,-0.0958,-23.19,-1373.66,62.26
23100,-3.8721,0.7268,-0.0878,1336.18,-264.22,952.88
23110,-3.8721,0.7137,-0.0876,1039.31,767.03,1827.94
23120,-3.8721,0.6960,-0.0968,-632.57,782.59,-1953.31
23130,-3.8721,0.6781,-0.1078,1101.81,-389.28,1827.88
23140,-3.8721,0.6595,-0.1101,-1195.07,-1795.59,-1953.37
23150,-3.8721,0.6434,-0.1012,429.93,1907.53,-922.12
23160,-3.8719,0.6322,-0.0875,-1632.57,-951.90,843.51
23170,-3.8719,0.6246,-0.0771,929.93,798.10,-1078.31
23180,-3.8718,0.6194,-0.0721,-38.82,-1873.84,702.94
23190,-3.8718,0.6140,-0.0692,-710.69,-1233.22,1921.69
23200,-3.8718,0.6060,-0.0614,-1398.19,-858.22,-1047.06
23210,-3.8717,0.5953,-0.0504,1570.56,141.78,312.38
23220,-3.8717,0.5865,-0.0446,211.18,1548.03,-1922.00
23230,-3.8717,0.5803,-0.0427,-913.82,-1702.03,-422.00
23240,-3.8717,0.5746,-0.0442,-1710.69,-1467.65,-343.87
23250,-3.8717,0.5719,-0.0481,1554.93,-1655.15,1953.00
23260,-3.8718,0.5746,-0.0524,1211.18,1844.85,-1015.75
23270,-3.8719,0.5814,-0.0541,1554.93,1297.97,-187.62
23280,-3.8719,0.5876,-0.0502,-1570.07,1079.22,1312.38
23290,-3.8721,0.5894,-0.0424,-773.19,1579.22,-125.12
23300,-3.8721,0.5859,-0.0341,-554.44,-1420.78,-687.62
