timestamp_ms,ax,ay,az,gx,gy,gz
0,-3.8712,-0.0197,-0.0992,1179.93,-953.19,-1531.49
10,-3.8712,-0.0176,-0.0988,1492.43,-687.56,1781.01
20,-3.8712,-0.0165,-0.0985,1758.06,-625.06,1968.51
30,-3.8712,-0.0165,-0.0967,1898.68,-593.81,-1250.24
40,-3.8712,-0.0134,-0.0938,1898.68,-359.44,-422.12
50,-3.8711,-0.0055,-0.0913,-1710.69,15.56,234.19
60,-3.8711,0.0023,-0.0887,-695.07,328.06,874.82
70,-3.8711,0.0038,-0.0863,304.93,640.62,1562.32
80,-3.8711,-0.0018,-0.0852,492.43,953.12,-1875.18
90,-3.8711,-0.0110,-0.0856,-226.32,1109.31,-1578.31
100,-3.8711,-0.0198,-0.0870,-1398.19,1062.44,-1828.31
110,-3.8711,-0.0259,-0.0892,1476.81,874.94,1531.07
120,-3.8711,-0.0294,-0.0929,695.56,593.69,546.69
130,-3.8712,-0.0306,-0.0969,242.43,124.94,-703.31
140,-3.8712,-0.0295,-0.0984,86.18,-390.69,-1890.87
150,-3.8712,-0.0264,-0.0990,226.81,-578.19,1249.76
160,-3.8712,-0.0217,-0.1001,633.06,-656.31,890.38
170,-3.8712,-0.0182,-0.1000,1226.81,-796.94,1046.63
180,-3.8712,-0.0186,-0.0985,1679.93,-781.31,1609.13
190,-3.8712,-0.0238,-0.0959,1633.06,-593.81,-1422.12
200,-3.8712,-0.0322,-0.0919,961.18,-265.69,-78.37
210,-3.8711,-0.0393,-0.0896,-116.94,249.88,1218.57
220,-3.8711,-0.0391,-0.0900,-1023.19,546.75,-1937.68
230,-3.8711,-0.0312,-0.0907,-991.94,499.88,-1812.68
240,-3.8711,-0.0208,-0.0938,8.06,406.19,1593.57
250,-3.8711,-0.0111,-0.0972,1351.81,15.56,718.57
260,-3.8712,-0.0065,-0.0989,-1413.82,-421.94,-187.74
270,-3.8712,-0.0072,-0.0958,-820.07,-640.69,-1000.24
280,-3.8712,-0.0125,-0.0933,-913.82,-250.06,-1531.49
290,-3.8712,-0.0217,-0.0923,-1585.69,78.06,-1500.18
300,-3.8712,-0.0343,-0.0905,1226.81,203.06,-734.56
310,-3.8711,-0.0465,-0.0920,-382.57,437.38,327.94
320,-3.8711,-0.0487,-0.0925,-1945.07,234.25,1218.57
330,-3.8711,-0.0424,-0.0920,1773.68,171.75,1562.32
340,-3.8711,-0.0342,-0.0913,-1413.82,234.25,1406.07
350,-3.8711,-0.0306,-0.0892,-366.94,328.00,843.57
360,-3.8711,-0.0328,-0.0863,86.18,593.69,46.69
370,-3.8712,-0.0385,-0.0864,-195.07,968.63,-750.18
380,-3.8712,-0.0455,-0.0909,-913.82,953.00,-1500.18
390,-3.8712,-0.0515,-0.0942,-1820.07,374.88,-1922.06
400,-3.8712,-0.0549,-0.0963,1414.31,-47.00,1859.13
410,-3.8712,-0.0525,-0.0977,976.81,-312.62,1843.51
420,-3.8712,-0.0479,-0.0984,1289.31,-484.50,-1922.12
430,-3.8712,-0.0453,-0.0989,1883.06,-578.25,-1500.24
440,-3.8712,-0.0460,-0.0985,-1788.82,-640.75,-875.24
450,-3.8712,-0.0466,-0.0977,-1882.57,-593.87,-62.74
460,-3.8711,-0.0420,-0.0964,-1960.69,-484.50,562.26
470,-3.8711,-0.0339,-0.0948,-1366.94,-328.25,749.76
480,-3.8711,-0.0281,-0.0920,-335.69,-125.12,656.01
490,-3.8711,-0.0266,-0.0906,414.31,234.31,359.19
500,-3.8712,-0.0276,-0.0931,601.81,421.81,-47.06
510,-3.8712,-0.0262,-0.0973,476.81,93.69,-578.31
520,-3.8712,-0.0219,-0.1006,648.68,-437.56,-1500.24
530,-3.8712,-0.0194,-0.1028,1211.18,-859.44,1296.63
540,-3.8712,-0.0214,-0.1029,1523.68,-1140.69,437.26
550,-3.8712,-0.0260,-0.1000,1273.68,-1156.31,390.38
560,-3.8712,-0.0303,-0.0962,679.93,-781.31,1187.26
570,-3.8712,-0.0336,-0.0953,133.06,-296.94,-1656.49
580,-3.8712,-0.0350,-0.0959,-288.82,-187.62,-406.49
590,-3.8711,-0.0348,-0.0955,-476.32,-265.75,890.38
600,-3.8711,-0.0341,-0.0948,-445.07,-203.25,1968.51
610,-3.8711,-0.0315,-0.0953,-351.32,-125.12,-1406.49
620,-3.8711,-0.0266,-0.0962,-23.19,-187.62,-1562.74
630,-3.8711,-0.0209,-0.0980,601.81,-296.94,1374.76
640,-3.8712,-0.0165,-0.1003,1336.18,-531.31,-187.74
650,-3.8712,-0.0160,-0.1003,1898.68,-828.19,-1515.87
660,-3.8712,-0.0189,-0.0984,1961.18,-828.19,1781.01
670,-3.8712,-0.0208,-0.0975,1586.18,-578.19,1562.26
680,-3.8712,-0.0179,-0.0975,1351.81,-468.81,1609.13
690,-3.8712,-0.0125,-0.0970,1711.18,-468.81,1906.01
700,-3.8712,-0.0081,-0.0958,-1585.69,-406.31,-1343.99
710,-3.8712,-0.0087,-0.0966,-1023.19,-250.06,-265.87
720,-3.8711,-0.0143,-0.0992,-1101.32,-343.81,874.76
730,-3.8711,-0.0211,-0.1001,-1820.07,-687.56,1546.63
740,-3.8711,-0.0276,-0.0995,1304.93,-796.94,1499.76
750,-3.8711,-0.0310,-0.0983,476.81,-718.81,921.63
760,-3.8711,-0.0306,-0.0962,39.31,-562.56,124.76
770,-3.8712,-0.0283,-0.0936,86.18,-296.94,-484.62
780,-3.8712,-0.0242,-0.0911,383.06,31.19,-797.06
790,-3.8712,-0.0176,-0.0902,914.31,359.31,-843.93
800,-3.8712,-0.0105,-0.0918,1758.06,468.69,-640.81
810,-3.8712,-0.0072,-0.0948,-1335.69,265.56,-437.68
820,-3.8712,-0.0090,-0.0970,-913.82,-125.06,-422.12
830,-3.8712,-0.0142,-0.0980,-1148.19,-406.31,-500.24
840,-3.8712,-0.0219,-0.0984,-1804.44,-531.31,-625.24
850,-3.8712,-0.0303,-0.0985,1211.18,-578.19,-922.12
860,-3.8712,-0.0364,-0.0986,133.06,-593.81,-1187.74
870,-3.8712,-0.0393,-0.0988,-648.19,-609.50,-1140.87
880,-3.8712,-0.0402,-0.0983,-1023.19,-625.12,-672.12
890,-3.8711,-0.0383,-0.0963,-1132.57,-562.62,93.51
900,-3.8711,-0.0345,-0.0945,-898.19,-312.62,687.26
910,-3.8711,-0.0310,-0.0953,-413.82,-78.25,859.13
920,-3.8711,-0.0286,-0.0980,39.31,-187.56,499.76
930,-3.8712,-0.0286,-0.1007,351.81,-531.31,-422.12
940,-3.8712,-0.0308,-0.1011,351.81,-875.06,-1468.99
950,-3.8712,-0.0341,-0.1010,70.56,-921.94,1859.13
960,-3.8712,-0.0369,-0.1011,-351.32,-906.37,1687.26
970,-3.8712,-0.0392,-0.0995,-710.69,-922.00,-1906.49
980,-3.8712,-0.0409,-0.0964,-1007.57,-718.87,-1093.99
990,-3.8712,-0.0406,-0.0936,-1226.32,-328.25,-234.62
1000,-3.8711,-0.0383,-0.0934,-1195.07,31.13,281.07
1010,-3.8711,-0.0339,-0.0953,-898.19,62.38,296.69
1020,-3.8712,-0.0289,-0.0967,-335.69,-187.62,-172.12
1030,-3.8712,-0.0255,-0.0956,304.93,-359.44,-875.24
1040,-3.8712,-0.0231,-0.0942,742.43,-218.81,-1281.49
1050,-3.8712,-0.0208,-0.0941,1054.93,-46.94,-1203.37
1060,-3.8712,-0.0201,-0.0944,1351.81,-31.31,-953.37
1070,-3.8712,-0.0195,-0.0952,1429.93,-62.56,-703.37
1080,-3.8712,-0.0167,-0.0966,1508.06,-171.94,-375.24
1090,-3.8711,-0.0126,-0.0966,1867.43,-343.81,77.88
1100,-3.8711,-0.0112,-0.0962,-1601.32,-343.81,577.88
1110,-3.8711,-0.0155,-0.0955,-1429.44,-296.94,1109.13
1120,-3.8711,-0.0226,-0.0944,-1976.32,-203.19,1546.63
1130,-3.8711,-0.0266,-0.0931,1117.43,-62.56,1640.38
1140,-3.8711,-0.0248,-0.0925,601.81,93.69,1468.57
1150,-3.8711,-0.0193,-0.0925,836.18,171.81,1171.69
1160,-3.8711,-0.0142,-0.0930,1539.31,171.81,781.07
1170,-3.8711,-0.0118,-0.0935,-1804.44,109.31,343.57
1180,-3.8712,-0.0139,-0.0934,-1507.57,46.81,-93.93
1190,-3.8712,-0.0211,-0.0920,-1773.19,62.44,-422.06
1200,-3.8712,-0.0321,-0.0946,1304.93,234.31,-625.18
1210,-3.8712,-0.0410,-0.0991,-101.32,-93.87,-703.37
1220,-3.8712,-0.0393,-0.0970,-1241.94,-672.00,-1031.49
1230,-3.8712,-0.0258,-0.0938,-1023.19,-406.37,-1843.99
1240,-3.8712,-0.0082,-0.0933,711.18,15.56,1421.69
1250,-3.8712,0.0015,-0.0913,-1038.82,78.06,1390.44
1260,-3.8712,-0.0023,-0.0875,195.56,312.50,-1937.68
1270,-3.8712,-0.0123,-0.0831,-288.82,812.44,-843.93
1280,-3.8711,-0.0188,-0.0792,-1570.07,1374.94,359.19
1290,-3.8711,-0.0192,-0.0765,1601.81,1874.94,1374.82
1300,-3.8711,-0.0161,-0.0758,1554.93,-1781.31,-1859.56
1310,-3.8711,-0.0143,-0.0781,1945.56,-1687.56,-1375.18
1320,-3.8711,-0.0149,-0.0830,-1820.07,-1984.44,-1468.93
1330,-3.8711,-0.0193,-0.0876,-1898.19,1390.56,1890.44
1340,-3.8711,-0.0276,-0.0901,1539.31,796.81,937.32
1350,-3.8712,-0.0343,-0.0912,476.81,484.31,-125.18
1360,-3.8712,-0.0337,-0.0924,-382.57,343.63,-1031.43
1370,-3.8712,-0.0267,-0.0947,-304.44,187.38,-1547.06
1380,-3.8712,-0.0194,-0.0962,586.18,-109.44,-1578.37
1390,-3.8712,-0.0159,-0.0946,1523.68,-296.94,-1203.37
1400,-3.8712,-0.0171,-0.0924,1976.81,-93.81,-625.24
1410,-3.8712,-0.0212,-0.0908,1820.56,187.44,-93.93
1420,-3.8711,-0.0249,-0.0894,1289.31,390.56,327.94
1430,-3.8711,-0.0260,-0.0900,820.56,578.06,827.94
1440,-3.8711,-0.0254,-0.0918,679.93,499.94,1312.32
1450,-3.8711,-0.0251,-0.0913,758.06,265.56,1609.19
1460,-3.8711,-0.0261,-0.0901,789.31,328.06,1749.82
1470,-3.8711,-0.0273,-0.0909,664.31,484.31,1702.94
1480,-3.8711,-0.0259,-0.0909,508.06,374.94,1327.94
1490,-3.8711,-0.0222,-0.0885,695.56,374.94,562.32
1500,-3.8712,-0.0181,-0.0859,1164.31,687.44,-531.43
1510,-3.8712,-0.0131,-0.0858,1695.56,1015.56,-1875.18
1520,-3.8712,-0.0088,-0.0890,-1663.82,1031.19,734.19
1530,-3.8713,-0.0067,-0.0945,-1116.94,624.94,-359.56
1540,-3.8713,-0.0089,-0.0989,-851.32,-78.19,-828.37
1550,-3.8713,-0.0190,-0.1014,-1132.57,-640.69,-437.74
1560,-3.8712,-0.0353,-0.1006,1570.56,-968.81,843.51
1570,-3.8712,-0.0504,-0.0961,-507.57,-859.50,-1531.49
1580,-3.8712,-0.0559,-0.0919,1554.93,-281.37,-93.99
1590,-3.8711,-0.0472,-0.0895,851.81,249.88,1077.94
1600,-3.8711,-0.0295,-0.0868,1961.18,562.38,-1953.31
1610,-3.8711,-0.0123,-0.0852,226.81,906.19,-1375.18
1620,-3.8711,-0.0015,-0.0858,-1570.07,1109.31,-1547.06
1630,-3.8711,0.0022,-0.0875,-179.44,1031.19,1671.69
1640,-3.8711,0.0006,-0.0892,289.31,796.88,421.69
1650,-3.8712,-0.0022,-0.0920,86.18,578.12,-1093.93
1660,-3.8712,-0.0050,-0.0956,-273.19,234.31,1702.94
1670,-3.8712,-0.0082,-0.0974,-632.57,-218.81,1156.01
1680,-3.8712,-0.0109,-0.0981,-1038.82,-453.19,1156.01
1690,-3.8712,-0.0120,-0.0983,-1382.57,-546.94,1531.01
1700,-3.8712,-0.0127,-0.0962,-1523.19,-562.56,-1703.37
1710,-3.8712,-0.0155,-0.0918,-1616.94,-296.94,-593.99
1720,-3.8711,-0.0204,-0.0858,-1976.32,265.56,609.19
1730,-3.8711,-0.0236,-0.0830,1398.68,1031.19,1546.69
1740,-3.8711,-0.0217,-0.0850,992.43,1390.56,-1765.81
1750,-3.8711,-0.0161,-0.0869,1226.81,1140.56,-1406.43
1760,-3.8711,-0.0090,-0.0892,1945.56,890.56,-1797.06
1770,-3.8711,-0.0011,-0.0916,-1148.19,593.69,1093.57
1780,-3.8712,0.0049,-0.0928,-132.57,296.81,-203.31
1790,-3.8712,0.0059,-0.0936,633.06,125.00,-1125.18
1800,-3.8712,0.0018,-0.0917,758.06,15.62,-1234.56
1810,-3.8712,-0.0054,-0.0873,242.43,265.62,-547.06
1820,-3.8711,-0.0107,-0.0834,-679.44,843.69,484.19
1830,-3.8711,-0.0115,-0.0811,-1366.94,1343.69,1546.69
1840,-3.8711,-0.0099,-0.0802,-1460.69,1640.56,-1562.68
1850,-3.8711,-0.0068,-0.0809,-1257.57,1749.94,-1203.31
1860,-3.8711,-0.0024,-0.0834,-866.94,1656.19,-1843.93
1870,-3.8711,-0.0001,-0.0863,-304.44,1343.69,765.44
1880,-3.8712,-0.0037,-0.0879,-7.57,968.69,-703.31
1890,-3.8712,-0.0125,-0.0875,-460.69,765.56,-1703.31
1900,-3.8712,-0.0221,-0.0867,-1585.69,812.44,-1968.93
1910,-3.8712,-0.0288,-0.0889,1179.93,921.81,-1890.81
1920,-3.8712,-0.0303,-0.0919,320.56,640.56,-1562.68
1930,-3.8712,-0.0283,-0.0933,133.06,249.94,-1312.68
1940,-3.8712,-0.0261,-0.0946,383.06,78.06,-1515.81
1950,-3.8712,-0.0254,-0.0951,664.31,-93.81,-1797.12
1960,-3.8712,-0.0266,-0.0939,758.06,-156.31,1921.63
1970,-3.8712,-0.0262,-0.0931,601.81,-0.06,1796.63
1980,-3.8712,-0.0222,-0.0934,648.68,93.69,1921.69
1990,-3.8712,-0.0175,-0.0930,1164.31,62.44,-1703.31
2000,-3.8712,-0.0148,-0.0900,1773.68,109.31,-1062.68
2010,-3.8712,-0.0153,-0.0851,-1882.57,499.94,-343.93
2020,-3.8711,-0.0192,-0.0823,-1945.07,1124.94,437.32
2030,-3.8711,-0.0251,-0.0841,1554.93,1484.31,1046.69
2040,-3.8711,-0.0311,-0.0885,789.31,1249.94,1077.94
2050,-3.8711,-0.0358,-0.0900,23.68,687.44,624.82
2060,-3.8711,-0.0377,-0.0885,-570.07,499.88,77.94
2070,-3.8712,-0.0367,-0.0867,-820.07,687.38,-203.31
2080,-3.8712,-0.0336,-0.0857,-695.07,921.75,-140.81
2090,-3.8711,-0.0302,-0.0861,-288.82,1046.75,62.32
2100,-3.8711,-0.0286,-0.0867,148.68,999.94,374.82
2110,-3.8711,-0.0287,-0.0865,351.81,921.81,781.07
2120,-3.8711,-0.0278,-0.0857,336.18,937.44,921.69
2130,-3.8711,-0.0234,-0.0846,445.56,1046.81,718.57
2140,-3.8711,-0.0161,-0.0835,1008.06,1187.44,531.07
2150,-3.8711,-0.0105,-0.0836,1945.56,1328.06,468.57
2160,-3.8711,-0.0109,-0.0846,-1335.69,1312.44,546.69
2170,-3.8711,-0.0164,-0.0858,-1382.57,1187.44,546.69
2180,-3.8711,-0.0228,-0.0875,1914.31,1031.19,437.32
2190,-3.8711,-0.0267,-0.0897,1086.18,812.44,249.82
2200,-3.8712,-0.0284,-0.0916,586.18,531.19,-31.43
2210,-3.8712,-0.0299,-0.0920,367.43,296.81,-281.43
2220,-3.8712,-0.0306,-0.0920,179.93,234.31,-343.93
2230,-3.8712,-0.0300,-0.0912,86.18,234.31,-297.06
2240,-3.8712,-0.0277,-0.0902,164.31,343.69,-203.31
2250,-3.8711,-0.0239,-0.0894,461.18,468.69,156.07
2260,-3.8711,-0.0215,-0.0870,945.56,578.06,984.19
2270,-3.8711,-0.0208,-0.0847,1258.06,874.94,1937.32
2280,-3.8711,-0.0200,-0.0839,1351.81,1171.81,-1765.81
2290,-3.8711,-0.0179,-0.0842,1445.56,1281.19,1515.44
2300,-3.8712,-0.0151,-0.0872,1711.18,1234.31,-312.68
2310,-3.8712,-0.0116,-0.0917,-1929.44,859.31,1343.57
2320,-3.8713,-0.0095,-0.0936,-1476.32,281.19,-672.06
2330,-3.8713,-0.0107,-0.0923,-1210.69,31.19,-1812.68
2340,-3.8713,-0.0148,-0.0907,-1366.94,203.06,-1859.56
2350,-3.8713,-0.0193,-0.0900,-1882.57,406.19,-1172.06
2360,-3.8713,-0.0231,-0.0885,1539.31,499.94,-203.31
2370,-3.8712,-0.0254,-0.0861,1054.93,687.44,1187.32
2380,-3.8712,-0.0251,-0.0844,758.06,999.94,-906.43
2390,-3.8711,-0.0238,-0.0829,789.31,1218.69,968.57
2400,-3.8711,-0.0228,-0.0790,961.18,1406.19,-1890.81
2410,-3.8711,-0.0244,-0.0817,1086.18,1906.19,-1547.06
2420,-3.8711,-0.0264,-0.0862,883.06,1562.44,-1703.31
2430,-3.8711,-0.0234,-0.0834,633.06,984.31,1593.57
2440,-3.8711,-0.0164,-0.0841,1008.06,1343.69,265.44
2450,-3.8712,-0.0092,-0.0874,1914.31,1249.94,-1000.18
2460,-3.8712,-0.0094,-0.0861,-1163.82,828.06,-1468.93
2470,-3.8712,-0.0177,-0.0840,-1195.07,999.94,-1343.93
2480,-3.8712,-0.0253,-0.0837,1742.43,1265.56,-828.31
2490,-3.8712,-0.0283,-0.0828,773.68,1296.81,-78.31
2500,-3.8711,-0.0283,-0.0820,383.06,1421.81,718.57
2510,-3.8711,-0.0266,-0.0819,383.06,1515.56,1343.57
2520,-3.8711,-0.0260,-0.0812,601.81,1531.19,1577.94
2530,-3.8711,-0.0278,-0.0801,679.93,1624.94,1281.07
2540,-3.8711,-0.0305,-0.0811,445.56,1765.56,640.44
2550,-3.8711,-0.0328,-0.0833,101.81,1640.56,31.07
2560,-3.8712,-0.0326,-0.0850,-195.07,1359.25,-453.31
2570,-3.8712,-0.0294,-0.0862,-163.82,1140.50,-984.56
2580,-3.8712,-0.0266,-0.0873,242.43,984.31,-1515.81
2590,-3.8712,-0.0273,-0.0879,601.81,843.69,-1781.43
2600,-3.8712,-0.0322,-0.0870,508.06,765.56,-1640.81
2610,-3.8712,-0.0394,-0.0862,-116.94,874.88,-1375.18
2620,-3.8712,-0.0441,-0.0861,-1038.82,984.25,-953.31
2630,-3.8712,-0.0428,-0.0856,-1632.57,999.88,-406.43
2640,-3.8712,-0.0376,-0.0854,-1476.32,1062.38,-0.18
2650,-3.8711,-0.0303,-0.0846,-804.44,1078.00,281.07
2660,-3.8711,-0.0216,-0.0826,133.06,1187.44,531.07
2670,-3.8711,-0.0142,-0.0803,1242.43,1437.44,702.94
2680,-3.8711,-0.0104,-0.0782,-1804.44,1734.31,843.57
2690,-3.8711,-0.0100,-0.0760,-1320.07,1999.94,1046.69
2700,-3.8711,-0.0120,-0.0743,-1273.19,-1718.81,1359.19
2710,-3.8711,-0.0144,-0.0742,-1523.19,-1500.06,1687.32
2720,-3.8711,-0.0165,-0.0760,-1835.69,-1484.44,1734.19
2730,-3.8711,-0.0186,-0.0804,1898.68,-1718.81,1374.82
2740,-3.8711,-0.0192,-0.0848,1633.06,1718.69,702.94
2750,-3.8712,-0.0198,-0.0861,1554.93,1156.19,-125.18
2760,-3.8712,-0.0231,-0.0854,1476.81,999.94,-640.81
2770,-3.8712,-0.0283,-0.0861,1054.93,1078.06,-593.93
2780,-3.8712,-0.0343,-0.0863,383.06,999.94,-281.43
2790,-3.8712,-0.0389,-0.0844,-382.57,968.63,-62.68
2800,-3.8711,-0.0403,-0.0826,-976.32,1218.63,77.94
2810,-3.8711,-0.0380,-0.0822,-1148.19,1437.38,359.19
2820,-3.8711,-0.0336,-0.0807,-851.32,1499.88,734.19
2830,-3.8711,-0.0293,-0.0785,-288.82,1687.38,952.94
2840,-3.8711,-0.0262,-0.0790,258.06,1968.69,781.07
2850,-3.8711,-0.0244,-0.0828,648.68,1906.19,218.57
2860,-3.8712,-0.0239,-0.0856,883.06,1421.81,-515.81
2870,-3.8712,-0.0255,-0.0856,945.56,1062.44,-1312.68
2880,-3.8712,-0.0278,-0.0845,742.43,1062.44,1984.19
2890,-3.8712,-0.0292,-0.0828,445.56,1203.06,1812.32
2900,-3.8712,-0.0295,-0.0800,273.68,1421.81,-1625.18
2910,-3.8712,-0.0293,-0.0779,226.81,1781.19,-734.56
2920,-3.8711,-0.0286,-0.0768,258.06,-1953.19,249.82
2930,-3.8711,-0.0288,-0.0762,351.81,-1812.56,999.82
2940,-3.8711,-0.0283,-0.0770,320.56,-1734.44,1093.57
2950,-3.8711,-0.0258,-0.0782,383.06,-1843.81,577.94
2960,-3.8712,-0.0236,-0.0806,711.18,1999.94,-203.31
2970,-3.8712,-0.0238,-0.0829,992.43,1703.06,-906.43
2980,-3.8712,-0.0265,-0.0824,961.18,1406.19,-1156.43
2990,-3.8712,-0.0295,-0.0802,617.43,1468.69,-859.56
3000,-3.8712,-0.0302,-0.0790,226.81,1749.94,-328.31
3010,-3.8711,-0.0278,-0.0798,148.68,1906.19,265.44
3020,-3.8711,-0.0258,-0.0808,445.56,1796.81,952.94
3030,-3.8711,-0.0259,-0.0808,711.18,1671.81,1531.07
3040,-3.8711,-0.0264,-0.0807,695.56,1671.81,1687.32
3050,-3.8711,-0.0251,-0.0820,633.06,1687.44,1452.94
3060,-3.8711,-0.0229,-0.0837,789.31,1515.56,999.82
3070,-3.8711,-0.0216,-0.0835,1070.56,1296.81,671.69
3080,-3.8711,-0.0231,-0.0808,1242.43,1328.06,952.94
3090,-3.8711,-0.0256,-0.0781,1054.93,1671.81,1671.69
3100,-3.8711,-0.0272,-0.0759,726.81,-1984.44,-1781.43
3110,-3.8711,-0.0273,-0.0757,523.68,-1703.19,-1812.68
3120,-3.8711,-0.0251,-0.0784,508.06,-1671.94,1390.44
3130,-3.8711,-0.0223,-0.0813,789.31,1984.31,406.07
3140,-3.8712,-0.0212,-0.0826,1148.68,1609.31,-343.93
3150,-3.8712,-0.0223,-0.0831,1289.31,1437.44,-968.93
3160,-3.8712,-0.0253,-0.0842,1148.68,1374.94,-1437.68
3170,-3.8712,-0.0306,-0.0846,773.68,1234.31,-1515.81
3180,-3.8712,-0.0369,-0.0835,86.18,1187.44,-1172.06
3190,-3.8712,-0.0417,-0.0829,-710.69,1328.00,-625.18
3200,-3.8712,-0.0419,-0.0829,-1335.69,1406.13,-62.68
3210,-3.8711,-0.0369,-0.0836,-1351.32,1406.13,515.44
3220,-3.8711,-0.0300,-0.0848,-710.69,1312.38,1031.07
3230,-3.8711,-0.0260,-0.0858,164.31,1156.19,1484.19
3240,-3.8711,-0.0282,-0.0856,679.93,1031.19,1781.07
3250,-3.8711,-0.0337,-0.0854,398.68,1062.44,1593.57
3260,-3.8711,-0.0366,-0.0878,-304.44,1078.00,796.69
3270,-3.8712,-0.0336,-0.0911,-679.44,781.13,-250.18
3280,-3.8712,-0.0286,-0.0934,-288.82,359.25,-1234.56
3290,-3.8712,-0.0272,-0.0940,351.81,62.44,-1984.56
3300,-3.8712,-0.0302,-0.0925,523.68,-15.69,1812.26
3310,-3.8712,-0.0358,-0.0896,148.68,171.81,-1718.93
3320,-3.8712,-0.0393,-0.0861,-570.07,546.75,-718.93
3330,-3.8711,-0.0359,-0.0833,-1023.19,999.88,406.07
3340,-3.8711,-0.0277,-0.0823,-585.69,1359.25,1312.32
3350,-3.8711,-0.0186,-0.0818,461.18,1484.31,1827.94
3360,-3.8711,-0.0104,-0.0804,1633.06,1546.81,1562.32
3370,-3.8711,-0.0039,-0.0800,-1320.07,1718.69,468.57
3380,-3.8712,0.0010,-0.0819,-491.94,1781.19,-1203.31
3390,-3.8712,0.0011,-0.0851,133.06,1515.62,1202.94
3400,-3.8712,-0.0057,-0.0878,148.68,1109.38,484.19
3410,-3.8712,-0.0159,-0.0896,-726.32,781.19,781.07
3420,-3.8712,-0.0247,-0.0925,1976.81,546.81,1827.94
3430,-3.8712,-0.0298,-0.0935,851.81,171.81,-734.56
3440,-3.8711,-0.0300,-0.0912,195.56,46.81,593.57
3450,-3.8711,-0.0280,-0.0905,164.31,343.69,1296.69
3460,-3.8711,-0.0260,-0.0920,429.93,437.44,1437.32
3470,-3.8711,-0.0261,-0.0929,679.93,234.31,1109.19
3480,-3.8711,-0.0289,-0.0917,664.31,124.94,406.07
3490,-3.8712,-0.0332,-0.0916,304.93,281.19,-453.31
3500,-3.8712,-0.0371,-0.0936,-241.94,296.75,-1297.06
3510,-3.8712,-0.0381,-0.0939,-741.94,31.13,1999.82
3520,-3.8712,-0.0364,-0.0919,-866.94,-0.12,1702.88
3530,-3.8712,-0.0337,-0.0898,-648.19,249.88,1999.82
3540,-3.8712,-0.0312,-0.0881,-304.44,515.50,-1234.56
3550,-3.8712,-0.0289,-0.0875,8.06,734.31,-468.93
3560,-3.8712,-0.0260,-0.0884,304.93,812.44,-47.06
3570,-3.8712,-0.0234,-0.0911,679.93,703.06,-140.81
3580,-3.8712,-0.0220,-0.0919,1008.06,359.31,-578.31
3590,-3.8712,-0.0229,-0.0891,1195.56,249.94,-828.31
3600,-3.8712,-0.0264,-0.0873,1070.56,609.31,-750.18
3610,-3.8712,-0.0297,-0.0869,633.06,843.69,-437.68
3620,-3.8712,-0.0312,-0.0865,211.18,890.56,-203.31
3630,-3.8712,-0.0323,-0.0869,8.06,937.44,-218.93
3640,-3.8712,-0.0325,-0.0879,-132.57,890.50,-562.68
3650,-3.8712,-0.0320,-0.0897,-148.19,765.50,-1359.56
3660,-3.8712,-0.0322,-0.0927,-85.69,531.13,1452.94
3670,-3.8712,-0.0345,-0.0969,-116.94,156.13,171.69
3680,-3.8713,-0.0392,-0.1002,-413.82,-390.75,-500.24
3690,-3.8713,-0.0438,-0.1008,-1007.57,-812.62,-125.24
3700,-3.8712,-0.0463,-0.0990,-1601.32,-890.75,1296.63
3710,-3.8712,-0.0468,-0.0968,-1913.82,-656.37,-687.74
3720,-3.8711,-0.0458,-0.0956,-1976.32,-375.12,1218.51
3730,-3.8711,-0.0426,-0.0931,-1851.32,-218.87,-1375.24
3740,-3.8711,-0.0372,-0.0895,-1445.07,93.63,-781.43
3750,-3.8711,-0.0304,-0.0884,-757.57,562.38,-1281.43
3760,-3.8711,-0.0222,-0.0912,117.43,703.06,1281.07
3770,-3.8712,-0.0168,-0.0963,1164.31,343.69,-453.31
3780,-3.8712,-0.0189,-0.0995,1851.81,-312.56,-1843.99
3790,-3.8712,-0.0266,-0.0984,1586.18,-718.81,1281.01
3800,-3.8712,-0.0349,-0.0961,601.81,-578.19,1093.51
3810,-3.8712,-0.0402,-0.0941,-460.69,-281.37,1593.51
3820,-3.8712,-0.0427,-0.0908,-1132.57,-31.37,-1515.87
3830,-3.8712,-0.0425,-0.0858,-1460.69,390.50,-828.31
3840,-3.8712,-0.0382,-0.0829,-1429.44,1031.13,-718.93
3850,-3.8712,-0.0306,-0.0845,-882.57,1406.13,-1015.81
3860,-3.8712,-0.0234,-0.0872,86.18,1203.06,-1406.43
3870,-3.8712,-0.0216,-0.0891,1008.06,859.31,-1703.31
3880,-3.8712,-0.0262,-0.0900,1242.43,609.31,-1531.43
3890,-3.8712,-0.0342,-0.0905,648.68,499.94,-843.93
3900,-3.8712,-0.0403,-0.0907,-366.94,437.38,-78.31
3910,-3.8711,-0.0403,-0.0897,-1148.19,406.13,265.44
3920,-3.8712,-0.0349,-0.0913,-1148.19,531.13,-156.43
3930,-3.8712,-0.0283,-0.0955,-460.69,328.00,-1156.43
3940,-3.8712,-0.0262,-0.0967,383.06,-203.19,1656.01
3950,-3.8712,-0.0303,-0.0955,648.68,-359.44,624.76
3960,-3.8712,-0.0360,-0.0948,133.06,-203.19,202.88
3970,-3.8712,-0.0393,-0.0934,-601.32,-125.12,452.88
3980,-3.8712,-0.0386,-0.0900,-1023.19,62.38,1296.69
3990,-3.8712,-0.0341,-0.0864,-929.44,499.88,-1484.56
4000,-3.8712,-0.0266,-0.0853,-351.32,953.00,-109.56
4010,-3.8711,-0.0192,-0.0859,601.81,1093.69,1249.82
4020,-3.8711,-0.0151,-0.0852,1554.93,1015.56,-1500.18
4030,-3.8711,-0.0159,-0.0836,-1929.44,1109.31,-672.06
4040,-3.8711,-0.0200,-0.0842,1976.81,1312.44,-437.68
4050,-3.8711,-0.0251,-0.0869,1445.56,1234.31,-781.43
4060,-3.8711,-0.0294,-0.0886,789.31,890.56,-1687.68
4070,-3.8711,-0.0321,-0.0894,242.43,671.81,1171.69
4080,-3.8711,-0.0334,-0.0890,-101.32,578.00,312.32
4090,-3.8712,-0.0341,-0.0865,-273.19,624.88,-15.81
4100,-3.8711,-0.0326,-0.0842,-351.32,937.38,93.57
4110,-3.8711,-0.0288,-0.0840,-163.82,1234.25,296.69
4120,-3.8711,-0.0264,-0.0835,320.56,1265.56,343.57
4130,-3.8711,-0.0273,-0.0819,633.06,1328.06,249.82
4140,-3.8711,-0.0288,-0.0814,508.06,1531.19,156.07
4150,-3.8711,-0.0272,-0.0828,320.56,1593.69,171.69
4160,-3.8711,-0.0222,-0.0852,523.68,1421.81,327.94
4170,-3.8711,-0.0179,-0.0869,1164.31,1109.31,687.32
4180,-3.8711,-0.0188,-0.0872,1711.18,890.56,937.32
4190,-3.8711,-0.0222,-0.0872,1601.81,859.31,890.44
4200,-3.8711,-0.0255,-0.0869,1164.31,859.31,671.69
4210,-3.8711,-0.0286,-0.0875,742.43,890.56,390.44
4220,-3.8711,-0.0303,-0.0879,351.81,812.44,15.44
4230,-3.8712,-0.0295,-0.0862,133.06,765.56,-312.68
4240,-3.8712,-0.0273,-0.0823,226.81,984.31,-297.06
4250,-3.8711,-0.0234,-0.0800,508.06,1484.31,15.44
4260,-3.8711,-0.0188,-0.0813,1008.06,1781.19,484.19
4270,-3.8711,-0.0154,-0.0825,1601.81,1609.31,968.57
4280,-3.8711,-0.0137,-0.0822,-1960.69,1453.06,1171.69
4290,-3.8711,-0.0149,-0.0820,-1741.94,1499.94,1031.07
4300,-3.8711,-0.0194,-0.0836,-1898.19,1515.56,765.44
4310,-3.8711,-0.0265,-0.0863,1523.68,1312.44,515.44
4320,-3.8711,-0.0342,-0.0875,617.43,968.69,171.69
4330,-3.8712,-0.0394,-0.0869,-366.94,812.38,-281.43
4340,-3.8712,-0.0397,-0.0868,-1038.82,890.50,-672.06
4350,-3.8712,-0.0359,-0.0887,-1070.07,906.13,-922.06
4360,-3.8712,-0.0305,-0.0912,-585.69,656.13,-1156.43
4370,-3.8712,-0.0249,-0.0913,101.81,343.69,-1515.81
4380,-3.8712,-0.0211,-0.0907,820.56,328.06,-1937.68
4390,-3.8712,-0.0203,-0.0896,1304.93,406.19,1968.57
4400,-3.8712,-0.0234,-0.0878,1414.31,546.81,-1437.68
4410,-3.8712,-0.0295,-0.0874,1008.06,781.19,-515.81
4420,-3.8711,-0.0326,-0.0876,226.81,828.06,327.94
4430,-3.8711,-0.0288,-0.0883,-163.82,796.75,890.44
4440,-3.8711,-0.0219,-0.0906,320.56,718.69,874.82
4450,-3.8711,-0.0151,-0.0934,1211.18,421.81,296.69
4460,-3.8712,-0.0129,-0.0963,-1929.44,62.44,-343.93
4470,-3.8712,-0.0173,-0.0961,-1648.19,-312.56,-453.37
4480,-3.8711,-0.0251,-0.0857,1789.31,-281.31,593.51
4490,-3.8711,-0.0337,-0.0658,789.31,1046.81,-1156.43
4500,-3.8710,-0.0392,-0.0472,-304.44,-406.37,1671.69
4510,-3.8708,-0.0378,-0.0409,-1007.57,1968.63,62.38
4520,-3.8708,-0.0272,-0.0466,-835.69,-1218.87,1218.63
4530,-3.8708,-0.0093,-0.0568,523.68,-1953.19,906.13
4540,-3.8710,0.0090,-0.0652,-1179.44,749.94,-781.37
4550,-3.8710,0.0183,-0.0703,1164.31,-343.75,312.32
4560,-3.8711,0.0137,-0.0743,-1648.19,-1000.00,452.94
4570,-3.8712,-0.0015,-0.0793,1758.06,-1515.62,46.69
4580,-3.8715,-0.0197,-0.0865,-179.44,1859.31,-422.06
4590,-3.8716,-0.0347,-0.0951,1492.43,937.44,-390.81
4600,-3.8716,-0.0444,-0.1041,-429.44,-156.37,874.76
4610,-3.8716,-0.0518,-0.1127,-1679.44,-1312.62,62.26
4620,-3.8716,-0.0593,-0.1146,1383.06,1593.63,1765.38
4630,-3.8715,-0.0684,-0.1073,414.31,1343.63,1687.26
4640,-3.8713,-0.0742,-0.0975,-741.94,-1718.93,-1468.99
4650,-3.8712,-0.0682,-0.0950,-1491.94,-468.93,-1406.49
4660,-3.8711,-0.0488,-0.1030,-726.32,-140.81,1124.76
4670,-3.8711,-0.0244,-0.1135,1758.06,-1172.00,-1375.24
4680,-3.8711,-0.0076,-0.1151,883.06,1484.31,-140.87
4690,-3.8710,-0.0044,-0.1053,-960.69,1281.19,1140.38
4700,-3.8710,-0.0101,-0.0920,-554.44,-1468.81,-1656.49
4710,-3.8710,-0.0159,-0.0824,-1288.82,234.31,-906.43
4720,-3.8710,-0.0167,-0.0791,1976.81,1468.69,-1093.93
4730,-3.8710,-0.0110,-0.0784,1867.43,1890.56,1952.94
4740,-3.8710,-0.0012,-0.0743,-1398.19,1984.31,718.57
4750,-3.8711,0.0070,-0.0686,-148.19,-1500.06,-484.56
4760,-3.8711,0.0095,-0.0646,898.68,-781.25,-1468.93
4770,-3.8711,0.0055,-0.0621,1226.81,-265.62,1796.69
4780,-3.8711,-0.0021,-0.0616,711.18,46.88,1109.25
4790,-3.8712,-0.0083,-0.0669,-257.57,124.94,-140.75
4800,-3.8712,-0.0090,-0.0769,-1054.44,-546.94,1921.69
4810,-3.8713,-0.0067,-0.0854,-1148.19,-1828.19,-328.31
4820,-3.8713,-0.0074,-0.0906,-851.32,1078.06,1734.19
4830,-3.8713,-0.0149,-0.0934,-945.07,421.81,999.82
4840,-3.8713,-0.0294,-0.0938,-1898.19,62.44,1921.69
4850,-3.8712,-0.0480,-0.0907,242.43,15.56,93.57
4860,-3.8712,-0.0649,-0.0862,1867.43,406.13,-1156.43
4870,-3.8711,-0.0741,-0.0824,-304.44,984.19,1624.82
4880,-3.8711,-0.0712,-0.0795,-1476.32,1468.57,-406.43
4890,-3.8710,-0.0586,-0.0800,-1101.32,1843.57,484.19
4900,-3.8710,-0.0422,-0.0851,508.06,1781.13,327.94
4910,-3.8711,-0.0282,-0.0936,-1398.19,1124.88,-1015.81
4920,-3.8711,-0.0216,-0.0995,398.68,31.19,671.69
4930,-3.8712,-0.0229,-0.0985,1242.43,-718.81,1952.88
4940,-3.8713,-0.0286,-0.0940,1070.56,-593.81,-422.12
4950,-3.8713,-0.0339,-0.0890,351.81,-15.69,-1843.99
4960,-3.8713,-0.0348,-0.0862,-335.69,624.88,1984.19
4970,-3.8713,-0.0297,-0.0870,-445.07,984.25,-1218.93
4980,-3.8713,-0.0215,-0.0898,211.18,874.94,-31.43
4990,-3.8712,-0.0154,-0.0907,1258.06,515.56,1156.07
5000,-3.8712,-0.0134,-0.0881,-1960.69,406.19,-1859.56
5010,-3.8712,-0.0143,-0.0845,-1710.69,734.31,-984.56
5020,-3.8712,-0.0162,-0.0845,-1820.07,1203.06,-312.68
5030,-3.8712,-0.0197,-0.0879,1929.93,1203.06,-156.43
5040,-3.8712,-0.0226,-0.0914,1492.43,765.56,-531.43
5050,-3.8712,-0.0221,-0.0933,1117.43,312.44,-1234.56
5060,-3.8712,-0.0167,-0.0920,1179.93,78.06,-1968.93
5070,-3.8712,-0.0103,-0.0903,1867.43,234.31,1656.07
5080,-3.8712,-0.0082,-0.0897,-1304.44,453.06,1827.94
5090,-3.8712,-0.0122,-0.0887,-1038.82,531.19,-1484.56
5100,-3.8712,-0.0221,-0.0872,-1554.44,656.19,-578.31
5110,-3.8711,-0.0323,-0.0879,1179.93,859.31,484.19
5120,-3.8711,-0.0359,-0.0885,-132.57,765.50,1421.69
5130,-3.8711,-0.0322,-0.0854,-585.69,687.38,1859.19
5140,-3.8711,-0.0251,-0.0823,-116.94,1078.00,1890.44
5150,-3.8711,-0.0206,-0.0813,789.31,1484.31,1937.32
5160,-3.8711,-0.0206,-0.0800,1367.43,1609.31,-1812.68
5170,-3.8711,-0.0225,-0.0787,1367.43,1781.19,-1703.31
5180,-3.8711,-0.0226,-0.0790,1133.06,1937.44,1999.82
5190,-3.8711,-0.0223,-0.0815,1117.43,1906.19,1577.94
5200,-3.8711,-0.0225,-0.0802,1148.68,1578.06,1187.32
5210,-3.8711,-0.0198,-0.0731,1133.06,1749.94,609.19
5220,-3.8712,-0.0126,-0.0709,1476.81,-1343.81,-62.68
5230,-3.8712,-0.0067,-0.0740,-1601.32,-1062.56,-406.43
5240,-3.8712,-0.0107,-0.0756,-851.32,-1453.19,-422.06
5250,-3.8712,-0.0217,-0.0741,-1366.94,-1656.31,-343.93
5260,-3.8712,-0.0302,-0.0734,1226.81,-1468.81,-109.56
5270,-3.8711,-0.0326,-0.0730,148.68,-1375.06,390.44
5280,-3.8711,-0.0317,-0.0708,-163.82,-1328.25,984.19
5290,-3.8711,-0.0304,-0.0697,-54.44,-1047.00,1359.19
5300,-3.8711,-0.0303,-0.0698,117.43,-906.31,1562.32
5310,-3.8711,-0.0334,-0.0695,133.06,-921.94,1687.32
5320,-3.8711,-0.0396,-0.0697,-273.19,-875.12,1624.82
5330,-3.8711,-0.0448,-0.0721,-1054.44,-906.37,1531.07
5340,-3.8711,-0.0468,-0.0752,-1726.32,-1218.87,1312.32
5350,-3.8711,-0.0446,-0.0782,-1976.32,-1609.50,640.44
5360,-3.8712,-0.0383,-0.0811,-1695.07,1999.88,-359.56
5370,-3.8712,-0.0319,-0.0818,-898.19,1640.50,-1297.06
5380,-3.8712,-0.0298,-0.0803,-70.07,1546.75,-1640.81
5390,-3.8712,-0.0334,-0.0787,195.56,1734.31,-1343.93
5400,-3.8712,-0.0403,-0.0790,-273.19,1937.38,-890.81
5410,-3.8712,-0.0466,-0.0793,-1148.19,1906.13,-343.93
5420,-3.8711,-0.0487,-0.0778,-1960.69,1859.25,327.94
5430,-3.8711,-0.0439,-0.0764,1773.68,-1937.62,984.19
5440,-3.8711,-0.0342,-0.0776,-1616.94,-1765.75,1484.19
5450,-3.8711,-0.0232,-0.0787,-366.94,-1922.00,1702.94
5460,-3.8711,-0.0151,-0.0778,1039.31,1937.44,1671.69
5470,-3.8711,-0.0121,-0.0792,-1929.44,-1937.56,1484.19
5480,-3.8711,-0.0126,-0.0850,-1538.82,1874.94,1046.69
5490,-3.8711,-0.0157,-0.0917,-1601.32,1140.56,406.07
5500,-3.8712,-0.0208,-0.0967,1992.43,281.19,-250.18
5510,-3.8712,-0.0254,-0.1000,1351.81,-359.44,-922.12
5520,-3.8712,-0.0280,-0.1034,758.06,-781.31,-1640.87
5530,-3.8712,-0.0297,-0.1075,429.93,-1218.81,1859.13
5540,-3.8712,-0.0332,-0.1086,211.18,-1750.06,1937.26
5550,-3.8712,-0.0392,-0.1042,-241.94,-1890.75,-1547.12
5560,-3.8712,-0.0444,-0.0974,-1007.57,-1328.25,-1031.49
5570,-3.8712,-0.0447,-0.0898,-1679.44,-453.25,-765.87
5580,-3.8712,-0.0393,-0.0826,-1710.69,515.50,-984.56
5590,-3.8712,-0.0312,-0.0770,-1023.19,1437.38,-1843.93
5600,-3.8712,-0.0243,-0.0732,8.06,-1843.81,999.82
5610,-3.8713,-0.0200,-0.0713,898.68,-1359.44,-15.81
5620,-3.8713,-0.0183,-0.0708,1445.56,-1109.44,-656.43
5630,-3.8713,-0.0179,-0.0691,1664.31,-1046.94,-734.56
5640,-3.8713,-0.0172,-0.0662,1711.18,-828.19,-15.81
5650,-3.8712,-0.0148,-0.0649,1804.93,-453.19,1406.07
5660,-3.8712,-0.0115,-0.0668,-1882.57,-296.94,-922.06
5670,-3.8711,-0.0090,-0.0699,-1460.69,-531.31,562.32
5680,-3.8711,-0.0074,-0.0719,-1148.19,-937.56,1577.94
5690,-3.8711,-0.0070,-0.0735,-945.07,-1187.56,-1984.56
5700,-3.8711,-0.0085,-0.0760,-882.57,-1390.69,-1953.31
5710,-3.8711,-0.0125,-0.0809,-1085.69,-1718.81,1827.94
5720,-3.8711,-0.0197,-0.0872,-1585.69,1656.19,1468.57
5730,-3.8711,-0.0291,-0.0923,1492.43,859.31,1046.69
5740,-3.8711,-0.0375,-0.0939,289.31,203.06,874.82
5750,-3.8711,-0.0420,-0.0903,-788.82,-0.12,1124.76
5760,-3.8711,-0.0417,-0.0870,-1366.94,453.00,1749.82
5770,-3.8711,-0.0394,-0.0867,-1335.69,874.88,-1422.06
5780,-3.8711,-0.0375,-0.0854,-1038.82,921.75,-750.18
5790,-3.8711,-0.0353,-0.0824,-788.82,1078.00,-515.81
5800,-3.8711,-0.0309,-0.0803,-507.57,1468.63,-1031.43
5810,-3.8711,-0.0260,-0.0802,54.93,1734.31,1781.07
5820,-3.8711,-0.0221,-0.0798,679.93,1749.94,421.69
5830,-3.8712,-0.0195,-0.0792,1179.93,1796.81,-750.18
5840,-3.8712,-0.0179,-0.0792,1508.06,1874.94,-1718.93
5850,-3.8712,-0.0161,-0.0793,1711.18,1874.94,1718.57
5860,-3.8712,-0.0157,-0.0793,1945.56,1859.31,1843.57
5870,-3.8712,-0.0182,-0.0782,1992.43,1859.31,-1343.93
5880,-3.8712,-0.0220,-0.0764,1679.93,1999.94,-234.56
5890,-3.8711,-0.0238,-0.0762,1195.56,-1765.69,874.82
5900,-3.8711,-0.0229,-0.0785,961.18,-1734.44,1531.07
5910,-3.8711,-0.0212,-0.0835,1070.56,1968.69,1171.69
5920,-3.8712,-0.0206,-0.0890,1289.31,1328.06,-343.93
5930,-3.8712,-0.0227,-0.0923,1367.43,624.94,1843.57
5940,-3.8712,-0.0271,-0.0918,1101.81,203.06,577.94
5950,-3.8713,-0.0326,-0.0903,539.31,265.56,-47.06
5960,-3.8713,-0.0350,-0.0897,-163.82,453.00,-78.31
5970,-3.8712,-0.0339,-0.0885,-476.32,531.13,374.82
5980,-3.8712,-0.0325,-0.0868,-335.69,687.38,1171.69
5990,-3.8712,-0.0312,-0.0857,-148.19,906.13,-1828.31
6000,-3.8712,-0.0284,-0.0858,8.06,1046.81,-797.06
6010,-3.8711,-0.0243,-0.0851,367.43,1031.19,77.94
6020,-3.8711,-0.0197,-0.0833,898.68,1124.94,624.82
6030,-3.8711,-0.0159,-0.0823,1492.43,1359.31,765.44
6040,-3.8711,-0.0161,-0.0820,1976.81,1484.31,734.19
6050,-3.8711,-0.0203,-0.0812,1945.56,1515.56,562.32
6060,-3.8711,-0.0262,-0.0809,1414.31,1624.94,171.69
6070,-3.8712,-0.0304,-0.0814,648.68,1656.19,-468.93
6080,-3.8712,-0.0294,-0.0809,117.43,1593.69,-1140.81
6090,-3.8712,-0.0238,-0.0798,242.43,1656.19,-1609.56
6100,-3.8712,-0.0171,-0.0792,961.18,1796.81,-1656.43
6110,-3.8712,-0.0117,-0.0792,1820.56,1874.94,-1031.43
6120,-3.8712,-0.0088,-0.0793,-1491.94,1874.94,-140.81
6130,-3.8711,-0.0077,-0.0791,-1116.94,1859.31,437.32
6140,-3.8711,-0.0087,-0.0796,-976.32,1890.56,546.69
6150,-3.8711,-0.0127,-0.0807,-1101.32,1828.06,202.94
6160,-3.8712,-0.0179,-0.0817,-1616.94,1687.44,-359.56
6170,-3.8712,-0.0229,-0.0825,1711.18,1562.44,-531.43
6180,-3.8712,-0.0286,-0.0828,1070.56,1453.06,-47.06
6190,-3.8711,-0.0363,-0.0807,351.81,1421.81,999.82
6200,-3.8711,-0.0447,-0.0759,-632.57,1687.38,-1953.31
6210,-3.8711,-0.0485,-0.0737,-1710.69,-1703.25,-1453.31
6220,-3.8711,-0.0425,-0.0763,1804.93,-1422.00,-1687.68
6230,-3.8711,-0.0303,-0.0793,-1429.44,-1750.12,1734.19
6240,-3.8711,-0.0197,-0.0796,133.06,1859.31,1093.57
6250,-3.8711,-0.0154,-0.0789,1492.43,1828.06,562.32
6260,-3.8711,-0.0178,-0.0787,-1960.69,1921.81,202.94
6270,-3.8711,-0.0240,-0.0780,1726.81,1937.44,109.19
6280,-3.8711,-0.0298,-0.0753,929.93,-1968.81,281.07
6290,-3.8711,-0.0326,-0.0732,195.56,-1625.06,437.32
6300,-3.8711,-0.0319,-0.0743,-163.82,-1359.50,499.82
6310,-3.8711,-0.0297,-0.0769,-70.07,-1500.12,359.19
6320,-3.8712,-0.0284,-0.0773,211.18,-1828.19,-0.18
6330,-3.8712,-0.0289,-0.0756,367.43,-1875.06,-297.06
6340,-3.8712,-0.0302,-0.0736,304.93,-1656.31,-312.68
6350,-3.8712,-0.0302,-0.0734,148.68,-1406.31,-47.06
6360,-3.8711,-0.0283,-0.0757,148.68,-1375.06,171.69
6370,-3.8711,-0.0253,-0.0780,383.06,-1671.94,140.44
6380,-3.8712,-0.0236,-0.0787,773.68,-1968.81,-93.93
6390,-3.8712,-0.0259,-0.0786,992.43,1937.44,-297.06
6400,-3.8712,-0.0326,-0.0782,695.56,1953.06,-297.06
6410,-3.8712,-0.0394,-0.0791,-163.82,1999.88,-234.56
6420,-3.8712,-0.0419,-0.0814,-1038.82,1890.50,-187.68
6430,-3.8712,-0.0398,-0.0839,-1351.32,1593.63,-218.93
6440,-3.8712,-0.0350,-0.0848,-1085.69,1281.13,-578.31
6450,-3.8712,-0.0295,-0.0856,-476.32,1156.13,-1187.68
6460,-3.8712,-0.0255,-0.0876,226.81,1062.44,-1734.56
6470,-3.8712,-0.0245,-0.0876,742.43,796.81,-1968.93
6480,-3.8712,-0.0273,-0.0845,867.43,796.81,-1812.68
6490,-3.8712,-0.0312,-0.0819,508.06,1203.06,-1468.93
6500,-3.8712,-0.0333,-0.0814,8.06,1531.19,-1172.06
6510,-3.8712,-0.0337,-0.0811,-257.57,1593.63,-922.06
6520,-3.8712,-0.0344,-0.0795,-304.44,1640.50,-609.56
6530,-3.8712,-0.0355,-0.0763,-398.19,1843.63,-15.81
6540,-3.8711,-0.0359,-0.0734,-538.82,-1750.12,593.57
6550,-3.8711,-0.0336,-0.0741,-585.69,-1375.12,859.19
6560,-3.8711,-0.0269,-0.0782,-288.82,-1468.87,577.94
6570,-3.8712,-0.0187,-0.0824,570.56,1999.94,-312.68
6580,-3.8712,-0.0142,-0.0833,1617.43,1468.69,-1297.06
6590,-3.8712,-0.0155,-0.0796,-1804.44,1359.31,-1781.43
6600,-3.8712,-0.0198,-0.0750,-1976.32,1828.06,-1640.81
6610,-3.8712,-0.0239,-0.0731,1476.81,-1578.19,-906.43
6620,-3.8711,-0.0273,-0.0726,945.56,-1343.81,327.94
6630,-3.8711,-0.0299,-0.0719,508.06,-1281.31,1702.94
6640,-3.8711,-0.0300,-0.0726,179.93,-1187.56,-1390.81
6650,-3.8711,-0.0265,-0.0743,164.31,-1281.31,-1218.93
6660,-3.8711,-0.0205,-0.0769,617.43,-1500.06,-1625.18
6670,-3.8711,-0.0146,-0.0808,1383.06,-1828.19,1390.44
6680,-3.8712,-0.0132,-0.0841,-1866.94,1671.81,-15.81
6690,-3.8712,-0.0193,-0.0851,-1679.44,1249.94,-1281.43
6700,-3.8712,-0.0314,-0.0841,1539.31,1124.94,1890.44
6710,-3.8712,-0.0433,-0.0829,-7.57,1249.88,1734.19
6720,-3.8712,-0.0499,-0.0818,-1538.82,1406.13,-1687.68
6730,-3.8712,-0.0485,-0.0801,1617.43,1546.75,-625.18
6740,-3.8711,-0.0416,-0.0775,1804.93,1765.50,562.32
6750,-3.8711,-0.0336,-0.0754,-1320.07,-1906.37,1593.57
6760,-3.8711,-0.0267,-0.0732,-288.82,-1640.75,-1672.06
6770,-3.8711,-0.0233,-0.0707,586.18,-1359.44,-1250.18
6780,-3.8711,-0.0225,-0.0686,1023.68,-1031.31,-1218.93
6790,-3.8711,-0.0206,-0.0695,1133.06,-765.69,-1672.06
6800,-3.8711,-0.0181,-0.0730,1367.43,-875.06,1437.32
6810,-3.8711,-0.0157,-0.0764,1695.56,-1328.19,249.82
6820,-3.8712,-0.0139,-0.0784,1992.43,-1765.69,-968.93
6830,-3.8712,-0.0144,-0.0793,-1773.19,1984.31,-1875.18
6840,-3.8712,-0.0188,-0.0800,-1835.69,1859.31,1781.07
6850,-3.8712,-0.0249,-0.0804,1601.81,1781.19,1952.94
6860,-3.8712,-0.0278,-0.0814,820.56,1718.69,-1828.31
6870,-3.8712,-0.0265,-0.0841,445.56,1593.69,-1812.68
6880,-3.8712,-0.0237,-0.0865,617.43,1249.94,-1937.68
6890,-3.8712,-0.0225,-0.0868,976.81,937.44,1890.44
6900,-3.8712,-0.0253,-0.0844,1133.06,906.19,1781.07
6910,-3.8712,-0.0312,-0.0807,773.68,1218.69,1984.19
6920,-3.8712,-0.0391,-0.0784,8.06,1687.44,-1390.81
6930,-3.8712,-0.0447,-0.0765,-991.94,1984.25,-437.68
6940,-3.8711,-0.0441,-0.0748,-1710.69,-1781.37,640.44
6950,-3.8711,-0.0375,-0.0747,-1632.57,-1562.62,1359.19
6960,-3.8711,-0.0297,-0.0767,-788.82,-1547.00,1468.57
6970,-3.8711,-0.0260,-0.0790,211.18,-1796.94,999.82
6980,-3.8711,-0.0260,-0.0806,679.93,1906.19,109.19
6990,-3.8712,-0.0266,-0.0807,679.93,1703.06,-1125.18
7000,-3.8712,-0.0265,-0.0808,601.81,1687.44,1577.94
7010,-3.8712,-0.0264,-0.0814,617.43,1671.81,702.94
7020,-3.8712,-0.0273,-0.0804,633.06,1593.69,624.82
7030,-3.8712,-0.0304,-0.0780,508.06,1718.69,1312.32
7040,-3.8712,-0.0332,-0.0752,117.43,-1968.81,-1562.68
7050,-3.8712,-0.0326,-0.0726,-241.94,-1609.50,-343.93
7060,-3.8711,-0.0293,-0.0706,-163.82,-1281.37,812.32
7070,-3.8711,-0.0256,-0.0681,258.06,-1015.69,1734.19
7080,-3.8711,-0.0243,-0.0660,726.81,-703.19,-1484.56
7090,-3.8711,-0.0266,-0.0656,898.68,-437.56,-953.31
7100,-3.8711,-0.0304,-0.0659,601.81,-375.06,-1047.06
7110,-3.8711,-0.0317,-0.0686,117.43,-421.94,-1859.56
7120,-3.8711,-0.0297,-0.0739,-54.44,-765.75,734.19
7130,-3.8712,-0.0262,-0.0771,211.18,-1437.56,-953.31
7140,-3.8712,-0.0249,-0.0768,648.68,-1859.44,1515.44
7150,-3.8712,-0.0266,-0.0768,820.56,-1812.56,499.82
7160,-3.8713,-0.0283,-0.0813,601.81,-1812.56,-31.43
7170,-3.8713,-0.0292,-0.0873,383.06,1609.31,-156.43
7180,-3.8712,-0.0316,-0.0895,273.68,843.69,109.19
7190,-3.8712,-0.0353,-0.0878,-38.82,562.38,593.57
7200,-3.8712,-0.0377,-0.0846,-507.57,781.13,1577.94
7210,-3.8712,-0.0369,-0.0811,-820.07,1187.38,-781.43
7220,-3.8711,-0.0330,-0.0764,-710.69,1640.50,1046.69
7230,-3.8711,-0.0269,-0.0734,-210.69,-1765.75,-1281.43
7240,-3.8710,-0.0186,-0.0737,570.56,-1375.06,156.07
7250,-3.8710,-0.0104,-0.0743,1633.06,-1421.94,874.82
7260,-3.8710,-0.0062,-0.0740,-1320.07,-1500.06,593.57
7270,-3.8711,-0.0082,-0.0746,-788.82,-1453.19,-484.56
7280,-3.8711,-0.0129,-0.0760,-1038.82,-1531.31,-1875.18
7290,-3.8711,-0.0144,-0.0757,-1648.19,-1718.81,890.44
7300,-3.8712,-0.0103,-0.0750,-1835.69,-1671.94,-187.68
7310,-3.8712,-0.0021,-0.0752,-1304.44,-1578.19,-1078.31
7320,-3.8712,0.0035,-0.0737,-257.57,-1609.44,-1437.68
7330,-3.8712,-0.0009,-0.0718,461.18,-1437.50,-906.43
7340,-3.8711,-0.0143,-0.0701,-101.32,-1171.94,312.32
7350,-3.8711,-0.0292,-0.0691,-1820.07,-953.19,1624.82
7360,-3.8711,-0.0374,-0.0698,273.68,-828.19,-1343.93
7370,-3.8711,-0.0363,-0.0706,-773.19,-922.00,-734.56
7380,-3.8711,-0.0295,-0.0718,-632.57,-1015.75,-859.56
7390,-3.8711,-0.0221,-0.0736,226.81,-1171.94,-1734.56
7400,-3.8711,-0.0189,-0.0740,1179.93,-1406.31,1046.69
7410,-3.8712,-0.0216,-0.0728,1586.18,-1453.19,-15.81
7420,-3.8712,-0.0262,-0.0715,1242.43,-1296.94,-453.31
7430,-3.8712,-0.0298,-0.0724,648.68,-1140.69,-234.56
7440,-3.8711,-0.0326,-0.0750,195.56,-1250.06,343.57
7450,-3.8711,-0.0353,-0.0769,-163.82,-1578.25,656.07
7460,-3.8711,-0.0371,-0.0758,-507.57,-1828.25,484.19
7470,-3.8711,-0.0376,-0.0742,-741.94,-1687.62,109.19
7480,-3.8712,-0.0372,-0.0756,-804.44,-1484.50,-297.06
7490,-3.8712,-0.0385,-0.0771,-757.57,-1656.37,-562.68
7500,-3.8712,-0.0420,-0.0764,-913.82,-1859.50,-687.68
7510,-3.8712,-0.0439,-0.0741,-1366.94,-1765.75,-718.93
7520,-3.8712,-0.0428,-0.0726,-1616.94,-1468.87,-718.93
7530,-3.8712,-0.0396,-0.0721,-1476.32,-1281.37,-531.43
7540,-3.8712,-0.0361,-0.0712,-1054.44,-1218.87,-125.18
7550,-3.8711,-0.0355,-0.0690,-616.94,-1093.87,374.82
7560,-3.8711,-0.0369,-0.0671,-538.82,-812.62,859.19
7570,-3.8711,-0.0358,-0.0690,-710.69,-578.25,968.57
7580,-3.8711,-0.0309,-0.0736,-570.07,-812.62,452.94
7590,-3.8712,-0.0256,-0.0776,54.93,-1406.31,-281.43
7600,-3.8712,-0.0243,-0.0795,726.81,-1921.94,-1062.68
7610,-3.8712,-0.0293,-0.0802,898.68,1843.69,-1890.81
7620,-3.8712,-0.0380,-0.0807,258.06,1749.94,1484.19
7630,-3.8712,-0.0426,-0.0806,-851.32,1687.38,1249.82
7640,-3.8712,-0.0403,-0.0796,-1445.07,1703.00,1374.82
7650,-3.8712,-0.0341,-0.0789,-1148.19,1828.00,1765.44
7660,-3.8712,-0.0284,-0.0790,-351.32,1921.75,-1578.31
7670,-3.8712,-0.0259,-0.0801,367.43,1906.19,-625.18
7680,-3.8711,-0.0258,-0.0793,695.56,1765.56,640.44
7690,-3.8711,-0.0265,-0.0771,711.18,1859.31,1812.32
7700,-3.8711,-0.0270,-0.0760,617.43,-1859.44,-1609.56
7710,-3.8711,-0.0255,-0.0754,554.93,-1718.81,-1797.06
7720,-3.8711,-0.0231,-0.0759,742.43,-1640.69,1343.57
7730,-3.8711,-0.0228,-0.0773,1054.93,-1703.19,202.94
7740,-3.8712,-0.0250,-0.0782,1086.18,-1875.06,-750.18
7750,-3.8712,-0.0270,-0.0791,804.93,1999.94,-1515.81
7760,-3.8712,-0.0253,-0.0789,554.93,1890.56,1952.94
7770,-3.8712,-0.0200,-0.0780,773.68,1921.81,1562.32
7780,-3.8712,-0.0156,-0.0770,1445.56,-1968.81,1359.19
7790,-3.8712,-0.0151,-0.0753,-1991.94,-1843.81,1656.07
7800,-3.8712,-0.0186,-0.0743,-1929.44,-1625.06,-1484.56
7810,-3.8712,-0.0244,-0.0748,1633.06,-1500.06,-218.93
7820,-3.8711,-0.0294,-0.0757,883.06,-1562.56,937.32
7830,-3.8711,-0.0310,-0.0764,242.43,-1671.94,1577.94
7840,-3.8711,-0.0292,-0.0769,39.31,-1765.69,1656.07
7850,-3.8711,-0.0265,-0.0767,273.68,-1828.19,1343.57
7860,-3.8711,-0.0239,-0.0764,617.43,-1796.94,859.19
7870,-3.8711,-0.0201,-0.0780,945.56,-1765.69,234.19
7880,-3.8712,-0.0157,-0.0808,1429.93,-1968.81,-484.56
7890,-3.8712,-0.0134,-0.0825,1992.43,1671.81,-1187.68
7900,-3.8712,-0.0168,-0.0828,-1710.69,1453.06,-1750.18
7910,-3.8712,-0.0255,-0.0834,1851.81,1421.81,1984.19
7920,-3.8712,-0.0345,-0.0842,742.43,1343.69,-1781.43
7930,-3.8712,-0.0389,-0.0830,-413.82,1234.25,-1062.68
7940,-3.8712,-0.0382,-0.0797,-976.32,1390.50,-109.56
7950,-3.8711,-0.0336,-0.0757,-882.57,1812.38,781.07
7960,-3.8711,-0.0269,-0.0730,-288.82,-1672.00,1562.32
7970,-3.8711,-0.0208,-0.0721,570.56,-1328.19,-1968.93
7980,-3.8711,-0.0177,-0.0725,1351.81,-1218.81,-1984.56
7990,-3.8711,-0.0173,-0.0739,1742.43,-1265.69,1640.44
8000,-3.8711,-0.0177,-0.0764,1789.31,-1437.56,984.19
8010,-3.8711,-0.0190,-0.0809,1742.43,-1765.69,124.82
8020,-3.8712,-0.0206,-0.0845,1570.56,1656.19,-828.31
8030,-3.8712,-0.0226,-0.0850,1367.43,1203.06,-1703.31
8040,-3.8712,-0.0264,-0.0839,1117.43,1140.56,1874.82
8050,-3.8712,-0.0310,-0.0823,633.06,1281.19,-1875.18
8060,-3.8712,-0.0339,-0.0802,39.31,1484.31,-1047.06
8070,-3.8712,-0.0332,-0.0781,-335.69,1749.88,-62.68
8080,-3.8711,-0.0287,-0.0763,-241.94,-1984.50,609.19
8090,-3.8711,-0.0215,-0.0750,336.18,-1750.06,1046.69
8100,-3.8711,-0.0155,-0.0759,1258.06,-1578.19,1390.44
8110,-3.8711,-0.0135,-0.0784,-1976.32,-1703.19,1515.44
8120,-3.8711,-0.0153,-0.0792,-1726.32,1984.31,1359.19
8130,-3.8711,-0.0199,-0.0790,-1945.07,1874.94,765.44
8140,-3.8712,-0.0242,-0.0803,1461.18,1906.19,-109.56
8150,-3.8712,-0.0256,-0.0825,914.31,1734.31,-968.93
8160,-3.8712,-0.0247,-0.0824,726.81,1453.06,-1640.81
8170,-3.8712,-0.0233,-0.0815,851.81,1468.69,-1968.93
8180,-3.8712,-0.0231,-0.0820,1023.68,1578.06,-1718.93
8190,-3.8712,-0.0236,-0.0823,1054.93,1515.56,-1172.06
8200,-3.8712,-0.0234,-0.0819,992.43,1484.31,-750.18
8210,-3.8712,-0.0225,-0.0812,1008.06,1531.19,-562.68
8220,-3.8712,-0.0220,-0.0807,1133.06,1624.94,-547.06
8230,-3.8712,-0.0225,-0.0808,1195.56,1687.44,-656.43
8240,-3.8712,-0.0226,-0.0828,1133.06,1671.81,-1031.43
8250,-3.8712,-0.0226,-0.0852,1117.43,1421.81,-1531.43
8260,-3.8712,-0.0233,-0.0848,1117.43,1109.31,-1765.81
8270,-3.8712,-0.0264,-0.0826,1023.68,1156.19,-1593.93
8280,-3.8712,-0.0308,-0.0817,633.06,1437.44,-953.31
8290,-3.8711,-0.0342,-0.0809,70.56,1562.44,31.07
8300,-3.8711,-0.0352,-0.0787,-366.94,1656.13,984.19
8310,-3.8711,-0.0330,-0.0765,-491.94,1937.38,1718.57
8320,-3.8711,-0.0275,-0.0753,-210.69,-1781.37,-1781.43
8330,-3.8711,-0.0216,-0.0758,492.43,-1625.06,-1859.56
8340,-3.8711,-0.0197,-0.0770,1242.43,-1687.56,1359.19
8350,-3.8711,-0.0220,-0.0782,1492.43,-1843.81,374.82
8360,-3.8712,-0.0266,-0.0797,1195.56,1999.94,-359.56
8370,-3.8712,-0.0299,-0.0814,601.81,1812.44,-843.93
8380,-3.8712,-0.0306,-0.0824,179.93,1593.69,-1109.56
8390,-3.8712,-0.0302,-0.0822,86.18,1468.69,-1140.81
8400,-3.8712,-0.0283,-0.0807,148.68,1499.94,-1062.68
8410,-3.8712,-0.0258,-0.0814,383.06,1687.44,-1015.81
8420,-3.8712,-0.0239,-0.0837,711.18,1593.69,-828.31
8430,-3.8712,-0.0239,-0.0845,945.56,1296.81,-343.93
8440,-3.8711,-0.0264,-0.0842,945.56,1203.06,421.69
8450,-3.8711,-0.0297,-0.0826,633.06,1234.31,1390.44
8460,-3.8711,-0.0305,-0.0786,211.18,1437.44,-1890.81
8470,-3.8711,-0.0283,-0.0758,101.81,1953.06,-1890.81
8480,-3.8711,-0.0250,-0.0779,383.06,-1687.56,1406.07
8490,-3.8711,-0.0225,-0.0819,804.93,-1953.19,265.44
8500,-3.8712,-0.0220,-0.0842,1133.06,1531.19,-1093.93
8510,-3.8712,-0.0228,-0.0853,1195.56,1234.31,1781.07
8520,-3.8712,-0.0248,-0.0856,1086.18,1093.69,1140.44
8530,-3.8712,-0.0289,-0.0846,836.18,1062.44,906.07
8540,-3.8712,-0.0331,-0.0834,304.93,1187.44,984.19
8550,-3.8712,-0.0349,-0.0831,-226.32,1343.63,1437.32
8560,-3.8712,-0.0325,-0.0835,-460.69,1374.88,-1953.31
8570,-3.8712,-0.0266,-0.0835,-148.19,1328.00,-1562.68
8580,-3.8712,-0.0214,-0.0829,601.81,1328.06,-1203.31
8590,-3.8712,-0.0200,-0.0802,1273.68,1406.19,-672.06
8600,-3.8711,-0.0222,-0.0770,1445.56,1749.94,31.07
8610,-3.8711,-0.0245,-0.0760,1164.31,-1843.81,796.69
8620,-3.8711,-0.0248,-0.0770,867.43,-1718.81,1265.44
8630,-3.8711,-0.0234,-0.0781,836.18,-1843.81,1249.82
8640,-3.8711,-0.0231,-0.0792,1008.06,-1984.44,984.19
8650,-3.8711,-0.0243,-0.0811,1054.93,1874.94,515.44
8660,-3.8712,-0.0271,-0.0829,898.68,1640.56,-187.68
8670,-3.8712,-0.0326,-0.0840,539.31,1406.19,-703.31
8680,-3.8712,-0.0385,-0.0848,-163.82,1265.50,-859.56
8690,-3.8712,-0.0414,-0.0848,-913.82,1156.13,-765.81
8700,-3.8712,-0.0416,-0.0836,-1288.82,1156.13,-609.56
8710,-3.8712,-0.0387,-0.0820,-1320.07,1312.38,-515.81
8720,-3.8712,-0.0337,-0.0809,-945.07,1515.50,-453.31
8730,-3.8712,-0.0276,-0.0802,-304.44,1656.13,-281.43
8740,-3.8712,-0.0232,-0.0793,476.81,1749.94,-31.43
8750,-3.8711,-0.0234,-0.0785,1039.31,1859.31,218.57
8760,-3.8711,-0.0277,-0.0768,1008.06,1968.69,468.57
8770,-3.8711,-0.0321,-0.0751,461.18,-1812.56,734.19
8780,-3.8711,-0.0342,-0.0750,-101.32,-1593.87,1077.94
8790,-3.8711,-0.0336,-0.0750,-366.94,-1578.25,1452.94
8800,-3.8711,-0.0306,-0.0743,-288.82,-1578.25,1593.57
8810,-3.8711,-0.0262,-0.0745,86.18,-1500.06,1218.57
8820,-3.8711,-0.0228,-0.0764,648.68,-1515.69,484.19
8830,-3.8712,-0.0204,-0.0793,1086.18,-1765.69,-328.31
8840,-3.8712,-0.0187,-0.0822,1398.68,1859.31,-1093.93
8850,-3.8712,-0.0197,-0.0837,1617.43,1499.94,-1593.93
8860,-3.8712,-0.0240,-0.0828,1492.43,1296.81,-1515.81
8870,-3.8712,-0.0317,-0.0793,929.93,1421.81,-937.68
8880,-3.8712,-0.0388,-0.0768,-54.44,1859.25,-172.06
8890,-3.8711,-0.0413,-0.0770,-960.69,-1812.62,609.19
8900,-3.8711,-0.0380,-0.0767,-1273.19,-1843.87,1468.57
8910,-3.8711,-0.0305,-0.0753,-851.32,-1797.00,-1750.18
8920,-3.8711,-0.0229,-0.0751,101.81,-1625.06,-1250.18
8930,-3.8711,-0.0177,-0.0764,1070.56,-1593.81,-1390.81
8940,-3.8711,-0.0161,-0.0780,1742.43,-1765.69,1609.19
8950,-3.8711,-0.0189,-0.0793,1945.56,-1968.81,15.44
8960,-3.8712,-0.0248,-0.0814,1586.18,1859.31,-1656.43
8970,-3.8712,-0.0302,-0.0837,836.18,1593.69,1046.69
8980,-3.8712,-0.0323,-0.0841,148.68,1296.81,234.19
8990,-3.8712,-0.0322,-0.0842,-132.57,1249.88,15.44
9000,-3.8712,-0.0321,-0.0851,-116.94,1234.25,531.07
9010,-3.8712,-0.0338,-0.0846,-101.32,1124.88,1609.19
9020,-3.8712,-0.0378,-0.0828,-320.07,1187.38,-953.31
9030,-3.8711,-0.0421,-0.0789,-835.69,1421.75,656.07
9040,-3.8711,-0.0421,-0.0746,-1382.57,1921.75,-1828.31
9050,-3.8711,-0.0364,-0.0725,-1382.57,-1531.37,-718.93
9060,-3.8711,-0.0272,-0.0730,-648.19,-1265.75,-234.56
9070,-3.8711,-0.0184,-0.0740,523.68,-1328.19,-484.56
9080,-3.8711,-0.0135,-0.0754,1648.68,-1453.19,-1515.81
9090,-3.8711,-0.0139,-0.0790,-1726.32,-1640.69,1015.44
9100,-3.8712,-0.0197,-0.0831,-1773.19,1906.19,-375.18
9110,-3.8712,-0.0283,-0.0854,1492.43,1374.94,-1500.18
9120,-3.8712,-0.0347,-0.0857,383.06,1078.06,1827.94
9130,-3.8712,-0.0360,-0.0869,-429.44,1046.75,1702.94
9140,-3.8712,-0.0344,-0.0891,-601.32,890.50,-1937.68
9150,-3.8712,-0.0333,-0.0889,-398.19,609.25,-1312.68
9160,-3.8712,-0.0339,-0.0858,-257.57,640.50,-812.68
9170,-3.8712,-0.0344,-0.0826,-335.69,1031.13,-593.93
9180,-3.8712,-0.0330,-0.0808,-398.19,1437.38,-328.31
9190,-3.8711,-0.0305,-0.0796,-210.69,1671.75,484.19
9200,-3.8711,-0.0277,-0.0769,101.81,1828.06,1577.94
9210,-3.8711,-0.0233,-0.0737,461.18,-1828.19,-1718.93
9220,-3.8711,-0.0173,-0.0739,1023.68,-1421.94,-1890.81
9230,-3.8711,-0.0103,-0.0779,1789.31,-1437.56,921.69
9240,-3.8712,-0.0057,-0.0841,-1304.44,-1953.19,-984.56
9250,-3.8712,-0.0077,-0.0895,-726.32,1249.94,874.82
9260,-3.8713,-0.0138,-0.0924,-976.32,562.44,-765.81
9270,-3.8713,-0.0222,-0.0925,-1757.57,187.44,-1609.56
9280,-3.8713,-0.0297,-0.0913,1164.31,171.81,-1890.81
9290,-3.8713,-0.0323,-0.0895,211.18,328.06,-1640.81
9300,-3.8713,-0.0302,-0.0872,-132.57,562.38,-812.68
9310,-3.8712,-0.0249,-0.0852,148.68,859.31,421.69
9320,-3.8712,-0.0187,-0.0825,820.56,1109.31,1827.94
9330,-3.8712,-0.0144,-0.0787,1617.43,1453.06,-765.81
9340,-3.8711,-0.0133,-0.0767,-1835.69,1937.44,546.69
9350,-3.8711,-0.0138,-0.0768,-1695.07,-1796.94,1577.94
9360,-3.8711,-0.0146,-0.0784,-1757.57,-1812.56,-1890.81
9370,-3.8711,-0.0162,-0.0808,-1866.94,1984.31,1906.07
9380,-3.8711,-0.0186,-0.0837,1929.93,1671.81,968.57
9390,-3.8712,-0.0210,-0.0863,1633.06,1296.81,-390.81
9400,-3.8712,-0.0247,-0.0880,1320.56,968.69,-1797.06
9410,-3.8712,-0.0273,-0.0879,851.81,749.94,1187.32
9420,-3.8712,-0.0275,-0.0859,508.06,765.56,749.82
9430,-3.8712,-0.0248,-0.0828,492.43,1015.56,874.82
9440,-3.8712,-0.0216,-0.0786,836.18,1421.81,1624.82
9450,-3.8712,-0.0190,-0.0737,1242.43,1953.06,-968.93
9460,-3.8711,-0.0172,-0.0699,1570.56,-1421.94,827.94
9470,-3.8711,-0.0173,-0.0670,1804.93,-937.56,-1218.93
9480,-3.8710,-0.0200,-0.0635,1789.31,-562.56,577.94
9490,-3.8710,-0.0239,-0.0627,1445.56,-109.44,1765.44
9500,-3.8710,-0.0270,-0.0656,945.56,-15.69,-1765.81
9510,-3.8710,-0.0295,-0.0687,554.93,-375.06,1968.57
9520,-3.8710,-0.0312,-0.0712,226.81,-781.31,843.57
9530,-3.8711,-0.0322,-0.0740,8.06,-1093.81,-875.18
9540,-3.8711,-0.0333,-0.0754,-116.94,-1453.25,1437.32
9550,-3.8711,-0.0328,-0.0751,-257.57,-1640.75,187.32
9560,-3.8712,-0.0292,-0.0742,-195.07,-1593.87,-625.18
9570,-3.8712,-0.0258,-0.0729,273.68,-1484.44,-937.68
9580,-3.8712,-0.0258,-0.0719,711.18,-1312.56,-765.81
9590,-3.8712,-0.0291,-0.0732,711.18,-1187.56,-203.31
9600,-3.8711,-0.0334,-0.0746,289.31,-1359.44,687.32
9610,-3.8711,-0.0365,-0.0724,-273.19,-1531.37,1718.57
9620,-3.8711,-0.0374,-0.0702,-663.82,-1250.12,-1484.56
9630,-3.8711,-0.0364,-0.0719,-773.19,-968.87,-1109.56
9640,-3.8711,-0.0356,-0.0742,-648.19,-1187.62,-1218.93
9650,-3.8711,-0.0361,-0.0734,-554.44,-1484.50,-1828.31
9660,-3.8711,-0.0361,-0.0721,-616.94,-1375.12,1265.44
9670,-3.8711,-0.0323,-0.0745,-616.94,-1218.87,234.19
9680,-3.8712,-0.0245,-0.0785,-132.57,-1515.75,-781.43
9690,-3.8712,-0.0173,-0.0809,867.43,1968.69,-1750.18
9700,-3.8712,-0.0146,-0.0812,1789.31,1656.19,1343.57
9710,-3.8712,-0.0171,-0.0795,-1866.94,1624.94,765.44
9720,-3.8712,-0.0229,-0.0779,1820.56,1843.69,749.82
9730,-3.8712,-0.0289,-0.0780,1070.56,-1953.19,1202.94
9740,-3.8712,-0.0328,-0.0785,304.93,-1968.81,1906.07
9750,-3.8712,-0.0341,-0.0785,-195.07,1968.63,-1625.18
9760,-3.8712,-0.0327,-0.0784,-351.32,1968.63,-1609.56
9770,-3.8712,-0.0306,-0.0774,-179.44,1984.25,-1672.06
9780,-3.8712,-0.0293,-0.0753,86.18,-1890.69,-1625.18
9790,-3.8712,-0.0282,-0.0739,258.06,-1625.06,-1531.43
9800,-3.8712,-0.0265,-0.0741,398.68,-1437.56,-1578.31
9810,-3.8712,-0.0237,-0.0770,617.43,-1468.81,-1843.93
9820,-3.8712,-0.0211,-0.0819,976.81,-1843.81,1702.94
9830,-3.8712,-0.0216,-0.0859,1304.93,1531.19,1171.69
9840,-3.8712,-0.0267,-0.0872,1242.43,1015.56,952.94
9850,-3.8712,-0.0349,-0.0848,586.18,859.31,1374.82
9860,-3.8712,-0.0419,-0.0812,-460.69,1156.13,-1812.68
9870,-3.8712,-0.0437,-0.0806,-1351.32,1624.88,-1062.68
9880,-3.8712,-0.0410,-0.0824,-1585.69,1703.00,-531.43
9890,-3.8712,-0.0355,-0.0836,-1241.94,1468.63,-172.06
9900,-3.8711,-0.0312,-0.0822,-538.82,1312.38,77.94
9910,-3.8711,-0.0308,-0.0800,8.06,1499.94,406.07
9920,-3.8711,-0.0310,-0.0801,70.56,1781.19,812.32
9930,-3.8711,-0.0298,-0.0809,39.31,1765.56,1202.94
9940,-3.8711,-0.0273,-0.0796,195.56,1656.19,1437.32
9950,-3.8711,-0.0244,-0.0773,508.06,1828.06,1437.32
9960,-3.8711,-0.0225,-0.0758,883.06,-1875.06,1406.07
9970,-3.8711,-0.0226,-0.0750,1133.06,-1687.56,1374.82
9980,-3.8711,-0.0237,-0.0750,1117.43,-1578.19,1343.57
9990,-3.8711,-0.0242,-0.0756,976.81,-1578.19,1265.44
10000,-3.8711,-0.0234,-0.0743,914.31,-1656.31,1124.82
10010,-3.8711,-0.0205,-0.0718,1008.06,-1500.06,984.19
10020,-3.8711,-0.0161,-0.0717,1383.06,-1171.94,765.44
10030,-3.8711,-0.0128,-0.0729,1945.56,-1156.31,562.32
10040,-3.8711,-0.0131,-0.0720,-1632.57,-1312.56,484.19
10050,-3.8711,-0.0165,-0.0703,-1663.82,-1203.19,437.32
10060,-3.8711,-0.0200,-0.0693,1898.68,-984.44,468.57
10070,-3.8711,-0.0227,-0.0693,1445.56,-859.44,765.44
10080,-3.8711,-0.0245,-0.0702,1101.81,-859.44,1202.94
10090,-3.8711,-0.0259,-0.0703,867.43,-968.81,1687.32
10100,-3.8711,-0.0264,-0.0702,695.56,-984.44,-1890.81
10110,-3.8711,-0.0243,-0.0706,633.06,-968.81,-1875.18
10120,-3.8711,-0.0203,-0.0728,898.68,-1015.69,1484.19
10130,-3.8711,-0.0187,-0.0765,1414.31,-1296.94,327.94
10140,-3.8712,-0.0199,-0.0804,1617.43,-1781.31,-1031.43
10150,-3.8712,-0.0225,-0.0840,1461.18,1718.69,1687.32
10160,-3.8712,-0.0248,-0.0859,1133.06,1265.56,796.69
10170,-3.8712,-0.0275,-0.0853,836.18,1015.56,499.82
10180,-3.8712,-0.0321,-0.0839,492.43,1093.69,984.19
10190,-3.8712,-0.0377,-0.0822,-101.32,1281.13,-1703.31
10200,-3.8711,-0.0425,-0.0795,-820.07,1499.88,46.69
10210,-3.8711,-0.0433,-0.0776,-1429.44,1843.63,1609.19
10220,-3.8711,-0.0378,-0.0776,-1538.82,-1922.00,-1500.18
10230,-3.8711,-0.0302,-0.0786,-835.69,-1922.00,-1515.81
10240,-3.8711,-0.0250,-0.0797,148.68,1953.06,1593.57
10250,-3.8711,-0.0247,-0.0795,804.93,1812.44,156.07
10260,-3.8712,-0.0254,-0.0793,851.81,1843.69,-1375.18
10270,-3.8712,-0.0237,-0.0796,758.06,1859.31,1312.32
10280,-3.8712,-0.0219,-0.0802,976.81,1828.06,327.94
10290,-3.8713,-0.0219,-0.0815,1211.18,1749.94,-172.06
10300,-3.8713,-0.0244,-0.0835,1211.18,1578.06,-78.31
10310,-3.8712,-0.0293,-0.0840,883.06,1328.06,421.69
10320,-3.8712,-0.0344,-0.0823,258.06,1265.56,1109.19
10330,-3.8712,-0.0378,-0.0796,-398.19,1484.25,1952.94
10340,-3.8712,-0.0383,-0.0765,-835.69,1828.00,-890.81
10350,-3.8711,-0.0352,-0.0740,-898.19,-1781.37,468.57
10360,-3.8711,-0.0295,-0.0734,-491.94,-1453.25,1624.82
10370,-3.8711,-0.0237,-0.0760,226.81,-1375.06,-1672.06
10380,-3.8711,-0.0187,-0.0793,976.81,-1718.81,-1531.43
10390,-3.8711,-0.0160,-0.0812,1617.43,1859.31,-1734.56
10400,-3.8711,-0.0164,-0.0815,1961.18,1624.94,1937.32
10410,-3.8711,-0.0187,-0.0814,1914.31,1578.06,1359.19
10420,-3.8711,-0.0199,-0.0809,1617.43,1593.69,609.19
10430,-3.8712,-0.0177,-0.0803,1461.18,1656.19,-109.56
10440,-3.8712,-0.0135,-0.0800,1742.43,1734.31,-593.93
10450,-3.8712,-0.0121,-0.0813,-1726.32,1781.19,-609.56
10460,-3.8711,-0.0161,-0.0820,-1538.82,1609.31,31.07
10470,-3.8711,-0.0234,-0.0780,1945.56,1515.56,1156.07
10480,-3.8711,-0.0309,-0.0759,1008.06,-1968.81,-1765.81
10490,-3.8711,-0.0356,-0.0776,54.93,-1703.19,-1265.81
10500,-3.8711,-0.0338,-0.0780,-554.44,-1922.00,-1562.68
10510,-3.8711,-0.0258,-0.0786,-320.07,-1968.87,1281.07
10520,-3.8712,-0.0138,-0.0795,711.18,1953.06,-250.18
10530,-3.8712,-0.0040,-0.0790,-1757.57,1843.69,-1437.68
10540,-3.8712,-0.0031,-0.0768,-507.57,1906.19,-1890.81
10550,-3.8712,-0.0094,-0.0745,-382.57,-1812.56,-1390.81
10560,-3.8712,-0.0175,-0.0734,-1195.07,-1515.69,-187.68
10570,-3.8711,-0.0223,-0.0743,1773.68,-1375.06,968.57
10580,-3.8711,-0.0204,-0.0763,1148.68,-1500.06,1562.32
10590,-3.8711,-0.0116,-0.0782,1398.68,-1750.06,1234.19
10600,-3.8711,-0.0004,-0.0814,-1476.32,1999.94,140.44
10610,-3.8712,0.0078,-0.0842,-38.82,1593.69,-1047.06
10620,-3.8712,0.0070,-0.0856,1008.06,1218.75,-1828.31
10630,-3.8712,-0.0015,-0.0854,898.68,1046.88,1859.19
10640,-3.8712,-0.0114,-0.0845,-179.44,1078.06,-1922.06
10650,-3.8712,-0.0193,-0.0842,-1445.07,1203.06,-1500.18
10660,-3.8712,-0.0226,-0.0852,1539.31,1234.31,-1203.31
10670,-3.8712,-0.0215,-0.0865,1117.43,1109.31,-1015.81
10680,-3.8712,-0.0211,-0.0886,1258.06,937.44,-906.43
10690,-3.8712,-0.0248,-0.0901,1304.93,671.81,-1000.18
10700,-3.8712,-0.0312,-0.0892,836.18,484.31,-1187.68
10710,-3.8712,-0.0389,-0.0878,8.06,593.69,-1093.93
10720,-3.8712,-0.0428,-0.0863,-976.32,781.13,-718.93
10730,-3.8712,-0.0408,-0.0844,-1476.32,968.63,-625.18
10740,-3.8712,-0.0349,-0.0824,-1210.69,1218.63,-1203.31
10750,-3.8712,-0.0278,-0.0813,-460.69,1468.63,1906.07
10760,-3.8712,-0.0239,-0.0803,445.56,1609.31,1015.44
10770,-3.8712,-0.0239,-0.0781,945.56,1734.31,390.44
10780,-3.8712,-0.0253,-0.0771,945.56,-1984.44,374.82
10790,-3.8712,-0.0249,-0.0775,773.68,-1859.44,921.69
10800,-3.8712,-0.0227,-0.0775,820.56,-1906.31,1843.57
10810,-3.8712,-0.0210,-0.0769,1101.81,-1906.31,-1015.81
10820,-3.8711,-0.0219,-0.0732,1320.56,-1828.19,437.32
10830,-3.8711,-0.0245,-0.0695,1211.18,-1359.44,1843.57
10840,-3.8711,-0.0261,-0.0682,867.43,-875.06,-1218.93
10850,-3.8711,-0.0255,-0.0691,664.31,-718.81,-828.31
10860,-3.8711,-0.0236,-0.0723,742.43,-828.19,-1203.31
10870,-3.8711,-0.0225,-0.0762,992.43,-1234.44,1890.44
10880,-3.8711,-0.0242,-0.0789,1133.06,-1734.44,984.19
10890,-3.8711,-0.0280,-0.0797,914.31,1921.81,577.94
10900,-3.8711,-0.0297,-0.0795,429.93,1812.44,874.82
10910,-3.8711,-0.0278,-0.0803,211.18,1843.69,1577.94
10920,-3.8711,-0.0242,-0.0833,445.56,1734.31,-1875.18
10930,-3.8711,-0.0225,-0.0857,914.31,1359.31,-1937.68
10940,-3.8711,-0.0243,-0.0862,1133.06,1046.81,1452.94
10950,-3.8711,-0.0271,-0.0852,898.68,984.31,843.57
10960,-3.8711,-0.0292,-0.0824,539.31,1109.31,546.69
10970,-3.8711,-0.0299,-0.0781,273.68,1468.69,577.94
10980,-3.8711,-0.0280,-0.0748,179.93,-1984.44,859.19
10990,-3.8711,-0.0239,-0.0748,429.93,-1562.56,1265.44
11000,-3.8711,-0.0194,-0.0760,945.56,-1562.56,1577.94
11010,-3.8711,-0.0159,-0.0775,1523.68,-1718.81,1452.94
11020,-3.8711,-0.0132,-0.0798,1976.81,-1906.31,890.44
11030,-3.8711,-0.0116,-0.0822,-1679.44,1796.81,46.69
11040,-3.8712,-0.0121,-0.0839,-1476.32,1499.94,-968.93
11050,-3.8712,-0.0143,-0.0850,-1538.82,1281.19,-1906.43
11060,-3.8712,-0.0173,-0.0861,-1820.07,1140.56,1406.07
11070,-3.8712,-0.0198,-0.0858,1789.31,999.94,1281.07
11080,-3.8712,-0.0215,-0.0833,1476.81,1031.19,1859.19
11090,-3.8712,-0.0227,-0.0820,1258.06,1359.31,-1328.31
11100,-3.8712,-0.0222,-0.0839,1101.81,1515.56,-734.56
11110,-3.8712,-0.0205,-0.0862,1164.31,1281.19,-406.43
11120,-3.8712,-0.0193,-0.0879,1383.06,984.31,-343.93
11130,-3.8712,-0.0206,-0.0885,1539.31,765.56,-375.18
11140,-3.8712,-0.0261,-0.0878,1367.43,687.44,-156.43
11150,-3.8711,-0.0333,-0.0863,664.31,781.19,359.19
11160,-3.8711,-0.0365,-0.0851,-257.57,968.63,781.07
11170,-3.8711,-0.0312,-0.0854,-663.82,1124.88,624.82
11180,-3.8712,-0.0194,-0.0869,8.06,1078.06,-250.18
11190,-3.8712,-0.0087,-0.0889,1523.68,890.56,-1562.68
11200,-3.8712,-0.0043,-0.0886,-1101.32,640.56,1281.07
11210,-3.8712,-0.0072,-0.0848,-538.82,671.81,624.82
11220,-3.8712,-0.0139,-0.0790,-913.82,1156.19,656.07
11230,-3.8712,-0.0189,-0.0734,-1773.19,1906.19,1390.44
11240,-3.8712,-0.0194,-0.0702,1586.18,-1375.06,-1484.56
11250,-3.8712,-0.0144,-0.0686,1523.68,-968.81,-500.18
11260,-3.8712,-0.0066,-0.0702,-1835.69,-765.69,-93.93
11270,-3.8712,0.0000,-0.0764,-835.69,-968.81,-218.93
11280,-3.8712,0.0012,-0.0823,8.06,-1781.25,-390.81
11290,-3.8712,-0.0051,-0.0837,164.31,1468.75,-265.81
11300,-3.8711,-0.0160,-0.0813,-648.19,1296.81,234.19
11310,-3.8711,-0.0237,-0.0784,1961.18,1609.31,1031.07
11320,-3.8711,-0.0242,-0.0780,976.81,1984.31,1952.94
11330,-3.8711,-0.0188,-0.0793,914.31,-1968.81,-1187.68
11340,-3.8711,-0.0120,-0.0790,1601.81,1859.31,-593.93
11350,-3.8711,-0.0083,-0.0770,-1523.19,1906.19,-531.43
11360,-3.8711,-0.0077,-0.0746,-1054.44,-1843.81,-734.56
11370,-3.8711,-0.0071,-0.0752,-976.32,-1531.31,-1109.56
11380,-3.8711,-0.0050,-0.0800,-898.19,-1609.44,-1781.43
11390,-3.8711,-0.0040,-0.0851,-632.57,1781.19,1234.19
11400,-3.8711,-0.0079,-0.0880,-507.57,1124.94,62.32
11410,-3.8712,-0.0159,-0.0885,-1007.57,749.94,-734.56
11420,-3.8712,-0.0233,-0.0876,1976.81,687.44,-1000.18
11430,-3.8712,-0.0281,-0.0868,1023.68,796.81,-922.06
11440,-3.8712,-0.0302,-0.0870,414.31,906.19,-703.31
11450,-3.8712,-0.0277,-0.0872,148.68,874.94,-375.18
11460,-3.8712,-0.0197,-0.0873,461.18,859.31,-172.06
11470,-3.8712,-0.0101,-0.0870,1492.43,843.69,-78.31
11480,-3.8711,-0.0073,-0.0822,-1288.82,874.94,265.44
11490,-3.8711,-0.0142,-0.0752,-929.44,1499.94,812.32
11500,-3.8711,-0.0242,-0.0717,-1804.44,-1609.44,1109.19
11510,-3.8711,-0.0264,-0.0736,914.31,-1156.31,687.32
11520,-3.8712,-0.0178,-0.0812,633.06,-1406.31,-718.93
11530,-3.8712,-0.0065,-0.0890,1726.81,1624.94,1234.19
11540,-3.8713,-0.0005,-0.0925,-820.07,624.94,-750.18
11550,-3.8713,-0.0032,-0.0930,-54.44,171.81,1921.69
11560,-3.8713,-0.0117,-0.0908,-398.19,109.31,1734.19
11570,-3.8713,-0.0219,-0.0857,-1491.94,390.56,-1312.68
11580,-3.8712,-0.0315,-0.0807,1211.18,1046.81,374.82
11590,-3.8712,-0.0378,-0.0784,-23.19,1687.38,-1812.68
11600,-3.8712,-0.0397,-0.0781,-835.69,1984.25,-203.31
11610,-3.8711,-0.0372,-0.0769,-1070.07,-1984.50,1093.57
11620,-3.8711,-0.0312,-0.0756,-757.57,-1828.25,1718.57
11630,-3.8711,-0.0231,-0.0769,8.06,-1656.31,1343.57
11640,-3.8711,-0.0153,-0.0795,1054.93,-1828.19,296.69
11650,-3.8712,-0.0105,-0.0804,-1945.07,1843.69,-656.43
11660,-3.8712,-0.0112,-0.0791,-1335.69,1718.69,-875.18
11670,-3.8712,-0.0179,-0.0765,-1429.44,1890.56,-234.56
11680,-3.8711,-0.0269,-0.0746,1711.18,-1781.31,843.57
11690,-3.8711,-0.0328,-0.0737,570.56,-1531.31,1827.94
11700,-3.8711,-0.0328,-0.0748,-195.07,-1422.00,-1718.93
11710,-3.8711,-0.0259,-0.0770,-195.07,-1562.62,-1797.06
11720,-3.8711,-0.0149,-0.0782,695.56,-1843.81,1718.57
11730,-3.8711,-0.0060,-0.0798,-1898.19,1999.94,1202.94
11740,-3.8711,-0.0033,-0.0824,-757.57,1796.81,1109.19
11750,-3.8711,-0.0088,-0.0851,-413.82,1468.69,1515.44
11760,-3.8711,-0.0197,-0.0870,-1116.94,1124.94,-1890.81
11770,-3.8711,-0.0314,-0.0881,1492.43,874.94,-1578.31
11780,-3.8711,-0.0402,-0.0876,-7.57,734.25,-1656.43
11790,-3.8711,-0.0454,-0.0862,-1132.57,796.75,1921.69
11800,-3.8711,-0.0477,-0.0851,-1804.44,984.25,1202.94
11810,-3.8711,-0.0464,-0.0856,1898.68,1124.88,218.57
11820,-3.8712,-0.0397,-0.0873,-1929.44,1062.38,-1015.81
11830,-3.8712,-0.0288,-0.0879,-1070.07,843.63,1702.94
11840,-3.8712,-0.0181,-0.0861,320.56,765.56,562.32
11850,-3.8713,-0.0110,-0.0824,1695.56,999.94,-343.93
11860,-3.8713,-0.0065,-0.0786,-1398.19,1468.69,-859.56
11870,-3.8713,-0.0026,-0.0764,-820.07,1953.06,-703.31
11880,-3.8712,-0.0004,-0.0747,-320.07,-1765.69,265.44
11890,-3.8712,-0.0021,-0.0732,-38.82,-1546.94,1874.82
11900,-3.8712,-0.0070,-0.0730,-257.57,-1359.44,-531.43
11910,-3.8711,-0.0107,-0.0759,-882.57,-1328.19,562.32
11920,-3.8711,-0.0111,-0.0795,-1366.94,-1703.19,1187.32
11930,-3.8711,-0.0106,-0.0806,-1413.82,1843.69,1406.07
11940,-3.8711,-0.0122,-0.0801,-1351.32,1703.06,1359.19
11950,-3.8711,-0.0162,-0.0789,-1554.44,1765.56,1124.82
11960,-3.8711,-0.0199,-0.0782,1929.93,1921.81,687.32
11970,-3.8711,-0.0199,-0.0791,1461.18,1999.94,187.32
11980,-3.8712,-0.0156,-0.0802,1461.18,1890.56,-234.56
11990,-3.8712,-0.0104,-0.0836,-1991.94,1749.94,-609.56
12000,-3.8712,-0.0089,-0.0875,-1320.07,1312.44,-843.93
12010,-3.8712,-0.0129,-0.0884,-1132.57,812.44,-890.81
12020,-3.8712,-0.0201,-0.0890,-1648.19,703.06,-812.68
12030,-3.8712,-0.0269,-0.0881,1429.93,624.94,-484.56
12040,-3.8712,-0.0312,-0.0845,570.56,734.31,-125.18
12050,-3.8712,-0.0310,-0.0818,8.06,1203.06,-125.18
12060,-3.8712,-0.0255,-0.0814,39.31,1546.81,-328.31
12070,-3.8712,-0.0189,-0.0815,742.43,1593.69,-281.43
12080,-3.8711,-0.0155,-0.0804,1586.18,1578.06,109.19
12090,-3.8711,-0.0142,-0.0785,-1976.32,1718.69,546.69
12100,-3.8711,-0.0128,-0.0753,-1804.44,1968.69,812.32
12110,-3.8711,-0.0128,-0.0732,-1632.57,-1625.06,1046.69
12120,-3.8711,-0.0155,-0.0725,-1632.57,-1359.44,1312.32
12130,-3.8711,-0.0199,-0.0723,-1976.32,-1265.69,1421.69
12140,-3.8711,-0.0234,-0.0742,1461.18,-1234.44,1140.44
12150,-3.8711,-0.0229,-0.0765,1008.06,-1484.44,515.44
12160,-3.8712,-0.0209,-0.0769,1070.56,-1781.31,-297.06
12170,-3.8712,-0.0212,-0.0745,1336.18,-1828.19,-984.56
12180,-3.8712,-0.0247,-0.0704,1289.31,-1515.69,-1093.93
12190,-3.8712,-0.0276,-0.0685,851.81,-1000.06,-781.43
12200,-3.8712,-0.0269,-0.0699,476.81,-750.06,-437.68
12210,-3.8712,-0.0221,-0.0732,570.56,-937.56,-187.68
12220,-3.8711,-0.0187,-0.0764,1179.93,-1359.44,46.69
12230,-3.8711,-0.0215,-0.0782,1617.43,-1765.69,390.44
12240,-3.8711,-0.0314,-0.0796,1258.06,1999.94,734.19
12250,-3.8711,-0.0435,-0.0806,-7.57,1828.00,937.32
12260,-3.8711,-0.0516,-0.0804,-1554.44,1703.00,921.69
12270,-3.8711,-0.0537,-0.0811,1398.68,1718.63,640.44
12280,-3.8711,-0.0497,-0.0815,1133.06,1640.50,31.07
12290,-3.8712,-0.0414,-0.0807,1648.68,1578.00,-890.81
12300,-3.8712,-0.0322,-0.0820,-1288.82,1687.38,-1797.06
12310,-3.8712,-0.0253,-0.0839,-116.94,1515.50,1640.44
12320,-3.8712,-0.0212,-0.0840,773.68,1281.19,1218.57
12330,-3.8712,-0.0193,-0.0846,1289.31,1265.56,906.07
12340,-3.8712,-0.0173,-0.0857,1539.31,1187.44,968.57
12350,-3.8712,-0.0156,-0.0857,1789.31,1046.81,1343.57
12360,-3.8712,-0.0157,-0.0840,-1991.94,1046.81,1734.19
12370,-3.8712,-0.0167,-0.0819,1992.43,1265.56,-1906.43
12380,-3.8712,-0.0167,-0.0813,1867.43,1531.19,-1343.93
12390,-3.8712,-0.0153,-0.0814,1867.43,1609.31,-781.43
12400,-3.8712,-0.0122,-0.0812,-1945.07,1593.69,-265.81
12410,-3.8711,-0.0084,-0.0804,-1554.44,1624.94,234.19
12420,-3.8711,-0.0048,-0.0780,-1070.07,1718.69,718.57
12430,-3.8711,-0.0007,-0.0759,-601.32,-1968.81,1046.69
12440,-3.8711,0.0013,-0.0762,-85.69,-1703.19,1124.82
12450,-3.8711,-0.0013,-0.0767,179.93,-1750.00,1062.32
12460,-3.8711,-0.0073,-0.0768,-163.82,-1796.94,874.82
12470,-3.8711,-0.0118,-0.0781,-929.44,-1812.56,546.69
12480,-3.8711,-0.0106,-0.0822,-1507.57,-1984.44,156.07
12490,-3.8712,-0.0062,-0.0853,-1351.32,1499.94,-328.31
12500,-3.8712,-0.0051,-0.0846,-788.82,1093.69,-531.43
12510,-3.8712,-0.0083,-0.0818,-648.19,1187.44,-281.43
12520,-3.8711,-0.0126,-0.0780,-1054.44,1546.81,452.94
12530,-3.8711,-0.0155,-0.0753,-1601.32,-1968.81,1687.32
12540,-3.8711,-0.0146,-0.0753,-1976.32,-1625.06,-1047.06
12550,-3.8711,-0.0093,-0.0757,-1866.94,-1625.06,-281.43
12560,-3.8710,-0.0033,-0.0756,-1179.44,-1671.94,15.44
12570,-3.8711,-0.0006,-0.0753,-413.82,-1656.31,-78.31
12580,-3.8711,-0.0017,-0.0759,-70.07,-1625.06,-781.43
12590,-3.8711,-0.0055,-0.0770,-210.69,-1703.19,1827.94
12600,-3.8711,-0.0095,-0.0773,-695.07,-1843.81,93.57
12610,-3.8712,-0.0116,-0.0776,-1210.69,-1875.06,-1515.81
12620,-3.8712,-0.0121,-0.0779,-1476.32,-1921.94,1390.44
12630,-3.8712,-0.0123,-0.0774,-1538.82,-1953.19,1156.07
12640,-3.8712,-0.0111,-0.0763,-1570.07,-1890.69,1562.32
12650,-3.8712,-0.0059,-0.0752,-1413.82,-1750.06,-1906.43
12660,-3.8712,0.0011,-0.0748,-741.94,-1609.44,-1531.43
12670,-3.8712,0.0035,-0.0740,148.68,-1578.12,-1328.31
12680,-3.8712,-0.0021,-0.0715,461.18,-1468.75,-984.56
12690,-3.8712,-0.0137,-0.0701,-257.57,-1140.69,-406.43
12700,-3.8711,-0.0228,-0.0704,-1741.94,-953.19,249.82
12710,-3.8711,-0.0229,-0.0728,1086.18,-1000.06,640.44
12720,-3.8711,-0.0173,-0.0775,1070.56,-1296.94,452.94
12730,-3.8712,-0.0127,-0.0804,1789.31,-1906.31,-93.93
12740,-3.8712,-0.0138,-0.0801,-1616.94,1718.69,-718.93
12750,-3.8712,-0.0195,-0.0784,-1757.57,1765.56,-1047.06
12760,-3.8712,-0.0239,-0.0757,1508.06,1984.31,-890.81
12770,-3.8712,-0.0245,-0.0739,945.56,-1671.94,-468.93
12780,-3.8711,-0.0237,-0.0743,867.43,-1437.56,218.57
12790,-3.8711,-0.0236,-0.0740,976.81,-1500.06,1156.07
12800,-3.8711,-0.0245,-0.0730,992.43,-1453.19,1874.82
12810,-3.8711,-0.0267,-0.0732,867.43,-1328.19,-1859.56
12820,-3.8711,-0.0295,-0.0743,586.18,-1359.44,-1859.56
12830,-3.8711,-0.0330,-0.0760,226.81,-1500.06,1906.07
12840,-3.8711,-0.0348,-0.0771,-210.69,-1718.87,1577.94
12850,-3.8711,-0.0331,-0.0778,-445.07,-1859.50,1343.57
12860,-3.8711,-0.0297,-0.0798,-226.32,-1937.62,1046.69
12870,-3.8711,-0.0269,-0.0818,211.18,1796.81,593.57
12880,-3.8711,-0.0253,-0.0809,570.56,1546.81,15.44
12890,-3.8712,-0.0248,-0.0793,773.68,1656.19,-734.56
12900,-3.8712,-0.0253,-0.0784,836.18,1859.31,-1375.18
12910,-3.8712,-0.0255,-0.0775,773.68,1984.31,-1609.56
12920,-3.8712,-0.0236,-0.0771,742.43,-1906.31,-1468.93
12930,-3.8712,-0.0195,-0.0771,992.43,-1859.44,-1172.06
12940,-3.8712,-0.0150,-0.0763,1508.06,-1859.44,-797.06
12950,-3.8712,-0.0114,-0.0747,-1913.82,-1750.06,-281.43
12960,-3.8711,-0.0084,-0.0743,-1445.07,-1546.94,249.82
12970,-3.8711,-0.0056,-0.0751,-1070.07,-1500.06,437.32
12980,-3.8711,-0.0050,-0.0757,-710.69,-1593.81,31.07
12990,-3.8712,-0.0079,-0.0760,-632.57,-1671.94,-859.56
13000,-3.8712,-0.0135,-0.0765,-1007.57,-1718.81,-1875.18
13010,-3.8712,-0.0209,-0.0779,-1726.32,-1781.31,1281.07
13020,-3.8712,-0.0271,-0.0787,1336.18,-1953.19,796.69
13030,-3.8712,-0.0287,-0.0786,539.31,1937.44,812.32
13040,-3.8712,-0.0258,-0.0789,336.18,1953.06,1124.82
13050,-3.8712,-0.0206,-0.0806,711.18,1921.81,1546.69
13060,-3.8712,-0.0164,-0.0814,1367.43,1703.06,1906.07
13070,-3.8712,-0.0154,-0.0806,1914.31,1593.69,-1687.68
13080,-3.8712,-0.0189,-0.0807,-1960.69,1703.06,-1093.93
13090,-3.8712,-0.0265,-0.0823,1586.18,1687.44,-359.56
13100,-3.8711,-0.0367,-0.0830,617.43,1484.31,437.32
13110,-3.8711,-0.0443,-0.0829,-695.07,1390.50,984.19
13120,-3.8711,-0.0449,-0.0833,-1663.82,1406.13,1140.44
13130,-3.8711,-0.0391,-0.0836,-1741.94,1359.25,1062.32
13140,-3.8711,-0.0309,-0.0829,-991.94,1312.38,952.94
13150,-3.8711,-0.0247,-0.0806,54.93,1406.19,921.69
13160,-3.8711,-0.0221,-0.0779,851.81,1703.06,1249.82
13170,-3.8711,-0.0234,-0.0760,1179.93,-1953.19,1687.32
13180,-3.8711,-0.0267,-0.0753,1008.06,-1718.81,1765.44
13190,-3.8711,-0.0275,-0.0752,586.18,-1625.06,1452.94
13200,-3.8711,-0.0245,-0.0751,492.43,-1609.44,1046.69
13210,-3.8711,-0.0200,-0.0741,867.43,-1593.81,765.44
13220,-3.8711,-0.0157,-0.0720,1445.56,-1468.81,609.19
13230,-3.8711,-0.0126,-0.0713,1992.43,-1203.19,609.19
13240,-3.8711,-0.0090,-0.0729,-1601.32,-1109.44,656.07
13250,-3.8711,-0.0040,-0.0739,-1148.19,-1312.56,718.57
13260,-3.8711,0.0007,-0.0732,-507.57,-1437.56,624.82
13270,-3.8711,0.0042,-0.0735,101.81,-1375.00,281.07
13280,-3.8712,0.0050,-0.0740,539.31,-1406.25,-62.68
13290,-3.8712,0.0028,-0.0736,648.68,-1468.75,-172.06
13300,-3.8712,-0.0013,-0.0731,367.43,-1421.88,-15.81
13310,-3.8711,-0.0077,-0.0750,-163.82,-1343.81,218.57
13320,-3.8711,-0.0148,-0.0789,-976.32,-1578.19,327.94
13330,-3.8712,-0.0208,-0.0830,-1882.57,1921.81,-0.18
13340,-3.8712,-0.0244,-0.0872,1351.81,1390.56,-625.18
13350,-3.8712,-0.0259,-0.0883,883.06,859.31,-1140.81
13360,-3.8712,-0.0258,-0.0854,695.56,718.69,-1468.93
13370,-3.8712,-0.0232,-0.0824,711.18,1078.06,-1593.93
13380,-3.8712,-0.0171,-0.0806,1039.31,1468.69,-1406.43
13390,-3.8712,-0.0096,-0.0800,1820.56,1703.06,-1000.18
13400,-3.8712,-0.0035,-0.0798,-1226.32,1781.19,-422.06
13410,-3.8711,0.0001,-0.0791,-445.07,1796.81,124.82
13420,-3.8711,0.0009,-0.0778,23.68,1875.00,515.44
13430,-3.8711,-0.0015,-0.0763,117.43,-1953.12,749.82
13440,-3.8711,-0.0059,-0.0760,-179.44,-1750.06,702.94
13450,-3.8711,-0.0110,-0.0776,-741.94,-1718.81,312.32
13460,-3.8712,-0.0148,-0.0798,-1398.19,-1921.94,-265.81
13470,-3.8712,-0.0170,-0.0817,-1882.57,1796.81,-890.81
13480,-3.8712,-0.0168,-0.0833,1836.18,1562.44,-1406.43
13490,-3.8712,-0.0157,-0.0833,1851.81,1359.31,-1703.31
13500,-3.8712,-0.0164,-0.0814,1992.43,1359.31,-1750.18
13510,-3.8712,-0.0181,-0.0797,1914.31,1593.69,-1609.56
13520,-3.8712,-0.0198,-0.0791,1695.56,1812.44,-1343.93
13530,-3.8712,-0.0203,-0.0779,1476.81,1890.56,-1000.18
13540,-3.8712,-0.0194,-0.0782,1414.31,-1953.19,-656.43
13550,-3.8712,-0.0179,-0.0807,1523.68,1999.94,-390.81
13560,-3.8712,-0.0172,-0.0825,1711.18,1687.44,-312.68
13570,-3.8712,-0.0171,-0.0822,1804.93,1453.06,-547.06
13580,-3.8712,-0.0162,-0.0806,1820.56,1499.94,-1093.93
13590,-3.8712,-0.0146,-0.0785,1929.93,1703.06,-1562.68
13600,-3.8712,-0.0137,-0.0753,-1866.94,1968.69,-1500.18
13610,-3.8712,-0.0148,-0.0714,-1741.94,-1625.06,-875.18
13620,-3.8711,-0.0179,-0.0696,-1882.57,-1125.06,265.44
13630,-3.8711,-0.0217,-0.0712,1711.18,-890.69,1624.82
13640,-3.8711,-0.0253,-0.0731,1226.81,-1093.81,-1531.43
13650,-3.8711,-0.0281,-0.0739,773.68,-1343.81,-1468.93
13660,-3.8711,-0.0286,-0.0757,414.31,-1437.56,-1937.68
13670,-3.8711,-0.0250,-0.0786,351.81,-1671.94,1218.57
13680,-3.8711,-0.0206,-0.0796,804.93,1953.06,187.32
13690,-3.8712,-0.0192,-0.0779,1367.43,1828.06,-718.93
13700,-3.8712,-0.0208,-0.0763,1554.93,-1953.19,-1109.56
13710,-3.8712,-0.0233,-0.0753,1351.81,-1750.06,-750.18
13720,-3.8711,-0.0260,-0.0741,1023.68,-1625.06,46.69
13730,-3.8711,-0.0280,-0.0730,679.93,-1468.81,843.57
13740,-3.8711,-0.0288,-0.0725,429.93,-1328.19,1327.94
13750,-3.8711,-0.0294,-0.0750,320.56,-1265.69,1374.82
13760,-3.8711,-0.0298,-0.0760,242.43,-1578.19,1234.19
13770,-3.8711,-0.0308,-0.0739,195.56,-1718.81,906.07
13780,-3.8711,-0.0315,-0.0721,70.56,-1437.56,390.44
13790,-3.8711,-0.0304,-0.0714,-23.19,-1218.87,77.94
13800,-3.8711,-0.0284,-0.0713,117.43,-1125.06,62.32
13810,-3.8711,-0.0262,-0.0720,367.43,-1109.44,109.19
13820,-3.8711,-0.0234,-0.0723,648.68,-1203.19,46.69
13830,-3.8712,-0.0214,-0.0718,1008.06,-1234.44,-109.56
13840,-3.8712,-0.0210,-0.0717,1273.68,-1171.94,-62.68
13850,-3.8711,-0.0228,-0.0725,1320.56,-1156.31,343.57
13860,-3.8711,-0.0258,-0.0734,1086.18,-1265.69,921.69
13870,-3.8711,-0.0282,-0.0745,711.18,-1375.06,1327.94
13880,-3.8711,-0.0289,-0.0779,398.68,-1515.69,1218.57
13890,-3.8711,-0.0277,-0.0814,304.93,-1953.19,734.19
13900,-3.8712,-0.0271,-0.0818,461.18,1593.69,-31.43
13910,-3.8712,-0.0294,-0.0800,539.31,1546.81,-906.43
13920,-3.8712,-0.0328,-0.0779,242.43,1781.19,-1500.18
13930,-3.8712,-0.0333,-0.0765,-195.07,-1953.25,-1750.18
13940,-3.8712,-0.0302,-0.0769,-257.57,-1781.37,-1640.81
13950,-3.8712,-0.0250,-0.0784,148.68,-1828.19,-984.56
13960,-3.8712,-0.0219,-0.0787,804.93,1984.31,-172.06
13970,-3.8711,-0.0201,-0.0791,1211.18,1937.44,171.69
13980,-3.8712,-0.0166,-0.0812,1429.93,1890.56,-93.93
13990,-3.8712,-0.0120,-0.0840,1883.06,1624.94,-843.93
14000,-3.8712,-0.0095,-0.0859,-1523.19,1265.56,-1672.06
14010,-3.8712,-0.0120,-0.0846,-1210.69,1015.56,1984.19
14020,-3.8712,-0.0187,-0.0808,-1523.19,1187.44,-1640.81
14030,-3.8712,-0.0244,-0.0785,1617.43,1671.81,-765.81
14040,-3.8711,-0.0232,-0.0771,883.06,1968.69,234.19
14050,-3.8711,-0.0145,-0.0763,1039.31,-1859.44,890.44
14060,-3.8711,-0.0039,-0.0770,-1851.32,-1750.06,1031.07
14070,-3.8711,0.0020,-0.0784,-491.94,-1843.81,671.69
14080,-3.8712,0.0010,-0.0809,258.06,1968.75,-78.31
14090,-3.8712,-0.0052,-0.0831,133.06,1640.62,-859.56
14100,-3.8712,-0.0137,-0.0819,-663.82,1374.94,-1437.68
14110,-3.8712,-0.0195,-0.0796,-1741.94,1531.19,-1750.18
14120,-3.8712,-0.0193,-0.0793,1508.06,1828.06,-1828.31
14130,-3.8712,-0.0148,-0.0801,1539.31,1859.31,-1656.43
14140,-3.8712,-0.0103,-0.0792,-1882.57,1765.56,-1109.56
14150,-3.8712,-0.0088,-0.0771,-1304.44,1874.94,-312.68
14160,-3.8711,-0.0101,-0.0758,-1116.94,-1859.44,531.07
14170,-3.8711,-0.0117,-0.0758,-1288.82,-1687.56,1187.32
14180,-3.8711,-0.0118,-0.0768,-1491.94,-1687.56,1374.82
14190,-3.8711,-0.0104,-0.0781,-1507.57,-1812.56,1031.07
14200,-3.8711,-0.0071,-0.0790,-1320.07,-1984.44,577.94
14210,-3.8711,-0.0055,-0.0792,-898.19,1906.19,249.82
14220,-3.8712,-0.0081,-0.0786,-695.07,1874.94,-31.43
14230,-3.8712,-0.0132,-0.0763,-1023.19,1953.06,-47.06
14240,-3.8711,-0.0176,-0.0739,-1679.44,-1750.06,421.69
14250,-3.8711,-0.0186,-0.0724,1758.06,-1437.56,1171.69
14260,-3.8711,-0.0161,-0.0718,1633.06,-1250.06,1562.32
14270,-3.8711,-0.0115,-0.0724,1945.56,-1171.94,1421.69
14280,-3.8711,-0.0061,-0.0732,-1460.69,-1250.06,968.57
14290,-3.8711,-0.0028,-0.0742,-773.19,-1359.44,327.94
14300,-3.8712,-0.0048,-0.0754,-351.32,-1484.44,-203.31
14310,-3.8712,-0.0118,-0.0762,-601.32,-1640.69,-172.06
14320,-3.8711,-0.0220,-0.0757,-1507.57,-1734.44,296.69
14330,-3.8711,-0.0314,-0.0735,1195.56,-1671.94,843.57
14340,-3.8711,-0.0353,-0.0713,-7.57,-1390.75,1156.07
14350,-3.8711,-0.0323,-0.0714,-507.57,-1109.50,1093.57
14360,-3.8711,-0.0240,-0.0721,-132.57,-1125.12,843.57
14370,-3.8711,-0.0156,-0.0714,929.93,-1218.81,609.19
14380,-3.8711,-0.0106,-0.0693,-1991.94,-1125.06,609.19
14390,-3.8711,-0.0101,-0.0697,-1351.32,-859.44,749.82
14400,-3.8711,-0.0129,-0.0729,-1288.82,-906.31,1031.07
14410,-3.8711,-0.0172,-0.0746,-1648.19,-1312.56,1202.94
14420,-3.8711,-0.0206,-0.0757,1804.93,-1531.31,546.69
14430,-3.8712,-0.0214,-0.0789,1367.43,-1671.94,-781.43
14440,-3.8712,-0.0217,-0.0825,1273.68,1921.81,-1765.81
14450,-3.8712,-0.0242,-0.0847,1226.81,1453.06,1921.69
14460,-3.8712,-0.0273,-0.0837,914.31,1171.81,-1750.18
14470,-3.8712,-0.0266,-0.0820,508.06,1296.81,-1234.56
14480,-3.8712,-0.0223,-0.0830,601.81,1515.56,-1031.43
14490,-3.8712,-0.0186,-0.0836,1148.68,1390.56,-968.93
14500,-3.8712,-0.0183,-0.0812,1633.06,1312.44,-1187.68
14510,-3.8712,-0.0197,-0.0793,1664.31,1624.94,-1593.93
14520,-3.8712,-0.0182,-0.0801,1492.43,1859.31,-1890.81
14530,-3.8712,-0.0135,-0.0809,1679.93,1765.56,-1984.56
14540,-3.8712,-0.0088,-0.0808,-1726.32,1656.19,-1859.56
14550,-3.8712,-0.0066,-0.0798,-1116.94,1671.81,-1625.18
14560,-3.8712,-0.0073,-0.0789,-835.69,1796.81,-1265.81
14570,-3.8712,-0.0100,-0.0791,-929.44,1921.81,-734.56
14580,-3.8712,-0.0127,-0.0792,-1273.19,1890.56,-203.31
14590,-3.8711,-0.0140,-0.0789,-1616.94,1874.94,31.07
14600,-3.8712,-0.0139,-0.0791,-1788.82,1921.81,-218.93
14610,-3.8712,-0.0123,-0.0795,-1773.19,1890.56,-781.43
14620,-3.8712,-0.0095,-0.0797,-1570.07,1843.69,-1578.31
14630,-3.8712,-0.0082,-0.0791,-1210.69,1812.44,1718.57
14640,-3.8712,-0.0094,-0.0778,-1038.82,1890.56,1359.19
14650,-3.8712,-0.0122,-0.0764,-1195.07,-1937.56,1249.82
14660,-3.8712,-0.0154,-0.0757,-1554.44,-1765.69,1421.69
14670,-3.8712,-0.0186,-0.0752,-1960.69,-1671.94,-1968.93
14680,-3.8712,-0.0214,-0.0739,1633.06,-1609.44,-922.06
14690,-3.8711,-0.0234,-0.0728,1273.68,-1437.56,640.44
14700,-3.8711,-0.0242,-0.0734,1008.06,-1296.94,-1687.68
14710,-3.8711,-0.0211,-0.0736,914.31,-1375.06,-687.68
14720,-3.8711,-0.0159,-0.0721,1304.93,-1406.31,-609.56
14730,-3.8711,-0.0118,-0.0703,1976.81,-1218.81,-953.31
14740,-3.8711,-0.0096,-0.0704,-1507.57,-984.44,-1390.81
14750,-3.8711,-0.0074,-0.0712,-1226.32,-1000.06,-1968.93
14760,-3.8711,-0.0060,-0.0710,-945.07,-1093.81,1296.69
14770,-3.8711,-0.0072,-0.0724,-757.57,-1078.19,468.57
14780,-3.8712,-0.0098,-0.0760,-913.82,-1250.06,-125.18
14790,-3.8712,-0.0125,-0.0797,-1241.94,-1718.81,-343.93
14800,-3.8712,-0.0165,-0.0814,-1585.69,1812.44,-422.06
14810,-3.8712,-0.0215,-0.0797,1898.68,1593.69,-390.81
14820,-3.8711,-0.0260,-0.0773,1258.06,1812.44,46.69
14830,-3.8711,-0.0267,-0.0760,679.93,-1875.06,843.57
14840,-3.8711,-0.0217,-0.0746,586.18,-1718.81,1468.57
14850,-3.8711,-0.0138,-0.0748,1226.81,-1531.31,1312.32
14860,-3.8711,-0.0089,-0.0768,-1757.57,-1562.56,577.94
14870,-3.8711,-0.0109,-0.0775,-1132.57,-1812.56,46.69
14880,-3.8712,-0.0167,-0.0756,-1382.57,-1906.31,-31.43
14890,-3.8711,-0.0206,-0.0723,1867.43,-1656.31,31.07
14900,-3.8712,-0.0188,-0.0714,1367.43,-1234.44,-31.43
14910,-3.8712,-0.0132,-0.0735,1601.81,-1125.06,-375.18
14920,-3.8712,-0.0078,-0.0760,-1679.44,-1390.69,-1031.43
14930,-3.8712,-0.0052,-0.0778,-991.94,-1718.81,-1812.68
14940,-3.8712,-0.0070,-0.0776,-663.82,-1937.56,1702.94
14950,-3.8712,-0.0126,-0.0762,-882.57,-1921.94,1781.07
14960,-3.8712,-0.0172,-0.0763,-1601.32,-1734.44,-1906.43
14970,-3.8712,-0.0165,-0.0781,1804.93,-1750.06,-1765.81
14980,-3.8712,-0.0133,-0.0787,1898.68,-1984.44,-1828.31
14990,-3.8712,-0.0111,-0.0768,-1695.07,1937.44,-1750.18
15000,-3.8712,-0.0111,-0.0724,-1413.82,-1812.56,-1281.43
15010,-3.8712,-0.0132,-0.0685,-1413.82,-1250.06,-453.31
15020,-3.8711,-0.0157,-0.0676,-1679.44,-750.06,374.82
15030,-3.8711,-0.0160,-0.0697,1992.43,-640.69,827.94
15040,-3.8711,-0.0123,-0.0734,1961.18,-906.31,640.44
15050,-3.8712,-0.0062,-0.0771,-1570.07,-1375.06,-109.56
15060,-3.8712,-0.0018,-0.0798,-788.82,-1859.44,-890.81
15070,-3.8712,-0.0037,-0.0809,-226.32,1796.81,-1328.31
15080,-3.8712,-0.0120,-0.0804,-460.69,1656.19,-1437.68
15090,-3.8712,-0.0238,-0.0785,-1523.19,1718.69,-1203.31
15100,-3.8712,-0.0342,-0.0760,961.18,1968.69,-547.06
15110,-3.8711,-0.0375,-0.0748,-366.94,-1718.87,374.82
15120,-3.8711,-0.0309,-0.0756,-788.82,-1562.62,1077.94
15130,-3.8711,-0.0170,-0.0771,54.93,-1656.31,1312.32
15140,-3.8711,-0.0038,-0.0787,1836.18,-1859.44,1187.32
15150,-3.8711,0.0006,-0.0793,-476.32,1937.44,1015.44
15160,-3.8711,-0.0066,-0.0789,86.18,1843.75,968.57
15170,-3.8711,-0.0204,-0.0781,-835.69,1921.81,1031.07
15180,-3.8711,-0.0332,-0.0768,1398.68,-1984.44,1265.44
15190,-3.8711,-0.0396,-0.0756,-241.94,-1812.62,1140.44
15200,-3.8711,-0.0361,-0.0765,-1054.44,-1656.37,468.57
15210,-3.8712,-0.0259,-0.0790,-616.94,-1781.37,-500.18
15220,-3.8712,-0.0143,-0.0800,695.56,1906.19,-1500.18
15230,-3.8712,-0.0054,-0.0776,-1820.07,1781.19,1577.94
15240,-3.8712,-0.0015,-0.0732,-679.44,-1921.94,640.44
15250,-3.8712,-0.0031,-0.0710,-179.44,-1359.44,140.44
15260,-3.8712,-0.0087,-0.0713,-382.57,-1078.19,452.94
15270,-3.8712,-0.0145,-0.0696,-1101.32,-1109.44,1609.19
15280,-3.8712,-0.0157,-0.0662,-1851.32,-890.69,-750.18
15290,-3.8711,-0.0110,-0.0662,1992.43,-453.19,906.07
15300,-3.8711,-0.0033,-0.0658,-1398.19,-453.19,-1562.68
15310,-3.8711,0.0017,-0.0620,-413.82,-406.31,-562.68
15320,-3.8711,0.0024,-0.0596,226.81,62.50,-343.87
15330,-3.8711,0.0027,-0.0612,320.56,375.00,-656.37
15340,-3.8711,0.0051,-0.0654,351.81,171.88,-1297.00
15350,-3.8711,0.0084,-0.0693,664.31,-375.00,1890.44
15360,-3.8711,0.0081,-0.0741,1086.18,-875.00,952.94
15370,-3.8711,0.0021,-0.0781,1039.31,-1484.38,15.44
15380,-3.8712,-0.0081,-0.0793,273.68,-2000.00,-797.06
15390,-3.8712,-0.0192,-0.0786,-1023.19,1859.31,-1172.06
15400,-3.8712,-0.0269,-0.0762,1554.93,1953.06,-937.68
15410,-3.8712,-0.0298,-0.0739,570.56,-1734.44,-328.31
15420,-3.8711,-0.0289,-0.0725,195.56,-1437.56,624.82
15430,-3.8711,-0.0245,-0.0726,304.93,-1265.69,1562.32
15440,-3.8711,-0.0181,-0.0740,867.43,-1281.31,-1937.68
15450,-3.8711,-0.0128,-0.0741,1695.56,-1453.19,-1968.93
15460,-3.8711,-0.0106,-0.0728,-1632.57,-1468.81,1609.19
15470,-3.8711,-0.0127,-0.0704,-1351.32,-1296.94,874.82
15480,-3.8712,-0.0187,-0.0685,-1616.94,-1000.06,-62.68
15490,-3.8712,-0.0232,-0.0697,1617.43,-750.06,-906.43
15500,-3.8712,-0.0242,-0.0736,1039.31,-906.31,-1812.68
15510,-3.8712,-0.0236,-0.0773,914.31,-1406.31,1234.19
15520,-3.8712,-0.0215,-0.0790,992.43,-1875.06,499.82
15530,-3.8712,-0.0175,-0.0782,1258.06,1906.19,234.19
15540,-3.8712,-0.0110,-0.0768,1773.68,1999.94,421.69
15550,-3.8712,-0.0043,-0.0758,-1398.19,-1812.56,968.57
15560,-3.8712,-0.0026,-0.0723,-538.82,-1687.56,-1922.06
15570,-3.8712,-0.0101,-0.0653,-320.07,-1234.44,-156.43
15580,-3.8711,-0.0250,-0.0591,-1288.82,-343.81,1999.82
15590,-3.8710,-0.0383,-0.0570,804.93,453.06,78.00
15600,-3.8710,-0.0421,-0.0597,-898.19,718.63,1171.75
15610,-3.8710,-0.0337,-0.0652,-1382.57,374.88,578.00
15620,-3.8711,-0.0193,-0.0709,-304.44,-328.25,-1390.81
15630,-3.8711,-0.0072,-0.0740,1539.31,-1062.56,234.19
15640,-3.8712,-0.0022,-0.0745,-913.82,-1453.19,-1609.56
15650,-3.8712,-0.0045,-0.0740,-273.19,-1515.69,1359.19
15660,-3.8712,-0.0114,-0.0729,-570.07,-1453.19,1109.19
15670,-3.8712,-0.0187,-0.0708,-1445.07,-1312.56,1593.57
15680,-3.8712,-0.0239,-0.0697,1617.43,-1046.94,-1500.18
15690,-3.8712,-0.0271,-0.0704,945.56,-906.31,-328.31
15700,-3.8711,-0.0282,-0.0697,539.31,-1000.06,984.19
15710,-3.8711,-0.0300,-0.0670,398.68,-906.31,-1875.18
15720,-3.8711,-0.0326,-0.0657,164.31,-562.56,-1062.68
15730,-3.8711,-0.0337,-0.0664,-163.82,-390.75,-859.56
15740,-3.8711,-0.0345,-0.0686,-304.44,-484.50,-1687.68
15750,-3.8711,-0.0337,-0.0717,-413.82,-765.75,406.07
15760,-3.8712,-0.0284,-0.0740,-304.44,-1156.37,1999.82
15770,-3.8713,-0.0201,-0.0747,367.43,-1453.19,-140.81
15780,-3.8713,-0.0120,-0.0752,1429.93,-1546.94,-1547.06
15790,-3.8713,-0.0065,-0.0746,-1523.19,-1609.44,1781.07
15800,-3.8713,-0.0060,-0.0712,-820.07,-1531.31,1937.32
15810,-3.8713,-0.0109,-0.0691,-757.57,-1093.81,-1125.18
15820,-3.8712,-0.0183,-0.0710,-1382.57,-828.19,562.32
15830,-3.8712,-0.0228,-0.0730,1664.31,-1078.19,-1453.31
15840,-3.8711,-0.0221,-0.0760,1086.18,-1328.19,46.69
15850,-3.8711,-0.0171,-0.0784,1179.93,-1718.81,1046.69
15860,-3.8711,-0.0126,-0.0759,1820.56,1984.31,1812.32
15870,-3.8711,-0.0123,-0.0720,-1601.32,-1703.19,-1750.18
15880,-3.8711,-0.0154,-0.0688,-1570.07,-1203.19,-1422.06
15890,-3.8711,-0.0188,-0.0671,-1960.69,-796.94,-1031.43
15900,-3.8711,-0.0209,-0.0679,1601.81,-578.19,-765.81
15910,-3.8711,-0.0226,-0.0690,1336.18,-671.94,-859.56
15920,-3.8711,-0.0247,-0.0687,1117.43,-812.56,-1000.18
15930,-3.8711,-0.0265,-0.0684,851.81,-781.31,-1047.06
15940,-3.8711,-0.0269,-0.0693,617.43,-734.44,-1172.06
15950,-3.8711,-0.0259,-0.0692,570.56,-859.44,-1500.18
15960,-3.8711,-0.0253,-0.0662,695.56,-843.81,-1890.81
15970,-3.8711,-0.0248,-0.0635,773.68,-453.19,1859.19
15980,-3.8711,-0.0227,-0.0632,836.18,-109.44,1937.32
15990,-3.8711,-0.0181,-0.0631,1101.81,-78.19,-1593.93
16000,-3.8711,-0.0112,-0.0621,1695.56,-62.56,-843.93
16010,-3.8711,-0.0043,-0.0610,-1429.44,62.44,-265.75
16020,-3.8711,0.0022,-0.0602,-538.82,203.06,-125.12
16030,-3.8711,0.0056,-0.0609,289.31,296.88,-484.50
16040,-3.8711,0.0048,-0.0619,726.81,203.12,-1422.00
16050,-3.8711,0.0026,-0.0641,617.43,78.12,1249.88
16060,-3.8711,0.0011,-0.0679,336.18,-203.12,140.44
16070,-3.8712,-0.0012,-0.0690,148.68,-687.50,-406.43
16080,-3.8712,-0.0062,-0.0675,-148.19,-812.56,-593.93
16090,-3.8712,-0.0109,-0.0671,-788.82,-625.06,-593.93
16100,-3.8712,-0.0128,-0.0706,-1382.57,-578.19,-359.56
16110,-3.8712,-0.0114,-0.0741,-1632.57,-1015.69,-125.18
16120,-3.8712,-0.0090,-0.0750,-1445.07,-1468.81,-297.06
16130,-3.8712,-0.0087,-0.0753,-1148.19,-1578.19,-750.18
16140,-3.8712,-0.0111,-0.0757,-1101.32,-1625.06,-1109.56
16150,-3.8712,-0.0157,-0.0769,-1413.82,-1671.94,-1562.68
16160,-3.8712,-0.0206,-0.0797,1992.43,-1828.19,1921.69
16170,-3.8712,-0.0240,-0.0790,1367.43,1812.44,1781.07
16180,-3.8712,-0.0288,-0.0809,929.93,1906.19,-1922.06
16190,-3.8712,-0.0332,-0.0826,320.56,1656.19,-1406.43
16200,-3.8712,-0.0320,-0.0795,-241.94,1437.38,-922.06
16210,-3.8712,-0.0260,-0.0791,-85.69,1843.63,-922.06
16220,-3.8712,-0.0151,-0.0787,679.93,1890.56,-1297.06
16230,-3.8712,-0.0060,-0.0801,-1929.44,1937.44,-1875.18
16240,-3.8712,0.0010,-0.0811,-757.57,1765.56,1374.82
16250,-3.8712,0.0104,-0.0786,133.06,1625.00,499.82
16260,-3.8713,0.0179,-0.0778,1336.18,1937.50,-437.68
16270,-3.8713,0.0204,-0.0773,-1695.07,-1953.12,-765.81
16280,-3.8713,0.0151,-0.0735,-1382.57,-1890.62,-140.81
16290,-3.8712,0.0046,-0.0687,1945.56,-1406.25,1046.69
16300,-3.8712,-0.0065,-0.0677,601.81,-796.88,-1672.06
16310,-3.8712,-0.0138,-0.0696,-820.07,-656.31,-797.06
16320,-3.8712,-0.0181,-0.0718,-1757.57,-890.69,-484.56
16330,-3.8712,-0.0206,-0.0729,1695.56,-1171.94,-500.18
16340,-3.8712,-0.0220,-0.0713,1367.43,-1312.56,-547.06
16350,-3.8712,-0.0237,-0.0691,1195.56,-1109.44,-312.68
16360,-3.8711,-0.0253,-0.0675,976.81,-828.19,609.19
16370,-3.8711,-0.0261,-0.0649,773.68,-625.06,1952.94
16380,-3.8711,-0.0253,-0.0624,664.31,-296.94,-1062.68
16390,-3.8711,-0.0210,-0.0623,773.68,31.19,-703.25
16400,-3.8711,-0.0139,-0.0640,1320.56,46.81,-922.00
16410,-3.8711,-0.0074,-0.0641,-1773.19,-171.94,-1515.81
16420,-3.8711,-0.0049,-0.0626,-945.07,-187.56,1812.32
16430,-3.8711,-0.0073,-0.0634,-616.94,-0.06,1312.32
16440,-3.8711,-0.0126,-0.0649,-929.44,-93.81,1031.07
16450,-3.8711,-0.0178,-0.0649,-1601.32,-296.94,1062.32
16460,-3.8711,-0.0200,-0.0642,1726.81,-296.94,1437.32
16470,-3.8711,-0.0188,-0.0654,1445.56,-203.19,1781.07
16480,-3.8711,-0.0171,-0.0677,1601.81,-359.44,1921.69
16490,-3.8711,-0.0181,-0.0684,1820.56,-656.31,1984.19
16500,-3.8711,-0.0216,-0.0686,1695.56,-734.44,1827.94
16510,-3.8711,-0.0247,-0.0696,1242.43,-765.69,1421.69
16520,-3.8711,-0.0253,-0.0698,851.81,-890.69,1218.57
16530,-3.8711,-0.0259,-0.0684,773.68,-921.94,1390.44
16540,-3.8711,-0.0282,-0.0656,695.56,-734.44,1843.57
16550,-3.8711,-0.0289,-0.0640,398.68,-375.06,-1718.93
16560,-3.8711,-0.0245,-0.0671,304.93,-171.94,1984.19
16570,-3.8711,-0.0162,-0.0729,867.43,-578.19,702.94
16580,-3.8712,-0.0093,-0.0773,1929.93,-1312.56,-1281.43
16590,-3.8712,-0.0078,-0.0796,-1179.44,-1875.06,702.94
16600,-3.8713,-0.0109,-0.0791,-991.94,1828.06,-562.68
16610,-3.8713,-0.0155,-0.0754,-1382.57,1890.56,-890.81
16620,-3.8713,-0.0182,-0.0715,-1976.32,-1640.69,-484.56
16630,-3.8712,-0.0171,-0.0712,1679.93,-1140.69,327.94
16640,-3.8712,-0.0140,-0.0721,1820.56,-1093.81,1312.32
16650,-3.8712,-0.0111,-0.0713,-1788.82,-1218.81,-1609.56
16660,-3.8712,-0.0106,-0.0697,-1413.82,-1109.44,-515.81
16670,-3.8711,-0.0128,-0.0692,-1351.32,-906.31,406.07
16680,-3.8711,-0.0166,-0.0706,-1632.57,-843.81,890.44
16690,-3.8711,-0.0201,-0.0721,1883.06,-1015.69,827.94
16700,-3.8711,-0.0223,-0.0740,1429.93,-1218.81,202.94
16710,-3.8712,-0.0232,-0.0768,1148.68,-1453.19,-843.93
16720,-3.8712,-0.0243,-0.0781,1039.31,-1812.56,-1875.18
16730,-3.8712,-0.0245,-0.0776,898.68,-1984.44,1546.69
16740,-3.8712,-0.0223,-0.0764,867.43,-1921.94,1624.82
16750,-3.8712,-0.0187,-0.0754,1148.68,-1765.69,-1625.18
16760,-3.8712,-0.0177,-0.0892,1617.43,-1640.69,-500.18
16770,-3.8711,-0.0106,-0.0857,1742.43,593.69,890.44
16780,-3.8711,0.0016,-0.0601,-1351.32,1046.81,562.32
16790,-3.8712,0.0081,-0.0597,211.18,312.50,-500.12
16800,-3.8711,0.0070,-0.0542,1039.31,359.38,437.38
16810,-3.8711,-0.0089,-0.0381,898.68,1062.50,937.38
16820,-3.8711,-0.0280,-0.0372,-1132.57,-859.44,1078.00
16830,-3.8711,-0.0370,-0.0475,429.93,-750.06,-1984.50
16840,-3.8711,-0.0383,-0.0577,-726.32,1937.38,-1390.75
16850,-3.8711,-0.0312,-0.0579,-898.19,624.88,-1765.75
16860,-3.8711,-0.0214,-0.0563,8.06,609.31,1109.25
16870,-3.8711,-0.0135,-0.0570,1273.68,812.44,390.50
16880,-3.8711,-0.0114,-0.0563,-1726.32,718.69,265.50
16890,-3.8711,-0.0177,-0.0551,-1445.07,812.44,156.13
16900,-3.8712,-0.0256,-0.0559,1742.43,968.69,-93.87
16910,-3.8712,-0.0314,-0.0592,726.81,859.31,-390.75
16920,-3.8712,-0.0349,-0.0616,-7.57,437.38,-703.25
16930,-3.8712,-0.0363,-0.0614,-460.69,124.88,-1015.75
16940,-3.8712,-0.0361,-0.0599,-632.57,156.13,-1172.00
16950,-3.8712,-0.0347,-0.0603,-616.94,343.63,-1078.25
16960,-3.8712,-0.0317,-0.0624,-429.44,296.75,-672.00
16970,-3.8712,-0.0275,-0.0625,-54.44,31.13,-31.37
16980,-3.8711,-0.0244,-0.0605,492.43,15.56,593.63
16990,-3.8711,-0.0244,-0.0598,883.06,265.56,1062.38
17000,-3.8711,-0.0269,-0.0605,883.06,359.31,1328.00
17010,-3.8711,-0.0293,-0.0602,570.56,265.56,1265.50
17020,-3.8711,-0.0293,-0.0596,258.06,312.44,781.13
17030,-3.8712,-0.0281,-0.0623,258.06,390.56,-203.25
17040,-3.8712,-0.0276,-0.0663,414.31,46.81,-1390.75
17050,-3.8712,-0.0291,-0.0668,476.81,-468.81,1702.94
17060,-3.8712,-0.0315,-0.0646,289.31,-531.31,1359.19
17070,-3.8712,-0.0323,-0.0641,-23.19,-250.12,1609.19
17080,-3.8712,-0.0310,-0.0667,-132.57,-187.62,-1812.68
17090,-3.8712,-0.0292,-0.0702,39.31,-515.69,-1312.68
17100,-3.8712,-0.0284,-0.0718,273.68,-968.81,-859.56
17110,-3.8712,-0.0300,-0.0714,367.43,-1171.94,-390.81
17120,-3.8712,-0.0343,-0.0698,164.31,-1125.06,-78.31
17130,-3.8711,-0.0383,-0.0663,-382.57,-922.00,218.57
17140,-3.8711,-0.0381,-0.0610,-898.19,-468.87,656.07
17150,-3.8711,-0.0315,-0.0583,-866.94,203.00,968.63
17160,-3.8711,-0.0203,-0.0603,-23.19,546.75,859.25
17170,-3.8711,-0.0095,-0.0626,1414.31,296.81,546.75
17180,-3.8711,-0.0046,-0.0616,-1210.69,-0.06,343.57
17190,-3.8711,-0.0062,-0.0590,-585.69,124.94,374.88
17200,-3.8711,-0.0112,-0.0581,-788.82,468.69,562.38
17210,-3.8711,-0.0146,-0.0601,-1429.44,578.06,671.75
17220,-3.8711,-0.0137,-0.0636,-1866.94,328.06,515.50
17230,-3.8711,-0.0110,-0.0674,-1741.94,-125.06,202.94
17240,-3.8712,-0.0116,-0.0697,-1398.19,-609.44,-140.81
17250,-3.8712,-0.0176,-0.0707,-1476.32,-906.31,-515.81
17260,-3.8712,-0.0270,-0.0713,1758.06,-1031.31,-750.18
17270,-3.8712,-0.0337,-0.0720,554.93,-1109.44,-750.18
17280,-3.8712,-0.0337,-0.0721,-304.44,-1203.25,-609.56
17290,-3.8712,-0.0287,-0.0696,-304.44,-1218.87,-281.43
17300,-3.8711,-0.0226,-0.0665,336.18,-890.69,374.82
17310,-3.8711,-0.0188,-0.0624,1117.43,-500.06,1421.69
17320,-3.8711,-0.0176,-0.0580,1601.81,31.19,-1718.87
17330,-3.8711,-0.0165,-0.0587,1758.06,593.69,-1718.87
17340,-3.8711,-0.0151,-0.0627,1898.68,499.94,1406.13
17350,-3.8712,-0.0143,-0.0670,-1929.44,-15.69,-31.43
17360,-3.8712,-0.0139,-0.0712,-1820.07,-562.56,-1734.56
17370,-3.8712,-0.0153,-0.0736,-1773.19,-1093.81,781.07
17380,-3.8713,-0.0193,-0.0732,-1945.07,-1406.31,-47.06
17390,-3.8713,-0.0247,-0.0718,1539.31,-1359.44,-156.43
17400,-3.8712,-0.0286,-0.0702,851.81,-1171.94,499.82
17410,-3.8712,-0.0289,-0.0676,351.81,-968.81,1562.32
17420,-3.8712,-0.0254,-0.0641,304.93,-640.69,-1328.31
17430,-3.8712,-0.0194,-0.0619,758.06,-187.56,-328.31
17440,-3.8711,-0.0144,-0.0607,1523.68,93.69,437.38
17450,-3.8711,-0.0132,-0.0598,-1835.69,249.94,1078.00
17460,-3.8711,-0.0156,-0.0610,-1679.44,359.31,1656.13
17470,-3.8711,-0.0205,-0.0636,-1991.94,203.06,1937.38
17480,-3.8711,-0.0243,-0.0653,1383.06,-125.06,1734.19
17490,-3.8711,-0.0248,-0.0652,898.68,-343.81,1109.19
17500,-3.8711,-0.0215,-0.0648,836.18,-328.19,218.57
17510,-3.8712,-0.0154,-0.0663,1258.06,-281.31,-734.56
17520,-3.8712,-0.0110,-0.0680,-1960.69,-468.81,-1422.06
17530,-3.8712,-0.0118,-0.0680,-1398.19,-687.56,-1609.56
17540,-3.8712,-0.0161,-0.0668,-1507.57,-687.56,-1297.06
17550,-3.8712,-0.0211,-0.0658,1945.56,-531.31,-656.43
17560,-3.8711,-0.0259,-0.0652,1304.93,-406.31,187.32
17570,-3.8711,-0.0288,-0.0636,695.56,-328.19,1218.57
17580,-3.8711,-0.0277,-0.0613,320.56,-125.06,-1953.31
17590,-3.8711,-0.0221,-0.0601,461.18,171.81,-1578.25
17600,-3.8711,-0.0155,-0.0598,1179.93,328.06,-1468.87
17610,-3.8711,-0.0123,-0.0601,-1976.32,359.31,-1328.25
17620,-3.8711,-0.0140,-0.0585,-1570.07,328.06,-1093.87
17630,-3.8711,-0.0190,-0.0566,-1788.82,531.19,-1156.37
17640,-3.8711,-0.0237,-0.0571,1570.56,765.56,-1672.00
17650,-3.8711,-0.0259,-0.0591,976.81,703.06,1562.38
17660,-3.8711,-0.0258,-0.0609,695.56,453.06,734.25
17670,-3.8712,-0.0228,-0.0613,711.18,218.69,-62.62
17680,-3.8712,-0.0175,-0.0627,1086.18,171.81,-703.25
17690,-3.8712,-0.0121,-0.0634,1773.68,-15.69,-906.43
17700,-3.8712,-0.0115,-0.0610,-1538.82,-93.81,-640.81
17710,-3.8712,-0.0160,-0.0599,-1460.69,203.06,-172.00
17720,-3.8711,-0.0208,-0.0616,1961.18,343.69,312.38
17730,-3.8711,-0.0232,-0.0638,1351.81,124.94,640.50
17740,-3.8711,-0.0238,-0.0646,1039.31,-156.31,702.94
17750,-3.8711,-0.0236,-0.0636,961.18,-250.06,546.69
17760,-3.8711,-0.0227,-0.0638,992.43,-125.06,406.07
17770,-3.8711,-0.0219,-0.0638,1101.81,-156.31,484.19
17780,-3.8711,-0.0215,-0.0623,1211.18,-156.31,796.69
17790,-3.8711,-0.0215,-0.0609,1258.06,46.81,1281.13
17800,-3.8711,-0.0201,-0.0616,1258.06,218.69,1781.13
17810,-3.8711,-0.0171,-0.0640,1429.93,124.94,1906.13
17820,-3.8711,-0.0134,-0.0670,1820.56,-171.94,1374.82
17830,-3.8711,-0.0115,-0.0703,-1710.69,-562.56,437.32
17840,-3.8712,-0.0128,-0.0709,-1460.69,-984.44,-422.06
17850,-3.8712,-0.0170,-0.0690,-1632.57,-1062.56,-1156.43
17860,-3.8712,-0.0215,-0.0680,1836.18,-812.56,-1734.56
17870,-3.8712,-0.0229,-0.0687,1258.06,-687.56,1827.94
17880,-3.8712,-0.0199,-0.0715,1070.56,-781.31,1312.32
17890,-3.8712,-0.0160,-0.0752,1461.18,-1140.69,827.94
17900,-3.8712,-0.0153,-0.0768,1961.18,-1609.44,687.32
17910,-3.8712,-0.0176,-0.0753,-1945.07,-1812.56,984.19
17920,-3.8712,-0.0199,-0.0729,1758.06,-1625.06,1624.82
17930,-3.8712,-0.0193,-0.0725,1461.18,-1312.56,-1515.81
17940,-3.8712,-0.0176,-0.0728,1539.31,-1265.69,-750.18
17950,-3.8712,-0.0170,-0.0715,1758.06,-1296.94,-281.43
17960,-3.8712,-0.0161,-0.0692,1836.18,-1140.69,-265.81
17970,-3.8712,-0.0125,-0.0671,1945.56,-843.81,-422.06
17980,-3.8712,-0.0057,-0.0659,-1585.69,-578.19,-500.18
17990,-3.8712,0.0035,-0.0631,-726.32,-421.94,-453.31
18000,-3.8712,0.0117,-0.0610,461.18,-78.12,-468.93
18010,-3.8712,0.0159,-0.0615,1508.06,187.50,-640.75
18020,-3.8712,0.0181,-0.0624,-1960.69,125.00,-875.12
18030,-3.8712,0.0186,-0.0660,-1679.44,15.62,-1500.12
18040,-3.8712,0.0149,-0.0723,-1616.94,-453.12,1890.44
18050,-3.8712,0.0039,-0.0757,1914.31,-1250.00,1937.32
18060,-3.8712,-0.0127,-0.0717,508.06,-1687.50,-1375.18
18070,-3.8712,-0.0273,-0.0618,-1616.94,-1156.31,-328.31
18080,-3.8711,-0.0339,-0.0571,508.06,109.31,640.50
18090,-3.8711,-0.0306,-0.0593,-335.69,703.00,1312.38
18100,-3.8711,-0.0210,-0.0586,86.18,421.81,1828.00
18110,-3.8711,-0.0121,-0.0541,1320.56,515.56,-1906.37
18120,-3.8711,-0.0071,-0.0518,-1538.82,1093.69,1999.88
18130,-3.8711,-0.0044,-0.0515,-898.19,1390.56,1671.75
18140,-3.8711,-0.0033,-0.0543,-554.44,1421.81,1171.75
18150,-3.8711,-0.0050,-0.0598,-413.82,1062.44,578.00
18160,-3.8711,-0.0070,-0.0614,-632.57,359.31,46.75
18170,-3.8712,-0.0068,-0.0621,-882.57,156.19,-468.87
18180,-3.8712,-0.0012,-0.0634,-866.94,62.44,-937.62
18190,-3.8712,0.0085,-0.0610,-148.19,-93.81,-1078.31
18200,-3.8712,0.0148,-0.0581,1101.81,187.50,-953.25
18210,-3.8712,0.0150,-0.0570,1898.68,562.50,-734.50
18220,-3.8712,0.0087,-0.0590,1929.93,703.12,-531.37
18230,-3.8712,-0.0033,-0.0625,1117.43,453.12,-406.37
18240,-3.8712,-0.0144,-0.0647,-413.82,15.56,-312.62
18250,-3.8712,-0.0208,-0.0671,-1835.69,-265.69,-297.06
18260,-3.8712,-0.0225,-0.0699,1351.81,-578.19,-281.43
18270,-3.8712,-0.0203,-0.0682,1133.06,-937.56,-203.31
18280,-3.8712,-0.0149,-0.0631,1414.31,-718.81,-0.18
18290,-3.8711,-0.0066,-0.0605,-1898.19,-62.56,234.19
18300,-3.8711,0.0029,-0.0604,-835.69,265.56,468.63
18310,-3.8711,0.0083,-0.0598,383.06,265.62,890.50
18320,-3.8711,0.0072,-0.0566,1070.56,343.75,1671.75
18330,-3.8711,0.0017,-0.0515,929.93,750.00,-1359.50
18340,-3.8711,-0.0044,-0.0492,226.81,1406.25,-609.50
18350,-3.8711,-0.0083,-0.0532,-554.44,1718.69,-672.00
18360,-3.8711,-0.0109,-0.0602,-1054.44,1203.06,-1890.75
18370,-3.8711,-0.0168,-0.0647,-1382.57,312.44,249.88
18380,-3.8712,-0.0288,-0.0656,1851.81,-265.69,-1703.31
18390,-3.8712,-0.0436,-0.0651,320.56,-375.06,577.94
18400,-3.8713,-0.0559,-0.0636,-1570.07,-312.62,-718.93
18410,-3.8713,-0.0627,-0.0610,851.81,-125.12,-1500.18
18420,-3.8713,-0.0643,-0.0581,-23.19,202.94,-1562.62
18430,-3.8713,-0.0627,-0.0554,-226.32,577.94,-890.75
18440,-3.8712,-0.0598,-0.0515,-23.19,921.69,578.00
18450,-3.8712,-0.0570,-0.0437,351.81,1421.75,-1390.75
18460,-3.8711,-0.0525,-0.0344,711.18,-1578.25,718.63
18470,-3.8711,-0.0431,-0.0302,1289.31,-390.75,-1625.12
18480,-3.8711,-0.0291,-0.0337,-1507.57,156.13,-781.31
18490,-3.8711,-0.0150,-0.0393,289.31,-296.94,-625.12
18500,-3.8711,-0.0062,-0.0413,-1913.82,-1015.69,-812.62
18510,-3.8711,-0.0054,-0.0403,-788.82,-1265.69,-1250.12
18520,-3.8711,-0.0105,-0.0389,-679.44,-1140.69,-1922.00
18530,-3.8711,-0.0161,-0.0409,-1335.69,-968.81,1468.63
18540,-3.8711,-0.0197,-0.0469,1945.56,-1218.81,953.00
18550,-3.8711,-0.0233,-0.0543,1492.43,-1984.44,593.63
18560,-3.8711,-0.0288,-0.0598,1023.68,1062.44,624.88
18570,-3.8711,-0.0361,-0.0616,320.56,359.31,1328.00
18580,-3.8711,-0.0437,-0.0621,-616.94,124.88,-1234.50
18590,-3.8710,-0.0494,-0.0623,-1585.69,62.38,515.50
18600,-3.8710,-0.0514,-0.0632,1679.93,46.75,1843.63
18610,-3.8710,-0.0472,-0.0654,1429.93,-78.25,-1797.06
18620,-3.8710,-0.0382,-0.0654,1961.18,-359.50,1515.44
18630,-3.8710,-0.0262,-0.0620,-882.57,-359.50,62.32
18640,-3.8711,-0.0129,-0.0588,648.68,78.06,-1797.00
18650,-3.8711,-0.0001,-0.0585,-1648.19,484.31,359.25
18660,-3.8712,0.0101,-0.0592,-7.57,531.19,-953.25
18670,-3.8712,0.0132,-0.0583,1304.93,421.88,-1468.87
18680,-3.8712,0.0065,-0.0551,1695.56,531.25,-1297.00
18690,-3.8712,-0.0059,-0.0504,836.18,953.12,-640.75
18700,-3.8711,-0.0165,-0.0470,-741.94,1562.44,265.50
18710,-3.8711,-0.0198,-0.0477,1898.68,1999.94,1156.13
18720,-3.8711,-0.0164,-0.0522,1476.81,1906.19,1656.13
18730,-3.8711,-0.0106,-0.0566,1914.31,1328.06,1468.63
18740,-3.8711,-0.0046,-0.0613,-1351.32,765.56,406.13
18750,-3.8712,0.0022,-0.0658,-585.69,171.81,-1062.62
18760,-3.8712,0.0076,-0.0675,289.31,-421.88,1765.44
18770,-3.8712,0.0082,-0.0660,976.81,-640.62,1062.32
18780,-3.8712,0.0066,-0.0640,1054.93,-453.12,671.69
18790,-3.8712,0.0059,-0.0647,851.81,-187.50,593.57
18800,-3.8712,0.0073,-0.0668,758.06,-281.25,1077.94
18810,-3.8712,0.0093,-0.0659,945.56,-546.88,1843.57
18820,-3.8712,0.0090,-0.0619,1195.56,-437.50,-1422.06
18830,-3.8712,0.0071,-0.0579,1164.31,78.12,-765.75
18840,-3.8712,0.0060,-0.0573,914.31,593.75,-390.75
18850,-3.8712,0.0062,-0.0596,773.68,671.88,-297.00
18860,-3.8712,0.0070,-0.0631,804.93,375.00,-468.87
18870,-3.8712,0.0072,-0.0654,898.68,-78.12,-593.93
18880,-3.8712,0.0059,-0.0629,929.93,-375.00,-234.56
18890,-3.8711,0.0026,-0.0566,758.06,-46.88,296.69
18900,-3.8711,0.0001,-0.0536,336.18,750.00,562.38
18910,-3.8711,-0.0011,-0.0557,23.68,1140.62,703.00
18920,-3.8711,-0.0023,-0.0591,-132.57,890.56,734.25
18930,-3.8711,-0.0048,-0.0616,-288.82,453.06,718.63
18940,-3.8711,-0.0083,-0.0625,-601.32,124.94,687.38
18950,-3.8711,-0.0116,-0.0616,-1054.44,15.56,812.38
18960,-3.8711,-0.0139,-0.0592,-1476.32,124.94,1015.50
18970,-3.8711,-0.0167,-0.0563,-1773.19,437.44,1218.63
18980,-3.8711,-0.0204,-0.0537,1867.43,812.44,1578.00
18990,-3.8711,-0.0229,-0.0511,1398.68,1140.56,1906.13
19000,-3.8711,-0.0221,-0.0507,1070.56,1468.69,1843.63
19010,-3.8711,-0.0168,-0.0532,1179.93,1531.19,1640.50
19020,-3.8711,-0.0090,-0.0562,1851.81,1203.06,1765.50
19030,-3.8711,-0.0039,-0.0574,-1148.19,828.06,1968.63
19040,-3.8711,-0.0051,-0.0569,-491.94,671.81,-1922.00
19050,-3.8711,-0.0093,-0.0562,-648.19,734.31,-1859.50
19060,-3.8711,-0.0112,-0.0583,-1179.44,828.06,1781.13
19070,-3.8711,-0.0096,-0.0634,-1429.44,546.81,859.25
19080,-3.8712,-0.0079,-0.0692,-1226.32,-93.81,-390.81
19090,-3.8712,-0.0110,-0.0730,-1007.57,-843.81,-1547.06
19100,-3.8712,-0.0200,-0.0718,-1398.19,-1328.19,1859.19
19110,-3.8712,-0.0309,-0.0662,1445.56,-1171.94,1843.57
19120,-3.8712,-0.0371,-0.0621,54.93,-453.19,-1953.31
19130,-3.8712,-0.0348,-0.0642,-741.94,62.38,-1750.12
19140,-3.8712,-0.0282,-0.0682,-445.07,-203.25,-1515.81
19150,-3.8712,-0.0249,-0.0679,398.68,-718.81,-1422.06
19160,-3.8712,-0.0269,-0.0619,820.56,-671.94,-1547.06
19170,-3.8712,-0.0319,-0.0547,570.56,93.69,-1672.00
19180,-3.8712,-0.0342,-0.0518,-70.07,1015.50,-1812.62
19190,-3.8712,-0.0312,-0.0535,-366.94,1390.50,1843.63
19200,-3.8712,-0.0272,-0.0554,8.06,1171.81,1421.75
19210,-3.8712,-0.0238,-0.0532,523.68,921.81,1062.38
19220,-3.8712,-0.0200,-0.0485,961.18,1203.06,890.50
19230,-3.8712,-0.0157,-0.0468,1445.56,1812.44,1015.50
19240,-3.8712,-0.0123,-0.0483,1992.43,-1968.81,1640.50
19250,-3.8712,-0.0133,-0.0504,-1570.07,1828.06,-1422.00
19260,-3.8712,-0.0203,-0.0521,-1695.07,1562.44,-250.12
19270,-3.8711,-0.0306,-0.0524,1414.31,1343.69,1328.00
19280,-3.8711,-0.0408,-0.0524,86.18,1312.44,-1015.75
19290,-3.8710,-0.0455,-0.0540,-1210.69,1312.38,218.63
19300,-3.8710,-0.0421,-0.0565,-1820.07,1109.25,703.00
19310,-3.8710,-0.0321,-0.0597,-1382.57,781.13,437.38
19320,-3.8710,-0.0234,-0.0619,-101.32,374.88,31.13
19330,-3.8711,-0.0226,-0.0620,1008.06,93.69,-156.37
19340,-3.8710,-0.0266,-0.0624,1117.43,78.06,31.13
19350,-3.8710,-0.0277,-0.0649,601.81,31.19,343.63
19360,-3.8710,-0.0216,-0.0686,461.18,-296.94,390.44
19370,-3.8711,-0.0106,-0.0715,1242.43,-765.69,-31.43
19380,-3.8711,0.0011,-0.0708,-1351.32,-1140.69,-1015.81
19390,-3.8711,0.0104,-0.0667,148.68,-1062.50,1531.07
19400,-3.8712,0.0142,-0.0647,1336.18,-531.25,-140.81
19410,-3.8712,0.0145,-0.0669,1820.56,-281.25,-1828.31
19420,-3.8712,0.0143,-0.0726,1867.43,-562.50,734.19
19430,-3.8713,0.0153,-0.0775,1836.18,-1296.88,-93.93
19440,-3.8712,0.0194,-0.0796,1961.18,-1921.88,46.69
19450,-3.8712,0.0234,-0.0769,-1507.57,1812.50,1390.44
19460,-3.8712,0.0217,-0.0708,-991.94,-1843.75,-47.06
19470,-3.8711,0.0122,-0.0637,-1210.69,-1062.50,-1062.68
19480,-3.8710,-0.0026,-0.0626,1570.56,-156.25,1390.44
19490,-3.8710,-0.0177,-0.0664,-320.07,-0.06,-1422.06
19500,-3.8710,-0.0264,-0.0648,1742.43,-484.44,-1875.18
19510,-3.8711,-0.0266,-0.0645,633.06,-281.31,-15.81
19520,-3.8711,-0.0204,-0.0660,601.81,-234.44,999.82
19530,-3.8712,-0.0159,-0.0657,1398.68,-437.56,-1703.31
19540,-3.8712,-0.0217,-0.0638,1976.81,-390.69,124.82
19550,-3.8713,-0.0317,-0.0583,1226.81,-156.31,-1343.93
19560,-3.8713,-0.0375,-0.0511,-54.44,546.75,1765.50
19570,-3.8713,-0.0347,-0.0458,-788.82,1468.63,1359.25
19580,-3.8713,-0.0262,-0.0417,-429.44,-1843.87,1359.25
19590,-3.8713,-0.0249,-0.0385,648.68,-1328.19,1671.75
19600,-3.8713,-0.0406,-0.0393,820.56,-906.31,-1500.12
19610,-3.8713,-0.0712,-0.0433,-1195.07,-1015.75,-265.75
19620,-3.8712,-0.1066,-0.0426,-1101.32,-1531.43,1046.75
19630,-3.8712,-0.1313,-0.0370,-1632.57,-1437.74,-1765.75
19640,-3.8712,-0.1332,-0.0326,-804.44,-719.06,-922.00
19650,-3.8712,-0.1177,-0.0334,-1038.82,-156.56,-15.75
19660,-3.8711,-0.0989,-0.0371,945.56,-265.87,1218.63
19670,-3.8711,-0.0830,-0.0402,-648.19,-734.62,-1547.00
19680,-3.8711,-0.0684,-0.0438,1383.06,-1125.18,-1031.37
19690,-3.8711,-0.0507,-0.0477,-741.94,-1593.93,-1500.12
19700,-3.8711,-0.0334,-0.0535,1523.68,1906.13,1265.50
19710,-3.8712,-0.0243,-0.0596,-273.19,1171.75,-234.50
19720,-3.8712,-0.0223,-0.0591,898.68,390.56,-1422.00
19730,-3.8712,-0.0215,-0.0552,1148.68,453.06,-1890.75
19740,-3.8712,-0.0123,-0.0543,1258.06,953.06,-1531.37
19750,-3.8712,0.0070,-0.0563,-1570.07,1062.44,-859.50
19760,-3.8712,0.0292,-0.0582,898.68,796.88,-625.12
19770,-3.8712,0.0472,-0.0598,-257.57,546.88,-1453.25
19780,-3.8712,0.0554,-0.0602,-1945.07,343.81,859.25
19790,-3.8713,0.0500,-0.0570,-898.19,296.94,-562.62
19800,-3.8713,0.0311,-0.0522,-1585.69,703.19,-625.12
19810,-3.8712,0.0068,-0.0491,-7.57,1312.50,1109.25
19820,-3.8711,-0.0095,-0.0483,883.06,1718.75,171.75
19830,-3.8711,-0.0116,-0.0494,-1210.69,1828.06,-953.25
19840,-3.8710,-0.0001,-0.0542,-1476.32,1687.44,312.38
19850,-3.8711,0.0155,-0.0626,-7.57,1078.06,-468.87
19860,-3.8711,0.0244,-0.0690,1992.43,-15.62,1093.57
19870,-3.8712,0.0214,-0.0720,-866.94,-828.12,-1859.56
19880,-3.8713,0.0055,-0.0741,-1257.57,-1218.75,-281.43
19890,-3.8713,-0.0162,-0.0730,711.18,-1484.38,-1562.68
19900,-3.8713,-0.0352,-0.0660,1929.93,-1328.19,-1093.93
19910,-3.8712,-0.0469,-0.0537,-491.94,-437.62,1296.69
19920,-3.8711,-0.0533,-0.0382,-1991.94,1140.50,1203.00
19930,-3.8710,-0.0571,-0.0247,1179.93,-875.12,-1687.62
19940,-3.8708,-0.0599,-0.0164,695.56,859.25,-250.06
19950,-3.8706,-0.0648,-0.0059,336.18,1921.75,421.81
19960,-3.8706,-0.0702,0.0072,-288.82,-734.56,-281.31
19970,-3.8705,-0.0682,0.0148,-976.32,937.32,1281.25
19980,-3.8705,-0.0530,0.0135,-726.32,1906.07,593.75
19990,-3.8706,-0.0255,0.0029,1226.81,1749.88,703.12
20000,-3.8708,0.0020,-0.0187,742.43,390.56,1953.12
20010,-3.8711,0.0143,-0.0414,258.06,1609.38,1999.94
20020,-3.8713,0.0077,-0.0535,1836.18,-1296.88,-750.12
20030,-3.8715,-0.0127,-0.0586,992.43,1156.25,-343.87
20040,-3.8715,-0.0344,-0.0613,-1616.94,515.56,-672.00
20050,-3.8713,-0.0454,-0.0593,-398.19,171.75,890.50
20060,-3.8713,-0.0437,-0.0549,-1804.44,421.75,-843.87
20070,-3.8712,-0.0352,-0.0553,-1585.69,984.25,1765.50
20080,-3.8711,-0.0286,-0.0544,-491.94,937.38,609.25
20090,-3.8711,-0.0303,-0.0526,351.81,1046.81,-1172.00
20100,-3.8711,-0.0350,-0.0535,133.06,1281.19,-640.75
20110,-3.8711,-0.0356,-0.0536,-476.32,1171.75,-1765.75
20120,-3.8712,-0.0350,-0.0520,-554.44,1156.13,-297.00
20130,-3.8712,-0.0330,-0.0493,-476.32,1359.25,718.63
20140,-3.8713,-0.0280,-0.0497,-210.69,1703.00,-1890.75
20150,-3.8713,-0.0219,-0.0549,429.93,1656.19,93.63
20160,-3.8715,-0.0115,-0.0610,1211.18,984.31,-937.62
20170,-3.8715,0.0027,-0.0671,-1460.69,203.06,-1265.75
20180,-3.8715,0.0181,-0.0728,351.81,-593.75,-1359.56
20190,-3.8715,0.0312,-0.0745,-1679.44,-1312.50,-843.93
20200,-3.8713,0.0367,-0.0714,8.06,-1531.19,312.32
20210,-3.8713,0.0315,-0.0671,711.18,-1140.56,1734.19
20220,-3.8713,0.0162,-0.0651,39.31,-593.69,-984.56
20230,-3.8713,-0.0031,-0.0645,-1913.82,-328.12,-78.31
20240,-3.8712,-0.0190,-0.0673,-382.57,-234.44,265.44
20250,-3.8712,-0.0260,-0.0698,1570.56,-593.81,577.94
20260,-3.8712,-0.0234,-0.0684,679.93,-921.94,1124.82
20270,-3.8712,-0.0135,-0.0668,1008.06,-734.44,1531.07
20280,-3.8712,0.0043,-0.0647,-1726.32,-531.31,1702.94
20290,-3.8712,0.0215,-0.0605,554.93,-281.25,1656.07
20300,-3.8712,0.0305,-0.0552,-1241.94,250.00,1703.00
20310,-3.8712,0.0337,-0.0491,-85.69,937.50,1937.38
20320,-3.8712,0.0361,-0.0439,320.56,1718.81,-1828.25
20330,-3.8712,0.0450,-0.0409,633.06,-1624.94,-1547.00
20340,-3.8712,0.0612,-0.0410,1773.68,-1234.31,-1203.25
20350,-3.8712,0.0770,-0.0452,-163.82,-1249.94,-812.62
20360,-3.8712,0.0835,-0.0492,1867.43,-1781.13,-297.00
20370,-3.8711,0.0740,-0.0491,-1304.44,1703.25,484.25
20380,-3.8711,0.0500,-0.0460,1476.81,1718.87,1968.63
20390,-3.8711,0.0203,-0.0447,-1585.69,-1890.56,-172.00
20400,-3.8710,-0.0048,-0.0459,-1398.19,-1718.75,937.38
20410,-3.8710,-0.0179,-0.0498,-601.32,-1859.44,703.00
20420,-3.8711,-0.0189,-0.0553,1711.18,1640.56,-812.62
20430,-3.8711,-0.0090,-0.0583,1586.18,937.44,1062.38
20440,-3.8712,0.0045,-0.0591,-1148.19,546.81,-718.87
20450,-3.8712,0.0144,-0.0569,586.18,437.50,-1547.00
20460,-3.8712,0.0184,-0.0527,1851.81,718.75,-1187.62
20470,-3.8712,0.0182,-0.0498,-1632.57,1250.00,-0.12
20480,-3.8711,0.0183,-0.0483,-1663.82,1625.00,1468.63
20490,-3.8711,0.0195,-0.0500,-1648.19,1812.50,-1468.87
20500,-3.8711,0.0201,-0.0513,-1491.94,1593.75,-1031.37
20510,-3.8711,0.0181,-0.0483,-1413.82,1437.50,-781.37
20520,-3.8711,0.0159,-0.0468,-1679.44,1812.50,-500.12
20530,-3.8711,0.0172,-0.0470,-1960.69,-1984.38,-156.37
20540,-3.8710,0.0176,-0.0459,-1788.82,1984.38,421.75
20550,-3.8710,0.0131,-0.0443,-1741.94,-1875.00,1124.88
20560,-3.8710,0.0057,-0.0435,1679.93,-1671.88,1546.75
20570,-3.8710,-0.0034,-0.0437,742.43,-1562.50,1531.13
20580,-3.8710,-0.0094,-0.0437,-429.44,-1578.19,1218.63
20590,-3.8710,-0.0072,-0.0444,-1195.07,-1578.19,531.13
20600,-3.8711,0.0043,-0.0470,-913.82,-1671.94,-437.62
20610,-3.8711,0.0204,-0.0504,554.93,1984.38,-1406.37
20620,-3.8711,0.0298,-0.0522,-1382.57,1546.88,1593.63
20630,-3.8711,0.0250,-0.0519,-179.44,1312.50,640.50
20640,-3.8712,0.0125,-0.0497,-788.82,1359.38,-78.25
20650,-3.8712,0.0057,-0.0470,1601.81,1640.62,-656.37
20660,-3.8712,0.0123,-0.0466,742.43,1984.38,-1422.00
20670,-3.8712,0.0325,-0.0508,1586.18,-1968.75,1437.38
20680,-3.8712,0.0607,-0.0565,164.31,1500.06,62.38
20690,-3.8713,0.0848,-0.0618,-226.32,765.69,-1375.12
20700,-3.8713,0.0931,-0.0684,-1132.57,93.87,1156.13
20710,-3.8713,0.0865,-0.0752,-70.07,-749.88,218.57
20720,-3.8713,0.0728,-0.0776,-913.82,-1624.88,734.19
20730,-3.8713,0.0579,-0.0726,1320.56,-1937.38,-1375.18
20740,-3.8712,0.0459,-0.0642,-585.69,-1296.81,1156.07
20750,-3.8712,0.0377,-0.0609,1883.06,-218.69,-531.43
20760,-3.8711,0.0345,-0.0646,836.18,203.19,968.63
20770,-3.8711,0.0353,-0.0706,429.93,-265.56,1374.82
20780,-3.8711,0.0385,-0.0756,523.68,-1031.19,999.82
20790,-3.8711,0.0397,-0.0753,929.93,-1671.81,734.19
20800,-3.8711,0.0369,-0.0715,1086.18,-1640.56,859.19
20810,-3.8711,0.0308,-0.0697,726.81,-1156.19,921.69
20820,-3.8711,0.0255,-0.0681,-54.44,-921.88,624.82
20830,-3.8711,0.0258,-0.0668,-726.32,-718.75,109.19
20840,-3.8712,0.0305,-0.0665,-695.07,-546.88,-62.68
20850,-3.8711,0.0327,-0.0657,-85.69,-515.62,234.19
20860,-3.8711,0.0276,-0.0616,195.56,-406.19,812.32
20870,-3.8711,0.0205,-0.0527,-460.69,109.38,1437.38
20880,-3.8711,0.0211,-0.0466,-1366.94,1250.00,1531.13
20890,-3.8711,0.0315,-0.0498,-1288.82,-1968.75,1234.25
20900,-3.8711,0.0419,-0.0603,39.31,1625.06,609.25
20910,-3.8712,0.0472,-0.0685,1367.43,281.31,-375.12
20920,-3.8712,0.0469,-0.0607,-1945.07,-765.56,-1765.81
20930,-3.8712,0.0363,-0.0543,-1991.94,234.44,640.50
20940,-3.8712,0.0177,-0.0691,648.68,1046.94,515.50
20950,-3.8712,-0.0063,-0.0770,-1726.32,-843.75,-1593.93
20960,-3.8712,-0.0366,-0.0767,-804.44,-1843.81,-31.43
20970,-3.8711,-0.0531,-0.0659,-679.44,-1797.00,1015.44
20980,-3.8711,-0.0503,-0.0477,1211.18,-422.00,-1953.31
20990,-3.8711,-0.0430,-0.0435,1570.56,1906.13,-687.62
21000,-3.8710,-0.0410,-0.0480,-1491.94,-1547.00,1515.50
21010,-3.8710,-0.0496,-0.0536,-1241.94,1874.88,-109.50
21020,-3.8708,-0.0549,-0.0491,1664.31,1156.13,1499.88
21030,-3.8708,-0.0430,-0.0425,976.81,1734.25,1249.88
21040,-3.8710,-0.0083,-0.0460,-1491.94,-1422.00,-203.25
21050,-3.8710,0.0354,-0.0546,-1054.44,-1875.06,-1562.62
21060,-3.8710,0.0647,-0.0596,539.31,1015.69,1156.13
21070,-3.8711,0.0676,-0.0636,289.31,375.12,-172.00
21080,-3.8711,0.0465,-0.0715,664.31,-140.50,-1390.81
21090,-3.8711,0.0146,-0.0773,1961.18,-1156.19,1796.69
21100,-3.8711,-0.0156,-0.0790,1883.06,-1890.62,1468.57
21110,-3.8711,-0.0336,-0.0793,-1991.94,1906.19,765.44
21120,-3.8712,-0.0330,-0.0774,-288.82,1859.25,-422.06
21130,-3.8712,-0.0206,-0.0759,-210.69,-1890.75,-1453.31
21140,-3.8712,-0.0077,-0.0723,1367.43,-1703.19,-1812.68
21150,-3.8712,-0.0028,-0.0662,-976.32,-1234.44,-1437.68
21160,-3.8712,-0.0093,-0.0657,-351.32,-453.19,-1078.31
21170,-3.8712,-0.0178,-0.0696,-1179.44,-390.69,-1078.31
21180,-3.8712,-0.0203,-0.0729,1726.81,-890.69,-1437.68
21190,-3.8712,-0.0129,-0.0740,1414.31,-1312.56,1984.19
21200,-3.8712,0.0046,-0.0728,-1648.19,-1453.19,1499.82
21210,-3.8712,0.0228,-0.0704,601.81,-1312.50,1671.69
21220,-3.8712,0.0309,-0.0671,-1070.07,-1015.62,-1406.43
21230,-3.8712,0.0280,-0.0669,-38.82,-593.75,-390.81
21240,-3.8711,0.0195,-0.0714,-413.82,-562.50,202.94
21250,-3.8712,0.0112,-0.0750,-1491.94,-1140.62,-78.31
21260,-3.8712,0.0052,-0.0754,1445.56,-1593.75,-1062.68
21270,-3.8712,0.0043,-0.0747,679.93,-1656.25,1827.94
21280,-3.8712,0.0107,-0.0735,554.93,-1562.50,1234.19
21290,-3.8712,0.0216,-0.0742,1383.06,-1406.25,1015.44
21300,-3.8712,0.0310,-0.0781,-1226.32,-1500.00,749.82
21310,-3.8712,0.0350,-0.0825,-23.19,-2000.00,343.57
21320,-3.8712,0.0326,-0.0857,492.43,1437.56,31.07
21330,-3.8713,0.0258,-0.0881,179.93,1031.31,-15.81
21340,-3.8712,0.0187,-0.0896,-695.07,718.75,327.94
21350,-3.8712,0.0146,-0.0890,-1601.32,531.25,1124.82
21360,-3.8712,0.0132,-0.0869,1883.06,609.38,-1843.93
21370,-3.8712,0.0117,-0.0848,1695.56,875.00,-1031.43
21380,-3.8712,0.0105,-0.0851,1508.06,1140.62,-843.93
21390,-3.8712,0.0107,-0.0870,1351.81,1109.38,-1047.06
21400,-3.8712,0.0128,-0.0852,1383.06,859.38,-1172.06
21410,-3.8712,0.0159,-0.0798,1648.68,1093.75,-906.43
21420,-3.8712,0.0190,-0.0752,-1960.69,1781.25,-515.81
21430,-3.8712,0.0219,-0.0720,-1554.44,-1625.00,-375.18
21440,-3.8712,0.0234,-0.0697,-1195.07,-1218.75,-390.81
21450,-3.8712,0.0233,-0.0702,-991.94,-921.88,-531.43
21460,-3.8712,0.0231,-0.0731,-1007.57,-984.38,-797.06
21470,-3.8712,0.0222,-0.0762,-1038.82,-1359.38,-1109.56
21480,-3.8712,0.0186,-0.0757,-1148.19,-1750.00,-1390.81
21490,-3.8712,0.0162,-0.0720,-1616.94,-1687.50,-1515.81
21500,-3.8712,0.0208,-0.0706,-1913.82,-1218.75,-1375.18
21510,-3.8712,0.0310,-0.0707,-1335.69,-1031.25,-890.81
21520,-3.8712,0.0417,-0.0719,-23.19,-1046.88,-203.31
21530,-3.8711,0.0490,-0.0726,1351.81,-1203.06,484.19
21540,-3.8711,0.0496,-0.0707,-1726.32,-1296.81,1046.69
21550,-3.8711,0.0438,-0.0674,-1648.19,-1046.81,1421.69
21560,-3.8711,0.0372,-0.0656,1617.43,-624.94,1546.69
21570,-3.8711,0.0339,-0.0668,773.68,-390.56,1296.69
21580,-3.8711,0.0334,-0.0692,351.81,-546.81,593.57
21590,-3.8712,0.0322,-0.0728,289.31,-859.31,-406.43
21600,-3.8712,0.0291,-0.0762,133.06,-1312.44,-1328.31
21610,-3.8712,0.0256,-0.0770,-273.19,-1750.00,-1922.06
21620,-3.8712,0.0232,-0.0765,-710.69,-1859.38,1968.57
21630,-3.8712,0.0225,-0.0768,-1023.19,-1796.88,-1859.56
21640,-3.8712,0.0226,-0.0775,-1116.94,-1828.12,-1687.68
21650,-3.8712,0.0212,-0.0770,-1101.32,-1921.88,-1359.56
21660,-3.8712,0.0166,-0.0762,-1273.19,-1859.38,-797.06
21670,-3.8711,0.0101,-0.0773,-1866.94,-1750.00,46.69
21680,-3.8711,0.0044,-0.0787,1304.93,-1890.62,890.44
21690,-3.8711,0.0017,-0.0785,570.56,1921.88,1218.57
21700,-3.8711,0.0034,-0.0771,226.81,1953.12,843.57
21710,-3.8712,0.0085,-0.0754,445.56,-1875.00,-187.68
21720,-3.8712,0.0154,-0.0752,1101.81,-1656.25,-1515.81
21730,-3.8712,0.0209,-0.0763,1976.81,-1625.00,1421.69
21740,-3.8712,0.0226,-0.0763,-1320.07,-1765.62,984.19
21750,-3.8712,0.0197,-0.0762,-1101.32,-1765.62,1187.32
21760,-3.8712,0.0148,-0.0762,-1476.32,-1750.00,-1859.56
21770,-3.8712,0.0111,-0.0752,1898.68,-1750.00,-390.81
21780,-3.8711,0.0098,-0.0730,1429.93,-1625.00,1421.69
21790,-3.8711,0.0112,-0.0685,1258.06,-1343.75,-672.06
21800,-3.8710,0.0142,-0.0630,1445.56,-765.62,468.57
21810,-3.8710,0.0167,-0.0597,1820.56,-62.50,687.32
21820,-3.8710,0.0160,-0.0586,-1851.32,359.38,265.50
21830,-3.8711,0.0131,-0.0603,-1945.07,500.00,-390.75
21840,-3.8711,0.0142,-0.0638,1679.93,281.25,-828.25
21850,-3.8711,0.0209,-0.0651,1820.56,-171.88,-906.43
21860,-3.8711,0.0284,-0.0629,-1320.07,-328.12,-593.93
21870,-3.8710,0.0312,-0.0585,-351.32,-46.88,109.19
21880,-3.8710,0.0267,-0.0536,8.06,515.69,984.25
21890,-3.8710,0.0181,-0.0510,-570.07,1140.62,1468.63
21900,-3.8710,0.0117,-0.0532,-1679.44,1468.75,906.13
21910,-3.8711,0.0121,-0.0583,1508.06,1187.50,-828.25
21920,-3.8711,0.0186,-0.0643,1554.93,531.25,765.50
21930,-3.8712,0.0275,-0.0709,-1616.94,-234.38,-1656.43
21940,-3.8712,0.0344,-0.0768,-476.32,-1078.12,437.32
21950,-3.8713,0.0367,-0.0802,414.31,-1828.06,-640.81
21960,-3.8713,0.0338,-0.0804,711.18,1734.44,-625.18
21970,-3.8712,0.0273,-0.0781,336.18,1703.19,359.19
21980,-3.8712,0.0210,-0.0746,-491.94,-2000.00,1827.94
21990,-3.8712,0.0190,-0.0720,-1304.44,-1546.88,-750.18
22000,-3.8711,0.0237,-0.0728,-1554.44,-1218.75,140.44
22010,-3.8711,0.0322,-0.0753,-960.69,-1312.50,312.32
22020,-3.8712,0.0367,-0.0818,133.06,-1640.56,-140.81
22030,-3.8712,0.0348,-0.0884,711.18,1531.31,-984.56
22040,-3.8712,0.0325,-0.0867,461.18,687.56,-1672.06
22050,-3.8712,0.0319,-0.0822,164.31,906.31,1952.94
22060,-3.8712,0.0325,-0.0796,86.18,1484.44,-1937.68
22070,-3.8712,0.0326,-0.0779,164.31,1812.56,-1078.31
22080,-3.8712,0.0321,-0.0767,179.93,-1968.69,-15.81
22090,-3.8711,0.0354,-0.0767,117.43,-1812.44,577.94
22100,-3.8711,0.0430,-0.0791,539.31,-1812.44,624.82
22110,-3.8711,0.0502,-0.0820,1508.06,1875.06,218.57
22120,-3.8712,0.0542,-0.0824,-1570.07,1500.06,-640.81
22130,-3.8712,0.0544,-0.0830,-1054.44,1453.19,-1906.43
22140,-3.8712,0.0514,-0.0847,-1023.19,1375.06,843.57
22150,-3.8712,0.0466,-0.0834,-1413.82,1156.31,156.07
22160,-3.8712,0.0413,-0.0804,1976.81,1328.19,93.57
22170,-3.8712,0.0371,-0.0790,1289.31,1703.19,562.32
22180,-3.8712,0.0354,-0.0792,758.06,1890.69,1421.69
22190,-3.8712,0.0345,-0.0790,539.31,1859.44,-1531.43
22200,-3.8712,0.0341,-0.0769,429.93,1890.69,-437.68
22210,-3.8711,0.0334,-0.0745,367.43,-1843.69,640.44
22220,-3.8711,0.0326,-0.0720,289.31,-1531.19,1546.69
22230,-3.8711,0.0315,-0.0698,179.93,-1218.69,1968.57
22240,-3.8711,0.0310,-0.0692,39.31,-937.44,1937.32
22250,-3.8711,0.0305,-0.0699,-23.19,-859.38,1812.32
22260,-3.8711,0.0280,-0.0704,-85.69,-953.12,1421.69
22270,-3.8711,0.0240,-0.0712,-413.82,-1015.62,874.82
22280,-3.8711,0.0204,-0.0715,-913.82,-1109.38,749.82
22290,-3.8711,0.0178,-0.0701,-1382.57,-1156.25,1031.07
22300,-3.8711,0.0178,-0.0682,-1710.69,-968.75,1249.82
22310,-3.8711,0.0203,-0.0665,-1710.69,-734.38,1046.69
22320,-3.8711,0.0223,-0.0647,-1398.19,-515.62,687.32
22330,-3.8711,0.0203,-0.0635,-1132.57,-281.25,327.94
22340,-3.8712,0.0142,-0.0634,-1398.19,-125.00,-156.43
22350,-3.8712,0.0076,-0.0648,1820.56,-109.38,-750.18
22360,-3.8712,0.0032,-0.0669,976.81,-296.88,-1265.81
22370,-3.8712,0.0015,-0.0680,414.31,-562.50,-1609.56
22380,-3.8712,0.0005,-0.0686,195.56,-703.12,-1672.06
22390,-3.8712,-0.0022,-0.0693,70.56,-781.25,-1062.68
22400,-3.8711,-0.0062,-0.0679,-273.19,-859.44,187.32
22410,-3.8711,-0.0114,-0.0674,-788.82,-671.94,1562.32
22420,-3.8711,-0.0151,-0.0693,-1445.07,-609.44,-1312.68
22430,-3.8711,-0.0144,-0.0706,-1929.44,-859.44,-625.18
22440,-3.8711,-0.0093,-0.0718,-1835.69,-1015.69,-765.81
22450,-3.8711,-0.0022,-0.0724,-1179.44,-1171.94,-1422.06
22460,-3.8711,0.0022,-0.0718,-273.19,-1250.06,-1984.56
22470,-3.8711,0.0010,-0.0715,289.31,-1187.50,1812.32
22480,-3.8711,-0.0050,-0.0702,133.06,-1156.25,1937.32
22490,-3.8711,-0.0125,-0.0680,-632.57,-968.81,-1609.56
22500,-3.8711,-0.0171,-0.0681,-1585.69,-687.56,-1140.81
22510,-3.8711,-0.0150,-0.0710,1820.56,-703.19,-1031.43
22520,-3.8711,-0.0057,-0.0730,-1913.82,-1078.19,-1297.06
