timestamp_ms,ax,ay,az,gx,gy,gz
0,-3.8712,0.1086,-0.0350,-1757.57,-593.57,-406.37
10,-3.8712,0.1089,-0.0337,1914.31,-484.19,-1000.12
20,-3.8712,0.1096,-0.0316,1945.56,-312.32,-1484.50
30,-3.8712,0.1085,-0.0288,-1960.69,-46.69,-1734.50
40,-3.8712,0.1051,-0.0228,1898.68,312.68,-1671.94
50,-3.8712,0.1007,-0.0127,1461.18,1078.31,-1093.81
60,-3.8712,0.0968,-0.0015,898.68,-1624.82,-78.19
70,-3.8711,0.0934,0.0051,398.68,-187.32,1109.31
80,-3.8711,0.0906,0.0045,-38.82,656.37,-1812.50
90,-3.8711,0.0884,-0.0002,-398.19,578.25,-1000.00
100,-3.8711,0.0869,-0.0040,-679.44,-31.13,-578.19
110,-3.8711,0.0862,-0.0076,-866.94,-515.50,-640.69
120,-3.8711,0.0873,-0.0150,-960.69,-968.63,-1093.81
130,-3.8711,0.0924,-0.0255,-820.07,-1921.75,-1937.56
140,-3.8711,0.1023,-0.0344,-163.82,734.50,859.31
150,-3.8712,0.1144,-0.0387,1101.81,-406.07,-515.75
160,-3.8712,0.1245,-0.0402,-1351.32,-952.94,-1703.25
170,-3.8712,0.1288,-0.0416,-54.44,-1140.44,1468.63
180,-3.8712,0.1272,-0.0448,492.43,-1327.88,843.63
190,-3.8712,0.1238,-0.0471,289.31,-1734.13,437.38
200,-3.8712,0.1230,-0.0463,-148.19,1968.93,234.25
210,-3.8712,0.1263,-0.0436,-241.94,-1921.69,249.88
220,-3.8712,0.1315,-0.0426,179.93,-1577.88,578.00
230,-3.8712,0.1360,-0.0463,836.18,-1452.88,1249.88
240,-3.8712,0.1389,-0.0525,1414.31,-1921.63,1859.25
250,-3.8712,0.1407,-0.0554,1789.31,1281.49,-1890.75
260,-3.8712,0.1432,-0.0524,-1976.32,906.49,-1765.75
270,-3.8712,0.1451,-0.0463,-1663.82,1297.12,-1640.75
280,-3.8712,0.1451,-0.0386,-1413.82,-1921.63,-1562.62
290,-3.8712,0.1432,-0.0302,-1413.82,-937.26,-1437.62
300,-3.8712,0.1387,-0.0242,-1663.82,140.87,-1234.44
310,-3.8712,0.1332,-0.0186,1758.06,906.49,-1031.31
320,-3.8712,0.1287,-0.0111,1054.93,1625.24,-703.19
330,-3.8712,0.1245,-0.0029,476.81,-1421.63,-109.44
340,-3.8711,0.1191,0.0028,-54.44,-374.82,703.06
350,-3.8711,0.1128,0.0031,-741.94,359.56,1562.50
360,-3.8711,0.1050,0.0001,-1554.44,390.81,-1765.62
370,-3.8711,0.0959,-0.0024,1445.56,15.81,-1343.75
380,-3.8711,0.0873,-0.0042,289.31,-312.32,-1125.06
390,-3.8711,0.0815,-0.0063,-820.07,-531.13,-1312.56
400,-3.8711,0.0809,-0.0095,-1554.44,-812.38,-1687.56
410,-3.8711,0.0841,-0.0120,-1632.57,-1218.63,-1890.69
420,-3.8711,0.0864,-0.0142,-1226.32,-1531.13,1921.81
430,-3.8711,0.0857,-0.0179,-929.44,-1812.38,1546.81
440,-3.8711,0.0840,-0.0225,-1023.19,1703.25,1093.69
450,-3.8711,0.0828,-0.0266,-1241.94,1125.12,624.94
460,-3.8712,0.0824,-0.0303,-1398.19,593.87,-78.19
470,-3.8712,0.0824,-0.0337,-1445.07,125.12,-1031.31
480,-3.8712,0.0836,-0.0374,-1445.07,-312.38,1953.00
490,-3.8712,0.0875,-0.0415,-1288.82,-781.13,1046.75
500,-3.8712,0.0950,-0.0448,-788.82,-1312.38,374.88
510,-3.8712,0.1056,-0.0457,164.31,-1734.19,31.13
520,-3.8712,0.1174,-0.0454,1523.68,-1843.57,62.38
530,-3.8712,0.1272,-0.0442,-960.69,-1812.32,437.38
540,-3.8712,0.1338,-0.0416,289.31,-1656.01,1078.00
550,-3.8712,0.1378,-0.0381,1133.06,-1327.88,1781.13
560,-3.8712,0.1390,-0.0328,1648.68,-874.76,-1593.87
570,-3.8712,0.1389,-0.0272,1804.93,-202.88,-1047.00
580,-3.8712,0.1398,-0.0219,1789.31,515.87,-453.19
590,-3.8711,0.1416,-0.0175,1898.68,1203.37,249.94
600,-3.8711,0.1423,-0.0145,-1866.94,1765.87,968.69
610,-3.8711,0.1403,-0.0118,-1773.19,-1859.13,1453.06
620,-3.8711,0.1356,-0.0088,1961.18,-1515.38,1828.06
630,-3.8711,0.1294,-0.0068,1367.43,-1124.76,-1781.31
640,-3.8711,0.1233,-0.0068,570.56,-874.76,-1562.56
650,-3.8711,0.1187,-0.0081,-210.69,-874.82,-1578.19
660,-3.8711,0.1149,-0.0106,-804.44,-1031.07,-1937.56
670,-3.8711,0.1119,-0.0159,-1288.82,-1359.19,1343.69
680,-3.8711,0.1110,-0.0223,-1663.82,1968.93,499.94
690,-3.8712,0.1108,-0.0275,-1788.82,1140.81,-234.44
700,-3.8712,0.1095,-0.0309,-1804.44,484.56,-781.31
710,-3.8712,0.1063,-0.0333,-1976.32,47.06,-1140.69
720,-3.8712,0.1018,-0.0347,1617.43,-265.44,-1343.87
730,-3.8712,0.0958,-0.0341,1039.31,-437.32,-1437.62
740,-3.8712,0.0903,-0.0339,273.68,-359.19,-1531.37
750,-3.8712,0.0891,-0.0350,-429.44,-343.63,-1734.50
760,-3.8712,0.0938,-0.0339,-585.69,-484.25,1906.13
770,-3.8712,0.1008,-0.0303,8.06,-343.57,1749.88
780,-3.8712,0.1071,-0.0269,914.31,125.18,-1984.44
790,-3.8712,0.1123,-0.0256,1711.18,562.68,-1406.31
800,-3.8712,0.1163,-0.0256,-1616.94,718.93,-765.69
810,-3.8712,0.1179,-0.0248,-1101.32,718.93,-93.81
820,-3.8711,0.1176,-0.0233,-898.19,828.31,562.44
830,-3.8711,0.1178,-0.0236,-945.07,1015.81,859.31
840,-3.8711,0.1211,-0.0255,-913.82,984.56,640.56
850,-3.8711,0.1273,-0.0271,-491.94,734.56,234.31
860,-3.8711,0.1321,-0.0273,304.93,531.49,78.06
870,-3.8711,0.1331,-0.0280,914.31,500.24,46.81
880,-3.8712,0.1309,-0.0297,1039.31,422.12,-46.94
890,-3.8712,0.1277,-0.0299,758.06,203.37,-312.56
900,-3.8712,0.1249,-0.0278,351.81,172.12,-546.94
910,-3.8712,0.1221,-0.0258,-7.57,437.68,-671.94
920,-3.8712,0.1180,-0.0254,-366.94,703.31,-765.69
930,-3.8712,0.1139,-0.0255,-882.57,750.18,-781.31
940,-3.8712,0.1108,-0.0256,-1413.82,734.56,-796.94
950,-3.8712,0.1097,-0.0258,-1804.44,718.93,-781.31
960,-3.8712,0.1111,-0.0264,-1945.07,703.31,-515.69
970,-3.8712,0.1117,-0.0283,-1773.19,625.18,-62.56
980,-3.8711,0.1084,-0.0309,-1695.07,375.18,171.81
990,-3.8711,0.1044,-0.0317,1883.06,47.06,78.06
1000,-3.8712,0.1040,-0.0314,1367.43,-62.32,-172.00
1010,-3.8712,0.1084,-0.0312,1320.56,-15.44,-406.37
1020,-3.8712,0.1158,-0.0314,1883.06,0.18,-734.44
1030,-3.8712,0.1206,-0.0319,-1163.82,-15.44,-1125.12
1040,-3.8712,0.1191,-0.0325,-554.44,-77.94,-1343.87
1050,-3.8712,0.1124,-0.0305,-741.94,-156.07,-1468.87
1060,-3.8712,0.1039,-0.0260,-1601.32,93.93,-1593.81
1070,-3.8712,0.0975,-0.0231,1304.93,672.06,-1625.06
1080,-3.8712,0.0959,-0.0226,492.43,1047.06,-1578.19
1090,-3.8712,0.1008,-0.0228,289.31,1109.56,-1343.81
1100,-3.8712,0.1116,-0.0240,914.31,1078.31,-859.44
1110,-3.8712,0.1237,-0.0254,-1710.69,922.06,-281.31
1120,-3.8711,0.1324,-0.0236,-163.82,750.18,234.31
1130,-3.8711,0.1334,-0.0183,961.18,984.62,749.94
1140,-3.8711,0.1267,-0.0150,1086.18,1656.49,1359.31
1150,-3.8711,0.1163,-0.0170,226.81,-1921.63,1734.31
1160,-3.8711,0.1078,-0.0205,-1101.32,1828.31,1796.81
1170,-3.8711,0.1072,-0.0200,1804.93,1375.18,1656.19
1180,-3.8711,0.1141,-0.0171,1726.81,1437.68,1218.69
1190,-3.8711,0.1211,-0.0162,-1382.57,1812.68,390.56
1200,-3.8712,0.1226,-0.0200,-491.94,1922.06,-718.81
1210,-3.8712,0.1188,-0.0273,-304.44,1437.68,-1796.94
1220,-3.8712,0.1115,-0.0343,-788.82,500.18,1546.81
1230,-3.8712,0.1030,-0.0377,-1726.32,-390.44,1437.38
1240,-3.8712,0.0968,-0.0382,1195.56,-827.94,1734.25
1250,-3.8712,0.0964,-0.0378,398.68,-890.44,-1718.87
1260,-3.8712,0.1036,-0.0361,351.81,-843.57,-1125.12
1270,-3.8712,0.1168,-0.0312,1273.68,-624.82,-406.37
1280,-3.8711,0.1300,-0.0233,-1038.82,0.18,187.44
1290,-3.8711,0.1366,-0.0155,648.68,1015.87,328.06
1300,-3.8711,0.1345,-0.0115,1492.43,-1984.13,234.31
1310,-3.8711,0.1274,-0.0116,1226.81,-1468.51,140.56
1320,-3.8711,0.1190,-0.0137,320.56,-1484.13,203.06
1330,-3.8711,0.1113,-0.0172,-757.57,-1749.82,609.31
1340,-3.8711,0.1066,-0.0219,-1741.94,1797.06,1124.94
1350,-3.8711,0.1064,-0.0271,1648.68,1203.31,1249.94
1360,-3.8711,0.1099,-0.0320,1633.06,531.43,812.44
1370,-3.8712,0.1135,-0.0348,-1929.44,-93.57,-31.37
1380,-3.8712,0.1158,-0.0358,-1460.69,-452.94,-1078.25
1390,-3.8712,0.1145,-0.0354,-1163.82,-577.94,-1984.50
1400,-3.8712,0.1090,-0.0344,-1335.69,-531.07,1609.25
1410,-3.8712,0.1011,-0.0333,1961.18,-406.07,1781.13
1420,-3.8712,0.0958,-0.0337,945.56,-265.44,-1703.25
1430,-3.8712,0.0967,-0.0347,273.68,-312.32,-1218.87
1440,-3.8712,0.1021,-0.0339,383.06,-437.32,-953.25
1450,-3.8712,0.1079,-0.0314,1070.56,-343.57,-781.37
1460,-3.8712,0.1110,-0.0297,1820.56,-15.44,-468.87
1470,-3.8712,0.1112,-0.0311,-1788.82,203.31,-250.06
1480,-3.8712,0.1107,-0.0341,-1757.57,15.81,-171.94
1490,-3.8712,0.1108,-0.0341,-1820.07,-359.19,-125.12
1500,-3.8712,0.1129,-0.0302,-1804.44,-359.19,-140.75
1510,-3.8712,0.1161,-0.0247,-1538.82,140.81,-250.06
1520,-3.8712,0.1179,-0.0225,-1132.57,843.93,-281.31
1530,-3.8712,0.1172,-0.0254,-898.19,1125.18,-250.06
1540,-3.8712,0.1162,-0.0297,-991.94,750.18,-281.31
1550,-3.8712,0.1189,-0.0310,-1116.94,203.31,-406.31
1560,-3.8712,0.1254,-0.0293,-773.19,31.43,-562.56
1570,-3.8712,0.1309,-0.0266,54.93,250.24,-437.56
1580,-3.8712,0.1305,-0.0269,758.06,593.99,-234.44
1590,-3.8712,0.1248,-0.0317,711.18,562.74,-156.31
1600,-3.8712,0.1161,-0.0372,-23.19,-62.32,-281.37
1610,-3.8712,0.1082,-0.0394,-1132.57,-765.44,-531.37
1620,-3.8712,0.1063,-0.0381,1851.81,-1046.69,-859.50
1630,-3.8712,0.1112,-0.0332,1617.43,-874.82,-1140.75
1640,-3.8712,0.1196,-0.0271,-1757.57,-249.82,-1109.50
1650,-3.8712,0.1272,-0.0242,-679.44,531.43,-750.06
1660,-3.8712,0.1312,-0.0262,289.31,906.49,-390.69
1670,-3.8712,0.1316,-0.0300,804.93,640.87,-171.94
1680,-3.8712,0.1282,-0.0317,851.81,156.49,-46.94
1690,-3.8712,0.1217,-0.0294,414.31,-62.26,-15.75
1700,-3.8712,0.1140,-0.0237,-413.82,234.56,-125.06
1710,-3.8712,0.1088,-0.0178,-1398.19,968.93,-359.44
1720,-3.8712,0.1072,-0.0176,1929.93,1718.93,-609.44
1730,-3.8712,0.1073,-0.0238,1726.81,1750.18,-765.69
1740,-3.8712,0.1079,-0.0299,1742.43,953.31,-984.44
1750,-3.8712,0.1085,-0.0304,1820.56,172.06,-906.31
1760,-3.8712,0.1071,-0.0256,1898.68,109.56,-312.56
1770,-3.8711,0.1017,-0.0212,1711.18,718.93,453.06
1780,-3.8711,0.0942,-0.0205,1023.68,1281.43,999.94
1790,-3.8711,0.0865,-0.0216,70.56,1375.18,984.31
1800,-3.8711,0.0818,-0.0229,-913.82,1234.50,531.19
1810,-3.8711,0.0842,-0.0221,-1523.19,1062.62,156.19
1820,-3.8711,0.0936,-0.0206,-1210.69,1172.00,31.19
1830,-3.8711,0.1031,-0.0227,-7.57,1359.50,109.31
1840,-3.8711,0.1069,-0.0278,1211.18,1093.93,390.56
1850,-3.8711,0.1031,-0.0314,1695.56,437.68,578.06
1860,-3.8711,0.0936,-0.0297,1211.18,-15.44,609.25
1870,-3.8711,0.0844,-0.0240,-7.57,203.25,515.56
1880,-3.8711,0.0798,-0.0219,-1195.07,922.00,187.44
1890,-3.8712,0.0814,-0.0254,-1773.19,1203.25,-375.06
1900,-3.8712,0.0887,-0.0308,-1570.07,750.12,-843.81
1910,-3.8712,0.0979,-0.0339,-632.57,62.62,-1156.31
1920,-3.8712,0.1035,-0.0334,539.31,-343.57,-1312.62
1930,-3.8712,0.1040,-0.0302,1258.06,-281.07,-1422.00
1940,-3.8712,0.1028,-0.0253,1320.56,140.81,-1437.56
1950,-3.8712,0.1036,-0.0220,1164.31,765.81,-1328.19
1960,-3.8712,0.1075,-0.0225,1273.68,1187.68,-1062.56
1970,-3.8712,0.1135,-0.0253,1773.68,1125.18,-750.06
1980,-3.8712,0.1208,-0.0282,-1460.69,765.81,-265.69
1990,-3.8711,0.1277,-0.0288,-523.19,390.81,421.81
2000,-3.8711,0.1301,-0.0264,351.81,312.74,906.19
2010,-3.8711,0.1270,-0.0237,664.31,625.24,999.94
2020,-3.8711,0.1216,-0.0240,258.06,968.99,687.44
2030,-3.8711,0.1189,-0.0272,-429.44,922.06,234.31
2040,-3.8712,0.1222,-0.0288,-773.19,515.81,-109.44
2050,-3.8712,0.1302,-0.0278,-351.32,312.68,-125.06
2060,-3.8712,0.1362,-0.0287,679.93,437.74,-78.19
2070,-3.8712,0.1357,-0.0331,1445.56,328.37,-187.56
2080,-3.8712,0.1307,-0.0361,1383.06,-234.13,-172.00
2090,-3.8712,0.1237,-0.0342,742.43,-624.76,-140.75
2100,-3.8712,0.1165,-0.0311,-163.82,-374.82,-187.62
2110,-3.8712,0.1119,-0.0323,-1085.69,15.81,-406.31
2120,-3.8712,0.1124,-0.0369,-1663.82,-140.44,-859.50
2130,-3.8712,0.1174,-0.0415,-1601.32,-718.57,-1343.87
2140,-3.8712,0.1233,-0.0437,-960.69,-1312.32,-1562.62
2150,-3.8712,0.1292,-0.0444,-210.69,-1593.57,-1640.75
2160,-3.8712,0.1365,-0.0470,539.31,-1687.26,-1672.00
2170,-3.8712,0.1440,-0.0503,1476.81,1984.62,-1515.75
2180,-3.8712,0.1471,-0.0491,-1554.44,1562.74,-1500.12
2190,-3.8712,0.1426,-0.0427,-1163.82,1718.99,-1656.37
2200,-3.8712,0.1332,-0.0360,-1741.94,-1468.51,-1750.12
2210,-3.8712,0.1246,-0.0325,1054.93,-609.13,-1562.62
2220,-3.8712,0.1205,-0.0317,-38.82,-156.07,-1140.75
2230,-3.8712,0.1208,-0.0322,-570.07,-62.32,-828.25
2240,-3.8712,0.1241,-0.0319,-523.19,-124.82,-468.87
2250,-3.8711,0.1283,-0.0298,-101.32,-77.94,265.50
2260,-3.8711,0.1288,-0.0267,429.93,187.74,1187.44
2270,-3.8711,0.1224,-0.0238,492.43,578.37,1953.06
2280,-3.8711,0.1113,-0.0225,-320.07,953.31,-1562.56
2290,-3.8711,0.0988,-0.0232,-1741.94,1125.18,-1390.69
2300,-3.8711,0.0889,-0.0261,648.68,1031.43,-1796.94
2310,-3.8711,0.0865,-0.0315,-616.94,656.37,1281.19
2320,-3.8711,0.0958,-0.0388,-913.82,-31.13,171.75
2330,-3.8712,0.1146,-0.0465,273.68,-968.57,-687.62
2340,-3.8712,0.1342,-0.0538,-1320.07,-1952.94,-1250.12
2350,-3.8712,0.1444,-0.0592,1179.93,1109.62,-1750.12
2360,-3.8712,0.1410,-0.0591,-1507.57,422.12,1937.38
2370,-3.8712,0.1292,-0.0533,-1945.07,437.74,1781.13
2380,-3.8712,0.1188,-0.0469,539.31,1172.12,1515.50
2390,-3.8712,0.1194,-0.0435,-788.82,-1999.82,1531.13
2400,-3.8712,0.1306,-0.0439,-710.69,-1562.32,1921.75
2410,-3.8712,0.1444,-0.0490,726.81,-1624.76,-1797.00
2420,-3.8712,0.1545,-0.0574,-1507.57,1734.62,-1859.50
2430,-3.8712,0.1567,-0.0625,-210.69,656.49,-1875.12
2440,-3.8712,0.1481,-0.0586,70.56,0.31,-1312.62
2450,-3.8712,0.1287,-0.0470,-1038.82,500.24,-531.37
2460,-3.8712,0.1068,-0.0352,476.81,1984.62,-47.00
2470,-3.8712,0.0920,-0.0311,1679.93,-499.82,-140.75
2480,-3.8712,0.0880,-0.0348,-210.69,15.75,-703.19
2490,-3.8712,0.0939,-0.0385,-726.32,-453.00,-1234.50
2500,-3.8712,0.1056,-0.0393,23.68,-921.69,-1672.00
2510,-3.8712,0.1189,-0.0396,1523.68,-1031.07,1968.63
2520,-3.8712,0.1295,-0.0421,-773.19,-1062.32,-1906.37
2530,-3.8712,0.1329,-0.0474,586.18,-1390.38,-1422.00
2540,-3.8712,0.1281,-0.0519,1023.68,1937.74,-968.87
2550,-3.8712,0.1188,-0.0502,398.68,1359.62,-453.25
2560,-3.8711,0.1104,-0.0433,-788.82,1578.31,62.38
2570,-3.8711,0.1055,-0.0383,-1866.94,-1546.69,499.88
2580,-3.8711,0.1063,-0.0380,1508.06,-906.07,843.63
2590,-3.8711,0.1116,-0.0396,1617.43,-859.19,1093.63
2600,-3.8711,0.1171,-0.0404,-1710.69,-1062.32,999.88
2610,-3.8711,0.1205,-0.0410,-1007.57,-1171.69,296.75
2620,-3.8712,0.1226,-0.0409,-570.07,-1249.82,-656.37
2630,-3.8712,0.1248,-0.0394,-304.44,-1234.19,-1187.62
2640,-3.8712,0.1268,-0.0378,-23.19,-1046.69,-1140.75
2650,-3.8712,0.1268,-0.0375,242.43,-843.51,-968.87
2660,-3.8712,0.1252,-0.0380,242.43,-796.63,-859.50
2670,-3.8712,0.1251,-0.0372,39.31,-859.13,-578.25
2680,-3.8712,0.1285,-0.0367,23.68,-765.38,-109.50
2690,-3.8711,0.1351,-0.0374,461.18,-702.88,515.50
2700,-3.8711,0.1410,-0.0374,1304.93,-781.01,1124.88
2710,-3.8711,0.1393,-0.0369,-1945.07,-781.01,1437.38
2720,-3.8711,0.1290,-0.0361,1836.18,-718.51,1140.50
2730,-3.8711,0.1189,-0.0356,523.68,-624.76,374.88
2740,-3.8712,0.1161,-0.0388,-773.19,-562.32,-375.12
2750,-3.8712,0.1216,-0.0443,-1132.57,-968.57,-1000.12
2760,-3.8712,0.1322,-0.0466,-429.44,-1671.69,-1515.75
2770,-3.8712,0.1416,-0.0449,929.93,-1968.51,-1640.75
2780,-3.8712,0.1417,-0.0437,-1866.94,-1749.76,-1312.62
2790,-3.8712,0.1296,-0.0461,-1851.32,-1593.51,-859.50
2800,-3.8712,0.1110,-0.0493,601.81,-1906.01,-687.62
2810,-3.8712,0.0973,-0.0490,-1788.82,1687.68,-828.25
2820,-3.8712,0.0952,-0.0441,461.18,1734.56,-1093.87
2830,-3.8712,0.1036,-0.0378,195.56,-1640.44,-1265.75
2840,-3.8712,0.1165,-0.0363,1273.68,-843.57,-1265.75
2850,-3.8712,0.1257,-0.0387,-1085.69,-640.44,-1078.25
2860,-3.8712,0.1278,-0.0405,101.81,-952.88,-781.37
2870,-3.8712,0.1244,-0.0394,367.43,-1187.26,-500.12
2880,-3.8712,0.1180,-0.0365,-70.07,-1046.69,-312.62
2890,-3.8712,0.1130,-0.0341,-882.57,-671.69,-297.00
2900,-3.8712,0.1141,-0.0327,-1523.19,-359.19,-593.87
2910,-3.8712,0.1234,-0.0327,-1382.57,-187.32,-1187.62
2920,-3.8712,0.1404,-0.0350,-195.07,-187.32,-1765.75
2930,-3.8712,0.1593,-0.0400,1976.81,-484.13,1890.50
2940,-3.8712,0.1708,-0.0464,398.68,-1124.69,1749.88
2950,-3.8712,0.1715,-0.0535,1867.43,-1937.19,1796.75
2960,-3.8712,0.1665,-0.0581,1961.18,1156.56,-1578.25
2970,-3.8712,0.1615,-0.0579,1320.56,562.81,-422.00
2980,-3.8711,0.1592,-0.0558,679.93,594.06,593.63
2990,-3.8711,0.1604,-0.0553,383.06,859.68,1203.00
3000,-3.8711,0.1620,-0.0563,539.31,922.18,1249.88
3010,-3.8711,0.1622,-0.0576,742.43,797.18,812.38
3020,-3.8711,0.1655,-0.0593,773.68,625.31,62.38
3030,-3.8712,0.1732,-0.0620,1195.56,406.56,-843.87
3040,-3.8712,0.1819,-0.0647,-1820.07,62.81,-1687.62
3050,-3.8712,0.1879,-0.0652,-710.69,-280.94,1624.82
3060,-3.8712,0.1855,-0.0634,54.93,-343.38,1249.82
3070,-3.8712,0.1740,-0.0593,-241.94,-109.07,1374.82
3080,-3.8712,0.1564,-0.0535,-1726.32,406.56,1843.63
3090,-3.8712,0.1375,-0.0475,23.68,1156.56,-1750.12
3100,-3.8712,0.1222,-0.0427,1601.81,1922.12,-1687.62
3110,-3.8712,0.1157,-0.0392,-351.32,-1468.57,-1687.62
3120,-3.8712,0.1184,-0.0371,-1179.44,-1015.44,-1437.62
3130,-3.8712,0.1259,-0.0374,-835.69,-749.82,-1015.75
3140,-3.8712,0.1360,-0.0381,117.43,-781.01,-484.50
3150,-3.8712,0.1448,-0.0376,1414.31,-874.76,-93.87
3160,-3.8712,0.1483,-0.0388,-1460.69,-812.26,-78.25
3170,-3.8712,0.1469,-0.0414,-1007.57,-968.51,-437.62
3180,-3.8712,0.1431,-0.0420,-1195.07,-1296.63,-1093.87
3190,-3.8712,0.1399,-0.0405,-1679.44,-1374.76,-1875.12
3200,-3.8712,0.1370,-0.0399,1914.31,-1187.26,1578.00
3210,-3.8712,0.1331,-0.0410,1539.31,-1109.13,1437.38
3220,-3.8712,0.1279,-0.0436,1039.31,-1249.76,1531.13
3230,-3.8712,0.1233,-0.0463,383.06,-1577.88,1703.00
3240,-3.8712,0.1191,-0.0452,-210.69,-1921.69,-1687.62
3250,-3.8712,0.1132,-0.0398,-741.94,-1781.07,-484.50
3260,-3.8711,0.1021,-0.0338,-1507.57,-1093.57,656.13
3270,-3.8711,0.0867,-0.0280,1070.56,-327.94,1562.38
3280,-3.8711,0.0707,-0.0206,-898.19,422.00,-1765.69
3290,-3.8711,0.0579,-0.0137,1054.93,1359.50,-1609.44
3300,-3.8711,0.0502,-0.0104,-585.69,-1749.94,-1859.44
3310,-3.8711,0.0492,-0.0105,-1570.07,-1328.06,-1968.81
3320,-3.8711,0.0543,-0.0133,-1695.07,-1343.69,1937.44
3330,-3.8711,0.0635,-0.0177,-1038.82,-1703.06,1578.06
3340,-3.8711,0.0742,-0.0205,133.06,1734.50,1203.06
3350,-3.8711,0.0841,-0.0223,1508.06,1375.12,859.31
3360,-3.8711,0.0911,-0.0262,-1226.32,1140.75,515.56
3370,-3.8711,0.0942,-0.0327,-335.69,640.75,328.06
3380,-3.8711,0.0956,-0.0392,70.56,-187.32,234.25
3390,-3.8711,0.0956,-0.0437,242.43,-1015.44,62.38
3400,-3.8712,0.0945,-0.0458,242.43,-1593.57,-218.87
3410,-3.8712,0.0945,-0.0454,101.81,-1859.19,-500.12
3420,-3.8712,0.0967,-0.0439,101.81,-1812.32,-703.25
3430,-3.8712,0.1002,-0.0458,383.06,-1624.82,-797.00
3440,-3.8712,0.1055,-0.0527,836.18,-1859.19,-843.87
3450,-3.8712,0.1121,-0.0623,1508.06,1250.18,-906.37
3460,-3.8712,0.1206,-0.0696,-1648.19,31.43,-1015.75
3470,-3.8712,0.1316,-0.0718,-554.44,-906.07,-1203.31
3480,-3.8712,0.1421,-0.0699,851.81,-1187.26,-1515.81
3490,-3.8712,0.1484,-0.0671,-1804.44,-952.88,-1843.93
3500,-3.8712,0.1490,-0.0656,-991.94,-593.51,1640.44
3510,-3.8712,0.1443,-0.0648,-913.82,-390.38,796.69
3520,-3.8713,0.1379,-0.0626,-1523.19,-296.63,-78.31
3530,-3.8713,0.1345,-0.0580,1664.31,-15.38,-531.43
3540,-3.8713,0.1367,-0.0513,1226.81,578.37,-468.87
3550,-3.8712,0.1449,-0.0453,1508.06,1437.74,46.75
3560,-3.8712,0.1545,-0.0413,-1445.07,-1796.63,984.25
3570,-3.8712,0.1598,-0.0388,-210.69,-1281.01,-1906.37
3580,-3.8712,0.1586,-0.0350,461.18,-968.44,-890.75
3590,-3.8712,0.1521,-0.0292,304.93,-484.07,-15.75
3600,-3.8711,0.1429,-0.0229,-523.19,265.87,749.94
3610,-3.8711,0.1333,-0.0172,-1695.07,1062.74,1437.44
3620,-3.8711,0.1250,-0.0139,1070.56,1797.12,-1953.19
3630,-3.8711,0.1193,-0.0132,8.06,-1781.01,-1500.06
3640,-3.8711,0.1143,-0.0138,-726.32,-1687.32,-1046.94
3650,-3.8711,0.1089,-0.0168,-1366.94,-1765.44,-593.81
3660,-3.8711,0.1047,-0.0233,1945.56,1843.93,-359.44
3670,-3.8711,0.1038,-0.0298,1414.31,1015.81,-593.81
3680,-3.8711,0.1061,-0.0342,1289.31,187.68,-1265.69
3690,-3.8711,0.1086,-0.0386,1586.18,-374.82,1671.75
3700,-3.8711,0.1094,-0.0441,1914.31,-937.32,437.38
3710,-3.8712,0.1105,-0.0507,-1991.94,-1640.44,-734.50
3720,-3.8712,0.1129,-0.0583,-1851.32,1515.81,-1797.00
3730,-3.8712,0.1141,-0.0642,-1538.82,531.43,1328.00
3740,-3.8712,0.1118,-0.0664,-1382.57,-218.57,765.44
3750,-3.8712,0.1063,-0.0658,-1679.44,-499.82,562.32
3760,-3.8712,0.1007,-0.0636,1617.43,-421.69,546.69
3770,-3.8712,0.0981,-0.0604,898.68,-140.44,624.82
3780,-3.8712,0.0994,-0.0549,570.56,265.81,734.25
3790,-3.8712,0.1038,-0.0492,726.81,968.93,1062.38
3800,-3.8712,0.1093,-0.0422,1289.31,1703.31,1593.63
3810,-3.8712,0.1156,-0.0343,1992.43,-1406.07,-1906.37
3820,-3.8712,0.1249,-0.0308,-1195.07,-390.44,-1156.37
3830,-3.8712,0.1311,-0.0258,-7.57,62.68,-234.44
3840,-3.8711,0.1289,-0.0167,789.31,703.37,468.69
3850,-3.8711,0.1249,-0.0101,508.06,1859.62,1265.56
3860,-3.8711,0.1257,-0.0098,-7.57,-1296.69,-1875.06
3870,-3.8711,0.1298,-0.0155,101.81,-1249.76,-1281.31
3880,-3.8711,0.1316,-0.0217,617.43,-1984.13,-1000.06
3890,-3.8711,0.1294,-0.0261,851.81,1218.99,-1031.31
3900,-3.8711,0.1255,-0.0310,570.56,656.49,-1390.69
3910,-3.8711,0.1226,-0.0376,70.56,31.49,1843.69
3920,-3.8711,0.1227,-0.0448,-304.44,-812.32,812.38
3930,-3.8712,0.1257,-0.0511,-288.82,-1734.19,-343.87
3940,-3.8712,0.1287,-0.0553,101.81,1453.37,-1422.00
3950,-3.8712,0.1298,-0.0576,476.81,922.12,1796.75
3960,-3.8712,0.1301,-0.0582,617.43,625.24,1218.63
3970,-3.8712,0.1302,-0.0585,664.31,547.12,734.25
3980,-3.8712,0.1315,-0.0574,679.93,515.87,484.25
3990,-3.8712,0.1344,-0.0552,836.18,656.49,624.88
4000,-3.8712,0.1377,-0.0554,1211.18,937.74,968.63
4010,-3.8712,0.1399,-0.0569,1633.06,906.49,1390.50
4020,-3.8712,0.1406,-0.0564,1914.31,718.99,1687.38
4030,-3.8712,0.1403,-0.0531,-1991.94,781.49,1843.63
4040,-3.8712,0.1389,-0.0471,1961.18,1203.37,1999.88
4050,-3.8712,0.1367,-0.0408,1789.31,1968.99,-1609.50
4060,-3.8712,0.1337,-0.0391,1508.06,-1218.51,-937.62
4070,-3.8712,0.1328,-0.0432,1117.43,-999.76,-328.25
4080,-3.8711,0.1383,-0.0481,1008.06,-1531.01,78.00
4090,-3.8711,0.1500,-0.0494,1711.18,1843.99,343.63
4100,-3.8711,0.1620,-0.0465,-788.82,1672.12,593.63
4110,-3.8711,0.1652,-0.0417,742.43,-1952.82,812.38
4120,-3.8711,0.1560,-0.0389,1148.68,-1343.44,1015.50
4130,-3.8711,0.1425,-0.0392,-23.19,-984.13,968.63
4140,-3.8711,0.1343,-0.0427,-1757.57,-1015.38,531.13
4150,-3.8711,0.1349,-0.0479,1195.56,-1468.51,31.13
4160,-3.8712,0.1417,-0.0503,1273.68,1875.24,-547.00
4170,-3.8712,0.1469,-0.0480,-1851.32,1562.74,-1203.25
4180,-3.8712,0.1432,-0.0432,-1195.07,1859.62,-1906.37
4190,-3.8712,0.1321,-0.0392,-1663.82,-1531.01,1406.13
4200,-3.8712,0.1210,-0.0375,914.31,-1015.38,999.88
4210,-3.8712,0.1138,-0.0360,-507.57,-796.69,999.88
4220,-3.8712,0.1110,-0.0337,-1429.44,-609.19,1609.25
4230,-3.8712,0.1122,-0.0312,-1788.82,-312.32,-1187.62
4240,-3.8711,0.1155,-0.0317,-1632.57,0.18,187.44
4250,-3.8711,0.1198,-0.0371,-1210.69,-62.32,1328.00
4260,-3.8711,0.1241,-0.0437,-663.82,-749.82,1984.25
4270,-3.8711,0.1276,-0.0468,-101.32,-1593.57,-1843.87
4280,-3.8711,0.1282,-0.0439,336.18,-1984.13,1968.63
4290,-3.8711,0.1265,-0.0391,414.31,-1624.76,1593.63
4300,-3.8711,0.1249,-0.0380,195.56,-999.76,1078.00
4310,-3.8711,0.1260,-0.0425,-7.57,-859.19,406.13
4320,-3.8712,0.1304,-0.0493,133.06,-1437.26,-406.37
4330,-3.8712,0.1357,-0.0526,695.56,1687.74,-1234.50
4340,-3.8712,0.1405,-0.0522,1383.06,1265.87,-1890.75
4350,-3.8712,0.1465,-0.0516,1992.43,1312.74,1749.88
4360,-3.8712,0.1538,-0.0526,-1241.94,1390.87,1593.63
4370,-3.8712,0.1605,-0.0549,-304.44,1265.87,1281.13
4380,-3.8712,0.1643,-0.0555,554.93,969.06,921.75
4390,-3.8712,0.1650,-0.0530,1039.31,890.93,859.25
4400,-3.8712,0.1648,-0.0488,1133.06,1219.06,1171.75
4410,-3.8712,0.1632,-0.0481,1101.81,1750.31,1749.88
4420,-3.8712,0.1600,-0.0525,898.68,1844.06,-1625.12
4430,-3.8712,0.1583,-0.0546,492.43,1281.56,-1140.75
4440,-3.8712,0.1604,-0.0502,273.68,1015.93,-672.00
4450,-3.8712,0.1643,-0.0437,539.31,1578.43,-265.75
4460,-3.8712,0.1670,-0.0408,1039.31,-1593.44,-93.87
4470,-3.8712,0.1682,-0.0435,1383.06,-1218.44,-109.50
4480,-3.8712,0.1666,-0.0481,1539.31,-1562.19,-265.75
4490,-3.8712,0.1606,-0.0500,1336.18,1844.06,-468.87
4500,-3.8712,0.1519,-0.0487,570.56,1594.06,-672.00
4510,-3.8712,0.1421,-0.0474,-554.44,1765.87,-765.75
4520,-3.8712,0.1345,-0.0485,-1804.44,1937.74,-859.50
4530,-3.8712,0.1321,-0.0505,1226.81,1797.12,-1078.25
4540,-3.8712,0.1340,-0.0514,914.31,1531.49,-1281.37
4550,-3.8712,0.1368,-0.0503,1164.31,1422.12,-1390.75
4560,-3.8712,0.1388,-0.0494,1523.68,1562.74,-1422.00
4570,-3.8712,0.1390,-0.0510,1773.68,1672.12,-1437.62
4580,-3.8712,0.1381,-0.0536,1804.93,1468.99,-1281.37
4590,-3.8712,0.1377,-0.0540,1679.93,1140.87,-1125.12
4600,-3.8712,0.1378,-0.0510,1633.06,1093.99,-1156.37
4610,-3.8712,0.1372,-0.0477,1648.68,1468.99,-1109.50
4620,-3.8712,0.1382,-0.0476,1570.56,1890.87,-1031.37
4630,-3.8712,0.1426,-0.0511,1695.56,1906.49,-1047.00
4640,-3.8712,0.1501,-0.0555,-1741.94,1453.37,-1218.87
4650,-3.8712,0.1573,-0.0582,-773.19,890.87,-1468.87
4660,-3.8712,0.1598,-0.0575,148.68,547.18,-1453.25
4670,-3.8712,0.1559,-0.0542,461.18,640.93,-1234.50
4680,-3.8712,0.1479,-0.0527,-38.82,1062.74,-1140.75
4690,-3.8712,0.1411,-0.0532,-1054.44,1250.24,-1281.37
4700,-3.8712,0.1393,-0.0522,-1929.44,1187.74,-1312.62
4710,-3.8712,0.1426,-0.0505,1836.18,1312.74,-1000.12
4720,-3.8712,0.1487,-0.0522,-1741.94,1531.49,-640.75
4730,-3.8712,0.1538,-0.0574,-960.69,1312.74,-437.62
4740,-3.8712,0.1541,-0.0604,-304.44,656.49,-250.12
4750,-3.8712,0.1481,-0.0587,-273.19,265.87,-109.50
4760,-3.8712,0.1373,-0.0552,-1038.82,484.62,-234.50
4770,-3.8712,0.1263,-0.0531,1586.18,937.74,-515.75
4780,-3.8712,0.1213,-0.0531,179.93,1203.37,-890.75
4790,-3.8712,0.1252,-0.0536,-460.69,1203.31,-1390.75
4800,-3.8712,0.1345,-0.0537,39.31,1140.87,-1625.12
4810,-3.8712,0.1417,-0.0538,1226.81,1125.24,-1625.12
4820,-3.8712,0.1432,-0.0536,-1851.32,1109.62,-1562.62
4830,-3.8712,0.1395,-0.0522,-1663.82,1140.87,-1359.50
4840,-3.8712,0.1344,-0.0521,1867.43,1312.74,-906.37
4850,-3.8712,0.1311,-0.0553,1211.18,1328.37,-593.87
4860,-3.8712,0.1328,-0.0577,789.31,922.12,-515.75
4870,-3.8712,0.1381,-0.0571,1008.06,609.62,-390.75
4880,-3.8712,0.1398,-0.0557,1679.93,687.74,-312.62
4890,-3.8712,0.1346,-0.0558,1898.68,875.24,-343.87
4900,-3.8712,0.1278,-0.0570,1242.43,859.62,-531.37
4910,-3.8712,0.1223,-0.0563,367.43,703.37,-859.50
4920,-3.8712,0.1202,-0.0535,-335.69,797.06,-1406.37
4930,-3.8712,0.1232,-0.0503,-601.32,1156.43,-1781.37
4940,-3.8712,0.1282,-0.0498,-226.32,1562.68,-1765.75
4950,-3.8712,0.1321,-0.0527,414.31,1625.24,-1547.00
4960,-3.8712,0.1335,-0.0571,914.31,1250.24,-1203.25
4970,-3.8712,0.1323,-0.0601,1101.81,687.74,-906.37
4980,-3.8712,0.1306,-0.0594,945.56,312.74,-750.12
4990,-3.8712,0.1304,-0.0573,726.81,390.87,-562.62
5000,-3.8712,0.1322,-0.0558,695.56,672.12,-375.12
5010,-3.8712,0.1349,-0.0553,929.93,859.62,-297.00
5020,-3.8712,0.1362,-0.0557,1273.68,922.12,-281.37
5030,-3.8712,0.1337,-0.0553,1445.56,875.24,-281.37
5040,-3.8712,0.1276,-0.0535,1117.43,922.12,-406.37
5050,-3.8712,0.1188,-0.0508,336.18,1156.49,-562.62
5060,-3.8712,0.1108,-0.0496,-788.82,1500.18,-703.25
5070,-3.8712,0.1090,-0.0513,-1804.44,1656.43,-890.75
5080,-3.8712,0.1146,-0.0532,1961.18,1437.68,-1156.37
5090,-3.8712,0.1257,-0.0536,-1320.07,1187.68,-1375.12
5100,-3.8712,0.1373,-0.0537,101.81,1140.87,-1390.75
5110,-3.8712,0.1428,-0.0546,1586.18,1125.24,-1265.75
5120,-3.8712,0.1407,-0.0551,-1710.69,1015.87,-1062.62
5130,-3.8712,0.1348,-0.0547,-1976.32,953.37,-797.00
5140,-3.8712,0.1302,-0.0546,1258.06,1000.24,-625.12
5150,-3.8712,0.1292,-0.0551,679.93,1015.87,-593.87
5160,-3.8712,0.1307,-0.0546,539.31,953.37,-640.75
5170,-3.8712,0.1339,-0.0549,742.43,1015.87,-890.75
5180,-3.8712,0.1375,-0.0571,1148.68,968.99,-1172.00
5190,-3.8712,0.1401,-0.0576,1601.81,687.74,-1297.00
5200,-3.8712,0.1406,-0.0547,1945.56,625.24,-1250.12
5210,-3.8712,0.1381,-0.0508,-1991.94,1000.24,-953.25
5220,-3.8712,0.1331,-0.0488,1679.93,1500.24,-453.25
5230,-3.8712,0.1287,-0.0486,1039.31,1750.24,-93.87
5240,-3.8711,0.1267,-0.0466,476.81,1781.49,78.00
5250,-3.8711,0.1276,-0.0442,226.81,-1968.51,156.13
5260,-3.8711,0.1298,-0.0446,336.18,-1656.01,203.00
5270,-3.8711,0.1302,-0.0474,617.43,-1702.88,312.38
5280,-3.8711,0.1283,-0.0516,679.93,1937.74,328.00
5290,-3.8711,0.1230,-0.0558,429.93,1390.87,46.75
5300,-3.8712,0.1152,-0.0574,-241.94,859.56,-453.25
5310,-3.8712,0.1091,-0.0560,-1241.94,656.43,-1062.62
5320,-3.8712,0.1095,-0.0547,1976.81,828.31,-1437.62
5330,-3.8712,0.1150,-0.0557,-1976.32,1000.18,-1562.62
5340,-3.8712,0.1207,-0.0597,-1273.19,875.18,-1656.37
5350,-3.8712,0.1241,-0.0649,-538.82,359.56,-1890.75
5360,-3.8712,0.1265,-0.0674,-101.32,-312.32,1843.57
5370,-3.8712,0.1298,-0.0641,195.56,-624.76,1687.32
5380,-3.8712,0.1332,-0.0563,617.43,-202.88,1827.94
5390,-3.8712,0.1350,-0.0492,1054.93,797.12,-1718.87
5400,-3.8712,0.1351,-0.0482,1289.31,1703.37,-1218.87
5410,-3.8712,0.1365,-0.0527,1304.93,1828.37,-922.00
5420,-3.8712,0.1420,-0.0569,1476.81,1250.24,-906.37
5430,-3.8712,0.1510,-0.0554,-1820.07,718.99,-953.25
5440,-3.8712,0.1578,-0.0497,-663.82,906.49,-765.75
5450,-3.8712,0.1567,-0.0468,211.18,1640.93,-297.00
5460,-3.8711,0.1476,-0.0494,70.56,-1984.07,46.75
5470,-3.8711,0.1375,-0.0555,-1101.32,1672.12,62.38
5480,-3.8712,0.1340,-0.0607,1601.81,890.87,-265.75
5490,-3.8712,0.1382,-0.0610,1164.31,234.62,-812.62
5500,-3.8712,0.1448,-0.0588,1695.56,187.74,-1328.25
5510,-3.8712,0.1500,-0.0576,-1460.69,468.99,-1562.62
5520,-3.8712,0.1526,-0.0588,-788.82,625.24,-1593.87
5530,-3.8712,0.1504,-0.0609,-460.69,468.99,-1578.25
5540,-3.8712,0.1420,-0.0601,-741.94,203.37,-1375.12
5550,-3.8712,0.1272,-0.0563,-1820.07,312.74,-1000.12
5560,-3.8712,0.1117,-0.0537,289.31,797.12,-656.37
5570,-3.8712,0.1035,-0.0536,-1695.07,1125.18,-437.62
5580,-3.8712,0.1064,-0.0541,1258.06,1140.81,-312.62
5590,-3.8712,0.1154,-0.0553,1633.06,1078.31,-359.50
5600,-3.8712,0.1228,-0.0555,-1226.32,922.06,-531.37
5610,-3.8712,0.1246,-0.0530,-273.19,890.81,-687.62
5620,-3.8712,0.1204,-0.0491,-38.82,1218.93,-797.00
5630,-3.8712,0.1108,-0.0442,-585.69,1718.93,-750.12
5640,-3.8712,0.0975,-0.0392,-1804.44,-1656.07,-484.50
5650,-3.8712,0.0839,-0.0361,492.43,-1015.44,-359.50
5660,-3.8712,0.0747,-0.0363,-1257.57,-624.88,-484.50
5670,-3.8712,0.0758,-0.0389,1570.56,-640.50,-687.62
5680,-3.8712,0.0868,-0.0415,1711.18,-984.25,-718.87
5690,-3.8712,0.1019,-0.0432,-882.57,-1312.38,-547.00
5700,-3.8712,0.1145,-0.0450,1054.93,-1531.07,-265.75
5710,-3.8711,0.1213,-0.0465,-1335.69,-1765.44,62.38
5720,-3.8711,0.1230,-0.0464,-460.69,-1952.94,374.88
5730,-3.8711,0.1222,-0.0457,-241.94,-1937.32,718.63
5740,-3.8711,0.1210,-0.0454,-351.32,-1843.57,890.50
5750,-3.8711,0.1193,-0.0455,-507.57,-1812.32,796.75
5760,-3.8711,0.1166,-0.0455,-726.32,-1827.94,624.88
5770,-3.8711,0.1152,-0.0472,-1070.07,-1827.94,281.13
5780,-3.8712,0.1200,-0.0505,-1241.94,1953.31,-234.50
5790,-3.8712,0.1315,-0.0551,-632.57,1531.43,-812.62
5800,-3.8712,0.1454,-0.0598,836.18,953.37,-1312.62
5810,-3.8712,0.1576,-0.0640,-1382.57,343.99,-1797.00
5820,-3.8712,0.1650,-0.0658,179.93,-187.19,1874.82
5830,-3.8712,0.1661,-0.0642,1133.06,-421.57,1765.44
5840,-3.8712,0.1625,-0.0615,1273.68,-218.44,1859.19
5850,-3.8712,0.1578,-0.0610,804.93,125.31,-1828.25
5860,-3.8712,0.1558,-0.0630,211.18,187.81,-1593.87
5870,-3.8712,0.1562,-0.0651,-54.44,-62.26,-1422.06
5880,-3.8712,0.1578,-0.0654,8.06,-327.82,-1140.81
5890,-3.8712,0.1606,-0.0646,211.18,-374.69,-937.68
5900,-3.8712,0.1642,-0.0634,570.56,-265.32,-968.93
5910,-3.8712,0.1664,-0.0624,1023.68,-109.07,-1109.56
5920,-3.8712,0.1642,-0.0614,1304.93,15.93,-1297.00
5930,-3.8712,0.1575,-0.0576,1023.68,140.93,-1453.25
5940,-3.8712,0.1455,-0.0508,164.31,625.31,-1437.62
5950,-3.8712,0.1305,-0.0446,-1366.94,1500.24,-1312.62
5960,-3.8712,0.1199,-0.0420,711.18,-1702.88,-1281.37
5970,-3.8712,0.1198,-0.0426,-648.19,-1374.82,-1406.37
5980,-3.8712,0.1295,-0.0443,-663.82,-1452.94,-1515.75
5990,-3.8712,0.1411,-0.0449,586.18,-1671.63,-1437.62
6000,-3.8712,0.1447,-0.0428,-1929.44,-1749.76,-1265.75
6010,-3.8712,0.1371,-0.0387,-1476.32,-1484.13,-1000.12
6020,-3.8712,0.1226,-0.0331,1554.93,-952.88,-593.87
6030,-3.8712,0.1078,-0.0276,-304.44,-234.19,-109.50
6040,-3.8711,0.0984,-0.0250,1804.93,468.93,499.94
6050,-3.8711,0.0970,-0.0278,601.81,797.06,1078.06
6060,-3.8711,0.1021,-0.0338,429.93,437.68,1437.44
6070,-3.8711,0.1086,-0.0371,1070.56,-327.94,1671.75
6080,-3.8711,0.1097,-0.0364,1914.31,-749.82,1749.88
6090,-3.8711,0.1034,-0.0361,-1945.07,-656.07,1578.00
6100,-3.8711,0.0948,-0.0399,1242.43,-624.82,1171.75
6110,-3.8711,0.0898,-0.0464,148.68,-1109.19,515.50
6120,-3.8712,0.0900,-0.0511,-491.94,-1937.38,-250.12
6130,-3.8712,0.0939,-0.0519,-476.32,1453.25,-984.50
6140,-3.8712,0.0983,-0.0507,23.68,1359.56,-1531.37
6150,-3.8712,0.1018,-0.0497,586.18,1515.81,-1984.50
6160,-3.8712,0.1051,-0.0514,1039.31,1640.81,1609.25
6170,-3.8712,0.1100,-0.0558,1461.18,1422.06,1562.38
6180,-3.8712,0.1161,-0.0591,-1913.82,859.56,1937.38
6190,-3.8712,0.1195,-0.0591,-1132.57,437.68,-1625.12
6200,-3.8712,0.1205,-0.0568,-695.07,437.68,-1172.00
6210,-3.8712,0.1216,-0.0538,-570.07,734.56,-672.00
6220,-3.8712,0.1243,-0.0532,-429.44,1109.56,-203.25
6230,-3.8711,0.1282,-0.0555,-85.69,1187.68,46.75
6240,-3.8711,0.1335,-0.0579,414.31,890.87,62.38
6250,-3.8712,0.1432,-0.0582,1101.81,593.99,-109.50
6260,-3.8712,0.1572,-0.0576,-1663.82,547.12,-265.75
6270,-3.8712,0.1705,-0.0588,133.06,625.31,-250.12
6280,-3.8712,0.1769,-0.0613,1836.18,469.06,-328.25
6290,-3.8712,0.1742,-0.0623,-1351.32,156.56,-672.00
6300,-3.8712,0.1658,-0.0619,-1695.07,31.56,-1109.50
6310,-3.8712,0.1587,-0.0603,1226.81,78.43,-1515.75
6320,-3.8712,0.1564,-0.0587,320.56,281.56,-1984.50
6330,-3.8712,0.1602,-0.0574,23.68,484.68,1609.25
6340,-3.8712,0.1677,-0.0553,508.06,656.56,1562.38
6350,-3.8712,0.1732,-0.0513,1476.81,922.18,-1922.00
6360,-3.8712,0.1718,-0.0482,-1820.07,1437.81,-1234.50
6370,-3.8712,0.1626,-0.0479,1992.43,1828.43,-1093.87
6380,-3.8712,0.1516,-0.0452,820.56,1875.31,-1265.75
6390,-3.8712,0.1416,-0.0402,-585.69,-1781.01,-1250.12
6400,-3.8712,0.1301,-0.0370,-1866.94,-1140.38,-1093.87
6410,-3.8712,0.1179,-0.0369,664.31,-734.13,-828.25
6420,-3.8712,0.1097,-0.0396,-898.19,-718.57,-578.25
6430,-3.8712,0.1062,-0.0432,-1945.07,-1062.32,-515.75
6440,-3.8712,0.1063,-0.0449,1601.81,-1531.07,-453.25
6450,-3.8712,0.1090,-0.0441,1617.43,-1749.82,-15.75
6460,-3.8711,0.1105,-0.0448,1961.18,-1640.44,390.50
6470,-3.8711,0.1112,-0.0492,-1851.32,-1734.19,515.50
6480,-3.8711,0.1135,-0.0525,-1757.57,1703.31,687.38
6490,-3.8711,0.1152,-0.0518,-1460.69,1281.43,937.38
6500,-3.8711,0.1133,-0.0483,-1241.94,1375.18,1171.75
6510,-3.8711,0.1099,-0.0449,-1491.94,1812.68,1203.00
6520,-3.8711,0.1072,-0.0433,-1929.44,-1749.82,1187.38
6530,-3.8711,0.1018,-0.0449,1726.81,-1546.69,812.38
6540,-3.8711,0.0936,-0.0460,1039.31,-1749.82,93.63
6550,-3.8712,0.0858,-0.0438,-7.57,-1890.50,-390.75
6560,-3.8712,0.0782,-0.0424,-1007.57,-1609.25,-797.00
6570,-3.8712,0.0728,-0.0446,-1976.32,-1421.75,-1390.75
6580,-3.8712,0.0756,-0.0476,1320.56,-1703.00,1921.75
6590,-3.8712,0.0868,-0.0500,1679.93,1906.37,1343.63
6600,-3.8712,0.0989,-0.0536,-882.57,1593.87,1109.25
6610,-3.8712,0.1049,-0.0573,664.31,1140.81,1390.50
6620,-3.8712,0.1041,-0.0590,1429.93,672.06,1953.00
6630,-3.8712,0.1013,-0.0596,1336.18,453.31,-1578.25
6640,-3.8712,0.1018,-0.0619,976.81,375.18,-1359.50
6650,-3.8712,0.1101,-0.0654,1039.31,78.31,-1297.00
6660,-3.8712,0.1208,-0.0645,-1898.19,-374.82,-1140.81
6670,-3.8712,0.1260,-0.0576,-523.19,-249.82,-703.31
6680,-3.8712,0.1211,-0.0536,133.06,625.24,-250.12
6690,-3.8712,0.1074,-0.0568,-491.94,1140.81,-312.62
6700,-3.8712,0.0939,-0.0592,1758.06,734.56,-640.75
6710,-3.8712,0.0869,-0.0542,23.68,422.06,-890.75
6720,-3.8712,0.0872,-0.0454,-866.94,1062.62,-984.50
6730,-3.8712,0.0934,-0.0393,-835.69,-1812.38,-1000.12
6740,-3.8712,0.1050,-0.0393,-38.82,-1031.13,-906.37
6750,-3.8712,0.1178,-0.0421,1445.56,-1031.07,-609.50
6760,-3.8712,0.1246,-0.0405,-913.82,-1390.44,-93.87
6770,-3.8711,0.1222,-0.0325,-38.82,-1187.32,578.00
6780,-3.8711,0.1112,-0.0244,-351.32,-156.07,1531.13
6790,-3.8711,0.0941,-0.0220,-1757.57,875.18,-1218.81
6800,-3.8711,0.0773,-0.0248,54.93,1187.68,-359.44
6810,-3.8711,0.0697,-0.0293,1898.68,828.25,-171.94
6820,-3.8711,0.0762,-0.0334,929.93,250.12,-562.56
6830,-3.8711,0.0920,-0.0365,1758.06,-281.13,-1265.75
6840,-3.8711,0.1073,-0.0391,-210.69,-671.75,-1922.00
6850,-3.8711,0.1166,-0.0446,1742.43,-999.82,1296.75
6860,-3.8711,0.1195,-0.0555,-1070.07,-1702.94,359.25
6870,-3.8712,0.1205,-0.0663,-695.07,890.81,-562.62
6880,-3.8712,0.1232,-0.0677,-570.07,-484.19,-1203.31
6890,-3.8712,0.1252,-0.0618,-226.32,-671.69,-1312.68
6900,-3.8712,0.1215,-0.0597,39.31,93.99,-1390.75
6910,-3.8712,0.1128,-0.0670,-445.07,359.56,-1890.75
6920,-3.8712,0.1073,-0.0774,-1554.44,-577.94,1327.94
6930,-3.8712,0.1084,-0.0848,1742.43,-1906.07,499.82
6940,-3.8713,0.1146,-0.0868,1883.06,1140.81,-187.68
6950,-3.8713,0.1194,-0.0840,-1320.07,890.81,-609.56
6960,-3.8713,0.1155,-0.0807,-710.69,1250.18,-781.43
6970,-3.8713,0.1044,-0.0773,-1210.69,1672.06,-781.43
6980,-3.8713,0.0953,-0.0706,1367.43,-1890.44,-515.81
6990,-3.8712,0.0967,-0.0615,211.18,-1031.07,218.57
7000,-3.8712,0.1090,-0.0551,383.06,125.18,1765.50
7010,-3.8712,0.1227,-0.0508,1961.18,953.31,-62.62
7020,-3.8711,0.1251,-0.0441,-288.82,1500.18,1999.88
7030,-3.8711,0.1140,-0.0348,23.68,-1640.38,-453.25
7040,-3.8710,0.0961,-0.0266,-1398.19,-452.94,406.13
7050,-3.8710,0.0817,-0.0222,304.93,593.93,640.56
7060,-3.8710,0.0754,-0.0215,-1538.82,1156.37,374.94
7070,-3.8711,0.0760,-0.0237,1664.31,1250.12,-640.69
7080,-3.8711,0.0818,-0.0278,1742.43,968.87,1812.44
7090,-3.8711,0.0907,-0.0331,-1523.19,437.62,281.19
7100,-3.8712,0.0996,-0.0389,-382.57,-234.25,-875.12
7110,-3.8712,0.1029,-0.0433,758.06,-984.19,-1375.12
7120,-3.8712,0.0950,-0.0437,1179.93,-1546.69,-1312.62
7130,-3.8712,0.0759,-0.0413,164.31,-1593.57,-843.87
7140,-3.8712,0.0533,-0.0411,1726.81,-1281.13,-172.00
7150,-3.8711,0.0376,-0.0438,-1163.82,-1265.56,421.75
7160,-3.8711,0.0353,-0.0479,820.56,-1609.31,546.75
7170,-3.8711,0.0460,-0.0531,523.68,1875.06,109.25
7180,-3.8712,0.0654,-0.0592,1898.68,1203.19,-656.37
7190,-3.8712,0.0868,-0.0665,383.06,422.00,-1390.75
7200,-3.8712,0.1017,-0.0729,-882.57,-515.50,-1937.68
7210,-3.8712,0.1041,-0.0731,1023.68,-1327.94,1671.69
7220,-3.8712,0.0934,-0.0654,1336.18,-1359.19,1437.32
7230,-3.8712,0.0732,-0.0542,-38.82,-374.88,1390.44
7240,-3.8712,0.0540,-0.0458,1383.06,1062.62,1562.38
7250,-3.8712,0.0443,-0.0414,-1085.69,-1859.31,1999.88
7260,-3.8712,0.0447,-0.0394,1679.93,-1296.81,-1422.00
7270,-3.8712,0.0507,-0.0392,1726.81,-1046.81,-750.12
7280,-3.8712,0.0615,-0.0405,-1507.57,-1015.56,-62.62
7290,-3.8711,0.0757,-0.0420,-116.94,-1187.44,453.00
7300,-3.8711,0.0865,-0.0415,1695.56,-1374.88,843.63
7310,-3.8711,0.0914,-0.0386,-913.82,-1312.38,1281.13
7320,-3.8711,0.0892,-0.0344,-288.82,-937.38,1749.88
7330,-3.8711,0.0800,-0.0298,-570.07,-406.13,-1922.00
7340,-3.8711,0.0673,-0.0264,-1757.57,187.62,-1703.19
7350,-3.8711,0.0559,-0.0262,617.43,625.12,-1546.94
7360,-3.8711,0.0502,-0.0299,-835.69,640.69,-1609.44
7370,-3.8711,0.0519,-0.0352,-1570.07,171.94,-1953.19
7380,-3.8711,0.0573,-0.0381,-1351.32,-499.94,1593.63
7390,-3.8711,0.0614,-0.0386,-663.82,-874.94,1062.38
7400,-3.8711,0.0612,-0.0388,-132.57,-937.44,437.38
7410,-3.8712,0.0552,-0.0396,-163.82,-968.69,-203.25
7420,-3.8712,0.0459,-0.0409,-929.44,-1062.44,-843.87
7430,-3.8712,0.0400,-0.0439,1883.06,-1234.31,-1328.25
7440,-3.8712,0.0425,-0.0475,1133.06,-1624.94,-1453.25
7450,-3.8712,0.0533,-0.0505,1445.56,1921.94,-1297.00
7460,-3.8712,0.0679,-0.0524,-1163.82,1531.31,-1000.12
7470,-3.8712,0.0784,-0.0526,695.56,1297.00,-625.12
7480,-3.8712,0.0789,-0.0515,-1960.69,1265.75,-234.50
7490,-3.8711,0.0697,-0.0494,-1898.19,1406.37,140.50
7500,-3.8711,0.0569,-0.0490,929.93,1672.00,390.50
7510,-3.8711,0.0477,-0.0514,-710.69,1734.44,296.75
7520,-3.8712,0.0477,-0.0554,-1882.57,1421.94,-187.62
7530,-3.8712,0.0582,-0.0597,-1882.57,906.31,-937.62
7540,-3.8712,0.0747,-0.0623,-538.82,359.44,-1734.50
7550,-3.8712,0.0889,-0.0610,1570.56,31.37,1765.50
7560,-3.8712,0.0946,-0.0587,-616.94,187.62,1531.13
7570,-3.8712,0.0906,-0.0555,117.43,484.56,1421.75
7580,-3.8712,0.0818,-0.0493,-398.19,890.75,1703.00
7590,-3.8712,0.0721,-0.0443,-1523.19,1687.62,-1547.00
7600,-3.8712,0.0656,-0.0431,1242.43,-1671.75,-672.00
7610,-3.8711,0.0658,-0.0435,398.68,-1515.50,15.50
7620,-3.8711,0.0712,-0.0427,429.93,-1562.38,562.38
7630,-3.8711,0.0776,-0.0396,1117.43,-1468.63,984.25
7640,-3.8711,0.0834,-0.0355,1945.56,-1062.38,1421.75
7650,-3.8711,0.0837,-0.0331,-1320.07,-546.75,1921.75
7660,-3.8711,0.0765,-0.0333,-1273.19,-234.25,-1859.50
7670,-3.8711,0.0646,-0.0337,1804.93,-265.50,1984.25
7680,-3.8711,0.0535,-0.0321,273.68,-312.38,1765.50
7690,-3.8711,0.0477,-0.0302,-1148.19,-109.31,1484.25
7700,-3.8711,0.0479,-0.0319,-1882.57,140.69,1109.31
7710,-3.8711,0.0509,-0.0369,-1866.94,-78.06,671.75
7720,-3.8711,0.0533,-0.0404,-1476.32,-718.69,218.63
7730,-3.8712,0.0553,-0.0402,-1163.82,-1171.81,-265.75
7740,-3.8712,0.0577,-0.0400,-913.82,-1140.56,-656.37
7750,-3.8712,0.0613,-0.0419,-601.32,-1124.94,-843.87
7760,-3.8712,0.0659,-0.0416,-148.19,-1359.31,-1015.75
7770,-3.8712,0.0709,-0.0382,445.56,-1328.00,-1031.37
7780,-3.8712,0.0723,-0.0371,1086.18,-890.50,-640.75
7790,-3.8712,0.0656,-0.0393,1258.06,-749.88,-0.12
7800,-3.8711,0.0549,-0.0396,398.68,-1031.13,671.75
7810,-3.8711,0.0475,-0.0363,-960.69,-1062.44,1124.88
7820,-3.8711,0.0452,-0.0334,-1913.82,-640.56,1328.00
7830,-3.8711,0.0472,-0.0336,1789.31,-281.19,1499.88
7840,-3.8711,0.0513,-0.0367,-1945.07,-296.81,1499.88
7850,-3.8711,0.0536,-0.0419,-1429.44,-703.06,1187.38
7860,-3.8711,0.0519,-0.0455,-1132.57,-1359.31,703.00
7870,-3.8711,0.0463,-0.0461,-1351.32,-1828.06,249.88
7880,-3.8712,0.0397,-0.0457,1929.93,-1906.19,-172.00
7890,-3.8712,0.0374,-0.0458,1086.18,-1843.69,-531.37
7900,-3.8712,0.0419,-0.0461,789.31,-1859.31,-734.50
7910,-3.8712,0.0503,-0.0461,1367.43,-1906.19,-750.12
7920,-3.8712,0.0580,-0.0475,-1554.44,-1906.19,-875.12
7930,-3.8712,0.0607,-0.0496,-570.07,1921.94,-1234.50
7940,-3.8712,0.0586,-0.0496,-226.32,1656.31,-1484.50
7950,-3.8712,0.0552,-0.0486,-491.94,1656.31,-1484.50
7960,-3.8712,0.0548,-0.0474,-929.44,1781.31,-1390.75
7970,-3.8712,0.0586,-0.0460,-976.32,1937.56,-1218.87
7980,-3.8712,0.0637,-0.0444,-491.94,-1890.56,-984.50
7990,-3.8712,0.0686,-0.0437,164.31,-1687.38,-656.37
8000,-3.8712,0.0731,-0.0437,789.31,-1593.63,-406.37
8010,-3.8712,0.0773,-0.0430,1367.43,-1593.63,-140.75
8020,-3.8711,0.0817,-0.0413,1898.68,-1499.88,249.88
8030,-3.8711,0.0840,-0.0402,-1538.82,-1281.13,640.50
8040,-3.8711,0.0829,-0.0396,-1241.94,-1140.50,890.50
8050,-3.8711,0.0818,-0.0385,-1382.57,-1062.38,906.13
8060,-3.8711,0.0864,-0.0381,-1523.19,-921.75,906.13
8070,-3.8711,0.0969,-0.0396,-929.44,-874.88,984.25
8080,-3.8711,0.1050,-0.0421,414.31,-1062.32,921.75
8090,-3.8711,0.1030,-0.0415,1445.56,-1390.44,781.13
8100,-3.8711,0.0913,-0.0361,1195.56,-1312.32,703.00
8110,-3.8711,0.0779,-0.0311,-304.44,-624.88,703.00
8120,-3.8711,0.0704,-0.0315,1976.81,15.75,515.56
8130,-3.8711,0.0708,-0.0369,1023.68,-31.13,62.38
8140,-3.8712,0.0774,-0.0425,1070.56,-718.63,-375.12
8150,-3.8712,0.0881,-0.0454,1914.31,-1437.38,-609.50
8160,-3.8712,0.0992,-0.0453,-710.69,-1812.38,-562.62
8170,-3.8712,0.1027,-0.0421,711.18,-1796.69,-297.00
8180,-3.8711,0.0939,-0.0392,1148.68,-1390.44,15.50
8190,-3.8711,0.0775,-0.0391,23.68,-1015.44,156.13
8200,-3.8711,0.0629,-0.0403,1929.93,-999.88,78.00
8210,-3.8712,0.0574,-0.0397,54.93,-1156.13,-140.75
8220,-3.8712,0.0599,-0.0366,-648.19,-1078.06,-375.12
8230,-3.8712,0.0652,-0.0348,-320.07,-687.44,-468.87
8240,-3.8712,0.0712,-0.0353,351.81,-453.00,-281.37
8250,-3.8711,0.0774,-0.0355,1117.43,-515.50,265.50
8260,-3.8711,0.0784,-0.0345,1914.31,-546.75,1062.38
8270,-3.8711,0.0688,-0.0328,-1960.69,-421.75,1781.13
8280,-3.8711,0.0535,-0.0328,820.56,-203.00,1937.38
8290,-3.8711,0.0424,-0.0341,-1148.19,-203.06,1578.00
8300,-3.8711,0.0413,-0.0345,1429.93,-359.31,1093.63
8310,-3.8711,0.0490,-0.0352,1289.31,-421.81,734.25
8320,-3.8711,0.0581,-0.0370,-1726.32,-499.94,515.50
8330,-3.8711,0.0626,-0.0403,-554.44,-734.31,359.25
8340,-3.8711,0.0612,-0.0438,23.68,-1156.13,124.88
8350,-3.8712,0.0563,-0.0438,-163.82,-1609.31,-187.62
8360,-3.8712,0.0520,-0.0411,-788.82,-1609.31,-687.62
8370,-3.8712,0.0503,-0.0397,-1335.69,-1265.56,-1375.12
8380,-3.8712,0.0513,-0.0400,-1554.44,-1078.06,-1797.00
8390,-3.8712,0.0536,-0.0419,-1429.44,-1124.94,-1843.87
8400,-3.8712,0.0541,-0.0436,-1132.57,-1359.31,-1781.37
8410,-3.8712,0.0535,-0.0455,-1070.07,-1578.06,-1687.62
8420,-3.8712,0.0558,-0.0482,-1148.19,-1828.06,-1484.50
8430,-3.8712,0.0630,-0.0505,-851.32,1828.19,-1218.87
8440,-3.8712,0.0739,-0.0521,70.56,1531.37,-1031.37
8450,-3.8712,0.0863,-0.0525,1461.18,1328.25,-890.75
8460,-3.8712,0.0969,-0.0519,-945.07,1281.37,-625.12
8470,-3.8712,0.1014,-0.0502,414.31,1359.56,-203.25
8480,-3.8711,0.0989,-0.0472,992.43,1578.31,218.63
8490,-3.8711,0.0920,-0.0436,664.31,1953.31,531.13
8500,-3.8711,0.0831,-0.0391,-210.69,-1578.00,671.75
8510,-3.8711,0.0737,-0.0342,-1351.32,-999.88,578.00
8520,-3.8711,0.0674,-0.0323,1445.56,-374.88,406.13
8530,-3.8711,0.0663,-0.0338,633.06,-140.50,281.13
8540,-3.8711,0.0687,-0.0350,492.43,-328.00,312.38
8550,-3.8711,0.0712,-0.0344,804.93,-484.25,531.13
8560,-3.8711,0.0699,-0.0323,1117.43,-406.13,765.50
8570,-3.8711,0.0641,-0.0302,961.18,-140.50,1187.38
8580,-3.8711,0.0544,-0.0295,211.18,140.75,1640.56
8590,-3.8711,0.0432,-0.0304,-1023.19,218.81,1718.69
8600,-3.8711,0.0343,-0.0320,1539.31,109.44,1374.94
8610,-3.8711,0.0306,-0.0343,398.68,-93.69,734.25
8620,-3.8711,0.0323,-0.0372,-70.07,-390.62,15.50
8630,-3.8712,0.0366,-0.0392,148.68,-765.56,-625.12
8640,-3.8712,0.0414,-0.0389,695.56,-1015.56,-1218.87
8650,-3.8712,0.0466,-0.0370,1304.93,-984.31,-1625.12
8660,-3.8712,0.0503,-0.0342,1976.81,-734.31,-1547.00
8670,-3.8712,0.0496,-0.0342,-1554.44,-374.94,-906.37
8680,-3.8712,0.0471,-0.0371,-1648.19,-374.94,-31.37
8690,-3.8711,0.0477,-0.0374,-1960.69,-749.94,562.38
8700,-3.8711,0.0524,-0.0333,-1882.57,-781.19,843.63
8710,-3.8711,0.0564,-0.0277,-1288.82,-265.56,1156.13
8720,-3.8711,0.0557,-0.0238,-773.19,453.19,1609.31
8730,-3.8711,0.0500,-0.0243,-866.94,953.19,1921.81
8740,-3.8711,0.0447,-0.0284,-1585.69,890.69,1718.69
8750,-3.8711,0.0474,-0.0328,1726.81,359.44,1171.81
8760,-3.8711,0.0586,-0.0366,-1929.44,-203.06,624.88
8770,-3.8711,0.0706,-0.0402,-491.94,-687.44,218.63
8780,-3.8712,0.0778,-0.0424,1039.31,-1140.50,-218.87
8790,-3.8712,0.0815,-0.0435,1961.18,-1421.75,-672.00
8800,-3.8712,0.0840,-0.0449,-1554.44,-1562.38,-1125.12
8810,-3.8712,0.0858,-0.0454,-1241.94,-1749.88,-1297.00
8820,-3.8712,0.0865,-0.0436,-1007.57,-1812.38,-1140.75
8830,-3.8712,0.0846,-0.0411,-913.82,-1578.00,-703.25
8840,-3.8712,0.0809,-0.0409,-1163.82,-1265.50,-78.25
8850,-3.8711,0.0786,-0.0431,-1632.57,-1234.25,343.63
8860,-3.8711,0.0790,-0.0438,-1929.44,-1515.50,406.13
8870,-3.8711,0.0808,-0.0420,-1882.57,-1609.25,265.50
8880,-3.8711,0.0833,-0.0397,-1648.19,-1374.88,124.88
8890,-3.8711,0.0858,-0.0388,-1335.69,-1078.00,140.50
8900,-3.8711,0.0869,-0.0404,-1007.57,-968.63,124.88
8910,-3.8711,0.0858,-0.0433,-866.94,-1171.75,31.13
8920,-3.8712,0.0844,-0.0449,-1007.57,-1546.75,-140.75
8930,-3.8712,0.0854,-0.0431,-1195.07,-1749.88,-265.75
8940,-3.8712,0.0896,-0.0392,-1054.44,-1515.50,-250.12
8950,-3.8712,0.0930,-0.0378,-523.19,-1015.50,-156.37
8960,-3.8712,0.0920,-0.0410,-85.69,-843.63,-125.12
8970,-3.8712,0.0880,-0.0430,-210.69,-1249.88,-281.37
8980,-3.8712,0.0829,-0.0414,-726.32,-1499.88,-390.75
8990,-3.8712,0.0760,-0.0382,-1382.57,-1296.75,-281.37
9000,-3.8712,0.0693,-0.0366,1742.43,-890.50,-62.62
9010,-3.8711,0.0669,-0.0388,883.06,-687.38,78.00
9020,-3.8711,0.0703,-0.0425,570.56,-968.63,156.13
9030,-3.8711,0.0773,-0.0448,1008.06,-1437.38,187.38
9040,-3.8711,0.0835,-0.0459,1898.68,-1734.25,203.00
9050,-3.8711,0.0853,-0.0466,-1304.44,-1874.88,140.50
9060,-3.8712,0.0825,-0.0471,-1070.07,-1968.63,-140.75
9070,-3.8712,0.0774,-0.0463,-1429.44,1968.87,-468.87
9080,-3.8712,0.0701,-0.0431,1914.31,-1921.75,-625.12
9090,-3.8712,0.0614,-0.0399,976.81,-1515.50,-609.50
9100,-3.8712,0.0557,-0.0375,-132.57,-1109.31,-562.62
9110,-3.8712,0.0574,-0.0358,-866.94,-796.81,-359.50
9120,-3.8711,0.0657,-0.0358,-648.19,-578.06,15.50
9130,-3.8711,0.0758,-0.0361,414.31,-578.00,484.25
9140,-3.8711,0.0834,-0.0361,1711.18,-624.88,953.00
9150,-3.8711,0.0862,-0.0369,-1320.07,-624.88,1328.00
9160,-3.8711,0.0850,-0.0375,-960.69,-718.63,1421.75
9170,-3.8711,0.0822,-0.0376,-1116.94,-796.75,1124.88
9180,-3.8711,0.0808,-0.0374,-1476.32,-812.38,718.63
9190,-3.8711,0.0817,-0.0380,-1648.19,-781.13,296.75
9200,-3.8712,0.0842,-0.0398,-1538.82,-859.25,-125.12
9210,-3.8712,0.0880,-0.0425,-1210.69,-1093.63,-250.12
9220,-3.8712,0.0908,-0.0452,-726.32,-1437.38,-47.00
9230,-3.8711,0.0900,-0.0471,-366.94,-1781.13,62.38
9240,-3.8712,0.0845,-0.0485,-476.32,1968.87,-47.00
9250,-3.8712,0.0775,-0.0496,-1179.44,1797.00,-156.37
9260,-3.8712,0.0715,-0.0496,1929.93,1656.37,-359.50
9270,-3.8712,0.0682,-0.0499,1164.31,1656.37,-703.25
9280,-3.8712,0.0685,-0.0516,742.43,1609.50,-1000.12
9290,-3.8712,0.0709,-0.0536,773.68,1390.75,-1234.50
9300,-3.8712,0.0740,-0.0543,1086.18,1140.75,-1453.25
9310,-3.8712,0.0770,-0.0527,1476.81,1047.00,-1640.75
9320,-3.8712,0.0819,-0.0497,1867.43,1250.12,-1593.87
9330,-3.8712,0.0868,-0.0477,-1507.57,1640.75,-1234.50
9340,-3.8712,0.0891,-0.0486,-882.57,1890.75,-797.00
9350,-3.8712,0.0897,-0.0515,-585.69,1781.37,-625.12
9360,-3.8712,0.0917,-0.0527,-507.57,1406.37,-640.75
9370,-3.8712,0.0955,-0.0504,-257.57,1250.12,-656.37
9380,-3.8712,0.0995,-0.0464,226.81,1547.06,-609.50
9390,-3.8712,0.1022,-0.0453,742.43,-1937.32,-406.37
9400,-3.8712,0.1033,-0.0481,1086.18,-1796.69,-62.62
9410,-3.8711,0.1041,-0.0521,1226.81,1843.93,249.88
9420,-3.8711,0.1060,-0.0547,1336.18,1328.31,374.88
9430,-3.8711,0.1086,-0.0527,1570.56,1000.18,484.25
9440,-3.8711,0.1105,-0.0479,1914.31,1250.18,671.75
9450,-3.8711,0.1108,-0.0447,-1851.32,1875.18,671.75
9460,-3.8711,0.1090,-0.0454,-1804.44,-1718.57,437.38
9470,-3.8711,0.1041,-0.0452,1961.18,-1812.32,140.50
9480,-3.8712,0.0966,-0.0406,1336.18,-1781.07,-125.12
9490,-3.8712,0.0868,-0.0360,367.43,-1202.94,-281.37
9500,-3.8712,0.0765,-0.0365,-882.57,-609.25,-375.12
9510,-3.8712,0.0684,-0.0430,1804.93,-671.75,-390.75
9520,-3.8712,0.0653,-0.0507,758.06,-1499.88,-437.62
9530,-3.8712,0.0673,-0.0551,367.43,1515.75,-468.87
9540,-3.8712,0.0714,-0.0555,617.43,953.25,-468.87
9550,-3.8712,0.0760,-0.0540,1148.68,890.75,-484.50
9560,-3.8712,0.0793,-0.0520,1742.43,1093.87,-453.25
9570,-3.8712,0.0811,-0.0497,-1835.69,1343.87,-359.50
9580,-3.8712,0.0812,-0.0483,-1616.94,1640.75,-234.50
9590,-3.8712,0.0803,-0.0477,-1601.32,1812.62,-218.87
9600,-3.8712,0.0808,-0.0459,-1710.69,1890.75,-218.87
9610,-3.8712,0.0831,-0.0449,-1648.19,-1874.88,-172.00
9620,-3.8712,0.0847,-0.0457,-1351.32,-1749.88,-218.87
9630,-3.8712,0.0850,-0.0466,-1148.19,-1843.63,-390.75
9640,-3.8712,0.0853,-0.0479,-1116.94,-1968.63,-500.12
9650,-3.8712,0.0862,-0.0487,-1070.07,1875.12,-453.25
9660,-3.8712,0.0878,-0.0479,-960.69,1765.75,-343.87
9670,-3.8712,0.0884,-0.0455,-757.57,1875.12,-218.87
9680,-3.8712,0.0868,-0.0443,-679.44,-1828.00,-31.37
9690,-3.8711,0.0839,-0.0468,-882.57,-1671.75,124.88
9700,-3.8711,0.0813,-0.0504,-1257.57,-1984.25,203.00
9710,-3.8711,0.0813,-0.0526,-1585.69,1547.00,124.88
9720,-3.8712,0.0841,-0.0537,-1585.69,1265.75,-47.00
9730,-3.8712,0.0883,-0.0541,-1226.32,1125.12,-234.50
9740,-3.8712,0.0920,-0.0533,-695.07,1078.25,-390.75
9750,-3.8712,0.0946,-0.0529,-210.69,1172.00,-531.37
9760,-3.8712,0.0945,-0.0522,117.43,1234.56,-703.25
9770,-3.8712,0.0913,-0.0507,101.81,1312.68,-859.50
9780,-3.8712,0.0858,-0.0485,-304.44,1515.75,-875.12
9790,-3.8712,0.0781,-0.0474,-1007.57,1797.00,-718.87
9800,-3.8712,0.0709,-0.0486,-1991.94,1937.62,-531.37
9810,-3.8712,0.0677,-0.0509,1086.18,1781.37,-593.87
9820,-3.8712,0.0691,-0.0516,679.93,1484.50,-687.62
9830,-3.8712,0.0748,-0.0513,851.81,1390.75,-640.75
9840,-3.8712,0.0842,-0.0516,1586.18,1437.62,-453.25
9850,-3.8712,0.0923,-0.0527,-1210.69,1390.75,-172.00
9860,-3.8711,0.0946,-0.0510,-179.44,1250.12,31.13
9870,-3.8711,0.0906,-0.0474,117.43,1468.93,171.75
9880,-3.8711,0.0835,-0.0454,-398.19,1937.62,312.38
9890,-3.8711,0.0776,-0.0443,-1304.44,-1812.38,328.00
9900,-3.8711,0.0767,-0.0427,1945.56,-1671.75,281.13
9910,-3.8711,0.0806,-0.0427,1820.56,-1468.63,265.50
9920,-3.8711,0.0876,-0.0455,-1679.44,-1468.63,187.38
9930,-3.8711,0.0970,-0.0503,-773.19,-1828.00,78.00
9940,-3.8712,0.1069,-0.0541,429.93,1562.68,-15.75
9950,-3.8712,0.1140,-0.0541,1695.56,1078.31,-140.75
9960,-3.8712,0.1147,-0.0496,-1398.19,1078.31,-297.00
9970,-3.8712,0.1095,-0.0430,-1304.44,1656.43,-437.62
9980,-3.8712,0.1017,-0.0397,-1976.32,-1499.82,-531.37
9990,-3.8712,0.0933,-0.0416,1023.68,-1077.94,-468.87
10000,-3.8712,0.0864,-0.0460,-54.44,-1328.00,-437.62
10010,-3.8712,0.0830,-0.0496,-929.44,-1890.50,-531.37
10020,-3.8712,0.0829,-0.0504,-1366.94,1656.37,-578.25
10030,-3.8712,0.0851,-0.0488,-1382.57,1547.00,-437.62
10040,-3.8712,0.0881,-0.0461,-1101.32,1750.12,-109.50
10050,-3.8711,0.0900,-0.0471,-710.69,-1906.13,156.13
10060,-3.8711,0.0894,-0.0509,-476.32,1968.87,343.63
10070,-3.8711,0.0878,-0.0521,-554.44,1484.50,406.13
10080,-3.8711,0.0868,-0.0496,-757.57,1328.25,187.38
10090,-3.8712,0.0895,-0.0457,-882.57,1656.37,-125.12
10100,-3.8712,0.0957,-0.0426,-538.82,-1843.63,-484.50
10110,-3.8712,0.1014,-0.0408,258.06,-1452.94,-922.00
10120,-3.8712,0.1052,-0.0417,992.43,-1218.57,-1156.37
10130,-3.8712,0.1061,-0.0461,1476.81,-1343.57,-1156.37
10140,-3.8712,0.1051,-0.0516,1586.18,-1906.07,-1000.12
10150,-3.8712,0.1028,-0.0548,1461.18,1390.81,-687.62
10160,-3.8712,0.0979,-0.0526,1164.31,984.56,-218.87
10170,-3.8711,0.0918,-0.0464,539.31,1265.81,359.25
10180,-3.8711,0.0865,-0.0417,-241.94,-1937.38,984.25
10190,-3.8711,0.0834,-0.0416,-913.82,-1343.63,1421.75
10200,-3.8711,0.0846,-0.0435,-1320.07,-1328.00,1671.75
10210,-3.8711,0.0906,-0.0447,-1163.82,-1562.38,1624.88
10220,-3.8711,0.0983,-0.0449,-398.19,-1718.63,1156.13
10230,-3.8711,0.1049,-0.0448,586.18,-1749.82,578.00
10240,-3.8711,0.1080,-0.0455,1429.93,-1734.19,109.25
10250,-3.8712,0.1049,-0.0491,1836.18,-1827.94,-375.12
10260,-3.8712,0.0958,-0.0544,1429.93,1718.93,-875.12
10270,-3.8712,0.0856,-0.0576,273.68,1031.43,-1281.37
10280,-3.8712,0.0786,-0.0577,-1038.82,625.12,-1609.50
10290,-3.8712,0.0774,-0.0576,-1929.44,609.50,-1906.37
10300,-3.8712,0.0829,-0.0587,1914.31,625.12,1781.13
10310,-3.8712,0.0928,-0.0594,-1382.57,484.50,1562.38
10320,-3.8712,0.1022,-0.0574,-116.94,390.75,1468.63
10330,-3.8712,0.1080,-0.0538,1086.18,656.43,1562.38
10340,-3.8712,0.1083,-0.0511,1836.18,1109.56,1968.63
10350,-3.8712,0.1038,-0.0498,1867.43,1453.31,-1390.75
10360,-3.8712,0.0977,-0.0486,1289.31,1625.18,-734.50
10370,-3.8712,0.0931,-0.0468,508.06,1781.43,-187.62
10380,-3.8711,0.0927,-0.0450,-70.07,-1984.25,281.13
10390,-3.8711,0.0956,-0.0432,-132.57,-1765.50,640.50
10400,-3.8711,0.0992,-0.0405,242.43,-1531.07,828.00
10410,-3.8711,0.1021,-0.0388,711.18,-1187.32,999.88
10420,-3.8711,0.1027,-0.0399,1070.56,-968.57,1109.25
10430,-3.8711,0.1011,-0.0425,1148.68,-1109.19,1015.50
10440,-3.8711,0.1002,-0.0430,945.56,-1437.32,828.00
10450,-3.8711,0.1001,-0.0419,836.18,-1499.82,671.75
10460,-3.8711,0.0996,-0.0430,820.56,-1359.19,453.00
10470,-3.8711,0.0996,-0.0472,758.06,-1499.82,156.13
10480,-3.8712,0.1013,-0.0515,758.06,1953.31,-265.75
10490,-3.8712,0.1047,-0.0521,976.81,1406.43,-734.50
10500,-3.8712,0.1075,-0.0496,1414.31,1328.31,-1078.25
10510,-3.8712,0.1083,-0.0474,1773.68,1656.43,-1218.87
10520,-3.8712,0.1060,-0.0477,1867.43,1937.68,-1140.75
10530,-3.8712,0.1017,-0.0509,1570.56,1890.81,-984.50
10540,-3.8712,0.0972,-0.0546,1023.68,1484.56,-906.37
10550,-3.8712,0.0942,-0.0553,445.56,1015.81,-828.25
10560,-3.8712,0.0931,-0.0529,70.56,922.06,-593.87
10570,-3.8712,0.0930,-0.0499,-70.07,1234.50,-234.50
10580,-3.8711,0.0928,-0.0488,-85.69,1609.50,62.38
10590,-3.8711,0.0918,-0.0486,-116.94,1750.12,218.63
10600,-3.8711,0.0908,-0.0485,-241.94,1781.37,203.00
10610,-3.8711,0.0902,-0.0485,-366.94,1797.00,124.88
10620,-3.8712,0.0908,-0.0459,-445.07,1797.00,-47.00
10630,-3.8712,0.0929,-0.0408,-366.94,-1874.88,-218.87
10640,-3.8712,0.0946,-0.0375,-101.32,-1218.63,-218.87
10650,-3.8712,0.0947,-0.0388,117.43,-796.69,-47.00
10660,-3.8712,0.0940,-0.0430,133.06,-968.57,-15.75
10670,-3.8712,0.0927,-0.0450,39.31,-1499.82,-218.87
10680,-3.8712,0.0911,-0.0427,-132.57,-1765.50,-328.25
10690,-3.8712,0.0885,-0.0405,-335.69,-1468.63,-62.62
10700,-3.8711,0.0858,-0.0424,-663.82,-1187.38,265.50
10710,-3.8711,0.0853,-0.0477,-1007.57,-1421.75,203.00
10720,-3.8712,0.0874,-0.0521,-1070.07,1890.75,-31.37
10730,-3.8712,0.0919,-0.0520,-804.44,1328.25,-203.25
10740,-3.8712,0.0980,-0.0496,-226.32,1343.87,-390.75
10750,-3.8712,0.1038,-0.0482,554.93,1656.43,-578.25
10760,-3.8712,0.1067,-0.0481,1289.31,1828.31,-765.75
10770,-3.8712,0.1036,-0.0487,1664.31,1843.93,-781.37
10780,-3.8712,0.0963,-0.0481,1273.68,1765.81,-687.62
10790,-3.8712,0.0902,-0.0464,336.18,1843.93,-562.62
10800,-3.8712,0.0881,-0.0454,-445.07,-1937.38,-281.37
10810,-3.8712,0.0903,-0.0465,-710.69,-1812.38,-0.12
10820,-3.8711,0.0955,-0.0485,-429.44,-1953.00,46.75
10830,-3.8711,0.1007,-0.0485,226.81,1797.06,109.25
10840,-3.8711,0.1035,-0.0481,898.68,1797.06,296.75
10850,-3.8711,0.1028,-0.0496,1258.06,1843.93,296.75
10860,-3.8712,0.0984,-0.0515,1164.31,1656.43,-15.75
10870,-3.8712,0.0917,-0.0494,601.81,1406.43,-422.00
10880,-3.8712,0.0864,-0.0426,-257.57,1672.00,-718.87
10890,-3.8712,0.0864,-0.0376,-929.44,-1453.00,-937.62
10900,-3.8712,0.0930,-0.0388,-929.44,-812.38,-953.25
10910,-3.8712,0.1031,-0.0431,-85.69,-968.63,-734.50
10920,-3.8712,0.1115,-0.0463,1211.18,-1515.44,-437.62
10930,-3.8712,0.1140,-0.0466,-1726.32,-1921.69,-218.87
10940,-3.8712,0.1104,-0.0437,-1398.19,-1968.57,-140.75
10950,-3.8712,0.1033,-0.0403,-1866.94,-1593.57,-31.37
10960,-3.8711,0.0977,-0.0402,1226.81,-1156.07,156.13
10970,-3.8711,0.0964,-0.0433,508.06,-1140.44,124.88
10980,-3.8711,0.1008,-0.0482,351.81,-1546.69,15.50
10990,-3.8712,0.1088,-0.0509,914.31,1828.31,-31.37
11000,-3.8712,0.1149,-0.0494,1929.93,1484.56,-62.62
11010,-3.8712,0.1151,-0.0465,-1288.82,1672.06,-187.62
11020,-3.8712,0.1101,-0.0448,-1257.57,-1952.94,-390.75
11030,-3.8712,0.1029,-0.0457,-1898.19,-1734.19,-593.87
11040,-3.8712,0.0961,-0.0476,1179.93,-1843.57,-718.87
11050,-3.8712,0.0908,-0.0504,304.93,1906.43,-859.50
11060,-3.8712,0.0900,-0.0527,-366.94,1547.00,-1109.50
11070,-3.8712,0.0941,-0.0513,-476.32,1250.12,-1265.75
11080,-3.8712,0.0995,-0.0454,54.93,1437.68,-953.25
11090,-3.8712,0.0997,-0.0403,742.43,-1812.32,-234.50
11100,-3.8711,0.0927,-0.0409,773.68,-1156.07,374.88
11110,-3.8711,0.0835,-0.0459,-132.57,-1234.25,624.88
11120,-3.8711,0.0790,-0.0491,-1304.44,-1874.88,562.38
11130,-3.8711,0.0814,-0.0460,-1882.57,1718.87,343.63
11140,-3.8711,0.0879,-0.0388,-1570.07,-1890.50,203.00
11150,-3.8711,0.0950,-0.0331,-741.94,-968.63,343.63
11160,-3.8711,0.0989,-0.0359,164.31,-234.19,359.25
11170,-3.8711,0.0978,-0.0454,664.31,-593.57,156.13
11180,-3.8712,0.0945,-0.0529,523.68,-1812.32,-156.37
11190,-3.8712,0.0902,-0.0536,101.81,1234.56,-515.75
11200,-3.8712,0.0846,-0.0491,-445.07,1140.75,-672.00
11210,-3.8712,0.0807,-0.0453,-1163.82,1718.87,-718.87
11220,-3.8712,0.0802,-0.0459,-1663.82,-1796.75,-922.00
11230,-3.8712,0.0837,-0.0492,-1726.32,-1874.88,-1281.37
11240,-3.8712,0.0918,-0.0518,-1273.19,1703.25,-1578.25
11250,-3.8712,0.1034,-0.0519,-241.94,1375.12,-1547.00
11260,-3.8712,0.1144,-0.0502,1242.43,1359.56,-1172.00
11270,-3.8712,0.1183,-0.0477,-1351.32,1578.31,-625.12
11280,-3.8712,0.1128,-0.0461,-851.32,1890.81,-0.12
11290,-3.8711,0.1018,-0.0468,-1554.44,-1906.07,531.13
11300,-3.8711,0.0922,-0.0475,1039.31,-1984.19,718.63
11310,-3.8711,0.0873,-0.0455,-195.07,1922.00,546.75
11320,-3.8711,0.0883,-0.0428,-820.07,-1828.00,249.88
11330,-3.8711,0.0931,-0.0430,-695.07,-1484.25,46.75
11340,-3.8712,0.0990,-0.0469,-70.07,-1499.88,-140.75
11350,-3.8712,0.1035,-0.0508,679.93,-1999.82,-422.00
11360,-3.8712,0.1050,-0.0507,1258.06,1500.18,-812.62
11370,-3.8712,0.1046,-0.0476,1445.56,1515.81,-1093.87
11380,-3.8712,0.1029,-0.0448,1398.68,1906.43,-1062.62
11390,-3.8712,0.0997,-0.0446,1179.93,-1734.19,-750.12
11400,-3.8712,0.0953,-0.0458,773.68,-1702.94,-437.62
11410,-3.8712,0.0900,-0.0468,211.18,-1859.19,-343.87
11420,-3.8712,0.0863,-0.0474,-476.32,-1984.25,-343.87
11430,-3.8712,0.0883,-0.0477,-945.07,1937.62,-297.00
11440,-3.8712,0.0953,-0.0477,-695.07,1890.75,-250.12
11450,-3.8712,0.1027,-0.0483,211.18,1890.81,-250.12
11460,-3.8712,0.1038,-0.0493,1148.68,1812.68,-375.12
11470,-3.8712,0.0999,-0.0482,1289.31,1687.68,-375.12
11480,-3.8712,0.0966,-0.0452,789.31,1828.31,-156.37
11490,-3.8711,0.0955,-0.0432,367.43,-1781.07,46.75
11500,-3.8711,0.0961,-0.0427,226.81,-1531.07,203.00
11510,-3.8711,0.0957,-0.0433,304.93,-1468.57,265.50
11520,-3.8711,0.0934,-0.0448,258.06,-1546.69,234.25
11530,-3.8711,0.0917,-0.0460,-38.82,-1734.25,46.75
11540,-3.8712,0.0927,-0.0477,-257.57,-1890.50,-93.87
11550,-3.8712,0.0948,-0.0498,-132.57,1890.75,-203.25
11560,-3.8712,0.0967,-0.0508,148.68,1625.18,-547.00
11570,-3.8712,0.0972,-0.0476,383.06,1500.18,-797.00
11580,-3.8712,0.0956,-0.0430,445.56,1906.43,-672.00
11590,-3.8712,0.0919,-0.0427,242.43,-1499.82,-390.75
11600,-3.8712,0.0883,-0.0457,-226.32,-1468.63,-140.75
11610,-3.8711,0.0868,-0.0480,-695.07,-1843.63,93.63
11620,-3.8711,0.0865,-0.0477,-882.57,1859.50,281.13
11630,-3.8711,0.0873,-0.0458,-913.82,1890.75,265.50
11640,-3.8712,0.0896,-0.0450,-820.07,-1859.25,-93.87
11650,-3.8712,0.0933,-0.0450,-523.19,-1765.50,-500.12
11660,-3.8712,0.0964,-0.0455,-54.44,-1765.50,-703.25
11670,-3.8712,0.0985,-0.0483,351.81,-1827.94,-734.50
11680,-3.8712,0.1001,-0.0521,617.43,1812.68,-656.37
11690,-3.8712,0.1008,-0.0532,820.56,1328.31,-593.87
11700,-3.8712,0.1003,-0.0499,914.31,1187.68,-609.50
11710,-3.8712,0.0991,-0.0450,851.81,1609.56,-562.62
11720,-3.8712,0.0974,-0.0446,695.56,-1765.44,-343.87
11730,-3.8712,0.0969,-0.0494,476.81,-1702.94,-203.25
11740,-3.8712,0.1000,-0.0546,414.31,1672.06,-343.87
11750,-3.8712,0.1072,-0.0547,804.93,1015.81,-515.75
11760,-3.8712,0.1152,-0.0505,1726.81,1000.18,-484.50
11770,-3.8712,0.1187,-0.0476,-1241.94,1531.43,-406.37
11780,-3.8712,0.1144,-0.0480,-804.44,1906.43,-375.12
11790,-3.8712,0.1051,-0.0490,-1351.32,1859.56,-281.37
11800,-3.8712,0.0956,-0.0482,1461.18,1734.56,-281.37
11810,-3.8712,0.0903,-0.0453,242.43,1828.31,-297.00
11820,-3.8712,0.0912,-0.0431,-429.44,-1796.75,-234.50
11830,-3.8712,0.0963,-0.0442,-320.07,-1515.50,-31.37
11840,-3.8711,0.1014,-0.0468,336.18,-1656.07,203.00
11850,-3.8711,0.1018,-0.0490,992.43,-1984.19,328.00
11860,-3.8711,0.0964,-0.0493,1039.31,1734.56,390.50
11870,-3.8711,0.0883,-0.0472,351.81,1687.68,218.63
11880,-3.8712,0.0815,-0.0446,-695.07,1953.25,-234.50
11890,-3.8712,0.0800,-0.0432,-1554.44,-1703.00,-703.25
11900,-3.8712,0.0836,-0.0442,-1757.57,-1531.13,-937.62
11910,-3.8712,0.0905,-0.0464,-1288.82,-1656.13,-859.50
11920,-3.8712,0.0964,-0.0485,-413.82,-1937.38,-547.00
11930,-3.8712,0.0995,-0.0486,351.81,1797.06,-250.12
11940,-3.8712,0.0996,-0.0486,742.43,1781.43,-15.75
11950,-3.8711,0.0980,-0.0502,758.06,1781.43,218.63
11960,-3.8711,0.0964,-0.0516,554.93,1578.31,234.25
11970,-3.8711,0.0955,-0.0513,351.81,1390.81,46.75
11980,-3.8712,0.0955,-0.0481,226.81,1437.68,-172.00
11990,-3.8712,0.0980,-0.0455,226.81,1843.93,-281.37
12000,-3.8712,0.1036,-0.0466,554.93,-1827.94,-297.00
12010,-3.8712,0.1084,-0.0486,1273.68,-1968.57,-375.12
12020,-3.8712,0.1086,-0.0490,1883.06,1781.43,-547.00
12030,-3.8712,0.1040,-0.0475,1914.31,1734.56,-640.75
12040,-3.8712,0.0973,-0.0452,1320.56,1922.06,-437.62
12050,-3.8712,0.0916,-0.0442,461.18,-1781.07,-140.75
12060,-3.8712,0.0883,-0.0458,-273.19,-1656.13,-47.00
12070,-3.8712,0.0870,-0.0491,-695.07,-1859.25,-125.12
12080,-3.8712,0.0874,-0.0505,-851.32,1718.87,-343.87
12090,-3.8712,0.0898,-0.0486,-804.44,1531.37,-531.37
12100,-3.8712,0.0935,-0.0465,-491.94,1781.37,-515.75
12110,-3.8712,0.0959,-0.0463,-23.19,-1953.00,-281.37
12120,-3.8712,0.0958,-0.0466,289.31,-1921.69,-78.25
12130,-3.8711,0.0931,-0.0469,273.68,-1968.57,93.63
12140,-3.8711,0.0896,-0.0455,-70.07,-1999.88,171.75
12150,-3.8711,0.0881,-0.0432,-523.19,-1828.00,171.75
12160,-3.8711,0.0908,-0.0425,-710.69,-1531.13,203.00
12170,-3.8711,0.0968,-0.0438,-366.94,-1437.38,218.63
12180,-3.8711,0.1022,-0.0460,398.68,-1609.19,93.63
12190,-3.8712,0.1052,-0.0480,1086.18,-1890.44,-109.50
12200,-3.8712,0.1057,-0.0494,1476.81,1859.56,-343.87
12210,-3.8712,0.1039,-0.0508,1539.31,1672.06,-547.00
12220,-3.8712,0.1003,-0.0529,1304.93,1500.18,-718.87
12230,-3.8712,0.0957,-0.0552,851.81,1234.56,-828.25
12240,-3.8712,0.0928,-0.0552,258.06,937.68,-812.62
12250,-3.8712,0.0933,-0.0531,-116.94,937.62,-890.75
12260,-3.8712,0.0975,-0.0514,-54.44,1203.25,-922.00
12270,-3.8712,0.1044,-0.0508,492.43,1422.06,-765.75
12280,-3.8712,0.1097,-0.0507,1367.43,1500.18,-640.75
12290,-3.8712,0.1104,-0.0507,-1945.07,1515.81,-422.00
12300,-3.8712,0.1058,-0.0500,-1866.94,1515.81,-78.25
12310,-3.8711,0.0991,-0.0479,1554.93,1593.93,109.25
12320,-3.8711,0.0935,-0.0447,695.56,1875.18,93.63
12330,-3.8712,0.0906,-0.0436,-23.19,-1718.63,-15.75
12340,-3.8712,0.0923,-0.0450,-398.19,-1578.00,-156.37
12350,-3.8712,0.0973,-0.0471,-179.44,-1765.50,-265.75
12360,-3.8712,0.1013,-0.0485,461.18,1968.93,-297.00
12370,-3.8712,0.1012,-0.0477,976.81,1797.06,-172.00
12380,-3.8711,0.0970,-0.0454,961.18,1890.81,31.13
12390,-3.8711,0.0923,-0.0430,429.93,-1812.32,46.75
12400,-3.8711,0.0895,-0.0433,-179.44,-1499.88,15.50
12410,-3.8711,0.0891,-0.0476,-538.82,-1546.75,109.25
12420,-3.8711,0.0900,-0.0521,-585.69,1906.37,109.25
12430,-3.8712,0.0918,-0.0536,-476.32,1328.25,-15.75
12440,-3.8712,0.0925,-0.0521,-241.94,1140.75,-125.12
12450,-3.8712,0.0909,-0.0504,-148.19,1328.25,-234.50
12460,-3.8712,0.0884,-0.0511,-351.32,1547.00,-468.87
12470,-3.8712,0.0878,-0.0536,-679.44,1453.25,-828.25
12480,-3.8712,0.0900,-0.0546,-757.57,1140.75,-1140.75
12490,-3.8712,0.0941,-0.0526,-476.32,1015.75,-1281.37
12500,-3.8712,0.0996,-0.0503,54.93,1265.81,-1328.25
12510,-3.8712,0.1062,-0.0492,758.06,1562.68,-1312.62
12520,-3.8712,0.1124,-0.0476,1601.81,1703.31,-1109.50
12530,-3.8712,0.1149,-0.0464,-1601.32,1906.43,-640.75
12540,-3.8712,0.1119,-0.0466,-1288.82,-1937.32,-31.37
12550,-3.8711,0.1078,-0.0480,-1663.82,-1968.57,406.13
12560,-3.8711,0.1050,-0.0492,1804.93,1859.56,593.63
12570,-3.8711,0.1036,-0.0491,1445.56,1703.31,656.13
12580,-3.8711,0.1029,-0.0494,1273.68,1718.93,515.50
12590,-3.8711,0.1024,-0.0492,1179.93,1672.06,265.50
12600,-3.8712,0.1022,-0.0475,1117.43,1703.31,-0.12
12610,-3.8712,0.0995,-0.0481,1086.18,1922.06,-297.00
12620,-3.8712,0.0947,-0.0504,742.43,1843.93,-578.25
12630,-3.8712,0.0914,-0.0525,133.06,1547.06,-906.37
12640,-3.8712,0.0909,-0.0533,-288.82,1281.37,-1218.87
12650,-3.8712,0.0944,-0.0529,-351.32,1172.00,-1343.87
12660,-3.8712,0.0988,-0.0522,86.18,1234.56,-1250.12
12670,-3.8712,0.1001,-0.0516,648.68,1312.68,-1093.87
12680,-3.8712,0.0984,-0.0510,820.56,1390.81,-1000.12
12690,-3.8712,0.0961,-0.0498,601.81,1468.93,-828.25
12700,-3.8712,0.0941,-0.0479,304.93,1625.18,-375.12
12710,-3.8711,0.0934,-0.0463,54.93,1875.18,187.38
12720,-3.8711,0.0951,-0.0446,-38.82,-1921.75,687.38
12730,-3.8711,0.0981,-0.0419,179.93,-1702.94,1062.38
12740,-3.8711,0.1001,-0.0406,570.56,-1359.19,1328.00
12750,-3.8711,0.1000,-0.0431,820.56,-1202.94,1343.63
12760,-3.8711,0.0984,-0.0469,804.93,-1515.44,1015.50
12770,-3.8711,0.0973,-0.0492,601.81,-1999.82,421.75
12780,-3.8712,0.0981,-0.0498,461.18,1703.31,-281.37
12790,-3.8712,0.1010,-0.0504,570.56,1625.18,-812.62
12800,-3.8712,0.1042,-0.0519,929.93,1547.06,-1140.75
12810,-3.8712,0.1053,-0.0543,1351.81,1359.56,-1328.25
12820,-3.8712,0.1034,-0.0564,1492.43,1047.06,-1375.12
12830,-3.8712,0.1001,-0.0558,1242.43,781.43,-1265.75
12840,-3.8712,0.0968,-0.0531,820.56,859.56,-1047.00
12850,-3.8712,0.0939,-0.0514,398.68,1203.31,-953.25
12860,-3.8712,0.0933,-0.0497,23.68,1422.06,-937.62
12870,-3.8712,0.0956,-0.0482,-54.44,1640.75,-672.00
12880,-3.8712,0.0989,-0.0497,242.43,1828.31,-281.37
12890,-3.8712,0.1008,-0.0529,664.31,1640.81,-31.37
12900,-3.8711,0.1017,-0.0544,914.31,1234.56,62.38
12910,-3.8711,0.1022,-0.0526,1023.68,1031.43,124.88
12920,-3.8711,0.1008,-0.0491,1086.18,1265.81,156.13
12930,-3.8711,0.0969,-0.0472,914.31,1718.93,62.38
12940,-3.8712,0.0920,-0.0485,414.31,1953.31,-203.25
12950,-3.8712,0.0900,-0.0504,-210.69,1797.00,-500.12
12960,-3.8712,0.0916,-0.0500,-476.32,1547.00,-672.00
12970,-3.8712,0.0947,-0.0475,-273.19,1593.87,-828.25
12980,-3.8712,0.0979,-0.0454,133.06,1922.06,-843.87
12990,-3.8712,0.0990,-0.0458,539.31,-1812.32,-515.75
13000,-3.8712,0.0978,-0.0483,679.93,-1859.19,-78.25
13010,-3.8711,0.0959,-0.0508,523.68,1812.68,78.00
13020,-3.8711,0.0956,-0.0504,289.31,1500.18,31.13
13030,-3.8711,0.0962,-0.0476,242.43,1547.06,15.50
13040,-3.8711,0.0963,-0.0454,320.56,1906.43,15.50
13050,-3.8712,0.0967,-0.0466,336.18,-1812.32,-31.37
13060,-3.8712,0.0972,-0.0499,383.06,-1968.57,-203.25
13070,-3.8712,0.0975,-0.0514,445.56,1609.56,-375.12
13080,-3.8712,0.0973,-0.0505,492.43,1422.06,-500.12
13090,-3.8712,0.0953,-0.0499,461.18,1531.43,-578.25
13100,-3.8712,0.0925,-0.0513,211.18,1609.56,-703.25
13110,-3.8712,0.0922,-0.0541,-148.19,1437.62,-906.37
13120,-3.8712,0.0967,-0.0559,-195.07,1078.25,-1047.00
13130,-3.8712,0.1056,-0.0559,383.06,843.93,-1109.50
13140,-3.8712,0.1140,-0.0547,1523.68,843.93,-1109.50
13150,-3.8712,0.1169,-0.0522,-1398.19,1000.18,-984.50
13160,-3.8712,0.1124,-0.0491,-1023.19,1312.68,-593.87
13170,-3.8712,0.1031,-0.0464,-1601.32,1718.93,-78.25
13180,-3.8711,0.0922,-0.0450,1211.18,-1937.32,406.13
13190,-3.8711,0.0831,-0.0444,-195.07,-1765.50,671.75
13200,-3.8711,0.0802,-0.0438,-1351.32,-1687.38,812.38
13210,-3.8711,0.0850,-0.0432,-1726.32,-1609.25,859.25
13220,-3.8711,0.0951,-0.0430,-1116.94,-1531.13,734.25
13230,-3.8711,0.1060,-0.0433,179.93,-1499.82,656.13
13240,-3.8711,0.1117,-0.0453,1570.56,-1546.69,609.25
13250,-3.8711,0.1093,-0.0486,-1695.07,-1796.69,312.38
13260,-3.8712,0.1019,-0.0505,1992.43,1781.43,-172.00
13270,-3.8712,0.0950,-0.0494,1054.93,1531.43,-672.00
13280,-3.8712,0.0906,-0.0470,164.31,1672.06,-1031.37
13290,-3.8712,0.0895,-0.0461,-398.19,1984.50,-1125.12
13300,-3.8712,0.0924,-0.0469,-538.82,-1906.13,-1156.37
13310,-3.8712,0.0975,-0.0488,-163.82,-1999.88,-1078.25
13320,-3.8712,0.1018,-0.0509,492.43,1750.18,-797.00
13330,-3.8712,0.1042,-0.0505,1039.31,1484.56,-390.75
13340,-3.8712,0.1039,-0.0472,1351.81,1531.43,-62.62
13350,-3.8711,0.1001,-0.0448,1304.93,1953.31,218.63
13360,-3.8711,0.0951,-0.0468,820.56,-1734.19,515.50
13370,-3.8711,0.0930,-0.0518,179.93,-1984.19,515.50
13380,-3.8711,0.0956,-0.0553,-85.69,1375.12,265.50
13390,-3.8711,0.1002,-0.0540,242.43,922.06,31.13
13400,-3.8712,0.1023,-0.0493,836.18,1093.93,-31.37
13410,-3.8712,0.0999,-0.0472,1101.81,1687.68,-93.87
13420,-3.8712,0.0946,-0.0492,789.31,1953.31,-422.00
13430,-3.8712,0.0911,-0.0521,117.43,1703.31,-890.75
13440,-3.8712,0.0909,-0.0537,-335.69,1328.25,-1234.50
13450,-3.8712,0.0933,-0.0540,-351.32,1125.12,-1547.00
13460,-3.8712,0.0964,-0.0526,-54.44,1093.87,-1672.00
13470,-3.8712,0.0997,-0.0507,351.81,1265.81,-1484.50
13480,-3.8712,0.1016,-0.0496,773.68,1515.81,-1265.75
13490,-3.8712,0.1012,-0.0494,1008.06,1656.43,-1015.75
13500,-3.8712,0.0997,-0.0487,961.18,1672.06,-593.87
13510,-3.8712,0.0978,-0.0448,773.68,1765.81,-140.75
13520,-3.8711,0.0966,-0.0410,523.68,-1734.19,328.00
13530,-3.8711,0.0967,-0.0416,367.43,-1249.82,656.13
13540,-3.8711,0.0970,-0.0437,383.06,-1327.94,890.50
13550,-3.8711,0.0963,-0.0444,429.93,-1593.57,984.25
13560,-3.8711,0.0959,-0.0431,336.18,-1687.32,937.38
13570,-3.8711,0.0969,-0.0421,289.31,-1515.44,812.38
13580,-3.8711,0.0978,-0.0449,414.31,-1390.44,531.13
13590,-3.8711,0.0975,-0.0499,523.68,-1749.82,109.25
13600,-3.8712,0.0981,-0.0527,492.43,1609.56,-343.87
13610,-3.8712,0.0996,-0.0524,570.56,1250.18,-843.87
13620,-3.8712,0.1002,-0.0514,758.06,1297.06,-1250.12
13630,-3.8712,0.0996,-0.0518,836.18,1422.06,-1562.62
13640,-3.8712,0.0975,-0.0525,758.06,1375.18,-1750.12
13650,-3.8712,0.0957,-0.0537,492.43,1281.43,-1734.50
13660,-3.8712,0.0958,-0.0540,258.06,1125.18,-1593.87
13670,-3.8712,0.0979,-0.0510,273.68,1093.93,-1343.87
13680,-3.8712,0.0999,-0.0464,539.31,1468.93,-968.87
13690,-3.8712,0.0984,-0.0436,789.31,-1937.32,-500.12
13700,-3.8712,0.0938,-0.0437,601.81,-1577.94,-93.87
13710,-3.8711,0.0891,-0.0446,8.06,-1593.57,249.88
13720,-3.8711,0.0870,-0.0441,-585.69,-1703.00,593.63
13730,-3.8711,0.0875,-0.0414,-851.32,-1640.50,734.25
13740,-3.8711,0.0911,-0.0378,-788.82,-1296.75,656.13
13750,-3.8711,0.0953,-0.0366,-335.69,-843.63,531.13
13760,-3.8711,0.0975,-0.0396,211.18,-687.32,531.13
13770,-3.8711,0.0980,-0.0447,492.43,-1062.32,515.50
13780,-3.8711,0.0983,-0.0471,554.93,-1718.57,281.13
13790,-3.8711,0.0991,-0.0468,586.18,1968.93,156.13
13800,-3.8711,0.0990,-0.0470,695.56,-1984.19,187.38
13810,-3.8712,0.0977,-0.0500,679.93,1984.56,-31.37
13820,-3.8712,0.0984,-0.0540,508.06,1593.93,-562.62
13830,-3.8712,0.1018,-0.0554,601.81,1093.93,-1000.12
13840,-3.8712,0.1049,-0.0544,1039.31,906.43,-1203.25
13850,-3.8712,0.1050,-0.0535,1429.93,1031.43,-1312.62
13860,-3.8712,0.1039,-0.0536,1445.56,1156.43,-1281.37
13870,-3.8712,0.1039,-0.0530,1304.93,1140.81,-1093.87
13880,-3.8712,0.1042,-0.0511,1304.93,1218.93,-797.00
13890,-3.8712,0.1038,-0.0493,1351.81,1453.31,-500.12
13900,-3.8712,0.1030,-0.0477,1289.31,1687.68,-281.37
13910,-3.8712,0.1034,-0.0461,1195.56,1890.81,-109.50
13920,-3.8711,0.1039,-0.0459,1242.43,-1906.07,93.63
13930,-3.8711,0.1039,-0.0468,1304.93,-1874.82,249.88
13940,-3.8711,0.1030,-0.0475,1304.93,-1984.19,374.88
13950,-3.8711,0.1007,-0.0474,1195.56,1922.06,421.75
13960,-3.8711,0.0977,-0.0468,898.68,1937.68,296.75
13970,-3.8712,0.0940,-0.0475,508.06,-1984.19,-31.37
13980,-3.8712,0.0908,-0.0496,39.31,1922.06,-437.62
13990,-3.8712,0.0907,-0.0513,-366.94,1656.37,-828.25
14000,-3.8712,0.0924,-0.0515,-382.57,1437.62,-1203.25
14010,-3.8712,0.0934,-0.0516,-163.82,1406.37,-1406.37
14020,-3.8712,0.0950,-0.0525,-38.82,1390.75,-1422.00
14030,-3.8712,0.0970,-0.0532,164.31,1281.43,-1218.87
14040,-3.8712,0.0991,-0.0525,429.93,1187.68,-812.62
14050,-3.8712,0.1011,-0.0507,695.56,1281.43,-406.37
14060,-3.8712,0.1014,-0.0497,945.56,1515.81,-78.25
14070,-3.8711,0.0997,-0.0494,992.43,1640.81,109.25
14080,-3.8711,0.0988,-0.0498,773.68,1672.06,15.50
14090,-3.8712,0.1005,-0.0490,648.68,1625.18,-343.87
14100,-3.8712,0.1049,-0.0455,867.43,1734.56,-578.25
14110,-3.8712,0.1095,-0.0435,1429.93,-1827.94,-484.50
14120,-3.8712,0.1110,-0.0450,-1976.32,-1562.32,-203.25
14130,-3.8711,0.1090,-0.0481,-1788.82,-1765.44,109.25
14140,-3.8711,0.1045,-0.0492,1961.18,1843.93,281.13
14150,-3.8711,0.0986,-0.0483,1383.06,1703.31,328.00
14160,-3.8711,0.0934,-0.0469,633.06,1812.68,265.50
14170,-3.8711,0.0895,-0.0465,-38.82,-1999.88,140.50
14180,-3.8712,0.0870,-0.0485,-538.82,-1953.00,-62.62
14190,-3.8712,0.0873,-0.0518,-851.32,1797.00,-437.62
14200,-3.8712,0.0909,-0.0546,-820.07,1375.12,-781.37
14210,-3.8712,0.0961,-0.0540,-351.32,1015.75,-984.50
14220,-3.8712,0.0981,-0.0510,304.93,1093.93,-1031.37
14230,-3.8712,0.0958,-0.0497,570.56,1468.93,-922.00
14240,-3.8712,0.0914,-0.0490,273.68,1640.81,-750.12
14250,-3.8712,0.0886,-0.0470,-288.82,1734.50,-547.00
14260,-3.8712,0.0902,-0.0452,-648.19,1984.50,-312.62
14270,-3.8712,0.0947,-0.0443,-445.07,-1781.13,-140.75
14280,-3.8711,0.1001,-0.0446,133.06,-1671.69,78.00
14290,-3.8711,0.1038,-0.0454,820.56,-1702.94,328.00
14300,-3.8711,0.1035,-0.0463,1289.31,-1812.32,531.13
14310,-3.8711,0.1006,-0.0474,1258.06,-1921.69,671.75
14320,-3.8711,0.0972,-0.0486,883.06,1937.68,749.88
14330,-3.8711,0.0946,-0.0504,445.56,1781.43,671.75
14340,-3.8711,0.0950,-0.0521,117.43,1547.06,421.75
14350,-3.8711,0.0989,-0.0532,164.31,1328.31,78.00
14360,-3.8712,0.1036,-0.0529,664.31,1187.68,-281.37
14370,-3.8712,0.1055,-0.0513,1273.68,1234.56,-687.62
14380,-3.8712,0.1049,-0.0488,1508.06,1437.68,-1187.62
14390,-3.8712,0.1040,-0.0477,1429.93,1750.18,-1453.25
14400,-3.8712,0.1023,-0.0497,1320.56,1890.81,-1390.75
14410,-3.8712,0.0995,-0.0529,1101.81,1640.81,-1297.00
14420,-3.8712,0.0985,-0.0546,742.43,1234.56,-1203.25
14430,-3.8712,0.1012,-0.0543,617.43,1015.81,-1093.87
14440,-3.8712,0.1066,-0.0542,961.18,1047.06,-1031.37
14450,-3.8712,0.1119,-0.0524,1648.68,1062.68,-812.62
14460,-3.8712,0.1146,-0.0475,-1663.82,1297.06,-390.75
14470,-3.8711,0.1121,-0.0446,-1320.07,1922.06,78.00
14480,-3.8711,0.1057,-0.0461,-1648.19,-1702.94,390.50
14490,-3.8711,0.1001,-0.0485,1539.31,-1906.07,484.25
14500,-3.8711,0.0981,-0.0480,820.56,1797.06,546.75
14510,-3.8711,0.0997,-0.0447,570.56,1859.56,499.88
14520,-3.8711,0.1031,-0.0430,773.68,-1718.57,359.25
14530,-3.8711,0.1062,-0.0463,1211.18,-1499.82,328.00
14540,-3.8711,0.1060,-0.0519,1601.81,-1921.69,187.38
14550,-3.8712,0.1018,-0.0549,1570.56,1359.56,-203.25
14560,-3.8712,0.0963,-0.0541,1039.31,968.93,-750.12
14570,-3.8712,0.0918,-0.0515,336.18,1078.31,-1250.12
14580,-3.8712,0.0901,-0.0498,-241.94,1406.37,-1593.87
14590,-3.8712,0.0908,-0.0499,-460.69,1625.12,-1734.50
14600,-3.8712,0.0924,-0.0516,-366.94,1609.50,-1687.62
14610,-3.8712,0.0952,-0.0538,-163.82,1390.75,-1468.87
14620,-3.8712,0.0994,-0.0549,195.56,1109.56,-1062.62
14630,-3.8712,0.1034,-0.0546,726.81,968.93,-609.50
14640,-3.8712,0.1066,-0.0529,1242.43,1015.81,-140.75
14650,-3.8711,0.1066,-0.0502,1648.68,1234.56,437.38
14660,-3.8711,0.1024,-0.0465,1648.68,1578.31,999.88
14670,-3.8711,0.0969,-0.0435,1117.43,-1952.94,1203.00
14680,-3.8711,0.0924,-0.0417,414.31,-1562.32,999.88
14690,-3.8711,0.0898,-0.0415,-163.82,-1343.63,609.25
14700,-3.8711,0.0911,-0.0432,-491.94,-1312.38,187.38
14710,-3.8712,0.0958,-0.0479,-335.69,-1531.13,-203.25
14720,-3.8712,0.1003,-0.0530,273.68,1875.18,-531.37
14730,-3.8712,0.1022,-0.0555,851.81,1218.93,-765.75
14740,-3.8712,0.1016,-0.0552,1086.18,890.81,-953.25
14750,-3.8712,0.0986,-0.0538,1008.06,937.68,-1140.75
14760,-3.8712,0.0951,-0.0537,633.06,1109.56,-1328.25
14770,-3.8712,0.0929,-0.0546,179.93,1125.18,-1406.37
14780,-3.8712,0.0945,-0.0543,-101.32,1015.75,-1187.62
14790,-3.8712,0.0991,-0.0532,101.81,1047.06,-797.00
14800,-3.8712,0.1044,-0.0522,695.56,1187.68,-453.25
14810,-3.8712,0.1088,-0.0508,1367.43,1312.68,-297.00
14820,-3.8712,0.1091,-0.0471,1929.93,1500.18,-125.12
14830,-3.8711,0.1050,-0.0439,1976.81,1968.93,328.00
14840,-3.8711,0.0983,-0.0447,1445.56,-1624.82,812.38
14850,-3.8711,0.0939,-0.0480,586.18,-1718.57,937.38
14860,-3.8711,0.0941,-0.0500,23.68,1859.56,624.88
14870,-3.8711,0.0990,-0.0488,54.93,1593.93,93.63
14880,-3.8712,0.1061,-0.0459,679.93,1750.18,-297.00
14890,-3.8712,0.1108,-0.0457,1586.18,-1874.82,-422.00
14900,-3.8712,0.1096,-0.0487,-1804.44,-1843.57,-453.25
14910,-3.8712,0.1035,-0.0508,-1960.69,1765.81,-484.50
14920,-3.8712,0.0959,-0.0494,1258.06,1500.18,-453.25
14930,-3.8712,0.0900,-0.0468,289.31,1672.06,-390.75
14940,-3.8712,0.0881,-0.0468,-476.32,-1984.25,-390.75
14950,-3.8712,0.0907,-0.0499,-710.69,-1984.25,-406.37
14960,-3.8712,0.0963,-0.0530,-382.57,1609.50,-406.37
14970,-3.8712,0.1022,-0.0531,336.18,1218.93,-343.87
14980,-3.8712,0.1045,-0.0524,1086.18,1203.31,-156.37
14990,-3.8712,0.1011,-0.0522,1383.06,1297.06,-31.37
15000,-3.8712,0.0962,-0.0519,945.56,1312.68,-156.37
15010,-3.8712,0.0933,-0.0511,320.56,1359.56,-250.12
15020,-3.8712,0.0927,-0.0507,-54.44,1453.25,-265.75
15030,-3.8712,0.0941,-0.0518,-132.57,1515.75,-422.00
15040,-3.8712,0.0974,-0.0529,54.93,1375.18,-640.75
15050,-3.8712,0.1016,-0.0524,476.81,1234.56,-812.62
15060,-3.8712,0.1049,-0.0510,1008.06,1297.06,-797.00
15070,-3.8712,0.1063,-0.0490,1429.93,1468.93,-703.25
15080,-3.8712,0.1052,-0.0477,1617.43,1734.56,-531.37
15090,-3.8712,0.1018,-0.0482,1476.81,1890.81,-218.87
15100,-3.8711,0.0989,-0.0481,1039.31,1828.31,156.13
15110,-3.8711,0.0973,-0.0481,664.31,1843.93,312.38
15120,-3.8711,0.0967,-0.0499,461.18,1843.93,265.50
15130,-3.8711,0.0983,-0.0525,383.06,1609.56,124.88
15140,-3.8712,0.0991,-0.0537,586.18,1281.43,-125.12
15150,-3.8712,0.0972,-0.0535,695.56,1125.18,-422.00
15160,-3.8712,0.0938,-0.0541,445.56,1156.43,-703.25
15170,-3.8712,0.0913,-0.0569,8.06,1078.31,-1015.75
15180,-3.8712,0.0920,-0.0587,-304.44,718.87,-1250.12
15190,-3.8712,0.0955,-0.0566,-210.69,484.50,-1312.62
15200,-3.8712,0.0999,-0.0531,226.81,750.18,-1250.12
15210,-3.8712,0.1034,-0.0514,789.31,1203.31,-984.50
15220,-3.8712,0.1049,-0.0515,1242.43,1422.06,-562.62
15230,-3.8712,0.1047,-0.0509,1429.93,1406.43,-187.62
15240,-3.8711,0.1028,-0.0479,1414.31,1484.56,140.50
15250,-3.8711,0.1001,-0.0457,1164.31,1875.18,468.63
15260,-3.8711,0.0979,-0.0463,820.56,-1843.57,656.13
15270,-3.8711,0.0968,-0.0488,539.31,-1921.69,609.25
15280,-3.8711,0.0969,-0.0522,398.68,1750.18,468.63
15290,-3.8711,0.0984,-0.0547,414.31,1312.68,203.00
15300,-3.8712,0.0994,-0.0554,601.81,1000.18,-125.12
15310,-3.8712,0.0981,-0.0547,726.81,906.43,-390.75
15320,-3.8712,0.0958,-0.0536,570.56,1000.18,-468.87
15330,-3.8712,0.0935,-0.0531,273.68,1140.81,-359.50
15340,-3.8712,0.0914,-0.0527,-23.19,1203.25,-359.50
15350,-3.8712,0.0907,-0.0508,-288.82,1250.12,-437.62
15360,-3.8712,0.0918,-0.0485,-382.57,1500.12,-312.62
15370,-3.8712,0.0936,-0.0491,-241.94,1797.00,-156.37
15380,-3.8712,0.0950,-0.0530,-7.57,1718.87,-78.25
15390,-3.8712,0.0948,-0.0559,164.31,1218.93,-140.75
15400,-3.8712,0.0945,-0.0552,148.68,843.93,-562.62
15410,-3.8712,0.0967,-0.0529,101.81,937.68,-968.87
15420,-3.8712,0.1002,-0.0531,383.06,1234.56,-1203.25
15430,-3.8712,0.1027,-0.0555,836.18,1203.31,-1218.87
15440,-3.8712,0.1040,-0.0571,1148.68,890.81,-1078.25
15450,-3.8712,0.1053,-0.0564,1320.56,687.68,-859.50
15460,-3.8712,0.1060,-0.0541,1492.43,781.43,-547.00
15470,-3.8712,0.1046,-0.0503,1570.56,1078.31,-218.87
15480,-3.8711,0.1011,-0.0481,1398.68,1562.68,156.13
15490,-3.8711,0.0967,-0.0502,945.56,1843.93,359.25
15500,-3.8711,0.0956,-0.0543,383.06,1578.31,312.38
15510,-3.8711,0.0985,-0.0562,242.43,1047.06,124.88
15520,-3.8712,0.1025,-0.0541,617.43,812.68,-62.62
15530,-3.8712,0.1046,-0.0518,1133.06,1078.31,-265.75
15540,-3.8712,0.1039,-0.0514,1398.68,1375.18,-468.87
15550,-3.8712,0.1005,-0.0519,1304.93,1422.06,-593.87
15560,-3.8712,0.0961,-0.0522,867.43,1359.56,-625.12
15570,-3.8712,0.0922,-0.0533,304.93,1312.68,-562.62
15580,-3.8712,0.0889,-0.0544,-195.07,1172.00,-343.87
15590,-3.8712,0.0872,-0.0548,-616.94,1031.37,-156.37
15600,-3.8712,0.0886,-0.0549,-835.69,984.50,-234.50
15610,-3.8712,0.0928,-0.0549,-648.19,968.87,-343.87
15620,-3.8712,0.0967,-0.0542,-116.94,968.87,-234.50
15630,-3.8712,0.0984,-0.0526,383.06,1062.68,-47.00
15640,-3.8711,0.0974,-0.0526,601.81,1265.81,46.75
15650,-3.8711,0.0947,-0.0536,476.81,1265.81,31.13
15660,-3.8712,0.0933,-0.0531,133.06,1140.81,-140.75
15670,-3.8712,0.0946,-0.0505,-54.44,1203.25,-578.25
15680,-3.8712,0.0974,-0.0492,117.43,1531.43,-953.25
15690,-3.8712,0.1007,-0.0511,476.81,1703.31,-984.50
15700,-3.8712,0.1034,-0.0562,898.68,1453.31,-812.62
15710,-3.8712,0.1051,-0.0620,1242.43,812.68,-578.25
15720,-3.8712,0.1063,-0.0636,1461.18,62.68,-359.50
15730,-3.8712,0.1071,-0.0579,1617.43,-140.44,-156.43
15740,-3.8711,0.1053,-0.0513,1711.18,593.93,62.38
15750,-3.8711,0.1008,-0.0503,1492.43,1437.68,171.75
15760,-3.8711,0.0973,-0.0530,914.31,1562.68,124.88
15770,-3.8712,0.0973,-0.0551,461.18,1218.93,-93.87
15780,-3.8712,0.1011,-0.0557,461.18,953.31,-422.00
15790,-3.8712,0.1060,-0.0562,945.56,875.18,-750.12
15800,-3.8712,0.1084,-0.0574,1570.56,812.68,-890.75
15810,-3.8712,0.1064,-0.0583,1883.06,656.43,-890.75
15820,-3.8712,0.1010,-0.0580,1633.06,531.43,-859.50
15830,-3.8712,0.0953,-0.0565,929.93,578.31,-843.87
15840,-3.8712,0.0916,-0.0560,211.18,765.81,-828.25
15850,-3.8712,0.0900,-0.0552,-273.19,828.25,-703.25
15860,-3.8712,0.0909,-0.0530,-476.32,937.62,-468.87
15870,-3.8712,0.0947,-0.0520,-351.32,1218.87,-172.00
15880,-3.8711,0.1003,-0.0525,133.06,1343.93,203.00
15890,-3.8711,0.1056,-0.0519,851.81,1281.43,531.13
15900,-3.8711,0.1071,-0.0505,1523.68,1359.56,718.63
15910,-3.8711,0.1038,-0.0508,1711.18,1531.43,781.13
15920,-3.8711,0.0964,-0.0519,1289.31,1500.18,749.88
15930,-3.8711,0.0889,-0.0532,351.81,1359.56,421.75
15940,-3.8712,0.0858,-0.0536,-616.94,1187.62,-93.87
15950,-3.8712,0.0889,-0.0537,-1007.57,1140.75,-468.87
15960,-3.8712,0.0953,-0.0549,-616.94,1125.12,-672.00
15970,-3.8712,0.1001,-0.0569,211.18,968.93,-797.00
15980,-3.8712,0.1019,-0.0596,820.56,718.93,-765.75
15990,-3.8712,0.1005,-0.0621,1054.93,375.18,-640.75
16000,-3.8712,0.0955,-0.0623,867.43,47.06,-593.87
16010,-3.8712,0.0905,-0.0605,226.81,31.43,-718.87
16020,-3.8712,0.0874,-0.0582,-413.82,250.12,-1031.37
16030,-3.8712,0.0864,-0.0564,-804.44,547.00,-1406.37
16040,-3.8712,0.0891,-0.0577,-929.44,781.37,-1718.87
16050,-3.8712,0.0957,-0.0612,-585.69,609.50,-1890.75
16060,-3.8712,0.1052,-0.0615,258.06,172.06,-1703.25
16070,-3.8712,0.1125,-0.0575,1476.81,125.18,-1062.62
16080,-3.8712,0.1113,-0.0542,-1585.69,640.81,-328.25
16090,-3.8711,0.1008,-0.0552,-1741.94,1062.68,78.00
16100,-3.8711,0.0890,-0.0560,914.31,937.68,109.25
16110,-3.8711,0.0839,-0.0527,-601.32,828.25,62.38
16120,-3.8711,0.0870,-0.0479,-1257.57,1250.12,78.00
16130,-3.8711,0.0970,-0.0461,-851.32,1875.12,328.00
16140,-3.8711,0.1111,-0.0487,429.93,-1906.07,515.50
16150,-3.8711,0.1235,-0.0522,-1773.19,1765.81,593.63
16160,-3.8711,0.1288,-0.0543,-179.44,1312.68,828.00
16170,-3.8711,0.1230,-0.0552,492.43,1047.12,1046.75
16180,-3.8711,0.1094,-0.0555,-241.94,937.68,1015.50
16190,-3.8711,0.0963,-0.0560,-1991.94,890.81,687.38
16200,-3.8711,0.0896,-0.0573,336.18,828.31,31.13
16210,-3.8712,0.0905,-0.0583,-523.19,672.00,-781.37
16220,-3.8712,0.0973,-0.0588,-413.82,531.37,-1437.62
16230,-3.8712,0.1051,-0.0597,461.18,468.93,-1797.00
16240,-3.8712,0.1082,-0.0623,1461.18,359.56,-1859.50
16250,-3.8712,0.1060,-0.0654,1851.81,31.43,-1750.12
16260,-3.8712,0.1021,-0.0663,1570.56,-374.82,-1547.06
16270,-3.8712,0.0985,-0.0638,1070.56,-484.19,-1187.68
16280,-3.8712,0.0958,-0.0601,617.43,-171.69,-765.81
16290,-3.8712,0.0948,-0.0557,273.68,312.68,-375.12
16300,-3.8711,0.0955,-0.0519,148.68,875.18,62.38
16310,-3.8711,0.0962,-0.0509,226.81,1359.56,546.75
16320,-3.8711,0.0977,-0.0507,320.56,1484.56,874.88
16330,-3.8711,0.0996,-0.0491,508.06,1515.81,984.25
16340,-3.8711,0.1007,-0.0480,758.06,1718.93,890.50
16350,-3.8711,0.1000,-0.0481,898.68,1859.56,640.50
16360,-3.8711,0.0997,-0.0487,804.93,1843.93,156.13
16370,-3.8712,0.1006,-0.0507,773.68,1765.81,-453.25
16380,-3.8712,0.1018,-0.0547,883.06,1515.81,-1015.75
16390,-3.8712,0.1039,-0.0594,1039.31,1000.18,-1547.00
16400,-3.8712,0.1058,-0.0636,1304.93,390.81,-1875.12
16410,-3.8712,0.1060,-0.0652,1554.93,-140.44,-1828.31
16420,-3.8712,0.1045,-0.0627,1570.56,-343.57,-1468.93
16430,-3.8712,0.1014,-0.0580,1383.06,-31.07,-953.31
16440,-3.8712,0.0979,-0.0543,992.43,578.31,-515.75
16450,-3.8712,0.0955,-0.0538,539.31,1047.06,-297.00
16460,-3.8712,0.0951,-0.0564,226.81,1109.56,-343.87
16470,-3.8712,0.0975,-0.0609,179.93,781.43,-656.37
16480,-3.8712,0.1017,-0.0647,492.43,203.31,-1000.12
16490,-3.8712,0.1068,-0.0649,1023.68,-281.07,-1312.68
16500,-3.8712,0.1119,-0.0630,1679.93,-312.32,-1500.18
16510,-3.8712,0.1136,-0.0608,-1663.82,-62.32,-1406.43
16520,-3.8712,0.1111,-0.0577,-1445.07,218.93,-890.75
16530,-3.8712,0.1062,-0.0548,-1773.19,609.56,-109.50
16540,-3.8711,0.1019,-0.0532,1601.81,984.56,624.88
16550,-3.8711,0.1025,-0.0516,1054.93,1187.68,1171.75
16560,-3.8711,0.1075,-0.0490,1133.06,1390.81,1406.13
16570,-3.8711,0.1119,-0.0466,1773.68,1734.56,1328.00
16580,-3.8711,0.1116,-0.0455,-1663.82,-1968.57,1046.75
16590,-3.8711,0.1067,-0.0455,-1710.69,-1827.94,609.25
16600,-3.8711,0.0986,-0.0455,1664.31,-1827.94,156.13
16610,-3.8712,0.0887,-0.0474,633.06,-1827.94,-125.12
16620,-3.8712,0.0804,-0.0522,-632.57,1937.62,-265.75
16630,-3.8712,0.0748,-0.0570,-1695.07,1312.62,-390.75
16640,-3.8712,0.0724,-0.0586,1586.18,703.25,-500.12
16650,-3.8712,0.0743,-0.0565,1273.68,500.12,-562.62
16660,-3.8712,0.0796,-0.0549,1523.68,765.75,-562.62
16670,-3.8712,0.0862,-0.0564,-1804.44,968.87,-593.87
16680,-3.8712,0.0924,-0.0588,-960.69,781.37,-797.00
16690,-3.8712,0.0969,-0.0607,-163.82,468.87,-1031.37
16700,-3.8712,0.0989,-0.0610,414.31,234.56,-1140.75
16710,-3.8712,0.0983,-0.0598,664.31,187.68,-1156.37
16720,-3.8712,0.0973,-0.0580,586.18,343.93,-1015.75
16730,-3.8712,0.0964,-0.0568,461.18,578.31,-640.75
16740,-3.8712,0.0970,-0.0566,351.81,734.56,-265.75
16750,-3.8712,0.1002,-0.0586,429.93,750.18,-156.37
16760,-3.8712,0.1063,-0.0603,836.18,500.18,-328.25
16770,-3.8712,0.1147,-0.0593,1617.43,281.43,-484.50
16780,-3.8712,0.1219,-0.0563,-1304.44,406.43,-437.62
16790,-3.8712,0.1255,-0.0535,-382.57,797.06,-250.12
16800,-3.8712,0.1248,-0.0540,70.56,1156.49,-234.50
16810,-3.8712,0.1200,-0.0568,-23.19,1093.93,-343.87
16820,-3.8712,0.1143,-0.0596,-632.57,734.56,-453.25
16830,-3.8712,0.1115,-0.0601,-1366.94,375.18,-453.25
16840,-3.8712,0.1111,-0.0581,-1726.32,312.68,-312.62
16850,-3.8712,0.1099,-0.0566,-1773.19,562.68,-343.87
16860,-3.8712,0.1075,-0.0563,-1929.44,750.18,-515.75
16870,-3.8712,0.1055,-0.0558,1773.68,797.06,-703.25
16880,-3.8712,0.1034,-0.0554,1508.06,859.56,-718.87
16890,-3.8712,0.1003,-0.0560,1242.43,906.43,-500.12
16900,-3.8712,0.0947,-0.0574,851.81,828.31,-328.25
16910,-3.8712,0.0865,-0.0576,133.06,656.43,-281.37
16920,-3.8712,0.0793,-0.0568,-913.82,625.12,-297.00
16930,-3.8712,0.0774,-0.0566,-1835.69,734.50,-406.37
16940,-3.8712,0.0815,-0.0573,1914.31,750.12,-453.25
16950,-3.8712,0.0886,-0.0575,-1554.44,672.00,-343.87
16960,-3.8712,0.0942,-0.0585,-648.19,640.75,-93.87
16970,-3.8711,0.0968,-0.0601,70.56,515.81,171.75
16980,-3.8711,0.0974,-0.0597,398.68,312.68,312.38
16990,-3.8711,0.0970,-0.0570,476.81,359.56,328.00
17000,-3.8712,0.0958,-0.0564,429.93,703.31,-0.12
17010,-3.8712,0.0959,-0.0587,273.68,781.43,-437.62
17020,-3.8712,0.0995,-0.0607,289.31,484.56,-828.25
17030,-3.8712,0.1047,-0.0603,742.43,234.56,-1218.87
17040,-3.8712,0.1107,-0.0593,1414.31,281.43,-1500.12
17050,-3.8712,0.1161,-0.0592,-1820.07,406.43,-1656.37
17060,-3.8712,0.1195,-0.0592,-1132.57,422.06,-1453.25
17070,-3.8712,0.1195,-0.0591,-695.07,422.06,-1000.12
17080,-3.8712,0.1168,-0.0588,-695.07,437.68,-547.00
17090,-3.8712,0.1124,-0.0583,-1038.82,468.93,-78.25
17100,-3.8711,0.1067,-0.0581,-1601.32,531.43,234.25
17110,-3.8711,0.1016,-0.0582,1664.31,562.68,296.75
17120,-3.8711,0.0972,-0.0579,1008.06,547.06,171.75
17130,-3.8712,0.0929,-0.0574,445.56,593.93,-31.37
17140,-3.8712,0.0887,-0.0582,-101.32,656.37,-172.00
17150,-3.8712,0.0858,-0.0609,-632.57,547.00,-265.75
17160,-3.8712,0.0858,-0.0627,-1007.57,203.25,-531.37
17170,-3.8712,0.0891,-0.0623,-1007.57,-31.13,-843.93
17180,-3.8712,0.0940,-0.0594,-585.69,31.37,-890.75
17190,-3.8712,0.0980,-0.0555,39.31,390.81,-703.25
17200,-3.8712,0.1003,-0.0537,554.93,890.81,-593.87
17210,-3.8712,0.1012,-0.0542,851.81,1125.18,-625.12
17220,-3.8712,0.1006,-0.0548,961.18,1062.68,-625.12
17230,-3.8712,0.0997,-0.0542,883.06,984.56,-515.75
17240,-3.8712,0.0996,-0.0531,773.68,1062.68,-390.75
17250,-3.8712,0.1013,-0.0530,758.06,1203.31,-187.62
17260,-3.8711,0.1041,-0.0526,976.81,1218.93,93.63
17270,-3.8711,0.1061,-0.0520,1336.18,1265.81,499.88
17280,-3.8711,0.1078,-0.0529,1586.18,1343.93,906.13
17290,-3.8711,0.1080,-0.0564,1804.93,1234.56,1156.13
17300,-3.8711,0.1047,-0.0604,1836.18,781.43,1093.63
17310,-3.8711,0.0997,-0.0612,1414.31,265.81,656.13
17320,-3.8711,0.0944,-0.0588,773.68,172.06,31.13
17330,-3.8712,0.0889,-0.0574,86.18,468.93,-609.50
17340,-3.8712,0.0854,-0.0588,-616.94,656.37,-1187.62
17350,-3.8712,0.0856,-0.0623,-1054.44,468.87,-1797.00
17360,-3.8712,0.0892,-0.0653,-1038.82,31.37,1796.75
17370,-3.8712,0.0951,-0.0665,-570.07,-359.25,1749.82
17380,-3.8712,0.1027,-0.0662,179.93,-515.44,1999.82
17390,-3.8712,0.1091,-0.0648,1148.68,-468.57,-1578.31
17400,-3.8712,0.1116,-0.0635,1976.81,-296.69,-1156.43
17410,-3.8712,0.1099,-0.0626,-1710.69,-124.82,-859.56
17420,-3.8712,0.1056,-0.0612,-1929.44,-15.44,-562.68
17430,-3.8712,0.1007,-0.0583,1523.68,172.06,-93.87
17440,-3.8711,0.0983,-0.0557,898.68,531.43,234.25
17450,-3.8711,0.0997,-0.0548,586.18,875.18,359.25
17460,-3.8711,0.1030,-0.0566,773.68,984.56,468.63
17470,-3.8711,0.1061,-0.0596,1195.56,750.18,406.13
17480,-3.8711,0.1077,-0.0605,1586.18,375.18,171.75
17490,-3.8712,0.1082,-0.0590,1789.31,250.18,-140.75
17500,-3.8712,0.1069,-0.0554,1851.81,453.31,-328.25
17510,-3.8712,0.1034,-0.0531,1695.56,906.43,-422.00
17520,-3.8712,0.0980,-0.0547,1242.43,1203.31,-593.87
17530,-3.8712,0.0931,-0.0574,554.93,1000.18,-718.87
17540,-3.8712,0.0903,-0.0568,-70.07,656.37,-687.62
17550,-3.8712,0.0902,-0.0535,-429.44,734.50,-500.12
17560,-3.8712,0.0912,-0.0522,-445.07,1156.37,-156.37
17570,-3.8711,0.0924,-0.0542,-320.07,1312.62,187.38
17580,-3.8711,0.0930,-0.0575,-163.82,1062.62,374.88
17590,-3.8711,0.0930,-0.0592,-85.69,640.75,484.25
17600,-3.8711,0.0945,-0.0580,-85.69,422.00,562.38
17610,-3.8711,0.0977,-0.0559,101.81,578.31,390.50
17620,-3.8711,0.1010,-0.0558,508.06,843.93,46.75
17630,-3.8712,0.1033,-0.0576,929.93,859.56,-281.37
17640,-3.8712,0.1056,-0.0597,1226.81,625.18,-672.00
17650,-3.8712,0.1085,-0.0615,1523.68,359.56,-1125.12
17660,-3.8712,0.1111,-0.0632,1898.68,125.18,-1484.50
17670,-3.8712,0.1130,-0.0646,-1773.19,-93.57,-1625.18
17680,-3.8712,0.1136,-0.0656,-1523.19,-265.44,-1750.18
17690,-3.8712,0.1135,-0.0660,-1445.07,-390.44,-1875.18
17700,-3.8712,0.1139,-0.0653,-1460.69,-452.94,-1750.18
17710,-3.8712,0.1135,-0.0636,-1413.82,-359.19,-1343.93
17720,-3.8712,0.1115,-0.0614,-1460.69,-140.44,-812.68
17730,-3.8712,0.1074,-0.0598,-1726.32,140.81,-312.62
17740,-3.8711,0.1025,-0.0588,1758.06,343.93,124.88
17750,-3.8711,0.1000,-0.0580,1133.06,468.93,453.00
17760,-3.8711,0.0997,-0.0569,804.93,578.31,546.75
17770,-3.8711,0.1000,-0.0555,773.68,718.93,453.00
17780,-3.8711,0.0996,-0.0546,804.93,890.81,343.63
17790,-3.8711,0.0974,-0.0553,758.06,1015.81,203.00
17800,-3.8712,0.0942,-0.0573,476.81,922.06,-125.12
17810,-3.8712,0.0919,-0.0583,70.56,672.06,-640.75
17820,-3.8712,0.0916,-0.0573,-226.32,531.37,-1078.25
17830,-3.8712,0.0922,-0.0564,-273.19,672.00,-1203.25
17840,-3.8712,0.0931,-0.0570,-195.07,781.37,-1156.37
17850,-3.8712,0.0944,-0.0577,-70.07,703.25,-1140.75
17860,-3.8712,0.0940,-0.0593,86.18,609.56,-1140.75
17870,-3.8712,0.0928,-0.0612,39.31,406.43,-1000.12
17880,-3.8712,0.0935,-0.0610,-116.94,172.00,-718.87
17890,-3.8712,0.0966,-0.0586,-23.19,187.62,-375.12
17900,-3.8711,0.0984,-0.0569,367.43,500.18,78.00
17910,-3.8711,0.0991,-0.0575,601.81,718.93,562.38
17920,-3.8711,0.1008,-0.0581,695.56,640.81,921.75
17930,-3.8711,0.1034,-0.0575,914.31,562.68,921.75
17940,-3.8711,0.1049,-0.0551,1242.43,640.81,484.25
17950,-3.8712,0.1036,-0.0530,1429.93,953.31,-140.75
17960,-3.8712,0.0997,-0.0533,1273.68,1218.93,-781.37
17970,-3.8712,0.0955,-0.0557,773.68,1172.06,-1234.50
17980,-3.8712,0.0947,-0.0592,226.81,875.18,-1515.75
17990,-3.8712,0.0983,-0.0624,133.06,422.06,-1703.25
18000,-3.8712,0.1039,-0.0637,586.18,15.81,-1593.87
18010,-3.8712,0.1088,-0.0632,1304.93,-156.07,-1078.31
18020,-3.8712,0.1105,-0.0612,1929.93,-93.57,-468.93
18030,-3.8711,0.1078,-0.0580,-1851.32,172.06,15.50
18040,-3.8711,0.1027,-0.0551,1804.93,578.31,359.25
18050,-3.8711,0.0997,-0.0529,1148.68,953.31,531.13
18060,-3.8711,0.1012,-0.0516,773.68,1234.56,484.25
18070,-3.8711,0.1064,-0.0527,961.18,1390.81,234.25
18080,-3.8712,0.1124,-0.0563,1633.06,1250.18,-203.25
18090,-3.8712,0.1152,-0.0592,-1601.32,797.06,-765.75
18100,-3.8712,0.1140,-0.0593,-1241.94,422.06,-1390.75
18110,-3.8712,0.1097,-0.0586,-1398.19,406.43,-1875.12
18120,-3.8712,0.1047,-0.0593,-1945.07,500.18,-1968.87
18130,-3.8712,0.1011,-0.0612,1414.31,406.43,-1687.62
18140,-3.8712,0.0991,-0.0623,945.56,172.06,-1172.00
18150,-3.8712,0.0988,-0.0607,695.56,31.43,-531.37
18160,-3.8711,0.0992,-0.0564,648.68,234.56,46.75
18170,-3.8711,0.1002,-0.0515,711.18,781.43,531.13
18180,-3.8711,0.0996,-0.0491,836.18,1406.43,984.25
18190,-3.8711,0.0964,-0.0500,758.06,1718.93,1218.63
18200,-3.8711,0.0919,-0.0526,351.81,1593.93,1093.63
18210,-3.8711,0.0887,-0.0541,-226.32,1265.75,656.13
18220,-3.8711,0.0898,-0.0540,-632.57,1078.25,124.88
18230,-3.8712,0.0944,-0.0543,-491.94,1093.87,-312.62
18240,-3.8712,0.0992,-0.0560,86.18,1047.06,-687.62
18250,-3.8712,0.1025,-0.0576,711.18,828.31,-984.50
18260,-3.8712,0.1046,-0.0576,1133.06,625.18,-937.62
18270,-3.8712,0.1053,-0.0573,1398.68,625.18,-547.00
18280,-3.8712,0.1035,-0.0573,1492.43,672.06,-187.62
18290,-3.8712,0.1000,-0.0576,1258.06,672.06,-15.75
18300,-3.8712,0.0963,-0.0582,804.93,625.18,-0.12
18310,-3.8712,0.0953,-0.0585,336.18,547.06,-265.75
18320,-3.8712,0.0991,-0.0581,211.18,515.81,-703.25
18330,-3.8712,0.1046,-0.0576,695.56,562.68,-984.50
18340,-3.8712,0.1089,-0.0573,1398.68,625.18,-1078.25
18350,-3.8712,0.1133,-0.0573,1945.56,672.06,-1000.12
18360,-3.8712,0.1171,-0.0579,-1491.94,672.06,-718.87
18370,-3.8712,0.1185,-0.0580,-1007.57,593.93,-359.50
18380,-3.8712,0.1168,-0.0560,-820.07,578.31,-15.75
18390,-3.8711,0.1121,-0.0536,-1038.82,828.31,296.75
18400,-3.8711,0.1086,-0.0525,-1648.19,1140.81,546.75
18410,-3.8711,0.1091,-0.0533,1914.31,1281.43,656.13
18420,-3.8711,0.1113,-0.0559,1976.81,1172.06,453.00
18430,-3.8711,0.1138,-0.0579,-1741.94,843.93,62.38
18440,-3.8712,0.1143,-0.0582,-1429.44,593.93,-359.50
18450,-3.8712,0.1119,-0.0575,-1366.94,547.06,-734.50
18460,-3.8712,0.1071,-0.0571,-1663.82,640.81,-1015.75
18470,-3.8712,0.1030,-0.0586,1711.18,687.68,-1187.62
18480,-3.8712,0.1019,-0.0626,1195.56,500.18,-1234.50
18490,-3.8712,0.1021,-0.0676,1054.93,-15.44,-1187.68
18500,-3.8712,0.1036,-0.0693,1070.56,-656.07,-968.93
18510,-3.8712,0.1075,-0.0665,1273.68,-874.82,-672.06
18520,-3.8712,0.1135,-0.0630,1773.68,-515.44,-468.93
18530,-3.8712,0.1210,-0.0624,-1460.69,-62.32,-422.06
18540,-3.8712,0.1259,-0.0630,-507.57,15.81,-547.00
18550,-3.8712,0.1237,-0.0609,117.43,-62.26,-765.81
18560,-3.8712,0.1151,-0.0569,-163.82,203.31,-765.75
18570,-3.8712,0.1063,-0.0570,-1257.57,718.93,-656.37
18580,-3.8712,0.1034,-0.0607,1617.43,703.31,-687.62
18590,-3.8712,0.1091,-0.0630,1242.43,234.56,-687.62
18600,-3.8712,0.1191,-0.0632,1976.81,-62.32,-562.68
18610,-3.8712,0.1273,-0.0620,-741.94,-93.57,-281.43
18620,-3.8711,0.1307,-0.0615,304.93,62.74,93.63
18630,-3.8711,0.1278,-0.0630,742.43,125.24,421.75
18640,-3.8711,0.1194,-0.0641,367.43,-62.26,437.32
18650,-3.8711,0.1102,-0.0631,-710.69,-202.94,296.69
18660,-3.8711,0.1042,-0.0605,-1882.57,-77.94,140.44
18670,-3.8712,0.1034,-0.0614,1351.81,250.18,-109.50
18680,-3.8712,0.1072,-0.0665,1242.43,140.81,-593.87
18690,-3.8712,0.1127,-0.0713,1726.81,-515.44,-1250.18
18700,-3.8712,0.1183,-0.0721,-1570.07,-1124.82,-1765.81
18710,-3.8712,0.1230,-0.0707,-851.32,-1234.19,-1906.43
18720,-3.8712,0.1237,-0.0688,-241.94,-1046.69,-1781.43
18730,-3.8712,0.1184,-0.0674,-163.82,-812.32,-1578.31
18740,-3.8712,0.1097,-0.0665,-835.69,-624.82,-1297.06
18750,-3.8712,0.1025,-0.0664,-1945.07,-515.44,-953.31
18760,-3.8712,0.1007,-0.0659,1133.06,-499.82,-812.68
18770,-3.8712,0.1041,-0.0641,898.68,-437.32,-890.81
18780,-3.8712,0.1090,-0.0621,1336.18,-202.94,-937.68
18790,-3.8712,0.1110,-0.0619,1961.18,47.06,-734.50
18800,-3.8712,0.1106,-0.0630,-1788.82,78.31,-468.87
18810,-3.8712,0.1094,-0.0643,-1835.69,-62.32,-359.56
18820,-3.8712,0.1079,-0.0653,-1991.94,-234.19,-343.93
18830,-3.8712,0.1088,-0.0662,1820.56,-359.19,-343.93
18840,-3.8712,0.1123,-0.0664,1929.93,-468.57,-328.31
18850,-3.8712,0.1156,-0.0654,-1616.94,-499.82,-234.56
18860,-3.8712,0.1166,-0.0645,-1195.07,-374.82,-218.93
18870,-3.8712,0.1149,-0.0631,-1070.07,-249.82,-343.93
18880,-3.8712,0.1115,-0.0627,-1288.82,-77.94,-547.06
18890,-3.8712,0.1080,-0.0635,-1726.32,-31.07,-734.56
18900,-3.8712,0.1063,-0.0634,1836.18,-124.82,-906.43
18910,-3.8712,0.1078,-0.0624,1617.43,-109.19,-922.06
18920,-3.8712,0.1113,-0.0626,1804.93,15.81,-734.50
18930,-3.8712,0.1147,-0.0651,-1741.94,-15.44,-422.06
18940,-3.8712,0.1172,-0.0660,-1304.44,-327.94,-156.43
18950,-3.8711,0.1165,-0.0638,-991.94,-452.94,77.94
18960,-3.8711,0.1124,-0.0623,-1085.69,-171.69,234.19
18970,-3.8711,0.1090,-0.0638,-1601.32,31.43,156.13
18980,-3.8712,0.1079,-0.0674,1961.18,-171.69,-218.93
18990,-3.8712,0.1082,-0.0692,1820.56,-624.82,-781.43
19000,-3.8712,0.1106,-0.0671,1851.81,-859.19,-1234.56
19010,-3.8712,0.1134,-0.0640,-1835.69,-593.57,-1359.56
19020,-3.8712,0.1134,-0.0648,-1476.32,-187.32,-1218.93
19030,-3.8712,0.1105,-0.0696,-1476.32,-296.69,-1187.68
19040,-3.8712,0.1067,-0.0720,-1851.32,-906.07,-1328.31
19050,-3.8712,0.1041,-0.0682,1664.31,-1218.57,-1328.31
19060,-3.8712,0.1034,-0.0621,1336.18,-734.19,-1172.06
19070,-3.8712,0.1035,-0.0601,1242.43,47.06,-1000.12
19080,-3.8712,0.1039,-0.0621,1258.06,312.68,-718.87
19090,-3.8712,0.1053,-0.0657,1304.93,47.06,-375.12
19100,-3.8712,0.1090,-0.0671,1492.43,-406.07,-15.81
19110,-3.8711,0.1149,-0.0657,1961.18,-593.57,327.94
19120,-3.8711,0.1199,-0.0631,-1288.82,-406.07,640.44
19130,-3.8711,0.1215,-0.0619,-648.19,-77.94,702.94
19140,-3.8711,0.1191,-0.0636,-445.07,78.31,374.88
19150,-3.8712,0.1154,-0.0663,-741.94,-140.44,-156.43
19160,-3.8712,0.1138,-0.0656,-1226.32,-484.19,-718.93
19170,-3.8712,0.1134,-0.0637,-1429.44,-390.44,-1156.43
19180,-3.8712,0.1119,-0.0651,-1476.32,-156.07,-1468.93
19190,-3.8712,0.1110,-0.0677,-1663.82,-327.94,-1797.06
19200,-3.8712,0.1132,-0.0688,-1788.82,-671.69,1984.19
19210,-3.8712,0.1171,-0.0688,-1507.57,-812.32,-1859.56
19220,-3.8712,0.1205,-0.0676,-1007.57,-812.32,-1500.18
19230,-3.8712,0.1207,-0.0657,-570.07,-656.07,-1031.43
19240,-3.8712,0.1161,-0.0645,-538.82,-406.07,-515.81
19250,-3.8712,0.1102,-0.0648,-1132.57,-249.82,-93.93
19260,-3.8711,0.1063,-0.0652,-1882.57,-296.69,218.57
19270,-3.8711,0.1053,-0.0638,1617.43,-343.57,281.07
19280,-3.8711,0.1072,-0.0615,1492.43,-171.69,124.82
19290,-3.8712,0.1090,-0.0604,1726.81,125.18,-31.37
19300,-3.8712,0.1089,-0.0605,1961.18,265.81,-172.00
19310,-3.8712,0.1077,-0.0610,1945.56,250.18,-312.62
19320,-3.8712,0.1063,-0.0618,1789.31,187.68,-437.62
19330,-3.8712,0.1055,-0.0632,1617.43,93.93,-500.12
19340,-3.8712,0.1058,-0.0651,1508.06,-93.57,-515.81
19350,-3.8712,0.1067,-0.0671,1554.93,-327.94,-703.31
19360,-3.8712,0.1062,-0.0686,1664.31,-593.57,-1203.31
19370,-3.8712,0.1038,-0.0677,1601.81,-781.07,-1765.81
19380,-3.8712,0.1008,-0.0664,1289.31,-671.69,1827.94
19390,-3.8712,0.0995,-0.0669,914.31,-499.82,1765.44
19400,-3.8712,0.1005,-0.0675,742.43,-562.32,1921.69
19410,-3.8712,0.1041,-0.0669,867.43,-640.44,-1656.43
19420,-3.8712,0.1094,-0.0653,1336.18,-562.32,-968.93
19430,-3.8712,0.1157,-0.0631,-1991.94,-359.19,-265.81
19440,-3.8711,0.1232,-0.0594,-1179.44,-77.94,390.44
19450,-3.8711,0.1277,-0.0548,-226.32,390.81,1062.38
19460,-3.8711,0.1252,-0.0503,351.81,984.62,1765.50
19470,-3.8711,0.1183,-0.0493,39.31,1562.74,-1906.37
19480,-3.8711,0.1121,-0.0530,-851.32,1687.68,1703.00
19490,-3.8711,0.1090,-0.0577,-1648.19,1218.93,890.50
19500,-3.8711,0.1108,-0.0615,1961.18,609.56,187.38
19510,-3.8712,0.1141,-0.0651,-1804.44,125.18,-281.37
19520,-3.8712,0.1162,-0.0670,-1382.57,-327.94,-484.56
19530,-3.8712,0.1199,-0.0680,-1116.94,-577.94,-656.43
19540,-3.8712,0.1223,-0.0698,-648.19,-702.94,-1187.68
19550,-3.8712,0.1201,-0.0707,-335.69,-937.32,-1781.43
19560,-3.8712,0.1134,-0.0688,-616.94,-1046.69,-1937.68
19570,-3.8712,0.1061,-0.0653,-1476.32,-812.32,-1765.81
19580,-3.8712,0.1036,-0.0651,1586.18,-359.19,-1484.56
19590,-3.8712,0.1061,-0.0673,1273.68,-327.94,-1125.18
19600,-3.8712,0.1113,-0.0670,1586.18,-609.19,-812.68
19610,-3.8712,0.1160,-0.0664,-1741.94,-577.94,-609.56
19620,-3.8712,0.1178,-0.0667,-1148.19,-499.82,-328.31
19630,-3.8711,0.1171,-0.0643,-913.82,-531.07,77.94
19640,-3.8711,0.1165,-0.0598,-1007.57,-234.19,452.94
19650,-3.8711,0.1149,-0.0581,-1085.69,343.93,640.50
19660,-3.8711,0.1112,-0.0615,-1288.82,562.68,593.63
19670,-3.8711,0.1082,-0.0664,-1757.57,125.18,234.25
19680,-3.8712,0.1039,-0.0696,1851.81,-499.82,-468.93
19690,-3.8712,0.1011,-0.0690,1304.93,-906.07,-1203.31
19700,-3.8712,0.1051,-0.0665,945.56,-827.94,-1953.31
19710,-3.8712,0.1100,-0.0667,1461.18,-515.44,1609.19
19720,-3.8712,0.1106,-0.0664,-1913.82,-531.07,1999.82
19730,-3.8712,0.1079,-0.0668,-1835.69,-499.82,-1437.68
19740,-3.8712,0.1064,-0.0712,1820.56,-546.69,-1109.56
19750,-3.8712,0.1095,-0.0753,1633.06,-1109.19,-781.43
19760,-3.8712,0.1158,-0.0752,-1976.32,-1640.44,-437.68
19770,-3.8712,0.1216,-0.0719,-1163.82,-1624.82,-375.18
19780,-3.8712,0.1260,-0.0690,-429.44,-1202.94,-578.31
19790,-3.8712,0.1285,-0.0653,133.06,-827.88,-812.68
19800,-3.8712,0.1287,-0.0597,461.18,-359.13,-812.68
19810,-3.8712,0.1277,-0.0531,476.81,359.62,-515.75
19820,-3.8711,0.1256,-0.0482,351.81,1203.37,265.50
19830,-3.8711,0.1215,-0.0507,86.18,1828.37,1578.00
19840,-3.8711,0.1183,-0.0605,-445.07,1515.81,-1390.75
19850,-3.8711,0.1216,-0.0681,-851.32,250.18,-1234.50
19860,-3.8711,0.1309,-0.0685,-429.44,-718.57,1749.82
19870,-3.8711,0.1343,-0.0789,758.06,-765.38,156.07
19880,-3.8711,0.1244,-0.0951,1195.56,1906.49,327.94
19890,-3.8711,0.1052,-0.0981,-70.07,-171.69,546.63
19900,-3.8712,0.0870,-0.0945,1476.81,-562.32,-1609.62
19910,-3.8712,0.0806,-0.0913,-851.32,-93.63,93.51
19920,-3.8713,0.0864,-0.0868,-1679.44,312.62,-547.06
19930,-3.8713,0.0977,-0.0846,-929.44,890.75,-234.56
19940,-3.8712,0.1017,-0.0886,508.06,1172.06,156.07
19950,-3.8712,0.0958,-0.0969,1023.68,656.43,1343.57
19960,-3.8712,0.0881,-0.1028,273.68,-406.07,-1203.37
19970,-3.8712,0.0824,-0.0994,-710.69,-1156.13,-593.99
19980,-3.8712,0.0831,-0.0901,-1445.07,-718.63,-453.37
19990,-3.8712,0.0898,-0.0831,-1351.32,468.87,-375.18
20000,-3.8712,0.0958,-0.0818,-491.94,1359.50,-109.56
20010,-3.8711,0.0975,-0.0824,273.68,1531.43,140.44
20020,-3.8711,0.0970,-0.0807,492.43,1453.31,187.32
20030,-3.8712,0.0981,-0.0808,429.93,1672.06,-62.68
20040,-3.8712,0.1006,-0.0852,570.56,1656.43,-187.68
20050,-3.8711,0.1013,-0.0876,883.06,1093.93,390.44
20060,-3.8711,0.0989,-0.0867,976.81,781.43,718.57
20070,-3.8711,0.0983,-0.0874,664.31,906.43,312.32
20080,-3.8712,0.0992,-0.0916,586.18,812.68,-297.06
20090,-3.8712,0.0992,-0.0946,711.18,281.43,-1062.68
20100,-3.8712,0.1000,-0.0939,711.18,-109.19,-1843.99
20110,-3.8712,0.1024,-0.0927,804.93,-15.44,1593.51
20120,-3.8712,0.1029,-0.0935,1117.43,140.81,1437.32
20130,-3.8712,0.1002,-0.0950,1179.93,31.43,1656.07
20140,-3.8712,0.0979,-0.0959,836.18,-156.07,-1781.49
20150,-3.8712,0.0983,-0.0957,539.31,-281.07,-1078.37
20160,-3.8712,0.1005,-0.0947,586.18,-249.82,-422.12
20170,-3.8711,0.1033,-0.0938,867.43,-124.82,62.26
20180,-3.8711,0.1062,-0.0929,1226.81,0.18,140.44
20190,-3.8712,0.1077,-0.0923,1601.81,109.56,-125.18
20200,-3.8712,0.1061,-0.0913,1789.31,187.68,-609.56
20210,-3.8712,0.1024,-0.0892,1586.18,312.68,-1281.43
20220,-3.8712,0.0980,-0.0841,1117.43,578.31,-1672.06
20230,-3.8712,0.0934,-0.0786,554.93,1234.56,-1593.93
20240,-3.8712,0.0892,-0.0798,-38.82,1937.62,-1093.93
20250,-3.8712,0.0867,-0.0875,-570.07,1781.37,-437.68
20260,-3.8711,0.0894,-0.0941,-898.19,797.00,109.19
20270,-3.8711,0.0958,-0.0946,-554.44,-46.75,609.13
20280,-3.8711,0.0992,-0.0911,273.68,-109.19,890.38
20290,-3.8711,0.0958,-0.0883,711.18,343.93,781.07
20300,-3.8711,0.0863,-0.0869,273.68,703.31,327.94
20310,-3.8712,0.0770,-0.0859,-945.07,875.12,-453.31
20320,-3.8712,0.0754,-0.0881,1867.43,1000.12,-1437.68
20330,-3.8712,0.0800,-0.0879,1664.31,718.87,-1984.56
20340,-3.8712,0.0886,-0.0848,-1757.57,750.12,1812.32
20350,-3.8712,0.1005,-0.0862,-648.19,1140.75,1765.44
20360,-3.8712,0.1097,-0.0891,867.43,968.93,-1562.68
20370,-3.8712,0.1132,-0.0891,-1945.07,593.93,-484.56
20380,-3.8711,0.1124,-0.0879,-1507.57,593.93,452.94
20390,-3.8711,0.1096,-0.0880,-1601.32,750.18,1124.82
20400,-3.8711,0.1057,-0.0873,-1960.69,734.56,1515.44
20410,-3.8711,0.1033,-0.0867,1539.31,828.31,1281.07
20420,-3.8711,0.1053,-0.0891,1226.81,906.43,374.82
20430,-3.8712,0.1102,-0.0911,1492.43,593.93,-625.18
20440,-3.8712,0.1139,-0.0884,-1882.57,343.93,-1343.93
20450,-3.8712,0.1151,-0.0857,-1413.82,687.68,-1812.68
20460,-3.8712,0.1141,-0.0895,-1257.57,1031.43,1906.07
20470,-3.8712,0.1088,-0.0951,-1382.57,547.06,1937.32
20480,-3.8712,0.1013,-0.0972,1929.93,-171.69,-1750.24
20490,-3.8712,0.0986,-0.0957,976.81,-437.32,-1297.12
20500,-3.8712,0.1010,-0.0918,633.06,-249.82,-1140.87
20510,-3.8712,0.1045,-0.0903,929.93,250.18,-1218.93
20520,-3.8712,0.1055,-0.0912,1383.06,437.68,-1125.18
20530,-3.8712,0.1016,-0.0918,1508.06,328.31,-937.68
20540,-3.8712,0.0977,-0.0883,1008.06,250.18,-609.56
20550,-3.8712,0.0989,-0.0856,508.06,703.31,-656.43
20560,-3.8712,0.0984,-0.0851,664.31,1047.06,-734.56
20570,-3.8712,0.0963,-0.0824,601.81,1109.56,-250.18
20580,-3.8712,0.1005,-0.0850,336.18,1453.31,-250.18
20590,-3.8712,0.1060,-0.0894,867.43,1125.18,-437.68
20600,-3.8712,0.1067,-0.0847,1570.56,562.68,-187.68
20610,-3.8712,0.1057,-0.0776,1664.31,1156.43,-93.93
20620,-3.8711,0.1056,-0.0784,1539.31,-1937.32,62.32
20630,-3.8711,0.1038,-0.0854,1523.68,1968.93,124.82
20640,-3.8712,0.1018,-0.0900,1289.31,1062.68,-78.31
20650,-3.8712,0.1055,-0.0916,1039.31,484.56,-422.06
20660,-3.8712,0.1163,-0.0918,1508.06,281.43,-859.56
20670,-3.8712,0.1274,-0.0896,-1101.32,250.18,-1250.18
20680,-3.8712,0.1282,-0.0903,320.56,531.49,-1609.56
20690,-3.8712,0.1207,-0.0928,414.31,437.74,-1437.68
20700,-3.8712,0.1152,-0.0935,-538.82,125.18,-1109.56
20710,-3.8712,0.1136,-0.0952,-1241.94,31.43,-1265.81
20720,-3.8712,0.1127,-0.0953,-1445.07,-187.32,-1547.12
20730,-3.8712,0.1121,-0.0896,-1570.07,-202.94,-1625.24
20740,-3.8712,0.1111,-0.0841,-1648.19,531.43,-1515.81
20750,-3.8712,0.1088,-0.0826,-1773.19,1234.56,-1203.31
20760,-3.8712,0.1071,-0.0822,1929.93,1422.06,-922.06
20770,-3.8712,0.1061,-0.0825,1711.18,1484.56,-672.06
20780,-3.8712,0.1064,-0.0835,1586.18,1437.68,-203.31
20790,-3.8711,0.1094,-0.0850,1633.06,1312.68,187.32
20800,-3.8711,0.1122,-0.0884,-1991.94,1125.18,265.44
20810,-3.8711,0.1116,-0.0911,-1632.57,687.68,374.82
20820,-3.8711,0.1110,-0.0913,-1710.69,343.93,406.07
20830,-3.8711,0.1127,-0.0914,-1788.82,312.68,15.44
20840,-3.8712,0.1135,-0.0905,-1570.07,297.06,-593.93
20850,-3.8712,0.1128,-0.0880,-1460.69,422.06,-1312.68
20860,-3.8712,0.1090,-0.0867,-1554.44,734.56,-1875.18
20870,-3.8712,0.1033,-0.0870,1961.18,906.43,1796.69
20880,-3.8712,0.1021,-0.0911,1226.81,859.56,1281.07
20890,-3.8712,0.1034,-0.0958,1070.56,343.93,765.44
20900,-3.8712,0.1035,-0.0941,1242.43,-265.44,765.38
20910,-3.8712,0.1067,-0.0890,1258.06,-46.69,999.76
20920,-3.8712,0.1128,-0.0863,1664.31,609.56,1531.07
20930,-3.8712,0.1179,-0.0851,-1554.44,953.31,-1593.93
20940,-3.8712,0.1202,-0.0828,-898.19,1109.56,-718.93
20950,-3.8711,0.1177,-0.0784,-601.32,1406.43,343.57
20960,-3.8711,0.1111,-0.0737,-929.44,1968.93,1702.94
20970,-3.8711,0.1083,-0.0728,-1773.19,-1437.32,-1125.18
20980,-3.8711,0.1102,-0.0760,1867.43,-1312.32,-765.81
20990,-3.8711,0.1133,-0.0770,-1882.57,-1734.19,-1172.06
21000,-3.8711,0.1165,-0.0769,-1491.94,-1859.19,1562.32
21010,-3.8711,0.1174,-0.0779,-1085.69,-1843.57,296.69
21020,-3.8712,0.1155,-0.0781,-960.69,-1968.57,-672.06
21030,-3.8712,0.1116,-0.0808,-1210.69,-1999.82,-1609.56
21040,-3.8712,0.1050,-0.0857,-1710.69,1656.43,1968.57
21050,-3.8712,0.0997,-0.0906,1445.56,1031.43,1656.07
21060,-3.8712,0.1011,-0.0917,773.68,406.43,1468.57
21070,-3.8712,0.1085,-0.0898,945.56,265.81,1562.32
21080,-3.8712,0.1177,-0.0890,1898.68,500.18,1952.94
21090,-3.8712,0.1217,-0.0892,-929.44,609.56,-1500.18
21100,-3.8712,0.1196,-0.0895,-413.82,578.31,-1062.68
21110,-3.8712,0.1146,-0.0894,-679.44,547.06,-937.68
21120,-3.8712,0.1085,-0.0867,-1320.07,562.68,-781.43
21130,-3.8712,0.1049,-0.0806,1898.68,906.43,-484.56
21140,-3.8712,0.1072,-0.0742,1429.93,1687.68,-234.56
21150,-3.8711,0.1151,-0.0725,1726.81,-1499.82,77.94
21160,-3.8711,0.1246,-0.0762,-1257.57,-1281.07,421.69
21170,-3.8711,0.1316,-0.0803,-38.82,-1749.82,484.19
21180,-3.8711,0.1345,-0.0831,851.81,1718.99,390.44
21190,-3.8711,0.1309,-0.0854,1226.81,1359.62,312.32
21200,-3.8712,0.1201,-0.0880,758.06,1062.74,-93.93
21210,-3.8712,0.1069,-0.0917,-616.94,734.56,-968.93
21220,-3.8712,0.0990,-0.0928,1695.56,265.81,1984.19
21230,-3.8712,0.1010,-0.0884,679.93,125.18,1124.82
21240,-3.8712,0.1080,-0.0828,929.93,687.68,1062.32
21250,-3.8712,0.1138,-0.0803,1836.18,1406.43,1656.07
21260,-3.8712,0.1160,-0.0815,-1429.44,1718.93,-1797.06
21270,-3.8712,0.1147,-0.0819,-1148.19,1562.68,-1250.18
21280,-3.8712,0.1104,-0.0808,-1304.44,1515.81,-562.68
21290,-3.8711,0.1056,-0.0796,-1866.94,1656.43,46.69
21300,-3.8711,0.1036,-0.0786,1523.68,1812.68,374.82
21310,-3.8711,0.1050,-0.0787,1273.68,1937.68,421.69
21320,-3.8711,0.1086,-0.0796,1445.56,1922.06,234.19
21330,-3.8712,0.1129,-0.0812,1914.31,1812.68,-203.31
21340,-3.8712,0.1157,-0.0847,-1538.82,1609.56,-672.06
21350,-3.8712,0.1163,-0.0880,-1179.44,1156.43,-1218.93
21360,-3.8712,0.1168,-0.0878,-1101.32,734.56,-1875.18
21370,-3.8712,0.1184,-0.0830,-1038.82,765.81,1577.94
21380,-3.8712,0.1208,-0.0757,-835.69,1375.18,1499.82
21390,-3.8712,0.1232,-0.0721,-523.19,-1687.32,-1843.93
21400,-3.8712,0.1240,-0.0752,-226.32,-1234.19,-750.18
21410,-3.8711,0.1232,-0.0798,-116.94,-1624.82,187.32
21420,-3.8711,0.1219,-0.0819,-226.32,1781.43,640.44
21430,-3.8711,0.1212,-0.0818,-382.57,1515.81,843.57
21440,-3.8711,0.1198,-0.0811,-476.32,1531.43,921.69
21450,-3.8711,0.1182,-0.0818,-663.82,1625.18,859.19
21460,-3.8711,0.1183,-0.0831,-866.94,1531.43,499.82
21470,-3.8712,0.1188,-0.0840,-851.32,1359.56,-187.68
21480,-3.8712,0.1180,-0.0842,-788.82,1250.18,-906.43
21490,-3.8712,0.1166,-0.0848,-882.57,1218.93,-1609.56
21500,-3.8712,0.1150,-0.0852,-1070.07,1140.81,1781.07
21510,-3.8712,0.1154,-0.0841,-1273.19,1093.93,1656.07
21520,-3.8712,0.1171,-0.0836,-1226.32,1234.56,1890.44
21530,-3.8712,0.1190,-0.0840,-1007.57,1297.06,-1797.06
21540,-3.8712,0.1194,-0.0844,-757.57,1250.18,-1422.06
21550,-3.8712,0.1162,-0.0851,-710.69,1203.31,-953.31
21560,-3.8712,0.1128,-0.0842,-1116.94,1109.56,-547.06
21570,-3.8712,0.1105,-0.0820,-1554.44,1218.93,-265.81
21580,-3.8711,0.1102,-0.0800,-1851.32,1500.18,31.07
21590,-3.8711,0.1138,-0.0802,-1882.57,1765.81,265.44
21600,-3.8711,0.1201,-0.0818,-1429.44,1734.56,359.19
21610,-3.8711,0.1233,-0.0829,-616.94,1531.43,62.32
21620,-3.8712,0.1196,-0.0834,-210.69,1390.81,-375.18
21630,-3.8712,0.1132,-0.0831,-679.44,1328.31,-734.56
21640,-3.8712,0.1073,-0.0834,-1507.57,1359.56,-1156.43
21650,-3.8712,0.1042,-0.0854,1742.43,1328.31,-1547.06
21660,-3.8712,0.1047,-0.0885,1351.81,1062.68,-1906.43
21670,-3.8712,0.1027,-0.0887,1414.31,672.06,-1968.93
21680,-3.8712,0.1018,-0.0825,1148.68,640.81,-1234.56
21690,-3.8712,0.1133,-0.0793,1039.31,1437.68,-625.18
21700,-3.8712,0.1267,-0.0847,-1491.94,1843.93,-687.68
21710,-3.8712,0.1282,-0.0885,226.81,1156.49,-656.43
21720,-3.8712,0.1208,-0.0864,414.31,672.12,-562.68
21730,-3.8712,0.1124,-0.0807,-523.19,937.68,-250.18
21740,-3.8711,0.1085,-0.0760,-1601.32,1672.06,234.19
21750,-3.8711,0.1125,-0.0760,1898.68,-1734.19,390.44
21760,-3.8711,0.1207,-0.0803,-1585.69,-1734.19,187.32
21770,-3.8712,0.1263,-0.0850,-538.82,1718.93,-390.81
21780,-3.8712,0.1290,-0.0869,179.93,1125.24,-1109.56
21790,-3.8712,0.1279,-0.0879,523.68,875.24,-1734.56
21800,-3.8712,0.1215,-0.0887,383.06,750.24,1906.07
21810,-3.8712,0.1125,-0.0881,-445.07,640.81,1937.32
21820,-3.8712,0.1094,-0.0861,-1585.69,718.93,-1656.43
21830,-3.8712,0.1146,-0.0856,-1991.94,984.56,-1031.43
21840,-3.8712,0.1226,-0.0881,-1320.07,1047.06,-500.18
21850,-3.8712,0.1274,-0.0885,-304.44,718.93,-328.31
21860,-3.8712,0.1270,-0.0848,320.56,672.12,-281.43
21870,-3.8712,0.1219,-0.0817,258.06,1140.87,-156.43
21880,-3.8712,0.1150,-0.0806,-382.57,1547.06,-140.81
21890,-3.8712,0.1088,-0.0797,-1273.19,1687.68,-312.68
21900,-3.8712,0.1055,-0.0801,1929.93,1797.06,-640.81
21910,-3.8712,0.1044,-0.0822,1508.06,1750.18,-953.31
21920,-3.8712,0.1067,-0.0841,1367.43,1484.56,-1062.68
21930,-3.8712,0.1125,-0.0869,1664.31,1234.56,-1156.43
21940,-3.8712,0.1169,-0.0917,-1585.69,875.18,-1312.68
21950,-3.8712,0.1165,-0.0942,-1023.19,265.81,-1312.68
21960,-3.8712,0.1135,-0.0911,-1085.69,-62.32,-1156.49
21970,-3.8712,0.1113,-0.0857,-1460.69,343.93,-890.81
21980,-3.8712,0.1099,-0.0828,-1741.94,1031.43,-703.31
21990,-3.8712,0.1089,-0.0830,-1929.44,1406.43,-937.68
22000,-3.8712,0.1083,-0.0846,1945.56,1375.18,-1484.56
22010,-3.8712,0.1063,-0.0847,1867.43,1172.06,-1734.56
22020,-3.8712,0.1083,-0.0829,1617.43,1156.43,-1515.81
22030,-3.8712,0.1155,-0.0808,1867.43,1390.81,-859.56
22040,-3.8712,0.1206,-0.0802,-1210.69,1656.43,-31.43
22050,-3.8711,0.1205,-0.0824,-554.44,1734.56,577.94
22060,-3.8711,0.1171,-0.0863,-570.07,1453.31,749.82
22070,-3.8711,0.1149,-0.0875,-1007.57,953.31,515.44
22080,-3.8711,0.1167,-0.0845,-1288.82,797.06,46.69
22090,-3.8712,0.1200,-0.0812,-1054.44,1187.68,-453.31
22100,-3.8712,0.1222,-0.0807,-632.57,1609.56,-890.81
22110,-3.8712,0.1239,-0.0831,-351.32,1672.06,-1234.56
22120,-3.8712,0.1246,-0.0875,-132.57,1359.56,-1422.06
22130,-3.8712,0.1229,-0.0927,-38.82,797.06,-1406.43
22140,-3.8712,0.1194,-0.0952,-257.57,140.81,-1484.56
22150,-3.8712,0.1177,-0.0940,-710.69,-187.32,-1812.74
22160,-3.8712,0.1191,-0.0906,-929.44,-31.07,1906.01
22170,-3.8712,0.1211,-0.0864,-741.94,406.43,1781.07
22180,-3.8712,0.1217,-0.0829,-491.94,937.68,1952.94
22190,-3.8712,0.1213,-0.0822,-413.82,1390.81,-1484.56
22200,-3.8712,0.1210,-0.0852,-460.69,1484.56,-750.18
22210,-3.8712,0.1226,-0.0890,-507.57,1093.93,-265.81
22220,-3.8712,0.1238,-0.0896,-304.44,609.56,-156.43
22230,-3.8712,0.1201,-0.0857,-148.19,531.43,-125.18
22240,-3.8712,0.1112,-0.0814,-616.94,1031.43,-172.06
22250,-3.8712,0.1002,-0.0791,-1757.57,1578.31,-328.31
22260,-3.8712,0.0928,-0.0771,836.18,1875.18,-500.18
22270,-3.8712,0.0934,-0.0779,-116.94,-1874.88,-640.81
22280,-3.8712,0.0986,-0.0819,-38.82,-1968.63,-593.93
22290,-3.8712,0.1039,-0.0854,633.06,1515.81,-484.56
22300,-3.8712,0.1068,-0.0872,1304.93,1062.68,-562.68
22310,-3.8712,0.1062,-0.0874,1679.93,843.93,-765.81
22320,-3.8712,0.1044,-0.0857,1601.81,812.68,-906.43
22330,-3.8712,0.1053,-0.0857,1367.43,1031.43,-1297.06
22340,-3.8712,0.1073,-0.0881,1492.43,1031.43,-1812.68
22350,-3.8712,0.1093,-0.0869,1742.43,718.93,-1672.06
22360,-3.8712,0.1106,-0.0844,1992.43,875.18,-1328.31
22370,-3.8712,0.1083,-0.0825,-1835.69,1203.31,-750.18
22380,-3.8712,0.1068,-0.0793,1867.43,1437.68,-15.81
22390,-3.8711,0.1095,-0.0796,1679.93,1843.93,109.19
22400,-3.8711,0.1119,-0.0808,-1976.32,1812.68,187.32
22410,-3.8711,0.1165,-0.0793,-1663.82,1656.43,296.69
22420,-3.8711,0.1232,-0.0790,-1085.69,1843.93,218.57
22430,-3.8711,0.1250,-0.0802,-226.32,1890.81,218.57
22440,-3.8711,0.1235,-0.0812,8.06,1734.62,62.32
22450,-3.8712,0.1207,-0.0831,-179.44,1609.56,-343.93
22460,-3.8712,0.1168,-0.0851,-538.82,1359.56,-843.93
22470,-3.8712,0.1152,-0.0859,-1038.82,1109.56,-1422.06
22480,-3.8712,0.1160,-0.0869,-1241.94,1000.18,-1906.43
22490,-3.8712,0.1177,-0.0890,-1148.19,875.18,1890.44
22500,-3.8712,0.1168,-0.0912,-929.44,609.56,1796.69
22510,-3.8712,0.1117,-0.0912,-1038.82,328.31,1921.69
22520,-3.8712,0.1047,-0.0878,-1695.07,328.31,-1547.06
22530,-3.8712,0.0994,-0.0848,1414.31,765.81,-765.81
22540,-3.8712,0.0970,-0.0844,726.81,1140.81,-172.06
22550,-3.8711,0.0990,-0.0825,429.93,1203.31,124.82
22560,-3.8711,0.1024,-0.0787,679.93,1437.68,187.32
22570,-3.8711,0.1047,-0.0754,1117.43,1922.06,156.07
22580,-3.8711,0.1073,-0.0756,1414.31,-1656.07,109.19
22590,-3.8712,0.1108,-0.0782,1742.43,-1671.69,-172.06
22600,-3.8712,0.1144,-0.0796,-1804.44,1984.56,-656.43
22610,-3.8712,0.1151,-0.0808,-1351.32,1812.68,-1140.81
22620,-3.8712,0.1132,-0.0839,-1257.57,1656.43,-1422.06
22630,-3.8712,0.1096,-0.0859,-1507.57,1265.81,-1468.93
22640,-3.8712,0.1071,-0.0854,-1960.69,1000.18,-1297.06
22650,-3.8712,0.1107,-0.0840,1711.18,1062.68,-968.93
22660,-3.8712,0.1195,-0.0854,-1820.07,1250.18,-781.43
22670,-3.8712,0.1270,-0.0892,-695.07,1062.68,-781.43
22680,-3.8712,0.1301,-0.0902,258.06,578.37,-890.81
22690,-3.8712,0.1304,-0.0869,664.31,453.37,-937.68
22700,-3.8712,0.1252,-0.0830,695.56,875.24,-718.93
22710,-3.8712,0.1152,-0.0804,39.31,1375.24,-437.68
22720,-3.8712,0.1061,-0.0784,-1241.94,1703.31,-422.06
22730,-3.8712,0.1002,-0.0769,1586.18,1968.93,-484.56
22740,-3.8712,0.0989,-0.0763,836.18,-1843.57,-312.68
22750,-3.8711,0.1039,-0.0768,664.31,-1765.44,31.07
22760,-3.8711,0.1123,-0.0787,1304.93,-1827.94,281.07
22770,-3.8711,0.1211,-0.0807,-1616.94,1922.06,265.44
22780,-3.8711,0.1267,-0.0830,-491.94,1672.06,15.44
22790,-3.8712,0.1249,-0.0853,226.81,1375.24,-359.56
22800,-3.8712,0.1157,-0.0856,-7.57,1078.31,-718.93
22810,-3.8712,0.1051,-0.0830,-1179.44,1047.06,-937.68
22820,-3.8712,0.0977,-0.0812,1461.18,1375.18,-1140.81
22830,-3.8712,0.0945,-0.0817,508.06,1609.56,-1281.43
22840,-3.8712,0.0967,-0.0824,101.81,1547.06,-1343.93
22850,-3.8712,0.1030,-0.0835,383.06,1453.31,-1562.68
22860,-3.8712,0.1117,-0.0848,1195.56,1312.68,-1828.31
22870,-3.8712,0.1184,-0.0841,-1695.07,1140.81,1968.57
22880,-3.8712,0.1211,-0.0824,-835.69,1234.56,-1890.81
22890,-3.8712,0.1204,-0.0807,-491.94,1453.31,-1328.31
22900,-3.8712,0.1177,-0.0792,-585.69,1672.06,-640.81
22910,-3.8711,0.1152,-0.0798,-929.44,1859.56,109.19
22920,-3.8711,0.1134,-0.0817,-1241.94,1781.43,609.19
22930,-3.8711,0.1127,-0.0820,-1476.32,1547.06,577.94
22940,-3.8711,0.1150,-0.0802,-1570.07,1500.18,93.57
22950,-3.8712,0.1201,-0.0778,-1273.19,1734.56,-531.43
22960,-3.8712,0.1235,-0.0776,-616.94,-1952.94,-968.93
