timestamp_ms,ax,ay,az,gx,gy,gz
0,-3.8732,1.2321,-1.7172,-1148.19,1001.89,-909.48
10,-3.8728,1.4581,-1.7885,1711.18,205.51,1527.89
20,-3.8726,1.6254,-1.8312,-1351.32,-919.07,-66.04
30,-3.8723,1.7234,-1.7793,54.93,1612.55,-1644.23
40,-3.8721,1.7612,-1.6229,601.81,253.36,934.02
50,-3.8716,1.7484,-1.4700,1445.56,269.04,590.58
60,-3.8708,1.7034,-1.4072,-195.07,-152.89,-1768.55
70,-3.8700,1.6687,-1.4250,-1960.69,-121.70,1497.19
80,-3.8694,1.7067,-1.4608,1601.81,1596.98,1512.82
90,-3.8691,1.8535,-1.4551,-1538.82,1018.92,1278.38
100,-3.8693,2.0896,-1.3838,1258.06,1753.60,887.76
110,-3.8696,2.3374,-1.2736,-523.19,-1120.97,887.88
120,-3.8701,2.5300,-1.1455,-804.44,988.89,-1080.63
130,-3.8704,2.6317,-1.0220,-148.19,1379.88,1528.99
140,-3.8702,2.6277,-0.9922,867.43,1192.63,91.74
150,-3.8699,2.5518,-1.0911,351.81,1005.13,-111.33
160,-3.8691,2.4668,-1.2457,-1366.94,348.69,1513.49
170,-3.8687,2.4106,-1.3821,-241.94,551.64,-314.94
180,-3.8683,2.3683,-1.4686,570.56,-901.55,887.88
190,-3.8684,2.2980,-1.5068,-851.32,20.20,1778.38
200,-3.8689,2.1676,-1.5286,-1851.32,-870.54,-612.37
210,-3.8694,1.9720,-1.5728,1461.18,347.96,-1096.74
220,-3.8696,1.7301,-1.6514,429.93,-1308.65,-924.99
230,-3.8695,1.4663,-1.7487,1461.18,628.36,-706.36
240,-3.8691,1.2098,-1.8572,-304.44,174.68,-159.67
250,-3.8687,1.0098,-1.9664,-1132.57,-1716.43,1793.21
260,-3.8684,0.9016,-2.0427,1258.06,298.83,-206.97
270,-3.8683,0.8651,-2.0677,-585.69,-1467.04,-35.28
280,-3.8683,0.8433,-2.0575,-1257.57,-670.23,1949.04
290,-3.8685,0.7866,-2.0414,-54.44,642.21,-1035.28
300,-3.8688,0.6757,-2.0383,695.56,-1295.35,-1941.53
310,-3.8690,0.5236,-2.0513,-1507.57,-904.97,1683.47
320,-3.8693,0.3527,-2.0675,-976.32,1438.48,1917.85
330,-3.8695,0.1742,-2.0657,1148.68,-639.95,1558.41
340,-3.8698,-0.0095,-2.0317,-1695.07,-405.94,292.79
350,-3.8701,-0.1926,-1.9668,-1210.69,-46.94,-691.53
360,-3.8704,-0.3673,-1.8875,-648.19,265.20,-238.22
370,-3.8705,-0.5300,-1.8003,992.43,-1578.86,-1956.85
380,-3.8706,-0.6747,-1.6925,164.31,1577.09,1746.46
390,-3.8707,-0.7964,-1.5596,1648.68,-626.34,1027.89
400,-3.8710,-0.8893,-1.4141,-1929.44,389.04,-1721.80
410,-3.8712,-0.9497,-1.2716,-1820.07,-986.15,1200.32
420,-3.8716,-0.9803,-1.1396,-1554.44,1248.11,-1861.88
430,-3.8719,-0.9867,-1.0222,-1476.32,-1861.33,-1611.63
440,-3.8723,-0.9681,-0.9188,1711.18,1169.92,-986.39
450,-3.8726,-0.9180,-0.8228,86.18,-1595.64,529.42
460,-3.8729,-0.8401,-0.7258,-1491.94,-1298.71,-1001.65
470,-3.8732,-0.7482,-0.6339,476.81,-892.27,1029.79
480,-3.8735,-0.6558,-0.5623,242.43,-1126.46,-1157.53
490,-3.8738,-0.5807,-0.5170,70.56,45.59,-891.72
500,-3.8739,-0.5333,-0.5027,1679.93,1842.59,-422.91
510,-3.8739,-0.5065,-0.5060,-257.57,-329.22,-297.91
520,-3.8739,-0.4885,-0.4882,-820.07,-751.04,-688.54
530,-3.8740,-0.4709,-0.4386,1476.81,1530.27,1717.77
540,-3.8744,-0.4497,-0.3812,-273.19,-125.98,-422.79
550,-3.8746,-0.4254,-0.3323,-1554.44,-782.17,561.71
560,-3.8750,-0.3981,-0.2850,1554.93,1483.52,-1844.42
570,-3.8441,-0.3657,-0.2285,1054.93,-469.54,-172.49
580,-3.8444,-0.3289,-0.1678,1195.56,-1235.11,-1859.86
590,-3.8446,-0.2955,-0.1216,1914.31,-1469.42,-1375.37
600,-3.8447,-0.2719,-0.1027,-1820.07,452.51,-1422.12
610,-3.8447,-0.2521,-0.1045,1211.18,-1125.55,-1734.62
620,-3.8446,-0.2246,-0.1053,-257.57,-1359.92,46.63
630,-3.8446,-0.1846,-0.0930,-741.94,-1469.24,1124.76
640,-3.8446,-0.1385,-0.0676,383.06,109.01,671.69
650,-3.8447,-0.0975,-0.0310,-1726.32,-640.93,-734.56
660,-3.8447,-0.0723,0.0071,-476.32,46.63,984.31
670,-3.8448,-0.0677,0.0277,-1241.94,921.69,-1734.38
680,-3.8448,-0.0854,0.0166,-663.82,-437.68,359.38
690,-3.8450,-0.1206,-0.0276,1070.56,-1859.56,-921.88
700,-3.8450,-0.1538,-0.0829,570.56,484.13,1953.06
710,-3.8450,-0.1576,-0.1185,320.56,1405.94,796.69
720,-3.8451,-0.1108,-0.1057,-163.82,843.38,-1218.99
730,-3.8452,-0.0127,-0.0420,1820.56,-1515.87,-1047.12
740,-3.8453,0.1110,0.0071,-1616.94,-1359.44,-1781.37
750,-3.8455,0.2126,-0.0300,-1788.82,906.43,-656.25
760,-3.8455,0.2593,-0.1583,-773.19,156.62,-343.81
770,-3.8453,0.2487,-0.3340,1195.56,-265.14,1671.51
780,-3.8452,0.2213,-0.5164,-163.82,1250.43,30.58
790,-3.8452,0.2534,-0.6847,336.18,1906.68,-532.29
800,-3.8450,0.3881,-0.8141,445.56,359.86,1561.16
810,-3.8447,0.6066,-0.8938,1679.93,-202.39,-1501.65
820,-3.8445,0.8690,-0.9745,1648.68,1594.91,-329.90
830,-3.8441,1.1460,-1.1124,-757.57,-732.73,248.05
840,-3.8439,1.3993,-1.2987,-1304.44,1611.57,-658.45
850,-3.8746,1.5946,-1.4880,-882.57,1768.31,-1143.19
860,-3.8741,1.7499,-1.6405,117.43,1534.36,-112.30
870,-3.8737,1.9034,-1.7269,-7.57,-1981.02,1324.89
880,-3.8734,2.0715,-1.7395,-351.32,-1043.21,527.83
890,-3.8734,2.2551,-1.6743,1164.31,1347.78,-690.92
900,-3.8733,2.4358,-1.5288,664.31,1691.89,-1628.30
910,-3.8730,2.5861,-1.3516,-210.69,317.20,481.38
920,-3.8729,2.6897,-1.2104,-976.32,-995.00,-627.69
930,-3.8728,2.7670,-1.1329,289.31,1067.75,-1861.76
940,-3.8729,2.8612,-1.0977,-1820.07,-1010.25,-1408.51
950,-3.8732,2.9803,-1.0498,-1757.57,-494.45,-861.57
960,-3.8733,3.0698,-0.9718,1492.43,1630.80,1372.92
970,-3.8732,3.0565,-0.9324,945.56,-384.64,1560.55
980,-3.8726,2.9125,-0.9995,-757.57,662.17,1966.92
990,-3.8715,2.6699,-1.1605,804.93,68.18,591.80
1000,-3.8702,2.4087,-1.3521,1758.06,-541.69,1419.56
1010,-3.8690,2.1942,-1.5099,320.56,-1057.80,1325.44
1020,-3.8680,2.0128,-1.6112,867.43,-1261.35,-1081.12
1030,-3.8673,1.8104,-1.6755,1648.68,1769.53,-1128.17
1040,-3.8668,1.5660,-1.7257,-257.57,1534.73,652.95
1050,-3.8667,1.2968,-1.7617,461.18,-887.57,-1831.54
1060,-3.8667,1.0402,-1.7791,1992.43,-1497.50,-237.85
1070,-3.8666,0.8502,-1.7811,1148.68,283.26,824.65
1080,-3.8666,0.7616,-1.7720,836.18,17.27,1934.02
1090,-3.8666,0.7499,-1.7584,1492.43,1188.96,1809.02
1100,-3.8667,0.7610,-1.7458,-7.57,-1076.72,-987.85
1110,-3.8668,0.7450,-1.7432,1414.31,532.71,637.21
1120,-3.8672,0.6759,-1.7540,-632.57,876.40,1715.33
1130,-3.8677,0.5608,-1.7625,-1476.32,-514.34,-737.85
1140,-3.8682,0.4199,-1.7482,-210.69,-1592.71,-1409.73
1150,-3.8688,0.2666,-1.7072,1758.06,235.17,-706.54
1160,-3.8694,0.1108,-1.6416,-1866.94,1484.86,1559.14
1170,-3.8700,-0.0288,-1.5525,-1804.44,1875.18,168.64
1180,-3.8706,-0.1385,-1.4510,320.56,1296.81,-1003.05
1190,-3.8710,-0.2230,-1.3591,-1726.32,-1719.06,-252.87
1200,-3.8711,-0.2949,-1.2859,-538.82,-1953.61,1372.31
1210,-3.8712,-0.3596,-1.2196,-1741.94,-578.74,1919.31
1220,-3.8713,-0.4161,-1.1443,1976.81,-94.48,-1471.19
1230,-3.8715,-0.4712,-1.0552,-1257.57,1546.02,1341.49
1240,-3.8717,-0.5321,-0.9595,-304.44,952.15,-939.58
1250,-3.8718,-0.5991,-0.8654,-101.32,1202.03,685.61
1260,-3.8721,-0.6661,-0.7751,-679.44,1248.78,-1861.08
1270,-3.8723,-0.7185,-0.6827,-1257.57,795.53,-1626.53
1280,-3.8727,-0.7438,-0.5845,39.31,623.60,-32.59
1290,-3.8730,-0.7310,-0.4910,804.93,1201.66,-766.78
1300,-3.8734,-0.6815,-0.4169,-1554.44,1170.41,-1719.73
1310,-3.8738,-0.6140,-0.3673,773.68,-1345.09,-828.98
1320,-3.8740,-0.5450,-0.3357,1414.31,998.78,-766.36
1330,-3.8741,-0.4845,-0.3098,-1757.57,1045.78,1686.83
1340,-3.8743,-0.4370,-0.2798,1992.43,358.40,640.01
1350,-3.8745,-0.3999,-0.2457,70.56,202.27,-828.67
1360,-3.8746,-0.3710,-0.2097,820.56,561.71,1312.01
1370,-3.8749,-0.3510,-0.1731,523.68,1171.14,-1078.55
1380,-3.8439,-0.3442,-0.1396,-913.82,1858.64,-312.87
1390,-3.8441,-0.3486,-0.1095,-54.44,-1860.11,-156.56
1400,-3.8442,-0.3568,-0.0818,-616.94,1999.27,15.38
1410,-3.8445,-0.3588,-0.0560,-1663.82,1546.14,374.82
1420,-3.8447,-0.3434,-0.0334,-1913.82,843.02,1281.13
1430,-3.8450,-0.3077,-0.0197,54.93,-266.30,-875.12
1440,-3.8451,-0.2578,-0.0142,617.43,1499.39,-1171.94
1450,-3.8451,-0.2059,-0.0038,-991.94,-1797.42,1484.31
1460,-3.8451,-0.1667,0.0153,1648.68,-469.18,1796.81
1470,-3.8451,-0.1462,0.0323,-1335.69,1968.38,1703.12
1480,-3.8451,-0.1366,0.0475,1289.31,155.94,890.69
1490,-3.8452,-0.1276,0.0649,-1476.32,-1906.56,-843.69
1500,-3.8453,-0.1168,0.0795,-320.07,327.82,-390.50
1510,-3.8455,-0.1068,0.0681,1054.93,-1812.74,-1578.00
1520,-3.8456,-0.1035,0.0090,-1663.82,734.13,1562.62
1530,-3.8457,-0.1061,-0.0826,-1241.94,1171.63,-640.62
1540,-3.8456,-0.0935,-0.1611,-1570.07,1437.26,218.57
1550,-3.8456,-0.0292,-0.2009,39.31,-609.56,1984.01
1560,-3.8456,0.0920,-0.2310,273.68,-1703.19,-547.30
1570,-3.8455,0.2256,-0.3043,-210.69,-1562.38,1390.14
1580,-3.8453,0.3374,-0.4420,883.06,1047.30,890.01
1590,-3.8452,0.4324,-0.6096,-804.44,-577.51,1764.71
1600,-3.8451,0.5278,-0.7688,-648.19,1969.54,-1157.47
1610,-3.8450,0.6339,-0.9321,-429.44,1594.73,-470.28
1620,-3.8447,0.7560,-1.1144,1148.68,688.72,388.79
1630,-3.8446,0.9003,-1.2689,773.68,1360.84,-689.70
1640,-3.8442,1.0664,-1.3375,-757.57,1579.83,1481.87
1650,-3.8439,1.2419,-1.3375,508.06,798.95,1341.13
1660,-3.8748,1.4229,-1.3383,-1023.19,799.26,669.25
1670,-3.8745,1.6008,-1.3798,-1866.94,705.87,-502.62
1680,-3.8741,1.7644,-1.4379,914.31,-606.26,-315.25
1690,-3.8737,1.9144,-1.4602,1851.81,-43.46,1715.88
1700,-3.8732,2.0477,-1.4200,1054.93,1097.47,419.01
1710,-3.8728,2.1736,-1.3112,-1882.57,-1761.66,-1549.68
1720,-3.8724,2.3185,-1.1685,-1773.19,176.09,-1205.69
1730,-3.8721,2.4965,-1.0790,773.68,-1557.98,1107.06
1740,-3.8718,2.6963,-1.0946,-445.07,1895.45,-1361.51
1750,-3.8715,2.8951,-1.1589,1133.06,-104.13,1810.30
1760,-3.8711,3.0684,-1.1772,-1413.82,-338.13,-611.69
1770,-3.8706,3.1842,-1.1179,758.06,1318.48,544.56
1780,-3.8704,3.2086,-1.0345,-413.82,912.41,-252.20
1790,-3.8699,3.1283,-1.0226,-1288.82,-415.65,966.67
1800,-3.8693,2.9572,-1.1296,429.93,1115.48,1997.99
1810,-3.8683,2.7271,-1.2979,-1476.32,-588.01,825.87
1820,-3.8673,2.4739,-1.4271,1070.56,1880.31,-127.56
1830,-3.8663,2.2109,-1.4833,664.31,1332.95,356.57
1840,-3.8660,1.9260,-1.5070,-991.94,-1855.10,-440.43
1850,-3.8658,1.6064,-1.5454,-1460.69,-886.90,-284.24
1860,-3.8658,1.2666,-1.5995,1633.06,-1809.39,-1393.68
1870,-3.8660,0.9469,-1.6417,-1866.94,-731.93,-128.17
1880,-3.8661,0.6990,-1.6501,1211.18,1861.21,-487.61
1890,-3.8663,0.5598,-1.6222,1476.81,782.59,-175.11
1900,-3.8667,0.5271,-1.5696,-335.69,360.41,-112.55
1910,-3.8672,0.5635,-1.5095,-523.19,-905.27,-612.49
1920,-3.8678,0.6116,-1.4645,133.06,-1217.65,-1377.99
1930,-3.8685,0.6235,-1.4437,-1710.69,548.03,-487.24
1940,-3.8691,0.5800,-1.4409,-179.44,-795.72,762.76
1950,-3.8698,0.4875,-1.4370,-1757.57,-436.40,403.38
1960,-3.8704,0.3667,-1.4100,-1585.69,63.42,-924.68
1970,-3.8707,0.2461,-1.3558,-1054.44,-483.70,356.57
1980,-3.8712,0.1477,-1.2854,-491.94,-1546.45,-362.06
1990,-3.8715,0.0621,-1.2131,-1085.69,-531.01,419.31
2000,-3.8718,-0.0381,-1.1398,-38.82,718.81,-830.51
2010,-3.8719,-0.1569,-1.0560,-866.94,-1875.12,1153.99
2020,-3.8721,-0.2738,-0.9631,-70.07,843.38,-1673.95
2030,-3.8721,-0.3687,-0.8665,961.18,733.83,1044.98
2040,-3.8722,-0.4359,-0.7653,820.56,1108.64,-767.33
2050,-3.8723,-0.4846,-0.6589,211.18,-1938.35,-985.90
2060,-3.8726,-0.5217,-0.5553,1976.81,-329.10,-345.09
2070,-3.8728,-0.5500,-0.4685,1226.81,936.46,-1344.85
2080,-3.8730,-0.5752,-0.4004,1601.81,45.78,-1047.79
2090,-3.8732,-0.5967,-0.3395,-1616.94,764.47,952.33
2100,-3.8734,-0.6104,-0.2816,-366.94,561.28,-594.42
2110,-3.8735,-0.6198,-0.2351,1883.06,-32.47,1874.39
2120,-3.8737,-0.6237,-0.2007,679.93,1920.65,140.14
2130,-3.8739,-0.6138,-0.1713,179.93,-1673.10,1374.57
2140,-3.8741,-0.5844,-0.1420,1445.56,-1907.47,655.88
2150,-3.8745,-0.5393,-0.1132,1211.18,1842.59,-1406.56
2160,-3.8748,-0.4885,-0.0914,-1023.19,1530.15,937.26
2170,-3.8750,-0.4407,-0.0784,1476.81,311.52,984.19
2180,-3.8440,-0.4049,-0.0725,-398.19,1983.46,-1328.31
2190,-3.8441,-0.3827,-0.0676,179.93,-1266.42,671.69
2200,-3.8444,-0.3656,-0.0554,-976.32,-641.42,-1406.43
2210,-3.8445,-0.3450,-0.0360,1211.18,921.14,1484.25
2220,-3.8446,-0.3169,-0.0148,-148.19,-594.48,1359.25
2230,-3.8447,-0.2810,0.0052,-554.44,-1875.67,1562.44
2240,-3.8448,-0.2366,0.0199,39.31,686.95,-1781.25
2250,-3.8450,-0.1901,0.0237,1726.81,-1437.99,-187.50
2260,-3.8450,-0.1515,0.0099,-320.07,-953.55,1734.38
2270,-3.8451,-0.1205,-0.0149,617.43,1280.94,-437.50
2280,-3.8451,-0.0942,-0.0304,586.18,-1890.87,1453.06
2290,-3.8452,-0.0686,-0.0330,-54.44,124.76,-1593.81
2300,-3.8453,-0.0317,-0.0355,-773.19,-203.31,1906.13
2310,-3.8455,0.0247,-0.0485,-54.44,-531.37,1812.38
2320,-3.8455,0.1002,-0.0742,-835.69,1796.88,718.63
2330,-3.8455,0.1837,-0.1257,836.18,-1499.82,-1265.81
2340,-3.8453,0.2620,-0.2242,-476.32,-93.44,-750.31
2350,-3.8451,0.3398,-0.3682,1539.31,-702.64,1843.26
2360,-3.8448,0.4318,-0.5219,-491.94,875.61,1358.64
2370,-3.8446,0.5270,-0.6504,-726.32,1203.92,1514.59
2380,-3.8444,0.6102,-0.7572,-538.82,750.98,-1673.16
2390,-3.8440,0.6914,-0.8485,-1882.57,-920.72,45.35
2400,-3.8750,0.7761,-0.9202,508.06,-608.03,-501.71
2410,-3.8745,0.8657,-0.9863,-648.19,-1779.79,1232.54
2420,-3.8740,0.9591,-1.0732,-1179.44,1751.65,1388.67
2430,-3.8734,1.0459,-1.1783,-1226.32,-1373.17,1060.36
2440,-3.8728,1.1241,-1.2655,1883.06,1173.89,-1174.19
2450,-3.8722,1.2081,-1.3108,-101.32,-1982.24,-1924.38
2460,-3.8718,1.3137,-1.2866,-1351.32,221.07,-518.19
2470,-3.8716,1.4333,-1.1797,164.31,-684.94,-361.94
2480,-3.8713,1.5551,-1.0437,-523.19,1002.75,1685.18
2490,-3.8712,1.6772,-0.9454,-945.07,-1590.76,-658.33
2500,-3.8710,1.8135,-0.9099,-1304.44,-1012.39,1623.11
2510,-3.8707,1.9883,-0.9142,133.06,-465.21,560.67
2520,-3.8706,2.2106,-0.8899,-1491.94,-1011.78,-1298.71
2530,-3.8705,2.4565,-0.7958,-1038.82,-1901.98,-704.90
2540,-3.8702,2.6796,-0.6741,-1554.44,-1854.61,92.16
2550,-3.8701,2.8390,-0.5909,-1007.57,1723.94,-1048.22
2560,-3.8698,2.9185,-0.5846,-601.32,364.87,170.72
2570,-3.8695,2.9299,-0.6495,1570.56,1177.55,-1282.41
2580,-3.8691,2.8713,-0.7460,-960.69,865.05,1123.72
2590,-3.8688,2.7136,-0.8562,-460.69,521.18,1389.16
2600,-3.8683,2.4480,-0.9722,-648.19,-1588.50,-361.08
2610,-3.8676,2.0975,-1.0684,1351.81,-432.74,-1.95
2620,-3.8667,1.6989,-1.1339,492.43,-745.91,-1924.01
2630,-3.8661,1.3036,-1.1809,1461.18,-1137.33,-924.13
2640,-3.8657,0.9854,-1.2213,-1132.57,846.25,700.81
2650,-3.8658,0.8185,-1.2589,-1866.94,-326.23,997.56
2660,-3.8663,0.8406,-1.2885,773.68,-1139.04,-1002.50
2670,-3.8669,1.0137,-1.2955,-398.19,-920.29,-580.69
2680,-3.8676,1.2355,-1.2963,1758.06,-1826.17,1591.19
2690,-3.8682,1.4052,-1.3253,-1851.32,-1919.49,1528.69
2700,-3.8687,1.4780,-1.3793,-132.57,-1637.94,-1643.25
2710,-3.8689,1.4529,-1.4371,1195.56,-544.01,122.25
2720,-3.8691,1.3409,-1.4901,1976.81,49.68,1653.44
2730,-3.8693,1.1770,-1.5366,-351.32,1268.19,-1284.18
2740,-3.8693,1.0022,-1.5577,-1335.69,-685.24,1262.57
2750,-3.8694,0.8289,-1.5260,289.31,611.33,278.20
2760,-3.8698,0.6469,-1.4464,-1898.19,673.46,747.01
2770,-3.8702,0.4443,-1.3473,-1195.07,-1139.40,575.26
2780,-3.8707,0.2211,-1.2543,883.06,-452.27,575.44
2790,-3.8711,-0.0056,-1.1757,304.93,-546.45,1091.25
2800,-3.8713,-0.2181,-1.1003,-710.69,1531.19,-1142.94
2810,-3.8715,-0.4080,-1.0061,86.18,-828.55,-892.82
2820,-3.8715,-0.5743,-0.8823,-210.69,-766.48,91.74
2830,-3.8716,-0.7197,-0.7450,-1507.57,-923.03,873.23
2840,-3.8718,-0.8402,-0.6064,-116.94,654.79,-360.84
2850,-3.8721,-0.9252,-0.4670,461.18,-1611.02,-298.10
2860,-3.8723,-0.9589,-0.3396,1586.18,232.54,-1672.79
2870,-3.8726,-0.9371,-0.2428,1273.68,544.98,780.58
2880,-3.8729,-0.8790,-0.1852,54.93,935.67,-797.36
2890,-3.8732,-0.8077,-0.1589,-507.57,310.73,1843.38
2900,-3.8734,-0.7344,-0.1506,617.43,-329.71,1890.26
2910,-3.8737,-0.6632,-0.1509,-1991.94,732.91,-62.81
2920,-3.8738,-0.5997,-0.1519,-882.57,701.78,-734.68
2930,-3.8739,-0.5492,-0.1544,-757.57,576.90,-922.18
2940,-3.8740,-0.5101,-0.1605,1711.18,248.90,-969.06
2950,-3.8741,-0.4824,-0.1664,-1288.82,-532.29,-1187.87
2960,-3.8743,-0.4653,-0.1691,-1741.94,-1282.23,-1297.24
2970,-3.8744,-0.4431,-0.1606,445.56,-1625.92,-1031.62
2980,-3.8745,-0.4048,-0.1403,-710.69,-547.79,-1890.99
2990,-3.8748,-0.3604,-0.1169,195.56,-1938.29,-1609.68
3000,-3.8750,-0.3204,-0.0947,1883.06,1046.14,671.63
3010,-3.8441,-0.2845,-0.0741,-1007.57,-110.05,-234.62
3020,-3.8442,-0.2566,-0.0610,-413.82,-1469.36,906.07
3030,-3.8445,-0.2433,-0.0646,-835.69,202.58,-93.87
3040,-3.8445,-0.2415,-0.0829,867.43,-250.49,1312.32
3050,-3.8445,-0.2451,-0.0985,1101.81,1405.76,1484.19
3060,-3.8445,-0.2472,-0.1014,633.06,-594.24,-1187.74
3070,-3.8445,-0.2374,-0.0989,367.43,-969.24,-1265.87
3080,-3.8445,-0.2109,-0.1039,1617.43,-641.11,265.38
3090,-3.8446,-0.1699,-0.1294,1008.06,-1281.68,952.88
3100,-3.8447,-0.1201,-0.1823,-1741.94,-547.24,-1734.68
3110,-3.8447,-0.0681,-0.2452,633.06,687.26,718.38
3120,-3.8447,-0.0247,-0.3036,-710.69,624.82,421.39
3130,-3.8447,0.0093,-0.3654,851.81,1156.19,827.51
3140,-3.8447,0.0664,-0.4401,1195.56,1234.38,-1781.98
3150,-3.8446,0.1700,-0.5299,508.06,-328.00,-1813.42
3160,-3.8444,0.2869,-0.6317,1773.68,172.18,983.34
3170,-3.8441,0.3885,-0.7455,726.81,-858.83,1983.09
3180,-3.8750,0.5054,-0.8615,1742.43,578.86,-1751.46
3190,-3.8745,0.6672,-0.9468,695.56,1735.35,1935.79
3200,-3.8740,0.8490,-0.9812,1414.31,-1186.22,-1501.89
3210,-3.8735,1.0061,-0.9861,679.93,-1592.10,1310.55
3220,-3.8732,1.1174,-0.9957,789.31,1783.20,-1861.33
3230,-3.8728,1.1866,-1.0309,-960.69,549.01,-564.45
3240,-3.8723,1.2528,-1.0907,-101.32,49.13,-1830.14
3250,-3.8719,1.3707,-1.1387,367.43,393.07,-1236.51
3260,-3.8717,1.5621,-1.1428,-538.82,-1747.38,653.99
3270,-3.8718,1.8270,-1.0999,-38.82,1721.74,-877.26
3280,-3.8719,2.1678,-1.0220,1867.43,-777.71,1388.43
3290,-3.8722,2.5447,-0.9242,1492.43,1191.71,-1064.51
3300,-3.8723,2.8802,-0.8049,1726.81,1708.07,1654.42
3310,-3.8724,3.1290,-0.6885,679.93,974.37,1685.91
3320,-3.8726,3.2804,-0.6312,523.68,-118.90,-1376.40
3330,-3.8726,3.3290,-0.6417,-101.32,-790.53,1342.47
3340,-3.8726,3.2770,-0.6678,-1882.57,1865.84,-1720.03
3350,-3.8726,3.1595,-0.6594,-538.82,-1478.03,858.03
3360,-3.8729,3.0323,-0.6125,429.93,-400.09,1748.66
3370,-3.8737,2.9331,-0.5657,148.68,1599.67,-94.97
3380,-3.8744,2.8654,-0.5433,-554.44,-400.57,-516.78
3390,-3.8749,2.7894,-0.5553,-1226.32,-1541.32,-172.97
3400,-3.8749,2.6549,-0.6302,1054.93,927.31,-657.35
3410,-3.8744,2.4453,-0.7814,-163.82,-666.75,-1485.66
3420,-3.8735,2.1898,-0.9852,1008.06,-10.86,-1485.96
3430,-3.8724,1.9270,-1.1991,304.93,1894.90,1654.30
3440,-3.8713,1.6760,-1.3649,-1335.69,-1480.65,-1049.26
3450,-3.8702,1.4521,-1.4479,-1460.69,1300.11,200.44
3460,-3.8696,1.2678,-1.4635,1883.06,-1325.32,-1377.87
3470,-3.8693,1.1144,-1.4565,-1710.69,674.32,-987.24
3480,-3.8689,0.9677,-1.4717,-1351.32,1564.64,903.38
3490,-3.8685,0.8107,-1.5254,-132.57,-373.17,-502.93
3500,-3.8678,0.6473,-1.5988,-226.32,751.53,75.13
3510,-3.8672,0.4918,-1.6573,-1132.57,-639.40,1762.45
3520,-3.8667,0.3517,-1.6849,-1038.82,-139.71,-1315.80
3530,-3.8665,0.2189,-1.6820,1023.68,328.80,-175.17
3540,-3.8663,0.0828,-1.6490,23.68,703.55,1137.33
3550,-3.8665,-0.0459,-1.5878,-1398.19,922.00,1028.02
3560,-3.8667,-0.1548,-1.5031,-1866.94,781.13,1668.76
3570,-3.8671,-0.2445,-1.4032,195.56,-375.31,-487.37
3580,-3.8674,-0.3218,-1.2981,711.18,405.76,-830.87
3590,-3.8678,-0.3904,-1.1958,-1179.44,1858.70,1325.56
3600,-3.8683,-0.4508,-1.0946,-1960.69,-1047.67,-1408.63
3610,-3.8688,-0.5052,-0.9861,-1695.07,-94.67,-408.45
3620,-3.8691,-0.5490,-0.8655,-663.82,1795.84,263.67
3630,-3.8696,-0.5830,-0.7373,1742.43,1233.28,154.54
3640,-3.8702,-0.6180,-0.6119,1383.06,1639.47,-657.71
3650,-3.8707,-0.6604,-0.4971,898.68,1686.28,-1563.72
3660,-3.8712,-0.6998,-0.3982,-523.19,389.28,-1766.60
3670,-3.8717,-0.7196,-0.3185,-1570.07,1045.47,-1235.17
3680,-3.8722,-0.7117,-0.2618,-101.32,-751.46,-31.92
3690,-3.8726,-0.6675,-0.2271,914.31,-1501.40,-1344.30
3700,-3.8729,-0.5952,-0.2058,-1429.44,-1048.22,-1078.61
3710,-3.8732,-0.5171,-0.1934,-179.44,1670.65,546.45
3720,-3.8735,-0.4421,-0.1860,1820.56,-735.41,-266.05
3730,-3.8738,-0.3792,-0.1804,-585.69,202.21,-140.99
3740,-3.8740,-0.3409,-0.1774,-523.19,921.08,-156.62
3750,-3.8743,-0.3260,-0.1758,367.43,1311.83,-437.87
3760,-3.8745,-0.3271,-0.1732,-1726.32,1514.95,-359.74
3770,-3.8748,-0.3411,-0.1688,-1866.94,1843.08,-328.49
3780,-3.8750,-0.3575,-0.1646,351.81,-1594.42,-640.99
3790,-3.8439,-0.3602,-0.1571,-1757.57,-1047.61,109.01
3800,-3.8441,-0.3461,-0.1346,1898.68,-94.48,-1812.87
3810,-3.8444,-0.3273,-0.1006,-288.82,-1219.48,-703.43
3820,-3.8446,-0.3114,-0.0764,-1882.57,-860.05,-718.99
3830,-3.8447,-0.2944,-0.0684,148.68,-1766.24,499.82
3840,-3.8450,-0.2727,-0.0706,-1679.44,-734.99,-484.56
3850,-3.8451,-0.2472,-0.0820,1101.81,-1016.17,-422.06
3860,-3.8451,-0.2173,-0.0979,367.43,1515.14,890.44
3870,-3.8452,-0.1810,-0.1071,195.56,-516.05,-625.24
3880,-3.8452,-0.1293,-0.1074,836.18,-1687.87,-1953.37
3890,-3.8452,-0.0563,-0.0980,-538.82,-1734.68,312.26
3900,-3.8453,0.0222,-0.0835,804.93,-531.37,1640.38
3910,-3.8456,0.0902,-0.0942,-1148.19,1312.50,-281.43
3920,-3.8458,0.1532,-0.1600,-445.07,-62.38,1656.01
3930,-3.8462,0.2214,-0.2777,-382.57,-484.13,-281.62
3940,-3.8463,0.3036,-0.4226,351.81,453.55,-1609.92
3950,-3.8463,0.4117,-0.5612,-1132.57,1906.80,983.52
3960,-3.8464,0.5425,-0.6686,711.18,172.67,-63.60
3970,-3.8464,0.6741,-0.7546,1445.56,-1577.09,1186.16
3980,-3.8466,0.7864,-0.8480,-1710.69,-592.47,1920.35
3990,-3.8466,0.8866,-0.9844,664.31,-545.35,-1532.96
4000,-3.8463,1.0305,-1.1780,1492.43,-1998.29,-1439.45
4010,-3.8458,1.2635,-1.3699,-85.69,1220.70,857.06
4020,-3.8455,1.5828,-1.4674,1742.43,658.69,-1658.94
4030,-3.8453,1.9270,-1.4286,-1398.19,174.93,-487.24
4040,-3.8453,2.2134,-1.2775,-1335.69,1144.35,1575.32
4050,-3.8453,2.4097,-1.0787,-679.44,488.65,935.00
4060,-3.8452,2.5206,-0.9003,445.56,1926.57,-1142.76
4070,-3.8448,2.5876,-0.7565,-1351.32,770.51,1482.60
4080,-3.8445,2.6622,-0.6245,-773.19,-823.12,1076.60
4090,-3.8440,2.7733,-0.5205,773.68,67.69,264.40
4100,-3.8745,2.9191,-0.4969,-1007.57,1380.37,-1141.66
4110,-3.8733,3.0745,-0.5601,1648.68,396.30,-188.48
4120,-3.8717,3.2238,-0.6736,1539.31,318.48,-1376.10
4130,-3.8700,3.3702,-0.8220,648.68,1787.54,29.91
4140,-3.8684,3.4957,-1.0009,-601.32,-1212.22,201.48
4150,-3.8669,3.5382,-1.1761,-538.82,-102.60,-1845.76
4160,-3.8655,3.4493,-1.3223,898.68,1460.02,560.18
4170,-3.8643,3.2290,-1.4258,1523.68,-1243.29,1466.13
4180,-3.8633,2.9008,-1.4651,1320.56,1506.29,325.32
4190,-3.8629,2.4944,-1.4486,-695.07,474.37,-1080.99
4200,-3.8629,2.0557,-1.4122,-710.69,-1417.05,215.88
4210,-3.8634,1.6517,-1.3832,-866.94,-761.66,1919.07
4220,-3.8640,1.3418,-1.3665,-570.07,-1043.70,-1330.87
4230,-3.8646,1.1327,-1.3615,-241.94,1096.31,-1127.69
4240,-3.8651,0.9844,-1.3630,992.43,1736.57,950.44
4250,-3.8656,0.8591,-1.3671,-1991.94,1533.14,106.69
4260,-3.8662,0.7498,-1.3785,1976.81,1017.27,434.81
4270,-3.8669,0.6520,-1.3977,-23.19,-451.72,44.13
4280,-3.8678,0.5464,-1.4094,-538.82,1094.97,841.00
4290,-3.8687,0.4225,-1.3969,1945.56,-405.21,-1909.06
4300,-3.8694,0.2826,-1.3533,-1913.82,1203.92,1387.88
4310,-3.8701,0.1389,-1.2863,179.93,-1218.20,-1299.56
4320,-3.8707,0.0037,-1.2123,1789.31,-640.38,-1049.44
4330,-3.8712,-0.1158,-1.1354,476.81,828.12,-424.26
4340,-3.8715,-0.2126,-1.0491,1179.93,-1312.74,669.62
4350,-3.8717,-0.2821,-0.9574,789.31,1733.95,341.67
4360,-3.8719,-0.3247,-0.8718,-101.32,1468.14,888.73
4370,-3.8722,-0.3453,-0.7953,-1554.44,421.20,-1282.96
4380,-3.8723,-0.3567,-0.7262,-195.07,-1781.98,-954.71
4390,-3.8723,-0.3779,-0.6672,-1648.19,-938.23,1451.66
4400,-3.8724,-0.4182,-0.6141,-366.94,-1391.42,-157.59
4410,-3.8724,-0.4706,-0.5602,-1523.19,1405.40,561.28
4420,-3.8727,-0.5203,-0.5056,-226.32,311.52,-1235.47
4430,-3.8729,-0.5560,-0.4524,1414.31,-704.16,1858.34
4440,-3.8733,-0.5758,-0.4047,836.18,-1891.72,-1766.54
4450,-3.8737,-0.5820,-0.3640,-1695.07,217.59,1249.21
4460,-3.8740,-0.5751,-0.3256,1508.06,1420.72,311.77
4470,-3.8744,-0.5536,-0.2906,-1601.32,-1657.41,1264.95
4480,-3.8746,-0.5160,-0.2694,1148.68,-1188.60,1499.39
4490,-3.8748,-0.4583,-0.2639,1961.18,1530.21,765.08
4500,-3.8749,-0.3812,-0.2644,1351.81,-1766.54,-1422.42
4510,-3.8749,-0.2986,-0.2598,-788.82,-1828.92,1952.58
4520,-3.8749,-0.2322,-0.2440,1789.31,-1234.99,780.70
4530,-3.8750,-0.1991,-0.2139,-1710.69,780.76,1265.14
4540,-3.8440,-0.1969,-0.1733,-1476.32,640.20,-1031.68
4550,-3.8442,-0.2117,-0.1322,-1195.07,1827.70,-1047.24
4560,-3.8445,-0.2324,-0.0959,914.31,-906.68,-922.18
4570,-3.8446,-0.2472,-0.0635,-1741.94,-266.11,640.38
4580,-3.8448,-0.2480,-0.0393,367.43,-109.86,-15.81
4590,-3.8448,-0.2399,-0.0339,258.06,-1016.11,1562.38
4600,-3.8448,-0.2306,-0.0486,1304.93,-328.61,1218.63
4610,-3.8448,-0.2202,-0.0703,-1507.57,1796.39,1609.25
4620,-3.8448,-0.2054,-0.0826,-179.44,-984.86,1343.57
4630,-3.8450,-0.1837,-0.0834,1711.18,1437.07,-515.81
4640,-3.8451,-0.1571,-0.0856,492.43,1343.38,-468.93
4650,-3.8452,-0.1350,-0.1011,-101.32,1062.13,-1718.93
4660,-3.8453,-0.1224,-0.1349,-1273.19,-922.18,1609.13
4670,-3.8455,-0.1030,-0.1948,336.18,-1250.24,-1172.18
4680,-3.8455,-0.0543,-0.2799,-1179.44,-922.12,1843.32
4690,-3.8455,0.0240,-0.3843,1054.93,187.38,-1563.05
4700,-3.8455,0.1099,-0.5178,-913.82,-1187.50,-485.17
4710,-3.8455,0.1869,-0.6721,-1929.44,1718.93,-1376.04
4720,-3.8456,0.2639,-0.8387,-70.07,1969.06,-1032.59
4730,-3.8457,0.3740,-1.0428,1789.31,641.11,1826.48
4740,-3.8458,0.5673,-1.2689,-116.94,-1483.70,1716.67
4750,-3.8458,0.8536,-1.4585,617.43,1579.22,1747.50
4760,-3.8457,1.1997,-1.5720,1273.68,1314.15,-1080.99
4770,-3.8455,1.5743,-1.5847,1570.56,-1216.43,1793.76
4780,-3.8453,1.9280,-1.5153,1523.68,1159.30,-893.74
4790,-3.8452,2.1924,-1.4452,-1210.69,-1949.40,-487.37
4800,-3.8450,2.3555,-1.4199,633.06,-980.10,1700.26
4810,-3.8447,2.4709,-1.3914,1508.06,-1745.42,1575.32
4820,-3.8446,2.5845,-1.3070,289.31,1911.07,1372.25
4830,-3.8447,2.7144,-1.1342,-1179.44,708.13,-1252.56
4840,-3.8447,2.8412,-0.8871,-554.44,-1166.63,-1767.88
4850,-3.8444,2.9469,-0.6735,-320.07,-1541.38,-783.02
4860,-3.8748,3.0618,-0.5701,1211.18,1802.61,-173.22
4870,-3.8735,3.2004,-0.5701,-85.69,-962.83,483.22
4880,-3.8724,3.3496,-0.6605,1664.31,-962.52,-1532.41
4890,-3.8713,3.4933,-0.8075,758.06,-540.34,-1016.97
4900,-3.8704,3.6003,-0.9309,-851.32,647.40,1482.79
4910,-3.8698,3.6239,-0.9930,851.81,850.77,982.54
4920,-3.8694,3.5232,-1.0330,-132.57,897.64,1185.55
4930,-3.8689,3.2882,-1.0973,-1023.19,-211.91,-705.20
4940,-3.8678,2.9604,-1.2090,898.68,-446.72,1357.18
4950,-3.8663,2.6206,-1.3479,-1054.44,1255.74,-1814.88
4960,-3.8647,2.3418,-1.4619,-554.44,-526.18,856.69
4970,-3.8638,2.1368,-1.5281,-241.94,879.52,-862.24
4980,-3.8634,1.9629,-1.5682,1523.68,410.40,434.51
4990,-3.8638,1.7902,-1.6108,-741.94,-730.59,-1893.74
5000,-3.8644,1.6238,-1.6545,1148.68,1815.98,-1956.30
5010,-3.8651,1.4724,-1.6820,-148.19,221.86,-1581.36
5020,-3.8660,1.3309,-1.6859,476.81,705.99,-222.05
5030,-3.8668,1.1948,-1.6790,-1632.57,205.69,1168.58
5040,-3.8678,1.0649,-1.6775,945.56,1096.07,652.95
5050,-3.8688,0.9351,-1.6736,320.56,1283.33,-1940.80
5060,-3.8696,0.7981,-1.6501,-304.44,1783.02,-1112.67
5070,-3.8704,0.6506,-1.6111,-1835.69,782.78,-1940.73
5080,-3.8711,0.4875,-1.5668,-710.69,1782.47,-846.92
5090,-3.8717,0.3114,-1.5105,-1585.69,-545.96,-128.11
5100,-3.8721,0.1427,-1.4287,-132.57,-1343.20,-1987.37
5110,-3.8723,0.0067,-1.3226,-1726.32,1125.24,1106.57
5120,-3.8724,-0.0922,-1.2126,867.43,-1296.88,184.88
5130,-3.8726,-0.1683,-1.1189,211.18,796.69,-1814.88
5140,-3.8726,-0.2354,-1.0436,-1538.82,796.51,1247.80
5150,-3.8726,-0.3016,-0.9780,1883.06,-1562.99,935.42
5160,-3.8726,-0.3638,-0.9149,1398.68,-1172.49,1857.42
5170,-3.8726,-0.4170,-0.8496,1445.56,-1094.48,-1079.96
5180,-3.8726,-0.4575,-0.7805,-1366.94,-735.23,1685.79
5190,-3.8727,-0.4741,-0.7054,1445.56,108.46,1310.97
5200,-3.8729,-0.4666,-0.6273,-679.44,1717.77,-1423.28
5210,-3.8732,-0.4510,-0.5533,289.31,-282.17,-1720.03
5220,-3.8734,-0.4509,-0.4884,-1726.32,1186.58,1108.28
5230,-3.8738,-0.4706,-0.4340,-1710.69,1499.08,-110.35
5240,-3.8740,-0.4921,-0.3878,-226.32,467.77,-578.98
5250,-3.8743,-0.5024,-0.3496,1023.68,-1625.98,-63.29
5260,-3.8744,-0.5000,-0.3156,-304.44,-735.41,1889.89
5270,-3.8745,-0.4906,-0.2776,8.06,-375.98,1249.33
5280,-3.8746,-0.4803,-0.2388,1211.18,483.40,749.45
5290,-3.8749,-0.4683,-0.2057,-1476.32,1452.15,-62.99
5300,-3.8750,-0.4526,-0.1731,70.56,1686.58,-234.80
5310,-3.8750,-0.4386,-0.1343,-1929.44,1858.46,827.76
5320,-3.8439,-0.4290,-0.0869,-132.57,-1172.79,1859.07
5330,-3.8440,-0.4242,-0.0333,1101.81,889.77,812.32
5340,-3.8442,-0.4314,0.0162,1711.18,-250.85,906.13
5350,-3.8446,-0.4486,0.0510,789.31,-1907.10,-578.12
5360,-3.8448,-0.4592,0.0559,-1413.82,-1454.04,-390.56
5370,-3.8448,-0.4523,0.0319,1226.81,-829.04,1140.69
5380,-3.8447,-0.4282,0.0072,-1882.57,92.83,578.19
5390,-3.8446,-0.3936,-0.0005,1195.56,936.65,-1625.00
5400,-3.8445,-0.3547,0.0024,1633.06,-47.67,-1843.81
5410,-3.8445,-0.3125,0.0007,-1398.19,327.39,1578.12
5420,-3.8446,-0.2726,-0.0114,8.06,108.76,1171.88
5430,-3.8448,-0.2428,-0.0347,1117.43,-1438.05,-1250.06
5440,-3.8450,-0.2130,-0.0858,929.93,-422.36,359.25
5450,-3.8452,-0.1660,-0.1648,742.43,1030.82,-515.81
5460,-3.8452,-0.0945,-0.2412,-1241.94,-1078.49,812.13
5470,-3.8452,0.0083,-0.3120,-85.69,1140.38,187.01
5480,-3.8452,0.1429,-0.4064,1070.56,62.50,405.64
5490,-3.8452,0.2977,-0.5336,-1695.07,-15.38,780.40
5500,-3.8452,0.4711,-0.6768,-1882.57,-296.33,1623.90
5510,-3.8451,0.6715,-0.8105,304.93,1375.92,217.41
5520,-3.8450,0.8961,-0.9259,1961.18,251.28,639.04
5530,-3.8448,1.1323,-1.0398,-1288.82,1486.08,-1970.58
5540,-3.8446,1.3538,-1.1729,945.56,-1091.55,841.67
5550,-3.8444,1.5465,-1.3290,1289.31,1877.62,997.68
5560,-3.8442,1.7402,-1.4924,1961.18,1893.62,-502.62
5570,-3.8441,1.9785,-1.6162,-1241.94,972.11,1387.70
5580,-3.8442,2.2679,-1.6375,1258.06,1128.85,-1565.67
5590,-3.8445,2.5795,-1.5177,-1695.07,-1589.36,-425.11
5600,-3.8447,2.8805,-1.2737,-1820.07,1739.38,-440.49
5610,-3.8448,3.1327,-0.9860,711.18,974.37,1544.37
5620,-3.8450,3.3201,-0.7219,992.43,1802.98,154.30
5630,-3.8453,3.4467,-0.5038,976.81,-399.78,-485.84
5640,-3.8456,3.5120,-0.3883,1179.93,-477.66,1530.21
5650,-3.8457,3.5219,-0.4442,1539.31,-1696.29,1874.21
5660,-3.8453,3.4880,-0.6475,-1195.07,-852.54,483.46
5670,-3.8445,3.4073,-0.9127,-1523.19,1131.77,-548.16
5680,-3.8741,3.2427,-1.1874,148.68,-821.47,-470.58
5690,-3.8719,2.9354,-1.4746,-929.44,21.91,497.68
5700,-3.8696,2.4521,-1.7732,-257.57,-744.32,-456.05
5710,-3.8671,1.8706,-1.9995,1883.06,1036.01,-1565.98
5720,-3.8647,1.3502,-2.0253,-554.44,66.10,11.72
5730,-3.8634,0.9701,-1.8278,836.18,768.25,605.41
5740,-3.8630,0.7128,-1.5592,179.93,-1951.23,-1378.60
5750,-3.8629,0.5587,-1.3976,-757.57,423.22,1793.82
5760,-3.8627,0.5215,-1.3790,-476.32,1110.41,1716.00
5770,-3.8624,0.5990,-1.4224,-1241.94,-514.65,-1940.25
5780,-3.8625,0.7139,-1.4475,679.93,1938.66,-1893.43
5790,-3.8632,0.7833,-1.4410,-616.94,-1279.91,419.01
5800,-3.8643,0.7919,-1.4227,273.68,-451.60,-1174.74
5810,-3.8654,0.7451,-1.3969,1367.43,1892.15,-159.06
5820,-3.8663,0.6411,-1.3643,-616.94,1204.53,-299.62
5830,-3.8672,0.4884,-1.3328,-1929.44,1376.22,1325.44
5840,-3.8680,0.3231,-1.2986,-1476.32,1407.17,591.13
5850,-3.8689,0.1919,-1.2576,1367.43,1781.86,-893.19
5860,-3.8695,0.1100,-1.2158,570.56,-968.38,-1830.63
5870,-3.8700,0.0629,-1.1793,-1913.82,375.18,1888.24
5880,-3.8704,0.0294,-1.1484,54.93,1047.00,1732.06
5890,-3.8706,-0.0034,-1.1147,-226.32,1000.00,638.37
5900,-3.8708,-0.0444,-1.0659,-429.44,1328.06,388.43
5910,-3.8712,-0.1041,-0.9977,-1679.44,-422.00,-1267.76
5920,-3.8716,-0.1874,-0.9172,-1320.07,312.26,-658.20
5930,-3.8719,-0.2823,-0.8330,23.68,-1390.99,-908.08
5940,-3.8723,-0.3712,-0.7501,-132.57,1390.01,-767.27
5950,-3.8726,-0.4482,-0.6829,492.43,-0.73,1295.35
5960,-3.8728,-0.5070,-0.6373,-1366.94,608.46,-1610.72
5970,-3.8729,-0.5353,-0.5944,-882.57,-1563.54,1045.59
5980,-3.8732,-0.5350,-0.5331,-507.57,-63.60,1076.90
5990,-3.8737,-0.5262,-0.4502,-476.32,-219.85,-235.47
6000,-3.8741,-0.5298,-0.3591,648.68,-1610.41,-1360.29
6010,-3.8746,-0.5450,-0.2769,195.56,-1954.16,1671.14
6020,-3.8439,-0.5565,-0.2130,-1757.57,577.03,-1250.55
6030,-3.8442,-0.5593,-0.1707,773.68,748.90,-1719.18
6040,-3.8445,-0.5555,-0.1467,414.31,-1829.22,1437.13
6050,-3.8446,-0.5403,-0.1366,898.68,1233.28,93.44
6060,-3.8447,-0.5101,-0.1296,-1148.19,-1469.85,109.07
6070,-3.8450,-0.4706,-0.1232,-1288.82,-579.16,-390.93
6080,-3.8451,-0.4272,-0.1310,-226.32,249.02,-359.62
6090,-3.8451,-0.3795,-0.1398,1320.56,-750.85,1280.94
6100,-3.8452,-0.3243,-0.1213,-570.07,-1875.79,-859.68
6110,-3.8453,-0.2706,-0.0818,-1507.57,483.70,-1484.62
6120,-3.8456,-0.2372,-0.0472,1367.43,1546.33,-1922.06
6130,-3.8458,-0.2291,-0.0375,1648.68,1968.26,765.50
6140,-3.8461,-0.2341,-0.0614,-1320.07,-781.74,-1547.00
6150,-3.8461,-0.2371,-0.1149,-1960.69,155.76,421.75
6160,-3.8461,-0.2227,-0.1803,1664.31,1312.01,1906.01
6170,-3.8459,-0.1727,-0.2423,-491.94,937.01,1765.26
6180,-3.8458,-0.0742,-0.2932,1898.68,999.63,-1344.24
6190,-3.8457,0.0626,-0.3365,-1491.94,-1515.81,-406.86
6200,-3.8455,0.2124,-0.3943,23.68,922.00,139.95
6210,-3.8455,0.3499,-0.4847,-804.44,1531.62,-328.92
6220,-3.8453,0.4481,-0.6003,789.31,1953.80,-1204.10
6230,-3.8452,0.5181,-0.7222,1367.43,-842.90,-594.97
6240,-3.8450,0.6193,-0.8359,-1679.44,-436.52,-1438.96
6250,-3.8446,0.7775,-0.9327,-726.32,1001.16,185.85
6260,-3.8444,0.9569,-1.0120,-476.32,610.84,-1173.71
6270,-3.8440,1.1248,-1.0635,-1507.57,-1529.42,982.36
6280,-3.8750,1.2566,-1.0898,-23.19,-122.86,-1611.51
6290,-3.8748,1.3231,-1.1178,851.81,502.44,-1689.64
6300,-3.8745,1.3279,-1.1538,1367.43,924.44,872.80
6310,-3.8744,1.3195,-1.1740,1976.81,315.06,1794.62
6320,-3.8744,1.3527,-1.1576,898.68,1736.94,-17.94
6330,-3.8743,1.4666,-1.0912,1148.68,-169.25,1247.68
6340,-3.8740,1.6736,-0.9758,-273.19,330.93,669.74
6350,-3.8735,1.9611,-0.8336,-1773.19,-903.02,-1236.33
6360,-3.8728,2.2903,-0.6797,-976.32,1300.66,-1157.90
6370,-3.8721,2.6169,-0.5175,1164.31,1004.46,826.78
6380,-3.8717,2.9365,-0.3225,-1023.19,1770.69,-1672.91
6390,-3.8716,3.2650,-0.0833,-116.94,-1275.57,-1828.80
6400,-3.8716,3.5901,0.1404,1929.93,1350.10,-1906.43
6410,-3.8716,3.8583,0.2720,-460.69,1975.71,-359.13
6420,-3.8715,3.9999,0.2902,1867.43,-1179.99,-1171.39
6430,-3.8713,3.9999,0.2284,-7.57,1148.38,-124.45
6440,-3.8708,3.9999,0.0997,-7.57,1242.13,-343.32
6450,-3.8647,2.1503,-0.8804,1133.06,-1885.13,1264.16
6460,-3.8639,1.5439,-0.8882,-757.57,-683.35,1248.23
6470,-3.8638,1.0956,-0.8337,1633.06,-1684.51,-986.15
6480,-3.8639,0.8601,-0.7888,242.43,1283.39,982.73
6490,-3.8641,0.8210,-0.7856,-1898.19,-967.10,592.16
6500,-3.8645,0.9009,-0.8114,1101.81,-560.91,-1814.09
6510,-3.8650,1.0145,-0.8354,-679.44,142.33,1873.41
6520,-3.8657,1.1055,-0.8503,1867.43,1064.45,-1204.77
6530,-3.8666,1.1504,-0.8834,1508.06,-841.61,-704.83
6540,-3.8674,1.1390,-0.9633,-741.94,-1075.93,-267.40
6550,-3.8680,1.0645,-1.0751,1804.93,705.32,576.23
6560,-3.8687,0.9269,-1.1642,258.06,-1607.30,1982.24
6570,-3.8693,0.7389,-1.1917,-1351.32,-1013.85,-799.19
6580,-3.8699,0.5194,-1.1664,-1413.82,-529.85,1247.62
6590,-3.8706,0.2878,-1.1136,-1507.57,-1295.90,-1096.07
6600,-3.8711,0.0801,-1.0464,851.81,1453.67,1466.55
6610,-3.8715,-0.0735,-0.9803,-1741.94,-1937.38,-267.70
6620,-3.8715,-0.1740,-0.9315,-1398.19,-1468.93,1451.17
6630,-3.8713,-0.2306,-0.9006,1742.43,780.88,1466.92
6640,-3.8711,-0.2616,-0.8745,-1507.57,733.89,263.85
6650,-3.8710,-0.2990,-0.8372,-1476.32,77.58,670.17
6660,-3.8710,-0.3600,-0.7776,1742.43,858.76,482.73
6670,-3.8711,-0.4382,-0.6974,1929.93,483.64,29.72
6680,-3.8715,-0.5226,-0.6167,-85.69,-1250.92,-501.40
6690,-3.8718,-0.5992,-0.5485,1117.43,1077.09,-266.85
6700,-3.8722,-0.6547,-0.4834,-695.07,1811.28,-1501.10
6710,-3.8727,-0.6860,-0.4120,211.18,-1860.66,-157.23
6720,-3.8732,-0.6941,-0.3387,195.56,-720.09,-516.48
6730,-3.8737,-0.6796,-0.2789,-835.69,654.85,-1281.92
6740,-3.8741,-0.6407,-0.2389,1023.68,311.16,-266.17
6750,-3.8745,-0.5764,-0.2122,1992.43,1436.22,-703.61
6760,-3.8748,-0.4885,-0.2032,-1773.19,858.22,530.82
6770,-3.8750,-0.3917,-0.2081,1476.81,1999.02,640.20
6780,-3.8439,-0.3199,-0.2035,1867.43,1374.21,437.07
6790,-3.8440,-0.2859,-0.1794,-945.07,1968.08,983.95
6800,-3.8442,-0.2791,-0.1489,-585.69,1046.26,-1000.37
6810,-3.8445,-0.2881,-0.1285,289.31,952.58,-1078.43
6820,-3.8447,-0.2990,-0.1179,-866.94,-438.11,-359.68
6830,-3.8448,-0.3064,-0.1113,1742.43,921.26,-1047.12
6840,-3.8448,-0.3104,-0.1090,789.31,1765.01,202.88
6850,-3.8450,-0.3035,-0.1132,273.68,-1938.11,1734.13
6860,-3.8451,-0.2847,-0.1244,1164.31,1530.64,-1562.74
6870,-3.8452,-0.2627,-0.1428,-429.44,93.14,-1172.12
6880,-3.8452,-0.2350,-0.1676,-1616.94,1733.83,437.19
6890,-3.8453,-0.1996,-0.1896,1929.93,-1437.99,-828.49
6900,-3.8453,-0.1625,-0.2039,-1538.82,-250.43,437.07
6910,-3.8456,-0.1244,-0.2170,-788.82,1921.51,-672.30
6920,-3.8457,-0.0835,-0.2397,86.18,234.13,-1312.93
6930,-3.8457,-0.0380,-0.2865,1320.56,1327.94,827.64
6940,-3.8457,0.0173,-0.3645,-851.32,-656.37,1296.26
6950,-3.8457,0.0907,-0.4580,-1773.19,1343.75,-1110.11
6960,-3.8457,0.1940,-0.5463,-382.57,1375.12,-125.92
6970,-3.8457,0.3301,-0.6163,836.18,-1921.51,-1297.97
6980,-3.8457,0.4896,-0.6655,-1741.94,1109.99,1436.28
6990,-3.8456,0.6588,-0.7264,-1320.07,-1186.58,170.53
7000,-3.8453,0.8254,-0.8370,336.18,-983.09,1326.66
7010,-3.8450,0.9832,-0.9907,1664.31,860.96,-501.65
7020,-3.8445,1.1503,-1.1384,1851.81,1189.39,1154.30
7030,-3.8442,1.3661,-1.2415,-757.57,-1716.55,700.87
7040,-3.8442,1.6410,-1.3137,-1132.57,1096.37,1950.68
7050,-3.8442,1.9493,-1.3690,-1945.07,-153.08,-1424.50
7060,-3.8440,2.2457,-1.4009,1523.68,769.41,606.69
7070,-3.8749,2.4996,-1.4203,-538.82,691.83,1450.38
7080,-3.8743,2.7133,-1.4467,-38.82,-1792.05,169.07
7090,-3.8737,2.8901,-1.4801,-695.07,-1166.63,1762.76
7100,-3.8730,3.0322,-1.4902,1945.56,-1447.51,1543.95
7110,-3.8726,3.1368,-1.4473,133.06,1255.92,-1049.80
7120,-3.8719,3.1957,-1.3655,1523.68,-1243.90,387.76
7130,-3.8715,3.1859,-1.2966,1054.93,1224.98,-1330.81
7140,-3.8708,3.0789,-1.2908,-195.07,-1962.59,1669.31
7150,-3.8702,2.8835,-1.3577,-1898.19,-1212.77,-1908.81
7160,-3.8695,2.6560,-1.4563,1101.81,-1775.63,1184.81
7170,-3.8687,2.4531,-1.5381,-23.19,1598.88,544.01
7180,-3.8678,2.2834,-1.5981,-1991.94,-870.24,-237.43
7190,-3.8668,2.0999,-1.6637,289.31,-558.04,-1628.17
7200,-3.8660,1.8575,-1.7509,789.31,-949.04,965.45
7210,-3.8652,1.5503,-1.8615,1773.68,-105.77,637.15
7220,-3.8645,1.1951,-1.9808,-1554.44,1737.37,136.96
7230,-3.8638,0.8237,-2.0668,976.81,-1544.56,449.22
7240,-3.8632,0.4678,-2.0887,1445.56,-545.29,-1332.21
7250,-3.8627,0.1483,-2.0391,-116.94,641.48,949.04
7260,-3.8627,-0.1071,-1.9149,-1007.57,-999.76,1542.85
7270,-3.8632,-0.2623,-1.7482,-1695.07,-1093.99,1699.34
7280,-3.8640,-0.3014,-1.6033,-1570.07,249.45,1199.71
7290,-3.8650,-0.2593,-1.5282,1429.93,-1203.74,-1831.30
7300,-3.8657,-0.2037,-1.5239,-1179.44,405.70,872.01
7310,-3.8663,-0.1763,-1.5509,1929.93,952.70,1059.51
7320,-3.8669,-0.1918,-1.5714,1445.56,1499.63,1512.57
7330,-3.8677,-0.2485,-1.5693,-538.82,-1125.43,-1643.74
7340,-3.8685,-0.3203,-1.5322,195.56,-859.86,-674.99
7350,-3.8694,-0.3776,-1.4584,-991.94,-110.05,-1909.30
7360,-3.8702,-0.4113,-1.3602,-320.07,1342.96,1497.13
7370,-3.8710,-0.4238,-1.2435,-632.57,1905.40,44.19
7380,-3.8717,-0.4126,-1.1091,1758.06,842.90,-1955.57
7390,-3.8723,-0.3901,-0.9674,-804.44,-1953.98,1966.55
7400,-3.8729,-0.3798,-0.8365,-1929.44,186.71,-1642.52
7410,-3.8734,-0.3905,-0.7267,-601.32,936.71,951.48
7420,-3.8738,-0.4138,-0.6373,-1976.32,-1000.79,1217.29
7430,-3.8740,-0.4371,-0.5657,-960.69,-1563.35,-1110.66
7440,-3.8741,-0.4664,-0.5105,54.93,-391.48,-923.03
7450,-3.8743,-0.5076,-0.4614,304.93,-1329.04,-79.16
7460,-3.8744,-0.5416,-0.4009,-960.69,952.09,-625.92
7470,-3.8746,-0.5471,-0.3322,-1320.07,702.03,-328.92
7480,-3.8749,-0.5261,-0.2695,1976.81,1498.90,936.83
7490,-3.8440,-0.4863,-0.2179,664.31,1514.59,1124.45
7500,-3.8444,-0.4310,-0.1769,1758.06,124.02,-1562.93
7510,-3.8446,-0.3734,-0.1506,836.18,1374.15,-1640.99
7520,-3.8447,-0.3254,-0.1442,211.18,733.64,-1953.43
7530,-3.8447,-0.2814,-0.1477,-1648.19,1561.83,1655.94
7540,-3.8447,-0.2318,-0.1459,-7.57,1108.76,-1062.81
7550,-3.8447,-0.1787,-0.1398,-1663.82,1343.26,-1390.93
7560,-3.8448,-0.1288,-0.1455,1133.06,-1875.37,-172.18
7570,-3.8448,-0.0861,-0.1709,-476.32,1390.32,1343.44
7580,-3.8448,-0.0583,-0.1995,992.43,-1859.56,1140.26
7590,-3.8448,-0.0510,-0.2032,539.31,-1515.75,499.57
7600,-3.8451,-0.0558,-0.1752,1476.81,1999.88,-547.30
7610,-3.8453,-0.0518,-0.1321,867.43,1593.63,-1781.62
7620,-3.8456,-0.0199,-0.0981,1383.06,-890.75,921.57
7630,-3.8458,0.0342,-0.0988,1461.18,-546.94,-47.12
7640,-3.8457,0.0902,-0.1482,383.06,-640.56,281.01
7650,-3.8457,0.1401,-0.2352,-445.07,1031.37,-297.18
7660,-3.8455,0.1915,-0.3320,1945.56,1890.87,296.39
7670,-3.8453,0.2527,-0.4301,523.68,1500.37,1046.20
7680,-3.8452,0.3304,-0.5310,351.81,953.61,1967.90
7690,-3.8450,0.4219,-0.5958,-1695.07,31.86,873.96
7700,-3.8447,0.5160,-0.5964,-1991.94,-264.83,-1298.10
7710,-3.8444,0.6100,-0.5850,-1945.07,-342.77,451.90
7720,-3.8442,0.7050,-0.6310,-1913.82,1126.16,-173.03
7730,-3.8440,0.7980,-0.7397,-1757.57,-764.28,-845.03
7740,-3.8749,0.8846,-0.8643,-1851.32,1314.03,811.04
7750,-3.8746,0.9590,-0.9692,1242.43,1376.71,-704.83
7760,-3.8744,1.0159,-1.0374,-1241.94,-60.67,-423.83
7770,-3.8741,1.0753,-1.0571,-1960.69,-779.30,826.05
7780,-3.8740,1.1659,-1.0419,1648.68,689.58,1482.30
7790,-3.8738,1.2858,-1.0276,1242.43,-1357.12,1169.80
7800,-3.8734,1.4265,-1.0507,586.18,471.25,1279.24
7810,-3.8729,1.5973,-1.1104,-1398.19,1518.37,1466.67
7820,-3.8723,1.8105,-1.1570,461.18,1878.11,357.18
7830,-3.8718,2.0531,-1.1487,-241.94,-90.27,-767.94
7840,-3.8713,2.2795,-1.0967,-1195.07,972.72,-314.76
7850,-3.8710,2.4525,-1.0258,-210.69,-370.61,-95.95
7860,-3.8707,2.5730,-0.9547,1929.93,707.89,-2.01
7870,-3.8705,2.6772,-0.9113,1351.81,1801.88,-845.64
7880,-3.8701,2.7915,-0.9105,-1304.44,-635.44,326.29
7890,-3.8699,2.8943,-0.9542,1320.56,-541.44,-423.71
7900,-3.8694,2.9567,-1.0494,-1523.19,1864.99,1623.11
7910,-3.8688,2.9603,-1.1764,-1538.82,1677.61,841.67
7920,-3.8680,2.8778,-1.2998,-1070.07,1427.61,310.18
7930,-3.8674,2.6854,-1.4106,367.43,1630.62,-768.19
7940,-3.8668,2.3815,-1.5106,-257.57,-557.31,-1549.68
7950,-3.8663,1.9996,-1.6012,836.18,-1354.74,-1440.49
7960,-3.8658,1.6064,-1.6841,-38.82,-949.28,918.70
7970,-3.8655,1.2690,-1.7477,1633.06,440.61,27.95
7980,-3.8654,1.0228,-1.7787,-1554.44,299.32,824.71
7990,-3.8654,0.8495,-1.7859,-1070.07,330.08,152.77
8000,-3.8655,0.6964,-1.7886,742.43,-592.10,-1456.67
8010,-3.8655,0.5326,-1.7926,1148.68,-936.16,-597.29
8020,-3.8654,0.3663,-1.8011,179.93,-1452.09,-1472.29
8030,-3.8652,0.2300,-1.8135,-1101.32,1453.80,1246.46
8040,-3.8654,0.1460,-1.8164,1445.56,-124.57,-566.10
8050,-3.8656,0.0980,-1.8038,-1304.44,-499.76,762.02
8060,-3.8662,0.0477,-1.7803,554.93,1109.56,105.83
8070,-3.8671,-0.0254,-1.7474,-1882.57,125.06,1152.77
8080,-3.8679,-0.1172,-1.7031,758.06,343.69,1246.58
8090,-3.8688,-0.2148,-1.6428,1008.06,-1984.62,-331.48
8100,-3.8694,-0.3052,-1.5659,508.06,1733.95,-1878.23
8110,-3.8699,-0.3818,-1.4758,945.56,-422.49,1746.89
8120,-3.8702,-0.4480,-1.3816,-866.94,-891.42,1809.57
8130,-3.8706,-0.4962,-1.2891,-1335.69,-829.04,-377.75
8140,-3.8708,-0.5154,-1.1915,492.43,-985.35,731.81
8150,-3.8713,-0.5138,-1.0815,-1960.69,-501.04,-377.38
8160,-3.8717,-0.5146,-0.9595,-1757.57,1577.09,75.99
8170,-3.8722,-0.5364,-0.8363,-1866.94,1202.09,216.86
8180,-3.8727,-0.5768,-0.7224,-648.19,967.65,-1626.65
8190,-3.8730,-0.6206,-0.6211,-1820.07,-454.28,-1017.09
8200,-3.8733,-0.6565,-0.5364,570.56,514.40,1170.65
8210,-3.8735,-0.6746,-0.4659,-23.19,-641.97,561.40
8220,-3.8739,-0.6666,-0.3971,1664.31,373.66,-16.54
8230,-3.8741,-0.6398,-0.3256,-1320.07,1186.16,749.21
8240,-3.8746,-0.6107,-0.2565,-1882.57,-1657.53,-1469.42
8250,-3.8439,-0.5846,-0.1920,1836.18,-813.72,-703.67
8260,-3.8442,-0.5526,-0.1362,1179.93,-563.66,1187.07
8270,-3.8446,-0.5061,-0.0951,1273.68,-1422.97,1202.82
8280,-3.8450,-0.4463,-0.0649,-773.19,-157.29,-937.74
8290,-3.8452,-0.3840,-0.0355,-1116.94,-297.79,-1672.06
8300,-3.8455,-0.3311,-0.0112,-1148.19,-532.04,-1031.37
8310,-3.8456,-0.2964,-0.0044,1633.06,-1422.55,1515.56
8320,-3.8457,-0.2782,-0.0126,-1929.44,-547.49,-1578.19
8330,-3.8457,-0.2681,-0.0250,398.68,-1594.30,1218.69
8340,-3.8457,-0.2609,-0.0361,1695.56,811.95,562.44
8350,-3.8458,-0.2512,-0.0431,-1382.57,-609.92,-484.50
8360,-3.8458,-0.2393,-0.0430,-148.19,-1500.55,1687.38
8370,-3.8459,-0.2307,-0.0343,1383.06,-1484.86,-906.37
8380,-3.8459,-0.2245,-0.0283,-1523.19,-375.49,421.75
8390,-3.8461,-0.2148,-0.0432,-726.32,390.14,-1265.69
8400,-3.8461,-0.1998,-0.0822,508.06,-1516.05,-1312.62
8410,-3.8461,-0.1819,-0.1396,-1570.07,1499.57,-531.43
8420,-3.8459,-0.1558,-0.2158,726.81,-1859.74,155.94
8430,-3.8459,-0.1078,-0.3118,70.56,390.32,452.70
8440,-3.8459,-0.0210,-0.4196,-1788.82,109.13,30.64
8450,-3.8459,0.1058,-0.5280,1320.56,-1687.56,249.15
8460,-3.8458,0.2433,-0.6320,1554.93,422.06,155.21
8470,-3.8456,0.3558,-0.7159,-851.32,-890.20,233.09
8480,-3.8453,0.4376,-0.7787,1554.93,360.05,1217.35
8490,-3.8451,0.5170,-0.8563,23.68,328.98,623.47
8500,-3.8450,0.6215,-0.9690,-1820.07,-1608.40,-907.96
8510,-3.8447,0.7512,-1.0959,-445.07,-30.09,1607.42
8520,-3.8446,0.8977,-1.2034,164.31,-279.79,-595.95
8530,-3.8445,1.0687,-1.2837,-1085.69,1970.46,-221.13
8540,-3.8442,1.2668,-1.3457,804.93,-310.42,622.44
8550,-3.8440,1.4515,-1.3760,-1835.69,-247.56,-1158.94
8560,-3.8746,1.5758,-1.3724,1804.93,-122.19,-1862.12
8570,-3.8739,1.6398,-1.3600,1711.18,331.18,-221.44
8580,-3.8730,1.6887,-1.3639,1898.68,1925.05,-1830.81
8590,-3.8723,1.7936,-1.3865,164.31,1425.17,919.19
8600,-3.8718,2.0073,-1.3809,1586.18,-1465.27,653.50
8610,-3.8716,2.3083,-1.2905,945.56,-746.09,1591.00
8620,-3.8715,2.6154,-1.1357,-523.19,-1183.04,-1674.44
8630,-3.8715,2.8628,-0.9995,-1226.32,-1369.93,-330.38
8640,-3.8715,3.0292,-0.9454,-1554.44,68.05,-1658.20
8650,-3.8715,3.1373,-1.0154,-257.57,-1009.77,1966.86
8660,-3.8713,3.2197,-1.2091,1586.18,-1962.65,-1080.14
8670,-3.8708,3.2616,-1.4600,133.06,1240.66,1075.74
8680,-3.8700,3.1542,-1.7191,1492.43,1131.35,-1784.12
8690,-3.8684,2.7361,-1.9873,-257.57,-40.77,1902.83
8700,-3.8661,1.9384,-2.2255,-1773.19,1630.31,27.34
8710,-3.8636,0.8629,-2.3429,117.43,-855.59,1495.61
8720,-3.8616,-0.1923,-2.2783,-1538.82,111.02,995.42
8730,-3.8605,-0.8646,-2.0614,-601.32,390.20,-1207.58
8740,-3.8604,-1.0002,-1.8022,1336.18,154.54,1370.97
8750,-3.8612,-0.7649,-1.6016,-23.19,1326.11,-1144.17
8760,-3.8624,-0.4369,-1.4935,-1898.19,-985.90,-1159.42
8770,-3.8636,-0.1826,-1.4767,86.18,842.90,-49.80
8780,-3.8645,-0.0398,-1.5276,633.06,-1000.37,872.07
8790,-3.8652,0.0249,-1.6234,-1085.69,484.25,528.26
8800,-3.8658,0.0371,-1.7382,-804.44,203.12,231.20
8810,-3.8665,0.0012,-1.8223,758.06,1515.69,1637.21
8820,-3.8672,-0.0718,-1.8531,164.31,-1250.00,-691.10
8830,-3.8680,-0.1622,-1.8466,-1179.44,-1187.68,-1144.29
8840,-3.8689,-0.2626,-1.8219,-757.57,-344.12,558.84
8850,-3.8698,-0.3705,-1.7821,-1601.32,-1188.05,-1753.60
8860,-3.8704,-0.4678,-1.7301,586.18,-94.48,-956.67
8870,-3.8707,-0.5333,-1.6705,133.06,-1438.42,-987.79
8880,-3.8710,-0.5618,-1.5955,-257.57,-1813.60,-1003.30
8890,-3.8712,-0.5673,-1.4952,101.81,-204.22,-1190.67
8900,-3.8715,-0.5651,-1.3749,-601.32,623.84,356.45
8910,-3.8719,-0.5576,-1.2480,-320.07,30.09,-158.94
8920,-3.8723,-0.5453,-1.1248,633.06,264.53,-1549.32
8930,-3.8727,-0.5389,-1.0118,-1788.82,45.78,1732.18
8940,-3.8730,-0.5496,-0.9133,-976.32,-1501.10,-673.89
8950,-3.8733,-0.5741,-0.8256,1664.31,-891.72,-220.58
8960,-3.8734,-0.6022,-0.7407,-1476.32,-1657.41,1842.10
8970,-3.8735,-0.6287,-0.6567,-1070.07,1201.90,373.54
8980,-3.8738,-0.6562,-0.5800,-460.69,-48.16,-1032.59
8990,-3.8739,-0.6833,-0.5151,8.06,1779.97,1092.59
9000,-3.8741,-0.6968,-0.4528,539.31,-1923.22,1748.96
9010,-3.8744,-0.6840,-0.3853,-1179.44,-1938.90,186.58
9020,-3.8748,-0.6417,-0.3198,461.18,-1298.22,889.83
9030,-3.8439,-0.5839,-0.2677,1867.43,-923.16,1280.58
9040,-3.8442,-0.5303,-0.2339,1273.68,1748.84,-1156.80
9050,-3.8445,-0.4843,-0.2133,133.06,-1922.91,-1375.49
9060,-3.8446,-0.4387,-0.1971,-1976.32,717.77,483.95
9070,-3.8448,-0.3959,-0.1816,-148.19,-1219.67,-906.68
9080,-3.8450,-0.3633,-0.1676,1336.18,764.83,1905.88
9090,-3.8451,-0.3422,-0.1478,1508.06,-1438.23,1140.26
9100,-3.8452,-0.3217,-0.1208,211.18,1093.08,734.07
9110,-3.8453,-0.2939,-0.1024,-1163.82,546.20,968.51
9120,-3.8455,-0.2661,-0.0981,-1616.94,-1094.36,-1906.49
9130,-3.8456,-0.2438,-0.1033,1945.56,-547.42,-515.87
9140,-3.8456,-0.2257,-0.1188,804.93,-1203.61,656.01
9150,-3.8457,-0.2073,-0.1405,-882.57,812.01,-1656.49
9160,-3.8457,-0.1888,-0.1580,1476.81,-1969.18,546.57
9170,-3.8458,-0.1755,-0.1771,-163.82,-203.55,1937.13
9180,-3.8459,-0.1681,-0.2089,1539.31,1343.38,-1250.37
9190,-3.8459,-0.1625,-0.2451,-1507.57,1280.88,1390.20
9200,-3.8459,-0.1519,-0.2700,-788.82,640.26,-891.11
9210,-3.8458,-0.1239,-0.2914,570.56,1452.82,-1938.05
9220,-3.8458,-0.0713,-0.3372,148.68,-1281.49,-188.11
9230,-3.8457,-0.0043,-0.4249,-1116.94,859.19,561.83
9240,-3.8457,0.0737,-0.5591,-538.82,1624.94,-1985.23
9250,-3.8456,0.1633,-0.7257,1445.56,437.62,1811.40
9260,-3.8453,0.2577,-0.8948,914.31,-890.32,389.16
9270,-3.8452,0.3770,-1.0417,992.43,1469.24,-1079.90
9280,-3.8451,0.5477,-1.1658,258.06,-1343.02,-627.08
9290,-3.8448,0.7673,-1.2797,-1882.57,-1217.71,1560.18
9300,-3.8445,1.0228,-1.3716,-1773.19,204.59,-955.63
9310,-3.8439,1.2932,-1.4242,-1070.07,439.45,-1518.31
9320,-3.8746,1.5415,-1.4515,1539.31,1705.63,-1159.06
9330,-3.8745,1.7434,-1.4764,1320.56,-1793.88,-18.49
9340,-3.8746,1.9137,-1.4963,-835.69,-981.02,1465.82
9350,-3.8750,2.0988,-1.4928,961.18,472.47,1247.07
9360,-3.8441,2.3524,-1.4645,648.68,925.96,-174.80
9370,-3.8440,2.6791,-1.4501,1117.43,551.45,1434.63
9380,-3.8748,3.0249,-1.4772,-1070.07,-1604.19,403.38
9390,-3.8741,3.3324,-1.5164,-804.44,-1072.27,-1596.68
9400,-3.8735,3.5471,-1.5250,-1445.07,1912.72,-1815.49
9410,-3.8732,3.6411,-1.4983,-1960.69,803.77,-18.62
9420,-3.8727,3.6012,-1.4828,-1929.44,225.83,825.20
9430,-3.8721,3.4210,-1.5345,961.18,-1789.86,1731.45
9440,-3.8710,3.1093,-1.6772,1898.68,-415.22,-1956.18
9450,-3.8693,2.6606,-1.8893,1992.43,1318.54,-1112.67
9460,-3.8669,2.0726,-2.0858,570.56,-1822.94,-659.97
9470,-3.8644,1.4225,-2.1724,1304.93,1019.65,-550.96
9480,-3.8622,0.8590,-2.1425,-1913.82,1940.25,-66.77
9490,-3.8607,0.4661,-2.0493,1961.18,1767.27,1761.41
9500,-3.8602,0.2312,-1.9291,-335.69,1688.35,-1941.53
9510,-3.8604,0.0989,-1.8193,1601.81,1078.55,1324.34
9520,-3.8607,0.0322,-1.7550,664.31,-874.82,1012.02
9530,-3.8612,0.0287,-1.7336,133.06,-640.56,-347.23
9540,-3.8617,0.0662,-1.7446,-320.07,-1906.25,-284.67
9550,-3.8623,0.0918,-1.7766,476.81,687.62,-1222.17
9560,-3.8632,0.0740,-1.8040,-241.94,593.87,-34.73
9570,-3.8640,0.0221,-1.8107,1476.81,1093.87,699.58
9580,-3.8650,-0.0465,-1.8005,-1163.82,234.38,43.33
9590,-3.8660,-0.1162,-1.7791,-1945.07,1546.75,433.96
9600,-3.8669,-0.1726,-1.7401,1133.06,296.63,-1784.73
9610,-3.8678,-0.2015,-1.6766,1914.31,1280.88,230.96
9620,-3.8688,-0.2018,-1.5945,-1788.82,1405.82,-1612.67
9630,-3.8696,-0.1835,-1.5093,-1820.07,-78.55,-503.17
9640,-3.8702,-0.1560,-1.4307,523.68,-1172.24,-518.62
9650,-3.8706,-0.1317,-1.3628,39.31,890.32,-1018.43
9660,-3.8708,-0.1193,-1.3077,-851.32,1577.82,-580.81
9670,-3.8710,-0.1200,-1.2621,742.43,624.76,-1940.06
9680,-3.8711,-0.1300,-1.2151,648.68,-1531.49,638.12
9690,-3.8713,-0.1479,-1.1588,-632.57,484.07,841.37
9700,-3.8717,-0.1783,-1.0924,1070.56,-312.81,1919.56
9710,-3.8721,-0.2238,-1.0161,1179.93,187.13,529.11
9720,-3.8726,-0.2717,-0.9260,-632.57,1952.64,1607.36
9730,-3.8730,-0.3096,-0.8259,1226.81,1483.83,1841.92
9740,-3.8735,-0.3359,-0.7294,383.06,-1703.74,795.23
9750,-3.8741,-0.3527,-0.6425,1008.06,-1344.42,-1282.71
9760,-3.8746,-0.3589,-0.5627,-1132.57,1780.52,1123.72
9770,-3.8439,-0.3472,-0.4883,-1929.44,-16.36,1217.59
9780,-3.8444,-0.3158,-0.4198,-429.44,1514.89,-422.85
9790,-3.8446,-0.2771,-0.3497,-413.82,-1719.42,405.40
9800,-3.8450,-0.2429,-0.2744,539.31,-750.55,-1047.61
9810,-3.8452,-0.2208,-0.2056,914.31,890.14,-1828.67
9820,-3.8455,-0.2183,-0.1520,-257.57,1702.64,-1609.80
9830,-3.8456,-0.2336,-0.1127,70.56,562.07,530.94
9840,-3.8457,-0.2559,-0.0881,-1898.19,1593.26,968.51
9850,-3.8458,-0.2721,-0.0737,-741.94,733.83,-390.81
9860,-3.8458,-0.2765,-0.0649,1179.93,-1422.42,-437.68
9870,-3.8457,-0.2760,-0.0648,617.43,-297.42,124.82
9880,-3.8457,-0.2812,-0.0712,679.93,-281.80,1531.07
9890,-3.8457,-0.2955,-0.0729,8.06,-1094.30,-468.93
9900,-3.8456,-0.3116,-0.0636,-1820.07,-1313.11,718.57
9910,-3.8456,-0.3173,-0.0468,117.43,-125.61,546.69
9920,-3.8457,-0.3080,-0.0317,-601.32,-1969.42,-1156.37
9930,-3.8458,-0.2896,-0.0348,586.18,-47.49,-500.12
9940,-3.8459,-0.2673,-0.0708,-1054.44,-438.11,-93.87
9950,-3.8459,-0.2416,-0.1431,1789.31,-1047.42,-1640.81
9960,-3.8458,-0.2019,-0.2397,1086.18,1702.64,171.57
9970,-3.8457,-0.1300,-0.3367,-1835.69,1327.70,374.51
9980,-3.8456,-0.0226,-0.4133,-632.57,921.57,1389.95
9990,-3.8455,0.1117,-0.4607,1117.43,-890.69,-1469.60
10000,-3.8453,0.2684,-0.4921,-1695.07,1031.43,-1250.92
10010,-3.8452,0.4158,-0.5375,-1632.57,1016.11,-1454.10
10020,-3.8450,0.5031,-0.6232,1226.81,-796.08,280.15
10030,-3.8447,0.5323,-0.7620,398.68,235.35,842.53
10040,-3.8444,0.5730,-0.9321,148.68,-1530.21,717.22
10050,-3.8439,0.6888,-1.0886,1351.81,688.60,904.42
10060,-3.8746,0.8805,-1.1875,179.93,657.59,-1236.51
10070,-3.8741,1.1085,-1.1981,711.18,1.71,653.93
10080,-3.8739,1.3231,-1.1428,1898.68,-1357.24,-1377.38
10090,-3.8735,1.4883,-1.0890,1367.43,1721.31,-1877.26
