timestamp_ms,ax,ay,az,gx,gy,gz
0,-3.8452,0.0845,-0.4154,1992.43,-1468.75,296.02
10,-3.8455,0.1293,-0.4319,-1179.44,-1171.75,-1703.98
20,-3.8456,0.1462,-0.4678,554.93,718.99,-1016.48
30,-3.8456,0.1387,-0.5242,-1273.19,125.24,-875.92
40,-3.8455,0.1221,-0.5892,1758.06,906.49,1233.34
50,-3.8455,0.1182,-0.6340,-366.94,578.31,-110.53
60,-3.8453,0.1390,-0.6442,-866.94,-1156.07,1936.22
70,-3.8453,0.1890,-0.6428,1804.93,1547.12,1170.59
80,-3.8455,0.2639,-0.6661,195.56,1719.12,-1751.28
90,-3.8455,0.3525,-0.7325,1789.31,-1265.14,123.66
100,-3.8456,0.4408,-0.8306,1133.06,-1764.95,-1126.46
110,-3.8456,0.5179,-0.9552,429.93,1688.35,248.35
120,-3.8458,0.5984,-1.1115,-1695.07,1735.35,-33.14
130,-3.8458,0.7129,-1.2827,601.81,1735.53,-1299.07
140,-3.8457,0.8867,-1.4285,-741.94,-186.16,-533.81
150,-3.8455,1.1320,-1.5051,1508.06,1157.96,1294.07
160,-3.8455,1.4415,-1.5372,898.68,-654.05,-1346.74
170,-3.8456,1.7805,-1.5857,523.68,-762.82,-799.93
180,-3.8457,2.0920,-1.6506,-85.69,1034.67,575.01
190,-3.8459,2.3440,-1.6989,-210.69,722.78,512.39
200,-3.8462,2.5562,-1.7230,39.31,-1448.55,1340.39
210,-3.8463,2.7644,-1.7102,-804.44,-541.93,1277.83
220,-3.8463,2.9647,-1.6218,1851.81,1099.12,59.14
230,-3.8463,3.0996,-1.4818,-507.57,411.99,653.08
240,-3.8462,3.1284,-1.3779,758.06,-1665.83,90.82
250,-3.8461,3.0668,-1.3545,445.56,-368.90,-1127.75
260,-3.8458,2.9553,-1.4076,554.93,-1369.02,-752.69
270,-3.8456,2.8271,-1.5125,-1710.69,-166.14,-2.81
280,-3.8452,2.6919,-1.6412,1883.06,-1588.26,-596.74
290,-3.8446,2.5408,-1.8041,570.56,1927.12,-1503.23
300,-3.8749,2.3529,-2.0356,1226.81,1083.07,-847.29
310,-3.8733,2.1166,-2.3112,1179.93,-557.92,1620.97
320,-3.8713,1.8704,-2.5463,-1070.07,175.96,-1817.02
330,-3.8694,1.6694,-2.6774,-585.69,-1918.27,-333.13
340,-3.8678,1.5232,-2.6842,1695.56,1300.11,1635.38
350,-3.8671,1.3984,-2.5936,-1023.19,424.80,-1474.00
360,-3.8669,1.2686,-2.4668,-991.94,18.31,-1786.32
370,-3.8672,1.1515,-2.3464,-1616.94,252.44,-879.82
380,-3.8676,1.0800,-2.2451,-601.32,-341.55,-473.39
390,-3.8679,1.0437,-2.1753,-1757.57,627.08,1839.36
400,-3.8683,1.0027,-2.1493,1601.81,1564.51,1136.35
410,-3.8685,0.9266,-2.1682,351.81,892.58,73.91
420,-3.8688,0.8087,-2.2094,-1382.57,-1529.48,-785.52
430,-3.8688,0.6718,-2.2152,-476.32,1204.65,276.92
440,-3.8690,0.5514,-2.1410,1992.43,454.41,870.67
450,-3.8696,0.4652,-2.0049,-1413.82,1954.16,-722.96
460,-3.8727,0.2413,-1.5441,-1632.57,-171.33,-1909.48
470,-3.8732,0.1825,-1.4746,-1101.32,-1640.20,-878.05
480,-3.8734,0.1217,-1.4196,-632.57,-749.69,-377.93
490,-3.8734,0.0571,-1.3812,-413.82,-1702.94,-612.18
500,-3.8732,-0.0139,-1.3595,-679.44,-796.81,44.13
510,-3.8730,-0.0939,-1.3506,-1773.19,1999.94,-268.31
520,-3.8727,-0.1820,-1.3397,-7.57,-859.62,-1205.81
530,-3.8723,-0.2693,-1.3071,711.18,530.88,-112.00
540,-3.8719,-0.3424,-1.2412,1539.31,702.58,-830.69
550,-3.8717,-0.3943,-1.1499,179.93,1139.95,919.43
560,-3.8718,-0.4352,-1.0575,1539.31,827.33,-377.26
570,-3.8719,-0.4805,-0.9764,304.93,655.40,1529.17
580,-3.8722,-0.5309,-0.8993,-1491.94,-969.73,-1720.70
590,-3.8724,-0.5784,-0.8151,54.93,905.21,-173.65
600,-3.8726,-0.6246,-0.7283,1976.81,-313.66,-1189.15
610,-3.8727,-0.6758,-0.6553,54.93,-1204.35,-923.34
620,-3.8728,-0.7269,-0.5974,1508.06,139.28,-79.41
630,-3.8728,-0.7644,-0.5470,-1038.82,-454.59,889.40
640,-3.8729,-0.7830,-0.4996,-1835.69,1998.47,920.78
650,-3.8732,-0.7924,-0.4569,-210.69,60.91,-1469.73
660,-3.8734,-0.8032,-0.4205,-1413.82,1529.66,1124.08
670,-3.8738,-0.8107,-0.3765,1195.56,-1814.09,1702.27
680,-3.8741,-0.7968,-0.3198,242.43,-173.46,-1719.54
690,-3.8745,-0.7578,-0.2727,-1976.32,-923.46,-453.80
700,-3.8748,-0.7080,-0.2539,-991.94,1107.85,1827.58
710,-3.8750,-0.6522,-0.2623,1383.06,-485.78,-1422.42
720,-3.8439,-0.5815,-0.2792,523.68,-1563.78,1671.33
730,-3.8440,-0.4924,-0.2853,1570.56,280.09,1108.83
740,-3.8442,-0.3927,-0.2767,976.81,-500.98,-641.24
750,-3.8444,-0.3013,-0.2588,1742.43,592.96,421.33
760,-3.8446,-0.2418,-0.2366,1445.56,-1109.99,561.95
770,-3.8448,-0.2217,-0.2144,1054.93,1733.89,30.76
780,-3.8452,-0.2283,-0.2045,-366.94,577.64,-141.05
790,-3.8453,-0.2429,-0.2242,-1210.69,1843.26,1718.32
800,-3.8453,-0.2496,-0.2725,914.31,-687.99,687.01
810,-3.8452,-0.2388,-0.3329,54.93,1140.14,374.45
820,-3.8452,-0.2074,-0.3933,1445.56,1405.76,-1422.55
830,-3.8452,-0.1545,-0.4406,1461.18,1671.45,61.71
840,-3.8455,-0.0969,-0.4613,226.81,-375.31,-1375.92
850,-3.8457,-0.0659,-0.4652,-398.19,968.51,-1704.04
860,-3.8461,-0.0729,-0.5040,-429.44,468.57,-1547.79
870,-3.8464,-0.0897,-0.6294,-1320.07,-500.18,873.96
880,-3.8469,-0.0562,-0.8365,523.68,-547.06,-485.66
890,-3.8473,0.0798,-1.0797,820.56,937.38,-736.02
900,-3.8475,0.3364,-1.2988,-1773.19,1797.00,247.86
910,-3.8479,0.6847,-1.4523,-929.44,1750.61,-1877.56
920,-3.8481,1.0533,-1.5486,-351.32,-1889.34,856.51
930,-3.8484,1.3777,-1.6018,-1163.82,1783.26,887.57
940,-3.8486,1.6206,-1.6206,351.81,-1028.56,-1550.05
950,-3.8488,1.7700,-1.6345,-554.44,565.61,981.20
960,-3.8490,1.8463,-1.6511,-1429.44,-1215.33,-659.48
970,-3.8491,1.8895,-1.6444,336.18,659.85,-1721.98
980,-3.8491,1.9131,-1.6262,1867.43,1519.29,762.39
990,-3.8490,1.8916,-1.6368,883.06,-152.53,168.64
1000,-3.8488,1.8059,-1.6915,-1866.94,-1511.96,668.64
1010,-3.8484,1.6820,-1.7715,-835.69,-512.15,-1534.61
1020,-3.8478,1.5717,-1.8467,-695.07,1253.23,1090.27
1030,-3.8472,1.4996,-1.9025,1179.93,-371.95,-206.79
1040,-3.8463,1.4713,-1.9503,-38.82,487.24,1902.53
1050,-3.8453,1.4923,-2.0061,336.18,-1637.76,1043.03
1060,-3.8441,1.5618,-2.0978,-976.32,-778.38,1542.91
1070,-3.8737,1.6670,-2.2537,-85.69,-512.63,355.22
1080,-3.8717,1.7842,-2.4180,1383.06,-465.52,-113.83
1090,-3.8696,1.8918,-2.4839,383.06,-1496.52,1760.86
1100,-3.8682,1.9863,-2.4092,-1835.69,-1933.84,1229.49
1110,-3.8674,2.0656,-2.2450,-1741.94,-371.15,1385.86
1120,-3.8672,2.1077,-2.0935,398.68,644.65,-348.14
1130,-3.8668,2.0874,-2.0410,1789.31,35.34,-394.71
1140,-3.8661,2.0103,-2.0844,-804.44,-1245.97,1620.97
1150,-3.8652,1.9086,-2.1611,1320.56,1207.03,605.29
1160,-3.8646,1.8239,-2.2437,304.93,-621.28,-1379.27
1170,-3.8641,1.7961,-2.3241,1461.18,816.04,1089.36
1180,-3.8640,1.8251,-2.3612,1914.31,-1480.90,-207.70
1190,-3.8641,1.8639,-2.3285,1617.43,1769.17,1339.11
1200,-3.8649,1.8522,-2.2604,-1413.82,1956.73,-692.08
1210,-3.8658,1.7698,-2.2092,1086.18,-1324.52,-1066.96
1220,-3.8669,1.6399,-2.1938,-1460.69,1222.17,-1191.83
1230,-3.8680,1.4835,-2.2028,1914.31,-809.33,-1285.58
1240,-3.8690,1.3199,-2.2227,1898.68,-1950.26,870.67
1250,-3.8722,0.7830,-2.1960,-851.32,-529.54,-848.14
1260,-3.8727,0.6660,-2.1743,226.81,-1092.22,-551.21
1270,-3.8729,0.5380,-2.1511,1258.06,1688.78,1714.48
1280,-3.8732,0.3945,-2.1056,867.43,657.29,-269.84
1290,-3.8733,0.2388,-2.0282,-1491.94,-1514.89,-1504.15
1300,-3.8734,0.0730,-1.9252,-1429.44,391.05,1417.91
1310,-3.8735,-0.0967,-1.8046,1351.81,1578.25,1761.84
1320,-3.8735,-0.2555,-1.6572,-366.94,1031.01,387.08
1330,-3.8737,-0.3929,-1.4709,-695.07,-109.92,-34.55
1340,-3.8737,-0.5117,-1.2664,1711.18,-266.42,1731.45
1350,-3.8738,-0.6217,-1.0765,-1491.94,1920.84,388.12
1360,-3.8740,-0.7220,-0.9053,429.93,-1782.47,-1939.64
1370,-3.8741,-0.8036,-0.7396,-413.82,139.16,1982.60
1380,-3.8741,-0.8662,-0.5845,1148.68,1342.16,826.66
1390,-3.8741,-0.9106,-0.4625,1133.06,1201.42,1576.97
1400,-3.8741,-0.9337,-0.3796,-554.44,810.67,-454.04
1410,-3.8740,-0.9314,-0.3224,492.43,-579.96,1358.58
1420,-3.8740,-0.9043,-0.2793,789.31,-1251.83,1311.83
1430,-3.8741,-0.8589,-0.2449,258.06,263.85,-1063.05
1440,-3.8743,-0.8051,-0.2128,-1929.44,670.17,-1172.36
1450,-3.8744,-0.7527,-0.1797,961.18,779.66,-1828.55
1460,-3.8745,-0.7064,-0.1438,-335.69,1014.10,1546.51
1470,-3.8746,-0.6696,-0.1039,1586.18,1607.97,843.44
1480,-3.8748,-0.6428,-0.0677,-1695.07,-1282.59,343.51
1490,-3.8749,-0.6251,-0.0402,1726.81,-657.53,343.57
1500,-3.8750,-0.6125,-0.0188,-7.57,-1126.28,249.88
1510,-3.8440,-0.6018,-0.0038,1601.81,1608.15,-218.81
1520,-3.8441,-0.5950,0.0040,-1023.19,-469.97,-484.44
1530,-3.8441,-0.5905,0.0063,-148.19,530.03,140.62
1540,-3.8442,-0.5804,0.0088,429.93,826.97,-1500.00
1550,-3.8442,-0.5645,0.0144,1711.18,1139.47,-1953.12
1560,-3.8442,-0.5524,0.0186,-241.94,1858.22,0.00
1570,-3.8445,-0.5536,0.0149,1304.93,-1610.47,-1187.50
1580,-3.8447,-0.5664,-0.0155,1148.68,1920.78,-218.75
1590,-3.8448,-0.5791,-0.0826,-491.94,-1969.91,1531.19
1600,-3.8450,-0.5765,-0.1672,1883.06,1436.34,-1640.81
1610,-3.8450,-0.5452,-0.2397,-1788.82,-1391.78,780.88
1620,-3.8451,-0.4868,-0.2803,-1773.19,1327.03,327.64
1630,-3.8455,-0.4229,-0.3076,1695.56,139.65,-1078.67
1640,-3.8458,-0.3716,-0.3695,1883.06,639.77,-1953.74
1650,-3.8462,-0.3210,-0.4834,445.56,718.02,1546.14
1660,-3.8464,-0.2465,-0.6237,-1085.69,-1860.05,1717.77
1670,-3.8466,-0.1349,-0.7645,461.18,187.01,-1001.22
1680,-3.8466,0.0262,-0.8925,-1257.57,-1844.06,-1376.53
1690,-3.8466,0.2336,-1.0237,-632.57,1765.62,-1892.40
1700,-3.8467,0.4449,-1.2046,1914.31,969.18,-127.01
1710,-3.8467,0.6349,-1.4846,961.18,1813.35,-1643.01
1720,-3.8466,0.8440,-1.8617,1273.68,1969.97,-799.80
1730,-3.8462,1.1475,-2.2419,39.31,1704.77,-1050.54
1740,-3.8457,1.5861,-2.4976,-1116.94,1033.45,401.86
1750,-3.8455,2.1207,-2.5565,-976.32,315.55,-692.38
1760,-3.8452,2.6350,-2.4528,-538.82,769.71,1104.37
1770,-3.8452,2.9989,-2.2728,1289.31,-1948.00,870.18
1780,-3.8453,3.1426,-2.1078,-132.57,1083.92,-1082.58
1790,-3.8452,3.0757,-2.0059,-1741.94,-1790.77,792.72
1800,-3.8451,2.8787,-1.9386,1695.56,-744.02,1277.28
1810,-3.8451,2.6423,-1.8665,476.81,-135.01,-81.97
1820,-3.8450,2.4191,-1.7954,-1773.19,1098.88,1074.46
1830,-3.8448,2.2330,-1.7596,1648.68,-1807.80,-1409.79
1840,-3.8444,2.0957,-1.7952,1836.18,-1230.04,-722.23
1850,-3.8746,2.0142,-1.9171,258.06,-1777.16,1933.96
1860,-3.8733,1.9774,-2.1000,1820.56,-1386.72,1449.34
1870,-3.8717,1.9668,-2.2617,1117.43,-793.03,511.47
1880,-3.8704,1.9696,-2.3230,-241.94,-1496.22,-82.58
1890,-3.8693,1.9733,-2.2993,117.43,-1339.90,245.42
1900,-3.8689,1.9769,-2.2687,586.18,1691.35,-535.77
1910,-3.8687,1.9828,-2.2847,1054.93,1613.22,558.04
1920,-3.8685,1.9833,-2.3535,1804.93,-433.65,1761.11
1930,-3.8680,1.9634,-2.4534,1867.43,-1246.15,276.61
1940,-3.8673,1.9170,-2.5502,-679.44,1972.53,-1239.20
1950,-3.8663,1.8353,-2.6194,1383.06,1581.85,-67.50
1960,-3.8654,1.6930,-2.6665,-1070.07,722.29,-520.75
1970,-3.8646,1.4766,-2.6940,711.18,-1309.20,-1786.50
1980,-3.8644,1.2125,-2.6713,1008.06,-825.26,-677.19
1990,-3.8645,0.9495,-2.5867,-788.82,-1919.56,-1645.87
2000,-3.8650,0.7050,-2.4707,1539.31,908.08,-1161.32
2010,-3.8656,0.4581,-2.3503,-1757.57,-248.66,495.12
2020,-3.8665,0.1937,-2.2242,-1351.32,-842.90,-1598.39
2030,-3.8672,-0.0696,-2.0760,804.93,-702.76,120.61
2040,-3.8679,-0.2878,-1.9014,-898.19,-1718.93,886.54
2050,-3.8685,-0.4240,-1.7172,-835.69,640.01,1840.03
2060,-3.8690,-0.4773,-1.5426,1742.43,217.90,512.27
2070,-3.8696,-0.4802,-1.3984,-1085.69,-1438.48,1981.32
2080,-3.8702,-0.4672,-1.2927,-1460.69,1014.65,-377.75
2090,-3.8706,-0.4479,-1.2068,211.18,-1454.04,28.69
2100,-3.8711,-0.4197,-1.1273,-1320.07,1545.96,-939.88
2110,-3.8715,-0.3821,-1.0541,-1710.69,-282.10,-1658.51
2120,-3.8718,-0.3351,-0.9900,-898.19,1092.96,341.67
2130,-3.8723,-0.2860,-0.9384,1117.43,1296.20,1623.05
2140,-3.8728,-0.2441,-0.8982,-601.32,-94.36,-486.27
2150,-3.8732,-0.2117,-0.8627,758.06,1046.39,-704.90
2160,-3.8734,-0.1902,-0.8229,914.31,1593.32,1279.54
2170,-3.8737,-0.1855,-0.7759,-335.69,-1312.93,498.35
2180,-3.8739,-0.2042,-0.7218,258.06,702.76,1279.72
2190,-3.8740,-0.2466,-0.6620,1867.43,-375.43,123.54
2200,-3.8743,-0.3126,-0.6078,445.56,-719.24,-485.72
2210,-3.8744,-0.4005,-0.5682,-7.57,-1781.92,-1532.47
2220,-3.8745,-0.4850,-0.5297,742.43,-719.54,-1907.41
2230,-3.8746,-0.5359,-0.4694,1929.93,217.77,-1969.79
2240,-3.8749,-0.5486,-0.3895,-585.69,-63.60,-1235.35
2250,-3.8440,-0.5383,-0.3123,1789.31,-1844.85,-703.92
2260,-3.8444,-0.5249,-0.2491,-898.19,45.78,-1109.99
2270,-3.8446,-0.5209,-0.2029,820.56,123.96,358.89
2280,-3.8448,-0.5197,-0.1753,1336.18,-1954.16,358.95
2290,-3.8451,-0.5115,-0.1581,1492.43,1577.09,-1031.62
2300,-3.8452,-0.4996,-0.1265,-1460.69,-219.79,-781.62
2310,-3.8453,-0.4886,-0.0756,54.93,-172.85,-781.56
2320,-3.8455,-0.4786,-0.0244,1461.18,-1657.23,-1515.81
2330,-3.8456,-0.4729,0.0089,-1257.57,889.65,-1500.06
2340,-3.8456,-0.4771,0.0055,-523.19,1155.27,1093.75
2350,-3.8456,-0.4874,-0.0355,-1054.44,717.77,-218.75
2360,-3.8453,-0.4939,-0.0938,1617.43,-532.23,1312.38
2370,-3.8452,-0.4932,-0.1515,789.31,14.65,1734.19
2380,-3.8452,-0.4883,-0.2076,883.06,624.02,-906.56
2390,-3.8452,-0.4807,-0.2598,1508.06,1436.52,1952.70
2400,-3.8453,-0.4634,-0.3048,-1523.19,-1235.35,1624.45
2410,-3.8456,-0.4243,-0.3538,695.56,999.08,1515.01
2420,-3.8458,-0.3604,-0.4292,1695.56,-1266.48,233.64
2430,-3.8461,-0.2721,-0.5481,1883.06,1077.39,-688.35
2440,-3.8459,-0.1641,-0.6913,1179.93,1858.83,1920.78
2450,-3.8457,-0.0576,-0.8319,-991.94,-469.12,1623.60
2460,-3.8455,0.0227,-0.9692,633.06,1531.13,1576.48
2470,-3.8453,0.0830,-1.1036,-1085.69,-62.50,-1658.20
2480,-3.8453,0.1638,-1.2449,-1366.94,-1265.50,-1080.32
2490,-3.8455,0.3068,-1.3707,976.81,656.56,-424.32
2500,-3.8456,0.5139,-1.4547,-726.32,547.42,841.06
2510,-3.8459,0.7355,-1.5369,1789.31,1797.85,-565.37
2520,-3.8462,0.9342,-1.6360,-1851.32,-717.35,1871.95
2530,-3.8463,1.1219,-1.7161,-413.82,-1404.48,184.27
2540,-3.8464,1.3195,-1.7634,-382.57,345.89,-815.86
2550,-3.8464,1.5242,-1.7994,898.68,-1716.19,-1612.85
2560,-3.8466,1.7274,-1.8436,-898.19,1674.80,-1878.54
2570,-3.8467,1.9509,-1.8805,1117.43,18.98,262.02
2580,-3.8469,2.2048,-1.8622,1726.81,-699.34,-331.85
2590,-3.8470,2.4432,-1.7766,-1773.19,1644.90,-144.29
2600,-3.8470,2.6060,-1.6909,742.43,598.51,309.02
2610,-3.8470,2.6676,-1.6899,1570.56,-432.43,59.14
2620,-3.8469,2.6451,-1.7753,1461.18,-307.31,-1784.61
2630,-3.8466,2.5721,-1.8798,-1413.82,770.75,684.02
2640,-3.8463,2.4766,-1.9489,1242.43,-604.37,-175.60
2650,-3.8458,2.3732,-1.9893,1008.06,-1448.30,996.15
2660,-3.8452,2.2623,-2.0502,-226.32,1379.58,761.72
2670,-3.8444,2.1501,-2.1511,1586.18,1582.52,1199.10
2680,-3.8746,2.0702,-2.2700,-773.19,660.40,-97.96
2690,-3.8735,2.0642,-2.3702,992.43,1441.53,-301.33
2700,-3.8726,2.1451,-2.4263,226.81,613.40,-489.01
2710,-3.8717,2.2833,-2.4562,-1413.82,1441.65,760.86
2720,-3.8711,2.4164,-2.5128,273.68,1613.83,385.80
2730,-3.8706,2.4841,-2.6323,1304.93,-1635.93,-958.07
2740,-3.8699,2.4513,-2.8123,1976.81,-932.68,1260.44
2750,-3.8691,2.3215,-3.0068,1773.68,36.01,-1442.99
2760,-3.8684,2.1266,-3.1501,1164.31,-870.48,-724.67
2770,-3.8677,1.8951,-3.2245,211.18,785.40,759.46
2780,-3.8672,1.6414,-3.2512,-1413.82,-730.71,1696.78
2790,-3.8668,1.3654,-3.2274,-1898.19,-153.08,9.22
2800,-3.8668,1.0742,-3.1361,-1226.32,-1106.75,87.40
2810,-3.8672,0.7841,-2.9850,1508.06,-1419.80,259.46
2820,-3.8679,0.5134,-2.8020,367.43,1923.40,-583.98
2830,-3.8685,0.2775,-2.6161,1726.81,1344.73,322.63
2840,-3.8691,0.0769,-2.4385,-476.32,1141.11,979.25
2850,-3.8696,-0.0894,-2.2704,1851.81,-124.88,-895.45
2860,-3.8699,-0.2164,-2.1122,570.56,1406.07,1808.04
2870,-3.8701,-0.2949,-1.9537,304.93,1655.82,-816.65
2880,-3.8702,-0.3225,-1.7858,-1741.94,1936.89,449.28
2890,-3.8706,-0.3159,-1.6196,-1273.19,-563.17,-925.42
2900,-3.8710,-0.2970,-1.4709,-429.44,702.45,-1143.80
2910,-3.8713,-0.2780,-1.3378,1992.43,-266.24,1715.82
2920,-3.8717,-0.2607,-1.2169,429.93,780.70,1997.38
2930,-3.8719,-0.2493,-1.1202,-1366.94,249.45,528.87
2940,-3.8722,-0.2546,-1.0587,101.81,624.51,1107.18
2950,-3.8724,-0.2755,-1.0206,-585.69,499.45,-205.20
2960,-3.8726,-0.2983,-0.9727,742.43,1374.45,-392.64
2970,-3.8727,-0.3154,-0.8947,1820.56,-484.99,1701.17
2980,-3.8729,-0.3281,-0.8021,-366.94,1499.33,576.35
2990,-3.8733,-0.3423,-0.7170,-1991.94,1343.08,1217.16
3000,-3.8737,-0.3638,-0.6406,195.56,233.70,1889.22
3010,-3.8740,-0.3915,-0.5690,1445.56,-1985.11,-251.28
3020,-3.8743,-0.4158,-0.5032,1898.68,-813.29,-1469.91
3030,-3.8745,-0.4293,-0.4431,-1210.69,-391.48,1748.96
3040,-3.8748,-0.4344,-0.3962,1054.93,-703.98,1249.08
3050,-3.8750,-0.4360,-0.3685,398.68,1296.02,-1563.29
3060,-3.8439,-0.4285,-0.3326,195.56,842.90,1827.39
3070,-3.8440,-0.4159,-0.2614,1164.31,1436.65,1405.58
3080,-3.8442,-0.4166,-0.1802,-1226.32,-1438.35,-703.67
3090,-3.8444,-0.4403,-0.1273,-1320.07,952.27,1312.13
3100,-3.8445,-0.4818,-0.0909,-351.32,-282.17,-1359.68
3110,-3.8445,-0.5239,-0.0497,-1663.82,374.02,1749.82
3120,-3.8446,-0.5536,-0.0125,945.56,1655.21,-922.00
3130,-3.8447,-0.5673,-0.0015,1148.68,-1579.22,-1625.06
3140,-3.8448,-0.5649,-0.0355,-601.32,-173.03,1828.06
3150,-3.8448,-0.5497,-0.1127,-304.44,-532.41,859.25
3160,-3.8447,-0.5204,-0.1859,1648.68,1592.65,749.76
3170,-3.8446,-0.4716,-0.2042,1398.68,217.71,1343.38
3180,-3.8446,-0.4073,-0.1874,-351.32,1874.02,983.95
3190,-3.8448,-0.3400,-0.1993,-132.57,30.40,-765.99
3200,-3.8450,-0.2734,-0.2679,492.43,-1500.67,890.20
3210,-3.8451,-0.2001,-0.3595,1008.06,1718.20,1483.83
3220,-3.8451,-0.1179,-0.4396,-1601.32,1999.57,108.64
3230,-3.8452,-0.0383,-0.5132,914.31,-250.24,1952.21
3240,-3.8453,0.0287,-0.6012,-898.19,-1672.00,-1422.91
3250,-3.8455,0.0847,-0.7097,-320.07,-953.12,-548.10
3260,-3.8455,0.1312,-0.8472,-1148.19,1156.37,-1970.15
3270,-3.8453,0.1740,-1.0414,804.93,-437.26,763.92
3280,-3.8451,0.2391,-1.2732,-1726.32,-1296.57,1654.17
3290,-3.8447,0.3608,-1.4847,-1382.57,1031.68,-752.50
3300,-3.8442,0.5605,-1.6519,-1804.44,1953.80,-1143.55
3310,-3.8750,0.8258,-1.7550,-241.94,563.54,-690.73
3320,-3.8745,1.1003,-1.7729,1711.18,-639.04,1777.77
3330,-3.8743,1.3077,-1.7339,851.81,1064.64,527.77
3340,-3.8744,1.3989,-1.6893,-601.32,-1935.00,980.96
3350,-3.8748,1.3860,-1.6400,-929.44,-231.69,-1972.11
3360,-3.8439,1.3236,-1.5444,1414.31,-1919.19,12.39
3370,-3.8444,1.2920,-1.4177,1429.93,-1684.94,1059.45
3380,-3.8448,1.3602,-1.3322,1383.06,-1466.25,-1971.56
3390,-3.8452,1.5372,-1.3208,-1882.57,1487.00,591.13
3400,-3.8456,1.7863,-1.3540,773.68,-1059.51,1809.88
3410,-3.8458,2.0472,-1.3605,648.68,-1309.02,841.06
3420,-3.8462,2.2643,-1.2843,-1945.07,1863.34,-80.81
3430,-3.8464,2.4268,-1.1545,1836.18,-386.23,-252.56
3440,-3.8464,2.5691,-1.0614,-1366.94,223.45,1841.49
3450,-3.8462,2.7145,-1.0504,851.81,145.63,-1705.20
3460,-3.8457,2.8578,-1.1198,-538.82,1552.12,-345.83
3470,-3.8450,2.9646,-1.2404,1804.93,677.43,1013.43
3480,-3.8444,2.9926,-1.3364,-523.19,1240.11,185.06
3490,-3.8440,2.9470,-1.3639,-945.07,943.30,-1908.87
3500,-3.8750,2.8672,-1.3427,1226.81,1427.61,-440.19
3510,-3.8746,2.7970,-1.3312,-991.94,146.18,59.88
3520,-3.8743,2.7740,-1.3820,-1976.32,1614.81,1434.88
3530,-3.8735,2.8010,-1.5010,-913.82,-885.25,1606.63
3540,-3.8726,2.8450,-1.6586,-1460.69,-119.57,-174.87
3550,-3.8713,2.8694,-1.8246,164.31,-291.32,1777.95
3560,-3.8702,2.8407,-1.9966,-710.69,-1541.32,-1269.23
3570,-3.8691,2.7233,-2.1758,-382.57,442.99,27.34
3580,-3.8684,2.4834,-2.3451,586.18,1505.31,-582.40
3590,-3.8678,2.1082,-2.4814,1883.06,-167.05,1526.61
3600,-3.8677,1.6262,-2.5582,1851.81,-1620.91,-1708.01
3610,-3.8679,1.1128,-2.5652,164.31,550.05,1245.00
3620,-3.8684,0.6561,-2.5179,-1554.44,-341.61,760.56
3630,-3.8689,0.3086,-2.4305,-7.57,1704.35,1823.18
3640,-3.8693,0.0934,-2.3143,-491.94,891.17,-98.51
3650,-3.8694,0.0132,-2.1849,-38.82,-234.25,1245.42
3660,-3.8696,0.0343,-2.0563,1695.56,328.12,-1176.15
3670,-3.8699,0.1047,-1.9420,398.68,796.94,-1347.78
3680,-3.8701,0.1877,-1.8514,1414.31,-577.94,1402.40
3690,-3.8704,0.2706,-1.7771,39.31,-984.01,1011.96
3700,-3.8706,0.3463,-1.7157,-1351.32,531.74,-1628.48
3710,-3.8707,0.4011,-1.6802,336.18,391.30,-1034.61
3720,-3.8706,0.4215,-1.6682,-648.19,938.23,699.83
3730,-3.8705,0.4022,-1.6500,1961.18,-1530.46,-1737.67
3740,-3.8704,0.3461,-1.5964,-507.57,797.61,-940.73
3750,-3.8704,0.2583,-1.5087,304.93,-343.08,-1237.55
3760,-3.8705,0.1506,-1.4122,1070.56,-1108.89,106.38
3770,-3.8708,0.0323,-1.3224,-710.69,-765.38,1325.32
3780,-3.8712,-0.0950,-1.2335,148.68,-1265.56,1997.38
3790,-3.8715,-0.2290,-1.1407,-148.19,-1875.24,872.56
3800,-3.8717,-0.3585,-1.0422,-1304.44,1999.51,-1236.63
3810,-3.8718,-0.4701,-0.9387,-1882.57,-1391.36,-1267.70
3820,-3.8719,-0.5511,-0.8468,-163.82,-141.60,-1580.02
3830,-3.8721,-0.5963,-0.7816,1461.18,-376.10,29.54
3840,-3.8724,-0.6105,-0.7375,-320.07,-32.47,-64.09
3850,-3.8727,-0.5977,-0.6980,1867.43,1608.15,-1032.71
3860,-3.8729,-0.5646,-0.6503,-491.94,-1329.35,1248.60
3870,-3.8733,-0.5247,-0.5902,-257.57,780.09,-1657.53
3880,-3.8737,-0.4839,-0.5201,851.81,467.71,-1751.16
3890,-3.8740,-0.4432,-0.4503,-1929.44,1436.52,-1797.91
3900,-3.8744,-0.4104,-0.3948,-726.32,-1625.92,-672.79
3910,-3.8746,-0.3911,-0.3616,-523.19,1483.52,-1797.67
3920,-3.8749,-0.3804,-0.3497,1945.56,1733.58,-766.36
3930,-3.8750,-0.3702,-0.3530,-679.44,-750.79,-1688.23
3940,-3.8439,-0.3621,-0.3562,617.43,-1172.61,-1235.11
3950,-3.8440,-0.3596,-0.3340,1664.31,-1578.86,-906.98
3960,-3.8441,-0.3639,-0.2806,1976.81,1264.89,1764.95
3970,-3.8444,-0.3767,-0.2238,1429.93,93.02,-1438.05
3980,-3.8446,-0.3945,-0.1904,-210.69,-625.79,-812.99
3990,-3.8447,-0.4144,-0.1870,1508.06,-360.17,1812.07
4000,-3.8448,-0.4336,-0.2021,-1038.82,77.27,-1125.37
4010,-3.8448,-0.4497,-0.2156,508.06,-1860.23,343.32
4020,-3.8451,-0.4594,-0.2164,-1554.44,420.96,-266.05
4030,-3.8453,-0.4569,-0.2115,1211.18,311.58,-375.43
4040,-3.8457,-0.4323,-0.2115,1523.68,936.58,-250.43
4050,-3.8461,-0.3590,-0.2318,679.93,936.65,-1469.18
4060,-3.8463,-0.2390,-0.2892,-1945.07,-1656.98,530.76
4070,-3.8466,-0.1234,-0.3778,1414.31,-1000.49,-156.86
4080,-3.8466,-0.0483,-0.4620,211.18,-343.99,1780.46
4090,-3.8467,0.0013,-0.5282,1820.56,874.88,-1844.67
4100,-3.8469,0.0597,-0.6089,179.93,390.62,-766.66
4110,-3.8472,0.1633,-0.7234,-351.32,-1937.44,1733.15
4120,-3.8475,0.3485,-0.8422,914.31,-593.44,-360.84
4130,-3.8477,0.6270,-0.9353,617.43,203.80,60.85
4140,-3.8477,0.9656,-1.0197,258.06,282.47,232.54
4150,-3.8473,1.2861,-1.1107,-398.19,1486.21,201.11
4160,-3.8467,1.5406,-1.1792,633.06,1830.63,466.55
4170,-3.8461,1.7473,-1.2057,1211.18,1065.49,-627.32
4180,-3.8452,1.9156,-1.2064,-335.69,1675.23,544.49
4190,-3.8444,2.0144,-1.1986,1211.18,1581.85,185.12
4200,-3.8749,2.0110,-1.1842,1851.81,-1417.97,1872.62
4210,-3.8744,1.9232,-1.1622,1414.31,425.78,950.81
4220,-3.8745,1.8231,-1.1329,-1820.07,-761.90,-752.32
4230,-3.8750,1.7859,-1.1030,1367.43,-1012.08,-689.76
4240,-3.8444,1.8414,-1.0898,601.81,-1184.02,-1845.95
4250,-3.8448,1.9564,-1.1052,-288.82,503.54,-1689.64
4260,-3.8448,2.0684,-1.1570,-1570.07,-1464.97,732.18
4270,-3.8444,2.1426,-1.2543,758.06,-89.72,1544.56
4280,-3.8746,2.1730,-1.4023,-1741.94,-542.72,1419.37
4290,-3.8734,2.1490,-1.5690,-1851.32,504.21,606.63
4300,-3.8722,2.0739,-1.6943,-913.82,-823.97,325.01
4310,-3.8712,1.9797,-1.7566,1461.18,-870.97,-440.86
4320,-3.8704,1.9016,-1.7648,1414.31,-839.90,-1128.48
4330,-3.8698,1.8669,-1.7323,-585.69,-1886.96,1215.27
4340,-3.8694,1.8864,-1.6956,-1023.19,-1730.77,1996.58
4350,-3.8690,1.9462,-1.7015,1461.18,-1027.59,-862.73
4360,-3.8684,2.0267,-1.7766,1117.43,-1793.09,777.89
4370,-3.8678,2.1094,-1.8986,-570.07,597.66,-1362.85
4380,-3.8671,2.1805,-2.0333,-1991.94,988.46,808.78
4390,-3.8665,2.2338,-2.1940,-882.57,-261.41,1449.10
4400,-3.8657,2.2385,-2.3821,1929.93,-823.79,573.79
4410,-3.8650,2.1417,-2.5485,-1460.69,-901.92,-317.20
4420,-3.8643,1.9089,-2.6494,-1851.32,1801.03,-1364.38
4430,-3.8640,1.5646,-2.6683,351.81,878.72,-630.19
4440,-3.8643,1.1771,-2.6077,273.68,-1543.82,-364.62
4450,-3.8647,0.8004,-2.4814,-1320.07,-1778.99,1729.25
4460,-3.8654,0.4565,-2.3021,-1538.82,-1623.47,1854.49
4470,-3.8660,0.1456,-2.0857,-1554.44,1328.98,-20.14
4480,-3.8665,-0.1437,-1.8613,-1351.32,1031.49,-97.84
4490,-3.8669,-0.4092,-1.6434,1617.43,1765.32,-113.04
4500,-3.8674,-0.6294,-1.4335,-366.94,1655.40,-1456.36
4510,-3.8679,-0.7812,-1.2454,-554.44,529.97,450.32
4520,-3.8685,-0.8485,-1.0923,8.06,607.85,-518.07
4530,-3.8690,-0.8314,-0.9718,-601.32,201.42,-236.51
4540,-3.8695,-0.7489,-0.8722,1586.18,-376.65,-642.58
4550,-3.8700,-0.6316,-0.7898,148.68,373.54,1185.79
4560,-3.8706,-0.5110,-0.7328,-835.69,-1079.41,-1798.46
4570,-3.8711,-0.4022,-0.7080,-1398.19,-1782.29,154.79
4580,-3.8716,-0.3048,-0.7186,523.68,1389.83,498.60
4590,-3.8719,-0.2162,-0.7556,992.43,30.64,420.47
4600,-3.8723,-0.1455,-0.7834,336.18,-703.55,-220.28
4610,-3.8726,-0.1107,-0.7719,1383.06,-265.93,-329.71
4620,-3.8728,-0.1208,-0.7242,1836.18,1218.51,279.72
4630,-3.8733,-0.1619,-0.6564,539.31,-687.74,467.29
4640,-3.8739,-0.2048,-0.5851,-710.69,-0.37,-1298.22
4650,-3.8744,-0.2365,-0.5260,1789.31,1124.57,-1782.41
4660,-3.8748,-0.2563,-0.4840,1742.43,687.01,514.59
4670,-3.8439,-0.2673,-0.4528,-804.44,-1938.05,1764.65
4680,-3.8441,-0.2809,-0.4248,1789.31,-1938.05,1764.71
4690,-3.8444,-0.2961,-0.4023,54.93,1640.08,-0.85
4700,-3.8445,-0.3008,-0.3915,-1898.19,515.01,-594.54
4710,-3.8446,-0.2953,-0.3937,1508.06,1905.64,-47.67
4720,-3.8446,-0.2858,-0.4004,-1788.82,1624.39,-860.17
4730,-3.8445,-0.2736,-0.3934,-570.07,765.01,999.21
4740,-3.8445,-0.2616,-0.3634,992.43,1655.70,-1578.92
4750,-3.8445,-0.2588,-0.3207,-1476.32,1499.45,171.14
4760,-3.8447,-0.2700,-0.2792,-1116.94,-1031.80,-1485.05
4770,-3.8448,-0.2886,-0.2529,1445.56,280.70,155.70
4780,-3.8451,-0.3047,-0.2509,-929.44,-359.99,-1578.67
4790,-3.8452,-0.3217,-0.2747,1008.06,-94.36,593.20
4800,-3.8455,-0.3477,-0.3229,-1163.82,858.70,-1234.92
4810,-3.8456,-0.3772,-0.3929,-491.94,-1313.23,-1375.67
4820,-3.8456,-0.3992,-0.4844,-273.19,1717.96,1139.83
4830,-3.8456,-0.3933,-0.5879,914.31,-1985.17,530.27
4840,-3.8457,-0.3361,-0.6888,1664.31,764.83,1967.59
4850,-3.8458,-0.2362,-0.7812,992.43,-156.92,561.10
4860,-3.8461,-0.1335,-0.8574,1773.68,15.14,1279.72
4870,-3.8463,-0.0383,-0.9210,-1085.69,-1734.68,1420.17
4880,-3.8466,0.1049,-1.0004,-898.19,-1875.12,-1095.58
4890,-3.8466,0.3330,-1.1040,1429.93,-46.69,122.99
4900,-3.8466,0.5862,-1.2074,-1366.94,-1311.89,1029.05
4910,-3.8466,0.7817,-1.2910,-960.69,1454.22,-1533.63
4920,-3.8466,0.8992,-1.3439,70.56,-1248.47,1169.31
4930,-3.8468,0.9564,-1.3573,-898.19,-13.92,1856.69
4940,-3.8473,0.9691,-1.3386,-1570.07,-1732.54,-1830.81
4950,-3.8480,0.9619,-1.3051,54.93,658.14,-424.50
4960,-3.8488,0.9739,-1.2672,-866.94,954.96,-1049.44
4970,-3.8494,1.0231,-1.2510,664.31,1798.77,-1377.50
4980,-3.8497,1.1134,-1.2980,-1038.82,-123.05,-643.13
4990,-3.8497,1.2455,-1.3876,-1476.32,1861.51,559.94
5000,-3.8499,1.4014,-1.4397,-570.07,-1606.99,-49.62
5010,-3.8500,1.5701,-1.4004,-616.94,-278.56,1731.51
5020,-3.8503,1.7406,-1.2974,976.81,753.05,325.38
5030,-3.8508,1.8694,-1.2078,-1195.07,1940.86,1841.19
5040,-3.8511,1.9177,-1.1937,-710.69,1409.85,-1564.88
5050,-3.8510,1.9019,-1.2670,1476.81,-793.15,-1174.26
5060,-3.8505,1.8684,-1.3939,-554.44,1831.79,-986.88
5070,-3.8497,1.8469,-1.5405,-835.69,1581.73,1137.88
5080,-3.8491,1.8650,-1.6709,414.31,-1183.90,621.95
5090,-3.8488,1.9445,-1.7523,-1273.19,-1871.40,-987.67
5100,-3.8484,2.0685,-1.7991,898.68,-293.09,-1894.10
5110,-3.8480,2.2112,-1.8657,773.68,1722.78,90.21
5120,-3.8477,2.3589,-1.9919,-960.69,1191.77,605.71
5130,-3.8472,2.4951,-2.1843,1945.56,1035.83,-1582.03
5140,-3.8464,2.6180,-2.4015,-616.94,411.07,1151.98
5150,-3.8457,2.7354,-2.5690,-882.57,614.44,-848.45
5160,-3.8448,2.8438,-2.6534,-1866.94,-822.81,791.81
5170,-3.8442,2.9314,-2.6749,8.06,364.93,1260.44
5180,-3.8439,2.9738,-2.6750,-773.19,1615.05,-1099.00
5190,-3.8749,2.9398,-2.6914,648.68,1599.55,-1286.50
5200,-3.8748,2.8168,-2.7393,304.93,-494.26,-927.19
5210,-3.8746,2.6123,-2.7899,554.93,1380.49,-396.00
5220,-3.8744,2.3448,-2.7957,-1616.94,-1104.31,1869.51
5230,-3.8743,2.0420,-2.7499,148.68,-1839.17,-802.37
5240,-3.8741,1.7344,-2.6760,1383.06,19.59,-1942.87
5250,-3.8740,1.4501,-2.5807,-1991.94,1472.11,588.50
5260,-3.8739,1.2128,-2.4575,1617.43,1674.68,73.06
5270,-3.8738,1.0314,-2.3120,-757.57,1439.82,479.55
5280,-3.8737,0.8934,-2.1658,23.68,64.51,1807.98
5290,-3.8734,0.7783,-2.0436,-1632.57,-1217.04,417.60
5300,-3.8732,0.6632,-1.9453,-366.94,-1576.66,1011.60
5310,-3.8729,0.5369,-1.8499,898.68,-998.72,-1628.85
5320,-3.8727,0.4083,-1.7375,726.81,-780.21,1168.21
5330,-3.8727,0.2900,-1.6057,273.68,1594.54,-815.92
5340,-3.8727,0.1929,-1.4670,1133.06,-1530.70,1090.58
5350,-3.8728,0.1227,-1.3365,695.56,219.12,1528.38
5360,-3.8729,0.0706,-1.2275,-288.82,922.06,-1346.37
5370,-3.8729,0.0221,-1.1425,1039.31,-1124.88,325.68
5380,-3.8730,-0.0284,-1.0662,-1163.82,1765.62,1747.74
5390,-3.8732,-0.0753,-0.9821,367.43,-453.19,-1314.64
5400,-3.8733,-0.1029,-0.8931,-1632.57,-1687.68,-955.08
5410,-3.8734,-0.1033,-0.8024,-1163.82,1702.88,-611.15
5420,-3.8734,-0.0947,-0.7095,-1210.69,1312.26,560.91
5430,-3.8735,-0.1014,-0.6323,-116.94,1202.88,-470.15
5440,-3.8734,-0.1277,-0.5850,-976.32,-922.12,983.09
5450,-3.8734,-0.1649,-0.5563,-335.69,1140.32,-673.03
5460,-3.8734,-0.2076,-0.5359,-1101.32,812.13,-204.22
5470,-3.8734,-0.2500,-0.5189,1429.93,-578.55,1639.53
5480,-3.8735,-0.2845,-0.4874,8.06,1593.26,1733.34
5490,-3.8738,-0.3051,-0.4298,-413.82,1624.39,-157.23
5500,-3.8740,-0.3088,-0.3674,961.18,999.39,-485.23
5510,-3.8743,-0.2990,-0.3182,476.81,983.76,-1531.98
5520,-3.8745,-0.2906,-0.2747,1742.43,-719.36,-500.67
5530,-3.8746,-0.3069,-0.2411,-1195.07,858.76,-250.55
5540,-3.8746,-0.3488,-0.2317,726.81,1155.64,-1328.61
5550,-3.8746,-0.3958,-0.2324,-632.57,-1641.36,-937.99
5560,-3.8746,-0.4346,-0.2150,1351.81,-1735.17,-1141.11
5570,-3.8748,-0.4677,-0.1840,383.06,499.15,-0.43
5580,-3.8749,-0.5013,-0.1611,148.68,467.83,-1719.12
5590,-3.8439,-0.5291,-0.1492,-163.82,-610.41,-219.12
5600,-3.8440,-0.5409,-0.1541,289.31,920.84,-1437.81
5610,-3.8441,-0.5334,-0.1871,-1226.32,295.78,-797.18
5620,-3.8441,-0.5081,-0.2355,-273.19,61.40,1859.01
5630,-3.8441,-0.4751,-0.2805,-1023.19,1873.96,1468.26
5640,-3.8441,-0.4368,-0.3285,-804.44,108.40,452.58
5650,-3.8442,-0.3927,-0.3843,101.81,1967.90,-1219.42
5660,-3.8442,-0.3588,-0.4342,1742.43,-1172.67,374.21
5670,-3.8445,-0.3409,-0.4791,-1913.82,436.77,-282.10
5680,-3.8447,-0.3303,-0.5332,367.43,-1313.17,-204.10
5690,-3.8450,-0.3096,-0.5917,1726.81,-235.05,1545.78
5700,-3.8453,-0.2617,-0.6455,383.06,280.64,-1438.66
5710,-3.8457,-0.1874,-0.7115,-1491.94,1390.08,-32.53
5720,-3.8459,-0.0851,-0.8278,23.68,937.13,-360.78
5730,-3.8459,0.0547,-1.0135,1117.43,-1937.68,76.48
5740,-3.8459,0.2260,-1.2405,-991.94,-1734.31,-1517.64
5750,-3.8457,0.4224,-1.4601,929.93,1219.18,-1486.82
5760,-3.8453,0.6530,-1.6376,-1929.44,1110.17,1450.26
5770,-3.8451,0.9055,-1.7484,-413.82,-1608.15,1699.89
5780,-3.8451,1.1439,-1.7820,-85.69,204.83,1543.46
5790,-3.8455,1.3302,-1.7477,-1570.07,-91.55,777.71
5800,-3.8463,1.4440,-1.6704,-1726.32,299.44,-1644.04
5810,-3.8474,1.4967,-1.5703,836.18,-1809.69,-1440.80
5820,-3.8485,1.5199,-1.4541,-413.82,-997.13,-1784.36
5830,-3.8494,1.5365,-1.3363,-1445.07,1877.93,1528.38
5840,-3.8500,1.5449,-1.2560,679.93,956.12,-830.75
5850,-3.8502,1.5330,-1.2399,1758.06,-762.63,-658.75
5860,-3.8501,1.5160,-1.2609,226.81,1299.87,356.93
5870,-3.8500,1.5168,-1.2747,-1945.07,-1387.70,-1221.25
5880,-3.8496,1.5214,-1.2838,-1835.69,846.68,747.50
5890,-3.8492,1.4990,-1.3276,-1257.57,-325.20,1544.31
5900,-3.8488,1.4513,-1.4099,-116.94,-1934.63,1200.50
5910,-3.8483,1.4271,-1.4865,1773.68,-465.94,-643.43
5920,-3.8477,1.4720,-1.5182,-1320.07,1737.12,1778.32
5930,-3.8472,1.5936,-1.5232,429.93,1674.74,825.13
5940,-3.8469,1.7838,-1.5670,-7.57,1034.30,-1018.62
5950,-3.8467,2.0236,-1.6932,336.18,-574.65,-424.99
5960,-3.8463,2.2729,-1.8627,-976.32,-730.47,-706.48
5970,-3.8458,2.4976,-1.9790,-1054.44,1582.52,1433.84
5980,-3.8455,2.6854,-1.9923,-304.44,-1307.68,980.47
5990,-3.8452,2.8378,-1.9354,-257.57,989.56,1011.72
6000,-3.8450,2.9586,-1.8787,-757.57,271.12,-1238.16
6010,-3.8445,3.0498,-1.8783,-1288.82,-463.01,-113.10
6020,-3.8749,3.1204,-1.9603,-1616.94,-415.95,1949.40
6030,-3.8739,3.1650,-2.1288,-585.69,1084.17,-1410.10
6040,-3.8729,3.1481,-2.3395,1133.06,-478.21,-644.84
6050,-3.8721,3.0310,-2.5227,-1038.82,552.98,-1848.33
6060,-3.8715,2.7894,-2.6566,-23.19,1099.61,760.68
6070,-3.8712,2.4342,-2.7340,1054.93,-41.44,-1458.37
6080,-3.8711,2.0237,-2.7338,-413.82,-1948.43,760.25
6090,-3.8712,1.6350,-2.6560,-960.69,-1917.97,-1989.75
6100,-3.8713,1.3206,-2.5369,1289.31,34.42,1182.31
6110,-3.8715,1.0885,-2.4192,1039.31,-716.19,198.12
6120,-3.8717,0.9348,-2.3154,-663.82,-1654.17,-1004.76
6130,-3.8718,0.8582,-2.2189,-335.69,-373.23,-1785.83
6140,-3.8719,0.8379,-2.1157,1851.81,-13.98,-301.27
6150,-3.8719,0.8425,-1.9974,-741.94,1189.09,-1644.78
6160,-3.8721,0.8446,-1.8828,-148.19,329.71,-253.91
6170,-3.8722,0.8317,-1.7858,117.43,-998.35,-66.22
6180,-3.8722,0.7999,-1.6960,-1538.82,-576.54,12.08
6190,-3.8724,0.7397,-1.6074,-1601.32,-1092.22,-643.98
6200,-3.8726,0.6432,-1.5272,-1304.44,-1748.60,-1925.05
6210,-3.8727,0.5107,-1.4611,-1663.82,516.85,-1237.37
6220,-3.8727,0.3585,-1.3969,1383.06,985.35,-1018.49
6230,-3.8726,0.2063,-1.3198,1898.68,1203.80,1762.88
6240,-3.8724,0.0695,-1.2271,-1585.69,-937.13,966.13
6250,-3.8724,-0.0376,-1.1190,898.68,-1062.38,-768.07
6260,-3.8723,-0.1121,-0.9995,-804.44,781.13,513.43
6270,-3.8723,-0.1598,-0.8826,1664.31,77.88,998.05
6280,-3.8723,-0.1836,-0.7869,-445.07,-953.49,1170.10
6290,-3.8723,-0.1853,-0.7196,508.06,-703.49,1170.29
6300,-3.8723,-0.1689,-0.6727,289.31,-94.12,889.16
6310,-3.8723,-0.1415,-0.6323,-1616.94,1905.88,592.41
6320,-3.8724,-0.1211,-0.5876,1898.68,-922.18,-532.53
6330,-3.8726,-0.1307,-0.5398,508.06,796.63,-454.28
6340,-3.8727,-0.1722,-0.4949,-726.32,-1078.43,186.40
6350,-3.8730,-0.2285,-0.4568,1961.18,671.51,-1047.85
6360,-3.8733,-0.2773,-0.4280,-1241.94,1546.39,1999.08
6370,-3.8735,-0.3075,-0.4056,508.06,1233.83,-1094.60
6380,-3.8737,-0.3242,-0.3928,648.68,93.14,-1782.04
6390,-3.8738,-0.3309,-0.3878,-1491.94,1733.70,-578.92
6400,-3.8738,-0.3243,-0.3745,1648.68,-1625.67,514.83
6410,-3.8740,-0.3051,-0.3453,-1507.57,77.45,-781.98
6420,-3.8743,-0.2823,-0.3101,961.18,-188.11,-828.86
6430,-3.8745,-0.2633,-0.2783,-132.57,327.51,1765.01
6440,-3.8748,-0.2483,-0.2477,-1695.07,390.08,124.45
6450,-3.8439,-0.2322,-0.2095,226.81,312.01,-1734.86
6460,-3.8441,-0.2118,-0.1611,-1710.69,1202.64,390.20
6470,-3.8445,-0.1907,-0.1222,898.68,-609.80,-765.99
6480,-3.8447,-0.1758,-0.1217,-398.19,374.57,-687.74
6490,-3.8448,-0.1732,-0.1610,1508.06,437.13,1656.01
6500,-3.8448,-0.1812,-0.2117,1836.18,-594.12,859.01
6510,-3.8447,-0.1877,-0.2521,820.56,921.51,155.82
6520,-3.8447,-0.1877,-0.2745,-23.19,-250.43,1968.20
6530,-3.8448,-0.1936,-0.2805,-23.19,874.57,-1078.67
6540,-3.8450,-0.2090,-0.2870,-773.19,108.95,515.08
6550,-3.8452,-0.2244,-0.3107,1258.06,-719.18,1499.39
6560,-3.8455,-0.2312,-0.3594,-710.69,249.51,-1641.24
6570,-3.8457,-0.2231,-0.4321,-1585.69,-1984.86,-1281.98
6580,-3.8459,-0.2031,-0.5276,-554.44,702.64,-344.60
6590,-3.8461,-0.1802,-0.6549,-1991.94,483.95,-969.79
6600,-3.8461,-0.1538,-0.8300,945.56,187.13,-1501.28
6610,-3.8459,-0.1042,-1.0481,320.56,1780.94,1982.73
6620,-3.8458,-0.0051,-1.2720,-1335.69,1859.13,-1595.83
6630,-3.8457,0.1548,-1.4634,-648.19,1203.06,1013.12
6640,-3.8457,0.3729,-1.6121,-179.44,687.74,-1549.74
6650,-3.8457,0.6399,-1.7257,-257.57,1656.92,-253.17
6660,-3.8456,0.9144,-1.7979,1914.31,-889.40,246.58
6670,-3.8457,1.1326,-1.8054,1054.93,1876.77,1871.46
6680,-3.8459,1.2649,-1.7469,976.81,908.45,1605.83
6690,-3.8464,1.3301,-1.6580,1914.31,393.07,-597.17
6700,-3.8468,1.3579,-1.5918,-1741.94,-216.19,606.08
6710,-3.8472,1.3779,-1.5830,1820.56,252.62,-315.61
6720,-3.8472,1.4305,-1.6196,383.06,1377.69,-643.74
6730,-3.8469,1.5280,-1.6703,-882.57,690.25,1856.20
6740,-3.8467,1.6361,-1.7168,-413.82,-1793.95,-237.67
6750,-3.8463,1.7216,-1.7449,1429.93,253.17,-206.48
6760,-3.8458,1.7791,-1.7532,367.43,659.61,1402.83
6770,-3.8455,1.8228,-1.7557,-273.19,-402.83,1980.90
6780,-3.8452,1.8744,-1.7684,1320.56,-730.83,-1784.73
6790,-3.8452,1.9589,-1.7990,-70.07,1644.23,-769.10
6800,-3.8453,2.0950,-1.8293,-1257.57,1738.16,480.83
6810,-3.8457,2.2756,-1.8290,164.31,1847.84,1527.65
6820,-3.8461,2.4567,-1.7847,-710.69,1895.02,-784.85
6830,-3.8462,2.6027,-1.7404,-1538.82,-432.74,1465.21
6840,-3.8461,2.7267,-1.7745,1148.68,1239.44,605.96
6850,-3.8457,2.8488,-1.9240,1023.68,864.69,-175.35
6860,-3.8448,2.9650,-2.1586,648.68,1739.93,-1113.16
6870,-3.8750,3.0498,-2.4022,-476.32,-291.14,1948.85
6880,-3.8740,3.0686,-2.5656,-1616.94,521.55,-535.95
6890,-3.8734,3.0062,-2.6016,789.31,-384.64,-1239.44
6900,-3.8733,2.8766,-2.5520,804.93,-994.14,166.75
6910,-3.8735,2.6971,-2.5348,211.18,1349.37,1432.50
6920,-3.8737,2.4902,-2.6184,1242.43,-447.88,1870.00
6930,-3.8735,2.2834,-2.7426,-1241.94,848.57,1776.12
6940,-3.8733,2.0929,-2.8167,289.31,957.58,-521.00
6950,-3.8729,1.9253,-2.8009,-101.32,-527.22,666.32
6960,-3.8729,1.7871,-2.7219,-1554.44,1488.10,1713.26
6970,-3.8732,1.6879,-2.6412,758.06,-402.77,557.13
6980,-3.8737,1.6279,-2.5809,54.93,1925.17,-989.56
6990,-3.8740,1.5833,-2.5143,383.06,1643.80,-176.94
7000,-3.8743,1.5211,-2.4258,-1335.69,-1825.07,-161.19
7010,-3.8744,1.4318,-2.3346,-1288.82,1502.93,932.74
7020,-3.8746,1.3259,-2.2640,-726.32,1174.62,-1160.83
7030,-3.8746,1.2286,-2.2174,1726.81,-1794.31,386.17
7040,-3.8745,1.1555,-2.1677,1273.68,174.26,-926.21
7050,-3.8740,1.0874,-2.0836,-85.69,-1466.55,-879.27
7060,-3.8735,0.9957,-1.9625,-804.44,1298.95,-722.84
7070,-3.8732,0.8765,-1.8262,-538.82,798.77,746.15
7080,-3.8730,0.7366,-1.7048,195.56,-1748.29,1918.27
7090,-3.8728,0.5826,-1.6211,-1710.69,1782.65,90.39
7100,-3.8726,0.4229,-1.5647,-1413.82,501.10,-1284.42
7110,-3.8721,0.2676,-1.4918,-1866.94,-280.46,293.76
7120,-3.8718,0.1296,-1.3778,-1741.94,1047.36,-596.68
7130,-3.8716,0.0161,-1.2327,601.81,-359.13,325.38
7140,-3.8717,-0.0693,-1.0790,-1929.44,-1781.25,-80.57
7150,-3.8717,-0.1250,-0.9429,-866.94,1906.07,29.11
7160,-3.8719,-0.1476,-0.8413,8.06,-672.12,1138.73
7170,-3.8722,-0.1302,-0.7815,1117.43,327.82,1013.98
7180,-3.8724,-0.0750,-0.7523,-663.82,-15.93,1201.54
7190,-3.8727,-0.0018,-0.7379,-1585.69,-281.43,1732.85
7200,-3.8729,0.0688,-0.7308,-226.32,1562.44,-142.09
7210,-3.8729,0.1244,-0.7152,820.56,-1546.75,1201.66
7220,-3.8729,0.1409,-0.6844,-70.07,453.31,404.85
7230,-3.8730,0.1067,-0.6661,-1960.69,390.87,-1266.97
7240,-3.8732,0.0420,-0.6775,1664.31,-1265.44,-173.22
7250,-3.8732,-0.0238,-0.6982,1383.06,1281.31,451.78
7260,-3.8733,-0.0675,-0.7009,961.18,-1359.44,61.10
7270,-3.8735,-0.0825,-0.6718,-632.57,-1703.31,1123.60
7280,-3.8739,-0.0858,-0.6233,1445.56,-1968.93,-1470.09
7290,-3.8743,-0.1013,-0.5815,1023.68,234.19,1576.90
7300,-3.8746,-0.1348,-0.5690,-960.69,1577.88,-1813.66
7310,-3.8749,-0.1740,-0.5835,-1241.94,-812.81,-813.66
7320,-3.8750,-0.2074,-0.5958,1742.43,1327.76,-579.28
7330,-3.8750,-0.2332,-0.5897,1461.18,-250.43,61.28
7340,-3.8439,-0.2513,-0.5681,-1835.69,530.76,30.09
7350,-3.8440,-0.2657,-0.5311,-163.82,-703.67,530.09
7360,-3.8441,-0.2844,-0.4894,1992.43,30.70,-813.54
7370,-3.8441,-0.3098,-0.4556,-398.19,1374.39,-954.10
7380,-3.8441,-0.3368,-0.4341,351.81,1702.51,967.83
7390,-3.8444,-0.3527,-0.4288,898.68,452.45,-344.60
7400,-3.8445,-0.3477,-0.4342,-1132.57,1124.27,1217.90
7410,-3.8446,-0.3270,-0.4508,-491.94,436.77,389.77
7420,-3.8447,-0.3002,-0.4838,-1851.32,-1688.17,889.71
7430,-3.8448,-0.2773,-0.5266,1586.18,-1906.86,483.40
7440,-3.8451,-0.2654,-0.5668,508.06,608.83,1748.96
7450,-3.8453,-0.2542,-0.6003,-1960.69,-531.80,998.84
7460,-3.8457,-0.2339,-0.6395,-523.19,-828.67,-235.60
7470,-3.8458,-0.2018,-0.7024,-1929.44,-1844.24,279.97
7480,-3.8461,-0.1366,-0.8009,-1820.07,-1891.05,-1095.15
7490,-3.8462,-0.0073,-0.9390,-1476.32,1499.69,1420.29
7500,-3.8464,0.1935,-1.0887,-929.44,-171.94,-1439.39
7510,-3.8467,0.4503,-1.1967,773.68,640.99,-1705.26
7520,-3.8469,0.7413,-1.2510,1648.68,-1171.02,341.37
7530,-3.8473,1.0487,-1.2899,-1101.32,-123.60,1591.25
7540,-3.8475,1.3613,-1.3138,-1757.57,-1107.36,-1971.31
7550,-3.8477,1.6299,-1.2848,-1741.94,-169.25,-612.00
7560,-3.8477,1.7838,-1.1947,633.06,-449.95,1450.56
7570,-3.8478,1.8214,-1.0776,336.18,-918.40,1450.74
7580,-3.8480,1.7986,-0.9746,1148.68,-1933.96,-127.14
7590,-3.8481,1.7595,-0.8975,-1773.19,-746.52,13.67
7600,-3.8485,1.7092,-0.8416,1226.81,1128.42,857.60
7610,-3.8490,1.6334,-0.7979,-1210.69,284.55,-673.52
7620,-3.8494,1.5272,-0.7534,1086.18,1878.17,-1923.46
7630,-3.8496,1.3994,-0.6858,-507.57,-434.57,1076.60
7640,-3.8496,1.2936,-0.6084,-866.94,221.44,1045.53
7650,-3.8494,1.2480,-0.5736,1586.18,-1872.50,-751.22
7660,-3.8489,1.2483,-0.6257,-241.94,-1419.49,-266.78
7670,-3.8483,1.2682,-0.7708,-210.69,-91.37,-845.03
7680,-3.8475,1.2971,-0.9498,-1663.82,1346.19,1810.97
7690,-3.8468,1.3307,-1.0706,-1960.69,-1575.62,669.98
7700,-3.8464,1.3640,-1.0771,-1663.82,-1028.69,-361.51
7710,-3.8463,1.4022,-1.0017,-1398.19,-1872.38,-424.01
7720,-3.8464,1.4524,-0.9152,-507.57,-216.06,-173.89
7730,-3.8467,1.5082,-0.8655,1914.31,-1137.82,-142.46
7740,-3.8469,1.5542,-0.8816,1054.93,1221.68,-1845.46
7750,-3.8472,1.5786,-0.9614,-1054.44,-840.76,779.48
7760,-3.8474,1.5854,-1.0645,-1929.44,940.55,279.36
7770,-3.8478,1.5880,-1.1482,-1054.44,-246.95,-95.89
7780,-3.8479,1.6144,-1.1956,-726.32,1034.30,1263.37
7790,-3.8479,1.6750,-1.2156,-1351.32,-1028.14,153.87
7800,-3.8478,1.7340,-1.2548,-1585.69,409.48,825.74
7810,-3.8475,1.7411,-1.3606,1961.18,-606.02,1106.87
7820,-3.8472,1.6716,-1.5164,-1132.57,1847.11,1091.06
7830,-3.8468,1.5280,-1.6608,1976.81,1909.48,1262.63
7840,-3.8467,1.3392,-1.7512,-413.82,-575.20,668.58
7850,-3.8469,1.1853,-1.7717,-570.07,-153.69,371.52
7860,-3.8474,1.1372,-1.7585,-273.19,1221.01,-237.85
7870,-3.8475,1.2032,-1.8009,1570.56,-1091.55,402.77
7880,-3.8474,1.3624,-1.9469,-1976.32,1486.69,902.71
7890,-3.8468,1.5708,-2.1565,-1601.32,-1200.50,214.90
7900,-3.8459,1.7474,-2.3458,1070.56,-28.20,-1129.27
7910,-3.8450,1.8292,-2.4532,-320.07,-262.27,-348.39
7920,-3.8441,1.8231,-2.4569,-1851.32,1987.92,1510.80
7930,-3.8750,1.7749,-2.3680,1367.43,1519.17,-911.07
7940,-3.8749,1.7180,-2.2311,-804.44,894.04,1307.86
7950,-3.8750,1.6635,-2.1006,-85.69,-1574.83,-1770.02
7960,-3.8750,1.6178,-1.9940,929.93,-871.77,683.35
7970,-3.8750,1.5865,-1.9015,-913.82,768.74,-128.91
7980,-3.8748,1.5687,-1.8116,-913.82,612.43,-1534.97
7990,-3.8745,1.5587,-1.7139,804.93,112.43,-1706.67
8000,-3.8743,1.5558,-1.6101,-476.32,627.99,-847.11
8010,-3.8739,1.5629,-1.5065,-851.32,1909.24,1887.45
8020,-3.8735,1.5706,-1.4106,54.93,-825.07,1590.76
8030,-3.8733,1.5557,-1.3387,1039.31,-559.45,-2.81
8040,-3.8730,1.5022,-1.2924,-866.94,643.62,-612.00
8050,-3.8729,1.4120,-1.2562,289.31,-1418.95,-705.69
8060,-3.8729,1.2993,-1.2224,742.43,-794.13,-18.13
8070,-3.8729,1.1775,-1.1902,-1679.44,-466.25,-1158.69
8080,-3.8729,1.0377,-1.1462,-1273.19,-341.49,966.37
8090,-3.8730,0.8718,-1.0752,836.18,1283.26,-1486.63
8100,-3.8732,0.6996,-0.9843,-398.19,-1623.35,-158.39
8110,-3.8732,0.5554,-0.8948,1554.93,-1983.03,1154.30
8120,-3.8733,0.4612,-0.8234,-898.19,1469.79,-1501.77
8130,-3.8733,0.4147,-0.7700,-960.69,-1389.77,1076.48
8140,-3.8733,0.4022,-0.7325,1086.18,1438.29,-1626.53
8150,-3.8732,0.4048,-0.7064,-507.57,-1764.89,1420.41
8160,-3.8732,0.3949,-0.6766,-179.44,1578.86,-204.53
8170,-3.8732,0.3494,-0.6322,-1445.07,1391.36,-907.59
8180,-3.8733,0.2728,-0.5814,726.81,-921.20,1748.72
8190,-3.8735,0.1913,-0.5385,-1070.07,1578.61,1561.34
8200,-3.8738,0.1221,-0.5023,492.43,-921.51,-1157.35
8210,-3.8738,0.0691,-0.4739,-366.94,-296.69,389.59
8220,-3.8738,0.0347,-0.4550,851.81,-656.13,670.90
8230,-3.8738,0.0149,-0.4427,445.56,1765.69,342.83
8240,-3.8739,-0.0048,-0.4321,1914.31,-671.88,-1391.54
8250,-3.8740,-0.0311,-0.4156,-601.32,703.06,-375.85
8260,-3.8741,-0.0596,-0.3878,23.68,-1187.56,-1141.48
8270,-3.8744,-0.0886,-0.3464,383.06,-1625.12,-875.79
8280,-3.8746,-0.1149,-0.3005,664.31,-328.31,93.02
8290,-3.8750,-0.1345,-0.2703,1304.93,1546.63,733.76
8300,-3.8440,-0.1462,-0.2697,-1210.69,1421.57,483.83
8310,-3.8441,-0.1522,-0.2961,1289.31,1499.69,77.58
8320,-3.8442,-0.1663,-0.3304,523.68,-1890.93,-1656.86
8330,-3.8442,-0.2017,-0.3457,-1273.19,1718.38,936.83
8340,-3.8444,-0.2521,-0.3251,-1804.44,-234.80,-1688.23
8350,-3.8445,-0.3026,-0.2944,-257.57,-1594.30,-1422.55
8360,-3.8446,-0.3414,-0.2935,1273.68,-1672.49,-1219.36
8370,-3.8446,-0.3582,-0.3188,304.93,-1547.55,15.01
8380,-3.8447,-0.3413,-0.3462,-1835.69,-797.61,1452.45
8390,-3.8448,-0.2810,-0.3696,320.56,-297.55,1577.39
8400,-3.8450,-0.1934,-0.4015,39.31,702.58,780.52
8410,-3.8452,-0.1150,-0.4489,-741.94,624.57,-391.42
8420,-3.8453,-0.0764,-0.4996,1289.31,-1437.74,-0.92
8430,-3.8452,-0.0824,-0.5441,-1773.19,62.32,170.90
8440,-3.8452,-0.1066,-0.5952,1461.18,-1625.18,1577.03
8450,-3.8452,-0.1230,-0.6722,-1632.57,-172.12,592.53
8460,-3.8453,-0.1310,-0.7871,258.06,1968.51,608.03
8470,-3.8456,-0.1311,-0.9204,-757.57,-734.68,1967.16
8480,-3.8458,-0.1107,-1.0266,-773.19,-1797.18,388.79
8490,-3.8462,-0.0752,-1.0923,1836.18,609.13,482.36
8500,-3.8467,-0.0637,-1.1664,-1616.94,202.94,-1033.39
8510,-3.8472,-0.0992,-1.3182,-148.19,-1281.43,-580.44
8520,-3.8477,-0.1187,-1.5602,-695.07,-718.99,-158.87
8530,-3.8479,0.0088,-1.8313,820.56,312.26,153.20
8540,-3.8483,0.3339,-2.0437,1133.06,1593.75,-3.60
8550,-3.8484,0.7748,-2.1650,-1257.57,-1593.14,152.22
8560,-3.8486,1.1906,-2.2266,-820.07,-1123.54,808.23
8570,-3.8489,1.4667,-2.2300,398.68,-997.68,792.48
8580,-3.8494,1.5873,-2.1624,-257.57,-1434.69,-379.39
8590,-3.8499,1.6110,-2.0452,-820.07,-778.20,1026.98
8600,-3.8503,1.6184,-1.9164,-1788.82,-1778.14,292.85
8610,-3.8507,1.6652,-1.7512,-835.69,-1293.76,-941.28
8620,-3.8508,1.7134,-1.5247,1148.68,-153.02,887.15
8630,-3.8512,1.6880,-1.2966,-679.44,847.05,-18.62
8640,-3.8514,1.5906,-1.1351,70.56,-1965.45,-1393.19
8650,-3.8516,1.4746,-1.0833,-398.19,-1293.82,-564.76
8660,-3.8513,1.3926,-1.1407,758.06,1346.62,685.36
8670,-3.8510,1.3915,-1.2594,-1741.94,1987.06,1294.62
8680,-3.8505,1.4928,-1.3821,-1882.57,-1200.44,-565.00
8690,-3.8499,1.6721,-1.4691,-913.82,-903.38,-768.37
8700,-3.8492,1.8928,-1.5131,-1960.69,-43.64,465.82
8710,-3.8489,2.1307,-1.5360,-1710.69,-1668.21,-1002.99
8720,-3.8484,2.3573,-1.5648,742.43,-605.22,-1471.80
8730,-3.8478,2.5519,-1.6212,1742.43,-292.30,1528.14
8740,-3.8472,2.6970,-1.7043,-1351.32,489.32,-18.80
8750,-3.8464,2.7704,-1.7809,1226.81,1849.00,-1581.48
8760,-3.8459,2.7797,-1.8182,-1382.57,52.25,-1394.10
8770,-3.8457,2.7506,-1.8340,-195.07,-729.00,1668.27
8780,-3.8457,2.6895,-1.8688,86.18,1255.37,-972.35
8790,-3.8457,2.5876,-1.9227,258.06,802.12,-378.66
8800,-3.8456,2.4420,-1.9598,-773.19,1895.63,496.22
8810,-3.8456,2.2585,-1.9634,586.18,1145.39,574.28
8820,-3.8456,2.0515,-1.9644,1101.81,691.89,199.28
8830,-3.8456,1.8378,-1.9928,-1398.19,566.47,402.40
8840,-3.8456,1.6318,-2.0333,-757.57,925.42,-1691.41
8850,-3.8455,1.4468,-2.0514,883.06,-262.45,-175.90
8860,-3.8451,1.2939,-2.0321,1195.56,1424.68,511.60
8870,-3.8448,1.1772,-1.9635,1633.06,-106.87,480.35
8880,-3.8447,1.0835,-1.8470,-1304.44,674.13,-1675.72
8890,-3.8445,0.9983,-1.7418,-1304.44,-419.80,324.46
8900,-3.8444,0.9191,-1.6797,-210.69,1048.77,-425.29
8910,-3.8441,0.8401,-1.6387,1648.68,1001.77,-222.05
8920,-3.8439,0.7537,-1.6075,-460.69,-1748.41,-1237.61
8930,-3.8750,0.6614,-1.5806,476.81,-1764.16,1481.20
8940,-3.8750,0.5768,-1.5417,664.31,1688.78,-1987.49
8950,-3.8750,0.5111,-1.4745,1836.18,-1342.65,-159.30
8960,-3.8749,0.4585,-1.3735,1429.93,-733.40,1309.57
8970,-3.8750,0.4069,-1.2483,-1304.44,188.35,-1221.44
8980,-3.8439,0.3499,-1.1252,86.18,219.54,856.93
8990,-3.8441,0.2815,-1.0175,789.31,-30.58,-736.63
9000,-3.8441,0.2035,-0.9178,39.31,1766.17,935.49
9010,-3.8440,0.1298,-0.8224,-1945.07,-1484.01,107.54
9020,-3.8750,0.0657,-0.7341,617.43,-1265.38,1451.48
9030,-3.8746,0.0024,-0.6578,414.31,-1968.63,-1657.71
9040,-3.8743,-0.0673,-0.5990,320.56,-203.12,-391.97
9050,-3.8738,-0.1417,-0.5452,-601.32,-656.43,326.90
9060,-3.8734,-0.2101,-0.4808,1867.43,-1765.93,1186.40
9070,-3.8730,-0.2554,-0.4061,1117.43,-1531.68,-1563.48
9080,-3.8727,-0.2770,-0.3213,-679.44,30.70,-1203.92
9090,-3.8723,-0.2960,-0.2501,554.93,-1109.92,1514.95
9100,-3.8721,-0.3322,-0.2253,-1882.57,-0.61,-1016.17
9110,-3.8718,-0.3748,-0.2406,1492.43,-828.80,-672.36
9120,-3.8716,-0.4042,-0.2523,39.31,1218.02,1343.26
9130,-3.8716,-0.4189,-0.2253,273.68,-282.04,1530.70
9140,-3.8718,-0.4302,-0.1628,-1616.94,-828.98,1983.89
9150,-3.8722,-0.4492,-0.1034,945.56,-828.98,-1375.37
9160,-3.8724,-0.4722,-0.0803,-1491.94,-1219.67,577.88
9170,-3.8727,-0.4856,-0.0830,-429.44,1733.40,1577.94
9180,-3.8728,-0.4794,-0.0868,1851.81,1389.65,202.94
9190,-3.8730,-0.4496,-0.0818,-1351.32,905.27,-1078.31
9200,-3.8732,-0.4036,-0.0616,-1538.82,1545.96,1874.82
9210,-3.8733,-0.3579,-0.0254,351.81,124.21,765.50
9220,-3.8735,-0.3362,0.0186,-1804.44,764.89,-1937.56
9230,-3.8738,-0.3503,0.0588,976.81,-1610.05,1437.50
9240,-3.8740,-0.3855,0.0852,-835.69,-453.86,421.94
9250,-3.8743,-0.4199,0.0905,-1335.69,-1078.92,1265.75
9260,-3.8744,-0.4421,0.0723,-1741.94,-407.10,1343.87
9270,-3.8744,-0.4492,0.0353,-585.69,1264.71,531.37
9280,-3.8744,-0.4432,-0.0134,-1491.94,530.33,640.69
9290,-3.8745,-0.4275,-0.0742,-726.32,-1704.04,-1125.06
9300,-3.8746,-0.4045,-0.1477,1289.31,-1485.23,-1140.81
9310,-3.8748,-0.3744,-0.2225,226.81,1108.58,-1734.68
9320,-3.8749,-0.3374,-0.2753,86.18,-469.48,1874.51
9330,-3.8750,-0.2981,-0.2917,820.56,780.58,936.95
9340,-3.8440,-0.2610,-0.2836,1851.81,-1328.74,-1813.11
9350,-3.8442,-0.2295,-0.2772,-1398.19,-281.80,1499.39
9360,-3.8445,-0.2036,-0.2933,-1366.94,530.76,718.20
9370,-3.8447,-0.1808,-0.3499,1945.56,-1531.68,1311.89
9380,-3.8450,-0.1464,-0.4535,867.43,-765.99,-516.36
9390,-3.8451,-0.0913,-0.5903,1273.68,1968.44,-375.92
9400,-3.8451,-0.0239,-0.7272,320.56,452.94,1326.97
9410,-3.8452,0.0558,-0.8225,945.56,-1062.56,-1063.96
9420,-3.8453,0.1583,-0.8639,-851.32,-1281.19,-1376.65
9430,-3.8456,0.2789,-0.8802,273.68,1422.18,-595.46
9440,-3.8458,0.3966,-0.9194,-288.82,-671.39,1451.35
9450,-3.8462,0.5096,-1.0267,-1226.32,-1686.77,-1423.71
9460,-3.8464,0.6510,-1.2007,1242.43,579.10,1716.74
9470,-3.8466,0.8435,-1.3761,-663.82,-1686.28,497.62
9480,-3.8468,1.0786,-1.4694,-23.19,-139.04,-205.87
9490,-3.8470,1.3398,-1.4742,-1929.44,-76.05,-1549.80
9500,-3.8475,1.6073,-1.4611,-491.94,-700.56,-1768.55
9510,-3.8481,1.8544,-1.4529,1742.43,987.49,-752.87
9520,-3.8485,2.0603,-1.4137,1367.43,-1965.15,1340.88
9530,-3.8488,2.2274,-1.3010,-273.19,-949.16,-1549.68
9540,-3.8489,2.3486,-1.1357,1117.43,1473.08,-236.94
9550,-3.8488,2.3944,-1.0109,633.06,-1370.42,560.24
9560,-3.8486,2.3558,-1.0071,-1507.57,-1385.99,638.61
9570,-3.8485,2.2769,-1.1293,1554.93,-901.67,-1314.51
9580,-3.8483,2.2269,-1.2856,-554.44,-542.48,528.99
9590,-3.8483,2.2285,-1.3682,1054.93,-558.17,-377.56
9600,-3.8483,2.2401,-1.3457,1258.06,879.33,1997.31
9610,-3.8484,2.2015,-1.2701,-1257.57,-245.67,169.19
9620,-3.8486,2.0853,-1.2144,1804.93,1426.15,-1627.50
9630,-3.8486,1.9191,-1.1934,-1070.07,566.53,1872.62
9640,-3.8484,1.7690,-1.1992,1648.68,-746.28,-1518.01
9650,-3.8478,1.6759,-1.2576,-1554.44,-1496.58,294.49
9660,-3.8470,1.6277,-1.3867,-1476.32,-965.52,903.75
9670,-3.8462,1.6129,-1.5607,351.81,-1496.83,-1315.25
9680,-3.8451,1.6334,-1.7186,-1538.82,237.49,356.32
9690,-3.8441,1.6747,-1.7982,1086.18,18.80,1324.77
9700,-3.8746,1.7113,-1.7823,-1632.57,1831.36,1715.21
9710,-3.8743,1.7225,-1.7114,-945.07,-137.33,402.71
9720,-3.8744,1.6953,-1.6587,492.43,940.86,-643.98
9730,-3.8745,1.6415,-1.6692,1008.06,-309.20,-1143.92
9740,-3.8745,1.5966,-1.7140,-1882.57,-1653.08,-284.55
9750,-3.8741,1.5876,-1.7445,367.43,612.49,309.14
9760,-3.8738,1.6173,-1.7557,-773.19,706.18,1152.83
9770,-3.8734,1.6671,-1.7789,-976.32,-731.26,-550.35
9780,-3.8729,1.7056,-1.8229,1398.68,300.11,-550.35
9790,-3.8723,1.7012,-1.8608,-1679.44,-1324.83,512.02
9800,-3.8719,1.6355,-1.8679,1758.06,1815.80,-1347.41
9810,-3.8717,1.5154,-1.8407,1351.81,909.42,-1769.29
9820,-3.8717,1.3728,-1.7858,1976.81,393.55,-316.10
9830,-3.8717,1.2462,-1.7036,-273.19,-575.50,-1347.29
9840,-3.8717,1.1494,-1.6057,-476.32,1939.88,-940.86
9850,-3.8716,1.0696,-1.5079,-866.94,-1529.05,-1159.42
9860,-3.8713,1.0006,-1.4135,914.31,-1013.55,-1393.62
9870,-3.8710,0.9436,-1.3237,86.18,-919.92,-1877.81
9880,-3.8706,0.8915,-1.2467,789.31,-1435.67,-1315.12
9890,-3.8702,0.8362,-1.1875,-1882.57,423.58,560.06
9900,-3.8701,0.7638,-1.1327,-960.69,1.59,1607.06
9910,-3.8701,0.6560,-1.0602,1773.68,-982.91,482.12
9920,-3.8704,0.5117,-0.9596,-23.19,298.10,1122.92
9930,-3.8707,0.3440,-0.8479,1508.06,1172.85,1873.11
9940,-3.8711,0.1687,-0.7535,39.31,-530.58,1310.79
9950,-3.8715,0.0137,-0.6798,1601.81,-452.82,1545.35
9960,-3.8717,-0.0895,-0.6249,1758.06,984.38,1467.41
9970,-3.8718,-0.1287,-0.5875,554.93,31.07,-1173.10
9980,-3.8718,-0.1143,-0.5488,-460.69,812.19,-313.66
9990,-3.8718,-0.0702,-0.4952,1383.06,1765.38,-94.85
10000,-3.8719,-0.0232,-0.4409,-976.32,624.82,-297.85
10010,-3.8722,0.0088,-0.4064,1039.31,-421.94,-1235.29
10020,-3.8726,0.0209,-0.3953,1133.06,-15.62,-203.98
10030,-3.8728,0.0206,-0.3953,-1320.07,1406.25,561.71
10040,-3.8732,0.0173,-0.3881,-1351.32,1406.25,1186.71
10050,-3.8735,-0.0005,-0.3673,-1773.19,-1671.88,-1578.92
10060,-3.8738,-0.0508,-0.3446,-54.44,999.94,999.27
