timestamp_ms,ax,ay,az,gx,gy,gz
0,-3.8745,0.5984,-0.0776,492.43,1875.85,-640.50
10,-3.8741,0.7327,-0.1998,601.81,-1936.34,906.07
20,-3.8739,0.8108,-0.2290,1789.31,-1576.72,358.95
30,-3.8739,0.8405,-0.1681,-210.69,-1310.97,-1500.49
40,-3.8740,0.8477,-0.0625,-413.82,-1514.04,-1812.87
50,-3.8743,0.8452,0.0238,508.06,1.65,-937.62
60,-3.8744,0.8363,0.0494,195.56,-951.48,1781.25
70,-3.8745,0.8219,0.0205,-945.07,-1670.29,-140.56
80,-3.8745,0.8030,-0.0425,1211.18,-1373.41,-203.12
90,-3.8744,0.7833,-0.1199,-1210.69,-1435.97,171.75
100,-3.8744,0.7765,-0.1995,273.68,657.78,62.26
110,-3.8744,0.7981,-0.2789,-601.32,-1529.79,93.32
120,-3.8744,0.8383,-0.3431,-1835.69,298.40,1296.33
130,-3.8744,0.8713,-0.3672,-695.07,79.71,-688.17
140,-3.8743,0.8744,-0.3444,-460.69,1001.65,202.39
150,-3.8744,0.8517,-0.2991,-70.07,-76.48,1733.64
160,-3.8745,0.8265,-0.2734,1023.68,1720.40,686.89
170,-3.8746,0.8019,-0.2960,1804.93,1001.59,483.83
180,-3.8748,0.7770,-0.3517,-1351.32,-1889.10,-406.86
190,-3.8746,0.7585,-0.4026,-538.82,-1014.16,1264.89
200,-3.8746,0.7443,-0.4337,1101.81,470.21,-1453.92
210,-3.8746,0.7267,-0.4514,-726.32,485.78,1780.40
220,-3.8748,0.7021,-0.4670,1023.68,-1779.85,-704.04
230,-3.8749,0.6796,-0.4940,1883.06,220.09,-204.04
240,-3.8749,0.6765,-0.5398,-1007.57,766.91,514.65
250,-3.8750,0.7023,-0.5994,-1398.19,-1092.47,-1141.72
260,-3.8750,0.7515,-0.6584,1898.68,-717.41,-391.85
270,-3.8749,0.8044,-0.6937,195.56,-279.79,-1954.47
280,-3.8748,0.8442,-0.6869,-1023.19,-795.35,45.47
290,-3.8748,0.8718,-0.6622,70.56,79.77,858.03
300,-3.8748,0.9050,-0.6715,-398.19,-763.98,-1579.47
310,-3.8746,0.9502,-0.7247,-148.19,-1951.42,-798.22
320,-3.8744,0.9825,-0.7832,1633.06,-763.79,-1298.34
330,-3.8741,0.9922,-0.8158,1773.68,-248.11,1154.66
340,-3.8740,0.9955,-0.8176,-991.94,-419.98,576.48
350,-3.8740,0.9882,-0.7966,-570.07,-654.36,1670.23
360,-3.8740,0.9661,-0.7542,-1507.57,-1966.86,701.54
370,-3.8741,0.9576,-0.7018,-335.69,-529.42,-1673.40
380,-3.8741,0.9937,-0.6650,-1413.82,-1826.29,1248.60
390,-3.8741,1.0576,-0.6405,-804.44,-1123.11,-610.72
400,-3.8740,1.1118,-0.6161,-616.94,-1982.36,-110.66
410,-3.8738,1.1528,-0.5948,-1679.44,1142.76,1983.15
420,-3.8735,1.1837,-0.5889,-429.44,-138.43,920.65
430,-3.8734,1.2133,-0.6238,-476.32,627.26,-954.28
440,-3.8732,1.2688,-0.7111,-695.07,158.57,1998.78
450,-3.8728,1.3506,-0.8038,-1585.69,986.82,1186.10
460,-3.8724,1.4155,-0.8319,883.06,1112.00,-1392.21
470,-3.8721,1.4280,-0.7808,1195.56,1518.37,498.35
480,-3.8719,1.3951,-0.6974,-1210.69,65.25,1217.22
490,-3.8719,1.3384,-0.6300,-1413.82,-1262.94,-1829.53
500,-3.8721,1.2664,-0.5898,-679.44,-638.06,-141.91
510,-3.8722,1.1849,-0.5668,-1898.19,502.44,-1251.16
520,-3.8724,1.0997,-0.5477,-320.07,-544.62,-251.16
530,-3.8727,1.0139,-0.5382,773.68,1892.76,-313.60
540,-3.8729,0.9348,-0.5682,1789.31,-888.67,-844.85
550,-3.8730,0.8630,-0.6473,-335.69,-732.60,-1938.66
560,-3.8729,0.8048,-0.7382,-1523.19,1142.27,1014.34
570,-3.8728,0.7767,-0.7880,-976.32,1517.15,-970.21
580,-3.8728,0.7528,-0.7643,-570.07,-857.91,-1642.21
590,-3.8730,0.6927,-0.6788,367.43,-1826.66,1404.72
600,-3.8734,0.6107,-0.5873,679.93,1110.72,1295.53
610,-3.8738,0.5525,-0.5457,-1820.07,829.28,-1813.66
620,-3.8740,0.5330,-0.5612,-1273.19,-1842.71,1983.28
630,-3.8741,0.5295,-0.6008,226.81,172.91,827.03
640,-3.8743,0.5254,-0.6392,-210.69,-905.27,1655.03
650,-3.8744,0.5187,-0.6689,-741.94,-1811.52,-626.28
660,-3.8744,0.5173,-0.6978,-1601.32,-1624.02,1029.91
670,-3.8745,0.5302,-0.7299,-1773.19,-1311.52,-751.40
680,-3.8745,0.5476,-0.7471,-132.57,-1420.90,-79.59
690,-3.8744,0.5475,-0.7343,-1898.19,376.04,-798.34
700,-3.8743,0.5227,-0.7141,-1913.82,-1983.34,-63.96
710,-3.8740,0.4906,-0.7295,-1085.69,594.73,-1907.65
720,-3.8738,0.4608,-0.7974,-1195.07,-1374.08,-829.59
730,-3.8734,0.4198,-0.9036,-1007.57,1938.35,-517.21
740,-3.8730,0.3606,-1.0168,1742.43,344.54,-111.15
750,-3.8728,0.3053,-1.1046,-1835.69,1844.42,-127.01
760,-3.8727,0.2761,-1.1412,-913.82,-1390.08,497.80
770,-3.8729,0.2692,-1.1174,-648.19,1922.36,1700.87
780,-3.8733,0.2705,-1.0553,-1538.82,969.24,1904.05
790,-3.8737,0.2759,-0.9904,-1366.94,922.36,357.30
800,-3.8741,0.2916,-0.9437,-679.44,1234.86,-283.20
810,-3.8744,0.3193,-0.9183,1336.18,-796.33,1169.98
820,-3.8746,0.3428,-0.9084,883.06,-1546.26,216.92
830,-3.8750,0.3506,-0.9138,-116.94,-280.64,-33.08
840,-3.8439,0.3555,-0.9236,883.06,-968.08,795.04
850,-3.8440,0.3650,-0.9215,1508.06,1781.92,91.92
860,-3.8441,0.3671,-0.9117,-1273.19,-1952.45,1185.67
870,-3.8442,0.3613,-0.9077,-1007.57,-702.45,-1533.08
880,-3.8442,0.3622,-0.9180,-1741.94,-186.83,545.04
890,-3.8442,0.3733,-0.9431,-1632.57,-1499.33,529.42
900,-3.8442,0.3934,-0.9819,-210.69,-718.08,-1611.27
910,-3.8441,0.4186,-1.0299,-1632.57,-1686.77,1826.17
920,-3.8440,0.4324,-1.0692,1586.18,172.67,-1689.51
930,-3.8439,0.4209,-1.0792,-648.19,-858.58,-1564.64
940,-3.8750,0.3925,-1.0557,1883.06,1860.17,607.24
950,-3.8750,0.3719,-1.0134,-1757.57,875.73,919.80
960,-3.8750,0.3809,-0.9749,-382.57,-1718.08,747.99
970,-3.8750,0.4243,-0.9445,758.06,-780.52,826.17
980,-3.8750,0.4856,-0.9108,-1679.44,-889.83,123.11
990,-3.8439,0.5419,-0.8702,-1835.69,-577.21,1420.04
1000,-3.8440,0.5839,-0.8323,1367.43,610.41,1357.67
1010,-3.8441,0.6182,-0.8082,-1257.57,1469.85,1935.85
1020,-3.8441,0.6493,-0.7979,-866.94,548.03,1592.16
1030,-3.8440,0.6791,-0.7882,-882.57,1876.22,1373.41
1040,-3.8750,0.7247,-0.7694,-1070.07,-889.34,420.29
1050,-3.8748,0.8093,-0.7495,773.68,1517.03,1607.85
1060,-3.8745,0.9340,-0.7432,-398.19,64.03,-17.09
1070,-3.8741,1.0706,-0.7242,-445.07,876.77,-1907.71
1080,-3.8739,1.2089,-0.6648,1039.31,-701.05,-782.71
1090,-3.8735,1.3717,-0.5948,-1257.57,-1091.43,889.28
1100,-3.8732,1.5752,-0.5551,-413.82,-138.00,905.03
1110,-3.8727,1.8083,-0.5502,1633.06,956.18,45.78
1120,-3.8722,2.0227,-0.5510,-523.19,1581.60,1186.40
1130,-3.8717,2.1725,-0.5260,-1085.69,1472.66,248.90
1140,-3.8715,2.2637,-0.4779,-1913.82,676.09,1483.34
1150,-3.8713,2.3369,-0.4467,1758.06,-1167.48,1139.65
1160,-3.8713,2.4155,-0.4590,-866.94,-1167.36,-1704.04
1170,-3.8713,2.4973,-0.5121,1195.56,1254.70,-829.04
1180,-3.8712,2.5833,-0.6003,-335.69,-1542.05,14.59
1190,-3.8712,2.6791,-0.7090,-1335.69,-838.75,701.90
1200,-3.8712,2.7749,-0.8199,-1070.07,1255.19,701.72
1210,-3.8712,2.8545,-0.9366,-804.44,-947.75,185.85
1220,-3.8712,2.9344,-1.0940,1383.06,114.93,-1704.96
1230,-3.8710,3.0338,-1.3320,-382.57,-25.57,1888.43
1240,-3.8706,3.1290,-1.6321,336.18,1505.92,1528.63
1250,-3.8702,3.1840,-1.9377,523.68,-900.15,371.77
1260,-3.8701,3.1833,-2.2112,-445.07,-25.09,1558.65
1270,-3.8702,3.1191,-2.4395,-523.19,974.91,-863.71
1280,-3.8705,2.9885,-2.6254,-741.94,-243.96,-1832.95
1290,-3.8708,2.8187,-2.7645,-1460.69,-41.08,666.69
1300,-3.8713,2.6578,-2.8529,804.93,-1853.88,1557.07
1310,-3.8718,2.5234,-2.9017,211.18,-1166.69,-380.62
1320,-3.8722,2.3945,-2.9149,-991.94,583.01,-552.55
1330,-3.8724,2.2661,-2.8813,-1491.94,-1104.74,556.76
1340,-3.8728,2.1555,-2.8051,-1929.44,-808.11,-1302.55
1350,-3.8730,2.0657,-2.7070,-85.69,957.28,1166.38
1360,-3.8733,1.9789,-2.6021,414.31,1504.03,166.56
1370,-3.8735,1.8615,-2.4956,1304.93,-1058.65,276.12
1380,-3.8739,1.6859,-2.3959,-1726.32,566.10,-317.38
1390,-3.8741,1.4631,-2.3151,-195.07,1331.36,589.05
1400,-3.8746,1.2323,-2.2405,-710.69,-325.32,-1598.33
1410,-3.8439,1.0236,-2.1318,1742.43,1221.13,-1879.39
1420,-3.8444,0.8492,-1.9779,-976.32,-873.05,-1316.71
1430,-3.8447,0.7280,-1.8190,711.18,-1170.23,1808.59
1440,-3.8451,0.6727,-1.7056,1195.56,-826.72,-300.48
1450,-3.8452,0.6580,-1.6398,-1882.57,1688.78,949.77
1460,-3.8453,0.6322,-1.5758,226.81,-1889.34,-1956.36
1470,-3.8453,0.5615,-1.4862,929.93,-1701.90,1137.51
1480,-3.8455,0.4503,-1.3862,-116.94,1766.66,-1377.93
1490,-3.8456,0.3297,-1.2930,1648.68,-1436.65,-1768.37
1500,-3.8457,0.2188,-1.1995,-1788.82,-1499.39,-1111.94
1510,-3.8457,0.1183,-1.0876,8.06,-1530.82,-1736.76
1520,-3.8457,0.0370,-0.9524,-851.32,781.43,-470.89
1530,-3.8456,-0.0128,-0.8125,742.43,-1906.19,966.86
1540,-3.8456,-0.0204,-0.6926,-1632.57,15.56,-1970.34
1550,-3.8456,0.0073,-0.5983,1398.68,-640.69,-1095.15
1560,-3.8456,0.0460,-0.5178,945.56,-578.12,-610.60
1570,-3.8456,0.0802,-0.4552,1898.68,1718.81,-204.16
1580,-3.8455,0.0846,-0.4187,-1726.32,1734.50,342.83
1590,-3.8455,0.0310,-0.3929,-1163.82,-1593.63,1014.77
1600,-3.8455,-0.0660,-0.3583,-23.19,1703.12,952.33
1610,-3.8456,-0.1708,-0.2892,-445.07,-1843.93,-1172.61
1620,-3.8457,-0.2686,-0.1647,-1851.32,-1000.37,1936.89
1630,-3.8459,-0.3719,0.0066,1633.06,-1063.05,1734.01
1640,-3.8463,-0.4886,0.1830,398.68,858.64,-1578.12
1650,-3.8467,-0.5955,0.3359,1461.18,-563.48,-1249.69
1660,-3.8469,-0.6635,0.4395,-210.69,-985.60,1922.49
1670,-3.8472,-0.6595,0.4956,-913.82,264.28,-296.02
1680,-3.8472,-0.6024,0.5258,-413.82,-548.22,1032.17
1690,-3.8472,-0.5441,0.5341,-1101.32,-688.72,-749.02
1700,-3.8469,-0.5139,0.5330,-1632.57,373.90,282.29
1710,-3.8468,-0.5170,0.5387,-1773.19,233.34,1110.41
1720,-3.8468,-0.5239,0.5566,1836.18,967.71,-420.84
1730,-3.8467,-0.5219,0.5688,945.56,-735.41,110.41
1740,-3.8468,-0.5112,0.5674,1211.18,827.09,-561.40
1750,-3.8468,-0.5092,0.5675,-1429.44,639.59,1407.35
1760,-3.8469,-0.5337,0.5825,-1163.82,655.21,-1858.28
1770,-3.8470,-0.5762,0.6198,-304.44,-1422.97,516.72
1780,-3.8474,-0.6194,0.6819,-1741.94,-657.41,-405.09
1790,-3.8477,-0.6442,0.7542,726.81,-704.35,1079.41
1800,-3.8479,-0.6458,0.8026,1554.93,545.59,188.96
1810,-3.8481,-0.6323,0.7927,1351.81,-1251.28,-732.85
1820,-3.8481,-0.6051,0.7449,-929.44,1483.09,1657.78
1830,-3.8481,-0.5715,0.7157,-1445.07,-641.85,595.15
1840,-3.8483,-0.5398,0.7375,-1148.19,-376.16,813.84
1850,-3.8485,-0.5048,0.7936,-1085.69,-1579.22,1235.78
1860,-3.8488,-0.4534,0.8434,-601.32,1592.71,95.28
1870,-3.8490,-0.3839,0.8633,1976.81,-32.17,1095.34
1880,-3.8491,-0.3090,0.8547,-1132.57,-1485.17,1892.27
1890,-3.8491,-0.2417,0.8212,461.18,1421.26,1704.77
1900,-3.8491,-0.1940,0.7814,1070.56,1124.51,-76.54
1910,-3.8490,-0.1715,0.7593,-820.07,30.82,-76.60
1920,-3.8488,-0.1704,0.7556,-1945.07,1202.76,548.34
1930,-3.8486,-0.1827,0.7661,-1804.44,734.01,829.59
1940,-3.8485,-0.1887,0.7794,617.43,-1922.24,79.59
1950,-3.8485,-0.1643,0.7733,-148.19,-219.18,-1498.54
1960,-3.8484,-0.1045,0.7335,-1023.19,-1000.37,1235.84
1970,-3.8483,-0.0171,0.6559,-1366.94,1906.01,-1904.85
1980,-3.8480,0.0975,0.5374,1820.56,-31.31,-1030.03
1990,-3.8475,0.2283,0.3999,492.43,781.43,422.91
2000,-3.8470,0.3358,0.2910,1226.81,-812.07,156.98
2010,-3.8467,0.3798,0.2419,-1007.57,1250.61,1672.42
2020,-3.8464,0.3651,0.2323,617.43,-1030.52,-1890.20
2030,-3.8463,0.3458,0.2009,-1257.57,1735.05,-1187.07
2040,-3.8462,0.3607,0.1073,273.68,1719.42,-171.51
2050,-3.8458,0.3895,-0.0283,-1820.07,1735.05,109.56
2060,-3.8456,0.4003,-0.1633,1867.43,375.73,-1203.19
2070,-3.8452,0.3945,-0.2870,-757.57,-905.52,1484.01
2080,-3.8448,0.3928,-0.4164,-1491.94,-733.64,515.01
2090,-3.8445,0.3915,-0.5444,-1710.69,-1296.14,874.15
2100,-3.8441,0.3635,-0.6398,-1882.57,-1686.77,-1985.47
2110,-3.8750,0.2999,-0.6847,-1460.69,-1889.95,-1126.28
2120,-3.8746,0.2242,-0.6765,-1601.32,359.92,1608.03
2130,-3.8744,0.1613,-0.6265,711.18,1406.68,45.53
2140,-3.8744,0.1095,-0.5560,648.68,-187.19,1201.84
2150,-3.8745,0.0963,-0.4982,-1976.32,828.31,1983.28
2160,-3.8746,0.1951,-0.4829,336.18,234.56,77.15
2170,-3.8749,0.4315,-0.5216,976.81,-1812.13,-985.35
2180,-3.8738,1.0835,-0.5773,-882.57,642.52,1201.90
2190,-3.8732,1.0162,-0.4880,-1304.44,-1888.55,-1188.66
2200,-3.8727,0.8890,-0.4152,-1913.82,1533.20,-1454.10
2210,-3.8723,0.7830,-0.4038,1804.93,-1138.92,342.90
2220,-3.8722,0.7419,-0.4626,226.81,314.03,1655.46
2230,-3.8722,0.8258,-0.5865,-1023.19,782.65,-1563.42
2240,-3.8722,1.0309,-0.7391,1711.18,923.46,-1376.16
2250,-3.8719,1.2385,-0.8599,-38.82,1392.58,1201.66
2260,-3.8716,1.3518,-0.9194,-1460.69,1939.88,-907.96
2270,-3.8710,1.3558,-0.9110,1039.31,-1684.88,810.67
2280,-3.8705,1.2681,-0.8241,1554.93,-606.75,529.42
2290,-3.8704,1.1586,-0.6821,-1679.44,-1481.93,-1970.40
2300,-3.8706,1.1389,-0.5369,304.93,689.76,123.66
2310,-3.8713,1.2405,-0.4103,1789.31,-716.55,483.28
2320,-3.8723,1.3900,-0.3192,-1210.69,-513.24,-1188.35
2330,-3.8732,1.5349,-0.2838,1929.93,-856.69,-125.67
2340,-3.8737,1.6835,-0.3101,476.81,-325.13,1796.26
2350,-3.8739,1.8639,-0.4049,-507.57,315.73,1171.26
2360,-3.8740,2.0873,-0.5796,-1413.82,175.48,-250.79
2370,-3.8738,2.3363,-0.8123,-820.07,1816.53,1389.47
2380,-3.8735,2.5359,-0.9984,-945.07,35.77,-1548.46
2390,-3.8734,2.6011,-1.0249,601.81,208.07,-1642.58
2400,-3.8735,2.5413,-0.9054,945.56,817.57,247.99
2410,-3.8740,2.4443,-0.7631,1289.31,114.32,-1767.40
2420,-3.8744,2.4176,-0.7053,883.06,-1667.11,45.35
2430,-3.8746,2.5095,-0.7572,1461.18,1723.45,-829.53
2440,-3.8744,2.6626,-0.8580,1226.81,-916.99,-532.78
2450,-3.8738,2.7722,-0.9429,820.56,-1822.94,1607.67
2460,-3.8730,2.7705,-1.0244,-1148.19,-682.13,1607.48
2470,-3.8722,2.6753,-1.1461,-1366.94,880.37,966.74
2480,-3.8713,2.5076,-1.2706,-1554.44,1302.06,-1221.01
2490,-3.8704,2.2378,-1.2793,976.81,1364.26,247.50
2500,-3.8699,1.8956,-1.1223,-1554.44,254.33,-18.13
2510,-3.8698,1.5804,-0.8837,-1351.32,347.41,-627.20
2520,-3.8700,1.3639,-0.6774,-1695.07,-1106.32,-1720.52
2530,-3.8704,1.2734,-0.5634,-1413.82,1299.50,1529.91
2540,-3.8707,1.3064,-0.5211,-991.94,-106.93,-157.41
2550,-3.8708,1.4108,-0.4739,-773.19,1299.38,-79.16
2560,-3.8708,1.5099,-0.3733,586.18,-653.50,-1344.73
2570,-3.8710,1.5703,-0.2437,1273.68,221.68,-297.61
2580,-3.8710,1.6033,-0.1489,1008.06,815.55,608.89
2590,-3.8710,1.5887,-0.1147,1226.81,940.61,202.82
2600,-3.8710,1.5027,-0.1417,-632.57,1315.55,1609.13
2610,-3.8708,1.8549,-0.5114,351.81,1862.30,-1609.68
2620,-3.8682,2.6085,-1.1343,1429.93,-1449.52,1077.09
2630,-3.8654,2.5822,-1.0906,1898.68,-1182.43,60.24
2640,-3.8666,1.5690,-0.2926,-1476.32,411.25,-1611.51
2650,-3.8700,0.4193,0.4308,836.18,-1450.07,-31.86
2660,-3.8734,-0.2538,0.7600,1679.93,-858.58,1313.29
2670,-3.8444,-0.2515,0.7352,-476.32,1296.33,-357.91
2680,-3.8447,0.2964,0.3912,-179.44,-1875.55,1892.03
2690,-3.8441,1.0148,-0.0891,1945.56,-1921.33,-858.64
2700,-3.8745,1.5023,-0.4456,1898.68,595.70,421.69
2710,-3.8743,1.5879,-0.5713,304.93,-1028.32,1545.96
2720,-3.8745,1.3845,-0.5367,-741.94,-1121.95,-1048.03
2730,-3.8749,1.1368,-0.4552,1226.81,-700.44,1936.40
2740,-3.8440,1.0085,-0.3937,1523.68,1736.57,-16.54
2750,-3.8439,1.0308,-0.3600,1101.81,1611.33,1264.83
2760,-3.8749,1.1255,-0.3304,-54.44,1923.83,-1735.11
2770,-3.8746,1.1865,-0.2804,70.56,1705.32,-813.17
2780,-3.8744,1.1151,-0.2220,-116.94,111.63,-1609.92
2790,-3.8743,0.8942,-0.2024,-1257.57,-419.74,-1234.86
2800,-3.8740,0.6865,-0.2587,-1538.82,-1904.54,546.45
2810,-3.8738,0.6407,-0.3652,-116.94,-1108.09,1780.70
2820,-3.8735,0.6981,-0.4637,-1976.32,1251.22,1702.39
2830,-3.8734,0.7468,-0.5106,1367.43,641.97,999.08
2840,-3.8735,0.7780,-0.4813,-398.19,-1357.97,-1219.79
2850,-3.8737,0.8145,-0.3834,-413.82,-1607.91,327.15
2860,-3.8740,0.8740,-0.2860,258.06,-1076.54,-703.92
2870,-3.8743,0.9465,-0.2491,-116.94,-607.73,-984.99
2880,-3.8744,0.9884,-0.2614,1164.31,111.21,1202.64
2890,-3.8745,0.9994,-0.2954,-1476.32,-1451.23,1405.70
2900,-3.8746,1.0168,-0.3427,-70.07,-1810.61,1124.39
2910,-3.8748,1.0503,-0.3986,-1835.69,142.58,1968.08
2920,-3.8748,1.1041,-0.4375,-1554.44,986.39,-1375.79
2930,-3.8748,1.1606,-0.4631,1336.18,2.14,-297.73
2940,-3.8746,1.1652,-0.4830,570.56,721.01,577.21
2950,-3.8746,1.0994,-0.4866,1148.68,-1825.87,1670.90
2960,-3.8746,1.0270,-0.4696,726.81,1720.89,1795.90
2970,-3.8746,1.0244,-0.4421,-538.82,-107.42,233.40
2980,-3.8748,1.0680,-0.4315,-866.94,-591.80,-1125.92
2990,-3.8746,1.0732,-0.4315,711.18,767.70,1046.02
3000,-3.8745,1.0111,-0.4077,1383.06,767.70,1264.77
3010,-3.8745,0.9391,-0.3617,1429.93,-185.55,-500.85
3020,-3.8744,0.9160,-0.3260,211.18,1704.96,702.39
3030,-3.8744,0.9401,-0.3240,1258.06,-1732.60,-938.17
3040,-3.8743,0.9702,-0.3419,336.18,-1466.92,1561.83
3050,-3.8743,0.9806,-0.3414,195.56,236.27,-1844.42
3060,-3.8744,0.9850,-0.3217,1523.68,298.77,-31.92
3070,-3.8744,1.0024,-0.3121,-1913.82,-1169.98,202.45
3080,-3.8746,1.0178,-0.3185,320.56,48.83,-31.86
3090,-3.8746,0.9987,-0.3196,-1710.69,-763.67,1530.58
3100,-3.8746,0.9478,-0.2896,-163.82,-904.36,-985.05
3110,-3.8745,0.9015,-0.2373,1320.56,-1060.67,-1656.86
3120,-3.8744,0.8878,-0.2002,-601.32,1626.71,655.76
3130,-3.8744,0.9171,-0.1899,1648.68,-1623.29,1327.70
3140,-3.8745,0.9838,-0.1875,1398.68,-310.73,-297.30
3150,-3.8746,1.0532,-0.1937,1929.93,1.89,-875.37
3160,-3.8748,1.0958,-0.2137,-1179.44,-794.86,-1312.93
3170,-3.8749,1.0907,-0.2485,273.68,642.76,-562.93
3180,-3.8749,1.0203,-0.3285,-382.57,189.58,-562.99
3190,-3.8746,0.9135,-0.4454,-1398.19,1955.08,811.83
3200,-3.8745,0.8260,-0.5413,929.93,-1013.85,-532.17
3210,-3.8744,0.7897,-0.5848,1742.43,-1279.66,-313.60
3220,-3.8743,0.7992,-0.5872,1086.18,1142.15,295.72
3230,-3.8744,0.8348,-0.5626,-1695.07,845.28,-1735.53
3240,-3.8745,0.8752,-0.5164,-1132.57,-14.04,-641.78
3250,-3.8745,0.9149,-0.4595,39.31,1907.96,514.59
3260,-3.8746,0.9446,-0.4111,1117.43,1189.27,1155.33
3270,-3.8748,0.9463,-0.3853,914.31,-623.17,-1719.60
3280,-3.8748,0.9214,-0.3708,1133.06,-1310.67,-1922.67
3290,-3.8748,0.8903,-0.3527,1945.56,533.02,-563.23
3300,-3.8746,0.8693,-0.3369,1961.18,-1138.92,311.77
3310,-3.8746,0.8599,-0.3289,-726.32,876.65,843.08
3320,-3.8746,0.8701,-0.3247,-1929.44,1907.90,1327.45
3330,-3.8746,0.8954,-0.3201,-616.94,-1560.85,-1860.05
3340,-3.8746,0.9108,-0.3070,-1382.57,-967.04,-688.17
3350,-3.8746,0.9038,-0.2853,586.18,704.90,-563.11
3360,-3.8746,0.8866,-0.2725,-304.44,-513.92,-1719.36
3370,-3.8746,0.8826,-0.2810,1492.43,1126.71,1968.20
3380,-3.8746,0.8998,-0.2971,976.81,32.96,-203.67
3390,-3.8745,0.9237,-0.2993,-820.07,1970.46,-1641.24
3400,-3.8745,0.9340,-0.2853,-1757.57,1689.27,-641.24
3410,-3.8745,0.9186,-0.2678,-445.07,-513.85,1796.26
3420,-3.8746,0.8900,-0.2650,1586.18,1720.52,-1297.42
3430,-3.8746,0.8754,-0.2872,1929.93,-1920.17,1124.45
3440,-3.8746,0.8833,-0.3190,54.93,-763.92,-1250.61
3450,-3.8745,0.8972,-0.3302,1070.56,-826.42,1436.83
3460,-3.8745,0.8983,-0.3135,-1148.19,1736.08,-1688.17
3470,-3.8745,0.8936,-0.2919,-1007.57,-123.29,1655.58
3480,-3.8745,0.8900,-0.2832,-1616.94,-1357.67,-1781.86
3490,-3.8744,0.8715,-0.2744,1929.93,-248.29,483.76
3500,-3.8744,0.8398,-0.2413,-445.07,876.65,1999.45
3510,-3.8744,0.8218,-0.1726,-491.94,1110.96,-1969.24
3520,-3.8744,0.8378,-0.0718,1195.56,1907.84,-1734.74
3530,-3.8744,0.8877,0.0502,-757.57,-1185.91,-1562.68
3540,-3.8744,0.9513,0.1687,1633.06,-1576.42,-1968.69
3550,-3.8743,0.9811,0.2156,1773.68,1595.58,1312.81
3560,-3.8740,0.9530,0.1281,1586.18,-404.36,-984.01
3570,-3.8735,0.8917,-0.0819,1992.43,392.46,1812.74
3580,-3.8730,0.8260,-0.3429,-1851.32,1517.33,-1359.56
3590,-3.8727,0.7816,-0.5551,1742.43,110.96,468.08
3600,-3.8728,0.7782,-0.6583,54.93,954.65,1983.28
3610,-3.8730,0.8427,-0.6696,-382.57,-264.16,842.41
3620,-3.8733,0.9845,-0.6345,-132.57,-1701.54,-1907.59
3630,-3.8733,1.1472,-0.5647,-1976.32,-1216.86,-1579.41
3640,-3.8732,1.2579,-0.4545,-1148.19,-279.05,1467.59
3650,-3.8732,1.2915,-0.3333,1023.68,1830.57,436.58
3660,-3.8734,1.2594,-0.2443,1320.56,1346.25,-1125.67
3670,-3.8735,1.1830,-0.2153,1211.18,736.82,1718.26
3680,-3.8737,1.0942,-0.2432,-570.07,439.76,-109.80
3690,-3.8735,1.0284,-0.2843,70.56,877.14,1874.51
3700,-3.8733,1.0387,-0.2925,-351.32,-388.67,1718.14
3710,-3.8729,1.1827,-0.2458,961.18,-1435.49,-1781.86
3720,-3.8723,1.5026,-0.1324,-601.32,533.51,-1016.11
3730,-3.8710,2.0265,-0.0205,336.18,-950.20,-859.68
3740,-3.8690,2.6198,-0.0338,-601.32,1378.91,-1796.94
3750,-3.8673,3.0049,-0.1599,-663.82,-323.06,-1906.37
3760,-3.8661,3.0581,-0.2700,633.06,-462.89,999.63
3770,-3.8654,2.8564,-0.3328,-554.44,1443.42,-1844.30
3780,-3.8649,2.5935,-0.4275,1633.06,1411.80,421.20
3790,-3.8647,2.4574,-0.5593,-23.19,1286.25,-1547.73
3800,-3.8649,2.4767,-0.6176,-1445.07,411.01,-1485.47
3810,-3.8654,2.5629,-0.5157,1023.68,957.95,1389.40
3820,-3.8662,2.6152,-0.2944,54.93,1989.38,1889.59
3830,-3.8671,2.5989,-0.0634,-1241.94,-1682.43,-1313.11
3840,-3.8676,2.5408,0.0756,664.31,-104.31,-1859.56
3850,-3.8677,2.4525,0.0648,1226.81,1676.82,-749.88
3860,-3.8674,2.3182,-0.0674,1929.93,301.64,-1187.38
3870,-3.8671,2.1753,-0.2233,742.43,-620.48,-437.68
3880,-3.8666,2.0977,-0.2891,-1554.44,-573.91,1218.26
3890,-3.8663,2.0841,-0.2142,508.06,-995.91,-1500.61
3900,-3.8663,2.0804,-0.0311,-1226.32,582.15,1812.07
3910,-3.8666,2.0327,0.2035,-1695.07,19.65,46.81
3920,-3.8671,1.8923,0.4170,195.56,-1949.16,-780.88
3930,-3.8673,1.7017,0.5293,-1773.19,1378.66,1688.29
3940,-3.8673,1.5751,0.4890,1820.56,-246.70,1016.60
3950,-3.8671,1.5090,0.2939,1617.43,-1403.20,-1592.83
3960,-3.8667,1.3844,0.0177,1164.31,1627.93,-1843.20
3970,-3.8666,1.1783,-0.2272,1211.18,-1731.69,140.62
3980,-3.8671,0.9854,-0.3602,-1163.82,-1075.87,1765.14
3990,-3.8682,0.8704,-0.3662,-1866.94,1892.52,-110.11
4000,-3.8698,0.8312,-0.2745,-585.69,1126.65,-1906.98
4010,-3.8718,0.8267,-0.1190,-1601.32,860.96,-344.30
4020,-3.8739,0.8391,0.0697,1820.56,767.21,-1718.99
4030,-3.8447,0.8741,0.2733,-585.69,923.46,-328.00
4040,-3.8466,0.9050,0.4557,-101.32,-1013.98,-1218.26
4050,-3.8481,0.9176,0.5269,-148.19,-1670.17,-233.52
4060,-3.8491,0.8976,0.4071,1461.18,-560.73,-1389.65
4070,-3.8494,0.8420,0.1384,-1101.32,111.08,1313.29
4080,-3.8490,0.7681,-0.1445,-210.69,1720.34,1890.87
4090,-3.8483,0.7075,-0.3458,-1679.44,1501.46,1077.82
4100,-3.8477,0.7729,-0.4537,-1429.44,-264.28,-1000.73
4110,-3.8470,0.9930,-0.4702,-1054.44,1923.34,1186.58
4120,-3.8467,1.1791,-0.3798,-882.57,-185.61,-657.23
4130,-3.8464,1.1615,-0.2517,-1070.07,-607.12,-1313.29
4140,-3.8463,0.9561,-0.2052,679.93,-216.49,1436.95
4150,-3.8462,0.6885,-0.2704,-1616.94,1736.21,-1437.93
4160,-3.8458,0.4735,-0.3910,133.06,1391.97,796.33
4170,-3.8455,0.3707,-0.5179,617.43,1954.04,1717.96
4180,-3.8451,0.4198,-0.6509,-538.82,1703.80,-94.79
4190,-3.8446,0.5902,-0.7784,1742.43,688.29,-876.28
4200,-3.8441,0.7795,-0.8508,-445.07,360.47,201.60
4210,-3.8440,0.8877,-0.8245,-210.69,-904.79,1810.79
4220,-3.8441,0.8560,-0.7061,1633.06,-1529.54,217.10
4230,-3.8446,0.6991,-0.5548,1570.56,1626.65,514.22
4240,-3.8453,0.4980,-0.4225,1492.43,985.72,-282.35
4250,-3.8459,0.3285,-0.3300,-241.94,1922.79,-438.35
4260,-3.8463,0.2111,-0.2743,-1945.07,1766.24,155.58
4270,-3.8467,0.1434,-0.2334,-976.32,890.99,-1422.42
4280,-3.8468,0.1350,-0.2080,-1632.57,-1874.76,1733.89
4290,-3.8468,0.2150,-0.2108,1289.31,1375.24,608.95
4300,-3.8467,0.3765,-0.2170,-476.32,1015.99,437.07
4310,-3.8464,0.5205,-0.1913,195.56,219.48,733.95
4320,-3.8462,0.5522,-0.1411,-1366.94,-483.40,1046.45
4330,-3.8461,0.4703,-0.0995,-1304.44,1938.54,-1890.93
4340,-3.8461,0.3336,-0.0873,211.18,-733.46,-718.99
4350,-3.8461,0.2050,-0.0961,-1288.82,828.74,-1297.06
4360,-3.8461,0.1106,-0.1014,-1757.57,-296.51,-953.37
4370,-3.8461,0.0548,-0.0950,-1835.69,-984.19,-0.24
4380,-3.8459,0.0564,-0.0958,-976.32,-156.19,124.76
4390,-3.8459,0.1184,-0.1224,-773.19,-265.56,1140.38
4400,-3.8458,0.1825,-0.1580,-835.69,328.31,312.26
4410,-3.8458,0.1881,-0.1747,-632.57,-218.44,-1234.74
4420,-3.8458,0.1298,-0.1523,86.18,1640.99,-1656.62
4430,-3.8458,0.0343,-0.0601,617.43,500.24,140.32
4440,-3.8458,-0.0951,0.0548,398.68,312.56,-1812.62
4450,-3.8456,-0.2478,0.0624,-163.82,-968.99,1468.81
4460,-3.8455,-0.3495,-0.0122,289.31,-0.49,1250.06
4470,-3.8456,-0.3502,-0.0594,-726.32,-1547.61,-125.06
4480,-3.8456,-0.2445,-0.0997,-820.07,405.52,796.75
4490,-3.8457,-0.0465,-0.2004,711.18,-750.49,-750.24
4500,-3.8453,0.1329,-0.3186,-1945.07,-1640.75,1687.07
4510,-3.8446,0.1586,-0.3259,1023.68,-781.01,-703.80
4520,-3.8750,-0.0033,-0.1536,304.93,-1718.44,1249.33
4530,-3.8746,-0.3162,0.1727,-413.82,359.31,1812.19
4540,-3.8745,-0.6641,0.5721,-460.69,-1875.67,875.31
4550,-3.8741,-0.8680,0.9229,-991.94,1248.66,1688.60
4560,-3.8728,-0.8688,1.0692,898.68,-1861.08,611.15
4570,-3.8706,-0.7877,0.9476,804.93,873.29,-607.30
4580,-3.8679,-0.7363,0.6122,-820.07,1310.91,-857.54
4590,-3.8657,-0.6721,0.1862,1758.06,-1626.46,-1670.72
4600,-3.8647,-0.4431,-0.1373,1976.81,-157.59,187.81
4610,-3.8652,0.0471,-0.2953,-710.69,-1563.42,-953.43
4620,-3.8665,0.7056,-0.3746,-1960.69,-1796.81,1702.51
4630,-3.8680,1.3682,-0.4086,-1679.44,48.22,858.64
4640,-3.8696,1.9956,-0.4056,-866.94,-294.25,-1875.85
4650,-3.8708,2.6300,-0.3702,-554.44,81.97,-1141.42
4660,-3.8715,3.1642,-0.2878,648.68,614.50,77.39
4670,-3.8717,3.4282,-0.1305,1023.68,-837.59,796.26
4680,-3.8717,3.4314,0.0873,-1179.44,-696.47,1843.44
4690,-3.8717,3.2560,0.2656,-773.19,-821.47,-1062.38
4700,-3.8717,2.9556,0.3339,773.68,-1993.65,344.24
4710,-3.8719,2.6118,0.3048,-1679.44,-1259.89,-1358.76
4720,-3.8721,2.2968,0.2478,-1679.44,-979.31,688.05
4730,-3.8723,2.0369,0.2329,1992.43,-276.79,-577.70
4740,-3.8726,1.8381,0.2866,726.81,1816.47,-1265.20
4750,-3.8729,1.6847,0.4032,-710.69,691.04,844.30
4760,-3.8734,1.5764,0.5623,-351.32,-387.39,594.48
4770,-3.8739,1.5405,0.7231,1789.31,-28.20,407.29
4780,-3.8744,1.5858,0.8479,1195.56,565.49,1845.15
4790,-3.8748,1.6812,0.9479,-1007.57,534.30,-201.48
4800,-3.8748,1.8003,1.0665,-804.44,1331.36,1548.71
4810,-3.8745,1.9456,1.1949,-1554.44,519.10,1408.33
4820,-3.8738,2.1616,1.1852,1039.31,956.91,846.07
4830,-3.8724,2.4747,0.8696,695.56,-292.66,767.88
4840,-3.8707,2.7625,0.3787,773.68,-682.68,-1576.48
4850,-3.8690,2.8458,0.0432,1601.81,474.12,-1046.14
4860,-3.8677,2.7108,-0.0334,273.68,1536.80,265.69
4870,-3.8674,2.4917,0.0332,-1007.57,-276.00,-797.00
4880,-3.8683,2.3204,0.1595,-1054.44,254.82,1390.69
4890,-3.8702,2.2524,0.3405,1023.68,426.39,-1265.32
4900,-3.8724,2.2268,0.5640,320.56,-417.48,1391.24
4910,-3.8744,2.1510,0.7728,1039.31,191.83,1829.22
4920,-3.8445,2.0406,0.9037,-663.82,-1073.97,-1326.66
4930,-3.8451,1.9791,0.9255,1211.18,-324.16,1111.08
4940,-3.8453,1.9895,0.8564,1336.18,-1527.40,-1341.98
4950,-3.8453,2.0394,0.7552,-1335.69,1628.85,1142.27
4960,-3.8455,2.1121,0.6824,1054.93,675.84,1485.84
4970,-3.8457,2.2084,0.6665,-1648.19,-652.16,-1608.09
4980,-3.8459,2.2947,0.7009,-1320.07,1316.77,1376.28
4990,-3.8463,2.3091,0.7505,1726.81,1723.21,-1233.03
5000,-3.8467,2.2284,0.7581,-429.44,66.96,-1373.54
5010,-3.8470,2.0859,0.6832,1242.43,1035.58,-701.66
5020,-3.8473,1.9373,0.5415,-991.94,-542.85,-514.34
5030,-3.8474,1.8234,0.3822,-23.19,1316.22,-217.71
5040,-3.8474,1.7502,0.2379,1398.68,925.42,-858.64
5050,-3.8473,1.6975,0.1091,39.31,-1543.46,844.18
5060,-3.8472,1.6583,-0.0310,1289.31,1972.05,1078.31
5070,-3.8469,1.6276,-0.2014,273.68,34.48,1171.81
5080,-3.8466,1.5679,-0.3628,336.18,-1778.08,983.95
5090,-3.8462,1.4587,-0.4608,695.56,1565.55,952.39
5100,-3.8459,1.3231,-0.4924,-1273.19,1018.43,1061.58
5110,-3.8458,1.1801,-0.4908,1367.43,971.31,217.77
5120,-3.8458,1.0344,-0.4802,-945.07,1174.13,795.90
5130,-3.8458,0.9020,-0.4747,414.31,-1466.74,-1391.60
5140,-3.8456,0.8035,-0.4922,-538.82,-763.92,702.15
5150,-3.8452,0.7394,-0.5284,-1148.19,1001.53,764.65
5160,-3.8447,0.6954,-0.5677,-1351.32,360.78,-1719.79
5170,-3.8441,0.6648,-0.6088,1023.68,-670.53,1576.97
5180,-3.8749,0.6633,-0.6544,1101.81,-1920.59,-1516.85
5190,-3.8745,0.6934,-0.6976,914.31,235.66,-1548.16
5200,-3.8743,0.7173,-0.7220,758.06,-1295.53,186.10
5210,-3.8744,0.7177,-0.7389,-179.44,-420.53,-63.96
5220,-3.8745,0.7428,-0.8004,-132.57,1423.22,-126.46
5230,-3.8745,0.8064,-0.8961,-913.82,1548.28,717.16
5240,-3.8746,0.8457,-0.9462,-773.19,1298.40,-204.90
5250,-3.8748,0.8175,-0.9218,258.06,-1107.73,-423.77
5260,-3.8750,0.7064,-0.8522,648.68,-1982.79,-1548.71
5270,-3.8440,0.5193,-0.7731,-1570.07,-1076.78,-564.21
5280,-3.8750,0.3174,-0.7378,-1523.19,1047.85,654.72
5290,-3.8741,0.1453,-0.8063,633.06,1563.11,1326.66
5300,-3.8724,0.0055,-0.9800,-1398.19,797.12,420.29
5310,-3.8704,-0.0192,-1.2012,711.18,-1437.50,373.05
5320,-3.8687,0.1473,-1.3435,1554.93,-1734.44,-1689.88
5330,-3.8678,0.4314,-1.2892,-1132.57,31.49,13.00
5340,-3.8684,0.7074,-1.0353,-773.19,-1014.83,-565.06
5350,-3.8698,0.8973,-0.6965,-1445.07,-514.28,-1142.70
5360,-3.8712,0.9646,-0.4148,-1132.57,-1154.54,-1048.28
5370,-3.8723,0.9127,-0.2462,-523.19,-1091.92,1967.90
5380,-3.8730,0.8036,-0.1643,836.18,486.15,-1500.49
5390,-3.8734,0.7072,-0.1184,-1132.57,-1029.72,390.26
5400,-3.8738,0.6464,-0.0758,-1476.32,845.09,-1172.12
5410,-3.8740,0.6099,-0.0216,-1257.57,-1701.90,1499.82
5420,-3.8744,0.5950,0.0421,-1929.44,1235.53,-468.81
5430,-3.8746,0.6266,0.1056,164.31,1391.78,-624.94
5440,-3.8748,0.7202,0.1674,211.18,1516.85,-1327.94
5450,-3.8748,0.8503,0.2216,195.56,1423.28,1015.93
5460,-3.8748,0.9716,0.2482,851.81,361.02,-905.82
5470,-3.8745,1.0507,0.2317,367.43,-232.48,-1687.07
5480,-3.8741,1.0901,0.1871,-1507.57,1658.26,328.55
5490,-3.8739,1.1177,0.1404,-460.69,-44.80,234.68
5500,-3.8738,1.1395,0.1047,-929.44,1970.89,672.12
5510,-3.8737,1.1278,0.0978,1867.43,1408.45,172.06
5520,-3.8735,1.0735,0.1271,367.43,517.82,1390.81
5530,-3.8733,1.0059,0.1791,1414.31,267.70,562.74
5540,-3.8732,0.9609,0.2394,758.06,-1076.17,-265.32
5550,-3.8729,0.9602,0.2960,-991.94,-1357.54,1141.05
5560,-3.8728,1.0006,0.3431,-1085.69,1892.46,797.42
5570,-3.8728,1.0745,0.3772,86.18,-76.17,-515.01
5580,-3.8727,1.1821,0.3969,1539.31,283.33,328.86
5590,-3.8728,1.2922,0.4084,-679.44,-1200.87,-280.52
5600,-3.8727,1.3658,0.4091,1414.31,283.75,563.29
5610,-3.8727,1.3984,0.4082,-1163.82,362.00,-467.96
5620,-3.8726,1.3865,0.4366,-991.94,252.69,1563.29
5630,-3.8726,1.3207,0.4977,1476.81,-106.69,94.54
5640,-3.8728,1.2198,0.5735,1054.93,-294.31,-1780.33
5650,-3.8732,1.1342,0.6666,148.68,1408.63,1860.47
5660,-3.8738,1.1050,0.7834,1179.93,1330.32,-1920.59
5670,-3.8745,1.1246,0.9055,1445.56,283.39,1657.78
5680,-3.8440,1.1498,1.0095,-38.82,-91.61,-1717.04
5690,-3.8445,1.1482,1.0837,-820.07,1220.95,1814.45
5700,-3.8447,1.1371,1.1042,-1023.19,-1279.05,1533.33
5710,-3.8448,1.1448,1.0591,1554.93,1345.95,1189.64
5720,-3.8450,1.1598,0.9763,-1460.69,-435.30,267.64
5730,-3.8452,1.1584,0.8795,461.18,971.01,-1951.23
5740,-3.8453,1.1453,0.7739,289.31,580.38,611.08
5750,-3.8455,1.1173,0.6672,-1398.19,-935.30,1267.09
5760,-3.8456,1.0553,0.5626,-976.32,1408.39,-342.47
5770,-3.8455,0.9657,0.4514,-913.82,17.64,204.22
5780,-3.8455,0.8665,0.3337,-382.57,1783.08,-280.40
5790,-3.8452,0.7747,0.2219,-1085.69,-1279.60,1953.74
5800,-3.8450,0.7104,0.1254,-835.69,407.71,1391.05
5810,-3.8447,0.6930,0.0424,-1054.44,48.22,484.62
5820,-3.8446,0.7278,-0.0291,711.18,1423.22,-531.19
5830,-3.8444,0.8025,-0.0682,1164.31,282.65,-1328.19
5840,-3.8441,0.9088,-0.0541,-1273.19,-732.85,15.44
5850,-3.8441,1.0358,0.0020,336.18,1079.90,1640.50
5860,-3.8441,1.1571,0.0724,586.18,252.01,62.50
5870,-3.8442,1.2489,0.1339,117.43,1267.88,1031.37
5880,-3.8444,1.2980,0.1697,-132.57,1143.01,1906.49
5890,-3.8445,1.3068,0.1793,-1851.32,1721.25,-390.32
5900,-3.8445,1.2990,0.1810,-726.32,-1044.37,-1062.19
5910,-3.8445,1.3037,0.1935,-1726.32,-825.62,-687.19
5920,-3.8445,1.3335,0.2156,-1116.94,768.13,-577.76
5930,-3.8445,1.3877,0.2380,-1304.44,-403.69,-1124.63
5940,-3.8445,1.4617,0.2522,1633.06,-1528.56,-1983.95
5950,-3.8445,1.5388,0.2450,-898.19,284.06,1812.99
5960,-3.8445,1.6034,0.2146,976.81,-637.63,-687.07
5970,-3.8444,1.6482,0.1787,1242.43,-528.14,-1280.88
5980,-3.8442,1.6578,0.1608,-1023.19,-1121.83,-780.94
5990,-3.8441,1.6204,0.1711,211.18,581.36,-1202.82
6000,-3.8441,1.5526,0.1986,-585.69,1909.36,-499.69
6010,-3.8441,1.4901,0.2245,-1257.57,1424.87,1265.99
6020,-3.8442,1.4594,0.2341,-1257.57,737.24,1594.18
6030,-3.8444,1.4623,0.2227,-1195.07,1971.56,1922.30
6040,-3.8445,1.4806,0.1898,-820.07,502.81,-1187.07
6050,-3.8445,1.4957,0.1361,1523.68,299.74,906.62
6060,-3.8445,1.4996,0.0732,-538.82,1424.74,922.12
6070,-3.8445,1.4995,0.0187,-38.82,1377.87,-1671.75
6080,-3.8445,1.5165,-0.0197,-54.44,-1606.51,-187.50
6090,-3.8444,1.5504,-0.0433,-1882.57,1487.30,781.19
6100,-3.8444,1.5731,-0.0522,-1538.82,-1543.88,843.63
6110,-3.8445,1.5709,-0.0499,1367.43,1315.55,-15.75
6120,-3.8445,1.5466,-0.0432,1086.18,1612.43,-1328.25
6130,-3.8445,1.5040,-0.0388,1976.81,-1528.26,1328.00
6140,-3.8445,1.4521,-0.0510,523.68,-965.82,328.00
6150,-3.8445,1.4001,-0.0890,1883.06,1471.56,124.88
6160,-3.8445,1.3486,-0.1387,-773.19,612.06,1531.07
6170,-3.8444,1.2925,-0.1746,633.06,-1747.38,46.57
6180,-3.8444,1.2324,-0.1831,1445.56,1658.75,1624.63
6190,-3.8444,1.1743,-0.1691,1758.06,564.88,1124.63
6200,-3.8445,1.1216,-0.1429,-1679.44,-1638.37,-1047.24
6210,-3.8445,1.0784,-0.1167,-429.44,1705.26,343.44
6220,-3.8446,1.0447,-0.1000,-1960.69,1064.58,-1672.12
6230,-3.8446,1.0093,-0.0963,1726.81,-794.86,1046.63
6240,-3.8446,0.9652,-0.1139,1195.56,-326.17,765.38
6250,-3.8446,0.9163,-0.1558,-445.07,1423.71,1999.76
6260,-3.8445,0.8658,-0.2111,1289.31,64.27,1155.94
6270,-3.8444,0.8107,-0.2598,-1163.82,986.02,1671.45
6280,-3.8442,0.7406,-0.2842,-226.32,-1248.47,1890.08
6290,-3.8441,0.6561,-0.2860,-1195.07,-373.60,421.26
6300,-3.8441,0.5691,-0.2743,-7.57,-608.15,1358.76
6310,-3.8441,0.4836,-0.2427,851.81,891.72,827.58
6320,-3.8442,0.4022,-0.1923,1914.31,938.42,-1531.74
6330,-3.8444,0.3262,-0.1411,-507.57,-608.64,-891.05
6340,-3.8445,0.2499,-0.1005,1758.06,1938.11,-359.68
6350,-3.8445,0.1775,-0.0756,-7.57,-858.95,687.26
6360,-3.8446,0.1304,-0.0756,-1273.19,-1671.57,-359.56
6370,-3.8445,0.1267,-0.1128,695.56,-1671.63,1062.32
6380,-3.8444,0.1616,-0.1904,226.81,1562.74,234.13
6390,-3.8442,0.2091,-0.2775,695.56,-374.69,1187.07
6400,-3.8441,0.2428,-0.3350,-1226.32,484.74,-1453.67
6410,-3.8440,0.2557,-0.3608,-913.82,1125.43,1546.20
6420,-3.8440,0.2656,-0.3749,742.43,1812.99,-1219.48
6430,-3.8440,0.2942,-0.3961,-1991.94,16.11,-297.61
6440,-3.8439,0.3472,-0.4437,1664.31,1297.42,77.33
6450,-3.8439,0.4274,-0.5332,445.56,-796.20,733.46
6460,-3.8750,0.5266,-0.6584,-1288.82,-249.21,389.53
6470,-3.8748,0.6146,-0.7787,-585.69,-280.27,92.41
6480,-3.8745,0.6653,-0.8444,-1320.07,329.28,217.22
6490,-3.8745,0.6746,-0.8444,1164.31,-76.84,-470.46
6500,-3.8745,0.6575,-0.8118,-1648.19,-76.84,342.04
6510,-3.8748,0.6425,-0.7942,164.31,95.03,-1720.34
6520,-3.8749,0.6615,-0.8153,-1757.57,-1655.03,-1704.71
6530,-3.8749,0.7434,-0.8571,679.93,-358.09,-1376.65
6540,-3.8748,0.8849,-0.8976,-835.69,-1701.72,1310.79
6550,-3.8748,1.0458,-0.9399,1273.68,1111.08,-595.52
6560,-3.8746,1.1980,-0.9882,1867.43,-310.49,1404.36
6570,-3.8746,1.3414,-1.0161,1351.81,1517.94,-142.58
6580,-3.8745,1.4734,-0.9958,-288.82,1940.06,716.74
6590,-3.8746,1.5848,-0.9354,601.81,534.12,-1236.33
6600,-3.8748,1.6777,-0.8666,-1132.57,268.68,-704.96
6610,-3.8748,1.7406,-0.8188,-1241.94,1081.36,920.17
6620,-3.8748,1.7573,-0.7968,-1195.07,-809.14,951.48
6630,-3.8748,1.7423,-0.7782,945.56,-1980.96,1935.91
6640,-3.8748,1.7191,-0.7284,-976.32,393.98,764.10
6650,-3.8749,1.7118,-0.6371,54.93,-1231.02,29.79
6660,-3.8439,1.7356,-0.5310,-882.57,-1543.58,592.47
6670,-3.8441,1.8009,-0.4347,-1835.69,34.61,1295.84
6680,-3.8442,1.9224,-0.3483,-1476.32,362.85,874.15
6690,-3.8444,2.0594,-0.2542,-1929.44,-574.40,-547.61
6700,-3.8442,2.1260,-0.1544,-382.57,-527.28,827.58
6710,-3.8441,2.0797,-0.0732,133.06,238.53,1624.69
6720,-3.8439,1.9569,-0.0165,-1788.82,-1370.97,1062.32
6730,-3.8750,1.8185,0.0363,-1507.57,1894.41,-750.06
6740,-3.8749,1.6819,0.1044,773.68,644.17,250.06
6750,-3.8750,1.5345,0.1792,-710.69,1362.61,1047.06
6760,-3.8439,1.3821,0.2406,429.93,-1059.51,-1843.44
6770,-3.8439,1.2450,0.2847,914.31,-1200.44,-1733.95
6780,-3.8750,1.1300,0.3143,-632.57,439.88,203.67
6790,-3.8750,1.0403,0.3313,648.68,236.57,-1827.51
6800,-3.8750,0.9862,0.3473,1164.31,-1591.74,-61.89
6810,-3.8749,0.9650,0.3689,-1757.57,455.02,-1874.33
6820,-3.8748,0.9657,0.3773,-476.32,-779.42,1625.67
6830,-3.8746,0.9802,0.3652,-382.57,298.71,-1108.64
6840,-3.8744,1.0038,0.3518,1476.81,-1248.11,672.55
6850,-3.8743,1.0405,0.3571,492.43,1033.20,563.17
6860,-3.8743,1.0974,0.3844,1195.56,1705.14,1016.30
6870,-3.8744,1.1667,0.4150,476.81,1205.26,-1671.14
6880,-3.8745,1.2280,0.4299,1351.81,1127.26,-1311.71
6890,-3.8746,1.2716,0.4266,1195.56,-966.37,-280.46
6900,-3.8746,1.3087,0.4016,-1226.32,-1388.18,938.29
6910,-3.8748,1.3499,0.3574,-476.32,-591.25,-1702.39
6920,-3.8748,1.4011,0.3184,789.31,1752.62,63.17
6930,-3.8749,1.4819,0.3029,-648.19,752.69,828.74
6940,-3.8439,1.5968,0.3125,1695.56,-1231.51,-1202.58
6950,-3.8441,1.7192,0.3411,398.68,3.11,1578.74
6960,-3.8445,1.8273,0.3661,70.56,-340.39,1953.74
6970,-3.8448,1.9149,0.3540,1898.68,-1137.08,-1889.95
6980,-3.8451,1.9753,0.2844,1117.43,1316.22,922.55
6990,-3.8452,2.0094,0.1611,851.81,410.10,719.30
7000,-3.8452,2.0265,0.0203,1211.18,628.91,1484.68
7010,-3.8451,2.0350,-0.0894,-601.32,-1402.34,671.88
7020,-3.8451,2.0392,-0.1504,492.43,566.47,-1031.43
7030,-3.8451,2.0719,-0.1737,1023.68,753.97,-1578.43
7040,-3.8451,2.1489,-0.1882,1211.18,1769.65,-1656.62
7050,-3.8450,2.2150,-0.1964,-929.44,-89.60,77.70
7060,-3.8450,2.2394,-0.1777,-476.32,-1136.35,796.45
7070,-3.8451,2.2343,-0.1416,-1351.32,1254.33,-1297.24
7080,-3.8452,2.2137,-0.1185,1992.43,1879.33,1655.94
7090,-3.8453,2.1814,-0.1377,-632.57,832.40,468.51
7100,-3.8455,2.1182,-0.2024,-773.19,-1620.79,-1172.18
7110,-3.8453,2.0137,-0.2791,-866.94,-1902.16,-1922.30
7120,-3.8451,1.8921,-0.3322,1758.06,285.16,30.70
7130,-3.8450,1.7775,-0.3522,-1804.44,1488.04,-1906.92
7140,-3.8448,1.6658,-0.3506,-476.32,-1074.71,-641.36
7150,-3.8447,1.5431,-0.3423,1226.81,-871.77,-63.23
7160,-3.8445,1.4126,-0.3293,1523.68,190.49,77.45
7170,-3.8445,1.2937,-0.3083,820.56,1846.50,-594.42
7180,-3.8444,1.1827,-0.2823,1601.81,533.75,1374.39
7190,-3.8444,1.0574,-0.2576,-601.32,-138.37,-1766.24
7200,-3.8444,0.9099,-0.2310,-648.19,-966.74,-1484.92
7210,-3.8444,0.7588,-0.1949,476.81,-1560.73,-1484.86
7220,-3.8444,0.6346,-0.1558,1133.06,-951.66,-1531.68
7230,-3.8444,0.5424,-0.1232,1242.43,63.72,-1062.81
7240,-3.8442,0.4656,-0.1019,1429.93,235.41,781.01
7250,-3.8441,0.4022,-0.0924,-398.19,-1046.02,468.51
7260,-3.8440,0.3563,-0.0864,-507.57,172.61,968.57
7270,-3.8439,0.3191,-0.0781,1617.43,938.17,327.94
7280,-3.8439,0.2860,-0.0725,851.81,-1999.39,1937.32
7290,-3.8439,0.2633,-0.0717,617.43,-1280.70,-1656.43
7300,-3.8439,0.2559,-0.0660,1711.18,-1171.39,-1968.93
7310,-3.8439,0.2515,-0.0522,758.06,-452.64,1640.44
7320,-3.8439,0.2352,-0.0392,195.56,1312.99,1562.38
7330,-3.8439,0.2178,-0.0408,-1882.57,-1015.20,-1625.12
7340,-3.8750,0.2164,-0.0649,-116.94,-1218.38,1234.25
7350,-3.8749,0.2260,-0.0966,-288.82,-312.13,-1750.18
7360,-3.8748,0.2175,-0.1150,929.93,-358.95,-609.62
7370,-3.8746,0.1770,-0.1249,-148.19,1281.62,-1218.99
7380,-3.8745,0.1328,-0.1384,-1335.69,15.93,562.26
7390,-3.8745,0.1084,-0.1495,1008.06,-1718.51,-1531.56
7400,-3.8744,0.0918,-0.1548,1883.06,859.56,1140.32
7410,-3.8743,0.0840,-0.1676,-241.94,187.62,359.07
7420,-3.8741,0.0988,-0.1852,-1241.94,-1453.00,1140.26
7430,-3.8740,0.1287,-0.1907,648.68,297.06,-765.99
7440,-3.8738,0.1763,-0.2042,476.81,-406.01,702.70
7450,-3.8737,0.2363,-0.2520,-1429.44,1859.68,-1734.80
7460,-3.8734,0.2664,-0.3107,-1741.94,-249.57,-1922.42
7470,-3.8732,0.2413,-0.3408,-1898.19,234.86,-500.61
7480,-3.8729,0.1747,-0.3317,-1101.32,375.43,-813.17
7490,-3.8728,0.0919,-0.3042,-1632.57,1547.18,-1485.05
7500,-3.8728,0.0123,-0.2758,-226.32,1062.62,-1719.36
7510,-3.8729,-0.0542,-0.2441,1586.18,703.12,-94.30
7520,-3.8730,-0.0883,-0.2085,1070.56,765.50,-469.24
7530,-3.8732,-0.0566,-0.1824,711.18,1327.94,-1453.55
7540,-3.8733,0.0575,-0.1844,758.06,671.75,-937.87
7550,-3.8733,0.2288,-0.2126,-632.57,390.69,1609.01
7560,-3.8733,0.4084,-0.2440,1289.31,781.68,1562.07
7570,-3.8733,0.5527,-0.2594,289.31,766.42,1358.89
7580,-3.8734,0.6274,-0.2540,-1241.94,-1202.09,-125.55
7590,-3.8734,0.6294,-0.2367,320.56,-514.40,1030.70
7600,-3.8735,0.6024,-0.2152,570.56,1704.35,530.76
7610,-3.8738,0.6007,-0.1873,1117.43,454.28,-1172.30
7620,-3.8739,0.6371,-0.1462,898.68,32.41,780.88
7630,-3.8741,0.7058,-0.0905,1554.93,1282.47,-1547.18
7640,-3.8744,0.8053,-0.0404,-1648.19,423.22,-687.68
7650,-3.8745,0.9026,-0.0311,-913.82,-1170.35,249.88
7660,-3.8748,0.9575,-0.0796,-460.69,17.33,-468.81
7670,-3.8748,0.9633,-0.1637,-1429.44,1814.33,-1890.81
7680,-3.8748,0.9414,-0.2374,-695.07,-951.29,-1172.24
7690,-3.8748,0.9465,-0.2814,508.06,1611.21,-1219.24
7700,-3.8748,1.0433,-0.3174,1164.31,-13.79,218.14
7710,-3.8749,1.2206,-0.3591,1554.93,-622.99,952.45
7720,-3.8750,1.4138,-0.3925,242.43,-1966.37,-1313.23
7730,-3.8750,1.5945,-0.4037,976.81,1768.37,624.21
7740,-3.8439,1.7219,-0.4001,101.81,331.24,-1344.54
7750,-3.8439,1.7500,-0.4071,414.31,784.61,-1782.04
7760,-3.8750,1.6945,-0.4207,8.06,-105.96,296.02
7770,-3.8749,1.5944,-0.3981,898.68,-1840.45,217.90
7780,-3.8749,1.4869,-0.3046,86.18,1049.99,-1344.54
7790,-3.8750,1.4337,-0.1587,-1663.82,1018.49,-172.49
7800,-3.8440,1.4812,-0.0226,-476.32,-309.75,-578.49
7810,-3.8442,1.5970,0.0607,1601.81,1112.24,-1156.31
7820,-3.8444,1.6946,0.0945,429.93,-231.26,-1281.19
7830,-3.8444,1.7216,0.0964,914.31,97.05,1156.43
7840,-3.8445,1.6868,0.0710,367.43,347.11,-1390.44
7850,-3.8445,1.6282,0.0219,-85.69,1096.98,0.12
7860,-3.8445,1.5718,-0.0112,414.31,-1199.95,375.00
7870,-3.8445,1.5121,0.0406,1195.56,-1434.45,968.69
7880,-3.8447,1.4368,0.1912,1554.93,1206.05,-1812.44
7890,-3.8452,1.3395,0.3553,-85.69,471.50,-968.38
7900,-3.8456,1.2222,0.4443,-538.82,1486.94,78.80
7910,-3.8458,1.0930,0.4512,445.56,877.38,766.48
7920,-3.8458,0.9683,0.4231,-85.69,1752.08,828.98
7930,-3.8458,0.8739,0.4004,-54.44,-1841.92,-592.96
7940,-3.8457,0.8395,0.3907,-132.57,-748.35,1297.61
7950,-3.8457,0.8694,0.3888,-538.82,-1982.79,-1311.77
7960,-3.8456,0.9497,0.3784,-710.69,1767.27,672.61
7970,-3.8455,1.0951,0.3414,1570.56,439.33,281.98
7980,-3.8453,1.3005,0.2965,179.93,-294.74,1813.11
7990,-3.8452,1.4946,0.2666,-1523.19,1955.63,-233.83
8000,-3.8450,1.5992,0.2427,-679.44,-1872.13,672.36
8010,-3.8448,1.5916,0.2184,711.18,-934.39,703.55
8020,-3.8448,1.5171,0.2075,-273.19,-43.82,-296.51
8030,-3.8448,1.4623,0.2264,-1804.44,-1434.57,-327.76
8040,-3.8450,1.4958,0.2592,-820.07,987.18,-1312.07
8050,-3.8452,1.6290,0.2633,-523.19,1174.74,-1874.51
8060,-3.8455,1.8162,0.2236,523.68,1706.30,-390.14
8070,-3.8455,1.9822,0.1608,476.81,628.54,-1358.95
8080,-3.8453,2.0742,0.1053,1726.81,581.97,969.06
8090,-3.8453,2.0908,0.0732,1508.06,1488.40,-952.94
8100,-3.8453,2.0505,0.0648,-366.94,1379.03,-781.13
8110,-3.8455,1.9652,0.0765,-1523.19,300.84,-78.00
8120,-3.8456,1.8621,0.0953,-445.07,1800.66,312.62
8130,-3.8459,1.7747,0.0958,-1648.19,206.73,-921.69
8140,-3.8461,1.7196,0.0623,-835.69,269.04,750.18
8150,-3.8461,1.7162,0.0034,117.43,-27.89,187.56
8160,-3.8459,1.7681,-0.0602,-320.07,440.80,828.12
8170,-3.8458,1.8419,-0.1039,-1679.44,300.29,-0.12
8180,-3.8456,1.9073,-0.1067,-226.32,-1293.33,-1234.62
8190,-3.8455,1.9521,-0.0681,148.68,-1652.53,1343.51
8200,-3.8456,1.9635,-0.0151,1883.06,-714.97,-1453.31
8210,-3.8457,1.9218,0.0162,-663.82,-1933.72,-1734.44
8220,-3.8457,1.8237,0.0142,1992.43,-1918.15,515.62
8230,-3.8457,1.6844,-0.0051,1445.56,1816.04,-1968.75
8240,-3.8456,1.5208,-0.0234,-382.57,-653.02,1343.69
8250,-3.8455,1.3779,-0.0234,-1335.69,1002.93,906.19
8260,-3.8453,1.3071,-0.0081,383.06,1002.69,109.31
8270,-3.8453,1.3097,-0.0049,-679.44,-1028.75,-46.94
8280,-3.8451,1.3368,-0.0193,-351.32,-622.50,1906.19
8290,-3.8448,1.3363,-0.0474,-882.57,1533.81,1890.56
8300,-3.8446,1.2783,-0.0912,-945.07,1940.06,-1000.12
8310,-3.8444,1.1611,-0.1372,-366.94,330.57,-281.43
8320,-3.8441,1.0153,-0.1647,633.06,-1560.24,1624.69
8330,-3.8441,0.8732,-0.1599,1961.18,-1076.17,-1234.74
8340,-3.8442,0.7419,-0.1394,-226.32,-467.10,-62.87
8350,-3.8444,0.6202,-0.1357,-1023.19,-1842.35,-703.43
8360,-3.8445,0.5176,-0.1630,-601.32,-1373.84,-984.68
8370,-3.8445,0.4421,-0.2115,-1741.94,-858.40,1187.13
8380,-3.8445,0.3867,-0.2683,601.81,922.73,-1609.80
8390,-3.8444,0.3335,-0.3186,1508.06,1656.98,1390.08
8400,-3.8442,0.2708,-0.3497,-1304.44,-780.64,436.83
8410,-3.8442,0.2037,-0.3689,-1335.69,-765.14,-1063.23
8420,-3.8441,0.1517,-0.3816,-1913.82,781.62,1889.89
8430,-3.8440,0.1226,-0.3792,-570.07,-843.51,-1985.17
8440,-3.8439,0.1005,-0.3534,-304.44,-531.07,-1610.17
8450,-3.8750,0.0807,-0.3134,867.43,-1234.19,1499.27
8460,-3.8750,0.0817,-0.2771,-1663.82,-109.25,-688.17
8470,-3.8749,0.1146,-0.2490,-1538.82,531.37,999.45
8480,-3.8749,0.1715,-0.2188,-1320.07,125.18,-406.74
8490,-3.8748,0.2311,-0.1777,1961.18,0.31,-937.93
8500,-3.8746,0.2676,-0.1469,1586.18,1250.43,-1594.12
8510,-3.8745,0.2700,-0.1482,-1741.94,1203.61,1312.19
8520,-3.8744,0.2445,-0.1649,-1429.44,1031.74,1062.19
8530,-3.8743,0.2020,-0.1709,-695.07,-1108.95,-1469.12
8540,-3.8740,0.1550,-0.1604,1867.43,-1874.63,390.26
8550,-3.8739,0.1211,-0.1371,-148.19,-531.01,1749.63
8560,-3.8738,0.1171,-0.1157,-491.94,-1546.69,-562.81
8570,-3.8735,0.1547,-0.1255,-1007.57,1187.68,-1812.74
8580,-3.8733,0.2397,-0.1731,-195.07,-62.26,-1578.43
8590,-3.8730,0.3621,-0.2203,-1304.44,1844.18,-375.37
8600,-3.8728,0.4946,-0.2299,-1648.19,-202.45,-500.49
8610,-3.8727,0.5992,-0.1879,-679.44,-1420.96,-656.74
8620,-3.8727,0.6605,-0.0992,711.18,-45.72,1452.70
8630,-3.8729,0.6981,0.0013,554.93,-701.84,-359.62
8640,-3.8730,0.7256,0.0748,1367.43,173.22,-937.50
8650,-3.8729,0.7332,0.1036,883.06,1579.53,15.75
8660,-3.8728,0.7124,0.0771,1851.81,1267.03,-843.57
8670,-3.8724,0.6676,0.0179,-804.44,1876.34,-765.50
8680,-3.8719,0.6195,0.0006,1461.18,-1701.84,1156.25
8690,-3.8717,0.6074,0.0587,-695.07,79.28,-281.25
8700,-3.8715,0.6372,0.1586,1758.06,-483.22,796.94
8710,-3.8715,0.6731,0.2675,1570.56,298.10,-1468.44
8720,-3.8715,0.6947,0.3773,-1835.69,-1764.34,-1202.64
8730,-3.8715,0.7147,0.4886,929.93,298.22,1203.86
8740,-3.8716,0.7622,0.5985,-507.57,-1451.78,1204.04
8750,-3.8718,0.8481,0.6945,1570.56,610.84,-436.34
8760,-3.8719,0.9539,0.7467,570.56,892.27,1188.84
8770,-3.8722,1.0537,0.7198,-1898.19,-420.04,-998.60
8780,-3.8723,1.1349,0.6315,-1116.94,142.64,-1311.10
8790,-3.8723,1.1906,0.5504,1273.68,830.32,235.60
8800,-3.8726,1.2153,0.5237,398.68,-1544.56,-358.34
8810,-3.8728,1.2094,0.5515,-429.44,-966.43,1313.48
8820,-3.8733,1.1708,0.6083,-1195.07,-1403.93,1844.79
8830,-3.8738,1.1068,0.6707,1867.43,1861.63,782.41
8840,-3.8743,1.0304,0.7216,1679.93,1845.89,-998.72
8850,-3.8744,0.9528,0.7367,-101.32,361.33,17.03
8860,-3.8745,0.8873,0.7023,1961.18,-1701.29,-576.72
8870,-3.8744,0.8422,0.6255,1586.18,1892.33,-1811.16
8880,-3.8743,0.8359,0.4957,-195.07,64.09,798.10
8890,-3.8741,0.8778,0.2982,-991.94,-545.29,1063.42
8900,-3.8739,0.9174,0.1067,367.43,-1826.42,719.30
8910,-3.8738,0.8973,0.0228,1429.93,1658.02,-1187.32
8920,-3.8738,0.8087,0.0486,-1132.57,-1076.42,-1250.00
8930,-3.8740,0.6708,0.1226,-476.32,-1779.72,-359.31
8940,-3.8743,0.5226,0.1970,1867.43,-311.22,125.18
8950,-3.8748,0.4075,0.2594,-1101.32,1219.73,-46.51
8960,-3.8750,0.3447,0.3148,164.31,1203.92,1031.74
8970,-3.8441,0.3358,0.3661,133.06,297.55,-655.64
8980,-3.8444,0.3740,0.4059,-1007.57,-1140.01,-1249.33
8990,-3.8446,0.4360,0.4186,-116.94,-46.20,-124.27
9000,-3.8446,0.5110,0.3776,-179.44,1578.92,78.92
9010,-3.8446,0.6134,0.2938,1414.31,329.10,1610.11
9020,-3.8445,0.7299,0.2510,-1476.32,1610.53,-1374.45
9030,-3.8444,0.8126,0.3019,1429.93,126.40,937.99
9040,-3.8445,0.8242,0.4171,23.68,-1357.79,1703.67
9050,-3.8447,0.7737,0.5526,1508.06,1392.21,-1764.83
9060,-3.8450,0.7133,0.6879,-960.69,-1264.16,1235.41
9070,-3.8452,0.6830,0.8077,-695.07,48.22,1204.47
9080,-3.8455,0.7065,0.8904,-570.07,-608.09,-326.60
9090,-3.8455,0.8088,0.9325,-1554.44,1970.09,1032.96
9100,-3.8455,0.9871,0.9474,-460.69,-639.10,1361.15
9110,-3.8455,1.2200,0.9563,-1648.19,1267.52,-732.54
9120,-3.8453,1.4878,0.9869,164.31,-1591.37,314.33
9130,-3.8455,1.7437,1.0663,-1554.44,-1669.01,-1263.73
9140,-3.8457,1.9232,1.2026,-804.44,487.73,-44.80
9150,-3.8461,1.9983,1.3551,-1820.07,1941.22,-200.81
9160,-3.8464,1.9954,1.4508,-210.69,1456.97,-528.63
9170,-3.8467,1.9659,1.4419,-585.69,1706.97,-137.82
9180,-3.8467,1.9363,1.3368,-351.32,566.28,1924.68
9190,-3.8466,1.8989,1.1689,-148.19,-886.90,1346.31
9200,-3.8463,1.8456,0.9825,-929.44,1628.66,1846.01
9210,-3.8459,1.7666,0.8298,242.43,1769.23,1908.14
9220,-3.8456,1.6436,0.7267,-1866.94,-1777.83,-795.29
9230,-3.8451,1.4711,0.6498,-1616.94,1018.80,407.65
9240,-3.8447,1.2792,0.5909,304.93,-825.26,1907.47
9250,-3.8442,1.1180,0.5577,-257.57,-356.93,360.47
9260,-3.8439,1.0054,0.5547,-882.57,-607.24,1422.91
9270,-3.8749,0.9202,0.5842,695.56,-998.05,-1936.46
9280,-3.8748,0.8420,0.6315,1789.31,-1216.98,-858.28
9290,-3.8746,0.7792,0.6742,-210.69,829.71,-248.78
9300,-3.8744,0.7540,0.7015,-257.57,-1701.66,1563.78
9310,-3.8743,0.7587,0.7184,523.68,1798.34,-545.53
9320,-3.8741,0.7622,0.7338,1117.43,-45.41,-1279.91
9330,-3.8741,0.7406,0.7251,1570.56,1923.34,-842.35
9340,-3.8741,0.6803,0.6675,-1195.07,813.90,1938.90
9350,-3.8741,0.5920,0.5885,-913.82,1438.78,1048.16
9360,-3.8741,0.5060,0.5165,-210.69,-670.78,-1014.53
9370,-3.8740,0.4360,0.4408,773.68,-1889.65,1594.73
9380,-3.8740,0.3676,0.3521,-179.44,422.67,1953.98
9390,-3.8740,0.2867,0.2528,-945.07,1063.17,-499.33
9400,-3.8738,0.2050,0.1488,711.18,359.92,1750.49
9410,-3.8735,0.1429,0.0570,-1757.57,-952.76,-1671.63
9420,-3.8733,0.1038,-0.0055,-1695.07,-702.88,1093.81
9430,-3.8733,0.0753,-0.0383,1289.31,-702.94,-46.94
9440,-3.8733,0.0542,-0.0652,1648.68,-906.13,-531.37
9450,-3.8733,0.0609,-0.1047,-1054.44,-343.69,531.07
9460,-3.8735,0.1145,-0.1332,-195.07,-1406.19,-1031.49
9470,-3.8738,0.2030,-0.1333,-1335.69,-1046.69,-203.43
9480,-3.8739,0.2889,-0.1354,1992.43,-1062.13,1577.82
9490,-3.8740,0.3359,-0.1620,992.43,-1327.58,-1375.31
9500,-3.8740,0.3320,-0.2002,-991.94,-733.76,-937.87
9510,-3.8739,0.2894,-0.2341,-1491.94,-1624.39,937.07
9520,-3.8739,0.2365,-0.2559,1054.93,-1968.20,1812.01
9530,-3.8740,0.2120,-0.2622,-1726.32,-749.57,-266.17
9540,-3.8741,0.2399,-0.2584,-851.32,-1562.13,-1953.67
9550,-3.8744,0.3101,-0.2489,-1288.82,-1077.70,1311.95
9560,-3.8748,0.3906,-0.2329,-304.44,141.17,-656.74
9570,-3.8750,0.4613,-0.2078,-1991.94,-1811.77,1671.39
9580,-3.8440,0.5353,-0.1788,-945.07,1407.10,312.07
9590,-3.8442,0.6198,-0.1665,523.68,1110.41,999.63
9600,-3.8444,0.7130,-0.1851,-663.82,-1311.34,1405.88
9610,-3.8444,0.8267,-0.2343,-726.32,313.84,1187.13
9620,-3.8444,0.9393,-0.3048,1820.56,-1982.79,-203.61
9630,-3.8441,1.0066,-0.3741,242.43,986.21,1249.39
9640,-3.8439,1.0254,-0.4137,851.81,111.33,108.64
9650,-3.8750,1.0190,-0.4066,-741.94,-951.17,1014.77
9660,-3.8750,1.0111,-0.3590,-1554.44,-44.92,1983.52
9670,-3.8750,1.0239,-0.2937,1429.93,-1951.17,61.77
9680,-3.8439,1.0444,-0.2394,-929.44,-1591.80,-1563.11
9690,-3.8439,1.0421,-0.2214,1695.56,1361.39,-703.61
9700,-3.8750,1.0154,-0.2399,1398.68,-341.74,-1906.74
9710,-3.8749,0.9780,-0.2695,1976.81,1298.83,1608.89
9720,-3.8748,0.9498,-0.2920,1195.56,1501.89,1030.70
9730,-3.8746,0.9519,-0.3119,1586.18,-1373.17,265.01
9740,-3.8746,0.9813,-0.3291,1851.81,79.96,-141.24
9750,-3.8744,1.0194,-0.3419,1617.43,1876.89,718.08
9760,-3.8743,1.0740,-0.3674,-1507.57,236.33,-63.17
9770,-3.8739,1.1694,-0.4041,1476.81,970.83,874.27
9780,-3.8737,1.2937,-0.4272,1695.56,283.51,1046.08
9790,-3.8735,1.4143,-0.4153,1601.81,1315.00,1733.52
9800,-3.8735,1.5143,-0.3646,1039.31,-1153.50,1327.27
9810,-3.8737,1.6023,-0.2924,1836.18,1331.05,499.27
9820,-3.8739,1.7058,-0.2170,1101.81,-1418.76,-1234.99
9830,-3.8739,1.8390,-0.1482,-1648.19,222.05,577.70
9840,-3.8738,1.9873,-0.0940,-601.32,1034.79,1593.44
9850,-3.8734,2.1265,-0.0472,-1616.94,-27.40,1718.51
9860,-3.8730,2.2288,0.0256,195.56,1957.28,-672.00
9870,-3.8727,2.2682,0.1321,1289.31,-714.42,140.62
9880,-3.8727,2.2468,0.2380,-1663.82,910.64,-1515.38
9890,-3.8727,2.1990,0.3275,-398.19,-1526.92,203.55
9900,-3.8728,2.1526,0.4177,1476.81,1926.15,797.49
9910,-3.8728,2.1060,0.5052,-460.69,1472.90,1453.92
9920,-3.8726,2.0592,0.5587,1570.56,675.96,1641.60
9930,-3.8722,2.0206,0.5715,-413.82,-480.41,-170.84
9940,-3.8716,1.9769,0.5579,-1351.32,1160.16,610.47
9950,-3.8712,1.9142,0.5471,1054.93,-589.90,-436.46
9960,-3.8708,1.8363,0.5697,1023.68,-1965.03,94.79
9970,-3.8708,1.7507,0.5984,-945.07,925.42,-1030.15
9980,-3.8707,1.6649,0.5851,101.81,597.17,188.66
9990,-3.8708,1.5846,0.5348,1117.43,-1106.14,-1623.90
10000,-3.8711,1.4977,0.4879,-1163.82,456.18,1001.04
10010,-3.8717,1.3835,0.4697,-288.82,-1544.01,-311.58
10020,-3.8723,1.2504,0.4783,1101.81,127.69,1313.42
10030,-3.8730,1.1206,0.4946,54.93,1221.19,-1639.71
10040,-3.8737,1.0035,0.4958,-554.44,-685.36,-545.96
10050,-3.8740,0.9041,0.4683,461.18,-529.30,-811.58
10060,-3.8741,0.8370,0.4164,-273.19,-60.79,1672.73
10070,-3.8741,0.8201,0.3562,-851.32,1298.46,719.54
10080,-3.8741,0.8442,0.2898,976.81,1595.34,1750.67
10090,-3.8741,0.8861,0.2118,70.56,1095.40,-515.08
10100,-3.8740,0.9384,0.1293,1429.93,-888.92,-1702.76
