timestamp_ms,ax,ay,az,gx,gy,gz
0,-3.8730,0.6395,-0.4021,1164.31,-686.22,264.83
10,-3.8732,0.6179,-0.4315,1867.43,532.47,-1610.17
20,-3.8732,0.5844,-0.4661,-898.19,766.78,-516.48
30,-3.8730,0.5238,-0.5085,-1195.07,344.85,1639.71
40,-3.8730,0.4260,-0.5413,-945.07,-1092.77,-1688.54
50,-3.8730,0.3085,-0.5326,-1460.69,-1280.46,139.53
60,-3.8730,0.3835,-0.5078,-507.57,-171.33,-751.10
70,-3.8713,1.1504,-0.6241,1101.81,-999.27,905.21
80,-3.8676,1.8864,-0.6603,-741.94,111.57,-1735.60
90,-3.8662,1.4954,-0.3750,1461.18,-511.96,1373.66
100,-3.8695,0.6282,-0.0753,-585.69,2.87,-1953.86
110,-3.8732,0.2096,0.0092,414.31,-1639.40,-1890.81
120,-3.8746,0.4238,-0.0591,-1163.82,1172.24,-796.88
130,-3.8739,0.9105,-0.1407,-1741.94,438.29,953.00
140,-3.8728,1.1277,-0.1462,554.93,1986.15,1921.57
150,-3.8723,0.9629,-0.1121,351.81,1283.45,-62.81
160,-3.8722,0.6982,-0.1077,-741.94,1658.08,1499.76
170,-3.8723,0.5557,-0.1411,1383.06,-1779.91,-750.24
180,-3.8722,0.5144,-0.2050,-866.94,1938.54,624.69
190,-3.8721,0.4669,-0.2720,1851.81,1766.60,-859.80
200,-3.8717,0.3881,-0.3064,-226.32,1188.35,1093.20
210,-3.8715,0.3318,-0.2943,1679.93,781.98,-1531.86
220,-3.8713,0.3331,-0.2631,-1523.19,-1671.26,-438.11
230,-3.8713,0.4062,-0.2415,-1351.32,-1671.26,1483.83
240,-3.8715,0.5258,-0.2402,8.06,1094.54,265.14
250,-3.8717,0.6356,-0.2560,-695.07,1250.98,-1969.24
260,-3.8719,0.6970,-0.2717,1367.43,-764.40,1921.33
270,-3.8722,0.7074,-0.2681,1226.81,1220.09,-125.55
280,-3.8722,0.6901,-0.2507,-1445.07,1688.84,936.95
290,-3.8723,0.6714,-0.2371,336.18,-92.41,-969.30
300,-3.8723,0.6576,-0.2335,1945.56,1657.53,1515.14
310,-3.8723,0.6265,-0.2340,179.93,-1889.34,-1391.11
320,-3.8722,0.5764,-0.2272,195.56,-1951.90,-469.24
330,-3.8719,0.5348,-0.2188,1789.31,-1077.03,1296.39
340,-3.8718,0.5177,-0.2184,461.18,1.04,1124.57
350,-3.8718,0.5239,-0.2241,-1726.32,47.85,-1859.80
360,-3.8718,0.5431,-0.2292,-929.44,-686.52,1077.64
370,-3.8719,0.5614,-0.2313,1523.68,-1342.71,-344.24
380,-3.8719,0.5669,-0.2311,-132.57,-1608.34,-1094.24
390,-3.8719,0.5562,-0.2341,570.56,-1577.03,-1250.49
400,-3.8719,0.5452,-0.2296,-804.44,-1967.71,-1187.99
410,-3.8719,0.5582,-0.2274,1789.31,-1389.59,-1766.11
420,-3.8719,0.5441,-0.2621,-538.82,-1108.34,-1875.49
430,-3.8718,0.5032,-0.2959,1648.68,-1545.84,327.58
440,-3.8718,0.5079,-0.2819,414.31,-1874.02,-1438.11
450,-3.8718,0.5265,-0.2494,1023.68,-77.15,-1672.49
460,-3.8718,0.5187,-0.2328,-601.32,79.10,1280.76
470,-3.8718,0.5021,-0.2329,-1601.32,-1795.90,1312.01
480,-3.8718,0.4965,-0.2439,273.68,-1811.52,-1687.99
490,-3.8718,0.4951,-0.2577,-445.07,782.17,-437.99
500,-3.8717,0.4869,-0.2649,-616.94,-983.46,233.83
510,-3.8717,0.4779,-0.2634,-1663.82,-1905.33,655.70
520,-3.8717,0.4750,-0.2593,1179.93,-1717.83,890.08
530,-3.8717,0.4757,-0.2577,804.93,-1186.58,936.95
540,-3.8717,0.4773,-0.2550,898.68,-983.46,890.08
550,-3.8717,0.4824,-0.2456,1101.81,-639.71,515.08
560,-3.8718,0.4962,-0.2306,1758.06,563.42,-297.36
570,-3.8718,0.5155,-0.2209,-476.32,-1514.71,-1391.11
580,-3.8718,0.5264,-0.2247,1992.43,-280.27,1546.39
590,-3.8718,0.5215,-0.2371,-616.94,-764.65,921.39
600,-3.8718,0.5071,-0.2513,-1241.94,1657.23,1358.89
610,-3.8718,0.4873,-0.2622,914.31,-170.90,-813.05
620,-3.8717,0.4703,-0.2659,-1616.94,-1561.58,1327.58
630,-3.8717,0.4686,-0.2621,211.18,1969.67,-1500.55
640,-3.8717,0.4824,-0.2539,-7.57,-1546.02,-1969.30
650,-3.8717,0.4998,-0.2494,1758.06,-499.08,311.95
660,-3.8718,0.5082,-0.2504,-23.19,79.04,-1344.24
670,-3.8718,0.5057,-0.2504,1054.93,-45.90,-1969.30
680,-3.8718,0.5005,-0.2451,742.43,-45.90,-1781.80
690,-3.8718,0.4984,-0.2396,70.56,625.98,-1500.49
700,-3.8718,0.4976,-0.2412,-195.07,1329.04,-1094.24
710,-3.8718,0.4967,-0.2493,-304.44,1125.92,-437.99
720,-3.8717,0.4939,-0.2524,-413.82,94.67,280.76
730,-3.8717,0.4924,-0.2452,-773.19,-311.58,483.83
740,-3.8718,0.5023,-0.2356,-960.69,610.29,-234.86
750,-3.8718,0.5176,-0.2314,304.93,1844.73,-1344.24
760,-3.8718,0.5243,-0.2327,-1741.94,-1624.02,1702.64
770,-3.8718,0.5215,-0.2378,-882.57,-1780.27,1249.51
780,-3.8718,0.5128,-0.2446,-1241.94,1563.48,1296.39
790,-3.8718,0.5045,-0.2527,1648.68,688.48,1780.76
800,-3.8718,0.4962,-0.2593,586.18,-342.77,-1297.42
810,-3.8718,0.4860,-0.2635,-476.32,-1186.58,-391.17
820,-3.8717,0.4819,-0.2615,-1788.82,-1733.46,77.58
830,-3.8718,0.4905,-0.2565,1695.56,-1467.83,-125.55
840,-3.8718,0.5062,-0.2549,-1210.69,-827.21,-734.92
850,-3.8718,0.5150,-0.2505,804.93,-624.02,-1469.30
860,-3.8718,0.5161,-0.2477,1929.93,-61.52,1921.33
870,-3.8718,0.5160,-0.2493,-1929.44,297.85,1921.39
880,-3.8718,0.5183,-0.2490,-1945.07,94.73,-1937.99
890,-3.8718,0.5280,-0.2512,-1648.19,125.98,1421.39
900,-3.8718,0.5354,-0.2548,-413.82,-155.27,1343.20
910,-3.8718,0.5273,-0.2479,539.31,-608.34,-1719.30
920,-3.8718,0.5164,-0.2365,-491.94,266.60,-1469.24
930,-3.8718,0.5188,-0.2324,-1898.19,1735.35,-1750.49
940,-3.8718,0.5254,-0.2388,-1585.69,-1749.02,-1719.24
950,-3.8718,0.5265,-0.2522,-741.94,1438.48,-1219.24
960,-3.8718,0.5297,-0.2660,-601.32,-280.27,-625.55
970,-3.8718,0.5410,-0.2727,-195.07,1954.10,-453.67
980,-3.8718,0.5624,-0.2673,1258.06,1094.79,-1344.30
990,-3.8718,0.5846,-0.2610,-7.57,1782.29,968.20
1000,-3.8718,0.6184,-0.2706,-1163.82,-1405.15,-1219.30
1010,-3.8717,0.6526,-0.3395,-835.69,1360.53,-203.67
1020,-3.8716,0.6793,-0.4354,-460.69,548.10,1608.70
1030,-3.8718,0.7457,-0.4923,-1038.82,266.91,-422.73
1040,-3.8718,0.8564,-0.5399,-538.82,985.78,374.02
1050,-3.8716,0.9751,-0.5859,1633.06,-1107.73,1514.53
1060,-3.8713,1.0701,-0.5864,820.56,1001.89,-126.16
1070,-3.8712,1.1005,-0.5587,976.81,939.58,-110.53
1080,-3.8712,1.0306,-0.5770,867.43,486.51,-922.97
1090,-3.8712,0.8846,-0.6355,-70.07,-1857.42,686.34
1100,-3.8713,0.7288,-0.6670,1242.43,-1342.04,1326.84
1110,-3.8716,0.6212,-0.6343,1289.31,-1373.60,-470.09
1120,-3.8717,0.5873,-0.5637,-476.32,-1186.34,764.34
1130,-3.8719,0.6072,-0.4996,-820.07,-155.15,-329.28
1140,-3.8719,0.6342,-0.4342,1726.81,48.03,780.27
1150,-3.8721,0.6343,-0.3428,1179.93,423.10,-1141.48
1160,-3.8721,0.6117,-0.2399,1195.56,126.22,983.70
1170,-3.8722,0.5845,-0.1656,-1695.07,1298.03,-578.61
1180,-3.8722,0.5552,-0.1372,-1179.44,-1202.03,-937.87
1190,-3.8722,0.5135,-0.1384,-929.44,-1561.46,-328.43
1200,-3.8722,0.4583,-0.1290,1742.43,-1717.77,-500.31
1210,-3.8722,0.4097,-0.0837,-1335.69,-514.77,1734.07
1220,-3.8723,0.3855,-0.0183,445.56,1282.04,-172.06
1230,-3.8723,0.3795,0.0494,1351.81,1656.98,-656.31
1240,-3.8722,0.3849,0.1102,586.18,-1671.14,671.94
1250,-3.8721,0.4236,0.1475,1273.68,-1889.89,343.93
1260,-3.8719,0.5179,0.1497,-1773.19,-1124.21,-1765.38
1270,-3.8717,0.6587,0.1368,-1695.07,-842.77,1187.74
1280,-3.8715,0.8127,0.1429,320.56,1516.91,390.87
1290,-3.8713,0.9503,0.1793,39.31,-1701.54,-171.63
1300,-3.8711,1.0464,0.2345,1648.68,-1045.04,1937.81
1310,-3.8711,1.0806,0.2948,1945.56,-1982.36,-1124.57
1320,-3.8712,1.0618,0.3500,-1679.44,1736.45,438.05
1330,-3.8717,1.0430,0.4032,-85.69,798.89,-61.83
1340,-3.8722,1.0948,0.4741,1508.06,-388.61,-93.02
1350,-3.8727,1.2792,0.5616,148.68,689.64,-874.08
1360,-3.8730,1.5962,0.6411,-257.57,-106.93,1829.16
1370,-3.8732,1.9108,0.6869,320.56,-1934.39,63.72
1380,-3.8732,2.0691,0.6863,586.18,-74.40,673.16
1390,-3.8732,2.0588,0.6564,851.81,-152.22,-1123.72
1400,-3.8732,1.9557,0.6267,-460.69,19.59,-1514.34
1410,-3.8733,1.8390,0.6116,-1663.82,222.53,610.60
1420,-3.8737,1.7688,0.6029,-601.32,-1715.21,-686.34
1430,-3.8739,1.7471,0.5968,-1585.69,1175.29,-1701.97
1440,-3.8741,1.7278,0.5977,-366.94,393.98,-1889.47
1450,-3.8744,1.6797,0.6019,1164.31,503.36,1954.28
1460,-3.8746,1.6088,0.6058,-991.94,1050.11,1844.91
1470,-3.8749,1.5400,0.6025,1929.93,1549.99,-873.84
1480,-3.8750,1.5046,0.5751,1133.06,1127.99,-1358.22
1490,-3.8750,1.5024,0.5145,601.81,1612.30,1219.85
1500,-3.8750,1.4791,0.4486,320.56,1862.30,1922.85
1510,-3.8750,1.3928,0.4103,1336.18,1424.74,1750.85
1520,-3.8439,1.2513,0.4033,-1710.69,518.31,1891.42
1530,-3.8441,1.0637,0.4149,179.93,-372.56,860.11
1540,-3.8445,0.8153,0.4279,164.31,1111.45,875.79
1550,-3.8448,0.5139,0.4427,367.43,-1232.79,1157.04
1560,-3.8452,0.2220,0.4675,1789.31,672.85,1016.48
1570,-3.8457,0.0239,0.4991,429.93,-155.82,-1311.65
1580,-3.8462,-0.0243,0.5131,-929.44,-109.38,-139.71
1590,-3.8466,0.0535,0.4828,898.68,1687.44,-780.27
1600,-3.8468,0.1564,0.4254,-1148.19,1796.94,250.92
1610,-3.8472,0.2029,0.3839,23.68,-1546.57,-1639.83
1620,-3.8474,0.2057,0.3693,1976.81,1140.99,-530.52
1630,-3.8475,0.2217,0.3663,-1663.82,-734.01,-1921.20
1640,-3.8478,0.2524,0.3700,383.06,-1108.95,-764.95
1650,-3.8479,0.2659,0.3535,320.56,-640.14,406.92
1660,-3.8481,0.2852,0.2941,-1960.69,1250.49,-546.20
1670,-3.8483,0.3439,0.2059,508.06,1641.17,-77.58
1680,-3.8483,0.4482,0.0880,23.68,-1639.95,-1609.01
1690,-3.8481,0.5953,-0.0526,1383.06,-733.52,-1671.75
1700,-3.8478,0.7303,-0.1595,211.18,1266.78,1328.00
1710,-3.8473,0.7815,-0.1982,1492.43,-420.47,-1234.74
1720,-3.8466,0.7458,-0.1725,39.31,-1373.47,1343.32
1730,-3.8459,0.6863,-0.0884,-523.19,1923.28,1187.13
1740,-3.8457,0.6663,0.0446,-148.19,688.78,-1500.18
1750,-3.8457,0.7048,0.2115,1289.31,1704.41,1078.19
1760,-3.8461,0.7795,0.3843,-1773.19,-920.53,-421.51
1770,-3.8464,0.8746,0.5352,-210.69,1188.96,1813.23
1780,-3.8468,0.9928,0.6517,-38.82,501.65,454.16
1790,-3.8472,1.1451,0.7562,-913.82,-576.23,-1405.03
1800,-3.8473,1.3000,0.8798,-1413.82,799.07,267.09
1810,-3.8474,1.3546,1.0140,-1585.69,611.88,1345.46
1820,-3.8473,1.2375,1.1307,1398.68,1799.50,517.58
1830,-3.8470,1.0045,1.2150,-1585.69,736.76,-1513.43
1840,-3.8467,0.7784,1.2462,586.18,-482.42,-1747.68
1850,-3.8464,0.6038,1.2225,-351.32,-482.91,-231.99
1860,-3.8461,0.4554,1.1700,1289.31,485.53,1283.63
1870,-3.8457,0.3229,1.1022,-1695.07,1766.48,1986.63
1880,-3.8452,0.2283,1.0292,1336.18,1078.74,1939.64
1890,-3.8446,0.2046,0.9591,1226.81,-265.20,892.58
1900,-3.8440,0.2596,0.8972,-1804.44,-1234.01,1923.71
1910,-3.8746,0.3527,0.8466,1242.43,-1155.76,-795.17
1920,-3.8739,0.4294,0.8035,1148.68,360.05,64.15
1930,-3.8734,0.4880,0.7767,-1023.19,-1155.46,-592.22
1940,-3.8728,0.5187,0.7692,-1523.19,-577.21,501.46
1950,-3.8724,0.5038,0.7778,-1601.32,-1545.90,1454.59
1960,-3.8723,0.4540,0.7913,492.43,-436.52,-389.16
1970,-3.8723,0.3892,0.8005,-1882.57,1282.10,-1342.22
1980,-3.8726,0.3464,0.8148,1820.56,-1530.52,-514.10
1990,-3.8728,0.3300,0.8414,351.81,297.55,767.21
2000,-3.8732,0.3190,0.8729,-1757.57,-296.26,1642.21
2010,-3.8734,0.3055,0.8967,836.18,-265.01,64.15
2020,-3.8737,0.2910,0.9052,-882.57,-1218.20,907.96
2030,-3.8738,0.2826,0.8922,1258.06,-140.08,970.46
2040,-3.8738,0.2847,0.8575,179.93,-1796.33,501.71
2050,-3.8738,0.2981,0.8043,445.56,1766.17,-1263.98
2060,-3.8737,0.3177,0.7483,-1835.69,-1046.33,-1326.60
2070,-3.8735,0.3307,0.7046,679.93,-218.14,-217.35
2080,-3.8733,0.3311,0.6753,-1663.82,-1811.89,1407.59
2090,-3.8732,0.3176,0.6543,-1616.94,-1561.89,-1889.34
2100,-3.8730,0.2947,0.6343,664.31,-249.39,298.10
2110,-3.8730,0.2748,0.6188,1726.81,1188.05,110.60
2120,-3.8732,0.2651,0.6152,-820.07,-796.39,-1030.09
2130,-3.8732,0.2648,0.6217,1945.56,-1249.51,-1936.34
2140,-3.8732,0.2755,0.6300,1898.68,-421.39,1516.78
2150,-3.8732,0.2986,0.6334,-726.32,641.11,751.22
2160,-3.8733,0.3280,0.6298,-1773.19,1078.67,-780.03
2170,-3.8733,0.3583,0.6162,1992.43,609.99,1688.72
2180,-3.8733,0.3982,0.5862,1867.43,-1124.33,1969.91
2190,-3.8732,0.4648,0.5298,-1023.19,-968.02,-1264.53
2200,-3.8728,0.5562,0.4551,-491.94,-186.65,797.85
2210,-3.8726,0.6431,0.3958,-804.44,-1748.96,-46.02
2220,-3.8723,0.6962,0.3766,-1679.44,-1342.53,-1811.77
2230,-3.8723,0.7070,0.3807,1117.43,204.47,1297.61
2240,-3.8726,0.6913,0.3632,-1491.94,735.72,-296.14
2250,-3.8727,0.6666,0.2937,492.43,-1514.28,-1343.08
2260,-3.8727,0.6311,0.1940,1336.18,1595.03,1141.17
2270,-3.8727,0.5848,0.1021,789.31,829.35,1531.62
2280,-3.8727,0.5447,0.0258,-1132.57,1063.60,1390.81
2290,-3.8727,0.5204,-0.0540,1726.81,-702.09,406.25
2300,-3.8727,0.5115,-0.1451,-1382.57,1094.73,390.50
2310,-3.8728,0.5125,-0.2080,1476.81,1422.85,-31.56
2320,-3.8729,0.5173,-0.2069,1601.81,1375.98,1093.32
2330,-3.8735,0.5385,-0.1547,-1773.19,1516.60,-78.55
2340,-3.8743,0.5610,-0.0911,929.93,204.16,-1344.06
2350,-3.8440,0.5221,-0.0341,-179.44,344.79,-953.31
2360,-3.8450,0.4070,0.0132,-1163.82,-358.40,249.88
2370,-3.8459,0.2812,0.0204,101.81,1688.29,-812.50
2380,-3.8464,0.2539,-0.0232,8.06,-1390.08,-1812.50
2390,-3.8466,0.4100,-0.1045,508.06,1031.74,-843.81
2400,-3.8464,0.7302,-0.1859,492.43,-1374.21,-703.37
2410,-3.8466,1.1017,-0.1946,1476.81,204.53,-1875.37
2420,-3.8473,1.3722,-0.0684,1023.68,-904.11,1999.57
2430,-3.8484,1.4587,0.1671,-351.32,-747.38,-1297.06
2440,-3.8492,1.4034,0.3898,-1273.19,1393.43,515.93
2450,-3.8497,1.3181,0.5194,-351.32,1893.31,266.36
2460,-3.8499,1.2998,0.5641,726.81,-1513.06,1688.48
2470,-3.8496,1.3817,0.5607,-1616.94,205.63,1376.10
2480,-3.8492,1.5807,0.5491,867.43,-231.69,47.91
2490,-3.8491,1.8961,0.5554,-1663.82,-1715.70,-530.21
2500,-3.8490,2.2432,0.5944,-1288.82,-902.59,-123.96
2510,-3.8488,2.5096,0.6842,-866.94,82.46,485.53
2520,-3.8486,2.6251,0.8324,1242.43,-416.99,-1561.22
2530,-3.8485,2.5975,1.0284,23.68,-1448.00,-1342.16
2540,-3.8484,2.5203,1.2039,492.43,-354.31,1220.70
2550,-3.8483,2.5073,1.2826,-1398.19,-1901.37,-1950.81
2560,-3.8480,2.5791,1.2634,945.56,176.76,-513.12
2570,-3.8477,2.6251,1.1929,-1866.94,1723.75,-341.31
2580,-3.8473,2.5645,1.0961,23.68,692.63,-1732.06
2590,-3.8470,2.4409,0.9580,258.06,301.88,1392.76
2600,-3.8469,2.2920,0.7930,445.56,-1370.24,1486.21
2610,-3.8469,2.0829,0.6665,1383.06,1504.46,-904.72
2620,-3.8469,1.8273,0.6191,-1382.57,1316.53,1329.41
2630,-3.8470,1.5912,0.6239,1898.68,-746.46,641.78
2640,-3.8473,1.3937,0.6464,-320.07,-137.57,-139.47
2650,-3.8473,1.2197,0.6649,-1601.32,-1262.94,1204.35
2660,-3.8473,1.0963,0.6532,133.06,1111.76,688.78
2670,-3.8473,1.0485,0.5967,336.18,-388.49,1516.85
2680,-3.8473,1.0355,0.5255,-1788.82,377.01,-1514.47
2690,-3.8473,1.0010,0.4744,554.93,-732.36,-1342.77
2700,-3.8473,0.9468,0.4412,133.06,720.70,-1155.33
2710,-3.8473,0.8914,0.4103,1195.56,470.58,-61.65
2720,-3.8472,0.7958,0.3840,-1898.19,517.33,938.29
2730,-3.8472,0.6215,0.3805,1867.43,1157.78,703.86
2740,-3.8473,0.4003,0.4010,-445.07,704.28,-186.77
2750,-3.8472,0.1906,0.4189,-757.57,-671.14,156.98
2760,-3.8472,0.0227,0.4122,398.68,1625.37,-1483.58
2770,-3.8470,-0.1023,0.3817,-1085.69,765.62,-999.21
2780,-3.8468,-0.2048,0.3275,-1085.69,874.76,735.11
2790,-3.8467,-0.2844,0.2743,1789.31,1937.07,-1936.89
2800,-3.8466,-0.3514,0.2386,-398.19,-875.61,-218.26
2810,-3.8463,-0.4373,0.2153,-976.32,-1438.23,-1155.82
2820,-3.8461,-0.5444,0.2180,39.31,-422.73,1828.49
2830,-3.8459,-0.6473,0.2476,-1679.44,-79.22,-515.26
2840,-3.8458,-0.7250,0.2788,1148.68,-298.16,-405.82
2850,-3.8457,-0.7924,0.2981,-788.82,-298.34,1500.49
2860,-3.8457,-0.8724,0.3094,-1413.82,-1829.71,1922.42
2870,-3.8457,-0.9631,0.3049,336.18,-376.71,-1296.33
2880,-3.8456,-1.0425,0.2784,726.81,-955.02,563.05
2890,-3.8456,-1.0973,0.2357,-1429.44,-345.83,-93.26
2900,-3.8455,-1.1271,0.1912,-445.07,-1814.70,-327.70
2910,-3.8453,-1.1261,0.1454,-257.57,482.12,1922.24
2920,-3.8453,-1.0892,0.0917,-132.57,-1377.26,-1749.76
2930,-3.8453,-1.0260,0.0258,586.18,-252.14,-1890.50
2940,-3.8453,-0.9376,-0.0560,679.93,-689.51,-1484.38
2950,-3.8453,-0.8113,-0.1549,-7.57,841.86,-31.37
2960,-3.8452,-0.6516,-0.2578,164.31,185.91,-609.68
2970,-3.8450,-0.4675,-0.3519,601.81,-985.66,530.70
2980,-3.8448,-0.2502,-0.4379,164.31,-1032.17,-531.98
2990,-3.8445,-0.0221,-0.5050,-23.19,-31.80,983.46
3000,-3.8441,0.2037,-0.5486,1179.93,-625.06,45.84
3010,-3.8750,0.4531,-0.5619,-1913.82,1781.62,827.03
3020,-3.8745,0.7109,-0.5266,-1991.94,78.98,764.53
3030,-3.8740,0.9294,-0.4491,-991.94,595.09,1795.84
3040,-3.8735,1.1437,-0.3701,-1023.19,-1482.60,374.08
3050,-3.8732,1.3923,-0.3229,-1601.32,627.20,780.52
3060,-3.8729,1.6436,-0.2936,-1773.19,-1325.44,-516.30
3070,-3.8726,1.9365,-0.2302,-1616.94,-1574.95,1140.01
3080,-3.8722,2.3409,-0.1105,-116.94,-1465.03,-1609.86
3090,-3.8716,2.7654,0.0305,-351.32,1863.89,-1000.24
3100,-3.8707,3.0237,0.1615,1976.81,-88.38,1343.75
3110,-3.8700,3.0835,0.2701,-960.69,677.73,-999.69
3120,-3.8694,3.0526,0.3752,-1304.44,-1415.89,1719.24
3130,-3.8691,2.9924,0.4924,-1257.57,37.17,-1124.27
3140,-3.8691,2.8665,0.5925,-960.69,-962.95,-1405.33
3150,-3.8694,2.6348,0.6537,-1085.69,-150.70,-592.65
3160,-3.8696,2.3213,0.6860,1258.06,-323.00,469.97
3170,-3.8700,1.9769,0.6982,1133.06,-182.98,313.78
3180,-3.8704,1.6422,0.6882,1054.93,1378.85,1063.84
3190,-3.8707,1.3420,0.6588,-1788.82,96.92,-1217.41
3200,-3.8710,1.0863,0.6196,-210.69,330.69,251.28
3210,-3.8713,0.8920,0.5829,-945.07,-685.42,1173.03
3220,-3.8717,0.7711,0.5529,-1820.07,-1388.92,1813.60
3230,-3.8721,0.7164,0.5337,-1288.82,-1232.91,-936.46
3240,-3.8723,0.7091,0.5319,-288.82,313.84,-1873.96
3250,-3.8726,0.7256,0.5464,-1226.32,79.47,-780.21
3260,-3.8727,0.7382,0.5634,883.06,1938.90,1829.16
3270,-3.8728,0.7258,0.5714,-1507.57,110.78,672.97
3280,-3.8730,0.6860,0.5651,914.31,1142.03,-1248.90
3290,-3.8733,0.6310,0.5443,-179.44,329.41,-123.90
3300,-3.8734,0.5751,0.5143,773.68,1673.10,266.66
3310,-3.8738,0.5243,0.4779,1617.43,1829.22,-14.65
3320,-3.8740,0.4823,0.4369,-882.57,1172.85,-827.21
3330,-3.8743,0.4561,0.3916,1742.43,-77.21,-1624.21
3340,-3.8745,0.4529,0.3419,-1616.94,-1874.15,-1686.77
3350,-3.8748,0.4738,0.2808,1976.81,-233.52,-77.51
3360,-3.8749,0.5171,0.2039,648.68,-61.58,-249.51
3370,-3.8749,0.5756,0.1237,-1804.44,-1905.27,1219.12
3380,-3.8750,0.6340,0.0555,1679.93,-170.78,-1140.44
3390,-3.8439,0.6677,0.0115,1164.31,-889.40,-296.81
3400,-3.8440,0.6487,-0.0004,1476.81,1470.03,-562.50
3410,-3.8441,0.5723,0.0118,-960.69,-45.65,1906.19
3420,-3.8444,0.4578,0.0287,1258.06,1516.72,-953.12
3430,-3.8446,0.3246,0.0363,-1398.19,-327.27,-296.88
3440,-3.8447,0.1774,0.0330,1554.93,641.24,1125.06
3450,-3.8450,0.0303,0.0245,-1288.82,219.06,-718.69
3460,-3.8451,-0.0853,0.0129,-116.94,-859.38,1296.88
3470,-3.8453,-0.1525,-0.0065,1086.18,1671.69,-1171.88
3480,-3.8455,-0.1533,-0.0754,492.43,-812.81,171.81
3490,-3.8456,-0.0708,-0.2384,383.06,-1640.93,1327.94
3500,-3.8455,0.0330,-0.4393,-1054.44,1499.82,1905.76
3510,-3.8452,0.0961,-0.5862,226.81,-234.31,-1438.42
3520,-3.8450,0.1270,-0.6630,304.93,968.93,1795.72
3530,-3.8448,0.1251,-0.6912,258.06,-859.13,311.16
3540,-3.8450,0.0692,-0.7098,23.68,-468.51,-1907.65
3550,-3.8451,-0.0198,-0.7766,867.43,1140.75,29.85
3560,-3.8456,-0.0315,-0.9133,1476.81,609.31,-1298.40
3570,-3.8464,0.1418,-1.1263,-23.19,-890.75,-751.83
3580,-3.8477,0.5325,-1.4004,-1835.69,-171.63,28.99
3590,-3.8494,1.1162,-1.7168,164.31,751.04,-174.62
3600,-3.8508,1.7983,-2.0052,-1116.94,252.14,1887.27
3610,-3.8521,2.4333,-2.0526,-1804.44,-668.40,1042.91
3620,-3.8530,2.9191,-1.7468,-523.19,1270.32,730.35
3630,-3.8541,3.2836,-1.2224,1648.68,411.93,-50.29
3640,-3.8553,3.4231,-0.5997,304.93,-462.34,-1846.19
3650,-3.8566,3.1615,0.0098,-1835.69,-758.97,-1594.97
3660,-3.8574,2.4667,0.2760,679.93,1256.16,531.25
3670,-3.8579,1.6722,0.2455,-257.57,-667.11,266.11
3680,-3.8572,1.1381,0.2866,-1945.07,-574.89,1047.30
3690,-3.8558,0.8287,0.2960,1679.93,689.70,1938.05
3700,-3.8551,0.6451,0.0366,-1913.82,1892.21,-1249.45
3710,-3.8545,0.4678,-0.3788,-1413.82,688.72,-1281.19
3720,-3.8535,0.3344,-0.7098,-116.94,-483.52,-1844.54
3730,-3.8523,0.3165,-0.8251,-1195.07,1141.24,811.10
3740,-3.8513,0.3467,-0.6646,523.68,-1608.76,-267.27
3750,-3.8505,0.3759,-0.3187,383.06,-1061.83,279.91
3760,-3.8502,0.3807,0.0332,117.43,-796.14,1952.45
3770,-3.8505,0.3738,0.2814,742.43,250.73,1890.69
3780,-3.8511,0.3881,0.4158,-148.19,16.30,94.30
3790,-3.8519,0.4509,0.4967,1679.93,1219.48,157.04
3800,-3.8528,0.5386,0.5593,1726.81,-421.02,782.17
3810,-3.8535,0.6006,0.6033,945.56,-405.21,-592.71
3820,-3.8539,0.6100,0.6204,883.06,1219.91,-233.22
3830,-3.8539,0.5750,0.5829,-1913.82,-592.59,-436.34
3840,-3.8535,0.5352,0.4623,1601.81,-1389.53,-842.65
3850,-3.8528,0.5363,0.2826,508.06,-827.09,672.73
3860,-3.8519,0.6392,0.0883,648.68,172.91,922.42
3870,-3.8511,0.8336,-0.0854,1820.56,-701.90,-343.63
3880,-3.8501,0.9873,-0.2134,-1288.82,1064.09,781.07
3890,-3.8494,1.0260,-0.3123,-1616.94,689.39,-1281.68
3900,-3.8486,1.0171,-0.4154,-663.82,33.20,1515.01
3910,-3.8480,0.9788,-0.5502,-1804.44,-1169.92,-1235.23
3920,-3.8474,0.8541,-0.7087,1289.31,1580.02,-344.85
3930,-3.8467,0.6343,-0.8468,1336.18,1282.90,-1767.03
3940,-3.8459,0.3491,-0.9331,1195.56,-389.40,-345.46
3950,-3.8451,0.0558,-0.9739,695.56,563.17,498.17
3960,-3.8445,-0.1635,-0.9823,-851.32,-656.19,-1345.70
3970,-3.8750,-0.2568,-0.9600,-913.82,-1719.12,1263.67
3980,-3.8743,-0.2517,-0.9437,-866.94,1140.08,1451.23
3990,-3.8737,-0.2245,-0.9608,-210.69,-781.80,-517.52
4000,-3.8730,-0.2153,-0.9801,-726.32,1030.76,-408.14
4010,-3.8724,-0.2029,-0.9766,445.56,-1437.93,1263.67
4020,-3.8722,-0.1611,-0.9631,-1960.69,-984.80,-986.33
4030,-3.8721,-0.1091,-0.9668,-616.94,734.01,1482.48
4040,-3.8721,-0.0752,-0.9834,-1960.69,265.38,1404.36
4050,-3.8721,-0.0864,-0.9988,-1616.94,-1859.56,1154.30
4060,-3.8721,-0.1494,-1.0270,945.56,171.69,1482.42
4070,-3.8721,-0.2235,-1.0853,883.06,562.19,-142.64
4080,-3.8718,-0.2697,-1.1487,-601.32,1093.26,716.61
4090,-3.8718,-0.2941,-1.1605,1492.43,983.83,-142.88
4100,-3.8718,-0.3317,-1.0956,-1632.57,-531.86,341.43
4110,-3.8722,-0.4043,-0.9861,1554.93,-219.42,1841.55
4120,-3.8726,-0.5250,-0.8939,258.06,1796.08,1123.05
4130,-3.8728,-0.6786,-0.8546,804.93,1592.71,216.98
4140,-3.8729,-0.8230,-0.8561,1148.68,-1376.34,-1501.71
4150,-3.8728,-0.9220,-0.8711,-1335.69,-1564.15,-782.96
4160,-3.8726,-0.9587,-0.8976,1992.43,513.79,-892.33
4170,-3.8723,-0.9353,-0.9293,1289.31,1123.11,-1423.65
4180,-3.8722,-0.8770,-0.9515,289.31,1060.67,-95.58
4190,-3.8719,-0.8101,-0.9822,-241.94,-1783.02,326.23
4200,-3.8718,-0.7201,-1.0422,320.56,-1704.71,-1173.83
4210,-3.8715,-0.6003,-1.1024,-163.82,-1392.09,1341.67
4220,-3.8711,-0.4863,-1.1370,-835.69,-1094.97,1732.18
4230,-3.8707,-0.3802,-1.1724,1758.06,-1516.60,857.12
4240,-3.8705,-0.2374,-1.2473,-663.82,1952.33,-580.44
4250,-3.8701,-0.0555,-1.3622,1617.43,358.89,-330.57
4260,-3.8696,0.1212,-1.4669,898.68,1656.13,1122.31
4270,-3.8693,0.2748,-1.5247,-476.32,234.56,1997.13
4280,-3.8690,0.4041,-1.5320,-820.07,844.24,-1096.74
4290,-3.8689,0.5056,-1.5050,-273.19,-93.02,1231.32
4300,-3.8690,0.5850,-1.4886,726.81,-639.65,-518.62
4310,-3.8690,0.6577,-1.4879,-1116.94,1454.22,278.32
4320,-3.8693,0.7509,-1.4523,195.56,1548.16,-1534.18
4330,-3.8695,0.8871,-1.3597,117.43,-1889.16,512.76
4340,-3.8700,1.1084,-1.2441,1554.93,1954.83,-1033.94
4350,-3.8705,1.4728,-1.1487,1883.06,752.14,-533.69
4360,-3.8708,1.9686,-1.0773,523.68,971.62,1107.12
4370,-3.8712,2.4932,-0.9955,-7.57,-1886.84,-252.14
4380,-3.8713,2.9310,-0.8394,-866.94,582.95,1232.42
4390,-3.8717,3.2178,-0.5674,-820.07,568.18,1967.10
4400,-3.8723,3.3383,-0.2118,-116.94,-618.77,-1954.28
4410,-3.8730,3.3353,0.1622,-695.07,897.09,374.57
4420,-3.8739,3.3126,0.5157,-1070.07,772.09,-1280.94
4430,-3.8745,3.2933,0.8298,23.68,-1977.91,188.48
4440,-3.8439,3.1947,1.0852,1554.93,-1774.84,454.71
4450,-3.8445,2.9803,1.2799,929.93,-1087.52,-29.17
4460,-3.8447,2.6919,1.4495,1492.43,-166.08,486.82
4470,-3.8450,2.3871,1.6238,570.56,1536.50,-1075.32
4480,-3.8448,2.1034,1.7668,1554.93,-151.61,1581.24
4490,-3.8445,1.8690,1.8273,1242.43,-1839.66,1269.04
4500,-3.8440,1.7118,1.7910,-757.57,1894.23,1862.92
4510,-3.8748,1.6293,1.6683,-882.57,1253.30,-1309.02
4520,-3.8743,1.5698,1.4968,554.93,1550.05,1065.73
4530,-3.8740,1.4829,1.3148,945.56,-403.20,-1465.88
4540,-3.8739,1.3744,1.1472,1820.56,299.74,518.19
4550,-3.8741,1.2533,1.0319,-70.07,-1153.63,-513.43
4560,-3.8744,1.0955,0.9741,429.93,80.57,-1982.36
4570,-3.8748,0.9078,0.9358,226.81,689.64,345.64
4580,-3.8440,0.7391,0.8812,211.18,-216.98,1079.90
4590,-3.8444,0.6168,0.7834,-1382.57,798.28,-1826.42
4600,-3.8445,0.5275,0.6364,-1038.82,282.41,1439.03
4610,-3.8446,0.4436,0.4644,-476.32,1454.10,-873.78
4620,-3.8447,0.3442,0.2946,789.31,-561.65,-1155.40
4630,-3.8450,0.2229,0.1348,70.56,1703.80,-327.58
4640,-3.8452,0.0723,-0.0002,539.31,1250.43,-1249.76
4650,-3.8455,-0.1122,-0.0859,1258.06,-31.13,31.19
4660,-3.8459,-0.3090,-0.1128,1648.68,1015.38,-797.06
4670,-3.8463,-0.5001,-0.0886,461.18,1577.51,-750.24
4680,-3.8466,-0.6625,-0.0426,-7.57,670.84,-906.43
4690,-3.8467,-0.7606,-0.0155,-788.82,-1438.84,-875.12
4700,-3.8467,-0.8064,-0.0195,-1351.32,-1970.28,-390.69
4710,-3.8466,-0.8315,-0.0387,789.31,1514.04,-1265.69
4720,-3.8464,-0.8658,-0.0624,1570.56,-939.15,1781.13
4730,-3.8464,-0.9255,-0.0668,1179.93,29.54,-625.12
4740,-3.8464,-1.0051,-0.0417,1539.31,-533.08,1406.07
4750,-3.8467,-1.1035,-0.0074,-648.19,-1330.14,-1562.62
4760,-3.8470,-1.2057,0.0078,-1241.94,-939.70,-0.06
4770,-3.8473,-1.2312,-0.0155,1679.93,1013.24,15.62
4780,-3.8477,-1.0704,-0.1093,-1585.69,-1971.19,-1906.31
4790,-3.8477,-0.7236,-0.3003,-1007.57,-1970.89,1093.51
4800,-3.8473,-0.2792,-0.4993,-616.94,1576.66,-1500.61
4810,-3.8462,0.2733,-0.6132,273.68,108.83,-1407.23
4820,-3.8440,1.0203,-0.7062,-1007.57,1516.11,-1704.35
4830,-3.8717,1.8953,-0.8000,-1398.19,1611.33,936.10
4840,-3.8673,2.5778,-0.7274,-1398.19,1597.41,1014.04
4850,-3.8632,2.8112,-0.3978,1961.18,-1104.37,607.91
4860,-3.8604,2.6196,0.0206,-163.82,1083.56,-1422.67
4870,-3.8595,2.1493,0.2834,-679.44,-1354.31,-15.62
4880,-3.8595,1.5862,0.3397,-882.57,285.40,-15.08
4890,-3.8595,1.0851,0.3262,-960.69,-512.57,-15.01
4900,-3.8601,0.7170,0.3607,-1101.32,1752.08,-1843.14
4910,-3.8615,0.5048,0.4565,-210.69,-1826.78,1828.80
4920,-3.8635,0.4438,0.6010,617.43,-1561.52,-592.90
4930,-3.8660,0.5050,0.7920,820.56,922.73,-764.47
4940,-3.8683,0.6542,0.9819,648.68,1375.98,1064.03
4950,-3.8704,0.8464,1.1003,-257.57,1688.72,-201.23
4960,-3.8718,1.0211,1.1189,351.81,845.40,720.89
4970,-3.8730,1.1180,1.0563,-1288.82,-779.30,408.39
4980,-3.8740,1.1160,0.9387,-882.57,-794.74,127.01
4990,-3.8749,1.0411,0.7946,-1148.19,158.39,1361.21
5000,-3.8444,0.9175,0.6542,1273.68,1705.14,907.78
5010,-3.8451,0.7446,0.5238,1445.56,-263.85,-1139.40
5020,-3.8456,0.5352,0.3850,-679.44,-951.72,1594.73
5030,-3.8459,0.3149,0.2281,508.06,1282.29,-1624.27
5040,-3.8462,0.0898,0.0778,320.56,1203.74,-93.32
5050,-3.8463,-0.1558,-0.0204,-491.94,1953.25,-781.13
5060,-3.8464,-0.4221,-0.0428,70.56,1405.94,765.56
5070,-3.8468,-0.6948,-0.0103,1976.81,-1469.60,-1187.62
5080,-3.8472,-0.9443,0.0706,-929.44,-1298.28,1031.19
5090,-3.8477,-1.1449,0.1851,-866.94,1044.98,1000.12
5100,-3.8481,-1.2816,0.3020,1461.18,-299.13,1609.68
5110,-3.8485,-1.3397,0.3970,-38.82,-1330.69,1250.55
5120,-3.8488,-1.3170,0.4584,523.68,-1174.50,1047.61
5130,-3.8489,-1.2432,0.4957,-570.07,-1315.12,391.48
5140,-3.8490,-1.1750,0.4889,883.06,-533.69,-1702.21
5150,-3.8490,-1.1237,0.4009,1601.81,-1408.57,1954.04
5160,-3.8489,-1.0475,0.2346,179.93,-674.07,969.48
5170,-3.8486,-0.9305,0.0654,1929.93,-1955.20,1156.68
5180,-3.8484,-0.8018,-0.0188,898.68,388.79,-765.50
5190,-3.8481,-0.6862,-0.0094,1383.06,1607.79,1437.44
5200,-3.8481,-0.5928,0.0406,179.93,-1188.84,1468.69
5210,-3.8483,-0.5175,0.0809,133.06,1217.59,437.56
5220,-3.8485,-0.4349,0.0106,1773.68,-1626.04,1937.62
5230,-3.8486,-0.2853,-0.2499,336.18,1374.15,-921.88
5240,-3.8485,-0.0580,-0.5846,-507.57,30.64,-984.86
5250,-3.8481,0.2079,-0.8571,586.18,1187.38,1655.09
5260,-3.8477,0.5372,-1.0829,-1382.57,-1702.76,1045.17
5270,-3.8472,0.9343,-1.2346,773.68,1391.66,575.99
5280,-3.8468,1.2864,-1.2369,-398.19,1970.52,-361.82
5290,-3.8462,1.4946,-1.1547,664.31,1674.38,-1018.07
5300,-3.8453,1.5555,-1.1166,-679.44,205.99,-111.63
5310,-3.8441,1.5231,-1.1545,-882.57,1081.12,-1689.70
5320,-3.8741,1.4849,-1.2679,-1038.82,221.68,1638.37
5330,-3.8733,1.5511,-1.4183,-1929.44,1705.99,-1705.63
5340,-3.8729,1.6591,-1.4958,-1445.07,-1543.88,1184.69
5350,-3.8732,1.7107,-1.5427,367.43,534.48,-1377.93
5360,-3.8738,1.9967,-1.6682,-1023.19,-1465.45,-1690.55
5370,-3.8748,2.7864,-1.7845,-413.82,-1527.40,1184.20
5380,-3.8446,3.6925,-1.7804,664.31,-416.44,-1800.42
5390,-3.8450,3.9999,-1.6851,648.68,116.58,-1472.23
5400,-3.8444,3.9999,-1.5366,-7.57,320.25,-940.80
5410,-3.8744,3.9999,-1.3494,-7.57,-679.75,90.70
5420,-3.8733,3.9834,-1.1439,-7.57,-711.00,1700.44
5430,-3.8724,3.9738,-0.8912,1883.06,1585.88,1153.99
5440,-3.8722,3.9679,-0.5686,648.68,1929.63,-1720.52
5450,-3.8724,3.7278,-0.2472,-101.32,-773.56,-16.78
5460,-3.8728,3.0791,-0.0399,1164.31,366.64,-219.24
5470,-3.8730,2.2377,0.0186,-1866.94,-1103.39,484.25
5480,-3.8734,1.5278,0.0021,-1570.07,-1620.67,-1765.62
5490,-3.8738,1.0906,-0.0051,-429.44,268.55,-1203.12
5500,-3.8741,0.8770,0.0238,-398.19,-654.17,-1937.56
5510,-3.8745,0.7836,0.0776,258.06,-951.42,1375.00
5520,-3.8749,0.7476,0.1364,304.93,1939.03,1797.00
5530,-3.8440,0.7255,0.1892,-304.44,1454.53,-140.38
5540,-3.8442,0.6821,0.2272,867.43,220.15,-46.51
5550,-3.8444,0.6200,0.2427,-679.44,1079.41,1906.68
5560,-3.8445,0.5704,0.2449,-632.57,-936.34,16.05
5570,-3.8448,0.5477,0.2451,1023.68,-655.15,-15.20
5580,-3.8451,0.5437,0.2379,-1882.57,-623.96,-999.57
5590,-3.8453,0.5497,0.2164,1601.81,-1545.84,-93.32
5600,-3.8455,0.5547,0.1840,-1632.57,-295.84,-1249.63
5610,-3.8456,0.5411,0.1519,-991.94,-452.09,-1734.07
5620,-3.8457,0.5024,0.1301,1273.68,-561.46,-1937.26
5630,-3.8458,0.4443,0.1154,320.56,657.23,-1687.26
5640,-3.8459,0.3741,0.0975,883.06,-1233.52,-734.19
5650,-3.8459,0.3014,0.0692,-101.32,485.05,1234.56
5660,-3.8459,0.2368,0.0198,-1413.82,859.92,328.25
5670,-3.8459,0.1982,-0.0573,-1679.44,-1468.32,1171.88
5680,-3.8458,0.1914,-0.1404,1383.06,672.24,312.38
5690,-3.8457,0.1953,-0.1982,508.06,-1968.38,577.82
5700,-3.8456,0.1899,-0.2208,1008.06,-1374.63,530.82
5710,-3.8456,0.1707,-0.2216,320.56,-265.26,-344.24
5720,-3.8455,0.1388,-0.2180,1851.81,-359.07,1952.64
5730,-3.8455,0.0989,-0.2219,1773.68,93.99,-547.30
5740,-3.8453,0.0640,-0.2426,664.31,-406.07,858.89
5750,-3.8453,0.0469,-0.2858,195.56,953.25,-0.49
5760,-3.8451,0.0486,-0.3519,-1991.94,-578.06,1718.14
5770,-3.8448,0.0634,-0.4449,-1773.19,-1046.81,1874.27
5780,-3.8445,0.0800,-0.5570,117.43,-953.00,702.21
5790,-3.8441,0.0848,-0.6499,-1757.57,703.25,639.53
5800,-3.8439,0.0731,-0.6926,-1132.57,812.62,1451.84
5810,-3.8750,0.0537,-0.7078,1367.43,-656.13,279.85
5820,-3.8439,0.0436,-0.7400,-1116.94,1406.31,-845.15
5830,-3.8439,0.0503,-0.7991,1586.18,1281.31,-1970.21
5840,-3.8439,0.0721,-0.8733,-1554.44,1718.81,-1954.71
5850,-3.8439,0.1067,-0.9650,1242.43,218.87,-1579.83
5860,-3.8439,0.1396,-1.0811,1664.31,484.56,-126.89
5870,-3.8750,0.1538,-1.2052,1883.06,1625.24,-1236.51
5880,-3.8749,0.1720,-1.3154,-304.44,1734.62,888.24
5890,-3.8750,0.2424,-1.4202,-1976.32,-374.69,-705.75
5900,-3.8439,0.3743,-1.5511,-960.69,-1780.82,153.44
5910,-3.8442,0.5242,-1.7012,-85.69,1453.80,1168.82
5920,-3.8446,0.6375,-1.8383,-898.19,-1749.02,-1362.73
5930,-3.8448,0.7100,-1.9431,1601.81,704.35,-1987.98
5940,-3.8452,0.7964,-1.9948,-1116.94,-717.41,-488.22
5950,-3.8456,0.9376,-2.0059,1945.56,673.40,355.47
5960,-3.8461,1.1383,-2.0306,23.68,-748.17,527.28
5970,-3.8464,1.3956,-2.0876,1711.18,80.32,-628.97
5980,-3.8463,1.6759,-2.1254,-1351.32,783.94,933.41
5990,-3.8461,1.9285,-2.0939,-1476.32,-43.64,-972.96
6000,-3.8447,2.5061,-1.6375,-85.69,-417.36,230.77
6010,-3.8442,2.5876,-1.5011,789.31,-1588.87,168.64
6020,-3.8439,2.5397,-1.3993,-773.19,-135.62,-1768.62
6030,-3.8750,2.3884,-1.3018,1086.18,895.57,-1002.75
6040,-3.8439,2.2191,-1.2061,1726.81,1379.64,653.69
6050,-3.8442,2.0970,-1.1384,54.93,1629.33,-1158.63
6060,-3.8444,2.0240,-1.1344,429.93,-1714.66,1794.62
6070,-3.8444,1.9779,-1.1888,-913.82,-1199.22,-1908.51
6080,-3.8444,1.9458,-1.2494,1179.93,-168.03,-283.63
6090,-3.8444,1.9263,-1.2537,1070.56,81.91,466.31
6100,-3.8447,1.9332,-1.1984,-1429.44,-465.03,-1674.38
6110,-3.8451,1.9618,-1.1464,-538.82,-1386.90,325.74
6120,-3.8457,1.9644,-1.1237,-882.57,1269.41,-127.26
6130,-3.8462,1.8939,-1.0841,-554.44,175.66,294.68
6140,-3.8469,1.7599,-0.9966,-1570.07,1238.04,888.49
6150,-3.8478,1.5945,-0.8763,1273.68,440.92,-1142.58
6160,-3.8485,1.3986,-0.7468,101.81,-168.76,-1954.90
6170,-3.8491,1.1772,-0.6318,-976.32,408.94,1451.66
6180,-3.8496,0.9600,-0.5513,-1304.44,-872.74,-1548.16
6190,-3.8499,0.7693,-0.5162,-1116.94,1439.33,-1469.85
6200,-3.8499,0.6047,-0.5280,-1523.19,1923.34,1717.71
6210,-3.8496,0.4587,-0.5933,1414.31,423.03,45.84
6220,-3.8492,0.3203,-0.7069,-1273.19,63.35,1795.72
6230,-3.8486,0.1666,-0.8300,1008.06,1516.24,1779.85
6240,-3.8479,-0.0117,-0.9202,1336.18,1765.93,1842.10
6250,-3.8472,-0.1968,-0.9562,-1491.94,-1765.69,-1236.21
6260,-3.8464,-0.3634,-0.9366,-1179.44,1624.57,966.86
6270,-3.8459,-0.5012,-0.8755,1492.43,124.27,-1704.96
6280,-3.8456,-0.6218,-0.7932,-148.19,-47.91,-939.27
6290,-3.8452,-0.7217,-0.7020,414.31,-1516.85,967.16
6300,-3.8450,-0.7963,-0.6317,-366.94,-1845.21,1967.35
6310,-3.8447,-0.8456,-0.6000,-1913.82,-845.34,-1235.66
6320,-3.8444,-0.8696,-0.5780,-226.32,-782.96,92.53
6330,-3.8441,-0.8827,-0.5242,695.56,-1970.46,1811.34
6340,-3.8439,-0.9037,-0.4341,-976.32,920.10,748.96
6350,-3.8439,-0.9388,-0.3408,336.18,451.35,-1344.60
6360,-3.8439,-0.9685,-0.2704,-163.82,388.73,1421.20
6370,-3.8440,-0.9897,-0.2244,39.31,1404.36,-672.42
6380,-3.8441,-1.0319,-0.1927,1320.56,-705.08,-578.61
6390,-3.8444,-1.0922,-0.1768,-70.07,-658.33,-547.30
6400,-3.8447,-1.1267,-0.1849,211.18,1388.49,499.63
6410,-3.8455,-1.1228,-0.2295,-210.69,341.49,827.76
6420,-3.8464,-1.0914,-0.3097,289.31,-1361.57,249.51
6430,-3.8478,-1.0258,-0.3801,304.93,372.86,1874.39
6440,-3.8494,-0.9370,-0.3810,711.18,-642.64,1296.08
6450,-3.8511,-0.8722,-0.3300,70.56,-751.83,-1203.92
6460,-3.8523,-0.8054,-0.3145,367.43,1779.54,233.70
6470,-3.8530,-0.6315,-0.3663,914.31,-235.96,655.58
6480,-3.8534,-0.2927,-0.4022,-820.07,1123.72,-1078.86
6490,-3.8536,0.1614,-0.3218,-1460.69,530.64,-1860.17
6500,-3.8541,0.6013,-0.1002,664.31,-1187.19,-844.42
6510,-3.8545,0.8972,0.2351,976.81,-826.97,1562.26
6520,-3.8545,0.9457,0.5956,-1148.19,-1904.54,-1030.82
6530,-3.8541,0.7533,0.8358,1054.93,236.21,-561.34
6540,-3.8538,0.4891,0.8668,429.93,-1014.16,-560.91
6550,-3.8534,0.2935,0.7544,-1382.57,-1045.96,1423.52
6560,-3.8531,0.1947,0.6340,1570.56,563.05,1563.96
6570,-3.8529,0.1918,0.5494,929.93,1156.62,719.97
6580,-3.8527,0.2800,0.4630,554.93,-1671.51,594.79
6590,-3.8524,0.4559,0.3348,-148.19,-733.89,-936.65
6600,-3.8519,0.6923,0.1777,-1632.57,-1139.77,-1311.89
6610,-3.8512,0.9170,0.0483,617.43,-1248.66,890.93
6620,-3.8503,1.0463,-0.0198,1383.06,-1810.73,515.69
6630,-3.8495,1.0426,-0.0381,1929.93,1470.76,-734.44
6640,-3.8485,0.9329,-0.0293,1461.18,-872.99,109.25
6650,-3.8479,0.7722,-0.0059,-585.69,251.77,1734.31
6660,-3.8475,0.6018,0.0214,-1148.19,-748.54,-812.56
6670,-3.8473,0.4618,0.0272,1039.31,-1264.47,-781.25
6680,-3.8469,0.5245,-0.0330,-882.57,-514.77,609.38
6690,-3.8464,0.5813,-0.0994,-851.32,-217.77,703.00
6700,-3.8461,0.3459,-0.1045,-1585.69,-717.65,562.26
6710,-3.8458,0.1351,-0.0959,289.31,-1374.33,234.13
6720,-3.8456,0.1074,-0.0559,1304.93,-281.01,1343.51
6730,-3.8455,0.1317,0.0166,1758.06,843.93,453.00
6740,-3.8455,0.1472,0.0438,867.43,-1874.76,453.12
6750,-3.8455,0.1299,0.0146,-1148.19,1609.62,-281.19
6760,-3.8452,0.0890,-0.0419,633.06,1875.24,-593.75
6770,-3.8448,0.0403,-0.1061,-601.32,-1359.25,1796.75
6780,-3.8445,-0.0135,-0.1561,1164.31,-1578.06,468.51
6790,-3.8442,-0.0673,-0.1816,-1726.32,31.19,1030.94
6800,-3.8441,-0.1132,-0.1885,-601.32,765.44,-1953.49
6810,-3.8441,-0.1487,-0.1876,1523.68,-109.62,-391.05
6820,-3.8441,-0.1694,-0.1835,976.81,-0.31,-1344.18
6830,-3.8441,-0.1780,-0.1801,-1679.44,530.88,140.26
6840,-3.8444,-0.1932,-0.1842,1226.81,968.38,-547.24
6850,-3.8446,-0.2188,-0.1971,-726.32,437.07,-640.99
6860,-3.8448,-0.2308,-0.2152,8.06,-1219.18,1140.20
6870,-3.8452,-0.2322,-0.2458,-1538.82,468.26,-1844.18
6880,-3.8456,-0.2498,-0.3002,-1710.69,546.39,1452.64
6890,-3.8461,-0.2606,-0.3832,39.31,1593.26,1124.39
6900,-3.8468,-0.1864,-0.4573,-1351.32,-1031.80,-1657.04
6910,-3.8478,0.0168,-0.4508,148.68,1484.01,-1657.17
6920,-3.8490,0.2932,-0.3506,-1835.69,-1703.12,561.58
6930,-3.8505,0.5548,-0.2244,1539.31,-874.45,1358.64
6940,-3.8517,0.7737,-0.1577,-976.32,-717.71,1108.89
6950,-3.8523,0.9772,-0.2106,-960.69,-186.04,390.26
6960,-3.8523,1.2784,-0.3944,1086.18,1048.77,921.45
6970,-3.8518,1.7225,-0.6426,-351.32,1518.07,1858.58
6980,-3.8511,2.3876,-0.9648,492.43,1753.36,-1704.41
6990,-3.8492,3.3306,-1.4730,1617.43,504.64,748.11
7000,-3.8456,3.9999,-1.8641,-1679.44,-540.41,-971.68
7010,-3.8740,3.9999,-1.7329,-7.57,1398.38,-691.16
7020,-3.8744,3.2639,-1.0616,-7.57,-1804.75,1324.71
7030,-3.8453,1.9888,-0.2955,1789.31,115.72,1122.92
7040,-3.8478,0.8761,0.1464,-1429.44,-1824.28,-1516.24
7050,-3.8494,0.2721,0.3367,148.68,-1263.92,-1640.38
7060,-3.8497,0.1987,0.3695,-1163.82,-905.76,1859.99
7070,-3.8492,0.3621,0.2764,1445.56,-702.76,1953.80
7080,-3.8485,0.4297,0.1425,-1648.19,-624.33,-1687.01
7090,-3.8479,0.3514,0.0554,-991.94,-1764.83,1984.62
7100,-3.8475,0.2527,0.0171,992.43,-905.58,-953.06
7110,-3.8472,0.2184,-0.0022,351.81,-1812.01,203.12
7120,-3.8469,0.2571,-0.0177,-38.82,-280.88,-1812.56
7130,-3.8466,0.3394,-0.0492,914.31,1734.86,-1203.19
7140,-3.8461,0.4297,-0.0984,-554.44,1703.74,984.25
7150,-3.8457,0.5059,-0.1688,-991.94,-592.96,-1484.62
7160,-3.8453,0.5663,-0.2643,758.06,-1608.40,-1984.74
7170,-3.8451,0.6289,-0.3400,492.43,-1827.03,1671.33
7180,-3.8451,0.7091,-0.3650,508.06,485.60,-250.67
7190,-3.8451,0.8005,-0.3588,-1226.32,1282.59,1405.52
7200,-3.8453,0.8948,-0.3418,-1523.19,-1920.35,-344.48
7210,-3.8455,1.0000,-0.3313,-1460.69,251.71,264.95
7220,-3.8457,1.1340,-0.3804,8.06,1595.70,-1485.05
7230,-3.8457,1.3077,-0.5237,1164.31,-685.30,592.96
7240,-3.8457,1.5345,-0.7358,-601.32,971.25,-797.91
7250,-3.8455,1.8293,-0.9236,429.93,1815.49,123.54
7260,-3.8455,2.1416,-0.9735,-1835.69,1784.79,138.79
7270,-3.8459,2.4254,-0.9008,-1866.94,-605.22,-580.08
7280,-3.8466,2.6956,-0.7919,-1538.82,707.82,107.60
7290,-3.8474,2.9178,-0.6842,1039.31,-1354.13,-204.71
7300,-3.8479,2.9965,-0.6454,1492.43,427.55,-1516.97
7310,-3.8480,2.8851,-0.7560,-445.07,1396.42,670.59
7320,-3.8480,2.6791,-0.9357,1304.93,-760.01,-673.40
7330,-3.8478,2.4813,-1.0088,-1070.07,239.56,404.42
7340,-3.8475,2.2919,-0.9290,1617.43,-1120.18,904.24
7350,-3.8472,2.1406,-0.7816,1367.43,1098.21,1779.42
7360,-3.8467,2.1299,-0.6753,-1991.94,-42.72,998.41
7370,-3.8462,2.2920,-0.6636,633.06,1566.65,-1626.34
7380,-3.8456,2.5038,-0.6907,1383.06,-933.04,639.28
7390,-3.8452,2.5894,-0.6625,492.43,-401.37,-1095.15
7400,-3.8451,2.4709,-0.5541,-554.44,-791.87,-1501.34
7410,-3.8453,2.2059,-0.4174,289.31,1082.95,-1844.85
7420,-3.8457,1.9073,-0.3149,-1632.57,-1417.60,-1344.60
7430,-3.8458,1.6525,-0.2782,148.68,-308.78,1936.83
7440,-3.8457,1.4397,-0.3105,-476.32,393.80,1702.58
7450,-3.8455,1.2495,-0.4119,289.31,252.81,-1313.11
7460,-3.8451,1.1003,-0.5621,-54.44,-716.37,1452.27
7470,-3.8448,0.9877,-0.6782,851.81,49.01,1561.40
7480,-3.8448,0.8632,-0.6704,-1570.07,1189.39,1701.78
7490,-3.8452,0.7002,-0.5281,-1507.57,-1810.85,-1595.09
7500,-3.8458,0.5099,-0.3179,1633.06,407.59,1686.46
7510,-3.8466,0.3048,-0.1200,1273.68,-686.52,-313.17
7520,-3.8469,0.1045,0.0299,-976.32,641.17,390.38
7530,-3.8472,-0.0503,0.1461,1383.06,-171.69,-1937.50
7540,-3.8472,-0.1702,0.2437,1570.56,-1281.37,-1781.01
7550,-3.8470,-0.2783,0.3148,-1773.19,-797.24,-77.70
7560,-3.8467,-0.3308,0.3406,383.06,311.95,1875.61
7570,-3.8464,-0.3115,0.3229,1664.31,-391.30,-436.89
7580,-3.8462,-0.2783,0.3158,133.06,1343.14,953.74
7590,-3.8463,-0.2789,0.3541,383.06,436.95,-499.39
7600,-3.8466,-0.3126,0.4209,304.93,1343.20,-171.20
7610,-3.8468,-0.3656,0.4867,-7.57,1889.95,-827.33
7620,-3.8469,-0.4413,0.5336,1211.18,-1688.23,-999.08
7630,-3.8468,-0.5334,0.5640,-476.32,311.58,126.04
7640,-3.8468,-0.6178,0.5778,-273.19,202.03,-280.15
7650,-3.8467,-0.6726,0.5736,929.93,1967.53,-998.90
7660,-3.8466,-0.6851,0.5448,1914.31,1436.16,1766.72
7670,-3.8464,-0.6418,0.4829,320.56,1748.66,-1733.34
7680,-3.8463,-0.5519,0.4211,1851.81,1826.84,-30.33
7690,-3.8462,-0.4520,0.4165,1367.43,1920.78,-639.83
7700,-3.8461,-0.3615,0.4786,-1851.32,1327.21,813.29
7710,-3.8461,-0.2867,0.5654,1742.43,1280.52,-1920.96
7720,-3.8461,-0.2360,0.6326,-695.07,390.01,-702.03
7730,-3.8459,-0.2009,0.6514,1804.93,983.89,-780.03
7740,-3.8456,-0.1647,0.6093,-1710.69,-609.80,-201.90
7750,-3.8448,-0.1216,0.5348,-1070.07,1999.63,923.03
7760,-3.8442,-0.0692,0.4802,445.56,468.51,-202.09
7770,-3.8748,-0.0181,0.4528,-851.32,1484.19,844.67
7780,-3.8741,0.0135,0.4279,1695.56,1968.69,282.10
7790,-3.8735,0.0317,0.3807,1742.43,-1234.38,63.29
7800,-3.8729,0.0343,0.3126,70.56,734.44,-1046.14
7810,-3.8721,-0.0173,0.2478,398.68,15.69,688.11
7820,-3.8713,-0.1383,0.2130,1789.31,-265.69,453.55
7830,-3.8708,-0.3158,0.2267,-1695.07,-719.06,594.12
7840,-3.8707,-0.5144,0.2753,-413.82,1030.58,-1749.57
7850,-3.8708,-0.6808,0.3114,-1835.69,-751.04,-1874.51
7860,-3.8711,-0.7567,0.2860,867.43,-126.34,1828.67
7870,-3.8712,-0.6926,0.2087,-851.32,623.47,-1452.58
7880,-3.8711,-0.5063,0.1302,-648.19,-1267.03,-421.51
7890,-3.8707,-0.2577,0.0688,-804.44,686.46,1578.37
7900,-3.8704,0.0061,0.0328,-976.32,827.58,1843.87
7910,-3.8700,0.2311,0.0568,789.31,203.12,1781.31
7920,-3.8698,0.3660,0.1189,1586.18,-733.95,1578.19
7930,-3.8698,0.3973,0.1295,-1148.19,-780.58,-937.32
7940,-3.8699,0.3650,-0.0242,-1132.57,578.86,-93.51
7950,-3.8691,0.4396,-0.5643,-1273.19,906.92,1312.44
7960,-3.8665,0.6500,-1.3102,273.68,-233.52,1858.22
7970,-3.8639,0.8436,-1.7206,-788.82,298.10,575.56
7980,-3.8639,0.9303,-1.3527,-7.57,-232.79,387.21
7990,-3.8658,0.7729,-0.3495,-913.82,-1138.85,-346.44
8000,-3.8683,0.4103,0.5054,-1054.44,-732.91,-985.11
8010,-3.8700,0.1096,0.7654,523.68,688.29,-436.52
8020,-3.8704,0.0521,0.5403,-1960.69,1968.93,1079.59
8030,-3.8700,0.2010,0.1460,-1320.07,1156.31,-670.84
8040,-3.8693,0.3937,-0.1471,1742.43,-1312.13,1593.99
8050,-3.8689,0.4963,-0.2161,-1601.32,1172.61,-1015.93
8060,-3.8689,0.4977,-0.1073,-460.69,344.67,1108.95
8070,-3.8693,0.4606,0.0737,-288.82,-1733.46,1827.88
8080,-3.8698,0.4187,0.2607,-1038.82,1438.35,-1781.13
8090,-3.8702,0.3816,0.4047,1601.81,1375.79,484.86
8100,-3.8708,0.3420,0.4834,851.81,-202.39,1563.23
8110,-3.8715,0.2855,0.5272,-210.69,1875.61,-1624.08
8120,-3.8719,0.2100,0.5677,554.93,-515.08,344.73
8130,-3.8724,0.1311,0.6077,-1116.94,672.24,594.85
8140,-3.8729,0.0596,0.6339,789.31,1781.49,-30.09
8150,-3.8732,-0.0018,0.6292,-366.94,1140.69,-1655.03
8160,-3.8733,-0.0435,0.5824,-226.32,546.81,157.47
8170,-3.8734,-0.0583,0.5178,-1554.44,-1437.62,1251.10
8180,-3.8735,-0.0587,0.4836,539.31,-1703.25,-1764.65
8190,-3.8737,-0.0613,0.5034,492.43,1921.75,110.29
8200,-3.8740,-0.0793,0.5627,164.31,453.00,-655.27
8210,-3.8743,-0.1278,0.6315,1851.81,46.69,-1764.53
8220,-3.8745,-0.2115,0.6885,-351.32,843.44,1579.35
8230,-3.8748,-0.3176,0.7288,929.93,140.20,1001.34
8240,-3.8750,-0.4268,0.7568,-648.19,1296.20,642.03
8250,-3.8440,-0.5333,0.7889,1383.06,889.77,813.96
8260,-3.8442,-0.6287,0.8378,-257.57,998.90,1360.90
8270,-3.8445,-0.7078,0.9059,-460.69,-751.28,657.84
8280,-3.8448,-0.7698,0.9830,1414.31,-32.65,1892.33
8290,-3.8451,-0.7998,1.0431,1476.81,1842.22,564.39
8300,-3.8452,-0.7866,1.0437,1633.06,1529.66,939.51
8310,-3.8451,-0.7402,0.9614,-679.44,1607.79,1064.51
8320,-3.8448,-0.6877,0.8315,1258.06,-923.34,-201.29
8330,-3.8444,-0.6471,0.7006,-23.19,-1548.28,-1857.79
8340,-3.8439,-0.6163,0.5939,1179.93,1686.22,1891.97
8350,-3.8746,-0.5908,0.5127,1117.43,30.03,1407.41
8360,-3.8743,-0.5706,0.4409,383.06,1639.47,-327.15
8370,-3.8738,-0.5598,0.3817,-1023.19,451.97,328.98
8380,-3.8735,-0.5706,0.3392,351.81,873.90,-921.14
8390,-3.8732,-0.5997,0.2827,-1023.19,-563.66,969.36
8400,-3.8728,-0.6233,0.1899,-757.57,201.90,1656.80
8410,-3.8723,-0.6180,0.0625,226.81,326.90,-77.76
8420,-3.8716,-0.5736,-0.1007,898.68,14.40,-78.00
8430,-3.8706,-0.4823,-0.2942,-1413.82,-876.16,562.26
8440,-3.8698,-0.3335,-0.5006,-1726.32,-1641.60,-469.36
8450,-3.8688,-0.1240,-0.7018,1320.56,-63.17,-1969.79
8460,-3.8678,0.2251,-1.1122,133.06,-1812.74,1311.10
8470,-3.8651,0.9885,-1.8163,820.56,1641.05,1544.68
8480,-3.8617,1.5736,-1.9619,-1460.69,-482.48,1230.77
8490,-3.8618,1.0927,-0.9623,1429.93,878.05,1933.65
8500,-3.8651,0.0654,0.3308,-132.57,830.20,763.73
8510,-3.8682,-0.5260,0.8324,383.06,-1656.13,641.24
8520,-3.8693,-0.4218,0.5046,679.93,-1438.54,1376.59
8530,-3.8690,-0.0399,0.0326,-1976.32,608.52,1188.48
8540,-3.8685,0.2687,-0.2037,-1101.32,187.38,203.19
8550,-3.8685,0.4734,-0.2229,-1601.32,1922.36,-344.18
8560,-3.8689,0.5731,-0.0865,601.81,-530.33,-47.36
8570,-3.8695,0.5798,0.1244,1367.43,922.97,-1656.43
8580,-3.8704,0.5238,0.3341,-1773.19,-77.03,-1171.69
8590,-3.8712,0.4161,0.5093,-945.07,-1233.40,172.49
8600,-3.8722,0.2666,0.6261,1273.68,1188.29,1547.85
8610,-3.8730,0.1001,0.6775,-1866.94,141.11,-1842.53
8620,-3.8737,-0.0592,0.6864,820.56,-1281.07,626.28
8630,-3.8741,-0.1866,0.6837,429.93,-125.12,1595.03
8640,-3.8745,-0.2719,0.6765,117.43,-469.12,-529.97
8650,-3.8746,-0.3256,0.6587,1211.18,-1391.17,329.41
8660,-3.8749,-0.3740,0.6389,-1663.82,327.45,1688.78
8670,-3.8439,-0.4403,0.6305,133.06,1796.14,-1233.15
8680,-3.8440,-0.5286,0.6398,-351.32,717.83,110.60
8690,-3.8442,-0.6487,0.6749,351.81,1905.21,626.22
8700,-3.8446,-0.7983,0.7334,976.81,-1595.03,-1498.72
8710,-3.8450,-0.9552,0.7991,1820.56,1889.04,1407.65
8720,-3.8455,-1.0897,0.8630,1742.43,-1705.02,-1092.22
8730,-3.8458,-1.1696,0.9114,523.68,-1517.76,1079.77
8740,-3.8462,-1.1643,0.9108,-1695.07,669.56,-1326.35
8750,-3.8463,-1.0703,0.8383,-1023.19,591.43,-1404.48
8760,-3.8462,-0.9213,0.7227,-991.94,-689.64,1970.34
8770,-3.8459,-0.7545,0.6067,-1913.82,513.79,-1217.35
8780,-3.8456,-0.5806,0.4946,-570.07,1670.35,1282.41
8790,-3.8452,-0.3920,0.3540,1695.56,-673.03,891.54
8800,-3.8447,-0.2125,0.1757,1836.18,1327.33,1797.55
8810,-3.8440,-0.0951,0.0110,804.93,-1500.43,797.18
8820,-3.8745,-0.0620,-0.0826,-163.82,1421.63,687.50
8830,-3.8739,-0.0824,-0.1014,70.56,1437.38,1577.94
8840,-3.8734,-0.1090,-0.0936,1461.18,-968.93,-187.74
8850,-3.8727,-0.1003,-0.1244,-1945.07,31.01,734.19
8860,-3.8718,-0.0469,-0.2151,-835.69,93.51,1984.13
8870,-3.8707,-0.0106,-0.3340,-1991.94,484.25,-750.43
8880,-3.8695,-0.0393,-0.4236,-1351.32,1265.56,-1719.42
8890,-3.8685,-0.1135,-0.4962,-1023.19,1796.75,-219.60
8900,-3.8673,0.0244,-1.0354,1476.81,499.76,1170.90
8910,-3.8645,0.3254,-1.7048,-866.94,-531.25,-1298.95
8920,-3.8624,0.2921,-1.0272,1664.31,1781.86,-300.23
8930,-3.8644,-0.1442,0.6958,1398.68,516.17,1372.99
8940,-3.8685,-0.6582,1.7899,1554.93,1077.82,954.47
8950,-3.8715,-0.9812,1.6735,-241.94,1123.66,1612.85
8960,-3.8712,-0.9513,0.9072,-1585.69,-1783.20,-1840.52
8970,-3.8693,-0.6265,0.3383,-1757.57,138.73,-1623.23
8980,-3.8682,-0.3176,0.2479,-179.44,-688.78,-1952.51
8990,-3.8687,-0.1947,0.3618,-648.19,-250.67,1781.68
9000,-3.8700,-0.1691,0.4253,-913.82,-1672.30,-983.70
9010,-3.8711,-0.1116,0.4010,-1632.57,-1547.24,-1311.71
9020,-3.8716,0.0120,0.3650,1726.81,-656.49,1438.23
9030,-3.8718,0.1626,0.3588,1539.31,-1281.25,-514.95
9040,-3.8719,0.2416,0.3575,820.56,1922.18,-1655.58
9050,-3.8722,0.1841,0.3318,-1070.07,1766.05,-1046.20
9060,-3.8724,0.0466,0.2781,-429.44,-1530.94,1766.24
9070,-3.8728,-0.0859,0.2162,1976.81,-406.19,-530.76
9080,-3.8730,-0.1722,0.1591,1008.06,-312.68,594.12
9090,-3.8734,-0.2029,0.1040,1961.18,374.63,1859.68
9100,-3.8737,-0.1833,0.0568,-1960.69,1327.70,0.18
9110,-3.8740,-0.1344,0.0247,539.31,-719.12,-1874.94
9120,-3.8743,-0.0760,-0.0032,-1195.07,-828.43,1140.62
9130,-3.8745,-0.0205,-0.0302,-1726.32,-390.81,-984.44
9140,-3.8746,0.0162,-0.0406,1383.06,156.19,-1640.69
9150,-3.8748,0.0273,-0.0356,-1913.82,-1203.12,953.00
9160,-3.8750,0.0199,-0.0452,-491.94,-562.50,-1047.00
9170,-3.8439,0.0052,-0.0846,-1445.07,-1781.25,-1390.75
9180,-3.8439,-0.0077,-0.1346,679.93,1171.88,812.32
9190,-3.8440,-0.0195,-0.1748,-976.32,-1218.81,-1031.56
9200,-3.8441,-0.0265,-0.2102,1508.06,1640.56,-1140.99
9210,-3.8442,-0.0107,-0.2579,617.43,1109.31,-1656.68
9220,-3.8442,0.0322,-0.3253,-1366.94,-1000.06,1015.08
9230,-3.8442,0.0831,-0.4095,133.06,-1640.56,-94.42
9240,-3.8440,0.1270,-0.5116,-1351.32,-421.75,1530.40
9250,-3.8750,0.1805,-0.6349,258.06,-1484.13,1873.96
9260,-3.8746,0.2722,-0.7701,-882.57,-1265.32,1670.59
9270,-3.8741,0.4028,-0.9137,-1148.19,1422.36,1217.22
9280,-3.8735,0.5526,-1.0574,-429.44,-952.39,1248.17
9290,-3.8728,0.7043,-1.1648,-1257.57,657.29,1451.05
9300,-3.8721,0.8403,-1.2295,-1835.69,-1092.41,-1111.69
9310,-3.8713,0.9513,-1.2927,-429.44,-1373.41,-189.94
9320,-3.8705,1.0405,-1.3572,1773.68,-1466.92,341.19
9330,-3.8699,1.1025,-1.3738,1195.56,-1716.74,-1862.06
9340,-3.8694,1.1434,-1.3236,1133.06,158.39,575.44
9350,-3.8693,1.1866,-1.2543,-1632.57,-1419.68,1888.00
9360,-3.8693,1.2344,-1.2111,-101.32,-544.62,1450.62
9370,-3.8694,1.2594,-1.1838,-1991.94,986.76,-1877.38
9380,-3.8695,1.2527,-1.1639,1211.18,471.19,513.31
9390,-3.8696,1.2189,-1.1011,351.81,-981.93,1544.56
9400,-3.8693,0.9254,-0.8154,23.68,-935.12,-1752.20
9410,-3.8668,0.0071,-0.3939,-1538.82,-373.23,1748.35
9420,-3.8623,-1.0453,-0.6672,914.31,1578.12,358.58
9430,-3.8595,-1.0613,-1.7922,-1788.82,-1392.70,-1.34
9440,-3.8595,0.0645,-2.6802,164.31,-1392.70,-3.54
9450,-3.8605,1.3214,-2.5647,258.06,937.62,-1161.50
9460,-3.8654,2.0648,-1.5267,1148.68,-278.69,-317.57
9470,-3.8716,2.2576,-0.2314,304.93,582.15,1418.88
9480,-3.8451,2.0029,0.6737,976.81,-1620.61,-1672.36
9490,-3.8466,1.5825,0.9771,383.06,-1761.72,-701.84
9500,-3.8456,1.2805,0.7812,-1429.44,1065.55,361.27
9510,-3.8442,1.1431,0.3702,-85.69,2.44,-623.47
9520,-3.8745,1.0646,0.0211,-1679.44,-607.18,-843.08
9530,-3.8740,0.9526,-0.1998,273.68,-1294.80,875.00
9540,-3.8739,0.8199,-0.3743,1945.56,-1576.29,-1281.68
9550,-3.8737,0.7104,-0.5394,961.18,95.34,686.77
9560,-3.8734,0.6410,-0.6772,-1054.44,-1045.53,-813.60
9570,-3.8729,0.5918,-0.7717,-1945.07,1313.72,-1345.09
9580,-3.8724,0.5286,-0.8024,-241.94,1219.85,-1470.28
9590,-3.8721,0.4443,-0.7709,-335.69,1297.85,1920.29
9600,-3.8719,0.3630,-0.7157,883.06,1328.98,-689.03
9610,-3.8719,0.3071,-0.6696,-1523.19,391.30,-892.03
9620,-3.8721,0.2886,-0.6417,-679.44,-1702.58,-1126.34
9630,-3.8723,0.3054,-0.6287,945.56,1859.92,-63.78
9640,-3.8726,0.3419,-0.6212,-898.19,-468.20,-1282.53
9650,-3.8728,0.3899,-0.6200,-226.32,484.99,233.15
9660,-3.8732,0.4618,-0.6410,1914.31,641.36,-1719.97
9670,-3.8734,0.5697,-0.6971,-882.57,1953.98,-1235.66
9680,-3.8735,0.6886,-0.7623,929.93,-1233.28,-1267.03
9690,-3.8735,0.7722,-0.7849,148.68,-1576.78,951.60
9700,-3.8737,0.7950,-0.7502,-1148.19,-467.29,-1798.46
9710,-3.8739,0.7703,-0.6807,1773.68,-29.72,-720.28
9720,-3.8741,0.7306,-0.6030,-1398.19,876.46,1076.78
9730,-3.8745,0.6909,-0.5372,1523.68,-1186.10,-1829.35
9740,-3.8749,0.6639,-0.4991,445.56,-764.28,-407.35
9750,-3.8439,0.6609,-0.4944,992.43,110.66,-422.85
9760,-3.8439,0.6764,-0.5104,601.81,720.03,561.52
9770,-3.8439,0.6992,-0.5245,-1413.82,-1326.84,-1938.54
9780,-3.8750,0.7231,-0.5155,1508.06,860.72,1561.46
9790,-3.8749,0.7736,-0.4907,570.56,-1982.97,-1938.54
9800,-3.8745,0.8765,-0.4773,-976.32,1188.96,249.02
9810,-3.8739,0.9857,-0.4735,195.56,-1092.04,983.40
9820,-3.8732,1.0526,-0.4518,-1820.07,-607.48,-313.48
9830,-3.8724,1.0851,-0.4011,-1257.57,-1826.11,-672.79
9840,-3.8719,1.0814,-0.3397,-1101.32,658.33,-1641.42
9850,-3.8717,1.0345,-0.2997,-1570.07,517.70,499.33
9860,-3.8717,0.9799,-0.2959,429.93,1642.64,1686.89
9870,-3.8717,0.9578,-0.3031,1429.93,-1873.11,-1188.11
9880,-3.8716,0.9749,-0.2782,-1398.19,1204.96,-1906.86
9890,-3.8715,1.0154,-0.2083,789.31,392.52,-1891.17
9900,-3.8713,1.0521,-0.1224,1976.81,1345.70,983.95
9910,-3.8713,1.0745,-0.0703,-1320.07,330.14,-1953.37
9920,-3.8713,1.1013,-0.0806,1539.31,-997.92,-1531.43
9930,-3.8712,1.1301,-0.1355,976.81,1689.64,1171.69
9940,-3.8711,1.1235,-0.1882,664.31,-1341.55,1827.82
9950,-3.8711,1.0684,-0.2007,-179.44,-91.61,-797.30
9960,-3.8712,0.9878,-0.1707,758.06,-1685.42,1452.70
9970,-3.8716,0.8994,-0.1254,-1554.44,-1841.86,1765.26
9980,-3.8721,0.8063,-0.0959,-866.94,-45.17,-531.56
9990,-3.8724,0.7219,-0.0914,-788.82,-279.72,468.51
10000,-3.8729,0.6591,-0.1030,414.31,298.28,1827.94
10010,-3.8733,0.6151,-0.1241,367.43,-1186.22,484.13
10020,-3.8737,0.5768,-0.1488,-1257.57,110.53,77.88
10030,-3.8741,0.5388,-0.1792,1836.18,954.22,-203.43
10040,-3.8745,0.5088,-0.2214,976.81,1063.54,-422.24
10050,-3.8749,0.4800,-0.2637,1133.06,-342.77,-1094.24
10060,-3.8440,0.4409,-0.2856,1445.56,-1749.08,140.08
10070,-3.8446,0.4005,-0.2772,445.56,-561.65,-1688.11
10080,-3.8452,0.3718,-0.2468,-726.32,516.36,-1516.17
10090,-3.8458,0.3544,-0.2123,-398.19,406.92,-1375.49
10100,-3.8463,0.3519,-0.1908,1367.43,828.80,1655.82
