timestamp_ms,ax,ay,az,gx,gy,gz
0,-3.8728,-0.2166,0.7576,-663.82,-1578.61,-1170.41
10,-3.8728,-0.2050,0.7521,289.31,983.95,-982.91
20,-3.8728,-0.1963,0.7561,1773.68,280.82,-1451.66
30,-3.8728,-0.1954,0.7666,-1116.94,796.45,1610.84
40,-3.8728,-0.2030,0.7783,-1007.57,-1859.80,548.34
50,-3.8729,-0.2150,0.7870,-1976.32,-359.80,-45.41
60,-3.8728,-0.2246,0.7898,492.43,749.57,95.28
70,-3.8728,-0.2271,0.7882,-741.94,1108.89,407.78
80,-3.8728,-0.2228,0.7839,-1054.44,905.76,610.90
90,-3.8728,-0.2159,0.7771,-507.57,358.89,829.65
100,-3.8728,-0.2106,0.7683,367.43,-516.05,1282.71
110,-3.8728,-0.2079,0.7617,1054.93,-1641.05,1751.46
120,-3.8728,-0.2086,0.7614,1398.68,1515.20,1860.84
130,-3.8728,-0.2128,0.7664,1304.93,1468.32,1579.59
140,-3.8728,-0.2195,0.7739,773.68,-1891.05,1126.46
150,-3.8728,-0.2266,0.7806,-85.69,-922.36,1063.96
160,-3.8728,-0.2311,0.7816,-991.94,-62.99,1673.34
170,-3.8728,-0.2297,0.7762,-1570.07,62.01,-1576.60
180,-3.8728,-0.2228,0.7701,-1398.19,-625.49,-1404.79
190,-3.8728,-0.2152,0.7643,-507.57,-1406.74,-1576.66
200,-3.8728,-0.2134,0.7583,461.18,1843.32,-1639.16
210,-3.8728,-0.2194,0.7560,695.56,1077.70,-1561.04
220,-3.8728,-0.2306,0.7607,-70.07,780.76,-1607.91
230,-3.8728,-0.2428,0.7711,-1507.57,1390.14,1907.71
240,-3.8728,-0.2494,0.7819,929.93,-1281.74,1063.96
250,-3.8728,-0.2462,0.7874,86.18,93.26,298.40
260,-3.8728,-0.2343,0.7856,492.43,796.39,64.03
270,-3.8728,-0.2189,0.7765,-1976.32,577.64,579.65
280,-3.8728,-0.2095,0.7616,-7.57,-594.24,1798.34
290,-3.8728,-0.2124,0.7462,1195.56,1499.57,-420.41
300,-3.8727,-0.2247,0.7371,820.56,-469.18,1360.78
310,-3.8727,-0.2379,0.7378,-757.57,-1641.11,-1389.22
320,-3.8727,-0.2465,0.7488,1554.93,-1547.36,-1295.47
330,-3.8727,-0.2479,0.7653,461.18,-141.11,1673.28
340,-3.8727,-0.2401,0.7775,273.68,1968.26,110.84
350,-3.8728,-0.2286,0.7793,1273.68,-469.24,-1342.29
360,-3.8728,-0.2234,0.7731,-1257.57,-234.86,-1951.66
370,-3.8728,-0.2268,0.7648,-585.69,-1031.74,-1342.29
380,-3.8727,-0.2333,0.7571,-1023.19,1905.76,79.59
390,-3.8727,-0.2356,0.7515,-1851.32,921.39,1438.96
400,-3.8727,-0.2318,0.7498,1851.81,202.64,-1889.16
410,-3.8727,-0.2264,0.7527,-1663.82,-16.11,1813.90
420,-3.8727,-0.2228,0.7566,-976.32,358.89,1063.96
430,-3.8727,-0.2212,0.7604,-507.57,858.89,595.21
440,-3.8727,-0.2203,0.7655,-304.44,1343.26,204.59
450,-3.8728,-0.2202,0.7723,-195.07,1999.51,-467.29
460,-3.8728,-0.2218,0.7770,-179.44,-1125.49,-1420.41
470,-3.8728,-0.2223,0.7764,-382.57,-531.74,1642.09
480,-3.8728,-0.2183,0.7750,-445.07,-609.86,970.21
490,-3.8728,-0.2122,0.7745,70.56,-781.68,751.46
500,-3.8728,-0.2098,0.7714,851.81,-844.18,1048.34
510,-3.8728,-0.2145,0.7634,1148.68,-1250.43,1985.84
520,-3.8728,-0.2245,0.7521,554.93,1733.95,-732.91
530,-3.8727,-0.2346,0.7435,-726.32,280.76,501.46
540,-3.8727,-0.2374,0.7421,1976.81,-812.99,1720.15
550,-3.8727,-0.2296,0.7461,1617.43,-1000.49,-1248.60
560,-3.8727,-0.2162,0.7496,-1382.57,-484.86,-686.10
570,-3.8727,-0.2041,0.7517,336.18,-31.68,-857.97
580,-3.8727,-0.1986,0.7567,1883.06,233.95,-1779.79
590,-3.8727,-0.2043,0.7649,-1413.82,874.57,735.84
600,-3.8728,-0.2205,0.7728,1851.81,1921.45,-936.04
610,-3.8728,-0.2372,0.7780,-210.69,-1062.99,1704.59
620,-3.8728,-0.2439,0.7809,1648.68,-406.74,1063.96
630,-3.8728,-0.2357,0.7832,789.31,-31.74,876.46
640,-3.8728,-0.2185,0.7834,1836.18,265.14,657.78
650,-3.8728,-0.2032,0.7794,39.31,296.45,579.65
660,-3.8728,-0.1956,0.7692,1992.43,-219.18,1188.96
670,-3.8728,-0.1978,0.7559,-1023.19,-1531.68,-1717.29
680,-3.8728,-0.2097,0.7473,-1304.44,765.20,-701.66
690,-3.8728,-0.2267,0.7485,1164.31,-328.55,-76.72
700,-3.8728,-0.2386,0.7603,-1007.57,-172.36,-92.35
710,-3.8728,-0.2357,0.7773,1461.18,1327.64,-873.54
720,-3.8728,-0.2184,0.7891,1836.18,-484.86,1735.84
730,-3.8728,-0.1963,0.7892,54.93,1015.20,251.53
740,-3.8729,-0.1814,0.7808,-1116.94,1030.82,-701.60
750,-3.8729,-0.1832,0.7694,789.31,-47.24,-561.04
760,-3.8728,-0.2014,0.7588,554.93,-1500.37,704.59
770,-3.8728,-0.2258,0.7523,-1773.19,1140.20,-1545.41
780,-3.8728,-0.2452,0.7532,-898.19,312.01,-514.16
790,-3.8728,-0.2534,0.7596,617.43,421.39,-732.91
800,-3.8728,-0.2473,0.7715,-429.44,1249.45,-1795.41
810,-3.8728,-0.2325,0.7858,351.81,-1234.86,985.84
820,-3.8728,-0.2212,0.7908,-1757.57,593.26,376.53
830,-3.8728,-0.2189,0.7798,-304.44,1233.89,1095.28
840,-3.8728,-0.2241,0.7598,-7.57,-172.36,-701.66
850,-3.8727,-0.2343,0.7408,-679.44,1265.14,-1842.29
860,-3.8726,-0.2448,0.7294,-1976.32,-1156.74,345.15
870,-3.8726,-0.2478,0.7288,679.93,1374.51,970.15
880,-3.8727,-0.2373,0.7400,289.31,1296.39,-123.60
890,-3.8727,-0.2181,0.7604,1633.06,-1266.11,1485.78
900,-3.8728,-0.2029,0.7791,86.18,1343.32,-1061.04
910,-3.8728,-0.2009,0.7852,-1960.69,-266.05,1298.34
920,-3.8728,-0.2134,0.7776,-1710.69,515.20,1032.78
930,-3.8728,-0.2338,0.7665,695.56,-453.55,1860.84
940,-3.8728,-0.2520,0.7610,-1913.82,-1875.49,-1092.29
950,-3.8728,-0.2604,0.7612,-241.94,1421.33,-670.41
960,-3.8728,-0.2563,0.7651,-1320.07,1452.58,-1279.79
970,-3.8728,-0.2416,0.7706,-804.44,1952.58,1438.96
980,-3.8728,-0.2216,0.7738,1086.18,-1344.24,360.84
990,-3.8728,-0.2045,0.7749,-351.32,-937.99,63.96
1000,-3.8728,-0.1982,0.7753,1836.18,-797.30,751.46
1010,-3.8728,-0.2061,0.7721,-1366.94,-750.43,-1951.66
1020,-3.8728,-0.2266,0.7635,1633.06,-1156.68,-607.91
1030,-3.8727,-0.2540,0.7515,-991.94,1749.51,673.34
1040,-3.8727,-0.2747,0.7411,-507.57,202.58,1954.59
1050,-3.8727,-0.2756,0.7399,851.81,-1125.55,-1342.35
1060,-3.8727,-0.2557,0.7516,726.81,-1281.80,1845.15
1070,-3.8728,-0.2268,0.7704,-726.32,218.20,-451.66
1080,-3.8728,-0.2015,0.7856,-1023.19,-1375.49,938.96
1090,-3.8729,-0.1871,0.7916,-1788.82,577.70,-826.60
1100,-3.8729,-0.1881,0.7885,54.93,1343.38,-1232.85
1110,-3.8729,-0.2056,0.7809,-70.07,937.07,-467.22
1120,-3.8728,-0.2335,0.7728,1695.56,-31.68,938.96
1130,-3.8728,-0.2604,0.7649,-1882.57,-1062.99,-1514.16
1140,-3.8728,-0.2750,0.7565,-1320.07,1921.33,-311.04
1150,-3.8727,-0.2703,0.7500,804.93,843.20,360.84
1160,-3.8727,-0.2455,0.7517,1414.31,15.08,454.59
1170,-3.8728,-0.2120,0.7644,586.18,233.89,-451.66
1180,-3.8728,-0.1846,0.7821,867.43,1858.95,1751.46
1190,-3.8729,-0.1735,0.7955,383.06,124.63,-45.35
1200,-3.8729,-0.1809,0.7970,1804.93,1843.38,-967.22
1210,-3.8729,-0.2040,0.7863,851.81,-1969.12,-607.85
1220,-3.8728,-0.2356,0.7701,1898.68,655.82,704.65
1230,-3.8728,-0.2628,0.7574,1851.81,-1406.74,-1857.91
1240,-3.8728,-0.2725,0.7568,-1632.57,968.20,-1186.04
1250,-3.8728,-0.2584,0.7688,1133.06,890.08,1907.71
1260,-3.8729,-0.2257,0.7863,-1070.07,-1578.67,-514.16
1270,-3.8729,-0.1898,0.8022,-882.57,655.76,642.15
1280,-3.8730,-0.1674,0.8086,-288.82,-1297.30,-1279.72
1290,-3.8730,-0.1683,0.8024,-1413.82,-484.74,-1482.85
1300,-3.8729,-0.1910,0.7886,-1538.82,-1281.62,251.53
1310,-3.8729,-0.2235,0.7734,-445.07,952.70,-810.97
1320,-3.8728,-0.2507,0.7609,-601.32,-984.86,-1982.91
1330,-3.8727,-0.2644,0.7516,-85.69,1405.70,79.59
1340,-3.8727,-0.2618,0.7457,-1835.69,218.20,1548.34
1350,-3.8727,-0.2456,0.7435,-1507.57,-531.80,-1529.85
1360,-3.8727,-0.2229,0.7474,570.56,-812.99,-1561.10
1370,-3.8727,-0.2050,0.7573,-523.19,-312.99,1532.65
1380,-3.8727,-0.2004,0.7667,1773.68,952.70,657.71
1390,-3.8727,-0.2081,0.7682,-1648.19,-1844.18,392.09
1400,-3.8727,-0.2219,0.7603,1367.43,-1656.68,829.59
1410,-3.8727,-0.2375,0.7504,-398.19,1327.64,1626.46
1420,-3.8727,-0.2529,0.7471,1601.81,62.01,-1748.54
1430,-3.8727,-0.2634,0.7495,-366.94,-359.92,-1545.47
1440,-3.8727,-0.2616,0.7538,-1710.69,-47.42,-1561.10
1450,-3.8727,-0.2439,0.7579,-1476.32,499.45,-1701.66
1460,-3.8727,-0.2152,0.7622,789.31,1030.76,1642.09
1470,-3.8727,-0.1879,0.7682,461.18,1577.70,485.84
1480,-3.8728,-0.1747,0.7723,-38.82,-1656.68,-857.91
1490,-3.8728,-0.1840,0.7695,1648.68,-1125.37,-1795.41
1500,-3.8728,-0.2128,0.7614,461.18,-1484.74,-1795.41
1510,-3.8728,-0.2435,0.7554,773.68,1468.32,-1107.91
1520,-3.8728,-0.2581,0.7577,836.18,702.64,-529.79
1530,-3.8728,-0.2512,0.7651,-1023.19,999.45,-639.16
1540,-3.8728,-0.2283,0.7711,-148.19,1952.58,-1342.29
1550,-3.8728,-0.2001,0.7738,-1210.69,-1281.74,1829.59
1560,-3.8728,-0.1788,0.7738,-1601.32,-937.93,1142.09
1570,-3.8728,-0.1731,0.7738,1117.43,-937.87,688.96
1580,-3.8728,-0.1869,0.7751,1851.81,-937.87,501.46
1590,-3.8728,-0.2148,0.7750,86.18,-765.99,938.96
1600,-3.8728,-0.2435,0.7708,508.06,-781.68,1829.59
1610,-3.8728,-0.2598,0.7645,836.18,-1328.61,-1420.41
1620,-3.8728,-0.2560,0.7629,-1241.94,1874.45,-1123.54
1630,-3.8728,-0.2361,0.7681,-757.57,1671.33,-1357.91
1640,-3.8728,-0.2118,0.7737,1789.31,-1672.36,1985.84
1650,-3.8728,-0.1952,0.7758,898.68,-953.55,1251.46
1660,-3.8728,-0.1945,0.7732,-976.32,-687.93,938.96
1670,-3.8728,-0.2084,0.7662,-882.57,-1016.05,1485.84
1680,-3.8728,-0.2305,0.7589,1336.18,-1906.68,-1342.29
1690,-3.8728,-0.2537,0.7567,-1491.94,1155.76,-420.41
1700,-3.8728,-0.2683,0.7623,-460.69,874.45,-201.66
1710,-3.8728,-0.2675,0.7700,1664.31,1593.20,-576.66
1720,-3.8728,-0.2516,0.7745,1773.68,-1422.42,-1279.79
1730,-3.8728,-0.2263,0.7749,-195.07,-844.30,-1795.41
1740,-3.8728,-0.2013,0.7698,-960.69,-797.36,-1732.91
1750,-3.8728,-0.1870,0.7607,-1757.57,-1453.55,-1014.16
1760,-3.8727,-0.1892,0.7528,70.56,1390.26,126.46
1770,-3.8727,-0.2086,0.7496,-210.69,374.57,1392.09
1780,-3.8727,-0.2385,0.7479,1304.93,-31.68,-1529.85
1790,-3.8727,-0.2633,0.7449,1476.81,-250.49,-779.85
1800,-3.8727,-0.2682,0.7450,-1695.07,-641.17,-732.97
1810,-3.8727,-0.2484,0.7533,1679.93,-625.55,-1889.22
1820,-3.8728,-0.2148,0.7697,211.18,437.01,-14.16
1830,-3.8728,-0.1848,0.7847,508.06,-1469.18,-1732.91
1840,-3.8728,-0.1719,0.7850,351.81,452.76,-1935.97
1850,-3.8728,-0.1791,0.7686,-1991.94,499.63,-795.35
1860,-3.8727,-0.2026,0.7467,1086.18,-1609.74,985.84
1870,-3.8727,-0.2344,0.7328,-1929.44,-406.68,-1389.22
1880,-3.8727,-0.2576,0.7322,-1991.94,1812.01,-701.72
1890,-3.8727,-0.2582,0.7435,-960.69,1733.83,-1295.47
1900,-3.8727,-0.2368,0.7603,-1038.82,-813.05,1188.90
1910,-3.8728,-0.2023,0.7738,1695.56,1327.64,-451.66
1920,-3.8728,-0.1680,0.7817,-1882.57,-937.93,-1592.29
1930,-3.8728,-0.1533,0.7821,-1491.94,77.76,-1889.10
1940,-3.8728,-0.1681,0.7700,383.06,124.69,-1139.10
1950,-3.8727,-0.2043,0.7506,-1507.57,-1422.24,345.21
1960,-3.8727,-0.2439,0.7365,1851.81,93.32,1954.59
1970,-3.8727,-0.2664,0.7358,789.31,-1719.24,-1139.22
1980,-3.8727,-0.2606,0.7489,1914.31,-1797.42,-1639.22
1990,-3.8727,-0.2321,0.7673,-1351.32,-125.55,548.28
2000,-3.8728,-0.1968,0.7828,-1695.07,-1766.11,-1654.79
2010,-3.8728,-0.1715,0.7899,-1179.44,218.32,814.03
2020,-3.8728,-0.1676,0.7880,-1945.07,1124.63,439.03
2030,-3.8728,-0.1876,0.7782,-1445.07,874.63,1251.53
2040,-3.8728,-0.2222,0.7635,-7.57,-375.43,-1326.66
2050,-3.8727,-0.2540,0.7502,-429.44,1749.51,110.84
2060,-3.8727,-0.2666,0.7460,-507.57,46.33,1001.46
2070,-3.8727,-0.2533,0.7524,1883.06,-500.55,938.90
2080,-3.8728,-0.2209,0.7650,-413.82,327.58,-154.79
2090,-3.8728,-0.1868,0.7762,-273.19,1937.01,-1514.16
2100,-3.8728,-0.1665,0.7803,101.81,-625.37,1720.21
2110,-3.8728,-0.1677,0.7776,-1304.44,-109.74,1923.34
2120,-3.8728,-0.1921,0.7689,-1460.69,-453.49,-904.79
2130,-3.8727,-0.2296,0.7561,-585.69,-1562.93,501.46
2140,-3.8727,-0.2592,0.7467,-1382.57,796.39,1267.09
2150,-3.8727,-0.2640,0.7479,-1163.82,-406.80,1220.15
2160,-3.8727,-0.2428,0.7603,-1788.82,-250.55,485.78
2170,-3.8728,-0.2100,0.7754,929.93,1327.64,-389.16
2180,-3.8728,-0.1853,0.7789,1133.06,-734.80,-451.66
2190,-3.8727,-0.1816,0.7650,289.31,-281.62,579.59
2200,-3.8727,-0.1980,0.7467,758.06,1937.13,-1873.54
2210,-3.8727,-0.2209,0.7401,-1335.69,-406.68,-779.85
2220,-3.8727,-0.2357,0.7468,-273.19,-1250.49,-1014.22
2230,-3.8727,-0.2344,0.7606,1836.18,-391.11,1188.90
2240,-3.8728,-0.2184,0.7762,-1991.94,1374.51,-1701.66
2250,-3.8729,-0.1967,0.7911,54.93,-625.43,-498.54
2260,-3.8729,-0.1796,0.8019,-1163.82,1280.82,1970.28
2270,-3.8729,-0.1766,0.8007,1023.68,-1344.12,1970.28
2280,-3.8729,-0.1919,0.7863,1398.68,-1500.37,-670.35
2290,-3.8728,-0.2183,0.7648,-554.44,655.82,1954.65
2300,-3.8727,-0.2413,0.7432,70.56,1905.82,1267.09
2310,-3.8727,-0.2480,0.7297,1117.43,-859.86,-92.35
2320,-3.8726,-0.2351,0.7296,258.06,1421.39,579.53
2330,-3.8727,-0.2098,0.7419,1914.31,1405.76,-889.22
2340,-3.8727,-0.1874,0.7605,1148.68,-1016.05,501.40
2350,-3.8728,-0.1798,0.7760,23.68,1359.01,-1701.66
2360,-3.8728,-0.1891,0.7826,992.43,-656.62,1142.09
2370,-3.8728,-0.2078,0.7843,-195.07,187.07,751.53
2380,-3.8728,-0.2264,0.7856,1414.31,405.82,610.90
2390,-3.8728,-0.2378,0.7853,-976.32,577.64,329.65
2400,-3.8728,-0.2393,0.7800,1570.56,530.76,32.78
2410,-3.8728,-0.2334,0.7719,1383.06,-141.11,204.59
2420,-3.8728,-0.2224,0.7649,-1866.94,-1187.99,1079.59
2430,-3.8728,-0.2107,0.7611,-460.69,1921.39,-1701.66
2440,-3.8728,-0.2050,0.7581,1039.31,1437.07,-561.04
2450,-3.8727,-0.2067,0.7533,1773.68,1046.45,423.34
2460,-3.8727,-0.2128,0.7495,1554.93,437.07,1454.59
2470,-3.8727,-0.2192,0.7474,773.68,-47.30,-1373.60
2480,-3.8727,-0.2227,0.7468,-54.44,-312.99,-498.60
2490,-3.8727,-0.2209,0.7498,-491.94,-391.11,-498.60
2500,-3.8727,-0.2155,0.7571,-273.19,-16.11,-1154.85
2510,-3.8727,-0.2100,0.7661,429.93,921.45,1798.34
2520,-3.8727,-0.2073,0.7725,1133.06,-1922.30,454.59
2530,-3.8728,-0.2061,0.7734,1476.81,-1109.80,-998.54
2540,-3.8728,-0.2059,0.7725,1633.06,-984.80,1798.34
2550,-3.8728,-0.2091,0.7709,1648.68,-1109.80,1376.46
2560,-3.8728,-0.2161,0.7662,1242.43,-1312.93,1954.59
2570,-3.8728,-0.2225,0.7578,351.81,-1906.68,-779.79
2580,-3.8727,-0.2229,0.7502,-476.32,1015.14,579.59
2590,-3.8727,-0.2156,0.7493,-523.19,46.39,1532.71
2600,-3.8727,-0.2035,0.7539,414.31,-78.55,1720.15
2610,-3.8727,-0.1936,0.7620,1961.18,515.20,1204.59
2620,-3.8727,-0.1909,0.7688,-773.19,1546.45,485.84
2630,-3.8727,-0.1964,0.7683,-429.44,-1578.55,313.96
2640,-3.8727,-0.2078,0.7615,-1132.57,-1641.05,720.21
2650,-3.8727,-0.2218,0.7559,1414.31,1483.95,1032.71
2660,-3.8727,-0.2325,0.7551,-382.57,765.14,970.21
2670,-3.8727,-0.2361,0.7585,-1757.57,671.39,626.46
2680,-3.8727,-0.2305,0.7637,1789.31,1108.89,173.34
2690,-3.8728,-0.2156,0.7656,-1491.94,1765.14,-92.29
2700,-3.8728,-0.1982,0.7643,414.31,-1984.80,-248.54
2710,-3.8728,-0.1892,0.7628,-1366.94,1843.32,-326.66
2720,-3.8728,-0.1915,0.7625,-210.69,1655.82,-357.91
2730,-3.8728,-0.2025,0.7622,-507.57,1608.95,-373.54
2740,-3.8728,-0.2148,0.7612,-1913.82,1577.70,-123.54
2750,-3.8727,-0.2218,0.7582,508.06,1452.70,345.21
2760,-3.8727,-0.2223,0.7521,-382.57,1062.01,907.71
2770,-3.8727,-0.2174,0.7458,-445.07,280.76,1563.96
2780,-3.8727,-0.2081,0.7449,179.93,-516.05,1923.28
2790,-3.8727,-0.1978,0.7494,1367.43,-641.05,1657.65
2800,-3.8727,-0.1918,0.7563,-1304.44,-62.93,798.28
2810,-3.8728,-0.1929,0.7650,-538.82,827.70,-264.16
2820,-3.8728,-0.2015,0.7733,-679.44,1937.07,-1045.41
2830,-3.8728,-0.2137,0.7751,-1788.82,-1000.43,-1467.29
2840,-3.8728,-0.2217,0.7684,648.68,-766.05,-1576.66
2850,-3.8728,-0.2222,0.7576,-366.94,-1625.49,-1264.16
2860,-3.8728,-0.2194,0.7472,-429.44,983.89,-389.16
2870,-3.8727,-0.2179,0.7393,-70.07,-344.24,1235.78
2880,-3.8727,-0.2189,0.7362,117.43,-1359.80,-686.10
2890,-3.8726,-0.2200,0.7368,-7.57,-1750.49,938.90
2900,-3.8726,-0.2175,0.7386,-148.19,-1672.36,1188.90
2910,-3.8727,-0.2128,0.7438,164.31,-1437.93,-217.35
2920,-3.8727,-0.2068,0.7554,773.68,-781.68,1282.65
2930,-3.8728,-0.2013,0.7721,1539.31,702.70,-1217.29
2940,-3.8728,-0.2012,0.7854,-1757.57,-1156.68,1313.96
2950,-3.8728,-0.2101,0.7874,-1741.94,546.45,1095.28
2960,-3.8728,-0.2250,0.7773,1117.43,796.45,-1935.97
2970,-3.8728,-0.2380,0.7579,-788.82,-484.86,-29.79
2980,-3.8727,-0.2429,0.7344,1539.31,1030.76,-1732.91
2990,-3.8727,-0.2383,0.7178,914.31,-1984.86,-107.97
3000,-3.8726,-0.2275,0.7191,1508.06,-109.86,32.59
3010,-3.8727,-0.2153,0.7347,-1116.94,62.01,-1061.10
3020,-3.8727,-0.2052,0.7527,445.56,-1937.93,1454.53
3030,-3.8727,-0.2032,0.7625,1742.43,358.95,126.46
3040,-3.8728,-0.2111,0.7660,1992.43,1608.95,-498.54
3050,-3.8728,-0.2235,0.7727,992.43,-1937.93,-1373.54
3060,-3.8728,-0.2325,0.7819,-601.32,-1078.61,1517.09
3070,-3.8728,-0.2335,0.7864,-1757.57,93.26,939.03
3080,-3.8728,-0.2325,0.7778,-1882.57,671.39,954.65
3090,-3.8728,-0.2390,0.7555,-1757.57,-422.36,-1670.41
3100,-3.8727,-0.2567,0.7316,1414.31,718.26,782.71
3110,-3.8727,-0.2789,0.7183,-851.32,1655.70,-764.22
3120,-3.8726,-0.2913,0.7250,304.93,-47.42,345.09
3130,-3.8727,-0.2860,0.7491,-1273.19,811.89,-514.22
3140,-3.8727,-0.2683,0.7751,-601.32,-94.36,1204.53
3150,-3.8728,-0.2463,0.7881,1664.31,-766.17,-1154.79
3160,-3.8728,-0.2272,0.7825,476.81,890.14,1689.03
3170,-3.8728,-0.2185,0.7664,-1070.07,171.39,1876.53
3180,-3.8728,-0.2245,0.7463,39.31,-1891.05,-482.91
3190,-3.8727,-0.2384,0.7323,-726.32,-453.61,1735.78
3200,-3.8727,-0.2542,0.7275,1492.43,1749.51,-623.60
3210,-3.8726,-0.2659,0.7209,-523.19,1140.08,235.78
3220,-3.8726,-0.2683,0.7218,1976.81,296.33,79.53
3230,-3.8727,-0.2666,0.7400,1664.31,405.70,-1029.85
3240,-3.8727,-0.2600,0.7646,1883.06,-1266.17,1688.90
3250,-3.8727,-0.2451,0.7803,-1273.19,1890.08,595.21
3260,-3.8728,-0.2277,0.7787,633.06,-109.86,-264.16
3270,-3.8727,-0.2164,0.7651,-1132.57,-312.99,1.46
3280,-3.8727,-0.2170,0.7498,304.93,1952.70,1454.59
3290,-3.8727,-0.2277,0.7378,226.81,-16.05,-639.22
3300,-3.8726,-0.2415,0.7335,-1132.57,-1547.36,485.78
3310,-3.8727,-0.2502,0.7430,1101.81,1905.76,-217.35
3320,-3.8727,-0.2461,0.7651,-23.19,-875.55,1298.28
3330,-3.8728,-0.2285,0.7889,508.06,1952.64,-1951.66
3340,-3.8729,-0.2070,0.8014,-1241.94,999.51,-498.47
3350,-3.8729,-0.1898,0.7968,1508.06,-1406.68,-1326.60
3360,-3.8729,-0.1816,0.7828,-288.82,1999.57,-529.72
3370,-3.8728,-0.1854,0.7733,758.06,218.38,1064.03
3380,-3.8728,-0.2014,0.7700,273.68,-1000.37,-1248.54
3390,-3.8728,-0.2267,0.7684,-1773.19,-1422.30,-201.66
3400,-3.8728,-0.2494,0.7681,-1007.57,-1625.49,-154.79
3410,-3.8728,-0.2528,0.7719,86.18,-1672.36,-1061.04
3420,-3.8728,-0.2338,0.7806,-351.32,-1188.05,1204.59
3430,-3.8729,-0.2029,0.7905,-1913.82,-62.99,-514.16
3440,-3.8729,-0.1749,0.7942,-1960.69,1202.70,-857.85
3450,-3.8728,-0.1621,0.7855,1617.43,1671.51,392.15
3460,-3.8728,-0.1699,0.7689,-741.94,562.13,-1420.35
3470,-3.8727,-0.1959,0.7542,-1741.94,-1562.87,1079.59
3480,-3.8727,-0.2295,0.7484,-1070.07,546.45,-982.91
3490,-3.8727,-0.2531,0.7551,-1366.94,-187.99,-764.22
3500,-3.8727,-0.2561,0.7722,-382.57,671.33,1438.96
3510,-3.8728,-0.2404,0.7920,-773.19,-1141.17,-1623.54
3520,-3.8729,-0.2118,0.8048,1242.43,1390.14,-889.10
3530,-3.8729,-0.1772,0.8087,898.68,-969.18,610.90
3540,-3.8730,-0.1487,0.8053,1320.56,-469.12,-498.47
3550,-3.8730,-0.1395,0.7947,976.81,-906.56,-60.97
3560,-3.8729,-0.1566,0.7782,-1851.32,1734.07,1751.53
3570,-3.8728,-0.1932,0.7594,-38.82,-375.37,517.09
3580,-3.8728,-0.2311,0.7466,-726.32,1218.32,-717.29
3590,-3.8727,-0.2495,0.7490,-1570.07,-422.36,860.78
3600,-3.8727,-0.2416,0.7681,70.56,-109.86,251.40
3610,-3.8728,-0.2157,0.7947,1086.18,-1672.36,1407.71
3620,-3.8729,-0.1858,0.8190,398.68,1733.95,1564.03
3630,-3.8730,-0.1638,0.8344,226.81,843.38,-1514.04
3640,-3.8730,-0.1592,0.8337,-960.69,-1187.87,1407.84
3650,-3.8730,-0.1786,0.8173,-366.94,-1265.99,-1279.66
3660,-3.8729,-0.2142,0.7952,1148.68,624.63,1970.34
3670,-3.8728,-0.2432,0.7795,586.18,1796.45,1673.40
3680,-3.8728,-0.2485,0.7766,883.06,-203.61,-342.29
3690,-3.8728,-0.2302,0.7852,195.56,-578.61,-1014.16
3700,-3.8728,-0.1984,0.7980,-1460.69,515.14,517.15
3710,-3.8729,-0.1646,0.8083,-1382.57,-1844.18,1985.90
3720,-3.8729,-0.1418,0.8136,-1054.44,-515.99,485.90
3730,-3.8729,-0.1399,0.8102,1851.81,155.94,329.71
3740,-3.8729,-0.1609,0.7968,-1898.19,-281.56,1454.65
3750,-3.8729,-0.1938,0.7795,-585.69,1999.63,-842.22
3760,-3.8728,-0.2185,0.7675,-804.44,-203.55,376.46
3770,-3.8728,-0.2212,0.7675,39.31,-1750.43,657.71
3780,-3.8728,-0.2050,0.7762,-304.44,-1750.49,235.84
3790,-3.8729,-0.1801,0.7856,1773.68,-625.43,-529.79
3800,-3.8729,-0.1566,0.7915,961.18,577.76,-1092.22
3810,-3.8729,-0.1445,0.7919,-38.82,1327.76,-795.35
3820,-3.8728,-0.1506,0.7863,1508.06,1374.69,595.28
3830,-3.8728,-0.1727,0.7766,726.81,655.94,-1451.60
3840,-3.8727,-0.1989,0.7688,1898.68,-578.49,95.21
3850,-3.8727,-0.2163,0.7678,-1445.07,-1578.55,485.84
3860,-3.8728,-0.2196,0.7742,320.56,-1703.55,-482.91
3870,-3.8728,-0.2137,0.7881,-101.32,-891.11,1610.84
3880,-3.8728,-0.2039,0.8037,648.68,890.20,48.40
3890,-3.8729,-0.1912,0.8085,1914.31,-1109.80,-201.60
3900,-3.8728,-0.1788,0.7979,-460.69,-500.43,673.40
3910,-3.8728,-0.1709,0.7803,1117.43,-1859.74,1954.65
3920,-3.8728,-0.1688,0.7692,-1866.94,-109.74,-998.54
3930,-3.8728,-0.1703,0.7693,-1601.32,-1531.62,-498.54
3940,-3.8728,-0.1741,0.7734,-1788.82,-1515.99,-326.66
3950,-3.8728,-0.1792,0.7749,1726.81,-984.74,-311.04
3960,-3.8728,-0.1833,0.7750,1070.56,-797.24,-482.91
3970,-3.8728,-0.1862,0.7777,539.31,-781.62,-717.29
3980,-3.8728,-0.1870,0.7810,179.93,-437.87,-967.29
3990,-3.8728,-0.1866,0.7819,70.56,-15.99,-1498.54
4000,-3.8728,-0.1840,0.7820,117.43,93.38,1564.03
4010,-3.8728,-0.1771,0.7819,461.18,109.01,517.15
4020,-3.8729,-0.1694,0.7783,1336.18,93.38,-404.72
4030,-3.8729,-0.1671,0.7728,-1679.44,-359.74,-826.66
4040,-3.8729,-0.1729,0.7698,-1382.57,-1062.87,-264.16
4050,-3.8728,-0.1831,0.7719,1883.06,-1453.49,1298.34
4060,-3.8728,-0.1918,0.7777,570.56,-1187.87,-936.04
4070,-3.8728,-0.1951,0.7815,-538.82,-437.93,-14.16
4080,-3.8728,-0.1921,0.7800,-960.69,46.45,-232.85
4090,-3.8728,-0.1854,0.7721,-585.69,-141.05,-920.41
4100,-3.8728,-0.1805,0.7622,273.68,-1156.62,-1404.79
4110,-3.8728,-0.1804,0.7573,898.68,1577.76,-1529.79
4120,-3.8728,-0.1863,0.7598,914.31,952.76,-1311.04
4130,-3.8728,-0.1956,0.7712,164.31,1265.26,-764.16
4140,-3.8727,-0.2041,0.7871,-1023.19,-1266.05,17.09
4150,-3.8727,-0.2065,0.7933,1883.06,765.20,798.40
4160,-3.8727,-0.2012,0.7849,1570.56,1562.07,1204.65
4170,-3.8727,-0.1938,0.7703,-1741.94,483.95,954.65
4180,-3.8727,-0.1908,0.7605,-804.44,-1391.05,423.34
4190,-3.8728,-0.1941,0.7631,-413.82,1358.95,-248.54
4200,-3.8728,-0.2007,0.7780,-835.69,1687.07,-1076.66
4210,-3.8728,-0.2057,0.7955,-1679.44,-406.68,-1795.41
4220,-3.8728,-0.2092,0.8043,1679.93,1843.32,1704.65
4230,-3.8728,-0.2122,0.8027,1226.81,-1031.68,1329.65
4240,-3.8728,-0.2068,0.7860,1086.18,1405.82,1001.53
4250,-3.8728,-0.2021,0.7769,1539.31,624.57,1064.03
4260,-3.8728,-0.1937,0.7673,-1866.94,-547.30,1501.46
4270,-3.8728,-0.1791,0.7644,-788.82,-1766.05,1829.59
4280,-3.8728,-0.1633,0.7695,1086.18,1859.01,1595.21
4290,-3.8728,-0.1559,0.7758,-898.19,-1484.74,735.84
4300,-3.8729,-0.1577,0.7800,54.93,-687.81,-61.04
4310,-3.8729,-0.1605,0.7827,-179.44,-140.99,-14.16
4320,-3.8728,-0.1593,0.7798,-538.82,202.76,1110.90
4330,-3.8728,-0.1562,0.7695,-382.57,-172.24,-1295.41
4340,-3.8727,-0.1558,0.7592,8.06,-1484.68,220.21
4350,-3.8727,-0.1599,0.7568,70.56,1187.19,1548.34
4360,-3.8727,-0.1667,0.7618,-460.69,890.26,-1592.29
4370,-3.8727,-0.1724,0.7650,-1335.69,1530.88,-1514.16
4380,-3.8727,-0.1743,0.7632,1945.56,1937.13,1688.96
4390,-3.8727,-0.1753,0.7623,1695.56,1702.76,407.71
4400,-3.8728,-0.1801,0.7670,1570.56,1593.38,-826.66
4410,-3.8728,-0.1890,0.7769,961.18,-1812.87,-1686.04
4420,-3.8728,-0.1973,0.7847,-179.44,-547.30,-1701.66
4430,-3.8728,-0.1991,0.7823,-1241.94,452.70,-1076.60
4440,-3.8727,-0.1949,0.7697,-1476.32,155.82,1.53
4450,-3.8727,-0.1907,0.7552,-945.07,-1469.18,1470.21
4460,-3.8727,-0.1902,0.7480,-398.19,687.07,-811.04
4470,-3.8726,-0.1925,0.7505,-335.69,-234.80,1095.15
4480,-3.8726,-0.1946,0.7566,-632.57,77.70,-1123.54
4490,-3.8724,-0.1953,0.7560,-898.19,858.95,157.71
4500,-3.8724,-0.1980,0.7473,-991.94,780.82,1095.21
4510,-3.8724,-0.2048,0.7332,-1335.69,-328.55,-1498.60
4520,-3.8723,-0.2131,0.7155,1789.31,1858.95,126.40
4530,-3.8723,-0.2168,0.7054,726.81,-406.68,798.22
4540,-3.8723,-0.2129,0.7140,258.06,-1687.93,220.09
4550,-3.8724,-0.2052,0.7369,758.06,-594.18,-1576.78
4560,-3.8726,-0.1960,0.7614,1742.43,-1656.68,-576.72
4570,-3.8727,-0.1855,0.7739,-1085.69,1468.32,-154.79
4580,-3.8727,-0.1719,0.7701,258.06,-922.24,501.46
4590,-3.8728,-0.1562,0.7625,-1991.94,-1406.62,1923.34
4600,-3.8728,-0.1482,0.7638,8.06,1609.07,532.71
4610,-3.8728,-0.1555,0.7709,1039.31,1780.94,110.84
4620,-3.8729,-0.1708,0.7773,101.81,-1312.81,-76.66
4630,-3.8729,-0.1792,0.7861,-1851.32,-484.74,-686.04
4640,-3.8729,-0.1738,0.7997,1070.56,640.26,1876.53
4650,-3.8730,-0.1589,0.8091,1758.06,-1625.37,-92.22
4660,-3.8730,-0.1439,0.8037,-335.69,-422.24,-1404.72
4670,-3.8730,-0.1348,0.7867,1586.18,-1109.68,-1123.47
4680,-3.8729,-0.1350,0.7703,-1241.94,718.44,814.03
4690,-3.8729,-0.1506,0.7584,-1273.19,-1390.93,-107.91
4700,-3.8728,-0.1770,0.7484,726.81,1093.44,-623.54
4710,-3.8727,-0.1992,0.7428,1351.81,-187.87,-1576.72
4720,-3.8726,-0.2084,0.7460,-1491.94,-906.68,63.90
4730,-3.8727,-0.2052,0.7562,1336.18,-500.43,-248.60
4740,-3.8727,-0.1934,0.7687,1742.43,812.07,-1998.54
4750,-3.8728,-0.1760,0.7791,-741.94,-1594.18,-29.79
4760,-3.8728,-0.1605,0.7819,1476.81,-265.99,-1076.66
4770,-3.8728,-0.1556,0.7726,-538.82,93.38,-576.60
4780,-3.8727,-0.1638,0.7563,86.18,-1094.06,1157.71
4790,-3.8727,-0.1816,0.7444,-960.69,827.76,-561.04
4800,-3.8726,-0.2004,0.7405,758.06,-703.49,1392.03
4810,-3.8726,-0.2100,0.7419,-1648.19,-1203.55,-1482.97
4820,-3.8726,-0.2054,0.7462,1133.06,-1016.05,-1404.85
4830,-3.8726,-0.1903,0.7522,1711.18,-469.18,1907.65
4840,-3.8726,-0.1746,0.7574,-351.32,296.45,1204.59
4850,-3.8726,-0.1683,0.7565,1664.31,968.38,1220.21
4860,-3.8726,-0.1738,0.7484,-1538.82,843.38,1923.34
4870,-3.8726,-0.1858,0.7396,1758.06,-187.87,-1420.47
4880,-3.8726,-0.1969,0.7393,226.81,-1312.87,-1498.60
4890,-3.8726,-0.2025,0.7511,-1195.07,-1359.80,1454.53
4900,-3.8727,-0.2007,0.7698,-1913.82,155.82,-404.79
4910,-3.8727,-0.1918,0.7828,-1679.44,-1453.55,1657.71
4920,-3.8727,-0.1774,0.7823,-538.82,218.32,767.15
4930,-3.8727,-0.1613,0.7712,1304.93,155.88,1282.78
4940,-3.8727,-0.1497,0.7551,-632.57,-1265.99,-1326.66
4950,-3.8726,-0.1461,0.7416,851.81,671.57,157.71
4960,-3.8726,-0.1471,0.7340,1304.93,-1062.81,1235.78
4970,-3.8726,-0.1458,0.7308,1179.93,1968.44,1376.40
4980,-3.8726,-0.1406,0.7325,1351.81,1562.19,501.40
4990,-3.8727,-0.1348,0.7390,-1991.94,1780.94,-764.22
5000,-3.8727,-0.1313,0.7455,-1241.94,-1390.93,-1623.60
5010,-3.8727,-0.1301,0.7467,-804.44,-562.81,-1779.85
5020,-3.8727,-0.1298,0.7435,-648.19,-406.56,-1373.60
5030,-3.8727,-0.1316,0.7419,-601.32,-812.81,-936.10
5040,-3.8727,-0.1372,0.7472,-835.69,-1015.93,-1029.85
5050,-3.8727,-0.1464,0.7542,-1554.44,-344.06,-1389.22
5060,-3.8727,-0.1543,0.7570,1273.68,546.57,-1732.91
5070,-3.8727,-0.1552,0.7581,258.06,905.94,-1873.54
5080,-3.8727,-0.1490,0.7616,148.68,1046.57,-1607.91
5090,-3.8727,-0.1396,0.7665,929.93,1499.69,-982.91
5100,-3.8727,-0.1329,0.7684,-1866.94,-1875.31,-14.16
5110,-3.8726,-0.1364,0.7634,-1007.57,-1625.31,1329.59
5120,-3.8726,-0.1493,0.7507,-1445.07,1734.07,-998.54
5130,-3.8724,-0.1595,0.7382,898.68,109.07,563.96
5140,-3.8724,-0.1591,0.7335,-413.82,-1500.37,1704.53
5150,-3.8724,-0.1528,0.7362,-351.32,1905.88,-1529.85
5160,-3.8724,-0.1506,0.7396,445.56,-1750.31,-951.72
5170,-3.8724,-0.1555,0.7358,726.81,-1312.81,-107.97
5180,-3.8723,-0.1625,0.7219,101.81,-1797.18,1063.90
5190,-3.8723,-0.1658,0.7047,-788.82,421.51,1782.65
5200,-3.8723,-0.1621,0.6959,-1210.69,-1781.62,1673.22
5210,-3.8723,-0.1543,0.7004,-741.94,1093.38,766.97
5220,-3.8724,-0.1505,0.7139,258.06,1671.57,-748.66
5230,-3.8724,-0.1519,0.7292,742.43,-609.68,1751.34
5240,-3.8724,-0.1511,0.7455,570.56,1359.07,485.78
5250,-3.8726,-0.1478,0.7611,664.31,-562.81,-654.85
5260,-3.8726,-0.1442,0.7671,1086.18,1437.19,-1326.66
5270,-3.8726,-0.1370,0.7574,1554.93,-1797.18,-1264.16
5280,-3.8726,-0.1256,0.7380,-1523.19,968.44,-701.66
5290,-3.8726,-0.1145,0.7218,-70.07,-1515.93,-186.10
5300,-3.8726,-0.1062,0.7166,1351.81,406.01,-76.72
5310,-3.8726,-0.0986,0.7229,-1585.69,-265.87,-342.41
5320,-3.8726,-0.0907,0.7350,-616.94,546.63,-857.97
5330,-3.8726,-0.0864,0.7457,398.68,-1906.43,-1842.35
5340,-3.8726,-0.0884,0.7540,945.56,-531.43,392.03
5350,-3.8727,-0.0950,0.7645,695.56,531.07,1813.96
5360,-3.8728,-0.1067,0.7783,-148.19,1874.76,-1232.91
5370,-3.8728,-0.1266,0.7872,-1648.19,-359.62,235.84
5380,-3.8729,-0.1503,0.7844,-195.07,780.94,-764.10
5390,-3.8729,-0.1633,0.7771,773.68,421.57,-154.72
5400,-3.8728,-0.1565,0.7771,-898.19,-515.99,1188.96
5410,-3.8728,-0.1356,0.7841,-23.19,-515.99,-1545.41
5420,-3.8728,-0.1140,0.7869,-1351.32,374.69,-592.22
5430,-3.8727,-0.1012,0.7800,1414.31,734.13,17.15
5440,-3.8727,-0.1024,0.7686,-945.07,-140.87,376.46
5450,-3.8727,-0.1196,0.7588,-1101.32,-1609.62,798.34
5460,-3.8727,-0.1478,0.7571,695.56,1140.38,1251.46
5470,-3.8727,-0.1687,0.7672,1086.18,921.57,1407.71
5480,-3.8727,-0.1686,0.7841,-1585.69,-1781.62,829.59
5490,-3.8728,-0.1530,0.7959,-1570.07,374.63,-357.85
5500,-3.8728,-0.1361,0.7955,429.93,1890.32,-1435.97
5510,-3.8728,-0.1256,0.7870,-1413.82,1843.44,-1764.10
5520,-3.8728,-0.1226,0.7795,-70.07,749.69,-1295.35
5530,-3.8728,-0.1278,0.7756,320.56,-203.37,-373.54
5540,-3.8727,-0.1445,0.7711,-351.32,-703.43,688.96
5550,-3.8727,-0.1691,0.7659,1508.06,-1281.56,1923.34
5560,-3.8727,-0.1876,0.7634,-1632.57,-1953.49,-951.66
5570,-3.8727,-0.1918,0.7690,-7.57,1733.95,-1014.16
5580,-3.8727,-0.1836,0.7808,-538.82,-1547.30,1313.96
5590,-3.8728,-0.1685,0.7886,508.06,-47.24,-826.66
5600,-3.8728,-0.1488,0.7866,-1554.44,952.76,1892.15
5610,-3.8728,-0.1279,0.7777,961.18,702.82,-1810.97
5620,-3.8727,-0.1136,0.7676,-366.94,-437.81,126.46
5630,-3.8727,-0.1147,0.7552,1461.18,-1734.62,-889.16
5640,-3.8726,-0.1356,0.7360,1320.56,687.26,-1873.54
5650,-3.8724,-0.1716,0.7131,-1351.32,-1781.56,532.65
5660,-3.8724,-0.2089,0.6990,-1960.69,-703.49,-1998.66
5670,-3.8724,-0.2323,0.7032,1273.68,1483.95,1876.34
5680,-3.8726,-0.2327,0.7245,-1726.32,-1969.24,-264.28
5690,-3.8726,-0.2111,0.7512,-1773.19,749.51,157.65
5700,-3.8727,-0.1776,0.7743,992.43,171.45,688.96
5710,-3.8728,-0.1464,0.7843,1273.68,-875.37,-967.29
5720,-3.8728,-0.1257,0.7744,1273.68,405.94,-60.97
5730,-3.8727,-0.1202,0.7474,-85.69,-859.68,-920.41
5740,-3.8726,-0.1338,0.7156,617.43,-312.74,-482.97
5750,-3.8724,-0.1627,0.6936,-1116.94,-390.93,-404.91
5760,-3.8723,-0.1926,0.6879,-820.07,796.51,1845.09
5770,-3.8723,-0.2090,0.7014,-648.19,62.07,1423.22
5780,-3.8724,-0.2064,0.7310,1258.06,1796.45,-1561.16
5790,-3.8726,-0.1851,0.7632,1586.18,1577.70,-1607.97
5800,-3.8727,-0.1492,0.7843,320.56,1702.76,-936.04
5810,-3.8727,-0.1107,0.7850,914.31,405.94,1845.28
5820,-3.8727,-0.0851,0.7665,1836.18,499.76,-920.35
5830,-3.8726,-0.0812,0.7368,1117.43,-1875.18,-1936.04
5840,-3.8724,-0.1022,0.7078,1617.43,-1672.06,1517.03
5850,-3.8723,-0.1459,0.6924,-1070.07,-1390.87,79.47
5860,-3.8723,-0.1915,0.6969,1336.18,640.32,1220.09
5870,-3.8723,-0.2092,0.7196,-507.57,1218.32,563.84
5880,-3.8724,-0.1891,0.7555,1226.81,124.57,1751.40
5890,-3.8726,-0.1465,0.7891,-195.07,718.32,1907.71
5900,-3.8727,-0.1018,0.8020,1258.06,1015.32,-1139.10
5910,-3.8727,-0.0696,0.7927,-1023.19,-1328.37,1642.15
5920,-3.8727,-0.0597,0.7719,-898.19,1484.19,-1764.10
5930,-3.8726,-0.0758,0.7493,367.43,-1187.62,63.96
5940,-3.8726,-0.1134,0.7307,-1695.07,-78.31,-1904.85
5950,-3.8726,-0.1570,0.7207,1492.43,1546.63,-467.35
5960,-3.8724,-0.1841,0.7207,-85.69,265.26,188.90
5970,-3.8726,-0.1775,0.7328,445.56,265.26,-404.85
5980,-3.8726,-0.1411,0.7555,1289.31,1812.13,1673.28
5990,-3.8727,-0.0970,0.7781,1945.56,718.44,-404.79
6000,-3.8727,-0.0643,0.7848,-413.82,-390.87,-920.41
6010,-3.8726,-0.0468,0.7701,-226.32,468.57,501.53
6020,-3.8726,-0.0446,0.7443,-1976.32,-1406.37,-1076.66
6030,-3.8724,-0.0625,0.7213,-1695.07,-718.87,1017.03
6040,-3.8724,-0.0981,0.7114,8.06,343.63,1892.03
6050,-3.8724,-0.1312,0.7196,-554.44,-922.12,1579.47
6060,-3.8724,-0.1404,0.7439,-788.82,124.69,126.40
6070,-3.8726,-0.1228,0.7673,-1960.69,-765.93,-1982.97
6080,-3.8726,-0.0880,0.7726,289.31,-1765.87,470.21
6090,-3.8726,-0.0500,0.7601,742.43,-1093.93,376.46
6100,-3.8726,-0.0239,0.7421,1601.81,1312.38,1548.34
6110,-3.8726,-0.0190,0.7300,945.56,-1000.06,-1045.47
6120,-3.8724,-0.0330,0.7273,1570.56,1453.06,251.40
6130,-3.8724,-0.0544,0.7275,-210.69,1109.25,1470.15
6140,-3.8724,-0.0709,0.7251,1039.31,1140.50,-1889.22
6150,-3.8724,-0.0745,0.7263,-1070.07,827.94,1517.03
6160,-3.8726,-0.0665,0.7410,-1523.19,984.19,-326.72
6170,-3.8726,-0.0558,0.7659,-507.57,-1140.81,1095.15
6180,-3.8727,-0.0490,0.7875,867.43,-1953.25,-1373.54
6190,-3.8727,-0.0460,0.7949,1742.43,812.38,1485.90
6200,-3.8727,-0.0446,0.7875,-1882.57,1765.50,-1779.72
6210,-3.8727,-0.0439,0.7716,-1695.07,812.38,-60.97
6220,-3.8726,-0.0476,0.7543,-1616.94,-1218.87,1345.21
6230,-3.8726,-0.0610,0.7440,1914.31,562.38,1970.21
6240,-3.8726,-0.0857,0.7439,195.56,-750.12,-1670.47
6250,-3.8726,-0.1117,0.7461,1039.31,-765.81,-1139.22
6260,-3.8726,-0.1229,0.7463,1711.18,-484.62,-701.72
6270,-3.8726,-0.1130,0.7505,273.68,-453.37,-967.35
6280,-3.8726,-0.0905,0.7634,1539.31,77.88,1595.21
6290,-3.8727,-0.0707,0.7783,429.93,1734.19,-357.91
6300,-3.8727,-0.0637,0.7814,-1038.82,-359.56,-1498.54
6310,-3.8727,-0.0706,0.7679,-148.19,31.07,-998.47
6320,-3.8726,-0.0875,0.7476,-1023.19,-1687.68,720.21
6330,-3.8726,-0.1094,0.7339,804.93,-297.06,-1764.22
6340,-3.8726,-0.1295,0.7372,-1991.94,1952.88,-1748.60
6350,-3.8726,-0.1409,0.7557,-570.07,-1625.31,579.53
6360,-3.8727,-0.1371,0.7787,1976.81,749.69,-1842.29
6370,-3.8727,-0.1183,0.7932,-1538.82,-312.81,235.84
6380,-3.8728,-0.0916,0.7925,867.43,1546.63,-279.72
6390,-3.8727,-0.0699,0.7776,289.31,1452.94,954.65
6400,-3.8727,-0.0646,0.7565,-945.07,-453.31,-623.54
6410,-3.8726,-0.0800,0.7408,-257.57,843.57,1735.84
6420,-3.8726,-0.1136,0.7352,1773.68,-1156.43,-951.72
6430,-3.8726,-0.1522,0.7388,1461.18,-1875.24,-1154.85
6440,-3.8726,-0.1744,0.7505,523.68,-1422.18,1454.53
6450,-3.8727,-0.1655,0.7683,1679.93,77.76,-529.79
6460,-3.8727,-0.1322,0.7865,-1179.44,-1640.99,1517.09
6470,-3.8727,-0.0991,0.7942,-913.82,687.19,751.53
6480,-3.8727,-0.0880,0.7849,-679.44,1671.63,-1951.60
6490,-3.8726,-0.1016,0.7622,742.43,484.19,907.78
6500,-3.8726,-0.1260,0.7385,-991.94,1577.88,-529.79
6510,-3.8724,-0.1477,0.7288,-116.94,-1453.43,32.65
6520,-3.8726,-0.1605,0.7395,1101.81,1296.57,-1639.22
6530,-3.8727,-0.1631,0.7638,-538.82,-1328.49,-748.60
6540,-3.8728,-0.1549,0.7847,-866.94,1780.88,-342.29
6550,-3.8728,-0.1362,0.7928,179.93,452.82,689.03
6560,-3.8729,-0.1118,0.7949,-1429.44,1499.69,-920.35
6570,-3.8729,-0.0938,0.7987,1695.56,1765.38,-1201.60
6580,-3.8729,-0.0927,0.7979,8.06,-1750.18,-326.60
6590,-3.8728,-0.1090,0.7821,148.68,-1859.56,1782.78
6600,-3.8727,-0.1356,0.7557,-1945.07,124.76,923.40
6610,-3.8726,-0.1616,0.7324,-1351.32,749.69,48.34
6620,-3.8726,-0.1793,0.7240,-679.44,1765.26,-1951.72
6630,-3.8726,-0.1881,0.7356,1054.93,687.13,-1357.97
6640,-3.8726,-0.1910,0.7565,-70.07,-1828.55,-1764.22
6650,-3.8726,-0.1869,0.7688,-445.07,843.32,1767.09
6660,-3.8726,-0.1721,0.7671,86.18,-1578.49,1642.09
6670,-3.8726,-0.1499,0.7610,1976.81,-1797.24,1173.34
6680,-3.8727,-0.1315,0.7623,820.56,1421.57,-107.91
6690,-3.8727,-0.1284,0.7721,-820.07,1593.44,-1842.29
6700,-3.8727,-0.1429,0.7791,-429.44,-1156.56,735.84
6710,-3.8727,-0.1663,0.7737,1711.18,-265.93,595.21
6720,-3.8727,-0.1866,0.7579,-1273.19,-953.49,1798.34
6730,-3.8727,-0.1943,0.7465,117.43,1030.88,-748.54
6740,-3.8727,-0.1864,0.7490,-866.94,-437.93,-186.10
6750,-3.8727,-0.1683,0.7598,148.68,-109.74,-842.35
6760,-3.8727,-0.1484,0.7675,-1538.82,1265.26,-1936.04
6770,-3.8727,-0.1312,0.7659,1008.06,-1750.31,1298.34
6780,-3.8727,-0.1178,0.7609,-788.82,-1953.43,798.34
6790,-3.8727,-0.1097,0.7637,929.93,1406.01,157.71
6800,-3.8728,-0.1115,0.7761,1961.18,1765.38,-686.04
6810,-3.8728,-0.1267,0.7865,1742.43,-640.87,-1420.41
6820,-3.8728,-0.1530,0.7827,-210.69,687.19,-1701.60
6830,-3.8728,-0.1761,0.7693,429.93,202.82,-982.85
6840,-3.8727,-0.1840,0.7595,1461.18,-1515.99,720.21
6850,-3.8727,-0.1752,0.7587,461.18,1234.01,-1592.29
6860,-3.8727,-0.1575,0.7612,1586.18,1124.63,-717.29
6870,-3.8727,-0.1403,0.7617,-148.19,1452.76,-357.91
6880,-3.8726,-0.1283,0.7596,-1945.07,1515.32,251.46
6890,-3.8726,-0.1233,0.7565,-413.82,1249.69,907.71
6900,-3.8726,-0.1296,0.7548,226.81,843.51,1235.84
6910,-3.8726,-0.1517,0.7542,-585.69,624.69,1157.71
6920,-3.8726,-0.1827,0.7565,586.18,546.57,470.21
6930,-3.8727,-0.2058,0.7634,617.43,843.38,-779.79
6940,-3.8727,-0.2079,0.7732,1664.31,1733.95,1845.21
6950,-3.8727,-0.1879,0.7776,1398.68,-1016.05,1126.46
6960,-3.8727,-0.1542,0.7699,-38.82,-453.55,1626.46
6970,-3.8727,-0.1207,0.7549,273.68,-1437.81,-576.66
6980,-3.8726,-0.1002,0.7412,554.93,640.38,1642.09
6990,-3.8726,-0.1006,0.7324,-820.07,-1109.62,-889.22
7000,-3.8726,-0.1218,0.7302,-866.94,1765.38,-529.85
7010,-3.8726,-0.1541,0.7357,414.31,1484.13,-1186.10
7020,-3.8726,-0.1807,0.7477,289.31,-1812.81,1735.78
7030,-3.8726,-0.1879,0.7617,883.06,-281.62,673.28
7040,-3.8727,-0.1721,0.7736,-38.82,1515.20,-514.16
7050,-3.8727,-0.1429,0.7777,1976.81,-969.12,-1717.29
7060,-3.8727,-0.1130,0.7703,1711.18,-437.81,1532.71
7070,-3.8727,-0.0912,0.7563,1539.31,-1390.87,1454.59
7080,-3.8727,-0.0825,0.7474,336.18,827.94,1532.71
7090,-3.8727,-0.0869,0.7488,1445.56,-312.68,1313.90
7100,-3.8727,-0.0994,0.7568,883.06,-140.81,985.78
7110,-3.8727,-0.1146,0.7622,-710.69,890.38,970.21
7120,-3.8727,-0.1274,0.7607,1336.18,1577.88,1345.21
7130,-3.8727,-0.1333,0.7573,-304.44,1390.32,-1904.79
7140,-3.8727,-0.1305,0.7573,-1054.44,952.82,-936.04
7150,-3.8727,-0.1232,0.7604,-695.07,952.82,-326.66
7160,-3.8727,-0.1179,0.7617,242.43,1343.51,-14.16
7170,-3.8726,-0.1161,0.7622,914.31,1515.38,532.71
7180,-3.8726,-0.1160,0.7645,1148.68,1577.88,1376.46
7190,-3.8726,-0.1167,0.7635,1164.31,1874.76,1970.21
7200,-3.8726,-0.1191,0.7559,1070.56,1749.76,-1951.66
7210,-3.8726,-0.1252,0.7461,758.06,765.38,-1764.16
7220,-3.8726,-0.1333,0.7397,-23.19,-484.68,-1139.22
7230,-3.8726,-0.1377,0.7383,-1054.44,-1297.18,-389.22
7240,-3.8724,-0.1381,0.7394,-1616.94,-1484.68,142.03
7250,-3.8724,-0.1379,0.7411,-1663.82,-1344.06,532.65
7260,-3.8724,-0.1388,0.7434,-1648.19,-1125.31,845.15
7270,-3.8724,-0.1406,0.7467,-1757.57,-828.43,532.65
7280,-3.8726,-0.1444,0.7507,-1991.94,-406.56,-545.47
7290,-3.8726,-0.1479,0.7546,1523.68,109.07,-1982.91
7300,-3.8726,-0.1453,0.7607,1070.56,609.07,376.46
7310,-3.8727,-0.1327,0.7676,1414.31,1390.32,-1107.91
7320,-3.8727,-0.1130,0.7683,-976.32,-1734.68,-1686.04
7330,-3.8727,-0.0941,0.7572,1539.31,-1640.87,-967.29
7340,-3.8726,-0.0826,0.7385,-38.82,937.26,610.84
7350,-3.8726,-0.0803,0.7238,1429.93,-1453.31,-1623.60
7360,-3.8726,-0.0879,0.7217,1726.81,656.07,-545.47
7370,-3.8726,-0.1053,0.7341,758.06,390.44,-717.35
7380,-3.8726,-0.1277,0.7548,-1476.32,1984.13,1892.03
7390,-3.8726,-0.1399,0.7745,-335.69,624.69,1.46
7400,-3.8727,-0.1324,0.7859,-1898.19,-844.06,-1639.16
7410,-3.8727,-0.1106,0.7856,-945.07,609.07,1126.53
7420,-3.8727,-0.0857,0.7771,1851.81,577.88,376.53
7430,-3.8727,-0.0693,0.7684,1039.31,-515.81,532.71
7440,-3.8727,-0.0665,0.7616,-866.94,-1625.18,1782.71
7450,-3.8727,-0.0773,0.7521,-507.57,1499.82,-217.29
7460,-3.8726,-0.1012,0.7388,-1882.57,281.07,-1873.54
7470,-3.8724,-0.1348,0.7258,-945.07,-1422.12,79.53
7480,-3.8724,-0.1655,0.7211,-1241.94,921.57,1376.40
7490,-3.8724,-0.1771,0.7285,-1179.44,312.13,1829.53
7500,-3.8724,-0.1652,0.7451,1336.18,1265.26,1032.65
7510,-3.8726,-0.1407,0.7638,-1132.57,-609.74,-998.60
7520,-3.8726,-0.1189,0.7747,1992.43,1780.94,782.71
7530,-3.8727,-0.1062,0.7734,789.31,-828.37,-545.41
7540,-3.8727,-0.1041,0.7635,-1585.69,-984.62,-686.04
7550,-3.8726,-0.1128,0.7496,-1320.07,1749.76,79.59
7560,-3.8726,-0.1320,0.7360,1570.56,-31.49,1376.40
7570,-3.8726,-0.1565,0.7269,-882.57,-1781.56,-1186.10
7580,-3.8724,-0.1715,0.7253,-23.19,1062.13,95.15
7590,-3.8724,-0.1669,0.7307,-1945.07,859.01,892.03
7600,-3.8724,-0.1477,0.7377,-1351.32,1546.51,907.65
7610,-3.8724,-0.1255,0.7428,1101.81,-1562.81,157.65
7620,-3.8726,-0.1094,0.7500,-54.44,-906.56,-857.97
7630,-3.8726,-0.1041,0.7598,-1991.94,15.38,-1529.79
7640,-3.8726,-0.1108,0.7634,-1320.07,1265.38,-1811.04
7650,-3.8726,-0.1260,0.7577,1820.56,1734.13,-1982.91
7660,-3.8726,-0.1403,0.7467,-116.94,999.69,1938.96
7670,-3.8726,-0.1460,0.7391,-1945.07,-406.56,1798.28
7680,-3.8726,-0.1428,0.7402,1320.56,-1375.31,1282.65
7690,-3.8726,-0.1342,0.7483,1726.81,-1234.68,673.28
7700,-3.8726,-0.1196,0.7574,-1163.82,-203.43,360.78
7710,-3.8726,-0.1003,0.7633,695.56,968.51,298.34
7720,-3.8726,-0.0850,0.7640,-835.69,1718.51,345.21
7730,-3.8726,-0.0842,0.7587,1133.06,1812.32,423.34
7740,-3.8726,-0.0991,0.7534,1226.81,1124.82,532.71
7750,-3.8726,-0.1202,0.7523,-679.44,452.88,813.96
7760,-3.8726,-0.1389,0.7502,617.43,312.26,1017.09
7770,-3.8726,-0.1482,0.7452,-1773.19,46.57,1017.09
7780,-3.8726,-0.1437,0.7421,1039.31,-594.06,1204.53
7790,-3.8726,-0.1283,0.7441,1617.43,-1000.31,1673.28
7800,-3.8726,-0.1125,0.7490,-413.82,-734.68,-1967.35
7810,-3.8726,-0.1030,0.7524,1601.81,-109.62,-1639.22
7820,-3.8726,-0.0997,0.7521,-1179.44,327.88,-1014.16
7830,-3.8726,-0.1022,0.7472,-757.57,281.01,-404.79
7840,-3.8726,-0.1108,0.7400,-1070.07,-343.99,-61.10
7850,-3.8724,-0.1240,0.7357,1820.56,-1265.87,17.03
7860,-3.8726,-0.1379,0.7405,133.06,-1812.74,-342.35
7870,-3.8726,-0.1486,0.7506,-1648.19,-1203.43,-1186.10
7880,-3.8726,-0.1490,0.7560,992.43,93.44,1907.71
7890,-3.8726,-0.1355,0.7537,929.93,780.94,1485.84
7900,-3.8726,-0.1127,0.7513,-1335.69,484.07,1329.59
7910,-3.8726,-0.0934,0.7545,1586.18,187.26,1001.46
7920,-3.8726,-0.0868,0.7599,54.93,593.57,579.59
7930,-3.8726,-0.0936,0.7629,898.68,1281.07,438.96
7940,-3.8726,-0.1097,0.7620,23.68,1671.69,767.09
7950,-3.8726,-0.1277,0.7572,1961.18,1546.63,1142.09
7960,-3.8727,-0.1340,0.7540,1726.81,-47.18,-826.72
7970,-3.8727,-0.1199,0.7598,-1148.19,530.94,-1264.16
7980,-3.8727,-0.1061,0.7590,664.31,1265.38,-1029.79
7990,-3.8727,-0.0963,0.7524,-1570.07,1171.63,-170.41
8000,-3.8726,-0.0947,0.7472,-320.07,327.88,970.21
8010,-3.8726,-0.1044,0.7463,-116.94,-343.99,1845.15
8020,-3.8726,-0.1226,0.7471,-1351.32,-453.37,-1717.35
8030,-3.8726,-0.1414,0.7480,320.56,-359.62,-1873.60
8040,-3.8726,-0.1526,0.7512,1914.31,-234.68,1313.90
8050,-3.8726,-0.1510,0.7557,476.81,171.57,173.34
8060,-3.8727,-0.1372,0.7618,679.93,749.69,-1170.41
8070,-3.8727,-0.1187,0.7704,-1554.44,1530.94,1454.59
8080,-3.8727,-0.1038,0.7792,820.56,-1375.24,470.21
8090,-3.8727,-0.0996,0.7809,-1273.19,-250.24,267.09
8100,-3.8727,-0.1077,0.7710,-741.94,-31.49,1032.71
8110,-3.8727,-0.1230,0.7562,-1773.19,-1297.12,-1311.04
8120,-3.8726,-0.1411,0.7461,258.06,812.26,595.21
8130,-3.8726,-0.1593,0.7426,1945.56,-484.68,-1951.72
8140,-3.8726,-0.1730,0.7418,-382.57,-937.87,-1014.22
8150,-3.8726,-0.1741,0.7391,1867.43,-1031.62,-404.85
8160,-3.8726,-0.1594,0.7362,1726.81,-1375.37,-311.10
8170,-3.8726,-0.1345,0.7366,-398.19,-1750.37,-842.35
8180,-3.8726,-0.1101,0.7426,-1210.69,-1703.43,-1498.60
8190,-3.8726,-0.0981,0.7526,1914.31,-937.74,-1904.85
8200,-3.8726,-0.1057,0.7588,-554.44,343.51,1798.34
8210,-3.8726,-0.1274,0.7570,-1523.19,1140.38,1454.59
8220,-3.8726,-0.1486,0.7526,-304.44,905.94,1126.46
8230,-3.8726,-0.1583,0.7534,992.43,343.44,688.96
8240,-3.8726,-0.1553,0.7588,-257.57,452.76,17.09
8250,-3.8727,-0.1418,0.7622,133.06,1140.32,-826.66
8260,-3.8727,-0.1206,0.7616,1851.81,1577.82,-1561.04
8270,-3.8727,-0.0979,0.7576,570.56,1499.76,-1936.04
8280,-3.8727,-0.0818,0.7524,-523.19,984.13,1970.21
8290,-3.8727,-0.0781,0.7518,1539.31,327.94,1954.59
8300,-3.8727,-0.0906,0.7548,-1991.94,249.82,-1764.16
8310,-3.8727,-0.1180,0.7544,414.31,624.82,-1107.91
8320,-3.8727,-0.1516,0.7472,898.68,577.88,-45.41
8330,-3.8726,-0.1761,0.7377,601.81,-344.06,1517.03
8340,-3.8726,-0.1815,0.7349,1461.18,-1562.87,-1326.72
8350,-3.8726,-0.1700,0.7432,773.68,-1922.24,-1436.10
8360,-3.8726,-0.1516,0.7584,-1757.57,-859.74,1517.03
8370,-3.8726,-0.1355,0.7719,601.81,1093.44,517.09
8380,-3.8726,-0.1243,0.7740,-1335.69,-1187.81,204.59
8390,-3.8726,-0.1180,0.7638,101.81,-906.49,673.34
8400,-3.8726,-0.1204,0.7476,898.68,1781.01,1517.09
8410,-3.8726,-0.1324,0.7347,601.81,-297.12,-1701.72
8420,-3.8726,-0.1488,0.7322,-945.07,-1937.81,-1123.60
8430,-3.8726,-0.1594,0.7389,961.18,1734.07,-936.10
8440,-3.8726,-0.1567,0.7467,-398.19,-1406.62,-967.35
8450,-3.8726,-0.1405,0.7495,-54.44,-406.62,-982.97
8460,-3.8726,-0.1176,0.7488,-1976.32,-47.18,-795.47
8470,-3.8726,-0.0988,0.7448,961.18,-140.87,-342.35
8480,-3.8724,-0.0934,0.7393,-632.57,-656.49,32.65
8490,-3.8726,-0.1050,0.7368,54.93,-1359.56,-92.35
8500,-3.8726,-0.1285,0.7411,-1429.44,-1672.12,-732.97
8510,-3.8726,-0.1509,0.7502,-445.07,-1125.31,-1467.35
8520,-3.8726,-0.1576,0.7561,695.56,46.57,1985.84
8530,-3.8726,-0.1453,0.7563,-163.82,796.51,1298.34
8540,-3.8726,-0.1235,0.7561,1414.31,827.82,282.71
8550,-3.8727,-0.1047,0.7593,195.56,796.63,-779.79
8560,-3.8727,-0.0958,0.7654,-1398.19,1202.88,-1654.79
8570,-3.8727,-0.0983,0.7682,-257.57,1984.13,1813.96
8580,-3.8727,-0.1061,0.7626,-570.07,-1656.49,1798.34
8590,-3.8727,-0.1110,0.7535,-1570.07,1624.76,-1764.16
8600,-3.8727,-0.1127,0.7487,1804.93,468.51,-1311.04
8610,-3.8727,-0.1187,0.7489,1586.18,-156.49,-1139.22
8620,-3.8727,-0.1335,0.7528,820.56,-125.24,-1107.97
8630,-3.8727,-0.1487,0.7598,-1085.69,374.69,-982.91
8640,-3.8727,-0.1510,0.7654,976.81,1265.32,-732.91
8650,-3.8727,-0.1400,0.7656,679.93,1984.07,-654.79
8660,-3.8727,-0.1256,0.7618,-1913.82,-1984.68,-670.41
8670,-3.8727,-0.1178,0.7571,-70.07,1530.94,-795.41
8680,-3.8727,-0.1215,0.7544,929.93,921.63,-936.04
8690,-3.8727,-0.1345,0.7546,461.18,577.88,-920.41
8700,-3.8727,-0.1466,0.7555,-1210.69,609.07,-842.29
8710,-3.8727,-0.1515,0.7570,1242.43,718.44,-873.54
8720,-3.8727,-0.1503,0.7616,617.43,905.94,-1076.66
8730,-3.8727,-0.1444,0.7684,773.68,1499.69,-1123.54
8740,-3.8727,-0.1354,0.7719,1523.68,-1625.31,-748.54
8750,-3.8727,-0.1265,0.7670,-1320.07,-1187.81,-123.54
8760,-3.8726,-0.1202,0.7555,-179.44,-1812.81,751.46
8770,-3.8726,-0.1184,0.7444,617.43,718.51,1735.84
8780,-3.8726,-0.1226,0.7401,851.81,-703.37,-1561.10
8790,-3.8726,-0.1324,0.7422,320.56,-1250.24,-1514.22
8800,-3.8726,-0.1436,0.7463,-945.07,-984.68,1813.90
8810,-3.8726,-0.1486,0.7520,1633.06,-453.43,970.15
8820,-3.8726,-0.1433,0.7577,992.43,265.32,470.21
8830,-3.8726,-0.1307,0.7604,1664.31,999.69,298.34
8840,-3.8726,-0.1168,0.7594,-726.32,1343.44,407.71
8850,-3.8726,-0.1067,0.7581,1054.93,1218.51,688.96
8860,-3.8726,-0.1033,0.7549,-1648.19,1046.63,1188.96
8870,-3.8726,-0.1050,0.7473,-1210.69,640.38,-1998.54
8880,-3.8726,-0.1086,0.7389,-1429.44,-328.37,-1357.97
8890,-3.8726,-0.1123,0.7368,-1898.19,-1406.49,-1311.10
8900,-3.8726,-0.1158,0.7445,1633.06,-1672.12,-1795.47
8910,-3.8726,-0.1194,0.7566,1179.93,-687.74,1501.40
8920,-3.8726,-0.1238,0.7635,726.81,859.13,860.84
8930,-3.8726,-0.1270,0.7632,164.31,1749.76,454.59
8940,-3.8726,-0.1279,0.7606,-241.94,1702.82,392.09
8950,-3.8726,-0.1288,0.7573,-366.94,1374.69,548.34
8960,-3.8726,-0.1307,0.7518,-476.32,952.82,735.84
8970,-3.8726,-0.1327,0.7471,-726.32,249.69,1110.84
8980,-3.8726,-0.1331,0.7468,-976.32,-359.68,1860.78
8990,-3.8726,-0.1321,0.7502,-1023.19,-390.93,-1482.97
9000,-3.8726,-0.1317,0.7543,-898.19,46.57,-1482.91
9010,-3.8726,-0.1306,0.7552,-851.32,562.19,-1998.54
9020,-3.8726,-0.1278,0.7512,-710.69,687.19,1454.59
9030,-3.8726,-0.1232,0.7450,-351.32,171.57,1017.09
9040,-3.8726,-0.1201,0.7385,242.43,-625.24,626.40
9050,-3.8726,-0.1219,0.7363,633.06,-1453.37,329.53
9060,-3.8727,-0.1230,0.7439,398.68,-1734.62,-29.85
9070,-3.8727,-0.1180,0.7589,258.06,-765.87,-514.22
9080,-3.8727,-0.1095,0.7725,898.68,1156.01,-1014.16
9090,-3.8727,-0.1027,0.7745,1992.43,-1109.62,-1107.91
9100,-3.8727,-0.1000,0.7638,-1132.57,-843.99,-545.41
9110,-3.8726,-0.1056,0.7487,-788.82,1781.01,485.84
9120,-3.8726,-0.1237,0.7394,-1507.57,-156.49,1407.65
9130,-3.8726,-0.1466,0.7407,179.93,-1343.99,1954.53
9140,-3.8726,-0.1603,0.7473,1242.43,-1172.18,-1607.97
9150,-3.8726,-0.1567,0.7496,-507.57,-328.49,-1357.97
9160,-3.8726,-0.1389,0.7476,-54.44,-31.62,-1561.10
9170,-3.8726,-0.1189,0.7493,-1773.19,-297.18,1907.65
9180,-3.8726,-0.1085,0.7560,789.31,-78.37,1407.65
9190,-3.8726,-0.1084,0.7609,-1882.57,781.01,1188.96
9200,-3.8726,-0.1129,0.7592,-1866.94,1406.01,1298.34
9210,-3.8726,-0.1173,0.7531,1554.93,1187.26,1657.71
9220,-3.8726,-0.1215,0.7494,992.43,406.01,-1998.54
9230,-3.8726,-0.1281,0.7501,461.18,-62.74,-1873.60
9240,-3.8726,-0.1344,0.7518,-382.57,30.94,1970.21
9250,-3.8726,-0.1337,0.7528,-1195.07,249.69,1501.46
9260,-3.8726,-0.1248,0.7527,-1101.32,374.69,860.84
9270,-3.8726,-0.1111,0.7511,39.31,359.13,267.09
9280,-3.8727,-0.0985,0.7502,1789.31,156.01,-123.54
9290,-3.8727,-0.0933,0.7526,-601.32,46.63,-61.04
9300,-3.8726,-0.0955,0.7561,70.56,343.57,313.96
9310,-3.8726,-0.1003,0.7571,-210.69,796.63,688.96
9320,-3.8726,-0.1079,0.7542,-835.69,921.63,1048.34
9330,-3.8726,-0.1243,0.7483,-1804.44,546.63,1407.71
9340,-3.8726,-0.1515,0.7421,101.81,-203.37,1845.15
9350,-3.8726,-0.1796,0.7394,617.43,-1000.31,-1514.22
9360,-3.8726,-0.1904,0.7411,1023.68,-1344.12,-873.60
9370,-3.8726,-0.1760,0.7446,-366.94,-1125.43,-936.10
9380,-3.8726,-0.1454,0.7483,1476.81,-672.24,-1686.10
9390,-3.8726,-0.1146,0.7544,1398.68,-203.43,1501.40
9400,-3.8726,-0.0938,0.7635,1336.18,577.88,892.09
9410,-3.8726,-0.0873,0.7689,8.06,1749.82,595.21
9420,-3.8726,-0.0938,0.7634,836.18,-1562.68,751.46
9430,-3.8726,-0.1078,0.7507,8.06,1734.19,1438.96
9440,-3.8726,-0.1255,0.7397,-1788.82,109.13,-1607.91
9450,-3.8726,-0.1433,0.7375,-54.44,-1297.18,-1045.47
9460,-3.8726,-0.1534,0.7460,1664.31,-1578.43,-1311.10
9470,-3.8726,-0.1481,0.7614,367.43,-500.31,1532.65
9480,-3.8727,-0.1293,0.7739,1054.93,1468.44,-123.54
9490,-3.8727,-0.1075,0.7758,-538.82,-922.18,-1389.16
9500,-3.8727,-0.0936,0.7668,-1757.57,-687.74,-1779.79
9510,-3.8727,-0.0906,0.7539,23.68,-1828.31,-1529.79
9520,-3.8727,-0.0970,0.7463,414.31,515.44,-1045.41
9530,-3.8727,-0.1113,0.7500,-413.82,-453.37,-701.72
9540,-3.8727,-0.1326,0.7605,1758.06,15.38,-592.29
9550,-3.8727,-0.1553,0.7689,-960.69,1359.07,-389.16
9560,-3.8727,-0.1650,0.7716,133.06,-1562.81,-45.41
9570,-3.8726,-0.1525,0.7703,-1116.94,-1219.12,79.59
9580,-3.8727,-0.1265,0.7660,492.43,-1390.93,-232.91
9590,-3.8727,-0.1023,0.7605,-179.44,-1937.81,-842.29
9600,-3.8727,-0.0879,0.7588,-1085.69,1359.13,-1529.79
9610,-3.8727,-0.0847,0.7592,758.06,1140.44,-1998.54
9620,-3.8727,-0.0897,0.7563,1164.31,1187.32,-1842.29
9630,-3.8727,-0.1010,0.7504,523.68,827.94,-1123.54
9640,-3.8727,-0.1185,0.7467,-913.82,62.26,-92.29
9650,-3.8726,-0.1396,0.7516,836.18,-406.49,563.90
9660,-3.8726,-0.1570,0.7646,-1866.94,218.44,251.46
9670,-3.8727,-0.1613,0.7786,-85.69,1890.26,-842.29
9680,-3.8727,-0.1479,0.7823,-632.57,-328.49,-1998.54
9690,-3.8727,-0.1224,0.7720,1070.56,155.94,1251.53
9700,-3.8727,-0.0968,0.7582,336.18,-1172.12,1298.34
9710,-3.8727,-0.0817,0.7507,-382.57,1062.26,-1670.41
9720,-3.8727,-0.0812,0.7504,1554.93,109.19,-436.04
9730,-3.8726,-0.0946,0.7506,1617.43,62.32,485.84
9740,-3.8726,-0.1190,0.7438,-101.32,93.51,1470.21
9750,-3.8726,-0.1478,0.7303,773.68,-781.49,-1154.85
9760,-3.8724,-0.1713,0.7218,1086.18,1499.69,313.90
9770,-3.8724,-0.1796,0.7289,-1913.82,405.88,1032.65
9780,-3.8724,-0.1709,0.7478,1023.68,1312.13,454.53
9790,-3.8726,-0.1514,0.7672,-1866.94,-265.99,-1389.22
9800,-3.8726,-0.1283,0.7804,633.06,-1781.56,220.21
9810,-3.8727,-0.1083,0.7844,-413.82,-94.06,-1670.41
9820,-3.8727,-0.0956,0.7794,-1851.32,421.63,1564.03
9830,-3.8727,-0.0911,0.7684,-226.32,-218.99,-1982.91
9840,-3.8727,-0.0975,0.7565,351.81,-1625.18,-732.91
9850,-3.8726,-0.1169,0.7482,-476.32,843.51,563.96
9860,-3.8726,-0.1447,0.7449,1039.31,-218.99,1735.78
9870,-3.8726,-0.1671,0.7434,1492.43,-640.93,-1170.47
9880,-3.8726,-0.1698,0.7440,-1382.57,-828.49,-779.85
9890,-3.8726,-0.1505,0.7487,-1726.32,-750.37,-1264.22
9900,-3.8726,-0.1210,0.7551,742.43,-156.56,1704.53
9910,-3.8726,-0.0972,0.7590,523.68,671.63,579.59
9920,-3.8727,-0.0852,0.7598,-429.44,1171.63,-201.66
9930,-3.8727,-0.0865,0.7625,1101.81,1265.44,-842.29
9940,-3.8727,-0.1008,0.7687,929.93,1609.19,-1451.66
9950,-3.8727,-0.1223,0.7728,-898.19,-1593.99,-1826.66
9960,-3.8727,-0.1400,0.7725,351.81,-1062.74,-1779.79
9970,-3.8727,-0.1451,0.7678,-1913.82,-1109.68,-1389.16
9980,-3.8727,-0.1375,0.7611,1429.93,-1703.43,-951.66
9990,-3.8727,-0.1226,0.7563,-1585.69,1437.19,-623.54
10000,-3.8727,-0.1062,0.7532,320.56,827.88,-295.41
10010,-3.8726,-0.0925,0.7487,-1585.69,421.63,235.84
10020,-3.8726,-0.0854,0.7444,164.31,-156.43,532.65
10030,-3.8726,-0.0846,0.7484,1070.56,-703.31,48.28
10040,-3.8727,-0.0916,0.7643,1179.93,-187.68,-1232.97
10050,-3.8727,-0.1058,0.7828,289.31,1843.57,1220.21
10060,-3.8727,-0.1188,0.7935,-1538.82,218.51,142.15
10070,-3.8728,-0.1249,0.7937,804.93,1577.88,-232.85
10080,-3.8728,-0.1267,0.7855,23.68,1609.13,-60.97
10090,-3.8727,-0.1259,0.7749,-210.69,562.19,657.78
