timestamp_ms,ax,ay,az,gx,gy,gz
0,-3.8741,1.6761,-0.9683,-913.82,-1371.83,248.11
10,-3.8739,1.6887,-0.9703,-1445.07,65.73,-626.89
20,-3.8735,1.6620,-0.9540,164.31,-199.83,-220.70
30,-3.8732,1.6075,-0.9253,742.43,1893.86,1669.98
40,-3.8729,1.5591,-0.8994,1773.68,1565.61,779.42
50,-3.8728,1.5417,-0.8961,-429.44,877.99,-17.40
60,-3.8724,1.5530,-0.9211,1351.81,1299.87,1482.60
70,-3.8721,1.5792,-0.9703,-1210.69,-1903.26,-1986.21
80,-3.8716,1.6226,-1.0359,-1851.32,-200.07,1294.92
90,-3.8711,1.6812,-1.1147,-304.44,-590.64,-1564.58
100,-3.8706,1.7278,-1.2053,-804.44,1315.73,-517.82
110,-3.8701,1.7217,-1.2974,1164.31,1722.11,1841.37
120,-3.8699,1.6354,-1.3553,383.06,1940.86,-533.81
130,-3.8698,1.4725,-1.3419,1336.18,-1481.20,-362.06
140,-3.8696,1.2642,-1.2750,492.43,237.24,13.00
150,-3.8696,1.0559,-1.2119,1820.56,799.32,403.75
160,-3.8695,0.8889,-1.1929,-835.69,877.01,1903.87
170,-3.8690,0.7850,-1.2231,1789.31,-685.79,747.62
180,-3.8683,0.7462,-1.3019,492.43,-560.97,1341.31
190,-3.8674,0.7496,-1.4369,-476.32,1360.78,-1190.06
200,-3.8666,0.7534,-1.5991,-38.82,79.53,872.19
210,-3.8661,0.7334,-1.7236,445.56,-686.04,528.08
220,-3.8661,0.6891,-1.7842,1883.06,-623.60,-1081.54
230,-3.8665,0.6161,-1.7947,211.18,-373.66,-347.29
240,-3.8671,0.5052,-1.7637,-1132.57,-1717.59,699.58
250,-3.8680,0.3582,-1.6967,679.93,-1749.02,-612.85
260,-3.8689,0.1949,-1.6135,1851.81,-1171.20,-1815.86
270,-3.8696,0.0372,-1.5391,961.18,1469.12,1606.20
280,-3.8702,-0.0997,-1.4805,773.68,-999.94,-1346.80
290,-3.8706,-0.2063,-1.4287,-757.57,-1484.62,75.20
300,-3.8710,-0.2855,-1.3978,1601.81,1140.20,309.69
310,-3.8713,-0.3441,-1.3992,-538.82,1093.14,1747.25
320,-3.8717,-0.3837,-1.4033,-38.82,921.14,-893.37
330,-3.8721,-0.4094,-1.3851,-1101.32,389.83,-455.87
340,-3.8724,-0.4360,-1.3390,-398.19,-1282.10,-1518.37
350,-3.8729,-0.4771,-1.2664,195.56,624.15,-127.62
360,-3.8734,-0.5255,-1.1721,-1054.44,1920.90,-424.38
370,-3.8739,-0.5662,-1.0574,742.43,1983.34,-1752.32
380,-3.8744,-0.5955,-0.9285,-460.69,670.72,1904.17
390,-3.8749,-0.6147,-0.7992,-210.69,1170.65,-236.21
400,-3.8440,-0.6285,-0.6929,1320.56,1717.53,-532.84
410,-3.8442,-0.6343,-0.6301,-445.07,-673.16,1264.22
420,-3.8445,-0.6177,-0.6133,-1179.44,-641.91,-282.53
430,-3.8445,-0.5751,-0.6364,945.56,1514.40,-204.35
440,-3.8444,-0.5175,-0.6731,-1601.32,-1438.66,-1673.16
450,-3.8442,-0.4658,-0.6884,1773.68,1858.34,889.28
460,-3.8442,-0.4342,-0.6786,383.06,-94.67,-1892.03
470,-3.8444,-0.4303,-0.6416,429.93,1155.40,-735.72
480,-3.8446,-0.4551,-0.5669,929.93,1889.77,-657.53
490,-3.8448,-0.4954,-0.4594,1758.06,-547.79,389.47
500,-3.8452,-0.5226,-0.3331,601.81,1217.77,1342.83
510,-3.8456,-0.5112,-0.2186,1117.43,1373.96,-610.05
520,-3.8458,-0.4561,-0.1416,-1429.44,30.21,-1469.18
530,-3.8461,-0.3781,-0.0988,1633.06,1889.71,-78.43
540,-3.8461,-0.3127,-0.0891,-382.57,-625.79,921.63
550,-3.8461,-0.2732,-0.1138,-23.19,608.70,1171.69
560,-3.8461,-0.2523,-0.1527,1039.31,1452.58,-422.12
570,-3.8459,-0.2471,-0.1914,-288.82,468.20,-547.18
580,-3.8458,-0.2520,-0.2220,383.06,-484.86,-1203.55
590,-3.8458,-0.2562,-0.2380,-241.94,-406.80,-312.99
600,-3.8458,-0.2443,-0.2566,-788.82,1546.33,-969.24
610,-3.8458,-0.2026,-0.2852,742.43,-828.61,-953.67
620,-3.8457,-0.1366,-0.2972,-1929.44,-484.80,1186.89
630,-3.8456,-0.0680,-0.2823,-1476.32,1968.44,905.64
640,-3.8455,-0.0117,-0.2548,-695.07,-125.18,1515.01
650,-3.8453,0.0292,-0.2305,-1491.94,-593.81,-578.67
660,-3.8451,0.0511,-0.2207,-257.57,-1500.00,-1312.99
670,-3.8448,0.0548,-0.2427,-1445.07,-249.94,-1781.74
680,-3.8446,0.0509,-0.2946,-976.32,937.56,1218.26
690,-3.8445,0.0494,-0.3478,-1476.32,-1703.06,-297.49
700,-3.8442,0.0570,-0.3888,-1663.82,-515.56,1593.02
710,-3.8441,0.0823,-0.4254,-695.07,-1765.56,-782.04
720,-3.8439,0.1344,-0.4480,-1460.69,1547.00,1780.40
730,-3.8749,0.2144,-0.4512,1211.18,-1343.51,-1375.92
740,-3.8745,0.3123,-0.4569,-554.44,-1749.63,-329.04
750,-3.8739,0.4200,-0.4768,-23.19,1516.17,1202.21
760,-3.8734,0.5330,-0.4918,1773.68,-1030.46,-375.98
770,-3.8729,0.6281,-0.4913,226.81,1047.91,1483.40
780,-3.8727,0.6669,-0.4728,398.68,1110.60,155.27
790,-3.8727,0.6377,-0.4216,1367.43,-514.34,1186.52
800,-3.8728,0.5806,-0.3636,1633.06,-1967.53,-1125.85
810,-3.8728,0.5720,-0.3431,-1679.44,1454.22,1155.52
820,-3.8726,0.6659,-0.3754,1226.81,79.22,389.95
830,-3.8719,0.8523,-0.4498,1242.43,-45.59,655.46
840,-3.8712,1.0828,-0.5240,1101.81,-1576.48,-1375.92
850,-3.8706,1.2997,-0.5662,-1398.19,923.95,-1172.91
860,-3.8704,1.4388,-0.5693,-1632.57,-466.25,-1.16
870,-3.8704,1.4379,-0.5302,179.93,-872.19,-1454.28
880,-3.8707,1.2911,-0.4712,54.93,143.43,-1907.29
890,-3.8713,1.0786,-0.4279,1273.68,-310.00,-438.48
900,-3.8717,0.9147,-0.4468,-1929.44,1236.45,858.52
910,-3.8719,0.8757,-0.5951,1086.18,-1185.73,-516.54
920,-3.8718,0.9521,-0.8673,101.81,-170.17,-469.97
930,-3.8716,1.0562,-1.1411,1883.06,986.21,-439.21
940,-3.8715,1.0977,-1.2994,-804.44,1939.51,-1252.26
950,-3.8716,1.0525,-1.3126,508.06,1674.01,-1502.56
960,-3.8716,0.9614,-1.2323,-1273.19,-13.61,184.88
970,-3.8713,0.8768,-1.1439,-929.44,-1732.54,1544.43
980,-3.8707,0.8481,-1.1066,242.43,1579.83,1685.24
990,-3.8700,0.9254,-1.1453,570.56,-1638.98,-955.32
1000,-3.8691,1.1111,-1.2294,-1538.82,1408.02,-221.01
1010,-3.8682,1.3595,-1.2946,-1773.19,-1357.24,-1049.32
1020,-3.8672,1.6208,-1.3185,-1976.32,-1700.50,434.94
1030,-3.8665,1.8551,-1.3407,-523.19,-762.51,591.13
1040,-3.8660,2.0227,-1.3942,1461.18,394.23,684.88
1050,-3.8658,2.0757,-1.4514,-1085.69,1550.78,1653.50
1060,-3.8660,1.9916,-1.4828,1695.56,-1777.22,419.01
1070,-3.8663,1.8195,-1.4960,-1070.07,-1793.03,-1784.18
1080,-3.8667,1.6519,-1.5304,898.68,519.17,-1346.68
1090,-3.8669,1.5509,-1.6351,-554.44,112.55,340.76
1100,-3.8672,1.5267,-1.7892,-1476.32,-1293.88,-362.61
1110,-3.8671,1.5596,-1.9323,-570.07,-1012.70,-628.54
1120,-3.8667,1.6116,-2.0524,-366.94,674.87,1871.22
1130,-3.8663,1.6250,-2.1400,-1710.69,1299.99,1339.72
1140,-3.8662,1.5417,-2.1699,8.06,-1918.70,-1847.96
1150,-3.8663,1.3445,-2.1552,1351.81,-1747.01,167.60
1160,-3.8668,1.0558,-2.1361,101.81,143.25,-191.71
1170,-3.8671,0.7090,-2.1376,-851.32,-1419.86,-1832.34
1180,-3.8669,0.3571,-2.1678,-1241.94,-1608.03,1323.91
1190,-3.8662,0.0867,-2.2136,1711.18,-1483.70,1355.10
1200,-3.8649,-0.0145,-2.2614,-898.19,656.37,917.54
1210,-3.8633,0.0852,-2.3278,-1851.32,-1437.56,511.17
1220,-3.8619,0.3035,-2.4019,-1085.69,-1953.00,307.92
1230,-3.8615,0.4615,-2.4149,-1148.19,563.05,-910.95
1240,-3.8619,0.4324,-2.3116,-913.82,-1108.52,1135.86
1250,-3.8634,0.2333,-2.1039,-648.19,110.17,1464.23
1260,-3.8651,-0.0447,-1.8690,1867.43,-1296.45,-1769.78
1270,-3.8665,-0.3109,-1.7015,-1710.69,781.13,-34.91
1280,-3.8669,-0.4896,-1.6464,211.18,-1781.86,543.52
1290,-3.8669,-0.5475,-1.6783,1336.18,1280.27,1934.27
1300,-3.8666,-0.5120,-1.7506,1929.93,1186.40,152.95
1310,-3.8665,-0.4346,-1.8348,-1523.19,-63.54,-1284.73
1320,-3.8665,-0.3621,-1.8759,383.06,1155.40,1730.77
1330,-3.8667,-0.3248,-1.8297,1664.31,-94.48,1871.28
1340,-3.8672,-0.3274,-1.7258,-1570.07,1811.83,1668.27
1350,-3.8679,-0.3499,-1.6127,-1898.19,-891.30,621.58
1360,-3.8689,-0.3730,-1.5156,-773.19,1593.02,-1440.67
1370,-3.8698,-0.3964,-1.4320,258.06,-1985.11,747.01
1380,-3.8706,-0.4269,-1.3542,1273.68,717.96,-1299.68
1390,-3.8712,-0.4698,-1.2878,1367.43,-1328.98,1200.44
1400,-3.8717,-0.5200,-1.2456,-132.57,-829.10,106.81
1410,-3.8721,-0.5632,-1.2437,1445.56,577.09,1575.68
1420,-3.8721,-0.5857,-1.2848,-85.69,826.97,1106.93
1430,-3.8718,-0.5752,-1.3357,1039.31,-438.66,138.06
1440,-3.8717,-0.5342,-1.3422,-1616.94,1045.72,1919.25
1450,-3.8718,-0.4858,-1.2889,-366.94,217.65,-237.00
1460,-3.8721,-0.4509,-1.1906,1820.56,-969.73,231.81
1470,-3.8727,-0.4342,-1.0599,-1710.69,-375.92,1778.87
1480,-3.8733,-0.4270,-0.9342,429.93,342.90,-1970.83
1490,-3.8738,-0.4161,-0.8519,1351.81,436.65,-1814.33
1500,-3.8741,-0.3910,-0.8141,-1257.57,-1032.10,-1079.83
1510,-3.8744,-0.3489,-0.7963,1961.18,-188.29,-1595.40
1520,-3.8746,-0.2916,-0.7811,-648.19,-1906.98,-860.96
1530,-3.8748,-0.2288,-0.7671,-1320.07,30.64,-1626.53
1540,-3.8748,-0.1804,-0.7617,-1273.19,1827.64,-1470.28
1550,-3.8746,-0.1531,-0.7700,914.31,-1484.74,-1845.28
1560,-3.8745,-0.1351,-0.7717,414.31,1452.82,810.97
1570,-3.8746,-0.1144,-0.7401,-1288.82,1234.07,-939.03
1580,-3.8749,-0.0854,-0.6708,1367.43,1281.01,-501.46
1590,-3.8440,-0.0459,-0.5740,1070.56,-1843.93,-266.97
1600,-3.8444,-0.0010,-0.4707,-1866.94,-1453.25,-1735.53
1610,-3.8447,0.0305,-0.3831,-116.94,-234.44,358.40
1620,-3.8452,0.0334,-0.3179,-85.69,-1031.25,-453.92
1630,-3.8455,0.0126,-0.2831,289.31,-687.44,1843.08
1640,-3.8456,-0.0187,-0.3025,1617.43,-234.38,1249.39
1650,-3.8456,-0.0437,-0.3876,1617.43,1296.81,-422.49
1660,-3.8452,-0.0505,-0.5183,-1585.69,-1593.87,-1860.17
1670,-3.8446,-0.0325,-0.6445,1539.31,1671.75,452.09
1680,-3.8440,0.0237,-0.7009,-148.19,1515.50,1998.72
1690,-3.8746,0.1195,-0.6652,-960.69,-1718.75,592.35
1700,-3.8744,0.2319,-0.5793,-695.07,-1140.44,-1157.59
1710,-3.8744,0.3219,-0.4957,1695.56,1844.18,-1423.03
1720,-3.8746,0.3563,-0.4320,1211.18,547.49,1749.02
1730,-3.8439,0.3313,-0.3859,1617.43,703.80,-78.98
1740,-3.8442,0.2717,-0.3658,-1585.69,-1390.01,1092.96
1750,-3.8446,0.2180,-0.3936,-1210.69,1172.36,1780.52
1760,-3.8447,0.2191,-0.4614,-85.69,1625.37,-1516.42
1770,-3.8445,0.3235,-0.5579,54.93,937.93,-1610.29
1780,-3.8439,0.5397,-0.6941,1414.31,594.36,686.40
1790,-3.8744,0.8069,-0.8323,1086.18,-842.71,420.47
1800,-3.8738,1.0435,-0.9050,-710.69,1470.28,-1876.65
1810,-3.8734,1.2089,-0.8892,1570.56,158.26,-1158.02
1820,-3.8733,1.3022,-0.8123,-1257.57,-1810.18,1763.85
1830,-3.8734,1.3252,-0.7161,-1304.44,33.75,1264.04
1840,-3.8737,1.2736,-0.6421,1633.06,346.31,1092.35
1850,-3.8739,1.1726,-0.6146,-976.32,1814.94,-360.66
1860,-3.8738,1.0884,-0.6464,-1898.19,1330.38,-1376.22
1870,-3.8734,1.0778,-0.7538,-679.44,1267.70,-1485.66
1880,-3.8729,1.1642,-0.9041,1961.18,-482.30,1935.97
1890,-3.8726,1.3324,-1.0259,1023.68,283.51,-126.77
1900,-3.8722,1.5105,-1.0833,-1445.07,690.06,1154.24
1910,-3.8722,1.6125,-1.0742,1351.81,1346.68,1919.74
1920,-3.8724,1.6000,-1.0375,-1585.69,-1496.89,-1314.64
1930,-3.8727,1.4929,-1.0466,804.93,-793.76,1185.42
1940,-3.8729,1.3591,-1.1649,-898.19,-1965.88,-1111.45
1950,-3.8729,1.2604,-1.3962,1976.81,-1106.75,-377.32
1960,-3.8727,1.1937,-1.6688,1336.18,1283.69,-65.25
1970,-3.8722,1.1272,-1.8916,804.93,-1607.06,1074.83
1980,-3.8718,1.0560,-2.0190,289.31,1877.20,-706.85
1990,-3.8713,0.9977,-2.0541,-820.07,1564.51,1105.41
2000,-3.8708,0.9740,-1.9846,-288.82,1080.02,1152.22
2010,-3.8701,1.0269,-1.8712,679.93,1970.64,1683.59
2020,-3.8690,1.2007,-1.8551,-554.44,486.33,1996.34
2030,-3.8677,1.4866,-1.9791,1695.56,-1450.81,761.96
2040,-3.8666,1.8101,-2.1504,-1710.69,-1325.26,-191.41
2050,-3.8657,2.0612,-2.2448,-304.44,753.48,1058.29
2060,-3.8656,2.1526,-2.2208,-163.82,675.84,948.73
2070,-3.8662,2.0739,-2.1377,-460.69,-261.47,1979.98
2080,-3.8672,1.8912,-2.0941,1461.18,-1620.97,-1816.71
2090,-3.8680,1.6893,-2.1641,-1913.82,-43.21,1230.22
2100,-3.8685,1.5208,-2.3500,242.43,-996.70,605.10
2110,-3.8687,1.3934,-2.5859,-1335.69,-793.95,-1379.64
2120,-3.8683,1.2932,-2.8026,-1632.57,1002.69,307.43
2130,-3.8679,1.2206,-2.9647,1539.31,1268.13,1822.63
2140,-3.8676,1.1804,-3.0638,242.43,518.01,119.20
2150,-3.8674,1.1479,-3.1010,-898.19,-169.62,540.83
2160,-3.8676,1.0856,-3.0818,-1054.44,-919.68,-1802.98
2170,-3.8678,0.9807,-3.0126,-1038.82,1533.33,634.58
2180,-3.8683,0.8389,-2.9127,1539.31,-1607.48,-1849.67
2190,-3.8687,0.6443,-2.8042,-616.94,-826.54,681.76
2200,-3.8689,0.3796,-2.6870,-1523.19,1063.72,682.01
2210,-3.8689,0.0696,-2.5836,601.81,63.23,338.50
2220,-3.8685,-0.2343,-2.5308,914.31,1297.00,1041.81
2230,-3.8677,-0.4773,-2.5236,-1976.32,77.64,-1145.57
2240,-3.8665,-0.6116,-2.5371,-1085.69,999.02,-786.19
2250,-3.8654,-0.6245,-2.5417,1726.81,-735.60,-723.75
2260,-3.8649,-0.5724,-2.4962,70.56,-1329.35,-1786.25
2270,-3.8654,-0.5436,-2.3815,-1257.57,498.84,-1379.88
2280,-3.8666,-0.5933,-2.1993,-1570.07,-813.60,1323.43
2290,-3.8682,-0.7108,-1.9883,70.56,-1501.16,1526.92
2300,-3.8695,-0.8541,-1.7981,1023.68,1514.22,1886.72
2310,-3.8702,-0.9871,-1.6497,-1320.07,1857.67,-1472.29
2320,-3.8704,-1.0746,-1.5696,1664.31,857.42,1653.02
2330,-3.8702,-1.0997,-1.5599,-1538.82,-892.76,1418.76
2340,-3.8701,-1.0804,-1.5818,-757.57,341.55,-1956.18
2350,-3.8701,-1.0419,-1.5896,1711.18,1544.74,-315.61
2360,-3.8701,-0.9904,-1.5673,-1351.32,544.80,1793.76
2370,-3.8702,-0.9318,-1.5157,1242.43,-595.70,887.51
2380,-3.8705,-0.8781,-1.4310,742.43,1998.17,106.38
2390,-3.8710,-0.8348,-1.3250,-382.57,841.98,-1846.56
2400,-3.8716,-0.7988,-1.2170,1148.68,-1579.77,-424.50
2410,-3.8722,-0.7659,-1.1112,1758.06,232.79,-486.76
2420,-3.8727,-0.7418,-1.0084,1976.81,1779.72,-1970.95
2430,-3.8730,-0.7347,-0.9209,1054.93,-1063.96,1857.36
2440,-3.8733,-0.7441,-0.8644,1961.18,-1860.84,-626.83
2450,-3.8733,-0.7655,-0.8367,758.06,1373.54,1404.54
2460,-3.8733,-0.7898,-0.8335,-1976.32,920.35,-1361.02
2470,-3.8732,-0.8064,-0.8484,-1085.69,1326.54,795.23
2480,-3.8732,-0.8135,-0.8575,789.31,-579.71,-1720.46
2490,-3.8732,-0.8066,-0.8496,-116.94,-1751.65,-1439.21
2500,-3.8732,-0.7694,-0.8311,758.06,-735.96,998.29
2510,-3.8733,-0.6918,-0.8147,1523.68,1639.10,-1611.02
2520,-3.8734,-0.5864,-0.8099,-538.82,-267.03,-142.27
2530,-3.8735,-0.4774,-0.7964,945.56,342.59,-17.21
2540,-3.8737,-0.3872,-0.7479,-1101.32,-1922.85,1076.54
2550,-3.8740,-0.3281,-0.6752,-1554.44,280.46,-345.21
2560,-3.8743,-0.2985,-0.5988,-1991.94,1593.08,1904.91
2570,-3.8745,-0.2916,-0.5372,1804.93,-625.61,-1079.35
2580,-3.8745,-0.3002,-0.4990,-1320.07,-750.61,233.28
2590,-3.8745,-0.3085,-0.4707,1586.18,140.01,374.02
2600,-3.8745,-0.3002,-0.4415,523.68,-234.99,858.40
2610,-3.8745,-0.2712,-0.4144,1586.18,-500.61,905.33
2620,-3.8745,-0.2253,-0.3965,1289.31,-1031.80,436.65
2630,-3.8746,-0.1654,-0.3904,-835.69,1265.14,-1078.92
2640,-3.8746,-0.0973,-0.3955,-1163.82,-1953.49,124.21
2650,-3.8748,-0.0310,-0.4067,-445.07,1390.38,358.58
2660,-3.8749,0.0212,-0.4160,39.31,-46.94,608.52
2670,-3.8750,0.0535,-0.4131,-1273.19,-1250.00,-1563.35
2680,-3.8750,0.0618,-0.3853,-1148.19,-874.94,1983.52
2690,-3.8750,0.0437,-0.3376,-85.69,-1312.44,827.33
2700,-3.8439,0.0125,-0.2993,1601.81,781.31,1327.45
2710,-3.8440,-0.0090,-0.2993,1601.81,1687.50,1593.14
2720,-3.8440,-0.0016,-0.3499,-1148.19,1703.06,1030.64
2730,-3.8439,0.0404,-0.4353,-195.07,-765.69,186.77
2740,-3.8750,0.1057,-0.5188,1179.93,281.31,405.40
2750,-3.8750,0.1750,-0.5615,1539.31,1593.93,-1063.54
2760,-3.8750,0.2246,-0.5447,-1585.69,125.31,-1313.60
2770,-3.8439,0.2400,-0.4889,758.06,-1718.32,-376.10
2780,-3.8440,0.2241,-0.4348,-1273.19,1422.30,-1594.73
2790,-3.8441,0.2024,-0.4098,695.56,344.18,967.90
2800,-3.8441,0.2262,-0.4233,1914.31,-452.76,358.52
2810,-3.8439,0.3435,-0.4750,961.18,1812.93,-1032.10
2820,-3.8744,0.5651,-0.5580,-23.19,-796.26,1108.40
2830,-3.8735,0.8467,-0.6565,336.18,579.22,452.03
2840,-3.8728,1.0991,-0.7267,383.06,-29.60,1108.03
2850,-3.8723,1.2164,-0.6945,695.56,-1013.49,404.79
2860,-3.8723,1.1494,-0.5540,-288.82,-888.31,-1579.53
2870,-3.8726,0.9664,-0.4081,-866.94,1095.95,45.78
2880,-3.8730,0.7823,-0.3649,-288.82,-232.54,139.77
2890,-3.8734,0.6716,-0.4543,148.68,1298.40,999.27
2900,-3.8734,0.6721,-0.6077,1976.81,1845.03,1795.96
2910,-3.8729,0.8054,-0.7567,-1960.69,-1779.97,561.28
2920,-3.8722,1.0216,-0.8799,-898.19,-857.85,1514.10
2930,-3.8715,1.2003,-0.9299,-1226.32,-623.05,-408.02
2940,-3.8708,1.2689,-0.8763,1648.68,971.07,-1783.08
2950,-3.8706,1.2533,-0.7748,-1570.07,-169.43,1748.23
2960,-3.8706,1.2188,-0.7271,429.93,830.57,29.72
2970,-3.8708,1.2104,-0.7858,8.06,-1060.12,1186.04
2980,-3.8711,1.2343,-0.9172,-1054.44,-575.81,-1954.71
2990,-3.8712,1.2681,-1.0588,1992.43,-1403.87,-1829.96
3000,-3.8712,1.2771,-1.1454,-1679.44,471.19,-986.45
3010,-3.8710,1.2488,-1.1432,-523.19,1393.07,-564.76
3020,-3.8704,1.2015,-1.1047,-148.19,1674.26,794.62
3030,-3.8698,1.1652,-1.1252,1804.93,-1403.93,-1845.95
3040,-3.8691,1.1576,-1.2334,1148.68,-28.99,372.74
3050,-3.8688,1.1627,-1.3746,179.93,-1872.74,903.81
3060,-3.8685,1.1521,-1.4910,836.18,49.13,1950.44
3070,-3.8683,1.1071,-1.5555,-523.19,1158.45,1559.57
3080,-3.8682,1.0254,-1.5890,1711.18,892.76,-924.93
3090,-3.8680,0.9186,-1.6229,-741.94,611.33,-1253.11
3100,-3.8679,0.8055,-1.6506,1586.18,267.40,-909.42
3110,-3.8678,0.7107,-1.6475,-882.57,720.28,-565.73
3120,-3.8677,0.6614,-1.6146,-1023.19,1126.34,356.14
3130,-3.8678,0.6826,-1.5818,664.31,1329.41,637.45
3140,-3.8680,0.7769,-1.5854,-616.94,1532.53,-1596.86
3150,-3.8682,0.9045,-1.6301,-554.44,1063.96,684.39
3160,-3.8684,1.0138,-1.6840,-210.69,-654.54,-128.23
3170,-3.8685,1.0759,-1.7318,1773.68,455.08,-1456.42
3180,-3.8687,1.0747,-1.7836,1726.81,-1669.80,605.96
3190,-3.8689,0.9969,-1.8359,1570.56,-294.80,-1862.92
3200,-3.8691,0.8439,-1.8817,-382.57,1001.89,-941.10
3210,-3.8693,0.6371,-1.9288,23.68,-857.73,933.78
3220,-3.8694,0.4097,-1.9915,1554.93,1110.60,-1769.41
3230,-3.8693,0.2081,-2.0736,445.56,1094.54,1886.72
3240,-3.8689,0.0764,-2.1726,-1351.32,-1421.51,-1550.96
3250,-3.8683,0.0215,-2.2726,1789.31,1906.37,-1379.27
3260,-3.8677,0.0001,-2.3290,-1241.94,1109.38,-473.21
3270,-3.8673,-0.0548,-2.3059,23.68,1890.62,-910.83
3280,-3.8674,-0.1825,-2.2198,992.43,859.25,-1051.39
3290,-3.8679,-0.3767,-2.1172,648.68,-125.37,-1363.77
3300,-3.8684,-0.6130,-2.0408,-210.69,1014.83,1105.22
3310,-3.8688,-0.8613,-2.0093,1539.31,-1204.35,-363.40
3320,-3.8687,-1.0730,-2.0154,1758.06,-1173.58,605.41
3330,-3.8684,-1.1997,-2.0673,-1335.69,-1955.26,1777.28
3340,-3.8680,-1.2362,-2.1472,-1554.44,-596.13,-675.96
3350,-3.8677,-1.2167,-2.1722,1773.68,1169.43,761.41
3360,-3.8679,-1.1764,-2.0828,273.68,1966.37,-238.65
3370,-3.8685,-1.1382,-1.9169,1429.93,1419.56,-175.96
3380,-3.8693,-1.1127,-1.7478,-1679.44,-1346.01,1199.34
3390,-3.8700,-1.0872,-1.6217,1586.18,294.68,684.08
3400,-3.8706,-1.0511,-1.5553,851.81,435.36,-393.80
3410,-3.8708,-1.0201,-1.5289,1461.18,935.42,1856.32
3420,-3.8711,-1.0060,-1.5056,1429.93,310.49,-1565.49
3430,-3.8713,-0.9978,-1.4655,-757.57,-705.14,465.76
3440,-3.8717,-0.9808,-1.4136,289.31,435.55,465.88
3450,-3.8721,-0.9475,-1.3699,-1538.82,-923.83,1653.44
3460,-3.8723,-0.9005,-1.3502,-1273.19,669.98,919.19
3470,-3.8726,-0.8542,-1.3403,742.43,-814.27,-1955.81
3480,-3.8728,-0.8254,-1.2977,-1335.69,451.42,-565.12
3490,-3.8730,-0.8142,-1.2041,-1648.19,1904.60,-1627.56
3500,-3.8734,-0.8005,-1.0952,-210.69,1888.98,-1596.13
3510,-3.8738,-0.7698,-1.0082,1539.31,-173.46,1763.43
3520,-3.8741,-0.7260,-0.9410,1476.81,-1032.78,-783.26
3530,-3.8744,-0.6816,-0.8792,-913.82,-438.96,-595.64
3540,-3.8745,-0.6486,-0.8240,758.06,-516.97,888.85
3550,-3.8748,-0.6296,-0.7731,992.43,-1454.41,-1907.90
3560,-3.8750,-0.6162,-0.7180,-585.69,1061.22,-1110.90
3570,-3.8439,-0.5970,-0.6647,1133.06,108.15,357.97
3580,-3.8441,-0.5679,-0.6201,-413.82,-1063.72,-360.72
3590,-3.8441,-0.5238,-0.5850,-679.44,639.47,1326.90
3600,-3.8441,-0.4541,-0.5618,961.18,1139.59,1405.09
3610,-3.8441,-0.3668,-0.5503,1883.06,108.46,-172.97
3620,-3.8440,-0.2889,-0.5436,1054.93,1577.39,-251.10
3630,-3.8439,-0.2303,-0.5320,-976.32,-1563.11,-1594.85
3640,-3.8439,-0.1816,-0.5015,-1476.32,-78.61,795.78
3650,-3.8441,-0.1326,-0.4388,758.06,-172.24,-1719.79
3660,-3.8444,-0.0848,-0.3544,-960.69,-156.56,967.83
3670,-3.8447,-0.0421,-0.2739,1148.68,-1343.93,-625.73
3680,-3.8450,-0.0060,-0.2130,-1382.57,953.00,-1141.17
3690,-3.8451,0.0175,-0.1744,-757.57,749.94,296.45
3700,-3.8453,0.0259,-0.1570,-1757.57,1671.88,-312.87
3710,-3.8453,0.0265,-0.1642,-679.44,-93.75,452.76
3720,-3.8455,0.0348,-0.1990,-601.32,-1015.62,-1094.12
3730,-3.8455,0.0637,-0.2532,461.18,-1468.69,-359.80
3740,-3.8453,0.1033,-0.3105,164.31,-406.13,-1125.55
3750,-3.8452,0.1287,-0.3506,1226.81,250.18,-188.11
3760,-3.8450,0.1333,-0.3566,476.81,-874.76,124.27
3770,-3.8450,0.1375,-0.3354,1070.56,-1640.38,-1360.11
3780,-3.8450,0.1608,-0.3033,1601.81,1062.74,-0.67
3790,-3.8448,0.1981,-0.2738,586.18,1172.18,1905.64
3800,-3.8447,0.2410,-0.2675,1367.43,953.49,-1781.80
3810,-3.8445,0.2915,-0.3021,-1148.19,1766.05,-1906.80
3820,-3.8441,0.3439,-0.3750,1320.56,1328.67,1093.14
3830,-3.8439,0.3809,-0.4558,23.68,0.67,-16.36
3840,-3.8749,0.3949,-0.5146,758.06,1656.98,-860.29
3850,-3.8748,0.3922,-0.5410,-1445.07,-1874.27,-1626.04
3860,-3.8746,0.3882,-0.5393,-1788.82,-1249.27,1248.90
3870,-3.8745,0.4071,-0.5405,1695.56,-1030.52,-1235.47
3880,-3.8743,0.4664,-0.5754,117.43,-1186.71,-94.85
3890,-3.8738,0.5757,-0.6403,-288.82,-1655.40,1514.47
3900,-3.8733,0.7384,-0.7091,1695.56,-1952.03,-391.91
3910,-3.8726,0.9333,-0.7521,-1476.32,1235.78,186.10
3920,-3.8721,1.1071,-0.7522,-523.19,-263.85,-876.53
3930,-3.8716,1.2028,-0.7168,1711.18,-279.11,279.72
3940,-3.8715,1.2092,-0.6591,1961.18,252.32,-1954.53
3950,-3.8715,1.1639,-0.5985,-1210.69,-357.06,-1813.84
3960,-3.8716,1.1146,-0.5757,992.43,-607.12,-548.10
3970,-3.8717,1.0994,-0.6254,-1320.07,-1685.36,-94.91
3980,-3.8717,1.1481,-0.7252,726.81,-44.74,1389.34
3990,-3.8717,1.2654,-0.8210,-1038.82,-825.93,-1829.59
4000,-3.8716,1.3953,-0.8657,1976.81,-1091.31,1779.60
4010,-3.8715,1.4569,-0.8425,-1398.19,1190.19,310.79
4020,-3.8716,1.4127,-0.7605,-1507.57,159.06,-1361.02
4030,-3.8717,1.3042,-0.6676,836.18,-1341.00,1185.97
4040,-3.8719,1.2147,-0.6564,-1054.44,-1450.62,-110.72
4050,-3.8719,1.1772,-0.7928,-507.57,-13.31,-548.22
4060,-3.8717,1.1854,-1.0408,-1304.44,-1482.12,810.91
4070,-3.8715,1.2345,-1.2968,-257.57,-1216.49,1935.42
4080,-3.8710,1.2963,-1.4840,-1976.32,-1981.99,138.06
4090,-3.8705,1.3274,-1.5494,1929.93,-1950.62,-143.55
4100,-3.8698,1.3169,-1.4863,1914.31,1674.44,121.95
4110,-3.8693,1.2985,-1.3662,570.56,1752.56,903.32
4120,-3.8689,1.3002,-1.2804,-1788.82,1127.50,-1815.19
4130,-3.8685,1.3130,-1.2736,-1570.07,111.88,700.62
4140,-3.8684,1.3264,-1.3369,70.56,986.94,-80.63
4150,-3.8682,1.3363,-1.4237,1789.31,877.56,934.88
4160,-3.8680,1.3325,-1.4932,-945.07,1768.19,1325.32
4170,-3.8679,1.3140,-1.5258,-1429.44,877.56,559.57
4180,-3.8679,1.2971,-1.5245,195.56,705.69,1965.76
4190,-3.8679,1.2871,-1.5156,-1960.69,861.88,1137.63
4200,-3.8680,1.2583,-1.5225,758.06,-1997.50,1512.63
4210,-3.8683,1.1925,-1.5529,1070.56,1127.44,-627.99
4220,-3.8684,1.0936,-1.5979,648.68,1236.69,809.45
4230,-3.8685,0.9686,-1.6456,-7.57,-529.17,1809.33
4240,-3.8684,0.8363,-1.6964,-7.57,1361.21,-1956.36
4250,-3.8680,0.7203,-1.7745,-945.07,-1139.04,-393.98
4260,-3.8673,0.6306,-1.9006,211.18,860.78,1199.65
4270,-3.8666,0.5432,-2.0526,726.81,719.97,152.53
4280,-3.8662,0.4003,-2.1715,1539.31,1266.66,-66.53
4290,-3.8661,0.1722,-2.2081,-757.57,-1952.39,-1176.15
4300,-3.8663,-0.1044,-2.1588,-1945.07,1359.68,886.29
4310,-3.8668,-0.3601,-2.0580,-1351.32,-312.74,292.60
4320,-3.8673,-0.5428,-1.9613,1914.31,593.02,1058.47
4330,-3.8677,-0.6354,-1.9023,-1476.32,967.65,-628.85
4340,-3.8678,-0.6490,-1.8713,-1320.07,514.34,-1894.35
4350,-3.8679,-0.6130,-1.8604,929.93,483.09,1636.96
4360,-3.8680,-0.5664,-1.8663,1539.31,1889.40,418.21
4370,-3.8683,-0.5388,-1.8547,-491.94,1123.84,-1253.66
4380,-3.8685,-0.5331,-1.7911,-960.69,-1391.72,-1425.54
4390,-3.8689,-0.5363,-1.6896,-226.32,-1251.10,1246.46
4400,-3.8695,-0.5406,-1.5847,-632.57,-251.10,-612.73
4410,-3.8700,-0.5474,-1.4928,-1195.07,1170.78,184.39
4420,-3.8706,-0.5580,-1.4110,1945.56,936.40,-1643.55
4430,-3.8711,-0.5654,-1.3328,586.18,-594.85,-596.56
4440,-3.8713,-0.5649,-1.2660,-366.94,1420.72,153.63
4450,-3.8716,-0.5630,-1.2156,-304.44,1967.59,247.50
4460,-3.8718,-0.5723,-1.1718,-54.44,420.72,-1861.76
4470,-3.8719,-0.5964,-1.1307,-1241.94,-1969.91,325.81
4480,-3.8722,-0.6266,-1.0996,-335.69,-719.97,-1142.88
4490,-3.8723,-0.6497,-1.0804,-195.07,-735.66,-1174.07
4500,-3.8724,-0.6610,-1.0612,851.81,1717.47,-533.39
4510,-3.8726,-0.6644,-1.0258,-601.32,186.16,-658.33
4520,-3.8727,-0.6656,-0.9744,-1038.82,717.41,-1048.89
4530,-3.8728,-0.6649,-0.9161,-1195.07,-704.47,-1330.08
4540,-3.8729,-0.6514,-0.8580,-1101.32,-1251.34,-1736.21
4550,-3.8730,-0.6165,-0.8113,633.06,-1813.78,1967.04
4560,-3.8732,-0.5625,-0.7803,1101.81,170.65,1607.79
4570,-3.8733,-0.5001,-0.7610,8.06,139.53,779.72
4580,-3.8735,-0.4414,-0.7440,-7.57,-1391.66,-1079.65
4590,-3.8738,-0.3956,-0.7136,-491.94,780.33,-423.34
4600,-3.8740,-0.3688,-0.6644,1367.43,671.08,-1142.03
4610,-3.8743,-0.3574,-0.6086,804.93,-1031.98,1717.41
4620,-3.8745,-0.3551,-0.5657,-1741.94,-1891.36,983.15
4630,-3.8748,-0.3544,-0.5461,-1445.07,-391.36,1264.47
4640,-3.8750,-0.3516,-0.5366,-1351.32,-1891.36,-829.22
4650,-3.8439,-0.3512,-0.5186,-991.94,-672.61,-1797.97
4660,-3.8440,-0.3550,-0.4904,-945.07,1639.89,639.59
4670,-3.8442,-0.3573,-0.4535,-1429.44,1249.27,1514.65
4680,-3.8445,-0.3501,-0.4099,-1726.32,1968.02,1874.08
4690,-3.8447,-0.3273,-0.3711,-804.44,-453.86,-1047.73
4700,-3.8448,-0.2852,-0.3444,-1882.57,514.95,1374.27
4710,-3.8450,-0.2245,-0.3240,-491.94,-63.11,1296.14
4720,-3.8451,-0.1552,-0.3013,-726.32,-1453.61,-1313.17
4730,-3.8451,-0.0897,-0.2760,148.68,1452.82,1499.39
4740,-3.8451,-0.0298,-0.2545,523.68,687.32,1358.83
4750,-3.8451,0.0306,-0.2433,195.56,-562.56,1968.20
4760,-3.8451,0.0945,-0.2429,-70.07,859.38,-422.36
4770,-3.8450,0.1565,-0.2433,101.81,906.43,-1984.86
4780,-3.8448,0.2070,-0.2328,39.31,859.68,358.89
4790,-3.8448,0.2407,-0.2179,-1491.94,-1796.51,-1781.74
4800,-3.8447,0.2615,-0.2156,-1179.44,109.80,93.32
4810,-3.8447,0.2723,-0.2330,1476.81,406.74,-1812.93
4820,-3.8447,0.2816,-0.2634,-1132.57,-1827.64,-219.24
4830,-3.8446,0.3118,-0.2905,54.93,-1718.20,1436.95
4840,-3.8445,0.3812,-0.3091,-85.69,-1186.95,-1953.74
4850,-3.8442,0.4833,-0.3339,804.93,438.23,-984.99
4860,-3.8439,0.5923,-0.3744,1867.43,1266.54,1436.83
4870,-3.8749,0.6799,-0.4155,-179.44,79.22,1264.89
4880,-3.8748,0.7362,-0.4377,-960.69,-1186.22,-1703.98
4890,-3.8746,0.7823,-0.4457,-1757.57,-29.85,-719.67
4900,-3.8744,0.8285,-0.4535,148.68,-1045.35,-1344.67
4910,-3.8740,0.8572,-0.4702,-1945.07,1954.71,295.96
4920,-3.8738,0.8616,-0.5009,1726.81,-185.85,1077.15
4930,-3.8737,0.8572,-0.5406,-1710.69,-107.73,1858.34
4940,-3.8737,0.8556,-0.5685,1726.81,-1201.48,-1501.10
4950,-3.8737,0.8540,-0.5654,1523.68,-763.98,-1860.53
4960,-3.8735,0.8556,-0.5496,1320.56,-373.35,545.72
4970,-3.8733,0.8892,-0.5775,1523.68,1657.90,61.40
4980,-3.8729,0.9796,-0.6848,1820.56,-1920.17,967.59
4990,-3.8724,1.1166,-0.8501,1398.68,345.64,264.28
5000,-3.8721,1.2657,-1.0233,-1070.07,-810.36,1138.92
5010,-3.8719,1.3843,-1.1564,-1976.32,1018.07,-502.01
5020,-3.8719,1.4176,-1.1963,1195.56,-12.94,-1142.94
5030,-3.8721,1.3314,-1.1285,1461.18,-1122.25,-1924.26
5040,-3.8722,1.1801,-1.0487,-1570.07,-450.56,-252.26
5050,-3.8719,1.0734,-1.0725,-945.07,1767.88,-642.70
5060,-3.8713,1.0723,-1.2029,1398.68,-1279.17,622.86
5070,-3.8707,1.1500,-1.3630,1258.06,-1966.67,263.24
5080,-3.8702,1.2422,-1.4895,-788.82,1533.45,809.81
5090,-3.8699,1.3135,-1.5453,-991.94,1346.13,215.82
5100,-3.8698,1.3638,-1.5234,133.06,-1794.31,-1190.55
5110,-3.8696,1.4025,-1.4733,-1429.44,1002.62,-846.74
5120,-3.8694,1.4293,-1.4597,-476.32,-575.44,1418.95
5130,-3.8690,1.4391,-1.5015,-1038.82,1159.00,919.01
5140,-3.8687,1.4332,-1.5626,211.18,-184.69,-284.24
5150,-3.8682,1.4067,-1.6021,-538.82,-12.88,-1190.61
5160,-3.8677,1.3481,-1.6196,70.56,-1059.75,1199.95
5170,-3.8673,1.2693,-1.6458,570.56,690.12,1606.20
5180,-3.8669,1.2083,-1.7067,-1523.19,1346.19,121.77
5190,-3.8666,1.1805,-1.8096,-1335.69,1549.19,12.27
5200,-3.8662,1.1470,-1.9298,-882.57,377.26,-1972.29
5210,-3.8660,1.0450,-1.9996,-1179.44,986.57,-3.78
5220,-3.8658,0.8534,-1.9835,1773.68,48.89,183.59
5230,-3.8662,0.6066,-1.9075,1242.43,-1888.98,-1425.78
5240,-3.8666,0.3719,-1.7855,1648.68,-155.09,1293.09
5250,-3.8668,0.2239,-1.6624,-382.57,-546.20,-644.17
5260,-3.8665,0.2065,-1.6204,664.31,-780.82,715.45
5270,-3.8658,0.3173,-1.6858,-1554.44,594.12,-612.55
5280,-3.8650,0.5013,-1.8232,617.43,219.36,1715.45
5290,-3.8644,0.6470,-1.9535,179.93,-1374.02,980.77
5300,-3.8643,0.6392,-1.9866,-1179.44,1954.35,89.90
5310,-3.8649,0.4591,-1.8990,1820.56,1719.97,-1160.16
5320,-3.8657,0.1947,-1.7576,-1226.32,922.73,1136.90
5330,-3.8666,-0.0490,-1.6570,929.93,-968.38,-565.98
5340,-3.8668,-0.2113,-1.6401,1742.43,-78.25,637.33
5350,-3.8668,-0.2794,-1.6738,961.18,-1922.30,-1346.98
5360,-3.8667,-0.2711,-1.7081,242.43,1765.08,-112.67
5370,-3.8666,-0.2205,-1.7158,1304.93,1374.45,434.14
5380,-3.8668,-0.1610,-1.6989,-210.69,390.14,1762.27
5390,-3.8672,-0.1166,-1.6832,-601.32,-1437.87,746.64
5400,-3.8677,-0.1086,-1.6676,1086.18,562.26,231.08
5410,-3.8683,-0.1472,-1.6265,-1898.19,-1437.74,-1222.05
5420,-3.8688,-0.2144,-1.5481,1164.31,-172.18,512.39
5430,-3.8694,-0.2775,-1.4469,570.56,1858.95,1653.20
5440,-3.8700,-0.3193,-1.3551,492.43,-1188.05,-221.62
5450,-3.8704,-0.3466,-1.2845,-866.94,-1438.17,106.69
5460,-3.8708,-0.3784,-1.2191,-351.32,-406.98,-1783.81
5470,-3.8712,-0.4253,-1.1522,-429.44,-32.04,1122.56
5480,-3.8716,-0.4735,-1.0947,1570.56,530.40,1107.12
5490,-3.8719,-0.4927,-1.0546,-601.32,-110.35,-611.57
5500,-3.8721,-0.4703,-1.0475,945.56,1030.27,779.17
5510,-3.8722,-0.4319,-1.0793,-195.07,1936.52,1669.80
5520,-3.8722,-0.4136,-1.1172,726.81,1858.52,794.74
5530,-3.8723,-0.4291,-1.1157,-929.44,1014.77,-1455.32
5540,-3.8724,-0.4590,-1.0665,1086.18,1202.27,1857.18
5550,-3.8726,-0.4797,-0.9974,1258.06,-500.92,185.36
5560,-3.8728,-0.4867,-0.9288,-1398.19,342.77,1419.92
5570,-3.8730,-0.4812,-0.8649,1711.18,1124.02,841.92
5580,-3.8734,-0.4683,-0.8020,-1585.69,1311.52,-1626.71
5590,-3.8738,-0.4530,-0.7389,70.56,1358.46,-1595.34
5600,-3.8741,-0.4370,-0.6759,-1976.32,1436.58,1654.79
5610,-3.8745,-0.4203,-0.6089,70.56,1499.15,1045.53
5620,-3.8749,-0.4010,-0.5427,-1788.82,-1922.73,-1938.72
5630,-3.8439,-0.3781,-0.4821,679.93,-1453.92,1217.65
5640,-3.8441,-0.3541,-0.4338,-382.57,-1688.29,-1782.23
5650,-3.8442,-0.3383,-0.4061,-1320.07,483.64,842.90
5660,-3.8444,-0.3328,-0.3901,711.18,30.58,436.71
5670,-3.8445,-0.3306,-0.3813,1414.31,-1922.55,1405.46
5680,-3.8445,-0.3235,-0.3905,1695.56,-797.55,1546.08
5690,-3.8444,-0.3112,-0.4081,-1398.19,-1969.42,514.83
5700,-3.8444,-0.2965,-0.4082,179.93,-219.36,-391.48
5710,-3.8442,-0.2753,-0.3817,-1945.07,-234.99,546.02
5720,-3.8444,-0.2404,-0.3392,773.68,-844.30,1983.58
5730,-3.8445,-0.1888,-0.2927,1242.43,593.26,93.08
5740,-3.8447,-0.1278,-0.2424,-163.82,-1453.55,593.14
5750,-3.8450,-0.0652,-0.1954,-351.32,984.07,-1953.61
5760,-3.8451,-0.0009,-0.1729,-335.69,-1000.18,-1625.43
5770,-3.8451,0.0630,-0.1891,-101.32,1890.56,-1125.37
5780,-3.8448,0.1261,-0.2427,70.56,-203.00,30.82
5790,-3.8446,0.1925,-0.3075,148.68,937.74,358.89
5800,-3.8444,0.2605,-0.3568,648.68,640.99,765.01
5810,-3.8442,0.3248,-0.3885,1351.81,-1671.39,-1203.86
5820,-3.8441,0.3743,-0.3975,1586.18,-1733.76,-1578.92
5830,-3.8440,0.4044,-0.3724,-85.69,1125.67,530.46
5840,-3.8440,0.4240,-0.3300,-226.32,328.86,1218.02
5850,-3.8440,0.4408,-0.3041,-1726.32,1766.42,936.83
5860,-3.8440,0.4523,-0.3162,429.93,1078.98,515.01
5870,-3.8440,0.4585,-0.3595,1898.68,-467.90,577.45
5880,-3.8440,0.4786,-0.4095,-1304.44,1985.23,-1156.98
5890,-3.8750,0.5409,-0.4596,1273.68,-420.96,1733.52
5900,-3.8746,0.6545,-0.5199,1242.43,1172.91,702.21
5910,-3.8743,0.7927,-0.5801,-210.69,1454.35,998.96
5920,-3.8739,0.9178,-0.6207,1476.81,1751.53,873.84
5930,-3.8735,0.9989,-0.6373,1492.43,548.65,405.03
5940,-3.8733,1.0139,-0.6364,-132.57,-1576.23,-798.16
5950,-3.8730,0.9708,-0.6327,1789.31,-1451.17,-579.41
5960,-3.8729,0.9076,-0.6425,273.68,-982.48,-16.91
5970,-3.8728,0.8851,-0.6669,179.93,1767.40,1592.47
5980,-3.8728,0.9658,-0.7003,1304.93,-1357.67,-251.34
5990,-3.8726,1.1404,-0.7448,-366.94,-1638.79,1607.97
6000,-3.8723,1.3202,-0.7755,1976.81,674.07,498.54
6010,-3.8723,1.4258,-0.7534,992.43,736.94,-689.03
6020,-3.8723,1.4508,-0.6930,-1491.94,-434.75,1514.10
6030,-3.8724,1.4330,-0.6783,1711.18,-700.32,-1563.90
6040,-3.8724,1.4116,-0.7876,-570.07,1174.62,123.66
6050,-3.8726,1.4155,-1.0038,695.56,-809.75,-1501.59
6060,-3.8726,1.4373,-1.2405,1195.56,-481.63,-220.76
6070,-3.8723,1.4362,-1.4209,-23.19,1221.50,-1424.32
6080,-3.8719,1.3848,-1.5129,-163.82,-1872.25,528.44
6090,-3.8716,1.3096,-1.5448,1258.06,-1653.56,262.63
6100,-3.8712,1.2561,-1.5713,-366.94,-1731.87,-518.68
6110,-3.8706,1.2361,-1.6279,789.31,-1122.56,-690.61
6120,-3.8699,1.2396,-1.7175,-1773.19,-372.62,-393.86
6130,-3.8690,1.2620,-1.8177,-1320.07,158.63,1856.02
6140,-3.8683,1.2872,-1.9106,1539.31,-669.43,-487.98
6150,-3.8676,1.2938,-1.9862,773.68,-560.00,-785.03
6160,-3.8669,1.2836,-2.0275,1617.43,1768.13,-816.41
6170,-3.8666,1.2711,-2.0337,304.93,486.88,-175.84
6180,-3.8665,1.2567,-2.0192,-1288.82,-310.06,1370.97
6190,-3.8667,1.2213,-1.9761,867.43,1549.32,808.53
6200,-3.8672,1.1467,-1.8997,336.18,-935.12,-457.03
6210,-3.8676,1.0397,-1.8273,-1210.69,845.95,-1706.85
6220,-3.8679,0.9343,-1.8004,1086.18,-1888.61,-50.48
6230,-3.8679,0.8619,-1.8228,-398.19,1548.65,1355.83
6240,-3.8677,0.8225,-1.8669,-1663.82,-1310.85,-1284.85
6250,-3.8671,0.8026,-1.9138,1289.31,1032.84,1605.71
6260,-3.8665,0.8008,-1.9728,-1257.57,-967.22,-753.78
6270,-3.8658,0.8073,-2.0525,-1491.94,-514.10,1683.59
6280,-3.8655,0.7878,-2.1426,-663.82,1282.78,1089.72
6290,-3.8655,0.6855,-2.2145,851.81,1751.53,-1379.21
6300,-3.8657,0.4513,-2.2314,-241.94,548.16,-1660.58
6310,-3.8661,0.1082,-2.1864,1773.68,-1624.15,901.86
6320,-3.8665,-0.2292,-2.1221,1851.81,140.81,-1582.40
6330,-3.8665,-0.4448,-2.0968,-1335.69,390.14,308.35
6340,-3.8663,-0.5107,-2.1245,-929.44,-375.92,652.10
6350,-3.8662,-0.4629,-2.1753,-1366.94,77.09,1120.85
6360,-3.8662,-0.3558,-2.2131,758.06,1577.21,542.60
6370,-3.8665,-0.2511,-2.1875,-1538.82,733.64,1151.92
6380,-3.8669,-0.2007,-2.0549,-132.57,15.08,1526.98
6390,-3.8677,-0.2231,-1.8474,-1679.44,983.95,1980.35
6400,-3.8684,-0.2955,-1.6512,-554.44,-453.61,386.96
6410,-3.8690,-0.3683,-1.5338,-1820.07,655.64,918.64
6420,-3.8694,-0.4058,-1.5044,867.43,-313.23,-643.68
6430,-3.8694,-0.4122,-1.5259,70.56,-547.67,340.76
6440,-3.8695,-0.4070,-1.5594,-757.57,702.27,1981.38
6450,-3.8696,-0.4027,-1.5817,-85.69,405.40,700.07
6460,-3.8700,-0.4023,-1.5764,461.18,1561.71,-1003.11
6470,-3.8704,-0.4059,-1.5405,508.06,-1766.42,637.51
6480,-3.8710,-0.4177,-1.4796,54.93,-1172.67,-1987.43
6490,-3.8716,-0.4446,-1.4026,-1460.69,-1375.85,403.32
6500,-3.8723,-0.4917,-1.3179,-898.19,483.46,-1799.62
6510,-3.8729,-0.5511,-1.2284,1070.56,-672.85,1778.63
6520,-3.8734,-0.6005,-1.1375,1461.18,-1219.85,622.56
6530,-3.8739,-0.6256,-1.0544,-851.32,-1579.35,-1033.51
6540,-3.8741,-0.6244,-0.9874,-70.07,1045.59,638.55
6550,-3.8744,-0.6003,-0.9344,86.18,1623.78,1982.42
6560,-3.8745,-0.5627,-0.8881,-835.69,405.03,-1126.83
6570,-3.8745,-0.5244,-0.8414,-23.19,-1657.41,1154.48
6580,-3.8746,-0.4956,-0.7896,883.06,311.46,-1939.15
6590,-3.8748,-0.4773,-0.7319,570.56,-1047.85,701.54
6600,-3.8750,-0.4618,-0.6680,-1085.69,-1672.85,1436.04
6610,-3.8440,-0.4412,-0.5961,898.68,-1485.29,764.28
6620,-3.8444,-0.4150,-0.5206,-460.69,-282.17,-266.85
6630,-3.8446,-0.3868,-0.4456,-1116.94,1374.15,-657.29
6640,-3.8447,-0.3596,-0.3710,-1507.57,-1016.42,30.33
6650,-3.8450,-0.3356,-0.3073,1976.81,530.52,1796.14
6660,-3.8451,-0.3124,-0.2578,1054.93,686.83,483.76
6670,-3.8452,-0.2930,-0.2289,23.68,-984.99,655.70
6680,-3.8453,-0.2793,-0.2313,-1491.94,-1281.86,-625.49
6690,-3.8452,-0.2642,-0.2588,258.06,-1594.30,1062.01
6700,-3.8451,-0.2438,-0.2993,-1804.44,-1109.92,1233.83
6710,-3.8450,-0.2173,-0.3333,804.93,1702.64,1749.39
6720,-3.8448,-0.1807,-0.3436,195.56,1358.95,186.83
6730,-3.8450,-0.1276,-0.3308,883.06,30.88,-250.67
6740,-3.8450,-0.0582,-0.3087,-320.07,1671.57,1139.95
6750,-3.8451,0.0173,-0.2893,554.93,499.88,-1578.74
6760,-3.8451,0.0861,-0.2759,-1773.19,-1031.25,-1891.24
6770,-3.8450,0.1418,-0.2614,-976.32,687.62,296.33
6780,-3.8450,0.1888,-0.2440,-1835.69,-1452.88,-922.42
6790,-3.8448,0.2350,-0.2329,179.93,765.99,1390.14
6800,-3.8448,0.2811,-0.2357,-1913.82,-1812.07,-859.86
6810,-3.8447,0.3143,-0.2466,-7.57,1828.61,312.01
6820,-3.8447,0.3267,-0.2566,242.43,438.11,1796.39
6830,-3.8446,0.3322,-0.2759,1820.56,-843.14,1499.45
6840,-3.8444,0.3445,-0.3196,-1476.32,688.11,280.70
6850,-3.8441,0.3629,-0.3938,101.81,-905.58,1264.95
6860,-3.8439,0.3948,-0.4950,-1538.82,1594.42,-828.92
6870,-3.8748,0.4583,-0.6005,-1460.69,641.36,-1907.23
6880,-3.8744,0.5585,-0.6794,-1335.69,-858.52,-1969.97
6890,-3.8740,0.6682,-0.7009,-507.57,1032.29,1483.03
6900,-3.8738,0.7467,-0.6562,1539.31,-1717.47,-813.90
6910,-3.8735,0.7770,-0.5868,-413.82,1.40,-1345.03
6920,-3.8734,0.7805,-0.5583,-538.82,892.09,-938.66
6930,-3.8733,0.8024,-0.6024,-85.69,532.71,1545.78
6940,-3.8732,0.8851,-0.6926,-1288.82,-1107.85,-985.60
6950,-3.8728,1.0452,-0.7809,1304.93,-654.54,-1626.40
6960,-3.8723,1.2551,-0.8257,1789.31,48.89,670.35
6970,-3.8719,1.4446,-0.8033,664.31,-1685.06,763.98
6980,-3.8718,1.5316,-0.7073,914.31,1174.68,1732.79
6990,-3.8719,1.5098,-0.5841,54.93,1471.74,1998.60
7000,-3.8722,1.4545,-0.5468,1258.06,1237.30,1842.59
7010,-3.8723,1.4218,-0.6652,-1820.07,-1981.57,530.15
7020,-3.8723,1.4094,-0.8843,1992.43,-1137.88,-1438.84
7030,-3.8721,1.3986,-1.0900,414.31,-1184.75,-1314.27
7040,-3.8717,1.3835,-1.2028,-976.32,487.06,357.24
7050,-3.8716,1.3584,-1.2050,1101.81,-1950.44,-611.76
7060,-3.8715,1.3094,-1.1201,1883.06,1768.25,-1846.13
7070,-3.8713,1.2527,-1.0292,-382.57,627.50,216.55
7080,-3.8712,1.2357,-1.0355,351.81,268.07,-892.64
7090,-3.8707,1.2833,-1.1608,-1820.07,-544.49,310.42
7100,-3.8702,1.3796,-1.3547,273.68,-575.62,-1658.57
7110,-3.8696,1.4795,-1.5388,601.81,-1403.56,-190.19
7120,-3.8689,1.5425,-1.6450,1383.06,-965.88,-753.05
7130,-3.8682,1.5630,-1.6555,1445.56,1440.49,1356.14
7140,-3.8677,1.5525,-1.6023,70.56,96.80,1965.52
7150,-3.8674,1.5144,-1.5375,-1273.19,-1090.76,-831.30
7160,-3.8673,1.4572,-1.4968,1851.81,-793.95,106.32
7170,-3.8676,1.4012,-1.4950,-1476.32,409.06,1793.95
7180,-3.8678,1.3619,-1.5311,-632.57,643.31,481.45
7190,-3.8680,1.3433,-1.5956,-1663.82,18.25,1168.88
7200,-3.8680,1.3381,-1.6871,-54.44,-231.81,340.58
7210,-3.8679,1.3251,-1.7928,-710.69,49.44,1871.70
7220,-3.8677,1.2675,-1.8813,1617.43,-1481.81,558.96
7230,-3.8676,1.1217,-1.9244,-1757.57,-810.06,261.90
7240,-3.8676,0.8795,-1.9236,-413.82,1674.01,480.59
7250,-3.8677,0.5842,-1.9011,586.18,1782.96,1996.22
7260,-3.8677,0.3157,-1.8810,-1210.69,657.35,699.40
7270,-3.8676,0.1605,-1.8810,414.31,-765.01,1715.03
7280,-3.8672,0.1549,-1.9083,554.93,-765.32,777.53
7290,-3.8667,0.2537,-1.9712,-163.82,-265.38,105.59
7300,-3.8662,0.3608,-2.0535,476.81,-312.01,-1269.53
7310,-3.8656,0.4109,-2.1030,-1804.44,1156.92,777.22
7320,-3.8652,0.3973,-2.0850,601.81,-1186.71,777.10
7330,-3.8652,0.3297,-2.0116,-1132.57,1125.73,-597.84
7340,-3.8654,0.2274,-1.9170,-1788.82,-1483.76,324.16
7350,-3.8658,0.1279,-1.8378,1117.43,-1374.57,-1675.66
7360,-3.8663,0.0470,-1.7948,383.06,765.87,1840.15
7370,-3.8668,-0.0258,-1.7784,-1976.32,-1734.31,1387.08
7380,-3.8673,-0.0944,-1.7579,711.18,374.94,1105.90
7390,-3.8678,-0.1598,-1.7246,-70.07,-1000.24,934.02
7400,-3.8683,-0.2383,-1.6868,-445.07,-734.74,902.83
7410,-3.8688,-0.3359,-1.6323,1508.06,108.89,1637.33
7420,-3.8693,-0.4244,-1.5643,1008.06,-922.55,-3.23
7430,-3.8695,-0.4795,-1.5126,1679.93,-219.60,403.14
7440,-3.8699,-0.5081,-1.4886,-1366.94,-1594.73,-706.12
7450,-3.8701,-0.5261,-1.4735,-1023.19,1467.71,-221.68
7460,-3.8704,-0.5371,-1.4412,664.31,-594.79,-659.18
7470,-3.8707,-0.5331,-1.3807,-741.94,-454.22,-190.37
7480,-3.8711,-0.5123,-1.3113,-226.32,-719.85,1169.13
7490,-3.8716,-0.4913,-1.2476,-1570.07,170.84,1044.31
7500,-3.8721,-0.4839,-1.1781,1117.43,327.15,778.81
7510,-3.8726,-0.4814,-1.0940,-1929.44,1217.77,1653.93
7520,-3.8729,-0.4717,-1.0028,-1616.94,-16.60,1122.80
7530,-3.8733,-0.4575,-0.9191,-366.94,-344.73,-127.01
7540,-3.8734,-0.4506,-0.8599,1445.56,-1625.92,1529.42
7550,-3.8735,-0.4528,-0.8317,-1663.82,1952.21,1435.79
7560,-3.8737,-0.4554,-0.8182,-1945.07,1561.58,-954.77
7570,-3.8737,-0.4518,-0.8075,1711.18,-719.67,1107.73
7580,-3.8738,-0.4395,-0.7915,-1820.07,655.33,-1954.71
7590,-3.8739,-0.4230,-0.7614,-241.94,-1297.79,592.16
7600,-3.8741,-0.4071,-0.7177,1867.43,-1438.35,623.47
7610,-3.8745,-0.3912,-0.6613,-101.32,155.40,-1626.40
7620,-3.8749,-0.3798,-0.5898,1929.93,-625.79,-1673.22
7630,-3.8440,-0.3812,-0.5104,-601.32,514.83,-1844.91
7640,-3.8444,-0.3927,-0.4381,-788.82,-1313.29,-1235.41
7650,-3.8446,-0.4017,-0.3845,1742.43,-63.29,389.71
7660,-3.8448,-0.3993,-0.3569,586.18,-1203.92,421.08
7670,-3.8451,-0.3761,-0.3495,898.68,-1672.67,-47.61
7680,-3.8451,-0.3282,-0.3528,-132.57,-719.54,-1438.23
7690,-3.8451,-0.2679,-0.3604,1992.43,-1141.30,-1250.73
7700,-3.8451,-0.2155,-0.3596,1711.18,1890.08,-656.98
7710,-3.8450,-0.1755,-0.3379,429.93,1983.95,593.02
7720,-3.8450,-0.1345,-0.2983,1539.31,765.26,-1156.92
7730,-3.8448,-0.0873,-0.2607,-1210.69,1827.82,1780.64
7740,-3.8447,-0.0393,-0.2434,836.18,-1359.56,874.45
7750,-3.8447,0.0031,-0.2562,-1023.19,859.25,-94.24
7760,-3.8446,0.0326,-0.2997,398.68,-796.88,-1281.80
7770,-3.8445,0.0468,-0.3622,179.93,1640.69,-1875.61
7780,-3.8444,0.0519,-0.4246,1992.43,1640.69,-891.36
7790,-3.8441,0.0507,-0.4556,-1351.32,1656.31,358.52
7800,-3.8441,0.0533,-0.4441,-1507.57,1687.56,-422.79
7810,-3.8441,0.0786,-0.4227,-1163.82,-843.69,-125.92
7820,-3.8441,0.1277,-0.4089,-1929.44,1890.75,-1610.23
7830,-3.8441,0.1968,-0.3890,351.81,-343.51,1311.65
7840,-3.8441,0.2965,-0.3746,1195.56,-1796.51,-1875.79
7850,-3.8440,0.4349,-0.3900,1961.18,47.42,1749.27
7860,-3.8750,0.5947,-0.4415,-320.07,-1921.08,858.58
7870,-3.8748,0.7408,-0.5103,133.06,-514.47,-1954.04
7880,-3.8745,0.8315,-0.5638,-1163.82,-1311.10,-407.29
7890,-3.8741,0.8379,-0.5964,-1554.44,-170.29,1155.09
7900,-3.8739,0.7683,-0.6118,-741.94,-342.16,764.40
7910,-3.8739,0.6608,-0.6002,-1648.19,1688.96,-407.47
7920,-3.8739,0.5875,-0.5837,586.18,-826.84,-594.97
7930,-3.8738,0.6199,-0.6084,-788.82,1282.35,-1563.66
7940,-3.8734,0.7638,-0.6940,-648.19,-1873.84,1280.03
7950,-3.8729,0.9570,-0.8036,1773.68,-826.66,-1345.15
7960,-3.8723,1.1107,-0.8782,-1491.94,1142.46,935.91
7970,-3.8719,1.1727,-0.8873,-1820.07,-404.11,1920.10
7980,-3.8718,1.1393,-0.8193,-1882.57,-1575.87,-501.77
7990,-3.8718,1.0521,-0.7318,1836.18,-872.80,-751.65
8000,-3.8718,0.9795,-0.7303,-1320.07,-1669.86,482.91
8010,-3.8719,0.9595,-0.8568,1383.06,-1482.48,-1.46
8020,-3.8717,0.9845,-1.0576,-1179.44,-1670.04,935.79
8030,-3.8715,1.0222,-1.2502,-1976.32,626.89,-33.33
8040,-3.8710,1.0471,-1.3796,-1148.19,-29.30,-1283.75
8050,-3.8705,1.0519,-1.4028,-1960.69,-591.74,184.75
8060,-3.8702,1.0364,-1.3347,-1351.32,439.51,497.25
8070,-3.8701,1.0038,-1.2681,664.31,1158.26,481.75
8080,-3.8700,0.9733,-1.2877,492.43,1689.45,1263.12
8090,-3.8698,0.9803,-1.3861,586.18,-826.23,-908.81
8100,-3.8693,1.0437,-1.4933,1492.43,-1419.98,-1393.37
8110,-3.8687,1.1498,-1.5662,1601.81,861.39,1418.95
8120,-3.8682,1.2686,-1.6046,-820.07,-466.55,-1987.49
8130,-3.8679,1.3650,-1.6104,-1616.94,-1388.18,-128.17
8140,-3.8678,1.4165,-1.5747,-1273.19,1877.62,-971.92
8150,-3.8678,1.4225,-1.5150,1320.56,-1559.75,1590.64
8160,-3.8679,1.3982,-1.4854,-1913.82,-1919.13,1528.26
8170,-3.8680,1.3597,-1.5173,-1023.19,1877.69,278.32
8180,-3.8683,1.3091,-1.5955,-1945.07,1783.87,-1456.12
8190,-3.8684,1.2433,-1.6923,-429.44,-216.25,1778.08
8200,-3.8684,1.1643,-1.7733,-851.32,-606.99,1496.64
8210,-3.8682,1.0767,-1.8228,1039.31,1017.88,43.40
8220,-3.8678,0.9840,-1.8413,1820.56,-1310.42,27.65
8230,-3.8674,0.8914,-1.8250,1961.18,314.39,840.15
8240,-3.8672,0.8038,-1.7899,-1898.19,-1592.04,1965.15
8250,-3.8671,0.7272,-1.7675,-1101.32,-1107.85,-1441.04
8260,-3.8671,0.6624,-1.7716,1086.18,1767.03,-97.23
8270,-3.8669,0.6058,-1.7952,789.31,1235.66,637.15
8280,-3.8668,0.5511,-1.8257,1554.93,-1780.09,840.21
8290,-3.8666,0.4922,-1.8743,-1445.07,-1686.46,-550.48
8300,-3.8660,0.4293,-1.9597,-991.94,94.67,246.34
8310,-3.8655,0.3579,-2.0658,-1038.82,1157.04,-597.60
8320,-3.8650,0.2610,-2.1471,1820.56,-421.20,1714.66
8330,-3.8649,0.1301,-2.1696,1414.31,1172.36,730.16
8340,-3.8652,-0.0129,-2.1362,664.31,-1702.88,-1019.90
8350,-3.8657,-0.1332,-2.0675,-1648.19,-1421.94,1495.79
8360,-3.8663,-0.2175,-1.9852,-1038.82,-625.31,-582.21
8370,-3.8668,-0.2722,-1.9077,164.31,1905.82,-394.53
8380,-3.8672,-0.2976,-1.8524,1164.31,-172.42,1699.34
8390,-3.8676,-0.2960,-1.8439,1914.31,-1094.36,840.09
8400,-3.8679,-0.2837,-1.8824,-1882.57,-0.61,1168.21
8410,-3.8682,-0.2802,-1.9290,-304.44,-938.11,246.28
8420,-3.8684,-0.3022,-1.9421,148.68,1108.83,-1378.78
8430,-3.8685,-0.3605,-1.9116,1320.56,-578.74,1464.90
8440,-3.8688,-0.4380,-1.8425,1867.43,-672.61,246.22
8450,-3.8693,-0.4949,-1.7396,-54.44,170.96,262.02
8460,-3.8699,-0.5031,-1.6168,664.31,1342.77,27.83
8470,-3.8705,-0.4695,-1.5010,-382.57,1061.46,590.58
8480,-3.8711,-0.4238,-1.4103,-85.69,-110.35,-34.24
8490,-3.8715,-0.3909,-1.3345,1758.06,-500.85,1528.44
8500,-3.8718,-0.3762,-1.2623,1976.81,1202.33,247.38
8510,-3.8723,-0.3790,-1.1998,-148.19,-1563.29,-268.13
8520,-3.8726,-0.4009,-1.1638,-507.57,-1563.29,138.24
8530,-3.8729,-0.4408,-1.1653,695.56,-953.92,-1689.82
8540,-3.8732,-0.4937,-1.1757,-413.82,-1141.54,-1486.69
8550,-3.8734,-0.5446,-1.1455,820.56,1530.27,-346.07
8560,-3.8735,-0.5818,-1.0626,-1695.07,1389.53,372.74
8570,-3.8738,-0.5958,-0.9507,1539.31,-1.16,29.11
8580,-3.8741,-0.5796,-0.8347,-257.57,-1673.10,-408.14
8590,-3.8743,-0.5413,-0.7396,1820.56,1170.72,560.85
8600,-3.8745,-0.4960,-0.6807,-1273.19,1342.65,-1548.34
8610,-3.8746,-0.4540,-0.6548,523.68,889.65,451.78
8620,-3.8749,-0.4189,-0.6490,1898.68,202.21,-813.78
8630,-3.8750,-0.3914,-0.6395,-1616.94,936.65,-657.53
8640,-3.8750,-0.3707,-0.6078,1914.31,-1844.54,108.09
8650,-3.8439,-0.3579,-0.5518,554.93,-1781.98,155.03
8660,-3.8441,-0.3489,-0.4861,-1804.44,1389.89,-1094.85
8670,-3.8442,-0.3398,-0.4282,-648.19,1796.14,1280.27
8680,-3.8444,-0.3334,-0.3832,508.06,1202.45,1171.02
8690,-3.8445,-0.3273,-0.3517,1336.18,-1031.92,-657.04
8700,-3.8445,-0.3123,-0.3354,-1882.57,-1000.67,-1188.23
8710,-3.8445,-0.2833,-0.3317,39.31,1077.51,-1438.17
8720,-3.8445,-0.2430,-0.3323,-257.57,1561.89,-1391.30
8730,-3.8445,-0.1971,-0.3293,898.68,1483.89,-1078.80
8740,-3.8445,-0.1498,-0.3162,-1226.32,1858.95,-1188.17
8750,-3.8445,-0.1045,-0.2936,836.18,-453.43,-1766.30
8760,-3.8445,-0.0613,-0.2744,-1366.94,-1562.74,-1906.86
8770,-3.8445,-0.0140,-0.2673,164.31,890.50,-1328.67
8780,-3.8445,0.0413,-0.2693,-1788.82,1796.81,-203.67
8790,-3.8444,0.1008,-0.2748,1289.31,1531.31,1921.33
8800,-3.8442,0.1573,-0.2837,914.31,828.31,1468.20
8810,-3.8441,0.2072,-0.2970,148.68,-312.19,1811.89
8820,-3.8440,0.2479,-0.3253,-1476.32,1984.74,1952.51
8830,-3.8439,0.2733,-0.3733,-257.57,-1640.20,-1375.67
8840,-3.8750,0.2766,-0.4128,-1007.57,219.24,-860.11
8850,-3.8749,0.2678,-0.4200,-585.69,-843.26,389.77
8860,-3.8750,0.2760,-0.3862,-1710.69,-1765.14,1717.90
8870,-3.8439,0.3274,-0.3217,-663.82,-1437.01,-78.92
8880,-3.8749,0.4374,-0.2760,1914.31,-1171.26,671.20
8890,-3.8745,0.5985,-0.2969,-7.57,672.67,905.70
8900,-3.8740,0.7684,-0.3848,617.43,-1998.84,1765.01
8910,-3.8735,0.8910,-0.4961,-1632.57,-1248.54,1702.33
8920,-3.8733,0.9315,-0.5658,-1945.07,501.71,1327.15
8930,-3.8735,0.8612,-0.5366,-757.57,-420.10,-63.66
8940,-3.8739,0.6871,-0.4270,-1757.57,-685.85,483.28
8950,-3.8744,0.4918,-0.3345,-38.82,1345.03,389.77
8960,-3.8746,0.3910,-0.3652,-1038.82,1188.42,-1610.05
8970,-3.8743,0.4673,-0.5464,-1945.07,1250.73,1218.02
8980,-3.8734,0.7290,-0.8126,-179.44,-1936.65,-1532.35
8990,-3.8722,1.0967,-1.0513,1320.56,-14.22,-1392.27
9000,-3.8711,1.4286,-1.1338,383.06,1439.64,669.80
9010,-3.8707,1.6072,-1.0071,-1132.57,-1122.25,1497.74
9020,-3.8711,1.6239,-0.7406,1726.81,-903.14,-1252.01
9030,-3.8718,1.5562,-0.4731,-132.57,1206.24,1795.41
9040,-3.8727,1.4722,-0.3517,-804.44,-559.51,-1485.35
9050,-3.8733,1.4064,-0.4235,445.56,-1012.76,1702.39
9060,-3.8737,1.3733,-0.6078,23.68,1799.62,-297.73
9070,-3.8735,1.3739,-0.8131,-210.69,-1794.25,686.28
9080,-3.8733,1.3862,-0.9827,-132.57,-75.50,-1829.77
9090,-3.8728,1.3728,-1.0813,1445.56,-1778.56,373.05
9100,-3.8723,1.3108,-1.1112,-273.19,1596.37,372.86
9110,-3.8718,1.2227,-1.1257,-210.69,1768.13,-1002.20
9120,-3.8711,1.1622,-1.1693,508.06,-91.37,482.12
9130,-3.8705,1.1509,-1.2489,773.68,-1669.62,-1908.57
9140,-3.8699,1.1716,-1.3411,-679.44,142.82,1200.68
9150,-3.8694,1.2141,-1.4095,1976.81,346.01,1122.38
9160,-3.8689,1.2808,-1.4546,-585.69,-419.56,28.44
9170,-3.8684,1.3627,-1.4977,-54.44,1814.94,153.38
9180,-3.8679,1.4385,-1.5446,-1570.07,299.50,231.45
9190,-3.8676,1.4834,-1.5823,133.06,-1700.32,43.82
9200,-3.8674,1.4882,-1.5902,1883.06,1471.62,106.26
9210,-3.8676,1.4634,-1.5594,-1507.57,455.99,340.64
9220,-3.8679,1.4226,-1.5205,-679.44,393.43,-659.30
9230,-3.8682,1.3751,-1.5162,-1898.19,1377.75,840.76
9240,-3.8684,1.3250,-1.5529,23.68,1924.56,1481.38
9250,-3.8685,1.2637,-1.6011,1601.81,1236.94,-3.05
9260,-3.8683,1.1746,-1.6377,1758.06,-935.06,793.70
9270,-3.8680,1.0520,-1.6567,-1648.19,-1622.74,-1253.23
9280,-3.8677,0.9115,-1.6615,-1335.69,-60.49,-643.92
9290,-3.8673,0.7825,-1.6606,679.93,-670.10,-50.17
9300,-3.8669,0.6976,-1.6602,164.31,-560.97,-487.67
9310,-3.8665,0.6677,-1.6755,1304.93,-498.66,215.45
9320,-3.8661,0.6703,-1.7235,1476.81,1532.53,-1097.05
9330,-3.8656,0.6676,-1.7969,1804.93,-608.09,387.21
9340,-3.8654,0.6206,-1.8536,1461.18,-1998.72,574.58
9350,-3.8654,0.5144,-1.8538,-554.44,-1264.47,-1956.79
9360,-3.8655,0.3710,-1.8148,1851.81,-1280.27,-456.79
9370,-3.8655,0.2224,-1.7972,-507.57,-296.20,996.40
9380,-3.8655,0.0952,-1.8242,476.81,1953.55,308.96
9390,-3.8655,0.0059,-1.8595,195.56,-1499.82,418.27
9400,-3.8656,-0.0408,-1.8699,758.06,1984.38,1636.96
9410,-3.8658,-0.0551,-1.8584,-1210.69,671.75,871.34
9420,-3.8663,-0.0651,-1.8312,961.18,-1859.50,-1956.79
9430,-3.8669,-0.1064,-1.7836,-320.07,1624.82,1949.52
9440,-3.8677,-0.1863,-1.7186,-1616.94,-281.49,-1237.92
9450,-3.8683,-0.2760,-1.6619,164.31,30.88,-1878.36
9460,-3.8687,-0.3461,-1.6345,679.93,-703.67,1199.83
9470,-3.8689,-0.3823,-1.6278,-288.82,-1203.86,-612.61
9480,-3.8690,-0.3832,-1.6167,-929.44,-344.54,-987.61
9490,-3.8693,-0.3619,-1.5747,-1038.82,1077.33,-768.80
9500,-3.8696,-0.3413,-1.4918,1679.93,-1547.61,-1424.99
9510,-3.8701,-0.3334,-1.3909,320.56,1061.83,1356.45
9520,-3.8707,-0.3348,-1.2949,1336.18,1983.70,1731.63
9530,-3.8713,-0.3359,-1.2051,1148.68,-1735.05,-1002.56
9540,-3.8718,-0.3350,-1.1329,1008.06,1764.95,-205.51
9550,-3.8721,-0.3445,-1.0847,1133.06,-1000.67,138.37
9560,-3.8724,-0.3650,-1.0529,-85.69,1171.14,-1611.51
9570,-3.8727,-0.3835,-1.0333,1289.31,1249.27,1529.17
9580,-3.8729,-0.3982,-1.0078,-1085.69,-250.79,-1783.33
9590,-3.8730,-0.4171,-0.9559,1039.31,-985.17,763.61
9600,-3.8733,-0.4414,-0.8882,-1382.57,1655.40,-533.14
9610,-3.8734,-0.4663,-0.8354,-491.94,-1672.79,1185.73
9620,-3.8737,-0.4867,-0.8016,320.56,1077.21,-1595.40
9630,-3.8739,-0.4956,-0.7706,1711.18,1405.27,-485.96
9640,-3.8741,-0.4866,-0.7343,570.56,1374.02,-392.15
9650,-3.8744,-0.4546,-0.6940,1726.81,-1969.73,-1813.96
9660,-3.8748,-0.4064,-0.6476,1820.56,-813.42,-282.65
9670,-3.8750,-0.3566,-0.5885,-7.57,1124.15,1670.59
9680,-3.8445,-0.2473,-0.3708,-1460.69,-484.92,-360.23
9690,-3.8445,-0.2413,-0.3455,351.81,546.39,1249.27
9700,-3.8445,-0.2394,-0.3328,1117.43,-203.61,421.14
9710,-3.8445,-0.2344,-0.3265,1367.43,1421.39,358.70
9720,-3.8445,-0.2253,-0.3151,-1991.94,-1781.74,358.70
9730,-3.8445,-0.2150,-0.2937,-835.69,-312.99,233.70
9740,-3.8446,-0.2015,-0.2727,492.43,-1578.55,-172.49
9750,-3.8446,-0.1757,-0.2604,-1788.82,1108.95,-734.92
9760,-3.8446,-0.1348,-0.2545,1523.68,-1312.87,-828.67
9770,-3.8446,-0.0852,-0.2488,-1241.94,-562.81,-250.55
9780,-3.8445,-0.0304,-0.2377,1101.81,171.69,640.14
9790,-3.8445,0.0297,-0.2219,117.43,1593.69,1874.51
9800,-3.8445,0.0923,-0.2122,-195.07,-406.25,-141.11
9810,-3.8444,0.1504,-0.2201,-179.44,843.87,-1062.93
9820,-3.8442,0.2003,-0.2496,-741.94,-171.63,-766.11
9830,-3.8440,0.2397,-0.2981,1648.68,47.24,1171.39
9840,-3.8750,0.2634,-0.3453,-1304.44,1844.18,593.14
9850,-3.8749,0.2700,-0.3593,1726.81,-202.64,-1906.98
9860,-3.8749,0.2634,-0.3256,-1429.44,-1983.89,1624.27
9870,-3.8439,0.2534,-0.2664,1726.81,-1671.39,-266.30
9880,-3.8440,0.2638,-0.2194,445.56,1906.74,1436.95
9890,-3.8440,0.3336,-0.2194,1773.68,-77.64,827.64
9900,-3.8750,0.4736,-0.2832,-1288.82,-77.51,1702.64
9910,-3.8745,0.6460,-0.3971,633.06,-249.08,-1125.61
9920,-3.8739,0.7927,-0.5101,-1304.44,1173.10,-1672.67
9930,-3.8734,0.8582,-0.5544,1476.81,-1295.35,717.71
9940,-3.8733,0.8307,-0.5052,1851.81,1032.90,577.03
9950,-3.8741,0.6951,-0.4448,-1226.32,63.66,-1516.30
9960,-3.8735,0.8789,-0.6144,976.81,-936.16,1170.96
9970,-3.8727,1.0997,-0.7930,508.06,1361.08,-1469.97
9980,-3.8717,1.2826,-0.8887,773.68,-1497.86,-1829.71
9990,-3.8710,1.3802,-0.8591,179.93,-1747.50,-1533.02
10000,-3.8706,1.4045,-0.7583,679.93,-1966.06,1342.04
10010,-3.8707,1.3855,-0.6626,-210.69,-1059.81,-923.40
10020,-3.8711,1.3483,-0.6184,1351.81,-809.81,-173.22
10030,-3.8715,1.3254,-0.6461,586.18,846.37,1311.28
10040,-3.8718,1.3383,-0.7366,1664.31,1299.44,1264.34
10050,-3.8721,1.3655,-0.8591,-695.07,1721.31,-845.21
10060,-3.8719,1.3672,-0.9852,-1210.69,-1966.13,763.92
10070,-3.8717,1.3323,-1.0765,-991.94,1893.25,748.05
