timestamp_ms,ax,ay,az,gx,gy,gz
0,-3.8737,-0.3417,-0.7067,-179.44,-1422.67,810.91
10,-3.8743,-0.3214,-0.6754,273.68,1561.83,-1157.65
20,-3.8746,-0.3060,-0.6682,-1132.57,1561.83,1420.53
30,-3.8750,-0.2971,-0.6624,836.18,-1516.24,-891.97
40,-3.8440,-0.2953,-0.6437,1976.81,-766.24,-1016.97
50,-3.8441,-0.3013,-0.6047,-1788.82,1624.39,592.47
60,-3.8444,-0.3315,-0.5616,1445.56,-1391.24,-438.72
70,-3.8444,-0.4023,-0.5441,1570.56,124.33,1748.90
80,-3.8442,-0.4895,-0.5536,508.06,-1625.79,-1610.47
90,-3.8439,-0.5471,-0.5605,1351.81,1155.27,639.53
100,-3.8749,-0.5592,-0.5547,1976.81,264.53,-407.35
110,-3.8745,-0.5533,-0.5492,429.93,1014.53,342.65
120,-3.8744,-0.5515,-0.5415,1179.93,1717.65,-313.60
130,-3.8741,-0.5616,-0.5345,1414.31,-1297.97,-1844.85
140,-3.8739,-0.5984,-0.5498,117.43,-407.35,577.03
150,-3.8737,-0.6602,-0.5748,-585.69,1639.40,-16.72
160,-3.8729,-0.7205,-0.5691,-491.94,-1563.84,655.09
170,-3.8722,-0.7678,-0.5453,-210.69,-829.59,-454.28
180,-3.8713,-0.8154,-0.5543,1726.81,-1782.78,-110.47
190,-3.8704,-0.8640,-0.5997,-366.94,1060.85,-1751.10
200,-3.8694,-0.8959,-0.6321,1414.31,-751.71,-516.85
210,-3.8683,-0.9095,-0.6188,1336.18,-892.40,1467.47
220,-3.8673,-0.9222,-0.5781,-413.82,810.67,1936.28
230,-3.8665,-0.9337,-0.5432,1961.18,-1986.21,-1313.66
240,-3.8657,-0.9408,-0.5317,492.43,-1517.46,1827.03
250,-3.8651,-0.9467,-0.5244,-413.82,-48.77,498.90
260,-3.8646,-0.9471,-0.4872,-1163.82,888.73,-1251.04
270,-3.8640,-0.9423,-0.4248,-1226.32,1654.36,-1579.10
280,-3.8634,-0.9336,-0.3826,-601.32,1638.73,733.52
290,-3.8630,-0.9191,-0.3959,508.06,-954.96,1077.33
300,-3.8629,-0.8997,-0.4741,-1632.57,1341.92,1452.33
310,-3.8630,-0.8795,-0.5872,851.81,-673.65,1530.27
320,-3.8634,-0.8575,-0.6780,-570.07,857.60,670.72
330,-3.8641,-0.8364,-0.7198,-1757.57,1232.67,-829.47
340,-3.8650,-0.8298,-0.7274,945.56,-126.65,1951.66
350,-3.8661,-0.8427,-0.7319,1789.31,-1095.40,-1501.46
360,-3.8673,-0.8784,-0.7374,148.68,-1673.52,-1235.84
370,-3.8685,-0.9480,-0.7108,-429.44,1623.23,342.29
380,-3.8699,-1.0415,-0.6279,-1335.69,1029.36,467.35
390,-3.8712,-1.1313,-0.5122,-1304.44,-361.45,1264.34
400,-3.8724,-1.1996,-0.4060,-804.44,-1549.13,1561.46
410,-3.8734,-1.2356,-0.3353,-1538.82,44.49,827.33
420,-3.8741,-1.2402,-0.3151,1851.81,1091.31,1733.70
430,-3.8745,-1.2289,-0.3436,1258.06,-314.94,436.83
440,-3.8748,-1.2039,-0.3975,-1288.82,28.81,1530.58
450,-3.8749,-1.1351,-0.4537,1914.31,1138.24,171.08
460,-3.8439,-0.9967,-0.5116,-1288.82,1935.24,-1688.42
470,-3.8441,-0.8008,-0.5576,429.93,-1470.70,-719.79
480,-3.8444,-0.5830,-0.5574,1508.06,639.04,1327.03
490,-3.8448,-0.3822,-0.5063,1383.06,670.72,-610.47
500,-3.8453,-0.2223,-0.4388,-913.82,-797.67,-751.04
510,-3.8458,-0.1088,-0.3955,-445.07,-156.74,-1125.92
520,-3.8463,-0.0548,-0.4191,-1913.82,1390.38,-922.67
530,-3.8467,-0.0624,-0.5336,992.43,-1625.12,-1391.48
540,-3.8469,-0.0928,-0.7089,23.68,-281.37,-1344.85
550,-3.8470,-0.1155,-0.8972,133.06,1281.07,1498.60
560,-3.8472,-0.1448,-1.0424,1226.81,1171.63,1029.48
570,-3.8474,-0.2024,-1.0919,1476.81,-1406.56,-470.83
580,-3.8475,-0.2739,-1.0421,-1898.19,249.57,763.49
590,-3.8478,-0.3341,-0.9308,945.56,-1375.55,1122.92
600,-3.8480,-0.3781,-0.8126,1242.43,874.33,-1298.71
610,-3.8480,-0.4011,-0.7188,-382.57,-0.79,1013.98
620,-3.8479,-0.3953,-0.6533,664.31,14.83,1045.47
630,-3.8477,-0.3749,-0.6230,1414.31,389.83,451.84
640,-3.8474,-0.3589,-0.6196,23.68,264.89,1764.40
650,-3.8470,-0.3424,-0.6221,-1929.44,702.39,61.28
660,-3.8468,-0.3297,-0.6437,179.93,389.95,1389.40
670,-3.8466,-0.3444,-0.7037,1804.93,1624.33,701.84
680,-3.8464,-0.3890,-0.7612,-70.07,1936.77,1967.35
690,-3.8463,-0.4523,-0.7859,-1788.82,-1422.67,-610.90
700,-3.8459,-0.5244,-0.8387,-1882.57,-579.04,1060.91
710,-3.8453,-0.5781,-0.9763,883.06,655.21,748.35
720,-3.8444,-0.5812,-1.1490,-1991.94,-954.28,1341.80
730,-3.8744,-0.5314,-1.2892,1617.43,936.34,935.24
740,-3.8733,-0.4796,-1.4061,-7.57,-1001.10,1606.81
750,-3.8724,-0.5148,-1.5271,-1382.57,30.27,1106.63
760,-3.8718,-0.6661,-1.6719,-1882.57,545.84,1793.88
770,-3.8711,-0.8765,-1.8821,-1257.57,-1985.72,1668.58
780,-3.8700,-1.0815,-2.1407,-179.44,-892.40,1090.03
790,-3.8687,-1.2557,-2.3186,1570.56,1997.86,-1035.46
800,-3.8672,-1.3914,-2.3342,-726.32,-768.13,1042.30
810,-3.8661,-1.4734,-2.2391,1914.31,1231.63,-1098.33
820,-3.8651,-1.4696,-2.1047,-585.69,1403.32,-723.14
830,-3.8640,-1.3501,-1.9482,-101.32,-1393.55,917.72
840,-3.8629,-1.1222,-1.7579,-804.44,-1362.06,418.03
850,-3.8619,-0.8208,-1.5457,367.43,-1002.20,652.77
860,-3.8613,-0.4921,-1.3202,-1054.44,-1829.77,-1971.80
870,-3.8612,-0.1997,-1.0380,1023.68,-969.73,-1799.50
880,-3.8615,0.0029,-0.6262,-1554.44,-844.18,-1377.08
890,-3.8613,0.1527,-0.0759,383.06,-156.25,-173.16
900,-3.8604,0.2527,0.4586,-445.07,-1718.51,1531.07
910,-3.8595,0.1659,0.5576,351.81,-1296.39,-1467.90
920,-3.8595,-0.0353,0.0557,1242.43,-624.69,-14.59
930,-3.8595,-0.0516,-0.4272,-507.57,-859.50,-15.56
940,-3.8600,0.1367,-0.3937,1398.68,1328.00,-1735.23
950,-3.8617,0.3331,-0.0876,1508.06,1609.62,389.83
960,-3.8638,0.4011,0.0903,-1351.32,781.86,687.32
970,-3.8651,0.2565,-0.0178,-648.19,-436.77,-640.50
980,-3.8655,-0.0555,-0.2744,836.18,1719.24,1593.69
990,-3.8656,-0.4216,-0.4691,898.68,890.50,1077.58
1000,-3.8658,-0.7479,-0.5367,-1960.69,-32.10,811.52
1010,-3.8663,-0.9622,-0.5099,273.68,-688.96,-469.85
1020,-3.8668,-1.0493,-0.4723,851.81,-1251.89,-422.91
1030,-3.8673,-1.0182,-0.4891,1695.56,-439.58,-875.98
1040,-3.8678,-0.8928,-0.5551,1679.93,1404.24,1936.52
1050,-3.8684,-0.7090,-0.6266,1726.81,966.98,-797.97
1060,-3.8690,-0.5168,-0.6754,1258.06,-188.90,-1657.53
1070,-3.8698,-0.4178,-0.7041,1851.81,1561.46,1201.78
1080,-3.8707,-0.4685,-0.7017,-1476.32,1889.77,-1188.90
1090,-3.8717,-0.6063,-0.6552,39.31,-1797.79,1748.60
1100,-3.8726,-0.7378,-0.6223,-1601.32,155.03,-1673.16
1110,-3.8730,-0.7963,-0.6794,1570.56,357.91,-79.35
1120,-3.8732,-0.7704,-0.8291,-1913.82,1045.29,-438.84
1130,-3.8733,-0.5983,-1.2141,1617.43,-595.03,607.06
1140,-3.8737,-0.5669,-1.1985,-570.07,608.15,-1752.38
1150,-3.8741,-0.5321,-1.1547,-554.44,-1391.78,-1752.38
1160,-3.8748,-0.4677,-1.1012,-101.32,217.65,-517.88
1170,-3.8440,-0.3638,-1.0411,148.68,-938.42,1841.55
1180,-3.8445,-0.2397,-0.9824,1445.56,-1250.73,-455.20
1190,-3.8448,-0.1448,-0.9543,1320.56,-1734.86,-158.20
1200,-3.8451,-0.1294,-0.9801,1476.81,1859.07,-595.64
1210,-3.8451,-0.2179,-1.0424,-554.44,-1437.81,326.17
1220,-3.8451,-0.4005,-1.1135,117.43,-1406.68,-611.45
1230,-3.8448,-0.6287,-1.1744,742.43,1483.58,-1299.07
1240,-3.8446,-0.8566,-1.2037,-460.69,1686.22,1778.93
1250,-3.8445,-1.0731,-1.1375,-1632.57,1935.79,794.49
1260,-3.8446,-1.2456,-0.9445,-1351.32,-1580.26,-1596.01
1270,-3.8447,-1.3134,-0.7128,570.56,-877.44,716.86
1280,-3.8450,-1.2699,-0.5563,-101.32,778.63,-48.28
1290,-3.8450,-1.1638,-0.5305,1461.18,810.00,-1313.60
1300,-3.8448,-1.0402,-0.6111,-960.69,107.06,795.84
1310,-3.8447,-0.9067,-0.7235,-1132.57,1794.80,905.03
1320,-3.8446,-0.7478,-0.8052,-54.44,-595.58,-1845.21
1330,-3.8444,-0.5663,-0.8462,289.31,951.66,951.54
1340,-3.8441,-0.3755,-0.8579,-476.32,-298.03,-1548.58
1350,-3.8750,-0.1877,-0.8215,-54.44,-1797.67,1607.67
1360,-3.8748,-0.0417,-0.7131,-23.19,-1141.05,-314.15
1370,-3.8744,0.0134,-0.5603,-1335.69,734.25,1029.85
1380,-3.8741,-0.0240,-0.4160,1726.81,281.25,-1079.22
1390,-3.8738,-0.1006,-0.3108,929.93,-1234.44,296.02
1400,-3.8735,-0.1792,-0.2539,-866.94,234.13,1983.76
1410,-3.8730,-0.2571,-0.2551,1070.56,-484.74,1624.45
1420,-3.8723,-0.3251,-0.3038,-898.19,-641.17,-563.05
1430,-3.8713,-0.3712,-0.3419,-1601.32,1124.33,-922.49
1440,-3.8705,-0.3883,-0.3234,492.43,249.27,-766.30
1450,-3.8699,-0.3832,-0.2500,-1695.07,-1375.79,1686.83
1460,-3.8696,-0.3884,-0.1458,-1038.82,14.83,-1844.24
1470,-3.8695,-0.4089,-0.0210,-1710.69,1358.58,-1734.68
1480,-3.8693,-0.4111,0.0933,-335.69,1327.27,-1250.06
1490,-3.8688,-0.3837,0.1497,-616.94,-47.73,-1078.00
1500,-3.8682,-0.3511,0.1533,-1101.32,-828.92,-156.01
1510,-3.8674,-0.3527,0.1461,-929.44,-360.11,1062.74
1520,-3.8669,-0.4148,0.1810,-1132.57,-1281.98,1203.37
1530,-3.8668,-0.5231,0.3162,-1085.69,-813.35,-296.57
1540,-3.8668,-0.6459,0.5546,1054.93,483.34,-1811.89
1550,-3.8668,-0.7750,0.8022,1336.18,-1001.28,704.16
1560,-3.8667,-0.9087,0.9454,804.93,-1298.40,923.40
1570,-3.8665,-1.0266,0.9471,-304.44,1029.42,-920.04
1580,-3.8660,-1.1074,0.8466,601.81,1247.99,329.96
1590,-3.8656,-1.1433,0.6970,-1741.94,372.80,626.65
1600,-3.8654,-1.1370,0.5339,1664.31,1232.12,1188.84
1610,-3.8652,-1.0814,0.3872,-1523.19,357.12,-1436.46
1620,-3.8651,-0.9725,0.2837,1586.18,1575.99,-468.02
1630,-3.8649,-0.8325,0.2325,-476.32,326.17,500.55
1640,-3.8649,-0.6912,0.2441,1445.56,1779.60,1359.80
1650,-3.8651,-0.5691,0.3367,-460.69,-735.78,-1827.70
1660,-3.8656,-0.4644,0.4927,-835.69,-891.78,-108.76
1670,-3.8661,-0.3680,0.6337,570.56,-922.79,-842.83
1680,-3.8666,-0.2787,0.6932,898.68,1124.27,-311.28
1690,-3.8669,-0.1910,0.6478,336.18,749.45,-1904.91
1700,-3.8673,-0.1223,0.4899,-445.07,-1062.93,1173.10
1710,-3.8678,-0.1018,0.2573,351.81,-1281.49,-452.21
1720,-3.8683,-0.1196,0.0269,-1023.19,952.88,-905.76
1730,-3.8689,-0.1395,-0.1531,695.56,-547.12,625.00
1740,-3.8698,-0.1345,-0.2998,-1851.32,421.57,452.82
1750,-3.8707,-0.1034,-0.4355,-1210.69,1640.32,-719.36
1760,-3.8715,-0.0651,-0.5283,-1226.32,265.38,452.27
1770,-3.8723,-0.0413,-0.5724,-320.07,390.44,-704.16
1780,-3.8729,-0.0433,-0.6432,-1273.19,-1250.12,717.59
1790,-3.8734,-0.0580,-0.7976,-1538.82,1687.38,186.22
1800,-3.8737,-0.0732,-1.0287,586.18,1921.75,529.66
1810,-3.8735,-0.1243,-1.3236,-1366.94,343.57,-1955.14
1820,-3.8730,-0.2629,-1.6635,101.81,-1406.49,-49.50
1830,-3.8723,-0.4858,-1.9861,-1648.19,-906.80,-190.80
1840,-3.8715,-0.7369,-2.2155,1820.56,1795.90,-1941.41
1850,-3.8707,-0.9684,-2.3043,1679.93,436.04,1761.29
1860,-3.8704,-1.1664,-2.2350,54.93,1060.61,1948.61
1870,-3.8706,-1.3198,-2.0135,-1288.82,1935.18,-613.77
1880,-3.8713,-1.3910,-1.6855,-929.44,-1721.37,-644.59
1890,-3.8723,-1.3409,-1.3237,1961.18,262.88,1262.33
1900,-3.8734,-1.1754,-1.0073,367.43,-1424.50,669.25
1910,-3.8744,-0.9441,-0.8019,1554.93,-924.19,1435.49
1920,-3.8439,-0.6959,-0.7212,-835.69,1373.11,-79.71
1930,-3.8442,-0.4601,-0.7207,-1070.07,-298.28,-735.84
1940,-3.8444,-0.2521,-0.7267,1117.43,-235.29,764.16
1950,-3.8445,-0.0780,-0.6880,-257.57,-1000.55,1686.04
1960,-3.8446,0.0547,-0.6086,-1976.32,-47.06,-188.90
1970,-3.8446,0.1354,-0.5258,-991.94,-1906.19,-1579.35
1980,-3.8446,0.1692,-0.4570,1336.18,703.37,-1891.66
1990,-3.8446,0.1718,-0.4055,1664.31,1500.31,-563.42
2000,-3.8445,0.1384,-0.3693,1992.43,94.06,-1266.42
2010,-3.8442,0.0714,-0.3246,1726.81,734.62,1139.89
2020,-3.8440,0.0046,-0.2424,1148.68,-1546.75,-938.17
2030,-3.8749,-0.0411,-0.1106,601.81,968.75,-31.74
2040,-3.8743,-0.0732,0.0601,-1257.57,1859.25,874.76
2050,-3.8737,-0.1016,0.2415,-1366.94,-297.06,1500.06
2060,-3.8730,-0.1365,0.4221,-991.94,-1078.37,-483.95
2070,-3.8723,-0.1748,0.6129,-1460.69,-1953.43,-1905.46
2080,-3.8716,-0.1963,0.7972,1633.06,-1531.62,-1108.22
2090,-3.8707,-0.2079,0.9269,-1116.94,-1937.93,-623.47
2100,-3.8698,-0.2175,0.9851,1398.68,-1344.18,-279.48
2110,-3.8687,-0.1927,0.9900,164.31,-1891.05,-669.98
2120,-3.8676,-0.1221,0.9630,-663.82,-1266.05,1861.27
2130,-3.8667,-0.0306,0.9370,383.06,-718.99,1454.96
2140,-3.8662,0.0579,0.9280,86.18,-46.94,-29.48
2150,-3.8658,0.1536,0.9232,-585.69,-1218.69,783.02
2160,-3.8660,0.2753,0.9197,-335.69,-1827.88,-216.98
2170,-3.8662,0.3855,0.9033,-757.57,1719.24,1954.90
2180,-3.8667,0.4155,0.8553,1351.81,-374.27,-592.04
2190,-3.8671,0.3357,0.7722,1195.56,1485.17,-1232.73
2200,-3.8673,0.1963,0.6403,-1023.19,-1155.64,-1717.29
2210,-3.8676,0.0609,0.4606,1133.06,1953.49,-1451.90
2220,-3.8678,-0.0649,0.2736,-195.07,-1046.81,407.10
2230,-3.8683,-0.1798,0.1439,-304.44,-968.93,-452.64
2240,-3.8688,-0.2449,0.1191,992.43,-1562.87,1281.49
2250,-3.8696,-0.2413,0.1654,664.31,-734.86,-1874.82
2260,-3.8706,-0.2012,0.1975,1117.43,1187.01,844.06
2270,-3.8716,-0.1475,0.1774,-1741.94,1296.45,109.74
2280,-3.8726,-0.0859,0.1255,1133.06,-1281.56,-937.19
2290,-3.8733,-0.0405,0.0765,1008.06,77.94,-1577.88
2300,-3.8739,-0.0240,0.0421,-1179.44,1812.38,-1890.50
2310,-3.8744,-0.0295,0.0043,929.93,1406.19,0.06
2320,-3.8749,-0.0343,-0.0746,226.81,562.44,531.25
2330,-3.8439,-0.0331,-0.2380,-382.57,-1531.37,1515.44
2340,-3.8749,-0.0719,-0.5018,-226.32,1546.75,1890.14
2350,-3.8741,-0.1614,-0.8250,-1195.07,-218.93,1123.96
2360,-3.8732,-0.2686,-1.1456,-648.19,-1578.49,498.35
2370,-3.8723,-0.3710,-1.3867,1633.06,1374.45,-33.51
2380,-3.8716,-0.4601,-1.4934,523.68,-1485.11,1841.00
2390,-3.8715,-0.5161,-1.5792,1117.43,858.46,-362.30
2400,-3.8710,-0.6625,-2.0427,1945.56,1873.96,496.89
2410,-3.8685,-1.0663,-2.5309,-788.82,-1454.47,27.22
2420,-3.8663,-1.1281,-1.9647,-476.32,60.36,-1473.69
2430,-3.8672,-0.5992,-0.5624,-382.57,528.99,105.53
2440,-3.8702,-0.1477,0.3073,-695.07,30.03,327.03
2450,-3.8729,0.0062,0.0256,1101.81,-656.56,-811.95
2460,-3.8730,-0.1206,-0.7009,804.93,-718.75,1937.50
2470,-3.8722,-0.1526,-0.9762,570.56,-1703.37,1154.85
2480,-3.8719,0.0753,-0.7162,476.81,-937.81,-17.58
2490,-3.8718,0.1578,-0.3755,1648.68,328.25,842.35
2500,-3.8719,0.0326,-0.2491,211.18,-62.19,1374.21
2510,-3.8721,-0.1681,-0.3240,179.93,109.44,-469.24
2520,-3.8722,-0.3500,-0.5339,-1507.57,-1453.49,-172.55
2530,-3.8723,-0.4586,-0.7664,-788.82,-328.86,-407.35
2540,-3.8723,-0.4874,-0.8772,1304.93,1920.96,-767.15
2550,-3.8721,-0.4387,-0.7716,1617.43,-266.60,1013.85
2560,-3.8718,-0.3152,-0.5139,-148.19,1249.08,357.85
2570,-3.8716,-0.1774,-0.3005,-335.69,-1766.30,-563.54
2580,-3.8711,-0.1248,-0.1921,1304.93,1546.51,61.89
2590,-3.8711,-0.1786,-0.2137,39.31,-578.37,1624.57
2600,-3.8712,-0.2356,-0.3306,1148.68,655.88,968.32
2610,-3.8713,-0.2238,-0.4238,1851.81,1702.64,218.08
2620,-3.8716,-0.1581,-0.4886,-632.57,1765.14,-922.73
2630,-3.8717,-0.0953,-0.5549,-226.32,1468.38,-657.23
2640,-3.8717,-0.1140,-0.6078,-195.07,984.13,311.40
2650,-3.8719,-0.2906,-0.6228,1414.31,-1781.49,-1376.22
2660,-3.8719,-0.3990,-0.5359,-1195.07,296.26,-1704.35
2670,-3.8716,-0.3221,-0.3260,929.93,-578.92,1467.65
2680,-3.8712,-0.2720,-0.2163,-1226.32,-1719.42,1452.45
2690,-3.8711,-0.2928,-0.3649,1195.56,327.58,187.07
2700,-3.8713,-0.3079,-0.6239,-1476.32,1311.89,1874.27
2710,-3.8718,-0.2424,-0.8040,601.81,155.64,-219.97
2720,-3.8722,-0.1161,-0.8103,976.81,1108.89,1623.41
2730,-3.8723,-0.0071,-0.7031,1148.68,296.63,-610.96
2740,-3.8721,-0.0074,-0.6227,-898.19,-1984.44,1764.22
2750,-3.8718,-0.1066,-0.6189,-945.07,312.44,217.53
2760,-3.8718,-0.1885,-0.6603,-1632.57,796.63,-1157.47
2770,-3.8718,-0.1948,-0.7108,-116.94,-500.43,545.53
2780,-3.8721,-0.1448,-0.7435,-929.44,1030.82,-1579.53
2790,-3.8723,-0.0946,-0.7367,1476.81,843.44,-48.34
2800,-3.8723,-0.0867,-0.6942,-101.32,1718.51,1389.16
2810,-3.8722,-0.1113,-0.6383,914.31,-843.93,576.72
2820,-3.8721,-0.1416,-0.5802,1758.06,-1687.74,-313.78
2830,-3.8718,-0.1438,-0.5425,1883.06,1749.69,-1751.16
2840,-3.8717,-0.1268,-0.5424,1601.81,-1422.18,420.78
2850,-3.8718,-0.1555,-0.5507,-226.32,-1406.56,-501.10
2860,-3.8718,-0.2018,-0.5374,101.81,1530.94,-501.10
2870,-3.8717,-0.2262,-0.5034,-1820.07,-766.05,1811.40
2880,-3.8716,-0.2422,-0.4890,-945.07,-422.36,530.21
2890,-3.8716,-0.2212,-0.5149,1008.06,1421.39,655.27
2900,-3.8717,-0.1565,-0.5479,-304.44,-1891.11,-1204.16
2910,-3.8717,-0.0861,-0.5488,-23.19,1890.26,545.78
2920,-3.8718,-0.0806,-0.5118,992.43,1765.44,-1141.72
2930,-3.8718,-0.1526,-0.4812,1695.56,-1500.18,-63.54
2940,-3.8717,-0.2279,-0.4712,476.81,-1578.43,1514.65
2950,-3.8717,-0.2579,-0.4872,-1163.82,-297.36,514.65
2960,-3.8718,-0.2332,-0.5244,-1007.57,1655.70,-1375.98
2970,-3.8718,-0.1824,-0.5400,-1835.69,890.14,-1407.29
2980,-3.8717,-0.1562,-0.5184,664.31,-1109.74,1045.78
2990,-3.8717,-0.1499,-0.4822,8.06,1655.94,-282.29
3000,-3.8716,-0.1437,-0.4669,820.56,-1703.43,420.90
3010,-3.8717,-0.1547,-0.4785,1617.43,249.69,-1172.79
3020,-3.8717,-0.1885,-0.5055,211.18,-1234.68,295.90
3030,-3.8718,-0.2150,-0.5220,-116.94,-687.93,-1907.29
3040,-3.8719,-0.2190,-0.5143,492.43,1202.70,-282.29
3050,-3.8719,-0.2084,-0.4958,-23.19,-1812.99,-1719.79
3060,-3.8719,-0.1722,-0.4890,1336.18,546.45,-532.23
3070,-3.8718,-0.1426,-0.4929,1961.18,1421.51,-985.35
3080,-3.8717,-0.1285,-0.4865,1758.06,921.57,1983.40
3090,-3.8717,-0.1176,-0.5291,-445.07,1749.69,-1125.98
3100,-3.8715,-0.1179,-0.5922,961.18,296.63,-1922.91
3110,-3.8712,-0.1450,-0.5240,914.31,218.51,-1485.53
3120,-3.8715,-0.1222,-0.4274,1445.56,937.19,-1172.91
3130,-3.8717,-0.0768,-0.4810,367.43,1312.26,280.40
3140,-3.8717,-0.0872,-0.5562,-1820.07,-1547.06,1186.52
3150,-3.8717,-0.1329,-0.5519,851.81,827.94,-438.60
3160,-3.8717,-0.1483,-0.5277,-1007.57,1374.69,1764.53
3170,-3.8717,-0.1099,-0.5278,1023.68,468.44,452.09
3180,-3.8717,-0.0753,-0.5488,1945.56,452.88,1561.46
3190,-3.8717,-0.0477,-0.5758,-1632.57,1765.44,248.90
3200,-3.8718,-0.0972,-0.5901,1898.68,-1687.62,1670.72
3210,-3.8718,-0.1833,-0.5532,-429.44,484.13,576.97
3220,-3.8718,-0.2013,-0.4891,539.31,1202.76,1217.65
3230,-3.8718,-0.1389,-0.4480,-1757.57,1405.82,-94.73
3240,-3.8716,-0.0482,-0.4491,-1773.19,-1328.43,670.96
3250,-3.8715,0.0044,-0.4530,1836.18,-1468.87,-969.67
3260,-3.8713,0.0322,-0.4658,570.56,-1984.38,467.83
3270,-3.8715,0.0186,-0.5277,133.06,375.06,77.21
3280,-3.8717,-0.0691,-0.5961,-1616.94,453.12,-235.41
3290,-3.8717,-0.1592,-0.6179,-835.69,-281.43,545.65
3300,-3.8718,-0.1720,-0.6045,-366.94,921.51,108.15
3310,-3.8721,-0.1027,-0.6047,1992.43,-1359.74,-579.35
3320,-3.8721,-0.0237,-0.6298,-1132.57,-1390.87,-1094.97
3330,-3.8718,0.0433,-0.5793,976.81,-593.81,654.97
3340,-3.8719,0.1572,-0.4979,1554.93,1843.81,-563.66
3350,-3.8722,0.2089,-0.5056,133.06,265.93,-469.73
3360,-3.8722,0.1566,-0.5455,-1257.57,-718.38,1764.59
3370,-3.8721,0.0680,-0.6007,54.93,-1827.82,608.28
3380,-3.8719,-0.0834,-0.6586,711.18,-890.50,-1282.47
3390,-3.8717,-0.2292,-0.6543,1336.18,-281.43,670.53
3400,-3.8717,-0.2651,-0.5935,-1335.69,265.14,1983.09
3410,-3.8718,-0.1840,-0.5381,-1929.44,46.33,-735.53
3420,-3.8718,-0.0704,-0.5179,461.18,-859.74,952.03
3430,-3.8719,0.0082,-0.5223,-1007.57,1718.57,-32.29
3440,-3.8719,0.0277,-0.5425,1054.93,1140.62,-1313.54
3450,-3.8719,-0.0026,-0.5695,-445.07,-1437.50,-1079.22
3460,-3.8718,-0.0426,-0.5865,-320.07,-875.06,-844.91
3470,-3.8716,-0.0809,-0.5662,-1445.07,937.38,-1469.91
3480,-3.8715,-0.1318,-0.5306,1648.68,-453.31,-1485.53
3490,-3.8715,-0.1907,-0.5251,-866.94,93.44,-1844.79
3500,-3.8715,-0.2474,-0.5533,-398.19,796.45,-1922.91
3510,-3.8715,-0.2777,-0.6121,336.18,1187.01,1983.28
3520,-3.8715,-0.2473,-0.6656,461.18,1671.33,-798.10
3530,-3.8713,-0.1785,-0.6825,351.81,-1187.99,-1188.84
3540,-3.8712,-0.1527,-0.6855,1164.31,655.88,-938.84
3550,-3.8711,-0.2233,-0.7020,461.18,265.32,1498.66
3560,-3.8712,-0.3678,-0.7184,-570.07,-1844.24,-188.90
3570,-3.8713,-0.5187,-0.7092,929.93,61.77,-860.78
3580,-3.8715,-0.6368,-0.6788,1617.43,1233.34,-563.90
3590,-3.8713,-0.7097,-0.6176,-1507.57,1123.72,545.53
3600,-3.8712,-0.7231,-0.4694,1164.31,967.35,389.40
3610,-3.8713,-0.6785,-0.2416,-554.44,-63.96,-1594.73
3620,-3.8716,-0.5813,-0.0106,1164.31,1092.41,1030.76
3630,-3.8719,-0.5188,0.1740,1601.81,-1344.91,1359.31
3640,-3.8723,-0.5730,0.2922,1601.81,-1719.79,-1609.07
3650,-3.8724,-0.6293,0.3485,-1335.69,1420.72,656.80
3660,-3.8724,-0.6003,0.3595,-538.82,623.72,938.17
3670,-3.8724,-0.5559,0.3163,-835.69,-1969.97,-1202.45
3680,-3.8723,-0.5499,0.2030,851.81,498.90,1500.61
3690,-3.8722,-0.5642,0.0714,1617.43,1998.90,1984.74
3700,-3.8721,-0.5569,0.0011,-210.69,1155.09,-1468.63
3710,-3.8719,-0.5116,0.0059,726.81,155.15,843.75
3720,-3.8719,-0.4365,0.0422,-1476.32,764.59,1140.62
3730,-3.8719,-0.3479,0.0669,133.06,1421.02,1343.81
3740,-3.8719,-0.2607,0.0608,-523.19,577.39,-624.88
3750,-3.8718,-0.1772,0.0298,-1366.94,-203.67,-546.81
3760,-3.8716,-0.0980,-0.0110,1320.56,-172.24,1515.62
3770,-3.8713,-0.0316,-0.0533,-538.82,-1390.87,234.31
3780,-3.8713,0.0223,-0.0850,-38.82,1187.38,-703.25
3790,-3.8713,0.0513,-0.0858,-1132.57,1125.00,937.32
3800,-3.8716,0.0342,-0.0675,-1429.44,1015.69,-1750.18
3810,-3.8718,-0.0245,-0.0725,383.06,-640.56,-937.68
3820,-3.8718,-0.1066,-0.1230,867.43,-1265.69,327.94
3830,-3.8718,-0.2032,-0.2295,-1632.57,265.38,-797.12
3840,-3.8716,-0.3027,-0.3962,1992.43,-1359.80,-1672.36
3850,-3.8713,-0.3856,-0.6006,1258.06,1296.26,-1188.29
3860,-3.8711,-0.4462,-0.7819,-1351.32,-860.17,1233.15
3870,-3.8710,-0.4822,-0.8837,-1101.32,-63.42,842.16
3880,-3.8710,-0.4917,-0.9133,-1710.69,-1094.73,1466.98
3890,-3.8711,-0.4794,-0.9020,1070.56,-891.60,1670.04
3900,-3.8713,-0.4406,-0.8645,-1351.32,561.52,1748.23
3910,-3.8716,-0.3673,-0.8019,-382.57,1358.46,310.79
3920,-3.8719,-0.2753,-0.7107,992.43,1374.27,-1392.21
3930,-3.8722,-0.1996,-0.6157,773.68,1046.33,732.97
3940,-3.8724,-0.1597,-0.5409,-1538.82,1202.70,826.90
3950,-3.8726,-0.1527,-0.4807,-429.44,-1219.12,592.65
3960,-3.8727,-0.1680,-0.4668,461.18,-1515.93,-1125.98
3970,-3.8726,-0.1901,-0.5885,-1491.94,265.26,655.33
3980,-3.8723,-0.2213,-0.8817,-320.07,687.07,-1454.28
3990,-3.8717,-0.2974,-1.2607,-320.07,-844.24,451.35
4000,-3.8712,-0.3318,-1.5809,1945.56,-1359.99,1450.62
4010,-3.8711,-0.2119,-1.6747,1539.31,1655.58,-1471.86
4020,-3.8713,-0.0219,-1.4506,883.06,1655.82,-409.55
4030,-3.8717,0.1074,-1.0084,1211.18,-1656.31,-518.49
4040,-3.8721,0.1289,-0.5428,1758.06,-1077.94,1279.24
4050,-3.8726,0.0471,-0.1732,508.06,-1484.13,-469.85
4060,-3.8728,-0.1230,0.0760,-1960.69,1828.19,-1922.24
4070,-3.8729,-0.3279,0.2072,258.06,1749.76,-390.50
4080,-3.8727,-0.5072,0.2302,-1960.69,-1469.42,406.62
4090,-3.8724,-0.6396,0.1671,-913.82,1483.34,1750.43
4100,-3.8722,-0.7131,0.0547,-1866.94,1404.97,-859.07
4110,-3.8719,-0.7560,-0.0720,726.81,-985.78,-1468.69
4120,-3.8717,-0.8063,-0.2107,-757.57,-1204.65,1218.57
4130,-3.8715,-0.8655,-0.3718,804.93,1045.29,624.57
4140,-3.8713,-0.8934,-0.5303,1226.81,420.17,-1110.11
4150,-3.8713,-0.8335,-0.6382,1648.68,138.85,-1188.54
4160,-3.8716,-0.6554,-0.6603,1320.56,-1673.52,233.09
4170,-3.8721,-0.3650,-0.5875,117.43,-501.28,873.66
4180,-3.8723,-0.0488,-0.4554,1289.31,811.77,-1641.78
4190,-3.8721,0.1493,-0.3254,1758.06,1718.63,-1266.54
4200,-3.8716,0.1566,-0.2357,-882.57,-1656.01,858.70
4210,-3.8713,0.0269,-0.2001,54.93,1828.43,1062.01
4220,-3.8713,-0.1351,-0.2239,-554.44,-1609.38,1249.57
4230,-3.8715,-0.2656,-0.2856,-1288.82,-640.93,687.01
4240,-3.8717,-0.3446,-0.3423,-1991.94,-547.42,-750.61
4250,-3.8718,-0.3667,-0.3804,-101.32,202.39,-31.92
4260,-3.8717,-0.3383,-0.4152,1070.56,-672.61,1014.83
4270,-3.8716,-0.2804,-0.4452,711.18,-1125.67,-1219.60
4280,-3.8713,-0.2238,-0.4585,117.43,-969.30,1295.96
4290,-3.8713,-0.1969,-0.4606,-632.57,1327.64,-547.79
4300,-3.8713,-0.2046,-0.4640,-1195.07,1062.07,467.83
4310,-3.8715,-0.2178,-0.4679,1820.56,624.57,592.83
4320,-3.8716,-0.2086,-0.4681,133.06,124.57,-1063.42
4330,-3.8716,-0.1932,-0.4692,1304.93,93.32,-1907.17
4340,-3.8716,-0.2079,-0.4788,-726.32,-47.30,670.90
4350,-3.8717,-0.2476,-0.4937,1398.68,-1266.05,-750.98
4360,-3.8717,-0.2859,-0.5023,320.56,827.64,1358.40
4370,-3.8718,-0.3148,-0.5059,-585.69,-281.86,-1501.04
4380,-3.8719,-0.3350,-0.5155,-288.82,-735.05,-219.79
4390,-3.8719,-0.3452,-0.5284,1133.06,-1969.42,-1391.66
4400,-3.8719,-0.3441,-0.5409,-179.44,374.27,-360.41
4410,-3.8718,-0.3363,-0.5554,-38.82,-1219.48,1920.78
4420,-3.8718,-0.3381,-0.5667,961.18,921.20,-891.72
4430,-3.8718,-0.3441,-0.5656,726.81,-516.30,1873.84
4440,-3.8719,-0.3414,-0.5554,-38.82,-375.73,-751.16
4450,-3.8719,-0.3322,-0.5457,304.93,921.20,795.78
4460,-3.8719,-0.3112,-0.5292,1492.43,-1828.80,108.28
4470,-3.8719,-0.2849,-0.5038,179.93,280.64,795.84
4480,-3.8719,-0.2704,-0.4806,-460.69,-469.36,795.84
4490,-3.8721,-0.2985,-0.5172,1398.68,-1500.55,-110.35
4500,-3.8721,-0.3065,-0.5790,1804.93,1811.89,-1797.91
4510,-3.8719,-0.2598,-0.5958,773.68,1905.64,-563.66
4520,-3.8716,-0.2701,-0.5830,-1241.94,-250.55,764.40
4530,-3.8718,-0.3640,-0.5432,1429.93,1390.08,-688.66
4540,-3.8723,-0.4257,-0.4862,1414.31,-1516.36,858.28
4550,-3.8727,-0.3616,-0.4410,1523.68,1780.40,467.77
4560,-3.8728,-0.1914,-0.5193,1726.81,-438.23,467.83
4570,-3.8724,-0.1215,-0.6178,-491.94,1546.45,186.46
4580,-3.8717,-0.2753,-0.6647,461.18,937.26,1280.03
4590,-3.8715,-0.4924,-0.6903,773.68,-1063.05,-298.22
4600,-3.8717,-0.6151,-0.6475,976.81,-344.73,-1204.53
4610,-3.8721,-0.5889,-0.5732,1273.68,1139.40,-1751.28
4620,-3.8723,-0.4717,-0.5045,633.06,-1360.53,1186.34
4630,-3.8724,-0.3717,-0.5004,-366.94,-563.48,1498.96
4640,-3.8724,-0.3276,-0.5522,429.93,-31.98,-438.54
4650,-3.8723,-0.3287,-0.6099,-1929.44,1327.45,-860.47
4660,-3.8722,-0.3546,-0.6356,1929.93,1952.45,-876.22
4670,-3.8721,-0.3789,-0.6285,-1382.57,-1344.48,1373.72
4680,-3.8721,-0.3885,-0.6027,-491.94,-438.29,1779.97
4690,-3.8721,-0.3811,-0.5682,-1726.32,-1125.79,389.40
4700,-3.8722,-0.3815,-0.5685,-773.19,-719.54,-1782.41
4710,-3.8722,-0.4418,-0.6915,-820.07,-750.79,-141.78
4720,-3.8723,-0.3793,-0.7197,-538.82,-500.92,1123.60
4730,-3.8726,-0.2646,-0.5688,-538.82,-110.17,-548.34
4740,-3.8722,-0.3363,-0.4739,-1866.94,-797.42,1811.34
4750,-3.8718,-0.4576,-0.4697,961.18,-641.30,733.40
4760,-3.8718,-0.5232,-0.4851,1429.93,-110.29,1577.15
4770,-3.8721,-0.5212,-0.4741,1039.31,1920.84,-1297.85
4780,-3.8722,-0.4724,-0.4635,1289.31,-672.91,467.77
4790,-3.8723,-0.4244,-0.4773,-460.69,686.52,1217.83
4800,-3.8723,-0.4019,-0.5111,1679.93,-1078.98,-1454.10
4810,-3.8721,-0.4025,-0.5604,570.56,-1407.04,1280.21
4820,-3.8718,-0.4203,-0.6283,492.43,280.46,-876.10
4830,-3.8715,-0.4309,-0.6805,-1788.82,-407.10,858.09
4840,-3.8713,-0.4084,-0.6659,851.81,905.40,-1610.72
4850,-3.8713,-0.3502,-0.5735,-273.19,-1219.60,576.78
4860,-3.8716,-0.2866,-0.4374,-820.07,-1391.36,1092.59
4870,-3.8718,-0.2571,-0.2998,-679.44,30.64,1280.40
4880,-3.8719,-0.2791,-0.2091,-898.19,1640.08,-1891.24
4890,-3.8718,-0.3364,-0.2058,289.31,1249.45,-1656.68
4900,-3.8715,-0.3890,-0.2600,945.56,1671.20,-1937.93
4910,-3.8710,-0.4143,-0.2843,-1788.82,-1266.42,968.20
4920,-3.8706,-0.4336,-0.2300,-1023.19,-375.85,202.51
4930,-3.8706,-0.4741,-0.1185,508.06,-1422.73,-1391.11
4940,-3.8708,-0.5132,-0.0095,-679.44,842.77,-93.99
4950,-3.8711,-0.5554,0.0509,-1679.44,-1204.16,515.56
4960,-3.8716,-0.6921,0.0955,914.31,-1469.85,1859.44
4970,-3.8721,-0.8967,0.1624,-585.69,232.97,-249.82
4980,-3.8722,-1.0634,0.2423,1226.81,795.10,125.31
4990,-3.8723,-1.1522,0.2999,-101.32,-970.89,1531.68
5000,-3.8723,-1.1510,0.3054,523.68,-1596.01,-1030.70
5010,-3.8721,-1.0895,0.2836,679.93,-892.88,203.67
5020,-3.8719,-1.0060,0.2743,554.93,310.36,1563.05
5030,-3.8718,-0.9221,0.2944,-757.57,-877.01,328.61
5040,-3.8718,-0.8540,0.3342,1976.81,1701.29,1391.17
5050,-3.8718,-0.8105,0.3754,-1304.44,-1204.83,-1827.51
5060,-3.8718,-0.7909,0.4084,258.06,60.91,-1436.77
5070,-3.8718,-0.7858,0.4343,-1226.32,295.29,-1889.83
5080,-3.8718,-0.7793,0.4503,-570.07,-392.21,797.67
5090,-3.8719,-0.7740,0.4491,258.06,1654.72,-171.02
5100,-3.8718,-0.7850,0.4171,929.93,1498.47,750.85
5110,-3.8717,-0.8186,0.3406,-476.32,1404.66,641.42
5120,-3.8715,-0.8702,0.2275,-773.19,-392.27,94.36
5130,-3.8712,-0.9237,0.1024,617.43,1138.92,469.18
5140,-3.8711,-0.9569,-0.0164,1773.68,1123.17,-906.07
5150,-3.8708,-0.9485,-0.1014,1523.68,1919.98,390.56
5160,-3.8708,-0.8947,-0.1191,-1398.19,-970.64,-406.49
5170,-3.8708,-0.8099,-0.0811,1492.43,763.85,-1343.99
5180,-3.8710,-0.7109,-0.0364,336.18,1639.04,1327.94
5190,-3.8712,-0.6077,-0.0143,1008.06,-642.03,1499.88
5200,-3.8715,-0.5067,-0.0070,-1773.19,-1813.72,1499.94
5210,-3.8717,-0.4142,0.0024,-851.32,-876.04,1593.69
5220,-3.8719,-0.3337,0.0155,-1007.57,327.27,1125.00
5230,-3.8722,-0.2668,0.0228,1289.31,1999.33,468.75
5240,-3.8724,-0.2145,0.0143,1851.81,-1063.05,296.88
5250,-3.8727,-0.1835,-0.0201,554.93,1843.32,1906.25
5260,-3.8728,-0.1764,-0.0703,523.68,1437.13,-1046.94
5270,-3.8728,-0.1831,-0.0988,1429.93,-984.74,-1484.56
5280,-3.8728,-0.1931,-0.0820,570.56,-625.37,1687.26
5290,-3.8729,-0.2062,-0.0385,-710.69,1515.20,-1015.81
5300,-3.8730,-0.2234,0.0029,1617.43,-906.68,-1047.00
5310,-3.8732,-0.2368,0.0369,-585.69,390.14,-1250.00
5320,-3.8733,-0.2402,0.0668,1695.56,733.89,-1046.81
5330,-3.8734,-0.2358,0.0927,1258.06,562.01,-624.88
5340,-3.8735,-0.2301,0.1174,1820.56,-125.49,-124.88
5350,-3.8735,-0.2295,0.1383,-1445.07,-953.61,906.43
5360,-3.8737,-0.2384,0.1411,-1366.94,1718.26,-1218.51
5370,-3.8737,-0.2606,0.1128,1492.43,-1922.36,1922.12
5380,-3.8737,-0.2949,0.0624,-1351.32,-1547.42,-1031.07
5390,-3.8735,-0.3339,0.0172,-1741.94,-0.61,1453.19
5400,-3.8735,-0.3674,-0.0051,1273.68,-1781.92,-250.00
5410,-3.8734,-0.3915,-0.0099,976.81,-641.36,328.06
5420,-3.8735,-0.4087,-0.0126,1898.68,-1250.79,-890.69
5430,-3.8735,-0.4219,-0.0292,-304.44,-1594.60,1499.94
5440,-3.8735,-0.4340,-0.0782,-1991.94,280.40,1328.06
5450,-3.8734,-0.4436,-0.1544,461.18,1999.15,156.07
5460,-3.8733,-0.4384,-0.2192,-773.19,249.08,1890.32
5470,-3.8730,-0.4166,-0.2476,-101.32,-47.79,749.51
5480,-3.8729,-0.3929,-0.2454,-1320.07,327.27,-1734.86
5490,-3.8728,-0.3828,-0.2317,1711.18,608.58,983.89
5500,-3.8728,-0.3785,-0.2202,-991.94,-1641.42,1390.14
5510,-3.8728,-0.3662,-0.2261,-445.07,-172.67,1046.39
5520,-3.8728,-0.3540,-0.2720,1133.06,-922.61,1280.76
5530,-3.8728,-0.3468,-0.3524,-1304.44,1202.39,-734.92
5540,-3.8727,-0.3414,-0.4237,-382.57,-1094.48,-1094.48
5550,-3.8726,-0.3364,-0.4543,304.93,1780.58,1811.65
5560,-3.8726,-0.3453,-0.4524,945.56,1858.70,-1907.17
5570,-3.8726,-0.3806,-0.4426,-195.07,-1891.36,1186.58
5580,-3.8726,-0.4275,-0.4465,-710.69,-641.42,1733.46
5590,-3.8724,-0.4656,-0.4755,1289.31,-1141.48,702.21
5600,-3.8723,-0.4943,-0.5182,414.31,-844.67,-1860.35
5610,-3.8721,-0.5135,-0.5476,742.43,1686.52,1483.34
5620,-3.8718,-0.5164,-0.5420,-1726.32,1920.84,1092.65
5630,-3.8717,-0.5087,-0.5042,1914.31,-1360.41,-1266.72
5640,-3.8716,-0.5059,-0.4622,-1101.32,-516.66,1592.71
5650,-3.8716,-0.5177,-0.4395,-741.94,858.34,-891.54
5660,-3.8715,-0.5437,-0.4434,1742.43,-235.41,1749.08
5670,-3.8713,-0.5869,-0.4723,-1585.69,-735.47,-875.92
5680,-3.8711,-0.6494,-0.5159,883.06,-438.66,-375.98
5690,-3.8707,-0.7227,-0.5531,883.06,1983.09,-1501.04
5700,-3.8704,-0.8009,-0.5732,-491.94,1217.29,1373.90
5710,-3.8701,-0.8925,-0.5874,1492.43,-1360.96,-1954.28
5720,-3.8699,-0.9886,-0.6003,1773.68,826.35,170.72
5730,-3.8698,-1.0631,-0.6011,1461.18,-830.08,311.28
5740,-3.8698,-1.1045,-0.5885,-70.07,-924.01,-1313.72
5750,-3.8698,-1.1105,-0.5789,-1366.94,685.30,-188.66
5760,-3.8696,-1.0774,-0.5968,1867.43,1919.68,1280.09
5770,-3.8695,-1.0068,-0.6509,-1898.19,-377.14,467.53
5780,-3.8694,-0.9156,-0.7195,-866.94,701.11,1279.97
5790,-3.8693,-0.8203,-0.7684,-1195.07,-79.96,-1501.46
5800,-3.8691,-0.7225,-0.7727,-991.94,1654.60,-1798.40
5810,-3.8691,-0.6283,-0.7341,-476.32,1107.91,-1517.15
5820,-3.8693,-0.5509,-0.6770,-413.82,-1954.41,-1110.84
5830,-3.8694,-0.4967,-0.6219,1492.43,1358.28,592.41
5840,-3.8696,-0.4604,-0.5734,429.93,405.27,1186.28
5850,-3.8699,-0.4336,-0.5305,1070.56,-1375.92,1530.09
5860,-3.8701,-0.4111,-0.4919,508.06,108.52,1514.59
5870,-3.8704,-0.3898,-0.4543,-616.94,1046.02,1061.52
5880,-3.8706,-0.3687,-0.4146,-1882.57,1858.58,749.08
5890,-3.8708,-0.3484,-0.3754,820.56,-1047.61,1171.02
5900,-3.8711,-0.3298,-0.3391,-585.69,-31.98,-1360.17
5910,-3.8712,-0.3145,-0.3071,1789.31,608.70,905.58
5920,-3.8715,-0.3042,-0.2842,-241.94,702.45,-563.11
5930,-3.8716,-0.2975,-0.2694,1070.56,-359.99,-1828.74
5940,-3.8717,-0.2897,-0.2571,1929.93,1530.64,1015.08
5950,-3.8719,-0.2755,-0.2473,-1070.07,-891.24,-375.55
5960,-3.8721,-0.2570,-0.2455,742.43,358.83,1983.89
5970,-3.8722,-0.2391,-0.2501,-882.57,593.20,577.64
5980,-3.8724,-0.2250,-0.2505,1398.68,-0.49,-125.55
5990,-3.8724,-0.2192,-0.2375,-788.82,-47.36,202.58
6000,-3.8726,-0.2241,-0.2119,-54.44,1608.89,1655.76
6010,-3.8727,-0.2350,-0.1829,-679.44,890.14,-609.80
6020,-3.8727,-0.2483,-0.1547,1929.93,608.89,687.13
6030,-3.8728,-0.2599,-0.1257,226.81,218.26,-1937.81
6040,-3.8729,-0.2592,-0.0930,-1257.57,-78.67,-15.93
6050,-3.8729,-0.2472,-0.0591,-1163.82,108.83,-1765.81
6060,-3.8729,-0.2310,-0.0385,367.43,452.64,249.88
6070,-3.8730,-0.2081,-0.0470,-1554.44,-906.74,-1875.12
6080,-3.8730,-0.1810,-0.0939,1367.43,1999.57,1328.00
6090,-3.8730,-0.1600,-0.1664,836.18,-0.37,-1078.37
6100,-3.8729,-0.1483,-0.2262,-476.32,-1281.62,-1953.49
6110,-3.8728,-0.1479,-0.2455,1023.68,-937.81,374.51
6120,-3.8728,-0.1592,-0.2322,1070.56,593.44,233.89
6130,-3.8729,-0.1747,-0.2153,-366.94,-1703.49,-1422.36
6140,-3.8729,-0.1892,-0.2147,1648.68,452.76,1077.70
6150,-3.8729,-0.2004,-0.2346,-210.69,530.82,312.07
6160,-3.8729,-0.2051,-0.2784,-1648.19,1983.95,218.26
6170,-3.8729,-0.1996,-0.3304,1758.06,374.57,405.70
6180,-3.8729,-0.1873,-0.3656,-1538.82,1718.32,139.95
6190,-3.8730,-0.1685,-0.3740,39.31,1218.38,-828.86
6200,-3.8730,-0.1393,-0.3661,-1554.44,140.26,-1578.86
6210,-3.8730,-0.1001,-0.3608,-1820.07,1155.94,-1875.73
6220,-3.8730,-0.0563,-0.3700,-804.44,1827.88,-1906.98
6230,-3.8730,-0.0161,-0.3984,804.93,656.13,1983.64
6240,-3.8730,0.0149,-0.4415,1945.56,1015.56,967.96
6250,-3.8732,0.0261,-0.4935,1914.31,-515.62,-766.54
6260,-3.8732,0.0072,-0.5527,-648.19,828.12,-1500.98
6270,-3.8732,-0.0392,-0.6077,929.93,1250.00,-126.10
6280,-3.8730,-0.0969,-0.6365,-1007.57,-1765.75,-1094.97
6290,-3.8729,-0.2574,-0.8604,-398.19,-1453.37,-1735.66
6300,-3.8712,-0.7198,-1.8113,-945.07,1890.08,-298.58
6310,-3.8673,-1.0951,-2.4292,-132.57,170.41,-909.79
6320,-3.8650,-0.9478,-1.4761,-163.82,1075.93,-895.39
6330,-3.8673,-0.4988,0.0653,-1304.44,-923.77,-893.55
6340,-3.8711,-0.2485,0.7075,164.31,374.02,-140.50
6350,-3.8717,-0.4323,0.3567,195.56,-1422.36,-92.41
6360,-3.8702,-0.6212,-0.0470,679.93,1671.02,-171.20
6370,-3.8687,-0.5194,-0.1503,492.43,1998.78,-1000.12
6380,-3.8678,-0.2930,-0.0426,1523.68,780.21,-531.56
6390,-3.8684,-0.1296,-0.0267,-1491.94,-1438.11,1093.63
6400,-3.8696,-0.0479,-0.1807,-585.69,593.44,124.94
6410,-3.8702,0.0449,-0.2120,1883.06,890.50,109.01
6420,-3.8705,0.1104,-0.1659,1758.06,859.44,124.57
6430,-3.8707,0.0598,-0.2823,-1866.94,-1234.19,-1750.37
6440,-3.8705,-0.0242,-0.5481,-335.69,-140.56,1390.01
6450,-3.8699,-0.0890,-0.7400,914.31,1859.31,-1094.85
6460,-3.8693,-0.1600,-0.7195,617.43,1296.69,1139.16
6470,-3.8693,-0.2294,-0.5210,-476.32,-78.49,-642.09
6480,-3.8695,-0.2749,-0.2770,-1351.32,1327.64,702.09
6490,-3.8701,-0.2714,-0.0990,820.56,561.95,-375.55
6500,-3.8706,-0.2094,-0.0131,1273.68,-656.80,609.13
6510,-3.8712,-0.1106,0.0150,1211.18,-1656.68,-828.19
6520,-3.8717,-0.0228,0.0311,1851.81,1937.26,-718.75
6530,-3.8721,0.0255,0.0583,1086.18,-0.06,609.38
6540,-3.8726,0.0341,0.0850,-726.32,-531.25,-1437.44
6550,-3.8729,0.0112,0.0916,367.43,-1124.94,1172.00
6560,-3.8733,-0.0312,0.0734,1445.56,-281.25,1000.12
6570,-3.8737,-0.0769,0.0416,8.06,1406.19,-1703.00
6580,-3.8739,-0.1110,0.0206,-1835.69,1343.57,718.81
6590,-3.8743,-0.1356,0.0232,1804.93,-1343.99,-875.00
6600,-3.8745,-0.1554,0.0400,-1351.32,-1015.93,734.38
6610,-3.8749,-0.1655,0.0465,117.43,1140.32,1828.19
6620,-3.8440,-0.1627,0.0251,-1179.44,1968.38,-921.81
6630,-3.8442,-0.1560,-0.0146,-820.07,-765.99,609.38
6640,-3.8446,-0.1562,-0.0582,39.31,-1859.68,-1390.69
6650,-3.8448,-0.1642,-0.1035,8.06,562.19,1562.38
6660,-3.8451,-0.1788,-0.1564,-1007.57,-1234.74,-703.37
6670,-3.8451,-0.1920,-0.2125,1117.43,-0.37,593.38
6680,-3.8452,-0.2013,-0.2841,-570.07,812.07,-500.43
6690,-3.8447,0.0624,-1.0522,-1757.57,-344.18,1515.01
6700,-3.8716,-0.0879,-2.6995,-7.57,1312.56,-814.58
6710,-3.8649,-0.8976,-2.9929,758.06,-1515.81,838.44
6720,-3.8641,-1.0955,-0.7739,1117.43,920.10,-1958.98
6730,-3.8676,-0.7698,1.4906,-210.69,950.93,-1532.78
6740,-3.8698,-0.6547,1.7794,1476.81,-1189.03,1862.24
6750,-3.8698,-0.6602,0.7616,211.18,-220.03,1300.29
6760,-3.8685,-0.5967,-0.1821,-491.94,1498.66,1095.21
6770,-3.8680,-0.4996,-0.4536,-366.94,701.90,-1484.74
6780,-3.8685,-0.3668,-0.2917,54.93,1952.15,1170.96
6790,-3.8698,-0.2273,-0.1527,1054.93,-1328.86,-734.99
6800,-3.8707,-0.1798,-0.2366,-1085.69,468.26,1218.44
6810,-3.8711,-0.2050,-0.4895,992.43,1734.01,265.14
6820,-3.8710,-0.2880,-0.7471,1773.68,1358.95,-1188.48
6830,-3.8705,-0.3744,-0.8445,-851.32,390.01,717.29
6840,-3.8701,-0.3882,-0.7411,86.18,-78.86,170.17
6850,-3.8701,-0.3815,-0.5525,-1679.44,1155.46,-1767.09
6860,-3.8704,-0.3868,-0.4055,-820.07,1296.08,-126.10
6870,-3.8706,-0.4039,-0.3221,-1507.57,108.58,-47.67
6880,-3.8707,-0.4457,-0.2787,304.93,-1219.54,1093.08
6890,-3.8708,-0.4725,-0.2577,-1038.82,342.83,140.08
6900,-3.8710,-0.4402,-0.2332,-476.32,-969.73,874.45
6910,-3.8711,-0.3717,-0.1909,-335.69,-1829.04,1562.01
6920,-3.8712,-0.3065,-0.1295,429.93,-422.61,812.07
6930,-3.8715,-0.2628,-0.0553,773.68,-563.11,-875.31
6940,-3.8716,-0.2456,0.0186,-1632.57,936.95,1671.75
6950,-3.8717,-0.2484,0.0863,570.56,-1609.86,1312.50
6960,-3.8718,-0.2581,0.1512,211.18,-937.99,-1734.25
6970,-3.8719,-0.2690,0.2091,-1023.19,-625.55,-187.26
6980,-3.8719,-0.2834,0.2469,1570.56,-1219.30,1828.49
6990,-3.8719,-0.3044,0.2646,-273.19,-375.61,516.05
7000,-3.8721,-0.3284,0.2810,1039.31,1890.01,-1140.14
7010,-3.8722,-0.3496,0.3091,1976.81,-16.30,-218.26
7020,-3.8723,-0.3672,0.3359,-741.94,-422.61,-61.95
7030,-3.8723,-0.3850,0.3474,1008.06,-985.11,1406.86
7040,-3.8723,-0.3992,0.3413,-1273.19,483.58,1047.55
7050,-3.8723,-0.3922,0.3153,914.31,-297.67,1641.24
7060,-3.8723,-0.3636,0.2661,1804.93,374.21,-1811.89
7070,-3.8723,-0.3370,0.1957,1461.18,-1922.61,-1608.89
7080,-3.8723,-0.3247,0.1202,867.43,1061.83,1906.62
7090,-3.8724,-0.3114,0.0496,-1554.44,-594.42,-15.44
7100,-3.8724,-0.2760,-0.0164,148.68,-1641.24,1406.31
7110,-3.8726,-0.2278,-0.0725,679.93,1921.33,-1671.94
7120,-3.8727,-0.1913,-0.1140,-1148.19,-1266.11,1202.94
7130,-3.8729,-0.1630,-0.1252,-476.32,1421.45,-1375.24
7140,-3.8732,-0.1260,-0.1074,-851.32,-15.99,-562.81
7150,-3.8734,-0.0848,-0.0906,-116.94,-1734.68,-515.87
7160,-3.8735,-0.0502,-0.0900,1148.68,421.69,1281.07
7170,-3.8735,-0.0144,-0.1367,1586.18,499.88,437.32
7180,-3.8734,0.0120,-0.2590,-1835.69,-1484.44,1343.44
7190,-3.8732,-0.0154,-0.4304,1539.31,-1156.25,1999.45
7200,-3.8729,-0.1224,-0.5886,-1960.69,921.81,-1313.35
7210,-3.8727,-0.2865,-0.6565,336.18,671.63,280.09
7220,-3.8727,-0.4701,-0.6095,-663.82,-16.24,1608.03
7230,-3.8728,-0.6396,-0.5249,-163.82,1999.02,-63.72
7240,-3.8727,-0.7893,-0.5306,-1866.94,826.84,311.46
7250,-3.8724,-0.9274,-0.5884,-1023.19,92.16,-1188.54
7260,-3.8718,-1.0193,-0.5409,1304.93,701.29,-1688.66
7270,-3.8712,-1.0297,-0.3966,1539.31,-1220.76,1655.15
7280,-3.8708,-1.0132,-0.2347,211.18,1247.99,-1078.92
7290,-3.8708,-1.0247,-0.1056,-1679.44,1966.74,1171.39
7300,-3.8713,-1.0277,-0.0719,851.81,-1502.01,1077.88
7310,-3.8718,-0.9794,-0.1345,461.18,-1189.51,-1593.93
7320,-3.8718,-0.9269,-0.2195,-1351.32,-1205.08,249.69
7330,-3.8717,-0.7897,-0.1886,1367.43,-79.96,-672.36
7340,-3.8716,-0.6697,0.0199,-1070.07,-126.59,1968.32
7350,-3.8719,-0.7407,0.2538,-1710.69,-1438.84,-1171.88
7360,-3.8724,-0.8583,0.3549,1195.56,498.54,375.49
7370,-3.8728,-0.9496,0.3074,-1851.32,1435.79,-1889.95
7380,-3.8727,-1.0110,0.1953,-1538.82,-642.52,922.42
7390,-3.8726,-1.0281,0.1125,-1398.19,1013.61,-968.38
7400,-3.8724,-1.0150,0.0914,414.31,-1580.14,-796.69
7410,-3.8723,-1.0167,0.1160,-1913.82,-283.26,-390.50
7420,-3.8722,-1.0342,0.1691,1867.43,-1142.64,-1609.19
7430,-3.8723,-1.0061,0.2513,-366.94,1654.17,-843.44
7440,-3.8726,-0.9185,0.3234,-773.19,185.49,1906.74
7450,-3.8728,-0.8308,0.3289,-1554.44,1404.42,281.86
7460,-3.8730,-0.7999,0.2686,1664.31,-1892.27,-1390.01
7470,-3.8730,-0.8292,0.1788,1617.43,-1610.96,1672.36
7480,-3.8729,-0.8739,0.0958,1867.43,-1095.40,-718.44
7490,-3.8726,-0.9132,0.0537,148.68,279.54,1906.43
7500,-3.8723,-0.9960,0.0719,-882.57,-1111.21,1718.81
7510,-3.8726,-1.0951,0.1505,523.68,1216.80,-453.00
7520,-3.8733,-1.1637,0.1848,-163.82,-720.95,-31.01
7530,-3.8737,-1.1194,0.1753,-945.07,-330.44,1406.56
7540,-3.8735,-0.9333,0.2185,726.81,-1549.07,812.81
7550,-3.8735,-0.7614,0.2715,539.31,-17.46,1359.74
7560,-3.8737,-0.6941,0.2738,-1445.07,-1235.90,578.61
7570,-3.8738,-0.7153,0.2194,-835.69,-938.90,-858.89
7580,-3.8735,-0.7885,0.1547,445.56,92.35,-952.70
7590,-3.8730,-0.8878,0.1163,-913.82,-189.09,1625.24
7600,-3.8727,-0.9778,0.0994,-1632.57,-1095.52,-562.32
7610,-3.8723,-1.0233,0.1051,-1148.19,732.42,1343.93
7620,-3.8722,-1.0165,0.1493,1023.68,1466.74,-1874.82
7630,-3.8723,-0.9722,0.2189,1898.68,-877.01,-1171.63
7640,-3.8726,-0.8972,0.2820,-429.44,29.30,1094.18
7650,-3.8729,-0.7990,0.3112,1164.31,107.60,-1546.33
7660,-3.8730,-0.7084,0.2811,1742.43,-157.84,31.80
7670,-3.8730,-0.6567,0.1891,1336.18,-1.40,1562.99
7680,-3.8728,-0.6383,0.0995,-54.44,217.41,-1265.26
7690,-3.8724,-0.6382,0.0825,-1695.07,748.72,-1702.94
7700,-3.8722,-0.6587,0.1357,-1679.44,-1423.16,-1468.63
7710,-3.8721,-0.7023,0.1980,-304.44,1389.28,-1265.38
7720,-3.8719,-0.7607,0.2164,-1882.57,1357.97,1828.49
7730,-3.8718,-0.8188,0.1997,-1366.94,-282.78,-1624.63
7740,-3.8717,-0.8661,0.1866,-804.44,1576.48,-343.38
7750,-3.8716,-0.9001,0.2012,1148.68,-95.46,-1577.82
7760,-3.8716,-0.9073,0.2485,789.31,1763.85,109.74
7770,-3.8719,-0.8722,0.3214,-132.57,-173.71,-15.20
7780,-3.8723,-0.8069,0.3926,367.43,1154.54,-749.39
7790,-3.8727,-0.7437,0.4155,726.81,-1735.96,-1233.64
7800,-3.8729,-0.7036,0.3871,820.56,1201.66,-155.46
7810,-3.8728,-0.6797,0.3606,1945.56,1561.10,78.86
7820,-3.8727,-0.6517,0.3767,1008.06,-1829.47,672.55
7830,-3.8727,-0.6101,0.4246,586.18,233.09,-702.39
7840,-3.8727,-0.5554,0.4575,1914.31,-1641.85,407.04
7850,-3.8729,-0.4939,0.4363,914.31,-1422.97,-1733.52
7860,-3.8730,-0.4374,0.3690,789.31,-141.60,938.29
7870,-3.8732,-0.3894,0.3030,23.68,-750.85,-1577.45
7880,-3.8732,-0.3478,0.2800,-1835.69,-1203.92,938.05
7890,-3.8733,-0.3070,0.3029,-507.57,-141.36,687.99
7900,-3.8735,-0.2588,0.3438,711.18,-1219.36,406.80
7910,-3.8739,-0.2085,0.3751,-1116.94,15.08,-999.33
7920,-3.8740,-0.1759,0.3789,1320.56,30.82,188.23
7930,-3.8739,-0.3060,0.1771,101.81,-1812.99,312.99
7940,-3.8737,-0.3256,0.1284,836.18,-1313.11,1937.81
7950,-3.8734,-0.3187,0.1327,-1663.82,452.45,-906.01
7960,-3.8732,-0.3104,0.1544,-788.82,999.33,1422.12
7970,-3.8730,-0.3193,0.1586,273.68,-219.36,-1109.13
7980,-3.8728,-0.3574,0.1437,-866.94,311.83,-1843.44
7990,-3.8726,-0.4227,0.1389,-1741.94,-1594.48,-1312.26
8000,-3.8723,-0.5004,0.1606,1898.68,1796.02,1703.37
8010,-3.8722,-0.5754,0.1908,-38.82,577.09,-1687.19
8020,-3.8721,-0.6384,0.2135,-1648.19,436.34,1687.87
8030,-3.8719,-0.6932,0.2264,-1710.69,-657.53,109.74
8040,-3.8719,-0.7397,0.2363,-726.32,998.60,1172.30
8050,-3.8719,-0.7561,0.2576,1320.56,-1735.84,1062.93
8060,-3.8721,-0.7367,0.2891,-773.19,982.85,-249.51
8070,-3.8721,-0.7002,0.3202,1711.18,1014.16,1953.67
8080,-3.8721,-0.6582,0.3441,-1616.94,998.60,1234.99
8090,-3.8721,-0.6138,0.3595,-241.94,61.16,1844.42
8100,-3.8721,-0.5656,0.3759,1445.56,-1969.97,-983.70
8110,-3.8721,-0.5190,0.3951,-382.57,123.84,-452.39
8120,-3.8721,-0.5000,0.3938,1570.56,-1407.29,-1374.27
8130,-3.8721,-0.5325,0.3329,8.06,-1579.10,-874.27
8140,-3.8718,-0.6096,0.2139,-148.19,-1376.10,-155.64
8150,-3.8712,-0.6802,0.1246,1976.81,-610.60,-1577.76
8160,-3.8707,-0.6925,0.1521,945.56,-32.59,-1421.69
8170,-3.8706,-0.6714,0.2744,-632.57,-517.03,750.24
8180,-3.8710,-0.6655,0.3972,-1929.44,-860.72,-1265.14
8190,-3.8713,-0.6726,0.4633,-1179.44,-1141.97,844.48
8200,-3.8717,-0.6675,0.4803,1914.31,-688.84,1985.23
8210,-3.8722,-0.5935,0.2473,-1335.69,436.28,-655.64
8220,-3.8722,-0.5667,0.2112,39.31,-329.28,-171.45
8230,-3.8721,-0.5234,0.2010,-523.19,-954.28,562.87
8240,-3.8721,-0.4691,0.2032,1008.06,1748.96,469.12
8250,-3.8722,-0.4000,0.2104,-38.82,-1969.73,-796.51
8260,-3.8722,-0.3291,0.2078,804.93,-1047.67,359.74
8270,-3.8723,-0.2903,0.1864,1883.06,-1391.30,109.74
8280,-3.8726,-0.2899,0.1578,-1148.19,-125.61,-1249.69
8290,-3.8727,-0.3029,0.1361,-1101.32,218.14,859.68
8300,-3.8728,-0.3077,0.1219,1242.43,1436.89,562.74
8310,-3.8728,-0.2982,0.0803,617.43,-375.61,62.68
8320,-3.8726,-0.2769,-0.0559,1836.18,-1703.74,-1656.13
8330,-3.8717,-0.3235,-0.2487,570.56,858.83,-1172.00
8340,-3.8707,-0.5670,-0.3330,-1398.19,186.83,-1359.86
8350,-3.8704,-0.9814,-0.2386,-570.07,1389.47,-1953.80
8360,-3.8707,-1.3529,-0.0802,-1616.94,1466.80,1921.39
8370,-3.8713,-1.5013,-0.0026,-1163.82,1747.31,-828.31
8380,-3.8717,-1.4138,-0.0537,-163.82,-315.49,-78.19
8390,-3.8718,-1.1797,-0.1672,-960.69,1137.82,390.50
8400,-3.8721,-0.9095,-0.2253,1008.06,-1392.94,-62.87
8410,-3.8721,-0.6964,-0.1855,-413.82,-829.96,-391.11
8420,-3.8721,-0.5969,-0.1179,-1132.57,264.22,1530.88
8430,-3.8721,-0.5936,-0.1093,-398.19,920.65,343.51
8440,-3.8719,-0.6281,-0.1724,23.68,-1969.91,312.26
8450,-3.8718,-0.6813,-0.2640,-382.57,1951.84,-1172.24
8460,-3.8716,-0.7516,-0.3376,804.93,-1782.59,1358.83
8470,-3.8715,-0.8243,-0.3752,-195.07,795.35,1702.45
8480,-3.8715,-0.8809,-0.3845,-1507.57,-17.27,-1032.04
8490,-3.8715,-0.8668,-0.3679,-741.94,-1204.90,983.58
8500,-3.8716,-0.7744,-0.3551,1054.93,920.17,155.52
8510,-3.8717,-0.6454,-0.3628,883.06,-1439.03,-1766.36
8520,-3.8716,-0.5016,-0.3678,1398.68,1576.84,1546.14
8530,-3.8715,-0.3750,-0.3529,-195.07,936.46,-828.86
8540,-3.8712,-0.2988,-0.3082,8.06,-1156.98,1436.77
8550,-3.8711,-0.2996,-0.2472,1758.06,561.89,-1063.11
8560,-3.8710,-0.3711,-0.1973,1664.31,374.39,-1312.99
8570,-3.8708,-0.4692,-0.1880,508.06,-1235.11,1327.70
8580,-3.8707,-0.5521,-0.2067,-54.44,-47.85,515.20
8590,-3.8707,-0.6219,-0.1768,1336.18,1561.40,-1547.30
8600,-3.8708,-0.6974,-0.0841,398.68,1389.40,-1062.87
8610,-3.8711,-0.7660,-0.0132,-1257.57,1248.60,-1343.93
8620,-3.8713,-0.7979,-0.0049,1961.18,-1673.40,-1046.94
8630,-3.8715,-0.7916,-0.0331,1883.06,-610.96,-718.81
8640,-3.8715,-0.7710,-0.0480,-1320.07,-220.34,-1406.37
8650,-3.8715,-0.7561,-0.0143,1320.56,1873.47,1624.88
8660,-3.8716,-0.7511,0.0409,-773.19,-1814.03,1921.81
8670,-3.8717,-0.7419,0.0710,-132.57,1248.47,1109.44
8680,-3.8718,-0.7280,0.0785,1039.31,1107.91,-1312.38
8690,-3.8718,-0.7230,0.0973,-1179.44,-1938.96,1968.87
8700,-3.8719,-0.7290,0.1298,-538.82,467.29,-187.32
8710,-3.8719,-0.7396,0.1482,-1304.44,623.54,31.49
8720,-3.8721,-0.7495,0.1479,1336.18,-1017.09,328.37
8730,-3.8722,-0.7554,0.1533,70.56,-1048.34,812.74
8740,-3.8723,-0.7603,0.1775,-679.44,-360.90,797.12
8750,-3.8724,-0.7738,0.2074,-1304.44,-1267.15,281.56
8760,-3.8727,-0.7976,0.2274,961.18,-1439.03,-218.38
8770,-3.8727,-0.8243,0.2299,1914.31,1123.41,94.18
8780,-3.8728,-0.8422,0.2161,-1507.57,1435.85,1750.43
8790,-3.8729,-0.8480,0.1896,211.18,-329.77,-30.88
8800,-3.8729,-0.8546,0.1636,-538.82,279.54,-999.63
8810,-3.8728,-0.8617,0.1627,-1382.57,951.42,375.31
8820,-3.8728,-0.8549,0.1886,1711.18,842.04,-1343.44
8830,-3.8728,-0.8422,0.2246,-1413.82,154.54,-905.88
8840,-3.8728,-0.8413,0.2610,211.18,763.98,1609.80
8850,-3.8729,-0.8394,0.2959,320.56,1420.23,-390.14
8860,-3.8729,-0.8093,0.3290,570.56,1888.98,1766.17
8870,-3.8730,-0.7542,0.3528,414.31,-1876.59,-171.26
8880,-3.8730,-0.6967,0.3606,-523.19,1170.35,1688.17
8890,-3.8732,-0.6476,0.3582,-1163.82,-1829.53,-624.33
8900,-3.8732,-0.6051,0.3644,1117.43,1858.09,360.05
8910,-3.8733,-0.5658,0.3948,-1445.07,-1344.97,469.42
8920,-3.8734,-0.5090,0.4418,-413.82,-1454.28,610.11
8930,-3.8735,-0.4176,0.4924,-1148.19,561.46,1641.48
8940,-3.8737,-0.3242,0.5344,-1445.07,-953.98,-577.21
8950,-3.8737,-0.2510,0.5614,-1491.94,421.20,860.41
8960,-3.8738,-0.1771,0.5847,-116.94,-125.55,1360.41
8970,-3.8739,-0.1189,0.6152,1336.18,-1140.99,1547.97
8980,-3.8740,-0.1051,0.6625,789.31,-1234.62,-1842.59
8990,-3.8741,-0.1157,0.7206,-1445.07,812.26,-623.72
9000,-3.8741,-0.1232,0.7568,1195.56,249.76,1188.90
9010,-3.8743,-0.1075,0.7612,242.43,890.38,-154.79
9020,-3.8743,-0.0736,0.7567,-1757.57,1452.88,-795.41
9030,-3.8743,-0.0758,0.7614,-1413.82,874.82,1251.46
9040,-3.8744,-0.1344,0.7827,-1695.07,1468.57,1204.59
9050,-3.8745,-0.1981,0.8073,-1195.07,202.82,-1748.47
9060,-3.8745,-0.2642,0.8135,-1351.32,-656.68,1407.78
9070,-3.8745,-0.3586,0.8103,-1804.44,140.08,1048.46
9080,-3.8745,-0.4392,0.8252,-1898.19,-266.36,1767.15
9090,-3.8745,-0.4816,0.8512,-210.69,1639.71,-857.79
9100,-3.8745,-0.5079,0.8619,-1632.57,967.77,-201.48
9110,-3.8745,-0.5234,0.8652,-1007.57,-1657.29,-795.23
9120,-3.8745,-0.5092,0.8845,1008.06,-1235.41,1423.52
9130,-3.8746,-0.4800,0.9070,-1163.82,1233.34,-670.17
9140,-3.8746,-0.4818,0.9055,-1429.44,108.40,1079.90
9150,-3.8748,-0.5067,0.8802,-1663.82,-79.10,-451.42
9160,-3.8746,-0.5321,0.8578,-851.32,686.46,282.96
9170,-3.8746,-0.5648,0.8655,-101.32,1811.40,1751.65
9180,-3.8746,-0.5875,0.9005,-288.82,-1204.28,1642.27
9190,-3.8746,-0.5762,0.9305,804.93,-719.91,626.71
9200,-3.8746,-0.5385,0.9408,-1741.94,-876.16,829.90
9210,-3.8746,-0.4917,0.9421,-913.82,436.40,1829.96
9220,-3.8746,-0.4216,0.9425,1070.56,608.40,1173.71
9230,-3.8748,-0.3203,0.9506,-1960.69,655.40,-1685.67
9240,-3.8749,-0.2213,0.9688,-991.94,1686.83,1736.21
9250,-3.8750,-0.1578,0.9827,-320.07,15.14,876.89
9260,-3.8439,-0.1434,0.9738,-195.07,1796.51,1439.39
9270,-3.8439,-0.1722,0.9371,1648.68,655.94,908.14
9280,-3.8750,-0.2041,0.9031,1961.18,-31.62,454.90
9290,-3.8749,-0.2046,0.9016,1883.06,-391.05,-1373.29
9300,-3.8748,-0.1792,0.9274,1820.56,-578.55,-295.17
9310,-3.8746,-0.1235,0.9614,1070.56,-1281.62,1454.90
9320,-3.8746,-0.0408,0.9934,195.56,-922.12,142.46
9330,-3.8748,0.0404,0.9989,-1210.69,-828.25,1658.14
9340,-3.8748,0.1062,0.9768,1179.93,-140.56,314.39
9350,-3.8748,0.1538,0.9653,1601.81,1031.43,392.52
9360,-3.8748,0.1719,0.9664,-304.44,-437.26,17.46
9370,-3.8749,0.1470,0.9556,-1991.94,-296.57,-1076.29
9380,-3.8749,0.0898,0.9303,-1179.44,-1687.26,-435.67
9390,-3.8748,0.0342,0.9150,-491.94,-921.75,-654.48
9400,-3.8745,0.0033,0.9205,383.06,1125.06,533.02
9410,-3.8744,-0.0038,0.9301,429.93,1828.12,704.90
9420,-3.8744,0.0004,0.9360,-476.32,-937.56,-498.23
9430,-3.8743,-0.0026,0.9435,54.93,-187.50,1048.65
9440,-3.8743,-0.0424,0.9426,-320.07,781.19,1158.08
9450,-3.8743,-0.1191,0.9307,-1413.82,671.75,1579.96
9460,-3.8741,-0.1951,0.9231,758.06,-859.62,251.77
9470,-3.8740,-0.2614,0.9148,-960.69,-1828.55,611.15
9480,-3.8739,-0.3256,0.8875,-1445.07,1108.83,1642.40
9490,-3.8738,-0.3917,0.8462,-1663.82,1608.70,-998.29
9500,-3.8737,-0.4650,0.8107,1867.43,327.33,-810.85
9510,-3.8735,-0.4972,0.8108,492.43,-219.67,1314.03
9520,-3.8737,-0.4517,0.8710,367.43,-204.10,-545.35
9530,-3.8739,-0.3774,0.9562,-1804.44,-500.92,-1373.35
9540,-3.8743,-0.3301,1.0232,-304.44,-1594.54,1704.96
9550,-3.8746,-0.3270,1.0764,1758.06,-1016.30,1361.33
9560,-3.8750,-0.3928,1.1014,-1851.32,1796.20,-1919.80
9570,-3.8440,-0.5117,1.0665,1726.81,999.21,1017.76
9580,-3.8441,-0.6254,0.9987,-1491.94,530.21,423.95
9590,-3.8442,-0.7207,0.9762,-38.82,-157.53,1423.77
9600,-3.8444,-0.7975,1.0237,-241.94,967.29,158.14
9610,-3.8447,-0.8403,1.1062,1929.93,-954.71,-44.92
9620,-3.8450,-0.8450,1.1760,445.56,1607.73,877.14
9630,-3.8453,-0.8245,1.1888,-148.19,-1454.83,189.76
9640,-3.8457,-0.8113,1.1620,-1523.19,185.85,1346.07
9650,-3.8459,-0.8235,1.1373,164.31,748.41,-1825.87
9660,-3.8461,-0.7960,1.1299,-1398.19,1592.10,1174.07
9670,-3.8462,-0.6875,1.1520,-1882.57,639.04,-1107.18
9680,-3.8461,-0.5310,1.2115,8.06,-532.59,736.57
9690,-3.8459,-0.3293,1.2915,39.31,-907.29,1486.69
9700,-3.8457,-0.0787,1.3597,1851.81,1327.45,283.75
9710,-3.8455,0.1804,1.3940,1929.93,-1937.68,1440.12
9720,-3.8451,0.3795,1.3695,-898.19,-1562.19,627.69
9730,-3.8447,0.4824,1.2594,586.18,-702.39,-1528.63
9740,-3.8442,0.5264,1.0834,1758.06,1204.04,-294.43
9750,-3.8749,0.5585,0.9178,-616.94,-1327.15,-1013.55
9760,-3.8743,0.5708,0.8282,-507.57,1485.41,1064.27
9770,-3.8739,0.5237,0.8209,1070.56,-1983.28,-1295.29
9780,-3.8737,0.3998,0.8566,-960.69,1079.10,-1248.41
9790,-3.8735,0.2244,0.8977,-820.07,1641.36,-1982.73
9800,-3.8735,0.0419,0.9196,726.81,-1093.32,-1623.29
9810,-3.8735,-0.1167,0.8990,1367.43,1703.19,-1529.48
9820,-3.8734,-0.2445,0.8331,1070.56,-906.49,1095.46
9830,-3.8733,-0.3357,0.7515,711.18,-1344.24,-1498.41
9840,-3.8730,-0.3882,0.6652,1039.31,202.45,1313.96
9850,-3.8728,-0.3977,0.5889,-1679.44,1155.46,-1514.34
9860,-3.8724,-0.3634,0.5917,1101.81,-610.17,47.97
9870,-3.8724,-0.3073,0.6687,1492.43,-250.73,-1670.78
9880,-3.8726,-0.2480,0.7366,679.93,1608.76,766.91
9890,-3.8728,-0.1733,0.7579,258.06,-1703.61,-1311.10
9900,-3.8728,-0.0873,0.7482,1820.56,1030.88,813.96
9910,-3.8728,-0.0299,0.7416,836.18,-218.93,1360.78
9920,-3.8728,0.0096,0.7404,179.93,-1062.56,251.40
9930,-3.8729,0.0374,0.7285,1242.43,-1234.38,-61.10
9940,-3.8728,0.0317,0.7065,789.31,1250.06,1188.90
9950,-3.8728,0.0107,0.6650,70.56,-1562.44,-1733.03
9960,-3.8727,-0.0067,0.6110,1383.06,1125.00,1173.16
9970,-3.8726,-0.0165,0.5741,-851.32,-1781.31,1313.66
9980,-3.8724,-0.0177,0.5691,1898.68,1499.94,641.72
9990,-3.8724,-0.0131,0.5919,1742.43,859.31,-1045.78
10000,-3.8723,-0.0077,0.6320,-1663.82,-218.81,282.35
10010,-3.8724,-0.0070,0.7473,-648.19,671.81,470.15
10020,-3.8726,-0.0042,0.7288,-882.57,-328.19,-420.47
