timestamp_ms,ax,ay,az,gx,gy,gz
0,-3.8442,-1.4742,0.1915,-1148.19,-674.74,-1062.19
10,-3.8442,-1.4872,0.1794,-695.07,528.32,94.12
20,-3.8442,-1.4690,0.1375,1648.68,-1018.55,62.81
30,-3.8442,-1.4148,0.0675,-23.19,1606.45,-577.88
40,-3.8440,-1.3342,-0.0208,-1085.69,653.44,1562.62
50,-3.8750,-1.2509,-0.1097,1226.81,1356.75,1046.81
60,-3.8749,-1.1855,-0.1791,-101.32,1966.25,-109.62
70,-3.8746,-1.1469,-0.2168,258.06,1091.43,93.38
80,-3.8746,-1.1334,-0.2271,1211.18,263.37,749.57
90,-3.8748,-1.1370,-0.2264,-1070.07,-1049.13,-1359.86
100,-3.8749,-1.1481,-0.2286,-1523.19,-971.01,-844.24
110,-3.8750,-1.1583,-0.2413,1054.93,-1252.26,-0.49
120,-3.8750,-1.1587,-0.2660,-257.57,1122.68,-1625.49
130,-3.8750,-1.1448,-0.3011,-304.44,1966.43,-1688.05
140,-3.8750,-1.1230,-0.3479,1476.81,1466.49,-734.99
150,-3.8749,-1.1024,-0.4014,258.06,-517.82,624.27
160,-3.8749,-1.0844,-0.4623,-1101.32,638.43,-1828.92
170,-3.8748,-1.0741,-0.5371,1211.18,841.61,77.21
180,-3.8748,-1.0764,-0.6282,-1476.32,-736.51,-235.47
190,-3.8745,-1.0831,-0.7274,-1773.19,-392.76,1811.22
200,-3.8743,-1.0813,-0.8138,1367.43,-1095.89,904.79
210,-3.8740,-1.0610,-0.8743,1601.81,-158.39,1185.85
220,-3.8738,-1.0199,-0.9148,195.56,107.30,-829.83
230,-3.8734,-0.9574,-0.9517,1461.18,-1080.14,1326.29
240,-3.8732,-0.8793,-0.9883,1461.18,-1798.77,-1876.89
250,-3.8729,-0.8057,-1.0186,-538.82,1513.85,1435.55
260,-3.8728,-0.7522,-1.0428,883.06,1639.04,-439.51
270,-3.8726,-0.7178,-1.0538,-273.19,-1470.28,1310.42
280,-3.8724,-0.7012,-1.0382,133.06,1123.60,-595.83
290,-3.8722,-0.6893,-0.9916,-1741.94,-876.40,1138.55
300,-3.8721,-0.6542,-0.9219,-226.32,1092.35,482.42
310,-3.8721,-0.5829,-0.8490,273.68,-1985.66,420.04
320,-3.8722,-0.4784,-0.8021,1398.68,-657.41,-1157.96
330,-3.8722,-0.3459,-0.8044,-1226.32,1342.77,-1767.21
340,-3.8721,-0.1930,-0.8608,-273.19,1046.14,514.04
350,-3.8719,-0.0321,-0.9606,-695.07,1827.70,-1454.83
360,-3.8717,0.1226,-1.0792,-101.32,1062.38,-955.02
370,-3.8713,0.2527,-1.1947,-304.44,1859.56,310.36
380,-3.8711,0.3386,-1.2860,351.81,-921.39,950.74
390,-3.8710,0.3663,-1.3293,-648.19,-608.76,-861.94
400,-3.8708,0.3463,-1.3092,-1101.32,1844.42,1247.38
410,-3.8710,0.3171,-1.2253,336.18,422.55,-580.69
420,-3.8711,0.3230,-1.1072,601.81,-843.14,-33.69
430,-3.8711,0.3809,-1.0032,1351.81,-1718.14,1247.80
440,-3.8711,0.4731,-0.9452,758.06,-405.52,544.86
450,-3.8711,0.5671,-0.9242,570.56,-983.46,1529.36
460,-3.8711,0.6345,-0.9053,601.81,1704.22,-1501.83
470,-3.8711,0.6643,-0.8636,1226.81,126.22,-1908.02
480,-3.8712,0.6639,-0.7980,1039.31,1454.41,-595.46
490,-3.8713,0.6465,-0.7201,992.43,1860.66,1967.16
500,-3.8716,0.6161,-0.6464,-1241.94,-170.65,1701.66
510,-3.8719,0.5680,-0.5969,-1132.57,1266.78,-376.28
520,-3.8722,0.5066,-0.5757,711.18,-405.15,1842.53
530,-3.8724,0.4357,-0.5770,851.81,-1686.52,-1782.41
540,-3.8726,0.3501,-0.5999,-226.32,-1858.58,-1954.28
550,-3.8726,0.2606,-0.6356,820.56,-780.58,1576.90
560,-3.8726,0.1927,-0.6798,1367.43,-1358.89,-938.78
570,-3.8724,0.1608,-0.7349,679.93,984.74,436.16
580,-3.8724,0.1520,-0.7883,586.18,1937.81,1186.04
590,-3.8724,0.1331,-0.8281,-538.82,-906.01,1326.54
600,-3.8724,0.0751,-0.8553,1039.31,-1999.76,732.73
610,-3.8724,-0.0232,-0.8798,1617.43,-1484.25,638.92
620,-3.8724,-0.1334,-0.9187,1039.31,-593.81,-1704.90
630,-3.8723,-0.2228,-0.9751,-1070.07,-1578.43,1482.54
640,-3.8722,-0.2821,-1.0341,-507.57,-797.36,1763.67
650,-3.8721,-0.3312,-1.0806,-101.32,-344.36,1935.42
660,-3.8719,-0.3911,-1.1068,1617.43,1702.45,247.86
670,-3.8721,-0.4630,-1.1215,1945.56,-1657.04,-189.70
680,-3.8721,-0.5270,-1.1545,742.43,467.83,1185.30
690,-3.8722,-0.5676,-1.2266,554.93,233.34,-1892.88
700,-3.8722,-0.6090,-1.3280,-648.19,-985.53,560.06
710,-3.8722,-0.6948,-1.4370,-1945.07,-1969.97,981.75
720,-3.8722,-0.8401,-1.5269,-929.44,76.72,1247.19
730,-3.8723,-1.0217,-1.5629,476.81,576.48,-924.87
740,-3.8724,-1.2061,-1.5277,1226.81,-33.26,-1971.86
750,-3.8727,-1.3763,-1.4337,1633.06,466.37,-1424.87
760,-3.8729,-1.5327,-1.3031,-163.82,497.25,1153.44
770,-3.8733,-1.6766,-1.1537,-179.44,1215.70,-1533.81
780,-3.8737,-1.8105,-0.9969,1398.68,340.45,-424.13
790,-3.8739,-1.9415,-0.8386,258.06,402.71,1419.92
800,-3.8741,-2.0724,-0.6914,-507.57,668.03,1404.60
810,-3.8744,-2.1844,-0.5615,-1257.57,-488.46,-360.78
820,-3.8745,-2.2448,-0.4313,398.68,136.35,-1251.10
830,-3.8746,-2.2467,-0.2882,679.93,808.11,1639.77
840,-3.8749,-2.2201,-0.1398,429.93,-879.39,-469.36
850,-3.8750,-2.1921,0.0009,-163.82,-1879.39,1312.19
860,-3.8439,-2.1606,0.1328,-585.69,120.67,187.50
870,-3.8440,-2.1115,0.2513,-554.44,1011.35,859.62
880,-3.8441,-2.0397,0.3405,1742.43,183.35,-562.01
890,-3.8441,-1.9509,0.3961,-1070.07,-410.28,-1093.14
900,-3.8441,-1.8505,0.4248,-1710.69,-1285.10,-1796.14
910,-3.8441,-1.7417,0.4336,-851.32,-1613.04,1203.92
920,-3.8441,-1.6337,0.4218,1070.56,-487.79,516.42
930,-3.8441,-1.5381,0.3925,-1101.32,1996.77,266.42
940,-3.8442,-1.4567,0.3591,-866.94,-1753.05,-218.02
950,-3.8442,-1.3832,0.3331,1554.93,1981.51,-1468.08
960,-3.8442,-1.3217,0.3195,-1038.82,-1346.50,531.86
970,-3.8444,-1.2887,0.3138,-1163.82,903.63,-1811.89
980,-3.8444,-1.2926,0.3014,-945.07,184.94,547.49
990,-3.8444,-1.3124,0.2795,-1445.07,-1408.81,234.92
1000,-3.8444,-1.3208,0.2510,23.68,-205.69,406.74
1010,-3.8445,-1.3083,0.2086,-1054.44,138.00,-15.14
1020,-3.8445,-1.2793,0.1515,539.31,-1283.81,-359.01
1030,-3.8444,-1.2429,0.0854,258.06,-596.25,1093.99
1040,-3.8442,-1.2101,0.0215,914.31,-1049.32,1062.62
1050,-3.8441,-1.1895,-0.0331,1117.43,-1236.76,-1281.25
1060,-3.8439,-1.1798,-0.0867,-241.94,-221.13,437.38
1070,-3.8750,-1.1820,-0.1501,992.43,919.56,1687.32
1080,-3.8749,-1.2039,-0.2284,711.18,794.56,-625.31
1090,-3.8746,-1.2335,-0.3160,1914.31,-1221.13,1749.51
1100,-3.8744,-1.2391,-0.4050,-1882.57,-439.94,561.83
1110,-3.8743,-1.2007,-0.4926,1398.68,169.43,-969.54
1120,-3.8740,-1.1288,-0.5743,-1679.44,966.37,217.77
1130,-3.8739,-1.0581,-0.6458,-476.32,-1502.26,1623.84
1140,-3.8737,-1.0203,-0.7222,570.56,1357.30,1904.97
1150,-3.8733,-1.0222,-0.8179,1414.31,-423.89,514.16
1160,-3.8730,-1.0472,-0.9182,1164.31,-673.89,-1376.65
1170,-3.8728,-1.0748,-1.0017,1961.18,-1517.70,-1626.83
1180,-3.8727,-1.0956,-1.0619,-1570.07,-205.26,-767.64
1190,-3.8726,-1.0952,-1.0992,-226.32,91.55,1951.05
1200,-3.8724,-1.0488,-1.1224,-179.44,-689.70,1294.68
1210,-3.8723,-0.9464,-1.1473,1758.06,341.67,-892.82
1220,-3.8721,-0.7964,-1.1714,-1132.57,1154.36,1669.62
1230,-3.8719,-0.6179,-1.1746,-1929.44,-1923.46,-549.19
1240,-3.8717,-0.4363,-1.1473,914.31,1670.65,513.31
1250,-3.8716,-0.2665,-1.0978,164.31,1155.40,513.37
1260,-3.8716,-0.1106,-1.0354,1898.68,-500.55,-1064.70
1270,-3.8715,0.0356,-0.9703,1851.81,-515.87,982.30
1280,-3.8715,0.1788,-0.9109,570.56,-203.06,-642.58
1290,-3.8713,0.3191,-0.8566,-1101.32,-593.44,420.04
1300,-3.8715,0.4473,-0.8064,851.81,-1640.01,-1236.08
1310,-3.8716,0.5526,-0.7604,1258.06,782.10,-1782.84
1320,-3.8718,0.6263,-0.7194,-1257.57,-1327.09,-360.90
1330,-3.8719,0.6704,-0.6873,179.93,-76.90,107.91
1340,-3.8722,0.6992,-0.6862,1820.56,32.53,1779.91
1350,-3.8723,0.7310,-0.7308,1508.06,173.22,-1.34
1360,-3.8722,0.7760,-0.7939,1570.56,-1545.47,-517.09
1370,-3.8719,0.8236,-0.8420,-663.82,-1623.54,1732.79
1380,-3.8717,0.8517,-0.8783,1429.93,220.34,1560.85
1390,-3.8715,0.8416,-0.9254,1023.68,-420.23,-579.90
1400,-3.8711,0.7861,-0.9856,-273.19,1548.46,-1595.58
1410,-3.8707,0.7015,-1.0361,633.06,1845.28,357.42
1420,-3.8706,0.6229,-1.0558,1804.93,-623.66,-580.20
1430,-3.8705,0.5760,-1.0400,-257.57,860.53,-986.45
1440,-3.8705,0.5563,-0.9962,1742.43,-1123.90,-298.95
1450,-3.8705,0.5424,-0.9371,-788.82,485.41,1904.30
1460,-3.8706,0.5125,-0.8802,1429.93,47.91,1998.17
1470,-3.8707,0.4573,-0.8389,1601.81,-670.90,1513.85
1480,-3.8708,0.3885,-0.8076,-1460.69,625.85,1451.48
1490,-3.8710,0.3258,-0.7769,1742.43,625.73,1154.66
1500,-3.8711,0.2819,-0.7537,1711.18,563.11,451.60
1510,-3.8712,0.2546,-0.7587,86.18,-468.20,717.22
1520,-3.8712,0.2405,-0.8024,601.81,-1108.89,404.72
1530,-3.8711,0.2421,-0.8716,-1210.69,1297.30,357.79
1540,-3.8710,0.2379,-0.9486,-1007.57,437.93,-1361.08
1550,-3.8707,0.2023,-1.0140,-1538.82,-1421.45,638.73
1560,-3.8707,0.1372,-1.0522,1898.68,-1796.51,-48.89
1570,-3.8707,0.0704,-1.0895,1570.56,1312.74,-283.33
1580,-3.8707,0.0181,-1.1570,1023.68,547.00,1419.74
1590,-3.8708,-0.0596,-1.2460,-1679.44,-93.75,-689.82
1600,-3.8708,-0.2092,-1.3372,383.06,531.13,-1924.32
1610,-3.8708,-0.4172,-1.4169,1226.81,858.95,544.25
1620,-3.8710,-0.6315,-1.4659,-1398.19,-1344.60,1653.44
1630,-3.8711,-0.8143,-1.4614,-820.07,373.72,950.26
1640,-3.8713,-0.9620,-1.4062,-226.32,951.48,-1862.24
1650,-3.8716,-1.0905,-1.3285,867.43,13.73,-1987.12
1660,-3.8718,-1.2186,-1.2465,429.93,1966.61,1388.00
1670,-3.8721,-1.3512,-1.1581,23.68,466.37,606.93
1680,-3.8724,-1.4698,-1.0608,-945.07,-221.44,-236.69
1690,-3.8727,-1.5536,-0.9584,-132.57,231.45,-1533.33
1700,-3.8729,-1.6050,-0.8590,1148.68,1340.70,654.36
1710,-3.8733,-1.6428,-0.7655,-1429.44,-1940.67,-1407.96
1720,-3.8735,-1.6808,-0.6678,1726.81,-1971.98,357.85
1730,-3.8739,-1.7236,-0.5573,867.43,-1472.05,-1954.47
1740,-3.8741,-1.7634,-0.4301,-616.94,684.08,202.03
1750,-3.8745,-1.7817,-0.2893,-1710.69,965.27,-422.73
1760,-3.8746,-1.7697,-0.1464,-54.44,-1019.17,30.64
1770,-3.8749,-1.7413,-0.0133,1492.43,1277.77,687.19
1780,-3.8439,-1.7181,0.1031,1117.43,-1690.92,1812.44
1790,-3.8440,-1.7057,0.2095,86.18,1215.39,390.81
1800,-3.8441,-1.6984,0.3146,1679.93,-1175.23,359.74
1810,-3.8442,-1.6874,0.4270,-1382.57,277.89,656.86
1820,-3.8444,-1.6611,0.5376,23.68,-1331.42,1313.29
1830,-3.8445,-1.6183,0.6261,-616.94,824.83,-1436.46
1840,-3.8446,-1.5651,0.6931,867.43,153.08,-280.03
1850,-3.8446,-1.5078,0.7418,-320.07,731.26,1329.47
1860,-3.8446,-1.4620,0.7651,-991.94,-1034.24,454.53
1870,-3.8446,-1.4283,0.7594,867.43,1950.26,1579.59
1880,-3.8445,-1.3842,0.7343,1179.93,1215.94,298.34
1890,-3.8445,-1.3224,0.6940,-1163.82,1997.25,-936.10
1900,-3.8444,-1.2639,0.6371,-1257.57,841.13,1704.47
1910,-3.8442,-1.2258,0.5687,-1773.19,1560.00,1704.35
1920,-3.8441,-1.2045,0.4968,-898.19,810.06,-1092.65
1930,-3.8439,-1.1980,0.4307,1836.18,-393.01,547.79
1940,-3.8750,-1.2072,0.3694,-1335.69,-861.76,-967.96
1950,-3.8748,-1.2174,0.3124,1492.43,-705.51,-1358.70
1960,-3.8745,-1.2120,0.2649,179.93,-2.38,-1796.33
1970,-3.8744,-1.1960,0.2201,867.43,1919.49,-562.01
1980,-3.8743,-1.1924,0.1617,-1085.69,185.12,1172.30
1990,-3.8743,-1.2113,0.0780,-616.94,716.37,1453.43
2000,-3.8743,-1.2428,-0.0242,961.18,1997.62,-1218.63
2010,-3.8741,-1.2640,-0.1177,929.93,919.43,515.56
2020,-3.8741,-1.2603,-0.1899,-1788.82,950.62,1577.88
2030,-3.8741,-1.2415,-0.2531,-1304.44,-299.38,-1266.05
2040,-3.8740,-1.2200,-0.3152,1101.81,-377.44,608.83
2050,-3.8740,-1.1959,-0.3821,-148.19,-330.57,-860.05
2060,-3.8739,-1.1646,-0.4740,-1070.07,-893.01,-1407.04
2070,-3.8738,-1.1250,-0.5985,-1054.44,-658.57,-1172.85
2080,-3.8735,-1.0793,-0.7255,8.06,-595.95,1983.15
2090,-3.8732,-1.0193,-0.8292,1851.81,-845.89,-563.96
2100,-3.8726,-0.9230,-0.8947,1539.31,1872.99,1404.60
2110,-3.8721,-0.7863,-0.9050,1867.43,1498.17,1451.35
2120,-3.8717,-0.6311,-0.8693,-632.57,170.29,138.85
2130,-3.8716,-0.4816,-0.8173,-773.19,748.72,-907.96
2140,-3.8713,-0.3506,-0.7706,-1632.57,-594.73,795.23
2150,-3.8712,-0.2345,-0.7406,-866.94,1374.27,-1939.03
2160,-3.8710,-0.1226,-0.7358,1992.43,1218.26,279.79
2170,-3.8707,-0.0167,-0.7633,320.56,1827.88,1811.04
2180,-3.8704,0.0762,-0.8137,1867.43,-1687.56,1951.60
2190,-3.8700,0.1681,-0.8640,1758.06,-156.13,1217.10
2200,-3.8698,0.2700,-0.9015,1523.68,1406.56,-1251.71
2210,-3.8695,0.3688,-0.9126,-1429.44,609.86,-267.40
2220,-3.8693,0.4470,-0.8794,-788.82,-811.83,-1579.96
2230,-3.8691,0.4948,-0.8037,1226.81,-561.65,170.10
2240,-3.8693,0.5131,-0.7157,-663.82,1125.92,1748.41
2250,-3.8694,0.5190,-0.6514,1679.93,391.60,-1501.40
2260,-3.8694,0.5286,-0.6289,-1554.44,625.98,1389.34
2270,-3.8694,0.5398,-0.6432,-335.69,-499.02,-1032.53
2280,-3.8693,0.5463,-0.6729,1101.81,1672.91,1451.84
2290,-3.8693,0.5463,-0.6895,1929.93,1876.04,-1485.72
2300,-3.8693,0.5396,-0.6699,1929.93,-248.96,561.10
2310,-3.8695,0.5236,-0.6113,1070.56,-1748.96,-907.59
2320,-3.8698,0.4996,-0.5367,-976.32,1750.98,-1048.10
2330,-3.8700,0.4709,-0.4752,-38.82,-702.21,1655.15
2340,-3.8702,0.4377,-0.4388,289.31,-827.21,1014.65
2350,-3.8705,0.3975,-0.4330,39.31,-171.02,-1891.54
2360,-3.8706,0.3503,-0.4561,-1116.94,578.86,1374.15
2370,-3.8707,0.3032,-0.4862,851.81,1625.67,-1329.04
2380,-3.8707,0.2650,-0.4982,-1179.44,1766.17,795.90
2390,-3.8708,0.2377,-0.4895,1929.93,234.86,-1579.10
2400,-3.8710,0.2076,-0.4747,-1570.07,1344.18,-985.35
2410,-3.8711,0.1541,-0.4672,-1413.82,-765.26,-1110.35
2420,-3.8712,0.0714,-0.4677,-273.19,203.37,-1766.54
2430,-3.8713,-0.0245,-0.4716,1148.68,140.75,905.33
2440,-3.8716,-0.1016,-0.5009,867.43,-343.81,-829.10
2450,-3.8717,-0.1349,-0.5869,-991.94,-93.99,-829.16
2460,-3.8716,-0.1603,-0.7212,-1257.57,890.32,295.72
2470,-3.8715,-0.2294,-0.8636,-507.57,-297.24,-313.96
2480,-3.8711,-0.3472,-0.9612,-1351.32,1468.26,1513.92
2490,-3.8710,-0.4912,-0.9786,-429.44,983.64,-330.02
2500,-3.8710,-0.6302,-0.9266,1133.06,-1250.98,1857.42
2510,-3.8712,-0.7411,-0.8431,-663.82,1404.97,123.17
2520,-3.8717,-0.8191,-0.7725,1148.68,92.29,-986.02
2530,-3.8721,-0.8718,-0.7389,-835.69,1138.98,-17.15
2540,-3.8722,-0.9106,-0.7371,414.31,1435.79,1920.41
2550,-3.8723,-0.9491,-0.7417,-554.44,1670.04,-142.09
2560,-3.8723,-0.9988,-0.7294,-1476.32,1076.23,-1610.84
2570,-3.8724,-1.0632,-0.6953,164.31,-1345.70,-1610.84
2580,-3.8727,-1.1327,-0.6450,-85.69,-986.51,-1048.28
2590,-3.8729,-1.1940,-0.5884,-976.32,1450.87,1842.47
2600,-3.8732,-1.2496,-0.5341,-820.07,700.74,1030.09
2610,-3.8734,-1.3149,-0.4814,54.93,-346.19,1123.90
2620,-3.8737,-1.3965,-0.4199,-304.44,-1612.00,1827.15
2630,-3.8739,-1.4822,-0.3263,1258.06,-1737.12,-1703.98
2640,-3.8741,-1.5513,-0.1877,-1710.69,-1752.93,-1672.55
2650,-3.8744,-1.5906,-0.0216,1445.56,-18.68,1796.45
2660,-3.8746,-1.6008,0.1400,414.31,1246.89,796.81
2670,-3.8749,-1.5914,0.2732,-898.19,1934.33,343.99
2680,-3.8439,-1.5692,0.3734,304.93,-1018.74,-1999.51
2690,-3.8440,-1.5377,0.4458,-851.32,-190.61,-1655.58
2700,-3.8440,-1.5048,0.4971,-820.07,1075.07,844.60
2710,-3.8440,-1.4811,0.5337,-601.32,-362.37,375.92
2720,-3.8440,-1.4794,0.5513,-1570.07,325.20,532.29
2730,-3.8440,-1.5037,0.5419,-1351.32,-1424.80,-1936.46
2740,-3.8439,-1.5355,0.5039,-460.69,1372.01,1297.91
2750,-3.8750,-1.5498,0.4501,-538.82,512.57,1907.23
2760,-3.8749,-1.5406,0.4021,1633.06,1621.95,-1014.77
2770,-3.8748,-1.5188,0.3693,-1195.07,-518.68,-327.39
2780,-3.8746,-1.4875,0.3456,1601.81,-721.74,-327.45
2790,-3.8745,-1.4434,0.3253,1601.81,247.07,-1639.95
2800,-3.8745,-1.3861,0.3057,-741.94,1653.38,-608.76
2810,-3.8745,-1.3246,0.2887,-1413.82,-862.12,-890.08
2820,-3.8745,-1.2748,0.2794,-1538.82,966.13,1875.55
2830,-3.8746,-1.2443,0.2672,836.18,-221.25,-327.64
2840,-3.8746,-1.2224,0.2322,742.43,-1783.69,1000.49
2850,-3.8748,-1.2024,0.1730,-460.69,1731.93,-499.57
2860,-3.8746,-1.1842,0.1035,-1898.19,-1846.13,31.56
2870,-3.8746,-1.1628,0.0339,429.93,1263.31,1078.31
2880,-3.8746,-1.1451,-0.0392,-835.69,357.06,1437.56
2890,-3.8746,-1.1439,-0.1207,1429.93,-1002.26,-1125.12
2900,-3.8745,-1.1548,-0.1986,1586.18,560.24,-1375.24
2910,-3.8744,-1.1572,-0.2544,195.56,-1408.51,-328.55
2920,-3.8741,-1.1342,-0.2859,-116.94,-549.19,1015.08
2930,-3.8740,-1.0836,-0.3069,-1163.82,-580.38,1124.39
2940,-3.8740,-1.0170,-0.3292,1304.93,732.24,-1578.74
2950,-3.8740,-0.9554,-0.3568,1836.18,1872.99,1624.33
2960,-3.8740,-0.9146,-0.3936,1711.18,-1658.14,874.27
2970,-3.8740,-0.8895,-0.4478,-1054.44,1638.79,1452.33
2980,-3.8739,-0.8676,-0.5314,-1851.32,-1298.65,1108.46
2990,-3.8737,-0.8446,-0.6427,961.18,-1.71,1467.65
3000,-3.8733,-0.8180,-0.7555,-101.32,1748.29,936.22
3010,-3.8729,-0.7783,-0.8430,-695.07,-689.15,1264.10
3020,-3.8726,-0.7267,-0.8936,383.06,107.85,1842.10
3030,-3.8722,-0.6748,-0.9056,-1007.57,1639.16,-1486.15
3040,-3.8718,-0.6195,-0.8854,1633.06,92.41,-1845.52
3050,-3.8716,-0.5466,-0.8524,711.18,-1313.72,-642.40
3060,-3.8713,-0.4514,-0.8350,-1960.69,-1094.85,-970.46
3070,-3.8711,-0.3419,-0.8506,-1773.19,1139.71,-611.02
3080,-3.8707,-0.2260,-0.8960,242.43,-860.05,1513.92
3090,-3.8704,-0.1147,-0.9548,-913.82,1327.64,1013.85
3100,-3.8700,-0.0238,-1.0012,1320.56,1796.63,279.36
3110,-3.8698,0.0406,-1.0098,961.18,-140.69,826.11
3120,-3.8696,0.0834,-0.9727,1211.18,-1249.94,919.86
3130,-3.8696,0.1173,-0.9021,-1320.07,-499.88,357.42
3140,-3.8698,0.1527,-0.8265,-976.32,531.43,1138.85
3150,-3.8699,0.1941,-0.7745,-445.07,-1796.63,-1517.27
3160,-3.8699,0.2399,-0.7518,851.81,859.74,1889.10
3170,-3.8699,0.2756,-0.7522,-1288.82,-233.95,-1407.78
3180,-3.8699,0.2953,-0.7589,-710.69,-280.76,-1173.40
3190,-3.8699,0.3104,-0.7527,1804.93,-1140.08,1014.10
3200,-3.8700,0.3274,-0.7321,-257.57,-343.20,576.60
3210,-3.8702,0.3408,-0.7021,1914.31,-1702.51,-1876.46
3220,-3.8705,0.3450,-0.6724,-366.94,-1874.39,-579.53
3230,-3.8706,0.3442,-0.6510,164.31,1938.17,-1860.72
3240,-3.8707,0.3423,-0.6385,70.56,672.55,-1313.78
3250,-3.8707,0.3315,-0.6359,-179.44,-1733.76,576.84
3260,-3.8708,0.3083,-0.6423,-1554.44,-1390.01,-516.91
3270,-3.8708,0.2825,-0.6442,-523.19,1781.80,-1313.78
3280,-3.8708,0.2598,-0.6304,164.31,1547.42,920.59
3290,-3.8710,0.2329,-0.6075,1258.06,-687.01,1654.97
3300,-3.8711,0.1954,-0.5872,1820.56,-1765.20,1826.90
3310,-3.8712,0.1528,-0.5747,1023.68,844.12,-1610.53
3320,-3.8713,0.1136,-0.5698,-429.44,-1562.26,-1.16
3330,-3.8713,0.0812,-0.5741,-1445.07,-937.32,-1157.41
3340,-3.8713,0.0555,-0.5890,-1601.32,-1484.25,-1766.78
3350,-3.8713,0.0342,-0.6091,-882.57,609.44,1920.72
3360,-3.8713,0.0095,-0.6305,383.06,-1968.69,-1719.97
3370,-3.8713,-0.0219,-0.6506,1226.81,-703.12,-766.91
3380,-3.8712,-0.0537,-0.6677,1211.18,734.31,358.09
3390,-3.8712,-0.0841,-0.6831,1133.06,-1453.25,1186.16
3400,-3.8712,-0.1228,-0.7001,1242.43,577.94,1623.66
3410,-3.8712,-0.1764,-0.7184,289.31,-1593.99,1842.35
3420,-3.8712,-0.2330,-0.7305,1429.93,62.13,1764.22
3430,-3.8712,-0.2755,-0.7358,-1820.07,-1484.86,1076.66
3440,-3.8713,-0.3005,-0.7416,742.43,1827.58,-392.09
3450,-3.8713,-0.3173,-0.7489,1539.31,1093.14,920.41
3460,-3.8715,-0.3418,-0.7583,-601.32,155.58,592.29
3470,-3.8717,-0.3932,-0.7725,258.06,-1047.55,-1673.40
3480,-3.8719,-0.4821,-0.7877,1679.93,1139.83,-1392.15
3490,-3.8722,-0.6086,-0.7991,-1695.07,-813.48,-1235.96
3500,-3.8724,-0.7594,-0.7990,-1898.19,1733.15,-564.09
3510,-3.8726,-0.9064,-0.7808,-1195.07,1748.47,670.29
3520,-3.8728,-1.0171,-0.7522,-7.57,76.29,-954.65
3530,-3.8729,-1.0771,-0.7258,1820.56,-267.64,-1126.53
3540,-3.8729,-1.1044,-0.7137,-1866.94,-892.76,467.29
3550,-3.8729,-1.1260,-0.7061,-1351.32,654.05,357.97
3560,-3.8729,-1.1591,-0.6714,-116.94,1638.37,1467.35
3570,-3.8729,-1.2025,-0.5938,-351.32,-1924.19,967.41
3580,-3.8730,-1.2397,-0.4824,-1913.82,13.24,498.84
3590,-3.8733,-1.2565,-0.3628,1320.56,-1736.82,670.90
3600,-3.8737,-1.2535,-0.2571,-820.07,1575.62,-78.86
3610,-3.8738,-1.2406,-0.1730,-445.07,-893.13,452.58
3620,-3.8740,-1.2267,-0.1023,1211.18,1872.56,-1031.62
3630,-3.8741,-1.2306,-0.0353,-1007.57,-1080.57,-1297.12
3640,-3.8743,-1.2729,0.0376,-1507.57,-502.44,-1484.50
3650,-3.8744,-1.3529,0.1252,1070.56,825.62,1781.31
3660,-3.8746,-1.4469,0.2261,-1163.82,44.19,-15.38
3670,-3.8748,-1.5359,0.3367,-1195.07,950.26,391.05
3680,-3.8750,-1.6196,0.4385,-585.69,-893.68,219.36
3690,-3.8440,-1.6885,0.5139,695.56,137.45,1500.85
3700,-3.8441,-1.7211,0.5547,-116.94,1793.52,1750.98
3710,-3.8441,-1.7100,0.5380,-288.82,-987.79,1907.29
3720,-3.8440,-1.6654,0.4578,1133.06,871.64,1985.41
3730,-3.8750,-1.6049,0.3458,-1163.82,-1393.92,1563.35
3740,-3.8748,-1.5380,0.2458,-1413.82,278.08,-1202.45
3750,-3.8745,-1.4661,0.1830,-851.32,-518.68,-1030.82
3760,-3.8743,-1.3937,0.1572,351.81,-565.37,390.93
3770,-3.8743,-1.3311,0.1506,1617.43,137.88,-562.19
3780,-3.8741,-1.2917,0.1440,1633.06,-705.75,734.62
3790,-3.8741,-1.2751,0.1223,-1335.69,-1549.44,703.37
3800,-3.8741,-1.2671,0.0824,789.31,-330.63,687.68
3810,-3.8741,-1.2584,0.0349,1820.56,-1440.00,1922.00
3820,-3.8740,-1.2458,-0.0122,-1070.07,481.87,46.94
3830,-3.8740,-1.2279,-0.0626,539.31,-1549.32,1734.31
3840,-3.8740,-1.2008,-0.1202,-1163.82,-2.44,-1078.31
3850,-3.8739,-1.1610,-0.1813,-1695.07,622.62,327.88
3860,-3.8739,-1.1115,-0.2434,-601.32,810.18,1843.38
3870,-3.8739,-1.0597,-0.3058,1742.43,857.18,-312.99
3880,-3.8738,-1.0168,-0.3635,367.43,872.92,-922.49
3890,-3.8735,-0.9880,-0.4152,1851.81,1482.36,374.27
3900,-3.8734,-0.9639,-0.4606,1539.31,-1126.95,-1985.23
3910,-3.8733,-0.9320,-0.4957,633.06,1060.61,1983.46
3920,-3.8732,-0.8909,-0.5192,711.18,560.67,77.15
3930,-3.8732,-0.8513,-0.5356,1976.81,1560.73,1670.84
3940,-3.8730,-0.8187,-0.5553,-960.69,-548.58,233.28
3950,-3.8729,-0.7831,-0.5845,-788.82,935.85,373.90
3960,-3.8728,-0.7374,-0.6228,-226.32,1201.54,1498.84
3970,-3.8727,-0.6876,-0.6638,1617.43,295.41,-1001.22
3980,-3.8724,-0.6426,-0.6953,-7.57,-954.53,592.41
3990,-3.8723,-0.6062,-0.7029,1758.06,-985.66,951.72
4000,-3.8723,-0.5767,-0.6815,-1585.69,-1954.35,-1407.65
4010,-3.8723,-0.5463,-0.6459,-1804.44,780.09,-1923.22
4020,-3.8723,-0.5093,-0.6215,-1913.82,1342.65,1514.34
4030,-3.8723,-0.4635,-0.6229,-1179.44,467.71,-1360.60
4040,-3.8722,-0.4127,-0.6449,679.93,280.33,-1876.22
4050,-3.8721,-0.3698,-0.6768,-820.07,1467.90,-345.03
4060,-3.8718,-0.3365,-0.7074,679.93,1389.89,-1751.34
4070,-3.8716,-0.3015,-0.7263,929.93,1468.08,1092.35
4080,-3.8713,-0.2590,-0.7396,1414.31,-953.74,326.66
4090,-3.8711,-0.2115,-0.7616,-1148.19,1343.20,811.04
4100,-3.8708,-0.1586,-0.7937,929.93,-1469.18,-1017.15
4110,-3.8705,-0.1005,-0.8301,-288.82,-1578.49,-1751.59
4120,-3.8701,-0.0369,-0.8618,-851.32,1765.38,920.23
4130,-3.8699,0.0352,-0.8776,-710.69,1703.00,1154.54
4140,-3.8698,0.1110,-0.8707,508.06,-328.06,-1689.27
4150,-3.8696,0.1791,-0.8440,-1788.82,547.06,404.54
4160,-3.8698,0.2316,-0.8059,-1070.07,-30.94,-548.58
4170,-3.8699,0.2765,-0.7593,1648.68,844.18,-17.21
4180,-3.8700,0.3273,-0.7134,-601.32,-1187.01,-548.40
4190,-3.8700,0.3839,-0.6887,1898.68,688.11,170.47
4200,-3.8701,0.4380,-0.6896,1148.68,-155.52,-173.28
4210,-3.8700,0.4799,-0.7035,70.56,-264.77,1607.97
4220,-3.8700,0.5026,-0.7158,1429.93,1954.04,-845.15
4230,-3.8700,0.5066,-0.7135,336.18,375.98,-1548.28
4240,-3.8701,0.4928,-0.6897,851.81,672.85,-1688.90
4250,-3.8704,0.4591,-0.6517,-913.82,-280.33,-1126.40
4260,-3.8706,0.4109,-0.6138,-1226.32,578.98,1904.97
4270,-3.8708,0.3591,-0.5857,601.81,1438.29,1389.40
4280,-3.8711,0.3080,-0.5704,1976.81,1031.92,-1407.41
4290,-3.8712,0.2562,-0.5656,-570.07,-1015.08,1811.34
4300,-3.8713,0.2074,-0.5670,804.93,-390.14,-1048.03
4310,-3.8713,0.1669,-0.5739,-1445.07,-577.76,1701.97
4320,-3.8713,0.1288,-0.5841,1367.43,-1452.82,1092.59
4330,-3.8713,0.0828,-0.6017,492.43,1234.62,842.59
4340,-3.8713,0.0382,-0.6277,-1398.19,-1015.50,1733.15
4350,-3.8713,0.0049,-0.6542,898.68,-343.69,-626.28
4360,-3.8712,-0.0317,-0.6833,633.06,265.62,467.47
4370,-3.8713,-0.0857,-0.7137,-54.44,546.75,-16.97
4380,-3.8713,-0.1534,-0.7300,1039.31,656.07,1764.22
4390,-3.8715,-0.2278,-0.7307,367.43,-1422.18,-1188.96
4400,-3.8715,-0.3081,-0.7344,-1148.19,-1516.11,29.79
4410,-3.8716,-0.3997,-0.7515,570.56,-1984.99,-1782.71
4420,-3.8716,-0.5078,-0.7811,851.81,-172.67,-1923.40
4430,-3.8716,-0.6204,-0.8141,-991.94,30.21,-329.65
4440,-3.8715,-0.7092,-0.8353,601.81,-188.72,-1220.40
4450,-3.8713,-0.7610,-0.8342,1226.81,1092.35,1951.48
4460,-3.8713,-0.7819,-0.8069,-1398.19,1232.85,-611.02
4470,-3.8713,-0.7900,-0.7654,-70.07,732.79,-1720.34
4480,-3.8715,-0.8053,-0.7340,-1116.94,-1954.71,-1157.78
4490,-3.8716,-0.8400,-0.7235,929.93,-1939.09,1857.91
4500,-3.8717,-0.8970,-0.7249,492.43,-595.40,389.16
4510,-3.8719,-0.9708,-0.7250,1195.56,-767.40,-517.09
4520,-3.8721,-1.0547,-0.7102,-257.57,-783.20,-1188.96
4530,-3.8722,-1.1371,-0.6697,1008.06,1107.30,1201.72
4540,-3.8724,-1.2122,-0.6002,-1538.82,-1705.38,-1720.09
4550,-3.8727,-1.2753,-0.5072,851.81,-814.88,-1563.72
4560,-3.8729,-1.3186,-0.4058,773.68,-908.75,1592.71
4570,-3.8733,-1.3442,-0.3057,-773.19,75.50,-907.04
4580,-3.8737,-1.3647,-0.2075,-54.44,887.94,-313.11
4590,-3.8739,-1.3932,-0.1124,1320.56,1450.44,562.07
4600,-3.8743,-1.4292,-0.0138,1679.93,1622.25,1812.26
4610,-3.8746,-1.4613,0.0961,1070.56,-1752.81,-437.56
4620,-3.8749,-1.4882,0.2079,961.18,309.63,1953.31
4630,-3.8439,-1.5149,0.3076,1523.68,-1377.93,953.49
4640,-3.8441,-1.5404,0.3969,-1898.19,-612.37,422.42
4650,-3.8444,-1.5690,0.4799,-1163.82,-1190.55,813.23
4660,-3.8446,-1.6027,0.5397,-820.07,1434.39,-155.33
4670,-3.8446,-1.6188,0.5680,-1132.57,1090.58,-1108.34
4680,-3.8445,-1.5883,0.5757,804.93,715.58,1141.72
4690,-3.8444,-1.5139,0.5659,711.18,1700.01,1157.35
4700,-3.8442,-1.4285,0.5294,-1773.19,450.13,-1045.78
4710,-3.8440,-1.3557,0.4628,1164.31,-221.56,-639.65
4720,-3.8749,-1.2994,0.3896,-1523.19,-752.69,547.73
4730,-3.8748,-1.2550,0.3329,1679.93,1888.06,-452.39
4740,-3.8746,-1.2157,0.2930,-632.57,-1377.50,-468.14
4750,-3.8745,-1.1787,0.2642,398.68,1513.24,1672.42
4760,-3.8745,-1.1458,0.2323,1133.06,1825.81,-593.26
4770,-3.8744,-1.1223,0.1777,1351.81,1747.74,875.43
4780,-3.8744,-1.1157,0.1012,351.81,-1236.57,-1390.32
4790,-3.8743,-1.1317,0.0267,1195.56,966.55,1531.43
4800,-3.8741,-1.1670,-0.0315,-851.32,-564.76,296.88
4810,-3.8741,-1.2046,-0.0790,-1366.94,-17.94,1312.38
4820,-3.8741,-1.2283,-0.1235,1820.56,1903.87,1593.57
4830,-3.8741,-1.2294,-0.1749,-1210.69,200.68,-859.62
4840,-3.8740,-1.2057,-0.2330,-1351.32,1622.56,-1797.24
4850,-3.8739,-1.1616,-0.2899,1679.93,-1814.88,-1625.49
4860,-3.8738,-1.1082,-0.3463,-679.44,-1096.07,-1109.99
4870,-3.8737,-1.0604,-0.4000,-1835.69,-314.70,-1485.11
4880,-3.8735,-1.0278,-0.4425,273.68,810.42,1139.83
4890,-3.8735,-1.0074,-0.4692,445.56,-627.01,-282.17
4900,-3.8734,-0.9872,-0.4849,-945.07,-48.89,-1297.85
4910,-3.8733,-0.9541,-0.5004,1648.68,1951.17,1952.15
4920,-3.8732,-0.9019,-0.5333,1883.06,-33.14,-1407.29
4930,-3.8729,-0.8330,-0.5992,570.56,-251.77,-1891.72
4940,-3.8726,-0.7572,-0.7002,1383.06,-689.15,748.78
4950,-3.8722,-0.6810,-0.8187,-913.82,-1610.90,1982.97
4960,-3.8717,-0.6066,-0.9160,836.18,-782.59,498.35
4970,-3.8713,-0.5380,-0.9601,-1632.57,-1235.60,1935.67
4980,-3.8710,-0.4762,-0.9525,-851.32,1123.90,513.73
4990,-3.8707,-0.4189,-0.9154,-945.07,-1907.23,107.48
5000,-3.8706,-0.3660,-0.8732,-1616.94,-1157.10,1498.17
5010,-3.8705,-0.3170,-0.8447,1164.31,249.27,1404.54
5020,-3.8704,-0.2698,-0.8363,-570.07,-110.05,451.42
5030,-3.8704,-0.2185,-0.8484,1476.81,968.20,-704.77
5040,-3.8702,-0.1624,-0.8779,39.31,-578.55,-1486.08
5050,-3.8701,-0.1053,-0.9120,-773.19,-359.74,-1876.77
5060,-3.8700,-0.0500,-0.9331,-1476.32,-718.99,873.17
5070,-3.8700,0.0009,-0.9301,1601.81,578.00,841.92
5080,-3.8701,0.0420,-0.8979,117.43,953.12,1513.79
5090,-3.8702,0.0762,-0.8431,1383.06,1062.56,326.35
5100,-3.8705,0.1158,-0.7852,1758.06,78.25,-1282.90
5110,-3.8706,0.1692,-0.7468,-1163.82,-499.82,1967.16
5120,-3.8706,0.2299,-0.7502,1664.31,406.56,1139.16
5130,-3.8705,0.2894,-0.7943,1429.93,-30.82,-1532.78
5140,-3.8702,0.3433,-0.8536,1054.93,-1671.33,-220.34
5150,-3.8699,0.3890,-0.8987,-54.44,-1265.01,795.17
5160,-3.8699,0.4736,-0.8071,-820.07,172.73,1138.92
5170,-3.8701,0.4594,-0.7302,633.06,688.42,1326.54
5180,-3.8704,0.4335,-0.6639,-1195.07,-1467.90,404.79
5190,-3.8707,0.4106,-0.6178,-507.57,-983.58,-110.72
5200,-3.8708,0.3942,-0.5891,570.56,922.67,623.78
5210,-3.8711,0.3801,-0.5787,-1538.82,594.48,-938.66
5220,-3.8712,0.3586,-0.5895,664.31,1922.61,-1157.41
5230,-3.8713,0.3271,-0.6152,1914.31,547.55,-48.03
5240,-3.8713,0.2933,-0.6450,1883.06,1250.61,-1516.85
5250,-3.8713,0.2599,-0.6595,1554.93,1438.05,1170.59
5260,-3.8715,0.2216,-0.6499,1273.68,-421.39,-688.84
5270,-3.8715,0.1829,-0.6278,367.43,812.93,1264.34
5280,-3.8716,0.1490,-0.6115,-585.69,-359.07,-63.78
5290,-3.8715,0.1113,-0.6168,-913.82,1734.62,280.03
5300,-3.8715,0.0714,-0.6401,-1741.94,1047.06,-1610.60
5310,-3.8713,0.0374,-0.6720,1148.68,-1937.38,1358.09
5320,-3.8712,0.0033,-0.7076,789.31,1984.44,467.41
5330,-3.8712,-0.0453,-0.7380,429.93,1421.88,-1001.40
5340,-3.8711,-0.1227,-0.7609,-1788.82,1546.75,186.04
5350,-3.8712,-0.2249,-0.7732,304.93,-1375.24,-1.53
5360,-3.8712,-0.3298,-0.7692,-773.19,1046.39,-782.78
5370,-3.8712,-0.4177,-0.7542,1789.31,1561.83,-1079.65
5380,-3.8712,-0.4821,-0.7377,-1460.69,-516.48,-376.53
5390,-3.8711,-0.5258,-0.7286,-1695.07,1592.77,1045.41
5400,-3.8711,-0.5566,-0.7312,711.18,-1251.04,-1376.46
5410,-3.8711,-0.5897,-0.7406,758.06,-1579.22,-126.46
5420,-3.8710,-0.6421,-0.7493,523.68,1217.59,701.66
5430,-3.8710,-0.7155,-0.7548,1820.56,108.09,826.66
5440,-3.8711,-0.7975,-0.7538,429.93,-595.15,-782.78
5450,-3.8712,-0.8715,-0.7377,1929.93,-470.34,-470.28
5460,-3.8713,-0.9229,-0.7070,461.18,1592.04,-1220.21
5470,-3.8715,-0.9476,-0.6729,1883.06,1513.79,1686.10
5480,-3.8716,-0.9479,-0.6313,-1288.82,1888.73,123.66
5490,-3.8718,-0.9369,-0.5709,-1320.07,-798.77,1483.09
5500,-3.8721,-0.9421,-0.4944,86.18,-1064.33,1123.84
5510,-3.8724,-0.9751,-0.4093,-585.69,732.48,-532.23
5520,-3.8727,-1.0178,-0.3190,-804.44,-376.95,1952.27
5530,-3.8729,-1.0452,-0.2245,1726.81,-814.51,1327.45
5540,-3.8732,-1.0469,-0.1266,-1773.19,-720.83,1108.89
5550,-3.8734,-1.0341,-0.0295,-1991.94,-189.58,577.82
5560,-3.8738,-1.0270,0.0632,-351.32,232.30,-1015.69
5570,-3.8740,-1.0398,0.1542,554.93,107.36,109.50
5580,-3.8744,-1.0808,0.2433,-1085.69,-252.08,937.74
5590,-3.8748,-1.1512,0.3278,1664.31,-845.89,-905.82
5600,-3.8750,-1.2393,0.4088,648.68,1966.49,-890.01
5610,-3.8439,-1.3241,0.4877,1383.06,341.31,563.29
5620,-3.8441,-1.3921,0.5592,-1476.32,-1565.12,-545.96
5630,-3.8441,-1.4390,0.6227,1820.56,-409.00,454.16
5640,-3.8441,-1.4519,0.6687,-179.44,-284.12,626.16
5650,-3.8441,-1.4326,0.6724,-1835.69,1606.51,-420.59
5660,-3.8440,-1.4008,0.6204,633.06,-1924.68,-61.22
5670,-3.8750,-1.3643,0.5278,711.18,-580.87,1688.66
5680,-3.8748,-1.3359,0.4313,1383.06,-424.56,1329.10
5690,-3.8745,-1.3352,0.3503,1008.06,-783.87,-1780.46
5700,-3.8743,-1.3496,0.2910,1101.81,856.75,-1921.20
5710,-3.8741,-1.3560,0.2625,-741.94,1262.94,-1249.45
5720,-3.8741,-1.3668,0.2518,-1554.44,1606.69,-468.26
5730,-3.8741,-1.4010,0.2301,1054.93,247.31,1953.61
5740,-3.8741,-1.4489,0.1808,679.93,1466.00,1656.68
5750,-3.8740,-1.4950,0.1090,-1445.07,-846.62,562.81
5760,-3.8739,-1.5352,0.0260,648.68,1965.82,1406.43
5770,-3.8738,-1.5715,-0.0707,-491.94,-659.30,-484.38
5780,-3.8735,-1.5934,-0.1798,-1148.19,-1034.36,-625.18
5790,-3.8733,-1.5826,-0.2921,54.93,996.89,-781.62
5800,-3.8730,-1.5316,-0.3879,1429.93,-1378.11,1483.76
5810,-3.8729,-1.4507,-0.4447,-38.82,-1643.68,-1360.17
5820,-3.8728,-1.3630,-0.4668,-1679.44,-909.12,1936.58
5830,-3.8728,-1.2917,-0.4801,1539.31,262.94,1389.71
5840,-3.8730,-1.2487,-0.5027,-1335.69,-1440.06,-141.60
5850,-3.8733,-1.2205,-0.5396,179.93,-330.57,-1235.41
5860,-3.8735,-1.1953,-0.5957,-210.69,-1049.32,-1219.85
5870,-3.8737,-1.1692,-0.6682,-991.94,-236.76,-485.60
5880,-3.8735,-1.1342,-0.7504,-1648.19,-1517.94,451.78
5890,-3.8734,-1.0825,-0.8445,-1163.82,-33.51,404.72
5900,-3.8733,-0.9974,-0.9410,1445.56,-80.26,-1704.83
5910,-3.8732,-0.8717,-1.0140,336.18,-439.45,-111.27
5920,-3.8730,-0.7249,-1.0496,429.93,-1782.96,-783.26
5930,-3.8729,-0.5936,-1.0558,-773.19,1670.41,779.17
5940,-3.8729,-0.4971,-1.0454,23.68,873.84,-1220.83
5950,-3.8728,-0.4185,-1.0167,383.06,-1797.85,-1580.20
5960,-3.8726,-0.3301,-0.9629,-1554.44,1874.15,154.24
5970,-3.8723,-0.2365,-0.9056,1758.06,764.95,888.73
5980,-3.8719,-0.1602,-0.8853,1742.43,93.26,1591.98
5990,-3.8715,-0.0775,-0.9243,-491.94,-1297.24,1654.48
6000,-3.8710,0.0663,-1.0314,-1913.82,1702.94,1123.17
6010,-3.8706,0.2676,-1.1855,492.43,-15.50,-1877.08
6020,-3.8702,0.4447,-1.3466,-1741.94,250.49,-330.44
6030,-3.8698,0.5323,-1.4648,929.93,-358.52,-721.44
6040,-3.8693,0.5371,-1.4771,148.68,501.04,1419.01
6050,-3.8690,0.5044,-1.3733,758.06,-1061.46,1809.57
6060,-3.8690,0.4760,-1.2200,570.56,219.73,-127.69
6070,-3.8690,0.4825,-1.0929,929.93,-155.33,1888.18
6080,-3.8691,0.5396,-1.0220,1773.68,110.29,-1377.14
6090,-3.8693,0.6296,-0.9948,1070.56,1188.54,-267.64
6100,-3.8693,0.7104,-0.9805,601.81,673.10,357.42
6110,-3.8695,0.7506,-0.9559,-1054.44,-1498.66,-548.83
6120,-3.8696,0.7517,-0.9083,86.18,1642.09,935.61
6130,-3.8699,0.7318,-0.8302,226.81,-264.16,795.04
6140,-3.8702,0.7045,-0.7311,1679.93,1735.78,-720.40
6150,-3.8705,0.6815,-0.6392,-1820.07,-1576.78,576.66
6160,-3.8708,0.6731,-0.5752,-757.57,-1811.22,1170.59
6170,-3.8712,0.6685,-0.5454,-1835.69,-1623.72,-704.28
6180,-3.8713,0.6365,-0.5540,1570.56,-1811.22,1155.15
6190,-3.8715,0.5583,-0.5933,1476.81,1094.97,-1438.60
6200,-3.8716,0.3199,-0.6605,8.06,-233.64,-1673.22
6210,-3.8717,0.2849,-0.6335,961.18,-546.26,342.41
6220,-3.8719,0.2689,-0.5966,476.81,-1093.20,1123.72
6230,-3.8722,0.2811,-0.5895,-1570.07,-358.89,-1548.10
6240,-3.8723,0.2991,-0.6283,-7.57,547.36,-579.28
6250,-3.8722,0.2734,-0.7091,-1710.69,-421.33,623.72
6260,-3.8722,0.1951,-0.8120,-991.94,1234.86,-1.40
6270,-3.8721,0.0896,-0.9100,976.81,62.87,-1032.84
6280,-3.8721,-0.0400,-0.9965,-523.19,-484.25,-439.33
6290,-3.8721,-0.1995,-1.0833,-1116.94,468.63,-236.33
6300,-3.8719,-0.3688,-1.1743,-1523.19,1358.95,-1095.89
6310,-3.8717,-0.5195,-1.2432,804.93,1702.39,482.06
6320,-3.8716,-0.6515,-1.2566,1508.06,889.59,1294.43
6330,-3.8716,-0.7834,-1.2122,617.43,-829.41,-705.63
6340,-3.8716,-0.9100,-1.1346,-273.19,857.79,1669.49
6350,-3.8717,-0.9927,-1.0676,-476.32,-1220.58,1028.99
6360,-3.8719,-0.9949,-1.0487,945.56,-642.58,-158.39
6370,-3.8719,-0.9501,-1.0704,664.31,1779.30,-1252.08
6380,-3.8718,-0.9369,-1.0934,-1601.32,-1001.89,-1377.14
6390,-3.8717,-0.9841,-1.0848,86.18,60.67,1685.36
6400,-3.8718,-1.0660,-1.0508,-1960.69,1154.30,-689.64
6410,-3.8719,-1.1458,-1.0243,-445.07,1513.49,497.92
6420,-3.8722,-1.1978,-1.0178,1351.81,903.99,1888.61
6430,-3.8723,-1.2250,-1.0107,-1304.44,1731.99,1669.86
6440,-3.8724,-1.2576,-0.9730,-788.82,-1361.82,1591.74
6450,-3.8727,-1.3131,-0.8907,-960.69,-533.75,-1298.83
6460,-3.8729,-1.3892,-0.7778,-70.07,1997.38,482.60
6470,-3.8733,-1.4739,-0.6599,-1804.44,450.38,701.60
6480,-3.8737,-1.5469,-0.5515,-648.19,-456.05,1404.91
6490,-3.8749,-1.6350,-0.1123,-741.94,1778.02,530.76
6500,-3.8439,-1.6360,0.0253,-1273.19,1637.39,77.88
6510,-3.8441,-1.6367,0.1647,-1398.19,-753.23,718.75
6520,-3.8444,-1.6306,0.2952,-1491.94,1090.52,-1515.32
6530,-3.8445,-1.6062,0.4081,-710.69,1793.64,1625.55
6540,-3.8446,-1.5629,0.4948,-1585.69,246.83,-1983.58
6550,-3.8446,-1.5107,0.5474,-38.82,-659.36,204.04
6560,-3.8446,-1.4651,0.5559,-1366.94,-1924.87,985.41
6570,-3.8445,-1.4386,0.5083,476.81,-830.99,1079.16
6580,-3.8442,-1.4246,0.4142,-132.57,1075.26,766.60
6590,-3.8440,-1.3995,0.3188,1664.31,1028.44,1969.54
6600,-3.8750,-1.3690,0.2570,867.43,825.38,1406.86
6610,-3.8749,-1.3635,0.2266,773.68,903.56,1797.36
6620,-3.8748,-1.3832,0.2078,1476.81,1012.94,266.05
6630,-3.8748,-1.3989,0.1687,-1038.82,-1393.37,-1484.01
6640,-3.8746,-1.4000,0.0854,945.56,1606.63,1969.06
6650,-3.8745,-1.4089,-0.0267,804.93,-1049.62,-671.75
6660,-3.8743,-1.4364,-0.1318,-335.69,590.94,-1562.56
6670,-3.8740,-1.4601,-0.2133,148.68,-862.18,-1078.43
6680,-3.8738,-1.4669,-0.2776,1117.43,715.88,-125.43
6690,-3.8735,-1.4604,-0.3298,242.43,481.51,-266.17
6700,-3.8733,-1.4365,-0.3693,1070.56,1794.01,1468.08
6710,-3.8732,-1.3844,-0.4004,133.06,747.19,718.02
6720,-3.8732,-1.2909,-0.4360,-1195.07,762.88,-1907.04
6730,-3.8732,-1.1666,-0.4932,-1226.32,200.56,-703.98
6740,-3.8730,-1.0577,-0.5715,-1320.07,888.31,889.65
6750,-3.8730,-1.0060,-0.6517,617.43,-1142.70,-1907.41
6760,-3.8730,-1.0127,-0.7126,-757.57,591.74,1826.84
6770,-3.8732,-1.0520,-0.7466,-1616.94,794.86,-251.40
6780,-3.8732,-1.1050,-0.7694,1351.81,451.05,1279.79
6790,-3.8732,-1.1486,-0.8030,-1429.44,1529.05,498.47
6800,-3.8732,-1.1484,-0.8617,992.43,1232.12,1607.79
6810,-3.8732,-1.0945,-0.9454,1008.06,1716.49,-157.96
6820,-3.8730,-1.0070,-1.0385,-85.69,-1002.20,-392.52
6830,-3.8728,-0.9098,-1.1193,-882.57,-908.26,763.55
6840,-3.8727,-0.8251,-1.1643,-445.07,748.17,1357.18
6850,-3.8726,-0.7610,-1.1624,-1601.32,-1017.27,247.68
6860,-3.8726,-0.6984,-1.1322,-1398.19,-767.15,-1189.82
6870,-3.8724,-0.6113,-1.1050,-1382.57,-907.65,-1642.88
6880,-3.8723,-0.4952,-1.0935,1758.06,-1423.10,-986.57
6890,-3.8721,-0.3563,-1.1002,617.43,45.90,1857.24
6900,-3.8718,-0.1976,-1.1315,-1601.32,-813.23,-314.70
6910,-3.8715,-0.0305,-1.1694,-1288.82,-812.93,-939.76
6920,-3.8711,0.1233,-1.1832,101.81,-1671.94,-564.82
6930,-3.8706,0.2562,-1.1675,-210.69,547.06,997.68
6940,-3.8702,0.3804,-1.1353,804.93,-1437.01,-1330.44
6950,-3.8699,0.5103,-1.1051,695.56,-1311.77,-33.51
6960,-3.8694,0.6449,-1.0922,1320.56,-1452.15,1513.43
6970,-3.8690,0.7593,-1.0968,-1445.07,204.35,-1033.39
6980,-3.8687,0.8275,-1.0961,1195.56,-389.16,-1424.07
6990,-3.8684,0.8462,-1.0653,1929.93,-295.29,1513.43
7000,-3.8684,0.8319,-1.0017,320.56,-357.73,1154.11
7010,-3.8687,0.8153,-0.9214,-1507.57,-217.16,1794.86
7020,-3.8690,0.8116,-0.8475,367.43,-1935.91,-1658.08
7030,-3.8694,0.8044,-0.7892,-101.32,-482.85,1920.17
7040,-3.8698,0.7742,-0.7399,-1023.19,-1014.10,-1923.46
7050,-3.8701,0.7214,-0.6980,-898.19,1298.34,-1048.34
7060,-3.8704,0.6571,-0.6675,351.81,-1342.35,592.35
7070,-3.8707,0.5806,-0.6538,117.43,-1436.22,-532.59
7080,-3.8708,0.4896,-0.6564,-1679.44,313.60,61.22
7090,-3.8711,0.3979,-0.6586,-1320.07,-14.71,1467.41
7100,-3.8713,0.3226,-0.6442,-1054.44,-296.14,-1516.97
7110,-3.8716,0.2708,-0.6163,1304.93,1547.49,-32.53
7120,-3.8717,0.2418,-0.5922,-1335.69,1109.86,-1423.10
7130,-3.8718,0.2355,-0.5844,-1038.82,203.55,-1610.53
7140,-3.8718,0.2456,-0.5963,-1851.32,1203.55,514.47
7150,-3.8718,0.2421,-0.6433,-554.44,-327.70,-1251.22
7160,-3.8716,0.2048,-0.7260,-1007.57,1656.68,1467.47
7170,-3.8713,0.1521,-0.7998,-1773.19,-921.51,1998.54
7180,-3.8712,0.1056,-0.8314,-523.19,1625.24,-95.34
7190,-3.8712,0.0664,-0.8346,1523.68,1578.31,-1.65
7200,-3.8713,0.0204,-0.8339,508.06,1172.00,-548.52
7210,-3.8715,-0.0586,-0.8563,-1382.57,1265.62,-1095.40
7220,-3.8715,-0.1842,-0.9268,508.06,-1593.87,-1954.83
7230,-3.8713,-0.3406,-1.0262,429.93,1390.26,1216.92
7240,-3.8712,-0.5085,-1.1082,414.31,655.58,-1002.01
7250,-3.8710,-0.6667,-1.1428,-1085.69,-1829.16,1138.43
7260,-3.8708,-0.7734,-1.1226,-1335.69,1733.03,1294.62
7270,-3.8708,-0.7872,-1.0621,1008.06,326.60,-1892.82
7280,-3.8710,-0.7050,-0.9819,-757.57,60.91,-423.95
7290,-3.8710,-0.5923,-0.8989,1773.68,-1673.28,419.92
7300,-3.8711,-0.5421,-0.8264,195.56,951.97,1857.60
7310,-3.8712,-0.5884,-0.7806,-1382.57,-1766.72,-1798.52
7320,-3.8713,-0.6841,-0.7716,695.56,92.59,670.35
7330,-3.8716,-0.7925,-0.7922,445.56,1248.66,1560.97
7340,-3.8718,-0.9203,-0.8204,-1429.44,-1392.21,-845.34
7350,-3.8718,-1.0485,-0.8292,-1788.82,-1001.83,529.60
7360,-3.8718,-1.1338,-0.8022,1804.93,1872.92,1404.60
7370,-3.8718,-1.1753,-0.7350,-1116.94,1325.87,1060.91
7380,-3.8721,-1.2164,-0.6382,1570.56,1935.18,-470.21
7390,-3.8723,-1.2911,-0.5339,304.93,-1674.26,326.84
7400,-3.8728,-1.4122,-0.4377,-1257.57,-330.69,1545.78
7410,-3.8733,-1.5618,-0.3534,-757.57,-18.43,-797.79
7420,-3.8737,-1.6957,-0.2825,101.81,-1221.80,-281.98
7430,-3.8739,-1.7899,-0.2206,-1038.82,-143.98,-1031.86
7440,-3.8741,-1.8457,-0.1506,-1101.32,-222.29,-31.74
7450,-3.8743,-1.8641,-0.0593,-241.94,730.71,1796.57
7460,-3.8744,-1.8478,0.0482,1398.68,418.21,281.13
7470,-3.8746,-1.8070,0.1602,-507.57,-1816.16,-1046.81
7480,-3.8748,-1.7509,0.2706,711.18,512.08,1297.18
7490,-3.8750,-1.6816,0.3704,-101.32,-1347.23,-624.51
7500,-3.8439,-1.6028,0.4467,758.06,-581.42,1735.05
7510,-3.8440,-1.5179,0.4955,-1148.19,1184.33,1485.23
7520,-3.8441,-1.4288,0.5271,1711.18,-565.49,-77.21
7530,-3.8440,-1.3383,0.5466,1117.43,-518.43,1360.35
7540,-3.8439,-1.2537,0.5332,711.18,1981.75,516.66
7550,-3.8750,-1.1844,0.4771,-460.69,263.12,1172.91
7560,-3.8748,-1.1357,0.3954,398.68,1075.81,1235.29
7570,-3.8744,-1.1052,0.3073,-1366.94,-1377.26,250.73
7580,-3.8740,-1.0872,0.2231,-1460.69,-658.45,0.55
7590,-3.8738,-1.0836,0.1405,851.81,575.99,-937.07
7600,-3.8734,-1.1041,0.0557,1304.93,1997.86,422.12
7610,-3.8733,-1.1564,-0.0245,-1320.07,-861.57,-749.94
7620,-3.8732,-1.2378,-0.0925,-7.57,872.68,-750.06
7630,-3.8730,-1.3400,-0.1519,1570.56,169.43,593.57
7640,-3.8732,-1.4486,-0.2075,492.43,575.50,-15.93
7650,-3.8732,-1.5365,-0.2562,-1413.82,1450.26,-1531.68
7660,-3.8732,-1.5793,-0.3054,-663.82,-784.30,811.95
7670,-3.8733,-1.5844,-0.3679,1851.81,918.76,-703.74
7680,-3.8733,-1.5879,-0.4484,1211.18,918.76,-1828.86
7690,-3.8733,-1.6155,-0.5481,758.06,-1378.11,1295.96
7700,-3.8734,-1.6646,-0.6558,1226.81,1856.20,-172.97
7710,-3.8734,-1.7212,-0.7540,-1054.44,74.83,1779.97
7720,-3.8734,-1.7954,-0.8441,-304.44,-503.42,76.60
7730,-3.8734,-1.8868,-0.9410,-1804.44,-34.79,107.67
7740,-3.8734,-1.9498,-1.0544,-1507.57,-441.22,-1017.52
7750,-3.8732,-1.9371,-1.1857,-1570.07,1043.03,1466.67
7760,-3.8729,-1.8363,-1.3231,54.93,246.22,-1252.32
7770,-3.8726,-1.6752,-1.4417,961.18,-1347.35,138.00
7780,-3.8724,-1.4885,-1.5198,1586.18,-518.92,-330.99
7790,-3.8723,-1.2968,-1.5504,1476.81,1481.45,-284.24
7800,-3.8723,-1.1061,-1.5389,-1976.32,1559.94,-143.68
7810,-3.8723,-0.9083,-1.5072,-1570.07,-970.95,-643.68
7820,-3.8721,-0.6943,-1.4983,-257.57,-908.08,75.13
7830,-3.8717,-0.4705,-1.5256,-866.94,232.97,1731.45
7840,-3.8711,-0.2493,-1.5546,-210.69,733.40,-1502.99
7850,-3.8705,-0.0417,-1.5563,101.81,1030.76,-737.43
7860,-3.8700,0.1326,-1.5206,-1335.69,812.38,1668.82
7870,-3.8698,0.2567,-1.4509,976.81,1359.62,1356.38
7880,-3.8696,0.3524,-1.3627,867.43,-1718.26,-1377.87
7890,-3.8694,0.4607,-1.2794,1117.43,1578.80,1606.69
7900,-3.8691,0.5717,-1.2255,-1023.19,235.23,-408.75
7910,-3.8688,0.6481,-1.2081,1179.93,-858.28,1950.68
7920,-3.8685,0.6874,-1.2006,-1038.82,1360.60,153.87
7930,-3.8687,0.7083,-1.1715,-7.57,-1670.59,-627.38
7940,-3.8689,0.7177,-1.1266,-1335.69,-1951.78,-549.19
7950,-3.8693,0.7089,-1.0975,-132.57,-201.78,-627.26
7960,-3.8696,0.6866,-1.0887,-1257.57,-483.03,-1299.07
7970,-3.8700,0.6682,-1.0685,-101.32,641.91,-1674.01
7980,-3.8711,0.6495,-0.8024,-632.57,-1248.78,1498.23
7990,-3.8713,0.6583,-0.7198,-851.32,1298.10,-517.21
8000,-3.8715,0.6825,-0.6483,273.68,-139.34,-1610.84
8010,-3.8716,0.7076,-0.5941,-632.57,1016.91,-1798.16
8020,-3.8717,0.7075,-0.5581,-1413.82,-45.53,-1298.10
8030,-3.8718,0.6748,-0.5341,-1429.44,563.84,-376.10
8040,-3.8718,0.6307,-0.5176,-1616.94,-358.09,998.90
8050,-3.8719,0.5973,-0.5153,742.43,1751.22,-922.91
8060,-3.8719,0.5798,-0.5397,461.18,-1951.97,-1626.04
8070,-3.8719,0.5614,-0.5917,-1773.19,-1077.03,-438.60
8080,-3.8718,0.5240,-0.6591,-132.57,266.66,-188.66
8090,-3.8716,0.4768,-0.7222,-913.82,-358.40,-1423.22
8100,-3.8713,0.4299,-0.7653,1039.31,-436.58,1014.16
8110,-3.8712,0.3837,-0.7966,-960.69,-1952.33,1201.60
8120,-3.8712,0.3370,-0.8351,1117.43,-1968.02,-1282.84
8130,-3.8712,0.2767,-0.8906,-851.32,1109.99,-782.90
8140,-3.8711,0.1830,-0.9657,-570.07,-1999.51,1420.10
8150,-3.8710,0.0599,-1.0514,-570.07,390.93,1419.98
8160,-3.8708,-0.0842,-1.1399,-320.07,1421.94,513.55
8170,-3.8708,-0.2451,-1.2538,1226.81,-1890.81,1903.99
8180,-3.8707,-0.3676,-1.4194,633.06,-469.24,153.75
8190,-3.8706,-0.4030,-1.6123,961.18,-1672.61,1903.44
8200,-3.8704,-0.4038,-1.7673,429.93,1639.83,-1581.30
8210,-3.8701,-0.4513,-1.8318,320.56,1796.08,1012.15
8220,-3.8702,-0.5739,-1.7916,-1757.57,1545.96,-1191.10
8230,-3.8706,-0.7496,-1.6855,-1445.07,-1313.66,168.33
8240,-3.8713,-0.9404,-1.5836,54.93,264.16,262.33
8250,-3.8722,-1.1334,-1.5261,-366.94,1310.61,1996.89
8260,-3.8728,-1.3359,-1.5081,-1070.07,669.62,247.01
8270,-3.8733,-1.5502,-1.4990,1008.06,-1018.25,1200.13
8280,-3.8737,-1.7660,-1.4615,1586.18,137.57,-487.30
8290,-3.8738,-1.9534,-1.3585,1961.18,934.02,1169.01
8300,-3.8740,-2.0786,-1.1710,1976.81,-1878.85,-1096.44
8310,-3.8743,-2.1328,-0.9292,1945.56,-1879.09,-1517.94
8320,-3.8745,-2.1248,-0.6821,-991.94,1073.91,670.04
8330,-3.8749,-2.0649,-0.4572,39.31,698.97,-95.09
8340,-3.8750,-1.9647,-0.2690,-304.44,1495.91,1842.83
8350,-3.8439,-1.8485,-0.1210,523.68,1574.28,-1844.30
8360,-3.8439,-1.7411,-0.0057,-601.32,527.59,109.13
8370,-3.8440,-1.6466,0.0894,1148.68,-722.17,-546.94
8380,-3.8440,-1.5576,0.1752,1242.43,-550.11,-453.00
8390,-3.8440,-1.4713,0.2556,633.06,-1565.55,-218.44
8400,-3.8440,-1.3945,0.3287,-320.07,731.45,-15.14
8410,-3.8439,-1.3302,0.3877,1508.06,-1909.00,484.99
8420,-3.8439,-1.2712,0.4287,1742.43,1638.00,1469.48
8430,-3.8439,-1.2222,0.4526,1289.31,-1111.88,-1671.08
8440,-3.8439,-1.1948,0.4628,-429.44,1950.68,-1842.90
8450,-3.8439,-1.1997,0.4601,-929.44,-752.38,750.85
8460,-3.8440,-1.2424,0.4395,-1554.44,-1096.13,-905.40
8470,-3.8440,-1.3002,0.4014,976.81,263.18,-1264.77
8480,-3.8439,-1.3356,0.3431,1586.18,-611.94,438.23
8490,-3.8750,-1.3367,0.2689,1054.93,-65.12,578.74
8500,-3.8749,-1.3218,0.2050,914.31,-1565.12,-843.26
8510,-3.8746,-1.3118,0.1738,-1179.44,-1752.62,1406.62
8520,-3.8745,-1.3044,0.1726,101.81,-1736.94,47.18
8530,-3.8746,-1.2896,0.1790,1039.31,-1893.19,-765.32
8540,-3.8746,-1.2754,0.1744,-1054.44,-1080.69,-1984.07
8550,-3.8746,-1.2729,0.1501,758.06,-1658.75,-1280.94
8560,-3.8745,-1.2828,0.0925,1070.56,-768.13,1093.99
8570,-3.8744,-1.3002,-0.0032,-195.07,-143.19,187.62
8580,-3.8743,-1.3296,-0.1216,1586.18,-393.19,62.44
8590,-3.8741,-1.3773,-0.2491,1820.56,450.50,1234.13
8600,-3.8740,-1.4210,-0.3807,-288.82,122.25,-266.11
8610,-3.8738,-1.4279,-0.4950,-1882.57,-721.56,-1391.42
8620,-3.8735,-1.3961,-0.5619,1242.43,653.44,233.40
8630,-3.8735,-1.3557,-0.5782,1304.93,91.00,-1282.35
8640,-3.8735,-1.3351,-0.5697,-1523.19,1997.31,1155.09
8650,-3.8737,-1.3353,-0.5663,1117.43,-908.87,576.97
8660,-3.8739,-1.3390,-0.5846,1086.18,-471.37,-1157.41
8670,-3.8740,-1.3356,-0.6389,617.43,1184.88,1514.47
8680,-3.8741,-1.3218,-0.7476,1054.93,-1768.25,1608.09
8690,-3.8743,-1.2976,-0.9048,-1179.44,325.50,-798.34
8700,-3.8743,-1.2614,-1.0853,1914.31,200.56,-1158.02
8710,-3.8741,-1.2003,-1.2792,-1445.07,1091.25,-1814.64
8720,-3.8739,-1.1042,-1.4705,-1632.57,278.87,-518.13
8730,-3.8733,-0.9691,-1.6234,-1335.69,-205.32,793.95
8740,-3.8726,-0.7799,-1.7277,-38.82,216.80,-1909.42
8750,-3.8716,-0.5277,-1.8014,179.93,-1126.53,1090.33
8760,-3.8706,-0.2461,-1.8562,461.18,1436.46,-1659.79
8770,-3.8696,0.0100,-1.8878,508.06,-1578.61,1043.21
8780,-3.8690,0.2087,-1.8705,1289.31,-1640.62,-738.10
8790,-3.8687,0.3510,-1.7815,-1273.19,578.49,1449.46
8800,-3.8687,0.4651,-1.6263,929.93,-30.58,1121.46
8810,-3.8689,0.5837,-1.4407,-460.69,-171.02,-81.36
8820,-3.8690,0.7131,-1.2760,-1273.19,-405.15,-627.87
8830,-3.8690,0.8311,-1.1606,-710.69,673.22,966.25
8840,-3.8691,0.9109,-1.0850,-1616.94,-560.91,-1080.44
8850,-3.8693,0.9500,-1.0244,601.81,1126.77,-892.76
8860,-3.8700,0.8965,-0.8077,101.81,-1701.29,-626.71
8870,-3.8701,0.8633,-0.7531,-1241.94,611.08,-1954.71
8880,-3.8704,0.8446,-0.6985,-1491.94,-388.98,-1.53
8890,-3.8705,0.8301,-0.6584,117.43,-1404.60,1264.22
8900,-3.8707,0.8090,-0.6382,-1741.94,-279.66,-1641.97
8910,-3.8708,0.7778,-0.6249,-445.07,-1685.97,342.47
8920,-3.8710,0.7399,-0.6086,-429.44,17.09,45.65
8930,-3.8711,0.6931,-0.5972,-1288.82,-1904.85,842.53
8940,-3.8712,0.6260,-0.6002,726.81,-436.16,-1626.22
8950,-3.8712,0.5414,-0.6160,133.06,-826.90,1483.15
8960,-3.8712,0.4691,-0.6388,1304.93,1157.29,-1360.60
8970,-3.8711,0.4287,-0.6633,54.93,-1764.71,748.72
8980,-3.8711,0.4065,-0.6782,-1116.94,-905.46,1936.16
8990,-3.8711,0.3793,-0.6801,39.31,1188.29,1576.78
9000,-3.8711,0.3367,-0.6832,554.93,953.86,248.66
9010,-3.8712,0.2864,-0.6938,-898.19,547.49,-1173.22
9020,-3.8712,0.2386,-0.7052,664.31,-811.95,1982.97
9030,-3.8712,0.1942,-0.7224,-1445.07,1734.80,-1829.53
9040,-3.8711,0.1467,-0.7677,867.43,-468.38,404.79
9050,-3.8710,0.0938,-0.8402,-1210.69,1734.62,217.22
9060,-3.8710,0.0399,-0.9136,8.06,453.31,-689.15
9070,-3.8708,-0.0210,-0.9890,1117.43,-937.44,357.54
9080,-3.8708,-0.0995,-1.0823,1320.56,1421.81,873.05
9090,-3.8708,-0.1936,-1.1910,-726.32,1484.13,-752.14
9100,-3.8705,-0.9858,-1.4822,-38.82,-1876.89,793.82
9110,-3.8707,-0.9943,-1.3956,1820.56,-1705.08,-1471.68
9120,-3.8710,-0.9961,-1.3154,742.43,1373.05,1966.00
9130,-3.8713,-1.0239,-1.2493,508.06,-361.33,-1830.75
9140,-3.8718,-1.0823,-1.1942,945.56,107.36,-49.32
9150,-3.8723,-1.1675,-1.1418,1476.81,-845.89,-80.51
9160,-3.8727,-1.2821,-1.0878,-1429.44,1857.06,310.24
9170,-3.8732,-1.4113,-1.0305,-101.32,778.69,-95.89
9180,-3.8734,-1.5227,-0.9592,-632.57,106.57,-1548.89
9190,-3.8737,-1.5962,-0.8624,1101.81,1231.38,-1720.64
9200,-3.8739,-1.6302,-0.7400,-304.44,1621.83,-1767.33
9210,-3.8741,-1.6384,-0.6025,-663.82,1293.64,1498.54
9220,-3.8744,-1.6464,-0.4634,-1710.69,-1112.61,201.90
9230,-3.8748,-1.6663,-0.3320,1273.68,699.89,-469.67
9240,-3.8749,-1.6863,-0.2100,-1273.19,1512.33,264.95
9250,-3.8439,-1.6914,-0.0955,164.31,1137.33,-1484.80
9260,-3.8440,-1.6755,0.0123,-491.94,-206.48,-1859.62
9270,-3.8441,-1.6368,0.1074,1539.31,1590.45,-671.88
9280,-3.8441,-1.5779,0.1816,-1507.57,1762.39,1937.68
9290,-3.8441,-1.5104,0.2362,-1960.69,-737.49,1031.56
9300,-3.8441,-1.4493,0.2703,-1320.07,-1752.99,203.55
9310,-3.8442,-1.3973,0.2833,-1507.57,-1393.49,-577.64
9320,-3.8442,-1.3461,0.2858,1148.68,278.50,-936.95
9330,-3.8442,-1.2954,0.2886,-288.82,591.06,-327.58
9340,-3.8441,-1.2563,0.2950,-1804.44,950.56,484.92
9350,-3.8441,-1.2374,0.3052,-804.44,1778.75,234.92
9360,-3.8442,-1.2408,0.3136,1617.43,-924.32,-1421.33
9370,-3.8442,-1.2627,0.3127,1179.93,153.81,375.61
9380,-3.8441,-1.4028,0.1024,508.06,-252.69,-687.19
9390,-3.8439,-1.4044,0.0245,445.56,1122.25,-1343.57
9400,-3.8749,-1.3767,-0.0430,242.43,-846.50,-1953.12
9410,-3.8746,-1.3511,-0.1067,-210.69,-1487.12,1109.25
9420,-3.8744,-1.3484,-0.1649,-929.44,-1643.31,218.51
9430,-3.8743,-1.3593,-0.2115,-585.69,-1096.44,-750.37
9440,-3.8740,-1.3730,-0.2483,-1976.32,934.81,1468.32
9450,-3.8739,-1.3895,-0.2886,258.06,231.69,-1844.24
9460,-3.8738,-1.4049,-0.3528,-1851.32,-924.62,1577.51
9470,-3.8737,-1.4160,-0.4485,179.93,-1143.37,1389.89
9480,-3.8735,-1.4244,-0.5542,-1241.94,-1393.43,-1469.67
9490,-3.8734,-1.4368,-0.6395,1679.93,1075.32,-938.60
9500,-3.8734,-1.4592,-0.6948,101.81,-1846.56,-110.66
9510,-3.8735,-1.4829,-0.7375,1226.81,-924.74,-63.90
9520,-3.8737,-1.4874,-0.8010,-1804.44,1606.45,889.16
9530,-3.8739,-1.4658,-0.9049,1617.43,1481.45,1967.16
9540,-3.8740,-1.4235,-1.0342,383.06,184.63,-1064.27
9550,-3.8739,-1.3538,-1.1545,1804.93,-362.18,1591.67
9560,-3.8737,-1.2412,-1.2452,-1273.19,231.69,372.74
9570,-3.8734,-1.0842,-1.3109,1133.06,622.56,1028.81
9580,-3.8732,-0.9047,-1.3700,1226.81,216.61,-1393.19
9590,-3.8728,-0.7357,-1.4355,211.18,654.48,341.06
9600,-3.8726,-0.5896,-1.5034,1836.18,264.16,1794.07
9610,-3.8723,-0.4564,-1.5537,539.31,-423.03,-674.87
9620,-3.8719,-0.3301,-1.5651,1586.18,1139.71,1153.20
9630,-3.8717,-0.2089,-1.5305,1758.06,-313.17,-768.74
9640,-3.8713,-0.0862,-1.4675,1273.68,108.95,-1987.37
9650,-3.8699,0.4609,-1.2959,1164.31,156.86,1091.19
9660,-3.8696,0.5648,-1.2888,-991.94,-1874.15,-690.06
9670,-3.8694,0.6135,-1.2671,304.93,-967.65,1325.56
9680,-3.8694,0.6125,-1.2188,-1460.69,1813.66,-830.63
9690,-3.8694,0.5944,-1.1520,-1585.69,1.16,-1252.38
9700,-3.8694,0.5896,-1.0869,86.18,548.03,1528.99
9710,-3.8694,0.6010,-1.0437,-523.19,876.10,1107.24
9720,-3.8694,0.6184,-1.0302,929.93,-1592.59,-908.33
9730,-3.8693,0.6334,-1.0347,-835.69,141.78,-1017.64
9740,-3.8691,0.6381,-1.0354,1086.18,-436.28,-1189.58
9750,-3.8690,0.6322,-1.0210,1679.93,-530.03,841.67
9760,-3.8691,0.6195,-0.9858,929.93,1313.72,-502.01
9770,-3.8693,0.6000,-0.9279,-695.07,1813.66,-1517.58
9780,-3.8695,0.5784,-0.8564,804.93,1235.53,-1533.08
9790,-3.8699,0.5601,-0.7837,-1960.69,-1623.90,-48.58
9800,-3.8701,0.5438,-0.7192,-304.44,-311.46,185.91
9810,-3.8705,0.5262,-0.6680,1617.43,-61.46,529.79
9820,-3.8708,0.5022,-0.6372,-632.57,-1499.02,-1751.34
9830,-3.8711,0.4651,-0.6327,289.31,-1561.52,-1126.28
9840,-3.8712,0.4169,-0.6418,-460.69,-983.52,-1579.41
9850,-3.8713,0.3647,-0.6455,1367.43,1844.54,-485.66
9860,-3.8713,0.3187,-0.6453,-1304.44,1375.67,1561.22
9870,-3.8713,0.2860,-0.6505,804.93,1406.86,201.84
9880,-3.8715,0.2607,-0.6581,617.43,734.92,-1813.78
