timestamp_ms,ax,ay,az,gx,gy,gz
0,-3.8741,-1.2701,-0.6580,-226.32,-1174.38,-1797.97
10,-3.8738,-1.2966,-0.7317,1429.93,-205.63,-1626.34
20,-3.8734,-1.3160,-0.7711,-1960.69,-1643.19,701.66
30,-3.8732,-1.3188,-0.7892,-445.07,1309.88,1248.47
40,-3.8730,-1.3168,-0.7863,-804.44,-1002.62,-1689.09
50,-3.8730,-1.3218,-0.7953,-538.82,-627.62,-892.21
60,-3.8730,-1.3295,-0.8521,-1179.44,-1783.87,1326.54
70,-3.8732,-1.3512,-0.9552,1836.18,-1049.50,-1.71
80,-3.8730,-1.4027,-1.0922,-945.07,1747.31,732.48
90,-3.8730,-1.4546,-1.2269,461.18,216.00,-1892.76
100,-3.8730,-1.4655,-1.3120,1820.56,-1034.12,-1268.07
110,-3.8730,-1.4304,-1.3525,429.93,75.26,-1361.94
120,-3.8730,-1.3661,-1.3824,914.31,-1112.18,903.56
130,-3.8732,-1.2856,-1.4299,1148.68,-940.19,887.88
140,-3.8733,-1.1964,-1.5162,-554.44,981.81,340.94
150,-3.8734,-1.1060,-1.6283,-1132.57,1935.12,1012.63
160,-3.8735,-1.0187,-1.7368,-1554.44,-408.45,-1003.23
170,-3.8735,-0.9263,-1.8402,1617.43,1701.11,-1784.67
180,-3.8734,-0.8151,-1.9570,1445.56,466.92,246.40
190,-3.8733,-0.6716,-2.0824,-320.07,1513.98,-347.60
200,-3.8728,-0.4977,-2.1880,-1960.69,1467.41,-1925.96
210,-3.8722,-0.3108,-2.2377,304.93,-47.85,1792.54
220,-3.8716,-0.1201,-2.2028,226.81,1593.14,-1316.89
230,-3.8710,0.0671,-2.0988,633.06,-1937.74,-1723.08
240,-3.8705,0.2432,-1.9708,601.81,-640.50,-1254.15
250,-3.8701,0.4073,-1.8486,-866.94,-265.20,1699.22
260,-3.8700,0.5430,-1.7411,148.68,-624.21,-1816.16
270,-3.8700,0.6262,-1.6509,1508.06,1141.66,1027.83
280,-3.8701,0.6672,-1.5634,164.31,688.72,59.27
290,-3.8702,0.7104,-1.4526,1414.31,-108.09,590.64
300,-3.8701,0.8008,-1.3275,-1054.44,-1936.16,1950.26
310,-3.8696,0.9569,-1.2148,-1491.94,-1920.35,-1315.12
320,-3.8689,1.1650,-1.1188,-1507.57,501.83,-814.88
330,-3.8680,1.3843,-1.0367,1133.06,799.13,-1361.57
340,-3.8672,1.5736,-0.9733,1195.56,-700.44,1372.92
350,-3.8665,1.7102,-0.9204,1429.93,-575.07,451.17
360,-3.8660,1.7839,-0.8688,-1085.69,-1809.20,-17.46
370,-3.8652,1.7942,-0.8319,351.81,800.35,529.54
380,-3.8645,1.7539,-0.8319,1664.31,1519.10,1310.85
390,-3.8638,1.6837,-0.8680,508.06,1519.04,-1032.90
400,-3.8632,1.5970,-0.9149,-476.32,893.86,-1111.08
410,-3.8629,1.4985,-0.9456,429.93,-1106.26,1841.92
420,-3.8633,1.3885,-0.9448,-179.44,-1028.38,-1423.77
430,-3.8641,1.2634,-0.9188,1742.43,-934.81,-1798.77
440,-3.8652,1.1234,-0.8984,1726.81,-1606.93,357.54
450,-3.8665,0.9746,-0.9067,-195.07,1002.14,-1923.65
460,-3.8674,0.8281,-0.9415,758.06,-60.61,1920.04
470,-3.8682,0.6967,-1.0076,-1991.94,-514.04,-1501.89
480,-3.8687,0.5786,-1.1230,1179.93,-967.41,-720.76
490,-3.8689,0.4680,-1.2933,-1929.44,251.10,-377.20
500,-3.8689,0.3673,-1.4819,-85.69,-1546.02,-1408.81
510,-3.8689,0.2683,-1.6035,-976.32,-1686.83,-549.80
520,-3.8690,0.1664,-1.5955,-1648.19,-1249.51,1965.58
530,-3.8695,0.0707,-1.4843,1304.93,-218.44,949.95
540,-3.8704,-0.0128,-1.3550,1054.93,-1984.25,-206.05
550,-3.8711,-0.0834,-1.2786,-1632.57,-1421.94,-377.69
560,-3.8715,-0.1376,-1.2776,1336.18,359.19,91.25
570,-3.8717,-0.1718,-1.3442,-1601.32,484.07,-486.88
580,-3.8716,-0.1791,-1.4532,-1976.32,-47.24,-18.31
590,-3.8712,-0.1482,-1.5624,1086.18,1999.63,1997.13
600,-3.8708,-0.0907,-1.6390,1039.31,30.94,1106.32
610,-3.8707,-0.0387,-1.6858,398.68,-1781.43,-315.73
620,-3.8707,-0.0225,-1.7351,-945.07,234.25,-1706.42
630,-3.8710,-0.0734,-1.8040,1133.06,1921.81,-1925.29
640,-3.8713,-0.1970,-1.8740,-1382.57,1109.19,-1737.92
650,-3.8717,-0.3615,-1.9233,-1210.69,140.20,590.09
660,-3.8722,-0.5278,-1.9413,1742.43,1827.39,1621.22
670,-3.8727,-0.6792,-1.9388,445.56,-469.79,-1066.35
680,-3.8730,-0.8230,-1.9401,1070.56,-157.59,1949.28
690,-3.8734,-0.9771,-1.9395,-1335.69,-314.15,-769.47
700,-3.8737,-1.1538,-1.9165,-1054.44,-236.33,-456.97
710,-3.8738,-1.3420,-1.8756,320.56,-1299.13,-456.91
720,-3.8738,-1.5048,-1.8390,226.81,-65.12,-456.85
730,-3.8737,-1.6234,-1.7975,-601.32,622.01,-612.98
740,-3.8734,-1.6989,-1.7113,211.18,1934.33,199.58
750,-3.8734,-1.7174,-1.5771,-1445.07,965.39,840.39
760,-3.8737,-1.6866,-1.4216,179.93,-1862.73,-1081.24
770,-3.8739,-1.6487,-1.2716,117.43,-1956.42,1715.94
780,-3.8741,-1.6519,-1.1598,976.81,1246.77,-1096.25
790,-3.8741,-1.7129,-1.0876,570.56,-440.73,560.18
800,-3.8741,-1.8069,-1.0226,758.06,793.52,1279.11
810,-3.8741,-1.8824,-0.9529,726.81,1121.46,-377.01
820,-3.8740,-1.9069,-0.8961,-945.07,-1956.85,-1595.64
830,-3.8739,-1.9071,-0.8658,-70.07,1308.72,873.23
840,-3.8739,-1.9390,-0.8391,-101.32,1183.72,1763.92
850,-3.8740,-2.0372,-0.7617,-179.44,605.53,-1579.77
860,-3.8744,-2.1833,-0.6088,-757.57,-1488.40,-126.53
870,-3.8750,-2.3407,-0.3805,539.31,-1910.52,-626.22
880,-3.8446,-2.4891,-0.0985,398.68,-692.08,1967.96
890,-3.8456,-2.5853,0.1698,1398.68,-598.63,1687.26
900,-3.8464,-2.5896,0.3545,1086.18,1744.93,-765.32
910,-3.8468,-2.5199,0.4198,539.31,1385.56,-1186.83
920,-3.8467,-2.4213,0.3591,1461.18,1745.06,-1296.08
930,-3.8462,-2.3185,0.1923,-1913.82,1979.61,-374.33
940,-3.8453,-2.1919,-0.0095,-757.57,620.42,78.49
950,-3.8446,-2.0222,-0.1550,-554.44,-1207.46,687.44
960,-3.8441,-1.8182,-0.2106,1164.31,167.91,999.69
970,-3.8440,-1.6019,-0.2057,-726.32,1058.90,1218.32
980,-3.8441,-1.4099,-0.1869,-1038.82,1684.33,-1953.55
990,-3.8442,-1.2864,-0.2051,-460.69,90.94,-1609.74
1000,-3.8442,-1.2368,-0.2836,-648.19,1763.06,1624.57
1010,-3.8441,-1.2207,-0.3986,1695.56,-283.69,1093.14
1020,-3.8439,-1.2205,-0.5125,-241.94,997.56,1936.71
1030,-3.8748,-1.2452,-0.6198,-210.69,-1580.57,-969.79
1040,-3.8743,-1.2842,-0.7330,617.43,685.06,467.53
1050,-3.8739,-1.2944,-0.8351,-366.94,-1815.06,936.04
1060,-3.8735,-1.2513,-0.9098,-1679.44,1122.44,1092.10
1070,-3.8732,-1.1908,-0.9637,-163.82,-440.00,1013.79
1080,-3.8729,-1.1482,-0.9985,-413.82,653.87,-595.64
1090,-3.8727,-1.1202,-1.0121,1039.31,200.87,1466.80
1100,-3.8727,-1.0927,-1.0012,617.43,-1533.45,-1908.26
1110,-3.8728,-1.0498,-0.9817,148.68,-142.76,-705.14
1120,-3.8728,-0.9739,-0.9890,1633.06,-1642.70,263.67
1130,-3.8728,-0.8704,-1.0278,-648.19,1419.92,263.67
1140,-3.8727,-0.7869,-1.0675,601.81,451.42,1013.61
1150,-3.8724,-0.7651,-1.1018,-710.69,-626.59,685.36
1160,-3.8723,-0.7930,-1.1461,-1929.44,-1017.15,-799.07
1170,-3.8722,-0.8313,-1.1967,-1491.94,1310.91,-1752.26
1180,-3.8722,-0.8575,-1.2622,1601.81,-1157.90,-752.38
1190,-3.8721,-0.8661,-1.3621,-1757.57,-1548.58,1747.50
1200,-3.8719,-0.8457,-1.4791,1148.68,1670.17,-783.94
1210,-3.8717,-0.7808,-1.5669,-241.94,-1314.21,1122.07
1220,-3.8716,-0.6772,-1.6085,70.56,-548.40,418.76
1230,-3.8717,-0.5598,-1.6196,1320.56,-1876.34,-768.80
1240,-3.8718,-0.4446,-1.6096,351.81,702.03,1653.08
1250,-3.8721,-0.3312,-1.5804,-898.19,1983.46,-1753.17
1260,-3.8723,-0.2095,-1.5435,1617.43,1718.08,-456.24
1270,-3.8724,-0.0626,-1.5114,1195.56,-1547.30,-1706.18
1280,-3.8724,0.1202,-1.4902,-7.57,-1437.68,606.38
1290,-3.8723,0.3303,-1.4888,-601.32,1250.18,903.32
1300,-3.8721,0.5405,-1.4998,-1710.69,1438.11,387.70
1310,-3.8719,0.7170,-1.5060,1195.56,32.29,-1940.43
1320,-3.8718,0.8389,-1.5070,-210.69,-764.28,1512.63
1330,-3.8717,0.9093,-1.4933,-616.94,-889.04,1403.26
1340,-3.8716,0.9391,-1.4316,398.68,861.15,293.95
1350,-3.8717,0.9303,-1.3094,211.18,751.83,-1002.81
1360,-3.8718,0.8877,-1.1631,-913.82,392.40,1653.69
1370,-3.8721,0.8403,-1.0372,1633.06,-873.29,-971.07
1380,-3.8722,0.8438,-0.9519,-429.44,-764.04,1951.05
1390,-3.8722,0.9429,-0.9099,8.06,-1842.10,76.23
1400,-3.8722,1.1312,-0.8912,695.56,-466.92,-1251.83
1410,-3.8719,1.3499,-0.8618,804.93,1924.07,-204.90
1420,-3.8715,1.5330,-0.8044,789.31,1690.12,-173.58
1430,-3.8708,1.6586,-0.7222,226.81,1034.24,-532.84
1440,-3.8702,1.7330,-0.6428,304.93,-434.27,404.79
1450,-3.8699,1.7689,-0.6044,1836.18,1722.11,420.59
1460,-3.8696,1.7908,-0.6008,-1570.07,-1355.96,-1860.60
1470,-3.8694,1.8038,-0.5842,1226.81,-902.77,1108.15
1480,-3.8694,1.7942,-0.5363,-1101.32,1222.23,-954.28
1490,-3.8694,1.7721,-0.4855,1664.31,-637.15,1295.78
1500,-3.8695,1.7518,-0.4642,-1163.82,1862.79,-204.10
1510,-3.8695,1.7231,-0.4746,242.43,581.54,-63.42
1520,-3.8695,1.6782,-0.5029,570.56,-746.64,-719.73
1530,-3.8696,1.6215,-0.5428,-1179.44,-371.77,-313.54
1540,-3.8698,1.5468,-0.5861,-445.07,-1481.26,905.15
1550,-3.8701,1.4445,-0.6230,1992.43,987.37,-766.78
1560,-3.8705,1.3207,-0.6479,898.68,252.81,-1094.97
1570,-3.8708,1.1971,-0.6722,1054.93,1065.06,1264.34
1580,-3.8712,1.0978,-0.7152,1242.43,1955.44,1279.91
1590,-3.8715,1.0359,-0.7828,523.68,455.26,1154.85
1600,-3.8716,1.0021,-0.8654,601.81,-201.11,701.54
1610,-3.8717,0.9713,-0.9436,273.68,1236.33,-1329.83
1620,-3.8717,0.9181,-1.0052,336.18,-779.36,1841.86
1630,-3.8717,0.8430,-1.0515,1523.68,-670.10,982.36
1640,-3.8718,0.7725,-1.0907,-85.69,1407.84,-767.70
1650,-3.8718,0.7161,-1.1288,-1116.94,392.09,357.24
1660,-3.8719,0.6587,-1.1703,-335.69,-483.03,638.37
1670,-3.8721,0.5996,-1.2212,320.56,-1795.59,1138.31
1680,-3.8722,0.5619,-1.2766,758.06,-311.34,-1346.19
1690,-3.8722,0.5474,-1.3267,-70.07,594.79,606.87
1700,-3.8723,0.5311,-1.3705,-1929.44,-1811.46,-1080.75
1710,-3.8723,0.4946,-1.4102,-7.57,579.10,-1908.94
1720,-3.8723,0.4290,-1.4647,-679.44,-499.08,-1534.06
1730,-3.8722,0.3459,-1.5548,-1085.69,516.42,1747.13
1740,-3.8721,0.2573,-1.6483,289.31,985.05,-1518.68
1750,-3.8719,0.1560,-1.6891,945.56,1016.11,403.02
1760,-3.8721,0.0619,-1.6803,-23.19,-202.88,-1159.61
1770,-3.8721,0.0137,-1.6779,-70.07,921.94,184.20
1780,-3.8721,0.0070,-1.7139,1758.06,1234.38,434.20
1790,-3.8719,0.0104,-1.7872,898.68,625.00,1981.02
1800,-3.8717,0.0148,-1.8905,1336.18,-765.62,1683.96
1810,-3.8716,0.0133,-1.9950,1898.68,-1984.38,-316.22
1820,-3.8715,-0.0298,-2.0649,1711.18,640.62,-1347.66
1830,-3.8716,-0.1473,-2.0687,195.56,-296.94,-1129.09
1840,-3.8721,-0.3323,-1.9818,1148.68,-781.56,-1004.09
1850,-3.8729,-0.5742,-1.8337,1476.81,-1656.92,-1332.03
1860,-3.8739,-0.8756,-1.6777,-1491.94,1295.72,308.90
1870,-3.8749,-1.2020,-1.5265,-70.07,1263.85,1762.33
1880,-3.8442,-1.4968,-1.3746,-1851.32,622.62,-1643.62
1890,-3.8445,-1.7216,-1.2537,414.31,59.57,-877.69
1900,-3.8444,-1.8621,-1.1881,-351.32,-456.54,466.25
1910,-3.8442,-1.9325,-1.1552,1664.31,-66.16,-611.76
1920,-3.8439,-1.9836,-1.1267,648.68,152.47,1372.74
1930,-3.8749,-2.0709,-1.0876,-1898.19,-207.03,1028.99
1940,-3.8749,-2.1851,-1.0170,-1070.07,792.79,-720.89
1950,-3.8749,-2.2789,-0.8893,320.56,1839.48,-1767.64
1960,-3.8750,-2.3339,-0.7037,304.93,-1816.96,-204.90
1970,-3.8750,-2.3485,-0.5094,1273.68,1932.92,1154.85
1980,-3.8750,-2.3218,-0.3672,-601.32,-1192.14,467.71
1990,-3.8750,-2.2847,-0.2689,-1179.44,1011.05,702.39
2000,-3.8439,-2.2826,-0.1746,-429.44,1589.23,1483.83
2010,-3.8442,-2.3154,-0.0731,-163.82,1667.36,-0.37
2020,-3.8446,-2.3434,0.0194,-366.94,-1348.33,-1625.18
2030,-3.8450,-2.3379,0.0752,54.93,-1504.58,1937.50
2040,-3.8452,-2.3093,0.0638,758.06,1636.05,-343.63
2050,-3.8451,-2.2787,-0.0162,414.31,182.98,-1624.88
2060,-3.8448,-2.2495,-0.1191,336.18,1933.04,-468.81
2070,-3.8445,-2.1993,-0.2147,70.56,761.23,312.26
2080,-3.8444,-2.0985,-0.2985,-1507.57,526.92,483.95
2090,-3.8444,-1.9583,-0.3629,-601.32,1808.35,843.14
2100,-3.8445,-1.8136,-0.3956,1351.81,1558.65,-360.11
2110,-3.8445,-1.6798,-0.3879,-132.57,1371.40,1436.71
2120,-3.8446,-1.5609,-0.3572,992.43,-1643.92,1889.83
2130,-3.8447,-1.4559,-0.3375,211.18,-1706.18,-1781.98
2140,-3.8447,-1.3535,-0.3621,1648.68,809.63,702.45
2150,-3.8447,-1.2527,-0.4437,-1241.94,1669.19,-1860.11
2160,-3.8446,-1.1775,-0.5663,-335.69,-783.75,-1297.79
2170,-3.8444,-1.1477,-0.7032,1289.31,-471.07,-751.16
2180,-3.8440,-1.1564,-0.8265,1101.81,1997.74,-1188.90
2190,-3.8749,-1.1809,-0.9235,-7.57,-1783.57,-1376.65
2200,-3.8745,-1.1888,-1.0111,851.81,1810.18,-1548.71
2210,-3.8741,-1.1415,-1.1021,-163.82,-1408.63,-298.89
2220,-3.8737,-1.0308,-1.1851,1898.68,-1049.13,435.30
2230,-3.8734,-0.8971,-1.2375,70.56,326.11,919.56
2240,-3.8733,-0.7965,-1.2427,1179.93,1607.60,1513.18
2250,-3.8732,-0.7487,-1.2209,-1945.07,951.54,903.81
2260,-3.8732,-0.7258,-1.2041,179.93,-267.09,-1502.44
2270,-3.8732,-0.6982,-1.1891,-898.19,1889.16,778.87
2280,-3.8733,-0.6672,-1.1671,-1366.94,-188.90,1997.62
2290,-3.8733,-0.6388,-1.1538,-1398.19,-1376.34,888.31
2300,-3.8733,-0.6029,-1.1650,-1757.57,326.84,1138.37
2310,-3.8733,-0.5612,-1.1957,-1163.82,-1110.60,1544.56
2320,-3.8733,-0.5297,-1.2357,179.93,-1032.35,-1893.01
2330,-3.8732,-0.5245,-1.3031,211.18,1842.71,310.06
2340,-3.8730,-0.5432,-1.4200,867.43,1217.71,388.06
2350,-3.8729,-0.5565,-1.5626,-1523.19,-1751.10,122.19
2360,-3.8729,-0.5352,-1.6824,773.68,-1.10,-1940.61
2370,-3.8729,-0.4629,-1.7505,-491.94,670.78,-1362.67
2380,-3.8729,-0.3330,-1.7645,758.06,-47.79,-1144.10
2390,-3.8729,-0.1492,-1.7367,1383.06,-1844.42,-81.60
2400,-3.8728,0.0668,-1.6910,914.31,1718.44,-659.67
2410,-3.8726,0.2874,-1.6498,554.93,-453.00,1543.52
2420,-3.8723,0.4967,-1.6124,789.31,828.67,1106.14
2430,-3.8722,0.6960,-1.5702,-413.82,1610.29,-112.55
2440,-3.8721,0.8837,-1.5110,1101.81,-983.03,-956.24
2450,-3.8721,1.0392,-1.4327,1117.43,-1404.54,-1987.37
2460,-3.8721,1.1404,-1.3615,1023.68,611.39,122.19
2470,-3.8721,1.1886,-1.3196,1976.81,1736.57,1200.44
2480,-3.8719,1.2018,-1.3116,148.68,-903.93,-549.50
2490,-3.8716,1.1918,-1.3289,1836.18,111.69,1450.56
2500,-3.8713,1.1703,-1.3464,554.93,1908.57,-596.37
2510,-3.8710,1.1567,-1.3595,1804.93,-341.49,716.06
2520,-3.8707,1.1533,-1.3875,70.56,1986.63,-987.06
2530,-3.8704,1.1488,-1.4246,-366.94,-1591.55,-1362.12
2540,-3.8700,1.1403,-1.4333,-945.07,1658.45,-1987.18
2550,-3.8698,1.1338,-1.3864,1961.18,533.45,1653.44
2560,-3.8698,1.1403,-1.2838,1133.06,-1450.93,-674.62
2570,-3.8698,1.1616,-1.1530,1961.18,-325.93,872.44
2580,-3.8699,1.1997,-1.0272,695.56,424.13,-1752.26
2590,-3.8699,1.2500,-0.9327,1570.56,517.94,-1392.64
2600,-3.8698,1.2904,-0.8766,8.06,611.82,982.54
2610,-3.8698,1.2980,-0.8461,1179.93,-200.62,998.23
2620,-3.8700,1.2648,-0.8232,-1851.32,-294.37,-767.33
2630,-3.8702,1.1947,-0.7952,1898.68,-1372.56,60.85
2640,-3.8707,1.1052,-0.7631,929.93,-1778.93,-454.71
2650,-3.8710,1.0239,-0.7394,1476.81,-1669.74,1107.85
2660,-3.8712,0.9664,-0.7278,-929.44,1361.33,1514.16
2670,-3.8713,0.9268,-0.7207,-288.82,-1154.42,279.79
2680,-3.8715,0.8929,-0.7177,-1366.94,-248.23,326.66
2690,-3.8716,0.8621,-0.7180,-1695.07,142.33,248.60
2700,-3.8718,0.8342,-0.7142,-1648.19,95.40,-657.65
2710,-3.8719,0.8103,-0.7106,-1210.69,579.71,-1595.15
2720,-3.8721,0.7979,-0.7260,-273.19,1048.40,-282.65
2730,-3.8719,0.8005,-0.7809,-1866.94,-920.35,514.16
2740,-3.8719,0.8047,-0.8680,-1523.19,48.40,-142.15
2750,-3.8717,0.8054,-0.9662,-991.94,892.15,60.79
2760,-3.8717,0.8130,-1.0603,-898.19,329.65,-1111.27
2770,-3.8717,0.8093,-1.1246,70.56,282.84,-1142.70
2780,-3.8717,0.7671,-1.1453,-398.19,48.40,310.30
2790,-3.8718,0.6926,-1.1443,-1804.44,1407.71,310.24
2800,-3.8721,0.5917,-1.1499,664.31,1532.59,-736.63
2810,-3.8722,0.4805,-1.1666,-257.57,813.60,1857.12
2820,-3.8723,0.4022,-1.2006,1508.06,-1327.21,1935.18
2830,-3.8723,0.3770,-1.2656,-507.57,-1671.14,403.87
2840,-3.8723,0.3833,-1.3638,258.06,-1999.27,528.75
2850,-3.8723,0.3810,-1.4784,1070.56,1438.23,450.44
2860,-3.8724,0.3390,-1.5781,773.68,-1233.64,-1331.05
2870,-3.8726,0.2479,-1.6437,-601.32,-1999.39,-1096.86
2880,-3.8727,0.1228,-1.6873,-257.57,1609.80,1559.27
2890,-3.8729,-0.0099,-1.7461,-273.19,31.43,-97.05
2900,-3.8730,-0.1459,-1.8344,-1257.57,515.56,-1097.17
2910,-3.8732,-0.3096,-1.9169,1336.18,1218.44,-1144.23
2920,-3.8733,-0.5183,-1.9492,383.06,-1344.36,-1081.91
2930,-3.8734,-0.7534,-1.9158,1664.31,-1485.41,918.03
2940,-3.8738,-0.9762,-1.8219,-429.44,-1204.65,-253.78
2950,-3.8740,-1.1592,-1.6953,-945.07,-1189.45,1012.02
2960,-3.8744,-1.2860,-1.5841,-366.94,-986.69,-1753.36
2970,-3.8746,-1.3446,-1.5192,-601.32,1247.44,918.76
2980,-3.8748,-1.3438,-1.5007,-101.32,1559.81,168.88
2990,-3.8748,-1.3275,-1.5044,8.06,-80.75,168.88
3000,-3.8748,-1.3564,-1.4816,-1913.82,-549.50,1762.63
3010,-3.8748,-1.4607,-1.3912,-1616.94,-1627.69,1825.20
3020,-3.8749,-1.6160,-1.2379,1039.31,1934.63,1856.63
3030,-3.8439,-1.7656,-1.0682,1164.31,1559.33,-924.32
3040,-3.8440,-1.8630,-0.9324,-1991.94,-722.23,950.99
3050,-3.8441,-1.9076,-0.8464,1539.31,668.21,904.42
3060,-3.8441,-1.9397,-0.7916,-163.82,-331.91,138.92
3070,-3.8441,-2.0033,-0.7411,-273.19,-1316.35,-1985.96
3080,-3.8441,-2.1049,-0.6721,-413.82,1152.28,-688.96
3090,-3.8441,-2.2136,-0.5702,-1413.82,1980.22,1123.66
3100,-3.8444,-2.2938,-0.4469,664.31,-973.08,-548.03
3110,-3.8445,-2.3284,-0.3286,-1601.32,-1192.02,499.08
3120,-3.8447,-2.3251,-0.2361,1976.81,1948.55,-1703.80
3130,-3.8448,-2.2935,-0.1887,-1601.32,1792.30,1483.89
3140,-3.8450,-2.2275,-0.1985,-1554.44,-145.14,687.07
3150,-3.8452,-2.1338,-0.2451,-1116.94,-1395.02,-984.80
3160,-3.8453,-2.0519,-0.2756,-1116.94,636.41,1968.26
3170,-3.8455,-2.0148,-0.2594,1367.43,730.35,-797.42
3180,-3.8455,-2.0126,-0.2251,-1882.57,-1191.47,-1922.42
3190,-3.8455,-2.0156,-0.2279,-1601.32,-800.84,1515.14
3200,-3.8455,-1.9895,-0.2887,-1991.94,-1160.22,-906.74
3210,-3.8452,-1.8987,-0.3831,1351.81,-941.41,468.14
3220,-3.8450,-1.7435,-0.4800,976.81,-1019.35,405.46
3230,-3.8447,-1.5596,-0.5513,836.18,-1425.29,233.40
3240,-3.8446,-1.3890,-0.5731,383.06,1450.07,1639.53
3250,-3.8446,-1.2589,-0.5448,-1788.82,-1346.50,-235.53
3260,-3.8445,-1.1777,-0.4990,-1132.57,-1721.25,358.28
3270,-3.8445,-1.1378,-0.4667,1258.06,138.31,-1532.23
3280,-3.8444,-1.1080,-0.4547,-1632.57,278.99,-1407.17
3290,-3.8442,-1.0580,-0.4784,-1820.07,1810.30,-266.54
3300,-3.8440,-0.9945,-0.5465,586.18,-1220.83,-1891.60
3310,-3.8750,-0.9387,-0.6401,711.18,-1939.45,-407.35
3320,-3.8745,-0.9048,-0.7330,-148.19,-1923.77,1045.59
3330,-3.8741,-0.9137,-0.8116,195.56,-1814.27,-438.96
3340,-3.8738,-0.9659,-0.8937,-945.07,123.17,-1204.71
3350,-3.8735,-1.0259,-1.0005,367.43,1623.11,-1283.02
3360,-3.8733,-1.0583,-1.1112,695.56,-48.89,-1392.64
3370,-3.8730,-1.0519,-1.1930,539.31,1779.17,1794.68
3380,-3.8729,-1.0249,-1.2544,1367.43,-689.58,1028.87
3390,-3.8729,-1.0002,-1.3221,820.56,-548.89,278.75
3400,-3.8730,-0.9691,-1.3909,-23.19,-1220.76,-1815.12
3410,-3.8730,-0.9160,-1.4363,-38.82,1982.42,1091.00
3420,-3.8730,-0.8386,-1.4410,-1241.94,170.04,1934.69
3430,-3.8729,-0.7200,-1.4349,664.31,-439.15,1684.63
3440,-3.8727,-0.5487,-1.4696,-148.19,342.29,1153.44
3450,-3.8724,-0.3541,-1.5410,1773.68,-94.85,-1268.55
3460,-3.8722,-0.1780,-1.6108,-1320.07,-1235.11,-159.30
3470,-3.8719,-0.0599,-1.6663,1226.81,1827.76,-565.67
3480,-3.8717,-0.0028,-1.7061,336.18,-1265.75,-425.17
3490,-3.8712,0.0406,-1.7183,-351.32,1640.56,949.77
3500,-3.8707,0.0907,-1.6768,1211.18,62.56,996.64
3510,-3.8704,0.1571,-1.5612,-382.57,1375.12,496.70
3520,-3.8701,0.2727,-1.4293,117.43,172.18,887.57
3530,-3.8699,0.4271,-1.3499,-1085.69,1047.36,1512.82
3540,-3.8696,0.5570,-1.3151,-1320.07,-780.46,825.44
3550,-3.8695,0.6304,-1.2703,-695.07,-327.09,575.50
3560,-3.8696,0.6593,-1.1906,695.56,1407.47,-190.00
3570,-3.8698,0.6508,-1.0876,398.68,-389.34,1981.99
3580,-3.8700,0.6257,-0.9780,-695.07,782.47,872.86
3590,-3.8702,0.6196,-0.8945,101.81,-1186.28,1310.55
3600,-3.8704,0.6586,-0.8529,-679.44,1501.16,-111.15
3610,-3.8701,0.7427,-0.8350,304.93,-1170.59,-1439.21
3620,-3.8698,0.8575,-0.8153,-929.44,1126.40,-954.77
3630,-3.8693,0.9823,-0.7878,1773.68,-357.73,888.98
3640,-3.8689,1.0697,-0.7642,1742.43,-841.86,1951.54
3650,-3.8685,1.0951,-0.7422,929.93,-1810.42,-1017.15
3660,-3.8682,1.0942,-0.7098,179.93,1002.14,-626.46
3670,-3.8678,1.1077,-0.6705,70.56,1142.76,467.35
3680,-3.8677,1.1334,-0.6317,1789.31,-1825.99,92.41
3690,-3.8678,1.1484,-0.5940,1086.18,-857.18,1951.84
3700,-3.8680,1.1414,-0.5602,-991.94,-29.05,-391.85
3710,-3.8683,1.1171,-0.5372,-1898.19,299.07,-1547.97
3720,-3.8687,1.0919,-0.5414,-1007.57,-763.49,-766.72
3730,-3.8698,1.0560,-0.7422,-288.82,-279.17,-1454.47
3740,-3.8700,0.9681,-0.7914,-820.07,1002.01,-392.09
3750,-3.8702,0.8569,-0.7859,-70.07,-1295.04,-564.09
3760,-3.8705,0.7509,-0.7572,1695.56,-592.10,1076.54
3770,-3.8708,0.6674,-0.7538,117.43,-920.41,-1204.65
3780,-3.8711,0.6207,-0.7982,1429.93,-483.09,-1064.03
3790,-3.8712,0.6097,-0.8861,-538.82,1829.28,-1095.34
3800,-3.8711,0.6151,-0.9961,-1945.07,-1420.72,76.35
3810,-3.8710,0.6058,-1.0825,-1257.57,501.16,1029.30
3820,-3.8708,0.5638,-1.1107,1554.93,1438.66,450.99
3830,-3.8708,0.4951,-1.0957,179.93,1829.22,13.43
3840,-3.8710,0.4009,-1.0728,-616.94,-249.08,1919.68
3850,-3.8710,0.2993,-1.0743,-679.44,-1311.77,419.74
3860,-3.8710,0.2439,-1.1423,-1679.44,-1515.08,888.49
3870,-3.8708,0.2545,-1.2836,-773.19,1781.68,185.24
3880,-3.8707,0.2892,-1.4432,586.18,-296.39,1544.31
3890,-3.8706,0.2897,-1.5640,1023.68,-733.83,-1924.74
3900,-3.8706,0.2189,-1.6366,1086.18,-186.95,-1565.61
3910,-3.8707,0.0852,-1.6714,23.68,-1483.95,-1956.36
3920,-3.8710,-0.0583,-1.6805,-1085.69,-1937.38,-909.55
3930,-3.8712,-0.1615,-1.6985,539.31,906.13,-1018.92
3940,-3.8715,-0.2118,-1.7594,-663.82,-1390.99,-1159.61
3950,-3.8716,-0.2356,-1.8644,898.68,-1187.93,371.52
3960,-3.8718,-0.2902,-1.9598,1851.81,1374.51,-1269.29
3970,-3.8721,-0.4154,-1.9911,-1132.57,1155.64,-988.22
3980,-3.8724,-0.5854,-1.9547,-1163.82,1155.40,-972.66
3990,-3.8729,-0.7406,-1.8712,1070.56,1811.34,-691.35
4000,-3.8734,-0.8632,-1.7632,1211.18,498.54,-1738.04
4010,-3.8739,-0.9850,-1.6521,1523.68,-1673.58,1871.52
4020,-3.8743,-1.1199,-1.5762,1929.93,544.92,684.27
4030,-3.8745,-1.2494,-1.5640,664.31,-1736.57,1590.64
4040,-3.8745,-1.3629,-1.5696,86.18,-174.32,1778.14
4050,-3.8744,-1.4818,-1.5126,1554.93,-893.31,-628.11
4060,-3.8741,-1.6158,-1.3663,-1663.82,-1596.68,1043.88
4070,-3.8741,-1.7268,-1.1721,1179.93,1121.83,1216.06
4080,-3.8744,-1.7782,-0.9977,-1023.19,1980.96,1997.68
4090,-3.8748,-1.7710,-0.8721,398.68,309.02,1716.80
4100,-3.8439,-1.7504,-0.7679,1320.56,387.15,1232.67
4110,-3.8441,-1.7737,-0.6545,-38.82,1715.27,232.85
4120,-3.8444,-1.8582,-0.5370,976.81,230.90,-891.91
4130,-3.8445,-1.9791,-0.4287,-1835.69,-722.41,-1001.10
4140,-3.8446,-2.0952,-0.3230,-1320.07,1136.72,592.90
4150,-3.8450,-2.1801,-0.2074,-179.44,-1332.28,-297.55
4160,-3.8452,-2.2412,-0.1019,961.18,1464.48,-1281.68
4170,-3.8453,-2.2903,-0.0476,1133.06,-1035.64,702.88
4180,-3.8455,-2.3073,-0.0629,-1148.19,1917.36,-656.37
4190,-3.8455,-2.2666,-0.1217,679.93,-35.77,-93.93
4200,-3.8455,-2.1891,-0.1704,1883.06,433.04,-859.62
4210,-3.8455,-2.1211,-0.1984,-195.07,-1801.21,1968.38
4220,-3.8455,-2.0814,-0.2328,508.06,-1379.15,-1062.93
4230,-3.8453,-2.0725,-0.2700,1586.18,-1785.34,-422.36
4240,-3.8451,-2.0928,-0.2944,-1273.19,1449.04,-391.17
4250,-3.8447,-2.1066,-0.3342,133.06,-1675.96,202.51
4260,-3.8446,-2.0861,-0.4358,-1632.57,1230.22,-797.55
4270,-3.8444,-2.0509,-0.6069,992.43,230.29,-1141.48
4280,-3.8440,-2.0160,-0.8091,1492.43,-1675.90,1045.65
4290,-3.8750,-1.9766,-0.9828,1961.18,449.16,-1282.84
4300,-3.8748,-1.9308,-1.1082,-991.94,-1785.16,1107.42
4310,-3.8746,-1.8735,-1.2097,867.43,-1831.91,841.55
4320,-3.8746,-1.7903,-1.2856,195.56,1168.21,-627.38
4330,-3.8745,-1.6726,-1.3129,-1148.19,-550.42,919.31
4340,-3.8745,-1.5302,-1.3132,1914.31,-34.55,1028.63
4350,-3.8746,-1.3804,-1.3284,148.68,-81.12,-377.62
4360,-3.8746,-1.2350,-1.3682,-679.44,1981.63,1575.50
4370,-3.8746,-1.0981,-1.4347,1929.93,888.18,1684.81
4380,-3.8745,-0.9690,-1.5433,-554.44,372.80,-565.31
4390,-3.8741,-0.8376,-1.6758,-23.19,-1533.20,-987.43
4400,-3.8737,-0.6929,-1.7617,789.31,1513.98,231.08
4410,-3.8734,-0.5405,-1.7521,-679.44,-1485.78,-1159.73
4420,-3.8732,-0.3937,-1.6682,-1179.44,-251.10,1996.52
4430,-3.8730,-0.2561,-1.5559,1617.43,-1516.42,-1800.17
4440,-3.8729,-0.1211,-1.4431,-773.19,858.83,293.82
4450,-3.8729,0.0029,-1.3459,508.06,-703.37,1747.13
4460,-3.8729,0.1006,-1.2583,383.06,-281.25,-49.56
4470,-3.8727,0.1908,-1.1644,883.06,-1062.32,1075.62
4480,-3.8724,0.2966,-1.0767,429.93,-1046.51,-1392.94
4490,-3.8721,0.4019,-1.0299,1976.81,-1811.95,-1720.89
4500,-3.8718,0.4727,-1.0260,-554.44,172.61,-1580.14
4510,-3.8717,0.4935,-1.0455,508.06,672.79,466.74
4520,-3.8718,0.4673,-1.0826,-820.07,-1827.21,-377.08
4530,-3.8718,0.4017,-1.1021,-179.44,1422.73,1013.49
4540,-3.8721,0.3302,-1.0592,-570.07,-1061.77,-736.57
4550,-3.8722,0.2981,-0.9673,-1726.32,422.49,841.67
4560,-3.8723,0.3192,-0.9041,-1835.69,188.05,-1064.39
4570,-3.8722,0.3765,-0.9185,867.43,281.86,-611.15
4580,-3.8718,0.4427,-0.9767,195.56,-1561.77,920.04
4590,-3.8715,0.4913,-1.0537,679.93,-1014.77,576.17
4600,-3.8712,0.5204,-1.1359,-1101.32,1125.92,-220.83
4610,-3.8708,0.5389,-1.1880,-1382.57,-1389.65,-627.26
4620,-3.8705,0.5415,-1.1868,992.43,-61.46,-408.63
4630,-3.8700,0.5312,-1.1572,1320.56,94.79,1935.18
4640,-3.8694,0.5350,-1.1412,8.06,-123.96,403.93
4650,-3.8688,0.5737,-1.1182,492.43,1922.91,13.37
4660,-3.8683,0.6414,-1.0396,1445.56,876.10,1341.55
4670,-3.8678,0.7292,-0.9055,-1898.19,-1061.28,904.17
4680,-3.8673,0.8411,-0.7788,1351.81,95.15,1498.23
4690,-3.8667,0.9873,-0.7288,-335.69,314.09,904.72
4700,-3.8661,1.1218,-0.7731,-1616.94,-1279.36,1748.54
4710,-3.8656,1.1746,-0.8459,-398.19,1049.01,1732.85
4720,-3.8655,1.1263,-0.8594,-1648.19,-278.99,-1642.33
4730,-3.8657,1.0110,-0.8066,179.93,-1997.80,1467.04
4740,-3.8663,0.9061,-0.7423,1414.31,751.95,1185.91
4750,-3.8671,0.8715,-0.7196,-7.57,986.08,154.79
4760,-3.8678,0.8927,-0.7487,-445.07,-107.73,1045.41
4770,-3.8684,0.9081,-0.7897,-1726.32,173.58,-1532.71
4780,-3.8689,0.8788,-0.8058,242.43,-1076.35,-1954.71
4790,-3.8694,0.8062,-0.8079,492.43,861.08,482.79
4800,-3.8700,0.7129,-0.8258,-804.44,595.28,1998.41
4810,-3.8705,0.6182,-0.8663,-741.94,-1701.78,1217.10
4820,-3.8710,0.5311,-0.9108,-866.94,1110.53,-220.46
4830,-3.8712,0.4597,-0.9471,-7.57,-577.15,873.17
4840,-3.8716,0.4111,-0.9863,-1148.19,-1233.52,-220.64
4850,-3.8717,0.3807,-1.0286,633.06,1750.79,1107.42
4860,-3.8718,0.3469,-1.0493,742.43,344.48,497.99
4870,-3.8721,0.2975,-1.0402,414.31,1688.17,-64.58
4880,-3.8722,0.2391,-1.0315,-1913.82,-1140.08,-1439.58
4890,-3.8723,0.1776,-1.0551,-1382.57,-30.82,-1720.83
4900,-3.8723,0.1162,-1.1028,-1257.57,953.43,1310.42
4910,-3.8723,0.0657,-1.1346,-1116.94,-1156.07,-1158.45
4920,-3.8723,0.0394,-1.1377,414.31,-1234.25,-330.38
4930,-3.8723,0.0510,-1.1477,1054.93,-1624.94,-1439.76
4940,-3.8723,0.0867,-1.1830,-1460.69,1093.81,1950.87
4950,-3.8722,0.1006,-1.2222,-898.19,578.25,544.56
4960,-3.8721,0.0767,-1.2495,883.06,-437.32,1669.43
4970,-3.8719,0.0386,-1.2717,1820.56,62.62,-1408.69
4980,-3.8718,0.0007,-1.3003,945.56,1218.81,-830.63
4990,-3.8716,-0.0319,-1.3376,101.81,1562.50,1138.06
5000,-3.8713,-0.0514,-1.3722,-70.07,796.75,544.25
5010,-3.8712,-0.0675,-1.3867,1429.93,374.88,-1049.56
5020,-3.8711,-0.1111,-1.3804,-632.57,-1484.56,1294.13
5030,-3.8712,-0.2076,-1.3657,1789.31,-672.12,1528.50
5040,-3.8716,-0.3566,-1.3389,1429.93,1202.70,-518.31
5050,-3.8719,-0.5398,-1.3020,-1632.57,639.89,1356.75
5060,-3.8724,-0.7396,-1.2720,-1085.69,1358.28,1872.44
5070,-3.8729,-0.9443,-1.2491,1336.18,1201.66,-283.75
5080,-3.8732,-1.1407,-1.2351,-866.94,123.11,1185.06
5090,-3.8733,-1.3125,-1.2490,1992.43,1919.62,278.81
5100,-3.8733,-1.4536,-1.2983,8.06,138.06,1747.56
5110,-3.8732,-1.6083,-1.3147,1945.56,1825.26,1528.69
5120,-3.8733,-1.8191,-1.2114,-1851.32,-268.80,-1190.12
5130,-3.8738,-2.0472,-0.9896,-835.69,949.52,-1424.26
5140,-3.8746,-2.2236,-0.7072,1961.18,1339.72,-1783.20
5150,-3.8444,-2.3159,-0.4222,-616.94,1495.61,-923.28
5160,-3.8451,-2.3462,-0.1857,-429.44,1964.17,-828.98
5170,-3.8455,-2.3645,-0.0343,-304.44,245.36,1609.01
5180,-3.8457,-2.4077,0.0446,1351.81,-379.64,-109.50
5190,-3.8457,-2.4873,0.0994,-179.44,1713.99,-1374.94
5200,-3.8456,-2.5847,0.1425,1633.06,729.49,687.68
5210,-3.8455,-2.6721,0.1628,1164.31,-1755.07,-796.63
5220,-3.8451,-2.7358,0.1711,1976.81,854.13,1156.56
5230,-3.8448,-2.7545,0.1790,1820.56,1916.50,-1327.82
5240,-3.8446,-2.7144,0.1901,-570.07,-1083.56,422.18
5250,-3.8446,-2.6271,0.1958,570.56,338.44,-1609.01
5260,-3.8446,-2.5187,0.1736,-257.57,1072.94,-984.01
5270,-3.8445,-2.4001,0.1091,1617.43,-1770.57,1344.06
5280,-3.8444,-2.2549,0.0176,789.31,1979.68,-437.32
5290,-3.8440,-2.0795,-0.0735,-616.94,-1738.83,921.88
5300,-3.8750,-1.9059,-0.1501,1836.18,-1394.71,-1406.43
5310,-3.8748,-1.7566,-0.2213,54.93,793.15,-1812.81
5320,-3.8746,-1.6240,-0.2948,-835.69,-315.98,-1125.49
5330,-3.8745,-1.5040,-0.3528,133.06,-1721.92,93.14
5340,-3.8746,-1.4009,-0.3783,-507.57,-1143.62,1796.14
5350,-3.8748,-1.3165,-0.3921,695.56,-409.00,1577.33
5360,-3.8749,-1.2570,-0.4265,-507.57,1825.50,-891.42
5370,-3.8748,-1.2313,-0.4889,-882.57,1419.37,1452.27
5380,-3.8745,-1.2343,-0.5725,-1601.32,1435.06,1295.90
5390,-3.8743,-1.2451,-0.6677,-1976.32,-1268.07,-94.91
5400,-3.8739,-1.2548,-0.7750,633.06,-1455.57,1279.91
5410,-3.8737,-1.2605,-0.9020,-601.32,810.00,-1814.03
5420,-3.8733,-1.2415,-1.0353,-1335.69,560.00,-1829.90
5430,-3.8728,-1.1766,-1.1353,1101.81,-502.44,357.30
5440,-3.8724,-1.0763,-1.1715,1398.68,-1299.19,153.99
5450,-3.8723,-0.9648,-1.1512,-1757.57,-1939.64,-1486.69
5460,-3.8722,-0.8553,-1.0981,508.06,654.36,591.49
5470,-3.8722,-0.7521,-1.0452,-1476.32,-548.58,1919.68
5480,-3.8722,-0.6558,-1.0114,-257.57,-1767.15,-314.58
5490,-3.8721,-0.5774,-0.9902,70.56,-1438.78,1779.24
5500,-3.8719,-0.5322,-0.9874,-1898.19,1264.47,904.30
5510,-3.8719,-0.5115,-0.9994,-116.94,1623.90,-80.08
5520,-3.8718,-0.4955,-0.9969,-1460.69,92.71,1044.92
5530,-3.8719,-0.4684,-0.9653,586.18,405.27,-423.83
5540,-3.8721,-0.4229,-0.9204,54.93,452.21,-17.52
5550,-3.8721,-0.3629,-0.8999,1883.06,-1797.73,826.29
5560,-3.8721,-0.2972,-0.9257,1554.93,827.39,498.23
5570,-3.8721,-0.2295,-0.9750,1961.18,1530.64,-845.58
5580,-3.8719,-0.1448,-1.0081,-1366.94,-781.74,-767.58
5590,-3.8718,-0.0397,-1.0103,1476.81,-1015.93,-1783.26
5600,-3.8718,0.0581,-1.0046,-1070.07,-1297.00,-1314.51
5610,-3.8718,0.1285,-1.0021,-554.44,-593.69,-1111.39
5620,-3.8717,0.1837,-0.9789,461.18,-265.38,-1283.26
5630,-3.8715,0.2390,-0.9401,-476.32,-1296.57,-501.95
5640,-3.8711,0.3055,-0.9069,-1398.19,-327.70,-908.14
5650,-3.8707,0.3916,-0.8770,-882.57,-77.58,-1689.33
5660,-3.8705,0.4835,-0.8514,-1866.94,-249.27,-1517.40
5670,-3.8704,0.5615,-0.8459,1898.68,-983.46,-673.58
5680,-3.8702,0.6139,-0.8629,-116.94,-280.21,1763.92
5690,-3.8702,0.6365,-0.8650,-1413.82,1548.03,45.17
5700,-3.8705,0.6350,-0.8143,1476.81,1282.47,-1767.33
5710,-3.8706,0.6442,-0.7427,1289.31,-233.15,1467.10
5720,-3.8706,0.7029,-0.7122,-1538.82,938.72,-751.46
5730,-3.8702,0.8094,-0.7451,1976.81,845.09,-1438.90
5740,-3.8696,0.9320,-0.8339,-382.57,626.53,-95.21
5750,-3.8688,1.0332,-0.9332,-695.07,1267.40,-1439.15
5760,-3.8680,1.0840,-0.9614,258.06,548.89,1388.79
5770,-3.8677,1.0820,-0.8702,-1241.94,939.58,1732.48
5780,-3.8677,1.0510,-0.7024,-1491.94,611.45,-501.71
5790,-3.8678,1.0251,-0.5482,-1460.69,-1904.24,-845.15
5800,-3.8679,1.0341,-0.4608,-773.19,1830.08,1717.65
5810,-3.8680,1.0881,-0.4437,367.43,1017.64,-1766.54
5820,-3.8680,1.1754,-0.4791,-710.69,-794.80,483.46
5830,-3.8682,1.2578,-0.5359,-1538.82,-1325.87,1905.27
5840,-3.8684,1.2896,-0.5699,1008.06,-591.31,-985.47
5850,-3.8688,1.2583,-0.5587,1070.56,-950.62,-1907.41
5860,-3.8694,1.1831,-0.5217,1070.56,486.82,-454.22
5870,-3.8700,1.0829,-0.4934,-554.44,1221.01,1639.59
5880,-3.8706,0.9690,-0.4924,-1382.57,845.83,827.15
5890,-3.8711,0.8545,-0.5231,39.31,970.64,420.90
5900,-3.8715,0.7590,-0.5835,1383.06,1048.52,1170.84
5910,-3.8717,0.6919,-0.6643,1164.31,1313.96,-1298.03
5920,-3.8717,0.6400,-0.7480,570.56,-1029.91,326.78
5930,-3.8717,0.5867,-0.8213,1929.93,251.22,123.54
5940,-3.8718,0.5247,-0.8810,-898.19,-1123.90,-1.65
5950,-3.8718,0.4509,-0.9276,-835.69,-764.65,-1329.90
5960,-3.8719,0.3564,-0.9738,1726.81,1266.48,-408.08
5970,-3.8721,0.2568,-1.0237,1633.06,-639.95,-330.08
5980,-3.8721,0.2073,-1.0874,883.06,969.24,591.74
5990,-3.8721,0.2089,-1.1863,-1460.69,812.87,1091.61
6000,-3.8719,0.1876,-1.2960,-1257.57,156.62,-1002.32
6010,-3.8717,0.1058,-1.3702,23.68,-1890.26,-549.44
6020,-3.8715,-0.0127,-1.3893,1554.93,609.56,1247.31
6030,-3.8715,-0.1337,-1.3694,-1616.94,-1812.56,-1424.62
6040,-3.8715,-0.2284,-1.3531,-1101.32,734.07,-1971.44
6050,-3.8715,-0.2853,-1.3562,-1226.32,-1187.99,-971.44
6060,-3.8713,-0.3168,-1.3497,-507.57,-1578.74,-799.56
6070,-3.8711,-0.3364,-1.3185,-538.82,-750.67,1044.19
6080,-3.8710,-0.3179,-1.3080,945.56,-750.67,1106.75
6090,-3.8710,-0.2454,-1.3695,-679.44,593.08,-596.31
6100,-3.8708,-0.1906,-1.4648,601.81,718.26,-471.44
6110,-3.8706,-0.2156,-1.5109,-382.57,515.20,1340.88
6120,-3.8706,-0.2925,-1.4684,414.31,-1375.43,-862.37
6130,-3.8708,-0.3813,-1.3564,-1429.44,61.89,-768.49
6140,-3.8713,-0.4768,-1.2386,-804.44,-1610.17,-830.81
6150,-3.8718,-0.5774,-1.1736,-1023.19,1467.77,-611.82
6160,-3.8721,-0.6752,-1.1720,-1898.19,1795.72,-611.69
6170,-3.8721,-0.7687,-1.1869,1586.18,1998.66,-752.32
6180,-3.8719,-0.8630,-1.1542,1617.43,92.22,450.81
6190,-3.8722,-0.9659,-1.0659,1539.31,279.54,-174.13
6200,-3.8726,-1.0870,-0.9791,367.43,-423.77,-205.26
6210,-3.8729,-1.2324,-0.9408,867.43,-1314.64,-1798.83
6220,-3.8732,-1.4070,-0.9386,-1741.94,-408.69,-1111.27
6230,-3.8730,-1.5945,-0.9539,-85.69,-127.81,1748.11
6240,-3.8728,-1.7582,-0.9641,-85.69,1918.70,-1939.39
6250,-3.8727,-1.8740,-0.9352,-1038.82,605.90,-236.27
6260,-3.8727,-1.9338,-0.8512,133.06,308.84,-736.21
6270,-3.8728,-1.9447,-0.7064,476.81,-941.28,607.67
6280,-3.8732,-1.9258,-0.5222,-913.82,1589.90,-1454.53
6290,-3.8734,-1.8975,-0.3439,1508.06,1168.09,1436.46
6300,-3.8737,-1.8634,-0.2096,1133.06,-3.72,-235.11
6310,-3.8738,-1.8147,-0.1243,1492.43,1183.84,-266.05
6320,-3.8739,-1.7667,-0.0643,-273.19,105.77,-1687.74
6330,-3.8741,-1.7634,-0.0276,1867.43,-222.23,-1562.68
6340,-3.8744,-1.8306,-0.0192,-1710.69,480.90,1031.19
6350,-3.8746,-1.9369,-0.0095,1695.56,1558.90,718.69
6360,-3.8749,-2.0220,0.0310,86.18,-1206.91,-843.81
6370,-3.8750,-2.0439,0.0940,1195.56,-19.59,-1265.62
6380,-3.8439,-1.9996,0.1421,-1616.94,42.85,-1999.82
6390,-3.8440,-1.9128,0.1395,54.93,-1800.78,1984.62
6400,-3.8440,-1.8142,0.0814,-835.69,1871.22,656.49
6410,-3.8440,-1.7188,0.0027,-210.69,-1566.10,-1421.75
6420,-3.8439,-1.6187,-0.0673,8.06,356.02,-1062.50
6430,-3.8749,-1.5038,-0.1472,820.56,-596.92,1093.57
6440,-3.8746,-1.3835,-0.2573,-476.32,1168.88,1296.57
6450,-3.8743,-1.2733,-0.3759,-1085.69,-924.62,124.45
6460,-3.8739,-1.1744,-0.4633,1023.68,-96.25,30.46
6470,-3.8737,-1.0925,-0.4957,1679.93,716.43,1702.21
6480,-3.8735,-1.0411,-0.4980,164.31,560.36,-282.23
6490,-3.8733,-1.0099,-0.5181,-1257.57,263.55,61.52
6500,-3.8732,-0.9788,-0.5590,-1257.57,1701.11,342.71
6510,-3.8730,-0.9479,-0.5884,-1273.19,466.80,498.90
6520,-3.8730,-0.9231,-0.5980,-1320.07,701.23,-126.16
6530,-3.8729,-0.9021,-0.6044,1851.81,-533.08,811.28
6540,-3.8730,-0.8906,-0.6270,539.31,-1345.52,-1188.72
6550,-3.8730,-0.9028,-0.6830,-1991.94,-236.15,436.22
6560,-3.8730,-0.9388,-0.7720,445.56,591.98,170.53
6570,-3.8730,-0.9951,-0.8794,-163.82,1201.23,-1767.15
6580,-3.8729,-1.0692,-1.0028,633.06,-548.83,-861.15
6590,-3.8727,-1.1403,-1.1305,-851.32,-345.89,-1595.76
6600,-3.8724,-1.1774,-1.2137,-1945.07,-689.76,997.74
6610,-3.8723,-1.1650,-1.2292,1304.93,653.93,591.37
6620,-3.8723,-1.1129,-1.2091,-1116.94,-1330.44,1481.93
6630,-3.8723,-1.0439,-1.1953,1554.93,1247.80,1888.24
6640,-3.8723,-0.9724,-1.2046,-1616.94,-986.45,-377.38
6650,-3.8722,-0.8927,-1.2281,-460.69,1826.17,-1268.01
6660,-3.8721,-0.7958,-1.2529,1742.43,-1189.27,-1439.94
6670,-3.8719,-0.6982,-1.2838,-1851.32,-360.96,-1471.25
6680,-3.8718,-0.6179,-1.3245,-1366.94,-313.90,-1205.69
6690,-3.8717,-0.5490,-1.3582,914.31,-1516.85,-502.62
6700,-3.8716,-0.4829,-1.3677,1742.43,-1829.22,-2.69
6710,-3.8715,-0.4153,-1.3539,-1804.44,952.15,-565.19
6720,-3.8713,-0.3293,-1.3319,-1148.19,-1282.10,1450.44
6730,-3.8713,-0.2067,-1.3141,1851.81,1530.58,-690.12
6740,-3.8712,-0.0513,-1.2992,1554.93,-187.93,-1080.75
6750,-3.8710,0.1105,-1.2939,1445.56,1718.63,200.56
6760,-3.8708,0.2480,-1.3036,-1851.32,-1624.82,1356.81
6770,-3.8707,0.3458,-1.3040,-241.94,1141.05,-1643.19
6780,-3.8705,0.4114,-1.2771,273.68,1094.42,497.44
6790,-3.8704,0.4529,-1.2323,664.31,532.04,-1111.88
6800,-3.8702,0.4675,-1.1770,1976.81,-1733.52,-1486.82
6810,-3.8702,0.4644,-1.1101,-148.19,1344.60,1997.68
6820,-3.8704,0.4700,-1.0496,-554.44,1907.10,-1986.57
6830,-3.8706,0.5043,-1.0188,164.31,1657.17,-377.08
6840,-3.8707,0.5624,-1.0098,554.93,1594.73,669.86
6850,-3.8710,0.6289,-0.9875,-7.57,-1248.96,-377.01
6860,-3.8710,0.7118,-0.9312,508.06,1594.97,1216.80
6870,-3.8710,0.8300,-0.8403,-882.57,813.84,138.79
6880,-3.8710,0.9783,-0.7292,-1757.57,439.09,1607.73
6890,-3.8708,1.1383,-0.6274,1226.81,-1341.86,-1.46
6900,-3.8705,1.2959,-0.5471,1711.18,-310.30,1389.34
6910,-3.8702,1.4393,-0.4624,1883.06,1971.25,-1391.72
6920,-3.8700,1.5624,-0.3649,242.43,815.31,-125.92
6930,-3.8696,1.6646,-0.2802,-7.57,1299.87,1280.52
6940,-3.8694,1.7400,-0.2214,1070.56,143.86,515.08
6950,-3.8693,1.7742,-0.1884,-1273.19,-340.39,858.89
6960,-3.8691,1.7651,-0.1799,-898.19,-105.96,499.57
6970,-3.8690,1.7247,-0.1874,1945.56,972.17,62.13
6980,-3.8690,1.6586,-0.1976,773.68,18.98,187.13
6990,-3.8693,1.5670,-0.2158,304.93,-1293.64,-906.68
7000,-3.8695,1.4554,-0.2572,586.18,378.05,-1219.18
7010,-3.8698,1.3326,-0.3251,-1695.07,-919.07,1921.33
7020,-3.8700,1.2092,-0.4113,-1413.82,-1606.81,1343.08
7030,-3.8702,1.1077,-0.5049,-1210.69,-638.31,1296.02
7040,-3.8705,1.0378,-0.6116,1789.31,-622.86,-204.16
7050,-3.8705,0.9792,-0.7408,851.81,1720.76,-1219.97
7060,-3.8704,0.9117,-0.8768,1351.81,1173.77,717.29
7070,-3.8704,0.8276,-0.9955,711.18,-232.60,-1236.15
7080,-3.8704,0.7209,-1.0800,1945.56,579.71,-751.95
7090,-3.8704,0.5969,-1.1274,289.31,1767.03,966.61
7100,-3.8705,0.4805,-1.1550,414.31,-311.34,325.87
7110,-3.8707,0.3910,-1.1775,1508.06,157.17,-1174.13
7120,-3.8708,0.3214,-1.2024,-1945.07,1281.98,1232.06
7130,-3.8710,0.2601,-1.2390,1148.68,-1905.64,216.37
7140,-3.8711,0.2075,-1.2854,1304.93,1406.74,638.18
7150,-3.8712,0.1732,-1.3302,-1429.44,-530.88,-752.56
7160,-3.8712,0.1714,-1.3657,-1820.07,1734.68,-49.50
7170,-3.8711,0.1971,-1.3867,1945.56,1187.81,1434.81
7180,-3.8711,0.2148,-1.3907,1242.43,-1499.63,-1784.00
7190,-3.8711,0.1869,-1.3854,-491.94,1984.74,1481.63
7200,-3.8712,0.1138,-1.3921,-70.07,-1327.82,-455.87
7210,-3.8712,0.0344,-1.4257,-1429.44,1812.68,-1440.25
7220,-3.8711,-0.0193,-1.4812,414.31,1515.69,1622.19
7230,-3.8708,-0.0410,-1.5516,1539.31,-1578.19,1762.70
7240,-3.8705,-0.0314,-1.6311,-1241.94,1406.13,965.70
7250,-3.8702,-0.0016,-1.7183,-7.57,-765.75,-112.61
7260,-3.8699,0.0244,-1.8033,-195.07,78.06,246.64
7270,-3.8699,0.0081,-1.8605,-866.94,1171.88,-1175.42
7280,-3.8701,-0.1121,-1.8732,1039.31,1859.38,1621.34
7290,-3.8708,-0.3838,-1.8228,1664.31,249.76,1418.21
7300,-3.8719,-0.7782,-1.6768,-1116.94,-1297.67,637.02
7310,-3.8733,-1.1842,-1.4232,398.68,1389.10,1996.70
7320,-3.8745,-1.5117,-1.0905,429.93,1841.43,-80.93
7330,-3.8439,-1.7307,-0.7667,-1491.94,434.51,404.11
7340,-3.8441,-1.8199,-0.6194,-1523.19,1871.58,-1314.03
7350,-3.8439,-1.7769,-0.7207,-945.07,730.77,-266.85
7360,-3.8744,-1.6761,-0.9426,570.56,-237.85,1639.16
7370,-3.8735,-1.6215,-1.1265,1461.18,-643.92,-642.52
7380,-3.8728,-1.6517,-1.1659,461.18,-175.05,-189.76
7390,-3.8726,-1.7605,-1.0137,586.18,-1221.98,-1158.57
7400,-3.8729,-1.9114,-0.7256,-1335.69,-1737.85,1779.24
7410,-3.8737,-2.0425,-0.4106,-648.19,-863.16,264.16
7420,-3.8745,-2.1123,-0.1636,-1429.44,-550.90,-922.73
7430,-3.8750,-2.1179,-0.0402,1633.06,-926.03,-437.87
7440,-3.8439,-2.0793,-0.0214,914.31,-1129.15,937.38
7450,-3.8440,-2.0283,-0.0405,1851.81,1277.16,609.31
7460,-3.8442,-1.9930,-0.0590,383.06,-1175.84,1734.25
7470,-3.8445,-1.9813,-0.0635,898.68,464.84,312.38
7480,-3.8448,-1.9845,-0.0460,-1601.32,-113.28,-703.31
7490,-3.8451,-1.9785,-0.0017,1992.43,-1878.91,-937.62
7500,-3.8453,-1.9465,0.0715,-1241.94,-207.03,921.81
7510,-3.8458,-1.8933,0.1699,-1148.19,1168.03,-812.38
7520,-3.8462,-1.8339,0.2679,1664.31,1761.90,734.68
7530,-3.8466,-1.7802,0.3085,1273.68,-1691.10,-733.89
7540,-3.8466,-1.7181,0.2446,148.68,-503.48,-1843.20
7550,-3.8463,-1.6277,0.0818,86.18,-675.23,1562.93
7560,-3.8459,-1.5120,-0.1154,-335.69,-1518.86,-343.63
7570,-3.8453,-1.3904,-0.2635,-1523.19,1247.01,546.63
7580,-3.8450,-1.2816,-0.3287,-1960.69,-1721.50,-469.30
7590,-3.8446,-1.1953,-0.3344,-38.82,1934.94,1764.95
7600,-3.8444,-1.1317,-0.3234,-991.94,1216.37,93.08
7610,-3.8442,-1.0876,-0.3284,-851.32,-1377.26,1780.58
7620,-3.8440,-1.0638,-0.3702,789.31,1982.24,827.45
7630,-3.8750,-1.0511,-0.4606,-163.82,622.86,1764.89
7640,-3.8746,-1.0325,-0.5865,1461.18,1060.42,764.71
7650,-3.8743,-1.0115,-0.7178,-148.19,935.42,670.72
7660,-3.8740,-1.0117,-0.8267,-1460.69,138.61,-595.15
7670,-3.8738,-1.0483,-0.8884,-1491.94,-1798.89,-1517.27
7680,-3.8737,-1.1090,-0.8984,1820.56,-1705.20,670.10
7690,-3.8738,-1.1558,-0.8820,-1945.07,1013.43,-236.15
7700,-3.8738,-1.1599,-0.8708,70.56,-877.26,-1751.77
7710,-3.8738,-1.1194,-0.8894,-460.69,544.56,1717.04
7720,-3.8737,-1.0498,-0.9532,726.81,-1830.32,373.23
7730,-3.8735,-0.9979,-1.0703,1633.06,1997.92,-939.39
7740,-3.8733,-1.0117,-1.2333,273.68,-986.33,-299.01
7750,-3.8729,-1.0817,-1.4114,-1491.94,-1845.76,-1877.44
7760,-3.8726,-1.1646,-1.5592,1554.93,-642.76,-1580.93
7770,-3.8722,-1.2305,-1.6445,-1054.44,435.18,762.57
7780,-3.8721,-1.2649,-1.6702,-1491.94,1513.18,1840.52
7790,-3.8721,-1.2555,-1.6660,-1898.19,-1768.13,-1722.05
7800,-3.8721,-1.1855,-1.6702,-695.07,-1236.88,1465.45
7810,-3.8721,-1.0485,-1.7036,258.06,-1767.94,-1128.30
7820,-3.8719,-0.8712,-1.7638,1804.93,1951.05,-1159.61
7830,-3.8718,-0.6809,-1.8394,492.43,-1751.71,-550.35
7840,-3.8717,-0.4939,-1.9059,851.81,576.78,-1237.98
7850,-3.8717,-0.3342,-1.9326,789.31,61.52,-488.10
7860,-3.8717,-0.2023,-1.8973,1226.81,639.95,480.59
7870,-3.8718,-0.0579,-1.8135,-1882.57,1155.82,668.15
7880,-3.8718,0.1263,-1.7330,601.81,-109.50,-1112.98
7890,-3.8715,0.3186,-1.6998,179.93,-1827.88,1277.83
7900,-3.8710,0.4846,-1.7166,789.31,-1577.51,965.39
7910,-3.8705,0.6217,-1.7515,-1960.69,282.17,-1831.48
7920,-3.8700,0.7311,-1.7506,-413.82,-186.34,105.90
7930,-3.8699,0.8149,-1.6774,1586.18,-76.72,-815.98
7940,-3.8699,0.8867,-1.5400,320.56,1298.46,-284.55
7950,-3.8699,0.9586,-1.3782,1508.06,-1123.29,996.95
7960,-3.8700,1.0375,-1.2316,-1288.82,-404.42,-1612.12
7970,-3.8700,1.1250,-1.1218,804.93,-1638.61,-1908.69
7980,-3.8699,1.2081,-1.0525,8.06,408.45,794.68
7990,-3.8698,1.2697,-1.0077,-1351.32,1283.57,560.42
8000,-3.8698,1.3075,-0.9686,-1476.32,-981.93,-1517.64
8010,-3.8698,1.3258,-0.9304,-632.57,18.13,1685.61
8020,-3.8699,1.3223,-0.9009,1711.18,908.81,-626.83
8030,-3.8699,1.2943,-0.8835,1258.06,690.06,1966.98
8040,-3.8699,1.2523,-0.8667,1679.93,-1091.25,-1189.27
8050,-3.8698,1.2108,-0.8350,304.93,1064.94,435.79
8060,-3.8698,1.1709,-0.7850,-1007.57,1127.32,701.48
8070,-3.8699,1.1283,-0.7209,1883.06,-482.12,-1345.34
8080,-3.8700,1.0817,-0.6453,429.93,-279.05,-1579.59
8090,-3.8701,1.0350,-0.5648,-1538.82,1408.33,217.47
8100,-3.8705,1.0070,-0.4922,492.43,-294.86,-16.78
8110,-3.8707,1.0135,-0.4399,898.68,1001.95,-1204.10
8120,-3.8710,1.0414,-0.4144,1742.43,-310.55,-938.42
8130,-3.8711,1.0659,-0.4133,1304.93,-1044.86,1764.77
8140,-3.8712,1.0780,-0.4257,445.56,-904.17,-1688.35
8150,-3.8712,1.0803,-0.4473,1992.43,1517.70,14.77
8160,-3.8713,1.0708,-0.4851,-1710.69,-1247.92,1686.58
8170,-3.8715,1.0238,-0.5325,1070.56,1908.33,702.15
8180,-3.8718,0.9205,-0.5719,-945.07,-154.30,-501.10
8190,-3.8722,0.8141,-0.5992,1836.18,-1201.35,-141.78
8200,-3.8724,0.7759,-0.6344,211.18,-701.54,311.28
8210,-3.8728,0.8031,-0.7053,-679.44,-1201.66,-1095.03
8220,-3.8729,0.8427,-0.8265,-1195.07,1720.28,1592.35
8230,-3.8729,0.8396,-1.0032,-132.57,-1795.29,1279.60
8240,-3.8728,0.7502,-1.2222,-523.19,-404.66,-1892.64
8250,-3.8726,0.5715,-1.4579,39.31,-436.04,-1377.44
8260,-3.8723,0.3641,-1.6987,1164.31,1391.72,-252.87
8270,-3.8719,0.1936,-1.9370,-1382.57,-1436.83,1027.89
8280,-3.8717,0.0804,-2.1321,789.31,62.87,-1628.78
8290,-3.8715,0.0072,-2.2365,-1695.07,-906.13,808.29
8300,-3.8715,-0.0791,-2.2361,929.93,1734.38,-1207.52
8310,-3.8715,-0.2179,-2.1509,1883.06,1796.69,1245.61
8320,-3.8716,-0.3765,-2.0203,117.43,702.70,1042.66
8330,-3.8718,-0.4990,-1.8827,-179.44,1421.08,-988.34
8340,-3.8719,-0.5708,-1.7693,133.06,-969.73,605.65
8350,-3.8722,-0.6069,-1.6991,-1054.44,1545.72,-159.73
8360,-3.8722,-0.6272,-1.6835,-1679.44,-1469.97,-831.48
8370,-3.8721,-0.6447,-1.7026,-273.19,529.97,1762.33
8380,-3.8719,-0.6637,-1.7153,1492.43,-1923.16,137.27
8390,-3.8721,-0.7068,-1.6934,-945.07,451.78,-1768.98
8400,-3.8723,-0.8218,-1.6184,1539.31,-735.78,1387.27
8410,-3.8727,-1.0026,-1.5114,-1179.44,857.73,637.45
8420,-3.8730,-1.1833,-1.4248,-320.07,-1439.51,325.13
8430,-3.8734,-1.3287,-1.3871,539.31,1638.31,-1659.06
8440,-3.8735,-1.4452,-1.3920,1929.93,-1533.87,809.75
8450,-3.8735,-1.5500,-1.4226,-976.32,1840.88,466.00
8460,-3.8735,-1.6770,-1.4523,1601.81,1918.82,1512.82
8470,-3.8737,-1.8458,-1.4331,1351.81,-1878.30,-393.49
8480,-3.8738,-2.0249,-1.3466,-257.57,574.46,-1924.68
8490,-3.8740,-2.1667,-1.2129,820.56,-347.72,-1752.69
8500,-3.8743,-2.2383,-1.0474,-1335.69,761.35,1294.49
8510,-3.8745,-2.2319,-0.8688,1508.06,1948.73,107.30
8520,-3.8748,-2.1732,-0.7042,-1679.44,808.11,232.67
8530,-3.8750,-2.1097,-0.5668,1836.18,1870.73,-751.40
8540,-3.8750,-2.0670,-0.4467,1961.18,-535.40,795.72
8550,-3.8439,-2.0431,-0.3291,-570.07,-1160.34,-875.92
8560,-3.8439,-2.0310,-0.2073,-1507.57,1886.60,374.33
8570,-3.8440,-2.0183,-0.0815,39.31,1480.41,577.70
8580,-3.8441,-1.9912,0.0363,1664.31,1574.16,1593.57
8590,-3.8442,-1.9396,0.1357,1133.06,652.34,-468.69
8600,-3.8442,-1.8655,0.2155,-257.57,1386.78,328.37
8610,-3.8445,-1.7842,0.2815,1226.81,-409.91,-984.01
8620,-3.8446,-1.7118,0.3363,-366.94,43.33,297.42
8630,-3.8448,-1.6511,0.3745,898.68,-940.86,984.99
8640,-3.8451,-1.5951,0.3944,664.31,-50.11,-1889.95
8650,-3.8452,-1.5480,0.3967,-163.82,-1503.17,1235.11
8660,-3.8453,-1.5171,0.3787,1867.43,-1206.18,-921.14
8670,-3.8453,-1.4939,0.3386,1820.56,481.38,-1374.27
8680,-3.8453,-1.4706,0.2841,789.31,-643.55,-765.01
8690,-3.8452,-1.4545,0.2192,-226.32,372.07,1313.05
8700,-3.8451,-1.4565,0.1354,1836.18,75.26,750.43
8710,-3.8450,-1.4683,0.0322,1570.56,1340.88,1031.49
8720,-3.8448,-1.4652,-0.0712,70.56,137.76,1468.81
8730,-3.8447,-1.4413,-0.1573,461.18,-1096.62,1968.57
8740,-3.8446,-1.4277,-0.2334,-476.32,-127.87,-1453.49
8750,-3.8445,-1.4436,-0.3278,1258.06,-1862.18,-109.86
8760,-3.8442,-1.4692,-0.4463,-773.19,-1940.37,-766.30
8770,-3.8440,-1.4910,-0.5604,-54.44,-1112.30,-1188.42
8780,-3.8439,-1.5068,-0.6461,1164.31,278.32,-391.72
8790,-3.8750,-1.5123,-0.6993,-866.94,1309.51,1936.22
8800,-3.8750,-1.4962,-0.7443,-1570.07,-1502.99,-1563.90
8810,-3.8750,-1.4504,-0.8153,492.43,747.07,1451.66
8820,-3.8750,-1.3926,-0.9287,-1648.19,-346.62,-1970.40
8830,-3.8748,-1.3445,-1.0856,1758.06,1137.88,232.54
8840,-3.8744,-1.2998,-1.2546,-85.69,1059.81,232.24
8850,-3.8740,-1.2482,-1.3721,1633.06,-580.69,-1549.38
8860,-3.8737,-1.2007,-1.4181,242.43,388.18,-2.69
8870,-3.8730,-1.0699,-1.4337,1992.43,1357.12,-205.93
8880,-3.8728,-0.9711,-1.4794,-945.07,497.86,247.19
8890,-3.8727,-0.8772,-1.5438,-288.82,-1345.70,262.70
8900,-3.8727,-0.7946,-1.5978,-273.19,-1595.52,-1362.43
8910,-3.8726,-0.6898,-1.6198,-1695.07,-501.59,1074.95
8920,-3.8723,-0.5342,-1.6101,-288.82,686.10,-1721.92
8930,-3.8717,-0.3441,-1.5908,-366.94,1920.78,1324.95
8940,-3.8710,-0.1526,-1.5560,-38.82,389.89,715.64
8950,-3.8704,0.0156,-1.4955,476.81,843.44,1575.07
8960,-3.8700,0.1460,-1.4194,-1991.94,578.12,-1362.30
8970,-3.8699,0.2604,-1.3429,-1304.44,-1687.26,1731.57
8980,-3.8700,0.4087,-1.2811,1336.18,109.86,-580.75
8990,-3.8700,0.5955,-1.2576,320.56,16.42,1794.37
9000,-3.8700,0.7695,-1.2646,226.81,-967.59,966.25
9010,-3.8700,0.8832,-1.2581,-1491.94,-1873.54,28.75
9020,-3.8701,0.9226,-1.2267,1054.93,-1029.54,-346.25
9030,-3.8701,0.9038,-1.1888,-1898.19,-1013.85,1935.06
9040,-3.8702,0.8545,-1.1431,-304.44,-170.17,778.87
9050,-3.8705,0.7977,-1.1013,1383.06,1689.15,-971.01
9060,-3.8705,0.7324,-1.0940,-1882.57,-967.22,1107.18
9070,-3.8705,0.6594,-1.1193,1758.06,-29.85,-627.20
9080,-3.8704,0.6090,-1.1445,414.31,735.66,-267.82
9090,-3.8701,0.5986,-1.1407,1961.18,1501.16,528.99
9100,-3.8700,0.6227,-1.1049,633.06,1985.53,685.24
9110,-3.8700,0.6683,-1.0509,-288.82,-1420.72,-752.20
9120,-3.8700,0.7228,-0.9890,1554.93,1485.66,-80.20
9130,-3.8700,0.7871,-0.9220,523.68,1407.65,-626.95
9140,-3.8700,0.8549,-0.8530,758.06,1985.90,-939.33
9150,-3.8699,0.9059,-0.7871,1429.93,-1185.85,404.54
9160,-3.8698,0.9403,-0.7266,-38.82,-748.29,295.29
9170,-3.8696,0.9707,-0.6740,367.43,-998.17,1420.41
9180,-3.8695,0.9961,-0.6318,258.06,1736.27,592.41
9190,-3.8696,1.0129,-0.5958,-491.94,-873.11,-360.66
9200,-3.8698,1.0233,-0.5580,1664.31,-263.67,-1891.85
9210,-3.8700,1.0243,-0.5182,-1007.57,580.08,623.90
9220,-3.8704,1.0095,-0.4856,-882.57,1673.83,14.59
9230,-3.8708,0.9818,-0.4740,1226.81,1845.70,1545.90
9240,-3.8712,0.9496,-0.4956,1679.93,-669.98,92.77
9250,-3.8716,0.9115,-0.5448,1554.93,564.33,-1532.23
9260,-3.8717,0.8567,-0.5929,679.93,-1732.60,327.03
9270,-3.8718,0.7905,-0.6149,1664.31,111.02,576.97
9280,-3.8719,0.7311,-0.6238,1195.56,1298.40,-1188.72
9290,-3.8719,0.6874,-0.6576,1586.18,157.65,-626.22
9300,-3.8718,0.6786,-0.7482,-7.57,-170.59,-766.97
9310,-3.8716,0.7118,-0.8954,-1132.57,235.66,-1501.46
9320,-3.8712,0.7360,-1.0607,-882.57,1391.97,857.60
9330,-3.8708,0.7067,-1.2026,-1788.82,235.78,654.17
9340,-3.8706,0.6281,-1.2909,-1538.82,-1936.16,1638.24
9350,-3.8706,0.5045,-1.3135,398.68,-1233.15,-643.19
9360,-3.8707,0.3446,-1.2994,586.18,-124.02,1388.00
9370,-3.8710,0.2004,-1.3029,117.43,1672.55,294.31
9380,-3.8712,0.1285,-1.3917,1664.31,1234.74,1872.44
9390,-3.8712,0.0933,-1.5826,461.18,1859.62,-1424.62
9400,-3.8710,0.0042,-1.7870,-54.44,1422.00,-1862.49
9410,-3.8707,-0.1669,-1.9043,539.31,-734.38,1433.96
9420,-3.8707,-0.3706,-1.8964,-1351.32,265.26,886.90
9430,-3.8710,-0.5391,-1.7987,570.56,1280.52,293.15
9440,-3.8713,-0.6364,-1.6959,-991.94,1780.15,230.83
9450,-3.8718,-0.6809,-1.6560,-1445.07,-1063.78,-597.11
9460,-3.8722,-0.7402,-1.6976,851.81,45.53,-175.11
9470,-3.8723,-0.8856,-1.7988,1258.06,-1282.71,981.02
9480,-3.8723,-1.1184,-1.9146,-1351.32,1763.85,199.58
9490,-3.8723,-1.3643,-1.9875,851.81,-1049.07,-1910.03
9500,-3.8723,-1.5521,-1.9801,1383.06,1606.69,-1941.41
9510,-3.8724,-1.6754,-1.8999,1336.18,-1440.55,-300.78
9520,-3.8724,-1.7678,-1.7693,1554.93,824.83,855.65
9530,-3.8726,-1.8389,-1.6001,1726.81,1543.40,465.27
9540,-3.8728,-1.8782,-1.4150,633.06,-800.48,434.33
9550,-3.8732,-1.8864,-1.2450,-398.19,-1113.10,465.94
9560,-3.8737,-1.8820,-1.1019,-1445.07,652.53,-1580.57
9570,-3.8740,-1.8905,-0.9700,-882.57,-1034.97,872.80
9580,-3.8744,-1.9268,-0.8251,-1976.32,-144.35,185.55
9590,-3.8749,-1.9891,-0.6647,1383.06,-1597.53,-157.90
9600,-3.8439,-2.0565,-0.5090,1398.68,-1066.41,576.78
9610,-3.8442,-2.0968,-0.3774,773.68,-1144.65,-313.54
9620,-3.8444,-2.0945,-0.2762,-382.57,-301.03,-1532.04
9630,-3.8444,-2.0636,-0.1951,-85.69,652.10,1311.95
9640,-3.8444,-2.0322,-0.1241,-132.57,-957.21,-1047.30
9650,-3.8444,-2.0166,-0.0657,-116.94,120.97,-297.12
9660,-3.8445,-2.0099,-0.0160,1883.06,-394.59,-718.93
9670,-3.8447,-1.9895,0.0378,-1257.57,1964.78,265.56
9680,-3.8452,-1.9384,0.0992,1351.81,855.47,1343.81
9690,-3.8457,-1.8555,0.1522,-101.32,714.90,-562.32
9700,-3.8459,-1.7502,0.1794,-1491.94,-503.66,-1843.51
9710,-3.8461,-1.6427,0.1750,-23.19,-1019.10,-1359.07
9720,-3.8461,-1.5562,0.1462,1742.43,-1581.36,-202.82
9730,-3.8459,-1.5020,0.0996,820.56,-1268.68,-609.13
9740,-3.8457,-1.4681,0.0398,-241.94,762.63,468.93
9750,-3.8456,-1.4354,-0.0298,86.18,1106.51,-843.69
9760,-3.8453,-1.3936,-0.1039,273.68,200.32,-1359.44
9770,-3.8451,-1.3394,-0.1720,1633.06,-1284.00,1484.13
9780,-3.8450,-1.2788,-0.2230,570.56,1997.38,-515.99
9790,-3.8447,-1.2146,-0.2483,320.56,-533.75,1296.39
9800,-3.8446,-1.1440,-0.2566,539.31,231.99,-266.11
9810,-3.8444,-1.0684,-0.2704,1570.56,-830.38,-1344.30
9820,-3.8441,-1.0006,-0.2961,-741.94,1404.11,343.20
9830,-3.8440,-0.9623,-0.3247,-70.07,-1892.64,624.39
9840,-3.8439,-0.9606,-0.3711,836.18,-1548.77,1155.58
9850,-3.8750,-0.9761,-0.4570,1054.93,513.73,-1375.73
9860,-3.8748,-0.9830,-0.5626,-929.44,1513.67,1233.46
9870,-3.8745,-0.9773,-0.6576,-1820.07,-1.95,1498.84
9880,-3.8743,-0.9749,-0.7271,-1085.69,-158.20,1404.91
9890,-3.8741,-0.9926,-0.7653,-773.19,-1048.83,-1735.84
9900,-3.8740,-1.0312,-0.7953,961.18,-1939.45,201.60
9910,-3.8740,-1.0658,-0.8517,8.06,-1783.26,935.91
9920,-3.8740,-1.0708,-0.9435,-413.82,-1002.14,1092.04
9930,-3.8740,-1.0570,-1.0599,-1054.44,-752.14,1591.86
9940,-3.8739,-1.0527,-1.1873,711.18,341.67,482.30
9950,-3.8738,-1.0574,-1.3033,1258.06,44.80,1638.31
9960,-3.8735,-1.0529,-1.3870,664.31,1185.42,1966.19
9970,-3.8730,-1.0583,-1.4657,1242.43,-1517.70,591.00
9980,-3.8724,-1.0851,-1.5796,539.31,404.17,1137.76
9990,-3.8717,-1.0610,-1.7045,1117.43,1825.99,840.64
10000,-3.8710,-0.9169,-1.8041,195.56,1841.67,1012.27
10010,-3.8705,-0.6808,-1.8656,-1351.32,1091.92,-441.04
10020,-3.8702,-0.4265,-1.8668,867.43,1217.41,-831.79
10030,-3.8702,-0.2155,-1.8138,1414.31,1061.65,-1753.66
10040,-3.8702,-0.0959,-1.7766,429.93,-156.68,715.15
10050,-3.8701,-0.0763,-1.8091,-273.19,609.13,887.15
10060,-3.8699,-0.0981,-1.8658,-1757.57,452.94,1449.58
