timestamp_ms,ax,ay,az,gx,gy,gz
0,-3.8683,1.4987,-0.7426,1804.93,-981.51,-689.15
10,-3.8682,1.5208,-0.6512,-163.82,955.99,545.41
20,-3.8682,1.5828,-0.5913,-1335.69,643.55,373.72
30,-3.8682,1.7020,-0.5868,-1398.19,315.55,326.97
40,-3.8683,1.8582,-0.6184,1867.43,893.92,-610.53
50,-3.8684,1.9960,-0.6532,1851.81,847.35,-1188.72
60,-3.8687,2.0607,-0.6646,-507.57,394.47,201.84
70,-3.8693,2.0165,-0.6660,-226.32,-1058.53,-376.34
80,-3.8699,1.8705,-0.6870,-1882.57,-1246.09,-376.34
90,-3.8704,1.6616,-0.7395,-570.07,66.10,436.16
100,-3.8708,1.4146,-0.8336,695.56,1346.98,1217.29
110,-3.8712,1.1438,-0.9603,1070.56,1299.62,-720.40
120,-3.8713,0.8734,-1.0797,-1585.69,1080.32,-1064.39
130,-3.8713,0.6304,-1.1604,-195.07,1798.52,-517.76
140,-3.8712,0.4277,-1.2096,695.56,-530.03,-111.69
150,-3.8710,0.2662,-1.2554,-1241.94,1172.67,-1314.88
160,-3.8707,0.1443,-1.3110,-1913.82,-687.01,1513.12
170,-3.8706,0.0602,-1.3595,-1523.19,187.74,1341.19
180,-3.8706,0.0022,-1.3802,-288.82,1984.44,669.19
190,-3.8707,-0.0436,-1.3796,289.31,-671.88,950.38
200,-3.8708,-0.0825,-1.3751,-1570.07,-578.25,528.50
210,-3.8710,-0.1198,-1.3702,1445.56,-0.18,419.13
220,-3.8711,-0.1598,-1.3723,679.93,624.76,747.31
230,-3.8712,-0.1982,-1.4010,-445.07,359.01,1497.31
240,-3.8713,-0.2332,-1.4614,-1366.94,687.07,-799.62
250,-3.8713,-0.2711,-1.5323,-1835.69,952.64,-674.74
260,-3.8712,-0.3152,-1.5906,1304.93,-125.55,1668.82
270,-3.8712,-0.3545,-1.6252,-335.69,421.20,-81.24
280,-3.8711,-0.3738,-1.6398,-1366.94,-16.36,43.64
290,-3.8712,-0.3738,-1.6473,164.31,-1875.73,1856.14
300,-3.8713,-0.3704,-1.6564,164.31,1155.52,-1425.11
310,-3.8715,-0.3800,-1.6628,601.81,-0.73,-643.92
320,-3.8715,-0.4191,-1.6636,-632.57,-828.92,246.70
330,-3.8716,-0.4948,-1.6652,-1632.57,-922.73,699.83
340,-3.8717,-0.5928,-1.6682,679.93,-1125.98,1387.33
350,-3.8718,-0.6880,-1.6707,133.06,-1516.78,-831.42
360,-3.8718,-0.7677,-1.6733,-54.44,-1829.53,1199.83
370,-3.8719,-0.8408,-1.6742,1742.43,1826.60,-1362.67
380,-3.8721,-0.9117,-1.6667,383.06,1717.10,-643.92
390,-3.8722,-0.9734,-1.6455,-695.07,-1329.96,-1440.80
400,-3.8724,-1.0219,-1.6154,-585.69,1388.67,-550.11
410,-3.8727,-1.0625,-1.5936,1211.18,1247.99,-1487.55
420,-3.8729,-1.1108,-1.5757,8.06,29.17,903.14
430,-3.8733,-1.1720,-1.5343,1820.56,-1674.07,-174.99
440,-3.8735,-1.2421,-1.4594,1992.43,-377.32,-909.30
450,-3.8738,-1.3336,-1.3615,1023.68,1216.31,856.51
460,-3.8743,-1.4919,-1.2223,1304.93,1747.38,-1205.81
470,-3.8749,-1.7382,-1.0148,1039.31,-440.43,1747.56
480,-3.8446,-1.9492,-0.7478,1523.68,-1878.42,-673.89
490,-3.8456,-1.9510,-0.4623,-1491.94,293.03,1357.91
500,-3.8463,-1.7972,-0.2297,-1726.32,839.90,1186.58
510,-3.8466,-1.6996,-0.1108,1961.18,-1394.17,1905.76
520,-3.8464,-1.7469,-0.1033,-1538.82,1824.77,-484.62
530,-3.8461,-1.8583,-0.1448,398.68,-1206.54,-1187.74
540,-3.8457,-1.9344,-0.1870,-1851.32,1480.71,-1265.93
550,-3.8455,-1.9911,-0.2343,398.68,74.34,-422.24
560,-3.8452,-2.0598,-0.2755,1148.68,-1972.66,562.01
570,-3.8452,-2.0919,-0.2729,351.81,745.97,-953.67
580,-3.8452,-2.0433,-0.2164,242.43,1074.04,-891.17
590,-3.8452,-1.9304,-0.1278,-1538.82,308.47,390.20
600,-3.8455,-1.7999,-0.0398,914.31,-347.53,-984.68
610,-3.8456,-1.6797,0.0172,1617.43,-1081.67,124.88
620,-3.8458,-1.5771,0.0220,1008.06,-1784.55,-1031.25
630,-3.8458,-1.4937,-0.0177,-1866.94,-1174.99,-1546.88
640,-3.8457,-1.4213,-0.0809,820.56,1747.07,-1890.69
650,-3.8455,-1.3516,-0.1569,-1913.82,1653.44,15.44
660,-3.8453,-1.2899,-0.2308,-991.94,-65.19,-547.24
670,-3.8450,-1.2555,-0.2865,-1101.32,-1533.81,983.89
680,-3.8446,-1.2612,-0.3232,-695.07,-658.75,296.26
690,-3.8444,-1.3002,-0.3556,-1429.44,-1361.88,-1391.30
700,-3.8441,-1.3502,-0.3982,1586.18,-1502.56,1686.77
710,-3.8440,-1.3895,-0.4534,-820.07,1044.19,-1703.92
720,-3.8439,-1.4095,-0.5195,-1851.32,1981.63,-1454.04
730,-3.8750,-1.4150,-0.6034,-413.82,1512.82,-344.79
740,-3.8748,-1.4146,-0.6969,-1116.94,-1221.56,1420.65
750,-3.8746,-1.4192,-0.7701,-1054.44,-1190.31,-1251.40
760,-3.8745,-1.4283,-0.8197,-1648.19,1434.69,-939.03
770,-3.8744,-1.4227,-0.8781,1179.93,-909.06,-1954.77
780,-3.8743,-1.3900,-0.9736,1898.68,-377.81,654.48
790,-3.8741,-1.3313,-1.1029,-1913.82,-612.12,1732.42
800,-3.8739,-1.2371,-1.2285,1601.81,-1158.87,-1877.20
810,-3.8737,-1.0974,-1.3105,1664.31,-1236.82,-205.57
820,-3.8733,-0.9419,-1.3434,-460.69,263.43,419.31
830,-3.8732,-0.8203,-1.3538,-554.44,60.61,-533.87
840,-3.8729,-0.7531,-1.3665,-991.94,-1267.27,1122.31
850,-3.8728,-0.7273,-1.3888,-382.57,1107.85,1481.69
860,-3.8727,-0.7301,-1.4237,-1085.69,-1751.46,1622.25
870,-3.8726,-0.7657,-1.4830,-1445.07,1779.79,-846.56
880,-3.8723,-0.8203,-1.5612,1992.43,-1814.03,-1815.43
890,-3.8721,-0.8552,-1.6250,-991.94,185.85,575.07
900,-3.8719,-0.8573,-1.6624,-1460.69,13.92,481.20
910,-3.8719,-0.8456,-1.6805,-1726.32,-767.33,-1925.17
920,-3.8719,-0.8506,-1.6945,-226.32,904.54,-1003.30
930,-3.8719,-0.8921,-1.7281,-866.94,-876.71,-315.86
940,-3.8719,-0.9551,-1.7714,1820.56,-1189.27,-1940.92
950,-3.8721,-1.0057,-1.8016,1758.06,1279.36,1246.52
960,-3.8723,-1.0190,-1.8190,-726.32,1404.24,902.71
970,-3.8727,-0.9771,-1.8160,1570.56,-814.51,1043.27
980,-3.8730,-0.8701,-1.7986,-1054.44,-439.45,-1347.35
990,-3.8730,-0.7142,-1.7949,633.06,1795.17,965.21
1000,-3.8728,-0.5258,-1.8037,586.18,-1735.78,-722.29
1010,-3.8722,-0.3043,-1.7819,711.18,1139.59,-1456.67
1020,-3.8715,-0.0496,-1.7347,1054.93,-63.11,1512.08
1030,-3.8707,0.2371,-1.7360,1664.31,1968.63,-1128.42
1040,-3.8699,0.5499,-1.7922,-1648.19,1797.30,-519.04
1050,-3.8690,0.8713,-1.8070,-1601.32,-1405.21,-1472.29
1060,-3.8685,1.1688,-1.6986,-460.69,704.77,-1800.42
1070,-3.8685,1.4023,-1.4761,1617.43,-1419.62,-1222.11
1080,-3.8688,1.5531,-1.2222,-491.94,-934.81,-1221.68
1090,-3.8690,1.6224,-1.0233,-1195.07,-434.51,-721.19
1100,-3.8690,1.6155,-0.9087,-320.07,1018.74,466.74
1110,-3.8690,1.5537,-0.8420,-1210.69,-309.39,1482.54
1120,-3.8689,1.4585,-0.7882,-1116.94,221.74,1185.85
1130,-3.8687,1.3499,-0.7633,-1304.44,-887.82,623.41
1140,-3.8683,1.2556,-0.7979,789.31,-1700.50,795.35
1150,-3.8678,1.1854,-0.8990,726.81,1877.44,748.41
1160,-3.8673,1.1354,-1.0142,-257.57,924.13,1904.48
1170,-3.8668,1.1124,-1.0626,1336.18,-1810.30,29.24
1180,-3.8667,1.1155,-1.0248,-1601.32,-13.49,1732.24
1190,-3.8669,1.1259,-0.9330,-1210.69,830.26,-689.51
1200,-3.8674,1.1263,-0.8257,117.43,580.32,1357.54
1210,-3.8682,1.1125,-0.7369,179.93,-1685.30,123.35
1220,-3.8690,1.0834,-0.6873,-1585.69,1674.01,1311.04
1230,-3.8698,1.0270,-0.6791,-1320.07,33.33,1045.53
1240,-3.8704,0.9402,-0.6912,-538.82,1080.08,1295.53
1250,-3.8708,0.8385,-0.7047,351.81,-466.92,-876.40
1260,-3.8711,0.7421,-0.7227,-663.82,1798.46,-1704.53
1270,-3.8712,0.6667,-0.7643,-1007.57,-498.60,-1048.34
1280,-3.8711,0.6140,-0.8450,1351.81,-1826.84,967.22
1290,-3.8710,0.5691,-0.9515,-1398.19,-155.09,-1751.71
1300,-3.8708,0.5103,-1.0513,851.81,-1795.78,-626.89
1310,-3.8707,0.4229,-1.1207,1320.56,1438.48,1732.30
1320,-3.8707,0.3125,-1.1465,-1866.94,547.67,669.68
1330,-3.8708,0.2019,-1.1260,8.06,1250.61,263.37
1340,-3.8711,0.1069,-1.0862,1851.81,-124.63,-1955.38
1350,-3.8712,0.0337,-1.0630,1695.56,968.93,716.61
1360,-3.8713,-0.0073,-1.0715,320.56,-62.44,-1845.89
1370,-3.8713,-0.0038,-1.1064,-929.44,-1140.69,-595.89
1380,-3.8712,0.0391,-1.1666,-476.32,-1609.44,-205.32
1390,-3.8710,0.0930,-1.2449,1008.06,-1328.06,903.93
1400,-3.8708,0.1227,-1.3224,-85.69,656.37,778.81
1410,-3.8708,0.1077,-1.3948,-288.82,-1265.44,-1096.37
1420,-3.8708,0.0631,-1.4636,1789.31,1468.93,-549.62
1430,-3.8708,0.0271,-1.5183,86.18,656.37,1325.26
1440,-3.8711,0.0190,-1.5426,-523.19,1656.25,-1721.74
1450,-3.8715,0.0273,-1.5366,-1554.44,-1453.12,934.45
1460,-3.8721,0.0286,-1.5054,-491.94,-687.50,1590.70
1470,-3.8728,-0.0139,-1.4460,-335.69,-687.50,-1456.12
1480,-3.8734,-0.1503,-1.3730,-1773.19,-1078.19,778.38
1490,-3.8739,-0.4141,-1.3302,773.68,265.32,-1643.31
1500,-3.8740,-0.7827,-1.3466,-991.94,1749.15,-1862.00
1510,-3.8739,-1.1925,-1.3973,-179.44,-345.34,-1033.94
1520,-3.8734,-1.5486,-1.4363,-632.57,1153.87,12.88
1530,-3.8729,-1.7505,-1.4545,1789.31,168.82,-1580.93
1540,-3.8724,-1.7583,-1.4675,-54.44,1840.27,1653.38
1550,-3.8723,-1.6199,-1.4487,-1054.44,168.40,1778.38
1560,-3.8726,-1.4468,-1.3669,664.31,-1425.05,1544.01
1570,-3.8730,-1.3213,-1.2415,-1179.44,1044.01,1872.31
1580,-3.8735,-1.2543,-1.1143,-1116.94,1106.75,903.81
1590,-3.8740,-1.2317,-1.0229,-538.82,1388.12,-1002.20
1600,-3.8743,-1.2572,-0.9803,-1648.19,1075.68,1747.99
1610,-3.8744,-1.3510,-0.9668,-913.82,-1471.25,310.55
1620,-3.8745,-1.5170,-0.9637,-913.82,262.94,373.11
1630,-3.8748,-1.7676,-0.9309,1836.18,653.26,1044.98
1640,-3.8441,-2.1321,-0.7910,1758.06,855.90,-1533.08
1650,-3.8451,-2.4958,-0.5133,-898.19,-1238.59,873.41
1660,-3.8463,-2.6307,-0.1248,539.31,-1692.38,-454.16
1670,-3.8470,-2.4559,0.2568,-726.32,41.69,1702.88
1680,-3.8473,-2.1260,0.4707,1648.68,885.80,62.99
1690,-3.8472,-1.8384,0.4432,-116.94,261.41,-1983.46
1700,-3.8466,-1.6500,0.2163,695.56,746.40,1016.48
1710,-3.8457,-1.5236,-0.0707,804.93,-300.11,203.49
1720,-3.8448,-1.4164,-0.2821,992.43,-1034.24,843.57
1730,-3.8441,-1.3278,-0.3687,-1288.82,-96.56,296.26
1740,-3.8750,-1.2968,-0.3638,-1945.07,825.50,-1203.86
1750,-3.8748,-1.3278,-0.3243,-1976.32,1450.56,1702.39
1760,-3.8746,-1.3538,-0.2725,-1945.07,-1502.62,389.95
1770,-3.8746,-1.3120,-0.2139,-1273.19,1137.94,483.83
1780,-3.8748,-1.2045,-0.1630,70.56,638.06,-1953.55
1790,-3.8749,-1.0793,-0.1349,1836.18,-846.13,1468.38
1800,-3.8750,-0.9862,-0.1438,1851.81,-1252.14,734.07
1810,-3.8439,-0.9502,-0.1946,1773.68,1607.42,-828.43
1820,-3.8750,-0.9670,-0.2729,-1616.94,-892.52,-844.18
1830,-3.8748,-1.0204,-0.3560,226.81,1076.23,-188.05
1840,-3.8744,-1.0891,-0.4290,1398.68,-1548.89,-703.86
1850,-3.8739,-1.1421,-0.4944,601.81,1107.24,358.52
1860,-3.8735,-1.1567,-0.5455,1820.56,732.12,811.52
1870,-3.8733,-1.1448,-0.5670,-54.44,-1814.82,-1344.85
1880,-3.8730,-1.1339,-0.5632,1476.81,-564.76,1420.72
1890,-3.8729,-1.1381,-0.5475,-1132.57,-80.38,826.97
1900,-3.8729,-1.1544,-0.5408,-1663.82,1935.24,1139.53
1910,-3.8730,-1.1682,-0.5648,242.43,-1205.38,-219.85
1920,-3.8730,-1.1628,-0.6204,-1523.19,-283.57,-1329.28
1930,-3.8730,-1.1361,-0.6954,-835.69,607.06,-954.35
1940,-3.8729,-1.1017,-0.7782,-1413.82,-1002.26,1670.47
1950,-3.8728,-1.0792,-0.8584,-1007.57,404.05,-1157.78
1960,-3.8726,-1.0881,-0.9272,1867.43,-1861.51,1529.54
1970,-3.8724,-1.1270,-0.9669,726.81,1325.99,-79.96
1980,-3.8723,-1.1665,-0.9675,-241.94,247.74,-439.39
1990,-3.8723,-1.1816,-0.9474,-1304.44,169.56,-1064.39
2000,-3.8724,-1.1705,-0.9304,758.06,-1252.32,-595.64
2010,-3.8726,-1.1404,-0.9298,-1820.07,919.56,-564.33
2020,-3.8726,-1.0956,-0.9487,-1960.69,997.74,388.79
2030,-3.8727,-1.0454,-0.9834,-226.32,-1424.07,-1736.27
2040,-3.8727,-1.0046,-1.0312,-1804.44,-1861.45,1513.67
2050,-3.8727,-0.9801,-1.0938,-585.69,13.61,1701.11
2060,-3.8727,-0.9709,-1.1702,-1445.07,13.67,1357.24
2070,-3.8728,-0.9681,-1.2632,-273.19,-1767.58,-33.57
2080,-3.8728,-0.9513,-1.3739,86.18,-1673.77,-1643.13
2090,-3.8728,-0.9017,-1.4939,-1757.57,154.36,1278.56
2100,-3.8728,-0.8153,-1.6084,586.18,795.10,809.57
2110,-3.8728,-0.6954,-1.7009,-351.32,-1861.02,1793.70
2120,-3.8727,-0.5465,-1.7642,-1007.57,-1704.53,1152.89
2130,-3.8726,-0.3779,-1.7942,-1945.07,-1797.97,-1565.98
2140,-3.8723,-0.1887,-1.7739,-366.94,-1641.42,652.71
2150,-3.8722,0.0156,-1.7067,-148.19,952.70,-644.10
2160,-3.8719,0.2266,-1.6107,-1991.94,1546.88,-1253.36
2170,-3.8717,0.4454,-1.4708,1008.06,1828.55,-909.42
2180,-3.8713,0.6770,-1.2803,1023.68,-264.77,1934.57
2190,-3.8708,0.9308,-1.0953,-1335.69,126.28,247.50
2200,-3.8705,1.1963,-0.9612,-851.32,-201.35,-939.70
2210,-3.8701,1.4338,-0.8575,1133.06,971.07,-1017.52
2220,-3.8699,1.6003,-0.7474,-460.69,-1762.88,1935.79
2230,-3.8699,1.6787,-0.6298,851.81,331.24,-1517.09
2240,-3.8700,1.6656,-0.5349,-1116.94,-606.14,514.34
2250,-3.8704,1.5699,-0.4799,1211.18,-465.52,-1907.35
2260,-3.8707,1.4216,-0.4623,961.18,-1418.82,-688.48
2270,-3.8708,1.2649,-0.4749,1976.81,830.87,327.21
2280,-3.8710,1.1384,-0.5087,1914.31,-778.81,-766.60
2290,-3.8708,1.0585,-0.5583,1726.81,-1107.18,-16.66
2300,-3.8705,1.0214,-0.6167,-507.57,533.26,1077.03
2310,-3.8702,1.0189,-0.6691,-1257.57,1064.45,-688.72
2320,-3.8699,1.0291,-0.7134,-1570.07,-1638.67,279.91
2330,-3.8696,1.0270,-0.7397,-273.19,689.45,139.22
2340,-3.8695,1.0123,-0.7238,-538.82,1314.45,-657.71
2350,-3.8693,0.9985,-0.6835,1586.18,-638.67,1748.54
2360,-3.8691,0.9954,-0.6654,-179.44,517.52,-673.22
2370,-3.8690,1.0034,-0.6772,-585.69,-1169.98,-532.59
2380,-3.8689,1.0171,-0.6963,445.56,1314.45,279.91
2390,-3.8691,1.0302,-0.7021,-1804.44,-1123.05,-282.65
2400,-3.8694,1.0404,-0.6882,-132.57,-1873.05,1248.60
2410,-3.8699,1.0519,-0.6713,1179.93,-91.74,-782.65
2420,-3.8702,1.0602,-0.6780,-1351.32,-1919.86,1748.66
2430,-3.8706,1.0493,-0.7197,-288.82,1220.76,-438.84
2440,-3.8707,1.0044,-0.7845,-1679.44,-122.99,795.41
2450,-3.8708,0.9235,-0.8568,570.56,-419.92,326.54
2460,-3.8710,0.8196,-0.9301,-1788.82,-1670.10,888.92
2470,-3.8711,0.7072,-1.0067,914.31,954.71,1779.42
2480,-3.8712,0.5890,-1.0828,-1476.32,-858.03,-861.39
2490,-3.8712,0.4631,-1.1547,-601.32,1407.35,1388.49
2500,-3.8712,0.3341,-1.2310,-710.69,203.98,1169.62
2510,-3.8712,0.2145,-1.2980,-1226.32,-1561.89,-1549.32
2520,-3.8711,0.1185,-1.3391,-538.82,1859.74,356.81
2530,-3.8711,0.0455,-1.3687,-820.07,593.93,-1955.75
2540,-3.8711,-0.0225,-1.3973,1836.18,812.56,-1533.94
2550,-3.8711,-0.1011,-1.4286,1133.06,1156.19,1700.38
2560,-3.8711,-0.1831,-1.4786,-929.44,1156.01,-1580.93
2570,-3.8710,-0.2450,-1.5410,570.56,-1250.37,1512.70
2580,-3.8708,-0.2725,-1.5941,648.68,-1234.86,1387.57
2590,-3.8707,-0.2655,-1.6335,1133.06,-31.80,621.83
2600,-3.8707,-0.2289,-1.6597,-1976.32,-1078.67,1153.02
2610,-3.8708,-0.1610,-1.6643,-1288.82,-422.36,402.95
2620,-3.8713,-0.0551,-1.6337,-601.32,-1015.99,-487.67
2630,-3.8721,0.0607,-1.5537,961.18,-1093.87,-831.36
2640,-3.8730,0.1184,-1.4248,-226.32,1125.06,1621.95
2650,-3.8740,0.0670,-1.2943,-835.69,1625.18,1403.44
2660,-3.8746,-0.1105,-1.2512,586.18,-1671.75,1106.81
2670,-3.8748,-0.4016,-1.3661,1867.43,-140.87,1966.25
2680,-3.8744,-0.7487,-1.6079,601.81,1155.46,-565.19
2690,-3.8735,-1.0522,-1.8503,179.93,-1798.34,528.08
2700,-3.8727,-1.2413,-1.9937,1320.56,-830.20,121.34
2710,-3.8722,-1.3256,-2.0009,1117.43,825.68,-1597.66
2720,-3.8721,-1.3589,-1.8748,-1663.82,-96.37,277.28
2730,-3.8726,-1.4012,-1.6733,-1929.44,44.19,-581.79
2740,-3.8732,-1.4934,-1.4760,648.68,1825.38,-1425.17
2750,-3.8738,-1.6335,-1.3237,851.81,-909.18,75.20
2760,-3.8745,-1.8146,-1.1914,-1085.69,-1425.11,1825.50
2770,-3.8440,-2.0941,-1.0112,-257.57,-487.98,1528.87
2780,-3.8448,-2.4663,-0.7302,-38.82,-1426.03,1732.36
2790,-3.8457,-2.7350,-0.3999,320.56,-1457.95,-735.84
2800,-3.8462,-2.7646,-0.1477,1929.93,822.75,-1875.79
2810,-3.8462,-2.6141,-0.0625,-1866.94,1103.94,1171.57
2820,-3.8458,-2.4091,-0.1459,1398.68,10.50,-406.37
2830,-3.8451,-2.2189,-0.3047,-351.32,1338.99,-1609.68
2840,-3.8444,-2.0474,-0.4308,-7.57,1011.23,-766.24
2850,-3.8750,-1.9098,-0.4756,1945.56,870.97,-860.23
2860,-3.8746,-1.8127,-0.4412,-445.07,-863.16,77.15
2870,-3.8748,-1.7346,-0.3561,-23.19,-456.73,280.33
2880,-3.8440,-1.6548,-0.2522,1976.81,-1565.92,-219.48
2890,-3.8444,-1.5728,-0.1530,195.56,-268.86,936.95
2900,-3.8447,-1.4901,-0.0758,-1304.44,434.39,390.32
2910,-3.8451,-1.4083,-0.0286,1273.68,-1690.43,-797.06
2920,-3.8452,-1.3367,-0.0142,-257.57,356.57,906.19
2930,-3.8453,-1.2849,-0.0406,914.31,-1799.50,-1843.81
2940,-3.8453,-1.2555,-0.1132,-460.69,-1190.06,-218.87
2950,-3.8451,-1.2410,-0.2076,-695.07,1528.75,1765.38
2960,-3.8448,-1.2333,-0.3010,1164.31,1435.06,-1172.30
2970,-3.8445,-1.2272,-0.3942,-1851.32,1481.93,1468.14
2980,-3.8441,-1.2107,-0.4766,-1070.07,1560.06,671.08
2990,-3.8439,-1.1827,-0.5271,1039.31,-986.76,-1235.35
3000,-3.8749,-1.1606,-0.5455,617.43,544.56,-1954.16
3010,-3.8748,-1.1605,-0.5504,-554.44,-1814.82,-1751.10
3020,-3.8748,-1.1813,-0.5571,-538.82,1560.18,-32.35
3030,-3.8748,-1.2040,-0.5764,804.93,700.81,-94.85
3040,-3.8748,-1.2142,-0.6289,1898.68,-1768.01,-876.16
3050,-3.8748,-1.2120,-0.7285,586.18,-486.76,-79.41
3060,-3.8746,-1.1985,-0.8462,867.43,-1236.76,-95.21
3070,-3.8744,-1.1776,-0.9384,-1398.19,-299.26,-1111.08
3080,-3.8741,-1.1594,-0.9956,1273.68,-96.07,-361.27
3090,-3.8739,-1.1478,-1.0370,-398.19,575.81,-392.58
3100,-3.8737,-1.1399,-1.0720,1086.18,-721.01,60.42
3110,-3.8737,-1.1235,-1.0953,-1898.19,-1205.38,935.36
3120,-3.8738,-1.0890,-1.1088,195.56,-189.70,-424.07
3130,-3.8738,-1.0414,-1.1335,617.43,-1908.39,779.05
3140,-3.8739,-0.9930,-1.1993,-1288.82,-1080.20,1950.87
3150,-3.8739,-0.9474,-1.3214,898.68,-1501.95,1060.12
3160,-3.8739,-0.8982,-1.4891,-1257.57,-1126.89,-1533.87
3170,-3.8738,-0.8403,-1.6687,1039.31,1404.48,1043.95
3180,-3.8737,-0.7692,-1.8270,445.56,-1579.77,527.95
3190,-3.8735,-0.6808,-1.9609,1554.93,-1845.28,1246.40
3200,-3.8734,-0.5804,-2.0714,867.43,1014.28,-1472.60
3210,-3.8733,-0.4750,-2.1437,1711.18,-1126.16,-1254.09
3220,-3.8732,-0.3623,-2.1559,-788.82,1624.02,1620.79
3230,-3.8730,-0.2206,-2.0848,1633.06,61.77,-1910.46
3240,-3.8727,-0.0220,-1.9452,-226.32,1155.76,277.16
3250,-3.8722,0.2280,-1.7893,1195.56,-968.81,699.28
3260,-3.8717,0.4913,-1.6443,1195.56,-1030.82,-1097.29
3270,-3.8712,0.7439,-1.5001,-1101.32,1532.17,1871.77
3280,-3.8708,0.9960,-1.3444,-773.19,-14.22,418.88
3290,-3.8706,1.2633,-1.2000,-507.57,-76.23,1887.94
3300,-3.8702,1.5201,-1.1110,1711.18,-1591.31,153.87
3310,-3.8700,1.7028,-1.0817,-1413.82,1799.80,-1892.82
3320,-3.8696,1.7726,-1.0787,1961.18,1550.17,669.74
3330,-3.8694,1.7419,-1.0765,-1101.32,1925.29,-1095.89
3340,-3.8691,1.6429,-1.0605,-1023.19,-1793.52,919.74
3350,-3.8691,1.5048,-1.0211,-1695.07,253.17,841.67
3360,-3.8694,1.3511,-0.9618,617.43,1299.80,-220.76
3370,-3.8695,1.2045,-0.8992,945.56,893.25,1763.73
3380,-3.8696,1.0903,-0.8558,-1820.07,908.57,-564.27
3390,-3.8695,1.0239,-0.8441,-429.44,-1544.80,-782.96
3400,-3.8691,1.0024,-0.8584,-929.44,-44.92,107.67
3410,-3.8689,1.0055,-0.8844,320.56,-1873.05,-1204.83
3420,-3.8685,1.0115,-0.9094,711.18,-1201.17,1591.98
3430,-3.8682,1.0121,-0.9408,1476.81,-404.30,185.67
3440,-3.8679,1.0181,-0.9855,1554.93,-419.92,-1955.02
3450,-3.8678,1.0424,-1.0084,-1679.44,1861.33,-205.08
3460,-3.8678,1.0725,-0.9819,1429.93,-1076.11,826.11
3470,-3.8683,1.0874,-0.9318,1289.31,-1685.42,-1.95
3480,-3.8689,1.0754,-0.8947,-804.44,736.45,-376.83
3490,-3.8695,1.0326,-0.8894,1664.31,1486.45,638.85
3500,-3.8702,0.9907,-0.9113,179.93,-1841.74,-17.40
3510,-3.8707,0.9531,-0.9370,-1179.44,-638.73,-298.71
3520,-3.8711,0.8893,-0.9596,-1991.94,64.33,-1658.08
3530,-3.8715,0.8005,-0.9929,1836.18,1173.58,-923.77
3540,-3.8717,0.6938,-1.0361,-1523.19,907.78,-1314.45
3550,-3.8718,0.5721,-1.0807,820.56,-623.66,1544.80
3560,-3.8718,0.4436,-1.1429,1242.43,1672.97,466.61
3570,-3.8718,0.3291,-1.2367,789.31,1703.98,-439.76
3580,-3.8717,0.2378,-1.3262,-1866.94,1703.74,-64.94
3590,-3.8716,0.1571,-1.3623,-1554.44,-1749.57,1513.00
3600,-3.8717,0.0715,-1.3490,117.43,1625.31,-1471.44
3610,-3.8718,-0.0183,-1.3214,1164.31,-671.75,606.69
3620,-3.8721,-0.0956,-1.3140,1664.31,-1125.06,-49.50
3630,-3.8721,-0.1459,-1.3472,-226.32,-172.12,-643.25
3640,-3.8719,-0.1765,-1.4075,1336.18,-422.18,1841.06
3650,-3.8718,-0.2075,-1.4640,1414.31,-140.99,747.19
3660,-3.8718,-0.2571,-1.5066,1445.56,624.57,-1643.49
3670,-3.8718,-0.3239,-1.5494,-898.19,-828.67,-1018.62
3680,-3.8717,-0.3762,-1.6108,-1445.07,1686.83,481.32
3690,-3.8717,-0.3862,-1.6794,-148.19,1827.33,-1112.55
3700,-3.8717,-0.3591,-1.7102,-1429.44,1046.08,-1565.80
3710,-3.8719,-0.3138,-1.6805,-1960.69,1108.64,-784.61
3720,-3.8724,-0.2693,-1.6035,-163.82,905.58,-815.80
3730,-3.8732,-0.2587,-1.4960,1539.31,-1234.92,-362.55
3740,-3.8739,-0.3201,-1.3802,-1101.32,530.70,-1440.43
3750,-3.8744,-0.4768,-1.3073,-960.69,-656.92,528.50
3760,-3.8746,-0.7152,-1.3109,-1023.19,686.52,-408.81
3770,-3.8744,-0.9824,-1.3644,461.18,217.35,-1861.94
3780,-3.8740,-1.2148,-1.4304,-1741.94,1373.05,-2.69
3790,-3.8734,-1.3638,-1.4987,508.06,919.49,-1284.06
3800,-3.8728,-1.4094,-1.5686,1445.56,184.81,-1815.43
3810,-3.8723,-1.3755,-1.6077,-398.19,-768.43,12.51
3820,-3.8723,-1.3157,-1.5662,-54.44,-1768.37,-237.55
3830,-3.8724,-1.2721,-1.4412,-398.19,-455.75,1418.76
3840,-3.8729,-1.2615,-1.2893,1179.93,-455.63,-284.12
3850,-3.8734,-1.2865,-1.1770,-1460.69,-1018.13,-1065.06
3860,-3.8739,-1.3481,-1.1116,-663.82,1356.81,-80.44
3870,-3.8741,-1.4619,-1.0677,-554.44,1731.69,1310.30
3880,-3.8745,-1.6735,-1.0034,883.06,-659.12,-220.89
3890,-3.8749,-2.0745,-0.8573,1804.93,-425.17,576.11
3900,-3.8445,-2.6223,-0.5707,-1523.19,-1722.84,-1142.33
3910,-3.8455,-2.9563,-0.1652,351.81,-1036.38,1670.72
3920,-3.8463,-2.8578,0.2111,1601.81,-1130.80,1702.76
3930,-3.8467,-2.5343,0.4214,-1788.82,-974.37,-124.63
3940,-3.8463,-2.2506,0.4196,-382.57,1948.12,-952.33
3950,-3.8455,-2.0979,0.2428,-70.07,1714.29,375.79
3960,-3.8446,-2.0391,0.0029,-523.19,-910.40,1547.30
3970,-3.8439,-2.0035,-0.1858,-991.94,386.60,-1671.88
3980,-3.8746,-1.9390,-0.2744,-445.07,230.41,-640.99
3990,-3.8744,-1.8247,-0.2684,-179.44,886.78,-578.67
4000,-3.8744,-1.6610,-0.1946,-1554.44,1652.65,-1906.80
4010,-3.8746,-1.4766,-0.0977,-601.32,-893.92,1327.70
4020,-3.8750,-1.3097,-0.0258,-991.94,-487.30,-1656.49
4030,-3.8440,-1.1913,0.0040,367.43,716.19,-1921.94
4040,-3.8441,-1.1385,0.0050,-476.32,528.87,1578.12
4050,-3.8442,-1.1439,-0.0096,-1726.32,653.99,-687.50
4060,-3.8442,-1.1772,-0.0420,1586.18,-1221.01,-1656.31
4070,-3.8442,-1.2067,-0.1019,1320.56,-1361.69,-1047.00
4080,-3.8441,-1.2253,-0.1980,1554.93,-1033.63,-1562.74
4090,-3.8439,-1.2426,-0.3160,-835.69,-1330.57,-1844.18
4100,-3.8748,-1.2601,-0.4224,961.18,-439.94,1327.45
4110,-3.8744,-1.2740,-0.4990,-1288.82,1950.62,764.77
4120,-3.8741,-1.2793,-0.5498,929.93,138.12,-1954.10
4130,-3.8739,-1.2708,-0.5869,258.06,1638.12,1045.78
4140,-3.8738,-1.2482,-0.6201,1351.81,888.12,1623.84
4150,-3.8738,-1.2135,-0.6666,242.43,638.18,-641.85
4160,-3.8738,-1.1703,-0.7365,679.93,-1314.88,-48.22
4170,-3.8737,-1.1183,-0.8168,-1788.82,1747.68,1764.16
4180,-3.8735,-1.0548,-0.8773,867.43,-533.45,420.23
4190,-3.8735,-0.9957,-0.8907,992.43,-283.33,-1954.90
4200,-3.8735,-0.9644,-0.8732,554.93,1998.05,-1220.52
4210,-3.8735,-0.9657,-0.8640,570.56,248.11,-267.33
4220,-3.8734,-0.9838,-0.8787,398.68,1419.98,1170.17
4230,-3.8734,-1.0052,-0.9031,-1913.82,-455.08,-1267.40
4240,-3.8734,-1.0339,-0.9465,-663.82,419.86,-533.02
4250,-3.8734,-1.0673,-1.0372,-335.69,-1142.70,-517.52
4260,-3.8733,-1.0851,-1.1703,-601.32,-752.14,1544.80
4270,-3.8732,-1.0745,-1.3213,1117.43,-1783.39,-1283.57
4280,-3.8729,-1.0487,-1.4556,-1523.19,-1111.51,481.75
4290,-3.8728,-1.0223,-1.5459,1773.68,1701.05,809.63
4300,-3.8727,-0.9845,-1.6135,1148.68,-1861.39,200.07
4310,-3.8727,-0.9196,-1.7029,1992.43,1482.42,-34.42
4320,-3.8726,-0.8247,-1.8171,-1695.07,-1954.96,-487.73
4330,-3.8724,-0.7073,-1.9197,-1554.44,-579.77,1105.77
4340,-3.8726,-0.5695,-1.9794,1476.81,-1704.53,-285.03
4350,-3.8727,-0.4030,-1.9800,-882.57,-1344.91,-35.16
4360,-3.8727,-0.2006,-1.9139,429.93,-1422.67,1636.72
4370,-3.8726,0.0420,-1.7909,-1663.82,-969.18,-1206.91
4380,-3.8719,0.3328,-1.6405,1383.06,-1234.31,43.33
4390,-3.8711,0.6782,-1.5288,-1398.19,-1983.76,-1003.23
4400,-3.8699,1.0540,-1.4908,-1179.44,313.78,-190.49
4410,-3.8685,1.4056,-1.4781,-1085.69,1173.89,418.95
4420,-3.8677,1.6829,-1.4246,-70.07,-1200.44,-893.55
4430,-3.8672,1.8541,-1.2963,-585.69,1659.48,-518.43
4440,-3.8671,1.9347,-1.1416,1336.18,-1918.27,-565.06
4450,-3.8672,1.9435,-1.0151,-351.32,1878.72,-392.88
4460,-3.8673,1.8746,-0.9064,773.68,-1933.72,326.11
4470,-3.8676,1.7550,-0.7960,-38.82,-12.02,466.92
4480,-3.8678,1.6268,-0.6935,648.68,-1887.21,1045.29
4490,-3.8679,1.5199,-0.6351,242.43,-762.45,561.10
4500,-3.8679,1.4445,-0.6473,-1445.07,-1293.95,-1720.03
4510,-3.8677,1.3835,-0.7307,898.68,1143.43,-1454.41
4520,-3.8673,1.3177,-0.8628,1101.81,-1528.56,-1767.09
4530,-3.8669,1.2449,-0.9814,679.93,1565.06,279.54
4540,-3.8669,1.1653,-1.0160,-648.19,-1622.62,-814.45
4550,-3.8672,1.0787,-0.9609,1164.31,1955.38,-1205.14
4560,-3.8678,0.9855,-0.8699,-1913.82,1002.08,-939.39
4570,-3.8685,0.8877,-0.8024,-1851.32,658.14,1967.04
4580,-3.8693,0.8021,-0.7899,1633.06,1298.58,-689.09
4590,-3.8698,0.7432,-0.8175,-1320.07,-1107.85,-1782.84
4600,-3.8701,0.7064,-0.8604,-866.94,-639.22,1763.98
4610,-3.8704,0.6814,-0.9133,-1570.07,1876.34,560.79
4620,-3.8706,0.6570,-0.9598,-773.19,-904.97,779.42
4630,-3.8708,0.6182,-0.9871,101.81,1141.91,591.86
4640,-3.8712,0.5526,-1.0021,-866.94,1657.41,-189.45
4650,-3.8715,0.4570,-1.0189,-1257.57,-264.59,-673.89
4660,-3.8716,0.3436,-1.0555,-1491.94,1578.98,951.11
4670,-3.8717,0.2405,-1.1001,-7.57,891.24,-1127.08
4680,-3.8716,0.1613,-1.1184,-1210.69,-812.07,763.43
4690,-3.8716,0.1022,-1.1134,648.68,844.06,-33.45
4700,-3.8715,0.0549,-1.1167,1086.18,1484.56,-1892.82
4710,-3.8715,0.0068,-1.1399,-960.69,1062.56,-1533.45
4720,-3.8715,-0.0491,-1.1731,883.06,-1906.25,1669.62
4730,-3.8715,-0.1086,-1.2163,1726.81,1859.25,841.43
4740,-3.8715,-0.1638,-1.2788,-1898.19,327.88,-1564.88
4750,-3.8712,-0.2164,-1.3556,-960.69,327.76,60.00
4760,-3.8711,-0.2648,-1.4261,304.93,-1500.43,-127.69
4770,-3.8708,-0.2869,-1.4634,-1882.57,1468.20,1965.94
4780,-3.8708,-0.2698,-1.4640,-710.69,702.51,-737.24
4790,-3.8710,-0.2350,-1.4420,1476.81,624.45,903.38
4800,-3.8715,-0.2306,-1.3979,1929.93,-562.99,1278.38
4810,-3.8721,-0.3035,-1.3459,-1507.57,1077.64,497.25
4820,-3.8727,-0.4628,-1.3137,1164.31,-266.24,-1065.19
4830,-3.8729,-0.6764,-1.3083,773.68,-141.54,-1237.00
4840,-3.8728,-0.8903,-1.3197,1429.93,545.53,1294.31
4850,-3.8726,-1.0636,-1.3412,-1945.07,-908.02,-205.75
4860,-3.8721,-1.1826,-1.3723,-132.57,341.61,1966.13
4870,-3.8716,-1.2454,-1.4102,633.06,357.06,466.06
4880,-3.8713,-1.2599,-1.4144,601.81,-486.82,-487.18
4890,-3.8712,-1.2506,-1.3398,-1257.57,-1033.75,-174.68
4900,-3.8713,-1.2361,-1.1995,-70.07,513.12,-268.25
4910,-3.8716,-1.2107,-1.0520,1789.31,-1518.07,122.62
4920,-3.8721,-1.1742,-0.9504,1039.31,1356.99,888.55
4930,-3.8726,-1.1411,-0.8906,1711.18,-1642.94,1919.98
4940,-3.8729,-1.1338,-0.8342,1945.56,-1986.63,1779.48
4950,-3.8732,-1.1910,-0.7770,-1116.94,1232.12,1154.60
4960,-3.8734,-1.3397,-0.7119,-445.07,560.12,-1798.40
4970,-3.8737,-1.5779,-0.5927,523.68,888.00,1732.97
4980,-3.8740,-1.8582,-0.4069,-1960.69,153.14,14.47
4990,-3.8748,-2.0834,-0.1897,-1835.69,-66.16,-828.98
5000,-3.8441,-2.1858,0.0153,1336.18,-269.71,312.07
5010,-3.8446,-2.1462,0.1547,226.81,1964.48,-1578.12
5020,-3.8446,-2.0063,0.1771,1289.31,-191.71,-281.01
5030,-3.8441,-1.8542,0.0929,-804.44,-1316.47,0.31
5040,-3.8749,-1.7367,-0.0236,-1335.69,-97.41,500.12
5050,-3.8745,-1.6556,-0.1027,1711.18,996.58,-187.56
5060,-3.8741,-1.5979,-0.1075,86.18,-1128.23,859.13
5070,-3.8741,-1.5514,-0.0430,-523.19,-1753.17,1109.13
5080,-3.8744,-1.5159,0.0402,1429.93,-1487.43,1765.50
5090,-3.8748,-1.5009,0.0907,1976.81,1153.26,-781.19
5100,-3.8750,-1.5043,0.1006,-101.32,-377.99,-1484.25
5110,-3.8439,-1.5057,0.0842,-538.82,887.63,1609.56
5120,-3.8440,-1.4963,0.0490,-726.32,-1206.12,-203.00
5130,-3.8439,-1.4866,-0.0017,476.81,-1721.68,1296.94
5140,-3.8750,-1.4854,-0.0581,1726.81,-206.05,-1968.81
5150,-3.8748,-1.4895,-0.1111,1883.06,575.20,15.50
5160,-3.8746,-1.4906,-0.1599,1351.81,1793.95,1671.63
5170,-3.8745,-1.4807,-0.1978,1211.18,-456.05,-1765.99
5180,-3.8744,-1.4640,-0.2279,-1523.19,-1299.80,1640.20
5190,-3.8743,-1.4573,-0.2836,617.43,-1159.12,593.26
5200,-3.8741,-1.4615,-0.3871,1476.81,-284.12,874.39
5210,-3.8740,-1.4595,-0.5103,929.93,-1534.12,-297.67
5220,-3.8738,-1.4465,-0.6112,1195.56,-1299.74,-157.29
5230,-3.8735,-1.4314,-0.6796,-1148.19,1778.38,-1001.22
5240,-3.8734,-1.4121,-0.7252,789.31,1028.44,-48.22
5250,-3.8733,-1.3779,-0.7637,-741.94,-815.31,-1392.09
5260,-3.8733,-1.3341,-0.8142,-366.94,-1737.12,-970.28
5270,-3.8733,-1.2991,-0.8885,1242.43,-205.75,-1814.15
5280,-3.8733,-1.2694,-0.9708,1726.81,-1721.31,-1658.02
5290,-3.8732,-1.2249,-1.0364,1523.68,-252.50,1044.92
5300,-3.8730,-1.1622,-1.0903,-773.19,-643.07,1919.80
5310,-3.8729,-1.0957,-1.1530,-757.57,450.81,-455.26
5320,-3.8728,-1.0393,-1.2179,-241.94,435.30,-346.01
5330,-3.8727,-1.0043,-1.2595,-1023.19,122.92,919.49
5340,-3.8727,-0.9943,-1.2800,-538.82,-1205.14,200.62
5350,-3.8728,-1.0065,-1.3049,742.43,169.92,-877.50
5360,-3.8728,-1.0323,-1.3514,-820.07,982.36,-1580.69
5370,-3.8728,-1.0533,-1.4233,-132.57,-970.83,1512.94
5380,-3.8728,-1.0505,-1.5137,1179.93,1826.05,1044.07
5390,-3.8728,-1.0156,-1.6168,1539.31,-1736.45,-471.74
5400,-3.8726,-0.9478,-1.7035,-1991.94,1060.49,74.95
5410,-3.8726,-0.8473,-1.7321,-1304.44,1966.86,-1097.11
5420,-3.8726,-0.7181,-1.7065,-445.07,-1689.21,-1737.79
5430,-3.8727,-0.5728,-1.6666,86.18,1576.72,-1050.23
5440,-3.8727,-0.4271,-1.6414,-1304.44,-1313.66,106.08
5450,-3.8727,-0.2783,-1.6073,1336.18,1921.02,1590.52
5460,-3.8724,-0.0972,-1.5535,383.06,-1719.30,-1409.42
5470,-3.8719,0.1312,-1.5171,-429.44,1171.63,-1253.05
5480,-3.8713,0.3837,-1.5077,804.93,1812.74,-1627.99
5490,-3.8707,0.6260,-1.5021,1117.43,-983.64,-1612.37
5500,-3.8701,0.8384,-1.4700,133.06,-264.40,450.13
5510,-3.8698,1.0232,-1.3894,-679.44,-154.66,1825.20
5520,-3.8695,1.1853,-1.2806,-1023.19,-1841.80,1512.88
5530,-3.8694,1.3065,-1.1884,-273.19,80.38,1247.50
5540,-3.8694,1.3617,-1.1281,-757.57,-106.87,-189.88
5550,-3.8693,1.3489,-1.0818,-1695.07,-388.00,-1392.88
5560,-3.8691,1.2935,-1.0225,664.31,1533.87,919.74
5570,-3.8691,1.2198,-0.9625,1570.56,1127.50,-1502.01
5580,-3.8691,1.1439,-0.9255,148.68,799.26,-189.39
5590,-3.8690,1.0803,-0.9150,-1570.07,1533.45,-1408.08
5600,-3.8688,1.0365,-0.9272,-1710.69,-1122.92,1341.92
5610,-3.8685,1.0237,-0.9418,679.93,1314.51,-923.71
5620,-3.8683,1.0510,-0.9417,-960.69,-544.92,-220.64
5630,-3.8682,1.1056,-0.9188,-1460.69,-529.24,-189.39
5640,-3.8682,1.1593,-0.8699,1523.68,-1607.24,1170.04
5650,-3.8684,1.1901,-0.8092,398.68,658.51,45.17
5660,-3.8689,1.1956,-0.7605,336.18,424.19,-1298.46
5670,-3.8694,1.1816,-0.7374,1039.31,-1341.43,-314.03
5680,-3.8698,1.1473,-0.7456,-741.94,1611.63,889.16
5690,-3.8702,1.0867,-0.7821,-1132.57,564.70,-563.96
5700,-3.8706,1.0017,-0.8247,-898.19,-107.30,-485.96
5710,-3.8708,0.9003,-0.8534,226.81,-1560.55,1373.35
5720,-3.8711,0.7871,-0.8739,-757.57,-1232.67,1248.29
5730,-3.8713,0.6646,-0.9003,758.06,142.15,-1079.83
5740,-3.8715,0.5371,-0.9403,1070.56,766.91,-939.27
5750,-3.8715,0.4111,-0.9840,758.06,-358.34,1841.86
5760,-3.8715,0.2925,-1.0056,633.06,-1952.33,1779.30
5770,-3.8715,0.1917,-1.0115,1445.56,-718.20,-1720.76
5780,-3.8715,0.1184,-1.0345,539.31,-1468.38,-158.26
5790,-3.8713,0.0759,-1.0782,-835.69,-421.69,-1564.58
5800,-3.8712,0.0576,-1.1228,1726.81,1984.50,1591.61
5810,-3.8711,0.0490,-1.1552,-616.94,281.31,263.43
5820,-3.8711,0.0406,-1.1804,-1726.32,140.69,1669.62
5830,-3.8711,0.0276,-1.2126,1211.18,906.31,-1721.07
5840,-3.8711,-0.0018,-1.2487,-460.69,781.25,-1236.76
5850,-3.8711,-0.0515,-1.2777,-226.32,187.44,-814.94
5860,-3.8711,-0.1173,-1.3004,1414.31,468.63,-580.63
5870,-3.8710,-0.1940,-1.3347,992.43,1562.26,528.69
5880,-3.8710,-0.2638,-1.3899,-820.07,1171.45,-565.12
5890,-3.8708,-0.2897,-1.4543,-1757.57,-1891.17,-909.00
5900,-3.8707,-0.2556,-1.5334,-1070.07,1858.76,1856.51
5910,-3.8708,-0.1876,-1.6006,-710.69,-266.17,-65.55
5920,-3.8711,-0.1262,-1.5883,-7.57,-859.80,715.58
5930,-3.8718,-0.1230,-1.4794,-148.19,718.44,-346.86
5940,-3.8726,-0.2147,-1.3206,258.06,-1343.99,1700.20
5950,-3.8732,-0.4076,-1.2095,523.68,-1016.05,591.13
5960,-3.8734,-0.6761,-1.2306,-163.82,1202.27,153.87
5970,-3.8733,-0.9619,-1.3763,1461.18,-1501.34,1763.18
5980,-3.8728,-1.1980,-1.5709,883.06,-158.14,-1221.50
5990,-3.8721,-1.3300,-1.7179,-1335.69,-1064.88,1309.39
6000,-3.8715,-1.3385,-1.7440,1773.68,122.38,981.02
6010,-3.8712,-1.2639,-1.6449,679.93,778.63,840.33
6020,-3.8716,-1.2017,-1.4767,-1773.19,1466.25,-159.48
6030,-3.8722,-1.2174,-1.3169,-1804.44,-1002.38,-1971.68
6040,-3.8729,-1.2909,-1.2164,179.93,-549.26,1106.75
6050,-3.8735,-1.3958,-1.1846,-1226.32,309.94,763.24
6060,-3.8740,-1.5603,-1.1907,1351.81,387.88,-486.69
6070,-3.8743,-1.8612,-1.1489,289.31,-393.68,-1924.26
6080,-3.8748,-2.3789,-0.9419,1773.68,949.46,1638.37
6090,-3.8446,-2.9315,-0.5269,-491.94,-551.57,-939.39
6100,-3.8461,-3.1228,-0.0258,773.68,572.39,-282.29
6110,-3.8472,-2.8961,0.3823,289.31,712.65,1484.31
6120,-3.8474,-2.5115,0.5450,1304.93,947.45,375.73
6130,-3.8468,-2.1975,0.3867,-1460.69,1776.31,1422.91
6140,-3.8457,-2.0389,0.0619,-1273.19,1511.29,1828.86
6150,-3.8446,-1.9825,-0.2032,-976.32,-66.53,-359.31
6160,-3.8749,-1.9454,-0.3097,-1757.57,1996.09,624.57
6170,-3.8745,-1.8630,-0.2535,-1007.57,371.15,702.51
6180,-3.8748,-1.7158,-0.0955,1539.31,-441.16,-1547.42
6190,-3.8440,-1.5338,0.0820,383.06,-206.48,1031.01
6200,-3.8446,-1.3691,0.2150,-320.07,-1487.43,-749.88
6210,-3.8450,-1.2690,0.2764,758.06,-471.44,-155.88
6220,-3.8451,-1.2507,0.2720,1570.56,-611.88,-1062.01
6230,-3.8451,-1.2861,0.2177,-85.69,-1174.38,-1577.64
6240,-3.8450,-1.3278,0.1278,-616.94,-127.56,1500.37
6250,-3.8448,-1.3536,0.0171,-1945.07,372.38,-15.38
6260,-3.8445,-1.3762,-0.1049,-1257.57,-1799.56,1515.62
6270,-3.8441,-1.4077,-0.2229,-148.19,-1409.00,1984.13
6280,-3.8750,-1.4435,-0.3075,-179.44,-518.43,-766.11
6290,-3.8746,-1.4760,-0.3586,-757.57,653.38,890.01
6300,-3.8745,-1.5027,-0.4153,-913.82,-1893.55,124.27
6310,-3.8746,-1.5225,-0.5061,-335.69,-1143.62,-922.73
6320,-3.8746,-1.5387,-0.6012,1133.06,-768.62,1311.46
6330,-3.8748,-1.5809,-0.6401,-945.07,-940.55,-798.10
6340,-3.8749,-1.6836,-0.6252,1648.68,-1924.99,-688.78
6350,-3.8750,-1.8306,-0.6149,508.06,-18.92,1045.59
6360,-3.8440,-1.9398,-0.6312,1695.56,1308.90,1826.90
6370,-3.8441,-1.9375,-0.6644,-288.82,-785.10,108.09
6380,-3.8442,-1.8368,-0.7308,8.06,-1035.03,-1751.34
6390,-3.8441,-1.7069,-0.8435,898.68,-1534.85,-1548.34
6400,-3.8750,-1.6012,-0.9863,1523.68,43.52,1217.10
6410,-3.8746,-1.5339,-1.1490,-945.07,1762.45,-111.33
6420,-3.8741,-1.4830,-1.3279,-335.69,934.45,-408.51
6430,-3.8737,-1.4170,-1.4994,-1820.07,-1956.05,-1127.62
6440,-3.8733,-1.3282,-1.6300,-1366.94,90.94,-377.93
6450,-3.8729,-1.2317,-1.7156,1992.43,-627.62,1559.27
6460,-3.8727,-1.1401,-1.7828,-1648.19,419.43,1762.27
6470,-3.8726,-1.0520,-1.8474,-1929.44,-189.76,-753.54
6480,-3.8724,-0.9703,-1.9115,1351.81,-455.20,340.09
6490,-3.8726,-0.9037,-1.9608,-195.07,-658.20,808.72
6500,-3.8728,-0.8505,-1.9821,336.18,1029.48,-722.60
6510,-3.8729,-0.8038,-1.9893,-851.32,-1689.21,1308.59
6520,-3.8732,-0.7545,-1.9896,1117.43,1389.04,-1660.16
6530,-3.8733,-0.6877,-1.9738,-570.07,1342.22,1371.09
6540,-3.8732,-0.5919,-1.9446,-23.19,-626.40,589.84
6550,-3.8727,-0.4446,-1.9071,242.43,-891.78,136.78
6560,-3.8719,-0.2177,-1.8508,-898.19,-94.67,-628.78
6570,-3.8708,0.0774,-1.8060,148.68,-891.05,-128.66
6580,-3.8695,0.3986,-1.8090,1914.31,828.25,-1003.54
6590,-3.8683,0.6912,-1.7904,-976.32,453.86,-894.17
6600,-3.8676,0.9113,-1.6396,476.81,-1170.53,-1347.29
6610,-3.8674,1.0454,-1.3619,648.68,-1873.23,1465.52
6620,-3.8677,1.1160,-1.1017,1820.56,1673.89,106.69
6630,-3.8680,1.1691,-0.9731,-1148.19,-1013.49,-939.70
6640,-3.8680,1.2349,-0.9425,1648.68,-560.24,1607.42
6650,-3.8679,1.3079,-0.9191,-1929.44,-638.24,-220.64
6660,-3.8676,1.3671,-0.8672,-585.69,-1638.12,810.67
6670,-3.8673,1.3826,-0.8604,-1007.57,1002.62,-1767.33
6680,-3.8668,1.3312,-0.9755,976.81,1877.69,1326.42
6690,-3.8661,1.2286,-1.1321,-1601.32,-856.81,-1376.95
6700,-3.8652,1.1061,-1.1948,1273.68,-903.87,-486.63
6710,-3.8646,0.9918,-1.1495,1586.18,-935.36,-1002.38
6720,-3.8646,0.8856,-1.0747,-1038.82,861.27,-767.88
6730,-3.8652,0.7659,-1.0347,1367.43,-1560.79,-33.39
6740,-3.8661,0.6304,-1.0409,-1960.69,-436.04,1904.17
6750,-3.8671,0.4971,-1.0598,695.56,-1233.15,-1705.20
6760,-3.8679,0.3906,-1.0571,-366.94,344.67,-1783.33
6770,-3.8698,0.3368,-1.1071,-913.82,-1171.33,-1689.64
6780,-3.8700,0.3618,-1.1617,-882.57,-1702.51,-1845.95
6790,-3.8702,0.3566,-1.2266,-1679.44,-702.45,1825.81
6800,-3.8705,0.3163,-1.2909,1648.68,-999.33,1825.68
6810,-3.8707,0.2426,-1.3485,492.43,-1233.76,-1330.69
6820,-3.8710,0.1478,-1.3826,-945.07,-608.95,-346.44
6830,-3.8712,0.0494,-1.3815,-1070.07,-968.51,-502.75
6840,-3.8715,-0.0431,-1.3600,-1663.82,-828.06,1778.50
6850,-3.8717,-0.1207,-1.3384,-1507.57,1937.38,325.44
6860,-3.8719,-0.1765,-1.3273,554.93,702.88,1950.50
6870,-3.8721,-0.2057,-1.3317,1414.31,-1875.37,-1346.37
6880,-3.8721,-0.2015,-1.3524,1679.93,1562.07,513.00
6890,-3.8722,-0.1713,-1.3993,-1788.82,-1094.18,-674.56
6900,-3.8722,-0.1420,-1.4828,-1913.82,905.88,-2.75
6910,-3.8721,-0.1294,-1.6106,1836.18,-1781.56,-393.55
6920,-3.8718,-0.1343,-1.7546,-554.44,1859.07,-1581.30
6930,-3.8716,-0.1670,-1.8588,-1179.44,-578.43,-1675.35
6940,-3.8715,-0.2196,-1.8982,-1366.94,-1906.62,-1269.29
6950,-3.8715,-0.2493,-1.8896,-101.32,1046.39,58.78
6960,-3.8718,-0.2263,-1.8770,101.81,-1859.86,1886.90
6970,-3.8723,-0.1863,-1.8774,-960.69,-234.86,574.40
6980,-3.8730,-0.2130,-1.8545,164.31,-297.24,855.65
6990,-3.8739,-0.3550,-1.7755,742.43,-1359.80,-1566.16
7000,-3.8746,-0.6086,-1.6827,-1429.44,749.27,-269.10
7010,-3.8750,-0.9451,-1.6476,-1898.19,623.78,-1659.55
7020,-3.8750,-1.3042,-1.6801,-960.69,1123.11,-1237.61
7030,-3.8745,-1.6136,-1.7529,1070.56,966.19,1590.45
7040,-3.8738,-1.8124,-1.8267,1461.18,-362.55,12.15
7050,-3.8732,-1.7728,-1.4738,1429.93,605.77,996.64
7060,-3.8737,-1.7501,-1.2021,1086.18,-628.48,1653.32
7070,-3.8741,-1.7510,-1.0098,-7.57,-1862.85,1856.99
7080,-3.8744,-1.7388,-0.9292,-116.94,-1237.85,826.11
7090,-3.8744,-1.7067,-0.9120,1445.56,1074.71,1170.04
7100,-3.8743,-1.6907,-0.8966,1554.93,-722.11,-814.33
7110,-3.8741,-1.7307,-0.8455,-398.19,1246.64,-814.27
7120,-3.8743,-1.8513,-0.7710,-1523.19,-206.54,-236.08
7130,-3.8745,-2.0466,-0.6962,-960.69,1324.46,92.22
7140,-3.8439,-2.2679,-0.5958,-1960.69,-1097.78,-813.90
7150,-3.8445,-2.4524,-0.4326,1711.18,-254.46,-360.60
7160,-3.8451,-2.5658,-0.2124,-1898.19,635.80,-1985.23
7170,-3.8457,-2.6161,0.0154,-413.82,823.06,93.32
7180,-3.8463,-2.6245,0.2150,1148.68,1979.25,640.62
7190,-3.8468,-2.5833,0.3601,70.56,-473.88,1750.37
7200,-3.8470,-2.4741,0.4255,1351.81,-1895.69,344.42
7210,-3.8472,-2.3062,0.3959,-679.44,-1520.51,1828.92
7220,-3.8469,-2.0988,0.2532,820.56,-1317.02,1156.98
7230,-3.8464,-1.8840,0.0333,-632.57,417.72,-640.14
7240,-3.8456,-1.7046,-0.1791,-1148.19,277.53,1187.56
7250,-3.8448,-1.5712,-0.3322,1820.56,1090.39,-469.12
7260,-3.8442,-1.4597,-0.4197,-1101.32,1496.89,-703.80
7270,-3.8439,-1.3458,-0.4596,1164.31,-1705.99,1858.52
7280,-3.8750,-1.2253,-0.4835,-257.57,1184.81,1280.33
7290,-3.8750,-1.1151,-0.5134,-835.69,-1877.44,1592.77
7300,-3.8750,-1.0299,-0.5466,1273.68,-1705.32,-1547.91
7310,-3.8749,-0.9705,-0.5592,179.93,-1955.14,1123.90
7320,-3.8749,-0.9299,-0.5306,-210.69,435.55,-407.35
7330,-3.8748,-0.9099,-0.5341,1258.06,-954.90,1608.40
7340,-3.8746,-0.9274,-0.6299,-460.69,-345.58,1702.03
7350,-3.8745,-0.9336,-0.7234,1304.93,-611.21,-235.66
7360,-3.8743,-0.9292,-0.7917,508.06,-579.96,-1360.84
7370,-3.8740,-0.9175,-0.8262,1070.56,-1329.96,889.04
7380,-3.8739,-0.9077,-0.8408,-1429.44,-1736.21,1029.60
7390,-3.8739,-0.9247,-0.8776,-179.44,388.79,-673.52
7400,-3.8738,-0.9644,-0.9493,1648.68,-314.33,-939.27
7410,-3.8735,-0.9918,-1.0084,570.56,-1501.89,-845.64
7420,-3.8732,-0.9911,-1.0232,1054.93,-1064.45,1404.24
7430,-3.8729,-0.9734,-1.0027,1148.68,1044.92,1935.49
7440,-3.8727,-0.9501,-0.9614,-585.69,-330.08,794.86
7450,-3.8726,-0.9169,-0.9246,-1601.32,951.23,-1298.77
7460,-3.8724,-0.8622,-0.9135,-1351.32,1670.04,-1392.46
7470,-3.8723,-0.7788,-0.9238,1648.68,-907.96,1482.54
7480,-3.8722,-0.6827,-0.9429,320.56,1764.10,763.79
7490,-3.8722,-0.6191,-0.9700,617.43,-673.22,-1392.52
7500,-3.8722,-0.6272,-1.0270,758.06,-141.85,1732.42
7510,-3.8722,-0.6881,-1.1232,-273.19,561.22,357.36
7520,-3.8722,-0.7434,-1.2189,-70.07,248.60,935.30
7530,-3.8722,-0.7660,-1.2760,851.81,-1.46,-1111.82
7540,-3.8721,-0.7606,-1.3083,1961.18,685.97,1263.12
7550,-3.8719,-0.7236,-1.3462,-1351.32,545.35,1856.81
7560,-3.8717,-0.6453,-1.3859,-616.94,-298.34,1512.94
7570,-3.8715,-0.5305,-1.4004,1414.31,-1376.28,1512.88
7580,-3.8713,-0.3928,-1.3770,101.81,764.59,-768.37
7590,-3.8712,-0.2440,-1.3356,1726.81,-235.17,-1659.00
7600,-3.8712,-0.0951,-1.2991,773.68,1062.01,-1096.37
7610,-3.8715,0.3490,-1.1167,633.06,-1515.14,-517.94
7620,-3.8713,0.4526,-1.0736,679.93,1063.17,1091.55
7630,-3.8712,0.5588,-1.0494,1945.56,-1421.02,1154.11
7640,-3.8710,0.6584,-1.0544,-460.69,1672.91,-1080.20
7650,-3.8705,0.7534,-1.0715,289.31,1032.53,872.92
7660,-3.8701,0.8347,-1.0581,445.56,-1154.79,1497.86
7670,-3.8699,0.8896,-0.9968,-1148.19,564.09,-1252.08
7680,-3.8696,0.9208,-0.9155,1883.06,407.96,-1939.45
7690,-3.8694,0.9453,-0.8485,1867.43,-1185.73,76.29
7700,-3.8693,0.9769,-0.8059,1008.06,-607.54,1045.17
7710,-3.8691,1.0171,-0.7767,1054.93,845.64,1232.79
7720,-3.8690,1.0627,-0.7477,-1804.44,580.08,60.97
7730,-3.8690,1.1138,-0.7177,39.31,298.95,420.41
7740,-3.8691,1.1632,-0.7009,-1429.44,142.76,1436.10
7750,-3.8693,1.1914,-0.7135,898.68,-1716.49,967.35
7760,-3.8694,1.1836,-0.7462,508.06,674.19,1654.85
7770,-3.8695,1.1329,-0.7683,-491.94,486.63,-1376.46
7780,-3.8696,1.0453,-0.7489,1023.68,1658.45,670.35
7790,-3.8700,0.9457,-0.6902,1804.93,142.64,-1470.21
7800,-3.8704,0.8658,-0.6365,1054.93,-341.92,1920.47
7810,-3.8707,0.8271,-0.6251,-1163.82,-1467.10,1467.47
7820,-3.8711,0.8158,-0.6594,1883.06,-14.04,-845.03
7830,-3.8713,0.7996,-0.7136,429.93,-404.66,-720.09
7840,-3.8715,0.7513,-0.7618,-1648.19,657.78,1139.22
7850,-3.8716,0.6685,-0.7974,179.93,-1514.16,404.72
7860,-3.8717,0.5817,-0.8264,1570.56,1938.78,1123.41
7870,-3.8718,0.5210,-0.8546,-1538.82,-1780.15,1967.10
7880,-3.8719,0.4790,-0.8821,-1304.44,-1389.65,1107.67
7890,-3.8722,0.4338,-0.9094,1320.56,-905.33,-829.90
7900,-3.8723,0.3914,-0.9485,-460.69,-405.46,1576.29
7910,-3.8724,0.3627,-1.0164,-1898.19,-1405.52,826.23
7920,-3.8726,0.3237,-1.1091,-1570.07,1906.92,1029.24
7930,-3.8727,0.2380,-1.1923,1445.56,-1968.14,-1814.70
7940,-3.8727,0.1097,-1.2361,-1523.19,-608.95,481.99
7950,-3.8728,-0.0140,-1.2504,-1945.07,1781.43,-49.32
7960,-3.8727,-0.0924,-1.2710,-1788.82,-31.31,747.50
7970,-3.8727,-0.1254,-1.3217,179.93,1327.94,-674.38
7980,-3.8726,-0.1442,-1.3973,-38.82,-1156.56,-924.50
7990,-3.8724,-0.1799,-1.4852,1554.93,1155.94,-1393.37
8000,-3.8723,-0.2408,-1.5645,976.81,1905.88,1153.32
8010,-3.8723,-0.3199,-1.6024,1179.93,-234.86,-1768.74
8020,-3.8723,-0.4030,-1.5918,-945.07,-1094.42,606.20
8030,-3.8724,-0.4745,-1.5536,429.93,264.83,340.64
8040,-3.8727,-0.5388,-1.5050,-726.32,1155.27,-284.30
8050,-3.8728,-0.6111,-1.4487,-960.69,-626.10,-471.74
8060,-3.8729,-0.6860,-1.3873,1789.31,-1423.10,1747.13
8070,-3.8732,-0.7455,-1.3387,195.56,-1563.84,-1705.87
8080,-3.8734,-0.7864,-1.3231,586.18,654.79,-80.75
8090,-3.8734,-0.8340,-1.3314,-648.19,-1345.34,1216.13
8100,-3.8734,-0.9165,-1.3412,1258.06,1592.10,-1315.12
8110,-3.8733,-1.0330,-1.3464,-1304.44,341.92,-1830.75
8120,-3.8733,-1.1586,-1.3481,-210.69,-330.20,-96.44
8130,-3.8733,-1.2704,-1.3298,-288.82,-549.19,1216.06
8140,-3.8735,-1.3646,-1.2747,1398.68,1794.37,-315.12
8150,-3.8737,-1.4404,-1.1841,1336.18,856.69,1091.25
8160,-3.8739,-1.4902,-1.0674,-366.94,450.26,60.18
8170,-3.8744,-1.5029,-0.9460,1258.06,-612.30,-2.14
8180,-3.8748,-1.4818,-0.8442,-366.94,-1081.12,-1501.89
8190,-3.8439,-1.4641,-0.7720,-1663.82,-49.80,-1767.33
8200,-3.8441,-1.4856,-0.7252,601.81,1200.26,232.85
8210,-3.8445,-1.5481,-0.6802,1851.81,-815.43,-1673.34
8220,-3.8448,-1.6415,-0.6056,1851.81,950.07,1998.66
8230,-3.8453,-1.7472,-0.4895,1898.68,-1503.23,-516.85
8240,-3.8457,-1.8446,-0.3522,367.43,1355.96,1920.90
8250,-3.8461,-1.9330,-0.2230,-101.32,-1066.16,-438.23
8260,-3.8463,-2.0109,-0.1136,586.18,-535.03,-31.74
8270,-3.8464,-2.0663,-0.0310,-1382.57,1464.78,1577.88
8280,-3.8467,-2.0927,0.0227,-476.32,42.79,-1109.44
8290,-3.8468,-2.0927,0.0619,148.68,-1082.21,484.38
8300,-3.8469,-2.0699,0.0920,148.68,-66.59,734.44
8310,-3.8469,-2.0381,0.1102,-945.07,-207.21,1562.62
8320,-3.8468,-2.0275,0.1158,-866.94,-1879.03,-31.07
8330,-3.8464,-2.0405,0.1049,492.43,-1160.22,-1609.19
8340,-3.8461,-2.0321,0.0807,-1179.44,1433.47,15.81
8350,-3.8459,-1.9672,0.0513,-101.32,-1660.28,953.25
8360,-3.8459,-1.8533,0.0127,211.18,-1425.72,-1843.69
8370,-3.8459,-1.7200,-0.0363,-1210.69,1636.96,-375.00
8380,-3.8457,-1.5936,-0.0846,-148.19,-628.42,140.50
8390,-3.8456,-1.4869,-0.1284,23.68,1184.39,-1562.68
8400,-3.8455,-1.3951,-0.1777,1679.93,-424.80,-406.56
8410,-3.8453,-1.3094,-0.2352,1429.93,1262.88,-1250.37
8420,-3.8452,-1.2284,-0.2844,398.68,1903.69,-1828.61
8430,-3.8451,-1.1556,-0.3278,-1226.32,-393.07,-125.61
8440,-3.8448,-1.0886,-0.3871,86.18,-1939.76,-1235.05
8450,-3.8446,-1.0228,-0.4536,664.31,-1533.39,889.83
8460,-3.8445,-0.9673,-0.5077,1086.18,1951.11,-1844.67
8470,-3.8444,-0.9229,-0.5594,195.56,-970.64,-266.66
8480,-3.8441,-0.8782,-0.6222,1883.06,404.42,-1735.47
8490,-3.8748,-0.8300,-0.8016,-351.32,326.48,-1985.84
8500,-3.8745,-0.8578,-0.8481,1773.68,1404.60,826.54
8510,-3.8744,-0.8635,-0.8881,-1788.82,-548.58,1435.79
8520,-3.8744,-0.8488,-0.9319,1476.81,-1657.96,-1126.77
8530,-3.8743,-0.8479,-0.9817,-632.57,732.67,295.04
8540,-3.8741,-0.8770,-1.0382,-523.19,-1642.33,716.80
8550,-3.8740,-0.9242,-1.1028,-241.94,-876.77,-1783.33
8560,-3.8739,-0.9866,-1.1698,1711.18,-1142.46,1794.68
8570,-3.8738,-1.0585,-1.2467,1726.81,-1720.70,1138.31
8580,-3.8737,-1.1145,-1.3425,523.68,435.42,-1268.07
8590,-3.8734,-1.1338,-1.4252,1351.81,169.68,356.75
8600,-3.8734,-1.1108,-1.4590,-1116.94,1591.49,-237.18
8610,-3.8733,-1.0430,-1.4589,1820.56,1263.43,1731.51
8620,-3.8732,-0.9302,-1.4728,-1491.94,1279.17,669.01
8630,-3.8730,-0.7870,-1.5084,945.56,-501.83,-1752.93
8640,-3.8728,-0.6274,-1.5225,-726.32,-1064.09,-1221.74
8650,-3.8724,-0.4615,-1.5031,-304.44,1139.34,-1987.37
8660,-3.8721,-0.2936,-1.4579,929.93,-375.92,1637.63
8670,-3.8718,-0.1166,-1.3892,-1570.07,1405.64,-80.99
8680,-3.8715,0.0815,-1.3306,1086.18,-1797.12,1809.75
8690,-3.8711,0.2974,-1.3403,-1554.44,1687.62,1497.38
8700,-3.8706,0.5040,-1.4271,-1929.44,438.05,888.00
8710,-3.8701,0.6515,-1.5222,523.68,1329.10,1919.07
8720,-3.8698,0.7020,-1.5542,-601.32,1157.47,-1018.62
8730,-3.8695,0.6765,-1.5168,1867.43,1063.84,606.32
8740,-3.8696,0.6351,-1.4486,-1398.19,1845.03,-1159.24
8750,-3.8698,0.6324,-1.3895,1304.93,-1420.65,1965.88
8760,-3.8698,0.6748,-1.3794,961.18,-1858.15,1216.00
8770,-3.8696,0.7174,-1.4325,-1616.94,-561.22,-205.87
8780,-3.8689,0.4189,-1.3654,664.31,-1655.27,-1768.49
8790,-3.8691,0.3871,-1.2986,1633.06,1235.17,1762.94
8800,-3.8694,0.4159,-1.2570,1554.93,1781.98,-799.44
8810,-3.8694,0.4924,-1.2106,1242.43,-889.83,1263.12
8820,-3.8694,0.5883,-1.1313,-960.69,1047.79,-1158.63
8830,-3.8693,0.6947,-1.0337,-695.07,-811.40,1997.74
8840,-3.8691,0.8068,-0.9523,929.93,-311.16,388.55
8850,-3.8693,0.8903,-0.8887,-726.32,-1889.10,-283.14
8860,-3.8694,0.9126,-0.8232,1961.18,-1748.29,-954.90
8870,-3.8696,0.8706,-0.7505,820.56,-1373.23,1748.35
8880,-3.8701,0.7864,-0.6777,-554.44,-60.85,-407.78
8890,-3.8706,0.7081,-0.6307,664.31,1251.53,1951.78
8900,-3.8711,0.6770,-0.6469,-1351.32,-733.03,717.47
8910,-3.8715,0.6801,-0.7292,-1335.69,1204.41,217.47
8920,-3.8717,0.6644,-0.8269,-945.07,-1342.47,764.16
8930,-3.8719,0.5857,-0.8788,1054.93,-1842.47,-329.77
8940,-3.8721,0.4519,-0.8604,-1023.19,-483.28,-1767.40
8950,-3.8723,0.3167,-0.7959,1851.81,1875.85,-142.33
8960,-3.8724,0.2209,-0.7465,539.31,-1874.39,1810.91
8970,-3.8726,0.1733,-0.7357,289.31,453.55,998.54
8980,-3.8727,0.1553,-0.7385,-1804.44,1828.43,-1985.84
8990,-3.8727,0.1506,-0.7526,-116.94,1468.99,576.66
9000,-3.8727,0.1979,-0.8092,-710.69,-327.88,185.97
9010,-3.8727,0.2942,-0.9142,1336.18,422.24,-298.46
9020,-3.8724,0.3344,-1.0262,1664.31,-1015.08,-111.21
9030,-3.8722,0.2560,-1.0934,-1195.07,641.24,1872.99
9040,-3.8722,0.1057,-1.0941,773.68,47.36,200.99
9050,-3.8726,-0.0530,-1.0635,1539.31,-46.69,-752.20
9060,-3.8735,-0.4878,-1.1528,1476.81,-1188.17,-1502.14
9070,-3.8735,-0.6829,-1.2628,1570.56,452.15,91.49
9080,-3.8735,-0.8632,-1.3672,601.81,-1626.34,1028.75
9090,-3.8735,-0.9436,-1.4778,1523.68,1013.92,1356.69
9100,-3.8735,-0.9315,-1.5898,-773.19,-1142.52,-1659.18
9110,-3.8734,-0.9587,-1.6578,773.68,513.79,-253.11
9120,-3.8732,-1.1102,-1.6429,1289.31,-189.39,1621.70
9130,-3.8732,-1.3285,-1.5518,1898.68,1716.55,1574.89
9140,-3.8734,-1.5073,-1.4476,1961.18,1388.00,-1393.68
9150,-3.8738,-1.6028,-1.3770,-929.44,-1284.24,-909.12
9160,-3.8740,-1.6476,-1.3291,-1148.19,-237.55,434.75
9170,-3.8743,-1.6948,-1.2654,1117.43,1887.39,-1362.00
9180,-3.8744,-1.7732,-1.1599,-929.44,-1956.48,-1143.13
9190,-3.8745,-1.8634,-1.0271,1039.31,-456.60,778.93
9200,-3.8749,-1.9275,-0.8953,1492.43,543.21,-298.89
9210,-3.8439,-1.9695,-0.7682,1289.31,1418.09,-1439.27
9220,-3.8440,-2.0248,-0.6306,-85.69,1683.59,560.97
9230,-3.8441,-2.0991,-0.4647,836.18,-707.09,201.84
9240,-3.8444,-2.1639,-0.2649,-679.44,527.10,1592.83
9250,-3.8446,-2.1992,-0.0447,-976.32,-1894.90,155.70
9260,-3.8450,-2.1978,0.1670,-1491.94,-1707.46,-1968.87
9270,-3.8452,-2.1810,0.3600,-1304.44,1386.29,390.93
9280,-3.8455,-2.1672,0.5560,836.18,-1910.52,1969.42
9290,-3.8456,-2.1536,0.7312,-1398.19,-816.77,-1014.59
9300,-3.8457,-2.1477,0.8536,351.81,1605.16,-326.72
9310,-3.8458,-2.1462,0.9276,1101.81,1277.04,-45.23
9320,-3.8458,-2.1420,0.9381,1289.31,-1254.21,1954.90
9330,-3.8458,-2.1368,0.8751,1836.18,89.54,-826.29
9340,-3.8456,-2.1068,0.7520,-1507.57,27.04,1454.83
9350,-3.8452,-2.0209,0.5936,-1663.82,261.47,532.71
9360,-3.8448,-1.8849,0.4402,1336.18,-3.97,1079.22
9370,-3.8445,-1.7223,0.3221,-1257.57,355.65,610.23
9380,-3.8442,-1.5532,0.2428,-445.07,1246.58,-1561.89
9390,-3.8440,-1.3940,0.1859,1195.56,-909.30,-1858.95
9400,-3.8439,-1.2631,0.1270,1570.56,-190.25,-640.32
9410,-3.8750,-1.1835,0.0651,-1663.82,263.12,-499.76
9420,-3.8748,-1.1656,0.0120,523.68,341.43,718.87
9430,-3.8746,-1.1843,-0.0323,-1195.07,1544.56,-687.50
9440,-3.8744,-1.1989,-0.0780,414.31,-127.32,1374.88
9450,-3.8743,-1.1864,-0.1411,-1445.07,-1971.13,702.94
9460,-3.8743,-1.1345,-0.2223,148.68,1950.81,-1390.93
9470,-3.8741,-1.0533,-0.3015,-1210.69,-439.76,-1859.86
9480,-3.8740,-0.9746,-0.3503,1179.93,1419.80,-750.61
9490,-3.8738,-0.9231,-0.3525,-741.94,-830.08,468.02
9500,-3.8737,-0.9078,-0.3250,1851.81,-1111.21,108.64
9510,-3.8737,-0.9197,-0.2937,-195.07,-1579.96,233.70
9520,-3.8738,-0.9418,-0.2784,-1710.69,-1579.96,1936.89
9530,-3.8738,-0.9664,-0.3029,-538.82,373.11,655.70
9540,-3.8738,-1.0072,-0.3567,304.93,1248.11,640.01
9550,-3.8738,-1.0656,-0.4028,-913.82,-1642.64,343.02
9560,-3.8739,-1.1082,-0.4344,-382.57,450.99,-422.67
9570,-3.8739,-1.1177,-0.4661,-1835.69,404.05,1858.52
9580,-3.8740,-1.1234,-0.5060,945.56,357.18,-1563.42
9590,-3.8741,-1.1552,-0.5323,211.18,-752.20,295.84
9600,-3.8744,-1.1835,-0.5264,148.68,-127.26,1639.53
9610,-3.8745,-1.1519,-0.5287,523.68,638.31,-954.16
9620,-3.8744,-1.0667,-0.5695,570.56,341.49,1733.34
9630,-3.8741,-1.0035,-0.6187,-523.19,-877.14,623.84
9640,-3.8739,-1.0205,-0.6348,-445.07,826.11,842.53
9650,-3.8738,-1.1049,-0.6033,1383.06,-1236.39,-1845.03
9660,-3.8738,-1.2111,-0.5559,-1413.82,-1205.32,1983.15
9670,-3.8739,-1.3016,-0.5408,992.43,856.99,592.65
9680,-3.8741,-1.3270,-0.6055,1398.68,-1205.69,686.40
9690,-3.8744,-1.2184,-0.7544,-1851.32,-1487.00,592.53
9700,-3.8745,-0.9622,-0.9325,54.93,-549.26,-1564.03
9710,-3.8741,-0.6349,-1.1191,851.81,654.36,-923.71
9720,-3.8733,-0.3422,-1.3090,-1257.57,764.34,1716.55
9730,-3.8723,-0.1732,-1.4481,211.18,468.08,153.69
9740,-3.8717,-0.1671,-1.4670,1836.18,-1344.12,-237.24
9750,-3.8713,-0.2330,-1.3751,-1382.57,234.01,-221.62
9760,-3.8712,-0.1721,-1.2758,-1820.07,-0.49,1544.13
9770,-3.8713,0.1029,-1.2307,1976.81,718.38,-1033.75
9780,-3.8712,0.5020,-1.2550,1179.93,-1531.07,-674.32
9790,-3.8706,0.8829,-1.3534,258.06,-639.65,-1955.63
9800,-3.8698,1.1071,-1.4799,1023.68,-1232.67,1247.31
9810,-3.8690,1.1010,-1.5424,1711.18,-1419.74,90.82
9820,-3.8688,0.9146,-1.4653,929.93,-1419.74,-1440.55
9830,-3.8688,0.6866,-1.2970,1070.56,439.27,247.13
9840,-3.8691,0.5399,-1.1453,-101.32,1985.66,809.94
9850,-3.8696,0.5044,-1.0492,1117.43,1407.29,-517.88
9860,-3.8699,0.5519,-0.9938,570.56,1704.10,-798.95
9870,-3.8699,0.6425,-0.9561,-1351.32,797.91,466.80
9880,-3.8699,0.7286,-0.9200,-1757.57,1626.22,357.48
9890,-3.8699,0.7793,-0.8828,1273.68,-1764.22,1732.54
9900,-3.8699,0.7928,-0.8447,-241.94,-998.54,-95.52
9910,-3.8698,0.7787,-0.8007,1492.43,-123.47,1279.54
9920,-3.8698,0.7448,-0.7484,-320.07,1517.09,420.29
9930,-3.8699,0.6982,-0.6926,-663.82,204.53,264.16
9940,-3.8701,0.6552,-0.6464,1383.06,-654.91,857.97
9950,-3.8705,0.6401,-0.6218,-132.57,1266.85,-454.41
