timestamp_ms,ax,ay,az,gx,gy,gz
0,-3.8457,0.1174,-0.8383,-929.44,500.18,342.10
10,-3.8457,0.1180,-0.8367,-960.69,703.31,123.35
20,-3.8458,0.1190,-0.8354,-882.57,906.43,-251.65
30,-3.8458,0.1202,-0.8350,-757.57,1062.68,-720.40
40,-3.8458,0.1198,-0.8353,-601.32,1125.18,-1204.77
50,-3.8458,0.1172,-0.8356,-663.82,1078.31,-1470.40
60,-3.8458,0.1146,-0.8344,-991.94,1047.06,-1439.15
70,-3.8458,0.1123,-0.8324,-1320.07,1203.31,-1298.52
80,-3.8458,0.1105,-0.8297,-1616.94,1453.31,-1298.52
90,-3.8458,0.1112,-0.8196,-1679.44,-1109.19,-1829.77
100,-3.8458,0.1099,-0.8199,-1757.57,-906.07,-1798.52
110,-3.8458,0.1083,-0.8231,-1929.44,-952.94,-1673.52
120,-3.8458,0.1049,-0.8280,1867.43,-1359.19,-1329.77
130,-3.8458,0.0990,-0.8331,1429.93,-1984.19,-829.77
140,-3.8458,0.0924,-0.8381,679.93,1359.56,-345.40
150,-3.8458,0.0869,-0.8422,-163.82,718.87,-126.65
160,-3.8458,0.0833,-0.8444,-866.94,203.25,-189.15
170,-3.8458,0.0824,-0.8442,-1335.69,-78.00,-407.96
180,-3.8458,0.0836,-0.8427,-1445.07,-62.38,-814.21
190,-3.8458,0.0852,-0.8400,-1288.82,140.75,-1329.77
200,-3.8458,0.0873,-0.8372,-1085.69,484.50,-1782.90
210,-3.8458,0.0894,-0.8354,-820.07,843.87,-1970.40
220,-3.8458,0.0908,-0.8345,-554.44,1062.62,1998.35
230,-3.8458,0.0919,-0.8336,-366.94,1187.62,1951.48
240,-3.8458,0.0940,-0.8328,-226.32,1297.00,1998.35
250,-3.8458,0.0986,-0.8312,39.31,1406.43,-1907.90
260,-3.8458,0.1038,-0.8284,633.06,1609.56,-1782.90
270,-3.8458,0.1064,-0.8247,1289.31,1968.93,-1376.65
280,-3.8458,0.1068,-0.8206,1633.06,-1562.32,-736.02
290,-3.8458,0.1078,-0.8163,1679.93,-1031.07,-361.02
300,-3.8458,0.1089,-0.8127,1804.93,-484.19,-392.27
310,-3.8458,0.1093,-0.8108,1945.56,-31.07,-611.02
320,-3.8458,0.1091,-0.8114,1992.43,218.93,-720.34
330,-3.8458,0.1071,-0.8147,1976.81,140.81,-610.96
340,-3.8458,0.1031,-0.8199,1711.18,-281.07,-376.65
350,-3.8458,0.0995,-0.8265,1211.18,-952.94,-189.15
360,-3.8458,0.0968,-0.8335,742.43,-1796.69,-64.15
370,-3.8458,0.0942,-0.8440,258.06,156.43,-673.52
380,-3.8458,0.0906,-0.8448,70.56,-31.07,-798.58
390,-3.8458,0.0862,-0.8441,-398.19,-140.50,-798.58
400,-3.8458,0.0846,-0.8417,-960.69,-46.75,-923.58
410,-3.8458,0.0856,-0.8378,-1163.82,265.75,-1282.90
420,-3.8458,0.0872,-0.8333,-1038.82,765.75,-1829.77
430,-3.8458,0.0891,-0.8308,-835.69,1343.87,1654.60
440,-3.8458,0.0917,-0.8320,-585.69,1656.37,1420.23
450,-3.8458,0.0952,-0.8364,-257.57,1500.12,1467.10
460,-3.8458,0.0989,-0.8427,195.56,937.68,1670.23
470,-3.8458,0.1013,-0.8486,664.31,140.81,1904.60
480,-3.8458,0.1011,-0.8536,976.81,-624.82,-1970.46
490,-3.8458,0.0983,-0.8574,945.56,-1265.44,-1782.96
500,-3.8458,0.0945,-0.8600,586.18,-1749.82,-1407.96
510,-3.8458,0.0909,-0.8607,101.81,1922.06,-923.58
520,-3.8458,0.0884,-0.8612,-351.32,1828.25,-329.83
530,-3.8457,0.0887,-0.8627,-679.44,1765.75,232.67
540,-3.8457,0.0919,-0.8638,-632.57,1578.25,654.54
550,-3.8457,0.0959,-0.8630,-226.32,1437.62,982.67
560,-3.8457,0.1002,-0.8600,289.31,1531.43,1013.92
570,-3.8457,0.1058,-0.8546,836.18,1922.06,701.42
580,-3.8457,0.1138,-0.8475,1554.93,-1390.44,232.67
590,-3.8458,0.1227,-0.8390,-1429.44,-484.19,-329.83
600,-3.8458,0.1304,-0.8302,-288.82,609.56,-1048.52
610,-3.8458,0.1361,-0.8242,695.56,1734.62,-1829.77
620,-3.8458,0.1401,-0.8217,1429.93,-1499.76,1404.60
630,-3.8458,0.1428,-0.8208,1945.56,-1171.63,701.48
640,-3.8458,0.1432,-0.8210,-1710.69,-1062.26,154.60
650,-3.8459,0.1404,-0.8221,-1663.82,-1093.51,-236.02
660,-3.8459,0.1350,-0.8224,1976.81,-1234.13,-626.65
670,-3.8459,0.1294,-0.8198,1289.31,-1265.38,-986.02
680,-3.8459,0.1241,-0.8148,570.56,-937.26,-1142.27
690,-3.8459,0.1196,-0.8098,-101.32,-296.69,-1126.65
700,-3.8459,0.1157,-0.8062,-679.44,343.93,-1079.71
710,-3.8459,0.1116,-0.8043,-1179.44,812.68,-954.71
720,-3.8459,0.1062,-0.8038,-1710.69,1047.06,-814.09
730,-3.8459,0.1022,-0.8052,1601.81,1109.56,-610.96
740,-3.8459,0.1018,-0.8098,1086.18,937.68,-392.21
750,-3.8459,0.1049,-0.8177,1039.31,343.93,-251.59
760,-3.8459,0.1104,-0.8276,1429.93,-671.69,-1.65
770,-3.8458,0.1161,-0.8376,-1866.94,-1937.32,373.35
780,-3.8458,0.1189,-0.8475,-1132.57,781.43,904.60
790,-3.8458,0.1167,-0.8563,-773.19,-484.19,1623.29
800,-3.8458,0.1106,-0.8624,-1054.44,-1609.19,-1564.21
810,-3.8458,0.1034,-0.8654,-1835.69,1609.56,-814.21
820,-3.8458,0.0974,-0.8669,1242.43,1234.56,-48.58
830,-3.8457,0.0929,-0.8683,476.81,1031.43,545.17
840,-3.8457,0.0909,-0.8682,-101.32,859.50,888.92
850,-3.8457,0.0930,-0.8665,-351.32,875.12,1013.92
860,-3.8457,0.0988,-0.8625,-85.69,1093.87,685.79
870,-3.8458,0.1058,-0.8563,648.68,1593.93,-64.21
880,-3.8458,0.1136,-0.8474,1554.93,-1609.19,-892.33
890,-3.8458,0.1223,-0.8354,-1445.07,-468.57,-1736.08
900,-3.8458,0.1304,-0.8232,-335.69,1062.68,1607.73
910,-3.8458,0.1370,-0.8143,695.56,-1374.76,1310.85
920,-3.8458,0.1414,-0.8088,1539.31,-234.13,1107.73
930,-3.8458,0.1431,-0.8054,-1898.19,468.99,935.91
940,-3.8458,0.1412,-0.8038,-1679.44,906.49,826.54
950,-3.8458,0.1372,-0.8029,-1913.82,1109.62,732.79
960,-3.8458,0.1265,-0.8031,414.31,1500.24,248.41
970,-3.8459,0.1226,-0.8075,195.56,1203.37,-95.34
980,-3.8459,0.1151,-0.8136,-304.44,640.81,-204.71
990,-3.8459,0.1072,-0.8208,-1257.57,-140.44,-32.90
1000,-3.8458,0.1013,-0.8286,1726.81,-1062.32,232.73
1010,-3.8458,0.0983,-0.8350,976.81,1937.68,420.23
1020,-3.8458,0.0967,-0.8397,586.18,1125.18,623.35
1030,-3.8458,0.0936,-0.8433,383.06,515.81,1045.23
1040,-3.8458,0.0886,-0.8453,-7.57,62.62,1529.60
1050,-3.8458,0.0835,-0.8461,-648.19,-203.00,1998.29
1060,-3.8458,0.0789,-0.8463,-1304.44,-296.75,-1642.33
1070,-3.8458,0.0748,-0.8466,-1898.19,-328.00,-1423.58
1080,-3.8458,0.0730,-0.8474,1586.18,-359.25,-1157.96
1090,-3.8458,0.0751,-0.8488,1351.81,-468.63,-720.46
1100,-3.8458,0.0808,-0.8506,1617.43,-640.50,-361.08
1110,-3.8458,0.0890,-0.8514,-1648.19,-874.88,-173.58
1120,-3.8457,0.0977,-0.8514,-601.32,-984.25,60.79
1130,-3.8457,0.1040,-0.8510,508.06,-984.19,342.04
1140,-3.8457,0.1073,-0.8492,1320.56,-921.69,795.17
1150,-3.8457,0.1085,-0.8477,1742.43,-702.94,1357.67
1160,-3.8457,0.1082,-0.8474,1898.68,-499.82,1654.54
1170,-3.8457,0.1063,-0.8473,1851.81,-468.57,1623.29
1180,-3.8457,0.1051,-0.8464,1617.43,-452.94,1342.04
1190,-3.8457,0.1075,-0.8464,1461.18,-343.57,810.79
1200,-3.8457,0.1118,-0.8466,1773.68,-343.57,170.17
1210,-3.8458,0.1135,-0.8448,-1679.44,-359.19,-392.33
1220,-3.8458,0.1110,-0.8403,-1460.69,-140.44,-814.21
1230,-3.8458,0.1064,-0.8339,-1788.82,437.68,-1111.02
1240,-3.8458,0.1023,-0.8274,1633.06,1265.81,-1407.90
1250,-3.8458,0.1005,-0.8220,1101.81,-1906.07,-1876.65
1260,-3.8458,0.1035,-0.8192,867.43,-1218.57,1482.73
1270,-3.8458,0.1088,-0.8193,1258.06,-859.19,967.10
1280,-3.8458,0.1108,-0.8207,1929.93,-874.82,904.60
1290,-3.8458,0.1099,-0.8217,-1804.44,-1046.69,1326.48
1300,-3.8458,0.1079,-0.8206,-1929.44,-1171.69,-1986.02
1310,-3.8458,0.1058,-0.8168,1820.56,-1031.07,-1236.02
1320,-3.8458,0.1044,-0.8107,1554.93,-546.69,-798.52
1330,-3.8458,0.1061,-0.8041,1367.43,234.56,-876.59
1340,-3.8458,0.1118,-0.7982,1586.18,1078.31,-1392.21
1350,-3.8458,0.1190,-0.7932,-1679.44,1828.31,1764.04
1360,-3.8458,0.1245,-0.7900,-757.57,-1531.07,873.41
1370,-3.8458,0.1268,-0.7896,-54.44,-1124.82,232.79
1380,-3.8459,0.1262,-0.7903,242.43,-1062.26,-79.71
1390,-3.8459,0.1243,-0.7914,164.31,-1156.01,-189.09
1400,-3.8459,0.1215,-0.7925,-85.69,-1296.69,-314.09
1410,-3.8459,0.1166,-0.7939,-445.07,-1437.32,-626.59
1420,-3.8459,0.1111,-0.7958,-1070.07,-1624.82,-1142.21
1430,-3.8459,0.1079,-0.7979,-1773.19,-1859.19,-1845.34
1440,-3.8459,0.1073,-0.8008,1820.56,1875.18,1279.66
1450,-3.8459,0.1080,-0.8035,1742.43,1500.18,342.16
1460,-3.8461,0.1090,-0.8046,1836.18,1156.43,-454.71
1470,-3.8461,0.1099,-0.8046,1961.18,1015.81,-907.84
1480,-3.8461,0.1082,-0.8063,-1929.44,1015.81,-907.84
1490,-3.8461,0.1024,-0.8115,1851.81,797.06,-439.09
1500,-3.8459,0.0956,-0.8203,1117.43,125.18,342.16
1510,-3.8459,0.0906,-0.8318,242.43,-999.82,1342.10
1520,-3.8459,0.0883,-0.8441,-398.19,1531.37,-1517.27
1530,-3.8459,0.0869,-0.8555,-695.07,-46.75,-548.58
1540,-3.8458,0.0852,-0.8641,-866.94,-1499.88,45.17
1550,-3.8458,0.0745,-0.8708,-1960.69,437.62,92.04
1560,-3.8458,0.0721,-0.8663,1539.31,531.37,13.92
1570,-3.8459,0.0725,-0.8588,1242.43,1109.50,-32.96
1580,-3.8458,0.0753,-0.8516,1289.31,-1921.75,60.79
1590,-3.8458,0.0789,-0.8461,1648.68,-999.88,295.17
1600,-3.8458,0.0834,-0.8416,-1898.19,-296.75,560.79
1610,-3.8458,0.0894,-0.8381,-1320.07,281.37,888.98
1620,-3.8458,0.0961,-0.8361,-554.44,718.87,1373.35
1630,-3.8458,0.1023,-0.8351,304.93,984.56,1920.23
1640,-3.8458,0.1096,-0.8346,1101.81,1109.56,-1814.15
1650,-3.8458,0.1190,-0.8337,-1960.69,1172.06,-1861.02
1660,-3.8458,0.1282,-0.8318,-757.57,1281.43,1935.85
1670,-3.8458,0.1350,-0.8269,414.31,1531.49,1701.48
1680,-3.8458,0.1387,-0.8199,1289.31,-1843.51,1420.23
1690,-3.8458,0.1404,-0.8134,1758.06,-952.88,1060.85
1700,-3.8458,0.1429,-0.8074,1976.81,-109.13,545.23
1710,-3.8459,0.1459,-0.8020,-1695.07,656.49,-95.34
1720,-3.8459,0.1481,-0.7980,-1320.07,1343.99,-720.34
1730,-3.8459,0.1500,-0.7960,-1038.82,1859.62,-1392.21
1740,-3.8459,0.1516,-0.7965,-788.82,-1890.38,1857.79
1750,-3.8459,0.1521,-0.7981,-585.69,-1952.88,1295.29
1760,-3.8459,0.1509,-0.8000,-523.19,1843.99,998.41
1770,-3.8459,0.1471,-0.8014,-679.44,1593.99,810.91
1780,-3.8459,0.1418,-0.8019,-1163.82,1422.12,623.41
1790,-3.8459,0.1370,-0.8024,-1835.69,1359.62,467.16
1800,-3.8459,0.1326,-0.8029,1539.31,1297.12,451.54
1810,-3.8459,0.1294,-0.8044,976.81,1234.62,498.41
1820,-3.8459,0.1272,-0.8073,570.56,1031.49,498.41
1830,-3.8459,0.1257,-0.8093,289.31,672.12,451.54
1840,-3.8459,0.1246,-0.8101,101.81,406.49,451.54
1850,-3.8459,0.1239,-0.8107,-38.82,312.68,592.16
1860,-3.8459,0.1235,-0.8108,-132.57,234.56,795.29
1870,-3.8459,0.1226,-0.8109,-179.44,218.93,1045.29
1880,-3.8459,0.1218,-0.8109,-304.44,203.31,1420.29
1890,-3.8459,0.1216,-0.8112,-398.19,203.31,1842.16
1900,-3.8459,0.1211,-0.8107,-429.44,172.06,-1829.71
1910,-3.8459,0.1212,-0.8092,-491.94,234.56,-1626.59
1920,-3.8459,0.1228,-0.8074,-476.32,422.06,-1564.09
1930,-3.8459,0.1270,-0.8044,-273.19,656.43,-1751.59
1940,-3.8459,0.1321,-0.8000,258.06,1031.49,1842.16
1950,-3.8459,0.1360,-0.7957,914.31,1593.99,1529.66
1960,-3.8459,0.1388,-0.7926,1414.31,-1843.51,1435.91
1970,-3.8459,0.1412,-0.7910,1773.68,-1452.88,1357.79
1980,-3.8459,0.1436,-0.7909,-1913.82,-1249.76,1248.41
1990,-3.8459,0.1462,-0.7920,-1616.94,-1234.13,1264.04
2000,-3.8459,0.1486,-0.7939,-1273.19,-1374.76,1357.79
2010,-3.8459,0.1504,-0.7963,-976.32,-1624.76,1232.79
2020,-3.8459,0.1516,-0.7986,-741.94,-1921.63,810.91
2030,-3.8459,0.1519,-0.8007,-585.69,1781.49,357.79
2040,-3.8459,0.1510,-0.8018,-554.44,1515.87,45.29
2050,-3.8461,0.1489,-0.8021,-663.82,1375.24,-267.21
2060,-3.8461,0.1443,-0.8025,-929.44,1328.37,-564.09
2070,-3.8461,0.1371,-0.8046,-1523.19,1281.49,-564.09
2080,-3.8461,0.1295,-0.8082,1554.93,1015.87,-79.71
2090,-3.8459,0.1217,-0.8125,586.18,547.12,701.54
2100,-3.8459,0.1152,-0.8168,-413.82,0.18,1529.66
2110,-3.8459,0.1117,-0.8207,-1241.94,-546.69,-1798.52
2120,-3.8459,0.1152,-0.8175,-1570.07,-1140.44,-439.15
2130,-3.8459,0.1173,-0.8131,-1241.94,-640.44,-282.90
2140,-3.8459,0.1180,-0.8096,-976.32,-77.94,-376.65
2150,-3.8459,0.1187,-0.8082,-882.57,375.18,-798.46
2160,-3.8459,0.1199,-0.8081,-804.44,547.06,-1298.46
2170,-3.8459,0.1216,-0.8087,-648.19,562.68,-1564.09
2180,-3.8459,0.1229,-0.8098,-429.44,484.56,-1720.34
2190,-3.8459,0.1235,-0.8110,-257.57,343.93,-1954.71
2200,-3.8459,0.1227,-0.8112,-179.44,187.68,1685.91
2210,-3.8459,0.1212,-0.8098,-288.82,172.06,1295.29
2220,-3.8459,0.1201,-0.8094,-476.32,343.93,967.16
2230,-3.8459,0.1178,-0.8109,-616.94,390.81,732.79
2240,-3.8459,0.1145,-0.8138,-913.82,203.31,748.41
2250,-3.8459,0.1107,-0.8180,-1335.69,-171.69,967.10
2260,-3.8459,0.1067,-0.8217,-1820.07,-702.94,1279.60
2270,-3.8459,0.1030,-0.8240,1664.31,-1171.69,1748.35
2280,-3.8459,0.0999,-0.8246,1195.56,-1468.57,-1501.65
2290,-3.8459,0.0975,-0.8243,789.31,-1546.69,-626.65
2300,-3.8459,0.0979,-0.8240,492.43,-1515.44,-1.65
2310,-3.8458,0.1011,-0.8239,539.31,-1468.57,170.23
2320,-3.8459,0.1078,-0.8229,945.56,-1452.94,-173.52
2330,-3.8459,0.1158,-0.8203,1804.93,-1327.94,-704.77
2340,-3.8459,0.1204,-0.8182,-1163.82,-999.82,-861.02
2350,-3.8459,0.1190,-0.8174,-585.69,-734.19,-501.65
2360,-3.8458,0.1132,-0.8164,-757.57,-624.82,326.48
2370,-3.8458,0.1078,-0.8152,-1507.57,-499.82,1232.73
2380,-3.8458,0.1067,-0.8159,1804.93,-343.57,1873.35
2390,-3.8458,0.1090,-0.8187,1664.31,-437.32,-1892.27
2400,-3.8459,0.1221,-0.8148,-523.19,-1093.57,-236.02
2410,-3.8459,0.1204,-0.8060,-366.94,-296.69,-970.40
2420,-3.8459,0.1172,-0.7976,-585.69,828.31,-1657.84
2430,-3.8459,0.1132,-0.7932,-991.94,1906.43,1920.29
2440,-3.8459,0.1100,-0.7947,-1507.57,-1531.07,1701.54
2450,-3.8459,0.1096,-0.7998,-1913.82,-1718.57,1482.79
2460,-3.8459,0.1115,-0.8062,-1960.69,1625.18,1217.16
2470,-3.8459,0.1143,-0.8124,-1726.32,812.68,982.79
2480,-3.8459,0.1166,-0.8158,-1366.94,15.81,967.16
2490,-3.8459,0.1177,-0.8146,-1070.07,-421.69,1170.23
2500,-3.8459,0.1180,-0.8103,-929.44,-265.44,1498.35
2510,-3.8459,0.1179,-0.8049,-882.57,281.43,1748.41
2520,-3.8459,0.1176,-0.8014,-898.19,968.93,1701.54
2530,-3.8459,0.1178,-0.8005,-945.07,1422.06,1560.91
2540,-3.8459,0.1194,-0.8019,-913.82,1531.43,1435.91
2550,-3.8459,0.1210,-0.8053,-710.69,1359.56,1420.29
2560,-3.8459,0.1217,-0.8097,-507.57,922.06,1639.04
2570,-3.8459,0.1205,-0.8141,-413.82,359.56,1998.41
2580,-3.8459,0.1172,-0.8180,-570.07,-202.94,-1564.15
2590,-3.8459,0.1123,-0.8208,-991.94,-702.94,-1064.15
2600,-3.8459,0.1074,-0.8224,-1616.94,-1062.32,-564.15
2610,-3.8459,0.1052,-0.8234,1758.06,-1265.44,-64.15
2620,-3.8458,0.1053,-0.8242,1476.81,-1390.44,420.23
2630,-3.8458,0.1066,-0.8243,1492.43,-1499.82,748.35
2640,-3.8458,0.1084,-0.8230,1648.68,-1515.44,842.10
2650,-3.8458,0.1096,-0.8220,1883.06,-1343.57,717.10
2660,-3.8458,0.1105,-0.8218,-1960.69,-1218.57,420.23
2670,-3.8458,0.1094,-0.8209,-1851.32,-1187.32,60.85
2680,-3.8459,0.1027,-0.8191,1273.68,-781.07,-407.90
2690,-3.8459,0.1024,-0.8203,1148.68,-843.57,-126.65
2700,-3.8458,0.1028,-0.8225,1117.43,-999.82,185.85
2710,-3.8458,0.1038,-0.8251,1164.31,-1281.07,467.10
2720,-3.8458,0.1046,-0.8273,1289.31,-1609.19,654.60
2730,-3.8458,0.1036,-0.8284,1398.68,-1890.44,529.60
2740,-3.8458,0.1025,-0.8281,1273.68,1968.93,310.85
2750,-3.8458,0.1030,-0.8263,1133.06,-1999.82,185.85
2760,-3.8458,0.1031,-0.8241,1195.56,-1765.44,45.23
2770,-3.8459,0.1019,-0.8220,1211.18,-1484.19,-1.65
2780,-3.8458,0.1002,-0.8202,1054.93,-1218.57,29.60
2790,-3.8459,0.0983,-0.8196,836.18,-984.19,-111.02
2800,-3.8459,0.0968,-0.8202,586.18,-906.07,-501.65
2810,-3.8459,0.0984,-0.8215,398.68,-984.19,-861.02
2820,-3.8459,0.1013,-0.8237,601.81,-1156.07,-1064.15
2830,-3.8459,0.1017,-0.8263,976.81,-1437.32,-1282.90
2840,-3.8459,0.0985,-0.8282,1023.68,-1765.44,-1407.90
2850,-3.8459,0.0941,-0.8284,617.43,1984.56,-1470.40
2860,-3.8459,0.0908,-0.8259,54.93,1968.93,-1517.27
2870,-3.8459,0.0901,-0.8225,-366.94,-1718.63,-1595.40
2880,-3.8459,0.0922,-0.8193,-460.69,-1281.13,-1626.65
2890,-3.8459,0.0957,-0.8168,-195.07,-874.88,-1548.52
2900,-3.8459,0.1001,-0.8149,258.06,-546.69,-1407.90
2910,-3.8459,0.1055,-0.8131,820.56,-312.32,-1329.77
2920,-3.8459,0.1111,-0.8116,1508.06,-77.94,-1361.02
2930,-3.8459,0.1151,-0.8112,-1773.19,109.56,-1454.71
2940,-3.8459,0.1176,-0.8113,-1257.57,172.06,-1392.21
2950,-3.8459,0.1189,-0.8112,-945.07,156.43,-1251.59
2960,-3.8459,0.1201,-0.8114,-773.19,172.06,-1345.34
2970,-3.8459,0.1216,-0.8124,-616.94,140.81,-1579.71
2980,-3.8459,0.1221,-0.8145,-429.44,15.81,-1860.96
2990,-3.8459,0.1206,-0.8167,-366.94,-249.82,1935.85
3000,-3.8459,0.1169,-0.8182,-554.44,-531.07,1857.73
3010,-3.8459,0.1116,-0.8191,-1023.19,-734.19,1967.10
3020,-3.8459,0.1051,-0.8207,-1710.69,-843.57,-1767.27
3030,-3.8459,0.0992,-0.8237,1461.18,-1046.69,-1423.52
3040,-3.8459,0.0953,-0.8271,711.18,-1437.32,-892.27
3050,-3.8459,0.0928,-0.8300,211.18,-1874.82,-251.65
3060,-3.8458,0.0933,-0.8326,-116.94,1765.75,217.10
3070,-3.8458,0.0969,-0.8346,-54.44,1422.00,560.85
3080,-3.8458,0.1019,-0.8350,414.31,1172.06,873.35
3090,-3.8458,0.1060,-0.8334,1054.93,1125.18,1045.23
3100,-3.8458,0.1085,-0.8297,1570.56,1328.31,935.85
3110,-3.8458,0.1096,-0.8241,1898.68,1797.06,685.85
3120,-3.8458,0.1091,-0.8188,-1960.69,-1484.19,435.85
3130,-3.8458,0.1095,-0.8156,1976.81,-812.32,185.85
3140,-3.8459,0.1100,-0.8141,-1976.32,-390.44,-48.52
3150,-3.8459,0.1096,-0.8147,-1913.82,-202.94,-204.77
3160,-3.8459,0.1093,-0.8163,-1960.69,-281.07,-251.65
3170,-3.8459,0.1090,-0.8177,1992.43,-484.19,-329.77
3180,-3.8459,0.1083,-0.8190,1961.18,-671.69,-611.02
3190,-3.8459,0.1069,-0.8196,1867.43,-827.94,-907.90
3200,-3.8459,0.1049,-0.8198,1695.56,-906.07,-1001.65
3210,-3.8459,0.1024,-0.8192,1429.93,-937.32,-1095.40
3220,-3.8459,0.1014,-0.8175,1117.43,-859.19,-1376.65
3230,-3.8459,0.1008,-0.8157,992.43,-640.44,-1814.15
3240,-3.8459,0.0999,-0.8148,914.31,-406.07,1967.10
3250,-3.8459,0.0994,-0.8143,789.31,-296.69,-1939.15
3260,-3.8459,0.0990,-0.8140,726.81,-234.19,-1767.27
3270,-3.8459,0.0995,-0.8142,679.93,-187.32,-1720.40
3280,-3.8459,0.1013,-0.8147,742.43,-218.57,-1736.02
3290,-3.8459,0.1021,-0.8152,976.81,-281.07,-1564.15
3300,-3.8459,0.1008,-0.8153,1070.56,-343.57,-1251.65
3310,-3.8459,0.0997,-0.8145,914.31,-359.19,-970.40
3320,-3.8459,0.1000,-0.8131,773.68,-249.82,-876.65
3330,-3.8459,0.1014,-0.8126,804.93,-77.94,-1017.27
3340,-3.8459,0.1036,-0.8126,992.43,-15.44,-1173.52
3350,-3.8459,0.1049,-0.8132,1273.68,-15.44,-1236.02
3360,-3.8459,0.1056,-0.8147,1429.93,-93.57,-1251.65
3370,-3.8459,0.1067,-0.8151,1523.68,-281.07,-1345.40
3380,-3.8459,0.1080,-0.8124,1664.31,-327.94,-1595.40
3390,-3.8459,0.1077,-0.8081,1836.18,15.81,-1814.09
3400,-3.8459,0.1057,-0.8042,1789.31,562.68,-1735.96
3410,-3.8459,0.1042,-0.8019,1539.31,1062.68,-1501.59
3420,-3.8459,0.1047,-0.8009,1351.81,1359.56,-1407.84
3430,-3.8459,0.1086,-0.8015,1414.31,1484.56,-1392.21
3440,-3.8459,0.1154,-0.8053,1914.31,1406.43,-1423.46
3450,-3.8459,0.1221,-0.8101,-1226.32,922.06,-1673.46
3460,-3.8459,0.1260,-0.8141,-366.94,312.68,-1923.46
3470,-3.8459,0.1251,-0.8159,133.06,-202.88,-1923.52
3480,-3.8459,0.1205,-0.8153,23.68,-437.26,-1689.15
3490,-3.8459,0.1156,-0.8143,-570.07,-359.19,-1345.40
3500,-3.8459,0.1115,-0.8142,-1195.07,-234.19,-923.52
3510,-3.8459,0.1079,-0.8153,-1726.32,-218.57,-439.15
3520,-3.8458,0.1060,-0.8171,1820.56,-359.19,76.48
3530,-3.8458,0.1063,-0.8197,1570.56,-593.57,326.48
3540,-3.8458,0.1080,-0.8215,1617.43,-921.69,185.85
3550,-3.8459,0.1108,-0.8221,1836.18,-1156.07,-314.15
3560,-3.8459,0.1138,-0.8218,-1804.44,-1234.19,-954.77
3570,-3.8459,0.1146,-0.8218,-1429.44,-1187.32,-1251.65
3580,-3.8459,0.1125,-0.8223,-1320.07,-1187.32,-1189.15
3590,-3.8459,0.1093,-0.8231,-1585.69,-1249.82,-970.40
3600,-3.8459,0.1057,-0.8246,1992.43,-1359.19,-673.52
3610,-3.8459,0.1031,-0.8259,1539.31,-1546.69,-454.77
3620,-3.8459,0.1024,-0.8273,1211.18,-1718.57,-173.52
3630,-3.8459,0.1034,-0.8280,1117.43,-1890.44,-79.77
3640,-3.8459,0.1061,-0.8273,1242.43,-1984.19,-423.52
3650,-3.8459,0.1093,-0.8248,1586.18,-1890.44,-1017.27
3660,-3.8459,0.1113,-0.8220,1992.43,-1577.94,-1407.90
3670,-3.8459,0.1110,-0.8209,-1741.94,-1218.57,-1454.77
3680,-3.8459,0.1099,-0.8215,-1788.82,-1077.94,-1236.02
3690,-3.8459,0.1085,-0.8224,-1929.44,-1156.07,-751.65
3700,-3.8459,0.1077,-0.8226,1898.68,-1265.44,-220.40
3710,-3.8458,0.1080,-0.8228,1789.31,-1296.69,92.10
3720,-3.8458,0.1085,-0.8230,1836.18,-1312.32,123.35
3730,-3.8458,0.1078,-0.8220,1898.68,-1343.57,92.10
3740,-3.8458,0.1069,-0.8201,1804.93,-1218.57,45.23
3750,-3.8459,0.1064,-0.8176,1695.56,-968.57,-204.77
3760,-3.8459,0.1061,-0.8156,1633.06,-656.07,-517.27
3770,-3.8459,0.1062,-0.8146,1586.18,-390.44,-736.02
3780,-3.8459,0.1068,-0.8147,1601.81,-265.44,-798.52
3790,-3.8459,0.1072,-0.8149,1679.93,-281.07,-907.90
3800,-3.8459,0.1071,-0.8153,1726.81,-312.32,-1157.90
3810,-3.8459,0.1066,-0.8154,1711.18,-359.19,-1407.90
3820,-3.8459,0.1060,-0.8151,1648.68,-374.82,-1564.15
3830,-3.8459,0.1060,-0.8151,1570.56,-327.94,-1611.02
3840,-3.8459,0.1061,-0.8146,1570.56,-327.94,-1673.52
3850,-3.8459,0.1067,-0.8135,1586.18,-265.44,-1720.40
3860,-3.8459,0.1073,-0.8127,1664.31,-124.82,-1782.90
3870,-3.8459,0.1062,-0.8123,1742.43,-31.07,-1939.15
3880,-3.8459,0.1039,-0.8119,1601.81,31.43,-1970.34
3890,-3.8459,0.1018,-0.8118,1304.93,78.31,-1860.96
3900,-3.8459,0.1017,-0.8114,1039.31,93.93,-1814.09
3910,-3.8459,0.1030,-0.8115,1023.68,140.81,-1845.34
3920,-3.8459,0.1049,-0.8130,1195.56,125.18,-1907.84
3930,-3.8459,0.1061,-0.8147,1429.93,-62.32,-1876.65
3940,-3.8459,0.1072,-0.8149,1586.18,-281.07,-1767.27
3950,-3.8459,0.1090,-0.8136,1726.81,-312.32,-1626.65
3960,-3.8459,0.1111,-0.8119,1961.18,-140.44,-1423.52
3970,-3.8459,0.1125,-0.8110,-1773.19,78.31,-1282.84
3980,-3.8459,0.1135,-0.8104,-1585.69,187.68,-1220.34
3990,-3.8459,0.1149,-0.8096,-1460.69,265.81,-1220.34
4000,-3.8459,0.1174,-0.8090,-1288.82,375.18,-1282.84
4010,-3.8459,0.1196,-0.8098,-960.69,453.31,-1314.09
4020,-3.8459,0.1202,-0.8124,-679.44,343.93,-1204.71
4030,-3.8459,0.1195,-0.8152,-601.32,15.81,-954.71
4040,-3.8459,0.1183,-0.8170,-695.07,-343.57,-798.52
4050,-3.8459,0.1171,-0.8176,-851.32,-577.94,-829.77
4060,-3.8459,0.1155,-0.8168,-1007.57,-656.07,-907.90
4070,-3.8459,0.1134,-0.8153,-1210.69,-546.69,-1064.15
4080,-3.8459,0.1117,-0.8140,-1476.32,-359.19,-1329.77
4090,-3.8459,0.1110,-0.8127,-1695.07,-187.32,-1564.15
4100,-3.8459,0.1112,-0.8112,-1788.82,-31.07,-1673.52
4110,-3.8459,0.1123,-0.8101,-1757.57,172.06,-1642.21
4120,-3.8459,0.1139,-0.8113,-1616.94,312.68,-1392.21
4130,-3.8459,0.1152,-0.8146,-1413.82,156.43,-1048.46
4140,-3.8459,0.1162,-0.8181,-1241.94,-265.44,-845.40
4150,-3.8459,0.1176,-0.8206,-1116.94,-718.57,-829.77
4160,-3.8459,0.1189,-0.8212,-945.07,-1031.07,-1001.65
4170,-3.8459,0.1191,-0.8199,-773.19,-1109.19,-1329.77
4180,-3.8459,0.1184,-0.8185,-741.94,-952.94,-1642.27
4190,-3.8459,0.1163,-0.8170,-835.69,-765.44,-1736.02
4200,-3.8459,0.1125,-0.8164,-1101.32,-577.94,-1532.90
4210,-3.8459,0.1080,-0.8169,-1585.69,-499.82,-1048.52
4220,-3.8459,0.1046,-0.8174,1836.18,-562.32,-611.02
4230,-3.8459,0.1041,-0.8176,1398.68,-624.82,-407.90
4240,-3.8459,0.1060,-0.8180,1336.18,-656.07,-392.27
4250,-3.8459,0.1084,-0.8195,1570.56,-702.94,-392.27
4260,-3.8459,0.1100,-0.8215,1883.06,-890.44,-439.15
4270,-3.8459,0.1107,-0.8226,-1913.82,-1156.07,-501.65
4280,-3.8459,0.1108,-0.8217,-1820.07,-1296.69,-611.02
4290,-3.8459,0.1100,-0.8190,-1804.44,-1171.69,-782.90
4300,-3.8459,0.1088,-0.8160,-1913.82,-827.94,-986.02
4310,-3.8459,0.1080,-0.8134,1929.93,-452.94,-1204.77
4320,-3.8459,0.1086,-0.8105,1836.18,-109.19,-1486.02
4330,-3.8459,0.1099,-0.8087,1914.31,250.18,-1923.46
4340,-3.8459,0.1107,-0.8076,-1929.44,484.56,1639.04
4350,-3.8459,0.1118,-0.8068,-1820.07,625.18,1467.16
4360,-3.8459,0.1132,-0.8070,-1679.44,734.56,1576.54
4370,-3.8459,0.1136,-0.8076,-1507.57,703.31,1826.54
4380,-3.8459,0.1127,-0.8083,-1445.07,625.18,-1892.21
4390,-3.8459,0.1117,-0.8093,-1570.07,531.43,-1579.71
4400,-3.8459,0.1121,-0.8102,-1695.07,406.43,-1314.09
4410,-3.8459,0.1141,-0.8103,-1648.19,297.06,-1282.84
4420,-3.8459,0.1162,-0.8093,-1382.57,281.43,-1376.59
4430,-3.8459,0.1173,-0.8083,-1116.94,406.43,-1564.09
4440,-3.8459,0.1173,-0.8083,-976.32,531.43,-1814.09
4450,-3.8459,0.1160,-0.8088,-976.32,531.43,-1923.46
4460,-3.8459,0.1141,-0.8101,-1148.19,468.93,-1876.59
4470,-3.8459,0.1122,-0.8116,-1382.57,312.68,-1829.71
4480,-3.8459,0.1099,-0.8138,-1632.57,109.56,-1798.46
4490,-3.8459,0.1067,-0.8168,-1929.44,-171.69,-1736.02
4500,-3.8459,0.1040,-0.8201,1664.31,-546.69,-1564.15
4510,-3.8459,0.1031,-0.8232,1320.56,-968.57,-1267.27
4520,-3.8459,0.1047,-0.8252,1211.18,-1374.82,-939.15
4530,-3.8459,0.1063,-0.8253,1414.31,-1624.82,-626.65
4540,-3.8459,0.1072,-0.8248,1617.43,-1640.44,-423.52
4550,-3.8459,0.1064,-0.8245,1726.81,-1577.94,-282.90
4560,-3.8459,0.1052,-0.8234,1633.06,-1531.07,-251.65
4570,-3.8459,0.1055,-0.8217,1476.81,-1390.44,-345.40
4580,-3.8459,0.1074,-0.8196,1508.06,-1171.69,-642.27
4590,-3.8459,0.1097,-0.8180,1758.06,-906.07,-1064.15
4600,-3.8459,0.1115,-0.8176,-1945.07,-702.94,-1329.77
4610,-3.8459,0.1122,-0.8180,-1726.32,-656.07,-1501.65
4620,-3.8459,0.1117,-0.8187,-1632.57,-702.94,-1642.27
4630,-3.8459,0.1106,-0.8191,-1695.07,-796.69,-1720.40
4640,-3.8459,0.1096,-0.8191,-1835.69,-843.57,-1704.77
4650,-3.8459,0.1091,-0.8190,-1960.69,-843.57,-1595.40
4660,-3.8459,0.1088,-0.8182,1976.81,-827.94,-1439.15
4670,-3.8459,0.1090,-0.8173,1929.93,-734.19,-1204.77
4680,-3.8459,0.1091,-0.8159,1961.18,-609.19,-1017.27
4690,-3.8459,0.1090,-0.8146,1976.81,-437.32,-970.40
4700,-3.8459,0.1100,-0.8142,1961.18,-265.44,-1173.52
4710,-3.8459,0.1113,-0.8149,-1913.82,-218.57,-1392.27
4720,-3.8459,0.1140,-0.8149,-1741.94,-312.32,-1532.90
4730,-3.8459,0.1182,-0.8132,-1398.19,-312.32,-1704.77
4740,-3.8459,0.1216,-0.8115,-866.94,-93.57,-1861.02
4750,-3.8459,0.1233,-0.8113,-429.44,125.18,-1907.84
4760,-3.8459,0.1228,-0.8113,-210.69,156.43,-1860.96
4770,-3.8459,0.1205,-0.8112,-273.19,156.43,-1814.09
4780,-3.8459,0.1172,-0.8110,-570.07,172.06,-1798.46
4790,-3.8459,0.1146,-0.8109,-991.94,187.68,-1845.34
4800,-3.8459,0.1143,-0.8101,-1320.07,203.31,1951.54
4810,-3.8459,0.1141,-0.8086,-1366.94,312.68,1732.79
4820,-3.8459,0.1139,-0.8086,-1382.57,500.18,1670.29
4830,-3.8459,0.1139,-0.8101,-1413.82,500.18,1810.91
4840,-3.8459,0.1139,-0.8123,-1413.82,312.68,-1860.96
4850,-3.8459,0.1140,-0.8147,-1413.82,31.43,-1439.09
4860,-3.8459,0.1152,-0.8174,-1398.19,-281.07,-1079.77
4870,-3.8459,0.1168,-0.8197,-1241.94,-624.82,-814.15
4880,-3.8459,0.1173,-0.8207,-1038.82,-921.69,-564.15
4890,-3.8459,0.1178,-0.8202,-976.32,-1046.69,-564.15
4900,-3.8459,0.1194,-0.8177,-913.82,-984.19,-1048.52
4910,-3.8459,0.1215,-0.8146,-710.69,-671.69,-1611.02
4920,-3.8459,0.1224,-0.8129,-445.07,-265.44,-1939.15
4930,-3.8459,0.1217,-0.8127,-320.07,-46.69,-1861.02
4940,-3.8459,0.1193,-0.8140,-413.82,-31.07,-1345.40
4950,-3.8459,0.1157,-0.8170,-726.32,-187.32,-736.02
4960,-3.8459,0.1132,-0.8203,-1179.44,-577.94,-423.52
4970,-3.8459,0.1123,-0.8223,-1507.57,-999.82,-345.40
4980,-3.8459,0.1117,-0.8235,-1616.94,-1249.82,-251.65
4990,-3.8459,0.1107,-0.8248,-1695.07,-1406.07,-95.40
5000,-3.8458,0.1097,-0.8254,-1820.07,-1577.94,60.85
5010,-3.8458,0.1095,-0.8247,-1945.07,-1656.07,29.60
5020,-3.8459,0.1099,-0.8239,-1976.32,-1562.32,-298.52
5030,-3.8459,0.1102,-0.8228,-1929.44,-1452.94,-814.15
5040,-3.8459,0.1117,-0.8204,-1882.57,-1312.32,-1267.27
5050,-3.8459,0.1128,-0.8176,-1695.07,-1015.44,-1548.52
5060,-3.8459,0.1125,-0.8148,-1554.44,-656.07,-1892.27
5070,-3.8459,0.1115,-0.8105,-1585.69,-296.69,1717.10
5080,-3.8459,0.1091,-0.8068,-1726.32,250.18,1592.16
5090,-3.8459,0.1073,-0.8053,1976.81,734.56,1748.41
5100,-3.8459,0.1077,-0.8055,1742.43,922.06,-1954.71
5110,-3.8459,0.1097,-0.8070,1789.31,890.81,-1470.34
5120,-3.8459,0.1122,-0.8091,-1945.07,703.31,-1032.84
5130,-3.8459,0.1141,-0.8102,-1632.57,437.68,-798.46
5140,-3.8459,0.1165,-0.8088,-1382.57,297.06,-907.84
5150,-3.8459,0.1190,-0.8064,-1085.69,468.93,-1298.46
5160,-3.8459,0.1207,-0.8038,-757.57,781.43,-1704.71
5170,-3.8459,0.1201,-0.8014,-538.82,1109.56,1998.41
5180,-3.8459,0.1173,-0.7994,-616.94,1422.06,1889.04
5190,-3.8459,0.1141,-0.7990,-976.32,1672.06,1873.41
5200,-3.8459,0.1124,-0.7997,-1382.57,1734.56,1670.29
5210,-3.8459,0.1127,-0.8011,-1601.32,1640.81,1310.91
5220,-3.8459,0.1130,-0.8029,-1570.07,1453.31,1092.16
5230,-3.8459,0.1128,-0.8043,-1523.19,1234.56,1076.54
5240,-3.8459,0.1121,-0.8060,-1554.44,1047.06,1264.04
5250,-3.8459,0.1123,-0.8087,-1648.19,828.31,1717.16
5260,-3.8459,0.1132,-0.8124,-1616.94,484.56,-1814.09
5270,-3.8459,0.1128,-0.8162,-1507.57,15.81,-1423.46
5280,-3.8459,0.1111,-0.8193,-1554.44,-468.57,-1017.27
5290,-3.8459,0.1088,-0.8210,-1773.19,-874.82,-595.40
5300,-3.8459,0.1069,-0.8203,1929.93,-1093.57,-329.77
5310,-3.8459,0.1069,-0.8191,1695.56,-999.82,-407.90
5320,-3.8459,0.1078,-0.8182,1695.56,-843.57,-767.27
5330,-3.8459,0.1080,-0.8174,1804.93,-734.19,-1079.77
5340,-3.8459,0.1082,-0.8173,1836.18,-624.82,-1173.52
5350,-3.8459,0.1075,-0.8184,1851.81,-609.19,-1095.40
5360,-3.8459,0.1064,-0.8208,1773.68,-749.82,-939.15
5370,-3.8459,0.1052,-0.8245,1633.06,-1062.32,-720.40
5380,-3.8459,0.1033,-0.8287,1476.81,-1531.07,-173.52
5390,-3.8458,0.1016,-0.8322,1226.81,1922.06,513.98
5400,-3.8458,0.1005,-0.8337,1008.06,1484.56,857.73
5410,-3.8458,0.1006,-0.8333,867.43,1281.43,967.10
5420,-3.8458,0.1027,-0.8312,883.06,1343.93,967.10
5430,-3.8458,0.1058,-0.8291,1148.68,1609.56,795.23
5440,-3.8458,0.1080,-0.8273,1554.93,1875.18,513.98
5450,-3.8458,0.1091,-0.8251,1836.18,-1890.44,185.85
5460,-3.8459,0.1095,-0.8230,1976.81,-1609.19,-173.52
5470,-3.8459,0.1094,-0.8208,-1976.32,-1343.57,-642.27
5480,-3.8459,0.1085,-0.8190,-1991.94,-1062.32,-1032.90
5490,-3.8459,0.1068,-0.8179,1898.68,-827.94,-1267.27
5500,-3.8459,0.1061,-0.8181,1679.93,-687.32,-1345.40
5510,-3.8459,0.1057,-0.8186,1586.18,-718.57,-1251.65
5520,-3.8459,0.1057,-0.8195,1539.31,-781.07,-1111.02
5530,-3.8459,0.1064,-0.8210,1539.31,-890.44,-876.65
5540,-3.8459,0.1072,-0.8218,1633.06,-1093.57,-517.27
5550,-3.8459,0.1086,-0.8217,1726.81,-1187.32,-236.02
5560,-3.8459,0.1110,-0.8207,1914.31,-1171.69,-111.02
5570,-3.8459,0.1130,-0.8177,-1788.82,-1046.69,-329.77
5580,-3.8459,0.1152,-0.8137,-1523.19,-671.69,-845.40
5590,-3.8459,0.1161,-0.8094,-1241.94,-156.07,-1361.02
5600,-3.8459,0.1145,-0.8062,-1132.57,390.81,-1595.34
5610,-3.8459,0.1122,-0.8046,-1335.69,812.68,-1470.34
5620,-3.8459,0.1099,-0.8048,-1632.57,1015.81,-1126.59
5630,-3.8459,0.1091,-0.8074,-1929.44,984.56,-860.96
5640,-3.8459,0.1107,-0.8108,1976.81,656.43,-892.21
5650,-3.8459,0.1133,-0.8135,-1820.07,218.93,-1064.09
5660,-3.8459,0.1162,-0.8153,-1491.94,-124.82,-1267.27
5670,-3.8459,0.1177,-0.8158,-1116.94,-359.19,-1532.90
5680,-3.8459,0.1157,-0.8154,-929.44,-421.69,-1704.77
5690,-3.8459,0.1111,-0.8151,-1179.44,-374.82,-1673.52
5700,-3.8459,0.1064,-0.8142,-1773.19,-327.94,-1501.65
5710,-3.8459,0.1035,-0.8124,1633.06,-218.57,-1361.02
5720,-3.8459,0.1019,-0.8110,1258.06,15.81,-1282.84
5730,-3.8459,0.1013,-0.8110,1054.93,187.68,-1376.59
5740,-3.8459,0.1021,-0.8108,976.81,187.68,-1579.71
5750,-3.8459,0.1044,-0.8104,1070.56,218.93,-1704.71
5760,-3.8459,0.1078,-0.8114,1367.43,265.81,-1689.09
5770,-3.8459,0.1108,-0.8135,1804.93,140.81,-1595.34
5780,-3.8459,0.1123,-0.8151,-1804.44,-124.82,-1470.40
5790,-3.8459,0.1121,-0.8165,-1616.94,-327.94,-1220.40
5800,-3.8459,0.1106,-0.8186,-1648.19,-515.44,-861.02
5810,-3.8459,0.1090,-0.8207,-1835.69,-781.07,-486.02
5820,-3.8459,0.1086,-0.8213,1961.18,-1046.69,-345.40
5830,-3.8459,0.1097,-0.8209,1914.31,-1124.82,-501.65
5840,-3.8459,0.1110,-0.8196,-1945.07,-1077.94,-751.65
5850,-3.8459,0.1112,-0.8167,-1788.82,-906.07,-986.02
5860,-3.8459,0.1101,-0.8130,-1757.57,-531.07,-1126.65
5870,-3.8459,0.1088,-0.8108,-1898.19,-62.32,-1298.52
5880,-3.8459,0.1079,-0.8123,1929.93,218.93,-1329.71
5890,-3.8459,0.1078,-0.8159,1820.56,31.43,-1110.96
5900,-3.8459,0.1073,-0.8199,1804.93,-437.32,-861.02
5910,-3.8459,0.1073,-0.8232,1742.43,-952.94,-657.90
5920,-3.8459,0.1097,-0.8251,1742.43,-1374.82,-611.02
5930,-3.8459,0.1127,-0.8256,-1945.07,-1609.19,-689.15
5940,-3.8459,0.1133,-0.8248,-1570.07,-1671.69,-657.90
5950,-3.8459,0.1117,-0.8223,-1491.94,-1577.94,-611.02
5960,-3.8459,0.1090,-0.8191,-1695.07,-1249.82,-626.65
5970,-3.8459,0.1072,-0.8173,1961.18,-843.57,-595.40
5980,-3.8459,0.1067,-0.8180,1726.81,-609.19,-501.65
5990,-3.8459,0.1075,-0.8198,1664.31,-702.94,-470.40
6000,-3.8459,0.1099,-0.8208,1773.68,-937.32,-486.02
6010,-3.8459,0.1122,-0.8210,-1929.44,-1062.32,-501.65
6020,-3.8459,0.1140,-0.8210,-1632.57,-1093.57,-486.02
6030,-3.8459,0.1140,-0.8213,-1398.19,-1093.57,-392.27
6040,-3.8459,0.1128,-0.8217,-1398.19,-1124.82,-298.52
6050,-3.8459,0.1125,-0.8215,-1554.44,-1171.69,-298.52
6060,-3.8459,0.1135,-0.8212,-1585.69,-1156.07,-361.02
6070,-3.8459,0.1146,-0.8210,-1460.69,-1109.19,-314.15
6080,-3.8459,0.1143,-0.8209,-1320.07,-1093.57,-236.02
6090,-3.8459,0.1135,-0.8199,-1366.94,-1077.94,-423.52
6100,-3.8459,0.1122,-0.8185,-1460.69,-952.94,-751.65
6110,-3.8459,0.1104,-0.8168,-1632.57,-765.44,-939.15
6120,-3.8459,0.1095,-0.8157,-1866.94,-546.69,-1157.90
6130,-3.8459,0.1097,-0.8153,-1976.32,-406.07,-1329.77
6140,-3.8459,0.1101,-0.8154,-1945.07,-359.19,-1298.52
6150,-3.8459,0.1094,-0.8162,-1898.19,-374.82,-1251.65
6160,-3.8459,0.1071,-0.8171,-1991.94,-468.57,-1142.27
6170,-3.8459,0.1049,-0.8174,1711.18,-593.57,-1048.52
6180,-3.8459,0.1035,-0.8177,1429.93,-624.82,-1017.27
6190,-3.8459,0.1035,-0.8187,1258.06,-671.69,-1017.27
6200,-3.8459,0.1052,-0.8192,1258.06,-796.69,-1048.52
6210,-3.8459,0.1068,-0.8187,1476.81,-859.19,-1064.15
6220,-3.8459,0.1069,-0.8176,1679.93,-796.69,-1048.52
6230,-3.8459,0.1064,-0.8160,1695.56,-656.07,-1079.77
6240,-3.8459,0.1056,-0.8145,1633.06,-452.94,-1267.27
6250,-3.8459,0.1045,-0.8137,1523.68,-249.82,-1454.77
6260,-3.8459,0.1036,-0.8137,1383.06,-156.07,-1517.27
6270,-3.8459,0.1033,-0.8141,1273.68,-156.07,-1376.65
6280,-3.8459,0.1030,-0.8147,1226.81,-202.94,-1189.15
6290,-3.8459,0.1025,-0.8156,1195.56,-281.07,-1111.02
6300,-3.8459,0.1033,-0.8170,1133.06,-390.44,-1079.77
6310,-3.8459,0.1053,-0.8188,1226.81,-577.94,-1001.65
6320,-3.8459,0.1067,-0.8199,1492.43,-812.32,-814.15
6330,-3.8459,0.1064,-0.8206,1664.31,-952.94,-595.40
6340,-3.8459,0.1051,-0.8201,1633.06,-1031.07,-532.90
6350,-3.8459,0.1038,-0.8186,1461.18,-968.57,-626.65
6360,-3.8459,0.1029,-0.8170,1289.31,-781.07,-814.15
6370,-3.8459,0.1019,-0.8149,1179.93,-577.94,-876.65
6380,-3.8459,0.1023,-0.8127,1054.93,-312.32,-782.90
6390,-3.8459,0.1045,-0.8120,1101.81,-31.07,-829.77
6400,-3.8459,0.1080,-0.8131,1383.06,62.68,-1126.59
6410,-3.8459,0.1123,-0.8158,1836.18,-77.94,-1392.27
6420,-3.8459,0.1156,-0.8190,-1616.94,-421.69,-1439.15
6430,-3.8459,0.1158,-0.8214,-1195.07,-827.94,-1454.77
6440,-3.8459,0.1135,-0.8224,-1163.82,-1140.44,-1517.27
6450,-3.8459,0.1101,-0.8214,-1460.69,-1265.44,-1407.90
6460,-3.8459,0.1073,-0.8199,-1898.19,-1140.44,-1079.77
6470,-3.8459,0.1062,-0.8196,1742.43,-952.94,-626.65
6480,-3.8459,0.1057,-0.8201,1601.81,-906.07,-267.27
6490,-3.8459,0.1056,-0.8210,1539.31,-968.57,-126.65
6500,-3.8459,0.1068,-0.8217,1523.68,-1093.57,-157.90
6510,-3.8459,0.1079,-0.8213,1679.93,-1171.69,-314.15
6520,-3.8459,0.1091,-0.8202,1820.56,-1124.82,-439.15
6530,-3.8459,0.1115,-0.8188,1976.81,-984.19,-595.40
6540,-3.8459,0.1132,-0.8180,-1726.32,-812.32,-736.02
6550,-3.8459,0.1130,-0.8177,-1507.57,-702.94,-704.77
6560,-3.8459,0.1118,-0.8179,-1523.19,-671.69,-595.40
6570,-3.8459,0.1108,-0.8179,-1679.44,-687.32,-548.52
6580,-3.8459,0.1102,-0.8185,-1804.44,-687.32,-486.02
6590,-3.8459,0.1097,-0.8206,-1882.57,-765.44,-454.77
6600,-3.8459,0.1093,-0.8224,-1945.07,-1031.07,-439.15
6610,-3.8459,0.1086,-0.8223,1992.43,-1265.44,-517.27
6620,-3.8459,0.1082,-0.8207,1914.31,-1249.82,-782.90
6630,-3.8459,0.1078,-0.8182,1851.81,-1046.69,-1001.65
6640,-3.8459,0.1082,-0.8151,1804.93,-734.19,-1032.90
6650,-3.8459,0.1082,-0.8118,1851.81,-327.94,-1032.90
6660,-3.8459,0.1091,-0.8105,1851.81,93.93,-1064.09
6670,-3.8459,0.1112,-0.8113,1976.81,250.18,-1064.09
6680,-3.8459,0.1124,-0.8137,-1757.57,156.43,-1095.34
6690,-3.8459,0.1129,-0.8164,-1601.32,-156.07,-1079.77
6700,-3.8459,0.1129,-0.8182,-1538.82,-499.82,-1064.15
6710,-3.8459,0.1115,-0.8191,-1538.82,-734.19,-1095.40
6720,-3.8459,0.1088,-0.8184,-1726.32,-843.57,-1157.90
6730,-3.8459,0.1060,-0.8171,1929.93,-749.82,-1220.40
6740,-3.8459,0.1036,-0.8159,1570.56,-593.57,-1251.65
6750,-3.8459,0.1028,-0.8153,1273.68,-437.32,-1189.15
6760,-3.8459,0.1036,-0.8162,1164.31,-359.19,-1126.65
6770,-3.8459,0.1063,-0.8174,1273.68,-468.57,-1126.65
6780,-3.8459,0.1093,-0.8185,1617.43,-624.82,-1079.77
6790,-3.8459,0.1107,-0.8196,1992.43,-765.44,-1017.27
6800,-3.8459,0.1108,-0.8199,-1820.07,-906.07,-892.27
6810,-3.8459,0.1097,-0.8198,-1804.44,-952.94,-767.27
6820,-3.8459,0.1083,-0.8195,-1945.07,-937.32,-782.90
6830,-3.8459,0.1079,-0.8190,1867.43,-890.44,-907.90
6840,-3.8459,0.1079,-0.8186,1820.56,-827.94,-923.52
6850,-3.8459,0.1071,-0.8187,1820.56,-781.07,-736.02
6860,-3.8459,0.1067,-0.8192,1711.18,-796.69,-486.02
6870,-3.8459,0.1071,-0.8192,1664.31,-859.19,-376.65
6880,-3.8459,0.1072,-0.8185,1711.18,-859.19,-470.40
6890,-3.8459,0.1073,-0.8176,1726.81,-765.44,-579.77
6900,-3.8459,0.1075,-0.8177,1742.43,-656.07,-657.90
6910,-3.8459,0.1082,-0.8181,1773.68,-671.69,-720.40
6920,-3.8459,0.1095,-0.8187,1851.81,-718.57,-751.65
6930,-3.8459,0.1099,-0.8196,-1976.32,-796.69,-657.90
6940,-3.8459,0.1089,-0.8204,-1929.44,-906.07,-454.77
6950,-3.8459,0.1075,-0.8207,1945.56,-1015.44,-345.40
6960,-3.8459,0.1071,-0.8203,1773.68,-1046.69,-423.52
6970,-3.8459,0.1084,-0.8190,1711.18,-999.82,-595.40
6980,-3.8459,0.1104,-0.8165,1883.06,-827.94,-939.15
6990,-3.8459,0.1124,-0.8142,-1866.94,-515.44,-1329.77
7000,-3.8459,0.1136,-0.8127,-1601.32,-218.57,-1626.65
7010,-3.8459,0.1143,-0.8121,-1445.07,-31.07,-1782.90
7020,-3.8459,0.1145,-0.8130,-1366.94,47.06,-1751.59
7030,-3.8459,0.1123,-0.8152,-1335.69,-62.32,-1532.90
7040,-3.8459,0.1089,-0.8175,-1616.94,-343.57,-1204.77
7050,-3.8459,0.1066,-0.8188,1945.56,-640.44,-814.15
7060,-3.8459,0.1068,-0.8186,1648.68,-812.32,-611.02
7070,-3.8459,0.1085,-0.8174,1679.93,-781.07,-657.90
7080,-3.8459,0.1105,-0.8160,1898.68,-624.82,-704.77
7090,-3.8459,0.1119,-0.8156,-1851.32,-452.94,-736.02
7100,-3.8459,0.1121,-0.8152,-1663.82,-390.44,-829.77
7110,-3.8459,0.1112,-0.8147,-1648.19,-343.57,-939.15
7120,-3.8459,0.1102,-0.8147,-1757.57,-281.07,-1064.15
7130,-3.8459,0.1096,-0.8159,-1882.57,-281.07,-1236.02
7140,-3.8459,0.1084,-0.8173,-1960.69,-437.32,-1376.65
7150,-3.8459,0.1064,-0.8171,1883.06,-609.19,-1282.90
7160,-3.8459,0.1050,-0.8157,1633.06,-593.57,-954.77
7170,-3.8459,0.1053,-0.8136,1445.56,-406.07,-626.65
7180,-3.8459,0.1077,-0.8126,1492.43,-140.44,-564.15
7190,-3.8459,0.1118,-0.8132,1789.31,-15.44,-626.65
7200,-3.8459,0.1167,-0.8154,-1679.44,-93.57,-751.65
7210,-3.8459,0.1205,-0.8177,-1054.44,-374.82,-986.02
7220,-3.8459,0.1206,-0.8192,-570.07,-671.69,-1329.77
7230,-3.8459,0.1168,-0.8199,-554.44,-859.19,-1673.52
7240,-3.8459,0.1116,-0.8193,-1038.82,-952.94,-1829.77
7250,-3.8459,0.1071,-0.8188,-1710.69,-874.82,-1626.65
7260,-3.8459,0.1041,-0.8196,1711.18,-812.32,-954.77
7270,-3.8459,0.1027,-0.8210,1336.18,-906.07,-173.52
7280,-3.8458,0.1030,-0.8228,1148.68,-1093.57,279.60
7290,-3.8458,0.1049,-0.8240,1195.56,-1312.32,467.10
7300,-3.8458,0.1085,-0.8245,1429.93,-1468.57,685.85
7310,-3.8458,0.1133,-0.8248,1898.68,-1531.07,842.10
7320,-3.8458,0.1166,-0.8243,-1491.94,-1577.94,748.35
7330,-3.8458,0.1163,-0.8231,-1070.07,-1515.44,545.23
7340,-3.8458,0.1138,-0.8217,-1101.32,-1359.19,217.10
7350,-3.8459,0.1105,-0.8196,-1429.44,-1171.69,-157.90
7360,-3.8459,0.1082,-0.8177,-1851.32,-906.07,-532.90
7370,-3.8459,0.1075,-0.8162,1851.81,-671.69,-1001.65
7380,-3.8459,0.1077,-0.8143,1773.68,-468.57,-1532.90
7390,-3.8459,0.1077,-0.8124,1789.31,-234.19,-1923.52
7400,-3.8459,0.1078,-0.8103,1789.31,15.81,1779.66
7410,-3.8459,0.1078,-0.8092,1804.93,281.43,1607.79
7420,-3.8459,0.1072,-0.8102,1804.93,422.06,1764.04
7430,-3.8459,0.1063,-0.8134,1726.81,297.06,-1720.34
7440,-3.8459,0.1058,-0.8170,1617.43,-109.19,-1189.15
7450,-3.8459,0.1063,-0.8190,1554.93,-577.94,-704.77
7460,-3.8459,0.1064,-0.8193,1617.43,-827.94,-439.15
7470,-3.8459,0.1056,-0.8188,1633.06,-874.82,-454.77
7480,-3.8459,0.1044,-0.8179,1523.68,-812.32,-611.02
7490,-3.8459,0.1035,-0.8167,1367.43,-687.32,-876.65
7500,-3.8459,0.1035,-0.8153,1258.06,-531.07,-1095.40
7510,-3.8459,0.1040,-0.8142,1258.06,-359.19,-1189.15
7520,-3.8459,0.1047,-0.8142,1320.56,-218.57,-1095.40
7530,-3.8459,0.1046,-0.8156,1414.31,-218.57,-892.27
7540,-3.8459,0.1038,-0.8175,1398.68,-390.44,-861.02
7550,-3.8459,0.1023,-0.8193,1289.31,-640.44,-861.02
7560,-3.8459,0.1014,-0.8204,1101.81,-874.82,-767.27
7570,-3.8459,0.1028,-0.8207,992.43,-1015.44,-611.02
7580,-3.8459,0.1049,-0.8212,1164.31,-1046.69,-470.40
7590,-3.8459,0.1062,-0.8225,1429.93,-1109.19,-189.15
7600,-3.8458,0.1068,-0.8237,1601.81,-1281.07,60.85
7610,-3.8458,0.1079,-0.8239,1679.93,-1437.32,45.23
7620,-3.8459,0.1085,-0.8235,1820.56,-1452.94,-204.77
7630,-3.8459,0.1091,-0.8225,1898.68,-1406.07,-564.15
7640,-3.8459,0.1097,-0.8204,1976.81,-1281.07,-861.02
7650,-3.8459,0.1091,-0.8186,-1945.07,-1015.44,-1095.40
7660,-3.8459,0.1074,-0.8168,1976.81,-781.07,-1298.52
7670,-3.8459,0.1052,-0.8153,1758.06,-546.69,-1329.77
7680,-3.8459,0.1039,-0.8156,1476.81,-359.19,-1236.02
7690,-3.8459,0.1046,-0.8176,1304.93,-390.44,-1173.52
7700,-3.8459,0.1069,-0.8199,1398.68,-656.07,-1157.90
7710,-3.8459,0.1096,-0.8219,1695.56,-952.94,-954.77
7720,-3.8459,0.1117,-0.8230,-1960.69,-1202.94,-470.40
7730,-3.8459,0.1124,-0.8225,-1695.07,-1343.57,-79.77
7740,-3.8458,0.1136,-0.8203,-1601.32,-1281.07,13.98
7750,-3.8459,0.1151,-0.8174,-1445.07,-999.82,-142.27
7760,-3.8459,0.1155,-0.8141,-1257.57,-624.82,-470.40
7770,-3.8459,0.1157,-0.8107,-1210.69,-202.94,-782.90
7780,-3.8459,0.1152,-0.8081,-1179.44,234.56,-1142.21
7790,-3.8459,0.1152,-0.8071,-1241.94,562.68,-1564.09
7800,-3.8459,0.1165,-0.8073,-1241.94,687.68,-1814.09
7810,-3.8459,0.1168,-0.8085,-1085.69,672.06,-1782.84
7820,-3.8459,0.1147,-0.8120,-1038.82,515.81,-1329.71
7830,-3.8459,0.1113,-0.8160,-1304.44,62.68,-939.09
7840,-3.8459,0.1086,-0.8191,-1741.94,-452.94,-907.90
7850,-3.8459,0.1077,-0.8219,1914.31,-843.57,-767.27
7860,-3.8459,0.1082,-0.8234,1789.31,-1202.94,-454.77
7870,-3.8459,0.1089,-0.8228,1851.81,-1390.44,-298.52
7880,-3.8459,0.1100,-0.8201,1945.56,-1312.32,-439.15
7890,-3.8459,0.1112,-0.8169,-1913.82,-968.57,-782.90
7900,-3.8459,0.1118,-0.8147,-1757.57,-562.32,-1236.02
7910,-3.8459,0.1105,-0.8131,-1679.44,-281.07,-1548.52
7920,-3.8459,0.1062,-0.8131,-1851.32,-77.94,-1532.90
7930,-3.8459,0.1014,-0.8146,1601.81,-77.94,-1376.65
7940,-3.8459,0.1000,-0.8164,992.43,-265.44,-1251.65
7950,-3.8459,0.1014,-0.8177,804.93,-499.82,-1157.90
7960,-3.8459,0.1029,-0.8190,992.43,-671.69,-939.15
7970,-3.8459,0.1034,-0.8201,1179.93,-827.94,-595.40
7980,-3.8459,0.1029,-0.8206,1242.43,-968.57,-329.77
7990,-3.8459,0.1007,-0.8204,1179.93,-1031.07,-345.40
8000,-3.8459,0.0989,-0.8203,898.68,-1015.44,-376.65
8010,-3.8459,0.0981,-0.8218,664.31,-999.82,-345.40
8020,-3.8459,0.0990,-0.8245,570.56,-1187.32,-329.77
8030,-3.8459,0.1016,-0.8262,679.93,-1531.07,-517.27
8040,-3.8459,0.1045,-0.8256,1008.06,-1749.82,-1048.52
8050,-3.8459,0.1052,-0.8234,1383.06,-1671.69,-1798.52
8060,-3.8459,0.1029,-0.8208,1476.81,-1390.44,1513.98
8070,-3.8459,0.0997,-0.8185,1179.93,-1062.32,1248.35
8080,-3.8459,0.0968,-0.8179,773.68,-765.44,1560.85
8090,-3.8459,0.0950,-0.8201,398.68,-687.32,-1673.52
8100,-3.8459,0.0948,-0.8237,164.31,-968.57,-736.02
8110,-3.8458,0.0964,-0.8271,148.68,-1437.32,92.10
8120,-3.8458,0.1003,-0.8295,351.81,-1874.82,654.60
8130,-3.8458,0.1051,-0.8303,851.81,1828.31,1092.10
8140,-3.8458,0.1083,-0.8295,1461.18,1718.93,1482.73
8150,-3.8458,0.1102,-0.8280,1867.43,1828.31,1670.23
8160,-3.8458,0.1122,-0.8259,-1882.57,-1984.19,1357.73
8170,-3.8458,0.1135,-0.8225,-1632.57,-1718.57,810.85
8180,-3.8458,0.1133,-0.8196,-1460.69,-1281.07,263.98
8190,-3.8459,0.1125,-0.8182,-1491.94,-906.07,-439.15
8200,-3.8459,0.1115,-0.8170,-1585.69,-734.19,-1064.15
8210,-3.8459,0.1105,-0.8163,-1726.32,-577.94,-1314.15
8220,-3.8459,0.1097,-0.8179,-1851.32,-484.19,-1329.77
8230,-3.8459,0.1100,-0.8198,-1945.07,-687.32,-1267.27
8240,-3.8459,0.1110,-0.8208,-1913.82,-937.32,-1157.90
8250,-3.8459,0.1116,-0.8215,-1788.82,-1062.32,-907.90
8260,-3.8459,0.1108,-0.8214,-1710.69,-1156.07,-548.52
8270,-3.8459,0.1091,-0.8204,-1804.44,-1140.44,-95.40
8280,-3.8458,0.1086,-0.8188,1976.81,-1015.44,310.85
8290,-3.8458,0.1106,-0.8167,1914.31,-812.32,357.73
8300,-3.8458,0.1143,-0.8148,-1835.69,-531.07,29.60
8310,-3.8459,0.1167,-0.8142,-1366.94,-296.69,-204.77
8320,-3.8459,0.1158,-0.8137,-1054.44,-218.57,-251.65
8330,-3.8459,0.1119,-0.8136,-1163.82,-156.07,-173.52
8340,-3.8458,0.1069,-0.8153,-1663.82,-140.44,76.48
8350,-3.8458,0.1024,-0.8181,1695.56,-359.19,388.98
8360,-3.8458,0.0986,-0.8210,1117.43,-718.57,592.10
8370,-3.8458,0.0961,-0.8239,633.06,-1093.57,763.98
8380,-3.8458,0.0944,-0.8246,304.93,-1452.94,748.35
8390,-3.8458,0.0936,-0.8234,86.18,-1546.69,451.48
8400,-3.8458,0.0944,-0.8214,-7.57,-1390.50,29.60
8410,-3.8459,0.0957,-0.8197,86.18,-1140.44,-376.65
8420,-3.8459,0.0970,-0.8185,258.06,-921.69,-532.90
8430,-3.8459,0.0979,-0.8182,429.93,-765.44,-532.90
8440,-3.8459,0.0975,-0.8193,539.31,-734.19,-611.02
8450,-3.8459,0.0958,-0.8210,492.43,-874.82,-814.15
8460,-3.8459,0.0939,-0.8219,273.68,-1093.57,-1142.27
8470,-3.8459,0.0917,-0.8206,23.68,-1202.94,-1470.40
8480,-3.8459,0.0891,-0.8190,-257.57,-1031.13,-1736.02
8490,-3.8459,0.0872,-0.8180,-585.69,-828.00,1998.35
8500,-3.8459,0.0862,-0.8173,-835.69,-703.00,1920.23
8510,-3.8459,0.0862,-0.8164,-960.69,-609.25,-1876.65
8520,-3.8459,0.0875,-0.8157,-960.69,-499.88,-1486.02
8530,-3.8459,0.0897,-0.8153,-788.82,-406.13,-1079.77
8540,-3.8459,0.0920,-0.8147,-507.57,-359.25,-782.90
8550,-3.8459,0.0950,-0.8143,-210.69,-281.13,-642.27
8560,-3.8459,0.0986,-0.8151,164.31,-234.19,-532.90
8570,-3.8459,0.1025,-0.8163,633.06,-327.94,-407.90
8580,-3.8459,0.1052,-0.8179,1133.06,-484.19,-267.27
8590,-3.8459,0.1064,-0.8191,1476.81,-687.32,-173.52
8600,-3.8459,0.1060,-0.8193,1633.06,-843.57,-157.90
8610,-3.8459,0.1041,-0.8195,1570.56,-874.82,-298.52
8620,-3.8459,0.1013,-0.8201,1336.18,-890.44,-517.27
8630,-3.8459,0.0986,-0.8209,976.81,-968.57,-470.40
8640,-3.8459,0.0961,-0.8225,633.06,-1077.94,-314.15
8650,-3.8459,0.0951,-0.8250,304.93,-1281.07,-361.02
8660,-3.8459,0.0957,-0.8274,179.93,-1593.57,-517.27
8670,-3.8459,0.0955,-0.8286,258.06,-1906.07,-564.15
8680,-3.8459,0.0936,-0.8290,226.81,1937.68,-439.15
8690,-3.8459,0.0912,-0.8290,-7.57,1890.75,-236.02
8700,-3.8458,0.0898,-0.8281,-320.07,1890.75,13.98
8710,-3.8458,0.0898,-0.8275,-491.94,-1999.88,357.73
8720,-3.8458,0.0906,-0.8282,-491.94,-1921.75,873.35
8730,-3.8458,0.0928,-0.8303,-398.19,1984.50,1451.48
8740,-3.8458,0.0962,-0.8319,-116.94,1718.87,1857.73
8750,-3.8458,0.0996,-0.8328,320.56,1515.81,1982.73
8760,-3.8458,0.1030,-0.8337,758.06,1406.43,1873.35
8770,-3.8458,0.1056,-0.8341,1195.56,1281.43,1498.35
8780,-3.8458,0.1061,-0.8319,1523.68,1234.56,1013.98
8790,-3.8458,0.1036,-0.8273,1586.18,1515.81,623.35
8800,-3.8458,0.0995,-0.8215,1273.68,-1890.44,342.10
8810,-3.8458,0.0953,-0.8162,742.43,-1156.07,263.98
8820,-3.8458,0.0930,-0.8130,211.18,-468.57,342.10
8830,-3.8458,0.0941,-0.8134,-85.69,-62.38,342.10
8840,-3.8458,0.0991,-0.8170,54.93,-109.19,92.10
8850,-3.8459,0.1055,-0.8210,695.56,-577.94,-407.90
8860,-3.8459,0.1095,-0.8231,1508.06,-1093.57,-939.15
8870,-3.8459,0.1099,-0.8228,-1976.32,-1359.19,-1329.77
8880,-3.8459,0.1066,-0.8220,-1929.44,-1312.32,-1564.15
8890,-3.8459,0.1012,-0.8228,1648.68,-1218.57,-1439.15
8900,-3.8459,0.0948,-0.8239,961.18,-1312.32,-892.27
8910,-3.8459,0.0896,-0.8254,148.68,-1452.94,-95.40
8920,-3.8458,0.0869,-0.8279,-523.19,-1656.13,638.98
8930,-3.8458,0.0868,-0.8301,-866.94,-1968.63,1045.23
8940,-3.8458,0.0883,-0.8313,-882.57,1750.12,1060.85
8950,-3.8458,0.0903,-0.8320,-695.07,1593.87,904.60
8960,-3.8458,0.0912,-0.8323,-429.44,1500.12,779.60
8970,-3.8458,0.0903,-0.8320,-320.07,1468.87,701.48
8980,-3.8458,0.0894,-0.8314,-429.44,1500.12,810.85
8990,-3.8458,0.0886,-0.8302,-554.44,1578.25,1060.85
9000,-3.8458,0.0872,-0.8290,-648.19,1734.50,1310.85
9010,-3.8458,0.0859,-0.8279,-835.69,1890.75,1310.85
9020,-3.8458,0.0854,-0.8263,-991.94,-1968.63,1107.73
9030,-3.8458,0.0851,-0.8245,-1054.44,-1765.50,795.23
9040,-3.8458,0.0869,-0.8228,-1101.32,-1531.13,404.60
9050,-3.8458,0.0912,-0.8210,-866.94,-1312.38,123.35
9060,-3.8459,0.0956,-0.8187,-320.07,-1093.63,-32.90
9070,-3.8459,0.0991,-0.8154,242.43,-796.69,-111.02
9080,-3.8459,0.1003,-0.8119,695.56,-374.82,-126.65
9090,-3.8459,0.0995,-0.8093,851.81,78.31,-204.71
9100,-3.8459,0.0983,-0.8083,742.43,406.43,-360.96
9110,-3.8459,0.0974,-0.8085,586.18,531.43,-439.09
9120,-3.8459,0.0977,-0.8103,476.81,515.81,-532.84
9130,-3.8459,0.0985,-0.8140,508.06,281.43,-720.34
9140,-3.8459,0.0984,-0.8179,617.43,-187.32,-970.40
9150,-3.8459,0.0969,-0.8208,601.81,-687.32,-1173.52
9160,-3.8459,0.0945,-0.8226,414.31,-1062.32,-1282.90
9170,-3.8459,0.0907,-0.8236,101.81,-1296.69,-1298.52
9180,-3.8459,0.0863,-0.8242,-382.57,-1421.75,-1236.02
9190,-3.8459,0.0836,-0.8250,-945.07,-1499.88,-1079.77
9200,-3.8459,0.0837,-0.8251,-1288.82,-1593.63,-829.77
9210,-3.8459,0.0862,-0.8250,-1273.19,-1609.25,-564.15
9220,-3.8459,0.0894,-0.8246,-960.69,-1593.63,-439.15
9230,-3.8459,0.0922,-0.8236,-554.44,-1546.75,-345.40
9240,-3.8459,0.0939,-0.8235,-195.07,-1421.75,-79.77
9250,-3.8458,0.0945,-0.8248,23.68,-1406.07,467.10
9260,-3.8458,0.0947,-0.8275,101.81,-1577.94,1029.60
9270,-3.8458,0.0955,-0.8304,133.06,-1921.69,1498.35
9280,-3.8458,0.0958,-0.8331,226.81,1703.31,1920.23
9290,-3.8458,0.0953,-0.8353,273.68,1359.56,-1845.40
9300,-3.8458,0.0936,-0.8367,211.18,1078.31,-1907.90
9310,-3.8458,0.0906,-0.8364,-7.57,906.37,1763.98
9320,-3.8458,0.0878,-0.8353,-398.19,937.62,1310.85
9330,-3.8458,0.0857,-0.8347,-757.57,1078.25,1029.60
9340,-3.8458,0.0845,-0.8340,-1023.19,1156.37,998.35
9350,-3.8458,0.0839,-0.8325,-1179.44,1250.12,888.98
9360,-3.8458,0.0840,-0.8308,-1257.57,1437.62,732.73
9370,-3.8458,0.0846,-0.8291,-1241.94,1656.37,576.48
9380,-3.8458,0.0850,-0.8285,-1163.82,1875.12,326.48
9390,-3.8458,0.0863,-0.8284,-1116.94,1953.25,263.98
9400,-3.8458,0.0885,-0.8275,-945.07,1968.87,482.73
9410,-3.8458,0.0903,-0.8267,-663.82,-1921.75,732.73
9420,-3.8458,0.0913,-0.8258,-429.44,-1812.38,810.85
9430,-3.8458,0.0905,-0.8250,-304.44,-1703.00,654.60
9440,-3.8458,0.0883,-0.8247,-413.82,-1593.63,435.85
9450,-3.8458,0.0858,-0.8240,-695.07,-1562.38,263.98
9460,-3.8458,0.0837,-0.8230,-1007.57,-1468.63,92.10
9470,-3.8459,0.0824,-0.8220,-1273.19,-1343.63,-111.02
9480,-3.8459,0.0817,-0.8218,-1445.07,-1218.63,-329.77
9490,-3.8459,0.0814,-0.8219,-1538.82,-1187.38,-548.52
9500,-3.8459,0.0817,-0.8214,-1570.07,-1203.00,-736.02
9510,-3.8459,0.0820,-0.8201,-1538.82,-1140.50,-939.15
9520,-3.8459,0.0828,-0.8185,-1491.94,-968.63,-1079.77
9530,-3.8459,0.0840,-0.8181,-1398.19,-765.50,-1126.65
9540,-3.8459,0.0858,-0.8177,-1241.94,-718.63,-1111.02
9550,-3.8459,0.0884,-0.8164,-1007.57,-671.75,-1095.40
9560,-3.8459,0.0902,-0.8153,-679.44,-499.88,-1220.40
9570,-3.8459,0.0906,-0.8159,-445.07,-359.25,-1376.65
9580,-3.8459,0.0902,-0.8179,-398.19,-437.38,-1361.02
9590,-3.8459,0.0890,-0.8198,-445.07,-687.38,-1126.65
9600,-3.8459,0.0874,-0.8210,-601.32,-937.38,-798.52
9610,-3.8459,0.0862,-0.8219,-804.44,-1093.63,-579.77
9620,-3.8459,0.0859,-0.8223,-960.69,-1203.00,-439.15
9630,-3.8459,0.0865,-0.8223,-991.94,-1249.88,-392.27
9640,-3.8459,0.0873,-0.8214,-913.82,-1249.88,-517.27
9650,-3.8459,0.0880,-0.8192,-820.07,-1140.50,-611.02
9660,-3.8459,0.0891,-0.8170,-726.32,-859.25,-564.15
9670,-3.8459,0.0906,-0.8163,-585.69,-578.00,-407.90
9680,-3.8459,0.0919,-0.8173,-398.19,-484.25,-236.02
9690,-3.8459,0.0934,-0.8190,-226.32,-609.25,-111.02
9700,-3.8459,0.0955,-0.8215,-38.82,-828.00,-1.65
9710,-3.8458,0.0975,-0.8250,226.81,-1156.07,76.48
9720,-3.8459,0.0985,-0.8284,492.43,-1593.57,-17.27
9730,-3.8459,0.0981,-0.8300,617.43,1968.93,-157.90
9740,-3.8459,0.0957,-0.8298,570.56,1765.81,-173.52
9750,-3.8459,0.0917,-0.8298,258.06,1781.43,-79.77
9760,-3.8458,0.0879,-0.8295,-257.57,1781.37,154.60
9770,-3.8458,0.0862,-0.8281,-741.94,1828.25,295.23
9780,-3.8458,0.0865,-0.8267,-960.69,-1999.88,295.23
9790,-3.8458,0.0894,-0.8257,-913.82,-1812.38,295.23
9800,-3.8458,0.0934,-0.8254,-554.44,-1687.38,154.60
9810,-3.8458,0.0968,-0.8258,-38.82,-1656.13,13.98
9820,-3.8458,0.0990,-0.8262,398.68,-1702.94,60.85
9830,-3.8458,0.1001,-0.8267,679.93,-1749.82,232.73
9840,-3.8458,0.1001,-0.8269,820.56,-1812.32,451.48
9850,-3.8458,0.0986,-0.8268,820.56,-1843.57,576.48
9860,-3.8458,0.0966,-0.8260,633.06,-1827.94,623.35
9870,-3.8458,0.0942,-0.8248,367.43,-1734.19,513.98
9880,-3.8458,0.0922,-0.8232,70.56,-1577.94,201.48
9890,-3.8459,0.0911,-0.8213,-195.07,-1374.88,-189.15
9900,-3.8459,0.0909,-0.8197,-335.69,-1124.88,-501.65
9910,-3.8459,0.0917,-0.8190,-351.32,-921.75,-720.40
9920,-3.8459,0.0920,-0.8184,-257.57,-828.00,-782.90
9930,-3.8459,0.0916,-0.8185,-210.69,-749.88,-642.27
9940,-3.8459,0.0905,-0.8195,-273.19,-765.50,-392.27
