timestamp_ms,ax,ay,az,gx,gy,gz
0,-3.8722,-0.0386,-0.4950,-85.69,-1484.50,-1891.54
10,-3.8721,-0.0470,-0.5391,-929.44,656.13,936.52
20,-3.8719,-0.0648,-0.5706,1992.43,-984.50,1092.65
30,-3.8718,-0.0927,-0.5869,-288.82,-1015.81,1498.84
40,-3.8717,-0.1228,-0.5951,148.68,890.44,1420.72
50,-3.8716,-0.1445,-0.6022,289.31,-156.49,186.28
60,-3.8716,-0.1511,-0.6085,1508.06,-1062.81,1576.90
70,-3.8716,-0.1447,-0.6110,664.31,-1875.31,1795.65
80,-3.8716,-0.1306,-0.6072,1492.43,1812.19,1014.40
90,-3.8717,-0.1155,-0.6028,-710.69,-1703.43,-923.10
100,-3.8717,-0.1022,-0.6041,1226.81,-1140.87,264.40
110,-3.8718,-0.0887,-0.6091,-1070.07,-1312.74,1451.90
120,-3.8719,-0.0734,-0.6139,648.68,-1953.31,-688.72
130,-3.8719,-0.0615,-0.6191,-1382.57,1437.32,1905.03
140,-3.8719,-0.0579,-0.6224,133.06,765.50,873.78
150,-3.8719,-0.0581,-0.6206,601.81,343.63,61.28
160,-3.8721,-0.0598,-0.6123,570.56,578.00,-391.85
170,-3.8721,-0.0660,-0.5964,351.81,1640.50,-594.97
180,-3.8721,-0.0784,-0.5780,-445.07,-328.31,-798.10
190,-3.8721,-0.0917,-0.5621,1976.81,-1968.93,-1329.28
200,-3.8721,-0.0979,-0.5486,273.68,62.32,1780.15
210,-3.8721,-0.0928,-0.5366,-523.19,1796.63,1077.03
220,-3.8721,-0.0802,-0.5298,133.06,-672.06,1123.90
230,-3.8721,-0.0675,-0.5310,1742.43,202.94,1983.34
240,-3.8721,-0.0605,-0.5391,-632.57,46.69,-672.91
250,-3.8719,-0.0602,-0.5513,258.06,-984.50,702.03
260,-3.8719,-0.0605,-0.5662,304.93,1453.00,1639.53
270,-3.8719,-0.0580,-0.5743,258.06,-453.25,1530.09
280,-3.8719,-0.0541,-0.5685,586.18,-1500.12,639.47
290,-3.8721,-0.0531,-0.5570,1086.18,-750.12,-173.03
300,-3.8721,-0.0568,-0.5526,1211.18,718.63,-704.22
310,-3.8721,-0.0645,-0.5564,742.43,1281.13,-1110.47
320,-3.8721,-0.0758,-0.5641,-241.94,796.69,-1329.22
330,-3.8721,-0.0878,-0.5699,-1695.07,-187.68,-1438.66
340,-3.8721,-0.0972,-0.5690,773.68,-937.68,-1485.53
350,-3.8721,-0.1008,-0.5631,-429.44,-812.74,-1344.91
360,-3.8721,-0.0995,-0.5585,-898.19,-62.74,-1188.66
370,-3.8721,-0.0945,-0.5604,-726.32,531.01,-829.22
380,-3.8719,-0.0841,-0.5693,-85.69,281.01,170.78
390,-3.8719,-0.0707,-0.5809,1242.43,-859.56,1530.09
400,-3.8719,-0.0591,-0.5905,-1038.82,1656.07,-1516.78
410,-3.8719,-0.0514,-0.5952,445.56,437.38,-1485.53
420,-3.8719,-0.0493,-0.5996,1429.93,-172.00,-1969.97
430,-3.8719,-0.0432,-0.6116,1695.56,-734.50,1623.78
440,-3.8719,-0.0215,-0.6406,-1523.19,1734.25,1076.90
450,-3.8719,0.0037,-0.6844,1258.06,-1984.44,1811.22
460,-3.8718,0.0153,-0.7233,476.81,390.62,1217.41
470,-3.8717,0.0133,-0.7352,1961.18,-578.12,1123.54
480,-3.8717,0.0060,-0.7119,1711.18,1890.62,-1360.84
490,-3.8717,0.0013,-0.6632,773.68,875.00,701.72
500,-3.8718,0.0012,-0.6133,179.93,-890.62,561.16
510,-3.8719,-0.0040,-0.5884,164.31,1500.00,326.90
520,-3.8721,-0.0222,-0.5969,-507.57,703.06,1670.72
530,-3.8721,-0.0468,-0.6238,1164.31,-390.69,1420.65
540,-3.8721,-0.0670,-0.6479,-1976.32,171.75,-1219.97
550,-3.8719,-0.0861,-0.6637,-570.07,1077.94,201.84
560,-3.8719,-0.1088,-0.6770,992.43,-937.68,1108.03
570,-3.8719,-0.1290,-0.6888,-1913.82,1359.13,1858.03
580,-3.8719,-0.1432,-0.6959,-507.57,-156.56,-1532.65
590,-3.8719,-0.1517,-0.6980,1679.93,-1062.81,-1282.65
600,-3.8719,-0.1497,-0.6903,586.18,-1328.43,-1454.53
610,-3.8719,-0.1326,-0.6700,851.81,-344.06,1873.60
620,-3.8719,-0.1080,-0.6443,-960.69,-1750.31,373.66
630,-3.8721,-0.0878,-0.6226,-1820.07,1546.63,-1751.28
640,-3.8721,-0.0754,-0.6113,773.68,327.94,405.03
650,-3.8722,-0.0674,-0.6113,-1648.19,1765.44,-563.72
660,-3.8722,-0.0598,-0.6156,-616.94,1765.44,-798.10
670,-3.8722,-0.0551,-0.6201,351.81,1218.63,-751.22
680,-3.8722,-0.0581,-0.6240,961.18,640.50,-313.72
690,-3.8721,-0.0647,-0.6283,570.56,140.50,889.40
700,-3.8721,-0.0627,-0.6378,-273.19,-406.43,-1251.28
710,-3.8719,-0.0498,-0.6516,-23.19,-1625.18,764.34
720,-3.8719,-0.0353,-0.6660,1633.06,609.25,-1423.16
730,-3.8719,-0.0291,-0.6776,-507.57,-1234.50,-157.59
740,-3.8718,-0.0348,-0.6798,289.31,1281.19,186.16
750,-3.8719,-0.0508,-0.6700,-445.07,999.88,-470.09
760,-3.8719,-0.0712,-0.6538,1508.06,-1750.12,-1938.84
770,-3.8719,-0.0905,-0.6396,-1101.32,327.94,139.34
780,-3.8721,-0.1088,-0.6322,429.93,-1859.56,-1470.03
790,-3.8721,-0.1274,-0.6340,-1913.82,-906.49,1623.72
800,-3.8721,-0.1432,-0.6421,-304.44,-1140.93,1311.22
810,-3.8721,-0.1517,-0.6461,1679.93,1827.82,1248.72
820,-3.8721,-0.1532,-0.6444,586.18,1312.19,1170.59
830,-3.8721,-0.1515,-0.6427,398.68,1530.94,858.09
840,-3.8721,-0.1523,-0.6445,617.43,1749.69,561.22
850,-3.8721,-0.1542,-0.6483,508.06,1515.32,1154.97
860,-3.8721,-0.1492,-0.6499,273.68,1030.94,-1579.41
870,-3.8721,-0.1355,-0.6482,914.31,827.82,-891.91
880,-3.8721,-0.1180,-0.6432,-1335.69,1046.57,-1282.53
890,-3.8721,-0.1010,-0.6343,898.68,1687.26,1764.34
900,-3.8721,-0.0857,-0.6248,-913.82,-1172.12,779.97
910,-3.8722,-0.0754,-0.6173,1039.31,46.69,-204.35
920,-3.8722,-0.0702,-0.6134,-1648.19,999.82,-876.22
930,-3.8722,-0.0668,-0.6144,-976.32,1499.82,-891.85
940,-3.8722,-0.0627,-0.6177,-538.82,1374.82,-454.35
950,-3.8722,-0.0570,-0.6198,-23.19,952.94,-63.72
960,-3.8721,-0.0508,-0.6201,711.18,687.38,186.28
970,-3.8721,-0.0450,-0.6184,1508.06,640.50,186.28
980,-3.8722,-0.0394,-0.6140,-1757.57,859.25,-188.72
990,-3.8722,-0.0354,-0.6089,-1038.82,1421.75,-876.22
1000,-3.8722,-0.0356,-0.6055,-523.19,-1922.00,-1454.35
1010,-3.8722,-0.0397,-0.6075,-554.44,-1484.50,-1423.10
1020,-3.8722,-0.0455,-0.6171,-1070.07,-1750.12,-813.72
1030,-3.8721,-0.0511,-0.6292,-1820.07,1031.13,30.03
1040,-3.8721,-0.0537,-0.6364,1461.18,-515.75,858.09
1050,-3.8721,-0.0525,-0.6357,1133.06,-1437.62,1592.47
1060,-3.8721,-0.0515,-0.6304,1289.31,-1359.50,1951.84
1070,-3.8721,-0.0502,-0.6263,1414.31,-672.00,1701.84
1080,-3.8721,-0.0437,-0.6270,1586.18,-156.37,1264.34
1090,-3.8721,-0.0327,-0.6295,-1585.69,-234.50,1217.47
1100,-3.8721,-0.0236,-0.6309,-179.44,-562.62,1514.34
1110,-3.8721,-0.0214,-0.6316,992.43,-734.44,1936.22
1120,-3.8721,-0.0277,-0.6318,1273.68,-828.19,-1688.78
1130,-3.8721,-0.0378,-0.6329,461.18,-859.44,-1470.03
1140,-3.8721,-0.0470,-0.6370,-835.69,-1000.12,-1313.78
1150,-3.8721,-0.0525,-0.6421,1992.43,-1515.75,-985.66
1160,-3.8721,-0.0532,-0.6447,1289.31,1828.00,-516.91
1170,-3.8721,-0.0516,-0.6431,1195.56,1499.88,-204.41
1180,-3.8721,-0.0510,-0.6384,1398.68,1703.00,-282.53
1190,-3.8721,-0.0525,-0.6340,1476.81,-1703.25,-766.91
1200,-3.8721,-0.0562,-0.6349,1289.31,-1140.75,-1266.91
1210,-3.8721,-0.0588,-0.6398,820.56,-1250.12,-1345.03
1220,-3.8721,-0.0576,-0.6440,476.81,-1875.12,-845.03
1230,-3.8719,-0.0541,-0.6460,633.06,1578.00,45.59
1240,-3.8719,-0.0511,-0.6453,1086.18,1328.00,842.47
1250,-3.8719,-0.0498,-0.6429,1461.18,1421.75,889.34
1260,-3.8719,-0.0499,-0.6392,1633.06,1718.63,61.22
1270,-3.8721,-0.0522,-0.6342,1617.43,-1797.00,-1220.03
1280,-3.8721,-0.0575,-0.6299,1320.56,-1156.37,1654.97
1290,-3.8721,-0.0654,-0.6302,648.68,-609.50,1404.97
1300,-3.8721,-0.0721,-0.6378,-366.94,-656.43,-1876.28
1310,-3.8721,-0.0725,-0.6495,-1226.32,-1625.18,-454.41
1320,-3.8719,-0.0675,-0.6616,-1273.19,874.82,1201.84
1330,-3.8719,-0.0634,-0.6694,-632.57,-672.06,-1657.59
1340,-3.8719,-0.0632,-0.6674,-101.32,-1672.06,-1563.84
1350,-3.8719,-0.0677,-0.6553,-85.69,-1406.43,1514.28
1360,-3.8721,-0.0762,-0.6382,-663.82,140.44,-95.03
1370,-3.8721,-0.0863,-0.6248,-1741.94,-1672.06,-1860.66
1380,-3.8721,-0.0974,-0.6208,961.18,46.69,1045.65
1390,-3.8721,-0.1066,-0.6260,-460.69,546.63,1201.90
1400,-3.8721,-0.1108,-0.6362,-1632.57,-109.62,-1766.91
1410,-3.8721,-0.1094,-0.6458,1820.56,-1422.12,-938.78
1420,-3.8721,-0.1014,-0.6483,-1991.94,1359.13,-845.03
1430,-3.8721,-0.0895,-0.6426,-976.32,1031.01,-1329.41
1440,-3.8721,-0.0781,-0.6324,554.93,1765.44,1889.34
1450,-3.8721,-0.0745,-0.6230,-1991.94,-937.68,1154.97
1460,-3.8721,-0.0819,-0.6177,-1523.19,265.44,951.90
1470,-3.8721,-0.0934,-0.6180,1523.68,952.94,1405.03
1480,-3.8721,-0.1001,-0.6222,54.93,906.07,-1751.22
1490,-3.8721,-0.1007,-0.6283,-804.44,374.76,-1048.10
1500,-3.8721,-0.0995,-0.6322,-882.57,-406.49,-829.41
1510,-3.8721,-0.0985,-0.6301,-726.32,-906.49,-1063.78
1520,-3.8721,-0.0977,-0.6232,-601.32,-640.87,-1829.41
1530,-3.8721,-0.0973,-0.6156,-491.94,249.76,1186.28
1540,-3.8721,-0.0985,-0.6147,-445.07,1218.51,530.03
1550,-3.8721,-0.0996,-0.6224,-601.32,1327.88,436.28
1560,-3.8721,-0.0968,-0.6320,-741.94,343.51,905.03
1570,-3.8721,-0.0879,-0.6356,-382.57,-875.24,1467.47
1580,-3.8721,-0.0750,-0.6310,758.06,-1343.93,1592.47
1590,-3.8721,-0.0620,-0.6230,-1585.69,-750.18,1217.47
1600,-3.8721,-0.0519,-0.6171,70.56,265.50,498.78
1610,-3.8722,-0.0455,-0.6152,1367.43,1031.13,-1.22
1620,-3.8721,-0.0433,-0.6180,-1820.07,1265.50,108.15
1630,-3.8721,-0.0449,-0.6238,-1538.82,906.13,608.15
1640,-3.8721,-0.0483,-0.6322,-1741.94,171.75,1248.78
1650,-3.8721,-0.0500,-0.6427,1820.56,-906.37,1889.34
1660,-3.8721,-0.0497,-0.6492,1601.81,1749.88,-1595.03
1670,-3.8721,-0.0474,-0.6482,1648.68,921.75,-1188.78
1680,-3.8721,-0.0446,-0.6403,1945.56,1046.75,-1282.53
1690,-3.8721,-0.0431,-0.6283,-1695.07,-1937.62,1983.09
1700,-3.8721,-0.0422,-0.6200,-1507.57,-406.37,1029.97
1710,-3.8721,-0.0428,-0.6207,-1398.19,656.13,201.90
1720,-3.8721,-0.0431,-0.6293,-1476.32,562.38,123.78
1730,-3.8721,-0.0417,-0.6415,-1507.57,-531.37,1092.47
1740,-3.8721,-0.0409,-0.6504,-1335.69,1906.13,-1657.53
1750,-3.8721,-0.0420,-0.6527,-1226.32,765.50,-798.16
1760,-3.8721,-0.0433,-0.6497,-1366.94,468.63,-360.66
1770,-3.8721,-0.0447,-0.6434,-1538.82,859.25,-470.03
1780,-3.8721,-0.0469,-0.6353,-1710.69,1656.13,-1079.41
1790,-3.8721,-0.0502,-0.6300,-1991.94,-1297.00,-1813.78
1800,-3.8721,-0.0547,-0.6313,1586.18,-625.12,1561.22
1810,-3.8721,-0.0582,-0.6377,1008.06,-797.00,1326.84
1820,-3.8721,-0.0587,-0.6464,554.93,-1609.50,1545.59
1830,-3.8721,-0.0575,-0.6530,492.43,1281.13,1983.09
1840,-3.8721,-0.0585,-0.6517,648.68,437.38,-1782.53
1850,-3.8721,-0.0615,-0.6409,523.68,593.63,1858.09
1860,-3.8721,-0.0637,-0.6262,133.06,1984.25,1029.97
1870,-3.8721,-0.0643,-0.6190,-148.19,-140.81,264.34
1880,-3.8721,-0.0634,-0.6244,-226.32,781.07,61.28
1890,-3.8721,-0.0634,-0.6375,-101.32,93.57,576.90
1900,-3.8721,-0.0656,-0.6494,-101.32,-1578.31,1623.72
1910,-3.8721,-0.0656,-0.6547,-382.57,890.44,-1548.16
1920,-3.8721,-0.0612,-0.6510,-382.57,218.57,-1282.53
1930,-3.8721,-0.0546,-0.6404,179.93,687.38,-1579.41
1940,-3.8721,-0.0503,-0.6273,1023.68,-1953.25,1545.59
1950,-3.8721,-0.0522,-0.6190,1570.56,-281.37,389.34
1960,-3.8722,-0.0588,-0.6194,1320.56,781.13,-641.85
1970,-3.8722,-0.0647,-0.6262,476.81,734.25,-1032.47
1980,-3.8722,-0.0680,-0.6332,-273.19,-140.81,-860.66
1990,-3.8722,-0.0699,-0.6350,-695.07,-1031.43,-563.78
2000,-3.8722,-0.0688,-0.6323,-945.07,-1265.81,-188.78
2010,-3.8721,-0.0652,-0.6309,-804.44,-922.06,186.22
2020,-3.8721,-0.0627,-0.6375,-335.69,-734.56,545.59
2030,-3.8721,-0.0621,-0.6526,-23.19,-1578.31,1264.34
2040,-3.8721,-0.0615,-0.6703,54.93,484.25,-1360.66
2050,-3.8719,-0.0602,-0.6818,133.06,-1781.37,342.41
2060,-3.8719,-0.0598,-0.6807,304.93,749.88,1248.66
2070,-3.8719,-0.0635,-0.6680,351.81,890.50,967.41
2080,-3.8721,-0.0690,-0.6530,-116.94,-1484.56,-79.47
2090,-3.8721,-0.0728,-0.6456,-820.07,437.32,-1220.03
2100,-3.8721,-0.0728,-0.6494,-1304.44,1374.82,-1907.53
2110,-3.8721,-0.0686,-0.6602,-1304.44,890.44,-1704.41
2120,-3.8721,-0.0620,-0.6699,-773.19,-484.56,-798.22
2130,-3.8721,-0.0563,-0.6720,70.56,-1734.50,-79.47
2140,-3.8721,-0.0548,-0.6671,804.93,1999.88,-141.97
2150,-3.8721,-0.0588,-0.6594,992.43,-1375.12,-923.22
2160,-3.8721,-0.0643,-0.6543,476.81,-390.75,-1720.09
2170,-3.8721,-0.0657,-0.6556,-226.32,265.44,1951.84
2180,-3.8721,-0.0614,-0.6615,-398.19,93.57,-1860.66
2190,-3.8721,-0.0553,-0.6665,148.68,-656.37,-1376.34
2200,-3.8721,-0.0524,-0.6661,929.93,-1297.00,-1110.72
2210,-3.8721,-0.0533,-0.6594,1304.93,-1250.12,-1470.09
2220,-3.8721,-0.0540,-0.6481,1179.93,-390.75,1498.66
2230,-3.8721,-0.0503,-0.6345,1101.81,1062.38,29.97
2240,-3.8722,-0.0437,-0.6259,1570.56,-1203.25,-1079.41
2250,-3.8722,-0.0378,-0.6287,-1585.69,-93.87,-1251.28
2260,-3.8722,-0.0338,-0.6393,-835.69,-453.25,-485.66
2270,-3.8721,-0.0323,-0.6515,-320.07,-1812.62,764.34
2280,-3.8721,-0.0321,-0.6598,-132.57,624.88,1717.47
2290,-3.8721,-0.0334,-0.6584,-101.32,-437.62,1904.91
2300,-3.8721,-0.0385,-0.6471,-273.19,-265.75,1373.66
2310,-3.8721,-0.0452,-0.6328,-913.82,1187.38,483.09
2320,-3.8722,-0.0516,-0.6261,-1773.19,-984.50,-220.03
2330,-3.8722,-0.0581,-0.6302,1398.68,-125.12,-595.03
2340,-3.8722,-0.0641,-0.6393,570.56,-656.37,-766.91
2350,-3.8722,-0.0667,-0.6447,-195.07,-1812.68,-798.16
2360,-3.8722,-0.0649,-0.6415,-523.19,1499.82,-985.66
2370,-3.8722,-0.0632,-0.6323,-304.44,1906.07,-1516.91
2380,-3.8722,-0.0637,-0.6246,-85.69,-922.06,1826.84
2390,-3.8722,-0.0651,-0.6235,-148.19,62.32,1405.03
2400,-3.8722,-0.0659,-0.6290,-320.07,202.94,1389.40
2410,-3.8722,-0.0660,-0.6356,-429.44,-500.18,1514.34
2420,-3.8722,-0.0667,-0.6379,-445.07,-1343.93,1608.09
2430,-3.8722,-0.0673,-0.6342,-523.19,-1640.81,1420.59
2440,-3.8722,-0.0664,-0.6255,-601.32,-1156.43,670.59
2450,-3.8723,-0.0641,-0.6149,-491.94,-47.06,-391.91
2460,-3.8723,-0.0626,-0.6055,-195.07,1312.32,-1360.60
2470,-3.8723,-0.0629,-0.6008,-7.57,-1484.56,-1938.72
2480,-3.8723,-0.0623,-0.6041,-38.82,-890.81,-1985.60
2490,-3.8723,-0.0605,-0.6158,39.31,-1312.62,-1360.60
2500,-3.8723,-0.0601,-0.6310,258.06,1187.38,-1.22
2510,-3.8722,-0.0601,-0.6438,320.56,-750.12,1701.84
2520,-3.8722,-0.0585,-0.6514,320.56,1609.25,-829.41
2530,-3.8721,-0.0559,-0.6516,523.68,640.50,29.97
2540,-3.8721,-0.0541,-0.6456,851.81,609.25,61.22
2550,-3.8722,-0.0533,-0.6384,1086.18,1374.88,-313.78
2560,-3.8722,-0.0533,-0.6359,1179.93,-1703.25,-657.53
2570,-3.8722,-0.0555,-0.6396,1179.93,-1375.12,-798.16
2580,-3.8722,-0.0602,-0.6486,898.68,-1859.50,-423.16
2590,-3.8721,-0.0627,-0.6598,304.93,999.88,608.09
2600,-3.8721,-0.0610,-0.6710,-23.19,-437.68,-1985.72
2610,-3.8721,-0.0568,-0.6813,195.56,-1875.12,-470.09
2620,-3.8719,-0.0503,-0.6882,742.43,812.38,748.66
2630,-3.8719,-0.0422,-0.6899,1570.56,-78.25,1357.97
2640,-3.8719,-0.0355,-0.6870,-1398.19,-297.00,1607.97
2650,-3.8719,-0.0337,-0.6814,-538.82,78.00,1623.66
2660,-3.8719,-0.0381,-0.6760,-304.44,796.75,1436.16
2670,-3.8719,-0.0472,-0.6759,-866.94,1484.25,1420.53
2680,-3.8719,-0.0575,-0.6835,1961.18,1499.88,1858.03
2690,-3.8719,-0.0663,-0.6956,648.68,531.13,-1485.72
2700,-3.8719,-0.0730,-0.7069,-476.32,-1015.81,-798.28
2710,-3.8719,-0.0737,-0.7111,-1335.69,1531.07,-220.15
2720,-3.8719,-0.0671,-0.7031,-1429.44,999.82,-423.28
2730,-3.8719,-0.0588,-0.6868,-585.69,-1984.56,-1673.28
2740,-3.8719,-0.0547,-0.6703,476.81,109.25,670.53
2750,-3.8721,-0.0563,-0.6613,1008.06,-1781.37,-657.59
2760,-3.8721,-0.0613,-0.6609,804.93,-625.12,-1454.47
2770,-3.8721,-0.0662,-0.6658,164.31,-578.25,-1610.72
2780,-3.8721,-0.0676,-0.6715,-460.69,-1203.31,-1204.47
2790,-3.8721,-0.0663,-0.6752,-648.19,-1937.68,-829.47
2800,-3.8721,-0.0647,-0.6758,-476.32,1593.57,-876.34
2810,-3.8721,-0.0624,-0.6722,-273.19,1515.44,-1423.22
2820,-3.8721,-0.0585,-0.6650,23.68,1968.63,1576.78
2830,-3.8721,-0.0536,-0.6581,523.68,-1109.50,420.53
2840,-3.8722,-0.0486,-0.6539,1148.68,-218.87,-548.22
2850,-3.8722,-0.0470,-0.6509,1789.31,312.38,-1251.28
2860,-3.8722,-0.0499,-0.6475,1992.43,703.00,-1673.16
2870,-3.8722,-0.0527,-0.6444,1617.43,1140.50,-1798.16
2880,-3.8722,-0.0522,-0.6439,1258.06,1531.13,-1985.66
2890,-3.8722,-0.0527,-0.6465,1320.56,1593.63,1639.34
2900,-3.8722,-0.0574,-0.6484,1258.06,1265.50,1264.34
2910,-3.8722,-0.0624,-0.6456,664.31,1015.50,858.09
2920,-3.8722,-0.0642,-0.6377,23.68,1374.88,170.59
2930,-3.8723,-0.0629,-0.6277,-210.69,-1609.56,-563.78
2940,-3.8723,-0.0586,-0.6232,-38.82,-328.31,-829.41
2950,-3.8723,-0.0540,-0.6284,508.06,249.88,-563.72
2960,-3.8722,-0.0508,-0.6398,1101.81,-422.00,108.09
2970,-3.8722,-0.0485,-0.6510,1508.06,-1875.12,1045.59
2980,-3.8722,-0.0470,-0.6562,1804.93,687.38,1795.59
2990,-3.8722,-0.0490,-0.6538,1992.43,15.50,-1985.66
3000,-3.8722,-0.0538,-0.6473,1742.43,328.00,1717.47
3010,-3.8722,-0.0591,-0.6409,1117.43,1156.13,1389.34
3020,-3.8722,-0.0643,-0.6387,445.56,1984.25,1358.09
3030,-3.8722,-0.0680,-0.6436,-226.32,-1734.56,1733.09
3040,-3.8722,-0.0674,-0.6528,-695.07,1640.44,-1454.41
3050,-3.8722,-0.0618,-0.6608,-616.94,452.94,-501.28
3060,-3.8721,-0.0521,-0.6644,101.81,-562.62,139.28
3070,-3.8721,-0.0426,-0.6643,1336.18,-1031.37,248.66
3080,-3.8722,-0.0399,-0.6619,-1445.07,-1015.75,-32.59
3090,-3.8722,-0.0466,-0.6587,-1101.32,-703.25,-360.72
3100,-3.8722,-0.0583,-0.6577,-1960.69,-297.00,-391.97
3110,-3.8721,-0.0693,-0.6626,539.31,-172.00,201.78
3120,-3.8721,-0.0739,-0.6726,-866.94,-797.06,1389.28
3130,-3.8721,-0.0688,-0.6816,-1445.07,1921.69,-1266.97
3140,-3.8721,-0.0577,-0.6829,-804.44,765.44,-610.72
3150,-3.8721,-0.0476,-0.6758,617.43,609.25,-970.09
3160,-3.8721,-0.0424,-0.6648,1914.31,1515.50,1795.53
3170,-3.8721,-0.0421,-0.6536,-1413.82,-1078.25,154.91
3180,-3.8722,-0.0458,-0.6447,-1382.57,359.25,-1141.91
3190,-3.8722,-0.0502,-0.6437,-1851.32,1499.88,-1516.91
3200,-3.8722,-0.0532,-0.6553,1586.18,1624.88,-829.41
3210,-3.8721,-0.0524,-0.6742,1195.56,140.50,514.34
3220,-3.8721,-0.0454,-0.6884,1304.93,1718.63,1936.16
3230,-3.8721,-0.0354,-0.6901,-1804.44,-93.87,-1110.78
3240,-3.8721,-0.0293,-0.6799,-523.19,-312.62,-1204.53
3250,-3.8721,-0.0317,-0.6628,258.06,984.31,1529.91
3260,-3.8722,-0.0405,-0.6455,-54.44,-828.25,-235.72
3270,-3.8722,-0.0491,-0.6366,-1179.44,1390.50,-1704.41
3280,-3.8722,-0.0521,-0.6411,1726.81,-1468.87,1701.84
3290,-3.8722,-0.0494,-0.6558,1336.18,1953.00,-1688.78
3300,-3.8722,-0.0448,-0.6716,1679.93,78.00,-313.78
3310,-3.8721,-0.0417,-0.6785,-1726.32,-1953.25,904.91
3320,-3.8721,-0.0422,-0.6746,-1335.69,1171.75,1248.66
3330,-3.8721,-0.0455,-0.6638,-1398.19,1671.75,639.28
3340,-3.8722,-0.0483,-0.6526,-1820.07,-953.25,-501.34
3350,-3.8722,-0.0507,-0.6467,1820.56,484.25,-1579.41
3360,-3.8722,-0.0558,-0.6477,1523.68,1234.25,1998.72
3370,-3.8722,-0.0614,-0.6549,867.43,1109.25,-1470.03
3380,-3.8722,-0.0608,-0.6639,148.68,187.38,-360.66
3390,-3.8721,-0.0526,-0.6692,226.81,-968.87,733.03
3400,-3.8721,-0.0433,-0.6687,1273.68,-1640.75,1373.66
3410,-3.8721,-0.0389,-0.6641,-1538.82,-1578.25,1342.41
3420,-3.8721,-0.0399,-0.6586,-976.32,-984.50,639.28
3430,-3.8722,-0.0438,-0.6541,-1101.32,-281.37,-298.22
3440,-3.8722,-0.0498,-0.6508,-1601.32,296.75,-1032.53
3450,-3.8722,-0.0571,-0.6487,1633.06,718.63,-1563.78
3460,-3.8722,-0.0631,-0.6486,695.56,984.25,-1954.41
3470,-3.8722,-0.0646,-0.6512,-70.07,999.82,1983.09
3480,-3.8722,-0.0605,-0.6564,-257.57,656.07,-1766.91
3490,-3.8722,-0.0516,-0.6615,258.06,-0.12,-1313.84
3500,-3.8722,-0.0410,-0.6644,1398.68,-656.37,-641.97
3510,-3.8722,-0.0355,-0.6628,-1241.94,-1031.37,-204.47
3520,-3.8722,-0.0389,-0.6569,-538.82,-828.25,-235.72
3530,-3.8722,-0.0486,-0.6523,-976.32,-62.62,-407.59
3540,-3.8722,-0.0579,-0.6543,1789.31,515.50,-407.53
3550,-3.8722,-0.0615,-0.6619,601.81,265.50,-63.78
3560,-3.8721,-0.0604,-0.6702,133.06,-703.25,639.28
3570,-3.8721,-0.0579,-0.6747,273.68,-1765.75,1295.53
3580,-3.8721,-0.0549,-0.6725,601.81,1656.13,1467.41
3590,-3.8721,-0.0513,-0.6647,976.81,1937.38,1170.53
3600,-3.8721,-0.0499,-0.6581,1445.56,-1062.62,608.03
3610,-3.8722,-0.0536,-0.6553,1617.43,-218.87,-1.34
3620,-3.8722,-0.0602,-0.6539,1148.68,140.50,-501.28
3630,-3.8722,-0.0653,-0.6519,304.93,312.38,-813.78
3640,-3.8722,-0.0665,-0.6492,-351.32,577.94,-1001.28
3650,-3.8722,-0.0654,-0.6484,-507.57,921.69,-1282.53
3660,-3.8722,-0.0637,-0.6516,-366.94,1015.44,-1579.41
3670,-3.8722,-0.0604,-0.6588,-148.19,609.19,-1438.78
3680,-3.8722,-0.0542,-0.6656,273.68,-312.62,-704.47
3690,-3.8721,-0.0474,-0.6661,1070.56,-1187.62,123.66
3700,-3.8721,-0.0450,-0.6604,1945.56,-1250.12,545.53
3710,-3.8721,-0.0474,-0.6534,-1757.57,-515.75,545.53
3720,-3.8721,-0.0488,-0.6506,1945.56,374.88,233.09
3730,-3.8722,-0.0468,-0.6514,1758.06,734.25,-298.16
3740,-3.8722,-0.0437,-0.6515,-1976.32,640.50,-595.03
3750,-3.8722,-0.0425,-0.6495,-1585.69,624.88,-673.16
3760,-3.8722,-0.0446,-0.6478,-1429.44,874.88,-1079.41
3770,-3.8722,-0.0472,-0.6488,-1695.07,1093.63,-1610.66
3780,-3.8722,-0.0493,-0.6536,1961.18,968.63,-1548.16
3790,-3.8722,-0.0527,-0.6610,1695.56,359.25,-720.03
3800,-3.8721,-0.0577,-0.6675,1258.06,-593.87,389.28
3810,-3.8721,-0.0618,-0.6697,617.43,-1422.00,1248.66
3820,-3.8721,-0.0612,-0.6666,101.81,-1703.25,1436.16
3830,-3.8721,-0.0557,-0.6604,179.93,-1312.62,858.03
3840,-3.8722,-0.0490,-0.6538,883.06,-515.75,-95.09
3850,-3.8722,-0.0454,-0.6484,1742.43,328.00,-985.66
3860,-3.8722,-0.0460,-0.6471,-1804.44,1015.50,-1563.78
3870,-3.8722,-0.0490,-0.6501,-1882.57,1187.38,-1720.03
3880,-3.8722,-0.0530,-0.6561,1742.43,796.75,-1391.91
3890,-3.8722,-0.0558,-0.6637,1226.81,31.13,-595.03
3900,-3.8721,-0.0535,-0.6686,867.43,-937.62,483.03
3910,-3.8721,-0.0468,-0.6686,1164.31,-1562.62,1358.03
3920,-3.8721,-0.0435,-0.6650,-1976.32,-1562.62,1498.66
3930,-3.8721,-0.0466,-0.6603,-1554.44,-1109.50,967.41
3940,-3.8721,-0.0530,-0.6560,-1960.69,-500.12,92.41
3950,-3.8722,-0.0582,-0.6544,1226.81,46.75,-704.41
3960,-3.8722,-0.0621,-0.6566,554.93,249.88,-829.41
3970,-3.8722,-0.0663,-0.6630,54.93,-31.37,-204.47
3980,-3.8721,-0.0690,-0.6732,-476.32,-843.93,811.16
3990,-3.8721,-0.0649,-0.6808,-820.07,1843.57,1654.91
4000,-3.8721,-0.0538,-0.6801,-304.44,874.82,1998.66
4010,-3.8721,-0.0393,-0.6709,1117.43,968.63,1701.78
4020,-3.8721,-0.0276,-0.6564,-1023.19,-1859.50,686.16
4030,-3.8722,-0.0254,-0.6420,476.81,-0.06,-751.34
4040,-3.8722,-0.0311,-0.6338,758.06,1843.69,-1985.66
4050,-3.8722,-0.0387,-0.6379,23.68,-1109.44,1451.84
4060,-3.8722,-0.0439,-0.6516,-945.07,-1640.75,1623.72
4070,-3.8722,-0.0460,-0.6650,-1616.94,609.25,-1470.03
4080,-3.8722,-0.0457,-0.6720,-1882.57,-1109.50,-266.97
4090,-3.8721,-0.0441,-0.6707,-1835.69,1999.88,483.03
4100,-3.8721,-0.0424,-0.6626,-1632.57,-1828.25,295.53
4110,-3.8722,-0.0417,-0.6521,-1413.82,-797.00,-579.47
4120,-3.8722,-0.0426,-0.6433,-1335.69,546.75,-1641.91
4130,-3.8722,-0.0438,-0.6404,-1445.07,1671.75,1608.09
4140,-3.8722,-0.0436,-0.6444,-1601.32,-1953.25,1389.34
4150,-3.8722,-0.0408,-0.6519,-1570.07,1531.13,1733.09
4160,-3.8722,-0.0356,-0.6586,-1210.69,578.00,-1548.16
4170,-3.8722,-0.0289,-0.6625,-554.44,-281.37,-720.09
4180,-3.8721,-0.0214,-0.6628,304.93,-781.31,29.91
4190,-3.8721,-0.0156,-0.6617,1273.68,-828.19,529.91
4200,-3.8721,-0.0132,-0.6628,-1991.94,-687.56,654.91
4210,-3.8721,-0.0149,-0.6653,-1679.44,-828.19,389.28
4220,-3.8722,-0.0214,-0.6656,-1898.19,-1140.69,-63.84
4230,-3.8722,-0.0287,-0.6625,1273.68,-1187.56,-688.84
4240,-3.8722,-0.0352,-0.6555,336.18,-781.31,-1548.22
4250,-3.8722,-0.0403,-0.6488,-491.94,109.25,1748.72
4260,-3.8722,-0.0420,-0.6501,-1148.19,968.63,1779.97
4270,-3.8722,-0.0403,-0.6610,-1366.94,796.75,-1360.66
4280,-3.8721,-0.0363,-0.6755,-1148.19,-593.87,14.28
4290,-3.8721,-0.0308,-0.6863,-632.57,1546.75,1326.78
4300,-3.8721,-0.0264,-0.6884,70.56,171.81,1842.41
4310,-3.8721,-0.0254,-0.6810,633.06,-93.81,1232.97
4320,-3.8722,-0.0281,-0.6685,758.06,843.69,-251.34
4330,-3.8722,-0.0332,-0.6567,414.31,-1546.94,1967.41
4340,-3.8722,-0.0409,-0.6483,-241.94,-47.00,576.78
4350,-3.8722,-0.0513,-0.6459,-1226.32,1031.13,264.34
4360,-3.8722,-0.0614,-0.6531,1445.56,1343.63,904.97
4370,-3.8722,-0.0652,-0.6687,148.68,421.75,-1751.28
4380,-3.8722,-0.0609,-0.6852,-335.69,-1578.31,-48.22
4390,-3.8721,-0.0522,-0.6938,211.18,312.38,1264.28
4400,-3.8721,-0.0431,-0.6920,1320.56,-797.00,1920.47
4410,-3.8721,-0.0349,-0.6826,-1507.57,-562.62,1842.35
4420,-3.8721,-0.0304,-0.6680,-460.69,640.50,936.16
4430,-3.8722,-0.0315,-0.6514,117.43,-1484.44,-548.22
4440,-3.8722,-0.0367,-0.6396,-23.19,640.50,1983.09
4450,-3.8722,-0.0424,-0.6387,-695.07,-1859.50,1154.97
4460,-3.8722,-0.0455,-0.6488,-1413.82,-1734.50,1295.59
4470,-3.8722,-0.0475,-0.6646,-1820.07,968.63,-1829.41
4480,-3.8722,-0.0487,-0.6796,1929.93,-1047.00,-579.47
4490,-3.8721,-0.0486,-0.6869,1773.68,1031.13,701.78
4500,-3.8721,-0.0458,-0.6838,1789.31,93.63,1358.03
4510,-3.8721,-0.0425,-0.6748,-1851.32,484.25,1217.41
4520,-3.8721,-0.0417,-0.6655,-1429.44,1640.50,451.78
4530,-3.8722,-0.0442,-0.6598,-1335.69,-1172.00,-485.72
4540,-3.8722,-0.0490,-0.6592,-1648.19,-437.62,-1173.22
4550,-3.8722,-0.0535,-0.6620,1742.43,-359.50,-1579.47
4560,-3.8722,-0.0562,-0.6653,1164.31,-718.87,-1704.47
4570,-3.8722,-0.0585,-0.6678,820.56,-1140.75,-1516.97
4580,-3.8722,-0.0620,-0.6686,523.68,-1468.87,-1157.59
4590,-3.8722,-0.0674,-0.6678,70.56,-1562.62,-907.59
4600,-3.8722,-0.0734,-0.6674,-616.94,-1468.93,-954.47
4610,-3.8722,-0.0770,-0.6680,-1382.57,-1406.43,-1079.47
4620,-3.8722,-0.0758,-0.6691,-1851.32,-1484.56,-1126.34
4630,-3.8722,-0.0697,-0.6692,-1695.07,-1625.18,-1376.34
4640,-3.8722,-0.0625,-0.6659,-913.82,-1640.81,-1923.22
4650,-3.8722,-0.0553,-0.6592,8.06,-1218.87,1420.53
4660,-3.8722,-0.0508,-0.6515,929.93,-359.50,811.16
4670,-3.8722,-0.0499,-0.6433,1508.06,624.88,311.22
4680,-3.8723,-0.0493,-0.6390,1617.43,1671.75,-48.16
4690,-3.8723,-0.0485,-0.6436,1695.56,-1781.37,-63.78
4700,-3.8722,-0.0477,-0.6547,1804.93,1640.50,514.34
4710,-3.8722,-0.0465,-0.6676,1898.68,218.63,1670.59
4720,-3.8722,-0.0431,-0.6758,-1945.07,-1437.62,-1016.97
4730,-3.8722,-0.0364,-0.6764,-1507.57,1515.50,-32.59
4740,-3.8721,-0.0304,-0.6725,-648.19,1437.38,326.78
4750,-3.8721,-0.0299,-0.6670,117.43,1937.44,14.28
4760,-3.8722,-0.0353,-0.6631,179.93,-1359.44,-516.97
4770,-3.8722,-0.0433,-0.6641,-507.57,-859.50,-673.22
4780,-3.8722,-0.0510,-0.6704,-1538.82,-984.50,-470.09
4790,-3.8722,-0.0555,-0.6780,1476.81,-1797.00,-63.84
4800,-3.8721,-0.0566,-0.6819,898.68,1234.25,404.91
4810,-3.8721,-0.0565,-0.6814,758.06,734.25,717.41
4820,-3.8721,-0.0559,-0.6790,773.68,796.75,686.16
4830,-3.8721,-0.0538,-0.6769,851.81,1109.25,264.28
4840,-3.8722,-0.0504,-0.6758,1117.43,1374.88,-141.97
4850,-3.8722,-0.0465,-0.6761,1554.93,1515.50,-204.47
4860,-3.8722,-0.0426,-0.6760,-1945.07,1468.63,-95.09
4870,-3.8722,-0.0416,-0.6737,-1445.07,1484.25,-110.72
4880,-3.8722,-0.0447,-0.6730,-1320.07,1781.13,-1.34
4890,-3.8721,-0.0497,-0.6763,-1710.69,1874.88,404.91
4900,-3.8721,-0.0547,-0.6824,1648.68,1453.00,998.66
4910,-3.8721,-0.0577,-0.6863,1008.06,671.75,1592.41
4920,-3.8721,-0.0577,-0.6851,617.43,171.75,1998.66
4930,-3.8721,-0.0557,-0.6805,617.43,328.00,1873.66
4940,-3.8721,-0.0535,-0.6758,883.06,906.13,1123.66
4950,-3.8721,-0.0527,-0.6714,1164.31,1515.50,14.28
4960,-3.8722,-0.0530,-0.6672,1258.06,-1922.00,-1063.84
4970,-3.8722,-0.0544,-0.6631,1226.81,-1390.75,-1860.72
4980,-3.8722,-0.0576,-0.6617,1039.31,-859.50,1779.91
4990,-3.8722,-0.0597,-0.6642,633.06,-687.62,-1985.72
5000,-3.8722,-0.0566,-0.6669,367.43,-1000.12,-1266.97
5010,-3.8722,-0.0511,-0.6683,758.06,-1343.87,-610.72
5020,-3.8722,-0.0475,-0.6677,1461.18,-1531.37,-376.34
5030,-3.8722,-0.0436,-0.6636,1929.93,-1453.25,-673.22
5040,-3.8722,-0.0392,-0.6560,-1570.07,-922.00,-1485.72
5050,-3.8722,-0.0366,-0.6477,-1007.57,46.75,1233.09
5060,-3.8723,-0.0389,-0.6442,-679.44,1109.25,-95.03
5070,-3.8723,-0.0454,-0.6476,-976.32,1562.38,-610.66
5080,-3.8723,-0.0500,-0.6547,-1804.44,1124.88,-16.91
5090,-3.8722,-0.0510,-0.6613,1601.81,218.63,1217.47
5100,-3.8722,-0.0502,-0.6670,1476.81,-625.12,-1595.09
5110,-3.8722,-0.0474,-0.6729,1586.18,-1359.50,-845.09
5120,-3.8722,-0.0426,-0.6765,1945.56,1890.50,-298.22
5130,-3.8722,-0.0391,-0.6749,-1445.07,1421.75,-48.22
5140,-3.8722,-0.0396,-0.6691,-991.94,1624.88,-407.59
5150,-3.8722,-0.0431,-0.6615,-1054.44,-1625.12,-1345.09
5160,-3.8722,-0.0471,-0.6560,-1507.57,-656.37,1639.28
5170,-3.8722,-0.0488,-0.6554,1976.81,46.75,1154.97
5180,-3.8722,-0.0491,-0.6573,1758.06,124.88,1279.97
5190,-3.8722,-0.0499,-0.6592,1726.81,-125.12,1576.78
5200,-3.8722,-0.0500,-0.6599,1617.43,-359.50,1842.41
5210,-3.8722,-0.0476,-0.6605,1601.81,-453.25,-1954.47
5220,-3.8722,-0.0428,-0.6635,1914.31,-531.37,-1798.22
5230,-3.8722,-0.0404,-0.6683,-1476.32,-906.37,-1595.09
5240,-3.8722,-0.0428,-0.6731,-1163.82,-1531.37,-1079.47
5250,-3.8722,-0.0466,-0.6754,-1476.32,1859.25,-298.22
5260,-3.8721,-0.0480,-0.6744,-1960.69,1562.38,326.78
5270,-3.8721,-0.0461,-0.6727,1867.43,1687.38,654.91
5280,-3.8721,-0.0419,-0.6711,-1898.19,1906.13,514.28
5290,-3.8722,-0.0361,-0.6691,-1351.32,-1890.75,-48.22
5300,-3.8722,-0.0309,-0.6647,-616.94,-1625.12,-860.72
5310,-3.8722,-0.0284,-0.6569,54.93,-1062.56,1920.53
5320,-3.8722,-0.0300,-0.6490,367.43,-62.56,623.66
5330,-3.8723,-0.0338,-0.6464,164.31,937.44,-204.41
5340,-3.8723,-0.0381,-0.6515,-320.07,1281.13,-220.03
5350,-3.8722,-0.0417,-0.6636,-866.94,624.88,623.72
5360,-3.8722,-0.0436,-0.6765,-1335.69,-922.00,-1985.72
5370,-3.8722,-0.0435,-0.6846,-1570.07,1421.75,-610.72
5380,-3.8721,-0.0432,-0.6855,-1554.44,390.50,264.28
5390,-3.8721,-0.0426,-0.6786,-1523.19,265.50,186.16
5400,-3.8722,-0.0424,-0.6653,-1445.07,1156.13,-782.59
5410,-3.8722,-0.0435,-0.6515,-1413.82,-1140.75,-1938.84
5420,-3.8722,-0.0438,-0.6460,-1554.44,624.88,1326.84
5430,-3.8722,-0.0417,-0.6527,-1601.32,1328.00,1233.09
5440,-3.8722,-0.0370,-0.6649,-1335.69,468.63,1795.59
5450,-3.8722,-0.0321,-0.6735,-726.32,-1093.87,-1188.84
5460,-3.8722,-0.0291,-0.6758,-101.32,1812.38,-345.09
5470,-3.8721,-0.0270,-0.6747,289.31,1515.56,61.16
5480,-3.8721,-0.0251,-0.6729,554.93,1656.19,14.28
5490,-3.8722,-0.0264,-0.6721,789.31,1890.56,-313.84
5500,-3.8722,-0.0314,-0.6732,633.06,1984.31,-501.34
5510,-3.8722,-0.0367,-0.6736,-7.57,1843.63,-548.22
5520,-3.8722,-0.0383,-0.6709,-695.07,1796.75,-720.09
5530,-3.8722,-0.0359,-0.6667,-898.19,-1859.50,-1095.09
5540,-3.8722,-0.0344,-0.6641,-585.69,-1328.25,-1391.97
5550,-3.8722,-0.0341,-0.6672,-398.19,-984.50,-1110.72
5560,-3.8722,-0.0343,-0.6770,-351.32,-1390.75,-438.84
5570,-3.8721,-0.0361,-0.6882,-382.57,1359.25,295.53
5580,-3.8721,-0.0374,-0.6959,-616.94,-78.25,1076.72
5590,-3.8721,-0.0350,-0.6951,-773.19,-1062.62,1701.72
5600,-3.8721,-0.0321,-0.6862,-476.32,-953.25,1701.72
5610,-3.8721,-0.0325,-0.6742,-101.32,187.38,795.53
5620,-3.8722,-0.0376,-0.6639,-148.19,1718.63,-657.59
5630,-3.8722,-0.0444,-0.6591,-804.44,-968.87,-1860.72
5640,-3.8722,-0.0481,-0.6605,-1679.44,-343.87,1561.16
5650,-3.8722,-0.0486,-0.6666,1851.81,-531.37,1748.66
5660,-3.8722,-0.0476,-0.6760,1789.31,-1312.62,-1360.72
5670,-3.8722,-0.0454,-0.6842,1914.31,1484.25,-204.47
5680,-3.8721,-0.0425,-0.6849,-1804.44,437.38,670.53
5690,-3.8721,-0.0383,-0.6781,-1429.44,343.63,748.66
5700,-3.8722,-0.0353,-0.6687,-898.19,1218.63,-48.22
5710,-3.8722,-0.0350,-0.6598,-507.57,-1578.25,-1407.59
5720,-3.8722,-0.0359,-0.6526,-476.32,-437.62,1201.78
5730,-3.8722,-0.0370,-0.6487,-585.69,484.25,76.84
5740,-3.8723,-0.0399,-0.6497,-726.32,984.25,-454.41
5750,-3.8723,-0.0438,-0.6560,-1101.32,859.25,-79.41
5760,-3.8722,-0.0464,-0.6663,-1601.32,46.75,983.09
5770,-3.8722,-0.0471,-0.6759,-1929.44,-1265.75,-1876.34
5780,-3.8722,-0.0454,-0.6814,1976.81,1499.88,-1016.97
5790,-3.8722,-0.0415,-0.6812,-1804.44,796.75,-641.97
5800,-3.8722,-0.0380,-0.6746,-1304.44,828.00,-845.09
5810,-3.8722,-0.0370,-0.6648,-851.32,1671.75,-1360.72
5820,-3.8722,-0.0378,-0.6564,-726.32,-1078.25,-1907.59
5830,-3.8722,-0.0383,-0.6505,-835.69,-0.12,1748.66
5840,-3.8722,-0.0376,-0.6490,-898.19,749.88,-1954.41
5850,-3.8722,-0.0349,-0.6544,-804.44,937.38,-1032.53
5860,-3.8721,-0.0306,-0.6659,-460.69,249.88,61.22
5870,-3.8721,-0.0253,-0.6786,86.18,-1218.81,1279.91
5880,-3.8721,-0.0182,-0.6888,773.68,1156.19,-1501.34
5890,-3.8721,-0.0126,-0.6948,1679.93,-156.31,-688.90
5900,-3.8721,-0.0115,-0.6973,-1601.32,-921.94,-454.53
5910,-3.8721,-0.0137,-0.6984,-1460.69,-1234.44,-673.28
5920,-3.8721,-0.0188,-0.6973,-1741.94,-1375.06,-1157.65
5930,-3.8721,-0.0262,-0.6937,1601.81,-1234.44,-1626.40
5940,-3.8721,-0.0343,-0.6893,648.68,-781.31,1873.60
5950,-3.8721,-0.0411,-0.6843,-382.57,-218.87,1014.22
5960,-3.8722,-0.0439,-0.6782,-1257.57,421.75,-95.09
5970,-3.8722,-0.0422,-0.6714,-1616.94,1203.00,-1110.72
5980,-3.8722,-0.0396,-0.6669,-1398.19,-1922.00,-1860.72
5990,-3.8722,-0.0405,-0.6672,-1054.44,-1343.87,1967.41
6000,-3.8722,-0.0457,-0.6716,-1179.44,-1390.75,-1688.84
6010,-3.8722,-0.0498,-0.6772,-1835.69,-1953.25,-954.47
6020,-3.8722,-0.0502,-0.6808,1633.06,1328.00,-313.84
6030,-3.8722,-0.0482,-0.6804,1586.18,874.88,-266.97
6040,-3.8722,-0.0458,-0.6763,1836.18,921.75,-610.72
6050,-3.8722,-0.0436,-0.6700,-1851.32,1453.00,-1048.22
6060,-3.8722,-0.0414,-0.6641,-1570.07,-1750.12,-1673.22
6070,-3.8722,-0.0417,-0.6609,-1288.82,-984.50,1545.53
6080,-3.8722,-0.0450,-0.6586,-1335.69,-578.25,873.66
6090,-3.8722,-0.0463,-0.6544,-1757.57,-281.37,139.28
6100,-3.8723,-0.0426,-0.6478,-1913.82,249.88,-970.03
6110,-3.8723,-0.0369,-0.6387,-1445.07,1093.63,1733.09
6120,-3.8723,-0.0326,-0.6304,-710.69,-1734.50,858.09
6130,-3.8723,-0.0305,-0.6292,-163.82,-672.00,561.22
6140,-3.8723,-0.0298,-0.6364,101.81,-515.69,983.09
6150,-3.8723,-0.0310,-0.6475,195.56,-1437.56,1983.09
6160,-3.8723,-0.0327,-0.6564,39.31,1140.56,-735.66
6170,-3.8722,-0.0326,-0.6592,-179.44,-0.12,420.53
6180,-3.8722,-0.0305,-0.6549,-163.82,-359.50,1076.78
6190,-3.8722,-0.0266,-0.6486,101.81,187.44,1373.72
6200,-3.8722,-0.0236,-0.6469,601.81,999.94,1592.47
6210,-3.8722,-0.0227,-0.6519,992.43,1218.69,1904.97
6220,-3.8722,-0.0237,-0.6608,1101.81,578.06,-1688.78
6230,-3.8722,-0.0254,-0.6671,976.81,-562.56,-1220.09
6240,-3.8722,-0.0271,-0.6680,758.06,-1375.06,-782.59
6250,-3.8722,-0.0284,-0.6661,539.31,-1484.44,-610.72
6260,-3.8722,-0.0292,-0.6639,367.43,-1250.06,-720.09
6270,-3.8722,-0.0297,-0.6628,273.68,-968.81,-720.09
6280,-3.8722,-0.0317,-0.6670,211.18,-828.19,-251.34
6290,-3.8721,-0.0367,-0.6766,-54.44,-1359.50,748.66
6300,-3.8721,-0.0426,-0.6882,-695.07,1406.13,-1813.84
6310,-3.8721,-0.0449,-0.6980,-1445.07,-78.25,-345.15
6320,-3.8719,-0.0415,-0.7024,-1741.94,-1328.25,514.22
6330,-3.8719,-0.0358,-0.7010,-1304.44,-1890.75,451.72
6340,-3.8721,-0.0332,-0.6934,-570.07,-1718.87,-392.03
6350,-3.8721,-0.0369,-0.6809,-241.94,-734.50,-1829.53
6360,-3.8721,-0.0441,-0.6682,-710.69,859.25,342.41
6370,-3.8722,-0.0518,-0.6602,-1632.57,-1515.75,-1376.34
6380,-3.8722,-0.0586,-0.6587,1383.06,-484.50,1451.78
6390,-3.8722,-0.0632,-0.6613,508.06,-297.00,1076.78
6400,-3.8722,-0.0643,-0.6658,-85.69,-625.18,1483.03
6410,-3.8722,-0.0598,-0.6708,-226.32,-1203.31,-1907.59
6420,-3.8722,-0.0513,-0.6740,351.81,-1843.87,-1579.47
6430,-3.8722,-0.0430,-0.6724,1445.56,1749.88,-1595.09
6440,-3.8722,-0.0374,-0.6672,-1491.94,1953.00,-1970.09
6450,-3.8722,-0.0347,-0.6605,-773.19,-1390.75,1201.78
6460,-3.8722,-0.0339,-0.6519,-429.44,-531.37,233.03
6470,-3.8723,-0.0339,-0.6456,-335.69,578.00,-329.41
6480,-3.8723,-0.0355,-0.6460,-335.69,1374.88,-391.91
6490,-3.8722,-0.0374,-0.6523,-538.82,1328.00,61.22
6500,-3.8722,-0.0364,-0.6615,-773.19,515.50,1014.34
6510,-3.8722,-0.0299,-0.6694,-648.19,-656.37,-1798.22
6520,-3.8722,-0.0209,-0.6727,179.93,-1671.94,-782.59
6530,-3.8722,-0.0145,-0.6707,1336.18,1906.19,-345.09
6540,-3.8722,-0.0139,-0.6663,-1851.32,-1828.19,-563.84
6550,-3.8722,-0.0166,-0.6606,-1773.19,-1265.69,-970.09
6560,-3.8722,-0.0184,-0.6541,1883.06,-546.94,-1376.34
6570,-3.8722,-0.0200,-0.6519,1648.68,296.81,-1657.53
6580,-3.8722,-0.0225,-0.6561,1445.56,578.06,-1626.28
6590,-3.8722,-0.0232,-0.6637,1133.06,31.19,-1251.28
6600,-3.8722,-0.0208,-0.6714,1039.31,-937.56,-751.34
6610,-3.8722,-0.0173,-0.6754,1351.81,-1921.94,-391.97
6620,-3.8722,-0.0164,-0.6742,1789.31,1562.44,-345.09
6630,-3.8722,-0.0209,-0.6691,1914.31,1718.69,-657.59
6640,-3.8722,-0.0295,-0.6621,1336.18,-1625.06,-1110.72
6650,-3.8722,-0.0393,-0.6582,226.81,-734.44,-1345.09
6660,-3.8722,-0.0486,-0.6613,-1023.19,-234.50,-1141.97
6670,-3.8722,-0.0555,-0.6700,1789.31,-625.12,-360.72
6680,-3.8721,-0.0573,-0.6791,898.68,-1750.12,701.78
6690,-3.8721,-0.0541,-0.6842,679.93,1093.63,1608.03
6700,-3.8721,-0.0503,-0.6853,1086.18,437.38,-1923.22
6710,-3.8721,-0.0483,-0.6825,1570.56,296.75,1936.16
6720,-3.8721,-0.0464,-0.6752,1820.56,656.13,1217.41
6730,-3.8722,-0.0442,-0.6649,-1929.44,1593.63,-63.84
6740,-3.8722,-0.0424,-0.6555,-1648.19,-1093.87,-1470.09
6750,-3.8722,-0.0404,-0.6516,-1413.82,109.25,1373.72
6760,-3.8722,-0.0393,-0.6526,-1163.82,609.25,639.34
6770,-3.8722,-0.0389,-0.6549,-1023.19,484.25,389.34
6780,-3.8722,-0.0363,-0.6577,-976.32,187.38,529.97
6790,-3.8722,-0.0332,-0.6619,-632.57,-172.00,936.16
6800,-3.8722,-0.0317,-0.6680,-241.94,-703.25,1623.66
6810,-3.8722,-0.0309,-0.6752,-54.44,-1484.50,-1251.34
6820,-3.8722,-0.0310,-0.6831,54.93,1593.69,-32.59
6830,-3.8721,-0.0306,-0.6893,39.31,578.06,889.28
6840,-3.8721,-0.0271,-0.6891,86.18,-218.81,1357.97
6850,-3.8721,-0.0236,-0.6805,539.31,-187.56,1154.85
6860,-3.8721,-0.0255,-0.6667,992.43,906.19,295.53
6870,-3.8722,-0.0330,-0.6547,742.43,-1328.19,-954.47
6880,-3.8722,-0.0398,-0.6505,-210.69,218.63,1842.47
6890,-3.8722,-0.0408,-0.6544,-1085.69,749.88,1264.34
6900,-3.8722,-0.0363,-0.6638,-1210.69,249.88,1686.22
6910,-3.8722,-0.0299,-0.6737,-632.57,-953.25,-1282.59
6920,-3.8722,-0.0258,-0.6781,179.93,1781.19,-329.47
6930,-3.8721,-0.0243,-0.6766,711.18,1218.69,248.66
6940,-3.8721,-0.0244,-0.6714,898.68,1406.19,233.03
6950,-3.8722,-0.0248,-0.6653,883.06,-1921.94,-251.34
6960,-3.8722,-0.0255,-0.6647,836.18,-1140.69,-891.97
6970,-3.8722,-0.0297,-0.6732,742.43,-1062.56,-1173.22
6980,-3.8722,-0.0347,-0.6842,211.18,1843.69,-501.34
6990,-3.8721,-0.0352,-0.6871,-429.44,437.38,561.16
7000,-3.8721,-0.0320,-0.6801,-491.94,62.38,904.91
7010,-3.8721,-0.0282,-0.6688,-85.69,968.63,92.41
7020,-3.8722,-0.0254,-0.6594,398.68,-1593.81,-1329.47
7030,-3.8722,-0.0262,-0.6565,758.06,-390.69,1404.91
7040,-3.8722,-0.0321,-0.6595,648.68,-15.69,842.41
7050,-3.8722,-0.0405,-0.6632,-101.32,-406.37,1045.53
7060,-3.8722,-0.0476,-0.6658,-1179.44,-875.12,1576.78
7070,-3.8722,-0.0513,-0.6694,1914.31,-1203.25,-1907.59
7080,-3.8722,-0.0499,-0.6755,1445.56,-1672.00,-1266.97
7090,-3.8722,-0.0435,-0.6821,1617.43,1546.75,-329.47
7100,-3.8721,-0.0366,-0.6857,-1554.44,703.00,404.91
7110,-3.8721,-0.0317,-0.6833,-679.44,249.88,529.91
7120,-3.8721,-0.0271,-0.6747,-54.44,546.75,61.16
7130,-3.8722,-0.0239,-0.6620,539.31,1656.19,-907.59
7140,-3.8722,-0.0259,-0.6521,945.56,-718.81,-1970.09
7150,-3.8722,-0.0343,-0.6525,695.56,546.81,1404.97
7160,-3.8722,-0.0435,-0.6626,-382.57,499.88,1576.84
7170,-3.8722,-0.0463,-0.6754,-1554.44,-797.00,-1438.84
7180,-3.8722,-0.0410,-0.6830,-1913.82,1562.38,-329.47
7190,-3.8721,-0.0310,-0.6813,-1241.94,593.63,139.28
7200,-3.8722,-0.0225,-0.6709,39.31,812.44,-313.84
7210,-3.8722,-0.0198,-0.6558,1133.06,-1859.44,-1704.47
7220,-3.8722,-0.0229,-0.6418,1476.81,78.06,451.84
7230,-3.8723,-0.0291,-0.6356,1070.56,1859.31,-1141.91
7240,-3.8723,-0.0358,-0.6385,289.31,-1343.81,-1876.28
7250,-3.8723,-0.0404,-0.6490,-570.07,-1718.87,-1313.78
7260,-3.8722,-0.0425,-0.6641,-1163.82,937.38,233.09
7270,-3.8722,-0.0417,-0.6777,-1429.44,-984.50,-1891.97
7280,-3.8722,-0.0352,-0.6835,-1335.69,1265.50,-329.47
7290,-3.8721,-0.0250,-0.6797,-491.94,531.13,342.41
7300,-3.8721,-0.0208,-0.6720,804.93,1015.56,45.53
7310,-3.8722,-0.0261,-0.6685,1351.81,1999.94,-641.97
7320,-3.8722,-0.0343,-0.6705,664.31,-1546.94,-970.09
7330,-3.8722,-0.0377,-0.6718,-382.57,-1812.62,-860.72
7340,-3.8722,-0.0371,-0.6674,-820.07,-1968.87,-923.22
7350,-3.8722,-0.0361,-0.6614,-741.94,-1406.37,-1485.72
7360,-3.8722,-0.0363,-0.6589,-616.94,-640.75,1779.91
7370,-3.8722,-0.0363,-0.6614,-632.57,-328.25,1295.53
7380,-3.8722,-0.0344,-0.6654,-632.57,-640.75,1295.53
7390,-3.8722,-0.0317,-0.6667,-398.19,-1156.37,1623.66
7400,-3.8722,-0.0309,-0.6675,-54.44,-1328.25,1795.53
7410,-3.8722,-0.0308,-0.6705,54.93,-1421.94,1639.28
7420,-3.8722,-0.0312,-0.6755,70.56,-1812.56,1733.03
7430,-3.8722,-0.0332,-0.6809,8.06,1546.81,-1641.97
7440,-3.8722,-0.0347,-0.6815,-241.94,859.25,-1001.34
7450,-3.8722,-0.0355,-0.6768,-429.44,781.13,-860.72
7460,-3.8722,-0.0363,-0.6700,-538.82,1390.50,-1157.59
7470,-3.8722,-0.0361,-0.6659,-632.57,-1750.12,-1485.72
7480,-3.8722,-0.0336,-0.6681,-616.94,-1218.87,-1438.84
7490,-3.8722,-0.0282,-0.6733,-288.82,-1500.12,-813.84
7500,-3.8722,-0.0223,-0.6764,398.68,1828.06,-95.09
7510,-3.8721,-0.0188,-0.6732,1148.68,1437.44,14.28
7520,-3.8722,-0.0172,-0.6656,1601.81,1843.69,-626.34
7530,-3.8722,-0.0182,-0.6606,1804.93,-1187.56,-1485.72
7540,-3.8722,-0.0234,-0.6638,1679.93,-546.94,-1938.84
7550,-3.8722,-0.0314,-0.6731,1008.06,-953.19,-1501.34
7560,-3.8722,-0.0382,-0.6820,-7.57,1859.25,-313.84
7570,-3.8721,-0.0408,-0.6866,-882.57,718.63,795.53
7580,-3.8721,-0.0380,-0.6869,-1210.69,124.88,1389.28
7590,-3.8721,-0.0327,-0.6842,-851.32,93.63,1467.41
7600,-3.8721,-0.0302,-0.6823,-179.44,437.38,1342.41
7610,-3.8721,-0.0295,-0.6836,148.68,687.44,1342.41
7620,-3.8721,-0.0280,-0.6862,226.81,515.56,1279.91
7630,-3.8721,-0.0284,-0.6858,429.93,187.44,889.28
7640,-3.8721,-0.0331,-0.6805,367.43,234.31,217.41
7650,-3.8722,-0.0413,-0.6718,-226.32,906.13,-532.59
7660,-3.8722,-0.0502,-0.6652,-1273.19,-1968.87,-1141.97
7670,-3.8722,-0.0566,-0.6650,1586.18,-1125.12,-1282.59
7680,-3.8722,-0.0596,-0.6710,758.06,-1109.50,-970.09
7690,-3.8722,-0.0583,-0.6793,383.06,-1875.12,-532.59
7700,-3.8722,-0.0520,-0.6840,539.31,1062.38,-157.59
7710,-3.8722,-0.0414,-0.6808,1351.81,468.63,-95.09
7720,-3.8722,-0.0311,-0.6702,-1288.82,874.88,-548.22
7730,-3.8722,-0.0249,-0.6572,23.68,-1765.69,-1438.84
7740,-3.8722,-0.0237,-0.6477,820.56,-109.44,1529.91
7750,-3.8722,-0.0264,-0.6449,976.81,1109.31,701.84
7760,-3.8722,-0.0323,-0.6494,633.06,1468.69,373.72
7770,-3.8722,-0.0389,-0.6589,-132.57,890.50,623.72
7780,-3.8722,-0.0424,-0.6685,-976.32,-328.25,1373.66
7790,-3.8722,-0.0417,-0.6726,-1413.82,-1547.00,-1876.34
7800,-3.8722,-0.0383,-0.6697,-1335.69,1921.75,-1641.97
7810,-3.8722,-0.0349,-0.6616,-898.19,-1703.25,-1938.84
7820,-3.8722,-0.0336,-0.6525,-460.69,-672.00,1451.78
7830,-3.8722,-0.0345,-0.6470,-288.82,499.88,733.09
7840,-3.8722,-0.0363,-0.6469,-413.82,1203.00,154.97
7850,-3.8722,-0.0312,-0.6667,-445.07,-1312.62,1733.03
7860,-3.8722,-0.0258,-0.6624,8.06,-1328.19,1811.16
7870,-3.8722,-0.0212,-0.6583,711.18,-765.69,1811.16
7880,-3.8722,-0.0208,-0.6575,1289.31,-250.06,1826.78
7890,-3.8722,-0.0236,-0.6606,1351.81,-140.69,-1876.34
7900,-3.8722,-0.0255,-0.6669,992.43,-546.94,-1329.47
7910,-3.8722,-0.0238,-0.6711,742.43,-1343.81,-798.22
7920,-3.8722,-0.0193,-0.6718,961.18,-1890.69,-485.72
7930,-3.8722,-0.0161,-0.6707,1539.31,-1968.81,-360.72
7940,-3.8722,-0.0165,-0.6700,1945.56,-1828.19,-298.22
7950,-3.8722,-0.0194,-0.6696,1898.68,-1750.06,-345.09
7960,-3.8722,-0.0251,-0.6688,1523.68,-1687.56,-548.22
7970,-3.8722,-0.0312,-0.6696,789.31,-1593.81,-688.84
7980,-3.8722,-0.0356,-0.6719,8.06,-1687.56,-704.47
7990,-3.8722,-0.0375,-0.6740,-554.44,-1984.50,-673.22
8000,-3.8722,-0.0372,-0.6746,-788.82,1749.88,-673.22
8010,-3.8722,-0.0367,-0.6753,-757.57,1671.75,-688.84
8020,-3.8722,-0.0369,-0.6760,-695.07,1578.00,-641.97
8030,-3.8722,-0.0375,-0.6746,-710.69,1484.25,-657.59
8040,-3.8722,-0.0374,-0.6699,-788.82,1671.75,-938.84
8050,-3.8722,-0.0361,-0.6659,-773.19,-1734.50,-1407.59
8060,-3.8722,-0.0353,-0.6659,-616.94,-1218.87,-1751.34
8070,-3.8722,-0.0356,-0.6693,-507.57,-1218.87,-1735.72
8080,-3.8722,-0.0365,-0.6732,-554.44,-1656.37,-1376.34
8090,-3.8722,-0.0363,-0.6750,-663.82,1843.63,-907.59
8100,-3.8722,-0.0337,-0.6743,-632.57,1609.25,-704.47
8110,-3.8722,-0.0298,-0.6718,-304.44,1703.00,-876.34
8120,-3.8722,-0.0271,-0.6675,195.56,-1968.81,-1423.22
8130,-3.8722,-0.0266,-0.6620,539.31,-1421.94,1811.16
8140,-3.8722,-0.0283,-0.6567,601.81,-718.81,1061.16
8150,-3.8722,-0.0306,-0.6558,383.06,-46.94,467.41
8160,-3.8722,-0.0319,-0.6599,86.18,78.06,233.09
8170,-3.8722,-0.0292,-0.6646,-70.07,-453.25,764.28
8180,-3.8722,-0.0240,-0.6669,273.68,-1046.94,1717.41
8190,-3.8722,-0.0216,-0.6682,929.93,-1343.81,-1485.72
8200,-3.8722,-0.0238,-0.6724,1242.43,-1515.69,-938.84
8210,-3.8722,-0.0281,-0.6782,961.18,1953.06,-688.84
8220,-3.8722,-0.0327,-0.6809,414.31,1203.06,-704.47
8230,-3.8722,-0.0381,-0.6791,-179.44,859.25,-845.09
8240,-3.8722,-0.0433,-0.6743,-866.94,1093.63,-1204.47
8250,-3.8722,-0.0470,-0.6678,-1538.82,1703.00,-1829.47
8260,-3.8722,-0.0461,-0.6598,1992.43,-1468.87,1311.16
8270,-3.8722,-0.0399,-0.6538,-1898.19,-437.62,420.53
8280,-3.8723,-0.0319,-0.6550,-1101.32,328.00,-1.28
8290,-3.8722,-0.0261,-0.6636,-70.07,171.75,326.84
8300,-3.8722,-0.0240,-0.6754,664.31,-921.94,1545.53
8310,-3.8722,-0.0242,-0.6874,929.93,1562.44,-735.72
8320,-3.8721,-0.0244,-0.6964,914.31,31.19,873.66
8330,-3.8721,-0.0248,-0.6997,883.06,-1125.06,1889.22
8340,-3.8721,-0.0264,-0.6942,836.18,-1546.94,1904.85
8350,-3.8721,-0.0284,-0.6815,633.06,-843.81,998.60
8360,-3.8722,-0.0298,-0.6694,367.43,781.19,-391.97
8370,-3.8722,-0.0292,-0.6639,195.56,-1671.94,-1516.97
8380,-3.8722,-0.0256,-0.6665,273.68,-968.81,-1845.09
8390,-3.8722,-0.0205,-0.6740,726.81,-1296.94,-1376.34
8400,-3.8722,-0.0167,-0.6804,1383.06,1749.94,-532.59
8410,-3.8721,-0.0153,-0.6826,1867.43,921.81,186.16
8420,-3.8721,-0.0153,-0.6813,-1945.07,640.56,436.16
8430,-3.8721,-0.0160,-0.6793,-1945.07,812.44,170.53
8440,-3.8722,-0.0177,-0.6780,1961.18,1062.44,-298.22
8450,-3.8722,-0.0205,-0.6774,1742.43,1234.31,-704.47
8460,-3.8722,-0.0232,-0.6787,1383.06,1312.44,-1063.84
8470,-3.8722,-0.0264,-0.6793,1039.31,1140.56,-1329.47
8480,-3.8722,-0.0297,-0.6768,633.06,1062.44,-1282.59
8490,-3.8722,-0.0306,-0.6737,211.18,1390.56,-1157.59
8500,-3.8722,-0.0300,-0.6705,86.18,1781.19,-1501.34
8510,-3.8722,-0.0292,-0.6686,164.31,-1812.56,-1938.84
8520,-3.8722,-0.0293,-0.6698,273.68,-1562.56,1889.28
8530,-3.8722,-0.0315,-0.6724,258.06,-1718.81,1795.53
8540,-3.8722,-0.0348,-0.6740,-23.19,1953.00,1654.91
8550,-3.8722,-0.0385,-0.6752,-445.07,1749.88,1670.53
8560,-3.8722,-0.0414,-0.6765,-913.82,1593.63,1936.16
8570,-3.8722,-0.0411,-0.6765,-1288.82,1421.75,-1766.97
8580,-3.8722,-0.0377,-0.6743,-1257.57,1421.75,-1735.72
8590,-3.8722,-0.0342,-0.6708,-820.07,1703.00,1983.03
8600,-3.8722,-0.0303,-0.6676,-366.94,-1843.87,1701.78
8610,-3.8722,-0.0269,-0.6647,133.06,-1437.56,1576.78
8620,-3.8722,-0.0260,-0.6630,570.56,-1062.56,1451.78
8630,-3.8722,-0.0287,-0.6633,679.93,-843.81,1248.66
8640,-3.8722,-0.0325,-0.6654,336.18,-890.69,1233.03
8650,-3.8722,-0.0325,-0.6698,-148.19,-1156.37,1389.28
8660,-3.8722,-0.0293,-0.6742,-148.19,-1718.87,1717.41
8670,-3.8722,-0.0265,-0.6749,258.06,1718.69,-1845.09
8680,-3.8722,-0.0258,-0.6716,617.43,1624.94,-1704.47
8690,-3.8722,-0.0269,-0.6664,711.18,-1953.19,1842.41
8700,-3.8722,-0.0297,-0.6613,570.56,-1281.31,1123.66
8710,-3.8722,-0.0341,-0.6588,211.18,-625.06,498.66
8720,-3.8722,-0.0378,-0.6598,-351.32,-312.62,217.41
8730,-3.8722,-0.0385,-0.6652,-835.69,-437.62,529.91
8740,-3.8722,-0.0375,-0.6730,-913.82,-1125.12,1248.66
8750,-3.8722,-0.0359,-0.6791,-788.82,1874.88,-1782.59
8760,-3.8722,-0.0341,-0.6833,-585.69,1093.63,-798.22
8770,-3.8722,-0.0333,-0.6864,-351.32,546.75,-95.09
8780,-3.8721,-0.0323,-0.6879,-257.57,156.13,92.41
8790,-3.8722,-0.0304,-0.6842,-132.57,-31.37,-48.28
8800,-3.8722,-0.0294,-0.6758,117.43,437.44,-376.34
8810,-3.8722,-0.0308,-0.6666,242.43,1515.56,-1048.22
8820,-3.8722,-0.0331,-0.6609,70.56,-1312.56,-1923.22
8830,-3.8722,-0.0350,-0.6625,-226.32,-578.25,1623.66
8840,-3.8722,-0.0372,-0.6697,-476.32,-781.37,1936.16
8850,-3.8722,-0.0371,-0.6764,-757.57,-1703.25,-1391.97
8860,-3.8722,-0.0334,-0.6786,-741.94,1437.38,-845.09
8870,-3.8722,-0.0284,-0.6777,-273.19,1156.13,-641.97
8880,-3.8722,-0.0244,-0.6753,367.43,1265.56,-907.59
8890,-3.8722,-0.0232,-0.6726,883.06,1578.06,-1438.84
8900,-3.8722,-0.0262,-0.6713,1039.31,1921.81,-1798.22
8910,-3.8722,-0.0311,-0.6719,648.68,-1906.31,-1829.47
8920,-3.8722,-0.0345,-0.6738,23.68,-1984.44,-1532.59
8930,-3.8722,-0.0365,-0.6766,-413.82,1765.50,-1063.84
8940,-3.8722,-0.0380,-0.6801,-663.82,1406.13,-657.59
8950,-3.8722,-0.0377,-0.6816,-851.32,968.63,-501.34
8960,-3.8722,-0.0342,-0.6802,-820.07,765.50,-610.72
8970,-3.8722,-0.0297,-0.6758,-366.94,953.00,-970.09
8980,-3.8722,-0.0278,-0.6698,211.18,1515.56,-1407.59
8990,-3.8722,-0.0303,-0.6647,445.56,-1718.81,1873.66
9000,-3.8722,-0.0350,-0.6633,133.06,-1062.56,1326.78
9010,-3.8722,-0.0394,-0.6680,-476.32,-890.75,1686.16
9020,-3.8722,-0.0419,-0.6766,-1038.82,-1484.50,-1345.09
9030,-3.8722,-0.0411,-0.6829,-1351.32,1406.13,-470.09
9040,-3.8722,-0.0375,-0.6824,-1257.57,609.25,-298.22
9050,-3.8722,-0.0330,-0.6753,-788.82,671.75,-970.09
9060,-3.8722,-0.0297,-0.6646,-210.69,1578.00,1764.28
9070,-3.8722,-0.0297,-0.6555,211.18,-1046.94,420.53
9080,-3.8723,-0.0330,-0.6553,211.18,109.31,-204.41
9090,-3.8722,-0.0365,-0.6643,-210.69,140.50,201.84
9100,-3.8722,-0.0369,-0.6761,-663.82,-1015.75,1436.16
9110,-3.8722,-0.0322,-0.6864,-710.69,1468.63,-954.47
9120,-3.8721,-0.0243,-0.6913,-116.94,156.13,389.28
9130,-3.8721,-0.0184,-0.6877,898.68,-468.81,811.10
9140,-3.8721,-0.0178,-0.6776,1648.68,-15.69,154.85
9150,-3.8722,-0.0221,-0.6660,1726.81,1281.19,-1298.22
9160,-3.8722,-0.0288,-0.6583,1179.93,-1234.44,1170.53
9170,-3.8722,-0.0366,-0.6571,320.56,-250.06,186.16
9180,-3.8722,-0.0450,-0.6641,-679.44,-93.87,76.78
9190,-3.8722,-0.0505,-0.6766,-1757.57,-984.50,1108.03
9200,-3.8722,-0.0488,-0.6876,1539.31,1406.13,-1298.22
9210,-3.8721,-0.0392,-0.6918,1758.06,-0.12,29.85
9220,-3.8721,-0.0284,-0.6880,-1007.57,-531.37,451.72
9230,-3.8722,-0.0242,-0.6786,367.43,-46.94,-63.90
9240,-3.8722,-0.0270,-0.6681,914.31,1156.19,-1157.59
9250,-3.8722,-0.0323,-0.6613,554.93,-1500.06,1826.78
9260,-3.8722,-0.0371,-0.6614,-132.57,-625.12,1311.16
9270,-3.8722,-0.0398,-0.6671,-741.94,-640.75,1326.78
9280,-3.8722,-0.0406,-0.6748,-1085.69,-1375.12,1764.28
9290,-3.8722,-0.0381,-0.6805,-1195.07,1640.50,-1470.09
9300,-3.8722,-0.0312,-0.6815,-866.94,906.13,-782.59
9310,-3.8722,-0.0233,-0.6782,8.06,781.19,-673.22
9320,-3.8722,-0.0192,-0.6714,1023.68,1203.06,-1157.59
9330,-3.8722,-0.0217,-0.6653,1554.93,-1921.94,-1876.34
9340,-3.8722,-0.0278,-0.6639,1226.81,-1140.69,1467.41
9350,-3.8722,-0.0322,-0.6656,445.56,-968.81,1139.28
9360,-3.8722,-0.0339,-0.6656,-116.94,-1187.62,1092.41
9370,-3.8722,-0.0330,-0.6637,-335.69,-1187.62,1186.16
9380,-3.8722,-0.0305,-0.6643,-210.69,-937.62,1358.03
9390,-3.8722,-0.0294,-0.6686,101.81,-1015.69,1639.28
9400,-3.8722,-0.0308,-0.6737,242.43,-1562.56,-1845.09
9410,-3.8722,-0.0331,-0.6774,70.56,1781.19,-1298.22
9420,-3.8722,-0.0325,-0.6764,-226.32,1312.38,-1126.34
9430,-3.8722,-0.0283,-0.6699,-148.19,1437.38,-1516.97
9440,-3.8722,-0.0234,-0.6628,383.06,-1734.44,1764.28
9450,-3.8722,-0.0188,-0.6587,1008.06,-828.19,1076.78
9460,-3.8722,-0.0145,-0.6598,1601.81,-296.94,873.66
9470,-3.8722,-0.0129,-0.6671,-1851.32,-437.56,1358.03
9480,-3.8722,-0.0154,-0.6749,-1648.19,-1375.06,-1720.09
9490,-3.8722,-0.0208,-0.6790,-1960.69,1624.94,-766.97
9500,-3.8722,-0.0271,-0.6805,1351.81,1109.31,-313.84
9510,-3.8722,-0.0316,-0.6803,539.31,906.19,-423.22
9520,-3.8722,-0.0352,-0.6791,-38.82,937.38,-704.47
9530,-3.8722,-0.0394,-0.6791,-491.94,1093.63,-891.97
9540,-3.8722,-0.0442,-0.6802,-1038.82,1093.63,-938.84
9550,-3.8722,-0.0476,-0.6812,-1648.19,953.00,-813.84
9560,-3.8722,-0.0471,-0.6807,1914.31,828.00,-657.59
9570,-3.8722,-0.0425,-0.6781,1976.81,890.50,-626.34
9580,-3.8722,-0.0375,-0.6732,-1429.44,1218.63,-829.47
9590,-3.8722,-0.0349,-0.6686,-788.82,1843.63,-1220.09
9600,-3.8722,-0.0330,-0.6692,-460.69,-1562.62,-1501.34
9610,-3.8722,-0.0292,-0.6749,-210.69,-1640.75,-1485.72
9620,-3.8722,-0.0245,-0.6810,273.68,1624.94,-1126.34
9630,-3.8722,-0.0232,-0.6832,867.43,843.69,-579.47
9640,-3.8722,-0.0256,-0.6790,1039.31,562.44,-298.22
9650,-3.8722,-0.0299,-0.6710,726.81,1109.31,-673.22
9660,-3.8722,-0.0349,-0.6639,179.93,-1875.06,-1501.34
9670,-3.8722,-0.0398,-0.6631,-460.69,-968.87,1779.91
9680,-3.8722,-0.0446,-0.6697,-1085.69,-859.50,1623.66
9690,-3.8722,-0.0492,-0.6790,-1695.07,-1703.25,-1923.22
9700,-3.8722,-0.0509,-0.6852,1711.18,1109.25,-1095.09
9710,-3.8722,-0.0463,-0.6852,1492.43,312.38,-407.59
9720,-3.8722,-0.0361,-0.6786,-1913.82,312.38,-298.22
9730,-3.8722,-0.0264,-0.6685,-616.94,1156.13,-891.97
9740,-3.8722,-0.0220,-0.6594,633.06,-1546.94,-1907.59
9750,-3.8722,-0.0227,-0.6548,1195.56,-390.69,1217.41
9760,-3.8722,-0.0264,-0.6571,1101.81,203.06,842.47
9770,-3.8722,-0.0323,-0.6659,633.06,-93.81,1076.78
9780,-3.8722,-0.0375,-0.6760,-132.57,-1218.87,1826.78
9790,-3.8722,-0.0381,-0.6843,-788.82,1484.25,-1095.09
9800,-3.8722,-0.0348,-0.6882,-866.94,421.75,-95.09
9810,-3.8721,-0.0292,-0.6859,-445.07,-78.25,326.72
9820,-3.8721,-0.0242,-0.6768,273.68,218.69,76.78
9830,-3.8722,-0.0231,-0.6642,914.31,1390.56,-876.34
9840,-3.8722,-0.0260,-0.6534,1054.93,-1000.06,1717.41
9850,-3.8722,-0.0320,-0.6483,679.93,374.94,342.47
9860,-3.8723,-0.0383,-0.6500,-85.69,1031.13,-376.28
9870,-3.8723,-0.0420,-0.6580,-898.19,812.38,-32.53
9880,-3.8722,-0.0420,-0.6700,-1366.94,-203.25,1201.78
9890,-3.8722,-0.0396,-0.6824,-1366.94,-1750.12,-1251.34
9900,-3.8721,-0.0358,-0.6895,-1054.44,671.75,29.91
9910,-3.8721,-0.0308,-0.6886,-570.07,-234.50,607.97
9920,-3.8721,-0.0259,-0.6809,70.56,-125.06,311.10
9930,-3.8722,-0.0247,-0.6698,695.56,859.31,-782.59
9940,-3.8722,-0.0278,-0.6600,851.81,-1718.81,1889.28
9950,-3.8722,-0.0319,-0.6566,445.56,-468.81,1076.78
9960,-3.8722,-0.0347,-0.6610,-70.07,-31.37,1076.78
9970,-3.8722,-0.0353,-0.6697,-429.44,-593.87,1733.03
9980,-3.8722,-0.0327,-0.6785,-507.57,-1703.25,-1313.84
9990,-3.8722,-0.0291,-0.6825,-179.44,1171.75,-501.34
10000,-3.8722,-0.0271,-0.6790,289.31,656.19,-313.84
10010,-3.8722,-0.0281,-0.6697,539.31,1109.31,-860.72
10020,-3.8722,-0.0323,-0.6600,414.31,-1703.19,-1829.47
10030,-3.8722,-0.0371,-0.6553,-132.57,-468.87,1248.66
10040,-3.8722,-0.0388,-0.6572,-741.94,140.50,936.22
10050,-3.8722,-0.0391,-0.6648,-960.69,-109.50,1358.03
10060,-3.8722,-0.0392,-0.6735,-991.94,-1078.25,-1860.72
10070,-3.8722,-0.0383,-0.6765,-1007.57,1812.38,-1141.97
10080,-3.8722,-0.0355,-0.6713,-898.19,1421.75,-1110.72
10090,-3.8722,-0.0321,-0.6615,-538.82,-1906.37,-1798.22
