timestamp_ms,ax,ay,az,gx,gy,gz
0,-3.8743,-0.1602,-0.9407,351.81,-1047.18,513.73
10,-3.8743,-0.2595,-0.9386,-491.94,-390.99,466.86
20,-3.8743,-0.4677,-0.9376,-1210.69,-125.55,-1955.02
30,-3.8741,-0.7122,-0.9382,148.68,-0.92,1716.86
40,-3.8740,-0.9054,-0.9540,851.81,-79.53,-408.14
50,-3.8737,-1.0046,-0.9989,117.43,1904.48,13.73
60,-3.8734,-1.0084,-1.0907,-585.69,154.24,-1017.58
70,-3.8730,-0.9445,-1.2125,-1070.07,404.24,-674.01
80,-3.8727,-0.8550,-1.3087,-882.57,810.61,-768.01
90,-3.8723,-0.7749,-1.3522,-1429.44,498.29,1200.56
100,-3.8722,-0.7206,-1.3663,820.56,-1064.03,-596.44
110,-3.8721,-0.6934,-1.3861,-226.32,1123.54,1684.81
120,-3.8721,-0.6923,-1.4213,-741.94,-1407.65,1622.25
130,-3.8721,-0.7166,-1.4681,-601.32,-1907.65,372.19
140,-3.8722,-0.7656,-1.5232,289.31,92.35,1950.26
150,-3.8723,-0.8313,-1.5756,-1991.94,1045.35,-752.99
160,-3.8723,-0.8866,-1.5955,1601.81,-1657.90,1231.26
170,-3.8724,-0.9054,-1.5651,-1476.32,-204.90,-1440.67
180,-3.8726,-0.8817,-1.5148,117.43,-314.27,1840.64
190,-3.8727,-0.8113,-1.5000,-851.32,-1876.77,497.01
200,-3.8728,-0.6915,-1.5409,164.31,14.04,528.32
210,-3.8729,-0.5403,-1.6105,-507.57,-1220.15,-1565.55
220,-3.8729,-0.3899,-1.6748,-1148.19,1873.90,1324.95
230,-3.8730,-0.2719,-1.7152,-1898.19,1639.83,-81.42
240,-3.8730,-0.1967,-1.7224,1211.18,468.20,1621.64
250,-3.8732,-0.1471,-1.6936,-1163.82,-453.55,-1675.29
260,-3.8733,-0.0958,-1.6437,1179.93,-765.93,-1940.86
270,-3.8734,-0.0319,-1.5951,-257.57,1624.76,-1940.73
280,-3.8734,0.0380,-1.5637,-70.07,-156.37,90.58
290,-3.8734,0.1013,-1.5548,867.43,-156.19,278.14
300,-3.8734,0.1394,-1.5518,976.81,984.56,1262.57
310,-3.8734,0.1395,-1.5341,1851.81,1375.24,-1940.55
320,-3.8734,0.1158,-1.4984,1867.43,-359.13,-1706.18
330,-3.8734,0.0939,-1.4526,-1163.82,203.31,-1909.18
340,-3.8734,0.0842,-1.4065,23.68,-1937.32,1715.88
350,-3.8734,0.0863,-1.3600,-1210.69,-31.13,1450.32
360,-3.8734,0.1111,-1.3173,-945.07,1922.00,-1815.19
370,-3.8733,0.1711,-1.2961,-1773.19,-609.19,841.13
380,-3.8732,0.2544,-1.3002,1914.31,-1905.94,1794.31
390,-3.8729,0.3345,-1.3043,570.56,1578.61,388.06
400,-3.8728,0.3929,-1.2761,-1179.44,1047.49,-1596.31
410,-3.8727,0.4237,-1.2072,-1695.07,656.98,1294.37
420,-3.8727,0.4304,-1.1196,-1757.57,1485.17,13.24
430,-3.8728,0.4242,-1.0381,-898.19,688.29,107.18
440,-3.8729,0.4176,-0.9677,-1695.07,-874.21,357.30
450,-3.8730,0.4154,-0.9072,1461.18,141.42,-1455.02
460,-3.8730,0.4169,-0.8621,1179.93,-124.21,-579.96
470,-3.8729,0.4241,-0.8346,1367.43,1657.04,-1392.33
480,-3.8728,0.4457,-0.8169,-1710.69,1172.67,-1673.52
490,-3.8727,0.4766,-0.7906,1054.93,-561.65,1685.85
500,-3.8726,0.5033,-0.7469,1008.06,-1202.21,764.04
510,-3.8726,0.5287,-0.6931,429.93,391.60,-1657.71
520,-3.8726,0.5559,-0.6381,-320.07,-717.77,1154.85
530,-3.8727,0.5771,-0.5857,-835.69,-1670.84,-1970.03
540,-3.8728,0.5864,-0.5321,1883.06,1032.35,1951.97
550,-3.8729,0.5878,-0.4813,-929.44,-108.28,1514.53
560,-3.8730,0.5852,-0.4409,-757.57,-1608.28,1624.02
570,-3.8732,0.5797,-0.4137,-1085.69,-436.40,-907.17
580,-3.8732,0.5725,-0.4016,-1788.82,-952.03,-1828.98
590,-3.8732,0.5653,-0.4003,1289.31,594.85,-1828.92
600,-3.8732,0.5574,-0.3982,367.43,766.72,-1907.04
610,-3.8732,0.5403,-0.3821,-648.19,1032.29,1327.33
620,-3.8733,0.5100,-0.3468,1164.31,-905.21,-94.54
630,-3.8733,0.4734,-0.2944,1289.31,-389.65,1389.89
640,-3.8734,0.4410,-0.2325,601.81,-1686.58,-1813.11
650,-3.8735,0.4198,-0.1782,461.18,-1764.77,-47.36
660,-3.8735,0.4122,-0.1473,1742.43,1188.29,-515.99
670,-3.8734,0.4159,-0.1318,773.68,1141.42,530.94
680,-3.8734,0.4216,-0.1099,1242.43,-874.21,1749.69
690,-3.8734,0.4197,-0.0781,1976.81,1938.29,-1968.99
700,-3.8734,0.4081,-0.0480,1726.81,-1999.21,1296.69
710,-3.8735,0.3882,-0.0242,242.43,1860.17,-250.12
720,-3.8735,0.3568,-0.0023,1695.56,906.98,1921.81
730,-3.8735,0.3098,0.0243,1679.93,-296.20,31.19
740,-3.8737,0.2520,0.0609,-335.69,-890.08,1812.50
750,-3.8738,0.1926,0.1017,258.06,-202.64,-781.19
760,-3.8738,0.1410,0.1394,664.31,1015.99,890.81
770,-3.8739,0.1033,0.1720,-1945.07,1843.99,-624.76
780,-3.8739,0.0829,0.1946,1226.81,-1984.19,-1296.57
790,-3.8739,0.0786,0.2081,-1382.57,906.37,-1374.63
800,-3.8739,0.0819,0.2213,-1929.44,-1359.25,-999.63
810,-3.8739,0.0876,0.2360,-1507.57,328.25,-327.70
820,-3.8738,0.0947,0.2480,-773.19,-1796.75,234.80
830,-3.8738,0.1006,0.2551,133.06,-249.82,953.55
840,-3.8738,0.1039,0.2527,883.06,656.43,-1562.01
850,-3.8737,0.1071,0.2430,1304.93,343.93,484.86
860,-3.8737,0.1141,0.2389,1711.18,-890.44,-1577.70
870,-3.8735,0.1256,0.2378,-1382.57,-1421.69,219.18
880,-3.8735,0.1416,0.2275,86.18,-1562.26,-1905.82
890,-3.8734,0.1609,0.2131,-1866.94,1125.24,328.55
900,-3.8734,0.1744,0.2031,601.81,-718.44,-812.13
910,-3.8733,0.1785,0.1964,-1663.82,-1999.69,1984.74
920,-3.8733,0.1764,0.1919,-1148.19,1140.93,-421.51
930,-3.8733,0.1716,0.1886,-1413.82,562.81,-30.88
940,-3.8733,0.1644,0.1846,1976.81,140.93,-562.13
950,-3.8733,0.1538,0.1783,1054.93,-374.69,-1984.07
960,-3.8734,0.1385,0.1738,-304.44,-1171.63,-468.44
970,-3.8735,0.1168,0.1731,1742.43,-1749.76,-280.94
980,-3.8737,0.0865,0.1758,-1038.82,-1843.57,-1234.07
990,-3.8738,0.0476,0.1808,-913.82,-1499.88,1156.56
1000,-3.8740,0.0038,0.1804,-1898.19,-859.31,-77.82
1010,-3.8740,-0.0372,0.1669,492.43,-906.25,562.81
1020,-3.8741,-0.0640,0.1353,-757.57,1374.88,-62.19
1030,-3.8740,-0.0756,0.0896,-179.44,1327.94,1718.99
1040,-3.8739,-0.0831,0.0409,-1663.82,-515.81,718.87
1050,-3.8739,-0.0944,-0.0090,1367.43,1249.82,-937.44
1060,-3.8739,-0.1082,-0.0635,-70.07,-1140.87,-109.44
1070,-3.8739,-0.1259,-0.1250,-1835.69,-109.62,-203.31
1080,-3.8739,-0.1576,-0.1949,-101.32,15.32,-453.37
1090,-3.8739,-0.2080,-0.2715,-163.82,-937.87,-656.68
1100,-3.8739,-0.2714,-0.3558,1383.06,1265.20,-1094.30
1110,-3.8739,-0.3434,-0.4464,1273.68,-1531.80,1999.27
1120,-3.8739,-0.4233,-0.5267,54.93,-1125.67,1139.71
1130,-3.8739,-0.5050,-0.5840,1820.56,592.90,1280.21
1140,-3.8739,-0.5792,-0.6227,-632.57,1264.59,-1782.41
1150,-3.8739,-0.6462,-0.6415,1867.43,311.34,-1188.72
1160,-3.8738,-0.7008,-0.6372,1289.31,1904.97,233.09
1170,-3.8738,-0.7273,-0.6315,-1695.07,-1548.28,-16.91
1180,-3.8735,-0.7253,-0.6501,-1085.69,-813.96,436.22
1190,-3.8735,-0.7140,-0.6969,-835.69,795.41,-298.16
1200,-3.8734,-0.7155,-0.7649,617.43,-1188.90,1654.85
1210,-3.8734,-0.7401,-0.8456,429.93,-1892.03,-1610.90
1220,-3.8734,-0.7842,-0.9248,1273.68,-220.21,1795.17
1230,-3.8734,-0.8368,-0.9728,-366.94,1639.04,341.92
1240,-3.8735,-0.8723,-0.9694,898.68,-501.65,-80.08
1250,-3.8734,-0.8705,-0.9277,351.81,-64.21,1138.67
1260,-3.8734,-0.8212,-0.8699,586.18,1263.92,-1376.83
1270,-3.8734,-0.7236,-0.8406,-1101.32,670.23,-111.08
1280,-3.8733,-0.6116,-0.8977,-616.94,420.41,467.10
1290,-3.8734,-0.5159,-1.0315,1726.81,1108.15,-220.52
1300,-3.8734,-0.4368,-1.1675,1976.81,-16.66,-1267.70
1310,-3.8734,-0.3663,-1.2408,101.81,-1422.73,1450.81
1320,-3.8735,-0.3002,-1.2272,1117.43,1186.77,-955.57
1330,-3.8735,-0.2399,-1.1687,1586.18,-1063.11,138.18
1340,-3.8737,-0.1990,-1.1335,1304.93,-1578.61,263.31
1350,-3.8739,-0.1936,-1.1387,-1460.69,-1078.55,-1033.51
1360,-3.8740,-0.2256,-1.1758,-773.19,-1734.80,-1861.63
1370,-3.8741,-0.2917,-1.2272,-866.94,1515.14,1669.56
1380,-3.8743,-0.4026,-1.2687,-1335.69,-1063.11,263.18
1390,-3.8745,-0.5642,-1.2961,476.81,1624.21,-1736.88
1400,-3.8746,-0.7480,-1.3173,-210.69,-1891.78,1075.56
1410,-3.8748,-0.9076,-1.3425,258.06,-595.21,-1643.25
1420,-3.8748,-1.0208,-1.3893,-163.82,170.04,-612.00
1430,-3.8746,-1.0775,-1.4718,1351.81,-1814.51,-1065.25
1440,-3.8745,-1.0729,-1.5857,-1913.82,-377.14,1825.20
1450,-3.8744,-1.0242,-1.7096,-1320.07,1044.74,387.51
1460,-3.8743,-0.9553,-1.8011,914.31,1185.49,340.39
1470,-3.8741,-0.8705,-1.8274,1726.81,1466.86,90.21
1480,-3.8741,-0.7712,-1.7972,586.18,-1892.33,590.15
1490,-3.8743,-0.6782,-1.7498,1289.31,1967.22,965.21
1500,-3.8745,-0.6173,-1.7319,1195.56,45.53,-815.92
1510,-3.8746,-0.5972,-1.7570,992.43,-1673.10,-1737.79
1520,-3.8746,-0.5957,-1.8000,-429.44,-876.22,1199.65
1530,-3.8745,-0.5878,-1.8558,-241.94,1608.15,1512.08
1540,-3.8743,-0.5732,-1.9512,773.68,-1532.41,-1363.04
1550,-3.8739,-0.5670,-2.0948,-1366.94,-1735.53,-97.60
1560,-3.8733,-0.5909,-2.2489,-570.07,-126.16,1027.10
1570,-3.8728,-0.6686,-2.3528,367.43,155.09,-145.02
1580,-3.8723,-0.8083,-2.3607,-1570.07,-1141.97,-1801.51
1590,-3.8722,-0.9855,-2.2749,539.31,1842.16,-1942.14
1600,-3.8723,-1.0857,-2.1827,1867.43,826.17,823.67
1610,-3.8726,-0.9829,-2.1947,1039.31,622.86,-1004.27
1620,-3.8726,-0.7153,-2.2885,-1804.44,-908.20,-394.96
1630,-3.8723,-0.4281,-2.3492,445.56,-907.65,1761.11
1640,-3.8722,-0.2220,-2.3263,1211.18,-688.35,-254.64
1650,-3.8721,-0.1122,-2.2451,-413.82,-1750.49,-1692.08
1660,-3.8721,-0.0565,-2.1582,1648.68,640.38,933.11
1670,-3.8722,-0.0144,-2.1021,773.68,-234.50,948.85
1680,-3.8723,0.0417,-2.0861,-1835.69,-1046.94,1980.22
1690,-3.8723,0.1246,-2.1046,1351.81,984.44,917.79
1700,-3.8723,0.2188,-2.1403,-38.82,-1390.44,136.47
1710,-3.8724,0.3054,-2.1624,8.06,-1952.70,-566.71
1720,-3.8724,0.3721,-2.1572,-898.19,-780.70,-1066.77
1730,-3.8724,0.4044,-2.1251,-366.94,-124.33,542.60
1740,-3.8727,0.3975,-2.0667,-226.32,-14.89,-1519.84
1750,-3.8729,0.3711,-1.9937,-1116.94,-530.52,745.91
1760,-3.8733,0.3536,-1.9216,-491.94,813.17,152.34
1770,-3.8738,0.3575,-1.8597,1273.68,-1968.08,-738.16
1780,-3.8740,0.3856,-1.8112,1773.68,1953.80,871.34
1790,-3.8743,0.4337,-1.7670,1367.43,172.61,1652.71
1800,-3.8744,0.4860,-1.7133,-476.32,1828.92,1168.40
1810,-3.8745,0.5211,-1.6447,-1788.82,704.04,-1284.61
1820,-3.8745,0.5305,-1.5657,-1288.82,1485.35,1121.77
1830,-3.8745,0.5226,-1.4785,-85.69,-405.27,106.26
1840,-3.8745,0.5039,-1.3821,-1101.32,-1249.02,1028.32
1850,-3.8745,0.4758,-1.2820,508.06,-905.27,-49.62
1860,-3.8744,0.4551,-1.1820,914.31,-92.83,-1065.06
1870,-3.8743,0.4698,-1.0878,-1741.94,703.98,1372.68
1880,-3.8741,0.5255,-1.0081,148.68,766.54,716.61
1890,-3.8740,0.5920,-0.9440,-726.32,-1030.27,1701.11
1900,-3.8739,0.6310,-0.8868,-210.69,-827.03,-1345.64
1910,-3.8738,0.6198,-0.8254,773.68,-1514.40,1701.35
1920,-3.8738,0.5656,-0.7559,-663.82,-1655.09,-1486.02
1930,-3.8738,0.4987,-0.6862,398.68,-748.90,-1314.03
1940,-3.8738,0.4500,-0.6207,-163.82,172.79,-876.34
1950,-3.8738,0.4321,-0.5543,1601.81,547.73,-1126.22
1960,-3.8738,0.4426,-0.4857,-679.44,1047.67,1498.90
1970,-3.8738,0.4785,-0.4266,664.31,1828.98,170.90
1980,-3.8738,0.5273,-0.3896,1258.06,1391.54,186.65
1990,-3.8738,0.5629,-0.3741,-491.94,-1874.02,1764.83
2000,-3.8738,0.5624,-0.3610,54.93,110.47,-172.61
2010,-3.8737,0.5199,-0.3267,-7.57,1797.91,483.64
2020,-3.8738,0.4489,-0.2662,-1445.07,-1811.52,-1110.05
2030,-3.8739,0.3729,-0.1943,1461.18,1922.73,-203.67
2040,-3.8740,0.3140,-0.1321,-257.57,-874.33,-172.30
2050,-3.8740,0.2865,-0.0957,195.56,-905.64,780.94
2060,-3.8740,0.2892,-0.0864,679.93,-249.45,734.13
2070,-3.8740,0.3024,-0.0951,1023.68,938.05,-812.68
2080,-3.8739,0.3135,-0.1089,-1288.82,-171.33,1968.51
2090,-3.8739,0.3162,-0.1091,133.06,-1936.89,-297.12
2100,-3.8738,0.3024,-0.0884,476.81,-1968.14,437.26
2110,-3.8739,0.2728,-0.0542,-1288.82,688.05,-140.81
2120,-3.8739,0.2330,-0.0096,-1070.07,1062.99,1812.38
2130,-3.8740,0.1890,0.0480,1836.18,-1233.95,-500.06
2140,-3.8740,0.1489,0.1036,195.56,-1859.01,1593.81
2150,-3.8741,0.1252,0.1392,-929.44,1265.87,-374.82
2160,-3.8741,0.1259,0.1545,39.31,1812.74,1359.62
2170,-3.8743,0.1467,0.1517,117.43,-218.51,-374.76
2180,-3.8741,0.1752,0.1302,-1210.69,-577.88,281.49
2190,-3.8740,0.1945,0.1017,-1570.07,672.18,172.12
2200,-3.8739,0.1947,0.0850,898.68,1015.99,1078.31
2210,-3.8738,0.1744,0.0928,929.93,-1124.63,172.00
2220,-3.8738,0.1361,0.1206,-1663.82,-124.69,953.25
2230,-3.8738,0.0930,0.1483,1429.93,-562.26,375.18
2240,-3.8739,0.0598,0.1741,-85.69,-1015.50,-1077.88
2250,-3.8739,0.0404,0.2036,-335.69,-1718.69,1297.18
2260,-3.8739,0.0330,0.2197,1179.93,-1937.44,31.62
2270,-3.8740,0.0354,0.2153,226.81,125.06,-1327.70
2280,-3.8740,0.0425,0.2047,539.31,-437.44,1578.49
2290,-3.8740,0.0419,0.1858,1445.56,-1796.81,1750.37
2300,-3.8740,0.0247,0.1514,1367.43,-218.69,-1202.82
2310,-3.8740,-0.0049,0.1152,-835.69,-625.00,-234.13
2320,-3.8739,-0.0392,0.0896,-616.94,-1234.44,484.56
2330,-3.8739,-0.0745,0.0762,-1007.57,-515.75,843.87
2340,-3.8739,-0.1085,0.0731,-1523.19,1765.44,750.12
2350,-3.8740,-0.3148,-0.1349,-804.44,-1641.17,-875.12
2360,-3.8739,-0.3668,-0.2344,-288.82,-1250.67,937.19
2370,-3.8738,-0.4205,-0.3180,1054.93,-1985.11,15.14
2380,-3.8738,-0.4734,-0.3733,-1820.07,-688.35,-563.17
2390,-3.8737,-0.5160,-0.4043,-585.69,233.40,1827.39
2400,-3.8737,-0.5503,-0.4137,1961.18,264.59,-1485.17
2410,-3.8737,-0.5839,-0.4105,1570.56,-938.60,1436.65
2420,-3.8738,-0.6154,-0.4149,1273.68,-532.41,-938.35
2430,-3.8739,-0.6400,-0.4336,1242.43,-1094.97,-110.23
2440,-3.8739,-0.6565,-0.4594,-1913.82,514.34,342.90
2450,-3.8740,-0.6653,-0.4856,-23.19,1217.41,-1813.42
2460,-3.8740,-0.6659,-0.5114,-1148.19,1858.03,-1110.35
2470,-3.8739,-0.6566,-0.5415,-1226.32,-1438.84,1452.09
2480,-3.8738,-0.6393,-0.5740,-38.82,-1298.22,389.53
2490,-3.8738,-0.6118,-0.6101,-1820.07,-1454.41,-751.16
2500,-3.8737,-0.5729,-0.6573,1695.56,1920.65,1530.03
2510,-3.8737,-0.5298,-0.7098,-1320.07,-126.16,-610.72
2520,-3.8735,-0.4901,-0.7737,195.56,1155.21,-1298.28
2530,-3.8733,-0.4559,-0.8593,1273.68,983.40,1295.35
2540,-3.8730,-0.4193,-0.9514,1648.68,-1969.67,-439.21
2550,-3.8726,-0.3712,-1.0311,-1663.82,-1766.48,232.48
2560,-3.8722,-0.3159,-1.0919,492.43,30.52,44.86
2570,-3.8721,-0.2714,-1.1301,-429.44,249.33,-330.26
2580,-3.8719,-0.2563,-1.1466,1273.68,-641.17,1732.12
2590,-3.8721,-0.2716,-1.1555,-804.44,1249.45,-299.13
2600,-3.8722,-0.3077,-1.1699,1242.43,108.83,-330.38
2610,-3.8723,-0.3695,-1.1843,617.43,-1734.99,1638.31
2620,-3.8726,-0.4558,-1.1884,711.18,421.14,-1799.19
2630,-3.8727,-0.5405,-1.1888,1664.31,-94.67,169.49
2640,-3.8728,-0.5990,-1.2072,-1179.44,-157.35,763.24
2650,-3.8729,-0.6147,-1.2550,-663.82,1498.78,-1174.26
2660,-3.8729,-0.5776,-1.3119,1320.56,-626.22,1888.12
2670,-3.8729,-0.5126,-1.3596,-1929.44,92.59,-174.44
2680,-3.8727,-0.4697,-1.4105,-1601.32,1983.34,91.06
2690,-3.8727,-0.4720,-1.4694,-116.94,-532.23,-705.93
2700,-3.8727,-0.5039,-1.5000,-413.82,-63.48,-127.93
2710,-3.8727,-0.5234,-1.4688,-491.94,14.59,-987.30
2720,-3.8727,-0.4919,-1.4094,1008.06,14.59,1715.88
2730,-3.8728,-0.4133,-1.3549,1039.31,-391.60,-1659.06
2740,-3.8729,-0.3097,-1.3120,-898.19,-1407.10,1966.06
2750,-3.8730,-0.1990,-1.3070,367.43,77.51,-971.31
2760,-3.8730,-0.1041,-1.3463,-1460.69,718.32,372.44
2770,-3.8732,-0.0353,-1.3947,-1320.07,-312.74,1137.94
2780,-3.8733,0.0177,-1.4294,-507.57,1499.88,-49.62
2790,-3.8732,0.0593,-1.4543,-1726.32,1031.25,-1799.68
2800,-3.8730,0.0883,-1.4669,-398.19,1843.81,-1174.74
2810,-3.8728,0.1133,-1.4825,-695.07,234.50,997.13
2820,-3.8727,0.1323,-1.5122,-1491.94,-1765.44,-1737.30
2830,-3.8726,0.1375,-1.5510,945.56,-1562.26,1278.26
2840,-3.8726,0.1335,-1.5923,1601.81,1468.99,-1206.18
2850,-3.8724,0.1389,-1.6072,1101.81,187.74,918.76
2860,-3.8722,0.1963,-1.6115,1789.31,-1718.51,606.20
2870,-3.8718,0.3239,-1.6614,1133.06,1734.74,-1909.42
2880,-3.8713,0.4692,-1.7645,1461.18,-655.64,1418.58
2890,-3.8708,0.5613,-1.8713,70.56,-1858.46,1152.77
2900,-3.8704,0.3597,-1.8511,1961.18,-1327.21,-910.03
2910,-3.8705,0.2837,-1.7839,-1945.07,-936.83,840.09
2920,-3.8706,0.3389,-1.7825,320.56,-343.20,1918.33
2930,-3.8705,0.5165,-1.8580,-616.94,-155.64,340.21
2940,-3.8704,0.7218,-1.9434,-1882.57,-1827.15,183.84
2950,-3.8704,0.8600,-1.9655,398.68,-748.60,-1753.85
2960,-3.8705,0.8882,-1.8993,-1913.82,423.52,-753.85
2970,-3.8707,0.8289,-1.7745,1695.56,892.33,1886.90
2980,-3.8711,0.7416,-1.6526,-1898.19,860.96,1605.90
2990,-3.8715,0.6768,-1.5803,-1070.07,470.15,-378.23
3000,-3.8716,0.6515,-1.5544,-1366.94,1720.03,-1815.61
3010,-3.8716,0.6488,-1.5437,-601.32,1032.47,28.20
3020,-3.8717,0.6450,-1.5248,-945.07,-1592.53,-784.30
3030,-3.8717,0.6443,-1.4974,-1429.44,829.35,1825.13
3040,-3.8718,0.6549,-1.4661,-1523.19,329.35,-346.68
3050,-3.8718,0.6598,-1.4358,-163.82,344.97,-846.62
3060,-3.8717,0.6432,-1.4031,461.18,220.03,387.82
3070,-3.8717,0.6167,-1.3524,-1663.82,407.47,387.88
3080,-3.8718,0.6021,-1.2867,-1054.44,-1108.22,1716.06
3090,-3.8719,0.5975,-1.2235,1070.56,-701.97,919.31
3100,-3.8721,0.5825,-1.1775,492.43,-608.22,28.81
3110,-3.8722,0.5463,-1.1476,-1429.44,1282.35,1075.81
3120,-3.8723,0.4949,-1.1163,1929.93,1110.41,-49.13
3130,-3.8723,0.4384,-1.0698,-648.19,1110.29,-767.82
3140,-3.8723,0.3762,-1.0089,117.43,-936.65,1450.99
3150,-3.8724,0.3115,-0.9465,164.31,-1139.89,-1517.64
3160,-3.8726,0.2649,-0.9017,-116.94,-1155.70,-673.77
3170,-3.8726,0.2589,-0.8831,1914.31,578.61,904.48
3180,-3.8718,0.3704,-0.9243,1867.43,1328.80,1123.17
3190,-3.8718,0.3618,-0.8910,-585.69,1688.17,-79.96
3200,-3.8718,0.3417,-0.8311,-1679.44,1953.80,1716.98
3210,-3.8721,0.3190,-0.7548,-257.57,1625.61,-564.15
3220,-3.8723,0.2959,-0.6777,836.18,-608.76,-470.28
3230,-3.8724,0.2729,-0.6150,1883.06,1250.55,217.41
3240,-3.8727,0.2560,-0.5726,-1054.44,1281.74,-1329.35
3250,-3.8728,0.2469,-0.5479,773.68,-1296.39,-1032.41
3260,-3.8728,0.2373,-0.5325,-382.57,1875.43,123.90
3270,-3.8729,0.2184,-0.5128,-1616.94,-155.82,1420.78
3280,-3.8730,0.1893,-0.4814,-38.82,-1640.26,-1172.91
3290,-3.8730,0.1536,-0.4435,242.43,-1624.63,77.15
3300,-3.8732,0.1140,-0.3994,-335.69,-765.38,264.71
3310,-3.8734,0.0763,-0.3474,-1398.19,875.18,-391.42
3320,-3.8735,0.0479,-0.2932,1773.68,-468.63,-1328.86
3330,-3.8737,0.0287,-0.2430,-1866.94,-1531.19,1780.64
3340,-3.8738,0.0159,-0.2048,-320.07,890.62,1530.76
3350,-3.8739,0.0146,-0.1847,-1960.69,1781.25,-1328.55
3360,-3.8739,0.0228,-0.1774,1883.06,359.38,1327.76
3370,-3.8739,0.0299,-0.1703,-1070.07,1296.88,562.13
3380,-3.8740,0.0287,-0.1504,-163.82,-1796.88,-562.87
3390,-3.8740,0.0186,-0.1124,-320.07,750.00,1734.07
3400,-3.8741,0.0033,-0.0625,-1616.94,1609.38,-937.74
3410,-3.8743,-0.0144,-0.0104,429.93,0.00,-687.62
3420,-3.8744,-0.0291,0.0389,-1835.69,-1312.56,-578.19
3430,-3.8744,-0.0396,0.0774,289.31,999.94,203.19
3440,-3.8745,-0.0485,0.1005,-1054.44,1921.75,-1937.38
3450,-3.8745,-0.0555,0.1108,1804.93,874.88,1375.18
3460,-3.8744,-0.0618,0.1387,-132.57,-47.06,968.93
3470,-3.8744,-0.0690,0.1497,101.81,1765.50,1281.49
3480,-3.8744,-0.0856,0.1506,-820.07,-828.31,1734.62
3490,-3.8744,-0.1095,0.1393,1054.93,-703.31,-1577.88
3500,-3.8744,-0.1371,0.1212,1992.43,1843.51,-218.51
3510,-3.8743,-0.1666,0.1025,-1538.82,-469.06,1609.56
3520,-3.8743,-0.1997,0.0815,-1320.07,1140.26,-984.19
3530,-3.8741,-0.2303,0.0500,-1554.44,-1547.30,250.12
3540,-3.8741,-0.2490,0.0016,-1476.32,-1578.61,-1765.56
3550,-3.8740,-0.2559,-0.0657,133.06,218.26,1062.50
3560,-3.8739,-0.2611,-0.1479,-741.94,-391.17,234.19
3570,-3.8739,-0.2786,-0.2300,-1413.82,1077.58,-531.56
3580,-3.8738,-0.3182,-0.2941,351.81,-1422.42,-1437.99
3590,-3.8737,-0.3813,-0.3381,-726.32,-1625.67,483.76
3600,-3.8738,-0.4607,-0.3695,-804.44,733.58,-141.30
3610,-3.8738,-0.5450,-0.3928,1039.31,717.83,405.52
3620,-3.8740,-0.6239,-0.4120,-1757.57,1733.28,-1110.17
3630,-3.8741,-0.6899,-0.4331,148.68,-719.97,389.77
3640,-3.8744,-0.7430,-0.4594,-304.44,576.72,-1188.35
3650,-3.8744,-0.7832,-0.4890,898.68,1217.29,389.71
3660,-3.8744,-0.8040,-0.5165,-241.94,1420.29,-1735.35
3670,-3.8741,-0.7987,-0.5394,1101.81,1904.66,30.21
3680,-3.8740,-0.7749,-0.5658,1773.68,-1032.84,-1516.72
3690,-3.8739,-0.7528,-0.6022,820.56,-407.78,-1751.16
3700,-3.8739,-0.7406,-0.6401,-351.32,-1064.03,-1251.22
3710,-3.8739,-0.7308,-0.6753,1211.18,-1923.34,592.47
3720,-3.8741,-0.7208,-0.7034,-1538.82,1576.66,-376.34
3730,-3.8743,-0.7150,-0.7142,-257.57,1982.91,748.60
3740,-3.8745,-0.7136,-0.7242,492.43,592.35,-1626.40
3750,-3.8746,-0.7213,-0.7539,664.31,-688.90,748.54
3760,-3.8749,-0.7404,-0.7969,-320.07,-485.84,-110.90
3770,-3.8749,-0.7631,-0.8524,1242.43,-1985.84,1092.16
3780,-3.8749,-0.7932,-0.9225,-1663.82,-1095.28,435.79
3790,-3.8749,-0.8422,-0.9941,-1523.19,1935.91,1201.29
3800,-3.8749,-0.9089,-1.0586,211.18,763.98,-1236.33
3810,-3.8749,-0.9723,-1.1132,-335.69,513.79,-95.83
3820,-3.8748,-1.0038,-1.1583,-445.07,1529.30,575.93
3830,-3.8748,-0.9941,-1.2009,-476.32,-252.01,825.81
3840,-3.8749,-0.9609,-1.2380,758.06,-1705.08,-111.76
3850,-3.8749,-0.9271,-1.2640,1008.06,1544.98,-1189.94
3860,-3.8749,-0.9130,-1.2748,1336.18,-1783.08,-1565.00
3870,-3.8749,-0.9255,-1.2604,-851.32,841.92,-1346.25
3880,-3.8749,-0.9430,-1.2355,1539.31,-1314.33,-96.25
3890,-3.8748,-0.9393,-1.2372,-695.07,1873.11,1810.06
3900,-3.8748,-0.9069,-1.2888,-226.32,1654.36,-549.32
3910,-3.8746,-0.8534,-1.3801,-70.07,-954.96,888.06
3920,-3.8746,-0.7937,-1.4846,-1226.32,-642.33,-1252.75
3930,-3.8745,-0.7422,-1.5845,-1585.69,1982.79,1153.32
3940,-3.8745,-0.7147,-1.6516,1008.06,1201.66,-706.24
3950,-3.8744,-0.7184,-1.6650,523.68,607.97,-1831.36
3960,-3.8743,-0.7472,-1.6488,54.93,-1110.78,-1206.42
3970,-3.8741,-0.7938,-1.6337,367.43,967.29,-206.36
3980,-3.8739,-0.8392,-1.6440,-1601.32,-1095.34,949.89
3990,-3.8738,-0.8578,-1.7028,586.18,1576.48,-1221.98
4000,-3.8735,-0.8423,-1.7972,-1788.82,-1939.21,527.89
4010,-3.8734,-0.8129,-1.8818,195.56,1967.10,1980.83
4020,-3.8733,-0.8033,-1.9137,-38.82,-861.02,-1206.85
4030,-3.8732,-0.8365,-1.8845,1179.93,-939.09,1027.47
4040,-3.8733,-0.9050,-1.8304,929.93,-1204.77,-441.22
4050,-3.8733,-0.9717,-1.8060,164.31,1716.98,715.15
4060,-3.8733,-0.9850,-1.8608,-366.94,841.80,699.58
4070,-3.8732,-0.9207,-2.0112,1929.93,1826.17,-909.91
4080,-3.8727,-0.8115,-2.2227,-1835.69,-1423.71,1121.03
4090,-3.8721,-0.7054,-2.4233,133.06,-485.96,1261.23
4100,-3.8715,-0.6324,-2.5293,1711.18,1826.72,-1582.89
4110,-3.8710,-0.6063,-2.5013,-945.07,264.34,1713.81
4120,-3.8708,-0.6223,-2.3867,-1601.32,-157.47,-1317.44
4130,-3.8710,-0.6520,-2.2738,351.81,-1485.60,-1535.95
4140,-3.8712,-0.6675,-2.2086,554.93,967.47,-1723.21
4150,-3.8715,-0.6606,-2.1797,-1429.44,1311.16,1980.04
4160,-3.8717,-0.6384,-2.1595,-554.44,1014.28,-1691.77
4170,-3.8719,-0.6086,-2.1364,-1710.69,-407.53,-1254.27
4180,-3.8722,-0.5769,-2.1144,-1898.19,-1438.72,-644.84
4190,-3.8723,-0.5594,-2.1011,-1835.69,1373.84,1855.22
4200,-3.8723,-0.5690,-2.1053,398.68,-922.97,292.72
4210,-3.8723,-0.5911,-2.1146,-820.07,-1469.91,1620.85
4220,-3.8723,-0.6017,-2.0938,351.81,1342.59,-1722.90
4230,-3.8723,-0.5906,-2.0308,-1007.57,14.40,152.16
4240,-3.8726,-0.5634,-1.9481,414.31,76.97,-441.47
4250,-3.8727,-0.5294,-1.8783,-101.32,-1344.91,1933.65
4260,-3.8728,-0.4886,-1.8324,242.43,-407.29,933.78
4270,-3.8729,-0.4385,-1.7926,1461.18,1467.77,1090.15
4280,-3.8730,-0.3864,-1.7407,-116.94,-1438.42,-1987.92
4290,-3.8732,-0.3418,-1.6716,-1445.07,1202.33,-769.04
4300,-3.8732,-0.3055,-1.5857,258.06,-1953.80,215.45
4310,-3.8733,-0.2770,-1.4930,898.68,1046.26,918.76
4320,-3.8734,-0.2568,-1.4048,554.93,905.70,1590.82
4330,-3.8735,-0.2389,-1.3276,-866.94,202.58,-909.00
4340,-3.8735,-0.2131,-1.2661,1429.93,-1922.36,1872.38
4350,-3.8735,-0.1724,-1.2101,726.81,1952.70,481.87
4360,-3.8737,-0.1111,-1.1429,1945.56,1124.63,-1799.26
4370,-3.8737,-0.0327,-1.0685,1789.31,1718.51,372.74
4380,-3.8738,0.0466,-1.0061,-179.44,-750.12,-189.64
4390,-3.8738,0.1106,-0.9586,1976.81,-781.19,-361.39
4400,-3.8738,0.1537,-0.9069,-1835.69,1297.06,-1408.14
4410,-3.8739,0.1796,-0.8287,-320.07,-77.88,-861.21
4420,-3.8740,0.1948,-0.7242,-1007.57,1922.18,607.73
4430,-3.8743,0.2047,-0.6151,945.56,-702.76,201.66
4440,-3.8745,0.2140,-0.5194,-1788.82,1265.99,61.28
4450,-3.8748,0.2260,-0.4447,-601.32,1515.99,1983.34
4460,-3.8749,0.2438,-0.3929,929.93,-921.45,-1500.92
4470,-3.8749,0.2704,-0.3553,-788.82,1703.55,421.08
4480,-3.8750,0.3003,-0.3108,-1382.57,-1483.89,-1938.23
4490,-3.8439,0.3221,-0.2480,-1554.44,219.30,-1375.61
4500,-3.8440,0.3326,-0.1718,1242.43,250.61,1796.39
4510,-3.8442,0.3363,-0.0914,-1413.82,-1983.76,-437.87
4520,-3.8444,0.3354,-0.0162,-945.07,297.49,1124.82
4530,-3.8445,0.3273,0.0453,-1054.44,1922.49,281.19
4540,-3.8446,0.3113,0.0919,1898.68,1797.49,1671.94
4550,-3.8446,0.2921,0.1329,-148.19,-233.83,1031.37
4560,-3.8446,0.2679,0.1733,1398.68,1016.17,968.99
4570,-3.8447,0.2351,0.2114,-1695.07,-1812.01,-15.32
4580,-3.8447,0.1947,0.2450,-1898.19,-937.07,1844.12
4590,-3.8447,0.1455,0.2676,929.93,-640.26,16.05
4600,-3.8447,0.0817,0.2725,-1366.94,-1749.76,344.24
4610,-3.8447,0.0009,0.2554,-1538.82,-1124.88,-124.51
4620,-3.8445,-0.0911,0.2166,117.43,687.50,-1405.76
4630,-3.8442,-0.1864,0.1749,351.81,-265.81,1937.87
4640,-3.8440,-0.3774,0.2106,-226.32,-16.36,1062.81
4650,-3.8441,-0.3772,0.2144,-304.44,-1032.04,-77.76
4660,-3.8441,-0.3668,0.1953,-273.19,-547.67,-30.88
4670,-3.8440,-0.3663,0.1580,1054.93,1014.89,-1577.76
4680,-3.8439,-0.3982,0.1180,1117.43,233.64,-484.07
4690,-3.8749,-0.4797,0.0819,1039.31,-875.79,-437.32
4700,-3.8745,-0.5863,0.0499,-1398.19,-1500.98,593.87
4710,-3.8744,-0.6726,0.0310,961.18,-1594.91,-1281.19
4720,-3.8743,-0.7197,0.0156,1914.31,-16.97,1406.25
4730,-3.8743,-0.7339,-0.0139,-116.94,-1985.84,-328.12
4740,-3.8741,-0.7275,-0.0596,-1929.44,-1767.09,-859.44
4750,-3.8740,-0.7125,-0.1107,-1116.94,389.16,-468.87
4760,-3.8738,-0.7078,-0.1538,804.93,1842.35,1015.38
4770,-3.8737,-0.7302,-0.1974,1414.31,326.72,-812.81
4780,-3.8734,-0.7806,-0.2463,-1460.69,-1251.46,562.07
4790,-3.8733,-0.8466,-0.2729,86.18,482.85,1265.14
4800,-3.8732,-0.9083,-0.2679,-351.32,1076.42,1468.20
4810,-3.8732,-0.9493,-0.2501,-257.57,1716.92,-766.17
4820,-3.8732,-0.9708,-0.2407,-1507.57,-1.89,-1766.17
4830,-3.8732,-0.9803,-0.2522,-257.57,1201.17,843.26
4840,-3.8732,-0.9783,-0.2786,-1476.32,-267.58,343.20
4850,-3.8732,-0.9668,-0.3071,-1210.69,357.42,624.45
4860,-3.8732,-0.9520,-0.3344,258.06,701.23,1561.89
4870,-3.8732,-0.9464,-0.3615,-1851.32,1216.86,-1375.67
4880,-3.8732,-0.9597,-0.3799,-1132.57,1748.11,-563.23
4890,-3.8730,-0.9838,-0.3901,1164.31,-611.27,889.83
4900,-3.8730,-1.0040,-0.4098,-1913.82,-1923.83,-1328.92
4910,-3.8729,-1.0166,-0.4404,-507.57,-439.51,61.65
4920,-3.8732,-1.0167,-0.5043,-1507.57,1091.74,-813.48
4930,-3.8732,-1.0238,-0.5348,1867.43,-533.26,45.84
4940,-3.8733,-1.0255,-0.5802,961.18,-439.51,-1219.85
4950,-3.8733,-1.0143,-0.6375,742.43,1747.99,-360.53
4960,-3.8732,-0.9816,-0.7087,-1820.07,-1580.14,-1610.66
4970,-3.8730,-0.9293,-0.7853,-1632.57,1294.92,1498.60
4980,-3.8729,-0.8748,-0.8495,1054.93,-501.83,139.04
4990,-3.8729,-0.8341,-0.8906,39.31,-720.46,-1282.96
5000,-3.8729,-0.8135,-0.8987,1242.43,-1986.02,-579.90
5010,-3.8729,-0.8135,-0.8781,-116.94,982.73,591.98
5020,-3.8732,-0.8254,-0.8470,-116.94,-376.65,-845.52
5030,-3.8733,-0.8264,-0.8325,-1648.19,-407.90,-1892.33
5040,-3.8733,-0.8020,-0.8633,-1773.19,1451.48,404.60
5050,-3.8733,-0.7646,-0.9377,1351.81,1514.04,-689.21
5060,-3.8730,-0.7408,-1.0352,-1866.94,-17.15,-1564.39
5070,-3.8728,-0.7568,-1.1201,1179.93,-485.84,-1377.08
5080,-3.8726,-0.8018,-1.1526,-866.94,639.10,575.93
5090,-3.8726,-0.8335,-1.1412,1383.06,482.79,-221.01
5100,-3.8724,-0.8279,-1.1309,1320.56,1935.85,200.87
5110,-3.8726,-0.7863,-1.1643,-1960.69,-736.02,-814.76
5120,-3.8726,-0.7269,-1.2477,-632.57,-1017.21,-330.44
5130,-3.8724,-0.6714,-1.3441,-1038.82,311.04,-486.82
5140,-3.8722,-0.6243,-1.4340,-1929.44,-32.59,-502.69
5150,-3.8718,-0.5876,-1.5310,101.81,467.53,-893.43
5160,-3.8713,-0.5668,-1.6293,789.31,45.72,122.01
5170,-3.8710,-0.5483,-1.7028,-538.82,-532.41,371.77
5180,-3.8707,-0.5012,-1.7521,1820.56,-1938.60,-1284.61
5190,-3.8705,-0.4178,-1.7937,-148.19,-251.04,-1565.98
5200,-3.8702,-0.1807,-1.8549,664.31,-703.61,-1534.91
5210,-3.8702,-0.1123,-1.8630,883.06,-1406.62,668.21
5220,-3.8704,-0.0260,-1.8871,1633.06,1546.63,1308.84
5230,-3.8705,0.0966,-1.9352,679.93,-1531.31,1574.40
5240,-3.8706,0.2598,-2.0183,367.43,297.06,-1003.78
5250,-3.8706,0.4388,-2.1272,1258.06,1656.74,-1253.97
5260,-3.8706,0.6062,-2.2153,179.93,-280.40,-363.59
5270,-3.8706,0.7491,-2.2355,1601.81,438.66,1792.54
5280,-3.8708,0.8610,-2.1796,-101.32,1860.78,-1348.14
5290,-3.8712,0.9299,-2.0787,-1788.82,1017.27,-551.15
5300,-3.8716,0.9504,-1.9706,-960.69,1923.65,-1613.46
5310,-3.8719,0.9410,-1.8667,1664.31,-232.54,511.72
5320,-3.8724,0.9349,-1.7679,461.18,1064.33,-863.04
5330,-3.8727,0.9492,-1.6738,-320.07,1704.90,168.40
5340,-3.8729,0.9728,-1.5889,1508.06,1751.83,1277.95
5350,-3.8730,0.9904,-1.5186,523.68,626.89,-1706.24
5360,-3.8730,1.0006,-1.4570,-1226.32,1626.89,1575.13
5370,-3.8730,1.0135,-1.3951,86.18,1501.95,1481.51
5380,-3.8730,1.0394,-1.3251,1742.43,1423.83,1028.50
5390,-3.8732,1.0835,-1.2408,1054.93,-1607.36,-252.62
5400,-3.8732,1.1403,-1.1499,-1304.44,1173.95,1825.68
5410,-3.8733,1.1888,-1.0664,1961.18,814.70,-752.26
5420,-3.8734,1.2084,-0.9937,179.93,-497.68,-236.51
5430,-3.8735,1.1914,-0.9257,-1320.07,814.82,-611.33
5440,-3.8737,1.1440,-0.8560,508.06,1517.94,1935.67
5450,-3.8739,1.0785,-0.7806,-1554.44,-1560.30,-1.71
5460,-3.8740,1.0071,-0.7046,-1945.07,80.20,-1579.65
5470,-3.8741,0.9392,-0.6348,914.31,1814.45,1217.35
5480,-3.8743,0.8779,-0.5737,226.81,-1248.17,420.59
5490,-3.8744,0.8185,-0.5179,383.06,-1435.79,92.59
5500,-3.8745,0.7620,-0.4611,773.68,1704.71,498.96
5510,-3.8746,0.7142,-0.4086,1539.31,985.84,-1813.42
5520,-3.8746,0.6798,-0.3757,-570.07,-295.53,1296.02
5530,-3.8746,0.6621,-0.3685,-976.32,-92.47,-1688.29
5540,-3.8745,0.6543,-0.3777,758.06,829.41,1874.27
5550,-3.8744,0.6431,-0.3879,-241.94,-342.53,-688.29
5560,-3.8741,0.6238,-0.3850,-1679.44,-1655.03,311.71
5570,-3.8741,0.6011,-0.3636,-148.19,-1280.09,-938.29
5580,-3.8741,0.5768,-0.3309,945.56,1454.28,-563.23
5590,-3.8741,0.5513,-0.2944,1836.18,1641.72,1702.45
5600,-3.8743,0.5239,-0.2537,-1429.44,-1686.46,-1781.86
5610,-3.8744,0.4957,-0.2092,-929.44,-467.77,-1844.30
5620,-3.8745,0.4724,-0.1661,-538.82,1219.67,-1125.43
5630,-3.8745,0.4573,-0.1335,476.81,-1264.71,1171.51
5640,-3.8745,0.4493,-0.1123,-1460.69,-1092.90,655.94
5650,-3.8745,0.4519,-0.0930,1523.68,1625.85,312.26
5660,-3.8746,0.4703,-0.0759,1851.81,94.60,-390.81
5670,-3.8746,0.4951,-0.0645,211.18,-1717.83,-1953.31
5680,-3.8748,0.5114,-0.0513,-616.94,-249.08,-484.56
5690,-3.8749,0.5121,-0.0222,1461.18,1438.48,-265.75
5700,-3.8750,0.4960,0.0242,1554.93,1157.23,-1718.81
5710,-3.8439,0.4630,0.0740,-507.57,-905.33,156.25
5720,-3.8441,0.4213,0.1105,-726.32,1469.60,-968.63
5730,-3.8442,0.3820,0.1277,1929.93,-1858.58,-156.07
5740,-3.8442,0.3503,0.1312,898.68,344.48,1422.12
5750,-3.8444,0.3226,0.1287,851.81,797.55,-1281.01
5760,-3.8445,0.2911,0.1304,1304.93,469.36,-202.88
5770,-3.8445,0.2544,0.1405,1273.68,688.05,593.99
5780,-3.8446,0.2162,0.1531,570.56,1984.86,828.37
5790,-3.8451,0.1194,0.1355,-491.94,31.49,-1687.19
5800,-3.8452,0.0770,0.1017,-710.69,1343.93,1984.62
5810,-3.8453,0.0214,0.0636,1867.43,1015.75,-937.32
5820,-3.8453,-0.0424,0.0287,-1257.57,140.62,1656.37
5830,-3.8453,-0.1033,0.0060,-1413.82,-312.62,515.62
5840,-3.8455,-0.1595,-0.0020,-1210.69,781.01,-1437.50
5850,-3.8456,-0.2140,-0.0166,-413.82,-234.74,-375.06
5860,-3.8457,-0.2637,-0.0529,617.43,1890.20,-375.06
5870,-3.8458,-0.3107,-0.1075,-1741.94,1249.45,-515.75
5880,-3.8458,-0.3668,-0.1877,242.43,-1750.61,1390.38
5890,-3.8458,-0.4525,-0.3109,1054.93,-16.36,1796.45
5900,-3.8457,-0.5630,-0.4712,-1913.82,217.83,1702.51
5910,-3.8455,-0.6555,-0.6338,-54.44,-298.03,-94.73
5920,-3.8450,-0.7052,-0.7582,101.81,-1110.66,-641.91
5930,-3.8445,-0.7397,-0.8127,1742.43,-1032.65,-1064.03
5940,-3.8441,-0.7861,-0.8123,1320.56,-17.09,-1376.65
5950,-3.8439,-0.8287,-0.8129,-616.94,45.29,779.66
5960,-3.8439,-0.8617,-0.8676,1929.93,-32.90,-1486.02
5970,-3.8439,-0.8931,-0.9972,1711.18,967.04,-95.46
5980,-3.8750,-0.9177,-1.1512,1695.56,373.23,-189.45
5990,-3.8748,-0.9336,-1.2294,-1460.69,654.42,232.12
6000,-3.8748,-0.9481,-1.1877,508.06,-1345.58,1356.93
6010,-3.8749,-0.9612,-1.0756,-1351.32,-17.52,-689.88
6020,-3.8749,-0.9714,-0.9663,976.81,-1658.14,-1970.89
6030,-3.8749,-0.9847,-0.9241,-335.69,326.17,-64.39
6040,-3.8748,-1.0121,-1.0167,1961.18,1732.42,-220.58
6050,-3.8745,-1.0648,-1.2538,-1538.82,1872.99,966.74
6060,-3.8744,-1.1705,-1.5497,-288.82,-470.89,-658.75
6070,-3.8741,-1.7773,-1.9365,336.18,1012.27,1652.53
6080,-3.8739,-1.7161,-2.0211,508.06,137.15,-1003.78
6090,-3.8733,-1.5779,-2.1952,351.81,1309.14,-785.22
6100,-3.8724,-1.4471,-2.3981,-1960.69,-971.86,1370.67
6110,-3.8718,-1.3932,-2.5164,-1226.32,1059.63,-301.57
6120,-3.8715,-1.4166,-2.5089,1679.93,1919.13,-1161.19
6130,-3.8715,-1.4485,-2.4458,-1320.07,-1127.81,-770.57
6140,-3.8716,-1.4469,-2.4266,-1398.19,-1049.74,1917.05
6150,-3.8718,-1.4293,-2.4902,-1195.07,1403.38,1901.49
6160,-3.8722,-1.4116,-2.6229,1054.93,1262.82,-364.26
6170,-3.8724,-1.3722,-2.8196,-679.44,278.44,1448.00
6180,-3.8726,-1.3003,-3.0607,367.43,-893.31,1775.70
6190,-3.8723,-1.2000,-3.2863,1570.56,247.44,1025.27
6200,-3.8719,-1.0507,-3.4617,-1585.69,-627.38,1665.41
6210,-3.8717,-0.8441,-3.6034,1523.68,919.80,-1834.90
6220,-3.8717,-0.6261,-3.7272,-38.82,-1220.46,-1225.83
6230,-3.8718,-0.4436,-3.8096,-132.57,-1063.78,-1476.07
6240,-3.8719,-0.3037,-3.8486,-773.19,389.71,-1116.82
6250,-3.8719,-0.2015,-3.8790,1133.06,-609.99,-1335.69
6260,-3.8718,-0.1204,-3.9320,-1788.82,-500.43,-507.63
6270,-3.8716,-0.0332,-3.9675,601.81,718.51,-1054.57
6280,-3.8715,0.0796,-3.8684,-241.94,171.75,-1851.50
6290,-3.8716,0.2124,-3.5835,-1804.44,843.87,601.81
6300,-3.8721,0.3385,-3.2058,-804.44,1312.87,-1585.14
6310,-3.8726,0.4346,-2.8567,-663.82,1656.86,837.46
6320,-3.8729,0.5110,-2.5844,-366.94,-1655.46,478.76
6330,-3.8730,0.5942,-2.3875,1414.31,1204.10,-1958.19
6340,-3.8728,0.6826,-2.2441,70.56,-1592.59,245.30
6350,-3.8711,0.9431,-1.6843,-132.57,-982.67,1058.84
6360,-3.8710,0.9504,-1.5302,726.81,408.08,152.95
6370,-3.8711,0.9275,-1.4237,1664.31,142.46,-440.49
6380,-3.8711,0.8767,-1.3586,-1273.19,1767.40,-627.81
6390,-3.8710,0.8070,-1.3088,226.81,-1904.54,575.44
6400,-3.8710,0.7357,-1.2528,-695.07,470.28,1544.31
6410,-3.8710,0.6672,-1.1907,-1820.07,-357.97,1450.62
6420,-3.8710,0.5941,-1.1316,1414.31,-404.97,231.99
6430,-3.8711,0.5115,-1.0812,54.93,-842.59,-1955.38
6440,-3.8711,0.4213,-1.0541,1476.81,1610.35,1075.99
6450,-3.8711,0.3379,-1.0446,1929.93,1078.92,-814.58
6460,-3.8710,0.2786,-1.0310,-741.94,-1702.51,-1064.58
6470,-3.8708,0.2474,-1.0016,-335.69,31.74,982.36
6480,-3.8710,0.2417,-0.9570,-320.07,-202.70,-673.89
6490,-3.8711,0.2550,-0.9060,-1054.44,1500.43,-1986.27
6500,-3.8713,0.2800,-0.8539,648.68,31.74,-1392.40
6510,-3.8716,0.3137,-0.8044,-148.19,-1296.39,-1001.71
6520,-3.8718,0.3472,-0.7672,164.31,1031.86,-829.71
6530,-3.8721,0.3571,-0.7485,445.56,1797.55,-1720.28
6540,-3.8723,0.3292,-0.7452,1711.18,188.17,1295.41
6550,-3.8726,0.2842,-0.7421,-1851.32,609.99,1201.66
6560,-3.8728,0.2550,-0.7303,383.06,1016.17,1529.79
6570,-3.8730,0.2617,-0.7211,648.68,-1483.89,-1376.46
6580,-3.8732,0.3070,-0.7249,1508.06,-296.39,1514.16
6590,-3.8733,0.3678,-0.7456,-695.07,-780.70,-1923.34
6600,-3.8734,0.4194,-0.7672,-913.82,563.17,-1438.96
6610,-3.8735,0.4550,-0.7689,1695.56,1797.67,779.72
6620,-3.8738,0.4675,-0.7561,-1757.57,1578.98,60.97
6630,-3.8748,0.4030,-0.6761,-866.94,1250.79,1201.72
6640,-3.8750,0.3740,-0.6652,-413.82,1453.86,123.66
6650,-3.8440,0.3350,-0.6921,-116.94,-1139.95,1623.66
6660,-3.8441,0.2780,-0.7434,-1116.94,-593.14,-610.78
6670,-3.8440,0.2083,-0.7877,-413.82,844.24,873.54
6680,-3.8440,0.1426,-0.8019,-1335.69,-827.76,-439.09
6690,-3.8439,0.0861,-0.7875,-1741.94,1359.62,1951.54
6700,-3.8750,0.0459,-0.7593,-976.32,-796.75,201.54
6710,-3.8750,0.0323,-0.7305,1883.06,-1187.44,1982.85
6720,-3.8750,0.0300,-0.7128,148.68,-1499.94,-1563.96
6730,-3.8750,0.0127,-0.7100,-148.19,765.62,1779.85
6740,-3.8439,-0.0299,-0.7094,1633.06,1125.00,-95.15
6750,-3.8440,-0.0941,-0.6802,179.93,1218.69,-470.15
6760,-3.8442,-0.1808,-0.6086,-38.82,952.88,-626.34
6770,-3.8446,-0.2935,-0.5200,867.43,-1890.99,-438.72
6780,-3.8450,-0.4230,-0.4362,-1554.44,1452.51,1670.84
6790,-3.8453,-0.5485,-0.3612,1867.43,186.65,1092.90
6800,-3.8456,-0.6534,-0.3094,1804.93,1780.15,639.89
6810,-3.8457,-0.7395,-0.3007,367.43,404.97,936.89
6820,-3.8457,-0.8004,-0.3409,1351.81,1529.79,-1688.11
6830,-3.8456,-0.8225,-0.4203,1554.93,373.41,-625.67
6840,-3.8453,-0.8152,-0.5148,-1273.19,-1782.90,-1610.23
6850,-3.8451,-0.7987,-0.5928,-335.69,-1876.65,-1438.54
6860,-3.8448,-0.7880,-0.6152,1773.68,139.04,889.47
6870,-3.8448,-0.7804,-0.5769,-851.32,1264.04,-891.85
6880,-3.8448,-0.7576,-0.5457,117.43,-1829.65,-344.91
6890,-3.8447,-0.7155,-0.5933,-960.69,-1829.65,-1641.72
6900,-3.8445,-0.6542,-0.7261,429.93,76.72,-1532.41
6910,-3.8441,-0.5782,-0.9027,273.68,-923.16,-95.21
6920,-3.8749,-0.5282,-1.0601,1992.43,467.59,-1845.52
6930,-3.8745,-0.5327,-1.1606,398.68,327.09,872.92
6940,-3.8744,-0.5829,-1.2081,-179.44,-547.97,450.81
6950,-3.8745,-0.6544,-1.2035,1398.68,1373.84,1606.99
6960,-3.8745,-0.7153,-1.2172,242.43,1967.47,622.62
6970,-3.8743,-0.7507,-1.3372,445.56,217.35,28.87
6980,-3.8739,-0.7672,-1.5270,-85.69,857.85,-1346.37
6990,-3.8734,-0.7733,-1.6881,1804.93,560.97,-1409.24
7000,-3.8730,-0.7711,-1.7554,1023.68,-64.03,934.14
7010,-3.8730,-0.7531,-1.7261,1304.93,-673.40,-1784.73
7020,-3.8733,-0.7150,-1.6393,-382.57,-923.40,-440.92
7030,-3.8735,-0.6760,-1.5353,492.43,-1813.90,-1190.73
7040,-3.8737,-0.6681,-1.4553,1476.81,-501.34,-643.68
7050,-3.8735,-0.7343,-1.4669,-1507.57,1733.03,-65.37
7060,-3.8732,-0.8875,-1.6461,-1976.32,248.54,1450.26
7070,-3.8728,-1.0688,-1.9852,-1585.69,1310.73,59.27
7080,-3.8724,-1.2091,-2.3442,-804.44,1904.11,433.59
7090,-3.8721,-1.2932,-2.5750,1242.43,-49.26,-114.01
7100,-3.8716,-1.3280,-2.6349,-1523.19,-1580.69,557.43
7110,-3.8716,-1.3181,-2.5734,-1976.32,-1252.62,-739.56
7120,-3.8718,-1.2905,-2.4684,-710.69,-1377.62,-223.82
7130,-3.8722,-1.2826,-2.3890,-1179.44,59.94,1760.80
7140,-3.8727,-1.3140,-2.3984,-163.82,-1783.81,1495.30
7150,-3.8730,-1.3873,-2.5476,-179.44,1013.00,182.80
7160,-3.8733,-1.4894,-2.8086,-1570.07,1919.13,-1130.00
7170,-3.8730,-1.5862,-3.0759,1367.43,512.70,619.51
7180,-3.8727,-1.6335,-3.2732,976.81,-1706.24,1931.46
7190,-3.8723,-1.6167,-3.3807,-1085.69,1043.64,-1412.66
7200,-3.8721,-1.5621,-3.4152,1070.56,-721.92,-1241.03
7210,-3.8717,-1.7474,-3.6498,836.18,137.51,1352.54
7220,-3.8715,-1.9154,-3.8557,336.18,840.33,-1866.52
7230,-3.8711,-1.9678,-4.0000,-1163.82,-1519.41,726.81
7240,-3.8708,-1.8151,-4.0000,133.06,11.78,1382.81
7250,-3.8707,-1.4408,-4.0000,-320.07,12.02,1632.81
7260,-3.8708,-0.9452,-4.0000,-413.82,12.76,-789.06
7270,-3.8711,-0.5061,-3.9938,-976.32,13.73,-523.44
7280,-3.8712,-0.2614,-3.9747,-773.19,811.46,1835.94
7290,-3.8711,-0.2676,-3.8496,-1445.07,-750.55,492.19
7300,-3.8710,-0.4974,-3.5925,1758.06,-734.92,-288.82
7310,-3.8708,-0.8473,-3.3314,336.18,170.90,-803.89
7320,-3.8710,-1.2083,-3.1901,-445.07,1592.04,-678.41
7330,-3.8712,-1.5040,-3.1659,1351.81,-314.88,1384.34
7340,-3.8717,-1.6891,-3.1583,-507.57,-1221.74,-662.48
7350,-3.8722,-1.7465,-3.1082,-195.07,-253.36,-1334.35
7360,-3.8727,-1.6840,-3.0448,461.18,-1831.54,1993.90
7370,-3.8730,-1.5426,-3.0052,461.18,-1722.05,72.14
7380,-3.8734,-1.3766,-2.9784,-1445.07,-659.30,-974.67
7390,-3.8734,-1.2114,-2.9351,-195.07,-1221.50,212.89
7400,-3.8734,-1.0496,-2.8588,945.56,325.74,-1552.61
7410,-3.8733,-0.8859,-2.7474,1664.31,-1908.33,-1849.37
7420,-3.8733,-0.7230,-2.6056,-1382.57,341.98,-1333.50
7430,-3.8734,-0.5756,-2.4384,-538.82,-1501.46,510.50
7440,-3.8739,-0.4587,-2.2500,-1663.82,-94.91,-332.95
7450,-3.8744,-0.3700,-2.0502,1289.31,14.71,-1051.27
7460,-3.8749,-0.2861,-1.8650,648.68,1593.02,-1488.40
7470,-3.8440,-0.1974,-1.7188,-616.94,1296.26,1402.59
7480,-3.8442,-0.1154,-1.6141,-1257.57,15.20,465.39
7490,-3.8447,0.0565,-1.2830,-773.19,-1718.69,684.75
7500,-3.8450,0.0389,-1.1700,-757.57,-218.69,1247.44
7510,-3.8452,0.0303,-1.0728,992.43,-1765.56,1810.18
7520,-3.8453,0.0482,-1.0002,-116.94,-1312.50,950.99
7530,-3.8455,0.0927,-0.9542,-1820.07,-31.19,-1392.64
7540,-3.8455,0.1539,-0.9294,-132.57,1859.50,435.61
7550,-3.8456,0.2218,-0.9127,-288.82,1031.49,1310.67
7560,-3.8457,0.2771,-0.8854,398.68,-827.70,1982.54
7570,-3.8458,0.3003,-0.8433,-523.19,-1327.64,-17.40
7580,-3.8457,0.2885,-0.8015,-1554.44,63.05,1295.23
7590,-3.8455,0.2692,-0.7760,929.93,1406.80,279.66
7600,-3.8451,0.3022,-0.7837,-1538.82,672.36,-1220.28
7610,-3.8445,0.3960,-0.8403,-1304.44,-311.95,1029.66
7620,-3.8442,0.4598,-0.9097,-1304.44,438.23,-595.40
7630,-3.8444,0.4138,-0.9152,-1132.57,-436.65,-1001.83
7640,-3.8448,0.2581,-0.8142,976.81,-1139.83,1545.04
7650,-3.8457,0.0371,-0.6235,1039.31,-218.26,-517.27
7660,-3.8466,-0.1918,-0.3781,758.06,187.56,1389.40
7670,-3.8475,-0.3752,-0.1133,-538.82,-375.43,-1907.04
7680,-3.8484,-0.5026,0.1187,-23.19,1514.83,1749.76
7690,-3.8490,-0.6006,0.2692,-320.07,-797.91,-1749.82
7700,-3.8492,-0.6776,0.3297,-866.94,-1532.47,1891.11
7710,-3.8492,-0.7316,0.3170,1273.68,-1782.59,-1046.26
7720,-3.8490,-0.7662,0.2427,-1632.57,592.29,-1015.01
7730,-3.8485,-0.7725,0.1178,1929.93,-923.40,578.55
7740,-3.8479,-0.7291,-0.0339,1133.06,-907.78,1234.56
7750,-3.8470,-0.6172,-0.1757,-1320.07,-329.59,531.13
7760,-3.8462,-0.4542,-0.2910,1008.06,1530.03,280.88
7770,-3.8456,-0.2957,-0.3933,1867.43,-1235.29,-1953.74
7780,-3.8451,-0.1857,-0.4802,-1835.69,1671.26,-1282.04
7790,-3.8446,-0.1456,-0.5327,242.43,-1453.49,-1157.23
7800,-3.8441,-0.2025,-0.5667,1367.43,-172.18,1358.28
7810,-3.8439,-0.3860,-0.6152,-1913.82,-516.05,-1313.66
7820,-3.8750,-0.6721,-0.6573,-1398.19,1264.83,-516.85
7830,-3.8749,-0.9637,-0.6451,1976.81,-126.34,1608.03
7840,-3.8749,-1.1785,-0.5383,648.68,1435.61,264.34
7850,-3.8749,-1.2662,-0.3445,1164.31,-892.94,436.40
7860,-3.8746,-1.2159,-0.1906,1929.93,-80.63,1093.02
7870,-3.8743,-1.1050,-0.2302,367.43,-377.38,-719.18
7880,-3.8738,-1.0422,-0.4989,-1429.44,-1455.32,-1484.86
7890,-3.8732,-1.0573,-0.8722,-1398.19,154.17,1827.15
7900,-3.8723,-1.1063,-1.1769,679.93,372.92,1592.04
7910,-3.8715,-1.1541,-1.3164,-1601.32,1372.80,-955.44
7920,-3.8708,-1.1895,-1.2767,289.31,-486.63,-1158.87
7930,-3.8706,-1.2101,-1.1346,-241.94,591.37,1888.12
7940,-3.8707,-1.2186,-0.9777,1117.43,-1221.13,716.49
7950,-3.8711,-1.1968,-0.8134,23.68,-1127.38,279.30
7960,-3.8715,-1.1285,-0.6617,-1179.44,-96.13,967.10
7970,-3.8717,-1.0500,-0.5730,-445.07,-689.76,295.53
7980,-3.8719,-1.0006,-0.5775,1601.81,-1330.20,1420.72
7990,-3.8721,-0.9821,-0.6860,-70.07,-1908.26,-1969.91
8000,-3.8721,-0.9741,-0.8528,-1695.07,201.17,1764.28
8010,-3.8721,-0.9617,-1.0005,-679.44,-1142.58,-814.21
8020,-3.8719,-0.9465,-1.1345,914.31,-48.77,-595.76
8030,-3.8716,-0.9099,-1.2825,-1148.19,-1205.02,28.99
8040,-3.8713,-0.8262,-1.3788,-460.69,-142.46,-1393.19
8050,-3.8711,-0.7031,-1.3574,-1741.94,-470.40,-34.00
8060,-3.8708,-0.5763,-1.2465,-1991.94,-1735.78,1794.19
8070,-3.8708,-0.4895,-1.1326,-1757.57,467.59,497.56
8080,-3.8712,-0.4686,-1.0676,1351.81,-954.10,-1752.26
8090,-3.8717,-0.5153,-1.0605,23.68,-641.54,-1564.64
8100,-3.8722,-0.6418,-1.0972,-1945.07,264.59,1872.92
8110,-3.8726,-0.8260,-1.1183,1851.81,-423.16,-1142.82
8120,-3.8724,-0.9899,-1.1508,-1726.32,873.35,888.43
8130,-3.8721,-1.0938,-1.2762,1304.93,716.80,1888.37
8140,-3.8716,-1.1417,-1.4792,8.06,654.11,-1455.63
8150,-3.8711,-1.1283,-1.6475,1867.43,-1330.38,-674.80
8160,-3.8707,-1.0433,-1.6556,-413.82,1138.37,-721.98
8170,-3.8707,-0.9009,-1.5104,-1538.82,91.67,-1003.23
8180,-3.8711,-0.7352,-1.3406,695.56,-1314.27,825.13
8190,-3.8718,-0.5923,-1.2377,1898.68,420.41,-1205.75
8200,-3.8724,-0.5095,-1.1952,195.56,1592.59,1091.31
8210,-3.8729,-0.5029,-1.1893,-1210.69,-969.79,1231.99
8220,-3.8733,-0.5702,-1.2028,-366.94,-219.79,-80.51
8230,-3.8734,-0.6833,-1.2230,-976.32,-1938.66,-330.51
8240,-3.8734,-0.8064,-1.2598,539.31,-532.59,-939.94
8250,-3.8733,-0.9178,-1.3187,789.31,-1235.96,1528.75
8260,-3.8732,-0.9938,-1.3987,-1476.32,-783.08,-268.25
8270,-3.8728,-1.0161,-1.5032,804.93,982.42,528.50
8280,-3.8727,-1.0017,-1.6044,1945.56,-392.64,-377.99
8290,-3.8726,-0.9814,-1.6581,-210.69,-1345.76,1778.08
8300,-3.8727,-0.9716,-1.6459,-1616.94,-220.70,-1253.30
8310,-3.8728,-0.9730,-1.5859,-351.32,1341.80,621.77
8320,-3.8730,-0.9547,-1.5316,-538.82,1013.67,-1315.61
8330,-3.8732,-0.8684,-1.5427,1804.93,-33.14,-174.93
8340,-3.8732,-0.7197,-1.6217,851.81,-1454.83,-221.80
8350,-3.8730,-0.5686,-1.7198,-116.94,436.04,871.83
8360,-3.8730,-0.4641,-1.8035,-773.19,-126.16,-1659.67
8370,-3.8730,-0.4111,-1.8656,601.81,1170.96,-722.29
8380,-3.8730,-0.3787,-1.9093,-616.94,1217.90,-128.66
8390,-3.8729,-0.3318,-1.9493,-460.69,-375.79,-1160.03
8400,-3.8727,-0.2610,-2.0148,1539.31,-1500.67,-706.97
8410,-3.8722,-0.1812,-2.1033,-1398.19,-1875.55,1464.78
8420,-3.8717,-0.1067,-2.1655,820.56,-1203.49,-1426.03
8430,-3.8712,-0.0298,-2.1627,-1648.19,-1172.12,1886.35
8440,-3.8710,0.0560,-2.0728,195.56,-812.56,-957.40
8450,-3.8708,0.1227,-1.9030,-820.07,-1312.44,1292.79
8460,-3.8710,0.1271,-1.7238,-288.82,422.06,-1113.10
8470,-3.8711,0.0671,-1.6125,273.68,-640.38,-1815.92
8480,-3.8712,-0.0179,-1.5876,601.81,1593.87,996.83
8490,-3.8713,-0.0935,-1.6119,1711.18,796.81,231.26
8500,-3.8716,-0.1508,-1.6418,39.31,1687.32,-456.30
8510,-3.8717,-0.2059,-1.6678,711.18,1859.07,-1409.48
8520,-3.8718,-0.2721,-1.6909,1648.68,-1469.18,-1581.42
8530,-3.8718,-0.3280,-1.6940,1179.93,-422.42,277.89
8540,-3.8719,-0.3453,-1.6672,-1976.32,-813.17,-706.48
8550,-3.8719,-0.3252,-1.6224,-195.07,-1391.36,1277.95
8560,-3.8721,-0.2830,-1.5801,-1616.94,343.08,1778.08
8570,-3.8722,-0.2311,-1.5514,-210.69,1765.01,-1878.11
8580,-3.8723,-0.1732,-1.5372,-1570.07,1437.01,-534.30
8590,-3.8723,-0.1061,-1.5214,1836.18,-750.37,1543.82
8600,-3.8724,-0.0339,-1.4851,-1570.07,1281.01,-893.62
8610,-3.8726,0.0319,-1.4309,-335.69,1921.75,-674.80
8620,-3.8727,0.0867,-1.3671,86.18,843.81,-830.93
8630,-3.8727,0.1334,-1.2966,-898.19,1015.75,403.56
8640,-3.8728,0.1774,-1.2240,1086.18,-1968.51,-799.44
8650,-3.8728,0.2256,-1.1589,-1288.82,-671.57,-955.57
8660,-3.8727,0.2783,-1.1084,883.06,-343.32,372.68
8670,-3.8727,0.3313,-1.0729,-366.94,-1874.51,-205.32
8680,-3.8726,0.4247,-0.9375,-991.94,16.42,1279.30
8690,-3.8729,0.4097,-0.8440,-1632.57,0.79,-783.08
8700,-3.8733,0.3961,-0.7313,445.56,-30.46,-1548.58
8710,-3.8737,0.3931,-0.6210,-1288.82,-1608.64,1889.16
8720,-3.8740,0.3994,-0.5356,-1679.44,516.36,-688.72
8730,-3.8743,0.4060,-0.4760,-866.94,-561.77,-922.97
8740,-3.8744,0.4064,-0.4281,-23.19,-921.14,233.40
8750,-3.8746,0.4006,-0.3917,23.68,1203.92,-1641.48
8760,-3.8748,0.3810,-0.3628,-710.69,1860.11,1202.33
8770,-3.8749,0.3433,-0.3232,773.68,1563.23,124.27
8780,-3.8439,0.2932,-0.2604,-54.44,-1374.39,-1781.92
8790,-3.8441,0.2434,-0.1779,1539.31,-1327.58,-1484.92
8800,-3.8444,0.2052,-0.0934,-835.69,1234.80,1812.13
8810,-3.8446,0.1821,-0.0297,-1726.32,47.24,1734.19
8820,-3.8448,0.1718,0.0018,-679.44,203.43,-578.19
8830,-3.8450,0.1631,0.0043,1992.43,234.68,-109.38
8840,-3.8450,0.1510,-0.0170,883.06,547.18,-625.00
8850,-3.8448,0.1376,-0.0580,-663.82,1828.37,578.06
8860,-3.8448,0.1233,-0.1063,1617.43,578.37,-1203.25
8870,-3.8447,0.1079,-0.1456,-210.69,-1609.19,1359.13
8880,-3.8447,0.0881,-0.1660,1820.56,1359.56,1968.44
8890,-3.8448,0.0636,-0.1670,-710.69,-1249.88,-94.12
8900,-3.8448,0.0408,-0.1613,148.68,-1374.88,874.63
8910,-3.8450,0.0214,-0.1659,1226.81,-640.56,1921.51
8920,-3.8451,-0.0017,-0.1932,-1257.57,-1234.38,-1203.49
8930,-3.8452,-0.0377,-0.2487,-210.69,-718.81,-812.93
8940,-3.8453,-0.1002,-0.3214,-820.07,187.38,-922.36
8950,-3.8455,-0.1952,-0.3955,-820.07,-1125.24,-547.55
8960,-3.8455,-0.3068,-0.4658,-976.32,1390.20,1405.46
8970,-3.8456,-0.4137,-0.5259,742.43,390.01,-47.79
8980,-3.8456,-0.5099,-0.5743,-945.07,702.27,1608.34
8990,-3.8457,-0.6124,-0.6354,-1257.57,-1501.04,-657.41
9000,-3.8457,-0.7351,-0.7269,1617.43,-1313.72,-438.78
9010,-3.8456,-0.8572,-0.8232,1914.31,-1032.71,-548.34
9020,-3.8453,-0.9368,-0.9022,-1710.69,-1361.08,-532.90
9030,-3.8450,-0.9548,-0.9713,101.81,529.42,-1314.27
9040,-3.8446,-0.9342,-1.0404,1789.31,-314.39,-1033.20
9050,-3.8442,-0.9264,-1.1278,429.93,-1158.08,1826.05
9060,-3.8440,-0.9719,-1.2336,1429.93,-345.58,1278.99
9070,-3.8439,-1.0763,-1.3263,-398.19,-1892.58,1044.43
9080,-3.8439,-1.2273,-1.3857,-1757.57,-1752.14,544.25
9090,-3.8440,-1.4000,-1.4082,-1085.69,-1361.82,75.38
9100,-3.8442,-1.5601,-1.3912,804.93,-237.12,-1424.68
9110,-3.8444,-1.6681,-1.3450,320.56,1934.45,-330.87
9120,-3.8442,-1.6926,-1.3118,-1507.57,-143.92,809.81
9130,-3.8441,-1.6542,-1.3351,-648.19,106.02,513.06
9140,-3.8440,-1.6145,-1.4125,273.68,1121.77,1231.75
9150,-3.8439,-1.6112,-1.5159,1351.81,-784.42,-1315.31
9160,-3.8749,-1.6444,-1.6361,1773.68,1981.20,481.38
9170,-3.8748,-1.7056,-1.7836,1523.68,-1409.48,-706.36
9180,-3.8744,-1.7592,-1.9553,1695.56,-284.61,-1941.04
9190,-3.8739,-1.7632,-2.1135,-1163.82,1730.90,511.78
9200,-3.8735,-1.7292,-2.2258,-1679.44,1480.90,1370.85
9210,-3.8734,-1.6945,-2.3011,-1335.69,-894.04,-332.52
9220,-3.8734,-1.6709,-2.3625,-882.57,1465.39,-1067.02
9230,-3.8735,-1.6504,-2.4216,-1866.94,1606.08,-192.14
9240,-3.8735,-1.6293,-2.4958,758.06,-1956.36,-989.14
9250,-3.8734,-1.5994,-2.6250,-538.82,543.64,1729.49
9260,-3.8733,-1.5551,-2.8405,-710.69,12.45,-442.63
9270,-3.8729,-1.5009,-3.1249,961.18,434.45,-880.55
9280,-3.8722,-1.4379,-3.4204,-101.32,28.26,743.90
9290,-3.8713,-1.3701,-3.6726,-38.82,-1799.74,-1037.96
9300,-3.8704,-1.2976,-3.8676,633.06,1919.19,1008.42
9310,-3.8698,-1.2146,-3.9929,1914.31,966.19,1851.81
9320,-3.8695,-1.0916,-4.0000,539.31,919.49,-1242.19
9330,-3.8695,-0.8999,-4.0000,289.31,13.49,-1773.44
9340,-3.8698,-0.6572,-4.0000,820.56,13.85,1789.06
9350,-3.8702,-0.4099,-3.9956,-116.94,14.28,-1695.31
9360,-3.8708,-0.2059,-3.9591,-460.69,577.27,-1664.06
9370,-3.8715,-0.0570,-3.8286,1648.68,1249.57,1476.62
9380,-3.8721,0.0459,-3.6277,711.18,1953.00,-413.76
9390,-3.8724,0.1050,-3.4288,1883.06,-343.69,-1475.89
9400,-3.8727,0.1221,-3.2656,1445.56,1109.56,-1834.84
9410,-3.8728,0.1022,-3.1306,-366.94,-1999.82,384.22
9420,-3.8730,0.0576,-2.9880,1086.18,-718.57,1618.84
9430,-3.8734,0.0127,-2.8186,-616.94,1531.31,-771.48
9440,-3.8738,-0.0189,-2.6382,1633.06,-781.25,1228.82
9450,-3.8743,-0.0394,-2.4775,1586.18,-1671.94,-661.44
9460,-3.8745,-0.0494,-2.3464,-1038.82,-1109.50,1307.62
9470,-3.8746,-0.0455,-2.2242,1679.93,-328.25,589.11
9480,-3.8746,-0.0203,-2.0992,-1820.07,-687.62,42.48
9490,-3.8746,0.0270,-1.9821,1414.31,-687.56,995.85
9500,-3.8746,0.0902,-1.8716,-538.82,-1703.12,-1472.66
9510,-3.8745,0.1648,-1.7504,-445.07,437.62,11.96
9520,-3.8746,0.2443,-1.6002,1101.81,-46.57,-534.73
9530,-3.8746,0.3193,-1.4231,-726.32,-827.70,278.08
9540,-3.8749,0.3837,-1.2439,883.06,1844.36,-49.68
9550,-3.8749,0.4392,-1.0905,1117.43,781.98,841.31
9560,-3.8749,0.4858,-0.9797,226.81,422.73,1154.11
9570,-3.8746,0.5593,-0.7844,1867.43,-702.09,-345.46
9580,-3.8746,0.5560,-0.7108,-398.19,-405.21,1935.91
9590,-3.8749,0.5339,-0.6346,-820.07,1016.66,-298.28
9600,-3.8439,0.4879,-0.5663,351.81,-1233.34,-1516.91
9610,-3.8441,0.4208,-0.5100,-1538.82,-483.46,545.72
9620,-3.8445,0.3512,-0.4656,1867.43,-1280.46,-469.79
9630,-3.8447,0.2985,-0.4291,961.18,406.92,-110.29
9640,-3.8448,0.2725,-0.3995,-1788.82,1078.67,1967.90
9650,-3.8450,0.2656,-0.3801,-1116.94,859.86,-1485.17
9660,-3.8450,0.2611,-0.3778,-1991.94,-655.76,1639.83
9670,-3.8450,0.2574,-0.3983,1429.93,-358.89,-1907.04
9680,-3.8450,0.2594,-0.4471,961.18,1016.11,-1297.67
9690,-3.8448,0.2599,-0.5234,1211.18,-1233.89,483.46
9700,-3.8447,0.2476,-0.5925,1273.68,1000.49,186.46
9710,-3.8447,0.2195,-0.6180,-304.44,156.68,-126.16
9720,-3.8446,0.1854,-0.6063,101.81,891.05,1608.15
9730,-3.8446,0.1638,-0.5874,-257.57,-1609.07,-1766.85
9740,-3.8446,0.1599,-0.5807,976.81,812.81,-688.66
