timestamp_ms,ax,ay,az,gx,gy,gz
0,-3.8699,0.3208,-2.9534,1804.93,-1921.20,-1302.61
10,-3.8698,0.2954,-3.0062,1070.56,1969.36,-1302.67
20,-3.8696,0.2767,-3.0852,1820.56,-796.33,1665.95
30,-3.8696,0.2554,-3.1504,-570.07,1094.24,1275.21
40,-3.8699,0.2252,-3.1687,695.56,750.49,868.84
50,-3.8705,0.1759,-3.1384,836.18,-1593.32,1759.40
60,-3.8713,0.0846,-3.0754,-1476.32,-1718.44,-1709.29
70,-3.8722,-0.0614,-2.9889,-1163.82,-1656.13,478.33
80,-3.8730,-0.2327,-2.8792,148.68,1437.38,556.64
90,-3.8739,-0.3762,-2.7614,-1773.19,-516.11,-396.30
100,-3.8745,-0.4615,-2.6698,-148.19,-1438.29,-1880.43
110,-3.8750,-0.5103,-2.6069,929.93,-1719.67,869.75
120,-3.8441,-0.5643,-2.5347,-1304.44,-1672.91,385.50
130,-3.8445,-0.6393,-2.4143,-226.32,-423.03,-1333.13
140,-3.8447,-0.7345,-2.2361,-1820.07,-1016.91,1448.36
150,-3.8450,-0.8353,-2.0443,1992.43,1795.41,354.98
160,-3.8452,-0.9192,-1.8940,1086.18,-1657.90,652.22
170,-3.8453,-0.9713,-1.7897,-1648.19,1576.29,246.28
180,-3.8455,-0.9672,-1.7002,-320.07,-1064.45,-1737.92
190,-3.8455,-0.8953,-1.6219,211.18,-1611.27,387.27
200,-3.8456,-0.7780,-1.5616,1414.31,404.48,1356.20
210,-3.8457,-0.6438,-1.5073,429.93,123.47,1825.07
220,-3.8458,-0.5165,-1.4613,1601.81,-923.16,-862.37
230,-3.8458,-0.4237,-1.4357,1898.68,967.71,887.76
240,-3.8459,-0.3854,-1.4126,1773.68,249.15,1637.82
250,-3.8461,-0.4025,-1.3655,-1320.07,-797.67,1075.32
260,-3.8463,-0.4518,-1.2888,492.43,1233.58,-237.06
270,-3.8464,-0.4982,-1.2001,-1820.07,-954.04,1497.44
280,-3.8467,-0.5186,-1.1263,242.43,-1594.73,-1189.88
290,-3.8468,-0.4985,-1.0776,1633.06,-157.29,825.87
300,-3.8470,-0.4364,-1.0446,195.56,-1922.85,-1236.51
310,-3.8473,-0.3440,-1.0225,148.68,-1688.35,-939.58
320,-3.8475,-0.2439,-1.0081,-23.19,1139.89,1138.61
330,-3.8479,-0.1606,-0.9846,789.31,-1016.11,1997.99
340,-3.8481,-0.0945,-0.9580,-554.44,1984.01,169.92
350,-3.8484,-0.0278,-0.9562,-85.69,1390.38,1029.36
360,-3.8485,0.0447,-0.9935,445.56,1624.94,794.98
370,-3.8485,0.1161,-1.0730,1726.81,828.19,216.80
380,-3.8485,0.1885,-1.1841,-1132.57,-1343.57,-830.26
390,-3.8483,0.2737,-1.3065,133.06,437.87,1075.81
400,-3.8480,0.3762,-1.4093,-960.69,766.11,872.44
410,-3.8478,0.4928,-1.4517,164.31,-389.89,684.69
420,-3.8477,0.6195,-1.4456,-913.82,-1811.58,-502.87
430,-3.8475,0.7500,-1.4528,-695.07,-1030.09,-1159.12
440,-3.8474,0.9041,-1.4954,8.06,-1951.66,731.51
450,-3.8472,1.1276,-1.5475,-273.19,595.46,-237.30
460,-3.8463,1.4446,-1.5847,336.18,1924.07,1090.70
470,-3.8453,1.8076,-1.5966,914.31,1159.06,1012.51
480,-3.8445,2.0966,-1.5624,-616.94,-355.90,824.95
490,-3.8456,1.8667,-1.0818,-1241.94,-433.59,591.43
500,-3.8461,1.7953,-1.1440,-1054.44,1534.85,1747.86
510,-3.8461,1.8744,-1.3917,1804.93,1565.98,-1064.76
520,-3.8455,2.0669,-1.7667,-70.07,1862.98,1747.25
530,-3.8445,2.2592,-2.1241,570.56,1863.40,855.90
540,-3.8748,2.3563,-2.3429,1179.93,113.77,1839.60
550,-3.8739,2.3193,-2.3953,1617.43,113.95,-723.33
560,-3.8732,2.2026,-2.3326,883.06,1410.77,1635.93
570,-3.8727,2.1277,-2.2457,1945.56,1426.15,1464.17
580,-3.8721,2.1984,-2.2140,351.81,551.03,1683.11
590,-3.8711,2.4438,-2.2644,1398.68,613.65,-160.58
600,-3.8696,2.8054,-2.3696,820.56,-1838.99,-801.33
610,-3.8680,3.1489,-2.4352,-898.19,692.93,-82.76
620,-3.8667,3.3380,-2.3553,-929.44,302.98,-848.51
630,-3.8661,3.3243,-2.1504,-726.32,-1477.91,1901.61
640,-3.8663,3.1853,-1.9851,1523.68,756.47,1995.79
650,-3.8672,3.0326,-1.9608,-273.19,1912.41,1480.47
660,-3.8684,2.9066,-2.0408,179.93,1021.55,699.28
670,-3.8698,2.8066,-2.1912,54.93,-1213.07,-613.40
680,-3.8706,2.7114,-2.3887,-741.94,-463.32,433.17
690,-3.8711,2.5892,-2.5885,-929.44,-1744.75,542.18
700,-3.8712,2.4298,-2.7665,-570.07,676.88,104.31
710,-3.8712,2.2709,-2.9365,-976.32,1895.32,-302.31
720,-3.8708,2.1189,-3.1069,-1320.07,129.39,-271.36
730,-3.8704,1.9109,-3.2321,-773.19,-1683.41,-131.10
740,-3.8699,1.6603,-3.2833,601.81,-1699.40,-1990.72
750,-3.8695,1.4882,-3.2742,523.68,-262.39,-1834.59
760,-3.8690,1.4501,-3.2247,-1507.57,909.12,-897.03
770,-3.8682,1.4934,-3.1882,1617.43,-762.82,-568.85
780,-3.8669,1.5685,-3.2422,-835.69,-90.88,-178.16
790,-3.8655,1.5670,-3.4033,773.68,1003.05,978.03
800,-3.8644,1.3016,-3.5479,586.18,378.05,852.72
810,-3.8640,0.7838,-3.5421,-1382.57,1877.50,-553.83
820,-3.8641,0.2429,-3.3947,336.18,-1389.10,-1975.71
830,-3.8645,-0.1437,-3.1901,-898.19,1484.80,-1881.65
840,-3.8647,-0.3226,-2.9994,1617.43,-312.81,353.09
850,-3.8651,-0.3177,-2.8525,-1288.82,93.08,-1490.23
860,-3.8656,-0.1580,-2.7529,-663.82,-1110.05,-208.74
870,-3.8661,0.1195,-2.6957,-210.69,-359.74,385.19
880,-3.8667,0.4042,-2.6809,-695.07,-1046.69,-1708.44
890,-3.8672,0.5686,-2.7019,-257.57,844.48,-1005.25
900,-3.8677,0.5533,-2.7301,789.31,-1842.65,213.44
910,-3.8685,0.3593,-2.7257,-1163.82,-1452.09,1166.50
920,-3.8696,0.0417,-2.6436,1992.43,-889.95,-896.00
930,-3.8707,-0.2980,-2.4789,1351.81,1625.06,-973.94
940,-3.8717,-0.5730,-2.2687,1867.43,-1281.86,1682.62
950,-3.8726,-0.7411,-2.0479,-1335.69,1623.84,-1848.21
960,-3.8732,-0.8029,-1.8525,1148.68,1889.16,1386.60
970,-3.8737,-0.7694,-1.7240,1242.43,-1110.96,1465.09
980,-3.8740,-0.6371,-1.6956,1523.68,-657.78,-1847.17
990,-3.8740,-0.4590,-1.7622,-1538.82,-1016.91,1168.52
1000,-3.8738,-0.3262,-1.8762,1258.06,-1547.79,-909.73
1010,-3.8738,-0.3088,-1.7766,273.68,-1875.55,-785.03
1020,-3.8745,-0.3512,-1.5701,476.81,608.76,-1269.10
1030,-3.8441,-0.3928,-1.3588,-945.07,-953.86,-1503.11
1040,-3.8448,-0.4087,-1.1777,1726.81,-1907.04,1809.81
1050,-3.8455,-0.3794,-1.0347,-304.44,1264.77,-674.19
1060,-3.8458,-0.3010,-0.9193,-554.44,-422.67,-1345.83
1070,-3.8461,-0.1843,-0.8170,1476.81,-1656.86,1795.04
1080,-3.8463,-0.0547,-0.7291,414.31,-562.87,-1267.27
1090,-3.8466,0.0524,-0.6772,1008.06,-1312.62,-142.09
1100,-3.8467,0.1084,-0.6661,-1288.82,1312.56,-126.34
1110,-3.8466,0.1382,-0.6449,1883.06,-1265.44,-1095.09
1120,-3.8463,0.2078,-0.5609,1695.56,1453.37,248.72
1130,-3.8464,0.3484,-0.4408,-1398.19,203.49,-938.60
1140,-3.8468,0.5150,-0.3240,601.81,-421.20,-1063.42
1150,-3.8474,0.6495,-0.1912,1929.93,-1467.77,-1969.42
1160,-3.8483,0.7523,0.0006,-851.32,-467.53,-500.43
1170,-3.8491,0.8341,0.2495,304.93,79.59,1625.00
1180,-3.8500,0.8351,0.5210,-1226.32,-60.91,-1374.57
1190,-3.8505,0.7203,0.7214,-1101.32,-1310.91,-967.77
1200,-3.8505,0.5421,0.7219,211.18,345.15,845.15
1210,-3.8502,0.3538,0.5128,1398.68,407.29,1829.53
1220,-3.8497,0.1857,0.2104,1289.31,1641.30,-45.90
1230,-3.8490,0.0616,-0.0677,-226.32,-1062.19,-484.01
1240,-3.8480,0.0037,-0.2819,-101.32,-671.81,296.69
1250,-3.8470,0.0184,-0.4338,476.81,-78.12,-1438.11
1260,-3.8459,0.0898,-0.5409,-1632.57,468.75,-1313.35
1270,-3.8448,0.1859,-0.6520,-491.94,-1234.25,452.03
1280,-3.8440,0.2782,-0.8016,-195.07,547.18,-1610.66
1290,-3.8744,0.3608,-0.9192,-382.57,1391.11,264.04
1300,-3.8738,0.4559,-0.8813,-1804.44,-1655.58,498.17
1310,-3.8734,0.5959,-0.6831,-1632.57,-811.65,1732.60
1320,-3.8733,0.7900,-0.4672,289.31,563.66,-63.84
1330,-3.8732,1.0508,-0.3700,1133.06,204.65,-625.92
1340,-3.8708,2.5336,-0.3804,-1054.44,-730.04,-1547.97
1350,-3.8708,2.6714,-0.1281,304.93,-682.56,-938.29
1360,-3.8711,2.6876,0.0953,1945.56,-385.44,-1812.81
1370,-3.8715,2.6212,0.2196,23.68,208.37,-452.94
1380,-3.8716,2.5342,0.1954,-476.32,114.44,-62.07
1390,-3.8712,2.4985,-0.0029,383.06,1020.57,-1265.26
1400,-3.8702,2.5474,-0.3269,-179.44,-370.18,-1734.44
1410,-3.8688,2.6353,-0.6476,-1929.44,-1838.81,-1422.55
1420,-3.8674,2.6688,-0.8080,1320.56,1114.50,-313.78
1430,-3.8667,2.5787,-0.7617,1617.43,583.31,-1454.71
1440,-3.8668,2.3801,-0.6077,-1913.82,-1495.00,-485.90
1450,-3.8673,2.1455,-0.4792,664.31,-1776.61,92.53
1460,-3.8680,1.9238,-0.4565,-1366.94,-1339.60,-1938.48
1470,-3.8685,1.7045,-0.5505,-1741.94,1566.22,-719.67
1480,-3.8687,1.4735,-0.7234,-1820.07,1534.55,-516.72
1490,-3.8684,1.2561,-0.9200,617.43,-590.88,-1610.84
1500,-3.8679,1.0682,-1.0909,789.31,-1763.18,-1751.83
1510,-3.8673,0.9000,-1.2147,742.43,361.45,-299.01
1520,-3.8666,0.7511,-1.2954,-788.82,517.33,-1549.26
1530,-3.8660,0.6196,-1.3295,148.68,-1811.04,-955.69
1540,-3.8655,0.4839,-1.3165,-679.44,1829.28,1653.63
1550,-3.8652,0.3285,-1.2832,1945.56,-514.71,388.00
1560,-3.8652,0.1787,-1.2521,-1945.07,-249.39,-1580.69
1570,-3.8651,0.0750,-1.2400,-1116.94,-265.32,1263.12
1580,-3.8650,0.0170,-1.2736,1601.81,1281.37,-908.69
1590,-3.8647,-0.0197,-1.3468,-1820.07,984.38,1263.12
1600,-3.8646,-0.0544,-1.4044,1492.43,-375.06,262.94
1610,-3.8647,-0.1150,-1.4028,1039.31,249.88,1200.38
1620,-3.8651,-0.2362,-1.3375,1289.31,452.88,1200.38
1630,-3.8657,-0.4258,-1.2247,1773.68,812.01,903.63
1640,-3.8665,-0.6426,-1.0952,1508.06,-750.85,1935.06
1650,-3.8671,-0.8265,-0.9861,1758.06,-173.16,1638.43
1660,-3.8676,-0.9460,-0.9242,-1788.82,1795.23,1154.30
1670,-3.8680,-1.0122,-0.9163,-1085.69,1716.86,-486.21
1680,-3.8683,-1.0537,-0.9514,-1554.44,-1267.64,498.17
1690,-3.8685,-1.0808,-0.9938,1133.06,-1767.70,216.86
1700,-3.8688,-1.1072,-0.9895,1664.31,810.36,857.42
1710,-3.8691,-1.1531,-0.9197,-1710.69,1357.18,-1220.70
1720,-3.8696,-1.2126,-0.8132,414.31,-1705.38,-783.08
1730,-3.8702,-1.2714,-0.7001,789.31,-80.51,-1814.15
1740,-3.8710,-1.3215,-0.5918,1273.68,-1596.25,1670.47
1750,-3.8718,-1.3645,-0.4792,-1148.19,263.00,-563.66
1760,-3.8726,-1.4005,-0.3562,1351.81,-1330.81,1749.02
1770,-3.8733,-1.4156,-0.2432,742.43,-1580.87,-844.48
1780,-3.8738,-1.3958,-0.1536,-1195.07,887.82,608.89
1790,-3.8743,-1.3372,-0.0817,1351.81,356.63,-1750.31
1800,-3.8745,-1.2484,-0.0302,851.81,1559.88,187.32
1810,-3.8748,-1.1451,-0.0037,211.18,153.81,1562.44
1820,-3.8749,-1.0437,0.0066,1429.93,-455.38,1031.19
1830,-3.8750,-0.9553,0.0077,-1585.69,857.30,-1500.00
1840,-3.8750,-0.8793,-0.0005,1726.81,998.11,1734.38
1850,-3.8750,-0.8047,-0.0297,-538.82,-48.65,1812.44
1860,-3.8750,-0.7235,-0.0717,1008.06,217.16,-984.44
1870,-3.8749,-0.6459,-0.0796,-601.32,-1157.71,359.19
1880,-3.8750,-0.5903,-0.0321,1336.18,1826.84,1921.69
1890,-3.8440,-0.5577,0.0457,445.56,-94.91,781.13
1900,-3.8453,-0.5184,0.2095,726.81,-688.54,1047.18
1910,-3.8456,-0.5116,0.1943,1648.68,-1172.91,234.74
1920,-3.8457,-0.5028,0.1322,-1476.32,889.59,687.87
1930,-3.8457,-0.4863,0.0298,-351.32,936.46,-1749.76
1940,-3.8456,-0.4489,-0.0874,1758.06,-172.85,-593.75
1950,-3.8453,-0.3802,-0.1898,-1445.07,827.21,1906.07
1960,-3.8452,-0.2792,-0.2688,-663.82,-282.04,-641.05
1970,-3.8451,-0.1633,-0.3318,273.68,1608.83,-172.42
1980,-3.8448,-0.0668,-0.3922,-898.19,1546.51,718.08
1990,-3.8447,-0.0011,-0.4436,-538.82,1812.32,1233.58
2000,-3.8447,0.0511,-0.4542,-132.57,-765.69,-407.17
2010,-3.8447,0.1079,-0.4180,-1445.07,1859.44,-1141.54
2020,-3.8448,0.1831,-0.3641,1820.56,-1499.82,-172.73
2030,-3.8448,0.3066,-0.3341,-554.44,1390.93,202.39
2040,-3.8450,0.4926,-0.3512,-741.94,1234.92,1249.33
2050,-3.8450,0.6929,-0.4033,-945.07,-952.21,1968.02
2060,-3.8448,0.8422,-0.4639,695.56,376.34,-438.29
2070,-3.8446,0.9166,-0.5000,-195.07,626.59,1717.83
2080,-3.8445,0.9176,-0.4921,1336.18,1.77,967.77
2090,-3.8445,0.8589,-0.4556,1461.18,1017.40,827.15
2100,-3.8446,0.7842,-0.4360,1945.56,1689.15,1608.46
2110,-3.8446,0.7719,-0.4668,383.06,189.03,733.52
2120,-3.8444,0.8982,-0.5458,-1195.07,251.46,1436.58
2130,-3.8439,1.1760,-0.6699,-1023.19,-1857.67,-641.72
2140,-3.8744,1.5050,-0.7993,-1460.69,-1747.74,-1876.34
2150,-3.8738,1.7362,-0.8601,648.68,1690.43,-360.96
2160,-3.8734,1.7966,-0.8212,-1757.57,1909.61,1201.42
2170,-3.8737,1.6985,-0.7214,1976.81,-1105.90,998.35
2180,-3.8743,1.5321,-0.6611,1414.31,-340.45,-1610.84
2190,-3.8748,1.4109,-0.7345,117.43,-622.01,1420.53
2200,-3.8750,1.3855,-0.9446,601.81,1987.12,1279.79
2210,-3.8730,1.7953,-1.5881,-1710.69,1440.73,-424.93
2220,-3.8721,1.9243,-1.6040,1804.93,722.23,1184.39
2230,-3.8711,2.0839,-1.6183,-1679.44,-1308.78,-1800.05
2240,-3.8699,2.3018,-1.6227,-1257.57,863.40,653.08
2250,-3.8687,2.5726,-1.6016,-1366.94,301.33,1731.20
2260,-3.8674,2.8527,-1.5834,1304.93,-995.00,-565.67
2270,-3.8662,3.0822,-1.6113,1148.68,1333.68,-596.86
2280,-3.8652,3.1738,-1.6688,-1476.32,1755.98,-690.67
2290,-3.8647,3.0614,-1.7073,-1741.94,-1603.21,762.33
2300,-3.8651,2.7770,-1.6986,-132.57,1474.67,371.64
2310,-3.8662,2.4354,-1.6586,-538.82,-1416.50,-1112.73
2320,-3.8674,2.1606,-1.6230,-257.57,-292.18,1793.58
2330,-3.8685,2.0188,-1.6261,570.56,254.21,-909.42
2340,-3.8690,2.0168,-1.6852,-1585.69,-136.72,1590.52
2350,-3.8690,2.1038,-1.7628,-1835.69,300.78,-1222.05
2360,-3.8687,2.1841,-1.8420,1289.31,-1636.54,-112.85
2370,-3.8680,2.1914,-1.9553,-429.44,222.96,-1331.73
2380,-3.8674,2.1034,-2.0851,508.06,1723.02,-1519.47
2390,-3.8669,1.9497,-2.1567,1242.43,1113.46,-847.84
2400,-3.8665,1.8073,-2.1655,1570.56,-58.72,1136.35
2410,-3.8660,1.7339,-2.1943,-663.82,-1184.02,323.85
2420,-3.8655,1.7264,-2.3086,1945.56,-871.64,-535.58
2430,-3.8647,1.7123,-2.5066,992.43,503.36,-332.64
2440,-3.8639,1.6008,-2.6862,-820.07,-840.45,-1926.82
2450,-3.8633,1.3707,-2.7145,914.31,174.99,-1645.87
2460,-3.8630,1.0906,-2.5812,-538.82,549.50,119.69
2470,-3.8634,0.8507,-2.3998,-398.19,1611.45,-864.44
2480,-3.8639,0.6954,-2.2764,898.68,829.77,-1785.95
2490,-3.8657,0.7418,-2.1979,1461.18,-1529.97,-1176.21
2500,-3.8663,0.7925,-2.2521,-1038.82,-1326.72,-660.58
2510,-3.8667,0.7809,-2.3674,1445.56,-264.10,495.54
2520,-3.8671,0.6881,-2.4757,-38.82,970.21,-1035.89
2530,-3.8673,0.5150,-2.5111,86.18,-889.28,1823.24
2540,-3.8678,0.2987,-2.4492,1929.93,-1420.90,-1848.69
2550,-3.8685,0.0935,-2.3192,-1757.57,-1499.45,917.05
2560,-3.8695,-0.0746,-2.1857,-23.19,-859.25,-1801.45
2570,-3.8704,-0.2145,-2.0785,-1538.82,249.82,276.98
2580,-3.8712,-0.3291,-1.9641,554.93,1968.32,1339.66
2590,-3.8719,-0.3850,-1.8295,1883.06,608.70,511.78
2600,-3.8727,-0.3546,-1.7261,-1273.19,1842.96,-1128.60
2610,-3.8730,-0.2717,-1.6780,-1382.57,-922.61,574.71
2620,-3.8733,-0.2053,-1.6565,1226.81,1233.83,-1597.05
2630,-3.8734,-0.2017,-1.6268,1726.81,-16.05,-972.05
2640,-3.8735,-0.2578,-1.5643,-1804.44,-219.18,824.89
2650,-3.8739,-0.3379,-1.4650,-991.94,-219.30,-659.36
2660,-3.8741,-0.4198,-1.3412,758.06,499.33,169.01
2670,-3.8746,-0.5045,-1.2030,-1726.32,342.90,-1362.00
2680,-3.8439,-0.5868,-1.0632,-570.07,-1969.79,-439.88
2690,-3.8442,-0.6440,-0.9435,898.68,-79.28,1560.36
2700,-3.8446,-0.6467,-0.8644,1570.56,-751.28,1888.73
2710,-3.8448,-0.5878,-0.8290,1226.81,1373.72,1342.04
2720,-3.8450,-0.5016,-0.8318,773.68,1905.09,1701.48
2730,-3.8450,-0.4214,-0.8713,-195.07,1545.84,-79.77
2740,-3.8447,-0.3523,-0.9031,-1929.44,483.52,1576.42
2750,-3.8446,-0.3097,-0.8805,-1085.69,421.14,232.60
2760,-3.8448,-0.3076,-0.8041,367.43,-688.11,1201.35
2770,-3.8464,-0.2319,-0.3328,-304.44,-1141.24,1842.96
2780,-3.8466,-0.1847,-0.3672,-1679.44,1421.39,-1125.67
2790,-3.8464,-0.1399,-0.4594,367.43,1015.26,-1656.98
2800,-3.8463,-0.1182,-0.5430,-1898.19,1218.44,-188.42
2810,-3.8462,-0.1440,-0.5656,883.06,-1484.62,1655.15
2820,-3.8463,-0.2046,-0.5364,1570.56,-375.31,-298.03
2830,-3.8463,-0.2509,-0.5095,1820.56,-641.05,827.03
2840,-3.8464,-0.2279,-0.5251,-101.32,-1203.67,1467.71
2850,-3.8466,-0.1327,-0.5797,-1163.82,796.39,-1907.29
2860,-3.8466,-0.0226,-0.6466,-976.32,1812.19,561.34
2870,-3.8467,0.0577,-0.6954,1117.43,1249.94,-1157.53
2880,-3.8468,0.1239,-0.7202,-601.32,-1015.56,-1360.78
2890,-3.8468,0.2457,-0.7584,-132.57,-187.32,451.66
2900,-3.8467,0.4574,-0.8289,-538.82,-1077.70,826.60
2910,-3.8464,0.7073,-0.8965,-1445.07,1907.10,1576.48
2920,-3.8462,0.9141,-0.9325,-1460.69,1251.34,1779.48
2930,-3.8461,1.0350,-0.9463,1008.06,642.40,1623.17
2940,-3.8461,1.0824,-0.9652,492.43,-1122.99,451.23
2950,-3.8462,1.0986,-1.0081,-1445.07,455.20,-376.89
2960,-3.8459,1.1281,-1.0659,633.06,-1029.11,-986.39
2970,-3.8455,1.2374,-1.1279,398.68,-435.30,-752.14
2980,-3.8448,1.4982,-1.1864,-1601.32,-372.62,1138.37
2990,-3.8445,1.8660,-1.2283,-226.32,143.49,-1877.32
3000,-3.8444,2.1465,-1.2373,-1148.19,-1215.15,-1111.82
3010,-3.8445,2.1719,-1.2090,-1241.94,1629.15,-1158.69
3020,-3.8447,1.9862,-1.1615,-1991.94,1254.21,1560.12
3030,-3.8450,1.7985,-1.1328,-1757.57,-668.03,-596.07
3040,-3.8745,2.3331,-1.4269,1445.56,722.66,-1190.00
3050,-3.8734,2.5896,-1.5098,-1351.32,1363.89,-268.43
3060,-3.8724,2.6610,-1.4354,-523.19,-1245.00,950.13
3070,-3.8722,2.5587,-1.2534,617.43,270.81,-393.43
3080,-3.8723,2.4369,-1.1155,-476.32,-432.56,-377.50
3090,-3.8724,2.4333,-1.1121,-70.07,1223.45,-1330.32
3100,-3.8723,2.5586,-1.1946,-523.19,1660.95,-986.57
3110,-3.8718,2.7627,-1.2615,-491.94,-901.31,1169.49
3120,-3.8712,3.0029,-1.2633,1633.06,-1463.38,153.75
3130,-3.8706,3.2422,-1.2299,383.06,-1697.27,60.00
3140,-3.8701,3.4666,-1.2145,-991.94,-1415.59,-1330.57
3150,-3.8696,3.6649,-1.2664,-273.19,553.59,-1486.76
3160,-3.8693,3.7834,-1.4087,1117.43,1913.39,1372.50
3170,-3.8691,3.7637,-1.6060,289.31,-305.11,169.07
3180,-3.8693,3.5929,-1.8301,1758.06,-1555.18,-1284.42
3190,-3.8693,3.2922,-2.0868,-101.32,1756.96,-612.98
3200,-3.8691,2.9019,-2.3391,1414.31,897.03,-1910.34
3210,-3.8690,2.5059,-2.5305,-554.44,599.37,104.80
3220,-3.8690,2.1864,-2.6493,758.06,98.63,323.18
3230,-3.8691,1.9733,-2.7061,-132.57,894.84,-395.81
3240,-3.8691,1.8545,-2.7196,586.18,1628.85,-958.44
3250,-3.8690,1.7875,-2.7249,1383.06,-105.77,88.38
3260,-3.8689,1.7130,-2.7529,804.93,-777.77,1713.38
3270,-3.8685,1.6044,-2.7874,-726.32,-371.70,-1505.43
3280,-3.8679,1.5114,-2.7799,1367.43,-778.14,-52.37
3290,-3.8671,1.4841,-2.7224,1461.18,174.80,-942.93
3300,-3.8663,1.5089,-2.6592,1976.81,-465.88,-99.12
3310,-3.8657,1.5503,-2.6261,1148.68,-372.07,182.25
3320,-3.8656,1.5693,-2.6208,-1554.44,-137.63,854.19
3330,-3.8669,0.8340,-2.4519,820.56,158.57,-1051.82
3340,-3.8672,0.4950,-2.4429,-1241.94,-1842.16,-879.82
3350,-3.8671,0.2144,-2.4988,-632.57,-686.58,-801.70
3360,-3.8668,0.0167,-2.5610,-554.44,156.62,-1301.76
3370,-3.8667,-0.0846,-2.5739,-1851.32,187.50,651.25
3380,-3.8669,-0.1084,-2.4863,1179.93,-1437.68,-1130.07
3390,-3.8673,-0.1003,-2.2921,-1866.94,1765.38,1432.62
3400,-3.8679,-0.1150,-2.0706,-835.69,-1375.24,-1770.14
3410,-3.8694,-0.3586,-1.8500,-320.07,1405.58,-1613.04
3420,-3.8698,-0.2924,-1.8583,-1898.19,-781.98,-1441.16
3430,-3.8700,-0.2098,-1.8882,-1413.82,-1844.36,-1566.16
3440,-3.8701,-0.1860,-1.9025,1148.68,-1672.30,324.40
3450,-3.8705,-0.2279,-1.8588,195.56,499.63,-1363.10
3460,-3.8710,-0.3258,-1.7631,-1163.82,-1906.74,-1613.04
3470,-3.8716,-0.4508,-1.6451,-1695.07,-1656.92,293.40
3480,-3.8724,-0.5588,-1.5167,-1695.07,1436.58,-643.86
3490,-3.8732,-0.6228,-1.3691,476.81,1873.90,-1471.74
3500,-3.8738,-0.6298,-1.2169,289.31,764.40,1044.19
3510,-3.8743,-0.5663,-1.1079,-601.32,248.72,1466.37
3520,-3.8745,-0.4526,-1.0626,-476.32,-1798.03,794.68
3530,-3.8746,-0.3530,-1.0607,-1929.44,-0.92,-783.39
3540,-3.8745,-0.3077,-1.0680,-1179.44,249.27,841.67
3550,-3.8746,-0.3164,-1.0625,617.43,-688.11,-252.14
3560,-3.8748,-0.3589,-1.0540,-491.94,14.95,-1564.58
3570,-3.8750,-0.4012,-1.0426,-1929.44,1108.64,-314.58
3580,-3.8439,-0.4136,-0.9928,648.68,-1438.29,544.80
3590,-3.8442,-0.3862,-0.8873,-929.44,936.65,-1095.70
3600,-3.8446,-0.3324,-0.7540,-1429.44,-1563.29,1404.48
3610,-3.8451,-0.2715,-0.6295,1461.18,-500.67,310.97
3620,-3.8457,-0.2188,-0.5149,1258.06,-563.05,-1610.66
3630,-3.8461,-0.1919,-0.4030,8.06,-1891.05,1280.21
3640,-3.8463,-0.1859,-0.3145,-554.44,437.07,-516.42
3650,-3.8463,-0.1852,-0.2850,211.18,-234.74,983.70
3660,-3.8464,-0.1957,-0.3424,304.93,-469.12,-1234.99
3670,-3.8464,-0.2168,-0.4777,-1038.82,187.07,-0.67
3680,-3.8462,-0.2343,-0.6302,258.06,-1125.43,-219.73
3690,-3.8458,-0.2444,-0.7065,-1976.32,-656.74,-1891.91
3700,-3.8457,-0.2498,-0.6711,726.81,1577.64,-532.65
3710,-3.8457,-0.2489,-0.5842,39.31,-1891.11,467.41
3720,-3.8461,-0.2225,-0.5117,148.68,1233.89,-1251.16
3730,-3.8464,-0.1664,-0.4932,-476.32,-1484.86,-1297.91
3740,-3.8467,-0.0918,-0.5376,-1288.82,890.26,545.90
3750,-3.8469,0.0089,-0.6218,258.06,-797.06,1327.03
3760,-3.8470,0.1230,-0.7089,1148.68,406.25,-1844.97
3770,-3.8470,0.2172,-0.7837,-241.94,1265.81,-157.65
3780,-3.8469,0.2975,-0.8724,-195.07,-312.13,-173.46
3790,-3.8468,0.4088,-0.9728,-1913.82,328.67,-501.71
3800,-3.8467,0.5640,-1.0420,336.18,-514.83,-564.45
3810,-3.8466,0.7185,-1.0609,195.56,-1373.90,-205.20
3820,-3.8464,0.8365,-1.0532,-23.19,204.47,-814.58
3830,-3.8463,0.9442,-1.0619,-913.82,1189.09,-1314.58
3840,-3.8461,1.0665,-1.1140,867.43,79.96,-1689.58
3850,-3.8457,1.1965,-1.2242,523.68,1408.33,-408.45
3860,-3.8451,1.3384,-1.3639,1164.31,-700.81,1216.31
3870,-3.8445,1.4806,-1.4708,-679.44,1424.44,-1830.81
3880,-3.8439,1.5936,-1.5182,1523.68,-262.76,1012.70
3890,-3.8749,1.6687,-1.5151,-7.57,1674.93,1340.76
3900,-3.8750,1.7297,-1.4935,1601.81,-1934.27,1731.38
3910,-3.8440,1.7980,-1.5077,1414.31,831.48,1809.57
3920,-3.8441,1.8651,-1.5952,-1851.32,-980.90,-1424.87
3930,-3.8439,1.9288,-1.7302,-1257.57,-183.90,1293.70
3940,-3.8746,2.0066,-1.8641,-1101.32,-1465.03,-1269.04
3950,-3.8739,2.0977,-1.9661,851.81,1394.53,-972.41
3960,-3.8732,2.1764,-2.0247,508.06,347.84,-331.97
3970,-3.8726,2.2466,-2.0435,-1413.82,847.96,-222.72
3980,-3.8706,2.6519,-1.9524,1679.93,-1245.06,-1300.84
3990,-3.8699,2.8280,-1.8833,-554.44,-1901.12,74.28
4000,-3.8691,3.0743,-1.8240,1992.43,-1057.01,-769.35
4010,-3.8683,3.3333,-1.7762,1523.68,-1462.77,-1081.73
4020,-3.8676,3.5353,-1.7615,-1335.69,647.09,43.40
4030,-3.8674,3.6250,-1.8124,523.68,-1461.85,-1878.48
4040,-3.8678,3.5779,-1.9150,8.06,22.71,1262.08
4050,-3.8687,3.4066,-2.0326,1976.81,-1118.04,-1738.16
4060,-3.8695,3.1414,-2.1562,54.93,-165.22,1167.85
4070,-3.8701,2.8307,-2.3027,-1898.19,6.10,839.54
4080,-3.8704,2.5242,-2.4990,-1663.82,1255.49,1323.61
4090,-3.8702,2.2568,-2.7062,-898.19,129.88,-1879.88
4100,-3.8699,2.0494,-2.8333,883.06,1613.77,-1786.56
4110,-3.8695,1.8895,-2.8646,-1663.82,1347.72,1728.82
4120,-3.8694,1.7343,-2.8632,1867.43,1331.79,-1396.24
4130,-3.8694,1.5576,-2.9019,1992.43,1518.98,978.76
4140,-3.8695,1.3464,-2.9602,-616.94,565.49,-1708.80
4150,-3.8695,1.1082,-2.9260,351.81,1096.37,-1037.05
4160,-3.8693,0.9125,-2.7831,1851.81,1470.89,884.89
4170,-3.8688,0.8369,-2.6658,804.93,-232.60,1478.88
4180,-3.8678,0.8878,-2.6711,-866.94,-1217.16,729.13
4190,-3.8667,0.9879,-2.7521,1648.68,-1904.54,1416.63
4200,-3.8660,1.0273,-2.7965,-1538.82,-263.73,1775.82
4210,-3.8660,0.9200,-2.7301,-491.94,-1951.17,-1974.24
4220,-3.8667,0.6318,-2.5884,1773.68,-1451.35,-192.87
4230,-3.8676,0.2372,-2.4565,883.06,688.72,1119.93
4240,-3.8683,-0.1190,-2.3660,-1632.57,1562.93,-1957.95
4250,-3.8685,-0.3486,-2.2932,773.68,1171.63,120.36
4260,-3.8695,-0.3546,-1.9799,-601.32,-828.98,-926.03
4270,-3.8702,-0.3318,-1.8499,-1382.57,-1406.98,-35.16
4280,-3.8710,-0.3750,-1.7229,1539.31,-766.30,-1394.29
4290,-3.8716,-0.4808,-1.6046,8.06,-516.36,480.96
4300,-3.8721,-0.5961,-1.4928,-1538.82,-1375.98,12.45
4310,-3.8726,-0.6621,-1.4138,-288.82,936.28,-1127.93
4320,-3.8728,-0.6466,-1.3904,-741.94,-954.47,278.44
4330,-3.8730,-0.5537,-1.4082,1242.43,-1954.41,-205.87
4340,-3.8729,-0.4562,-1.4185,1133.06,-235.47,1231.57
4350,-3.8729,-0.4358,-1.3585,1617.43,-1547.79,-1971.56
4360,-3.8732,-0.4768,-1.2124,226.81,-1875.85,-627.69
4370,-3.8735,-0.5040,-1.0482,-1023.19,827.15,185.12
4380,-3.8741,-0.4857,-0.9429,-507.57,1842.71,-1236.45
4390,-3.8745,-0.4302,-0.9004,1836.18,-672.85,1498.11
4400,-3.8748,-0.3533,-0.8870,945.56,764.77,1529.48
4410,-3.8749,-0.2844,-0.8745,-1210.69,-1516.36,920.10
4420,-3.8750,-0.2542,-0.8455,-398.19,77.51,1685.79
4430,-3.8439,-0.2656,-0.7885,-523.19,-203.67,-1704.83
4440,-3.8440,-0.2948,-0.6987,-1991.94,-906.80,-1814.09
4450,-3.8441,-0.3158,-0.5966,-1726.32,-1422.49,-1938.90
4460,-3.8442,-0.3157,-0.5188,-413.82,-344.42,-1626.22
4470,-3.8444,-0.2954,-0.4694,-398.19,1608.70,-922.91
4480,-3.8444,-0.2686,-0.4376,-1804.44,-63.11,389.65
4490,-3.8445,-0.2380,-0.4177,1633.06,-0.55,1702.21
4500,-3.8446,-0.1953,-0.4070,1539.31,-1453.61,-1282.10
4510,-3.8446,-0.1263,-0.4159,-991.94,-78.55,1061.65
4520,-3.8446,-0.0245,-0.4312,-163.82,-1219.06,-1125.85
4530,-3.8444,0.0808,-0.4095,867.43,828.06,780.40
4540,-3.8442,0.1559,-0.3213,-1648.19,-421.75,-1438.35
4550,-3.8450,0.3287,0.1173,54.93,-1030.70,-1968.69
4560,-3.8451,0.3657,0.1477,-1913.82,-983.76,1797.06
4570,-3.8451,0.3972,0.1522,-1179.44,-1093.08,875.24
4580,-3.8451,0.4246,0.1440,-1148.19,-514.89,-781.01
4590,-3.8448,0.4475,0.1263,-1648.19,-1561.71,1656.49
4600,-3.8445,0.4750,0.0917,1289.31,172.73,797.12
4610,-3.8441,0.5184,0.0406,804.93,-264.71,-140.50
4620,-3.8748,0.5923,-0.0089,-1632.57,1204.10,375.06
4630,-3.8743,0.7029,-0.0378,-179.44,-1139.53,-1906.31
4640,-3.8737,0.8232,-0.0466,1976.81,-842.41,1671.75
4650,-3.8732,0.9065,-0.0394,1383.06,-1967.16,-609.50
4660,-3.8728,0.9224,-0.0209,39.31,-1045.10,-1718.87
4670,-3.8727,0.8768,0.0082,-1929.44,1329.90,109.31
4680,-3.8729,0.8029,0.0518,242.43,1048.58,-1687.50
4690,-3.8732,0.7400,0.0946,-1226.32,-1373.47,1671.94
4700,-3.8733,0.7578,0.1014,-1273.19,110.78,281.43
4710,-3.8732,0.9181,0.0518,1008.06,985.84,765.81
4720,-3.8727,1.1858,-0.0322,1523.68,-1373.23,-1765.56
4730,-3.8718,1.4509,-0.1058,-210.69,-122.74,843.63
4740,-3.8711,1.6127,-0.1302,1726.81,-1544.07,-203.37
4750,-3.8705,1.6411,-0.0850,-1570.07,-668.76,-1656.56
4760,-3.8704,1.5792,0.0125,-1929.44,1128.17,-172.06
4770,-3.8705,1.4908,0.0974,-1851.32,1596.80,1734.38
4780,-3.8708,1.4194,0.1215,-1163.82,471.62,-1562.32
4790,-3.8711,1.3916,0.0980,1695.56,-450.38,1187.68
4800,-3.8712,1.4423,0.0461,-1866.94,549.56,-1546.69
4810,-3.8710,1.5645,-0.0375,617.43,1909.06,0.06
4820,-3.8706,1.6730,-0.1322,258.06,-793.82,1390.50
4830,-3.8696,1.6364,-0.1473,1976.81,1128.23,-94.12
4840,-3.8695,1.6310,-0.1534,1461.18,1143.80,-500.31
4850,-3.8694,1.6500,-0.2144,773.68,362.55,-562.81
4860,-3.8691,1.6793,-0.2938,-788.82,565.67,1124.57
4870,-3.8689,1.7064,-0.3781,-1038.82,-1606.14,1358.76
4880,-3.8685,1.7103,-0.4933,-1570.07,-387.33,-1782.04
4890,-3.8679,1.6737,-0.6371,-1070.07,862.67,1764.65
4900,-3.8672,1.6068,-0.7743,-1757.57,-1543.64,1139.34
4910,-3.8666,1.5122,-0.8934,1679.93,893.74,-1860.90
4920,-3.8661,1.3768,-0.9989,1570.56,1643.55,-1142.40
4930,-3.8657,1.2150,-1.0842,242.43,143.31,-205.08
4940,-3.8654,1.0553,-1.1510,-476.32,1221.07,1138.49
4950,-3.8652,0.9188,-1.2145,-913.82,673.89,-205.38
4960,-3.8651,0.8163,-1.2960,1617.43,548.65,-64.88
4970,-3.8650,0.7351,-1.3958,492.43,-1889.04,1388.06
4980,-3.8650,0.6512,-1.4846,-1898.19,1345.15,403.50
4990,-3.8651,0.5460,-1.5565,-632.57,1969.97,1403.32
5000,-3.8652,0.3982,-1.6425,1898.68,766.66,356.32
5010,-3.8655,0.2052,-1.7412,-1023.19,1766.36,1903.02
5020,-3.8657,-0.0082,-1.7957,-1726.32,1125.37,1980.96
5030,-3.8661,-0.2325,-1.7616,-1038.82,-1828.19,-1769.17
5040,-3.8666,-0.4729,-1.6462,-1757.57,-1469.24,43.40
5050,-3.8674,-0.7263,-1.4867,-523.19,1295.90,-1362.61
5060,-3.8683,-0.9849,-1.3140,-960.69,1717.29,762.70
5070,-3.8693,-1.2228,-1.1420,1945.56,-173.83,-627.62
5080,-3.8700,-1.4091,-0.9922,-507.57,1841.31,-1611.63
5090,-3.8706,-1.5308,-0.8756,-351.32,1012.82,-955.08
5100,-3.8710,-1.5819,-0.7914,70.56,-65.49,1279.48
5110,-3.8716,-0.9836,-0.6957,-507.57,-268.01,-173.34
5120,-3.8716,-0.8206,-0.6410,-1898.19,-1033.20,592.35
5130,-3.8718,-0.7103,-0.5704,-1023.19,1967.10,1529.97
5140,-3.8722,-0.6403,-0.5035,1086.18,-1001.40,-1157.41
5150,-3.8726,-0.5946,-0.4492,-1945.07,-438.78,-1376.04
5160,-3.8729,-0.5688,-0.4039,-101.32,-1485.60,-1141.54
5170,-3.8732,-0.5597,-0.3593,-804.44,311.34,374.21
5180,-3.8735,-0.5583,-0.3164,367.43,-1969.85,-891.36
5190,-3.8738,-0.5548,-0.2856,539.31,-485.47,-625.67
5200,-3.8739,-0.5417,-0.2642,992.43,-547.97,1374.39
5210,-3.8741,-0.5205,-0.2410,-1335.69,-1797.97,-0.55
5220,-3.8743,-0.4961,-0.2178,1383.06,1170.84,-1937.99
5230,-3.8745,-0.4677,-0.1982,508.06,139.65,-516.05
5240,-3.8746,-0.4333,-0.1831,148.68,-1360.29,983.95
5250,-3.8749,-0.3986,-0.1759,539.31,577.27,-812.87
5260,-3.8750,-0.3680,-0.1766,992.43,1499.21,1827.76
5270,-3.8439,-0.3392,-0.1843,898.68,1405.52,624.63
5280,-3.8440,-0.3033,-0.2042,586.18,421.20,905.88
5290,-3.8441,-0.2518,-0.2365,1179.93,1874.39,-422.30
5300,-3.8441,-0.1843,-0.2688,-226.32,1749.45,-62.99
5310,-3.8440,-0.1143,-0.2866,414.31,1609.01,952.58
5320,-3.8440,-0.0554,-0.2837,1383.06,-672.12,1749.39
5330,-3.8440,-0.0055,-0.2676,914.31,-297.00,-1938.11
5340,-3.8440,0.0443,-0.2535,-695.07,1765.56,-1422.42
5350,-3.8440,0.0984,-0.2501,1679.93,-453.06,-297.42
5360,-3.8439,0.1598,-0.2554,601.81,-15.44,952.58
5370,-3.8439,0.2267,-0.2632,461.18,-687.19,-828.67
5380,-3.8750,0.4120,-0.2058,1133.06,-1452.39,-1031.74
5390,-3.8439,0.4268,-0.1770,742.43,1657.04,62.07
5400,-3.8441,0.4530,-0.1505,-1366.94,1344.54,718.38
5410,-3.8442,0.5248,-0.1505,1992.43,735.23,1843.44
5420,-3.8441,0.6498,-0.1794,-820.07,735.35,-1953.43
5430,-3.8750,0.8204,-0.2209,-820.07,1032.47,30.88
5440,-3.8746,1.0314,-0.2719,1023.68,-279.66,593.26
5450,-3.8743,1.2539,-0.3340,23.68,1205.14,890.08
5460,-3.8740,1.3942,-0.3650,508.06,1252.44,1546.20
5470,-3.8740,1.3663,-0.3162,-1538.82,1283.94,-891.36
5480,-3.8741,1.2085,-0.2163,-1101.32,-466.13,749.33
5490,-3.8745,1.0475,-0.1532,-1304.44,314.82,-1531.68
5500,-3.8748,0.9897,-0.1945,-1913.82,392.64,-984.68
5510,-3.8748,1.0564,-0.3363,-1304.44,-888.73,-734.80
5520,-3.8745,1.2035,-0.5125,-773.19,955.14,-1047.55
5530,-3.8741,1.3900,-0.6573,-1945.07,-1591.43,-813.54
5540,-3.8737,1.5709,-0.7458,1929.93,-137.94,1608.03
5550,-3.8733,1.6860,-0.7753,1086.18,534.30,811.04
5560,-3.8733,1.6990,-0.7528,-179.44,768.86,-1720.28
5570,-3.8735,1.6422,-0.7092,1476.81,-356.08,-1110.90
5580,-3.8738,1.5912,-0.6891,-1788.82,1221.92,-1860.78
5590,-3.8739,1.5981,-0.7109,-320.07,-200.07,1998.60
5600,-3.8738,1.6971,-0.7770,570.56,1003.11,1811.10
5610,-3.8733,1.8949,-0.8811,1242.43,550.17,-1235.90
5620,-3.8723,2.1398,-0.9639,-1445.07,-777.59,1935.73
5630,-3.8712,2.3668,-0.9546,1898.68,629.15,1873.11
5640,-3.8704,2.5522,-0.8630,-1038.82,1817.08,-861.27
5650,-3.8698,2.7046,-0.7609,-1304.44,1536.19,779.54
5660,-3.8695,2.8188,-0.7053,-1804.44,-1385.38,435.97
5670,-3.8695,2.8822,-0.7166,820.56,1724.24,1889.22
5680,-3.8696,2.8898,-0.7988,929.93,286.87,-79.53
5690,-3.8698,2.8401,-0.9321,1898.68,1755.62,-329.71
5700,-3.8699,2.7498,-1.0571,-460.69,692.99,513.79
5710,-3.8702,2.6350,-1.1387,-23.19,692.81,-627.08
5720,-3.8705,2.5028,-1.2039,1289.31,-1744.87,-799.13
5730,-3.8706,2.3757,-1.3059,367.43,1911.13,-1518.01
5740,-3.8705,2.2673,-1.4745,101.81,848.39,809.94
5750,-3.8702,2.1602,-1.6707,-1773.19,-729.98,-299.80
5760,-3.8698,2.0452,-1.8229,508.06,-1839.54,-518.92
5770,-3.8691,1.9236,-1.9170,1789.31,-1324.16,543.27
5780,-3.8687,1.7943,-1.9917,-1773.19,-1371.28,-1191.28
5790,-3.8679,1.6942,-2.0786,1679.93,1065.98,839.84
5800,-3.8671,1.6851,-2.1699,867.43,1940.80,808.41
5810,-3.8661,1.7705,-2.2297,-304.44,-1746.77,151.98
5820,-3.8654,1.8846,-2.2382,-1366.94,-1402.83,-1973.14
5830,-3.8650,1.9504,-2.1890,1242.43,1519.29,-1582.52
5840,-3.8651,1.9147,-2.0850,1664.31,-183.72,-66.83
5850,-3.8655,1.7688,-1.9568,1086.18,1128.72,745.91
5860,-3.8661,1.5493,-1.8638,-1585.69,1534.67,558.65
5870,-3.8666,1.3181,-1.8455,-1679.44,1440.49,-675.54
5880,-3.8666,1.1238,-1.8872,726.81,-216.19,1605.71
5890,-3.8663,0.9928,-1.9891,-148.19,-1560.36,121.28
5900,-3.8660,0.9487,-2.1843,-913.82,1392.52,1386.72
5910,-3.8654,0.9677,-2.4082,1445.56,408.08,464.48
5920,-3.8650,0.9625,-2.5239,-132.57,-248.17,-911.01
5930,-3.8651,0.8469,-2.4690,-788.82,939.33,1807.56
5940,-3.8660,0.6196,-2.3022,414.31,-29.60,901.37
5950,-3.8673,0.3774,-2.1299,-679.44,1313.66,-426.39
5960,-3.8700,-0.0057,-1.9288,289.31,1359.56,-1581.97
5970,-3.8704,-0.1272,-1.8929,-726.32,1124.94,261.84
5980,-3.8708,-0.2355,-1.8262,-273.19,1718.44,715.03
5990,-3.8715,-0.2556,-1.7614,1867.43,-1734.86,-1409.85
6000,-3.8718,-0.1901,-1.7350,-710.69,-1438.05,246.52
6010,-3.8721,-0.1321,-1.7206,-320.07,1937.07,934.08
6020,-3.8723,-0.1371,-1.6613,-898.19,-219.06,-1425.29
6030,-3.8727,-0.1908,-1.5309,-1538.82,-625.31,-1472.05
6040,-3.8733,-0.2542,-1.3597,-413.82,62.07,-409.24
6050,-3.8739,-0.3160,-1.2010,-523.19,1968.20,1419.19
6060,-3.8745,-0.3894,-1.0864,-445.07,-1719.42,731.99
6070,-3.8750,-0.4744,-1.0135,-1835.69,952.33,575.99
6080,-3.8441,-0.5443,-0.9623,-710.69,-1719.73,-1720.76
6090,-3.8442,-0.5615,-0.9337,-1663.82,842.65,716.86
6100,-3.8444,-0.5057,-0.9404,133.06,498.90,-1361.21
6110,-3.8442,-0.4039,-0.9717,-726.32,-360.41,1982.48
6120,-3.8440,-0.3062,-1.0061,304.93,-360.17,-1658.20
6130,-3.8750,-0.2382,-1.0017,820.56,-766.24,654.24
6140,-3.8439,-0.2064,-0.9259,1523.68,-203.61,1810.49
6150,-3.8442,-0.2164,-0.7935,1586.18,1499.57,45.04
6160,-3.8450,-0.2712,-0.6489,304.93,-1547.30,1904.66
6170,-3.8457,-0.3538,-0.5370,1289.31,952.58,686.22
6180,-3.8464,-0.4282,-0.4487,-1273.19,-719.48,1311.40
6190,-3.8469,-0.4589,-0.3438,1195.56,-1422.73,499.08
6200,-3.8472,-0.4207,-0.2600,1273.68,14.71,-1735.05
6210,-3.8470,-0.3328,-0.2606,-1835.69,-1266.48,765.08
6220,-3.8468,-0.2466,-0.3462,1414.31,-1344.42,93.20
6230,-3.8466,-0.2012,-0.4895,445.56,-297.36,1905.52
6240,-3.8458,-0.2223,-0.7441,-1148.19,-1766.11,-1204.65
6250,-3.8461,-0.1807,-0.7239,-445.07,765.14,-1001.46
6260,-3.8463,-0.1069,-0.7167,883.06,-640.99,-1313.96
6270,-3.8464,-0.0205,-0.7284,-1679.44,281.01,-626.40
6280,-3.8463,0.0806,-0.7722,1383.06,-1218.81,-532.71
6290,-3.8459,0.2308,-0.8453,-1679.44,1156.37,-1220.28
6300,-3.8455,0.4542,-0.9292,1554.93,-202.70,-532.96
6310,-3.8448,0.7358,-1.0157,-1851.32,1063.35,1216.92
6320,-3.8444,1.0552,-1.0875,-1804.44,1985.78,294.86
6330,-3.8441,1.3733,-1.0922,-929.44,798.89,1997.86
6340,-3.8441,1.6328,-1.0042,-210.69,205.75,1169.74
6350,-3.8446,1.7861,-0.8405,1008.06,-528.08,-580.14
6360,-3.8452,1.8193,-0.6472,633.06,425.35,-1095.40
6370,-3.8457,1.7860,-0.5146,883.06,1159.79,608.09
6380,-3.8461,1.7882,-0.5100,617.43,-1871.52,-1110.41
6390,-3.8459,1.8761,-0.6294,898.68,-1277.77,-1563.54
6400,-3.8455,2.0079,-0.7891,148.68,-558.84,-1954.41
6410,-3.8450,2.1116,-0.8807,1023.68,-996.09,-329.71
6420,-3.8446,2.1505,-0.8699,-1710.69,-730.29,935.73
6430,-3.8447,2.1121,-0.7938,-726.32,660.40,-48.58
6440,-3.8447,2.0299,-0.7196,-1648.19,-1605.29,639.04
6450,-3.8446,2.0143,-0.7244,-163.82,-105.47,1170.41
6460,-3.8441,2.1266,-0.8221,1836.18,-714.84,186.04
6470,-3.8748,2.3103,-0.9445,211.18,-1230.22,529.60
6480,-3.8743,2.4645,-1.0212,-273.19,-886.17,-1283.14
6490,-3.8739,2.5181,-1.0216,-538.82,1286.01,-1955.14
6500,-3.8738,2.4545,-0.9673,-1679.44,1239.26,482.36
6510,-3.8740,2.3301,-0.9122,-1820.07,192.26,1591.86
6520,-3.8744,2.2433,-0.9117,-1741.94,-761.11,1295.04
6530,-3.8748,2.2448,-0.9897,-851.32,-698.79,-376.83
6540,-3.8748,2.3118,-1.1027,-663.82,1316.83,-1173.83
6550,-3.8744,2.4059,-1.1844,-85.69,-1136.17,1107.18
6560,-3.8738,2.5188,-1.2073,-38.82,395.26,622.68
6570,-3.8732,2.6727,-1.1792,-1585.69,1473.63,-502.38
6580,-3.8724,2.8595,-1.1394,-1882.57,1067.69,1325.81
6590,-3.8719,3.0331,-1.1219,-1976.32,-1838.20,-1267.88
6600,-3.8717,3.1390,-1.1299,242.43,396.55,-408.45
6610,-3.8717,3.1427,-1.1703,1804.93,-618.90,-330.38
6620,-3.8717,3.0609,-1.2640,-1726.32,-1790.77,872.68
6630,-3.8717,2.9276,-1.4119,-195.07,-1790.95,935.00
6640,-3.8716,2.7821,-1.5950,-1257.57,-713.07,465.94
6650,-3.8715,2.6576,-1.7812,117.43,-150.82,-581.30
6660,-3.8711,2.5487,-1.9199,179.93,5.19,1418.40
6670,-3.8708,2.4547,-1.9769,-1757.57,-1745.06,1761.84
6680,-3.8707,2.4000,-1.9567,-1788.82,-1042.11,27.34
6690,-3.8708,2.3654,-1.9116,-788.82,1551.51,1793.03
6700,-3.8710,2.3058,-1.9000,-1226.32,-682.92,-1003.78
6710,-3.8710,2.2111,-1.9510,-851.32,801.33,-738.10
6720,-3.8707,2.0830,-2.0414,-976.32,-1730.10,-1425.72
6730,-3.8701,1.9247,-2.1143,-1366.94,-1292.85,-1175.90
6740,-3.8690,1.7821,-2.1484,-1632.57,1378.72,-1722.90
6750,-3.8677,1.7231,-2.1816,117.43,1003.48,-1426.09
6760,-3.8663,1.7590,-2.2451,570.56,753.36,1370.73
6770,-3.8655,1.8068,-2.2914,1164.31,628.42,-488.77
6780,-3.8652,1.7568,-2.2306,-726.32,-1293.40,1979.86
6790,-3.8658,1.5795,-2.0402,883.06,-1512.21,808.11
6800,-3.8671,1.3264,-1.8054,-1820.07,-1137.57,1058.47
6810,-3.8684,1.0724,-1.6290,1789.31,908.81,-1331.67
6820,-3.8696,0.4083,-1.7844,1445.56,-905.27,-440.80
6830,-3.8691,0.3362,-1.9003,273.68,-405.46,1387.08
6840,-3.8688,0.2603,-1.9213,-960.69,766.24,496.28
6850,-3.8688,0.1707,-1.8192,1320.56,-1921.39,1636.84
6860,-3.8691,0.0790,-1.6605,1851.81,-859.07,-597.35
6870,-3.8696,-0.0073,-1.5198,-1882.57,-546.75,1512.33
6880,-3.8702,-0.0901,-1.4192,-929.44,1484.31,590.76
6890,-3.8710,-0.1687,-1.3346,476.81,-1640.81,-768.43
6900,-3.8716,-0.2292,-1.2443,-1585.69,1187.13,-1783.87
6910,-3.8722,-0.2485,-1.1583,-1335.69,749.51,-783.69
6920,-3.8726,-0.2332,-1.0922,195.56,-250.49,-1721.07
6930,-3.8727,-0.2354,-1.0435,-1835.69,218.26,763.49
6940,-3.8727,-0.2831,-1.0077,1883.06,-1547.36,638.55
6950,-3.8727,-0.3402,-0.9896,-226.32,-969.36,-580.14
6960,-3.8726,-0.3575,-0.9845,461.18,1343.08,-1486.33
6970,-3.8724,-0.3140,-0.9806,-1757.57,1999.27,1654.30
6980,-3.8723,-0.2289,-0.9631,-179.44,-1500.67,1013.67
6990,-3.8723,-0.1632,-0.9137,-1288.82,733.89,-939.39
7000,-3.8723,-0.1542,-0.8308,-882.57,-937.87,1591.92
7010,-3.8726,-0.1846,-0.7394,273.68,1671.57,-329.77
7020,-3.8728,-0.2297,-0.6737,383.06,1374.63,-407.71
7030,-3.8729,-0.2688,-0.6497,-1398.19,1780.76,264.28
7040,-3.8732,-0.2944,-0.6591,1601.81,858.83,-1298.16
7050,-3.8733,-0.3127,-0.6721,-1679.44,-344.36,1451.78
7060,-3.8735,-0.3136,-0.6721,-23.19,1983.70,-1016.97
7070,-3.8738,-0.2827,-0.6587,-132.57,1983.70,-626.34
7080,-3.8740,-0.2418,-0.6287,-179.44,-297.49,-1157.59
7090,-3.8743,-0.2142,-0.5742,1054.93,-453.61,1498.72
7100,-3.8440,-0.1774,-0.4843,961.18,-953.49,1295.90
7110,-3.8442,-0.1885,-0.4890,1304.93,-1969.12,-1438.48
7120,-3.8444,-0.2119,-0.4983,-116.94,1421.45,670.90
7130,-3.8446,-0.2450,-0.5227,883.06,233.95,-1157.23
7140,-3.8447,-0.2776,-0.5568,648.68,1108.89,170.84
7150,-3.8450,-0.2932,-0.6046,476.81,749.45,-1547.97
7160,-3.8450,-0.2703,-0.6786,-1523.19,-1375.61,326.90
7170,-3.8450,-0.1854,-0.7745,1414.31,1155.70,-1860.72
7180,-3.8448,-0.0485,-0.8730,273.68,874.63,-814.03
7190,-3.8446,0.1101,-0.9552,1804.93,265.50,1685.79
7200,-3.8445,0.2565,-1.0063,-1898.19,1734.56,-1298.77
7210,-3.8445,0.3701,-1.0125,836.18,-812.01,-267.64
7220,-3.8446,0.4634,-0.9690,-616.94,-1593.08,-1486.39
7230,-3.8450,0.5615,-0.8762,-679.44,-30.40,-1751.95
7240,-3.8455,0.6842,-0.7567,-116.94,-155.21,1607.60
7250,-3.8459,0.8567,-0.6591,-413.82,-858.09,1435.97
7260,-3.8463,1.0968,-0.6227,1664.31,-357.73,-1095.09
7270,-3.8463,1.3651,-0.6316,398.68,299.01,-1485.60
7280,-3.8461,1.5870,-0.6310,-1257.57,-841.13,-798.16
7290,-3.8457,1.7313,-0.5936,-851.32,-762.57,-1782.53
7300,-3.8455,1.8057,-0.5194,1617.43,18.98,-1735.53
7310,-3.8453,1.8213,-0.4318,-866.94,1519.10,1452.09
7320,-3.8455,1.8063,-0.3763,1133.06,737.92,-0.85
7330,-3.8455,1.7789,-0.3750,-788.82,-168.40,530.46
7340,-3.8456,1.7427,-0.4185,-288.82,3.42,-281.98
7350,-3.8453,1.7281,-0.4854,-929.44,-1559.14,1671.02
7360,-3.8448,1.7882,-0.5569,1211.18,1878.36,545.90
7370,-3.8442,1.9380,-0.6313,898.68,722.23,-1657.35
7380,-3.8749,2.1241,-0.6971,70.56,-808.72,-1626.28
7390,-3.8745,2.2924,-0.7443,-101.32,-1230.29,1170.47
7400,-3.8745,2.4159,-0.8047,1429.93,738.83,-1595.21
7410,-3.8746,2.4620,-0.8878,1242.43,1004.70,826.54
7420,-3.8749,2.4115,-0.9377,-851.32,-1635.86,1326.35
7430,-3.8750,2.3082,-0.9338,679.93,-26.55,904.36
7440,-3.8750,2.2528,-0.9242,-538.82,473.21,873.17
7450,-3.8749,2.3456,-0.9613,367.43,1707.52,-1048.71
7460,-3.8743,2.5963,-1.0468,242.43,957.70,1138.73
7470,-3.8733,2.9260,-1.1323,336.18,-1979.31,279.17
7480,-3.8722,3.2714,-1.2057,-1460.69,-931.82,153.99
7490,-3.8712,3.5769,-1.2705,-1257.57,1678.22,1294.49
7500,-3.8705,3.7249,-1.3237,1851.81,1381.96,-1893.13
7510,-3.8702,3.6353,-1.3800,789.31,-1430.24,-1627.62
7520,-3.8706,3.3667,-1.4507,1320.56,-633.54,-1362.12
7530,-3.8713,3.0507,-1.5403,-1054.44,-1680.97,-1096.62
7540,-3.8719,2.7855,-1.6438,-1507.57,-1150.33,153.20
7550,-3.8724,2.6051,-1.7610,554.93,1599.18,-1096.98
7560,-3.8724,2.5155,-1.8987,1461.18,-1401.18,652.77
7570,-3.8723,2.5026,-2.0564,1992.43,973.63,-191.22
7580,-3.8718,2.5229,-2.2256,336.18,786.13,-1738.40
7590,-3.8713,2.5280,-2.3915,-1054.44,-870.12,-191.89
7600,-3.8708,2.4692,-2.5350,-413.82,1895.51,-1489.07
7610,-3.8706,2.3021,-2.6138,70.56,-479.55,-598.75
7620,-3.8704,2.0421,-2.5737,-1320.07,1441.96,323.00
7630,-3.8701,1.7997,-2.4287,1398.68,-1433.53,1479.31
7640,-3.8694,1.7191,-2.3035,-1632.57,1128.48,-739.14
7650,-3.8679,1.8683,-2.3210,54.93,1159.61,1979.86
7660,-3.8661,2.1936,-2.4697,-851.32,-1090.15,1057.92
7670,-3.8638,2.1396,-2.6066,1226.81,114.26,-974.00
7680,-3.8650,1.5198,-2.4448,1883.06,-1636.47,-489.50
7690,-3.8663,0.9260,-2.2852,-1460.69,-934.57,-1926.70
7700,-3.8672,0.5565,-2.1893,-1460.69,-498.23,1417.36
7710,-3.8674,0.4430,-2.1611,-757.57,-233.34,-1473.08
7720,-3.8673,0.5039,-2.1946,711.18,-624.15,-1754.27
7730,-3.8672,0.6389,-2.2838,508.06,-905.27,542.54
7740,-3.8673,0.7638,-2.3792,1789.31,-326.90,698.61
7750,-3.8677,0.7722,-2.4114,1773.68,-529.79,1354.68
7760,-3.8683,0.5905,-2.3434,-1148.19,-654.79,745.24
7770,-3.8693,0.2709,-2.1868,-413.82,47.97,-1098.33
7780,-3.8702,-0.0518,-1.9858,-1320.07,94.24,1433.23
7790,-3.8711,-0.2565,-1.7894,1383.06,1828.00,246.09
7800,-3.8717,-0.3085,-1.6371,-820.07,-1031.80,121.46
7810,-3.8721,-0.2610,-1.5437,523.68,-1531.86,653.02
7820,-3.8723,-0.2103,-1.4885,-1398.19,-1578.67,1871.95
7830,-3.8726,-0.2181,-1.4431,1086.18,1483.95,-252.93
7840,-3.8727,-0.2581,-1.3899,86.18,-703.55,137.76
7850,-3.8729,-0.2925,-1.3291,-1023.19,-1891.17,59.75
7860,-3.8732,-0.3293,-1.2795,-1429.44,1890.01,1856.75
7870,-3.8733,-0.3566,-1.2456,1851.81,233.70,1513.12
7880,-3.8734,-0.3661,-1.2188,-1632.57,577.39,-533.69
7890,-3.8733,-0.3854,-1.1798,1148.68,14.89,388.24
7900,-3.8733,-0.4227,-1.1012,-1320.07,999.21,122.68
7910,-3.8735,-0.4623,-0.9900,1898.68,-938.35,1247.80
7920,-3.8740,-0.4918,-0.8796,836.18,1295.96,-1158.20
7930,-3.8745,-0.5044,-0.7838,1054.93,-579.10,388.85
7940,-3.8439,-0.4905,-0.6964,-554.44,-313.54,-1064.09
7950,-3.8442,-0.4584,-0.6188,1226.81,-1125.98,-1954.53
7960,-3.8445,-0.4321,-0.5613,1336.18,811.58,-1798.10
7970,-3.8446,-0.4121,-0.5475,695.56,171.02,1592.65
7980,-3.8447,-0.3722,-0.5844,-741.94,1936.65,-282.35
7990,-3.8446,-0.3065,-0.6450,367.43,1218.02,1717.59
8000,-3.8444,-0.2290,-0.7013,773.68,1452.51,45.59
8010,-3.8441,-0.1581,-0.7385,-1304.44,-1750.49,1717.35
8020,-3.8439,-0.1112,-0.7426,-226.32,1484.01,-345.21
8030,-3.8749,-0.1111,-0.7080,1773.68,968.51,701.66
8040,-3.8750,-0.1658,-0.6560,1789.31,1390.38,1842.35
8050,-3.8440,-0.2352,-0.6100,-1210.69,46.51,1029.97
8060,-3.8444,-0.2725,-0.5925,1898.68,1937.01,-1688.72
8070,-3.8446,-0.2573,-0.6167,1133.06,171.33,1764.47
8080,-3.8447,-0.1918,-0.6675,-929.44,1077.58,1623.78
8090,-3.8447,-0.0807,-0.7220,-538.82,-1422.30,514.28
8100,-3.8448,0.0804,-0.7749,1679.93,-406.43,-126.46
8110,-3.8447,0.2883,-0.8259,-1695.07,812.62,732.85
8120,-3.8446,0.5164,-0.8704,914.31,-1718.20,967.10
8130,-3.8445,0.7234,-0.8926,-1898.19,594.73,1451.42
8140,-3.8445,0.8757,-0.8728,601.81,1751.40,841.98
8150,-3.8447,0.9661,-0.8164,101.81,282.96,1670.17
8160,-3.8451,1.0005,-0.7478,-335.69,-498.17,1451.48
8170,-3.8456,0.9965,-0.6753,70.56,283.20,-688.96
8180,-3.8458,0.9851,-0.6051,-445.07,1564.39,576.78
8190,-3.8461,0.9856,-0.5726,-1898.19,-1451.23,-32.47
8200,-3.8461,1.0048,-0.6150,-1835.69,-1294.98,-219.91
8210,-3.8458,1.0714,-0.7321,617.43,1283.20,451.90
8220,-3.8456,1.2134,-0.8760,1148.68,-1701.05,-235.84
8230,-3.8451,1.4122,-0.9835,-679.44,-122.68,-329.90
8240,-3.8446,1.6095,-1.0254,773.68,-1887.88,-751.95
8250,-3.8441,1.7037,-1.0229,-1382.57,1503.30,-1829.96
8260,-3.8440,1.7659,-1.1943,-1913.82,1065.80,13.61
8270,-3.8439,1.8490,-1.3424,-1960.69,-871.58,-1518.01
8280,-3.8749,1.9290,-1.4153,679.93,175.48,1794.25
8290,-3.8746,2.0066,-1.4327,-1085.69,-1152.53,1403.44
8300,-3.8744,2.0588,-1.4320,851.81,613.28,-1518.43
8310,-3.8740,2.0681,-1.4495,-460.69,707.09,1122.19
8320,-3.8737,2.0522,-1.5188,726.81,-1527.22,856.51
8330,-3.8733,2.0460,-1.6591,-1304.44,1597.72,-1456.12
8340,-3.8728,2.0709,-1.8278,1898.68,-355.41,-1987.67
8350,-3.8723,2.1168,-1.9293,1086.18,-1949.10,1340.15
8360,-3.8718,2.1758,-1.9139,-1038.82,1050.96,1964.97
8370,-3.8712,2.2732,-1.8328,-1491.94,-980.16,1558.72
8380,-3.8706,2.4503,-1.7946,-1023.19,1410.64,1965.15
8390,-3.8700,2.7153,-1.8470,1648.68,-1698.36,-769.17
8400,-3.8693,2.9894,-1.9385,-429.44,-416.63,1340.09
8410,-3.8688,3.1432,-2.0275,-1351.32,-119.20,636.78
8420,-3.8688,3.1000,-2.1345,-1663.82,490.48,-1035.22
8430,-3.8690,2.8936,-2.2587,804.93,-1212.71,-1629.21
8440,-3.8695,2.6143,-2.3575,-1616.94,-1103.76,-691.96
8450,-3.8699,2.3427,-2.4420,-1366.94,-1760.56,-598.39
8460,-3.8698,2.1234,-2.5593,-132.57,-573.61,-754.82
8470,-3.8690,1.9520,-2.6981,-195.07,410.34,885.62
8480,-3.8682,1.8090,-2.8191,1867.43,-1355.59,1885.31
8490,-3.8674,1.6671,-2.9203,-445.07,-840.27,-83.68
8500,-3.8669,1.4771,-2.9893,1398.68,-1793.64,-490.11
8510,-3.8669,1.2129,-2.9679,1070.56,1377.87,947.27
8520,-3.8676,0.9177,-2.8285,-741.94,111.69,1947.33
8530,-3.8667,0.8077,-2.3090,-1195.07,-1530.03,526.86
8540,-3.8655,0.9512,-2.5068,-601.32,454.65,323.61
8550,-3.8646,0.9048,-2.6622,1758.06,-873.17,-1536.19
8560,-3.8644,0.5653,-2.6576,-179.44,-763.92,1588.50
8570,-3.8649,0.0114,-2.4969,367.43,-170.78,88.50
8580,-3.8658,-0.5490,-2.2632,1461.18,390.62,151.37
8590,-3.8668,-0.9307,-2.0430,1742.43,-1672.97,-1613.83
8600,-3.8673,-1.0699,-1.8778,883.06,-1486.21,511.60
8610,-3.8676,-0.9990,-1.7723,-945.07,-345.89,590.03
8620,-3.8677,-0.7804,-1.7566,133.06,1154.30,-1722.23
8630,-3.8677,-0.4907,-1.8330,117.43,-829.65,-940.98
8640,-3.8677,-0.2285,-1.9091,1195.56,1389.65,-1128.60
8650,-3.8679,-0.0907,-1.8942,-1241.94,-344.24,-1316.28
8660,-3.8685,-0.1281,-1.7900,398.68,1562.32,-1581.85
8670,-3.8694,-0.3064,-1.6510,-382.57,-1109.68,949.58
8680,-3.8704,-0.5190,-1.5281,789.31,686.89,559.27
8690,-3.8713,-0.6681,-1.4319,1570.56,420.84,-1221.74
8700,-3.8721,-0.7222,-1.3472,-1507.57,733.03,1965.94
8710,-3.8727,-0.7026,-1.2657,-429.44,-423.34,1559.81
8720,-3.8733,-0.6454,-1.1925,-1929.44,1998.60,-252.50
8730,-3.8737,-0.5820,-1.1278,1398.68,-626.28,466.37
8740,-3.8740,-0.5193,-1.0835,1508.06,-344.91,1044.62
8750,-3.8743,-0.4500,-1.0973,1539.31,1327.09,-1267.76
8760,-3.8743,-0.3790,-1.1543,-1585.69,-438.42,1700.93
8770,-3.8743,-0.3228,-1.1689,-507.57,264.83,1794.62
8780,-3.8744,-0.2963,-1.0980,-1304.44,-1610.05,1310.18
8790,-3.8748,-0.2955,-0.9800,-1913.82,-531.86,-1720.95
8800,-3.8440,-0.2966,-0.8706,-1820.07,-1422.49,-830.08
8810,-3.8452,-0.0994,-0.6329,1758.06,1827.76,-32.59
8820,-3.8452,-0.0276,-0.6339,-710.69,-1000.24,1998.72
8830,-3.8451,0.0292,-0.6926,476.81,-1125.06,-1923.16
8840,-3.8448,0.0703,-0.7758,-257.57,-656.25,-298.28
8850,-3.8445,0.1012,-0.8002,1008.06,703.25,1748.47
8860,-3.8444,0.1278,-0.7322,961.18,1578.31,-1267.21
8870,-3.8444,0.1594,-0.6116,367.43,-1718.51,1092.29
8880,-3.8446,0.1987,-0.4811,414.31,1719.06,-1641.85
8890,-3.8448,0.2507,-0.3644,1445.56,-1577.76,686.52
8900,-3.8452,0.3302,-0.2804,101.81,1359.86,1249.27
8910,-3.8456,0.4352,-0.2251,-1726.32,109.99,-563.05
8920,-3.8457,0.5398,-0.1758,-288.82,-811.71,-750.49
8930,-3.8456,0.6237,-0.1437,1101.81,1501.04,718.38
8940,-3.8455,0.6881,-0.1875,-163.82,1610.53,-859.68
8950,-3.8450,0.7478,-0.3405,86.18,1.34,749.63
8960,-3.8444,0.8038,-0.5175,-273.19,423.28,-1094.42
8970,-3.8749,0.8348,-0.5736,-1101.32,1767.15,-1766.66
8980,-3.8745,0.8131,-0.4717,-1132.57,-1420.29,-1594.91
8990,-3.8746,0.7465,-0.3063,86.18,-373.41,-1985.35
9000,-3.8750,0.6968,-0.1932,-445.07,798.28,249.39
9010,-3.8441,0.7296,-0.1803,1195.56,-733.03,-1859.80
9020,-3.8440,0.8727,-0.2507,1398.68,923.28,546.51
9030,-3.8749,1.1000,-0.3636,-288.82,-92.10,-1063.05
9040,-3.8743,1.3353,-0.4724,804.93,1455.26,749.27
9050,-3.8739,1.5039,-0.5729,-1070.07,-466.19,1358.40
9060,-3.8737,1.5685,-0.6827,508.06,-1325.20,561.34
9070,-3.8735,1.5190,-0.7441,773.68,612.43,498.66
9080,-3.8737,1.3787,-0.7046,-1554.44,752.93,-1438.96
9090,-3.8743,1.2126,-0.8947,351.81,-1185.36,-188.90
9100,-3.8738,1.4072,-1.1199,-773.19,1486.69,-1861.15
9110,-3.8733,1.5956,-1.2966,133.06,659.00,-486.57
9120,-3.8728,1.6919,-1.3767,242.43,-1965.64,-1408.81
9130,-3.8726,1.6914,-1.3683,570.56,-215.45,-1237.12
9140,-3.8724,1.6548,-1.3129,508.06,862.67,841.06
9150,-3.8724,1.6566,-1.2687,-179.44,-43.70,-1752.62
9160,-3.8722,1.7483,-1.2754,54.93,1612.61,778.75
9170,-3.8718,1.9364,-1.3545,-210.69,753.36,-33.75
9180,-3.8711,2.1997,-1.5027,-132.57,-1371.28,1981.69
9190,-3.8704,2.4761,-1.6644,1570.56,-339.48,-1206.12
9200,-3.8696,2.6453,-1.7777,945.56,-1042.05,-1909.55
9210,-3.8691,2.6282,-1.8245,-1398.19,458.25,199.65
9220,-3.8693,2.4515,-1.8164,414.31,-1526.12,-1925.48
9230,-3.8699,2.2098,-1.7960,1804.93,-495.24,-816.10
9240,-3.8707,1.9930,-1.8260,-1132.57,-1886.35,-175.42
9250,-3.8715,1.8228,-1.9171,-882.57,-1730.53,-128.60
9260,-3.8718,1.6866,-2.0522,1320.56,-1387.08,1011.84
9270,-3.8719,1.5851,-2.2396,-101.32,1315.73,808.47
9280,-3.8717,1.5005,-2.4436,-1101.32,1331.18,183.11
9290,-3.8713,1.3912,-2.5708,70.56,-778.32,-1536.07
9300,-3.8710,1.2474,-2.5809,-1913.82,-1059.81,1541.81
9310,-3.8708,1.1027,-2.5413,-320.07,1643.01,666.81
9320,-3.8710,0.9833,-2.5325,1148.68,-1279.11,-364.38
9330,-3.8710,0.8892,-2.5581,1867.43,-154.36,-380.00
9340,-3.8708,0.8103,-2.5986,1820.56,564.21,-5.00
9350,-3.8705,0.7236,-2.6550,-273.19,-623.47,-911.38
9360,-3.8699,0.6025,-2.7067,633.06,157.65,-1802.06
9370,-3.8693,0.4392,-2.7032,1133.06,1548.03,-583.44
9380,-3.8689,0.2483,-2.6108,226.81,1985.23,-286.56
9390,-3.8689,0.0605,-2.4407,-210.69,1812.93,-1302.00
9400,-3.8693,-0.1176,-2.2565,-241.94,-406.19,-973.57
9410,-3.8698,-0.3306,-2.1140,961.18,-812.74,-488.83
9420,-3.8700,-0.5973,-2.0057,1695.56,1421.20,1495.85
9430,-3.8700,-0.8573,-1.9052,-445.07,-719.97,-1582.09
9440,-3.8698,-1.0350,-1.7850,-1726.32,154.54,-238.10
9450,-3.8694,-1.0873,-1.6324,-476.32,-470.83,1746.46
9460,-3.8693,-1.0187,-1.4890,836.18,-939.64,-1753.23
