timestamp_ms,ax,ay,az,gx,gy,gz
0,-3.8447,0.0236,-1.0620,-1226.32,-906.31,-1720.83
10,-3.8448,0.0302,-1.0714,-976.32,62.50,-142.70
20,-3.8448,-0.0244,-1.0682,-132.57,-1140.62,60.36
30,-3.8450,-0.1677,-1.0602,883.06,-718.81,1372.86
40,-3.8450,-0.3931,-1.0353,-1460.69,312.13,779.17
50,-3.8450,-0.6650,-1.0006,1695.56,-500.79,-970.83
60,-3.8447,-0.9347,-1.0104,-1116.94,-63.84,310.49
70,-3.8446,-1.1488,-1.0901,367.43,-1314.33,-517.64
80,-3.8442,-1.2625,-1.2163,961.18,482.12,1450.99
90,-3.8439,-1.2548,-1.3564,-1585.69,325.62,-1018.01
100,-3.8746,-1.1564,-1.4814,-601.32,-1611.88,1950.44
110,-3.8743,-1.0389,-1.5798,-7.57,-1611.69,-690.43
120,-3.8739,-0.9664,-1.6588,-976.32,1794.80,1950.01
130,-3.8737,-0.9686,-1.7216,304.93,-314.39,1637.33
140,-3.8735,-1.0558,-1.7683,23.68,-345.64,-1815.92
150,-3.8734,-1.2228,-1.8164,867.43,1669.80,480.90
160,-3.8734,-1.4355,-1.8872,-507.57,-486.82,1668.27
170,-3.8734,-1.6309,-1.9869,258.06,-1549.68,1433.78
180,-3.8735,-1.7469,-2.1110,-741.94,1684.27,-144.53
190,-3.8735,-1.7765,-2.2531,398.68,1809.08,1105.22
200,-3.8737,-1.7501,-2.4117,617.43,-378.48,261.17
210,-3.8739,-1.6769,-2.5841,-7.57,-690.98,1104.61
220,-3.8741,-1.5524,-2.7539,1367.43,1246.70,510.56
230,-3.8745,-1.3833,-2.8899,1304.93,-487.43,-989.81
240,-3.8749,-1.1853,-2.9585,-1054.44,-1893.37,-161.93
250,-3.8440,-0.9735,-2.9561,289.31,1325.81,-1943.30
260,-3.8445,-0.7543,-2.9111,-601.32,1638.67,-1193.30
270,-3.8448,-0.5255,-2.8480,-538.82,-610.90,869.26
280,-3.8452,-0.2872,-2.7721,742.43,-532.29,-68.12
290,-3.8452,-0.0431,-2.6863,-757.57,1186.89,-1333.56
300,-3.8451,0.1989,-2.5977,-1507.57,171.75,-52.12
310,-3.8448,0.4250,-2.5044,1461.18,-499.63,-692.63
320,-3.8446,0.6162,-2.3962,-1585.69,-561.71,745.06
330,-3.8446,0.7576,-2.2657,-1116.94,1282.41,-1489.07
340,-3.8446,0.8500,-2.1185,976.81,1985.84,1667.42
350,-3.8446,0.9056,-1.9777,804.93,829.77,933.35
360,-3.8446,0.9369,-1.8611,-70.07,-1138.92,-1722.66
370,-3.8445,0.9489,-1.7579,-70.07,1783.02,1074.46
380,-3.8445,0.9424,-1.6448,1461.18,-1013.79,-1925.35
390,-3.8446,0.9219,-1.5129,633.06,1470.58,-1159.48
400,-3.8447,0.8951,-1.3826,-1991.94,-1654.48,762.63
410,-3.8450,0.8546,-1.2711,-1413.82,-967.04,-362.12
420,-3.8450,0.7909,-1.1697,1398.68,1298.52,1497.50
430,-3.8450,0.7107,-1.0630,1242.43,-1717.22,747.68
440,-3.8451,0.6282,-0.9492,-1023.19,-61.16,-517.76
450,-3.8451,0.5546,-0.8387,414.31,-1498.78,1576.23
460,-3.8452,0.4917,-0.7410,-1007.57,641.66,-111.02
470,-3.8452,0.4387,-0.6566,-1054.44,1157.17,-876.46
480,-3.8452,0.3976,-0.5828,164.31,-46.02,-938.84
490,-3.8452,0.3672,-0.5170,-1101.32,1406.98,-829.28
500,-3.8452,0.3403,-0.4572,-991.94,1828.80,-813.54
510,-3.8452,0.3099,-0.4038,-429.44,1484.99,-954.04
520,-3.8452,0.2812,-0.3574,-320.07,313.05,-1032.04
530,-3.8452,0.2700,-0.3131,8.06,-1749.45,-1313.23
540,-3.8452,0.2842,-0.2605,-1429.44,-77.64,1499.33
550,-3.8453,0.3147,-0.1985,383.06,-1343.20,-641.17
560,-3.8453,0.3442,-0.1333,289.31,-1405.64,640.20
570,-3.8455,0.3615,-0.0708,70.56,-1061.83,1218.44
580,-3.8456,0.3662,-0.0204,-1726.32,-1061.83,968.57
590,-3.8457,0.3562,0.0120,-1116.94,1391.30,468.69
600,-3.8458,0.3304,0.0265,1601.81,1531.92,515.62
610,-3.8459,0.2981,0.0302,-1695.07,-608.76,1687.50
620,-3.8459,0.2667,0.0232,-1835.69,-140.08,328.12
630,-3.8459,0.2388,-0.0054,-1851.32,-1030.76,859.38
640,-3.8459,0.2119,-0.0570,-1429.44,-687.07,-937.56
650,-3.8458,0.1779,-0.1146,-866.94,703.49,-1531.37
660,-3.8457,0.1263,-0.1548,-1226.32,1328.43,1406.01
670,-3.8457,0.0574,-0.1713,179.93,187.74,1124.69
680,-3.8458,-0.0168,-0.1859,-648.19,-1921.81,1312.13
690,-3.8459,-0.0875,-0.2202,1851.81,218.69,62.13
700,-3.8462,-0.1608,-0.2770,804.93,-172.06,-937.99
710,-3.8463,-0.2528,-0.3462,-570.07,562.13,-734.92
720,-3.8463,-0.3746,-0.4080,-351.32,-297.42,405.52
730,-3.8464,-0.5210,-0.4617,54.93,-203.86,-1547.73
740,-3.8464,-0.6550,-0.5369,1320.56,920.84,-157.17
750,-3.8462,-0.7258,-0.6577,164.31,-704.41,-1688.60
760,-3.8458,-0.7245,-0.8101,-898.19,-173.34,920.53
770,-3.8455,-0.7009,-0.9628,-726.32,326.66,-1204.71
780,-3.8450,-0.7072,-1.1139,-1710.69,779.85,-1455.02
790,-3.8445,-0.7535,-1.2740,1492.43,1436.10,-1783.45
800,-3.8440,-0.8120,-1.4170,-445.07,935.97,1106.87
810,-3.8749,-0.8485,-1.4869,70.56,-1360.96,1825.32
820,-3.8746,-0.8621,-1.4608,-601.32,1685.79,1903.32
830,-3.8745,-0.8649,-1.3832,1664.31,1029.54,1856.51
840,-3.8745,-0.8611,-1.3208,1304.93,-1032.96,-377.75
850,-3.8744,-0.8561,-1.3090,1789.31,-1048.58,59.88
860,-3.8744,-0.8632,-1.3635,-1570.07,467.04,13.06
870,-3.8745,-0.9039,-1.4729,1523.68,1482.67,-1190.19
880,-3.8746,-0.9907,-1.5913,304.93,-517.40,-1815.43
890,-3.8749,-1.1149,-1.6752,1195.56,326.17,1168.76
900,-3.8440,-1.2452,-1.7062,1304.93,1591.55,-1597.05
910,-3.8442,-1.3442,-1.7043,617.43,1622.56,1996.64
920,-3.8444,-1.4080,-1.7119,-54.44,1856.69,1512.27
930,-3.8444,-1.4591,-1.7848,-210.69,887.82,1512.27
940,-3.8442,-1.5009,-1.9482,1242.43,-440.37,-1597.29
950,-3.8440,-1.5106,-2.1473,-101.32,-1362.37,-441.35
960,-3.8749,-1.4911,-2.3157,-1351.32,1153.26,-519.84
970,-3.8744,-1.4884,-2.4443,1148.68,-393.55,323.55
980,-3.8740,-1.5227,-2.5406,1492.43,-862.30,1807.68
990,-3.8735,-1.5519,-2.5923,1101.81,-1190.49,26.25
1000,-3.8732,-1.5320,-2.6154,1367.43,200.07,463.68
1010,-3.8730,-1.4806,-2.6500,-85.69,1246.95,-114.50
1020,-3.8729,-1.4530,-2.6984,-1507.57,809.57,1494.81
1030,-3.8730,-1.4817,-2.7390,-1976.32,-1377.87,-1989.69
1040,-3.8733,-1.5673,-2.7754,-1648.19,1418.95,-1942.87
1050,-3.8737,-1.6902,-2.8610,-601.32,762.51,-271.06
1060,-3.8739,-1.8036,-3.0881,-335.69,1809.14,-286.87
1070,-3.8739,-1.8253,-3.4971,1148.68,730.83,-740.42
1080,-3.8735,-1.6658,-3.9043,-1632.57,387.02,1821.29
1090,-3.8730,-1.3207,-4.0000,-1210.69,262.33,-1617.00
1100,-3.8728,-0.8871,-4.0000,-1038.82,13.00,1726.56
1110,-3.8733,-0.4937,-4.0000,-1538.82,13.85,-1804.69
1120,-3.8744,-0.2227,-3.8088,820.56,14.65,1398.44
1130,-3.8444,-0.0343,-3.4918,-491.94,483.89,-163.70
1140,-3.8448,0.1376,-3.2136,-382.57,1062.38,-22.46
1150,-3.8444,0.2959,-3.0588,1617.43,656.49,1790.59
1160,-3.8745,0.4111,-2.9835,1883.06,469.30,447.14
1170,-3.8734,0.4340,-2.9331,633.06,-1889.83,1134.77
1180,-3.8727,0.3191,-2.9049,-445.07,563.29,-365.11
1190,-3.8722,0.0785,-2.8914,851.81,172.49,-818.18
1200,-3.8719,-0.1949,-2.8557,-1945.07,1906.37,416.20
1210,-3.8722,-0.4116,-2.7832,-945.07,-1516.05,-1489.99
1220,-3.8726,-0.5525,-2.6998,-679.44,-235.23,1244.51
1230,-3.8730,-0.6398,-2.6372,1289.31,-1563.60,-1552.19
1240,-3.8734,-0.6863,-2.5950,-1882.57,-1548.16,1322.94
1250,-3.8738,-0.6796,-2.5656,164.31,-141.97,-1052.00
1260,-3.8739,-0.6095,-2.5529,1023.68,-376.34,41.81
1270,-3.8740,-0.5061,-2.5448,1992.43,1248.78,1963.75
1280,-3.8740,-0.4064,-2.5114,-773.19,-1719.79,-551.88
1290,-3.8740,-0.3132,-2.4312,-7.57,-1438.35,-114.32
1300,-3.8740,-0.2222,-2.3047,-85.69,827.45,42.11
1310,-3.8743,-0.1421,-2.1431,-429.44,1015.14,573.61
1320,-3.8746,-0.0818,-1.9591,1820.56,1702.82,-457.34
1330,-3.8749,-0.0342,-1.7695,1539.31,1249.82,-1222.60
1340,-3.8439,0.0107,-1.5861,-366.94,1515.50,-50.35
1350,-3.8440,0.0624,-1.4233,1383.06,984.38,-503.11
1360,-3.8440,0.1270,-1.3011,-7.57,1812.56,919.07
1370,-3.8440,0.1987,-1.2211,258.06,1453.37,403.69
1380,-3.8440,0.2675,-1.1685,1445.56,-296.51,1403.81
1390,-3.8440,0.3230,-1.1251,-1757.57,-1562.01,-1533.57
1400,-3.8440,0.3586,-1.0736,1351.81,-15.01,-1705.38
1410,-3.8441,0.3707,-1.0037,1914.31,-1421.20,-611.51
1420,-3.8442,0.3663,-0.9213,-538.82,-468.08,1810.49
1430,-3.8445,0.3636,-0.8510,-1101.32,-1921.20,-17.46
1440,-3.8446,0.3711,-0.8104,-1445.07,-921.20,-548.58
1450,-3.8446,0.3851,-0.7963,-491.94,266.30,373.41
1460,-3.8447,0.4047,-0.8002,1304.93,-1921.14,-1376.59
1470,-3.8447,0.4294,-0.8145,-195.07,1578.86,1435.91
1480,-3.8447,0.4525,-0.8335,-1023.19,-249.21,138.98
1490,-3.8448,0.4597,-0.8727,1929.93,1313.35,-1064.15
1500,-3.8448,0.4407,-0.9320,-1148.19,297.73,-1329.83
1510,-3.8448,0.4008,-0.9740,414.31,703.98,-1564.33
1520,-3.8448,0.3489,-0.9784,-695.07,-671.14,357.42
1530,-3.8450,0.2888,-0.9514,664.31,-1233.70,591.80
1540,-3.8451,0.2249,-0.9053,976.81,-1780.70,513.73
1550,-3.8452,0.1619,-0.8536,789.31,125.43,716.98
1560,-3.8453,0.0974,-0.8085,726.81,-1265.32,670.17
1570,-3.8456,0.0159,-0.7791,476.81,515.81,-282.84
1580,-3.8457,-0.0966,-0.7726,-1960.69,281.25,-1829.65
1590,-3.8458,-0.2335,-0.7885,-351.32,1124.76,1139.10
1600,-3.8459,-0.3679,-0.8182,-1882.57,-906.74,1951.54
1610,-3.8459,-0.4719,-0.8307,914.31,-719.48,1170.23
1620,-3.8459,-0.5302,-0.7849,-398.19,1686.52,1029.60
1630,-3.8461,-0.5541,-0.6909,148.68,-454.16,-1095.34
1640,-3.8462,-0.5837,-0.5985,1086.18,-422.97,1936.10
1650,-3.8464,-0.6511,-0.5377,1289.31,-594.91,-63.72
1660,-3.8464,-0.7450,-0.5212,664.31,-813.78,1030.15
1670,-3.8463,-0.8281,-0.5535,648.68,1295.41,483.34
1680,-3.8461,-0.8862,-0.6139,-1991.94,1170.23,1702.03
1690,-3.8457,-0.9209,-0.6664,-1429.44,1435.73,1248.78
1700,-3.8453,-0.9211,-0.7085,-1866.94,-1283.08,154.91
1710,-3.8451,-0.8921,-0.7732,-1898.19,1326.29,1811.10
1720,-3.8448,-0.8627,-0.8766,1820.56,1045.10,-985.90
1730,-3.8445,-0.8701,-1.0186,1586.18,-189.21,1435.73
1740,-3.8441,-0.9393,-1.1836,633.06,1638.92,-1377.01
1750,-3.8748,-1.0293,-1.3058,-226.32,513.73,700.81
1760,-3.8741,-1.0728,-1.3319,258.06,872.99,1888.06
1770,-3.8737,-1.0573,-1.2566,-1304.44,1529.11,1372.38
1780,-3.8734,-1.0002,-1.1323,679.93,-830.20,-1455.63
1790,-3.8732,-0.9520,-1.0726,-23.19,-923.89,-955.38
1800,-3.8729,-0.9956,-1.1316,-1851.32,-1283.14,-1595.89
1810,-3.8727,-1.1499,-1.2603,570.56,-830.08,950.87
1820,-3.8724,-1.3428,-1.3774,820.56,-1299.13,1169.37
1830,-3.8722,-1.4883,-1.4348,133.06,-299.50,1262.88
1840,-3.8721,-1.5220,-1.4193,1508.06,356.45,-18.43
1850,-3.8717,-1.4347,-1.3766,1195.56,-1659.24,1075.32
1860,-3.8713,-1.3063,-1.3866,367.43,-190.31,434.75
1870,-3.8711,-1.2389,-1.4556,804.93,-1471.31,731.63
1880,-3.8710,-1.2520,-1.5098,1429.93,1700.68,434.63
1890,-3.8710,-1.2922,-1.5126,-241.94,-1236.88,1528.26
1900,-3.8711,-1.3262,-1.5028,-1398.19,-1596.31,-1534.24
1910,-3.8713,-1.3247,-1.4990,-1741.94,-346.37,-190.49
1920,-3.8713,-1.2584,-1.5325,-1554.44,138.00,-1393.55
1930,-3.8711,-1.1588,-1.6422,-1070.07,-143.13,-1159.30
1940,-3.8706,-1.0863,-1.7928,-320.07,1810.18,699.89
1950,-3.8701,-1.0599,-1.9036,961.18,-1470.89,1371.46
1960,-3.8696,-1.0509,-1.9340,336.18,357.30,-456.85
1970,-3.8690,-1.0367,-1.9447,1492.43,466.67,777.47
1980,-3.8687,-1.0197,-1.9838,-695.07,-908.33,-1769.47
1990,-3.8684,-1.0005,-2.0237,1492.43,-1908.26,-394.53
2000,-3.8682,-0.9775,-2.0537,-54.44,982.36,1292.91
2010,-3.8680,-0.9469,-2.1028,-1116.94,1138.67,74.10
2020,-3.8680,-0.8981,-2.1893,-1195.07,-1142.52,-1988.53
2030,-3.8680,-0.8347,-2.2805,1054.93,-220.52,-660.58
2040,-3.8680,-0.7725,-2.3322,1164.31,107.73,-1863.83
2050,-3.8682,-0.7166,-2.3567,1133.06,1498.47,979.80
2060,-3.8684,-0.6650,-2.3867,289.31,-1642.03,42.24
2070,-3.8688,-0.6115,-2.4227,-1116.94,-1485.72,-692.20
2080,-3.8689,-0.5482,-2.4690,1742.43,1905.03,-848.51
2090,-3.8688,-0.4716,-2.5446,1836.18,-16.72,57.62
2100,-3.8687,-0.3892,-2.6467,-351.32,-1688.48,651.25
2110,-3.8685,-0.3224,-2.7440,-1804.44,1233.58,-880.19
2120,-3.8684,-0.2753,-2.7833,-1257.57,780.58,-583.50
2130,-3.8685,-0.2379,-2.7365,773.68,-250.55,-380.49
2140,-3.8689,-0.1993,-2.6305,1554.93,1749.51,-1567.87
2150,-3.8694,-0.1429,-2.5071,-1507.57,-687.93,791.69
2160,-3.8700,-0.0620,-2.3890,1711.18,-890.93,-958.07
2170,-3.8705,0.0317,-2.2823,70.56,-1781.37,-1176.57
2180,-3.8708,0.1252,-2.1747,70.56,-140.56,1323.61
2190,-3.8711,0.2256,-2.0540,39.31,1640.87,151.98
2200,-3.8712,0.3461,-1.9496,883.06,1094.18,449.10
2210,-3.8712,0.4801,-1.9004,304.93,-1546.20,-1972.60
2220,-3.8711,0.6072,-1.8828,1461.18,750.92,-363.10
2230,-3.8708,0.7079,-1.8345,1726.81,-998.84,-1738.10
2240,-3.8707,0.7722,-1.7288,-1382.57,1188.84,855.77
2250,-3.8708,0.8082,-1.5823,-1148.19,-1279.79,262.21
2260,-3.8712,0.8286,-1.4247,-538.82,1470.28,1668.76
2270,-3.8716,0.8365,-1.2809,-1929.44,1642.21,356.57
2280,-3.8721,0.8265,-1.1625,-913.82,48.46,-1221.25
2290,-3.8724,0.7893,-1.0773,1804.93,-795.29,-1627.32
2300,-3.8727,0.7255,-1.0282,1039.31,-1889.10,575.99
2310,-3.8729,0.6417,-1.0023,867.43,392.03,-1970.76
2320,-3.8730,0.5468,-0.9814,-1851.32,-295.65,-1986.39
2330,-3.8732,0.4572,-0.9489,1992.43,-1623.96,-1345.70
2340,-3.8733,0.3894,-0.8961,-1476.32,-1452.27,-1392.52
2350,-3.8734,0.3497,-0.8286,1851.81,1297.61,1685.73
2360,-3.8735,0.3334,-0.7552,773.68,1938.17,279.60
2370,-3.8738,0.3323,-0.6816,-1320.07,-671.26,-1173.40
2380,-3.8739,0.3386,-0.6104,-1460.69,750.61,1092.41
2390,-3.8741,0.3478,-0.5442,-648.19,1875.61,-1235.60
2400,-3.8744,0.3585,-0.4807,523.68,-1655.58,-407.35
2410,-3.8746,0.3704,-0.4167,1898.68,-1530.58,-454.10
2420,-3.8749,0.3829,-0.3590,-585.69,-1343.08,-500.85
2430,-3.8750,0.3965,-0.3123,1023.68,-1952.39,202.39
2440,-3.8440,0.4102,-0.2732,-1241.94,31.98,1390.01
2450,-3.8442,0.4203,-0.2350,508.06,1032.04,-1578.67
2460,-3.8445,0.4160,-0.1975,1804.93,1922.67,-812.99
2470,-3.8446,0.3931,-0.1646,1258.06,-1280.46,327.70
2480,-3.8448,0.3591,-0.1350,-1679.44,-1061.77,-1422.24
2490,-3.8450,0.3198,-0.1079,1976.81,-1280.58,-1578.43
2500,-3.8451,0.2784,-0.0834,945.56,-1811.89,-453.37
2510,-3.8451,0.2362,-0.0643,-351.32,1328.61,984.19
2520,-3.8452,0.1935,-0.0549,-1757.57,-233.95,-1687.68
2530,-3.8453,0.1493,-0.0544,773.68,969.12,-781.37
2540,-3.8455,0.1027,-0.0609,-882.57,1031.49,-218.87
2550,-3.8455,0.0574,-0.0729,1148.68,203.31,234.25
2560,-3.8456,0.0173,-0.0828,-648.19,-1328.06,327.94
2570,-3.8457,-0.0177,-0.0836,-1773.19,1406.25,624.82
2580,-3.8458,-0.0472,-0.0789,1742.43,1312.44,1062.32
2590,-3.8459,-0.0806,-0.0780,1961.18,1921.75,281.07
2600,-3.8462,-0.1393,-0.0961,1695.56,-1968.93,-1250.18
2610,-3.8463,-0.2300,-0.1318,-1820.07,-281.56,-1750.24
2620,-3.8463,-0.3325,-0.1589,-1429.44,-859.86,93.44
2630,-3.8463,-0.4191,-0.1755,1445.56,-328.80,1515.26
2640,-3.8462,-0.4874,-0.2180,-1632.57,1546.02,-1984.74
2650,-3.8461,-0.5542,-0.3159,1617.43,108.40,-828.55
2660,-3.8459,-0.6217,-0.4661,1070.56,-422.97,-141.30
2670,-3.8457,-0.6873,-0.6348,429.93,358.15,530.33
2680,-3.8456,-0.7526,-0.7668,39.31,-1235.72,1951.84
2690,-3.8455,-0.8207,-0.8153,-320.07,1857.85,-251.53
2700,-3.8453,-0.8962,-0.7761,-1038.82,-345.40,-1.65
2710,-3.8452,-0.9752,-0.7075,1289.31,670.10,1560.97
2720,-3.8452,-1.0459,-0.6876,-820.07,1451.17,217.35
2730,-3.8453,-1.0989,-0.7457,-1866.94,-2.08,1498.60
2740,-3.8453,-1.1288,-0.8467,-648.19,560.30,295.41
2750,-3.8453,-1.1257,-0.9427,-476.32,-361.63,-1798.58
2760,-3.8452,-1.0883,-1.0096,-85.69,-658.51,1951.23
2770,-3.8451,-1.0377,-1.0044,711.18,-1220.89,-1095.76
2780,-3.8447,-1.0122,-0.9526,-820.07,-548.95,419.86
2790,-3.8444,-1.0415,-0.9750,-1554.44,-1923.89,1138.73
2800,-3.8441,-1.1270,-1.1284,-1304.44,-783.33,-751.95
2810,-3.8439,-1.2565,-1.3469,-241.94,-424.13,607.12
2820,-3.8439,-1.4115,-1.5209,-820.07,-393.13,591.06
2830,-3.8441,-1.5581,-1.5963,-663.82,1340.94,1231.38
2840,-3.8446,-1.6575,-1.6071,570.56,-315.55,-1925.05
2850,-3.8452,-1.7037,-1.5868,-148.19,-1690.80,-721.92
2860,-3.8456,-1.7147,-1.5526,1929.93,902.89,-1581.24
2870,-3.8456,-1.7091,-1.5599,523.68,1277.89,231.32
2880,-3.8455,-1.7017,-1.6603,1242.43,340.39,731.32
2890,-3.8453,-1.6835,-1.8398,-1804.44,-503.36,-50.17
2900,-3.8451,-1.6440,-2.0120,523.68,512.33,-1269.23
2910,-3.8450,-1.5874,-2.1166,1570.56,-1518.86,-503.97
2920,-3.8448,-1.5100,-2.1707,820.56,1090.64,-1722.90
2930,-3.8448,-1.4133,-2.2126,-1273.19,-1831.12,-676.15
2940,-3.8448,-1.3251,-2.2622,-898.19,794.07,-1816.83
2950,-3.8450,-1.2802,-2.3119,-1601.32,-1549.50,1979.92
2960,-3.8452,-1.2953,-2.3536,148.68,91.25,-1692.02
2970,-3.8456,-1.3724,-2.3948,-1788.82,-1252.56,-1973.39
2980,-3.8461,-1.5280,-2.4229,336.18,1481.69,1167.18
2990,-3.8466,-1.7825,-2.4330,429.93,1887.63,-864.14
3000,-3.8464,-2.0928,-2.5573,-148.19,590.21,88.99
3010,-3.8459,-2.3479,-2.8989,133.06,683.41,448.12
3020,-3.8452,-2.4127,-3.3048,-523.19,948.49,103.70
3030,-3.8446,-2.2291,-3.5448,-820.07,995.24,1696.66
3040,-3.8444,-1.8918,-3.5188,-1320.07,-1723.14,493.04
3050,-3.8448,-1.5444,-3.2911,1851.81,1605.65,-460.02
3060,-3.8456,-1.2533,-3.0187,-1679.44,-1253.05,-1803.34
3070,-3.8463,-1.0145,-2.8013,-413.82,1622.50,790.95
3080,-3.8468,-0.8424,-2.6099,-1851.32,1451.11,-1802.37
3090,-3.8467,-0.7866,-2.4362,179.93,1951.48,-1755.13
3100,-3.8461,-0.8279,-2.3218,-679.44,185.91,-911.01
3110,-3.8452,-0.8857,-2.2529,-1960.69,-1173.52,-1176.45
3120,-3.8444,-0.9409,-2.1948,-1366.94,-361.15,-613.83
3130,-3.8748,-1.0256,-2.1094,-429.44,-923.77,839.42
3140,-3.8743,-1.1572,-1.9670,726.81,-1986.39,464.60
3150,-3.8744,-1.3240,-1.7845,-116.94,232.06,-238.22
3160,-3.8749,-1.4928,-1.6171,-1460.69,-408.87,-144.17
3170,-3.8442,-1.6365,-1.5331,929.93,1028.32,-1721.92
3180,-3.8447,-1.7568,-1.5624,-1460.69,-221.98,778.20
3190,-3.8451,-1.8746,-1.6598,-866.94,27.77,-331.18
3200,-3.8451,-1.9872,-1.7506,54.93,-441.16,-1487.67
3210,-3.8450,-2.0570,-1.7828,1648.68,-66.41,1887.15
3220,-3.8448,-2.0459,-1.7390,711.18,-191.53,871.46
3230,-3.8448,-1.9512,-1.6492,-1866.94,1417.85,309.08
3240,-3.8450,-1.8210,-1.5668,-1741.94,918.03,1465.52
3250,-3.8450,-1.7094,-1.5084,-1085.69,-534.85,59.39
3260,-3.8450,-1.6392,-1.4596,1211.18,-1065.86,-1377.99
3270,-3.8448,-1.6107,-1.4053,-1804.44,1184.27,-471.62
3280,-3.8447,-1.6060,-1.3379,1836.18,137.45,-1596.50
3290,-3.8447,-1.5988,-1.2650,-1554.44,762.45,997.38
3300,-3.8448,-1.5820,-1.2115,-632.57,-1909.42,716.25
3310,-3.8450,-1.5574,-1.1906,1508.06,934.39,638.24
3320,-3.8451,-1.5161,-1.1803,664.31,-378.05,-1205.51
3330,-3.8451,-1.4454,-1.1708,1945.56,934.51,-1096.07
3340,-3.8450,-1.3390,-1.1786,-1007.57,-1846.62,435.18
3350,-3.8450,-1.1958,-1.2090,617.43,1153.63,-64.82
3360,-3.8447,-1.0209,-1.2462,-1054.44,1263.24,903.87
3370,-3.8446,-0.8558,-1.2817,1336.18,497.99,1060.06
3380,-3.8446,-0.7451,-1.3068,-1538.82,-48.58,-1393.19
3390,-3.8446,-0.6792,-1.3169,633.06,748.54,-1736.94
3400,-3.8446,-0.6252,-1.3221,1070.56,-548.22,716.13
3410,-3.8447,-0.5609,-1.3311,-23.19,-1220.03,856.75
3420,-3.8450,-0.4867,-1.3486,211.18,1639.53,-1580.75
3430,-3.8452,-0.4215,-1.3583,1711.18,-610.35,-1080.81
3440,-3.8455,-0.3727,-1.3362,-1945.07,-1844.60,-705.81
3450,-3.8457,-0.3376,-1.2943,304.93,983.64,-893.25
3460,-3.8459,-0.3315,-1.2635,789.31,-1656.92,-1361.94
3470,-3.8461,-0.3633,-1.2332,1570.56,-1719.42,231.87
3480,-3.8462,-0.3969,-1.1729,1508.06,-1828.86,1544.43
3490,-3.8462,-0.3953,-1.0869,1211.18,1889.83,732.06
3500,-3.8463,-0.3624,-0.9889,1414.31,889.83,-455.26
3510,-3.8463,-0.3170,-0.8754,1617.43,1436.77,1732.42
3520,-3.8464,-0.2697,-0.7463,-570.07,-31.92,-95.52
3530,-3.8464,-0.2120,-0.6185,1492.43,483.83,-1001.46
3540,-3.8464,-0.1312,-0.5032,867.43,843.32,-1032.47
3550,-3.8464,-0.0253,-0.3927,-788.82,-390.93,-1829.16
3560,-3.8466,0.1021,-0.2883,773.68,1749.94,-1016.42
3570,-3.8468,0.2341,-0.1891,1070.56,-906.07,-375.61
3580,-3.8472,0.3265,-0.0653,1976.81,-202.70,-922.30
3590,-3.8477,0.3260,0.0846,1804.93,-358.76,-1453.31
3600,-3.8481,0.2241,0.2274,1742.43,-1171.26,906.37
3610,-3.8486,0.0723,0.3392,695.56,1109.80,-1952.70
3620,-3.8489,-0.0669,0.4072,1258.06,-578.00,344.36
3630,-3.8491,-0.1797,0.4163,-554.44,140.44,-717.96
3640,-3.8491,-0.2922,0.3540,1008.06,1296.51,-1092.96
3650,-3.8489,-0.4111,0.2310,-1398.19,1327.51,516.30
3660,-3.8486,-0.5156,0.0753,-616.94,1577.27,-921.45
3670,-3.8481,-0.5884,-0.1001,-1991.94,1655.21,1172.00
3680,-3.8477,-0.6399,-0.2891,695.56,-798.03,-1515.87
3690,-3.8470,-0.6829,-0.4442,-1898.19,-985.66,-563.11
3700,-3.8463,-0.6826,-0.5269,601.81,-845.09,-829.04
3710,-3.8457,-0.6198,-0.5510,633.06,576.78,-751.04
3720,-3.8453,-0.5474,-0.5494,679.93,1483.15,936.40
3730,-3.8455,-0.5272,-0.5530,1945.56,1686.40,-626.10
3740,-3.8457,-0.5889,-0.5812,523.68,1233.34,-1672.97
3750,-3.8461,-0.7268,-0.6305,633.06,1623.84,-1907.41
3760,-3.8464,-0.9006,-0.6772,-1023.19,-688.96,1451.84
3770,-3.8468,-1.0707,-0.7311,726.81,1326.35,-751.34
3780,-3.8469,-1.2094,-0.7939,-1038.82,-1564.64,-329.59
3790,-3.8466,-1.2864,-0.8440,1211.18,-1611.76,701.54
3800,-3.8459,-1.3070,-0.9347,-648.19,-18.19,529.54
3810,-3.8453,-1.3082,-1.1218,711.18,372.44,904.42
3820,-3.8448,-1.2914,-1.3477,554.93,419.31,544.68
3830,-3.8446,-1.2538,-1.5231,-1288.82,-486.94,1606.69
3840,-3.8446,-1.2352,-1.5813,-476.32,1060.00,1637.63
3850,-3.8447,-1.2415,-1.5137,1898.68,1606.93,1356.26
3860,-3.8447,-1.2323,-1.4382,1101.81,-1736.82,559.51
3870,-3.8447,-1.2041,-1.4717,-1726.32,-80.57,-987.24
3880,-3.8446,-1.1890,-1.6157,1883.06,-361.76,-1846.68
3890,-3.8445,-1.2098,-1.8136,-179.44,1200.74,903.08
3900,-3.8445,-1.2664,-2.0034,1148.68,-127.38,324.52
3910,-3.8447,-1.3547,-2.1456,1914.31,-424.38,1621.03
3920,-3.8451,-1.4806,-2.2178,-1398.19,1372.31,-863.59
3930,-3.8452,-1.6168,-2.2585,-1507.57,137.70,1573.79
3940,-3.8451,-1.7249,-2.3999,1054.93,-1081.30,1011.17
3950,-3.8448,-1.7954,-2.6852,-773.19,824.71,1323.43
3960,-3.8445,-1.8365,-2.9794,-1804.44,308.96,-1989.62
3970,-3.8440,-1.8712,-3.1508,929.93,-1347.35,-1224.61
3980,-3.8748,-1.9266,-3.1881,492.43,715.09,-1443.66
3990,-3.8744,-2.0034,-3.1514,1398.68,-66.28,-1834.41
4000,-3.8741,-2.0707,-3.0950,-429.44,636.66,-1724.91
4010,-3.8740,-2.1069,-3.0651,-1038.82,-144.71,-1631.10
4020,-3.8741,-2.1375,-3.1150,-1679.44,-316.65,-474.79
4030,-3.8744,-2.2555,-3.2531,-1585.69,1292.66,1868.90
4040,-3.8749,-2.5342,-3.4352,-695.07,-379.46,-881.41
4050,-3.8442,-2.9447,-3.6227,-366.94,307.50,837.04
4060,-3.8451,-3.3646,-3.8198,-913.82,306.70,-960.21
4070,-3.8455,-3.6312,-3.9808,1336.18,-928.47,-1632.51
4080,-3.8451,-3.6736,-4.0000,-788.82,-1538.39,-1882.81
4090,-3.8442,-3.5316,-4.0000,1789.31,8.42,-617.19
4100,-3.8746,-3.2388,-4.0000,-38.82,8.67,-429.69
4110,-3.8743,-2.8251,-3.9950,1445.56,9.28,1617.19
4120,-3.8748,-2.3689,-3.9956,-1601.32,650.70,-1210.94
4130,-3.8445,-1.9640,-3.9989,789.31,573.49,-710.94
4140,-3.8453,-1.6658,-4.0000,617.43,152.40,164.06
4150,-3.8458,-1.4501,-4.0000,-1210.69,12.33,789.06
4160,-3.8457,-1.2856,-3.9581,-1601.32,12.76,-1351.56
4170,-3.8451,-1.1960,-3.7953,-554.44,1372.44,1523.50
4180,-3.8445,-1.1943,-3.5258,-1085.69,-1783.63,1711.30
4190,-3.8440,-1.2474,-3.2557,-866.94,716.37,-1928.77
4200,-3.8749,-1.3005,-3.0375,336.18,-721.19,-850.16
4210,-3.8746,-1.3154,-2.8405,1539.31,-783.81,-427.86
4220,-3.8746,-1.2983,-2.6416,-366.94,434.88,-880.55
4230,-3.8749,-1.2688,-2.4640,1820.56,1888.06,-1192.69
4240,-3.8439,-1.2225,-2.3232,1601.81,622.50,1088.93
4250,-3.8441,-1.1499,-2.2019,-476.32,-1361.82,-1988.95
4260,-3.8442,-1.0504,-2.0714,820.56,-1830.38,542.54
4270,-3.8445,-0.9297,-1.9202,1554.93,-1127.08,-1769.71
4280,-3.8447,-0.7994,-1.7649,1008.06,-1767.46,-378.78
4290,-3.8448,-0.6755,-1.6184,1679.93,-1892.21,-847.23
4300,-3.8448,-0.5736,-1.4783,1539.31,858.03,-1440.67
4310,-3.8447,-0.4924,-1.3406,-1413.82,-1204.28,1731.45
4320,-3.8446,-0.4237,-1.2188,976.81,420.90,-580.75
4330,-3.8444,-0.3691,-1.1361,1773.68,14.77,-1736.76
4340,-3.8441,-0.3171,-1.1000,758.06,-1406.98,1763.37
4350,-3.8439,-0.2413,-1.0837,-585.69,-781.92,1857.18
4360,-3.8749,-0.1311,-1.0428,1117.43,1296.39,575.99
4370,-3.8749,-0.0024,-0.9675,-773.19,-1469.06,-1064.58
4380,-3.8749,0.1183,-0.8868,-304.44,171.81,154.36
4390,-3.8439,0.2123,-0.8337,-851.32,-1515.44,-1908.02
4400,-3.8441,0.2742,-0.8171,-820.07,1281.62,-157.90
4410,-3.8442,0.3003,-0.8346,-898.19,-593.26,-782.90
4420,-3.8442,0.2852,-0.8647,-1554.44,1172.42,701.48
4430,-3.8442,0.2451,-0.8760,508.06,1313.05,248.29
4440,-3.8442,0.1868,-0.8727,-616.94,-124.57,1107.60
4450,-3.8442,0.0953,-0.8556,-85.69,297.18,-1236.08
4460,-3.8441,-0.0125,-0.8175,211.18,-1515.44,1420.17
4470,-3.8440,-0.1099,-0.7877,-1585.69,-625.06,1529.60
4480,-3.8439,-0.1985,-0.7908,1945.56,-812.74,-782.84
4490,-3.8749,-0.2665,-0.8032,-1398.19,-1203.55,-1782.84
4500,-3.8746,-0.2756,-0.8000,1898.68,1202.58,-1501.59
4510,-3.8744,-0.1945,-0.7865,726.81,1608.83,-985.96
4520,-3.8743,-0.0198,-0.7573,-882.57,-656.68,-954.71
4530,-3.8744,0.2076,-0.6923,1476.81,-921.94,1701.60
4540,-3.8749,0.4105,-0.5781,-1413.82,-609.01,-1813.90
4550,-3.8444,0.5265,-0.4272,554.93,-1999.21,-313.66
4560,-3.8451,0.5366,-0.2842,-601.32,1313.48,-1407.10
4570,-3.8458,0.4587,-0.2068,695.56,-373.96,-688.11
4580,-3.8463,0.3079,-0.2225,-1273.19,1532.10,702.70
4590,-3.8468,0.0953,-0.2916,-585.69,-483.83,-484.86
4600,-3.8470,-0.1212,-0.3490,211.18,-1327.94,-406.86
4610,-3.8470,-0.2782,-0.3744,492.43,-656.49,139.89
4620,-3.8470,-0.3635,-0.3750,398.68,93.20,608.64
4630,-3.8470,-0.4224,-0.3499,1476.81,14.89,-406.98
4640,-3.8469,-0.5123,-0.3051,1945.56,-766.48,1671.14
4650,-3.8470,-0.6470,-0.2568,-1570.07,967.71,-188.11
4660,-3.8472,-0.8015,-0.2332,1195.56,-860.66,-1438.05
4670,-3.8473,-0.9423,-0.2610,1414.31,-1829.71,624.51
4680,-3.8474,-1.0144,-0.3413,-601.32,-1392.52,-1531.80
4690,-3.8472,-0.9691,-0.4766,-1835.69,326.11,171.20
4700,-3.8468,-0.8322,-0.6556,-38.82,-986.33,1280.27
4710,-3.8463,-0.6863,-0.8246,1492.43,92.10,-1907.53
4720,-3.8458,-0.5945,-0.9374,164.31,-1532.59,-1142.27
4730,-3.8453,-0.5543,-0.9976,-85.69,30.03,1748.17
4740,-3.8450,-0.5452,-1.0360,1054.93,327.03,1091.80
4750,-3.8448,-0.6007,-1.0824,-1773.19,-594.85,-1252.08
4760,-3.8448,-0.7592,-1.1464,-882.57,1467.53,1185.36
4770,-3.8452,-0.9967,-1.2244,-1163.82,1279.72,-221.01
4780,-3.8457,-1.2668,-1.2985,429.93,-705.08,-33.69
4790,-3.8461,-1.5072,-1.3077,1851.81,1810.00,997.44
4800,-3.8461,-1.6213,-1.2969,-913.82,622.01,434.94
4810,-3.8456,-1.5901,-1.4141,476.81,-1987.55,247.44
4820,-3.8450,-1.4897,-1.6503,476.81,-987.49,1934.69
4830,-3.8444,-1.3904,-1.8674,1320.56,778.32,-1925.11
4840,-3.8440,-1.3477,-1.9646,-1960.69,981.63,918.21
4850,-3.8441,-1.3782,-1.9131,-491.94,544.19,1402.40
4860,-3.8445,-1.4163,-1.7892,-398.19,-862.12,-191.28
4870,-3.8446,-1.3838,-1.7412,-1273.19,-1002.81,-144.17
4880,-3.8445,-1.2914,-1.8416,-1116.94,1137.88,-1519.04
4890,-3.8444,-1.2346,-2.0308,-1288.82,294.31,1199.52
4900,-3.8444,-1.2778,-2.2087,1976.81,75.68,1402.28
4910,-3.8444,-1.4017,-2.3257,445.56,1294.37,964.42
4920,-3.8444,-1.5391,-2.4043,586.18,-1674.62,1386.05
4930,-3.8444,-1.6115,-2.4917,-991.94,262.57,-176.57
4940,-3.8442,-1.5869,-2.5979,1742.43,1074.95,-36.13
4950,-3.8440,-1.5059,-2.6935,883.06,-518.74,198.00
4960,-3.8440,-1.4458,-2.7485,-741.94,-752.99,-677.19
4970,-3.8440,-1.4482,-2.7750,-1054.44,200.26,-83.50
4980,-3.8441,-1.5044,-2.8036,-1366.94,809.63,-380.43
4990,-3.8444,-1.5966,-2.8462,-554.44,1153.26,-489.87
5000,-3.8446,-1.7000,-2.8966,-351.32,-300.05,-1286.87
5010,-3.8448,-1.7957,-2.9531,-1585.69,1246.64,-724.43
5020,-3.8450,-1.8955,-3.0233,-1835.69,-1987.92,-5.80
5030,-3.8448,-2.0204,-3.0928,1383.06,1027.53,-1755.92
5040,-3.8447,-2.1631,-3.1385,1398.68,136.66,-6.04
5050,-3.8445,-2.3282,-3.1683,-866.94,-1723.02,1071.96
5060,-3.8446,-2.5739,-3.2404,1992.43,-1535.83,-271.85
5070,-3.8448,-2.9126,-3.4506,-1445.07,1244.93,1384.28
5080,-3.8452,-3.2158,-3.7777,-804.44,-1661.99,461.98
5090,-3.8455,-3.2787,-4.0000,383.06,462.46,1211.36
5100,-3.8455,-3.0123,-4.0000,336.18,9.22,914.06
5110,-3.8455,-2.5125,-4.0000,-1570.07,9.70,-1429.69
5120,-3.8456,-1.9362,-4.0000,-1585.69,10.68,-1554.69
5130,-3.8459,-1.4127,-3.9733,179.93,11.84,351.56
5140,-3.8466,-1.0242,-3.8409,-820.07,-565.31,-1914.06
5150,-3.8468,-0.7905,-3.5376,914.31,372.99,-835.63
5160,-3.8463,-0.6868,-3.1986,-1179.44,-798.46,-1756.96
5170,-3.8453,-0.6908,-2.9727,101.81,-1407.59,1274.96
5180,-3.8444,-0.8065,-2.8768,-413.82,-485.78,1884.77
5190,-3.8749,-1.0138,-2.8422,773.68,-220.34,-708.80
5200,-3.8744,-1.2249,-2.7687,-1757.57,216.74,-1036.80
5210,-3.8743,-1.3701,-2.5988,-773.19,1622.56,-1036.68
5220,-3.8745,-1.4626,-2.3754,633.06,-627.69,-1630.13
5230,-3.8750,-1.5394,-2.1923,789.31,-34.12,1589.05
5240,-3.8442,-1.5986,-2.1057,-1038.82,-596.80,980.04
5250,-3.8446,-1.6099,-2.1029,-616.94,-1518.80,1589.60
5260,-3.8448,-1.5511,-2.1240,1945.56,-1159.42,-879.15
5270,-3.8450,-1.4252,-2.1099,1461.18,137.57,-894.78
5280,-3.8451,-1.2455,-2.0551,1586.18,1950.32,-910.40
5290,-3.8452,-1.0265,-1.9930,586.18,966.31,-707.15
5300,-3.8452,-0.7930,-1.9391,617.43,904.24,-722.66
5310,-3.8450,-0.5706,-1.8757,-1491.94,-189.09,1636.78
5320,-3.8447,-0.3737,-1.7773,-1023.19,-79.28,-50.60
5330,-3.8444,-0.1984,-1.6338,179.93,514.89,371.52
5340,-3.8442,-0.0322,-1.4626,-1382.57,-1109.80,153.02
5350,-3.8442,0.1223,-1.3032,-116.94,796.75,1309.63
5360,-3.8442,0.2512,-1.1804,-335.69,1187.68,-1502.56
5370,-3.8441,0.3387,-1.0973,164.31,906.74,513.31
5380,-3.8441,0.3774,-1.0515,-632.57,-452.51,-814.70
5390,-3.8440,0.3752,-1.0455,320.56,1406.98,-1939.58
5400,-3.8439,0.3441,-1.0717,39.31,-1827.39,122.92
5410,-3.8439,0.2875,-1.0918,54.93,-1171.20,638.49
5420,-3.8440,0.2100,-1.0775,804.93,250.55,-1158.39
5430,-3.8441,0.1206,-1.0304,-1116.94,-1921.51,1779.11
5440,-3.8444,0.0353,-0.9623,-554.44,109.56,-1205.14
5450,-3.8445,-0.0153,-0.8912,523.68,828.19,654.36
5460,-3.8446,-0.0072,-0.8359,-1945.07,1937.44,810.73
5470,-3.8447,0.0453,-0.8083,-913.82,1015.56,-970.40
5480,-3.8447,0.1006,-0.7937,1804.93,531.31,1795.29
5490,-3.8448,0.1228,-0.7588,883.06,-1593.57,-970.34
5500,-3.8450,0.1003,-0.6931,-273.19,-1124.82,-1485.90
5510,-3.8451,0.0538,-0.6177,851.81,-718.57,1467.35
5520,-3.8452,0.0021,-0.5574,-1101.32,937.56,905.03
5530,-3.8453,-0.0571,-0.5145,273.68,656.25,-1532.35
5540,-3.8452,-0.1074,-0.4933,695.56,-1843.87,858.34
5550,-3.8450,-0.1296,-0.4891,-1741.94,874.76,452.15
5560,-3.8447,-0.1365,-0.4690,-585.69,1405.94,514.65
5570,-3.8446,-0.1359,-0.4103,-1460.69,-15.93,30.27
5580,-3.8447,-0.1199,-0.3149,-1382.57,-500.31,1483.52
5590,-3.8450,-0.0966,-0.2013,664.31,-297.12,1733.70
5600,-3.8453,-0.0858,-0.0946,-351.32,-1750.24,-1422.30
5610,-3.8457,-0.0978,-0.0162,1023.68,-93.93,-1515.87
5620,-3.8461,-0.1302,0.0289,-507.57,1937.26,-93.81
5630,-3.8463,-0.1675,0.0566,-663.82,-281.56,-156.25
5640,-3.8464,-0.2054,0.0775,-1429.44,-734.74,1375.06
5650,-3.8467,-0.2568,0.0751,1711.18,1937.07,-499.88
5660,-3.8468,-0.3228,0.0306,-866.94,1624.45,-937.38
5670,-3.8468,-0.3981,-0.0555,-1304.44,-63.17,1671.88
5680,-3.8467,-0.4827,-0.1736,1054.93,905.46,421.75
5690,-3.8466,-0.5609,-0.2999,-1773.19,1795.90,-640.99
5700,-3.8462,-0.6127,-0.3981,211.18,1623.90,452.51
5710,-3.8459,-0.6224,-0.4558,1586.18,1061.28,1374.21
5720,-3.8457,-0.5726,-0.5060,336.18,1670.65,1936.58
5730,-3.8455,-0.4834,-0.5868,-1288.82,-751.16,1795.84
5740,-3.8453,-0.4130,-0.7023,-1866.94,905.27,-860.53
5750,-3.8452,-0.4061,-0.8273,-851.32,-1875.85,904.85
5760,-3.8453,-0.4906,-0.9475,23.68,-1875.79,-1111.02
5770,-3.8455,-0.6689,-1.0399,1211.18,-1266.60,1623.11
5780,-3.8456,-0.8826,-1.0598,-1616.94,-1095.09,-1814.58
5790,-3.8456,-1.0524,-1.0298,-960.69,357.60,-173.95
5800,-3.8455,-1.1519,-1.0468,1304.93,201.05,-1705.14
5810,-3.8455,-1.2023,-1.1503,570.56,-1971.01,1794.80
5820,-3.8456,-1.2339,-1.3014,-1882.57,778.87,-908.51
5830,-3.8457,-1.2628,-1.4131,-1929.44,1435.06,-236.94
5840,-3.8456,-1.2485,-1.4301,-1632.57,-861.88,497.19
5850,-3.8453,-1.1559,-1.4279,195.56,966.31,637.82
5860,-3.8451,-1.0485,-1.5088,54.93,1247.74,-2.81
5870,-3.8447,-1.0277,-1.6814,1804.93,-1111.45,-65.49
5880,-3.8442,-1.1257,-1.8778,461.18,794.86,965.45
5890,-3.8440,-1.2933,-2.0154,-85.69,-346.01,-1784.97
5900,-3.8441,-1.4617,-2.0492,-1538.82,-1955.69,-1363.34
5910,-3.8446,-1.5577,-1.9845,914.31,1715.88,1386.60
5920,-3.8452,-1.5256,-1.8688,617.43,1996.95,1527.34
5930,-3.8456,-1.3888,-1.8037,726.81,809.51,965.09
5940,-3.8457,-1.2307,-1.8680,-1757.57,1137.88,871.46
5950,-3.8456,-1.1415,-2.0612,-1523.19,903.81,465.09
5960,-3.8453,-1.1775,-2.3306,1898.68,185.24,-1816.53
5970,-3.8450,-1.3258,-2.5994,1289.31,1700.81,-1707.70
5980,-3.8447,-1.5140,-2.7944,-1695.07,-705.75,-1380.13
5990,-3.8447,-1.6602,-2.9020,-1788.82,-1674.87,1572.63
6000,-3.8450,-1.7288,-2.9651,-491.94,559.20,1025.57
6010,-3.8452,-1.7432,-3.0079,-1273.19,480.96,806.70
6020,-3.8453,-1.7456,-3.0381,883.06,-1003.42,681.58
6030,-3.8455,-1.7627,-3.0725,570.56,-862.79,-1709.11
6040,-3.8455,-1.8104,-3.1196,-1616.94,-1269.10,337.71
6050,-3.8455,-1.9124,-3.1797,273.68,699.58,322.02
6060,-3.8455,-2.0939,-3.2421,-773.19,1011.84,-881.23
6070,-3.8453,-2.3818,-3.3058,-7.57,1027.10,-678.22
6080,-3.8452,-2.8162,-3.3938,-866.94,870.30,-1397.09
6090,-3.8451,-3.3798,-3.5433,-460.69,1603.82,-1897.28
6100,-3.8448,-3.8771,-3.7834,-601.32,-1537.90,414.92
6110,-3.8447,-4.0000,-3.9933,-257.57,-273.25,-507.45
6120,-3.8446,-4.0000,-4.0000,8.06,867.19,-1023.44
6130,-3.8447,-3.7051,-4.0000,8.06,7.81,-1242.19
6140,-3.8453,-3.0455,-4.0000,1758.06,8.36,-1335.94
6150,-3.8464,-2.3484,-3.9794,-1820.07,9.64,1617.19
6160,-3.8474,-1.8203,-3.8738,-585.69,-1348.39,-1429.69
6170,-3.8473,-1.4563,-3.6338,-991.94,168.27,-1288.82
6180,-3.8461,-1.2719,-3.3312,1601.81,-1112.24,-132.14
6190,-3.8445,-1.2847,-3.0693,1211.18,1622.50,-37.78
6200,-3.8745,-1.4128,-2.8921,-429.44,-861.94,-1662.29
6210,-3.8739,-1.5480,-2.7505,-835.69,1825.32,713.07
6220,-3.8738,-1.6398,-2.5911,1867.43,-49.93,1541.44
6230,-3.8738,-1.6970,-2.4154,-1882.57,356.14,541.81
6240,-3.8739,-1.7379,-2.2543,-1210.69,-1159.61,1526.49
6250,-3.8740,-1.7611,-2.1343,1554.93,-534.67,1651.79
6260,-3.8741,-1.7488,-2.0846,-1413.82,-1175.35,1027.04
6270,-3.8743,-1.6888,-2.1018,164.31,1184.08,136.54
6280,-3.8744,-1.5774,-2.1503,-163.82,-1018.98,-832.28
6290,-3.8743,-1.4083,-2.1898,-1898.19,778.14,-254.21
6300,-3.8741,-1.1952,-2.1600,-257.57,-284.06,-223.08
6310,-3.8741,-0.9696,-2.0287,-976.32,-471.13,870.73
6320,-3.8745,-0.7704,-1.8351,-101.32,341.80,-1113.34
6330,-3.8749,-0.6216,-1.6406,1398.68,1123.47,-534.85
6340,-3.8439,-0.5238,-1.4706,445.56,-1985.60,-96.98
6350,-3.8439,-0.4702,-1.3163,961.18,-219.79,1231.45
6360,-3.8439,-0.4401,-1.1692,-179.44,-469.73,-1783.87
6370,-3.8750,-0.4111,-1.0399,-320.07,-1641.54,1497.68
6380,-3.8749,-0.3906,-0.9490,-616.94,-1094.60,1763.55
6390,-3.8748,-0.3894,-0.8982,-1991.94,-1453.92,-361.27
6400,-3.8745,-0.3932,-0.8719,-1835.69,1046.08,-1033.02
6410,-3.8744,-0.3801,-0.8394,1679.93,405.46,-423.58
6420,-3.8744,-0.3429,-0.7849,-648.19,577.33,-1079.77
6430,-3.8745,-0.2827,-0.7346,117.43,-453.80,-1610.96
6440,-3.8746,-0.2047,-0.7094,-179.44,1983.76,404.79
6450,-3.8749,-0.1243,-0.7085,1804.93,1218.32,-1017.03
6460,-3.8750,-0.0614,-0.7103,101.81,1327.88,-1126.40
6470,-3.8439,-0.0281,-0.6869,148.68,1093.63,-532.65
6480,-3.8440,-0.0245,-0.6254,414.31,93.69,-376.34
6490,-3.8441,-0.0424,-0.5370,867.43,-31.31,-1079.41
6500,-3.8442,-0.0691,-0.4404,-1413.82,-718.87,1733.28
6510,-3.8444,-0.0968,-0.3516,-835.69,-359.56,1702.21
6520,-3.8444,-0.1182,-0.2803,-382.57,-984.62,702.39
6530,-3.8444,-0.1243,-0.2201,883.06,140.38,-1641.17
6540,-3.8444,-0.1167,-0.1599,101.81,-156.49,-141.11
6550,-3.8444,-0.1034,-0.0854,1070.56,-453.37,-640.99
6560,-3.8444,-0.0846,0.0042,-1226.32,1077.88,1781.07
6570,-3.8444,-0.0579,0.0854,1179.93,546.69,968.75
6580,-3.8444,-0.0278,0.1321,601.81,-1047.00,1968.87
6590,-3.8442,-0.0035,0.1399,445.56,921.81,218.99
6600,-3.8442,0.0200,0.1372,-445.07,1921.81,1656.49
6610,-3.8444,0.0526,0.1606,-1429.44,1562.50,-687.26
6620,-3.8446,0.0900,0.2212,-1257.57,562.56,-374.69
6630,-3.8450,0.1205,0.2986,-476.32,312.62,-483.95
6640,-3.8453,0.1307,0.3646,-570.07,-1781.07,1656.80
6650,-3.8457,0.1204,0.4015,742.43,-1327.88,625.67
6660,-3.8461,0.0996,0.3992,-585.69,-609.19,-1124.27
6670,-3.8461,0.0811,0.3661,758.06,-906.07,1328.86
6680,-3.8459,0.0723,0.3333,-1616.94,-1140.50,-61.83
6690,-3.8457,0.0520,0.3129,1258.06,-1343.63,-155.64
6700,-3.8455,-0.0066,0.2825,-1335.69,46.94,1094.36
6710,-3.8453,-0.0914,0.2269,-835.69,171.81,375.55
6720,-3.8453,-0.1666,0.1495,304.93,1062.32,-249.57
6730,-3.8451,-0.2192,0.0449,-1320.07,-844.12,281.49
6740,-3.8450,-0.2563,-0.0897,-54.44,1765.14,-1656.19
6750,-3.8447,-0.2697,-0.2225,-804.44,530.70,-1093.93
6760,-3.8444,-0.2461,-0.3070,1492.43,-469.30,1218.26
6770,-3.8441,-0.1958,-0.3180,508.06,718.26,-1016.24
6780,-3.8439,-0.1472,-0.2771,-1054.44,-687.93,1999.33
6790,-3.8439,-0.1292,-0.2448,1164.31,546.57,-78.67
6800,-3.8439,-0.1570,-0.2909,-523.19,687.19,1233.89
6810,-3.8440,-0.2141,-0.4419,-85.69,-1219.12,-1266.24
6820,-3.8440,-0.2863,-0.6241,601.81,-547.30,-219.67
6830,-3.8750,-0.3646,-0.7296,-632.57,124.39,-1704.35
6840,-3.8745,-0.4272,-0.7413,1336.18,-1375.73,201.66
6850,-3.8740,-0.4761,-0.7301,1320.56,1124.15,1967.29
6860,-3.8735,-0.5253,-0.7639,-929.44,-1438.48,-501.46
6870,-3.8729,-0.5582,-0.8483,773.68,-1766.66,154.72
6880,-3.8726,-0.5624,-0.9526,554.93,-563.60,1560.79
6890,-3.8724,-0.5675,-1.0624,23.68,-1922.97,-767.52
6900,-3.8726,-0.5938,-1.1637,-632.57,30.09,-970.83
6910,-3.8728,-0.6088,-1.2235,8.06,-938.66,1763.31
6920,-3.8729,-0.5662,-1.2465,-1913.82,-594.97,685.06
6930,-3.8729,-0.4578,-1.2472,-460.69,467.59,-1971.19
6940,-3.8728,-0.3036,-1.2419,1414.31,374.08,-986.82
6950,-3.8726,-0.1261,-1.3077,1148.68,1046.26,-799.32
6960,-3.8722,0.0389,-1.4701,-132.57,624.69,-1330.69
6970,-3.8717,0.1561,-1.6475,992.43,-171.81,1590.82
6980,-3.8712,0.2017,-1.7280,-7.57,1125.24,43.64
6990,-3.8710,0.1688,-1.6761,1820.56,-1187.13,-1519.04
7000,-3.8706,0.1135,-1.5753,1617.43,1453.43,-1909.55
7010,-3.8701,0.0945,-1.5450,-1460.69,-1640.44,-1518.74
7020,-3.8696,0.0989,-1.6418,101.81,-1765.44,-1909.30
7030,-3.8693,0.0940,-1.8225,664.31,1843.93,-1753.23
7040,-3.8689,0.0710,-1.9800,39.31,-1281.07,808.90
7050,-3.8688,0.0216,-2.0293,1101.81,-1437.38,-1300.78
7060,-3.8689,-0.0546,-1.9810,-1226.32,250.00,-82.09
7070,-3.8691,-0.1165,-1.9191,1023.68,-1547.00,-394.53
7080,-3.8693,-0.1289,-1.9125,1101.81,-1625.24,1183.72
7090,-3.8693,-0.0953,-1.9847,-491.94,-781.56,1933.72
7100,-3.8690,-0.0331,-2.1472,-195.07,1968.51,-800.78
7110,-3.8684,0.0417,-2.3644,-226.32,1171.75,261.41
7120,-3.8678,0.1276,-2.5476,1351.81,1359.44,1964.11
7130,-3.8672,0.2362,-2.6389,336.18,1906.49,104.37
7140,-3.8671,0.3608,-2.6531,-1757.57,-1780.82,-473.94
7150,-3.8671,0.4805,-2.6455,-1804.44,406.92,510.44
7160,-3.8673,0.5824,-2.6580,1508.06,1375.92,1276.06
7170,-3.8674,0.6716,-2.6876,-1445.07,-217.65,-1442.75
7180,-3.8672,0.7483,-2.7134,1976.81,-14.34,-1395.94
7190,-3.8666,0.8124,-2.7671,-210.69,688.90,1291.56
7200,-3.8657,0.8896,-2.9091,-7.57,1814.03,-1974.18
7210,-3.8645,0.9988,-3.1527,1883.06,-357.67,1447.39
7220,-3.8633,1.1392,-3.4513,-148.19,455.02,-1303.04
7230,-3.8625,1.3022,-3.6885,1820.56,-1763.43,-663.02
7240,-3.8628,1.4641,-3.7306,-1304.44,-122.50,-772.89
7250,-3.8641,1.5914,-3.5439,-585.69,-1512.82,1805.18
7260,-3.8663,1.6718,-3.2240,-288.82,-1621.95,-178.83
7270,-3.8684,1.7443,-2.8853,1992.43,-668.64,-1303.22
7280,-3.8699,1.8455,-2.5604,-726.32,-1309.14,463.07
7290,-3.8708,1.9506,-2.2365,226.81,269.23,1760.62
7300,-3.8713,2.0208,-1.9203,1679.93,1738.16,370.61
7310,-3.8717,2.0527,-1.6313,-1335.69,-1792.97,-425.66
7320,-3.8717,2.0486,-1.4187,-1241.94,-808.53,1871.77
7330,-3.8715,1.9908,-1.3406,-1773.19,-1589.78,590.94
7340,-3.8711,1.8717,-1.3773,-1163.82,410.10,-674.50
7350,-3.8705,1.6975,-1.4459,-413.82,-293.27,1106.63
7360,-3.8701,1.4667,-1.4742,1289.31,-1074.83,-893.49
7370,-3.8699,1.1899,-1.4498,-257.57,-700.32,997.07
7380,-3.8700,0.9058,-1.4072,320.56,-1575.81,-424.74
7390,-3.8701,0.6611,-1.3774,-54.44,-123.29,-268.43
7400,-3.8701,0.4932,-1.3690,633.06,-311.22,1653.50
7410,-3.8701,0.4131,-1.3870,-866.94,766.54,-1487.06
7420,-3.8700,0.4105,-1.4191,883.06,-1530.46,-1955.87
7430,-3.8699,0.4609,-1.4255,554.93,-1639.83,-1940.31
7440,-3.8699,0.5253,-1.3818,-991.94,1532.10,-1596.56
7450,-3.8700,0.5669,-1.2987,-757.57,-874.02,419.13
7460,-3.8704,0.5740,-1.2012,570.56,1766.72,1278.69
7470,-3.8707,0.5625,-1.1083,1476.81,-1748.90,997.62
7480,-3.8711,0.5487,-1.0186,8.06,-1858.28,-1908.45
7490,-3.8715,0.5365,-0.9125,-1757.57,1626.04,-673.89
7500,-3.8718,0.5377,-0.7974,679.93,-795.84,-79.96
7510,-3.8721,0.5703,-0.7068,836.18,1938.54,967.16
7520,-3.8723,0.6212,-0.6477,1008.06,1532.35,670.47
7530,-3.8726,0.6605,-0.6010,-476.32,1094.91,-391.91
7540,-3.8727,0.6747,-0.5577,554.93,-920.59,-1876.22
7550,-3.8729,0.6653,-0.5302,-1632.57,610.66,-1985.47
7560,-3.8732,0.6429,-0.5197,1164.31,141.91,936.46
7570,-3.8734,0.6134,-0.4983,-1695.07,1485.60,264.59
7580,-3.8738,0.5780,-0.4528,-1476.32,219.91,-32.23
7590,-3.8740,0.5403,-0.4060,1992.43,-1952.03,-63.42
7600,-3.8741,0.5077,-0.3856,1164.31,32.29,139.83
7610,-3.8744,0.4928,-0.4004,992.43,-1358.40,1827.33
7620,-3.8745,0.4896,-0.4363,-913.82,750.92,-1453.92
7630,-3.8745,0.4663,-0.4777,-1320.07,157.17,-1735.23
7640,-3.8745,0.4122,-0.5172,-304.44,-1139.77,-469.73
7650,-3.8744,0.3389,-0.5439,773.68,1797.67,592.71
7660,-3.8745,0.2537,-0.5380,-616.94,-1624.39,-47.97
7670,-3.8745,0.1570,-0.5001,476.81,-858.89,639.53
7680,-3.8748,0.0485,-0.4648,101.81,-15.32,-501.04
7690,-3.8749,-0.0491,-0.4429,-1788.82,500.06,-1641.54
7700,-3.8750,-0.1077,-0.4062,1726.81,-672.00,827.21
7710,-3.8440,-0.1249,-0.3381,-1773.19,15.38,1671.08
7720,-3.8442,-0.1178,-0.2515,23.68,734.13,1264.95
7730,-3.8445,-0.1035,-0.1687,929.93,-172.12,624.45
7740,-3.8447,-0.0945,-0.1128,-1241.94,-1578.37,218.38
7750,-3.8450,-0.1055,-0.1049,-85.69,1577.88,281.01
7760,-3.8452,-0.1311,-0.1458,-1491.94,-1406.49,-984.62
7770,-3.8452,-0.1436,-0.1895,-773.19,1359.07,1499.69
7780,-3.8452,-0.1339,-0.1820,1633.06,-234.68,233.95
7790,-3.8453,-0.1222,-0.1287,-1132.57,718.44,718.38
7800,-3.8455,-0.1246,-0.0781,367.43,-453.37,405.94
7810,-3.8456,-0.1389,-0.0601,54.93,-1984.62,1515.44
7820,-3.8456,-0.1638,-0.0768,-1773.19,327.82,1359.25
7830,-3.8455,-0.1989,-0.1476,-960.69,-1812.87,515.44
7840,-3.8452,-0.2246,-0.2843,-1445.07,1124.57,77.82
7850,-3.8448,-0.2162,-0.4341,-741.94,-375.49,733.76
7860,-3.8444,-0.1846,-0.5472,336.18,452.70,327.27
7870,-3.8440,-0.1650,-0.6252,383.06,1968.38,1764.53
7880,-3.8750,-0.1785,-0.6813,-1116.94,-15.99,1061.22
7890,-3.8750,-0.2312,-0.7260,1164.31,812.13,1889.28
7900,-3.8439,-0.3329,-0.7433,-1585.69,-906.74,1139.16
7910,-3.8441,-0.4738,-0.7233,1398.68,874.33,1217.29
7920,-3.8444,-0.6119,-0.7174,-632.57,-563.48,373.54
7930,-3.8447,-0.7163,-0.7814,1679.93,186.28,-282.65
7940,-3.8448,-0.7729,-0.9175,320.56,-1.40,-204.71
7950,-3.8446,-0.7832,-1.0751,1070.56,-1423.40,998.17
7960,-3.8442,-0.7576,-1.1855,-241.94,-1595.34,1560.36
7970,-3.8750,-0.7059,-1.2498,-960.69,264.10,638.31
7980,-3.8746,-0.6494,-1.3193,1648.68,45.47,-1799.32
7990,-3.8744,-0.6121,-1.3938,883.06,-860.66,-237.00
8000,-3.8741,-0.6113,-1.4568,1664.31,1608.15,1387.88
8010,-3.8741,-0.6483,-1.4883,1758.06,1545.65,-143.49
8020,-3.8740,-0.7019,-1.4652,1023.68,1514.34,622.07
8030,-3.8740,-0.7605,-1.4497,-1835.69,467.35,1590.88
8040,-3.8740,-0.8254,-1.5192,-1335.69,-1548.40,-471.62
8050,-3.8739,-0.8938,-1.6472,-1648.19,1560.85,1762.63
8060,-3.8739,-0.9731,-1.7465,1601.81,1170.10,1871.77
8070,-3.8739,-1.0521,-1.7678,-554.44,466.80,168.46
8080,-3.8739,-1.0884,-1.7688,1336.18,1732.30,699.65
8090,-3.8738,-1.0793,-1.8502,695.56,1607.24,762.15
8100,-3.8737,-1.0834,-2.0189,1851.81,-814.64,-753.66
8110,-3.8734,-1.1478,-2.1942,1336.18,1591.61,-566.47
8120,-3.8732,-1.2526,-2.2971,1086.18,-846.01,-1160.58
8130,-3.8730,-1.3391,-2.3175,-320.07,1981.87,-1785.77
8140,-3.8730,-1.3514,-2.2976,601.81,-627.62,1932.92
8150,-3.8730,-1.2726,-2.2855,-976.32,1919.19,-1223.27
8160,-3.8728,-1.1639,-2.3241,1117.43,-533.75,870.48
8170,-3.8726,-1.1172,-2.4395,-976.32,-1471.07,-488.95
8180,-3.8722,-1.1650,-2.6218,1008.06,-236.57,-754.82
8190,-3.8718,-1.2606,-2.8376,-1116.94,419.56,1229.25
8200,-3.8716,-1.3425,-3.0465,-1351.32,794.37,1010.07
8210,-3.8715,-1.3783,-3.2120,164.31,-1940.12,-615.36
8220,-3.8712,-1.3884,-3.3306,-413.82,872.25,1306.21
8230,-3.8710,-1.4403,-3.4084,-1710.69,1700.38,1837.22
8240,-3.8705,-1.5692,-3.4083,-351.32,-268.49,415.16
8250,-3.8699,-1.7542,-3.3458,-851.32,-253.11,399.54
8260,-3.8693,-1.9341,-3.3573,-523.19,-253.48,1196.53
8270,-3.8687,-2.0114,-3.5583,445.56,-1722.53,-1740.97
8280,-3.8678,-1.9321,-3.8541,-1445.07,542.91,508.67
8290,-3.8669,-1.7190,-4.0000,695.56,-1316.28,1851.81
8300,-3.8663,-1.4010,-4.0000,-23.19,12.21,-835.94
8310,-3.8661,-1.0282,-3.9935,679.93,12.88,1835.94
8320,-3.8662,-0.6674,-3.8300,398.68,841.74,-179.69
8330,-3.8662,-0.3430,-3.5785,-1413.82,1779.91,820.62
8340,-3.8663,-0.0658,-3.3032,101.81,1968.08,430.48
8350,-3.8667,0.1217,-3.0691,-413.82,1202.94,-162.72
8360,-3.8669,0.1605,-2.9308,-413.82,-843.57,368.96
8370,-3.8673,0.0338,-2.9044,554.93,859.68,1431.76
8380,-3.8677,-0.1959,-2.9478,336.18,234.44,-240.05
8390,-3.8679,-0.4404,-2.9767,-1070.07,-1297.30,119.20
8400,-3.8685,-0.6558,-2.9293,-366.94,-1000.92,-818.36
8410,-3.8691,-0.8270,-2.8318,70.56,1061.22,1494.26
8420,-3.8699,-0.9458,-2.7482,-1851.32,1545.23,-1896.18
8430,-3.8705,-1.0062,-2.6862,-1054.44,248.11,947.75
8440,-3.8710,-1.0095,-2.6185,-788.82,185.49,1463.50
8450,-3.8713,-0.9658,-2.5414,-1210.69,841.74,-270.75
8460,-3.8715,-0.8842,-2.4586,383.06,-1283.14,1213.75
8470,-3.8716,-0.7788,-2.3613,-1163.82,1310.73,354.55
8480,-3.8717,-0.6726,-2.2419,320.56,1764.10,229.74
8490,-3.8718,-0.5795,-2.1152,1914.31,1045.53,214.36
8500,-3.8719,-0.4929,-2.0125,1836.18,1264.47,839.60
8510,-3.8721,-0.3942,-1.9430,914.31,-1579.10,-1472.72
8520,-3.8721,-0.2723,-1.8881,1554.93,-688.29,324.28
8530,-3.8722,-0.1375,-1.8234,1148.68,-1656.80,840.03
8540,-3.8724,-0.0140,-1.7245,-1585.69,-1375.31,-675.48
8550,-3.8727,0.0760,-1.5876,-1788.82,-718.81,-81.54
8560,-3.8729,0.1345,-1.4429,1742.43,781.37,-940.61
8570,-3.8732,0.1843,-1.3209,1226.81,-687.26,1403.38
8580,-3.8735,0.2305,-1.2169,-398.19,-1077.82,-502.62
8590,-3.8738,0.2649,-1.1080,1508.06,234.80,1872.62
8600,-3.8741,0.2892,-0.9846,1914.31,-1827.64,-64.70
8610,-3.8744,0.3040,-0.8540,1023.68,1969.30,1107.42
8620,-3.8748,0.3097,-0.7389,-1085.69,-1311.95,-1189.21
8630,-3.8750,0.3049,-0.6600,-351.32,1422.42,-1032.71
8640,-3.8439,0.2808,-0.6252,-960.69,-483.83,-673.22
8650,-3.8750,0.2330,-0.6356,-54.44,-30.76,264.34
8660,-3.8749,0.1737,-0.6713,1836.18,-1358.95,279.97
8670,-3.8748,0.1211,-0.6831,-1757.57,-1921.57,483.03
8680,-3.8748,0.0867,-0.6340,-491.94,562.68,936.16
8690,-3.8750,0.0740,-0.5242,-898.19,-1156.13,-1579.41
8700,-3.8441,0.0811,-0.3798,1476.81,906.37,748.96
8710,-3.8447,0.0997,-0.2311,-1616.94,-609.25,-1313.29
8720,-3.8453,0.1180,-0.0928,773.68,-1577.94,-297.36
8730,-3.8458,0.1373,0.0237,-882.57,125.18,-1015.81
8740,-3.8462,0.1642,0.1124,1586.18,-968.51,1765.62
8750,-3.8466,0.1879,0.1863,1023.68,-1609.07,-1452.94
8760,-3.8468,0.1963,0.2477,54.93,-155.88,765.93
8770,-3.8470,0.1871,0.2827,1133.06,-296.51,-1452.70
8780,-3.8470,0.1625,0.2894,-38.82,187.81,1859.92
8790,-3.8469,0.1279,0.2733,804.93,1047.18,-952.58
8800,-3.8467,0.0825,0.2518,383.06,-1015.38,-468.26
8810,-3.8464,0.0232,0.2484,-1429.44,234.50,-905.76
8820,-3.8463,-0.0527,0.2546,-1023.19,-203.12,-327.70
8830,-3.8462,-0.1376,0.2423,1258.06,609.25,1750.49
8840,-3.8462,-0.2057,0.1980,-1601.32,-969.06,-1280.82
8850,-3.8461,-0.2362,0.1276,1679.93,1358.95,1469.12
8860,-3.8459,-0.2324,0.0540,1773.68,343.26,-343.51
8870,-3.8457,-0.2238,-0.0110,-1741.94,-1078.61,-796.81
8880,-3.8455,-0.2369,-0.0806,-632.57,-1391.11,-1265.69
8890,-3.8452,-0.2620,-0.1510,1679.93,1702.64,-1172.06
8900,-3.8450,-0.2753,-0.2023,-1523.19,686.95,-1859.68
8910,-3.8448,-0.2708,-0.2297,773.68,-1875.55,-1625.43
8920,-3.8448,-0.2611,-0.2581,1351.81,-1391.17,-406.74
8930,-3.8448,-0.2729,-0.3293,-1413.82,-1016.17,-469.30
8940,-3.8447,-0.3225,-0.4314,1070.56,1858.83,1889.95
8950,-3.8445,-0.3971,-0.5234,-1273.19,796.20,1311.65
8960,-3.8442,-0.4827,-0.6121,1179.93,1014.83,-876.04
8970,-3.8439,-0.5624,-0.7126,-1773.19,1670.90,811.28
8980,-3.8749,-0.6102,-0.8099,23.68,795.78,-892.03
8990,-3.8745,-0.6310,-0.8867,1898.68,342.53,1404.66
9000,-3.8744,-0.6495,-0.9070,-757.57,-1485.66,-1298.65
9010,-3.8744,-0.6653,-0.8649,867.43,-79.41,1904.42
9020,-3.8744,-0.6726,-0.8373,-1148.19,1311.16,248.29
9030,-3.8744,-0.6866,-0.8739,1914.31,842.41,1451.48
9040,-3.8741,-0.7238,-0.9757,117.43,154.91,29.54
9050,-3.8738,-0.7920,-1.1379,-632.57,-876.46,623.05
9060,-3.8734,-0.8818,-1.3177,-1366.94,-1642.21,-658.51
9070,-3.8730,-0.9564,-1.4578,-866.94,-658.02,-330.75
9080,-3.8728,-0.9727,-1.5143,1586.18,1419.98,-1299.74
9090,-3.8728,-0.9351,-1.4629,-491.94,-1814.45,1840.76
9100,-3.8730,-0.8844,-1.3406,320.56,763.79,1012.76
9110,-3.8734,-0.8351,-1.2434,-1195.07,420.10,653.63
9120,-3.8738,-0.7808,-1.2697,1117.43,857.73,-564.94
9130,-3.8738,-0.7275,-1.4703,70.56,1498.47,-1393.13
9140,-3.8734,-0.6860,-1.8354,-1116.94,-188.96,1340.82
9150,-3.8727,-0.6647,-2.2278,195.56,1076.78,1308.90
9160,-3.8717,-0.6508,-2.4440,-1070.07,-1141.97,-1957.52
9170,-3.8708,-0.6166,-2.4012,711.18,-813.78,1698.30
9180,-3.8706,-0.5654,-2.1864,1086.18,655.03,-426.57
9190,-3.8707,-0.5364,-1.9681,-366.94,155.09,651.98
9200,-3.8712,-0.5664,-1.8903,-648.19,92.65,-1753.85
9210,-3.8716,-0.6681,-1.9850,-491.94,-1938.66,1558.78
9220,-3.8717,-0.8131,-2.1783,-1507.57,1936.16,-207.03
9230,-3.8712,-0.9396,-2.4072,-70.07,1185.85,1011.35
9240,-3.8705,-1.0225,-2.6731,-257.57,-111.27,1573.36
9250,-3.8695,-1.0449,-2.9169,1133.06,1857.36,1541.63
9260,-3.8685,-0.9742,-3.0055,-1741.94,-1345.83,41.14
9270,-3.8682,-0.8413,-2.9224,-695.07,-689.45,1869.08
9280,-3.8684,-0.7234,-2.7905,320.56,1951.48,1509.89
9290,-3.8690,-0.6676,-2.7290,-585.69,-1173.34,1400.76
9300,-3.8695,-0.6670,-2.7754,-1445.07,-1298.22,791.50
9310,-3.8696,-0.6804,-2.9283,-1366.94,764.28,-1067.93
9320,-3.8690,-0.6373,-3.1719,914.31,1186.16,-599.49
9330,-3.8678,-0.4694,-3.4548,-1570.07,-1985.66,-990.60
9340,-3.8665,-0.1750,-3.7025,-70.07,1795.90,1305.73
9350,-3.8656,0.1826,-3.8444,1601.81,-1906.62,1961.49
9360,-3.8654,0.5276,-3.8574,-616.94,-77.82,211.18
9370,-3.8660,0.8044,-3.7795,-460.69,-1749.02,-1148.19
9380,-3.8669,1.0032,-3.6465,-1023.19,220.28,258.24
9390,-3.8683,1.1583,-3.4557,414.31,1251.95,1758.48
9400,-3.8696,1.3110,-3.2212,273.68,1674.13,-1913.02
9410,-3.8708,1.4716,-2.9785,-179.44,-310.00,1946.78
9420,-3.8718,1.6096,-2.7383,367.43,-1247.13,-677.73
9430,-3.8723,1.6947,-2.4943,-1960.69,1503.11,166.50
9440,-3.8727,1.7100,-2.2538,929.93,737.67,573.24
9450,-3.8729,1.6321,-2.0229,-1116.94,-481.08,745.54
9460,-3.8732,1.4684,-1.8130,914.31,1065.67,-738.34
9470,-3.8732,1.2661,-1.6587,-38.82,-59.69,262.02
9480,-3.8732,1.0833,-1.5640,-1929.44,-310.06,1371.70
9490,-3.8729,0.9635,-1.4958,-1335.69,-185.42,12.51
9500,-3.8727,0.9313,-1.4200,-663.82,533.08,-1440.43
9510,-3.8723,0.9814,-1.3274,-788.82,-1763.85,-174.68
9520,-3.8718,1.0674,-1.2327,1633.06,-1904.36,-1565.12
9530,-3.8715,1.1221,-1.1218,633.06,-1779.17,1747.56
9540,-3.8713,1.0942,-0.9567,-366.94,408.39,-1658.45
9550,-3.8713,0.9927,-0.7540,70.56,1549.01,-1767.52
9560,-3.8713,0.8760,-0.6042,-929.44,-513.73,-235.90
9570,-3.8710,0.8016,-0.6028,133.06,-1342.04,858.15
9580,-3.8705,0.8049,-0.7423,-1382.57,-1154.72,-1766.85
9590,-3.8699,0.8785,-0.9150,-960.69,985.90,-1595.21
9600,-3.8694,0.9769,-1.0293,461.18,-1123.29,-1236.21
9610,-3.8690,1.0574,-1.0624,1054.93,251.89,122.99
9620,-3.8690,1.0968,-1.0284,-648.19,17.64,1107.30
9630,-3.8693,1.0817,-0.9399,398.68,361.51,451.11
9640,-3.8699,1.0117,-0.8148,-1538.82,-310.42,-783.14
9650,-3.8705,0.9135,-0.6962,1508.06,-294.92,1763.98
9660,-3.8711,0.8236,-0.6277,929.93,-1107.60,904.85
9670,-3.8717,0.7666,-0.6135,1429.93,-342.16,-48.16
9680,-3.8721,0.7394,-0.6150,-1866.94,1470.21,-985.60
9690,-3.8723,0.7155,-0.5983,-1351.32,1282.65,576.90
9700,-3.8727,0.6733,-0.5677,-413.82,-576.78,-157.47
9710,-3.8728,0.6177,-0.5410,-1804.44,-670.59,358.22
9720,-3.8730,0.5543,-0.5278,-929.44,-1248.84,1764.53
9730,-3.8733,0.4835,-0.5201,-1038.82,438.54,-532.29
9740,-3.8734,0.4209,-0.5002,1898.68,1422.79,92.71
9750,-3.8738,0.3794,-0.4658,1883.06,-30.46,-1563.54
9760,-3.8741,0.3514,-0.4348,570.56,375.73,-1079.04
9770,-3.8745,0.3214,-0.4213,992.43,344.42,-782.10
9780,-3.8748,0.2826,-0.4150,1148.68,-1921.26,827.27
9790,-3.8439,0.2363,-0.4078,179.93,-1124.45,-94.60
9800,-3.8440,0.1956,-0.4072,-1741.94,-202.70,858.52
9810,-3.8441,0.1725,-0.4152,1039.31,-124.63,1061.65
9820,-3.8441,0.1561,-0.4293,-1913.82,-1140.32,874.15
9830,-3.8441,0.1268,-0.4443,-7.57,1047.12,-657.10
9840,-3.8440,0.0826,-0.4387,242.43,-874.76,-579.04
9850,-3.8439,0.0352,-0.3911,-1413.82,-156.13,1639.71
9860,-3.8440,-0.0115,-0.3083,508.06,1937.56,-1985.17
9870,-3.8442,-0.0559,-0.2260,-1460.69,546.81,640.01
9880,-3.8446,-0.0939,-0.1639,851.81,-906.37,405.76
9890,-3.8450,-0.1300,-0.1155,-7.57,-968.99,577.76
9900,-3.8453,-0.1671,-0.0853,-632.57,1234.07,-703.37
9910,-3.8455,-0.2003,-0.0826,-1382.57,1093.38,1687.32
9920,-3.8455,-0.2258,-0.1006,-1632.57,1437.07,359.19
9930,-3.8455,-0.2444,-0.1289,-898.19,-859.86,-1609.62
9940,-3.8453,-0.2628,-0.1676,726.81,-484.86,-1719.06
9950,-3.8451,-0.2905,-0.2280,-1632.57,-1438.05,562.13
9960,-3.8448,-0.3364,-0.3010,-1179.44,-1172.49,-1922.36
9970,-3.8445,-0.4020,-0.3578,945.56,1483.70,171.26
9980,-3.8444,-0.4763,-0.3684,554.93,-1782.04,-1219.48
9990,-3.8442,-0.5339,-0.3270,-960.69,858.40,843.02
10000,-3.8444,-0.5500,-0.2799,-335.69,-1844.85,-63.17
10010,-3.8444,-0.5282,-0.2804,1601.81,186.40,-1484.92
10020,-3.8444,-0.4879,-0.3571,398.68,123.96,-250.55
10030,-3.8441,-0.4373,-0.4988,1554.93,-1688.48,-1985.11
10040,-3.8750,-0.3680,-0.6310,39.31,171.02,1374.02
10050,-3.8746,-0.2766,-0.6886,898.68,-750.73,-1079.41
10060,-3.8743,-0.1840,-0.6689,601.81,-125.55,-1595.15
10070,-3.8740,-0.1138,-0.6136,461.18,-1609.74,-1251.34
10080,-3.8738,-0.0825,-0.5970,1445.56,1468.51,998.78
10090,-3.8737,-0.1155,-0.6604,1445.56,-406.43,1483.15
10100,-3.8735,-0.2144,-0.7780,1226.81,-515.87,-1298.22
10110,-3.8733,-0.3424,-0.9233,570.56,437.07,-548.40
10120,-3.8729,-0.4716,-1.0841,179.93,1827.45,-986.21
