timestamp_ms,ax,ay,az,gx,gy,gz
0,-3.8732,0.2736,-0.8936,1867.43,-1296.45,1435.67
10,-3.8730,0.3235,-0.9108,-976.32,1625.49,1232.60
20,-3.8729,0.3773,-0.9675,1414.31,-577.51,1123.17
30,-3.8728,0.4380,-1.0522,304.93,156.98,-1080.02
40,-3.8726,0.4996,-1.1274,70.56,1313.35,-236.45
50,-3.8722,0.5433,-1.1674,-38.82,-311.58,1794.62
60,-3.8719,0.5640,-1.1702,1554.93,-1420.84,-1846.07
70,-3.8717,0.5769,-1.1488,195.56,-1780.15,216.43
80,-3.8716,0.6027,-1.1293,1851.81,954.22,357.12
90,-3.8716,0.6434,-1.1188,1148.68,-545.72,-1799.13
100,-3.8716,0.6804,-1.1028,-1632.57,798.10,1419.68
110,-3.8717,0.7037,-1.0718,-898.19,-1154.97,966.55
120,-3.8719,0.7200,-1.0336,-1913.82,-1186.16,747.86
130,-3.8723,0.7325,-1.0085,164.31,-295.47,-95.83
140,-3.8724,0.7350,-1.0082,1773.68,-1092.35,-1892.64
150,-3.8726,0.7263,-1.0129,-1913.82,-1045.47,-986.39
160,-3.8726,0.7170,-0.9888,976.81,-1654.85,388.61
170,-3.8727,0.7096,-0.9427,-210.69,1438.84,-1376.95
180,-3.8727,0.6962,-0.9147,-1163.82,-670.53,-1205.02
190,-3.8726,0.6674,-0.9175,1117.43,-1076.78,513.79
200,-3.8724,0.6205,-0.9346,1429.93,-1436.22,123.17
210,-3.8723,0.5638,-0.9572,-570.07,376.16,-1564.33
220,-3.8721,0.5021,-0.9792,179.93,1485.47,1951.23
230,-3.8719,0.4390,-0.9774,273.68,-1342.77,-173.83
240,-3.8718,0.3848,-0.9297,195.56,-1108.52,-1314.45
250,-3.8718,0.3466,-0.8457,1258.06,1000.73,-1236.21
260,-3.8718,0.3221,-0.7570,367.43,-249.33,1217.04
270,-3.8719,0.3116,-0.6947,1242.43,-890.01,-204.65
280,-3.8718,0.3124,-0.6904,-101.32,-921.33,514.22
290,-3.8717,0.3008,-0.7415,-7.57,-374.45,45.47
300,-3.8716,0.2444,-0.7971,-1491.94,1094.30,373.54
310,-3.8715,0.1388,-0.8246,-710.69,1969.18,29.66
320,-3.8713,0.0145,-0.8455,1773.68,-1546.63,1076.48
330,-3.8711,-0.0975,-0.8832,1867.43,-218.75,1404.54
340,-3.8708,-0.1873,-0.9291,-476.32,-1031.49,-736.15
350,-3.8705,-0.2612,-0.9613,39.31,1093.38,170.04
360,-3.8704,-0.3324,-0.9711,-1429.44,968.20,-689.39
370,-3.8701,-0.3976,-0.9746,1461.18,-281.92,-1720.70
380,-3.8699,-0.4369,-0.9971,1117.43,-735.17,-1533.20
390,-3.8696,-0.4301,-1.0675,86.18,389.77,-736.33
400,-3.8694,-0.3776,-1.1899,961.18,-625.85,-64.64
410,-3.8691,-0.3082,-1.3102,-320.07,-297.67,-1408.63
420,-3.8690,-0.2411,-1.3490,554.93,311.89,513.06
430,-3.8691,-0.1870,-1.2772,1148.68,-656.74,1856.69
440,-3.8693,-0.1765,-1.1464,70.56,530.88,1435.00
450,-3.8694,-0.2249,-1.0300,1414.31,1280.88,872.74
460,-3.8695,-0.3094,-0.9653,-773.19,171.39,419.86
470,-3.8696,-0.4066,-0.9493,398.68,452.51,44.98
480,-3.8698,-0.4961,-0.9629,-38.82,-1500.85,357.48
490,-3.8699,-0.5542,-0.9908,508.06,764.65,810.61
500,-3.8701,-0.5674,-1.0243,1070.56,1186.40,-580.08
510,-3.8704,-0.5420,-1.0616,-616.94,905.09,-845.76
520,-3.8707,-0.5040,-1.1039,-1366.94,123.90,-33.33
530,-3.8711,-0.4830,-1.1425,-507.57,-1282.29,-1455.32
540,-3.8716,-0.4917,-1.1532,-1820.07,1780.27,-330.38
550,-3.8721,-0.5198,-1.1121,1070.56,405.27,-1580.38
560,-3.8727,-0.5553,-1.0254,1476.81,1670.84,-1908.45
570,-3.8733,-0.5950,-0.9136,929.93,764.53,997.99
580,-3.8739,-0.6426,-0.8096,-148.19,-923.10,-1658.08
590,-3.8744,-0.7008,-0.7374,1758.06,389.34,-392.21
600,-3.8746,-0.7524,-0.6870,-1695.07,1623.60,826.66
610,-3.8749,-0.7755,-0.6450,-304.44,76.60,1186.16
620,-3.8750,-0.7690,-0.6067,742.43,1451.60,373.72
630,-3.8439,-0.7434,-0.5754,1570.56,-1642.15,-1157.47
640,-3.8439,-0.7045,-0.5547,851.81,-1642.09,-188.66
650,-3.8750,-0.6541,-0.5461,1836.18,1014.22,1561.40
660,-3.8750,-0.5930,-0.5398,289.31,-1891.91,-1516.72
670,-3.8750,-0.5208,-0.5145,101.81,-1079.28,827.03
680,-3.8440,-0.4425,-0.4606,1351.81,-1844.79,-235.41
690,-3.8442,-0.3691,-0.3882,-632.57,1061.58,-47.79
700,-3.8445,-0.3088,-0.3134,758.06,-1672.61,-1844.54
710,-3.8448,-0.2615,-0.2445,476.81,-94.36,-110.05
720,-3.8451,-0.2246,-0.1891,-1460.69,718.20,-937.99
730,-3.8453,-0.2000,-0.1477,-741.94,-187.99,-266.05
740,-3.8455,-0.1884,-0.1173,-1585.69,1108.95,1499.69
750,-3.8456,-0.1836,-0.1128,-101.32,999.57,468.51
760,-3.8457,-0.1722,-0.1425,508.06,1577.76,843.51
770,-3.8458,-0.1464,-0.1846,1961.18,1780.88,-1890.93
780,-3.8459,-0.1058,-0.2167,1273.68,390.32,-437.87
790,-3.8459,-0.0515,-0.2363,-1538.82,281.01,1327.70
800,-3.8461,0.0072,-0.2488,1414.31,1765.50,-250.49
810,-3.8461,0.0560,-0.2625,929.93,156.25,-1672.36
820,-3.8461,0.0902,-0.3032,-820.07,-1593.69,1108.83
830,-3.8461,0.1172,-0.3838,-445.07,1187.62,-1703.74
840,-3.8459,0.1427,-0.4640,-991.94,-1124.82,-985.17
850,-3.8457,0.1620,-0.5037,-1726.32,609.62,1592.83
860,-3.8456,0.1801,-0.5129,742.43,-468.44,-141.66
870,-3.8453,0.2152,-0.5237,-945.07,-1655.94,998.96
880,-3.8452,0.2823,-0.5612,-445.07,969.12,-126.04
890,-3.8447,0.3892,-0.6438,148.68,172.42,623.90
900,-3.8442,0.5319,-0.7550,1820.56,1594.48,-173.16
910,-3.8748,0.6929,-0.8436,86.18,-639.59,1045.35
920,-3.8743,0.8623,-0.8850,695.56,16.97,-657.90
930,-3.8738,1.0394,-0.8942,-1616.94,-1279.60,-1204.90
940,-3.8733,1.2046,-0.8929,1054.93,1548.89,-1486.15
950,-3.8728,1.3256,-0.8868,-1804.44,1705.44,-783.02
960,-3.8723,1.3914,-0.8651,1679.93,-1513.06,-1829.90
970,-3.8719,1.4303,-0.8307,-1898.19,1268.31,138.92
980,-3.8719,1.4878,-0.8186,-913.82,1674.62,-32.90
990,-3.8719,1.5924,-0.8699,-1554.44,-778.38,-517.27
1000,-3.8719,1.7195,-0.9939,-163.82,659.30,-1892.33
1010,-3.8719,1.7916,-1.1472,101.81,784.61,919.92
1020,-3.8721,1.7587,-1.2484,1336.18,1159.73,-1361.63
1030,-3.8722,1.6421,-1.2554,1117.43,206.54,-518.07
1040,-3.8722,1.5123,-1.2069,-1804.44,-684.33,-1174.38
1050,-3.8719,1.4559,-1.2072,1586.18,1518.55,1888.24
1060,-3.8715,1.5145,-1.3435,-1632.57,1487.18,-33.63
1070,-3.8706,1.6476,-1.5983,1867.43,34.18,-268.25
1080,-3.8695,1.7848,-1.8989,-1101.32,-574.95,-50.05
1090,-3.8682,1.8868,-2.1725,461.18,940.98,-628.72
1100,-3.8667,1.9185,-2.3535,1523.68,1925.54,495.73
1110,-3.8656,1.8470,-2.4064,1570.56,-1246.28,-1942.14
1120,-3.8650,1.6737,-2.3666,429.93,-12.02,1963.99
1130,-3.8651,1.4507,-2.3143,-1757.57,1081.36,-1207.76
1140,-3.8657,1.2502,-2.3041,1695.56,-231.57,339.17
1150,-3.8667,1.1044,-2.3418,39.31,1080.57,386.11
1160,-3.8677,0.9983,-2.3868,1367.43,252.14,557.92
1170,-3.8684,0.8912,-2.3878,-210.69,-1513.73,1323.43
1180,-3.8688,0.7545,-2.3287,-1913.82,-1638.92,-1723.45
1190,-3.8688,0.6149,-2.2562,586.18,1923.34,-1613.95
1200,-3.8684,0.5354,-2.2584,-1288.82,-795.72,1667.42
1210,-3.8678,0.5250,-2.3915,539.31,-1077.09,-863.83
1220,-3.8671,0.5170,-2.6061,-788.82,1891.60,-660.95
1230,-3.8666,0.4310,-2.7771,-1820.07,-1577.15,-458.25
1240,-3.8665,0.2266,-2.8296,-820.07,532.04,-1427.31
1250,-3.8666,-0.0969,-2.7955,1008.06,1812.93,572.57
1260,-3.8668,-0.4683,-2.7451,-398.19,-1812.74,-442.99
1270,-3.8667,-0.7653,-2.7294,70.56,639.71,-1489.75
1280,-3.8665,-0.9253,-2.7716,-1945.07,-1345.28,-505.37
1290,-3.8661,-0.9626,-2.8387,1570.56,1248.17,978.94
1300,-3.8660,-0.9263,-2.8463,789.31,654.36,1791.32
1310,-3.8662,-0.8680,-2.7467,1445.56,-314.33,-177.49
1320,-3.8667,-0.8182,-2.5759,898.68,435.79,963.38
1330,-3.8676,-0.7808,-2.3981,-726.32,-1704.77,-1067.57
1340,-3.8683,-0.7483,-2.2462,70.56,1060.97,870.30
1350,-3.8690,-0.7144,-2.1226,226.81,498.54,-926.27
1360,-3.8695,-0.6826,-2.0334,570.56,326.72,-707.28
1370,-3.8699,-0.6650,-1.9790,633.06,-266.97,-863.40
1380,-3.8702,-0.6683,-1.9451,-1116.94,-1298.22,-1566.41
1390,-3.8706,-0.6995,-1.9307,-1538.82,-954.47,433.65
1400,-3.8711,-0.7467,-1.9215,-1523.19,889.22,-894.41
1410,-3.8715,-0.7787,-1.8754,429.93,-1938.96,-1285.03
1420,-3.8718,-0.7843,-1.7681,336.18,-32.78,980.65
1430,-3.8723,-0.7745,-1.6449,-382.57,1701.54,1371.52
1440,-3.8728,-0.7572,-1.5740,867.43,1467.22,1574.89
1450,-3.8733,-0.7384,-1.5494,-913.82,-1454.65,-534.36
1460,-3.8737,-0.7272,-1.5115,1492.43,1686.04,-1237.43
1470,-3.8740,-0.7231,-1.4240,-1070.07,-1454.59,872.01
1480,-3.8745,-0.7172,-1.3014,-554.44,1748.54,840.94
1490,-3.8750,-0.7006,-1.1764,211.18,1436.10,481.81
1500,-3.8442,-0.6735,-1.0677,-1663.82,1436.10,-1971.07
1510,-3.8446,-0.6401,-0.9750,1804.93,-657.59,-1767.76
1520,-3.8448,-0.6053,-0.8951,-1929.44,-782.53,810.55
1530,-3.8451,-0.5715,-0.8297,-1476.32,1436.28,1623.23
1540,-3.8452,-0.5333,-0.7721,-1148.19,1811.34,404.60
1550,-3.8453,-0.4840,-0.7177,-257.57,1186.40,545.35
1560,-3.8455,-0.4243,-0.6625,-1945.07,155.27,764.22
1570,-3.8456,-0.3588,-0.5986,1695.56,-782.10,358.03
1580,-3.8457,-0.2958,-0.5242,-1913.82,-610.11,342.53
1590,-3.8458,-0.2418,-0.4521,-1851.32,921.26,1342.71
1600,-3.8459,-0.1946,-0.3928,1054.93,-1859.86,-1157.17
1610,-3.8459,-0.1592,-0.3456,-898.19,1733.95,514.83
1620,-3.8461,-0.1459,-0.3105,-366.94,-219.12,-1672.61
1630,-3.8461,-0.1542,-0.2841,1336.18,265.32,124.39
1640,-3.8462,-0.1686,-0.2603,273.68,-344.06,1390.01
1650,-3.8463,-0.1702,-0.2421,-1570.07,-1297.24,1952.58
1660,-3.8464,-0.1454,-0.2325,-1773.19,1030.88,-1281.74
1670,-3.8464,-0.0939,-0.2410,1398.68,-1750.31,1327.64
1680,-3.8464,-0.0210,-0.2791,-7.57,1171.63,-953.61
1690,-3.8463,0.0653,-0.3260,1320.56,296.81,-703.67
1700,-3.8461,0.1617,-0.3650,367.43,-1734.25,1593.08
1710,-3.8458,0.2805,-0.3889,711.18,1281.56,-1578.86
1720,-3.8455,0.4137,-0.3726,-85.69,-1780.76,14.83
1730,-3.8453,0.5269,-0.3055,961.18,313.29,-1891.36
1740,-3.8453,0.5963,-0.2067,-554.44,891.60,1202.51
1750,-3.8456,0.6212,-0.1105,336.18,1548.03,1968.32
1760,-3.8458,0.6080,-0.0494,-476.32,1860.53,1421.63
1770,-3.8461,0.5712,-0.0393,1836.18,1673.03,-297.00
1780,-3.8461,0.5366,-0.0801,1117.43,-1030.15,-1343.87
1790,-3.8459,0.5243,-0.1606,695.56,1751.04,-406.43
1800,-3.8456,0.5358,-0.2767,-882.57,-561.52,-1234.74
1810,-3.8450,0.5579,-0.4357,586.18,579.16,390.08
1820,-3.8444,0.5768,-0.6139,-585.69,235.41,-1750.85
1830,-3.8749,0.5958,-0.7589,1836.18,1422.97,311.28
1840,-3.8743,0.6317,-0.8475,273.68,-1139.47,701.60
1850,-3.8737,0.6876,-0.8922,867.43,-483.15,76.42
1860,-3.8732,0.7488,-0.9056,23.68,1798.22,1935.73
1870,-3.8728,0.8093,-0.8992,-148.19,79.53,-611.15
1880,-3.8726,0.8805,-0.8911,-398.19,907.78,-564.27
1890,-3.8723,0.9691,-0.8949,711.18,1939.21,216.98
1900,-3.8723,1.0566,-0.9014,54.93,1455.02,-423.65
1910,-3.8722,1.1230,-0.9094,-741.94,627.01,1357.60
1920,-3.8722,1.1945,-0.9542,-241.94,-404.11,-236.21
1930,-3.8719,1.2811,-1.0223,898.68,1861.69,-1861.27
1940,-3.8717,1.3418,-1.0591,-7.57,1143.07,-1970.76
1950,-3.8716,1.3596,-1.0728,-241.94,440.06,1982.30
1960,-3.8716,1.3567,-1.1222,-1960.69,-1309.88,-1424.01
1970,-3.8716,1.3340,-1.2484,1664.31,362.00,-252.20
1980,-3.8715,1.2874,-1.4241,-1241.94,205.69,-1893.07
1990,-3.8715,1.2493,-1.5844,789.31,1721.25,-830.93
2000,-3.8713,1.2283,-1.6925,-85.69,1205.51,637.51
2010,-3.8711,1.1962,-1.7987,1226.81,-638.24,-1050.23
2020,-3.8704,1.1448,-1.9918,1117.43,1767.94,-503.54
2030,-3.8691,1.0872,-2.2767,-1460.69,1049.07,1371.09
2040,-3.8677,1.0284,-2.5918,-835.69,580.20,948.67
2050,-3.8662,0.9497,-2.8315,-351.32,251.95,-1130.07
2060,-3.8649,0.8284,-2.8992,1570.56,1564.33,525.70
2070,-3.8643,0.6802,-2.8048,-1960.69,907.84,-1880.68
2080,-3.8644,0.5392,-2.6289,-929.44,985.66,1197.63
2090,-3.8651,0.4315,-2.4532,1023.68,-498.96,307.31
2100,-3.8662,0.3630,-2.3268,-757.57,1985.17,-520.45
2110,-3.8672,0.2936,-2.2684,-1523.19,-1827.45,-1551.45
2120,-3.8680,0.1832,-2.2811,1586.18,1641.17,-270.08
2130,-3.8684,0.0436,-2.3533,-538.82,15.93,229.92
2140,-3.8687,-0.0919,-2.4595,1586.18,-1218.69,-67.14
2150,-3.8684,-0.1990,-2.5651,242.43,1202.94,370.18
2160,-3.8682,-0.2714,-2.6572,-1460.69,-312.93,-1958.19
2170,-3.8678,-0.3392,-2.7306,1273.68,-109.92,354.13
2180,-3.8676,-0.4664,-2.7511,586.18,-1500.67,260.25
2190,-3.8674,-0.6704,-2.7200,304.93,-125.92,-1755.43
2200,-3.8672,-0.8656,-2.7065,-1804.44,-141.97,400.88
2210,-3.8669,-0.9565,-2.7842,1211.18,1576.42,729.06
2220,-3.8667,-0.9481,-2.9375,1570.56,-361.27,-192.99
2230,-3.8663,-0.9132,-3.0586,-1351.32,13.73,1947.39
2240,-3.8663,-0.9006,-3.0602,-882.57,513.79,-459.11
2250,-3.8667,-0.9128,-2.9272,726.81,310.73,-1709.11
2260,-3.8676,-0.9440,-2.7214,-835.69,1326.29,-365.11
2270,-3.8684,-1.0121,-2.5337,-820.07,-330.02,275.88
2280,-3.8693,-1.1285,-2.4025,-1538.82,-298.89,198.12
2290,-3.8700,-1.2510,-2.3049,-445.07,497.74,-1801.57
2300,-3.8705,-1.3232,-2.2129,-116.94,981.87,1182.98
2310,-3.8710,-1.3258,-2.1144,-1366.94,763.00,-1582.46
2320,-3.8715,-1.2601,-2.0043,-1695.07,1372.38,-301.03
2330,-3.8718,-1.1420,-1.8943,-1288.82,-533.75,1058.53
2340,-3.8722,-1.0042,-1.8008,1836.18,1544.62,58.78
2350,-3.8726,-0.8879,-1.7188,-523.19,1513.61,808.96
2360,-3.8729,-0.8123,-1.6305,-1648.19,13.85,949.77
2370,-3.8734,-0.7681,-1.5249,39.31,-689.09,-1768.86
2380,-3.8739,-0.7495,-1.4041,1695.56,826.60,731.38
2390,-3.8745,-0.7512,-1.2748,70.56,295.41,1887.88
2400,-3.8439,-0.7590,-1.1366,-148.19,842.22,-846.25
2410,-3.8444,-0.7599,-0.9856,-1148.19,-1470.28,1872.74
2420,-3.8448,-0.7496,-0.8285,-1257.57,1857.85,-455.08
2430,-3.8451,-0.7313,-0.6888,54.93,1967.29,1748.35
2440,-3.8452,-0.7042,-0.5752,-1601.32,-157.71,607.97
2450,-3.8453,-0.6643,-0.4973,1867.43,-1610.78,-438.66
2460,-3.8452,-0.6077,-0.4795,-1023.19,358.03,-594.73
2470,-3.8450,-0.5447,-0.5084,-1773.19,-1360.60,-32.23
2480,-3.8446,-0.4943,-0.5249,-1710.69,-1063.60,889.59
2490,-3.8445,-0.4675,-0.4946,742.43,827.15,1733.34
2500,-3.8445,-0.4636,-0.4379,164.31,702.21,1577.15
2510,-3.8446,-0.4657,-0.3744,664.31,-32.17,1311.58
2520,-3.8448,-0.4556,-0.3049,398.68,92.83,-1078.86
2530,-3.8450,-0.4325,-0.2361,1695.56,983.46,905.64
2540,-3.8451,-0.4049,-0.1763,648.68,1796.02,483.89
2550,-3.8452,-0.3702,-0.1211,179.93,1452.33,1249.63
2560,-3.8453,-0.3281,-0.0659,617.43,514.89,-1562.74
2570,-3.8455,-0.2926,-0.0273,-1991.94,-422.55,-125.18
2580,-3.8455,-0.2703,-0.0144,-1445.07,515.01,-1656.31
2590,-3.8455,-0.2574,-0.0183,1414.31,-1828.67,-1218.81
2600,-3.8453,-0.2529,-0.0469,-945.07,1671.33,1624.94
2610,-3.8452,-0.2577,-0.0977,-366.94,-1984.92,1874.88
2620,-3.8451,-0.2772,-0.1531,-976.32,-484.92,-1984.62
2630,-3.8450,-0.3113,-0.2212,523.68,421.33,1859.07
2640,-3.8448,-0.3383,-0.2993,164.31,-297.49,1983.89
2650,-3.8447,-0.3345,-0.3589,711.18,1702.45,1530.64
2660,-3.8447,-0.2913,-0.3948,1195.56,-1922.55,-1438.23
2670,-3.8447,-0.2072,-0.4169,-1273.19,1483.76,92.96
2680,-3.8450,-0.0930,-0.4274,1492.43,-1344.18,-1938.35
2690,-3.8452,0.0237,-0.4320,101.81,1312.32,1952.27
2700,-3.8455,0.1244,-0.4462,-960.69,703.12,-1938.35
2710,-3.8456,0.2128,-0.4852,-70.07,-1109.19,217.83
2720,-3.8457,0.2941,-0.5498,-757.57,1890.99,-1360.35
2730,-3.8456,0.3683,-0.6157,1648.68,1625.55,1358.28
2740,-3.8455,0.4375,-0.6586,-851.32,1188.17,889.40
2750,-3.8455,0.5107,-0.6727,8.06,-296.02,-657.59
2760,-3.8452,0.6025,-0.6659,1383.06,1891.60,45.53
2770,-3.8450,0.7163,-0.6639,1133.06,-1233.22,1545.53
2780,-3.8446,0.8423,-0.6829,-304.44,-983.03,1264.28
2790,-3.8444,0.9617,-0.7123,-179.44,595.34,-1.34
2800,-3.8440,1.0513,-0.7393,-898.19,829.96,-1860.78
2810,-3.8749,1.1047,-0.7540,-1429.44,1377.01,248.54
2820,-3.8746,1.1472,-0.7661,1414.31,-513.49,514.10
2830,-3.8745,1.2134,-0.7986,-1148.19,1939.70,-267.15
2840,-3.8741,1.3038,-0.8486,-679.44,1783.57,1154.66
2850,-3.8738,1.3976,-0.8959,-1101.32,-622.50,1232.67
2860,-3.8734,1.5002,-0.9336,-1101.32,1330.81,1810.73
2870,-3.8730,1.6177,-0.9624,39.31,502.93,-1595.58
2880,-3.8727,1.7263,-0.9757,-929.44,815.61,-830.02
2890,-3.8723,1.7909,-0.9675,976.81,-887.27,810.55
2900,-3.8723,1.7849,-0.9476,1242.43,159.73,-814.39
2910,-3.8724,1.7118,-0.9390,476.81,-1293.40,1169.98
2920,-3.8728,1.6063,-0.9519,-882.57,-184.20,841.86
2930,-3.8733,1.5106,-1.0127,1617.43,-1840.64,-923.77
2940,-3.8735,1.4434,-1.1674,1367.43,-1622.07,-1173.89
2950,-3.8735,1.4163,-1.3928,758.06,-1419.07,-1221.07
2960,-3.8733,1.4287,-1.6123,1289.31,1721.50,1075.38
2970,-3.8729,1.4498,-1.7812,-1116.94,1627.75,1262.45
2980,-3.8724,1.4574,-1.8973,1586.18,2.81,-722.23
2990,-3.8717,1.4705,-1.9728,-1445.07,1143.43,1824.40
3000,-3.8708,1.5187,-2.0449,226.81,-512.76,1386.72
3010,-3.8698,1.6185,-2.1622,-1601.32,-1747.07,589.72
3020,-3.8684,1.7620,-2.3186,-820.07,-762.51,120.73
3030,-3.8671,1.9052,-2.4574,1539.31,-777.83,-1785.83
3040,-3.8660,1.9957,-2.5359,-132.57,1456.79,-1395.45
3050,-3.8655,1.9918,-2.5645,-538.82,-589.90,1401.25
3060,-3.8658,1.8842,-2.5575,-1038.82,-246.15,-20.69
3070,-3.8666,1.7098,-2.5023,1179.93,644.29,698.12
3080,-3.8677,1.5258,-2.4257,-1132.57,-293.58,635.68
3090,-3.8688,1.3615,-2.3765,-695.07,1518.55,245.24
3100,-3.8698,1.2042,-2.3534,-1726.32,-184.88,1573.43
3110,-3.8704,1.0421,-2.3477,-1851.32,-1232.06,-1520.26
3120,-3.8704,0.8928,-2.3850,1398.68,-497.99,1354.74
3130,-3.8699,0.7909,-2.4963,-1710.69,-1279.54,-520.32
3140,-3.8688,0.7507,-2.6865,1242.43,470.28,495.12
3150,-3.8677,0.7264,-2.8981,101.81,126.46,-286.50
3160,-3.8667,0.6213,-3.0261,992.43,1048.28,-21.30
3170,-3.8662,0.3564,-2.9932,-460.69,657.41,556.58
3180,-3.8666,-0.0341,-2.7979,1633.06,875.67,-412.11
3190,-3.8671,-0.4001,-2.5406,-351.32,1890.50,-739.87
3200,-3.8672,-0.5948,-2.3583,789.31,-1188.29,-1770.63
3210,-3.8668,-0.5790,-2.2997,-132.57,-1844.97,1667.24
3220,-3.8663,-0.4017,-2.3456,1898.68,1655.09,-35.77
3230,-3.8657,-0.1372,-2.4651,586.18,-219.54,698.49
3240,-3.8654,0.1045,-2.5693,-1554.44,484.07,-1973.57
3250,-3.8652,0.2017,-2.5419,1383.06,-874.82,1463.68
3260,-3.8656,0.1237,-2.3639,1820.56,-1359.01,604.37
3270,-3.8665,-0.0526,-2.1431,-163.82,1422.06,-4.64
3280,-3.8672,-0.2330,-1.9955,1273.68,1703.00,1433.29
3290,-3.8679,-0.3612,-1.9484,-1820.07,593.26,-691.41
3300,-3.8684,-0.4286,-1.9530,1773.68,-1375.73,1449.28
3310,-3.8690,-0.4675,-1.9387,1148.68,-1969.60,-300.72
3320,-3.8696,-0.5071,-1.8639,164.31,-141.54,-1753.85
3330,-3.8704,-0.5438,-1.7405,-898.19,1436.46,1574.46
3340,-3.8711,-0.5591,-1.6226,-1601.32,1233.28,1059.08
3350,-3.8718,-0.5520,-1.5619,445.56,327.03,-268.80
3360,-3.8722,-0.5575,-1.5665,1351.81,92.65,1856.32
3370,-3.8723,-0.6014,-1.5947,648.68,-501.10,-1690.61
3380,-3.8723,-0.6652,-1.5955,-976.32,-110.60,-96.92
3390,-3.8723,-0.7139,-1.5481,-1132.57,-204.47,1793.70
3400,-3.8726,-0.7290,-1.4656,633.06,1857.97,403.20
3410,-3.8730,-0.7157,-1.3752,-1304.44,420.41,1981.51
3420,-3.8735,-0.6876,-1.2898,398.68,-17.03,-1862.12
3430,-3.8740,-0.6592,-1.2109,-7.57,-1079.53,-1268.19
3440,-3.8745,-0.6395,-1.1312,-366.94,1014.28,-455.51
3450,-3.8749,-0.6212,-1.0367,-1851.32,-782.53,622.74
3460,-3.8441,-0.5903,-0.9337,492.43,-688.72,-392.70
3470,-3.8444,-0.5441,-0.8431,445.56,498.84,1560.67
3480,-3.8446,-0.4916,-0.7797,-1632.57,92.65,1826.48
3490,-3.8448,-0.4425,-0.7456,1086.18,217.77,-282.78
3500,-3.8450,-0.4006,-0.7219,-632.57,577.21,-892.09
3510,-3.8451,-0.3638,-0.6796,726.81,-391.42,-95.21
3520,-3.8451,-0.3280,-0.6104,1445.56,1030.52,1279.91
3530,-3.8452,-0.2886,-0.5337,-1976.32,1889.95,-1938.72
3540,-3.8453,-0.2422,-0.4723,-929.44,-297.49,-1844.85
3550,-3.8455,-0.1931,-0.4269,1008.06,-437.99,1514.65
3560,-3.8457,-0.1589,-0.3846,-710.69,1374.57,-110.23
3570,-3.8458,-0.1560,-0.3386,-335.69,-1219.12,1452.33
3580,-3.8461,-0.1848,-0.3010,39.31,671.57,-969.42
3590,-3.8462,-0.2296,-0.2959,351.81,1484.01,1593.14
3600,-3.8463,-0.2646,-0.3356,-1382.57,-1859.86,1702.51
3610,-3.8464,-0.2710,-0.4248,-1866.94,1061.95,-110.05
3620,-3.8463,-0.2418,-0.5535,1320.56,1640.08,-1860.23
3630,-3.8461,-0.1849,-0.6683,1054.93,1171.39,-1985.47
3640,-3.8457,-0.1184,-0.7178,336.18,-1531.62,1404.91
3650,-3.8455,-0.0529,-0.7086,851.81,140.38,-454.53
3660,-3.8452,0.0150,-0.6815,1242.43,1312.38,561.10
3670,-3.8452,0.0922,-0.6604,1929.93,765.62,279.91
3680,-3.8453,0.1840,-0.6438,-195.07,-531.13,29.91
3690,-3.8456,0.2938,-0.6293,-445.07,1594.06,1451.84
3700,-3.8458,0.4106,-0.6208,1617.43,-546.33,-579.41
3710,-3.8458,0.5177,-0.6285,570.56,532.04,1092.53
3720,-3.8457,0.6083,-0.6526,-1726.32,-452.15,139.34
3730,-3.8455,0.6838,-0.6930,1867.43,469.91,154.97
3740,-3.8451,0.7551,-0.7677,-460.69,-701.84,623.60
3750,-3.8447,0.8326,-0.8689,664.31,1735.84,-251.53
3760,-3.8442,0.9122,-0.9452,-1413.82,782.84,982.67
3770,-3.8440,0.9784,-0.9686,773.68,-982.60,1841.86
3780,-3.8439,1.0146,-0.9656,1242.43,17.52,-830.02
3790,-3.8750,1.0376,-0.9800,1883.06,408.20,-1345.64
3800,-3.8749,1.0950,-1.0260,820.56,-1435.49,-111.33
3810,-3.8745,1.2057,-1.0859,164.31,674.01,1154.24
3820,-3.8743,1.3390,-1.1488,-1663.82,1002.32,-549.01
3830,-3.8740,1.4440,-1.2101,-601.32,955.69,1997.74
3840,-3.8740,1.4888,-1.2588,836.18,1112.18,-1205.51
3850,-3.8741,1.4945,-1.2913,-1429.44,-1122.13,-1158.75
3860,-3.8743,1.5294,-1.3234,-695.07,-1278.38,-1690.06
3870,-3.8743,1.6409,-1.3827,-226.32,-1387.70,-1377.62
3880,-3.8740,1.8094,-1.4783,-1960.69,-981.20,1216.00
3890,-3.8737,1.9774,-1.6124,-382.57,-1215.27,106.45
3900,-3.8732,2.0698,-1.7513,1117.43,1613.22,371.83
3910,-3.8726,2.0325,-1.7999,945.56,-167.85,543.40
3920,-3.8722,1.8859,-1.7296,164.31,1613.34,-1253.54
3930,-3.8721,1.7189,-1.6333,1398.68,-1386.96,746.58
3940,-3.8723,1.6256,-1.6113,23.68,-1059.14,1871.77
3950,-3.8726,1.6213,-1.6698,86.18,1753.17,262.45
3960,-3.8728,1.6610,-1.7799,-460.69,-1731.26,-1378.30
3970,-3.8727,1.7118,-1.9131,617.43,175.11,-34.73
3980,-3.8719,1.7451,-1.9963,-882.57,-871.70,714.97
3990,-3.8710,1.7625,-2.0281,-616.94,472.11,-1144.53
4000,-3.8696,1.8168,-2.1040,1601.81,409.67,277.28
4010,-3.8683,1.9208,-2.2753,554.93,-1308.96,-1441.65
4020,-3.8668,1.9757,-2.5131,1867.43,769.35,-1363.83
4030,-3.8655,1.8561,-2.7456,898.68,-1668.03,948.18
4040,-3.8646,1.5576,-2.8873,1586.18,566.10,1572.75
4050,-3.8644,1.1907,-2.8738,-616.94,-1575.13,1634.95
4060,-3.8649,0.8571,-2.7113,414.31,158.57,-958.74
4070,-3.8658,0.5906,-2.4719,1711.18,954.77,-192.81
4080,-3.8669,0.3795,-2.2439,-398.19,-405.15,-1583.01
4090,-3.8680,0.2119,-2.0924,586.18,781.98,-926.27
4100,-3.8689,0.0806,-2.0199,-866.94,172.24,-629.09
4110,-3.8693,-0.0458,-2.0072,-1679.44,1453.25,1949.16
4120,-3.8690,-0.2029,-2.0825,-1851.32,-906.37,-1832.09
4130,-3.8682,-0.3960,-2.2383,-1960.69,1452.70,1886.54
4140,-3.8672,-0.6171,-2.3790,1320.56,1514.83,1245.61
4150,-3.8666,-0.8613,-2.4343,1023.68,-501.22,260.93
4160,-3.8667,-1.0941,-2.4033,1758.06,420.17,-786.01
4170,-3.8673,-1.2722,-2.2896,-38.82,388.43,1151.55
4180,-3.8684,-1.4025,-2.0822,1164.31,-1049.38,479.86
4190,-3.8698,-1.5010,-1.8148,492.43,1497.25,-50.96
4200,-3.8707,-1.5474,-1.5580,-116.94,-284.24,1933.90
4210,-3.8713,-1.5248,-1.3701,1945.56,590.70,778.20
4220,-3.8716,-1.4432,-1.2928,836.18,637.63,1106.69
4230,-3.8716,-1.3254,-1.3110,-726.32,-1471.62,-1471.31
4240,-3.8715,-1.1960,-1.3524,-1648.19,200.50,716.19
4250,-3.8716,-1.0813,-1.3707,-1085.69,-1096.13,559.81
4260,-3.8721,-1.0088,-1.3453,1601.81,560.36,-377.69
4270,-3.8727,-0.9852,-1.2622,-1116.94,-189.51,-440.19
4280,-3.8734,-0.9961,-1.1467,1898.68,-1548.83,-111.88
4290,-3.8740,-1.0248,-1.0364,508.06,1232.42,310.24
4300,-3.8748,-1.0574,-0.9410,836.18,-642.64,-892.70
4310,-3.8440,-1.0793,-0.8544,664.31,-439.58,904.36
4320,-3.8445,-1.0741,-0.7705,1851.81,-1345.89,1388.92
4330,-3.8448,-1.0250,-0.6919,-1476.32,1388.49,232.85
4340,-3.8452,-0.9280,-0.6379,804.93,-548.89,-704.53
4350,-3.8452,-0.7987,-0.6299,1226.81,-1642.46,1311.22
4360,-3.8451,-0.6578,-0.6698,1773.68,-610.96,-970.03
4370,-3.8447,-0.5217,-0.7295,-195.07,-1720.09,-1345.09
4380,-3.8442,-0.4095,-0.7729,1226.81,-1360.41,404.79
4390,-3.8440,-0.3329,-0.7770,-413.82,1077.27,-1079.65
4400,-3.8439,-0.2843,-0.7272,1398.68,561.83,-1782.78
4410,-3.8440,-0.2471,-0.6317,-382.57,-1063.11,-1829.59
4420,-3.8442,-0.2026,-0.5157,383.06,-844.24,1826.84
4430,-3.8445,-0.1407,-0.4049,-1929.44,1999.57,1639.59
4440,-3.8446,-0.0640,-0.3220,1992.43,187.19,1233.58
4450,-3.8446,0.0184,-0.2697,-179.44,-1203.31,624.33
4460,-3.8446,0.1001,-0.2257,-1632.57,1484.38,1421.33
4470,-3.8446,0.1714,-0.1864,820.56,-890.44,-1609.86
4480,-3.8445,0.2286,-0.1676,1945.56,140.93,265.26
4490,-3.8444,0.2821,-0.1733,1273.68,-1452.70,140.26
4500,-3.8442,0.3373,-0.1946,117.43,1813.05,1155.88
4510,-3.8441,0.3926,-0.2190,-820.07,-905.64,1905.82
4520,-3.8440,0.4480,-0.2330,-1741.94,-30.52,-1828.61
4530,-3.8439,0.4995,-0.2251,1351.81,-1827.27,-1734.86
4540,-3.8750,0.5388,-0.1909,-54.44,-811.58,-1891.11
4550,-3.8749,0.5596,-0.1454,976.81,-436.46,1046.45
4560,-3.8749,0.5522,-0.1113,-366.94,1391.66,-1640.93
4570,-3.8749,0.5173,-0.1067,-1304.44,1751.04,1796.63
4580,-3.8749,0.4775,-0.1318,-1773.19,-1655.27,62.26
4590,-3.8750,0.4597,-0.1763,1133.06,-874.08,-500.31
4600,-3.8749,0.4739,-0.2328,-1148.19,1438.35,1234.01
4610,-3.8749,0.5222,-0.2767,664.31,-1795.96,-78.61
4620,-3.8746,0.6187,-0.2953,-1148.19,579.10,249.45
4630,-3.8744,0.7788,-0.3157,-804.44,-1795.72,1655.64
4640,-3.8739,0.9954,-0.3619,-304.44,-404.79,1702.45
4650,-3.8733,1.2231,-0.4193,-585.69,1673.77,1186.77
4660,-3.8728,1.4010,-0.4576,570.56,-1669.49,-1438.35
4670,-3.8724,1.4989,-0.4641,-663.82,1424.56,733.46
4680,-3.8724,1.5299,-0.4509,-132.57,596.62,1249.08
4690,-3.8727,1.5245,-0.4473,-163.82,-1715.82,-1141.54
4700,-3.8729,1.5085,-0.4729,-851.32,-1247.07,-188.42
4710,-3.8729,1.4919,-0.5146,1101.81,-528.32,1827.15
4720,-3.8728,1.4844,-0.5801,-1023.19,-1872.13,-563.54
4730,-3.8724,1.5111,-0.6854,-1991.94,1752.87,-298.03
4740,-3.8718,1.5718,-0.8103,1429.93,268.55,889.28
4750,-3.8712,1.6277,-0.9409,1195.56,284.30,-1314.09
4760,-3.8704,1.6638,-1.0795,351.81,-434.33,373.11
4770,-3.8695,1.6996,-1.2286,976.81,1831.36,44.74
4780,-3.8687,1.7386,-1.3801,1554.93,-1262.33,153.81
4790,-3.8679,1.7529,-1.5137,-1445.07,-652.89,-1018.37
4800,-3.8672,1.7153,-1.6050,383.06,-1746.58,1309.51
4810,-3.8668,1.6112,-1.6006,-429.44,-1434.20,1449.95
4820,-3.8669,1.4503,-1.4797,-1757.57,-871.89,637.45
4830,-3.8677,1.2756,-1.3149,1648.68,-1403.44,-737.30
4840,-3.8685,1.1312,-1.1956,-710.69,-310.06,-533.87
4850,-3.8693,1.0334,-1.1694,804.93,-1029.05,-1205.51
4860,-3.8698,0.9771,-1.2382,289.31,-1685.49,1638.31
4870,-3.8699,0.9500,-1.3844,1070.56,1517.52,544.43
4880,-3.8696,0.9325,-1.5796,1601.81,-1201.29,-1893.37
4890,-3.8690,0.8862,-1.7677,-632.57,1814.27,-815.61
4900,-3.8682,0.7609,-1.8953,1445.56,1736.08,1027.77
4910,-3.8676,0.5322,-1.9382,1398.68,1407.71,-488.10
4920,-3.8671,0.2311,-1.9098,133.06,-92.71,1183.65
4930,-3.8669,-0.0828,-1.8521,1586.18,-452.70,-1285.03
4940,-3.8668,-0.3589,-1.8026,1414.31,-1047.06,293.21
4950,-3.8668,-0.5565,-1.7881,-1929.44,1280.52,980.83
4960,-3.8668,-0.6619,-1.8126,773.68,-860.47,1871.46
4970,-3.8667,-0.6935,-1.8284,-710.69,-1.34,558.90
4980,-3.8666,-0.6832,-1.7963,-757.57,1982.97,1699.52
4990,-3.8666,-0.5864,-1.5642,-601.32,889.34,512.39
5000,-3.8671,-0.5433,-1.4875,945.56,-204.28,1075.01
5010,-3.8677,-0.5294,-1.4347,-1538.82,1608.28,168.95
5020,-3.8684,-0.5614,-1.4027,242.43,373.96,1606.57
5030,-3.8690,-0.6302,-1.3783,148.68,467.65,1106.63
5040,-3.8695,-0.7090,-1.3512,-663.82,-407.53,731.63
5050,-3.8700,-0.7694,-1.3181,1258.06,-938.90,-580.81
5060,-3.8704,-0.7953,-1.2856,1523.68,-704.65,-1533.87
5070,-3.8707,-0.7864,-1.2643,-1788.82,-548.46,91.19
5080,-3.8712,-0.7501,-1.2455,-648.19,-1814.09,106.87
5090,-3.8718,-0.6946,-1.2117,-7.57,592.22,-1080.57
5100,-3.8723,-0.6284,-1.1523,-898.19,920.47,856.99
5110,-3.8729,-0.5591,-1.0681,-429.44,514.34,-1549.13
5120,-3.8734,-0.4904,-0.9845,445.56,-704.22,1607.24
5130,-3.8738,-0.4332,-0.9310,1242.43,1999.02,544.92
5140,-3.8741,-0.4036,-0.9116,554.93,842.90,-642.46
5150,-3.8744,-0.4043,-0.9039,351.81,-672.67,-298.71
5160,-3.8746,-0.4280,-0.8818,258.06,311.71,-767.40
5170,-3.8749,-0.4595,-0.8346,1226.81,-860.23,1779.48
5180,-3.8440,-0.4772,-0.7666,1195.56,1186.58,-142.27
5190,-3.8442,-0.4716,-0.6962,-1070.07,1889.65,1639.10
5200,-3.8446,-0.4463,-0.6415,-351.32,-1094.73,-1.40
5210,-3.8447,-0.4091,-0.6053,-1116.94,1905.33,14.34
5220,-3.8450,-0.3677,-0.5822,-351.32,-1469.60,-1985.60
5230,-3.8451,-0.3248,-0.5662,945.56,1499.27,1420.72
5240,-3.8452,-0.2844,-0.5480,-1570.07,-453.80,951.97
5250,-3.8453,-0.2509,-0.5217,-398.19,1874.39,186.40
5260,-3.8455,-0.2198,-0.4935,-101.32,1233.83,30.21
5270,-3.8456,-0.1838,-0.4777,-132.57,843.26,1545.90
5280,-3.8456,-0.1295,-0.4745,476.81,-1125.37,1561.52
5290,-3.8456,-0.0448,-0.4688,-570.07,-719.06,-266.60
5300,-3.8455,0.0635,-0.4526,-1726.32,15.50,-1938.42
5310,-3.8455,0.1764,-0.4226,133.06,-1937.38,-1157.17
5320,-3.8455,0.2853,-0.3690,-1413.82,1906.56,-1828.98
5330,-3.8455,0.3983,-0.2897,523.68,766.17,1264.89
5340,-3.8455,0.5485,-0.2007,-1007.57,-1077.39,-1141.24
5350,-3.8452,0.7637,-0.1251,-1788.82,-1686.46,1062.07
5360,-3.8450,1.0293,-0.0881,1758.06,-14.16,-1156.56
5370,-3.8446,1.3088,-0.0936,-241.94,720.70,1406.07
5380,-3.8444,1.5599,-0.1099,-460.69,18.13,-1625.18
5390,-3.8441,1.7244,-0.1160,-320.07,1940.49,-1531.49
5400,-3.8439,1.7694,-0.1206,726.81,1159.61,-1547.12
5410,-3.8749,1.7308,-0.1227,-1507.57,565.92,562.26
5420,-3.8748,1.6827,-0.1333,1554.93,300.23,1390.38
5430,-3.8745,1.7004,-0.2156,-601.32,-1059.27,-1531.56
5440,-3.8739,1.8164,-0.4058,1664.31,409.55,-453.55
5450,-3.8728,1.9795,-0.6310,508.06,66.04,-125.79
5460,-3.8715,2.0996,-0.7729,1383.06,-761.78,-1485.66
5470,-3.8704,2.1244,-0.7800,758.06,1066.59,-1939.03
5480,-3.8696,2.0679,-0.6954,-70.07,160.34,1295.35
5490,-3.8693,1.9895,-0.6138,695.56,-1011.60,-1235.78
5500,-3.8689,1.9487,-0.6143,-1335.69,1441.35,1373.78
5510,-3.8684,1.9832,-0.7211,1445.56,1378.78,1123.78
5520,-3.8677,2.1008,-0.8989,1851.81,-293.03,-1673.34
5530,-3.8667,2.2551,-1.0765,914.31,941.59,-1079.90
5540,-3.8657,2.3431,-1.1935,664.31,-1792.48,-1674.01
5550,-3.8651,2.2734,-1.2474,-70.07,-761.11,1731.99
5560,-3.8651,2.0258,-1.2928,-991.94,332.52,-330.57
5570,-3.8654,1.6425,-1.3866,-695.07,-1480.47,856.81
5580,-3.8658,1.1908,-1.5396,-1757.57,-1481.20,-830.87
5590,-3.8661,0.7314,-1.7167,429.93,-1060.18,1700.07
5600,-3.8661,0.3260,-1.8882,1633.06,267.03,1621.64
5610,-3.8657,0.0204,-2.0493,1742.43,-1686.89,1918.15
5620,-3.8650,-0.1843,-2.1736,-1382.57,1687.50,1511.60
5630,-3.8641,-0.3214,-2.2472,414.31,1796.51,-254.27
5640,-3.8633,-0.4371,-2.2961,-1132.57,374.33,-566.89
5650,-3.8628,-0.5626,-2.3270,54.93,-1891.48,-1426.39
5660,-3.8628,-0.6935,-2.3304,-7.57,-1844.91,-1817.08
5670,-3.8632,-0.8258,-2.3009,-757.57,1717.35,1229.80
5680,-3.8638,-1.0038,-2.2452,-1695.07,1498.35,136.11
5690,-3.8645,-1.2576,-2.1890,-476.32,622.99,1589.36
5700,-3.8651,-1.5327,-2.1527,-960.69,-174.38,-582.46
5710,-3.8655,-1.7383,-2.1398,-179.44,465.70,1402.04
5720,-3.8660,-1.8353,-2.1370,1508.06,-1878.42,-1301.09
5730,-3.8666,-1.8495,-2.1290,1086.18,-1519.23,-1363.59
5740,-3.8674,-1.8190,-2.1073,-726.32,-503.66,-879.21
5750,-3.8684,-1.7626,-2.0481,-820.07,-1722.35,1214.60
5760,-3.8696,-1.6859,-1.9227,-1601.32,1855.90,-800.90
5770,-3.8708,-1.5980,-1.7411,211.18,1902.95,-1363.16
5780,-3.8721,-1.5071,-1.5536,-538.82,1153.08,1684.08
5790,-3.8733,-1.4081,-1.4045,-898.19,1153.26,-378.05
5800,-3.8743,-1.2911,-1.3025,-226.32,231.57,-690.25
5810,-3.8750,-1.1594,-1.2286,-1257.57,1294.31,1856.81
5820,-3.8444,-1.0289,-1.1552,-398.19,-1252.32,1794.43
5830,-3.8448,-0.9176,-1.0642,304.93,154.24,403.99
5840,-3.8453,-0.8345,-0.9642,-1445.07,-204.96,513.49
5850,-3.8458,-0.7742,-0.8783,1195.56,592.10,-1142.52
5860,-3.8462,-0.7255,-0.8152,914.31,-407.78,-64.27
5870,-3.8464,-0.6846,-0.7683,-851.32,-329.59,-767.27
5880,-3.8467,-0.6522,-0.7300,383.06,1670.53,-48.40
5890,-3.8468,-0.6219,-0.7047,523.68,-1423.16,1576.66
5900,-3.8469,-0.5754,-0.7035,398.68,1811.28,1264.22
5910,-3.8469,-0.4999,-0.7211,-1648.19,1967.59,279.85
5920,-3.8469,-0.3972,-0.7518,23.68,-282.23,-1126.46
5930,-3.8468,-0.2737,-0.7833,1164.31,-219.54,-610.90
5940,-3.8467,-0.1459,-0.7866,976.81,-250.55,-1048.46
5950,-3.8466,-0.0260,-0.7457,1336.18,-672.18,170.29
5960,-3.8467,0.0901,-0.6577,679.93,562.44,1670.41
5970,-3.8469,0.2018,-0.5353,-460.69,-187.38,-1360.72
5980,-3.8472,0.3038,-0.4122,1836.18,-515.26,561.40
5990,-3.8475,0.3872,-0.3271,-1101.32,-765.08,-1469.60
6000,-3.8477,0.4481,-0.3008,1570.56,-1874.27,202.45
6010,-3.8478,0.5038,-0.3346,1367.43,1500.85,-531.86
6020,-3.8475,0.5813,-0.4231,492.43,1172.85,-1860.05
6030,-3.8470,0.7100,-0.5385,-1585.69,1844.85,-938.35
6040,-3.8462,0.8995,-0.6227,-1116.94,-920.53,358.28
6050,-3.8455,1.1198,-0.6344,-851.32,298.58,-1829.35
6060,-3.8448,1.3270,-0.5846,-663.82,-1200.99,1389.34
6070,-3.8445,1.4989,-0.5250,1867.43,1174.44,842.59
6080,-3.8444,1.6327,-0.5164,-132.57,799.74,-688.54
6090,-3.8441,1.7347,-0.5850,992.43,1909.42,530.21
6100,-3.8439,1.8131,-0.7120,-1945.07,1128.36,373.84
6110,-3.8748,1.8754,-0.8661,86.18,862.92,732.97
6120,-3.8743,1.9343,-1.0377,54.93,1144.29,888.92
6130,-3.8738,1.9821,-1.2053,-398.19,-824.40,-173.95
6140,-3.8730,1.9895,-1.3118,1711.18,1722.60,1263.24
6150,-3.8724,1.9700,-1.3414,-1335.69,97.60,-33.81
6160,-3.8717,1.9897,-1.3635,164.31,300.72,-190.12
6170,-3.8707,2.0997,-1.4669,-1304.44,1472.60,1966.06
6180,-3.8694,2.2985,-1.6515,773.68,238.46,340.88
6190,-3.8678,2.5665,-1.8562,-1788.82,613.83,-1081.36
6200,-3.8660,2.8612,-2.0599,523.68,-1588.75,-1847.41
6210,-3.8644,3.0905,-2.2072,-1757.57,333.68,1824.10
6220,-3.8634,3.1451,-2.2292,-413.82,1490.36,1058.17
6230,-3.8634,2.9561,-2.1749,-1413.82,-1337.65,1901.86
6240,-3.8643,2.5511,-2.1355,-1616.94,1615.11,-394.90
6250,-3.8654,2.0527,-2.1367,-1445.07,-1338.81,-1457.34
6260,-3.8663,1.6052,-2.1970,-1241.94,-1496.03,1839.54
6270,-3.8668,1.2760,-2.3640,1476.81,-1215.64,1214.42
6280,-3.8666,1.0304,-2.6484,-663.82,1408.69,-864.01
6290,-3.8655,0.8103,-2.9739,-101.32,1001.95,1119.81
6300,-3.8643,0.5698,-3.2018,-273.19,-654.72,-818.36
6310,-3.8632,0.2576,-3.2532,945.56,-1827.03,-631.29
6320,-3.8624,-0.1245,-3.1896,976.81,-405.76,-147.03
6330,-3.8618,-0.4878,-3.1422,70.56,-250.24,56.21
6340,-3.8613,-0.7601,-3.1976,1570.56,1811.52,321.96
6350,-3.8608,-0.9414,-3.3467,-1288.82,-1282.78,-1881.29
6360,-3.8605,-1.0703,-3.5020,-491.94,-361.27,-1615.97
6370,-3.8605,-1.1833,-3.5601,-991.94,-236.51,227.48
6380,-3.8611,-1.2710,-3.4817,539.31,325.81,946.17
6390,-3.8621,-1.3131,-3.3199,1320.56,-1643.13,-428.71
6400,-3.8629,-1.3313,-3.1636,-70.07,-940.12,-1319.03
6410,-3.8636,-1.3538,-3.0535,1601.81,-924.50,-1615.60
6420,-3.8644,-1.3690,-2.9872,-1273.19,1169.19,-990.36
6430,-3.8651,-1.3542,-2.9634,773.68,1653.56,947.27
6440,-3.8661,-1.3168,-2.9561,-1335.69,700.44,-21.42
6450,-3.8669,-1.2778,-2.9193,-538.82,1638.00,775.45
6460,-3.8680,-1.2528,-2.8313,445.56,-1658.75,-1255.74
6470,-3.8691,-1.2543,-2.7285,-351.32,1606.87,-927.43
6480,-3.8701,-1.2728,-2.6593,-538.82,-1236.88,682.13
6490,-3.8711,-1.2920,-2.6232,1086.18,-377.50,682.25
6500,-3.8721,-1.3206,-2.5797,-1366.94,247.44,-1723.88
6510,-3.8729,-1.3745,-2.4932,-1023.19,1809.88,244.93
6520,-3.8739,-1.4279,-2.3724,70.56,887.94,-911.13
6530,-3.8746,-1.4260,-2.2579,1242.43,340.94,-1801.51
6540,-3.8439,-1.3403,-2.1851,1476.81,-1002.81,-1723.21
6550,-3.8441,-1.1843,-2.1515,445.56,325.50,-988.65
6560,-3.8442,-1.0010,-2.1306,414.31,622.68,-1082.34
6570,-3.8444,-0.8420,-2.1038,-116.94,-705.14,-1488.59
6580,-3.8445,-0.7405,-2.0502,226.81,-1267.27,386.47
6590,-3.8448,-0.6908,-1.9478,1226.81,1592.29,1105.35
6600,-3.8455,-0.6703,-1.8159,-413.82,-1298.28,1761.78
6610,-3.8462,-0.6466,-1.6985,-1788.82,-423.22,121.40
6620,-3.8478,-0.3683,-1.2391,-1804.44,1842.71,-924.62
6630,-3.8478,-0.1926,-1.1970,867.43,1405.52,1669.43
6640,-3.8478,-0.0300,-1.2440,-648.19,-1203.55,294.49
6650,-3.8479,0.0969,-1.2611,164.31,781.19,388.18
6660,-3.8483,0.1788,-1.1576,414.31,-1421.69,-1627.50
6670,-3.8488,0.2095,-0.9733,-1101.32,-171.57,-1674.19
6680,-3.8492,0.1882,-0.7957,-1179.44,-577.76,-533.20
6690,-3.8494,0.1519,-0.6941,101.81,-1843.38,951.54
6700,-3.8492,0.1541,-0.6979,-554.44,-843.51,701.72
6710,-3.8489,0.1990,-0.7826,-273.19,-1327.88,686.10
6720,-3.8484,0.2380,-0.8960,1476.81,-171.51,217.16
6730,-3.8480,0.2334,-0.9901,-1523.19,1312.93,1888.85
6740,-3.8478,0.2087,-1.0509,1883.06,1266.05,1794.92
6750,-3.8477,0.2769,-1.1281,-1273.19,1484.74,1810.42
6760,-3.8474,0.5311,-1.1874,-554.44,-390.14,200.87
6770,-3.8472,0.8478,-1.1855,-7.57,16.60,-892.94
6780,-3.8469,1.0717,-1.1877,523.68,251.65,-955.44
6790,-3.8468,1.1775,-1.2068,1179.93,-29.17,544.49
6800,-3.8468,1.2166,-1.2344,-1273.19,1533.51,778.87
6810,-3.8467,1.3179,-1.3411,-273.19,-1997.68,1966.31
6820,-3.8461,1.5643,-1.5522,695.56,346.31,-1830.75
6830,-3.8450,1.9160,-1.7343,242.43,1315.55,1981.32
6840,-3.8440,2.2466,-1.7651,1258.06,-1980.65,-1815.92
6850,-3.8749,2.4155,-1.6705,-429.44,-1933.17,809.02
6860,-3.8439,2.3822,-1.5778,1195.56,-1823.43,902.95
6870,-3.8442,2.2618,-1.5948,929.93,-1948.49,-1706.24
6880,-3.8442,2.1763,-1.7399,1523.68,-136.23,246.83
6890,-3.8439,2.1410,-1.9862,-1429.44,1301.09,496.58
6900,-3.8743,2.1084,-2.2469,-1945.07,1769.78,1199.22
6910,-3.8732,2.0398,-2.3890,1883.06,394.71,1573.73
6920,-3.8722,1.9683,-2.3995,1101.81,-1792.91,1385.93
6930,-3.8713,1.9722,-2.4005,-54.44,863.16,1307.80
6940,-3.8704,2.0883,-2.4685,445.56,738.22,-1832.82
6950,-3.8691,2.2821,-2.5507,-695.07,35.28,401.43
6960,-3.8680,2.4857,-2.5851,117.43,1520.08,1776.25
6970,-3.8671,2.6520,-2.6034,-1820.07,1114.20,-98.82
6980,-3.8661,2.7670,-2.6649,-538.82,-1229.25,-5.13
6990,-3.8651,2.8523,-2.7655,-1820.07,-1104.00,260.38
7000,-3.8646,2.9503,-2.8888,1101.81,-1978.82,-1755.43
7010,-3.8646,3.0355,-3.0344,1648.68,-1759.89,838.07
7020,-3.8655,3.0193,-3.1929,554.93,-400.33,-224.73
7030,-3.8666,2.8696,-3.3755,-1523.19,-681.64,1103.09
7040,-3.8676,2.6101,-3.6136,-679.44,-56.95,-1897.28
7050,-3.8677,2.2501,-3.8716,-1898.19,1458.19,946.04
7060,-3.8669,1.8087,-4.0000,23.68,441.89,-195.07
7070,-3.8654,1.3254,-4.0000,-476.32,3.48,-570.31
7080,-3.8635,0.8170,-4.0000,1664.31,2.56,-1914.06
7090,-3.8622,0.2518,-3.9832,586.18,1.59,898.44
7100,-3.8616,-0.2429,-3.8510,242.43,-1843.26,70.31
7110,-3.8612,-0.3904,-3.6323,914.31,-906.74,929.93
7120,-3.8605,-0.1061,-3.5023,-1960.69,-922.67,1461.61
7130,-3.8596,0.3625,-3.5392,-1570.07,-281.49,868.10
7140,-3.8595,0.6826,-3.6855,-1585.69,-1014.95,-6.96
7150,-3.8595,0.6898,-3.7842,-616.94,251.28,-7.20
7160,-3.8600,0.3669,-3.6893,304.93,-373.66,70.68
7170,-3.8613,-0.1757,-3.4457,-1023.19,-233.70,305.24
7180,-3.8629,-0.7941,-3.2029,1523.68,-1031.62,665.10
7190,-3.8643,-1.3542,-3.0090,-1632.57,-1954.71,-1756.29
7200,-3.8652,-1.7263,-2.8602,-1335.69,-1143.31,-162.17
7210,-3.8658,-1.8342,-2.7911,-960.69,1902.83,-1818.12
7220,-3.8663,-1.6891,-2.8064,1226.81,-1253.60,-364.87
7230,-3.8665,-1.3928,-2.8542,-195.07,793.52,-1896.12
7240,-3.8665,-1.0955,-2.8870,1726.81,-1330.87,-599.37
7250,-3.8666,-0.8937,-2.8705,-210.69,-1517.82,713.07
7260,-3.8676,-0.7966,-2.7738,1617.43,591.98,-130.62
7270,-3.8690,-0.7899,-2.5956,-1960.69,967.16,1494.57
7280,-3.8708,-0.8585,-2.3784,-1101.32,-220.34,1979.25
7290,-3.8726,-0.9871,-2.1646,-1882.57,-423.58,-1067.20
7300,-3.8739,-1.1432,-1.9568,1664.31,-1048.83,-1160.52
7310,-3.8749,-1.2686,-1.7560,1679.93,1544.62,1793.03
7320,-3.8444,-1.2963,-1.5857,1633.06,-752.50,-831.60
7330,-3.8446,-1.1815,-1.4899,-1913.82,1044.31,246.89
7340,-3.8446,-0.9541,-1.4757,773.68,1310.18,-706.05
7350,-3.8441,-0.7026,-1.4877,1883.06,-876.89,372.07
7360,-3.8439,-0.5020,-1.4486,-1929.44,1592.35,-534.18
7370,-3.8439,-0.3621,-1.3049,-241.94,-1407.29,-1002.87
7380,-3.8442,-0.2555,-1.0596,1664.31,983.64,184.94
7390,-3.8451,-0.1812,-0.7810,-695.07,390.08,-1283.33
7400,-3.8458,-0.1503,-0.5603,820.56,46.51,154.72
7410,-3.8464,-0.1438,-0.4342,773.68,296.57,-1813.60
7420,-3.8467,-0.1398,-0.3805,1601.81,437.19,1936.65
7430,-3.8468,-0.1410,-0.3617,-1882.57,-687.81,514.83
7440,-3.8470,-0.1349,-0.3203,1961.18,1718.44,546.14
7450,-3.8473,-0.0933,-0.2323,-1257.57,-984.68,-547.55
7460,-3.8470,-0.0410,-0.1912,70.56,-1718.93,1124.51
7470,-3.8468,-0.0518,-0.2272,-1241.94,-453.25,-16.05
7480,-3.8466,-0.1288,-0.2419,1383.06,-1062.62,-1609.86
7490,-3.8466,-0.2056,-0.1744,-476.32,1046.57,1624.51
7500,-3.8468,-0.2521,-0.0516,1695.56,1687.07,-547.24
7510,-3.8470,-0.2631,0.0592,-257.57,1405.70,-453.25
7520,-3.8472,-0.2363,0.1241,-1663.82,-406.80,625.06
7530,-3.8474,-0.1841,0.1267,1758.06,-94.24,-93.57
7540,-3.8473,-0.1085,0.0513,445.56,234.01,375.24
7550,-3.8470,-0.0051,-0.0652,-1882.57,-1422.12,-765.56
7560,-3.8463,0.1218,-0.1633,-648.19,-328.19,624.82
7570,-3.8456,0.2609,-0.2217,-398.19,-906.07,-1422.24
7580,-3.8448,0.3927,-0.2397,1398.68,-374.51,-953.61
7590,-3.8442,0.4918,-0.2257,-1726.32,1313.23,1796.39
7600,-3.8439,0.5450,-0.2147,-1038.82,-889.71,1108.89
7610,-3.8750,0.5675,-0.2350,1773.68,516.66,1780.82
7620,-3.8750,0.5731,-0.2686,648.68,1922.97,-187.99
7630,-3.8749,0.5791,-0.2808,1367.43,1626.10,1765.08
7640,-3.8749,0.6252,-0.2714,-1866.94,63.60,-1031.80
7650,-3.8748,0.7388,-0.2905,39.31,1266.85,1843.20
7660,-3.8745,0.8956,-0.3700,-1429.44,-1186.10,-1453.74
7670,-3.8740,1.0270,-0.4724,-1351.32,642.33,718.02
7680,-3.8737,1.0835,-0.5251,-538.82,-466.80,-1454.10
7690,-3.8734,1.0813,-0.4852,-1304.44,783.33,1264.59
7700,-3.8734,1.0736,-0.3923,-1585.69,1892.70,1733.40
7710,-3.8734,1.0798,-0.3185,1429.93,1783.33,-844.54
7720,-3.8732,1.0782,-0.2852,-1773.19,-763.55,1202.45
7730,-3.8729,1.0764,-0.2841,-1976.32,-497.92,-1891.24
7740,-3.8726,1.1056,-0.3075,1789.31,-357.30,1155.64
7750,-3.8722,1.1732,-0.3248,1523.68,642.76,968.14
7760,-3.8719,1.2864,-0.3230,-1820.07,-1575.87,999.33
7770,-3.8717,1.4384,-0.3331,664.31,-1341.25,202.45
7780,-3.8715,1.5654,-0.3391,117.43,1362.18,905.58
7790,-3.8715,1.5942,-0.2921,383.06,596.80,-485.05
7800,-3.8716,1.5262,-0.2097,70.56,-1387.51,-1266.24
7810,-3.8717,1.4153,-0.1357,-632.57,1159.18,-219.18
7820,-3.8716,1.3038,-0.0891,1164.31,-1372.25,-812.81
7830,-3.8713,1.2291,-0.0780,-1101.32,596.25,1624.82
7840,-3.8711,1.2208,-0.1041,1336.18,-1981.99,1671.69
7850,-3.8708,1.2660,-0.1604,273.68,-1325.74,-593.99
7860,-3.8705,1.3263,-0.2708,-1945.07,-528.81,1530.88
7870,-3.8702,1.3677,-0.4139,1773.68,1346.31,-234.92
7880,-3.8700,1.3591,-0.4700,-929.44,-981.75,-1516.48
7890,-3.8701,1.2936,-0.4022,1976.81,-153.63,-360.35
7900,-3.8705,1.1959,-0.2708,1586.18,518.13,-578.92
7910,-3.8707,1.1227,-0.1493,1086.18,1346.07,108.83
7920,-3.8707,1.1365,-0.1080,-288.82,892.76,1890.32
7930,-3.8702,1.2478,-0.1624,1476.81,-1825.93,-797.12
7940,-3.8694,1.4086,-0.2695,-273.19,-778.87,1780.88
7950,-3.8685,1.5679,-0.3951,304.93,1502.75,1343.20
7960,-3.8678,1.7002,-0.5508,695.56,1424.93,-1828.92
7970,-3.8671,1.7428,-0.6844,1633.06,1503.30,1639.53
7980,-3.8665,1.6122,-0.6942,-913.82,393.98,186.16
7990,-3.8663,1.3331,-0.5703,-1632.57,-856.26,1014.22
8000,-3.8667,1.0475,-0.3600,-1351.32,-997.44,-1751.16
8010,-3.8672,0.9009,-0.1542,-1913.82,1923.89,1905.52
8020,-3.8674,0.9631,-0.0852,-679.44,267.33,702.82
8030,-3.8674,1.2009,-0.1914,-710.69,1095.58,-0.18
8040,-3.8669,1.4980,-0.3652,1726.81,-497.68,405.82
8050,-3.8667,1.7146,-0.4905,-241.94,1252.87,-610.11
8060,-3.8666,1.7422,-0.5291,-523.19,1222.05,1108.40
8070,-3.8668,1.5673,-0.4856,-991.94,284.61,1373.96
8080,-3.8673,1.2719,-0.4098,617.43,1846.80,-1344.73
8090,-3.8678,0.9712,-0.3733,-1195.07,-450.68,-782.10
8100,-3.8679,0.7694,-0.3969,320.56,220.64,1421.14
8110,-3.8676,0.7134,-0.4491,-1507.57,1204.59,1483.58
8120,-3.8667,0.7887,-0.4896,-679.44,-1483.03,1327.21
8130,-3.8657,0.9413,-0.4781,961.18,1329.65,311.52
8140,-3.8651,1.0986,-0.4103,492.43,-1201.29,1483.40
8150,-3.8650,1.1847,-0.3284,633.06,-513.49,-782.10
8160,-3.8652,1.1592,-0.2539,-351.32,1971.01,-344.42
8170,-3.8656,1.0474,-0.1960,383.06,-497.74,1452.58
8180,-3.8660,0.8792,-0.2000,-1929.44,-1091.74,1030.82
8190,-3.8661,0.6660,-0.2842,539.31,-1592.04,655.82
8200,-3.8660,0.4453,-0.4006,1258.06,-373.72,140.01
8210,-3.8657,0.2664,-0.5127,1008.06,719.60,1014.83
8220,-3.8654,0.1444,-0.6202,-1898.19,-1624.51,-32.29
8230,-3.8647,0.0664,-0.7010,-1507.57,609.62,1655.03
8240,-3.8645,0.0159,-0.7189,508.06,-1734.25,-360.78
8250,-3.8646,-0.0322,-0.6766,-1960.69,-15.62,-329.59
8260,-3.8651,-0.0953,-0.6117,-116.94,1406.13,-1188.84
8270,-3.8658,-0.1783,-0.5596,-195.07,1718.51,1842.53
8280,-3.8667,-0.2841,-0.5330,1179.93,390.26,-1563.60
8290,-3.8674,-0.4067,-0.5214,-351.32,-203.74,545.78
8300,-3.8682,-0.5342,-0.5018,-54.44,1280.40,998.96
8310,-3.8689,-0.6323,-0.4939,-366.94,-219.85,-313.54
8320,-3.8693,-0.6669,-0.5413,-929.44,795.59,452.15
8330,-3.8695,-0.6395,-0.6399,-1351.32,-1266.97,-1094.85
8340,-3.8694,-0.5873,-0.7462,-1851.32,-1891.91,170.59
8350,-3.8695,-0.5508,-0.8038,836.18,498.84,-657.71
8360,-3.8699,-0.5447,-0.7780,1508.06,1123.90,-298.46
8370,-3.8705,-0.5699,-0.6909,-1710.69,436.40,310.97
8380,-3.8715,-0.6210,-0.5917,-945.07,-423.03,-1360.78
8390,-3.8723,-0.6796,-0.5052,523.68,280.03,389.47
8400,-3.8732,-0.7212,-0.4338,1023.68,-657.59,-1891.66
8410,-3.8738,-0.7327,-0.3772,-304.44,482.91,-953.98
8420,-3.8741,-0.7168,-0.3386,-1773.19,-267.09,-422.67
8430,-3.8743,-0.6812,-0.3174,258.06,670.47,1108.70
8440,-3.8744,-0.6321,-0.3201,820.56,-610.72,968.08
8450,-3.8745,-0.5790,-0.3538,-898.19,-954.41,-1172.55
8460,-3.8745,-0.5331,-0.4039,1898.68,-1266.78,-1063.23
8470,-3.8745,-0.5039,-0.4390,-226.32,311.40,-1032.04
8480,-3.8746,-0.4916,-0.4368,-491.94,-172.91,-1188.42
8490,-3.8749,-0.4835,-0.4133,1086.18,108.40,1155.40
8500,-3.8440,-0.4667,-0.3933,-1882.57,-891.60,686.65
8510,-3.8444,-0.4341,-0.3680,273.68,1670.96,686.71
8520,-3.8447,-0.3905,-0.3190,445.56,905.40,1655.52
8530,-3.8451,-0.3458,-0.2631,-1976.32,-813.29,-1156.92
8540,-3.8453,-0.3011,-0.2323,-257.57,-1656.98,1343.20
8550,-3.8456,-0.2572,-0.2335,1461.18,-1719.36,-922.36
8560,-3.8456,-0.2183,-0.2632,-913.82,-1875.55,390.14
8570,-3.8457,-0.1826,-0.3127,70.56,-1672.30,-141.17
8580,-3.8456,-0.1421,-0.3546,633.06,-15.99,61.83
8590,-3.8456,-0.0939,-0.3671,1820.56,-1375.31,233.64
8600,-3.8457,-0.0463,-0.3593,-7.57,1031.01,-110.11
8610,-3.8457,-0.0063,-0.3627,-1913.82,-1968.87,-985.11
8620,-3.8457,0.0245,-0.3903,-804.44,1593.69,-1297.61
8630,-3.8456,0.0518,-0.4177,-851.32,-1953.12,717.96
8640,-3.8455,0.0938,-0.4309,-1366.94,-1468.69,1780.40
8650,-3.8452,0.1774,-0.4550,8.06,843.93,1624.15
8660,-3.8448,0.3130,-0.5034,-1288.82,1765.93,-1391.54
8670,-3.8442,0.4901,-0.5557,70.56,-436.89,-1594.79
8680,-3.8748,0.6940,-0.5935,-1257.57,875.92,842.65
8690,-3.8743,0.9097,-0.6180,836.18,32.59,-594.91
8700,-3.8739,1.1226,-0.6301,445.56,892.40,-1891.85
8710,-3.8738,1.3073,-0.6261,-304.44,-654.11,1139.34
8720,-3.8739,1.4398,-0.6105,-663.82,-138.12,-1845.03
8730,-3.8741,1.5098,-0.5912,304.93,1862.18,-594.97
8740,-3.8743,1.5258,-0.5796,1258.06,331.05,1623.84
8750,-3.8743,1.5305,-0.5917,-695.07,1815.43,1998.84
8760,-3.8740,1.5599,-0.6394,-85.69,268.55,1936.34
8770,-3.8737,1.6200,-0.7129,-320.07,-1840.76,-1907.53
8780,-3.8733,1.7059,-0.7732,-632.57,753.11,-1407.65
8790,-3.8729,1.8093,-0.8002,-1632.57,1034.55,-1564.03
8800,-3.8727,1.8998,-0.8237,-398.19,1581.60,-157.84
8810,-3.8726,1.9276,-0.8550,-820.07,-1433.84,-1079.77
8820,-3.8727,1.8621,-0.8672,-1257.57,-1433.78,1560.79
8830,-3.8730,1.7267,-0.8740,-1648.19,1003.60,1138.92
8840,-3.8734,1.5972,-0.9526,1023.68,128.36,-1345.46
8850,-3.8732,1.5312,-1.1342,445.56,-1934.39,701.23
8860,-3.8724,1.5272,-1.3322,8.06,-1168.88,-736.63
8870,-3.8712,1.5680,-1.4517,-507.57,1487.30,1591.13
8880,-3.8700,1.6537,-1.4890,711.18,-1809.45,-1596.62
8890,-3.8688,1.7808,-1.4812,-320.07,1409.42,1137.70
8900,-3.8677,1.9244,-1.4418,-54.44,-1590.33,1450.20
8910,-3.8667,2.0751,-1.3988,-1663.82,-543.15,-1471.62
8920,-3.8658,2.2317,-1.3973,1617.43,957.15,-580.87
8930,-3.8651,2.3657,-1.4598,1664.31,1144.96,-596.50
8940,-3.8645,2.4397,-1.5861,-1179.44,1145.20,372.13
8950,-3.8643,2.4218,-1.7582,289.31,989.14,59.39
8960,-3.8645,2.2731,-1.9161,1992.43,-1042.18,-753.48
8970,-3.8651,1.9855,-1.9985,-1038.82,-1261.23,-753.78
8980,-3.8660,1.5992,-2.0116,-1851.32,191.35,230.47
8990,-3.8669,1.1664,-1.9866,711.18,-1481.26,-1660.22
9000,-3.8674,0.7695,-1.9397,1304.93,1721.01,-1363.28
9010,-3.8672,0.5133,-1.9236,-1491.94,-279.79,-1222.60
9020,-3.8661,0.4729,-2.0260,1711.18,1782.23,-1191.28
9030,-3.8643,0.6193,-2.2488,539.31,672.79,386.66
9040,-3.8624,0.7915,-2.4410,-726.32,157.41,89.36
9050,-3.8613,0.8318,-2.4524,1320.56,-451.60,588.93
9060,-3.8613,0.6982,-2.2869,-1523.19,-1904.66,417.05
9070,-3.8622,0.4481,-2.0824,1383.06,-717.41,-1879.52
9080,-3.8632,0.1707,-1.9535,1367.43,1453.98,-675.96
9090,-3.8639,-0.0746,-1.8896,1851.81,1953.43,-800.72
9100,-3.8644,-0.2635,-1.8375,-1538.82,-1859.56,1105.65
9110,-3.8649,-0.3973,-1.7820,-1726.32,811.95,1824.52
9120,-3.8654,-0.4943,-1.7502,1148.68,-78.92,-128.54
9130,-3.8657,-0.5779,-1.7693,742.43,-16.60,-1440.98
9140,-3.8661,-0.6681,-1.8180,-1960.69,1545.72,1590.27
9150,-3.8665,-0.7805,-1.8467,-1507.57,-688.84,1496.40
9160,-3.8668,-0.9292,-1.8256,101.81,-360.90,1730.71
9170,-3.8673,-1.1011,-1.7343,1070.56,-1658.08,-425.48
9180,-3.8678,-1.2454,-1.5732,-929.44,-1970.95,652.83
9190,-3.8685,-1.3230,-1.4083,601.81,-1361.82,1043.76
9200,-3.8694,-1.3381,-1.2911,-1335.69,-252.62,-987.18
9210,-3.8701,-1.3036,-1.2058,726.81,-1252.62,-1830.69
9220,-3.8707,-1.2253,-1.1316,1148.68,1669.31,1388.24
9230,-3.8712,-1.1184,-1.0654,-835.69,-830.57,1310.24
9240,-3.8716,-0.9939,-1.0072,851.81,-361.57,1247.86
9250,-3.8718,-0.8561,-0.9668,789.31,-908.20,1091.74
9260,-3.8719,-0.7295,-0.9471,-1570.07,263.92,1185.61
9270,-3.8721,-0.6472,-0.9337,-1366.94,-1220.21,-533.14
9280,-3.8722,-0.6166,-0.9152,1164.31,498.72,-595.58
9290,-3.8724,-0.6190,-0.8823,1086.18,-1126.22,-1486.21
9300,-3.8728,-0.6317,-0.8420,773.68,-923.10,-1439.27
9310,-3.8732,-0.6379,-0.8082,-851.32,233.09,-1876.65
9320,-3.8735,-0.6228,-0.7836,-1648.19,561.22,1857.79
9330,-3.8739,-0.5763,-0.7694,289.31,-282.47,-1689.09
9340,-3.8741,-0.5031,-0.7660,-1757.57,1530.09,14.10
9350,-3.8745,-0.4214,-0.7585,-382.57,1967.71,1654.72
9360,-3.8749,-0.3484,-0.7257,-1929.44,-1078.98,-1657.78
9370,-3.8440,-0.2930,-0.6757,-585.69,-875.73,-360.84
9380,-3.8442,-0.2555,-0.6509,-1491.94,1530.64,-454.47
9390,-3.8444,-0.2269,-0.6747,-695.07,702.58,-251.28
9400,-3.8442,-0.1996,-0.7078,-1038.82,1655.76,467.41
9410,-3.8442,-0.1678,-0.7006,-1538.82,1421.45,-1860.78
9420,-3.8442,-0.1240,-0.6512,-1476.32,-1656.62,248.60
9430,-3.8445,-0.0697,-0.5863,133.06,656.01,1670.59
9440,-3.8447,-0.0197,-0.5237,-913.82,968.57,451.97
9450,-3.8451,0.0122,-0.4620,1492.43,984.31,-1251.04
9460,-3.8453,0.0297,-0.3998,1570.56,859.38,905.33
9470,-3.8457,0.0487,-0.3461,-195.07,828.12,-469.54
9480,-3.8458,0.0918,-0.3252,-1757.57,-296.81,-1719.48
9490,-3.8457,0.1758,-0.3888,-241.94,-1624.88,-828.80
9500,-3.8451,0.3007,-0.5305,-1491.94,-1765.32,796.08
9510,-3.8444,0.4445,-0.6565,-1507.57,94.30,498.96
9520,-3.8439,0.5643,-0.6981,898.68,-30.40,-360.72
9530,-3.8749,0.6276,-0.6549,242.43,-1358.28,-298.28
9540,-3.8750,0.6271,-0.5558,336.18,173.10,-204.41
9550,-3.8440,0.5831,-0.4417,273.68,860.60,186.40
9560,-3.8445,0.5426,-0.3556,-1351.32,-530.15,-141.54
9570,-3.8446,0.5597,-0.3247,1461.18,-1514.59,-1938.23
9580,-3.8444,0.6700,-0.3591,-351.32,-1561.46,77.45
9590,-3.8439,0.8671,-0.4576,1773.68,-1967.47,-1719.48
9600,-3.8744,1.1060,-0.5951,-1007.57,1423.52,-391.54
9610,-3.8737,1.3229,-0.7197,1570.56,-169.74,-454.35
9620,-3.8732,1.4501,-0.7733,1336.18,-122.44,-1063.96
9630,-3.8730,1.4410,-0.7319,1617.43,1018.43,-1782.78
9640,-3.8733,1.3304,-0.6560,461.18,-1684.69,-1142.09
9650,-3.8735,1.2361,-0.6462,-1695.07,33.81,-1345.03
9660,-3.8735,1.2347,-0.7402,-1773.19,1283.63,-391.91
9670,-3.8732,1.3051,-0.8918,-1945.07,1252.38,-1454.59
9680,-3.8727,1.4001,-1.0397,-945.07,1846.25,-923.65
9690,-3.8721,1.4868,-1.1448,-773.19,-1075.44,1357.30
9700,-3.8716,1.5273,-1.1709,-1679.44,1471.62,1435.24
9710,-3.8713,1.5205,-1.1327,-491.94,-1872.07,-33.57
9720,-3.8711,1.5160,-1.1083,-1366.94,-981.45,-377.26
9730,-3.8707,1.5533,-1.1390,-1945.07,-1856.45,-877.20
9740,-3.8701,1.6295,-1.1974,-1163.82,-1793.88,60.24
9750,-3.8696,1.7299,-1.2505,586.18,-1262.45,-299.26
9760,-3.8689,1.8467,-1.2937,1429.93,-59.14,1341.25
9770,-3.8682,1.9747,-1.3291,383.06,-1590.15,1763.06
9780,-3.8673,2.1255,-1.3756,773.68,1878.85,950.50
9790,-3.8665,2.2998,-1.4602,70.56,-73.97,1059.75
9800,-3.8657,2.4338,-1.5531,-1616.94,1098.21,1153.38
9810,-3.8654,2.4281,-1.5754,-460.69,1207.82,700.07
9820,-3.8656,2.2555,-1.5159,-1195.07,-1651.55,1309.39
9830,-3.8663,1.9814,-1.4529,711.18,1973.14,-1643.62
9840,-3.8672,1.7009,-1.4464,1633.06,-1964.90,-1002.87
9850,-3.8678,1.4855,-1.5226,1726.81,-1137.33,-799.74
9860,-3.8679,1.3542,-1.6998,-1851.32,1112.24,-1221.74
9870,-3.8676,1.2705,-1.9374,1351.81,-1575.50,-1503.36
9880,-3.8669,1.1598,-2.1332,-1366.94,18.07,-503.78
9890,-3.8663,0.9709,-2.2120,461.18,-1044.62,-457.34
9900,-3.8660,0.7203,-2.1859,289.31,861.27,-910.58
9910,-3.8658,0.4644,-2.1329,211.18,204.53,-1191.77
9920,-3.8657,0.2388,-2.1139,-554.44,-1014.77,1152.04
9930,-3.8656,0.0569,-2.1188,-1429.44,1422.30,-1051.03
9940,-3.8652,-0.0779,-2.1134,-710.69,796.94,1995.85
9950,-3.8647,-0.1882,-2.0951,-1960.69,1499.82,683.35
9960,-3.8643,-0.3081,-2.0819,-85.69,-156.68,527.10
9970,-3.8638,-0.4296,-2.0795,570.56,1530.64,745.91
9980,-3.8634,-0.5134,-2.0591,1023.68,1842.90,-1660.34
9990,-3.8633,-0.5374,-1.9885,-1710.69,452.09,-285.28
10000,-3.8634,-0.5122,-1.8713,-773.19,1483.28,1105.47
10010,-3.8640,-0.4655,-1.7389,-1554.44,483.34,-1050.54
10020,-3.8647,-0.4150,-1.6282,429.93,1436.58,1887.21
10030,-3.8656,-0.3751,-1.5643,-1116.94,-391.48,-34.48
10040,-3.8662,-0.3655,-1.5392,-7.57,-219.54,840.64
10050,-3.8668,-0.4072,-1.5327,1226.81,-1000.73,1043.82
10060,-3.8673,-0.4957,-1.5531,-116.94,-172.73,121.95
10070,-3.8678,-0.5879,-1.6027,554.93,1217.77,1231.32
