timestamp_ms,ax,ay,az,gx,gy,gz
0,-3.8679,-0.9138,-0.1171,54.93,-1.83,812.07
10,-3.8689,-0.9091,-0.0543,-960.69,1029.42,-437.74
20,-3.8698,-0.9069,-0.0083,-351.32,1060.67,-1797.00
30,-3.8705,-0.8884,0.0052,-70.07,-1048.71,578.06
40,-3.8711,-0.8505,-0.0363,-1710.69,685.73,1656.25
50,-3.8715,-0.8022,-0.1123,-851.32,-626.71,218.63
60,-3.8718,-0.7526,-0.1562,1320.56,1639.04,1234.13
70,-3.8722,-0.6913,-0.1321,-320.07,14.10,-1250.31
80,-3.8726,-0.5920,-0.0596,-476.32,-892.03,-578.43
90,-3.8728,-0.4432,0.0221,226.81,389.47,921.75
100,-3.8730,-0.2622,0.0813,-726.32,-1157.17,1015.62
110,-3.8733,-0.0872,0.1083,-1554.44,-1578.67,-1546.75
120,-3.8735,0.0439,0.1169,851.81,1874.82,-1156.07
130,-3.8738,0.1147,0.1292,1633.06,-1031.19,312.68
140,-3.8743,0.1373,0.1523,-1304.44,531.43,-1218.51
150,-3.8748,0.1450,0.1815,1586.18,-499.76,-796.63
160,-3.8440,0.1604,0.2111,-1429.44,-765.38,-437.19
170,-3.8444,0.1631,0.2168,539.31,-984.07,-796.51
180,-3.8445,0.1266,0.1533,883.06,-249.69,1312.87
190,-3.8445,0.0638,-0.0155,211.18,-374.76,1547.12
200,-3.8445,-0.0200,-0.2627,179.93,-1984.25,-1015.69
210,-3.8445,-0.1486,-0.4835,1445.56,-1609.44,1827.58
220,-3.8446,-0.3063,-0.6017,992.43,-1875.31,-797.85
230,-3.8446,-0.4198,-0.6421,804.93,-1000.61,764.40
240,-3.8447,-0.4413,-0.6650,-1726.32,1827.27,-1735.66
250,-3.8448,-0.4152,-0.6908,-476.32,-1110.29,-579.47
260,-3.8450,-0.4202,-0.6968,-1132.57,-407.10,-1.40
270,-3.8451,-0.4727,-0.6521,-1773.19,-1172.73,-110.78
280,-3.8452,-0.5341,-0.5555,-491.94,545.90,-548.16
290,-3.8452,-0.5730,-0.4409,-351.32,905.15,45.78
300,-3.8452,-0.5811,-0.3394,-1335.69,-423.03,45.96
310,-3.8452,-0.5624,-0.2595,1633.06,576.97,-344.42
320,-3.8450,-0.5372,-0.1975,23.68,-1204.22,390.08
330,-3.8448,-0.5239,-0.1448,-757.57,-1266.72,1765.20
340,-3.8446,-0.5242,-0.0927,945.56,1483.34,468.44
350,-3.8444,-0.5396,-0.0754,914.31,155.21,999.82
360,-3.8440,-0.5686,-0.1306,-1054.44,-1641.72,874.82
370,-3.8748,-0.5962,-0.2119,-773.19,-704.28,-1812.81
380,-3.8741,-0.6229,-0.2311,-304.44,889.40,-594.18
390,-3.8734,-0.6353,-0.1588,273.68,-1563.72,843.26
400,-3.8729,-0.6030,-0.0580,-1304.44,-313.78,-375.37
410,-3.8726,-0.5199,0.0034,-1179.44,592.53,-250.12
420,-3.8723,-0.3922,-0.0063,1461.18,452.09,-1906.25
430,-3.8721,-0.2562,-0.0765,1804.93,-797.67,1624.94
440,-3.8716,-0.1765,-0.1313,-788.82,-1781.80,796.69
450,-3.8708,-0.1813,-0.1578,1414.31,-797.24,-578.43
460,-3.8698,-0.2126,-0.2189,804.93,-187.87,1765.26
470,-3.8688,-0.1995,-0.2888,789.31,-0.43,1374.51
480,-3.8680,-0.1600,-0.2982,-1523.19,-953.55,93.14
490,-3.8676,-0.1440,-0.2478,-476.32,1843.38,1874.39
500,-3.8669,-0.1581,-0.1985,1570.56,296.57,-1297.36
510,-3.8661,-0.1794,-0.2407,-226.32,-1390.99,-1734.80
520,-3.8651,-0.1989,-0.4187,1039.31,1202.76,-1281.74
530,-3.8640,-0.2289,-0.6528,-1445.07,-1578.55,14.77
540,-3.8632,-0.2853,-0.8165,-1288.82,452.64,1889.34
550,-3.8625,-0.3707,-0.8412,-507.57,-500.61,-298.52
560,-3.8622,-0.4518,-0.7234,554.93,343.02,-579.77
570,-3.8621,-0.4990,-0.5161,-1820.07,-579.04,1701.66
580,-3.8623,-0.5173,-0.3079,133.06,1952.15,-469.79
590,-3.8627,-0.5267,-0.1708,1789.31,608.34,-141.24
600,-3.8630,-0.5226,-0.1187,586.18,-1844.79,-328.49
610,-3.8634,-0.4849,-0.0984,1117.43,827.09,-250.24
620,-3.8638,-0.4335,-0.0289,1945.56,-579.10,562.26
630,-3.8644,-0.4027,0.1241,523.68,311.65,578.06
640,-3.8651,-0.4070,0.3226,461.18,-94.54,375.18
650,-3.8660,-0.4308,0.5206,-85.69,1311.65,297.49
660,-3.8669,-0.4432,0.6890,867.43,-1344.60,-1702.15
670,-3.8678,-0.4366,0.7798,-726.32,202.21,1126.34
680,-3.8687,-0.4182,0.7615,117.43,-172.73,642.09
690,-3.8696,-0.4161,0.6478,-1523.19,1483.52,1985.84
700,-3.8706,-0.4882,0.4822,-1257.57,-1063.35,1829.35
710,-3.8715,-0.6694,0.3188,1523.68,1733.40,-108.46
720,-3.8717,-0.8888,0.1841,-1679.44,826.78,172.49
730,-3.8718,-1.0001,0.0591,-1757.57,-423.65,-530.94
740,-3.8718,-0.9220,-0.0804,-7.57,-423.89,1078.19
750,-3.8722,-0.7140,-0.2357,1992.43,1716.92,1968.57
760,-3.8729,-0.4572,-0.3562,617.43,1842.35,-1234.86
770,-3.8739,-0.1522,-0.3790,1492.43,-1579.04,1311.77
780,-3.8749,0.1201,-0.3584,523.68,-500.31,-1922.67
790,-3.8444,0.1809,-0.4026,-616.94,-1874.82,-781.98
800,-3.8450,-0.0341,-0.5280,-835.69,469.06,-1688.29
810,-3.8457,-0.4093,-0.7032,-351.32,437.38,-1922.91
820,-3.8464,-0.7178,-0.9069,-382.57,1999.15,639.22
830,-3.8470,-0.7882,-1.0991,133.06,-63.90,1232.54
840,-3.8473,-0.6711,-1.2079,-882.57,-673.46,1857.18
850,-3.8472,-0.5636,-1.1740,-1898.19,1404.91,1153.87
860,-3.8470,-0.5732,-1.0101,-132.57,1748.84,-892.94
870,-3.8469,-0.6625,-0.8057,-1366.94,-1282.41,794.86
880,-3.8470,-0.7788,-0.6473,-788.82,889.28,-923.46
890,-3.8469,-0.8843,-0.5631,320.56,1154.72,670.59
900,-3.8467,-0.9128,-0.5298,-1179.44,-64.27,1373.84
910,-3.8463,-0.8229,-0.5160,-835.69,201.29,-1891.66
920,-3.8459,-0.6525,-0.5167,-1320.07,1967.10,-1860.41
930,-3.8457,-0.4742,-0.5278,492.43,1873.72,-672.91
940,-3.8455,-0.3518,-0.5205,-695.07,452.15,-1516.66
950,-3.8452,-0.3197,-0.4771,-1023.19,1389.89,-1501.04
960,-3.8448,-0.3727,-0.4275,-913.82,-1047.55,-1454.10
970,-3.8442,-0.4620,-0.4205,304.93,1296.14,1108.52
980,-3.8748,-0.5250,-0.4564,867.43,-1813.42,-1844.60
990,-3.8739,-0.5161,-0.4861,804.93,1592.71,-79.04
1000,-3.8729,-0.4103,-0.4570,1945.56,1795.84,1920.90
1010,-3.8722,-0.2369,-0.3289,-507.57,1514.77,-641.54
1020,-3.8713,-0.0623,-0.0968,1679.93,1921.39,374.33
1030,-3.8704,0.0850,0.1841,39.31,-375.12,-1703.37
1040,-3.8688,0.2423,0.3741,-1116.94,-437.38,687.81
1050,-3.8669,0.4314,0.3899,-976.32,-108.95,-780.58
1060,-3.8650,0.6179,0.3423,-773.19,1907.04,1719.48
1070,-3.8633,0.7050,0.3711,-898.19,-186.34,1547.49
1080,-3.8619,0.5795,0.5408,-1757.57,-498.66,1078.80
1090,-3.8612,0.2456,0.8605,-1820.07,1219.85,-577.09
1100,-3.8610,-0.1959,1.2714,-554.44,-1858.95,-888.98
1110,-3.8612,-0.6495,1.6815,-1070.07,-1250.43,-1419.43
1120,-3.8617,-1.0342,2.0034,867.43,-751.28,-793.64
1130,-3.8619,-1.2347,2.1100,-366.94,451.05,488.28
1140,-3.8621,-1.1427,1.8685,1961.18,-1908.69,-1699.04
1150,-3.8621,-0.7515,1.3083,1742.43,-814.76,-1683.90
1160,-3.8622,-0.2513,0.5994,-179.44,-517.15,1721.25
1170,-3.8625,0.0585,-0.0248,-163.82,733.83,-1201.97
1180,-3.8633,0.0305,-0.3375,-507.57,828.19,1046.81
1190,-3.8647,-0.2352,-0.2980,-85.69,796.88,-422.55
1200,-3.8665,-0.5457,-0.0779,1898.68,1874.51,-688.11
1210,-3.8682,-0.7803,0.1373,-1835.69,-1954.22,1859.19
1220,-3.8698,-0.9117,0.2360,133.06,1592.22,1578.37
1230,-3.8711,-0.9545,0.2094,-695.07,-1783.08,1922.30
1240,-3.8722,-0.8878,0.1617,1836.18,-1189.39,-1124.63
1250,-3.8730,-0.7006,0.1282,-1632.57,716.98,-1749.69
1260,-3.8738,-0.4469,0.0579,-1663.82,420.47,1265.87
1270,-3.8744,-0.1976,-0.0542,-1195.07,-579.04,656.31
1280,-3.8749,0.0043,-0.1664,-1288.82,1077.70,-1797.00
1290,-3.8439,0.1470,-0.2731,554.93,-1296.88,-1156.62
1300,-3.8750,0.2317,-0.3981,-1179.44,1047.12,577.58
1310,-3.8749,0.2651,-0.5159,1664.31,1047.30,-1625.79
1320,-3.8748,0.2638,-0.5883,1945.56,1969.24,1155.21
1330,-3.8748,0.2167,-0.6115,1773.68,703.61,1201.97
1340,-3.8748,0.0769,-0.6252,-257.57,1734.74,1217.53
1350,-3.8749,-0.1199,-0.6636,1851.81,-31.13,-845.03
1360,-3.8750,-0.2880,-0.7133,664.31,-922.12,1998.66
1370,-3.8439,-0.3947,-0.7703,-851.32,718.14,1357.97
1380,-3.8440,-0.4614,-0.8292,1492.43,1421.08,-626.53
1390,-3.8439,-0.5217,-0.8618,945.56,1874.08,529.60
1400,-3.8439,-0.5580,-0.8579,1226.81,1702.09,-689.21
1410,-3.8439,-0.5310,-0.8214,586.18,-1797.97,-314.21
1420,-3.8440,-0.4487,-0.7460,39.31,-1126.04,-267.27
1430,-3.8441,-0.3536,-0.6404,-1429.44,530.33,1654.79
1440,-3.8442,-0.2823,-0.5382,-1257.57,-1953.86,639.34
1450,-3.8444,-0.2562,-0.4680,-132.57,-875.61,-1860.47
1460,-3.8444,-0.2736,-0.4320,-788.82,108.83,-1219.67
1470,-3.8442,-0.3145,-0.4265,992.43,718.20,-0.85
1480,-3.8439,-0.3641,-0.4520,-241.94,1421.20,-1594.60
1490,-3.8746,-0.4044,-0.4973,1398.68,-1844.48,-1860.29
1500,-3.8740,-0.3898,-0.5179,242.43,358.58,842.77
1510,-3.8737,-0.2959,-0.4570,-1882.57,1717.96,-157.29
1520,-3.8734,-0.1805,-0.3065,-1866.94,1515.01,-1938.42
1530,-3.8734,-0.1318,-0.0898,898.68,780.88,-1500.61
1540,-3.8733,-0.1678,0.1350,-866.94,515.32,-187.68
1550,-3.8727,-0.2318,0.2773,-1476.32,1296.51,1328.37
1560,-3.8718,-0.2444,0.3087,-1663.82,-484.86,-655.76
1570,-3.8707,-0.1858,0.2795,726.81,-469.24,-1421.33
1580,-3.8699,-0.1012,0.2524,226.81,-203.49,-858.89
1590,-3.8693,-0.0332,0.3037,-945.07,327.88,656.74
1600,-3.8688,0.0100,0.4766,-241.94,-1109.50,359.92
1610,-3.8682,0.0469,0.6870,1289.31,1000.00,-1077.21
1620,-3.8673,0.1106,0.8154,-1991.94,-62.44,376.28
1630,-3.8667,0.2101,0.8555,-1835.69,375.18,-873.41
1640,-3.8661,0.2872,0.8805,-1101.32,1500.37,1376.65
1650,-3.8657,0.2448,0.9373,773.68,703.67,673.58
1660,-3.8656,0.0500,1.0508,-663.82,-30.82,267.40
1670,-3.8657,-0.2242,1.2406,-1585.69,-1499.94,-1388.61
1680,-3.8658,-0.5173,1.4832,-695.07,-1187.99,1439.88
1690,-3.8661,-0.8146,1.6986,1789.31,1858.34,955.99
1700,-3.8663,-1.0607,1.7958,-257.57,1435.85,800.17
1710,-3.8665,-1.1747,1.6884,242.43,1872.92,-1762.15
1720,-3.8663,-1.1329,1.3445,1648.68,122.68,1206.42
1730,-3.8661,-0.9713,0.8369,-1007.57,107.12,1268.25
1740,-3.8657,-0.7866,0.2733,-320.07,-861.33,-685.91
1750,-3.8654,-0.6902,-0.1696,-679.44,-1001.59,-921.39
1760,-3.8654,-0.7102,-0.3217,-335.69,-1688.90,640.26
1770,-3.8660,-0.8224,-0.1875,1101.81,-1157.65,1858.70
1780,-3.8669,-0.9780,0.1080,-1257.57,13.98,-1531.62
1790,-3.8682,-1.1023,0.4028,-1179.44,1841.80,-718.57
1800,-3.8693,-1.1515,0.5400,-1085.69,-424.07,1031.98
1810,-3.8701,-1.1150,0.4537,617.43,1138.37,547.91
1820,-3.8707,-0.9945,0.2229,1289.31,-1908.45,-30.40
1830,-3.8710,-0.8123,-0.0016,711.18,544.92,1578.55
1840,-3.8713,-0.6002,-0.1191,39.31,-189.09,671.81
1850,-3.8719,-0.3917,-0.1157,-820.07,764.40,718.51
1860,-3.8728,-0.2118,-0.0350,1867.43,1202.33,-422.12
1870,-3.8735,-0.0573,0.0649,898.68,-469.18,1359.25
1880,-3.8743,0.0767,0.1523,679.93,328.00,656.37
1890,-3.8749,0.1716,0.2173,1820.56,-499.88,406.49
1900,-3.8441,0.2043,0.2279,1976.81,-187.19,-812.13
1910,-3.8442,0.1718,0.1454,-1835.69,1172.24,906.68
1920,-3.8442,0.0973,-0.0223,1992.43,-1390.32,1828.37
1930,-3.8440,-0.0022,-0.2203,461.18,1140.81,-203.19
1940,-3.8748,-0.1514,-0.3823,-273.19,-187.56,-906.74
1950,-3.8744,-0.3516,-0.4821,633.06,-922.18,-719.54
1960,-3.8741,-0.5580,-0.5500,-991.94,-1688.23,999.02
1970,-3.8741,-0.7393,-0.6230,586.18,1608.28,1905.15
1980,-3.8743,-0.8793,-0.6984,1383.06,264.16,-1219.97
1990,-3.8745,-0.9874,-0.7581,-538.82,-1376.77,-126.40
2000,-3.8748,-1.0734,-0.7986,1617.43,-1017.58,-454.65
2010,-3.8750,-1.1122,-0.8171,-1382.57,1794.74,-220.34
2020,-3.8439,-1.0802,-0.8037,1648.68,-580.32,170.23
2030,-3.8442,-0.9926,-0.7638,1742.43,1138.49,-1126.59
2040,-3.8445,-0.8988,-0.7350,961.18,-1751.95,826.60
2050,-3.8447,-0.8459,-0.7438,961.18,1935.73,-1673.34
2060,-3.8447,-0.8306,-0.7703,-273.19,810.79,889.16
2070,-3.8447,-0.8082,-0.7842,1695.56,1420.23,1639.10
2080,-3.8447,-0.7566,-0.7769,554.93,-360.96,1607.79
2090,-3.8447,-0.6860,-0.7491,-835.69,576.60,967.22
2100,-3.8447,-0.6183,-0.7043,195.56,123.66,1061.04
2110,-3.8447,-0.5861,-0.6525,867.43,1858.15,-1860.78
2120,-3.8446,-0.5922,-0.6316,992.43,498.84,-1235.66
2130,-3.8442,-0.5875,-0.6458,211.18,-829.28,-1438.78
2140,-3.8750,-0.5555,-0.6564,804.93,1358.22,-298.16
2150,-3.8744,-0.5288,-0.6765,898.68,-1.10,-735.72
2160,-3.8737,-0.5084,-0.6937,320.56,1420.84,-1688.84
2170,-3.8728,-0.4761,-0.6134,-1070.07,-782.29,357.97
2180,-3.8721,-0.4417,-0.4200,-929.44,1499.02,-516.85
2190,-3.8712,-0.4203,-0.2148,-523.19,-1750.92,-672.73
2200,-3.8702,-0.4224,-0.0917,-1788.82,514.77,1640.20
2210,-3.8693,-0.4762,-0.0897,1945.56,280.40,-547.06
2220,-3.8682,-0.6255,-0.2029,-945.07,530.27,-718.93
2230,-3.8669,-0.8685,-0.3433,-54.44,-1954.41,1780.82
2240,-3.8657,-1.1184,-0.3829,836.18,76.42,-797.55
2250,-3.8646,-1.2853,-0.2889,851.81,-1002.20,1577.33
2260,-3.8641,-1.3705,-0.1572,-507.57,-971.31,1765.01
2270,-3.8641,-1.4485,-0.0934,586.18,-112.06,1515.26
2280,-3.8644,-1.5751,-0.0878,-1398.19,59.63,421.69
2290,-3.8649,-1.7321,-0.1096,-1601.32,778.14,-453.31
2300,-3.8652,-1.8623,-0.2032,-1695.07,1980.96,-1562.74
2310,-3.8656,-1.9158,-0.4022,1633.06,1996.34,1343.32
2320,-3.8661,-1.8982,-0.6606,-1210.69,527.47,1467.96
2330,-3.8666,-1.8351,-0.8865,1039.31,-550.60,279.91
2340,-3.8671,-1.7239,-1.0004,1117.43,-1456.73,576.35
2350,-3.8677,-1.5687,-0.9708,-648.19,-34.67,-220.76
2360,-3.8682,-1.3660,-0.8234,-788.82,-253.11,91.80
2370,-3.8689,-1.1106,-0.6357,1164.31,-1377.69,-157.90
2380,-3.8694,-0.8265,-0.4818,1851.81,-1361.57,1701.84
2390,-3.8699,-0.5641,-0.3660,-1788.82,-1657.90,-1735.35
2400,-3.8702,-0.3738,-0.2606,-195.07,1170.72,296.14
2410,-3.8707,-0.2676,-0.1694,164.31,-1344.48,-1969.30
2420,-3.8712,-0.2146,-0.1000,1758.06,-1672.42,-562.87
2430,-3.8716,-0.1752,-0.0317,539.31,-781.68,-1515.87
2440,-3.8719,-0.1332,0.0452,1586.18,-47.24,-203.25
2450,-3.8722,-0.0874,0.1095,-1038.82,1796.57,-1156.19
2460,-3.8724,-0.0370,0.1434,820.56,-1968.93,-468.57
2470,-3.8726,0.0166,0.1560,-726.32,-1625.12,593.99
2480,-3.8728,0.0679,0.1534,-1866.94,-31.25,609.62
2490,-3.8730,0.1108,0.1213,695.56,-359.25,0.24
2500,-3.8733,0.1271,0.0477,-1804.44,-468.57,609.56
2510,-3.8734,0.0873,-0.0601,273.68,-1890.38,656.31
2520,-3.8734,-0.0103,-0.1786,-820.07,312.62,499.88
2530,-3.8734,-0.1450,-0.2994,-1304.44,1156.19,-969.12
2540,-3.8733,-0.3124,-0.4336,1445.56,1687.19,-672.49
2550,-3.8730,-0.5157,-0.5916,23.68,515.01,1514.77
2560,-3.8728,-0.7208,-0.7339,1992.43,295.84,1248.84
2570,-3.8727,-0.8761,-0.7797,-257.57,-1923.34,1467.29
2580,-3.8728,-0.9595,-0.6965,-132.57,216.98,545.35
2590,-3.8733,-0.9751,-0.5321,1195.56,-1142.52,1748.60
2600,-3.8739,-0.9388,-0.3733,-804.44,-95.70,1498.90
2610,-3.8745,-0.8638,-0.2788,-163.82,232.48,1374.27
2620,-3.8750,-0.7574,-0.2531,1445.56,326.42,1265.08
2630,-3.8441,-0.6274,-0.2733,-945.07,-376.53,-1281.80
2640,-3.8442,-0.4868,-0.3011,-304.44,1029.97,968.20
2650,-3.8444,-0.3538,-0.2953,1695.56,1467.77,1515.01
2660,-3.8445,-0.2458,-0.2550,-1273.19,-1781.98,1952.51
2670,-3.8446,-0.1727,-0.2095,539.31,-625.49,-844.30
2680,-3.8446,-0.1244,-0.1589,1898.68,1202.76,-1328.55
2690,-3.8446,-0.0839,-0.0881,86.18,-328.37,-187.87
2700,-3.8445,-0.0457,-0.0095,1273.68,734.19,1062.32
2710,-3.8445,-0.0138,0.0535,-1835.69,-1203.25,-1218.81
2720,-3.8444,0.0105,0.0819,-1757.57,-1140.69,-703.06
2730,-3.8440,0.0271,0.0497,1351.81,-1515.62,687.62
2740,-3.8748,0.0236,-0.0682,-523.19,-1640.62,1078.19
2750,-3.8740,-0.0247,-0.2465,-976.32,-734.38,156.07
2760,-3.8733,-0.1099,-0.4327,851.81,468.69,1124.51
2770,-3.8726,-0.1875,-0.5950,1945.56,624.76,1608.52
2780,-3.8718,-0.2386,-0.6914,8.06,-140.99,-1735.60
2790,-3.8711,-0.2921,-0.7056,1461.18,-484.86,1998.60
2800,-3.8705,-0.3916,-0.7031,-1382.57,1702.51,-1110.78
2810,-3.8699,-0.5350,-0.7526,1883.06,-1985.17,842.35
2820,-3.8694,-0.6818,-0.8610,-476.32,-313.60,1998.47
2830,-3.8689,-0.7794,-1.0084,742.43,1811.16,-48.58
2840,-3.8683,-0.8021,-1.1400,242.43,-1064.03,-1455.14
2850,-3.8677,-0.7871,-1.1497,1336.18,-1907.84,653.99
2860,-3.8672,-0.7412,-1.0028,-741.94,857.79,-1892.88
2870,-3.8666,-0.5770,-0.8549,1133.06,-345.21,-1611.39
2880,-3.8657,-0.3135,-0.8409,-1851.32,-1407.41,326.42
2890,-3.8649,-0.1246,-0.9324,-116.94,374.33,1513.98
2900,-3.8641,-0.1266,-1.0625,54.93,671.63,966.92
2910,-3.8639,-0.3091,-1.1610,-195.07,15.32,232.30
2920,-3.8643,-0.5698,-1.1719,445.56,-594.36,1653.93
2930,-3.8649,-0.8123,-1.1052,-929.44,-1985.53,794.56
2940,-3.8656,-1.0187,-1.0145,39.31,-1454.71,-752.20
2950,-3.8661,-1.1971,-0.9377,1617.43,-1845.76,-408.26
2960,-3.8662,-1.3512,-0.8865,-1226.32,-18.01,841.86
2970,-3.8662,-1.4727,-0.8589,-945.07,-1455.81,1716.98
2980,-3.8661,-1.5261,-0.8361,-491.94,-1924.80,513.92
2990,-3.8662,-1.4856,-0.8010,664.31,997.01,-282.90
3000,-3.8663,-1.3611,-0.7725,1851.81,1481.45,1857.79
3010,-3.8666,-1.1897,-0.7703,1789.31,1137.94,60.97
3020,-3.8671,-1.0204,-0.7601,-273.19,1419.49,-845.28
3030,-3.8676,-0.9069,-0.6935,1398.68,-1283.26,-1485.90
3040,-3.8682,-0.8798,-0.5667,-70.07,-751.83,1561.10
3050,-3.8689,-0.9196,-0.4254,-601.32,-517.40,-844.91
3060,-3.8695,-0.9568,-0.3212,-1695.07,1560.67,-485.23
3070,-3.8700,-0.9194,-0.2727,1539.31,-1095.64,-250.67
3080,-3.8704,-0.8235,-0.2705,-1679.44,1107.54,1202.58
3090,-3.8710,-0.7333,-0.2750,-1398.19,1388.98,-547.42
3100,-3.8717,-0.6611,-0.2452,-1851.32,811.04,-219.30
3110,-3.8726,-0.5748,-0.1876,-616.94,623.66,-547.36
3120,-3.8734,-0.4575,-0.1493,-1570.07,-1.16,-1844.18
3130,-3.8743,-0.3333,-0.1608,1445.56,905.33,-609.68
3140,-3.8749,-0.2311,-0.2107,1351.81,-563.17,1374.63
3150,-3.8441,-0.1620,-0.2716,-1570.07,1046.39,343.32
3160,-3.8446,-0.1503,-0.3203,-726.32,1249.63,-1000.55
3170,-3.8450,-0.2188,-0.3396,773.68,-984.68,1889.95
3180,-3.8455,-0.3318,-0.3203,8.06,546.45,-1922.55
3190,-3.8459,-0.4277,-0.2703,1539.31,-985.05,530.58
3200,-3.8466,-0.5131,-0.2258,1258.06,1421.02,-1844.30
3210,-3.8472,-0.6174,-0.2032,-1663.82,-891.66,-734.86
3220,-3.8477,-0.7207,-0.1954,976.81,1998.78,-969.18
3230,-3.8479,-0.8120,-0.2032,-241.94,-1001.46,249.57
3240,-3.8481,-0.9021,-0.2192,70.56,1998.41,-1406.68
3250,-3.8481,-0.9846,-0.2491,539.31,-48.65,-1484.86
3260,-3.8479,-1.0331,-0.3008,1976.81,123.05,1655.76
3270,-3.8475,-1.0189,-0.3363,-226.32,1513.55,1108.76
3280,-3.8473,-0.9304,-0.3046,1586.18,966.74,-1672.55
3290,-3.8472,-0.7872,-0.2061,914.31,1029.42,-1641.24
3300,-3.8472,-0.6305,-0.0917,-757.57,1639.04,-1609.80
3310,-3.8472,-0.4998,-0.0192,-695.07,279.97,1109.19
3320,-3.8472,-0.4183,-0.0122,39.31,1561.52,-1828.19
3330,-3.8469,-0.3750,-0.0637,-1538.82,-1547.73,1343.69
3340,-3.8466,-0.3372,-0.1511,8.06,-141.36,-1140.81
3350,-3.8461,-0.2849,-0.2522,851.81,671.20,-625.31
3360,-3.8455,-0.2128,-0.3621,-460.69,-266.24,936.95
3370,-3.8450,-0.1339,-0.4760,773.68,1671.45,-860.11
3380,-3.8444,-0.0803,-0.5574,-1132.57,-906.56,342.77
3390,-3.8439,-0.0631,-0.5784,1726.81,671.69,373.90
3400,-3.8746,-0.0706,-0.5919,-70.07,1984.19,983.22
3410,-3.8740,-0.0775,-0.6814,-1023.19,249.82,686.34
3420,-3.8701,0.2581,-1.5281,39.31,-640.20,1872.38
3430,-3.8691,0.1511,-1.6895,1039.31,406.74,356.38
3440,-3.8683,-0.0902,-1.8353,-648.19,-249.76,-659.61
3450,-3.8673,-0.3737,-1.9669,461.18,1093.57,855.77
3460,-3.8667,-0.6139,-2.0450,179.93,249.27,-1956.97
3470,-3.8663,-0.8005,-2.0660,1429.93,-1751.22,105.35
3480,-3.8663,-0.9137,-2.0558,1539.31,-439.09,1714.66
3490,-3.8663,-0.9220,-2.0188,-945.07,873.17,574.10
3500,-3.8663,-0.8485,-1.9469,1992.43,1607.54,1121.03
3510,-3.8662,-0.7334,-1.8644,-601.32,-1189.21,-1816.35
3520,-3.8658,-0.6208,-1.8306,-1866.94,1373.54,355.71
3530,-3.8656,-0.6122,-1.8733,539.31,1701.90,1855.77
3540,-3.8655,-0.7427,-1.9401,1648.68,233.15,590.09
3550,-3.8656,-0.9160,-1.9565,945.56,-313.96,1589.90
3560,-3.8657,-1.0577,-1.8979,-1241.94,1576.29,808.65
3570,-3.8660,-1.1605,-1.7970,617.43,1076.05,-816.22
3580,-3.8662,-1.2150,-1.7031,-538.82,1997.68,-659.79
3590,-3.8665,-1.2104,-1.6539,492.43,-1986.76,1809.14
3600,-3.8667,-1.1747,-1.6521,1070.56,310.12,559.27
3610,-3.8671,-1.1405,-1.6589,1648.68,544.56,-1315.73
3620,-3.8674,-1.1309,-1.6268,-1976.32,-330.38,543.58
3630,-3.8680,-1.1743,-1.5377,-741.94,-221.01,1184.27
3640,-3.8687,-1.2816,-1.4186,1695.56,-814.82,684.45
3650,-3.8693,-1.4254,-1.3029,-38.82,-1565.06,-1080.93
3660,-3.8696,-1.5853,-1.2242,1554.93,1247.19,138.06
3670,-3.8700,-1.7396,-1.2064,1086.18,-690.61,-502.44
3680,-3.8700,-1.8242,-1.2008,1336.18,1590.33,-268.01
3690,-3.8699,-1.8065,-1.1350,-1491.94,-1691.10,1231.99
3700,-3.8701,-1.7288,-0.9880,773.68,-1269.17,-1939.76
3710,-3.8706,-1.6162,-0.7819,-1273.19,1543.46,1279.30
3720,-3.8724,-0.5709,-0.3359,289.31,-1970.40,389.89
3730,-3.8730,-0.3889,-0.3102,-1070.07,1014.47,93.08
3740,-3.8738,-0.2931,-0.2601,-1773.19,311.71,-531.86
3750,-3.8743,-0.2552,-0.2184,-1507.57,-1281.86,1405.70
3760,-3.8748,-0.2507,-0.2262,-663.82,61.95,-94.18
3770,-3.8750,-0.2693,-0.2960,-85.69,-938.05,-281.74
3780,-3.8439,-0.3131,-0.4275,1539.31,-1875.55,-453.74
3790,-3.8439,-0.3654,-0.6018,-70.07,1296.20,-1797.73
3800,-3.8439,-0.3878,-0.7677,1242.43,-1016.36,-485.60
3810,-3.8750,-0.3713,-0.8839,-1632.57,1749.21,-1110.90
3820,-3.8749,-0.3439,-0.9370,476.81,-1125.73,-1767.40
3830,-3.8749,-0.3462,-0.9246,-7.57,77.39,-595.58
3840,-3.8749,-0.4098,-0.8628,-304.44,1671.14,920.04
3850,-3.8439,-0.5336,-0.8088,-445.07,1577.27,-1329.83
3860,-3.8441,-0.6621,-0.8112,-288.82,483.28,-189.09
3870,-3.8442,-0.7334,-0.8708,-741.94,186.16,-314.09
3880,-3.8442,-0.7604,-0.9672,-1866.94,545.41,-1486.08
3890,-3.8442,-0.7769,-1.0494,-1320.07,217.22,-298.77
3900,-3.8441,-0.7789,-1.0504,570.56,1685.97,-1392.70
3910,-3.8440,-0.7788,-0.9524,304.93,1560.97,1138.55
3920,-3.8440,-0.8162,-0.7974,320.56,-1892.15,-1955.02
3930,-3.8440,-0.9042,-0.6259,-460.69,1951.48,1498.41
3940,-3.8440,-1.0155,-0.4717,273.68,-95.52,889.34
3950,-3.8440,-1.0994,-0.3651,-1976.32,-361.39,-1360.35
3960,-3.8439,-1.1016,-0.2955,-710.69,1279.05,1999.27
3970,-3.8439,-1.0000,-0.2318,-991.94,-1814.70,-1094.36
3980,-3.8440,-0.8313,-0.1621,8.06,-1658.20,-703.61
3990,-3.8442,-0.6790,-0.0961,1601.81,-736.02,-125.37
4000,-3.8445,-0.6011,-0.0458,1101.81,-282.59,1874.76
4010,-3.8448,-0.5951,-0.0255,-929.44,-1844.97,-47.00
4020,-3.8450,-0.6216,-0.0449,-163.82,748.78,749.94
4030,-3.8451,-0.6469,-0.0769,445.56,-1735.60,187.38
4040,-3.8452,-0.6624,-0.0850,1211.18,-1829.41,-1953.31
4050,-3.8452,-0.6660,-0.0720,-773.19,1139.28,-812.68
4060,-3.8451,-0.6392,-0.0598,-1241.94,-1204.47,-93.93
4070,-3.8448,-0.5583,-0.0568,-1804.44,358.09,-593.87
4080,-3.8446,-0.4437,-0.0647,539.31,748.90,-1047.00
4090,-3.8444,-0.3376,-0.0830,-788.82,-266.54,796.69
4100,-3.8442,-0.2531,-0.0963,789.31,1389.95,-1328.31
4110,-3.8440,-0.1951,-0.1049,-382.57,-313.05,609.13
4120,-3.8439,-0.2014,-0.1398,-960.69,-1406.68,390.38
4130,-3.8750,-0.2778,-0.2051,-1773.19,-1875.43,187.19
4140,-3.8749,-0.3555,-0.2808,445.56,1765.08,1999.57
4150,-3.8746,-0.3730,-0.3905,-1491.94,77.39,515.08
4160,-3.8744,-0.3278,-0.5636,258.06,-1969.48,655.46
4170,-3.8740,-0.2620,-0.7041,-1945.07,-125.67,1795.72
4180,-3.8730,-0.1854,-0.7231,-1523.19,1890.08,1576.72
4190,-3.8715,-0.0900,-0.7465,273.68,-547.24,1795.41
4200,-3.8700,-0.0032,-0.9022,492.43,468.57,-173.34
4210,-3.8689,0.0474,-1.1696,-398.19,531.19,-1626.77
4220,-3.8683,0.0107,-1.4564,-1929.44,-1703.06,-1549.19
4230,-3.8680,-0.2043,-1.6395,1383.06,1578.12,-237.24
4240,-3.8677,-0.5549,-1.6564,1851.81,-1844.18,-1268.86
4250,-3.8668,-0.8408,-1.6278,976.81,-1.10,-1018.92
4260,-3.8656,-0.9559,-1.6793,383.06,-345.40,-503.23
4270,-3.8645,-0.9614,-1.7507,1648.68,1060.61,-1456.42
4280,-3.8639,-1.0006,-1.7233,945.56,-80.02,-1440.98
4290,-3.8638,-1.1849,-1.5020,-70.07,-564.51,1090.33
4300,-3.8640,-1.4497,-1.1060,336.18,-236.69,-1409.24
4310,-3.8639,-1.5951,-0.8037,-1554.44,-1549.74,-95.95
4320,-3.8628,-1.4810,-0.8494,-163.82,1137.45,764.04
4330,-3.8611,-1.0957,-1.1112,-1554.44,-706.05,513.92
4340,-3.8596,-0.5034,-1.3180,-241.94,1779.05,1466.55
4350,-3.8595,0.0909,-1.4138,-429.44,-688.54,-2.62
4360,-3.8595,0.4211,-1.3928,-351.32,-968.63,-2.81
4370,-3.8596,0.4646,-1.2272,1914.31,1719.54,-1049.62
4380,-3.8607,0.3860,-0.9690,-523.19,-1077.27,1606.93
4390,-3.8627,0.3035,-0.7037,1414.31,-30.52,935.55
4400,-3.8647,0.2208,-0.5322,-1148.19,1922.42,1311.10
4410,-3.8662,0.0907,-0.4933,273.68,-124.57,1780.15
4420,-3.8669,-0.1079,-0.5446,-382.57,859.50,-1016.60
4430,-3.8672,-0.3475,-0.6407,-1804.44,-1687.74,-672.97
4440,-3.8672,-0.5968,-0.7694,-476.32,1999.27,467.47
4450,-3.8673,-0.8564,-0.9302,-382.57,1530.03,1748.47
4460,-3.8674,-1.0995,-1.1007,-1616.94,951.42,-1033.08
4470,-3.8674,-1.2690,-1.2487,-726.32,-877.20,1029.05
4480,-3.8676,-1.3440,-1.3419,1570.56,185.00,-1783.69
4490,-3.8678,-1.3621,-1.3494,-23.19,247.31,1263.00
4500,-3.8684,-1.3661,-1.2654,1664.31,-705.81,1903.56
4510,-3.8693,-1.3674,-1.1285,1148.68,-1955.81,1622.50
4520,-3.8701,-1.3500,-0.9921,976.81,-440.19,450.87
4530,-3.8708,-1.2966,-0.8781,-788.82,1028.56,1669.92
4540,-3.8713,-1.2125,-0.7844,-1960.69,-377.56,-1673.65
4550,-3.8717,-1.1121,-0.7080,804.93,-393.01,-1251.59
4560,-3.8721,-1.0082,-0.6398,1664.31,1388.43,-970.15
4570,-3.8724,-0.9084,-0.5674,-1038.82,-1877.01,-1266.91
4580,-3.8728,-0.8081,-0.4929,-273.19,-611.21,-923.03
4590,-3.8730,-0.7012,-0.4260,570.56,920.29,467.77
4600,-3.8734,-0.5867,-0.3715,-1741.94,1482.97,-797.73
4610,-3.8737,-0.4591,-0.3220,914.31,467.59,-1500.73
4620,-3.8739,-0.3030,-0.2505,1242.43,-1204.04,139.95
4630,-3.8744,-0.1095,-0.1342,1226.81,-47.49,-1688.05
4640,-3.8749,0.1038,0.0170,1992.43,-1156.49,280.94
4650,-3.8444,0.3065,0.1694,1289.31,-1827.94,-1062.50
4660,-3.8450,0.4650,0.2941,-757.57,1688.05,500.31
4670,-3.8456,0.5391,0.3549,-476.32,1641.48,328.67
4680,-3.8461,0.5072,0.3119,1008.06,1422.91,-561.83
4690,-3.8461,0.3921,0.1870,929.93,-77.15,656.80
4700,-3.8459,0.2513,0.0649,-1804.44,-61.77,390.93
4710,-3.8458,0.1510,-0.0151,179.93,312.99,1656.37
4720,-3.8457,0.1326,-0.0800,-663.82,-1937.26,-1609.44
4730,-3.8456,0.1677,-0.1663,976.81,1765.87,-1765.81
4740,-3.8455,0.1809,-0.3066,1476.81,-1280.94,-531.62
4750,-3.8451,0.1316,-0.5044,-835.69,750.31,1327.51
4760,-3.8447,0.0221,-0.6935,851.81,-562.26,1420.84
4770,-3.8445,-0.1501,-0.7958,-1163.82,-765.62,1967.35
4780,-3.8444,-0.4210,-0.8121,789.31,-1844.06,-1204.71
4790,-3.8441,-0.7990,-0.7893,-1882.57,61.65,29.66
4800,-3.8440,-1.1870,-0.7544,1742.43,-1017.21,-1939.09
4810,-3.8439,-1.4417,-0.7162,70.56,-549.19,1139.10
4820,-3.8440,-1.4913,-0.6849,-523.19,340.88,-95.15
4830,-3.8440,-1.3594,-0.6726,1117.43,340.82,420.53
4840,-3.8441,-1.1372,-0.6831,-1991.94,1919.19,279.91
4850,-3.8442,-0.9299,-0.6957,-1554.44,575.87,92.41
4860,-3.8444,-0.7775,-0.6914,976.81,-1033.08,264.22
4870,-3.8446,-0.6722,-0.6675,492.43,-485.90,-63.90
4880,-3.8447,-0.6173,-0.6282,1961.18,-1423.22,-1657.59
4890,-3.8448,-0.6086,-0.6011,992.43,-391.85,1639.34
4900,-3.8448,-0.6046,-0.6027,-1898.19,-923.10,1686.28
4910,-3.8446,-0.5797,-0.6034,-1382.57,-1126.22,186.28
4920,-3.8444,-0.5638,-0.5569,1804.93,-1219.91,-1344.97
4930,-3.8440,-0.5852,-0.4487,-163.82,733.22,-610.47
4940,-3.8748,-0.6338,-0.3265,1101.81,-1423.03,-1000.92
4950,-3.8741,-0.6804,-0.2388,-1116.94,-1782.53,155.58
4960,-3.8737,-0.7009,-0.1776,914.31,1451.78,702.64
4970,-3.8732,-0.6638,-0.1118,-1710.69,1279.85,952.76
4980,-3.8727,-0.5359,-0.0074,-960.69,1701.78,-1890.87
4990,-3.8721,-0.3151,0.1510,-585.69,-938.60,-1343.81
5000,-3.8712,-0.0227,0.2853,-320.07,-656.92,-218.51
5010,-3.8700,0.3319,0.2980,1101.81,531.19,-1452.58
5020,-3.8688,0.7401,0.2008,-1507.57,-1858.76,-140.08
5030,-3.8677,1.1168,0.0848,-1257.57,1704.53,562.87
5040,-3.8672,1.3022,0.0551,-1038.82,-1138.49,-562.38
5050,-3.8668,1.2229,0.1990,-1304.44,-950.62,1359.44
5060,-3.8666,0.9556,0.4945,539.31,1471.13,-1562.13
5070,-3.8661,0.6425,0.7866,-1679.44,-701.29,422.79
5080,-3.8655,0.3757,0.9241,-1757.57,688.72,1282.78
5090,-3.8646,0.1348,0.8744,101.81,-1718.02,-670.10
5100,-3.8634,-0.1403,0.7161,1258.06,-77.88,1954.77
5110,-3.8622,-0.4675,0.5474,-1945.07,-328.43,-1654.91
5120,-3.8611,-0.8031,0.4390,164.31,-1922.79,1282.29
5130,-3.8605,-1.0774,0.4446,1211.18,201.54,-1983.52
5140,-3.8605,-1.2440,0.5836,-1898.19,919.74,1532.10
5150,-3.8611,-1.2882,0.7799,773.68,-1283.69,1376.10
5160,-3.8621,-1.2224,0.9117,-882.57,-158.81,220.21
5170,-3.8633,-1.0842,0.9159,-460.69,716.31,-529.48
5180,-3.8641,-0.9061,0.8130,1226.81,1247.86,1548.65
5190,-3.8647,-0.7102,0.6704,23.68,76.35,954.71
5200,-3.8652,-0.5348,0.5446,1101.81,1826.72,720.03
5210,-3.8658,-0.4275,0.4570,-445.07,1717.65,-420.84
5220,-3.8665,-0.4279,0.4081,1289.31,-1485.23,1375.85
5230,-3.8673,-0.5264,0.3845,1242.43,249.15,-1952.33
5240,-3.8682,-0.6451,0.3466,633.06,1233.34,1453.86
5250,-3.8690,-0.6963,0.2466,1429.93,373.72,-655.58
5260,-3.8696,-0.6323,0.0768,-1116.94,-423.28,1891.05
5270,-3.8701,-0.4652,-0.1281,-929.44,1842.47,375.12
5280,-3.8707,-0.2709,-0.3066,461.18,-375.92,-703.43
5290,-3.8713,-0.1244,-0.3951,1336.18,765.08,1530.64
5300,-3.8722,-0.0381,-0.3959,86.18,1437.26,-1547.67
5310,-3.8730,0.0092,-0.3652,-866.94,1343.63,1858.58
5320,-3.8739,0.0358,-0.3350,1179.93,1250.00,-1735.11
5330,-3.8746,0.0425,-0.3044,586.18,1125.06,1796.20
5340,-3.8440,0.0151,-0.2849,1445.56,1031.31,1499.39
5350,-3.8445,-0.0547,-0.3113,1945.56,-468.75,1155.64
5360,-3.8448,-0.1505,-0.4128,1008.06,171.75,-1625.61
5370,-3.8450,-0.2216,-0.5831,742.43,-828.43,1217.90
5380,-3.8451,-0.2467,-0.7784,-351.32,1374.51,-1126.16
5390,-3.8451,-0.2826,-0.9781,429.93,374.51,-1439.03
5400,-3.8450,-0.3892,-1.1858,-163.82,-1188.11,1248.05
5410,-3.8448,-0.5725,-1.3590,-1804.44,233.58,-1455.44
5420,-3.8447,-0.7659,-1.4214,-1273.19,-1938.66,-393.31
5430,-3.8446,-0.8807,-1.3513,1976.81,-1923.40,1278.44
5440,-3.8448,-0.8617,-1.1805,-726.32,-954.90,-612.06
5450,-3.8452,-0.7372,-0.9736,1711.18,904.54,560.18
5460,-3.8458,-0.5747,-0.7959,1648.68,-610.84,1810.55
5470,-3.8463,-0.4111,-0.6746,-1554.44,-1860.53,435.91
5480,-3.8467,-0.2854,-0.6168,-616.94,1671.02,279.91
5490,-3.8468,-0.2145,-0.6101,-523.19,1061.89,436.28
5500,-3.8467,-0.1931,-0.6375,554.93,1921.45,1733.15
5510,-3.8463,-0.2056,-0.6714,-710.69,-1578.55,1983.09
5520,-3.8458,-0.2224,-0.6735,1695.56,-1922.30,1920.53
5530,-3.8453,-0.2233,-0.6505,-460.69,1812.01,-1626.34
5540,-3.8448,-0.2095,-0.6464,-570.07,749.51,1951.84
5550,-3.8445,-0.1918,-0.6365,1195.56,1280.82,-32.53
5560,-3.8441,-0.1879,-0.5520,-538.82,-1453.55,326.84
5570,-3.8441,-0.2085,-0.4152,-38.82,1358.95,436.40
5580,-3.8444,-0.2356,-0.3070,1320.56,-1125.43,-922.73
5590,-3.8445,-0.2480,-0.2393,1851.81,718.26,405.64
5600,-3.8445,-0.2466,-0.1913,258.06,1390.14,624.51
5610,-3.8440,-0.2472,-0.2385,445.56,-469.24,-578.55
5620,-3.8740,-0.2777,-0.4714,367.43,1483.89,-1219.24
5630,-3.8723,-0.3262,-0.8807,461.18,-328.67,686.52
5640,-3.8704,-0.3679,-1.3906,-1741.94,-719.42,45.10
5650,-3.8684,-0.4760,-1.8103,914.31,-1985.11,684.75
5660,-3.8667,-0.6866,-1.9319,-913.82,295.90,-472.29
5670,-3.8651,-0.8909,-1.7451,117.43,733.03,74.34
5680,-3.8640,-0.9974,-1.4250,1976.81,638.85,449.71
5690,-3.8632,-1.0022,-1.1876,336.18,1607.42,-940.31
5700,-3.8622,-0.9375,-1.1143,-273.19,-2.01,872.62
5710,-3.8613,-0.8534,-1.1239,8.06,1388.79,1388.43
5720,-3.8606,-0.7959,-1.1106,-1226.32,154.54,-1549.07
5730,-3.8600,-0.8146,-1.0172,-1866.94,1857.79,1763.43
5740,-3.8596,-0.9318,-0.8600,-257.57,1810.85,-627.01
5750,-3.8595,-1.1158,-0.7957,742.43,1935.67,-1.71
5760,-3.8595,-1.3021,-0.9784,1179.93,-1830.32,-1.59
5770,-3.8595,-1.4237,-1.2975,1336.18,-1221.31,-1.95
5780,-3.8595,-1.4741,-1.5106,1773.68,1934.69,-221.31
5790,-3.8595,-1.4797,-1.5385,-679.44,-1346.68,-377.99
5800,-3.8596,-1.4290,-1.4906,-1398.19,-909.18,1309.45
5810,-3.8605,-1.3156,-1.4769,1101.81,1215.94,-627.93
5820,-3.8618,-1.1927,-1.4706,-382.57,-1033.87,43.95
5830,-3.8638,-1.1274,-1.3702,-663.82,-221.13,-331.05
5840,-3.8657,-1.1331,-1.1415,-304.44,622.74,1153.56
5850,-3.8678,-1.1522,-0.8342,-1023.19,1903.99,1825.87
5860,-3.8698,-1.1189,-0.5144,523.68,1232.12,-1048.52
5870,-3.8713,-1.0359,-0.2302,789.31,-1830.32,-579.16
5880,-3.8724,-0.9606,-0.0254,-585.69,-1455.20,-328.61
5890,-3.8730,-0.9197,0.0822,1054.93,763.73,-1609.44
5900,-3.8734,-0.8740,0.1177,-1710.69,-1470.58,1265.75
5910,-3.8738,-0.8009,0.1138,133.06,-923.58,609.56
5920,-3.8743,-0.7277,0.0985,1492.43,-1423.46,1093.93
5930,-3.8748,-0.6937,0.0609,-1132.57,623.54,-1624.82
5940,-3.8750,-0.6842,-0.0372,-788.82,-188.90,-1953.06
5950,-3.8439,-0.6119,-0.1498,429.93,-751.34,-656.37
5960,-3.8439,-0.4404,-0.2032,1679.93,842.53,671.57
5970,-3.8441,-0.2207,-0.1940,-366.94,1999.08,-1641.05
5980,-3.8444,-0.0059,-0.1560,-241.94,-812.99,468.32
5990,-3.8447,0.1736,-0.1235,-741.94,46.81,1030.94
6000,-3.8451,0.2887,-0.1139,-1773.19,187.81,1890.38
6010,-3.8453,0.3359,-0.1433,961.18,1422.42,421.63
6020,-3.8456,0.3383,-0.2220,-991.94,1656.86,796.57
6030,-3.8458,0.3173,-0.3407,-695.07,-421.26,-1234.86
6040,-3.8459,0.2754,-0.5157,617.43,391.24,-1828.80
6050,-3.8461,0.1981,-0.7754,-741.94,1984.86,-813.54
6060,-3.8461,0.0883,-1.0586,1367.43,750.37,-1814.03
6070,-3.8459,-0.0289,-1.2358,-695.07,500.12,482.30
6080,-3.8458,-0.1525,-1.2828,304.93,1828.06,1731.93
6090,-3.8457,-0.2836,-1.2690,492.43,-187.81,1950.56
6100,-3.8456,-0.4045,-1.2166,-288.82,1577.51,44.37
6110,-3.8456,-0.5089,-1.1278,226.81,296.08,1810.12
6120,-3.8456,-0.5867,-1.0306,-1132.57,-344.79,-1002.26
6130,-3.8456,-0.6298,-0.9534,914.31,92.59,-236.39
6140,-3.8455,-0.6433,-0.9005,-601.32,1983.09,1216.86
6150,-3.8453,-0.6306,-0.8657,1664.31,748.72,998.23
6160,-3.8452,-0.5948,-0.8506,-710.69,1201.84,-1157.96
6170,-3.8450,-0.5574,-0.8727,-132.57,-860.60,1732.67
6180,-3.8447,-0.5393,-0.9298,664.31,311.40,-1345.46
6190,-3.8444,-0.5421,-0.9916,-1023.19,998.90,326.29
6200,-3.8442,-0.5566,-1.0408,-1382.57,1092.65,-470.70
6210,-3.8441,-0.5659,-1.0563,758.06,-1204.22,-455.20
6220,-3.8440,-0.5645,-1.0198,-429.44,811.34,-1548.95
6230,-3.8439,-0.5566,-0.9360,-241.94,1483.22,1060.49
6240,-3.8439,-0.5308,-0.8313,758.06,202.03,-767.46
6250,-3.8750,-0.4730,-0.7334,70.56,1608.34,-1282.90
6260,-3.8748,-0.3938,-0.6455,-538.82,-1860.35,498.54
6270,-3.8746,-0.3112,-0.5803,1601.81,1389.83,-938.78
6280,-3.8744,-0.2240,-0.5699,179.93,1733.76,1311.34
6290,-3.8743,-0.1346,-0.6171,-663.82,-937.99,-48.03
6300,-3.8739,-0.0613,-0.6464,-1226.32,1030.94,1936.28
6310,-3.8733,-0.0165,-0.5543,164.31,1281.13,1686.22
6320,-3.8722,0.0114,-0.3907,1898.68,1062.44,233.28
6330,-3.8710,0.0548,-0.2826,1461.18,1984.38,-735.17
6340,-3.8696,0.1576,-0.2701,-976.32,-171.81,640.01
6350,-3.8685,0.3151,-0.3291,179.93,1422.18,702.58
6360,-3.8676,0.4371,-0.3910,336.18,1875.61,655.58
6370,-3.8665,0.4667,-0.4500,-38.82,1953.92,-188.29
6380,-3.8646,0.4382,-0.5387,-257.57,-1592.90,61.58
6390,-3.8627,0.3939,-0.6221,101.81,-952.27,1061.40
6400,-3.8610,0.3339,-0.6522,-1570.07,375.73,-548.10
6410,-3.8597,0.2262,-0.5725,-1257.57,516.24,-298.16
6420,-3.8595,0.0573,-0.3838,961.18,-1280.82,-1.16
6430,-3.8595,-0.1400,-0.2661,-663.82,-1124.94,-0.79
6440,-3.8595,-0.2642,-0.4062,-1913.82,1952.82,-0.55
6450,-3.8595,-0.2063,-0.8119,-1804.44,15.08,-938.29
6460,-3.8595,-0.0151,-1.3103,1601.81,93.32,-1048.46
6470,-3.8595,0.1216,-1.6453,-1929.44,296.81,-346.31
6480,-3.8595,0.1348,-1.7019,-429.44,1406.43,-3.23
6490,-3.8595,0.0916,-1.5442,1258.06,-1843.51,793.52
6500,-3.8604,0.0367,-1.3000,-273.19,-1656.13,-971.80
6510,-3.8621,-0.0272,-1.0968,711.18,1593.81,1888.06
6520,-3.8641,-0.1180,-0.9971,523.68,-375.06,-627.20
6530,-3.8657,-0.2316,-1.0060,898.68,390.38,-1126.95
6540,-3.8667,-0.3427,-1.0985,-1632.57,-750.49,-1752.01
6550,-3.8673,-0.4382,-1.2225,148.68,-594.42,1357.18
6560,-3.8679,-0.5165,-1.3270,-85.69,-469.67,466.31
6570,-3.8688,-0.5681,-1.3851,1898.68,-1844.79,216.13
6580,-3.8699,-0.5867,-1.4025,-710.69,-1282.41,1481.63
6590,-3.8710,-0.5913,-1.4149,914.31,498.84,1794.13
6600,-3.8719,-0.6151,-1.4376,320.56,-1094.91,1606.57
6610,-3.8728,-0.6689,-1.4362,1273.68,-1.22,-1752.87
6620,-3.8735,-0.7440,-1.3788,-1616.94,186.16,-1065.31
6630,-3.8741,-0.8165,-1.2638,773.68,-470.21,-112.12
6640,-3.8745,-0.8464,-1.1179,-507.57,-1751.65,997.50
6650,-3.8750,-0.8140,-0.9868,-335.69,920.17,-2.20
6660,-3.8441,-0.7478,-0.8851,-179.44,1701.48,1310.55
6670,-3.8447,-0.6759,-0.7849,289.31,-1282.71,-1658.02
6680,-3.8453,-0.5912,-0.6721,1492.43,-454.47,857.79
6690,-3.8459,-0.4856,-0.5759,336.18,1983.22,483.03
6700,-3.8466,-0.3645,-0.5277,1851.81,-1704.10,-1923.03
6710,-3.8470,-0.2408,-0.5166,1351.81,468.02,1123.96
6720,-3.8475,-0.1326,-0.5140,1179.93,1890.14,1764.59
6730,-3.8480,-0.0635,-0.5027,-960.69,-1781.56,-1063.54
6740,-3.8485,-0.0492,-0.4795,-116.94,-328.31,-454.16
6750,-3.8489,-0.0989,-0.4575,1711.18,-1359.50,-1782.23
6760,-3.8491,-0.2212,-0.4391,-648.19,1452.88,-1219.67
6770,-3.8491,-0.4032,-0.4200,-304.44,-187.99,858.46
6780,-3.8491,-0.6035,-0.4126,398.68,-1750.79,-1797.73
6790,-3.8490,-0.7662,-0.4233,-1241.94,-798.10,-1203.98
6800,-3.8488,-0.8551,-0.4385,1929.93,1826.60,-719.60
6810,-3.8484,-0.8750,-0.4349,-1445.07,-111.08,1780.33
6820,-3.8481,-0.8405,-0.4158,8.06,342.04,-0.85
6830,-3.8478,-0.7648,-0.4070,429.93,-1204.77,1764.77
6840,-3.8474,-0.6808,-0.4174,-1882.57,-79.65,77.27
6850,-3.8472,-0.6298,-0.4374,867.43,-1407.59,-985.23
6860,-3.8468,-0.6219,-0.4497,-601.32,29.97,-1641.48
6870,-3.8464,-0.6229,-0.4465,398.68,-1548.10,1983.46
6880,-3.8461,-0.5994,-0.4454,273.68,-1141.85,608.46
6890,-3.8458,-0.5468,-0.4714,-710.69,-1001.22,-1797.79
6900,-3.8456,-0.4750,-0.5487,-1976.32,-329.22,-79.10
6910,-3.8451,-0.3950,-0.6858,-788.82,1780.27,623.90
6920,-3.8446,-0.3418,-0.8463,1445.56,233.58,1967.41
6930,-3.8440,-0.3677,-0.9672,258.06,-313.17,1701.42
6940,-3.8745,-0.5043,-1.0327,945.56,218.02,-1595.64
6950,-3.8733,-0.7155,-1.1450,-538.82,-172.91,685.42
6960,-3.8716,-0.8987,-1.4180,429.93,1451.72,247.74
6970,-3.8696,-0.9813,-1.7880,976.81,-1486.15,-1268.43
6980,-3.8677,-0.9916,-2.0746,-1601.32,-845.70,-331.67
6990,-3.8662,-1.0171,-2.0990,1086.18,-1533.20,-722.84
7000,-3.8655,-1.0880,-1.7961,1820.56,-658.26,417.72
7010,-3.8654,-1.1250,-1.3853,742.43,-1892.76,-956.67
7020,-3.8649,-1.0350,-1.1814,8.06,-1299.07,1403.50
7030,-3.8639,-0.8458,-1.2562,-476.32,794.80,1794.56
7040,-3.8625,-0.6683,-1.4330,-257.57,-782.96,-205.63
7050,-3.8610,-0.5653,-1.4988,-1538.82,592.41,856.57
7060,-3.8597,-0.5277,-1.3979,-351.32,170.72,122.07
7070,-3.8595,-0.5300,-1.2614,461.18,1077.09,-2.75
7080,-3.8595,-0.5537,-1.2241,164.31,-1438.54,-2.50
7090,-3.8595,-0.5671,-1.2869,1133.06,-672.97,-2.44
7100,-3.8595,-0.5465,-1.3369,-585.69,-704.28,-705.69
7110,-3.8595,-0.5007,-1.2583,-1945.07,889.53,372.38
7120,-3.8601,-0.4468,-1.0614,-85.69,-1047.91,231.87
7130,-3.8617,-0.3839,-0.8468,-1179.44,155.33,-298.95
7140,-3.8635,-0.3212,-0.6893,-1132.57,-375.79,1795.17
7150,-3.8652,-0.2867,-0.5966,-1101.32,-219.42,1701.72
7160,-3.8666,-0.2924,-0.5369,-695.07,-344.36,-1626.22
7170,-3.8676,-0.3292,-0.4996,-1413.82,-703.74,530.15
7180,-3.8685,-0.3855,-0.4990,1867.43,61.83,-813.48
7190,-3.8693,-0.4556,-0.5485,-1335.69,139.83,483.40
7200,-3.8700,-0.5321,-0.6364,1695.56,1811.58,373.90
7210,-3.8707,-0.6149,-0.7306,-101.32,-1438.60,1779.97
7220,-3.8715,-0.7078,-0.8132,1304.93,-1501.22,-95.21
7230,-3.8719,-0.7838,-0.8727,1414.31,-79.53,107.73
7240,-3.8726,-0.8135,-0.9009,-320.07,310.91,-1595.46
7250,-3.8732,-0.8196,-0.8912,-116.94,701.48,-33.02
7260,-3.8737,-0.8452,-0.8352,-898.19,1935.85,466.98
7270,-3.8743,-0.8949,-0.7659,-179.44,1107.67,-501.65
7280,-3.8746,-0.9274,-0.7191,1461.18,1982.60,1545.35
7290,-3.8750,-0.8912,-0.6888,1304.93,-33.08,357.91
7300,-3.8442,-0.7748,-0.6744,1929.93,-158.02,-735.78
7310,-3.8446,-0.6161,-0.6692,836.18,1685.97,1920.53
7320,-3.8451,-0.4575,-0.6508,1148.68,-1641.85,-673.22
7330,-3.8456,-0.3273,-0.6156,1445.56,717.83,-1282.53
7340,-3.8461,-0.2314,-0.5767,-1882.57,1218.08,1326.90
7350,-3.8466,-0.1609,-0.5856,-1616.94,-1797.36,1467.59
7360,-3.8469,-0.1044,-0.7129,-585.69,1062.13,1248.84
7370,-3.8472,-0.0739,-0.9460,-1351.32,765.38,-485.78
7380,-3.8470,-0.1233,-1.1904,-1445.07,-1078.31,-876.89
7390,-3.8467,-0.2734,-1.3811,226.81,-359.62,-1299.26
7400,-3.8462,-0.4911,-1.5219,1008.06,-766.17,1731.63
7410,-3.8457,-0.7468,-1.6229,1148.68,1217.77,1247.01
7420,-3.8452,-1.0055,-1.6630,414.31,279.79,199.95
7430,-3.8450,-1.2039,-1.6102,-695.07,-845.76,-128.30
7440,-3.8447,-1.2913,-1.4589,1914.31,1903.87,1418.70
7450,-3.8447,-1.2531,-1.2528,-1273.19,1278.69,1294.01
7460,-3.8448,-1.1100,-1.0619,-382.57,-346.25,997.50
7470,-3.8451,-0.9105,-0.9325,1929.93,91.55,1794.80
7480,-3.8452,-0.6968,-0.8794,-538.82,654.42,76.29
7490,-3.8452,-0.4814,-0.8845,-1179.44,-548.28,1216.98
7500,-3.8450,-0.2734,-0.9097,-1616.94,-1204.10,1763.85
7510,-3.8446,-0.0997,-0.9349,1008.06,-422.42,-1111.21
7520,-3.8441,0.0262,-0.9524,-757.57,343.51,763.79
7530,-3.8439,0.1201,-0.9609,-632.57,-1906.25,-48.77
7540,-3.8749,0.1755,-0.9655,-616.94,1000.18,-283.14
7550,-3.8746,0.1659,-0.9630,-1523.19,422.18,1404.36
7560,-3.8745,0.1066,-0.9690,1242.43,734.68,-423.77
7570,-3.8741,0.0475,-1.0009,1648.68,-31.07,-1314.45
7580,-3.8734,0.0366,-1.0779,-1913.82,-109.31,1935.49
7590,-3.8723,0.1031,-1.2396,695.56,-1968.69,1935.36
7600,-3.8711,0.2249,-1.4869,1211.18,1328.31,450.68
7610,-3.8702,0.3243,-1.7292,789.31,1672.30,-393.55
7620,-3.8696,0.3136,-1.8208,1523.68,-1343.14,-206.54
7630,-3.8691,0.1980,-1.6643,148.68,-1061.89,-253.60
7640,-3.8683,0.1093,-1.3925,1351.81,-1030.88,-143.92
7650,-3.8668,0.1497,-1.2904,1992.43,1765.81,-127.75
7660,-3.8649,0.3088,-1.4739,-835.69,-1171.63,1809.94
7670,-3.8629,0.5068,-1.7419,-460.69,-655.70,1543.95
7680,-3.8617,0.6300,-1.7550,883.06,1032.23,-1284.67
7690,-3.8619,0.5889,-1.4136,648.68,-639.40,-1456.60
7700,-3.8636,0.3970,-0.8953,-616.94,-936.40,1387.82
7710,-3.8660,0.1593,-0.4237,-1179.44,1406.98,1732.60
7720,-3.8678,-0.0371,-0.1205,398.68,1765.93,-719.60
7730,-3.8683,-0.1672,-0.0316,-741.94,593.63,171.63
7740,-3.8677,-0.2430,-0.1821,-1398.19,-31.62,-1312.62
7750,-3.8663,-0.3053,-0.5160,898.68,702.64,-984.74
7760,-3.8651,-0.4171,-0.8916,929.93,1968.14,983.34
7770,-3.8647,-0.5974,-1.1262,-1382.57,1889.77,-1236.15
7780,-3.8651,-0.7758,-1.0833,-460.69,-141.85,1310.24
7790,-3.8662,-0.8665,-0.8202,711.18,1357.85,-814.64
7800,-3.8676,-0.8538,-0.5369,1101.81,-970.46,-314.15
7810,-3.8688,-0.7740,-0.3733,-1273.19,-704.83,-235.47
7820,-3.8695,-0.6572,-0.3339,929.93,232.85,374.27
7830,-3.8699,-0.5222,-0.3489,-116.94,1279.91,936.83
7840,-3.8698,-0.4023,-0.3877,1164.31,-641.66,749.27
7850,-3.8693,-0.3481,-0.4797,508.06,-1610.17,1061.71
7860,-3.8685,-0.3916,-0.6348,-554.44,-1391.36,1217.77
7870,-3.8678,-0.5322,-0.7916,1883.06,-1235.17,-1266.91
7880,-3.8671,-0.7396,-0.8984,-116.94,-1313.60,1326.54
7890,-3.8665,-0.9399,-0.9899,1336.18,1014.16,1123.23
7900,-3.8660,-1.0754,-1.1211,-304.44,1310.61,-1720.70
7910,-3.8656,-1.1448,-1.3062,-1648.19,513.49,-1205.32
7920,-3.8655,-1.1669,-1.5096,1476.81,825.87,-1361.94
7930,-3.8657,-1.1569,-1.6707,-1351.32,-1221.07,-1768.62
7940,-3.8663,-1.1119,-1.7406,-70.07,-1830.44,1590.45
7950,-3.8672,-1.0225,-1.7340,1679.93,1216.55,730.96
7960,-3.8682,-0.8934,-1.7014,1133.06,-1939.51,137.21
7970,-3.8693,-0.7507,-1.6617,1648.68,-1767.40,-1753.36
7980,-3.8702,-0.6270,-1.6083,-85.69,-689.03,918.58
7990,-3.8712,-0.5375,-1.5286,-241.94,-1845.03,1793.70
8000,-3.8721,-0.4727,-1.4402,-788.82,358.28,-1768.62
8010,-3.8728,-0.4232,-1.3628,-491.94,-329.10,1075.26
8020,-3.8737,-0.4060,-1.2737,1836.18,1577.27,-987.06
8030,-3.8745,-0.4458,-1.1666,39.31,983.58,-2.50
8040,-3.8440,-0.5400,-1.0707,-1054.44,-1313.42,-517.94
8050,-3.8446,-0.6350,-0.9725,-1116.94,-1032.35,-1377.14
8060,-3.8452,-0.6595,-0.8209,-1273.19,-470.03,1982.42
8070,-3.8459,-0.5889,-0.6101,-413.82,-1063.84,-1267.27
8080,-3.8467,-0.4528,-0.3987,633.06,1920.72,-1157.47
8090,-3.8473,-0.2848,-0.2440,-1945.07,983.46,-1735.17
8100,-3.8478,-0.1062,-0.1782,-445.07,780.64,-375.49
8110,-3.8480,0.0574,-0.2065,-1585.69,1202.88,-15.99
8120,-3.8480,0.1611,-0.3103,-648.19,1562.56,-328.55
8130,-3.8478,0.1621,-0.4742,633.06,281.56,1171.26
8140,-3.8475,0.0861,-0.6667,758.06,-702.82,1389.65
8150,-3.8473,-0.0101,-0.8295,-976.32,-1343.63,-1485.72
8160,-3.8470,-0.1177,-0.9242,-1288.82,1843.69,-1548.52
8170,-3.8469,-0.2520,-0.9653,945.56,1718.51,-79.96
8180,-3.8468,-0.4077,-0.9861,-241.94,452.58,-720.64
8190,-3.8467,-0.5642,-1.0055,-179.44,1796.02,-1111.33
8200,-3.8464,-0.7000,-1.0472,-210.69,-688.66,810.49
8210,-3.8462,-0.8030,-1.1436,-1585.69,1967.35,-1642.70
8220,-3.8457,-0.8644,-1.2704,1226.81,1639.04,-1471.01
8230,-3.8451,-0.8668,-1.3480,1367.43,1404.54,-1065.00
8240,-3.8446,-0.7944,-1.3365,1054.93,-532.96,-315.19
8250,-3.8442,-0.6669,-1.2714,-1679.44,935.91,1341.13
8260,-3.8441,-0.5535,-1.2151,-1351.32,1279.91,-143.13
8270,-3.8750,-0.5040,-1.2032,1164.31,483.28,60.12
8280,-3.8748,-0.5139,-1.2362,-507.57,1998.96,-877.38
8290,-3.8743,-0.5675,-1.3035,-1773.19,1780.21,-330.57
8300,-3.8734,-0.6411,-1.3872,-632.57,1170.72,-1596.31
8310,-3.8723,-0.7064,-1.4540,1945.56,-1548.16,1809.75
8320,-3.8712,-0.7599,-1.4944,1586.18,1904.85,-987.24
8330,-3.8701,-0.8224,-1.5048,-1257.57,732.85,-690.43
8340,-3.8690,-0.9209,-1.4614,-1257.57,-595.40,-768.62
8350,-3.8680,-1.0753,-1.3318,-1866.94,951.29,-1315.37
8360,-3.8672,-1.2456,-1.0859,-1632.57,1544.74,700.50
8370,-3.8665,-1.3213,-0.7791,570.56,1013.18,-1830.26
8380,-3.8657,-1.2499,-0.5067,-1116.94,294.25,373.47
8390,-3.8654,-1.1217,-0.3372,23.68,-846.19,545.84
8400,-3.8652,-1.0645,-0.3394,429.93,857.18,468.08
8410,-3.8652,-1.0891,-0.4785,-241.94,575.99,-188.17
8420,-3.8650,-1.1255,-0.6160,601.81,-1236.51,1545.90
8430,-3.8649,-1.1556,-0.6655,-54.44,1169.62,670.65
8440,-3.8651,-1.2233,-0.6399,86.18,-1174.13,-938.84
8450,-3.8655,-1.3713,-0.5997,-570.07,-1893.07,951.84
8460,-3.8661,-1.5989,-0.6122,476.81,-752.69,-907.47
8470,-3.8667,-1.8429,-0.6941,-648.19,1653.08,-1969.97
8480,-3.8674,-2.0435,-0.8198,117.43,-831.73,639.22
8490,-3.8683,-2.1875,-0.9828,-1554.44,-925.90,-1345.40
8500,-3.8690,-2.2891,-1.1764,8.06,-1785.52,-33.20
8510,-3.8695,-2.3582,-1.3694,-991.94,1432.98,513.31
8520,-3.8701,-2.3793,-1.4606,-1835.69,729.74,-893.31
8530,-3.8707,-2.3606,-1.3312,-538.82,1057.80,-1096.62
8540,-3.8716,-2.3284,-1.0099,1851.81,1620.36,13.00
8550,-3.8729,-2.2925,-0.6387,1976.81,-1254.58,-1330.14
8560,-3.8741,-2.2567,-0.3353,-1429.44,-1738.89,1592.47
8570,-3.8439,-2.2024,-0.1593,-851.32,1089.29,-188.17
8580,-3.8442,-2.0764,-0.1029,-1898.19,-379.33,-1047.24
8590,-3.8441,-1.8472,-0.0928,-1773.19,-1160.34,-281.49
8600,-3.8748,-1.5643,-0.0726,-429.44,136.96,671.69
8610,-3.8743,-1.3239,-0.0741,-226.32,-1284.36,-875.18
8620,-3.8739,-1.1892,-0.1437,-1445.07,-1471.37,1531.07
8630,-3.8740,-1.1331,-0.2540,-210.69,1622.62,-687.81
8640,-3.8744,-1.0791,-0.3370,-1023.19,-502.26,-1656.80
8650,-3.8749,-0.9934,-0.3745,1883.06,872.86,1311.83
8660,-3.8441,-0.8815,-0.3871,851.81,76.17,218.02
8670,-3.8446,-0.7235,-0.3684,-820.07,-1533.02,780.46
8680,-3.8450,-0.4943,-0.3311,-601.32,857.91,-1547.61
8690,-3.8451,-0.2162,-0.3300,742.43,1639.65,1671.20
8700,-3.8451,0.0610,-0.4059,336.18,1780.82,296.20
8710,-3.8450,0.2893,-0.5365,-179.44,46.94,1296.08
8720,-3.8446,0.4247,-0.6707,1039.31,-671.33,-1157.35
8730,-3.8441,0.4423,-0.7794,-1632.57,-1842.96,-1220.09
8740,-3.8750,0.3774,-0.8501,617.43,235.23,-126.53
8750,-3.8746,0.3016,-0.8827,320.56,-811.77,-1861.08
8760,-3.8744,0.2642,-0.8844,-1382.57,-983.83,1060.73
8770,-3.8744,0.2772,-0.8684,1820.56,-1202.64,-423.65
8780,-3.8744,0.3188,-0.8525,-507.57,844.24,-361.08
8790,-3.8743,0.3502,-0.8628,820.56,-1124.39,592.04
8800,-3.8743,0.3472,-0.9163,836.18,1563.17,-876.71
8810,-3.8741,0.3134,-1.0037,445.56,-1280.58,-908.08
8820,-3.8740,0.2631,-1.1044,117.43,-468.14,-80.14
8830,-3.8739,0.1892,-1.2089,1679.93,-1358.89,-908.45
8840,-3.8739,0.0712,-1.2961,226.81,1265.99,-799.26
8850,-3.8739,-0.0789,-1.3436,1117.43,-1906.13,841.19
8860,-3.8741,-0.2314,-1.3624,1914.31,31.07,-80.75
8870,-3.8743,-0.3734,-1.3607,-1616.94,1624.51,231.69
8880,-3.8746,-0.4974,-1.3358,211.18,1843.02,-80.81
8890,-3.8748,-0.5853,-1.2847,336.18,1030.27,1497.38
8900,-3.8749,-0.6057,-1.2073,1086.18,-423.03,1263.06
8910,-3.8750,-0.5420,-1.1127,-1523.19,1483.15,1575.74
8920,-3.8439,-0.4149,-0.9999,-1366.94,1592.65,1044.68
8930,-3.8441,-0.2681,-0.8635,-1101.32,30.40,-689.45
8940,-3.8442,-0.1365,-0.7263,1695.56,1483.83,92.04
8950,-3.8446,-0.0411,-0.6123,-1460.69,-953.43,-923.34
8960,-3.8448,0.0109,-0.5056,-1257.57,1640.50,-1579.35
8970,-3.8450,0.0321,-0.3887,1398.68,-718.75,1795.84
8980,-3.8450,0.0249,-0.2612,117.43,-1749.94,-1125.79
8990,-3.8446,-0.0024,-0.1208,-804.44,-1437.50,1077.58
9000,-3.8440,-0.0258,-0.0082,-304.44,546.81,-1015.87
9010,-3.8744,-0.0634,0.0388,711.18,-1031.31,1874.94
9020,-3.8737,-0.1356,0.0518,-101.32,984.19,-1484.31
9030,-3.8730,-0.2189,0.0040,-1351.32,-1359.68,-1031.19
9040,-3.8726,-0.2828,-0.1534,-7.57,530.76,218.75
9050,-3.8724,-0.2760,-0.3518,-195.07,374.39,-312.81
9060,-3.8721,-0.1343,-0.5519,679.93,-1016.17,-1453.86
9070,-3.8713,0.1519,-0.7942,-1179.44,1374.69,983.28
9080,-3.8704,0.5157,-1.0182,-554.44,-1656.01,-454.71
9090,-3.8688,0.8361,-1.1412,-1976.32,1672.85,1044.86
9100,-3.8663,1.0446,-1.2795,-976.32,1923.46,1575.87
9110,-3.8634,0.8865,-1.6307,1711.18,220.76,-1721.25
9120,-3.8616,-0.0411,-2.1064,1476.81,-732.67,121.77
9130,-3.8623,-1.4874,-2.2616,-1257.57,-1609.50,-1582.28
9140,-3.8650,-2.7266,-1.9371,1617.43,-1471.68,1151.79
9150,-3.8683,-3.4463,-1.4384,-991.94,57.13,-628.78
9160,-3.8705,-3.5964,-1.0326,-1116.94,-100.52,1497.13
9170,-3.8710,-3.2341,-0.8478,-335.69,-163.33,638.55
9180,-3.8704,-2.6134,-0.8635,-1960.69,-506.35,-95.46
9190,-3.8695,-1.9857,-0.9014,1492.43,1479.25,1154.54
9200,-3.8694,-1.5411,-0.7928,1836.18,636.72,1607.60
9210,-3.8700,-1.3252,-0.5312,-1257.57,-1471.80,-970.34
9220,-3.8710,-1.2596,-0.2426,-1616.94,13.00,-1110.41
9230,-3.8719,-1.2473,-0.0306,-1226.32,966.25,-1187.99
9240,-3.8726,-1.2253,0.0771,351.81,91.31,-1796.94
9250,-3.8727,-1.1855,0.0822,-835.69,1888.18,765.75
9260,-3.8726,-1.1521,-0.0107,258.06,-1471.07,-1703.00
9270,-3.8721,-1.1125,-0.1940,539.31,-1361.63,374.94
9280,-3.8715,-1.0393,-0.3931,1601.81,-814.70,1499.57
9290,-3.8710,-0.9553,-0.4774,-1023.19,1701.05,-1969.54
9300,-3.8710,-0.8988,-0.4095,1726.81,-1095.64,1936.52
9310,-3.8715,-0.8660,-0.2734,961.18,-408.02,1452.27
9320,-3.8722,-0.8258,-0.1636,1164.31,1013.92,1968.20
9330,-3.8728,-0.7681,-0.1111,-1695.07,-923.52,155.88
9340,-3.8734,-0.7096,-0.0996,1695.56,1795.35,1656.01
9350,-3.8739,-0.6613,-0.1111,1179.93,-735.78,968.51
9360,-3.8744,-0.6122,-0.1376,-632.57,1795.53,-1250.24
9370,-3.8748,-0.5541,-0.1578,1648.68,-1594.97,-297.18
9380,-3.8750,-0.5009,-0.1504,1086.18,-188.60,1202.76
9390,-3.8441,-0.4692,-0.1211,-101.32,764.59,280.94
9400,-3.8446,-0.4694,-0.0870,-54.44,514.65,234.13
9410,-3.8452,-0.5217,-0.0581,-70.07,874.02,-1765.81
9420,-3.8457,-0.6284,-0.0441,1226.81,577.09,1921.75
9430,-3.8461,-0.7605,-0.0371,-429.44,-1626.28,-609.50
9440,-3.8462,-0.8927,-0.0051,-1335.69,-735.90,-1828.25
9450,-3.8463,-1.0211,0.0679,1742.43,-642.40,-1468.81
9460,-3.8464,-1.1387,0.1532,1304.93,701.11,-1578.00
9470,-3.8466,-1.2014,0.2075,-1741.94,-377.26,1812.74
9480,-3.8467,-1.1759,0.2087,-1773.19,-1424.26,1359.74
9490,-3.8468,-1.0793,0.1725,1492.43,-1267.94,-1749.63
9500,-3.8468,-0.9463,0.1271,1851.81,-1908.39,-1952.82
9510,-3.8467,-0.7969,0.0872,-1116.94,279.36,390.87
9520,-3.8467,-0.6440,0.0638,-1991.94,-829.71,-437.38
9530,-3.8466,-0.5043,0.0554,1570.56,186.22,-515.50
9540,-3.8463,-0.3904,0.0498,-538.82,-891.66,468.81
9550,-3.8462,-0.3052,0.0402,-1960.69,-1610.17,-1984.31
9560,-3.8459,-0.2462,0.0056,945.56,1155.64,421.94
9570,-3.8458,-0.2021,-0.0773,492.43,733.89,-937.50
9580,-3.8456,-0.1505,-0.2053,-1866.94,-1875.43,1124.82
9590,-3.8453,-0.0769,-0.3596,742.43,1734.07,374.57
9600,-3.8450,0.0145,-0.5067,-1835.69,1984.19,389.89
9610,-3.8445,0.0940,-0.6129,1867.43,-859.38,-547.91
9620,-3.8749,0.1265,-0.6970,39.31,1547.06,1311.28
9630,-3.8739,0.1099,-0.8596,195.56,-1218.51,1998.60
9640,-3.8726,0.0773,-1.1659,-1929.44,1968.93,888.92
9650,-3.8711,0.0547,-1.4611,1898.68,-1234.25,-877.32
9660,-3.8695,0.0006,-1.5881,-991.94,984.44,1231.51
9670,-3.8680,-0.1549,-1.6317,86.18,718.75,-1690.61
9680,-3.8666,-0.3951,-1.6702,179.93,-844.06,496.77
9690,-3.8654,-0.6467,-1.7081,1429.93,-1766.42,1371.70
9700,-3.8643,-0.8320,-1.7673,1226.81,1373.72,1621.64
9710,-3.8634,-0.9353,-1.8090,1508.06,1795.23,-1800.35
9720,-3.8628,-0.9985,-1.7667,289.31,466.92,855.83
9730,-3.8624,-0.9874,-1.6671,195.56,1873.05,-1065.98
9740,-3.8621,-0.8563,-1.5782,1617.43,-1376.95,-1643.92
9750,-3.8619,-0.6514,-1.5016,-1601.32,1998.29,-1815.61
9760,-3.8622,-0.4550,-1.4078,633.06,-188.78,-1674.87
9770,-3.8628,-0.3179,-1.2804,1773.68,-188.42,1778.44
9780,-3.8638,-0.2416,-1.1281,-679.44,124.33,-1565.00
9790,-3.8649,-0.2079,-0.9858,1086.18,-375.49,825.87
9800,-3.8660,-0.2013,-0.8910,1398.68,1827.70,466.80
9810,-3.8669,-0.2120,-0.8420,-1757.57,1968.32,-1454.90
9820,-3.8677,-0.2310,-0.8048,867.43,233.95,-1282.90
9830,-3.8683,-0.2496,-0.7629,-1554.44,999.51,1451.54
9840,-3.8690,-0.2860,-0.7346,54.93,-1641.11,-642.15
9850,-3.8696,-0.3535,-0.7311,-601.32,1983.76,592.29
9860,-3.8704,-0.4396,-0.7350,-1241.94,-1563.23,-1407.71
9870,-3.8710,-0.5311,-0.7258,-257.57,1936.58,1092.29
9880,-3.8716,-0.6200,-0.6931,23.68,-891.66,357.91
9890,-3.8722,-0.6957,-0.6447,648.68,-704.35,1795.47
9900,-3.8727,-0.7419,-0.5927,-1038.82,1498.60,686.22
9910,-3.8733,-0.7522,-0.5355,1039.31,154.79,-1719.91
9920,-3.8739,-0.7388,-0.4724,-273.19,-532.78,1342.65
9930,-3.8746,-0.7128,-0.3992,1445.56,-454.59,-1344.73
9940,-3.8441,-0.6713,-0.3124,773.68,920.47,-125.79
9950,-3.8447,-0.6118,-0.2205,-1913.82,29.91,1843.14
9960,-3.8453,-0.5383,-0.1329,1695.56,-204.35,312.01
9970,-3.8461,-0.4675,-0.0558,-898.19,-1001.10,-219.06
9980,-3.8466,-0.4310,0.0125,164.31,874.08,1515.50
9990,-3.8470,-0.4584,0.0746,836.18,1608.52,-1500.00
10000,-3.8474,-0.5492,0.1271,1336.18,1561.58,-1562.38
10010,-3.8477,-0.6761,0.1630,1711.18,280.15,640.87
10020,-3.8479,-0.8231,0.1583,1461.18,873.66,-1280.94
10030,-3.8479,-0.9586,0.0999,-1351.32,279.60,-1155.94
10040,-3.8477,-1.0205,0.0171,1304.93,794.98,-1187.32
10050,-3.8472,-0.9753,-0.0522,1383.06,-1798.89,-1953.12
10060,-3.8467,-0.8418,-0.0902,-835.69,1326.17,-125.12
