timestamp_ms,ax,ay,az,gx,gy,gz
0,-3.8705,-0.2271,-0.4114,664.31,-422.42,1998.96
10,-3.8710,-0.1930,-0.3759,-1054.44,-641.11,-1219.60
20,-3.8713,-0.1993,-0.3855,-695.07,-94.18,842.96
30,-3.8717,-0.2399,-0.3928,-1507.57,-1328.55,999.21
40,-3.8721,-0.2948,-0.3693,1304.93,1733.89,1311.71
50,-3.8724,-0.3442,-0.3184,-1726.32,749.39,733.64
60,-3.8728,-0.3800,-0.2572,-54.44,-735.11,46.20
70,-3.8732,-0.4066,-0.2140,-632.57,-907.04,1577.58
80,-3.8733,-0.4165,-0.3580,242.43,-1453.98,1296.26
90,-3.8732,-0.3871,-0.4005,-1304.44,-1813.35,264.89
100,-3.8732,-0.3651,-0.4294,-1538.82,749.21,-1110.17
110,-3.8730,-0.3550,-0.4558,1273.68,1046.14,1655.40
120,-3.8729,-0.3628,-0.4808,-1429.44,1671.14,436.58
130,-3.8728,-0.4028,-0.5015,1570.56,-1531.98,170.90
140,-3.8727,-0.4658,-0.5017,445.56,-172.67,-1516.66
150,-3.8724,-0.5166,-0.4738,383.06,-204.04,936.46
160,-3.8724,-0.5342,-0.4269,1883.06,-626.04,-469.73
170,-3.8724,-0.5215,-0.3795,-366.94,1373.90,1702.27
180,-3.8726,-0.4884,-0.3491,1258.06,-563.54,1561.71
190,-3.8727,-0.4539,-0.3445,1492.43,-672.85,-969.48
200,-3.8726,-0.4369,-0.3671,1914.31,-79.04,-1766.36
210,-3.8723,-0.4290,-0.3853,86.18,1030.40,1530.52
220,-3.8722,-0.4081,-0.3429,1101.81,-1297.73,-1250.79
230,-3.8722,-0.3650,-0.2358,-226.32,124.15,-1813.17
240,-3.8723,-0.3090,-0.1362,1289.31,1827.39,343.26
250,-3.8726,-0.2500,-0.0980,461.18,-1422.49,-1765.93
260,-3.8726,-0.1864,-0.0977,8.06,-531.74,1046.63
270,-3.8724,-0.1112,-0.0878,148.68,-484.74,1218.51
280,-3.8722,0.0013,-0.0519,1773.68,781.01,1249.82
290,-3.8717,0.2406,0.0282,179.93,1359.38,-15.75
300,-3.8702,0.6949,0.1586,-1195.07,-390.20,-1656.25
310,-3.8677,1.2096,0.1768,961.18,298.22,94.06
320,-3.8650,1.3654,-0.1132,-1163.82,-1372.68,-484.07
330,-3.8636,1.0273,-0.5402,-1226.32,1518.25,984.13
340,-3.8649,0.4886,-0.7020,-491.94,-1138.67,-876.10
350,-3.8674,0.0239,-0.5099,-1445.07,-1858.46,717.35
360,-3.8702,-0.2474,-0.2120,-929.44,-1265.62,123.96
370,-3.8724,-0.3783,-0.0400,336.18,874.51,1812.07
380,-3.8737,-0.4918,-0.0444,-413.82,-1110.17,-1531.37
390,-3.8741,-0.5917,-0.1401,1054.93,-1672.85,-593.87
400,-3.8740,-0.6178,-0.2540,273.68,-1923.03,1249.69
410,-3.8735,-0.5804,-0.3660,929.93,-501.22,249.45
420,-3.8729,-0.5360,-0.4618,1711.18,1170.72,1124.27
430,-3.8724,-0.5305,-0.5492,-601.32,905.15,1186.58
440,-3.8722,-0.5636,-0.6405,101.81,1717.71,1280.15
450,-3.8721,-0.5902,-0.7042,-132.57,-1969.91,1279.97
460,-3.8721,-0.5763,-0.7101,461.18,1873.84,-985.78
470,-3.8721,-0.5187,-0.6750,-1757.57,1123.84,1748.60
480,-3.8722,-0.4363,-0.6332,1617.43,1608.34,1529.91
490,-3.8723,-0.3529,-0.5983,164.31,-1032.10,233.09
500,-3.8726,-0.2762,-0.5673,-1163.82,-563.23,-1173.10
510,-3.8728,-0.2029,-0.5374,648.68,-594.30,-188.66
520,-3.8730,-0.1445,-0.5428,-1960.69,-766.05,1045.78
530,-3.8734,-0.1338,-0.6610,1508.06,-1469.06,670.78
540,-3.8737,-0.1727,-0.9126,-1116.94,-594.06,-1751.34
550,-3.8735,-0.2249,-1.1993,1898.68,-797.24,-1345.58
560,-3.8732,-0.2644,-1.3892,-773.19,-1500.49,294.49
570,-3.8732,-0.2935,-1.4259,-1835.69,-1797.42,-96.50
580,-3.8734,-0.3281,-1.3468,-1554.44,1499.39,-659.06
590,-3.8739,-0.3778,-1.2296,-1991.94,-375.67,184.81
600,-3.8746,-0.4448,-1.1365,-351.32,-1375.79,747.56
610,-3.8441,-0.5227,-1.0912,-929.44,-1454.04,-736.63
620,-3.8446,-0.5970,-1.0900,1101.81,342.71,-1174.01
630,-3.8450,-0.6659,-1.1162,-413.82,498.78,-345.89
640,-3.8452,-0.7278,-1.1504,-1226.32,1139.28,1700.93
650,-3.8456,-0.7625,-1.1860,-1148.19,764.16,1591.49
660,-3.8459,-0.7587,-1.2401,-1585.69,201.60,-1299.19
670,-3.8461,-0.7284,-1.3350,-1101.32,1279.72,-158.69
680,-3.8458,-0.6788,-1.4172,-1226.32,1139.16,-1487.00
690,-3.8456,-0.6007,-1.4200,1117.43,-1391.97,-112.18
700,-3.8452,-0.5160,-1.3567,-882.57,-1751.22,1153.44
710,-3.8450,-0.4755,-1.2599,1961.18,-1641.66,966.06
720,-3.8450,-0.4822,-1.1541,-851.32,-1250.98,-143.13
730,-3.8450,-0.4923,-1.0554,-1710.69,295.90,-1299.13
740,-3.8451,-0.4773,-0.9695,992.43,920.90,-861.45
750,-3.8452,-0.4456,-0.8964,-1085.69,-79.10,-1345.70
760,-3.8453,-0.4072,-0.8472,-1023.19,1280.33,-1470.52
770,-3.8455,-0.3571,-0.8336,-116.94,-422.73,-829.83
780,-3.8455,-0.2914,-0.8469,-1695.07,1311.77,107.73
790,-3.8456,-0.2173,-0.8624,-1288.82,-391.24,1404.54
800,-3.8457,-0.1473,-0.8636,195.56,1624.57,-361.08
810,-3.8457,-0.0916,-0.8531,1148.68,1468.44,-1157.96
820,-3.8457,-0.0508,-0.8374,289.31,-1187.68,-1111.08
830,-3.8457,-0.0188,-0.8191,1508.06,828.00,-267.27
840,-3.8456,0.0090,-0.7999,1601.81,-828.19,998.35
850,-3.8456,0.0298,-0.7810,1164.31,1609.38,-1423.46
860,-3.8455,0.0394,-0.7642,-179.44,31.25,623.47
870,-3.8455,0.0409,-0.7482,1054.93,-1812.44,-1142.15
880,-3.8453,0.0380,-0.7317,1242.43,234.44,1029.79
890,-3.8453,0.0331,-0.7159,867.43,-1656.19,-938.96
900,-3.8452,0.0298,-0.7041,242.43,359.44,1014.22
910,-3.8452,0.0312,-0.7017,-179.44,1875.00,-1188.90
920,-3.8451,0.0354,-0.7097,8.06,-1812.44,264.22
930,-3.8451,0.0449,-0.7246,539.31,1156.31,1092.35
940,-3.8451,0.0641,-0.7452,1758.06,-749.94,1623.54
950,-3.8451,0.0852,-0.7765,211.18,609.50,-1876.46
960,-3.8450,0.1304,-0.9526,8.06,15.87,1373.29
970,-3.8447,0.0560,-1.1558,695.56,-1937.26,-814.39
980,-3.8439,-0.1077,-1.4995,-820.07,62.56,-1205.38
990,-3.8741,-0.2733,-1.7599,-1773.19,77.88,-1815.43
1000,-3.8740,-0.3392,-1.7091,1023.68,-1250.55,-300.35
1010,-3.8748,-0.3051,-1.4110,586.18,1249.33,-456.48
1020,-3.8446,-0.2899,-1.1163,961.18,-594.36,-1565.31
1030,-3.8455,-0.3279,-1.0170,-1101.32,1124.39,638.43
1040,-3.8458,-0.3519,-1.1042,-1960.69,1843.08,1544.86
1050,-3.8457,-0.3939,-1.2531,-1038.82,-1328.86,-1345.95
1060,-3.8453,-0.5380,-1.4268,1586.18,-375.79,-1127.50
1070,-3.8450,-0.7434,-1.6058,-851.32,1389.53,-1346.56
1080,-3.8447,-0.9014,-1.7240,851.81,-1532.71,-175.05
1090,-3.8444,-0.9869,-1.7631,633.06,-658.02,1043.46
1100,-3.8440,-1.0415,-1.7755,1679.93,-1658.20,512.15
1110,-3.8750,-1.0829,-1.8182,-1304.44,747.92,-253.48
1120,-3.8748,-1.1051,-1.9097,1398.68,-720.89,-362.98
1130,-3.8745,-1.1072,-2.0262,-1445.07,-424.07,418.09
1140,-3.8744,-1.0948,-2.1407,-1710.69,654.05,152.28
1150,-3.8743,-1.0769,-2.2505,-132.57,1997.80,527.04
1160,-3.8741,-1.0707,-2.3862,-1835.69,-49.01,214.29
1170,-3.8741,-1.1055,-2.5553,-1038.82,-1424.01,1370.30
1180,-3.8740,-1.1815,-2.6747,-1491.94,935.30,620.00
1190,-3.8739,-1.2585,-2.6624,773.68,1653.93,416.63
1200,-3.8743,-1.3088,-2.5190,-1085.69,-768.13,-1974.00
1210,-3.8439,-1.3353,-2.3212,476.81,1575.56,1635.68
1220,-3.8448,-1.3479,-2.1649,1086.18,-1096.37,151.67
1230,-3.8457,-1.3641,-2.0814,-523.19,-1096.44,1323.85
1240,-3.8467,-1.4645,-1.7863,1023.68,169.01,-19.35
1250,-3.8468,-1.4674,-1.6476,554.93,-627.87,-316.04
1260,-3.8469,-1.4822,-1.5167,179.93,1122.13,-1315.73
1270,-3.8470,-1.5063,-1.4116,-1710.69,1872.07,-284.24
1280,-3.8470,-1.5181,-1.3285,-804.44,-674.87,-705.93
1290,-3.8470,-1.5038,-1.2554,1695.56,1965.76,1981.75
1300,-3.8472,-1.4745,-1.1783,-476.32,-674.87,1685.00
1310,-3.8474,-1.4298,-1.0759,-726.32,1184.57,-1361.69
1320,-3.8477,-1.3553,-0.9375,992.43,-1705.93,372.86
1330,-3.8481,-1.2572,-0.7725,-1476.32,12.94,-1204.96
1340,-3.8485,-1.1514,-0.6010,-913.82,1138.12,232.85
1350,-3.8489,-1.0669,-0.4575,633.06,-908.51,1123.78
1360,-3.8490,-1.0157,-0.3685,-554.44,1450.99,592.83
1370,-3.8490,-0.9741,-0.3334,1992.43,841.74,-1563.23
1380,-3.8489,-0.9216,-0.3263,-679.44,1341.80,-141.30
1390,-3.8486,-0.8420,-0.3163,-1960.69,-1751.83,-1938.17
1400,-3.8484,-0.7402,-0.2963,226.81,-470.40,139.95
1410,-3.8483,-0.6335,-0.2701,1258.06,-1907.71,1452.51
1420,-3.8481,-0.5210,-0.2433,-1085.69,1436.22,-1344.30
1430,-3.8479,-0.4098,-0.2205,1320.56,873.96,515.14
1440,-3.8478,-0.3252,-0.1823,-445.07,-203.98,-1531.74
1450,-3.8475,-0.2633,-0.1178,-1616.94,686.83,1702.76
1460,-3.8473,-0.1975,-0.0529,-1695.07,936.95,-109.62
1470,-3.8469,-0.1306,0.0016,-1273.19,1249.57,-718.87
1480,-3.8466,-0.0762,0.0535,-710.69,218.44,-1828.12
1490,-3.8462,-0.0199,0.0941,-1741.94,-1140.81,1921.94
1500,-3.8458,0.0444,0.1077,1461.18,62.44,-952.94
1510,-3.8453,0.0857,0.0846,1695.56,1781.31,234.56
1520,-3.8450,0.0879,0.0282,-1023.19,-1171.75,-1859.25
1530,-3.8445,0.0754,-0.0417,-741.94,-390.50,1000.00
1540,-3.8441,0.0688,-0.1069,1664.31,-1343.63,-1843.87
1550,-3.8439,0.0734,-0.1664,820.56,-1687.38,-250.24
1560,-3.8748,0.0970,-0.2234,1398.68,-1296.75,30.88
1570,-3.8745,0.1365,-0.2821,429.93,-593.57,1905.76
1580,-3.8741,0.1713,-0.3572,1476.81,-109.13,1780.64
1590,-3.8738,0.1925,-0.4517,1929.93,-1718.44,1968.02
1600,-3.8735,0.2024,-0.5343,648.68,-1812.13,-157.17
1610,-3.8733,0.2019,-0.5856,1914.31,-390.26,-1672.97
1620,-3.8732,0.2032,-0.6387,1851.81,1047.24,-1313.66
1630,-3.8729,0.2324,-0.7400,-1976.32,-1749.63,1920.59
1640,-3.8724,0.2865,-0.8995,1758.06,1281.68,-1423.34
1650,-3.8716,0.3533,-1.0763,679.93,859.92,529.48
1660,-3.8707,0.5571,-1.3088,1226.81,-1764.95,-1017.76
1670,-3.8684,1.1605,-2.1508,-679.44,469.79,-643.19
1680,-3.8650,1.1628,-3.1172,554.93,705.38,667.66
1690,-3.8639,0.1699,-2.7578,851.81,1002.26,1634.52
1700,-3.8651,-0.6392,-1.4847,1758.06,-999.69,1135.19
1710,-3.8672,-1.0167,-0.5491,-1804.44,1967.47,481.45
1720,-3.8691,-1.0822,-0.2528,1867.43,1732.36,-1594.85
1730,-3.8699,-0.8724,-0.4427,1492.43,-345.89,1765.08
1740,-3.8700,-0.6245,-0.8527,336.18,-657.96,-750.92
1750,-3.8701,-0.4775,-1.1533,70.56,-1126.22,1185.79
1760,-3.8706,-0.3718,-1.1505,-1116.94,389.65,-1830.38
1770,-3.8712,-0.2448,-0.9207,414.31,749.27,357.12
1780,-3.8722,-0.1013,-0.6581,679.93,-1828.61,-751.83
1790,-3.8730,0.0222,-0.4846,-960.69,-218.99,108.03
1800,-3.8739,0.1031,-0.4215,-1148.19,1968.75,-719.73
1810,-3.8744,0.1581,-0.4280,1211.18,-1952.94,-188.35
1820,-3.8746,0.2118,-0.4547,242.43,1219.06,-860.23
1830,-3.8440,0.3915,-0.5005,-1070.07,719.36,108.40
1840,-3.8444,0.4286,-0.5048,-1882.57,-61.77,1733.34
1850,-3.8446,0.4353,-0.5121,-1132.57,-608.58,530.21
1860,-3.8448,0.4012,-0.5261,-273.19,-1546.08,1592.71
1870,-3.8450,0.3304,-0.5519,-632.57,656.98,61.46
1880,-3.8452,0.2429,-0.5934,-1695.07,1359.99,-1844.85
1890,-3.8455,0.1525,-0.6376,-898.19,47.30,-32.41
1900,-3.8456,0.0590,-0.6755,-476.32,-1609.13,1639.34
1910,-3.8458,-0.0458,-0.7164,-445.07,1531.31,1701.78
1920,-3.8462,-0.1776,-0.7610,-1851.32,312.38,-532.65
1930,-3.8466,-0.3335,-0.7775,1273.68,-1390.99,-1189.03
1940,-3.8469,-0.4891,-0.7361,1320.56,499.33,795.35
1950,-3.8473,-0.6421,-0.6677,1398.68,1795.90,748.54
1960,-3.8475,-0.8203,-0.6445,1820.56,-1454.41,1920.53
1970,-3.8475,-1.0490,-0.7094,-991.94,1513.98,701.84
1980,-3.8475,-1.3302,-0.8448,1742.43,1216.67,1842.35
1990,-3.8477,-1.6404,-0.9839,1742.43,-127.62,-189.21
2000,-3.8479,-1.9313,-1.0365,-1960.69,-1925.11,-1158.20
2010,-3.8483,-2.1412,-0.9615,804.93,-660.03,-1861.45
2020,-3.8485,-2.2471,-0.8071,1929.93,933.29,-1501.89
2030,-3.8484,-2.2926,-0.6505,383.06,698.73,1576.54
2040,-3.8480,-2.3092,-0.5387,-1445.07,745.48,1061.22
2050,-3.8477,-2.2770,-0.4799,429.93,-942.02,-329.22
2060,-3.8472,-2.1931,-0.4670,554.93,-1410.71,1155.27
2070,-3.8469,-2.1005,-0.4720,-710.69,230.04,1452.21
2080,-3.8469,-2.0406,-0.4552,-851.32,-410.40,-469.73
2090,-3.8469,-2.0162,-0.3925,-1195.07,1745.97,-1297.79
2100,-3.8469,-2.0621,-0.2804,1929.93,1777.28,-547.67
2110,-3.8466,-2.2524,-0.1576,54.93,120.97,-1297.42
2120,-3.8728,-3.5839,-0.4690,664.31,1712.77,921.51
2130,-3.8705,-3.9845,-0.9110,1273.68,-22.64,-1172.85
2140,-3.8680,-4.0000,-1.2755,1992.43,-601.56,-579.96
2150,-3.8657,-4.0000,-1.3839,8.06,742.19,231.87
2160,-3.8644,-4.0000,-1.2535,8.06,-1132.81,262.88
2170,-3.8644,-3.9501,-0.9977,8.06,-445.31,-1221.25
2180,-3.8655,-3.7314,-0.7135,-1601.32,304.75,-845.70
2190,-3.8673,-3.3064,-0.4695,-1616.94,680.18,1795.47
2200,-3.8695,-2.8900,-0.2919,789.31,-84.59,-625.98
2210,-3.8713,-2.6509,-0.1847,-1913.82,-1349.43,702.51
2220,-3.8728,-2.5837,-0.1554,695.56,369.81,-1828.49
2230,-3.8738,-2.5897,-0.2080,1289.31,119.93,-797.18
2240,-3.8744,-2.5762,-0.3199,523.68,1385.56,-562.93
2250,-3.8748,-2.5050,-0.4723,-1741.94,-942.57,-1406.92
2260,-3.8750,-2.3765,-0.6509,-632.57,-442.44,1030.27
2270,-3.8441,-2.2045,-0.7979,-179.44,698.43,-1673.16
2280,-3.8446,-2.0239,-0.8585,1836.18,1886.29,-282.84
2290,-3.8451,-1.8801,-0.8367,945.56,-1878.97,-1939.21
2300,-3.8456,-1.7888,-0.7745,-648.19,918.15,795.23
2310,-3.8461,-1.7325,-0.7275,-960.69,871.46,-235.90
2320,-3.8462,-1.6840,-0.7235,-1757.57,-1112.79,920.41
2330,-3.8462,-1.6329,-0.7555,461.18,-597.05,357.91
2340,-3.8462,-1.5846,-0.7953,-1007.57,-690.73,-329.65
2350,-3.8461,-1.5372,-0.8180,1179.93,-1784.36,-1220.34
2360,-3.8461,-1.4835,-0.8202,-757.57,-690.55,-704.77
2370,-3.8461,-1.4172,-0.8010,-1882.57,-971.68,-1501.65
2380,-3.8459,-1.3424,-0.7814,-1398.19,1481.57,701.54
2390,-3.8457,-1.2690,-0.7837,179.93,-2.62,545.29
2400,-3.8453,-1.1935,-0.7894,1570.56,-299.38,232.79
2410,-3.8451,-1.1039,-0.7665,-757.57,-1033.63,-1032.84
2420,-3.8448,-1.0032,-0.7046,-1288.82,1904.05,1154.72
2430,-3.8448,-0.9037,-0.6111,-398.19,1826.11,-48.28
2440,-3.8447,-0.8153,-0.5212,336.18,1795.10,-923.10
2450,-3.8446,-0.7432,-0.4725,-351.32,1295.23,-297.91
2460,-3.8444,-0.6794,-0.4620,883.06,-470.21,1530.27
2470,-3.8441,-0.6195,-0.4640,1039.31,873.66,936.58
2480,-3.8439,-0.5623,-0.4542,711.18,623.78,1124.08
2490,-3.8750,-0.5043,-0.4230,39.31,1873.90,-329.04
2500,-3.8749,-0.4453,-0.3776,-538.82,1873.96,-1297.73
2510,-3.8749,-0.3844,-0.3267,-991.94,-313.42,-1453.92
2520,-3.8749,-0.3210,-0.2705,-1195.07,-1797.67,468.08
2530,-3.8750,-0.2595,-0.2069,-1085.69,1389.95,1015.08
2540,-3.8439,-0.2032,-0.1410,-1210.69,1530.70,499.57
2550,-3.8440,-0.1538,-0.0944,1992.43,1968.32,187.19
2560,-3.8441,-0.1118,-0.0830,320.56,-62.81,718.51
2570,-3.8442,-0.0758,-0.0918,1695.56,1390.38,-1875.18
2580,-3.8442,-0.0431,-0.0914,-1695.07,265.44,93.57
2590,-3.8444,-0.0129,-0.0696,-1507.57,312.38,-1797.06
2600,-3.8444,0.0156,-0.0341,-1648.19,-890.69,624.82
2610,-3.8445,0.0449,0.0024,-1991.94,-359.38,-375.12
2620,-3.8445,0.0712,0.0348,1758.06,312.56,-984.38
2630,-3.8445,0.0858,0.0637,1117.43,453.25,-1812.44
2640,-3.8445,0.0873,0.0908,-1007.57,156.37,765.75
2650,-3.8446,0.0880,0.1249,-820.07,-374.88,-468.63
2660,-3.8446,0.0952,0.1649,-726.32,-15.50,-1515.44
2670,-3.8446,0.0990,0.1907,195.56,1109.56,1797.18
2680,-3.8446,0.0884,0.1958,679.93,406.43,-609.01
2690,-3.8445,0.0580,0.1958,-679.44,1062.62,-265.26
2700,-3.8442,0.0121,0.2048,-570.07,1062.56,484.74
2710,-3.8442,-0.0292,0.2311,1554.93,-1781.25,-671.51
2720,-3.8442,-0.0493,0.2706,273.68,1593.69,-296.45
2730,-3.8442,-0.0482,0.3135,1695.56,-1343.87,-1515.14
2740,-3.8442,-0.0387,0.3492,1836.18,140.50,1781.86
2750,-3.8441,-0.0376,0.3499,-945.07,718.63,219.42
2760,-3.8440,-0.0513,0.2950,-804.44,796.75,-1030.58
2770,-3.8749,-0.0762,0.2297,1445.56,1781.13,1719.30
2780,-3.8745,-0.1097,0.2137,-1741.94,1421.69,-718.32
2790,-3.8740,-0.1600,0.2433,1961.18,-625.24,1765.99
2800,-3.8735,-0.2324,0.2729,-476.32,-844.12,844.18
2810,-3.8730,-0.3229,0.2551,-1741.94,-1047.36,1922.36
2820,-3.8724,-0.4277,0.1697,-1320.07,671.20,-1702.64
2830,-3.8717,-0.5430,0.0399,1258.06,1733.52,-515.32
2840,-3.8707,-0.6581,-0.0980,-1491.94,1123.90,-1187.44
2850,-3.8696,-0.7645,-0.2080,-226.32,-532.59,-703.37
2860,-3.8684,-0.8573,-0.2729,-1851.32,1389.10,874.57
2870,-3.8674,-0.9314,-0.3108,-1726.32,1076.42,-141.17
2880,-3.8665,-0.9698,-0.3221,789.31,232.54,1093.14
2890,-3.8660,-0.9452,-0.2986,-132.57,-1220.70,-0.67
2900,-3.8657,-0.8474,-0.2440,-976.32,1794.98,702.51
2910,-3.8661,-0.6909,-0.1742,-460.69,779.54,-1406.74
2920,-3.8667,-0.5140,-0.1385,-429.44,1717.35,1374.63
2930,-3.8676,-0.3644,-0.1656,-1788.82,-1719.79,-156.56
2940,-3.8683,-0.2744,-0.2130,1367.43,-1188.23,-234.74
2950,-3.8689,-0.2483,-0.2102,883.06,749.45,687.07
2960,-3.8698,-0.2594,-0.1198,226.81,1108.89,1983.95
2970,-3.8706,-0.2679,0.0127,-1195.07,686.95,249.76
2980,-3.8715,-0.2532,0.0867,1711.18,1640.08,-671.88
2990,-3.8718,-0.2032,0.0531,-398.19,-891.17,1609.50
3000,-3.8721,-0.1014,-0.0515,1992.43,-1187.93,-1562.44
3010,-3.8724,0.0580,-0.1541,-976.32,1421.63,-859.50
3020,-3.8730,0.2437,-0.2161,-570.07,281.31,-1234.68
3030,-3.8738,0.3661,-0.2621,-804.44,344.18,1952.70
3040,-3.8744,0.3580,-0.3118,-1132.57,-1546.20,-1563.05
3050,-3.8746,0.2698,-0.3276,1836.18,94.42,452.51
3060,-3.8749,0.1951,-0.2668,-1460.69,-1937.01,-1688.17
3070,-3.8440,0.1615,-0.1837,976.81,1844.12,1780.70
3080,-3.8446,0.0643,-0.8931,679.93,484.68,-187.87
3090,-3.8719,-0.2156,-2.6660,242.43,1687.62,779.48
3100,-3.8639,-0.5612,-3.4370,414.31,-1234.80,822.88
3110,-3.8613,-0.7620,-1.6400,179.93,77.03,-319.21
3120,-3.8663,-0.7100,0.8534,-1523.19,-1907.78,-1425.11
3130,-3.8707,-0.5320,1.1276,1133.06,1248.60,1626.65
3140,-3.8694,-0.5840,-0.3400,-85.69,342.65,-169.68
3150,-3.8674,-0.6542,-0.9677,1258.06,498.84,468.08
3160,-3.8688,-0.4520,-0.4368,273.68,154.97,-1970.64
3170,-3.8707,-0.1334,-0.0559,-1851.32,108.46,-922.73
3180,-3.8718,0.1595,-0.3657,-1070.07,859.07,-859.50
3190,-3.8717,0.3365,-0.9742,429.93,1187.81,1452.39
3200,-3.8712,0.4202,-1.3384,-913.82,-702.51,404.30
3210,-3.8707,0.3995,-1.3363,1789.31,688.29,75.50
3220,-3.8704,0.3278,-1.1003,-851.32,953.86,-1190.12
3230,-3.8702,0.2986,-0.7889,1961.18,-843.14,1888.43
3240,-3.8704,0.3280,-0.5635,-1773.19,-983.83,1076.54
3250,-3.8706,0.3962,-0.4797,1992.43,-124.39,655.09
3260,-3.8710,0.4698,-0.4930,-1273.19,-1405.52,124.02
3270,-3.8715,0.5270,-0.5306,148.68,891.54,-750.98
3280,-3.8717,0.5558,-0.5317,-538.82,79.10,858.34
3290,-3.8719,0.5555,-0.4746,-851.32,-61.46,483.28
3300,-3.8722,0.5200,-0.3986,-882.57,-748.96,1108.40
3310,-3.8727,0.3184,-0.3325,664.31,1610.11,-1641.30
3320,-3.8728,0.2512,-0.3386,758.06,1438.11,-1375.67
3330,-3.8729,0.1627,-0.3500,164.31,656.74,-1031.92
3340,-3.8730,0.0591,-0.3658,836.18,-796.57,-16.36
3350,-3.8730,-0.0380,-0.3798,-429.44,1171.94,-1578.86
3360,-3.8730,-0.1117,-0.3812,-851.32,-593.87,1577.33
3370,-3.8732,-0.1655,-0.3717,1711.18,-781.49,-1078.92
3380,-3.8733,-0.2178,-0.3617,-1179.44,437.13,264.89
3390,-3.8737,-0.2924,-0.3591,133.06,1718.32,-1110.11
3400,-3.8739,-0.4033,-0.3589,-1413.82,-1953.74,-1844.48
3410,-3.8741,-0.5509,-0.3461,383.06,-1922.67,-891.36
3420,-3.8744,-0.7198,-0.3069,1492.43,-282.35,-391.36
3430,-3.8746,-0.8878,-0.2545,-132.57,732.91,155.64
3440,-3.8439,-1.0333,-0.2064,-1632.57,-564.27,93.20
3450,-3.8445,-1.1499,-0.1649,-257.57,1591.67,-1062.93
3460,-3.8450,-1.2313,-0.1321,820.56,-1096.01,-828.49
3470,-3.8453,-1.2610,-0.1189,-1601.32,-893.07,499.69
3480,-3.8456,-1.5499,-0.6650,-1398.19,794.37,-1406.49
3490,-3.8739,-2.1658,-1.9307,1617.43,-1112.43,-1376.34
3500,-3.8679,-2.3046,-2.2971,-1210.69,886.35,1699.34
3510,-3.8658,-1.8624,-1.0532,1023.68,1979.86,-1020.14
3520,-3.8685,-1.5948,0.2668,1617.43,1199.46,1966.67
3530,-3.8705,-1.8032,0.3407,-132.57,-1831.30,156.74
3540,-3.8698,-1.9708,-0.2925,1195.56,-378.54,141.24
3550,-3.8689,-1.5699,-0.4557,-257.57,-1425.78,1171.26
3560,-3.8698,-0.9358,-0.1976,-945.07,1684.39,-1625.92
3570,-3.8710,-0.5599,-0.1300,226.81,-1283.08,-78.55
3580,-3.8716,-0.4921,-0.3680,336.18,-626.10,-125.31
3590,-3.8719,-0.5339,-0.6763,1023.68,905.27,-688.23
3600,-3.8698,-0.1499,-1.2250,601.81,1374.51,1169.31
3610,-3.8696,-0.3683,-0.7975,820.56,-781.56,-1096.19
3620,-3.8705,-0.6860,-0.4379,867.43,1936.77,904.66
3630,-3.8710,-0.8035,-0.3688,195.56,-32.59,155.33
3640,-3.8710,-0.8054,-0.3455,1164.31,810.91,-1828.86
3650,-3.8715,-0.8866,-0.2599,914.31,-204.71,-828.86
3660,-3.8719,-0.9961,-0.1838,-1476.32,-1251.77,-797.42
3670,-3.8723,-1.0869,-0.1449,508.06,482.42,-781.62
3680,-3.8727,-1.1456,-0.0531,883.06,1466.61,1968.44
3690,-3.8730,-1.1052,0.0807,1367.43,1216.49,1281.13
3700,-3.8733,-0.9559,0.1195,-1460.69,-1658.45,1531.37
3710,-3.8735,-0.7540,0.0385,1648.68,-689.39,1687.68
3720,-3.8739,-0.5599,-0.0491,-507.57,935.97,-1187.44
3730,-3.8741,-0.3951,-0.0706,336.18,1733.28,296.75
3740,-3.8744,-0.2570,-0.0562,1429.93,-1016.42,-203.31
3750,-3.8743,-0.1370,-0.0449,-882.57,827.58,1531.13
3760,-3.8741,-0.0352,-0.0560,-1523.19,-1734.68,859.25
3770,-3.8741,0.0283,-0.1117,-491.94,843.63,1624.88
3780,-3.8741,0.0448,-0.2220,-366.94,1703.12,62.26
3790,-3.8741,0.0273,-0.3497,1742.43,-421.81,640.14
3800,-3.8740,-0.0093,-0.4429,-491.94,-765.62,749.27
3810,-3.8739,-0.0463,-0.4991,-1179.44,-671.94,1420.96
3820,-3.8738,-0.0570,-0.5382,-1913.82,124.88,1139.65
3830,-3.8737,-0.0295,-0.5667,711.18,-875.12,467.65
3840,-3.8737,0.0162,-0.5939,226.81,-515.69,-454.28
3850,-3.8735,0.0540,-0.6302,-1913.82,-15.62,-1360.60
3860,-3.8734,0.0800,-0.6895,-1085.69,-671.81,-1048.16
3870,-3.8732,0.0996,-0.7908,-1757.57,-249.88,-1595.15
3880,-3.8727,0.1204,-0.9335,758.06,-1218.57,45.29
3890,-3.8721,0.1343,-1.0785,-585.69,515.81,1732.54
3900,-3.8712,0.1090,-1.1499,1195.56,1953.37,-1830.26
3910,-3.8705,0.0691,-1.0535,1961.18,812.68,1544.62
3920,-3.8702,0.0990,-0.8370,851.81,1156.37,482.30
3930,-3.8705,0.2289,-0.6873,679.93,859.56,-298.52
3940,-3.8706,0.3782,-0.6591,1304.93,31.68,-1595.09
3950,-3.8706,0.4126,-0.6628,414.31,-358.64,-626.34
3960,-3.8705,0.3107,-0.6324,820.56,-842.96,1373.66
3970,-3.8705,0.1580,-0.5659,-226.32,-952.58,889.34
3980,-3.8705,0.0262,-0.4872,226.81,-437.19,-188.66
3990,-3.8702,-0.0347,-0.4191,-632.57,1640.62,-860.35
4000,-3.8701,-0.0126,-0.3774,-429.44,-1625.12,-485.23
4010,-3.8701,0.0267,-0.3539,-1601.32,-296.94,1874.21
4020,-3.8702,0.0203,-0.2997,-570.07,-1296.88,1936.77
4030,-3.8704,-0.0103,-0.2002,-1398.19,1640.62,1108.76
4040,-3.8705,-0.0397,-0.0986,-1304.44,-1609.44,671.45
4050,-3.8706,-0.0618,-0.0402,-1070.07,-609.50,952.88
4060,-3.8707,-0.0394,-0.0568,101.81,-1125.12,-1156.37
4070,-3.8706,0.0475,-0.1370,-1038.82,749.88,-1578.25
4080,-3.8702,0.1506,-0.2207,-1913.82,-1531.19,312.19
4090,-3.8699,0.2209,-0.2817,-710.69,-249.76,593.26
4100,-3.8695,0.2593,-0.3275,289.31,-62.07,-1516.24
4110,-3.8690,0.2795,-0.3638,1195.56,-1921.39,-1094.42
4120,-3.8685,0.2898,-0.3763,-210.69,1437.99,-297.61
4130,-3.8680,0.2944,-0.3447,1101.81,-171.33,1905.46
4140,-3.8678,0.2937,-0.2946,1695.56,-124.45,-360.11
4150,-3.8676,0.2947,-0.2621,1601.81,-1702.58,-1438.11
4160,-3.8673,0.3074,-0.2771,1726.81,-1546.33,1608.83
4170,-3.8671,0.3368,-0.3584,-648.19,531.80,936.95
4180,-3.8672,0.3040,-0.4487,-1773.19,-577.45,1077.09
4190,-3.8677,0.2205,-0.3252,-1085.69,-1436.95,1014.71
4200,-3.8683,0.1427,-0.1843,226.81,-1624.57,-1875.67
4210,-3.8689,0.0964,-0.0750,-1726.32,406.49,-1469.12
4220,-3.8694,0.0759,-0.0419,351.81,-1593.57,327.94
4230,-3.8699,0.0713,-0.0769,1726.81,-1359.25,562.38
4240,-3.8704,0.0496,-0.1177,1133.06,-1843.63,-1437.68
4250,-3.8708,-0.0387,-0.1284,-1648.19,937.56,-953.37
4260,-3.8715,-0.1588,-0.1095,-945.07,-422.00,-15.93
4270,-3.8721,-0.2450,-0.0659,-320.07,1999.63,-1328.37
4280,-3.8727,-0.2863,0.0282,648.68,-422.36,265.44
4290,-3.8734,-0.2977,0.1743,-632.57,-375.61,1375.00
4300,-3.8741,-0.2688,0.3337,1898.68,-1672.49,-827.82
4310,-3.8748,-0.2051,0.4749,1601.81,-1266.17,-1202.51
4320,-3.8440,-0.1577,0.5679,1758.06,796.45,1844.67
4330,-3.8444,-0.1447,0.5957,-179.44,702.76,-905.15
4340,-3.8445,-0.1500,0.5647,1492.43,265.32,-1108.22
4350,-3.8445,-0.1882,0.4946,804.93,296.57,-1233.28
4360,-3.8444,-0.2700,0.4073,-85.69,-672.30,-1467.83
4370,-3.8441,-0.3448,0.3303,1445.56,155.70,-1358.58
4380,-3.8439,-0.3433,0.3026,-132.57,-1703.86,-515.01
4390,-3.8749,-0.2535,0.3425,70.56,-1250.67,1453.67
4400,-3.8748,-0.1165,0.4232,-445.07,-141.17,328.74
4410,-3.8748,0.0194,0.5063,1101.81,-1812.74,1360.17
4420,-3.8748,0.1299,0.5709,-1507.57,812.50,-1311.52
4430,-3.8746,0.2222,0.6084,633.06,1078.37,-1686.40
4440,-3.8745,0.2987,0.6008,445.56,1875.43,-1967.59
4450,-3.8744,0.3519,0.5546,-1757.57,906.80,1423.03
4460,-3.8738,0.1951,0.5844,1883.06,1344.18,1063.54
4470,-3.8738,0.1764,0.6160,976.81,-1202.76,-1873.90
4480,-3.8738,0.1827,0.6171,-1413.82,-1155.94,-1873.84
4490,-3.8737,0.1567,0.6279,-601.32,-1015.32,1141.78
4500,-3.8737,0.0792,0.6962,70.56,375.31,-639.40
4510,-3.8737,0.0089,0.7719,-1851.32,1109.50,1016.97
4520,-3.8738,-0.0585,0.7986,1148.68,-1203.12,-1076.66
4530,-3.8738,-0.1124,0.7739,523.68,-1765.75,-639.10
4540,-3.8737,-0.1398,0.7156,1617.43,-922.12,-1436.04
4550,-3.8735,-0.1254,0.6581,-1882.57,-390.93,-1545.53
4560,-3.8734,-0.0812,0.6343,-38.82,249.69,1282.53
4570,-3.8734,-0.0381,0.6486,1617.43,1202.94,-1717.53
4580,-3.8734,-0.0115,0.6754,-866.94,-968.87,1813.72
4590,-3.8734,-0.0066,0.6919,-1460.69,-1531.31,1032.53
4600,-3.8734,-0.0157,0.6937,-835.69,578.06,501.34
4610,-3.8734,-0.0247,0.6869,1992.43,812.44,532.59
4620,-3.8734,-0.0259,0.6726,851.81,-62.56,1001.28
4630,-3.8734,-0.0219,0.6444,695.56,-1890.69,1423.16
4640,-3.8734,-0.0177,0.6097,1211.18,-1500.06,1282.47
4650,-3.8734,-0.0228,0.5933,1742.43,-1937.56,16.78
4660,-3.8735,-0.0477,0.6021,1086.18,-46.94,1797.97
4670,-3.8737,-0.0870,0.6201,1898.68,1078.00,-811.34
4680,-3.8737,-0.1260,0.6327,867.43,-609.56,376.16
4690,-3.8738,-0.1504,0.6313,-116.94,999.69,1813.72
4700,-3.8739,-0.1538,0.6057,758.06,827.82,-467.53
4710,-3.8741,-0.1179,0.4713,1383.06,1046.63,-342.83
4720,-3.8741,-0.1464,0.4860,914.31,343.51,1141.54
4730,-3.8743,-0.1774,0.5110,1273.68,-1781.56,-1108.46
4740,-3.8743,-0.1858,0.5312,1304.93,1421.51,188.48
4750,-3.8744,-0.1747,0.5269,226.81,15.26,-1373.96
4760,-3.8743,-0.1624,0.4973,1648.68,-547.24,329.10
4770,-3.8741,-0.1625,0.4685,-773.19,-328.49,-1639.71
4780,-3.8739,-0.1730,0.4669,-788.82,-15.99,-1139.77
4790,-3.8737,-0.1794,0.5071,1867.43,-219.12,-1405.40
4800,-3.8734,-0.1765,0.5668,1039.31,921.51,1563.48
4810,-3.8732,-0.1637,0.6025,1414.31,562.13,407.35
4820,-3.8730,-0.1345,0.5917,-945.07,1140.26,-858.22
4830,-3.8728,-0.0988,0.5469,-1210.69,-250.31,1376.10
4840,-3.8727,-0.0948,0.5061,-632.57,-1984.62,-1123.96
4850,-3.8724,-0.1467,0.4891,-132.57,796.63,1282.23
4860,-3.8721,-0.2380,0.4834,1226.81,-1375.31,125.92
4870,-3.8717,-0.3319,0.4618,1539.31,1890.14,-577.21
4880,-3.8712,-0.4056,0.3972,1523.68,-875.67,-796.02
4890,-3.8707,-0.4591,0.3083,86.18,-1141.42,-1249.27
4900,-3.8702,-0.4766,0.2205,1242.43,-516.54,-499.45
4910,-3.8696,-0.4561,0.1621,-991.94,233.40,1500.43
4920,-3.8691,-0.4326,0.1317,1633.06,764.71,969.06
4930,-3.8689,-0.4165,0.0919,633.06,874.15,-484.13
4940,-3.8687,-0.3906,0.0658,-1304.44,-219.60,1843.87
4950,-3.8685,-0.3446,0.0778,-1991.94,436.71,656.37
4960,-3.8687,-0.2961,0.1213,-101.32,1968.02,-578.00
4970,-3.8689,-0.2384,0.1902,-1898.19,-453.74,-124.82
4980,-3.8693,-0.1660,0.2395,1492.43,358.89,-1202.76
4990,-3.8696,-0.1002,0.2419,-1241.94,-1328.49,1391.05
5000,-3.8700,-0.0366,0.2462,-820.07,-1015.87,-1780.82
5010,-3.8704,0.0175,0.2693,-679.44,-468.87,-1405.82
5020,-3.8707,0.0375,0.2740,-1757.57,-1531.25,-1374.51
5030,-3.8710,0.0217,0.2388,804.93,-921.81,984.86
5040,-3.8712,-0.0100,0.1643,-1210.69,-1437.50,-452.70
5050,-3.8712,-0.0455,0.0671,-1273.19,1046.81,-702.82
5060,-3.8711,-0.0812,-0.0203,-1820.07,609.25,-609.25
5070,-3.8708,-0.1154,-0.0865,1617.43,1421.69,859.31
5080,-3.8707,-0.1460,-0.1431,1242.43,937.26,1452.94
5090,-3.8706,-0.1664,-0.1986,1320.56,1702.82,1468.44
5100,-3.8705,-0.1656,-0.2472,-1288.82,-1406.62,1280.82
5110,-3.8704,-0.1410,-0.2802,-1195.07,374.63,421.39
5120,-3.8704,-0.1096,-0.3010,1961.18,155.94,-1172.42
5130,-3.8704,-0.0750,-0.3180,1976.81,1484.13,-828.74
5140,-3.8704,-0.0417,-0.3456,-1585.69,-687.68,-1922.55
5150,-3.8704,-0.0295,-0.4137,-1335.69,-218.87,-391.36
5160,-3.8700,-0.0408,-0.5355,226.81,-937.56,999.15
5170,-3.8694,-0.0698,-0.6185,-1210.69,-531.37,936.40
5180,-3.8688,-0.1259,-0.5601,-929.44,843.57,983.15
5190,-3.8688,-0.2290,-0.4014,-101.32,327.82,-735.47
5200,-3.8693,-0.3536,-0.2332,-1304.44,640.14,1342.96
5210,-3.8700,-0.4545,-0.1256,-1257.57,-1828.86,796.39
5220,-3.8706,-0.4989,-0.1167,1836.18,-63.42,1296.57
5230,-3.8708,-0.4613,-0.1809,148.68,1077.15,62.26
5240,-3.8708,-0.3546,-0.2612,961.18,858.46,1234.01
5250,-3.8707,-0.2262,-0.3176,-1382.57,-1422.61,-1438.05
5260,-3.8706,-0.1178,-0.3386,-945.07,-641.11,1530.58
5270,-3.8706,-0.0378,-0.3273,929.93,671.63,499.33
5280,-3.8707,0.0138,-0.2870,-835.69,-1875.12,1905.58
5290,-3.8707,0.0287,-0.2125,1773.68,-734.38,296.26
5300,-3.8708,0.0051,-0.1176,-320.07,796.88,-1516.05
5310,-3.8710,-0.0485,-0.0430,664.31,953.12,1968.51
5320,-3.8711,-0.2327,-0.1910,1492.43,-16.05,1562.19
5330,-3.8710,-0.2551,-0.2817,-1773.19,-437.99,-1875.43
5340,-3.8708,-0.2648,-0.4034,-648.19,-47.42,-406.86
5350,-3.8706,-0.2576,-0.5110,-1882.57,374.45,1999.21
5360,-3.8705,-0.2448,-0.5500,-960.69,-1391.17,530.21
5370,-3.8707,-0.2269,-0.5133,679.93,1608.89,-938.60
5380,-3.8711,-0.2067,-0.4374,-1038.82,-1687.99,-1172.91
5390,-3.8716,-0.1958,-0.3622,1554.93,30.82,-1141.48
5400,-3.8721,-0.1981,-0.3110,-1054.44,1655.82,1702.39
5410,-3.8726,-0.2111,-0.2864,-1351.32,202.70,-1609.99
5420,-3.8729,-0.2347,-0.2753,992.43,-641.05,-375.61
5430,-3.8730,-0.2609,-0.2662,1961.18,780.76,1233.83
5440,-3.8732,-0.2721,-0.2490,-1382.57,1936.95,655.70
5450,-3.8734,-0.2603,-0.2126,1179.93,140.08,-1375.49
5460,-3.8737,-0.2228,-0.1620,-1304.44,796.33,1671.45
5470,-3.8740,-0.1677,-0.1116,-507.57,-719.24,-1172.24
5480,-3.8744,-0.1166,-0.0536,-1460.69,1734.01,-734.62
5490,-3.8748,-0.0826,0.0254,1086.18,1156.01,-62.62
5500,-3.8750,-0.0692,0.1154,1429.93,-734.56,-1984.38
5510,-3.8440,-0.0753,0.1943,-851.32,-1218.93,-1046.69
5520,-3.8440,-0.0902,0.2466,-1632.57,890.44,1281.62
5530,-3.8439,-0.0935,0.2990,461.18,-422.06,-1015.20
5540,-3.8746,-0.0590,0.3811,39.31,-1718.93,438.05
5550,-3.8740,0.0206,0.4585,461.18,796.75,594.48
5560,-3.8733,0.1243,0.4863,-1351.32,-1312.50,282.10
5570,-3.8727,0.2369,0.4584,-85.69,-1749.82,-405.33
5580,-3.8721,0.3599,0.3892,-1663.82,-1327.70,-217.90
5590,-3.8716,0.4891,0.2946,-1929.44,1813.17,-1546.14
5600,-3.8713,0.6179,0.0367,-1382.57,1704.04,797.42
5610,-3.8698,0.4867,-0.9036,-898.19,704.28,-1234.31
5620,-3.8656,-0.0524,-2.0015,-1695.07,344.67,420.10
5630,-3.8624,-0.5887,-1.9054,1304.93,-172.00,-1441.47
5640,-3.8627,-0.9196,-0.6859,648.68,123.84,230.65
5650,-3.8650,-1.2356,0.5736,-1695.07,216.92,1764.28
5660,-3.8667,-1.5370,1.1436,1851.81,1435.06,1141.72
5670,-3.8677,-1.5558,1.0217,-726.32,-1612.43,-794.68
5680,-3.8682,-1.2358,0.6144,867.43,-1206.18,1126.95
5690,-3.8684,-0.8844,0.2368,1820.56,-1346.19,360.53
5700,-3.8689,-0.7104,-0.0365,-1195.07,-1673.65,984.80
5710,-3.8698,-0.6918,-0.2498,1070.56,-657.65,-1750.12
5720,-3.8702,-0.7675,-0.4020,-538.82,45.47,-78.61
5730,-3.8702,-0.9326,-0.4227,1773.68,560.97,514.83
5740,-3.8707,-1.1949,-0.4143,633.06,1904.42,108.52
5750,-3.8713,-1.2670,-0.5242,-945.07,-1018.01,1749.15
5760,-3.8707,-1.1296,-0.6930,1836.18,919.37,-422.91
5770,-3.8702,-1.2255,-0.6769,-585.69,-689.76,-204.53
5780,-3.8706,-1.3778,-0.3906,-851.32,1372.56,654.91
5790,-3.8707,-1.3760,-0.0627,-351.32,-1987.12,-1188.29
5800,-3.8708,-1.3478,0.1429,-116.94,-18.37,15.44
5810,-3.8715,-1.3292,0.2019,-507.57,-1690.19,1953.37
5820,-3.8717,-1.3629,0.1183,1867.43,1856.75,1172.24
5830,-3.8717,-1.3986,-0.0286,1554.93,-846.44,-1593.57
5840,-3.8717,-1.4036,-0.1486,992.43,356.63,-1750.06
5850,-3.8718,-1.3934,-0.2406,351.81,997.25,1249.69
5860,-3.8719,-1.3608,-0.3379,1648.68,1216.00,671.39
5870,-3.8719,-1.2889,-0.4426,1820.56,762.94,1030.58
5880,-3.8718,-1.1925,-0.5204,-976.32,-643.19,-1657.17
5890,-3.8716,-1.0968,-0.5509,-632.57,1403.87,30.21
5900,-3.8716,-1.0179,-0.5571,-382.57,1497.80,467.65
5910,-3.8718,-0.9661,-0.5559,1711.18,701.11,-1110.47
5920,-3.8721,-0.9554,-0.5641,351.81,857.48,-1938.60
5930,-3.8724,-0.9823,-0.6177,1711.18,-189.39,-94.91
5940,-3.8727,-1.0103,-0.7219,-1726.32,951.17,-360.60
5950,-3.8728,-1.0013,-0.8359,-1304.44,-392.64,-329.59
5960,-3.8728,-0.9364,-0.9127,-163.82,1013.61,967.10
5970,-3.8729,-0.8286,-0.9283,148.68,-814.33,873.17
5980,-3.8730,-0.7227,-0.9158,1945.56,1185.85,779.42
5990,-3.8732,-0.6478,-0.9218,-491.94,-1204.59,576.29
6000,-3.8733,-0.5909,-0.9447,1086.18,-1970.03,607.54
6010,-3.8734,-0.5319,-0.9695,367.43,-907.41,-548.77
6020,-3.8734,-0.4692,-0.9761,-70.07,-79.22,-501.95
6030,-3.8734,-0.3936,-0.9384,-54.44,-922.85,810.55
6040,-3.8737,-0.2969,-0.8630,1633.06,-94.54,-251.89
6050,-3.8738,-0.1980,-0.8030,-1991.94,1546.26,-1001.71
6060,-3.8738,-0.1165,-0.8076,-1335.69,1233.95,373.41
6070,-3.8738,-0.0571,-0.8882,1101.81,640.38,1764.04
6080,-3.8737,-0.0099,-1.0126,695.56,-1672.00,-736.15
6090,-3.8734,0.0381,-1.1177,-1257.57,-1593.81,-705.14
6100,-3.8730,0.0990,-1.1595,883.06,937.56,310.30
6110,-3.8728,0.1765,-1.1458,679.93,-421.69,1435.18
6120,-3.8726,0.2633,-1.1021,-1398.19,1344.06,1419.62
6130,-3.8723,0.3625,-1.0433,1711.18,-1062.01,75.93
6140,-3.8722,0.4723,-0.9795,-1585.69,-1546.20,1794.80
6150,-3.8721,0.5767,-0.9143,461.18,-1374.08,-1173.83
6160,-3.8719,0.6722,-0.8400,1820.56,-1030.15,-564.33
6170,-3.8717,0.7983,-0.7375,-1945.07,485.66,1029.60
6180,-3.8713,1.0088,-0.6093,-1804.44,1595.28,-376.46
6190,-3.8705,1.3311,-0.4993,1133.06,-1982.42,-1891.85
6200,-3.8696,1.6995,-0.4373,-1616.94,96.31,295.90
6210,-3.8691,1.9526,-0.4127,1539.31,34.55,1155.40
6220,-3.8690,1.9952,-0.3854,1945.56,-824.34,-485.23
6230,-3.8691,1.8876,-0.3036,-601.32,-1324.28,-266.42
6240,-3.8694,1.7363,-0.1713,1617.43,1144.29,-1703.74
6250,-3.8696,1.5867,-0.0328,-1741.94,-1918.52,-1625.37
6260,-3.8696,1.4438,0.0916,-898.19,-200.07,-31.37
6270,-3.8693,1.3029,0.2015,820.56,-278.44,-578.00
6280,-3.8688,1.1080,0.2671,-1226.32,1799.38,1359.74
6290,-3.8684,0.8303,0.2611,1836.18,-1810.36,-1765.14
6300,-3.8679,0.5330,0.2054,-1710.69,1423.46,1172.36
6310,-3.8674,0.2644,0.1396,226.81,-1702.09,-890.26
6320,-3.8668,0.0137,0.0897,1851.81,1875.49,1422.12
6330,-3.8663,-0.2260,0.0365,1758.06,-515.62,-1140.50
6340,-3.8658,-0.4307,-0.0504,-913.82,687.01,-343.69
6350,-3.8654,-0.5883,-0.1453,883.06,1561.65,812.38
6360,-3.8654,-0.6929,-0.1969,711.18,1420.72,-1453.43
6370,-3.8658,-0.7363,-0.1857,-679.44,-1188.90,-187.93
6380,-3.8667,-0.7278,-0.1249,1758.06,248.54,-578.49
6390,-3.8677,-0.6898,-0.0659,-1148.19,29.79,1984.13
6400,-3.8687,-0.6527,-0.0775,-288.82,-423.28,-687.68
6410,-3.8694,-0.6427,-0.1653,461.18,-1907.53,-187.68
6420,-3.8699,-0.6562,-0.2566,1742.43,-1141.91,-31.62
6430,-3.8702,-0.6748,-0.2899,8.06,-829.41,-1438.05
6440,-3.8707,-0.6840,-0.2695,1633.06,-1095.09,421.26
6450,-3.8715,-0.6726,-0.2366,461.18,1514.28,468.20
6460,-3.8723,-0.6427,-0.2202,1914.31,1733.03,-1109.86
6470,-3.8730,-0.6093,-0.2234,1742.43,-173.16,-797.36
6480,-3.8737,-0.5913,-0.2522,-1976.32,-579.35,-719.24
6490,-3.8740,-0.5958,-0.3188,320.56,-266.78,1030.70
6500,-3.8743,-0.6003,-0.3867,-257.57,-798.10,296.20
6510,-3.8746,-0.5724,-0.3855,-835.69,-1485.60,-985.17
6520,-3.8750,-0.5031,-0.2994,-1257.57,-1329.28,186.71
6530,-3.8444,-0.4088,-0.1812,-382.57,1686.46,-1031.86
6540,-3.8448,-0.3156,-0.0955,-320.07,827.27,-125.37
6550,-3.8452,-0.2465,-0.0692,-382.57,-203.80,-343.99
6560,-3.8455,-0.2085,-0.0759,461.18,-844.24,281.07
6570,-3.8459,-0.1973,-0.0710,1320.56,-1703.55,-937.68
6580,-3.8464,-0.2113,-0.0358,-1241.94,-1078.55,-578.31
6590,-3.8469,-0.2435,0.0239,961.18,-562.93,-297.00
6600,-3.8473,-0.2797,0.0859,836.18,-922.36,-46.88
6610,-3.8474,-0.3032,0.1364,211.18,-984.92,-1078.00
6620,-3.8474,-0.3080,0.1848,1195.56,1468.14,-577.88
6630,-3.8473,-0.3080,0.2405,586.18,-328.74,1703.43
6640,-3.8473,-0.3184,0.2933,586.18,-1203.74,-796.45
6650,-3.8473,-0.3258,0.3282,-741.94,1561.83,-561.95
6660,-3.8473,-0.3073,0.3524,-1695.07,-1969.42,-796.26
6670,-3.8473,-0.2635,0.3695,679.93,1124.39,-280.58
6680,-3.8472,-0.2108,0.3582,-1726.32,-688.05,1969.42
6690,-3.8470,-0.1652,0.3207,1023.68,1858.95,1938.17
6700,-3.8469,-0.1592,0.2614,-1132.57,1062.13,-108.76
6710,-3.8466,-0.2131,0.1614,-366.94,1468.38,1797.36
6720,-3.8462,-0.2913,0.0391,726.81,671.45,-734.07
6730,-3.8457,-0.3356,-0.0753,-1273.19,1015.01,-1578.06
6740,-3.8452,-0.3329,-0.1906,1054.93,-1625.67,-593.93
6750,-3.8446,-0.3143,-0.3101,1398.68,-375.67,-484.80
6760,-3.8750,-0.2822,-0.4401,-226.32,327.45,-1766.24
6770,-3.8739,-0.2159,-0.6129,-116.94,-313.11,-1532.17
6780,-3.8724,-0.0972,-0.8494,367.43,1562.07,998.78
6790,-3.8706,0.0579,-1.1227,-429.44,-703.37,623.29
6800,-3.8685,0.1932,-1.3325,-585.69,296.94,919.68
6810,-3.8666,0.2648,-1.3604,742.43,1437.87,794.25
6820,-3.8652,0.2759,-1.1747,1898.68,1875.49,-487.06
6830,-3.8644,0.2485,-0.8661,-679.44,1641.11,1044.56
6840,-3.8640,0.1932,-0.5757,-179.44,1141.05,-517.33
6850,-3.8635,0.1228,-0.4070,742.43,-1687.13,-251.16
6860,-3.8628,0.0549,-0.3812,-273.19,-93.57,-766.48
6870,-3.8619,0.0228,-0.4409,-960.69,-796.81,-1360.17
6880,-3.8612,0.0681,-0.5112,-1070.07,-437.50,-704.04
6890,-3.8607,0.2113,-0.5629,726.81,-1437.38,-672.91
6900,-3.8605,0.4493,-0.5924,-945.07,-46.51,311.34
6910,-3.8607,0.7627,-0.5842,1523.68,172.73,-360.53
6920,-3.8612,1.1101,-0.5248,1633.06,1220.21,1514.47
6930,-3.8624,1.4487,-0.4286,-1898.19,830.26,842.71
6940,-3.8641,1.7446,-0.3398,1445.56,1143.43,436.65
6950,-3.8658,1.9570,-0.2935,-679.44,503.36,-219.42
6960,-3.8668,2.0078,-0.2863,-1491.94,-1558.72,-1906.86
6970,-3.8673,1.8560,-0.2745,1008.06,-636.72,-1281.86
6980,-3.8678,1.5938,-0.2159,1570.56,862.98,-172.42
6990,-3.8685,1.3262,-0.1150,8.06,362.49,1687.07
7000,-3.8694,1.0676,-0.0175,1758.06,1283.81,77.88
7010,-3.8701,0.8462,0.0334,664.31,1767.70,-78.19
7020,-3.8702,0.7194,0.0215,320.56,282.90,718.81
7030,-3.8702,0.6775,-0.0538,86.18,-1248.60,-531.25
7040,-3.8699,0.6799,-0.1655,-1273.19,1110.66,265.50
7050,-3.8696,0.7050,-0.2687,-960.69,-1186.22,-875.37
7060,-3.8694,0.7375,-0.3304,-1757.57,1610.72,-1781.80
7070,-3.8694,0.7736,-0.3254,-1585.69,1704.53,-1735.05
7080,-3.8696,0.8202,-0.2560,-976.32,-1654.79,-1078.80
7090,-3.8700,0.8903,-0.1683,992.43,-764.04,686.95
7100,-3.8705,0.9883,-0.1118,1961.18,-1545.17,249.63
7110,-3.8708,1.0875,-0.1316,-1491.94,1689.39,1484.13
7120,-3.8708,1.1588,-0.2245,-788.82,-841.67,843.44
7130,-3.8707,1.1879,-0.3033,336.18,-732.12,-1703.61
7140,-3.8706,1.1781,-0.2888,54.93,1174.19,-1719.36
7150,-3.8707,1.1470,-0.1875,-1195.07,-966.49,-203.74
7160,-3.8710,1.0909,-0.0522,-1179.44,2.20,1734.01
7170,-3.8715,0.9989,0.0717,-351.32,1314.58,-1515.75
7180,-3.8719,0.8748,0.1229,-132.57,1173.77,656.37
7190,-3.8724,0.7240,0.0629,-23.19,-263.98,1609.56
7200,-3.8727,0.5543,-0.0428,679.93,48.28,-1484.25
7210,-3.8728,0.3848,-0.0963,-1038.82,-1483.34,-1281.37
7220,-3.8730,0.2107,-0.0839,1258.06,-327.39,-687.74
7230,-3.8733,0.0018,-0.0499,-1023.19,1265.99,1343.57
7240,-3.8737,-0.2202,-0.0011,242.43,1609.38,-203.25
7250,-3.8739,-0.3627,0.0853,-179.44,-125.49,-1906.31
7260,-3.8743,-0.3639,0.1832,1586.18,-1063.23,-1109.25
7270,-3.8746,-0.2821,0.2191,1429.93,-531.98,-702.82
7280,-3.8749,-0.2247,0.1344,-101.32,61.89,1844.18
7290,-3.8439,-0.2361,-0.0399,-757.57,1218.26,-577.88
7300,-3.8440,-0.3044,-0.2136,1789.31,-1094.24,1203.00
7310,-3.8444,-0.4604,-0.3511,1039.31,671.26,-1625.43
7320,-3.8448,-0.8026,-0.4370,1070.56,-922.79,718.02
7330,-3.8456,-1.3173,-0.3951,1273.68,76.54,1124.15
7340,-3.8464,-1.7936,-0.1821,-601.32,1434.88,-0.79
7350,-3.8470,-2.0554,0.1110,-1570.07,699.58,-1281.62
7360,-3.8474,-2.0675,0.3700,914.31,-1785.28,-1734.19
7370,-3.8474,-1.9084,0.5040,-632.57,-629.09,1000.67
7380,-3.8472,-1.7201,0.4591,-273.19,527.47,375.98
7390,-3.8468,-1.5765,0.3115,-163.82,-1222.17,563.35
7400,-3.8464,-1.4551,0.1982,-1788.82,-112.49,359.92
7410,-3.8463,-1.3114,0.1864,1758.06,1387.76,-1327.76
7420,-3.8463,-1.1469,0.2440,148.68,-127.56,-812.19
7430,-3.8463,-0.9896,0.3223,1211.18,-752.26,1844.18
7440,-3.8463,-0.8550,0.4021,1336.18,1263.67,1344.36
7450,-3.8463,-0.7469,0.4777,-1429.44,-517.33,1172.61
7460,-3.8463,-0.6641,0.5413,398.68,1154.79,172.79
7470,-3.8464,-0.6001,0.5870,-991.94,1295.53,-1420.84
7480,-3.8464,-0.5438,0.6144,-804.44,-844.97,-1858.28
7490,-3.8463,-0.4940,0.6129,-1601.32,-1344.85,688.66
7500,-3.8462,-0.4578,0.5663,773.68,-1532.23,-1373.84
7510,-3.8458,-0.4392,0.4799,1414.31,499.08,235.47
7520,-3.8455,-0.4398,0.3807,-210.69,1436.58,438.42
7530,-3.8451,-0.4464,0.2910,-288.82,749.08,1203.86
7540,-3.8447,-0.4463,0.2166,-1132.57,1264.71,1906.80
7550,-3.8444,-0.4524,0.1619,-1116.94,-266.54,812.87
7560,-3.8442,-0.4670,0.1337,-1898.19,733.46,-187.19
7570,-3.8440,-0.4775,0.1212,226.81,1124.08,812.74
7580,-3.8439,-0.4963,0.1102,-1116.94,-469.73,-499.82
7590,-3.8749,-0.5468,0.0999,476.81,-1875.98,-827.94
7600,-3.8746,-0.6263,0.0802,-1976.32,795.78,-1562.32
7610,-3.8744,-0.6978,0.0416,-163.82,-1720.03,1828.25
7620,-3.8741,-0.7216,-0.0077,-1304.44,1342.35,500.06
7630,-3.8740,-0.6884,-0.0626,-351.32,-970.21,1953.06
7640,-3.8739,-0.6162,-0.1221,-101.32,-1.40,-203.31
7650,-3.8737,-0.5361,-0.1875,1133.06,389.40,-1000.24
7660,-3.8734,-0.4669,-0.2706,-616.94,14.53,-1515.99
7670,-3.8732,-0.4033,-0.3860,242.43,1374.08,-1375.55
7680,-3.8728,-0.3356,-0.5385,383.06,-1391.42,1608.58
7690,-3.8723,-0.2610,-0.7157,1054.93,-906.92,592.65
7700,-3.8718,-0.1879,-0.9128,-1398.19,405.70,1951.72
7710,-3.8713,-0.1091,-1.0931,-38.82,-828.55,1263.79
7720,-3.8711,-0.0253,-1.1569,-1960.69,93.51,779.11
7730,-3.8712,0.0393,-1.0488,773.68,-62.56,278.93
7740,-3.8717,0.0752,-0.8373,1039.31,1750.06,-861.45
7750,-3.8722,0.0779,-0.6571,1633.06,828.25,-298.52
7760,-3.8726,0.0670,-0.5955,1976.81,-109.25,670.53
7770,-3.8729,0.0615,-0.6716,586.18,-218.63,-1219.97
7780,-3.8729,0.0737,-0.8436,-116.94,-1968.69,-1470.09
7790,-3.8727,0.1071,-1.0214,1445.56,15.75,-1782.90
7800,-3.8723,0.1615,-1.1299,1711.18,1265.81,-1689.51
7810,-3.8718,0.2379,-1.1522,679.93,-624.69,857.12
7820,-3.8715,0.3204,-1.1206,-1538.82,516.05,1982.12
7830,-3.8712,0.4142,-1.0844,1023.68,563.11,1200.93
7840,-3.8712,0.5219,-1.0975,1023.68,1203.92,-377.14
7850,-3.8711,0.6195,-1.1903,-1195.07,-483.40,-752.20
7860,-3.8707,0.6932,-1.3240,-695.07,-358.22,216.37
7870,-3.8704,0.7463,-1.4207,742.43,-1467.41,1044.25
7880,-3.8700,0.7806,-1.4374,-460.69,-1842.35,-1971.56
7890,-3.8696,0.8082,-1.3800,-70.07,17.09,825.32
7900,-3.8694,0.8304,-1.2756,-538.82,-639.10,950.38
7910,-3.8693,0.8416,-1.1523,-1695.07,720.34,-1580.63
7920,-3.8691,0.8486,-1.0471,-273.19,501.59,1107.12
7930,-3.8691,0.8647,-0.9746,633.06,1970.40,-1158.33
7940,-3.8690,0.8949,-0.9355,-1304.44,-748.35,-1501.95
7950,-3.8688,0.9397,-0.9343,-1445.07,251.71,388.79
7960,-3.8687,0.9974,-0.9470,289.31,408.08,-1111.21
7970,-3.8684,1.0465,-0.9388,-320.07,-1216.86,998.11
7980,-3.8683,1.0662,-0.9008,1961.18,-169.86,1060.61
7990,-3.8683,1.0475,-0.8308,476.81,705.20,1779.48
8000,-3.8683,0.9940,-0.7126,-1913.82,1658.26,60.85
8010,-3.8684,0.9307,-0.5587,-757.57,783.14,1607.97
8020,-3.8685,0.8752,-0.4132,-866.94,486.15,-704.22
8030,-3.8685,0.8209,-0.3038,39.31,-888.92,1092.90
8040,-3.8687,0.7585,-0.2280,1086.18,1110.96,-1078.74
8050,-3.8687,0.6995,-0.1791,1101.81,-1186.04,968.26
8060,-3.8688,0.6617,-0.1702,1539.31,1079.47,-609.74
8070,-3.8688,0.6423,-0.2108,711.18,-1779.97,1937.13
8080,-3.8688,0.6152,-0.2832,-1773.19,1016.85,233.95
8090,-3.8689,0.5684,-0.3290,-1241.94,-248.84,1468.14
8100,-3.8690,0.5156,-0.3008,758.06,1891.72,577.45
8110,-3.8693,0.4648,-0.2062,-1991.94,1500.98,1358.76
8120,-3.8695,0.4381,-0.0753,-491.94,1610.23,1968.32
8130,-3.8696,0.4757,0.0492,86.18,-1639.77,1562.32
8140,-3.8696,0.5836,0.1260,898.68,-1702.21,-1562.44
8150,-3.8694,0.7343,0.1238,-1288.82,126.10,-1390.38
8160,-3.8689,0.8948,0.0271,1992.43,-154.85,1281.43
8170,-3.8684,1.0271,-0.1259,-1460.69,-529.54,1265.62
8180,-3.8680,1.1029,-0.2651,-523.19,-107.42,140.32
8190,-3.8680,1.1202,-0.3690,1179.93,-1935.36,1811.95
8200,-3.8683,1.0774,-0.4678,-601.32,767.76,1718.02
8210,-3.8688,0.9773,-0.5551,1914.31,127.08,-1422.79
8220,-3.8693,0.8372,-0.5988,1101.81,955.02,748.90
8230,-3.8699,0.6830,-0.6060,-835.69,-639.04,-438.72
8240,-3.8702,0.5493,-0.6085,-570.07,-1561.22,1608.15
8250,-3.8705,0.4507,-0.6344,-1679.44,-1889.59,1358.15
8260,-3.8706,0.3802,-0.6847,1695.56,-1202.27,1295.59
8270,-3.8707,0.3389,-0.7461,679.93,360.11,76.78
8280,-3.8711,0.3276,-0.8416,-616.94,500.61,-204.59
8290,-3.8713,0.3226,-1.0065,1945.56,281.86,-1876.65
8300,-3.8717,0.2864,-1.2209,1304.93,-827.51,-1189.51
8310,-3.8722,0.2015,-1.4102,664.31,-280.70,-143.07
8320,-3.8727,0.0643,-1.5391,1804.93,-499.63,1262.82
8330,-3.8733,-0.1302,-1.6467,242.43,-999.88,1840.70
8340,-3.8739,-0.3685,-1.7437,-663.82,1234.07,-65.73
8350,-3.8743,-0.6211,-1.7810,836.18,827.39,293.46
8360,-3.8748,-0.8651,-1.7380,508.06,45.65,-1440.98
8370,-3.8439,-1.0911,-1.6289,1273.68,1545.17,1855.96
8380,-3.8442,-1.2941,-1.4431,351.81,-486.51,-1253.23
8390,-3.8445,-1.4681,-1.1700,-1632.57,-705.69,1715.88
8400,-3.8447,-1.5989,-0.8401,86.18,-1752.87,872.68
8410,-3.8451,-1.6799,-0.5331,-648.19,481.20,-1064.15
8420,-3.8453,-1.7068,-0.2997,976.81,-222.05,623.90
8430,-3.8456,-1.6757,-0.1343,1539.31,1652.89,202.51
8440,-3.8457,-1.6107,-0.0247,1523.68,-1175.17,687.19
8450,-3.8457,-1.5143,0.0553,1836.18,856.20,-515.69
8460,-3.8453,-1.3931,0.1038,-1820.07,-909.24,93.81
8470,-3.8451,-1.2928,0.0977,1695.56,1294.13,-812.32
8480,-3.8447,-1.2319,0.0396,-1476.32,513.06,1797.06
8490,-3.8445,-1.1866,-0.0521,-1679.44,1075.68,-453.06
8500,-3.8442,-1.1295,-0.1494,117.43,1341.43,-593.87
8510,-3.8440,-1.0588,-0.2335,-570.07,888.37,109.07
8520,-3.8440,-0.9889,-0.3019,476.81,-1877.08,1765.14
8530,-3.8440,-0.9299,-0.3474,1429.93,1373.05,-1594.36
8540,-3.8439,-0.8837,-0.3683,976.81,-454.96,1374.27
8550,-3.8750,-0.8445,-0.3728,-1101.32,873.23,-313.23
8560,-3.8748,-0.8093,-0.3679,-85.69,295.17,-313.23
8570,-3.8745,-0.7738,-0.3553,414.31,920.29,-547.61
8580,-3.8743,-0.7253,-0.3353,961.18,-1470.28,1061.77
8590,-3.8743,-0.6456,-0.3081,-835.69,1092.29,-844.42
8600,-3.8743,-0.5292,-0.2834,1367.43,576.84,-828.74
8610,-3.8741,-0.3970,-0.2800,273.68,-266.66,624.39
8620,-3.8740,-0.2769,-0.3038,1195.56,171.08,-1828.67
8630,-3.8737,-0.1802,-0.3467,570.56,1124.45,593.14
8640,-3.8733,-0.0941,-0.3944,945.56,-359.74,-1953.86
8650,-3.8729,-0.0059,-0.4338,-38.82,1531.01,-360.17
8660,-3.8726,0.0819,-0.4514,-741.94,484.31,-469.60
8670,-3.8722,0.1465,-0.4396,-1507.57,-1781.13,-1797.79
8680,-3.8718,0.2015,-0.4054,-1241.94,-265.38,545.96
8690,-3.8716,0.2836,-0.3705,1804.93,109.74,-1797.67
8700,-3.8713,0.3824,-0.3302,304.93,578.67,-641.36
8710,-3.8710,0.4421,-0.2632,961.18,1735.11,-766.30
8720,-3.8704,0.4139,-0.1718,601.81,-1686.65,-1766.17
8730,-3.8695,0.3104,-0.0984,992.43,-1983.58,1515.26
8740,-3.8685,0.1819,-0.0665,-257.57,-593.20,843.51
8750,-3.8677,0.0818,-0.0441,-710.69,-515.32,1499.82
8760,-3.8671,0.0438,-0.0353,-1523.19,-1640.50,-78.25
8770,-3.8666,0.0791,-0.0751,1617.43,-515.56,1531.13
8780,-3.8665,0.1495,-0.1487,-1866.94,-1609.25,-1078.31
8790,-3.8663,0.2107,-0.2023,-851.32,968.99,-359.68
8800,-3.8660,0.2306,-0.2432,-1023.19,-1890.26,921.45
8810,-3.8656,0.1978,-0.3761,1523.68,875.43,405.76
8820,-3.8652,0.1689,-0.6617,1320.56,-140.26,467.96
8830,-3.8649,0.1680,-1.0513,1633.06,-702.82,-610.72
8840,-3.8644,0.1475,-1.4661,1508.06,1437.81,-470.83
8850,-3.8641,0.0599,-1.7726,-1116.94,343.99,-252.87
8860,-3.8644,-0.1127,-1.8241,-320.07,1109.44,-1722.23
8870,-3.8655,-0.3689,-1.5834,1586.18,-1468.99,-1034.85
8880,-3.8673,-0.6917,-1.1105,789.31,1343.02,793.76
8890,-3.8696,-1.0496,-0.4971,-523.19,1873.60,732.18
8900,-3.8718,-1.3776,0.1891,1664.31,388.55,780.27
8910,-3.8734,-1.6372,0.8833,-320.07,216.00,1578.49
8920,-3.8741,-1.8595,1.4340,-1554.44,1074.89,-1748.29
8930,-3.8741,-2.0439,1.7019,1992.43,-441.16,1252.75
8940,-3.8738,-2.1155,1.7194,-1616.94,1855.35,-1434.20
8950,-3.8730,-1.9862,1.6028,1226.81,89.60,-1996.64
8960,-3.8722,-1.6678,1.4160,1773.68,1167.97,221.86
8970,-3.8717,-1.2739,1.1902,-1476.32,1262.33,-216.00
8980,-3.8713,-0.9049,0.9750,945.56,356.87,-1388.31
8990,-3.8712,-0.6211,0.8110,179.93,810.73,-1154.36
9000,-3.8712,-0.4493,0.7120,508.06,-173.10,610.90
9010,-3.8715,-0.3638,0.6787,-1507.57,-844.67,673.22
9020,-3.8718,-0.3187,0.6929,1445.56,-1110.11,-779.97
9030,-3.8721,-0.2854,0.7112,-788.82,702.45,-623.66
9040,-3.8722,-0.2484,0.7030,-523.19,-953.74,-1123.66
9050,-3.8722,-0.1810,0.6780,211.18,1999.51,-123.66
9060,-3.8719,-0.0809,0.6288,836.18,-1203.49,-1389.34
9070,-3.8717,0.0222,0.5287,1648.68,499.82,-1217.53
9080,-3.8716,0.1128,0.3929,-1148.19,-328.12,-249.02
9090,-3.8716,0.1813,0.2657,-1554.44,-1702.94,-358.64
9100,-3.8717,0.2208,0.1765,-788.82,-1984.07,-1421.39
9110,-3.8719,0.2257,0.1328,273.68,-1405.82,-1405.94
9120,-3.8722,0.2039,0.1224,898.68,1000.43,1406.49
9130,-3.8724,0.1626,0.0840,-1898.19,-327.76,62.68
9140,-3.8727,0.1143,-0.0438,820.56,-1249.69,1468.87
9150,-3.8728,0.0828,-0.2360,-1366.94,-1609.19,-0.12
9160,-3.8727,0.0632,-0.4177,-1398.19,1797.00,-1359.86
9170,-3.8726,0.0560,-0.5258,101.81,-1468.63,1858.52
9180,-3.8726,0.0551,-0.5342,-820.07,703.19,1545.84
9190,-3.8728,0.0265,-0.4656,-945.07,-374.94,-579.22
9200,-3.8730,-0.0363,-0.3788,-601.32,406.25,233.46
9210,-3.8735,-0.1041,-0.3307,-632.57,-468.87,-1016.42
9220,-3.8739,-0.1599,-0.3403,-1320.07,1687.26,-1031.92
9230,-3.8741,-0.2122,-0.4062,-460.69,452.76,1608.70
9240,-3.8744,-0.2643,-0.5145,851.81,15.20,-1032.04
9250,-3.8745,-0.3241,-0.6174,-1820.07,-1844.30,-1829.16
9260,-3.8746,-0.4147,-0.6624,-1476.32,983.70,764.40
9270,-3.8749,-0.5254,-0.6174,-1070.07,-766.48,373.66
9280,-3.8440,-0.6246,-0.4873,758.06,983.34,1342.53
9290,-3.8444,-0.7211,-0.3163,54.93,1639.40,-1625.98
9300,-3.8446,-0.8512,-0.1471,-288.82,-470.21,-1063.17
9310,-3.8446,-1.0304,-0.0072,-945.07,1185.79,1827.82
9320,-3.8445,-1.2548,0.0909,117.43,-908.26,-421.94
9330,-3.8441,-1.5303,0.1433,-601.32,-346.25,-1218.63
9340,-3.8749,-1.8341,0.1582,133.06,-1643.62,1453.37
9350,-3.8745,-2.0970,0.1758,1242.43,262.02,-484.07
9360,-3.8741,-2.2759,0.2421,-413.82,-1488.53,1609.68
9370,-3.8740,-2.3715,0.3593,695.56,-1004.46,-640.20
9380,-3.8739,-2.4049,0.4940,461.18,1995.36,1219.42
9390,-3.8739,-2.4271,0.6195,179.93,-754.70,94.67
9400,-3.8740,-2.4923,0.7188,1336.18,-692.26,110.53
9410,-3.8743,-2.5875,0.8047,992.43,10.74,17.03
9420,-3.8746,-2.6671,0.8838,804.93,-989.44,1173.40
9430,-3.8750,-2.7223,0.9083,-1382.57,1135.38,-107.67
9440,-3.8439,-2.7444,0.8654,-445.07,275.88,-920.10
9450,-3.8750,-2.7172,0.7914,726.81,-1224.12,345.40
9460,-3.8749,-2.6569,0.6962,211.18,1307.19,-1014.10
9470,-3.8746,-2.5862,0.5864,-70.07,1119.75,-1639.28
9480,-3.8745,-2.5051,0.4860,976.81,-926.94,1985.47
9490,-3.8745,-2.4033,0.4070,-648.19,-1786.19,1766.54
9500,-3.8746,-2.2823,0.3361,383.06,104.68,-249.21
9510,-3.8746,-2.1509,0.2600,-132.57,-973.27,906.86
9520,-3.8748,-2.0112,0.1808,695.56,1292.66,-1452.64
9530,-3.8748,-1.8672,0.0962,-1429.44,-847.72,1844.06
9540,-3.8748,-1.7212,0.0195,1008.06,324.46,-1359.19
9550,-3.8746,-1.5736,-0.0361,-304.44,-1487.79,968.75
9560,-3.8746,-1.4386,-0.0908,-1413.82,-612.49,-203.25
9570,-3.8745,-1.3303,-0.1465,-132.57,387.76,515.44
9580,-3.8746,-1.2465,-0.1907,1726.81,1263.00,-1750.31
9590,-3.8748,-1.1711,-0.2318,461.18,-393.07,1843.32
9600,-3.8749,-1.0913,-0.2712,-1898.19,-1658.57,374.51
9610,-3.8439,-1.0063,-0.3119,320.56,1294.74,-859.92
9620,-3.8440,-0.9240,-0.3590,-804.44,91.74,-766.24
9630,-3.8440,-0.8486,-0.3988,1742.43,-1939.33,1155.52
9640,-3.8440,-0.7729,-0.4257,-616.94,967.04,155.46
9650,-3.8441,-0.6877,-0.4414,1070.56,1529.72,-813.35
9660,-3.8441,-0.5856,-0.4386,-23.19,-485.78,-1375.92
9670,-3.8441,-0.4574,-0.4221,1054.93,-126.16,-282.17
9680,-3.8440,-0.2928,-0.4070,1461.18,1983.46,-1188.35
9690,-3.8750,-0.0867,-0.3959,-1476.32,-78.74,921.02
9700,-3.8748,0.1500,-0.3995,914.31,1343.57,-1594.54
9710,-3.8745,0.3888,-0.4342,-788.82,859.62,-391.42
9720,-3.8743,0.6116,-0.4771,1773.68,422.61,358.52
9730,-3.8744,0.8091,-0.4865,-1710.69,-1061.34,-282.23
9740,-3.8745,0.9559,-0.4449,-429.44,1735.90,-1297.85
9750,-3.8748,1.0315,-0.3761,-1632.57,-951.29,-329.04
9760,-3.8749,1.0378,-0.3158,39.31,-138.61,-1360.17
9770,-3.8749,0.9984,-0.2693,851.81,-419.86,1108.70
9780,-3.8749,0.9420,-0.2263,-195.07,1533.14,1483.83
9790,-3.8749,0.8917,-0.1901,586.18,-966.92,-1172.36
9800,-3.8748,0.8727,-0.1643,-1851.32,-326.42,1968.32
9810,-3.8745,0.9044,-0.1577,-288.82,-1029.60,296.51
9820,-3.8743,0.9679,-0.2054,-226.32,-185.79,1280.88
9830,-3.8740,1.0227,-0.3282,-101.32,1704.96,-625.43
9840,-3.8737,1.0500,-0.4948,-1085.69,1986.33,1139.95
9850,-3.8734,1.0579,-0.6176,-1585.69,673.89,1030.27
