timestamp_ms,ax,ay,az,gx,gy,gz
0,-3.8651,-1.2262,0.5277,445.56,-1877.44,266.72
10,-3.8640,-1.1127,0.4500,-945.07,-439.94,1266.60
20,-3.8630,-0.9154,0.3568,1586.18,1607.18,1078.98
30,-3.8623,-0.6982,0.2505,-1163.82,1685.67,641.30
40,-3.8619,-0.5328,0.1652,-1366.94,76.72,1875.49
50,-3.8619,-0.4259,0.1580,-195.07,1155.15,687.81
60,-3.8625,-0.3490,0.2385,1492.43,233.52,-1937.19
70,-3.8635,-0.2891,0.3577,-663.82,-1453.86,1016.05
80,-3.8647,-0.2496,0.4506,-991.94,1796.26,891.30
90,-3.8660,-0.2438,0.4901,54.93,1687.01,375.85
100,-3.8672,-0.2904,0.4932,804.93,-1250.49,-1342.83
110,-3.8683,-0.4028,0.4821,-1163.82,-859.99,-61.58
120,-3.8693,-0.5638,0.4697,445.56,1717.96,-514.71
130,-3.8701,-0.7229,0.4548,-163.82,139.47,1344.67
140,-3.8710,-0.8344,0.3879,-523.19,-1767.09,-733.52
150,-3.8716,-0.8802,0.2317,1211.18,1670.23,-593.02
160,-3.8719,-0.8634,0.0229,-663.82,1670.10,-1546.45
170,-3.8722,-0.7894,-0.2288,1492.43,-1048.58,-703.12
180,-3.8722,-0.6947,-0.5125,-1038.82,-1267.21,-1203.61
190,-3.8721,-0.6177,-0.7115,-913.82,-1579.53,1858.34
200,-3.8721,-0.5613,-0.7384,945.56,936.28,1639.22
210,-3.8722,-0.5200,-0.6545,164.31,1498.90,92.29
220,-3.8726,-0.4784,-0.5802,1445.56,233.34,-735.66
230,-3.8728,-0.4242,-0.5682,-1226.32,1749.02,1826.97
240,-3.8732,-0.3409,-0.6038,1711.18,-719.60,-1266.78
250,-3.8735,-0.2280,-0.6796,367.43,-1266.30,920.65
260,-3.8740,-0.1157,-0.7965,-1179.44,1030.76,-1938.84
270,-3.8745,-0.0280,-0.9229,1195.56,-1937.74,-1173.46
280,-3.8750,0.0298,-1.0217,429.93,1890.56,576.29
290,-3.8445,0.0629,-1.0732,-179.44,1218.75,-298.89
300,-3.8450,0.0621,-1.0720,54.93,-1374.88,1654.11
310,-3.8452,0.0057,-1.0347,-38.82,-1218.69,107.24
320,-3.8452,-0.1046,-0.9904,742.43,-437.50,-1783.33
330,-3.8448,-0.2469,-0.9706,-1382.57,1249.76,-1986.33
340,-3.8444,-0.3871,-0.9757,398.68,-219.24,-1283.20
350,-3.8439,-0.4918,-0.9680,-1538.82,-875.79,-392.58
360,-3.8748,-0.5538,-0.9351,1054.93,108.40,1841.86
370,-3.8748,-0.5919,-0.8993,1117.43,327.03,545.04
380,-3.8750,-0.6239,-0.8624,242.43,905.09,1529.48
390,-3.8439,-0.6476,-0.7837,148.68,1623.78,-1532.96
400,-3.8439,-0.6478,-0.6221,1117.43,-298.16,-407.84
410,-3.8750,-0.6160,-0.3887,1086.18,389.34,576.90
420,-3.8750,-0.5604,-0.1327,1164.31,-1735.60,-1735.17
430,-3.8748,-0.5034,0.1051,273.68,-969.85,655.94
440,-3.8744,-0.4746,0.3024,-429.44,1467.71,-1312.32
450,-3.8737,-0.5029,0.4338,-741.94,-1282.23,891.17
460,-3.8728,-0.5254,0.5229,-366.94,-454.16,-1967.96
470,-3.8717,-0.5867,0.6313,758.06,-1047.91,1313.48
480,-3.8705,-0.7843,0.7749,914.31,826.97,1469.97
490,-3.8693,-1.0598,0.9438,-382.57,-798.46,-1123.54
500,-3.8680,-1.3573,1.1272,351.81,826.05,95.58
510,-3.8672,-1.6276,1.3182,-1726.32,294.19,1939.70
520,-3.8665,-1.8516,1.4646,-320.07,746.77,971.31
530,-3.8660,-2.0868,1.4138,-991.94,-519.29,-1419.07
540,-3.8656,-2.3619,1.0605,898.68,980.29,-91.00
550,-3.8652,-2.6345,0.5208,1679.93,-239.01,-1232.36
560,-3.8650,-2.8521,0.0247,-1210.69,-1333.31,1985.35
570,-3.8651,-2.9515,-0.3279,-1054.44,-833.74,-578.12
580,-3.8656,-2.8794,-0.5345,-1788.82,-1958.92,-1016.30
590,-3.8665,-2.6539,-0.5769,-554.44,-411.93,1795.78
600,-3.8676,-2.3668,-0.4978,304.93,-1833.31,45.72
610,-3.8689,-2.0897,-0.3915,1054.93,292.24,-1657.23
620,-3.8701,-1.8409,-0.2828,523.68,1902.16,1014.83
630,-3.8713,-1.6161,-0.1470,367.43,-191.10,-1375.61
640,-3.8724,-1.3998,0.0122,1148.68,1199.95,-1406.56
650,-3.8734,-1.2070,0.1764,836.18,1575.38,1421.88
660,-3.8743,-1.0988,0.3433,1508.06,-1408.63,594.06
670,-3.8750,-1.1155,0.4855,-632.57,-49.07,1281.86
680,-3.8442,-1.2155,0.5480,1226.81,-1845.95,391.54
690,-3.8446,-1.2958,0.5328,429.93,-1846.13,1469.79
700,-3.8448,-1.2761,0.4932,-1851.32,216.19,1422.91
710,-3.8451,-1.1594,0.4659,664.31,-861.88,938.42
720,-3.8453,-1.0166,0.4497,-398.19,-346.07,547.73
730,-3.8457,-0.8975,0.4342,1883.06,1576.11,-624.15
740,-3.8461,-0.7820,0.4237,1133.06,-408.02,-1077.33
750,-3.8464,-0.6404,0.4048,-85.69,-1751.59,1438.29
760,-3.8467,-0.4738,0.3427,-1960.69,-173.16,922.61
770,-3.8467,-0.2864,0.2153,-632.57,-125.98,1219.36
780,-3.8464,-0.0876,0.0326,-648.19,-422.49,890.99
790,-3.8461,0.0958,-0.1650,789.31,187.32,109.44
800,-3.8458,0.2118,-0.3081,273.68,-1124.82,-922.24
810,-3.8456,0.2491,-0.3491,-882.57,562.87,-656.86
820,-3.8455,0.2830,-0.3287,-101.32,-687.07,-1438.23
830,-3.8453,0.4147,-0.5427,226.81,1922.42,-688.17
840,-3.8749,0.5338,-0.9832,1086.18,-1467.96,-782.35
850,-3.8739,0.4045,-0.9474,336.18,-1842.71,-564.45
860,-3.8440,0.4097,-0.2944,-210.69,-1264.89,1638.73
870,-3.8452,0.6310,0.2222,445.56,-1686.71,1452.51
880,-3.8455,0.7208,0.1624,773.68,438.72,1984.80
890,-3.8447,0.7605,-0.2347,273.68,782.65,-702.82
900,-3.8439,0.9368,-0.5552,1351.81,1954.59,968.26
910,-3.8748,1.3846,-0.6824,-85.69,939.27,-766.72
920,-3.8740,2.0245,-0.7518,1242.43,658.94,-1766.97
930,-3.8728,2.6823,-0.7745,-851.32,-230.47,-1610.90
940,-3.8715,3.1256,-0.6105,-663.82,864.56,-48.40
950,-3.8708,3.1383,-0.2515,86.18,1865.48,1811.28
960,-3.8713,2.7456,0.1078,1711.18,-181.40,-516.17
970,-3.8718,2.1560,0.3170,-554.44,1802.19,640.81
980,-3.8719,1.5249,0.4386,-23.19,582.28,391.24
990,-3.8718,0.9890,0.6112,-804.44,143.55,-1092.90
1000,-3.8718,0.6852,0.8057,-1398.19,-1763.73,1688.66
1010,-3.8724,0.5231,0.8510,-288.82,-873.72,-1498.47
1020,-3.8730,0.3755,0.6746,-1038.82,922.85,-1451.48
1030,-3.8732,0.2699,0.4500,70.56,-1655.52,-1561.22
1040,-3.8733,0.2062,0.3760,-1445.07,1594.24,-155.40
1050,-3.8738,0.0566,0.3967,-1601.32,125.37,250.73
1060,-3.8744,-0.2310,0.3933,-741.94,-1218.69,-1249.27
1070,-3.8744,-0.5773,0.3884,-1554.44,-1641.11,-796.14
1080,-3.8741,-0.9380,0.4043,-1882.57,1733.22,-1921.14
1090,-3.8738,-1.2780,0.3746,-54.44,-236.27,719.48
1100,-3.8732,-1.5526,0.2965,429.93,-33.75,172.55
1110,-3.8724,-1.6957,0.2905,1273.68,1965.70,156.80
1120,-3.8718,-1.5610,0.3462,-1038.82,1199.77,234.92
1130,-3.8715,-1.1345,0.4659,195.56,325.07,-1139.95
1140,-3.8719,-0.6492,0.6282,-1210.69,-346.01,-811.65
1150,-3.8735,-0.0687,0.5333,914.31,420.59,1579.35
1160,-3.8744,0.7393,0.1891,-788.82,281.07,-1295.84
1170,-3.8739,1.5303,0.0637,-1366.94,204.53,-187.13
1180,-3.8737,2.2021,0.1010,-116.94,159.18,-1640.50
1190,-3.8737,2.7987,-0.0582,1883.06,926.15,1031.43
1200,-3.8732,3.2024,-0.2424,-1757.57,552.31,-343.87
1210,-3.8724,3.3556,-0.2349,1914.31,974.98,-1687.99
1220,-3.8722,3.2156,-0.1409,1523.68,1944.03,437.01
1230,-3.8723,2.7612,-0.0989,-398.19,1974.98,-312.81
1240,-3.8721,2.1536,-0.0787,1445.56,-650.88,-1547.12
1250,-3.8718,1.6049,0.0477,-335.69,1926.03,1999.82
1260,-3.8721,1.1832,0.2670,1429.93,-1887.51,-1374.94
1270,-3.8726,0.8793,0.3911,-538.82,-1825.87,641.11
1280,-3.8729,0.6923,0.3905,554.93,-1935.79,1047.61
1290,-3.8730,0.6021,0.3705,617.43,1985.72,1969.48
1300,-3.8730,0.5651,0.3651,1070.56,-576.97,1250.67
1310,-3.8732,0.5306,0.3292,336.18,-1264.53,-374.33
1320,-3.8733,0.4764,0.2422,-70.07,-1858.40,-1733.76
1330,-3.8734,0.4436,0.1536,992.43,-999.08,1234.80
1340,-3.8734,0.4950,0.1744,789.31,-342.90,-124.76
1350,-3.8733,0.5955,0.3202,-632.57,-1670.96,1687.81
1360,-3.8735,0.6406,0.4628,226.81,985.53,1984.99
1370,-3.8738,0.5742,0.4856,-1991.94,-764.40,828.98
1380,-3.8738,0.3765,0.3357,1508.06,-1842.65,-1686.58
1390,-3.8733,0.0521,0.0710,195.56,-1030.52,1297.49
1400,-3.8727,-0.3905,-0.1864,-1320.07,1093.81,1500.12
1410,-3.8722,-0.8693,-0.3269,-1976.32,155.46,1593.38
1420,-3.8719,-1.2461,-0.3519,742.43,-1829.83,1093.08
1430,-3.8721,-1.4585,-0.3455,508.06,-1033.69,-1203.86
1440,-3.8723,-1.5601,-0.3934,1320.56,-205.99,-531.98
1450,-3.8723,-1.5779,-0.5160,320.56,1653.20,483.58
1460,-3.8722,-1.4320,-0.6395,-1960.69,1965.64,702.09
1470,-3.8719,-1.1006,-0.7102,711.18,-1846.56,-1516.91
1480,-3.8716,-0.6947,-0.7072,-866.94,1107.18,-1063.90
1490,-3.8715,-0.3522,-0.5769,-913.82,1498.60,-642.03
1500,-3.8721,-0.0934,-0.2909,-1070.07,-1828.86,295.72
1510,-3.8734,0.1448,-0.0200,54.93,-1218.93,124.39
1520,-3.8743,0.3944,-0.0046,-1460.69,1437.74,-1750.06
1530,-3.8740,0.6401,-0.2026,-1507.57,-593.02,578.06
1540,-3.8737,0.8822,-0.3654,1945.56,-1936.28,-1906.68
1550,-3.8735,1.1573,-0.3591,929.93,1236.08,-547.61
1560,-3.8735,1.4828,-0.2103,148.68,-1966.49,718.02
1570,-3.8737,1.8800,0.0072,1804.93,1080.99,1390.20
1580,-3.8737,2.3872,0.2321,648.68,925.54,-515.62
1590,-3.8735,2.9410,0.4309,1570.56,1707.76,1641.05
1600,-3.8735,3.3667,0.5573,461.18,-838.01,-608.58
1610,-3.8732,3.4338,0.5436,-1054.44,-665.34,-1639.59
1620,-3.8727,3.0864,0.4426,-460.69,1584.78,-1811.46
1630,-3.8724,2.5385,0.3800,-929.44,662.23,813.35
1640,-3.8726,1.9453,0.3356,929.93,645.57,-796.14
1650,-3.8724,1.2981,0.2202,1008.06,-1043.09,703.74
1660,-3.8719,0.5990,0.0524,-1835.69,190.00,125.43
1670,-3.8715,0.0361,-0.0143,679.93,-1295.72,1875.06
1680,-3.8716,-0.1259,0.1213,633.06,-1828.06,-703.19
1690,-3.8723,0.0242,0.3247,-101.32,-453.43,-1859.19
1700,-3.8732,0.1042,0.3578,-898.19,1562.50,969.36
1710,-3.8737,-0.0061,0.1628,1351.81,1797.06,-233.70
1720,-3.8734,-0.2228,-0.0846,-773.19,859.31,1422.18
1730,-3.8733,-0.5737,-0.2357,-507.57,1187.01,1624.82
1740,-3.8738,-1.0989,-0.2874,-1429.44,1842.59,-47.36
1750,-3.8743,-1.7046,-0.3136,-648.19,-767.82,1452.51
1760,-3.8741,-2.1276,-0.3793,1820.56,-128.36,-63.17
1770,-3.8727,-2.1277,-0.4130,-320.07,-535.46,-844.54
1780,-3.8708,-1.7424,-0.2478,-335.69,-847.96,-1500.85
1790,-3.8704,-1.2113,0.1082,976.81,293.46,-547.36
1800,-3.8715,-0.6628,0.4113,961.18,1856.99,0.18
1810,-3.8733,-0.0936,0.4904,-835.69,654.91,-1686.71
1820,-3.8743,0.4810,0.3688,23.68,-1218.93,1657.17
1830,-3.8740,1.0809,0.1433,1570.56,-795.96,391.30
1840,-3.8732,1.6261,-0.0437,-1632.57,-1654.17,1015.87
1850,-3.8726,2.0430,-0.0533,148.68,-1590.58,-1968.87
1860,-3.8724,2.4897,0.1368,1508.06,1175.84,1359.25
1870,-3.8724,3.0038,0.3987,-1304.44,1520.45,1937.74
1880,-3.8721,3.3529,0.5634,492.43,-962.89,188.23
1890,-3.8717,3.2366,0.5680,1179.93,115.91,688.60
1900,-3.8718,2.6777,0.4343,-1710.69,709.41,-858.28
1910,-3.8719,2.0323,0.2576,-1241.94,-401.06,407.04
1920,-3.8718,1.4725,0.1847,148.68,972.72,-1921.39
1930,-3.8717,1.0402,0.2841,492.43,-356.51,1484.68
1940,-3.8722,0.7377,0.4500,1148.68,361.39,1297.42
1950,-3.8730,0.5054,0.4883,-1570.07,1595.15,-733.52
1960,-3.8735,0.3149,0.3331,695.56,-1499.02,-1077.21
1970,-3.8735,0.1522,0.1101,320.56,-1358.76,-280.64
1980,-3.8730,0.0026,-0.0331,-507.57,-1906.01,1140.81
1990,-3.8728,-0.1960,-0.0591,336.18,-234.38,1656.13
2000,-3.8732,-0.5439,-0.0560,-1085.69,452.70,-1453.25
2010,-3.8737,-1.0303,-0.1222,-1616.94,842.65,-1390.75
2020,-3.8738,-1.5322,-0.2191,133.06,372.99,1562.26
2030,-3.8737,-1.8730,-0.2468,-116.94,-34.30,1374.51
2040,-3.8732,-1.9055,-0.1720,258.06,418.21,1249.51
2050,-3.8723,-1.7103,-0.0546,101.81,1996.28,-1062.87
2060,-3.8715,-1.4215,0.0469,1086.18,1027.89,-1343.87
2070,-3.8712,-1.0006,0.1631,-1945.07,-1987.18,-937.44
2080,-3.8717,-0.4243,0.3210,-70.07,888.61,-1890.32
2090,-3.8729,0.1454,0.4596,1695.56,1108.52,1828.74
2100,-3.8743,0.6417,0.4557,-1382.57,-1171.63,-452.27
2110,-3.8745,1.1393,0.2596,-1851.32,-1670.65,1016.48
2120,-3.8738,1.6123,0.0251,1836.18,1236.57,-1296.39
2130,-3.8728,2.0612,-0.0409,-1616.94,-778.14,-78.12
2140,-3.8721,2.5042,0.1003,-163.82,-1230.41,796.75
2150,-3.8718,2.8828,0.3308,539.31,848.63,-1812.32
2160,-3.8718,3.1295,0.4850,1008.06,-1650.63,-249.39
2170,-3.8718,3.0327,0.4794,586.18,-1915.77,-1999.08
2180,-3.8719,2.5509,0.3304,195.56,1365.30,1954.04
2190,-3.8719,1.9764,0.1416,-1476.32,-1698.18,-1921.26
2200,-3.8716,1.4506,0.1010,992.43,-1871.15,1828.37
2210,-3.8713,0.9984,0.2587,1679.93,924.68,47.06
2220,-3.8719,0.6333,0.4537,-195.07,1111.27,-1640.14
2230,-3.8729,0.3335,0.4884,1070.56,-1920.65,-514.77
2240,-3.8734,0.1403,0.3118,-1304.44,-1483.76,500.92
2250,-3.8733,0.0627,0.0499,1961.18,-93.51,906.80
2260,-3.8729,0.0175,-0.1166,39.31,-1609.25,-328.06
2270,-3.8727,-0.1262,-0.1445,-1757.57,1078.12,-500.24
2280,-3.8727,-0.4541,-0.1290,-148.19,1515.32,-1984.68
2290,-3.8729,-0.9570,-0.1422,1883.06,-500.92,-1015.93
2300,-3.8730,-1.5288,-0.2166,1508.06,1810.61,-765.93
2310,-3.8728,-1.8890,-0.2455,320.56,293.88,-1187.93
2320,-3.8724,-1.8356,-0.0840,-1788.82,590.03,-406.74
2330,-3.8721,-1.5149,0.1351,1054.93,1262.02,359.19
2340,-3.8721,-1.0828,0.2300,-1898.19,1309.51,-1781.01
2350,-3.8722,-0.5028,0.2446,1414.31,1450.99,-530.82
2360,-3.8724,0.1272,0.2847,-351.32,-672.91,-468.32
2370,-3.8730,0.6464,0.3195,289.31,437.74,391.17
2380,-3.8737,1.0775,0.1960,-1257.57,891.85,125.61
2390,-3.8735,1.4943,-0.0104,1929.93,1095.83,-1124.63
2400,-3.8728,2.0181,-0.0469,-726.32,-1325.26,624.94
2410,-3.8723,2.6044,0.1348,-1679.44,-1996.09,-1234.50
2420,-3.8722,3.0836,0.3544,1367.43,1255.07,1234.62
2430,-3.8723,3.3286,0.4093,-1288.82,1365.36,1969.42
2440,-3.8722,3.1290,0.2841,-1929.44,397.09,-1858.58
2450,-3.8721,2.5923,0.0995,523.68,365.48,-1311.95
2460,-3.8719,1.9775,0.0088,-179.44,739.38,-343.57
2470,-3.8717,1.3586,0.1007,1133.06,1128.85,-1328.12
2480,-3.8718,0.8333,0.3051,1914.31,893.25,-796.69
2490,-3.8723,0.4756,0.4745,-1335.69,-951.54,1188.05
2500,-3.8729,0.2954,0.4823,883.06,735.29,579.04
2510,-3.8733,0.2607,0.3079,1820.56,1734.92,-1514.71
2520,-3.8732,0.2563,0.0686,1383.06,-593.26,1094.30
2530,-3.8729,0.1735,-0.0935,820.56,781.74,1968.87
2540,-3.8728,-0.0051,-0.1100,-1788.82,31.56,-1797.06
2550,-3.8730,-0.3008,-0.0482,-648.19,1937.44,-812.74
2560,-3.8733,-0.7346,-0.0458,1508.06,1843.14,1859.25
2570,-3.8733,-1.2742,-0.1481,1976.81,-1845.21,687.38
2580,-3.8730,-1.7274,-0.2576,914.31,1060.00,-1484.68
2590,-3.8726,-1.8402,-0.2042,-1101.32,-956.54,-1234.92
2600,-3.8722,-1.6810,0.0051,461.18,1871.40,-859.80
2610,-3.8721,-1.4423,0.1592,836.18,668.58,-265.62
2620,-3.8719,-1.0415,0.2119,-601.32,387.76,453.43
2630,-3.8721,-0.3988,0.2651,-1304.44,-861.45,453.49
2640,-3.8728,0.2521,0.3551,961.18,1952.33,-1077.64
2650,-3.8738,0.7195,0.3130,273.68,1453.61,-296.20
2660,-3.8739,1.0597,0.0363,101.81,63.90,-1015.01
2670,-3.8732,1.4667,-0.1448,-351.32,642.64,-1484.31
2680,-3.8726,2.1040,-0.0126,-257.57,1471.56,-1359.68
2690,-3.8724,2.8455,0.2316,1320.56,-1605.29,1249.94
2700,-3.8726,3.4905,0.3435,226.81,1646.18,-1171.45
2710,-3.8723,3.7256,0.2812,-1210.69,-24.48,-1218.14
2720,-3.8719,3.3135,0.1165,883.06,7.26,-1811.95
2730,-3.8717,2.5677,-0.0228,133.06,-1087.28,1078.31
2740,-3.8715,1.8218,0.0358,679.93,1083.13,1999.94
2750,-3.8715,1.1965,0.2799,1195.56,581.67,-1671.81
2760,-3.8721,0.7617,0.4803,1164.31,-169.56,1125.49
2770,-3.8730,0.4645,0.4395,1508.06,1485.84,-561.58
2780,-3.8734,0.3068,0.2012,-538.82,250.85,407.10
2790,-3.8733,0.3114,-0.0333,-726.32,1750.55,-1780.88
2800,-3.8729,0.3824,-0.1368,-132.57,-265.08,703.00
2810,-3.8729,0.3840,-0.1191,961.18,-1514.89,671.57
2820,-3.8733,0.2029,-0.0920,1164.31,750.73,-578.37
2830,-3.8735,-0.1030,-0.1127,1976.81,219.12,1452.94
2840,-3.8738,-0.4202,-0.1545,-1179.44,1593.51,-562.74
2850,-3.8735,-0.7343,-0.2219,-1773.19,233.52,1562.19
2860,-3.8729,-0.9757,-0.2638,-1976.32,-392.09,-844.24
2870,-3.8722,-1.0520,-0.1991,-882.57,-1751.95,749.45
2880,-3.8719,-0.9382,-0.0695,1351.81,-1470.83,-734.80
2890,-3.8718,-0.6818,0.0066,-85.69,-876.89,-1265.81
2900,-3.8718,-0.3557,-0.0068,742.43,858.03,-265.62
2910,-3.8718,-0.0184,-0.0475,-1523.19,-860.11,-1843.81
2920,-3.8721,0.2920,-0.0627,1648.68,1937.44,-1187.62
2930,-3.8724,0.5372,-0.0543,1383.06,-30.70,-265.81
2940,-3.8727,0.6949,-0.0353,773.68,1047.91,1171.75
2950,-3.8729,0.7966,-0.0079,961.18,-514.28,765.50
2960,-3.8732,0.8914,0.0188,1976.81,-1014.10,-578.19
2970,-3.8732,0.9996,0.0627,-1898.19,-1592.04,-1421.88
2980,-3.8732,1.1256,0.1650,-38.82,33.14,593.87
2990,-3.8734,1.2570,0.2966,86.18,1127.20,-546.57
3000,-3.8733,1.3602,0.3860,898.68,1971.19,609.92
3010,-3.8730,1.3932,0.4229,-1882.57,1408.87,-1233.64
3020,-3.8727,1.3337,0.4569,-1663.82,-1872.31,-1342.96
3030,-3.8724,1.2001,0.5430,-1273.19,-1513.06,313.35
3040,-3.8727,0.9915,0.6572,1617.43,1502.32,-467.71
3050,-3.8730,0.7192,0.7294,-1085.69,126.89,1501.28
3060,-3.8735,0.4399,0.7654,70.56,1360.78,1610.78
3070,-3.8739,0.2463,0.8298,320.56,1969.60,-1670.41
3080,-3.8740,0.1809,0.9225,-460.69,-1780.82,610.96
3090,-3.8741,0.1692,0.9811,-835.69,-1921.57,-138.85
3100,-3.8739,0.1189,0.9817,1664.31,1578.43,1595.64
3110,-3.8735,0.0665,0.9884,-773.19,1656.43,-1248.11
3120,-3.8732,0.0312,1.0127,523.68,-1484.25,220.64
3130,-3.8732,-0.0265,0.9799,8.06,1625.06,564.45
3140,-3.8734,-0.1019,0.9108,617.43,1437.44,-388.73
3150,-3.8735,-0.1932,0.8602,-1038.82,593.51,345.52
3160,-3.8739,-0.3019,0.8635,-726.32,-1875.43,1673.52
3170,-3.8745,-0.4338,0.9669,1367.43,-1453.74,-1482.73
3180,-3.8440,-0.5721,1.1334,476.81,-219.60,-998.17
3190,-3.8445,-0.7002,1.2869,-1226.32,1092.59,-1372.80
3200,-3.8446,-0.8259,1.4128,-1616.94,732.97,1065.00
3210,-3.8447,-0.9523,1.4753,-1710.69,857.73,-294.13
3220,-3.8446,-1.0582,1.3527,-1882.57,857.48,-356.51
3230,-3.8750,-1.1483,0.8501,554.93,1154.17,-13.00
3240,-3.8730,-1.2245,0.1768,1023.68,825.87,798.52
3250,-3.8717,-1.2500,-0.0419,-726.32,-1361.82,1031.56
3260,-3.8719,-1.2245,0.3573,8.06,-1346.19,62.38
3270,-3.8732,-1.1581,0.9589,-726.32,1747.56,1781.92
3280,-3.8743,-1.0511,1.3185,-226.32,-1252.32,-904.42
3290,-3.8748,-0.9635,1.3058,1461.18,779.17,393.19
3300,-3.8750,-0.8958,1.0510,679.93,-845.64,-1872.50
3310,-3.8749,-0.7875,0.7880,1351.81,-1454.90,-763.61
3320,-3.8748,-0.6582,0.7231,-788.82,873.41,907.78
3330,-3.8439,-0.5892,0.7994,-241.94,576.78,17.03
3340,-3.8445,-0.6079,0.8075,586.18,-1657.41,-920.35
3350,-3.8447,-0.6776,0.7198,-1804.44,-626.22,-670.35
3360,-3.8447,-0.7515,0.6857,1273.68,154.91,-1607.97
3370,-3.8447,-0.8173,0.7031,-179.44,-220.28,1438.78
3380,-3.8447,-0.8345,0.7706,-601.32,-1986.02,688.84
3390,-3.8450,-0.8015,0.9094,1195.56,-1345.40,704.59
3400,-3.8453,-0.7839,0.9669,1414.31,420.29,-998.23
3410,-3.8455,-0.7654,0.9734,-335.69,-220.34,845.58
3420,-3.8457,-0.7228,0.9341,-1960.69,607.85,-326.23
3430,-3.8455,-0.6642,0.7994,-507.57,-423.34,1783.02
3440,-3.8450,-0.6223,0.6648,-1007.57,-1657.59,-1185.97
3450,-3.8445,-0.6730,0.5973,351.81,1108.15,423.16
3460,-3.8445,-0.8447,0.6187,1867.43,467.41,-1842.59
3470,-3.8446,-1.0544,0.6285,-116.94,-798.58,782.41
3480,-3.8445,-1.2090,0.5503,1039.31,466.67,157.47
3490,-3.8441,-1.2775,0.4401,1258.06,-1549.26,1016.66
3500,-3.8750,-1.2535,0.3701,492.43,341.25,16.48
3510,-3.8750,-1.1709,0.3505,-445.07,-611.88,-671.20
3520,-3.8439,-1.0635,0.3270,-1866.94,872.68,1860.05
3530,-3.8441,-0.9403,0.2856,-116.94,1872.86,-1718.14
3540,-3.8442,-0.8127,0.2709,-351.32,576.23,469.30
3550,-3.8445,-0.6832,0.3131,-23.19,-1314.15,-1608.89
3560,-3.8446,-0.5667,0.3821,554.93,92.41,-1780.64
3570,-3.8446,-0.5028,0.4191,-523.19,920.72,-874.27
3580,-3.8445,-0.5044,0.4236,-351.32,1655.21,-108.58
3590,-3.8442,-0.5411,0.4413,-554.44,-1766.66,969.54
3600,-3.8442,-0.5800,0.4796,-1257.57,498.90,-1233.52
3610,-3.8442,-0.6073,0.4937,1773.68,1405.09,-608.46
3620,-3.8441,-0.6522,0.4966,-1726.32,-798.10,-45.96
3630,-3.8439,-0.7334,0.5651,523.68,-423.16,1422.79
3640,-3.8439,-0.8148,0.6941,-1866.94,342.29,1579.22
3650,-3.8441,-0.8502,0.8159,-288.82,857.73,1610.72
3660,-3.8446,-0.7976,0.8853,-820.07,451.42,657.84
3670,-3.8452,-0.6812,0.8632,1914.31,1326.54,-1607.67
3680,-3.8455,-0.6167,0.8208,820.56,-1501.34,-1045.23
3690,-3.8453,-0.6781,0.8842,1070.56,1076.90,314.09
3700,-3.8455,-0.7759,1.0304,1211.18,1186.16,-1013.92
3710,-3.8456,-0.7870,1.0903,695.56,-95.28,-982.42
3720,-3.8455,-0.7323,0.9849,-726.32,-423.46,1361.45
3730,-3.8452,-0.6547,0.8293,-1726.32,-1923.34,517.52
3740,-3.8451,-0.5800,0.7571,211.18,-1829.41,-1123.41
3750,-3.8448,-0.5697,0.7947,1773.68,920.72,563.96
3760,-3.8447,-0.6597,0.8425,-913.82,1733.22,392.15
3770,-3.8447,-0.7893,0.8369,-429.44,-141.97,1720.34
3780,-3.8447,-0.8323,0.8159,-1023.19,-860.96,1189.09
3790,-3.8448,-0.7084,0.7905,1476.81,451.48,1298.46
3800,-3.8450,-0.5330,0.7463,1336.18,1201.72,-435.97
3810,-3.8447,-0.5007,0.7111,-210.69,-454.22,1626.40
3820,-3.8445,-0.6189,0.7012,-85.69,-969.79,891.97
3830,-3.8444,-0.7583,0.6897,789.31,1764.40,141.97
3840,-3.8444,-0.8444,0.6558,-1054.44,295.35,-342.41
3850,-3.8440,-0.9110,0.6290,-70.07,-48.58,938.72
3860,-3.8750,-0.9604,0.6263,-601.32,529.42,-311.28
3870,-3.8749,-0.9536,0.6188,1070.56,185.61,-483.15
3880,-3.8749,-0.8978,0.6025,1945.56,-783.14,219.91
3890,-3.8750,-0.8346,0.5876,1086.18,1138.85,579.28
3900,-3.8439,-0.7891,0.5726,1179.93,-767.27,-795.78
3910,-3.8439,-0.7700,0.5526,-991.94,1310.91,391.72
3920,-3.8440,-0.7828,0.5210,1445.56,-1251.53,32.29
3930,-3.8441,-0.8171,0.5007,-195.07,-1298.46,1969.73
3940,-3.8442,-0.8458,0.5149,-585.69,107.73,-811.52
3950,-3.8445,-0.8450,0.5386,-257.57,1920.17,-405.27
3960,-3.8446,-0.8180,0.5364,-148.19,951.42,235.41
3970,-3.8447,-0.7881,0.5145,-695.07,670.23,1876.04
3980,-3.8447,-0.7686,0.5092,-866.94,1873.41,-1295.90
3990,-3.8446,-0.7626,0.5317,1633.06,1185.97,907.23
4000,-3.8445,-0.7740,0.5544,-1601.32,76.60,735.41
4010,-3.8444,-0.8003,0.5479,929.93,-1017.15,704.16
4020,-3.8442,-0.8219,0.5317,1570.56,-1860.96,63.54
4030,-3.8442,-0.8179,0.5510,-1195.07,76.48,-545.84
4040,-3.8441,-0.7765,0.6154,-679.44,-1454.77,-1467.71
4050,-3.8440,-0.6953,0.6750,617.43,-1220.28,1673.03
4060,-3.8439,-0.6022,0.6884,-991.94,-1579.53,-108.09
4070,-3.8748,-0.5433,0.6821,-1070.07,123.78,1829.47
4080,-3.8745,-0.5533,0.6849,-1538.82,-672.97,1470.03
4090,-3.8745,-0.6364,0.6747,1179.93,-313.60,1657.53
4100,-3.8746,-0.7510,0.6306,-1445.07,-1626.28,95.03
4110,-3.8440,-0.8779,0.5851,-1413.82,-329.90,32.29
4120,-3.8442,-0.8729,0.5962,-366.94,-1095.52,-358.28
4130,-3.8441,-0.8916,0.5781,273.68,326.42,126.16
4140,-3.8440,-0.9482,0.5339,1883.06,-1986.15,1516.72
4150,-3.8750,-0.9644,0.4854,-1366.94,357.48,110.41
4160,-3.8750,-0.8740,0.4661,570.56,-1861.27,-1780.33
4170,-3.8439,-0.7832,0.4969,133.06,-329.83,297.73
4180,-3.8442,-0.8003,0.5178,-241.94,-376.59,1922.79
4190,-3.8444,-0.8784,0.4905,1570.56,-1704.71,407.23
4200,-3.8444,-0.9136,0.4764,-429.44,-1204.90,-1092.83
4210,-3.8442,-0.8805,0.5083,-929.44,998.17,-1467.83
4220,-3.8442,-0.8027,0.5453,-695.07,1076.35,1532.23
4230,-3.8444,-0.7189,0.5481,1258.06,1810.91,626.04
4240,-3.8445,-0.6798,0.5231,-7.57,-1829.59,1282.29
4250,-3.8445,-0.6978,0.5006,992.43,-1032.59,1329.10
4260,-3.8445,-0.7415,0.4896,-1304.44,92.35,204.10
4270,-3.8446,-0.7969,0.4711,1101.81,-1313.96,1235.29
4280,-3.8446,-0.8534,0.4430,-1991.94,310.91,235.29
4290,-3.8446,-0.8944,0.4227,-1226.32,717.04,1922.73
4300,-3.8445,-0.9116,0.4341,1523.68,-1876.77,438.29
4310,-3.8445,-0.8970,0.4818,-679.44,-423.71,610.17
4320,-3.8446,-0.8695,0.5142,1195.56,1685.73,1500.92
4330,-3.8446,-0.8617,0.5011,711.18,1826.42,469.73
4340,-3.8445,-0.8855,0.4741,1711.18,154.54,922.85
4350,-3.8444,-0.9226,0.4550,-1335.69,701.35,-1249.08
4360,-3.8442,-0.9524,0.4447,1914.31,-1751.83,1422.73
4370,-3.8442,-0.9640,0.4427,-1898.19,935.61,1157.10
4380,-3.8444,-0.9451,0.4413,617.43,685.61,-92.90
4390,-3.8444,-0.8959,0.4467,-960.69,498.11,-1296.02
4400,-3.8444,-0.8342,0.4760,1336.18,1185.73,1735.23
4410,-3.8444,-0.7678,0.5112,1226.81,935.85,938.42
4420,-3.8444,-0.7031,0.5200,1726.81,1451.60,-1702.15
4430,-3.8441,-0.6719,0.4977,-1991.94,-1423.28,157.23
4440,-3.8439,-0.6967,0.4579,-1991.94,-282.59,1922.79
4450,-3.8749,-0.7548,0.4242,-1163.82,-1376.40,-92.90
4460,-3.8746,-0.8099,0.4110,-601.32,-1689.03,-467.96
4470,-3.8745,-0.8292,0.4137,336.18,623.41,-171.08
4480,-3.8745,-0.8018,0.4109,1867.43,967.10,-577.33
4490,-3.8745,-0.7604,0.3754,1383.06,607.79,891.42
4500,-3.8745,-0.7300,0.3022,-1320.07,60.97,641.36
4510,-3.8744,-0.7058,0.2046,-1429.44,-1298.34,781.80
4520,-3.8741,-0.6664,0.1193,1664.31,-1798.28,1437.87
4530,-3.8739,-0.6063,0.0980,-1288.82,-720.09,-796.69
4540,-3.8737,-0.5602,0.1455,-1601.32,561.28,-1968.57
4550,-3.8735,-0.5500,0.2164,304.93,-1360.47,1093.99
4560,-3.8735,-0.5564,0.2739,1601.81,-282.35,1344.12
4570,-3.8735,-0.5559,0.2994,789.31,-922.97,266.11
4580,-3.8737,-0.5413,0.2827,851.81,-1657.35,-624.45
4590,-3.8735,-0.5051,0.2279,-1273.19,202.03,125.55
4600,-3.8735,-0.4369,0.1541,-648.19,1186.46,-1062.07
4610,-3.8734,-0.3459,0.0908,86.18,-266.48,-812.26
4620,-3.8733,-0.2527,0.0635,-273.19,-360.11,-437.38
4630,-3.8732,-0.1719,0.0720,-335.69,140.08,1468.87
4640,-3.8733,-0.1122,0.0936,-1991.94,1234.01,-906.13
4650,-3.8735,-0.0667,0.1133,1648.68,-0.24,-171.75
4660,-3.8739,-0.0352,0.1268,-523.19,-1484.56,-796.69
4670,-3.8744,-0.0240,0.1134,-491.94,249.88,-452.88
4680,-3.8748,-0.0348,0.0708,929.93,-1468.81,343.93
4690,-3.8440,-0.0657,0.0406,-445.07,1078.00,1828.25
4700,-3.8445,-0.1135,0.0547,-398.19,1218.57,-187.44
4710,-3.8447,-0.1923,0.0858,1476.81,-984.62,1359.44
4720,-3.8448,-0.3134,0.0793,-601.32,-1000.43,-1812.38
4730,-3.8447,-0.4427,0.0403,-101.32,-1828.80,-1156.13
4740,-3.8445,-0.5358,0.0348,-663.82,1170.96,-1578.06
4750,-3.8442,-0.5797,0.0985,-570.07,467.65,218.81
4760,-3.8441,-0.5797,0.1956,1804.93,623.84,531.43
4770,-3.8440,-0.5488,0.2611,1804.93,1045.72,1531.62
4780,-3.8750,-0.5037,0.2378,1758.06,1436.40,-655.76
4790,-3.8744,-0.4718,0.1010,-460.69,-1547.91,-999.57
4800,-3.8735,-0.4672,-0.0870,-382.57,936.52,-1077.94
4810,-3.8727,-0.4756,-0.2262,211.18,874.08,-1453.31
4820,-3.8719,-0.4880,-0.2948,-866.94,-938.48,-1844.24
4830,-3.8712,-0.5217,-0.3313,1539.31,-1719.73,936.89
4840,-3.8705,-0.6136,-0.3684,1226.81,1608.34,968.08
4850,-3.8699,-0.7775,-0.4106,1461.18,858.15,-875.73
4860,-3.8694,-0.9768,-0.4531,492.43,-548.40,-766.48
4870,-3.8690,-1.1597,-0.4973,-1023.19,-1986.33,311.58
4880,-3.8689,-1.2860,-0.5360,-429.44,357.06,233.40
4890,-3.8689,-1.3237,-0.5569,-601.32,-596.31,795.78
4900,-3.8690,-1.2556,-0.5688,-1429.44,731.75,-1172.97
4910,-3.8690,-1.1008,-0.6002,-710.69,-799.38,1061.34
4920,-3.8690,-0.9197,-0.6681,-898.19,-814.70,-1751.22
4930,-3.8688,-0.7758,-0.7598,-1710.69,-1501.83,389.28
4940,-3.8685,-0.6825,-0.8256,711.18,-1235.90,-1314.03
4950,-3.8683,-0.6213,-0.8175,648.68,-1657.59,-173.52
4960,-3.8682,-0.5942,-0.7488,476.81,-626.22,-1095.40
4970,-3.8683,-0.6019,-0.6764,-54.44,170.65,-1704.59
4980,-3.8687,-0.6245,-0.6327,-1038.82,1436.28,-1751.34
4990,-3.8691,-0.6516,-0.6064,70.56,-969.97,576.84
5000,-3.8698,-0.7000,-0.5951,601.81,-1610.66,186.28
5010,-3.8702,-0.9725,-0.9812,-1585.69,-157.65,14.40
5020,-3.8687,-1.1986,-1.4342,-476.32,-1580.08,1794.92
5030,-3.8678,-0.9252,-0.8276,-1413.82,435.12,-1955.93
5040,-3.8696,-0.5229,0.2803,1586.18,-1923.71,248.35
5050,-3.8712,-0.4496,0.6102,1070.56,-110.41,406.74
5060,-3.8722,-0.5747,0.2599,-1538.82,-1875.92,1641.78
5070,-3.8724,-0.5925,-0.1034,-1554.44,1280.09,656.74
5080,-3.8723,-0.5061,-0.2706,164.31,-1219.91,859.13
5090,-3.8721,-0.4130,-0.3669,-773.19,1373.96,1655.70
5100,-3.8717,-0.3151,-0.4259,-851.32,1046.02,218.02
5110,-3.8716,-0.2198,-0.4235,-320.07,1499.33,686.65
5120,-3.8718,-0.1418,-0.4326,-132.57,1812.01,1217.90
5130,-3.8722,-0.0920,-0.5388,1851.81,640.32,-610.23
5140,-3.8722,-0.0802,-0.7393,226.81,-953.31,-235.47
5150,-3.8718,-0.0854,-0.9880,1742.43,1390.44,-876.46
5160,-3.8715,-0.1238,-1.2119,1070.56,1546.69,-533.20
5170,-3.8712,-0.2223,-1.4260,164.31,890.38,1513.24
5180,-3.8710,-0.3170,-1.5835,-445.07,1483.89,1372.19
5190,-3.8706,-0.3466,-1.4672,-570.07,1327.45,-487.49
5200,-3.8706,-0.3459,-1.0482,-351.32,218.02,434.63
5210,-3.8718,-0.3368,-0.5115,-273.19,1843.02,1560.42
5220,-3.8734,-0.3206,-0.0608,898.68,-1453.80,1655.21
5230,-3.8743,-0.3026,0.1893,-1023.19,233.70,1265.50
5240,-3.8743,-0.2557,0.2800,1273.68,249.39,234.74
5250,-3.8739,-0.2662,0.1554,-726.32,-141.17,-812.01
5260,-3.8727,-0.3848,-0.2063,1929.93,-94.30,1390.87
5270,-3.8713,-0.4590,-0.4380,-1241.94,1608.58,1937.07
5280,-3.8708,-0.4373,-0.3789,1258.06,-47.79,1514.71
5290,-3.8711,-0.4083,-0.2717,39.31,-485.23,-813.29
5300,-3.8712,-0.4093,-0.2349,-257.57,1233.52,1671.33
5310,-3.8713,-0.4712,-0.2330,-382.57,1952.27,-1484.86
5320,-3.8716,-0.5840,-0.2268,-304.44,-1813.48,-437.99
5330,-3.8718,-0.6763,-0.2292,1258.06,-1016.78,1858.89
5340,-3.8719,-0.7189,-0.2490,1445.56,-1329.47,-1281.74
5350,-3.8718,-0.7200,-0.2552,-7.57,139.16,-1187.99
5360,-3.8716,-0.6790,-0.2517,-148.19,-657.71,155.70
5370,-3.8716,-0.5946,-0.2352,1101.81,-204.47,-344.30
5380,-3.8716,-0.5109,-0.2300,-101.32,1905.03,1671.39
5390,-3.8717,-0.4470,-0.2612,-1382.57,-1422.91,-1219.24
5400,-3.8716,-0.4050,-0.3021,-1210.69,-1422.79,686.95
5410,-3.8715,-0.3910,-0.3389,164.31,1342.96,374.39
5420,-3.8715,-0.3925,-0.3807,1961.18,639.83,-594.42
5430,-3.8712,-0.4235,-0.4449,1773.68,-719.54,1046.08
5440,-3.8710,-0.4789,-0.5040,1804.93,-938.35,1264.71
5450,-3.8708,-0.5254,-0.5138,-1288.82,-500.98,1389.59
5460,-3.8710,-0.5450,-0.4661,758.06,-1751.04,1920.84
5470,-3.8712,-0.5326,-0.3842,-1757.57,358.28,1264.71
5480,-3.8716,-0.4984,-0.2924,-163.82,-1157.35,-250.79
5490,-3.8718,-0.4651,-0.2104,211.18,-1407.23,-1094.36
5500,-3.8721,-0.4333,-0.1539,476.81,1077.21,-1078.55
5510,-3.8722,-0.3934,-0.1285,539.31,311.65,1077.82
5520,-3.8723,-0.3567,-0.1321,1648.68,-438.29,1577.82
5530,-3.8724,-0.3439,-0.1598,-1648.19,-891.36,-47.18
5540,-3.8723,-0.3682,-0.2051,-7.57,-438.23,1234.01
5550,-3.8722,-0.4204,-0.2594,883.06,1764.89,1140.20
5560,-3.8721,-0.4584,-0.3121,-1804.44,-1188.35,936.95
5570,-3.8721,-0.4489,-0.3595,1336.18,61.58,-1297.49
5580,-3.8721,-0.4078,-0.3979,-1445.07,1999.08,-1781.98
5590,-3.8722,-0.3693,-0.4170,-195.07,1077.27,-63.29
5600,-3.8722,-0.3394,-0.4138,742.43,-1360.11,233.52
5610,-3.8723,-0.3064,-0.3923,570.56,-953.80,139.77
5620,-3.8724,-0.2716,-0.3676,789.31,1796.26,733.58
5630,-3.8726,-0.2520,-0.3702,1242.43,968.20,-1641.36
5640,-3.8726,-0.2476,-0.4122,-241.94,624.45,-1094.48
5650,-3.8723,-0.2385,-0.4810,320.56,-750.49,139.77
5660,-3.8721,-0.2122,-0.5680,1476.81,-1547.36,795.90
5670,-3.8718,-0.1761,-0.6575,851.81,-687.93,-1360.53
5680,-3.8715,-0.1761,-0.7455,1461.18,-140.99,686.16
5690,-3.8711,-0.2456,-0.8315,1461.18,593.38,-1688.96
5700,-3.8707,-0.2943,-0.7878,570.56,1577.64,1623.35
5710,-3.8710,-0.2400,-0.5852,-1663.82,-828.74,-1173.46
5720,-3.8716,-0.1538,-0.4299,1289.31,1108.89,-860.53
5730,-3.8719,-0.1357,-0.4116,320.56,984.07,-922.73
5740,-3.8718,-0.2000,-0.4462,-1366.94,-672.18,-1922.73
5750,-3.8716,-0.2748,-0.4648,-1585.69,-1094.18,-610.29
5760,-3.8715,-0.2994,-0.4601,836.18,515.08,-16.54
5770,-3.8715,-0.2767,-0.4482,1679.93,1124.39,-1391.54
5780,-3.8715,-0.2360,-0.4474,586.18,-1359.92,202.21
5790,-3.8715,-0.2018,-0.4624,1804.93,-1250.49,295.96
5800,-3.8715,-0.1885,-0.4718,-1820.07,827.70,-1032.17
5810,-3.8713,-0.1975,-0.4495,-116.94,-375.43,-1735.35
5820,-3.8712,-0.2129,-0.4015,-1273.19,-1516.05,389.71
5830,-3.8712,-0.2207,-0.3669,758.06,624.57,874.21
5840,-3.8712,-0.2281,-0.3912,-241.94,1046.39,1655.52
5850,-3.8711,-0.2406,-0.4734,-1195.07,1937.01,-1000.79
5860,-3.8707,-0.2491,-0.5458,1211.18,-578.61,1717.77
5870,-3.8705,-0.2441,-0.5505,117.43,-1844.24,-79.22
5880,-3.8704,-0.2113,-0.4957,758.06,1546.39,-1079.22
5890,-3.8705,-0.1487,-0.4220,961.18,562.07,1358.40
5900,-3.8708,-0.0730,-0.3599,976.81,1999.69,-750.85
5910,-3.8711,-0.0052,-0.3246,-1335.69,1952.94,749.27
5920,-3.8715,0.0424,-0.3314,-663.82,-1531.31,-0.67
5930,-3.8716,0.0664,-0.3802,1429.93,1578.19,-1531.92
5940,-3.8716,0.0646,-0.4502,508.06,-671.75,1936.71
5950,-3.8715,0.0421,-0.5021,273.68,-1624.88,1420.96
5960,-3.8713,0.0157,-0.5017,1398.68,-265.56,452.09
5970,-3.8713,0.0048,-0.4591,-1976.32,-218.75,842.71
5980,-3.8715,0.0197,-0.4109,617.43,1234.38,-313.42
5990,-3.8715,0.0618,-0.3820,-1476.32,-593.75,-1938.35
6000,-3.8715,0.1188,-0.3752,-85.69,-890.56,671.08
6010,-3.8716,0.1700,-0.3792,-788.82,-31.07,-78.92
6020,-3.8716,0.2073,-0.3702,1773.68,-530.94,-1047.67
6030,-3.8716,0.2327,-0.3400,-1460.69,609.74,1077.39
6040,-3.8717,0.2479,-0.3108,1789.31,484.80,-1172.55
6050,-3.8717,0.2546,-0.3102,-257.57,219.18,1296.26
6060,-3.8717,0.2542,-0.3416,601.81,297.36,1530.64
6070,-3.8717,0.2343,-0.3881,539.31,281.74,-1297.55
6080,-3.8717,0.1841,-0.4287,1992.43,-1671.45,-875.79
6090,-3.8717,0.1165,-0.4437,-429.44,1125.31,1905.40
6100,-3.8718,0.0511,-0.4285,-1085.69,-796.69,-1860.29
6110,-3.8721,-0.0118,-0.3939,-1445.07,1156.31,-657.10
6120,-3.8723,-0.1034,-0.3621,-1507.57,1593.69,1921.08
6130,-3.8726,-0.2444,-0.3440,-1226.32,1671.63,546.14
6140,-3.8728,-0.4189,-0.3282,726.81,-16.11,-1891.36
6150,-3.8729,-0.6366,-0.3663,-1616.94,1999.15,-1047.55
6160,-3.8723,-1.0879,-0.7831,-1476.32,1123.72,-594.48
6170,-3.8700,-1.6003,-1.2831,758.06,-220.89,-17.21
6180,-3.8687,-1.4969,-0.9880,-835.69,-221.92,-1846.31
6190,-3.8699,-1.0773,-0.1525,398.68,1543.95,1951.17
6200,-3.8711,-1.0590,0.2560,-1882.57,497.86,-1484.68
6210,-3.8717,-1.2449,0.1133,461.18,779.17,-1796.39
6220,-3.8722,-1.2355,-0.0498,664.31,-1486.82,640.81
6230,-3.8728,-1.0863,-0.0499,1867.43,1638.18,-172.00
6240,-3.8729,-0.9949,-0.1331,961.18,1622.86,-1812.62
6250,-3.8728,-1.0006,-0.3179,664.31,-1017.58,-1500.31
6260,-3.8728,-1.0330,-0.4170,-70.07,-673.89,1030.58
6270,-3.8729,-1.0171,-0.4220,-210.69,-1361.45,764.77
6280,-3.8729,-0.9482,-0.3684,1820.56,1997.99,1421.02
6290,-3.8728,-0.8691,-0.3069,-1366.94,857.48,327.39
6300,-3.8727,-0.8549,-0.3201,758.06,732.67,-328.74
6310,-3.8723,-0.8777,-0.4052,-1413.82,-954.83,1264.95
6320,-3.8722,-0.8761,-0.4733,-335.69,154.48,-438.29
6330,-3.8721,-0.8271,-0.4822,-132.57,-564.27,186.52
6340,-3.8722,-0.7648,-0.4669,-1866.94,-1704.77,1920.90
6350,-3.8722,-0.7430,-0.4746,-1882.57,248.47,1389.71
6360,-3.8722,-0.7689,-0.5144,898.68,-735.84,-594.73
6370,-3.8721,-0.8077,-0.5626,1586.18,-1829.65,-1063.54
6380,-3.8719,-0.8271,-0.5745,617.43,-1.59,795.72
6390,-3.8721,-0.8116,-0.5367,-1866.94,-1517.27,-844.91
6400,-3.8722,-0.7711,-0.4722,117.43,-689.09,-797.97
6410,-3.8723,-0.7319,-0.4044,1304.93,-423.40,-1454.10
6420,-3.8724,-0.7024,-0.3600,-1679.44,248.54,-1625.79
6430,-3.8726,-0.6744,-0.3503,-1898.19,1936.10,-969.48
6440,-3.8726,-0.6454,-0.3679,1679.93,-829.47,655.52
6450,-3.8727,-0.6147,-0.3901,1398.68,920.59,-1047.61
6460,-3.8727,-0.5817,-0.3953,1320.56,-1923.10,1967.96
6470,-3.8727,-0.5502,-0.3848,1554.93,1420.72,-1485.17
6480,-3.8726,-0.5255,-0.3762,1586.18,-1235.47,827.33
6490,-3.8724,-0.5139,-0.3813,742.43,-141.66,421.08
6500,-3.8723,-0.5217,-0.3955,-1773.19,-797.91,1014.83
6510,-3.8722,-0.5458,-0.4064,1226.81,1389.59,-1328.92
6520,-3.8721,-0.5732,-0.4026,-1851.32,-1.10,-63.35
6530,-3.8719,-0.5883,-0.3799,-1366.94,483.22,-735.17
6540,-3.8718,-0.5819,-0.3550,711.18,-610.53,1108.58
6550,-3.8718,-0.5591,-0.3553,1523.68,-1423.03,-1703.86
6560,-3.8718,-0.5272,-0.3892,445.56,-1469.85,-985.11
6570,-3.8718,-0.4855,-0.4409,523.68,-1797.91,-1422.67
6580,-3.8718,-0.4348,-0.4912,1867.43,-422.85,1092.83
6590,-3.8719,-0.3823,-0.5281,351.81,1139.77,-735.35
6600,-3.8719,-0.3367,-0.5458,-929.44,421.08,1123.96
6610,-3.8721,-0.3097,-0.5403,914.31,-1844.42,-1157.35
6620,-3.8721,-0.3129,-0.5121,367.43,-1141.24,592.65
6630,-3.8722,-0.3419,-0.4691,-38.82,-1531.92,1827.09
6640,-3.8723,-0.3761,-0.4159,242.43,-31.92,1874.02
6650,-3.8724,-0.4006,-0.3622,-132.57,-1219.54,1389.77
6660,-3.8726,-0.4148,-0.3262,726.81,1655.46,-1985.11
6670,-3.8726,-0.4194,-0.3132,-1085.69,-1735.23,780.58
6680,-3.8726,-0.4166,-0.3198,-1679.44,-78.98,1811.83
6690,-3.8724,-0.4084,-0.3381,-1320.07,-922.73,499.33
6700,-3.8724,-0.3967,-0.3604,-273.19,733.52,-16.30
6710,-3.8723,-0.3894,-0.3751,1226.81,1889.83,-156.98
6720,-3.8722,-0.3898,-0.3645,-1835.69,-0.79,-1250.79
6730,-3.8722,-0.3868,-0.3289,-1882.57,1358.58,-1094.48
6740,-3.8722,-0.3827,-0.2904,-1507.57,1921.08,983.70
6750,-3.8723,-0.3795,-0.2646,-976.32,-1157.04,-1078.74
6760,-3.8723,-0.3604,-0.2485,-570.07,-1860.17,577.58
6770,-3.8724,-0.3295,-0.2458,1883.06,202.39,1515.14
6780,-3.8724,-0.3027,-0.2626,1836.18,546.20,343.26
6790,-3.8724,-0.2809,-0.2985,1258.06,-1594.36,-578.67
6800,-3.8722,-0.2640,-0.3555,54.93,1811.95,733.76
6810,-3.8721,-0.2562,-0.4279,-1788.82,-1484.92,1233.64
6820,-3.8719,-0.2550,-0.4974,-788.82,1249.45,327.27
6830,-3.8719,-0.2513,-0.5417,-632.57,343.20,1545.90
6840,-3.8721,-0.2411,-0.5530,-163.82,-1328.67,-922.97
6850,-3.8722,-0.2280,-0.5433,1148.68,1233.89,1014.53
6860,-3.8724,-0.2117,-0.5371,-1179.44,-1531.74,1873.90
6870,-3.8726,-0.1877,-0.5634,914.31,-734.80,233.28
6880,-3.8727,-0.1538,-0.6459,-23.19,-94.18,-1626.16
6890,-3.8726,-0.1211,-0.7728,320.56,1343.44,483.09
6900,-3.8724,-0.1158,-0.9061,508.06,1093.51,373.47
6910,-3.8723,-0.1431,-0.9003,1179.93,31.01,1107.60
6920,-3.8723,-0.2474,-0.7876,1695.56,780.94,1732.60
6930,-3.8723,-0.3975,-0.6975,336.18,-797.36,-892.21
6940,-3.8721,-0.4562,-0.5685,1133.06,-1266.42,-1704.53
6950,-3.8719,-0.4359,-0.5031,1617.43,-750.92,733.22
6960,-3.8718,-0.4364,-0.6298,211.18,-375.85,936.46
6970,-3.8713,-0.4520,-0.7826,148.68,-594.60,873.72
6980,-3.8710,-0.4443,-0.7771,-1851.32,-157.17,1639.04
6990,-3.8711,-0.4596,-0.6913,-866.94,545.96,92.22
7000,-3.8717,-0.5216,-0.6414,1179.93,-469.67,1748.60
7010,-3.8722,-0.5856,-0.6189,1242.43,1920.84,889.34
7020,-3.8726,-0.6394,-0.5861,1054.93,795.72,-907.47
7030,-3.8727,-0.6890,-0.5428,-1835.69,998.72,-423.03
7040,-3.8726,-0.7122,-0.5183,-179.44,-1470.15,-1188.60
7050,-3.8723,-0.6913,-0.5248,851.81,1670.47,-860.41
7060,-3.8721,-0.6298,-0.5398,-476.32,842.35,-454.16
7070,-3.8719,-0.5494,-0.5380,-601.32,-1079.41,-1360.47
7080,-3.8721,-0.4653,-0.5254,1679.93,-844.85,-704.22
7090,-3.8722,-0.3881,-0.5349,445.56,764.71,795.84
7100,-3.8723,-0.3285,-0.5742,-1663.82,-453.92,498.90
7110,-3.8723,-0.2985,-0.6090,1961.18,-1485.05,-1594.91
7120,-3.8721,-0.2900,-0.6230,1804.93,-1938.11,76.90
7130,-3.8719,-0.2698,-0.6273,-1116.94,265.01,1764.40
7140,-3.8718,-0.2244,-0.6150,1476.81,-281.80,-1298.16
7150,-3.8717,-0.1464,-0.5508,-710.69,1296.39,-1735.60
7160,-3.8719,-0.1245,-0.4891,1273.68,1515.32,-1313.60
7170,-3.8723,-0.1924,-0.4963,70.56,1406.01,858.40
7180,-3.8724,-0.2656,-0.5503,-616.94,483.95,874.02
7190,-3.8723,-0.3162,-0.6154,-1991.94,1577.58,-1782.35
7200,-3.8721,-0.3633,-0.6481,-460.69,1249.33,-673.10
7210,-3.8718,-0.4244,-0.6451,1508.06,1061.77,1170.59
7220,-3.8718,-0.4736,-0.6381,1679.93,1436.65,-1641.91
7230,-3.8717,-0.4758,-0.6442,-616.94,-1657.23,1623.72
7240,-3.8716,-0.5012,-0.6597,-898.19,1561.52,1545.59
7250,-3.8716,-0.3838,-0.5614,-148.19,-422.91,529.91
7260,-3.8718,-0.1256,-0.4177,-1116.94,155.46,77.03
7270,-3.8723,-0.0369,-0.4088,-70.07,-1453.43,280.40
7280,-3.8726,-0.0334,-0.4841,-710.69,-312.62,1421.02
7290,-3.8723,0.0026,-0.5648,-273.19,-1953.25,-1813.48
7300,-3.8718,0.0383,-0.5563,336.18,-296.88,-1985.53
7310,-3.8715,0.0312,-0.4447,914.31,796.94,-922.97
7320,-3.8713,-0.0215,-0.3430,8.06,-921.81,-1766.54
7330,-3.8713,-0.0580,-0.3199,1258.06,109.31,843.08
7340,-3.8712,-0.0975,-0.3475,586.18,-937.62,843.08
7350,-3.8710,-0.1754,-0.3342,-476.32,-468.99,1483.64
7360,-3.8710,-0.2576,-0.2476,1554.93,1234.01,1811.83
7370,-3.8713,-0.3401,-0.1694,-960.69,327.58,-1797.36
7380,-3.8718,-0.4312,-0.1619,476.81,-1672.55,-1797.24
7390,-3.8722,-0.5137,-0.2255,820.56,-703.98,-1750.37
7400,-3.8723,-0.5728,-0.3306,-1741.94,-844.79,-141.11
7410,-3.8721,-0.6144,-0.4176,-1304.44,1701.97,1546.20
7420,-3.8719,-0.6375,-0.4387,1367.43,-1438.72,-703.98
7430,-3.8719,-0.6239,-0.4230,-1585.69,-141.91,-375.92
7440,-3.8719,-0.5895,-0.4189,148.68,1873.78,186.65
7450,-3.8722,-0.5696,-0.4344,554.93,-1610.53,-125.85
7460,-3.8723,-0.5636,-0.4629,-898.19,405.09,-313.35
7470,-3.8723,-0.5602,-0.4910,-132.57,764.47,686.58
7480,-3.8724,-0.5591,-0.5057,304.93,1170.78,-266.60
7490,-3.8723,-0.5569,-0.5043,445.56,-719.85,45.84
7500,-3.8724,-0.5555,-0.4990,726.81,-532.35,-469.79
7510,-3.8724,-0.5685,-0.5081,898.68,139.53,-1922.85
7520,-3.8724,-0.6017,-0.5312,-757.57,-1016.78,967.71
7530,-3.8724,-0.6450,-0.5562,-1007.57,14.40,358.34
7540,-3.8726,-0.6873,-0.5718,1445.56,826.84,-657.35
7550,-3.8726,-0.7156,-0.5709,39.31,-1173.22,1170.72
7560,-3.8727,-0.7211,-0.5640,414.31,-1063.90,-1751.16
7570,-3.8727,-0.7087,-0.5591,-288.82,-173.34,30.09
7580,-3.8728,-0.6887,-0.5553,1289.31,451.72,-1110.47
7590,-3.8728,-0.6617,-0.5596,-148.19,936.10,-1547.97
7600,-3.8728,-0.6274,-0.5734,-695.07,389.28,-876.10
7610,-3.8727,-0.5930,-0.5955,-304.44,-1376.28,576.97
7620,-3.8727,-0.5594,-0.6171,101.81,-204.28,-1907.47
7630,-3.8727,-0.5309,-0.6216,398.68,1030.15,-1001.22
7640,-3.8727,-0.5063,-0.5995,54.93,452.09,-1438.72
7650,-3.8727,-0.4742,-0.5680,-804.44,-719.79,1342.53
7660,-3.8727,-0.4479,-0.5609,-695.07,-688.48,1014.47
7670,-3.8727,-0.4258,-0.5802,-1320.07,217.83,1186.40
7680,-3.8727,-0.4075,-0.6143,1508.06,1749.15,-1610.53
7690,-3.8726,-0.3953,-0.6370,-148.19,1389.77,1155.03
7700,-3.8726,-0.3820,-0.6366,1414.31,-1516.42,-1048.16
7710,-3.8726,-0.3599,-0.6326,-882.57,-1469.54,-1016.91
7720,-3.8726,-0.3313,-0.6307,1945.56,-953.86,1561.22
7730,-3.8727,-0.3091,-0.6327,1601.81,-719.42,-345.03
7740,-3.8726,-0.2856,-0.6525,445.56,-969.36,545.59
7750,-3.8724,-0.2561,-0.7120,-554.44,499.39,1639.34
7760,-3.8722,-0.2209,-0.8235,-773.19,874.45,576.72
7770,-3.8721,-0.1770,-0.9836,-273.19,-1391.11,-1814.15
7780,-3.8719,-0.1250,-1.1445,1351.81,-1890.99,-1423.83
7790,-3.8718,-0.0911,-1.2445,8.06,1515.38,653.99
7800,-3.8719,-0.0808,-1.2628,351.81,718.57,903.81
7810,-3.8722,-0.0671,-1.2244,1664.31,-1625.18,1153.75
7820,-3.8724,-0.0486,-1.1632,-585.69,-703.31,1778.81
7830,-3.8726,-0.0459,-1.1136,1789.31,-875.12,669.56
7840,-3.8727,-0.0581,-1.1077,-1866.94,1468.63,1310.30
7850,-3.8727,-0.0654,-1.1218,570.56,-1765.75,435.30
7860,-3.8727,-0.0565,-1.0989,-366.94,421.69,825.93
7870,-3.8728,-0.0446,-1.0134,773.68,-640.75,-1220.95
7880,-3.8729,-0.0521,-0.8794,-1695.07,-1703.25,435.49
7890,-3.8733,-0.0885,-0.7252,1336.18,-547.00,-1908.02
7900,-3.8737,-0.1438,-0.5684,679.93,-812.68,-1032.71
7910,-3.8739,-0.2079,-0.4266,1601.81,-734.68,-954.28
7920,-3.8739,-0.2827,-0.3191,1398.68,1405.82,77.27
7930,-3.8739,-0.3538,-0.2404,-179.44,-828.74,1405.58
7940,-3.8738,-0.4058,-0.1968,-1273.19,1249.27,-1500.49
7950,-3.8734,-0.4320,-0.2084,70.56,-1172.67,30.82
7960,-3.8730,-0.4236,-0.2588,711.18,1342.90,999.57
7970,-3.8727,-0.3865,-0.2985,1789.31,-1110.23,-1266.17
7980,-3.8723,-0.3413,-0.2944,-1460.69,1811.71,-484.99
7990,-3.8719,-0.3036,-0.2676,320.56,-1672.55,-1578.74
8000,-3.8717,-0.2882,-0.2618,1148.68,1765.01,1811.95
8010,-3.8716,-0.2880,-0.2882,-882.57,-1500.61,1218.20
8020,-3.8716,-0.2892,-0.3385,-851.32,-875.61,1905.64
8030,-3.8716,-0.3125,-0.4021,-1007.57,686.89,577.45
8040,-3.8717,-0.3657,-0.4581,8.06,546.26,1905.46
8050,-3.8718,-0.4022,-0.5039,1195.56,1374.27,-266.54
8060,-3.8717,-0.3770,-0.5488,523.68,-485.17,1967.71
8070,-3.8715,-0.3497,-0.5792,-241.94,1764.83,1858.28
8080,-3.8713,-0.3998,-0.5924,-757.57,1874.27,-157.41
8090,-3.8712,-0.5020,-0.6182,836.18,186.71,1326.97
8100,-3.8710,-0.5869,-0.6174,-241.94,889.59,858.15
8110,-3.8706,-0.6371,-0.5626,883.06,983.22,280.03
8120,-3.8706,-0.6710,-0.5106,-1538.82,-1.28,592.59
8130,-3.8710,-0.7023,-0.4958,-1882.57,-1345.09,-610.41
8140,-3.8712,-0.7172,-0.5203,-1882.57,545.47,-1860.35
8150,-3.8715,-0.7009,-0.5754,211.18,1420.47,-1594.79
8160,-3.8717,-0.6621,-0.6350,-1710.69,-1642.03,-1438.66
8170,-3.8719,-0.6230,-0.6709,-741.94,-1266.97,795.59
8180,-3.8723,-0.5786,-0.6963,258.06,-1860.60,1826.78
8190,-3.8724,-0.4921,-0.7305,1945.56,-1110.53,-1751.40
8200,-3.8722,-0.3950,-0.7545,1023.68,-1485.35,-1579.59
8210,-3.8719,-0.3419,-0.7458,1445.56,-563.29,-1220.28
8220,-3.8721,-0.3348,-0.7223,242.43,546.20,-1.46
8230,-3.8723,-0.3544,-0.7168,1148.68,-438.17,14.16
8240,-3.8727,-0.3844,-0.7427,-1351.32,264.89,436.10
8250,-3.8728,-0.3896,-0.7922,-1195.07,952.33,748.54
8260,-3.8727,-0.3547,-0.8208,-1866.94,-1391.42,1092.16
8270,-3.8726,-0.3175,-0.8083,-1398.19,-1047.61,1232.73
8280,-3.8727,-0.2980,-0.7910,-632.57,546.20,-689.09
8290,-3.8728,-0.2791,-0.7914,1867.43,-1234.99,1607.79
8300,-3.8730,-0.2590,-0.8010,289.31,-1281.80,-439.09
8310,-3.8732,-0.2461,-0.8032,-1148.19,1483.83,-1157.84
8320,-3.8732,-0.2310,-0.7877,508.06,1202.64,498.41
8330,-3.8732,-0.2142,-0.7555,-1554.44,-812.99,-1907.84
8340,-3.8730,-0.2043,-0.7107,586.18,-687.93,-798.40
8350,-3.8728,-0.2090,-0.6675,1851.81,1046.45,1154.85
8360,-3.8727,-0.2147,-0.6483,1258.06,-1422.30,-1563.84
8370,-3.8726,-0.2023,-0.6498,523.68,1030.82,-1376.28
8380,-3.8724,-0.1812,-0.6423,-1882.57,843.32,1201.84
8390,-3.8724,-0.1708,-0.6179,820.56,1796.51,1779.97
8400,-3.8724,-0.1738,-0.6063,-1851.32,921.51,1811.28
8410,-3.8724,-0.1847,-0.6213,1758.06,-1594.12,-532.47
8420,-3.8723,-0.1993,-0.6344,367.43,484.01,-626.22
8430,-3.8721,-0.2006,-0.6123,-1507.57,-1187.93,483.09
8440,-3.8719,-0.1774,-0.5630,-1663.82,1640.20,1530.03
8450,-3.8718,-0.1542,-0.5211,1304.93,-47.24,1451.97
8460,-3.8718,-0.1635,-0.5061,273.68,1312.19,-501.04
8470,-3.8718,-0.2058,-0.5137,-913.82,-765.99,-313.54
8480,-3.8718,-0.2706,-0.5624,1664.31,-1734.80,1967.71
8490,-3.8718,-0.2719,-0.6039,1367.43,30.70,-251.10
8500,-3.8716,-0.1904,-0.5684,1211.18,-1281.80,1264.40
8510,-3.8717,-0.1278,-0.5581,-366.94,-734.80,-579.28
8520,-3.8719,-0.0931,-0.6185,-351.32,577.82,-1360.47
8530,-3.8722,-0.0596,-0.6760,86.18,843.57,1498.78
8540,-3.8724,-0.0413,-0.7109,383.06,1484.25,1748.66
8550,-3.8726,-0.0754,-0.7271,-1273.19,1015.50,-860.78
8560,-3.8724,-0.1312,-0.6932,-1648.19,-1047.06,-970.21
8570,-3.8722,-0.1700,-0.6276,-788.82,-719.06,1076.72
8580,-3.8721,-0.1937,-0.5848,-1757.57,-312.87,748.72
8590,-3.8721,-0.1890,-0.5656,-788.82,1155.82,1420.72
8600,-3.8721,-0.1610,-0.5667,-179.44,-375.43,655.09
8610,-3.8721,-0.1642,-0.5853,-601.32,-515.99,733.22
8620,-3.8722,-0.2368,-0.5825,-1007.57,1093.38,-563.66
8630,-3.8723,-0.3333,-0.5200,1695.56,1452.64,-1016.78
8640,-3.8724,-0.4166,-0.4314,1351.81,1452.45,-547.91
8650,-3.8723,-0.4946,-0.3965,-1320.07,796.02,921.02
8660,-3.8721,-0.5836,-0.4474,695.56,1264.65,-1813.29
8670,-3.8718,-0.6257,-0.4602,1304.93,-1251.16,-1500.92
8680,-3.8718,-0.5428,-0.4213,-85.69,1108.09,1295.96
8690,-3.8718,-0.3824,-0.4008,-1476.32,-1907.35,1092.90
8700,-3.8717,-0.2578,-0.3883,-945.07,717.96,-1672.67
8710,-3.8716,-0.2090,-0.4229,-991.94,-1688.05,-485.17
8720,-3.8713,-0.2059,-0.4869,1258.06,1890.20,999.15
8730,-3.8712,-0.2109,-0.5001,1648.68,1687.07,1514.65
8740,-3.8712,-0.2056,-0.4612,1008.06,-0.43,342.71
8750,-3.8713,-0.1934,-0.4285,1695.56,983.95,1780.33
8760,-3.8713,-0.1864,-0.4191,-741.94,1171.45,-16.48
8770,-3.8712,-0.2532,-0.4314,148.68,-1625.37,1421.02
8780,-3.8718,-0.4091,-0.5344,-398.19,796.33,249.15
8790,-3.8727,-0.5206,-0.6935,-351.32,-391.48,1655.15
8800,-3.8727,-0.5146,-0.7135,1367.43,-751.04,139.22
8810,-3.8726,-0.4823,-0.5992,-1866.94,686.46,-1626.40
8820,-3.8724,-0.5247,-0.4952,-1726.32,-688.48,1764.40
8830,-3.8723,-0.6152,-0.4205,851.81,623.96,1983.40
8840,-3.8723,-0.6647,-0.3931,1258.06,-1813.72,-594.60
8850,-3.8723,-0.6453,-0.4954,-1070.07,1701.78,514.83
8860,-3.8723,-0.5841,-0.6754,1414.31,608.09,-1547.85
8870,-3.8721,-0.5148,-0.7524,1242.43,1561.34,-251.34
8880,-3.8718,-0.4591,-0.7079,-1882.57,-297.91,-1735.90
8890,-3.8717,-0.4498,-0.6552,1242.43,1405.33,186.10
8900,-3.8717,-0.5020,-0.6183,-1570.07,155.33,1561.22
8910,-3.8717,-0.5549,-0.5760,-241.94,873.96,1811.28
8920,-3.8717,-0.5668,-0.5468,976.81,-1719.85,1951.97
8930,-3.8716,-0.5609,-0.5402,-538.82,-1969.91,1748.90
8940,-3.8715,-0.5494,-0.5292,211.18,-1126.10,-1563.60
8950,-3.8715,-0.5286,-0.5082,1679.93,280.15,-1313.54
8960,-3.8717,-0.4180,-0.4082,-1445.07,-1813.42,-1922.73
8970,-3.8718,-0.4050,-0.3916,-1491.94,-235.23,-235.23
8980,-3.8718,-0.4174,-0.3494,164.31,1889.83,-1969.54
8990,-3.8718,-0.4335,-0.3116,-1413.82,-703.98,155.52
9000,-3.8718,-0.4324,-0.3164,523.68,124.15,93.14
9010,-3.8718,-0.4203,-0.3494,664.31,-485.23,-1469.42
9020,-3.8717,-0.4011,-0.3759,-1788.82,-703.98,624.27
9030,-3.8717,-0.3781,-0.3785,664.31,-94.54,1999.21
9040,-3.8716,-0.3665,-0.3560,-382.57,-438.29,452.33
9050,-3.8716,-0.3813,-0.3303,1101.81,-1547.61,-1063.23
9060,-3.8715,-0.4132,-0.3242,-804.44,1733.58,718.08
9070,-3.8715,-0.4365,-0.3291,-882.57,-1485.23,-844.42
9080,-3.8713,-0.4364,-0.3180,133.06,1889.77,-1016.30
9090,-3.8712,-0.4181,-0.2844,148.68,-688.35,-1985.05
9100,-3.8712,-0.4001,-0.2407,-1507.57,-391.48,-1609.99
9110,-3.8712,-0.3934,-0.1967,789.31,1202.33,749.51
9120,-3.8713,-0.3921,-0.1466,1648.68,-1157.04,-1969.18
9130,-3.8715,-0.3944,-0.1035,1820.56,1249.21,-1937.81
9140,-3.8716,-0.3925,-0.0734,1523.68,-1235.17,1609.13
9150,-3.8718,-0.3903,-0.0134,1773.68,-1375.79,-78.31
9160,-3.8721,-0.4099,0.0947,-1945.07,-1703.92,1812.44
9170,-3.8726,-0.4500,0.2036,-460.69,139.77,-93.57
9180,-3.8729,-0.4838,0.2555,-1585.69,-1922.79,-1734.01
9190,-3.8733,-0.4839,0.2335,-1913.82,717.77,-249.51
9200,-3.8734,-0.4691,0.1810,-1929.44,1905.27,312.93
9210,-3.8737,-0.4819,0.1649,-38.82,-813.48,828.43
9220,-3.8740,-0.5479,0.1895,-1679.44,1124.02,-1484.07
9230,-3.8744,-0.6573,0.2083,1883.06,264.53,1515.99
9240,-3.8749,-0.7594,0.1945,-132.57,-1329.47,-780.88
9250,-3.8440,-0.8251,0.1421,-1195.07,904.72,1406.62
9260,-3.8444,-0.8774,0.0709,-1601.32,-1798.52,765.87
9270,-3.8447,-0.9264,0.0186,-304.44,1091.98,1500.12
9280,-3.8450,-0.9738,-0.0074,1429.93,-1611.21,437.50
9290,-3.8452,-1.0199,-0.0198,-632.57,-939.45,1343.69
9300,-3.8455,-1.0325,-0.0156,1461.18,1482.36,-250.06
9310,-3.8456,-1.0216,0.0114,-148.19,-1986.45,-1171.94
9320,-3.8457,-1.0728,0.0530,1242.43,1466.74,828.12
9330,-3.8459,-1.2285,0.0933,-1304.44,-1205.26,-859.31
9340,-3.8459,-1.4010,0.1281,-1241.94,-49.32,-1484.25
9350,-3.8457,-1.4816,0.1577,679.93,403.50,640.87
9360,-3.8455,-1.4514,0.1678,-1632.57,200.20,1594.06
9370,-3.8452,-1.3494,0.1517,-1773.19,1497.13,734.68
9380,-3.8452,-1.2518,0.1393,-710.69,-565.19,-749.76
9390,-3.8452,-1.2019,0.1548,-226.32,1841.25,750.24
9400,-3.8453,-1.1591,0.1733,-1835.69,-174.26,-1609.13
9410,-3.8452,-1.0787,0.1782,-351.32,-1799.19,328.43
9420,-3.8452,-0.9830,0.1630,1929.93,-1174.01,1797.18
9430,-3.8453,-0.9340,0.1234,-1820.07,873.05,-1968.44
9440,-3.8455,-0.9528,0.0720,461.18,-189.33,31.43
9450,-3.8456,-1.0032,0.0334,-1945.07,1232.48,718.87
9460,-3.8456,-1.0284,0.0333,-398.19,294.86,1125.06
9470,-3.8456,-1.0066,0.0645,367.43,279.24,-999.94
9480,-3.8456,-0.9700,0.0994,-835.69,263.61,-218.63
9490,-3.8456,-0.9341,0.1252,-148.19,732.42,-1562.32
9500,-3.8456,-0.8840,0.1436,445.56,45.04,1625.24
9510,-3.8455,-0.8325,0.1587,-1148.19,-1611.15,0.24
9520,-3.8455,-0.8188,0.1759,1445.56,326.48,-1530.94
9530,-3.8455,-0.8524,0.2004,-804.44,-1470.40,1719.06
9540,-3.8456,-0.9110,0.2217,-1101.32,1670.17,-109.01
9550,-3.8455,-0.9839,0.2137,-601.32,388.79,1156.68
9560,-3.8453,-1.0250,0.1946,-1929.44,-626.95,1922.24
9570,-3.8452,-0.9745,0.2035,804.93,919.86,-280.88
9580,-3.8451,-0.8734,0.2266,-726.32,-1939.45,-93.38
9590,-3.8450,-0.8123,0.2407,211.18,1013.92,781.68
9600,-3.8451,-0.8125,0.2535,39.31,-1173.46,-187.07
9610,-3.8450,-0.8352,0.2708,8.06,467.16,500.49
9620,-3.8448,-0.8488,0.2869,1101.81,-1329.77,312.99
9630,-3.8447,-0.8470,0.2888,-632.57,732.67,766.17
9640,-3.8446,-0.8337,0.2760,-413.82,982.67,219.30
9650,-3.8446,-0.8273,0.2601,1289.31,-657.90,-624.51
9660,-3.8445,-0.8414,0.2478,-1882.57,1310.85,-827.64
9670,-3.8442,-0.8715,0.2430,304.93,-267.27,31.68
9680,-3.8441,-0.9093,0.2468,461.18,-876.71,578.55
9690,-3.8441,-0.9397,0.2590,-382.57,-392.46,-1093.32
9700,-3.8441,-0.9333,0.2815,-273.19,1169.98,-1015.14
9710,-3.8441,-0.8859,0.3159,539.31,45.04,-1421.33
9720,-3.8441,-0.8258,0.3562,-1382.57,451.35,-1280.64
9730,-3.8441,-0.7728,0.3883,-1695.07,1607.73,-1296.20
9740,-3.8441,-0.7323,0.3979,1086.18,1717.22,-1389.89
9750,-3.8441,-0.7102,0.3816,-1726.32,-1048.34,-155.52
9760,-3.8440,-0.7178,0.3558,1101.81,857.97,-1639.89
9770,-3.8439,-0.7585,0.3451,133.06,1561.10,781.92
9780,-3.8439,-0.8119,0.3580,-1085.69,185.97,-1202.45
9790,-3.8750,-0.8383,0.3866,86.18,1842.16,860.05
9800,-3.8750,-0.8225,0.4233,711.18,1498.35,-874.27
9810,-3.8749,-0.7889,0.4656,-1273.19,-1798.52,1563.29
9820,-3.8749,-0.7568,0.5073,-976.32,-392.21,-936.65
9830,-3.8749,-0.7250,0.5358,-866.94,951.60,-1092.77
9840,-3.8749,-0.6913,0.5291,-788.82,592.29,-1342.71
9850,-3.8748,-0.6497,0.4623,-476.32,-267.03,1329.10
9860,-3.8746,-0.6108,0.3523,851.81,-813.78,-546.02
9870,-3.8744,-0.6191,0.2815,1820.56,1108.15,547.55
9880,-3.8744,-0.6962,0.3025,758.06,45.65,594.30
9890,-3.8745,-0.7936,0.3846,-1101.32,-1267.03,1484.92
9900,-3.8746,-0.8401,0.4740,-1570.07,1248.41,-1186.77
9910,-3.8746,-0.8184,0.5345,476.81,685.85,891.54
9920,-3.8748,-0.7515,0.5250,-741.94,435.85,-170.84
9930,-3.8746,-0.6699,0.4066,-179.44,-782.78,1875.98
9940,-3.8744,-0.6073,0.2321,-1741.94,61.16,1735.17
9950,-3.8740,-0.6058,0.0991,-1726.32,1717.53,1578.55
9960,-3.8738,-0.6740,0.0175,-1538.82,701.90,-421.69
9970,-3.8732,-0.7742,-0.1089,1742.43,-1751.34,562.50
9980,-3.8721,-0.9574,-0.3429,914.31,-1923.40,781.01
9990,-3.8710,-1.0895,-0.3828,1461.18,123.11,-1281.92
10000,-3.8706,-1.0410,-0.1853,554.93,-986.51,389.83
10010,-3.8710,-0.9530,-0.0309,-1241.94,294.80,-656.62
10020,-3.8713,-0.8805,0.1208,-1976.32,60.61,-1375.06
10030,-3.8719,-0.8137,0.2565,-695.07,-517.40,1453.31
10040,-3.8727,-0.7507,0.2743,-148.19,842.10,1500.49
10050,-3.8732,-0.6893,0.1940,-85.69,-876.53,1344.24
10060,-3.8733,-0.6746,0.0712,-226.32,842.35,703.49
