timestamp_ms,ax,ay,az,gx,gy,gz
0,-3.8704,-0.8030,-0.5117,-460.69,-1704.77,-923.10
10,-3.8710,-0.7607,-0.4648,1226.81,-1485.96,-79.16
20,-3.8715,-0.7141,-0.4408,-1366.94,514.10,-1313.42
30,-3.8719,-0.6792,-0.4136,601.81,-407.65,-1438.42
40,-3.8724,-0.6554,-0.3800,1070.56,-923.22,-563.35
50,-3.8728,-0.6370,-0.3530,117.43,-626.28,-1438.29
60,-3.8730,-0.6136,-0.3403,-1523.19,-1173.16,921.14
70,-3.8733,-0.5754,-0.3336,1461.18,451.90,1311.83
80,-3.8735,-0.5201,-0.3191,-1648.19,1311.34,1764.95
90,-3.8738,-0.4546,-0.2950,1429.93,-829.16,-1610.05
100,-3.8739,-0.3882,-0.2699,1820.56,-1750.92,468.14
110,-3.8740,-0.3352,-0.2505,-1679.44,1467.96,999.45
120,-3.8740,-0.3180,-0.2485,1101.81,-47.55,843.20
130,-3.8739,-0.3348,-0.2804,-695.07,202.45,1218.26
140,-3.8737,-0.3610,-0.3306,1148.68,124.33,-1500.55
150,-3.8733,-0.3792,-0.3512,1804.93,1702.39,952.45
160,-3.8732,-0.3846,-0.3152,-523.19,-938.29,-1235.11
170,-3.8732,-0.3861,-0.2416,-1226.32,-328.92,-1797.55
180,-3.8733,-0.3923,-0.1654,-1413.82,1092.96,-1531.74
190,-3.8734,-0.4047,-0.1129,1789.31,-1157.04,-312.87
200,-3.8733,-0.4260,-0.0898,211.18,1561.71,656.01
210,-3.8730,-0.4515,-0.0803,1476.81,514.77,484.19
220,-3.8726,-0.4591,-0.0674,-1788.82,1733.46,1343.57
230,-3.8718,-0.4351,-0.0553,1242.43,-610.29,515.44
240,-3.8711,-0.3845,-0.0629,320.56,936.65,1031.13
250,-3.8705,-0.3097,-0.0913,-1210.69,-32.04,-234.56
260,-3.8699,-0.2234,-0.1127,367.43,327.51,1484.19
270,-3.8695,-0.1505,-0.0901,-585.69,1593.26,499.76
280,-3.8693,-0.1024,-0.0067,742.43,484.07,343.57
290,-3.8690,-0.0830,0.1150,-1101.32,-843.99,1343.69
300,-3.8688,-0.0879,0.2294,1383.06,-1265.81,-171.69
310,-3.8683,-0.0748,0.3313,758.06,1374.82,203.55
320,-3.8678,-0.0054,0.4067,-1570.07,-1578.31,-1952.51
330,-3.8671,0.0917,0.3617,-679.44,78.06,1641.42
340,-3.8663,0.1855,0.1770,-257.57,-1703.00,-1452.45
350,-3.8656,0.2397,-0.0804,-241.94,-1343.44,656.56
360,-3.8651,0.2363,-0.3313,-1304.44,1703.55,484.19
370,-3.8651,0.2272,-0.4932,-1741.94,1594.18,-985.05
380,-3.8656,0.2096,-0.5533,1086.18,875.43,-954.10
390,-3.8663,0.1273,-0.5376,-1163.82,1172.24,842.65
400,-3.8672,-0.0337,-0.4587,304.93,-812.26,-1110.47
410,-3.8679,-0.2303,-0.3290,-304.44,1296.75,1655.33
420,-3.8687,-0.4109,-0.1786,-1476.32,1905.76,936.83
430,-3.8693,-0.5621,-0.0494,-585.69,1155.40,1484.01
440,-3.8696,-0.7045,0.0426,54.93,1686.40,-1437.62
450,-3.8698,-0.8612,0.1118,1836.18,1467.35,93.81
460,-3.8701,-1.0137,0.1700,1773.68,-1673.58,-77.94
470,-3.8704,-1.1357,0.2094,-1741.94,1779.24,1719.06
480,-3.8706,-1.2365,0.2021,-1366.94,-1189.76,1500.37
490,-3.8707,-1.3094,0.1339,1742.43,1888.18,1609.74
500,-3.8707,-1.3379,0.0269,398.68,1153.69,468.99
510,-3.8708,-1.3314,-0.0907,758.06,-549.50,-437.50
520,-3.8708,-1.3062,-0.2079,1586.18,403.63,-1359.56
530,-3.8708,-1.2622,-0.3103,820.56,1403.69,-1766.05
540,-3.8708,-1.1947,-0.3679,-1554.44,294.37,577.51
550,-3.8711,-1.1060,-0.3579,-913.82,919.49,-1406.98
560,-3.8715,-1.0065,-0.2875,-1554.44,-1799.07,-906.98
570,-3.8719,-0.9093,-0.1901,-820.07,-783.26,-47.49
580,-3.8723,-0.8206,-0.0974,-382.57,-314.33,1593.32
590,-3.8727,-0.7405,-0.0242,-1023.19,-454.77,1656.01
600,-3.8730,-0.6677,0.0149,1226.81,920.41,1453.06
610,-3.8734,-0.5896,0.0066,-1460.69,1920.53,1218.75
620,-3.8738,-0.4919,-0.0349,539.31,858.22,-46.88
630,-3.8739,-0.3823,-0.0890,1039.31,-454.10,-1593.87
640,-3.8740,-0.2721,-0.1464,-929.44,624.21,-453.31
650,-3.8740,-0.1608,-0.1996,1179.93,1280.70,-1719.06
660,-3.8740,-0.0640,-0.2465,-570.07,-1531.62,1702.70
670,-3.8740,0.0009,-0.2947,-179.44,468.57,1077.64
680,-3.8740,0.0447,-0.3517,117.43,-1718.75,1265.01
690,-3.8740,0.0652,-0.4216,1726.81,-1015.56,-688.23
700,-3.8739,0.0448,-0.5315,351.81,-1968.63,-94.60
710,-3.8737,-0.0002,-0.6854,1742.43,-31.19,-251.10
720,-3.8733,-0.0363,-0.8011,-23.19,281.19,-1376.34
730,-3.8729,-0.0463,-0.7869,-632.57,1468.63,154.66
740,-3.8729,-0.0228,-0.6561,-1913.82,-703.25,-1610.96
750,-3.8730,0.0386,-0.4946,1086.18,31.19,1811.22
760,-3.8733,0.1260,-0.3630,945.56,687.56,-813.48
770,-3.8734,0.2102,-0.2882,133.06,1531.49,764.89
780,-3.8737,0.2729,-0.2882,-1085.69,-890.26,-1031.86
790,-3.8738,0.3171,-0.3485,-1054.44,-890.14,-188.11
800,-3.8737,0.3441,-0.4357,601.81,-608.76,-1297.61
810,-3.8733,0.3604,-0.5165,54.93,235.05,999.15
820,-3.8729,0.3745,-0.5229,-1866.94,1891.30,-1204.16
830,-3.8726,0.3978,-0.4012,-54.44,1063.17,-1938.54
840,-3.8723,0.4445,-0.1935,-1070.07,641.36,108.58
850,-3.8723,0.5281,0.0050,898.68,-764.77,1124.57
860,-3.8724,0.6332,0.1243,-398.19,641.60,-250.00
870,-3.8723,0.6925,0.1200,1054.93,-92.53,1843.93
880,-3.8721,0.6735,-0.0320,648.68,-639.28,-1468.57
890,-3.8716,0.5862,-0.3132,-1788.82,-92.47,1937.38
900,-3.8710,0.4323,-0.6313,-960.69,-92.65,-1219.42
910,-3.8704,0.2118,-0.8656,-663.82,-811.71,-1204.41
920,-3.8700,-0.0292,-0.9469,-882.57,1203.49,107.67
930,-3.8702,-0.2135,-0.8765,273.68,-1187.56,1810.61
940,-3.8707,-0.3187,-0.7131,679.93,-172.30,-423.65
950,-3.8711,-0.3778,-0.5331,-788.82,733.70,482.97
960,-3.8716,-0.4143,-0.3899,-351.32,-219.54,108.28
970,-3.8722,-0.4194,-0.3031,-1023.19,-1891.48,-1313.29
980,-3.8727,-0.3914,-0.2712,-1679.44,1217.90,1968.14
990,-3.8730,-0.3483,-0.2811,1914.31,1296.08,-828.67
1000,-3.8730,-0.3228,-0.3184,-570.07,30.52,-1547.42
1010,-3.8729,-0.3304,-0.3516,-1304.44,-735.05,-1438.17
1020,-3.8728,-0.3463,-0.3597,1711.18,-985.05,671.14
1030,-3.8728,-0.3602,-0.3552,-320.07,1968.02,1421.14
1040,-3.8728,-0.4004,-0.3392,1898.68,-1453.86,-125.73
1050,-3.8727,-0.5002,-0.3174,758.06,592.96,-63.17
1060,-3.8726,-0.6514,-0.3062,-23.19,-610.41,-0.67
1070,-3.8723,-0.7988,-0.3075,633.06,826.84,546.26
1080,-3.8722,-0.9207,-0.3175,1758.06,654.66,-1875.61
1090,-3.8721,-1.0358,-0.3250,-1835.69,-626.83,-1156.92
1100,-3.8719,-1.1362,-0.3096,-570.07,-1580.20,264.95
1110,-3.8721,-1.2242,-0.2816,-1429.44,388.37,1436.89
1120,-3.8722,-1.3141,-0.2517,-695.07,-33.69,1171.26
1130,-3.8723,-1.3793,-0.1788,-195.07,-205.75,30.70
1140,-3.8727,-1.4189,-0.0404,-538.82,1122.25,-437.87
1150,-3.8729,-1.4675,0.1172,-1616.94,-1159.06,1203.00
1160,-3.8733,-1.5242,0.2432,164.31,-987.24,-1093.57
1170,-3.8735,-1.5723,0.3330,914.31,-862.37,1281.68
1180,-3.8738,-1.6093,0.3988,-1241.94,-1362.49,1094.36
1190,-3.8740,-1.6388,0.4408,-1976.32,-940.67,-1514.89
1200,-3.8741,-1.6465,0.4677,-1757.57,434.27,188.35
1210,-3.8744,-1.6071,0.5013,1258.06,-128.23,-1921.02
1220,-3.8745,-1.5408,0.5376,-1695.07,184.33,-1889.65
1230,-3.8745,-1.4840,0.5490,-1210.69,825.07,1782.29
1240,-3.8744,-1.4314,0.5347,-1945.07,-1721.68,-998.96
1250,-3.8740,-1.3672,0.5201,789.31,450.32,-1248.96
1260,-3.8735,-1.2963,0.5101,1008.06,-1408.94,-1842.77
1270,-3.8730,-1.2156,0.4912,-1913.82,1309.94,-1530.27
1280,-3.8726,-1.1162,0.4785,414.31,-1111.76,-1249.08
1290,-3.8721,-1.0044,0.5028,1133.06,1263.43,-1530.33
1300,-3.8716,-0.8912,0.5455,-554.44,372.99,1125.98
1310,-3.8711,-0.7860,0.5820,1929.93,1841.98,610.41
1320,-3.8705,-0.6721,0.6310,-601.32,-1485.96,-889.53
1330,-3.8696,-0.5037,0.7001,1976.81,779.91,-1576.90
1340,-3.8689,-0.2926,0.7545,-460.69,1623.96,1595.09
1350,-3.8685,-0.1157,0.7355,-1445.07,593.14,-1670.41
1360,-3.8685,-0.0236,0.6353,1195.56,-1843.99,1423.28
1370,-3.8688,-0.0286,0.5309,992.43,1328.06,860.60
1380,-3.8690,-0.1412,0.4915,351.81,-31.31,922.85
1390,-3.8693,-0.3481,0.5281,1929.93,-1078.43,969.67
1400,-3.8698,-0.5889,0.6466,-554.44,-391.36,-358.40
1410,-3.8704,-0.8224,0.8363,633.06,-1219.91,-936.28
1420,-3.8711,-1.0569,1.0372,-1257.57,-939.15,595.34
1430,-3.8719,-1.2858,1.1895,726.81,779.17,533.26
1440,-3.8728,-1.4536,1.2736,-570.07,263.06,-122.68
1450,-3.8733,-1.5005,1.2837,1945.56,-971.62,893.07
1460,-3.8737,-1.4099,1.2007,-54.44,325.13,236.88
1470,-3.8739,-1.2102,1.0262,-460.69,1700.32,1689.82
1480,-3.8739,-0.9674,0.7983,1101.81,-627.38,736.33
1490,-3.8738,-0.7523,0.5465,179.93,-1798.77,798.40
1500,-3.8735,-0.5736,0.2891,-288.82,1967.22,-1702.09
1510,-3.8732,-0.3948,0.0768,-1413.82,1014.47,-280.70
1520,-3.8728,-0.2065,-0.0183,1476.81,1842.96,-359.25
1530,-3.8726,-0.0280,0.0170,1570.56,1671.45,-1375.06
1540,-3.8724,0.1272,0.1337,429.93,-1812.56,1125.00
1550,-3.8726,0.2528,0.2878,289.31,1109.62,-968.51
1560,-3.8728,0.3375,0.4457,367.43,844.24,-499.45
1570,-3.8730,0.3806,0.5837,-788.82,1047.49,313.35
1580,-3.8734,0.3967,0.7063,726.81,-1280.52,1.10
1590,-3.8739,0.3933,0.8180,-1210.69,-1593.02,-654.91
1600,-3.8743,0.3738,0.9049,-1648.19,703.86,-1029.66
1610,-3.8746,0.3427,0.9479,-148.19,-171.20,-451.42
1620,-3.8749,0.2717,0.9312,-132.57,1328.74,1736.21
1630,-3.8439,0.0992,0.8447,-1210.69,-812.01,1236.15
1640,-3.8441,-0.1775,0.7091,711.18,125.18,-1779.60
1650,-3.8442,-0.4880,0.5903,1289.31,-1219.12,1532.59
1660,-3.8445,-0.7758,0.5546,1539.31,-422.85,-858.28
1670,-3.8448,-1.0310,0.6182,711.18,-1001.53,922.91
1680,-3.8455,-1.2502,0.7299,39.31,-861.39,813.66
1690,-3.8461,-1.4084,0.8108,-23.19,1435.00,-967.35
1700,-3.8463,-1.5619,0.7708,-273.19,-205.93,954.65
1710,-3.8463,-1.7828,0.5317,86.18,-1331.18,1048.34
1720,-3.8459,-1.9789,0.1255,-195.07,74.58,-967.71
1730,-3.8451,-2.0348,-0.3179,-1288.82,74.22,1500.24
1740,-3.8444,-1.9504,-0.6971,-445.07,-675.90,-1110.05
1750,-3.8440,-1.7804,-0.9884,-1648.19,-1222.60,-610.78
1760,-3.8439,-1.5853,-1.1843,117.43,1496.52,1373.05
1770,-3.8439,-1.3932,-1.2789,1086.18,418.76,1075.81
1780,-3.8439,-1.1809,-1.2939,1679.93,309.75,1856.87
1790,-3.8750,-0.9272,-1.2705,851.81,-1611.69,497.44
1800,-3.8749,-0.6775,-1.2534,1320.56,1388.79,-1846.25
1810,-3.8746,-0.4955,-1.2922,1289.31,-423.22,-1377.50
1820,-3.8743,-0.3585,-1.4014,586.18,-1391.60,-846.31
1830,-3.8737,-0.2157,-1.5291,-1882.57,639.89,1887.88
1840,-3.8729,-0.0782,-1.6165,398.68,296.45,90.76
1850,-3.8724,0.0410,-1.6475,1992.43,1109.19,-1143.80
1860,-3.8721,0.1615,-1.6364,1258.06,1125.06,-1487.61
1870,-3.8718,0.2913,-1.6040,679.93,-1452.82,1762.39
1880,-3.8717,0.4283,-1.5615,1289.31,-1311.95,-221.92
1890,-3.8715,0.5813,-1.5078,-1163.82,125.79,1153.20
1900,-3.8713,0.7260,-1.4429,-1585.69,-998.90,1981.38
1910,-3.8712,0.7968,-1.3729,929.93,-686.10,-955.99
1920,-3.8711,0.7660,-1.2953,1992.43,267.15,-643.31
1930,-3.8710,0.6779,-1.1918,-1945.07,-1795.41,1231.81
1940,-3.8710,0.6140,-1.0588,-1226.32,-545.59,-1971.13
1950,-3.8710,0.6573,-0.9113,-1398.19,469.91,-767.70
1960,-3.8706,0.8923,-0.7885,148.68,-639.34,-1267.46
1970,-3.8696,1.2571,-0.7704,-1773.19,-920.17,-1282.84
1980,-3.8684,1.5244,-0.8682,914.31,1393.07,1092.22
1990,-3.8676,1.5670,-1.0100,-866.94,877.93,-1689.21
2000,-3.8671,1.3903,-1.1299,586.18,-1278.20,435.49
2010,-3.8674,0.9810,-1.1936,1961.18,-622.31,-1736.63
2020,-3.8685,0.3596,-1.1892,1570.56,-779.36,1356.99
2030,-3.8702,-0.3060,-1.0969,-1960.69,-218.08,450.74
2040,-3.8722,-0.8042,-0.8961,836.18,-391.24,-1752.20
2050,-3.8737,-1.0526,-0.6133,1070.56,1310.91,529.48
2060,-3.8748,-1.1398,-0.3334,1273.68,1513.55,-188.72
2070,-3.8441,-1.1760,-0.1030,-1882.57,1341.49,1796.20
2080,-3.8446,-1.1841,0.0845,1476.81,-1174.19,-1187.74
2090,-3.8448,-1.1602,0.2356,445.56,-1174.19,1640.75
2100,-3.8450,-1.1033,0.3552,-491.94,-1830.44,-1640.20
2110,-3.8448,-0.9990,0.4382,-1210.69,1482.18,1641.30
2120,-3.8446,-0.8236,0.4847,133.06,107.42,797.73
2130,-3.8444,-0.5677,0.5000,-1413.82,-1939.15,579.04
2140,-3.8441,-0.2588,0.4823,-663.82,14.47,1250.98
2150,-3.8439,0.0693,0.4552,-1116.94,1749.45,-1936.58
2160,-3.8749,0.3689,0.4546,883.06,-1734.25,-1858.52
2170,-3.8746,0.5824,0.4757,-773.19,-1811.83,-483.52
2180,-3.8743,0.6980,0.4668,-1445.07,891.72,1938.42
2190,-3.8740,0.7062,0.3735,1351.81,-248.66,1282.10
2200,-3.8739,0.5663,0.1609,-1601.32,-186.16,-1530.58
2210,-3.8738,0.3131,-0.1343,492.43,594.85,-530.94
2220,-3.8735,0.0283,-0.4161,86.18,-1186.89,1015.32
2230,-3.8733,-0.2562,-0.6282,-366.94,-1265.62,749.15
2240,-3.8732,-0.5206,-0.7552,-788.82,-391.17,1592.47
2250,-3.8733,-0.7271,-0.7809,1367.43,-657.29,1201.60
2260,-3.8737,-0.8337,-0.7062,-1054.44,61.04,-1.53
2270,-3.8738,-0.8610,-0.5946,1289.31,1623.35,232.97
2280,-3.8740,-0.8857,-0.5245,1804.93,-95.46,-1282.47
2290,-3.8741,-0.9435,-0.5010,-1366.94,873.23,-79.16
2300,-3.8740,-1.0812,-0.5222,-757.57,-111.27,-719.79
2310,-3.8735,-1.3092,-0.5969,1617.43,1169.74,1373.96
2320,-3.8729,-1.5131,-0.6498,429.93,-393.19,-469.97
2330,-3.8722,-1.6256,-0.5962,-1663.82,840.76,904.97
2340,-3.8718,-1.6791,-0.4346,-70.07,-300.11,-391.85
2350,-3.8716,-1.7067,-0.2137,1086.18,387.33,1061.65
2360,-3.8717,-1.7163,-0.0009,1554.93,652.89,1593.32
2370,-3.8719,-1.6744,0.1732,320.56,-97.11,1234.31
2380,-3.8722,-1.5754,0.3018,1679.93,-1815.80,1125.31
2390,-3.8723,-1.4872,0.3507,-1648.19,-1362.49,-1608.83
2400,-3.8721,-1.4484,0.3206,1648.68,903.32,-1155.58
2410,-3.8715,-1.4281,0.2847,-1382.57,1044.01,-827.51
2420,-3.8707,-1.4001,0.2986,1211.18,450.32,-1874.45
2430,-3.8702,-1.3806,0.3153,789.31,-1768.37,1344.30
2440,-3.8701,-1.3483,0.3018,-710.69,372.25,-1483.76
2450,-3.8702,-1.2690,0.2897,-570.07,-1362.06,-874.45
2460,-3.8706,-1.1455,0.3025,1570.56,1091.25,-452.58
2470,-3.8711,-0.9948,0.3571,1383.06,-1267.88,-358.83
2480,-3.8715,-0.8438,0.4299,679.93,1716.80,-1764.95
2490,-3.8716,-0.7256,0.4061,8.06,-954.77,1688.29
2500,-3.8712,-0.6444,0.2048,-866.94,-1.46,-1999.27
2510,-3.8702,-0.5413,-0.0804,1523.68,-1766.91,953.49
2520,-3.8691,-0.3856,-0.2971,-1273.19,1717.65,1656.07
2530,-3.8683,-0.2253,-0.3888,-1351.32,1983.58,921.26
2540,-3.8679,-0.1028,-0.3820,-835.69,-1750.49,1655.46
2550,-3.8679,-0.0391,-0.3401,-1148.19,-875.24,921.08
2560,-3.8683,-0.0448,-0.3186,-991.94,484.25,1014.95
2570,-3.8689,-0.1095,-0.3516,-1726.32,-765.75,-1313.17
2580,-3.8695,-0.2146,-0.4476,1992.43,-984.62,-1406.98
2590,-3.8701,-0.2979,-0.5411,539.31,-1281.68,1936.58
2600,-3.8707,-0.2914,-0.5651,1883.06,-1250.61,655.15
2610,-3.8715,-0.2028,-0.5214,-1288.82,-313.11,-188.66
2620,-3.8719,-0.0887,-0.4646,-1945.07,1280.82,-704.16
2630,-3.8722,0.0011,-0.4634,648.68,546.69,1717.83
2640,-3.8723,-0.0117,-0.5570,148.68,687.50,-1813.42
2650,-3.8722,-0.2439,-0.7340,-1491.94,718.69,186.40
2660,-3.8721,-0.6278,-0.8523,789.31,-1937.99,-1001.46
2670,-3.8718,-0.9459,-0.7671,-351.32,-1079.41,-1017.33
2680,-3.8717,-1.0718,-0.5135,-1070.07,1826.23,-220.28
2690,-3.8716,-0.9846,-0.2426,-1179.44,-1720.89,1608.34
2700,-3.8715,-0.7589,-0.1044,1976.81,966.80,421.39
2710,-3.8713,-0.5106,-0.1489,-1132.57,-1345.28,-1672.12
2720,-3.8711,-0.3020,-0.2903,-1351.32,952.09,-765.93
2730,-3.8707,-0.1423,-0.4052,1351.81,-1141.24,296.26
2740,-3.8706,-0.0361,-0.4570,1789.31,155.94,-797.67
2750,-3.8704,0.0175,-0.4788,-616.94,1515.50,-1125.92
2760,-3.8700,0.0264,-0.5101,-1757.57,-1281.25,-1766.60
2770,-3.8696,0.0038,-0.5444,-616.94,-1296.88,-1719.79
2780,-3.8694,-0.0347,-0.5259,492.43,-1687.50,-1282.35
2790,-3.8693,-0.0895,-0.4337,-429.44,703.00,-1360.41
2800,-3.8693,-0.1812,-0.2919,554.93,499.82,1624.15
2810,-3.8695,-0.3668,-0.1487,820.56,-1344.12,-906.86
2820,-3.8698,-0.6552,-0.0443,1054.93,983.64,-797.18
2830,-3.8698,-0.9374,0.0332,148.68,-1657.53,749.88
2840,-3.8698,-1.1193,0.1101,23.68,263.79,-499.94
2850,-3.8696,-1.1897,0.1891,742.43,-1892.82,-984.19
2860,-3.8695,-1.1670,0.2589,-273.19,216.37,625.37
2870,-3.8696,-1.0833,0.3004,-1366.94,1153.93,-687.01
2880,-3.8696,-0.9941,0.2715,1351.81,-1533.39,-1765.08
2890,-3.8694,-0.9661,0.1323,758.06,-1236.33,125.49
2900,-3.8690,-1.0089,-0.0809,351.81,951.23,-656.01
2910,-3.8684,-1.0444,-0.2504,-1132.57,1654.24,-1562.68
2920,-3.8680,-1.0005,-0.2830,-1679.44,-33.33,-1219.30
2930,-3.8680,-0.8762,-0.1785,-54.44,-205.14,1686.89
2940,-3.8683,-0.7186,-0.0244,-148.19,1170.10,155.88
2950,-3.8687,-0.5774,0.0781,23.68,889.22,-1718.81
2960,-3.8689,-0.4755,0.1019,-1898.19,-1985.53,-1687.38
2970,-3.8691,-0.4188,0.0643,-851.32,1061.52,-984.19
2980,-3.8693,-0.4006,-0.0023,-1601.32,249.15,1203.25
2990,-3.8694,-0.3917,-0.0466,726.81,-282.04,-1109.44
3000,-3.8694,-0.3625,-0.0547,1867.43,-1953.92,1406.13
3010,-3.8695,-0.2983,-0.0558,1601.81,1014.89,1531.13
3020,-3.8699,0.0536,-0.1626,1054.93,-1937.68,62.26
3030,-3.8702,0.2032,-0.2142,-1132.57,-812.44,-0.37
3040,-3.8706,0.3361,-0.2401,-1976.32,578.49,-547.30
3050,-3.8711,0.4435,-0.2367,-976.32,1266.24,-62.99
3060,-3.8716,0.5157,-0.2295,773.68,1703.98,1937.01
3070,-3.8722,0.5077,-0.2440,-1976.32,-1374.02,-1219.24
3080,-3.8727,0.3977,-0.2693,992.43,766.60,-531.74
3090,-3.8729,0.1936,-0.2693,-1085.69,1531.98,890.08
3100,-3.8733,-0.0962,-0.2205,789.31,1531.62,-234.92
3110,-3.8735,-0.3978,-0.1200,-304.44,-203.37,1718.26
3120,-3.8739,-0.5912,-0.0085,1086.18,655.46,1671.63
3130,-3.8743,-0.6191,0.0475,336.18,-1079.28,1609.31
3140,-3.8745,-0.5171,0.0156,758.06,-1907.47,1343.81
3150,-3.8746,-0.3621,-0.0785,1820.56,-1985.41,1203.12
3160,-3.8748,-0.2197,-0.1802,1664.31,1968.02,1937.32
3170,-3.8749,-0.1173,-0.2395,-116.94,952.64,1109.01
3180,-3.8439,-0.0626,-0.2521,992.43,1359.13,1530.76
3190,-3.8442,-0.0630,-0.2614,-7.57,-250.18,-1047.42
3200,-3.8445,-0.1078,-0.2990,-54.44,-1437.68,280.70
3210,-3.8447,-0.1787,-0.3365,-1788.82,1749.76,733.76
3220,-3.8450,-0.2693,-0.3143,1133.06,937.13,-328.80
3230,-3.8451,-0.3680,-0.2146,1539.31,-219.30,-1203.80
3240,-3.8452,-0.4517,-0.0857,898.68,546.14,952.70
3250,-3.8455,-0.5021,0.0139,-1804.44,1045.96,-1187.68
3260,-3.8456,-0.5173,0.0510,-257.57,1795.84,1687.50
3270,-3.8457,-0.5117,0.0164,1789.31,-1454.16,-546.81
3280,-3.8456,-0.4971,-0.0636,-1491.94,-1891.66,1859.38
3290,-3.8455,-0.4673,-0.1461,383.06,-125.98,-531.43
3300,-3.8452,-0.4092,-0.2045,195.56,1311.58,968.44
3310,-3.8451,-0.3235,-0.2411,-366.94,1842.90,1983.95
3320,-3.8450,-0.2354,-0.2838,-1398.19,1155.58,-531.74
3330,-3.8447,-0.1755,-0.3593,1883.06,-312.99,-438.11
3340,-3.8442,-0.1642,-0.4635,1539.31,-1969.12,905.52
3350,-3.8750,-0.2087,-0.5428,-1007.57,687.13,999.08
3360,-3.8746,-0.2709,-0.5383,1289.31,-1469.18,-626.10
3370,-3.8743,-0.2812,-0.4506,1336.18,-891.17,1358.28
3380,-3.8741,-0.2242,-0.3486,8.06,-1656.80,-641.54
3390,-3.8739,-0.1350,-0.3141,-695.07,-609.86,1530.52
3400,-3.8737,-0.0400,-0.3718,-1273.19,-187.81,-1172.55
3410,-3.8733,0.0302,-0.4741,-1116.94,421.75,1983.64
3420,-3.8730,0.0280,-0.5210,-132.57,-687.50,-1313.48
3430,-3.8729,-0.0636,-0.4510,-413.82,1312.50,-1532.29
3440,-3.8728,-0.2047,-0.3206,-132.57,-1718.93,170.96
3450,-3.8727,-0.3228,-0.2437,1804.93,-1016.05,124.33
3460,-3.8724,-0.3639,-0.3030,-1304.44,827.45,-1906.74
3470,-3.8718,-0.3171,-0.4950,1429.93,1233.64,1390.01
3480,-3.8710,-0.2241,-0.7355,-585.69,655.58,249.02
3490,-3.8702,-0.1676,-0.8912,-679.44,1874.51,1467.29
3500,-3.8700,-0.1748,-0.8937,-1445.07,1937.13,-236.15
3510,-3.8702,-0.2104,-0.8009,1633.06,1624.63,-908.02
3520,-3.8707,-0.2532,-0.7179,1070.56,1499.57,-189.09
3530,-3.8708,-0.3015,-0.7323,-398.19,124.45,467.35
3540,-3.8707,-0.3328,-0.8517,1414.31,-1719.36,-673.34
3550,-3.8700,-0.3148,-1.0146,1414.31,-1000.67,-751.71
3560,-3.8688,-0.2584,-1.1633,-288.82,-1860.05,1122.99
3570,-3.8676,-0.1793,-1.2616,-1070.07,-891.17,841.43
3580,-3.8667,-0.0953,-1.2816,1054.93,-1469.12,700.62
3590,-3.8665,-0.0608,-1.1985,-195.07,-31.49,13.06
3600,-3.8668,-0.1135,-1.0476,226.81,-1390.75,-1877.38
3610,-3.8672,-0.2119,-0.8983,1476.81,1921.63,1013.55
3620,-3.8672,-0.2803,-0.7888,883.06,1030.82,1560.73
3630,-3.8665,-0.2921,-0.7845,133.06,-953.67,1029.66
3640,-3.8654,-0.2595,-0.8828,-1382.57,-406.86,-1423.46
3650,-3.8644,-0.2175,-0.9482,-1210.69,-984.92,-158.02
3660,-3.8639,-0.2240,-0.8634,164.31,-1359.80,1326.23
3670,-3.8643,-0.3159,-0.6282,-663.82,1499.51,1951.42
3680,-3.8651,-0.4850,-0.3439,-429.44,-391.30,-1766.91
3690,-3.8660,-0.7083,-0.1240,1929.93,-0.98,171.14
3700,-3.8666,-0.9193,0.0093,1351.81,139.22,46.63
3710,-3.8666,-1.0070,0.1189,-1663.82,1201.29,140.62
3720,-3.8660,-0.9122,0.2385,-882.57,-767.64,-265.44
3730,-3.8646,-0.5969,0.3298,-757.57,-1454.96,-1624.57
3740,-3.8630,-0.1531,0.2999,-398.19,-1766.85,-1655.64
3750,-3.8618,0.1514,0.0872,414.31,-1594.06,-1780.70
3760,-3.8618,0.2047,-0.1556,-616.94,-843.51,718.87
3770,-3.8634,0.1221,-0.1982,-1788.82,78.49,1484.07
3780,-3.8656,0.0166,-0.0554,-366.94,-1374.82,15.20
3790,-3.8676,-0.0859,0.0787,-1866.94,906.25,-1062.62
3800,-3.8685,-0.1914,0.0952,1008.06,-1906.43,422.00
3810,-3.8690,-0.3025,0.0321,-491.94,202.70,-1093.57
3820,-3.8691,-0.4297,-0.0435,1289.31,124.39,-796.81
3830,-3.8691,-0.5775,-0.1112,1008.06,-1547.73,-828.25
3840,-3.8690,-0.7419,-0.1987,-1913.82,1780.09,-500.24
3850,-3.8687,-0.9241,-0.3207,1039.31,-1423.34,1405.82
3860,-3.8683,-1.1053,-0.4260,1726.81,-1033.08,843.08
3870,-3.8682,-1.2388,-0.4458,-1476.32,1482.18,-1110.23
3880,-3.8682,-1.2996,-0.3885,1445.56,-1049.32,999.08
3890,-3.8684,-1.2986,-0.3163,1664.31,-1721.31,1827.33
3900,-3.8688,-1.2506,-0.2455,1789.31,-471.31,-141.30
3910,-3.8691,-1.1605,-0.1846,-70.07,591.25,-0.49
3920,-3.8695,-1.0358,-0.1533,-538.82,388.31,1827.76
3930,-3.8700,-0.9016,-0.1465,-570.07,388.55,749.69
3940,-3.8706,-0.7745,-0.1497,601.81,1263.85,1265.32
3950,-3.8713,-0.6837,-0.1498,867.43,857.85,-219.06
3960,-3.8719,-0.7009,-0.1343,492.43,842.41,109.07
3970,-3.8728,-0.8477,-0.0931,-1710.69,-1173.28,1249.69
3980,-3.8737,-1.0455,-0.0322,-491.94,92.04,109.19
3990,-3.8745,-1.2023,0.0170,-1820.07,-111.45,-812.62
4000,-3.8749,-1.2814,0.0433,-1882.57,-1814.88,1031.25
4010,-3.8750,-1.3031,0.0602,-7.57,1559.94,1453.19
4020,-3.8750,-1.2883,0.0525,1211.18,-283.81,-15.56
4030,-3.8748,-1.2378,-0.0062,-898.19,-1268.19,1203.19
4040,-3.8746,-1.1704,-0.1077,1570.56,-783.69,-890.69
4050,-3.8744,-1.1061,-0.2054,-1804.44,-1767.94,656.01
4060,-3.8743,-1.0449,-0.2693,-1570.07,1716.55,1499.57
4070,-3.8741,-0.9904,-0.3112,-1741.94,1544.80,-1703.67
4080,-3.8739,-0.9470,-0.3425,1242.43,185.55,1296.26
4090,-3.8737,-0.9039,-0.3641,-1210.69,169.98,-438.17
4100,-3.8733,-0.8583,-0.3939,304.93,1404.48,-453.86
4110,-3.8729,-0.8328,-0.4531,-1851.32,1592.04,-844.54
4120,-3.8726,-0.8405,-0.5333,1414.31,-1986.02,-47.79
4130,-3.8719,-0.8572,-0.6060,429.93,-251.65,1061.40
4140,-3.8713,-0.8621,-0.6552,-1710.69,-1548.58,-1735.60
4150,-3.8706,-0.8583,-0.6981,1664.31,154.54,576.84
4160,-3.8701,-0.8419,-0.7548,-1851.32,-1345.46,-188.90
4170,-3.8698,-0.7939,-0.8276,242.43,-595.40,-345.28
4180,-3.8696,-0.6996,-0.9017,-1616.94,-1923.46,592.10
4190,-3.8700,-0.5688,-0.9510,-1538.82,592.35,-736.15
4200,-3.8704,-0.4354,-0.9653,-804.44,-1719.91,638.73
4210,-3.8708,-0.3308,-0.9459,273.68,452.27,-861.27
4220,-3.8711,-0.2721,-0.9127,1664.31,-1063.17,-408.14
4230,-3.8711,-0.2531,-0.8909,1179.93,-813.05,-1736.21
4240,-3.8711,-0.2439,-0.8823,-382.57,1983.83,-1251.77
4250,-3.8712,-0.2239,-0.8871,789.31,-922.36,-158.02
4260,-3.8715,-0.1995,-0.9089,-648.19,-1531.74,-111.15
4270,-3.8717,-0.1769,-0.9437,-1523.19,-328.55,1341.92
4280,-3.8721,-0.1436,-0.9757,1367.43,-781.62,-1142.52
4290,-3.8723,-0.0779,-0.9902,1633.06,-875.31,1466.80
4300,-3.8726,0.0269,-0.9910,-1960.69,1265.44,-1298.83
4310,-3.8726,0.1550,-0.9700,-554.44,1156.25,482.42
4320,-3.8726,0.3024,-0.9041,-148.19,-156.01,1373.05
4330,-3.8727,0.4839,-0.7854,-1288.82,281.80,-79.90
4340,-3.8728,0.6863,-0.6320,1945.56,-530.33,545.29
4350,-3.8732,0.8622,-0.4819,-148.19,-889.34,561.22
4360,-3.8735,0.9888,-0.3599,-1632.57,-1685.85,45.90
4370,-3.8739,1.0717,-0.2780,-1429.44,1939.39,-219.48
4380,-3.8739,1.1193,-0.2477,1179.93,423.95,-1813.05
4390,-3.8738,1.1464,-0.2764,-726.32,299.01,-1187.99
4400,-3.8735,1.1667,-0.3682,-1257.57,627.20,-1000.55
4410,-3.8732,1.1819,-0.5148,1351.81,877.26,1280.52
4420,-3.8728,1.1837,-0.6641,-710.69,-1888.37,1217.71
4430,-3.8726,1.1804,-0.7279,-476.32,-997.74,-407.59
4440,-3.8724,1.1821,-0.6711,-898.19,-1169.62,-220.21
4450,-3.8724,1.1766,-0.5500,-679.44,-1903.99,217.41
4460,-3.8727,1.1456,-0.4437,-1382.57,1596.01,577.03
4470,-3.8729,1.0865,-0.3828,-1351.32,-794.68,1014.71
4480,-3.8730,1.0023,-0.3811,-913.82,-997.92,1014.83
4490,-3.8729,0.8861,-0.4347,304.93,-779.30,1546.08
4500,-3.8726,0.7501,-0.4907,1429.93,361.08,-391.48
4510,-3.8719,0.6244,-0.5131,23.68,1188.96,1655.27
4520,-3.8715,0.5265,-0.5043,-70.07,-1670.72,-1954.16
4530,-3.8711,0.4619,-0.4788,-601.32,-545.90,-1704.16
4540,-3.8708,0.4326,-0.4557,-866.94,-1280.40,1561.52
4550,-3.8707,0.4263,-0.4513,-616.94,1672.67,639.71
4560,-3.8707,0.4196,-0.4691,-1429.44,-1764.83,-1563.42
4570,-3.8707,0.3977,-0.4813,1711.18,-46.08,-375.98
4580,-3.8707,0.3596,-0.4668,-1085.69,-1608.64,1436.52
4590,-3.8710,0.3193,-0.4386,-1960.69,250.67,-704.04
4600,-3.8711,0.2936,-0.4164,883.06,-140.01,108.46
4610,-3.8713,0.2565,-0.4211,1586.18,-1296.33,-1516.48
4620,-3.8713,0.1492,-0.4606,836.18,-1905.76,1546.02
4630,-3.8712,-0.0215,-0.4927,-898.19,1047.12,-735.29
4640,-3.8710,-0.1797,-0.4670,1258.06,953.06,-875.98
4650,-3.8708,-0.2802,-0.3838,1008.06,234.01,-1704.04
4660,-3.8708,-0.3375,-0.2758,148.68,-1109.92,202.33
4670,-3.8711,-0.3713,-0.1755,804.93,718.08,-109.92
4680,-3.8712,-0.3907,-0.1122,476.81,1546.14,-906.62
4690,-3.8712,-0.4177,-0.1075,1992.43,1655.46,968.51
4700,-3.8711,-0.4518,-0.1288,-1460.69,-1750.85,312.26
4710,-3.8710,-0.4680,-0.1158,-1820.07,-469.67,-1609.68
4720,-3.8708,-0.4744,-0.0671,101.81,1186.58,-859.62
4730,-3.8707,-0.5142,-0.0327,-710.69,-579.10,-1922.06
4740,-3.8707,-0.6251,-0.0352,-1804.44,-172.91,-1859.50
4750,-3.8710,-0.8020,-0.0312,-7.57,-485.66,-265.75
4760,-3.8713,-1.0093,0.0271,1351.81,14.04,-1906.31
4770,-3.8718,-1.1989,0.1304,-1179.44,-517.64,1218.75
4780,-3.8723,-1.3135,0.2445,-1445.07,700.74,-749.76
4790,-3.8724,-1.3202,0.3414,-116.94,-690.12,344.18
4800,-3.8724,-1.2195,0.3949,-976.32,-283.87,375.61
4810,-3.8724,-1.0482,0.3878,-85.69,-1439.94,-421.14
4820,-3.8723,-0.8530,0.3263,1836.18,1654.17,-1639.89
4830,-3.8723,-0.6567,0.2527,-1179.44,1779.54,-796.26
4840,-3.8723,-0.4700,0.2388,-54.44,358.03,-1999.51
4850,-3.8723,-0.3080,0.3041,-148.19,-1422.85,1375.43
4860,-3.8723,-0.1886,0.3951,586.18,-1063.11,-1436.95
4870,-3.8723,-0.1210,0.4659,-132.57,-1406.68,-30.52
4880,-3.8722,-0.1071,0.4792,523.68,-343.99,1844.60
4890,-3.8721,-0.1429,0.4135,-1695.07,1359.13,-1905.33
4900,-3.8718,-0.2097,0.3048,1711.18,937.19,297.67
4910,-3.8717,-0.2894,0.2118,1164.31,-969.18,313.05
4920,-3.8717,-0.3660,0.1768,-1038.82,-875.61,-1921.51
4930,-3.8716,-0.4208,0.2196,1164.31,-1360.11,-1249.69
4940,-3.8712,-0.4382,0.3185,-1851.32,124.15,781.68
4950,-3.8708,-0.4290,0.4022,-85.69,780.33,1625.61
4960,-3.8705,-0.4321,0.3997,1101.81,-500.85,360.11
4970,-3.8704,-0.4685,0.3163,695.56,-828.98,-1608.64
4980,-3.8704,-0.5198,0.2268,39.31,499.08,-1921.26
4990,-3.8706,-0.5670,0.1891,1476.81,1045.84,875.43
5000,-3.8711,-0.5933,0.2158,-570.07,217.59,1437.87
5010,-3.8716,-0.5613,0.2848,70.56,-360.53,-77.76
5020,-3.8717,-0.4675,0.3199,164.31,467.65,-327.58
5030,-3.8713,-0.3568,0.2297,164.31,967.83,438.11
5040,-3.8707,-0.2737,-0.0098,-1663.82,1421.14,1250.43
5050,-3.8699,-0.2350,-0.3303,976.81,-1234.92,640.56
5060,-3.8691,-0.2532,-0.6272,1929.93,1733.89,-1625.67
5070,-3.8687,-0.3362,-0.8344,-398.19,-266.17,-688.78
5080,-3.8685,-0.4463,-0.9183,976.81,1218.08,-1704.77
5090,-3.8690,-0.5184,-0.8497,-1116.94,-1532.17,-533.08
5100,-3.8699,-0.5201,-0.6678,1648.68,-751.04,-1939.21
5110,-3.8708,-0.4802,-0.4810,1429.93,-1469.79,623.66
5120,-3.8718,-0.4392,-0.3518,-1460.69,-1547.85,-954.10
5130,-3.8724,-0.3942,-0.2897,-210.69,-1016.54,1921.14
5140,-3.8727,-0.3391,-0.2871,1554.93,-1063.29,577.51
5150,-3.8726,-0.3087,-0.3253,601.81,-735.05,155.64
5160,-3.8722,-0.3567,-0.4031,492.43,-1625.61,-1578.80
5170,-3.8716,-0.4939,-0.5110,-1648.19,421.14,1061.71
5180,-3.8711,-0.6776,-0.6157,789.31,-1391.60,-1797.91
5190,-3.8707,-0.8580,-0.6873,1273.68,1201.78,-1532.47
5200,-3.8705,-1.0054,-0.6951,-1820.07,45.17,795.53
5210,-3.8705,-1.0966,-0.6200,-679.44,-955.14,1670.47
5220,-3.8706,-1.1090,-0.4803,-351.32,654.05,-813.72
5230,-3.8707,-1.0402,-0.3204,-1945.07,-1470.95,-407.23
5240,-3.8707,-0.9158,-0.1858,-1132.57,-1002.08,93.08
5250,-3.8708,-0.7667,-0.1172,-1210.69,232.54,1905.88
5260,-3.8708,-0.6191,-0.1267,1867.43,1014.10,-1468.99
5270,-3.8706,-0.5232,-0.1868,758.06,-204.35,187.19
5280,-3.8704,-0.5143,-0.2618,1039.31,108.34,-234.74
5290,-3.8699,-0.5911,-0.3053,-1820.07,-1501.04,-1125.55
5300,-3.8694,-0.7217,-0.2772,351.81,936.34,1765.01
5310,-3.8690,-0.8490,-0.1919,-366.94,529.79,1952.58
5320,-3.8688,-0.9203,-0.0972,-663.82,-548.58,-250.43
5330,-3.8684,-0.9110,-0.0338,-1788.82,-423.71,687.26
5340,-3.8682,-0.8462,-0.0222,-601.32,-314.33,-1984.50
5350,-3.8678,-0.7596,-0.0491,-304.44,1170.17,687.44
5360,-3.8674,-0.6891,-0.0820,-1226.32,1732.85,1078.00
5370,-3.8671,-0.6807,-0.1095,-195.07,1514.22,-1343.93
5380,-3.8667,-0.7412,-0.1431,883.06,1998.66,-750.24
5390,-3.8665,-0.8391,-0.1895,1133.06,1701.66,-531.56
5400,-3.8663,-0.9360,-0.2427,601.81,-236.02,-437.93
5410,-3.8662,-1.0160,-0.3064,195.56,951.29,-1937.99
5420,-3.8662,-1.0798,-0.3872,1961.18,794.86,-1563.11
5430,-3.8663,-1.1217,-0.4747,1789.31,-1549.01,-1969.54
5440,-3.8667,-1.1372,-0.5421,429.93,-752.20,-1329.10
5450,-3.8672,-1.1362,-0.5684,-1554.44,-1377.26,1514.53
5460,-3.8678,-1.1282,-0.5665,-1429.44,-736.63,-1563.66
5470,-3.8684,-1.1031,-0.5616,-398.19,-502.26,-548.03
5480,-3.8690,-1.0514,-0.5646,-1195.07,122.80,-594.85
5490,-3.8696,-0.9781,-0.5795,1429.93,-252.08,1764.47
5500,-3.8702,-0.8911,-0.6095,-1195.07,1841.80,1608.22
5510,-3.8707,-0.7881,-0.6354,1945.56,1998.23,-1563.72
5520,-3.8711,-0.6704,-0.6155,-866.94,-1314.09,-782.53
5530,-3.8715,-0.5590,-0.5415,-1804.44,1233.03,-485.60
5540,-3.8718,-0.4708,-0.4387,461.18,-1297.97,202.03
5550,-3.8724,-0.4103,-0.3390,-257.57,-141.60,-1375.92
5560,-3.8729,-0.3699,-0.2506,-507.57,624.15,-1750.67
5570,-3.8733,-0.3296,-0.1536,664.31,-63.23,1233.83
5580,-3.8735,-0.2627,-0.0548,1820.56,358.70,1687.19
5590,-3.8737,-0.1584,0.0131,-1616.94,999.45,-765.75
5600,-3.8737,-0.0469,0.0342,-273.19,1687.13,-890.62
5610,-3.8737,0.0330,0.0236,-1991.94,390.50,-531.19
5620,-3.8737,0.0763,0.0115,226.81,-984.31,-1562.50
5630,-3.8738,0.1093,0.0103,1773.68,1468.87,-1250.00
5640,-3.8739,0.1562,-0.0104,1992.43,1312.68,1703.12
5650,-3.8740,0.2194,-0.0919,8.06,-1327.82,-406.31
5660,-3.8739,0.2836,-0.2043,86.18,234.80,-390.81
5670,-3.8737,0.3308,-0.2523,304.93,1844.30,-1422.30
5680,-3.8735,0.3423,-0.1844,-1648.19,-296.26,-1281.80
5690,-3.8737,0.3131,-0.0336,-179.44,391.24,-78.49
5700,-3.8739,0.2627,0.1422,86.18,-296.26,1187.38
5710,-3.8744,0.2181,0.3020,1633.06,-1796.39,1984.62
5720,-3.8749,0.1899,0.4137,-70.07,-1343.38,-1186.95
5730,-3.8440,0.1724,0.4476,320.56,953.49,-483.58
5740,-3.8441,0.1566,0.4061,-1929.44,1297.18,-702.27
5750,-3.8440,0.1406,0.3405,54.93,-15.32,1719.48
5760,-3.8439,0.1199,0.3010,-1991.94,-421.63,-1280.64
5770,-3.8749,0.0986,0.2886,-648.19,-1468.57,734.92
5780,-3.8748,0.1074,0.2705,633.06,937.68,-468.20
5790,-3.8745,0.1622,0.2258,1758.06,-1374.82,344.24
5800,-3.8745,0.2349,0.1617,773.68,906.56,797.30
5810,-3.8746,0.2871,0.1045,-1929.44,703.55,953.43
5820,-3.8749,0.2976,0.0753,758.06,1375.55,-546.69
5830,-3.8750,0.2662,0.0570,-1898.19,1641.17,-734.25
5840,-3.8750,0.1949,0.0101,-1913.82,-702.64,1468.81
5850,-3.8750,0.0775,-0.0504,961.18,1297.24,-1968.75
5860,-3.8749,-0.0973,-0.0881,1929.93,1547.00,843.63
5870,-3.8748,-0.3193,-0.1093,-445.07,734.13,-1297.06
5880,-3.8745,-0.5293,-0.1062,-866.94,-1969.42,-937.74
5890,-3.8743,-0.6688,-0.0745,258.06,-1579.16,1390.38
5900,-3.8743,-0.7214,-0.0406,-1601.32,-1516.97,-1390.81
5910,-3.8743,-0.7042,-0.0098,-335.69,-1188.96,1109.25
5920,-3.8744,-0.6420,0.0333,1867.43,-1235.78,-593.81
5930,-3.8744,-0.5677,0.0894,1836.18,279.97,406.31
5940,-3.8746,-0.5065,0.1456,-663.82,-548.03,-999.88
5950,-3.8748,-0.4467,0.1914,-820.07,-1344.79,812.74
5960,-3.8749,-0.3861,0.2129,-1163.82,514.71,1375.37
5970,-3.8749,-0.3452,0.1906,-1413.82,-735.17,-62.13
5980,-3.8745,-0.3552,0.1289,-179.44,405.52,1859.74
5990,-3.8740,-0.4183,0.0432,-1460.69,514.89,1297.12
6000,-3.8735,-0.4736,-0.0322,-1538.82,1546.02,437.56
6010,-3.8733,-0.4585,-0.0349,-616.94,-110.35,1249.88
6020,-3.8733,-0.3781,0.0403,1320.56,-454.04,-1718.87
6030,-3.8734,-0.2653,0.1337,-382.57,1171.08,1359.44
6040,-3.8737,-0.1318,0.1871,-1945.07,1124.45,672.12
6050,-3.8740,-0.0100,0.1866,-866.94,-31.56,-280.94
6060,-3.8740,0.0735,0.1598,-1273.19,-93.81,1890.93
6070,-3.8737,0.1403,0.1049,1414.31,453.25,1000.31
6080,-3.8729,0.1932,-0.0811,1961.18,1422.12,1937.68
6090,-3.8719,0.2085,-0.3597,742.43,1625.37,968.57
6100,-3.8715,0.1819,-0.4811,-1304.44,1953.49,-360.11
6110,-3.8716,0.1274,-0.3752,-710.69,-1577.82,-985.35
6120,-3.8722,0.1077,-0.1613,320.56,-31.01,-1219.54
6130,-3.8728,0.2150,0.0836,1789.31,-640.44,1530.88
6140,-3.8730,0.4863,0.3579,-476.32,-1296.51,1281.37
6150,-3.8727,0.8876,0.6141,-1741.94,1813.42,-1358.70
6160,-3.8718,1.3081,0.6776,1617.43,-1388.92,1563.66
6170,-3.8710,1.5885,0.4652,-554.44,-1263.12,548.16
6180,-3.8702,1.6390,0.0892,-663.82,-450.07,-1405.40
6190,-3.8695,1.4921,-0.3225,1804.93,-574.95,890.75
6200,-3.8691,1.2448,-0.6595,-1007.57,-1278.38,1264.95
6210,-3.8689,1.0165,-0.7906,-663.82,-419.49,498.66
6220,-3.8687,0.9293,-0.7063,-1882.57,-1201.17,-454.71
6230,-3.8680,1.0245,-0.5564,-1038.82,1595.52,-1970.15
6240,-3.8674,1.2273,-0.4794,-851.32,783.20,-1594.85
6250,-3.8672,1.4462,-0.4943,1101.81,-1356.99,-954.10
6260,-3.8674,1.6320,-0.5408,1117.43,737.18,624.02
6270,-3.8680,1.7654,-0.6038,898.68,-1215.58,483.28
6280,-3.8685,1.8132,-0.7568,1976.81,-1277.83,-1548.10
6290,-3.8684,1.6903,-1.0566,101.81,-871.46,1560.97
6300,-3.8679,1.3856,-1.4315,367.43,753.30,-205.20
6310,-3.8672,0.9960,-1.7295,1367.43,768.31,-1362.18
6320,-3.8665,0.5815,-1.8615,-507.57,-1373.11,918.46
6330,-3.8658,0.1591,-1.8256,-1554.44,1735.47,-1847.41
6340,-3.8652,-0.2239,-1.6584,367.43,-1671.57,902.65
6350,-3.8649,-0.4938,-1.4114,-648.19,-266.11,-518.92
6360,-3.8645,-0.5989,-1.1420,804.93,-641.60,919.07
6370,-3.8645,-0.5720,-0.9058,-648.19,1842.53,-642.88
6380,-3.8646,-0.4911,-0.7299,-1210.69,76.97,-1829.90
6390,-3.8649,-0.3783,-0.6115,1148.68,-1407.23,904.79
6400,-3.8652,-0.2334,-0.5417,-413.82,1749.21,-1266.85
6410,-3.8655,-0.0880,-0.5001,-1866.94,-1328.61,873.90
6420,-3.8657,0.0150,-0.4666,742.43,-0.18,233.34
6430,-3.8660,0.0460,-0.4424,1929.93,281.25,749.08
6440,-3.8662,-0.0116,-0.4292,1898.68,-624.94,1045.96
6450,-3.8665,-0.1527,-0.4283,-1476.32,1078.06,874.15
6460,-3.8667,-0.3563,-0.4613,461.18,1187.19,-407.10
6470,-3.8667,-0.5984,-0.5366,-1601.32,968.02,-329.04
6480,-3.8666,-0.8436,-0.6339,-585.69,-673.10,-1047.97
6490,-3.8665,-1.0674,-0.7275,23.68,-1126.65,311.22
6500,-3.8667,-1.2574,-0.7931,-616.94,-1111.51,-704.59
6510,-3.8671,-1.4003,-0.8096,-945.07,-1502.50,326.54
6520,-3.8679,-1.4926,-0.7688,773.68,387.88,1014.04
6530,-3.8691,-1.5186,-0.6843,961.18,1606.45,-798.40
6540,-3.8704,-1.4568,-0.5786,1633.06,418.88,-954.47
6550,-3.8713,-1.3347,-0.4733,1539.31,1950.26,-313.66
6560,-3.8718,-1.2196,-0.4019,1164.31,-565.12,702.15
6570,-3.8722,-1.1466,-0.3816,-101.32,575.68,1717.96
6580,-3.8724,-1.1030,-0.3910,1242.43,-830.38,-1203.92
6590,-3.8726,-1.0792,-0.4095,-1179.44,1966.55,1264.83
6600,-3.8727,-1.0856,-0.4373,1867.43,-408.39,155.40
6610,-3.8728,-1.1168,-0.4504,1054.93,44.74,46.02
6620,-3.8730,-1.1510,-0.4047,1054.93,-1642.82,-344.67
6630,-3.8732,-1.1781,-0.2971,679.93,216.49,1186.71
6640,-3.8735,-1.1931,-0.1615,1211.18,1982.06,-141.24
6650,-3.8738,-1.1735,-0.0474,-710.69,-658.63,827.76
6660,-3.8741,-1.0894,-0.0177,1804.93,1950.81,-640.75
6670,-3.8743,-0.9369,-0.0940,570.56,1747.86,-1421.94
6680,-3.8741,-0.7621,-0.2394,86.18,-17.46,374.76
6690,-3.8740,-0.6283,-0.4004,-1538.82,1373.47,-1000.49
6700,-3.8738,-0.5651,-0.5417,-413.82,764.34,983.58
6710,-3.8738,-0.5691,-0.6461,-320.07,-1329.28,-782.35
6720,-3.8738,-0.6165,-0.6807,-835.69,1311.34,-1641.91
6730,-3.8739,-0.6733,-0.6082,1101.81,889.40,-1938.84
6740,-3.8741,-0.7050,-0.4395,1820.56,-1829.47,795.65
6750,-3.8746,-0.6877,-0.2450,1773.68,-235.78,-1016.54
6760,-3.8439,-0.6200,-0.1006,-23.19,654.85,-281.74
6770,-3.8442,-0.5195,-0.0295,648.68,-860.60,-1078.37
6780,-3.8445,-0.4056,-0.0156,1508.06,233.34,-1031.31
6790,-3.8446,-0.2942,-0.0441,86.18,-1985.17,-281.31
6800,-3.8446,-0.1980,-0.0892,-1648.19,-1625.61,-15.75
6810,-3.8445,-0.1191,-0.1140,-1335.69,593.32,-1218.93
6820,-3.8444,-0.0437,-0.1244,758.06,1421.63,-906.49
6830,-3.8441,0.0311,-0.1394,-1585.69,93.63,1156.01
6840,-3.8439,0.0973,-0.1588,-7.57,-1843.75,-1672.18
6850,-3.8748,0.1691,-0.1918,461.18,-327.94,999.63
6860,-3.8745,0.2684,-0.2363,1648.68,-546.57,-1953.55
6870,-3.8743,0.3861,-0.2659,-1632.57,1750.49,-1156.74
6880,-3.8739,0.4984,-0.2548,1429.93,1969.48,-1531.80
6890,-3.8735,0.5975,-0.2152,-195.07,-608.46,-78.67
6900,-3.8732,0.6748,-0.1833,492.43,454.28,-1359.80
6910,-3.8729,0.7257,-0.1780,-1616.94,532.53,499.63
6920,-3.8729,0.7740,-0.2015,898.68,1220.15,-531.62
6930,-3.8727,0.8440,-0.2468,-913.82,-1795.41,577.70
6940,-3.8724,0.9199,-0.2690,39.31,407.90,-1375.49
6950,-3.8721,0.9626,-0.2434,1758.06,1564.27,-1719.30
6960,-3.8718,0.8740,-0.2091,-1445.07,-1420.23,-1969.12
6970,-3.8718,0.9313,-0.3320,-116.94,1236.02,-1234.80
6980,-3.8716,0.9772,-0.4868,-788.82,1501.77,561.83
6990,-3.8713,0.9370,-0.6049,1086.18,1689.39,311.52
7000,-3.8712,0.7789,-0.6691,-54.44,-1420.10,-1923.10
7010,-3.8712,0.5424,-0.7072,-288.82,-1639.16,-391.97
7020,-3.8711,0.2870,-0.7230,1429.93,1485.41,45.47
7030,-3.8710,0.0537,-0.7158,742.43,-546.33,1592.29
7040,-3.8706,-0.1211,-0.7533,-1116.94,375.06,-1267.03
7050,-3.8699,-0.2112,-0.8982,508.06,-406.49,1154.72
7060,-3.8689,-0.2305,-1.1156,976.81,1046.45,-1158.02
7070,-3.8676,-0.2240,-1.3123,-1491.94,1218.26,-189.70
7080,-3.8660,-0.2175,-1.4075,-663.82,46.39,1809.94
7090,-3.8649,-0.2368,-1.3945,164.31,-141.05,-49.68
7100,-3.8645,-0.3295,-1.3259,1695.56,1515.14,856.63
7110,-3.8654,-0.5187,-1.2233,1836.18,-1703.80,-518.25
7120,-3.8667,-0.7650,-1.1102,1617.43,-563.54,-1705.57
7130,-3.8679,-1.0061,-1.0715,-1913.82,1904.72,654.05
7140,-3.8688,-1.1866,-1.1346,-773.19,-1142.64,-377.14
7150,-3.8689,-1.2861,-1.2518,117.43,-1221.07,841.49
7160,-3.8688,-1.3350,-1.3519,-616.94,-221.31,-1643.13
7170,-3.8685,-1.3671,-1.3452,1133.06,-1033.87,1059.81
7180,-3.8685,-1.3939,-1.1998,1023.68,-174.56,669.19
7190,-3.8688,-1.4019,-0.9755,1586.18,-1565.25,-1705.51
7200,-3.8689,-1.3826,-0.7700,570.56,-846.50,1857.42
7210,-3.8688,-1.3375,-0.6356,-960.69,1450.38,295.35
7220,-3.8687,-1.2704,-0.5602,804.93,-1346.37,-1329.41
7230,-3.8684,-1.1896,-0.4950,1398.68,310.00,14.53
7240,-3.8684,-1.1019,-0.3922,-257.57,653.87,-1360.35
7250,-3.8683,-1.0189,-0.2296,-1038.82,1810.30,467.96
7260,-3.8682,-0.9507,0.0043,1586.18,-1377.01,374.51
7270,-3.8679,-0.8964,0.2712,-1679.44,560.61,921.88
7280,-3.8676,-0.8562,0.4717,1273.68,-1267.40,-374.51
7290,-3.8669,-0.8282,0.5452,-1585.69,388.92,-1217.83
7300,-3.8663,-0.8068,0.4987,1992.43,1795.23,-467.71
7310,-3.8657,-0.7983,0.3761,742.43,-157.84,-405.33
7320,-3.8652,-0.8136,0.2479,1820.56,154.66,-1249.27
7330,-3.8651,-0.8453,0.1609,-132.57,-251.65,-530.82
7340,-3.8652,-0.8662,0.1194,-195.07,607.67,187.81
7350,-3.8657,-0.8298,0.1161,1133.06,-704.83,890.81
7360,-3.8663,-0.7152,0.1169,1789.31,-1126.65,640.81
7370,-3.8672,-0.5713,0.0764,461.18,-1017.03,-1562.32
7380,-3.8682,-0.4786,0.0122,-1116.94,1795.72,-1843.63
7390,-3.8691,-0.4789,-0.0287,-1257.57,1577.15,640.62
7400,-3.8700,-0.5630,-0.0459,-1288.82,342.77,359.31
7410,-3.8706,-0.7074,-0.0764,-54.44,-1860.53,609.25
7420,-3.8710,-0.8408,-0.1489,1461.18,-1767.03,1499.82
7430,-3.8711,-0.8707,-0.2717,383.06,951.48,1687.19
7440,-3.8711,-0.7972,-0.4097,554.93,1232.67,-1281.80
7450,-3.8711,-0.6904,-0.4855,1961.18,-423.46,1717.90
7460,-3.8715,-0.6001,-0.4608,-366.94,1873.60,1561.52
7470,-3.8723,-0.5276,-0.3696,-804.44,1030.03,-297.79
7480,-3.8733,-0.4524,-0.2659,476.81,702.09,-1860.11
7490,-3.8743,-0.3567,-0.1895,-1898.19,1983.46,733.83
7500,-3.8439,-0.2355,-0.1891,-1648.19,-235.11,-437.93
7510,-3.8441,-0.1033,-0.2881,1867.43,-187.99,1608.95
7520,-3.8440,0.0370,-0.4525,-1210.69,-859.62,-688.11
7530,-3.8748,0.1794,-0.6150,742.43,-1921.81,-375.92
7540,-3.8740,0.2548,-0.7056,-1023.19,1281.56,1233.15
7550,-3.8734,0.2170,-0.7361,617.43,1687.99,1576.72
7560,-3.8730,0.1217,-0.7676,-210.69,1781.62,1389.16
7570,-3.8729,0.0431,-0.8091,-413.82,1750.18,670.35
7580,-3.8729,-0.0050,-0.8496,1523.68,437.56,498.41
7590,-3.8730,-0.0541,-0.8790,-632.57,-734.44,-1798.58
7600,-3.8732,-0.1173,-0.8909,1086.18,-500.12,1045.10
7610,-3.8734,-0.1724,-0.9056,992.43,1984.13,-1048.65
7620,-3.8734,-0.2186,-0.9417,1945.56,93.38,1545.10
7630,-3.8733,-0.2856,-0.9866,23.68,-516.05,-1767.52
7640,-3.8732,-0.3789,-0.9921,-554.44,1733.76,1169.92
7650,-3.8734,-0.4711,-0.9182,-491.94,1030.46,-1236.33
7660,-3.8739,-0.5347,-0.7894,-288.82,-1516.60,-1142.46
7670,-3.8744,-0.5710,-0.6641,-429.44,-1032.35,342.16
7680,-3.8748,-0.5988,-0.6082,-1085.69,-985.53,1983.03
7690,-3.8746,-0.6174,-0.6632,-632.57,-1829.35,1530.03
7700,-3.8743,-0.6193,-0.7750,976.81,-876.22,-610.72
7710,-3.8737,-0.6129,-0.8611,742.43,811.28,1060.97
7720,-3.8732,-0.5861,-0.8986,1554.93,1795.65,295.17
7730,-3.8729,-0.5049,-0.9092,992.43,998.84,-1533.02
7740,-3.8727,-0.3608,-0.9318,-616.94,-360.41,1779.42
7750,-3.8726,-0.1871,-0.9606,1820.56,749.27,-454.96
7760,-3.8724,-0.0427,-0.9510,54.93,1062.13,-1376.89
7770,-3.8724,0.0161,-0.8679,-1460.69,-1718.87,591.86
7780,-3.8727,-0.0193,-0.7181,-1929.44,906.25,967.04
7790,-3.8729,-0.1042,-0.5715,1539.31,93.69,514.22
7800,-3.8729,-0.1672,-0.4980,-1335.69,-1140.87,14.47
7810,-3.8727,-0.1506,-0.5033,-1398.19,265.26,-16.60
7820,-3.8721,-0.0583,-0.5203,726.81,-406.56,-63.54
7830,-3.8713,0.0304,-0.4622,539.31,1421.75,-907.29
7840,-3.8707,0.0032,-0.3052,-101.32,843.75,-797.79
7850,-3.8705,-0.1777,-0.0703,414.31,937.50,468.14
7860,-3.8708,-0.4065,0.2168,1258.06,-984.74,359.19
7870,-3.8715,-0.5383,0.4760,-23.19,-235.23,1125.37
7880,-3.8719,-0.5161,0.5964,-898.19,936.40,969.67
7890,-3.8722,-0.3517,0.5709,1945.56,358.34,-1076.97
7900,-3.8719,-0.0962,0.5039,-1007.57,1093.02,1954.22
7910,-3.8715,0.1550,0.4838,-304.44,515.38,-1608.40
7920,-3.8708,0.3254,0.5045,-148.19,1922.12,-1249.08
7930,-3.8704,0.3663,0.5333,1664.31,578.74,-1092.77
7940,-3.8701,0.2609,0.6101,-1101.32,266.30,1422.91
7950,-3.8701,0.0339,0.7572,1398.68,-1905.76,-1155.09
7960,-3.8700,-0.2786,0.8776,351.81,921.94,1142.09
7970,-3.8698,-0.6296,0.8619,351.81,343.20,1470.46
7980,-3.8694,-0.9917,0.7776,-585.69,-1657.53,-1029.60
7990,-3.8690,-1.3167,0.8807,1070.56,-455.08,1017.09
8000,-3.8689,-1.5150,1.3362,-523.19,747.38,564.21
8010,-3.8685,-1.5195,1.9612,-1913.82,-956.12,690.06
8020,-3.8673,-1.3151,2.2555,1508.06,-956.12,1628.78
8030,-3.8652,-1.0164,1.7924,-320.07,716.13,441.89
8040,-3.8632,-0.8369,0.8254,1914.31,1435.49,1878.48
8050,-3.8619,-0.8595,0.0790,883.06,1670.23,-670.29
8060,-3.8621,-1.0157,-0.1127,1992.43,-1876.71,-999.88
8070,-3.8633,-1.2135,0.1152,1992.43,1591.74,-1625.24
8080,-3.8650,-1.3193,0.5427,679.93,-1236.76,1250.18
8090,-3.8668,-1.2534,0.9298,-866.94,1481.75,1954.16
8100,-3.8684,-1.0851,1.0442,-429.44,-971.25,-1248.23
8110,-3.8694,-0.8964,0.8745,1117.43,1669.74,-1872.99
8120,-3.8698,-0.6921,0.6362,1273.68,-48.65,-1357.73
8130,-3.8698,-0.4749,0.4968,-585.69,1451.72,-467.53
8140,-3.8696,-0.2789,0.4580,-773.19,-391.60,438.42
8150,-3.8698,-0.1293,0.4559,304.93,-1359.92,985.23
8160,-3.8699,-0.0481,0.4586,-538.82,-1625.31,-1155.40
8170,-3.8698,-0.0399,0.4763,1851.81,-1281.37,1750.85
8180,-3.8696,-0.0828,0.5314,-1101.32,984.25,-1889.71
8190,-3.8695,-0.1842,0.5887,1414.31,31.07,969.79
8200,-3.8695,-0.3457,0.5758,429.93,-625.37,-1014.53
8210,-3.8695,-0.5007,0.5199,-241.94,1718.02,-1217.65
8220,-3.8696,-0.5620,0.5101,-85.69,-1438.54,-639.65
8230,-3.8699,-0.4894,0.5500,70.56,1311.40,-1295.90
8240,-3.8704,-0.3152,0.5840,1367.43,-1579.10,-561.46
8250,-3.8708,-0.0957,0.5864,-335.69,-1235.05,204.22
8260,-3.8716,0.1267,0.5377,-241.94,-922.12,-248.90
8270,-3.8721,0.3107,0.4302,226.81,828.37,266.66
8280,-3.8727,0.4248,0.2864,-226.32,-936.95,-561.71
8290,-3.8730,0.4584,0.1329,-1616.94,657.04,-1249.45
8300,-3.8733,0.4001,-0.0151,-1320.07,1016.48,-312.26
8310,-3.8733,0.2550,-0.1555,-773.19,-1936.77,-843.81
8320,-3.8730,0.0754,-0.2916,648.68,94.24,624.69
8330,-3.8729,-0.0726,-0.4338,1664.31,-1328.00,-703.74
8340,-3.8728,-0.1554,-0.5668,-1288.82,484.19,-1360.23
8350,-3.8728,-0.1787,-0.6509,117.43,-531.56,545.72
8360,-3.8732,-0.1873,-0.7056,1133.06,702.76,-329.41
8370,-3.8734,-0.2428,-0.7611,39.31,1702.76,1498.60
8380,-3.8737,-0.3318,-0.7878,929.93,-1406.74,-704.65
8390,-3.8738,-0.3993,-0.8052,1539.31,-828.80,467.16
8400,-3.8741,-0.4619,-0.8873,898.68,952.33,-1470.34
8410,-3.8744,-0.5485,-1.0242,883.06,-1563.42,-1142.40
8420,-3.8743,-0.6656,-1.1528,1804.93,920.78,1497.99
8430,-3.8738,-0.8235,-1.2572,-1195.07,451.78,-252.26
8440,-3.8728,-0.9983,-1.3262,-1398.19,-907.90,1575.62
8450,-3.8718,-1.1260,-1.3304,226.81,-1736.33,-1737.00
8460,-3.8710,-1.1637,-1.2664,-116.94,1716.49,200.50
8470,-3.8707,-1.1118,-1.1553,-945.07,1919.56,-1611.88
8480,-3.8710,-1.0121,-1.0132,1695.56,138.43,1013.37
8490,-3.8718,-0.9203,-0.8434,-1538.82,-1673.89,-502.01
8500,-3.8727,-0.8488,-0.6726,-1788.82,60.67,1607.73
8510,-3.8733,-0.7816,-0.5564,-632.57,1920.17,1170.53
8520,-3.8735,-0.7092,-0.5081,-38.82,795.29,-985.47
8530,-3.8734,-0.6417,-0.4897,1226.81,-1017.03,-469.79
8540,-3.8730,-0.6027,-0.4725,1867.43,1326.84,1467.77
8550,-3.8727,-0.5831,-0.4288,-1132.57,-469.97,1436.52
8560,-3.8724,-0.5439,-0.3055,1367.43,1123.84,1921.02
8570,-3.8724,-0.4496,-0.0958,-1616.94,905.15,780.64
8580,-3.8728,-0.2856,0.1086,-1538.82,-250.92,-1890.87
8590,-3.8733,-0.0740,0.2250,-554.44,1921.26,-31.07
8600,-3.8735,0.1331,0.2524,-1460.69,812.32,-1390.20
8610,-3.8735,0.3042,0.2598,1039.31,312.74,1828.61
8620,-3.8733,0.4362,0.3607,-1054.44,1250.55,984.86
8630,-3.8729,0.5133,0.5857,-163.82,-1827.33,-733.70
8640,-3.8724,0.5250,0.8112,1711.18,-1030.27,-1514.53
8650,-3.8722,0.4728,0.9192,-788.82,-170.90,-295.35
8660,-3.8719,0.3809,0.9277,523.68,1657.17,142.40
8670,-3.8718,0.2966,0.8812,758.06,-1249.27,158.02
8680,-3.8717,0.2339,0.7760,1976.81,797.42,-1279.54
8690,-3.8713,0.1852,0.6156,1945.56,-671.45,-779.79
8700,-3.8707,0.1675,0.4003,-288.82,-1202.82,-295.72
8710,-3.8698,0.1875,0.1544,1445.56,-765.32,219.48
8720,-3.8688,0.2189,-0.0413,8.06,-234.01,-937.26
8730,-3.8677,0.2261,-0.1259,23.68,-1280.82,-1093.87
8740,-3.8667,0.1982,-0.1254,945.56,-108.95,1968.44
8750,-3.8661,0.1288,-0.1250,1383.06,-46.51,-1250.31
8760,-3.8660,-0.0327,-0.2075,492.43,0.24,-468.99
8770,-3.8663,-0.3077,-0.3671,-179.44,1453.00,671.45
8780,-3.8673,-0.6000,-0.4657,617.43,1030.64,483.64
8790,-3.8684,-0.7834,-0.3788,-788.82,405.03,499.08
8800,-3.8693,-0.8142,-0.1487,-273.19,-470.34,1233.58
8810,-3.8698,-0.7488,0.0996,-210.69,982.73,749.69
8820,-3.8700,-0.6633,0.3052,164.31,764.16,156.43
8830,-3.8701,-0.5813,0.4683,-898.19,-923.22,391.17
8840,-3.8702,-0.5057,0.5884,1601.81,-48.03,-1686.65
8850,-3.8704,-0.4448,0.6370,-726.32,-672.91,-780.15
8860,-3.8704,-0.4059,0.5924,-929.44,1545.96,376.22
8870,-3.8704,-0.3829,0.4784,54.93,-157.04,1266.72
8880,-3.8702,-0.3573,0.3409,-1007.57,1249.21,1438.42
8890,-3.8702,-0.3281,0.2195,-1726.32,-344.48,-936.89
8900,-3.8704,-0.3070,0.1332,-1991.94,108.70,-374.57
8910,-3.8705,-0.2867,0.0922,711.18,1061.89,1031.49
8920,-3.8707,-0.2507,0.0958,-695.07,-188.11,672.00
8930,-3.8711,-0.2087,0.1066,-85.69,280.70,-202.94
8940,-3.8713,-0.1819,0.0800,1289.31,1655.82,-952.94
8950,-3.8716,-0.1650,-0.0039,726.81,-1750.37,1422.00
8960,-3.8719,-0.1368,-0.1364,-1116.94,-484.74,1968.69
8970,-3.8723,-0.0958,-0.2777,-1507.57,-1437.81,812.19
8980,-3.8728,-0.0731,-0.4039,-257.57,468.51,-1453.67
8990,-3.8732,-0.1127,-0.5294,-1351.32,312.32,1467.96
9000,-3.8735,-0.2528,-0.6814,1586.18,249.76,-1266.66
9010,-3.8738,-0.5203,-0.8687,-351.32,796.33,-1157.59
9020,-3.8738,-0.9043,-1.0413,1414.31,827.09,-251.71
9030,-3.8733,-1.3524,-1.1561,258.06,-1267.40,-1986.45
9040,-3.8724,-1.7954,-1.2554,-1101.32,28.56,13.37
9050,-3.8716,-2.1775,-1.3605,-1804.44,-675.42,-471.25
9060,-3.8707,-2.4651,-1.4205,1289.31,1870.73,-596.44
9070,-3.8702,-2.6100,-1.3864,476.81,-1817.32,-1909.06
9080,-3.8704,-2.5726,-1.2460,1929.93,-1442.63,887.88
9090,-3.8711,-2.3839,-1.0341,-1288.82,526.18,1388.18
9100,-3.8721,-2.1184,-0.7955,-1132.57,-348.45,404.17
9110,-3.8732,-1.8352,-0.5752,851.81,-1816.65,-814.09
9120,-3.8740,-1.5752,-0.4153,1101.81,-1612.98,-876.16
9130,-3.8746,-1.3766,-0.3252,-1616.94,-1143.74,-1375.85
9140,-3.8749,-1.2711,-0.2969,-195.07,-1612.12,796.20
9150,-3.8748,-1.2570,-0.3339,1304.93,-1986.88,1202.51
9160,-3.8743,-1.2786,-0.4294,-882.57,1278.75,-1938.17
9170,-3.8737,-1.2616,-0.5140,351.81,1044.37,-719.60
9180,-3.8732,-1.1722,-0.5123,-1476.32,-1783.75,-829.16
9190,-3.8729,-1.0386,-0.4170,1961.18,-1564.82,1045.84
9200,-3.8730,-0.9242,-0.2743,-929.44,-1361.45,-0.85
9210,-3.8730,-0.8495,-0.1405,1711.18,904.42,-1828.67
9220,-3.8730,-0.7814,-0.0437,-726.32,-1970.46,-594.06
9230,-3.8728,-0.6929,0.0149,-7.57,-1579.71,1015.50
9240,-3.8726,-0.5831,0.0457,-679.44,1920.47,-156.25
9250,-3.8721,-0.4628,0.0430,1367.43,1858.22,-1687.44
9260,-3.8716,-0.3307,0.0166,773.68,1514.71,859.44
9270,-3.8712,-0.1776,0.0239,1679.93,-1860.05,1718.75
9280,-3.8708,-0.0062,0.1056,1273.68,-922.24,375.00
9290,-3.8706,0.1724,0.2385,-788.82,1531.19,984.56
9300,-3.8704,0.3541,0.3684,-1929.44,-1468.44,1844.18
9310,-3.8699,0.5192,0.4475,1336.18,-843.08,360.05
9320,-3.8693,0.6450,0.4506,-1538.82,1282.23,-936.65
9330,-3.8683,0.7494,0.4017,-1429.44,1673.10,391.48
9340,-3.8672,0.8950,0.4139,-70.07,-576.72,-1952.39
9350,-3.8655,1.1129,0.5381,-1429.44,986.08,1532.04
9360,-3.8636,1.2688,0.5891,-1538.82,877.14,-1858.34
9370,-3.8629,1.2196,0.4441,-1585.69,-591.31,-1342.65
9380,-3.8635,0.9998,0.2435,117.43,846.13,203.98
9390,-3.8649,0.6942,0.1440,-23.19,-826.23,-1921.45
9400,-3.8661,0.3630,0.1556,867.43,-1561.16,-1452.88
9410,-3.8669,0.0255,0.1848,-1523.19,-77.45,593.99
9420,-3.8676,-0.3492,0.1458,-726.32,-343.75,-968.44
9430,-3.8678,-0.7778,0.0577,-695.07,-1328.86,625.24
9440,-3.8683,-1.1835,0.0281,445.56,-595.28,-1203.06
9450,-3.8689,-1.4276,0.1003,523.68,-392.94,-1984.38
9460,-3.8696,-1.4459,0.1984,1273.68,856.57,968.93
9470,-3.8705,-1.3030,0.2527,-1070.07,1403.38,-874.63
9480,-3.8712,-1.1138,0.2732,1226.81,356.81,1031.74
9490,-3.8721,-0.9606,0.2864,1445.56,-1017.82,469.24
9500,-3.8730,-0.8745,0.2957,1054.93,669.98,1406.80
9510,-3.8740,-0.8407,0.3030,70.56,1857.67,-1546.33
9520,-3.8749,-0.8403,0.3162,398.68,-1204.77,-1968.20
9530,-3.8442,-0.8831,0.3362,445.56,482.73,141.24
9540,-3.8446,-0.9838,0.3512,-1023.19,-954.90,141.24
9550,-3.8447,-1.1466,0.3412,-1913.82,966.80,1297.55
9560,-3.8446,-1.3553,0.2726,1242.43,-314.76,1578.74
9570,-3.8442,-1.5696,0.1299,-1476.32,-1096.44,1844.24
9580,-3.8749,-1.7515,-0.0433,-898.19,637.51,1281.49
9590,-3.8743,-1.9116,-0.1908,-179.44,-1534.73,390.50
9600,-3.8739,-2.1132,-0.3126,-679.44,-410.03,-1562.93
9610,-3.8735,-2.3849,-0.4351,1523.68,-4.15,-703.80
9620,-3.8730,-2.6682,-0.5583,-1257.57,323.43,-1563.35
9630,-3.8726,-2.8701,-0.6766,-1523.19,541.63,1639.53
9640,-3.8722,-2.9443,-0.8063,633.06,1400.63,-1641.97
9650,-3.8719,-2.9012,-0.9591,-866.94,806.70,-32.84
9660,-3.8722,-2.2723,-1.2529,70.56,1588.75,-689.88
9670,-3.8726,-1.9137,-1.2700,1148.68,-363.83,-174.38
9680,-3.8727,-1.5337,-1.2969,-945.07,1449.34,1388.12
9690,-3.8727,-1.1807,-1.3564,-304.44,-1987.43,-580.69
9700,-3.8723,-0.8757,-1.4344,883.06,-1611.69,1028.56
9710,-3.8719,-0.6233,-1.4796,-85.69,404.48,1028.44
9720,-3.8717,-0.4161,-1.4510,226.81,-1376.22,-1534.18
9730,-3.8716,-0.2488,-1.3652,-1257.57,-1719.60,-627.87
9740,-3.8715,-0.1213,-1.2721,164.31,1265.14,950.44
9750,-3.8715,-0.0389,-1.1987,476.81,1187.26,1575.62
9760,-3.8715,-0.0007,-1.1376,-976.32,-1422.00,1341.37
9770,-3.8716,0.0140,-1.0774,-85.69,-1593.81,-877.26
9780,-3.8716,0.0380,-1.0359,1804.93,-1906.25,325.99
9790,-3.8716,0.1047,-1.0465,867.43,-593.69,-1642.70
9800,-3.8712,0.2269,-1.1106,1414.31,-1952.94,-1127.08
9810,-3.8705,0.4000,-1.1919,1054.93,1844.18,966.55
9820,-3.8698,0.6000,-1.2623,-788.82,-561.77,1763.24
9830,-3.8691,0.7806,-1.3212,804.93,-1576.97,1091.25
9840,-3.8689,0.9044,-1.3718,-70.07,-1107.91,-830.75
9850,-3.8688,0.9578,-1.4302,-226.32,407.96,-1283.94
9860,-3.8688,0.9421,-1.4977,-1398.19,939.33,-1877.81
9870,-3.8690,0.8759,-1.5199,601.81,298.71,-1018.55
9880,-3.8694,0.7893,-1.4406,117.43,1454.83,856.38
9890,-3.8699,0.6913,-1.2909,1039.31,-389.10,-1815.37
9900,-3.8701,0.5962,-1.1277,492.43,-1233.03,825.56
9910,-3.8702,0.5553,-0.9462,320.56,-342.59,1997.74
9920,-3.8701,0.5864,-0.7426,-913.82,-1108.34,-845.64
9930,-3.8698,0.6346,-0.5630,-929.44,954.22,1795.41
9940,-3.8696,0.6254,-0.4589,1242.43,-61.28,-188.66
9950,-3.8696,0.5305,-0.4131,54.93,1266.85,639.71
9960,-3.8699,0.3781,-0.3715,-85.69,-874.02,1311.65
9970,-3.8701,0.2065,-0.3307,398.68,453.86,1233.64
9980,-3.8704,0.0448,-0.3070,-1554.44,1672.24,139.95
9990,-3.8707,-0.0823,-0.2767,1742.43,703.19,1280.64
10000,-3.8712,-0.1686,-0.2184,1476.81,593.57,-359.92
10010,-3.8717,-0.2118,-0.1533,-1570.07,62.13,-437.93
10020,-3.8722,-0.2000,-0.1058,898.68,390.20,-500.31
10030,-3.8726,-0.1433,-0.0743,-1585.69,-1531.68,-1703.37
10040,-3.8728,-0.0416,-0.0558,1664.31,-1500.31,-1781.43
10050,-3.8728,0.1046,-0.0868,-1320.07,874.88,-1937.62
