timestamp_ms,ax,ay,az,gx,gy,gz
0,-3.8455,-1.5028,0.0166,851.81,-65.43,843.93
10,-3.8455,-1.4784,-0.1125,-351.32,-1862.37,-859.38
20,-3.8453,-1.4086,-0.2489,-1226.32,1606.45,-1015.87
30,-3.8452,-1.3280,-0.3704,-288.82,153.44,-656.74
40,-3.8451,-1.2863,-0.4778,-1976.32,606.75,-547.61
50,-3.8450,-1.2937,-0.5884,-632.57,-1143.19,-32.23
60,-3.8447,-1.3329,-0.7059,-1585.69,700.56,-1657.41
70,-3.8445,-1.3956,-0.8203,1398.68,1653.63,1279.85
80,-3.8444,-1.4690,-0.9296,1367.43,-987.12,-1079.77
90,-3.8442,-1.5409,-1.0514,-23.19,1028.32,-611.21
100,-3.8441,-1.5996,-1.2035,-1226.32,1434.45,-267.70
110,-3.8439,-1.6145,-1.3750,-741.94,1965.58,1278.87
120,-3.8749,-1.5699,-1.5336,1351.81,12.45,1372.31
130,-3.8745,-1.4855,-1.6526,-945.07,-284.36,450.07
140,-3.8741,-1.3850,-1.7274,1867.43,481.45,1074.89
150,-3.8738,-1.2778,-1.7780,-1273.19,-1096.50,-362.79
160,-3.8732,-1.1677,-1.8032,445.56,435.00,418.40
170,-3.8728,-1.0548,-1.7753,-1460.69,1200.81,-925.42
180,-3.8726,-0.9248,-1.6920,992.43,779.17,-347.23
190,-3.8724,-0.7747,-1.5862,1633.06,-564.33,-456.48
200,-3.8723,-0.6150,-1.4926,851.81,982.85,-753.11
210,-3.8721,-0.4500,-1.4237,1289.31,967.53,1231.45
220,-3.8718,-0.2823,-1.3798,-1585.69,1780.33,1778.44
230,-3.8715,-0.1229,-1.3621,-132.57,-594.36,544.13
240,-3.8712,0.0101,-1.3702,273.68,1671.63,-393.31
250,-3.8708,0.1112,-1.3936,1304.93,609.38,356.69
260,-3.8707,0.1908,-1.4178,-1757.57,1625.18,-877.75
270,-3.8705,0.2655,-1.4144,429.93,-1484.01,200.32
280,-3.8705,0.3555,-1.3524,1992.43,-1046.39,-1190.31
290,-3.8704,0.4750,-1.2573,1508.06,-1108.70,1262.94
300,-3.8702,0.6250,-1.1807,804.93,-936.58,-1736.88
310,-3.8700,0.7842,-1.1355,8.06,876.22,-1674.19
320,-3.8698,0.9248,-1.0989,383.06,-1342.22,-752.26
330,-3.8695,1.0278,-1.0485,-1616.94,-654.48,1325.93
340,-3.8695,1.0878,-0.9836,-429.44,1798.83,-1658.33
350,-3.8696,1.1102,-0.9203,-757.57,-1904.17,-1486.33
360,-3.8698,1.0946,-0.8710,-1882.57,-1794.74,404.42
370,-3.8700,1.0425,-0.8245,117.43,517.76,-939.21
380,-3.8701,0.9678,-0.7627,1445.56,-1529.24,-1642.27
390,-3.8702,0.8954,-0.6901,-116.94,-1623.17,592.22
400,-3.8705,0.8389,-0.6307,-1382.57,-326.42,1639.22
410,-3.8707,0.7899,-0.5963,-616.94,-732.79,-1876.28
420,-3.8710,0.7452,-0.5731,1117.43,-326.60,-860.60
430,-3.8711,0.7094,-0.5475,-601.32,-1357.97,592.59
440,-3.8713,0.6747,-0.5249,-1195.07,1923.22,1092.65
450,-3.8716,0.6299,-0.5137,-1632.57,813.78,280.21
460,-3.8719,0.5702,-0.5140,633.06,-1748.78,-1344.79
470,-3.8722,0.4948,-0.5316,992.43,-1795.78,1811.46
480,-3.8723,0.4113,-0.5756,-663.82,-45.96,327.03
490,-3.8724,0.3252,-0.6366,648.68,-1671.08,-1282.41
500,-3.8724,0.2343,-0.6833,1633.06,-1483.76,-1329.41
510,-3.8724,0.1477,-0.7015,1992.43,531.68,-1079.47
520,-3.8724,0.0830,-0.7119,-1085.69,-1796.63,-876.40
530,-3.8724,0.0503,-0.7357,-1366.94,875.12,-298.28
540,-3.8723,0.0420,-0.7825,-1554.44,1828.19,-1470.21
550,-3.8722,0.0314,-0.8459,1383.06,-156.19,-485.96
560,-3.8719,0.0023,-0.9084,23.68,-281.19,654.54
570,-3.8718,-0.0365,-0.9607,304.93,-281.25,482.54
580,-3.8718,-0.0774,-0.9988,-663.82,1046.75,1888.73
590,-3.8718,-0.1260,-1.0260,-1898.19,171.69,1404.30
600,-3.8718,-0.1909,-1.0540,-116.94,687.19,404.24
610,-3.8719,-0.2799,-1.0897,-429.44,1108.95,-314.58
620,-3.8719,-0.3931,-1.1316,179.93,530.70,-595.89
630,-3.8719,-0.5250,-1.1847,1695.56,-828.92,-1502.26
640,-3.8719,-0.6658,-1.2659,804.93,373.96,528.93
650,-3.8721,-0.7996,-1.3781,-1210.69,1983.03,-1486.88
660,-3.8721,-0.9324,-1.4939,1664.31,-376.59,28.50
670,-3.8723,-1.0890,-1.5767,664.31,795.04,-393.55
680,-3.8724,-1.2760,-1.6010,617.43,-1799.01,-1862.49
690,-3.8726,-1.4738,-1.5618,679.93,-908.75,-1987.55
700,-3.8727,-1.6537,-1.4696,-632.57,106.45,-565.55
710,-3.8727,-1.7877,-1.3405,336.18,-96.98,340.82
720,-3.8729,-1.8594,-1.1958,-820.07,433.96,-1674.50
730,-3.8732,-1.8810,-1.0507,-1991.94,-1050.54,560.12
740,-3.8735,-1.8872,-0.9106,-757.57,1527.53,607.30
750,-3.8739,-1.9052,-0.7738,-1554.44,-550.60,685.67
760,-3.8743,-1.9347,-0.6304,148.68,965.03,1857.85
770,-3.8745,-1.9592,-0.4778,367.43,-675.66,45.59
780,-3.8749,-1.9719,-0.3239,1226.81,-1144.47,-1094.73
790,-3.8439,-1.9769,-0.1787,-398.19,-1441.41,-1797.55
800,-3.8441,-1.9808,-0.0562,-1038.82,1136.72,-1203.49
810,-3.8442,-1.9879,0.0347,-1538.82,824.22,1734.25
820,-3.8444,-1.9883,0.1006,1554.93,449.22,-906.19
830,-3.8444,-1.9674,0.1583,1508.06,886.72,1703.31
840,-3.8445,-1.9224,0.2188,179.93,277.40,-62.19
850,-3.8445,-1.8586,0.2799,1945.56,11.84,1797.30
860,-3.8445,-1.7867,0.3319,-1898.19,-159.91,109.86
870,-3.8446,-1.7211,0.3652,-695.07,-1503.54,-999.39
880,-3.8446,-1.6680,0.3790,-288.82,-1237.79,-1811.83
890,-3.8446,-1.6240,0.3790,-1491.94,527.95,1656.98
900,-3.8446,-1.5889,0.3684,133.06,528.08,1250.73
910,-3.8446,-1.5624,0.3431,633.06,-831.24,313.17
920,-3.8447,-1.5374,0.2986,23.68,-65.55,-655.64
930,-3.8447,-1.5084,0.2312,-773.19,-1768.68,-171.33
940,-3.8446,-1.4725,0.1373,-1070.07,1606.38,-1327.70
950,-3.8445,-1.4299,0.0341,-476.32,1590.82,-374.76
960,-3.8442,-1.3931,-0.0482,976.81,372.19,1312.56
970,-3.8441,-1.3750,-0.1028,1695.56,1841.00,-1328.25
980,-3.8440,-1.3701,-0.1448,8.06,-1143.31,-718.99
990,-3.8439,-1.3595,-0.1920,633.06,1481.69,-1156.56
1000,-3.8750,-1.3314,-0.2512,1992.43,-565.19,1983.95
1010,-3.8749,-1.2849,-0.3237,1586.18,-143.25,-1938.05
1020,-3.8748,-1.2264,-0.4117,-460.69,-1424.44,-297.55
1030,-3.8745,-1.1716,-0.5048,-976.32,-689.94,-1594.60
1040,-3.8743,-1.1434,-0.5901,-1960.69,-596.07,1952.09
1050,-3.8740,-1.1487,-0.6729,1648.68,482.12,-969.91
1060,-3.8737,-1.1628,-0.7518,976.81,1888.37,467.41
1070,-3.8735,-1.1637,-0.8193,-835.69,-221.07,-1376.53
1080,-3.8735,-1.1593,-0.8865,-945.07,-861.69,-439.15
1090,-3.8735,-1.1766,-0.9703,-382.57,-1455.44,1263.85
1100,-3.8737,-1.2292,-1.0725,1398.68,-189.82,-1.95
1110,-3.8735,-1.2943,-1.1704,-1335.69,-1268.07,-1299.01
1120,-3.8733,-1.3320,-1.2365,-1663.82,-1799.44,263.31
1130,-3.8732,-1.3129,-1.2596,1508.06,1747.38,1825.68
1140,-3.8730,-1.2294,-1.2452,-38.82,-1221.37,-1955.63
1150,-3.8729,-1.0967,-1.2130,-1351.32,622.56,1685.06
1160,-3.8728,-0.9346,-1.1801,-366.94,747.80,1575.74
1170,-3.8727,-0.7609,-1.1522,383.06,966.92,1982.06
1180,-3.8726,-0.5958,-1.1311,-1382.57,529.72,-424.13
1190,-3.8723,-0.4476,-1.1068,-257.57,-766.85,1294.62
1200,-3.8722,-0.3033,-1.0602,-1288.82,-1657.17,1029.05
1210,-3.8722,-0.1498,-0.9980,1179.93,311.89,-705.20
1220,-3.8721,0.0104,-0.9509,836.18,265.32,-1611.33
1230,-3.8719,0.1639,-0.9357,1336.18,-1718.75,-830.02
1240,-3.8717,0.3070,-0.9490,992.43,234.68,623.17
1250,-3.8716,0.4474,-0.9730,-695.07,-1468.20,-1845.64
1260,-3.8713,0.5829,-1.0006,1273.68,-546.02,1029.30
1270,-3.8711,0.6974,-1.0493,-1382.57,-77.03,-345.76
1280,-3.8706,0.7773,-1.1312,1273.68,1688.84,-1205.20
1290,-3.8700,0.8291,-1.2183,-491.94,-795.41,1028.99
1300,-3.8695,0.8678,-1.2596,-1866.94,64.09,-1189.88
1310,-3.8691,0.8921,-1.2362,-913.82,-1232.73,-783.75
1320,-3.8690,0.8911,-1.1685,-1804.44,1767.33,-955.57
1330,-3.8691,0.8699,-1.0840,-1929.44,-1560.79,-1596.07
1340,-3.8695,0.8529,-1.0071,-648.19,1251.65,-17.76
1350,-3.8699,0.8552,-0.9565,1179.93,-904.60,-1252.01
1360,-3.8702,0.8564,-0.9355,1476.81,1564.15,1154.36
1370,-3.8706,0.8215,-0.9279,1633.06,251.65,1935.67
1380,-3.8708,0.7444,-0.9088,1164.31,1235.96,-1829.96
1390,-3.8710,0.6515,-0.8682,-710.69,-326.72,716.92
1400,-3.8711,0.5735,-0.8137,-601.32,876.22,13.92
1410,-3.8713,0.5248,-0.7583,1414.31,-155.15,-689.15
1420,-3.8715,0.4991,-0.7163,-820.07,-1061.52,-1767.15
1430,-3.8716,0.4810,-0.6946,-101.32,313.42,670.47
1440,-3.8718,0.4602,-0.6899,1570.56,-905.33,-563.90
1450,-3.8719,0.4349,-0.7020,-1085.69,-311.65,-767.03
1460,-3.8719,0.4030,-0.7328,-320.07,-1858.58,670.47
1470,-3.8719,0.3590,-0.7833,-413.82,-1796.14,545.41
1480,-3.8719,0.3071,-0.8416,1961.18,-264.95,-1392.21
1490,-3.8718,0.2606,-0.8794,-679.44,281.80,1107.73
1500,-3.8718,0.2214,-0.8881,1367.43,-562.01,-1533.02
1510,-3.8718,0.1882,-0.8793,351.81,-1671.45,-1517.40
1520,-3.8718,0.1625,-0.8693,101.81,-546.51,1420.10
1530,-3.8719,0.1406,-0.8750,804.93,734.68,-79.83
1540,-3.8719,0.1130,-0.9109,-1991.94,0.24,-1001.71
1550,-3.8719,0.0635,-0.9865,-1523.19,-593.57,-33.08
1560,-3.8718,-0.0173,-1.0879,133.06,1734.50,-830.08
1570,-3.8717,-0.1304,-1.1758,1789.31,765.56,-1080.26
1580,-3.8716,-0.2693,-1.2162,-679.44,1515.32,294.56
1590,-3.8717,-0.4219,-1.2148,1539.31,343.20,1606.99
1600,-3.8718,-0.5779,-1.2070,-1991.94,514.77,247.62
1610,-3.8721,-0.7313,-1.2219,-1960.69,1514.47,-361.76
1620,-3.8721,-0.8770,-1.2650,-1601.32,-392.09,-799.32
1630,-3.8718,-1.0031,-1.3224,-241.94,-1908.02,231.87
1640,-3.8716,-1.0978,-1.3760,-382.57,-1252.01,263.00
1650,-3.8715,-1.1692,-1.4114,-507.57,-111.57,-1627.75
1660,-3.8715,-1.2437,-1.4226,-1648.19,-642.94,-424.68
1670,-3.8715,-1.3339,-1.4062,820.56,1919.43,278.44
1680,-3.8717,-1.4250,-1.3464,1273.68,13.00,1669.13
1690,-3.8719,-1.5035,-1.2307,1601.81,-330.93,966.06
1700,-3.8723,-1.5596,-1.0768,-445.07,-1518.62,-846.19
1710,-3.8726,-1.5819,-0.9197,383.06,-1815.55,872.86
1720,-3.8729,-1.5692,-0.7896,1523.68,-1706.24,-220.58
1730,-3.8730,-1.5308,-0.6989,-851.32,-1049.99,1810.91
1740,-3.8732,-1.4858,-0.6396,70.56,-1440.49,-595.15
1750,-3.8732,-1.4672,-0.5995,1820.56,-1862.30,-970.03
1760,-3.8732,-1.4933,-0.5566,211.18,-721.62,-1188.72
1770,-3.8732,-1.5444,-0.4792,867.43,762.70,1405.15
1780,-3.8733,-1.5916,-0.3623,-1679.44,-1331.18,1061.52
1790,-3.8735,-1.6255,-0.2313,289.31,1637.51,843.02
1800,-3.8739,-1.6466,-0.1118,-54.44,-1596.98,-1656.74
1810,-3.8741,-1.6515,-0.0126,1242.43,1699.89,171.63
1820,-3.8745,-1.6392,0.0704,617.43,-1596.98,-437.56
1830,-3.8746,-1.6136,0.1398,-1804.44,1028.02,297.00
1840,-3.8749,-1.5833,0.1908,1461.18,1903.08,-1734.13
1850,-3.8750,-1.5554,0.2260,1351.81,434.39,1734.74
1860,-3.8439,-1.5308,0.2562,914.31,934.45,-1124.57
1870,-3.8439,-1.5093,0.2833,70.56,809.51,891.11
1880,-3.8440,-1.4918,0.3090,-1179.44,278.26,-1233.83
1890,-3.8440,-1.4792,0.3380,1054.93,-440.43,563.05
1900,-3.8441,-1.4735,0.3583,-1335.69,-721.68,-1624.39
1910,-3.8442,-1.4753,0.3533,-601.32,1872.07,-264.95
1920,-3.8442,-1.4771,0.3191,-835.69,1231.45,1156.92
1930,-3.8442,-1.4645,0.2582,-1054.44,856.45,141.24
1940,-3.8442,-1.4415,0.1783,554.93,1059.63,1828.61
1950,-3.8441,-1.4252,0.0879,-507.57,-1159.12,-1530.94
1960,-3.8439,-1.4214,-0.0006,1586.18,-737.18,609.50
1970,-3.8750,-1.4221,-0.0759,-1929.44,-65.31,1843.69
1980,-3.8749,-1.4125,-0.1383,1976.81,-1705.93,1046.69
1990,-3.8749,-1.3840,-0.1932,-788.82,-1690.31,-1250.31
2000,-3.8749,-1.3385,-0.2517,-1148.19,-721.50,-0.43
2010,-3.8748,-1.2883,-0.3265,679.93,-205.75,1374.45
2020,-3.8748,-1.2540,-0.4219,-898.19,-1783.81,-516.30
2030,-3.8746,-1.2438,-0.5238,-507.57,-1986.88,-938.35
2040,-3.8745,-1.2516,-0.6167,804.93,966.31,-266.66
2050,-3.8743,-1.2648,-0.7050,-195.07,1075.62,108.15
2060,-3.8743,-1.2716,-0.7931,-1882.57,1778.75,-313.90
2070,-3.8741,-1.2675,-0.8805,1242.43,-1502.50,-548.46
2080,-3.8740,-1.2479,-0.9628,1773.68,-690.00,-126.77
2090,-3.8738,-1.2098,-1.0306,273.68,778.81,310.61
2100,-3.8737,-1.1534,-1.0840,1148.68,91.37,232.36
2110,-3.8737,-1.0836,-1.1356,367.43,1263.37,-705.26
2120,-3.8735,-1.0079,-1.1981,1304.93,-1345.89,-1955.38
2130,-3.8734,-0.9351,-1.2778,-1007.57,-1345.76,-1518.01
2140,-3.8732,-0.8724,-1.3647,320.56,451.29,1278.75
2150,-3.8729,-0.8193,-1.4290,336.18,1326.42,575.44
2160,-3.8728,-0.7648,-1.4580,-866.94,1107.73,-612.18
2170,-3.8726,-0.7019,-1.4695,-1882.57,1389.10,1387.76
2180,-3.8724,-0.6287,-1.4823,-1835.69,-79.53,-596.68
2190,-3.8721,-0.5366,-1.5092,-460.69,-1720.03,450.20
2200,-3.8717,-0.4292,-1.5570,-679.44,-1157.35,1372.01
2210,-3.8713,-0.3197,-1.6141,1070.56,717.90,-96.80
2220,-3.8708,-0.2119,-1.6547,-913.82,1405.58,-1893.80
2230,-3.8705,-0.1050,-1.6649,883.06,218.32,-1128.23
2240,-3.8701,0.0000,-1.6465,-1429.44,-1093.99,871.70
2250,-3.8700,0.1050,-1.6011,8.06,1250.00,-1503.23
2260,-3.8700,0.2186,-1.5282,1445.56,-937.32,-1081.30
2270,-3.8700,0.3453,-1.4431,-7.57,390.99,278.26
2280,-3.8701,0.4868,-1.3767,211.18,-718.08,-1518.49
2290,-3.8700,0.6414,-1.3453,-1679.44,-217.83,528.50
2300,-3.8699,0.7936,-1.3385,-1898.19,-201.90,-1268.31
2310,-3.8696,0.9219,-1.3297,1586.18,673.40,-1549.50
2320,-3.8695,1.0127,-1.2885,-1991.94,1798.65,-424.50
2330,-3.8695,1.0623,-1.2008,1633.06,-919.92,-1033.81
2340,-3.8696,1.0715,-1.0773,-23.19,-1701.11,91.37
2350,-3.8700,1.0481,-0.9434,1164.31,-1888.55,1216.61
2360,-3.8704,1.0116,-0.8209,-1835.69,-747.99,1279.36
2370,-3.8707,0.9819,-0.7231,1492.43,-1076.17,1935.85
2380,-3.8710,0.9603,-0.6638,1695.56,-560.61,873.54
2390,-3.8711,0.9397,-0.6461,-1070.07,-966.92,92.41
2400,-3.8712,0.9154,-0.6427,289.31,1298.71,-1376.28
2410,-3.8712,0.8827,-0.6239,1179.93,1736.15,686.22
2420,-3.8715,0.8403,-0.5968,992.43,142.33,-79.35
2430,-3.8716,0.7860,-0.5828,-429.44,-389.04,623.78
2440,-3.8718,0.7183,-0.5879,617.43,1407.78,686.34
2450,-3.8721,0.6417,-0.6077,-54.44,751.34,-1782.41
2460,-3.8722,0.5577,-0.6483,-1851.32,-1780.03,-1860.60
2470,-3.8722,0.4641,-0.7191,-601.32,1016.66,1123.72
2480,-3.8721,0.3712,-0.8088,-585.69,-46.02,232.91
2490,-3.8719,0.2916,-0.8982,-476.32,469.42,-1204.71
2500,-3.8717,0.2307,-0.9725,1336.18,1031.80,-1048.65
2510,-3.8715,0.1948,-1.0177,1539.31,-483.95,-1564.45
2520,-3.8713,0.1809,-1.0349,945.56,1734.74,-955.14
2530,-3.8712,0.1731,-1.0463,-835.69,-468.44,529.17
2540,-3.8712,0.1545,-1.0732,-1835.69,-1921.57,419.80
2550,-3.8712,0.1230,-1.1210,-210.69,-1374.76,372.86
2560,-3.8712,0.0856,-1.1829,-241.94,515.81,919.68
2570,-3.8712,0.0396,-1.2463,-1038.82,593.87,1216.43
2580,-3.8712,-0.0264,-1.2996,1070.56,468.81,544.43
2590,-3.8713,-0.1162,-1.3359,633.06,1671.81,-1705.69
2600,-3.8715,-0.2336,-1.3706,1133.06,1015.38,-1815.12
2610,-3.8716,-0.3914,-1.4287,-1898.19,577.64,1262.94
2620,-3.8717,-0.5942,-1.5162,1914.31,1139.83,1028.44
2630,-3.8718,-0.8151,-1.6285,-54.44,1936.28,-1440.49
2640,-3.8718,-1.0144,-1.7466,-320.07,-439.15,996.77
2650,-3.8719,-1.1825,-1.8280,-1835.69,451.11,-1050.29
2660,-3.8721,-1.3326,-1.8383,648.68,-1971.07,-1003.60
2670,-3.8723,-1.4684,-1.7667,1429.93,716.13,-941.10
2680,-3.8727,-1.5861,-1.6281,54.93,1872.13,-1519.10
2690,-3.8732,-1.6796,-1.4578,992.43,-378.11,-1315.73
2700,-3.8737,-1.7407,-1.2928,1023.68,1418.58,1887.76
2710,-3.8741,-1.7728,-1.1559,1195.56,-1472.17,1872.44
2720,-3.8746,-1.7948,-1.0416,1086.18,59.02,-502.26
2730,-3.8750,-1.8223,-0.9192,-1726.32,-1316.04,-908.33
2740,-3.8440,-1.8524,-0.7638,-1241.94,-1644.23,935.67
2750,-3.8442,-1.8840,-0.5844,-1101.32,-1753.66,201.60
2760,-3.8446,-1.9276,-0.4122,-1148.19,1215.03,-204.28
2770,-3.8447,-1.9810,-0.2675,1273.68,-753.78,421.02
2780,-3.8450,-2.0123,-0.1455,-1554.44,1777.34,-563.05
2790,-3.8450,-1.9962,-0.0276,-1570.07,1386.66,265.32
2800,-3.8451,-1.9423,0.1078,492.43,480.47,953.06
2810,-3.8452,-1.8738,0.2639,-601.32,1808.65,906.43
2820,-3.8453,-1.8019,0.4116,164.31,1793.21,1516.11
2830,-3.8455,-1.7290,0.5208,1367.43,699.58,-374.21
2840,-3.8455,-1.6531,0.5875,-1304.44,-1331.54,-483.40
2850,-3.8453,-1.5736,0.6097,414.31,-784.48,1969.85
2860,-3.8452,-1.4982,0.5890,-1413.82,-1940.61,-1483.22
2870,-3.8451,-1.4368,0.5426,242.43,-596.68,-483.28
2880,-3.8450,-1.3967,0.4889,101.81,1465.94,-202.09
2890,-3.8448,-1.3722,0.4374,1226.81,-1409.00,-405.33
2900,-3.8447,-1.3495,0.3870,367.43,-2.69,-530.46
2910,-3.8446,-1.3235,0.3312,-726.32,1544.19,-764.89
2920,-3.8445,-1.2980,0.2675,-1398.19,-1596.37,-421.26
2930,-3.8442,-1.2820,0.1973,1867.43,-1752.56,703.61
2940,-3.8441,-1.2810,0.1335,-85.69,1263.06,1203.49
2950,-3.8440,-1.2931,0.0884,39.31,1106.87,328.37
2960,-3.8440,-1.3114,0.0531,-1507.57,-674.44,-1624.88
2970,-3.8439,-1.3304,0.0088,148.68,-1190.06,62.56
2980,-3.8439,-1.3479,-0.0659,1711.18,1138.00,-1453.12
2990,-3.8750,-1.3557,-0.1783,-523.19,-424.56,-250.18
3000,-3.8746,-1.3390,-0.3124,-1523.19,1184.81,155.88
3010,-3.8744,-1.2933,-0.4446,617.43,28.63,-1813.11
3020,-3.8741,-1.2413,-0.5477,-1538.82,-893.19,-875.92
3030,-3.8739,-1.2174,-0.6105,1117.43,1903.81,1217.65
3040,-3.8738,-1.2317,-0.6490,179.93,1872.62,514.40
3050,-3.8738,-1.2659,-0.6813,-1648.19,935.06,717.47
3060,-3.8739,-1.2904,-0.7290,1976.81,810.00,-985.72
3070,-3.8739,-1.2820,-0.8199,-1163.82,-1299.44,-1610.84
3080,-3.8738,-1.2438,-0.9468,-85.69,-940.06,420.23
3090,-3.8737,-1.2001,-1.0740,804.93,-1174.32,560.61
3100,-3.8735,-1.1663,-1.1786,-1601.32,-1455.51,1700.99
3110,-3.8734,-1.1338,-1.2568,-1273.19,1153.93,-939.82
3120,-3.8732,-1.0851,-1.3186,-1116.94,-861.63,-1736.88
3130,-3.8728,-1.0145,-1.3765,1117.43,-767.76,1153.63
3140,-3.8724,-0.9170,-1.4167,-1851.32,-173.89,1372.25
3150,-3.8722,-0.7849,-1.4171,-1366.94,-1329.96,-393.43
3160,-3.8719,-0.6223,-1.3856,-460.69,-1376.59,-1237.18
3170,-3.8718,-0.4425,-1.3453,351.81,-1344.97,-424.62
3180,-3.8717,-0.2721,-1.3138,-632.57,-188.42,-143.31
3190,-3.8715,-0.1379,-1.2965,1179.93,-156.80,1528.63
3200,-3.8712,-0.0459,-1.2842,-1648.19,-1937.81,966.19
3210,-3.8710,0.0200,-1.2701,-1866.94,-359.50,1044.31
3220,-3.8707,0.0735,-1.2599,-1429.44,1421.88,966.25
3230,-3.8705,0.1176,-1.2570,1414.31,-1265.50,872.50
3240,-3.8702,0.1537,-1.2660,-945.07,-890.44,497.50
3250,-3.8701,0.1781,-1.2859,-320.07,1953.37,-1205.63
3260,-3.8699,0.1935,-1.3009,-1195.07,-593.44,559.94
3270,-3.8698,0.2150,-1.2987,773.68,1484.74,-1596.31
3280,-3.8696,0.2544,-1.2761,-476.32,1765.99,-674.44
3290,-3.8695,0.3154,-1.2423,570.56,656.74,-877.50
3300,-3.8694,0.3918,-1.2091,383.06,984.99,1872.56
3310,-3.8694,0.4690,-1.1759,-1835.69,1235.11,-346.13
3320,-3.8693,0.5392,-1.1371,39.31,1485.29,810.18
3330,-3.8693,0.6021,-1.0887,1023.68,-1545.84,794.62
3340,-3.8694,0.6443,-1.0304,1070.56,641.78,-1205.26
3350,-3.8695,0.6554,-0.9640,-1523.19,110.60,-1611.39
3360,-3.8698,0.6382,-0.8960,-101.32,610.60,-1158.14
3370,-3.8700,0.5941,-0.8391,1695.56,1313.72,826.35
3380,-3.8704,0.5345,-0.7917,54.93,594.91,-1829.77
3390,-3.8707,0.4772,-0.7418,429.93,-1342.71,-1204.71
3400,-3.8711,0.4296,-0.6924,1086.18,1047.79,-1517.09
3410,-3.8715,0.3893,-0.6636,-1007.57,-624.21,-1595.15
3420,-3.8717,0.3488,-0.6698,1836.18,-936.77,139.28
3430,-3.8719,0.3013,-0.7106,648.68,-1733.70,1326.78
3440,-3.8721,0.2440,-0.7771,-1429.44,1047.42,-1470.15
3450,-3.8721,0.1842,-0.8545,-757.57,531.68,-1798.40
3460,-3.8721,0.1296,-0.9264,-413.82,-1374.69,1888.92
3470,-3.8722,0.0767,-0.9857,601.81,1422.12,-48.71
3480,-3.8723,0.0106,-1.0366,1820.56,1828.25,-220.70
3490,-3.8724,-0.0822,-1.0829,1367.43,-687.50,-1627.08
3500,-3.8726,-0.1974,-1.1254,1492.43,1406.07,1357.24
3510,-3.8727,-0.3185,-1.1627,-1257.57,-31.68,1247.74
3520,-3.8728,-0.4357,-1.1921,-757.57,-813.17,1232.06
3530,-3.8729,-0.5491,-1.2147,242.43,-578.98,794.49
3540,-3.8730,-0.6670,-1.2408,1726.81,530.15,560.12
3550,-3.8732,-0.7958,-1.2815,-1366.94,1186.16,1903.81
3560,-3.8732,-0.9244,-1.3230,-1851.32,-17.21,1606.81
3570,-3.8732,-1.0316,-1.3313,1679.93,-1329.96,-1830.75
3580,-3.8732,-1.1094,-1.2900,-38.82,1607.30,966.13
3590,-3.8733,-1.1700,-1.2151,-1991.94,-1111.57,966.19
3600,-3.8735,-1.2234,-1.1360,-1757.57,482.06,-721.13
3610,-3.8737,-1.2703,-1.0721,-585.69,-1393.07,1200.87
3620,-3.8739,-1.3181,-1.0248,1414.31,-1221.25,-486.51
3630,-3.8740,-1.3746,-0.9802,-710.69,841.13,-1002.01
3640,-3.8741,-1.4393,-0.9227,54.93,-1455.81,-236.33
3650,-3.8741,-1.5045,-0.8483,-226.32,1903.38,1295.04
3660,-3.8743,-1.5613,-0.7596,-570.07,-565.49,-1392.33
3670,-3.8744,-1.6096,-0.6614,164.31,-1221.80,-1189.03
3680,-3.8745,-1.6571,-0.5564,1976.81,-643.80,1936.16
3690,-3.8746,-1.7095,-0.4479,-101.32,793.58,827.03
3700,-3.8748,-1.7653,-0.3394,1195.56,-1315.86,405.33
3710,-3.8749,-1.8125,-0.2324,-1945.07,574.65,1421.20
3720,-3.8749,-1.8362,-0.1316,8.06,-1737.92,155.76
3730,-3.8750,-1.8337,-0.0391,976.81,-831.73,-94.06
3740,-3.8750,-1.8169,0.0464,1289.31,-987.98,-422.00
3750,-3.8750,-1.7981,0.1266,-554.44,1949.52,-1718.69
3760,-3.8439,-1.7875,0.1976,1851.81,215.21,-484.13
3770,-3.8440,-1.7958,0.2512,-788.82,1308.96,-780.88
3780,-3.8441,-1.8207,0.2897,-1851.32,168.33,1641.11
3790,-3.8444,-1.8518,0.3253,-1038.82,1090.15,-1343.20
3800,-3.8446,-1.8834,0.3594,-1023.19,1652.59,-1640.01
3810,-3.8448,-1.9093,0.3849,-1070.07,-1988.10,1500.67
3820,-3.8451,-1.9182,0.3989,-382.57,1277.47,1000.73
3830,-3.8453,-1.8976,0.3942,-1523.19,-925.66,-1921.14
3840,-3.8455,-1.8441,0.3622,1117.43,-1534.97,1531.98
3850,-3.8456,-1.7666,0.3002,-38.82,-1628.66,-218.08
3860,-3.8455,-1.6746,0.2030,1883.06,-1565.98,1531.80
3870,-3.8453,-1.5737,0.0765,1664.31,1996.70,-765.26
3880,-3.8451,-1.4763,-0.0568,-1429.44,1809.39,-124.88
3890,-3.8447,-1.4036,-0.1757,-960.69,747.07,1609.25
3900,-3.8445,-1.3738,-0.2604,351.81,1528.50,-1703.49
3910,-3.8444,-1.3840,-0.3066,164.31,-1315.19,-563.05
3920,-3.8442,-1.3981,-0.3413,-1148.19,762.88,61.89
3930,-3.8444,-1.3850,-0.3939,1054.93,325.38,-922.55
3940,-3.8442,-1.3539,-0.4816,-1273.19,1591.00,-1657.04
3950,-3.8439,-1.3126,-0.6094,-1288.82,-1627.69,389.65
3960,-3.8748,-1.2472,-0.7599,-7.57,-1987.00,-1423.10
3970,-3.8744,-1.1636,-0.8988,367.43,-1252.44,-345.28
3980,-3.8741,-1.1105,-0.9973,-929.44,966.43,-736.15
3990,-3.8740,-1.1276,-1.0485,1867.43,357.18,-892.58
4000,-3.8738,-1.1750,-1.0720,-320.07,1810.24,-1970.83
4010,-3.8734,-1.1698,-1.1024,1601.81,-1205.44,-2.14
4020,-3.8728,-1.0704,-1.1405,-1726.32,-1096.07,-1658.45
4030,-3.8722,-0.9062,-1.1483,-1007.57,-1970.89,841.49
4040,-3.8718,-0.7513,-1.1057,8.06,1029.48,-674.13
4050,-3.8716,-0.6626,-1.0464,-163.82,-1517.15,-1924.07
4060,-3.8716,-0.6726,-1.0260,-804.44,-1923.22,763.55
4070,-3.8718,-0.7721,-1.0363,1914.31,686.16,-1048.89
4080,-3.8719,-0.8717,-1.0248,1179.93,-626.53,966.67
4090,-3.8722,-0.8812,-0.9866,429.93,842.04,-830.14
4100,-3.8724,-0.7831,-0.9553,-788.82,1732.60,-189.45
4110,-3.8726,-0.6053,-0.9617,-226.32,1732.79,1013.73
4120,-3.8727,-0.3867,-1.0038,-1476.32,920.65,-470.64
4130,-3.8724,-0.1732,-1.0692,-1491.94,-469.54,841.74
4140,-3.8722,0.0131,-1.1582,1836.18,-844.12,-533.39
4150,-3.8717,0.1738,-1.2600,1679.93,-250.00,1747.68
4160,-3.8712,0.3054,-1.3396,-1741.94,-1280.94,1966.25
4170,-3.8707,0.4027,-1.3613,-898.19,531.80,-1971.37
4180,-3.8704,0.4606,-1.3232,-445.07,1750.73,-705.81
4190,-3.8701,0.4840,-1.2458,-1038.82,-1374.15,-158.87
4200,-3.8700,0.4880,-1.1520,1961.18,532.17,-689.94
4210,-3.8700,0.4924,-1.0615,-1523.19,547.79,-924.13
4220,-3.8700,0.5170,-0.9907,-960.69,125.92,-1814.58
4230,-3.8700,0.5659,-0.9462,-1820.07,1188.48,-876.95
4240,-3.8699,0.6158,-0.9216,445.56,-1108.28,-1705.02
4250,-3.8698,0.6448,-0.8972,-1163.82,-1967.59,1982.54
4260,-3.8698,0.6525,-0.8588,-1460.69,1157.47,-736.15
4270,-3.8699,0.6392,-0.8090,-476.32,-1920.65,-48.58
4280,-3.8700,0.6016,-0.7599,1820.56,454.35,482.79
4290,-3.8704,0.5513,-0.7262,1008.06,-1264.47,-1079.65
4300,-3.8706,0.5048,-0.7135,-1429.44,-952.09,1014.16
4310,-3.8708,0.4672,-0.7134,617.43,672.85,248.60
4320,-3.8711,0.4347,-0.7144,-195.07,688.35,1451.72
4330,-3.8712,0.4022,-0.7155,-351.32,563.29,326.72
4340,-3.8713,0.3684,-0.7239,-507.57,422.61,342.35
4350,-3.8715,0.3291,-0.7527,-835.69,-655.58,1357.91
4360,-3.8716,0.2701,-0.8123,-1866.94,-343.14,-626.53
4370,-3.8716,0.1874,-0.8971,-1413.82,31.74,-1173.46
4380,-3.8716,0.0966,-0.9806,-7.57,1172.18,-1142.40
4390,-3.8716,0.0134,-1.0386,367.43,-1515.44,1076.17
4400,-3.8717,-0.0623,-1.0721,1726.81,-937.50,357.30
4410,-3.8719,-0.1453,-1.0908,39.31,-1218.87,1513.49
4420,-3.8722,-0.2434,-1.1046,1414.31,390.32,-1361.51
4430,-3.8723,-0.3517,-1.1248,851.81,-1375.49,669.68
4440,-3.8726,-0.4575,-1.1493,-1007.57,46.14,-939.70
4450,-3.8727,-0.5494,-1.1707,1445.56,905.33,1903.99
4460,-3.8728,-0.6309,-1.1890,1679.93,-1829.22,1185.18
4470,-3.8729,-0.7078,-1.2070,-741.94,-173.16,794.49
4480,-3.8730,-0.7711,-1.2325,1414.31,1514.22,1560.12
4490,-3.8732,-0.8156,-1.2676,1304.93,-1751.53,-143.07
4500,-3.8732,-0.8618,-1.3075,-382.57,1763.98,-1002.50
4510,-3.8732,-0.9336,-1.3362,1695.56,654.54,-1486.94
4520,-3.8732,-1.0315,-1.3300,508.06,982.54,1559.88
4530,-3.8733,-1.1440,-1.2881,-23.19,1779.17,-1455.75
4540,-3.8734,-1.2617,-1.2246,1570.56,-861.63,1075.56
4550,-3.8737,-1.3765,-1.1522,-1491.94,-736.88,-1002.44
4560,-3.8738,-1.4872,-1.0779,-179.44,528.50,1794.62
4570,-3.8739,-1.5939,-0.9988,1648.68,-1956.05,1607.24
4580,-3.8740,-1.6954,-0.9088,-7.57,168.70,1841.80
4590,-3.8741,-1.7974,-0.8041,-1007.57,-315.86,1607.54
4600,-3.8743,-1.8989,-0.6827,1945.56,1090.21,670.29
4610,-3.8745,-1.9961,-0.5460,945.56,621.28,-1173.22
4620,-3.8748,-2.0916,-0.3975,508.06,-1878.91,-235.47
4630,-3.8750,-2.1808,-0.2395,289.31,1136.54,-0.79
4640,-3.8439,-2.2491,-0.0767,867.43,1355.10,593.26
4650,-3.8441,-2.2867,0.0771,117.43,-1801.27,1781.07
4660,-3.8444,-2.2954,0.2078,-695.07,1886.11,-765.50
4670,-3.8445,-2.2784,0.3112,-1804.44,-1395.14,953.49
4680,-3.8446,-2.2332,0.3845,367.43,-160.71,16.17
4690,-3.8447,-2.1554,0.4127,-1835.69,1229.98,1516.36
4700,-3.8447,-2.0480,0.3911,117.43,839.54,1094.54
4710,-3.8447,-1.9271,0.3313,1867.43,-1925.90,-1608.64
4720,-3.8446,-1.8182,0.2446,1336.18,-1581.91,1234.99
4730,-3.8445,-1.7368,0.1387,-726.32,-675.48,1391.05
4740,-3.8444,-1.6788,0.0258,1695.56,1762.21,-1546.63
4750,-3.8442,-1.6323,-0.0784,1117.43,-690.80,-453.12
4760,-3.8441,-1.5931,-0.1599,-929.44,1981.14,-93.93
4770,-3.8440,-1.5646,-0.2163,86.18,-456.24,-1031.62
4780,-3.8439,-1.5450,-0.2593,-257.57,325.01,452.70
4790,-3.8439,-1.5228,-0.3016,-1757.57,-1174.93,655.70
4800,-3.8439,-1.4856,-0.3601,1086.18,1403.26,811.89
4810,-3.8439,-1.4336,-0.4545,1851.81,1918.95,-1328.86
4820,-3.8750,-1.3835,-0.5854,508.06,1840.94,-329.04
4830,-3.8746,-1.3557,-0.7301,-1085.69,1075.38,280.09
4840,-3.8744,-1.3591,-0.8561,-1523.19,-1440.19,-1470.21
4850,-3.8741,-1.3760,-0.9443,-1960.69,-1565.19,-532.96
4860,-3.8739,-1.3737,-0.9973,-116.94,-862.12,1373.11
4870,-3.8739,-1.3425,-1.0322,179.93,356.69,-345.70
4880,-3.8739,-1.2985,-1.0717,164.31,-112.00,-1127.08
4890,-3.8739,-1.2563,-1.1333,1804.93,-1158.81,44.74
4900,-3.8740,-1.2288,-1.2217,-804.44,-1049.38,888.37
4910,-3.8741,-1.2346,-1.3267,-1273.19,-361.82,-393.07
4920,-3.8740,-1.2720,-1.4231,1976.81,-1799.32,934.88
4930,-3.8739,-1.2994,-1.4821,1195.56,1856.87,356.57
4940,-3.8738,-1.2661,-1.5100,1679.93,-1690.06,1903.32
4950,-3.8735,-1.1497,-1.5314,1945.56,-1268.13,1903.26
4960,-3.8733,-0.9739,-1.5468,851.81,-2.26,-674.93
4970,-3.8730,-0.7788,-1.5510,-648.19,-1970.70,-440.55
4980,-3.8728,-0.5884,-1.5398,320.56,1482.85,309.45
4990,-3.8728,-0.4159,-1.5006,695.56,-1079.28,809.45
5000,-3.8729,-0.2606,-1.4207,-1226.32,-63.35,-862.37
5010,-3.8728,-0.0912,-1.3171,-1351.32,-1828.67,1169.07
5020,-3.8726,0.1216,-1.2373,336.18,-578.31,-862.00
5030,-3.8721,0.3662,-1.2075,-429.44,1625.18,-830.57
5040,-3.8715,0.6102,-1.2202,-1116.94,1438.17,1575.74
5050,-3.8710,0.8252,-1.2471,-1882.57,-186.34,-252.44
5060,-3.8705,0.9860,-1.2532,1633.06,376.59,-393.07
5070,-3.8701,1.0802,-1.2195,-1788.82,-404.36,-361.88
5080,-3.8699,1.1312,-1.1503,-1726.32,-91.67,-80.57
5090,-3.8696,1.1681,-1.0707,804.93,767.82,-1892.88
5100,-3.8695,1.1919,-1.0018,1523.68,-1044.62,-877.14
5110,-3.8694,1.1942,-0.9453,570.56,-232.06,-1517.64
5120,-3.8694,1.1727,-0.8969,867.43,-997.68,-361.27
5130,-3.8694,1.1354,-0.8550,-1882.57,1205.38,-1923.65
5140,-3.8695,1.0922,-0.8257,1336.18,-1435.30,-1814.21
5150,-3.8696,1.0396,-0.8096,-195.07,-1685.42,1248.35
5160,-3.8698,0.9758,-0.7921,1070.56,377.01,685.91
5170,-3.8699,0.9078,-0.7672,914.31,-1388.73,467.16
5180,-3.8701,0.8384,-0.7406,211.18,1798.65,-751.53
5190,-3.8702,0.7695,-0.7145,-679.44,1204.71,842.29
5200,-3.8705,0.7036,-0.6978,-1491.94,548.34,-1438.90
5210,-3.8706,0.6377,-0.7019,-1929.44,-1311.16,1248.60
5220,-3.8707,0.5757,-0.7240,1633.06,-1842.53,857.97
5230,-3.8708,0.5177,-0.7598,1695.56,-670.78,1061.04
5240,-3.8710,0.4542,-0.8152,-1726.32,-1249.02,1842.22
5250,-3.8711,0.3761,-0.8904,-1851.32,-342.90,-876.65
5260,-3.8711,0.2802,-0.9661,148.68,-1968.02,545.10
5270,-3.8712,0.1771,-1.0194,-132.57,344.24,1685.61
5280,-3.8713,0.0819,-1.0431,-1320.07,1515.93,1341.74
5290,-3.8716,-0.0015,-1.0547,-1507.57,-1515.50,-1002.08
5300,-3.8718,-0.0802,-1.0840,-179.44,1015.56,-236.45
5310,-3.8719,-0.1633,-1.1395,1742.43,1265.44,1122.86
5320,-3.8721,-0.2583,-1.2102,-898.19,-1844.12,216.49
5330,-3.8722,-0.3696,-1.2778,-1054.44,1108.83,950.74
5340,-3.8723,-0.4844,-1.3318,695.56,452.39,-1658.75
5350,-3.8724,-0.5881,-1.3705,-1991.94,1545.90,-1268.25
5360,-3.8726,-0.6851,-1.3931,726.81,592.59,950.44
5370,-3.8728,-0.7874,-1.4000,320.56,1701.78,1278.50
5380,-3.8730,-0.8977,-1.3939,-773.19,810.91,809.75
5390,-3.8733,-1.0066,-1.3739,1101.81,1591.98,825.38
5400,-3.8735,-1.1036,-1.3325,-835.69,154.24,1450.44
5410,-3.8738,-1.1913,-1.2645,-1257.57,1450.93,1856.75
5420,-3.8740,-1.2780,-1.1804,-476.32,-1846.13,-1549.38
5430,-3.8741,-1.3625,-1.0988,429.93,919.37,778.93
5440,-3.8743,-1.4452,-1.0226,1601.81,-627.69,857.18
5450,-3.8744,-1.5413,-0.9435,-976.32,1122.13,1076.11
5460,-3.8745,-1.6641,-0.8469,-1273.19,-753.05,232.48
5470,-3.8748,-1.8054,-0.7211,-991.94,-393.92,-1595.46
5480,-3.8749,-1.9418,-0.5748,914.31,-284.79,529.79
5490,-3.8439,-2.0486,-0.4316,-538.82,-1566.35,-141.78
5500,-3.8439,-2.1150,-0.3092,1789.31,761.60,1655.40
5510,-3.8439,-2.1440,-0.2008,1289.31,433.35,1890.01
5520,-3.8439,-2.1428,-0.0934,1570.56,-1691.71,-531.68
5530,-3.8750,-2.1140,0.0118,1726.81,58.29,1312.32
5540,-3.8750,-2.0573,0.1141,1414.31,1527.10,-1437.50
5550,-3.8750,-1.9786,0.2062,679.93,-1379.03,-952.94
5560,-3.8750,-1.8906,0.2729,-1257.57,-1597.66,-780.88
5570,-3.8750,-1.8063,0.3129,-1991.94,-1050.60,-640.14
5580,-3.8750,-1.7371,0.3331,804.93,58.96,-686.89
5590,-3.8750,-1.6859,0.3406,1664.31,-1347.17,-1327.51
5600,-3.8750,-1.6530,0.3312,211.18,-393.92,1203.74
5610,-3.8439,-1.6400,0.2996,429.93,-1596.98,-905.64
5620,-3.8439,-1.6367,0.2529,-1913.82,-1643.86,1500.55
5630,-3.8439,-1.6228,0.1982,-1491.94,387.39,1422.36
5640,-3.8439,-1.5911,0.1371,289.31,1387.45,1953.49
5650,-3.8439,-1.5507,0.0677,351.81,1559.39,1953.37
5660,-3.8439,-1.5101,-0.0129,1523.68,684.45,1875.12
5670,-3.8439,-1.4747,-0.0978,-1288.82,-1643.62,-1140.69
5680,-3.8750,-1.4490,-0.1688,-757.57,-502.93,468.51
5690,-3.8750,-1.4305,-0.2218,-1460.69,-1596.62,1515.26
5700,-3.8750,-1.4160,-0.2754,898.68,-377.81,1655.76
5710,-3.8750,-1.4059,-0.3519,-1241.94,762.82,-1875.55
5720,-3.8749,-1.3965,-0.4594,54.93,-1034.00,405.52
5730,-3.8748,-1.3774,-0.5895,1258.06,1216.00,1436.58
5740,-3.8745,-1.3442,-0.7288,-304.44,559.75,1858.22
5750,-3.8741,-1.3058,-0.8707,-54.44,-1268.31,404.79
5760,-3.8739,-1.2771,-1.0127,867.43,559.94,-595.46
5770,-3.8735,-1.2693,-1.1425,539.31,-1611.88,1669.86
5780,-3.8733,-1.2887,-1.2386,1539.31,1778.75,1544.62
5790,-3.8732,-1.3268,-1.2928,-945.07,1466.19,1419.43
5800,-3.8732,-1.3572,-1.3146,-1820.07,-1471.37,341.19
5810,-3.8734,-1.3538,-1.3167,-1710.69,-252.69,-1002.62
5820,-3.8735,-1.3015,-1.3119,-1273.19,-518.31,653.63
5830,-3.8737,-1.2010,-1.3201,1414.31,91.19,1200.56
5840,-3.8737,-1.0682,-1.3412,-1726.32,-955.51,1638.00
5850,-3.8735,-0.9125,-1.3525,-726.32,341.61,1763.00
5860,-3.8733,-0.7407,-1.3491,-788.82,-1111.21,-1846.44
5870,-3.8729,-0.5753,-1.3364,1195.56,-673.34,1700.44
5880,-3.8726,-0.4327,-1.3120,-1632.57,951.97,-1643.25
5890,-3.8722,-0.3138,-1.2722,617.43,77.27,-1971.31
5900,-3.8719,-0.2119,-1.2139,-163.82,1171.20,-1190.00
5910,-3.8717,-0.1132,-1.1375,883.06,640.20,185.12
5920,-3.8717,-0.0040,-1.0518,1523.68,-1578.37,-486.63
5930,-3.8716,0.1155,-0.9794,-507.57,1390.56,-1267.70
5940,-3.8715,0.2362,-0.9343,-1210.69,-1359.19,-1048.83
5950,-3.8712,0.3462,-0.9087,-1757.57,406.68,529.42
5960,-3.8711,0.4324,-0.8949,320.56,-311.83,-1142.46
5970,-3.8708,0.4944,-0.8901,-648.19,1453.92,498.23
5980,-3.8707,0.5421,-0.8893,-710.69,-1936.58,1248.23
5990,-3.8706,0.5901,-0.8986,1398.68,-1827.09,-908.02
6000,-3.8704,0.6550,-0.9237,-460.69,985.47,-908.02
6010,-3.8701,0.7360,-0.9534,-148.19,1766.85,-564.33
6020,-3.8699,0.8046,-0.9725,-1788.82,1970.15,1998.11
6030,-3.8698,0.8440,-0.9785,-1007.57,-482.85,-1455.08
6040,-3.8696,0.8534,-0.9800,39.31,-1248.35,1966.80
6050,-3.8695,0.8333,-0.9799,1242.43,-1435.85,248.05
6060,-3.8695,0.7932,-0.9602,-1335.69,-1420.29,216.80
6070,-3.8696,0.7430,-0.9026,1539.31,1095.28,419.98
6080,-3.8699,0.6942,-0.8186,-882.57,470.15,841.98
6090,-3.8702,0.6586,-0.7323,867.43,-779.91,-986.02
6100,-3.8705,0.6409,-0.6556,304.93,-1733.09,1295.41
6110,-3.8707,0.6407,-0.5919,-1960.69,79.35,498.72
6120,-3.8710,0.6548,-0.5477,-1976.32,235.60,123.84
6130,-3.8712,0.6714,-0.5300,-179.44,1891.85,545.78
6140,-3.8715,0.6692,-0.5415,1945.56,157.53,-1204.16
6150,-3.8716,0.6285,-0.5804,1664.31,-1311.22,-954.22
6160,-3.8716,0.5469,-0.6401,461.18,1704.35,717.59
6170,-3.8717,0.4406,-0.7125,-1991.94,-1936.46,-1063.78
6180,-3.8717,0.3320,-0.7823,398.68,797.73,1639.22
6190,-3.8717,0.2468,-0.8379,-1491.94,-140.01,1576.54
6200,-3.8717,0.1959,-0.8879,-398.19,750.43,1920.23
6210,-3.8717,0.1523,-0.9464,1086.18,-1655.88,1545.10
6220,-3.8717,0.0828,-1.0143,-491.94,-1140.38,1076.23
6230,-3.8717,-0.0221,-1.0803,-1398.19,-1828.00,701.11
6240,-3.8718,-0.1494,-1.1283,1179.93,1734.31,-283.39
6250,-3.8718,-0.2721,-1.1584,883.06,-406.56,1747.74
6260,-3.8719,-0.3673,-1.1825,1179.93,-266.17,-1580.44
6270,-3.8721,-0.4309,-1.2102,992.43,655.52,-1846.07
6280,-3.8722,-0.4781,-1.2427,851.81,1108.52,1731.99
6290,-3.8723,-0.5216,-1.2704,-1195.07,952.15,-1861.82
6300,-3.8724,-0.5677,-1.2928,1242.43,1405.21,-2.50
6310,-3.8724,-0.6306,-1.3134,-663.82,-1469.91,1466.19
6320,-3.8726,-0.7150,-1.3340,-710.69,-95.03,1059.88
6330,-3.8728,-0.8154,-1.3621,492.43,1264.22,-1127.62
6340,-3.8730,-0.9299,-1.3961,-366.94,1670.23,-721.44
6350,-3.8733,-1.0591,-1.4259,976.81,1310.67,-330.87
6360,-3.8734,-1.2010,-1.4401,445.56,1497.92,1340.94
6370,-3.8735,-1.3468,-1.4242,-1726.32,-314.88,1122.13
6380,-3.8737,-1.4802,-1.3624,-382.57,1716.06,-1502.81
6390,-3.8738,-1.5859,-1.2544,-1460.69,1622.07,-205.81
6400,-3.8739,-1.6621,-1.1177,1008.06,-549.99,-221.25
6410,-3.8740,-1.7151,-0.9696,-741.94,949.83,-1377.20
6420,-3.8741,-1.7499,-0.8138,476.81,-97.11,544.92
6430,-3.8744,-1.7717,-0.6531,23.68,-159.67,-1939.15
6440,-3.8746,-1.7854,-0.4966,1226.81,418.40,-16.91
6450,-3.8748,-1.7909,-0.3468,-523.19,449.58,-1454.10
6460,-3.8749,-1.7870,-0.2085,-1226.32,-378.54,1843.02
6470,-3.8750,-1.7742,-0.0878,-726.32,1324.58,1546.45
6480,-3.8439,-1.7543,0.0138,914.31,777.77,1718.57
6490,-3.8440,-1.7318,0.0939,-538.82,1777.77,-781.25
6500,-3.8440,-1.7146,0.1495,-1663.82,27.83,-1890.44
6510,-3.8440,-1.7040,0.1791,539.31,-847.11,1500.24
6520,-3.8440,-1.6965,0.1855,1898.68,-1065.86,469.06
6530,-3.8441,-1.6948,0.1765,-1148.19,-237.73,-1062.19
6540,-3.8441,-1.6970,0.1636,-929.44,-1393.98,1312.81
6550,-3.8441,-1.6925,0.1549,-1210.69,949.77,62.81
6560,-3.8442,-1.6664,0.1461,-632.57,-159.61,-406.01
6570,-3.8442,-1.6143,0.1263,-1288.82,-1284.55,-452.88
6580,-3.8442,-1.5474,0.0940,1383.06,184.33,-93.51
6590,-3.8441,-1.4780,0.0527,1945.56,43.82,1547.06
6600,-3.8440,-1.4130,0.0023,-1179.44,-1237.30,843.81
6610,-3.8439,-1.3569,-0.0571,-851.32,309.69,1484.38
6620,-3.8750,-1.3175,-0.1169,-1679.44,700.44,-953.25
6630,-3.8748,-1.3014,-0.1691,-632.57,1044.25,1171.63
6640,-3.8746,-1.3092,-0.2189,1429.93,-1627.56,-828.49
6650,-3.8745,-1.3357,-0.2750,429.93,-2.56,-219.24
6660,-3.8744,-1.3757,-0.3453,1039.31,809.88,-1156.80
6670,-3.8743,-1.4176,-0.4357,-85.69,-190.25,1843.02
6680,-3.8741,-1.4457,-0.5430,-1445.07,247.19,1842.90
6690,-3.8740,-1.4591,-0.6495,-1038.82,-1487.24,1983.28
6700,-3.8739,-1.4644,-0.7374,1242.43,872.13,1326.84
6710,-3.8739,-1.4613,-0.8088,570.56,1622.13,-267.09
6720,-3.8738,-1.4480,-0.8824,961.18,481.51,514.04
6730,-3.8739,-1.4257,-0.9711,-1335.69,-940.37,-798.65
6740,-3.8739,-1.3995,-1.0779,1523.68,-284.06,373.05
6750,-3.8740,-1.3726,-1.1908,867.43,-1955.87,825.99
6760,-3.8741,-1.3354,-1.2961,320.56,-408.94,-1252.38
6770,-3.8740,-1.2667,-1.3867,1070.56,-1893.25,153.69
6780,-3.8739,-1.1631,-1.4524,1867.43,-1486.88,700.38
6790,-3.8738,-1.0400,-1.4803,-866.94,-1892.94,-1393.49
6800,-3.8735,-0.9008,-1.4609,-1116.94,-1470.83,137.70
6810,-3.8734,-0.7391,-1.4108,711.18,1013.85,1465.88
6820,-3.8733,-0.5569,-1.3591,1398.68,-563.96,-502.81
6830,-3.8730,-0.3641,-1.3188,726.81,-1954.22,-1065.19
6840,-3.8727,-0.1753,-1.2855,1398.68,-797.61,294.25
6850,-3.8724,-0.0017,-1.2460,1570.56,-531.62,-1455.69
6860,-3.8722,0.1467,-1.1946,-210.69,531.19,-611.82
6870,-3.8715,0.4729,-1.0768,414.31,-1327.27,1122.86
6880,-3.8712,0.4911,-1.0936,539.31,-1827.21,1419.74
6890,-3.8708,0.5148,-1.1243,-1132.57,16.54,-1924.01
6900,-3.8704,0.5514,-1.1638,1898.68,94.73,154.05
6910,-3.8700,0.5940,-1.1980,-1413.82,-967.71,1075.81
6920,-3.8696,0.6287,-1.2095,39.31,-1342.59,75.74
6930,-3.8695,0.6509,-1.1825,476.81,1188.72,-252.38
6940,-3.8694,0.6687,-1.1115,-679.44,641.85,1857.06
6950,-3.8695,0.6943,-1.0114,1601.81,1735.66,-1986.57
6960,-3.8698,0.7327,-0.9097,883.06,-1451.78,-1408.26
6970,-3.8700,0.7742,-0.8213,1789.31,-436.10,-1048.71
6980,-3.8701,0.8094,-0.7462,-898.19,-1123.54,1060.85
6990,-3.8702,0.8293,-0.6829,-382.57,485.90,373.54
7000,-3.8705,0.8223,-0.6313,-1835.69,595.34,-235.72
7010,-3.8706,0.7863,-0.5950,1258.06,-810.91,-1407.53
7020,-3.8707,0.7295,-0.5732,648.68,-154.72,436.28
7030,-3.8710,0.6572,-0.5698,1383.06,-1373.60,1420.72
7040,-3.8712,0.5695,-0.5883,133.06,-936.22,-1876.16
7050,-3.8715,0.4723,-0.6180,898.68,704.22,-1.16
7060,-3.8715,0.3777,-0.6562,461.18,891.54,405.03
7070,-3.8716,0.2950,-0.7068,351.81,0.73,-532.53
7080,-3.8715,0.2275,-0.7603,1773.68,1531.80,342.35
7090,-3.8715,0.1677,-0.7999,1133.06,-1312.07,1326.60
7100,-3.8715,0.1129,-0.8235,1476.81,1609.68,1264.04
7110,-3.8716,0.0774,-0.8499,-1538.82,-1406.07,-220.40
7120,-3.8716,0.0590,-0.8943,1914.31,-781.13,1373.29
7130,-3.8717,0.0315,-0.9464,-445.07,1531.31,-1095.52
7140,-3.8718,-0.0214,-0.9861,39.31,-1140.56,-236.27
7150,-3.8723,-0.2843,-1.0533,-726.32,468.32,1576.11
7160,-3.8724,-0.3562,-1.0917,-382.57,1186.89,1294.80
7170,-3.8726,-0.4122,-1.1394,-1585.69,280.52,1732.24
7180,-3.8727,-0.4686,-1.1896,-757.57,-1828.98,1419.62
7190,-3.8729,-0.5415,-1.2455,23.68,-250.92,-643.01
7200,-3.8732,-0.6414,-1.3145,-1304.44,592.65,-1018.07
7210,-3.8734,-0.7736,-1.3862,1914.31,-235.66,528.63
7220,-3.8738,-0.9305,-1.4414,992.43,-1423.40,-1690.25
7230,-3.8739,-1.0861,-1.4646,898.68,-486.21,153.38
7240,-3.8740,-1.2115,-1.4484,992.43,544.74,-580.99
7250,-3.8739,-1.2981,-1.3939,929.93,-1377.38,762.76
7260,-3.8740,-1.3600,-1.3011,1851.81,1591.19,-190.25
7270,-3.8741,-1.4174,-1.1794,1929.93,1466.06,-408.81
7280,-3.8743,-1.4795,-1.0461,-1413.82,1044.07,1122.68
7290,-3.8745,-1.5464,-0.9088,-1366.94,-1893.55,951.05
7300,-3.8748,-1.6097,-0.7687,-1929.44,-315.55,60.67
7310,-3.8439,-1.6586,-0.6304,1961.18,1621.83,-204.65
7320,-3.8440,-1.6855,-0.4972,-288.82,-675.17,1233.09
7330,-3.8441,-1.6886,-0.3671,258.06,371.70,1233.40
7340,-3.8442,-1.6726,-0.2386,-132.57,1027.89,-78.86
7350,-3.8441,-1.6467,-0.1135,1914.31,1465.45,1124.51
7360,-3.8440,-1.6189,-0.0071,1226.81,1481.14,577.88
7370,-3.8439,-1.5972,0.0674,789.31,-893.80,703.06
7380,-3.8439,-1.5905,0.1165,-429.44,637.45,-656.13
7390,-3.8439,-1.6024,0.1508,429.93,-1081.24,-171.69
7400,-3.8439,-1.6300,0.1736,-1101.32,-690.67,-1702.88
7410,-3.8440,-1.6698,0.1871,-632.57,-1768.86,-702.82
7420,-3.8441,-1.7208,0.1890,-1726.32,-34.55,-296.57
7430,-3.8441,-1.7715,0.1768,-257.57,199.71,469.12
7440,-3.8444,-1.7764,0.0936,367.43,652.71,-702.88
7450,-3.8444,-1.7136,0.0442,633.06,-3.48,-1578.00
7460,-3.8444,-1.6373,-0.0155,664.31,1668.52,1953.19
7470,-3.8444,-1.5570,-0.0806,-1570.07,-1971.98,1999.94
7480,-3.8444,-1.4802,-0.1454,711.18,1700.07,-1578.31
7490,-3.8444,-1.4155,-0.2103,-1460.69,1403.32,-937.81
7500,-3.8442,-1.3633,-0.2781,-1179.44,1090.94,15.20
7510,-3.8442,-1.3185,-0.3490,1508.06,419.19,1358.83
7520,-3.8442,-1.2874,-0.4213,-757.57,-658.87,-1266.36
7530,-3.8441,-1.2789,-0.4938,-773.19,-1908.81,249.15
7540,-3.8441,-1.2870,-0.5691,304.93,810.00,-1250.98
7550,-3.8440,-1.3037,-0.6534,-726.32,-830.69,1811.34
7560,-3.8440,-1.3265,-0.7572,1133.06,372.44,-95.03
7570,-3.8439,-1.3475,-0.8842,-1788.82,-908.87,264.10
7580,-3.8440,-1.3512,-1.0239,-476.32,-1158.94,-548.65
7590,-3.8439,-1.3240,-1.1536,-945.07,950.44,44.86
7600,-3.8750,-1.2689,-1.2645,-1460.69,356.75,1747.74
7610,-3.8746,-1.1981,-1.3624,1586.18,-1846.25,1200.62
7620,-3.8741,-1.1190,-1.4421,-1351.32,1622.62,28.56
7630,-3.8738,-1.0331,-1.4897,773.68,-580.32,-1502.87
7640,-3.8734,-0.9347,-1.4978,-226.32,1326.05,1887.70
7650,-3.8732,-0.8269,-1.4799,367.43,295.04,1340.82
7660,-3.8730,-0.7216,-1.4475,-1835.69,-1407.90,1418.95
7670,-3.8729,-0.6256,-1.4038,-351.32,-1267.09,622.13
7680,-3.8728,-0.5420,-1.3535,-70.07,326.84,512.88
7690,-3.8727,-0.4656,-1.3004,-1366.94,-1235.47,1294.19
7700,-3.8726,-0.3862,-1.2467,414.31,1561.58,-1252.56
7710,-3.8723,-0.2991,-1.1904,-1429.44,436.71,950.68
7720,-3.8721,-0.0708,-1.0603,-882.57,93.44,1529.11
7730,-3.8722,-0.0186,-1.0376,-1054.44,296.69,1841.67
7740,-3.8723,0.0391,-1.0138,1633.06,-796.94,1044.80
7750,-3.8724,0.1246,-0.9884,1008.06,-1765.56,-1939.51
7760,-3.8724,0.2511,-0.9829,-38.82,1484.56,-939.45
7770,-3.8722,0.4102,-1.0066,148.68,-1812.01,1185.55
7780,-3.8719,0.5747,-1.0465,508.06,-842.96,-330.14
7790,-3.8716,0.7115,-1.0776,1570.56,-1952.03,-658.33
7800,-3.8712,0.7982,-1.0781,-913.82,-1936.16,779.11
7810,-3.8711,0.8315,-1.0325,-1820.07,-1998.47,1716.61
7820,-3.8711,0.8341,-0.9415,-1554.44,-154.66,-923.95
7830,-3.8710,0.8379,-0.8438,-1226.32,-514.04,91.86
7840,-3.8710,0.8528,-0.7867,-741.94,1.59,-1611.02
7850,-3.8708,0.8666,-0.7745,1164.31,-701.48,-1689.09
7860,-3.8707,0.8695,-0.7721,-1070.07,861.02,-798.40
7870,-3.8706,0.8597,-0.7491,-695.07,1173.52,-782.78
7880,-3.8705,0.8319,-0.7032,-1945.07,111.02,545.41
7890,-3.8706,0.7819,-0.6478,-1507.57,1985.96,-1501.40
7900,-3.8707,0.7191,-0.6021,86.18,1079.65,1998.72
7910,-3.8708,0.6638,-0.5829,54.93,-1061.10,264.40
7920,-3.8711,0.6227,-0.5890,976.81,1391.91,-1954.28
7930,-3.8712,0.5815,-0.6069,-288.82,610.53,623.84
7940,-3.8713,0.5229,-0.6344,-1554.44,-1686.40,873.78
7950,-3.8715,0.4482,-0.6676,-1054.44,-1202.15,-1532.53
7960,-3.8715,0.3781,-0.7096,1383.06,-1452.27,967.41
7970,-3.8716,0.3232,-0.7739,398.68,1172.61,-110.78
7980,-3.8716,0.2710,-0.8483,1383.06,938.11,-892.15
7990,-3.8716,0.2117,-0.9052,-1304.44,-577.64,-392.33
8000,-3.8715,0.1516,-0.9331,-898.19,140.99,1138.85
8010,-3.8716,-0.0350,-1.0309,992.43,-656.25,1076.17
8020,-3.8717,-0.0981,-1.1029,-476.32,62.38,1716.74
8030,-3.8718,-0.1951,-1.1862,-554.44,-1156.49,1560.30
8040,-3.8719,-0.3240,-1.2754,-960.69,187.07,1450.81
8050,-3.8721,-0.4597,-1.3608,-1460.69,764.95,-1908.75
8060,-3.8722,-0.5706,-1.4424,1164.31,1827.21,-1018.31
8070,-3.8722,-0.6553,-1.5262,-1023.19,-610.53,387.76
8080,-3.8723,-0.7421,-1.5951,133.06,654.97,-1721.74
8090,-3.8724,-0.8536,-1.6196,1023.68,-157.71,-1440.67
8100,-3.8727,-0.9814,-1.5883,-1257.57,701.42,-471.92
8110,-3.8729,-1.0984,-1.5115,-1616.94,716.80,1356.26
8120,-3.8733,-1.1857,-1.4104,-585.69,-1455.32,1778.26
8130,-3.8737,-1.2443,-1.3070,242.43,-517.94,-1502.81
8140,-3.8739,-1.2904,-1.2092,742.43,716.31,169.31
8150,-3.8743,-1.3346,-1.1127,-1163.82,1231.81,-471.13
8160,-3.8744,-1.3823,-1.0183,1179.93,1591.13,857.18
8170,-3.8746,-1.4448,-0.9296,-929.44,1669.13,-1033.26
8180,-3.8748,-1.5320,-0.8394,-929.44,1028.38,701.29
8190,-3.8750,-1.6428,-0.7339,-85.69,575.07,1951.48
8200,-3.8440,-1.7631,-0.6088,1726.81,-1925.11,-688.96
8210,-3.8441,-1.8688,-0.4692,-1663.82,-1909.73,1389.40
8220,-3.8442,-1.9410,-0.3278,804.93,-50.54,389.65
8230,-3.8445,-1.9813,-0.1979,-445.07,-1941.35,-31.92
8240,-3.8445,-1.9958,-0.0858,-1601.32,-1316.41,624.57
8250,-3.8446,-1.9835,-0.0038,539.31,1027.34,-781.43
8260,-3.8446,-1.9420,0.0387,-1882.57,-472.66,-593.81
8270,-3.8445,-1.8761,0.0565,-570.07,964.90,906.31
8280,-3.8444,-1.5632,0.1892,-1991.94,-518.86,1531.49
8290,-3.8445,-1.4945,0.2039,-85.69,231.26,-171.51
8300,-3.8445,-1.4386,0.2053,711.18,-1893.55,1969.12
8310,-3.8445,-1.3875,0.1979,-132.57,-1705.99,1156.62
8320,-3.8445,-1.3342,0.1753,-1585.69,1341.00,1265.99
8330,-3.8445,-1.2808,0.1311,1226.81,-1549.50,1984.68
8340,-3.8445,-1.2302,0.0679,70.56,794.37,-406.01
8350,-3.8444,-1.1923,-0.0005,-1460.69,700.68,-1687.38
8360,-3.8442,-1.1740,-0.0620,-601.32,-49.26,1749.94
8370,-3.8441,-1.1707,-0.1121,1742.43,75.81,1406.13
8380,-3.8440,-1.1755,-0.1527,-1835.69,1669.56,1140.38
8390,-3.8439,-1.1830,-0.1896,1539.31,466.43,734.07
8400,-3.8750,-1.1855,-0.2327,586.18,-252.32,30.82
8410,-3.8750,-1.1802,-0.3004,258.06,-1767.94,-859.86
8420,-3.8749,-1.1685,-0.4032,945.56,1560.18,-1578.74
8430,-3.8748,-1.1583,-0.5349,-1554.44,403.93,-1782.04
8440,-3.8746,-1.1680,-0.6786,-257.57,-455.44,-1954.22
8450,-3.8745,-1.2114,-0.8129,-1491.94,1153.93,1108.03
8460,-3.8745,-1.2828,-0.9209,945.56,-33.63,-470.40
8470,-3.8744,-1.3615,-0.9991,-195.07,-1861.94,1920.04
8480,-3.8743,-1.4188,-1.0610,1742.43,122.31,857.42
8490,-3.8741,-1.4294,-1.1320,-1601.32,200.32,497.92
8500,-3.8740,-1.3877,-1.2172,1039.31,-877.81,388.37
8510,-3.8739,-1.3112,-1.2944,-1616.94,216.00,856.99
8520,-3.8738,-1.2181,-1.3361,179.93,-1674.44,1919.31
8530,-3.8737,-1.1132,-1.3333,86.18,997.62,-1362.00
8540,-3.8735,-0.9934,-1.3062,1523.68,1357.18,-862.00
8550,-3.8733,-0.8518,-1.2853,851.81,826.17,434.94
8560,-3.8726,-0.4042,-1.3442,179.93,-235.41,1138.00
8570,-3.8723,-0.3176,-1.3496,273.68,-47.67,325.44
8580,-3.8722,-0.2561,-1.3188,-648.19,-735.05,-1158.94
8590,-3.8719,-0.1979,-1.2520,-773.19,-797.42,794.25
8600,-3.8718,-0.1221,-1.1700,-1320.07,-234.80,-721.25
8610,-3.8716,-0.0231,-1.1122,383.06,-1750.24,-674.19
8620,-3.8713,0.0861,-1.0865,1054.93,1656.19,-486.57
8630,-3.8711,0.1896,-1.0748,-976.32,922.00,-1877.14
8640,-3.8710,0.2859,-1.0662,273.68,-1577.76,-1345.89
8650,-3.8708,0.3772,-1.0507,601.81,-468.20,544.74
8660,-3.8708,0.4639,-1.0236,289.31,1516.36,997.92
8670,-3.8708,0.5471,-0.9974,-616.94,985.23,-1502.01
8680,-3.8707,0.6200,-0.9832,-1960.69,329.16,-1955.08
8690,-3.8706,0.6726,-0.9810,-632.57,-1842.59,-189.45
8700,-3.8704,0.7039,-0.9908,-1898.19,-1561.22,-861.33
8710,-3.8701,0.7129,-1.0125,-1898.19,1173.22,1857.42
8720,-3.8700,0.6964,-1.0310,-741.94,-1592.41,-1736.39
8730,-3.8700,0.6572,-1.0258,1148.68,32.59,-95.76
8740,-3.8700,0.6089,-0.9873,133.06,704.41,-1861.39
8750,-3.8701,0.5667,-0.9178,1945.56,1626.16,513.67
8760,-3.8705,0.5375,-0.8296,539.31,-1483.28,-345.58
8770,-3.8707,0.5221,-0.7423,804.93,1813.54,1451.48
8780,-3.8711,0.5151,-0.6696,-1163.82,985.35,-235.84
8790,-3.8713,0.5101,-0.6184,1945.56,-1702.15,-860.72
8800,-3.8716,0.4995,-0.5970,1304.93,844.73,-594.97
8810,-3.8717,0.4662,-0.6101,-54.44,-420.96,1076.90
8820,-3.8718,0.4106,-0.6412,-320.07,1907.10,1155.03
8830,-3.8719,0.3564,-0.6674,570.56,1922.67,-704.41
8840,-3.8719,0.3167,-0.6974,1633.06,-1421.20,-1610.72
8850,-3.8719,0.2877,-0.7504,539.31,-1265.01,-1079.53
8860,-3.8718,0.2589,-0.8097,836.18,-46.33,951.60
8870,-3.8718,0.2166,-0.8490,1148.68,359.86,-1595.34
8880,-3.8718,0.1545,-0.8717,-273.19,-671.51,-1845.46
8890,-3.8718,0.0791,-0.8922,-210.69,422.12,748.29
8900,-3.8719,0.0056,-0.9174,-1866.94,1797.00,-970.52
8910,-3.8719,-0.0543,-0.9513,726.81,-1421.88,1310.67
8920,-3.8721,-0.1001,-0.9979,1054.93,-1750.12,-845.64
8930,-3.8721,-0.1390,-1.0564,-804.44,281.01,685.55
8940,-3.8722,-0.1846,-1.1219,-1788.82,796.57,-1267.70
8950,-3.8722,-0.2480,-1.1870,383.06,405.88,1029.05
8960,-3.8723,-0.3307,-1.2433,258.06,77.64,-1705.44
8970,-3.8724,-0.4271,-1.2830,1679.93,874.33,1622.56
8980,-3.8727,-0.5326,-1.3091,1336.18,-203.98,-486.94
8990,-3.8728,-0.6466,-1.3351,-163.82,452.03,606.81
9000,-3.8730,-0.7656,-1.3627,1242.43,1123.72,1059.88
9010,-3.8733,-0.8818,-1.3850,-1991.94,1592.22,1341.06
9020,-3.8735,-0.9949,-1.4008,-866.94,-1267.40,1294.13
9030,-3.8738,-1.1119,-1.4020,664.31,716.80,1434.75
9040,-3.8740,-1.2340,-1.3793,1679.93,560.30,-643.37
9050,-3.8741,-1.3535,-1.3301,-1945.07,-533.69,-549.62
9060,-3.8741,-1.4607,-1.2542,-1241.94,1762.94,544.25
9070,-3.8743,-1.5529,-1.1602,1039.31,-518.49,1606.87
9080,-3.8744,-1.6338,-1.0598,1242.43,-487.43,-1455.44
9090,-3.8745,-1.7063,-0.9451,-1116.94,356.14,-1236.45
9100,-3.8746,-1.7638,-0.8008,1601.81,-956.48,1841.86
9110,-3.8748,-1.7955,-0.6373,-1757.57,1512.15,498.41
9120,-3.8750,-1.7964,-0.4780,-1820.07,-1566.04,-845.03
9130,-3.8439,-1.7733,-0.3372,-1929.44,-1175.42,-1954.10
9140,-3.8441,-1.7086,-0.0552,-1023.19,-440.92,-984.68
9150,-3.8441,-1.6799,0.0052,1304.93,949.77,-718.87
9160,-3.8440,-1.6421,0.0597,976.81,684.20,125.00
9170,-3.8440,-1.6050,0.1029,1820.56,-346.98,1531.31
9180,-3.8440,-1.5719,0.1278,-1429.44,1184.33,-812.32
9190,-3.8439,-1.5438,0.1368,-1195.07,371.89,578.37
9200,-3.8439,-1.5178,0.1348,-1601.32,1528.20,1609.62
9210,-3.8439,-1.4922,0.1244,1726.81,1262.63,-1968.51
9220,-3.8439,-1.4689,0.1086,1008.06,-65.43,1187.68
9230,-3.8440,-1.4481,0.0907,-7.57,1918.95,-577.94
9240,-3.8440,-1.4276,0.0662,-1351.32,-377.87,-1749.88
9250,-3.8440,-1.4041,0.0345,1273.68,481.57,-1468.63
9260,-3.8440,-1.3733,0.0049,289.31,434.75,-296.81
9270,-3.8439,-1.3342,-0.0233,226.81,637.94,796.88
9280,-3.8439,-1.2937,-0.0651,1226.81,1028.63,1765.56
9290,-3.8439,-1.2612,-0.1257,-1585.69,-315.06,-875.18
9300,-3.8750,-1.2426,-0.1975,-1429.44,-80.63,1374.69
9310,-3.8749,-1.2391,-0.2720,961.18,-1268.07,93.32
9320,-3.8749,-1.2456,-0.3406,1398.68,1200.68,-1625.55
9330,-3.8748,-1.2526,-0.4017,570.56,419.43,358.70
9340,-3.8748,-1.2528,-0.4633,-320.07,591.25,-1453.92
9350,-3.8746,-1.2411,-0.5292,-351.32,716.25,827.21
9360,-3.8746,-1.2179,-0.5979,1148.68,278.81,-1063.54
9370,-3.8745,-1.1908,-0.6689,117.43,-518.01,373.78
9380,-3.8745,-1.1686,-0.7433,-413.82,-1611.76,904.91
9390,-3.8745,-1.1582,-0.8206,-1570.07,872.68,1029.79
9400,-3.8745,-1.1639,-0.8976,-241.94,-1017.94,-1829.77
9410,-3.8744,-1.1786,-0.9713,-976.32,1122.68,1279.48
9420,-3.8743,-1.1844,-1.0450,1148.68,-314.82,-1439.45
9430,-3.8735,-1.0364,-1.2812,1476.81,1482.18,-393.01
9440,-3.8733,-0.9574,-1.3280,-648.19,13.55,-346.25
9450,-3.8730,-0.8953,-1.3292,1461.18,-1970.64,1278.63
9460,-3.8730,-0.8569,-1.2819,1414.31,1873.23,-237.00
9470,-3.8730,-0.8369,-1.1967,-1679.44,-64.21,-1533.81
9480,-3.8732,-0.8146,-1.0990,883.06,-1157.90,-1580.51
9490,-3.8733,-0.7639,-1.0255,-257.57,-657.90,-1455.32
9500,-3.8733,-0.6810,-0.9924,-1773.19,748.47,904.24
9510,-3.8733,-0.5775,-0.9871,836.18,983.03,-1314.45
9520,-3.8730,-0.4552,-1.0029,-1913.82,1670.72,1123.05
9530,-3.8727,-0.3165,-1.0406,1742.43,-360.29,44.86
9540,-3.8723,-0.1907,-1.0931,-507.57,-1188.17,1794.80
9550,-3.8718,-0.1117,-1.1538,-398.19,93.32,404.11
9560,-3.8715,-0.0746,-1.2058,1711.18,327.88,1075.87
9570,-3.8712,-0.0475,-1.2197,-1538.82,1671.69,622.62
9580,-3.8712,-0.0046,-1.1810,1929.93,-109.50,-893.07
9590,-3.8712,0.0696,-1.1136,-585.69,843.69,-49.19
9600,-3.8711,0.1858,-1.0531,914.31,1453.25,1935.30
9610,-3.8710,0.3341,-1.0176,-210.69,1203.43,-1548.95
9620,-3.8707,0.4824,-1.0106,-1226.32,1750.61,560.49
9630,-3.8706,0.6047,-1.0170,1758.06,-1358.46,1310.49
9640,-3.8706,0.6903,-1.0127,1414.31,1829.28,-705.14
9650,-3.8706,0.7368,-0.9841,367.43,-1623.66,-1736.39
9660,-3.8707,0.7494,-0.9299,-1679.44,-1967.35,-1705.08
9670,-3.8708,0.7378,-0.8577,-70.07,970.15,248.17
9680,-3.8711,0.7158,-0.7759,-1554.44,-1779.85,1404.54
9690,-3.8713,0.7004,-0.6921,-366.94,688.84,-907.78
9700,-3.8715,0.7007,-0.6176,1664.31,-592.41,-1376.40
9710,-3.8716,0.7314,-0.5055,-1148.19,1657.65,-1344.79
9720,-3.8717,0.7047,-0.5013,1633.06,-701.72,-985.41
9730,-3.8718,0.6606,-0.5156,-1788.82,-170.53,-1501.04
9740,-3.8719,0.6034,-0.5596,570.56,-1998.72,-844.79
9750,-3.8719,0.5438,-0.6355,1242.43,376.16,-1641.72
9760,-3.8719,0.4810,-0.7341,1617.43,-1342.71,-454.41
9770,-3.8718,0.4048,-0.8389,1570.56,-1967.83,1529.79
9780,-3.8718,0.3148,-0.9283,-179.44,625.73,-392.27
9790,-3.8717,0.2202,-0.9910,304.93,1172.49,1123.17
9800,-3.8717,0.1320,-1.0358,195.56,1156.68,1748.05
9810,-3.8717,0.0582,-1.0752,898.68,-577.88,1607.30
9820,-3.8717,0.0004,-1.1178,-538.82,-1624.94,1013.49
9830,-3.8717,-0.0431,-1.1696,54.93,921.88,763.43
9840,-3.8717,-0.0748,-1.2327,-1507.57,-1687.62,1403.93
9850,-3.8717,-0.1012,-1.2986,-1570.07,-1765.81,1794.43
9860,-3.8717,-0.1368,-1.3585,-945.07,1796.63,263.06
