timestamp_ms,ax,ay,az,gx,gy,gz
0,-3.8716,0.6776,-0.9071,-1616.94,-92.59,1466.92
10,-3.8713,0.7640,-0.9406,-1257.57,-108.09,-1423.71
20,-3.8710,0.8525,-0.9829,1804.93,-389.16,-392.52
30,-3.8706,0.9259,-1.0057,1133.06,-1810.85,-814.45
40,-3.8704,0.9716,-0.9803,-1476.32,-732.60,591.74
50,-3.8705,0.9912,-0.8931,367.43,-1482.48,-783.20
60,-3.8706,1.0104,-0.7653,-1116.94,1689.39,-1486.15
70,-3.8707,1.0461,-0.6506,1336.18,-1951.17,-235.90
80,-3.8706,1.1011,-0.5812,1914.31,720.76,-1626.28
90,-3.8704,1.1749,-0.5538,945.56,1611.51,-1516.78
100,-3.8700,1.2690,-0.5519,-1601.32,1111.63,-1751.10
110,-3.8696,1.3826,-0.5564,-1554.44,1361.82,-907.35
120,-3.8693,1.4971,-0.5504,976.81,783.94,-579.22
130,-3.8689,1.5826,-0.5298,-366.94,1549.74,1795.78
140,-3.8687,1.6277,-0.4977,-1413.82,190.55,264.59
150,-3.8687,1.6436,-0.4634,351.81,300.05,-1297.85
160,-3.8687,1.6409,-0.4313,-1616.94,690.67,1858.46
170,-3.8688,1.6174,-0.3973,-1960.69,800.05,1061.65
180,-3.8691,1.5707,-0.3663,-960.69,1143.74,-828.92
190,-3.8695,1.5024,-0.3496,1054.93,1112.43,858.64
200,-3.8700,1.4188,-0.3640,320.56,-747.07,874.27
210,-3.8705,1.3381,-0.4275,1617.43,1409.00,-1328.86
220,-3.8707,1.2621,-0.5409,-710.69,1283.81,1608.52
230,-3.8708,1.1681,-0.6727,1554.93,-1231.93,-1594.85
240,-3.8708,1.0564,-0.7855,1523.68,1892.88,1576.78
250,-3.8710,0.9468,-0.8724,-773.19,-544.86,-548.46
260,-3.8711,0.8439,-0.9449,1195.56,329.96,-157.96
270,-3.8712,0.7469,-1.0054,23.68,-951.48,-1.89
280,-3.8713,0.6664,-1.0409,-382.57,-686.10,-48.89
290,-3.8715,0.6085,-1.0574,1304.93,-1233.09,-1002.08
300,-3.8716,0.5714,-1.0886,1898.68,657.41,1951.05
310,-3.8717,0.5486,-1.1528,1148.68,657.35,-1033.39
320,-3.8717,0.5239,-1.2408,-1773.19,438.54,-814.76
330,-3.8716,0.4702,-1.3346,-929.44,1172.85,1685.06
340,-3.8715,0.3767,-1.4167,195.56,1172.79,700.50
350,-3.8715,0.2648,-1.4863,226.81,-1343.02,-643.43
360,-3.8713,0.1626,-1.5594,1898.68,1750.49,-1674.80
370,-3.8712,0.0784,-1.6309,820.56,390.93,-1987.43
380,-3.8711,0.0017,-1.6699,-1960.69,-749.88,465.52
390,-3.8712,-0.0757,-1.6764,226.81,-1750.00,-1690.80
400,-3.8715,-0.1464,-1.6749,-1679.44,1437.32,-1128.30
410,-3.8717,-0.2078,-1.6782,1273.68,1624.69,-1362.67
420,-3.8718,-0.2797,-1.6879,1414.31,1202.70,934.20
430,-3.8719,-0.3844,-1.7018,211.18,-31.80,434.14
440,-3.8721,-0.5305,-1.7242,-1195.07,-1813.29,715.39
450,-3.8722,-0.7045,-1.7488,101.81,-688.54,-315.92
460,-3.8721,-0.8683,-1.7456,1836.18,170.47,-1769.04
470,-3.8719,-0.9819,-1.6989,867.43,576.42,-847.17
480,-3.8717,-1.0332,-1.6311,-1679.44,-1439.45,277.89
490,-3.8717,-1.0415,-1.5726,-241.94,-767.70,-815.73
500,-3.8717,-1.0334,-1.5336,-1304.44,-1283.33,1496.89
510,-3.8719,-1.0389,-1.5055,-273.19,-283.33,-940.55
520,-3.8722,-1.0854,-1.4716,-976.32,-689.58,-1174.87
530,-3.8724,-1.1819,-1.4209,1070.56,-345.89,-252.93
540,-3.8726,-1.3491,-1.3597,726.81,-1861.69,-1018.43
550,-3.8726,-1.5967,-1.3099,-679.44,1966.06,622.31
560,-3.8727,-1.8777,-1.2821,-366.94,340.58,-1018.19
570,-3.8728,-2.1160,-1.2378,-335.69,-97.47,-65.06
580,-3.8729,-2.2698,-1.1227,1164.31,1573.97,1481.93
590,-3.8733,-2.3516,-0.9344,1476.81,308.04,1794.68
600,-3.8738,-2.3979,-0.7212,-991.94,401.61,1529.42
610,-3.8743,-2.4435,-0.5292,1070.56,-301.57,201.66
620,-3.8748,-2.5006,-0.3865,-757.57,276.43,1373.96
630,-3.8439,-2.5627,-0.3035,-70.07,-1458.07,-1172.67
640,-3.8440,-2.6036,-0.2798,-23.19,1166.81,1093.14
650,-3.8441,-2.5938,-0.3015,-1257.57,198.00,-609.92
660,-3.8440,-2.5277,-0.3427,8.06,1416.81,46.26
670,-3.8440,-2.4193,-0.3889,461.18,151.31,1421.20
680,-3.8440,-2.2886,-0.4225,-1663.82,-1770.39,-1828.92
690,-3.8440,-2.1584,-0.4354,-929.44,1932.98,1780.40
700,-3.8441,-2.0470,-0.4479,-273.19,276.98,-47.73
710,-3.8441,-1.9437,-0.4833,1992.43,-1316.53,827.21
720,-3.8442,-1.8215,-0.5601,-788.82,-1847.60,-1125.98
730,-3.8441,-1.6726,-0.6833,-1148.19,324.52,-1672.97
740,-3.8750,-1.5221,-0.8274,1914.31,543.58,795.53
750,-3.8746,-1.4017,-0.9530,1179.93,-1893.62,-595.40
760,-3.8741,-1.3212,-1.0359,586.18,-1971.50,1591.86
770,-3.8738,-1.2726,-1.0724,-1101.32,-580.75,107.30
780,-3.8737,-1.2368,-1.0912,1117.43,-1252.50,-1455.26
790,-3.8735,-1.1882,-1.1376,1695.56,341.31,-486.51
800,-3.8733,-1.1176,-1.2157,-85.69,-1596.13,-1236.63
810,-3.8729,-1.0387,-1.2950,961.18,404.05,1653.87
820,-3.8726,-0.9645,-1.3667,-945.07,-1752.08,1794.31
830,-3.8723,-0.8932,-1.4312,554.93,1076.23,-658.94
840,-3.8721,-0.8254,-1.4799,1679.93,826.35,1325.32
850,-3.8719,-0.7717,-1.5194,-1648.19,-1407.90,1622.07
860,-3.8718,-0.7350,-1.5643,1226.81,1529.72,1043.88
870,-3.8718,-0.6956,-1.6179,1929.93,-220.21,-612.49
880,-3.8717,-0.6310,-1.6683,-1023.19,920.47,1262.45
890,-3.8717,-0.5408,-1.6954,-757.57,-1532.53,-1050.17
900,-3.8716,-0.4314,-1.7009,-1210.69,-1001.10,1137.27
910,-3.8715,-0.3076,-1.7120,789.31,-1703.98,1215.39
920,-3.8713,-0.1787,-1.7451,633.06,874.39,-1097.11
930,-3.8711,-0.0521,-1.7744,1133.06,640.26,684.08
940,-3.8710,0.0682,-1.7651,1336.18,890.50,1512.15
950,-3.8710,0.1824,-1.7147,742.43,-1937.38,-3.48
960,-3.8710,0.2894,-1.6367,-648.19,515.93,-1425.23
970,-3.8711,0.3829,-1.5463,1054.93,-1499.45,1746.77
980,-3.8712,0.4565,-1.4589,1023.68,-1921.14,28.20
990,-3.8713,0.5121,-1.3813,-1554.44,1266.48,356.51
1000,-3.8713,0.5570,-1.3236,1554.93,-811.52,981.63
1010,-3.8712,0.6071,-1.2977,-695.07,-1420.84,-1330.75
1020,-3.8708,0.6796,-1.3052,1711.18,1891.78,1263.06
1030,-3.8705,0.7726,-1.3163,-1007.57,938.78,-1611.94
1040,-3.8701,0.8683,-1.2761,-1101.32,-482.91,934.88
1050,-3.8700,0.9520,-1.1676,-851.32,657.90,481.87
1060,-3.8701,1.0231,-1.0175,1867.43,-1451.29,950.81
1070,-3.8704,1.0817,-0.8654,-1038.82,1767.58,-1392.64
1080,-3.8705,1.1320,-0.7581,-1538.82,1236.45,-1111.08
1090,-3.8704,1.1901,-0.7053,898.68,-1029.05,310.97
1100,-3.8702,1.2601,-0.6708,336.18,1721.07,1857.97
1110,-3.8700,1.3228,-0.6447,1304.93,-1856.93,1483.03
1120,-3.8698,1.3683,-0.6375,1320.56,1486.94,1279.97
1130,-3.8695,1.4006,-0.6407,-851.32,-1591.13,748.72
1140,-3.8694,1.4236,-0.6376,-710.69,1987.06,-188.78
1150,-3.8691,1.4490,-0.6240,-1773.19,-1606.63,1779.97
1160,-3.8690,1.4880,-0.6068,1476.81,127.81,1670.65
1170,-3.8690,1.5372,-0.5806,-1523.19,-1669.01,-1704.35
1180,-3.8691,1.5823,-0.5417,773.68,1690.49,-1891.78
1190,-3.8694,1.6116,-0.5012,-1460.69,-1340.70,639.53
1200,-3.8699,1.6171,-0.4756,-1710.69,-153.14,-329.16
1210,-3.8702,1.5865,-0.4866,-1007.57,-871.89,1874.02
1220,-3.8706,1.5116,-0.5337,-913.82,1721.80,733.40
1230,-3.8710,1.3953,-0.5948,1492.43,-309.57,655.15
1240,-3.8713,1.2463,-0.6649,-1398.19,-137.94,-1563.72
1250,-3.8716,1.0802,-0.7456,-460.69,-1106.99,-985.72
1260,-3.8717,0.9172,-0.8257,-1726.32,564.58,-485.84
1270,-3.8716,0.7732,-0.8933,1414.31,-1685.73,45.23
1280,-3.8716,0.6528,-0.9475,-1023.19,1657.71,-1501.77
1290,-3.8715,0.5607,-0.9896,-429.44,-1280.03,857.48
1300,-3.8715,0.4958,-1.0170,-226.32,1329.16,-1955.08
1310,-3.8715,0.4452,-1.0381,-523.19,1829.04,1357.36
1320,-3.8715,0.4050,-1.0714,992.43,-874.15,122.92
1330,-3.8715,0.3823,-1.1219,-148.19,-1139.89,497.86
1340,-3.8715,0.3647,-1.1771,945.56,391.36,-1736.57
1350,-3.8715,0.3307,-1.2262,-1304.44,1328.80,-2.32
1360,-3.8713,0.2812,-1.2804,-1663.82,-952.51,1638.18
1370,-3.8713,0.2360,-1.3506,8.06,109.92,-127.50
1380,-3.8712,0.2089,-1.4222,-1788.82,-874.57,-1455.81
1390,-3.8711,0.1891,-1.4799,-1257.57,1953.49,153.44
1400,-3.8712,0.1470,-1.5166,211.18,-1421.51,-1237.30
1410,-3.8713,0.0685,-1.5208,-1179.44,1875.24,1809.51
1420,-3.8716,-0.0363,-1.4946,773.68,1343.87,-1893.62
1430,-3.8718,-0.1514,-1.4630,-632.57,703.00,1028.32
1440,-3.8721,-0.2711,-1.4669,633.06,749.69,1731.51
1450,-3.8722,-0.3923,-1.5369,1304.93,249.45,-174.74
1460,-3.8719,-0.5051,-1.6438,1789.31,-703.92,1028.20
1470,-3.8717,-0.6112,-1.7173,-648.19,1608.34,-706.36
1480,-3.8713,-0.7140,-1.7169,1773.68,201.90,1965.39
1490,-3.8711,-0.8101,-1.6621,617.43,248.60,762.27
1500,-3.8711,-0.8992,-1.5902,320.56,-735.96,-1143.92
1510,-3.8711,-0.9784,-1.5232,914.31,466.98,-549.99
1520,-3.8710,-1.0399,-1.4633,-1226.32,1044.92,106.38
1530,-3.8711,-1.0731,-1.4038,-1101.32,716.67,-127.87
1540,-3.8711,-1.0853,-1.3478,-1351.32,325.99,-1393.37
1550,-3.8711,-1.1075,-1.3057,1086.18,-502.14,1450.44
1560,-3.8711,-1.1642,-1.2738,-1757.57,888.43,1606.81
1570,-3.8711,-1.2433,-1.2321,-1007.57,966.43,-1221.25
1580,-3.8711,-1.3054,-1.1729,867.43,-1689.94,-643.07
1590,-3.8711,-1.3290,-1.1042,914.31,1888.06,-1330.44
1600,-3.8711,-1.3301,-1.0361,1898.68,-1330.75,935.30
1610,-3.8712,-1.3452,-0.9767,1758.06,-612.00,-1095.83
1620,-3.8712,-1.3955,-0.9209,-179.44,-1002.69,857.42
1630,-3.8713,-1.4745,-0.8529,1383.06,-1862.12,1904.42
1640,-3.8715,-1.5712,-0.7654,-726.32,-1159.18,826.42
1650,-3.8717,-1.6859,-0.6581,-1101.32,-1956.24,1029.72
1660,-3.8721,-1.8325,-0.5364,211.18,-222.05,-470.09
1670,-3.8723,-2.0374,-0.4036,1445.56,-644.23,1498.90
1680,-3.8727,-2.3325,-0.2590,-773.19,355.35,-1735.17
1690,-3.8730,-2.6693,-0.1427,1445.56,-1145.20,561.95
1700,-3.8735,-2.8633,-0.1166,-1663.82,1744.75,-1937.81
1710,-3.8738,-2.7844,-0.1687,1508.06,1088.13,1952.88
1720,-3.8737,-2.4938,-0.2460,-398.19,-1583.62,-1937.87
1730,-3.8733,-2.1339,-0.3218,804.93,526.37,-1078.61
1740,-3.8728,-1.8030,-0.3894,-1132.57,-1176.09,858.70
1750,-3.8726,-1.5247,-0.4380,1226.81,-1831.67,-1750.79
1760,-3.8724,-1.2892,-0.4620,851.81,-49.87,61.58
1770,-3.8727,-1.0958,-0.4744,-1007.57,872.44,-610.29
1780,-3.8728,-0.9564,-0.4846,-257.57,-705.32,295.90
1790,-3.8730,-0.8866,-0.4980,1586.18,1982.48,-1735.35
1800,-3.8732,-0.8864,-0.5208,-1476.32,263.85,-1063.48
1810,-3.8732,-0.9226,-0.5658,-1445.07,1357.60,-1079.16
1820,-3.8730,-0.9585,-0.6396,1914.31,-408.08,-1876.16
1830,-3.8729,-0.9795,-0.7263,1320.56,-1861.27,-282.53
1840,-3.8727,-0.9813,-0.8051,-1366.94,-955.08,-1892.09
1850,-3.8724,-0.9646,-0.8696,-1601.32,966.80,154.66
1860,-3.8723,-0.9457,-0.9254,539.31,701.23,-1798.58
1870,-3.8721,-0.9366,-0.9789,-1038.82,1560.61,795.04
1880,-3.8719,-0.9268,-1.0299,117.43,-1283.08,-1314.45
1890,-3.8718,-0.9058,-1.0824,1383.06,185.67,-1580.14
1900,-3.8717,-0.8738,-1.1433,70.56,1466.98,341.61
1910,-3.8717,-0.8350,-1.2096,164.31,1670.17,1544.62
1920,-3.8717,-0.7957,-1.2631,1133.06,1185.85,1528.87
1930,-3.8718,-0.7661,-1.2974,-1835.69,-1657.84,-736.88
1940,-3.8718,-0.7489,-1.3441,1945.56,1951.60,106.81
1950,-3.8719,-0.7319,-1.4219,148.68,-32.71,-1283.94
1960,-3.8718,-0.7061,-1.5104,-1679.44,-1985.84,512.82
1970,-3.8717,-0.6680,-1.5861,1633.06,-1313.90,434.51
1980,-3.8717,-0.6155,-1.6348,-1491.94,998.66,-362.49
1990,-3.8716,-0.5482,-1.6641,1226.81,-1235.60,637.39
2000,-3.8717,-0.4692,-1.6918,1836.18,-985.47,-81.42
2010,-3.8717,-0.3915,-1.7356,-54.44,-532.23,-1034.61
2020,-3.8717,-0.3239,-1.7932,1898.68,1858.58,-222.17
2030,-3.8716,-0.2516,-1.8229,-1445.07,-1516.30,-550.42
2040,-3.8713,-0.1553,-1.7992,-195.07,-1313.05,277.65
2050,-3.8713,-0.0389,-1.7383,133.06,1718.44,-1487.92
2060,-3.8713,0.0865,-1.6553,-976.32,1515.50,324.71
2070,-3.8715,0.2303,-1.5634,-913.82,125.12,28.02
2080,-3.8716,0.3998,-1.4824,1492.43,-108.95,1262.51
2090,-3.8716,0.5831,-1.4152,-820.07,-1749.27,1262.70
2100,-3.8716,0.7689,-1.3401,-1351.32,-1139.53,-1049.68
2110,-3.8716,0.9423,-1.2427,-1570.07,470.21,-18.25
2120,-3.8716,1.0839,-1.1331,617.43,939.33,1888.18
2130,-3.8717,1.1788,-1.0276,-1257.57,-1029.17,1888.37
2140,-3.8717,1.2197,-0.9410,-1101.32,471.01,91.74
2150,-3.8717,1.2133,-0.8802,133.06,-450.74,1607.48
2160,-3.8716,1.1901,-0.8456,-695.07,-669.56,-1876.77
2170,-3.8713,1.1954,-0.8429,336.18,-232.06,-1157.96
2180,-3.8708,1.2537,-0.8771,1023.68,111.69,935.85
2190,-3.8704,1.3521,-0.9242,476.81,-263.18,-1376.77
2200,-3.8699,1.4608,-0.9415,1070.56,1705.75,-1470.58
2210,-3.8695,1.5675,-0.9072,-1007.57,-512.82,138.73
2220,-3.8695,1.6671,-0.8256,648.68,-121.95,-642.46
2230,-3.8695,1.7438,-0.7252,1398.68,-1668.64,-876.65
2240,-3.8695,1.7898,-0.6405,-788.82,-824.77,1232.91
2250,-3.8696,1.8096,-0.5889,1101.81,-1980.90,-1673.16
2260,-3.8698,1.8048,-0.5804,-366.94,628.48,-641.78
2270,-3.8698,1.7690,-0.6095,-976.32,1706.60,61.34
2280,-3.8700,1.6838,-0.6635,-1554.44,1987.79,-704.35
2290,-3.8701,1.5404,-0.7393,-460.69,-918.64,1279.91
2300,-3.8704,1.3619,-0.8154,1179.93,1377.99,-532.71
2310,-3.8705,1.1831,-0.8574,-1663.82,-372.38,-1142.27
2320,-3.8706,1.0201,-0.8577,-554.44,-1747.74,-1361.08
2330,-3.8707,0.8801,-0.8429,-1413.82,-1779.30,1295.17
2340,-3.8710,0.7759,-0.8475,664.31,111.08,-829.77
2350,-3.8711,0.7018,-0.8877,-679.44,-482.91,1404.54
2360,-3.8712,0.6276,-0.9547,1836.18,-1623.66,670.10
2370,-3.8713,0.5367,-1.0266,336.18,1798.10,1763.73
2380,-3.8713,0.4371,-1.0873,711.18,594.79,685.49
2390,-3.8713,0.3397,-1.1357,-38.82,828.92,1044.74
2400,-3.8713,0.2512,-1.1782,-507.57,-1374.39,-1330.38
2410,-3.8712,0.1818,-1.2102,164.31,1187.99,1247.68
2420,-3.8711,0.1407,-1.2198,-726.32,1094.06,75.74
2430,-3.8711,0.1266,-1.2208,-1976.32,-140.38,-1986.82
2440,-3.8711,0.1290,-1.2391,211.18,-265.38,-1830.57
2450,-3.8711,0.1256,-1.2819,523.68,1390.87,1185.06
2460,-3.8711,0.0939,-1.3386,86.18,-77.88,591.19
2470,-3.8711,0.0375,-1.4036,23.68,656.43,1028.63
2480,-3.8711,-0.0271,-1.4753,804.93,343.81,1778.50
2490,-3.8711,-0.0913,-1.5377,539.31,-828.19,1122.07
2500,-3.8712,-0.1608,-1.5620,320.56,-812.68,637.57
2510,-3.8716,-0.2617,-1.5316,-570.07,77.76,-1846.80
2520,-3.8721,-0.4194,-1.4675,-1491.94,-31.80,-1612.43
2530,-3.8726,-0.6251,-1.4098,-1679.44,171.02,-1627.87
2540,-3.8728,-0.8474,-1.3940,-7.57,-438.78,778.44
2550,-3.8728,-1.0618,-1.4280,-460.69,1576.42,778.50
2560,-3.8726,-1.2355,-1.4808,101.81,1232.30,309.69
2570,-3.8723,-1.3326,-1.5242,1867.43,-1533.69,-612.30
2580,-3.8719,-1.3558,-1.5355,1429.93,919.25,1793.88
2590,-3.8717,-1.3324,-1.4849,-1538.82,-533.94,246.95
2600,-3.8717,-1.2837,-1.3672,1461.18,1950.50,1262.70
2610,-3.8718,-1.2322,-1.2189,-304.44,1013.06,-1830.81
2620,-3.8719,-1.1979,-1.0923,-1710.69,-2.44,-1986.82
2630,-3.8721,-1.1976,-1.0267,-1320.07,200.74,1966.61
2640,-3.8722,-1.2438,-1.0142,-1288.82,591.37,826.11
2650,-3.8724,-1.3584,-1.0038,804.93,-1799.32,1919.86
2660,-3.8727,-1.5605,-0.9503,-1866.94,-471.44,-1830.14
2670,-3.8729,-1.8298,-0.8285,258.06,-1628.05,-1173.77
2680,-3.8730,-2.1279,-0.6443,1789.31,1965.15,13.98
2690,-3.8734,-2.4218,-0.4340,-366.94,1542.66,-782.53
2700,-3.8738,-2.6506,-0.2390,-1976.32,463.99,1124.15
2710,-3.8744,-2.7214,-0.0911,726.81,1416.69,-391.11
2720,-3.8748,-2.6106,0.0081,-335.69,354.00,-1922.06
2730,-3.8749,-2.4021,0.0532,1851.81,1041.75,-1859.38
2740,-3.8748,-2.1796,0.0377,539.31,-1176.57,-359.31
2750,-3.8744,-1.9755,-0.0168,1023.68,839.48,-1515.56
2760,-3.8740,-1.8008,-0.0782,-851.32,1855.47,1781.19
2770,-3.8738,-1.6632,-0.1304,1508.06,1996.46,1765.44
2780,-3.8737,-1.5610,-0.1770,-882.57,-675.17,1655.94
2790,-3.8737,-1.4703,-0.2052,195.56,1356.32,-1406.62
2800,-3.8737,-1.3832,-0.1967,-195.07,1747.07,827.70
2810,-3.8738,-1.3173,-0.1727,-1038.82,-1159.00,327.70
2820,-3.8740,-1.2812,-0.1672,-601.32,1903.63,-1531.62
2830,-3.8741,-1.2622,-0.1951,8.06,-1393.13,-1953.49
2840,-3.8741,-1.2441,-0.2571,-1554.44,-955.63,1546.45
2850,-3.8740,-1.2220,-0.3396,758.06,-893.07,1249.45
2860,-3.8739,-1.2012,-0.4271,-413.82,544.43,-922.55
2870,-3.8737,-1.2013,-0.5128,-1741.94,1341.37,1155.40
2880,-3.8735,-1.2439,-0.6006,-1757.57,-1627.38,-579.16
2890,-3.8733,-1.3121,-0.6978,789.31,-861.82,-1532.47
2900,-3.8730,-1.3593,-0.8011,54.93,-1299.44,1936.10
2910,-3.8728,-1.3586,-0.8940,-1976.32,1466.06,889.04
2920,-3.8727,-1.3099,-0.9545,-1898.19,1575.44,-1611.15
2930,-3.8726,-1.2296,-0.9852,336.18,1841.19,1263.73
2940,-3.8726,-1.1471,-1.0139,-1382.57,1903.81,998.05
2950,-3.8727,-1.0867,-1.0597,1179.93,-1767.88,-1502.01
2960,-3.8728,-1.0565,-1.1241,914.31,372.86,-267.70
2970,-3.8728,-1.0459,-1.2092,773.68,122.92,-1205.32
2980,-3.8727,-1.0330,-1.3253,-1866.94,1232.30,1560.12
2990,-3.8726,-1.0026,-1.4716,-210.69,-1627.08,-96.37
3000,-3.8722,-0.9530,-1.6376,-320.07,-345.76,528.32
3010,-3.8719,-0.8848,-1.8035,-1976.32,-1595.64,-1706.36
3020,-3.8716,-0.7931,-1.9263,-1241.94,1170.10,371.46
3030,-3.8713,-0.6744,-1.9808,-1507.57,1451.54,918.09
3040,-3.8712,-0.5302,-1.9769,1679.93,-1532.59,480.47
3050,-3.8713,-0.3650,-1.9402,148.68,-1032.29,-1488.28
3060,-3.8715,-0.1912,-1.8976,1289.31,-328.86,-1675.72
3070,-3.8716,-0.0269,-1.8651,-460.69,1124.57,-816.22
3080,-3.8716,0.1163,-1.8358,570.56,1281.19,-1753.66
3090,-3.8716,0.2404,-1.7899,-1101.32,1015.81,-1175.48
3100,-3.8715,0.3572,-1.7264,-1226.32,-1108.95,152.71
3110,-3.8715,0.4758,-1.6490,1726.81,-983.70,1902.83
3120,-3.8715,0.5891,-1.5604,914.31,922.79,-1221.98
3130,-3.8715,0.6910,-1.4655,-585.69,266.72,1106.32
3140,-3.8716,0.7897,-1.3650,461.18,423.22,1090.88
3150,-3.8717,0.8934,-1.2729,1086.18,1282.78,-1768.31
3160,-3.8717,0.9983,-1.2041,-1632.57,1064.21,-736.88
3170,-3.8716,1.0972,-1.1580,-210.69,1876.89,-49.26
3180,-3.8713,1.1871,-1.1304,445.56,-216.61,-252.32
3190,-3.8710,1.2633,-1.1050,-38.82,-685.24,1997.74
3200,-3.8706,1.3209,-1.0618,1711.18,-1435.06,91.55
3210,-3.8705,1.3601,-1.0034,1086.18,96.31,-158.33
3220,-3.8704,1.3876,-0.9459,-1898.19,-434.88,-48.89
3230,-3.8704,1.4073,-0.8989,1617.43,-1075.44,-361.27
3240,-3.8704,1.4202,-0.8615,148.68,940.25,326.35
3250,-3.8705,1.4420,-0.8259,1789.31,1737.12,388.92
3260,-3.8706,1.4788,-0.7935,586.18,-1715.94,1560.85
3270,-3.8707,1.5133,-0.7600,1289.31,-1559.63,-564.09
3280,-3.8707,1.5386,-0.7159,1711.18,-1278.32,810.97
3290,-3.8708,1.5559,-0.6743,945.56,362.37,1436.10
3300,-3.8710,1.5583,-0.6603,-835.69,1690.49,1186.16
3310,-3.8712,1.5406,-0.6754,-523.19,-512.63,-63.84
3320,-3.8713,1.5006,-0.6995,1211.18,1549.87,-1376.34
3330,-3.8715,1.4323,-0.7201,86.18,-1528.32,1467.35
3340,-3.8716,1.3390,-0.7389,-663.82,-169.13,61.04
3350,-3.8718,1.2255,-0.7687,-601.32,1424.44,-985.84
3360,-3.8719,1.0911,-0.8229,867.43,1611.76,-1251.53
3370,-3.8721,0.9502,-0.8878,-335.69,-1326.05,-220.40
3380,-3.8721,0.8252,-0.9330,1633.06,-1638.79,-1314.27
3390,-3.8721,0.7250,-0.9534,1633.06,579.71,-1533.08
3400,-3.8721,0.6464,-0.9686,804.93,1970.15,1216.86
3410,-3.8722,0.5961,-0.9948,-1257.57,16.85,-876.89
3420,-3.8722,0.5778,-1.0437,304.93,673.03,-1939.45
3430,-3.8722,0.5646,-1.1188,1961.18,-1592.65,-1486.45
3440,-3.8721,0.5277,-1.2019,273.68,797.97,169.68
3450,-3.8721,0.4598,-1.2689,-445.07,-1842.77,-1643.01
3460,-3.8719,0.3766,-1.3123,-1132.57,1578.98,810.00
3470,-3.8718,0.3049,-1.3418,211.18,31.98,388.06
3480,-3.8717,0.2559,-1.3698,-960.69,250.55,1294.25
3490,-3.8716,0.2277,-1.4041,758.06,672.36,-1705.81
3500,-3.8715,0.2189,-1.4507,1148.68,281.68,-1721.50
3510,-3.8713,0.2202,-1.5077,23.68,-1687.07,934.63
3520,-3.8713,0.2140,-1.5685,195.56,-983.95,1903.26
3530,-3.8713,0.1891,-1.6194,-601.32,-765.26,1496.89
3540,-3.8715,0.1412,-1.6501,211.18,719.12,-846.92
3550,-3.8717,0.0514,-1.6520,-1913.82,781.49,-1159.48
3560,-3.8722,-0.1040,-1.6058,-1413.82,546.94,-1190.73
3570,-3.8727,-0.3209,-1.5239,-1304.44,-1531.49,-1815.67
3580,-3.8729,-0.5610,-1.4661,-1070.07,952.45,-674.87
3590,-3.8727,-0.7682,-1.4700,195.56,358.28,-1705.99
3600,-3.8722,-0.9166,-1.5374,1679.93,-142.15,-34.18
3610,-3.8715,-1.0129,-1.6539,-1320.07,-767.46,-815.55
3620,-3.8707,-1.0548,-1.7473,-1648.19,310.49,-1612.61
3630,-3.8701,-0.9604,-1.3170,414.31,-205.08,809.45
3640,-3.8705,-0.9434,-1.1743,1070.56,-564.39,1325.50
3650,-3.8708,-0.9220,-1.1282,-741.94,1701.23,1700.81
3660,-3.8711,-0.8896,-1.1340,1992.43,-392.46,-986.63
3670,-3.8711,-0.8789,-1.1411,-1866.94,-1142.40,1575.87
3680,-3.8711,-0.9358,-1.1232,-491.94,1951.35,1997.74
3690,-3.8711,-1.0687,-1.0669,226.81,248.17,1732.18
3700,-3.8711,-1.2524,-0.9703,-788.82,-549.01,1450.99
3710,-3.8711,-1.4647,-0.8573,-304.44,-190.00,1404.30
3720,-3.8712,-1.6975,-0.7609,523.68,-1721.62,-767.33
3730,-3.8713,-1.9657,-0.6791,-1273.19,-1378.36,670.35
3740,-3.8718,-2.3153,-0.5471,398.68,1089.90,-188.84
3750,-3.8724,-2.7164,-0.3352,-351.32,1979.80,-1422.97
3760,-3.8733,-2.9674,-0.1096,304.93,1104.06,-1047.55
3770,-3.8740,-2.9269,0.0570,179.93,1978.58,-1812.74
3780,-3.8744,-2.6825,0.1249,1367.43,-693.24,-1124.94
3790,-3.8743,-2.3829,0.0948,648.68,-5.25,-562.32
3800,-3.8738,-2.1069,-0.0094,-1007.57,151.55,-1656.07
3810,-3.8732,-1.8668,-0.1475,-1679.44,-1191.65,718.69
3820,-3.8727,-1.6434,-0.2622,1054.93,1136.96,296.57
3830,-3.8724,-1.4274,-0.3265,1648.68,-1550.11,796.33
3840,-3.8724,-1.2411,-0.3544,1304.93,-1784.06,1905.58
3850,-3.8726,-1.1255,-0.3723,1148.68,-1346.19,-1078.86
3860,-3.8726,-1.0930,-0.3911,-54.44,357.12,61.77
3870,-3.8727,-1.1127,-0.4122,101.81,1950.99,-422.67
3880,-3.8726,-1.1440,-0.4401,1586.18,-752.20,436.65
3890,-3.8726,-1.1656,-0.4835,1570.56,-314.76,1592.83
3900,-3.8726,-1.1677,-0.5486,-1195.07,-1877.32,-407.23
3910,-3.8724,-1.1469,-0.6281,-1460.69,1794.56,-1110.47
3920,-3.8723,-1.1177,-0.7241,1211.18,-377.26,-313.78
3930,-3.8721,-1.0978,-0.8439,945.56,-674.07,1748.54
3940,-3.8718,-1.0897,-0.9679,-507.57,-2.20,638.92
3950,-3.8717,-1.0870,-1.0712,523.68,122.86,-642.52
3960,-3.8715,-1.0769,-1.1411,867.43,-1095.89,216.61
3970,-3.8715,-1.0459,-1.1805,-1835.69,1950.99,-1283.51
3980,-3.8713,-0.9943,-1.2137,-1866.94,904.17,28.93
3990,-3.8713,-0.9304,-1.2556,742.43,654.30,903.87
4000,-3.8713,-0.8625,-1.2976,914.31,-704.96,810.00
4010,-3.8715,-0.8014,-1.3361,1601.81,1920.17,-1065.06
4020,-3.8716,-0.7529,-1.3885,1429.93,998.41,-862.00
4030,-3.8717,-0.7135,-1.4678,-366.94,-1720.28,-1174.62
4040,-3.8717,-0.6715,-1.5477,679.93,139.22,184.63
4050,-3.8718,-0.6168,-1.5945,-1945.07,1904.91,-596.80
4060,-3.8718,-0.5491,-1.6071,1054.93,-79.35,-1331.30
4070,-3.8718,-0.4708,-1.6055,1726.81,-1688.60,903.08
4080,-3.8719,-0.3809,-1.6093,-257.57,-1485.35,-1284.42
4090,-3.8719,-0.2744,-1.6183,-741.94,-1969.54,1168.70
4100,-3.8719,-0.1549,-1.6102,883.06,874.45,574.95
4110,-3.8719,-0.0302,-1.5675,179.93,1905.94,387.45
4120,-3.8719,0.1044,-1.4993,148.68,-625.06,168.76
4130,-3.8719,0.2598,-1.4333,1367.43,93.93,856.45
4140,-3.8719,0.4255,-1.3853,1258.06,531.74,-80.93
4150,-3.8717,0.5746,-1.3420,-1523.19,-1311.71,1122.25
4160,-3.8716,0.6918,-1.2789,1554.93,219.85,-1502.62
4170,-3.8715,0.7665,-1.1857,554.93,298.22,1763.12
4180,-3.8715,0.7864,-1.0847,-1882.57,235.84,1888.31
4190,-3.8716,0.7631,-1.0093,664.31,1157.78,-80.26
4200,-3.8716,0.7311,-0.9730,1679.93,-1186.04,-1642.64
4210,-3.8716,0.7217,-0.9669,1586.18,-545.47,-158.20
4220,-3.8713,0.7498,-0.9810,383.06,235.78,1326.23
4230,-3.8711,0.8154,-1.0045,-23.19,-1561.10,1998.05
4240,-3.8708,0.9080,-1.0101,383.06,-576.54,-80.14
4250,-3.8705,1.0132,-0.9758,226.81,-1295.10,857.36
4260,-3.8704,1.1176,-0.9138,1695.56,-904.30,-1173.83
4270,-3.8702,1.2029,-0.8516,-945.07,-966.61,1060.67
4280,-3.8702,1.2605,-0.8022,1976.81,-997.68,248.29
4290,-3.8704,1.2994,-0.7708,1351.81,1314.94,1826.54
4300,-3.8704,1.3340,-0.7645,-1663.82,1346.25,467.22
4310,-3.8704,1.3689,-0.7726,-1241.94,-1856.81,-798.40
4320,-3.8701,1.3951,-0.7769,-773.19,1112.00,1560.97
4330,-3.8699,1.3986,-0.8040,-1413.82,565.19,232.85
4340,-3.8698,1.3727,-0.8700,-976.32,1096.44,935.91
4350,-3.8698,1.3138,-0.9277,-288.82,643.25,-1392.33
4360,-3.8699,1.2224,-0.9382,179.93,1252.56,-501.83
4370,-3.8701,1.1099,-0.9199,476.81,-91.37,-1923.77
4380,-3.8705,0.9889,-0.9113,-1929.44,-1747.86,45.04
4390,-3.8710,0.8654,-0.9286,-1413.82,-638.73,-1720.58
4400,-3.8712,0.7362,-0.9620,-1226.32,1142.27,138.79
4410,-3.8715,0.5933,-1.0005,-1757.57,860.78,1404.36
4420,-3.8716,0.4440,-1.0457,-54.44,-61.40,1388.61
4430,-3.8716,0.3131,-1.1045,836.18,-1842.90,404.17
4440,-3.8716,0.2089,-1.1724,86.18,-1374.39,-1111.57
4450,-3.8713,0.1268,-1.2355,-1257.57,1937.87,325.81
4460,-3.8712,0.0736,-1.2820,242.43,1859.62,-1158.69
4470,-3.8710,0.0597,-1.2992,1429.93,-93.63,122.44
4480,-3.8710,0.0751,-1.2937,-351.32,1703.19,1997.44
4490,-3.8711,0.0930,-1.2898,1617.43,-1593.63,-955.69
4500,-3.8712,0.0947,-1.3021,-85.69,-1093.63,997.44
4510,-3.8715,0.0741,-1.3323,133.06,1328.31,-2.56
4520,-3.8715,0.0308,-1.3759,1492.43,1468.87,1934.88
4530,-3.8715,-0.0161,-1.4340,-54.44,-109.38,-909.00
4540,-3.8712,-0.0416,-1.5062,1945.56,468.69,59.69
4550,-3.8711,-0.0411,-1.5707,-1320.07,-781.37,1809.51
4560,-3.8711,-0.0138,-1.5946,-1257.57,-1031.37,-1081.24
4570,-3.8712,0.0181,-1.5732,-1757.57,-93.81,949.95
4580,-3.8717,0.0039,-1.5291,-1679.44,-1375.00,-924.99
4590,-3.8723,-0.0890,-1.4766,508.06,281.25,-1174.87
4600,-3.8729,-0.2722,-1.4285,617.43,-984.56,1465.82
4610,-3.8734,-0.5426,-1.4193,1164.31,1171.33,-1830.93
4620,-3.8735,-0.8580,-1.4763,-1445.07,-1657.35,-487.18
4630,-3.8730,-1.1294,-1.5566,-1820.07,-954.83,215.82
4640,-3.8723,-1.2844,-1.5995,-554.44,763.37,90.70
4650,-3.8716,-1.3085,-1.5819,-398.19,-721.31,371.83
4660,-3.8712,-1.2247,-1.5093,523.68,1528.69,-753.11
4670,-3.8711,-1.0957,-1.4099,-757.57,-1174.32,1168.88
4680,-3.8715,-1.0015,-1.3082,-241.94,-455.32,-112.18
4690,-3.8718,-0.9951,-1.2124,-179.44,560.49,372.44
4700,-3.8723,-1.0795,-1.1301,633.06,826.17,435.12
4710,-3.8727,-1.2062,-1.0829,1836.18,-642.76,1403.99
4720,-3.8728,-1.3212,-1.0797,1617.43,1403.87,-986.51
4730,-3.8726,-1.3953,-1.0880,-1101.32,1809.88,1091.61
4740,-3.8723,-1.4326,-1.0708,1414.31,747.25,-1033.39
4750,-3.8721,-1.4587,-1.0228,633.06,-1049.68,-33.39
4760,-3.8718,-1.4852,-0.9590,1289.31,1090.88,1669.86
4770,-3.8718,-1.5154,-0.8922,1898.68,1262.70,-1783.14
4780,-3.8719,-1.5543,-0.8091,-1960.69,1809.51,420.10
4790,-3.8723,-1.6146,-0.6932,1054.93,450.07,264.04
4800,-3.8729,-1.7460,-0.5277,1336.18,-721.92,1920.47
4810,-3.8737,-2.0189,-0.3242,523.68,465.33,1358.34
4820,-3.8745,-2.3809,-0.1449,1586.18,-1488.34,327.45
4830,-3.8441,-2.6283,-0.0193,-741.94,1464.05,1546.57
4840,-3.8446,-2.6488,0.0585,-413.82,1541.69,1562.44
4850,-3.8446,-2.5135,0.0812,961.18,-505.19,296.94
4860,-3.8444,-2.3225,0.0416,-1726.32,-1598.69,-1171.75
4870,-3.8439,-2.1125,-0.0497,-1273.19,1339.17,-1859.31
4880,-3.8746,-1.8872,-0.1611,1601.81,1652.10,281.13
4890,-3.8744,-1.6583,-0.2598,-1554.44,-613.10,-1797.24
4900,-3.8743,-1.4393,-0.3198,-257.57,-1237.67,-1172.42
4910,-3.8743,-1.2446,-0.3387,-226.32,-924.74,-1360.05
4920,-3.8744,-1.0963,-0.3481,695.56,653.81,-219.42
4930,-3.8744,-1.0096,-0.3778,-320.07,-549.07,1858.64
4940,-3.8743,-0.9866,-0.4340,-1226.32,-345.76,1046.08
4950,-3.8740,-1.0135,-0.5061,1726.81,466.80,1577.27
4960,-3.8738,-1.0645,-0.5703,-1726.32,-767.64,-1219.79
4970,-3.8735,-1.1071,-0.6146,-241.94,-986.51,905.09
4980,-3.8735,-1.1295,-0.6545,-1695.07,1341.55,-282.47
4990,-3.8734,-1.1449,-0.7026,-570.07,232.12,576.84
5000,-3.8734,-1.1600,-0.7626,1461.18,-1924.13,1639.22
5010,-3.8733,-1.1724,-0.8367,-476.32,-1596.07,1482.85
5020,-3.8730,-1.1794,-0.9055,1945.56,919.56,842.10
5030,-3.8728,-1.1801,-0.9396,1039.31,107.06,966.98
5040,-3.8727,-1.1693,-0.9495,961.18,-252.32,-1939.39
5050,-3.8727,-1.1450,-0.9810,-1663.82,-1517.94,-564.39
5060,-3.8727,-1.1108,-1.0590,1445.56,-1549.13,-720.70
5070,-3.8727,-1.0718,-1.1646,1820.56,466.55,-64.58
5080,-3.8726,-1.0377,-1.2637,-1179.44,-1049.01,-1517.94
5090,-3.8724,-1.0122,-1.3469,-820.07,-1736.45,1997.50
5100,-3.8723,-0.9781,-1.4325,-1554.44,-392.64,1169.19
5110,-3.8723,-0.9114,-1.5226,-1195.07,654.30,-502.81
5120,-3.8722,-0.8134,-1.5875,-648.19,1123.17,1168.88
5130,-3.8722,-0.7122,-1.6074,-101.32,810.85,-1643.74
5140,-3.8722,-0.6278,-1.5961,851.81,-1735.78,-1425.05
5150,-3.8722,-0.5574,-1.5785,-351.32,-282.53,-1909.42
5160,-3.8722,-0.4816,-1.5734,664.31,1967.65,-1581.24
5170,-3.8721,-0.3828,-1.5852,-1632.57,-1375.98,1137.51
5180,-3.8719,-0.2679,-1.5995,-991.94,1108.58,-1674.99
5190,-3.8717,-0.1497,-1.6013,1711.18,-719.30,1512.45
5200,-3.8715,-0.0183,-1.5854,851.81,-953.43,-1346.92
5210,-3.8711,0.1383,-1.5436,1664.31,1078.06,137.51
5220,-3.8710,0.3103,-1.4741,1711.18,-1577.88,-1143.68
5230,-3.8708,0.4697,-1.3926,-273.19,-686.95,1028.32
5240,-3.8710,0.5939,-1.3149,133.06,1750.92,-237.12
5250,-3.8710,0.6732,-1.2502,23.68,-311.34,-1752.62
5260,-3.8708,0.7178,-1.2094,-1820.07,-29.97,1138.12
5270,-3.8705,0.7764,-1.1973,-116.94,1204.47,1403.87
5280,-3.8698,0.9196,-1.2118,-616.94,-1248.54,1372.62
5290,-3.8689,1.1608,-1.2324,1711.18,892.40,-1049.26
5300,-3.8682,1.4463,-1.2192,586.18,-1747.74,-1408.69
5310,-3.8678,1.7164,-1.1426,1133.06,-59.69,1544.43
5320,-3.8679,1.9181,-1.0032,-288.82,1753.30,-80.38
5330,-3.8682,2.0127,-0.8362,1523.68,-402.53,1591.74
5340,-3.8685,1.9977,-0.6949,1633.06,972.66,732.73
5350,-3.8689,1.8984,-0.6227,-288.82,-949.28,-1438.90
5360,-3.8690,1.7561,-0.6323,-991.94,300.54,1576.90
5370,-3.8690,1.5990,-0.7113,789.31,-934.08,1764.34
5380,-3.8689,1.4420,-0.8196,679.93,956.24,936.10
5390,-3.8689,1.2994,-0.9073,586.18,-903.44,-736.02
5400,-3.8689,1.1666,-0.9514,-1663.82,-138.12,248.17
5410,-3.8693,1.0366,-0.9518,1336.18,-1778.99,-1908.14
5420,-3.8698,0.9141,-0.9141,695.56,-1826.11,1685.61
5430,-3.8704,0.8010,-0.8542,1008.06,-998.23,1388.79
5440,-3.8710,0.6914,-0.7994,-1460.69,-1342.22,998.29
5450,-3.8716,0.5818,-0.7726,508.06,1673.22,-17.21
5460,-3.8718,0.4790,-0.7821,-1523.19,1110.47,482.85
5470,-3.8721,0.3900,-0.8289,1320.56,-108.46,-204.71
5480,-3.8719,0.3142,-0.9053,1929.93,1906.98,1482.73
5490,-3.8718,0.2446,-0.9905,226.81,125.61,-1267.40
5500,-3.8716,0.1754,-1.0610,-679.44,1219.18,685.55
5510,-3.8715,0.1145,-1.0956,-1538.82,187.81,1482.30
5520,-3.8715,0.0753,-1.0955,-1335.69,-234.19,-330.32
5530,-3.8715,0.0535,-1.0925,1648.68,-218.63,-361.57
5540,-3.8715,0.0314,-1.1090,-1148.19,156.31,-924.01
5550,-3.8715,-0.0050,-1.1439,23.68,-1953.06,-1142.82
5560,-3.8715,-0.0663,-1.1877,-632.57,1593.69,-721.01
5570,-3.8713,-0.1470,-1.2330,-476.32,-15.81,1591.37
5580,-3.8712,-0.2217,-1.2832,1195.56,-1812.81,-908.69
5590,-3.8710,-0.2675,-1.3400,-366.94,-234.86,-830.69
5600,-3.8707,-0.2677,-1.3872,1773.68,499.45,-1283.87
5610,-3.8706,-0.2251,-1.4105,1742.43,-1547.42,1247.25
5620,-3.8708,-0.1909,-1.4050,-804.44,-531.74,-784.06
5630,-3.8712,-0.2368,-1.3688,-429.44,171.45,997.25
5640,-3.8718,-0.3975,-1.3236,1695.56,812.01,-487.06
5650,-3.8722,-0.6417,-1.2987,1133.06,-1407.04,1700.50
5660,-3.8723,-0.9006,-1.3168,1867.43,1779.97,1106.81
5670,-3.8722,-1.1156,-1.3585,726.81,-533.02,-1830.75
5680,-3.8718,-1.2529,-1.3680,1211.18,-1877.20,1700.44
5690,-3.8715,-1.3136,-1.3224,-366.94,903.75,1841.06
5700,-3.8713,-1.3313,-1.2238,-132.57,-1252.62,-908.87
5710,-3.8715,-1.3434,-1.0961,1601.81,-627.62,-736.82
5720,-3.8717,-1.3594,-0.9850,54.93,-283.87,-1642.82
5730,-3.8719,-1.3555,-0.9131,-1991.94,1934.81,1966.80
5740,-3.8721,-1.3168,-0.8691,-1491.94,-862.06,763.79
5750,-3.8722,-1.2668,-0.8345,-538.82,763.00,1795.17
5760,-3.8723,-1.2408,-0.7897,1851.81,1200.62,-1079.77
5770,-3.8724,-1.2603,-0.7260,1179.93,-1064.94,-642.21
5780,-3.8724,-1.3180,-0.6498,-1304.44,-908.75,139.16
5790,-3.8726,-1.3967,-0.5687,-695.07,841.13,-1641.91
5800,-3.8726,-1.4750,-0.4949,1226.81,-784.00,-1657.41
5810,-3.8726,-1.5284,-0.4562,-788.82,668.95,-719.73
5820,-3.8726,-1.5485,-0.4681,367.43,1622.01,-219.67
5830,-3.8726,-1.5388,-0.4841,1804.93,90.70,-891.54
5840,-3.8727,-1.5249,-0.4387,-960.69,-1956.18,-344.73
5850,-3.8729,-1.5527,-0.3185,820.56,-143.62,1639.71
5860,-3.8735,-1.6575,-0.1555,1258.06,-753.05,-1828.80
5870,-3.8744,-1.8411,0.0297,-148.19,106.08,-1625.31
5880,-3.8441,-2.0582,0.2216,351.81,-191.10,-1437.50
5890,-3.8450,-2.2321,0.3811,554.93,370.97,141.05
5900,-3.8457,-2.3000,0.4742,-1695.07,792.48,-1389.89
5910,-3.8458,-2.2441,0.4724,1601.81,714.23,1266.54
5920,-3.8455,-2.1033,0.3696,758.06,479.98,219.67
5930,-3.8448,-1.9294,0.2051,-1210.69,-676.03,1578.80
5940,-3.8441,-1.7421,0.0355,1039.31,-1738.16,-1359.01
5950,-3.8746,-1.5450,-0.0841,1023.68,559.08,1500.06
5960,-3.8741,-1.3491,-0.1335,-1757.57,1246.95,1562.32
5970,-3.8739,-1.1670,-0.1372,-679.44,-1080.81,937.19
5980,-3.8739,-1.0090,-0.1351,-1366.94,-1549.19,1827.82
5990,-3.8739,-0.8940,-0.1582,-1148.19,-1283.26,390.32
6000,-3.8739,-0.8375,-0.2087,1570.56,-236.15,499.63
6010,-3.8739,-0.8396,-0.2645,804.93,1295.23,-500.43
6020,-3.8737,-0.8918,-0.3068,539.31,-1845.40,499.45
6030,-3.8735,-0.9767,-0.3379,1851.81,748.23,1671.26
6040,-3.8734,-1.0714,-0.3774,-1007.57,763.67,1546.20
6050,-3.8733,-1.1555,-0.4427,-1132.57,-299.01,702.33
6060,-3.8732,-1.2117,-0.5264,101.81,-658.51,780.33
6070,-3.8730,-1.2344,-0.6003,914.31,638.24,-1985.41
6080,-3.8729,-1.2227,-0.6473,-1991.94,-830.57,-1094.97
6090,-3.8728,-1.1713,-0.6788,-491.94,1153.81,-1782.53
6100,-3.8728,-1.0934,-0.7174,-1913.82,1122.68,-485.72
6110,-3.8727,-1.0222,-0.7723,54.93,185.36,14.22
6120,-3.8727,-0.9734,-0.8362,1164.31,1154.24,1357.85
6130,-3.8727,-0.9406,-0.9006,-585.69,982.42,-642.27
6140,-3.8726,-0.9218,-0.9766,-382.57,732.48,1591.98
6150,-3.8724,-0.9169,-1.0660,-1976.32,-986.21,576.17
6160,-3.8723,-0.9247,-1.1448,-1351.32,-439.33,388.49
6170,-3.8723,-0.9448,-1.1860,1648.68,1482.54,-64.76
6180,-3.8722,-0.9686,-1.1992,-929.44,201.23,-1767.94
6190,-3.8722,-0.9835,-1.2236,23.68,-1486.27,-1314.88
6200,-3.8722,-0.9778,-1.2715,-1882.57,-611.33,1372.56
6210,-3.8723,-0.9442,-1.3258,-1148.19,1263.67,-1377.50
6220,-3.8724,-0.8864,-1.3761,-851.32,-1689.39,-1705.75
6230,-3.8726,-0.8025,-1.4242,-1445.07,-126.77,575.38
6240,-3.8728,-0.6914,-1.4668,1289.31,1717.16,-1284.06
6250,-3.8729,-0.5579,-1.4923,-491.94,264.22,-1174.74
6260,-3.8729,-0.4021,-1.4923,601.81,998.90,-1627.93
6270,-3.8728,-0.2334,-1.4647,539.31,999.21,1325.20
6280,-3.8726,-0.0660,-1.4185,-1866.94,530.76,59.63
6290,-3.8722,0.0967,-1.3770,-445.07,-1547.06,372.19
6300,-3.8717,0.2635,-1.3749,383.06,-249.82,-1190.25
6310,-3.8710,0.4379,-1.4187,1742.43,16.11,1059.81
6320,-3.8702,0.6139,-1.4751,54.93,-1592.90,137.82
6330,-3.8696,0.7883,-1.4968,-1413.82,-811.34,1528.32
6340,-3.8691,0.9497,-1.4507,914.31,407.78,1418.95
6350,-3.8689,1.0778,-1.3300,1570.56,-1685.67,122.13
6360,-3.8690,1.1530,-1.1477,1961.18,1767.70,1606.75
6370,-3.8693,1.1566,-0.9695,-413.82,1095.95,-752.26
6380,-3.8694,1.0975,-0.8763,54.93,-91.49,-1533.20
6390,-3.8694,1.0162,-0.8651,492.43,-169.74,920.10
6400,-3.8694,0.9480,-0.8800,-1913.82,1267.58,-1048.58
6410,-3.8691,0.9124,-0.8971,1351.81,-638.79,76.35
6420,-3.8690,0.9109,-0.9222,789.31,1173.65,-1408.02
6430,-3.8688,0.9265,-0.9623,601.81,1954.90,420.04
6440,-3.8687,0.9354,-1.0078,-1398.19,829.90,685.61
6450,-3.8687,0.9275,-1.0370,-257.57,-998.23,-283.26
6460,-3.8685,0.9221,-1.0455,-1273.19,-732.60,-1673.95
6470,-3.8685,0.9406,-1.0463,-1960.69,-1826.35,-205.20
6480,-3.8685,0.9739,-1.0437,398.68,-1920.04,1091.67
6490,-3.8689,1.0007,-1.0284,664.31,-1591.86,-33.33
6500,-3.8693,1.0063,-0.9983,101.81,361.33,904.24
6510,-3.8699,0.9812,-0.9688,820.56,220.70,1888.67
6520,-3.8705,0.9175,-0.9491,1601.81,1.89,1154.36
6530,-3.8711,0.8121,-0.9414,1445.56,-1482.60,1435.61
6540,-3.8716,0.6692,-0.9602,-38.82,-498.47,1888.73
6550,-3.8718,0.4990,-1.0055,1664.31,1095.03,13.73
6560,-3.8721,0.3246,-1.0529,-116.94,-702.21,-845.76
6570,-3.8721,0.1715,-1.0880,1554.93,1234.99,-1986.45
6580,-3.8721,0.0525,-1.1113,1961.18,734.68,-705.26
6590,-3.8719,-0.0251,-1.1304,-1273.19,1750.06,-1955.32
6600,-3.8718,-0.0551,-1.1555,789.31,-671.94,1466.49
6610,-3.8717,-0.0471,-1.1946,961.18,109.25,794.62
6620,-3.8717,-0.0359,-1.2531,1976.81,-890.75,-393.01
6630,-3.8716,-0.0508,-1.3191,-585.69,-375.12,1981.87
6640,-3.8715,-0.0984,-1.3781,1508.06,-828.25,216.13
6650,-3.8715,-0.1752,-1.4268,-585.69,-375.24,-1018.37
6660,-3.8713,-0.2584,-1.4662,1586.18,1390.26,-1846.56
6670,-3.8712,-0.3136,-1.4951,-1070.07,343.20,1309.63
6680,-3.8711,-0.3237,-1.5154,-132.57,639.95,512.70
6690,-3.8711,-0.2898,-1.5414,-1429.44,-1953.80,-1424.87
6700,-3.8711,-0.2289,-1.5790,-1085.69,-1281.86,1465.70
6710,-3.8713,-0.2008,-1.6224,-1288.82,1905.76,-987.49
6720,-3.8717,-0.2925,-1.6484,-1695.07,343.32,949.95
6730,-3.8723,-0.5319,-1.6160,-1429.44,1015.01,1012.39
6740,-3.8729,-0.8643,-1.5332,-70.07,1170.78,-1300.05
6750,-3.8732,-1.1935,-1.4655,1383.06,-236.08,1543.82
6760,-3.8732,-1.4187,-1.4561,-757.57,435.12,-2.87
6770,-3.8727,-1.4872,-1.4946,-1585.69,1637.82,590.88
6780,-3.8722,-1.4373,-1.5227,1648.68,700.20,1465.82
6790,-3.8718,-1.3638,-1.4648,39.31,1106.57,231.38
6800,-3.8719,-1.3384,-1.3083,1445.56,512.94,-659.12
6810,-3.8722,-1.3776,-1.0964,695.56,544.25,1591.19
6820,-3.8726,-1.4584,-0.8867,-320.07,-330.87,450.93
6830,-3.8729,-1.5397,-0.7334,1336.18,-1487.24,1498.23
6840,-3.8730,-1.5754,-0.6675,-1070.07,-1862.43,1061.04
6850,-3.8730,-1.5507,-0.6715,-1648.19,-1424.99,-329.47
6860,-3.8728,-1.4924,-0.6943,1523.68,-1940.55,-1345.09
6870,-3.8726,-1.4393,-0.7001,976.81,-862.30,-329.53
6880,-3.8723,-1.4115,-0.6675,-226.32,-1596.62,-548.28
6890,-3.8722,-1.4221,-0.5974,-663.82,-1424.68,1686.16
6900,-3.8723,-1.4792,-0.5098,1976.81,-455.93,155.03
6910,-3.8728,-1.5656,-0.3995,-1335.69,-1237.30,-454.16
6920,-3.8733,-1.6572,-0.2489,-382.57,871.89,-1625.79
6930,-3.8738,-1.7494,-0.0764,-116.94,152.95,421.39
6940,-3.8744,-1.8612,0.0801,86.18,-1769.04,-250.18
6950,-3.8748,-2.0195,0.2102,1773.68,-1738.04,281.37
6960,-3.8440,-2.2098,0.3264,1508.06,-1082.09,1375.37
6970,-3.8445,-2.3542,0.4203,1148.68,1792.54,-1436.89
6980,-3.8448,-2.3644,0.4695,-1335.69,1807.86,1750.79
6990,-3.8451,-2.2234,0.4631,1367.43,104.74,-827.21
7000,-3.8450,-1.9974,0.3937,-585.69,-707.52,1813.35
7010,-3.8446,-1.7611,0.2806,336.18,-1597.66,266.36
7020,-3.8442,-1.5568,0.1595,-1413.82,-65.98,-1468.26
7030,-3.8750,-1.3896,0.0577,742.43,434.45,203.43
7040,-3.8748,-1.2454,-0.0115,-1866.94,-596.50,-1812.44
7050,-3.8745,-1.1260,-0.0729,601.81,-1455.57,671.81
7060,-3.8744,-1.0507,-0.1592,-116.94,-1314.76,1749.82
7070,-3.8743,-1.0260,-0.2537,1523.68,-361.45,-953.49
7080,-3.8740,-1.0332,-0.3174,679.93,-455.14,30.70
7090,-3.8740,-1.0493,-0.3569,-241.94,-611.45,-828.80
7100,-3.8739,-1.0604,-0.3992,1695.56,-1673.95,843.02
7110,-3.8739,-1.0763,-0.4358,273.68,919.80,-828.92
7120,-3.8737,-1.1267,-0.4532,-1757.57,232.24,233.52
7130,-3.8735,-1.2322,-0.4622,-210.69,1997.74,-891.54
7140,-3.8733,-1.3706,-0.4825,-1710.69,856.93,77.21
7150,-3.8733,-1.4971,-0.5425,570.56,-1752.69,842.77
7160,-3.8734,-1.5969,-0.6637,383.06,-1424.80,-172.97
7170,-3.8733,-1.6624,-0.8201,-398.19,-940.67,1514.28
7180,-3.8732,-1.6686,-0.9513,-773.19,-956.42,-1751.65
7190,-3.8730,-1.6090,-1.0364,-1570.07,-1753.30,-673.77
7200,-3.8729,-1.5023,-1.1019,-1945.07,-643.80,-1752.08
7210,-3.8729,-1.3785,-1.1647,-288.82,-1034.24,-1470.95
7220,-3.8729,-1.2620,-1.2292,-445.07,-1065.25,-1721.07
7230,-3.8729,-1.1637,-1.3040,-1523.19,-1330.63,-658.69
7240,-3.8728,-1.0892,-1.3850,-945.07,1107.06,1075.56
7250,-3.8728,-1.0475,-1.4579,586.18,-1267.76,1950.38
7260,-3.8728,-1.0398,-1.5219,1929.93,1404.17,1387.76
7270,-3.8729,-1.0366,-1.5858,-1085.69,1216.67,-252.99
7280,-3.8729,-0.9895,-1.6503,-679.44,1029.17,-1799.99
7290,-3.8729,-0.8733,-1.7041,1351.81,779.30,1184.27
7300,-3.8729,-0.6987,-1.7347,226.81,1888.92,1074.77
7310,-3.8729,-0.4800,-1.7428,-1429.44,1967.35,-925.29
7320,-3.8728,-0.2267,-1.7339,-1429.44,936.52,-175.29
7330,-3.8726,0.0510,-1.7207,-1007.57,-1922.36,-269.04
7340,-3.8722,0.3403,-1.7092,-1460.69,-249.94,-753.42
7350,-3.8717,0.6067,-1.6821,-429.44,1219.36,1215.39
7360,-3.8713,0.8064,-1.6213,1664.31,688.66,1949.83
7370,-3.8711,0.9323,-1.5260,-773.19,470.28,-1581.30
7380,-3.8710,1.0068,-1.4324,-663.82,673.65,-940.49
7390,-3.8708,1.0491,-1.3928,883.06,658.20,-877.81
7400,-3.8706,1.0735,-1.4102,-1710.69,1720.76,1434.75
7410,-3.8704,1.0991,-1.4252,1414.31,-497.92,1653.44
7420,-3.8701,1.1300,-1.3821,695.56,1580.26,950.32
7430,-3.8700,1.1543,-1.2817,648.68,-904.05,731.63
7440,-3.8700,1.1805,-1.1702,-241.94,-60.30,1075.56
7450,-3.8701,1.2224,-1.0975,-882.57,-1778.99,-252.32
7460,-3.8701,1.2666,-1.0724,476.81,-481.99,-1424.07
7470,-3.8701,1.3102,-1.0680,-1866.94,-1263.18,-564.64
7480,-3.8700,1.3638,-1.0607,-288.82,-700.62,1982.24
7490,-3.8699,1.4238,-1.0385,-1429.44,237.00,263.55
7500,-3.8699,1.4847,-1.0096,-1741.94,-919.13,1966.67
7510,-3.8699,1.5353,-0.9950,-1945.07,-1231.51,-830.14
7520,-3.8699,1.5579,-0.9937,523.68,643.62,-1111.33
7530,-3.8700,1.5405,-0.9810,-585.69,815.49,-986.33
7540,-3.8702,1.4738,-0.9495,1195.56,-1559.51,1607.42
7550,-3.8707,1.3524,-0.9209,648.68,-1528.38,-392.52
7560,-3.8711,1.1902,-0.9199,1117.43,-1872.38,920.04
7570,-3.8715,1.0116,-0.9395,351.81,-1747.68,763.79
7580,-3.8718,0.8335,-0.9503,1492.43,-248.05,-861.27
7590,-3.8721,0.6703,-0.9453,-1304.44,-1639.04,-923.77
7600,-3.8722,0.5406,-0.9481,1804.93,-998.72,1263.73
7610,-3.8723,0.4471,-0.9823,1211.18,-1358.34,-1033.14
7620,-3.8723,0.3760,-1.0364,1242.43,-1733.52,-595.70
7630,-3.8722,0.3191,-1.0909,133.06,-655.52,1185.42
7640,-3.8722,0.2679,-1.1401,851.81,359.99,-486.51
7650,-3.8721,0.2146,-1.1646,-1695.07,-1937.01,1310.24
7660,-3.8721,0.1615,-1.1566,-523.19,-1062.13,1982.06
7670,-3.8721,0.1155,-1.1470,679.93,-46.57,-1877.32
7680,-3.8721,0.0865,-1.1533,-1210.69,1187.68,-1361.63
7690,-3.8719,0.0879,-1.1766,-913.82,375.12,419.62
7700,-3.8719,0.1191,-1.2251,-741.94,1390.75,-49.19
7710,-3.8717,0.1625,-1.3010,-741.94,-812.32,356.93
7720,-3.8716,0.1945,-1.3989,804.93,1469.06,684.94
7730,-3.8715,0.1979,-1.5049,898.68,937.87,559.75
7740,-3.8715,0.1658,-1.5967,1336.18,-624.63,-2.99
7750,-3.8713,0.0961,-1.6526,1226.81,-374.69,1809.33
7760,-3.8715,-0.0034,-1.6693,304.93,468.93,-1112.61
7770,-3.8718,-0.1190,-1.6605,-429.44,-1656.31,-81.42
7780,-3.8723,-0.2567,-1.6193,773.68,-531.49,965.45
7790,-3.8730,-0.4370,-1.5363,-851.32,749.45,-1112.55
7800,-3.8735,-0.6537,-1.4410,70.56,-625.85,825.07
7810,-3.8738,-0.8611,-1.3824,336.18,-438.78,372.13
7820,-3.8738,-1.0151,-1.3804,1789.31,-939.21,1950.38
7830,-3.8735,-1.1096,-1.4242,-1929.44,-673.89,-1112.12
7840,-3.8730,-1.1519,-1.4872,1976.81,1716.55,856.57
7850,-3.8726,-1.1443,-1.5211,570.56,1653.99,950.20
7860,-3.8722,-1.1094,-1.4918,1539.31,1310.24,-1034.24
7870,-3.8719,-1.0897,-1.3987,-1991.94,1060.30,965.82
7880,-3.8721,-1.1162,-1.2672,523.68,982.24,1419.13
7890,-3.8723,-1.1824,-1.1471,1133.06,1810.30,-1971.25
7900,-3.8724,-1.2499,-1.0846,664.31,1185.18,466.49
7910,-3.8726,-1.2858,-1.0924,23.68,1185.06,-205.26
7920,-3.8723,-1.2888,-1.1299,-570.07,184.94,1044.74
7930,-3.8721,-1.2999,-1.1371,-960.69,-611.94,1466.49
7940,-3.8719,-1.3621,-1.0796,1617.43,-1533.81,-314.76
7950,-3.8718,-1.4771,-0.9624,1664.31,1825.44,1154.11
7960,-3.8719,-1.6221,-0.8252,-1054.44,825.20,-705.02
7970,-3.8721,-1.7552,-0.7067,383.06,-1612.55,-64.15
7980,-3.8722,-1.8362,-0.6210,-663.82,1559.02,-579.53
7990,-3.8723,-1.8605,-0.5570,976.81,527.65,1748.78
8000,-3.8726,-1.8640,-0.4839,1867.43,715.09,-1157.35
8010,-3.8728,-1.9044,-0.3713,1414.31,-1925.54,1374.02
8020,-3.8733,-2.0353,-0.1942,242.43,480.65,-641.36
8030,-3.8739,-2.2798,0.0355,-507.57,-847.78,-641.05
8040,-3.8746,-2.5426,0.2474,195.56,558.04,1515.69
8050,-3.8442,-2.6512,0.3787,-1445.07,-317.50,-905.82
8060,-3.8447,-2.5415,0.4335,648.68,479.19,-1624.27
8070,-3.8447,-2.3060,0.4039,-1304.44,-505.00,-1624.21
8080,-3.8444,-2.0692,0.2726,836.18,-285.77,-686.77
8090,-3.8750,-1.8763,0.1007,-851.32,-1097.84,219.24
8100,-3.8746,-1.7112,-0.0353,-163.82,902.53,-1234.19
8110,-3.8744,-1.5442,-0.1022,976.81,-503.36,-968.87
8120,-3.8744,-1.3698,-0.1178,-1648.19,-1065.55,-609.62
8130,-3.8745,-1.2089,-0.1268,679.93,934.81,-1922.12
8140,-3.8748,-1.0889,-0.1525,1273.68,-221.13,-578.43
8150,-3.8749,-1.0314,-0.1842,633.06,497.86,-1500.31
8160,-3.8749,-1.0408,-0.2098,-7.57,435.42,702.76
8170,-3.8749,-1.0914,-0.2428,-1210.69,1154.17,-1719.18
8180,-3.8748,-1.1479,-0.3132,304.93,935.36,-1937.99
8190,-3.8746,-1.2019,-0.4425,1070.56,-80.38,-985.05
8200,-3.8744,-1.2615,-0.6089,-1835.69,-627.38,-1907.17
8210,-3.8740,-1.3207,-0.7473,-1460.69,-1924.38,530.03
8220,-3.8737,-1.3622,-0.8138,-1038.82,356.75,607.91
8230,-3.8734,-1.3745,-0.8295,1648.68,-158.94,-1611.02
8240,-3.8733,-1.3600,-0.8527,70.56,1841.06,-1126.65
8250,-3.8733,-1.3267,-0.9120,1929.93,-1127.69,-1423.58
8260,-3.8733,-1.2833,-0.9900,-1804.44,-721.37,154.42
8270,-3.8734,-1.2485,-1.0739,-257.57,1294.31,1560.55
8280,-3.8734,-1.2400,-1.1677,195.56,-1439.94,107.24
8290,-3.8734,-1.2499,-1.2589,1289.31,-1455.57,1310.18
8300,-3.8733,-1.2534,-1.3295,23.68,-1127.44,1247.50
8310,-3.8732,-1.2324,-1.3838,-429.44,1841.25,1934.88
8320,-3.8730,-1.1833,-1.4388,-1741.94,-1111.82,1856.63
8330,-3.8729,-1.1221,-1.5084,539.31,-158.57,1294.01
8340,-3.8728,-1.0640,-1.5986,383.06,-1064.70,543.88
8350,-3.8727,-1.0029,-1.6930,-179.44,-611.51,106.20
8360,-3.8726,-0.9424,-1.7662,-366.94,-689.51,1074.77
8370,-3.8724,-0.8940,-1.8131,-616.94,1935.61,-1987.85
8380,-3.8723,-0.8492,-1.8447,1570.56,-64.27,793.27
8390,-3.8723,-0.7814,-1.8673,-695.07,-111.08,-1191.16
8400,-3.8722,-0.6655,-1.8696,-7.57,998.41,1965.09
8410,-3.8721,-0.4963,-1.8376,-1179.44,701.78,-1675.54
8420,-3.8719,-0.2888,-1.7786,476.81,795.90,-769.23
8430,-3.8718,-0.0665,-1.7130,-960.69,358.76,-1050.35
8440,-3.8718,0.1522,-1.6417,-507.57,749.82,-518.98
8450,-3.8718,0.3472,-1.5543,-507.57,1859.62,637.39
8460,-3.8721,0.4921,-1.4741,445.56,1047.55,-362.43
8470,-3.8722,0.5739,-1.4358,-1007.57,-686.58,-502.93
8480,-3.8721,0.6028,-1.4189,1461.18,219.85,122.19
8490,-3.8718,0.6113,-1.3909,1164.31,-1623.84,137.82
8500,-3.8715,0.6349,-1.3552,-1741.94,1969.91,-1862.12
8510,-3.8710,0.6990,-1.3207,1273.68,-1467.53,-1549.56
8520,-3.8705,0.8156,-1.2882,1476.81,-1045.53,-1424.50
8530,-3.8700,0.9696,-1.2684,398.68,-889.04,1513.06
8540,-3.8696,1.1376,-1.2477,117.43,1642.52,-565.00
8550,-3.8693,1.2999,-1.1760,1617.43,299.07,1841.31
8560,-3.8691,1.4283,-1.0574,-1601.32,1471.25,-1971.07
8570,-3.8691,1.5010,-0.9589,-1163.82,659.00,1560.42
8580,-3.8691,1.5273,-0.9198,133.06,1268.55,1138.73
8590,-3.8690,1.5415,-0.9258,-491.94,-1731.45,1638.79
8600,-3.8688,1.5646,-0.9475,1320.56,1502.99,-79.96
8610,-3.8684,1.5787,-0.9746,273.68,-1278.20,-330.02
8620,-3.8682,1.5642,-1.0007,-1913.82,-746.95,-673.83
8630,-3.8682,1.5264,-1.0072,226.81,-90.70,-533.26
8640,-3.8684,1.4705,-0.9801,-616.94,-918.95,-1236.39
8650,-3.8689,1.3923,-0.9279,226.81,-1450.26,-1376.95
8660,-3.8695,1.2875,-0.8894,-1773.19,1237.06,-486.21
8670,-3.8700,1.1545,-0.8885,804.93,-1841.25,1857.60
8680,-3.8705,1.0059,-0.9102,-210.69,-1732.18,-189.27
8690,-3.8707,0.8556,-0.9415,758.06,-498.05,1826.29
8700,-3.8708,0.7094,-0.9910,1523.68,-513.98,138.73
8710,-3.8710,0.5757,-1.0575,-1195.07,1157.59,-1580.08
8720,-3.8710,0.4617,-1.1266,1695.56,641.72,-1548.95
8730,-3.8710,0.3680,-1.1720,-898.19,-202.27,1497.74
8740,-3.8711,0.2887,-1.1708,-882.57,1985.05,1966.43
8750,-3.8713,0.2157,-1.1315,961.18,-1858.83,-64.82
8760,-3.8715,0.1470,-1.0919,-382.57,-827.76,732.12
8770,-3.8717,0.0883,-1.0890,-1179.44,234.62,-1674.01
8780,-3.8718,0.0548,-1.1345,-695.07,609.50,-549.01
8790,-3.8717,0.0463,-1.2115,-976.32,-1218.69,1950.87
8800,-3.8715,0.0419,-1.2921,1929.93,921.94,169.49
8810,-3.8713,0.0262,-1.3627,1367.43,-1390.56,-1361.94
8820,-3.8712,-0.0042,-1.4122,-632.57,1578.12,-471.44
8830,-3.8711,-0.0403,-1.4290,-523.19,-750.06,1934.69
8840,-3.8711,-0.0706,-1.4231,-1148.19,1109.25,637.82
8850,-3.8713,-0.0992,-1.4167,-1023.19,1859.19,-487.18
8860,-3.8716,-0.1395,-1.4171,-695.07,-1328.37,-580.93
8870,-3.8718,-0.2076,-1.4178,-1851.32,-1375.31,1262.82
8880,-3.8722,-0.3348,-1.4186,1429.93,-1469.18,-1909.06
8890,-3.8726,-0.5304,-1.4130,1148.68,-1563.17,-65.31
8900,-3.8727,-0.7455,-1.3925,117.43,-844.79,1887.82
8910,-3.8727,-0.9193,-1.3589,586.18,1779.79,1356.63
8920,-3.8726,-1.0286,-1.3143,-1663.82,-1923.71,1044.19
8930,-3.8724,-1.0850,-1.2594,351.81,-220.76,-1377.62
8940,-3.8722,-1.1165,-1.2020,1133.06,-1189.64,1341.25
8950,-3.8719,-1.1517,-1.1577,1101.81,-1845.95,1013.24
8960,-3.8718,-1.1935,-1.1259,586.18,-174.13,-127.32
8970,-3.8716,-1.2268,-1.1051,-757.57,-96.13,1278.99
8980,-3.8715,-1.2556,-1.0995,-1023.19,-1439.94,1216.55
8990,-3.8715,-1.2965,-1.0913,-710.69,-721.25,-580.32
9000,-3.8713,-1.3601,-1.0515,-1945.07,325.56,357.24
9010,-3.8715,-1.4373,-0.9612,1914.31,1419.19,-1111.45
9020,-3.8716,-1.5135,-0.8345,39.31,981.57,1951.23
9030,-3.8718,-1.5792,-0.7097,-1726.32,1200.13,-298.52
9040,-3.8719,-1.6212,-0.6147,1867.43,1168.76,-392.03
9050,-3.8719,-1.6281,-0.5559,492.43,1324.95,-688.72
9060,-3.8718,-1.6031,-0.5216,-382.57,856.14,1342.65
9070,-3.8718,-1.5708,-0.5018,-1195.07,1246.83,-1657.29
9080,-3.8719,-1.5621,-0.4896,-1054.44,-221.86,-938.54
9090,-3.8722,-1.6053,-0.4554,54.93,1340.70,1999.02
9100,-3.8727,-1.7164,-0.3574,-1476.32,1715.58,-1250.92
9110,-3.8733,-1.8845,-0.1866,304.93,-1737.73,858.64
9120,-3.8741,-2.0829,0.0117,-1210.69,121.28,-1953.49
9130,-3.8750,-2.2682,0.1763,1398.68,1511.54,-875.00
9140,-3.8444,-2.3676,0.2802,1679.93,-1426.33,1156.56
9150,-3.8448,-2.3412,0.3243,961.18,-129.64,-1062.01
9160,-3.8450,-2.2201,0.3074,336.18,1526.67,1625.61
9170,-3.8448,-2.0526,0.2301,-163.82,-645.02,1500.55
9180,-3.8445,-1.8662,0.1183,1273.68,1464.72,609.80
9190,-3.8441,-1.6694,0.0089,1133.06,-847.41,-1218.57
9200,-3.8750,-1.4741,-0.0713,-1679.44,1152.95,-734.38
9210,-3.8748,-1.3024,-0.1240,-679.44,-1112.30,-672.06
9220,-3.8746,-1.1798,-0.1738,1304.93,138.06,-500.24
9230,-3.8745,-1.1161,-0.2281,992.43,1763.31,-1469.12
9240,-3.8744,-1.0994,-0.2764,1148.68,-1189.70,-1250.49
9250,-3.8741,-1.1066,-0.3165,-710.69,638.43,593.20
9260,-3.8740,-1.1249,-0.3590,-1632.57,-502.20,-1313.17
9270,-3.8739,-1.1615,-0.4138,23.68,-1939.70,-141.36
9280,-3.8738,-1.2200,-0.4690,-663.82,-955.44,-94.60
9290,-3.8737,-1.2905,-0.5172,-148.19,-18.07,-532.23
9300,-3.8735,-1.3634,-0.5789,-1179.44,1809.94,-579.16
9310,-3.8733,-1.4313,-0.6586,1492.43,1919.19,608.22
9320,-3.8732,-1.4901,-0.7402,804.93,-284.06,-1470.09
9330,-3.8730,-1.5377,-0.8159,1273.68,1262.70,-642.09
9340,-3.8729,-1.5752,-0.8899,-820.07,-424.93,1779.60
9350,-3.8729,-1.5986,-0.9635,-1616.94,-1893.74,1920.10
9360,-3.8729,-1.5947,-1.0330,-616.94,684.33,982.48
9370,-3.8730,-1.5569,-1.1094,-116.94,-206.30,-361.45
9380,-3.8730,-1.4911,-1.2023,726.81,-1987.43,1622.80
9390,-3.8732,-1.4043,-1.3038,1148.68,-1877.93,-361.76
9400,-3.8732,-1.3076,-1.4036,258.06,1122.25,-1127.56
9410,-3.8732,-1.2147,-1.4919,633.06,356.81,-1674.62
9420,-3.8732,-1.1299,-1.5667,523.68,1044.49,887.70
9430,-3.8733,-1.0515,-1.6389,-616.94,-517.88,-565.61
9440,-3.8733,-0.9718,-1.7184,1414.31,-1767.70,-284.48
9450,-3.8732,-0.8738,-1.7977,-382.57,60.55,-862.73
9460,-3.8729,-0.7401,-1.8646,164.31,1904.54,-1862.92
9470,-3.8726,-0.5649,-1.9078,1273.68,1342.29,808.84
9480,-3.8722,-0.3512,-1.9141,-304.44,-188.66,-863.16
9490,-3.8717,-0.1198,-1.8794,-945.07,-985.11,-19.41
9500,-3.8711,0.0928,-1.8087,679.93,-547.12,1715.03
9510,-3.8706,0.2648,-1.7085,-116.94,484.50,-1878.54
9520,-3.8702,0.3949,-1.5829,1898.68,1312.99,1277.89
9530,-3.8701,0.4873,-1.4408,-1445.07,1391.36,356.26
9540,-3.8702,0.5515,-1.3057,-1616.94,-420.96,340.88
9550,-3.8705,0.5901,-1.1991,-1398.19,876.04,1153.69
9560,-3.8707,0.5924,-1.1205,-460.69,-1483.28,-799.26
9570,-3.8707,0.5688,-1.0610,-163.82,579.22,-1283.45
9580,-3.8705,0.5636,-1.0310,820.56,188.60,-1002.08
9590,-3.8700,0.6161,-1.0455,148.68,32.35,-33.26
9600,-3.8693,0.7323,-1.0874,-1132.57,-1826.97,-1252.08
9610,-3.8685,0.8892,-1.1183,1742.43,813.90,-658.39
9620,-3.8678,1.0580,-1.1089,1820.56,861.08,919.68
9630,-3.8674,1.2068,-1.0510,-570.07,-1935.49,-689.70
9640,-3.8672,1.2992,-0.9536,-1523.19,1471.07,560.42
9650,-3.8673,1.3179,-0.8412,-1695.07,1940.00,-1439.39
9660,-3.8674,1.2692,-0.7568,695.56,330.69,1076.48
9670,-3.8677,1.1847,-0.7262,-1538.82,-872.56,-1220.28
9680,-3.8678,1.0946,-0.7500,-351.32,-950.87,1342.29
9690,-3.8679,1.0040,-0.8197,117.43,2.14,1092.29
9700,-3.8680,0.9108,-0.9049,523.68,-919.92,654.60
9710,-3.8683,0.8101,-0.9635,586.18,173.65,1357.60
9720,-3.8687,0.7030,-0.9674,-304.44,673.40,623.11
9730,-3.8693,0.5974,-0.9225,1992.43,173.22,-1955.02
9740,-3.8699,0.4974,-0.8612,476.81,1923.03,623.17
9750,-3.8705,0.4105,-0.8163,-320.07,1766.54,1607.67
9760,-3.8708,0.3475,-0.8029,554.93,-483.58,717.10
9770,-3.8711,0.3069,-0.8195,492.43,1235.05,1795.29
9780,-3.8712,0.2761,-0.8629,-710.69,-890.08,-1173.52
9790,-3.8712,0.2485,-0.9254,-648.19,1547.36,-1736.08
9800,-3.8712,0.2185,-0.9884,-179.44,1547.30,-1283.08
9810,-3.8712,0.1836,-1.0350,-23.19,1484.74,-767.58
9820,-3.8712,0.1527,-1.0614,-491.94,-484.07,-111.45
9830,-3.8712,0.1271,-1.0780,-445.07,140.87,-158.33
9840,-3.8712,0.0967,-1.1050,273.68,-1984.13,1529.11
9850,-3.8713,0.0573,-1.1506,383.06,-1437.32,1544.68
9860,-3.8715,0.0187,-1.2085,-663.82,718.81,-1408.51
9870,-3.8715,-0.0072,-1.2747,-1601.32,1312.50,-1580.51
9880,-3.8713,-0.0176,-1.3350,-913.82,859.31,91.25
9890,-3.8713,-0.0256,-1.3883,1758.06,1140.56,1872.38
9900,-3.8713,-0.0504,-1.4523,726.81,-1687.56,-1705.87
9910,-3.8715,-0.1035,-1.5173,1554.93,-1875.12,-205.99
9920,-3.8716,-0.1903,-1.5522,-1241.94,1796.63,1372.01
9930,-3.8719,-0.3110,-1.5400,-351.32,1327.70,-1034.30
9940,-3.8723,-0.4680,-1.4932,195.56,-1109.99,-1940.55
9950,-3.8727,-0.6525,-1.4442,101.81,889.71,-1456.05
9960,-3.8728,-0.8375,-1.4196,492.43,-845.03,122.13
9970,-3.8729,-1.0018,-1.4247,804.93,-1689.15,-362.18
9980,-3.8728,-1.1349,-1.4491,-226.32,1654.24,-299.68
9990,-3.8726,-1.2252,-1.4697,-1257.57,-1471.01,1809.63
10000,-3.8724,-1.2738,-1.4640,-820.07,-111.82,-627.93
10010,-3.8723,-1.3125,-1.4117,961.18,622.50,809.63
10020,-3.8726,-1.3876,-1.3018,8.06,-690.06,-612.18
10030,-3.8729,-1.5111,-1.1505,-1601.32,1387.88,-2.56
10040,-3.8733,-1.6522,-0.9901,-1413.82,747.01,-1408.51
10050,-3.8735,-1.7778,-0.8577,523.68,1278.02,576.17
10060,-3.8737,-1.8635,-0.7852,445.56,-1769.10,685.79
10070,-3.8737,-1.8838,-0.7606,1476.81,-488.04,1764.04
10080,-3.8735,-1.8483,-0.7292,-1116.94,-1347.47,1217.22
10090,-3.8734,-1.7977,-0.6599,-570.07,-1331.79,920.41
10100,-3.8733,-1.7559,-0.5719,1898.68,-456.67,217.41
