timestamp_ms,ax,ay,az,gx,gy,gz
0,-3.8458,0.0516,-0.8319,-1538.82,1890.69,1529.60
10,-3.8458,0.0526,-0.8353,-1382.57,1515.69,1482.73
20,-3.8458,0.0532,-0.8386,-1257.57,1078.19,1420.23
30,-3.8458,0.0520,-0.8403,-1179.44,656.31,1435.85
40,-3.8458,0.0488,-0.8402,-1335.69,437.56,1404.60
50,-3.8458,0.0442,-0.8396,-1741.94,453.19,1404.60
60,-3.8458,0.0387,-0.8398,1664.31,531.31,1607.73
70,-3.8458,0.0345,-0.8414,961.18,500.06,-1986.02
80,-3.8458,0.0323,-0.8438,429.93,296.94,-1626.65
90,-3.8458,0.0306,-0.8462,148.68,0.06,-1486.02
100,-3.8458,0.0292,-0.8484,-70.07,-312.50,-1532.96
110,-3.8458,0.0278,-0.8502,-257.57,-593.75,-1579.83
120,-3.8458,0.0265,-0.8511,-429.44,-828.12,-1626.71
130,-3.8458,0.0251,-0.8503,-601.32,-937.50,-1673.58
140,-3.8458,0.0237,-0.8492,-773.19,-843.75,-1657.96
150,-3.8458,0.0238,-0.8483,-960.69,-703.12,-1642.33
160,-3.8458,0.0256,-0.8470,-945.07,-578.12,-1736.08
170,-3.8458,0.0272,-0.8452,-710.69,-421.88,-1923.58
180,-3.8458,0.0284,-0.8428,-507.57,-187.50,1826.42
190,-3.8458,0.0297,-0.8397,-351.32,125.00,1482.73
200,-3.8458,0.0306,-0.8367,-195.07,515.62,1092.10
210,-3.8458,0.0310,-0.8342,-70.07,906.25,842.10
220,-3.8458,0.0306,-0.8319,-23.19,1218.75,685.85
230,-3.8458,0.0302,-0.8302,-70.07,1515.62,545.23
240,-3.8458,0.0288,-0.8290,-132.57,1734.38,513.98
250,-3.8458,0.0267,-0.8285,-304.44,1890.62,654.60
260,-3.8458,0.0250,-0.8296,-570.07,1953.12,732.73
270,-3.8458,0.0239,-0.8315,-788.82,1812.50,685.85
280,-3.8458,0.0227,-0.8341,-929.44,1562.50,717.10
290,-3.8458,0.0219,-0.8362,-1085.69,1234.38,763.98
300,-3.8458,0.0223,-0.8370,-1195.07,968.75,888.98
310,-3.8458,0.0239,-0.8365,-1132.57,859.38,982.73
320,-3.8458,0.0261,-0.8344,-929.44,921.88,920.23
330,-3.8458,0.0266,-0.8318,-648.19,1203.12,826.48
340,-3.8458,0.0255,-0.8293,-585.69,1531.25,623.35
350,-3.8458,0.0254,-0.8276,-726.32,1843.75,467.10
360,-3.8458,0.0277,-0.8269,-741.94,-1937.50,451.48
370,-3.8458,0.0312,-0.8275,-445.07,-1843.75,404.60
380,-3.8458,0.0348,-0.8281,8.06,-1921.81,357.73
390,-3.8458,0.0382,-0.8285,461.18,-1999.94,388.98
400,-3.8458,0.0404,-0.8291,898.68,1953.19,560.85
410,-3.8458,0.0409,-0.8302,1179.93,1875.06,779.60
420,-3.8458,0.0394,-0.8315,1242.43,1734.44,920.23
430,-3.8458,0.0376,-0.8322,1054.93,1562.56,1029.60
440,-3.8458,0.0369,-0.8325,820.56,1484.44,1170.23
450,-3.8458,0.0369,-0.8336,726.81,1437.56,1342.10
460,-3.8458,0.0372,-0.8339,726.81,1296.94,1451.48
470,-3.8458,0.0378,-0.8325,773.68,1265.69,1451.48
480,-3.8458,0.0385,-0.8311,851.81,1437.56,1310.85
490,-3.8458,0.0396,-0.8291,929.93,1625.06,1045.23
500,-3.8458,0.0405,-0.8271,1070.56,1875.06,826.48
510,-3.8458,0.0417,-0.8260,1195.56,-1874.94,654.60
520,-3.8458,0.0428,-0.8260,1351.81,-1734.31,576.48
530,-3.8458,0.0431,-0.8274,1492.43,-1734.31,717.10
540,-3.8458,0.0438,-0.8297,1523.68,-1906.19,967.10
550,-3.8458,0.0455,-0.8319,1617.43,1796.94,1201.48
560,-3.8458,0.0472,-0.8329,1836.18,1515.69,1326.48
570,-3.8458,0.0481,-0.8330,-1945.07,1390.69,1373.35
580,-3.8458,0.0477,-0.8336,-1835.69,1375.06,1279.60
590,-3.8458,0.0419,-0.8326,1664.31,1296.94,967.10
600,-3.8458,0.0403,-0.8314,1367.43,1421.94,967.10
610,-3.8458,0.0392,-0.8302,1164.31,1578.19,998.35
620,-3.8458,0.0378,-0.8297,1023.68,1734.44,888.98
630,-3.8458,0.0360,-0.8298,851.81,1796.94,685.85
640,-3.8458,0.0342,-0.8296,617.43,1781.31,592.10
650,-3.8458,0.0330,-0.8295,383.06,1812.56,638.98
660,-3.8458,0.0319,-0.8296,226.81,1828.19,935.85
670,-3.8458,0.0310,-0.8312,86.18,1812.56,1326.48
680,-3.8458,0.0312,-0.8344,-23.19,1609.38,1513.98
690,-3.8458,0.0342,-0.8369,8.06,1203.19,1513.98
700,-3.8458,0.0386,-0.8383,383.06,875.06,1357.73
710,-3.8458,0.0413,-0.8386,945.56,703.19,1107.73
720,-3.8458,0.0411,-0.8372,1289.31,656.31,826.48
730,-3.8458,0.0382,-0.8344,1273.68,843.81,545.23
740,-3.8458,0.0342,-0.8319,898.68,1203.19,373.35
750,-3.8458,0.0305,-0.8304,383.06,1515.69,373.35
760,-3.8458,0.0273,-0.8302,-85.69,1703.12,560.85
770,-3.8458,0.0248,-0.8322,-491.94,1734.38,904.60
780,-3.8458,0.0239,-0.8350,-820.07,1484.38,1279.60
790,-3.8458,0.0245,-0.8378,-929.44,1125.00,1498.35
800,-3.8458,0.0264,-0.8401,-851.32,765.62,1529.60
810,-3.8458,0.0291,-0.8403,-616.94,468.75,1467.10
820,-3.8458,0.0310,-0.8386,-273.19,437.50,1342.10
830,-3.8458,0.0312,-0.8374,-23.19,656.25,1138.98
840,-3.8458,0.0310,-0.8357,8.06,812.56,920.23
850,-3.8458,0.0312,-0.8333,-23.19,1031.25,701.48
860,-3.8458,0.0306,-0.8315,8.06,1343.81,451.48
870,-3.8458,0.0291,-0.8311,-70.07,1562.50,388.98
880,-3.8458,0.0280,-0.8317,-273.19,1625.00,388.98
890,-3.8458,0.0277,-0.8323,-413.82,1546.88,388.98
900,-3.8458,0.0288,-0.8326,-445.07,1468.75,342.10
910,-3.8458,0.0322,-0.8326,-304.44,1421.88,263.98
920,-3.8458,0.0364,-0.8318,133.06,1421.94,170.23
930,-3.8458,0.0386,-0.8300,664.31,1531.31,185.85
940,-3.8458,0.0402,-0.8279,945.56,1765.69,342.10
950,-3.8458,0.0420,-0.8269,1148.68,-1968.69,592.10
960,-3.8458,0.0433,-0.8267,1383.06,-1843.69,842.10
970,-3.8458,0.0446,-0.8270,1554.93,-1812.44,826.48
980,-3.8458,0.0457,-0.8276,1711.18,-1859.31,701.48
990,-3.8458,0.0463,-0.8278,1851.81,-1937.44,576.48
1000,-3.8458,0.0454,-0.8279,1929.93,-1953.06,545.23
1010,-3.8458,0.0433,-0.8293,1820.56,-1968.69,701.48
1020,-3.8458,0.0410,-0.8306,1554.93,1843.81,842.10
1030,-3.8458,0.0380,-0.8311,1258.06,1687.56,904.60
1040,-3.8458,0.0347,-0.8320,867.43,1625.06,1013.98
1050,-3.8458,0.0336,-0.8336,445.56,1500.06,1107.73
1060,-3.8458,0.0348,-0.8353,304.93,1296.94,1185.85
1070,-3.8458,0.0370,-0.8361,461.18,1078.19,1279.60
1080,-3.8458,0.0393,-0.8356,742.43,984.44,1263.98
1090,-3.8458,0.0417,-0.8347,1039.31,1046.94,1217.10
1100,-3.8458,0.0430,-0.8339,1351.81,1156.31,1154.60
1110,-3.8458,0.0420,-0.8328,1508.06,1265.69,982.73
1120,-3.8458,0.0391,-0.8318,1383.06,1406.31,763.98
1130,-3.8458,0.0355,-0.8315,1008.06,1531.31,560.85
1140,-3.8458,0.0325,-0.8323,554.93,1562.56,373.35
1150,-3.8458,0.0302,-0.8329,164.31,1468.81,263.98
1160,-3.8458,0.0293,-0.8339,-132.57,1390.62,342.10
1170,-3.8458,0.0292,-0.8347,-241.94,1265.62,482.73
1180,-3.8458,0.0293,-0.8346,-257.57,1156.25,592.10
1190,-3.8458,0.0295,-0.8337,-241.94,1171.88,654.60
1200,-3.8458,0.0297,-0.8324,-210.69,1281.25,779.60
1210,-3.8458,0.0302,-0.8309,-195.07,1453.12,873.35
1220,-3.8458,0.0305,-0.8296,-132.57,1640.62,873.35
1230,-3.8458,0.0352,-0.8282,226.81,1843.81,717.10
1240,-3.8458,0.0360,-0.8264,508.06,1984.44,623.35
1250,-3.8458,0.0347,-0.8247,617.43,-1781.19,435.85
1260,-3.8458,0.0326,-0.8250,445.56,-1562.44,217.10
1270,-3.8459,0.0314,-0.8263,179.93,-1593.69,-1.65
1280,-3.8459,0.0305,-0.8275,23.68,-1765.56,-64.15
1290,-3.8458,0.0299,-0.8297,-85.69,-1921.88,60.85
1300,-3.8458,0.0300,-0.8329,-163.82,1796.88,154.60
1310,-3.8458,0.0309,-0.8352,-148.19,1390.62,123.35
1320,-3.8458,0.0321,-0.8358,-38.82,1093.75,29.60
1330,-3.8458,0.0325,-0.8362,117.43,1015.69,13.98
1340,-3.8458,0.0316,-0.8361,164.31,968.81,154.60
1350,-3.8458,0.0302,-0.8357,54.93,984.44,451.48
1360,-3.8458,0.0292,-0.8361,-132.57,1031.25,857.73
1370,-3.8458,0.0291,-0.8379,-257.57,984.38,1170.23
1380,-3.8458,0.0310,-0.8407,-273.19,750.00,1342.10
1390,-3.8458,0.0338,-0.8440,-23.19,390.62,1545.23
1400,-3.8458,0.0352,-0.8468,336.18,-31.19,1654.54
1410,-3.8458,0.0343,-0.8486,508.06,-390.56,1701.42
1420,-3.8458,0.0314,-0.8485,398.68,-624.94,1842.04
1430,-3.8458,0.0286,-0.8469,23.68,-609.31,-1907.96
1440,-3.8458,0.0273,-0.8457,-335.69,-406.25,-1486.08
1450,-3.8458,0.0275,-0.8450,-491.94,-250.00,-1001.71
1460,-3.8458,0.0284,-0.8439,-476.32,-156.25,-736.08
1470,-3.8458,0.0303,-0.8428,-351.32,-15.62,-673.58
1480,-3.8458,0.0330,-0.8418,-116.94,125.00,-798.52
1490,-3.8458,0.0358,-0.8400,226.81,250.06,-1126.65
1500,-3.8458,0.0380,-0.8381,586.18,484.44,-1626.65
1510,-3.8458,0.0383,-0.8290,1164.31,1406.31,982.73
1520,-3.8458,0.0348,-0.8262,914.31,1890.69,592.10
1530,-3.8458,0.0310,-0.8250,461.18,-1749.94,60.85
1540,-3.8459,0.0277,-0.8247,-23.19,-1593.75,-407.90
1550,-3.8459,0.0250,-0.8245,-445.07,-1562.50,-626.65
1560,-3.8459,0.0236,-0.8250,-788.82,-1531.25,-751.65
1570,-3.8459,0.0234,-0.8264,-976.32,-1593.75,-845.40
1580,-3.8459,0.0249,-0.8263,-991.94,-1781.25,-923.52
1590,-3.8459,0.0270,-0.8241,-804.44,-1765.62,-970.40
1600,-3.8459,0.0291,-0.8226,-538.82,-1484.38,-861.02
1610,-3.8459,0.0314,-0.8221,-273.19,-1296.88,-548.52
1620,-3.8459,0.0326,-0.8224,23.68,-1234.31,-173.52
1630,-3.8458,0.0336,-0.8234,179.93,-1265.56,107.73
1640,-3.8458,0.0348,-0.8239,304.93,-1390.56,279.60
1650,-3.8458,0.0354,-0.8235,461.18,-1453.06,529.60
1660,-3.8458,0.0341,-0.8226,539.31,-1406.19,763.98
1670,-3.8458,0.0320,-0.8220,367.43,-1296.81,935.85
1680,-3.8458,0.0298,-0.8223,101.81,-1218.69,998.35
1690,-3.8458,0.0275,-0.8240,-179.44,-1250.00,1201.48
1700,-3.8458,0.0261,-0.8275,-476.32,-1468.75,1451.48
1710,-3.8458,0.0261,-0.8323,-648.19,-1921.88,1545.23
1720,-3.8458,0.0264,-0.8383,-648.19,1468.75,1420.23
1730,-3.8458,0.0266,-0.8444,-616.94,703.12,1123.35
1740,-3.8458,0.0269,-0.8479,-585.69,-78.12,701.42
1750,-3.8458,0.0259,-0.8483,-554.44,-531.25,295.17
1760,-3.8458,0.0237,-0.8461,-679.44,-578.12,154.54
1770,-3.8458,0.0206,-0.8425,-960.69,-296.88,232.67
1780,-3.8458,0.0175,-0.8400,-1351.32,156.25,498.35
1790,-3.8458,0.0151,-0.8394,-1757.57,484.38,1045.23
1800,-3.8458,0.0134,-0.8417,1945.56,562.50,1717.10
1810,-3.8458,0.0133,-0.8462,1726.81,265.62,-1595.40
1820,-3.8458,0.0159,-0.8497,1711.18,-312.50,-923.58
1830,-3.8458,0.0215,-0.8516,-1960.69,-765.62,-361.08
1840,-3.8457,0.0284,-0.8522,-1241.94,-1000.00,13.92
1850,-3.8457,0.0334,-0.8506,-351.32,-1078.12,92.04
1860,-3.8458,0.0370,-0.8468,289.31,-874.94,-32.96
1870,-3.8458,0.0393,-0.8420,742.43,-390.56,-173.58
1880,-3.8458,0.0400,-0.8374,1039.31,218.81,-314.15
1890,-3.8458,0.0402,-0.8331,1133.06,812.56,-486.02
1900,-3.8458,0.0400,-0.8291,1148.68,1359.44,-829.77
1910,-3.8458,0.0391,-0.8254,1133.06,1875.06,-1454.77
1920,-3.8458,0.0370,-0.8220,1008.06,-1656.19,1920.23
1930,-3.8458,0.0342,-0.8193,742.43,-1218.69,1451.48
1940,-3.8458,0.0315,-0.8182,383.06,-874.94,888.98
1950,-3.8458,0.0297,-0.8191,39.31,-734.31,263.98
1960,-3.8459,0.0292,-0.8221,-195.07,-843.75,-251.65
1970,-3.8459,0.0294,-0.8257,-257.57,-1234.38,-798.52
1980,-3.8459,0.0293,-0.8281,-226.32,-1687.50,-1501.65
1990,-3.8459,0.0298,-0.8301,-241.94,-2000.00,1779.60
2000,-3.8459,0.0311,-0.8312,-179.44,1750.00,1310.85
2010,-3.8459,0.0320,-0.8313,-7.57,1609.38,1185.85
2020,-3.8459,0.0310,-0.8304,101.81,1593.81,1357.73
2030,-3.8459,0.0276,-0.8289,-23.19,1703.12,1779.60
2040,-3.8459,0.0233,-0.8280,-460.69,1906.25,-1642.27
2050,-3.8459,0.0198,-0.8298,-1007.57,-1984.38,-829.77
2060,-3.8458,0.0178,-0.8344,-1460.69,1781.25,232.73
2070,-3.8458,0.0186,-0.8407,-1710.69,1203.12,1420.23
2080,-3.8458,0.0234,-0.8481,-1616.94,390.62,-1439.15
2090,-3.8457,0.0432,-0.8604,867.43,-1937.44,248.29
2100,-3.8457,0.0455,-0.8584,1539.31,1875.06,326.42
2110,-3.8457,0.0450,-0.8536,1836.18,-1874.94,263.92
2120,-3.8457,0.0432,-0.8484,1773.68,-1265.56,60.79
2130,-3.8458,0.0403,-0.8451,1539.31,-593.69,-32.96
2140,-3.8457,0.0367,-0.8441,1164.31,-171.81,29.54
2150,-3.8458,0.0338,-0.8455,711.18,-46.81,-32.96
2160,-3.8458,0.0319,-0.8481,336.18,-218.69,-189.21
2170,-3.8458,0.0308,-0.8503,86.18,-562.44,-314.21
2180,-3.8458,0.0304,-0.8514,-54.44,-843.75,-501.71
2190,-3.8458,0.0308,-0.8521,-101.32,-984.38,-767.33
2200,-3.8458,0.0310,-0.8517,-54.44,-1062.50,-1017.33
2210,-3.8458,0.0302,-0.8492,-23.19,-1015.62,-1220.46
2220,-3.8458,0.0295,-0.8459,-132.57,-703.12,-1376.71
2230,-3.8458,0.0287,-0.8419,-210.69,-281.25,-1564.21
2240,-3.8458,0.0273,-0.8372,-320.07,234.38,-1907.90
2250,-3.8458,0.0262,-0.8333,-491.94,843.75,1717.10
2260,-3.8458,0.0256,-0.8306,-632.57,1343.75,1420.23
2270,-3.8458,0.0260,-0.8290,-710.69,1687.50,1154.60
2280,-3.8458,0.0266,-0.8282,-663.82,1890.62,1029.60
2290,-3.8458,0.0265,-0.8275,-585.69,1984.38,1013.98
2300,-3.8458,0.0261,-0.8273,-601.32,-1921.88,1029.60
2310,-3.8458,0.0256,-0.8269,-648.19,-1890.62,982.73
2320,-3.8458,0.0247,-0.8268,-710.69,-1843.75,826.48
2330,-3.8458,0.0243,-0.8271,-835.69,-1828.12,638.98
2340,-3.8458,0.0244,-0.8274,-882.57,-1875.00,498.35
2350,-3.8458,0.0243,-0.8269,-866.94,-1906.25,467.10
2360,-3.8458,0.0232,-0.8245,-882.57,-1843.75,388.98
2370,-3.8458,0.0148,-0.8213,-1866.94,-984.38,29.60
2380,-3.8458,0.0140,-0.8239,1898.68,-1125.00,185.85
2390,-3.8458,0.0159,-0.8267,1804.93,-1453.12,513.98
2400,-3.8458,0.0199,-0.8292,-1960.69,-1812.50,873.35
2410,-3.8458,0.0237,-0.8320,-1445.07,1859.38,1201.48
2420,-3.8458,0.0266,-0.8344,-960.69,1500.00,1513.98
2430,-3.8458,0.0284,-0.8354,-585.69,1203.12,1920.23
2440,-3.8458,0.0292,-0.8347,-351.32,1062.50,-1798.52
2450,-3.8458,0.0298,-0.8330,-257.57,1156.25,-1657.90
2460,-3.8458,0.0299,-0.8317,-179.44,1375.00,-1564.15
2470,-3.8458,0.0298,-0.8320,-163.82,1546.88,-1501.65
2480,-3.8458,0.0294,-0.8339,-179.44,1500.00,-1548.52
2490,-3.8458,0.0303,-0.8362,-226.32,1265.62,-1642.27
2500,-3.8458,0.0326,-0.8391,-116.94,968.75,-1751.65
2510,-3.8458,0.0354,-0.8429,179.93,593.81,-1829.77
2520,-3.8458,0.0371,-0.8464,539.31,109.44,-1657.90
2530,-3.8458,0.0366,-0.8483,758.06,-343.69,-1376.71
2540,-3.8458,0.0355,-0.8488,695.56,-578.06,-1126.71
2550,-3.8458,0.0344,-0.8484,554.93,-640.56,-861.08
2560,-3.8458,0.0336,-0.8484,414.31,-593.69,-579.83
2570,-3.8458,0.0333,-0.8499,304.93,-593.69,-345.46
2580,-3.8458,0.0343,-0.8517,273.68,-781.19,-267.33
2590,-3.8458,0.0355,-0.8522,398.68,-1015.56,-345.46
2600,-3.8458,0.0367,-0.8527,554.93,-1078.06,-345.46
2610,-3.8458,0.0385,-0.8550,711.18,-1140.56,-314.21
2620,-3.8458,0.0403,-0.8574,929.93,-1437.44,-407.96
2630,-3.8458,0.0414,-0.8578,1164.31,-1749.94,-454.83
2640,-3.8458,0.0415,-0.8571,1304.93,-1796.81,-361.08
2650,-3.8457,0.0396,-0.8539,1179.93,-1578.06,357.67
2660,-3.8457,0.0386,-0.8514,1070.56,-1296.81,701.42
2670,-3.8457,0.0366,-0.8479,945.56,-984.31,1029.54
2680,-3.8457,0.0343,-0.8431,695.56,-531.19,1232.67
2690,-3.8457,0.0328,-0.8383,398.68,78.19,1295.23
2700,-3.8457,0.0322,-0.8340,211.18,703.19,1123.35
2710,-3.8457,0.0320,-0.8308,133.06,1250.06,763.98
2720,-3.8457,0.0330,-0.8304,101.81,1656.31,232.73
2730,-3.8458,0.0356,-0.8328,226.81,1703.19,-470.40
2740,-3.8458,0.0383,-0.8356,570.56,1406.31,-1298.52
2750,-3.8458,0.0392,-0.8372,914.31,1046.94,1779.60
2760,-3.8458,0.0382,-0.8356,1023.68,843.81,888.98
2770,-3.8458,0.0352,-0.8304,898.68,1046.94,170.23
2780,-3.8459,0.0299,-0.8230,508.06,1703.19,-361.02
2790,-3.8459,0.0227,-0.8159,-163.82,-1343.75,-736.02
2800,-3.8459,0.0149,-0.8116,-1085.69,-437.50,-751.65
2810,-3.8459,0.0077,-0.8130,1914.31,109.38,-407.84
2820,-3.8458,0.0037,-0.8190,992.43,-62.50,154.60
2830,-3.8458,0.0029,-0.8265,476.81,-828.12,732.73
2840,-3.8458,0.0049,-0.8340,383.06,-1796.88,1060.85
2850,-3.8458,0.0094,-0.8392,633.06,1250.00,1201.48
2860,-3.8458,0.0139,-0.8411,1211.18,578.12,1263.98
2870,-3.8458,0.0160,-0.8402,1789.31,343.75,1342.10
2880,-3.8458,0.0164,-0.8370,-1945.07,453.12,1435.85
2890,-3.8458,0.0161,-0.8328,-1898.19,859.38,1498.35
2900,-3.8458,0.0161,-0.8302,-1929.44,1406.25,1607.73
2910,-3.8458,0.0170,-0.8298,-1929.44,1734.38,1670.23
2920,-3.8458,0.0189,-0.8308,-1820.07,1781.25,1607.73
2930,-3.8458,0.0210,-0.8331,-1570.07,1656.25,1545.23
2940,-3.8458,0.0222,-0.8364,-1304.44,1359.38,1654.60
2950,-3.8458,0.0229,-0.8395,-1148.19,937.50,1701.48
2960,-3.8458,0.0229,-0.8417,-1054.44,546.88,1779.60
2970,-3.8458,0.0226,-0.8436,-1054.44,265.62,-1954.77
2980,-3.8458,0.0233,-0.8462,-1101.32,15.62,-1564.15
2990,-3.8458,0.0259,-0.8488,-1007.57,-312.50,-1157.96
3000,-3.8458,0.0297,-0.8492,-679.44,-640.62,-970.46
3010,-3.8458,0.0333,-0.8479,-195.07,-703.12,-1095.46
3020,-3.8458,0.0366,-0.8451,273.68,-531.19,-1392.33
3030,-3.8458,0.0387,-0.8407,695.56,-171.81,-1626.71
3040,-3.8458,0.0389,-0.8358,961.18,390.69,-1814.15
3050,-3.8458,0.0385,-0.8328,992.43,1015.69,-1939.15
3060,-3.8458,0.0370,-0.8334,929.93,1406.31,-1829.77
3070,-3.8458,0.0349,-0.8376,742.43,1328.19,-1407.90
3080,-3.8458,0.0339,-0.8440,476.81,781.31,-782.90
3090,-3.8458,0.0343,-0.8506,351.81,-31.19,-64.21
3100,-3.8457,0.0356,-0.8552,398.68,-874.94,545.17
3110,-3.8457,0.0387,-0.8556,570.56,-1468.69,935.79
3120,-3.8457,0.0428,-0.8530,961.18,-1515.56,1060.79
3130,-3.8457,0.0465,-0.8495,1492.43,-1187.44,951.42
3140,-3.8457,0.0480,-0.8456,1961.18,-734.31,810.79
3150,-3.8457,0.0471,-0.8428,-1851.32,-234.31,592.04
3160,-3.8457,0.0443,-0.8408,-1960.69,125.06,107.73
3170,-3.8458,0.0402,-0.8394,1679.93,375.06,-595.40
3180,-3.8458,0.0353,-0.8389,1148.68,562.56,-1126.65
3190,-3.8458,0.0311,-0.8395,523.68,625.06,-1407.90
3200,-3.8458,0.0291,-0.8403,-7.57,546.88,-1579.77
3210,-3.8458,0.0277,-0.8409,-273.19,437.50,-1814.15
3220,-3.8458,0.0260,-0.8418,-445.07,359.38,1982.73
3230,-3.8458,0.0238,-0.8428,-663.82,250.00,-1986.02
3240,-3.8458,0.0223,-0.8418,-1116.94,46.88,-1782.90
3250,-3.8458,0.0227,-0.8396,-1132.57,250.00,1920.23
3260,-3.8458,0.0239,-0.8373,-1085.69,531.25,1592.10
3270,-3.8458,0.0254,-0.8347,-929.44,828.12,1310.85
3280,-3.8458,0.0262,-0.8325,-741.94,1156.25,1045.23
3290,-3.8458,0.0260,-0.8312,-632.57,1437.50,779.60
3300,-3.8458,0.0251,-0.8313,-663.82,1609.38,623.35
3310,-3.8458,0.0243,-0.8330,-773.19,1593.75,779.60
3320,-3.8458,0.0236,-0.8354,-882.57,1375.00,1154.60
3330,-3.8458,0.0227,-0.8375,-976.32,1062.50,1498.35
3340,-3.8458,0.0222,-0.8396,-1085.69,796.88,1779.60
3350,-3.8458,0.0221,-0.8411,-1148.19,531.25,-1907.90
3360,-3.8458,0.0209,-0.8419,-1163.82,343.75,-1642.27
3370,-3.8458,0.0197,-0.8417,-1320.07,234.38,-1579.77
3380,-3.8458,0.0195,-0.8392,-1476.32,265.62,-1642.27
3390,-3.8458,0.0194,-0.8358,-1491.94,578.12,-1704.77
3400,-3.8458,0.0195,-0.8342,-1507.57,1015.62,-1689.15
3410,-3.8458,0.0205,-0.8350,-1491.94,1218.75,-1595.40
3420,-3.8458,0.0234,-0.8368,-1366.94,1125.00,-1579.77
3430,-3.8458,0.0273,-0.8390,-991.94,890.62,-1798.52
3440,-3.8458,0.0304,-0.8416,-491.94,609.38,1888.98
3450,-3.8458,0.0312,-0.8439,-101.32,281.25,1529.60
3460,-3.8458,0.0298,-0.8448,8.06,-15.56,1263.92
3470,-3.8458,0.0272,-0.8448,-179.44,-140.62,1279.54
3480,-3.8458,0.0234,-0.8447,-507.57,-140.62,1592.04
3490,-3.8458,0.0200,-0.8450,-991.94,-125.00,-1751.71
3500,-3.8458,0.0187,-0.8459,-1429.44,-156.25,-970.46
3510,-3.8458,0.0187,-0.8485,-1601.32,-281.25,-361.08
3520,-3.8458,0.0258,-0.8523,-1007.57,-1140.62,-95.46
3530,-3.8458,0.0286,-0.8507,-695.07,-1093.75,-392.33
3540,-3.8458,0.0320,-0.8485,-335.69,-890.62,-642.33
3550,-3.8458,0.0334,-0.8467,101.81,-609.31,-642.33
3560,-3.8458,0.0317,-0.8457,289.31,-374.94,-548.58
3570,-3.8458,0.0292,-0.8448,70.56,-249.94,-579.83
3580,-3.8458,0.0269,-0.8429,-257.57,-140.62,-751.71
3590,-3.8458,0.0248,-0.8409,-554.44,109.38,-1111.02
3600,-3.8458,0.0242,-0.8391,-820.07,359.38,-1486.02
3610,-3.8458,0.0243,-0.8367,-898.19,593.75,-1829.77
3620,-3.8458,0.0244,-0.8342,-882.57,906.25,1904.60
3630,-3.8458,0.0250,-0.8320,-866.94,1218.75,1748.35
3640,-3.8458,0.0262,-0.8304,-788.82,1500.00,1607.73
3650,-3.8458,0.0278,-0.8298,-632.57,1703.12,1670.23
3660,-3.8458,0.0304,-0.8296,-429.44,1781.25,1842.10
3670,-3.8458,0.0336,-0.8295,-101.32,1812.50,1904.60
3680,-3.8458,0.0353,-0.8295,304.93,1828.19,1842.10
3690,-3.8458,0.0360,-0.8292,523.68,1828.19,1717.10
3700,-3.8458,0.0350,-0.8281,617.43,1859.44,1545.23
3710,-3.8458,0.0319,-0.8263,492.43,-1999.94,1342.10
3720,-3.8458,0.0272,-0.8250,86.18,-1765.56,1092.10
3730,-3.8458,0.0232,-0.8243,-507.57,-1593.75,826.48
3740,-3.8458,0.0212,-0.8250,-1023.19,-1515.62,717.10
3750,-3.8458,0.0204,-0.8270,-1273.19,-1593.75,873.35
3760,-3.8458,0.0208,-0.8297,-1382.57,-1859.38,1123.35
3770,-3.8458,0.0219,-0.8323,-1335.69,1796.88,1217.10
3780,-3.8458,0.0236,-0.8341,-1195.07,1468.75,1248.35
3790,-3.8458,0.0258,-0.8357,-976.32,1234.38,1357.73
3800,-3.8458,0.0265,-0.8374,-554.44,781.25,-1939.15
3810,-3.8458,0.0255,-0.8375,-601.32,812.50,-1923.52
3820,-3.8458,0.0243,-0.8378,-726.32,796.88,-1798.52
3830,-3.8458,0.0227,-0.8379,-882.57,765.62,-1814.15
3840,-3.8458,0.0215,-0.8387,-1085.69,750.00,-1876.65
3850,-3.8458,0.0217,-0.8400,-1241.94,640.62,-1939.15
3860,-3.8458,0.0222,-0.8408,-1210.69,484.38,-1923.52
3870,-3.8458,0.0222,-0.8420,-1148.19,375.00,-1736.02
3880,-3.8458,0.0227,-0.8431,-1148.19,218.75,-1532.90
3890,-3.8458,0.0232,-0.8439,-1085.69,78.12,-1439.15
3900,-3.8458,0.0238,-0.8446,-1023.19,-15.62,-1423.58
3910,-3.8458,0.0242,-0.8451,-945.07,-109.38,-1407.96
3920,-3.8458,0.0239,-0.8444,-898.19,-171.88,-1392.33
3930,-3.8458,0.0237,-0.8433,-929.44,-78.12,-1392.33
3940,-3.8458,0.0237,-0.8422,-960.69,62.50,-1423.52
3950,-3.8458,0.0242,-0.8411,-960.69,203.12,-1595.40
3960,-3.8458,0.0251,-0.8398,-898.19,343.75,-1767.27
3970,-3.8458,0.0256,-0.8395,-773.19,500.00,-1814.15
3980,-3.8458,0.0256,-0.8406,-710.69,546.88,-1876.65
3990,-3.8458,0.0255,-0.8423,-710.69,406.25,-1970.40
4000,-3.8458,0.0255,-0.8438,-726.32,187.50,1888.98
4010,-3.8458,0.0247,-0.8446,-726.32,0.00,1795.23
4020,-3.8458,0.0229,-0.8447,-835.69,-109.38,1748.29
4030,-3.8458,0.0211,-0.8433,-1054.44,-125.00,1685.79
4040,-3.8458,0.0195,-0.8401,-1288.82,62.50,1748.35
4050,-3.8458,0.0184,-0.8369,-1491.94,468.75,1998.35
4060,-3.8458,0.0189,-0.8354,-1632.57,875.00,-1704.77
4070,-3.8458,0.0226,-0.8364,-1570.07,1062.50,-1611.02
4080,-3.8458,0.0371,-0.8400,383.06,437.56,1560.85
4090,-3.8458,0.0375,-0.8376,758.06,484.44,1170.23
4100,-3.8458,0.0348,-0.8346,804.93,781.31,826.48
4110,-3.8458,0.0310,-0.8319,461.18,1171.94,904.60
4120,-3.8458,0.0281,-0.8300,-23.19,1515.62,1342.10
4130,-3.8458,0.0261,-0.8298,-398.19,1765.62,1748.35
4140,-3.8458,0.0250,-0.8315,-648.19,1781.25,1998.35
4150,-3.8458,0.0251,-0.8342,-788.82,1562.50,-1892.27
4160,-3.8458,0.0267,-0.8362,-773.19,1218.75,1982.73
4170,-3.8458,0.0288,-0.8367,-570.07,968.75,1685.85
4180,-3.8458,0.0308,-0.8358,-304.44,906.25,1482.73
4190,-3.8458,0.0316,-0.8341,-54.44,1015.62,1326.48
4200,-3.8458,0.0317,-0.8333,54.93,1234.44,1060.85
4210,-3.8458,0.0305,-0.8324,70.56,1343.81,779.60
4220,-3.8458,0.0283,-0.8306,-85.69,1453.12,607.73
4230,-3.8458,0.0275,-0.8295,-366.94,1687.50,467.10
4240,-3.8458,0.0278,-0.8290,-476.32,1828.12,310.85
4250,-3.8458,0.0288,-0.8282,-429.44,1890.62,263.98
4260,-3.8458,0.0298,-0.8274,-304.44,1984.38,357.73
4270,-3.8458,0.0304,-0.8267,-179.44,-1906.25,451.48
4280,-3.8458,0.0308,-0.8270,-101.32,-1812.50,607.73
4290,-3.8458,0.0306,-0.8282,-54.44,-1859.38,810.85
4300,-3.8458,0.0304,-0.8298,-70.07,1984.38,1045.23
4310,-3.8458,0.0303,-0.8319,-101.32,1781.25,1201.48
4320,-3.8458,0.0306,-0.8340,-116.94,1515.62,1342.10
4330,-3.8458,0.0312,-0.8357,-70.07,1250.00,1451.48
4340,-3.8458,0.0315,-0.8364,8.06,1031.31,1467.10
4350,-3.8458,0.0306,-0.8359,39.31,937.56,1467.10
4360,-3.8458,0.0288,-0.8353,-70.07,1000.00,1451.48
4370,-3.8458,0.0266,-0.8357,-304.44,1078.12,1467.10
4380,-3.8458,0.0238,-0.8369,-585.69,1031.25,1388.98
4390,-3.8458,0.0208,-0.8383,-945.07,875.00,1263.98
4400,-3.8458,0.0194,-0.8396,-1335.69,703.12,1248.35
4410,-3.8458,0.0205,-0.8408,-1507.57,531.25,1342.10
4420,-3.8458,0.0223,-0.8419,-1366.94,375.00,1498.35
4430,-3.8458,0.0236,-0.8424,-1132.57,234.38,1638.98
4440,-3.8458,0.0245,-0.8422,-976.32,171.88,1748.35
4450,-3.8458,0.0251,-0.8418,-851.32,203.12,1795.23
4460,-3.8458,0.0248,-0.8413,-773.19,250.00,1857.73
4470,-3.8458,0.0240,-0.8408,-820.07,312.50,1967.10
4480,-3.8458,0.0234,-0.8408,-913.82,375.00,-1970.40
4490,-3.8458,0.0232,-0.8411,-991.94,375.00,1935.85
4500,-3.8458,0.0236,-0.8411,-1023.19,343.75,1717.10
4510,-3.8458,0.0237,-0.8407,-976.32,343.75,1607.73
4520,-3.8458,0.0231,-0.8397,-960.69,390.62,1638.98
4530,-3.8458,0.0217,-0.8384,-1038.82,515.62,1623.35
4540,-3.8458,0.0204,-0.8379,-1210.69,687.50,1498.35
4550,-3.8458,0.0199,-0.8379,-1382.57,750.00,1388.98
4560,-3.8458,0.0198,-0.8380,-1445.07,750.00,1373.35
4570,-3.8458,0.0198,-0.8381,-1460.69,734.38,1373.35
4580,-3.8458,0.0195,-0.8375,-1460.69,718.75,1310.85
4590,-3.8458,0.0194,-0.8363,-1491.94,796.88,1170.23
4600,-3.8458,0.0208,-0.8342,-1507.57,953.12,1013.98
4610,-3.8458,0.0225,-0.8319,-1335.69,1218.75,904.60
4620,-3.8458,0.0240,-0.8303,-1116.94,1515.62,904.60
4630,-3.8458,0.0258,-0.8289,-913.82,1718.75,920.23
4640,-3.8458,0.0267,-0.8275,-695.07,1906.25,873.35
4650,-3.8458,0.0267,-0.8275,-570.07,-1921.88,810.85
4660,-3.8458,0.0258,-0.8291,-570.07,-1921.88,779.60
4670,-3.8458,0.0244,-0.8304,-695.07,1875.00,873.35
4680,-3.8458,0.0236,-0.8309,-866.94,1703.12,920.23
4690,-3.8458,0.0231,-0.8308,-976.32,1640.62,779.60
4700,-3.8458,0.0217,-0.8302,-1038.82,1656.25,545.23
4710,-3.8458,0.0200,-0.8287,-1210.69,1734.38,482.73
4720,-3.8458,0.0189,-0.8271,-1429.44,1921.88,638.98
4730,-3.8458,0.0189,-0.8271,-1570.07,-1875.00,826.48
4740,-3.8458,0.0208,-0.8289,-1570.07,-1875.00,920.23
4750,-3.8458,0.0244,-0.8311,-1335.69,1906.25,810.85
4760,-3.8458,0.0281,-0.8334,-866.94,1625.00,685.85
4770,-3.8458,0.0299,-0.8353,-398.19,1328.12,560.85
4780,-3.8458,0.0298,-0.8351,-163.82,1078.12,295.23
4790,-3.8458,0.0278,-0.8330,-179.44,1109.38,107.73
4800,-3.8458,0.0244,-0.8302,-429.44,1375.00,123.35
4810,-3.8458,0.0210,-0.8290,-866.94,1734.38,404.60
4820,-3.8458,0.0195,-0.8298,-1304.44,1890.62,998.35
4830,-3.8458,0.0203,-0.8325,-1491.94,1781.25,1513.98
4840,-3.8458,0.0214,-0.8361,-1398.19,1437.50,1732.73
4850,-3.8458,0.0219,-0.8392,-1257.57,984.38,1732.73
4860,-3.8458,0.0231,-0.8402,-1195.07,578.12,1607.73
4870,-3.8458,0.0240,-0.8395,-1038.82,453.12,1467.10
4880,-3.8458,0.0243,-0.8384,-913.82,546.88,1404.60
4890,-3.8458,0.0244,-0.8363,-882.57,687.50,1357.73
4900,-3.8458,0.0236,-0.8337,-866.94,953.12,1217.10
4910,-3.8458,0.0210,-0.8323,-976.32,1281.25,920.23
4920,-3.8458,0.0189,-0.8314,-1304.44,1468.75,607.73
4930,-3.8458,0.0188,-0.8309,-1570.07,1578.12,373.35
4940,-3.8458,0.0203,-0.8307,-1585.69,1640.62,232.73
4950,-3.8458,0.0227,-0.8304,-1398.19,1671.88,263.98
4960,-3.8458,0.0244,-0.8297,-1085.69,1703.12,451.48
4970,-3.8458,0.0251,-0.8286,-866.94,1796.88,560.85
4980,-3.8458,0.0255,-0.8270,-773.19,1937.50,623.35
4990,-3.8458,0.0265,-0.8268,-726.32,-1859.38,717.10
5000,-3.8458,0.0273,-0.8282,-601.32,-1828.12,857.73
5010,-3.8458,0.0275,-0.8297,-491.94,1984.38,888.98
5020,-3.8458,0.0273,-0.8306,-476.32,1796.88,654.60
5030,-3.8458,0.0271,-0.8307,-491.94,1687.50,388.98
5040,-3.8458,0.0262,-0.8308,-523.19,1671.88,310.85
5050,-3.8458,0.0242,-0.8302,-632.57,1656.25,310.85
5060,-3.8458,0.0210,-0.8293,-898.19,1734.38,248.35
5070,-3.8458,0.0173,-0.8296,-1304.44,1843.75,170.23
5080,-3.8458,0.0149,-0.8312,-1773.19,1812.50,232.73
5090,-3.8458,0.0146,-0.8336,1914.31,1609.38,435.85
5100,-3.8458,0.0162,-0.8353,1883.06,1296.88,638.98
5110,-3.8458,0.0199,-0.8365,-1913.82,1078.12,732.73
5120,-3.8458,0.0240,-0.8368,-1445.07,921.88,779.60
5130,-3.8458,0.0271,-0.8359,-913.82,890.62,935.85
5140,-3.8458,0.0291,-0.8352,-523.19,1000.00,1060.85
5150,-3.8458,0.0297,-0.8342,-273.19,1093.75,1123.35
5160,-3.8458,0.0291,-0.8331,-195.07,1218.75,1107.73
5170,-3.8458,0.0278,-0.8323,-273.19,1359.38,998.35
5180,-3.8458,0.0261,-0.8315,-429.44,1468.75,842.10
5190,-3.8458,0.0243,-0.8314,-648.19,1562.50,701.48
5200,-3.8458,0.0227,-0.8320,-882.57,1578.12,607.73
5210,-3.8458,0.0223,-0.8329,-1085.69,1500.00,513.98
5220,-3.8458,0.0227,-0.8333,-1132.57,1390.62,451.48
5230,-3.8458,0.0233,-0.8330,-1085.69,1343.75,388.98
5240,-3.8458,0.0245,-0.8326,-1007.57,1375.00,279.60
5250,-3.8458,0.0260,-0.8328,-851.32,1421.88,263.98
5260,-3.8458,0.0271,-0.8329,-663.82,1406.25,310.85
5270,-3.8458,0.0283,-0.8323,-523.19,1390.62,310.85
5280,-3.8458,0.0294,-0.8304,-366.94,1468.75,326.48
5290,-3.8458,0.0302,-0.8286,-226.32,1703.12,326.48
5300,-3.8458,0.0302,-0.8284,-132.57,1937.50,342.10
5310,-3.8458,0.0295,-0.8287,-132.57,1968.75,342.10
5320,-3.8458,0.0292,-0.8293,-210.69,1921.88,373.35
5330,-3.8458,0.0288,-0.8308,-257.57,1843.75,388.98
5340,-3.8458,0.0286,-0.8326,-304.44,1656.25,373.35
5350,-3.8458,0.0283,-0.8339,-335.69,1421.88,435.85
5360,-3.8458,0.0283,-0.8347,-366.94,1265.62,701.48
5370,-3.8458,0.0287,-0.8356,-366.94,1156.25,904.60
5380,-3.8458,0.0289,-0.8357,-320.07,1046.88,951.48
5390,-3.8458,0.0284,-0.8352,-288.82,1031.25,967.10
5400,-3.8458,0.0271,-0.8340,-351.32,1093.75,888.98
5410,-3.8458,0.0258,-0.8318,-523.19,1250.00,763.98
5420,-3.8458,0.0249,-0.8297,-695.07,1531.25,763.98
5430,-3.8458,0.0250,-0.8290,-804.44,1796.88,810.85
5440,-3.8458,0.0266,-0.8300,-788.82,1890.62,795.23
5450,-3.8458,0.0291,-0.8324,-585.69,1765.62,607.73
5460,-3.8458,0.0309,-0.8357,-273.19,1453.12,310.85
5470,-3.8458,0.0317,-0.8386,-38.82,1031.25,107.73
5480,-3.8458,0.0309,-0.8398,70.56,656.31,123.35
5490,-3.8458,0.0282,-0.8390,-38.82,500.00,201.48
5500,-3.8458,0.0249,-0.8368,-382.57,609.38,248.35
5510,-3.8458,0.0211,-0.8348,-804.44,890.62,420.23
5520,-3.8458,0.0173,-0.8345,-1288.82,1140.62,763.98
5530,-3.8458,0.0151,-0.8356,-1773.19,1187.50,1154.60
5540,-3.8458,0.0164,-0.8384,1945.56,1046.88,1373.35
5550,-3.8458,0.0197,-0.8419,-1898.19,687.50,1310.85
5560,-3.8458,0.0226,-0.8439,-1476.32,234.38,1217.10
5570,-3.8458,0.0249,-0.8442,-1101.32,-15.62,1232.67
5580,-3.8458,0.0264,-0.8438,-804.44,-62.50,1310.79
5590,-3.8458,0.0258,-0.8422,-616.94,0.00,1404.60
5600,-3.8458,0.0236,-0.8400,-695.07,203.12,1467.10
5610,-3.8458,0.0203,-0.8385,-976.32,484.38,1513.98
5620,-3.8458,0.0168,-0.8381,-1398.19,671.88,1451.48
5630,-3.8458,0.0140,-0.8376,-1835.69,718.75,1217.10
5640,-3.8458,0.0118,-0.8356,1804.93,781.25,873.35
5650,-3.8458,0.0114,-0.8324,1523.68,1046.88,607.73
5660,-3.8458,0.0128,-0.8290,1461.18,1453.12,513.98
5670,-3.8458,0.0150,-0.8264,1648.68,1890.62,404.60
5680,-3.8458,0.0175,-0.8251,1929.93,-1781.25,279.60
5690,-3.8458,0.0205,-0.8250,-1757.57,-1609.38,373.35
5700,-3.8458,0.0236,-0.8260,-1366.94,-1593.75,576.48
5710,-3.8458,0.0261,-0.8284,-976.32,-1734.38,654.60
5720,-3.8458,0.0278,-0.8298,-648.19,1968.75,654.60
5730,-3.8458,0.0286,-0.8289,-429.44,1781.25,670.23
5740,-3.8458,0.0269,-0.8265,-335.69,1906.25,576.48
5750,-3.8458,0.0223,-0.8237,-554.44,-1796.88,357.73
5760,-3.8459,0.0168,-0.8207,-1132.57,-1437.50,-48.52
5770,-3.8459,0.0134,-0.8191,-1835.69,-1046.88,-454.77
5780,-3.8459,0.0126,-0.8196,1726.81,-843.75,-642.27
5790,-3.8459,0.0138,-0.8213,1617.43,-906.25,-673.52
5800,-3.8459,0.0167,-0.8231,1773.68,-1125.00,-642.27
5810,-3.8459,0.0197,-0.8250,-1851.32,-1359.38,-579.77
5820,-3.8459,0.0216,-0.8265,-1476.32,-1593.75,-486.02
5830,-3.8459,0.0236,-0.8286,-1226.32,-1796.88,-423.52
5840,-3.8459,0.0254,-0.8311,-976.32,1937.50,-407.90
5850,-3.8459,0.0266,-0.8328,-741.94,1625.00,-376.65
5860,-3.8459,0.0280,-0.8336,-585.69,1406.25,-439.15
5870,-3.8459,0.0293,-0.8331,-413.82,1296.88,-392.27
5880,-3.8459,0.0299,-0.8315,-241.94,1359.38,-95.40
5890,-3.8458,0.0295,-0.8309,-163.82,1562.50,310.85
5900,-3.8458,0.0283,-0.8320,-210.69,1640.62,670.23
5910,-3.8458,0.0273,-0.8347,-366.94,1500.00,1045.23
5920,-3.8458,0.0270,-0.8376,-491.94,1156.25,1373.35
5930,-3.8458,0.0270,-0.8403,-538.82,781.25,1717.10
5940,-3.8458,0.0275,-0.8436,-538.82,437.50,-1986.02
5950,-3.8458,0.0286,-0.8466,-476.32,15.62,-1923.52
5960,-3.8458,0.0298,-0.8474,-335.69,-359.38,-1954.83
5970,-3.8458,0.0309,-0.8462,-179.44,-468.75,1951.42
5980,-3.8458,0.0312,-0.8431,-38.82,-312.50,1842.04
5990,-3.8458,0.0315,-0.8397,8.06,78.19,1763.98
6000,-3.8458,0.0323,-0.8389,39.31,515.69,1748.35
6010,-3.8458,0.0328,-0.8396,148.68,625.06,1779.60
6020,-3.8458,0.0323,-0.8405,211.18,531.31,1810.85
6030,-3.8458,0.0315,-0.8409,148.68,421.94,1904.60
6040,-3.8458,0.0304,-0.8409,39.31,359.44,1998.35
6050,-3.8458,0.0291,-0.8412,-101.32,359.38,-1954.77
6060,-3.8458,0.0276,-0.8416,-273.19,328.12,-1970.40
6070,-3.8458,0.0261,-0.8422,-460.69,281.25,-1986.02
6080,-3.8458,0.0254,-0.8417,-648.19,203.12,1967.10
6090,-3.8458,0.0260,-0.8397,-741.94,265.62,1810.85
6100,-3.8458,0.0267,-0.8375,-663.82,515.62,1560.85
6110,-3.8458,0.0267,-0.8353,-570.07,796.88,1185.85
6120,-3.8458,0.0256,-0.8323,-570.07,1078.12,779.60
6130,-3.8458,0.0237,-0.8286,-710.69,1468.75,513.98
6140,-3.8458,0.0217,-0.8257,-960.69,1937.50,529.60
6150,-3.8458,0.0204,-0.8246,-1210.69,-1687.50,763.98
6160,-3.8458,0.0203,-0.8256,-1382.57,-1546.88,873.35
6170,-3.8458,0.0220,-0.8276,-1398.19,-1671.88,685.85
6180,-3.8458,0.0247,-0.8290,-1179.44,-1937.50,310.85
6190,-3.8459,0.0271,-0.8291,-835.69,1890.62,-32.90
6200,-3.8459,0.0281,-0.8276,-523.19,1875.00,-361.02
6210,-3.8459,0.0267,-0.8247,-398.19,-1937.50,-595.40
6220,-3.8459,0.0226,-0.8218,-570.07,-1562.50,-642.27
6230,-3.8459,0.0168,-0.8201,-1101.32,-1187.50,-548.52
6240,-3.8459,0.0118,-0.8199,-1835.69,-968.75,-251.65
6250,-3.8458,0.0099,-0.8221,1523.68,-953.12,138.98
6260,-3.8458,0.0103,-0.8260,1273.68,-1234.38,357.73
6270,-3.8458,0.0114,-0.8295,1320.56,-1734.38,373.35
6280,-3.8458,0.0133,-0.8311,1461.18,1828.12,279.60
6290,-3.8458,0.0154,-0.8311,1711.18,1625.00,373.35
6300,-3.8458,0.0175,-0.8306,1976.81,1625.00,592.10
6310,-3.8458,0.0188,-0.8304,-1757.57,1687.50,779.60
6320,-3.8458,0.0182,-0.8311,-1585.69,1703.12,935.85
6330,-3.8458,0.0167,-0.8325,-1663.82,1625.00,1029.60
6340,-3.8458,0.0159,-0.8339,-1851.32,1437.50,982.73
6350,-3.8458,0.0164,-0.8339,-1960.69,1265.62,935.85
6360,-3.8458,0.0177,-0.8326,-1898.19,1265.62,904.60
6370,-3.8458,0.0189,-0.8312,-1726.32,1421.88,842.10
6380,-3.8458,0.0208,-0.8303,-1570.07,1609.38,748.35
6390,-3.8458,0.0237,-0.8303,-1335.69,1718.75,873.35
6400,-3.8458,0.0264,-0.8315,-960.69,1718.75,1107.73
6410,-3.8458,0.0281,-0.8341,-616.94,1562.50,1232.73
6420,-3.8458,0.0278,-0.8370,-398.19,1234.38,1279.60
6430,-3.8458,0.0266,-0.8402,-429.44,859.38,1295.23
6440,-3.8458,0.0261,-0.8418,-585.69,453.12,1373.35
6450,-3.8458,0.0260,-0.8408,-648.19,250.00,1545.23
6460,-3.8458,0.0256,-0.8392,-663.82,375.00,1685.85
6470,-3.8458,0.0244,-0.8381,-710.69,578.12,1935.85
6480,-3.8458,0.0237,-0.8376,-866.94,718.75,-1720.40
6490,-3.8458,0.0244,-0.8383,-960.69,781.25,-1407.90
6500,-3.8458,0.0269,-0.8402,-866.94,703.12,-1189.15
6510,-3.8458,0.0299,-0.8431,-554.44,453.12,-1017.27
6520,-3.8458,0.0326,-0.8458,-163.82,78.12,-876.65
6530,-3.8458,0.0344,-0.8473,179.93,-265.56,-814.21
6540,-3.8458,0.0352,-0.8469,414.31,-453.06,-829.83
6550,-3.8458,0.0347,-0.8455,508.06,-406.19,-892.33
6560,-3.8458,0.0327,-0.8435,445.56,-218.69,-1048.58
6570,-3.8458,0.0302,-0.8412,195.56,31.31,-1220.40
6580,-3.8458,0.0276,-0.8406,-132.57,328.12,-1392.27
6590,-3.8458,0.0258,-0.8412,-460.69,406.25,-1532.90
6600,-3.8458,0.0250,-0.8422,-695.07,328.12,-1579.77
6610,-3.8458,0.0240,-0.8433,-788.82,203.12,-1689.15
6620,-3.8458,0.0232,-0.8441,-913.82,62.50,-1970.40
6630,-3.8458,0.0227,-0.8446,-1023.19,-46.88,1748.29
6640,-3.8458,0.0223,-0.8440,-1085.69,-109.38,1685.79
6650,-3.8458,0.0219,-0.8423,-1132.57,-31.25,1810.79
6660,-3.8458,0.0219,-0.8406,-1195.07,187.50,1998.35
6670,-3.8458,0.0231,-0.8391,-1195.07,406.25,-1939.15
6680,-3.8458,0.0249,-0.8376,-1038.82,593.75,1967.10
6690,-3.8458,0.0264,-0.8363,-804.44,781.25,1763.98
6700,-3.8458,0.0272,-0.8353,-616.94,953.12,1607.73
6710,-3.8458,0.0276,-0.8346,-507.57,1078.12,1545.23
6720,-3.8458,0.0271,-0.8335,-460.69,1171.88,1451.48
6730,-3.8458,0.0259,-0.8317,-523.19,1312.50,1373.35
6740,-3.8458,0.0249,-0.8303,-679.44,1546.88,1357.73
6750,-3.8458,0.0243,-0.8298,-804.44,1718.75,1342.10
6760,-3.8458,0.0244,-0.8295,-882.57,1781.25,1451.48
6770,-3.8458,0.0253,-0.8295,-866.94,1828.12,1623.35
6780,-3.8458,0.0262,-0.8302,-757.57,1828.12,1685.85
6790,-3.8458,0.0278,-0.8308,-632.57,1734.38,1654.60
6800,-3.8458,0.0293,-0.8306,-429.44,1656.25,1607.73
6810,-3.8458,0.0288,-0.8306,-241.94,1687.50,1451.48
6820,-3.8458,0.0271,-0.8304,-304.44,1687.50,1217.10
6830,-3.8458,0.0262,-0.8302,-523.19,1703.12,1123.35
6840,-3.8458,0.0260,-0.8297,-632.57,1734.38,1076.48
6850,-3.8458,0.0249,-0.8284,-663.82,1796.88,1045.23
6860,-3.8458,0.0227,-0.8275,-804.44,1968.75,1217.10
6870,-3.8458,0.0208,-0.8279,-1085.69,-1921.88,1482.73
6880,-3.8458,0.0204,-0.8293,-1335.69,-1968.75,1623.35
6890,-3.8458,0.0220,-0.8325,-1382.57,1843.75,1607.73
6900,-3.8458,0.0242,-0.8348,-1179.44,1437.50,1404.60
6910,-3.8458,0.0255,-0.8358,-898.19,1140.62,1107.73
6920,-3.8458,0.0251,-0.8357,-726.32,1015.62,935.85
6930,-3.8458,0.0225,-0.8352,-773.19,1031.25,888.98
6940,-3.8458,0.0183,-0.8344,-1116.94,1093.75,1107.73
6950,-3.8458,0.0144,-0.8344,-1648.19,1203.12,1576.48
6960,-3.8458,0.0117,-0.8363,1851.81,1203.12,1967.10
6970,-3.8458,0.0109,-0.8389,1508.06,953.12,-1845.40
6980,-3.8458,0.0120,-0.8412,1398.68,625.00,-1657.90
6990,-3.8458,0.0146,-0.8433,1539.31,328.12,-1532.90
7000,-3.8458,0.0172,-0.8435,1883.06,62.50,-1595.40
7010,-3.8458,0.0192,-0.8423,-1788.82,31.25,-1720.40
7020,-3.8458,0.0209,-0.8406,-1538.82,187.50,-1876.65
7030,-3.8458,0.0217,-0.8381,-1320.07,406.25,1998.35
7040,-3.8458,0.0212,-0.8358,-1210.69,718.75,1857.73
7050,-3.8458,0.0208,-0.8341,-1273.19,1015.62,1623.35
7060,-3.8458,0.0215,-0.8324,-1335.69,1234.38,1263.98
7070,-3.8458,0.0221,-0.8311,-1241.94,1453.12,826.48
7080,-3.8458,0.0220,-0.8304,-1163.82,1625.00,498.35
7090,-3.8458,0.0217,-0.8300,-1179.44,1703.12,420.23
7100,-3.8458,0.0215,-0.8303,-1210.69,1765.62,576.48
7110,-3.8458,0.0220,-0.8315,-1241.94,1718.75,857.73
7120,-3.8458,0.0233,-0.8330,-1179.44,1562.50,1170.23
7130,-3.8458,0.0249,-0.8350,-1007.57,1375.00,1388.98
7140,-3.8458,0.0264,-0.8364,-804.44,1125.00,1529.60
7150,-3.8458,0.0272,-0.8367,-616.94,937.50,1623.35
7160,-3.8458,0.0271,-0.8358,-507.57,906.25,1748.35
7170,-3.8458,0.0262,-0.8339,-523.19,1015.62,1826.48
7180,-3.8458,0.0251,-0.8329,-632.57,1265.62,1748.35
7190,-3.8458,0.0247,-0.8335,-773.19,1390.62,1654.60
7200,-3.8458,0.0251,-0.8351,-835.69,1312.50,1670.23
7210,-3.8458,0.0264,-0.8365,-773.19,1109.38,1701.48
7220,-3.8458,0.0275,-0.8379,-616.94,921.88,1670.23
7230,-3.8458,0.0284,-0.8398,-476.32,750.00,1670.23
7240,-3.8458,0.0289,-0.8413,-351.32,500.00,1717.10
7250,-3.8458,0.0288,-0.8420,-288.82,312.50,1857.73
7260,-3.8458,0.0283,-0.8420,-304.44,218.75,1904.60
7270,-3.8458,0.0272,-0.8418,-366.94,218.75,1857.73
7280,-3.8458,0.0251,-0.8411,-507.57,250.00,1982.73
7290,-3.8458,0.0231,-0.8392,-773.19,343.75,-1923.52
7300,-3.8458,0.0228,-0.8374,-1038.82,578.12,1998.35
7310,-3.8458,0.0247,-0.8363,-1070.07,812.50,1920.23
7320,-3.8458,0.0273,-0.8359,-835.69,953.12,1842.10
7330,-3.8458,0.0289,-0.8357,-491.94,1000.00,1670.23
7340,-3.8458,0.0303,-0.8357,-288.82,1031.25,1513.98
7350,-3.8458,0.0314,-0.8363,-116.94,1031.25,1498.35
7360,-3.8458,0.0316,-0.8375,23.68,953.19,1529.60
7370,-3.8458,0.0308,-0.8381,54.93,796.94,1685.85
7380,-3.8458,0.0284,-0.8376,-54.44,718.75,1795.23
7390,-3.8458,0.0261,-0.8374,-351.32,781.25,1685.85
7400,-3.8458,0.0244,-0.8372,-648.19,812.50,1513.98
7410,-3.8458,0.0229,-0.8361,-866.94,843.75,1295.23
7420,-3.8458,0.0221,-0.8353,-1054.44,984.38,1060.85
7430,-3.8458,0.0223,-0.8352,-1163.82,1078.12,888.98
7440,-3.8458,0.0237,-0.8347,-1132.57,1093.75,717.10
7450,-3.8458,0.0253,-0.8346,-960.69,1156.25,560.85
7460,-3.8458,0.0264,-0.8348,-757.57,1171.88,482.73
7470,-3.8458,0.0267,-0.8353,-616.94,1140.62,529.60
7480,-3.8458,0.0269,-0.8358,-570.07,1078.12,842.10
7490,-3.8458,0.0264,-0.8364,-554.44,1015.62,1248.35
7500,-3.8458,0.0253,-0.8374,-616.94,937.50,1451.48
7510,-3.8458,0.0244,-0.8379,-757.57,812.50,1513.98
7520,-3.8458,0.0237,-0.8381,-866.94,750.00,1576.48
7530,-3.8458,0.0227,-0.8375,-960.69,718.75,1560.85
7540,-3.8458,0.0215,-0.8364,-1085.69,796.88,1451.48
7550,-3.8458,0.0203,-0.8353,-1241.94,937.50,1404.60
7560,-3.8458,0.0195,-0.8345,-1398.19,1078.12,1592.10
7570,-3.8458,0.0198,-0.8348,-1491.94,1187.50,1982.73
7580,-3.8458,0.0223,-0.8363,-1460.69,1140.62,-1782.90
7590,-3.8458,0.0272,-0.8387,-1132.57,953.12,-1845.40
7600,-3.8458,0.0320,-0.8405,-507.57,640.62,1857.73
7610,-3.8458,0.0344,-0.8398,101.81,421.94,1482.73
7620,-3.8458,0.0338,-0.8378,414.31,500.06,1013.98
7630,-3.8458,0.0306,-0.8358,336.18,765.69,607.73
7640,-3.8458,0.0259,-0.8341,-70.07,1015.62,576.48
7650,-3.8458,0.0210,-0.8336,-679.44,1234.38,857.73
7660,-3.8458,0.0179,-0.8353,-1304.44,1296.88,1310.85
7670,-3.8458,0.0170,-0.8384,-1695.07,1078.12,1779.60
7680,-3.8458,0.0172,-0.8413,-1820.07,687.50,1951.48
7690,-3.8458,0.0192,-0.8431,-1788.82,312.50,1779.60
7700,-3.8458,0.0217,-0.8435,-1538.82,78.12,1529.60
7710,-3.8458,0.0244,-0.8419,-1210.69,31.25,1467.10
7720,-3.8458,0.0271,-0.8390,-866.94,234.38,1607.73
7730,-3.8458,0.0284,-0.8358,-523.19,609.38,1638.98
7740,-3.8458,0.0288,-0.8331,-351.32,1015.62,1607.73
7750,-3.8458,0.0289,-0.8317,-304.44,1359.38,1560.85
7760,-3.8458,0.0286,-0.8308,-288.82,1546.88,1326.48
7770,-3.8458,0.0281,-0.8296,-335.69,1656.25,998.35
7780,-3.8458,0.0282,-0.8281,-398.19,1812.50,654.60
7790,-3.8458,0.0289,-0.8263,-382.57,-2000.00,388.98
7800,-3.8458,0.0293,-0.8250,-288.82,-1765.62,310.85
7810,-3.8458,0.0300,-0.8247,-241.94,-1593.75,342.10
7820,-3.8458,0.0314,-0.8256,-148.19,-1562.50,467.10
7830,-3.8458,0.0332,-0.8276,23.68,-1671.81,592.10
7840,-3.8458,0.0343,-0.8293,258.06,-1937.44,638.98
7850,-3.8458,0.0344,-0.8293,398.68,1843.81,638.98
7860,-3.8458,0.0339,-0.8285,414.31,1843.81,638.98
7870,-3.8458,0.0330,-0.8273,351.81,1953.19,592.10
7880,-3.8458,0.0310,-0.8264,226.81,-1890.56,482.73
7890,-3.8458,0.0286,-0.8260,-23.19,-1781.25,435.85
7900,-3.8458,0.0270,-0.8260,-335.69,-1734.38,467.10
7910,-3.8458,0.0267,-0.8284,-538.82,-1734.38,638.98
7920,-3.8458,0.0277,-0.8317,-570.07,1968.75,842.10
7930,-3.8458,0.0294,-0.8341,-445.07,1546.88,998.35
7940,-3.8458,0.0314,-0.8363,-226.32,1234.38,1201.48
7950,-3.8458,0.0326,-0.8370,23.68,953.19,1404.60
7960,-3.8458,0.0327,-0.8367,179.93,859.44,1560.85
7970,-3.8458,0.0320,-0.8362,195.56,906.31,1654.60
7980,-3.8458,0.0299,-0.8359,101.81,968.81,1607.73
7990,-3.8458,0.0280,-0.8363,-163.82,1000.00,1435.85
8000,-3.8458,0.0267,-0.8369,-413.82,953.12,1263.98
8010,-3.8458,0.0259,-0.8373,-570.07,875.00,1201.48
8020,-3.8458,0.0254,-0.8385,-679.44,828.12,1185.85
8030,-3.8458,0.0243,-0.8396,-741.94,671.88,1248.35
8040,-3.8458,0.0239,-0.8396,-882.57,531.25,1295.23
8050,-3.8458,0.0243,-0.8398,-929.44,531.25,1310.85
8060,-3.8458,0.0251,-0.8403,-882.57,500.00,1373.35
8070,-3.8458,0.0261,-0.8405,-773.19,437.50,1513.98
8080,-3.8458,0.0273,-0.8397,-648.19,421.88,1592.10
8090,-3.8458,0.0275,-0.8381,-491.94,515.62,1576.48
8100,-3.8458,0.0266,-0.8367,-476.32,718.75,1513.98
8110,-3.8458,0.0255,-0.8361,-585.69,906.25,1373.35
8120,-3.8458,0.0248,-0.8359,-726.32,984.38,1326.48
8130,-3.8458,0.0254,-0.8362,-820.07,1000.00,1263.98
8140,-3.8458,0.0255,-0.8359,-741.94,968.75,1029.60
8150,-3.8458,0.0244,-0.8352,-726.32,1000.00,810.85
8160,-3.8458,0.0234,-0.8348,-866.94,1093.75,795.23
8170,-3.8458,0.0236,-0.8353,-991.94,1140.62,842.10
8180,-3.8458,0.0236,-0.8353,-976.32,1078.12,935.85
8190,-3.8458,0.0231,-0.8345,-976.32,1078.12,1029.60
8200,-3.8458,0.0221,-0.8335,-1038.82,1187.50,1029.60
8210,-3.8458,0.0219,-0.8333,-1163.82,1312.50,920.23
8220,-3.8458,0.0237,-0.8329,-1195.07,1343.75,732.73
8230,-3.8458,0.0266,-0.8312,-960.69,1390.62,498.35
8240,-3.8458,0.0288,-0.8287,-585.69,1609.38,342.10
8250,-3.8458,0.0294,-0.8265,-304.44,1921.88,279.60
8260,-3.8458,0.0293,-0.8242,-226.32,-1796.88,279.60
8270,-3.8458,0.0283,-0.8225,-241.94,-1500.00,435.85
8280,-3.8458,0.0273,-0.8229,-366.94,-1281.25,685.85
8290,-3.8458,0.0284,-0.8253,-491.94,-1328.12,701.48
8300,-3.8458,0.0310,-0.8287,-351.32,-1640.62,623.35
8310,-3.8458,0.0332,-0.8314,-23.19,1921.88,467.10
8320,-3.8458,0.0333,-0.8331,258.06,1578.19,170.23
8330,-3.8459,0.0315,-0.8333,273.68,1359.44,-173.52
8340,-3.8459,0.0277,-0.8320,39.31,1343.81,-470.40
8350,-3.8459,0.0236,-0.8300,-445.07,1500.00,-532.90
8360,-3.8459,0.0217,-0.8284,-976.32,1765.62,-282.90
8370,-3.8458,0.0216,-0.8285,-1210.69,1968.75,45.23
8380,-3.8458,0.0227,-0.8301,-1226.32,1953.12,310.85
8390,-3.8458,0.0249,-0.8319,-1085.69,1750.00,592.10
8400,-3.8458,0.0276,-0.8331,-804.44,1515.62,795.23
8410,-3.8458,0.0309,-0.8339,-460.69,1359.38,826.48
8420,-3.8458,0.0341,-0.8350,-38.82,1265.62,763.98
8430,-3.8458,0.0358,-0.8352,367.43,1125.06,701.48
8440,-3.8458,0.0350,-0.8342,586.18,1093.81,701.48
8450,-3.8458,0.0327,-0.8334,492.43,1218.81,717.10
8460,-3.8458,0.0308,-0.8329,195.56,1328.19,701.48
8470,-3.8458,0.0299,-0.8322,-54.44,1390.62,701.48
8480,-3.8458,0.0298,-0.8313,-163.82,1484.38,607.73
8490,-3.8458,0.0302,-0.8302,-179.44,1593.75,482.73
8500,-3.8458,0.0304,-0.8295,-132.57,1734.38,560.85
8510,-3.8458,0.0309,-0.8291,-101.32,1828.12,638.98
8520,-3.8458,0.0312,-0.8295,-38.82,1875.00,795.23
8530,-3.8458,0.0322,-0.8309,8.06,1828.19,1107.73
8540,-3.8458,0.0342,-0.8323,133.06,1640.69,1263.98
8550,-3.8458,0.0366,-0.8326,383.06,1468.81,1170.23
8560,-3.8458,0.0389,-0.8325,695.56,1421.94,935.85
8570,-3.8458,0.0391,-0.8319,992.43,1437.56,654.60
8580,-3.8458,0.0374,-0.8306,1008.06,1515.69,451.48
8590,-3.8458,0.0345,-0.8286,789.31,1687.56,310.85
8600,-3.8458,0.0314,-0.8276,429.93,1937.56,185.85
8610,-3.8458,0.0292,-0.8286,23.68,-1937.44,138.98
8620,-3.8458,0.0278,-0.8312,-257.57,1937.50,170.23
8630,-3.8458,0.0271,-0.8345,-429.44,1609.38,263.98
8640,-3.8458,0.0273,-0.8376,-523.19,1187.50,357.73
8650,-3.8458,0.0277,-0.8398,-491.94,781.25,420.23
8660,-3.8458,0.0280,-0.8409,-445.07,500.00,482.73
8670,-3.8458,0.0286,-0.8416,-413.82,359.38,638.98
8680,-3.8458,0.0292,-0.8425,-335.69,281.25,748.35
8690,-3.8458,0.0287,-0.8451,-257.57,156.25,826.48
8700,-3.8458,0.0280,-0.8480,-320.07,-171.88,826.42
8710,-3.8458,0.0270,-0.8490,-413.82,-546.88,701.42
8720,-3.8458,0.0255,-0.8490,-538.82,-671.88,670.17
8730,-3.8458,0.0242,-0.8490,-726.32,-671.88,826.42
8740,-3.8458,0.0231,-0.8491,-898.19,-671.88,1217.04
8750,-3.8458,0.0220,-0.8484,-1038.82,-687.50,1888.92
8760,-3.8458,0.0215,-0.8469,-1179.44,-593.75,-1345.46
8770,-3.8458,0.0231,-0.8458,-1241.94,-406.25,-564.21
8780,-3.8457,0.0265,-0.8452,-1038.82,-265.62,185.79
8790,-3.8457,0.0306,-0.8438,-601.32,-187.50,685.79
8800,-3.8457,0.0350,-0.8411,-70.07,0.00,748.35
8810,-3.8457,0.0402,-0.8365,492.43,343.81,435.85
8820,-3.8458,0.0454,-0.8302,1148.68,921.94,-189.15
8830,-3.8458,0.0500,-0.8241,1820.56,1734.44,-1048.52
8840,-3.8458,0.0524,-0.8187,-1585.69,-1484.31,1904.60
8850,-3.8458,0.0519,-0.8145,-1288.82,-796.81,717.10
8860,-3.8459,0.0485,-0.8120,-1351.32,-249.94,-486.02
8870,-3.8459,0.0426,-0.8112,-1788.82,62.56,-1407.84
8880,-3.8459,0.0363,-0.8115,1461.18,171.94,1951.54
8890,-3.8459,0.0311,-0.8126,648.68,125.06,1592.16
8900,-3.8459,0.0260,-0.8134,-7.57,-15.62,1560.85
8910,-3.8459,0.0203,-0.8143,-663.82,-109.38,1638.98
8920,-3.8459,0.0157,-0.8158,-1398.19,-234.38,1779.60
8930,-3.8459,0.0138,-0.8168,-1976.32,-421.88,-1907.90
8940,-3.8459,0.0146,-0.8174,1773.68,-546.88,-1548.52
8950,-3.8459,0.0173,-0.8175,1883.06,-625.00,-1204.77
8960,-3.8459,0.0214,-0.8168,-1773.19,-640.62,-876.65
8970,-3.8459,0.0256,-0.8157,-1257.57,-546.88,-579.77
8980,-3.8459,0.0282,-0.8148,-710.69,-406.25,-189.15
8990,-3.8458,0.0291,-0.8148,-382.57,-296.88,263.98
9000,-3.8458,0.0288,-0.8167,-273.19,-296.88,592.10
9010,-3.8458,0.0278,-0.8206,-304.44,-531.25,763.98
9020,-3.8458,0.0271,-0.8267,-429.44,-1031.25,717.10
9030,-3.8458,0.0259,-0.8334,-523.19,-1812.50,482.73
9040,-3.8458,0.0229,-0.8381,-679.44,1328.12,123.35
9050,-3.8459,0.0182,-0.8406,-1054.44,718.75,-142.27
9060,-3.8459,0.0135,-0.8414,-1663.82,406.25,-142.27
9070,-3.8458,0.0098,-0.8409,1742.43,296.88,76.48
9080,-3.8458,0.0079,-0.8400,1258.06,359.38,435.85
9090,-3.8458,0.0092,-0.8405,1023.68,484.38,795.23
9100,-3.8458,0.0126,-0.8419,1179.93,421.88,1217.10
9110,-3.8458,0.0184,-0.8435,1617.43,234.38,1607.73
9120,-3.8458,0.0251,-0.8447,-1632.57,31.25,1779.60
9130,-3.8458,0.0306,-0.8453,-773.19,-125.00,1967.04
9140,-3.8458,0.0343,-0.8450,-70.07,-203.12,-1782.96
9150,-3.8458,0.0355,-0.8446,398.68,-156.19,-1517.33
9160,-3.8458,0.0339,-0.8440,554.93,-109.31,-1173.58
9170,-3.8458,0.0315,-0.8427,351.81,-31.19,-876.71
9180,-3.8458,0.0294,-0.8416,39.31,140.69,-782.90
9190,-3.8458,0.0276,-0.8412,-226.32,281.25,-798.52
9200,-3.8458,0.0266,-0.8411,-460.69,328.12,-939.15
9210,-3.8458,0.0264,-0.8400,-585.69,343.75,-1314.15
9220,-3.8458,0.0264,-0.8379,-616.94,484.38,-1798.52
9230,-3.8458,0.0272,-0.8352,-616.94,750.00,1576.48
9240,-3.8458,0.0286,-0.8331,-507.57,1093.75,982.73
9250,-3.8458,0.0294,-0.8318,-335.69,1359.38,592.10
9260,-3.8458,0.0297,-0.8314,-226.32,1531.25,326.48
9270,-3.8458,0.0292,-0.8314,-195.07,1578.12,76.48
9280,-3.8459,0.0283,-0.8307,-257.57,1578.12,-157.90
9290,-3.8459,0.0278,-0.8303,-366.94,1671.88,-329.77
9300,-3.8459,0.0270,-0.8298,-429.44,1718.75,-423.52
9310,-3.8459,0.0254,-0.8285,-538.82,1781.25,-392.27
9320,-3.8459,0.0243,-0.8278,-741.94,1953.12,-267.27
9330,-3.8459,0.0237,-0.8279,-882.57,-1953.12,-142.27
9340,-3.8458,0.0239,-0.8281,-960.69,-1968.75,13.98
9350,-3.8458,0.0255,-0.8286,-929.44,-2000.00,295.23
9360,-3.8458,0.0277,-0.8290,-726.32,1937.50,467.10
9370,-3.8458,0.0300,-0.8289,-445.07,1890.62,435.85
9380,-3.8458,0.0323,-0.8278,-148.19,1906.25,451.48
9390,-3.8458,0.0339,-0.8264,148.68,-1953.06,498.35
9400,-3.8458,0.0341,-0.8256,351.81,-1781.19,388.98
9410,-3.8458,0.0331,-0.8253,367.43,-1671.81,232.73
9420,-3.8458,0.0317,-0.8256,242.43,-1640.56,92.10
9430,-3.8459,0.0300,-0.8267,70.56,-1671.81,-1.65
9440,-3.8459,0.0283,-0.8285,-148.19,-1812.50,-111.02
9450,-3.8459,0.0270,-0.8306,-366.94,1953.12,-142.27
9460,-3.8458,0.0255,-0.8326,-538.82,1687.50,13.98
9470,-3.8458,0.0237,-0.8348,-726.32,1421.88,217.10
9480,-3.8458,0.0217,-0.8369,-960.69,1140.62,357.73
9490,-3.8458,0.0211,-0.8385,-1210.69,875.00,498.35
9500,-3.8458,0.0225,-0.8394,-1288.82,671.88,623.35
9510,-3.8458,0.0242,-0.8392,-1116.94,562.50,795.23
9520,-3.8458,0.0250,-0.8378,-898.19,578.12,967.10
9530,-3.8458,0.0255,-0.8364,-788.82,765.62,1045.23
9540,-3.8458,0.0264,-0.8358,-726.32,937.50,1154.60
9550,-3.8458,0.0270,-0.8358,-616.94,1015.62,1248.35
9560,-3.8458,0.0280,-0.8359,-538.82,1015.62,1279.60
9570,-3.8458,0.0292,-0.8361,-413.82,1000.00,1373.35
9580,-3.8458,0.0299,-0.8365,-257.57,984.38,1685.85
9590,-3.8458,0.0300,-0.8383,-163.82,921.88,1888.98
9600,-3.8458,0.0300,-0.8407,-148.19,703.12,1795.23
9610,-3.8458,0.0300,-0.8424,-148.19,390.62,1701.48
9620,-3.8458,0.0300,-0.8430,-148.19,171.88,1685.85
9630,-3.8458,0.0294,-0.8425,-148.19,93.75,1654.60
9640,-3.8458,0.0287,-0.8412,-226.32,156.25,1482.73
9650,-3.8458,0.0272,-0.8397,-320.07,328.12,1170.23
9660,-3.8458,0.0242,-0.8385,-507.57,515.62,888.98
9670,-3.8458,0.0223,-0.8370,-898.19,671.88,748.35
9680,-3.8458,0.0215,-0.8362,-1132.57,859.38,795.23
9690,-3.8458,0.0208,-0.8356,-1241.94,968.75,763.98
9700,-3.8458,0.0212,-0.8347,-1335.69,1046.88,623.35
9710,-3.8458,0.0223,-0.8331,-1273.19,1156.25,623.35
9720,-3.8458,0.0239,-0.8314,-1132.57,1359.38,1013.98
9730,-3.8458,0.0262,-0.8307,-929.44,1578.12,1482.73
9740,-3.8458,0.0298,-0.8313,-632.57,1671.88,1623.35
9750,-3.8458,0.0345,-0.8324,-179.44,1593.75,1529.60
9760,-3.8458,0.0391,-0.8330,429.93,1453.19,1342.10
9770,-3.8458,0.0408,-0.8322,1008.06,1375.06,1045.23
9780,-3.8458,0.0388,-0.8304,1226.81,1484.44,592.10
9790,-3.8458,0.0342,-0.8287,976.81,1703.19,170.23
9800,-3.8459,0.0270,-0.8279,383.06,1921.94,-48.52
9810,-3.8459,0.0190,-0.8279,-538.82,-1968.75,-64.15
9820,-3.8458,0.0139,-0.8291,-1554.44,-1968.75,217.10
9830,-3.8458,0.0117,-0.8318,1789.31,1875.00,529.60
9840,-3.8458,0.0123,-0.8350,1508.06,1531.25,607.73
9850,-3.8458,0.0165,-0.8370,1586.18,1125.00,545.23
9860,-3.8458,0.0222,-0.8365,-1882.57,859.38,420.23
9870,-3.8458,0.0276,-0.8342,-1148.19,921.88,279.60
