timestamp_ms,ax,ay,az,gx,gy,gz
0,-3.8723,-0.1749,0.6718,1867.43,1640.26,1407.53
10,-3.8723,-0.1791,0.6730,1617.43,1999.63,1673.16
20,-3.8723,-0.1820,0.6667,1086.18,-1844.12,-1248.72
30,-3.8722,-0.1835,0.6522,711.18,1359.01,626.28
40,-3.8722,-0.1880,0.6356,523.68,-500.37,-1467.53
50,-3.8722,-0.1956,0.6234,-54.44,1374.57,-108.15
60,-3.8721,-0.2024,0.6216,-1023.19,-187.93,313.66
70,-3.8721,-0.2052,0.6295,-1898.19,-422.30,48.03
80,-3.8722,-0.2042,0.6409,1742.43,593.32,-608.15
90,-3.8722,-0.2001,0.6521,1867.43,-1953.55,-1701.90
100,-3.8722,-0.1943,0.6610,-1601.32,-516.05,876.22
110,-3.8723,-0.1881,0.6669,-866.94,624.57,-420.59
120,-3.8723,-0.1810,0.6715,-70.07,1374.57,-1061.22
130,-3.8723,-0.1716,0.6722,836.18,1968.38,-842.47
140,-3.8722,-0.1637,0.6648,-1960.69,-1937.87,48.16
150,-3.8722,-0.1635,0.6498,-945.07,1109.01,1173.16
160,-3.8722,-0.1686,0.6344,-913.82,-812.87,-1701.90
170,-3.8722,-0.1769,0.6270,-1570.07,1218.38,-826.90
180,-3.8722,-0.1893,0.6307,1367.43,265.26,-483.15
190,-3.8722,-0.2050,0.6429,-226.32,749.57,-1076.90
200,-3.8722,-0.2203,0.6569,1773.68,-1687.93,1360.60
210,-3.8723,-0.2279,0.6683,-195.07,93.26,-748.72
220,-3.8723,-0.2192,0.6769,-1163.82,1562.01,1501.28
230,-3.8723,-0.1980,0.6803,-54.44,-1344.24,938.78
240,-3.8723,-0.1774,0.6772,-1335.69,-906.68,1391.91
250,-3.8723,-0.1688,0.6696,1304.93,-1297.24,-1748.72
260,-3.8723,-0.1746,0.6602,-1601.32,1718.38,-1139.34
270,-3.8723,-0.1866,0.6522,1664.31,515.26,-920.59
280,-3.8723,-0.1948,0.6493,117.43,-500.37,-795.65
290,-3.8723,-0.1949,0.6504,-929.44,-875.43,-420.65
300,-3.8722,-0.1893,0.6475,-945.07,-734.80,266.85
310,-3.8722,-0.1825,0.6388,-226.32,-1109.80,1157.47
320,-3.8722,-0.1760,0.6317,648.68,1780.88,-1780.03
330,-3.8722,-0.1707,0.6333,1476.81,874.63,-842.53
340,-3.8722,-0.1697,0.6438,-1835.69,1077.76,-686.28
350,-3.8722,-0.1757,0.6591,-1710.69,-1578.49,-1608.15
360,-3.8722,-0.1833,0.6718,1523.68,374.63,860.66
370,-3.8723,-0.1838,0.6761,539.31,1999.63,-389.34
380,-3.8723,-0.1736,0.6721,476.81,-1437.87,-561.22
390,-3.8722,-0.1552,0.6587,1789.31,-1953.49,626.28
400,-3.8722,-0.1395,0.6384,148.68,327.82,-1326.84
410,-3.8721,-0.1412,0.6189,-1851.32,1734.07,798.10
420,-3.8721,-0.1631,0.6047,1929.93,-765.93,-1576.97
430,-3.8721,-0.1936,0.5990,-866.94,1421.51,-764.47
440,-3.8721,-0.2196,0.6011,-773.19,687.07,-873.84
450,-3.8721,-0.2307,0.6090,-101.32,952.64,-1639.47
460,-3.8721,-0.2257,0.6213,-1523.19,1968.26,1266.78
470,-3.8721,-0.2115,0.6342,-882.57,-453.61,282.41
480,-3.8722,-0.1934,0.6410,929.93,1187.07,-436.28
490,-3.8722,-0.1758,0.6422,-741.94,-1937.93,-826.90
500,-3.8722,-0.1625,0.6423,1508.06,-1781.62,-686.28
510,-3.8722,-0.1559,0.6423,-788.82,-1765.99,-248.78
520,-3.8722,-0.1578,0.6428,54.93,-1765.93,-30.03
530,-3.8722,-0.1678,0.6449,-195.07,-1703.49,-311.28
540,-3.8722,-0.1802,0.6472,-1476.32,-1437.87,-1014.40
550,-3.8722,-0.1879,0.6475,945.56,-1140.99,-1780.03
560,-3.8722,-0.1888,0.6450,-38.82,-1109.80,1938.72
570,-3.8722,-0.1838,0.6392,-163.82,-1422.30,-1576.90
580,-3.8722,-0.1785,0.6292,476.81,1827.76,-608.15
590,-3.8721,-0.1774,0.6161,1164.31,546.51,266.85
600,-3.8721,-0.1782,0.6056,1304.93,-1125.37,766.78
610,-3.8721,-0.1785,0.6064,1195.56,1530.88,1126.16
620,-3.8721,-0.1790,0.6211,1164.31,1640.26,1516.78
630,-3.8721,-0.1799,0.6421,1101.81,-484.74,1188.66
640,-3.8722,-0.1782,0.6599,976.81,-1797.24,-280.03
650,-3.8722,-0.1715,0.6687,1195.56,484.01,1907.53
660,-3.8722,-0.1608,0.6667,-1945.07,1609.01,798.16
670,-3.8722,-0.1486,0.6577,-570.07,1359.01,704.41
680,-3.8722,-0.1388,0.6475,992.43,202.82,1282.53
690,-3.8722,-0.1400,0.6384,-1757.57,-1109.68,-1748.78
700,-3.8722,-0.1544,0.6309,-1913.82,1734.07,-811.28
710,-3.8722,-0.1719,0.6294,242.43,765.32,-514.40
720,-3.8722,-0.1812,0.6365,-1991.94,577.76,-889.40
730,-3.8722,-0.1809,0.6467,820.56,1484.01,-1623.78
740,-3.8722,-0.1752,0.6533,851.81,-1203.49,1641.85
750,-3.8722,-0.1672,0.6534,1586.18,-359.74,1094.97
760,-3.8722,-0.1604,0.6492,-1398.19,-344.12,1032.47
770,-3.8722,-0.1588,0.6437,-523.19,-890.99,1657.47
780,-3.8722,-0.1616,0.6394,-320.07,-1594.12,-1701.90
790,-3.8722,-0.1641,0.6401,-679.44,1859.01,-1561.28
800,-3.8722,-0.1647,0.6448,-991.94,1952.76,-1655.03
810,-3.8722,-0.1660,0.6500,-1070.07,-1453.49,-1842.53
820,-3.8722,-0.1696,0.6556,-1241.94,-781.62,1673.10
830,-3.8722,-0.1743,0.6626,-1695.07,-62.87,813.72
840,-3.8723,-0.1768,0.6683,1695.56,827.76,-14.34
850,-3.8723,-0.1743,0.6676,1383.06,1562.13,-342.47
860,-3.8722,-0.1686,0.6584,1695.56,1468.38,16.91
870,-3.8722,-0.1636,0.6444,-1570.07,296.51,1095.03
880,-3.8722,-0.1638,0.6311,-929.44,-1500.37,-1405.03
890,-3.8722,-0.1699,0.6234,-960.69,796.51,-342.53
900,-3.8722,-0.1804,0.6257,-1741.94,-187.87,-389.47
910,-3.8722,-0.1929,0.6367,914.31,109.01,-1248.78
920,-3.8722,-0.2018,0.6500,-679.44,1515.20,1657.47
930,-3.8722,-0.2012,0.6615,-1820.07,-781.68,688.72
940,-3.8723,-0.1896,0.6710,-1741.94,687.07,-14.34
950,-3.8723,-0.1744,0.6754,-257.57,1905.82,-342.47
960,-3.8723,-0.1644,0.6714,1679.93,-1531.62,-248.72
970,-3.8722,-0.1583,0.6638,-1038.82,1952.76,141.91
980,-3.8722,-0.1559,0.6566,-257.57,984.01,641.91
990,-3.8722,-0.1613,0.6500,54.93,62.19,938.78
1000,-3.8722,-0.1715,0.6465,-632.57,-781.62,969.97
1010,-3.8722,-0.1808,0.6465,-1945.07,-1234.74,766.85
1020,-3.8722,-0.1881,0.6479,867.43,-1234.74,423.10
1030,-3.8722,-0.1921,0.6526,-70.07,-1047.30,79.35
1040,-3.8723,-0.1901,0.6588,-585.69,-453.55,-14.40
1050,-3.8722,-0.1830,0.6611,-320.07,343.32,220.03
1060,-3.8722,-0.1763,0.6588,586.18,640.26,626.28
1070,-3.8722,-0.1722,0.6561,1445.56,343.38,970.03
1080,-3.8722,-0.1692,0.6539,1961.18,-0.37,1266.85
1090,-3.8722,-0.1667,0.6504,-1648.19,-281.62,1469.97
1100,-3.8722,-0.1664,0.6460,-1335.69,-734.74,1532.47
1110,-3.8722,-0.1665,0.6478,-1288.82,-1297.24,1313.72
1120,-3.8722,-0.1652,0.6594,-1304.44,-1062.87,688.72
1130,-3.8723,-0.1628,0.6699,-1132.57,421.51,-326.84
1140,-3.8723,-0.1621,0.6715,-835.69,1765.26,-1311.22
1150,-3.8723,-0.1635,0.6664,-741.94,1968.38,-1358.09
1160,-3.8723,-0.1638,0.6599,-913.82,1312.13,-529.97
1170,-3.8722,-0.1628,0.6566,-960.69,484.01,157.53
1180,-3.8722,-0.1626,0.6572,-835.69,62.13,126.28
1190,-3.8723,-0.1639,0.6592,-804.44,140.26,-295.59
1200,-3.8723,-0.1680,0.6595,-976.32,390.26,-733.09
1210,-3.8723,-0.1749,0.6583,-1491.94,437.13,-1045.59
1220,-3.8723,-0.1787,0.6593,1617.43,280.88,-936.22
1230,-3.8723,-0.1750,0.6622,1133.06,405.88,-561.22
1240,-3.8723,-0.1663,0.6632,1601.81,780.88,-92.47
1250,-3.8722,-0.1578,0.6616,-1273.19,905.88,641.91
1260,-3.8722,-0.1538,0.6615,-195.07,702.76,1282.53
1270,-3.8722,-0.1539,0.6635,320.56,687.19,1235.66
1280,-3.8722,-0.1555,0.6617,304.93,937.19,766.91
1290,-3.8722,-0.1558,0.6597,101.81,718.44,345.03
1300,-3.8722,-0.1602,0.6573,70.56,452.82,188.78
1310,-3.8722,-0.1696,0.6512,-491.94,155.88,220.03
1320,-3.8722,-0.1761,0.6477,-1695.07,-625.37,219.97
1330,-3.8722,-0.1802,0.6469,1461.18,-1078.49,298.10
1340,-3.8722,-0.1842,0.6428,945.56,-1187.87,704.35
1350,-3.8722,-0.1892,0.6373,429.93,-1703.49,1657.47
1360,-3.8722,-0.1945,0.6384,-210.69,1593.32,-1358.15
1370,-3.8722,-0.1968,0.6486,-882.57,1733.95,-1264.40
1380,-3.8722,-0.1930,0.6598,-1179.44,-969.18,-1873.78
1390,-3.8722,-0.1818,0.6685,-695.07,468.32,1329.41
1400,-3.8722,-0.1694,0.6726,742.43,1577.76,391.91
1410,-3.8723,-0.1639,0.6681,-1679.44,-1890.99,-108.09
1420,-3.8722,-0.1638,0.6577,-976.32,1530.88,204.41
1430,-3.8722,-0.1650,0.6489,-960.69,202.76,641.91
1440,-3.8722,-0.1685,0.6458,-1116.94,-922.24,704.35
1450,-3.8722,-0.1740,0.6482,-1554.44,-1328.49,704.35
1460,-3.8722,-0.1766,0.6550,1742.43,-1015.99,688.72
1470,-3.8722,-0.1770,0.6627,1398.68,-140.99,501.22
1480,-3.8722,-0.1764,0.6643,1351.81,843.38,391.91
1490,-3.8722,-0.1748,0.6554,1429.93,1046.51,813.78
1500,-3.8722,-0.1710,0.6410,1633.06,-94.12,1907.47
1510,-3.8722,-0.1656,0.6326,-1882.57,-1937.87,-1030.03
1520,-3.8722,-0.1631,0.6356,-1195.07,984.01,-748.78
1530,-3.8722,-0.1644,0.6472,-866.94,1374.63,-1545.65
1540,-3.8722,-0.1680,0.6608,-1038.82,-1140.99,876.22
1550,-3.8723,-0.1722,0.6719,-1491.94,593.38,-779.97
1560,-3.8723,-0.1779,0.6780,1961.18,-1984.74,-1889.34
1570,-3.8723,-0.1847,0.6763,1242.43,-1203.49,1860.66
1580,-3.8723,-0.1873,0.6700,367.43,-1422.24,-1686.22
1590,-3.8723,-0.1821,0.6637,39.31,1780.88,-873.72
1600,-3.8723,-0.1736,0.6588,695.56,968.38,-61.22
1610,-3.8722,-0.1671,0.6554,1789.31,343.38,485.66
1620,-3.8722,-0.1670,0.6537,-1382.57,-94.12,735.60
1630,-3.8722,-0.1748,0.6548,-1366.94,-312.87,579.35
1640,-3.8723,-0.1864,0.6597,1633.06,-172.24,-295.65
1650,-3.8723,-0.1954,0.6667,148.68,452.76,-1373.72
1660,-3.8723,-0.1963,0.6702,-1007.57,1358.95,-1811.22
1670,-3.8723,-0.1880,0.6678,-1116.94,1796.45,-1529.97
1680,-3.8723,-0.1755,0.6633,-54.44,1499.57,-608.09
1690,-3.8722,-0.1655,0.6595,1539.31,921.51,532.53
1700,-3.8722,-0.1614,0.6576,-1179.44,437.13,1188.78
1710,-3.8722,-0.1635,0.6555,-648.19,187.13,1141.91
1720,-3.8722,-0.1702,0.6530,-913.82,-78.49,688.72
1730,-3.8722,-0.1790,0.6508,-1773.19,-406.62,266.85
1740,-3.8722,-0.1887,0.6494,1101.81,-687.87,126.22
1750,-3.8722,-0.1942,0.6497,-148.19,-859.80,298.10
1760,-3.8722,-0.1912,0.6511,-851.32,-828.55,704.35
1770,-3.8722,-0.1821,0.6505,-460.69,-641.05,1157.47
1780,-3.8722,-0.1746,0.6475,695.56,-719.12,1657.47
1790,-3.8722,-0.1758,0.6453,1664.31,-1109.74,-1889.40
1800,-3.8722,-0.1827,0.6469,1508.06,-1390.99,-1670.65
1810,-3.8722,-0.1868,0.6531,617.43,-1187.87,-1858.15
1820,-3.8722,-0.1824,0.6595,101.81,-390.99,1735.60
1830,-3.8722,-0.1709,0.6605,664.31,437.13,1360.66
1840,-3.8722,-0.1615,0.6567,-1866.94,562.13,1204.41
1850,-3.8722,-0.1589,0.6506,-663.82,77.76,1438.78
1860,-3.8722,-0.1598,0.6443,-335.69,-703.49,1938.72
1870,-3.8722,-0.1633,0.6423,-445.07,-1515.99,-1592.53
1880,-3.8722,-0.1689,0.6444,-898.19,-1765.99,-1420.65
1890,-3.8722,-0.1729,0.6498,-1616.94,-1500.37,1985.60
1900,-3.8722,-0.1757,0.6594,1883.06,-812.87,735.60
1910,-3.8723,-0.1819,0.6703,1523.68,421.51,-514.34
1920,-3.8723,-0.1888,0.6771,726.81,1812.13,-1561.22
1930,-3.8723,-0.1879,0.6782,-163.82,-1312.93,1673.16
1940,-3.8723,-0.1772,0.6732,-38.82,-1172.30,1657.53
1950,-3.8723,-0.1630,0.6621,1320.56,-1812.87,-1420.59
1960,-3.8723,-0.1515,0.6509,-851.32,765.26,-217.47
1970,-3.8722,-0.1462,0.6488,617.43,-672.18,563.72
1980,-3.8722,-0.1497,0.6571,1289.31,-937.81,766.85
1990,-3.8722,-0.1621,0.6675,851.81,124.69,266.91
2000,-3.8723,-0.1780,0.6714,-741.94,1452.76,-764.34
2010,-3.8723,-0.1876,0.6671,1226.81,1952.76,-1498.72
2020,-3.8723,-0.1875,0.6587,-7.57,1405.82,-1201.84
2030,-3.8723,-0.1799,0.6512,8.06,327.76,-61.22
2040,-3.8722,-0.1685,0.6488,976.81,-625.37,1126.22
2050,-3.8722,-0.1591,0.6503,-1554.44,-937.87,-1998.78
2060,-3.8722,-0.1571,0.6517,-351.32,-750.37,-1623.78
2070,-3.8722,-0.1613,0.6532,-101.32,-562.87,-1951.90
2080,-3.8722,-0.1683,0.6556,-632.57,-375.37,1110.60
2090,-3.8722,-0.1755,0.6593,-1538.82,-62.87,110.60
2100,-3.8723,-0.1796,0.6639,1539.31,405.88,-639.34
2110,-3.8723,-0.1786,0.6680,1023.68,999.63,-1076.84
2120,-3.8723,-0.1743,0.6685,1148.68,1515.26,-1154.97
2130,-3.8723,-0.1666,0.6639,1695.56,1577.76,-826.84
2140,-3.8722,-0.1558,0.6592,-1320.07,999.63,63.78
2150,-3.8722,-0.1464,0.6566,70.56,390.32,1251.28
2160,-3.8722,-0.1432,0.6550,1273.68,62.19,-1904.97
2170,-3.8722,-0.1493,0.6556,1679.93,-140.93,-1920.65
2180,-3.8722,-0.1641,0.6570,898.68,-62.81,1438.72
2190,-3.8722,-0.1797,0.6571,-991.94,109.01,595.03
2200,-3.8723,-0.1893,0.6586,1008.06,124.63,-170.59
2210,-3.8723,-0.1914,0.6624,-226.32,312.07,-592.47
2220,-3.8723,-0.1870,0.6664,-491.94,796.45,-686.22
2230,-3.8723,-0.1779,0.6696,70.56,1312.13,-779.97
2240,-3.8723,-0.1639,0.6713,1242.43,1718.38,-1029.97
2250,-3.8723,-0.1493,0.6702,-976.32,1937.13,-1233.09
2260,-3.8723,-0.1403,0.6663,898.68,1796.57,-1061.22
2270,-3.8723,-0.1387,0.6620,-1945.07,1296.57,-592.47
2280,-3.8723,-0.1453,0.6584,-1741.94,749.69,-264.34
2290,-3.8723,-0.1581,0.6566,1414.31,296.57,-279.97
2300,-3.8723,-0.1725,0.6589,-226.32,62.13,-654.97
2310,-3.8723,-0.1836,0.6658,1929.93,359.01,-1264.34
2320,-3.8723,-0.1895,0.6707,508.06,1234.01,-1748.72
2330,-3.8723,-0.1890,0.6694,-241.94,1858.95,-1733.09
2340,-3.8723,-0.1801,0.6643,-179.44,1702.70,-1029.97
2350,-3.8722,-0.1677,0.6572,961.18,1046.51,48.16
2360,-3.8722,-0.1610,0.6520,-1460.69,140.26,985.66
2370,-3.8722,-0.1614,0.6531,-601.32,-531.62,1548.10
2380,-3.8722,-0.1663,0.6594,-648.19,-390.99,1438.72
2390,-3.8722,-0.1742,0.6660,-1273.19,421.51,516.91
2400,-3.8723,-0.1821,0.6698,1711.18,1265.26,-608.09
2410,-3.8723,-0.1854,0.6703,695.56,1749.63,-1123.72
2420,-3.8723,-0.1823,0.6678,273.68,1812.13,-748.72
2430,-3.8722,-0.1746,0.6635,679.93,1499.63,173.16
2440,-3.8722,-0.1659,0.6600,1664.31,937.13,923.16
2450,-3.8722,-0.1598,0.6584,-1226.32,499.63,1173.16
2460,-3.8722,-0.1608,0.6581,-445.07,296.51,1110.66
2470,-3.8722,-0.1715,0.6591,-570.07,249.63,876.28
2480,-3.8722,-0.1881,0.6595,-1945.07,374.63,626.28
2490,-3.8722,-0.2015,0.6571,-70.07,437.07,188.78
2500,-3.8723,-0.2045,0.6532,-1788.82,124.57,-217.47
2510,-3.8723,-0.1985,0.6501,1836.18,-375.43,-201.90
2520,-3.8722,-0.1876,0.6483,-1398.19,-766.05,344.97
2530,-3.8722,-0.1738,0.6487,-7.57,-1000.43,938.72
2540,-3.8722,-0.1611,0.6521,1758.06,-953.49,1235.60
2550,-3.8722,-0.1541,0.6521,-616.94,-515.99,1501.22
2560,-3.8722,-0.1560,0.6479,289.31,-515.93,1766.85
2570,-3.8722,-0.1666,0.6460,39.31,-1047.18,1907.47
2580,-3.8722,-0.1808,0.6462,-1320.07,-1297.24,-1998.78
2590,-3.8722,-0.1921,0.6479,867.43,-1265.99,1923.10
2600,-3.8722,-0.1982,0.6510,-585.69,-1047.30,1579.35
2610,-3.8722,-0.1990,0.6528,-1366.94,-656.68,1219.97
2620,-3.8722,-0.1934,0.6519,-1460.69,-422.30,907.47
2630,-3.8722,-0.1836,0.6490,-741.94,-547.30,719.97
2640,-3.8722,-0.1752,0.6471,508.06,-906.62,860.60
2650,-3.8722,-0.1698,0.6467,1586.18,-1156.62,1235.60
2660,-3.8722,-0.1659,0.6469,-1726.32,-1203.49,1673.10
2670,-3.8722,-0.1632,0.6489,-1226.32,-1187.87,-1983.15
2680,-3.8722,-0.1628,0.6532,-882.57,-922.24,-1967.53
2690,-3.8722,-0.1659,0.6549,-835.69,-375.37,1798.10
2700,-3.8722,-0.1743,0.6521,-1226.32,-156.62,1407.47
2710,-3.8722,-0.1868,0.6473,1695.56,-515.99,969.97
2720,-3.8722,-0.1959,0.6427,101.81,-1125.37,907.47
2730,-3.8722,-0.1969,0.6401,-1070.07,-1719.18,1329.35
2740,-3.8722,-0.1917,0.6398,-1195.07,1952.70,1876.22
2750,-3.8722,-0.1835,0.6418,-523.19,1905.82,-1842.53
2760,-3.8722,-0.1765,0.6475,523.68,-1828.49,-1842.53
2770,-3.8722,-0.1737,0.6531,1414.31,-1109.74,1923.10
2780,-3.8722,-0.1731,0.6570,1773.68,-390.99,1235.60
2790,-3.8722,-0.1707,0.6597,1851.81,109.01,423.16
2800,-3.8723,-0.1655,0.6606,-1835.69,452.76,-92.47
2810,-3.8723,-0.1599,0.6605,-1179.44,577.76,-373.72
2820,-3.8723,-0.1564,0.6617,-460.69,562.13,-717.47
2830,-3.8723,-0.1565,0.6642,-7.57,718.38,-1108.09
2840,-3.8723,-0.1603,0.6660,-23.19,1030.88,-1404.97
2850,-3.8723,-0.1643,0.6665,-507.57,1265.26,-1467.47
2860,-3.8723,-0.1674,0.6631,-1023.19,1327.76,-1170.59
2870,-3.8723,-0.1697,0.6541,-1413.82,890.26,-451.84
2880,-3.8722,-0.1705,0.6449,-1710.69,-265.99,782.47
2890,-3.8722,-0.1686,0.6409,-1820.07,-1437.87,-1889.40
2900,-3.8722,-0.1664,0.6421,-1570.07,-1953.49,-1248.78
2910,-3.8722,-0.1665,0.6472,-1288.82,-1797.24,-1608.15
2920,-3.8722,-0.1650,0.6531,-1304.44,-1140.99,1626.22
2930,-3.8722,-0.1609,0.6572,-1116.94,-390.99,985.60
2940,-3.8722,-0.1575,0.6599,-585.69,140.26,548.16
2950,-3.8722,-0.1556,0.6616,-148.19,484.01,470.03
2960,-3.8722,-0.1534,0.6609,86.18,702.82,501.28
2970,-3.8722,-0.1530,0.6569,367.43,609.07,548.16
2980,-3.8722,-0.1576,0.6505,429.93,93.44,860.66
2990,-3.8722,-0.1642,0.6451,-163.82,-719.12,1438.72
3000,-3.8722,-0.1665,0.6432,-1007.57,-1406.62,-1764.40
3010,-3.8722,-0.1642,0.6445,-1304.44,-1656.62,-1092.53
3020,-3.8722,-0.1648,0.6469,-1007.57,-1484.74,-936.28
3030,-3.8722,-0.1704,0.6494,-1085.69,-1187.87,-1342.53
3040,-3.8722,-0.1769,0.6519,-1804.44,-859.74,1813.72
3050,-3.8722,-0.1815,0.6520,1367.43,-547.24,985.60
3060,-3.8722,-0.1831,0.6506,773.68,-531.62,657.47
3070,-3.8722,-0.1823,0.6505,570.56,-703.49,657.47
3080,-3.8722,-0.1790,0.6523,679.93,-719.12,579.35
3090,-3.8722,-0.1721,0.6545,1101.81,-484.74,376.22
3100,-3.8722,-0.1642,0.6554,1976.81,-203.49,266.85
3110,-3.8722,-0.1598,0.6536,-1007.57,-94.12,391.85
3120,-3.8722,-0.1595,0.6497,-445.07,-328.49,813.72
3130,-3.8722,-0.1636,0.6458,-413.82,-828.49,1344.97
3140,-3.8722,-0.1726,0.6438,-929.44,-1328.49,1626.22
3150,-3.8722,-0.1835,0.6438,1914.31,-1578.49,1673.10
3160,-3.8722,-0.1890,0.6433,523.68,-1578.49,1735.60
3170,-3.8722,-0.1849,0.6416,-179.44,-1641.05,-1873.78
3180,-3.8722,-0.1766,0.6384,336.18,-1859.74,-1217.53
3190,-3.8722,-0.1708,0.6356,1398.68,1734.01,-639.40
3200,-3.8722,-0.1680,0.6379,-1851.32,1374.63,-326.90
3210,-3.8722,-0.1666,0.6432,-1491.94,1671.51,-373.78
3220,-3.8722,-0.1658,0.6473,-1320.07,-1656.62,-623.78
3230,-3.8722,-0.1677,0.6495,-1210.69,-1125.37,-920.65
3240,-3.8722,-0.1733,0.6493,-1460.69,-844.12,-1451.90
3250,-3.8722,-0.1790,0.6479,1820.56,-875.37,1829.35
3260,-3.8722,-0.1809,0.6465,1101.81,-1047.24,1282.47
3270,-3.8722,-0.1792,0.6444,851.81,-1234.74,1157.47
3280,-3.8722,-0.1754,0.6412,1070.56,-1500.37,1391.85
3290,-3.8722,-0.1714,0.6388,1554.93,-1906.62,1657.47
3300,-3.8722,-0.1686,0.6411,-1929.44,1780.88,1844.97
3310,-3.8722,-0.1660,0.6465,-1570.07,-1922.24,1954.35
3320,-3.8722,-0.1653,0.6479,-1241.94,-1234.74,1860.60
3330,-3.8722,-0.1689,0.6436,-1148.19,-1047.24,1704.35
3340,-3.8722,-0.1752,0.6385,-1616.94,-1609.74,1860.60
3350,-3.8722,-0.1781,0.6379,1586.18,1749.63,-1655.03
3360,-3.8722,-0.1752,0.6418,1211.18,1671.51,-1420.65
3370,-3.8722,-0.1666,0.6479,1586.18,-1828.49,-1670.65
3380,-3.8722,-0.1570,0.6519,-1320.07,-1047.24,1891.85
3390,-3.8722,-0.1503,0.6508,-85.69,-547.24,1641.85
3400,-3.8722,-0.1486,0.6460,773.68,-687.81,1641.85
3410,-3.8722,-0.1512,0.6432,992.43,-1297.18,1829.35
3420,-3.8722,-0.1566,0.6432,648.68,-1656.56,-1780.03
3430,-3.8722,-0.1636,0.6416,-38.82,-1656.62,-1123.78
3440,-3.8722,-0.1697,0.6375,-929.44,-1859.74,-373.78
3450,-3.8721,-0.1730,0.6331,-1710.69,1609.01,141.85
3460,-3.8721,-0.1748,0.6302,1867.43,1046.51,141.85
3470,-3.8722,-0.1754,0.6316,1633.06,687.13,-326.90
3480,-3.8722,-0.1740,0.6388,1554.93,859.01,-1076.90
3490,-3.8722,-0.1713,0.6477,1742.43,1780.88,1985.60
3500,-3.8722,-0.1681,0.6532,-1913.82,-1078.49,1188.72
3510,-3.8722,-0.1644,0.6552,-1507.57,-375.37,735.60
3520,-3.8722,-0.1613,0.6544,-1038.82,-125.37,704.35
3530,-3.8722,-0.1600,0.6501,-632.57,-219.12,1173.10
3540,-3.8722,-0.1622,0.6443,-476.32,-765.99,1829.35
3550,-3.8722,-0.1669,0.6390,-757.57,-1515.99,-1639.40
3560,-3.8722,-0.1720,0.6337,-1351.32,1812.13,-1155.03
3570,-3.8722,-0.1753,0.6305,1992.43,1124.63,-733.15
3580,-3.8722,-0.1768,0.6329,1570.56,718.38,-483.15
3590,-3.8722,-0.1787,0.6389,1383.06,1030.88,-545.65
3600,-3.8722,-0.1793,0.6456,1133.06,1796.51,-1076.90
3610,-3.8722,-0.1764,0.6510,1054.93,-1344.12,-1748.78
3620,-3.8722,-0.1721,0.6521,1429.93,-656.62,1969.97
3630,-3.8722,-0.1699,0.6493,1976.81,-515.99,-1936.28
3640,-3.8722,-0.1707,0.6462,-1741.94,-875.37,-1842.53
3650,-3.8722,-0.1707,0.6448,-1835.69,-1265.99,-1717.53
3660,-3.8722,-0.1683,0.6431,-1835.69,-1453.49,-1608.15
3670,-3.8722,-0.1658,0.6416,-1538.82,-1672.24,-1576.90
3680,-3.8722,-0.1674,0.6423,-1210.69,-1859.74,-1686.28
3690,-3.8722,-0.1736,0.6454,-1413.82,-1765.99,1860.60
3700,-3.8722,-0.1788,0.6504,1789.31,-1375.37,1110.60
3710,-3.8722,-0.1793,0.6561,1117.43,-734.74,501.22
3720,-3.8722,-0.1765,0.6589,1054.93,-0.37,423.10
3730,-3.8722,-0.1758,0.6558,1414.31,359.01,751.28
3740,-3.8722,-0.1787,0.6495,1508.06,-47.24,1219.97
3750,-3.8722,-0.1813,0.6449,1133.06,-844.12,1594.97
3760,-3.8722,-0.1804,0.6442,804.93,-1437.87,1813.72
3770,-3.8722,-0.1768,0.6459,914.31,-1531.62,1813.72
3780,-3.8722,-0.1688,0.6488,1383.06,-1312.87,1626.22
3790,-3.8722,-0.1552,0.6527,-1601.32,-937.87,1501.22
3800,-3.8722,-0.1368,0.6533,148.68,-437.81,1641.85
3810,-3.8722,-0.1210,0.6497,-1507.57,-359.68,-1920.65
3820,-3.8722,-0.1151,0.6460,523.68,-828.37,-1420.65
3830,-3.8722,-0.1226,0.6455,1273.68,-1297.12,-1092.53
3840,-3.8722,-0.1416,0.6469,320.56,-1359.62,-1139.40
3850,-3.8722,-0.1659,0.6467,1883.06,-1187.81,-1686.28
3860,-3.8722,-0.1870,0.6448,-1226.32,-1203.49,1594.97
3870,-3.8722,-0.1959,0.6432,70.56,-1453.49,1266.85
3880,-3.8722,-0.1886,0.6431,-1070.07,-1656.68,1454.35
3890,-3.8722,-0.1724,0.6416,-132.57,-1672.30,-1686.28
3900,-3.8722,-0.1605,0.6349,1945.56,-1859.74,-217.53
3910,-3.8721,-0.1602,0.6244,-538.82,1280.88,1048.10
3920,-3.8721,-0.1677,0.6189,-491.94,-62.87,1579.28
3930,-3.8721,-0.1748,0.6230,-1460.69,-765.99,1313.66
3940,-3.8721,-0.1779,0.6349,1633.06,-234.74,532.41
3950,-3.8722,-0.1781,0.6482,1242.43,1280.88,-451.90
3960,-3.8722,-0.1776,0.6581,1211.18,-1015.99,-1717.53
3970,-3.8722,-0.1779,0.6653,1273.68,249.63,860.66
3980,-3.8723,-0.1781,0.6678,1242.43,1171.51,-404.97
3990,-3.8723,-0.1776,0.6655,1211.18,1499.63,-1342.47
4000,-3.8723,-0.1758,0.6615,1273.68,1202.76,-1686.22
4010,-3.8723,-0.1707,0.6575,1508.06,687.13,-1483.09
4020,-3.8723,-0.1619,0.6531,-1835.69,171.51,-1014.34
4030,-3.8723,-0.1530,0.6473,-710.69,-390.99,-170.65
4040,-3.8722,-0.1481,0.6401,429.93,-1125.31,1141.85
4050,-3.8722,-0.1482,0.6320,1054.93,1952.82,-1389.40
4060,-3.8722,-0.1519,0.6262,1039.31,905.94,-92.53
4070,-3.8721,-0.1593,0.6265,570.56,171.57,501.22
4080,-3.8721,-0.1682,0.6345,-382.57,202.76,235.60
4090,-3.8722,-0.1748,0.6472,-1523.19,1234.01,-764.40
4100,-3.8722,-0.1761,0.6588,1633.06,-1140.99,1751.22
4110,-3.8722,-0.1727,0.6650,1461.18,343.38,532.53
4120,-3.8722,-0.1674,0.6636,1898.68,1140.26,235.66
4130,-3.8722,-0.1626,0.6553,-1413.82,952.76,845.03
4140,-3.8722,-0.1582,0.6444,-804.44,-109.74,1829.35
4150,-3.8722,-0.1550,0.6350,-241.94,-1500.37,-1217.53
4160,-3.8722,-0.1553,0.6292,164.31,1296.57,-608.15
4170,-3.8722,-0.1593,0.6279,133.06,546.57,-264.40
4180,-3.8721,-0.1646,0.6281,-382.57,390.26,94.97
4190,-3.8721,-0.1687,0.6284,-1054.44,405.88,423.10
4200,-3.8721,-0.1720,0.6312,-1585.69,452.76,813.72
4210,-3.8721,-0.1748,0.6356,1992.43,812.13,985.60
4220,-3.8721,-0.1775,0.6412,1633.06,1374.63,376.22
4230,-3.8722,-0.1796,0.6486,1289.31,-1906.62,-983.15
4240,-3.8722,-0.1798,0.6560,1023.68,-969.12,1454.35
4250,-3.8722,-0.1794,0.6591,992.43,-15.99,266.85
4260,-3.8722,-0.1780,0.6564,1039.31,374.63,1.28
4270,-3.8722,-0.1740,0.6490,1226.81,30.88,751.28
4280,-3.8722,-0.1699,0.6399,1742.43,-906.62,1688.72
4290,-3.8722,-0.1672,0.6361,-1741.94,1921.51,-1983.15
4300,-3.8722,-0.1677,0.6392,-1398.19,1437.13,1813.72
4310,-3.8722,-0.1748,0.6432,-1460.69,1827.76,1454.35
4320,-3.8722,-0.1843,0.6456,1633.06,-1656.62,1219.97
4330,-3.8722,-0.1865,0.6481,414.31,-1344.12,1313.72
4340,-3.8722,-0.1802,0.6503,133.06,-1031.62,1657.47
4350,-3.8722,-0.1740,0.6499,945.56,-750.37,1985.60
4360,-3.8722,-0.1735,0.6466,1742.43,-797.24,-1858.15
4370,-3.8722,-0.1757,0.6443,1804.93,-1219.12,-1951.90
4380,-3.8722,-0.1763,0.6460,1523.68,-1515.99,1719.97
4390,-3.8722,-0.1760,0.6492,1445.56,-1297.24,1313.72
4400,-3.8722,-0.1769,0.6505,1476.81,-890.99,1063.72
4410,-3.8722,-0.1786,0.6479,1367.43,-719.12,1266.85
4420,-3.8722,-0.1792,0.6416,1148.68,-1047.24,1907.47
4430,-3.8722,-0.1777,0.6343,1070.56,-1859.74,-1405.03
4440,-3.8722,-0.1719,0.6285,1258.06,1202.76,-701.90
4450,-3.8722,-0.1621,0.6278,-1991.94,468.38,-30.03
4460,-3.8721,-0.1554,0.6338,-741.94,374.63,204.35
4470,-3.8722,-0.1565,0.6436,117.43,1140.32,-280.03
4480,-3.8722,-0.1617,0.6532,-23.19,-1609.74,-1467.53
4490,-3.8722,-0.1665,0.6598,-695.07,-375.37,1376.22
4500,-3.8722,-0.1687,0.6621,-1304.44,468.38,688.78
4510,-3.8722,-0.1660,0.6617,-1585.69,765.26,391.91
4520,-3.8722,-0.1591,0.6578,-1241.94,718.38,595.03
4530,-3.8722,-0.1531,0.6478,-351.32,218.38,1438.78
4540,-3.8722,-0.1501,0.6366,414.31,-1062.81,-1467.53
4550,-3.8722,-0.1510,0.6320,789.31,1499.69,-748.78
4560,-3.8722,-0.1571,0.6345,679.93,905.94,-623.78
4570,-3.8722,-0.1676,0.6406,-101.32,1234.01,-1045.65
4580,-3.8722,-0.1769,0.6478,-1445.07,-1984.74,-1889.40
4590,-3.8722,-0.1788,0.6541,1367.43,-1062.87,1251.22
4600,-3.8722,-0.1721,0.6567,1117.43,-265.99,704.35
4610,-3.8722,-0.1616,0.6569,1976.81,77.76,657.53
4620,-3.8722,-0.1562,0.6556,-679.44,93.38,860.66
4630,-3.8722,-0.1572,0.6552,8.06,-62.81,735.60
4640,-3.8722,-0.1582,0.6547,-116.94,-125.37,610.60
4650,-3.8722,-0.1567,0.6500,-241.94,-187.87,1048.10
4660,-3.8722,-0.1564,0.6414,-54.44,-781.62,1813.72
4670,-3.8722,-0.1616,0.6337,-7.57,-1890.99,-1686.28
4680,-3.8722,-0.1692,0.6329,-679.44,1124.63,-1576.90
4690,-3.8722,-0.1742,0.6403,-1648.19,1030.88,-1717.53
4700,-3.8722,-0.1742,0.6499,1711.18,1968.38,1954.35
4710,-3.8722,-0.1699,0.6567,1711.18,-797.24,1407.47
4720,-3.8722,-0.1667,0.6595,-1741.94,77.76,985.66
4730,-3.8722,-0.1650,0.6587,-1335.69,437.13,860.66
4740,-3.8722,-0.1626,0.6550,-1116.94,327.76,876.28
4750,-3.8722,-0.1600,0.6497,-804.44,-140.99,1079.35
4760,-3.8722,-0.1564,0.6448,-476.32,-828.49,1579.35
4770,-3.8722,-0.1503,0.6414,-7.57,-1453.49,-1748.78
4780,-3.8722,-0.1449,0.6389,773.68,-1890.93,-1248.78
4790,-3.8722,-0.1451,0.6376,1461.18,1796.57,-1045.65
4800,-3.8722,-0.1519,0.6376,1429.93,1624.69,-1061.28
4810,-3.8722,-0.1624,0.6396,570.56,1624.69,-1170.65
4820,-3.8722,-0.1703,0.6431,-773.19,1890.26,-1295.65
4830,-3.8722,-0.1716,0.6451,-1788.82,-1672.24,-1217.53
4840,-3.8722,-0.1672,0.6440,-1960.69,-1406.62,-951.90
4850,-3.8722,-0.1604,0.6416,-1398.19,-1547.24,-733.15
4860,-3.8722,-0.1536,0.6412,-523.19,-1859.74,-780.03
4870,-3.8722,-0.1488,0.6425,351.81,-1906.56,-1076.90
4880,-3.8722,-0.1469,0.6450,961.18,-1750.31,-1561.28
4890,-3.8722,-0.1469,0.6490,1211.18,-1422.18,1985.60
4900,-3.8722,-0.1500,0.6512,1211.18,-906.56,1798.10
4910,-3.8722,-0.1567,0.6503,804.93,-625.31,1751.22
4920,-3.8722,-0.1636,0.6470,-54.44,-750.37,1876.22
4930,-3.8722,-0.1654,0.6406,-929.44,-1172.24,-1748.78
4940,-3.8722,-0.1631,0.6331,-1163.82,-1984.74,-1186.28
4950,-3.8722,-0.1603,0.6281,-866.94,1046.51,-592.53
4960,-3.8722,-0.1603,0.6268,-507.57,405.88,-155.03
4970,-3.8722,-0.1639,0.6296,-507.57,249.63,-30.03
4980,-3.8722,-0.1674,0.6375,-976.32,609.01,-311.28
4990,-3.8722,-0.1667,0.6467,-1413.82,1609.01,-998.78
5000,-3.8722,-0.1635,0.6537,-1335.69,-1203.49,1985.60
5010,-3.8722,-0.1614,0.6591,-913.82,-312.87,907.47
5020,-3.8722,-0.1627,0.6619,-648.19,374.63,298.16
5030,-3.8722,-0.1656,0.6593,-820.07,734.01,345.03
5040,-3.8722,-0.1667,0.6522,-1195.07,405.88,891.91
5050,-3.8722,-0.1647,0.6433,-1335.69,-500.37,1798.10
5060,-3.8722,-0.1581,0.6339,-1070.07,-1640.99,-1076.90
5070,-3.8722,-0.1499,0.6281,-226.32,1155.88,-217.53
5080,-3.8721,-0.1455,0.6294,820.56,405.94,79.35
5090,-3.8722,-0.1484,0.6361,1383.06,577.82,-155.03
5100,-3.8722,-0.1595,0.6448,1008.06,1437.19,-889.40
5110,-3.8722,-0.1740,0.6515,-413.82,-1453.49,-1873.78
5120,-3.8722,-0.1860,0.6542,1742.43,-594.12,1219.97
5130,-3.8722,-0.1927,0.6537,195.56,-250.37,751.22
5140,-3.8722,-0.1912,0.6498,-663.82,-312.93,860.60
5150,-3.8722,-0.1809,0.6426,-460.69,-812.93,1282.47
5160,-3.8722,-0.1653,0.6355,851.81,-1734.74,-1905.03
5170,-3.8722,-0.1517,0.6312,-1148.19,1359.01,-795.65
5180,-3.8721,-0.1471,0.6299,586.18,812.19,126.22
5190,-3.8721,-0.1501,0.6324,1179.93,640.32,266.85
5200,-3.8722,-0.1555,0.6407,789.31,968.44,-373.78
5210,-3.8722,-0.1622,0.6499,101.81,-1969.06,-1264.40
5220,-3.8722,-0.1705,0.6531,-757.57,-797.24,1969.97
5230,-3.8722,-0.1749,0.6495,-1820.07,-390.99,1766.85
5240,-3.8722,-0.1737,0.6415,1617.43,-844.12,-1701.90
5250,-3.8722,-0.1678,0.6329,1773.68,-1875.37,-858.15
5260,-3.8722,-0.1584,0.6296,-1476.32,1030.88,-264.40
5270,-3.8721,-0.1511,0.6331,-273.19,609.01,16.85
5280,-3.8722,-0.1495,0.6400,664.31,1046.57,-123.78
5290,-3.8722,-0.1515,0.6462,867.43,1937.19,-670.65
5300,-3.8722,-0.1544,0.6478,617.43,-1265.93,-1280.03
5310,-3.8722,-0.1570,0.6456,242.43,-1062.81,-1686.28
5320,-3.8722,-0.1575,0.6433,-85.69,-1344.12,-1873.78
5330,-3.8722,-0.1581,0.6425,-148.19,-1640.99,-1936.28
5340,-3.8722,-0.1602,0.6426,-226.32,-1750.37,-1920.65
5350,-3.8722,-0.1600,0.6445,-491.94,-1734.74,-1983.15
5360,-3.8722,-0.1564,0.6469,-476.32,-1484.74,-1951.90
5370,-3.8722,-0.1506,0.6464,-7.57,-1187.87,-1748.78
5380,-3.8722,-0.1458,0.6436,726.81,-1250.31,-1483.15
5390,-3.8722,-0.1437,0.6396,1351.81,-1609.68,-1123.78
5400,-3.8722,-0.1461,0.6366,1617.43,1890.32,-764.40
5410,-3.8722,-0.1526,0.6377,1304.93,1499.69,-561.28
5420,-3.8722,-0.1609,0.6417,476.81,1640.32,-842.53
5430,-3.8722,-0.1687,0.6455,-585.69,-1844.12,-1467.53
5440,-3.8722,-0.1726,0.6460,-1585.69,-1359.74,-1826.90
5450,-3.8722,-0.1714,0.6438,1914.31,-1297.24,-1842.53
5460,-3.8722,-0.1660,0.6409,-1929.44,-1578.49,-1608.15
5470,-3.8722,-0.1588,0.6400,-1241.94,-1953.49,-1280.03
5480,-3.8722,-0.1520,0.6426,-320.07,1937.13,-1030.03
5490,-3.8722,-0.1484,0.6467,554.93,-1734.68,-998.78
5500,-3.8722,-0.1509,0.6489,1008.06,-1203.43,-1233.15
5510,-3.8722,-0.1588,0.6477,695.56,-922.18,-1639.40
5520,-3.8722,-0.1677,0.6466,-320.07,-1078.49,1860.60
5530,-3.8722,-0.1738,0.6462,-1460.69,-1219.12,1438.72
5540,-3.8722,-0.1761,0.6438,1758.06,-1265.99,1219.97
5550,-3.8722,-0.1748,0.6401,1461.18,-1578.49,1298.10
5560,-3.8722,-0.1702,0.6383,1633.06,1952.76,1610.60
5570,-3.8722,-0.1628,0.6379,-1773.19,1718.38,-1967.53
5580,-3.8722,-0.1553,0.6384,-835.69,1671.51,-1420.65
5590,-3.8722,-0.1489,0.6382,133.06,1734.07,-842.53
5600,-3.8722,-0.1454,0.6364,945.56,1702.82,-373.78
5610,-3.8721,-0.1458,0.6349,1398.68,1468.44,79.35
5620,-3.8721,-0.1490,0.6356,1351.81,1280.94,266.85
5630,-3.8722,-0.1555,0.6389,929.93,1374.69,-155.03
5640,-3.8722,-0.1625,0.6437,101.81,1796.57,-795.65
5650,-3.8722,-0.1655,0.6455,-788.82,-1594.12,-1170.65
5660,-3.8722,-0.1656,0.6434,-1179.44,-1359.74,-1389.40
5670,-3.8722,-0.1664,0.6403,-1195.07,-1625.37,-1155.03
5680,-3.8722,-0.1665,0.6370,-1288.82,1968.38,-639.40
5690,-3.8722,-0.1642,0.6353,-1304.44,1546.51,-389.40
5700,-3.8722,-0.1616,0.6354,-1007.57,1327.76,-467.53
5710,-3.8722,-0.1598,0.6360,-679.44,1343.38,-811.28
5720,-3.8722,-0.1577,0.6387,-445.07,1421.51,-1248.78
5730,-3.8722,-0.1561,0.6409,-179.44,1765.26,-1498.78
5740,-3.8722,-0.1566,0.6412,23.68,-1953.43,-1701.90
5750,-3.8722,-0.1561,0.6449,-38.82,-1906.62,-1998.78
5760,-3.8722,-0.1522,0.6523,23.68,-1437.81,1876.22
5770,-3.8722,-0.1486,0.6566,523.68,-484.68,1876.22
5780,-3.8722,-0.1494,0.6549,992.43,62.19,-1920.59
5790,-3.8722,-0.1549,0.6469,883.06,-156.56,-1514.40
5800,-3.8722,-0.1620,0.6360,179.93,-1187.81,-1045.65
5810,-3.8722,-0.1674,0.6284,-726.32,1421.51,-592.53
5820,-3.8722,-0.1693,0.6251,-1413.82,452.76,-217.53
5830,-3.8721,-0.1675,0.6245,-1663.82,30.88,157.47
5840,-3.8721,-0.1609,0.6259,-1429.44,-47.24,563.66
5850,-3.8721,-0.1531,0.6295,-585.69,124.63,751.22
5860,-3.8721,-0.1512,0.6356,414.31,593.44,469.97
5870,-3.8722,-0.1561,0.6445,648.68,1374.69,-342.53
5880,-3.8722,-0.1626,0.6534,23.68,-1484.68,-1326.90
5890,-3.8722,-0.1678,0.6573,-804.44,-344.12,1813.72
5900,-3.8722,-0.1689,0.6549,-1476.32,155.88,1126.28
5910,-3.8722,-0.1636,0.6499,-1616.94,-156.62,876.22
5920,-3.8722,-0.1559,0.6431,-929.44,-797.24,1313.72
5930,-3.8722,-0.1523,0.6364,54.93,-1672.18,1954.35
5940,-3.8722,-0.1548,0.6348,508.06,1468.44,-1733.15
5950,-3.8722,-0.1625,0.6389,195.56,1265.32,-1733.15
5960,-3.8722,-0.1718,0.6439,-788.82,1796.51,-1905.03
5970,-3.8722,-0.1760,0.6453,-1976.32,-1562.87,1938.72
5980,-3.8722,-0.1730,0.6416,1476.81,-1390.99,-1920.65
5990,-3.8722,-0.1667,0.6350,1867.43,-1859.74,-1311.28
6000,-3.8722,-0.1616,0.6304,-1335.69,1296.51,-561.28
6010,-3.8722,-0.1569,0.6324,-679.44,702.76,-342.53
6020,-3.8722,-0.1511,0.6393,-70.07,968.38,-561.28
6030,-3.8722,-0.1486,0.6451,664.31,1843.44,-780.03
6040,-3.8722,-0.1521,0.6481,992.43,-1406.56,-1264.40
6050,-3.8722,-0.1582,0.6484,539.31,-1031.56,-1998.78
6060,-3.8722,-0.1609,0.6476,-241.94,-984.74,1344.97
6070,-3.8722,-0.1613,0.6461,-585.69,-1094.12,985.60
6080,-3.8722,-0.1613,0.6434,-632.57,-1281.62,1173.10
6090,-3.8722,-0.1597,0.6409,-632.57,-1625.37,1782.47
6100,-3.8722,-0.1588,0.6383,-429.44,-1953.49,-1389.40
6110,-3.8722,-0.1609,0.6329,-320.07,1718.38,-436.28
6120,-3.8721,-0.1632,0.6281,-585.69,1030.88,188.72
6130,-3.8721,-0.1617,0.6313,-882.57,405.88,219.97
6140,-3.8721,-0.1555,0.6411,-695.07,827.76,48.10
6150,-3.8722,-0.1479,0.6466,101.81,-1922.18,-108.15
6160,-3.8722,-0.1443,0.6429,1070.56,-1219.06,-170.65
6170,-3.8721,-0.1472,0.6345,1539.31,-1687.81,110.60
6180,-3.8721,-0.1555,0.6284,1164.31,1234.07,469.97
6190,-3.8721,-0.1670,0.6278,101.81,452.82,532.47
6200,-3.8721,-0.1769,0.6320,-1366.94,374.63,235.60
6210,-3.8722,-0.1802,0.6381,1367.43,905.88,-405.03
6220,-3.8722,-0.1769,0.6423,945.56,1687.13,-1139.40
6230,-3.8722,-0.1677,0.6453,1367.43,-1765.99,-1733.15
6240,-3.8722,-0.1558,0.6477,-1460.69,-1390.99,1985.60
6250,-3.8722,-0.1486,0.6488,70.56,-1078.43,-1873.78
6260,-3.8722,-0.1515,0.6469,992.43,-937.81,-1483.15
6270,-3.8722,-0.1635,0.6427,617.43,-1187.81,-1326.90
6280,-3.8722,-0.1754,0.6375,-913.82,-1719.12,-1342.53
6290,-3.8722,-0.1809,0.6315,1554.93,1609.01,-1217.53
6300,-3.8722,-0.1815,0.6278,851.81,843.38,-967.53
6310,-3.8722,-0.1797,0.6299,773.68,374.63,-701.90
6320,-3.8722,-0.1753,0.6360,1008.06,640.26,-561.28
6330,-3.8722,-0.1691,0.6415,1570.56,1421.51,-826.90
6340,-3.8722,-0.1655,0.6432,-1632.57,-1875.37,-1389.40
6350,-3.8722,-0.1675,0.6416,-1179.44,-1656.62,-1873.78
6360,-3.8722,-0.1725,0.6403,-1429.44,-1859.74,1798.10
6370,-3.8722,-0.1781,0.6417,1929.93,1968.38,1485.60
6380,-3.8722,-0.1824,0.6447,1211.18,-1844.12,1376.22
6390,-3.8722,-0.1819,0.6472,664.31,-1469.12,1454.35
6400,-3.8722,-0.1748,0.6484,726.81,-1140.99,1657.47
6410,-3.8722,-0.1622,0.6455,1633.06,-984.74,-1983.15
6420,-3.8722,-0.1489,0.6390,-757.57,-1359.74,-1326.90
6430,-3.8722,-0.1434,0.6334,945.56,1812.19,-405.03
6440,-3.8721,-0.1501,0.6327,1648.68,1093.44,266.85
6450,-3.8721,-0.1638,0.6383,789.31,999.69,126.22
6460,-3.8722,-0.1771,0.6476,-960.69,1718.38,-795.65
6470,-3.8722,-0.1857,0.6566,1336.18,-1094.12,1923.10
6480,-3.8722,-0.1875,0.6604,242.43,62.13,720.03
6490,-3.8722,-0.1830,0.6547,8.06,546.51,235.66
6500,-3.8722,-0.1736,0.6412,586.18,-187.87,829.35
6510,-3.8722,-0.1614,0.6281,1789.31,-1906.62,-1780.03
6520,-3.8722,-0.1500,0.6226,-648.19,405.88,-389.40
6530,-3.8721,-0.1421,0.6261,804.93,-297.18,173.03
6540,-3.8722,-0.1368,0.6351,1820.56,155.94,-123.78
6550,-3.8722,-0.1362,0.6449,-1507.57,1312.19,-842.53
6560,-3.8722,-0.1422,0.6509,-1429.44,-1437.81,-1717.53
6570,-3.8722,-0.1526,0.6517,1804.93,-672.18,1626.22
6580,-3.8722,-0.1636,0.6490,476.81,-562.81,1344.97
6590,-3.8722,-0.1699,0.6466,-929.44,-906.62,1344.97
6600,-3.8722,-0.1689,0.6465,-1741.94,-1219.12,1563.72
6610,-3.8722,-0.1625,0.6459,-1616.94,-1234.74,1954.35
6620,-3.8722,-0.1542,0.6438,-788.82,-1312.87,-1623.78
6630,-3.8722,-0.1475,0.6412,273.68,-1578.43,-1123.78
6640,-3.8722,-0.1440,0.6384,1133.06,-1906.56,-498.78
6650,-3.8721,-0.1429,0.6359,1570.56,1734.07,126.22
6660,-3.8721,-0.1442,0.6343,1711.18,1405.94,516.85
6670,-3.8721,-0.1483,0.6355,1554.93,1202.82,532.47
6680,-3.8721,-0.1544,0.6383,1023.68,1359.07,219.97
6690,-3.8722,-0.1620,0.6399,242.43,1718.44,-186.28
6700,-3.8722,-0.1704,0.6412,-726.32,1921.51,-623.78
6710,-3.8722,-0.1763,0.6420,-1804.44,-1906.62,-1092.53
6720,-3.8722,-0.1775,0.6417,1445.56,-1812.87,-1420.65
6730,-3.8722,-0.1748,0.6394,1289.31,-1844.12,-1311.28
6740,-3.8722,-0.1700,0.6343,1633.06,1859.01,-764.40
6750,-3.8722,-0.1646,0.6296,-1757.57,1202.76,-217.53
6760,-3.8721,-0.1613,0.6273,-1054.44,609.01,204.35
6770,-3.8721,-0.1611,0.6271,-632.57,312.13,298.10
6780,-3.8722,-0.1632,0.6310,-616.94,280.88,-108.15
6790,-3.8722,-0.1671,0.6389,-882.57,780.88,-701.90
6800,-3.8722,-0.1715,0.6466,-1382.57,1796.51,-1326.90
6810,-3.8722,-0.1750,0.6514,-1945.07,-1219.12,-1873.78
6820,-3.8722,-0.1766,0.6509,1601.81,-609.74,-1936.28
6830,-3.8722,-0.1746,0.6438,1398.68,-672.24,-1498.78
6840,-3.8722,-0.1683,0.6348,1664.31,-1578.49,-780.03
6850,-3.8722,-0.1600,0.6283,-1538.82,1265.26,-61.28
6860,-3.8721,-0.1548,0.6259,-476.32,437.13,344.97
6870,-3.8721,-0.1575,0.6290,195.56,124.69,157.47
6880,-3.8722,-0.1646,0.6367,-148.19,530.88,-483.15
6890,-3.8722,-0.1700,0.6450,-1054.44,1515.26,-1201.90
6900,-3.8722,-0.1714,0.6489,-1757.57,-1422.24,-1780.03
6910,-3.8722,-0.1686,0.6451,-1929.44,-922.24,-1936.28
6920,-3.8722,-0.1617,0.6368,-1570.07,-1406.62,-1483.15
6930,-3.8722,-0.1523,0.6305,-695.07,1530.88,-655.03
6940,-3.8722,-0.1451,0.6292,508.06,718.44,-61.28
6950,-3.8722,-0.1432,0.6339,1429.93,546.57,-92.53
6960,-3.8722,-0.1462,0.6440,1679.93,1155.94,-733.15
6970,-3.8722,-0.1516,0.6538,1289.31,-1547.18,-1514.40
6980,-3.8722,-0.1569,0.6580,601.81,-297.18,1782.47
6990,-3.8722,-0.1614,0.6592,-70.07,234.01,1063.78
7000,-3.8722,-0.1638,0.6615,-648.19,390.26,313.78
7010,-3.8723,-0.1617,0.6628,-960.69,687.13,-342.47
7020,-3.8723,-0.1552,0.6606,-695.07,859.01,-873.72
7030,-3.8723,-0.1483,0.6541,148.68,577.82,-842.47
7040,-3.8722,-0.1465,0.6453,1023.68,-265.93,32.47
7050,-3.8722,-0.1500,0.6390,1258.06,-1390.93,1298.10
7060,-3.8722,-0.1528,0.6399,804.93,1812.19,-1748.78
7070,-3.8722,-0.1515,0.6464,445.56,1921.57,-1420.65
7080,-3.8722,-0.1488,0.6525,617.43,-1250.31,-1795.65
7090,-3.8722,-0.1456,0.6556,961.18,-469.06,1657.47
7100,-3.8722,-0.1423,0.6545,1367.43,-62.81,1516.85
7110,-3.8722,-0.1416,0.6484,1789.31,-203.43,1923.10
7120,-3.8722,-0.1434,0.6399,1883.06,-984.68,-1295.65
7130,-3.8722,-0.1465,0.6345,1648.68,1921.57,-655.03
7140,-3.8722,-0.1495,0.6351,1258.06,1234.07,-467.53
7150,-3.8722,-0.1537,0.6400,867.43,1312.19,-701.90
7160,-3.8722,-0.1609,0.6453,336.18,1937.19,-1045.65
7170,-3.8722,-0.1671,0.6481,-585.69,-1390.99,-1280.03
7180,-3.8722,-0.1667,0.6487,-1382.57,-1031.62,-1530.03
7190,-3.8722,-0.1581,0.6460,-1335.69,-953.49,-1655.03
7200,-3.8722,-0.1443,0.6399,-226.32,-1297.24,-1280.03
7210,-3.8722,-0.1329,0.6353,1539.31,1921.57,-592.53
7220,-3.8722,-0.1311,0.6348,-1007.57,1327.82,-123.78
7230,-3.8722,-0.1372,0.6384,-773.19,1265.32,-155.03
7240,-3.8722,-0.1455,0.6438,-1554.44,1734.07,-545.65
7250,-3.8722,-0.1532,0.6460,1383.06,-1578.43,-1108.15
7260,-3.8722,-0.1587,0.6464,398.68,-1297.18,-1608.15
7270,-3.8722,-0.1587,0.6477,-304.44,-1250.37,-1951.90
7280,-3.8722,-0.1560,0.6478,-304.44,-1078.49,1954.35
7290,-3.8722,-0.1541,0.6458,39.31,-1062.81,-1873.78
7300,-3.8722,-0.1534,0.6415,289.31,-1328.43,-1655.03
7310,-3.8722,-0.1537,0.6365,367.43,-1875.31,-1280.03
7320,-3.8722,-0.1517,0.6340,336.18,1484.07,-811.28
7330,-3.8722,-0.1462,0.6355,586.18,1171.57,-623.78
7340,-3.8722,-0.1421,0.6396,1289.31,1359.07,-889.40
7350,-3.8722,-0.1428,0.6456,1820.56,1890.32,-1420.65
7360,-3.8722,-0.1455,0.6514,1726.81,-1344.06,-1920.65
7370,-3.8722,-0.1481,0.6543,1383.06,-609.68,1657.47
7380,-3.8722,-0.1526,0.6520,1054.93,-234.68,1454.35
7390,-3.8722,-0.1587,0.6450,476.81,-531.56,1735.60
7400,-3.8722,-0.1622,0.6381,-304.44,-1422.24,-1311.28
7410,-3.8722,-0.1608,0.6337,-757.57,1687.13,-186.28
7420,-3.8721,-0.1558,0.6318,-570.07,1124.63,469.97
7430,-3.8721,-0.1500,0.6340,70.56,890.32,454.35
7440,-3.8722,-0.1460,0.6400,804.93,1171.57,-155.03
7450,-3.8722,-0.1460,0.6470,1320.56,1937.19,-1186.28
7460,-3.8722,-0.1509,0.6521,1320.56,-1172.18,1688.72
7470,-3.8722,-0.1565,0.6544,695.56,-515.93,1032.47
7480,-3.8722,-0.1602,0.6525,-23.19,-219.12,1110.60
7490,-3.8722,-0.1663,0.6455,-491.94,-469.12,1610.60
7500,-3.8722,-0.1753,0.6367,-1273.19,-1359.74,-1686.28
7510,-3.8722,-0.1818,0.6295,1570.56,1515.26,-889.40
7520,-3.8722,-0.1815,0.6263,742.43,593.38,-280.03
7530,-3.8721,-0.1729,0.6268,773.68,187.13,1.22
7540,-3.8722,-0.1583,0.6318,1883.06,249.63,-123.78
7550,-3.8722,-0.1461,0.6414,-257.57,890.26,-623.78
7560,-3.8722,-0.1429,0.6497,1304.93,-1890.93,-1389.40
7570,-3.8722,-0.1478,0.6547,1711.18,-828.43,1641.85
7580,-3.8722,-0.1549,0.6582,1086.18,-187.81,1110.60
7590,-3.8722,-0.1604,0.6548,179.93,265.32,1376.28
7600,-3.8722,-0.1635,0.6438,-523.19,-172.24,-1858.15
7610,-3.8722,-0.1649,0.6335,-913.82,-1578.49,-998.78
7620,-3.8722,-0.1647,0.6290,-1101.32,1109.01,-436.28
7630,-3.8722,-0.1636,0.6315,-1070.07,530.88,-373.78
7640,-3.8722,-0.1620,0.6361,-929.44,843.38,-545.65
7650,-3.8722,-0.1593,0.6367,-726.32,1437.13,-545.65
7660,-3.8722,-0.1565,0.6339,-382.57,1515.26,-326.90
7670,-3.8721,-0.1553,0.6306,-23.19,1155.88,110.60
7680,-3.8721,-0.1558,0.6302,133.06,734.07,391.85
7690,-3.8722,-0.1554,0.6355,70.56,687.19,-61.28
7700,-3.8722,-0.1533,0.6448,117.43,1359.07,-951.90
7710,-3.8722,-0.1510,0.6511,383.06,-1453.43,-1561.28
7720,-3.8722,-0.1516,0.6515,679.93,-640.93,-1717.53
7730,-3.8722,-0.1553,0.6472,601.81,-594.06,-1436.28
7740,-3.8722,-0.1580,0.6417,133.06,-1140.93,-998.78
7750,-3.8722,-0.1575,0.6379,-210.69,-1844.12,-733.15
7760,-3.8722,-0.1567,0.6371,-148.19,1671.51,-780.03
7770,-3.8722,-0.1571,0.6385,-54.44,1562.13,-1092.53
7780,-3.8722,-0.1559,0.6412,-101.32,1749.63,-1514.40
7790,-3.8722,-0.1542,0.6414,54.93,-1906.56,-1733.15
7800,-3.8722,-0.1552,0.6389,273.68,-1890.93,-1686.28
7810,-3.8722,-0.1584,0.6385,148.68,1796.57,-1514.40
7820,-3.8722,-0.1599,0.6407,-273.19,1749.63,-1358.15
7830,-3.8722,-0.1577,0.6423,-460.69,-1969.12,-1295.65
7840,-3.8722,-0.1539,0.6412,-179.44,-1765.99,-1155.03
7850,-3.8722,-0.1506,0.6381,304.93,-1906.56,-826.90
7860,-3.8722,-0.1482,0.6340,726.81,1687.19,-514.40
7870,-3.8722,-0.1471,0.6317,1039.31,1171.57,-373.78
7880,-3.8722,-0.1479,0.6323,1179.93,874.69,-373.78
7890,-3.8722,-0.1534,0.6337,1070.56,952.82,-295.65
7900,-3.8722,-0.1617,0.6348,367.43,1124.69,-76.90
7910,-3.8722,-0.1676,0.6359,-695.07,1265.26,-30.03
7920,-3.8722,-0.1698,0.6366,-1445.07,1405.88,-326.90
7930,-3.8722,-0.1670,0.6364,-1726.32,1499.63,-655.03
7940,-3.8722,-0.1611,0.6376,-1366.94,1468.38,-1030.03
7950,-3.8722,-0.1573,0.6427,-616.94,1624.63,-1530.03
7960,-3.8722,-0.1571,0.6460,-132.57,-1719.12,-1701.90
7970,-3.8722,-0.1588,0.6429,-101.32,-1297.24,-1436.28
7980,-3.8722,-0.1604,0.6366,-320.07,-1687.87,-951.90
7990,-3.8722,-0.1609,0.6306,-523.19,1499.63,-373.78
8000,-3.8721,-0.1602,0.6274,-585.69,734.01,32.47
8010,-3.8721,-0.1566,0.6281,-491.94,327.76,110.60
8020,-3.8721,-0.1514,0.6310,-38.82,405.88,110.60
8030,-3.8721,-0.1488,0.6345,633.06,780.94,110.60
8040,-3.8721,-0.1514,0.6356,961.18,1234.07,32.47
8050,-3.8722,-0.1593,0.6343,633.06,1374.69,-155.03
8060,-3.8722,-0.1708,0.6349,-382.57,1202.76,-436.28
8070,-3.8722,-0.1793,0.6393,-1851.32,1280.88,-920.65
8080,-3.8722,-0.1786,0.6458,1054.93,1843.38,-1655.03
8090,-3.8722,-0.1672,0.6509,1148.68,-1328.49,1688.72
8100,-3.8722,-0.1506,0.6522,-1398.19,-672.24,1610.60
8110,-3.8722,-0.1373,0.6490,726.81,-500.31,-1826.90
8120,-3.8722,-0.1350,0.6433,-1570.07,-906.56,-1061.28
8130,-3.8722,-0.1447,0.6384,-1273.19,-1640.93,-483.15
8140,-3.8722,-0.1587,0.6371,1492.43,1734.07,-186.28
8150,-3.8722,-0.1688,0.6393,-304.44,1562.13,-248.78
8160,-3.8722,-0.1730,0.6414,-1601.32,1843.38,-576.90
8170,-3.8722,-0.1714,0.6415,1867.43,-1890.99,-1076.90
8180,-3.8722,-0.1644,0.6410,-1929.44,-1875.37,-1530.03
8190,-3.8722,-0.1554,0.6396,-1038.82,-1937.87,-1748.78
8200,-3.8722,-0.1488,0.6384,117.43,1890.32,-1717.53
8210,-3.8722,-0.1472,0.6398,961.18,1734.07,-1639.40
8220,-3.8722,-0.1515,0.6439,1164.31,1905.94,-1623.78
8230,-3.8722,-0.1609,0.6499,617.43,-1562.81,-1951.90
8240,-3.8722,-0.1720,0.6537,-585.69,-797.24,1423.10
8250,-3.8722,-0.1794,0.6517,1992.43,-312.87,844.97
8260,-3.8722,-0.1776,0.6445,1039.31,-562.87,844.97
8270,-3.8722,-0.1666,0.6365,1273.68,-1484.74,1876.22
8280,-3.8722,-0.1562,0.6293,-1320.07,1484.01,-545.65
8290,-3.8721,-0.1543,0.6240,8.06,562.19,766.85
8300,-3.8721,-0.1580,0.6240,258.06,-109.68,1360.53
8310,-3.8721,-0.1611,0.6305,-210.69,-109.74,1094.91
8320,-3.8721,-0.1616,0.6404,-616.94,718.38,16.85
8330,-3.8722,-0.1528,0.6317,86.18,-1906.56,-1373.78
8340,-3.8722,-0.1550,0.6256,445.56,874.69,-436.28
8350,-3.8721,-0.1603,0.6252,164.31,93.44,329.35
8360,-3.8721,-0.1682,0.6289,-507.57,46.51,563.72
8370,-2.0601,-3.8722,-0.1807,375.00,1398.68,1296.51
8380,-3.8722,-0.1794,0.6506,883.06,-1656.62,1954.35
8390,-3.8722,-0.1742,0.6550,1039.31,-703.49,1266.85
8400,-3.8722,-0.1666,0.6541,1711.18,-140.99,1032.47
8410,-3.8722,-0.1605,0.6478,-1320.07,-265.99,1391.85
8420,-3.8722,-0.1575,0.6407,-538.82,-1062.87,-1905.03
8430,-3.8722,-0.1580,0.6387,-148.19,-1969.12,-1467.53
8440,-3.8722,-0.1616,0.6434,-210.69,1765.26,-1842.53
8450,-3.8722,-0.1650,0.6528,-679.44,-1625.37,985.60
8460,-3.8723,-0.1654,0.6627,-1116.94,-422.24,-233.15
8470,-3.8723,-0.1639,0.6654,-1163.82,843.38,-811.22
8480,-3.8723,-0.1625,0.6582,-976.32,1187.13,-420.59
8490,-3.8722,-0.1620,0.6443,-788.82,265.26,766.91
8500,-3.8722,-0.1628,0.6292,-726.32,-1515.99,-1717.53
8510,-3.8722,-0.1638,0.6201,-835.69,546.51,-295.65
8520,-3.8721,-0.1627,0.6185,-960.69,-609.74,844.91
8530,-3.8721,-0.1588,0.6228,-820.07,-812.87,1501.16
8540,-3.8721,-0.1525,0.6309,-320.07,-265.99,1454.28
8550,-3.8721,-0.1489,0.6387,492.43,765.32,860.60
8560,-3.8721,-0.1520,0.6437,945.56,1765.32,16.85
8570,-3.8722,-0.1588,0.6464,554.93,-1594.06,-951.90
8580,-3.8722,-0.1663,0.6471,-320.07,-1250.37,-1873.78
8590,-3.8722,-0.1693,0.6456,-1273.19,-1156.62,1766.85
8600,-3.8722,-0.1656,0.6416,-1663.82,-1344.12,-1873.78
8610,-3.8722,-0.1592,0.6335,-1195.07,-1859.74,-936.28
8620,-3.8722,-0.1547,0.6260,-366.94,1109.01,-155.03
8630,-3.8721,-0.1539,0.6249,211.18,140.32,126.22
8640,-3.8721,-0.1542,0.6301,304.93,-0.31,79.28
8650,-3.8722,-0.1547,0.6367,273.68,671.57,-123.78
8660,-3.8722,-0.1555,0.6417,211.18,1515.32,-295.65
8670,-3.8722,-0.1570,0.6442,101.81,-1844.06,-405.03
8680,-3.8722,-0.1591,0.6432,-85.69,-1531.62,-639.40
8690,-3.8722,-0.1581,0.6433,-351.32,-1656.62,-1076.90
8700,-3.8722,-0.1526,0.6467,-226.32,-1640.99,-1483.15
8710,-3.8722,-0.1473,0.6500,476.81,-1203.43,-1686.28
8720,-3.8722,-0.1471,0.6497,1148.68,-781.56,-1670.65
8730,-3.8722,-0.1501,0.6453,1179.93,-828.43,-1467.53
8740,-3.8722,-0.1516,0.6400,789.31,-1390.93,-1280.03
8750,-3.8722,-0.1508,0.6346,601.81,1937.19,-1108.15
8760,-3.8722,-0.1520,0.6283,711.18,1249.69,-842.53
8770,-3.8722,-0.1562,0.6246,554.93,437.19,-592.53
8780,-3.8722,-0.1592,0.6256,8.06,-31.56,-264.47
8790,-3.8721,-0.1598,0.6279,-366.94,93.38,1.22
8800,-3.8721,-0.1600,0.6294,-445.07,390.26,63.72
8810,-3.8722,-0.1575,0.6301,-476.32,577.76,-14.40
8820,-3.8722,-0.1506,0.6329,-148.19,671.51,-326.90
8830,-3.8722,-0.1434,0.6383,726.81,1030.94,-576.90
8840,-3.8722,-0.1412,0.6415,1648.68,1718.44,-530.03
8850,-3.8722,-0.1444,0.6401,1929.93,-1875.31,-170.65
8860,-3.8721,-0.1495,0.6356,1523.68,1952.82,423.10
8870,-3.8721,-0.1547,0.6283,867.43,1374.69,1001.22
8880,-3.8721,-0.1583,0.6205,211.18,437.19,1469.97
8890,-3.8721,-0.1588,0.6183,-257.57,-562.87,1766.78
8900,-3.8721,-0.1571,0.6219,-320.07,-844.12,1704.28
8910,-3.8721,-0.1577,0.6285,-101.32,-375.37,1251.16
8920,-3.8721,-0.1630,0.6353,-179.44,468.38,548.10
8930,-3.8722,-0.1677,0.6384,-851.32,1327.76,-217.53
8940,-3.8722,-0.1650,0.6361,-1460.69,1734.01,-670.65
8950,-3.8722,-0.1550,0.6290,-1116.94,1437.13,-514.40
8960,-3.8721,-0.1442,0.6216,164.31,530.94,219.97
8970,-3.8721,-0.1389,0.6188,1554.93,-422.18,844.91
8980,-3.8721,-0.1409,0.6218,-1773.19,-781.56,923.03
8990,-3.8721,-0.1461,0.6290,1976.81,-390.93,501.16
9000,-3.8722,-0.1498,0.6388,1304.93,530.94,-264.40
9010,-3.8722,-0.1532,0.6479,836.18,1780.94,-1108.15
9020,-3.8722,-0.1584,0.6514,398.68,-1047.18,-1811.28
9030,-3.8722,-0.1608,0.6455,-273.19,-609.74,-1733.15
9040,-3.8722,-0.1573,0.6322,-570.07,-1359.74,-701.90
9050,-3.8721,-0.1510,0.6189,-132.57,937.13,766.85
9060,-3.8721,-0.1455,0.6094,679.93,-765.93,-1811.34
9070,-3.8721,-0.1444,0.6058,1383.06,-1984.68,-826.97
9080,-3.8721,-0.1472,0.6096,1523.68,1562.19,-639.47
9090,-3.8721,-0.1525,0.6185,1164.31,-1953.43,-1201.97
9100,-3.8721,-0.1613,0.6285,492.43,-812.81,1876.16
9110,-3.8721,-0.1707,0.6366,-632.57,468.38,844.97
9120,-3.8721,-0.1740,0.6410,-1835.69,1499.63,63.72
9130,-3.8722,-0.1700,0.6396,1742.43,-1937.87,-264.40
9140,-3.8722,-0.1619,0.6342,-1757.57,1890.26,-311.28
9150,-3.8722,-0.1515,0.6299,-710.69,1187.13,-264.40
9160,-3.8722,-0.1405,0.6284,617.43,640.32,-264.40
9170,-3.8722,-0.1312,0.6290,-1976.32,452.82,-233.15
9180,-3.8722,-0.1270,0.6302,-788.82,530.94,-92.53
9190,-3.8721,-0.1292,0.6305,-241.94,687.19,235.60
9200,-3.8721,-0.1370,0.6287,-523.19,718.44,782.47
9210,-3.8721,-0.1461,0.6259,-1523.19,484.07,1251.22
9220,-3.8721,-0.1522,0.6262,1304.93,124.69,1391.85
9230,-3.8721,-0.1552,0.6317,523.68,171.57,1048.10
9240,-3.8721,-0.1583,0.6400,148.68,874.69,157.47
9250,-3.8722,-0.1620,0.6467,-257.57,1937.13,-967.53
9260,-3.8722,-0.1624,0.6492,-726.32,-1203.49,-1858.15
9270,-3.8722,-0.1586,0.6465,-773.19,-890.99,1751.22
9280,-3.8722,-0.1532,0.6400,-288.82,-1234.74,1782.47
9290,-3.8722,-0.1501,0.6339,398.68,1937.19,-1951.90
9300,-3.8722,-0.1510,0.6307,789.31,1155.94,-1639.40
9310,-3.8722,-0.1534,0.6305,679.93,749.69,-1639.40
9320,-3.8722,-0.1538,0.6343,367.43,718.44,-1811.28
9330,-3.8722,-0.1514,0.6390,320.56,1202.82,-1592.53
9340,-3.8722,-0.1497,0.6388,633.06,1812.19,-1076.90
9350,-3.8722,-0.1520,0.6338,851.81,1780.94,-483.15
9360,-3.8721,-0.1566,0.6274,554.93,1140.32,94.97
9370,-3.8721,-0.1592,0.6240,-38.82,327.76,563.72
9380,-3.8721,-0.1578,0.6254,-366.94,-109.74,719.91
9390,-3.8721,-0.1534,0.6296,-195.07,62.13,626.22
9400,-3.8721,-0.1490,0.6324,367.43,609.07,594.97
9410,-3.8721,-0.1472,0.6311,929.93,968.44,813.72
9420,-3.8721,-0.1465,0.6262,1164.31,796.57,1032.47
9430,-3.8721,-0.1444,0.6234,1258.06,171.57,1188.72
9440,-3.8721,-0.1431,0.6228,1523.68,-187.81,1469.91
9450,-3.8721,-0.1479,0.6211,1695.56,-265.93,1594.91
9460,-3.8721,-0.1584,0.6215,1070.56,-484.68,1344.91
9470,-3.8721,-0.1688,0.6267,-273.19,-437.87,829.28
9480,-3.8721,-0.1738,0.6340,-1601.32,234.01,110.60
9490,-3.8722,-0.1708,0.6384,1758.06,1171.51,-608.15
9500,-3.8722,-0.1615,0.6376,-1851.32,1734.01,-780.03
9510,-3.8722,-0.1516,0.6337,-663.82,1624.63,-358.15
9520,-3.8721,-0.1453,0.6304,601.81,1124.69,157.47
9530,-3.8721,-0.1443,0.6307,1414.31,702.82,313.72
9540,-3.8721,-0.1477,0.6328,1539.31,749.69,94.97
9550,-3.8722,-0.1534,0.6337,1101.81,1015.32,-186.28
9560,-3.8722,-0.1606,0.6332,367.43,1124.69,-561.28
9570,-3.8722,-0.1680,0.6316,-554.44,1062.13,-936.28
9580,-3.8722,-0.1708,0.6300,-1491.94,859.01,-920.65
9590,-3.8722,-0.1650,0.6301,-1851.32,655.88,-655.03
9600,-3.8722,-0.1550,0.6315,-1116.94,671.51,-530.03
9610,-3.8722,-0.1495,0.6316,164.31,843.44,-483.15
9620,-3.8722,-0.1511,0.6307,867.43,859.07,-498.78
9630,-3.8722,-0.1547,0.6302,664.31,749.69,-405.03
9640,-3.8722,-0.1559,0.6294,211.18,687.19,-61.28
9650,-3.8721,-0.1547,0.6276,54.93,577.82,391.85
9660,-3.8721,-0.1512,0.6254,211.18,343.44,969.97
9670,-3.8721,-0.1456,0.6241,648.68,62.19,1454.35
9680,-3.8721,-0.1415,0.6238,1367.43,-94.06,1516.78
9690,-3.8721,-0.1411,0.6238,1898.68,-140.93,1423.03
9700,-3.8721,-0.1449,0.6249,1945.56,-140.93,1391.78
9710,-3.8721,-0.1530,0.6263,1461.18,-0.31,1407.41
9720,-3.8721,-0.1624,0.6271,429.93,187.19,1298.10
9730,-3.8721,-0.1693,0.6283,-773.19,280.88,954.35
9740,-3.8721,-0.1725,0.6309,-1663.82,437.13,423.10
9750,-3.8722,-0.1711,0.6337,1929.93,765.26,-92.53
9760,-3.8722,-0.1653,0.6349,-1898.19,1124.63,-545.65
9770,-3.8722,-0.1555,0.6343,-1148.19,1280.88,-983.15
9780,-3.8722,-0.1470,0.6331,101.81,1202.82,-1358.15
9790,-3.8722,-0.1462,0.6331,1195.56,1046.57,-1623.78
9800,-3.8722,-0.1534,0.6343,1289.31,1046.57,-1826.90
9810,-3.8722,-0.1641,0.6370,367.43,1202.82,1938.72
9820,-3.8722,-0.1710,0.6421,-991.94,1546.51,1673.10
9830,-3.8722,-0.1698,0.6453,-1882.57,-1797.24,1641.85
9840,-3.8722,-0.1619,0.6396,-1726.32,-1390.99,-1733.15
9850,-3.8722,-0.1506,0.6249,-710.69,1890.26,-311.28
9860,-3.8721,-0.1412,0.6095,726.81,-0.31,1610.53
9870,-3.8721,-0.1406,0.6008,1929.93,-1969.06,-795.72
9880,-3.8721,-0.1486,0.6033,-1991.94,921.57,-342.59
9890,-3.8721,-0.1598,0.6157,992.43,1234.07,-1108.22
9900,-3.8721,-0.1669,0.6313,-445.07,-1172.24,1626.16
9910,-3.8721,-0.1642,0.6415,-1351.32,827.76,657.47
9920,-3.8721,-0.1536,0.6398,-1007.57,-1875.37,438.72
9930,-3.8721,-0.1403,0.6283,351.81,1905.94,1126.22
9940,-3.8721,-0.1282,0.6150,-1945.07,437.19,-1576.90
9950,-3.8721,-0.1212,0.6071,-398.19,-1265.93,-451.97
9960,-3.8721,-0.1222,0.6086,492.43,1718.51,-45.72
9970,-3.8721,-0.1309,0.6168,367.43,1921.63,-311.34
9980,-3.8721,-0.1444,0.6262,-741.94,-1031.56,-1217.59
9990,-3.8721,-0.1569,0.6345,1523.68,171.57,1423.10
10000,-3.8721,-0.1643,0.6405,-70.07,1234.01,63.72
10010,-3.8722,-0.1665,0.6433,-1023.19,1999.63,-1076.90
10020,-3.8722,-0.1628,0.6437,-1304.44,-1640.99,-1748.78
10030,-3.8722,-0.1532,0.6427,-835.69,-1594.12,-1795.65
10040,-3.8722,-0.1421,0.6382,398.68,-1719.06,-1420.65
