timestamp_ms,ax,ay,az,gx,gy,gz
0,-3.8717,-0.2229,-0.3905,461.18,-1531.74,-1016.48
10,-3.8717,-0.2083,-0.3640,-523.19,-1969.24,202.33
20,-3.8718,-0.2124,-0.3558,1351.81,1421.45,-1453.86
30,-3.8718,-0.2351,-0.3750,820.56,-1531.68,-1031.98
40,-3.8717,-0.2604,-0.4122,1914.31,15.14,1530.52
50,-3.8716,-0.2731,-0.4473,-1320.07,-750.55,1139.77
60,-3.8715,-0.2711,-0.4655,1054.93,-1234.92,45.96
70,-3.8715,-0.2579,-0.4612,1304.93,436.95,983.46
80,-3.8716,-0.2374,-0.4371,-1007.57,983.83,-110.29
90,-3.8716,-0.2180,-0.4059,1617.43,62.01,1827.27
100,-3.8717,-0.2129,-0.3867,101.81,62.07,-94.54
110,-3.8717,-0.2280,-0.3925,758.06,-1484.80,-1125.79
120,-3.8717,-0.2517,-0.4192,-1179.44,1780.76,-594.54
130,-3.8716,-0.2709,-0.4526,-210.69,-1641.17,1530.40
140,-3.8715,-0.2795,-0.4758,1336.18,-1922.42,202.21
150,-3.8715,-0.2750,-0.4764,226.81,-891.17,1702.15
160,-3.8715,-0.2594,-0.4528,804.93,-969.30,1155.27
170,-3.8716,-0.2412,-0.4128,-1195.07,-1938.05,-1219.67
180,-3.8717,-0.2330,-0.3772,1133.06,-828.61,-422.73
190,-3.8717,-0.2386,-0.3660,-1820.07,-266.11,639.83
200,-3.8718,-0.2494,-0.3790,1461.18,1171.39,-1047.61
210,-3.8718,-0.2565,-0.4066,86.18,-500.49,-610.17
220,-3.8717,-0.2566,-0.4362,-820.07,-31.80,1624.15
230,-3.8716,-0.2534,-0.4303,39.31,-1328.61,-1938.42
240,-3.8716,-0.2616,-0.4113,-429.44,936.95,1061.65
250,-3.8717,-0.2665,-0.3997,-1476.32,-625.55,-875.85
260,-3.8717,-0.2653,-0.3998,1898.68,858.83,1483.58
270,-3.8717,-0.2612,-0.4097,-1945.07,843.20,1108.58
280,-3.8717,-0.2563,-0.4218,-1429.44,-422.42,-1907.10
290,-3.8717,-0.2502,-0.4302,-804.44,-1969.30,-453.98
300,-3.8716,-0.2434,-0.4313,-23.19,952.58,592.90
310,-3.8716,-0.2355,-0.4253,851.81,812.01,999.15
320,-3.8716,-0.2292,-0.4169,1867.43,1577.64,952.27
330,-3.8716,-0.2300,-0.4110,-1335.69,-1344.24,389.77
340,-3.8717,-0.2354,-0.4066,-1429.44,-594.24,-719.60
350,-3.8717,-0.2446,-0.4067,1883.06,-31.74,-1375.85
360,-3.8717,-0.2599,-0.4147,695.56,-47.36,-1094.60
370,-3.8717,-0.2773,-0.4261,-1257.57,-1063.05,-375.85
380,-3.8716,-0.2909,-0.4349,508.06,1468.20,92.90
390,-3.8716,-0.2960,-0.4348,-1226.32,343.14,14.77
400,-3.8717,-0.2861,-0.4243,-1882.57,358.76,-453.98
410,-3.8717,-0.2606,-0.4077,-616.94,1702.51,-1063.35
420,-3.8717,-0.2332,-0.3964,-1351.32,-172.42,-1578.98
430,-3.8717,-0.2207,-0.4016,-1835.69,1280.76,-1828.92
440,-3.8717,-0.2267,-0.4180,-241.94,608.89,-1703.92
450,-3.8717,-0.2424,-0.4263,-1007.57,-1484.86,-1235.23
460,-3.8717,-0.2587,-0.4176,976.81,1452.64,-766.48
470,-3.8717,-0.2722,-0.4000,-1101.32,-1438.05,-1047.73
480,-3.8717,-0.2850,-0.3860,1164.31,811.95,1561.71
490,-3.8718,-0.2991,-0.3846,-476.32,-1391.24,-172.67
500,-3.8718,-0.3112,-0.3947,1726.81,-1219.36,-1094.54
510,-3.8717,-0.2864,-0.4259,1304.93,-1719.36,1421.02
520,-3.8717,-0.2753,-0.4203,-648.19,1499.39,1374.15
530,-3.8717,-0.2693,-0.4047,773.68,-1781.80,374.15
540,-3.8718,-0.2649,-0.3864,1539.31,218.20,-1453.92
550,-3.8718,-0.2650,-0.3748,-1898.19,-1438.05,811.71
560,-3.8718,-0.2780,-0.3799,-1913.82,46.33,186.77
570,-3.8718,-0.3008,-0.4010,429.93,-609.92,1108.58
580,-3.8718,-0.3212,-0.4269,1508.06,686.89,-594.54
590,-3.8717,-0.3319,-0.4469,-1101.32,1374.33,-1985.23
600,-3.8717,-0.3330,-0.4572,1523.68,-1188.17,-79.04
610,-3.8716,-0.3287,-0.4572,1383.06,1499.33,655.33
620,-3.8716,-0.3208,-0.4475,1929.93,1499.33,61.58
630,-3.8717,-0.3102,-0.4333,-1054.44,-1266.30,-1266.54
640,-3.8717,-0.3044,-0.4210,304.93,546.26,1467.90
650,-3.8717,-0.3105,-0.4182,1039.31,-1875.61,686.65
660,-3.8717,-0.3257,-0.4264,258.06,-1516.24,483.52
670,-3.8717,-0.3407,-0.4398,-1679.44,1436.83,1264.77
680,-3.8717,-0.3480,-0.4532,398.68,-281.92,-1063.42
690,-3.8716,-0.3468,-0.4596,-538.82,1999.27,264.71
700,-3.8716,-0.3413,-0.4537,-382.57,1186.77,186.58
710,-3.8717,-0.3317,-0.4384,320.56,1936.83,-1454.04
720,-3.8717,-0.3219,-0.4204,1554.93,-94.42,124.08
730,-3.8718,-0.3209,-0.4070,-1195.07,-1797.55,-1828.98
740,-3.8718,-0.3318,-0.4009,-1070.07,-78.80,1296.02
750,-3.8718,-0.3505,-0.4014,1539.31,702.45,1233.58
760,-3.8718,-0.3712,-0.4082,-851.32,639.89,1655.46
770,-3.8718,-0.3903,-0.4249,492.43,-235.11,-1203.98
780,-3.8717,-0.4020,-0.4491,-1945.07,1624.21,655.40
790,-3.8717,-0.3481,-0.4045,836.18,-875.73,-1079.04
800,-3.8717,-0.3376,-0.3684,-554.44,233.64,124.21
810,-3.8718,-0.3411,-0.3542,789.31,858.70,999.27
820,-3.8719,-0.3481,-0.3636,351.81,-1328.80,-1016.36
830,-3.8719,-0.3412,-0.3882,-554.44,1468.02,-610.11
840,-3.8718,-0.3115,-0.4130,336.18,-1672.55,1452.33
850,-3.8718,-0.2708,-0.4253,133.06,-844.36,-657.10
860,-3.8717,-0.2434,-0.4253,1351.81,1577.58,92.90
870,-3.8718,-0.2446,-0.4198,851.81,1577.64,-250.85
880,-3.8718,-0.2706,-0.4144,695.56,-1719.24,-1282.10
890,-3.8718,-0.3038,-0.4104,1367.43,-1031.80,-1969.60
900,-3.8718,-0.3273,-0.4103,1117.43,-516.24,-1360.23
910,-3.8717,-0.3344,-0.4202,-1882.57,-500.67,233.52
920,-3.8717,-0.3273,-0.4402,1211.18,-1766.30,1686.65
930,-3.8717,-0.3126,-0.4586,-1882.57,-328.80,-1735.29
940,-3.8717,-0.2965,-0.4611,-7.57,1311.83,-1985.29
950,-3.8717,-0.2832,-0.4452,-1945.07,999.39,1342.83
960,-3.8717,-0.2765,-0.4226,-241.94,-969.36,420.96
970,-3.8718,-0.2787,-0.4089,617.43,1921.33,-563.35
980,-3.8718,-0.2916,-0.4104,336.18,-328.67,-1313.35
990,-3.8718,-0.3081,-0.4238,-1320.07,-516.24,-1516.48
1000,-3.8718,-0.3119,-0.4407,570.56,1765.01,-1047.73
1010,-3.8718,-0.2968,-0.4503,86.18,-391.24,-141.54
1020,-3.8717,-0.2766,-0.4497,-1976.32,-1625.61,749.08
1030,-3.8717,-0.2701,-0.4404,601.81,-1547.42,842.83
1040,-3.8718,-0.2820,-0.4218,1429.93,-359.92,-110.29
1050,-3.8718,-0.3060,-0.4042,-85.69,-1969.36,-1297.73
1060,-3.8718,-0.3350,-0.4009,836.18,280.64,1811.71
1070,-3.8717,-0.3633,-0.4543,1289.31,483.64,1577.27
1080,-3.8717,-0.3566,-0.4641,1508.06,1858.64,-1172.79
1090,-3.8717,-0.3478,-0.4591,-1632.57,608.64,-844.67
1100,-3.8717,-0.3418,-0.4441,-507.57,1249.27,-1594.67
1110,-3.8717,-0.3413,-0.4286,258.06,-828.80,436.58
1120,-3.8718,-0.3453,-0.4176,320.56,1155.58,-1875.85
1130,-3.8718,-0.3517,-0.4126,-195.07,-1438.23,561.65
1140,-3.8718,-0.3566,-0.4158,-1007.57,-797.61,202.27
1150,-3.8718,-0.3524,-0.4263,-1632.57,-1203.86,842.90
1160,-3.8718,-0.3395,-0.4382,-1101.32,1452.39,-1938.35
1170,-3.8718,-0.3276,-0.4486,554.93,-78.80,-407.17
1180,-3.8717,-0.3253,-0.4561,-1929.44,-1406.92,983.46
1190,-3.8717,-0.3357,-0.4556,-1632.57,1639.95,1217.83
1200,-3.8718,-0.3517,-0.4445,1039.31,1702.45,-172.79
1210,-3.8718,-0.3622,-0.4280,-1007.57,-875.73,1749.08
1220,-3.8718,-0.3601,-0.4167,1648.68,1233.64,358.52
1230,-3.8718,-0.3453,-0.4183,1914.31,-1328.86,374.15
1240,-3.8718,-0.3246,-0.4288,-195.07,-1531.98,1608.52
1250,-3.8718,-0.3066,-0.4386,-1538.82,1124.33,-641.48
1260,-3.8717,-0.2969,-0.4402,758.06,-125.61,639.71
1270,-3.8717,-0.2965,-0.4332,-1991.94,-328.74,467.83
1280,-3.8718,-0.3002,-0.4210,-1945.07,561.89,-1282.10
1290,-3.8718,-0.2991,-0.4132,1586.18,-1875.61,514.77
1300,-3.8719,-0.2931,-0.4139,1726.81,-875.61,-953.98
1310,-3.8719,-0.2887,-0.4164,-1507.57,-969.36,-578.98
1320,-3.8718,-0.2898,-0.4185,-945.07,-1281.86,1702.27
1330,-3.8717,-0.2975,-0.4231,-1085.69,-1547.49,311.65
1340,-3.8717,-0.3062,-0.4309,1929.93,1858.76,1967.90
1350,-3.8717,-0.3077,-0.4410,820.56,858.76,-907.10
1360,-3.8716,-0.3020,-0.4547,617.43,-438.11,452.21
1370,-3.8716,-0.2953,-0.4686,1351.81,1811.89,1608.46
1380,-3.8716,-0.2921,-0.4724,-1788.82,30.64,-1891.54
1390,-3.8716,-0.2969,-0.4633,-1382.57,-453.74,-1891.60
1400,-3.8716,-0.3097,-0.4490,-1991.94,718.14,1467.83
1410,-3.8716,-0.3212,-0.4382,367.43,-1453.74,170.96
1420,-3.8717,-0.3246,-0.4353,-1101.32,-78.80,-1032.17
1430,-3.8717,-0.3235,-0.4384,-1538.82,296.20,-1516.48
1440,-3.8717,-0.3234,-0.4392,-1398.19,-94.42,-1860.29
1450,-3.8717,-0.3242,-0.4293,-1382.57,-203.80,1249.08
1460,-3.8718,-0.3252,-0.4132,-1491.94,1061.83,-188.35
1470,-3.8718,-0.3278,-0.4043,-1616.94,-875.67,1952.27
1480,-3.8718,-0.3273,-0.4058,-1945.07,264.95,514.83
1490,-3.8718,-0.3168,-0.4136,-1882.57,77.45,655.46
1500,-3.8718,-0.3008,-0.4233,-538.82,-922.55,-1891.48
1510,-3.8718,-0.2936,-0.4269,1508.06,1827.51,-469.60
1520,-3.8718,-0.3043,-0.4224,-1570.07,1374.39,-188.35
1530,-3.8718,-0.3247,-0.4149,1054.93,1952.51,-907.10
1540,-3.8718,-0.3375,-0.4104,-1554.44,-1094.42,-1641.48
1550,-3.8718,-0.3357,-0.4131,804.93,-516.30,-1875.85
1560,-3.8718,-0.3240,-0.4202,1039.31,-860.05,-1813.35
1570,-3.8718,-0.3102,-0.4258,-1460.69,-1766.30,-1953.98
1580,-3.8718,-0.3013,-0.4240,304.93,1515.01,1452.27
1590,-3.8718,-0.2993,-0.4149,1445.56,1749.39,499.15
1600,-3.8719,-0.3021,-0.4083,1695.56,-1094.36,-313.35
1610,-3.8719,-0.3092,-0.4115,1336.18,-250.61,-594.60
1620,-3.8719,-0.3177,-0.4181,429.93,-656.86,-157.10
1630,-3.8718,-0.3213,-0.4180,-663.82,-1500.67,780.40
1640,-3.8718,-0.3180,-0.4132,-1116.94,-1485.05,1624.15
1650,-3.8718,-0.3110,-0.4135,-695.07,-875.67,-1797.73
1660,-3.8717,-0.3029,-0.4517,1461.18,-125.61,905.33
1670,-3.8717,-0.3108,-0.4545,1242.43,-1797.49,1374.08
1680,-3.8717,-0.3214,-0.4408,226.81,1843.14,811.58
1690,-3.8718,-0.3304,-0.4191,-1132.57,-406.92,-141.54
1700,-3.8718,-0.3376,-0.4100,1711.18,-1625.67,-688.35
1710,-3.8718,-0.3447,-0.4253,789.31,-469.42,-453.98
1720,-3.8717,-0.3506,-0.4567,-116.94,1577.39,749.15
1730,-3.8717,-0.3503,-0.4856,-866.94,1561.77,-1266.54
1740,-3.8716,-0.3380,-0.4938,-835.69,1858.64,311.52
1750,-3.8716,-0.3158,-0.4779,742.43,811.83,514.65
1760,-3.8717,-0.2952,-0.4512,-413.82,-1156.92,-454.10
1770,-3.8717,-0.2855,-0.4257,-1773.19,-1734.99,1842.83
1780,-3.8717,-0.2892,-0.4110,-538.82,1530.64,217.90
1790,-3.8718,-0.3016,-0.4137,-1007.57,-594.36,-500.85
1800,-3.8718,-0.3102,-0.4297,1398.68,-938.11,-157.10
1810,-3.8717,-0.3057,-0.4480,304.93,1015.01,1139.77
1820,-3.8717,-0.2917,-0.4583,883.06,-1328.74,-1297.79
1830,-3.8717,-0.2767,-0.4543,-1335.69,1358.76,-563.42
1840,-3.8717,-0.2654,-0.4358,586.18,1858.83,-829.04
1850,-3.8717,-0.2611,-0.4126,-1960.69,233.83,-1641.48
1860,-3.8717,-0.2659,-0.3989,-1413.82,-797.42,1483.52
1870,-3.8717,-0.2778,-0.4000,1976.81,952.58,889.83
1880,-3.8717,-0.2908,-0.4091,445.56,811.95,577.33
1890,-3.8717,-0.2982,-0.4170,-1210.69,-344.36,452.27
1900,-3.8717,-0.2964,-0.4209,1836.18,-1359.99,499.15
1910,-3.8717,-0.2839,-0.4180,-1929.44,-1859.99,436.65
1920,-3.8717,-0.2679,-0.4097,-335.69,-1484.99,61.65
1930,-3.8718,-0.2593,-0.4039,1711.18,-422.42,-391.48
1940,-3.8718,-0.2644,-0.4054,-1179.44,311.95,-703.92
1950,-3.8718,-0.2836,-0.4132,-1835.69,124.45,-532.04
1960,-3.8718,-0.3083,-0.4202,-288.82,-875.61,-78.98
1970,-3.8718,-0.3270,-0.4181,539.31,-1766.24,-235.23
1980,-3.8718,-0.3344,-0.4084,-1851.32,-1500.67,-1219.60
1990,-3.8718,-0.3304,-0.3956,1211.18,-266.30,1264.77
2000,-3.8719,-0.3213,-0.3848,1711.18,1374.33,-141.42
2010,-3.8719,-0.3113,-0.3845,-1116.94,-1235.05,-797.67
2020,-3.8719,-0.2992,-0.3973,164.31,-1203.74,-438.29
2030,-3.8718,-0.2910,-0.4176,1711.18,1155.64,1327.33
2040,-3.8717,-0.2931,-0.4366,-1241.94,-1438.11,155.40
2050,-3.8717,-0.3025,-0.4463,-1507.57,124.39,-1188.35
2060,-3.8716,-0.3162,-0.4432,1289.31,-1109.99,92.83
2070,-3.8717,-0.3293,-0.4309,-460.69,-719.42,-157.17
2080,-3.8717,-0.3372,-0.4165,1851.81,858.70,-1547.73
2090,-3.8717,-0.3373,-0.4032,851.81,-1297.55,358.52
2100,-3.8718,-0.3267,-0.3933,836.18,405.58,-1453.92
2110,-3.8718,-0.3076,-0.3918,-1804.44,1671.20,1858.58
2120,-3.8718,-0.2902,-0.3992,633.06,1858.76,-1266.42
2130,-3.8717,-0.2827,-0.4128,-1132.57,921.26,671.08
2140,-3.8717,-0.2866,-0.4299,-179.44,-828.74,-1219.60
2150,-3.8716,-0.2977,-0.4473,-679.44,983.76,639.77
2160,-3.8716,-0.3090,-0.4584,1898.68,-1234.99,1764.71
2170,-3.8716,-0.3149,-0.4570,461.18,1343.14,1842.83
2180,-3.8716,-0.3134,-0.4427,-304.44,1514.95,936.58
2190,-3.8717,-0.3037,-0.4213,-101.32,-656.92,-625.92
2200,-3.8717,-0.2938,-0.4052,1133.06,-1906.86,1749.15
2210,-3.8717,-0.2928,-0.4042,-1601.32,155.64,686.71
2220,-3.8717,-0.2986,-0.4171,-1476.32,280.64,671.08
2230,-3.8717,-0.3025,-0.4359,1789.31,-1375.61,1780.40
2240,-3.8717,-0.2997,-0.4475,1289.31,218.14,-891.48
2250,-3.8717,-0.2930,-0.4432,1648.68,-1266.24,-204.04
2260,-3.8717,-0.2860,-0.4266,-1491.94,-719.36,-563.42
2270,-3.8717,-0.2825,-0.4061,-601.32,1405.64,1733.52
2280,-3.8718,-0.2856,-0.3901,-148.19,30.64,-844.54
2290,-3.8718,-0.2927,-0.3862,-554.44,-1922.49,1030.46
2300,-3.8718,-0.3002,-0.3977,-1460.69,-1422.49,530.46
2310,-3.8718,-0.3029,-0.4193,1586.18,1108.76,1858.58
2320,-3.8717,-0.2983,-0.4404,1242.43,-1656.86,264.77
2330,-3.8717,-0.2936,-0.4542,1820.56,-359.99,-1313.42
2340,-3.8716,-0.2947,-0.4561,-1570.07,1874.39,202.21
2350,-3.8716,-0.3002,-0.4438,-1710.69,1640.01,452.21
2360,-3.8717,-0.3082,-0.4264,1586.18,-797.49,-297.79
2370,-3.8717,-0.3197,-0.4164,554.93,1436.89,-1672.73
2380,-3.8717,-0.3267,-0.4160,-913.82,-1281.92,749.15
2390,-3.8717,-0.3180,-0.4204,-1804.44,-1235.05,14.77
2400,-3.8717,-0.2981,-0.4259,-695.07,-1797.55,577.27
2410,-3.8717,-0.2797,-0.4274,1851.81,1499.39,1436.65
2420,-3.8717,-0.2694,-0.4213,211.18,1311.95,1749.15
2430,-3.8717,-0.2682,-0.4108,1523.68,-1906.80,1249.15
2440,-3.8718,-0.2767,-0.4003,1679.93,-563.05,-157.10
2450,-3.8718,-0.2941,-0.3947,586.18,780.70,-1750.79
2460,-3.8718,-0.3141,-0.3970,-1632.57,1499.39,1577.33
2470,-3.8718,-0.3300,-0.4056,-195.07,1202.45,1780.46
2480,-3.8718,-0.3363,-0.4165,1773.68,93.08,-1532.04
2490,-3.8718,-0.3287,-0.4271,961.18,-1297.55,-47.73
2500,-3.8717,-0.3098,-0.4380,1929.93,1343.08,-1985.23
2510,-3.8717,-0.2878,-0.4496,351.81,-47.49,-125.92
2520,-3.8716,-0.2673,-0.4557,-835.69,-1531.86,983.46
2530,-3.8716,-0.2522,-0.4463,1789.31,1686.95,967.83
2540,-3.8717,-0.2474,-0.4216,-273.19,-1109.92,-547.79
2550,-3.8717,-0.2546,-0.3906,336.18,-1953.61,639.77
2560,-3.8718,-0.2733,-0.3680,-585.69,-1984.92,1905.46
2570,-3.8718,-0.2982,-0.3661,1023.68,905.70,514.89
2580,-3.8718,-0.3173,-0.3848,1836.18,1155.64,811.77
2590,-3.8718,-0.3214,-0.4158,-601.32,-1235.05,-1282.04
2600,-3.8717,-0.3132,-0.4465,-1132.57,-1203.80,1436.65
2610,-3.8717,-0.2976,-0.4646,-85.69,-1141.30,-110.29
2620,-3.8716,-0.2788,-0.4602,1914.31,546.26,1264.71
2630,-3.8716,-0.2656,-0.4355,320.56,1108.83,999.08
2640,-3.8717,-0.2644,-0.4069,-1991.94,265.08,-782.10
2650,-3.8717,-0.2736,-0.3894,-1835.69,-63.05,1030.40
2660,-3.8718,-0.2869,-0.3912,992.43,-1828.67,-110.17
2670,-3.8717,-0.2993,-0.4092,-710.69,1936.89,389.83
2680,-3.8717,-0.3097,-0.4304,1695.56,-359.99,-1907.10
2690,-3.8717,-0.3145,-0.4408,367.43,921.26,-328.98
2700,-3.8717,-0.3101,-0.4354,-241.94,-406.92,-94.67
2710,-3.8717,-0.3019,-0.4209,320.56,280.64,-844.60
2720,-3.8717,-0.2963,-0.4087,1367.43,-1859.99,-1703.98
2730,-3.8717,-0.2932,-0.4056,-1913.82,-297.49,1874.15
2740,-3.8717,-0.2917,-0.4114,-1523.19,93.14,-1875.79
2750,-3.8717,-0.2899,-0.4235,-1335.69,-641.24,-1125.85
2760,-3.8717,-0.2834,-0.4346,-1101.32,1811.89,-32.10
2770,-3.8716,-0.2721,-0.4371,-273.19,390.01,999.15
2780,-3.8716,-0.2643,-0.4340,1179.93,61.95,1327.27
2790,-3.8716,-0.2656,-0.4285,-1820.07,468.20,889.77
2800,-3.8716,-0.2711,-0.4216,-1991.94,1171.33,186.65
2810,-3.8717,-0.2770,-0.4176,1304.93,-1953.67,-578.98
2820,-3.8717,-0.2815,-0.4178,554.93,-1438.05,-1219.60
2830,-3.8717,-0.2826,-0.4210,-23.19,-1469.36,-1094.60
2840,-3.8717,-0.2815,-0.4216,-163.82,-1875.61,-391.48
2850,-3.8716,-0.2794,-0.4154,-23.19,-1953.74,139.77
2860,-3.8717,-0.2748,-0.4094,242.43,-1156.80,-32.10
2870,-3.8717,-0.2690,-0.4139,836.18,-391.17,-594.60
2880,-3.8717,-0.2662,-0.4275,1570.56,-969.30,-828.98
2890,-3.8717,-0.2653,-0.4355,1929.93,1296.33,-500.85
2900,-3.8717,-0.2640,-0.4276,-1945.07,265.08,-250.85
2910,-3.8717,-0.2675,-0.4109,-1788.82,1280.70,-1078.98
2920,-3.8717,-0.2788,-0.3975,1773.68,-578.67,1124.15
2930,-3.8718,-0.2926,-0.3940,320.56,1140.08,-375.79
2940,-3.8718,-0.3020,-0.3995,-1445.07,1577.51,-719.54
2950,-3.8718,-0.3031,-0.4056,1351.81,874.39,-63.29
2960,-3.8717,-0.2979,-0.4104,1211.18,93.14,1014.83
2970,-3.8717,-0.2915,-0.4144,1883.06,-516.24,1749.15
2980,-3.8717,-0.2852,-0.4167,-1304.44,-1031.86,-1985.23
2990,-3.8717,-0.2803,-0.4181,-491.94,-1328.74,1952.27
3000,-3.8717,-0.2812,-0.4191,133.06,-1500.55,1639.77
3010,-3.8717,-0.2872,-0.4166,8.06,-1625.55,1202.27
3020,-3.8717,-0.2952,-0.4075,-757.57,-1313.11,546.02
3030,-3.8718,-0.3021,-0.3955,-1773.19,-141.24,-407.10
3040,-3.8718,-0.3029,-0.3884,1336.18,1390.01,-1203.92
3050,-3.8718,-0.2928,-0.3932,1242.43,-1703.74,-1047.67
3060,-3.8717,-0.2744,-0.4037,-1476.32,1686.89,217.96
3070,-3.8717,-0.2570,-0.4132,883.06,343.20,1764.83
3080,-3.8717,-0.2479,-0.4175,-882.57,-875.55,-1110.23
3090,-3.8717,-0.2491,-0.4103,273.68,-1422.36,-1110.23
3100,-3.8717,-0.2568,-0.3989,117.43,-500.49,-1938.35
3110,-3.8717,-0.2693,-0.3912,-866.94,952.58,1014.83
3120,-3.8717,-0.2858,-0.3888,1539.31,1936.95,139.83
3130,-3.8717,-0.2969,-0.3936,-570.07,-1750.61,233.58
3140,-3.8717,-0.2981,-0.4052,-1991.94,1640.01,1296.08
3150,-3.8717,-0.2961,-0.4203,1851.81,155.64,-1266.42
3160,-3.8716,-0.2941,-0.4316,-1898.19,-1781.86,77.27
3170,-3.8716,-0.2882,-0.4344,-1632.57,765.01,1139.77
3180,-3.8716,-0.2811,-0.4303,-882.57,405.64,1655.40
3190,-3.8716,-0.2799,-0.4252,23.68,936.95,1405.40
3200,-3.8716,-0.2854,-0.4225,179.93,1593.20,624.15
3210,-3.8716,-0.2952,-0.4231,-523.19,1936.89,14.77
3220,-3.8717,-0.3054,-0.4274,-1773.19,1858.76,-157.10
3230,-3.8717,-0.3098,-0.4309,914.31,1311.89,-266.48
3240,-3.8717,-0.3016,-0.4281,351.81,858.76,-563.35
3250,-3.8717,-0.2820,-0.4181,1398.68,1218.14,-1125.85
3260,-3.8717,-0.2631,-0.4033,-85.69,-1500.61,1858.52
3270,-3.8717,-0.2579,-0.3900,-1663.82,390.08,686.71
3280,-3.8718,-0.2701,-0.3862,-1007.57,-1906.80,-328.92
3290,-3.8718,-0.2935,-0.3945,1429.93,-1422.42,-1047.67
3300,-3.8718,-0.3165,-0.4095,-1554.44,1515.01,-1078.92
3310,-3.8718,-0.3282,-0.4248,-507.57,-406.92,-141.48
3320,-3.8717,-0.3185,-0.4337,1992.43,1639.95,1171.02
3330,-3.8717,-0.2878,-0.4316,-757.57,499.33,-1938.35
3340,-3.8717,-0.2524,-0.4200,-835.69,765.01,-1625.85
3350,-3.8717,-0.2303,-0.4027,-304.44,-1750.55,-1813.35
3360,-3.8717,-0.2303,-0.3878,-1476.32,468.26,1421.08
3370,-3.8717,-0.2505,-0.3868,-1476.32,-1625.49,546.08
3380,-3.8717,-0.2776,-0.4026,-54.44,-1500.55,530.46
3390,-3.8717,-0.2965,-0.4246,476.81,483.83,1717.96
3400,-3.8717,-0.3015,-0.4401,-1945.07,1671.26,-625.85
3410,-3.8716,-0.2976,-0.4423,1414.31,-313.11,499.08
3420,-3.8716,-0.2916,-0.4327,1914.31,-594.36,608.46
3430,-3.8717,-0.2842,-0.4158,-1320.07,624.39,-453.98
3440,-3.8717,-0.2721,-0.3998,-366.94,-1203.74,1936.65
3450,-3.8717,-0.2601,-0.3937,1179.93,843.20,764.83
3460,-3.8717,-0.2555,-0.3975,-1288.82,1624.45,499.21
3470,-3.8717,-0.2565,-0.4047,-695.07,1140.08,936.71
3480,-3.8717,-0.2617,-0.4125,-820.07,218.20,1577.33
3490,-3.8717,-0.2717,-0.4197,-1491.94,-781.80,-1844.60
3500,-3.8717,-0.2805,-0.4247,1226.81,-1703.67,-1219.60
3510,-3.8717,-0.2814,-0.4260,101.81,1655.70,-563.35
3520,-3.8717,-0.2781,-0.4246,-7.57,1483.76,-78.98
3530,-3.8717,-0.2776,-0.4225,414.31,1671.33,-47.73
3540,-3.8717,-0.2808,-0.4191,476.81,1936.95,-516.48
3550,-3.8717,-0.2843,-0.4139,70.56,-1625.55,-1141.48
3560,-3.8717,-0.2856,-0.4103,-382.57,-969.36,-1625.85
3570,-3.8717,-0.2837,-0.4122,-554.44,-500.61,-1610.23
3580,-3.8717,-0.2776,-0.4197,-304.44,-750.61,-1016.48
3590,-3.8717,-0.2681,-0.4254,476.81,-1703.67,-375.85
3600,-3.8716,-0.2578,-0.4250,1695.56,1561.95,30.40
3610,-3.8716,-0.2537,-0.4204,-991.94,1608.83,30.40
3620,-3.8717,-0.2622,-0.4153,-460.69,-1797.42,-672.73
3630,-3.8717,-0.2800,-0.4126,-1554.44,-1141.17,-1860.23
3640,-3.8717,-0.2965,-0.4124,164.31,-797.42,1217.90
3650,-3.8717,-0.3042,-0.4143,-1945.07,-766.24,1030.40
3660,-3.8717,-0.3026,-0.4177,1070.56,-1016.24,1358.52
3670,-3.8717,-0.2926,-0.4215,1273.68,-1453.74,-1953.98
3680,-3.8717,-0.2786,-0.4229,-1445.07,-1938.11,-1203.98
3690,-3.8717,-0.2662,-0.4197,351.81,1890.08,-766.48
3700,-3.8717,-0.2615,-0.4166,1929.93,-1703.67,-516.48
3710,-3.8717,-0.2659,-0.4182,-1460.69,-1313.05,-485.23
3720,-3.8717,-0.2729,-0.4227,1976.81,-1516.17,-578.98
3730,-3.8717,-0.2739,-0.4243,1070.56,1905.70,-657.10
3740,-3.8717,-0.2699,-0.4222,945.56,1702.58,-672.73
3750,-3.8717,-0.2697,-0.4220,1461.18,1968.20,-547.73
3760,-3.8717,-0.2783,-0.4247,1492.43,1999.45,-391.48
3770,-3.8717,-0.2921,-0.4264,383.06,1655.70,-328.98
3780,-3.8717,-0.3032,-0.4244,-1382.57,1436.89,-407.10
3790,-3.8717,-0.3069,-0.4200,1195.56,1686.89,-719.60
3800,-3.8717,-0.3024,-0.4171,726.81,-1750.61,-1172.73
3810,-3.8717,-0.2897,-0.4153,1304.93,-1375.61,-1438.35
3820,-3.8717,-0.2717,-0.4111,-1070.07,-1141.24,-1438.35
3830,-3.8717,-0.2572,-0.4047,1226.81,-609.92,-1219.60
3840,-3.8717,-0.2552,-0.4038,-913.82,218.20,-953.92
3850,-3.8717,-0.2666,-0.4142,-663.82,327.58,-813.29
3860,-3.8717,-0.2825,-0.4308,1883.06,-1000.55,-422.73
3870,-3.8716,-0.2917,-0.4426,-148.19,874.39,311.65
3880,-3.8716,-0.2911,-0.4403,-1335.69,-641.24,842.83
3890,-3.8716,-0.2858,-0.4253,-1257.57,-344.36,436.58
3900,-3.8717,-0.2821,-0.4053,-570.07,1577.51,-1282.10
3910,-3.8717,-0.2800,-0.3875,-101.32,140.01,483.58
3920,-3.8718,-0.2755,-0.3767,164.31,-1578.67,-1219.54
3930,-3.8718,-0.2705,-0.3741,742.43,-203.67,1905.46
3940,-3.8718,-0.2671,-0.3824,1383.06,124.45,1921.14
3950,-3.8718,-0.2616,-0.3999,1820.56,-938.05,-1141.42
3960,-3.8717,-0.2555,-0.4193,-1476.32,827.58,842.96
3970,-3.8717,-0.2572,-0.4331,-695.07,-1656.80,-953.98
3980,-3.8716,-0.2721,-0.4365,-913.82,577.58,374.15
3990,-3.8716,-0.2952,-0.4316,1179.93,140.08,546.02
4000,-3.8717,-0.3131,-0.4209,-1773.19,765.01,-16.48
4010,-3.8717,-0.3154,-0.4082,-70.07,-1860.05,-782.10
4020,-3.8717,-0.3021,-0.3995,-366.94,-235.05,-1469.60
4030,-3.8717,-0.2827,-0.3965,1336.18,874.39,1983.58
4040,-3.8717,-0.2687,-0.3973,-179.44,1265.01,1467.96
4050,-3.8717,-0.2650,-0.4017,1617.43,1155.70,1296.08
4060,-3.8717,-0.2704,-0.4092,-1913.82,593.20,1561.71
4070,-3.8717,-0.2775,-0.4160,1398.68,-359.92,1999.15
4080,-3.8717,-0.2792,-0.4180,492.43,-1234.92,-1516.48
4090,-3.8717,-0.2762,-0.4142,273.68,-1484.92,-1032.10
4100,-3.8717,-0.2748,-0.4095,648.68,-1000.55,-766.48
4110,-3.8717,-0.2789,-0.4091,836.18,-406.80,-719.60
4120,-3.8717,-0.2871,-0.4149,304.93,-344.30,-485.23
4130,-3.8717,-0.2963,-0.4226,-741.94,-1094.36,-125.85
4140,-3.8717,-0.3026,-0.4250,-1913.82,1921.26,-94.60
4150,-3.8717,-0.3005,-0.4186,1273.68,1608.76,-516.48
4160,-3.8717,-0.2889,-0.4052,1539.31,-1563.11,-1203.98
4170,-3.8717,-0.2759,-0.3928,-976.32,155.64,1842.96
4180,-3.8717,-0.2701,-0.3882,695.56,1733.83,967.96
4190,-3.8717,-0.2708,-0.3932,1429.93,-1672.42,702.33
4200,-3.8717,-0.2744,-0.4048,1351.81,1686.95,1202.33
4210,-3.8717,-0.2811,-0.4174,883.06,202.58,-1828.92
4220,-3.8717,-0.2889,-0.4259,23.68,-1406.80,-922.73
4230,-3.8717,-0.2925,-0.4274,-976.32,1499.39,-516.48
4240,-3.8717,-0.2906,-0.4196,-1429.44,1311.89,-719.60
4250,-3.8717,-0.2880,-0.4038,-1195.07,-1688.11,-1594.60
4260,-3.8717,-0.2893,-0.3882,-851.32,327.51,1139.83
4270,-3.8718,-0.2963,-0.3817,-1023.19,-1672.49,-157.04
4280,-3.8718,-0.3026,-0.3905,-1913.82,-844.36,-688.29
4290,-3.8717,-0.3008,-0.4121,1273.68,-1969.36,108.58
4300,-3.8717,-0.2894,-0.4340,1508.06,-734.99,-1907.10
4310,-3.8716,-0.2737,-0.4449,-1038.82,468.14,280.40
4320,-3.8716,-0.2639,-0.4404,976.81,-938.05,1420.96
4330,-3.8716,-0.2662,-0.4219,-1773.19,-359.92,1045.96
4340,-3.8717,-0.2766,-0.3958,1929.93,-1984.92,-657.10
4350,-3.8717,-0.2892,-0.3754,601.81,1358.83,936.71
4360,-3.8718,-0.2999,-0.3727,-1007.57,-31.86,-1063.29
4370,-3.8718,-0.3041,-0.3883,1617.43,311.89,-1438.23
4380,-3.8717,-0.3011,-0.4125,1086.18,-1688.11,46.08
4390,-3.8717,-0.2924,-0.4321,1461.18,-781.86,-1735.23
4400,-3.8717,-0.2787,-0.4374,-1413.82,702.51,-110.23
4410,-3.8716,-0.2664,-0.4280,336.18,30.70,389.77
4420,-3.8717,-0.2643,-0.4128,1914.31,1233.83,-141.48
4430,-3.8717,-0.2731,-0.4016,-1820.07,-828.67,-1250.85
4440,-3.8717,-0.2842,-0.3973,1054.93,608.83,1749.21
4450,-3.8717,-0.2900,-0.3999,-366.94,1155.64,1342.96
4460,-3.8717,-0.2883,-0.4088,-1116.94,827.51,1796.08
4470,-3.8717,-0.2827,-0.4197,-898.19,-313.11,-1219.60
4480,-3.8717,-0.2808,-0.4269,-179.44,-1703.74,-328.98
4490,-3.8716,-0.2805,-0.4272,70.56,1374.45,124.15
4500,-3.8716,-0.2766,-0.4200,101.81,1327.58,92.90
4510,-3.8717,-0.2706,-0.4095,601.81,-1750.55,-297.73
4520,-3.8717,-0.2677,-0.4026,1367.43,-406.80,-922.73
4530,-3.8717,-0.2705,-0.4020,1742.43,483.83,-1516.42
4540,-3.8717,-0.2766,-0.4076,1383.06,561.95,-1641.42
4550,-3.8717,-0.2845,-0.4186,601.81,-156.80,-1188.35
4560,-3.8717,-0.2933,-0.4291,-413.82,-1563.11,-453.98
4570,-3.8716,-0.3011,-0.4332,-1538.82,1093.14,202.27
4580,-3.8716,-0.3071,-0.4272,1461.18,561.89,280.40
4590,-3.8717,-0.3082,-0.4127,695.56,1327.51,-578.98
4600,-3.8717,-0.3041,-0.3977,554.93,-813.11,1874.15
4610,-3.8717,-0.2964,-0.3912,1086.18,1108.76,452.33
4620,-3.8718,-0.2864,-0.3949,-1929.44,1936.89,-94.54
4630,-3.8717,-0.2786,-0.4032,-648.19,1468.14,342.96
4640,-3.8717,-0.2753,-0.4132,351.81,405.70,1421.08
4650,-3.8717,-0.2766,-0.4220,773.68,-875.55,-1391.48
4660,-3.8717,-0.2810,-0.4265,601.81,1999.45,-641.48
4670,-3.8717,-0.2838,-0.4244,39.31,1421.33,-422.73
4680,-3.8717,-0.2838,-0.4160,-320.07,1686.89,-625.85
4690,-3.8717,-0.2837,-0.4076,-320.07,-1234.99,-1016.48
4700,-3.8717,-0.2841,-0.4015,-304.44,-156.86,-1672.73
4710,-3.8717,-0.2831,-0.3964,-351.32,624.39,1514.83
4720,-3.8717,-0.2819,-0.3951,-226.32,1280.64,1030.46
4730,-3.8717,-0.2828,-0.4003,-70.07,1436.89,983.58
4740,-3.8717,-0.2844,-0.4098,-195.07,780.64,1499.21
4750,-3.8717,-0.2826,-0.4192,-398.19,-438.11,-1297.73
4760,-3.8717,-0.2772,-0.4238,-163.82,-1641.24,-172.73
4770,-3.8717,-0.2729,-0.4213,523.68,1765.08,-0.85
4780,-3.8717,-0.2728,-0.4126,1070.56,-1906.80,-735.23
4790,-3.8717,-0.2739,-0.4023,1086.18,-797.42,-1703.98
4800,-3.8717,-0.2742,-0.3958,945.56,515.08,1608.58
4810,-3.8717,-0.2754,-0.3964,914.31,1358.83,1514.83
4820,-3.8717,-0.2745,-0.4021,758.06,1280.70,1952.33
4830,-3.8717,-0.2712,-0.4086,867.43,546.33,-1375.79
4840,-3.8717,-0.2723,-0.4160,1289.31,-281.80,-750.85
4850,-3.8717,-0.2788,-0.4230,1148.68,-1234.92,-188.35
4860,-3.8717,-0.2850,-0.4236,320.56,1874.45,-141.48
4870,-3.8717,-0.2872,-0.4143,-476.32,1796.26,-813.35
4880,-3.8717,-0.2861,-0.3999,-757.57,-1016.24,-1735.23
4890,-3.8717,-0.2861,-0.3903,-616.94,827.51,1499.21
4900,-3.8717,-0.2871,-0.3916,-616.94,-1938.11,1061.71
4910,-3.8717,-0.2842,-0.4028,-741.94,1890.01,1311.71
4920,-3.8717,-0.2786,-0.4202,-366.94,452.51,-1516.42
4930,-3.8717,-0.2770,-0.4377,351.81,-1766.17,-16.48
4940,-3.8716,-0.2814,-0.4452,554.93,-16.17,983.46
4950,-3.8716,-0.2885,-0.4341,-7.57,-969.36,686.58
4960,-3.8717,-0.2924,-0.4067,-913.82,452.51,-985.23
4970,-3.8717,-0.2902,-0.3781,-1413.82,-47.49,858.52
4980,-3.8718,-0.2867,-0.3657,-1132.57,-375.61,-828.92
4990,-3.8718,-0.2865,-0.3766,-695.07,1202.51,-1375.73
5000,-3.8718,-0.2852,-0.4021,-663.82,-188.11,-172.67
5010,-3.8717,-0.2795,-0.4293,-491.94,546.26,-1610.17
5020,-3.8716,-0.2726,-0.4458,226.81,1061.95,764.77
5030,-3.8716,-0.2668,-0.4432,1117.43,-1047.42,1889.71
5040,-3.8716,-0.2635,-0.4237,1851.81,-719.30,1420.96
5050,-3.8717,-0.2635,-0.3981,-1726.32,1780.70,-375.85
5060,-3.8717,-0.2708,-0.3805,-1726.32,1061.95,1483.58
5070,-3.8718,-0.2856,-0.3784,1351.81,-688.05,-172.67
5080,-3.8718,-0.2961,-0.3899,-554.44,-422.49,-500.79
5090,-3.8717,-0.2917,-0.4088,-1898.19,-1891.24,780.46
5100,-3.8717,-0.2742,-0.4259,-1335.69,-313.11,-1188.35
5110,-3.8716,-0.2522,-0.4323,914.31,1499.45,546.02
5120,-3.8716,-0.2366,-0.4233,-273.19,686.95,1233.52
5130,-3.8716,-0.2323,-0.4054,1726.81,1827.64,546.02
5140,-3.8717,-0.2388,-0.3888,-1726.32,124.51,-1297.67
5150,-3.8717,-0.2566,-0.3809,1445.56,-1750.49,561.71
5160,-3.8718,-0.2802,-0.3861,-835.69,-734.92,-453.92
5170,-3.8717,-0.2977,-0.4010,148.68,-1406.80,202.33
5180,-3.8717,-0.3020,-0.4178,1898.68,686.89,1983.58
5190,-3.8717,-0.2926,-0.4305,1351.81,-1469.36,-125.85
5200,-3.8716,-0.2762,-0.4329,-1445.07,905.64,1030.40
5210,-3.8716,-0.2629,-0.4235,648.68,608.83,1233.52
5220,-3.8716,-0.2616,-0.4094,-1648.19,1811.95,483.52
5230,-3.8717,-0.2747,-0.3983,-1476.32,-391.17,-1344.60
5240,-3.8717,-0.2950,-0.3934,851.81,1030.70,546.08
5250,-3.8718,-0.3077,-0.3972,-1757.57,1655.64,-328.92
5260,-3.8717,-0.3041,-0.4109,617.43,1171.26,577.33
5270,-3.8717,-0.2877,-0.4293,1086.18,-578.74,-1532.10
5280,-3.8716,-0.2682,-0.4414,-820.07,1061.89,374.15
5290,-3.8716,-0.2565,-0.4392,1679.93,-484.92,1483.46
5300,-3.8716,-0.2594,-0.4263,-820.07,-203.67,1405.33
5310,-3.8716,-0.2740,-0.4137,-1195.07,1452.58,421.02
5320,-3.8717,-0.2928,-0.4092,929.93,-938.05,-594.60
5330,-3.8717,-0.3081,-0.4126,-1476.32,-359.99,-844.60
5340,-3.8717,-0.3131,-0.4186,570.56,-797.49,-485.23
5350,-3.8716,-0.3065,-0.4243,-70.07,-1563.17,14.77
5360,-3.8716,-0.2917,-0.4299,773.68,1702.51,311.65
5370,-3.8716,-0.2726,-0.4320,-1335.69,983.76,389.77
5380,-3.8716,-0.2552,-0.4299,1117.43,718.20,436.65
5390,-3.8716,-0.2488,-0.4247,-663.82,983.83,311.65
5400,-3.8717,-0.2555,-0.4186,164.31,1655.76,-0.85
5410,-3.8717,-0.2699,-0.4141,-695.07,-1563.05,-485.23
5420,-3.8717,-0.2830,-0.4114,1461.18,-984.92,-1016.48
5430,-3.8717,-0.2887,-0.4084,-210.69,-641.24,-1532.10
5440,-3.8717,-0.2891,-0.4053,-945.07,-266.24,-1797.73
5450,-3.8717,-0.2885,-0.4056,-991.94,140.01,-1657.04
5460,-3.8717,-0.2877,-0.4099,-913.82,93.14,-1485.17
5470,-3.8717,-0.2864,-0.4147,-820.07,-453.74,-1500.85
5480,-3.8717,-0.2836,-0.4180,-648.19,-1063.11,-1422.73
5490,-3.8717,-0.2781,-0.4169,-288.82,-1484.99,-1141.48
5500,-3.8717,-0.2682,-0.4097,414.31,-1344.30,-1125.85
5510,-3.8717,-0.2577,-0.4008,1679.93,-422.42,-1672.73
5520,-3.8717,-0.2554,-0.3967,-976.32,718.20,1780.46
5530,-3.8717,-0.2637,-0.3998,-679.44,1233.83,1842.96
5540,-3.8717,-0.2773,-0.4065,-1741.94,843.20,-1969.54
5550,-3.8717,-0.2887,-0.4127,508.06,-16.17,-1922.73
5560,-3.8717,-0.2917,-0.4137,-945.07,-813.11,1921.02
5570,-3.8717,-0.2867,-0.4084,-1335.69,-938.11,1561.65
5580,-3.8717,-0.2784,-0.4017,-695.07,-266.24,1421.02
5590,-3.8717,-0.2714,-0.3973,367.43,593.20,1311.71
5600,-3.8717,-0.2670,-0.3977,1273.68,1155.70,1139.83
5610,-3.8717,-0.2659,-0.4028,1836.18,1108.83,1280.46
5620,-3.8717,-0.2679,-0.4104,1976.81,452.58,1905.46
5630,-3.8717,-0.2726,-0.4158,1711.18,-516.17,-1422.73
5640,-3.8717,-0.2764,-0.4159,1117.43,-1203.67,-1235.23
5650,-3.8717,-0.2775,-0.4141,633.06,-1219.30,-1532.10
5660,-3.8717,-0.2781,-0.4113,492.43,-984.92,-1891.48
5670,-3.8717,-0.2793,-0.4038,414.31,-625.55,1749.15
5680,-3.8717,-0.2792,-0.3927,258.06,327.58,1108.58
5690,-3.8717,-0.2743,-0.3862,273.68,1749.45,342.96
5700,-3.8717,-0.2649,-0.3927,898.68,-1422.42,108.58
5710,-3.8717,-0.2579,-0.4114,-1898.19,1749.45,1092.96
5720,-3.8717,-0.2584,-0.4299,-1007.57,-641.17,-1110.23
5730,-3.8716,-0.2646,-0.4379,-1070.07,983.83,686.65
5740,-3.8716,-0.2725,-0.4354,-1866.94,-31.80,1655.33
5750,-3.8716,-0.2786,-0.4279,1133.06,280.70,1374.15
5760,-3.8716,-0.2822,-0.4186,351.81,1249.45,421.02
5770,-3.8717,-0.2843,-0.4080,-116.94,-1563.11,-672.73
5780,-3.8717,-0.2842,-0.3984,-382.57,-203.74,-1688.35
5790,-3.8717,-0.2806,-0.3975,-366.94,1015.01,1702.33
5800,-3.8717,-0.2754,-0.4099,86.18,1140.08,1842.96
5810,-3.8717,-0.2750,-0.4291,758.06,-453.67,-1125.85
5820,-3.8716,-0.2820,-0.4432,804.93,1093.20,546.02
5830,-3.8716,-0.2905,-0.4463,-85.69,-719.36,1874.08
5840,-3.8716,-0.2949,-0.4396,-1179.44,-1109.99,1905.33
5850,-3.8716,-0.2959,-0.4286,-1741.94,-250.61,811.58
5860,-3.8717,-0.2950,-0.4120,-1866.94,1155.64,-875.85
5870,-3.8717,-0.2898,-0.3885,-1757.57,-719.36,1046.02
5880,-3.8718,-0.2797,-0.3702,-1085.69,-1719.36,-1000.79
5890,-3.8718,-0.2706,-0.3734,211.18,624.45,1843.02
5900,-3.8718,-0.2661,-0.3994,1367.43,218.20,-1469.48
5910,-3.8717,-0.2671,-0.4305,1945.56,890.08,983.58
5920,-3.8717,-0.2739,-0.4467,1820.56,905.70,-203.98
5930,-3.8716,-0.2822,-0.4431,945.56,-1156.80,1342.83
5940,-3.8716,-0.2888,-0.4283,-116.94,-703.74,952.21
5950,-3.8717,-0.2911,-0.4094,-960.69,1186.89,-922.73
5960,-3.8717,-0.2880,-0.3914,-1257.57,-391.24,921.02
5970,-3.8718,-0.2817,-0.3806,-851.32,1921.26,-469.54
5980,-3.8718,-0.2737,-0.3833,-54.44,-703.74,-719.54
5990,-3.8718,-0.2638,-0.4001,976.81,-1047.42,-16.42
6000,-3.8717,-0.2565,-0.4240,-1757.57,796.33,1530.46
6010,-3.8717,-0.2528,-0.4420,-820.07,1749.45,-219.60
6020,-3.8716,-0.2489,-0.4453,-351.32,-563.05,1702.21
6030,-3.8716,-0.2468,-0.4335,148.68,-984.86,-1907.17
6040,-3.8716,-0.2533,-0.4155,414.31,530.76,905.40
6050,-3.8717,-0.2693,-0.4020,-413.82,-1172.42,-719.60
6060,-3.8717,-0.2869,-0.3958,1539.31,561.95,-1797.67
6070,-3.8717,-0.2965,-0.3965,-710.69,1358.76,1796.08
6080,-3.8717,-0.2911,-0.4021,-1945.07,1265.01,1889.83
6090,-3.8717,-0.2708,-0.4109,-1257.57,546.26,-1610.17
6100,-3.8717,-0.2451,-0.4219,1351.81,-578.67,-907.10
6110,-3.8717,-0.2295,-0.4307,633.06,-1984.86,-0.85
6120,-3.8716,-0.2328,-0.4323,-1366.94,890.14,936.65
6130,-3.8716,-0.2499,-0.4230,-1788.82,687.01,999.15
6140,-3.8716,-0.2689,-0.4093,23.68,1874.51,155.40
6150,-3.8717,-0.2836,-0.4038,1586.18,-375.55,-844.60
6160,-3.8717,-0.2914,-0.4066,-288.82,327.51,-1313.29
6170,-3.8717,-0.2896,-0.4117,-1288.82,-31.86,-1219.60
6180,-3.8717,-0.2806,-0.4155,-1054.44,-688.11,-1000.85
6190,-3.8717,-0.2720,-0.4186,86.18,-1172.42,-860.23
6200,-3.8717,-0.2649,-0.4210,1195.56,-1563.05,-813.35
6210,-3.8717,-0.2562,-0.4203,-1898.19,-1875.55,-750.85
6220,-3.8717,-0.2507,-0.4177,-788.82,-1781.80,-860.23
6230,-3.8717,-0.2540,-0.4146,-85.69,-1453.67,-1172.73
6240,-3.8717,-0.2648,-0.4133,-507.57,-1047.42,-1485.23
6250,-3.8717,-0.2766,-0.4137,-1882.57,-891.17,-1688.35
6260,-3.8717,-0.2844,-0.4122,601.81,-938.05,-1735.23
6270,-3.8717,-0.2881,-0.4077,-398.19,-750.61,-1719.60
6280,-3.8717,-0.2887,-0.4034,-866.94,-172.49,-1953.98
6290,-3.8717,-0.2850,-0.4034,-945.07,374.39,1733.58
6300,-3.8717,-0.2769,-0.4100,-476.32,374.39,1717.96
6310,-3.8717,-0.2695,-0.4211,570.56,-469.30,-1672.73
6320,-3.8717,-0.2677,-0.4314,1508.06,-1891.17,-625.85
6330,-3.8716,-0.2687,-0.4347,1742.43,796.33,155.40
6340,-3.8716,-0.2660,-0.4264,1617.43,374.45,233.52
6350,-3.8717,-0.2593,-0.4105,1961.18,1436.95,-469.60
6360,-3.8717,-0.2560,-0.3975,-1179.44,-531.80,-1657.10
6370,-3.8717,-0.2623,-0.3934,-757.57,1140.08,1217.96
6380,-3.8717,-0.2733,-0.3987,-1570.07,1655.70,905.46
6390,-3.8717,-0.2800,-0.4114,1023.68,983.83,1702.33
6400,-3.8717,-0.2792,-0.4274,164.31,-641.17,-844.60
6410,-3.8716,-0.2736,-0.4392,273.68,1311.95,717.90
6420,-3.8716,-0.2678,-0.4424,992.43,-203.67,1983.46
6430,-3.8716,-0.2605,-0.4393,1726.81,-609.92,-1485.29
6440,-3.8716,-0.2499,-0.4315,-1335.69,-219.30,-1719.67
6450,-3.8716,-0.2413,-0.4192,23.68,780.76,1467.90
6460,-3.8716,-0.2424,-0.4072,1117.43,-1641.11,233.52
6470,-3.8717,-0.2540,-0.4014,976.81,-109.86,-1110.23
6480,-3.8717,-0.2694,-0.4026,-507.57,640.08,1842.96
6490,-3.8717,-0.2792,-0.4081,1523.68,483.83,1530.46
6500,-3.8717,-0.2787,-0.4121,273.68,-219.30,1811.65
6510,-3.8717,-0.2719,-0.4121,336.18,-734.92,-1813.35
6520,-3.8717,-0.2622,-0.4131,1211.18,-734.92,-1453.98
6530,-3.8717,-0.2523,-0.4181,-1554.44,-859.92,-1016.48
6540,-3.8717,-0.2482,-0.4241,-288.82,-1500.55,-344.60
6550,-3.8716,-0.2549,-0.4272,242.43,1733.89,577.27
6560,-3.8716,-0.2700,-0.4275,-616.94,1327.58,1311.65
6570,-3.8716,-0.2853,-0.4281,1445.56,1296.33,1499.15
6580,-3.8716,-0.2911,-0.4310,-507.57,1218.14,1327.27
6590,-3.8716,-0.2869,-0.4305,-1257.57,843.14,889.77
6600,-3.8716,-0.2795,-0.4213,-710.69,905.64,14.77
6610,-3.8717,-0.2716,-0.4045,226.81,-1906.80,-1563.35
6620,-3.8717,-0.2614,-0.3872,1242.43,233.83,405.46
6630,-3.8718,-0.2517,-0.3789,-1445.07,-1547.42,-1141.42
6640,-3.8718,-0.2469,-0.3851,-210.69,-484.92,-1266.42
6650,-3.8718,-0.2484,-0.4026,398.68,-1281.74,-0.79
6660,-3.8717,-0.2557,-0.4211,211.18,483.89,1952.33
6670,-3.8717,-0.2645,-0.4326,-726.32,-1891.17,-313.35
6680,-3.8716,-0.2734,-0.4347,-1851.32,640.08,530.40
6690,-3.8716,-0.2812,-0.4268,1008.06,374.45,499.15
6700,-3.8717,-0.2836,-0.4121,8.06,1390.08,-313.35
6710,-3.8717,-0.2797,-0.3990,-288.82,-734.99,-1563.35
6720,-3.8717,-0.2733,-0.3953,211.18,936.95,1186.71
6730,-3.8717,-0.2692,-0.4010,1023.68,1421.33,467.96
6740,-3.8717,-0.2692,-0.4089,1554.93,686.95,733.58
6750,-3.8717,-0.2711,-0.4138,1554.93,-328.67,1811.65
6760,-3.8717,-0.2729,-0.4176,1304.93,-953.67,-1047.73
6770,-3.8717,-0.2753,-0.4232,1070.56,-1438.05,-344.60
6780,-3.8716,-0.2775,-0.4291,773.68,1843.20,171.02
6790,-3.8716,-0.2781,-0.4315,492.43,1093.20,577.27
6800,-3.8716,-0.2765,-0.4292,414.31,780.70,608.52
6810,-3.8716,-0.2760,-0.4243,617.43,1077.58,155.40
6820,-3.8717,-0.2788,-0.4194,679.93,1702.58,-469.60
6830,-3.8717,-0.2816,-0.4130,320.56,-1672.42,-1078.98
6840,-3.8717,-0.2814,-0.4048,-38.82,-844.36,-1641.48
6850,-3.8717,-0.2787,-0.4011,-7.57,202.51,1983.58
6860,-3.8717,-0.2733,-0.4062,336.18,671.33,-1891.42
6870,-3.8717,-0.2638,-0.4183,1023.68,15.08,-1032.04
6880,-3.8716,-0.2531,-0.4301,-1757.57,-1531.80,171.02
6890,-3.8716,-0.2487,-0.4335,-382.57,968.20,889.77
6900,-3.8716,-0.2570,-0.4241,179.93,530.76,483.52
6910,-3.8717,-0.2753,-0.4044,-882.57,1733.83,-953.98
6920,-3.8717,-0.2948,-0.3859,773.68,249.45,1202.33
6930,-3.8718,-0.3073,-0.3807,-1726.32,-1375.61,-110.17
6940,-3.8718,-0.3101,-0.3938,679.93,-719.36,-78.92
6950,-3.8717,-0.3055,-0.4187,320.56,1608.76,1671.08
6960,-3.8716,-0.2937,-0.4431,898.68,-1578.74,139.77
6970,-3.8716,-0.2777,-0.4563,-1585.69,-703.74,1920.96
6980,-3.8716,-0.2633,-0.4519,461.18,1608.83,-1485.29
6990,-3.8716,-0.2557,-0.4333,-1695.07,-1828.67,1905.33
7000,-3.8716,-0.2574,-0.4100,-726.32,546.33,186.65
7010,-3.8717,-0.2678,-0.3906,-945.07,-469.30,1999.15
7020,-3.8717,-0.2833,-0.3822,1726.81,-1984.92,374.21
7030,-3.8718,-0.2966,-0.3873,-257.57,-906.86,-391.42
7040,-3.8718,-0.2998,-0.3993,-1960.69,-1563.11,-422.67
7050,-3.8717,-0.2904,-0.4102,1633.06,905.64,436.71
7060,-3.8717,-0.2767,-0.4172,-1163.82,-484.99,1702.27
7070,-3.8717,-0.2677,-0.4196,586.18,-1391.17,-1360.23
7080,-3.8717,-0.2649,-0.4175,1742.43,-1688.05,-891.48
7090,-3.8717,-0.2662,-0.4146,-1898.19,-1422.42,-938.35
7100,-3.8717,-0.2686,-0.4132,1929.93,-1047.42,-1282.10
7110,-3.8717,-0.2681,-0.4105,1633.06,-875.55,-1516.48
7120,-3.8717,-0.2648,-0.4058,1695.56,-531.80,-1516.48
7130,-3.8717,-0.2633,-0.4014,-1882.57,77.58,-1438.29
7140,-3.8717,-0.2670,-0.4020,-1695.07,640.08,-1360.17
7150,-3.8717,-0.2758,-0.4098,1836.18,561.95,-1032.04
7160,-3.8717,-0.2839,-0.4193,711.18,-438.05,-375.85
7170,-3.8716,-0.2847,-0.4238,-335.69,-1656.86,436.65
7180,-3.8716,-0.2780,-0.4222,-429.44,1765.01,858.52
7190,-3.8716,-0.2701,-0.4172,429.93,1968.20,717.90
7200,-3.8716,-0.2655,-0.4119,1429.93,-1391.17,202.27
7210,-3.8717,-0.2625,-0.4071,-1976.32,-703.67,-578.98
7220,-3.8717,-0.2617,-0.4031,-1585.69,-94.30,-1328.98
7230,-3.8717,-0.2662,-0.3994,-1491.94,421.33,-1922.67
7240,-3.8717,-0.2734,-0.3956,1929.93,890.08,1639.83
7250,-3.8717,-0.2780,-0.3961,1008.06,1374.45,1717.96
7260,-3.8717,-0.2765,-0.4034,429.93,1311.95,-1766.42
7270,-3.8717,-0.2711,-0.4142,617.43,374.45,-1078.92
7280,-3.8717,-0.2679,-0.4220,1304.93,-1000.55,-328.98
7290,-3.8717,-0.2700,-0.4208,1711.18,1999.45,-47.73
7300,-3.8717,-0.2745,-0.4108,1445.56,-1844.30,-625.85
7310,-3.8717,-0.2780,-0.3981,867.43,-563.05,-1610.23
7320,-3.8717,-0.2791,-0.3915,429.93,1061.95,1655.46
7330,-3.8717,-0.2767,-0.3955,289.31,1905.70,1577.33
7340,-3.8717,-0.2716,-0.4033,586.18,1390.08,-1844.54
7350,-3.8717,-0.2671,-0.4093,1242.43,390.08,-907.04
7360,-3.8717,-0.2648,-0.4117,1820.56,-375.55,-297.73
7370,-3.8717,-0.2625,-0.4094,-1882.57,-688.05,-375.85
7380,-3.8717,-0.2627,-0.4023,-1585.69,-391.17,-985.23
7390,-3.8717,-0.2684,-0.3926,-1616.94,515.08,-1953.92
7400,-3.8717,-0.2751,-0.3849,1648.68,1765.08,1030.46
7410,-3.8717,-0.2766,-0.3871,789.31,-1250.55,624.21
7420,-3.8717,-0.2749,-0.4016,601.81,-1531.80,1327.33
7430,-3.8717,-0.2742,-0.4188,820.56,608.83,-1047.67
7440,-3.8716,-0.2729,-0.4260,914.31,-1594.30,530.40
7450,-3.8716,-0.2695,-0.4199,1070.56,1483.83,999.15
7460,-3.8716,-0.2649,-0.4061,1508.06,-1734.92,311.65
7470,-3.8717,-0.2623,-0.3920,-1898.19,30.70,-969.54
7480,-3.8717,-0.2651,-0.3837,-1570.07,1843.20,1671.08
7490,-3.8717,-0.2711,-0.3831,-1929.44,-1094.30,733.58
7500,-3.8717,-0.2738,-0.3906,1304.93,-1016.17,639.83
7510,-3.8717,-0.2725,-0.4053,961.18,-1984.92,1499.21
7520,-3.8717,-0.2714,-0.4185,1133.06,140.08,-1110.17
7530,-3.8716,-0.2704,-0.4233,1273.68,-1547.42,155.40
7540,-3.8716,-0.2683,-0.4221,1398.68,1827.58,842.90
7550,-3.8716,-0.2678,-0.4189,1664.31,1983.83,1046.02
7560,-3.8716,-0.2722,-0.4149,1726.81,-1609.92,1014.77
7570,-3.8716,-0.2800,-0.4092,1164.31,-1094.30,577.27
7580,-3.8717,-0.2855,-0.4030,164.31,-359.92,-297.73
7590,-3.8717,-0.2842,-0.4016,-538.82,436.89,-1172.67
7600,-3.8717,-0.2773,-0.4069,-366.94,608.76,-1422.67
7610,-3.8717,-0.2704,-0.4132,508.06,-63.05,-1000.85
7620,-3.8717,-0.2654,-0.4165,1398.68,-875.55,-469.60
7630,-3.8717,-0.2612,-0.4188,-1960.69,-1297.42,-63.35
7640,-3.8716,-0.2605,-0.4240,-1429.44,-1594.30,311.65
7650,-3.8716,-0.2649,-0.4282,-1335.69,1749.45,686.65
7660,-3.8716,-0.2717,-0.4233,-1898.19,1202.58,733.52
7670,-3.8717,-0.2776,-0.4097,1226.81,1827.58,-94.60
7680,-3.8717,-0.2822,-0.3984,476.81,-422.42,-1500.85
7690,-3.8717,-0.2850,-0.3969,-116.94,1015.01,1592.96
7700,-3.8717,-0.2808,-0.4048,-476.32,1218.14,1796.08
7710,-3.8717,-0.2690,-0.4169,70.56,202.58,-1047.67
7720,-3.8716,-0.2605,-0.4291,1570.56,-1344.30,467.90
7730,-3.8716,-0.2649,-0.4359,-1335.69,1093.20,1639.77
7740,-3.8716,-0.2762,-0.4331,-1898.19,218.20,1905.40
7750,-3.8716,-0.2819,-0.4215,648.68,577.58,1155.40
7760,-3.8717,-0.2791,-0.4062,-70.07,-1938.11,-328.98
7770,-3.8717,-0.2755,-0.3916,289.31,15.08,-1922.67
7780,-3.8717,-0.2761,-0.3812,742.43,1890.08,686.71
7790,-3.8718,-0.2793,-0.3818,664.31,-781.80,-47.67
7800,-3.8717,-0.2802,-0.3960,258.06,-859.92,342.96
7810,-3.8717,-0.2748,-0.4171,148.68,1327.58,1686.71
7820,-3.8717,-0.2625,-0.4342,836.18,-1375.55,-407.10
7830,-3.8716,-0.2495,-0.4388,-1585.69,436.95,1249.15
7840,-3.8716,-0.2455,-0.4310,70.56,-156.74,1749.08
7850,-3.8716,-0.2516,-0.4153,586.18,843.26,842.90
7860,-3.8717,-0.2631,-0.3954,-195.07,-1141.17,-1063.35
7870,-3.8717,-0.2742,-0.3772,-1663.82,1405.70,749.21
7880,-3.8718,-0.2820,-0.3683,914.31,-266.17,-907.04
7890,-3.8718,-0.2892,-0.3751,-85.69,874.39,-1360.11
7900,-3.8718,-0.2965,-0.3972,-1007.57,-0.61,-375.79
7910,-3.8717,-0.2981,-0.4243,-1945.07,1171.26,1686.71
7920,-3.8716,-0.2893,-0.4457,1851.81,1702.51,108.52
7930,-3.8716,-0.2744,-0.4526,-1023.19,-1031.86,1983.46
7940,-3.8716,-0.2628,-0.4412,883.06,-1922.42,-1688.42
7950,-3.8716,-0.2614,-0.4155,-1632.57,-453.67,967.83
7960,-3.8717,-0.2684,-0.3884,-1445.07,-1172.42,-1485.23
7970,-3.8717,-0.2805,-0.3739,1648.68,-1703.67,217.96
7980,-3.8718,-0.2932,-0.3796,101.81,155.70,-516.36
7990,-3.8717,-0.3025,-0.4028,-1523.19,-578.74,514.83
8000,-3.8717,-0.3054,-0.4307,1289.31,452.51,-1297.67
8010,-3.8716,-0.2979,-0.4479,914.31,890.01,921.02
8020,-3.8716,-0.2808,-0.4473,1883.06,-1313.11,-1875.92
8030,-3.8716,-0.2589,-0.4318,70.56,-1234.92,1764.71
8040,-3.8716,-0.2405,-0.4077,-1132.57,749.45,14.77
8050,-3.8717,-0.2371,-0.3846,1226.81,-172.36,1592.90
8060,-3.8718,-0.2534,-0.3723,1664.31,-1219.24,-657.04
8070,-3.8718,-0.2798,-0.3730,-429.44,358.83,-1766.36
8080,-3.8718,-0.3036,-0.3900,195.56,265.08,-1141.36
8090,-3.8717,-0.3177,-0.4188,1148.68,-1906.86,905.46
8100,-3.8717,-0.3215,-0.4435,-663.82,-1594.42,-578.98
8110,-3.8716,-0.3158,-0.4532,-1148.19,-750.67,1467.83
8120,-3.8716,-0.2994,-0.4445,-413.82,1999.33,-1954.04
8130,-3.8716,-0.2770,-0.4205,1679.93,-875.61,733.46
8140,-3.8717,-0.2593,-0.3933,554.93,-1813.05,-1828.98
8150,-3.8718,-0.2548,-0.3768,-1179.44,1671.33,-172.67
8160,-3.8718,-0.2639,-0.3787,-601.32,-219.30,-907.04
8170,-3.8717,-0.2782,-0.3965,-1773.19,-453.67,171.08
8180,-3.8717,-0.2881,-0.4216,398.68,1265.08,-1766.42
8190,-3.8716,-0.2888,-0.4410,-866.94,-1953.74,452.27
8200,-3.8716,-0.2811,-0.4471,-960.69,-438.11,-1985.29
8210,-3.8716,-0.2697,-0.4396,23.68,-1219.30,-1719.67
8220,-3.8716,-0.2610,-0.4226,1492.43,-250.55,1358.46
8230,-3.8717,-0.2607,-0.4060,-1398.19,1921.33,-172.73
8240,-3.8717,-0.2708,-0.3965,-1366.94,46.33,-1610.17
8250,-3.8717,-0.2830,-0.3958,1351.81,1265.08,1702.33
8260,-3.8717,-0.2905,-0.4032,-210.69,1358.76,1858.58
8270,-3.8717,-0.2920,-0.4142,-1179.44,405.64,-1625.79
8280,-3.8717,-0.2869,-0.4227,-1366.94,-1000.61,-1094.60
8290,-3.8717,-0.2766,-0.4252,-710.69,1905.64,-672.73
8300,-3.8717,-0.2678,-0.4210,601.81,1593.20,-641.48
8310,-3.8717,-0.2670,-0.4137,1726.81,-1875.55,-1063.35
8320,-3.8717,-0.2742,-0.4050,1836.18,-938.05,-1813.35
8330,-3.8717,-0.2838,-0.3951,914.31,171.33,1171.08
8340,-3.8717,-0.2882,-0.3872,-320.07,1436.89,139.83
8350,-3.8718,-0.2854,-0.3854,-882.57,-1547.49,-532.04
8360,-3.8718,-0.2810,-0.3944,-523.19,-1313.11,-360.17
8370,-3.8717,-0.2784,-0.4126,39.31,1530.70,952.33
8380,-3.8717,-0.2773,-0.4304,367.43,-797.42,-953.98
8390,-3.8716,-0.2758,-0.4395,508.06,921.33,1046.02
8400,-3.8716,-0.2750,-0.4358,711.18,-234.92,1920.96
8410,-3.8716,-0.2762,-0.4237,804.93,233.83,1358.52
8420,-3.8716,-0.2767,-0.4104,648.68,1780.70,46.02
8430,-3.8717,-0.2756,-0.4009,586.18,-516.17,-1235.23
8440,-3.8717,-0.2729,-0.3972,726.81,702.58,1624.21
8450,-3.8717,-0.2693,-0.3983,1070.56,1171.33,796.08
8460,-3.8717,-0.2671,-0.4016,1539.31,1030.70,717.96
8470,-3.8717,-0.2703,-0.4056,1820.56,608.83,1155.46
8480,-3.8717,-0.2773,-0.4105,1414.31,93.20,1717.96
8490,-3.8717,-0.2794,-0.4150,508.06,-531.80,-1532.10
8500,-3.8717,-0.2714,-0.4165,242.43,-1109.92,-766.48
8510,-3.8717,-0.2594,-0.4132,1273.68,-1297.42,-313.35
8520,-3.8717,-0.2542,-0.4097,-1195.07,-875.55,-282.10
8530,-3.8717,-0.2588,-0.4102,-523.19,-422.42,-594.60
8540,-3.8717,-0.2676,-0.4137,-1116.94,-484.92,-938.35
8550,-3.8717,-0.2729,-0.4169,1758.06,-938.05,-907.10
8560,-3.8717,-0.2726,-0.4177,1070.56,-1344.30,-500.85
8570,-3.8717,-0.2695,-0.4163,1117.43,-1453.67,-157.10
8580,-3.8717,-0.2657,-0.4108,1508.06,-1266.17,-313.35
8590,-3.8717,-0.2633,-0.4019,1992.43,-563.05,-1032.10
8600,-3.8717,-0.2661,-0.3964,-1695.07,577.58,-1828.92
8610,-3.8717,-0.2728,-0.3994,1945.56,1280.70,1436.71
8620,-3.8717,-0.2761,-0.4087,1086.18,890.08,1155.46
8630,-3.8717,-0.2750,-0.4204,664.31,-297.42,1967.90
8640,-3.8717,-0.2745,-0.4297,804.93,-1797.42,-610.23
8650,-3.8716,-0.2765,-0.4303,867.43,1015.08,280.40
8660,-3.8716,-0.2786,-0.4215,617.43,936.95,30.40
8670,-3.8717,-0.2800,-0.4095,351.81,-1938.05,-813.35
8680,-3.8717,-0.2819,-0.4019,164.31,-406.80,-1641.48
8690,-3.8717,-0.2837,-0.4021,-70.07,577.51,1936.71
8700,-3.8717,-0.2832,-0.4075,-304.44,546.26,1874.21
8710,-3.8717,-0.2766,-0.4126,-241.94,-141.24,-1875.85
8720,-3.8717,-0.2662,-0.4177,601.81,-797.42,-1282.10
8730,-3.8717,-0.2601,-0.4235,1929.93,-1453.67,-532.10
8740,-3.8717,-0.2617,-0.4258,-1288.82,1811.95,-16.48
8750,-3.8717,-0.2692,-0.4213,-1491.94,1515.08,-94.60
8760,-3.8717,-0.2797,-0.4139,1554.93,-1906.80,-719.60
8770,-3.8717,-0.2898,-0.4088,211.18,-969.30,-1594.60
8780,-3.8717,-0.2930,-0.4042,-1085.69,-313.11,1546.02
8790,-3.8717,-0.2864,-0.4001,-1491.94,280.64,1061.71
8800,-3.8717,-0.2762,-0.4015,-648.19,796.26,1217.96
8810,-3.8717,-0.2692,-0.4099,648.68,624.45,1842.96
8820,-3.8717,-0.2677,-0.4216,1554.93,-453.67,-1125.85
8830,-3.8716,-0.2719,-0.4294,1742.43,-1953.67,46.02
8840,-3.8716,-0.2775,-0.4290,1211.18,1046.33,749.15
8850,-3.8716,-0.2811,-0.4229,492.43,1108.83,592.90
8860,-3.8717,-0.2825,-0.4152,23.68,1890.08,-500.85
8870,-3.8717,-0.2817,-0.4070,-148.19,-1125.61,1967.90
8880,-3.8717,-0.2758,-0.4010,-54.44,-78.74,842.90
8890,-3.8717,-0.2668,-0.4014,711.18,686.95,686.71
8900,-3.8717,-0.2620,-0.4081,1851.81,640.08,1280.46
8910,-3.8717,-0.2629,-0.4185,-1523.19,-219.30,-1703.98
8920,-3.8717,-0.2678,-0.4287,-1648.19,-1547.42,-516.48
8930,-3.8716,-0.2740,-0.4337,1726.81,1140.08,374.15
8940,-3.8716,-0.2804,-0.4320,929.93,499.45,514.77
8950,-3.8717,-0.2855,-0.4227,117.43,718.20,-172.73
8960,-3.8717,-0.2856,-0.4086,-538.82,1905.64,-1344.60
8970,-3.8717,-0.2776,-0.3982,-554.44,-281.86,1514.77
8980,-3.8717,-0.2664,-0.3970,476.81,1046.33,686.71
8990,-3.8717,-0.2599,-0.4034,1914.31,1202.58,499.21
9000,-3.8717,-0.2605,-0.4117,-1257.57,374.45,1139.83
9010,-3.8717,-0.2677,-0.4175,-1335.69,-688.05,-1985.23
9020,-3.8717,-0.2784,-0.4188,1742.43,-1422.42,-1594.60
9030,-3.8717,-0.2887,-0.4155,367.43,-1594.30,-1672.73
9040,-3.8717,-0.2965,-0.4114,-945.07,-1172.49,-1985.23
9050,-3.8717,-0.3002,-0.4121,-1945.07,-641.24,1717.90
9060,-3.8717,-0.2977,-0.4177,1586.18,-734.99,1624.15
9070,-3.8717,-0.2893,-0.4226,1898.68,-1453.74,1733.52
9080,-3.8717,-0.2765,-0.4221,-1023.19,1921.26,1905.40
9090,-3.8717,-0.2649,-0.4181,617.43,1983.83,-1953.98
9100,-3.8717,-0.2621,-0.4148,-1898.19,-1500.55,-1860.23
9110,-3.8717,-0.2679,-0.4136,-1538.82,-1078.67,-1922.73
9120,-3.8717,-0.2786,-0.4142,1711.18,-922.42,1921.02
9130,-3.8717,-0.2916,-0.4186,351.81,-1000.55,1999.15
9140,-3.8717,-0.3013,-0.4254,-1320.07,-1563.11,-1594.60
9150,-3.8717,-0.2998,-0.4282,1445.56,1561.89,-1297.73
9160,-3.8717,-0.2864,-0.4252,1633.06,1202.51,-1203.98
9170,-3.8717,-0.2715,-0.4203,-648.19,1593.14,-1188.35
9180,-3.8717,-0.2629,-0.4171,1258.06,-1781.80,-1360.23
9190,-3.8717,-0.2598,-0.4153,-1648.19,-1375.55,-1703.98
9200,-3.8717,-0.2626,-0.4164,-1241.94,-1141.17,-1969.60
9210,-3.8717,-0.2719,-0.4202,-1601.32,-1281.80,1983.52
9220,-3.8717,-0.2820,-0.4211,1211.18,-1766.17,-1828.98
9230,-3.8717,-0.2858,-0.4186,-85.69,-1891.24,-1625.85
9240,-3.8717,-0.2838,-0.4175,-570.07,-1563.11,-1797.73
9250,-3.8717,-0.2816,-0.4219,-320.07,-1422.49,-1985.23
9260,-3.8717,-0.2815,-0.4281,-38.82,-1984.99,-1594.60
9270,-3.8717,-0.2823,-0.4307,-23.19,1218.14,-766.48
9280,-3.8717,-0.2836,-0.4303,-132.57,890.01,-297.73
9290,-3.8717,-0.2852,-0.4299,-288.82,936.89,-453.98
9300,-3.8717,-0.2817,-0.4296,-491.94,983.76,-672.73
9310,-3.8717,-0.2722,-0.4255,-54.44,1030.64,-797.73
9320,-3.8717,-0.2650,-0.4182,1164.31,1546.33,-1391.48
9330,-3.8717,-0.2657,-0.4125,-1913.82,-1516.17,1702.27
9340,-3.8717,-0.2722,-0.4127,1992.43,-781.80,1296.02
9350,-3.8717,-0.2806,-0.4207,1164.31,-813.05,1780.40
9360,-3.8717,-0.2888,-0.4313,86.18,-1828.67,-1250.85
9370,-3.8717,-0.2930,-0.4353,-960.69,811.89,-578.98
9380,-3.8717,-0.2925,-0.4304,-1491.94,296.26,-610.23
9390,-3.8717,-0.2882,-0.4215,-1429.44,921.26,-1250.85
9400,-3.8717,-0.2806,-0.4138,-882.57,-1938.11,1921.02
9410,-3.8717,-0.2721,-0.4141,86.18,-953.67,1342.90
9420,-3.8717,-0.2668,-0.4216,1179.93,-984.92,1421.02
9430,-3.8717,-0.2676,-0.4285,1851.81,-1953.67,-1969.60
9440,-3.8717,-0.2727,-0.4271,1758.06,1171.33,-1594.60
9450,-3.8717,-0.2781,-0.4176,1101.81,1343.20,-1938.35
9460,-3.8717,-0.2820,-0.4082,414.31,-1438.05,1202.27
9470,-3.8717,-0.2849,-0.4059,-85.69,-234.99,421.02
9480,-3.8717,-0.2845,-0.4114,-460.69,61.89,342.96
9490,-3.8717,-0.2800,-0.4214,-413.82,-641.24,1061.65
9500,-3.8717,-0.2725,-0.4323,164.31,-1922.42,-1657.10
9510,-3.8717,-0.2639,-0.4396,1133.06,686.95,-360.23
9520,-3.8716,-0.2582,-0.4381,-1773.19,-250.55,374.08
9530,-3.8716,-0.2562,-0.4257,-1038.82,-63.05,264.71
9540,-3.8717,-0.2595,-0.4092,-788.82,1530.70,-828.98
9550,-3.8717,-0.2708,-0.3984,-1210.69,-359.92,1467.90
9560,-3.8717,-0.2859,-0.3987,1351.81,1015.08,46.08
9570,-3.8718,-0.2931,-0.4083,-585.69,983.76,-282.04
9580,-3.8717,-0.2877,-0.4233,-1507.57,-250.61,733.52
9590,-3.8717,-0.2737,-0.4360,-820.07,1827.51,-1594.60
9600,-3.8717,-0.2587,-0.4380,976.81,202.58,-344.60
9610,-3.8717,-0.2496,-0.4286,-1101.32,-47.42,-172.79
9620,-3.8717,-0.2483,-0.4144,54.93,1155.76,-1000.85
9630,-3.8717,-0.2551,-0.4061,226.81,-1031.74,-1985.23
9640,-3.8717,-0.2708,-0.4089,-648.19,30.70,1530.46
9650,-3.8717,-0.2883,-0.4198,1351.81,-328.67,1811.65
9660,-3.8717,-0.2974,-0.4325,-898.19,-1719.36,-1266.48
9670,-3.8717,-0.2963,-0.4407,1945.56,655.64,-235.23
9680,-3.8716,-0.2876,-0.4425,-1913.82,-391.24,342.83
9690,-3.8716,-0.2765,-0.4374,-804.44,-625.61,108.46
9700,-3.8717,-0.2689,-0.4257,617.43,30.70,-953.98
9710,-3.8717,-0.2651,-0.4116,1586.18,1530.70,1624.15
9720,-3.8717,-0.2628,-0.4017,-1929.44,-672.42,452.27
9730,-3.8718,-0.2617,-0.3994,-1632.57,593.20,-110.17
9740,-3.8718,-0.2649,-0.4049,-1491.94,890.08,-141.42
9750,-3.8717,-0.2721,-0.4147,-1898.19,186.95,421.08
9760,-3.8717,-0.2802,-0.4240,1179.93,-1063.05,1452.27
9770,-3.8717,-0.2861,-0.4288,148.68,1749.45,-1782.10
9780,-3.8717,-0.2880,-0.4281,-616.94,1124.39,-1625.85
9790,-3.8717,-0.2845,-0.4224,-851.32,1218.14,-1938.35
9800,-3.8717,-0.2784,-0.4169,-413.82,1952.51,1686.65
9810,-3.8717,-0.2756,-0.4170,367.43,-1344.30,1546.02
9820,-3.8717,-0.2792,-0.4211,726.81,-1359.92,1655.40
9830,-3.8717,-0.2863,-0.4247,273.68,-1891.17,1999.15
9840,-3.8717,-0.2917,-0.4249,-632.57,1655.64,-1860.23
9850,-3.8717,-0.2924,-0.4209,-1335.69,1624.39,1780.40
9860,-3.8717,-0.2854,-0.4160,-1413.82,-1859.99,1342.90
9870,-3.8717,-0.2709,-0.4154,-523.19,-1234.99,1249.15
9880,-3.8717,-0.2570,-0.4189,1336.18,-1156.80,1436.65
9890,-3.8717,-0.2550,-0.4242,-882.57,-1609.92,1827.27
9900,-3.8717,-0.2678,-0.4277,-632.57,1718.20,-1766.48
9910,-3.8717,-0.2886,-0.4274,1726.81,1265.08,-1610.23
9920,-3.8717,-0.3064,-0.4266,-929.44,1311.89,-1735.23
9930,-3.8717,-0.3135,-0.4281,789.31,1405.64,1999.15
9940,-3.8717,-0.3077,-0.4292,-116.94,1218.08,1811.65
9950,-3.8717,-0.2936,-0.4275,617.43,1077.51,1811.65
9960,-3.8717,-0.2797,-0.4244,-1570.07,1296.26,1749.15
9970,-3.8717,-0.2714,-0.4242,211.18,1686.95,1764.77
9980,-3.8717,-0.2682,-0.4269,1273.68,1718.20,-1891.48
9990,-3.8717,-0.2704,-0.4303,1679.93,1374.45,-1453.98
10000,-3.8717,-0.2789,-0.4326,1398.68,936.95,-1203.98
