timestamp_ms,ax,ay,az,gx,gy,gz
0,-3.8705,-0.7687,0.8990,-929.44,-1220.34,1470.64
10,-3.8710,-0.7216,0.7953,1617.43,-907.78,-1545.17
20,-3.8715,-0.6484,0.6901,-351.32,1811.04,-1795.35
30,-3.8719,-0.5629,0.5995,1008.06,342.47,970.09
40,-3.8726,-0.4789,0.5233,-38.82,748.84,-451.97
50,-3.8730,-0.4037,0.4541,-1288.82,-1000.98,-545.90
60,-3.8734,-0.3401,0.3936,336.18,-1860.17,1141.48
70,-3.8738,-0.2888,0.3427,476.81,-1610.05,188.23
80,-3.8741,-0.2504,0.3009,-960.69,-125.61,63.11
90,-3.8745,-0.2306,0.2747,-38.82,-1469.30,266.17
100,-3.8749,-0.2319,0.2611,-1507.57,-828.61,344.24
110,-3.8440,-0.2314,0.2402,-1679.44,1437.01,656.74
120,-3.8444,-0.1929,0.1974,-1616.94,-1234.86,-1765.20
130,-3.8446,-0.1077,0.1393,-679.44,1280.82,1672.24
140,-3.8448,0.0035,0.0829,-1773.19,1843.51,-1062.26
150,-3.8450,0.1155,0.0377,461.18,-1390.62,-1999.88
160,-3.8451,0.2164,0.0054,-1210.69,828.31,-406.19
170,-3.8451,0.3075,-0.0139,-288.82,687.87,-46.88
180,-3.8450,0.3815,-0.0251,-632.57,-1780.70,1843.69
190,-3.8448,0.4218,-0.0312,836.18,781.98,343.69
200,-3.8447,0.4359,-0.0232,1992.43,0.79,437.44
210,-3.8446,0.4648,0.0018,-195.07,1032.04,-1015.69
220,-3.8444,0.5378,0.0326,-491.94,235.23,-578.12
230,-3.8440,0.6533,0.0594,851.81,172.91,1390.69
240,-3.8749,0.7902,0.0864,-366.94,-389.40,1718.81
250,-3.8744,0.9172,0.1248,1148.68,-935.97,1031.37
260,-3.8739,1.0161,0.1848,1414.31,-29.48,-890.44
270,-3.8732,1.0886,0.2822,-1929.44,-341.80,31.56
280,-3.8724,1.1389,0.4093,-648.19,127.08,469.30
290,-3.8716,1.1738,0.5187,1789.31,392.82,1266.42
300,-3.8706,1.2026,0.5861,-1741.94,-1607.12,1782.23
310,-3.8696,1.2101,0.6348,1945.56,-982.06,-936.40
320,-3.8687,1.1681,0.7014,-1101.32,1252.32,-1780.03
330,-3.8678,1.0887,0.8048,1523.68,1783.51,-1373.66
340,-3.8669,1.0140,0.9272,-632.57,-982.30,95.28
350,-3.8663,0.9515,1.0243,1804.93,-1310.55,-1435.73
360,-3.8657,0.8840,1.0608,1804.93,-888.79,-1560.55
370,-3.8652,0.8054,1.0500,1164.31,-217.04,908.26
380,-3.8651,0.6969,1.0391,-898.19,-1592.22,-1076.11
390,-3.8651,0.5387,1.0632,1211.18,1001.34,1564.51
400,-3.8654,0.3269,1.1383,961.18,94.79,-544.80
410,-3.8656,0.0519,1.2482,1851.81,1703.74,1752.20
420,-3.8660,-0.2611,1.3435,-1351.32,-234.31,611.76
430,-3.8666,-0.5229,1.3744,-1413.82,-16.17,-309.94
440,-3.8672,-0.6627,1.3218,1070.56,-63.54,-341.13
450,-3.8678,-0.6917,1.2113,-820.07,1201.78,-1669.31
460,-3.8684,-0.6746,1.0868,-523.19,-938.90,1814.82
470,-3.8689,-0.6636,0.9880,1664.31,-876.34,111.45
480,-3.8694,-0.6671,0.9366,-929.44,-1516.97,1751.89
490,-3.8698,-0.6741,0.9176,-1382.57,-95.09,1345.52
500,-3.8701,-0.6747,0.8916,1726.81,1467.41,548.65
510,-3.8706,-0.6632,0.8384,1648.68,-1860.72,-1888.92
520,-3.8711,-0.6414,0.7689,-882.57,-673.22,-1842.16
530,-3.8716,-0.6241,0.6919,1914.31,-1563.78,1251.46
540,-3.8721,-0.6050,0.6150,117.43,576.90,1126.34
550,-3.8726,-0.5610,0.5580,-1429.44,-1266.85,-826.97
560,-3.8729,-0.4922,0.5178,195.56,-563.60,-1420.84
570,-3.8733,-0.4133,0.4736,1008.06,-1704.10,-1186.52
580,-3.8735,-0.3356,0.4263,-898.19,639.77,125.92
590,-3.8739,-0.2645,0.3860,1054.93,-1422.55,1907.04
600,-3.8743,-0.2061,0.3518,-1851.32,1421.33,-733.64
610,-3.8746,-0.1565,0.3114,1633.06,1046.45,-327.45
620,-3.8750,-0.1121,0.2545,-23.19,-125.37,-436.95
630,-3.8440,-0.0729,0.1936,1664.31,593.51,609.86
640,-3.8444,-0.0302,0.1476,-1320.07,796.69,-155.88
650,-3.8445,0.0270,0.1273,148.68,-1093.81,-1671.63
660,-3.8445,0.0964,0.1316,-538.82,296.88,375.24
670,-3.8445,0.1731,0.1434,351.81,843.93,1078.37
680,-3.8444,0.2686,0.1465,-1835.69,-1640.32,843.99
690,-3.8442,0.3870,0.1344,-1616.94,-1249.51,-390.38
700,-3.8440,0.5055,0.1135,1539.31,1203.86,-843.51
710,-3.8750,0.6118,0.0895,711.18,-1467.77,1828.31
720,-3.8749,0.7091,0.0570,-1679.44,-545.72,-1046.75
730,-3.8748,0.7954,0.0157,-1226.32,-701.78,-1124.94
740,-3.8746,0.8679,-0.0212,1820.56,-1982.85,-562.50
750,-3.8744,0.9229,-0.0431,-898.19,1282.90,1984.31
760,-3.8741,0.9624,-0.0491,-1866.94,-1513.85,-1640.75
770,-3.8739,0.9915,-0.0374,-804.44,1720.58,-0.12
780,-3.8735,1.0079,-0.0004,-1085.69,-779.36,-1172.00
790,-3.8732,1.0244,0.0576,1023.68,-44.92,-671.94
800,-3.8727,1.0555,0.1205,-866.94,-623.05,-1999.94
810,-3.8722,1.0961,0.1742,-882.57,-576.11,-1281.07
820,-3.8716,1.1383,0.2136,304.93,-1700.99,1656.56
830,-3.8710,1.1707,0.2444,1711.18,-654.05,-437.13
840,-3.8701,1.1761,0.2853,1851.81,-716.49,547.30
850,-3.8694,1.1534,0.3589,-1445.07,517.88,-561.95
860,-3.8685,1.1154,0.4636,-351.32,1939.70,-1686.83
870,-3.8678,1.0787,0.5605,-1226.32,-654.11,-749.15
880,-3.8671,1.0509,0.6055,-1913.82,-247.92,594.79
890,-3.8666,1.0154,0.5996,-1476.32,1502.01,1001.16
900,-3.8663,0.9490,0.5785,1976.81,751.95,-420.72
910,-3.8661,0.8358,0.5782,1476.81,-1951.29,891.72
920,-3.8661,0.6707,0.6283,-1007.57,-1982.79,-1717.65
930,-3.8661,0.4622,0.7277,1851.81,423.16,563.72
940,-3.8663,0.2311,0.8379,-835.69,1141.48,-217.35
950,-3.8666,0.0187,0.9104,1586.18,-749.57,-404.66
960,-3.8668,-0.1329,0.9180,-1601.32,531.25,579.90
970,-3.8673,-0.2167,0.8683,-1007.57,1515.32,-29.48
980,-3.8677,-0.2500,0.7919,273.68,-844.18,-951.48
990,-3.8680,-0.2554,0.7224,8.06,1374.51,-1685.97
1000,-3.8684,-0.2600,0.6677,-679.44,483.83,767.03
1010,-3.8689,-0.2831,0.6229,-1273.19,1483.83,-1748.72
1020,-3.8694,-0.3182,0.5903,-226.32,-250.61,-14.47
1030,-3.8698,-0.3461,0.5676,-726.32,-422.55,-1686.40
1040,-3.8701,-0.3629,0.5479,-288.82,671.14,501.10
1050,-3.8706,-0.3749,0.5221,1554.93,-1860.11,-1842.71
1060,-3.8711,-0.3854,0.4919,23.68,-1156.98,-499.02
1070,-3.8715,-0.3947,0.4657,-1320.07,-1016.42,422.79
1080,-3.8719,-0.3929,0.4362,1492.43,-375.79,391.48
1090,-3.8726,-0.3755,0.3862,1711.18,-157.04,-671.08
1100,-3.8730,-0.3463,0.3257,-54.44,1452.33,-702.39
1110,-3.8734,-0.3126,0.2885,-320.07,1702.39,1688.11
1120,-3.8738,-0.2855,0.2808,-7.57,936.83,1375.55
1130,-3.8741,-0.2673,0.2795,-538.82,-47.49,1734.86
1140,-3.8745,-0.2533,0.2711,1789.31,-203.67,-905.76
1150,-3.8748,-0.2350,0.2578,-413.82,-1281.80,1469.24
1160,-3.8750,-0.2010,0.2427,1929.93,1015.14,750.49
1170,-3.8440,-0.1566,0.2230,-1726.32,-922.30,984.80
1180,-3.8442,-0.1207,0.1975,-38.82,562.13,-1890.20
1190,-3.8444,-0.0837,0.1700,554.93,1296.63,62.87
1200,-3.8445,-0.0139,0.1522,1289.31,1781.07,437.81
1210,-3.8445,0.0913,0.1494,-1773.19,-500.06,828.37
1220,-3.8444,0.2197,0.1449,-304.44,-874.88,406.49
1230,-3.8442,0.3607,0.1276,133.06,-1452.70,1422.12
1240,-3.8441,0.4880,0.1024,-1820.07,328.80,-1327.88
1250,-3.8439,0.5503,0.0864,-1523.19,1110.29,359.56
1260,-3.8750,0.5315,0.1033,-1554.44,-936.46,-328.00
1270,-3.8746,0.5287,0.1407,39.31,1219.79,1062.68
1280,-3.8743,0.6375,0.1669,-320.07,-1983.40,547.12
1290,-3.8739,0.8229,0.1730,1601.81,1360.60,1359.68
1300,-3.8735,1.0013,0.1588,1336.18,-1857.79,1703.43
1310,-3.8732,1.1271,0.1354,179.93,330.08,797.18
1320,-3.8729,1.1920,0.1232,273.68,1330.32,-1156.01
1330,-3.8727,1.2319,0.1345,586.18,-232.06,-187.32
1340,-3.8723,1.2839,0.1755,1695.56,1221.13,547.12
1350,-3.8719,1.3010,0.2507,351.81,-1528.75,328.43
1360,-3.8715,1.2408,0.3567,-1460.69,96.25,1562.99
1370,-3.8708,1.1599,0.4579,-1163.82,1658.63,-374.33
1380,-3.8700,1.1039,0.5143,476.81,-1388.37,469.60
1390,-3.8693,1.0778,0.5251,1304.93,1830.26,1719.73
1400,-3.8685,1.0862,0.5144,1961.18,-779.17,1375.98
1410,-3.8679,1.1155,0.5150,-960.69,1845.83,-1264.65
1420,-3.8673,1.1437,0.5583,-1210.69,1924.01,-1577.15
1430,-3.8667,1.1368,0.6409,-1601.32,-529.05,532.29
1440,-3.8662,1.0513,0.7416,1523.68,-1966.55,688.72
1450,-3.8658,0.8606,0.8539,-1429.44,-1076.11,1563.90
1460,-3.8656,0.5743,0.9716,-1835.69,1298.52,1970.40
1470,-3.8655,0.2411,1.0814,1523.68,360.47,1533.14
1480,-3.8656,-0.0768,1.1566,-1132.57,-1577.70,-794.80
1490,-3.8658,-0.3252,1.1613,-1820.07,62.32,1627.26
1500,-3.8663,-0.4773,1.0934,-1616.94,655.58,767.88
1510,-3.8671,-0.5485,0.9896,-1085.69,-32.23,-1029.17
1520,-3.8678,-0.5737,0.8917,1804.93,-1313.60,-13.73
1530,-3.8684,-0.5881,0.8241,-1429.44,-1844.91,-1435.79
1540,-3.8690,-0.6167,0.7831,726.81,1498.84,-295.29
1550,-3.8695,-0.6571,0.7576,1070.56,248.78,-857.85
1560,-3.8700,-0.6862,0.7406,-101.32,983.03,-279.79
1570,-3.8704,-0.6888,0.7238,179.93,-1188.84,298.28
1580,-3.8708,-0.6700,0.6957,-163.82,654.85,1.40
1590,-3.8715,-0.6334,0.6522,-1757.57,1061.16,-1451.78
1600,-3.8719,-0.5736,0.6042,-1070.07,-501.28,798.10
1610,-3.8724,-0.5006,0.5665,-1413.82,1358.22,157.41
1620,-3.8729,-0.4370,0.5415,-70.07,530.21,1188.60
1630,-3.8734,-0.3945,0.5239,70.56,1327.27,-45.84
1640,-3.8737,-0.3694,0.5127,1508.06,-922.67,266.60
1650,-3.8740,-0.3467,0.5093,726.81,1639.89,1266.60
1660,-3.8744,-0.3068,0.5076,-366.94,1202.39,-1499.02
1670,-3.8746,-0.2406,0.4998,742.43,983.76,954.10
1680,-3.8749,-0.1484,0.4882,1211.18,-16.11,1329.04
1690,-3.8439,-0.0306,0.4714,1008.06,-1500.31,-858.46
1700,-3.8440,0.1005,0.4459,86.18,359.31,-936.58
1710,-3.8440,0.2242,0.4220,867.43,1078.31,-1624.15
1720,-3.8439,0.3390,0.4084,711.18,-1983.95,657.04
1730,-3.8750,0.4604,0.4039,-601.32,281.86,1157.04
1740,-3.8749,0.5957,0.4052,-1054.44,-296.02,-358.64
1750,-3.8745,0.7296,0.4019,258.06,-139.47,31.98
1760,-3.8743,0.8317,0.3881,1398.68,-561.10,-858.64
1770,-3.8738,0.8848,0.3821,-1538.82,1673.46,1547.61
1780,-3.8733,0.9012,0.4105,1258.06,907.96,-1936.77
1790,-3.8728,0.9097,0.4508,-632.57,548.58,-1358.58
1800,-3.8723,0.9368,0.4413,445.56,1704.90,-1921.02
1810,-3.8718,0.9928,0.3680,-85.69,486.15,500.85
1820,-3.8715,1.0549,0.2805,-913.82,-888.73,1735.05
1830,-3.8711,1.1052,0.2246,-960.69,-91.74,1187.99
1840,-3.8708,1.1593,0.2100,1476.81,752.14,-93.32
1850,-3.8705,1.2220,0.2128,398.68,-1122.74,-718.38
1860,-3.8701,1.2661,0.1902,429.93,-763.24,-15.26
1870,-3.8696,1.2584,0.1321,-1929.44,346.19,-1734.01
1880,-3.8691,1.1858,0.0601,1086.18,908.69,203.37
1890,-3.8688,1.0679,0.0018,-210.69,-310.24,125.06
1900,-3.8685,0.9291,-0.0040,695.56,236.45,-1515.62
1910,-3.8683,0.7780,0.0414,-1070.07,-513.85,-687.56
1920,-3.8680,0.6350,0.1066,-413.82,1298.34,-1874.94
1930,-3.8679,0.5029,0.1798,1289.31,1641.85,-906.07
1940,-3.8678,0.3451,0.2496,383.06,-983.40,1094.06
1950,-3.8679,0.1425,0.3235,179.93,-46.20,-187.07
1960,-3.8679,-0.1016,0.4089,-1757.57,1406.49,1484.99
1970,-3.8680,-0.3754,0.4888,-991.94,359.13,-874.21
1980,-3.8682,-0.6312,0.5549,-38.82,-1422.67,-420.96
1990,-3.8683,-0.8248,0.6010,-788.82,-954.41,1297.91
2000,-3.8685,-0.9602,0.6353,-1570.07,935.85,891.78
2010,-3.8689,-1.0400,0.6689,1101.81,1326.23,-561.28
2020,-3.8691,-1.0646,0.6879,-1116.94,1638.55,95.03
2030,-3.8696,-1.0607,0.6838,-257.57,60.36,-1545.53
2040,-3.8701,-1.0541,0.6680,242.43,-455.20,-1326.84
2050,-3.8706,-1.0499,0.6517,1086.18,1513.55,1454.41
2060,-3.8711,-1.0405,0.6411,1617.43,-564.58,798.10
2070,-3.8716,-1.0122,0.6376,-1179.44,-1923.95,-1842.53
2080,-3.8719,-0.9545,0.6366,-1554.44,1622.99,1407.47
2090,-3.8723,-0.8785,0.6305,1836.18,1498.11,-1592.53
2100,-3.8726,-0.7999,0.6113,-445.07,716.98,985.60
2110,-3.8728,-0.7212,0.5818,1617.43,-1735.96,157.41
2120,-3.8732,-0.6399,0.5541,-304.44,-1517.09,-889.53
2130,-3.8734,-0.5532,0.5317,-1898.19,-1063.78,1657.29
2140,-3.8737,-0.4597,0.5071,1195.56,77.03,485.41
2150,-3.8739,-0.3524,0.4813,1164.31,920.96,500.98
2160,-3.8741,-0.2238,0.4622,-1101.32,1624.27,-1811.58
2170,-3.8743,-0.0841,0.4478,-632.57,-828.61,1250.85
2180,-3.8744,0.0481,0.4240,1242.43,1327.94,719.60
2190,-3.8745,0.1677,0.3844,-1835.69,-1734.31,703.92
2200,-3.8746,0.2750,0.3461,1476.81,1203.43,1922.61
2210,-3.8748,0.3580,0.3296,-788.82,297.36,-14.95
2220,-3.8748,0.4092,0.3323,1836.18,-1811.83,-1671.26
2230,-3.8748,0.4562,0.3320,383.06,-1467.96,1188.11
2240,-3.8748,0.5424,0.3206,-1601.32,-1499.15,1766.24
2250,-3.8746,0.6768,0.3060,1429.93,1032.29,1719.36
2260,-3.8744,0.8170,0.2892,-1366.94,-826.84,547.42
2270,-3.8743,0.9126,0.2637,586.18,1017.21,-186.95
2280,-3.8740,0.9528,0.2384,820.56,1751.77,-1702.64
2290,-3.8738,0.9525,0.2271,1961.18,-1482.54,187.93
2300,-3.8737,0.9316,0.2329,1929.93,1064.33,-1749.57
2310,-3.8734,0.9211,0.2518,-741.94,1814.27,1953.55
2320,-3.8730,0.9404,0.2646,1914.31,236.15,47.36
2330,-3.8727,0.9833,0.2552,383.06,1876.83,656.74
2340,-3.8722,1.0404,0.2266,1867.43,673.77,78.61
2350,-3.8717,1.1075,0.1901,1179.93,1002.01,-1358.95
2360,-3.8711,1.1761,0.1599,1773.68,330.26,-452.76
2370,-3.8704,1.2317,0.1440,-1445.07,471.01,1047.18
2380,-3.8698,1.2588,0.1487,1664.31,-1560.12,1656.49
2390,-3.8691,1.2373,0.1768,1133.06,-966.31,578.37
2400,-3.8687,1.1598,0.2218,-1616.94,-1372.62,1625.31
2410,-3.8682,1.0485,0.2821,461.18,392.88,484.80
2420,-3.8678,0.9323,0.3527,-1788.82,111.39,1125.55
2430,-3.8674,0.8237,0.4274,-663.82,1142.40,1188.17
2440,-3.8671,0.7087,0.5192,1445.56,-1295.29,1813.29
2450,-3.8667,0.5527,0.6396,-1273.19,-1545.53,954.10
2460,-3.8666,0.3278,0.7723,-1241.94,1876.04,-436.28
2470,-3.8665,0.0337,0.9001,1961.18,-1140.01,1063.96
2480,-3.8665,-0.2891,1.0223,320.56,-781.19,1.71
2490,-3.8666,-0.5739,1.1165,-991.94,-1125.61,-1529.30
2500,-3.8666,-0.7662,1.1493,-1445.07,-1079.28,470.89
2510,-3.8667,-0.8553,1.1162,1929.93,-876.53,1502.20
2520,-3.8668,-0.8757,1.0552,-1476.32,-1111.08,1299.01
2530,-3.8669,-0.8783,1.0192,-85.69,-923.65,408.26
2540,-3.8671,-0.8833,1.0259,-413.82,-1533.02,236.33
2550,-3.8672,-0.8821,1.0592,-1054.44,-673.65,1642.58
2560,-3.8672,-0.8771,1.0867,-898.19,-408.02,908.26
2570,-3.8672,-0.8761,1.0931,-257.57,-892.40,330.20
2580,-3.8674,-0.8801,1.0851,-132.57,-64.27,-669.80
2590,-3.8678,-0.8849,1.0615,-648.19,-1095.52,-841.67
2600,-3.8683,-0.8810,1.0175,-1257.57,-111.15,642.64
2610,-3.8690,-0.8566,0.9565,-757.57,-1751.77,1158.20
2620,-3.8699,-0.8073,0.8727,-1632.57,-1548.58,-1888.79
2630,-3.8707,-0.7362,0.7600,679.93,-282.84,1751.65
2640,-3.8716,-0.6575,0.6539,1773.68,1295.41,-1404.79
2650,-3.8723,-0.5900,0.5956,-148.19,-282.59,1641.85
2660,-3.8730,-0.5287,0.5806,492.43,248.84,-1748.84
2670,-3.8737,-0.4690,0.5691,336.18,-1672.91,282.35
2680,-3.8744,-0.4246,0.5344,-23.19,858.40,-248.90
2690,-3.8749,-0.3907,0.4840,1664.31,421.02,63.54
2700,-3.8442,-0.3442,0.4283,1992.43,1967.96,860.29
2710,-3.8448,-0.2740,0.3641,-54.44,-1156.98,-952.33
2720,-3.8452,-0.1827,0.2888,929.93,-1375.55,375.67
2730,-3.8456,-0.0702,0.2140,617.43,984.01,-1780.70
2740,-3.8457,0.0558,0.1624,-976.32,-593.93,156.62
2750,-3.8458,0.1790,0.1454,-851.32,781.31,703.43
2760,-3.8459,0.2766,0.1503,-1085.69,-1390.32,-827.88
2770,-3.8458,0.3273,0.1627,-585.69,-765.14,31.49
2780,-3.8458,0.3389,0.1798,1898.68,828.74,-530.94
2790,-3.8456,0.3512,0.1945,-616.94,-983.76,453.43
2800,-3.8455,0.4015,0.1951,961.18,891.30,1578.49
2810,-3.8453,0.4921,0.1761,-601.32,969.48,-1640.26
2820,-3.8452,0.5991,0.1459,-1007.57,-1452.21,-749.69
2830,-3.8450,0.7087,0.1268,695.56,-1326.97,1828.37
2840,-3.8446,0.8215,0.1479,-1273.19,235.72,578.37
2850,-3.8442,0.9470,0.2104,1164.31,-1060.91,-187.26
2860,-3.8749,1.0957,0.2821,1226.81,-1060.67,-1280.88
2870,-3.8741,1.2446,0.3435,258.06,111.51,1453.67
2880,-3.8734,1.3540,0.3817,-679.44,-28.87,-1108.76
2890,-3.8726,1.4187,0.3848,1320.56,862.00,250.73
2900,-3.8719,1.4680,0.3768,1601.81,1252.75,-1671.14
2910,-3.8713,1.5190,0.3893,-85.69,237.18,875.73
2920,-3.8708,1.5546,0.4216,-1554.44,1831.05,1641.36
2930,-3.8704,1.5621,0.4633,-1007.57,1971.74,-796.08
2940,-3.8696,1.5481,0.5176,-38.82,-700.13,1000.85
2950,-3.8688,1.5122,0.5968,-1835.69,-1747.01,657.23
2960,-3.8679,1.4539,0.6998,1570.56,393.55,-405.09
2970,-3.8669,1.3887,0.8007,-1898.19,1580.93,1032.59
2980,-3.8662,1.3096,0.8828,1758.06,-1512.94,1329.65
2990,-3.8657,1.1743,0.9575,-366.94,1002.50,-342.04
3000,-3.8652,0.9670,1.0425,-1679.44,-1435.24,751.83
3010,-3.8651,0.7048,1.1375,-210.69,1439.33,-13.61
3020,-3.8650,0.4098,1.2156,-1773.19,1595.09,1377.20
3030,-3.8651,0.1027,1.2523,461.18,-405.46,-1388.31
3040,-3.8652,-0.2095,1.2513,1148.68,297.06,-1872.56
3050,-3.8654,-0.4996,1.2358,1195.56,187.07,658.69
3060,-3.8656,-0.7129,1.2172,54.93,-1797.85,455.51
3070,-3.8660,-0.8163,1.1851,758.06,-188.90,1346.07
3080,-3.8663,-0.8258,1.1282,-476.32,-298.52,49.13
3090,-3.8668,-0.8047,1.0448,-1695.07,420.23,1127.20
3100,-3.8673,-0.8058,0.9458,1008.06,1748.41,-1185.49
3110,-3.8677,-0.8351,0.8564,867.43,1076.54,-1029.42
3120,-3.8679,-0.8795,0.8013,1117.43,1638.98,1236.02
3130,-3.8682,-0.9194,0.7793,-570.07,-1423.65,220.28
3140,-3.8685,-0.9429,0.7726,-1679.44,-236.21,-1123.54
3150,-3.8688,-0.9506,0.7703,-679.44,-1095.64,298.34
3160,-3.8693,-0.9330,0.7623,-1663.82,-1392.52,-639.16
3170,-3.8698,-0.8950,0.7301,586.18,1591.92,-514.16
3180,-3.8702,-0.8644,0.6765,1445.56,1466.98,1782.65
3190,-3.8708,-0.8472,0.6256,1367.43,-1392.33,-670.59
3200,-3.8713,-0.8256,0.5891,-429.44,92.04,563.72
3210,-3.8719,-0.7837,0.5649,-1663.82,-579.77,-1842.65
3220,-3.8724,-0.7184,0.5433,-304.44,326.54,938.60
3230,-3.8729,-0.6436,0.5123,54.93,1561.10,1610.41
3240,-3.8733,-0.5718,0.4711,1633.06,1592.47,219.73
3250,-3.8737,-0.4973,0.4249,-1179.44,311.34,407.17
3260,-3.8740,-0.4158,0.3794,351.81,-1594.73,1422.67
3270,-3.8744,-0.3356,0.3396,-1210.69,577.27,-1108.64
3280,-3.8746,-0.2621,0.3051,1054.93,-516.30,375.61
3290,-3.8750,-0.1959,0.2722,-1538.82,-938.05,1594.30
3300,-3.8441,-0.1353,0.2451,-1070.07,-1141.05,-546.39
3310,-3.8444,-0.0682,0.2192,-1304.44,-609.68,-937.07
3320,-3.8445,0.0088,0.1779,-726.32,77.94,1609.80
3330,-3.8446,0.0797,0.1283,1133.06,-1234.38,-593.44
3340,-3.8446,0.1321,0.0969,-1788.82,422.00,-1624.76
3350,-3.8446,0.1619,0.0917,914.31,406.49,172.06
3360,-3.8447,0.1667,0.1049,726.81,-265.32,922.00
3370,-3.8448,0.1624,0.1248,1351.81,1422.18,-1906.07
3380,-3.8448,0.1732,0.1375,789.31,-30.94,765.81
3390,-3.8448,0.2123,0.1390,-1820.07,1594.06,1656.49
3400,-3.8447,0.2798,0.1375,-820.07,1797.24,765.87
3410,-3.8446,0.3564,0.1411,-179.44,1594.24,1062.74
3420,-3.8445,0.4136,0.1453,1633.06,-1936.83,1531.49
3430,-3.8444,0.4388,0.1462,945.56,-1405.46,-1218.51
3440,-3.8441,0.4452,0.1589,179.93,-1280.40,1562.74
3450,-3.8439,0.4595,0.1984,992.43,344.60,1250.31
3460,-3.8749,0.5146,0.2455,-1179.44,1391.48,1265.99
3470,-3.8746,0.6293,0.2662,1883.06,-577.15,-1046.45
3480,-3.8743,0.7748,0.2686,554.93,-1920.65,-140.14
3490,-3.8738,0.9087,0.2946,-820.07,-1623.54,-1218.26
3500,-3.8733,1.0062,0.3694,320.56,1704.90,1828.67
3510,-3.8729,1.0396,0.4711,804.93,-716.80,-296.20
3520,-3.8726,0.9982,0.5410,1070.56,298.89,-811.58
3530,-3.8722,0.9229,0.5515,-226.32,1251.89,1594.79
3540,-3.8718,0.8817,0.5476,-1866.94,-1404.48,-592.71
3550,-3.8712,0.9114,0.5823,867.43,-1904.54,-1405.21
3560,-3.8705,0.9655,0.6459,664.31,-1466.98,813.60
3570,-3.8698,0.9695,0.7144,-413.82,-1326.29,1704.35
3580,-3.8689,0.9329,0.7800,101.81,-560.61,-1076.78
3590,-3.8679,0.9207,0.8121,-585.69,-154.48,-873.54
3600,-3.8669,0.9692,0.7919,1851.81,-45.10,-1404.72
3610,-3.8661,1.0717,0.7451,70.56,1361.27,1860.90
3620,-3.8655,1.1887,0.7018,1179.93,-622.92,-1873.60
3630,-3.8651,1.2631,0.6769,164.31,1830.44,1907.59
3640,-3.8650,1.2380,0.6753,1679.93,-1356.93,1938.78
3650,-3.8650,1.0970,0.7074,-1523.19,-1560.12,1704.41
3660,-3.8650,0.8756,0.7834,429.93,-1450.99,141.97
3670,-3.8651,0.6294,0.8779,86.18,282.96,1017.15
3680,-3.8652,0.4066,0.9492,570.56,376.22,376.71
3690,-3.8655,0.2274,0.9805,54.93,1500.79,-904.42
3700,-3.8656,0.0869,0.9779,1117.43,1500.43,736.27
3710,-3.8658,-0.0306,0.9668,-866.94,1172.00,1470.64
3720,-3.8661,-0.1482,0.9750,86.18,-234.44,1908.08
3730,-3.8663,-0.2771,1.0082,1039.31,812.19,564.39
3740,-3.8667,-0.4169,1.0469,539.31,1061.95,298.83
3750,-3.8672,-0.5521,1.0577,-1351.32,-1985.23,1470.76
3760,-3.8677,-0.6573,1.0229,1336.18,-594.85,892.64
3770,-3.8683,-0.7257,0.9558,-132.57,-1048.22,-623.05
3780,-3.8688,-0.7666,0.8783,-882.57,-1642.09,1251.83
3790,-3.8694,-0.7947,0.8110,1883.06,435.97,-1092.04
3800,-3.8699,-0.8228,0.7676,-1710.69,-173.46,1126.53
3810,-3.8704,-0.8502,0.7432,-1304.44,-1736.02,1095.21
3820,-3.8708,-0.8687,0.7196,-820.07,-861.08,-1248.60
3830,-3.8712,-0.8649,0.6863,820.56,123.29,1720.15
3840,-3.8716,-0.8352,0.6483,1304.93,-142.33,1485.66
3850,-3.8719,-0.7910,0.6082,1101.81,-1001.65,1235.60
3860,-3.8723,-0.7433,0.5619,-1241.94,1857.79,469.91
3870,-3.8728,-0.6996,0.5062,867.43,-63.96,-389.59
3880,-3.8732,-0.6609,0.4464,-1538.82,811.10,-389.65
3890,-3.8734,-0.6270,0.4005,-585.69,1154.91,344.60
3900,-3.8738,-0.5920,0.3708,-241.94,-720.03,1016.36
3910,-3.8741,-0.5472,0.3378,226.81,-516.78,1641.30
3920,-3.8745,-0.4921,0.2957,1961.18,-751.10,-811.89
3930,-3.8748,-0.4266,0.2598,1023.68,1858.40,-1874.45
3940,-3.8750,-0.3475,0.2400,1398.68,1264.77,-1749.51
3950,-3.8440,-0.2561,0.2255,-476.32,-1266.36,-530.82
3960,-3.8441,-0.1559,0.1953,-773.19,874.45,1266.05
3970,-3.8444,-0.0492,0.1445,54.93,1015.32,-77.76
3980,-3.8444,0.0536,0.0918,1711.18,-1484.50,187.74
3990,-3.8445,0.1415,0.0577,-1132.57,-249.94,-1812.38
4000,-3.8445,0.2166,0.0419,-1882.57,-609.13,-1890.56
4010,-3.8444,0.2928,0.0371,-273.19,1359.74,328.19
4020,-3.8442,0.3723,0.0433,1492.43,750.55,375.06
4030,-3.8441,0.4344,0.0593,-335.69,1547.55,781.31
4040,-3.8440,0.4659,0.0743,-382.57,-405.46,296.94
4050,-3.8440,0.4760,0.0769,-351.32,1516.48,-828.00
4060,-3.8439,0.4795,0.0621,929.93,1844.67,-1656.13
4070,-3.8750,0.4852,0.0411,1383.06,-45.96,1546.94
4080,-3.8749,0.4989,0.0409,-1882.57,1266.54,171.94
4090,-3.8749,0.5178,0.0654,-132.57,1235.29,1921.94
4100,-3.8749,0.5219,0.0929,-1710.69,375.98,-546.75
4110,-3.8748,0.5055,0.1141,-1195.07,-108.40,-1437.38
4120,-3.8745,0.5110,0.1288,711.18,-1389.65,125.18
4130,-3.8743,0.5707,0.1461,1414.31,485.35,234.62
4140,-3.8740,0.6686,0.1742,1054.93,-1295.78,-874.76
4150,-3.8735,0.7827,0.1957,1586.18,-1701.84,281.56
4160,-3.8732,0.8945,0.2000,195.56,1048.40,-1093.38
4170,-3.8727,0.9735,0.1844,-1491.94,1595.46,1000.37
4180,-3.8723,0.9879,0.1501,617.43,-388.73,515.93
4190,-3.8721,0.9465,0.1272,-1538.82,-779.36,-1015.38
4200,-3.8717,0.9043,0.1541,1164.31,283.08,-1015.38
4210,-3.8712,0.9064,0.2397,-241.94,-279.54,1593.99
4220,-3.8707,0.9529,0.3524,23.68,-1310.73,-827.70
4230,-3.8701,1.0015,0.4305,1976.81,1111.21,-1155.58
4240,-3.8694,1.0111,0.4476,195.56,-888.67,0.79
4250,-3.8688,0.9823,0.4403,1429.93,1298.83,-1327.27
4260,-3.8680,0.9399,0.4495,1742.43,361.27,-1952.27
4270,-3.8673,0.9052,0.4811,320.56,1533.08,672.73
4280,-3.8667,0.8817,0.5251,-132.57,1579.83,1719.67
4290,-3.8661,0.8662,0.5947,867.43,-779.54,1469.73
4300,-3.8655,0.8301,0.7039,-1116.94,126.65,360.53
4310,-3.8650,0.7058,0.8193,-1741.94,-1904.66,-779.91
4320,-3.8644,0.4888,0.8943,-1648.19,876.34,704.71
4330,-3.8641,0.2682,0.9155,-1429.44,-1530.33,-982.67
4340,-3.8641,0.1094,0.8834,-1663.82,1187.99,939.27
4350,-3.8646,0.0026,0.8104,-1991.94,1078.31,-842.04
4360,-3.8652,-0.0833,0.7209,336.18,-265.62,-1873.47
4370,-3.8660,-0.1685,0.6450,1351.81,296.69,-1029.85
4380,-3.8666,-0.2650,0.6145,-1554.44,-1422.24,-1983.15
4390,-3.8671,-0.3717,0.6426,-1913.82,-1328.67,1157.41
4400,-3.8674,-0.4878,0.7128,429.93,-1735.11,344.97
4410,-3.8678,-0.6113,0.7872,1570.56,-750.98,-1733.03
4420,-3.8682,-0.7179,0.8281,1758.06,780.03,-389.10
4430,-3.8685,-0.7753,0.8177,117.43,-1985.78,-1951.54
4440,-3.8690,-0.7715,0.7714,773.68,685.97,-1732.79
4450,-3.8695,-0.7195,0.7191,1258.06,-1251.53,1892.09
4460,-3.8700,-0.6530,0.6775,-85.69,61.04,-1732.97
4470,-3.8704,-0.6060,0.6541,429.93,-1266.91,376.28
4480,-3.8707,-0.6085,0.6520,-1554.44,-266.85,469.97
4490,-3.8711,-0.7179,0.6801,-1882.57,-532.47,-1420.65
4500,-3.8713,-0.8864,0.7393,117.43,-938.90,1860.66
4510,-3.8717,-0.9242,0.7627,-1445.07,-1361.15,-811.10
4520,-3.8721,-0.7841,0.6957,1711.18,1638.79,1938.96
4530,-3.8726,-0.5858,0.5801,-351.32,1060.91,-201.78
4540,-3.8729,-0.4229,0.4716,1023.68,-1735.53,1532.35
4550,-3.8733,-0.3313,0.3993,1883.06,374.15,235.29
4560,-3.8737,-0.3040,0.3663,1601.81,-875.67,406.98
4570,-3.8740,-0.3020,0.3451,1101.81,-1094.36,1516.30
4580,-3.8744,-0.2947,0.3132,1351.81,186.89,-1124.33
4590,-3.8746,-0.2844,0.2751,-1710.69,108.76,188.11
4600,-3.8750,-0.2808,0.2533,-398.19,-766.24,-1030.76
4610,-3.8439,-0.2664,0.2528,70.56,436.95,1047.36
4620,-3.8440,-0.2101,0.2473,1914.31,374.45,-1374.51
4630,-3.8440,-0.1101,0.2140,1117.43,-328.55,-1733.95
4640,-3.8440,0.0016,0.1558,1914.31,-593.99,1625.37
4650,-3.8441,0.1011,0.0917,211.18,-62.50,-499.76
4660,-3.8441,0.1890,0.0392,945.56,-265.44,1437.62
4670,-3.8441,0.2588,0.0066,195.56,1015.99,968.81
4680,-3.8441,0.2980,-0.0116,1133.06,844.24,1500.00
4690,-3.8441,0.3113,-0.0216,-1851.32,-1483.83,-1843.81
4700,-3.8441,0.3093,-0.0204,-148.19,1234.92,-1500.06
4710,-3.8441,0.2991,-0.0087,-398.19,1391.17,-1593.81
4720,-3.8441,0.2855,0.0049,-1710.69,-1108.83,-1984.44
4730,-3.8441,0.2688,0.0085,554.93,625.55,-1937.50
4740,-3.8441,0.2533,0.0087,-1585.69,1094.24,-609.38
4750,-3.8440,0.2496,0.0339,429.93,1109.86,-2000.00
4760,-3.8439,0.2548,0.0936,-38.82,344.18,1390.69
4770,-3.8750,0.2570,0.1616,617.43,-15.14,1625.12
4780,-3.8749,0.2704,0.2144,898.68,687.99,-874.69
4790,-3.8746,0.3196,0.2482,-1382.57,-562.01,-1390.26
4800,-3.8743,0.3934,0.2751,914.31,-233.76,922.30
4810,-3.8739,0.4579,0.3165,-1632.57,-780.52,953.61
4820,-3.8737,0.4929,0.3762,-1382.57,516.48,-686.89
4830,-3.8734,0.4935,0.4333,-898.19,157.17,-983.64
4840,-3.8732,0.4697,0.4744,-820.07,-530.33,1641.42
4850,-3.8730,0.4419,0.4923,133.06,719.67,-530.33
4860,-3.8727,0.4333,0.4888,570.56,-983.52,1063.42
4870,-3.8722,0.4589,0.5120,-523.19,-1436.71,1688.42
4880,-3.8716,0.5096,0.5966,-1257.57,1532.10,454.10
4890,-3.8711,0.5197,0.7208,1242.43,360.35,-1639.47
4900,-3.8706,0.4043,0.8275,-1476.32,266.60,-451.72
4910,-3.8700,0.2079,0.8590,-241.94,1922.61,939.09
4920,-3.8695,0.0861,0.8342,-1382.57,1953.49,-1638.98
4930,-3.8691,0.1387,0.7950,-976.32,-1218.63,-826.54
4940,-3.8689,0.3445,0.7568,1758.06,1765.87,-951.60
4950,-3.8687,0.6141,0.7384,101.81,875.67,1954.59
4960,-3.8684,0.8406,0.7148,-1382.57,-1483.22,563.90
4970,-3.8682,0.9537,0.6824,-398.19,-498.41,1345.09
4980,-3.8678,0.9537,0.7123,-1913.82,-654.42,-1670.59
4990,-3.8673,0.8494,0.8354,-1913.82,-826.29,1751.34
5000,-3.8668,0.6473,1.0112,726.81,-1060.85,-1889.04
5010,-3.8663,0.4100,1.1727,-1132.57,1438.72,1611.33
5020,-3.8660,0.2203,1.2349,492.43,-1889.83,283.51
5030,-3.8660,0.1182,1.1653,211.18,-1937.07,-247.62
5040,-3.8660,0.0901,1.0321,-866.94,1156.43,1752.26
5050,-3.8661,0.0818,0.9318,-460.69,109.50,923.89
5060,-3.8663,0.0354,0.9270,-1523.19,-734.25,-1029.48
5070,-3.8665,-0.0789,1.0129,539.31,-1343.69,-1810.73
5080,-3.8665,-0.2408,1.1284,1914.31,1671.69,314.45
5090,-3.8666,-0.3959,1.1981,1179.93,452.64,-450.93
5100,-3.8666,-0.5165,1.1868,1336.18,1374.21,1471.07
5110,-3.8667,-0.6112,1.1289,1898.68,-79.16,1080.38
5120,-3.8669,-0.6990,1.0759,1773.68,514.40,1939.70
5130,-3.8672,-0.7919,1.0481,-1460.69,1732.97,455.20
5140,-3.8676,-0.8771,1.0367,-1351.32,-1829.71,-1966.74
5150,-3.8679,-0.9288,1.0238,-257.57,716.98,-201.11
5160,-3.8682,-0.9504,1.0028,1117.43,-939.33,1267.58
5170,-3.8685,-0.9489,0.9777,-1648.19,373.11,-623.05
5180,-3.8687,-0.9060,0.9612,-1445.07,1154.36,361.27
5190,-3.8688,-0.8467,0.9620,39.31,-954.90,454.96
5200,-3.8689,-0.8085,0.9736,-366.94,-845.46,1345.58
5210,-3.8691,-0.7877,0.9771,523.68,639.04,-857.48
5220,-3.8695,-0.7681,0.9294,-820.07,1076.54,1533.14
5230,-3.8701,-0.7289,0.8257,1695.56,-1017.15,876.77
5240,-3.8708,-0.6760,0.7266,-1288.82,1701.66,1751.59
5250,-3.8715,-0.6411,0.6796,1476.81,1014.28,235.78
5260,-3.8721,-0.6288,0.6693,1945.56,-1001.28,-1201.84
5270,-3.8724,-0.6108,0.6497,-476.32,1686.22,1657.53
5280,-3.8728,-0.5613,0.6057,1820.56,-829.35,-717.53
5290,-3.8730,-0.4806,0.5520,164.31,1545.78,1798.03
5300,-3.8734,-0.3833,0.4993,-1507.57,-1329.10,-405.21
5310,-3.8737,-0.2870,0.4336,-1054.44,-78.92,63.42
5320,-3.8741,-0.2019,0.3467,-726.32,-484.99,-186.71
5330,-3.8745,-0.1278,0.2623,-1835.69,390.20,-905.58
5340,-3.8749,-0.0660,0.2004,-351.32,1593.44,1781.74
5350,-3.8440,-0.0197,0.1670,-445.07,1671.69,1469.12
5360,-3.8442,-0.0004,0.1576,1492.43,1390.56,31.56
5370,-3.8445,-0.0127,0.1615,-38.82,187.44,-1687.19
5380,-3.8445,-0.0203,0.1654,-1616.94,687.44,328.43
5390,-3.8445,0.0117,0.1599,1414.31,1187.44,1015.93
5400,-3.8445,0.0781,0.1414,1508.06,468.75,-1312.19
5410,-3.8445,0.1594,0.1029,-1991.94,-1906.13,-62.26
5420,-3.8444,0.2386,0.0483,414.31,1172.18,390.81
5430,-3.8445,0.3048,-0.0050,-1445.07,-1812.07,-328.06
5440,-3.8445,0.3438,-0.0400,-976.32,-640.08,-1734.44
5450,-3.8445,0.3322,-0.0381,8.06,-1124.33,-1578.25
5460,-3.8444,0.2692,0.0150,-1476.32,-874.39,-1765.75
5470,-3.8441,0.2056,0.1019,-1538.82,1922.36,1125.00
5480,-3.8439,0.1807,0.1881,-1679.44,1047.24,1453.31
5490,-3.8749,0.1855,0.2574,-866.94,78.43,1672.24
5500,-3.8746,0.2020,0.2980,-241.94,953.43,672.36
5510,-3.8745,0.2391,0.2950,1867.43,-1859.01,-968.20
5520,-3.8743,0.3450,0.2415,-1382.57,1766.05,-1358.83
5530,-3.8740,0.5265,0.1532,164.31,-1093.08,-1140.20
5540,-3.8738,0.7080,0.0682,-601.32,-389.65,797.12
5550,-3.8737,0.8237,0.0236,-1366.94,735.72,1343.87
5560,-3.8735,0.8662,0.0424,1445.56,-982.79,-1171.88
5570,-3.8733,0.8425,0.1174,-1116.94,1423.52,-1703.06
5580,-3.8729,0.7717,0.2163,-148.19,-967.16,937.68
5590,-3.8726,0.7045,0.2971,-1210.69,-311.04,-1874.63
5600,-3.8722,0.6853,0.3329,-1820.07,-1967.41,-546.33
5610,-3.8718,0.7167,0.3314,-273.19,-1389.34,-1124.39
5620,-3.8716,0.7668,0.3120,-257.57,-1576.78,1578.74
5630,-3.8716,0.8021,0.2909,-1835.69,-61.04,-1124.45
5640,-3.8716,0.8123,0.2948,-1320.07,1235.90,-546.33
5650,-3.8713,0.7983,0.3485,-23.19,1735.90,16.17
5660,-3.8711,0.7595,0.4463,-1804.44,610.90,110.05
5670,-3.8708,0.7037,0.5520,1226.81,1126.46,797.73
5680,-3.8707,0.6281,0.6155,-1913.82,-1342.41,-327.09
5690,-3.8705,0.5261,0.6195,398.68,-1217.53,1079.28
5700,-3.8702,0.4360,0.6105,-648.19,-702.15,1204.28
5710,-3.8699,0.4124,0.6437,-179.44,-1858.58,-1858.22
5720,-3.8694,0.4650,0.7245,789.31,-1608.58,-1186.28
5730,-3.8688,0.5610,0.8107,-476.32,735.23,1673.28
5740,-3.8683,0.6477,0.8558,-179.44,-233.34,-139.10
5750,-3.8678,0.6810,0.8411,-1085.69,1548.10,-1498.35
5760,-3.8676,0.6637,0.7878,-820.07,-342.47,-29.66
5770,-3.8673,0.6289,0.7386,961.18,845.03,1189.03
5780,-3.8672,0.5836,0.7250,508.06,-1451.90,892.03
5790,-3.8671,0.5046,0.7556,-1288.82,797.97,860.78
5800,-3.8671,0.3883,0.7999,601.81,719.73,-76.66
5810,-3.8669,0.2699,0.8116,1711.18,-1608.64,251.53
5820,-3.8671,0.1958,0.7816,-1445.07,-108.89,1814.03
5830,-3.8672,0.1816,0.7312,1070.56,47.24,1439.03
5840,-3.8673,0.2037,0.6827,-741.94,1594.06,376.40
5850,-3.8676,0.2266,0.6613,-1913.82,-609.01,-576.84
5860,-3.8677,0.2212,0.6810,1008.06,641.05,-1311.22
5870,-3.8678,0.1691,0.7252,320.56,-827.70,-1889.34
5880,-3.8679,0.0786,0.7638,1648.68,828.43,1329.53
5890,-3.8682,-0.0210,0.7837,-1929.44,1765.75,-357.91
5900,-3.8683,-0.1082,0.7880,1320.56,328.06,532.78
5910,-3.8685,-0.1748,0.7781,-1835.69,874.76,95.28
5920,-3.8689,-0.2068,0.7521,1633.06,-390.99,1657.71
5930,-3.8693,-0.2058,0.7119,1539.31,280.82,860.84
5940,-3.8698,-0.1987,0.6599,1664.31,-859.80,-904.91
5950,-3.8701,-0.1829,0.6029,-1429.44,483.95,-1389.34
5960,-3.8704,-0.1320,0.5725,601.81,1187.13,-1576.97
5970,-3.8705,-0.0615,0.5865,-882.57,1296.57,-1123.90
5980,-3.8705,-0.0079,0.6172,133.06,-906.37,1313.60
5990,-3.8705,0.0167,0.6447,-1007.57,-984.44,423.03
6000,-3.8705,0.0027,0.6743,-1851.32,-1484.38,376.22
6010,-3.8705,-0.0579,0.7086,351.81,-1687.50,1126.28
6020,-3.8705,-0.1423,0.7354,601.81,-1281.37,1266.97
6030,-3.8706,-0.2072,0.7368,1789.31,-1859.68,-467.35
6040,-3.8707,-0.2294,0.7139,1492.43,-1672.30,-295.47
6050,-3.8708,-0.2213,0.6781,-1351.32,-609.86,1266.97
6060,-3.8712,-0.2053,0.6327,-320.07,-1187.99,-217.47
6070,-3.8715,-0.1915,0.5842,1726.81,999.57,1251.22
6080,-3.8718,-0.1862,0.5459,-507.57,-1203.55,-186.40
6090,-3.8721,-0.1906,0.5183,179.93,1890.26,-655.21
6100,-3.8723,-0.1971,0.4919,-382.57,-1641.05,-186.52
6110,-3.8724,-0.2045,0.4622,-1226.32,-1016.05,1360.29
6120,-3.8727,-0.2163,0.4374,1836.18,-828.55,-233.52
6130,-3.8728,-0.2311,0.4196,320.56,-0.43,1797.67
6140,-3.8730,-0.2450,0.3969,-1570.07,1718.26,-1436.71
6150,-3.8733,-0.2527,0.3662,648.68,-1187.99,-1139.89
6160,-3.8735,-0.2448,0.3346,-335.69,-1109.92,-733.70
6170,-3.8738,-0.2151,0.3088,679.93,-1156.74,-61.89
6180,-3.8739,-0.1678,0.2842,476.81,-453.55,844.30
6190,-3.8741,-0.1139,0.2510,-1476.32,390.26,-1890.08
6200,-3.8743,-0.0599,0.2103,1429.93,140.38,0.49
6210,-3.8745,-0.0072,0.1676,336.18,-1062.62,-1249.63
6220,-3.8746,0.0355,0.1305,-913.82,1468.69,-1718.44
6230,-3.8748,0.0603,0.1025,554.93,703.19,-1359.13
6240,-3.8748,0.0706,0.0819,-273.19,1125.06,562.68
6250,-3.8748,0.0786,0.0690,1039.31,-1515.50,422.00
6260,-3.8748,0.1046,0.0627,-1929.44,828.25,1953.25
6270,-3.8746,0.1609,0.0546,1398.68,31.43,640.75
6280,-3.8746,0.2401,0.0272,601.81,-1015.32,-749.94
6290,-3.8745,0.3276,-0.0250,-1257.57,-515.20,906.25
6300,-3.8745,0.4166,-0.0811,1945.56,797.49,-1750.06
6310,-3.8744,0.5024,-0.1156,1336.18,1625.79,124.82
6320,-3.8744,0.5732,-0.1219,320.56,1204.10,-1172.12
6330,-3.8743,0.6187,-0.1135,1383.06,391.72,-1812.74
6340,-3.8741,0.6335,-0.1025,-804.44,1469.91,1890.38
6350,-3.8740,0.6173,-0.0848,1101.81,-1123.78,1984.13
6360,-3.8739,0.5858,-0.0618,-976.32,1141.78,-1687.68
6370,-3.8738,0.5641,-0.0477,-1007.57,94.85,-1265.75
6380,-3.8737,0.5648,-0.0415,211.18,1891.72,-109.50
6390,-3.8734,0.5813,-0.0330,304.93,-1311.40,1859.25
6400,-3.8733,0.5969,-0.0190,-1585.69,-217.65,-734.50
6410,-3.8732,0.6034,0.0009,414.31,1563.66,-812.56
6420,-3.8730,0.5916,0.0253,1242.43,110.53,1687.50
6430,-3.8730,0.5529,0.0585,-273.19,-764.53,-921.88
6440,-3.8730,0.5048,0.1058,-1226.32,-514.59,-1062.44
6450,-3.8730,0.4729,0.1542,617.43,1547.85,1812.68
6460,-3.8730,0.4648,0.1851,539.31,-264.71,-1874.76
6470,-3.8729,0.4691,0.2032,-491.94,-311.65,1031.56
6480,-3.8728,0.4719,0.2272,54.93,-1983.46,1500.37
6490,-3.8727,0.4755,0.2666,414.31,1079.04,-749.57
6500,-3.8724,0.4868,0.3157,867.43,-1874.08,-1483.89
6510,-3.8722,0.5055,0.3632,-1679.44,407.17,-874.39
6520,-3.8718,0.5298,0.4067,711.18,-1514.65,1047.55
6530,-3.8715,0.5598,0.4465,-179.44,63.48,610.17
6540,-3.8711,0.6002,0.4838,-335.69,1157.29,-1217.90
6550,-3.8706,0.6508,0.5223,836.18,1923.03,-1045.96
6560,-3.8701,0.7061,0.5570,-695.07,-1139.40,1719.73
6570,-3.8698,0.7632,0.5896,-1616.94,-701.78,1360.41
6580,-3.8695,0.8029,0.6135,1695.56,-529.79,1813.60
6590,-3.8694,0.8085,0.6069,-1226.32,-1467.22,-498.84
6600,-3.8691,0.7899,0.5931,-507.57,1689.03,454.28
6610,-3.8690,0.7621,0.6138,1117.43,-76.60,-1827.03
6620,-3.8688,0.7318,0.6678,1554.93,-1436.04,548.03
6630,-3.8687,0.7084,0.7279,1679.93,1485.78,-717.47
6640,-3.8684,0.7020,0.7732,-1320.07,1173.22,1438.90
6650,-3.8683,0.7242,0.7919,1867.43,-1029.91,1470.21
6660,-3.8683,0.7748,0.7709,711.18,1360.78,-779.72
6670,-3.8682,0.8320,0.7150,-820.07,-1326.66,298.34
6680,-3.8682,0.8737,0.6539,-1491.94,-482.79,1813.84
6690,-3.8682,0.8898,0.6155,-163.82,-295.23,-514.40
6700,-3.8680,0.8781,0.6062,1898.68,-1217.04,423.03
6710,-3.8680,0.8329,0.6123,398.68,1595.46,1.16
6720,-3.8682,0.7452,0.6202,-1382.57,-1623.41,-842.59
6730,-3.8682,0.6304,0.6415,-601.32,-607.97,-30.09
6740,-3.8680,0.5238,0.6910,695.56,-1889.40,-1155.03
6750,-3.8679,0.4476,0.7540,-945.07,454.10,-1326.78
6760,-3.8678,0.4000,0.7999,1304.93,516.48,-1717.29
6770,-3.8677,0.3451,0.8135,-788.82,-1608.64,298.40
6780,-3.8678,0.2506,0.7955,179.93,125.67,-592.16
6790,-3.8679,0.1383,0.7616,86.18,1828.61,-920.35
6800,-3.8680,0.0371,0.7362,1711.18,1484.62,517.09
6810,-3.8683,-0.0533,0.7296,758.06,-1765.56,1970.15
6820,-3.8684,-0.1384,0.7401,1179.93,1406.13,735.78
6830,-3.8687,-0.2120,0.7568,-1710.69,-1250.31,-14.22
6840,-3.8688,-0.2562,0.7614,867.43,890.20,-1623.54
6850,-3.8690,-0.2655,0.7483,-788.82,1468.20,-701.66
6860,-3.8693,-0.2610,0.7273,-1976.32,-203.67,-623.60
6870,-3.8695,-0.2649,0.7136,-1398.19,1108.83,-779.85
6880,-3.8698,-0.2817,0.7086,-1898.19,-641.17,-1248.66
6890,-3.8700,-0.3021,0.7040,-54.44,-1281.86,1923.22
6900,-3.8702,-0.3171,0.6866,1336.18,-1875.61,579.47
6910,-3.8706,-0.3273,0.6423,-585.69,-94.42,-1545.59
6920,-3.8710,-0.3293,0.5791,-1882.57,-1766.30,-248.78
6930,-3.8712,-0.3131,0.5248,1851.81,-1860.05,1110.47
6940,-3.8716,-0.2887,0.4924,-70.07,-813.17,-811.52
6950,-3.8718,-0.2832,0.4650,-945.07,-953.74,-1686.58
6960,-3.8721,-0.2947,0.4369,-241.94,-469.36,-983.52
6970,-3.8722,-0.3082,0.4191,-1710.69,-63.11,1875.79
6980,-3.8723,-0.3158,0.4126,554.93,1655.64,-1171.08
6990,-3.8723,-0.2938,0.4150,-413.82,827.45,438.29
7000,-3.8724,-0.2373,0.4167,-1601.32,1140.01,422.67
7010,-3.8727,-0.1769,0.3992,1633.06,1358.89,1985.17
7020,-3.8729,-0.1340,0.3540,1367.43,-890.99,1844.48
7030,-3.8732,-0.1071,0.2876,-1148.19,1327.82,703.80
7040,-3.8735,-0.0890,0.2189,-1695.07,827.88,-890.08
7050,-3.8738,-0.0734,0.1698,617.43,31.07,-1874.57
7060,-3.8740,-0.0531,0.1455,-1382.57,1749.82,-1640.32
7070,-3.8743,-0.0271,0.1328,1211.18,-1359.50,-187.26
7080,-3.8744,-0.0037,0.1230,539.31,1015.56,-1343.51
7090,-3.8745,0.0071,0.1180,-460.69,-234.44,-921.69
7100,-3.8745,0.0076,0.1224,914.31,-890.62,1406.43
7110,-3.8745,0.0077,0.1372,976.81,-328.12,1937.68
7120,-3.8745,0.0194,0.1501,992.43,1562.50,-406.01
7130,-3.8744,0.0482,0.1448,-1507.57,-781.25,390.87
7140,-3.8745,0.0854,0.1160,-1820.07,-1468.69,-499.76
7150,-3.8745,0.1166,0.0740,-1054.44,-1156.13,1406.43
7160,-3.8746,0.1365,0.0391,-1070.07,1468.93,-921.75
7170,-3.8746,0.1478,0.0262,1476.81,1000.24,1343.81
7180,-3.8746,0.1549,0.0400,-1070.07,-640.38,1093.75
7190,-3.8746,0.1592,0.0762,-163.82,1125.24,-1468.69
7200,-3.8745,0.1599,0.1188,383.06,1750.31,750.12
7210,-3.8745,0.1671,0.1417,476.81,-796.57,-1562.32
7220,-3.8745,0.1874,0.1343,1398.68,-1859.07,-577.88
7230,-3.8744,0.2157,0.1136,-7.57,1187.81,468.99
7240,-3.8744,0.2535,0.0970,-382.57,-1452.76,-1093.57
7250,-3.8741,0.3076,0.0896,461.18,422.36,1468.93
7260,-3.8739,0.3811,0.1049,-616.94,-530.70,-140.50
7270,-3.8735,0.4714,0.1528,789.31,1422.61,1859.56
7280,-3.8733,0.5566,0.2103,351.81,-436.58,156.49
7290,-3.8733,0.6023,0.2416,-741.94,-1077.09,-1687.13
7300,-3.8733,0.5913,0.2369,1101.81,-1076.97,1969.18
7310,-3.8733,0.5419,0.2180,-304.44,-1670.78,1344.18
7320,-3.8733,0.4935,0.2229,1367.43,-92.71,-1593.38
7330,-3.8732,0.4791,0.2675,-820.07,532.17,-1983.95
7340,-3.8729,0.5026,0.3351,1336.18,-1764.71,797.36
7350,-3.8727,0.5398,0.4133,336.18,-1108.40,1656.86
7360,-3.8724,0.5706,0.4869,1101.81,907.29,969.54
7370,-3.8723,0.5868,0.5210,1039.31,-1670.78,79.04
7380,-3.8723,0.5801,0.5018,-882.57,-1311.40,79.10
7390,-3.8723,0.5592,0.4644,-1741.94,235.47,1782.23
7400,-3.8721,0.5590,0.4552,-413.82,-561.46,1422.73
7410,-3.8717,0.6053,0.4888,-445.07,-1733.34,-1796.02
7420,-3.8712,0.6963,0.5457,1492.43,-1436.34,1032.17
7430,-3.8707,0.8073,0.6138,1133.06,1845.09,407.29
7440,-3.8702,0.8871,0.6807,-663.82,-1435.97,32.41
7450,-3.8698,0.8854,0.7151,1554.93,-873.29,110.66
7460,-3.8693,0.8036,0.7214,1336.18,-467.04,813.84
7470,-3.8688,0.7015,0.7336,-1132.57,345.28,1860.78
7480,-3.8683,0.6548,0.7535,1804.93,1907.59,1142.03
7490,-3.8679,0.6935,0.7551,-179.44,454.35,548.34
7500,-3.8677,0.7832,0.7283,773.68,657.59,251.46
7510,-3.8676,0.8658,0.6910,258.06,1220.28,1438.90
7520,-3.8674,0.8915,0.6729,-1163.82,454.77,1907.59
7530,-3.8673,0.8459,0.6998,-1882.57,-1873.29,-123.72
7540,-3.8671,0.7494,0.7815,289.31,1579.77,-76.78
7550,-3.8667,0.6097,0.9143,-70.07,32.65,1314.03
7560,-3.8665,0.4297,1.0768,-1945.07,1032.41,-404.48
7570,-3.8661,0.2393,1.2101,-991.94,1828.92,564.58
7580,-3.8660,0.0813,1.2462,-1366.94,-1108.95,1642.94
7590,-3.8660,-0.0178,1.1897,-1585.69,-484.25,-1122.62
7600,-3.8661,-0.0652,1.1085,1726.81,296.81,-185.18
7610,-3.8663,-0.0938,1.0424,-335.69,1906.07,-1263.49
7620,-3.8667,-0.1323,0.9905,8.06,1437.32,814.51
7630,-3.8672,-0.1904,0.9509,-929.44,-1203.43,1330.02
7640,-3.8677,-0.2637,0.9209,-366.94,1733.95,-1091.92
7650,-3.8680,-0.3474,0.8962,-1741.94,1890.08,-1373.23
7660,-3.8683,-0.4458,0.8906,-460.69,-1266.36,95.46
7670,-3.8687,-0.5457,0.9084,-1054.44,-1985.29,-1982.67
7680,-3.8690,-0.6036,0.9166,-1835.69,295.78,-1076.35
7690,-3.8694,-0.5950,0.8967,-1257.57,1342.53,-1482.60
7700,-3.8698,-0.5408,0.8730,-148.19,-1204.35,1298.58
7710,-3.8702,-0.4807,0.8624,-1210.69,-235.47,-717.10
7720,-3.8706,-0.4391,0.8501,-1523.19,-1594.73,1064.15
7730,-3.8711,-0.4243,0.8069,-195.07,827.21,-482.73
7740,-3.8715,-0.4379,0.7168,1695.56,-703.98,-326.60
7750,-3.8717,-0.4648,0.5966,-38.82,-235.29,1938.84
7760,-3.8719,-0.4841,0.4932,508.06,374.08,1985.53
7770,-3.8721,-0.4827,0.4484,-1960.69,-860.35,235.29
7780,-3.8722,-0.4617,0.4480,-1773.19,1405.27,344.60
7790,-3.8723,-0.4268,0.4441,914.31,1358.46,860.23
7800,-3.8724,-0.3761,0.4335,1383.06,858.52,1391.48
7810,-3.8726,-0.3148,0.4302,-132.57,-500.79,-1858.58
7820,-3.8727,-0.2611,0.4121,-288.82,-922.55,-1467.96
7830,-3.8728,-0.2284,0.3701,-1413.82,765.08,-1796.08
7840,-3.8729,-0.2174,0.3174,-1226.32,-609.86,625.67
7850,-3.8732,-0.2231,0.2627,179.93,640.20,-1983.76
7860,-3.8734,-0.2373,0.2219,-554.44,1640.14,-265.14
7870,-3.8735,-0.2529,0.2035,1633.06,421.39,-1468.32
7880,-3.8737,-0.2640,0.2040,-366.94,-1938.05,-1265.26
7890,-3.8738,-0.2628,0.2231,-1788.82,-1875.55,-93.38
7900,-3.8738,-0.2477,0.2505,-1632.57,577.58,1062.93
7910,-3.8739,-0.2255,0.2662,304.93,77.64,1781.74
7920,-3.8740,-0.2042,0.2604,-851.32,-1906.74,-1749.51
7930,-3.8741,-0.1858,0.2383,1867.43,1343.32,-1437.01
7940,-3.8743,-0.1707,0.2118,226.81,-1484.74,-1718.32
7950,-3.8744,-0.1620,0.1761,-1835.69,-875.37,1125.37
7960,-3.8745,-0.1569,0.1261,-726.32,-1437.87,406.56
7970,-3.8746,-0.1385,0.0801,-70.07,155.88,1531.49
7980,-3.8746,-0.0874,0.0566,-1726.32,-1734.68,656.37
7990,-3.8746,-0.0092,0.0493,820.56,-734.56,1250.06
8000,-3.8746,0.0671,0.0424,-1163.82,-1671.94,-1687.44
8010,-3.8746,0.1281,0.0304,601.81,1422.00,-687.44
8020,-3.8745,0.1770,0.0150,398.68,-109.13,656.25
8030,-3.8745,0.2141,0.0000,-1335.69,1922.18,-1593.75
8040,-3.8744,0.2419,-0.0115,-585.69,0.37,187.50
8050,-3.8744,0.2639,-0.0181,-1023.19,-1468.32,1890.56
8060,-3.8743,0.2825,-0.0146,1789.31,1687.99,312.44
8070,-3.8741,0.2998,0.0039,164.31,-1874.45,499.94
8080,-3.8740,0.3164,0.0375,-1616.94,500.55,-1031.25
8090,-3.8738,0.3325,0.0795,508.06,797.49,-890.56
8100,-3.8735,0.3503,0.1198,-1429.44,-1827.51,-671.75
8110,-3.8733,0.3705,0.1516,851.81,-671.20,-1609.19
8120,-3.8732,0.3883,0.1674,-570.07,-593.08,-46.63
8130,-3.8729,0.4010,0.1670,1711.18,1422.61,1172.18
8140,-3.8728,0.4175,0.1707,-663.82,1375.73,-515.32
8150,-3.8726,0.4510,0.1981,1445.56,1844.54,-890.32
8160,-3.8722,0.5066,0.2473,1742.43,1360.23,156.62
8170,-3.8719,0.5785,0.3037,851.81,-342.77,-1874.57
8180,-3.8717,0.6582,0.3585,-1945.07,-1123.90,-61.95
8190,-3.8713,0.7325,0.4001,258.06,1891.91,375.67
8200,-3.8712,0.7827,0.4139,1773.68,-779.85,-1124.27
8210,-3.8710,0.7946,0.4062,195.56,985.90,1047.67
8220,-3.8707,0.7765,0.4066,1711.18,1.53,797.67
8230,-3.8705,0.7548,0.4353,-601.32,48.34,1828.92
8240,-3.8702,0.7483,0.4912,617.43,-279.79,-1030.46
8250,-3.8700,0.7610,0.5604,-210.69,-1123.60,-874.08
8260,-3.8698,0.7856,0.6144,1414.31,-264.16,1157.29
8270,-3.8696,0.8024,0.6277,570.56,-1357.85,1157.41
8280,-3.8695,0.7905,0.6124,-1288.82,345.28,1048.10
8290,-3.8694,0.7484,0.5964,1195.56,-1607.85,-1467.59
8300,-3.8691,0.6871,0.5875,-195.07,345.15,891.78
8310,-3.8690,0.6187,0.5903,-38.82,-795.59,-811.40
8320,-3.8688,0.5594,0.6178,-804.44,-436.34,1641.72
8330,-3.8687,0.5223,0.6678,-382.57,-920.84,-842.59
8340,-3.8685,0.5067,0.7194,-1132.57,1485.35,-1483.09
8350,-3.8684,0.5016,0.7560,867.43,79.10,1032.65
8360,-3.8683,0.4901,0.7847,211.18,766.60,360.84
8370,-3.8682,0.4502,0.8241,-1257.57,438.42,235.90
8380,-3.8682,0.3625,0.8822,1633.06,1485.23,-514.04
8390,-3.8680,0.2252,0.9603,-1585.69,922.55,1423.58
8400,-3.8680,0.0482,1.0547,836.18,-1077.70,-1935.67
8410,-3.8680,-0.1581,1.1503,-1820.07,-999.94,908.26
8420,-3.8682,-0.3710,1.2118,-226.32,-750.37,-1982.18
8430,-3.8683,-0.5298,1.2095,523.68,-875.73,-1294.56
8440,-3.8684,-0.5748,1.1458,195.56,-1172.91,-1060.18
8450,-3.8685,-0.5206,1.0540,-1570.07,-1329.28,799.07
8460,-3.8689,-0.4358,0.9803,1367.43,-1079.16,-576.11
8470,-3.8691,-0.3707,0.9431,226.81,1499.15,1.89
8480,-3.8695,-0.3440,0.9369,554.93,733.64,1267.46
8490,-3.8698,-0.3633,0.9503,-23.19,-63.23,1548.65
8500,-3.8699,-0.4264,0.9590,1508.06,1655.52,-1670.04
8510,-3.8699,-0.5128,0.9457,1429.93,-1235.23,-920.04
8520,-3.8698,-0.5902,0.9114,-1632.57,1061.46,79.96
8530,-3.8699,-0.6281,0.8595,461.18,670.72,1626.77
8540,-3.8701,-0.6125,0.7976,-382.57,-1970.03,-1967.10
8550,-3.8705,-0.5651,0.7334,1601.81,-1891.85,-1576.60
8560,-3.8708,-0.5129,0.6655,-320.07,1889.47,1532.65
8570,-3.8712,-0.4667,0.5919,-1648.19,1202.09,1173.16
8580,-3.8716,-0.4386,0.5275,273.68,-219.67,-1108.28
8590,-3.8718,-0.4321,0.4904,-132.57,-469.67,-920.90
8600,-3.8719,-0.4360,0.4779,695.56,-1219.60,1672.79
8610,-3.8721,-0.4440,0.4756,195.56,1186.65,-1124.08
8620,-3.8721,-0.4594,0.4773,-820.07,889.71,1969.67
8630,-3.8721,-0.4788,0.4780,1211.18,1108.46,391.54
8640,-3.8723,-0.4895,0.4681,-1273.19,1202.15,-249.08
8650,-3.8724,-0.4865,0.4431,1351.81,-63.48,625.85
8660,-3.8727,-0.4740,0.3997,1742.43,733.40,391.48
8670,-3.8729,-0.4602,0.3517,-663.82,-829.10,625.73
8680,-3.8732,-0.4387,0.3367,1101.81,1030.33,-671.20
8690,-3.8732,-0.3889,0.3630,-148.19,-891.54,656.86
8700,-3.8733,-0.3068,0.4050,-1773.19,-1516.42,-530.58
8710,-3.8733,-0.2125,0.4377,742.43,-141.24,-1749.27
8720,-3.8734,-0.1277,0.4344,804.93,46.45,-1186.65
8730,-3.8735,-0.0618,0.3875,-335.69,-375.31,844.54
8740,-3.8738,-0.0181,0.3192,101.81,1609.25,-1780.52
8750,-3.8740,0.0065,0.2535,1695.56,874.94,-749.39
8760,-3.8743,0.0176,0.1992,836.18,453.12,-1202.64
8770,-3.8745,0.0258,0.1523,-1741.94,1500.00,1031.62
8780,-3.8748,0.0460,0.1069,-695.07,-500.00,281.49
8790,-3.8750,0.0917,0.0674,1898.68,1687.56,-1249.82
8800,-3.8750,0.1653,0.0442,-257.57,625.12,437.62
8810,-3.8439,0.2491,0.0393,1164.31,1656.56,-374.94
8820,-3.8439,0.3152,0.0488,-101.32,1031.68,-906.19
8830,-3.8439,0.3483,0.0657,351.81,-1749.39,-1093.69
8840,-3.8439,0.3558,0.0763,586.18,406.92,-359.25
8850,-3.8750,0.3605,0.0695,1554.93,1766.30,-374.88
8860,-3.8746,0.3846,0.0612,-1851.32,891.30,875.12
8870,-3.8743,0.4387,0.0851,1242.43,-171.14,1296.94
8880,-3.8739,0.5143,0.1442,164.31,-1108.52,672.00
8890,-3.8737,0.5887,0.2034,1836.18,-1545.90,609.62
8900,-3.8735,0.6449,0.2356,-632.57,-1967.65,1359.74
8910,-3.8734,0.6799,0.2462,-1445.07,-1842.53,1078.55
8920,-3.8733,0.7029,0.2518,-960.69,-483.09,-1062.07
8930,-3.8729,0.7280,0.2640,1976.81,235.72,1234.86
8940,-3.8726,0.7623,0.2921,1195.56,1798.28,-327.64
8950,-3.8721,0.8060,0.3372,1586.18,1392.09,-436.95
8960,-3.8716,0.8527,0.3790,-820.07,-842.22,1828.74
8970,-3.8712,0.8805,0.3944,1148.68,517.27,1828.86
8980,-3.8708,0.8721,0.3958,711.18,-1513.92,828.86
8990,-3.8706,0.8369,0.4155,-366.94,-1342.10,-405.52
9000,-3.8702,0.7955,0.4679,-866.94,1189.09,1875.79
9010,-3.8700,0.7573,0.5377,1836.18,-107.85,-921.02
9020,-3.8698,0.7267,0.5858,945.56,829.59,-780.21
9030,-3.8695,0.7070,0.5865,1023.68,-1014.22,-1233.28
9040,-3.8693,0.6953,0.5640,-1491.94,-920.53,1485.47
9050,-3.8691,0.6843,0.5677,1008.06,188.84,-217.65
9060,-3.8689,0.6633,0.6195,-398.19,673.16,-827.03
9070,-3.8685,0.6234,0.6949,914.31,-701.84,735.53
9080,-3.8683,0.5654,0.7632,-195.07,954.28,-326.78
9090,-3.8679,0.5002,0.8088,383.06,1688.60,-1436.04
9100,-3.8677,0.4480,0.8201,39.31,-467.77,-498.47
9110,-3.8674,0.4225,0.8054,1351.81,969.60,595.34
9120,-3.8674,0.4194,0.7860,-1913.82,-905.46,1032.78
9130,-3.8676,0.4283,0.7747,1695.56,610.17,907.78
9140,-3.8678,0.4380,0.7772,-1163.82,-842.96,1485.84
9150,-3.8682,0.4392,0.7953,70.56,-514.77,-311.04
9160,-3.8684,0.4159,0.8273,226.81,1797.73,110.90
9170,-3.8688,0.3492,0.8641,1242.43,1891.42,751.59
9180,-3.8691,0.2413,0.9030,711.18,-1389.95,-357.73
9190,-3.8693,0.1132,0.9456,-1101.32,-421.45,1939.21
9200,-3.8694,-0.0228,0.9901,-1507.57,1031.43,-795.04
9210,-3.8694,-0.1827,1.0444,1086.18,-1250.06,1720.64
9220,-3.8694,-0.3978,1.1248,617.43,1702.76,1564.51
9230,-3.8694,-0.6362,1.2212,1086.18,-16.42,-1513.49
9240,-3.8694,-0.7914,1.2828,-1429.44,326.84,-1638.24
9250,-3.8695,-0.8033,1.2640,-1288.82,217.16,-685.00
9260,-3.8696,-0.7075,1.1744,1179.93,1810.91,1049.32
9270,-3.8699,-0.5775,1.0618,1445.56,-1657.65,64.76
9280,-3.8702,-0.4673,0.9645,-1913.82,-79.28,1486.39
9290,-3.8706,-0.3964,0.8995,195.56,-532.17,-45.04
9300,-3.8707,-0.3673,0.8668,1273.68,-844.54,845.46
9310,-3.8710,-0.3781,0.8567,992.43,-1031.98,-138.98
9320,-3.8710,-0.4164,0.8621,-382.57,1671.08,626.65
9330,-3.8711,-0.4608,0.8716,-1288.82,-1641.48,1767.27
9340,-3.8712,-0.4940,0.8704,1023.68,-422.79,1954.77
9350,-3.8713,-0.5011,0.8531,773.68,-579.10,657.90
9360,-3.8716,-0.4775,0.8168,-132.57,1217.71,1236.02
9370,-3.8719,-0.4357,0.7638,-1116.94,561.52,-14.04
9380,-3.8722,-0.3887,0.7076,242.43,1780.40,1985.84
9390,-3.8724,-0.3430,0.6569,-1741.94,-1407.04,16.97
9400,-3.8728,-0.3025,0.6105,101.81,93.08,-1311.22
9410,-3.8730,-0.2683,0.5735,1289.31,-1844.36,-1733.22
9420,-3.8733,-0.2361,0.5505,1664.31,1421.33,-983.28
9430,-3.8734,-0.2046,0.5413,1789.31,-1516.11,1126.04
9440,-3.8737,-0.1755,0.5447,1820.56,1296.45,-217.71
9450,-3.8738,-0.1516,0.5411,1539.31,1734.01,1532.29
9460,-3.8740,-0.1327,0.5120,601.81,1280.94,-1686.46
9470,-3.8743,-0.1156,0.4644,-976.32,1546.57,-655.27
9480,-3.8744,-0.0990,0.4098,1211.18,-547.12,1157.10
9490,-3.8746,-0.0807,0.3549,-663.82,468.51,-421.08
9500,-3.8748,-0.0565,0.3053,1679.93,1437.32,-624.33
9510,-3.8748,-0.0309,0.2632,773.68,-906.37,578.67
9520,-3.8749,-0.0039,0.2251,54.93,1703.06,-1327.64
9530,-3.8749,0.0319,0.1887,-491.94,828.06,-1437.07
9540,-3.8748,0.0729,0.1541,86.18,156.31,125.37
9550,-3.8748,0.1134,0.1177,1336.18,-281.13,-1968.51
9560,-3.8748,0.1542,0.0768,-1476.32,-937.32,-109.19
9570,-3.8746,0.1898,0.0322,-257.57,1828.37,1953.25
9580,-3.8745,0.2144,-0.0087,304.93,125.37,703.19
9590,-3.8744,0.2429,-0.0356,-554.44,-1109.01,249.94
9600,-3.8744,0.2870,-0.0411,-898.19,-562.07,-31.37
9610,-3.8743,0.3304,-0.0208,742.43,-1265.08,-797.00
9620,-3.8741,0.3573,0.0212,-1695.07,1344.36,1593.69
9630,-3.8741,0.3750,0.0659,1742.43,-1280.58,-437.50
9640,-3.8740,0.4005,0.0898,8.06,438.23,-890.50
9650,-3.8738,0.4413,0.0790,-726.32,-499.27,1750.12
9660,-3.8735,0.5054,0.0533,492.43,-1889.77,-609.25
9670,-3.8732,0.6088,0.0743,695.56,-1170.90,-468.69
9680,-3.8728,0.7334,0.1411,1929.93,1516.78,-187.38
9690,-3.8726,0.8232,0.1794,1883.06,-1936.10,-468.51
9700,-3.8724,0.8427,0.1652,1383.06,-1029.66,-1796.57
9710,-3.8723,0.8019,0.1294,-132.57,1142.21,719.06
9720,-3.8722,0.7358,0.1035,-1351.32,564.03,1140.87
9730,-3.8721,0.6786,0.1117,-1804.44,1251.40,-874.82
9740,-3.8718,0.6427,0.1619,-1132.57,-1701.84,-1046.69
9750,-3.8715,0.6196,0.2367,-1726.32,719.97,1922.18
9760,-3.8710,0.6028,0.3240,-679.44,-1701.97,656.68
9770,-3.8705,0.6033,0.4081,1164.31,1469.91,1156.86
9780,-3.8700,0.6329,0.4655,1226.81,235.53,1907.04
9790,-3.8695,0.6836,0.5006,1023.68,-420.65,-1733.52
9800,-3.8690,0.7395,0.5308,-491.94,79.41,-1686.52
9810,-3.8685,0.7864,0.5798,-1335.69,-61.10,-1170.90
9820,-3.8680,0.8065,0.6627,664.31,-1779.72,-702.03
9830,-3.8676,0.7905,0.7493,-757.57,829.65,-1701.84
9840,-3.8672,0.7491,0.8015,1195.56,-92.22,-1201.72
9850,-3.8669,0.6926,0.8094,-101.32,-1404.85,-139.10
9860,-3.8667,0.6119,0.7952,664.31,-389.28,1267.15
9870,-3.8667,0.4968,0.7990,-1663.82,1782.41,-185.97
9880,-3.8666,0.3390,0.8523,-398.19,-1733.46,673.40
9890,-3.8666,0.1652,0.9410,-601.32,1094.36,1048.52
9900,-3.8667,0.0508,1.0085,1148.68,453.43,-76.29
9910,-3.8668,0.0212,1.0172,-1491.94,1093.81,-591.80
9920,-3.8671,0.0320,0.9719,-1273.19,-1796.88,-560.55
9930,-3.8673,0.0409,0.9020,101.81,406.31,1642.52
9940,-3.8676,0.0251,0.8488,1242.43,-546.81,657.96
9950,-3.8678,-0.0323,0.8470,-773.19,640.62,1939.15
9960,-3.8679,-0.1343,0.8949,-132.57,437.38,1126.65
9970,-3.8680,-0.2582,0.9563,-1179.44,-1437.81,470.46
9980,-3.8683,-0.3680,0.9905,-1038.82,-1578.67,1970.58
9990,-3.8685,-0.4388,0.9812,898.68,-1203.86,595.64
10000,-3.8689,-0.4663,0.9380,-163.82,1608.46,501.89
10010,-3.8694,-0.4576,0.8851,320.56,77.21,-1060.67
10020,-3.8698,-0.4259,0.8461,1429.93,1311.58,1642.33
10030,-3.8701,-0.3876,0.8192,1492.43,311.65,1001.65
10040,-3.8705,-0.3545,0.7894,-1601.32,874.21,564.09
10050,-3.8708,-0.3331,0.7561,-1366.94,1061.77,79.65
10060,-3.8713,-0.3265,0.7250,1367.43,796.20,-217.29
10070,-3.8717,-0.3275,0.6947,-1788.82,811.83,-654.85
10080,-3.8721,-0.3264,0.6652,-1913.82,936.83,-1264.28
10090,-3.8724,-0.3229,0.6410,-1773.19,1155.58,-1201.84
10100,-3.8727,-0.3188,0.6248,-1320.07,-1938.17,32.47
10110,-3.8730,-0.3148,0.6091,-804.44,-16.30,-1717.59
10120,-3.8733,-0.3109,0.5859,-288.82,1983.70,1235.53
10130,-3.8735,-0.3026,0.5529,211.18,-984.99,626.10
10140,-3.8738,-0.2830,0.5129,1273.68,-1219.36,704.16
10150,-3.8740,-0.2429,0.4808,-210.69,1671.26,-1702.15
10160,-3.8741,-0.1833,0.4674,914.31,1562.01,1454.04
10170,-3.8743,-0.1149,0.4639,539.31,-156.62,1703.98
10180,-3.8744,-0.0470,0.4520,1304.93,-609.62,-827.27
10190,-3.8744,0.0125,0.4319,1992.43,1874.88,-1702.27
10200,-3.8744,0.0569,0.4159,1601.81,-718.75,-1702.33
10210,-3.8744,0.0829,0.3950,-710.69,1234.44,1266.42
10220,-3.8745,0.0995,0.3480,-1382.57,-1437.38,-1233.64
10230,-3.8746,0.1232,0.2849,742.43,547.06,-30.58
10240,-3.8746,0.1655,0.2343,-226.32,468.93,-1905.70
10250,-3.8746,0.2227,0.2035,1195.56,1984.68,1609.80
10260,-3.8746,0.2797,0.1835,508.06,-1952.70,-1546.51
10270,-3.8745,0.3254,0.1622,-195.07,-515.14,187.81
10280,-3.8745,0.3595,0.1219,1664.31,766.24,-1952.82
10290,-3.8745,0.3964,0.0480,-1976.32,-389.95,-1296.69
10300,-3.8745,0.4529,-0.0446,-1257.57,-1858.64,1000.06
10310,-3.8746,0.5197,-0.1233,1976.81,-1702.27,-1437.62
10320,-3.8746,0.5758,-0.1685,-1476.32,219.73,-1656.49
10330,-3.8745,0.6179,-0.1738,1711.18,-1561.40,1437.13
10340,-3.8744,0.6554,-0.1479,-898.19,1751.16,-812.87
10350,-3.8741,0.6956,-0.1053,-101.32,1063.72,-1265.93
10360,-3.8739,0.7323,-0.0712,1039.31,-1483.03,-1093.99
10370,-3.8737,0.7542,-0.0748,1742.43,-1107.97,-1578.31
10380,-3.8734,0.7689,-0.1154,539.31,-1576.66,1359.19
10390,-3.8732,0.7968,-0.1584,-1570.07,1235.84,312.26
10400,-3.8730,0.8386,-0.1642,1992.43,-279.72,-578.49
10410,-3.8728,0.8801,-0.1180,-648.19,-1014.04,-297.24
10420,-3.8724,0.9283,-0.0280,664.31,892.33,-1906.49
10430,-3.8721,0.9979,0.1093,-1163.82,423.65,-1625.06
10440,-3.8717,1.0695,0.3016,-257.57,1986.27,-718.57
10450,-3.8713,1.0968,0.5236,898.68,-1388.55,-608.83
10460,-3.8708,1.0339,0.7251,398.68,-982.24,1297.85
10470,-3.8702,0.8621,0.8779,351.81,814.51,1735.78
10480,-3.8694,0.6090,1.0034,-1648.19,376.65,861.08
10490,-3.8685,0.3730,1.1334,1961.18,438.66,533.20
10500,-3.8679,0.2596,1.2534,-241.94,1078.80,1283.45
10510,-3.8676,0.2798,1.3254,1242.43,437.99,1002.44
10520,-3.8674,0.3712,1.3552,-179.44,1656.74,1330.69
10530,-3.8674,0.4668,1.3785,-476.32,1469.42,1252.62
10540,-3.8674,0.5083,1.4172,-241.94,453.98,908.94
10550,-3.8674,0.4531,1.4788,1070.56,1407.23,-700.38
10560,-3.8673,0.3053,1.5358,-1991.94,1282.10,-169.01
10570,-3.8671,0.0933,1.5646,-913.82,578.67,487.37
10580,-3.8671,-0.1636,1.5684,-54.44,265.75,-1762.57
10590,-3.8672,-0.4125,1.5481,-929.44,765.26,-996.95
10600,-3.8674,-0.5684,1.5034,-788.82,-1828.98,-481.38
10610,-3.8677,-0.5986,1.4323,-741.94,451.97,1065.43
10620,-3.8680,-0.5469,1.3375,-616.94,-657.47,534.00
10630,-3.8685,-0.4795,1.2323,-1991.94,-782.35,-1825.56
10640,-3.8689,-0.4371,1.1371,-1366.94,1749.02,33.63
10650,-3.8694,-0.4271,1.0754,54.93,1561.65,-279.05
10660,-3.8698,-0.4445,1.0442,1336.18,1671.02,-341.67
10670,-3.8701,-0.5186,1.0312,-882.57,1670.96,-685.49
10680,-3.8704,-0.6899,1.0380,1633.06,14.59,1002.01
10690,-3.8706,-0.9043,1.0469,-304.44,873.60,1205.14
10700,-3.8708,-1.0284,1.0262,258.06,-1986.15,1392.64
10710,-3.8711,-0.9742,0.9658,367.43,-627.01,189.45
10720,-3.8715,-0.7778,0.8872,-695.07,-361.33,1611.21
10730,-3.8718,-0.5684,0.8019,445.56,1576.60,1142.33
10740,-3.8722,-0.4396,0.7096,-741.94,-1344.91,329.65
10750,-3.8726,-0.3909,0.6307,-257.57,-1157.17,-1858.03
10760,-3.8728,-0.3824,0.5872,1976.81,749.21,-889.40
10770,-3.8729,-0.3884,0.5759,-945.07,-828.92,1766.72
10780,-3.8730,-0.3992,0.5736,-1710.69,1733.58,829.22
10790,-3.8733,-0.4033,0.5602,914.31,1436.71,-45.78
10800,-3.8734,-0.3937,0.5396,383.06,-282.04,-1420.84
10810,-3.8735,-0.3777,0.5215,1617.43,1077.33,501.04
10820,-3.8738,-0.3646,0.5055,-335.69,-1235.17,1891.60
10830,-3.8740,-0.3566,0.4863,1336.18,718.02,-1014.65
10840,-3.8741,-0.3507,0.4631,-1632.57,-1735.11,266.54
10850,-3.8744,-0.3356,0.4342,-882.57,-703.86,1735.23
10860,-3.8746,-0.3018,0.3953,1054.93,-406.92,-514.83
10870,-3.8748,-0.2489,0.3431,1383.06,-1391.24,-1608.64
10880,-3.8749,-0.1797,0.2821,148.68,-62.99,-640.01
10890,-3.8749,-0.1050,0.2299,1008.06,124.63,-1233.83
10900,-3.8749,-0.0405,0.1967,-1429.44,1437.26,-296.45
10910,-3.8748,0.0059,0.1772,-1179.44,1187.38,422.24
10920,-3.8748,0.0376,0.1632,758.06,-1312.50,500.31
10930,-3.8748,0.0637,0.1477,820.56,890.69,859.68
10940,-3.8748,0.0905,0.1273,164.31,-1093.63,1859.62
10950,-3.8748,0.1184,0.1022,-413.82,297.00,-765.38
10960,-3.8746,0.1489,0.0807,-835.69,1078.31,1078.31
10970,-3.8746,0.1813,0.0741,-929.44,-1671.63,-374.88
10980,-3.8745,0.2118,0.0837,-788.82,1484.68,-1109.25
10990,-3.8744,0.2419,0.1064,-882.57,-1280.88,-749.88
11000,-3.8741,0.2770,0.1426,-1023.19,1625.43,718.93
11010,-3.8740,0.3143,0.1857,-538.82,-1749.51,1656.49
11020,-3.8739,0.3458,0.2261,242.43,-233.76,1437.81
11030,-3.8738,0.3699,0.2620,273.68,938.17,1812.93
11040,-3.8735,0.3889,0.3026,-648.19,1531.92,656.74
11050,-3.8733,0.4030,0.3462,1789.31,-1264.89,-1499.45
11060,-3.8729,0.4098,0.3617,-413.82,313.23,1985.05
11070,-3.8726,0.4126,0.3274,461.18,-1702.33,1750.67
11080,-3.8722,0.4171,0.2726,820.56,1907.04,1359.99
11090,-3.8718,0.4359,0.2360,1398.68,-1108.58,937.99
11100,-3.8715,0.4768,0.2311,-195.07,-1796.08,1687.93
11110,-3.8710,0.5259,0.2671,1039.31,1579.04,78.55
11120,-3.8706,0.5712,0.3491,-679.44,-1811.52,-1202.64
11130,-3.8702,0.6000,0.4532,1117.43,688.60,-608.70
11140,-3.8699,0.5916,0.5187,804.93,-1983.22,594.60
11150,-3.8698,0.5410,0.5096,-273.19,-1608.28,-327.15
11160,-3.8695,0.4650,0.4591,1258.06,1235.41,-1499.02
11170,-3.8693,0.4012,0.4269,-476.32,-1233.52,-1514.77
11180,-3.8689,0.3794,0.4447,-632.57,-1358.64,485.17
11190,-3.8685,0.3805,0.5081,570.56,922.61,766.48
11200,-3.8682,0.3722,0.5875,711.18,1031.98,1610.35
11210,-3.8679,0.3560,0.6364,-351.32,-796.20,-483.28
11220,-3.8677,0.3417,0.6427,1570.56,1453.80,1204.35
11230,-3.8676,0.3262,0.6392,-257.57,-1733.76,657.47
11240,-3.8676,0.3105,0.6434,1758.06,1813.11,-436.28
11250,-3.8674,0.2969,0.6444,-241.94,-1640.08,-1826.90
11260,-3.8674,0.2847,0.6277,-1991.94,-1515.08,-264.40
11270,-3.8674,0.2765,0.6051,445.56,344.30,-1217.53
11280,-3.8676,0.2683,0.6063,-601.32,1453.61,-1405.09
11290,-3.8678,0.2510,0.6372,-1648.19,1609.86,-1108.22
11300,-3.8680,0.2190,0.6807,133.06,1562.99,266.85
11310,-3.8684,0.1686,0.7207,39.31,-874.57,63.78
11320,-3.8689,0.1006,0.7533,1586.18,250.31,-1170.47
11330,-3.8693,0.0098,0.7849,883.06,422.06,267.09
11340,-3.8698,-0.1339,0.8234,1258.06,468.75,1220.28
11350,-3.8701,-0.3420,0.8745,-1132.57,1405.94,798.46
11360,-3.8704,-0.5729,0.9401,226.81,-47.55,1423.52
11370,-3.8705,-0.7660,1.0031,-1320.07,342.59,-763.79
11380,-3.8704,-0.8844,1.0349,1961.18,404.72,1048.83
11390,-3.8704,-0.9288,1.0222,-1195.07,482.60,-76.11
11400,-3.8702,-0.9199,0.9752,1117.43,-1142.46,314.45
11410,-3.8704,-0.8760,0.9128,-1741.94,841.92,1017.52
11420,-3.8706,-0.8220,0.8480,-116.94,857.60,-857.60
11430,-3.8708,-0.7902,0.7858,-1210.69,560.85,-357.73
11440,-3.8711,-0.7827,0.7312,-1132.57,592.16,-717.22
11450,-3.8713,-0.7783,0.6881,-179.44,1607.79,-1357.97
11460,-3.8716,-0.7719,0.6553,383.06,92.22,-1311.16
11470,-3.8717,-0.7666,0.6318,1211.18,-110.90,735.60
11480,-3.8718,-0.7570,0.6185,1883.06,889.10,32.47
11490,-3.8721,-0.7336,0.6124,-882.57,-814.03,-1045.72
11500,-3.8722,-0.6964,0.6075,-1898.19,-1595.21,1188.66
11510,-3.8724,-0.6497,0.6051,-1132.57,1779.85,-764.47
11520,-3.8726,-0.6007,0.6023,851.81,1467.47,1501.16
11530,-3.8727,-0.5553,0.5898,-882.57,1108.15,251.16
11540,-3.8729,-0.5109,0.5667,929.93,-485.47,-1014.53
11550,-3.8730,-0.4626,0.5402,-1382.57,545.84,719.85
11560,-3.8733,-0.4077,0.5217,789.31,1155.33,1251.04
11570,-3.8735,-0.3521,0.5125,-179.44,-1203.98,922.85
11580,-3.8738,-0.3029,0.4963,-1054.44,1608.64,516.60
11590,-3.8740,-0.2554,0.4692,1242.43,-453.74,1657.17
11600,-3.8741,-0.2062,0.4456,-679.44,77.58,1079.04
11610,-3.8743,-0.1583,0.4302,1617.43,1046.45,1828.98
11620,-3.8744,-0.1067,0.4165,-257.57,-922.24,-467.96
11630,-3.8744,-0.0424,0.4058,-1648.19,1327.88,1719.54
11640,-3.8745,0.0323,0.3950,-1413.82,-47.00,-452.39
11650,-3.8745,0.1106,0.3673,148.68,-1437.44,1735.11
11660,-3.8745,0.1853,0.3156,-1835.69,-984.19,1000.67
11670,-3.8745,0.2479,0.2550,-273.19,390.93,875.61
11680,-3.8745,0.2971,0.2096,-257.57,641.05,1297.36
11690,-3.8745,0.3345,0.1910,-1960.69,-1171.33,-1499.63
11700,-3.8744,0.3580,0.1802,-1179.44,453.74,765.99
11710,-3.8744,0.3765,0.1414,1836.18,-936.83,-171.57
11720,-3.8743,0.4121,0.0753,195.56,-1905.52,-1515.38
11730,-3.8743,0.4731,0.0143,758.06,1641.42,-31.13
11740,-3.8741,0.5439,-0.0273,570.56,1829.04,1156.25
11750,-3.8740,0.6036,-0.0452,1633.06,501.04,578.06
11760,-3.8739,0.6448,-0.0275,1273.68,-1780.09,-734.50
11770,-3.8737,0.6733,0.0181,-1460.69,485.60,-62.56
11780,-3.8733,0.6968,0.0685,-1804.44,-1686.22,578.12
11790,-3.8730,0.7144,0.1188,1195.56,766.97,78.25
11800,-3.8729,0.7126,0.1719,-554.44,-795.53,-1812.32
11810,-3.8728,0.6830,0.2145,-773.19,-1998.66,-1015.32
11820,-3.8726,0.6429,0.2399,-570.07,-545.59,297.24
11830,-3.8724,0.6348,0.2671,-1695.07,-1295.65,-421.45
11840,-3.8721,0.7079,0.2964,1258.06,-1811.28,953.61
11850,-3.8717,0.8672,0.3204,-1382.57,1938.84,406.80
11860,-3.8713,1.0665,0.3505,-991.94,1017.27,1047.49
11870,-3.8710,1.2528,0.3915,523.68,861.45,-1374.33
11880,-3.8705,1.3967,0.4480,367.43,-1888.18,-1155.52
11890,-3.8699,1.5010,0.5134,-1210.69,1346.44,-1561.65
11900,-3.8691,1.5736,0.5554,133.06,1721.68,266.60
11910,-3.8685,1.5977,0.5493,1429.93,-903.20,-483.34
11920,-3.8678,1.5619,0.5164,508.06,-1684.39,1532.29
11930,-3.8673,1.4850,0.5035,-70.07,-1903.26,-1795.90
11940,-3.8671,1.3862,0.5394,-1913.82,455.99,-358.40
11950,-3.8669,1.2579,0.6202,1445.56,1049.56,-1452.09
11960,-3.8669,1.0880,0.7227,1023.68,-606.93,1563.66
11970,-3.8671,0.8906,0.8243,-726.32,502.08,-717.35
11980,-3.8671,0.6833,0.9205,-1991.94,1517.33,1907.84
11990,-3.8671,0.4714,1.0209,-523.19,1829.41,-1591.98
12000,-3.8671,0.2539,1.1156,351.81,-1327.21,-779.30
12010,-3.8671,0.0555,1.1742,508.06,-1202.64,-1935.36
12020,-3.8672,-0.0829,1.1753,-882.57,-1703.06,1564.76
12030,-3.8674,-0.1582,1.1234,1398.68,-1547.06,846.01
12040,-3.8679,-0.1971,1.0480,-241.94,-187.87,-91.61
12050,-3.8684,-0.2201,0.9789,-1226.32,-1844.18,-60.49
12060,-3.8689,-0.2385,0.9268,-163.82,1312.01,-1248.11
12070,-3.8694,-0.2605,0.8793,1476.81,-1359.86,-1982.60
12080,-3.8699,-0.2844,0.8240,-1335.69,561.95,-1279.54
12090,-3.8702,-0.3018,0.7635,-398.19,1483.76,1298.46
12100,-3.8706,-0.3019,0.7036,1383.06,1749.39,1720.21
12110,-3.8710,-0.2816,0.6472,1367.43,-1922.49,-358.03
12120,-3.8712,-0.2496,0.6001,-38.82,-1141.24,-1311.28
12130,-3.8715,-0.2162,0.5590,54.93,827.64,1485.53
12140,-3.8718,-0.1892,0.5142,336.18,-437.93,-1014.59
12150,-3.8722,-0.1774,0.4659,-210.69,1827.70,-61.52
12160,-3.8724,-0.1869,0.4229,1304.93,-344.12,1453.98
12170,-3.8727,-0.2159,0.3933,86.18,-1859.74,188.29
12180,-3.8729,-0.2546,0.3817,367.43,-1641.05,313.23
12190,-3.8732,-0.2897,0.3851,-585.69,874.45,1281.98
12200,-3.8734,-0.3112,0.3942,-1070.07,1311.89,-1608.64
12210,-3.8737,-0.3173,0.4005,179.93,-1531.86,-749.27
12220,-3.8739,-0.3113,0.3969,-601.32,-719.42,-405.52
12230,-3.8741,-0.2988,0.3849,164.31,-1188.11,-374.27
12240,-3.8744,-0.2850,0.3730,1758.06,1280.64,-249.27
12250,-3.8745,-0.2743,0.3568,-476.32,-234.99,250.67
12260,-3.8748,-0.2671,0.3306,898.68,1686.95,1985.05
12270,-3.8749,-0.2618,0.2997,1820.56,-1672.42,1609.99
12280,-3.8750,-0.2512,0.2721,-1507.57,-1625.55,-1218.20
12290,-3.8750,-0.2262,0.2485,-148.19,-1156.80,1359.86
12300,-3.8750,-0.1874,0.2275,-945.07,-172.36,1312.93
12310,-3.8750,-0.1383,0.2117,23.68,1140.26,-1843.32
12320,-3.8750,-0.0825,0.2009,-1695.07,-890.93,-765.26
12330,-3.8750,-0.0287,0.1927,1445.56,1734.19,-155.88
12340,-3.8749,0.0243,0.1912,336.18,687.44,594.12
12350,-3.8749,0.0863,0.2008,-882.57,468.75,-1296.51
12360,-3.8748,0.1572,0.2125,-945.07,1703.25,1875.37
12370,-3.8746,0.2258,0.2091,133.06,-796.57,1265.99
12380,-3.8745,0.2872,0.1877,914.31,-1233.95,750.37
12390,-3.8744,0.3550,0.1652,773.68,31.80,375.37
12400,-3.8743,0.4467,0.1539,1445.56,1141.30,234.68
12410,-3.8741,0.5576,0.1676,1179.93,-296.02,-1452.88
12420,-3.8738,0.6581,0.2437,-616.94,1454.16,-1624.69
12430,-3.8732,0.7159,0.3926,242.43,-811.22,500.43
12440,-3.8724,0.7257,0.5542,-351.32,-1748.66,813.23
12450,-3.8716,0.6910,0.6748,898.68,-1061.10,-1264.59
12460,-3.8706,0.6261,0.7552,461.18,-1623.66,-483.09
12470,-3.8696,0.5873,0.8096,148.68,673.10,-1982.91
12480,-3.8689,0.6321,0.8295,-820.07,-373.90,-1764.10
12490,-3.8684,0.7638,0.8109,914.31,-1826.90,-232.79
12500,-3.8679,0.9319,0.7883,1773.68,-201.66,454.65
12510,-3.8677,1.0608,0.7797,-710.69,908.02,-1107.85
12520,-3.8673,1.0933,0.7799,-210.69,-201.11,626.46
12530,-3.8671,1.0138,0.7853,-54.44,-169.80,813.96
12540,-3.8669,0.8521,0.7881,1773.68,517.58,-1639.10
12550,-3.8668,0.6654,0.7921,1070.56,876.65,1110.90
12560,-3.8668,0.4833,0.8085,1179.93,1391.91,1142.15
12570,-3.8669,0.2982,0.8431,1867.43,-514.71,-1357.85
12580,-3.8671,0.1261,0.8763,-1820.07,-77.58,1470.34
12590,-3.8673,0.0178,0.8721,148.68,172.12,1548.58
12600,-3.8677,-0.0087,0.8281,-1710.69,-375.00,-998.35
12610,-3.8680,0.0083,0.7693,-1101.32,-1984.44,-1592.16
12620,-3.8684,0.0117,0.7184,1070.56,-1531.25,1501.46
12630,-3.8688,-0.0422,0.7030,1508.06,-46.88,1563.84
12640,-3.8691,-0.1587,0.7345,-1398.19,1999.88,-1842.41
12650,-3.8695,-0.2935,0.7804,-304.44,-1969.12,-764.22
12660,-3.8698,-0.3795,0.8015,-1554.44,-94.36,1173.34
12670,-3.8700,-0.3763,0.7878,-570.07,-1391.42,642.15
12680,-3.8702,-0.2939,0.7531,-163.82,858.58,-1701.60
12690,-3.8704,-0.1771,0.7180,-1616.94,405.64,1673.34
12700,-3.8705,-0.0815,0.7003,1336.18,-78.49,-1858.03
12710,-3.8706,-0.0437,0.7023,1570.56,1656.07,-1217.41
12720,-3.8707,-0.0688,0.7126,-1585.69,1906.13,-1139.28
12730,-3.8708,-0.1381,0.7200,-804.44,-765.81,-1592.41
12740,-3.8710,-0.2196,0.7217,-1663.82,171.57,-1623.60
12750,-3.8710,-0.3059,0.7245,-101.32,390.14,563.90
12760,-3.8710,-0.3959,0.7437,851.81,749.39,1860.78
12770,-3.8708,-0.4609,0.7776,1336.18,-797.67,907.65
12780,-3.8708,-0.4893,0.8080,1008.06,-454.04,-14.16
12790,-3.8707,-0.5046,0.8234,1383.06,-563.48,-1529.72
12800,-3.8706,-0.5228,0.8137,-585.69,1405.21,548.46
12810,-3.8706,-0.5365,0.7878,1086.18,170.84,-1935.91
12820,-3.8706,-0.5387,0.7435,-663.82,858.28,517.15
12830,-3.8708,-0.5275,0.6597,-945.07,-813.60,-1592.35
12840,-3.8711,-0.5006,0.5645,492.43,452.09,1891.91
12850,-3.8713,-0.4622,0.5229,-70.07,264.59,891.72
12860,-3.8717,-0.4288,0.5416,851.81,-1047.79,-1358.40
12870,-3.8721,-0.4103,0.5743,1117.43,1342.90,-1420.84
12880,-3.8724,-0.4036,0.5887,-507.57,1530.40,-1592.65
12890,-3.8727,-0.4126,0.5889,351.81,-625.79,813.60
12900,-3.8729,-0.4307,0.5819,-804.44,-610.23,-1873.90
12910,-3.8730,-0.4104,0.5419,883.06,-1500.85,1344.85
12920,-3.8732,-0.3098,0.4678,-523.19,1374.15,-1592.71
12930,-3.8732,-0.1488,0.3903,351.81,-109.99,1047.73
12940,-3.8732,0.0201,0.3429,961.18,1968.44,1188.23
12950,-3.8732,0.1506,0.3447,-1413.82,-109.38,1891.24
12960,-3.8732,0.2188,0.3723,-710.69,125.24,969.42
12970,-3.8733,0.2239,0.3840,8.06,-343.32,938.17
12980,-3.8735,0.1816,0.3578,664.31,1156.68,844.48
12990,-3.8739,0.1194,0.3074,-741.94,1797.18,1953.80
13000,-3.8743,0.0635,0.2632,-710.69,-656.07,-327.58
13010,-3.8745,0.0398,0.2371,133.06,1687.62,-280.76
13020,-3.8746,0.0652,0.2280,1101.81,-1656.19,1781.68
13030,-3.8748,0.1301,0.2290,351.81,1187.62,1703.55
13040,-3.8748,0.2028,0.2286,664.31,1312.74,547.30
13050,-3.8748,0.2551,0.2241,1961.18,1265.99,-1062.07
13060,-3.8745,0.2906,0.2180,664.31,687.99,78.55
13070,-3.8744,0.3218,0.2191,1211.18,-93.20,-921.51
13080,-3.8741,0.3503,0.2233,1195.56,47.49,-1515.20
13090,-3.8739,0.3820,0.2072,851.81,578.80,984.80
13100,-3.8738,0.4219,0.1548,898.68,-1483.64,-1937.13
13110,-3.8737,0.4709,0.0748,-1991.94,-186.71,453.37
13120,-3.8737,0.5194,0.0052,289.31,1579.04,609.50
13130,-3.8737,0.5543,-0.0145,-1507.57,672.85,1515.62
13140,-3.8735,0.5778,0.0245,-1038.82,-1858.34,-1921.94
13150,-3.8732,0.5944,0.1036,1961.18,-858.28,296.88
13160,-3.8727,0.6125,0.1895,86.18,1266.78,187.68
13170,-3.8722,0.6400,0.2605,-1585.69,251.16,-1124.63
13180,-3.8716,0.6697,0.3141,1929.93,1344.97,156.74
13190,-3.8712,0.6816,0.3508,1726.81,204.41,1266.24
13200,-3.8710,0.6577,0.3807,-741.94,907.53,-483.70
13210,-3.8706,0.5927,0.4189,195.56,735.66,-1077.39
13220,-3.8701,0.5039,0.4761,-132.57,1626.10,1172.67
13230,-3.8698,0.4297,0.5481,508.06,938.48,-61.58
13240,-3.8694,0.4042,0.6152,-991.94,-1842.96,-30.21
13250,-3.8690,0.4260,0.6649,-257.57,-1249.27,1.16
13260,-3.8689,0.4491,0.6907,-1460.69,1110.17,-1889.34
13270,-3.8687,0.4362,0.6985,1492.43,407.10,-1217.41
13280,-3.8682,0.3945,0.7174,-163.82,1407.04,1095.09
13290,-3.8677,0.3307,0.7715,-1491.94,-171.14,-623.66
13300,-3.8671,0.2380,0.8552,-1663.82,-1249.39,-1951.66
13310,-3.8666,0.1372,0.9341,-1523.19,1469.18,751.65
13320,-3.8665,0.0675,0.9518,1570.56,-437.26,-966.98
13330,-3.8665,0.0387,0.8721,648.68,1828.25,1736.21
13340,-3.8666,0.0570,0.7179,961.18,-374.94,1204.77
13350,-3.8667,0.1340,0.5643,-695.07,-109.31,673.22
13360,-3.8668,0.2275,0.4956,1164.31,234.62,1782.35
13370,-3.8669,0.2728,0.5372,1133.06,-562.07,-327.21
13380,-3.8671,0.2439,0.6278,-1070.07,766.11,-186.46
13390,-3.8672,0.1478,0.6906,-773.19,359.80,1423.10
13400,-3.8674,0.0072,0.7216,-1070.07,390.87,-1404.91
13410,-3.8677,-0.1569,0.7469,929.93,359.38,-404.85
13420,-3.8679,-0.3109,0.7531,-70.07,-375.37,-1373.60
13430,-3.8683,-0.4059,0.7339,211.18,405.64,-654.79
13440,-3.8687,-0.4338,0.7075,54.93,1952.33,1345.15
13450,-3.8691,-0.4285,0.6696,476.81,-1422.73,1173.22
13460,-3.8696,-0.4087,0.6255,1164.31,1717.90,-1014.34
13470,-3.8699,-0.3767,0.6090,-304.44,77.27,1704.35
13480,-3.8701,-0.3470,0.6187,-210.69,1967.96,-483.22
13490,-3.8702,-0.3352,0.6229,-413.82,-797.61,-1873.84
13500,-3.8704,-0.3436,0.6167,1101.81,-250.67,719.91
13510,-3.8706,-0.3624,0.6251,23.68,-1047.55,-967.59
13520,-3.8707,-0.3792,0.6619,1617.43,30.52,219.97
13530,-3.8711,-0.3953,0.6968,-523.19,733.58,-436.22
13540,-3.8713,-0.4229,0.6945,1414.31,1202.33,1095.09
13550,-3.8717,-0.4573,0.6501,1883.06,905.40,1610.72
13560,-3.8721,-0.4845,0.5781,1476.81,-766.54,-1608.15
13570,-3.8723,-0.5065,0.4927,1992.43,-1985.35,594.85
13580,-3.8726,-0.5199,0.4174,-820.07,-922.91,1625.92
13590,-3.8727,-0.5103,0.3849,1461.18,1436.46,1828.92
13600,-3.8728,-0.4792,0.4069,-1304.44,1280.21,-671.14
13610,-3.8729,-0.4438,0.4557,-1335.69,92.77,-452.33
13620,-3.8730,-0.4275,0.4910,-804.44,-1657.17,1797.73
13630,-3.8733,-0.4437,0.4941,1289.31,-1141.48,-1061.58
13640,-3.8735,-0.4779,0.4615,-788.82,-735.29,-1061.58
13650,-3.8738,-0.5107,0.3989,-1163.82,-907.23,891.48
13660,-3.8741,-0.5232,0.3292,-1366.94,-922.91,1594.48
13670,-3.8745,-0.4849,0.2753,1039.31,-1844.79,-405.64
13680,-3.8746,-0.3876,0.2462,1945.56,-750.98,1016.11
13690,-3.8748,-0.2562,0.2362,-1601.32,-469.54,-1827.70
13700,-3.8748,-0.1207,0.2261,-788.82,-1750.55,1844.18
13710,-3.8748,-0.0100,0.2146,554.93,952.88,-843.32
13720,-3.8746,0.0679,0.2249,-1273.19,-515.69,1765.99
13730,-3.8746,0.1478,0.2454,695.56,781.37,-77.70
13740,-3.8746,0.2568,0.2267,-1070.07,-593.51,-546.45
13750,-3.8746,0.3749,0.1458,883.06,1016.11,1156.68
13760,-3.8748,0.4691,0.0286,-7.57,-1343.08,-77.88
13770,-3.8746,0.5245,-0.0636,54.93,-342.83,984.38
13780,-3.8746,0.5403,-0.0951,-851.32,-139.65,-1078.31
13790,-3.8745,0.5206,-0.0884,1164.31,-170.84,890.38
13800,-3.8745,0.4767,-0.0646,-1351.32,688.48,-31.43
13810,-3.8743,0.4301,-0.0219,1023.68,-264.71,327.94
13820,-3.8741,0.4010,0.0317,-945.07,1203.92,1531.19
13830,-3.8739,0.3970,0.0753,-663.82,63.23,406.31
13840,-3.8737,0.4200,0.1016,-1179.44,1641.36,1797.00
13850,-3.8733,0.4663,0.1215,1773.68,1000.79,515.81
13860,-3.8730,0.5153,0.1461,-304.44,-452.27,-1952.94
13870,-3.8728,0.5363,0.1678,1961.18,-1295.90,1625.24
13880,-3.8726,0.5171,0.1755,648.68,1485.41,953.43
13890,-3.8723,0.4777,0.1766,-1804.44,-1530.27,1656.56
13900,-3.8719,0.4518,0.1865,1148.68,-1389.71,140.93
13910,-3.8716,0.4614,0.2181,1836.18,-124.15,344.06
13920,-3.8712,0.5135,0.2769,-929.44,-77.27,1797.24
13930,-3.8708,0.5870,0.3497,1742.43,-561.52,-827.64
13940,-3.8705,0.6339,0.3981,-851.32,766.72,-1483.70
13950,-3.8702,0.6194,0.3978,1148.68,-1045.65,-561.77
13960,-3.8700,0.5490,0.3823,-710.69,-1076.97,-499.27
13970,-3.8698,0.4579,0.3987,-1726.32,938.54,-46.14
13980,-3.8694,0.3796,0.4553,-1382.57,-967.90,938.23
13990,-3.8691,0.3269,0.5275,601.81,-1718.02,-1655.40
14000,-3.8689,0.2968,0.5850,1851.81,-483.76,-280.27
14010,-3.8685,0.2809,0.6129,1992.43,-1124.45,282.35
14020,-3.8683,0.2693,0.6238,-38.82,-1546.39,63.66
14030,-3.8680,0.2551,0.6311,-1523.19,-155.76,313.66
14040,-3.8678,0.2424,0.6473,664.31,781.74,-1389.40
14050,-3.8674,0.2322,0.6832,-960.69,-1140.20,-1701.90
14060,-3.8671,0.2113,0.7150,1726.81,-546.45,595.03
14070,-3.8668,0.1744,0.7218,-945.07,-484.01,1157.59
14080,-3.8666,0.1292,0.7159,-1663.82,390.93,860.78
14090,-3.8665,0.0823,0.7096,539.31,-359.13,-1404.91
14100,-3.8663,0.0378,0.7064,-1460.69,-1171.75,610.72
14110,-3.8665,-0.0074,0.7073,851.81,-1578.06,1563.84
14120,-3.8667,-0.0609,0.7073,-945.07,-1453.19,1157.59
14130,-3.8671,-0.1221,0.7120,211.18,-1453.25,1345.09
14140,-3.8676,-0.1801,0.7170,383.06,-843.99,-76.78
14150,-3.8679,-0.2189,0.7102,961.18,-203.49,-1811.16
14160,-3.8683,-0.2399,0.7030,-7.57,-1078.61,1891.97
14170,-3.8687,-0.2668,0.7079,1304.93,1999.51,-1029.91
14180,-3.8689,-0.3137,0.7162,1851.81,-1375.55,688.84
14190,-3.8693,-0.3768,0.7159,-148.19,-313.17,-1201.78
14200,-3.8695,-0.4456,0.7128,-226.32,-344.54,1360.72
14210,-3.8699,-0.4939,0.7098,-1023.19,-750.92,-295.53
14220,-3.8701,-0.4988,0.6918,789.31,-1125.98,688.84
14230,-3.8705,-0.4749,0.6584,164.31,561.52,876.34
14240,-3.8708,-0.4448,0.6149,-773.19,295.90,1438.78
14250,-3.8712,-0.4015,0.5454,-929.44,-1282.17,-686.34
14260,-3.8715,-0.3407,0.4648,617.43,1827.33,-14.59
14270,-3.8716,-0.2761,0.4159,398.68,-485.05,-764.77
14280,-3.8717,-0.2219,0.3889,664.31,1249.45,-1936.71
14290,-3.8719,-0.1899,0.3534,-398.19,1796.39,-936.77
14300,-3.8722,-0.1869,0.3243,-304.44,1249.57,-733.70
14310,-3.8724,-0.2072,0.3198,86.18,1530.88,-936.89
14320,-3.8727,-0.2377,0.3243,1492.43,952.70,-1405.64
14330,-3.8729,-0.2738,0.3262,1586.18,1530.76,-1265.01
14340,-3.8730,-0.3046,0.3359,961.18,1765.08,78.74
14350,-3.8733,-0.3210,0.3597,1023.68,-984.99,-1827.51
14360,-3.8734,-0.3381,0.3728,-1085.69,-1938.17,500.67
14370,-3.8737,-0.3641,0.3586,726.81,-266.30,-249.33
14380,-3.8737,-0.3971,0.3396,1398.68,1921.14,985.05
14390,-3.8738,-0.4431,0.3395,1179.93,-516.42,-343.14
14400,-3.8738,-0.5031,0.3622,-710.69,-532.17,1656.86
14410,-3.8739,-0.5618,0.3920,-382.57,-1626.04,1797.55
14420,-3.8740,-0.6061,0.4122,101.81,-1813.60,1516.36
14430,-3.8741,-0.6329,0.4305,-1570.07,780.03,-1436.71
14440,-3.8741,-0.6351,0.4520,-1007.57,-876.28,1563.29
14450,-3.8741,-0.5994,0.4592,-1288.82,1873.72,-858.52
14460,-3.8740,-0.5194,0.4441,-710.69,-1204.35,-92.90
14470,-3.8738,-0.4084,0.4266,1523.68,858.34,-1436.65
14480,-3.8735,-0.2915,0.4291,-273.19,-1375.85,1141.42
14490,-3.8734,-0.1815,0.4486,-1304.44,-1063.11,-1467.96
14500,-3.8733,-0.0698,0.4576,773.68,1437.13,-1983.52
14510,-3.8732,0.0703,0.4178,-929.44,-1406.43,797.73
14520,-3.8730,0.2467,0.3397,1008.06,1484.50,1078.92
14530,-3.8729,0.4325,0.2839,-413.82,-515.20,1344.36
14540,-3.8729,0.6019,0.2800,-632.57,344.54,-1671.33
14550,-3.8730,0.7427,0.3126,1054.93,-155.09,-827.64
14560,-3.8732,0.8633,0.3308,-929.44,17.03,1375.61
14570,-3.8733,0.9877,0.2927,-1491.94,-1654.60,313.11
14580,-3.8734,1.1180,0.2395,-1570.07,1470.64,-749.45
14590,-3.8733,1.2361,0.2401,-882.57,-1341.61,-1999.57
14600,-3.8733,1.3149,0.2823,-1773.19,-1263.24,-515.20
14610,-3.8733,1.3308,0.2791,320.56,143.19,781.80
14620,-3.8734,1.2975,0.1841,-1648.19,-278.69,469.24
14630,-3.8735,1.2444,0.0536,-1913.82,-435.00,1750.31
14640,-3.8735,1.1975,-0.0464,-710.69,-1138.24,1593.81
14650,-3.8735,1.2017,-0.1080,1289.31,-1935.18,-1047.00
14660,-3.8734,1.2677,-0.1362,1820.56,-1825.81,-1140.87
14670,-3.8732,1.3425,-0.1171,-1726.32,-1435.06,-1812.81
14680,-3.8729,1.3802,-0.0455,-148.19,1018.19,-468.99
14690,-3.8726,1.3748,0.0359,679.93,-1825.44,-1484.50
14700,-3.8722,1.3424,0.0637,-23.19,596.37,-828.06
14710,-3.8717,1.3083,0.0319,-163.82,158.81,1890.75
14720,-3.8712,1.2939,0.0038,-523.19,80.63,-671.81
14730,-3.8706,1.3032,0.0254,1633.06,486.88,-1093.75
14740,-3.8700,1.3243,0.0953,-1179.44,-747.50,-734.38
14750,-3.8694,1.3391,0.1973,1523.68,205.69,-906.07
14760,-3.8689,1.3145,0.2965,-585.69,1252.56,-46.51
14770,-3.8684,1.2322,0.3605,258.06,1955.69,1234.92
14780,-3.8680,1.1122,0.3774,1726.81,-1856.99,1594.42
14790,-3.8677,0.9886,0.3599,-1632.57,314.64,-1093.02
14800,-3.8672,0.8883,0.3361,-1445.07,-1935.61,125.67
14810,-3.8669,0.8156,0.3187,1711.18,-982.67,-1811.89
14820,-3.8668,0.7512,0.2991,398.68,798.46,-874.39
14830,-3.8667,0.6588,0.2755,164.31,-1717.29,438.05
14840,-3.8667,0.5261,0.2638,336.18,-733.09,234.86
14850,-3.8668,0.3903,0.2667,-648.19,1766.60,-1046.39
14860,-3.8668,0.2908,0.2776,1961.18,-1858.64,1062.99
14870,-3.8669,0.2307,0.2913,1226.81,-468.20,-1187.01
14880,-3.8671,0.1931,0.2965,1539.31,1281.68,-749.45
14890,-3.8672,0.1587,0.2897,726.81,1953.49,1609.92
14900,-3.8674,0.1079,0.2875,320.56,1078.43,-858.83
14910,-3.8676,0.0293,0.3052,1820.56,797.06,1016.17
14920,-3.8678,-0.0905,0.3448,-241.94,-937.50,-733.83
14930,-3.8679,-0.2512,0.3990,429.93,156.07,-1718.08
14940,-3.8680,-0.3951,0.4359,-148.19,-906.80,625.73
14950,-3.8683,-0.4581,0.4196,1429.93,-188.29,438.29
14960,-3.8687,-0.4469,0.3677,1367.43,1717.83,-1452.33
14970,-3.8689,-0.4031,0.3307,-1195.07,-922.79,297.55
14980,-3.8693,-0.3541,0.3190,414.31,-1657.04,1563.11
14990,-3.8696,-0.3181,0.3077,-1320.07,843.02,-1374.39
15000,-3.8699,-0.2947,0.2869,-710.69,-594.42,63.05
15010,-3.8702,-0.2812,0.2758,-1710.69,733.76,1938.05
15020,-3.8706,-0.2831,0.2856,8.06,-688.05,-187.01
15030,-3.8708,-0.2915,0.3038,-226.32,577.51,1719.30
15040,-3.8712,-0.2939,0.3173,-1304.44,-1094.36,-108.83
15050,-3.8715,-0.2896,0.3295,-1616.94,624.39,-1608.76
15060,-3.8717,-0.2908,0.3513,-1054.44,-1813.11,1109.99
15070,-3.8721,-0.3120,0.3757,-1210.69,983.76,-171.20
15080,-3.8723,-0.3556,0.3955,70.56,108.76,-608.64
15090,-3.8726,-0.4114,0.4077,-1507.57,-1360.11,-93.02
15100,-3.8727,-0.4584,0.4028,-648.19,202.27,672.67
15110,-3.8729,-0.4784,0.3805,1336.18,-422.79,1953.86
15120,-3.8730,-0.4633,0.3541,-1226.32,717.77,219.48
15130,-3.8733,-0.4152,0.3378,711.18,1342.83,-483.70
15140,-3.8734,-0.3502,0.3337,-1132.57,-750.85,-890.01
15150,-3.8735,-0.2856,0.3329,-820.07,-1266.36,-1718.14
15160,-3.8737,-0.2324,0.3185,-554.44,-1375.61,297.49
15170,-3.8739,-0.2015,0.2778,-1741.94,780.76,94.36
15180,-3.8743,-0.1914,0.2115,-1788.82,-422.30,-1983.89
15190,-3.8745,-0.1851,0.1340,-491.94,-906.68,547.24
15200,-3.8748,-0.1644,0.0771,320.56,1171.51,-1124.76
15210,-3.8748,-0.1150,0.0605,-1038.82,1890.26,1015.75
15220,-3.8749,-0.0226,0.0759,1289.31,-234.62,-1062.44
15230,-3.8749,0.1079,0.1287,1117.43,1734.31,734.50
15240,-3.8748,0.2595,0.2388,1820.56,468.93,125.24
15250,-3.8745,0.4039,0.3586,1226.81,-1437.01,937.93
15260,-3.8743,0.5182,0.3900,-288.82,1906.98,-1718.08
15270,-3.8740,0.6046,0.3322,-1663.82,1922.85,-358.64
15280,-3.8737,0.6600,0.2640,1398.68,-1483.22,-1530.64
15290,-3.8733,0.6797,0.2277,492.43,1798.16,94.24
15300,-3.8732,0.6825,0.2241,-991.94,1141.91,297.30
15310,-3.8732,0.6904,0.2463,-632.57,688.78,125.43
15320,-3.8733,0.7021,0.2919,383.06,-467.41,-265.20
15330,-3.8732,0.7179,0.3651,1883.06,1360.72,-1655.70
15340,-3.8729,0.7402,0.4611,-101.32,-1264.28,1266.30
15350,-3.8727,0.7670,0.5493,-1241.94,-982.97,-561.65
15360,-3.8723,0.8008,0.6001,-1820.07,-1686.04,-1920.84
15370,-3.8721,0.8339,0.6055,-1491.94,814.03,-623.84
15380,-3.8718,0.8574,0.5681,-1257.57,1501.59,-1561.34
15390,-3.8717,0.8799,0.5103,1758.06,720.40,-952.03
15400,-3.8716,0.9114,0.4752,633.06,1314.21,1938.48
15410,-3.8716,0.9536,0.4911,664.31,829.90,-30.33
15420,-3.8715,1.0015,0.5507,-1929.44,-1138.79,1344.67
15430,-3.8715,1.0337,0.6207,195.56,-1513.67,1251.04
15440,-3.8716,1.0182,0.6678,320.56,-544.86,-1123.84
15450,-3.8717,0.9401,0.6852,-1663.82,1486.33,-1076.84
15460,-3.8717,0.8148,0.6926,336.18,-295.04,1251.28
15470,-3.8716,0.6724,0.7169,304.93,657.84,1798.22
15480,-3.8712,0.5380,0.7830,-1929.44,-233.09,1532.59
15490,-3.8707,0.4276,0.8916,867.43,219.79,-373.47
15500,-3.8700,0.3483,0.9835,-1257.57,-1874.21,407.96
15510,-3.8695,0.2893,1.0011,586.18,1891.30,-419.98
15520,-3.8690,0.2158,0.9774,1039.31,141.17,-326.17
15530,-3.8685,0.1084,0.9818,-366.94,1109.74,158.14
15540,-3.8683,0.0118,1.1166,1883.06,1672.06,376.89
15550,-3.8680,-0.1506,1.3447,1523.68,-1078.12,-622.86
15560,-3.8668,-0.4484,1.1669,726.81,140.32,1346.37
15570,-3.8661,-0.4954,0.7051,-1382.57,1374.08,-919.62
15580,-3.8669,-0.1512,0.5647,601.81,-1735.35,141.97
15590,-3.8682,0.0885,0.7003,648.68,296.57,1.10
15600,-3.8687,-0.0068,0.8942,-663.82,1640.75,-842.41
15610,-3.8684,-0.2542,1.0370,-866.94,-1531.31,736.08
15620,-3.8682,-0.5110,1.1174,-523.19,749.45,-1779.24
15630,-3.8680,-0.6884,1.1525,-1398.19,-954.16,-622.86
15640,-3.8682,-0.7030,1.0939,-101.32,-470.15,-622.80
15650,-3.8685,-0.6268,0.9409,-1976.32,29.85,-732.24
15660,-3.8690,-0.5726,0.7770,-226.32,451.84,-1888.79
15670,-3.8696,-0.5400,0.6694,-1288.82,-532.41,-842.29
15680,-3.8701,-0.5386,0.6536,-1116.94,1702.03,-1014.34
15690,-3.8705,-0.5787,0.7177,-929.44,-329.22,-686.28
15700,-3.8707,-0.6512,0.7997,1929.93,-126.16,-1123.66
15710,-3.8708,-0.7472,0.8505,648.68,-1626.28,407.78
15720,-3.8711,-0.8191,0.8461,367.43,873.54,-826.48
15730,-3.8712,-0.8137,0.7906,-835.69,310.85,-1107.73
15740,-3.8713,-0.7211,0.7133,-148.19,1217.10,-1295.35
15750,-3.8715,-0.5829,0.6394,-288.82,-688.96,798.22
15760,-3.8717,-0.4574,0.5790,1398.68,1858.22,829.35
15770,-3.8719,-0.3723,0.5288,1461.18,-1875.92,563.60
15780,-3.8722,-0.3236,0.4886,351.81,-297.61,1375.98
15790,-3.8724,-0.3053,0.4565,-1413.82,-1438.17,-749.08
15800,-3.8726,-0.3091,0.4282,929.93,-1547.49,-1452.27
15810,-3.8727,-0.3267,0.4089,445.56,-1172.49,-186.71
15820,-3.8727,-0.3427,0.4039,-1804.44,358.70,-1936.71
15830,-3.8728,-0.3429,0.4072,148.68,-281.92,-1671.14
15840,-3.8730,-0.3297,0.4037,117.43,139.95,-1217.96
15850,-3.8733,-0.3170,0.3877,1804.93,-313.17,203.86
15860,-3.8737,-0.3127,0.3665,-570.07,1639.95,438.23
15870,-3.8740,-0.3043,0.3478,-23.19,-1078.80,953.80
15880,-3.8744,-0.2795,0.3352,1054.93,530.64,-1889.95
15890,-3.8746,-0.2426,0.3303,226.81,-1078.67,188.11
15900,-3.8750,-0.2035,0.3401,961.18,-1703.61,-140.01
15910,-3.8439,-0.1660,0.3618,1961.18,-453.55,1203.74
15920,-3.8440,-0.1326,0.3702,-1241.94,-1672.24,156.92
15930,-3.8441,-0.1002,0.3376,-960.69,-594.06,1563.17
15940,-3.8441,-0.0485,0.2706,-820.07,-765.87,-1061.89
15950,-3.8439,0.0265,0.2253,1804.93,-1343.87,781.74
15960,-3.8749,0.1040,0.2476,-601.32,843.75,219.18
15970,-3.8748,0.1716,0.3145,1320.56,-312.32,1875.43
15980,-3.8746,0.2252,0.3658,1976.81,250.31,1750.61
15990,-3.8745,0.2615,0.3477,836.18,-1171.45,922.55
16000,-3.8744,0.2837,0.2588,1476.81,500.49,938.17
16010,-3.8741,0.3074,0.1595,320.56,1125.55,94.24
16020,-3.8739,0.3564,0.1071,-648.19,422.42,1750.31
16030,-3.8737,0.4373,0.1150,1633.06,1703.80,-1781.07
16040,-3.8735,0.5250,0.1553,-23.19,-1280.46,-109.19
16050,-3.8733,0.5935,0.1932,-788.82,-124.02,31.49
16060,-3.8733,0.6309,0.2245,-23.19,735.47,-280.88
16070,-3.8730,0.6460,0.2549,758.06,735.60,1125.43
16080,-3.8728,0.6486,0.2771,-1304.44,626.22,-827.64
16090,-3.8723,0.6370,0.2955,-976.32,-530.03,-296.39
16100,-3.8716,0.6355,0.3248,1539.31,1829.35,859.92
16110,-3.8710,0.6826,0.3546,1351.81,1579.35,297.49
16120,-3.8706,0.7784,0.3619,-616.94,1391.91,766.30
16130,-3.8705,0.8844,0.3365,-351.32,-1670.41,-1968.08
16140,-3.8705,0.9618,0.2891,1211.18,-920.17,-765.01
16150,-3.8704,0.9900,0.2542,-882.57,1001.83,391.17
16160,-3.8702,0.9608,0.2664,-1273.19,533.14,156.74
16170,-3.8701,0.8907,0.3195,-1007.57,-1904.42,-1265.14
16180,-3.8699,0.8242,0.3704,-1976.32,892.33,-1202.51
16190,-3.8696,0.7837,0.3873,1508.06,-592.16,-1327.45
16200,-3.8694,0.7676,0.3761,320.56,1579.65,1328.86
16210,-3.8693,0.7816,0.3507,-1741.94,142.09,-1077.39
16220,-3.8690,0.8187,0.3223,54.93,892.15,141.30
16230,-3.8689,0.8434,0.3007,804.93,1251.59,328.74
16240,-3.8689,0.8402,0.2871,-38.82,-1514.04,-265.08
16250,-3.8687,0.8268,0.2926,-445.07,751.59,1625.55
16260,-3.8683,0.8142,0.3390,1836.18,1454.71,406.80
16270,-3.8679,0.8094,0.4286,226.81,-607.79,-858.76
16280,-3.8674,0.8077,0.5419,-382.57,-1139.10,-733.58
16290,-3.8669,0.7660,0.6494,-601.32,1360.90,1422.91
16300,-3.8667,0.6328,0.7122,-1945.07,-873.54,-576.90
16310,-3.8665,0.4169,0.7087,1008.06,-842.53,1610.72
16320,-3.8663,0.1853,0.6614,1367.43,-1280.46,548.22
16330,-3.8665,0.0067,0.6139,-273.19,656.56,-701.84
16340,-3.8666,-0.0938,0.5942,867.43,-1421.88,891.78
16350,-3.8669,-0.1412,0.6118,8.06,77.94,-1670.72
16360,-3.8673,-0.1716,0.6555,1929.93,-1672.18,1719.91
16370,-3.8677,-0.2034,0.6913,-1960.69,-78.49,1501.22
16380,-3.8680,-0.2421,0.7115,1976.81,499.57,-623.66
16390,-3.8683,-0.2941,0.7343,1023.68,-906.74,-733.03
16400,-3.8684,-0.3691,0.7457,-1632.57,1999.39,235.78
16410,-3.8687,-0.4449,0.7286,758.06,-531.98,1563.90
16420,-3.8689,-0.4708,0.6906,-945.07,1280.33,1282.65
16430,-3.8693,-0.4559,0.6476,-257.57,405.27,1579.47
16440,-3.8698,-0.4241,0.6240,1648.68,-1094.67,-733.15
16450,-3.8701,-0.3740,0.6180,1726.81,-110.23,32.41
16460,-3.8706,-0.3254,0.6028,133.06,-875.73,1610.53
16470,-3.8710,-0.2977,0.5691,-1648.19,1171.20,923.03
16480,-3.8713,-0.2806,0.5299,1898.68,858.76,1657.35
16490,-3.8717,-0.2583,0.4926,86.18,-156.80,-858.40
16500,-3.8719,-0.2444,0.4614,-1054.44,-938.05,1016.54
16510,-3.8723,-0.2543,0.4497,726.81,-922.36,-561.65
16520,-3.8726,-0.2805,0.4573,-538.82,1577.58,-1452.27
16530,-3.8728,-0.3059,0.4658,101.81,-1453.67,-1249.15
16540,-3.8729,-0.3129,0.4626,851.81,-359.99,141.48
16550,-3.8732,-0.3010,0.4474,-38.82,-766.30,-1874.15
16560,-3.8733,-0.2842,0.4231,1476.81,1280.64,844.60
16570,-3.8734,-0.2682,0.3998,-366.94,-1828.74,688.29
16580,-3.8735,-0.2568,0.3811,1679.93,-813.05,1203.86
16590,-3.8737,-0.2429,0.3625,-866.94,796.33,1844.48
16600,-3.8738,-0.2222,0.3414,914.31,-1578.61,-1593.08
16610,-3.8739,-0.1951,0.3237,-429.44,-281.74,-1124.39
16620,-3.8740,-0.1632,0.3162,-960.69,1452.70,-827.51
16630,-3.8741,-0.1293,0.3108,-882.57,484.01,-718.14
16640,-3.8743,-0.0947,0.2953,-538.82,-203.43,-390.08
16650,-3.8743,-0.0522,0.2671,-116.94,1812.26,609.92
16660,-3.8744,0.0004,0.2322,1320.56,-1797.00,1672.36
16670,-3.8745,0.0444,0.1997,54.93,1718.75,1734.80
16680,-3.8746,0.0771,0.1860,1695.56,1562.56,1453.49
16690,-3.8748,0.1217,0.1954,1883.06,-187.38,1453.43
16700,-3.8749,0.1992,0.1844,-413.82,1015.81,1406.62
16710,-3.8750,0.3021,0.1174,1508.06,-390.26,-1671.57
16720,-3.8750,0.3956,0.0415,-1320.07,-968.20,1437.68
16730,-3.8750,0.4563,0.0110,-1351.32,1313.23,1500.06
16740,-3.8750,0.4967,0.0092,-1585.69,1407.10,421.88
16750,-3.8439,0.5205,0.0040,-413.82,1172.79,-1031.25
16760,-3.8750,0.5327,-0.0081,-1366.94,516.60,359.38
16770,-3.8749,0.5477,-0.0077,195.56,-1030.21,-1062.56
16780,-3.8745,0.5642,0.0306,-1882.57,-983.34,1703.06
16790,-3.8741,0.5831,0.1110,226.81,-77.03,-1140.62
16800,-3.8737,0.6030,0.2062,-1351.32,-1795.78,-656.07
16810,-3.8729,0.6194,0.2756,1195.56,-1608.22,734.74
16820,-3.8722,0.6290,0.2966,-710.69,-717.59,1891.11
16830,-3.8715,0.6562,0.2784,523.68,1969.97,-30.70
16840,-3.8707,0.7267,0.2506,8.06,-358.09,-155.76
16850,-3.8701,0.8313,0.2386,1023.68,79.53,-1546.39
16860,-3.8698,0.9384,0.2416,-1585.69,-1451.54,-1765.20
16870,-3.8695,1.0189,0.2579,117.43,-1076.29,78.55
16880,-3.8695,1.0490,0.3103,-1570.07,1017.58,-827.64
16890,-3.8694,1.0311,0.4000,-1726.32,-279.24,-124.45
16900,-3.8690,0.9720,0.4838,-7.57,-794.92,-1718.02
16910,-3.8685,0.8527,0.5077,429.93,1923.77,1891.54
16920,-3.8680,0.6853,0.4620,1148.68,986.02,-1499.02
16930,-3.8676,0.5244,0.3817,-273.19,-858.09,63.35
16940,-3.8674,0.4290,0.2958,-866.94,860.35,-843.02
16950,-3.8674,0.4160,0.2156,-1085.69,1860.17,1859.92
16960,-3.8677,0.4479,0.1493,1258.06,-405.46,672.24
16970,-3.8682,0.4692,0.0908,1336.18,-889.77,-1437.26
16980,-3.8685,0.4594,0.0472,70.56,-374.08,422.00
16990,-3.8689,0.4286,0.0403,-1195.07,-1952.27,1265.69
17000,-3.8691,0.3738,0.0612,-1132.57,1157.04,-1906.19
17010,-3.8693,0.2810,0.0940,-148.19,-171.20,-640.56
17020,-3.8693,0.1605,0.1433,-23.19,31.74,-187.32
17030,-3.8691,0.0361,0.2156,554.93,-1655.94,1187.74
17040,-3.8691,-0.0850,0.2869,633.06,-406.19,1594.12
17050,-3.8691,-0.1957,0.3318,1133.06,734.19,1047.42
17060,-3.8691,-0.2675,0.3658,-1038.82,-1516.05,1203.74
17070,-3.8691,-0.2838,0.3976,1773.68,-1156.80,-1358.70
17080,-3.8690,-0.2642,0.4100,-320.07,-1094.36,766.36
17090,-3.8690,-0.2266,0.3960,-1804.44,499.45,-1358.58
17100,-3.8690,-0.1787,0.3710,-991.94,-1297.36,-358.64
17110,-3.8690,-0.1339,0.3531,1133.06,-500.37,-827.45
17120,-3.8690,-0.1178,0.3544,-1132.57,1218.44,422.55
17130,-3.8691,-0.1476,0.3805,929.93,1374.76,203.80
17140,-3.8694,-0.2024,0.4150,1117.43,718.44,-202.39
17150,-3.8695,-0.2485,0.4346,-1898.19,1140.20,-1030.46
17160,-3.8696,-0.2676,0.4417,195.56,-359.86,1094.54
17170,-3.8699,-0.2588,0.4508,1758.06,546.33,1375.85
17180,-3.8702,-0.2339,0.4667,-1116.94,1718.20,-311.65
17190,-3.8705,-0.2155,0.4833,-1929.44,-250.49,1063.35
17200,-3.8708,-0.2308,0.4984,429.93,1874.57,-1170.96
17210,-3.8711,-0.2837,0.5219,-1538.82,-187.99,-1358.46
17220,-3.8712,-0.3484,0.5607,-304.44,-1188.11,1000.98
17230,-3.8715,-0.4060,0.6038,-585.69,-219.48,-155.21
17240,-3.8717,-0.4633,0.6121,39.31,1296.08,-467.59
17250,-3.8721,-0.5530,0.5790,711.18,-1641.54,-1842.59
17260,-3.8726,-0.7023,0.5439,1226.81,-1876.10,-1514.53
17270,-3.8729,-0.8810,0.5289,-1882.57,1639.22,1735.41
17280,-3.8732,-1.0175,0.5298,-757.57,-283.02,-1436.52
17290,-3.8733,-1.0443,0.5297,1773.68,-173.89,-77.15
17300,-3.8733,-0.9738,0.5139,-1663.82,-189.58,-30.27
17310,-3.8732,-0.8497,0.4980,-632.57,1794.92,1547.85
17320,-3.8732,-0.6759,0.4867,-757.57,-236.08,-1295.96
17330,-3.8732,-0.4971,0.4600,1492.43,-1688.84,-1608.46
17340,-3.8732,-0.3844,0.4313,383.06,-1110.35,1047.73
17350,-3.8733,-0.3320,0.4226,-1195.07,-782.04,-1389.83
17360,-3.8734,-0.3016,0.4250,1508.06,-1891.30,-577.33
17370,-3.8735,-0.2965,0.4077,1398.68,-1578.74,-405.46
17380,-3.8737,-0.3090,0.3544,-1945.07,202.51,-405.46
17390,-3.8737,-0.3113,0.2950,461.18,1374.39,1360.05
17400,-3.8737,-0.2881,0.2762,164.31,1780.64,1063.05
17410,-3.8737,-0.2451,0.3055,-866.94,-625.61,1141.11
17420,-3.8737,-0.1886,0.3618,633.06,-875.49,1906.80
17430,-3.8737,-0.1115,0.4198,-132.57,-1672.30,-77.45
17440,-3.8735,-0.0417,0.4510,1742.43,1749.76,-1592.96
17450,-3.8734,-0.0211,0.4469,-1335.69,1749.88,1578.98
17460,-3.8733,-0.0359,0.4257,1304.93,1218.69,891.48
17470,-3.8733,-0.0419,0.4069,-585.69,-1500.12,-1858.58
17480,-3.8733,-0.0106,0.3982,-1351.32,93.63,532.04
17490,-3.8734,0.0636,0.4053,-1351.32,-1015.69,1688.23
17500,-3.8735,0.1663,0.4220,148.68,-124.88,-30.52
17510,-3.8735,0.2773,0.4178,1289.31,-1984.07,-124.21
17520,-3.8734,0.3745,0.3636,-491.94,1484.86,453.92
17530,-3.8734,0.4376,0.2622,-54.44,-1452.45,1297.55
17540,-3.8733,0.4838,0.1504,23.68,1563.35,125.49
17550,-3.8732,0.5349,0.0714,1929.93,-749.08,-1702.88
17560,-3.8729,0.5967,0.0507,476.81,1141.66,-1953.00
17570,-3.8727,0.6825,0.0767,383.06,-1514.47,1546.94
17580,-3.8724,0.8062,0.1068,-632.57,1813.78,0.12
17590,-3.8723,0.9518,0.1003,-804.44,1673.40,1718.93
17600,-3.8721,1.0836,0.0693,1836.18,845.58,922.06
17610,-3.8718,1.1681,0.0581,-1288.82,877.08,-359.25
17620,-3.8713,1.1726,0.0657,1523.68,-560.24,-1562.44
17630,-3.8707,1.0913,0.0590,-1898.19,408.51,203.25
17640,-3.8702,0.9683,0.0490,-304.44,-451.05,-406.19
17650,-3.8696,0.8657,0.0762,-54.44,-1732.54,-1624.94
17660,-3.8691,0.8143,0.1401,-1179.44,1751.65,750.12
17670,-3.8689,0.8167,0.2151,242.43,1939.09,1656.49
17680,-3.8687,0.8492,0.2795,539.31,-467.16,359.74
17690,-3.8685,0.8807,0.3107,711.18,-217.10,-780.76
17700,-3.8683,0.8903,0.2997,742.43,-232.67,766.17
17710,-3.8683,0.8778,0.2666,1961.18,-1638.92,-1358.83
17720,-3.8684,0.8391,0.2286,367.43,-1873.29,-483.89
17730,-3.8685,0.7594,0.1942,-585.69,1267.21,859.80
17740,-3.8688,0.6327,0.1849,1211.18,860.84,-1655.88
17750,-3.8689,0.4746,0.2120,992.43,-326.90,797.18
17760,-3.8691,0.3199,0.2640,758.06,-858.46,-124.63
17770,-3.8691,0.2058,0.3226,961.18,1797.49,266.11
17780,-3.8693,0.1505,0.3679,-1648.19,1297.24,-1983.76
17790,-3.8693,0.1361,0.3933,-726.32,-906.01,953.80
17800,-3.8693,0.1179,0.4094,1429.93,-1656.01,1875.73
17810,-3.8693,0.0421,0.4075,-898.19,406.43,-61.71
17820,-3.8691,-0.1083,0.3777,1398.68,156.31,1641.42
17830,-3.8691,-0.2728,0.3634,-1851.32,359.13,-93.02
17840,-3.8690,-0.3754,0.4113,1086.18,-1469.30,-1358.70
17850,-3.8689,-0.4023,0.4878,-38.82,655.46,282.04
17860,-3.8689,-0.3811,0.5374,508.06,-1547.67,532.17
17870,-3.8689,-0.3492,0.5463,-773.19,796.08,891.66
17880,-3.8689,-0.3354,0.5195,-695.07,1936.77,-577.09
17890,-3.8688,-0.3344,0.4939,1070.56,-1485.05,-358.40
17900,-3.8687,-0.3497,0.4812,1211.18,-766.30,-1827.21
17910,-3.8687,-0.3956,0.4563,-757.57,1608.64,188.42
17920,-3.8689,-0.4512,0.4277,1367.43,-1578.92,1188.35
17930,-3.8693,-0.4910,0.4169,-1741.94,-1235.29,-858.58
17940,-3.8695,-0.5054,0.4215,1164.31,1374.02,1922.67
17950,-3.8696,-0.4885,0.4331,-679.44,1967.71,250.79
17960,-3.8698,-0.4464,0.4529,1476.81,-547.85,-1717.96
17970,-3.8698,-0.3976,0.4719,-1132.57,1983.46,1922.73
17980,-3.8698,-0.3586,0.4708,1117.43,421.08,610.29
17990,-3.8699,-0.3236,0.4441,-1898.19,280.52,938.42
18000,-3.8701,-0.2881,0.4114,-1413.82,858.70,-702.27
18010,-3.8702,-0.2765,0.3983,-866.94,671.26,1125.79
18020,-3.8705,-0.2939,0.4086,617.43,-1000.55,-749.27
18030,-3.8706,-0.3040,0.4280,-1616.94,311.89,-1452.33
18040,-3.8707,-0.2859,0.4453,1101.81,-1203.74,-1139.83
18050,-3.8708,-0.2544,0.4498,-585.69,1015.01,-1483.52
18060,-3.8711,-0.2299,0.4348,-554.44,1593.20,-186.65
18070,-3.8713,-0.2142,0.4076,-1413.82,-328.61,-1342.96
18080,-3.8716,-0.1974,0.3794,586.18,187.07,407.04
18090,-3.8719,-0.1748,0.3480,-1257.57,577.70,-1671.14
18100,-3.8722,-0.1495,0.3096,1633.06,562.13,-1968.08
18110,-3.8723,-0.1265,0.2803,867.43,-359.68,141.17
18120,-3.8726,-0.1021,0.2755,-179.44,-109.68,-624.51
18130,-3.8727,-0.0753,0.2887,-1054.44,-718.99,-1562.01
18140,-3.8728,-0.0532,0.3069,-1632.57,968.57,719.30
18150,-3.8730,-0.0299,0.3345,1195.56,-703.25,1859.92
18160,-3.8733,-0.0006,0.3835,179.93,-1171.94,1391.24
18170,-3.8737,0.0234,0.4462,-70.07,1109.31,-483.64
18180,-3.8739,0.0299,0.4832,-991.94,1109.38,375.85
18190,-3.8743,0.0272,0.4686,-163.82,1843.75,1500.92
18200,-3.8745,0.0383,0.4185,-507.57,-15.62,797.73
18210,-3.8748,0.0647,0.3551,914.31,1562.56,1719.54
18220,-3.8750,0.0889,0.2920,289.31,1453.25,-483.70
18230,-3.8439,0.1010,0.2389,-616.94,1375.12,-1718.20
18240,-3.8440,0.1090,0.2068,929.93,-1421.69,-1421.45
18250,-3.8440,0.1265,0.2007,1961.18,-1531.07,1250.37
18260,-3.8440,0.1545,0.2037,195.56,1687.74,-1468.38
18270,-3.8439,0.1813,0.1748,-210.69,-1921.63,1078.49
18280,-3.8750,0.2042,0.0964,-788.82,-1624.69,265.93
18290,-3.8749,0.2383,0.0050,-1851.32,344.12,1156.43
18300,-3.8748,0.2885,-0.0530,-1491.94,641.05,-343.75
18310,-3.8745,0.3485,-0.0715,929.93,1219.30,-781.37
18320,-3.8741,0.4111,-0.0740,617.43,-1155.58,452.94
18330,-3.8739,0.4614,-0.0703,633.06,-1467.96,-62.68
18340,-3.8734,0.4980,-0.0597,-929.44,-999.15,812.32
18350,-3.8730,0.5558,-0.0382,-241.94,360.29,1703.00
18360,-3.8727,0.6650,0.0164,-851.32,-889.59,171.75
18370,-3.8726,0.8099,0.1156,1133.06,-1904.97,1625.00
18380,-3.8724,0.9467,0.2367,-320.07,-1201.60,-109.19
18390,-3.8718,1.0394,0.3726,1179.93,-1701.29,-218.32
18400,-3.8708,1.0588,0.5337,1054.93,-310.49,-1124.33
18410,-3.8700,1.0028,0.6832,-460.69,314.51,-1873.96
18420,-3.8694,0.9144,0.7372,367.43,-544.92,1704.41
18430,-3.8689,0.8469,0.6910,1054.93,-1638.85,1407.65
18440,-3.8685,0.8298,0.6287,414.31,454.77,-1670.53
18450,-3.8683,0.8580,0.5925,-1773.19,470.34,-545.65
18460,-3.8680,0.9159,0.5815,1836.18,-154.60,219.85
18470,-3.8680,0.9836,0.5961,1242.43,-1560.73,-1670.78
18480,-3.8679,1.0256,0.6248,1914.31,298.77,423.03
18490,-3.8679,1.0176,0.6398,-710.69,-29.30,-76.97
18500,-3.8678,0.9592,0.6260,-1741.94,1892.58,-436.28
18510,-3.8677,0.8647,0.6008,-1210.69,126.83,360.60
18520,-3.8678,0.7484,0.5931,-1304.44,907.90,1282.41
18530,-3.8679,0.6132,0.6141,-195.07,-76.72,110.47
18540,-3.8682,0.4673,0.6589,-1507.57,-1389.47,-1561.34
18550,-3.8683,0.3312,0.7111,-179.44,344.60,298.16
18560,-3.8685,0.2198,0.7488,-1601.32,-983.76,1063.84
18570,-3.8689,0.1322,0.7603,148.68,-155.82,-248.60
18580,-3.8691,0.0496,0.7526,929.93,1312.74,798.34
18590,-3.8695,-0.0393,0.7374,-1648.19,328.19,-1139.16
18600,-3.8696,-0.1285,0.7300,-1023.19,-1593.87,345.15
18610,-3.8698,-0.2123,0.7466,-445.07,1452.82,1517.03
18620,-3.8698,-0.2841,0.7832,836.18,-422.30,1438.90
18630,-3.8698,-0.3256,0.8153,-351.32,265.01,-810.97
18640,-3.8696,-0.3207,0.8254,-1663.82,374.33,-1607.79
18650,-3.8695,-0.2817,0.8052,-1038.82,1671.20,-1185.91
18660,-3.8694,-0.2354,0.7502,-54.44,-922.49,-1154.72
18670,-3.8693,-0.1918,0.6786,1883.06,46.39,595.21
18680,-3.8694,-0.1472,0.6195,-538.82,-1125.43,-139.34
18690,-3.8694,-0.1055,0.5901,1164.31,-687.81,1157.41
18700,-3.8695,-0.0728,0.5905,-1491.94,-453.37,782.35
18710,-3.8698,-0.0576,0.5999,-1304.44,-406.43,-1217.65
18720,-3.8700,-0.0688,0.5890,633.06,796.75,-139.47
18730,-3.8701,-0.1025,0.5638,-804.44,-593.93,1626.10
18740,-3.8702,-0.1500,0.5583,-1116.94,187.26,907.35
18750,-3.8704,-0.1931,0.5789,804.93,-515.93,813.54
18760,-3.8705,-0.2100,0.6089,-710.69,-1891.05,94.85
18770,-3.8707,-0.2074,0.6255,1133.06,1952.70,-905.09
18780,-3.8708,-0.2057,0.6176,1461.18,77.70,-1295.65
18790,-3.8710,-0.2068,0.5952,1679.93,-937.93,-1826.97
18800,-3.8711,-0.2009,0.5623,1539.31,202.70,173.03
18810,-3.8713,-0.1835,0.5223,-1710.69,-16.05,1297.91
18820,-3.8716,-0.1638,0.4885,523.68,-1125.37,-1358.40
18830,-3.8718,-0.1556,0.4666,-960.69,-1453.49,-436.58
18840,-3.8721,-0.1591,0.4531,86.18,-265.93,-389.77
18850,-3.8723,-0.1682,0.4426,-351.32,-1984.74,-499.15
18860,-3.8726,-0.1770,0.4255,-1523.19,671.51,-608.52
18870,-3.8728,-0.1760,0.3942,1351.81,-1515.99,-702.33
18880,-3.8729,-0.1617,0.3536,1476.81,-1531.62,78.86
18890,-3.8732,-0.1432,0.3202,-695.07,1280.88,-1655.58
18900,-3.8733,-0.1316,0.3053,1679.93,999.69,1438.11
18910,-3.8734,-0.1251,0.3042,-835.69,-906.56,16.17
18920,-3.8737,-0.1183,0.3048,-7.57,-1047.18,1859.92
18930,-3.8739,-0.1134,0.3046,867.43,-968.99,-155.70
18940,-3.8740,-0.1096,0.3070,1492.43,-1000.24,-1608.83
18950,-3.8741,-0.1033,0.3102,1976.81,-687.74,1031.80
18960,-3.8743,-0.0951,0.3114,-1210.69,-281.49,31.80
18970,-3.8744,-0.0845,0.3055,-163.82,-125.24,78.67
18980,-3.8745,-0.0651,0.2825,1195.56,-875.18,1313.05
18990,-3.8745,-0.0286,0.2451,-320.07,171.69,375.55
19000,-3.8745,0.0242,0.2207,351.81,-609.44,1750.43
19010,-3.8745,0.0869,0.2271,-898.19,250.00,-77.70
19020,-3.8744,0.1520,0.2451,-866.94,1062.62,1750.43
19030,-3.8744,0.2083,0.2478,-538.82,-624.76,-640.20
19040,-3.8743,0.2522,0.2266,-1335.69,-280.88,1375.43
19050,-3.8741,0.2928,0.1907,289.31,1000.49,312.93
19060,-3.8740,0.3405,0.1570,1492.43,406.80,531.62
19070,-3.8739,0.3961,0.1442,-413.82,94.36,-1468.44
19080,-3.8737,0.4559,0.1703,-1288.82,-1546.14,1750.24
19090,-3.8734,0.5187,0.2340,-1632.57,1797.73,844.06
19100,-3.8733,0.5809,0.3074,-1601.32,1954.10,-1218.32
19110,-3.8732,0.6360,0.3575,-1632.57,-655.15,-593.20
19120,-3.8730,0.6757,0.3695,1414.31,1766.85,-186.83
19130,-3.8728,0.6896,0.3533,-1507.57,-701.84,1781.92
19140,-3.8726,0.6786,0.3319,273.68,1220.09,-1343.08
19150,-3.8722,0.6622,0.3199,-1132.57,-1514.34,-1265.01
19160,-3.8717,0.6577,0.3121,773.68,954.41,594.36
19170,-3.8713,0.6676,0.3018,195.56,-45.59,-1608.83
19180,-3.8710,0.6890,0.2991,1461.18,-1373.72,-858.83
19190,-3.8706,0.7152,0.3164,195.56,-1717.41,-1546.33
19200,-3.8702,0.7441,0.3573,-445.07,501.34,109.99
19210,-3.8700,0.7817,0.4193,-741.94,1735.78,1406.92
19220,-3.8696,0.8242,0.4868,70.56,1673.40,844.54
19230,-3.8693,0.8461,0.5293,1508.06,-1685.91,-1358.46
19240,-3.8688,0.8359,0.5214,304.93,-248.35,719.73
19250,-3.8684,0.8177,0.4714,-991.94,-1264.04,829.10
19260,-3.8682,0.8124,0.4115,679.93,345.34,860.29
19270,-3.8680,0.8145,0.3712,-7.57,673.40,313.29
19280,-3.8680,0.8104,0.3705,258.06,-482.79,1063.17
19290,-3.8680,0.7893,0.4043,-257.57,-576.60,1219.42
19300,-3.8680,0.7528,0.4457,1039.31,-248.47,1406.98
19310,-3.8680,0.7075,0.4745,367.43,1048.34,1078.98
19320,-3.8682,0.6472,0.4966,-1429.44,735.72,-233.46
19330,-3.8682,0.5670,0.5286,-1148.19,-436.28,1500.92
19340,-3.8683,0.4829,0.5632,586.18,-342.65,-905.27
19350,-3.8683,0.4182,0.5911,1820.56,94.67,-1842.65
19360,-3.8683,0.3688,0.6256,1539.31,-342.96,-467.65
19370,-3.8682,0.3267,0.6642,-788.82,78.80,1188.72
19380,-3.8682,0.2950,0.6769,1820.56,1016.24,954.41
19390,-3.8683,0.2533,0.6589,1773.68,-1358.83,-717.47
19400,-3.8683,0.1847,0.6406,429.93,344.24,329.41
19410,-3.8684,0.1036,0.6422,-351.32,-1999.69,376.22
19420,-3.8685,0.0287,0.6660,1273.68,-1796.69,876.22
19430,-3.8687,-0.0391,0.7125,-320.07,1250.00,-1576.84
19440,-3.8688,-0.1074,0.7716,-991.94,-781.37,-14.28
19450,-3.8688,-0.1829,0.8154,-1741.94,-1218.99,345.21
19460,-3.8690,-0.2653,0.8301,601.81,390.26,-1529.66
19470,-3.8693,-0.3457,0.8260,-1945.07,-1734.92,-1826.54
19480,-3.8695,-0.4124,0.8068,-241.94,1749.27,798.46
19490,-3.8699,-0.4465,0.7714,-773.19,-719.60,-857.85
19500,-3.8701,-0.4358,0.7343,-1148.19,-1250.92,1423.34
19510,-3.8704,-0.3971,0.7172,226.81,1999.15,235.78
19520,-3.8707,-0.3629,0.7205,1179.93,-188.29,-404.91
19530,-3.8710,-0.3518,0.7295,1554.93,233.64,-936.10
19540,-3.8712,-0.3643,0.7402,-1023.19,1389.89,-1295.47
19550,-3.8715,-0.3987,0.7448,1383.06,-1235.11,-1186.10
19560,-3.8717,-0.4412,0.7327,976.81,-657.04,-982.97
19570,-3.8719,-0.4706,0.7052,-460.69,1795.96,-1592.35
19580,-3.8722,-0.4834,0.6746,-226.32,-1719.73,923.22
19590,-3.8726,-0.4886,0.6547,-1866.94,-1641.60,-639.34
19600,-3.8728,-0.4930,0.6476,1461.18,-188.48,-1670.65
19610,-3.8730,-0.4980,0.6454,898.68,-1094.73,-1701.90
19620,-3.8733,-0.4952,0.6440,258.06,-1375.98,-764.40
19630,-3.8734,-0.4712,0.6395,617.43,-1547.85,1016.85
19640,-3.8737,-0.4207,0.6245,-304.44,1874.02,-295.65
19650,-3.8738,-0.3508,0.5995,-1835.69,-47.73,-842.59
19660,-3.8739,-0.2733,0.5671,-898.19,749.27,-655.09
19670,-3.8739,-0.1940,0.5293,1023.68,608.83,126.10
19680,-3.8740,-0.1171,0.4906,-820.07,-234.80,1422.85
19690,-3.8741,-0.0492,0.4523,1023.68,-1187.74,-827.21
19700,-3.8741,0.0082,0.4116,1711.18,1906.13,1172.73
19710,-3.8743,0.0605,0.3619,1054.93,687.50,-624.21
19720,-3.8743,0.1176,0.2921,-241.94,-1671.81,797.55
19730,-3.8744,0.1899,0.2012,-945.07,1390.81,875.55
19740,-3.8745,0.2838,0.0978,320.56,1750.37,1047.24
19750,-3.8746,0.3872,-0.0026,336.18,516.17,-640.44
19760,-3.8745,0.4766,-0.0745,1570.56,-327.39,374.94
19770,-3.8745,0.5374,-0.0980,1008.06,-1530.33,-890.81
19780,-3.8744,0.5667,-0.0775,789.31,-545.84,1890.38
19790,-3.8744,0.5724,-0.0447,539.31,-1920.78,-734.56
19800,-3.8744,0.5653,-0.0342,1273.68,-1717.65,-0.12
19810,-3.8743,0.5428,-0.0508,367.43,-373.90,-1984.50
19820,-3.8741,0.5063,-0.0770,1492.43,1501.04,1828.00
19830,-3.8740,0.4694,-0.0955,820.56,-1858.40,-593.93
19840,-3.8738,0.4410,-0.0896,86.18,-217.83,-1812.74
19850,-3.8735,0.4237,-0.0571,461.18,532.10,31.07
19860,-3.8734,0.4042,-0.0078,-1757.57,688.29,78.00
19870,-3.8734,0.3606,0.0552,-257.57,-999.27,-187.56
19880,-3.8732,0.2952,0.1296,-1835.69,-936.83,1250.06
19890,-3.8729,0.2423,0.1931,1789.31,594.30,1797.12
19900,-3.8726,0.2311,0.2269,-976.32,719.18,1937.87
19910,-3.8721,0.2651,0.2488,1586.18,1047.30,625.43
19920,-3.8716,0.3348,0.2786,1945.56,-155.76,203.55
19930,-3.8711,0.4122,0.3118,-1132.57,-343.14,156.74
19940,-3.8707,0.4701,0.3412,773.68,-92.96,-686.95
19950,-3.8702,0.4987,0.3783,179.93,-327.21,-1390.01
19960,-3.8696,0.4924,0.4396,-163.82,422.79,1953.86
19970,-3.8689,0.4619,0.5255,-960.69,266.54,1672.73
19980,-3.8682,0.4518,0.6122,-866.94,-733.52,-1952.15
19990,-3.8674,0.5029,0.6726,1836.18,-1639.77,454.28
20000,-3.8668,0.5892,0.6981,383.06,-1905.27,220.03
20010,-3.8663,0.6343,0.6888,-570.07,1360.47,313.84
20020,-3.8660,0.5881,0.6498,1195.56,173.10,282.59
20030,-3.8657,0.4694,0.5947,-710.69,-827.03,1204.35
20040,-3.8656,0.3549,0.5394,86.18,125.92,-592.59
20050,-3.8655,0.3120,0.4895,1429.93,1047.55,1657.29
20060,-3.8656,0.3358,0.4447,-54.44,-1343.20,-530.33
20070,-3.8657,0.3645,0.4106,-1007.57,922.49,672.73
20080,-3.8661,0.3459,0.3914,-1335.69,563.17,1063.29
20090,-3.8666,0.2728,0.3710,289.31,-1905.58,-764.89
20100,-3.8668,0.1667,0.3489,-1070.07,-515.14,391.30
20110,-3.8669,0.0521,0.3612,1351.81,656.56,63.17
20120,-3.8669,-0.0464,0.4272,-1320.07,-1765.56,641.30
20130,-3.8669,-0.1152,0.5200,-1929.44,-1297.00,1719.54
20140,-3.8671,-0.1801,0.6021,1258.06,-1422.12,-170.90
20150,-3.8672,-0.2758,0.6620,961.18,1077.76,1579.28
20160,-3.8676,-0.4006,0.7020,711.18,749.45,-420.59
20170,-3.8679,-0.5267,0.7151,726.81,1874.21,-483.03
20180,-3.8683,-0.6305,0.7112,586.18,-454.16,-1561.16
20190,-3.8687,-0.7019,0.7064,-695.07,-954.41,1016.97
20200,-3.8691,-0.7402,0.7006,-1835.69,-1563.90,-186.16
20210,-3.8695,-0.7521,0.6956,1258.06,1686.04,-733.03
20220,-3.8699,-0.7549,0.6982,-257.57,1045.35,-217.41
20230,-3.8701,-0.7650,0.7018,-616.94,1389.10,923.22
20240,-3.8705,-0.7749,0.6937,-1913.82,1842.22,-1779.91
20250,-3.8707,-0.7661,0.6836,820.56,810.97,563.84
20260,-3.8711,-0.7305,0.6799,1945.56,-485.90,-45.59
20270,-3.8713,-0.6697,0.6709,-1491.94,-954.59,-858.09
20280,-3.8716,-0.5916,0.6465,-1710.69,1889.28,1407.53
20290,-3.8719,-0.5099,0.6093,289.31,-1235.53,-1280.03
20300,-3.8723,-0.4395,0.5660,-1257.57,1998.96,-983.22
20310,-3.8727,-0.3878,0.5187,-241.94,467.83,-1889.53
20320,-3.8730,-0.3469,0.4677,-1632.57,-1594.54,704.10
20330,-3.8735,-0.3110,0.4221,-398.19,-125.73,-233.52
20340,-3.8739,-0.2867,0.3901,195.56,-1953.74,-780.46
20350,-3.8743,-0.2721,0.3705,-695.07,1952.51,-952.39
20360,-3.8746,-0.2617,0.3580,1179.93,-563.05,-77.45
20370,-3.8749,-0.2520,0.3431,-1491.94,1843.20,-796.20
20380,-3.8750,-0.2297,0.3158,-241.94,-63.05,1563.11
20390,-3.8439,-0.1836,0.2726,-1398.19,437.01,1578.74
20400,-3.8440,-0.1150,0.2212,508.06,-1094.12,1328.61
20410,-3.8441,-0.0341,0.1753,1289.31,327.88,562.93
20420,-3.8442,0.0392,0.1354,-351.32,-1547.00,359.68
20430,-3.8444,0.0889,0.0911,1023.68,1328.19,1750.24
20440,-3.8444,0.1216,0.0443,-616.94,-343.63,1375.12
20450,-3.8444,0.1526,0.0112,-429.44,1672.06,-859.31
20460,-3.8442,0.1848,0.0021,-460.69,1437.74,-1234.38
20470,-3.8441,0.2144,0.0144,-335.69,265.93,-296.88
20480,-3.8439,0.2363,0.0430,-554.44,1844.12,1109.38
20490,-3.8750,0.2473,0.0731,-1741.94,1500.43,-1640.56
20500,-3.8749,0.2489,0.0870,-335.69,1359.80,-968.63
20510,-3.8748,0.2521,0.0858,-132.57,-858.95,-156.13
20520,-3.8745,0.2689,0.0848,273.68,-1015.14,-1624.88
20530,-3.8743,0.3022,0.0953,-1570.07,-1140.14,-1062.38
20540,-3.8739,0.3413,0.1113,-1304.44,203.67,31.43
20550,-3.8737,0.3765,0.1240,-304.44,-1749.39,140.81
20560,-3.8735,0.4169,0.1282,195.56,-124.27,-1046.69
20570,-3.8733,0.4689,0.1217,1367.43,407.04,1203.37
20580,-3.8730,0.5123,0.1204,23.68,-420.96,218.93
20590,-3.8728,0.5286,0.1420,1586.18,-592.77,953.31
20600,-3.8726,0.5295,0.1779,-335.69,-1827.15,-1124.76
20610,-3.8722,0.5430,0.2013,-210.69,-1233.40,1359.68
20620,-3.8718,0.5851,0.2037,1508.06,1766.66,1265.99
20630,-3.8715,0.6521,0.2089,-1101.32,-1920.78,-1077.76
20640,-3.8710,0.7205,0.2415,-523.19,-1264.40,984.74
20650,-3.8706,0.7668,0.2964,226.81,-1092.35,-1937.07
20660,-3.8702,0.7872,0.3448,-1835.69,1938.96,1563.05
20670,-3.8699,0.7836,0.3739,773.68,142.15,266.30
20680,-3.8696,0.7579,0.3962,304.93,-139.10,-1327.45
20690,-3.8693,0.7307,0.4215,1023.68,-1279.79,406.98
20700,-3.8690,0.7244,0.4476,1539.31,1954.53,1438.29
20710,-3.8688,0.7389,0.4698,726.81,1298.28,1735.23
20720,-3.8685,0.7611,0.4791,-1413.82,142.03,1235.29
20730,-3.8683,0.7839,0.4711,1429.93,1329.59,329.04
20740,-3.8682,0.8145,0.4591,351.81,298.40,-717.83
20750,-3.8679,0.8536,0.4584,258.06,-1232.79,-1905.40
20760,-3.8677,0.8658,0.4763,1273.68,-1326.48,1203.98
20770,-3.8674,0.8143,0.5071,-1163.82,970.40,1313.42
20780,-3.8672,0.6960,0.5317,242.43,907.84,-1374.02
20790,-3.8668,0.5294,0.5386,1101.81,63.84,704.16
20800,-3.8666,0.3615,0.5199,-226.32,938.48,1454.16
20810,-3.8663,0.2457,0.4896,-1726.32,-1452.45,672.85
20820,-3.8661,0.1971,0.4845,-538.82,-1327.70,422.79
20830,-3.8660,0.2057,0.5138,1242.43,-1984.01,-139.71
20840,-3.8657,0.2452,0.5525,-1663.82,1765.99,829.10
20850,-3.8657,0.2599,0.5776,-601.32,-1280.82,-1014.59
20860,-3.8657,0.2024,0.5900,1273.68,1937.99,1782.35
20870,-3.8658,0.0625,0.6108,1914.31,-484.01,407.35
20880,-3.8662,-0.1592,0.6531,8.06,-1812.38,-420.72
20890,-3.8665,-0.4341,0.7067,-366.94,-390.99,1157.47
20900,-3.8668,-0.6716,0.7521,445.56,-1532.10,1876.34
20910,-3.8672,-0.7815,0.7726,-1960.69,279.91,1438.96
20920,-3.8676,-0.7507,0.7671,-23.19,-1095.34,938.96
20930,-3.8679,-0.6516,0.7468,-85.69,-1798.40,1438.96
20940,-3.8683,-0.5750,0.7208,601.81,-391.91,-1639.22
20950,-3.8687,-0.5598,0.6952,-1585.69,280.09,-1170.47
20960,-3.8690,-0.5900,0.6758,351.81,998.90,-1592.41
20970,-3.8694,-0.6368,0.6550,492.43,-1485.53,735.66
20980,-3.8699,-0.6801,0.6304,-1507.57,-141.91,-1780.03
20990,-3.8704,-0.7059,0.6176,961.18,701.78,-139.40
21000,-3.8707,-0.6984,0.6201,1648.68,-938.90,-1842.59
21010,-3.8711,-0.6439,0.6173,-1382.57,-610.78,532.41
21020,-3.8716,-0.5729,0.5948,1586.18,-970.03,-1905.09
21030,-3.8721,-0.5507,0.5646,-1320.07,155.09,-1076.97
21040,-3.8726,-0.5934,0.5529,1523.68,280.15,-280.15
21050,-3.8729,-0.6495,0.5562,54.93,-1219.91,797.91
21060,-3.8734,-0.6755,0.5409,867.43,-798.16,1641.66
21070,-3.8739,-0.6641,0.4990,1539.31,1248.66,-1436.46
21080,-3.8743,-0.6117,0.4501,-991.94,-110.72,485.29
21090,-3.8748,-0.5153,0.4159,1711.18,1623.78,-202.27
21100,-3.8750,-0.3978,0.4003,-1945.07,1248.96,547.67
21110,-3.8441,-0.2946,0.3802,1086.18,-750.79,-1827.39
21120,-3.8444,-0.2142,0.3376,-1695.07,686.89,422.61
21130,-3.8447,-0.1453,0.2822,586.18,-766.05,-296.26
21140,-3.8448,-0.0811,0.2343,1414.31,140.32,469.30
21150,-3.8451,-0.0262,0.2068,1633.06,1999.82,-702.70
21160,-3.8451,0.0133,0.2018,648.68,-1515.69,359.74
21170,-3.8452,0.0454,0.2108,1711.18,1828.12,-812.13
21180,-3.8452,0.0905,0.2213,1820.56,-1015.56,-546.51
21190,-3.8451,0.1575,0.2224,-413.82,328.25,1141.05
21200,-3.8450,0.2343,0.2106,164.31,469.06,562.93
21210,-3.8448,0.2981,0.1991,1992.43,-1046.45,-1921.51
21220,-3.8446,0.3320,0.2040,-1835.69,1484.92,1015.99
21230,-3.8445,0.3350,0.2224,-1491.94,-1890.01,-155.88
21240,-3.8442,0.3221,0.2382,-1116.94,469.36,-1780.82
21250,-3.8441,0.3228,0.2206,1242.43,-1515.01,-312.07
21260,-3.8439,0.3646,0.1609,1320.56,234.99,-1749.57
21270,-3.8748,0.4468,0.1067,-1320.07,594.42,1156.56
21280,-3.8744,0.5421,0.1091,1195.56,1657.10,-984.19
21290,-3.8740,0.6299,0.1670,1398.68,1969.79,-281.07
21300,-3.8737,0.6987,0.2322,633.06,1376.22,1578.43
21310,-3.8734,0.7343,0.2645,1445.56,1720.09,-1827.70
21320,-3.8732,0.7344,0.2659,1992.43,1860.78,-1468.26
21330,-3.8729,0.7262,0.2601,-1991.94,-1967.35,-858.89
21340,-3.8726,0.7412,0.2715,961.18,1298.28,1781.74
21350,-3.8722,0.7859,0.3129,-1116.94,-1248.60,1922.36
21360,-3.8718,0.8577,0.3776,601.81,48.40,1219.36
21370,-3.8716,0.9551,0.4487,1789.31,329.77,-264.89
21380,-3.8712,1.0641,0.5073,-1741.94,1439.33,-1952.27
21390,-3.8710,1.1587,0.5460,211.18,939.58,-374.02
21400,-3.8706,1.2113,0.5709,320.56,1892.88,1735.41
21410,-3.8701,1.2141,0.5630,-945.07,1080.44,141.72
21420,-3.8696,1.1958,0.5048,-585.69,64.82,-1623.90
21430,-3.8691,1.1945,0.4407,1070.56,611.69,-1186.52
21440,-3.8688,1.2091,0.4181,898.68,408.57,-171.02
21450,-3.8684,1.2166,0.4266,-1226.32,1517.94,-1405.46
21460,-3.8682,1.2170,0.4270,-273.19,-1388.31,-655.46
21470,-3.8679,1.2211,0.4150,-210.69,-1341.43,-92.96
21480,-3.8676,1.2269,0.4249,304.93,1127.38,1766.42
21490,-3.8672,1.2183,0.4678,1054.93,-1606.99,1907.04
21500,-3.8667,1.1783,0.5184,-54.44,-122.68,1016.48
21510,-3.8662,1.1096,0.5511,-1163.82,-1638.37,954.10
21520,-3.8658,1.0306,0.5543,-1960.69,-1450.99,1626.04
21530,-3.8657,0.9568,0.5356,-70.07,-1044.92,-92.71
21540,-3.8657,0.8887,0.5243,-1523.19,564.33,-748.96
21550,-3.8658,0.8208,0.5411,1758.06,-888.92,1094.73
21560,-3.8662,0.7429,0.5778,1070.56,1267.21,-1248.96
21570,-3.8666,0.6423,0.6154,-898.19,1954.53,1438.60
21580,-3.8671,0.5206,0.6486,-1773.19,-1233.15,-1530.09
21590,-3.8674,0.3997,0.6693,-1351.32,-983.40,16.85
21600,-3.8678,0.3121,0.6708,-835.69,1672.61,1798.16
21610,-3.8679,0.3002,0.6670,-38.82,1859.92,-1248.72
21620,-3.8678,0.3843,0.6842,-1570.07,1375.55,1313.78
21630,-3.8677,0.5094,0.7229,1195.56,-421.14,95.03
21640,-3.8677,0.6064,0.7527,1211.18,532.23,220.15
21650,-3.8678,0.6442,0.7693,1633.06,344.91,1532.71
21660,-3.8679,0.5859,0.7952,-1538.82,-1530.03,157.71
21670,-3.8682,0.4370,0.8270,-991.94,1782.35,220.28
21680,-3.8685,0.2690,0.8491,-54.44,1860.17,-576.54
21690,-3.8688,0.1362,0.8669,-1554.44,687.99,-76.48
21700,-3.8690,0.0570,0.8993,1445.56,-1031.01,-13.98
21710,-3.8693,0.0282,0.9417,-695.07,-890.56,892.33
21720,-3.8698,0.0161,0.9619,-382.57,531.25,-576.29
21730,-3.8701,-0.0179,0.9471,-1929.44,-875.00,-1904.42
21740,-3.8705,-0.0845,0.9166,1711.18,1249.94,1392.46
21750,-3.8708,-0.1680,0.8900,1195.56,1343.57,220.52
21760,-3.8713,-0.2540,0.8704,-1491.94,1937.13,1314.21
21770,-3.8718,-0.3311,0.8412,-507.57,-578.67,1032.90
21780,-3.8723,-0.3711,0.7886,1633.06,-313.17,1579.71
21790,-3.8727,-0.3569,0.7284,508.06,952.39,892.15
21800,-3.8730,-0.3125,0.6846,-1679.44,1249.27,-467.35
21810,-3.8732,-0.2743,0.6647,8.06,-359.99,345.03
21820,-3.8734,-0.2601,0.6497,898.68,1093.20,1595.03
21830,-3.8737,-0.2620,0.6254,-1288.82,-828.67,-1358.15
21840,-3.8739,-0.2700,0.6101,-1523.19,61.95,-530.03
21850,-3.8741,-0.2931,0.6128,1445.56,-1891.17,-155.09
21860,-3.8744,-0.3181,0.6154,-1507.57,-1547.49,-108.22
21870,-3.8745,-0.3132,0.6085,-710.69,-1219.42,954.28
21880,-3.8748,-0.2670,0.5939,-85.69,1905.58,-951.97
21890,-3.8749,-0.1783,0.5583,1836.18,30.70,204.28
21900,-3.8440,-0.0557,0.4911,1179.93,-515.99,-280.21
21910,-3.8442,0.0691,0.4113,883.06,-1125.12,-545.96
21920,-3.8444,0.1595,0.3379,851.81,640.75,985.17
21930,-3.8445,0.2094,0.2592,429.93,-749.69,594.36
21940,-3.8446,0.2510,0.1555,-1195.07,1172.24,1984.86
21950,-3.8446,0.3279,0.0273,133.06,-93.26,1047.12
21960,-3.8446,0.4487,-0.0973,1976.81,-499.39,-1359.38
21970,-3.8445,0.5808,-0.1669,1445.56,-452.27,-406.49
21980,-3.8442,0.6907,-0.1570,-1648.19,-1358.28,-1890.99
21990,-3.8441,0.7612,-0.0957,414.31,-92.41,-797.24
22000,-3.8440,0.7866,-0.0229,1445.56,-248.54,-1062.74
22010,-3.8439,0.7618,0.0282,695.56,1064.03,-1125.06
22020,-3.8749,0.6899,0.0388,1523.68,-389.16,265.62
22030,-3.8746,0.6047,0.0327,320.56,970.09,671.94
22040,-3.8743,0.5537,0.0643,1414.31,188.66,46.94
22050,-3.8740,0.5526,0.1594,-1116.94,235.41,-62.38
22060,-3.8737,0.5803,0.2928,-1257.57,407.29,-1702.82
22070,-3.8734,0.6047,0.3961,-1710.69,1485.47,-1577.58
22080,-3.8732,0.6033,0.4110,1414.31,-1295.72,1344.48
22090,-3.8729,0.5687,0.3655,1226.81,610.53,-1905.46
22100,-3.8726,0.5281,0.3353,804.93,-1217.65,-1014.95
22110,-3.8721,0.5348,0.3717,-398.19,-1077.15,-1077.51
22120,-3.8716,0.6108,0.4635,461.18,-420.84,-905.58
22130,-3.8710,0.7129,0.5256,-1804.44,-670.72,860.23
22140,-3.8704,0.7681,0.4916,-741.94,-717.41,1375.98
22150,-3.8696,0.7397,0.3754,-1679.44,-1076.66,750.92
22160,-3.8688,0.6593,0.2529,-1304.44,48.28,0.73
22170,-3.8679,0.5950,0.2231,398.68,376.28,547.36
22180,-3.8672,0.5811,0.3033,164.31,563.66,1781.68
22190,-3.8666,0.6099,0.4197,-1616.94,-1170.78,1422.42
22200,-3.8662,0.6667,0.5052,-1929.44,1719.91,-296.08
22210,-3.8658,0.7230,0.5289,1351.81,673.16,1500.98
22220,-3.8656,0.7281,0.4901,554.93,-295.47,641.60
22230,-3.8655,0.6479,0.4266,1211.18,-1264.22,1016.54
22240,-3.8655,0.4961,0.3857,-1054.44,-1389.40,1735.17
22250,-3.8656,0.3009,0.3914,-491.94,1375.92,-702.39
22260,-3.8657,0.0957,0.4308,-1476.32,-1905.70,-1280.52
22270,-3.8658,-0.0699,0.4662,258.06,-859.19,1157.04
22280,-3.8661,-0.1614,0.4851,-945.07,-312.68,-905.40
22290,-3.8663,-0.1835,0.4972,-648.19,-1890.99,-155.33
22300,-3.8666,-0.1703,0.5020,523.68,-344.12,-655.33
22310,-3.8668,-0.1592,0.4948,-1788.82,265.26,-1624.02
22320,-3.8671,-0.1754,0.4890,-366.94,-656.62,1797.79
22330,-3.8673,-0.2321,0.5131,1554.93,-1390.99,-967.83
22340,-3.8674,-0.3381,0.5780,-1695.07,1687.01,-1639.65
22350,-3.8676,-0.4730,0.6591,726.81,1999.33,1704.22
22360,-3.8678,-0.5923,0.7101,-538.82,374.02,-717.47
22370,-3.8680,-0.6680,0.7030,195.56,-1094.91,-951.78
22380,-3.8683,-0.6880,0.6532,-1491.94,1998.66,1735.72
22390,-3.8687,-0.6578,0.5948,-54.44,-376.40,-670.65
22400,-3.8690,-0.6005,0.5477,-195.07,154.91,-639.47
22410,-3.8694,-0.5492,0.5063,-851.32,-1876.22,1704.16
22420,-3.8699,-0.5326,0.4594,1711.18,827.03,-1436.52
22430,-3.8704,-0.5499,0.4231,-163.82,-1188.60,-1249.15
22440,-3.8708,-0.5836,0.4257,1617.43,-1829.22,-999.21
22450,-3.8712,-0.6244,0.4543,1304.93,-1501.16,94.54
22460,-3.8717,-0.6619,0.4753,86.18,-1829.35,-124.15
22470,-3.8719,-0.6793,0.4823,-710.69,858.03,-1139.71
22480,-3.8722,-0.6697,0.4811,1054.93,1748.66,-608.46
22490,-3.8724,-0.6429,0.4650,-1710.69,1592.41,-608.46
22500,-3.8727,-0.6127,0.4258,1711.18,-470.03,1516.48
22510,-3.8730,-0.5861,0.3818,1586.18,-1485.60,1750.79
22520,-3.8734,-0.5695,0.3516,992.43,889.47,1625.73
22530,-3.8738,-0.5593,0.3423,-882.57,1014.47,-1030.58
22540,-3.8740,-0.5406,0.3597,414.31,-172.97,-1733.76
22550,-3.8743,-0.5098,0.3953,-1195.07,-1938.60,-608.70
22560,-3.8744,-0.4746,0.4314,-1241.94,-1391.66,-1218.02
22570,-3.8744,-0.4375,0.4532,-741.94,-766.60,328.92
22580,-3.8745,-0.3943,0.4524,8.06,-1969.60,-717.90
22590,-3.8745,-0.3453,0.4277,1539.31,1921.08,-1092.90
22600,-3.8745,-0.2944,0.3857,-195.07,-1235.11,-1874.21
22610,-3.8745,-0.2397,0.3412,-1679.44,1390.01,125.73
22620,-3.8746,-0.1783,0.3075,1320.56,-312.99,1109.99
22630,-3.8748,-0.1117,0.2839,1179.93,-625.37,1625.55
22640,-3.8749,-0.0425,0.2607,1711.18,359.13,-1577.58
22650,-3.8749,0.0217,0.2367,-1429.44,1390.50,125.49
22660,-3.8750,0.0721,0.2198,-1210.69,-1703.12,-999.57
22670,-3.8750,0.1102,0.2185,1242.43,140.75,-780.82
22680,-3.8749,0.1407,0.2307,-1882.57,-31.07,984.74
22690,-3.8748,0.1597,0.2422,-1976.32,1531.49,547.30
22700,-3.8746,0.1661,0.2462,445.56,-999.69,1672.30
22710,-3.8744,0.1730,0.2424,1273.68,-484.07,94.18
22720,-3.8741,0.1935,0.2324,-1851.32,-968.44,391.05
22730,-3.8739,0.2318,0.2301,773.68,1750.37,-796.45
22740,-3.8735,0.2823,0.2418,1679.93,1453.55,-546.45
22750,-3.8732,0.3375,0.2621,148.68,-1046.33,-405.82
22760,-3.8728,0.3989,0.2924,-788.82,1547.49,-1108.89
22770,-3.8724,0.4700,0.3298,-929.44,1422.61,500.55
22780,-3.8723,0.5463,0.3577,164.31,-1780.33,-30.64
22790,-3.8721,0.6176,0.3613,1929.93,1782.29,-1639.95
22800,-3.8718,0.6766,0.3423,-945.07,-1748.84,1297.55
22810,-3.8716,0.7286,0.3259,-1382.57,-186.22,422.49
22820,-3.8715,0.7694,0.3275,1273.68,1720.15,1813.11
22830,-3.8713,0.7704,0.3547,-1507.57,1923.34,828.74
22840,-3.8713,0.7245,0.4254,-1382.57,1407.71,-1014.95
22850,-3.8712,0.6917,0.5114,742.43,-1545.47,-1311.71
22860,-3.8710,0.7438,0.5459,539.31,1454.47,1110.35
22870,-3.8707,0.8750,0.5204,-788.82,1876.40,1704.16
22880,-3.8705,1.0289,0.4912,8.06,-1388.92,-999.02
22890,-3.8702,1.1625,0.4930,-288.82,-1123.05,-342.83
22900,-3.8699,1.2593,0.5085,804.93,-888.37,344.67
22910,-3.8696,1.3136,0.5137,1195.56,1096.19,-1717.77
22920,-3.8693,1.3101,0.5060,148.68,1752.56,1407.23
22930,-3.8690,1.2537,0.4946,-304.44,768.13,-30.27
22940,-3.8688,1.1707,0.4966,476.81,-685.06,-374.08
22950,-3.8685,1.0795,0.5322,1851.81,-435.24,1141.54
22960,-3.8684,0.9957,0.6055,-1820.07,127.08,-889.59
22970,-3.8682,0.9221,0.6687,-538.82,1501.89,-1717.59
22980,-3.8679,0.8586,0.6670,-1960.69,1595.52,1157.53
22990,-3.8678,0.8085,0.6111,1914.31,1376.65,548.16
23000,-3.8679,0.7522,0.5546,-507.57,-1779.72,-1639.47
23010,-3.8680,0.6777,0.5394,289.31,-1014.16,172.91
23020,-3.8683,0.5995,0.5675,-1241.94,1048.16,1266.66
23030,-3.8684,0.5250,0.6158,742.43,641.78,297.97
23040,-3.8685,0.4420,0.6713,-788.82,-1170.90,-1233.22
23050,-3.8685,0.3448,0.7145,586.18,1922.73,-14.34
23060,-3.8684,0.2449,0.7256,148.68,-546.20,-1217.41
23070,-3.8683,0.1410,0.7313,-648.19,875.43,-1889.22
23080,-3.8683,0.0303,0.7571,-1945.07,1609.62,-264.22
23090,-3.8683,-0.0585,0.7777,-116.94,906.25,767.09
23100,-3.8685,-0.0989,0.7628,523.68,-437.62,63.96
23110,-3.8690,-0.1079,0.7234,-648.19,1656.01,-264.16
23120,-3.8694,-0.1248,0.6959,-1804.44,609.13,-982.97
23130,-3.8698,-0.1605,0.7009,39.31,1093.51,-592.41
