timestamp_ms,ax,ay,az,gx,gy,gz
0,-3.8440,-0.9607,-0.5865,-241.94,-1361.33,1826.97
10,-3.8440,-0.9506,-0.5908,1039.31,935.61,-1641.78
20,-3.8440,-0.9510,-0.5963,-1663.82,388.73,1764.47
30,-3.8440,-0.9509,-0.6040,-1726.32,-314.39,1405.03
40,-3.8440,-0.9379,-0.6160,-1710.69,-1298.77,1717.53
50,-3.8440,-0.9153,-0.6344,-38.82,1169.98,-1266.85
60,-3.8439,-0.8846,-0.6527,-1148.19,-1189.33,639.34
70,-3.8439,-0.8481,-0.6631,-1226.32,466.98,-1220.03
80,-3.8750,-0.8066,-0.6632,-554.44,-861.08,201.78
90,-3.8750,-0.7617,-0.6541,758.06,-876.59,592.41
100,-3.8750,-0.7181,-0.6343,-1491.94,295.35,295.59
110,-3.8439,-0.6764,-0.6111,86.18,-1173.28,-235.66
120,-3.8439,-0.6382,-0.6046,1429.93,1795.53,-954.35
130,-3.8439,-0.6025,-0.6189,-1679.44,-1376.28,-1657.47
140,-3.8439,-0.5658,-0.6338,-1116.94,795.65,1826.90
150,-3.8439,-0.5312,-0.6359,-413.82,-1110.53,1373.72
160,-3.8439,-0.5085,-0.6311,8.06,-1376.04,1967.47
170,-3.8439,-0.5000,-0.6267,-1085.69,-766.66,-798.16
180,-3.8439,-0.4913,-0.6238,8.06,-204.10,-1235.66
190,-3.8439,-0.4712,-0.6344,1117.43,170.90,155.03
200,-3.8440,-0.4418,-0.6702,-304.44,-1188.48,889.34
210,-3.8441,-0.4088,-0.7197,-538.82,-1766.54,-1563.84
220,-3.8441,-0.3774,-0.7682,-320.07,-110.23,1139.16
230,-3.8441,-0.3549,-0.8077,-304.44,1686.71,857.85
240,-3.8441,-0.3411,-0.8270,-1413.82,624.27,1232.79
250,-3.8441,-0.3221,-0.8163,351.81,-1844.42,1498.35
260,-3.8441,-0.2938,-0.7836,-1226.32,-469.42,1029.60
270,-3.8442,-0.2694,-0.7467,-1601.32,-281.86,-48.46
280,-3.8442,-0.2550,-0.7095,1523.68,436.95,-610.84
290,-3.8442,-0.2389,-0.6758,-632.57,1202.58,-345.15
300,-3.8442,-0.2180,-0.6658,1429.93,1515.14,-657.59
310,-3.8442,-0.2039,-0.6881,101.81,-1203.55,-1845.09
320,-3.8442,-0.1998,-0.7269,1914.31,-62.93,1467.35
330,-3.8442,-0.1992,-0.7646,-1570.07,-1031.68,-1845.21
340,-3.8442,-0.1968,-0.7877,-1491.94,-1859.80,-548.40
350,-3.8442,-0.1897,-0.7893,-1179.44,-812.93,-360.96
360,-3.8442,-0.1755,-0.7814,-273.19,-1016.05,1967.16
370,-3.8444,-0.1572,-0.7827,1539.31,-0.37,-626.59
380,-3.8444,-0.1398,-0.8030,-116.94,-172.24,1279.66
390,-3.8444,-0.1255,-0.8345,-1882.57,1234.07,545.29
400,-3.8444,-0.1147,-0.8633,-54.44,1202.82,1279.60
410,-3.8444,-0.1063,-0.8761,1320.56,1515.38,-1142.33
420,-3.8442,-0.1047,-0.8646,-1601.32,-125.24,529.48
430,-3.8442,-0.1112,-0.8315,-1398.19,1343.51,-1923.58
440,-3.8441,-0.1169,-0.7843,1773.68,1577.88,310.85
450,-3.8440,-0.1189,-0.7316,1039.31,-375.24,123.41
460,-3.8439,-0.1172,-0.6875,789.31,-1625.24,248.54
470,-3.8439,-0.1069,-0.6729,1008.06,15.38,-751.34
480,-3.8750,-0.0917,-0.6974,-1679.44,1890.38,1858.03
490,-3.8749,-0.0857,-0.7448,273.68,-1250.18,1420.47
500,-3.8748,-0.0870,-0.7788,1039.31,687.32,-1735.84
510,-3.8746,-0.0774,-0.7678,867.43,327.94,-735.90
520,-3.8745,-0.0521,-0.7158,-1898.19,1734.19,-1267.15
530,-3.8744,-0.0206,-0.6512,1336.18,390.50,498.60
540,-3.8744,0.0126,-0.5972,1367.43,656.19,1420.59
550,-3.8744,0.0530,-0.5748,1617.43,-437.50,1920.65
560,-3.8744,0.1011,-0.5975,-1210.69,-1578.06,-1188.66
570,-3.8743,0.1445,-0.6572,945.56,-484.19,1655.03
580,-3.8741,0.1729,-0.7222,-1491.94,-124.76,-1235.72
590,-3.8739,0.1877,-0.7472,-1866.94,-437.19,1029.79
600,-3.8738,0.1968,-0.7101,39.31,359.74,-767.09
610,-3.8735,0.2128,-0.6218,1195.56,1109.74,154.85
620,-3.8735,0.2560,-0.5105,-757.57,406.62,-173.10
630,-3.8734,0.3417,-0.4083,773.68,-1343.26,-1282.29
640,-3.8734,0.4526,-0.3418,-257.57,-265.01,-391.48
650,-3.8734,0.5525,-0.3312,1945.56,250.85,-906.92
660,-3.8733,0.6312,-0.3855,-1273.19,1610.41,561.83
670,-3.8732,0.6870,-0.4794,804.93,-1342.53,827.33
680,-3.8730,0.6996,-0.5560,-54.44,-1358.09,-1266.60
690,-3.8728,0.6897,-0.5808,1554.93,829.47,1545.78
700,-3.8726,0.6910,-0.5850,289.31,1657.59,1905.09
710,-3.8722,0.7234,-0.6183,461.18,1126.34,1061.34
720,-3.8717,0.8195,-0.6990,601.81,860.78,748.78
730,-3.8710,0.9504,-0.8217,898.68,-1467.16,139.22
740,-3.8701,1.0494,-0.9515,1664.31,-1170.04,-923.52
750,-3.8691,1.0614,-0.9982,-1663.82,-1794.86,-173.77
760,-3.8682,0.9449,-0.8203,-132.57,236.39,638.67
770,-3.8676,0.7417,-0.3944,961.18,-998.17,1951.48
780,-3.8673,0.5952,0.0621,-1054.44,1517.03,-875.79
790,-3.8674,0.6250,0.2480,195.56,-45.72,62.56
800,-3.8682,0.7963,0.0642,8.06,-248.78,-702.70
810,-3.8689,0.9629,-0.2909,1929.93,220.28,1390.75
820,-3.8696,1.0134,-0.5677,-741.94,-1232.54,1811.89
830,-3.8702,0.9539,-0.6704,1726.81,-669.92,-1126.16
840,-3.8706,0.8673,-0.6355,-1898.19,-1810.67,61.16
850,-3.8710,0.8169,-0.5530,-976.32,-1342.10,1311.22
860,-3.8712,0.8019,-0.4910,570.56,1220.34,-501.10
870,-3.8712,0.7971,-0.4688,-1351.32,1157.78,-844.73
880,-3.8711,0.7947,-0.4663,-1960.69,1.53,-1157.17
890,-3.8708,0.7920,-0.4528,1726.81,314.03,499.08
900,-3.8707,0.7844,-0.4203,1383.06,-1951.60,1936.58
910,-3.8706,0.7750,-0.3971,414.31,-1795.35,1405.40
920,-3.8706,0.7750,-0.4053,-788.82,1173.34,-375.79
930,-3.8705,0.7914,-0.4207,-788.82,126.46,-1766.42
940,-3.8704,0.8134,-0.4093,1304.93,-1842.22,889.77
950,-3.8704,0.8302,-0.3768,117.43,-389.04,1296.02
960,-3.8705,0.8535,-0.3640,-1726.32,-232.79,1655.46
970,-3.8707,0.8936,-0.3958,1258.06,1407.90,-1594.48
980,-3.8710,0.9358,-0.4546,-1616.94,1345.46,1499.21
990,-3.8712,0.9491,-0.5038,-210.69,1814.27,1264.71
1000,-3.8715,0.9194,-0.5221,1492.43,-482.54,-1407.29
1010,-3.8716,0.8746,-0.5117,1695.56,1173.65,1655.21
1020,-3.8717,0.8379,-0.4807,-38.82,-1498.35,-1110.41
1030,-3.8717,0.8007,-0.4354,-741.94,-1529.66,1170.90
1040,-3.8718,0.7566,-0.3827,-1507.57,267.15,-1453.98
1050,-3.8719,0.7061,-0.3334,851.81,-982.91,1811.71
1060,-3.8722,0.6447,-0.3125,-1616.94,1329.47,-1578.80
1070,-3.8724,0.5742,-0.3381,-1476.32,1.22,1233.76
1080,-3.8728,0.5043,-0.3896,1508.06,719.85,-31.92
1090,-3.8730,0.4457,-0.4226,554.93,-1874.02,-469.54
1100,-3.8732,0.4097,-0.4093,1054.93,1907.10,233.52
1110,-3.8734,0.3939,-0.3608,445.56,-389.83,-1922.73
1120,-3.8735,0.3772,-0.3062,-1570.07,1813.23,1343.02
1130,-3.8737,0.3413,-0.2653,289.31,813.23,-938.11
1140,-3.8737,0.2880,-0.2422,-304.44,-1952.51,-703.67
1150,-3.8735,0.2225,-0.2335,867.43,1000.55,515.14
1160,-3.8735,0.1361,-0.2405,492.43,-1890.20,546.39
1170,-3.8737,0.0319,-0.2646,1429.93,1218.99,1905.76
1180,-3.8738,-0.0555,-0.2876,86.18,-1874.94,1233.83
1190,-3.8739,-0.0920,-0.2847,898.68,-797.00,171.26
1200,-3.8741,-0.0892,-0.2618,226.81,-422.06,-1078.74
1210,-3.8743,-0.0938,-0.2424,586.18,-1500.18,1561.95
1220,-3.8744,-0.1317,-0.2343,8.06,984.19,1515.14
1230,-3.8745,-0.1910,-0.2307,-851.32,-1969.06,-312.99
1240,-3.8745,-0.2488,-0.2196,-445.07,-1516.05,-0.49
1250,-3.8744,-0.2858,-0.1855,164.31,-94.24,1780.76
1260,-3.8743,-0.2930,-0.1283,-570.07,265.01,62.13
1270,-3.8743,-0.2871,-0.0692,-1491.94,-406.86,1937.19
1280,-3.8743,-0.2961,-0.0251,-741.94,-844.36,-718.93
1290,-3.8741,-0.3236,0.0078,-1898.19,796.26,546.81
1300,-3.8741,-0.3516,0.0315,-1413.82,1014.95,1515.62
1310,-3.8741,-0.3806,0.0485,-991.94,46.14,1140.69
1320,-3.8741,-0.4482,0.0837,-710.69,-1782.04,0.06
1330,-3.8741,-0.5748,0.1268,-1366.94,-1266.54,109.50
1340,-3.8741,-0.7264,0.1390,-1570.07,248.84,-1687.26
1350,-3.8740,-0.8445,0.1265,-976.32,1811.04,-1749.76
1360,-3.8739,-0.8661,0.0978,-85.69,201.42,-1327.88
1370,-3.8738,-0.8540,0.0603,1148.68,529.54,-1656.07
1380,-3.8737,-0.8868,0.0695,-1304.44,-267.33,421.94
1390,-3.8737,-0.9266,0.1241,-1507.57,904.48,-484.25
1400,-3.8734,-0.9661,0.1782,1398.68,-95.58,-1765.44
1410,-3.8732,-1.0454,0.2239,351.81,-1173.77,-671.57
1420,-3.8729,-1.1528,0.2469,-1804.44,669.80,-312.07
1430,-3.8728,-1.1992,0.2540,445.56,-377.26,-437.07
1440,-3.8728,-1.1937,0.2750,-1491.94,528.87,1234.86
1450,-3.8730,-1.2189,0.2821,-788.82,-783.63,1422.36
1460,-3.8734,-1.2422,0.2047,-7.57,122.56,-1093.20
1470,-3.8737,-1.2992,0.0499,1008.06,-1783.69,859.74
1480,-3.8740,-1.4594,-0.0988,1711.18,-1596.31,-140.56
1490,-3.8743,-1.6647,-0.1868,1211.18,-627.87,-1343.99
1500,-3.8745,-1.8007,-0.2426,-1070.07,106.08,702.76
1510,-3.8749,-1.8475,-0.2961,1523.68,965.21,-359.86
1520,-3.8749,-1.8889,-0.3330,-476.32,-1894.29,499.39
1530,-3.8748,-1.9135,-0.3447,-1773.19,1386.90,1749.33
1540,-3.8744,-1.9149,-0.3217,-913.82,-113.16,405.52
1550,-3.8741,-1.9305,-0.2821,-1101.32,-1160.03,-172.55
1560,-3.8739,-1.9561,-0.2742,898.68,-97.53,-63.11
1570,-3.8738,-1.9698,-0.3160,1633.06,918.03,-922.42
1580,-3.8738,-1.9485,-0.3757,-132.57,-441.41,-1625.67
1590,-3.8739,-1.9023,-0.4203,-1398.19,-81.97,-500.79
1600,-3.8739,-1.8708,-0.4510,508.06,-1784.97,530.40
1610,-3.8740,-1.8687,-0.4720,539.31,-1722.41,-719.67
1620,-3.8740,-1.8921,-0.4852,820.56,-409.91,-672.85
1630,-3.8739,-1.9255,-0.4861,1820.56,1902.53,452.15
1640,-3.8739,-1.9484,-0.4717,1539.31,1793.09,-1063.48
1650,-3.8738,-1.9536,-0.4563,-1382.57,-363.22,1920.90
1660,-3.8737,-1.9343,-0.4492,1945.56,1605.53,45.96
1670,-3.8737,-1.9019,-0.4415,414.31,-1488.16,608.46
1680,-3.8738,-1.8804,-0.4265,570.56,-503.72,-360.29
1690,-3.8738,-1.8627,-0.4017,-679.44,1418.15,-1875.85
1700,-3.8738,-1.8357,-0.3700,1586.18,590.09,999.21
1710,-3.8738,-1.7971,-0.3414,1039.31,652.65,608.64
1720,-3.8738,-1.7418,-0.3231,1976.81,308.96,1358.70
1730,-3.8738,-1.6749,-0.3096,1054.93,-1347.17,-641.30
1740,-3.8737,-1.6049,-0.2919,1617.43,387.33,1343.14
1750,-3.8737,-1.5444,-0.2738,-1413.82,-1346.92,1671.26
1760,-3.8737,-1.4963,-0.2552,-1679.44,965.70,499.45
1770,-3.8738,-1.4515,-0.2329,476.81,-659.18,-1328.67
1780,-3.8738,-1.4133,-0.2113,-1788.82,-1799.74,421.39
1790,-3.8739,-1.3804,-0.1959,-898.19,965.94,-1687.93
1800,-3.8739,-1.3418,-0.1877,-679.44,-1065.25,468.32
1810,-3.8740,-1.2914,-0.1798,258.06,-18.25,-1047.30
1820,-3.8740,-1.2358,-0.1611,-1288.82,997.44,-1703.49
1830,-3.8740,-1.1871,-0.1259,1820.56,-611.82,-1390.99
1840,-3.8740,-1.1445,-0.0824,54.93,-96.07,-562.81
1850,-3.8740,-1.0991,-0.0543,1508.06,1466.49,-187.68
1860,-3.8740,-1.0514,-0.0464,-679.44,1060.30,-968.87
1870,-3.8740,-0.9999,-0.0494,1429.93,-1923.95,1109.25
1880,-3.8741,-0.9382,-0.0586,23.68,1685.55,-1343.87
1890,-3.8741,-0.8721,-0.0594,-85.69,513.73,1171.75
1900,-3.8741,-0.8104,-0.0442,383.06,404.54,1499.88
1910,-3.8741,-0.7521,-0.0242,273.68,-1642.21,-1375.12
1920,-3.8741,-0.6895,-0.0145,-257.57,920.35,-1015.69
1930,-3.8741,-0.6157,-0.0223,-241.94,-1845.15,1984.31
1940,-3.8741,-0.5371,-0.0350,1195.56,1155.03,421.81
1950,-3.8743,-0.4685,-0.0300,-741.94,-469.85,-203.25
1960,-3.8741,-0.4103,-0.0073,39.31,170.96,937.44
1970,-3.8741,-0.3578,0.0105,-507.57,-922.73,-1000.06
1980,-3.8740,-0.3051,0.0100,-1788.82,1358.64,250.00
1990,-3.8741,-0.2490,-0.0035,961.18,1296.26,-78.12
2000,-3.8741,-0.2006,-0.0200,133.06,-437.99,-1625.06
2010,-3.8741,-0.1654,-0.0299,-1663.82,1452.70,374.94
2020,-3.8743,-0.1349,-0.0283,-1163.82,187.13,-953.19
2030,-3.8743,-0.1006,-0.0182,-1257.57,390.32,-406.31
2040,-3.8741,-0.0645,-0.0051,-866.94,1687.26,-1359.44
2050,-3.8740,-0.0328,0.0107,-241.94,-640.81,-625.06
2060,-3.8738,-0.0068,0.0331,-195.07,1390.50,203.12
2070,-3.8738,0.0248,0.0543,-866.94,249.94,-218.69
2080,-3.8737,0.0641,0.0671,-820.07,-1046.88,1203.19
2090,-3.8737,0.0968,0.0641,211.18,593.87,797.00
2100,-3.8737,0.1183,0.0422,398.68,203.31,187.62
2110,-3.8737,0.1439,0.0272,-851.32,1406.43,1437.56
2120,-3.8735,0.1958,0.0381,-1570.07,-515.38,796.88
2130,-3.8734,0.2727,0.0632,1070.56,875.37,1375.06
2140,-3.8733,0.3528,0.0922,-1085.69,94.24,-953.00
2150,-3.8730,0.4198,0.1194,1164.31,-202.45,1453.25
2160,-3.8728,0.4644,0.1382,1742.43,-717.96,265.81
2170,-3.8727,0.4769,0.1545,-554.44,1688.35,-124.76
2180,-3.8723,0.4629,0.1779,1054.93,-217.83,172.12
2190,-3.8721,0.4585,0.2070,-741.94,-1233.52,531.56
2200,-3.8719,0.4972,0.2279,-1304.44,-1499.15,-421.51
2210,-3.8717,0.5764,0.2297,-351.32,1172.79,219.18
2220,-3.8717,0.6700,0.2191,1789.31,1407.35,-1593.32
2230,-3.8717,0.7562,0.2075,1773.68,48.16,-952.70
2240,-3.8716,0.8347,0.2091,804.93,-1436.04,469.12
2250,-3.8716,0.9152,0.2300,-1148.19,-1232.79,-421.51
2260,-3.8715,1.0061,0.2612,1148.68,1439.27,-1890.20
2270,-3.8715,1.1046,0.2968,789.31,1439.45,-1780.76
2280,-3.8715,1.2094,0.3350,1398.68,1986.51,984.92
2290,-3.8716,1.3245,0.3590,-1195.07,-1122.68,-843.14
2300,-3.8716,1.4415,0.3488,1539.31,1955.69,594.42
2310,-3.8717,1.5455,0.3126,523.68,643.43,-1905.58
2320,-3.8717,1.6337,0.2864,1836.18,18.62,47.49
2330,-3.8718,1.6943,0.2939,1117.43,659.42,-1108.83
2340,-3.8718,1.7168,0.3104,883.06,1628.30,-936.95
2350,-3.8717,1.7159,0.2996,-241.94,-262.33,109.92
2360,-3.8717,1.7081,0.2594,-351.32,-1652.95,1406.80
2370,-3.8717,1.6985,0.2054,-1351.32,1206.42,-812.01
2380,-3.8716,1.6876,0.1554,1414.31,-1699.83,-1937.13
2390,-3.8715,1.6788,0.1276,23.68,-106.08,-1984.13
2400,-3.8713,1.6420,0.1296,-1101.32,331.36,-671.63
2410,-3.8711,1.5493,0.1526,-1820.07,596.92,-1874.76
2420,-3.8708,1.4326,0.1710,-1679.44,-465.76,1609.62
2430,-3.8706,1.3462,0.1740,-616.94,1893.37,719.06
2440,-3.8705,1.3035,0.1602,320.56,-1731.75,1515.93
2450,-3.8705,1.2738,0.1270,-1148.19,502.50,1937.81
2460,-3.8706,1.2548,0.0841,-945.07,252.44,-1327.88
2470,-3.8707,1.2534,0.0490,617.43,-1231.93,-1187.38
2480,-3.8707,1.2496,0.0326,445.56,-1731.93,78.19
2490,-3.8708,1.2335,0.0386,-38.82,174.26,-1687.44
2500,-3.8708,1.2150,0.0739,1898.68,939.88,1328.19
2510,-3.8708,1.1979,0.1279,-476.32,1455.44,640.75
2520,-3.8710,1.1744,0.1614,1336.18,377.32,-546.63
2530,-3.8710,1.1469,0.1530,-1663.82,658.51,1094.06
2540,-3.8711,1.1233,0.1184,-1195.07,-419.68,1250.24
2550,-3.8712,1.1003,0.0763,-210.69,-841.61,672.06
2560,-3.8713,1.0660,0.0405,851.81,1767.76,250.12
2570,-3.8715,1.0057,0.0195,461.18,1189.58,468.81
2580,-3.8716,0.9308,0.0065,742.43,-1498.05,1140.62
2590,-3.8717,0.8734,-0.0087,-851.32,829.90,1625.00
2600,-3.8718,0.8420,-0.0193,-195.07,-1107.73,1796.81
2610,-3.8719,0.8136,-0.0072,-210.69,1532.84,-1671.94
2620,-3.8719,0.7772,0.0342,148.68,-920.29,265.56
2630,-3.8721,0.7426,0.0725,-507.57,376.46,-484.31
2640,-3.8721,0.7120,0.0652,-945.07,1282.65,-1609.25
2650,-3.8722,0.6886,0.0156,-851.32,345.09,-906.13
2660,-3.8723,0.6741,-0.0444,148.68,-1998.66,1812.50
2670,-3.8726,0.6698,-0.0938,-1710.69,-1686.22,-484.50
2680,-3.8727,0.6746,-0.1306,1742.43,1.28,374.82
2690,-3.8729,0.6830,-0.1558,-1648.19,-717.47,968.44
2700,-3.8732,0.6863,-0.1661,-570.07,63.78,-906.56
2710,-3.8732,0.6685,-0.1550,-148.19,-1264.34,1202.76
2720,-3.8732,0.6293,-0.1218,1570.56,157.53,-953.43
2730,-3.8730,0.5830,-0.0864,554.93,407.47,1781.01
2740,-3.8730,0.5320,-0.0675,-1366.94,938.60,-906.43
2750,-3.8730,0.4636,-0.0759,101.81,-639.59,-468.93
2760,-3.8729,0.3781,-0.1223,-648.19,-1717.90,421.69
2770,-3.8729,0.2947,-0.1952,398.68,344.48,781.01
2780,-3.8730,0.2345,-0.2657,1726.81,-983.83,-562.93
2790,-3.8730,0.2007,-0.3094,-1976.32,1984.80,1218.20
2800,-3.8732,0.1788,-0.3135,1695.56,390.99,-625.61
2810,-3.8732,0.1523,-0.2809,-1101.32,-124.69,1530.58
2820,-3.8733,0.1083,-0.2046,-491.94,47.12,-875.55
2830,-3.8733,0.0327,-0.0835,1867.43,1812.68,1437.07
2840,-3.8733,-0.0795,0.0073,195.56,1312.56,-1062.68
2850,-3.8732,-0.2072,-0.0098,1836.18,952.94,1984.38
2860,-3.8732,-0.3153,-0.1007,1492.43,-1234.80,-1578.19
2870,-3.8733,-0.3789,-0.1886,-351.32,-875.67,-47.12
2880,-3.8733,-0.4052,-0.2367,-491.94,-125.79,483.95
2890,-3.8734,-0.4257,-0.2428,148.68,1717.96,1593.26
2900,-3.8735,-0.4655,-0.2159,1523.68,936.65,-0.49
2910,-3.8734,-0.5239,-0.1815,429.93,374.08,77.70
2920,-3.8734,-0.5839,-0.1617,945.56,780.21,-1640.99
2930,-3.8733,-0.6218,-0.1493,1273.68,-688.66,1765.26
2940,-3.8732,-0.6514,-0.1362,414.31,905.03,280.94
2950,-3.8732,-0.7020,-0.1448,633.06,-1423.16,1265.32
2960,-3.8732,-0.7449,-0.1833,-1851.32,1482.97,702.82
2970,-3.8733,-0.7605,-0.2286,664.31,545.41,-984.74
2980,-3.8733,-0.8112,-0.2639,-1335.69,-1251.53,1218.26
2990,-3.8733,-0.9432,-0.2885,179.93,-1767.21,905.70
3000,-3.8733,-1.0759,-0.3025,-726.32,-908.14,1108.76
3010,-3.8734,-1.1282,-0.3097,-1710.69,1294.74,-484.99
3020,-3.8734,-1.0710,-0.3134,-398.19,372.74,1280.64
3030,-3.8735,-0.9426,-0.3070,-1085.69,-95.89,-891.30
3040,-3.8737,-0.8097,-0.3105,-648.19,716.86,-344.36
3050,-3.8737,-0.6877,-0.3483,367.43,264.04,421.26
3060,-3.8737,-0.5748,-0.4089,-23.19,-563.90,811.77
3070,-3.8735,-0.4727,-0.4596,-1570.07,-329.28,-1266.48
3080,-3.8732,-0.4150,-0.4843,-491.94,1186.52,1764.71
3090,-3.8728,-0.4271,-0.4998,-1116.94,-1969.60,-969.73
3100,-3.8724,-0.5044,-0.5153,1336.18,46.02,-32.23
3110,-3.8721,-0.6090,-0.5220,-554.44,-1938.54,-376.04
3120,-3.8717,-0.6870,-0.5275,-1945.07,1201.90,1858.34
3130,-3.8715,-0.7344,-0.5475,70.56,498.66,-63.54
3140,-3.8711,-0.7815,-0.5771,-1991.94,1936.04,-1938.60
3150,-3.8708,-0.8488,-0.6029,-23.19,-1860.96,1295.72
3160,-3.8708,-0.9385,-0.6265,-632.57,-1157.96,-501.22
3170,-3.8708,-1.0272,-0.6564,-116.94,-173.77,1654.97
3180,-3.8710,-1.1038,-0.6881,523.68,-2.01,1967.41
3190,-3.8711,-1.1573,-0.7111,-1273.19,-64.70,-1517.03
3200,-3.8712,-1.1726,-0.7219,-132.57,997.68,-188.90
3210,-3.8712,-1.1555,-0.7284,1914.31,-392.94,1857.91
3220,-3.8712,-1.1279,-0.7314,101.81,-1221.01,904.79
3230,-3.8712,-1.1121,-0.7228,-366.94,-1611.63,1607.91
3240,-3.8711,-1.1039,-0.7051,1664.31,-502.20,248.54
3250,-3.8710,-1.0862,-0.6871,-1288.82,1763.43,201.72
3260,-3.8708,-1.0582,-0.6754,976.81,60.36,108.03
3270,-3.8708,-1.0354,-0.6693,554.93,1560.42,-1470.09
3280,-3.8708,-1.0332,-0.6622,-523.19,-1658.33,-1141.97
3290,-3.8708,-1.0422,-0.6543,-241.94,-752.08,1608.03
3300,-3.8710,-1.0441,-0.6473,-1398.19,263.55,-673.16
3310,-3.8710,-1.0370,-0.6396,-1632.57,1154.17,420.59
3320,-3.8711,-1.0309,-0.6279,-726.32,-1861.45,1561.22
3330,-3.8712,-1.0271,-0.6088,54.93,-361.39,-501.28
3340,-3.8712,-1.0176,-0.5851,539.31,-1908.26,-1719.97
3350,-3.8712,-0.9980,-0.5625,1758.06,1122.99,1326.97
3360,-3.8712,-0.9723,-0.5430,258.06,13.67,311.40
3370,-3.8713,-0.9513,-0.5192,-445.07,-1486.33,-782.35
3380,-3.8713,-0.9349,-0.4858,-1757.57,1560.61,1483.34
3390,-3.8715,-0.9099,-0.4562,336.18,1826.29,-1188.48
3400,-3.8716,-0.8685,-0.4436,-460.69,1623.17,-485.29
3410,-3.8716,-0.8174,-0.4359,836.18,-767.33,139.71
3420,-3.8717,-0.7675,-0.4187,-616.94,217.10,139.77
3430,-3.8719,-0.7185,-0.3960,1773.68,-1579.65,1967.90
3440,-3.8722,-0.6636,-0.3690,39.31,1326.72,-1250.79
3450,-3.8723,-0.6097,-0.3395,-929.44,779.91,1030.52
3460,-3.8724,-0.5834,-0.3204,1961.18,561.28,1405.58
3470,-3.8726,-0.5864,-0.3224,1336.18,-1001.16,-172.55
3480,-3.8724,-0.5896,-0.3361,945.56,-1251.16,233.70
3490,-3.8724,-0.5750,-0.3391,539.31,998.84,1843.08
3500,-3.8724,-0.5446,-0.3274,-1585.69,608.22,-391.30
3510,-3.8723,-0.5165,-0.3052,-1695.07,-1891.72,1233.70
3520,-3.8723,-0.5000,-0.2761,1898.68,952.09,-1844.36
3530,-3.8723,-0.4785,-0.2593,8.06,670.90,1843.20
3540,-3.8723,-0.4480,-0.2605,-1241.94,-1172.85,811.95
3550,-3.8724,-0.4121,-0.2633,-1335.69,-1329.04,-391.17
3560,-3.8724,-0.3658,-0.2550,-741.94,-1688.35,-1609.92
3570,-3.8724,-0.3127,-0.2339,1179.93,-625.73,1280.70
3580,-3.8726,-0.2517,-0.2115,-23.19,-1922.55,-62.99
3590,-3.8726,-0.1818,-0.1989,-210.69,936.95,-1719.18
3600,-3.8726,-0.1146,-0.1877,742.43,-1437.87,780.82
3610,-3.8727,-0.0596,-0.1689,1336.18,-15.87,-312.93
3620,-3.8727,-0.0154,-0.1503,383.06,-1609.50,-1437.87
3630,-3.8727,0.0238,-0.1395,-1960.69,781.19,1515.32
3640,-3.8727,0.0601,-0.1259,-945.07,-1859.38,1249.69
3650,-3.8727,0.0941,-0.0956,-304.44,-109.31,1687.19
3660,-3.8727,0.1273,-0.0571,54.93,-234.19,-1875.24
3670,-3.8727,0.1598,-0.0244,304.93,687.74,-1672.00
3680,-3.8727,0.1901,0.0052,461.18,875.31,-1656.31
3690,-3.8727,0.2280,0.0344,336.18,672.24,1484.38
3700,-3.8728,0.2850,0.0544,1195.56,406.68,-187.44
3710,-3.8728,0.3511,0.0719,492.43,-1030.70,-1703.06
3720,-3.8728,0.4067,0.1044,945.56,1203.80,1843.87
3730,-3.8728,0.4562,0.1439,70.56,1360.17,1515.81
3740,-3.8729,0.5112,0.1777,-1601.32,-1577.27,-312.26
3750,-3.8729,0.5646,0.2224,1445.56,-1249.02,1500.31
3760,-3.8729,0.6011,0.2832,273.68,469.85,859.80
3770,-3.8729,0.6340,0.3369,945.56,251.16,-1858.83
3780,-3.8728,0.6949,0.3696,1164.31,-873.78,1500.61
3790,-3.8727,0.7798,0.3807,961.18,-686.16,-1983.70
3800,-3.8726,0.8673,0.3840,-179.44,735.84,1203.86
3810,-3.8726,0.9510,0.3866,-976.32,1157.90,-1249.27
3820,-3.8724,1.0302,0.3666,1742.43,1486.21,391.36
3830,-3.8724,1.0863,0.3256,-132.57,-1076.17,-733.70
3840,-3.8723,1.1217,0.3022,-945.07,1673.95,-374.39
3850,-3.8722,1.1588,0.3147,-413.82,-1310.36,-280.70
3860,-3.8721,1.1976,0.3527,336.18,283.51,-1421.26
3870,-3.8719,1.2378,0.3943,1304.93,1142.94,813.17
3880,-3.8719,1.2874,0.4127,-1554.44,-1528.87,-1983.64
3890,-3.8719,1.3491,0.4009,789.31,830.63,1266.42
3900,-3.8721,1.4215,0.3662,695.56,-684.88,-1561.77
3910,-3.8722,1.4980,0.3201,1961.18,-1122.25,-1436.83
3920,-3.8723,1.5710,0.2849,-241.94,971.62,-1265.01
3930,-3.8724,1.6392,0.2742,1101.81,471.80,-1140.08
3940,-3.8726,1.7014,0.2827,1820.56,-903.08,-905.76
3950,-3.8726,1.7488,0.2963,1789.31,190.80,391.17
3960,-3.8727,1.7780,0.3055,-148.19,1925.23,-15.08
3970,-3.8726,1.8004,0.3075,-413.82,-887.21,-1921.33
3980,-3.8724,1.8186,0.3026,-1538.82,-637.15,1656.80
3990,-3.8723,1.8230,0.2947,789.31,-1262.08,-1811.95
4000,-3.8722,1.8162,0.2811,1351.81,1722.29,-1358.83
4010,-3.8721,1.8114,0.2609,476.81,-12.08,1984.86
4020,-3.8719,1.8151,0.2345,-132.57,1394.10,1203.61
4030,-3.8718,1.8110,0.2101,336.18,-1980.83,1844.18
4040,-3.8717,1.7892,0.2083,-179.44,-1105.90,-30.88
4050,-3.8715,1.7666,0.2374,1023.68,-1340.27,1906.62
4060,-3.8713,1.7330,0.2819,-1866.94,-1605.96,-1937.07
4070,-3.8713,1.6614,0.3149,1836.18,81.48,-499.45
4080,-3.8713,1.5715,0.3180,664.31,315.73,-1624.39
4090,-3.8715,1.4813,0.2963,1164.31,706.18,-77.51
4100,-3.8715,1.3840,0.2654,1617.43,1924.74,531.80
4110,-3.8716,1.2855,0.2365,1164.31,1971.44,500.49
4120,-3.8717,1.1919,0.2130,554.93,-1731.87,672.30
4130,-3.8718,1.1056,0.1962,570.56,-732.06,1500.37
4140,-3.8719,1.0237,0.1875,1523.68,1111.51,-1234.01
4150,-3.8719,0.9368,0.1847,-960.69,1.95,265.99
4160,-3.8721,0.8491,0.1842,-85.69,-357.60,1609.68
4170,-3.8722,0.7614,0.1760,695.56,-420.23,-1827.82
4180,-3.8723,0.6753,0.1451,1461.18,-1467.29,-1968.44
4190,-3.8724,0.6066,0.0878,-1554.44,-1420.59,937.74
4200,-3.8727,0.5612,0.0118,1648.68,-764.47,-1359.25
4210,-3.8729,0.5278,-0.0670,-163.82,1516.66,-109.38
4220,-3.8730,0.4940,-0.1223,-429.44,-577.15,1843.57
4230,-3.8732,0.4619,-0.1451,-757.57,344.67,843.51
4240,-3.8733,0.4360,-0.1581,-866.94,1422.73,780.94
4250,-3.8734,0.4132,-0.1771,-179.44,-233.58,1859.01
4260,-3.8735,0.3887,-0.2019,898.68,1328.92,-47.24
4270,-3.8735,0.3553,-0.2354,1758.06,-1843.02,-1094.18
4280,-3.8735,0.3158,-0.2716,1492.43,1875.67,-1906.74
4290,-3.8735,0.2826,-0.2968,429.93,1234.99,890.08
4300,-3.8737,0.2682,-0.3064,179.93,-1983.83,-172.49
4310,-3.8737,0.2715,-0.3069,-1663.82,781.74,-891.24
4320,-3.8737,0.2760,-0.3082,-1241.94,719.24,-1500.61
4330,-3.8737,0.2599,-0.3202,-663.82,547.36,-1594.36
4340,-3.8737,0.2178,-0.3390,1273.68,-983.89,-1000.67
4350,-3.8737,0.1643,-0.3485,-116.94,609.74,-281.92
4360,-3.8735,0.1185,-0.3389,1039.31,-609.07,811.77
4370,-3.8735,0.0928,-0.3187,-820.07,625.18,-1094.42
4380,-3.8734,0.0809,-0.3123,-116.94,-796.75,-1985.05
4390,-3.8733,0.0723,-0.3339,-1632.57,31.37,-1672.49
4400,-3.8732,0.0677,-0.3601,1258.06,1265.75,-297.55
4410,-3.8729,0.0717,-0.3573,679.93,1906.37,608.64
4420,-3.8729,0.0720,-0.3319,1179.93,-1734.25,-203.86
4430,-3.8728,0.0520,-0.3138,1226.81,1515.75,1405.58
4440,-3.8728,0.0170,-0.3171,-1335.69,-171.81,1483.70
4450,-3.8728,-0.0154,-0.3295,-1820.07,-593.75,468.08
4460,-3.8729,-0.0378,-0.3345,-1960.69,1843.69,-1125.67
4470,-3.8729,-0.0591,-0.3369,-835.69,1203.00,983.70
4480,-3.8729,-0.0892,-0.3470,445.56,890.50,108.70
4490,-3.8729,-0.1304,-0.3542,586.18,-406.43,1108.64
4500,-3.8729,-0.1815,-0.3376,-679.44,-1328.43,-891.36
4510,-3.8728,-0.2358,-0.2963,773.68,796.51,1093.08
4520,-3.8728,-0.2833,-0.2560,1820.56,-1906.74,-1594.36
4530,-3.8728,-0.3170,-0.2399,-257.57,-750.61,-1125.55
4540,-3.8728,-0.3297,-0.2465,-570.07,1311.83,-1281.74
4550,-3.8728,-0.3220,-0.2466,1804.93,468.08,-1547.36
4560,-3.8728,-0.3057,-0.1849,-1210.69,452.45,1624.51
4570,-3.8729,-0.3025,-0.0593,883.06,343.14,-1453.49
4580,-3.8732,-0.3364,0.0361,1289.31,421.26,-859.50
4590,-3.8734,-0.4200,0.0426,945.56,639.95,843.81
4600,-3.8737,-0.5388,-0.0066,-1757.57,1467.90,1656.31
4610,-3.8738,-0.6677,-0.0571,-960.69,-829.22,-62.56
4620,-3.8737,-0.8094,-0.0881,-1460.69,701.78,1437.38
4630,-3.8735,-0.9487,-0.1227,398.68,732.79,609.19
4640,-3.8734,-1.0571,-0.1677,-1429.44,310.61,468.51
4650,-3.8733,-1.1346,-0.2074,695.56,-1455.20,1030.88
4660,-3.8732,-1.1653,-0.2219,-1226.32,1466.49,-1766.05
4670,-3.8730,-1.1703,-0.1993,-1148.19,-392.94,-187.99
4680,-3.8728,-1.2560,-0.1660,-1788.82,-1502.32,-1484.80
4690,-3.8726,-1.4159,-0.1572,-757.57,-1236.88,1468.38
4700,-3.8724,-1.5084,-0.1711,-1226.32,-112.18,-1703.49
4710,-3.8724,-1.5309,-0.2050,-1070.07,-1893.62,-109.74
4720,-3.8724,-1.5479,-0.2671,54.93,1778.26,-1656.68
4730,-3.8726,-1.5836,-0.3278,1883.06,1825.07,1749.45
4740,-3.8728,-1.6154,-0.3448,1304.93,-1940.61,-656.92
4750,-3.8729,-1.6110,-0.3136,1242.43,-128.17,639.89
4760,-3.8732,-1.5679,-0.2679,1804.93,-128.17,-1110.05
4770,-3.8733,-1.4938,-0.2562,-679.44,1715.64,-1578.67
4780,-3.8734,-1.4011,-0.3146,804.93,-784.18,-1016.17
4790,-3.8734,-1.3115,-0.4146,664.31,-252.75,1139.95
4800,-3.8734,-1.2687,-0.4775,133.06,-1049.44,1889.77
4810,-3.8733,-1.2633,-0.4630,1617.43,-1111.88,-1797.85
4820,-3.8730,-1.2700,-0.4120,-1695.07,747.50,1952.21
4830,-3.8727,-1.2601,-0.3898,1445.56,-721.25,30.40
4840,-3.8724,-1.2273,-0.4209,-1288.82,-1877.50,1905.46
4850,-3.8722,-1.1932,-0.4819,-1085.69,-1861.82,1483.52
4860,-3.8721,-1.1752,-0.5264,-726.32,-1674.26,1952.15
4870,-3.8719,-1.1781,-0.5306,1586.18,638.31,217.71
4880,-3.8719,-1.1874,-0.5123,1211.18,91.43,-1219.79
4890,-3.8718,-1.1924,-0.5070,23.68,-1564.82,-594.79
4900,-3.8716,-1.1792,-0.5226,-616.94,-877.38,998.96
4910,-3.8715,-1.1483,-0.5417,1070.56,1122.68,717.71
4920,-3.8715,-1.1130,-0.5524,1023.68,-1330.38,1905.15
4930,-3.8715,-1.0911,-0.5509,1539.31,1310.30,-1954.22
4940,-3.8715,-1.0918,-0.5436,351.81,1497.86,-1766.72
4950,-3.8715,-1.0944,-0.5431,258.06,-1564.64,-1313.60
4960,-3.8715,-1.0829,-0.5535,-70.07,-1502.20,-1266.72
4970,-3.8715,-1.0533,-0.5564,1398.68,1169.74,1342.65
4980,-3.8716,-1.0293,-0.5385,1179.93,794.80,-1719.85
4990,-3.8717,-1.0355,-0.5227,258.06,-908.26,-1829.22
5000,-3.8718,-1.0500,-0.5238,-538.82,1107.30,1702.09
5010,-3.8719,-1.0502,-0.5157,1601.81,966.67,1248.96
5020,-3.8721,-1.0326,-0.4797,1586.18,1997.92,1155.21
5030,-3.8722,-1.0122,-0.4453,-163.82,-1392.70,1311.52
5040,-3.8723,-1.0050,-0.4263,-1554.44,-986.39,-1907.17
5050,-3.8724,-1.0013,-0.3981,-632.57,1451.11,-188.35
5060,-3.8724,-0.9977,-0.3624,-163.82,1060.49,1311.71
5070,-3.8726,-0.9969,-0.3341,304.93,1623.05,1858.64
5080,-3.8727,-0.9944,-0.3151,398.68,1248.05,1514.95
5090,-3.8728,-0.9796,-0.3066,726.81,-314.45,374.33
5100,-3.8730,-0.9507,-0.3044,-1382.57,763.67,-531.86
5110,-3.8730,-0.9136,-0.2954,-1679.44,1044.98,218.14
5120,-3.8732,-0.8734,-0.2728,-929.44,-1798.71,1983.76
5130,-3.8733,-0.8333,-0.2469,211.18,1092.04,-47.42
5140,-3.8733,-0.7889,-0.2312,1351.81,404.60,-1156.74
5150,-3.8733,-0.7394,-0.2240,-976.32,-1579.71,-609.86
5160,-3.8732,-0.6869,-0.2200,1367.43,-657.71,1046.39
5170,-3.8732,-0.6357,-0.2179,86.18,-141.97,-1594.24
5180,-3.8732,-0.5883,-0.2139,-1366.94,123.72,-484.80
5190,-3.8730,-0.5394,-0.2001,711.18,639.47,671.45
5200,-3.8730,-0.4900,-0.1827,-1038.82,-1594.85,1140.20
5210,-3.8730,-0.4409,-0.1754,1289.31,624.02,1077.76
5220,-3.8730,-0.3877,-0.1720,-429.44,1561.58,1234.01
5230,-3.8730,-0.3374,-0.1641,-1616.94,1999.21,-1578.49
5240,-3.8730,-0.2958,-0.1573,820.56,-985.05,-140.99
5250,-3.8729,-0.2522,-0.1611,-1851.32,-125.61,343.38
5260,-3.8730,-0.2036,-0.1685,-273.19,-609.92,-203.49
5270,-3.8730,-0.1531,-0.1726,1945.56,-1547.30,-1828.49
5280,-3.8732,-0.1038,-0.1812,414.31,1921.57,-140.99
5290,-3.8732,-0.0542,-0.1913,-1273.19,827.88,1624.63
5300,-3.8732,0.0068,-0.1860,1070.56,-468.87,249.57
5310,-3.8732,0.0721,-0.1560,883.06,187.50,15.26
5320,-3.8732,0.1228,-0.1154,1242.43,31.37,843.44
5330,-3.8732,0.1575,-0.0868,-273.19,1234.56,-1250.24
5340,-3.8730,0.1864,-0.0758,164.31,890.93,1218.57
5350,-3.8730,0.2217,-0.0774,-132.57,-1702.82,-328.31
5360,-3.8729,0.2725,-0.0892,383.06,-1905.82,1671.69
5370,-3.8729,0.3422,-0.0977,-1116.94,578.61,-1656.43
5380,-3.8729,0.4222,-0.0826,-195.07,-499.39,906.01
5390,-3.8730,0.4983,-0.0485,-1945.07,1422.67,-1968.93
5400,-3.8732,0.5620,-0.0247,-210.69,1797.79,-484.50
5410,-3.8732,0.6053,-0.0271,-54.44,844.79,-1203.19
5420,-3.8730,0.6290,-0.0354,1492.43,532.41,624.94
5430,-3.8729,0.6511,-0.0232,523.68,-530.03,156.13
5440,-3.8728,0.6835,0.0068,-648.19,1032.47,421.81
5450,-3.8727,0.7028,0.0424,-507.57,876.28,1546.88
5460,-3.8726,0.7084,0.0801,1961.18,1423.22,-765.56
5470,-3.8723,0.7357,0.1151,-1320.07,-1748.66,468.87
5480,-3.8722,0.7839,0.1422,-1820.07,-1264.22,328.31
5490,-3.8722,0.8435,0.1487,351.81,-1795.35,-1827.88
5500,-3.8722,0.9093,0.1245,-23.19,-967.16,-15.38
5510,-3.8719,0.9613,0.0980,398.68,-60.73,453.31
5520,-3.8718,0.9944,0.1122,-945.07,548.71,-687.32
5530,-3.8716,1.0223,0.1830,-710.69,-1638.73,-1531.07
5540,-3.8715,1.0682,0.2943,-1132.57,-576.17,-421.57
5550,-3.8713,1.1515,0.4008,742.43,1673.95,1141.17
5560,-3.8715,1.2778,0.4550,-601.32,-700.93,-343.02
5570,-3.8715,1.4254,0.4515,-429.44,-1763.18,688.35
5580,-3.8716,1.5631,0.4398,-1538.82,1799.62,782.10
5590,-3.8718,1.6774,0.4585,86.18,299.93,-921.02
5600,-3.8721,1.7623,0.4902,-1288.82,-1309.27,-577.27
5610,-3.8723,1.8168,0.4969,1586.18,-1246.58,-1405.33
5620,-3.8726,1.8357,0.4561,554.93,-387.08,-1389.71
5630,-3.8727,1.8242,0.3766,-1023.19,-1621.46,-952.27
5640,-3.8726,1.7882,0.2982,1508.06,206.67,1203.86
5650,-3.8724,1.7004,0.2582,898.68,-1824.65,-1186.95
5660,-3.8722,1.5768,0.2666,1664.31,1050.17,1141.11
5670,-3.8721,1.4812,0.3038,1836.18,-1871.95,-1515.14
5680,-3.8719,1.4294,0.3301,1601.81,-1106.51,-1811.95
5690,-3.8718,1.3988,0.3264,-1023.19,-1747.25,406.86
5700,-3.8718,1.3745,0.2960,-945.07,1783.94,547.49
5710,-3.8719,1.3719,0.2598,-54.44,1893.25,1922.42
5720,-3.8721,1.4036,0.2465,-382.57,1252.62,1797.36
5730,-3.8722,1.4374,0.2561,-335.69,-450.44,1406.68
5740,-3.8723,1.4358,0.2666,-7.57,784.00,625.49
5750,-3.8726,1.4005,0.2633,-210.69,-1872.25,-46.39
5760,-3.8726,1.3488,0.2445,-726.32,1705.81,687.99
5770,-3.8727,1.2917,0.2161,648.68,-700.50,-77.70
5780,-3.8726,1.2466,0.1958,1351.81,-341.25,890.99
5790,-3.8726,1.2079,0.1801,-429.44,1064.88,1969.12
5800,-3.8726,1.1600,0.1425,-1382.57,-950.81,-640.32
5810,-3.8724,1.1086,0.0883,492.43,-1763.37,1453.37
5820,-3.8724,1.0529,0.0431,1914.31,-700.99,-343.63
5830,-3.8723,0.9980,0.0139,-1226.32,1517.64,1828.19
5840,-3.8722,0.9514,-0.0153,-241.94,1783.14,515.62
5850,-3.8721,0.9092,-0.0464,1789.31,-1951.29,484.31
5860,-3.8721,0.8624,-0.0522,383.06,-1935.73,-328.25
5870,-3.8721,0.8143,-0.0372,-1601.32,1314.15,-1625.12
5880,-3.8722,0.7598,-0.0435,242.43,-764.04,593.63
5890,-3.8724,0.6794,-0.0853,1258.06,-1561.04,1187.38
5900,-3.8727,0.5770,-0.1564,-1023.19,1079.41,1124.82
5910,-3.8729,0.4686,-0.2462,1867.43,-14.53,593.38
5920,-3.8732,0.3757,-0.3212,-7.57,485.23,499.51
5930,-3.8735,0.3064,-0.3596,101.81,-1108.64,-63.17
5940,-3.8738,0.2639,-0.3790,-773.19,1969.30,1468.02
5950,-3.8741,0.2593,-0.4099,1789.31,-515.14,1702.33
5960,-3.8745,0.2933,-0.4701,1195.56,-468.26,-1500.85
5970,-3.8748,0.3516,-0.5350,1554.93,-171.33,-1813.48
5980,-3.8749,0.4086,-0.5519,1008.06,-483.70,-1688.60
5990,-3.8749,0.4324,-0.5112,304.93,1360.17,1514.53
6000,-3.8749,0.4015,-0.4662,-648.19,-1436.71,545.84
6010,-3.8750,0.3405,-0.4603,-601.32,328.86,-1985.29
6020,-3.8439,0.2914,-0.4897,-413.82,1078.74,-1719.67
6030,-3.8440,0.2671,-0.5402,1304.93,1313.05,1249.02
6040,-3.8442,0.2573,-0.5959,-1804.44,-1140.14,-579.22
6050,-3.8444,0.2467,-0.6415,945.56,-280.76,1514.40
6060,-3.8445,0.2238,-0.6622,-413.82,1891.05,279.97
6070,-3.8446,0.1886,-0.6460,648.68,-765.20,1451.78
6080,-3.8446,0.1447,-0.6002,148.68,1312.87,-1954.41
6090,-3.8445,0.0924,-0.5497,-1476.32,-827.88,1342.53
6100,-3.8444,0.0422,-0.5145,-163.82,1640.75,1452.03
6110,-3.8442,0.0037,-0.4984,1414.31,-1859.31,1014.59
6120,-3.8441,-0.0221,-0.5033,476.81,203.12,249.02
6130,-3.8441,-0.0326,-0.5367,1179.93,-406.31,-1032.29
6140,-3.8440,-0.0382,-0.5859,-163.82,-687.62,1030.15
6150,-3.8439,-0.0613,-0.6185,-882.57,1015.50,76.97
6160,-3.8750,-0.1121,-0.6099,164.31,843.63,1655.03
6170,-3.8748,-0.1836,-0.5579,1664.31,1952.88,1045.65
6180,-3.8745,-0.2495,-0.4879,508.06,609.01,623.90
6190,-3.8744,-0.2827,-0.4301,70.56,1562.01,-563.48
6200,-3.8741,-0.2889,-0.3905,-179.44,968.14,1514.77
6210,-3.8740,-0.3000,-0.3606,-976.32,-1969.36,-891.42
6220,-3.8738,-0.3401,-0.3418,1601.81,1858.76,749.27
6230,-3.8737,-0.4072,-0.3444,476.81,264.95,1905.58
6240,-3.8735,-0.4841,-0.3691,-116.94,-63.35,749.27
6250,-3.8735,-0.5594,-0.3917,-1960.69,764.65,1264.89
6260,-3.8735,-0.6416,-0.3813,398.68,1873.90,1061.71
6270,-3.8735,-0.7524,-0.3373,1883.06,-798.16,1546.08
6280,-3.8735,-0.8921,-0.2867,-304.44,842.22,-750.67
6290,-3.8734,-0.9916,-0.2527,1820.56,-689.27,1421.26
6300,-3.8734,-1.0464,-0.2211,1086.18,-330.08,1374.45
6310,-3.8735,-1.0946,-0.1835,-1929.44,-283.33,-672.36
6320,-3.8735,-1.1337,-0.1566,-101.32,529.05,1968.38
6330,-3.8735,-1.1732,-0.1362,-1101.32,-33.51,812.13
6340,-3.8737,-1.2473,-0.1217,1836.18,-1424.19,1109.07
6350,-3.8739,-1.3390,-0.1334,351.81,435.06,937.26
6360,-3.8743,-1.3860,-0.1724,617.43,-1065.12,249.69
6370,-3.8748,-1.4296,-0.2430,-1398.19,1950.38,171.51
6380,-3.8440,-1.4600,-0.3335,1023.68,903.44,187.01
6390,-3.8445,-1.4498,-0.3966,1133.06,1325.26,-563.17
6400,-3.8447,-1.4349,-0.4084,-1570.07,1247.13,-844.54
6410,-3.8448,-1.4471,-0.3702,336.18,-268.43,-297.73
6420,-3.8448,-1.4926,-0.3114,-1226.32,622.13,-78.86
6430,-3.8447,-1.5535,-0.2805,961.18,153.32,1374.39
6440,-3.8447,-1.6007,-0.2936,1164.31,106.32,-1109.92
6450,-3.8447,-1.6039,-0.3331,-882.57,-1565.67,-266.24
6460,-3.8447,-1.5767,-0.3674,-1288.82,1371.83,-672.55
6470,-3.8447,-1.5500,-0.3739,-1804.44,981.26,-1563.23
6480,-3.8447,-1.5481,-0.3644,1601.81,153.20,1718.02
6490,-3.8447,-1.5529,-0.3586,1851.81,1371.95,1764.89
6500,-3.8447,-1.5685,-0.3646,1242.43,-1893.68,-1656.98
6510,-3.8447,-1.6022,-0.3749,-757.57,1340.64,-1031.98
6520,-3.8447,-1.6218,-0.3812,-1070.07,28.08,-610.11
6530,-3.8447,-1.6219,-0.3861,414.31,-784.42,-141.42
6540,-3.8446,-1.6057,-0.3947,398.68,-1409.42,499.21
6550,-3.8446,-1.5703,-0.4053,-1523.19,1496.83,842.96
6560,-3.8446,-1.5166,-0.4030,-991.94,137.51,1233.58
6570,-3.8446,-1.4564,-0.3849,1883.06,434.51,-1688.29
6580,-3.8445,-1.4163,-0.3682,1586.18,-1252.87,30.46
6590,-3.8445,-1.3951,-0.3585,-1273.19,887.82,1889.89
6600,-3.8445,-1.3827,-0.3553,1429.93,-1877.75,-1188.23
6610,-3.8445,-1.3722,-0.3651,-976.32,-1471.50,-1469.48
6620,-3.8445,-1.3577,-0.3839,367.43,1278.56,-1906.98
6630,-3.8445,-1.3365,-0.3965,-1773.19,-1127.69,-1594.54
6640,-3.8445,-1.3042,-0.3914,929.93,1263.00,-0.79
6650,-3.8444,-1.2659,-0.3755,1070.56,1919.31,-1422.67
6660,-3.8442,-1.2172,-0.3621,1976.81,-49.38,1452.33
6670,-3.8441,-1.1608,-0.3535,211.18,1669.49,77.39
6680,-3.8441,-1.1149,-0.3496,-570.07,-1236.69,1624.27
6690,-3.8441,-1.0829,-0.3513,1304.93,-736.57,1827.39
6700,-3.8441,-1.0502,-0.3611,1398.68,-955.26,1405.52
6710,-3.8441,-1.0031,-0.3684,1586.18,1794.80,1343.02
6720,-3.8441,-0.9460,-0.3625,-382.57,857.36,1843.02
6730,-3.8441,-0.8875,-0.3535,-1085.69,1607.48,-891.36
6740,-3.8440,-0.8333,-0.3524,-1585.69,-1236.15,1249.27
6750,-3.8439,-0.7877,-0.3590,1351.81,-1095.40,218.02
6760,-3.8439,-0.7460,-0.3691,-820.07,-1939.09,-141.36
6770,-3.8750,-0.7021,-0.3821,523.68,764.16,-641.36
6780,-3.8749,-0.6514,-0.3942,-1866.94,-892.03,-1782.04
6790,-3.8749,-0.5952,-0.4031,633.06,1561.22,-0.79
6800,-3.8748,-0.5392,-0.4126,-179.44,420.65,874.21
6810,-3.8748,-0.4844,-0.4180,-1007.57,-797.97,1577.27
6820,-3.8748,-0.4294,-0.4098,-1991.94,-1485.35,-1375.85
6830,-3.8746,-0.3787,-0.3921,1039.31,-438.35,374.15
6840,-3.8746,-0.3385,-0.3760,-460.69,1827.33,-828.92
6850,-3.8745,-0.3085,-0.3668,679.93,-110.05,-1782.04
6860,-3.8744,-0.2864,-0.3621,523.68,1061.89,218.02
6870,-3.8744,-0.2705,-0.3533,-648.19,1671.26,889.89
6880,-3.8744,-0.2601,-0.3364,1383.06,-1203.67,718.02
6890,-3.8744,-0.2538,-0.3169,-1288.82,952.58,764.95
6900,-3.8744,-0.2402,-0.2992,-476.32,-547.42,-1953.80
6910,-3.8743,-0.2189,-0.2848,1258.06,1718.26,1561.89
6920,-3.8741,-0.1923,-0.2719,-7.57,-437.99,-1234.99
6930,-3.8739,-0.1471,-0.2617,-601.32,1218.32,265.08
6940,-3.8738,-0.0769,-0.2566,1179.93,-1484.68,1405.70
6950,-3.8737,0.0170,-0.2531,-1835.69,-828.31,1796.33
6960,-3.8735,0.1125,-0.2466,-1820.07,-390.62,1515.08
6970,-3.8734,0.1838,-0.2454,-1585.69,437.68,827.64
6980,-3.8733,0.2297,-0.2700,-460.69,594.06,343.26
6990,-3.8732,0.2506,-0.3097,1414.31,1437.93,1296.33
7000,-3.8730,0.2687,-0.3256,86.18,359.86,-250.61
7010,-3.8728,0.3126,-0.3051,-1601.32,-1671.39,1874.33
7020,-3.8727,0.3762,-0.2703,23.68,953.74,-1250.61
7030,-3.8726,0.4335,-0.2472,164.31,1406.98,-1406.80
7040,-3.8724,0.4663,-0.2474,-507.57,360.17,1312.01
7050,-3.8724,0.4733,-0.2712,-304.44,328.98,-328.61
7060,-3.8723,0.4691,-0.3031,586.18,1282.17,-969.30
7070,-3.8722,0.4598,-0.3098,54.93,1204.04,-0.61
7080,-3.8719,0.4391,-0.2646,-1132.57,344.60,1202.51
7090,-3.8718,0.4148,-0.1777,211.18,-1874.15,390.08
7100,-3.8718,0.3990,-0.0757,1101.81,1250.79,937.13
7110,-3.8718,0.3983,0.0239,-913.82,-1686.77,171.69
7120,-3.8718,0.4109,0.0974,-1007.57,-936.77,828.12
7130,-3.8717,0.4463,0.1083,601.81,469.54,484.56
7140,-3.8716,0.5216,0.0516,1133.06,1860.23,-1234.19
7150,-3.8713,0.6162,-0.0188,-1226.32,-1389.65,-484.31
7160,-3.8710,0.6979,-0.0450,-1116.94,1594.91,1609.31
7170,-3.8707,0.7743,-0.0138,1336.18,-1764.28,1953.00
7180,-3.8706,0.8607,0.0574,-882.57,-1764.16,-890.69
7190,-3.8705,0.9480,0.1355,-1820.07,-654.60,-874.94
7200,-3.8702,1.0116,0.1749,1351.81,1345.58,953.37
7210,-3.8700,1.0375,0.1699,1492.43,-1607.42,1562.81
7220,-3.8698,1.0410,0.1663,804.93,1752.01,-1734.07
7230,-3.8696,1.0718,0.1888,1258.06,1283.26,-671.57
7240,-3.8695,1.1401,0.2136,1195.56,173.95,609.74
7250,-3.8695,1.2104,0.2094,1945.56,-654.05,890.99
7260,-3.8695,1.2745,0.1798,-1054.44,-1200.81,-1827.76
7270,-3.8695,1.3351,0.1571,-851.32,-981.93,-484.07
7280,-3.8694,1.3900,0.1530,-1101.32,111.94,265.93
7290,-3.8694,1.4329,0.1583,1929.93,-419.19,593.99
7300,-3.8695,1.4456,0.1631,-585.69,268.37,-734.07
7310,-3.8696,1.4329,0.1543,1039.31,877.81,-843.44
7320,-3.8698,1.4138,0.1362,-585.69,-247.25,922.12
7330,-3.8700,1.3748,0.1250,976.81,1440.25,-1531.01
7340,-3.8701,1.3107,0.1272,-23.19,2.62,1422.12
7350,-3.8702,1.2438,0.1409,-226.32,283.75,-1640.38
7360,-3.8704,1.1842,0.1541,-788.82,-1966.37,-77.88
7370,-3.8704,1.1328,0.1638,-413.82,-278.99,468.99
7380,-3.8706,1.0973,0.1691,1008.06,970.95,-77.82
7390,-3.8707,1.0659,0.1604,461.18,1642.76,-905.94
7400,-3.8708,1.0259,0.1395,445.56,533.33,-1437.19
7410,-3.8710,0.9922,0.1237,-679.44,1861.33,-1812.26
7420,-3.8711,0.9747,0.1299,-991.94,-169.98,1906.43
7430,-3.8712,0.9493,0.1451,773.68,626.89,-1765.38
7440,-3.8713,0.9087,0.1449,1523.68,-1420.04,-1593.51
7450,-3.8715,0.8777,0.1271,320.56,-1451.35,1015.87
7460,-3.8717,0.8647,0.0990,351.81,267.33,-1374.76
7470,-3.8718,0.8512,0.0641,-1304.44,673.52,390.81
7480,-3.8721,0.8215,0.0365,961.18,204.77,-1203.00
7490,-3.8722,0.7816,0.0347,1164.31,673.46,1937.56
7500,-3.8723,0.7281,0.0405,54.93,439.03,1921.94
7510,-3.8724,0.6545,0.0237,1211.18,1188.90,-1249.94
7520,-3.8726,0.5812,-0.0121,-210.69,-967.53,-562.50
7530,-3.8727,0.5325,-0.0461,-1601.32,-1545.78,-1843.81
7540,-3.8729,0.5044,-0.0758,164.31,-1905.21,1953.00
7550,-3.8733,0.4771,-0.1202,570.56,-1702.15,-297.06
7560,-3.8735,0.4485,-0.1833,1070.56,610.29,1437.26
7570,-3.8738,0.4207,-0.2408,1414.31,532.10,1124.63
7580,-3.8740,0.3878,-0.2784,1851.81,1172.67,-484.86
7590,-3.8740,0.3417,-0.3110,1648.68,360.11,327.58
7600,-3.8741,0.2808,-0.3466,-257.57,188.11,-1328.74
7610,-3.8741,0.2324,-0.3757,-54.44,-358.89,-1906.98
7620,-3.8741,0.2185,-0.3975,1758.06,-93.32,-1891.42
7630,-3.8741,0.2130,-0.4164,-23.19,1125.37,1452.33
7640,-3.8743,0.1913,-0.4329,-726.32,-1296.51,-313.35
7650,-3.8743,0.1589,-0.4489,492.43,594.12,1608.52
7660,-3.8744,0.1257,-0.4592,351.81,-1452.82,-125.92
7670,-3.8744,0.0997,-0.4636,101.81,1218.99,-1797.79
7680,-3.8744,0.0817,-0.4747,773.68,656.43,811.58
7690,-3.8744,0.0645,-0.4965,-1538.82,-765.50,170.90
7700,-3.8744,0.0421,-0.5181,258.06,453.25,530.27
7710,-3.8744,0.0070,-0.5170,1398.68,1687.56,-1297.91
7720,-3.8743,-0.0442,-0.4962,898.68,1828.12,-1282.29
7730,-3.8741,-0.0941,-0.4945,-1648.19,499.88,-641.60
7740,-3.8740,-0.1234,-0.5294,-38.82,718.51,-1000.98
7750,-3.8739,-0.1373,-0.5796,211.18,249.76,1264.59
7760,-3.8739,-0.1573,-0.6110,-1570.07,1827.82,-1016.78
7770,-3.8738,-0.1937,-0.6089,-132.57,1812.13,1014.40
7780,-3.8738,-0.2390,-0.5942,-788.82,-1922.30,-532.47
7790,-3.8737,-0.2782,-0.5983,1414.31,-47.36,1951.90
7800,-3.8735,-0.3064,-0.6311,398.68,-563.05,170.65
7810,-3.8735,-0.3246,-0.6741,789.31,-766.24,-1938.78
7820,-3.8735,-0.3339,-0.6929,-1538.82,1733.70,-110.72
7830,-3.8734,-0.3447,-0.6689,1273.68,-672.55,842.35
7840,-3.8735,-0.3645,-0.6306,-116.94,-1610.11,-704.47
7850,-3.8737,-0.3909,-0.6224,1351.81,-703.86,-1032.53
7860,-3.8738,-0.4211,-0.6444,1976.81,342.96,1795.65
7870,-3.8739,-0.4567,-0.6469,-1898.19,1530.40,1514.34
7880,-3.8740,-0.5092,-0.5687,1554.93,1217.83,-48.16
7890,-3.8739,-0.5908,-0.4333,-1163.82,-782.29,-860.53
7900,-3.8737,-0.6917,-0.3516,383.06,545.72,-1266.48
7910,-3.8734,-0.7800,-0.3707,-523.19,-985.78,-1156.98
7920,-3.8733,-0.8334,-0.4340,164.31,560.97,-735.11
7930,-3.8733,-0.8645,-0.4752,1336.18,467.10,-1110.23
7940,-3.8734,-0.9332,-0.4836,1351.81,-814.21,-1860.35
7950,-3.8737,-1.0426,-0.4696,554.93,-1892.46,-438.48
7960,-3.8738,-1.1355,-0.4504,-1445.07,-95.83,-641.60
7970,-3.8738,-1.2246,-0.4545,-1335.69,-1642.88,-1797.79
7980,-3.8738,-1.3258,-0.4807,-741.94,1841.31,-1657.17
7990,-3.8738,-1.3805,-0.4980,-1695.07,-1518.25,-1688.48
8000,-3.8738,-1.4055,-0.4957,-695.07,262.88,1389.65
8010,-3.8738,-1.4353,-0.4877,101.81,559.75,530.27
8020,-3.8738,-1.4493,-0.4790,289.31,1590.94,467.77
8030,-3.8738,-1.4536,-0.4705,-1507.57,-1299.74,1077.15
8040,-3.8738,-1.4650,-0.4714,1945.56,-205.99,1795.90
8050,-3.8738,-1.4708,-0.4857,492.43,-330.99,-1875.98
8060,-3.8738,-1.4613,-0.5034,-257.57,1840.82,1639.65
8070,-3.8738,-1.4395,-0.5216,961.18,-424.74,280.21
8080,-3.8739,-1.4089,-0.5432,-241.94,1247.13,-1938.54
8090,-3.8740,-1.3787,-0.5627,-335.69,-1518.43,-1329.22
8100,-3.8741,-1.3356,-0.5750,-460.69,-18.37,-1641.78
8110,-3.8743,-1.2947,-0.5790,1054.93,-1580.75,-1329.28
8120,-3.8743,-1.2654,-0.5695,-1710.69,1903.69,1030.09
8130,-3.8743,-1.2460,-0.5488,-1960.69,-877.50,1545.72
8140,-3.8743,-1.2347,-0.5249,523.68,1763.18,-891.72
8150,-3.8743,-1.2402,-0.5062,1961.18,825.68,-188.54
8160,-3.8743,-1.2656,-0.4946,1258.06,-783.69,-766.66
8170,-3.8743,-1.2920,-0.4840,-1991.94,700.62,1014.65
8180,-3.8744,-1.3109,-0.4763,-1366.94,-1940.06,1170.90
8190,-3.8745,-1.3169,-0.4701,211.18,-955.69,1608.40
8200,-3.8746,-1.3105,-0.4546,-554.44,-158.87,-188.48
8210,-3.8746,-1.2863,-0.4304,258.06,1825.56,-141.54
8220,-3.8745,-1.2543,-0.4124,-632.57,919.31,608.52
8230,-3.8745,-1.2302,-0.3997,-538.82,-768.13,889.77
8240,-3.8745,-1.2064,-0.3824,-1460.69,856.93,280.46
8250,-3.8746,-1.1801,-0.3691,1586.18,-939.88,-1375.79
8260,-3.8746,-1.1443,-0.3708,961.18,763.31,296.14
8270,-3.8748,-1.0942,-0.3784,1539.31,544.62,1577.39
8280,-3.8749,-1.0386,-0.3840,-54.44,-424.07,-844.54
8290,-3.8749,-0.9865,-0.3879,-929.44,-1142.70,1483.58
8300,-3.8749,-0.9449,-0.3799,1742.43,-1642.58,1046.08
8310,-3.8749,-0.9104,-0.3602,-945.07,-611.27,-1969.54
8320,-3.8749,-0.8820,-0.3499,-523.19,1904.42,-516.36
8330,-3.8748,-0.8586,-0.3617,-882.57,-767.40,1030.52
8340,-3.8748,-0.8309,-0.3844,-1898.19,1717.04,-1594.48
8350,-3.8748,-0.7892,-0.4128,1648.68,-1189.15,-953.92
8360,-3.8748,-0.7365,-0.4473,-1007.57,-829.71,-782.10
8370,-3.8748,-0.6847,-0.4749,1742.43,-1235.84,-94.67
8380,-3.8746,-0.6357,-0.4834,367.43,-766.97,1514.65
8390,-3.8746,-0.5919,-0.4772,-1366.94,-1860.66,-110.35
8400,-3.8745,-0.5575,-0.4630,242.43,-1063.66,-688.48
8410,-3.8744,-0.5262,-0.4449,648.68,748.90,-1125.92
8420,-3.8743,-0.4834,-0.4333,648.68,-938.54,1139.71
8430,-3.8743,-0.4222,-0.4363,-1866.94,545.90,-1610.23
8440,-3.8743,-0.3545,-0.4521,1961.18,171.02,-157.10
8450,-3.8741,-0.2921,-0.4728,-1366.94,-1860.11,1670.96
8460,-3.8741,-0.2357,-0.4900,-1382.57,-500.61,-1125.98
8470,-3.8741,-0.1846,-0.5039,1836.18,1296.39,-860.35
8480,-3.8741,-0.1339,-0.5146,383.06,-484.74,-1266.66
8490,-3.8741,-0.0736,-0.5162,-1132.57,-1859.68,-1969.79
8500,-3.8741,-0.0045,-0.5065,-1413.82,1937.32,1373.96
8510,-3.8741,0.0602,-0.4897,-570.07,-812.56,1217.71
8520,-3.8741,0.1078,-0.4728,-288.82,1312.56,1905.27
8530,-3.8741,0.1401,-0.4630,1804.93,-515.44,-625.98
8540,-3.8740,0.1746,-0.4615,1945.56,734.62,1327.21
8550,-3.8740,0.2238,-0.4661,-1648.19,922.18,-704.04
8560,-3.8739,0.2889,-0.4768,648.68,344.18,1124.08
8570,-3.8739,0.3647,-0.4862,992.43,-1030.70,-1547.85
8580,-3.8739,0.4423,-0.4869,-1304.44,1766.30,-1469.73
8590,-3.8739,0.5083,-0.4865,617.43,1672.73,1217.77
8600,-3.8740,0.5579,-0.4955,1070.56,1735.35,-1016.60
8610,-3.8740,0.5792,-0.4954,-585.69,579.16,1420.90
8620,-3.8740,0.5670,-0.4524,-1851.32,594.85,-875.98
8630,-3.8738,0.5327,-0.3792,586.18,-1905.15,-1688.42
8640,-3.8734,0.4711,-0.3225,195.56,-530.21,1249.21
8650,-3.8730,0.4022,-0.2994,304.93,-1280.33,468.08
8660,-3.8728,0.3657,-0.3085,-507.57,1672.61,-375.61
8670,-3.8724,0.3638,-0.3400,-1179.44,516.30,1890.01
8680,-3.8722,0.3770,-0.3745,-1429.44,485.05,155.58
8690,-3.8722,0.3784,-0.4077,258.06,63.23,1171.14
8700,-3.8722,0.3490,-0.4231,445.56,-186.77,592.90
8710,-3.8722,0.3093,-0.3990,679.93,1844.42,-438.35
8720,-3.8719,0.2921,-0.3492,-398.19,922.42,-1297.67
8730,-3.8717,0.3040,-0.3064,1398.68,-702.58,-1500.73
8740,-3.8715,0.3308,-0.2844,-1085.69,781.80,61.89
8750,-3.8715,0.3584,-0.2742,-1648.19,-405.64,-828.74
8760,-3.8713,0.3754,-0.2717,1883.06,906.92,1655.70
8770,-3.8712,0.3768,-0.2723,54.93,1219.48,1593.20
8780,-3.8711,0.3680,-0.2654,242.43,1141.36,-578.67
8790,-3.8708,0.3669,-0.2445,-882.57,-1968.08,-1094.30
8800,-3.8706,0.3867,-0.1993,-1023.19,703.80,-984.86
8810,-3.8704,0.4242,-0.1246,1508.06,-1514.89,1718.32
8820,-3.8702,0.4905,-0.0416,-1695.07,47.67,1827.88
8830,-3.8701,0.5968,0.0144,-1210.69,-1327.21,421.75
8840,-3.8701,0.7191,0.0365,398.68,1844.91,-359.38
8850,-3.8700,0.8296,0.0490,54.93,673.28,-515.56
8860,-3.8699,0.9395,0.0768,-1804.44,-1732.79,1640.69
8870,-3.8699,1.0602,0.1180,258.06,1829.96,718.87
8880,-3.8700,1.1665,0.1473,-288.82,-888.61,-1359.19
8890,-3.8700,1.2374,0.1631,1320.56,-1138.37,1593.99
8900,-3.8700,1.2765,0.1804,-1601.32,877.38,1969.06
8910,-3.8699,1.2892,0.2042,-601.32,-903.81,703.43
8920,-3.8698,1.2649,0.2321,1023.68,-1856.87,1859.74
8930,-3.8696,1.1951,0.2454,1914.31,1705.57,-327.70
8940,-3.8694,1.1080,0.2373,976.81,-591.43,594.18
8950,-3.8694,1.0365,0.2271,1836.18,-1622.86,-858.95
8960,-3.8694,0.9796,0.2131,679.93,1064.51,-1937.07
8970,-3.8695,0.9351,0.1882,1398.68,-716.86,-1359.01
8980,-3.8696,0.9083,0.1744,-304.44,95.52,-280.88
8990,-3.8696,0.8931,0.1810,273.68,-1670.10,-1999.69
9000,-3.8696,0.8822,0.1901,-1679.44,-826.42,109.68
9010,-3.8698,0.8698,0.1893,929.93,329.83,1203.49
9020,-3.8699,0.8472,0.1833,-663.82,236.02,1562.87
9030,-3.8700,0.8103,0.1796,445.56,-529.60,1344.06
9040,-3.8701,0.7645,0.1760,-273.19,-1014.10,47.18
9050,-3.8704,0.7224,0.1633,1867.43,-1467.29,1344.06
9060,-3.8706,0.6884,0.1384,476.81,907.65,1750.31
9070,-3.8708,0.6559,0.1093,117.43,1720.09,-1640.38
9080,-3.8711,0.6191,0.0819,-38.82,1985.60,-171.69
9090,-3.8712,0.5829,0.0592,-741.94,-1514.47,1687.62
9100,-3.8715,0.5565,0.0433,-1382.57,-420.78,-874.94
9110,-3.8716,0.5327,0.0288,-757.57,1547.91,31.31
9120,-3.8718,0.4949,0.0045,195.56,-311.46,578.12
9130,-3.8721,0.4503,-0.0370,-648.19,579.04,1093.75
9140,-3.8723,0.4122,-0.0940,1648.68,-733.52,-1922.00
9150,-3.8726,0.3829,-0.1542,773.68,-30.46,-375.24
9160,-3.8727,0.3696,-0.2024,1023.68,266.36,1655.94
9170,-3.8728,0.3634,-0.2339,-679.44,-1905.58,733.95
9180,-3.8729,0.3433,-0.2606,-1476.32,-1936.83,1655.76
9190,-3.8730,0.3074,-0.2915,-54.44,-1358.76,-16.17
9200,-3.8730,0.2734,-0.3185,-648.19,-1311.95,1858.76
9210,-3.8732,0.2566,-0.3387,-991.94,-765.14,1639.95
9220,-3.8734,0.2491,-0.3645,851.81,641.11,-266.30
9230,-3.8735,0.2417,-0.3992,-101.32,1344.18,1874.27
9240,-3.8737,0.2454,-0.4366,-1054.44,906.68,1186.71
9250,-3.8738,0.2552,-0.4709,-585.69,109.80,-1735.23
9260,-3.8738,0.2395,-0.4839,679.93,-280.76,1499.02
9270,-3.8738,0.1899,-0.4612,-1335.69,-1937.07,-1829.10
9280,-3.8738,0.1276,-0.4115,320.56,969.12,-1704.04
9290,-3.8738,0.0654,-0.3481,336.18,-671.63,1092.90
9300,-3.8738,0.0120,-0.2906,383.06,-562.38,233.64
9310,-3.8738,-0.0254,-0.2672,1539.31,-1203.12,265.01
9320,-3.8738,-0.0529,-0.2844,758.06,1812.44,93.20
9330,-3.8739,-0.0887,-0.3242,1242.43,-390.75,-906.86
9340,-3.8739,-0.1455,-0.3589,648.68,-1484.56,1577.45
9350,-3.8740,-0.2208,-0.3691,1383.06,-1922.18,-125.73
9360,-3.8740,-0.3052,-0.3606,-257.57,765.14,-1938.23
9370,-3.8740,-0.3816,-0.3500,945.56,1858.76,999.27
9380,-3.8740,-0.4364,-0.3453,-835.69,-782.04,1264.89
9390,-3.8740,-0.4797,-0.3467,148.68,-188.35,-641.36
9400,-3.8739,-0.5239,-0.3489,-1398.19,-360.35,-563.23
9410,-3.8737,-0.5571,-0.3413,945.56,-641.66,358.64
9420,-3.8735,-0.5741,-0.3250,695.56,327.03,499.33
9430,-3.8735,-0.5826,-0.3217,-1476.32,-1579.28,1358.70
9440,-3.8737,-0.6165,-0.3434,1429.93,-1157.41,-1922.55
9450,-3.8738,-0.6643,-0.3705,1101.81,61.28,764.95
9460,-3.8740,-0.6860,-0.3909,-1023.19,592.41,-1672.61
9470,-3.8743,-0.7068,-0.4125,195.56,1983.03,-469.54
9480,-3.8744,-0.7721,-0.4224,1539.31,-782.65,-1172.73
9490,-3.8744,-0.8650,-0.4037,1179.93,1951.60,-1703.98
9500,-3.8743,-0.9305,-0.3694,1289.31,342.04,-1391.42
9510,-3.8740,-0.9886,-0.3488,898.68,732.54,-516.36
9520,-3.8737,-1.0378,-0.3505,1461.18,-626.95,-1047.61
9530,-3.8733,-1.0674,-0.3622,-835.69,-845.83,-1969.48
9540,-3.8730,-1.0861,-0.3696,-616.94,1654.11,-78.86
9550,-3.8727,-1.1000,-0.3751,992.43,700.99,61.77
9560,-3.8726,-1.1112,-0.3964,-788.82,-2.20,1342.96
9570,-3.8726,-1.1151,-0.4407,1773.68,1279.05,-1125.79
9580,-3.8726,-1.1176,-0.4890,1273.68,-392.82,952.21
9590,-3.8727,-1.1281,-0.5212,961.18,1419.68,1842.77
9600,-3.8728,-1.1554,-0.5375,-382.57,1294.62,-219.79
9610,-3.8728,-1.1942,-0.5503,117.43,-783.51,-751.10
9620,-3.8728,-1.2522,-0.5664,-851.32,1575.74,-532.35
9630,-3.8727,-1.3171,-0.5764,-273.19,-486.88,76.97
9640,-3.8727,-1.3781,-0.5846,-585.69,-1768.25,389.47
9650,-3.8727,-1.4308,-0.5956,-382.57,1184.75,139.47
9660,-3.8728,-1.4614,-0.6002,867.43,-221.56,-235.60
9670,-3.8728,-1.4646,-0.5956,945.56,-815.37,-469.97
9680,-3.8728,-1.4559,-0.5885,539.31,-221.62,-438.72
9690,-3.8728,-1.4650,-0.5791,1648.68,684.63,-985.53
9700,-3.8728,-1.4928,-0.5642,492.43,1887.76,826.97
9710,-3.8729,-1.5217,-0.5476,929.93,-206.05,1280.09
9720,-3.8730,-1.5413,-0.5311,1226.81,1918.88,1623.90
9730,-3.8732,-1.5428,-0.5125,-1273.19,28.20,-1547.91
9740,-3.8732,-1.5354,-0.4949,-1476.32,-1581.18,77.09
9750,-3.8733,-1.5310,-0.4786,-523.19,668.82,-1235.35
9760,-3.8733,-1.5284,-0.4554,39.31,-1252.99,1952.15
9770,-3.8733,-1.5138,-0.4292,367.43,1715.76,1124.08
9780,-3.8733,-1.4829,-0.4097,-1757.57,1075.13,421.02
9790,-3.8733,-1.4520,-0.3920,-1804.44,-424.80,467.90
9800,-3.8733,-1.4182,-0.3650,-1851.32,1840.88,1592.96
9810,-3.8733,-1.3695,-0.3397,-1523.19,1294.07,-1281.98
9820,-3.8733,-1.3049,-0.3250,711.18,528.56,-1141.30
9830,-3.8733,-1.2346,-0.3083,976.81,-1580.69,-1875.67
9840,-3.8733,-1.1699,-0.2836,1976.81,544.43,780.64
9850,-3.8734,-1.1121,-0.2581,-1741.94,-283.57,-1172.49
9860,-3.8734,-1.0607,-0.2446,1664.31,-1017.82,515.08
9870,-3.8735,-1.0149,-0.2458,242.43,701.05,-1062.99
9880,-3.8735,-0.9796,-0.2507,-1898.19,544.86,-1359.86
9890,-3.8735,-0.9497,-0.2482,-1382.57,-80.08,-1047.42
9900,-3.8735,-0.9196,-0.2401,-1554.44,248.11,-734.86
9910,-3.8735,-0.8845,-0.2397,-1695.07,1279.42,-234.86
9920,-3.8734,-0.8372,-0.2582,-1210.69,1326.35,327.64
9930,-3.8734,-0.7843,-0.2896,851.81,-1032.90,655.70
9940,-3.8734,-0.7303,-0.3075,-382.57,-1048.46,952.51
9950,-3.8734,-0.6733,-0.3016,-1476.32,654.79,1061.89
9960,-3.8734,-0.6138,-0.2866,1820.56,1404.91,811.89
9970,-3.8734,-0.5537,-0.2754,1445.56,-673.10,296.26
9980,-3.8735,-0.4956,-0.2725,1133.06,764.53,-672.42
9990,-3.8735,-0.4376,-0.2764,570.56,1139.65,-1969.30
10000,-3.8735,-0.3834,-0.2861,-7.57,639.71,999.45
10010,-3.8735,-0.3395,-0.2921,-1070.07,-610.17,608.76
10020,-3.8735,-0.3044,-0.2793,554.93,-1375.67,1015.01
10030,-3.8735,-0.2749,-0.2512,1039.31,265.01,-1891.17
10040,-3.8735,-0.2479,-0.2179,820.56,-141.17,-234.92
10050,-3.8734,-0.2147,-0.1895,273.68,124.51,1437.07
10060,-3.8734,-0.1698,-0.1761,523.68,-234.80,-875.43
10070,-3.8733,-0.1248,-0.1810,-1726.32,1468.38,624.63
10080,-3.8733,-0.0884,-0.1947,39.31,843.51,1640.26
10090,-3.8733,-0.0511,-0.2058,695.56,-906.43,-1281.68
10100,-3.8732,-0.0052,-0.2097,1461.18,1671.75,749.57
10110,-3.8732,0.0416,-0.1975,-663.82,1171.81,-359.80
10120,-3.8730,0.0746,-0.1577,1336.18,-1281.19,-1437.93
10130,-3.8729,0.0918,-0.1022,1554.93,-187.38,1249.63
10140,-3.8729,0.0999,-0.0796,-241.94,-1078.00,-625.24
10150,-3.8728,0.1128,-0.1132,789.31,1812.68,1218.57
10160,-3.8728,0.1539,-0.1730,-1554.44,1515.81,-875.24
10170,-3.8727,0.2242,-0.2253,-288.82,1859.62,1062.13
10180,-3.8727,0.2996,-0.2452,711.18,-843.32,-109.86
10190,-3.8724,0.3530,-0.2224,-1648.19,609.92,405.76
10200,-3.8723,0.3727,-0.1729,1195.56,-468.08,-1531.74
10210,-3.8721,0.3668,-0.1326,-288.82,1875.67,1827.76
10220,-3.8718,0.3529,-0.1222,-1038.82,-968.08,-1594.06
10230,-3.8716,0.3527,-0.1155,1179.93,360.05,-500.24
10240,-3.8713,0.3813,-0.0798,1148.68,1219.42,-656.49
10250,-3.8711,0.4393,-0.0277,820.56,1781.98,452.94
10260,-3.8711,0.5255,0.0100,242.43,453.98,-562.56
10270,-3.8710,0.6333,0.0255,-726.32,1282.23,1281.25
10280,-3.8710,0.7402,0.0270,1070.56,-733.15,-1343.75
10290,-3.8710,0.8348,0.0405,-1241.94,-545.47,-609.38
10300,-3.8710,0.9371,0.0938,-1132.57,1189.09,1843.81
10310,-3.8711,1.0835,0.1703,-38.82,1.77,1547.06
10320,-3.8713,1.3057,0.2544,-1304.44,1798.95,-1077.82
10330,-3.8716,1.5582,0.3219,-866.94,565.00,-1374.51
10340,-3.8718,1.7833,0.3235,-538.82,1206.12,938.11
10350,-3.8722,1.9510,0.2725,273.68,1409.73,-952.51
10360,-3.8724,2.0393,0.2300,1742.43,-1121.22,-1499.51
10370,-3.8727,2.0814,0.2083,1039.31,1441.47,-437.07
10380,-3.8728,2.0845,0.1915,-1570.07,-1339.72,-1296.51
10390,-3.8729,2.0312,0.1704,-1179.44,519.65,-77.76
10400,-3.8729,1.9268,0.1313,8.06,1816.47,-749.69
10410,-3.8728,1.7837,0.0829,-1366.94,816.22,1687.74
10420,-3.8726,1.6201,0.0549,320.56,-1387.15,250.12
10430,-3.8723,1.4663,0.0616,-616.94,-965.64,1515.69
10440,-3.8721,1.3506,0.0754,-304.44,-106.57,-1015.56
10450,-3.8718,1.2715,0.0724,883.06,1658.87,-531.13
10460,-3.8716,1.2174,0.0487,-1241.94,1268.07,-687.38
10470,-3.8713,1.1677,0.0157,-163.82,-1763.31,1718.81
10480,-3.8712,1.1216,-0.0132,1476.81,-1982.12,1218.75
10490,-3.8712,1.0952,-0.0367,-429.44,-1685.36,-1718.81
10500,-3.8712,1.0854,-0.0560,195.56,-700.99,-1531.37
10510,-3.8712,1.0778,-0.0754,-1054.44,830.20,-1515.75
10520,-3.8712,1.0598,-0.0944,1961.18,-1654.17,1874.82
10530,-3.8712,1.0431,-0.1041,-335.69,-76.11,406.01
10540,-3.8713,1.0365,-0.1034,1523.68,-1326.11,1937.26
10550,-3.8715,1.0291,-0.0972,679.93,-1232.36,-1375.24
10560,-3.8716,1.0095,-0.0881,-273.19,-435.55,-1140.87
10570,-3.8717,0.9801,-0.0840,1226.81,720.70,-484.56
10580,-3.8717,0.9484,-0.0895,1461.18,1251.89,1327.94
10590,-3.8718,0.9171,-0.0957,1398.68,548.71,-890.81
10600,-3.8719,0.8827,-0.1017,1398.68,-248.23,-687.74
10610,-3.8721,0.8408,-0.1157,992.43,-1013.92,-1797.12
10620,-3.8722,0.7926,-0.1370,-366.94,1189.09,1140.38
10630,-3.8723,0.7368,-0.1654,1461.18,-1529.72,640.32
10640,-3.8724,0.6788,-0.2007,-1679.44,-1170.47,421.51
10650,-3.8727,0.6326,-0.2339,-1101.32,-1686.22,-141.05
10660,-3.8728,0.5950,-0.2595,976.81,-1936.28,-1250.49
10670,-3.8729,0.5524,-0.2819,164.31,-1217.59,1499.45
10680,-3.8730,0.5031,-0.3097,-1288.82,-77.09,780.64
10690,-3.8732,0.4598,-0.3463,398.68,360.35,765.01
10700,-3.8733,0.4321,-0.3834,-1132.57,-327.27,858.64
10710,-3.8734,0.4061,-0.4016,-679.44,-1077.33,764.83
10720,-3.8735,0.3790,-0.3988,-7.57,594.48,842.96
10730,-3.8737,0.3612,-0.3994,523.68,953.86,1717.96
10740,-3.8738,0.3492,-0.4122,-1757.57,875.67,-250.79
10750,-3.8738,0.3313,-0.4240,711.18,-764.95,-1250.85
10760,-3.8738,0.3019,-0.4310,-1585.69,1734.99,1936.65
10770,-3.8738,0.2664,-0.4398,-1351.32,828.67,671.02
10780,-3.8739,0.2318,-0.4514,-1898.19,-296.39,-969.67
10790,-3.8739,0.2101,-0.4703,1679.93,-1780.82,1530.33
10800,-3.8739,0.2052,-0.4978,-1101.32,-202.76,249.02
10810,-3.8740,0.1992,-0.5231,-1726.32,281.62,-1297.85
10820,-3.8740,0.1799,-0.5392,1508.06,1047.24,811.46
10830,-3.8741,0.1605,-0.5509,-960.69,-1015.32,-829.22
10840,-3.8741,0.1449,-0.5547,554.93,1484.68,-1376.10
10850,-3.8741,0.1182,-0.5369,-1445.07,1000.24,-860.47
10860,-3.8741,0.0739,-0.5085,-866.94,-718.57,-1.10
10870,-3.8740,0.0227,-0.4907,1461.18,-1093.63,1702.09
10880,-3.8739,-0.0256,-0.4811,-1085.69,1187.50,499.02
10890,-3.8739,-0.0708,-0.4736,726.81,-1562.56,-579.10
10900,-3.8738,-0.1096,-0.4773,-1054.44,-609.56,1967.77
10910,-3.8737,-0.1465,-0.4905,1976.81,-1078.37,45.90
10920,-3.8737,-0.1926,-0.4972,1258.06,1234.07,1670.90
10930,-3.8737,-0.2437,-0.4944,-648.19,374.57,-844.73
10940,-3.8737,-0.2852,-0.4956,820.56,733.89,-32.23
10950,-3.8737,-0.3086,-0.5039,-491.94,577.51,-547.85
10960,-3.8737,-0.3242,-0.4982,508.06,-484.99,-1813.54
10970,-3.8737,-0.3521,-0.4606,-1491.94,249.33,-1610.35
10980,-3.8735,-0.3926,-0.3988,-1054.44,1061.77,1780.33
10990,-3.8734,-0.4314,-0.3368,1758.06,967.96,-657.04
11000,-3.8733,-0.4592,-0.2850,789.31,905.40,-360.05
11010,-3.8732,-0.4749,-0.2308,1226.81,-469.67,421.26
11020,-3.8733,-0.4940,-0.1718,-773.19,-1532.23,1390.14
11030,-3.8735,-0.5425,-0.1570,773.68,-1969.73,1280.88
11040,-3.8739,-0.6161,-0.2118,-1429.44,-79.22,577.76
11050,-3.8743,-0.6863,-0.2754,1148.68,905.03,624.57
11060,-3.8745,-0.7413,-0.2900,164.31,764.28,-1484.92
11070,-3.8745,-0.8195,-0.2656,1117.43,-1110.84,-1000.61
11080,-3.8743,-0.9216,-0.2462,-882.57,-1986.02,1108.83
11090,-3.8740,-0.9924,-0.2457,-1960.69,498.17,-984.86
11100,-3.8737,-1.0286,-0.2516,976.81,560.55,1499.51
11110,-3.8734,-1.0758,-0.2540,351.81,-189.51,1718.20
11120,-3.8733,-1.1268,-0.2501,-1695.07,-502.14,-453.67
11130,-3.8730,-1.1781,-0.2587,-226.32,-2.26,280.70
11140,-3.8729,-1.2373,-0.2792,1211.18,-1096.07,93.20
11150,-3.8729,-1.2910,-0.2971,1633.06,278.81,-1906.80
11160,-3.8729,-1.3300,-0.3148,-1241.94,1981.81,1468.14
11170,-3.8730,-1.3605,-0.3298,1773.68,-283.87,-1172.55
11180,-3.8732,-1.3873,-0.3367,1867.43,1794.19,-281.92
11190,-3.8732,-1.4010,-0.3378,-1570.07,919.13,1202.45
11200,-3.8733,-1.4147,-0.3447,679.93,778.50,-453.80
11210,-3.8733,-1.4354,-0.3590,-1070.07,-112.18,-1360.11
11220,-3.8733,-1.4865,-0.3757,273.68,-1940.31,-1594.48
11230,-3.8733,-1.5619,-0.3983,1742.43,-81.05,-1094.54
11240,-3.8733,-1.6290,-0.4335,86.18,1028.20,-625.79
11250,-3.8733,-1.6686,-0.4613,-507.57,528.02,-469.60
11260,-3.8733,-1.6581,-0.4662,-1570.07,965.45,-844.67
11270,-3.8733,-1.6073,-0.4589,-226.32,340.45,1920.96
11280,-3.8733,-1.5518,-0.4515,-1726.32,1278.08,467.83
11290,-3.8734,-1.5206,-0.4512,1383.06,-1784.30,-1016.54
11300,-3.8734,-1.5195,-0.4518,1367.43,-1737.37,-1860.29
11310,-3.8734,-1.5299,-0.4474,1508.06,-1815.49,-969.67
11320,-3.8733,-1.5397,-0.4460,179.93,-1252.99,1249.08
11330,-3.8733,-1.5408,-0.4468,-1070.07,-1081.18,-454.04
11340,-3.8732,-1.5348,-0.4412,-1210.69,-1174.93,999.08
11350,-3.8732,-1.5258,-0.4296,-445.07,-456.18,1389.71
11360,-3.8732,-1.5063,-0.4189,711.18,1028.26,639.77
11370,-3.8733,-1.4763,-0.4131,-804.44,-1612.37,-1219.60
11380,-3.8733,-1.4347,-0.4052,-960.69,-862.30,561.65
11390,-3.8734,-1.3848,-0.3895,367.43,153.44,-1313.29
11400,-3.8734,-1.3359,-0.3733,-1241.94,-1846.50,1139.83
11410,-3.8735,-1.2922,-0.3584,1008.06,231.75,-297.61
11420,-3.8735,-1.2544,-0.3408,-1398.19,-1861.94,-1906.98
11430,-3.8737,-1.2167,-0.3274,-554.44,388.12,-188.17
11440,-3.8737,-1.1776,-0.3215,273.68,-1893.01,1077.45
11450,-3.8738,-1.1381,-0.3186,1273.68,-1142.94,-1078.80
11460,-3.8738,-1.1036,-0.3123,-1663.82,-767.88,1577.45
11470,-3.8738,-1.0808,-0.3049,-1257.57,44.68,608.76
11480,-3.8738,-1.0663,-0.3016,1664.31,982.24,280.64
11490,-3.8738,-1.0538,-0.3011,-476.32,1404.11,1015.01
11500,-3.8738,-1.0365,-0.3026,1117.43,1466.67,1858.76
11510,-3.8738,-1.0134,-0.3040,-663.82,1279.17,1358.76
11520,-3.8739,-0.9858,-0.3110,-1710.69,1107.36,-500.61
11530,-3.8739,-0.9481,-0.3280,1820.56,201.17,1108.76
11540,-3.8740,-0.9005,-0.3324,-1351.32,-1970.64,-703.80
11550,-3.8740,-0.8500,-0.3077,742.43,1466.98,-1860.05
11560,-3.8740,-0.8024,-0.2731,-788.82,623.29,1030.64
11570,-3.8740,-0.7559,-0.2483,1304.93,1060.91,30.70
11580,-3.8741,-0.7098,-0.2319,-741.94,232.85,-469.24
11590,-3.8741,-0.6744,-0.2172,1148.68,-1673.28,-266.11
11600,-3.8741,-0.6400,-0.2039,1679.93,217.41,-406.68
11610,-3.8741,-0.5881,-0.1924,-1913.82,1920.59,-1547.30
11620,-3.8741,-0.5190,-0.1785,726.81,-610.53,843.32
11630,-3.8743,-0.4426,-0.1611,1570.56,1170.84,-265.99
11640,-3.8741,-0.3721,-0.1407,-648.19,-610.29,30.88
11650,-3.8741,-0.3154,-0.1141,383.06,1999.27,1999.69
11660,-3.8740,-0.2749,-0.0896,-366.94,1405.58,1593.51
11670,-3.8739,-0.2394,-0.0781,820.56,546.33,-1984.56
11680,-3.8738,-0.1971,-0.0784,1367.43,-1984.86,-1968.93
11690,-3.8737,-0.1538,-0.0785,-1226.32,1983.95,1234.19
11700,-3.8737,-0.1157,-0.0715,320.56,1968.44,-500.18
11710,-3.8735,-0.0804,-0.0671,1195.56,-1140.87,984.19
11720,-3.8735,-0.0490,-0.0656,1711.18,-578.31,-1297.06
11730,-3.8734,-0.0249,-0.0547,1742.43,-375.12,1515.44
11740,-3.8733,-0.0050,-0.0277,820.56,1015.56,1421.75
11750,-3.8732,0.0135,0.0138,-632.57,468.69,-1578.19
11760,-3.8730,0.0377,0.0602,1742.43,1765.62,-281.25
11770,-3.8729,0.0840,0.1023,836.18,-296.81,-656.19
11780,-3.8728,0.1569,0.1407,-1241.94,1093.87,406.43
11790,-3.8729,0.2441,0.1855,86.18,-1984.07,-499.76
11800,-3.8729,0.3328,0.2435,-741.94,-249.57,-1796.57
11810,-3.8729,0.4186,0.2969,-1398.19,-827.51,1937.93
11820,-3.8728,0.5021,0.3339,1586.18,-1999.21,94.30
11830,-3.8727,0.5792,0.3732,273.68,-1264.65,1313.11
11840,-3.8726,0.6558,0.4170,-1851.32,-233.28,-702.45
11850,-3.8724,0.7539,0.4519,-54.44,1376.22,-467.96
11860,-3.8723,0.8762,0.4775,508.06,1845.21,-1514.77
11870,-3.8722,1.0070,0.4916,164.31,1126.71,1844.67
11880,-3.8721,1.1189,0.5010,898.68,-1076.17,-1733.46
11890,-3.8719,1.2042,0.5281,-773.19,127.14,-1311.52
11900,-3.8718,1.2761,0.5740,-1851.32,-403.93,1735.35
11910,-3.8718,1.3480,0.6281,-648.19,1471.19,-467.65
11920,-3.8717,1.4352,0.6752,554.93,393.25,376.22
11930,-3.8717,1.5424,0.7035,-288.82,-1575.38,782.53
11940,-3.8717,1.6527,0.7178,1429.93,-1950.13,1595.09
11950,-3.8717,1.7366,0.7140,-445.07,-121.83,1485.72
11960,-3.8718,1.7881,0.6887,-1710.69,-606.02,-639.28
11970,-3.8718,1.8101,0.6517,883.06,159.73,95.09
11980,-3.8719,1.7971,0.6140,-304.44,-574.65,610.60
11990,-3.8721,1.7688,0.5748,-1960.69,-1402.77,1954.28
12000,-3.8721,1.7400,0.5299,-1585.69,1581.54,1969.85
12010,-3.8719,1.6910,0.4951,-1273.19,-168.52,1188.48
12020,-3.8718,1.6259,0.4863,461.18,-621.70,-1436.58
12030,-3.8716,1.5623,0.4868,117.43,-1746.83,1469.67
12040,-3.8713,1.5084,0.4733,-23.19,-1684.51,344.67
12050,-3.8712,1.4681,0.4385,1086.18,581.05,1391.54
12060,-3.8711,1.4325,0.3995,-70.07,127.81,94.60
12070,-3.8711,1.4021,0.3787,-632.57,-856.63,375.73
12080,-3.8712,1.3778,0.3679,-523.19,471.44,-389.89
12090,-3.8712,1.3369,0.3578,367.43,-903.56,-436.83
12100,-3.8712,1.2681,0.3501,-866.94,1799.44,-46.20
12110,-3.8712,1.1882,0.3400,-1679.44,814.94,-468.08
12120,-3.8712,1.1199,0.3201,101.81,-482.06,1797.49
12130,-3.8713,1.0651,0.2906,-648.19,970.89,-811.89
12140,-3.8713,1.0134,0.2615,336.18,1205.20,94.30
12150,-3.8715,0.9596,0.2395,1726.81,1470.70,1125.49
12160,-3.8716,0.8990,0.2234,-1163.82,-1341.92,-858.95
12170,-3.8716,0.8318,0.2004,-913.82,595.46,-1765.20
12180,-3.8716,0.7701,0.1598,-1523.19,1657.84,1922.24
12190,-3.8716,0.7209,0.1112,-1413.82,454.59,1344.06
12200,-3.8717,0.6763,0.0687,289.31,-1764.22,-577.94
12210,-3.8718,0.6285,0.0306,-1429.44,798.16,-171.75
12220,-3.8719,0.5764,-0.0123,461.18,-76.90,-781.25
12230,-3.8721,0.5208,-0.0640,1789.31,-1577.03,-1328.19
12240,-3.8722,0.4672,-0.1224,-1335.69,-186.52,-1140.81
12250,-3.8723,0.4177,-0.1765,-195.07,328.98,-625.24
12260,-3.8724,0.3729,-0.2195,1476.81,1407.04,-328.49
12270,-3.8724,0.3427,-0.2532,-257.57,-93.08,358.89
12280,-3.8726,0.3270,-0.2847,-132.57,-405.64,1358.83
12290,-3.8727,0.3135,-0.3215,1867.43,-436.89,-1563.11
12300,-3.8728,0.2983,-0.3551,133.06,-1155.64,-250.67
12310,-3.8728,0.2883,-0.3854,-1804.44,-1452.58,514.89
12320,-3.8729,0.2876,-0.4226,914.31,-1327.58,389.83
12330,-3.8732,0.2983,-0.4641,820.56,1906.80,-469.60
12340,-3.8733,0.3187,-0.5071,-1804.44,594.30,-1610.29
12350,-3.8734,0.3334,-0.5437,804.93,-905.64,1420.84
12360,-3.8735,0.3290,-0.5631,-1320.07,-1593.14,1295.78
12370,-3.8737,0.3147,-0.5687,-1882.57,-77.51,-1751.16
12380,-3.8738,0.3051,-0.5686,289.31,-796.26,-173.03
12390,-3.8738,0.3113,-0.5670,-945.07,-780.70,1951.97
12400,-3.8739,0.3322,-0.5692,-148.19,-577.58,-32.41
12410,-3.8739,0.3505,-0.5807,-1476.32,-858.76,-1735.53
12420,-3.8739,0.3572,-0.6011,867.43,1672.55,1467.59
12430,-3.8739,0.3585,-0.6240,1726.81,-936.83,1123.78
12440,-3.8739,0.3595,-0.6481,1898.68,125.67,436.28
12450,-3.8740,0.3621,-0.6737,-1976.32,1047.55,-407.53
12460,-3.8740,0.3721,-0.6986,-1648.19,1766.30,-595.09
12470,-3.8739,0.3895,-0.7113,-366.94,-1421.20,607.97
12480,-3.8739,0.4132,-0.7019,1867.43,953.86,-454.53
12490,-3.8738,0.4388,-0.6808,898.68,-1842.96,-313.90
12500,-3.8737,0.4607,-0.6646,179.93,860.23,-204.47
12510,-3.8735,0.4865,-0.6599,-1023.19,-1061.65,-1298.22
12520,-3.8734,0.5256,-0.6583,-1726.32,-467.83,623.66
12530,-3.8734,0.5659,-0.6476,-710.69,-264.65,-1595.09
12540,-3.8734,0.5764,-0.6267,445.56,1110.47,-704.41
12550,-3.8734,0.5490,-0.6155,1789.31,-217.65,1467.47
12560,-3.8735,0.5118,-0.6370,-1726.32,1219.79,576.90
12570,-3.8738,0.4854,-0.6846,1523.68,-1530.27,-1204.41
12580,-3.8739,0.4592,-0.7262,-1866.94,375.92,1592.41
12590,-3.8740,0.4229,-0.7417,-1210.69,-952.27,1061.04
12600,-3.8741,0.3760,-0.7397,-1866.94,1063.29,1701.66
12610,-3.8743,0.3165,-0.7476,133.06,1313.23,-360.84
12620,-3.8743,0.2448,-0.7694,523.68,313.11,-923.34
12630,-3.8741,0.1719,-0.7842,-663.82,1516.05,92.22
12640,-3.8741,0.1088,-0.7877,-1991.94,-374.69,1717.16
12650,-3.8741,0.0541,-0.7869,1929.93,-827.94,-1126.59
12660,-3.8740,0.0123,-0.7904,-1070.07,-718.69,14.04
12670,-3.8740,-0.0140,-0.8031,1586.18,-1171.88,1154.66
12680,-3.8740,-0.0389,-0.8193,-1788.82,1218.69,1310.91
12690,-3.8740,-0.0714,-0.8285,-976.32,-859.50,748.35
12700,-3.8740,-0.1060,-0.8239,-1132.57,1968.57,342.10
12710,-3.8740,-0.1337,-0.8158,-1554.44,-1437.74,279.60
12720,-3.8741,-0.1543,-0.8118,-1101.32,-406.56,-376.65
12730,-3.8741,-0.1722,-0.8073,258.06,109.07,1935.91
12740,-3.8743,-0.1855,-0.8059,1961.18,687.13,-485.96
12750,-3.8743,-0.1957,-0.8148,258.06,859.01,810.91
12760,-3.8744,-0.2057,-0.8264,-1038.82,-281.68,-1298.52
12770,-3.8744,-0.2175,-0.8273,1679.93,-1766.05,1592.10
12780,-3.8744,-0.2330,-0.8119,164.31,-1875.43,1685.85
12790,-3.8744,-0.2507,-0.7834,-1820.07,93.26,-626.59
12800,-3.8743,-0.2698,-0.7554,-85.69,-266.17,-1689.09
12810,-3.8741,-0.2968,-0.7426,1476.81,-672.42,1685.97
12820,-3.8740,-0.3373,-0.7501,-1976.32,968.14,1342.29
12830,-3.8739,-0.3835,-0.7722,836.18,-0.67,1701.60
12840,-3.8738,-0.4264,-0.7966,-1085.69,1171.08,-1173.40
12850,-3.8735,-0.4618,-0.8082,1429.93,-1953.98,810.91
12860,-3.8734,-0.4899,-0.8051,898.68,561.58,-1110.96
12870,-3.8733,-0.5161,-0.7971,1304.93,967.77,-267.21
12880,-3.8732,-0.5503,-0.7853,1945.56,1983.34,-1251.59
12890,-3.8730,-0.6067,-0.7699,1570.56,-501.10,310.91
12900,-3.8730,-0.6870,-0.7633,-1648.19,1467.53,1326.60
12910,-3.8730,-0.7654,-0.7747,70.56,-1688.84,-876.53
12920,-3.8729,-0.8392,-0.7942,-1960.69,857.85,1826.60
12930,-3.8728,-0.8904,-0.8082,586.18,-1642.27,576.54
12940,-3.8728,-0.8931,-0.8132,-1960.69,560.73,-1470.34
12950,-3.8728,-0.9041,-0.8131,1695.56,-79.90,-1267.27
12960,-3.8728,-0.9399,-0.8103,289.31,-64.27,1060.85
12970,-3.8729,-0.9513,-0.8032,-304.44,294.98,-1860.96
12980,-3.8730,-0.9689,-0.7992,-1757.57,1201.23,-1110.96
12990,-3.8730,-1.0121,-0.8002,-7.57,1716.80,279.66
13000,-3.8732,-1.0553,-0.7965,-1538.82,1591.74,-1501.59
13010,-3.8732,-1.0909,-0.7896,929.93,-1939.58,732.79
13020,-3.8733,-1.1205,-0.7860,367.43,-1049.01,1857.79
13030,-3.8734,-1.1407,-0.7826,586.18,-595.95,1717.16
13040,-3.8735,-1.1538,-0.7771,1992.43,-158.51,482.79
13050,-3.8738,-1.1741,-0.7699,320.56,544.62,-1267.15
13060,-3.8739,-1.1965,-0.7616,1726.81,1466.43,1123.47
13070,-3.8740,-1.2168,-0.7596,-1148.19,-1471.13,14.10
13080,-3.8741,-1.2244,-0.7646,258.06,-1221.13,389.10
13090,-3.8743,-1.2180,-0.7657,-710.69,-1861.82,-1626.53
13100,-3.8743,-1.1958,-0.7555,101.81,1997.62,1170.35
13110,-3.8744,-1.1589,-0.7373,-1054.44,-689.88,-17.15
13120,-3.8744,-1.1149,-0.7224,-335.69,1638.31,-1860.84
13130,-3.8745,-1.0631,-0.7183,1304.93,-455.32,-63.96
13140,-3.8745,-1.0095,-0.7147,-70.07,75.99,-1579.53
13150,-3.8745,-0.9545,-0.7048,-1210.69,529.24,1561.10
13160,-3.8745,-0.9025,-0.6989,1836.18,1794.98,857.97
13170,-3.8745,-0.8567,-0.6990,492.43,-1439.27,467.35
13180,-3.8745,-0.8134,-0.7026,-1648.19,-1454.83,107.97
13190,-3.8746,-0.7742,-0.7069,-101.32,-1923.52,-126.40
13200,-3.8745,-0.7374,-0.7068,914.31,1529.72,45.47
13210,-3.8745,-0.7078,-0.7013,1617.43,1545.41,311.10
13220,-3.8745,-0.6886,-0.6912,1414.31,-1751.40,248.60
13230,-3.8746,-0.6869,-0.6801,-132.57,-454.53,-267.03
13240,-3.8746,-0.7036,-0.6743,86.18,967.41,-845.09
13250,-3.8746,-0.7252,-0.6724,1945.56,1701.72,-1110.72
13260,-3.8746,-0.7422,-0.6698,-820.07,1951.66,-1126.34
13270,-3.8746,-0.7490,-0.6674,1008.06,-1720.21,-970.09
13280,-3.8746,-0.7461,-0.6633,133.06,-1407.71,-298.22
13290,-3.8745,-0.7369,-0.6481,508.06,-892.09,748.66
13300,-3.8745,-0.7239,-0.6218,1679.93,1061.04,1654.97
13310,-3.8745,-0.7047,-0.5914,-648.19,420.41,-1391.85
13320,-3.8745,-0.6763,-0.5612,1804.93,311.10,-563.66
13330,-3.8745,-0.6445,-0.5358,1445.56,186.16,-313.60
13340,-3.8745,-0.6129,-0.5160,1508.06,-563.78,-376.10
13350,-3.8745,-0.5819,-0.4989,1554.93,1967.53,-141.66
13360,-3.8744,-0.5509,-0.4825,1523.68,155.09,467.77
13370,-3.8744,-0.5168,-0.4667,1492.43,-1751.10,1092.77
13380,-3.8744,-0.4810,-0.4503,1851.81,280.21,1764.71
13390,-3.8744,-0.4471,-0.4324,-1554.44,-1625.98,-1407.17
13400,-3.8744,-0.4142,-0.4154,-1226.32,670.96,-235.23
13410,-3.8743,-0.3809,-0.3975,-1007.57,-1157.10,-1969.60
13420,-3.8741,-0.3506,-0.3751,-741.94,1139.83,1405.46
13430,-3.8740,-0.3239,-0.3607,-866.94,-0.73,764.83
13440,-3.8740,-0.2965,-0.3661,-1445.07,1843.08,-125.73
13450,-3.8739,-0.2616,-0.3879,-1945.07,1155.64,-1000.73
13460,-3.8738,-0.2140,-0.4109,-1476.32,-1641.17,-1907.04
13470,-3.8737,-0.1648,-0.4166,617.43,-578.55,1389.77
13480,-3.8735,-0.1271,-0.4044,-1085.69,-1312.87,717.90
13490,-3.8735,-0.0967,-0.3934,-257.57,249.69,-1016.42
13500,-3.8734,-0.0592,-0.3928,-366.94,1656.01,124.21
13510,-3.8734,-0.0128,-0.3870,429.93,1734.25,842.96
13520,-3.8734,0.0275,-0.3566,-1632.57,-1515.69,1311.71
13530,-3.8734,0.0587,-0.3002,-476.32,-1640.62,1264.89
13540,-3.8734,0.0820,-0.2401,-476.32,1578.19,515.01
13550,-3.8735,0.0958,-0.2028,-1491.94,1265.75,-844.24
13560,-3.8735,0.1066,-0.2030,273.68,-1952.94,-1109.80
13570,-3.8734,0.1233,-0.2347,1648.68,-1984.19,-1984.80
13580,-3.8732,0.1575,-0.2712,-210.69,1953.31,312.01
13590,-3.8729,0.2177,-0.2913,164.31,1281.56,311.95
13600,-3.8727,0.2914,-0.2831,-132.57,-1280.88,1077.51
13610,-3.8724,0.3505,-0.2417,1304.93,-233.83,1265.01
13620,-3.8723,0.3884,-0.1985,867.43,1063.17,-734.86
13630,-3.8722,0.4308,-0.2029,1726.81,-1405.52,-531.68
13640,-3.8719,0.4994,-0.2444,-851.32,-1967.96,843.32
13650,-3.8717,0.5857,-0.2595,-70.07,719.67,1515.14
13660,-3.8715,0.6621,-0.2009,-1023.19,-1217.65,-125.55
13670,-3.8711,0.7240,-0.0768,758.06,-1717.47,515.20
13680,-3.8710,0.7900,0.0553,679.93,-1826.72,1640.44
13690,-3.8708,0.8828,0.1276,1133.06,-920.35,640.69
13700,-3.8707,1.0071,0.1276,1008.06,329.83,375.24
13710,-3.8706,1.1218,0.1173,914.31,330.08,-1734.13
13720,-3.8704,1.2126,0.1454,-398.19,-982.24,453.31
13730,-3.8704,1.3153,0.2041,-773.19,-1388.31,-671.63
13740,-3.8704,1.4403,0.2526,367.43,-1872.44,1859.74
13750,-3.8705,1.5784,0.2480,367.43,330.93,1359.86
13760,-3.8707,1.7264,0.2106,-1960.69,-246.95,-937.07
13770,-3.8708,1.8580,0.1759,992.43,-1043.52,437.87
13780,-3.8711,1.9318,0.1462,1836.18,-1480.77,-218.44
13790,-3.8711,1.9347,0.1233,-726.32,-1277.53,-1312.26
13800,-3.8710,1.8779,0.1084,-351.32,-215.03,390.81
13810,-3.8710,1.7754,0.1013,383.06,1878.66,-15.44
13820,-3.8707,1.6560,0.1067,-741.94,972.17,265.81
13830,-3.8706,1.5415,0.1108,-23.19,1659.42,312.68
13840,-3.8705,1.4408,0.1106,1320.56,-1809.51,1109.56
13850,-3.8704,1.3511,0.1132,429.93,-1840.94,1422.06
13860,-3.8704,1.2710,0.1042,945.56,-1513.00,-1124.82
13870,-3.8704,1.2148,0.0906,-1304.44,1346.19,1484.56
13880,-3.8705,1.1735,0.0773,-491.94,-403.93,1453.25
13890,-3.8707,1.1422,0.0588,-1788.82,1892.88,-921.75
13900,-3.8708,1.1229,0.0474,-1788.82,-466.55,375.06
13910,-3.8711,1.1027,0.0519,-257.57,-1935.36,-906.19
13920,-3.8712,1.0673,0.0638,1148.68,-1357.24,-234.31
13930,-3.8712,1.0095,0.0729,617.43,173.95,-1609.25
13940,-3.8712,0.9296,0.0693,1226.81,1330.08,1968.87
13950,-3.8712,0.8407,0.0460,-1007.57,876.77,1140.75
13960,-3.8713,0.7659,0.0081,-382.57,1892.21,-1562.44
13970,-3.8715,0.7042,-0.0409,-1960.69,1032.71,1140.62
13980,-3.8717,0.6416,-0.0924,-1851.32,-1233.03,-1828.25
13990,-3.8719,0.5819,-0.1365,-1866.94,173.10,-1265.81
14000,-3.8721,0.5320,-0.1746,-1507.57,-1467.65,62.19
14010,-3.8723,0.4808,-0.2083,101.81,1657.29,-937.87
14020,-3.8724,0.4250,-0.2393,1554.93,1344.67,-609.80
14030,-3.8724,0.3862,-0.2627,-1585.69,1375.79,202.64
14040,-3.8726,0.3719,-0.2791,1445.56,-1624.27,968.20
14050,-3.8727,0.3561,-0.3005,-382.57,281.92,1686.95
14060,-3.8728,0.3229,-0.3351,1586.18,1531.92,-1906.86
14070,-3.8729,0.2786,-0.3860,1336.18,1109.99,1389.95
14080,-3.8732,0.2323,-0.4431,-335.69,-1405.76,-282.04
14090,-3.8733,0.1975,-0.4858,1742.43,-718.32,-1594.67
14100,-3.8734,0.1853,-0.5101,1289.31,1812.87,1764.65
14110,-3.8735,0.1873,-0.5250,-273.19,-1296.57,1764.59
14120,-3.8737,0.1837,-0.5294,-23.19,797.18,-1501.04
14130,-3.8738,0.1719,-0.5217,-476.32,234.68,-126.04
14140,-3.8738,0.1575,-0.5106,-1991.94,1219.06,-1954.16
14150,-3.8738,0.1434,-0.5078,164.31,-1359.07,780.21
14160,-3.8739,0.1396,-0.5259,-1632.57,-999.76,-641.66
14170,-3.8739,0.1429,-0.5674,1883.06,687.74,-1954.16
14180,-3.8739,0.1407,-0.6143,-1695.07,-624.76,1858.22
14190,-3.8739,0.1349,-0.6460,-1976.32,1375.24,1951.90
14200,-3.8739,0.1333,-0.6617,1273.68,1312.74,576.84
14210,-3.8740,0.1355,-0.6703,1070.56,-702.88,1670.53
14220,-3.8741,0.1333,-0.6721,1351.81,-1796.63,-1188.84
14230,-3.8741,0.1246,-0.6637,1070.56,1968.99,1748.66
14240,-3.8741,0.1165,-0.6443,-38.82,-952.94,-1016.97
14250,-3.8740,0.1074,-0.6185,-1085.69,1531.43,1811.22
14260,-3.8739,0.0874,-0.5919,1758.06,828.31,1295.65
14270,-3.8738,0.0498,-0.5548,-804.44,234.50,686.34
14280,-3.8738,-0.0054,-0.5068,-1616.94,984.44,-235.47
14290,-3.8737,-0.0651,-0.4641,-679.44,-859.44,-1969.79
14300,-3.8737,-0.1202,-0.4304,-320.07,609.19,-1375.92
14310,-3.8737,-0.1787,-0.4022,617.43,921.63,-1672.73
14320,-3.8737,-0.2487,-0.3845,1133.06,530.88,-1125.79
14330,-3.8735,-0.3221,-0.3704,179.93,-1203.61,1139.83
14340,-3.8734,-0.3767,-0.3363,-1226.32,608.70,593.02
14350,-3.8734,-0.4152,-0.2672,-210.69,967.96,-453.80
14360,-3.8733,-0.4619,-0.1803,-1132.57,1811.65,1983.83
14370,-3.8732,-0.5355,-0.1066,883.06,936.58,577.76
14380,-3.8732,-0.6331,-0.0627,-538.82,-1626.10,-1172.12
14390,-3.8732,-0.7340,-0.0447,-1023.19,-16.91,-547.06
14400,-3.8732,-0.8174,-0.0361,-1945.07,-1704.59,1515.50
14410,-3.8733,-0.9221,-0.0292,-616.94,-611.02,-1906.37
14420,-3.8734,-1.0543,-0.0150,1976.81,279.42,-1015.69
14430,-3.8734,-1.1299,-0.0067,1054.93,-1908.33,749.94
14440,-3.8735,-1.1365,-0.0347,-616.94,-846.01,-406.31
14450,-3.8735,-1.1667,-0.1193,-1460.69,-424.13,-859.50
14460,-3.8735,-1.2323,-0.2399,-1335.69,747.68,-1718.99
14470,-3.8737,-1.2871,-0.3351,-1726.32,1310.06,-875.49
14480,-3.8738,-1.3871,-0.3721,-741.94,1122.44,1999.33
14490,-3.8739,-1.5253,-0.3585,-1538.82,387.88,1514.89
14500,-3.8740,-1.6506,-0.3384,773.68,-1877.99,-1688.23
14510,-3.8740,-1.7368,-0.3364,726.81,699.89,-1781.92
14520,-3.8739,-1.7585,-0.3342,1695.56,949.71,1764.95
14530,-3.8738,-1.7557,-0.3311,-1085.69,1230.90,-500.67
14540,-3.8735,-1.7395,-0.3302,-726.32,1637.15,-1297.55
14550,-3.8733,-1.7025,-0.3276,1351.81,1746.58,-1969.42
14560,-3.8732,-1.6588,-0.3199,-1913.82,-1925.23,-203.80
14570,-3.8730,-1.6149,-0.3235,-320.07,-940.80,-1547.55
14580,-3.8730,-1.5905,-0.3560,1304.93,-1393.80,1905.58
14590,-3.8732,-1.5854,-0.4009,429.93,-1549.99,-828.86
14600,-3.8733,-1.5887,-0.4403,1070.56,700.01,-360.17
14610,-3.8733,-1.5841,-0.4591,648.68,-346.86,1249.08
14620,-3.8733,-1.5494,-0.4443,1242.43,1246.89,1561.58
14630,-3.8732,-1.5006,-0.4119,1679.93,-862.43,499.08
14640,-3.8730,-1.4556,-0.3875,-70.07,-706.12,405.40
14650,-3.8730,-1.4180,-0.3806,1695.56,-1580.99,-750.79
14660,-3.8729,-1.3894,-0.3892,-1491.94,-705.93,249.21
14670,-3.8730,-1.3625,-0.4066,-1835.69,-1799.62,-16.42
14680,-3.8730,-1.3398,-0.4260,1601.81,-33.94,-578.98
14690,-3.8730,-1.3136,-0.4415,508.06,1481.75,-1110.23
14700,-3.8730,-1.2758,-0.4501,-132.57,-502.62,-1579.04
14710,-3.8730,-1.2278,-0.4553,711.18,-1596.25,-1954.04
14720,-3.8730,-1.1719,-0.4594,-1148.19,1731.93,1811.58
14730,-3.8730,-1.1166,-0.4603,-1991.94,1216.43,1858.46
14740,-3.8730,-1.0625,-0.4633,1086.18,1091.55,1842.83
14750,-3.8730,-1.0121,-0.4712,8.06,716.67,1467.83
14760,-3.8730,-0.9707,-0.4717,-1538.82,-298.89,514.65
14770,-3.8732,-0.9373,-0.4592,-241.94,-361.33,-1063.48
14780,-3.8732,-0.9065,-0.4390,39.31,1232.54,1311.58
14790,-3.8733,-0.8705,-0.4142,-23.19,-173.71,-500.92
14800,-3.8733,-0.8229,-0.3899,586.18,-1001.71,1327.27
14810,-3.8734,-0.7592,-0.3698,-1320.07,-1892.27,-1188.29
14820,-3.8735,-0.6875,-0.3529,-1163.82,685.97,-406.98
14830,-3.8737,-0.6123,-0.3354,8.06,-1157.59,-94.48
14840,-3.8738,-0.5361,-0.3075,1633.06,1076.90,-78.80
14850,-3.8739,-0.4670,-0.2677,-616.94,655.15,-484.99
14860,-3.8740,-0.4099,-0.2273,226.81,1749.08,-1031.80
14870,-3.8741,-0.3757,-0.1880,-460.69,-1078.98,-875.49
14880,-3.8741,-0.3607,-0.1375,-85.69,-47.67,624.57
14890,-3.8743,-0.3423,-0.0696,1836.18,-1578.86,-937.81
14900,-3.8743,-0.3037,-0.0055,195.56,-891.30,1874.82
14910,-3.8743,-0.2434,0.0363,1133.06,-688.11,796.81
14920,-3.8744,-0.1698,0.0574,851.81,655.76,-124.94
14930,-3.8744,-0.0992,0.0632,-1726.32,-640.99,-859.31
14940,-3.8744,-0.0424,0.0629,-695.07,109.13,-1203.00
14950,-3.8744,0.0046,0.0762,-1413.82,62.38,-359.25
14960,-3.8743,0.0507,0.1185,601.81,1750.00,1797.00
14970,-3.8741,0.1077,0.1764,-1507.57,-828.06,765.81
14980,-3.8740,0.1832,0.2291,1789.31,-1421.69,906.56
14990,-3.8739,0.2712,0.2745,-538.82,1328.43,-1515.20
15000,-3.8737,0.3651,0.3088,-1273.19,-858.89,125.49
15010,-3.8735,0.4677,0.3212,-1257.57,-468.08,1250.55
15020,-3.8734,0.5732,0.3076,-132.57,1110.23,1766.24
15030,-3.8733,0.6661,0.2772,1383.06,-623.90,578.67
15040,-3.8733,0.7466,0.2498,1273.68,-514.34,1844.24
15050,-3.8733,0.8558,0.2340,-429.44,-29.85,-827.70
15060,-3.8732,0.9675,0.2194,1554.93,1954.77,1812.93
15070,-3.8730,1.0220,0.2064,-148.19,79.96,1797.30
15080,-3.8729,1.0725,0.1986,-1179.44,-1576.17,1672.24
15090,-3.8728,1.1432,0.1831,1289.31,1423.95,844.12
15100,-3.8727,1.2130,0.1652,-1663.82,-560.30,515.93
15110,-3.8726,1.2715,0.1705,-726.32,1142.94,-1905.94
15120,-3.8723,1.3016,0.2068,-1241.94,1830.57,1344.06
15130,-3.8722,1.3297,0.2567,-1382.57,-1528.75,-437.13
15140,-3.8721,1.3890,0.2954,-1788.82,861.94,-1030.76
15150,-3.8719,1.4844,0.3005,1804.93,1815.19,125.55
15160,-3.8719,1.5886,0.2737,-1991.94,-1528.38,750.55
15170,-3.8719,1.6724,0.2415,-648.19,-965.70,1469.24
15180,-3.8719,1.7372,0.2240,-1929.44,-1090.52,1609.80
15190,-3.8719,1.8032,0.2285,-1632.57,675.23,1672.30
15200,-3.8719,1.8879,0.2534,-1179.44,1253.48,-1765.20
15210,-3.8719,1.9851,0.2902,1664.31,441.16,-921.39
15220,-3.8719,2.0786,0.3267,-1898.19,1144.47,-405.70
15230,-3.8719,2.1637,0.3367,-1929.44,1816.53,-561.89
15240,-3.8719,2.2319,0.3152,961.18,-902.04,-983.76
15250,-3.8719,2.2582,0.2953,1695.56,348.08,-921.26
15260,-3.8719,2.2189,0.2811,1054.93,1801.27,-1546.33
15270,-3.8719,2.1295,0.2584,23.68,-11.29,672.36
15280,-3.8721,2.0150,0.2325,586.18,1082.28,-1187.01
15290,-3.8721,1.8915,0.2139,1929.93,1769.53,937.93
15300,-3.8722,1.7844,0.2045,-1882.57,-621.34,-843.38
15310,-3.8722,1.6866,0.1891,414.31,-1824.65,-1859.01
15320,-3.8722,1.5988,0.1638,-101.32,206.36,-1702.76
15330,-3.8722,1.5264,0.1456,648.68,971.86,-812.19
15340,-3.8722,1.4387,0.1429,-616.94,-1356.45,-15.38
15350,-3.8722,1.3354,0.1459,164.31,-1700.32,-93.51
15360,-3.8722,1.2319,0.1346,-1054.44,-1325.56,-1843.51
15370,-3.8723,1.1267,0.1027,1695.56,1236.76,-1468.51
15380,-3.8724,1.0316,0.0645,226.81,1142.82,1937.68
15390,-3.8726,0.9442,0.0310,54.93,252.01,953.25
15400,-3.8727,0.8513,0.0072,867.43,-29.42,140.62
15410,-3.8728,0.7557,0.0009,976.81,923.52,78.12
15420,-3.8729,0.6628,0.0071,742.43,110.84,468.75
15430,-3.8730,0.5752,0.0084,851.81,907.53,796.88
15440,-3.8732,0.4895,-0.0123,1633.06,1079.22,796.88
15450,-3.8733,0.4038,-0.0596,-1335.69,-1577.21,46.81
15460,-3.8735,0.3291,-0.1168,-304.44,375.73,1515.50
15470,-3.8738,0.2805,-0.1714,-1866.94,1047.49,1687.26
15480,-3.8740,0.2485,-0.2163,-85.69,-1937.01,-1406.62
15490,-3.8741,0.2106,-0.2517,-179.44,312.93,1499.57
15500,-3.8743,0.1606,-0.2744,-1038.82,-218.38,-1250.55
15510,-3.8743,0.1079,-0.2755,570.56,875.31,1421.33
15520,-3.8743,0.0690,-0.2631,1820.56,734.56,77.58
15530,-3.8744,0.0452,-0.2437,836.18,-1671.75,-1094.30
15540,-3.8744,0.0195,-0.2323,1789.31,812.56,-1453.61
15550,-3.8744,-0.0131,-0.2607,-1491.94,-1734.38,-1812.99
15560,-3.8744,-0.0427,-0.3398,-1663.82,-1359.44,1343.20
15570,-3.8744,-0.0615,-0.4313,-1460.69,515.50,983.70
15580,-3.8744,-0.0725,-0.4811,133.06,812.38,1592.90
15590,-3.8744,-0.0823,-0.4727,-1273.19,-1562.68,-1375.98
15600,-3.8744,-0.1038,-0.4336,1476.81,-484.56,-875.98
15610,-3.8744,-0.1483,-0.4015,-1273.19,515.38,-1360.23
15620,-3.8744,-0.2080,-0.3964,1023.68,624.69,-1891.42
15630,-3.8744,-0.2670,-0.4186,1383.06,1280.82,1561.71
15640,-3.8744,-0.3116,-0.4601,1836.18,-1563.05,639.77
15650,-3.8744,-0.3359,-0.5018,117.43,1124.39,311.58
15660,-3.8744,-0.3508,-0.5221,1008.06,-219.42,1233.34
15670,-3.8744,-0.3722,-0.5175,-898.19,1186.77,-626.04
15680,-3.8743,-0.4073,-0.5004,367.43,1780.52,-1641.66
15690,-3.8741,-0.4554,-0.4855,-132.57,-32.10,1327.09
15700,-3.8740,-0.5111,-0.4816,1711.18,1874.08,14.65
15710,-3.8740,-0.5642,-0.4929,-1413.82,-1626.04,-969.73
15720,-3.8739,-0.6110,-0.5166,-210.69,920.72,-1360.35
15730,-3.8738,-0.6412,-0.5409,1804.93,1889.40,-1391.66
15740,-3.8737,-0.6821,-0.5540,1929.93,-1220.03,-1297.97
15750,-3.8735,-0.7456,-0.5538,695.56,1108.03,-954.22
15760,-3.8734,-0.7893,-0.5365,570.56,1123.54,-376.10
15770,-3.8733,-0.8119,-0.5022,-1023.19,-657.84,-907.35
15780,-3.8732,-0.8644,-0.4657,86.18,-267.21,295.84
15790,-3.8733,-0.9559,-0.4327,1367.43,404.54,-172.79
15800,-3.8733,-1.0463,-0.3904,1648.68,623.11,-1313.35
15810,-3.8734,-1.1509,-0.3466,-1913.82,-1955.20,-438.29
15820,-3.8735,-1.2537,-0.3214,695.56,-346.01,1577.39
15830,-3.8738,-1.3271,-0.3217,-460.69,-1127.50,1030.58
15840,-3.8741,-1.3853,-0.3518,-1866.94,-1158.87,-1219.42
15850,-3.8745,-1.4406,-0.4133,-1304.44,-1018.37,-469.48
15860,-3.8748,-1.5050,-0.4799,-382.57,-893.49,46.02
15870,-3.8439,-1.5657,-0.5183,-632.57,-1409.24,-1235.35
15880,-3.8440,-1.6296,-0.5294,-398.19,1668.76,530.21
15890,-3.8441,-1.6970,-0.5249,-585.69,246.77,1577.09
15900,-3.8441,-1.7480,-0.5229,-1210.69,824.77,1702.09
15910,-3.8440,-1.7677,-0.5282,258.06,1074.71,202.09
15920,-3.8439,-1.7493,-0.5321,1742.43,402.77,248.96
15930,-3.8750,-1.7190,-0.5194,101.81,-97.17,358.28
15940,-3.8750,-1.6586,-0.4911,-23.19,1527.83,-797.91
15950,-3.8749,-1.5684,-0.4774,-288.82,1152.95,311.52
15960,-3.8749,-1.4972,-0.4866,-741.94,-1096.86,420.90
15970,-3.8750,-1.4468,-0.5035,367.43,1731.45,-32.23
15980,-3.8750,-1.4071,-0.5150,-1179.44,-440.37,-891.66
15990,-3.8750,-1.3710,-0.5134,-101.32,-1909.06,-1782.29
16000,-3.8750,-1.3430,-0.5065,523.68,-1705.81,1123.96
16010,-3.8750,-1.3333,-0.5016,101.81,-815.12,233.34
16020,-3.8439,-1.3352,-0.5055,1351.81,-190.12,-282.29
16030,-3.8439,-1.3292,-0.5150,1101.81,-690.12,-219.79
16040,-3.8750,-1.2949,-0.5126,1867.43,-1908.87,655.21
16050,-3.8750,-1.2426,-0.4935,-1741.94,-1596.31,1748.96
16060,-3.8750,-1.1934,-0.4675,961.18,841.31,-1063.48
16070,-3.8749,-1.1626,-0.4495,-741.94,169.49,186.58
16080,-3.8749,-1.1560,-0.4380,-804.44,-1517.94,1342.83
16090,-3.8749,-1.1548,-0.4219,39.31,-49.13,1780.33
16100,-3.8749,-1.1434,-0.4011,195.56,-1986.63,1905.40
16110,-3.8749,-1.1160,-0.3798,1648.68,669.62,-1094.54
16120,-3.8749,-1.0697,-0.3671,1164.31,-595.95,-344.54
16130,-3.8749,-1.0116,-0.3691,-913.82,1029.11,-563.23
16140,-3.8749,-0.9463,-0.3801,-1476.32,763.61,-531.98
16150,-3.8748,-0.8746,-0.3859,-1116.94,-642.52,296.08
16160,-3.8748,-0.8091,-0.3716,54.93,-1376.71,1842.96
16170,-3.8748,-0.7670,-0.3434,445.56,451.54,-313.23
16180,-3.8746,-0.7349,-0.3062,1836.18,60.97,1343.08
16190,-3.8746,-0.6860,-0.2672,1945.56,826.66,-1078.74
16200,-3.8746,-0.6201,-0.2448,195.56,1811.16,-16.17
16210,-3.8745,-0.5470,-0.2416,633.06,686.28,577.64
16220,-3.8745,-0.4706,-0.2528,1992.43,1092.65,1280.76
16230,-3.8745,-0.4036,-0.2742,-226.32,-344.73,-1375.55
16240,-3.8744,-0.3623,-0.2909,351.81,921.08,1265.08
16250,-3.8743,-0.3376,-0.2837,1633.06,-1219.48,655.64
16260,-3.8743,-0.3020,-0.2611,789.31,-297.55,-234.99
16270,-3.8741,-0.2539,-0.2416,1351.81,-1406.86,-1438.05
16280,-3.8740,-0.2073,-0.2189,-491.94,1093.20,1468.26
16290,-3.8739,-0.1649,-0.1927,1476.81,-0.43,327.64
16300,-3.8739,-0.1235,-0.1769,-1101.32,-656.62,-1719.18
16310,-3.8738,-0.0721,-0.1554,195.56,1374.76,859.01
16320,-3.8737,-0.0099,-0.1053,-1226.32,124.82,1452.82
16330,-3.8735,0.0524,-0.0315,-1257.57,-1468.81,-1437.74
16340,-3.8734,0.1014,0.0420,-1288.82,-31.19,-1015.75
16350,-3.8733,0.1385,0.1011,992.43,1375.18,1937.56
16360,-3.8733,0.1971,0.1498,1742.43,937.74,-1015.44
16370,-3.8733,0.3054,0.1948,1242.43,-827.76,1937.74
16380,-3.8734,0.4501,0.2635,-898.19,938.05,-155.88
16390,-3.8734,0.5972,0.3660,1617.43,1735.23,-1093.26
16400,-3.8734,0.7104,0.4622,445.56,-1155.09,-1280.58
16410,-3.8734,0.7731,0.5353,-1054.44,-842.41,1360.23
16420,-3.8735,0.8065,0.6012,-1038.82,517.09,-1686.46
16430,-3.8737,0.8774,0.6494,-757.57,954.65,-983.22
16440,-3.8737,0.9835,0.6606,320.56,-873.29,1673.10
16450,-3.8735,1.0685,0.6249,1898.68,564.39,32.53
16460,-3.8734,1.1503,0.5615,773.68,-13.55,-1998.84
16470,-3.8732,1.2020,0.5217,-757.57,-122.80,1751.04
16480,-3.8729,1.2026,0.5256,1867.43,-1216.43,1266.60
16490,-3.8728,1.1941,0.5544,1945.56,-716.43,-811.52
16500,-3.8726,1.2015,0.5687,851.81,-1028.93,360.41
16510,-3.8724,1.2191,0.5541,1804.93,799.19,-1686.40
16520,-3.8722,1.2257,0.5378,54.93,-1075.74,1469.79
16530,-3.8719,1.2244,0.5465,898.68,846.13,501.04
16540,-3.8718,1.2292,0.5920,726.81,1955.51,1313.54
16550,-3.8717,1.2579,0.6489,1351.81,-216.37,47.97
16560,-3.8717,1.3005,0.6698,1023.68,-935.06,-498.78
16570,-3.8715,1.3363,0.6383,-1523.19,1736.88,1876.28
16580,-3.8712,1.3647,0.5825,-945.07,1705.69,1266.85
16590,-3.8711,1.3879,0.5377,-1304.44,-1434.88,-1327.03
16600,-3.8710,1.4149,0.5165,1664.31,830.81,-1952.09
16610,-3.8708,1.4407,0.5126,1117.43,-1887.88,1844.73
16620,-3.8706,1.4421,0.5114,414.31,1612.18,454.10
16630,-3.8704,1.4268,0.5099,601.81,1455.93,157.23
16640,-3.8702,1.4159,0.5107,-1366.94,1268.37,1610.35
16650,-3.8701,1.4174,0.5173,1242.43,1377.75,63.48
16660,-3.8701,1.4315,0.5325,1429.93,-1778.50,344.73
16670,-3.8702,1.4443,0.5405,-757.57,159.00,-686.46
16680,-3.8702,1.4448,0.5343,883.06,1190.31,1188.54
16690,-3.8704,1.4437,0.5254,945.56,393.43,1376.04
16700,-3.8706,1.4407,0.5145,804.93,-747.19,-155.27
16710,-3.8707,1.4205,0.4993,414.31,1862.18,1938.48
16720,-3.8708,1.3872,0.4882,1836.18,-91.00,704.04
16730,-3.8710,1.3451,0.4829,1570.56,-1512.94,532.17
16740,-3.8711,1.2925,0.4760,179.93,1815.12,1594.67
16750,-3.8712,1.2361,0.4684,1445.56,924.38,-639.71
16760,-3.8712,1.1835,0.4634,-1773.19,-44.49,407.10
16770,-3.8713,1.1399,0.4563,-507.57,-685.24,32.10
16780,-3.8716,1.1082,0.4338,1914.31,-1591.55,-1092.90
16790,-3.8717,1.0847,0.3960,1851.81,-466.61,-1905.46
16800,-3.8718,1.0707,0.3739,-1148.19,-1310.42,-1952.39
16810,-3.8719,1.0521,0.3795,1054.93,-138.55,-1702.45
16820,-3.8721,1.0127,0.3937,-1320.07,580.14,-1374.27
16830,-3.8722,0.9597,0.3881,1633.06,-1607.42,-1046.14
16840,-3.8723,0.9176,0.3497,-1148.19,1673.71,-1077.39
16850,-3.8724,0.8901,0.2900,1461.18,767.40,-889.95
16860,-3.8724,0.8638,0.2450,1945.56,1126.71,203.67
16870,-3.8726,0.8337,0.2468,-1429.44,-638.98,1219.18
16880,-3.8727,0.7780,0.2675,-1273.19,-404.66,1156.68
16890,-3.8728,0.6969,0.2719,-413.82,-1764.16,547.36
16900,-3.8730,0.6240,0.2584,1211.18,-1201.78,-749.51
16910,-3.8733,0.5680,0.2225,-116.94,1079.28,-452.64
16920,-3.8735,0.5125,0.1576,711.18,485.47,1437.93
16930,-3.8739,0.4408,0.0789,1601.81,172.85,-1187.19
16940,-3.8741,0.3510,0.0024,429.93,-1905.40,1218.87
16950,-3.8744,0.2670,-0.0604,929.93,313.17,1312.50
16960,-3.8746,0.2003,-0.0986,-1820.07,266.11,-1015.75
16970,-3.8748,0.1323,-0.1251,1648.68,-624.63,-1781.49
16980,-3.8749,0.0541,-0.1582,945.56,-15.38,-797.18
16990,-3.8749,-0.0249,-0.2032,-1070.07,-249.94,1749.63
17000,-3.8749,-0.0909,-0.2527,820.56,1999.94,1499.57
17010,-3.8749,-0.1354,-0.2931,367.43,-328.31,1765.08
17020,-3.8749,-0.1700,-0.3248,-1320.07,-1500.31,-1266.24
17030,-3.8748,-0.2137,-0.3645,-1757.57,-1562.87,1327.45
17040,-3.8746,-0.2643,-0.4137,648.68,1358.95,1389.89
17050,-3.8745,-0.3123,-0.4546,-1820.07,-938.05,1952.27
17060,-3.8744,-0.3539,-0.4752,39.31,1827.51,-1719.67
17070,-3.8743,-0.3922,-0.4780,-1288.82,-813.23,-1391.60
17080,-3.8741,-0.4321,-0.4813,1804.93,-1172.67,-1438.48
17090,-3.8740,-0.4680,-0.5107,695.56,-1594.60,1811.52
17100,-3.8739,-0.4993,-0.5693,101.81,-1360.29,1108.34
17110,-3.8738,-0.5291,-0.6272,101.81,-860.35,1670.72
17120,-3.8737,-0.5459,-0.6447,289.31,-266.66,-376.28
17130,-3.8734,-0.5789,-0.6128,-1866.94,1498.90,1170.59
17140,-3.8733,-0.6360,-0.5723,1914.31,1576.97,623.78
17150,-3.8733,-0.6804,-0.5658,-1398.19,-1235.66,1561.34
17160,-3.8733,-0.7096,-0.5985,914.31,-407.59,592.59
17170,-3.8734,-0.7488,-0.6439,1179.93,-595.15,1858.15
17180,-3.8735,-0.7983,-0.6744,164.31,1592.29,1873.72
17190,-3.8737,-0.8357,-0.6842,1820.56,1685.91,1561.16
17200,-3.8738,-0.8982,-0.6873,1039.31,435.85,1029.91
17210,-3.8739,-0.9781,-0.7052,1039.31,45.10,764.28
17220,-3.8740,-1.0350,-0.7308,-1195.07,1748.05,420.47
17230,-3.8743,-1.0612,-0.7473,-476.32,-1533.33,-267.09
17240,-3.8744,-1.0647,-0.7596,179.93,357.30,-923.34
17250,-3.8745,-1.0626,-0.7769,-273.19,-1220.89,-1314.03
17260,-3.8746,-1.0652,-0.7927,-7.57,575.99,-892.15
17270,-3.8746,-1.0800,-0.8005,-335.69,-1455.26,217.16
17280,-3.8748,-1.1000,-0.8088,1773.68,1544.74,1326.54
17290,-3.8749,-1.1104,-0.8202,-788.82,482.18,-1407.84
17300,-3.8749,-1.1031,-0.8239,1883.06,-970.95,529.60
17310,-3.8750,-1.0952,-0.8170,-1195.07,-1439.70,-1876.65
17320,-3.8439,-1.0834,-0.8019,-179.44,-564.70,-1111.02
17330,-3.8440,-1.0682,-0.7954,1336.18,1372.86,-845.34
17340,-3.8441,-1.0740,-0.8186,-726.32,-1799.01,-485.96
17350,-3.8441,-1.1306,-0.8724,-1460.69,-767.76,1295.23
17360,-3.8441,-1.2339,-0.9366,-710.69,341.49,717.04
17370,-3.8441,-1.3235,-0.9939,-1929.44,122.56,716.92
17380,-3.8441,-1.3687,-1.0264,-1398.19,794.25,13.67
17390,-3.8442,-1.3838,-1.0182,820.56,637.94,-1048.89
17400,-3.8442,-1.3622,-0.9785,-1116.94,1684.75,-1033.26
17410,-3.8441,-1.3086,-0.9215,1648.68,-1237.06,873.05
17420,-3.8441,-1.2517,-0.8669,508.06,-1940.06,-704.96
17430,-3.8440,-1.1992,-0.8275,-210.69,1044.37,482.67
17440,-3.8440,-1.1456,-0.7976,-1491.94,-1908.63,623.35
17450,-3.8441,-1.0969,-0.7720,1367.43,1919.62,-95.34
17460,-3.8441,-1.0549,-0.7512,-398.19,1200.93,-1782.78
17470,-3.8441,-1.0168,-0.7291,976.81,-142.70,467.22
17480,-3.8442,-0.9899,-0.7004,1851.81,-1314.51,-517.09
17490,-3.8442,-0.9728,-0.6687,1304.93,-1642.58,-626.40
17500,-3.8441,-0.9554,-0.6361,-507.57,-1580.08,264.28
17510,-3.8441,-0.9244,-0.6041,1711.18,-1408.14,-1938.78
17520,-3.8441,-0.8777,-0.5708,1679.93,-1314.33,-235.60
17530,-3.8440,-0.8195,-0.5399,-335.69,-1048.65,826.97
17540,-3.8440,-0.7567,-0.5221,-882.57,-1095.40,1295.78
17550,-3.8440,-0.6986,-0.5173,-851.32,1185.97,1561.46
17560,-3.8440,-0.6432,-0.5122,-1413.82,1795.47,-1438.54
17570,-3.8439,-0.5906,-0.4991,1679.93,-1548.16,702.09
17580,-3.8439,-0.5421,-0.4755,414.31,123.84,-344.73
17590,-3.8750,-0.4944,-0.4503,-1382.57,-844.85,-1110.35
17600,-3.8749,-0.4498,-0.4453,726.81,-1625.98,-1954.04
17610,-3.8748,-0.4073,-0.4542,-1570.07,-985.29,1280.33
17620,-3.8746,-0.3657,-0.4606,-132.57,1874.15,874.08
17630,-3.8745,-0.3264,-0.4569,1195.56,1061.77,827.21
17640,-3.8744,-0.2860,-0.4397,-1773.19,1530.58,920.96
17650,-3.8743,-0.2444,-0.4149,-601.32,-266.24,702.21
17660,-3.8741,-0.2040,-0.3962,726.81,-1094.24,155.40
17670,-3.8741,-0.1633,-0.3860,1898.68,1296.45,-657.04
17680,-3.8740,-0.1179,-0.3699,-898.19,-1390.99,-1469.54
17690,-3.8739,-0.0665,-0.3463,914.31,671.63,-1438.23
17700,-3.8738,-0.0055,-0.3313,-507.57,-312.68,-1000.73
17710,-3.8737,0.0693,-0.3264,-695.07,1609.31,-1110.05
17720,-3.8735,0.1530,-0.3228,883.06,-1781.13,-1469.42
17730,-3.8734,0.2410,-0.3224,-413.82,-1312.26,-1828.80
17740,-3.8733,0.3365,-0.3273,-1148.19,-1265.20,1530.58
17750,-3.8732,0.4360,-0.3400,-913.82,-1890.01,233.70
17760,-3.8732,0.5287,-0.3528,-179.44,485.17,-1313.17
17770,-3.8730,0.6046,-0.3528,-320.07,-1155.27,1749.27
17780,-3.8729,0.6559,-0.3486,1398.68,-1155.09,1421.14
17790,-3.8728,0.6790,-0.3491,-38.82,-623.78,1468.02
17800,-3.8727,0.7028,-0.3558,-1085.69,-686.22,1936.77
17810,-3.8726,0.7319,-0.3738,1961.18,-1545.53,-1641.36
17820,-3.8724,0.7316,-0.3990,1695.56,157.65,1639.89
17830,-3.8724,0.7168,-0.4219,1648.68,923.28,-875.79
17840,-3.8724,0.7020,-0.4384,-241.94,-1998.66,-610.23
17850,-3.8724,0.6803,-0.4481,1867.43,-108.03,-813.42
17860,-3.8724,0.6481,-0.4628,-913.82,-1358.09,-1141.54
17870,-3.8724,0.6024,-0.4913,-1038.82,766.85,-1063.42
17880,-3.8724,0.5441,-0.5294,1117.43,1110.53,-829.10
17890,-3.8724,0.4722,-0.5663,1648.68,235.41,-344.79
17900,-3.8723,0.4014,-0.5957,445.56,-483.46,1733.22
17910,-3.8722,0.3416,-0.6189,-616.94,-249.27,1123.78
17920,-3.8721,0.2910,-0.6371,-273.19,781.86,1108.15
17930,-3.8719,0.2460,-0.6365,1258.06,-1546.33,-1470.03
17940,-3.8717,0.2085,-0.6010,-507.57,-1468.32,1842.47
17950,-3.8715,0.1962,-0.5380,-1304.44,-921.51,-1844.97
17960,-3.8712,0.2086,-0.4695,1117.43,-859.01,1827.03
17970,-3.8711,0.2289,-0.4242,-1288.82,-93.38,-360.35
17980,-3.8710,0.2515,-0.4055,1304.93,1703.55,-828.98
17990,-3.8708,0.2809,-0.3872,195.56,94.24,171.08
18000,-3.8710,0.3157,-0.3517,-38.82,-1562.01,-813.29
18010,-3.8710,0.3445,-0.3018,414.31,-1015.01,1405.52
18020,-3.8711,0.3680,-0.2513,101.81,1375.67,-297.49
18030,-3.8711,0.4005,-0.2090,-882.57,-171.20,-1469.30
18040,-3.8711,0.4498,-0.1769,-726.32,1250.73,1093.32
18050,-3.8712,0.5085,-0.1439,1586.18,1360.23,-1984.74
18060,-3.8713,0.5713,-0.0873,1101.81,1579.10,1905.94
18070,-3.8715,0.6405,-0.0106,1133.06,829.22,-1047.06
18080,-3.8715,0.7164,0.0566,1992.43,-1358.15,1546.81
18090,-3.8716,0.7944,0.1031,-288.82,-748.66,-499.94
18100,-3.8717,0.8676,0.1320,1695.56,1204.65,-484.19
18110,-3.8718,0.9409,0.1438,-945.07,892.27,1687.74
18120,-3.8721,1.0278,0.1510,445.56,-1591.92,-640.38
18130,-3.8722,1.1301,0.1495,-429.44,-669.92,-1702.88
18140,-3.8723,1.2289,0.1558,664.31,-857.18,-468.51
18150,-3.8723,1.3107,0.2046,1304.93,-60.12,-77.88
18160,-3.8722,1.3864,0.2609,-226.32,-1810.00,-1437.13
18170,-3.8721,1.4548,0.2786,1461.18,1393.31,1703.61
18180,-3.8719,1.4954,0.2792,-1773.19,-340.94,656.74
18190,-3.8719,1.4967,0.2743,-585.69,-262.76,-608.89
18200,-3.8718,1.4690,0.2361,-413.82,-887.76,1984.86
18210,-3.8717,1.4329,0.1705,39.31,-1778.38,187.93
18220,-3.8717,1.3925,0.1096,-585.69,1830.87,1219.06
18230,-3.8717,1.3466,0.0697,-1757.57,-1966.06,984.56
18240,-3.8717,1.3000,0.0492,367.43,924.50,859.50
18250,-3.8717,1.2513,0.0402,-1585.69,-1700.62,-1437.44
18260,-3.8716,1.1969,0.0380,179.93,1143.07,1906.31
18270,-3.8715,1.1475,0.0380,1211.18,861.69,1234.44
18280,-3.8713,1.1130,0.0303,-1116.94,861.57,62.56
18290,-3.8713,1.0828,0.0128,-1523.19,-122.86,-1812.50
18300,-3.8713,1.0442,-0.0134,-1398.19,1642.70,-1421.88
18310,-3.8713,0.9971,-0.0466,1664.31,-1716.74,843.69
18320,-3.8715,0.9358,-0.0791,-366.94,-1966.86,-1906.37
18330,-3.8716,0.8625,-0.1035,-210.69,1876.77,-250.18
18340,-3.8716,0.7944,-0.1158,-1585.69,-1248.35,1671.63
18350,-3.8717,0.7423,-0.1266,1695.56,1173.40,-1125.24
18360,-3.8718,0.7097,-0.1449,-976.32,-201.72,-797.18
18370,-3.8719,0.6892,-0.1615,-1148.19,1454.47,-1203.43
18380,-3.8721,0.6637,-0.1720,226.81,-670.53,1671.51
18390,-3.8722,0.6290,-0.1831,961.18,1985.66,265.26
18400,-3.8724,0.5919,-0.1978,523.68,563.72,-1015.99
18410,-3.8726,0.5577,-0.2147,-226.32,-1311.40,1937.07
18420,-3.8727,0.5237,-0.2319,-601.32,516.66,1124.57
18430,-3.8728,0.4769,-0.2516,-960.69,-1686.52,249.51
18440,-3.8730,0.4155,-0.2781,1054.93,-202.21,-1078.67
18450,-3.8732,0.3525,-0.3088,1195.56,407.04,1327.58
18460,-3.8734,0.2997,-0.3383,1133.06,469.42,-344.36
18470,-3.8735,0.2654,-0.3682,-1632.57,703.67,1983.70
18480,-3.8737,0.2493,-0.4105,1976.81,875.49,1139.89
18490,-3.8738,0.2455,-0.4598,-85.69,-546.45,-1657.10
18500,-3.8738,0.2482,-0.4967,-570.07,1141.05,1358.46
18510,-3.8738,0.2566,-0.5222,-226.32,422.30,420.90
18520,-3.8739,0.2739,-0.5471,851.81,1156.74,-1110.41
18530,-3.8739,0.2971,-0.5724,-929.44,1969.24,1186.40
18540,-3.8740,0.3175,-0.5962,-1960.69,-1265.08,-423.03
18550,-3.8740,0.3306,-0.6223,648.68,-311.89,-1829.35
18560,-3.8740,0.3375,-0.6476,-1679.44,344.36,1076.90
18570,-3.8740,0.3436,-0.6703,-788.82,1109.99,108.09
18580,-3.8741,0.3558,-0.6971,-7.57,-1796.26,-376.34
18590,-3.8740,0.3733,-0.7233,1554.93,-1233.70,904.85
18600,-3.8740,0.3937,-0.7417,-210.69,-577.45,-485.84
18610,-3.8739,0.4161,-0.7579,-1601.32,1063.23,-1985.84
18620,-3.8739,0.4362,-0.7761,1273.68,-1014.83,-79.65
18630,-3.8738,0.4464,-0.7953,-163.82,657.04,1139.10
18640,-3.8738,0.4409,-0.8098,1148.68,-1796.02,-1782.84
18650,-3.8738,0.4237,-0.8164,445.56,344.60,-329.71
18660,-3.8737,0.4043,-0.8213,-1757.57,-499.21,1467.10
18670,-3.8737,0.3883,-0.8274,-241.94,-1124.27,-751.65
18680,-3.8735,0.3746,-0.8378,1711.18,-1905.52,607.73
18690,-3.8735,0.3651,-0.8606,-38.82,766.30,1373.35
18700,-3.8735,0.3684,-0.8862,-1257.57,1844.42,1982.67
18710,-3.8735,0.3877,-0.8916,-835.69,-1436.83,-1626.77
18720,-3.8735,0.4116,-0.8806,1633.06,1875.73,1982.60
18730,-3.8735,0.4263,-0.8762,695.56,-717.96,810.73
18740,-3.8737,0.4279,-0.8840,-1429.44,-155.46,-1048.65
18750,-3.8737,0.4221,-0.8940,-1226.32,-1155.46,529.48
18760,-3.8738,0.4141,-0.9010,-1960.69,1563.29,1982.60
18770,-3.8739,0.4044,-0.8999,1008.06,672.67,-517.40
18780,-3.8739,0.3975,-0.8875,-226.32,813.23,982.60
18790,-3.8740,0.3939,-0.8710,-1116.94,-1593.02,-861.15
18800,-3.8740,0.3920,-0.8590,-1570.07,516.36,-1689.21
18810,-3.8740,0.3971,-0.8567,-1820.07,-1952.39,1763.92
18820,-3.8740,0.4094,-0.8605,-1163.82,-1655.52,670.17
18830,-3.8741,0.4169,-0.8619,414.31,1860.17,-1095.46
18840,-3.8741,0.4122,-0.8571,1367.43,1672.67,763.92
18850,-3.8743,0.3955,-0.8479,773.68,-1702.33,-1267.33
18860,-3.8743,0.3756,-0.8458,-1366.94,-530.52,795.17
18870,-3.8744,0.3572,-0.8494,86.18,-264.89,-1017.33
18880,-3.8744,0.3438,-0.8466,1726.81,-718.08,1263.92
18890,-3.8745,0.3455,-0.8430,8.06,-358.70,-564.21
18900,-3.8745,0.3516,-0.8344,226.81,94.42,1388.98
18910,-3.8746,0.3429,-0.8104,1008.06,1203.80,-173.52
18920,-3.8746,0.3229,-0.7833,-101.32,266.24,-814.09
18930,-3.8746,0.3168,-0.7684,1336.18,-265.01,-985.96
18940,-3.8746,0.3342,-0.7672,554.93,1641.24,-1267.15
18950,-3.8746,0.3549,-0.7653,-1210.69,1797.49,-1814.03
18960,-3.8746,0.3595,-0.7527,1429.93,-1952.45,1514.10
18970,-3.8746,0.3395,-0.7261,-1976.32,-343.08,1107.85
18980,-3.8746,0.2958,-0.6884,-538.82,-936.89,-1938.96
18990,-3.8745,0.2451,-0.6553,1867.43,-108.83,1248.60
19000,-3.8744,0.2004,-0.6309,-616.94,125.43,-1907.53
19010,-3.8743,0.1578,-0.6061,1664.31,-749.63,-954.41
19020,-3.8741,0.1150,-0.5818,211.18,-1577.82,-1407.47
19030,-3.8740,0.0752,-0.5626,-1273.19,1531.43,373.84
19040,-3.8740,0.0330,-0.5424,1633.06,-15.50,920.72
19050,-3.8740,-0.0172,-0.5137,226.81,-1421.81,577.03
19060,-3.8741,-0.0709,-0.4839,1804.93,-1734.44,-657.29
19070,-3.8741,-0.1222,-0.4642,-1070.07,-1922.06,1842.77
19080,-3.8741,-0.1682,-0.4437,367.43,593.51,1061.58
19090,-3.8741,-0.2184,-0.4001,-1523.19,-781.62,1827.21
19100,-3.8740,-0.2834,-0.3474,54.93,796.45,764.83
19110,-3.8739,-0.3501,-0.3145,-273.19,-453.74,546.14
19120,-3.8739,-0.4080,-0.2999,-804.44,-235.11,-360.05
19130,-3.8738,-0.4684,-0.2992,-210.69,1624.15,-1891.24
19140,-3.8738,-0.5334,-0.3134,54.93,1717.83,-500.61
19150,-3.8738,-0.5894,-0.3202,-273.19,-94.85,-219.42
19160,-3.8738,-0.6299,-0.2841,570.56,-969.91,-563.17
19170,-3.8738,-0.6569,-0.2015,-616.94,-345.03,-1203.74
19180,-3.8738,-0.7062,-0.1177,-70.07,-1782.59,-1781.68
19190,-3.8738,-0.8038,-0.0925,1617.43,951.72,1781.01
19200,-3.8738,-0.8947,-0.1338,1117.43,170.29,-1828.31
19210,-3.8738,-0.9453,-0.1892,1492.43,-1111.15,-578.43
19220,-3.8737,-1.0189,-0.2222,-991.94,-205.02,718.32
19230,-3.8737,-1.1262,-0.2252,1586.18,-423.89,-625.49
19240,-3.8734,-1.2079,-0.1857,-148.19,-814.76,1327.64
19250,-3.8732,-1.2847,-0.1123,1398.68,247.62,1140.26
19260,-3.8730,-1.3735,-0.0326,-429.44,1638.06,-15.87
19270,-3.8729,-1.4711,0.0148,195.56,-158.94,-640.75
19280,-3.8729,-1.5786,-0.0022,-288.82,1903.32,1843.75
19290,-3.8732,-1.6803,-0.0656,1945.56,-268.74,-187.56
19300,-3.8734,-1.7667,-0.1416,929.93,-378.30,-1968.93
19310,-3.8738,-1.8154,-0.1995,1867.43,1887.15,-1797.18
19320,-3.8741,-1.8375,-0.2195,-366.94,-1519.23,-1109.80
19330,-3.8744,-1.8420,-0.2041,804.93,-81.73,-1656.74
19340,-3.8745,-1.8309,-0.1669,226.81,1887.02,1562.07
19350,-3.8745,-1.8293,-0.1290,1648.68,-1347.35,437.13
19360,-3.8745,-1.8207,-0.1046,1851.81,-503.60,1640.32
19370,-3.8745,-1.7773,-0.1011,-1038.82,-1378.60,-1203.37
19380,-3.8745,-1.7225,-0.1198,508.06,-925.35,-843.99
19390,-3.8745,-1.6750,-0.1448,-476.32,684.08,-812.74
19400,-3.8745,-1.6323,-0.1591,1601.81,1481.08,-1453.43
19410,-3.8745,-1.5825,-0.1566,-929.44,-346.98,1077.76
19420,-3.8746,-1.5266,-0.1486,1445.56,-34.36,-750.37
19430,-3.8746,-1.4818,-0.1451,601.81,997.01,-1703.43
19440,-3.8746,-1.4484,-0.1434,-1663.82,1434.57,-1265.93
19450,-3.8746,-1.4222,-0.1505,-1382.57,1653.38,-547.18
19460,-3.8746,-1.3928,-0.1658,1961.18,747.19,-31.56
19470,-3.8745,-1.3542,-0.1733,1726.81,-1205.87,749.63
19480,-3.8745,-1.3146,-0.1683,-1335.69,1825.44,1702.76
19490,-3.8745,-1.2799,-0.1570,-257.57,-1533.87,-1437.87
19500,-3.8745,-1.2550,-0.1469,179.93,-80.63,-515.99
19510,-3.8744,-1.2351,-0.1436,-632.57,1216.25,609.07
19520,-3.8744,-1.2194,-0.1515,1914.31,1638.18,1952.82
19530,-3.8744,-1.2062,-0.1713,-70.07,622.56,-828.43
19540,-3.8744,-1.1865,-0.1942,1617.43,-1908.63,-125.37
19550,-3.8743,-1.1586,-0.2117,133.06,-846.07,327.70
19560,-3.8743,-1.1211,-0.2178,-288.82,919.56,718.32
19570,-3.8743,-1.0781,-0.2094,508.06,138.43,952.70
19580,-3.8743,-1.0358,-0.1979,-1991.94,1216.61,921.45
19590,-3.8743,-0.9960,-0.1981,-570.07,-1314.58,702.70
19600,-3.8743,-0.9541,-0.2150,523.68,-1345.70,983.95
19610,-3.8743,-0.9095,-0.2489,1883.06,498.11,1468.32
19620,-3.8743,-0.8685,-0.2872,-413.82,154.42,1733.89
19630,-3.8743,-0.8301,-0.3098,836.18,-751.71,-1578.74
19640,-3.8743,-0.7974,-0.3108,1758.06,357.73,-281.86
19650,-3.8741,-0.7681,-0.2957,1945.56,232.79,1749.39
19660,-3.8741,-0.7372,-0.2787,1695.56,-1829.65,-31.86
19670,-3.8740,-0.7115,-0.2668,1648.68,342.29,1655.70
19680,-3.8740,-0.6846,-0.2522,929.93,1857.97,-1984.92
19690,-3.8740,-0.6473,-0.2379,383.06,-266.97,905.70
19700,-3.8741,-0.6034,-0.2278,1148.68,1561.22,-906.74
19710,-3.8741,-0.5583,-0.2123,-1226.32,-1141.85,937.01
19720,-3.8743,-0.5096,-0.1880,539.31,842.65,1999.57
19730,-3.8744,-0.4573,-0.1633,-1226.32,-47.91,-1937.93
19740,-3.8745,-0.4106,-0.1619,1476.81,-891.54,-1734.74
19750,-3.8745,-0.3708,-0.2004,-554.44,-703.98,15.26
19760,-3.8745,-0.3361,-0.2693,539.31,-1641.36,499.57
19770,-3.8745,-0.3013,-0.3472,992.43,1546.20,-1047.42
19780,-3.8744,-0.2640,-0.4160,1445.56,-422.49,1905.52
19790,-3.8743,-0.2311,-0.4647,-1788.82,-1234.92,-1813.35
19800,-3.8740,-0.2080,-0.4838,-1570.07,530.76,186.58
19810,-3.8739,-0.2059,-0.4729,1383.06,-1906.68,-1797.85
19820,-3.8738,-0.2035,-0.4489,1648.68,-516.05,-985.35
19830,-3.8737,-0.1610,-0.4315,1961.18,-1437.93,-110.29
19840,-3.8734,-0.0878,-0.4211,-601.32,780.88,1467.90
19850,-3.8733,-0.0200,-0.4091,773.68,-1890.81,1592.90
19860,-3.8733,0.0282,-0.3959,1445.56,-343.81,-125.85
19870,-3.8732,0.0659,-0.3743,-382.57,1328.12,1921.08
19880,-3.8730,0.0962,-0.3308,445.56,93.87,108.64
19890,-3.8730,0.1194,-0.2650,320.56,1656.43,1108.70
19900,-3.8730,0.1454,-0.1863,-710.69,-1921.69,468.20
19910,-3.8732,0.1881,-0.1127,-1382.57,156.49,-1422.24
19920,-3.8733,0.2543,-0.0787,86.18,1578.49,-656.49
19930,-3.8733,0.3406,-0.0958,554.93,1922.36,812.32
19940,-3.8733,0.4404,-0.1176,-398.19,-265.01,1734.13
19950,-3.8732,0.5427,-0.1006,383.06,953.98,-1797.12
19960,-3.8729,0.6394,-0.0292,1476.81,-873.96,312.26
19970,-3.8728,0.7369,0.0967,1851.81,266.85,-1812.56
19980,-3.8727,0.8304,0.2373,-1663.82,376.40,-1140.44
19990,-3.8726,0.9545,0.3304,-1695.07,-1623.41,-1296.45
20000,-3.8724,1.1162,0.3402,-1820.07,-1701.29,-671.26
20010,-3.8722,1.2322,0.3074,-1116.94,-450.99,1406.86
20020,-3.8721,1.3008,0.3033,1726.81,-653.87,-858.83
20030,-3.8719,1.3505,0.3506,-1491.94,-1169.37,-1702.58
20040,-3.8719,1.3959,0.4244,867.43,877.62,1375.67
20050,-3.8721,1.4486,0.4630,-1320.07,-1669.19,1360.17
20060,-3.8722,1.4883,0.4392,1429.93,-731.57,-1530.40
20070,-3.8722,1.5024,0.3973,-1491.94,221.62,-14.77
20080,-3.8719,1.4828,0.3672,320.56,-1137.70,656.98
20090,-3.8718,1.4421,0.3539,1804.93,-997.13,1672.55
20100,-3.8717,1.4125,0.3579,601.81,1299.68,953.80
20110,-3.8717,1.4078,0.3542,804.93,1815.25,-1343.08
20120,-3.8716,1.4065,0.3158,211.18,1346.50,1235.05
20130,-3.8715,1.3921,0.2568,39.31,424.62,1766.24
20140,-3.8713,1.3689,0.2197,-1804.44,877.69,-546.39
20150,-3.8711,1.3518,0.2228,-773.19,127.62,1031.68
20160,-3.8710,1.3533,0.2476,1039.31,518.25,-1952.70
20170,-3.8708,1.3751,0.2716,1226.81,-309.88,-1358.95
20180,-3.8707,1.4019,0.2925,23.68,-1231.69,-1499.51
20190,-3.8706,1.4340,0.2996,-554.44,1440.19,500.55
20200,-3.8707,1.4758,0.2777,-445.07,-1653.50,-124.45
20210,-3.8707,1.4958,0.2363,914.31,-450.26,766.11
20220,-3.8710,1.4725,0.1985,-523.19,-1747.13,-312.07
20230,-3.8711,1.4249,0.1760,492.43,1409.12,1781.62
20240,-3.8712,1.3728,0.1747,-1601.32,-1466.00,953.43
20250,-3.8713,1.3285,0.1888,-273.19,-1638.00,-1859.07
20260,-3.8713,1.2921,0.2034,-1945.07,174.44,1250.37
20270,-3.8713,1.2516,0.2087,1398.68,-1966.25,1531.62
20280,-3.8713,1.2035,0.1992,211.18,-1278.81,1515.99
20290,-3.8713,1.1521,0.1781,-1945.07,1502.32,406.62
20300,-3.8715,1.1031,0.1539,-523.19,-1200.93,-1890.32
20310,-3.8716,1.0524,0.1335,1211.18,-294.74,-656.01
20320,-3.8716,0.9980,0.1188,-1288.82,1095.76,1015.87
20330,-3.8717,0.9526,0.1128,-241.94,-794.98,-812.32
20340,-3.8717,0.9128,0.1091,1945.56,-1560.67,1406.43
20350,-3.8718,0.8589,0.0839,851.81,1970.52,-359.19
20360,-3.8718,0.7943,0.0432,1945.56,-1263.98,1937.62
20370,-3.8719,0.7310,0.0094,1679.93,1532.78,-749.94
20380,-3.8721,0.6683,-0.0175,1570.56,1204.53,-1328.12
20390,-3.8722,0.6106,-0.0422,1554.93,1766.91,562.44
20400,-3.8724,0.5691,-0.0681,-1835.69,-1405.09,1062.38
20410,-3.8727,0.5391,-0.1000,851.81,-717.65,812.32
20420,-3.8729,0.5056,-0.1401,1008.06,-795.84,1015.38
20430,-3.8732,0.4767,-0.1812,726.81,-1936.52,-1406.56
20440,-3.8733,0.4539,-0.2146,1023.68,813.42,1640.26
20450,-3.8734,0.4207,-0.2379,-1898.19,532.10,1405.82
20460,-3.8735,0.3741,-0.2576,1851.81,1547.67,858.89
20470,-3.8738,0.3220,-0.2761,-101.32,-968.08,-406.80
20480,-3.8739,0.2681,-0.2871,1226.81,656.86,1983.83
20490,-3.8740,0.2183,-0.2878,-1679.44,-749.51,546.26
20500,-3.8741,0.1766,-0.2858,-54.44,-843.38,30.64
20510,-3.8743,0.1407,-0.2971,-1382.57,-577.82,796.26
20520,-3.8744,0.0957,-0.3123,-1976.32,1968.99,-1828.74
20530,-3.8745,0.0297,-0.3207,258.06,31.43,-1125.61
20540,-3.8746,-0.0521,-0.3287,-195.07,-1046.88,-1219.42
20550,-3.8748,-0.1307,-0.3457,1336.18,1937.38,-1094.42
20560,-3.8748,-0.1842,-0.3696,-726.32,-234.68,46.14
20570,-3.8749,-0.2151,-0.3871,429.93,702.76,-1485.11
20580,-3.8749,-0.2490,-0.3953,476.81,-1531.68,1139.83
20590,-3.8750,-0.3029,-0.3993,133.06,1421.39,-860.17
20600,-3.8750,-0.3660,-0.4061,1242.43,905.64,999.21
20610,-3.8439,-0.4264,-0.4121,1164.31,30.52,-1032.04
20620,-3.8439,-0.4757,-0.4135,1429.93,-735.23,1905.40
20630,-3.8439,-0.5057,-0.4144,-882.57,-907.23,1733.52
20640,-3.8439,-0.5239,-0.4182,-726.32,-1032.29,-1907.10
20650,-3.8439,-0.5320,-0.4297,945.56,-1516.66,-1235.23
20660,-3.8439,-0.5479,-0.4500,-85.69,1014.53,-766.48
20670,-3.8439,-0.5896,-0.4773,1883.06,-1579.22,-391.54
20680,-3.8750,-0.6212,-0.4988,539.31,-1079.28,608.40
20690,-3.8750,-0.6250,-0.4937,492.43,170.65,-688.48
20700,-3.8749,-0.6217,-0.4635,8.06,826.90,-735.35
20710,-3.8748,-0.6482,-0.4258,429.93,686.28,-641.54
20720,-3.8746,-0.6864,-0.3951,1039.31,1514.34,-78.98
20730,-3.8744,-0.6921,-0.3638,148.68,1436.16,405.46
20740,-3.8743,-0.7174,-0.3226,-585.69,1451.72,218.02
20750,-3.8743,-0.7949,-0.2905,179.93,-1282.65,-219.42
20760,-3.8741,-0.8955,-0.2855,-1741.94,-1173.46,1796.26
20770,-3.8741,-0.9932,-0.2992,1383.06,-533.02,-1500.61
20780,-3.8741,-1.0732,-0.3103,883.06,1716.80,-141.24
20790,-3.8740,-1.1194,-0.3103,-1366.94,294.74,1905.64
20800,-3.8740,-1.1420,-0.2935,726.81,294.68,-172.49
20810,-3.8739,-1.1638,-0.2520,1836.18,-1549.13,1890.01
20820,-3.8739,-1.1929,-0.2025,-960.69,-236.69,-359.92
20830,-3.8739,-1.2332,-0.1675,-679.44,-1908.63,-1047.30
20840,-3.8740,-1.2502,-0.1593,-1835.69,-1424.32,-1047.24
20850,-3.8741,-1.2440,-0.1785,-23.19,-377.50,1249.63
20860,-3.8744,-1.2375,-0.2120,773.68,1169.43,-375.37
20870,-3.8745,-1.2350,-0.2424,1601.81,872.56,-1422.30
20880,-3.8746,-1.2501,-0.2632,1929.93,981.93,-1750.49
20890,-3.8748,-1.2808,-0.2782,-7.57,-1674.38,-953.67
20900,-3.8748,-1.3268,-0.2847,70.56,403.75,1546.33
20910,-3.8748,-1.3831,-0.2915,-1820.07,-424.50,1171.26
20920,-3.8748,-1.4418,-0.3145,-1023.19,-1299.62,515.01
20930,-3.8749,-1.4960,-0.3419,-538.82,-237.24,-1219.42
20940,-3.8750,-1.5394,-0.3607,523.68,247.07,-78.80
20950,-3.8750,-1.5880,-0.3804,-1038.82,1840.70,1014.89
20960,-3.8439,-1.6362,-0.4043,742.43,-674.99,-313.29
20970,-3.8750,-1.6632,-0.4197,-1429.44,262.39,561.71
20980,-3.8750,-1.6652,-0.4175,-882.57,-1706.42,-1094.60
20990,-3.8749,-1.6561,-0.3977,-1132.57,-1425.17,1967.90
21000,-3.8748,-1.6453,-0.3651,23.68,1106.14,952.33
21010,-3.8748,-1.6229,-0.3347,1414.31,1278.02,-1766.36
21020,-3.8748,-1.5831,-0.3209,273.68,1168.70,1421.20
21030,-3.8749,-1.5356,-0.3236,1367.43,-1065.61,-547.55
21040,-3.8749,-1.4875,-0.3336,-554.44,-1409.30,1280.58
21050,-3.8750,-1.4352,-0.3420,1601.81,1309.57,-328.80
21060,-3.8750,-1.3761,-0.3381,304.93,231.57,-625.67
21070,-3.8749,-1.3174,-0.3152,-132.57,731.63,655.58
21080,-3.8749,-1.2632,-0.2823,-616.94,-330.75,-1188.17
21090,-3.8748,-1.2192,-0.2594,-1679.44,-127.50,905.64
21100,-3.8748,-1.1918,-0.2600,-54.44,-1189.94,1499.45
21110,-3.8749,-1.1722,-0.2902,-538.82,-1268.01,-406.80
21120,-3.8749,-1.1484,-0.3406,1961.18,-1127.32,530.64
21130,-3.8750,-1.1127,-0.3813,1008.06,419.62,-1485.05
21140,-3.8750,-1.0685,-0.3900,1586.18,-799.07,-1797.67
21150,-3.8750,-1.0349,-0.3729,-757.57,-1908.39,-1110.17
21160,-3.8749,-1.0237,-0.3507,-460.69,279.17,77.39
21170,-3.8749,-1.0228,-0.3407,976.81,-877.01,1561.77
21180,-3.8749,-1.0142,-0.3508,1086.18,404.24,-1047.55
21190,-3.8748,-0.9960,-0.3723,-1804.44,-892.64,218.02
21200,-3.8748,-0.9797,-0.3899,523.68,357.42,1514.89
21210,-3.8748,-0.9707,-0.4023,-1398.19,-1892.58,-1766.42
21220,-3.8748,-0.9630,-0.4150,-241.94,513.67,-1719.54
21230,-3.8748,-0.9480,-0.4250,742.43,-1111.27,-1594.60
21240,-3.8748,-0.9302,-0.4238,-1335.69,1607.48,-1360.23
21250,-3.8748,-0.9111,-0.4167,945.56,1763.79,-1172.73
21260,-3.8748,-0.8838,-0.4172,-616.94,-1329.96,-797.73
21270,-3.8748,-0.8407,-0.4243,-1116.94,-1392.40,-78.98
21280,-3.8746,-0.7828,-0.4323,398.68,1701.48,858.52
21290,-3.8746,-0.7307,-0.4406,-195.07,685.91,1546.02
21300,-3.8746,-0.6960,-0.4458,-1523.19,-376.46,-1782.17
21310,-3.8746,-0.6718,-0.4423,-1085.69,-1048.28,-579.04
21320,-3.8745,-0.6442,-0.4265,-1976.32,-595.09,1124.08
21330,-3.8745,-0.5991,-0.4025,1554.93,1420.59,-1266.48
21340,-3.8745,-0.5354,-0.3832,-679.44,498.78,-188.29
21350,-3.8744,-0.4603,-0.3762,-523.19,-1032.35,811.71
21360,-3.8744,-0.3889,-0.3810,1086.18,-141.54,1921.08
21370,-3.8744,-0.3373,-0.3944,-1773.19,-750.79,-875.79
21380,-3.8743,-0.3040,-0.4087,836.18,1530.58,374.21
21390,-3.8743,-0.2808,-0.4150,1101.81,-297.49,1936.65
21400,-3.8743,-0.2673,-0.4075,70.56,-1109.92,-157.10
21410,-3.8741,-0.2607,-0.3833,1789.31,-141.17,1686.65
21420,-3.8741,-0.2440,-0.3474,-1366.94,-1047.42,-938.29
21430,-3.8741,-0.2056,-0.3074,773.68,-453.61,-63.23
21440,-3.8740,-0.1556,-0.2673,1695.56,671.45,874.39
21450,-3.8740,-0.1141,-0.2297,86.18,1796.57,-1672.42
21460,-3.8739,-0.0858,-0.2015,1398.68,-1390.87,624.51
21470,-3.8739,-0.0598,-0.1764,1023.68,-1781.43,-62.93
21480,-3.8738,-0.0212,-0.1348,351.81,1437.38,-687.87
21490,-3.8737,0.0364,-0.0636,1289.31,-1234.44,1499.69
21500,-3.8737,0.1133,0.0374,664.31,-140.56,-1672.06
21510,-3.8737,0.2185,0.1433,-1491.94,781.43,-1859.31
21520,-3.8737,0.3436,0.2395,-23.19,-1655.88,1062.74
21530,-3.8738,0.4863,0.3326,-7.57,-1343.14,-202.70
21540,-3.8737,0.6469,0.4167,-1741.94,-1420.96,141.24
21550,-3.8737,0.7971,0.4735,-1195.07,1344.97,-1436.71
21560,-3.8735,0.9207,0.4995,-1960.69,610.90,-1999.08
21570,-3.8734,1.0543,0.5106,1851.81,-60.73,1172.79
21580,-3.8733,1.1959,0.5260,-1038.82,1361.39,500.98
21590,-3.8733,1.2810,0.5482,1086.18,-669.56,-280.27
21600,-3.8732,1.3102,0.5577,-23.19,-1825.68,-1358.34
21610,-3.8730,1.3199,0.5366,-288.82,-606.87,-1452.09
21620,-3.8729,1.3149,0.4948,961.18,690.06,-1233.34
21630,-3.8728,1.2791,0.4604,320.56,-669.31,-1936.58
21640,-3.8727,1.2284,0.4381,-273.19,-1060.06,500.85
21650,-3.8727,1.1948,0.4266,1242.43,80.51,-1421.02
21660,-3.8726,1.1803,0.4286,945.56,-1388.31,203.92
21670,-3.8726,1.1886,0.4375,-913.82,-1138.37,875.79
21680,-3.8726,1.2242,0.4474,148.68,2.32,969.60
21690,-3.8726,1.2744,0.4503,711.18,1268.01,-921.02
21700,-3.8723,1.3292,0.4517,-866.94,1643.07,1110.23
21710,-3.8721,1.3773,0.4652,-1851.32,1815.06,-1889.77
21720,-3.8717,1.4042,0.5027,304.93,-450.44,453.98
21730,-3.8715,1.4233,0.5621,-257.57,346.44,-155.27
21740,-3.8711,1.4659,0.6293,-1804.44,-44.13,-514.59
21750,-3.8707,1.5492,0.6896,-351.32,549.68,954.35
21760,-3.8706,1.6708,0.7357,-1695.07,268.62,-1123.66
21770,-3.8705,1.8101,0.7594,1867.43,-1824.89,1126.40
21780,-3.8706,1.9192,0.7610,-304.44,1206.60,-311.04
21790,-3.8707,1.9454,0.7412,1664.31,1409.97,-732.91
21800,-3.8708,1.9044,0.6968,1023.68,-1121.22,954.53
21810,-3.8711,1.8333,0.6429,-226.32,1191.16,-1779.91
21820,-3.8712,1.7201,0.6023,-1335.69,-1699.58,1126.22
21830,-3.8713,1.5667,0.5801,179.93,1097.11,-1764.47
21840,-3.8713,1.4115,0.5659,539.31,-1746.95,141.72
21850,-3.8715,1.2883,0.5521,679.93,440.25,1985.47
21860,-3.8716,1.1940,0.5247,914.31,-1325.62,-827.09
21870,-3.8717,1.1204,0.4769,836.18,-841.43,-749.02
21880,-3.8718,1.0668,0.4277,-585.69,1049.01,-889.71
21890,-3.8719,1.0214,0.3912,554.93,-1247.92,-1280.46
21900,-3.8721,0.9844,0.3684,-1257.57,-1919.92,1688.23
21910,-3.8723,0.9485,0.3435,-1991.94,-841.86,-14.95
21920,-3.8724,0.9116,0.3070,1414.31,-29.42,1656.86
21930,-3.8727,0.8907,0.2737,695.56,-701.35,-561.95
21940,-3.8728,0.8628,0.2350,-1976.32,-967.04,1641.11
21950,-3.8729,0.8038,0.1847,-1554.44,-1920.23,109.80
21960,-3.8732,0.7372,0.1395,-1101.32,-357.85,-1421.57
21970,-3.8733,0.6893,0.1116,-1632.57,1860.78,812.74
21980,-3.8735,0.6443,0.0906,242.43,-1717.41,-1171.69
21990,-3.8737,0.5806,0.0599,-1523.19,-405.03,625.12
22000,-3.8739,0.5121,0.0164,-1679.44,-327.03,-1328.06
22010,-3.8740,0.4501,-0.0352,1554.93,-1905.27,1484.38
22020,-3.8741,0.3981,-0.0941,1617.43,-499.15,1046.75
22030,-3.8743,0.3601,-0.1604,-1038.82,-46.14,1421.63
22040,-3.8744,0.3379,-0.2169,-1898.19,-530.58,1843.38
22050,-3.8745,0.3298,-0.2574,-741.94,234.99,1655.82
22060,-3.8746,0.3190,-0.2906,-1773.19,-952.51,1811.95
22070,-3.8748,0.2872,-0.3115,836.18,-1202.51,-406.86
22080,-3.8748,0.2347,-0.3186,773.68,125.55,-47.49
22090,-3.8746,0.1725,-0.3246,-1945.07,-780.82,-1906.92
22100,-3.8745,0.1196,-0.3391,-1913.82,-1546.57,702.45
22110,-3.8745,0.0885,-0.3654,-679.44,593.93,-891.30
22120,-3.8744,0.0654,-0.4047,-663.82,1234.50,1264.89
22130,-3.8744,0.0332,-0.4463,383.06,203.25,-391.42
22140,-3.8743,-0.0055,-0.4774,258.06,-1124.94,-1672.79
22150,-3.8741,-0.0428,-0.4956,-695.07,-1093.81,1202.15
22160,-3.8741,-0.0739,-0.5066,-1476.32,578.00,-766.60
22170,-3.8740,-0.1000,-0.5105,-1445.07,-828.31,1061.46
22180,-3.8739,-0.1284,-0.5002,-788.82,-1328.37,342.71
22190,-3.8738,-0.1594,-0.4884,-429.44,-15.93,498.96
22200,-3.8738,-0.1907,-0.4951,-398.19,1499.63,-250.98
22210,-3.8737,-0.2200,-0.5172,-398.19,640.20,561.52
22220,-3.8738,-0.2518,-0.5309,-148.19,1812.01,-844.79
22230,-3.8738,-0.2902,-0.5259,-226.32,61.95,1389.59
22240,-3.8738,-0.3319,-0.5181,-1132.57,702.51,264.59
22250,-3.8739,-0.3700,-0.5333,1523.68,1702.45,-719.79
22260,-3.8739,-0.3898,-0.5647,648.68,-250.73,1498.90
22270,-3.8740,-0.3862,-0.5730,-1882.57,-266.42,-1219.91
22280,-3.8741,-0.3840,-0.5413,-1429.44,-1328.92,-532.41
22290,-3.8741,-0.4081,-0.4852,-1148.19,-1266.42,45.78
22300,-3.8743,-0.4581,-0.4364,-226.32,1905.40,1077.15
22310,-3.8744,-0.5178,-0.4171,1367.43,155.33,-1313.35
22320,-3.8744,-0.5754,-0.4240,1726.81,-1376.04,483.52
22330,-3.8745,-0.6339,-0.4375,-1648.19,1748.84,-1313.35
22340,-3.8745,-0.6897,-0.4354,-1132.57,14.34,1342.90
22350,-3.8745,-0.7733,-0.3984,-273.19,279.85,514.77
22360,-3.8745,-0.8828,-0.3384,1023.68,1014.10,358.58
22370,-3.8746,-0.9661,-0.2980,-991.94,701.35,-500.67
22380,-3.8746,-1.0366,-0.2803,351.81,1873.11,-1828.74
22390,-3.8746,-1.1564,-0.2604,-679.44,138.55,421.33
22400,-3.8748,-1.3348,-0.2452,-7.57,-1314.82,796.33
22410,-3.8749,-1.5364,-0.2729,1148.68,622.38,265.14
22420,-3.8750,-1.7319,-0.3378,-648.19,1075.07,46.33
22430,-3.8439,-1.8450,-0.3739,-1679.44,777.83,436.83
22440,-3.8441,-1.8450,-0.3959,-148.19,152.59,-1125.73
22450,-3.8444,-1.7886,-0.4373,-148.19,1340.09,-1563.29
22460,-3.8446,-1.7175,-0.4731,-929.44,43.33,1405.40
22470,-3.8448,-1.6382,-0.4917,164.31,-550.23,608.40
22480,-3.8451,-1.5518,-0.4938,-1679.44,1074.89,1530.27
22490,-3.8452,-1.4852,-0.4847,1383.06,809.45,1608.40
22500,-3.8452,-1.4452,-0.4717,1898.68,1965.82,1030.27
22510,-3.8452,-1.4238,-0.4647,-976.32,-362.24,-1235.35
22520,-3.8451,-1.4222,-0.4674,1758.06,528.44,1483.46
22530,-3.8451,-1.4355,-0.4774,1961.18,184.69,-422.79
22540,-3.8450,-1.4519,-0.4880,258.06,-1096.56,420.90
22550,-3.8450,-1.4648,-0.4923,-1835.69,1544.01,1295.90
22560,-3.8450,-1.4832,-0.4950,508.06,997.13,-1250.98
22570,-3.8448,-1.4937,-0.4980,-1835.69,653.32,249.02
22580,-3.8448,-1.4829,-0.4971,820.56,262.70,905.27
22590,-3.8448,-1.4628,-0.4858,-1804.44,387.70,655.27
22600,-3.8448,-1.4443,-0.4618,773.68,1825.26,92.77
22610,-3.8448,-1.4296,-0.4276,-866.94,903.38,45.96
22620,-3.8448,-1.4071,-0.3954,1023.68,1278.44,1217.90
22630,-3.8448,-1.3671,-0.3795,-101.32,1403.44,-1000.79
22640,-3.8447,-1.3135,-0.3793,1023.68,-565.19,452.33
22650,-3.8447,-1.2559,-0.3890,-116.94,-533.87,1421.08
22660,-3.8447,-1.2039,-0.3984,-741.94,-1783.75,-1344.54
22670,-3.8446,-1.1600,-0.3921,1914.31,1013.24,780.46
22680,-3.8446,-1.1255,-0.3724,-476.32,1825.81,-547.67
22690,-3.8445,-1.0963,-0.3583,-54.44,341.49,-1625.73
22700,-3.8444,-1.0647,-0.3578,-320.07,-1845.95,1639.89
22710,-3.8442,-1.0350,-0.3630,-273.19,-1783.39,1155.52
22720,-3.8441,-1.0072,-0.3667,-476.32,1544.80,1061.77
22730,-3.8440,-0.9735,-0.3733,-913.82,1076.11,764.89
22740,-3.8439,-0.9297,-0.3790,-601.32,232.42,108.64
22750,-3.8439,-0.8733,-0.3751,1008.06,-501.83,-360.17
22760,-3.8750,-0.8053,-0.3674,226.81,-1.71,-282.04
22770,-3.8748,-0.7393,-0.3617,929.93,982.79,171.14
22780,-3.8746,-0.6796,-0.3547,1383.06,1717.29,249.27
22790,-3.8746,-0.6168,-0.3435,1023.68,-1391.97,-656.98
