timestamp_ms,ax,ay,az,gx,gy,gz
0,-3.8710,-0.1395,-0.3995,-1429.44,687.19,-1188.29
10,-3.8710,-0.1371,-0.3672,-1851.32,874.69,1217.96
20,-3.8711,-0.1230,-0.3174,-1538.82,1015.32,1749.27
30,-3.8712,-0.0973,-0.2769,258.06,-609.62,1202.45
40,-3.8713,-0.0662,-0.2585,-445.07,577.88,46.33
50,-3.8716,-0.0367,-0.2545,-460.69,-1078.31,-1156.80
60,-3.8717,-0.0165,-0.2552,-695.07,-562.62,-1750.55
70,-3.8718,-0.0066,-0.2550,1898.68,-656.31,-953.67
80,-3.8718,-0.0033,-0.2469,-835.69,-625.06,1686.95
90,-3.8718,-0.0044,-0.2338,-413.82,406.19,1249.51
100,-3.8718,-0.0081,-0.2310,-554.44,-1906.31,30.76
110,-3.8719,-0.0134,-0.2489,-1023.19,-1546.94,1593.26
120,-3.8721,-0.0178,-0.2819,-1710.69,156.19,-1250.49
130,-3.8721,-0.0210,-0.3192,1726.81,-62.56,218.14
140,-3.8722,-0.0254,-0.3528,1320.56,-843.81,-1219.42
150,-3.8722,-0.0270,-0.3776,758.06,-1140.69,-1438.23
160,-3.8722,-0.0166,-0.3967,554.93,-312.56,-1391.42
170,-3.8722,0.0087,-0.4172,1883.06,1234.31,-1625.79
180,-3.8722,0.0400,-0.4424,1117.43,-1406.25,-1344.60
190,-3.8721,0.0715,-0.4653,1133.06,-624.94,655.33
200,-3.8721,0.1071,-0.4772,1164.31,437.62,-375.92
210,-3.8719,0.1406,-0.4803,1711.18,-1077.94,1436.52
220,-3.8719,0.1632,-0.4811,-1991.94,-1484.13,295.90
230,-3.8721,0.1852,-0.4816,898.68,-1577.82,999.02
240,-3.8722,0.2191,-0.4884,-288.82,-1640.32,1624.02
250,-3.8722,0.2704,-0.5066,54.93,1484.80,30.27
260,-3.8722,0.3380,-0.5398,-1382.57,-843.26,1123.96
270,-3.8721,0.4116,-0.5894,-726.32,-1093.14,530.15
280,-3.8719,0.4829,-0.6362,695.56,563.29,-1969.91
290,-3.8717,0.5446,-0.6553,1820.56,-1436.58,295.59
300,-3.8716,0.5839,-0.6442,1711.18,126.04,-1876.28
310,-3.8715,0.5990,-0.6166,-1257.57,1547.97,-548.16
320,-3.8713,0.6055,-0.5886,679.93,1079.28,-626.22
330,-3.8712,0.6151,-0.5659,1508.06,657.41,811.34
340,-3.8713,0.6262,-0.5442,-1257.57,-436.34,-454.28
350,-3.8713,0.6322,-0.5193,164.31,-1655.03,248.90
360,-3.8715,0.6302,-0.4983,929.93,1532.47,1092.71
370,-3.8715,0.6218,-0.4978,679.93,219.97,61.52
380,-3.8715,0.6117,-0.5134,-398.19,282.41,1092.77
390,-3.8715,0.6028,-0.5229,-1695.07,-1717.59,-1813.54
400,-3.8715,0.5841,-0.5127,1164.31,1063.66,1139.59
410,-3.8716,0.5487,-0.4907,-1226.32,-1623.90,1967.71
420,-3.8717,0.4962,-0.4845,-1757.57,1188.54,1233.40
430,-3.8718,0.4214,-0.5066,-476.32,1985.29,561.52
440,-3.8719,0.3289,-0.5322,1945.56,-842.96,-1657.29
450,-3.8719,0.2462,-0.5377,-1898.19,-124.39,-1657.35
460,-3.8719,0.2083,-0.5381,-476.32,-827.70,1373.90
470,-3.8721,0.2228,-0.5475,-1335.69,-874.63,-1126.10
480,-3.8721,0.2716,-0.5592,523.68,1922.30,-1563.60
490,-3.8719,0.3459,-0.5809,-1226.32,422.36,-969.85
500,-3.8716,0.4564,-0.6093,289.31,1641.30,936.34
510,-3.8712,0.6052,-0.6129,-1570.07,-1983.52,1561.28
520,-3.8708,0.7728,-0.5814,1476.81,1548.03,1498.78
530,-3.8706,0.9298,-0.5255,-1070.07,1579.59,1358.22
540,-3.8706,1.0359,-0.4547,-976.32,736.15,-1266.66
550,-3.8707,1.0605,-0.3833,601.81,1798.89,-735.29
560,-3.8708,1.0070,-0.3348,-241.94,-1060.49,-1610.17
570,-3.8710,0.8976,-0.3354,898.68,1142.58,-1953.80
580,-3.8711,0.7546,-0.3829,-1101.32,1064.21,-391.30
590,-3.8711,0.5959,-0.4484,601.81,-1014.16,-188.29
600,-3.8710,0.4381,-0.5118,289.31,-1389.47,1545.96
610,-3.8710,0.2938,-0.5693,86.18,-1514.77,-454.16
620,-3.8708,0.1694,-0.6171,1617.43,-874.45,1389.47
630,-3.8708,0.0709,-0.6501,1695.56,1015.93,-563.72
640,-3.8707,0.0049,-0.6704,1086.18,781.37,1326.84
650,-3.8707,-0.0321,-0.6805,633.06,-1812.50,1529.91
660,-3.8708,-0.0483,-0.6781,-101.32,906.13,-595.09
670,-3.8708,-0.0394,-0.6606,1820.56,1218.63,29.91
680,-3.8710,0.0077,-0.6340,-1038.82,-547.00,1467.41
690,-3.8710,0.0906,-0.6122,992.43,-1156.25,904.97
700,-3.8710,0.1919,-0.6041,-398.19,1640.75,-1344.97
710,-3.8708,0.3051,-0.6021,570.56,-1327.76,-1657.47
720,-3.8707,0.4224,-0.5924,-945.07,-1061.95,-1798.10
730,-3.8706,0.5320,-0.5693,-1929.44,172.67,576.97
740,-3.8706,0.6317,-0.5356,101.81,-873.96,561.34
750,-3.8707,0.7190,-0.5038,867.43,-561.28,1577.03
760,-3.8708,0.7888,-0.4825,39.31,-482.97,389.59
770,-3.8711,0.8336,-0.4742,976.81,-1764.10,-1282.23
780,-3.8712,0.8466,-0.4817,-1288.82,-701.54,-1641.60
790,-3.8712,0.8293,-0.5023,367.43,-1654.60,374.02
800,-3.8712,0.7894,-0.5293,-1835.69,-295.29,420.84
810,-3.8712,0.7369,-0.5553,1054.93,251.53,1155.21
820,-3.8712,0.6863,-0.5768,-1663.82,923.28,1420.78
830,-3.8712,0.6504,-0.5909,-148.19,-1826.84,561.34
840,-3.8713,0.6356,-0.5944,-741.94,360.60,-1173.03
850,-3.8713,0.6447,-0.5869,1367.43,-76.90,670.65
860,-3.8715,0.6687,-0.5662,-1476.32,876.22,-1938.66
870,-3.8716,0.6888,-0.5326,1601.81,-467.47,-751.16
880,-3.8716,0.6947,-0.4979,179.93,-170.53,530.15
890,-3.8717,0.6835,-0.4740,929.93,266.97,1811.52
900,-3.8718,0.6555,-0.4629,-507.57,-670.59,-672.85
910,-3.8718,0.6184,-0.4574,-85.69,751.22,1280.33
920,-3.8719,0.5811,-0.4474,-835.69,1454.28,-844.67
930,-3.8719,0.5549,-0.4302,-1616.94,-1264.53,499.08
940,-3.8721,0.5520,-0.4144,-960.69,938.54,1546.02
950,-3.8722,0.5704,-0.4060,-1335.69,-1045.84,-1203.98
960,-3.8722,0.5916,-0.3948,1023.68,32.35,936.71
970,-3.8722,0.5933,-0.3683,-273.19,1469.85,217.96
980,-3.8722,0.5713,-0.3296,-54.44,860.47,46.14
990,-3.8722,0.5424,-0.2916,1133.06,1813.60,171.20
1000,-3.8722,0.5221,-0.2668,1429.93,-1327.09,1311.89
1010,-3.8722,0.5023,-0.2563,-1163.82,1844.73,-469.30
1020,-3.8721,0.4644,-0.2517,304.93,-811.52,1155.70
1030,-3.8721,0.4155,-0.2471,-554.44,-217.90,577.58
1040,-3.8722,0.3802,-0.2463,1195.56,375.79,-1766.11
1050,-3.8723,0.3679,-0.2616,679.93,469.48,-375.49
1060,-3.8723,0.3668,-0.2906,-898.19,-1483.70,1499.45
1070,-3.8723,0.3594,-0.3085,-1038.82,-1202.45,608.76
1080,-3.8723,0.3419,-0.3020,-1991.94,516.30,1296.26
1090,-3.8723,0.3228,-0.2881,-226.32,1344.36,-1219.36
1100,-3.8722,0.3115,-0.2867,1320.56,-874.39,702.51
1110,-3.8722,0.3167,-0.3003,-116.94,-702.58,-1047.49
1120,-3.8721,0.3342,-0.3118,539.31,1563.11,1296.26
1130,-3.8721,0.3445,-0.3021,-1210.69,94.36,-375.61
1140,-3.8719,0.3318,-0.2791,101.81,1328.80,1327.51
1150,-3.8719,0.2946,-0.2662,-1523.19,281.86,1858.83
1160,-3.8719,0.2384,-0.2690,1711.18,1922.42,858.83
1170,-3.8721,0.1770,-0.2776,-1476.32,1562.93,-1391.17
1180,-3.8722,0.1279,-0.2883,-1335.69,469.06,-188.05
1190,-3.8722,0.1086,-0.3085,383.06,-906.01,1890.01
1200,-3.8722,0.1261,-0.3390,1914.31,515.81,-203.74
1210,-3.8719,0.1649,-0.3618,148.68,609.62,-1094.42
1220,-3.8716,0.1985,-0.3563,1117.43,1687.81,858.64
1230,-3.8713,0.2061,-0.3258,1414.31,-1609.01,1421.14
1240,-3.8712,0.1908,-0.2980,-1616.94,-1702.76,1968.08
1250,-3.8712,0.1718,-0.2743,429.93,1859.74,-1094.36
1260,-3.8712,0.1602,-0.2362,1992.43,890.93,1546.33
1270,-3.8713,0.1577,-0.1902,508.06,1765.93,-719.24
1280,-3.8713,0.1638,-0.1495,195.56,-343.44,-1641.05
1290,-3.8713,0.1808,-0.1241,976.81,859.68,-562.81
1300,-3.8712,0.2079,-0.1134,-851.32,109.68,1702.88
1310,-3.8711,0.2383,-0.1019,-1382.57,1484.74,577.88
1320,-3.8711,0.2672,-0.0834,-1491.94,-1046.45,-1109.62
1330,-3.8711,0.2888,-0.0656,-1788.82,1328.61,-797.06
1340,-3.8711,0.2892,-0.0535,976.81,-390.08,718.57
1350,-3.8712,0.2626,-0.0474,1023.68,1156.80,93.63
1360,-3.8715,0.2197,-0.0435,1617.43,1937.99,-500.12
1370,-3.8715,0.1810,-0.0454,133.06,-1562.07,796.75
1380,-3.8715,0.1649,-0.0543,-820.07,-1812.19,1468.63
1390,-3.8713,0.1816,-0.0579,1117.43,1047.18,-1781.37
1400,-3.8711,0.2170,-0.0568,-741.94,594.06,734.25
1410,-3.8710,0.2380,-0.0500,-210.69,734.74,1656.13
1420,-3.8710,0.2341,-0.0267,-1523.19,1594.18,-343.87
1430,-3.8710,0.2135,0.0088,1976.81,578.55,-1718.81
1440,-3.8711,0.1809,0.0459,-663.82,1125.37,-1937.50
1450,-3.8712,0.1448,0.0752,-835.69,1875.31,1453.19
1460,-3.8713,0.1071,0.0872,-1460.69,1625.24,-1578.00
1470,-3.8713,0.0610,0.0857,1711.18,-843.57,1875.12
1480,-3.8712,0.0063,0.0840,-179.44,-1031.19,62.62
1490,-3.8711,-0.0432,0.0854,820.56,-1250.00,125.12
1500,-3.8710,-0.0725,0.0834,-1523.19,-1047.00,1000.12
1510,-3.8708,-0.1082,0.0693,-1273.19,-1312.68,1843.87
1520,-3.8707,-0.2281,-0.0088,-1835.69,890.38,-1656.13
1530,-3.8705,-0.3068,-0.0699,-1195.07,-1109.86,1312.44
1540,-3.8701,-0.2640,-0.0363,742.43,-938.11,906.07
1550,-3.8699,-0.2170,-0.0023,-1788.82,-625.55,515.50
1560,-3.8700,-0.1805,0.0193,226.81,-281.68,-1703.19
1570,-3.8702,-0.1449,0.0596,898.68,-1515.99,-1312.50
1580,-3.8705,-0.1173,0.0902,1461.18,-359.68,-1203.06
1590,-3.8706,-0.1063,0.0905,992.43,-437.74,1906.37
1600,-3.8706,-0.1016,0.0906,-1601.32,-406.49,531.37
1610,-3.8706,-0.0928,0.1134,-991.94,-390.87,906.37
1620,-3.8706,-0.0796,0.1451,133.06,-1468.93,109.56
1630,-3.8707,-0.0612,0.1665,1820.56,-1406.43,-1999.76
1640,-3.8707,-0.0408,0.1675,179.93,1328.00,562.81
1650,-3.8707,-0.0181,0.1506,-1210.69,1453.00,1312.81
1660,-3.8706,0.0128,0.1338,1695.56,-703.19,15.87
1670,-3.8706,0.0529,0.1246,1648.68,1125.00,-1452.88
1680,-3.8706,0.0939,0.1171,-1226.32,-46.81,-952.94
1690,-3.8706,0.1259,0.1116,23.68,-1015.44,1156.43
1700,-3.8707,0.1301,0.1058,117.43,-1718.51,-1937.32
1710,-3.8708,0.0781,0.0938,664.31,1547.12,-906.07
1720,-3.8708,0.0027,0.0890,-1991.94,0.12,1484.56
1730,-3.8708,-0.0135,0.1121,351.81,-609.38,-1734.25
1740,-3.8708,0.0187,0.1370,-1726.32,-1640.69,-624.82
1750,-3.8708,0.0397,0.1401,-1601.32,1531.25,1578.37
1760,-3.8710,0.0435,0.1385,1086.18,1937.56,-1609.13
1770,-3.8710,0.0369,0.1392,1570.56,1734.44,906.49
1780,-3.8710,0.0151,0.1333,726.81,1812.56,1468.99
1790,-3.8710,-0.0203,0.1150,1945.56,1062.50,-421.63
1800,-3.8708,-0.0559,0.0892,1414.31,-1265.69,-1859.19
1810,-3.8708,-0.0872,0.0662,851.81,-562.62,-234.25
1820,-3.8707,-0.1183,0.0513,851.81,484.19,265.75
1830,-3.8707,-0.1465,0.0416,867.43,-1422.12,312.56
1840,-3.8707,-0.1685,0.0355,1258.06,1343.44,187.56
1850,-3.8708,-0.1840,0.0347,-1554.44,562.13,-390.56
1860,-3.8708,-0.1888,0.0316,461.18,452.76,-1437.44
1870,-3.8708,-0.1809,0.0212,-163.82,62.07,1234.44
1880,-3.8708,-0.1687,0.0133,851.81,-1265.99,46.88
1890,-3.8710,-0.1628,0.0168,-1585.69,1718.38,-562.50
1900,-3.8710,-0.1643,0.0250,-835.69,-1828.49,-1125.00
1910,-3.8710,-0.1677,0.0275,-1023.19,-781.62,1468.75
1920,-3.8711,-0.1718,0.0264,-1460.69,-469.12,-828.12
1930,-3.8711,-0.1772,0.0277,-1976.32,-609.74,781.25
1940,-3.8712,-0.1825,0.0311,1320.56,-437.87,-1250.00
1950,-3.8712,-0.1842,0.0311,648.68,-0.37,984.38
1960,-3.8713,-0.1833,0.0153,429.93,-0.37,-375.00
1970,-3.8712,-0.1836,-0.0215,539.31,1968.38,15.62
1980,-3.8712,-0.1866,-0.0602,508.06,1265.26,-140.69
1990,-3.8710,-0.1914,-0.0773,117.43,312.13,-1797.00
2000,-3.8708,-0.1958,-0.0706,-491.94,-1875.43,-1109.56
2010,-3.8708,-0.1989,-0.0533,-1054.44,-1016.05,-1250.18
2020,-3.8710,-0.1990,-0.0372,-1445.07,1187.07,-1281.37
2030,-3.8711,-0.1918,-0.0269,-1460.69,-750.43,1609.25
2040,-3.8712,-0.1776,-0.0219,-538.82,577.70,1234.31
2050,-3.8713,-0.1646,-0.0239,1273.68,1218.38,-1984.44
2060,-3.8713,-0.1522,-0.0421,-1054.44,952.76,374.94
2070,-3.8713,-0.1337,-0.0824,523.68,-1375.31,1468.63
2080,-3.8712,-0.1145,-0.1278,-1101.32,1468.44,1218.57
2090,-3.8711,-0.1017,-0.1498,1351.81,-343.99,1077.82
2100,-3.8711,-0.0952,-0.1421,-1007.57,843.51,1905.94
2110,-3.8712,-0.0927,-0.1165,-179.44,1827.88,-922.18
2120,-3.8713,-0.0844,-0.0826,148.68,1109.19,-1234.62
2130,-3.8715,-0.0691,-0.0542,1211.18,1437.32,-1312.68
2140,-3.8716,-0.0514,-0.0470,-835.69,1077.94,-703.25
2150,-3.8716,-0.0306,-0.0607,1429.93,1999.88,109.25
2160,-3.8717,-0.0140,-0.0837,86.18,249.94,515.50
2170,-3.8718,-0.0128,-0.1118,-1788.82,1296.81,1656.07
2180,-3.8718,-0.0261,-0.1443,-1632.57,1703.06,1249.76
2190,-3.8718,-0.0480,-0.1786,664.31,1546.81,-640.93
2200,-3.8717,-0.0731,-0.2076,1867.43,1156.13,-1844.12
2210,-3.8717,-0.0918,-0.2264,-1351.32,1437.32,-141.05
2220,-3.8717,-0.0913,-0.2356,258.06,-968.93,-250.49
2230,-3.8717,-0.0671,-0.2375,320.56,1859.19,1124.51
2240,-3.8718,-0.0311,-0.2372,-585.69,1609.19,46.39
2250,-3.8721,-0.0038,-0.2433,23.68,1656.19,-1234.86
2260,-3.8722,0.0040,-0.2648,-476.32,874.94,-531.74
2270,-3.8722,0.0023,-0.3087,523.68,-1890.62,-1375.55
2280,-3.8722,0.0045,-0.3715,304.93,484.38,-188.11
2290,-3.8721,0.0131,-0.4349,586.18,453.12,-1860.11
2300,-3.8719,0.0280,-0.4790,1679.93,328.12,264.77
2310,-3.8719,0.0509,-0.4989,-413.82,-1312.50,1233.40
2320,-3.8719,0.0847,-0.5051,-1476.32,140.69,1577.15
2330,-3.8719,0.1348,-0.5135,-1148.19,-656.13,1998.96
2340,-3.8719,0.1948,-0.5337,1258.06,-1734.13,1702.09
2350,-3.8719,0.2489,-0.5624,945.56,-312.13,889.53
2360,-3.8719,0.2987,-0.5947,-132.57,16.05,1139.53
2370,-3.8719,0.3478,-0.6320,-1757.57,-124.45,-1173.10
2380,-3.8718,0.3881,-0.6632,523.68,-889.95,-1876.28
2390,-3.8717,0.4208,-0.6742,1679.93,-889.89,-1126.34
2400,-3.8716,0.4623,-0.6699,1867.43,1703.92,-1157.59
2410,-3.8715,0.5225,-0.6608,-820.07,-1749.15,670.53
2420,-3.8715,0.5958,-0.6465,-1116.94,-577.15,1483.03
2430,-3.8715,0.6731,-0.6248,273.68,1251.16,-1095.03
2440,-3.8713,0.7484,-0.6027,-1835.69,32.53,1264.40
2450,-3.8712,0.8226,-0.5909,-195.07,-1139.22,233.15
2460,-3.8712,0.8956,-0.5853,1304.93,360.96,-48.03
2470,-3.8710,0.9606,-0.5721,-1351.32,1079.83,936.34
2480,-3.8708,1.0129,-0.5458,-1038.82,-1232.54,-1282.41
2490,-3.8706,1.0503,-0.5048,1664.31,-1857.42,358.28
2500,-3.8705,1.0710,-0.4529,-1554.44,-607.36,1795.84
2510,-3.8704,1.0745,-0.4111,1101.81,-1966.67,-829.04
2520,-3.8701,1.0592,-0.4041,1539.31,-622.92,155.40
2530,-3.8700,1.0177,-0.4314,-413.82,283.26,30.46
2540,-3.8700,0.9409,-0.4656,-1726.32,783.20,1842.90
2550,-3.8700,0.8358,-0.4801,445.56,408.08,1030.33
2560,-3.8701,0.7253,-0.4774,-1007.57,-1451.54,1764.65
2570,-3.8702,0.6285,-0.4756,851.81,-1107.97,639.65
2580,-3.8705,0.5457,-0.4822,461.18,-873.78,-1797.85
2590,-3.8707,0.4679,-0.4904,1851.81,-1717.71,-875.98
2600,-3.8708,0.3873,-0.4880,-101.32,1235.23,30.27
2610,-3.8711,0.3054,-0.4746,1586.18,1531.98,1342.77
2620,-3.8713,0.2321,-0.4614,-898.19,-749.45,-719.73
2630,-3.8715,0.1765,-0.4569,1711.18,937.93,-1922.79
2640,-3.8716,0.1418,-0.4590,-1398.19,1515.93,-1672.79
2650,-3.8716,0.1301,-0.4620,-1835.69,1250.24,655.33
2660,-3.8716,0.1455,-0.4623,664.31,859.62,1139.71
2670,-3.8716,0.1892,-0.4546,-1366.94,828.37,-532.17
2680,-3.8715,0.2538,-0.4399,226.81,1812.87,-1063.42
2690,-3.8713,0.3258,-0.4257,492.43,-312.01,-1594.67
2700,-3.8712,0.3916,-0.4148,1711.18,1516.24,952.27
2710,-3.8712,0.4453,-0.4125,-1866.94,-1093.02,-1453.98
2720,-3.8712,0.4915,-0.4231,1008.06,-796.02,-438.35
2730,-3.8711,0.5298,-0.4390,-1085.69,1844.67,389.77
2740,-3.8711,0.5541,-0.4474,-179.44,-186.52,1249.08
2750,-3.8711,0.5638,-0.4467,-1070.07,-1264.59,1280.33
2760,-3.8712,0.5654,-0.4414,179.93,-1170.78,-235.29
2770,-3.8712,0.5653,-0.4302,383.06,-498.90,874.08
2780,-3.8713,0.5654,-0.4131,367.43,938.60,1296.02
2790,-3.8715,0.5693,-0.3992,383.06,-873.90,1592.90
2800,-3.8716,0.5765,-0.3921,883.06,907.35,-1907.04
2810,-3.8717,0.5793,-0.3861,1804.93,1813.60,-1032.04
2820,-3.8717,0.5688,-0.3833,-1835.69,-1420.78,561.71
2830,-3.8718,0.5413,-0.3909,820.56,-1061.40,-453.92
2840,-3.8718,0.5074,-0.4050,1289.31,1969.79,-63.29
2850,-3.8717,0.4813,-0.4156,961.18,157.23,889.83
2860,-3.8717,0.4634,-0.4177,1617.43,-1202.21,1952.27
2870,-3.8717,0.4481,-0.4156,-679.44,-1467.90,-1375.85
2880,-3.8717,0.4308,-0.4181,1367.43,-1202.27,-1594.60
2890,-3.8717,0.4097,-0.4296,-851.32,-1514.83,1967.90
2900,-3.8717,0.3856,-0.4432,445.56,1016.42,-1641.48
2910,-3.8717,0.3596,-0.4432,1367.43,-733.64,-485.29
2920,-3.8716,0.3341,-0.4259,-1960.69,-733.70,608.46
2930,-3.8716,0.3132,-0.4071,-1226.32,1484.99,1014.77
2940,-3.8716,0.2942,-0.4015,101.81,-108.76,874.15
2950,-3.8716,0.2719,-0.4094,1664.31,609.92,842.96
2960,-3.8716,0.2466,-0.4191,-1195.07,-405.76,1108.52
2970,-3.8716,0.2218,-0.4166,-429.44,-1640.20,1702.27
2980,-3.8716,0.2070,-0.3988,398.68,-1327.70,-1797.73
2990,-3.8716,0.2136,-0.3762,-1491.94,953.49,1889.83
3000,-3.8716,0.2355,-0.3678,-648.19,-155.88,1327.33
3010,-3.8716,0.2460,-0.3745,-1851.32,922.30,1655.52
3020,-3.8716,0.2280,-0.3784,-507.57,62.93,-1422.61
3030,-3.8716,0.1914,-0.3728,1195.56,-437.07,-1000.79
3040,-3.8716,0.1567,-0.3645,508.06,281.62,-1250.73
3050,-3.8716,0.1379,-0.3579,70.56,1344.06,1796.14
3060,-3.8717,0.1351,-0.3528,1664.31,-1812.26,-110.11
3070,-3.8717,0.1395,-0.3491,1304.93,-1156.01,1436.77
3080,-3.8718,0.1418,-0.3455,1867.43,-687.26,-391.36
3090,-3.8718,0.1357,-0.3385,-1835.69,-218.51,-1188.23
3100,-3.8718,0.1205,-0.3298,1383.06,672.12,-1578.80
3110,-3.8718,0.1018,-0.3251,-570.07,1781.43,1983.70
3120,-3.8718,0.0863,-0.3256,1039.31,-1609.19,1483.70
3130,-3.8718,0.0745,-0.3296,-945.07,-1671.75,1280.58
3140,-3.8718,0.0636,-0.3337,1539.31,1812.62,1530.58
3150,-3.8718,0.0525,-0.3318,148.68,1281.37,-1813.17
3160,-3.8718,0.0449,-0.3190,-1273.19,1531.31,-1328.80
3170,-3.8718,0.0433,-0.2949,1758.06,-828.06,-1735.05
3180,-3.8718,0.0427,-0.2677,1554.93,-1749.94,1421.26
3190,-3.8718,0.0341,-0.2452,1476.81,1734.44,1436.95
3200,-3.8718,0.0092,-0.2295,367.43,609.44,-1203.61
3210,-3.8717,-0.0283,-0.2278,1179.93,-1375.00,343.26
3220,-3.8717,-0.0601,-0.2427,383.06,-1140.69,905.76
3230,-3.8717,-0.0760,-0.2559,320.56,953.00,46.39
3240,-3.8718,-0.0769,-0.2482,-1726.32,-734.56,-1703.67
3250,-3.8718,-0.0609,-0.2316,-1835.69,249.82,1249.51
3260,-3.8718,-0.0311,-0.2305,211.18,-1625.12,-1078.61
3270,-3.8717,-0.0038,-0.2476,23.68,-1484.44,-406.74
3280,-3.8715,0.0044,-0.2767,-476.32,328.06,-1766.11
3290,-3.8712,-0.0065,-0.3101,570.56,578.12,1936.95
3300,-3.8710,-0.0278,-0.3387,-820.07,328.06,1218.14
3310,-3.8708,-0.0560,-0.3564,445.56,656.19,-985.05
3320,-3.8707,-0.0907,-0.3608,836.18,-1609.50,-1188.23
3330,-3.8706,-0.1276,-0.3535,398.68,1827.94,218.02
3340,-3.8707,-0.1608,-0.3394,-320.07,-1234.68,-406.98
3350,-3.8707,-0.1849,-0.3204,-570.07,577.76,1921.20
3360,-3.8707,-0.1987,-0.2988,336.18,-1000.37,30.58
3370,-3.8708,-0.1997,-0.2780,-1429.44,1765.20,-1813.11
3380,-3.8708,-0.1864,-0.2576,-1554.44,437.07,405.70
3390,-3.8710,-0.1638,-0.2378,148.68,-953.49,-859.92
3400,-3.8710,-0.1366,-0.2189,-960.69,1577.76,-1406.74
3410,-3.8710,-0.1090,-0.2008,-1476.32,-0.31,-1828.61
3420,-3.8710,-0.0874,-0.1859,-1945.07,-1687.74,1718.32
3430,-3.8710,-0.0795,-0.1794,820.56,218.57,1499.63
3440,-3.8710,-0.1584,-0.2587,1836.18,1046.69,1765.26
3450,-3.8708,-0.3657,-0.4705,-273.19,-1094.12,1249.45
3460,-3.8706,-0.5621,-0.5237,1195.56,-203.86,1108.40
3470,-3.8702,-0.4825,-0.2932,54.93,983.28,373.96
3480,-3.8700,-0.2516,-0.0897,-1757.57,-1516.60,1171.26
3490,-3.8701,-0.1525,-0.0492,-195.07,530.70,1202.94
3500,-3.8706,-0.1198,-0.0654,492.43,1718.44,-187.62
3510,-3.8708,-0.0768,-0.0630,679.93,-359.62,452.94
3520,-3.8711,-0.0442,-0.0618,-1820.07,-47.06,-203.31
3530,-3.8711,-0.0468,-0.0812,-1648.19,109.25,-297.00
3540,-3.8711,-0.0282,-0.0891,-1976.32,1624.88,-1640.81
3550,-3.8712,-0.0538,-0.1094,398.68,609.31,-1000.18
3560,-3.8711,-0.1420,-0.1578,1117.43,-1984.50,499.76
3570,-3.8710,-0.2048,-0.2262,1836.18,-187.81,-15.99
3580,-3.8706,-0.2563,-0.2905,1789.31,-937.93,1343.26
3590,-3.8705,-0.2812,-0.2926,-804.44,-1172.42,-125.61
3600,-3.8704,-0.2751,-0.2675,8.06,-1438.05,952.51
3610,-3.8705,-0.2654,-0.2659,789.31,1780.70,-406.80
3620,-3.8705,-0.2592,-0.2755,-1960.69,1983.83,1468.20
3630,-3.8706,-0.2445,-0.2722,-1163.82,749.45,-1297.42
3640,-3.8707,-0.2247,-0.2577,711.18,1171.39,-47.42
3650,-3.8707,-0.2095,-0.2404,-757.57,-969.24,1483.83
3660,-3.8708,-0.2003,-0.2228,1195.56,1249.57,-1125.49
3670,-3.8708,-0.1941,-0.2065,-1632.57,-500.43,124.51
3680,-3.8710,-0.1868,-0.1948,-835.69,1577.70,1546.45
3690,-3.8711,-0.1780,-0.1895,101.81,-922.24,-250.43
3700,-3.8711,-0.1714,-0.1907,1226.81,-234.74,-1094.18
3710,-3.8711,-0.1718,-0.1965,-1929.44,-390.99,-1484.80
3720,-3.8711,-0.1776,-0.2019,-1976.32,-1140.99,-1625.43
3730,-3.8711,-0.1833,-0.2059,1273.68,-1828.49,1968.32
3740,-3.8711,-0.1865,-0.2120,539.31,1655.88,1343.32
3750,-3.8711,-0.1864,-0.2148,133.06,874.63,1405.82
3760,-3.8711,-0.1864,-0.2076,148.68,515.26,1874.57
3770,-3.8711,-0.1899,-0.1947,148.68,1437.13,1280.82
3780,-3.8712,-0.1934,-0.1819,-304.44,-906.68,-750.43
3790,-3.8712,-0.1913,-0.1730,-741.94,733.95,796.51
3800,-3.8713,-0.1818,-0.1718,-476.32,1874.57,-1390.99
3810,-3.8713,-0.1670,-0.1771,742.43,-1969.12,765.26
3820,-3.8715,-0.1499,-0.1833,-1366.94,1343.38,-406.62
3830,-3.8715,-0.1340,-0.1852,820.56,546.57,-672.24
3840,-3.8715,-0.1248,-0.1824,-1148.19,312.19,-281.62
3850,-3.8713,-0.1221,-0.1790,39.31,671.63,421.51
3860,-3.8713,-0.1232,-0.1805,383.06,1109.13,1046.51
3870,-3.8713,-0.1241,-0.1891,242.43,906.01,1312.13
3880,-3.8713,-0.1193,-0.2015,117.43,-187.74,999.57
3890,-3.8713,-0.1052,-0.2136,742.43,-1781.49,187.07
3900,-3.8715,-0.0829,-0.2203,-1460.69,671.63,-719.18
3910,-3.8715,-0.0591,-0.2225,1398.68,-187.68,-1109.86
3920,-3.8715,-0.0413,-0.2274,445.56,-468.87,-922.36
3930,-3.8715,-0.0327,-0.2394,-1273.19,-1093.87,-1078.61
3940,-3.8715,-0.0321,-0.2573,-179.44,1374.88,1858.89
3950,-3.8715,-0.0327,-0.2750,-101.32,-922.00,30.70
3960,-3.8716,-0.0276,-0.2865,-179.44,812.38,1358.83
3970,-3.8717,-0.0182,-0.2900,476.81,-656.31,1718.14
3980,-3.8718,-0.0089,-0.2832,1679.93,-1109.44,1936.89
3990,-3.8719,-0.0033,-0.2657,-1132.57,-234.44,-156.86
4000,-3.8718,0.0013,-0.2542,-413.82,1999.94,608.83
4010,-3.8718,0.0123,-0.2648,179.93,-531.25,-984.92
4020,-3.8717,0.0260,-0.2898,1586.18,-1890.62,749.45
4030,-3.8717,0.0343,-0.3121,-663.82,-1093.75,1046.26
4040,-3.8717,0.0408,-0.3278,398.68,46.94,1093.14
4050,-3.8717,0.0566,-0.3430,1226.81,-1953.06,1905.58
4060,-3.8717,0.0817,-0.3628,-741.94,93.81,-938.17
4070,-3.8716,0.1095,-0.3822,-1538.82,1562.62,30.52
4080,-3.8716,0.1373,-0.3938,-1976.32,-921.69,217.96
4090,-3.8717,0.1626,-0.3964,1586.18,1593.99,-657.04
4100,-3.8717,0.1859,-0.3940,820.56,1265.93,-1969.54
4110,-3.8717,0.2079,-0.3940,-195.07,1562.81,796.08
4120,-3.8718,0.2321,-0.4003,-1382.57,1562.87,-16.42
4130,-3.8718,0.2583,-0.4141,1711.18,766.05,-438.29
4140,-3.8718,0.2786,-0.4340,1070.56,-999.51,-328.98
4150,-3.8717,0.2902,-0.4562,-335.69,453.61,858.52
4160,-3.8717,0.2997,-0.4775,1148.68,1609.92,-1204.04
4170,-3.8716,0.3137,-0.4930,-1632.57,-1124.45,202.15
4180,-3.8717,0.3340,-0.4972,164.31,891.24,-297.85
4190,-3.8717,0.3622,-0.4937,-1241.94,359.99,1327.15
4200,-3.8718,0.3984,-0.4926,-1632.57,813.17,-1750.98
4210,-3.8718,0.4364,-0.4955,-991.94,953.86,77.15
4220,-3.8719,0.4663,-0.5016,-132.57,578.92,-204.10
4230,-3.8718,0.4846,-0.5143,-304.44,-202.27,1530.21
4240,-3.8717,0.4972,-0.5293,-1960.69,-1827.21,155.21
4250,-3.8717,0.5077,-0.5363,-351.32,250.92,-1297.91
4260,-3.8716,0.5209,-0.5273,992.43,-639.65,1436.40
4270,-3.8716,0.5435,-0.5127,-1320.07,500.98,-813.54
4280,-3.8716,0.5724,-0.5146,1570.56,-1623.96,-1094.79
4290,-3.8716,0.5925,-0.5283,1273.68,-1873.90,1514.59
4300,-3.8716,0.5942,-0.5330,-148.19,376.10,702.09
4310,-3.8716,0.5862,-0.5204,70.56,-217.59,1217.65
4320,-3.8716,0.5933,-0.4899,-960.69,1391.72,-672.91
4330,-3.8715,0.6316,-0.4518,-54.44,1297.97,-1219.73
4340,-3.8713,0.6995,-0.4200,851.81,-1826.90,-891.54
4350,-3.8711,0.7866,-0.3998,1539.31,-1764.28,467.90
4360,-3.8710,0.8801,-0.3861,695.56,829.65,-985.17
4370,-3.8707,0.9678,-0.3722,664.31,-1420.17,-1938.29
4380,-3.8706,1.0278,-0.3594,-116.94,361.21,-266.36
4390,-3.8705,1.0381,-0.3511,-429.44,-1998.05,-1563.23
4400,-3.8705,0.9911,-0.3424,883.06,-935.49,-1813.23
4410,-3.8705,0.8927,-0.3313,-1132.57,173.77,280.58
4420,-3.8706,0.7622,-0.3287,-1726.32,1595.46,1233.70
4430,-3.8707,0.6208,-0.3418,1570.56,1923.34,952.45
4440,-3.8710,0.4805,-0.3615,-523.19,251.16,-547.55
4450,-3.8711,0.3527,-0.3737,1508.06,1735.29,718.02
4460,-3.8713,0.2463,-0.3738,1148.68,172.55,999.27
4470,-3.8716,0.1617,-0.3682,-460.69,156.68,-1797.61
4480,-3.8717,0.0991,-0.3661,711.18,875.31,-1797.61
4490,-3.8717,0.0604,-0.3710,695.56,1140.81,1124.27
4500,-3.8717,0.0448,-0.3801,-257.57,515.69,-1547.61
4510,-3.8716,0.0460,-0.3900,1742.43,-656.19,1046.08
4520,-3.8716,0.0557,-0.3994,1898.68,-1921.81,-532.04
4530,-3.8715,0.0754,-0.4033,-866.94,875.06,1389.83
4540,-3.8715,0.1127,-0.3954,1664.31,375.12,-641.42
4550,-3.8713,0.1675,-0.3798,-1570.07,1390.81,1342.96
4560,-3.8713,0.2317,-0.3646,1445.56,-609.07,-1078.92
4570,-3.8713,0.2941,-0.3502,1664.31,1328.55,-110.11
4580,-3.8712,0.3480,-0.3348,1648.68,-827.58,546.14
4590,-3.8712,0.3937,-0.3221,554.93,1141.30,1343.08
4600,-3.8712,0.4325,-0.3170,-1601.32,-1233.64,-1453.80
4610,-3.8711,0.4613,-0.3210,-632.57,-577.33,124.33
4620,-3.8711,0.4773,-0.3328,-945.07,-1092.90,-1813.17
4630,-3.8710,0.4790,-0.3473,1101.81,1407.17,343.08
4640,-3.8710,0.4680,-0.3568,1320.56,-452.21,1546.14
4650,-3.8710,0.4539,-0.3579,-85.69,-1671.02,1358.64
4660,-3.8710,0.4485,-0.3541,-1898.19,-1811.65,139.89
4670,-3.8711,0.4591,-0.3479,1414.31,-1327.27,-1656.98
4680,-3.8711,0.4833,-0.3378,-1226.32,-530.40,280.52
4690,-3.8712,0.5143,-0.3246,1867.43,766.54,-1906.92
4700,-3.8713,0.5474,-0.3114,1836.18,-1545.90,-0.67
4710,-3.8713,0.5780,-0.2997,-1929.44,141.66,-1750.61
4720,-3.8713,0.6008,-0.2903,1992.43,1641.72,936.89
4730,-3.8715,0.6097,-0.2832,914.31,-1155.09,-188.11
4740,-3.8715,0.6090,-0.2788,-1945.07,-248.84,-984.99
4750,-3.8715,0.6100,-0.2770,1961.18,313.66,-1219.30
4760,-3.8715,0.6128,-0.2760,-1913.82,548.03,-1547.42
4770,-3.8715,0.6117,-0.2719,-1554.44,673.03,1436.95
4780,-3.8716,0.6067,-0.2614,-1695.07,1204.28,-344.30
4790,-3.8716,0.5997,-0.2482,1664.31,-1451.97,1593.20
4800,-3.8717,0.5883,-0.2383,773.68,235.53,-391.11
4810,-3.8717,0.5704,-0.2302,-695.07,1501.10,1562.01
4820,-3.8718,0.5476,-0.2235,1023.68,-1467.65,-516.11
4830,-3.8718,0.5197,-0.2234,-1898.19,-608.34,1515.14
4840,-3.8719,0.4893,-0.2300,-1476.32,-592.77,-750.49
4850,-3.8719,0.4622,-0.2373,-1366.94,-1436.58,499.51
4860,-3.8721,0.4371,-0.2458,-835.69,1625.85,-1906.74
4870,-3.8721,0.4088,-0.2621,-38.82,532.04,1437.01
4880,-3.8721,0.3737,-0.2822,336.18,-1546.08,-1094.30
4890,-3.8719,0.3368,-0.2931,-163.82,-124.33,952.51
4900,-3.8719,0.3046,-0.2974,-882.57,-1515.01,1624.39
4910,-3.8719,0.2850,-0.2992,-1007.57,1938.05,1608.76
4920,-3.8719,0.2771,-0.2949,492.43,1703.67,1124.39
4930,-3.8721,0.2649,-0.2943,-523.19,-1749.51,-391.24
4940,-3.8721,0.2434,-0.3041,1914.31,-1671.39,-1609.99
4950,-3.8721,0.2174,-0.3175,-835.69,1078.55,-1875.61
4960,-3.8721,0.1909,-0.3309,-163.82,-640.26,-1531.92
4970,-3.8721,0.1680,-0.3473,445.56,1640.99,-1172.55
4980,-3.8721,0.1528,-0.3650,1508.06,-452.82,-703.86
4990,-3.8719,0.1479,-0.3737,-429.44,1281.49,1218.02
5000,-3.8718,0.1519,-0.3688,-1054.44,172.12,921.14
5010,-3.8717,0.1595,-0.3672,-554.44,797.12,686.77
5020,-3.8717,0.1674,-0.3804,429.93,1000.31,-719.48
5030,-3.8716,0.1694,-0.3964,1429.93,-687.19,467.96
5040,-3.8716,0.1558,-0.4066,1695.56,1265.93,311.71
5050,-3.8717,0.1334,-0.4153,-54.44,-46.63,-453.98
5060,-3.8717,0.1202,-0.4271,1086.18,-1156.01,-610.23
5070,-3.8716,0.1228,-0.4397,-601.32,1328.31,233.52
5080,-3.8716,0.1361,-0.4460,-273.19,-281.07,-1766.54
5090,-3.8715,0.1483,-0.4465,1429.93,-1093.51,1061.58
5100,-3.8715,0.1477,-0.4457,-1007.57,-1156.01,-594.67
5110,-3.8713,0.1300,-0.4447,-1085.69,-1046.63,592.83
5120,-3.8713,0.0955,-0.4467,648.68,-921.63,1780.33
5130,-3.8712,0.0576,-0.4553,226.81,-1171.69,1249.08
5140,-3.8711,0.0422,-0.4686,-616.94,1718.81,-1563.42
5150,-3.8710,0.0543,-0.4763,1414.31,15.69,-1735.29
5160,-3.8710,0.0764,-0.4659,-1038.82,-968.69,-532.23
5170,-3.8710,0.0951,-0.4395,1789.31,359.50,-1375.92
5180,-3.8710,0.1047,-0.4114,179.93,-249.82,327.21
5190,-3.8711,0.1034,-0.3889,1414.31,-656.07,1233.52
5200,-3.8712,0.0917,-0.3708,1242.43,-1781.07,-1469.54
5210,-3.8712,0.0730,-0.3528,-257.57,531.37,780.52
5220,-3.8713,0.0542,-0.3301,1351.81,-1156.13,-250.73
5230,-3.8713,0.0350,-0.3065,-1054.44,1750.06,-1328.80
5240,-3.8713,0.0133,-0.2888,492.43,765.69,1749.39
5250,-3.8713,-0.0045,-0.2766,1711.18,-968.75,1265.01
5260,-3.8713,-0.0164,-0.2622,-570.07,609.31,577.58
5270,-3.8715,-0.0236,-0.2394,1914.31,-1546.94,-266.17
5280,-3.8715,-0.0258,-0.2144,992.43,1374.94,-953.61
5290,-3.8715,-0.0249,-0.1975,711.18,578.06,-1453.55
5300,-3.8715,-0.0214,-0.1895,820.56,-1265.69,-1328.55
5310,-3.8713,-0.0159,-0.1902,1273.68,-234.44,265.20
5320,-3.8713,-0.0106,-0.1993,1976.81,-328.19,-500.43
5330,-3.8712,-0.0087,-0.2067,-1351.32,-1500.06,-937.93
5340,-3.8711,-0.0143,-0.2014,-1101.32,1562.44,1171.45
5350,-3.8711,-0.0209,-0.1844,-1820.07,-1765.69,1687.07
5360,-3.8711,-0.0160,-0.1647,1336.18,406.19,1734.01
5370,-3.8711,0.0007,-0.1539,1961.18,-1062.56,-1890.99
5380,-3.8711,0.0151,-0.1554,101.81,296.88,-1312.81
5390,-3.8711,0.0171,-0.1567,1945.56,109.38,-922.18
5400,-3.8711,0.0081,-0.1501,-1804.44,-62.50,-1250.37
5410,-3.8711,-0.0059,-0.1436,1039.31,781.25,1530.94
5420,-3.8712,-0.0183,-0.1428,-741.94,1640.56,-406.56
5430,-3.8712,-0.0248,-0.1439,1664.31,1734.31,1827.82
5440,-3.8712,-0.0256,-0.1460,836.18,1593.69,1280.94
5450,-3.8712,-0.0248,-0.1514,726.81,1328.06,-1937.81
5460,-3.8712,-0.0244,-0.1598,836.18,640.56,-359.68
5470,-3.8711,-0.0260,-0.1713,883.06,-437.56,1859.01
5480,-3.8710,-0.0298,-0.1843,679.93,-1906.31,327.76
5490,-3.8710,-0.0345,-0.1926,195.56,421.81,-1672.24
5500,-3.8710,-0.0380,-0.1923,-413.82,-640.75,-406.68
5510,-3.8710,-0.0405,-0.1859,-851.32,-593.87,-0.43
5520,-3.8710,-0.0403,-0.1797,-1179.44,218.63,-328.49
5530,-3.8710,-0.0342,-0.1769,-1148.19,1015.50,-937.87
5540,-3.8710,-0.0271,-0.1759,-366.94,1374.88,-1297.24
5550,-3.8710,-0.0226,-0.1760,539.31,1499.94,-1265.99
5560,-3.8710,-0.0204,-0.1805,1117.43,1484.31,-1219.12
5570,-3.8710,-0.0226,-0.1865,1398.68,906.19,-1297.24
5580,-3.8710,-0.0282,-0.1857,1117.43,140.56,-1297.24
5590,-3.8710,-0.0333,-0.1790,398.68,249.94,-1515.99
5600,-3.8710,-0.0358,-0.1732,-257.57,1109.25,1812.13
5610,-3.8710,-0.0381,-0.1716,-570.07,1843.63,937.13
5620,-3.8710,-0.0420,-0.1726,-866.94,-1953.25,46.51
5630,-3.8711,-0.0450,-0.1721,-1366.94,1921.75,-656.62
5640,-3.8711,-0.0458,-0.1697,-1757.57,1984.25,-734.74
5650,-3.8711,-0.0496,-0.1697,-1851.32,-1703.25,-484.74
5660,-3.8711,-0.0604,-0.1757,1664.31,-1703.25,-109.74
5670,-3.8710,-0.0736,-0.1862,273.68,1531.13,749.63
5680,-3.8710,-0.0845,-0.1974,-1413.82,187.32,1984.01
5690,-3.8710,-0.0897,-0.2059,1195.56,-1250.18,-609.80
5700,-3.8708,-0.0897,-0.2135,523.68,1656.07,608.95
5710,-3.8708,-0.0903,-0.2235,523.68,687.32,1655.82
5720,-3.8708,-0.1006,-0.2328,445.56,-593.93,-1297.36
5730,-3.8708,-0.1224,-0.2379,-866.94,-1781.49,-656.74
5740,-3.8708,-0.1437,-0.2408,336.18,1562.26,-656.74
5750,-3.8708,-0.1538,-0.2449,1617.43,1187.19,-1000.49
5760,-3.8708,-0.1554,-0.2510,320.56,671.57,-1266.11
5770,-3.8708,-0.1549,-0.2566,117.43,-109.68,-1453.67
5780,-3.8708,-0.1537,-0.2595,179.93,-828.43,-1703.67
5790,-3.8708,-0.1511,-0.2585,336.18,-1203.43,1733.83
5800,-3.8708,-0.1477,-0.2528,664.31,-1078.43,421.33
5810,-3.8710,-0.1427,-0.2434,1101.81,-344.06,-1656.80
5820,-3.8710,-0.1367,-0.2339,1742.43,859.07,358.89
5830,-3.8711,-0.1335,-0.2312,-1491.94,-1922.18,-844.24
5840,-3.8711,-0.1357,-0.2383,-1085.69,-1578.43,-1422.36
5850,-3.8711,-0.1420,-0.2477,-1366.94,1515.32,-1625.49
5860,-3.8711,-0.1498,-0.2491,1836.18,312.19,-1484.86
5870,-3.8711,-0.1558,-0.2428,836.18,124.69,-1609.86
5880,-3.8711,-0.1582,-0.2361,70.56,937.19,1515.14
5890,-3.8711,-0.1573,-0.2346,-241.94,1796.51,30.76
5900,-3.8712,-0.1538,-0.2372,-132.57,1984.01,-1609.86
5910,-3.8712,-0.1472,-0.2388,320.56,1655.94,921.39
5920,-3.8713,-0.1398,-0.2358,1164.31,1452.82,-312.99
5930,-3.8713,-0.1373,-0.2277,-1882.57,1827.82,-1484.86
5940,-3.8713,-0.1393,-0.2197,-1570.07,-1125.31,1405.76
5950,-3.8713,-0.1390,-0.2205,-1820.07,-109.68,374.51
5960,-3.8715,-0.1354,-0.2297,-1788.82,-203.43,-516.11
5970,-3.8715,-0.1300,-0.2383,-1320.07,-1390.93,-953.61
5980,-3.8715,-0.1226,-0.2450,-632.57,1515.32,-1062.99
5990,-3.8715,-0.1112,-0.2563,320.56,656.01,-1484.86
6000,-3.8715,-0.0990,-0.2723,1773.68,-797.12,1796.33
6010,-3.8715,-0.0925,-0.2866,-663.82,1156.01,1155.70
6020,-3.8715,-0.0953,-0.2941,164.31,-672.06,421.26
6030,-3.8716,-0.1058,-0.2961,-195.07,-1625.24,-688.11
6040,-3.8716,-0.1206,-0.2976,-1538.82,-1890.87,1624.39
6050,-3.8717,-0.1338,-0.2992,570.56,1921.63,-750.61
6060,-3.8717,-0.1396,-0.3010,-1116.94,1718.44,608.76
6070,-3.8718,-0.1388,-0.3036,-1866.94,1484.07,-1109.99
6080,-3.8718,-0.1383,-0.3070,-1757.57,1155.94,-1594.36
6090,-3.8718,-0.1400,-0.3130,-1695.07,718.44,-1281.86
6100,-3.8718,-0.1387,-0.3213,-1913.82,-47.18,-516.30
6110,-3.8717,-0.1344,-0.3306,-1741.94,-1109.68,421.20
6120,-3.8717,-0.1277,-0.3412,-1195.07,1702.82,1749.33
6130,-3.8717,-0.1161,-0.3523,-335.69,343.44,-750.67
6140,-3.8716,-0.1006,-0.3633,1148.68,-1078.37,452.39
6150,-3.8716,-0.0848,-0.3719,-866.94,1515.38,1171.14
6160,-3.8716,-0.0704,-0.3773,1148.68,406.07,1280.52
6170,-3.8716,-0.0576,-0.3809,-1007.57,-281.43,546.08
6180,-3.8717,-0.0426,-0.3820,633.06,-734.50,-797.67
6190,-3.8717,-0.0199,-0.3815,-1445.07,-875.12,1921.08
6200,-3.8717,0.0076,-0.3834,1461.18,-812.56,874.21
6210,-3.8717,0.0355,-0.3931,976.81,-1078.12,186.71
6220,-3.8717,0.0658,-0.4103,554.93,1687.56,14.83
6230,-3.8717,0.0958,-0.4297,429.93,-515.50,561.65
6240,-3.8717,0.1210,-0.4459,273.68,1000.18,1952.27
6250,-3.8717,0.1414,-0.4581,-507.57,-1077.94,-438.42
6260,-3.8716,0.1603,-0.4668,-1898.19,1359.62,233.46
6270,-3.8717,0.1843,-0.4746,523.68,250.31,-672.79
6280,-3.8717,0.2137,-0.4865,-398.19,-749.69,1092.77
6290,-3.8718,0.2426,-0.4980,-632.57,1734.74,-844.73
6300,-3.8718,0.2704,-0.5016,-945.07,250.43,-1157.23
6310,-3.8718,0.3021,-0.4989,-1382.57,-202.64,-922.91
6320,-3.8718,0.3402,-0.4966,-1320.07,141.17,-1641.60
6330,-3.8718,0.3833,-0.4982,-445.07,438.11,655.27
6340,-3.8719,0.4277,-0.5073,1070.56,235.11,-1000.98
6350,-3.8719,0.4668,-0.5209,-1241.94,-936.71,-1313.54
6360,-3.8718,0.4951,-0.5259,-241.94,1328.98,170.84
6370,-3.8718,0.5122,-0.5188,-616.94,688.42,-1282.29
6380,-3.8717,0.5221,-0.5055,1570.56,1594.73,1827.09
6390,-3.8716,0.5295,-0.4896,-1163.82,-702.15,1405.21
6400,-3.8715,0.5372,-0.4790,-210.69,1329.10,1702.15
6410,-3.8713,0.5474,-0.4847,773.68,-1311.46,-1032.23
6420,-3.8711,0.5596,-0.5040,-1929.44,1954.16,389.65
6430,-3.8710,0.5719,-0.5214,-366.94,-514.59,764.59
6440,-3.8710,0.5774,-0.5258,1211.18,1266.72,-1016.66
6450,-3.8710,0.5658,-0.5146,1914.31,704.22,-922.91
6460,-3.8710,0.5361,-0.4912,429.93,-1873.90,-1860.41
6470,-3.8710,0.5031,-0.4590,633.06,1126.04,1358.40
6480,-3.8710,0.4834,-0.4337,398.68,1250.98,1670.96
6490,-3.8710,0.4810,-0.4321,1883.06,485.29,-860.23
6500,-3.8708,0.4797,-0.4456,1570.56,688.42,1421.02
6510,-3.8708,0.4557,-0.4589,1414.31,-1030.33,-422.79
6520,-3.8707,0.4055,-0.4587,-1663.82,1266.48,545.96
6530,-3.8707,0.3456,-0.4376,-85.69,1281.98,155.33
6540,-3.8708,0.2971,-0.4120,242.43,-14.95,-1250.92
6550,-3.8708,0.2688,-0.4052,-1960.69,-733.83,764.77
6560,-3.8710,0.2479,-0.4165,-1585.69,141.11,-1469.54
6570,-3.8710,0.2208,-0.4261,-257.57,-1312.07,202.27
6580,-3.8711,0.1879,-0.4208,273.68,1453.55,-1703.98
6590,-3.8711,0.1595,-0.4071,54.93,-1859.01,1624.15
6600,-3.8711,0.1411,-0.3997,429.93,-109.07,-1719.60
6610,-3.8711,0.1257,-0.3999,-1929.44,843.99,-610.17
6620,-3.8711,0.1066,-0.3949,101.81,812.74,-203.92
6630,-3.8711,0.0854,-0.3781,1648.68,1453.31,-953.92
6640,-3.8711,0.0688,-0.3571,-1054.44,-390.50,1405.46
6650,-3.8712,0.0624,-0.3411,820.56,-1703.00,-672.61
6660,-3.8712,0.0717,-0.3304,-7.57,343.81,1577.45
6670,-3.8712,0.0956,-0.3246,1179.93,1703.25,827.45
6680,-3.8712,0.1189,-0.3270,242.43,-1546.69,936.83
6690,-3.8712,0.1292,-0.3323,-773.19,-1859.19,1139.95
6700,-3.8712,0.1378,-0.3285,539.31,1468.99,514.95
6710,-3.8713,0.1611,-0.3138,1648.68,1953.37,-406.92
6720,-3.8713,0.1960,-0.3022,633.06,-171.57,-594.42
6730,-3.8713,0.2281,-0.3026,1101.81,1312.87,-375.61
6740,-3.8713,0.2534,-0.3055,1211.18,1266.05,-125.61
6750,-3.8712,0.2786,-0.3011,445.56,891.11,108.76
6760,-3.8712,0.3113,-0.2916,-335.69,1453.61,218.14
6770,-3.8712,0.3542,-0.2819,-148.19,-1327.58,296.26
6780,-3.8712,0.4009,-0.2755,1351.81,-77.45,624.39
6790,-3.8712,0.4418,-0.2761,-679.44,735.11,1577.58
6800,-3.8712,0.4713,-0.2867,554.93,657.10,-953.67
6810,-3.8711,0.4880,-0.3057,336.18,-702.21,640.01
6820,-3.8711,0.4946,-0.3269,-1523.19,875.92,-1688.11
6830,-3.8711,0.4949,-0.3468,-679.44,-1842.83,-203.80
6840,-3.8710,0.4919,-0.3661,-648.19,-389.71,468.02
6850,-3.8710,0.4847,-0.3843,-1023.19,1141.54,77.39
6860,-3.8711,0.4730,-0.3973,-1945.07,-1186.58,-782.04
6870,-3.8711,0.4586,-0.4020,554.93,1141.54,-1782.04
6880,-3.8711,0.4445,-0.4006,-1288.82,547.73,1186.71
6890,-3.8711,0.4324,-0.4004,898.68,719.60,499.21
6900,-3.8711,0.4236,-0.4043,-648.19,750.79,280.46
6910,-3.8712,0.4167,-0.4041,-1773.19,250.79,-157.04
6920,-3.8712,0.4111,-0.3914,1351.81,282.04,-1344.54
6930,-3.8712,0.4087,-0.3716,633.06,1907.04,608.58
6940,-3.8713,0.4065,-0.3544,320.56,438.29,1671.14
6950,-3.8715,0.3997,-0.3438,39.31,-1358.58,-1344.48
6960,-3.8715,0.3876,-0.3381,-835.69,0.73,452.45
6970,-3.8716,0.3728,-0.3318,1617.43,719.48,-1219.42
6980,-3.8716,0.3584,-0.3206,-273.19,1531.92,1155.58
6990,-3.8717,0.3472,-0.3052,1883.06,-1030.58,-563.17
7000,-3.8717,0.3412,-0.2921,445.56,938.17,1499.39
7010,-3.8718,0.3353,-0.2850,-320.07,-1390.01,-219.36
7020,-3.8718,0.3198,-0.2797,-1070.07,-483.76,-1031.86
7030,-3.8718,0.2913,-0.2733,945.56,203.74,-797.42
7040,-3.8717,0.2584,-0.2721,1289.31,1016.17,15.08
7050,-3.8717,0.2351,-0.2809,1086.18,1172.36,686.95
7060,-3.8717,0.2206,-0.2936,-1898.19,47.30,515.08
7070,-3.8718,0.2115,-0.2971,242.43,-1577.70,-94.36
7080,-3.8718,0.2107,-0.2882,-913.82,1969.12,-563.11
7090,-3.8718,0.2183,-0.2788,-1023.19,-890.26,-891.24
7100,-3.8718,0.2302,-0.2772,-54.44,312.87,-594.30
7110,-3.8717,0.2379,-0.2803,1476.81,516.05,561.95
7120,-3.8717,0.2358,-0.2812,-1538.82,125.43,1811.95
7130,-3.8717,0.2291,-0.2771,-1804.44,0.43,-1813.05
7140,-3.8717,0.2291,-0.2728,1336.18,531.68,1905.70
7150,-3.8717,0.2430,-0.2729,1336.18,1078.55,1749.45
7160,-3.8717,0.2657,-0.2739,-882.57,1062.93,-1938.05
7170,-3.8717,0.2861,-0.2710,-1976.32,937.99,-1313.05
7180,-3.8717,0.2937,-0.2684,633.06,1313.05,-828.67
7190,-3.8717,0.2854,-0.2750,1601.81,1641.17,-938.05
7200,-3.8717,0.2703,-0.2894,539.31,797.42,-1188.05
7210,-3.8717,0.2588,-0.3030,-1398.19,-1046.39,-875.61
7220,-3.8717,0.2526,-0.3148,1133.06,1219.24,-31.86
7230,-3.8716,0.2515,-0.3274,336.18,-296.39,1155.58
7240,-3.8716,0.2567,-0.3369,195.56,-1905.76,-1360.05
7250,-3.8715,0.2662,-0.3397,867.43,875.49,452.45
7260,-3.8715,0.2772,-0.3359,-1913.82,516.11,-1781.92
7270,-3.8715,0.2869,-0.3273,-507.57,1000.49,-594.42
7280,-3.8715,0.2955,-0.3181,726.81,-1890.08,-78.80
7290,-3.8713,0.3053,-0.3142,1836.18,-718.20,77.45
7300,-3.8713,0.3130,-0.3251,-913.82,-218.20,811.83
7310,-3.8713,0.3121,-0.3591,70.56,-1608.76,-281.92
7320,-3.8711,0.2963,-0.3787,-38.82,-1968.20,1546.14
7330,-3.8710,0.2538,-0.3418,1929.93,-468.20,-516.42
7340,-3.8708,0.2010,-0.2582,492.43,250.49,-625.67
7350,-3.8708,0.1769,-0.1710,1742.43,-1046.51,-141.17
7360,-3.8708,0.1926,-0.1305,-1351.32,-1890.32,890.26
7370,-3.8710,0.2291,-0.1412,664.31,-702.76,-1703.43
7380,-3.8710,0.2565,-0.1517,1336.18,1922.30,-109.68
7390,-3.8707,0.2650,-0.1213,836.18,578.61,671.57
7400,-3.8707,0.2650,-0.0652,1929.93,469.24,-828.37
7410,-3.8707,0.2721,-0.0192,1929.93,-343.26,1171.69
7420,-3.8708,0.2939,0.0040,-1163.82,1547.36,1671.81
7430,-3.8710,0.3173,0.0170,1633.06,516.17,-484.38
7440,-3.8710,0.3256,0.0383,617.43,-1827.51,-1906.25
7450,-3.8711,0.3242,0.0775,1679.93,906.86,-374.94
7460,-3.8712,0.3215,0.1201,1508.06,1922.49,-515.50
7470,-3.8713,0.3140,0.1407,1164.31,-624.39,-1468.57
7480,-3.8715,0.2982,0.1263,195.56,-1983.76,-1749.76
7490,-3.8715,0.2787,0.0891,-1820.07,172.42,1797.12
7500,-3.8713,0.2603,0.0542,-320.07,-593.26,-1828.00
7510,-3.8711,0.2565,0.0282,1320.56,-1062.01,1125.06
7520,-3.8708,0.2653,0.0216,836.18,-390.14,796.88
7530,-3.8707,0.2557,0.0629,1961.18,-1233.89,312.50
7540,-3.8710,0.2241,0.1625,742.43,47.36,1828.25
7550,-3.8715,0.1974,0.2980,695.56,797.30,-734.07
7560,-3.8719,0.1804,0.4236,1273.68,-1859.01,-1077.58
7570,-3.8723,0.1543,0.5015,-898.19,-1780.94,641.42
7580,-3.8727,0.1134,0.5302,-241.94,187.74,1766.60
7590,-3.8729,0.0636,0.5198,-1476.32,-140.44,-811.52
7600,-3.8729,0.0112,0.4736,148.68,-1468.63,-1842.77
7610,-3.8728,-0.0377,0.4122,1445.56,625.00,-374.08
7620,-3.8724,-0.0801,0.3641,-820.07,781.13,-1421.08
7630,-3.8721,-0.1117,0.3394,1758.06,-1375.18,-1061.83
7640,-3.8717,-0.1229,0.3342,1711.18,-547.12,406.86
7650,-3.8716,-0.1141,0.3297,273.68,-1203.37,1016.24
7660,-3.8716,-0.1013,0.3088,1398.68,-1781.49,-858.76
7670,-3.8715,-0.0991,0.2744,-960.69,-453.37,-1921.33
7680,-3.8713,-0.1165,0.2322,-679.44,-859.62,-1593.26
7690,-3.8712,-0.1472,0.1882,1101.81,1734.13,-171.45
7700,-3.8710,-0.1754,0.1510,1164.31,109.07,-1702.76
7710,-3.8707,-0.1899,0.1223,1554.93,-656.62,1047.12
7720,-3.8706,-0.1890,0.0938,-304.44,-328.55,-687.32
7730,-3.8704,-0.1796,0.0718,-179.44,15.20,1281.43
7740,-3.8702,-0.1722,0.0890,1023.68,1202.76,687.62
7750,-3.8704,-0.1722,0.1556,1961.18,-594.12,1906.37
7760,-3.8706,-0.1697,0.2395,1961.18,-62.87,1078.37
7770,-3.8710,-0.1555,0.2981,-1710.69,-1328.49,-1921.45
7780,-3.8712,-0.1379,0.3193,101.81,-1828.43,1063.05
7790,-3.8713,-0.1211,0.3188,-1648.19,890.32,141.24
7800,-3.8715,-0.0985,0.3048,508.06,827.88,-233.76
7810,-3.8713,-0.0719,0.2755,-601.32,-968.99,-718.20
7820,-3.8711,-0.0493,0.2411,-1195.07,-718.93,1422.36
7830,-3.8708,-0.0336,0.2239,1695.56,-1125.12,266.05
7840,-3.8707,-0.0236,0.2312,-288.82,671.75,1078.55
7850,-3.8707,-0.0194,0.2539,992.43,1609.31,-1687.07
7860,-3.8707,-0.0199,0.2799,1523.68,515.56,750.49
7870,-3.8708,-0.0250,0.3000,1461.18,-156.31,1766.11
7880,-3.8710,-0.0383,0.3118,804.93,-1578.19,-1702.58
7890,-3.8711,-0.0594,0.3075,-898.19,-78.25,-796.33
7900,-3.8711,-0.0795,0.2773,398.68,-625.12,1797.42
7910,-3.8711,-0.0946,0.2299,1836.18,-484.56,-593.26
7920,-3.8710,-0.1085,0.1870,-101.32,1437.26,-265.20
7930,-3.8707,-0.1251,0.1609,-1882.57,-47.12,328.43
7940,-3.8707,-0.1428,0.1467,-7.57,609.07,-718.44
7950,-3.8706,-0.1494,0.1357,1726.81,-1203.43,390.87
7960,-3.8707,-0.1414,0.1281,883.06,1390.32,-406.01
7970,-3.8707,-0.1310,0.1293,1914.31,405.94,1625.24
7980,-3.8708,-0.1250,0.1398,-757.57,562.19,-296.63
7990,-3.8708,-0.1235,0.1489,8.06,1906.01,1750.24
8000,-3.8710,-0.1293,0.1504,195.56,-922.12,-687.26
8010,-3.8710,-0.1378,0.1460,-538.82,-734.68,828.37
8020,-3.8711,-0.1417,0.1331,-1632.57,-1297.18,-1202.88
8030,-3.8711,-0.1396,0.1166,1867.43,1046.57,1265.87
8040,-3.8711,-0.1355,0.1057,-1866.94,-1062.81,484.56
8050,-3.8712,-0.1340,0.1034,-1335.69,1546.57,-359.19
8060,-3.8712,-0.1384,0.1051,-1148.19,1249.69,1437.68
8070,-3.8713,-0.1461,0.1046,-1710.69,1468.44,-1781.07
8080,-3.8715,-0.1497,0.0968,1304.93,1405.94,-312.32
8090,-3.8715,-0.1432,0.0743,851.81,405.94,-687.32
8100,-3.8713,-0.1230,0.0402,1679.93,1530.94,-1812.38
8110,-3.8712,-0.0924,0.0111,258.06,1156.01,-1687.44
8120,-3.8712,-0.0656,0.0034,179.93,1437.32,-343.75
8130,-3.8712,-0.0527,0.0135,-382.57,452.94,984.38
8140,-3.8713,-0.0482,0.0188,1258.06,1749.88,0.00
8150,-3.8716,-0.0430,0.0061,1836.18,-1578.25,-218.75
8160,-3.8716,-0.0320,-0.0140,-1491.94,796.75,-1656.25
8170,-3.8716,-0.0157,-0.0271,-85.69,-1781.37,-1015.69
8180,-3.8716,0.0028,-0.0375,1992.43,546.81,-796.94
8190,-3.8716,0.0243,-0.0620,367.43,-796.88,-1297.00
8200,-3.8715,0.0449,-0.1071,-882.57,62.50,546.75
8210,-3.8713,0.0602,-0.1483,1758.06,-1703.06,-1500.24
8220,-3.8711,0.0697,-0.1517,-288.82,1015.69,921.57
8230,-3.8711,0.0743,-0.1191,929.93,578.25,-797.18
8240,-3.8711,0.0764,-0.0844,1523.68,750.12,499.76
8250,-3.8713,0.0768,-0.0710,1789.31,1203.25,-1406.43
8260,-3.8715,0.0724,-0.0791,1836.18,-1093.63,312.32
8270,-3.8716,0.0605,-0.0992,1273.68,1875.12,46.69
8280,-3.8717,0.0491,-0.1267,-241.94,-703.06,-1562.74
8290,-3.8717,0.0452,-0.1628,-1710.69,-218.69,-937.81
8300,-3.8716,0.0452,-0.1978,1789.31,-843.69,1546.51
8310,-3.8715,0.0421,-0.2150,1789.31,-1312.44,437.07
8320,-3.8715,0.0388,-0.2150,1398.68,484.44,-1797.30
8330,-3.8715,0.0465,-0.2118,976.81,484.44,-1703.55
8340,-3.8715,0.0646,-0.2217,1961.18,890.69,812.07
8350,-3.8716,0.0824,-0.2461,273.68,-374.88,-1016.11
8360,-3.8716,0.0956,-0.2737,-1445.07,500.12,1671.39
8370,-3.8716,0.1056,-0.3051,242.43,968.93,1202.58
8380,-3.8716,0.1143,-0.3447,1523.68,953.31,-1656.86
8390,-3.8715,0.1256,-0.3822,-1366.94,-124.82,968.02
8400,-3.8715,0.1451,-0.4032,86.18,-921.63,-32.04
8410,-3.8713,0.1714,-0.4038,-1413.82,390.87,1671.08
8420,-3.8713,0.1931,-0.3944,1945.56,312.81,1389.83
8430,-3.8715,0.1985,-0.3921,726.81,1515.99,-188.29
8440,-3.8715,0.1908,-0.4062,1414.31,1812.87,-1969.54
8450,-3.8715,0.1843,-0.4362,429.93,0.37,1374.21
8460,-3.8715,0.1868,-0.4718,-398.19,172.18,-1641.48
8470,-3.8713,0.1943,-0.5023,-85.69,-390.32,999.02
8480,-3.8712,0.2050,-0.5283,883.06,-296.51,623.96
8490,-3.8712,0.2239,-0.5404,-1757.57,375.37,-1235.41
8500,-3.8713,0.2625,-0.5226,664.31,-1171.45,-32.35
8510,-3.8716,0.3370,-0.4760,1601.81,1109.86,-563.54
8520,-3.8718,0.4347,-0.4113,-851.32,-921.26,1155.27
8530,-3.8721,0.5084,-0.3455,-351.32,-639.83,-1657.10
8540,-3.8721,0.5293,-0.3027,1086.18,-217.77,421.14
8550,-3.8721,0.5049,-0.3102,-241.94,1250.98,-1703.74
8560,-3.8719,0.4595,-0.3715,633.06,297.85,-1000.61
8570,-3.8717,0.4154,-0.4543,-1179.44,453.98,889.89
8580,-3.8716,0.3832,-0.5104,1179.93,1844.54,-1547.79
8590,-3.8715,0.3607,-0.5094,1054.93,-1327.39,-469.79
8600,-3.8713,0.3419,-0.4698,-1820.07,-1202.45,-219.79
8610,-3.8712,0.3259,-0.4288,-226.32,-140.01,1780.27
8620,-3.8712,0.3043,-0.4086,1726.81,1109.99,1108.52
8630,-3.8713,0.2721,-0.4161,-1038.82,-296.33,-235.23
8640,-3.8712,0.2502,-0.4469,-1163.82,-1265.14,967.90
8650,-3.8711,0.2554,-0.4916,39.31,-1202.64,1655.33
8660,-3.8710,0.2727,-0.5327,695.56,1078.61,-329.10
8670,-3.8707,0.2805,-0.5510,-1085.69,-187.01,639.53
8680,-3.8707,0.2759,-0.5433,-85.69,1469.24,-938.60
8690,-3.8707,0.2654,-0.5216,-679.44,-1546.39,-1579.22
8700,-3.8707,0.2573,-0.4968,1976.81,1234.86,92.71
8710,-3.8708,0.2600,-0.4795,945.56,406.74,639.65
8720,-3.8711,0.2675,-0.4780,1289.31,-1374.51,-719.73
8730,-3.8712,0.2579,-0.4883,-1757.57,-1187.01,889.65
8740,-3.8713,0.2305,-0.4885,1023.68,1500.49,1592.77
8750,-3.8712,0.1903,-0.4651,1508.06,1469.18,45.90
8760,-3.8711,0.1528,-0.4403,367.43,469.12,1202.21
8770,-3.8710,0.1318,-0.4449,-429.44,-359.13,1561.58
8780,-3.8708,0.1206,-0.4761,883.06,-952.88,764.71
8790,-3.8708,0.1337,-0.5071,-554.44,-937.32,-813.48
8800,-3.8707,0.1718,-0.5153,1117.43,-906.01,452.09
8810,-3.8707,0.2036,-0.4951,1992.43,-1952.82,45.84
8820,-3.8708,0.2045,-0.4607,-1929.44,625.37,1577.15
8830,-3.8710,0.1790,-0.4293,-1820.07,1031.62,1717.83
8840,-3.8711,0.1436,-0.4087,-1085.69,1047.18,1577.27
8850,-3.8712,0.1129,-0.3932,-1616.94,-312.26,-1969.60
8860,-3.8712,0.0989,-0.3785,-1538.82,1672.06,389.83
8870,-3.8712,0.0935,-0.3718,664.31,-452.94,1139.83
8880,-3.8712,0.0886,-0.3768,-23.19,406.37,-594.48
8890,-3.8711,0.0953,-0.3850,-648.19,-234.25,1921.08
8900,-3.8711,0.1190,-0.3896,211.18,-1281.07,-282.04
8910,-3.8710,0.1451,-0.3932,-757.57,-1874.82,1061.71
8920,-3.8710,0.1669,-0.4020,-1413.82,1672.12,-1094.54
8930,-3.8708,0.1965,-0.4188,1367.43,547.18,1217.96
8940,-3.8708,0.2463,-0.4376,1164.31,-1609.01,-657.10
8950,-3.8707,0.3085,-0.4500,-460.69,-15.20,499.08
8960,-3.8707,0.3618,-0.4532,-507.57,-1593.20,61.58
8970,-3.8708,0.3953,-0.4543,-1679.44,1985.05,-1704.04
8980,-3.8710,0.4240,-0.4591,-1398.19,1844.48,-391.54
8990,-3.8710,0.4712,-0.4620,-1726.32,1235.17,170.96
9000,-3.8711,0.5330,-0.4487,320.56,860.29,217.83
9010,-3.8712,0.5747,-0.4189,226.81,-1436.46,108.46
9020,-3.8715,0.5737,-0.3929,1570.56,-1623.90,-313.35
9030,-3.8716,0.5479,-0.3967,1445.56,1704.22,-688.29
9040,-3.8716,0.5149,-0.4419,-1866.94,1219.79,858.58
9050,-3.8716,0.4789,-0.5105,1914.31,-561.52,-1407.17
9060,-3.8715,0.4474,-0.5728,1304.93,-1342.83,-79.16
9070,-3.8712,0.4269,-0.6125,1273.68,-1311.65,1311.34
9080,-3.8712,0.4133,-0.6315,-1351.32,1594.54,-32.47
9090,-3.8712,0.3998,-0.6354,914.31,-827.33,-48.16
9100,-3.8712,0.3883,-0.6262,-820.07,-1327.39,-1282.53
9110,-3.8712,0.3876,-0.6102,1711.18,-155.52,1373.72
9120,-3.8712,0.4041,-0.5953,1617.43,1891.36,967.53
9130,-3.8712,0.4325,-0.5919,-273.19,-202.39,-1938.72
9140,-3.8711,0.4628,-0.6051,-632.57,235.17,780.09
9150,-3.8710,0.4801,-0.6283,-757.57,-1452.27,264.40
9160,-3.8710,0.4821,-0.6543,1461.18,-420.96,-516.91
9170,-3.8708,0.4790,-0.6758,1711.18,250.92,1936.22
9180,-3.8708,0.4697,-0.6813,1320.56,1500.92,-954.47
9190,-3.8708,0.4524,-0.6637,133.06,797.79,-1454.47
9200,-3.8708,0.4354,-0.6282,1914.31,-952.27,358.03
9210,-3.8710,0.4266,-0.5857,-257.57,-405.46,967.47
9220,-3.8711,0.4240,-0.5463,-1382.57,1032.04,1030.09
9230,-3.8712,0.4233,-0.5153,-1726.32,-1921.08,1077.03
9240,-3.8713,0.4243,-0.4954,-1804.44,-1952.33,1733.34
9250,-3.8715,0.4197,-0.4913,-1679.44,594.54,-407.23
9260,-3.8715,0.4092,-0.5017,1726.81,1110.17,-422.85
9270,-3.8713,0.3964,-0.5133,383.06,-217.96,1139.59
9280,-3.8713,0.3738,-0.5103,-1257.57,-1702.39,-1876.04
9290,-3.8713,0.3470,-0.4917,-148.19,-1311.83,-1922.91
9300,-3.8713,0.3264,-0.4807,429.93,1063.17,1592.77
9310,-3.8713,0.3053,-0.4893,1789.31,-1530.64,1311.52
9320,-3.8713,0.2755,-0.4951,-913.82,1375.55,1749.02
9330,-3.8713,0.2374,-0.4725,-726.32,625.49,1952.15
9340,-3.8715,0.2004,-0.4149,-1601.32,-483.95,-282.23
9350,-3.8716,0.1779,-0.3431,1664.31,-1109.01,1999.15
9360,-3.8718,0.1779,-0.2889,-1226.32,78.43,-1485.05
9370,-3.8719,0.1960,-0.2677,-1226.32,-984.07,265.01
9380,-3.8721,0.2135,-0.2736,1101.81,1734.74,561.95
9390,-3.8722,0.2048,-0.2911,-663.82,984.74,-1297.42
9400,-3.8722,0.1670,-0.3104,-1773.19,-1265.26,-1484.99
9410,-3.8721,0.1274,-0.3331,1383.06,265.93,811.89
9420,-3.8719,0.1047,-0.3608,320.56,1359.62,1124.33
9430,-3.8718,0.0934,-0.3828,1414.31,1812.68,1811.77
9440,-3.8717,0.0778,-0.3800,-38.82,-999.88,483.58
9450,-3.8718,0.0518,-0.3481,1961.18,-640.50,-735.17
9460,-3.8719,0.0261,-0.3073,-1366.94,-562.44,-1110.11
9470,-3.8721,0.0105,-0.2816,-648.19,671.88,1561.89
9480,-3.8722,0.0060,-0.2874,1351.81,-46.88,1140.01
9490,-3.8723,0.0012,-0.3182,773.68,-781.25,-78.74
9500,-3.8722,-0.0193,-0.3428,164.31,-734.38,-1672.55
9510,-3.8721,-0.0526,-0.3440,1539.31,140.56,1702.45
9520,-3.8719,-0.0844,-0.3302,1273.68,-15.75,186.77
9530,-3.8719,-0.1046,-0.3137,1211.18,1749.82,-1938.17
9540,-3.8718,-0.1110,-0.3044,-1382.57,-140.87,546.20
9550,-3.8718,-0.1075,-0.3026,1804.93,1046.63,-266.24
9560,-3.8717,-0.1007,-0.3019,-1757.57,1281.01,-875.61
9570,-3.8716,-0.0951,-0.3015,-882.57,1374.76,-859.99
9580,-3.8715,-0.0900,-0.3059,-163.82,1421.63,-250.61
9590,-3.8713,-0.0876,-0.3158,492.43,859.19,-47.49
9600,-3.8712,-0.0974,-0.3231,789.31,-406.43,-1094.42
9610,-3.8711,-0.1187,-0.3184,-460.69,-1343.99,1046.20
9620,-3.8711,-0.1415,-0.3015,820.56,-734.62,-453.80
9630,-3.8710,-0.1587,-0.2822,1898.68,1421.57,-1875.61
9640,-3.8710,-0.1676,-0.2659,-304.44,-109.74,-391.24
9650,-3.8708,-0.1653,-0.2479,-1445.07,1984.01,93.20
9660,-3.8708,-0.1536,-0.2275,-1148.19,280.88,437.01
9670,-3.8708,-0.1420,-0.2101,351.81,-1109.68,1030.76
9680,-3.8708,-0.1379,-0.1938,1836.18,1124.69,1608.95
9690,-3.8708,-0.1388,-0.1742,-1648.19,-797.18,1405.82
9700,-3.8708,-0.1356,-0.1545,-1757.57,1718.44,62.13
9710,-3.8710,-0.1288,-0.1447,-1351.32,234.07,-1344.06
9720,-3.8710,-0.1266,-0.1447,-476.32,1499.69,-1594.06
9730,-3.8710,-0.1294,-0.1440,-195.07,1499.69,-859.68
9740,-3.8710,-0.1344,-0.1389,-554.44,1577.82,-203.43
9750,-3.8710,-0.1359,-0.1332,-1195.07,-1765.93,-78.43
9760,-3.8708,-0.1302,-0.1316,-1382.57,-1031.56,93.44
9770,-3.8708,-0.1238,-0.1349,-663.82,-828.43,968.44
9780,-3.8708,-0.1237,-0.1396,164.31,-1250.24,-1578.43
9790,-3.8707,-0.1321,-0.1461,179.93,-1859.62,93.44
9800,-3.8707,-0.1503,-0.1571,-898.19,1312.19,1718.44
9810,-3.8707,-0.1747,-0.1719,773.68,-94.06,-937.87
9820,-3.8706,-0.1964,-0.1871,1648.68,-1984.74,343.38
9830,-3.8706,-0.2104,-0.2007,-1132.57,62.07,1718.38
9840,-3.8706,-0.2173,-0.2166,1070.56,-1672.30,-969.18
9850,-3.8706,-0.2268,-0.2325,195.56,296.45,-109.80
9860,-3.8706,-0.2477,-0.2323,-1023.19,-1750.49,-828.61
9870,-3.8706,-0.2715,-0.2277,304.93,-1719.24,1765.14
9880,-3.8706,-0.2869,-0.2437,1258.06,-1125.55,1249.51
9890,-3.8706,-0.2947,-0.2681,-710.69,827.51,827.64
9900,-3.8707,-0.2981,-0.2772,-1710.69,1702.51,-109.92
9910,-3.8707,-0.2970,-0.2756,1851.81,530.64,-1188.05
9920,-3.8707,-0.2946,-0.2791,1992.43,733.76,1593.20
9930,-3.8708,-0.2910,-0.2877,-1695.07,296.26,-281.80
9940,-3.8708,-0.2797,-0.2954,-1241.94,-813.11,1749.39
9950,-3.8708,-0.2578,-0.3036,211.18,-1797.42,546.26
9960,-3.8710,-0.2319,-0.3180,-991.94,1155.70,-125.61
9970,-3.8710,-0.2120,-0.3344,-1679.44,-687.99,-813.17
9980,-3.8710,-0.1987,-0.3374,867.43,1218.32,1936.83
9990,-3.8711,-0.1849,-0.3219,-1429.44,827.70,-656.92
10000,-3.8712,-0.1661,-0.2950,336.18,-1187.87,-360.05
10010,-3.8712,-0.1477,-0.2614,-1257.57,-1750.37,124.39
10020,-3.8713,-0.1429,-0.2250,1101.81,-1437.81,1546.33
10030,-3.8715,-0.1554,-0.1951,1711.18,-781.56,-484.86
10040,-3.8715,-0.1764,-0.1818,117.43,-953.43,1265.20
10050,-3.8716,-0.1897,-0.1863,1429.93,749.63,-937.87
10060,-3.8716,-0.1866,-0.2039,-273.19,171.45,-1922.24
10070,-3.8716,-0.1729,-0.2316,117.43,1921.51,-1344.18
10080,-3.8715,-0.1560,-0.2546,1883.06,-1625.37,593.26
10090,-3.8715,-0.1483,-0.2561,39.31,-578.43,-1016.17
10100,-3.8715,-0.1550,-0.2418,1023.68,-765.93,-125.55
10110,-3.8715,-0.1665,-0.2314,164.31,1062.19,-1484.86
10120,-3.8715,-0.1715,-0.2338,-1304.44,-1609.74,187.01
10130,-3.8716,-0.1687,-0.2466,-1945.07,-1906.62,-1859.86
10140,-3.8716,-0.1674,-0.2628,-1585.69,452.76,249.51
10150,-3.8717,-0.1735,-0.2765,-1413.82,-1625.37,-1516.17
10160,-3.8717,-0.1849,-0.2882,1804.93,624.63,1186.95
10170,-3.8717,-0.1984,-0.3021,336.18,-875.37,765.01
10180,-3.8717,-0.2114,-0.3203,-1382.57,1343.32,1499.39
10190,-3.8717,-0.2213,-0.3394,945.56,-984.80,-1641.30
10200,-3.8717,-0.2224,-0.3501,-320.07,577.64,1655.58
10210,-3.8718,-0.2120,-0.3503,-460.69,-797.36,-1125.73
10220,-3.8719,-0.1960,-0.3516,867.43,-828.55,-781.98
10230,-3.8721,-0.1840,-0.3691,-1085.69,-984.80,-110.11
10240,-3.8721,-0.1777,-0.4070,461.18,765.26,1249.27
10250,-3.8722,-0.1749,-0.4584,1258.06,-78.49,-985.23
10260,-3.8722,-0.1656,-0.5140,1617.43,1343.38,1170.96
10270,-3.8723,-0.1394,-0.5602,-1195.07,-1781.62,-282.29
10280,-3.8723,-0.0957,-0.5941,-1835.69,312.19,-1860.47
10290,-3.8723,-0.0352,-0.6246,-241.94,-31.49,436.28
10300,-3.8724,0.0330,-0.6492,-491.94,62.38,-173.10
10310,-3.8723,0.0955,-0.6583,226.81,906.31,1170.59
10320,-3.8723,0.1530,-0.6537,226.81,-265.44,-1095.09
10330,-3.8723,0.2084,-0.6488,-413.82,328.37,-876.28
10340,-3.8723,0.2528,-0.6527,-1320.07,953.49,-1485.66
10350,-3.8723,0.2794,-0.6636,367.43,453.61,-1313.78
10360,-3.8722,0.2922,-0.6741,-226.32,-937.01,76.78
10370,-3.8722,0.2981,-0.6798,1414.31,1719.30,1983.03
10380,-3.8722,0.3070,-0.6864,-1835.69,984.92,-376.34
10390,-3.8721,0.3308,-0.7028,-695.07,141.17,1014.28
10400,-3.8721,0.3640,-0.7317,-1648.19,-1952.51,-1470.15
10410,-3.8719,0.3972,-0.7616,-1398.19,-1655.58,857.91
10420,-3.8719,0.4398,-0.7826,-1148.19,-1483.64,-32.78
10430,-3.8718,0.4913,-0.7964,304.93,-171.02,-970.34
10440,-3.8717,0.5430,-0.7958,-1101.32,-1936.58,-1564.09
10450,-3.8716,0.5988,-0.7723,1508.06,-1858.34,1998.41
10460,-3.8716,0.6675,-0.7396,648.68,1141.78,-439.03
10470,-3.8716,0.7489,-0.7064,1445.56,1329.41,-1642.09
10480,-3.8717,0.8296,-0.6632,-132.57,1579.53,-548.28
10490,-3.8717,0.8992,-0.6132,-1804.44,-889.04,608.03
10500,-3.8718,0.9568,-0.5696,-898.19,1517.33,-516.85
10510,-3.8717,1.0081,-0.5383,-1523.19,-904.42,780.09
10520,-3.8716,1.0573,-0.5216,1039.31,-904.30,1420.78
10530,-3.8713,1.0984,-0.5154,-663.82,1236.39,1748.96
10540,-3.8711,1.1216,-0.5103,601.81,-1966.61,-704.16
10550,-3.8708,1.1251,-0.4933,-429.44,-1310.36,-563.54
10560,-3.8706,1.1102,-0.4673,23.68,861.57,1702.15
10570,-3.8705,1.0743,-0.4540,-1882.57,189.64,-1500.92
10580,-3.8704,1.0215,-0.4672,1523.68,1892.70,-1469.67
10590,-3.8702,0.9529,-0.4910,-1241.94,205.08,1717.83
10600,-3.8702,0.8711,-0.5001,1976.81,1158.08,-1297.85
10610,-3.8702,0.7917,-0.4878,-491.94,-13.98,858.34
10620,-3.8704,0.7251,-0.4642,1351.81,1564.03,858.40
10630,-3.8706,0.6652,-0.4479,820.56,579.53,-422.79
10640,-3.8707,0.6064,-0.4481,1148.68,-1326.84,1920.96
10650,-3.8708,0.5585,-0.4578,1633.06,-1358.22,405.33
10660,-3.8711,0.5322,-0.4690,-507.57,1407.29,-657.17
10670,-3.8711,0.5278,-0.4813,133.06,-30.21,124.02
10680,-3.8712,0.5343,-0.4904,-429.44,-1608.40,-360.35
10690,-3.8711,0.5416,-0.4963,398.68,1235.41,342.77
10700,-3.8711,0.5504,-0.5023,1336.18,469.79,702.15
10710,-3.8711,0.5654,-0.5012,-1538.82,-295.84,311.46
10720,-3.8712,0.5898,-0.4924,383.06,-155.15,-844.79
10730,-3.8712,0.6187,-0.4857,-491.94,969.85,1905.27
10740,-3.8712,0.6362,-0.4896,-804.44,1829.28,530.27
10750,-3.8713,0.6296,-0.5004,1445.56,1329.35,-1969.73
10760,-3.8715,0.6045,-0.5034,601.81,-45.65,1748.96
10770,-3.8716,0.5814,-0.4937,1383.06,-436.34,45.84
10780,-3.8718,0.5728,-0.4814,-1570.07,813.60,-1688.48
10790,-3.8719,0.5786,-0.4821,1320.56,-1623.90,1952.15
10800,-3.8719,0.5945,-0.5006,-1929.44,-1702.03,92.77
10810,-3.8719,0.6053,-0.5251,101.81,-76.97,389.59
10820,-3.8719,0.5986,-0.5409,1492.43,782.41,1795.84
10830,-3.8719,0.5726,-0.5457,633.06,-1233.22,-297.97
10840,-3.8718,0.5304,-0.5476,1304.93,-1842.65,1389.53
10850,-3.8718,0.4833,-0.5554,-101.32,1907.23,-1141.72
10860,-3.8717,0.4449,-0.5649,1867.43,907.17,498.90
10870,-3.8717,0.4130,-0.5674,961.18,-311.65,1920.72
10880,-3.8717,0.3812,-0.5576,867.43,-624.21,-1251.16
10890,-3.8717,0.3512,-0.5356,804.93,625.73,-1063.60
10900,-3.8717,0.3280,-0.5110,961.18,-561.83,-1172.97
10910,-3.8717,0.3148,-0.4938,1992.43,-1405.64,-860.41
10920,-3.8717,0.3064,-0.4841,304.93,797.49,-79.10
10930,-3.8716,0.2992,-0.4739,-773.19,-1968.20,295.90
10940,-3.8717,0.2977,-0.4536,-1695.07,-655.70,-79.10
10950,-3.8717,0.3055,-0.4281,-1882.57,1938.05,-954.04
10960,-3.8717,0.3158,-0.4109,-882.57,1203.67,1842.90
10970,-3.8717,0.3126,-0.4053,429.93,-593.14,217.90
10980,-3.8718,0.2820,-0.3983,23.68,125.61,1702.33
10990,-3.8719,0.2292,-0.3773,101.81,1016.17,-1907.04
11000,-3.8721,0.1837,-0.3523,1351.81,-296.45,-1985.17
11010,-3.8722,0.1613,-0.3539,-476.32,-1093.44,-1391.36
11020,-3.8722,0.1515,-0.3835,648.68,-1296.57,1796.14
11030,-3.8721,0.1431,-0.4081,-601.32,-1093.51,405.46
11040,-3.8719,0.1394,-0.4152,-1679.44,-234.13,671.02
11050,-3.8718,0.1493,-0.4192,1851.81,-1140.38,421.02
11060,-3.8718,0.1705,-0.4298,-882.57,-1656.01,-469.60
11070,-3.8717,0.1821,-0.4509,1836.18,984.68,-1516.48
11080,-3.8716,0.1754,-0.4738,-679.44,-1718.44,-1235.29
11090,-3.8713,0.1646,-0.4763,-1538.82,-640.32,530.27
11100,-3.8712,0.1569,-0.4601,1070.56,-968.44,733.40
11110,-3.8712,0.1604,-0.4465,86.18,1109.68,1983.46
11120,-3.8712,0.1768,-0.4468,539.31,-1155.94,1170.96
11130,-3.8713,0.1962,-0.4512,-1366.94,-1187.19,-63.42
11140,-3.8713,0.2114,-0.4526,1117.43,-1749.63,-1110.29
11150,-3.8713,0.2229,-0.4534,-929.44,-1937.13,1749.08
11160,-3.8713,0.2344,-0.4504,539.31,1969.18,670.96
11170,-3.8715,0.2412,-0.4443,-1991.94,-1655.82,-172.79
11180,-3.8715,0.2372,-0.4354,-1116.94,-874.57,-641.54
11190,-3.8715,0.2233,-0.4216,-1632.57,266.05,-1125.85
11200,-3.8715,0.2073,-0.4052,586.18,-1968.32,1702.27
11210,-3.8715,0.1953,-0.3922,-1460.69,140.99,92.96
11220,-3.8716,0.1832,-0.3899,1008.06,1797.24,-1641.42
11230,-3.8716,0.1630,-0.3899,-538.82,-1905.94,311.71
11240,-3.8717,0.1320,-0.3777,867.43,-1905.94,-1953.92
11250,-3.8717,0.0953,-0.3590,898.68,-343.51,592.96
11260,-3.8717,0.0631,-0.3422,211.18,-1952.94,639.89
11270,-3.8717,0.0457,-0.3204,86.18,203.25,1764.95
11280,-3.8717,0.0463,-0.2899,1851.81,-1015.56,-281.92
11290,-3.8716,0.0646,-0.2607,1929.93,-1109.31,-1672.49
11300,-3.8715,0.0900,-0.2385,273.68,-1374.88,968.20
11310,-3.8715,0.1045,-0.2161,-476.32,1468.87,-1156.74
11320,-3.8715,0.1024,-0.1932,1383.06,343.93,-344.18
11330,-3.8715,0.0927,-0.1804,1117.43,-734.19,-344.18
11340,-3.8715,0.0844,-0.1790,-132.57,906.37,-625.37
11350,-3.8715,0.0812,-0.1780,-1195.07,1093.87,-672.24
11360,-3.8713,0.0858,-0.1725,-1601.32,1218.87,140.26
11370,-3.8713,0.0961,-0.1709,-1007.57,1922.00,-1969.12
11380,-3.8712,0.1056,-0.1741,304.93,-1874.82,421.51
11390,-3.8712,0.1102,-0.1733,1523.68,1718.93,-1719.12
11400,-3.8712,0.1151,-0.1685,-1882.57,1812.68,-328.49
11410,-3.8711,0.1255,-0.1721,-1257.57,-1562.32,1562.13
11420,-3.8710,0.1343,-0.1892,70.56,1968.99,93.38
11430,-3.8710,0.1329,-0.2073,1195.56,-218.51,-1656.68
11440,-3.8710,0.1169,-0.2141,1023.68,1468.99,-453.55
11450,-3.8710,0.0889,-0.2113,-1023.19,593.93,-172.30
11460,-3.8710,0.0638,-0.2137,-616.94,953.25,-625.43
11470,-3.8710,0.0559,-0.2234,179.93,640.75,-1562.93
11480,-3.8710,0.0623,-0.2297,-835.69,-593.69,1702.64
11490,-3.8710,0.0737,-0.2332,-23.19,-1406.19,1562.01
11500,-3.8710,0.0829,-0.2367,1445.56,-1843.63,1843.26
11510,-3.8710,0.0802,-0.2374,-1382.57,1703.25,-1812.99
11520,-3.8710,0.0638,-0.2343,-1726.32,1609.50,-1500.49
11530,-3.8710,0.0428,-0.2313,179.93,-1984.25,-1484.86
11540,-3.8710,0.0253,-0.2311,1492.43,-1609.31,-1516.11
11550,-3.8710,0.0138,-0.2321,-757.57,-1578.12,-1359.86
11560,-3.8710,0.0057,-0.2354,1773.68,-1703.12,-1156.74
11570,-3.8710,-0.0033,-0.2416,742.43,1875.00,-797.36
11580,-3.8710,-0.0140,-0.2454,-413.82,1093.69,-141.11
11590,-3.8708,-0.0251,-0.2441,-1788.82,609.31,390.14
11600,-3.8708,-0.0404,-0.2460,789.31,765.56,468.26
11610,-3.8708,-0.0624,-0.2552,-1163.82,531.13,405.76
11620,-3.8708,-0.0842,-0.2655,23.68,-656.37,921.33
11630,-3.8708,-0.0958,-0.2710,1226.81,-1968.93,-1922.42
11640,-3.8708,-0.0925,-0.2737,-257.57,1327.88,-594.30
11650,-3.8707,-0.0801,-0.2783,164.31,984.19,843.20
11660,-3.8707,-0.0690,-0.2866,1758.06,390.44,-1547.42
11670,-3.8707,-0.0653,-0.2954,-820.07,-672.06,-234.99
11680,-3.8706,-0.0695,-0.3015,-351.32,-1797.06,405.64
11690,-3.8706,-0.0806,-0.3060,-882.57,1421.69,124.39
11700,-3.8707,-0.0974,-0.3094,1695.56,843.57,-1078.74
11710,-3.8707,-0.1139,-0.3114,-460.69,406.01,1140.01
11720,-3.8708,-0.1204,-0.3127,1429.93,156.01,-859.99
11730,-3.8708,-0.1158,-0.3114,601.81,-15.87,1280.58
11740,-3.8710,-0.1101,-0.3054,1179.93,156.01,-531.86
11750,-3.8710,-0.1079,-0.2946,1914.31,921.63,1077.51
11760,-3.8711,-0.1021,-0.2838,-1804.44,-1687.74,1796.26
11770,-3.8712,-0.0757,-0.2830,-1054.44,-312.74,-1484.99
11780,-3.8712,-0.0253,-0.2966,-1679.44,-203.31,890.01
11790,-3.8712,0.0244,-0.3169,773.68,-1953.19,1983.76
11800,-3.8711,0.0442,-0.3313,-866.94,-562.50,1421.20
11810,-3.8710,0.0265,-0.3396,1664.31,1593.81,1671.20
11820,-3.8708,-0.0115,-0.3467,-601.32,531.25,749.33
11830,-3.8708,-0.0477,-0.3534,-1460.69,-359.44,1874.27
11840,-3.8708,-0.0708,-0.3596,1898.68,-1218.87,1296.14
11850,-3.8710,-0.0754,-0.3641,-1054.44,1984.19,-563.23
11860,-3.8710,-0.0613,-0.3685,-1648.19,1406.07,952.39
11870,-3.8711,-0.0409,-0.3743,164.31,843.63,-1063.23
11880,-3.8711,-0.0294,-0.3757,-1226.32,109.25,1686.77
11890,-3.8711,-0.0317,-0.3691,242.43,-78.19,389.83
11900,-3.8712,-0.0453,-0.3590,-54.44,765.50,-1625.73
11910,-3.8713,-0.0586,-0.3544,-1788.82,-1937.62,-313.23
11920,-3.8713,-0.0631,-0.3578,508.06,-1343.87,780.52
11930,-3.8715,-0.0629,-0.3679,-70.07,-1781.43,-1735.11
11940,-3.8715,-0.0618,-0.3867,-38.82,921.69,93.02
11950,-3.8716,-0.0590,-0.4133,101.81,-1484.50,1967.96
11960,-3.8716,-0.0537,-0.4396,461.18,-890.75,124.15
11970,-3.8717,-0.0480,-0.4591,1133.06,-250.12,-1157.17
11980,-3.8717,-0.0433,-0.4685,1867.43,1249.88,1561.58
11990,-3.8718,-0.0396,-0.4690,-1538.82,46.75,-579.04
12000,-3.8718,-0.0356,-0.4647,-1054.44,-15.75,561.52
12010,-3.8719,-0.0353,-0.4602,-554.44,531.13,1608.46
12020,-3.8721,-0.0383,-0.4623,-507.57,1109.25,-672.79
12030,-3.8721,-0.0367,-0.4736,-898.19,843.63,-1813.42
12040,-3.8721,-0.0310,-0.4900,-695.07,-609.50,-1829.10
12050,-3.8721,-0.0255,-0.5052,39.31,1296.81,-1313.48
12060,-3.8721,-0.0197,-0.5148,742.43,-656.31,-1016.66
12070,-3.8721,-0.0094,-0.5154,1492.43,-1875.06,-1063.54
12080,-3.8721,0.0078,-0.5099,-1195.07,-1953.19,-1157.29
12090,-3.8721,0.0280,-0.5082,1008.06,-1265.62,-1126.04
12100,-3.8721,0.0469,-0.5122,-413.82,-1046.88,-1047.91
12110,-3.8721,0.0656,-0.5117,-1991.94,-1562.44,-907.29
12120,-3.8721,0.0852,-0.5068,398.68,-1499.88,-985.41
12130,-3.8721,0.1005,-0.5071,-1085.69,-874.88,-1782.29
12140,-3.8721,0.1082,-0.5131,867.43,-906.07,670.84
12150,-3.8722,0.1133,-0.5148,1851.81,-1671.69,-1454.16
12160,-3.8722,0.1216,-0.5043,-1491.94,-1890.44,170.84
12170,-3.8723,0.1371,-0.4908,-429.44,-546.69,-1735.41
12180,-3.8723,0.1600,-0.4928,1554.93,1172.12,1374.02
12190,-3.8723,0.1831,-0.5153,492.43,922.18,1842.77
12200,-3.8722,0.2012,-0.5452,-554.44,-1952.82,295.84
12210,-3.8722,0.2136,-0.5718,1758.06,-1780.88,-94.85
12220,-3.8721,0.2175,-0.5919,-648.19,-1187.13,-1001.16
12230,-3.8719,0.2174,-0.6061,-148.19,234.74,811.34
12240,-3.8719,0.2223,-0.6195,-163.82,-1577.76,1061.28
12250,-3.8719,0.2366,-0.6371,461.18,703.55,545.65
12260,-3.8719,0.2598,-0.6594,-1710.69,-1546.45,29.97
12270,-3.8721,0.2817,-0.6752,1258.06,-405.76,-1188.84
12280,-3.8721,0.2988,-0.6769,70.56,1578.67,1342.41
12290,-3.8721,0.3116,-0.6790,-1741.94,1359.92,920.53
12300,-3.8721,0.3206,-0.6974,-101.32,1094.30,-1563.84
12310,-3.8719,0.3280,-0.7377,1039.31,-1265.01,1670.47
12320,-3.8718,0.3291,-0.7981,1992.43,1578.74,1045.41
12330,-3.8718,0.3137,-0.8557,-1866.94,1844.36,-548.46
12340,-3.8717,0.2830,-0.8859,164.31,-1530.64,310.79
12350,-3.8718,0.2551,-0.8881,226.81,-1390.08,-439.27
12360,-3.8718,0.2594,-0.8655,664.31,-1671.39,-1533.02
12370,-3.8718,0.3245,-0.8325,1211.18,1219.24,-1064.21
12380,-3.8717,0.4486,-0.8116,1539.31,1438.11,1701.48
12390,-3.8716,0.5980,-0.7958,1429.93,110.23,-751.59
12400,-3.8713,0.7566,-0.7653,554.93,-1858.22,-1048.46
12410,-3.8711,0.9208,-0.7128,851.81,-1951.66,-329.65
12420,-3.8707,1.0776,-0.6506,1867.43,767.40,1404.85
12430,-3.8704,1.2186,-0.5938,1945.56,720.83,576.84
12440,-3.8700,1.3383,-0.5428,-7.57,2.32,483.22
12450,-3.8698,1.4045,-0.5083,-695.07,-1481.81,-1829.22
12460,-3.8696,1.3700,-0.4945,-210.69,-1059.81,-1282.29
12470,-3.8696,1.2263,-0.4900,-632.57,705.75,1061.52
12480,-3.8699,1.0051,-0.4818,976.81,1283.63,952.15
12490,-3.8704,0.7562,-0.4651,664.31,-1669.92,-875.98
12500,-3.8708,0.5359,-0.4409,804.93,470.21,-1594.67
12510,-3.8713,0.3698,-0.4098,601.81,-436.46,-1563.42
12520,-3.8717,0.2437,-0.3810,-663.82,-452.45,-1891.48
12530,-3.8719,0.1453,-0.3693,-804.44,-765.20,-1235.17
12540,-3.8721,0.0676,-0.3816,-1398.19,734.62,-203.86
12550,-3.8721,-0.0011,-0.4087,664.31,-843.63,-1000.79
12560,-3.8721,-0.0520,-0.4305,-132.57,-296.94,-1313.35
12570,-3.8721,-0.0603,-0.4360,1351.81,906.13,-1094.60
12580,-3.8719,-0.0127,-0.4301,289.31,203.00,514.77
12590,-3.8718,0.0876,-0.4264,-1616.94,968.69,155.40
12600,-3.8717,0.2213,-0.4342,-773.19,1422.00,1655.40
12610,-3.8716,0.3622,-0.4481,336.18,422.30,-188.35
12620,-3.8713,0.4911,-0.4548,-1632.57,-1358.70,1467.83
12630,-3.8712,0.5934,-0.4503,-1132.57,1782.17,1702.21
12640,-3.8712,0.6606,-0.4451,-38.82,-1639.53,-954.04
12650,-3.8712,0.6886,-0.4479,570.56,-967.47,999.08
12660,-3.8713,0.6776,-0.4603,148.68,-1326.78,1530.33
12670,-3.8715,0.6447,-0.4851,-1257.57,1079.41,-860.29
12680,-3.8715,0.6127,-0.5150,-1476.32,1907.47,-1704.10
12690,-3.8715,0.5918,-0.5367,-1570.07,-1920.72,-1641.66
12700,-3.8715,0.5812,-0.5485,-241.94,-702.03,-1063.60
12710,-3.8715,0.5778,-0.5559,-1601.32,1797.97,-454.22
12720,-3.8715,0.5823,-0.5629,1961.18,844.85,-516.72
12730,-3.8715,0.5959,-0.5745,-1460.69,-45.78,1748.84
12740,-3.8716,0.6053,-0.5892,289.31,-1530.09,-1673.03
12750,-3.8717,0.5903,-0.6007,1492.43,579.28,-969.91
12760,-3.8717,0.5474,-0.6080,-429.44,-889.53,1264.40
12770,-3.8717,0.4802,-0.6195,-1929.44,-1827.09,639.40
12780,-3.8717,0.3973,-0.6405,1476.81,704.04,889.40
12790,-3.8717,0.3162,-0.6621,-1132.57,-1983.64,-1688.78
12800,-3.8716,0.2500,-0.6772,476.81,-749.39,608.03
12810,-3.8715,0.2106,-0.6824,8.06,1312.99,186.16
12820,-3.8713,0.2050,-0.6777,-1038.82,656.62,701.78
12830,-3.8713,0.2279,-0.6659,-1757.57,1250.37,-501.34
12840,-3.8713,0.2660,-0.6437,1179.93,-1233.95,-860.72
12850,-3.8715,0.3036,-0.6112,-1945.07,1609.86,-110.66
12860,-3.8716,0.3313,-0.5778,-1132.57,1766.17,-751.22
12870,-3.8717,0.3483,-0.5500,-1585.69,-1952.51,-1079.28
12880,-3.8718,0.3600,-0.5251,586.18,1594.42,-204.22
12890,-3.8718,0.3722,-0.5073,-1913.82,781.92,-1141.66
12900,-3.8718,0.3811,-0.5040,-351.32,-936.83,-79.16
12910,-3.8717,0.3795,-0.5099,789.31,-514.89,1733.34
12920,-3.8717,0.3650,-0.5137,586.18,-1264.89,-360.41
12930,-3.8716,0.3427,-0.5072,-1273.19,-1749.33,1202.09
12940,-3.8716,0.3209,-0.4867,-132.57,-921.26,1655.21
12950,-3.8716,0.3053,-0.4564,1086.18,1703.74,311.52
12960,-3.8717,0.2955,-0.4259,-913.82,1578.67,1327.21
12970,-3.8718,0.2888,-0.4037,1836.18,1484.92,1858.52
12980,-3.8719,0.2841,-0.3885,976.81,328.67,-1172.67
12990,-3.8719,0.2819,-0.3735,367.43,-1733.83,296.08
13000,-3.8721,0.2806,-0.3639,86.18,188.05,-1797.61
13010,-3.8721,0.2814,-0.3661,-70.07,1422.36,1843.02
13020,-3.8719,0.2847,-0.3628,23.68,1141.17,1139.89
13030,-3.8718,0.2844,-0.3434,445.56,1563.05,-1578.86
13040,-3.8717,0.2762,-0.3221,414.31,47.42,-1813.17
13050,-3.8717,0.2618,-0.3105,-632.57,-1233.89,-547.55
13060,-3.8717,0.2445,-0.3032,1523.68,250.49,-1313.11
13070,-3.8717,0.2288,-0.2910,-695.07,1187.93,311.89
13080,-3.8718,0.2225,-0.2743,1289.31,-1249.57,1030.64
13090,-3.8719,0.2350,-0.2571,492.43,891.05,1593.20
13100,-3.8721,0.2668,-0.2443,-1913.82,-905.82,-1328.67
13110,-3.8721,0.3051,-0.2390,-1835.69,734.86,827.64
13120,-3.8722,0.3342,-0.2352,-945.07,1406.80,-156.74
13130,-3.8722,0.3461,-0.2367,-1210.69,1891.24,-484.86
13140,-3.8721,0.3330,-0.2471,304.93,1703.80,46.39
13150,-3.8721,0.2877,-0.2576,-1366.94,375.61,327.64
13160,-3.8722,0.2290,-0.2662,836.18,-968.20,-516.17
13170,-3.8722,0.1893,-0.2780,1320.56,1922.30,-1438.05
13180,-3.8722,0.1761,-0.3036,242.43,422.24,-1984.92
13190,-3.8722,0.1798,-0.3495,-1445.07,1140.93,-1922.49
13200,-3.8722,0.1885,-0.4059,-976.32,-734.07,-906.98
13210,-3.8721,0.1913,-0.4592,133.06,47.24,1389.83
13220,-3.8719,0.1804,-0.5045,492.43,1219.12,-1875.92
13230,-3.8717,0.1632,-0.5342,-898.19,-577.82,1436.46
13240,-3.8715,0.1531,-0.5422,898.68,-374.69,1795.78
13250,-3.8712,0.1559,-0.5330,-398.19,-1406.01,1498.90
13260,-3.8711,0.1735,-0.5195,-38.82,-218.51,-594.85
13270,-3.8710,0.2025,-0.5181,-1788.82,1500.31,-1063.54
13280,-3.8708,0.2289,-0.5261,1929.93,1687.87,248.96
13290,-3.8710,0.2383,-0.5237,1304.93,656.68,-126.04
13300,-3.8710,0.2335,-0.5062,-1491.94,969.18,-1782.29
13310,-3.8710,0.2292,-0.4884,1898.68,-796.45,186.46
13320,-3.8711,0.2356,-0.4786,1351.81,1484.80,-1829.10
13330,-3.8712,0.2480,-0.4702,-1835.69,-1265.20,-32.23
13340,-3.8712,0.2546,-0.4526,-241.94,-187.07,1655.27
13350,-3.8713,0.2466,-0.4276,601.81,-1937.01,-891.54
13360,-3.8715,0.2239,-0.4027,-429.44,1266.05,-313.35
13370,-3.8716,0.1902,-0.3816,664.31,453.55,-813.29
13380,-3.8717,0.1566,-0.3634,351.81,-843.38,-1188.29
13390,-3.8718,0.1392,-0.3479,54.93,1484.68,-375.73
13400,-3.8718,0.1420,-0.3403,1820.56,-531.01,1577.39
13410,-3.8718,0.1599,-0.3424,-1820.07,437.74,452.45
13420,-3.8718,0.1799,-0.3463,476.81,172.18,389.95
13430,-3.8718,0.1893,-0.3444,-960.69,-327.82,1905.52
13440,-3.8717,0.1898,-0.3413,242.43,-77.76,296.14
13450,-3.8717,0.1892,-0.3435,304.93,312.87,-1078.80
13460,-3.8716,0.1918,-0.3516,226.81,31.62,-1828.80
13470,-3.8715,0.1937,-0.3660,554.93,-999.63,-1813.23
13480,-3.8713,0.1882,-0.3848,804.93,1156.62,1921.14
13490,-3.8712,0.1755,-0.4000,101.81,-1249.63,186.71
13500,-3.8712,0.1638,-0.4070,-1523.19,797.18,1233.58
13510,-3.8712,0.1589,-0.4089,976.81,-93.44,1983.52
13520,-3.8712,0.1558,-0.4093,351.81,-343.44,-1063.35
13530,-3.8712,0.1493,-0.4087,-54.44,-390.38,-63.35
13540,-3.8711,0.1399,-0.4084,-882.57,-312.26,827.27
13550,-3.8711,0.1282,-0.4102,1914.31,-281.01,1811.65
13560,-3.8711,0.1140,-0.4141,414.31,-499.76,-1328.98
13570,-3.8711,0.0988,-0.4186,-1398.19,-999.82,-907.10
13580,-3.8711,0.0847,-0.4233,648.68,-1577.94,-703.98
13590,-3.8711,0.0746,-0.4296,-1148.19,1812.62,-453.98
13600,-3.8710,0.0719,-0.4354,1554.93,1015.75,155.40
13610,-3.8710,0.0759,-0.4407,1211.18,265.75,1546.02
13620,-3.8710,0.0775,-0.4473,1726.81,-406.13,-563.42
13630,-3.8708,0.0708,-0.4556,1929.93,-1249.88,1108.46
13640,-3.8708,0.0564,-0.4653,1070.56,1687.62,-1844.67
13650,-3.8708,0.0387,-0.4741,-773.19,437.56,-1719.67
13660,-3.8708,0.0221,-0.4810,961.18,-687.44,1686.52
13670,-3.8708,0.0106,-0.4855,-1163.82,-1562.50,749.02
13680,-3.8710,0.0060,-0.4862,1367.43,1859.38,-547.85
13690,-3.8710,0.0035,-0.4883,773.68,1765.62,-1688.48
13700,-3.8710,-0.0006,-0.4991,461.18,1500.00,1811.52
13710,-3.8710,-0.0074,-0.5173,-70.07,124.94,1686.52
13720,-3.8710,-0.0139,-0.5363,-945.07,1796.81,1498.96
13730,-3.8710,-0.0166,-0.5533,-1773.19,-625.06,1155.15
13740,-3.8710,-0.0175,-0.5704,1883.06,1187.44,686.40
13750,-3.8710,-0.0205,-0.5886,1773.68,-1000.06,45.72
13760,-3.8711,-0.0261,-0.6068,1383.06,671.81,-391.78
13770,-3.8711,-0.0310,-0.6201,664.31,-1656.31,-407.47
13780,-3.8711,-0.0327,-0.6312,39.31,640.56,-657.47
13790,-3.8711,-0.0322,-0.6505,-179.44,-781.37,1998.72
13800,-3.8712,-0.0283,-0.6702,-116.94,749.88,-63.78
13810,-3.8712,-0.0170,-0.6741,383.06,-1765.69,-1782.59
13820,-3.8712,0.0045,-0.6620,1836.18,1734.31,1092.41
13830,-3.8712,0.0322,-0.6464,586.18,-734.38,29.91
13840,-3.8713,0.0553,-0.6323,133.06,1265.69,-1345.03
13850,-3.8713,0.0662,-0.6134,-913.82,-937.44,748.72
13860,-3.8715,0.0673,-0.5891,476.81,1484.50,-1594.97
13870,-3.8716,0.0680,-0.5685,617.43,593.87,-282.41
13880,-3.8716,0.0717,-0.5531,711.18,-765.50,1233.22
13890,-3.8717,0.0731,-0.5352,1179.93,1203.25,-485.47
13900,-3.8717,0.0741,-0.5164,1367.43,-499.88,-1641.72
13910,-3.8717,0.0848,-0.5001,1492.43,1906.37,1217.71
13920,-3.8718,0.1134,-0.4843,-1132.57,-15.50,-126.04
13930,-3.8718,0.1566,-0.4731,-1476.32,-1984.19,-1719.73
13940,-3.8718,0.1985,-0.4694,54.93,-562.19,514.65
13950,-3.8719,0.2233,-0.4614,1414.31,-77.76,-1297.85
13960,-3.8719,0.2311,-0.4423,586.18,937.93,1108.46
13970,-3.8721,0.2263,-0.4135,1586.18,-608.95,-32.17
13980,-3.8721,0.2103,-0.3799,976.81,-921.45,-891.48
13990,-3.8721,0.1913,-0.3567,-1070.07,-624.63,-1172.67
14000,-3.8721,0.1786,-0.3541,492.43,-1655.88,-594.48
14010,-3.8719,0.1772,-0.3606,-1132.57,-1327.82,46.14
14020,-3.8721,0.1935,-0.3617,-1304.44,1844.06,-47.61
14030,-3.8721,0.2250,-0.3606,773.68,1703.49,-563.23
14040,-3.8721,0.2511,-0.3644,804.93,1844.18,-735.11
14050,-3.8721,0.2544,-0.3711,148.68,1359.86,-125.73
14060,-3.8719,0.2394,-0.3722,570.56,500.49,811.77
14070,-3.8719,0.2208,-0.3638,-1351.32,359.80,1530.52
14080,-3.8719,0.2054,-0.3588,273.68,1437.93,-1610.11
14090,-3.8719,0.1926,-0.3655,-1695.07,-1921.51,-703.86
14100,-3.8719,0.1752,-0.3804,664.31,1219.12,-125.73
14110,-3.8718,0.1439,-0.4005,-1570.07,-687.19,264.83
14120,-3.8718,0.1010,-0.4229,-1570.07,734.62,436.71
14130,-3.8719,0.0676,-0.4459,929.93,1875.18,-453.98
14140,-3.8721,0.0664,-0.4631,664.31,-1078.00,-125.92
14150,-3.8722,0.0808,-0.4653,508.06,718.87,655.33
14160,-3.8724,0.0824,-0.4504,-1648.19,437.62,1920.96
14170,-3.8726,0.0710,-0.4325,-1445.07,-1656.13,-1532.17
14180,-3.8726,0.0652,-0.4393,1101.81,640.75,999.15
14190,-3.8726,0.0845,-0.4830,351.81,-234.25,842.83
14200,-3.8726,0.1296,-0.5531,-1179.44,-1828.00,1170.90
14210,-3.8726,0.1627,-0.6260,601.81,1203.37,-1438.60
14220,-3.8724,0.1335,-0.6615,836.18,-124.69,-1501.28
14230,-3.8722,0.0555,-0.6586,1101.81,-671.63,1811.16
14240,-3.8719,-0.0100,-0.6781,-882.57,-296.81,-1845.09
14250,-3.8717,-0.0267,-0.7439,-1273.19,1218.69,358.03
14260,-3.8717,0.0066,-0.8156,586.18,796.81,-48.34
14270,-3.8716,0.0751,-0.8582,851.81,-390.62,342.10
14280,-3.8717,0.1533,-0.8718,1617.43,-1843.63,1263.92
14290,-3.8718,0.2194,-0.8719,-366.94,406.49,1201.42
14300,-3.8719,0.2664,-0.8785,86.18,391.05,-829.83
14310,-3.8718,0.2993,-0.8992,-1898.19,-452.64,123.23
14320,-3.8718,0.3420,-0.9176,-1679.44,906.80,-1314.27
14330,-3.8717,0.4231,-0.9150,-210.69,-1452.51,685.67
14340,-3.8717,0.5535,-0.8878,-1835.69,-1124.21,-1829.96
14350,-3.8717,0.7152,-0.8501,-1148.19,-1639.59,-111.15
14360,-3.8716,0.8717,-0.8062,-445.07,-811.16,1513.92
14370,-3.8715,1.0034,-0.7500,-413.82,814.15,295.29
14380,-3.8713,1.1171,-0.6843,445.56,1.95,1639.16
14390,-3.8711,1.2220,-0.6191,-1007.57,408.39,1123.66
14400,-3.8708,1.3062,-0.5692,429.93,752.38,1389.40
14410,-3.8706,1.3391,-0.5392,-804.44,-856.87,280.09
14420,-3.8706,1.3102,-0.5198,-585.69,-1013.06,-32.35
14430,-3.8705,1.2404,-0.5012,-288.82,1471.25,139.59
14440,-3.8706,1.1525,-0.4821,-1226.32,-153.87,1655.21
14450,-3.8707,1.0592,-0.4719,-476.32,-1700.93,1811.52
14460,-3.8708,0.9666,-0.4900,-413.82,-404.24,-1938.48
14470,-3.8710,0.8661,-0.5342,-273.19,1283.08,-532.23
14480,-3.8710,0.7628,-0.5807,-1132.57,-373.35,-110.47
14490,-3.8708,0.6858,-0.6254,1648.68,1673.34,-298.03
14500,-3.8706,0.6481,-0.6686,-210.69,-45.59,483.09
14510,-3.8706,0.6373,-0.6979,-1038.82,-1576.90,-298.22
14520,-3.8706,0.6338,-0.7118,1586.18,-1326.90,-282.65
14530,-3.8706,0.6201,-0.7190,1133.06,891.85,1092.35
14540,-3.8707,0.5814,-0.7328,-616.94,-30.09,1795.41
14550,-3.8708,0.5089,-0.7537,-1570.07,-1795.78,-1204.59
14560,-3.8710,0.4169,-0.7639,1148.68,-467.77,-79.65
14570,-3.8710,0.3324,-0.7552,1367.43,-1780.46,342.22
14580,-3.8712,0.2745,-0.7319,-1445.07,-671.26,-423.40
14590,-3.8713,0.2383,-0.7037,-851.32,-1687.01,-1907.71
14600,-3.8715,0.2012,-0.6853,-1491.94,1922.30,1170.47
14610,-3.8716,0.1583,-0.6897,1758.06,281.62,-1376.34
14620,-3.8716,0.1150,-0.7173,273.68,-280.94,-642.03
14630,-3.8715,0.0657,-0.7531,-1273.19,187.68,-1235.78
14640,-3.8713,0.0112,-0.7784,414.31,-390.50,-157.78
14650,-3.8711,-0.0400,-0.7905,1445.56,359.38,1592.22
14660,-3.8710,-0.0807,-0.7948,-1116.94,-1172.00,-1595.34
14670,-3.8710,-0.1067,-0.7855,1679.93,-1718.93,-64.09
14680,-3.8710,-0.1160,-0.7548,-1648.19,-531.49,1482.79
14690,-3.8711,-0.1158,-0.7067,1164.31,-593.99,576.60
14700,-3.8713,-0.1228,-0.6521,1179.93,1562.26,-1142.03
14710,-3.8715,-0.1405,-0.6018,289.31,546.63,1654.97
14720,-3.8716,-0.1572,-0.5612,-1976.32,-1015.93,-1844.97
14730,-3.8716,-0.1632,-0.5305,-116.94,187.13,1311.40
14740,-3.8716,-0.1576,-0.5111,-882.57,109.01,-344.79
14750,-3.8713,-0.1367,-0.5006,-163.82,-1406.62,592.71
14760,-3.8712,-0.0891,-0.4911,-1491.94,-62.81,-1751.04
14770,-3.8711,-0.0150,-0.4758,601.81,1156.07,-1141.60
14780,-3.8710,0.0636,-0.4509,-1913.82,-890.69,1202.15
14790,-3.8710,0.1248,-0.4167,148.68,-1718.63,670.96
14800,-3.8711,0.1553,-0.3828,-23.19,-1343.57,-1750.85
14810,-3.8711,0.1573,-0.3606,-116.94,-999.76,592.96
14820,-3.8711,0.1498,-0.3474,148.68,1844.06,327.39
14830,-3.8712,0.1466,-0.3271,-820.07,-468.51,-422.61
14840,-3.8712,0.1547,-0.2877,-1226.32,-1874.76,1483.70
14850,-3.8713,0.1742,-0.2365,-195.07,-827.88,-1750.61
14860,-3.8715,0.1992,-0.1871,-1695.07,1734.68,-1609.86
14870,-3.8716,0.2188,-0.1460,1508.06,47.24,-1719.12
14880,-3.8717,0.2288,-0.1201,8.06,1312.93,-1125.31
14890,-3.8717,0.2397,-0.1122,1289.31,625.43,1531.01
14900,-3.8717,0.2552,-0.1166,-1304.44,1641.05,-1656.49
14910,-3.8716,0.2646,-0.1273,679.93,1078.61,452.88
14920,-3.8716,0.2572,-0.1427,1883.06,-296.39,-687.81
14930,-3.8715,0.2330,-0.1626,929.93,1734.86,-1031.56
14940,-3.8713,0.2024,-0.1755,1836.18,-812.07,-1765.99
14950,-3.8713,0.1764,-0.1683,1914.31,1531.62,-672.24
14960,-3.8713,0.1588,-0.1449,-1413.82,-1546.57,-1687.87
14970,-3.8713,0.1479,-0.1199,336.18,1453.43,359.07
14980,-3.8715,0.1373,-0.1023,-1054.44,656.49,1952.88
14990,-3.8716,0.1215,-0.0905,1586.18,-1093.51,-500.24
15000,-3.8716,0.1008,-0.0830,-445.07,422.06,1765.44
15010,-3.8716,0.0853,-0.0835,914.31,1375.18,1202.94
15020,-3.8716,0.0870,-0.0958,-1070.07,1312.62,1515.44
15030,-3.8716,0.1061,-0.1190,-851.32,-265.50,1484.13
15040,-3.8716,0.1285,-0.1364,1586.18,765.81,968.51
15050,-3.8716,0.1373,-0.1324,461.18,-1452.88,671.57
15060,-3.8716,0.1317,-0.1161,1586.18,-952.88,62.19
15070,-3.8717,0.1218,-0.1013,867.43,1140.87,-1312.74
15080,-3.8717,0.1090,-0.0925,-398.19,-968.57,671.63
15090,-3.8718,0.0900,-0.0924,1961.18,156.43,-890.81
15100,-3.8718,0.0659,-0.1049,-476.32,172.00,-1687.68
15110,-3.8718,0.0422,-0.1279,445.56,-1421.75,1937.26
15120,-3.8718,0.0234,-0.1527,1414.31,-374.94,-1109.68
15130,-3.8717,0.0116,-0.1748,-991.94,453.12,1499.69
15140,-3.8716,0.0057,-0.1949,1492.43,1625.00,1187.13
15150,-3.8715,0.0016,-0.2131,742.43,-953.12,1405.82
15160,-3.8713,-0.0043,-0.2308,211.18,718.75,-1641.05
15170,-3.8711,-0.0109,-0.2410,-538.82,-1531.31,374.51
15180,-3.8710,-0.0178,-0.2332,-1382.57,1171.81,1983.89
15190,-3.8708,-0.0253,-0.2137,1726.81,-1828.19,1046.39
15200,-3.8708,-0.0331,-0.1929,773.68,656.19,1015.20
15210,-3.8710,-0.0438,-0.1686,-226.32,-672.00,-1391.05
15220,-3.8711,-0.0541,-0.1456,-1601.32,-1562.62,-390.99
15230,-3.8711,-0.0591,-0.1344,1086.18,1374.88,1546.57
15240,-3.8711,-0.0605,-0.1273,445.56,-1187.62,546.57
15250,-3.8712,-0.0637,-0.1078,258.06,-281.37,-281.56
15260,-3.8712,-0.0693,-0.0782,-148.19,-1781.43,-1547.12
15270,-3.8712,-0.0776,-0.0521,-866.94,1999.82,1515.44
15280,-3.8712,-0.0862,-0.0391,-1929.44,1343.57,-1968.87
15290,-3.8712,-0.0911,-0.0391,976.81,-984.56,-62.62
15300,-3.8711,-0.0930,-0.0424,351.81,-984.56,-1578.25
15310,-3.8710,-0.0925,-0.0419,101.81,-1406.43,937.38
15320,-3.8710,-0.0896,-0.0338,164.31,-1343.93,-718.87
15330,-3.8708,-0.0869,-0.0204,539.31,-312.68,1031.13
15340,-3.8708,-0.0911,-0.0081,883.06,1406.07,1984.31
15350,-3.8708,-0.1057,0.0031,351.81,-1015.81,-1390.69
15360,-3.8708,-0.1519,-0.0029,-1523.19,406.01,-765.62
15370,-3.8707,-0.2256,-0.0360,570.56,-359.68,234.31
15380,-3.8707,-0.2559,-0.0479,-866.94,-594.24,-968.87
15390,-3.8706,-0.2239,-0.0166,-741.94,1890.08,-843.87
15400,-3.8705,-0.1729,0.0198,-648.19,1890.14,921.81
15410,-3.8706,-0.1296,0.0383,1883.06,-1453.49,-750.00
15420,-3.8706,-0.1083,0.0404,-585.69,921.57,1093.81
15430,-3.8706,-0.1125,0.0270,-1851.32,1187.26,718.81
15440,-3.8706,-0.1312,0.0099,1601.81,-531.49,-1921.88
15450,-3.8705,-0.1547,0.0042,-788.82,1280.94,15.62
15460,-3.8705,-0.1798,0.0031,211.18,546.57,1140.62
15470,-3.8705,-0.1921,0.0007,992.43,405.88,1312.50
15480,-3.8705,-0.1932,-0.0017,-585.69,108.95,828.12
15490,-3.8706,-0.1976,-0.0020,-726.32,-203.55,-765.69
15500,-3.8706,-0.2062,-0.0012,-1288.82,-234.80,1015.56
15510,-3.8707,-0.2124,-0.0031,1617.43,-141.05,-734.44
15520,-3.8707,-0.2166,-0.0046,820.56,-375.43,-1625.06
15530,-3.8707,-0.2238,-0.0057,289.31,-578.55,1890.56
15540,-3.8707,-0.2347,-0.0132,-632.57,-719.24,906.19
15550,-3.8708,-0.2456,-0.0260,1961.18,-1672.36,-1015.69
15560,-3.8708,-0.2539,-0.0354,570.56,687.01,718.69
15570,-3.8710,-0.2590,-0.0422,-491.94,-516.17,-968.87
15580,-3.8710,-0.2604,-0.0566,-1148.19,-1391.17,-1656.37
15590,-3.8710,-0.2579,-0.0828,-1320.07,765.08,-1765.75
15600,-3.8710,-0.2538,-0.1113,-1007.57,1421.33,1999.82
15610,-3.8710,-0.2505,-0.1294,-476.32,1765.08,1156.01
15620,-3.8711,-0.2502,-0.1381,-54.44,-547.42,-406.56
15630,-3.8711,-0.2511,-0.1458,-23.19,-1656.80,-1797.18
15640,-3.8711,-0.2510,-0.1523,-132.57,1358.83,1312.19
15650,-3.8712,-0.2563,-0.1593,-116.94,515.08,-15.93
15660,-3.8712,-0.2710,-0.1752,-804.44,-375.55,1687.13
15670,-3.8713,-0.2903,-0.2061,1320.56,1593.20,-1250.37
15680,-3.8713,-0.3131,-0.2533,-1148.19,1640.01,15.20
15690,-3.8715,-0.3379,-0.3116,-70.07,-406.92,-1500.55
15700,-3.8715,-0.3568,-0.3702,758.06,124.33,-1375.61
15710,-3.8715,-0.3630,-0.4182,-1663.82,624.27,-250.73
15720,-3.8713,-0.3571,-0.4546,1539.31,-1516.36,483.52
15730,-3.8713,-0.3439,-0.4867,-1695.07,1827.39,14.71
15740,-3.8715,-0.3259,-0.5139,-7.57,1718.02,-1735.35
15750,-3.8716,-0.2988,-0.5234,-1710.69,-1766.30,-922.91
15760,-3.8717,-0.2548,-0.5074,1758.06,1015.01,-1766.66
15770,-3.8718,-0.1941,-0.4768,-601.32,-938.05,311.46
15780,-3.8721,-0.1267,-0.4554,-835.69,-1016.05,-1360.35
15790,-3.8722,-0.0652,-0.4629,-210.69,1718.44,-829.04
15800,-3.8722,-0.0179,-0.4956,-335.69,765.44,-547.79
15810,-3.8721,0.0140,-0.5325,1711.18,578.06,-1813.48
15820,-3.8719,0.0364,-0.5591,1804.93,-156.25,748.90
15830,-3.8719,0.0612,-0.5695,664.31,437.56,-1938.60
15840,-3.8719,0.0950,-0.5656,-163.82,-890.56,1967.59
15850,-3.8719,0.1379,-0.5632,164.31,-390.44,811.34
15860,-3.8721,0.1882,-0.5764,1664.31,-93.51,-548.03
15870,-3.8721,0.2374,-0.6012,101.81,-1780.88,-1719.91
15880,-3.8721,0.2788,-0.6271,-1601.32,-952.70,889.40
15890,-3.8722,0.3148,-0.6455,-304.44,-265.14,-1282.53
15900,-3.8723,0.3446,-0.6561,304.93,1375.61,-360.66
15910,-3.8723,0.3632,-0.6661,117.43,16.30,842.47
15920,-3.8724,0.3788,-0.6760,-1507.57,-1264.95,-438.84
15930,-3.8724,0.4033,-0.6896,492.43,1469.48,-79.47
15940,-3.8723,0.4381,-0.7167,-366.94,-264.89,1889.22
15950,-3.8722,0.4800,-0.7521,86.18,266.48,1357.97
15960,-3.8721,0.5275,-0.7854,1445.56,-264.71,1576.60
15970,-3.8719,0.5782,-0.8156,-476.32,-530.27,1420.29
15980,-3.8718,0.6227,-0.8389,-1976.32,-389.53,1138.98
15990,-3.8717,0.6556,-0.8463,-288.82,626.16,1998.35
16000,-3.8716,0.6832,-0.8430,-70.07,-326.90,-829.83
16010,-3.8715,0.7113,-0.8416,-538.82,95.03,-689.15
16020,-3.8713,0.7418,-0.8424,-945.07,282.59,-1673.52
16030,-3.8713,0.7684,-0.8370,-1038.82,173.28,-189.15
16040,-3.8712,0.7830,-0.8141,-1632.57,860.84,592.10
16050,-3.8712,0.7837,-0.7723,226.81,-201.60,1748.35
16060,-3.8712,0.7710,-0.7225,320.56,1142.15,1779.72
16070,-3.8713,0.7567,-0.6721,-1304.44,-482.91,-532.71
16080,-3.8713,0.7540,-0.6223,867.43,1970.21,61.16
16090,-3.8715,0.7581,-0.5813,523.68,345.21,1405.03
16100,-3.8715,0.7589,-0.5515,1039.31,1595.21,264.47
16110,-3.8715,0.7533,-0.5273,1148.68,1407.71,139.53
16120,-3.8716,0.7444,-0.5096,429.93,501.46,-329.16
16130,-3.8716,0.7334,-0.4991,-710.69,-1232.97,-1938.54
16140,-3.8717,0.7161,-0.4890,1883.06,110.78,-766.60
16150,-3.8718,0.6873,-0.4724,-335.69,1407.59,-1641.60
16160,-3.8721,0.6478,-0.4421,-23.19,-467.47,-579.10
16170,-3.8722,0.5989,-0.4026,-1070.07,-592.53,1139.71
16180,-3.8723,0.5397,-0.3834,664.31,469.91,-1860.17
16190,-3.8723,0.4661,-0.4078,1086.18,-1077.09,-844.54
16200,-3.8722,0.3707,-0.4641,-335.69,-202.27,-641.48
16210,-3.8719,0.2628,-0.5248,-538.82,594.42,749.08
16220,-3.8718,0.1721,-0.5719,1648.68,828.61,1545.84
16230,-3.8717,0.1134,-0.6062,-1960.69,-1202.82,1451.97
16240,-3.8716,0.0717,-0.6376,-1476.32,-1593.57,1514.40
16250,-3.8715,0.0344,-0.6659,1179.93,-1609.25,-1282.53
16260,-3.8713,-0.0015,-0.6869,414.31,-1234.31,-173.22
16270,-3.8712,-0.0431,-0.7020,-179.44,93.69,-1110.72
16280,-3.8711,-0.0886,-0.7139,-1507.57,-1843.87,248.60
16290,-3.8711,-0.1228,-0.7228,664.31,640.44,1373.60
16300,-3.8711,-0.1322,-0.7314,289.31,-500.24,-579.59
16310,-3.8710,-0.1115,-0.7410,-913.82,-1609.68,-1267.09
16320,-3.8708,-0.0652,-0.7467,1742.43,1171.63,-1298.34
16330,-3.8707,-0.0026,-0.7380,-335.69,437.32,-1907.71
16340,-3.8707,0.0724,-0.7147,-320.07,1546.81,-251.46
16350,-3.8707,0.1501,-0.6906,1273.68,515.75,-642.03
16360,-3.8707,0.2081,-0.6766,-773.19,-390.38,1795.47
16370,-3.8707,0.2266,-0.6678,-1351.32,1390.99,201.78
16380,-3.8708,0.2124,-0.6550,1008.06,-1483.95,-1313.84
16390,-3.8708,0.1946,-0.6389,-804.44,156.62,623.72
16400,-3.8710,0.1881,-0.6244,914.31,-1780.88,1670.59
16410,-3.8711,0.1888,-0.6127,86.18,78.49,-1204.35
16420,-3.8711,0.1940,-0.6025,179.93,1578.49,733.15
16430,-3.8712,0.2059,-0.5906,836.18,-1124.63,-688.72
16440,-3.8712,0.2294,-0.5771,-1632.57,406.62,-1719.91
16450,-3.8712,0.2681,-0.5681,1367.43,-1874.57,-1860.53
16460,-3.8712,0.3187,-0.5618,-1679.44,-718.26,-516.78
16470,-3.8711,0.3743,-0.5580,804.93,94.36,1670.78
16480,-3.8711,0.4270,-0.5624,-85.69,578.80,-485.47
16490,-3.8710,0.4644,-0.5719,-1335.69,16.42,233.28
16500,-3.8710,0.4784,-0.5753,-554.44,-1202.27,186.34
16510,-3.8711,0.4767,-0.5685,1242.43,-1639.71,-688.66
16520,-3.8711,0.4791,-0.5548,1023.68,-764.71,1326.97
16530,-3.8712,0.4972,-0.5402,1336.18,985.29,-1094.85
16540,-3.8712,0.5264,-0.5311,-351.32,-1139.71,1108.28
16550,-3.8712,0.5624,-0.5236,-616.94,16.60,577.09
16560,-3.8712,0.6008,-0.5150,-7.57,985.41,514.59
16570,-3.8713,0.6315,-0.5123,914.31,-1920.72,-63.54
16580,-3.8713,0.6438,-0.5134,836.18,-1576.90,-1047.91
16590,-3.8713,0.6306,-0.5150,-1585.69,-1717.53,1905.21
16600,-3.8713,0.6077,-0.5183,726.81,-1920.65,1420.84
16610,-3.8713,0.6022,-0.5243,1789.31,1657.41,1342.71
16620,-3.8713,0.6278,-0.5254,1086.18,891.78,1373.96
16630,-3.8713,0.6768,-0.5200,367.43,751.22,1514.59
16640,-3.8713,0.7227,-0.5151,-1366.94,1438.78,1998.96
16650,-3.8713,0.7388,-0.5054,508.06,-1936.10,-1547.91
16660,-3.8713,0.7173,-0.4865,-1429.44,-686.10,1014.59
16670,-3.8715,0.6792,-0.4623,-179.44,1735.72,999.02
16680,-3.8717,0.6522,-0.4462,-1054.44,829.41,-375.92
16690,-3.8718,0.6406,-0.4451,-507.57,-1108.15,-875.92
16700,-3.8718,0.6252,-0.4453,-1991.94,-967.53,436.58
16710,-3.8719,0.5889,-0.4309,39.31,-998.78,-1938.42
16720,-3.8721,0.5399,-0.4010,-616.94,844.85,-1735.23
16730,-3.8722,0.5001,-0.3761,1117.43,672.91,1171.08
16740,-3.8723,0.4779,-0.3783,23.68,-139.65,671.08
16750,-3.8724,0.4622,-0.4050,1179.93,-420.96,-1172.67
16760,-3.8723,0.4396,-0.4310,-835.69,157.10,202.33
16770,-3.8723,0.4027,-0.4357,273.68,828.98,-1813.35
16780,-3.8723,0.3550,-0.4237,-445.07,235.11,-1407.10
16790,-3.8723,0.3031,-0.4097,1445.56,1766.30,1874.15
16800,-3.8723,0.2546,-0.3961,-1195.07,-436.95,827.27
16810,-3.8724,0.2241,-0.3850,601.81,1297.36,-203.92
16820,-3.8724,0.2108,-0.3826,695.56,-1280.82,-844.54
16830,-3.8724,0.2008,-0.3879,-1007.57,-968.38,-782.04
16840,-3.8724,0.1888,-0.3914,1711.18,-1655.88,-735.17
16850,-3.8724,0.1765,-0.3840,179.93,1906.62,-1688.29
16860,-3.8724,0.1636,-0.3801,-1398.19,-1155.94,827.33
16870,-3.8724,0.1549,-0.3928,945.56,-655.94,483.58
16880,-3.8724,0.1476,-0.4095,-163.82,1718.99,-1375.79
16890,-3.8723,0.1288,-0.4224,-1101.32,-421.63,-1641.48
16900,-3.8722,0.1062,-0.4421,492.43,1937.74,-1375.85
16910,-3.8721,0.0978,-0.4709,1601.81,-593.57,-954.04
16920,-3.8719,0.1086,-0.4889,523.68,-281.07,-1750.98
16930,-3.8719,0.1346,-0.4844,1914.31,1422.06,-297.85
16940,-3.8718,0.1693,-0.4716,1242.43,-1999.76,1170.90
16950,-3.8717,0.2089,-0.4739,1679.93,-359.07,155.27
16960,-3.8716,0.2438,-0.4972,-1257.57,-655.88,61.52
16970,-3.8715,0.2648,-0.5188,-788.82,359.80,467.77
16980,-3.8713,0.2731,-0.5231,1898.68,1594.24,1327.09
16990,-3.8712,0.2606,-0.5197,-1038.82,1047.36,1639.59
17000,-3.8712,0.2334,-0.5126,1367.43,1484.86,-110.41
17010,-3.8712,0.2025,-0.4996,1883.06,-1608.95,-204.16
17020,-3.8712,0.1652,-0.4846,1929.93,47.24,-954.10
17030,-3.8712,0.1234,-0.4713,1148.68,1969.06,-1813.48
17040,-3.8712,0.0715,-0.4569,-195.07,-327.94,1358.40
17050,-3.8712,0.0063,-0.4370,1164.31,1515.75,1092.83
17060,-3.8712,-0.0588,-0.4170,820.56,62.50,1342.90
17070,-3.8712,-0.1097,-0.3982,476.81,-1359.50,-1203.98
17080,-3.8711,-0.1422,-0.3811,1961.18,1046.63,1874.21
17090,-3.8710,-0.1572,-0.3677,1804.93,-765.93,1889.83
17100,-3.8708,-0.1705,-0.3522,-116.94,952.76,1546.14
17110,-3.8707,-0.2009,-0.3419,-1820.07,-1062.87,46.14
17120,-3.8707,-0.2562,-0.3529,-1710.69,249.57,-1172.55
17130,-3.8706,-0.3234,-0.3726,-788.82,-1156.80,-766.36
17140,-3.8704,-0.3722,-0.3744,-1382.57,327.45,858.64
17150,-3.8702,-0.3864,-0.3567,367.43,93.02,-1719.48
17160,-3.8701,-0.3687,-0.3309,-1445.07,-1641.42,764.89
17170,-3.8702,-0.3381,-0.3021,820.56,1655.52,-1297.55
17180,-3.8704,-0.3176,-0.2738,726.81,1343.08,1874.39
17190,-3.8705,-0.3132,-0.2523,-648.19,968.08,1358.83
17200,-3.8706,-0.3116,-0.2391,-85.69,-281.92,-891.17
17210,-3.8706,-0.2904,-0.2327,117.43,1405.64,-750.49
17220,-3.8705,-0.2410,-0.2321,-1163.82,-1766.24,749.51
17230,-3.8705,-0.1832,-0.2336,1164.31,-1687.99,-1500.49
17240,-3.8704,-0.1436,-0.2345,554.93,-1890.99,30.76
17250,-3.8704,-0.1305,-0.2318,1633.06,1999.69,1343.26
17260,-3.8704,-0.1410,-0.2262,-695.07,-1656.56,-1828.61
17270,-3.8704,-0.1669,-0.2235,1961.18,-937.81,1812.01
17280,-3.8704,-0.1934,-0.2279,-1351.32,-594.12,374.51
17290,-3.8705,-0.2119,-0.2422,-741.94,-1156.68,-1219.24
17300,-3.8705,-0.2283,-0.2655,883.06,1015.20,1858.89
17310,-3.8705,-0.2546,-0.2887,-1210.69,-1969.24,1921.33
17320,-3.8705,-0.2893,-0.3032,-585.69,-938.05,-1500.61
17330,-3.8705,-0.3199,-0.3167,-1023.19,1202.51,-1094.36
17340,-3.8705,-0.3395,-0.3435,-945.07,-516.30,-1313.17
17350,-3.8705,-0.3472,-0.3875,554.93,46.20,1827.45
17360,-3.8705,-0.3430,-0.4341,-429.44,-1578.86,1327.33
17370,-3.8705,-0.3259,-0.4641,101.81,452.45,-1985.23
17380,-3.8705,-0.3024,-0.4769,-1710.69,608.70,-1282.17
17390,-3.8705,-0.2827,-0.4839,1304.93,-1031.86,936.52
17400,-3.8707,-0.2725,-0.4850,-179.44,-1922.49,-360.35
17410,-3.8708,-0.2689,-0.4830,1133.06,1936.95,45.90
17420,-3.8712,-0.2622,-0.4933,1586.18,-1813.05,-125.98
17430,-3.8713,-0.2445,-0.5223,-1554.44,874.45,655.27
17440,-3.8716,-0.2151,-0.5624,711.18,1155.76,-422.91
17450,-3.8716,-0.1761,-0.6040,476.81,30.82,983.28
17460,-3.8717,-0.1321,-0.6399,1461.18,-1297.24,-79.35
17470,-3.8717,-0.0913,-0.6685,-898.19,-1890.93,-720.03
17480,-3.8717,-0.0598,-0.6899,320.56,-1547.06,-798.22
17490,-3.8716,-0.0304,-0.6979,351.81,-297.00,45.47
17500,-3.8716,0.0055,-0.6904,117.43,-1312.56,1014.22
17510,-3.8716,0.0431,-0.6780,711.18,-375.00,811.10
17520,-3.8717,0.0750,-0.6624,1523.68,1218.81,-751.34
17530,-3.8717,0.0935,-0.6444,1601.81,-781.13,717.41
17540,-3.8718,0.1034,-0.6332,-23.19,1515.75,1404.97
17550,-3.8719,0.1189,-0.6227,1242.43,-1046.69,-1595.03
17560,-3.8719,0.1414,-0.6005,-773.19,297.06,858.15
17570,-3.8721,0.1707,-0.5775,-1898.19,-859.13,-1.22
17580,-3.8721,0.2081,-0.5753,1851.81,-1921.57,-1454.28
17590,-3.8721,0.2401,-0.5902,-1351.32,-1640.26,545.72
17600,-3.8722,0.2577,-0.5978,-1257.57,453.55,-1298.03
17610,-3.8722,0.2673,-0.5841,992.43,-515.14,1030.03
17620,-3.8723,0.2799,-0.5575,-1773.19,1234.86,-391.78
17630,-3.8723,0.2961,-0.5396,-163.82,641.11,-1907.35
17640,-3.8723,0.3076,-0.5494,1914.31,-1061.95,45.78
17650,-3.8724,0.3116,-0.5900,-616.94,1672.42,-1516.72
17660,-3.8724,0.3123,-0.6393,-101.32,484.92,-1423.03
17670,-3.8724,0.3154,-0.6810,-23.19,-1827.58,-220.03
17680,-3.8723,0.3267,-0.7139,383.06,828.74,576.78
17690,-3.8723,0.3461,-0.7330,1820.56,625.61,717.35
17700,-3.8724,0.3633,-0.7419,304.93,-1827.45,-17.09
17710,-3.8724,0.3654,-0.7520,-1491.94,1031.92,1811.04
17720,-3.8726,0.3497,-0.7720,-1226.32,-249.33,-829.65
17730,-3.8726,0.3385,-0.8014,773.68,1188.17,1373.47
17740,-3.8726,0.3594,-0.8241,-663.82,1422.49,810.91
17750,-3.8726,0.4133,-0.8397,-1991.94,-1483.70,1029.60
17760,-3.8726,0.4847,-0.8647,914.31,516.42,1138.98
17770,-3.8726,0.5538,-0.8940,-1945.07,1313.42,967.04
17780,-3.8726,0.6044,-0.9198,-1101.32,1563.54,1451.35
17790,-3.8726,0.6400,-0.9513,1367.43,-1733.22,-283.08
17800,-3.8723,0.6754,-0.9918,1929.93,-1764.40,529.36
17810,-3.8721,0.7231,-1.0117,-1538.82,1048.16,201.17
17820,-3.8718,0.7924,-0.9891,570.56,-1498.60,888.61
17830,-3.8717,0.8861,-0.9462,1429.93,1392.15,-48.83
17840,-3.8715,1.0005,-0.9114,1429.93,-1107.67,607.48
17850,-3.8715,1.1219,-0.8767,70.56,-654.30,-470.58
17860,-3.8713,1.2306,-0.8190,-382.57,-216.61,1185.73
17870,-3.8713,1.3193,-0.7395,1523.68,-825.74,-1064.15
17880,-3.8711,1.3965,-0.6592,883.06,1346.31,61.04
17890,-3.8708,1.4702,-0.5913,-1241.94,-372.31,-1595.09
17900,-3.8705,1.5323,-0.5404,195.56,315.37,-313.66
17910,-3.8701,1.5496,-0.5051,148.68,-1168.88,-1094.85
17920,-3.8700,1.5004,-0.4664,-1648.19,-653.26,-704.16
17930,-3.8701,1.3918,-0.4128,54.93,299.80,-1782.17
17940,-3.8705,1.2441,-0.3491,-1835.69,-841.06,1389.77
17950,-3.8710,1.0817,-0.2889,-741.94,-685.12,-1266.36
17960,-3.8713,0.9215,-0.2568,-1538.82,-982.30,-578.74
17970,-3.8715,0.7769,-0.2633,1961.18,-873.23,921.33
17980,-3.8716,0.6460,-0.2943,-554.44,-1701.66,-1781.80
17990,-3.8716,0.5051,-0.3291,-1304.44,-1670.65,1858.76
18000,-3.8716,0.3591,-0.3633,664.31,1875.98,-1156.92
18010,-3.8715,0.2546,-0.4025,1976.81,1500.67,405.52
18020,-3.8715,0.2195,-0.4319,601.81,484.86,-1641.42
18030,-3.8713,0.2551,-0.4346,101.81,719.18,1108.52
18040,-3.8712,0.3549,-0.4170,664.31,375.49,186.65
18050,-3.8712,0.4979,-0.3901,1429.93,-1374.33,-1782.10
18060,-3.8712,0.6604,-0.3593,-257.57,-1936.58,-844.54
18070,-3.8711,0.8165,-0.3325,539.31,-1983.09,77.39
18080,-3.8711,0.9387,-0.3210,523.68,1439.09,468.08
18090,-3.8712,1.0123,-0.3334,164.31,-1091.92,-1141.30
18100,-3.8713,1.0433,-0.3684,1586.18,1330.08,-141.30
18110,-3.8713,1.0576,-0.4160,1554.93,845.76,-1922.61
18120,-3.8713,1.0790,-0.4690,-616.94,-1247.99,-1141.48
18130,-3.8712,1.1141,-0.5159,-1882.57,-29.17,1702.15
18140,-3.8711,1.1571,-0.5468,-1382.57,1970.89,1217.71
18150,-3.8710,1.1936,-0.5663,117.43,-1982.12,295.78
18160,-3.8710,1.2098,-0.5828,789.31,-482.06,1842.59
18170,-3.8711,1.1982,-0.5991,-1132.57,1408.57,-32.41
18180,-3.8712,1.1558,-0.6217,1383.06,-685.18,-1766.85
18190,-3.8715,1.0820,-0.6604,-54.44,424.07,-735.60
18200,-3.8716,0.9834,-0.7106,-1491.94,-529.17,-1595.09
18210,-3.8716,0.8779,-0.7567,1883.06,1048.77,982.97
18220,-3.8716,0.7847,-0.7880,383.06,-857.67,1904.72
18230,-3.8716,0.7208,-0.7897,445.56,-857.85,-189.09
18240,-3.8715,0.6943,-0.7532,273.68,-1076.72,1201.54
18250,-3.8715,0.6976,-0.7004,883.06,-404.91,342.22
18260,-3.8716,0.7155,-0.6638,1304.93,-1654.91,1264.22
18270,-3.8717,0.7185,-0.6498,-413.82,-967.41,904.91
18280,-3.8718,0.6733,-0.6497,-23.19,829.47,498.72
18290,-3.8719,0.5807,-0.6483,-1804.44,845.03,1420.59
18300,-3.8721,0.4779,-0.6326,-1663.82,1016.72,-891.91
18310,-3.8721,0.4021,-0.6069,1179.93,-967.83,139.34
18320,-3.8722,0.3661,-0.5875,-523.19,-1686.77,123.78
18330,-3.8723,0.3616,-0.5809,-1132.57,797.55,498.84
18340,-3.8724,0.3680,-0.5842,-1710.69,1641.30,-1844.91
18350,-3.8724,0.3699,-0.6083,-882.57,1219.42,748.84
18360,-3.8724,0.3619,-0.6526,-648.19,-1858.70,1170.65
18370,-3.8724,0.3453,-0.6985,-1663.82,469.42,-798.16
18380,-3.8723,0.3226,-0.7344,211.18,-1405.58,795.47
18390,-3.8723,0.2882,-0.7542,1304.93,-1999.39,248.54
18400,-3.8724,0.2460,-0.7605,898.68,-530.70,685.97
18410,-3.8727,0.2183,-0.7593,-507.57,-1343.32,-876.53
18420,-3.8728,0.2157,-0.7720,-54.44,-1187.13,-1876.53
18430,-3.8729,0.2211,-0.8181,-382.57,1187.87,-423.40
18440,-3.8729,0.2086,-0.8802,304.93,-718.32,-548.52
18450,-3.8728,0.1770,-0.9326,-1288.82,-671.51,498.23
18460,-3.8728,0.1454,-0.9736,-1335.69,625.31,-1923.71
18470,-3.8727,0.1263,-1.0122,-1382.57,-624.76,326.17
18480,-3.8727,0.1179,-1.0494,179.93,-1562.26,-80.14
18490,-3.8724,0.1094,-1.0726,-898.19,1672.06,-1752.08
18500,-3.8722,0.0920,-1.0573,-1991.94,-1296.69,-220.89
18510,-3.8718,0.0629,-1.0027,-210.69,672.00,-1595.83
18520,-3.8716,0.0255,-0.9320,54.93,-343.63,-611.39
18530,-3.8713,-0.0106,-0.8578,-726.32,703.12,1435.67
18540,-3.8712,-0.0437,-0.7850,-1351.32,-1781.31,76.42
18550,-3.8712,-0.0695,-0.7157,-1585.69,-468.87,123.41
18560,-3.8713,-0.0726,-0.6425,-882.57,406.07,-1267.03
18570,-3.8713,-0.0548,-0.5603,-1288.82,1781.07,920.59
18580,-3.8715,-0.0372,-0.4875,992.43,296.75,-94.85
18590,-3.8713,-0.0325,-0.4531,-757.57,1609.25,61.52
18600,-3.8713,-0.0396,-0.4562,-148.19,-1984.50,702.21
18610,-3.8713,-0.0522,-0.4640,-1054.44,1624.88,1717.83
18620,-3.8713,-0.0597,-0.4524,1320.56,624.88,-32.17
18630,-3.8711,-0.0571,-0.4269,367.43,-1890.75,14.71
18640,-3.8710,-0.0485,-0.4048,695.56,1374.88,1499.15
18650,-3.8708,-0.0427,-0.3976,1804.93,203.00,-672.67
18660,-3.8706,-0.0519,-0.4113,-1460.69,1124.88,592.96
18670,-3.8705,-0.0836,-0.4445,1367.43,-625.12,1233.52
18680,-3.8704,-0.1348,-0.4805,1304.93,-875.18,-1875.92
18690,-3.8702,-0.1906,-0.4933,-1241.94,-1484.68,-204.10
18700,-3.8700,-0.2346,-0.4775,-382.57,874.57,764.65
18710,-3.8700,-0.2600,-0.4531,1976.81,-1109.86,-1016.60
18720,-3.8700,-0.2692,-0.4369,-1273.19,-1984.92,1874.08
18730,-3.8701,-0.2656,-0.4288,1554.93,93.20,-1422.73
18740,-3.8702,-0.2446,-0.4219,-1991.94,1124.45,-1125.85
18750,-3.8704,-0.2065,-0.4102,695.56,-1984.86,-438.35
18760,-3.8704,-0.1654,-0.3868,1570.56,-484.80,577.27
18770,-3.8705,-0.1360,-0.3500,-1163.82,-1500.37,1858.58
18780,-3.8706,-0.1227,-0.3146,-1398.19,-781.56,-797.61
18790,-3.8706,-0.1217,-0.2938,304.93,-250.24,77.45
18800,-3.8707,-0.1263,-0.2849,429.93,-1593.99,46.26
18810,-3.8710,-0.1279,-0.2802,-163.82,-453.43,-563.11
18820,-3.8711,-0.1266,-0.2743,-366.94,155.94,-1000.55
18830,-3.8712,-0.1246,-0.2679,-195.07,905.94,-781.80
18840,-3.8712,-0.1213,-0.2612,54.93,1718.51,640.08
18850,-3.8713,-0.1185,-0.2495,476.81,-1422.12,-422.42
18860,-3.8713,-0.1194,-0.2446,836.18,77.88,-78.61
18870,-3.8712,-0.1201,-0.2721,726.81,702.88,1093.26
18880,-3.8712,-0.1150,-0.3254,633.06,1187.26,-1297.42
18890,-3.8711,-0.1074,-0.3745,1289.31,-1640.87,1968.08
18900,-3.8710,-0.1061,-0.4121,-1741.94,77.88,-781.98
18910,-3.8707,-0.1091,-0.4423,-1570.07,-734.62,249.15
18920,-3.8707,-0.1058,-0.4608,-1960.69,-593.99,-625.92
18930,-3.8706,-0.0917,-0.4753,-1538.82,1031.01,405.33
18940,-3.8707,-0.0720,-0.4911,273.68,-828.31,-860.35
18950,-3.8708,-0.0583,-0.5032,-1210.69,1156.07,-172.85
18960,-3.8710,-0.0557,-0.5155,539.31,-390.75,-282.29
18970,-3.8711,-0.0609,-0.5325,883.06,-1968.87,-157.29
18980,-3.8711,-0.0652,-0.5533,211.18,-140.75,498.90
18990,-3.8712,-0.0654,-0.5752,-335.69,1187.32,1670.78
19000,-3.8713,-0.0680,-0.6024,-366.94,-1609.56,-298.03
19010,-3.8713,-0.0759,-0.6376,-695.07,-1093.93,-1110.60
19020,-3.8713,-0.0869,-0.6707,-1710.69,-1593.93,-829.41
19030,-3.8712,-0.0845,-0.6929,883.06,-1828.31,217.41
19040,-3.8712,-0.0485,-0.7067,1195.56,-672.06,1045.47
19050,-3.8712,0.0188,-0.7126,1804.93,1562.38,795.47
19060,-3.8713,0.0951,-0.7042,-1585.69,781.25,-751.40
19070,-3.8715,0.1573,-0.6765,179.93,1859.56,-48.28
19080,-3.8716,0.1981,-0.6381,148.68,1406.56,-751.34
19090,-3.8717,0.2253,-0.6047,1367.43,-1671.51,-1579.41
19100,-3.8718,0.2466,-0.5831,851.81,-1405.82,-1548.10
19110,-3.8719,0.2651,-0.5699,-429.44,1359.80,-548.03
19120,-3.8719,0.2805,-0.5597,1945.56,-952.64,983.22
19130,-3.8721,0.2888,-0.5485,-85.69,359.86,-1438.60
19140,-3.8721,0.2885,-0.5372,976.81,1797.42,77.03
19150,-3.8722,0.2812,-0.5356,929.93,-765.08,-1688.60
19160,-3.8722,0.2758,-0.5450,8.06,-561.95,1702.03
19170,-3.8722,0.2788,-0.5544,-695.07,-1765.14,967.65
19180,-3.8723,0.2883,-0.5526,-304.44,1031.74,-766.72
19190,-3.8723,0.3036,-0.5387,914.31,1266.17,1295.78
19200,-3.8724,0.3259,-0.5215,-1132.57,-952.58,-329.22
19210,-3.8724,0.3473,-0.5054,1726.81,1250.61,-1329.16
19220,-3.8724,0.3651,-0.4918,461.18,-686.83,-1844.79
19230,-3.8724,0.3870,-0.4900,-1257.57,1047.55,1264.65
19240,-3.8726,0.4114,-0.5031,1539.31,1281.98,-63.48
19250,-3.8726,0.4294,-0.5228,664.31,-389.83,-1360.41
19260,-3.8726,0.4371,-0.5385,-1023.19,1078.92,1702.09
19270,-3.8726,0.4406,-0.5463,-38.82,-921.08,998.90
19280,-3.8726,0.4492,-0.5551,398.68,-1921.02,373.90
19290,-3.8726,0.4659,-0.5719,1508.06,953.98,811.40
19300,-3.8726,0.4902,-0.5900,-351.32,-1202.27,-1173.03
19310,-3.8724,0.5156,-0.5967,-1241.94,485.29,795.72
19320,-3.8724,0.5404,-0.5896,-1991.94,-374.02,1530.03
19330,-3.8724,0.5714,-0.5798,1179.93,532.29,1326.97
19340,-3.8724,0.6061,-0.5768,1148.68,1782.35,967.59
19350,-3.8724,0.6354,-0.5806,1586.18,-1826.97,905.09
19360,-3.8724,0.6530,-0.5817,1336.18,1688.72,-1985.53
19370,-3.8723,0.6555,-0.5742,-413.82,1548.10,280.09
19380,-3.8723,0.6521,-0.5614,-85.69,-1498.78,-969.91
19390,-3.8722,0.6630,-0.5581,-523.19,141.85,-1751.10
19400,-3.8721,0.7008,-0.5778,867.43,563.78,827.03
19410,-3.8721,0.7601,-0.6035,1711.18,-1951.78,-1173.03
19420,-3.8719,0.8245,-0.6199,1304.93,-1248.54,1623.78
19430,-3.8718,0.8788,-0.6255,1539.31,657.84,-1376.22
19440,-3.8716,0.9205,-0.6167,492.43,-60.79,-1970.03
19450,-3.8713,0.9524,-0.5920,1836.18,1064.27,-1751.22
19460,-3.8711,0.9767,-0.5632,1914.31,220.58,1920.72
19470,-3.8710,0.9988,-0.5481,1023.68,-91.86,-48.03
19480,-3.8708,1.0227,-0.5377,-148.19,1845.64,-610.47
19490,-3.8707,1.0508,-0.5178,-1085.69,-826.17,514.53
19500,-3.8707,1.0758,-0.4937,-1491.94,1720.76,1108.34
19510,-3.8707,1.0906,-0.4688,1711.18,814.58,-1235.35
19520,-3.8706,1.0884,-0.4446,-398.19,2.08,1045.96
19530,-3.8706,1.0696,-0.4208,-679.44,-904.17,-1219.67
19540,-3.8706,1.0443,-0.4098,914.31,-1857.30,-1063.35
19550,-3.8706,1.0166,-0.4149,1679.93,-451.11,1530.40
19560,-3.8707,0.9845,-0.4160,-1866.94,-1107.42,-375.85
19570,-3.8707,0.9471,-0.4050,-1976.32,-1248.11,1749.15
19580,-3.8708,0.9119,-0.3905,1242.43,158.08,-375.79
19590,-3.8708,0.8829,-0.3809,726.81,-1982.60,811.71
19600,-3.8710,0.8524,-0.3802,1023.68,-748.29,1217.96
19610,-3.8711,0.8154,-0.3848,1117.43,-670.23,952.33
19620,-3.8712,0.7825,-0.3871,383.06,-1248.41,733.58
19630,-3.8713,0.7614,-0.3876,164.31,-1545.35,921.08
19640,-3.8715,0.7507,-0.3881,1461.18,-1607.91,1983.58
19650,-3.8715,0.7460,-0.3907,101.81,-1670.41,296.08
19660,-3.8716,0.7385,-0.3990,-507.57,1985.78,-797.67
19670,-3.8716,0.7245,-0.4131,-1460.69,923.28,-1907.04
19680,-3.8716,0.7024,-0.4319,742.43,-873.60,889.77
19690,-3.8717,0.6699,-0.4547,1914.31,720.09,-391.48
19700,-3.8717,0.6312,-0.4757,1758.06,1798.16,-1391.54
19710,-3.8717,0.5925,-0.4933,804.93,-889.40,-1875.98
19720,-3.8717,0.5607,-0.5106,-148.19,860.47,-1375.98
19730,-3.8716,0.5403,-0.5255,-226.32,-1358.34,139.59
19740,-3.8716,0.5261,-0.5311,1164.31,735.41,1264.59
19750,-3.8716,0.5138,-0.5255,-648.19,16.60,998.96
19760,-3.8717,0.5076,-0.5149,1773.68,735.35,-563.54
19770,-3.8717,0.5089,-0.5082,976.81,-1905.27,1623.96
19780,-3.8717,0.5121,-0.5083,1148.68,-1045.90,467.71
19790,-3.8718,0.5077,-0.5139,1554.93,-1061.52,-63.54
19800,-3.8717,0.4949,-0.5277,992.43,-1780.27,217.71
19810,-3.8717,0.4824,-0.5402,-648.19,454.04,1748.96
19820,-3.8717,0.4707,-0.5398,1758.06,-1139.71,-204.22
19830,-3.8716,0.4583,-0.5350,258.06,-1092.83,1702.03
19840,-3.8716,0.4579,-0.5289,-1335.69,-483.52,-516.72
19850,-3.8715,0.4763,-0.5142,-1382.57,297.73,592.71
19860,-3.8715,0.5017,-0.4918,976.81,-1811.58,577.09
19870,-3.8716,0.5176,-0.4695,226.81,1047.85,-625.98
19880,-3.8716,0.5128,-0.4449,-1741.94,-92.77,1295.90
19890,-3.8717,0.4894,-0.4174,1648.68,-952.15,-1391.54
19900,-3.8718,0.4613,-0.3936,-1351.32,-1420.96,-563.35
19910,-3.8718,0.4401,-0.3773,-945.07,1625.85,311.71
19920,-3.8719,0.4249,-0.3727,336.18,-296.02,1827.33
19930,-3.8719,0.4082,-0.3778,-1601.32,297.67,671.14
19940,-3.8719,0.3835,-0.3810,258.06,-358.58,749.21
19950,-3.8719,0.3514,-0.3733,1101.81,-764.89,1061.71
19960,-3.8719,0.3159,-0.3527,992.43,219.42,1124.27
19970,-3.8719,0.2789,-0.3240,445.56,-1140.01,889.89
19980,-3.8719,0.2373,-0.2970,-288.82,-1468.26,139.95
19990,-3.8721,0.1882,-0.2705,-1616.94,1984.80,-1750.61
20000,-3.8722,0.1420,-0.2354,101.81,1375.37,-1484.92
20010,-3.8723,0.1123,-0.2001,-1820.07,1875.24,1374.51
20020,-3.8724,0.0994,-0.1794,-1616.94,-1609.19,280.82
20030,-3.8726,0.0994,-0.1749,726.81,1031.43,1155.88
20040,-3.8726,0.1167,-0.1836,726.81,1609.56,859.01
20050,-3.8726,0.1492,-0.1987,-1054.44,500.18,-1140.99
20060,-3.8724,0.1870,-0.2120,-898.19,-1437.26,-1047.30
20070,-3.8722,0.2235,-0.2216,-54.44,859.68,405.82
20080,-3.8721,0.2538,-0.2264,617.43,-358.95,1968.26
20090,-3.8719,0.2783,-0.2328,492.43,-983.89,-594.24
20100,-3.8717,0.3003,-0.2477,-366.94,-1796.39,765.14
20110,-3.8716,0.3195,-0.2660,-1554.44,297.42,1890.14
20120,-3.8715,0.3303,-0.2806,898.68,1953.74,-1250.55
20130,-3.8713,0.3329,-0.2946,-1710.69,78.74,-406.80
20140,-3.8711,0.3365,-0.3118,-1382.57,-1702.51,358.76
20150,-3.8710,0.3483,-0.3301,-913.82,94.36,1077.51
20160,-3.8708,0.3645,-0.3481,586.18,1750.67,-1391.30
20170,-3.8706,0.3776,-0.3605,-1335.69,-561.83,1327.39
20180,-3.8705,0.3835,-0.3610,336.18,1860.11,-141.36
20190,-3.8704,0.3822,-0.3521,1101.81,1797.61,-141.36
20200,-3.8702,0.3761,-0.3365,929.93,-1061.77,202.39
20210,-3.8704,0.3651,-0.3165,148.68,922.61,983.70
20220,-3.8706,0.3512,-0.2964,-1257.57,-514.95,-610.05
20230,-3.8707,0.3350,-0.2830,961.18,-1936.83,905.64
20240,-3.8710,0.3046,-0.2817,-1116.94,-218.14,-625.61
20250,-3.8710,0.2615,-0.2816,-1007.57,-61.95,780.64
20260,-3.8710,0.2223,-0.2727,1476.81,-46.39,155.64
20270,-3.8711,0.1885,-0.2518,461.18,1094.18,-1750.55
20280,-3.8712,0.1473,-0.2074,133.06,-234.01,1624.45
20290,-3.8715,0.0927,-0.1403,-1132.57,1453.37,-1594.18
20300,-3.8717,0.0353,-0.0717,-132.57,-1953.00,1812.19
20310,-3.8719,-0.0128,-0.0227,523.68,-1171.81,-1640.81
20320,-3.8721,-0.0463,0.0052,-1632.57,1109.31,-1703.19
20330,-3.8721,-0.0640,0.0233,-1913.82,687.38,-1265.62
20340,-3.8719,-0.0704,0.0317,-179.44,-1000.18,-781.25
20350,-3.8717,-0.0748,0.0229,-1007.57,77.94,-1562.44
20360,-3.8715,-0.0853,0.0031,-1570.07,-1047.06,-1390.62
20370,-3.8712,-0.0981,-0.0157,1086.18,406.07,1734.38
20380,-3.8711,-0.1033,-0.0305,-554.44,1999.76,-703.19
20390,-3.8710,-0.0988,-0.0413,-1210.69,109.13,-31.31
20400,-3.8707,-0.0896,-0.0497,-632.57,-1265.87,406.13
20410,-3.8706,-0.0826,-0.0645,539.31,1656.07,1515.50
20420,-3.8705,-0.0804,-0.0853,1429.93,-234.56,-375.18
20430,-3.8702,-0.0808,-0.0999,1711.18,1093.57,1577.94
20440,-3.8701,-0.0892,-0.1036,1664.31,-765.81,1781.01
20450,-3.8701,-0.1112,-0.1077,586.18,-1250.18,-203.37
20460,-3.8700,-0.1414,-0.1213,1773.68,-1765.87,671.63
20470,-3.8700,-0.1660,-0.1339,1914.31,484.07,1765.38
20480,-3.8700,-0.1769,-0.1334,-1241.94,-1125.37,-1281.56
20490,-3.8700,-0.1744,-0.1207,1367.43,-1062.87,-1547.18
20500,-3.8700,-0.1659,-0.1008,1679.93,562.13,906.01
20510,-3.8701,-0.1591,-0.0795,-1226.32,-890.99,-1828.37
20520,-3.8702,-0.1559,-0.0626,-351.32,1843.38,-1250.18
20530,-3.8704,-0.1575,-0.0537,54.93,-0.31,-625.18
20540,-3.8704,-0.1627,-0.0514,-148.19,1140.26,46.75
20550,-3.8705,-0.1682,-0.0510,-820.07,1437.13,1078.00
20560,-3.8706,-0.1721,-0.0494,-1523.19,1484.01,-656.37
20570,-3.8706,-0.1698,-0.0502,1976.81,1687.13,-1062.62
20580,-3.8706,-0.1587,-0.0583,-1726.32,1593.38,-562.62
20590,-3.8705,-0.1278,-0.1019,-491.94,-1531.56,-1937.74
20600,-3.8706,-0.1255,-0.0875,-351.32,-1031.56,-250.24
20610,-3.8706,-0.1201,-0.0760,-54.44,812.19,406.07
20620,-3.8707,-0.1124,-0.0773,633.06,-1718.99,1327.94
20630,-3.8708,-0.1034,-0.0858,1617.43,-1875.24,-1078.31
20640,-3.8708,-0.0958,-0.0901,-1226.32,1031.01,937.32
20650,-3.8710,-0.0886,-0.0917,-257.57,484.13,-484.56
20660,-3.8710,-0.0764,-0.0947,664.31,281.07,-1062.68
20670,-3.8710,-0.0592,-0.0934,-1773.19,-109.56,-1390.87
20680,-3.8710,-0.0404,-0.0856,429.93,62.38,1484.19
20690,-3.8711,-0.0220,-0.0773,-1163.82,1062.38,-375.18
20700,-3.8711,-0.0051,-0.0697,1195.56,-1875.06,1484.19
20710,-3.8712,0.0073,-0.0592,-648.19,-906.31,-672.06
20720,-3.8712,0.0183,-0.0508,945.56,421.88,1624.88
20730,-3.8712,0.0317,-0.0492,-1648.19,1500.00,781.13
20740,-3.8712,0.0466,-0.0500,70.56,1703.19,624.88
20750,-3.8712,0.0612,-0.0465,1976.81,1593.81,484.25
20760,-3.8713,0.0754,-0.0375,-163.82,-1953.06,-93.87
20770,-3.8713,0.0907,-0.0254,1664.31,-796.75,-906.37
20780,-3.8713,0.1060,-0.0138,-382.57,750.12,-1625.06
20790,-3.8713,0.1215,-0.0038,1570.56,-1765.44,1828.06
20800,-3.8713,0.1389,0.0052,-445.07,-484.19,1343.69
20810,-3.8713,0.1589,0.0087,1789.31,672.12,1296.88
20820,-3.8713,0.1780,0.0034,351.81,1109.68,-1968.75
20830,-3.8713,0.1932,-0.0055,-1210.69,437.81,-656.25
20840,-3.8712,0.2068,-0.0127,742.43,-702.76,843.69
20850,-3.8712,0.2201,-0.0206,-1523.19,-1624.63,-1843.81
20860,-3.8712,0.2311,-0.0308,179.93,1359.80,-750.06
20870,-3.8712,0.2352,-0.0361,1586.18,62.93,-109.44
20880,-3.8712,0.2314,-0.0322,-1882.57,-624.57,-718.87
20890,-3.8712,0.2207,-0.0275,1633.06,-124.57,937.38
20900,-3.8713,0.2063,-0.0320,258.06,484.80,1749.94
20910,-3.8715,0.1921,-0.0436,-1585.69,-93.38,-1093.87
20920,-3.8715,0.1792,-0.0563,601.81,-1577.76,671.75
20930,-3.8716,0.1711,-0.0709,-1054.44,797.18,-1047.00
20940,-3.8716,0.1699,-0.0887,1914.31,-1077.82,1421.69
20950,-3.8717,0.1697,-0.1107,1758.06,640.93,-453.31
20960,-3.8717,0.1702,-0.1423,1726.81,1828.43,1343.51
20970,-3.8717,0.1735,-0.1783,1789.31,1781.56,374.69
20980,-3.8717,0.1779,-0.2053,-1788.82,1172.18,1062.13
20990,-3.8717,0.1831,-0.2175,-1226.32,1719.06,1140.20
21000,-3.8718,0.1875,-0.2214,-554.44,156.56,-875.43
21010,-3.8719,0.1902,-0.2294,8.06,-343.38,-172.36
21020,-3.8719,0.1926,-0.2476,351.81,-1359.01,374.51
21030,-3.8721,0.1923,-0.2771,664.31,312.87,1593.26
21040,-3.8722,0.1854,-0.3163,617.43,531.62,-47.42
21050,-3.8722,0.1764,-0.3584,-257.57,-484.07,-594.42
21060,-3.8722,0.1770,-0.4010,-1413.82,-1874.69,-469.48
21070,-3.8721,0.1949,-0.4463,-1335.69,672.18,139.83
21080,-3.8721,0.2272,-0.4836,961.18,-1124.63,1420.96
21090,-3.8721,0.2626,-0.4971,1086.18,-1905.82,-1266.60
21100,-3.8721,0.2913,-0.4949,1617.43,375.49,-1282.23
21110,-3.8721,0.3024,-0.5020,1289.31,656.80,1389.65
21120,-3.8721,0.2928,-0.5291,-1288.82,-249.45,420.84
21130,-3.8721,0.2733,-0.5742,1492.43,281.80,764.59
21140,-3.8721,0.2595,-0.6218,-1007.57,-1499.51,-1438.66
21150,-3.8719,0.2629,-0.6553,1226.81,406.74,1342.53
21160,-3.8719,0.2804,-0.6781,1664.31,125.49,-735.66
21170,-3.8719,0.2981,-0.6960,-101.32,1203.61,-157.59
21180,-3.8718,0.3141,-0.7097,-1835.69,-1093.20,1045.47
21190,-3.8718,0.3392,-0.7252,211.18,1156.86,-251.40
21200,-3.8717,0.3779,-0.7415,-570.07,-827.51,-923.34
21210,-3.8716,0.4266,-0.7537,383.06,1094.48,-1767.09
21220,-3.8715,0.4827,-0.7635,-1382.57,-467.96,1201.60
21230,-3.8713,0.5464,-0.7697,1789.31,-1733.46,435.97
21240,-3.8712,0.6152,-0.7594,1945.56,1485.41,201.60
21250,-3.8711,0.6846,-0.7288,-1241.94,-1201.97,357.85
21260,-3.8710,0.7552,-0.6907,-366.94,-1279.97,279.79
21270,-3.8710,0.8306,-0.6638,679.93,-404.79,-923.28
21280,-3.8708,0.9001,-0.6440,-1679.44,-967.16,76.78
21290,-3.8708,0.9482,-0.6080,-773.19,1564.21,404.97
21300,-3.8708,0.9746,-0.5605,1383.06,-1826.29,1530.03
21310,-3.8708,0.9830,-0.5244,758.06,251.89,-438.60
21320,-3.8707,0.9670,-0.5050,1836.18,876.89,1608.34
21330,-3.8707,0.9224,-0.5007,-210.69,-638.79,-1688.54
21340,-3.8707,0.8630,-0.5172,-1929.44,-91.98,1311.46
21350,-3.8708,0.8062,-0.5431,-1523.19,1798.52,-172.91
21360,-3.8708,0.7415,-0.5627,-804.44,-1514.10,-844.85
21370,-3.8708,0.6550,-0.5787,-1085.69,-29.85,-1079.28
21380,-3.8708,0.5613,-0.5930,-148.19,1923.10,-1969.91
21390,-3.8710,0.4856,-0.6074,-148.19,94.79,-1.16
21400,-3.8710,0.4330,-0.6241,-1835.69,-1749.08,1420.65
21410,-3.8711,0.3940,-0.6418,-570.07,110.17,-110.60
21420,-3.8710,0.3622,-0.6565,-1554.44,1844.48,123.72
21430,-3.8710,0.3295,-0.6626,-1632.57,-30.58,733.03
21440,-3.8710,0.2926,-0.6631,-1820.07,-811.89,451.78
21450,-3.8711,0.2523,-0.6626,1461.18,-874.45,-610.72
21460,-3.8711,0.2025,-0.6632,304.93,-812.01,-1688.84
21470,-3.8711,0.1401,-0.6666,1929.93,-890.26,1654.91
21480,-3.8711,0.0756,-0.6722,1945.56,-1327.88,811.16
21490,-3.8712,0.0232,-0.6736,1679.93,1953.25,-704.47
21500,-3.8712,-0.0131,-0.6639,-1023.19,1781.25,1467.41
21510,-3.8713,-0.0369,-0.6479,-1663.82,-968.81,-360.72
21520,-3.8713,-0.0542,-0.6327,-710.69,1078.00,1842.47
21530,-3.8715,-0.0688,-0.6163,1070.56,-968.87,-32.53
21540,-3.8715,-0.0764,-0.5945,-804.44,1124.82,-1876.22
21550,-3.8715,-0.0687,-0.5687,-1773.19,-78.31,889.40
21560,-3.8715,-0.0471,-0.5442,-788.82,-781.43,483.22
21570,-3.8715,-0.0242,-0.5265,1976.81,-1640.75,655.15
21580,-3.8715,-0.0106,-0.5142,914.31,624.94,1186.46
21590,-3.8715,-0.0054,-0.5009,-1351.32,-1796.94,-1860.41
21600,-3.8715,0.0013,-0.4845,-679.44,-93.81,-704.16
21610,-3.8713,0.0165,-0.4684,179.93,1984.38,420.90
21620,-3.8713,0.0389,-0.4569,-1882.57,46.88,1764.71
21630,-3.8713,0.0647,-0.4508,992.43,1515.69,-516.54
21640,-3.8712,0.0917,-0.4476,289.31,-1703.00,1530.33
21650,-3.8712,0.1205,-0.4419,-257.57,-1296.75,-329.04
21660,-3.8711,0.1576,-0.4323,-570.07,-562.32,1780.33
21670,-3.8711,0.2072,-0.4275,179.93,672.18,-344.60
21680,-3.8710,0.2601,-0.4323,-1476.32,1281.62,811.65
21690,-3.8710,0.3052,-0.4397,1304.93,672.36,1280.40
21700,-3.8710,0.3430,-0.4434,-929.44,-280.70,1764.71
21710,-3.8710,0.3750,-0.4426,-85.69,-749.39,-750.92
21720,-3.8708,0.4003,-0.4370,8.06,-655.52,-1672.79
21730,-3.8707,0.4249,-0.4222,-757.57,63.23,-1985.23
21740,-3.8706,0.4517,-0.4009,-1601.32,1953.92,827.27
21750,-3.8706,0.4716,-0.3804,1820.56,688.35,1624.21
21760,-3.8707,0.4758,-0.3567,367.43,-686.58,-110.17
21770,-3.8708,0.4689,-0.3213,914.31,-1655.33,-94.48
21780,-3.8710,0.4601,-0.2802,23.68,-1124.08,-1828.80
21790,-3.8712,0.4553,-0.2389,-1101.32,141.48,-672.42
21800,-3.8713,0.4534,-0.1978,-1710.69,1422.73,405.76
21810,-3.8716,0.4524,-0.1614,-1960.69,-1311.65,-1703.55
21820,-3.8717,0.4514,-0.1334,1914.31,-655.40,1374.63
21830,-3.8718,0.4424,-0.1110,1789.31,-1077.27,1312.19
21840,-3.8719,0.4198,-0.0895,633.06,1797.73,1827.88
21850,-3.8721,0.3916,-0.0691,1742.43,547.67,-937.68
21860,-3.8721,0.3701,-0.0548,-1866.94,-843.02,1124.82
21870,-3.8722,0.3607,-0.0510,-616.94,985.05,-78.25
21880,-3.8722,0.3618,-0.0565,-1820.07,1469.42,-406.37
21890,-3.8721,0.3645,-0.0641,-1679.44,766.30,156.13
21900,-3.8721,0.3590,-0.0659,-1335.69,-202.45,843.57
21910,-3.8721,0.3475,-0.0596,1961.18,-436.83,765.44
21920,-3.8721,0.3414,-0.0492,492.43,375.67,31.13
21930,-3.8722,0.3483,-0.0422,-288.82,1703.74,-406.37
21940,-3.8722,0.3644,-0.0480,586.18,-1405.58,-390.75
21950,-3.8722,0.3813,-0.0726,-1351.32,1860.05,-297.00
21960,-3.8722,0.3922,-0.1143,820.56,-1296.14,-343.93
21970,-3.8721,0.3932,-0.1630,-1788.82,1375.73,171.63
21980,-3.8721,0.3856,-0.2028,-1663.82,-858.64,-1640.99
21990,-3.8719,0.3804,-0.2153,1367.43,-1952.39,-1719.18
22000,-3.8718,0.3950,-0.1953,695.56,438.23,-1062.93
22010,-3.8717,0.4373,-0.1676,-1429.44,-999.27,-1078.55
22020,-3.8716,0.4889,-0.1642,-23.19,-1452.33,1187.13
22030,-3.8716,0.5151,-0.1971,-1413.82,-1014.71,1593.38
22040,-3.8716,0.4949,-0.2598,1945.56,-1233.40,1124.57
22050,-3.8716,0.4304,-0.3324,-648.19,-1249.08,1093.20
22060,-3.8716,0.3459,-0.3871,-898.19,1453.92,-1500.67
22070,-3.8715,0.2678,-0.4073,289.31,-1546.20,733.58
22080,-3.8715,0.2092,-0.4043,-1710.69,-140.14,1717.90
22090,-3.8715,0.1733,-0.3956,-1210.69,250.37,327.33
22100,-3.8716,0.1549,-0.3878,-1804.44,1359.68,686.71
22110,-3.8718,0.1459,-0.3854,-163.82,-1640.38,-125.79
22120,-3.8719,0.1375,-0.3933,-1320.07,-1327.88,-672.67
22130,-3.8719,0.1219,-0.4070,1601.81,1656.49,77.33
22140,-3.8721,0.1002,-0.4202,-382.57,-93.57,-1578.98
22150,-3.8721,0.0792,-0.4381,836.18,-1781.07,-1453.98
22160,-3.8719,0.0610,-0.4585,-1851.32,-78.00,514.71
22170,-3.8719,0.0439,-0.4692,-179.44,1312.56,-1047.79
22180,-3.8718,0.0254,-0.4718,1633.06,-62.44,264.65
22190,-3.8718,0.0062,-0.4738,-741.94,-390.62,30.27
22200,-3.8719,-0.0128,-0.4749,804.93,-640.62,1936.52
22210,-3.8721,-0.0322,-0.4703,-1632.57,-765.69,-1219.73
22220,-3.8722,-0.0502,-0.4640,-116.94,-187.62,-63.48
22230,-3.8722,-0.0636,-0.4609,1586.18,624.88,1967.83
22240,-3.8722,-0.0752,-0.4611,-132.57,1015.44,1202.21
22250,-3.8722,-0.0920,-0.4636,-1616.94,999.82,-1688.42
22260,-3.8721,-0.1222,-0.4705,226.81,671.69,1874.08
22270,-3.8719,-0.1661,-0.4784,367.43,-203.37,-469.73
22280,-3.8717,-0.2136,-0.4792,-1257.57,-1219.12,1795.90
22290,-3.8716,-0.2529,-0.4712,664.31,-1328.55,-875.98
22300,-3.8715,-0.2784,-0.4597,-366.94,-297.42,-1063.48
22310,-3.8713,-0.2902,-0.4501,367.43,1171.33,1514.71
22320,-3.8713,-0.2931,-0.4425,-1132.57,-1594.36,-797.79
22330,-3.8712,-0.2930,-0.4362,-1507.57,-625.61,499.08
22340,-3.8712,-0.2902,-0.4283,-1491.94,186.89,1452.27
22350,-3.8712,-0.2839,-0.4146,-1132.57,1186.89,-1907.10
22360,-3.8712,-0.2754,-0.3976,-335.69,-1047.49,-1407.10
22370,-3.8712,-0.2672,-0.3867,758.06,1124.45,-1172.67
22380,-3.8712,-0.2653,-0.3899,1804.93,-1484.92,-703.92
22390,-3.8711,-0.2733,-0.4060,-1945.07,-1891.17,436.71
22400,-3.8711,-0.2874,-0.4222,1023.68,46.33,-1860.17
22410,-3.8710,-0.2983,-0.4252,-773.19,1968.14,202.27
22420,-3.8710,-0.2974,-0.4158,1820.56,1593.14,-1453.98
22430,-3.8708,-0.2877,-0.4052,1945.56,-1203.74,1014.77
22440,-3.8708,-0.2836,-0.4054,-820.07,155.64,-625.79
22450,-3.8707,-0.2891,-0.4208,-288.82,124.39,1530.46
22460,-3.8707,-0.2966,-0.4456,-991.94,-1844.36,-610.23
22470,-3.8706,-0.2972,-0.4723,-1960.69,-1016.24,1264.71
22480,-3.8706,-0.2872,-0.4928,1961.18,-438.11,-594.73
22490,-3.8705,-0.2748,-0.5026,-757.57,936.89,1764.65
22500,-3.8705,-0.2731,-0.5142,836.18,-313.05,-94.79
22510,-3.8704,-0.2889,-0.5380,1054.93,-1797.42,1905.21
22520,-3.8704,-0.3213,-0.5680,-976.32,-844.36,-219.85
22530,-3.8702,-0.3549,-0.5953,-1116.94,-688.17,811.34
22540,-3.8702,-0.3730,-0.6123,-1413.82,-188.23,530.03
22550,-3.8704,-0.3708,-0.6157,258.06,1639.89,-1157.47
22560,-3.8704,-0.3523,-0.6110,539.31,1202.39,264.40
22570,-3.8705,-0.3281,-0.6022,-1085.69,1811.77,1436.28
22580,-3.8706,-0.3069,-0.5876,-1991.94,-1063.17,-1829.35
22590,-3.8707,-0.2894,-0.5676,726.81,796.26,1873.84
22600,-3.8708,-0.2719,-0.5470,-1038.82,-641.24,389.47
22610,-3.8711,-0.2520,-0.5306,1211.18,1999.45,-1844.85
22620,-3.8712,-0.2318,-0.5178,-241.94,93.20,45.84
22630,-3.8715,-0.2140,-0.5057,-1663.82,1733.89,-1391.66
22640,-3.8716,-0.1976,-0.4935,617.43,-719.18,-1969.79
22650,-3.8717,-0.1794,-0.4871,-1288.82,843.32,-1719.73
22660,-3.8718,-0.1562,-0.4880,1039.31,1671.51,-500.98
22670,-3.8718,-0.1316,-0.4899,8.06,1546.57,1374.02
22680,-3.8719,-0.1140,-0.4902,-835.69,1312.19,-485.35
22690,-3.8719,-0.1036,-0.4917,1414.31,1265.38,1749.02
22700,-3.8719,-0.0929,-0.4951,-1257.57,1077.88,124.02
22710,-3.8721,-0.0779,-0.5050,117.43,640.44,-938.48
22720,-3.8721,-0.0615,-0.5258,-1960.69,-625.18,-1626.04
22730,-3.8721,-0.0499,-0.5498,133.06,718.63,1577.09
22740,-3.8721,-0.0435,-0.5662,1617.43,1640.50,373.90
22750,-3.8722,-0.0332,-0.5693,-1554.44,-453.25,-1048.03
22760,-3.8722,-0.0126,-0.5601,-241.94,-859.50,1717.59
22770,-3.8722,0.0149,-0.5441,-1601.32,328.06,436.40
22780,-3.8723,0.0400,-0.5264,1914.31,-1640.62,-1094.85
22790,-3.8723,0.0599,-0.5151,1133.06,625.06,1389.59
