timestamp_ms,ax,ay,az,gx,gy,gz
0,-3.8741,-0.0363,-0.9602,-898.19,1593.63,-955.02
10,-3.8741,-0.0396,-0.9626,-632.57,1109.25,1951.23
20,-3.8741,-0.0477,-0.9666,-1054.44,796.75,1060.61
30,-3.8741,-0.0582,-0.9701,1898.68,296.75,623.11
40,-3.8741,-0.0671,-0.9711,554.93,-156.37,529.30
50,-3.8741,-0.0712,-0.9701,-585.69,-281.43,466.80
60,-3.8741,-0.0684,-0.9661,-1101.32,-156.43,451.17
70,-3.8741,-0.0601,-0.9567,-741.94,359.19,873.11
80,-3.8741,-0.0475,-0.9436,320.56,1562.38,1779.36
90,-3.8741,-0.0304,-0.9335,1929.93,-765.75,-1564.39
100,-3.8741,-0.0105,-0.9353,117.43,531.19,-1611.21
110,-3.8741,0.0089,-0.9498,-1335.69,296.81,1998.17
120,-3.8741,0.0229,-0.9674,1148.68,-1578.12,1826.23
130,-3.8741,0.0294,-0.9829,-1054.44,171.88,1888.73
140,-3.8741,0.0297,-0.9967,-226.32,-1812.50,1873.05
150,-3.8741,0.0272,-1.0088,-195.07,421.88,1701.17
160,-3.8741,0.0250,-1.0175,-507.57,-1125.00,1201.11
170,-3.8741,0.0216,-1.0217,-788.82,1765.62,404.24
180,-3.8743,0.0127,-1.0243,-1226.32,1218.75,-267.64
190,-3.8743,-0.0016,-1.0277,1633.06,890.62,-1002.01
200,-3.8743,-0.0156,-1.0304,-195.07,468.69,1935.49
210,-3.8743,-0.0251,-1.0311,-1991.94,124.94,716.74
220,-3.8744,-0.0287,-1.0305,789.31,31.19,-267.64
230,-3.8744,-0.0264,-1.0261,336.18,109.31,-627.01
240,-3.8744,-0.0199,-1.0142,633.06,671.81,-595.76
250,-3.8744,-0.0120,-0.9950,1461.18,-1796.94,-330.14
260,-3.8743,-0.0054,-0.9728,-1523.19,656.19,107.42
270,-3.8743,-0.0022,-0.9531,-679.44,-500.06,310.55
280,-3.8743,-0.0033,-0.9391,-273.19,-1984.44,216.86
290,-3.8744,-0.0096,-0.9316,-413.82,-187.56,-173.77
300,-3.8744,-0.0194,-0.9293,-1226.32,765.56,-1142.46
310,-3.8744,-0.0284,-0.9308,1523.68,1062.44,1420.04
320,-3.8744,-0.0360,-0.9346,367.43,874.94,29.42
330,-3.8745,-0.0404,-0.9387,-601.32,390.50,-1204.96
340,-3.8745,-0.0408,-0.9424,-1163.82,-140.75,1498.11
350,-3.8745,-0.0381,-0.9486,-1210.69,-609.50,294.98
360,-3.8746,-0.0336,-0.9580,-866.94,-1406.37,-580.02
370,-3.8746,-0.0284,-0.9655,-288.82,1390.50,-1033.14
380,-3.8746,-0.0238,-0.9680,367.43,437.44,-767.52
390,-3.8745,-0.0200,-0.9626,961.18,109.31,279.36
400,-3.8745,-0.0168,-0.9487,1445.56,796.81,1607.48
410,-3.8745,-0.0125,-0.9352,1851.81,-1421.94,-1173.77
420,-3.8744,-0.0089,-0.9298,-1585.69,312.44,45.04
430,-3.8744,-0.0106,-0.9324,-1132.57,999.94,1498.17
440,-3.8744,-0.0171,-0.9410,-1351.32,671.81,-829.96
450,-3.8743,-0.0262,-0.9539,1820.56,-437.56,904.36
460,-3.8743,-0.0349,-0.9661,648.68,1921.81,-1642.52
470,-3.8743,-0.0402,-0.9736,-460.69,359.25,-595.64
480,-3.8743,-0.0439,-0.9791,-1132.57,-609.50,-330.08
490,-3.8743,-0.0491,-0.9875,-1616.94,-1312.62,-1033.20
500,-3.8743,-0.0546,-0.9998,1726.81,1609.25,1888.67
510,-3.8743,-0.0565,-1.0116,1023.68,46.75,966.80
520,-3.8743,-0.0516,-1.0187,773.68,-1468.87,232.36
530,-3.8744,-0.0397,-1.0189,1398.68,1624.88,-314.51
540,-3.8744,-0.0245,-1.0137,-1070.07,1593.63,-517.64
550,-3.8744,-0.0111,-1.0060,867.43,-1734.44,-298.89
560,-3.8744,-0.0023,-0.9963,-1413.82,-750.06,-17.64
570,-3.8744,-0.0011,-0.9886,-288.82,484.31,-33.20
580,-3.8744,-0.0074,-0.9888,-132.57,1468.69,-1.95
590,-3.8743,-0.0162,-0.9940,-945.07,1453.06,576.17
600,-3.8743,-0.0166,-0.9952,1929.93,781.19,1716.80
610,-3.8743,-0.0042,-0.9852,1883.06,624.94,-892.58
620,-3.8741,0.0132,-0.9675,-523.19,1906.19,107.42
630,-3.8741,0.0264,-0.9536,1695.56,156.25,373.11
640,-3.8741,0.0303,-0.9486,-616.94,1937.50,29.36
650,-3.8743,0.0217,-0.9492,-116.94,-1421.88,-845.64
660,-3.8743,0.0042,-0.9553,-1210.69,-1500.00,1294.98
670,-3.8744,-0.0159,-0.9689,539.31,1718.75,-1142.52
680,-3.8744,-0.0333,-0.9841,1976.81,-0.06,1279.30
690,-3.8744,-0.0441,-0.9954,-257.57,-1953.25,669.92
700,-3.8744,-0.0457,-1.0013,-1632.57,609.25,373.05
710,-3.8744,-0.0408,-0.9991,-1835.69,-156.37,247.99
720,-3.8744,-0.0334,-0.9886,-1210.69,124.88,373.05
730,-3.8744,-0.0275,-0.9761,-273.19,1468.63,607.42
740,-3.8744,-0.0276,-0.9662,492.43,-921.94,841.80
750,-3.8744,-0.0342,-0.9608,476.81,343.69,1576.23
760,-3.8744,-0.0442,-0.9585,-366.94,1031.13,-1251.89
770,-3.8744,-0.0552,-0.9574,-1648.19,1328.00,-330.02
780,-3.8744,-0.0651,-0.9580,945.56,1468.63,-236.27
790,-3.8744,-0.0721,-0.9618,-320.07,1390.44,-845.64
800,-3.8744,-0.0754,-0.9690,-1226.32,906.07,-1455.02
810,-3.8744,-0.0767,-0.9755,-1648.19,-15.81,-1673.83
820,-3.8744,-0.0787,-0.9753,-1804.44,-843.93,-1580.08
830,-3.8744,-0.0796,-0.9686,1929.93,-828.31,-1423.83
840,-3.8744,-0.0758,-0.9600,1820.56,31.07,-1376.89
850,-3.8744,-0.0702,-0.9540,-1695.07,1140.44,-1486.27
860,-3.8744,-0.0631,-0.9524,-976.32,1906.07,-1689.39
870,-3.8744,-0.0515,-0.9529,-70.07,-1890.81,-1970.64
880,-3.8744,-0.0394,-0.9540,1414.31,-1953.25,1763.73
890,-3.8744,-0.0314,-0.9570,-1038.82,1906.13,1732.48
900,-3.8744,-0.0289,-0.9634,-7.57,1515.50,1826.23
910,-3.8744,-0.0314,-0.9712,304.93,703.06,1654.36
920,-3.8744,-0.0341,-0.9772,-7.57,-297.00,1341.80
930,-3.8744,-0.0339,-0.9807,-351.32,-1062.62,1201.17
940,-3.8744,-0.0317,-0.9850,-335.69,-1515.75,1076.17
950,-3.8744,-0.0270,-0.9883,-54.44,1937.38,716.80
960,-3.8744,-0.0194,-0.9879,554.93,1515.56,388.67
970,-3.8744,-0.0120,-0.9877,1523.68,1562.44,404.30
980,-3.8744,-0.0088,-0.9910,-1523.19,1593.69,560.55
990,-3.8744,-0.0071,-0.9949,-1116.94,1171.81,998.05
1000,-3.8744,-0.0021,-0.9960,-898.19,671.81,1904.30
1010,-3.8744,0.0039,-0.9955,-257.57,531.19,-876.95
1020,-3.8743,0.0073,-0.9929,508.06,578.12,310.55
1030,-3.8743,0.0072,-0.9880,945.56,906.25,1310.55
1040,-3.8743,0.0035,-0.9850,929.93,1531.25,1998.05
1050,-3.8743,-0.0028,-0.9858,461.18,1921.88,-1970.70
1060,-3.8743,-0.0110,-0.9880,-351.32,1828.06,1529.30
1070,-3.8743,-0.0197,-0.9904,-1398.19,1546.81,810.55
1080,-3.8743,-0.0260,-0.9937,1492.43,1249.94,216.80
1090,-3.8743,-0.0253,-0.9941,679.93,828.06,91.80
1100,-3.8743,-0.0155,-0.9897,773.68,765.56,404.30
1110,-3.8743,-0.0013,-0.9802,-1976.32,1328.06,857.42
1120,-3.8743,0.0105,-0.9653,-163.82,-1453.19,1169.92
1130,-3.8743,0.0162,-0.9512,1351.81,437.50,1185.61
1140,-3.8743,0.0143,-0.9423,-1913.82,-1750.00,1013.73
1150,-3.8743,0.0066,-0.9393,1836.18,-609.38,685.61
1160,-3.8743,-0.0021,-0.9396,851.81,-234.38,248.11
1170,-3.8744,-0.0081,-0.9407,-257.57,-250.06,-158.14
1180,-3.8744,-0.0103,-0.9423,-1023.19,-390.69,-517.52
1190,-3.8744,-0.0066,-0.9423,-1304.44,-593.81,-705.02
1200,-3.8744,0.0020,-0.9410,-835.69,-593.81,-939.39
1210,-3.8744,0.0087,-0.9412,258.06,-453.12,-1611.27
1220,-3.8744,0.0090,-0.9441,1117.43,-468.75,1435.61
1230,-3.8744,0.0045,-0.9489,1164.31,-843.75,435.61
1240,-3.8745,-0.0007,-0.9551,586.18,-1453.12,-439.39
1250,-3.8745,-0.0018,-0.9646,-85.69,1765.56,-1158.14
1260,-3.8745,0.0020,-0.9742,-226.32,546.81,-1580.02
1270,-3.8745,0.0095,-0.9781,258.06,-703.12,-1548.83
1280,-3.8745,0.0172,-0.9757,1226.81,-1203.12,-1064.45
1290,-3.8745,0.0200,-0.9713,-1788.82,-890.62,-330.08
1300,-3.8744,0.0173,-0.9684,-1429.44,-328.12,466.80
1310,-3.8744,0.0098,-0.9672,-1773.19,46.88,1279.36
1320,-3.8744,-0.0009,-0.9669,1258.06,203.12,-1955.02
1330,-3.8744,-0.0103,-0.9652,-101.32,249.94,-1283.14
1340,-3.8744,-0.0161,-0.9636,-1304.44,468.69,-783.14
1350,-3.8744,-0.0177,-0.9633,1945.56,671.81,-205.02
1360,-3.8743,-0.0137,-0.9620,1742.43,718.69,341.86
1370,-3.8743,-0.0057,-0.9611,-1741.94,874.94,419.98
1380,-3.8743,0.0006,-0.9641,-726.32,999.94,232.48
1390,-3.8744,0.0022,-0.9705,86.18,593.75,-48.77
1400,-3.8744,0.0010,-0.9762,289.31,-218.75,-501.95
1410,-3.8744,-0.0012,-0.9789,133.06,-953.12,-1095.70
1420,-3.8744,-0.0035,-0.9806,-148.19,-1281.31,-1767.58
1430,-3.8744,-0.0045,-0.9823,-445.07,-1500.06,1904.30
1440,-3.8744,-0.0026,-0.9825,-570.07,-1718.81,-1814.45
1450,-3.8744,0.0013,-0.9817,-320.07,-1750.06,-1236.33
1460,-3.8744,0.0061,-0.9791,179.93,-1656.25,-705.08
1470,-3.8744,0.0092,-0.9766,789.31,-1328.12,-251.95
1480,-3.8743,0.0078,-0.9783,1179.93,-1000.00,279.30
1490,-3.8743,0.0035,-0.9819,1008.06,-1218.75,1029.30
1500,-3.8743,0.0005,-0.9816,461.18,-1687.50,1826.17
1510,-3.8743,0.0005,-0.9773,70.56,-1640.62,-1580.08
1520,-3.8743,0.0018,-0.9706,70.56,-1093.75,-986.33
1530,-3.8743,0.0021,-0.9640,242.43,-234.38,-298.83
1540,-3.8741,0.0016,-0.9622,273.68,609.38,404.36
1550,-3.8741,-0.0001,-0.9657,211.18,843.75,935.61
1560,-3.8741,-0.0042,-0.9695,-7.57,406.19,1091.86
1570,-3.8741,-0.0079,-0.9697,-523.19,-78.19,919.92
1580,-3.8741,-0.0107,-0.9669,-1007.57,-109.44,388.67
1590,-3.8743,-0.0139,-0.9647,-1366.94,249.94,-251.89
1600,-3.8743,-0.0178,-0.9663,-1773.19,531.19,-689.39
1610,-3.8743,-0.0206,-0.9701,1726.81,328.06,-1095.64
1620,-3.8743,-0.0206,-0.9728,1367.43,-156.31,-1470.70
1630,-3.8743,-0.0179,-0.9746,1367.43,-500.06,-1736.33
1640,-3.8743,-0.0145,-0.9774,1711.18,-734.44,1998.05
1650,-3.8743,-0.0138,-0.9807,-1851.32,-1093.81,1794.92
1660,-3.8743,-0.0200,-0.9845,-1757.57,-1515.69,1544.92
1670,-3.8743,-0.0341,-0.9899,1445.56,1999.94,951.17
1680,-3.8743,-0.0515,-0.9960,-351.32,1312.38,263.67
1690,-3.8743,-0.0651,-1.0033,1414.31,531.13,13.67
1700,-3.8743,-0.0685,-1.0112,-320.07,-406.43,466.74
1710,-3.8743,-0.0599,-1.0133,-757.57,-1422.06,1529.24
1720,-3.8743,-0.0444,-1.0032,336.18,-1687.62,-1033.26
1730,-3.8741,-0.0308,-0.9862,-1679.44,-390.75,263.61
1740,-3.8741,-0.0261,-0.9740,70.56,1781.19,1232.42
1750,-3.8741,-0.0303,-0.9702,664.31,-656.31,-1767.58
1760,-3.8741,-0.0354,-0.9700,133.06,-171.94,-611.33
1770,-3.8740,-0.0350,-0.9669,-523.19,-140.75,388.67
1780,-3.8740,-0.0311,-0.9608,-476.32,249.88,935.61
1790,-3.8740,-0.0294,-0.9539,23.68,1031.19,1107.48
1800,-3.8740,-0.0308,-0.9502,242.43,1921.81,1169.98
1810,-3.8740,-0.0305,-0.9495,70.56,-1609.44,1216.86
1820,-3.8740,-0.0273,-0.9464,101.81,-1515.69,966.86
1830,-3.8740,-0.0217,-0.9445,508.06,-1125.06,91.86
1840,-3.8741,-0.0134,-0.9451,1226.81,-875.06,-1142.52
1850,-3.8741,-0.0034,-0.9420,-1710.69,-953.19,1607.48
1860,-3.8741,0.0038,-0.9362,-429.44,-562.56,185.61
1870,-3.8743,0.0044,-0.9299,492.43,171.88,-1486.21
1880,-3.8743,0.0009,-0.9261,570.56,968.75,1029.42
1890,-3.8744,-0.0039,-0.9308,117.43,1453.12,-189.33
1900,-3.8744,-0.0092,-0.9437,-491.94,874.94,-970.58
1910,-3.8744,-0.0142,-0.9567,-1163.82,-781.31,-1423.77
1920,-3.8744,-0.0182,-0.9619,-1804.44,1562.44,1716.86
1930,-3.8744,-0.0221,-0.9603,1679.93,890.56,310.61
1940,-3.8745,-0.0282,-0.9587,1179.93,1093.69,-1251.89
1950,-3.8745,-0.0364,-0.9623,398.68,1296.81,1388.73
1960,-3.8745,-0.0424,-0.9686,-648.19,843.63,466.86
1970,-3.8746,-0.0432,-0.9718,-1413.82,31.13,-189.39
1980,-3.8746,-0.0393,-0.9718,-1523.19,-375.12,-830.08
1990,-3.8746,-0.0326,-0.9684,-1023.19,-375.12,-1501.95
2000,-3.8746,-0.0269,-0.9634,-163.82,62.38,1841.86
2010,-3.8746,-0.0251,-0.9630,570.56,703.06,1138.73
2020,-3.8746,-0.0258,-0.9692,789.31,749.94,826.23
2030,-3.8746,-0.0250,-0.9771,711.18,-46.94,966.80
2040,-3.8746,-0.0212,-0.9830,804.93,-1046.94,1544.92
2050,-3.8746,-0.0125,-0.9851,1289.31,-1812.56,-1236.33
2060,-3.8745,0.0024,-0.9806,-1585.69,1921.81,419.92
2070,-3.8745,0.0203,-0.9709,320.56,-1515.62,1966.80
2080,-3.8745,0.0354,-0.9644,-1398.19,-281.25,-689.45
2090,-3.8744,0.0457,-0.9658,539.31,562.56,935.61
2100,-3.8744,0.0532,-0.9727,1851.81,375.06,-986.27
2110,-3.8743,0.0594,-0.9796,-1179.44,-499.94,873.05
2120,-3.8743,0.0654,-0.9840,-382.57,-1390.56,1857.42
2130,-3.8743,0.0729,-0.9863,383.06,-1953.00,-1939.45
2140,-3.8743,0.0785,-0.9854,1336.18,1750.12,1904.30
2150,-3.8743,0.0795,-0.9819,-1945.07,1875.12,1607.42
2160,-3.8743,0.0756,-0.9795,-1820.07,-1687.38,1451.17
2170,-3.8743,0.0674,-0.9790,1679.93,-1374.88,1591.80
2180,-3.8743,0.0547,-0.9773,633.06,-1312.38,1998.05
2190,-3.8743,0.0397,-0.9725,-991.94,-1093.69,-1486.33
2200,-3.8743,0.0265,-0.9672,1086.18,-484.31,-1095.70
2210,-3.8743,0.0156,-0.9652,-601.32,203.12,-1330.02
2220,-3.8743,0.0082,-0.9680,-1991.94,453.12,1763.73
2230,-3.8743,0.0044,-0.9714,1054.93,93.75,873.11
2240,-3.8743,0.0028,-0.9708,570.56,-343.75,263.67
2250,-3.8744,0.0034,-0.9669,367.43,-265.62,-470.70
2260,-3.8744,0.0031,-0.9641,445.56,234.38,-1658.14
2270,-3.8744,-0.0035,-0.9641,398.68,593.75,951.23
2280,-3.8745,-0.0168,-0.9637,-445.07,609.31,-33.14
2290,-3.8745,-0.0321,-0.9609,1851.81,656.19,-564.39
2300,-3.8745,-0.0468,-0.9581,-101.32,1015.50,-1111.27
2310,-3.8745,-0.0602,-0.9583,-1976.32,1374.88,-1798.77
2320,-3.8745,-0.0695,-0.9662,304.93,1359.25,1623.11
2330,-3.8745,-0.0692,-0.9835,-882.57,343.57,1482.48
2340,-3.8745,-0.0577,-1.0002,-851.32,-1875.18,1888.67
2350,-3.8745,-0.0398,-1.0035,617.43,-15.75,-1189.51
2360,-3.8745,-0.0193,-0.9954,-1085.69,-437.62,-48.89
2370,-3.8744,0.0012,-0.9863,1539.31,609.31,1154.30
2380,-3.8744,0.0129,-0.9811,164.31,1750.00,-1330.08
2390,-3.8743,0.0126,-0.9811,1664.31,-1578.12,388.67
2400,-3.8743,0.0072,-0.9819,1617.43,-1578.12,1857.42
2410,-3.8743,-0.0033,-0.9794,929.93,-1687.50,-1205.08
2420,-3.8743,-0.0211,-0.9752,-413.82,-1343.81,-830.08
2430,-3.8743,-0.0426,-0.9702,1304.93,-812.56,-830.08
2440,-3.8743,-0.0619,-0.9666,-1445.07,-172.00,-1205.08
2450,-3.8743,-0.0728,-0.9659,86.18,296.75,-1892.52
2460,-3.8743,-0.0735,-0.9673,-1304.44,374.82,1310.61
2470,-3.8743,-0.0688,-0.9684,-1398.19,202.94,466.86
2480,-3.8744,-0.0612,-0.9688,-804.44,62.32,-455.02
2490,-3.8744,-0.0508,-0.9684,179.93,15.50,-1392.52
2500,-3.8744,-0.0394,-0.9677,1508.06,62.38,1638.73
2510,-3.8744,-0.0262,-0.9697,-1038.82,156.13,701.23
2520,-3.8744,-0.0131,-0.9745,648.68,-109.44,154.30
2530,-3.8744,-0.0043,-0.9774,-1663.82,-718.81,60.55
2540,-3.8744,-0.0006,-0.9752,-538.82,-1093.81,29.30
2550,-3.8744,-0.0027,-0.9691,-70.07,-812.56,76.17
2560,-3.8744,-0.0117,-0.9626,-335.69,-31.31,263.67
2570,-3.8744,-0.0239,-0.9603,-1491.94,796.81,373.11
2580,-3.8744,-0.0328,-0.9640,945.56,1093.69,341.86
2590,-3.8744,-0.0337,-0.9678,-195.07,624.88,201.23
2600,-3.8745,-0.0225,-0.9677,-304.44,140.50,-64.39
2610,-3.8745,-0.0024,-0.9666,1133.06,156.19,-189.39
2620,-3.8745,0.0153,-0.9657,-304.44,296.81,-1.89
2630,-3.8744,0.0247,-0.9639,1961.18,390.62,60.61
2640,-3.8745,0.0250,-0.9641,-835.69,625.00,-470.64
2650,-3.8745,0.0182,-0.9683,-788.82,593.75,-1470.64
2660,-3.8745,0.0094,-0.9740,-1663.82,62.50,1419.98
2670,-3.8745,0.0001,-0.9796,1211.18,-671.88,529.30
2680,-3.8745,-0.0092,-0.9825,23.68,-1390.62,91.80
2690,-3.8746,-0.0139,-0.9822,-1163.82,-1750.06,-64.45
2700,-3.8746,-0.0112,-0.9801,-1773.19,-1703.19,-205.08
2710,-3.8746,-0.0048,-0.9801,-1429.44,-1437.56,-408.20
2720,-3.8746,0.0026,-0.9850,-601.32,-1437.56,-455.08
2730,-3.8746,0.0117,-0.9890,336.18,1921.88,-251.95
2740,-3.8746,0.0210,-0.9867,1508.06,1406.25,-64.45
2750,-3.8746,0.0272,-0.9819,-1304.44,1703.12,-17.58
2760,-3.8745,0.0302,-0.9779,-507.57,-1687.50,76.17
2770,-3.8745,0.0294,-0.9734,-132.57,-1171.88,154.30
2780,-3.8746,0.0226,-0.9692,-226.32,-593.75,-111.33
2790,-3.8746,0.0111,-0.9697,-1101.32,-62.50,-845.70
2800,-3.8746,-0.0006,-0.9757,1429.93,-125.00,-1611.33
2810,-3.8746,-0.0087,-0.9803,-70.07,-875.06,-1986.33
2820,-3.8746,-0.0104,-0.9767,-1101.32,-1468.81,1857.42
2830,-3.8746,-0.0077,-0.9691,-1320.07,-1000.06,1560.55
2840,-3.8746,-0.0040,-0.9670,-976.32,-31.31,1091.80
2850,-3.8746,-0.0048,-0.9722,-507.57,234.31,779.36
2860,-3.8746,-0.0131,-0.9808,-601.32,-421.94,623.05
2870,-3.8746,-0.0251,-0.9890,-1663.82,-1531.31,482.42
2880,-3.8746,-0.0344,-0.9934,789.31,1421.81,498.05
2890,-3.8746,-0.0374,-0.9930,-398.19,859.25,763.67
2900,-3.8746,-0.0345,-0.9904,-773.19,906.13,1060.55
2910,-3.8746,-0.0287,-0.9880,-413.82,1249.88,1435.55
2920,-3.8746,-0.0225,-0.9855,336.18,1546.81,-1830.08
2930,-3.8746,-0.0165,-0.9817,1133.06,1874.94,-736.33
2940,-3.8745,-0.0101,-0.9749,1898.68,-1640.69,498.05
2950,-3.8745,-0.0044,-0.9666,-1288.82,-765.69,1591.80
2960,-3.8745,-0.0038,-0.9612,-554.44,296.81,-1658.14
2970,-3.8745,-0.0100,-0.9629,-476.32,984.31,-1173.77
2980,-3.8745,-0.0197,-0.9700,-1273.19,765.56,-814.39
2990,-3.8745,-0.0272,-0.9767,1492.43,-140.69,-455.08
3000,-3.8745,-0.0287,-0.9796,523.68,-1000.06,-173.83
3010,-3.8744,-0.0223,-0.9780,336.18,-1375.06,60.55
3020,-3.8744,-0.0107,-0.9725,1148.68,-1171.94,326.17
3030,-3.8744,0.0002,-0.9678,-1366.94,-468.81,498.05
3040,-3.8744,0.0039,-0.9685,39.31,125.00,482.48
3050,-3.8744,-0.0029,-0.9747,508.06,31.25,357.48
3060,-3.8744,-0.0132,-0.9832,-366.94,-750.06,248.05
3070,-3.8744,-0.0171,-0.9894,-1679.44,-1828.19,60.55
3080,-3.8744,-0.0112,-0.9916,1820.56,1374.94,13.67
3090,-3.8744,0.0020,-0.9888,-1429.44,1093.69,123.05
3100,-3.8744,0.0178,-0.9834,258.06,1437.50,138.67
3110,-3.8744,0.0312,-0.9790,-1710.69,-1875.00,169.92
3120,-3.8744,0.0365,-0.9756,8.06,-1312.44,357.42
3130,-3.8744,0.0323,-0.9745,679.93,-874.94,482.42
3140,-3.8744,0.0233,-0.9745,148.68,-734.31,388.67
3150,-3.8744,0.0110,-0.9717,-1007.57,-734.38,107.42
3160,-3.8745,-0.0055,-0.9688,1414.31,-375.00,-236.33
3170,-3.8745,-0.0203,-0.9668,-695.07,15.56,-361.27
3180,-3.8745,-0.0258,-0.9647,1414.31,265.56,-236.27
3190,-3.8745,-0.0233,-0.9639,711.18,531.19,-111.27
3200,-3.8744,-0.0183,-0.9631,1023.68,640.56,154.36
3210,-3.8744,-0.0122,-0.9633,1664.31,734.31,779.36
3220,-3.8744,-0.0056,-0.9659,-1554.44,718.69,1388.73
3230,-3.8744,0.0001,-0.9728,-710.69,374.94,1779.36
3240,-3.8744,0.0046,-0.9832,23.68,-515.62,-1986.33
3250,-3.8744,0.0083,-0.9894,601.81,-1843.75,-1783.20
3260,-3.8744,0.0128,-0.9874,1070.56,1359.38,-1470.70
3270,-3.8744,0.0187,-0.9814,1648.68,1609.38,-1189.45
3280,-3.8744,0.0229,-0.9745,-1601.32,-1625.00,-939.45
3290,-3.8744,0.0245,-0.9714,-1054.44,-734.38,-798.83
3300,-3.8744,0.0251,-0.9747,-851.32,-343.75,-736.33
3310,-3.8744,0.0264,-0.9797,-773.19,-765.62,-673.83
3320,-3.8744,0.0283,-0.9819,-616.94,-1406.25,-892.58
3330,-3.8744,0.0310,-0.9795,-366.94,-1687.50,-1486.33
3340,-3.8744,0.0328,-0.9756,-23.19,-1375.00,1685.55
3350,-3.8744,0.0310,-0.9749,211.18,-874.94,873.05
3360,-3.8744,0.0250,-0.9761,-23.19,-781.25,263.67
3370,-3.8745,0.0162,-0.9767,-788.82,-937.50,-267.58
3380,-3.8745,0.0067,-0.9773,-1913.82,-1015.62,-876.95
3390,-3.8745,-0.0002,-0.9777,867.43,-1093.75,-1595.70
3400,-3.8745,-0.0037,-0.9777,-23.19,-1125.06,1685.55
3410,-3.8745,-0.0054,-0.9785,-460.69,-1125.06,1138.67
3420,-3.8745,-0.0071,-0.9827,-679.44,-1234.44,904.30
3430,-3.8745,-0.0093,-0.9874,-898.19,-1765.69,1107.42
3440,-3.8745,-0.0104,-0.9858,-1179.44,1624.94,1623.05
3450,-3.8745,-0.0105,-0.9768,-1320.07,1828.06,-1751.95
3460,-3.8745,-0.0110,-0.9666,-1335.69,-1015.69,-1111.33
3470,-3.8745,-0.0135,-0.9585,-1398.19,296.81,-376.89
3480,-3.8744,-0.0182,-0.9529,-1726.32,1328.06,154.36
3490,-3.8744,-0.0223,-0.9515,1679.93,-1953.19,91.86
3500,-3.8745,-0.0229,-0.9552,1148.68,-1781.31,-314.39
3510,-3.8745,-0.0203,-0.9629,1070.56,1749.94,-845.64
3520,-3.8745,-0.0137,-0.9730,1414.31,765.56,-1330.02
3530,-3.8745,-0.0039,-0.9838,-1741.94,-531.31,-1564.45
3540,-3.8745,0.0062,-0.9933,-491.94,-1906.31,-1267.58
3550,-3.8745,0.0177,-0.9984,804.93,859.38,-439.45
3560,-3.8744,0.0306,-0.9948,-1726.32,203.12,748.05
3570,-3.8744,0.0410,-0.9834,-70.07,671.88,-1908.20
3580,-3.8744,0.0463,-0.9717,1258.06,-1874.94,-830.08
3590,-3.8744,0.0460,-0.9648,1929.93,-374.94,-142.58
3600,-3.8743,0.0411,-0.9639,1898.68,500.06,279.36
3610,-3.8743,0.0350,-0.9664,1273.68,625.06,435.61
3620,-3.8743,0.0319,-0.9684,492.43,296.94,279.36
3630,-3.8744,0.0327,-0.9708,86.18,46.94,-48.77
3640,-3.8744,0.0374,-0.9735,195.56,-265.56,-205.08
3650,-3.8744,0.0428,-0.9756,789.31,-609.31,-392.58
3660,-3.8744,0.0428,-0.9780,1492.43,-874.94,-892.58
3670,-3.8744,0.0363,-0.9779,1492.43,-1187.44,-1548.83
3680,-3.8744,0.0255,-0.9749,648.68,-1171.81,1638.67
3690,-3.8744,0.0129,-0.9741,-726.32,-781.25,873.05
3700,-3.8744,0.0052,-0.9780,1664.31,-687.50,435.55
3710,-3.8744,0.0087,-0.9824,679.93,-1187.50,185.55
3720,-3.8744,0.0206,-0.9850,1117.43,-1750.00,91.80
3730,-3.8744,0.0336,-0.9858,-1351.32,1921.88,76.17
3740,-3.8745,0.0409,-0.9833,304.93,1812.56,-17.58
3750,-3.8745,0.0385,-0.9773,1242.43,-1859.31,-142.58
3760,-3.8745,0.0262,-0.9727,929.93,-1093.69,-455.08
3770,-3.8745,0.0081,-0.9720,-632.57,-500.00,-689.45
3780,-3.8745,-0.0089,-0.9722,1039.31,-421.88,-642.58
3790,-3.8745,-0.0183,-0.9717,-1132.57,-421.94,-455.08
3800,-3.8745,-0.0195,-0.9712,1664.31,-359.44,-142.58
3810,-3.8744,-0.0181,-0.9696,1508.06,-296.94,169.92
3820,-3.8744,-0.0189,-0.9688,1695.56,-93.81,732.42
3830,-3.8744,-0.0232,-0.9702,1586.18,15.56,1357.48
3840,-3.8744,-0.0293,-0.9727,1039.31,-171.94,1591.80
3850,-3.8744,-0.0365,-0.9739,258.06,-484.44,-1986.33
3860,-3.8744,-0.0441,-0.9730,-663.82,-640.75,-1361.33
3870,-3.8744,-0.0491,-0.9725,-1632.57,-531.37,-1017.58
3880,-3.8744,-0.0487,-0.9719,1726.81,-468.87,-798.83
3890,-3.8744,-0.0426,-0.9684,1773.68,-390.75,-798.83
3900,-3.8744,-0.0336,-0.9620,-1445.07,62.38,-533.14
3910,-3.8743,-0.0259,-0.9589,-288.82,874.88,263.73
3920,-3.8743,-0.0208,-0.9589,695.56,1281.19,654.36
3930,-3.8743,-0.0182,-0.9598,1351.81,1281.19,685.61
3940,-3.8743,-0.0165,-0.9636,1679.93,1156.19,607.48
3950,-3.8743,-0.0120,-0.9701,1898.68,671.81,373.11
3960,-3.8743,-0.0054,-0.9745,-1523.19,-156.31,123.05
3970,-3.8743,0.0031,-0.9761,-679.44,-718.81,13.67
3980,-3.8743,0.0133,-0.9760,398.68,-937.50,13.67
3990,-3.8743,0.0210,-0.9723,1711.18,-921.88,13.67
4000,-3.8744,0.0220,-0.9675,-1304.44,-453.12,-48.83
4010,-3.8743,0.0208,-0.9646,-1179.44,156.25,44.98
4020,-3.8743,0.0210,-0.9633,-1335.69,531.25,404.36
4030,-3.8743,0.0215,-0.9634,-1304.44,703.12,716.86
4040,-3.8743,0.0225,-0.9650,-1241.94,687.50,607.48
4050,-3.8744,0.0251,-0.9647,-1116.94,484.38,-1.89
4060,-3.8744,0.0281,-0.9646,-773.19,515.62,-1001.89
4070,-3.8744,0.0293,-0.9688,-398.19,531.25,1638.73
4080,-3.8744,0.0299,-0.9764,-241.94,0.00,341.86
4090,-3.8745,0.0321,-0.9844,-163.82,-984.38,-626.95
4100,-3.8745,0.0353,-0.9878,117.43,-1999.94,-1455.08
4110,-3.8745,0.0387,-0.9844,523.68,1562.56,1748.05
4120,-3.8745,0.0421,-0.9800,961.18,-1999.94,1029.30
4130,-3.8745,0.0444,-0.9774,1398.68,-1437.44,591.80
4140,-3.8745,0.0464,-0.9763,1695.56,-1109.31,591.80
4150,-3.8745,0.0481,-0.9769,1945.56,-968.69,826.17
4160,-3.8745,0.0466,-0.9768,-1835.69,-1046.81,1091.80
4170,-3.8745,0.0442,-0.9740,1976.81,-1031.19,1216.80
4180,-3.8745,0.0431,-0.9706,1664.31,-671.81,1248.05
4190,-3.8745,0.0406,-0.9697,1523.68,-234.31,1154.30
4200,-3.8745,0.0380,-0.9712,1211.18,-124.94,998.05
4210,-3.8745,0.0378,-0.9757,867.43,-312.44,1076.17
4220,-3.8745,0.0387,-0.9825,851.81,-890.56,1419.92
4230,-3.8745,0.0414,-0.9852,961.18,-1765.56,1857.42
4240,-3.8745,0.0461,-0.9799,1304.93,1890.69,-1689.45
4250,-3.8745,0.0486,-0.9722,1914.31,-1421.81,-1236.33
4260,-3.8745,0.0471,-0.9696,-1773.19,-437.44,-798.83
4270,-3.8745,0.0446,-0.9738,-1960.69,-109.31,-126.95
4280,-3.8744,0.0444,-0.9818,1711.18,-640.56,716.80
4290,-3.8744,0.0483,-0.9895,1695.56,-1671.81,1701.17
4300,-3.8744,0.0536,-0.9924,-1804.44,1343.81,-1330.08
4310,-3.8744,0.0576,-0.9875,-1132.57,968.81,-736.33
4320,-3.8744,0.0577,-0.9772,-616.94,1593.81,-751.95
4330,-3.8744,0.0513,-0.9689,-601.32,-1078.06,-1345.70
4340,-3.8744,0.0391,-0.9684,-1429.44,-15.56,1732.42
4350,-3.8744,0.0236,-0.9771,1008.06,46.94,607.48
4360,-3.8745,0.0085,-0.9895,-976.32,-1062.50,-361.33
4370,-3.8745,-0.0032,-0.9969,1101.81,1343.75,-892.58
4380,-3.8745,-0.0096,-0.9960,-398.19,406.19,-1345.70
4390,-3.8745,-0.0121,-0.9885,-1226.32,531.19,-1923.83
4400,-3.8745,-0.0159,-0.9797,-1538.82,1484.31,1654.30
4410,-3.8745,-0.0223,-0.9741,1976.81,-1390.69,1513.67
4420,-3.8745,-0.0271,-0.9725,1148.68,-671.94,1623.05
4430,-3.8745,-0.0254,-0.9728,539.31,-468.81,1904.30
4440,-3.8745,-0.0154,-0.9736,758.06,-500.06,-1580.08
4450,-3.8745,-0.0013,-0.9747,-1960.69,-609.44,-751.95
4460,-3.8744,0.0104,-0.9736,-163.82,-750.06,123.05
4470,-3.8744,0.0157,-0.9702,1336.18,-625.00,748.05
4480,-3.8744,0.0137,-0.9680,-1976.32,-187.50,857.42
4490,-3.8744,0.0078,-0.9691,1758.06,93.75,498.11
4500,-3.8745,0.0035,-0.9719,1008.06,-46.88,-95.70
4510,-3.8745,0.0031,-0.9740,461.18,-406.25,-751.95
4520,-3.8745,0.0068,-0.9760,398.68,-671.88,-1361.33
4530,-3.8745,0.0118,-0.9790,883.06,-921.88,-1845.70
4540,-3.8745,0.0155,-0.9813,1523.68,-1312.50,1810.55
4550,-3.8745,0.0150,-0.9827,1992.43,-1609.38,1419.92
4560,-3.8745,0.0099,-0.9845,1929.93,-1781.25,1154.30
4570,-3.8745,0.0039,-0.9839,1273.68,1984.38,1482.42
4580,-3.8745,-0.0001,-0.9785,508.06,-1937.50,-1923.83
4590,-3.8745,0.0009,-0.9709,-7.57,-1234.44,-1423.83
4600,-3.8745,0.0072,-0.9651,117.43,-281.25,-892.58
4610,-3.8745,0.0135,-0.9633,929.93,468.75,-126.89
4620,-3.8744,0.0187,-0.9633,1742.43,703.12,810.61
4630,-3.8744,0.0239,-0.9630,-1601.32,703.12,1388.73
4640,-3.8744,0.0261,-0.9639,-929.44,734.38,1310.61
4650,-3.8744,0.0244,-0.9669,-648.19,625.00,904.36
4660,-3.8744,0.0217,-0.9702,-866.94,234.38,482.48
4670,-3.8744,0.0193,-0.9727,-1210.69,-187.50,154.30
4680,-3.8745,0.0184,-0.9740,-1523.19,-500.00,-33.20
4690,-3.8745,0.0206,-0.9741,-1632.57,-671.88,-173.83
4700,-3.8745,0.0243,-0.9744,-1351.32,-687.50,-251.95
4710,-3.8745,0.0272,-0.9742,-882.57,-718.75,-267.58
4720,-3.8745,0.0293,-0.9725,-507.57,-703.12,-220.70
4730,-3.8745,0.0302,-0.9692,-241.94,-484.38,-173.83
4740,-3.8745,0.0272,-0.9658,-132.57,-62.50,-408.20
4750,-3.8745,0.0225,-0.9661,-507.57,375.00,-1001.89
4760,-3.8745,0.0197,-0.9718,-1116.94,343.75,-1830.02
4770,-3.8745,0.0206,-0.9813,-1476.32,-390.62,1404.30
4780,-3.8745,0.0264,-0.9891,-1351.32,-1609.38,1076.17
4790,-3.8745,0.0363,-0.9924,-616.94,1390.62,1138.67
4800,-3.8745,0.0480,-0.9905,648.68,968.81,1123.05
4810,-3.8745,0.0605,-0.9862,-1851.32,1218.81,701.17
4820,-3.8746,0.0699,-0.9841,-241.94,1765.69,-48.83
4830,-3.8746,0.0706,-0.9847,961.18,-1968.63,-939.45
4840,-3.8746,0.0625,-0.9872,1039.31,1953.25,-1611.33
4850,-3.8746,0.0529,-0.9915,8.06,1640.75,-1923.83
4860,-3.8746,0.0464,-0.9966,-1226.32,1093.81,-1970.70
4870,-3.8746,0.0415,-1.0004,1945.56,437.56,-1564.45
4880,-3.8746,0.0371,-0.9999,1320.56,-46.81,-486.39
4890,-3.8745,0.0323,-0.9949,758.06,15.69,966.80
4900,-3.8745,0.0254,-0.9857,148.68,656.31,-1501.95
4910,-3.8745,0.0154,-0.9740,-741.94,1828.12,-267.58
4920,-3.8744,0.0017,-0.9648,1976.81,-671.88,654.30
4930,-3.8744,-0.0123,-0.9619,226.81,500.00,1388.73
4940,-3.8744,-0.0209,-0.9633,-1570.07,890.56,1935.61
4950,-3.8744,-0.0200,-0.9656,1336.18,718.69,-1705.02
4960,-3.8744,-0.0140,-0.9661,1445.56,421.81,-1705.02
4970,-3.8744,-0.0103,-0.9655,-1788.82,359.31,1841.86
4980,-3.8744,-0.0107,-0.9655,-1304.44,437.44,982.48
4990,-3.8745,-0.0171,-0.9642,-1366.94,437.44,-95.64
5000,-3.8745,-0.0282,-0.9613,1820.56,593.69,-1142.52
5010,-3.8745,-0.0389,-0.9576,398.68,968.69,1763.73
5020,-3.8745,-0.0432,-0.9521,-976.32,1437.38,404.36
5030,-3.8746,-0.0387,-0.9480,-1523.19,-1859.50,-986.27
5040,-3.8746,-0.0280,-0.9565,-945.07,-1328.25,1904.36
5050,-3.8746,-0.0117,-0.9773,429.93,1578.06,1482.48
5060,-3.8746,0.0100,-0.9915,-1491.94,-1078.19,1904.30
5070,-3.8746,0.0304,-0.9910,1289.31,1093.75,-1314.45
5080,-3.8746,0.0427,-0.9844,-101.32,1156.25,-408.20
5090,-3.8745,0.0482,-0.9766,1476.81,-1999.94,669.92
5100,-3.8745,0.0497,-0.9722,-1820.07,-999.94,1748.05
5110,-3.8745,0.0475,-0.9755,-1632.57,-437.44,-1080.08
5120,-3.8744,0.0442,-0.9825,-1913.82,-859.31,357.42
5130,-3.8744,0.0424,-0.9875,1664.31,-1765.56,1935.55
5140,-3.8744,0.0405,-0.9867,1429.93,1593.81,-533.20
5150,-3.8743,0.0372,-0.9794,1195.56,1703.19,748.05
5160,-3.8743,0.0317,-0.9719,773.68,-1359.31,1685.55
5170,-3.8743,0.0245,-0.9707,70.56,-406.19,-1642.58
5180,-3.8743,0.0157,-0.9761,-851.32,-250.00,-1033.20
5190,-3.8743,0.0071,-0.9838,-1976.32,-937.50,-392.58
5200,-3.8741,0.0012,-0.9865,914.31,-1921.88,216.80
5210,-3.8741,-0.0020,-0.9819,164.31,1734.38,701.17
5220,-3.8741,-0.0040,-0.9745,-241.94,-1671.94,1201.17
5230,-3.8741,-0.0062,-0.9669,-507.57,-718.81,1623.05
5240,-3.8741,-0.0087,-0.9617,-788.82,249.94,1685.61
5250,-3.8741,-0.0116,-0.9607,-1101.32,921.81,1451.23
5260,-3.8741,-0.0149,-0.9611,-1476.32,1046.81,1091.86
5270,-3.8741,-0.0179,-0.9607,-1898.19,999.94,388.73
5280,-3.8743,-0.0220,-0.9615,1711.18,1046.81,-830.02
5290,-3.8743,-0.0267,-0.9636,1195.56,937.44,1763.73
5300,-3.8743,-0.0283,-0.9673,586.18,671.81,529.36
5310,-3.8744,-0.0251,-0.9724,383.06,203.06,-95.64
5320,-3.8744,-0.0184,-0.9752,789.31,-453.19,-80.08
5330,-3.8743,-0.0095,-0.9723,1648.68,-812.56,76.17
5340,-3.8744,-0.0010,-0.9640,-1210.69,-437.56,-17.58
5350,-3.8744,0.0023,-0.9552,-116.94,624.94,-548.77
5360,-3.8744,0.0001,-0.9518,304.93,1734.38,-1423.77
5370,-3.8744,-0.0044,-0.9537,23.68,-1828.12,1591.86
5380,-3.8744,-0.0104,-0.9586,-554.44,1937.44,498.11
5390,-3.8745,-0.0170,-0.9636,-1320.07,1312.44,-642.52
5400,-3.8745,-0.0210,-0.9637,1836.18,671.81,-1705.02
5410,-3.8745,-0.0214,-0.9526,1320.56,656.19,1513.73
5420,-3.8745,-0.0173,-0.9326,1273.68,-1921.94,1013.73
5430,-3.8745,-0.0120,-0.9301,1789.31,640.56,482.54
5440,-3.8746,-0.0157,-0.9680,-1523.19,968.69,-267.46
5450,-3.8746,-0.0295,-1.0160,1992.43,109.31,-720.64
5460,-3.8746,-0.0397,-1.0317,226.81,1968.69,-408.26
5470,-3.8745,-0.0405,-1.0247,-1070.07,-47.00,326.05
5480,-3.8745,-0.0311,-1.0137,-1179.44,859.25,1294.86
5490,-3.8745,-0.0050,-0.9974,23.68,-1734.44,-1142.64
5500,-3.8744,0.0302,-0.9833,-632.57,343.69,841.80
5510,-3.8744,0.0553,-0.9791,-132.57,-1859.38,-955.08
5520,-3.8743,0.0649,-0.9800,-913.82,-1328.06,1560.55
5530,-3.8743,0.0642,-0.9811,320.56,-1437.38,-330.08
5540,-3.8741,0.0579,-0.9817,226.81,-1578.00,966.80
5550,-3.8741,0.0514,-0.9805,-585.69,-1656.19,1732.42
5560,-3.8741,0.0459,-0.9774,-1413.82,-1499.94,-1861.33
5570,-3.8741,0.0399,-0.9735,1883.06,-1109.31,-1642.58
5580,-3.8741,0.0347,-0.9695,1117.43,-609.31,-1470.70
5590,-3.8741,0.0300,-0.9663,445.56,-93.69,-1423.83
5600,-3.8741,0.0276,-0.9655,-148.19,312.50,-1533.14
5610,-3.8741,0.0311,-0.9666,-460.69,421.88,-1564.39
5620,-3.8741,0.0389,-0.9674,-7.57,281.25,-1658.14
5630,-3.8741,0.0479,-0.9681,992.43,171.94,1841.86
5640,-3.8741,0.0577,-0.9684,-1866.94,78.19,1185.61
5650,-3.8741,0.0643,-0.9650,-601.32,46.94,623.11
5660,-3.8743,0.0674,-0.9618,242.43,484.50,-392.52
5670,-3.8743,0.0703,-0.9656,633.06,890.75,1888.73
5680,-3.8744,0.0745,-0.9751,1008.06,406.37,-33.14
5690,-3.8744,0.0762,-0.9857,1539.31,-812.38,-1736.33
5700,-3.8744,0.0680,-0.9889,1758.06,1828.25,544.92
5710,-3.8745,0.0503,-0.9844,711.18,1422.00,-1376.95
5720,-3.8745,0.0302,-0.9772,-1554.44,-1999.94,1576.17
5730,-3.8745,0.0110,-0.9652,-132.57,-1078.12,-1736.33
5740,-3.8745,-0.0027,-0.9509,1414.31,453.12,-376.89
5750,-3.8744,-0.0085,-0.9448,-335.69,-1703.19,1029.36
5760,-3.8744,-0.0118,-0.9465,-1085.69,-921.94,-1095.64
5770,-3.8743,-0.0154,-0.9478,-1507.57,-1140.69,935.61
5780,-3.8743,-0.0164,-0.9471,-1960.69,-1296.94,-1392.52
5790,-3.8743,-0.0154,-0.9474,1914.31,-1218.81,-189.39
5800,-3.8741,-0.0155,-0.9489,-1960.69,-1250.06,435.61
5810,-3.8741,-0.0179,-0.9530,-1976.32,-1437.56,498.11
5820,-3.8741,-0.0197,-0.9612,1711.18,-1968.81,294.98
5830,-3.8741,-0.0149,-0.9685,1492.43,984.31,76.23
5840,-3.8743,-0.0018,-0.9740,-1898.19,46.81,-267.52
5850,-3.8743,0.0183,-0.9799,-226.32,-656.31,-845.70
5860,-3.8743,0.0426,-0.9840,-1648.19,-1421.88,-1501.95
5870,-3.8743,0.0646,-0.9832,1461.18,-1953.06,1857.42
5880,-3.8743,0.0790,-0.9784,273.68,-1843.63,1060.55
5890,-3.8743,0.0864,-0.9734,-1882.57,-1234.25,154.30
5900,-3.8744,0.0878,-0.9705,-929.44,-593.63,-751.95
5910,-3.8744,0.0819,-0.9705,-757.57,-218.63,-1595.70
5920,-3.8744,0.0739,-0.9701,-1507.57,-218.63,1841.80
5930,-3.8744,0.0675,-0.9678,1461.18,-171.75,1669.92
5940,-3.8744,0.0609,-0.9653,648.68,125.12,1623.11
5950,-3.8744,0.0535,-0.9640,-195.07,437.56,1451.23
5960,-3.8744,0.0464,-0.9623,-1148.19,609.44,1123.11
5970,-3.8744,0.0387,-0.9585,1945.56,828.19,748.11
5980,-3.8744,0.0299,-0.9576,961.18,1312.56,498.11
5990,-3.8744,0.0233,-0.9645,-163.82,1421.88,482.48
6000,-3.8744,0.0217,-0.9724,-1007.57,546.88,685.61
6010,-3.8744,0.0245,-0.9727,-1210.69,-468.75,935.55
6020,-3.8744,0.0297,-0.9697,-851.32,-500.00,1060.55
6030,-3.8744,0.0356,-0.9695,-195.07,-125.00,1091.80
6040,-3.8744,0.0406,-0.9694,570.56,-93.69,1263.67
6050,-3.8744,0.0435,-0.9697,1211.18,-78.06,1498.05
6060,-3.8744,0.0433,-0.9764,1570.56,-124.94,1576.17
6070,-3.8744,0.0398,-0.9872,1554.93,-984.31,1638.67
6080,-3.8744,0.0356,-0.9913,1101.81,1640.69,1998.05
6090,-3.8744,0.0327,-0.9872,570.56,1109.44,-1626.95
6100,-3.8744,0.0302,-0.9788,195.56,1640.69,-1548.83
6110,-3.8744,0.0280,-0.9718,-132.57,-1281.25,-1580.08
6120,-3.8744,0.0269,-0.9723,-413.82,-390.62,-1376.95
6130,-3.8744,0.0259,-0.9779,-554.44,-453.12,-876.95
6140,-3.8744,0.0249,-0.9810,-679.44,-1171.88,-267.58
6150,-3.8743,0.0251,-0.9780,-804.44,-1562.50,29.30
6160,-3.8744,0.0267,-0.9708,-773.19,-1187.50,-48.83
6170,-3.8744,0.0277,-0.9619,-570.07,-265.62,-330.08
6180,-3.8744,0.0269,-0.9524,-445.07,875.00,-845.64
6190,-3.8744,0.0251,-0.9454,-554.44,-1906.25,-1751.89
6200,-3.8744,0.0226,-0.9460,-773.19,-1015.62,1060.61
6210,-3.8745,0.0209,-0.9539,-1101.32,-1093.75,-158.14
6220,-3.8745,0.0228,-0.9618,-1320.07,1906.25,-1126.89
6230,-3.8745,0.0282,-0.9655,-1070.07,890.62,-1720.64
6240,-3.8745,0.0325,-0.9662,-382.57,421.88,-1845.64
6250,-3.8745,0.0325,-0.9650,164.31,328.19,-1470.64
6260,-3.8745,0.0272,-0.9631,164.31,484.44,-986.27
6270,-3.8745,0.0165,-0.9640,-507.57,718.75,-580.02
6280,-3.8744,0.0042,-0.9680,-1882.57,609.38,60.61
6290,-3.8744,-0.0044,-0.9706,539.31,93.75,1138.73
6300,-3.8744,-0.0060,-0.9694,-554.44,-218.81,-1595.70
6310,-3.8744,0.0021,-0.9662,-757.57,-62.56,-486.33
6320,-3.8743,0.0167,-0.9642,273.68,328.12,279.36
6330,-3.8743,0.0286,-0.9641,-1851.32,578.12,841.86
6340,-3.8743,0.0311,-0.9661,-335.69,593.75,1154.36
6350,-3.8743,0.0251,-0.9703,-7.57,343.75,1060.61
6360,-3.8743,0.0132,-0.9742,-773.19,-203.12,716.80
6370,-3.8743,-0.0005,-0.9752,1695.56,-703.12,263.67
6380,-3.8744,-0.0111,-0.9719,-54.44,-812.56,-205.08
6390,-3.8744,-0.0168,-0.9677,-1413.82,-390.69,-595.70
6400,-3.8744,-0.0168,-0.9674,1851.81,156.19,-658.14
6410,-3.8744,-0.0112,-0.9714,1851.81,187.44,-345.64
6420,-3.8743,-0.0033,-0.9771,-1429.44,-328.19,279.30
6430,-3.8743,0.0039,-0.9817,-413.82,-1046.94,1294.92
6440,-3.8743,0.0065,-0.9817,508.06,-1656.25,-1501.95
6450,-3.8743,0.0007,-0.9753,836.18,-1656.25,-517.58
6460,-3.8741,-0.0099,-0.9664,101.81,-843.75,294.92
6470,-3.8741,-0.0204,-0.9607,-1257.57,312.44,810.61
6480,-3.8741,-0.0283,-0.9592,1398.68,1046.81,966.86
6490,-3.8741,-0.0314,-0.9594,383.06,1234.31,857.48
6500,-3.8741,-0.0305,-0.9604,-7.57,1218.63,404.36
6510,-3.8743,-0.0282,-0.9622,101.81,1078.06,-298.77
6520,-3.8743,-0.0266,-0.9639,398.68,859.31,-1173.77
6530,-3.8743,-0.0264,-0.9666,601.81,640.56,1732.48
6540,-3.8743,-0.0262,-0.9700,633.06,296.81,498.11
6550,-3.8744,-0.0259,-0.9746,648.68,-140.69,-689.45
6560,-3.8744,-0.0256,-0.9803,695.56,-734.44,-1767.58
6570,-3.8744,-0.0240,-0.9840,726.81,-1468.81,1201.17
6580,-3.8744,-0.0190,-0.9824,929.93,-1937.56,201.17
6590,-3.8745,-0.0122,-0.9785,1570.56,-1734.44,-892.58
6600,-3.8745,-0.0068,-0.9788,-1554.44,-1234.44,-1861.33
6610,-3.8745,-0.0048,-0.9814,-866.94,-1265.69,1623.05
6620,-3.8745,-0.0039,-0.9822,-601.32,-1609.44,1435.55
6630,-3.8745,-0.0026,-0.9818,-491.94,-1703.19,1435.55
6640,-3.8745,-0.0001,-0.9812,-320.07,-1656.31,1826.17
6650,-3.8745,0.0052,-0.9786,-7.57,-1578.19,-1501.95
6660,-3.8745,0.0138,-0.9742,679.93,-1265.62,-767.58
6670,-3.8745,0.0225,-0.9698,1773.68,-703.12,-111.33
6680,-3.8744,0.0278,-0.9672,-1116.94,-140.62,373.05
6690,-3.8744,0.0297,-0.9651,-429.44,203.12,794.98
6700,-3.8744,0.0304,-0.9640,-195.07,468.75,982.48
6710,-3.8744,0.0331,-0.9701,-101.32,609.38,1138.73
6720,-3.8744,0.0382,-0.9822,242.43,-171.81,1451.17
6730,-3.8744,0.0453,-0.9884,898.68,-1718.69,1544.92
6740,-3.8744,0.0518,-0.9875,1804.93,1484.44,1060.55
6750,-3.8744,0.0544,-0.9877,-1366.94,1593.81,357.42
6760,-3.8745,0.0533,-0.9893,-1023.19,1578.19,-267.58
6770,-3.8745,0.0507,-0.9919,-1163.82,1375.06,-876.95
6780,-3.8745,0.0486,-0.9979,-1507.57,1031.31,-1158.20
6790,-3.8745,0.0475,-1.0037,-1773.19,265.69,-1017.58
6800,-3.8745,0.0483,-1.0043,-1913.82,-468.69,-502.01
6810,-3.8744,0.0497,-0.9969,-1804.44,-546.81,216.74
6820,-3.8744,0.0469,-0.9835,-1632.57,390.69,935.55
6830,-3.8744,0.0369,-0.9707,-1991.94,-1890.56,1373.05
6840,-3.8744,0.0200,-0.9655,726.81,-249.94,1654.30
6850,-3.8744,0.0015,-0.9668,-1429.44,421.88,-1798.77
6860,-3.8744,-0.0117,-0.9701,195.56,250.00,-1048.77
6870,-3.8744,-0.0159,-0.9716,-1491.94,-156.31,-48.83
6880,-3.8743,-0.0129,-0.9692,1976.81,-343.81,1138.67
6890,-3.8743,-0.0065,-0.9637,-1648.19,-46.94,-1736.33
6900,-3.8743,-0.0004,-0.9565,-820.07,656.19,-720.64
6910,-3.8741,0.0013,-0.9502,-38.82,1578.06,201.23
6920,-3.8741,-0.0013,-0.9475,179.93,-1625.00,935.61
6930,-3.8741,-0.0033,-0.9479,-163.82,-1265.69,1357.48
6940,-3.8741,0.0013,-0.9493,-413.82,-1312.56,1404.36
6950,-3.8741,0.0103,-0.9523,179.93,-1515.62,1216.86
6960,-3.8741,0.0210,-0.9537,1320.56,-1890.62,966.86
6970,-3.8741,0.0327,-0.9513,-1304.44,1921.88,482.48
6980,-3.8743,0.0382,-0.9490,195.56,-1765.56,-626.89
6990,-3.8743,0.0317,-0.9504,898.68,-1468.69,1732.48
7000,-3.8744,0.0167,-0.9524,70.56,-1656.19,-173.77
7010,-3.8744,-0.0002,-0.9552,-1851.32,-1906.25,1966.86
7020,-3.8744,-0.0134,-0.9661,-23.19,1749.94,498.11
7030,-3.8745,-0.0154,-0.9830,-1710.69,359.31,-486.27
7040,-3.8745,0.0026,-0.9933,-1960.69,-1812.56,-564.45
7050,-3.8744,0.0376,-0.9906,336.18,859.38,216.80
7060,-3.8744,0.0757,-0.9788,820.56,1203.19,1373.05
7070,-3.8744,0.1074,-0.9650,1695.56,-1281.13,-1361.33
7080,-3.8744,0.1272,-0.9556,1758.06,484.56,-423.77
7090,-3.8744,0.1289,-0.9530,289.31,1687.74,-205.02
7100,-3.8744,0.1184,-0.9589,508.06,-1984.13,-736.27
7110,-3.8744,0.1066,-0.9702,-835.69,1265.81,-1658.14
7120,-3.8744,0.0939,-0.9799,1648.68,-187.32,1388.67
7130,-3.8744,0.0785,-0.9879,23.68,-1421.69,326.17
7140,-3.8745,0.0636,-0.9944,-1945.07,1547.00,-470.70
7150,-3.8745,0.0509,-0.9958,148.68,718.87,-455.08
7160,-3.8744,0.0408,-0.9911,-1476.32,531.31,169.92
7170,-3.8744,0.0343,-0.9816,1226.81,1140.69,888.67
7180,-3.8744,0.0320,-0.9724,398.68,-1640.56,1654.30
7190,-3.8744,0.0343,-0.9674,101.81,-468.69,-1408.20
7200,-3.8744,0.0382,-0.9652,398.68,171.94,-205.02
7210,-3.8743,0.0400,-0.9614,898.68,453.19,1107.48
7220,-3.8743,0.0397,-0.9547,1133.06,937.56,1919.98
7230,-3.8743,0.0375,-0.9474,1086.18,1796.94,-1814.39
7240,-3.8743,0.0355,-0.9431,804.93,-1265.56,1998.11
7250,-3.8743,0.0367,-0.9503,554.93,-718.69,1216.86
7260,-3.8743,0.0400,-0.9677,711.18,-1640.56,263.73
7270,-3.8744,0.0420,-0.9812,1133.06,140.69,-345.64
7280,-3.8744,0.0416,-0.9865,1383.06,-1593.69,-814.45
7290,-3.8744,0.0408,-0.9855,1336.18,1734.44,-1236.33
7300,-3.8744,0.0415,-0.9784,1226.81,1859.44,-1611.33
7310,-3.8744,0.0422,-0.9706,1320.56,-1234.31,1982.42
7320,-3.8744,0.0428,-0.9677,1414.31,-234.31,1810.55
7330,-3.8744,0.0468,-0.9684,1492.43,140.69,-1939.39
7340,-3.8744,0.0535,-0.9716,1992.43,46.94,-1533.14
7350,-3.8744,0.0587,-0.9744,-1148.19,-359.31,-1095.70
7360,-3.8744,0.0614,-0.9729,-476.32,-718.69,-611.33
7370,-3.8744,0.0607,-0.9685,-132.57,-531.19,-330.08
7380,-3.8744,0.0558,-0.9648,-226.32,31.31,-439.39
7390,-3.8744,0.0490,-0.9645,-851.32,500.06,-642.52
7400,-3.8744,0.0435,-0.9674,-1726.32,546.94,-705.02
7410,-3.8744,0.0406,-0.9703,1570.56,171.94,-798.77
7420,-3.8744,0.0399,-0.9709,1211.18,-203.06,-1017.58
7430,-3.8744,0.0416,-0.9697,1117.43,-281.19,-1376.95
7440,-3.8744,0.0460,-0.9694,1336.18,-124.94,-1830.08
7450,-3.8744,0.0518,-0.9738,1898.68,-78.06,1716.80
7460,-3.8744,0.0569,-0.9812,-1366.94,-640.56,1544.92
7470,-3.8744,0.0609,-0.9850,-710.69,-1593.69,1810.55
7480,-3.8744,0.0645,-0.9836,-195.07,1921.94,-1751.95
7490,-3.8744,0.0637,-0.9801,258.06,-1906.13,-1376.95
7500,-3.8744,0.0583,-0.9742,164.31,-1453.00,-861.33
7510,-3.8744,0.0518,-0.9674,-523.19,-703.06,-126.95
7520,-3.8743,0.0459,-0.9631,-1366.94,171.94,763.73
7530,-3.8743,0.0419,-0.9617,1883.06,718.81,1748.11
7540,-3.8743,0.0397,-0.9624,1367.43,906.31,-1392.52
7550,-3.8743,0.0367,-0.9633,1086.18,812.56,-783.14
7560,-3.8743,0.0345,-0.9629,711.18,703.19,-501.89
7570,-3.8743,0.0352,-0.9623,429.93,750.06,-642.52
7580,-3.8743,0.0359,-0.9608,508.06,828.19,-970.64
7590,-3.8743,0.0365,-0.9587,601.81,1015.69,-1392.52
7600,-3.8743,0.0376,-0.9594,679.93,1281.31,1951.23
7610,-3.8743,0.0381,-0.9635,820.56,1203.19,1419.98
7620,-3.8743,0.0392,-0.9692,883.06,671.94,1107.48
7630,-3.8743,0.0426,-0.9736,1023.68,-62.44,654.30
7640,-3.8743,0.0455,-0.9753,1461.18,-624.94,248.05
7650,-3.8743,0.0443,-0.9755,1836.18,-843.69,91.80
7660,-3.8744,0.0391,-0.9755,1679.93,-859.31,-64.45
7670,-3.8744,0.0339,-0.9763,1008.06,-859.31,-220.70
7680,-3.8744,0.0317,-0.9768,351.81,-968.69,-236.33
7690,-3.8744,0.0337,-0.9739,70.56,-1031.19,-33.20
7700,-3.8743,0.0400,-0.9684,320.56,-656.19,123.05
7710,-3.8743,0.0485,-0.9668,1133.06,46.94,169.98
7720,-3.8743,0.0532,-0.9685,-1788.82,250.06,232.48
7730,-3.8743,0.0541,-0.9698,-1179.44,31.31,419.98
7740,-3.8743,0.0541,-0.9708,-1070.07,-140.56,638.67
7750,-3.8743,0.0520,-0.9714,-1070.07,-265.56,716.80
7760,-3.8743,0.0466,-0.9707,-1335.69,-343.69,748.05
7770,-3.8743,0.0396,-0.9685,1976.81,-249.94,685.55
7780,-3.8743,0.0339,-0.9678,1070.56,31.31,341.86
7790,-3.8744,0.0289,-0.9694,351.81,125.06,-158.14
7800,-3.8744,0.0249,-0.9706,-288.82,-78.12,-455.08
7810,-3.8744,0.0258,-0.9701,-804.44,-234.38,-455.08
7820,-3.8744,0.0308,-0.9686,-695.07,-171.88,-314.45
7830,-3.8744,0.0359,-0.9659,-54.44,15.62,-126.89
7840,-3.8743,0.0408,-0.9624,601.81,359.44,154.36
7850,-3.8743,0.0444,-0.9602,1226.81,812.56,498.11
7860,-3.8743,0.0435,-0.9623,1695.56,1093.81,669.98
7870,-3.8743,0.0396,-0.9683,1570.56,828.19,607.48
7880,-3.8743,0.0356,-0.9744,1070.56,62.56,419.98
7890,-3.8743,0.0314,-0.9775,570.56,-718.69,201.17
7900,-3.8743,0.0281,-0.9775,23.68,-1124.94,76.17
7910,-3.8743,0.0276,-0.9729,-398.19,-1125.00,232.42
7920,-3.8743,0.0312,-0.9648,-460.69,-531.25,435.55
7930,-3.8743,0.0380,-0.9601,8.06,500.06,498.11
7940,-3.8743,0.0435,-0.9597,867.43,1109.44,419.98
7950,-3.8743,0.0427,-0.9645,1570.56,1156.31,216.86
7960,-3.8744,0.0356,-0.9746,1476.81,546.94,-111.27
7970,-3.8744,0.0273,-0.9819,570.56,-749.94,-361.33
7980,-3.8744,0.0212,-0.9810,-491.94,-1687.50,-486.33
7990,-3.8744,0.0179,-0.9740,-1273.19,-1562.50,-642.58
8000,-3.8744,0.0172,-0.9662,-1695.07,-671.88,-783.20
8010,-3.8744,0.0182,-0.9615,-1788.82,328.12,-673.77
8020,-3.8744,0.0214,-0.9626,-1663.82,921.88,-205.02
8030,-3.8743,0.0297,-0.9691,-1257.57,781.25,591.86
8040,-3.8743,0.0419,-0.9751,-195.07,-46.88,1529.30
8050,-3.8743,0.0537,-0.9741,1367.43,-812.44,-1564.45
8060,-3.8743,0.0616,-0.9670,-1116.94,-687.44,-939.45
8070,-3.8743,0.0629,-0.9594,-101.32,218.81,-845.64
8080,-3.8743,0.0579,-0.9551,54.93,1203.25,-1048.77
8090,-3.8743,0.0514,-0.9540,-585.69,1750.06,-1361.27
8100,-3.8743,0.0472,-0.9584,-1413.82,1890.69,-1642.52
8110,-3.8743,0.0469,-0.9679,-1945.07,1328.19,-1751.89
8120,-3.8743,0.0497,-0.9744,-1991.94,109.44,-1751.89
8130,-3.8743,0.0537,-0.9746,-1632.57,-718.69,-1595.70
8140,-3.8743,0.0557,-0.9718,-1116.94,-749.94,-1205.08
8150,-3.8743,0.0521,-0.9658,-866.94,-390.56,-658.20
8160,-3.8743,0.0452,-0.9590,-1320.07,375.06,-95.64
8170,-3.8741,0.0387,-0.9562,1789.31,1250.06,263.73
8180,-3.8741,0.0353,-0.9586,961.18,1609.44,373.11
8190,-3.8741,0.0372,-0.9642,523.68,1296.94,294.98
8200,-3.8741,0.0437,-0.9707,773.68,578.19,91.86
8210,-3.8743,0.0518,-0.9728,1601.81,-249.94,-330.08
8220,-3.8743,0.0590,-0.9684,-1366.94,-515.56,-1080.08
8230,-3.8743,0.0623,-0.9655,-445.07,46.94,1951.23
8240,-3.8743,0.0599,-0.9674,-23.19,421.94,1091.86
8250,-3.8743,0.0532,-0.9720,-320.07,171.94,435.61
8260,-3.8744,0.0459,-0.9772,-1179.44,-421.81,-64.45
8270,-3.8744,0.0417,-0.9772,1883.06,-1078.06,-408.20
8280,-3.8744,0.0404,-0.9716,1351.81,-1078.06,-658.20
8290,-3.8744,0.0391,-0.9652,1179.93,-359.31,-814.45
8300,-3.8744,0.0369,-0.9601,1008.06,453.19,-830.02
8310,-3.8744,0.0333,-0.9587,726.81,1109.44,-876.89
8320,-3.8744,0.0281,-0.9614,273.68,1281.31,-1017.52
8330,-3.8744,0.0222,-0.9675,-398.19,937.50,-1345.64
8340,-3.8744,0.0193,-0.9761,-1148.19,156.25,-1736.27
8350,-3.8744,0.0242,-0.9800,-1523.19,-937.50,-1751.95
8360,-3.8744,0.0393,-0.9762,-898.19,-1437.50,-1533.20
8370,-3.8744,0.0641,-0.9697,1039.31,-953.06,-1330.08
8380,-3.8744,0.0941,-0.9637,211.18,-124.88,-798.83
8390,-3.8743,0.1208,-0.9598,54.93,640.81,201.23
8400,-3.8743,0.1349,-0.9597,-523.19,1140.81,1326.23
8410,-3.8743,0.1316,-0.9633,1273.68,1156.49,-1642.52
8420,-3.8743,0.1176,-0.9689,851.81,703.37,-986.27
8430,-3.8743,0.1007,-0.9741,-945.07,-15.44,-923.83
8440,-3.8743,0.0834,-0.9761,898.68,-687.32,-1220.70
8450,-3.8743,0.0668,-0.9735,-1320.07,-937.38,-1595.70
8460,-3.8743,0.0538,-0.9685,554.93,-609.25,-1923.83
8470,-3.8743,0.0457,-0.9637,-1101.32,31.31,1935.61
8480,-3.8743,0.0433,-0.9604,1851.81,640.69,1951.23
8490,-3.8743,0.0477,-0.9615,1554.93,1062.56,1873.11
8500,-3.8743,0.0586,-0.9662,-1882.57,921.94,1638.73
8510,-3.8743,0.0691,-0.9698,-491.94,328.19,1419.98
8520,-3.8743,0.0728,-0.9727,851.81,-140.50,1185.55
8530,-3.8743,0.0682,-0.9740,1320.56,-499.88,919.92
8540,-3.8743,0.0582,-0.9712,742.43,-671.75,716.80
8550,-3.8743,0.0482,-0.9674,-538.82,-312.44,607.42
8560,-3.8743,0.0431,-0.9669,-1820.07,171.94,904.36
8570,-3.8743,0.0453,-0.9684,1523.68,234.44,1529.36
8580,-3.8743,0.0535,-0.9678,1804.93,46.94,-1689.39
8590,-3.8743,0.0624,-0.9640,-1148.19,125.06,-1017.52
8600,-3.8743,0.0670,-0.9596,-7.57,609.44,-626.89
8610,-3.8743,0.0684,-0.9579,586.18,1172.00,-501.89
8620,-3.8743,0.0677,-0.9626,758.06,1390.75,-642.52
8630,-3.8743,0.0664,-0.9712,679.93,781.37,-1173.77
8640,-3.8743,0.0698,-0.9768,508.06,-312.38,-1673.83
8650,-3.8743,0.0795,-0.9783,945.56,-1031.13,-1876.95
8660,-3.8743,0.0914,-0.9771,-1820.07,-1218.63,1935.55
8670,-3.8743,0.1036,-0.9755,-288.82,-1062.38,1904.30
8680,-3.8743,0.1155,-0.9753,1273.68,-859.19,-1861.33
8690,-3.8743,0.1252,-0.9768,-1210.69,-843.57,-1595.70
8700,-3.8743,0.1301,-0.9786,39.31,-1031.01,-1298.83
8710,-3.8743,0.1294,-0.9785,664.31,-1265.38,-1001.95
8720,-3.8743,0.1249,-0.9749,570.56,-1249.76,-955.08
8730,-3.8743,0.1172,-0.9691,-7.57,-781.07,-1173.83
8740,-3.8743,0.1064,-0.9648,-991.94,-46.69,-1595.70
8750,-3.8743,0.0927,-0.9637,1633.06,500.18,1841.86
8760,-3.8743,0.0742,-0.9639,-132.57,640.75,1154.36
8770,-3.8743,0.0494,-0.9645,1508.06,625.12,76.23
8780,-3.8744,0.0225,-0.9652,-1663.82,546.94,-1236.27
8790,-3.8744,-0.0006,-0.9624,-1116.94,453.12,1576.23
8800,-3.8744,-0.0159,-0.9581,-70.07,828.06,576.23
8810,-3.8745,-0.0216,-0.9602,1976.81,1374.94,-95.64
8820,-3.8745,-0.0211,-0.9669,1242.43,1109.31,-189.39
8830,-3.8744,-0.0178,-0.9692,1304.93,249.94,44.98
8840,-3.8744,-0.0128,-0.9658,1726.81,-46.94,263.67
8850,-3.8744,-0.0062,-0.9631,-1632.57,390.56,404.36
8860,-3.8744,-0.0001,-0.9618,-788.82,734.31,623.11
8870,-3.8744,0.0063,-0.9581,-7.57,906.19,1091.86
8880,-3.8744,0.0171,-0.9548,820.56,1359.38,1701.23
8890,-3.8744,0.0287,-0.9537,-1804.44,1781.25,-1861.27
8900,-3.8744,0.0349,-0.9551,-320.07,1921.88,-1720.64
8910,-3.8744,0.0355,-0.9598,476.81,1750.06,-1673.77
8920,-3.8744,0.0333,-0.9655,554.93,1140.69,-1595.64
8930,-3.8744,0.0291,-0.9712,273.68,421.94,-1486.27
8940,-3.8744,0.0215,-0.9764,-273.19,-312.50,-1220.70
8950,-3.8744,0.0128,-0.9777,-1241.94,-984.38,-689.45
8960,-3.8743,0.0059,-0.9736,1648.68,-1140.62,60.55
8970,-3.8743,0.0017,-0.9662,758.06,-625.00,904.30
8980,-3.8743,0.0010,-0.9595,226.81,328.12,1748.11
8990,-3.8743,0.0018,-0.9557,133.06,1187.50,-1470.64
9000,-3.8743,0.0039,-0.9548,242.43,1671.88,-845.64
9010,-3.8743,0.0092,-0.9575,508.06,1781.25,-486.27
9020,-3.8743,0.0179,-0.9639,1179.93,1437.50,-251.89
9030,-3.8743,0.0275,-0.9701,-1695.07,625.00,-267.52
9040,-3.8743,0.0354,-0.9727,-476.32,-171.88,-517.58
9050,-3.8743,0.0403,-0.9725,539.31,-499.94,-673.83
9060,-3.8743,0.0410,-0.9716,1164.31,-484.31,-642.58
9070,-3.8743,0.0389,-0.9692,1258.06,-359.31,-580.08
9080,-3.8743,0.0359,-0.9641,992.43,-62.44,-470.70
9090,-3.8743,0.0341,-0.9598,601.81,593.81,-486.27
9100,-3.8743,0.0352,-0.9619,367.43,1140.69,-673.77
9110,-3.8743,0.0391,-0.9677,508.06,875.06,-876.89
9120,-3.8743,0.0446,-0.9731,1008.06,140.69,-955.02
9130,-3.8743,0.0508,-0.9768,1711.18,-562.44,-923.83
9140,-3.8743,0.0565,-0.9740,-1491.94,-1031.19,-830.08
9150,-3.8743,0.0610,-0.9666,-757.57,-671.81,-876.95
9160,-3.8743,0.0636,-0.9619,-179.44,281.31,-1345.64
9170,-3.8743,0.0640,-0.9636,148.68,875.12,1904.36
9180,-3.8743,0.0626,-0.9705,195.56,656.37,1263.73
9190,-3.8743,0.0614,-0.9811,23.68,-218.63,857.42
9200,-3.8743,0.0613,-0.9928,-132.57,-1578.06,623.05
9210,-3.8743,0.0613,-0.9957,-148.19,921.94,466.80
9220,-3.8743,0.0598,-0.9858,-148.19,546.94,123.05
9230,-3.8744,0.0553,-0.9728,-335.69,1812.56,-517.58
9240,-3.8744,0.0499,-0.9642,-913.82,-515.56,-1314.45
9250,-3.8744,0.0458,-0.9595,-1601.32,578.19,1576.23
9260,-3.8744,0.0408,-0.9601,1867.43,1187.56,60.61
9270,-3.8745,0.0344,-0.9679,1226.81,1109.44,-1501.89
9280,-3.8745,0.0287,-0.9761,414.31,109.44,1248.11
9290,-3.8745,0.0237,-0.9800,-320.07,-937.50,310.55
9300,-3.8746,0.0200,-0.9808,-960.69,-1437.50,-95.70
9310,-3.8745,0.0171,-0.9769,-1429.44,-1546.88,341.80
9320,-3.8745,0.0118,-0.9690,-1804.44,-1046.88,1373.05
9330,-3.8745,0.0046,-0.9640,1523.68,-31.25,-1298.83
9340,-3.8744,-0.0017,-0.9613,601.81,609.38,388.73
9350,-3.8744,-0.0059,-0.9574,-210.69,968.69,-1892.52
9360,-3.8744,-0.0068,-0.9525,-741.94,1468.69,-580.02
9370,-3.8743,-0.0022,-0.9493,-866.94,-1906.31,404.36
9380,-3.8743,0.0073,-0.9490,-273.19,-1500.06,1060.61
9390,-3.8743,0.0192,-0.9500,945.56,-1468.75,1185.61
9400,-3.8743,0.0323,-0.9536,-1538.82,-1593.75,888.73
9410,-3.8743,0.0442,-0.9640,148.68,1937.56,466.86
9420,-3.8743,0.0514,-0.9784,1664.31,609.44,60.61
9430,-3.8744,0.0533,-0.9891,-1413.82,-1234.31,-220.70
9440,-3.8744,0.0511,-0.9885,-1163.82,1390.69,-267.58
9450,-3.8744,0.0453,-0.9788,-1445.07,1468.81,-205.08
9460,-3.8744,0.0375,-0.9685,1804.93,-1281.19,-236.33
9470,-3.8744,0.0317,-0.9624,804.93,31.31,-126.89
9480,-3.8743,0.0304,-0.9618,70.56,812.56,232.48
9490,-3.8743,0.0342,-0.9648,-101.32,890.62,638.73
9500,-3.8743,0.0428,-0.9686,383.06,500.06,919.98
9510,-3.8743,0.0522,-0.9712,1492.43,15.69,1138.73
9520,-3.8743,0.0590,-0.9725,-1304.44,-312.44,1232.42
9530,-3.8743,0.0590,-0.9725,-445.07,-484.31,1060.55
9540,-3.8743,0.0505,-0.9730,-445.07,-484.31,685.55
9550,-3.8743,0.0385,-0.9761,-1523.19,-546.81,279.30
9560,-3.8743,0.0317,-0.9784,929.93,-937.44,107.42
9570,-3.8743,0.0347,-0.9762,70.56,-1234.31,201.17
9580,-3.8743,0.0447,-0.9706,445.56,-953.06,388.67
9590,-3.8743,0.0582,-0.9647,1726.81,-234.31,591.80
9600,-3.8743,0.0685,-0.9615,-538.82,515.69,685.61
9610,-3.8743,0.0692,-0.9630,773.68,922.00,654.36
9620,-3.8743,0.0604,-0.9677,867.43,734.50,685.61
9630,-3.8743,0.0476,-0.9735,-257.57,140.69,794.98
9640,-3.8743,0.0365,-0.9774,-1898.19,-609.31,888.67
9650,-3.8743,0.0314,-0.9769,679.93,-1109.31,1123.05
9660,-3.8743,0.0336,-0.9733,23.68,-1046.81,1623.05
9670,-3.8743,0.0417,-0.9685,304.93,-578.06,-1783.20
9680,-3.8743,0.0524,-0.9629,1351.81,31.31,-1173.77
9690,-3.8743,0.0605,-0.9589,-1288.82,750.06,-501.89
9700,-3.8741,0.0623,-0.9601,-241.94,1265.69,13.73
9710,-3.8741,0.0587,-0.9647,-23.19,1109.44,232.48
9720,-3.8741,0.0529,-0.9680,-476.32,515.69,185.61
9730,-3.8743,0.0458,-0.9694,-1226.32,93.81,-95.64
9740,-3.8743,0.0388,-0.9697,1867.43,-78.06,-345.70
9750,-3.8743,0.0344,-0.9673,976.81,-124.94,-330.08
9760,-3.8743,0.0332,-0.9618,414.31,187.56,-173.77
9770,-3.8743,0.0345,-0.9569,258.06,890.69,-142.52
9780,-3.8743,0.0387,-0.9540,429.93,1515.69,-330.02
9790,-3.8743,0.0432,-0.9541,961.18,1890.69,-751.89
9800,-3.8743,0.0458,-0.9613,1539.31,1875.06,-1470.64
9810,-3.8743,0.0469,-0.9725,1867.43,953.19,1591.86
9820,-3.8743,0.0460,-0.9811,-1991.94,-484.31,763.67
9830,-3.8743,0.0425,-0.9841,1898.68,-1578.06,44.92
9840,-3.8744,0.0367,-0.9838,1445.56,-1968.69,-689.45
9850,-3.8744,0.0331,-0.9813,711.18,-1921.81,-1189.45
9860,-3.8744,0.0347,-0.9757,242.43,-1609.31,-1111.33
9870,-3.8744,0.0389,-0.9695,445.56,-890.56,-751.95
9880,-3.8744,0.0452,-0.9663,992.43,-93.69,-439.45
9890,-3.8744,0.0511,-0.9641,1789.31,312.56,-33.14
9900,-3.8743,0.0541,-0.9634,-1445.07,593.81,419.98
9910,-3.8743,0.0559,-0.9680,-1070.07,687.56,794.98
9920,-3.8743,0.0573,-0.9747,-835.69,93.81,1029.36
9930,-3.8743,0.0574,-0.9769,-663.82,-765.56,1357.42
9940,-3.8743,0.0570,-0.9738,-648.19,-1046.81,1982.42
9950,-3.8743,0.0560,-0.9680,-695.07,-640.56,-1173.83
9960,-3.8743,0.0529,-0.9608,-820.07,93.81,-330.02
9970,-3.8741,0.0460,-0.9539,-1226.32,1015.69,373.11
9980,-3.8741,0.0359,-0.9528,1898.68,1906.31,794.98
9990,-3.8741,0.0270,-0.9565,601.81,-1953.06,1013.73
10000,-3.8741,0.0248,-0.9600,-538.82,1562.50,1060.61
10010,-3.8741,0.0292,-0.9619,-820.07,1125.00,951.23
10020,-3.8741,0.0366,-0.9614,-257.57,875.00,826.23
10030,-3.8741,0.0424,-0.9589,695.56,937.56,576.23
10040,-3.8741,0.0422,-0.9574,1429.93,1265.69,154.36
10050,-3.8743,0.0355,-0.9606,1414.31,1453.19,-439.39
10060,-3.8743,0.0267,-0.9668,554.93,1046.94,-1126.89
10070,-3.8743,0.0211,-0.9727,-570.07,250.00,-1751.89
10080,-3.8743,0.0212,-0.9760,-1288.82,-500.00,1841.80
10090,-3.8743,0.0277,-0.9756,-1273.19,-921.88,1685.55
10100,-3.8743,0.0371,-0.9724,-445.07,-875.00,1669.92
10110,-3.8743,0.0458,-0.9686,758.06,-468.69,1857.42
10120,-3.8743,0.0520,-0.9657,1867.43,15.69,-1845.64
10130,-3.8743,0.0527,-0.9637,-1335.69,390.69,-1798.77
10140,-3.8743,0.0468,-0.9644,-1241.94,640.69,1919.98
10150,-3.8743,0.0376,-0.9678,1992.43,562.56,1404.36
10160,-3.8743,0.0282,-0.9718,820.56,125.06,748.11
10170,-3.8743,0.0216,-0.9742,-382.57,-390.62,232.42
10180,-3.8743,0.0212,-0.9730,-1226.32,-703.12,44.92
10190,-3.8743,0.0269,-0.9677,-1273.19,-546.88,138.67
10200,-3.8743,0.0350,-0.9603,-554.44,140.62,373.11
10210,-3.8743,0.0408,-0.9545,492.43,1078.19,763.73
10220,-3.8743,0.0414,-0.9514,1226.81,1828.19,1201.23
10230,-3.8743,0.0355,-0.9509,1304.93,-1781.19,1294.98
10240,-3.8743,0.0234,-0.9536,554.93,-1718.69,1060.61
10250,-3.8743,0.0105,-0.9591,-991.94,1937.50,794.98
10260,-3.8743,0.0027,-0.9644,1351.81,1234.38,404.36
10270,-3.8744,0.0015,-0.9678,351.81,562.50,-173.77
10280,-3.8744,0.0061,-0.9685,195.56,125.00,-642.52
10290,-3.8744,0.0159,-0.9662,789.31,31.25,-845.64
10300,-3.8744,0.0265,-0.9626,-1960.69,328.12,-892.52
10310,-3.8744,0.0347,-0.9613,-601.32,781.25,-1017.52
10320,-3.8744,0.0410,-0.9625,445.56,953.19,-1142.52
10330,-3.8744,0.0444,-0.9661,1258.06,796.94,-1126.89
10340,-3.8744,0.0442,-0.9718,1695.56,343.81,-939.39
10350,-3.8744,0.0435,-0.9761,1664.31,-390.56,-298.83
10360,-3.8743,0.0449,-0.9755,1570.56,-937.44,810.55
10370,-3.8743,0.0497,-0.9714,1758.06,-859.31,-1876.95
10380,-3.8743,0.0558,-0.9659,-1632.57,-343.69,-423.83
10390,-3.8741,0.0604,-0.9626,-851.32,359.44,1091.86
10400,-3.8741,0.0619,-0.9641,-257.57,781.31,-1533.14
10410,-3.8741,0.0612,-0.9652,-70.07,593.81,-251.89
10420,-3.8740,0.0596,-0.9612,-163.82,453.19,763.73
10430,-3.8740,0.0604,-0.9563,-366.94,968.81,1248.11
10440,-3.8740,0.0653,-0.9539,-257.57,1593.81,1076.23
10450,-3.8740,0.0704,-0.9543,367.43,1906.37,388.73
10460,-3.8741,0.0739,-0.9592,1023.68,1843.87,-298.77
10470,-3.8741,0.0779,-0.9658,1461.18,1218.87,-814.39
10480,-3.8741,0.0797,-0.9701,1976.81,375.12,-1501.89
10490,-3.8741,0.0741,-0.9728,-1788.82,-171.75,1685.55
10500,-3.8741,0.0641,-0.9752,1492.43,-515.50,919.92
10510,-3.8741,0.0563,-0.9771,211.18,-828.00,513.67
10520,-3.8741,0.0548,-0.9758,-788.82,-1062.44,607.42
10530,-3.8741,0.0620,-0.9722,-976.32,-906.19,951.17
10540,-3.8741,0.0741,-0.9668,-54.44,-437.44,1373.05
10550,-3.8741,0.0833,-0.9581,1492.43,250.12,1888.73
10560,-3.8741,0.0844,-0.9520,-1335.69,1359.50,-1892.52
10570,-3.8741,0.0774,-0.9539,-1195.07,-1859.25,1888.73
10580,-3.8741,0.0668,-0.9597,1914.31,1906.37,1560.61
10590,-3.8741,0.0583,-0.9631,554.93,1156.37,1388.73
10600,-3.8741,0.0543,-0.9631,-523.19,718.81,1216.86
10610,-3.8741,0.0543,-0.9615,-1038.82,718.81,951.23
10620,-3.8741,0.0551,-0.9589,-1038.82,921.94,732.48
10630,-3.8741,0.0529,-0.9563,-945.07,1265.69,544.98
10640,-3.8741,0.0493,-0.9572,-1226.32,1593.81,373.11
10650,-3.8741,0.0460,-0.9608,-1679.44,1484.44,326.23
10660,-3.8741,0.0446,-0.9636,1898.68,1015.69,373.11
10670,-3.8741,0.0475,-0.9630,1711.18,656.31,451.23
10680,-3.8741,0.0533,-0.9615,-1913.82,734.44,623.11
10690,-3.8741,0.0548,-0.9617,-1163.82,921.94,826.23
10700,-3.8741,0.0509,-0.9618,-976.32,906.31,951.23
10710,-3.8741,0.0452,-0.9619,-1476.32,890.69,873.11
10720,-3.8741,0.0393,-0.9641,1789.31,875.06,607.48
10730,-3.8741,0.0370,-0.9678,1039.31,593.81,451.23
10740,-3.8741,0.0421,-0.9705,742.43,125.06,498.11
10750,-3.8741,0.0521,-0.9694,1398.68,-218.69,544.92
10760,-3.8741,0.0601,-0.9646,-1320.07,-78.06,466.80
10770,-3.8741,0.0602,-0.9602,-304.44,531.31,310.61
10780,-3.8743,0.0538,-0.9603,-288.82,1093.81,-17.52
10790,-3.8743,0.0453,-0.9645,-1101.32,1078.19,-423.77
10800,-3.8743,0.0385,-0.9683,1804.93,546.94,-564.39
10810,-3.8743,0.0359,-0.9683,929.93,62.56,-439.39
10820,-3.8743,0.0376,-0.9644,601.81,62.56,-173.77
10830,-3.8741,0.0408,-0.9592,820.56,562.56,169.98
10840,-3.8741,0.0424,-0.9556,1226.81,1218.81,404.36
10850,-3.8741,0.0410,-0.9539,1429.93,1687.56,591.86
10860,-3.8741,0.0388,-0.9537,1258.06,1906.31,732.48
10870,-3.8741,0.0386,-0.9547,976.81,1921.94,669.98
10880,-3.8741,0.0426,-0.9545,945.56,1796.94,419.98
10890,-3.8743,0.0487,-0.9519,1461.18,1828.19,-80.02
10900,-3.8743,0.0544,-0.9492,-1757.57,-1843.69,-783.14
10910,-3.8743,0.0588,-0.9475,-1023.19,-1499.94,-1455.02
10920,-3.8743,0.0601,-0.9453,-460.69,-1281.19,1748.11
10930,-3.8743,0.0552,-0.9406,-304.44,-999.94,623.11
10940,-3.8744,0.0487,-0.9330,-929.44,-390.56,-376.89
10950,-3.8744,0.0474,-0.9329,-1757.57,578.19,-861.21
10960,-3.8744,0.0494,-0.9518,-1929.44,593.81,-954.96
10970,-3.8744,0.0531,-0.9803,-1663.82,-1828.06,-470.64
10980,-3.8743,0.0604,-0.9977,-1195.07,-1484.31,794.92
10990,-3.8743,0.0669,-1.0013,-257.57,296.94,-1611.33
11000,-3.8743,0.0687,-0.9987,570.56,-171.75,-142.64
11010,-3.8741,0.0728,-0.9886,804.93,172.00,1154.30
11020,-3.8741,0.0812,-0.9755,1320.56,1453.25,-1767.58
11030,-3.8741,0.0874,-0.9662,-1601.32,-859.25,-970.70
11040,-3.8741,0.0890,-0.9612,-804.44,328.25,-392.52
11050,-3.8741,0.0872,-0.9608,-601.32,968.87,-64.39
11060,-3.8741,0.0808,-0.9691,-835.69,1015.75,-111.27
11070,-3.8741,0.0698,-0.9802,-1648.19,-46.75,-267.58
11080,-3.8741,0.0573,-0.9838,945.56,-1468.63,-220.70
11090,-3.8741,0.0465,-0.9779,-663.82,-1921.81,-173.83
11100,-3.8741,0.0383,-0.9667,1961.18,-1171.81,-298.83
11110,-3.8741,0.0323,-0.9548,914.31,265.69,-501.89
11120,-3.8741,0.0295,-0.9467,148.68,1781.31,-830.02
11130,-3.8741,0.0326,-0.9431,-210.69,-1171.88,-1158.14
11140,-3.8741,0.0403,-0.9457,179.93,-718.69,-1470.64
11150,-3.8741,0.0497,-0.9558,1164.31,-1046.81,-1876.89
11160,-3.8741,0.0592,-0.9672,-1632.57,1656.31,1654.36
11170,-3.8741,0.0624,-0.9717,-413.82,203.19,982.48
11180,-3.8743,0.0537,-0.9700,-7.57,-374.94,-95.70
11190,-3.8743,0.0374,-0.9678,-1116.94,-156.19,-1408.20
11200,-3.8743,0.0190,-0.9668,789.31,125.06,1373.11
11210,-3.8743,0.0050,-0.9657,-1554.44,250.00,232.48
11220,-3.8744,0.0051,-0.9662,648.68,390.62,-470.64
11230,-3.8744,0.0220,-0.9697,664.31,328.12,-330.02
11240,-3.8743,0.0455,-0.9713,-1179.44,-125.00,591.80
11250,-3.8743,0.0669,-0.9662,1836.18,-328.06,1826.17
11260,-3.8743,0.0791,-0.9564,570.56,328.25,-1205.02
11270,-3.8743,0.0728,-0.9481,-1866.94,1578.25,-439.39
11280,-3.8741,0.0488,-0.9459,1320.56,-1359.25,185.61
11290,-3.8741,0.0228,-0.9493,-1741.94,-1078.06,904.36
11300,-3.8741,0.0090,-0.9546,-1070.07,-1515.62,1779.36
11310,-3.8741,0.0096,-0.9562,1164.31,1812.50,-1408.14
11320,-3.8741,0.0195,-0.9523,1242.43,1609.38,-626.89
11330,-3.8741,0.0343,-0.9473,-1491.94,-1890.62,-64.39
11340,-3.8740,0.0475,-0.9470,398.68,-1249.94,138.73
11350,-3.8740,0.0519,-0.9525,-1913.82,-1218.69,60.61
11360,-3.8741,0.0487,-0.9602,-1351.32,-1921.81,-251.89
11370,-3.8741,0.0450,-0.9661,-1757.57,1093.81,-689.39
11380,-3.8741,0.0432,-0.9697,1773.68,343.81,-1205.02
11390,-3.8741,0.0425,-0.9720,1539.31,-124.94,-1517.58
11400,-3.8741,0.0443,-0.9702,1445.56,-421.81,-1314.45
11410,-3.8741,0.0488,-0.9628,1679.93,-187.44,-923.83
11420,-3.8741,0.0522,-0.9559,-1741.94,765.69,-564.39
11430,-3.8741,0.0543,-0.9540,-1304.44,1640.69,-267.52
11440,-3.8741,0.0570,-0.9565,-1038.82,1890.69,-189.39
11450,-3.8741,0.0597,-0.9598,-695.07,1562.56,-392.52
11460,-3.8741,0.0610,-0.9606,-351.32,1140.69,-814.39
11470,-3.8741,0.0612,-0.9620,-179.44,1046.94,-1376.89
11480,-3.8741,0.0614,-0.9669,-163.82,859.44,-1861.27
11490,-3.8741,0.0616,-0.9712,-132.57,234.44,1794.98
11500,-3.8741,0.0618,-0.9696,-101.32,-312.44,1498.05
11510,-3.8741,0.0619,-0.9644,-85.69,-109.31,1185.55
11520,-3.8741,0.0602,-0.9594,-70.07,562.56,966.86
11530,-3.8741,0.0568,-0.9567,-288.82,1203.19,888.73
11540,-3.8741,0.0527,-0.9567,-726.32,1546.94,888.73
11550,-3.8741,0.0508,-0.9578,-1241.94,1546.94,1013.73
11560,-3.8741,0.0533,-0.9592,-1491.94,1406.31,1326.23
11570,-3.8741,0.0582,-0.9600,-1163.82,1218.81,1748.11
11580,-3.8741,0.0615,-0.9580,-538.82,1125.06,-1955.02
11590,-3.8741,0.0604,-0.9545,-116.94,1375.06,-1970.64
11600,-3.8741,0.0542,-0.9539,-257.57,1828.19,1732.48
11610,-3.8741,0.0471,-0.9570,-1054.44,1906.31,1341.86
11620,-3.8741,0.0425,-0.9613,-1960.69,1500.06,1060.61
11630,-3.8741,0.0416,-0.9628,1445.56,953.19,873.11
11640,-3.8741,0.0449,-0.9613,1336.18,765.69,701.23
11650,-3.8741,0.0518,-0.9612,1758.06,953.19,544.98
11660,-3.8741,0.0592,-0.9634,-1366.94,968.81,373.11
11670,-3.8741,0.0636,-0.9674,-413.82,687.56,76.23
11680,-3.8743,0.0638,-0.9720,148.68,172.00,-251.89
11690,-3.8743,0.0601,-0.9750,179.93,-421.75,-720.70
11700,-3.8743,0.0546,-0.9752,-304.44,-796.81,-1626.95
11710,-3.8743,0.0487,-0.9768,-1007.57,-828.06,1279.30
11720,-3.8743,0.0441,-0.9811,-1757.57,-1031.19,357.42
11730,-3.8744,0.0436,-0.9812,1648.68,-1578.06,-80.08
11740,-3.8743,0.0494,-0.9766,1586.18,-1593.69,201.17
11750,-3.8743,0.0594,-0.9722,-1663.82,-999.94,1123.05
11760,-3.8743,0.0720,-0.9661,-382.57,-437.44,-1595.70
11770,-3.8743,0.0822,-0.9585,1226.81,343.87,-298.77
11780,-3.8741,0.0822,-0.9543,-1476.32,1312.62,826.23
11790,-3.8741,0.0740,-0.9531,-1476.32,1843.87,1685.61
11800,-3.8741,0.0627,-0.9514,1476.81,-1999.88,-1767.52
11810,-3.8741,0.0507,-0.9493,39.31,-1781.13,-1548.77
11820,-3.8741,0.0408,-0.9487,-1507.57,-1515.56,-1611.27
11830,-3.8741,0.0342,-0.9506,1226.81,-1437.44,-1751.89
11840,-3.8741,0.0302,-0.9567,383.06,-1671.81,-1970.64
11850,-3.8741,0.0277,-0.9651,-132.57,1546.88,1966.86
11860,-3.8741,0.0264,-0.9703,-445.07,468.75,-1798.77
11870,-3.8741,0.0255,-0.9686,-616.94,-203.12,-1345.70
11880,-3.8741,0.0259,-0.9617,-726.32,15.62,-564.39
11890,-3.8740,0.0275,-0.9524,-679.44,906.25,482.48
11900,-3.8740,0.0295,-0.9431,-476.32,-1906.25,1419.98
11910,-3.8740,0.0323,-0.9398,-210.69,-718.75,-1955.02
11920,-3.8740,0.0350,-0.9446,148.68,-296.81,-1642.52
11930,-3.8740,0.0334,-0.9523,492.43,-906.19,-1861.27
11940,-3.8740,0.0253,-0.9612,289.31,-1890.56,1294.98
11950,-3.8740,0.0127,-0.9771,-757.57,968.75,357.48
11960,-3.8740,0.0020,-0.9974,1633.06,-1062.50,91.80
11970,-3.8740,0.0032,-1.0039,258.06,328.12,779.30
11980,-3.8740,0.0189,-0.9886,414.31,-500.00,-1595.76
11990,-3.8739,0.0388,-0.9636,-1570.07,1453.12,529.30
12000,-3.8739,0.0530,-0.9432,976.81,656.31,-1626.89
12010,-3.8739,0.0580,-0.9352,-1210.69,-734.31,-533.14
12020,-3.8739,0.0531,-0.9381,-570.07,296.94,-220.58
12030,-3.8739,0.0430,-0.9441,-1195.07,-78.06,-251.89
12040,-3.8739,0.0343,-0.9454,1508.06,-843.69,-17.52
12050,-3.8739,0.0256,-0.9404,398.68,-1015.56,-1.89
12060,-3.8739,0.0175,-0.9344,-710.69,-375.00,-798.77
12070,-3.8739,0.0098,-0.9319,-1757.57,390.62,1435.67
12080,-3.8740,-0.0027,-0.9318,1258.06,718.75,-1079.96
12090,-3.8740,-0.0211,-0.9320,-335.69,749.94,123.17
12100,-3.8741,-0.0405,-0.9307,1304.93,718.69,1310.67
12110,-3.8743,-0.0573,-0.9290,-1179.44,890.50,-1329.96
12120,-3.8743,-0.0724,-0.9326,679.93,1109.25,185.67
12130,-3.8744,-0.0858,-0.9414,-1257.57,640.44,-1689.33
12140,-3.8744,-0.0872,-0.9542,1023.68,-484.56,1451.23
12150,-3.8744,-0.0649,-0.9702,851.81,1874.82,1748.11
12160,-3.8744,-0.0234,-0.9785,-304.44,-172.06,-939.45
12170,-3.8743,0.0240,-0.9719,1008.06,-1234.44,998.05
12180,-3.8743,0.0670,-0.9567,-913.82,-406.25,-626.95
12190,-3.8741,0.0928,-0.9424,586.18,1547.00,1779.36
12200,-3.8741,0.0961,-0.9373,-116.94,-624.88,-439.39
12210,-3.8740,0.0894,-0.9445,304.93,31.43,498.17
12220,-3.8740,0.0847,-0.9574,-554.44,-890.50,998.11
12230,-3.8740,0.0854,-0.9686,-1148.19,1453.25,1419.98
12240,-3.8740,0.0919,-0.9729,-1054.44,15.75,1654.36
12250,-3.8740,0.1011,-0.9662,-226.32,-531.13,1451.17
12260,-3.8740,0.1062,-0.9556,945.56,328.31,451.23
12270,-3.8741,0.1055,-0.9521,1601.81,1687.68,-939.39
12280,-3.8741,0.1034,-0.9585,1508.06,-1874.82,1779.36
12290,-3.8741,0.1046,-0.9677,1242.43,1312.68,654.36
12300,-3.8743,0.1094,-0.9735,1398.68,140.81,-501.89
12310,-3.8743,0.1149,-0.9763,-1991.94,-609.19,-1845.70
12320,-3.8743,0.1163,-0.9750,-1288.82,-968.57,919.92
12330,-3.8744,0.1077,-0.9702,-1101.32,-796.69,-1.95
12340,-3.8744,0.0878,-0.9663,1789.31,-187.32,-673.83
12350,-3.8744,0.0607,-0.9670,-757.57,312.62,-1345.64
12360,-3.8744,0.0365,-0.9751,-226.32,218.81,1779.36
12370,-3.8744,0.0286,-0.9862,679.93,-812.44,1138.67
12380,-3.8744,0.0391,-0.9895,-335.69,1765.62,919.92
12390,-3.8744,0.0629,-0.9817,1008.06,1343.81,888.67
12400,-3.8744,0.0945,-0.9686,54.93,-1656.13,857.42
12410,-3.8744,0.1201,-0.9617,101.81,15.81,857.48
12420,-3.8744,0.1285,-0.9659,-616.94,906.43,1091.86
12430,-3.8744,0.1267,-0.9723,461.18,359.62,1748.11
12440,-3.8744,0.1249,-0.9733,226.81,-452.88,-1111.33
12450,-3.8744,0.1234,-0.9692,-7.57,-577.94,-111.33
12460,-3.8743,0.1176,-0.9637,-195.07,-62.32,419.92
12470,-3.8743,0.1034,-0.9612,-945.07,640.81,716.86
12480,-3.8743,0.0840,-0.9636,1242.43,968.93,1123.11
12490,-3.8743,0.0660,-0.9668,-1241.94,656.37,1498.11
12500,-3.8743,0.0582,-0.9673,461.18,250.12,1607.48
12510,-3.8743,0.0646,-0.9666,-538.82,187.56,1466.86
12520,-3.8743,0.0763,-0.9667,273.68,281.37,1216.86
12530,-3.8743,0.0846,-0.9680,1773.68,265.75,935.61
12540,-3.8743,0.0870,-0.9661,-1163.82,93.87,544.98
12550,-3.8744,0.0803,-0.9633,-851.32,343.87,-1.89
12560,-3.8744,0.0652,-0.9634,-1710.69,703.25,-689.39
12570,-3.8744,0.0491,-0.9652,351.81,687.62,-1330.02
12580,-3.8744,0.0383,-0.9684,-1710.69,453.19,-1767.52
12590,-3.8744,0.0361,-0.9725,914.31,46.94,-1845.64
12600,-3.8744,0.0420,-0.9744,633.06,-484.31,-1470.70
12610,-3.8744,0.0529,-0.9730,1383.06,-718.69,-642.58
12620,-3.8743,0.0647,-0.9702,-1226.32,-546.81,466.80
12630,-3.8743,0.0724,-0.9652,289.31,-187.38,1498.05
12640,-3.8743,0.0721,-0.9592,1273.68,453.25,-1830.02
12650,-3.8743,0.0653,-0.9557,1242.43,1218.87,-1439.39
12660,-3.8743,0.0563,-0.9563,367.43,1672.00,-1189.39
12670,-3.8743,0.0509,-0.9583,-788.82,1593.81,-1080.02
12680,-3.8743,0.0511,-0.9570,-1476.32,1343.81,-1017.52
12690,-3.8743,0.0546,-0.9562,-1445.07,1500.06,-1001.89
12700,-3.8743,0.0575,-0.9606,-1007.57,1609.44,-1095.64
12710,-3.8743,0.0564,-0.9668,-632.57,1046.94,-1330.02
12720,-3.8743,0.0516,-0.9723,-773.19,250.06,-1830.02
12730,-3.8743,0.0458,-0.9764,-1382.57,-453.06,1482.42
12740,-3.8743,0.0417,-0.9762,1867.43,-984.31,998.05
12750,-3.8743,0.0408,-0.9729,1351.81,-953.06,607.42
12760,-3.8743,0.0426,-0.9706,1226.81,-531.19,357.42
12770,-3.8743,0.0480,-0.9680,1461.18,-234.31,638.67
12780,-3.8743,0.0566,-0.9640,-1851.32,93.81,1373.11
12790,-3.8743,0.0663,-0.9602,-741.94,609.44,-1830.02
12800,-3.8743,0.0724,-0.9584,492.43,1093.87,-1220.64
12810,-3.8743,0.0696,-0.9581,1273.68,1328.25,-876.89
12820,-3.8743,0.0588,-0.9585,914.31,1359.50,-626.89
12830,-3.8743,0.0476,-0.9609,-460.69,1312.56,-517.52
12840,-3.8743,0.0425,-0.9652,-1898.19,1000.06,-564.39
12850,-3.8743,0.0442,-0.9695,1445.56,453.19,-423.77
12860,-3.8741,0.0529,-0.9716,1664.31,-93.69,76.17
12870,-3.8741,0.0665,-0.9696,-1226.32,-359.31,810.55
12880,-3.8741,0.0781,-0.9656,523.68,-109.25,1591.80
12890,-3.8741,0.0824,-0.9609,-1991.94,406.37,-1798.77
12900,-3.8741,0.0775,-0.9580,-1445.07,1000.12,-1501.89
12910,-3.8741,0.0664,-0.9590,1929.93,1375.12,-1580.02
12920,-3.8741,0.0543,-0.9630,508.06,1250.12,-1970.64
12930,-3.8741,0.0468,-0.9664,-1038.82,734.44,1544.98
12940,-3.8741,0.0463,-0.9663,1992.43,296.94,1060.61
12950,-3.8741,0.0502,-0.9634,1929.93,312.56,482.48
12960,-3.8743,0.0537,-0.9619,-1570.07,687.56,-361.27
12970,-3.8743,0.0538,-0.9655,-1116.94,875.06,-1533.14
12980,-3.8743,0.0505,-0.9724,-1101.32,421.94,1263.73
12990,-3.8743,0.0470,-0.9790,-1523.19,-468.69,341.80
13000,-3.8744,0.0464,-0.9816,-1976.32,-1312.44,-205.08
13010,-3.8744,0.0494,-0.9796,1945.56,-1640.56,-345.70
13020,-3.8743,0.0580,-0.9771,-1663.82,-1390.56,76.17
13030,-3.8743,0.0713,-0.9752,-570.07,-1062.44,1169.92
13040,-3.8743,0.0815,-0.9716,1133.06,-828.00,-1439.45
13050,-3.8743,0.0830,-0.9630,-1554.44,-359.25,-142.58
13060,-3.8741,0.0729,-0.9504,-1366.94,734.50,888.73
13070,-3.8741,0.0548,-0.9420,1336.18,-1656.13,1279.36
13080,-3.8741,0.0376,-0.9446,-976.32,-578.06,1201.23
13090,-3.8741,0.0288,-0.9548,820.56,-906.19,1185.61
13100,-3.8741,0.0328,-0.9642,-304.44,1781.25,1248.11
13110,-3.8741,0.0450,-0.9663,211.18,578.19,1232.48
13120,-3.8741,0.0542,-0.9613,1773.68,312.56,794.98
13130,-3.8741,0.0543,-0.9573,-1054.44,953.19,13.73
13140,-3.8743,0.0476,-0.9624,-1038.82,1468.81,-689.39
13150,-3.8743,0.0397,-0.9738,-1898.19,812.56,-876.89
13160,-3.8743,0.0383,-0.9799,1086.18,-640.56,-751.95
13170,-3.8743,0.0477,-0.9750,914.31,-1421.81,-564.45
13180,-3.8743,0.0608,-0.9641,-1882.57,-796.81,-330.08
13190,-3.8743,0.0680,-0.9547,-210.69,593.81,-251.89
13200,-3.8743,0.0652,-0.9509,711.18,1797.00,-517.52
13210,-3.8743,0.0525,-0.9513,351.81,-1718.63,-1064.39
13220,-3.8743,0.0352,-0.9550,-1273.19,-1765.56,-1642.52
13230,-3.8743,0.0199,-0.9585,508.06,1765.69,1873.11
13240,-3.8743,0.0094,-0.9580,-1445.07,1312.50,1388.73
13250,-3.8743,0.0042,-0.9523,1211.18,1375.00,904.36
13260,-3.8743,0.0045,-0.9452,539.31,-1890.62,498.11
13270,-3.8743,0.0084,-0.9440,586.18,-984.38,154.36
13280,-3.8744,0.0150,-0.9497,1086.18,-828.12,-33.14
13290,-3.8744,0.0243,-0.9583,1929.93,-1562.50,-111.27
13300,-3.8744,0.0361,-0.9650,-882.57,1343.75,-251.89
13310,-3.8743,0.0507,-0.9709,633.06,484.44,60.61
13320,-3.8743,0.0645,-0.9772,-1507.57,-281.19,1279.30
13330,-3.8743,0.0791,-0.9806,258.06,-1078.00,-1001.95
13340,-3.8741,0.0963,-0.9794,-1866.94,-1515.50,919.92
13350,-3.8741,0.1094,-0.9733,336.18,-1359.19,-908.20
13360,-3.8740,0.1117,-0.9647,-1991.94,-577.94,1060.55
13370,-3.8740,0.1024,-0.9589,-1695.07,515.81,-1392.52
13380,-3.8740,0.0885,-0.9591,1117.43,1265.81,-267.52
13390,-3.8739,0.0784,-0.9622,-663.82,1234.50,154.36
13400,-3.8740,0.0764,-0.9624,-1960.69,843.87,-80.02
13410,-3.8740,0.0834,-0.9617,1789.31,812.62,-564.39
13420,-3.8740,0.0957,-0.9617,-1320.07,906.37,-1095.64
13430,-3.8740,0.1062,-0.9601,258.06,906.43,-1720.64
13440,-3.8740,0.1095,-0.9584,1601.81,1109.56,1576.23
13450,-3.8740,0.1049,-0.9597,-1976.32,1328.31,748.11
13460,-3.8741,0.0938,-0.9642,1429.93,1156.43,-314.39
13470,-3.8741,0.0800,-0.9685,8.06,578.31,-1423.77
13480,-3.8741,0.0681,-0.9694,-1757.57,31.37,1654.36
13490,-3.8741,0.0627,-0.9684,726.81,-78.00,998.05
13500,-3.8741,0.0651,-0.9670,39.31,47.00,669.98
13510,-3.8741,0.0729,-0.9653,336.18,218.87,669.98
13520,-3.8741,0.0819,-0.9645,1336.18,437.62,982.48
13530,-3.8741,0.0900,-0.9629,-1507.57,547.00,1498.11
13540,-3.8741,0.0940,-0.9606,-476.32,750.12,1873.11
13550,-3.8741,0.0919,-0.9609,39.31,1047.06,1919.98
13560,-3.8741,0.0867,-0.9631,-226.32,1000.12,1748.11
13570,-3.8741,0.0819,-0.9640,-898.19,718.87,1529.36
13580,-3.8741,0.0807,-0.9640,-1507.57,609.50,1466.86
13590,-3.8741,0.0834,-0.9619,-1663.82,609.50,1560.61
13600,-3.8741,0.0850,-0.9569,-1320.07,875.12,1560.61
13610,-3.8741,0.0812,-0.9535,-1116.94,1515.75,1248.11
13620,-3.8741,0.0695,-0.9561,-1601.32,1953.25,623.11
13630,-3.8741,0.0522,-0.9612,898.68,1625.12,91.86
13640,-3.8743,0.0375,-0.9640,-1304.44,968.81,-220.64
13650,-3.8743,0.0308,-0.9650,804.93,609.44,-486.27
13660,-3.8743,0.0339,-0.9630,-54.44,484.38,-501.89
13670,-3.8743,0.0459,-0.9583,351.81,734.44,-173.77
13680,-3.8741,0.0588,-0.9550,1883.06,1343.81,498.11
13690,-3.8741,0.0648,-0.9545,-460.69,1765.69,1091.86
13700,-3.8741,0.0630,-0.9546,304.93,1828.25,1185.61
13710,-3.8741,0.0553,-0.9559,70.56,1812.62,779.36
13720,-3.8741,0.0463,-0.9612,-913.82,1640.69,169.98
13730,-3.8743,0.0427,-0.9691,1929.93,968.81,-423.77
13740,-3.8743,0.0472,-0.9702,1476.81,-46.81,-830.08
13750,-3.8743,0.0568,-0.9629,-1945.07,-187.44,-1283.20
13760,-3.8743,0.0647,-0.9584,-726.32,750.06,-1830.02
13770,-3.8743,0.0656,-0.9586,289.31,1328.25,1763.73
13780,-3.8743,0.0596,-0.9584,398.68,1297.00,1451.23
13790,-3.8743,0.0493,-0.9601,-366.94,1328.19,1076.23
13800,-3.8743,0.0389,-0.9629,-1679.44,1109.44,607.48
13810,-3.8743,0.0328,-0.9615,992.43,750.06,201.23
13820,-3.8744,0.0331,-0.9574,211.18,921.94,-158.14
13830,-3.8744,0.0383,-0.9563,242.43,1453.19,-580.02
13840,-3.8744,0.0457,-0.9597,914.31,1593.81,-1142.52
13850,-3.8744,0.0535,-0.9664,1851.81,1156.31,-1705.02
13860,-3.8744,0.0613,-0.9753,-1148.19,296.94,-1892.52
13870,-3.8744,0.0703,-0.9827,-148.19,-843.69,-1689.45
13880,-3.8744,0.0785,-0.9828,1008.06,-1781.13,-1298.83
13890,-3.8744,0.0829,-0.9780,-1945.07,-1796.75,-783.20
13900,-3.8744,0.0830,-0.9734,-1382.57,-1187.38,-189.45
13910,-3.8743,0.0793,-0.9679,-1366.94,-593.63,560.55
13920,-3.8743,0.0728,-0.9611,-1835.69,109.50,1560.61
13930,-3.8743,0.0640,-0.9557,1320.56,984.50,-1439.39
13940,-3.8743,0.0538,-0.9525,195.56,1672.00,-642.52
13950,-3.8743,0.0441,-0.9500,-1101.32,-1921.81,-142.52
13960,-3.8741,0.0369,-0.9513,1648.68,-1593.69,76.23
13970,-3.8741,0.0338,-0.9572,726.81,-1765.56,248.11
13980,-3.8741,0.0371,-0.9641,336.18,1484.44,638.73
13990,-3.8741,0.0481,-0.9683,758.06,593.81,1169.98
14000,-3.8741,0.0625,-0.9680,-1835.69,62.56,1763.73
14010,-3.8741,0.0723,-0.9656,8.06,93.87,-1783.14
14020,-3.8741,0.0734,-0.9639,1258.06,406.37,-1595.64
14030,-3.8741,0.0645,-0.9631,1398.68,625.12,-1548.77
14040,-3.8741,0.0487,-0.9644,258.06,718.87,-1533.14
14050,-3.8741,0.0350,-0.9690,-1757.57,562.56,-1611.27
14060,-3.8741,0.0309,-0.9729,492.43,-31.19,-1830.08
14070,-3.8741,0.0394,-0.9736,-38.82,-531.25,1966.80
14080,-3.8741,0.0590,-0.9730,1054.93,-624.94,1888.67
14090,-3.8741,0.0819,-0.9718,-445.07,-546.81,1841.80
14100,-3.8741,0.0995,-0.9719,-1507.57,-390.50,1857.42
14110,-3.8741,0.1095,-0.9763,742.43,-406.07,1904.30
14120,-3.8741,0.1096,-0.9808,-1976.32,-968.57,1857.42
14130,-3.8741,0.1010,-0.9788,-1960.69,-1546.69,1607.42
14140,-3.8741,0.0891,-0.9719,929.93,-1281.07,1185.55
14150,-3.8741,0.0769,-0.9642,-585.69,-406.13,826.17
14160,-3.8741,0.0636,-0.9569,1851.81,578.25,623.11
14170,-3.8741,0.0510,-0.9513,148.68,1515.75,732.48
14180,-3.8741,0.0428,-0.9480,-1460.69,-1765.56,1185.61
14190,-3.8741,0.0403,-0.9478,1492.43,-1343.69,1607.48
14200,-3.8741,0.0422,-0.9498,1164.31,-1312.44,1779.36
14210,-3.8741,0.0471,-0.9495,1414.31,-1578.06,1763.73
14220,-3.8741,0.0522,-0.9468,-1960.69,-1531.19,1560.61
14230,-3.8741,0.0574,-0.9448,-1304.44,-1187.44,1060.61
14240,-3.8741,0.0614,-0.9436,-648.19,-937.44,388.73
14250,-3.8743,0.0618,-0.9458,-132.57,-781.19,-439.39
14260,-3.8743,0.0608,-0.9543,-85.69,-1062.44,-1392.52
14270,-3.8743,0.0646,-0.9656,-210.69,1843.81,1873.11
14280,-3.8743,0.0757,-0.9742,273.68,406.37,1544.98
14290,-3.8743,0.0906,-0.9777,1695.56,-703.00,1263.67
14300,-3.8743,0.1052,-0.9740,-398.19,-1140.50,1091.80
14310,-3.8743,0.1158,-0.9662,1476.81,-671.69,1107.42
14320,-3.8743,0.1172,-0.9626,-1163.82,328.31,998.11
14330,-3.8743,0.1089,-0.9661,-991.94,781.43,873.11
14340,-3.8743,0.0959,-0.9736,1945.56,343.93,888.73
14350,-3.8743,0.0848,-0.9808,289.31,-624.82,1123.05
14360,-3.8743,0.0787,-0.9829,-1132.57,-1546.75,1654.30
14370,-3.8743,0.0760,-0.9783,-1913.82,-1812.38,-1689.45
14380,-3.8743,0.0746,-0.9695,1742.43,-1218.63,-1064.45
14390,-3.8743,0.0704,-0.9608,1554.93,-93.63,-423.83
14400,-3.8743,0.0587,-0.9563,1023.68,1015.75,-80.02
14410,-3.8743,0.0424,-0.9583,-476.32,1593.81,-126.89
14420,-3.8743,0.0303,-0.9625,1429.93,1343.81,-408.14
14430,-3.8743,0.0277,-0.9647,-116.94,796.88,-955.02
14440,-3.8743,0.0331,-0.9670,-445.07,515.62,-1845.64
14450,-3.8743,0.0432,-0.9700,242.43,218.81,1232.48
14460,-3.8743,0.0568,-0.9703,1539.31,-156.19,591.80
14470,-3.8743,0.0709,-0.9688,-726.32,-203.06,154.30
14480,-3.8744,0.0782,-0.9689,1086.18,0.12,-236.27
14490,-3.8744,0.0729,-0.9695,-1976.32,-15.50,-595.70
14500,-3.8744,0.0591,-0.9681,1336.18,-93.63,-1048.83
14510,-3.8744,0.0439,-0.9692,-429.44,78.19,-1517.52
14520,-3.8744,0.0331,-0.9758,1633.06,-62.44,-1767.58
14530,-3.8744,0.0328,-0.9816,242.43,-906.19,-1658.20
14540,-3.8744,0.0452,-0.9808,211.18,-1640.56,-1236.33
14550,-3.8744,0.0620,-0.9757,1789.31,-1546.81,-595.70
14560,-3.8743,0.0741,-0.9705,-54.44,-890.56,185.55
14570,-3.8743,0.0775,-0.9659,1492.43,-218.63,935.55
14580,-3.8743,0.0720,-0.9640,1929.93,359.50,1466.86
14590,-3.8743,0.0590,-0.9662,1226.81,609.50,1873.11
14600,-3.8743,0.0447,-0.9674,-445.07,328.19,-1705.02
14610,-3.8743,0.0338,-0.9647,1726.81,171.94,-1548.77
14620,-3.8743,0.0270,-0.9606,336.18,515.69,-1642.52
14630,-3.8743,0.0248,-0.9576,-538.82,1046.88,-1533.14
14640,-3.8743,0.0267,-0.9563,-820.07,1421.88,-1048.77
14650,-3.8743,0.0286,-0.9562,-570.07,1593.75,-517.52
14660,-3.8743,0.0272,-0.9567,-335.69,1609.38,-298.77
14670,-3.8743,0.0221,-0.9562,-507.57,1546.88,-439.39
14680,-3.8743,0.0132,-0.9568,-1163.82,1609.38,-1001.89
14690,-3.8743,0.0033,-0.9592,1695.56,1531.25,1841.86
14700,-3.8743,-0.0004,-0.9590,429.93,1218.75,373.11
14710,-3.8744,0.0077,-0.9578,-38.82,1265.56,-1142.52
14720,-3.8744,0.0244,-0.9659,992.43,1406.25,1201.23
14730,-3.8745,0.0432,-0.9818,-866.94,359.38,-189.39
14740,-3.8745,0.0615,-0.9940,1539.31,-1671.81,-830.08
14750,-3.8745,0.0769,-0.9968,-116.94,765.69,-673.83
14760,-3.8744,0.0845,-0.9899,1851.81,406.37,310.55
14770,-3.8744,0.0828,-0.9784,-1179.44,1297.00,1873.05
14780,-3.8744,0.0745,-0.9701,-1398.19,-1234.25,-205.08
14790,-3.8743,0.0641,-0.9650,1539.31,-171.75,-1923.83
14800,-3.8741,0.0549,-0.9604,211.18,484.50,513.73
14810,-3.8741,0.0477,-0.9558,-960.69,1062.56,-1517.52
14820,-3.8741,0.0399,-0.9501,-1882.57,1656.31,-345.64
14830,-3.8740,0.0289,-0.9473,1117.43,-1609.31,279.36
14840,-3.8740,0.0187,-0.9517,-288.82,-1250.00,498.11
14850,-3.8740,0.0144,-0.9591,-1601.32,-1812.50,373.11
14860,-3.8740,0.0173,-0.9635,1851.81,1234.38,154.36
14870,-3.8741,0.0226,-0.9636,-1773.19,671.88,-111.27
14880,-3.8741,0.0215,-0.9613,-1101.32,656.25,-580.02
14890,-3.8741,0.0116,-0.9596,-1241.94,953.12,-1220.64
14900,-3.8741,-0.0031,-0.9602,1492.43,1171.88,-1970.64
14910,-3.8741,-0.0164,-0.9647,-382.57,1109.31,1357.48
14920,-3.8741,-0.0229,-0.9702,1914.31,531.19,1029.36
14930,-3.8741,-0.0198,-0.9713,1070.56,-171.94,1138.67
14940,-3.8741,-0.0071,-0.9677,1476.81,-312.56,1544.92
14950,-3.8741,0.0106,-0.9607,-898.19,156.19,-1830.02
14960,-3.8741,0.0262,-0.9536,1367.43,1031.25,-1236.27
14970,-3.8741,0.0350,-0.9508,-632.57,1937.50,-1064.39
14980,-3.8741,0.0366,-0.9552,492.43,-1703.06,-1236.27
14990,-3.8741,0.0330,-0.9622,695.56,1734.44,-1595.64
15000,-3.8741,0.0282,-0.9664,226.81,843.81,1826.23
15010,-3.8741,0.0238,-0.9690,-382.57,296.88,1154.36
15020,-3.8741,0.0182,-0.9684,-945.07,-31.25,669.92
15030,-3.8741,0.0098,-0.9630,-1663.82,46.88,482.48
15040,-3.8741,-0.0029,-0.9569,1258.06,734.38,451.23
15050,-3.8741,-0.0140,-0.9554,-366.94,1531.19,576.23
15060,-3.8741,-0.0165,-0.9574,-1788.82,1718.69,982.48
15070,-3.8741,-0.0083,-0.9575,1898.68,1468.69,1466.86
15080,-3.8741,0.0073,-0.9569,-1054.44,1453.06,1826.23
15090,-3.8741,0.0232,-0.9586,945.56,1515.62,-1939.39
15100,-3.8741,0.0341,-0.9607,-1023.19,1296.88,-1689.39
15110,-3.8741,0.0413,-0.9620,367.43,1031.31,-1517.52
15120,-3.8741,0.0477,-0.9635,1289.31,859.44,-1626.89
15130,-3.8741,0.0505,-0.9637,-1882.57,671.94,1873.11
15140,-3.8741,0.0466,-0.9618,-1523.19,640.69,1373.11
15150,-3.8741,0.0378,-0.9612,1976.81,890.69,1154.36
15160,-3.8741,0.0271,-0.9622,851.81,968.81,1185.61
15170,-3.8741,0.0188,-0.9608,-523.19,843.75,1513.73
15180,-3.8741,0.0146,-0.9554,-1585.69,1015.62,1966.86
15190,-3.8741,0.0129,-0.9495,1883.06,1703.12,-1642.52
15200,-3.8741,0.0151,-0.9462,1664.31,-1531.25,-1298.77
15210,-3.8741,0.0225,-0.9447,1945.56,-1109.38,-1080.02
15220,-3.8741,0.0334,-0.9442,-1116.94,-921.88,-1142.52
15230,-3.8741,0.0458,-0.9486,289.31,-859.31,-1283.14
15240,-3.8741,0.0573,-0.9584,1867.43,-1421.81,-1220.64
15250,-3.8741,0.0680,-0.9644,-663.82,1328.19,-939.39
15260,-3.8741,0.0776,-0.9618,711.18,562.62,-783.14
15270,-3.8741,0.0834,-0.9553,1945.56,890.75,-939.39
15280,-3.8741,0.0807,-0.9515,-1320.07,1718.87,-1470.64
15290,-3.8741,0.0701,-0.9541,-1663.82,-1796.75,1685.61
15300,-3.8741,0.0565,-0.9620,976.81,1875.12,810.61
15310,-3.8741,0.0461,-0.9720,-757.57,859.44,216.86
15320,-3.8743,0.0430,-0.9807,1914.31,-421.81,-17.58
15330,-3.8743,0.0458,-0.9871,1508.06,-1531.19,-80.08
15340,-3.8743,0.0508,-0.9907,1867.43,1656.31,-126.95
15350,-3.8743,0.0565,-0.9878,-1491.94,1187.56,-173.83
15360,-3.8743,0.0604,-0.9779,-757.57,1562.56,-126.95
15370,-3.8743,0.0607,-0.9683,-257.57,-1171.81,-267.58
15380,-3.8743,0.0593,-0.9656,-226.32,62.56,-673.77
15390,-3.8743,0.0576,-0.9697,-398.19,406.31,-1095.64
15400,-3.8743,0.0541,-0.9752,-616.94,-124.94,-1548.83
15410,-3.8743,0.0480,-0.9772,-1070.07,-828.06,1779.30
15420,-3.8743,0.0393,-0.9756,-1851.32,-1078.06,1123.05
15430,-3.8743,0.0304,-0.9718,1039.31,-874.94,841.80
15440,-3.8743,0.0238,-0.9672,-101.32,-390.62,998.05
15450,-3.8743,0.0212,-0.9598,-945.07,203.12,1638.73
15460,-3.8743,0.0216,-0.9504,-1273.19,1140.62,-1439.39
15470,-3.8743,0.0234,-0.9456,-1226.32,-1656.25,-392.52
15480,-3.8741,0.0262,-0.9448,-991.94,-1031.25,654.36
15490,-3.8741,0.0312,-0.9447,-632.57,-937.50,1513.73
15500,-3.8741,0.0370,-0.9463,8.06,-921.81,-1876.89
15510,-3.8741,0.0389,-0.9509,742.43,-1124.94,-1751.89
15520,-3.8741,0.0364,-0.9564,992.43,-1718.69,-1908.14
15530,-3.8741,0.0325,-0.9624,664.31,1578.19,-1923.77
15540,-3.8741,0.0299,-0.9681,164.31,812.56,-1658.14
15550,-3.8741,0.0317,-0.9713,-163.82,78.12,-1142.52
15560,-3.8741,0.0377,-0.9672,70.56,-328.06,-595.70
15570,-3.8741,0.0436,-0.9562,836.18,203.19,-189.39
15580,-3.8741,0.0454,-0.9463,1586.18,1609.44,-33.14
15590,-3.8741,0.0409,-0.9436,1820.56,-1124.94,-173.77
15600,-3.8741,0.0308,-0.9539,1242.43,-781.19,-720.64
15610,-3.8741,0.0190,-0.9744,-54.44,1906.25,-1611.27
15620,-3.8741,0.0125,-0.9905,-1554.44,-718.75,1685.55
15630,-3.8741,0.0135,-0.9955,1601.81,1218.75,1435.55
15640,-3.8741,0.0199,-0.9944,1742.43,578.12,1388.67
15650,-3.8741,0.0276,-0.9893,-1445.07,718.75,1576.17
15660,-3.8741,0.0311,-0.9836,-460.69,1375.00,-1939.45
15670,-3.8741,0.0275,-0.9822,-7.57,-1906.25,-1251.95
15680,-3.8741,0.0205,-0.9822,-476.32,-1718.75,-392.58
15690,-3.8740,0.0164,-0.9794,-1366.94,-1718.75,435.55
15700,-3.8740,0.0159,-0.9723,-1898.19,-1359.38,873.05
15710,-3.8740,0.0172,-0.9615,-1960.69,-453.12,919.92
15720,-3.8740,0.0186,-0.9504,-1788.82,921.88,560.61
15730,-3.8741,0.0155,-0.9429,-1616.94,-1656.25,-251.89
15740,-3.8741,0.0055,-0.9424,1992.43,-687.50,-1361.27
15750,-3.8741,-0.0076,-0.9480,711.18,-625.00,1169.98
15760,-3.8743,-0.0177,-0.9553,-960.69,-1328.19,-642.52
15770,-3.8743,-0.0247,-0.9642,1742.43,1734.31,1404.36
15780,-3.8744,-0.0304,-0.9724,851.81,593.69,-236.27
15790,-3.8744,-0.0359,-0.9741,117.43,-453.19,-1408.20
15800,-3.8744,-0.0419,-0.9707,-585.69,-672.00,1810.55
15810,-3.8744,-0.0452,-0.9657,-1351.32,-234.50,1404.30
15820,-3.8744,-0.0417,-0.9597,-1773.19,406.13,1498.11
15830,-3.8744,-0.0315,-0.9547,-1335.69,1171.75,1904.36
15840,-3.8744,-0.0179,-0.9530,-23.19,1812.38,-1439.39
15850,-3.8744,-0.0048,-0.9543,1711.18,-1968.81,-314.39
15860,-3.8743,0.0063,-0.9545,-601.32,1859.31,1060.61
15870,-3.8743,0.0153,-0.9496,820.56,1828.12,-1736.27
15880,-3.8743,0.0205,-0.9424,1961.18,-1546.88,-1001.89
15890,-3.8743,0.0255,-0.9386,-1366.94,-625.00,-814.39
15900,-3.8743,0.0343,-0.9396,-726.32,-140.62,-845.64
15910,-3.8743,0.0424,-0.9486,398.68,-265.56,-1173.77
15920,-3.8743,0.0446,-0.9652,1429.93,-1421.81,-1798.77
15930,-3.8743,0.0416,-0.9796,1711.18,453.19,1498.11
15940,-3.8743,0.0359,-0.9861,1336.18,-1390.56,669.92
15950,-3.8744,0.0297,-0.9869,601.81,1781.31,-95.70
15960,-3.8744,0.0272,-0.9838,-195.07,1671.88,-330.08
15970,-3.8743,0.0310,-0.9734,-507.57,-1921.88,60.55
15980,-3.8743,0.0392,-0.9592,-23.19,-593.75,466.80
15990,-3.8743,0.0465,-0.9526,1023.68,1218.81,701.23
16000,-3.8743,0.0503,-0.9574,1961.18,-1937.44,841.86
16010,-3.8743,0.0514,-0.9664,-1554.44,1453.19,982.48
16020,-3.8743,0.0530,-0.9700,-1413.82,296.94,1123.11
16030,-3.8743,0.0560,-0.9664,-1210.69,-156.19,1029.30
16040,-3.8743,0.0597,-0.9612,-820.07,296.94,826.23
16050,-3.8743,0.0605,-0.9569,-351.32,968.81,716.86
16060,-3.8743,0.0560,-0.9539,-241.94,1515.69,544.98
16070,-3.8743,0.0458,-0.9541,-820.07,1906.31,435.61
16080,-3.8743,0.0325,-0.9580,1867.43,1875.06,716.86
16090,-3.8743,0.0228,-0.9653,164.31,1375.06,1419.98
16100,-3.8743,0.0234,-0.9745,-1070.07,437.50,-1439.39
16110,-3.8741,0.0344,-0.9834,-991.94,-734.38,13.67
16120,-3.8741,0.0542,-0.9878,414.31,-1874.94,1701.17
16130,-3.8741,0.0791,-0.9845,-1054.44,1562.56,-876.95
16140,-3.8741,0.0983,-0.9756,-1866.94,1984.50,-126.95
16150,-3.8740,0.1058,-0.9657,586.18,-874.82,201.17
16160,-3.8740,0.1052,-0.9598,1554.93,390.81,357.48
16170,-3.8741,0.0989,-0.9598,1476.81,1140.81,-1.89
16180,-3.8741,0.0891,-0.9609,664.31,1140.81,-1017.52
16190,-3.8741,0.0786,-0.9611,-585.69,1000.12,1451.23
16200,-3.8743,0.0667,-0.9647,-1929.44,984.50,-330.02
16210,-3.8743,0.0511,-0.9711,539.31,515.75,-1876.89
16220,-3.8743,0.0337,-0.9780,-1445.07,-296.81,888.67
16230,-3.8744,0.0162,-0.9828,320.56,-1187.44,-64.45
16240,-3.8744,-0.0015,-0.9811,-1913.82,-1796.88,-580.08
16250,-3.8744,-0.0153,-0.9734,-179.44,-1562.56,-345.70
16260,-3.8744,-0.0223,-0.9645,-1945.07,-578.19,-392.58
16270,-3.8744,-0.0233,-0.9668,1148.68,562.44,-1126.89
16280,-3.8744,-0.0176,-0.9789,1023.68,265.56,-1001.89
16290,-3.8743,-0.0084,-0.9825,1758.06,-1281.31,76.17
16300,-3.8743,0.0012,-0.9739,-1070.07,-1750.06,873.05
16310,-3.8743,0.0120,-0.9634,164.31,-656.25,1044.92
16320,-3.8743,0.0171,-0.9581,1539.31,687.50,1263.73
16330,-3.8743,0.0098,-0.9586,-1804.44,1359.38,1966.86
16340,-3.8743,-0.0023,-0.9598,1258.06,1296.88,-1064.39
16350,-3.8743,-0.0092,-0.9580,-288.82,1156.19,-298.77
16360,-3.8741,-0.0104,-0.9525,-1163.82,1390.56,13.73
16370,-3.8741,-0.0090,-0.9459,-1320.07,-1906.31,60.61
16380,-3.8743,-0.0065,-0.9445,-1148.19,-1062.56,-64.39
16390,-3.8743,0.0005,-0.9509,-820.07,-875.06,-189.39
16400,-3.8743,0.0143,-0.9609,70.56,-1718.75,-376.89
16410,-3.8743,0.0303,-0.9683,1836.18,1000.00,-892.52
16420,-3.8743,0.0443,-0.9703,-116.94,62.50,-1392.52
16430,-3.8743,0.0591,-0.9692,1679.93,-203.06,-1939.45
16440,-3.8743,0.0751,-0.9648,-429.44,-62.44,1263.67
16450,-3.8743,0.0881,-0.9575,1617.43,500.12,263.73
16460,-3.8744,0.0963,-0.9567,-710.69,1437.62,-658.14
16470,-3.8744,0.0985,-0.9644,336.18,1547.06,-986.27
16480,-3.8744,0.0958,-0.9712,617.43,562.68,-861.27
16490,-3.8744,0.0911,-0.9744,273.68,-312.32,-751.95
16500,-3.8744,0.0822,-0.9768,-335.69,-718.63,-798.83
16510,-3.8744,0.0684,-0.9773,-1476.32,-1031.13,-970.70
16520,-3.8744,0.0490,-0.9757,758.06,-1093.63,-1595.70
16530,-3.8744,0.0255,-0.9739,-1726.32,-890.56,1326.17
16540,-3.8745,0.0018,-0.9714,-726.32,-656.25,-33.20
16550,-3.8745,-0.0209,-0.9670,242.43,-343.75,-1658.20
16560,-3.8745,-0.0410,-0.9561,1336.18,234.31,1091.86
16570,-3.8745,-0.0613,-0.9413,-1241.94,1640.50,263.73
16580,-3.8746,-0.0833,-0.9351,164.31,-468.87,-298.77
16590,-3.8746,-0.1000,-0.9452,1351.81,327.94,-423.71
16600,-3.8746,-0.1068,-0.9633,-788.82,-968.99,-189.39
16610,-3.8745,-0.1022,-0.9772,-1663.82,718.51,13.73
16620,-3.8745,-0.0835,-0.9824,-1070.07,-1062.74,919.92
16630,-3.8745,-0.0529,-0.9736,1320.56,-1734.56,-830.08
16640,-3.8744,-0.0145,-0.9597,1242.43,-609.50,1763.67
16650,-3.8743,0.0219,-0.9534,-1851.32,1171.81,669.98
16660,-3.8743,0.0452,-0.9491,-1195.07,1968.75,-48.77
16670,-3.8741,0.0560,-0.9431,1789.31,-1484.31,-1267.52
16680,-3.8740,0.0616,-0.9412,-820.07,-718.69,794.98
16690,-3.8740,0.0619,-0.9431,-101.32,-468.69,-1611.27
16700,-3.8740,0.0569,-0.9468,-70.07,-718.69,-548.77
16710,-3.8740,0.0497,-0.9523,-710.69,-1187.44,-80.02
16720,-3.8740,0.0428,-0.9600,-1632.57,-1890.56,-173.77
16730,-3.8740,0.0380,-0.9695,1492.43,1125.06,-626.89
16740,-3.8740,0.0364,-0.9766,867.43,-93.69,-1126.95
16750,-3.8740,0.0376,-0.9796,664.31,-999.94,-1720.70
16760,-3.8740,0.0393,-0.9806,820.56,-1390.56,1654.30
16770,-3.8740,0.0393,-0.9813,1039.31,-1515.56,873.05
16780,-3.8741,0.0359,-0.9835,1039.31,-1609.31,-189.45
16790,-3.8741,0.0287,-0.9893,601.81,-1890.56,-1095.70
16800,-3.8741,0.0212,-0.9980,-320.07,1375.00,-1330.08
16810,-3.8741,0.0204,-1.0057,-1273.19,250.00,-955.08
16820,-3.8741,0.0287,-1.0095,-1382.57,-734.38,-283.26
16830,-3.8740,0.0433,-1.0083,-320.07,-1218.75,622.99
16840,-3.8740,0.0612,-1.0017,1554.93,-1062.44,1747.99
16850,-3.8740,0.0789,-0.9899,-163.82,-218.69,-877.01
16860,-3.8739,0.0941,-0.9728,-1898.19,1297.00,404.30
16870,-3.8739,0.1011,-0.9561,54.93,-515.44,1029.30
16880,-3.8739,0.0901,-0.9432,945.56,1625.18,810.61
16890,-3.8740,0.0624,-0.9324,-460.69,-734.25,-501.89
16900,-3.8740,0.0309,-0.9280,-7.57,656.31,826.29
16910,-3.8741,0.0033,-0.9357,-38.82,1218.75,1373.17
16920,-3.8743,-0.0194,-0.9490,429.93,234.38,-1751.83
16930,-3.8744,-0.0358,-0.9597,1523.68,-1453.19,-298.77
16940,-3.8744,-0.0469,-0.9656,-570.07,1171.75,1904.36
16950,-3.8744,-0.0554,-0.9668,-1991.94,421.75,1107.48
16960,-3.8744,-0.0627,-0.9635,914.31,265.50,1294.98
16970,-3.8744,-0.0690,-0.9523,-23.19,687.32,-1658.14
16980,-3.8744,-0.0730,-0.9331,-820.07,-1875.18,-95.64
16990,-3.8743,-0.0754,-0.9114,-1335.69,577.94,1560.67
17000,-3.8743,-0.0808,-0.8929,-1648.19,-640.81,-1142.46
17010,-3.8743,-0.0880,-0.8870,1664.31,1718.57,-626.77
17020,-3.8743,-0.0929,-0.8988,742.43,-1515.81,-1126.77
17030,-3.8743,-0.0955,-0.9254,117.43,968.57,1763.85
17040,-3.8743,-0.0917,-0.9585,-210.69,1562.26,623.17
17050,-3.8744,-0.0742,-0.9893,273.68,1327.94,-95.64
17060,-3.8744,-0.0439,-1.0110,-1491.94,1390.44,-392.58
17070,-3.8744,-0.0110,-1.0184,-1616.94,-1390.75,-533.26
17080,-3.8744,0.0137,-1.0126,-1398.19,1656.19,-517.64
17090,-3.8744,0.0194,-1.0017,1758.06,-1609.38,-392.64
17100,-3.8744,0.0016,-0.9933,-1507.57,-218.75,-48.89
17110,-3.8743,-0.0310,-0.9926,211.18,859.38,482.42
17120,-3.8743,-0.0631,-1.0005,39.31,968.69,1029.30
17130,-3.8743,-0.0815,-1.0077,-70.07,-47.06,1419.86
17140,-3.8743,-0.0822,-1.0031,1570.56,-968.93,1497.99
17150,-3.8743,-0.0729,-0.9866,1492.43,-375.18,1513.61
17160,-3.8743,-0.0629,-0.9663,-1320.07,1734.19,1669.92
17170,-3.8743,-0.0557,-0.9510,-38.82,327.94,1794.98
17180,-3.8743,-0.0496,-0.9458,883.06,-1718.87,1935.61
17190,-3.8743,-0.0399,-0.9500,1664.31,-1047.00,-1970.64
17200,-3.8743,-0.0281,-0.9607,-1101.32,-1578.25,1826.23
17210,-3.8743,-0.0182,-0.9718,414.31,1046.81,1732.48
17220,-3.8743,-0.0106,-0.9724,1679.93,-375.06,-1798.83
17230,-3.8743,-0.0079,-0.9619,-1351.32,-453.19,-986.33
17240,-3.8743,-0.0096,-0.9508,-1007.57,890.56,-205.02
17250,-3.8741,-0.0093,-0.9431,-1226.32,-1687.56,435.61
17260,-3.8741,-0.0050,-0.9374,-1179.44,-703.19,904.36
17270,-3.8741,0.0039,-0.9358,-632.57,31.19,1076.29
17280,-3.8741,0.0176,-0.9395,508.06,218.75,1232.54
17290,-3.8741,0.0297,-0.9453,-1741.94,-250.00,1498.11
17300,-3.8741,0.0366,-0.9490,-195.07,-1000.00,1607.48
17310,-3.8741,0.0375,-0.9497,695.56,-1468.69,1373.11
17320,-3.8741,0.0323,-0.9525,804.93,-1562.44,951.23
17330,-3.8741,0.0272,-0.9601,148.68,-1921.81,841.86
17340,-3.8741,0.0286,-0.9656,-507.57,1109.38,1029.36
17350,-3.8741,0.0378,-0.9663,-335.69,406.25,1232.48
17360,-3.8741,0.0505,-0.9661,851.81,312.56,1404.36
17370,-3.8741,0.0614,-0.9662,-1523.19,343.81,1310.61
17380,-3.8741,0.0675,-0.9679,-132.57,328.19,857.48
17390,-3.8741,0.0692,-0.9745,648.68,109.50,91.86
17400,-3.8743,0.0693,-0.9841,867.43,-734.25,-876.95
17410,-3.8743,0.0691,-0.9919,883.06,-1968.63,-1876.95
17420,-3.8743,0.0686,-0.9944,851.81,1031.37,1013.67
17430,-3.8744,0.0677,-0.9940,789.31,718.87,-330.08
17440,-3.8744,0.0697,-0.9956,679.93,765.75,-1455.08
17450,-3.8744,0.0796,-0.9963,929.93,562.62,-1814.45
17460,-3.8744,0.0946,-0.9941,-1804.44,468.87,-1580.08
17470,-3.8744,0.1083,-0.9899,117.43,750.18,-1173.83
17480,-3.8744,0.1128,-0.9810,1867.43,1297.06,-798.83
17490,-3.8744,0.1047,-0.9670,-1554.44,-1562.32,-205.08
17500,-3.8743,0.0880,-0.9563,1414.31,218.93,638.73
17510,-3.8743,0.0693,-0.9556,-726.32,1593.87,1576.23
17520,-3.8743,0.0554,-0.9600,883.06,1687.62,-1595.64
17530,-3.8743,0.0459,-0.9618,-898.19,1125.06,-908.14
17540,-3.8743,0.0372,-0.9586,1883.06,890.69,-283.14
17550,-3.8741,0.0284,-0.9520,773.68,1296.94,107.48
17560,-3.8741,0.0198,-0.9458,-351.32,-1859.38,107.48
17570,-3.8743,0.0099,-0.9447,-1460.69,-1062.50,-173.77
17580,-3.8743,-0.0001,-0.9503,1273.68,-921.88,-751.89
17590,-3.8743,-0.0063,-0.9591,-7.57,-1625.06,-1486.27
17600,-3.8743,-0.0076,-0.9680,-804.44,1249.94,1904.36
17610,-3.8743,-0.0043,-0.9778,-960.69,109.31,1669.98
17620,-3.8743,0.0005,-0.9888,-538.82,-1140.69,1826.17
17630,-3.8743,0.0020,-0.9979,70.56,1437.50,-1939.45
17640,-3.8743,-0.0012,-1.0018,258.06,265.62,1919.92
17650,-3.8743,-0.0081,-1.0028,-148.19,-218.81,1544.86
17660,-3.8743,-0.0151,-1.0044,-1023.19,-343.81,1279.24
17670,-3.8743,-0.0161,-1.0043,-1929.44,-546.94,1357.36
17680,-3.8743,-0.0067,-0.9988,1945.56,-531.31,1904.24
17690,-3.8743,0.0096,-0.9879,-851.32,171.81,-1423.83
17700,-3.8743,0.0264,-0.9744,1242.43,1546.88,-814.45
17710,-3.8743,0.0403,-0.9620,-616.94,-718.75,-142.58
17720,-3.8741,0.0502,-0.9563,1164.31,859.44,357.48
17730,-3.8741,0.0538,-0.9575,-1570.07,1593.81,560.61
17740,-3.8741,0.0510,-0.9596,-1101.32,1437.56,732.48
17750,-3.8741,0.0437,-0.9596,-1460.69,1171.94,638.73
17760,-3.8743,0.0330,-0.9597,1601.81,1171.94,-17.52
17770,-3.8743,0.0216,-0.9628,226.81,1156.31,-705.02
17780,-3.8743,0.0128,-0.9690,-1226.32,765.62,-923.77
17790,-3.8743,0.0070,-0.9722,1648.68,-31.25,-580.08
17800,-3.8741,0.0044,-0.9680,898.68,-437.50,326.17
17810,-3.8741,0.0038,-0.9612,570.56,93.75,1451.23
17820,-3.8741,0.0035,-0.9537,492.43,968.75,-1220.64
17830,-3.8740,0.0045,-0.9427,461.18,1921.88,248.11
17840,-3.8740,0.0062,-0.9320,586.18,-671.88,1576.23
17850,-3.8740,0.0085,-0.9290,804.93,703.12,-1423.71
17860,-3.8740,0.0107,-0.9325,1101.81,1093.75,-829.96
17870,-3.8740,0.0106,-0.9377,1383.06,640.62,-783.08
17880,-3.8740,0.0093,-0.9406,1367.43,-31.25,-1392.52
17890,-3.8740,0.0081,-0.9399,1195.56,-390.62,1623.11
17900,-3.8740,0.0059,-0.9397,1039.31,-312.50,482.48
17910,-3.8741,0.0044,-0.9407,758.06,-281.25,-470.64
17920,-3.8741,0.0057,-0.9408,570.56,-406.25,-1064.39
17930,-3.8741,0.0038,-0.9395,742.43,-421.88,-1517.52
17940,-3.8741,-0.0049,-0.9382,492.43,-250.00,-1923.77
17950,-3.8741,-0.0162,-0.9365,-616.94,-78.19,1873.11
17960,-3.8741,-0.0260,-0.9348,1929.93,140.56,1810.67
17970,-3.8741,-0.0292,-0.9351,679.93,359.31,1841.92
17980,-3.8741,-0.0266,-0.9379,273.68,328.06,1951.29
17990,-3.8741,-0.0222,-0.9431,601.81,-31.31,1779.36
18000,-3.8741,-0.0194,-0.9512,1164.31,-703.19,1044.98
18010,-3.8743,-0.0250,-0.9624,1523.68,-1734.44,-64.39
18020,-3.8743,-0.0400,-0.9761,804.93,828.06,-1455.02
18030,-3.8743,-0.0551,-0.9895,-1116.94,-922.00,1341.80
18040,-3.8743,-0.0621,-0.9961,961.18,1359.25,966.80
18050,-3.8743,-0.0582,-0.9899,54.93,515.50,1419.92
18060,-3.8743,-0.0436,-0.9717,554.93,1312.38,-1580.08
18070,-3.8743,-0.0245,-0.9476,-1570.07,-359.50,-111.33
18080,-3.8741,-0.0088,-0.9249,867.43,-1281.31,1701.23
18090,-3.8741,0.0015,-0.9100,-1116.94,1624.94,-439.33
18100,-3.8740,0.0063,-0.9023,195.56,-484.38,1232.54
18110,-3.8740,0.0090,-0.8953,820.56,500.00,-1345.52
18120,-3.8740,0.0143,-0.8890,1164.31,1406.25,-220.52
18130,-3.8739,0.0189,-0.8903,1836.18,-1796.88,310.73
18140,-3.8740,0.0156,-0.9043,-1570.07,-1953.12,-189.27
18150,-3.8740,0.0029,-0.9282,-1991.94,250.00,-1814.27
18160,-3.8741,-0.0189,-0.9541,383.06,1187.50,-376.83
18170,-3.8741,-0.0459,-0.9802,1586.18,1890.56,498.11
18180,-3.8743,-0.0669,-1.0062,-1866.94,-1453.25,1248.05
18190,-3.8744,-0.0715,-1.0256,-554.44,-781.43,-1502.01
18200,-3.8744,-0.0570,-1.0308,-1148.19,734.19,951.11
18210,-3.8744,-0.0269,-1.0193,711.18,78.00,310.49
18220,-3.8744,0.0095,-1.0000,570.56,1546.81,138.61
18230,-3.8744,0.0394,-0.9836,1226.81,0.00,1498.05
18240,-3.8743,0.0536,-0.9642,1054.93,-1906.19,716.80
18250,-3.8741,0.0492,-0.9398,-1132.57,578.19,513.73
18260,-3.8741,0.0349,-0.9250,-1695.07,-296.81,-1.89
18270,-3.8740,0.0220,-0.9265,476.81,1593.81,-908.08
18280,-3.8739,0.0101,-0.9359,-1179.44,1406.25,-1986.21
18290,-3.8738,-0.0071,-0.9452,1304.93,203.12,451.29
18300,-3.8738,-0.0282,-0.9520,-898.19,-968.81,1966.86
18310,-3.8738,-0.0464,-0.9556,398.68,-1843.81,-1501.89
18320,-3.8738,-0.0619,-0.9576,-1929.44,1703.00,-1970.64
18330,-3.8738,-0.0771,-0.9594,86.18,1437.38,685.61
18340,-3.8739,-0.0895,-0.9609,-1866.94,1218.57,-1205.02
18350,-3.8739,-0.0936,-0.9645,554.93,1015.44,654.36
18360,-3.8740,-0.0867,-0.9728,23.68,562.32,-1564.39
18370,-3.8740,-0.0687,-0.9829,914.31,-500.18,357.42
18380,-3.8741,-0.0419,-0.9874,-788.82,-1797.06,-1095.70
18390,-3.8741,-0.0146,-0.9833,-1351.32,1624.88,-1830.08
18400,-3.8741,0.0016,-0.9761,-1866.94,-1843.81,1935.55
18410,-3.8741,0.0056,-0.9708,211.18,-937.50,-1705.08
18420,-3.8741,0.0045,-0.9650,726.81,-265.62,-876.95
18430,-3.8741,0.0010,-0.9573,586.18,484.38,-1.89
18440,-3.8740,-0.0055,-0.9525,133.06,1468.75,638.73
18450,-3.8740,-0.0121,-0.9515,-695.07,-1906.31,1123.11
18460,-3.8740,-0.0181,-0.9508,-1538.82,-1781.31,1341.86
18470,-3.8740,-0.0288,-0.9486,1695.56,-1687.56,841.86
18480,-3.8741,-0.0443,-0.9469,320.56,-1406.31,-455.02
18490,-3.8741,-0.0597,-0.9492,-1663.82,-1187.62,1904.36
18500,-3.8741,-0.0691,-0.9590,367.43,-1484.50,451.23
18510,-3.8743,-0.0687,-0.9736,-835.69,1265.44,-33.14
18520,-3.8741,-0.0596,-0.9817,-788.82,-609.56,607.42
18530,-3.8741,-0.0452,-0.9747,383.06,-1640.75,1607.42
18540,-3.8741,-0.0333,-0.9591,-1773.19,-750.12,-1220.70
18550,-3.8740,-0.0312,-0.9448,-257.57,1249.88,185.61
18560,-3.8740,-0.0385,-0.9368,8.06,-921.94,1701.23
18570,-3.8740,-0.0482,-0.9353,-913.82,109.25,-845.58
18580,-3.8739,-0.0529,-0.9377,1836.18,296.75,310.67
18590,-3.8739,-0.0488,-0.9418,1242.43,-15.75,873.11
18600,-3.8739,-0.0417,-0.9423,1758.06,-531.37,716.86
18610,-3.8740,-0.0371,-0.9355,-1335.69,-593.87,-314.39
18620,-3.8740,-0.0371,-0.9285,-741.94,265.50,1935.67
18630,-3.8741,-0.0427,-0.9264,-741.94,1171.75,-142.46
18640,-3.8741,-0.0490,-0.9301,-1460.69,1437.38,1591.92
18650,-3.8743,-0.0491,-0.9393,1742.43,968.63,-439.33
18660,-3.8743,-0.0406,-0.9542,1726.81,-218.87,-1923.77
18670,-3.8743,-0.0250,-0.9713,-1195.07,1874.88,1435.61
18680,-3.8743,-0.0059,-0.9778,804.93,-312.56,1873.05
18690,-3.8743,0.0114,-0.9702,-741.94,-1140.69,-1142.58
18700,-3.8743,0.0229,-0.9585,1461.18,-187.50,-189.45
18710,-3.8741,0.0272,-0.9476,-1054.44,1312.50,638.73
18720,-3.8741,0.0229,-0.9424,-507.57,-1296.88,1123.11
18730,-3.8741,0.0104,-0.9479,-1054.44,-625.00,1154.36
18740,-3.8741,-0.0039,-0.9601,1336.18,-1328.12,779.36
18750,-3.8741,-0.0118,-0.9729,-491.94,1124.94,44.98
18760,-3.8743,-0.0135,-0.9825,-1507.57,-515.69,-1001.95
18770,-3.8743,-0.0118,-0.9888,-1726.32,-1750.06,1779.30
18780,-3.8743,-0.0101,-0.9904,-1507.57,1453.06,623.05
18790,-3.8744,-0.0128,-0.9860,-1288.82,1249.94,-345.70
18800,-3.8744,-0.0175,-0.9821,-1632.57,1812.44,-955.08
18810,-3.8744,-0.0175,-0.9839,1773.68,-1687.56,-1033.20
18820,-3.8744,-0.0087,-0.9874,1773.68,-1921.94,-439.45
18830,-3.8743,0.0099,-0.9897,-1101.32,1624.94,904.30
18840,-3.8743,0.0305,-0.9863,1273.68,1312.50,-1595.70
18850,-3.8743,0.0416,-0.9723,-85.69,1750.00,-736.33
18860,-3.8743,0.0386,-0.9575,1336.18,-453.06,-736.33
18870,-3.8743,0.0247,-0.9540,945.56,1437.56,-1345.64
18880,-3.8743,0.0072,-0.9617,-835.69,1890.62,1873.11
18890,-3.8743,-0.0011,-0.9716,929.93,906.25,1373.11
18900,-3.8743,0.0071,-0.9797,-132.57,-343.81,1388.67
18910,-3.8743,0.0248,-0.9851,914.31,-1406.25,1998.05
18920,-3.8743,0.0437,-0.9800,-820.07,1906.25,-923.83
18930,-3.8741,0.0587,-0.9666,1601.81,-1437.44,576.17
18940,-3.8741,0.0643,-0.9562,-476.32,281.31,-1267.52
18950,-3.8740,0.0625,-0.9507,242.43,1609.50,1732.48
18960,-3.8739,0.0623,-0.9452,8.06,-1687.38,982.48
18970,-3.8739,0.0693,-0.9395,-23.19,-984.31,-111.27
18980,-3.8738,0.0807,-0.9364,883.06,-249.88,-1720.64
18990,-3.8738,0.0903,-0.9370,-1663.82,140.75,-95.58
19000,-3.8737,0.0968,-0.9374,-429.44,62.62,826.29
19010,-3.8737,0.1019,-0.9352,398.68,15.81,1357.54
19020,-3.8737,0.1028,-0.9396,1054.93,297.06,1482.54
19030,-3.8737,0.0957,-0.9521,1164.31,-265.44,1529.36
19040,-3.8737,0.0836,-0.9611,258.06,-1874.82,1669.98
19050,-3.8737,0.0708,-0.9603,-1288.82,984.50,1357.48
19060,-3.8737,0.0571,-0.9570,1070.56,1078.25,435.61
19070,-3.8738,0.0402,-0.9562,-679.44,1500.06,-751.89
19080,-3.8738,0.0221,-0.9554,1148.68,1609.44,-1845.64
19090,-3.8738,0.0067,-0.9540,-1163.82,1703.12,1201.23
19100,-3.8738,-0.0026,-0.9515,867.43,1890.62,185.61
19110,-3.8739,-0.0029,-0.9502,-320.07,-1781.31,-814.39
19120,-3.8739,0.0052,-0.9489,-366.94,-1609.44,-1298.77
19130,-3.8739,0.0166,-0.9418,679.93,-1453.12,-1345.64
19140,-3.8739,0.0250,-0.9316,-1866.94,-546.88,-1376.89
19150,-3.8739,0.0276,-0.9227,-788.82,750.00,-1470.58
19160,-3.8739,0.0242,-0.9175,-460.69,1890.62,-1673.71
19170,-3.8739,0.0166,-0.9194,-898.19,-1437.50,1841.92
19180,-3.8739,0.0088,-0.9259,-1866.94,-1687.50,1185.67
19190,-3.8739,0.0032,-0.9329,1133.06,1484.38,310.67
19200,-3.8740,0.0012,-0.9437,414.31,593.75,-845.58
19210,-3.8740,0.0039,-0.9567,164.31,-796.88,-1548.77
19220,-3.8740,0.0134,-0.9651,508.06,1546.88,-1314.39
19230,-3.8740,0.0291,-0.9679,1726.81,468.75,-611.27
19240,-3.8739,0.0444,-0.9636,-273.19,109.38,310.61
19250,-3.8739,0.0531,-0.9518,1695.56,656.31,1341.86
19260,-3.8739,0.0500,-0.9384,-1195.07,-1828.06,-1814.39
19270,-3.8739,0.0377,-0.9304,-1585.69,-109.31,-1173.77
19280,-3.8739,0.0232,-0.9308,836.18,906.31,-689.33
19290,-3.8739,0.0110,-0.9369,-1023.19,859.38,-329.96
19300,-3.8739,0.0031,-0.9425,1414.31,78.12,-95.58
19310,-3.8739,0.0005,-0.9448,398.68,-640.62,-33.14
19320,-3.8739,0.0018,-0.9448,70.56,-937.50,-330.02
19330,-3.8739,0.0029,-0.9452,242.43,-937.50,-923.77
19340,-3.8739,0.0022,-0.9467,383.06,-984.38,-1392.52
19350,-3.8739,0.0001,-0.9454,289.31,-1171.88,-1814.39
19360,-3.8739,-0.0039,-0.9380,23.68,-1015.62,1576.23
19370,-3.8739,-0.0096,-0.9316,-491.94,-46.94,419.98
19380,-3.8740,-0.0176,-0.9371,-1226.32,765.56,-1470.58
19390,-3.8740,-0.0262,-0.9502,1758.06,62.44,357.54
19400,-3.8741,-0.0345,-0.9600,648.68,-1609.44,-1658.14
19410,-3.8741,-0.0432,-0.9645,-413.82,1140.50,716.86
19420,-3.8743,-0.0490,-0.9668,-1523.19,562.38,-251.89
19430,-3.8743,-0.0437,-0.9685,1742.43,265.50,-486.27
19440,-3.8743,-0.0223,-0.9713,-1585.69,46.75,-423.77
19450,-3.8743,0.0103,-0.9708,1148.68,-312.56,-173.83
19460,-3.8741,0.0427,-0.9658,1320.56,-265.62,419.92
19470,-3.8741,0.0670,-0.9584,1476.81,375.06,1169.98
19480,-3.8741,0.0767,-0.9462,586.18,1328.25,1716.86
19490,-3.8741,0.0682,-0.9353,1820.56,-1109.25,1763.73
19500,-3.8741,0.0502,-0.9364,742.43,281.37,1357.54
19510,-3.8741,0.0366,-0.9495,-1570.07,140.69,1060.67
19520,-3.8741,0.0311,-0.9636,695.56,-1531.19,1013.73
19530,-3.8741,0.0292,-0.9683,-7.57,656.25,935.61
19540,-3.8741,0.0271,-0.9634,-257.57,62.50,951.23
19550,-3.8741,0.0215,-0.9547,-523.19,687.50,1232.48
19560,-3.8741,0.0101,-0.9452,-1241.94,1796.88,1919.98
19570,-3.8741,-0.0037,-0.9406,1304.93,-984.38,-1033.14
19580,-3.8740,-0.0112,-0.9453,-460.69,-375.06,560.61
19590,-3.8740,-0.0063,-0.9502,-1429.44,-984.44,-1220.64
19600,-3.8739,0.0092,-0.9474,-804.44,-1609.44,982.48
19610,-3.8739,0.0273,-0.9404,1179.93,-1265.62,-1408.14
19620,-3.8739,0.0424,-0.9362,-491.94,-375.00,-470.64
19630,-3.8738,0.0514,-0.9375,1429.93,171.94,107.54
19640,-3.8738,0.0535,-0.9419,-1413.82,0.06,388.79
19650,-3.8738,0.0511,-0.9473,-1148.19,-562.44,326.23
19660,-3.8739,0.0469,-0.9520,-1445.07,-1249.94,-64.39
19670,-3.8739,0.0428,-0.9562,-1991.94,-1859.31,-876.89
19680,-3.8739,0.0400,-0.9592,1492.43,1609.44,-1845.64
19690,-3.8739,0.0374,-0.9619,1133.06,1218.81,1169.98
19700,-3.8739,0.0343,-0.9659,789.31,875.06,76.23
19710,-3.8740,0.0315,-0.9650,398.68,359.44,-798.77
19720,-3.8740,0.0289,-0.9589,39.31,484.44,-1517.52
19730,-3.8740,0.0270,-0.9558,-288.82,1265.62,1857.48
19740,-3.8740,0.0272,-0.9572,-538.82,1656.25,1669.98
19750,-3.8740,0.0314,-0.9590,-507.57,1484.38,1841.86
19760,-3.8740,0.0409,-0.9587,23.68,1250.06,-1861.27
19770,-3.8740,0.0514,-0.9556,1242.43,1281.31,-1595.64
19780,-3.8740,0.0547,-0.9485,-1413.82,1687.56,-1564.39
19790,-3.8740,0.0472,-0.9418,-991.94,-1406.19,1998.11
19800,-3.8740,0.0323,-0.9408,-1945.07,-546.81,998.11
19810,-3.8741,0.0153,-0.9467,148.68,-421.81,-361.27
19820,-3.8741,0.0002,-0.9561,1961.18,-1171.88,-1955.02
19830,-3.8741,-0.0042,-0.9624,39.31,1625.00,513.73
19840,-3.8743,0.0043,-0.9656,-523.19,828.06,-439.39
19850,-3.8743,0.0190,-0.9659,554.93,406.25,-736.27
19860,-3.8743,0.0353,-0.9617,-1554.44,359.38,-673.77
19870,-3.8743,0.0507,-0.9535,523.68,906.31,-345.64
19880,-3.8741,0.0581,-0.9446,-1507.57,1953.19,107.48
19890,-3.8741,0.0548,-0.9407,-554.44,-906.19,373.11
19900,-3.8741,0.0459,-0.9454,-976.32,-406.19,357.48
19910,-3.8741,0.0385,-0.9552,1883.06,-1015.56,482.48
19920,-3.8741,0.0376,-0.9623,929.93,1734.44,841.86
19930,-3.8741,0.0413,-0.9612,820.56,828.19,1154.36
19940,-3.8741,0.0432,-0.9542,1289.31,968.81,1279.36
19950,-3.8741,0.0396,-0.9509,1539.31,1859.44,1263.73
19960,-3.8741,0.0309,-0.9570,1070.56,-1718.69,1482.48
19970,-3.8741,0.0197,-0.9686,-38.82,1500.00,1998.11
19980,-3.8741,0.0114,-0.9795,-1476.32,15.62,-1142.52
19990,-3.8740,0.0099,-0.9835,1461.18,-1375.00,91.80
20000,-3.8740,0.0140,-0.9794,1273.68,-1890.62,1654.30
20010,-3.8740,0.0209,-0.9730,1804.93,-1359.38,-798.83
20020,-3.8739,0.0275,-0.9657,-1320.07,-546.88,451.17
20030,-3.8739,0.0328,-0.9572,-476.32,390.62,1373.11
20040,-3.8739,0.0356,-0.9525,211.18,1484.44,1998.11
20050,-3.8739,0.0349,-0.9517,570.56,-1921.81,-1673.77
20060,-3.8739,0.0309,-0.9517,476.81,-1812.44,-1751.89
20070,-3.8739,0.0248,-0.9541,-38.82,-1812.50,1732.48
20080,-3.8739,0.0184,-0.9575,-820.07,1875.00,1154.36
20090,-3.8739,0.0138,-0.9570,-1632.57,1437.50,826.23
20100,-3.8739,0.0089,-0.9507,1773.68,1500.00,201.23
20110,-3.8740,-0.0004,-0.9420,1148.68,-1687.50,-1126.89
20120,-3.8740,-0.0160,-0.9368,-38.82,-562.56,998.11
20130,-3.8741,-0.0365,-0.9415,1961.18,109.31,-1142.46
20140,-3.8741,-0.0532,-0.9532,-663.82,-500.12,841.86
20150,-3.8743,-0.0571,-0.9625,1195.56,1999.88,-908.14
20160,-3.8743,-0.0492,-0.9679,695.56,812.38,1560.61
20170,-3.8743,-0.0355,-0.9716,1711.18,124.88,482.48
20180,-3.8744,-0.0178,-0.9724,-538.82,-343.87,-33.20
20190,-3.8744,-0.0023,-0.9702,1726.81,-453.19,-251.95
20200,-3.8744,0.0046,-0.9651,-288.82,-171.94,-95.70
20210,-3.8743,0.0048,-0.9596,601.81,468.75,966.86
20220,-3.8743,0.0000,-0.9551,617.43,1171.88,-1017.52
20230,-3.8741,-0.0054,-0.9501,8.06,1750.00,1263.73
20240,-3.8741,-0.0054,-0.9457,-679.44,-1593.81,-908.14
20250,-3.8740,-0.0005,-0.9451,-679.44,-1031.31,591.86
20260,-3.8740,0.0066,-0.9484,-54.44,-953.19,1982.48
20270,-3.8740,0.0127,-0.9507,851.81,-1390.62,-1111.27
20280,-3.8740,0.0155,-0.9501,1633.06,-1687.50,-908.14
20290,-3.8740,0.0149,-0.9486,1992.43,-1609.38,-1470.64
20300,-3.8740,0.0127,-0.9476,1914.31,-1421.88,1419.98
20310,-3.8741,0.0125,-0.9497,1633.06,-1296.88,-236.27
20320,-3.8741,0.0153,-0.9564,1601.81,-1562.50,1623.11
20330,-3.8743,0.0165,-0.9658,1961.18,1578.12,-455.02
20340,-3.8743,0.0162,-0.9771,-1882.57,375.00,1794.98
20350,-3.8743,0.0167,-0.9862,-1913.82,-1062.50,435.55
20360,-3.8744,0.0168,-0.9866,-1851.32,1765.62,-173.83
20370,-3.8744,0.0190,-0.9802,-1835.69,1718.75,-33.20
20380,-3.8743,0.0249,-0.9738,-1554.44,-1468.75,732.42
20390,-3.8743,0.0314,-0.9669,-804.44,-640.62,1935.55
20400,-3.8743,0.0349,-0.9592,23.68,234.44,-580.02
20410,-3.8741,0.0355,-0.9537,476.81,1218.81,1201.23
20420,-3.8741,0.0345,-0.9486,554.93,1921.94,-798.77
20430,-3.8740,0.0326,-0.9437,429.93,-1421.81,935.61
20440,-3.8740,0.0292,-0.9418,179.93,-796.81,-1845.64
20450,-3.8740,0.0237,-0.9407,-257.57,-546.88,-1048.77
20460,-3.8740,0.0192,-0.9396,-960.69,-406.25,-658.14
20470,-3.8740,0.0198,-0.9412,-1538.82,-265.62,-720.64
20480,-3.8740,0.0245,-0.9457,-1460.69,-468.75,-1267.52
20490,-3.8740,0.0306,-0.9519,-851.32,-1046.88,1935.61
20500,-3.8740,0.0371,-0.9575,-70.07,-1843.75,1060.61
20510,-3.8741,0.0381,-0.9622,758.06,1437.56,-95.64
20520,-3.8741,0.0314,-0.9684,883.06,843.81,-1330.02
20530,-3.8741,0.0234,-0.9751,23.68,46.94,1732.48
20540,-3.8741,0.0189,-0.9781,-991.94,-812.50,998.05
20550,-3.8741,0.0175,-0.9747,-1570.07,-1203.12,373.05
20560,-3.8743,0.0198,-0.9659,-1757.57,-765.62,-17.58
20570,-3.8743,0.0247,-0.9598,-1460.69,359.38,-283.14
20580,-3.8743,0.0289,-0.9603,-835.69,1140.62,-298.77
20590,-3.8741,0.0322,-0.9640,-288.82,1078.12,76.23
20600,-3.8741,0.0360,-0.9668,133.06,609.44,654.36
20610,-3.8741,0.0405,-0.9661,617.43,250.06,1310.61
20620,-3.8741,0.0439,-0.9609,1195.56,343.81,1935.61
20630,-3.8741,0.0459,-0.9554,1633.06,1000.06,-1408.14
20640,-3.8741,0.0465,-0.9489,1883.06,1703.19,-673.77
20650,-3.8741,0.0432,-0.9393,1961.18,-1453.06,-80.02
20660,-3.8740,0.0332,-0.9336,1539.31,-234.31,123.11
20670,-3.8740,0.0182,-0.9368,258.06,500.06,138.79
20680,-3.8740,0.0033,-0.9459,-1663.82,93.75,170.04
20690,-3.8740,-0.0057,-0.9523,429.93,-1078.12,294.98
20700,-3.8740,-0.0052,-0.9529,-726.32,-1875.06,498.11
20710,-3.8740,0.0048,-0.9508,-663.82,-1953.19,544.98
20720,-3.8740,0.0182,-0.9508,617.43,-1703.12,232.48
20730,-3.8741,0.0277,-0.9561,-1663.82,-1703.12,-1.89
20740,-3.8740,0.0342,-0.9623,-445.07,1625.00,201.23
20750,-3.8740,0.0398,-0.9712,383.06,828.19,732.48
20760,-3.8740,0.0448,-0.9749,1101.81,-312.44,1216.80
20770,-3.8740,0.0490,-0.9626,1742.43,-781.19,1482.42
20780,-3.8740,0.0485,-0.9489,-1726.32,781.31,1248.11
20790,-3.8740,0.0430,-0.9436,-1788.82,-1453.06,451.23
20800,-3.8741,0.0360,-0.9448,1508.06,-781.19,-455.02
20810,-3.8741,0.0289,-0.9532,617.43,-937.44,-1126.89
20820,-3.8741,0.0223,-0.9705,-288.82,1984.38,-1392.52
20830,-3.8741,0.0190,-0.9891,-1132.57,-218.75,-1267.58
20840,-3.8741,0.0234,-0.9996,-1554.44,1390.62,-658.20
20850,-3.8740,0.0339,-1.0010,-991.94,46.88,482.42
20860,-3.8740,0.0438,-0.9922,351.81,-124.94,-1783.26
20870,-3.8739,0.0490,-0.9725,1617.43,1000.06,326.17
20880,-3.8739,0.0449,-0.9503,-1726.32,-484.31,-1580.08
20890,-3.8738,0.0345,-0.9349,1758.06,-1640.56,357.48
20900,-3.8738,0.0249,-0.9277,429.93,328.19,-1829.96
20910,-3.8738,0.0212,-0.9240,-804.44,1250.00,-361.21
20920,-3.8737,0.0242,-0.9191,-1273.19,1734.38,388.79
20930,-3.8737,0.0284,-0.9154,-898.19,-1640.62,341.92
20940,-3.8738,0.0275,-0.9176,-351.32,-1171.88,-423.71
20950,-3.8738,0.0192,-0.9238,-476.32,-1453.12,-1798.71
20960,-3.8738,0.0060,-0.9326,-1538.82,1750.00,232.54
20970,-3.8739,-0.0087,-0.9438,773.68,625.00,1841.92
20980,-3.8740,-0.0201,-0.9556,-1101.32,-796.94,-611.27
20990,-3.8740,-0.0259,-0.9669,1429.93,1703.06,1091.86
21000,-3.8741,-0.0284,-0.9779,695.56,249.94,-908.14
21010,-3.8741,-0.0317,-0.9819,367.43,-1156.31,1169.92
21020,-3.8743,-0.0364,-0.9730,-54.44,-1672.00,-611.33
21030,-3.8743,-0.0422,-0.9601,-648.19,-531.37,-1751.95
21040,-3.8743,-0.0458,-0.9540,-1398.19,1124.88,1982.48
21050,-3.8743,-0.0408,-0.9518,-1851.32,1906.13,-1767.52
21060,-3.8743,-0.0293,-0.9438,-1210.69,-1812.62,-1673.77
21070,-3.8743,-0.0229,-0.9320,258.06,-796.94,1857.48
21080,-3.8743,-0.0298,-0.9299,1070.56,718.69,841.92
21090,-3.8744,-0.0439,-0.9409,195.56,984.31,-79.96
21100,-3.8744,-0.0557,-0.9561,-1616.94,-422.00,-548.77
21110,-3.8744,-0.0609,-0.9641,883.06,1640.50,-783.14
21120,-3.8744,-0.0582,-0.9613,211.18,609.25,-830.02
21130,-3.8744,-0.0493,-0.9535,554.93,968.63,-533.14
21140,-3.8743,-0.0381,-0.9460,1695.56,1968.63,294.98
21150,-3.8743,-0.0271,-0.9421,-866.94,-1078.25,1732.48
21160,-3.8743,-0.0159,-0.9419,539.31,-578.19,-158.14
21170,-3.8741,-0.0051,-0.9438,1976.81,-546.94,-1595.64
21180,-3.8740,0.0017,-0.9468,-648.19,-796.94,904.36
21190,-3.8740,0.0042,-0.9496,226.81,-1187.50,-720.64
21200,-3.8739,0.0063,-0.9551,539.31,-1546.88,1576.23
21210,-3.8739,0.0125,-0.9634,820.56,1750.00,-220.64
21220,-3.8738,0.0236,-0.9673,1601.81,687.50,-1939.39
21230,-3.8737,0.0372,-0.9624,-976.32,187.50,435.61
21240,-3.8737,0.0458,-0.9534,773.68,812.56,-1580.02
21250,-3.8737,0.0449,-0.9451,1867.43,1968.81,-251.89
21260,-3.8735,0.0376,-0.9392,1758.06,-968.69,466.86
21270,-3.8735,0.0262,-0.9387,820.56,-218.69,560.61
21280,-3.8735,0.0135,-0.9436,-632.57,-156.25,91.86
21290,-3.8737,0.0057,-0.9485,1742.43,-781.25,-720.64
21300,-3.8737,0.0049,-0.9525,742.43,-1406.25,-1845.64
21310,-3.8737,0.0089,-0.9572,633.06,-1921.88,654.36
21320,-3.8738,0.0161,-0.9581,1148.68,1484.38,-830.02
21330,-3.8738,0.0240,-0.9519,-1929.44,1359.38,-1892.52
21340,-3.8738,0.0303,-0.9407,-913.82,-1843.75,1107.48
21350,-3.8739,0.0344,-0.9297,-116.94,-406.25,-64.39
21360,-3.8739,0.0341,-0.9238,414.31,1000.06,-1267.46
21370,-3.8739,0.0283,-0.9281,367.43,1750.06,1529.42
21380,-3.8739,0.0212,-0.9419,-366.94,1203.12,498.17
21390,-3.8740,0.0135,-0.9531,-1273.19,-562.50,-330.02
21400,-3.8740,0.0020,-0.9536,1742.43,-2000.00,-1142.52
21410,-3.8740,-0.0135,-0.9485,258.06,1937.50,1841.86
21420,-3.8740,-0.0282,-0.9462,-1726.32,-1390.69,951.23
21430,-3.8740,-0.0342,-0.9491,398.68,-1093.81,560.61
21440,-3.8740,-0.0272,-0.9531,-366.94,-1468.87,544.98
21450,-3.8740,-0.0104,-0.9547,523.68,-1984.44,654.36
21460,-3.8740,0.0111,-0.9523,-1320.07,1812.44,685.61
21470,-3.8740,0.0282,-0.9473,1429.93,-1890.62,529.36
21480,-3.8740,0.0338,-0.9459,-382.57,-1250.00,169.98
21490,-3.8741,0.0286,-0.9530,336.18,-1078.06,-298.77
21500,-3.8741,0.0188,-0.9646,-335.69,-1984.38,-611.27
21510,-3.8741,0.0120,-0.9756,-1585.69,531.25,-814.39
21520,-3.8741,0.0116,-0.9836,1539.31,-875.00,-861.33
21530,-3.8741,0.0192,-0.9833,1492.43,-1906.25,-533.20
21540,-3.8740,0.0326,-0.9727,-1538.82,-1859.38,263.67
21550,-3.8740,0.0466,-0.9603,179.93,-499.94,1404.30
21560,-3.8740,0.0577,-0.9515,1976.81,1078.19,-1220.64
21570,-3.8739,0.0645,-0.9452,-601.32,-1796.81,185.61
21580,-3.8739,0.0674,-0.9408,258.06,-984.25,1388.73
21590,-3.8739,0.0668,-0.9379,633.06,-421.75,-1845.64
21600,-3.8739,0.0605,-0.9349,554.93,-46.75,-1548.77
21610,-3.8739,0.0475,-0.9336,-241.94,328.19,-1689.33
21620,-3.8739,0.0305,-0.9371,-1913.82,500.06,1685.67
21630,-3.8739,0.0161,-0.9445,-85.69,46.88,716.92
21640,-3.8740,0.0099,-0.9512,-1929.44,-890.62,-64.39
21650,-3.8740,0.0118,-0.9515,1273.68,-1750.00,-455.02
21660,-3.8740,0.0206,-0.9454,1523.68,-1796.88,-626.89
21670,-3.8740,0.0328,-0.9398,-1351.32,-1015.62,-876.89
21680,-3.8740,0.0420,-0.9377,211.18,-296.81,-970.64
21690,-3.8740,0.0448,-0.9384,1383.06,-31.19,-751.89
21700,-3.8740,0.0414,-0.9419,1742.43,-109.31,-689.39
21710,-3.8740,0.0327,-0.9458,1304.93,-562.44,-923.77
21720,-3.8740,0.0210,-0.9485,195.56,-1062.44,-1173.77
21730,-3.8740,0.0115,-0.9515,-1304.44,-1406.25,-1345.64
21740,-3.8740,0.0082,-0.9535,1476.81,-1796.88,-1533.14
21750,-3.8740,0.0103,-0.9526,1054.93,1953.12,-1673.77
21760,-3.8740,0.0137,-0.9515,1320.56,-1937.50,-1783.14
21770,-3.8740,0.0164,-0.9523,1758.06,-1796.88,-1923.77
21780,-3.8740,0.0166,-0.9532,-1898.19,-1890.62,1888.73
21790,-3.8740,0.0144,-0.9545,-1866.94,1984.38,1576.23
21800,-3.8740,0.0161,-0.9573,1851.81,1828.12,1294.98
21810,-3.8740,0.0256,-0.9618,-1929.44,1468.75,1060.61
21820,-3.8740,0.0396,-0.9673,-710.69,890.62,763.73
21830,-3.8740,0.0535,-0.9714,1070.56,187.56,607.48
21840,-3.8740,0.0624,-0.9714,-1148.19,-343.69,404.30
21850,-3.8741,0.0620,-0.9686,-7.57,-343.69,-283.20
21860,-3.8741,0.0529,-0.9683,-54.44,15.69,-1439.39
21870,-3.8741,0.0422,-0.9709,-1226.32,62.56,1466.86
21880,-3.8741,0.0364,-0.9739,1414.31,-281.19,748.05
21890,-3.8741,0.0360,-0.9753,664.31,-656.19,435.55
21900,-3.8741,0.0392,-0.9720,617.43,-843.69,623.05
21910,-3.8741,0.0430,-0.9644,1023.68,-421.81,1201.17
21920,-3.8741,0.0454,-0.9575,1508.06,562.56,1779.36
21930,-3.8741,0.0446,-0.9548,1820.56,1437.56,-1611.27
21940,-3.8741,0.0414,-0.9563,1711.18,1781.31,-767.52
21950,-3.8740,0.0382,-0.9579,1304.93,1593.81,263.73
21960,-3.8740,0.0359,-0.9543,898.68,1390.69,1294.98
21970,-3.8740,0.0334,-0.9468,601.81,1843.81,-1908.14
21980,-3.8740,0.0298,-0.9403,289.31,-1187.44,-1455.02
21990,-3.8740,0.0288,-0.9385,-179.44,-359.38,-1001.89
22000,-3.8740,0.0342,-0.9425,-304.44,-125.00,-314.39
22010,-3.8739,0.0420,-0.9501,383.06,-640.56,341.86
22020,-3.8739,0.0475,-0.9554,1383.06,-1609.31,685.61
22030,-3.8739,0.0474,-0.9565,-1913.82,1703.19,623.11
22040,-3.8739,0.0400,-0.9542,-1929.44,1562.56,138.73
22050,-3.8740,0.0282,-0.9532,1133.06,1859.44,-720.64
22060,-3.8740,0.0183,-0.9565,-382.57,1984.38,-1564.39
22070,-3.8740,0.0172,-0.9595,-1648.19,1562.50,1982.48
22080,-3.8740,0.0270,-0.9602,-1788.82,1187.50,1841.86
22090,-3.8740,0.0388,-0.9585,-538.82,1093.75,1560.61
22100,-3.8740,0.0422,-0.9553,976.81,1312.56,966.86
22110,-3.8740,0.0359,-0.9539,1414.31,1718.81,373.11
22120,-3.8741,0.0254,-0.9552,601.81,1906.31,-64.39
22130,-3.8741,0.0166,-0.9590,-741.94,1734.38,-392.52
22140,-3.8741,0.0142,-0.9603,-1866.94,1250.00,-642.52
22150,-3.8741,0.0172,-0.9564,1820.56,1078.12,-830.02
22160,-3.8741,0.0201,-0.9509,-1788.82,1578.12,-908.14
22170,-3.8741,0.0221,-0.9467,-1413.82,-1718.75,-923.77
22180,-3.8741,0.0250,-0.9442,-1163.82,-1171.88,-892.52
22190,-3.8741,0.0280,-0.9446,-788.82,-859.38,-783.14
22200,-3.8741,0.0308,-0.9458,-413.82,-906.25,-658.14
22210,-3.8741,0.0347,-0.9470,-54.44,-1062.50,-658.14
22220,-3.8741,0.0382,-0.9497,445.56,-1218.69,-783.14
22230,-3.8741,0.0389,-0.9510,898.68,-1562.44,-892.52
22240,-3.8741,0.0367,-0.9479,992.43,-1734.31,-892.52
22250,-3.8741,0.0321,-0.9429,711.18,-1328.06,-783.14
22260,-3.8741,0.0259,-0.9412,117.43,-687.44,-798.77
22270,-3.8741,0.0205,-0.9435,-679.44,-468.75,-908.14
22280,-3.8741,0.0176,-0.9434,-1366.94,-765.62,-1033.14
22290,-3.8741,0.0171,-0.9406,-1741.94,-750.00,-1158.14
22300,-3.8741,0.0172,-0.9409,-1804.44,-390.62,-1330.02
22310,-3.8741,0.0192,-0.9440,-1788.82,-437.50,-1298.77
22320,-3.8741,0.0238,-0.9496,-1538.82,-828.12,-1189.39
22330,-3.8741,0.0288,-0.9556,-945.07,-1546.88,-876.89
22340,-3.8741,0.0342,-0.9581,-304.44,1687.50,-64.39
22350,-3.8740,0.0388,-0.9576,383.06,1359.44,841.86
22360,-3.8740,0.0410,-0.9542,976.81,1421.94,1779.36
22370,-3.8740,0.0411,-0.9519,1258.06,1859.44,-1298.77
22380,-3.8740,0.0419,-0.9554,1273.68,-1843.69,-330.02
22390,-3.8739,0.0457,-0.9615,1367.43,1703.19,919.98
22400,-3.8739,0.0544,-0.9686,1851.81,921.94,-1658.14
22410,-3.8739,0.0677,-0.9738,-1023.19,15.69,-455.02
22420,-3.8738,0.0817,-0.9713,679.93,-640.50,560.55
22430,-3.8738,0.0925,-0.9633,-1538.82,-328.00,1404.30
22440,-3.8738,0.0955,-0.9563,-148.19,703.25,1826.23
22450,-3.8738,0.0891,-0.9536,226.81,1593.93,1935.61
22460,-3.8738,0.0770,-0.9551,-585.69,1937.62,1857.48
22470,-3.8738,0.0649,-0.9567,1867.43,1750.12,1576.23
22480,-3.8738,0.0554,-0.9542,320.56,1547.00,1279.36
22490,-3.8738,0.0487,-0.9500,-898.19,1859.44,1044.98
22500,-3.8738,0.0436,-0.9478,-1757.57,-1593.69,701.23
22510,-3.8738,0.0378,-0.9471,1586.18,-1312.44,373.11
22520,-3.8738,0.0317,-0.9481,851.81,-1234.31,216.86
22530,-3.8738,0.0266,-0.9490,70.56,-1359.31,310.61
22540,-3.8738,0.0222,-0.9473,-585.69,-1468.75,701.23
22550,-3.8738,0.0189,-0.9440,-1148.19,-1250.00,1154.36
22560,-3.8738,0.0179,-0.9419,-1570.07,-828.12,1466.86
22570,-3.8738,0.0168,-0.9430,-1695.07,-562.50,1560.61
22580,-3.8738,0.0139,-0.9451,-1835.69,-703.12,1373.11
22590,-3.8738,0.0103,-0.9479,1789.31,-968.75,857.48
22600,-3.8738,0.0077,-0.9512,1320.56,-1328.12,123.11
22610,-3.8739,0.0105,-0.9510,992.43,-1750.00,-533.14
22620,-3.8739,0.0184,-0.9476,1351.81,-1734.38,-1142.52
22630,-3.8739,0.0242,-0.9452,-1632.57,-1296.88,-1986.27
22640,-3.8739,0.0240,-0.9448,-898.19,-984.38,1107.48
22650,-3.8739,0.0232,-0.9497,-913.82,-937.50,373.11
22660,-3.8740,0.0253,-0.9573,-1023.19,-1562.50,-111.27
22670,-3.8740,0.0342,-0.9622,-757.57,1468.75,-220.64
22680,-3.8740,0.0535,-0.9629,383.06,843.81,-80.02
22690,-3.8739,0.0767,-0.9567,-1148.19,750.06,138.73
22700,-3.8739,0.0944,-0.9468,1820.56,1547.00,76.23
22710,-3.8740,0.1019,-0.9393,86.18,-1187.32,-470.64
22720,-3.8740,0.0984,-0.9387,1054.93,-234.19,-1330.02
22730,-3.8740,0.0868,-0.9473,601.81,-156.07,1763.73
22740,-3.8740,0.0720,-0.9581,-882.57,-1249.88,669.98
22750,-3.8741,0.0566,-0.9645,1226.81,1359.50,-892.52
22760,-3.8741,0.0403,-0.9653,-741.94,546.94,1279.36
22770,-3.8743,0.0206,-0.9609,1164.31,437.56,-626.89
22780,-3.8743,-0.0043,-0.9546,-1351.32,1000.00,1607.48
22790,-3.8743,-0.0291,-0.9517,-538.82,1828.06,373.11
22800,-3.8744,-0.0476,-0.9507,289.31,-1796.94,-189.39
22810,-3.8744,-0.0583,-0.9484,1914.31,-1672.00,-205.02
22820,-3.8744,-0.0630,-0.9464,539.31,-1375.12,-220.64
22830,-3.8744,-0.0645,-0.9436,-54.44,-1125.18,-455.02
22840,-3.8744,-0.0667,-0.9407,-241.94,-765.81,-564.39
22850,-3.8744,-0.0720,-0.9440,-523.19,-390.81,-361.27
22860,-3.8743,-0.0792,-0.9534,-1210.69,-812.68,263.73
