timestamp_ms,ax,ay,az,gx,gy,gz
0,-3.8711,0.0824,0.0333,-1710.69,-765.50,-1812.50
10,-3.8711,0.0851,0.0374,-1445.07,265.75,-1515.56
20,-3.8711,0.0876,0.0359,-1101.32,781.37,-1796.81
30,-3.8711,0.0897,0.0323,-773.19,593.87,1609.44
40,-3.8711,0.0894,0.0267,-507.57,140.75,1093.81
50,-3.8711,0.0869,0.0186,-554.44,-578.00,609.38
60,-3.8711,0.0856,0.0111,-866.94,-1624.88,359.38
70,-3.8711,0.0867,0.0043,-1038.82,1422.00,531.25
80,-3.8711,0.0912,-0.0029,-898.19,547.00,906.25
90,-3.8711,0.1003,-0.0061,-320.07,-374.88,1296.81
100,-3.8711,0.1106,-0.0043,851.81,-781.07,1406.19
110,-3.8711,0.1165,-0.0031,-1835.69,-546.69,1359.31
120,-3.8711,0.1161,-0.0051,-1085.69,-390.44,1546.81
130,-3.8711,0.1121,-0.0103,-1132.57,-656.07,1906.19
140,-3.8711,0.1102,-0.0116,-1648.19,-1312.32,-1875.06
150,-3.8711,0.1094,-0.0070,-1882.57,-1484.19,1921.81
160,-3.8711,0.1066,-0.0045,-1991.94,-890.44,1328.06
170,-3.8711,0.1012,-0.0074,1648.68,-577.94,656.19
180,-3.8712,0.0936,-0.0125,961.18,-952.94,-93.81
190,-3.8712,0.0865,-0.0156,-7.57,-1593.63,-984.44
200,-3.8712,0.0820,-0.0182,-913.82,-1999.88,-1953.19
210,-3.8712,0.0797,-0.0219,-1491.94,1672.00,1218.69
220,-3.8712,0.0806,-0.0232,-1788.82,1203.25,984.31
230,-3.8712,0.0844,-0.0216,-1679.44,1031.37,1359.31
240,-3.8712,0.0878,-0.0206,-1195.07,1234.50,-1906.31
250,-3.8712,0.0895,-0.0201,-757.57,1359.50,-984.44
260,-3.8711,0.0865,-0.0195,-538.82,1422.00,62.44
270,-3.8711,0.0784,-0.0204,-913.82,1500.12,1124.94
280,-3.8711,0.0712,-0.0232,-1960.69,1390.75,-1859.44
290,-3.8711,0.0693,-0.0277,1117.43,1031.37,-781.31
300,-3.8710,0.0743,-0.0342,883.06,453.25,421.81
310,-3.8710,0.0857,-0.0387,1523.68,-374.88,1828.00
320,-3.8710,0.0977,-0.0383,-1023.19,-953.00,-531.37
330,-3.8708,0.1050,-0.0337,508.06,-906.07,874.88
340,-3.8708,0.1078,-0.0260,1445.56,-312.32,1968.63
350,-3.8708,0.1073,-0.0165,1804.93,672.06,-921.94
360,-3.8707,0.1040,-0.0076,1742.43,1890.81,374.94
370,-3.8707,0.0991,-0.0026,1320.56,-968.57,1890.56
380,-3.8707,0.0957,-0.0040,695.56,-327.94,-750.06
390,-3.8706,0.0973,-0.0076,258.06,-515.44,265.56
400,-3.8706,0.1045,-0.0056,461.18,-968.57,828.06
410,-3.8706,0.1128,0.0005,1383.06,-718.57,874.94
420,-3.8706,0.1146,0.0048,-1554.44,62.68,546.88
430,-3.8707,0.1069,0.0039,-1320.07,609.56,-218.75
440,-3.8707,0.0933,-0.0046,1695.56,500.18,-1343.75
450,-3.8707,0.0814,-0.0160,-54.44,-593.63,1499.94
460,-3.8707,0.0778,-0.0175,-1570.07,1953.25,640.56
470,-3.8707,0.0808,-0.0087,1961.18,1765.75,203.06
480,-3.8708,0.0861,0.0001,-1648.19,-1109.25,-62.56
490,-3.8708,0.0905,0.0031,-976.32,15.75,-437.50
500,-3.8708,0.0897,0.0004,-413.82,390.75,-1250.00
510,-3.8708,0.0815,-0.0037,-507.57,47.00,1093.75
520,-3.8710,0.0679,-0.0122,-1554.44,-468.63,-1437.56
530,-3.8711,0.0562,-0.0282,695.56,-1562.38,-343.81
540,-3.8711,0.0542,-0.0449,-804.44,390.69,734.31
550,-3.8712,0.0616,-0.0573,-1054.44,-1749.94,1843.63
560,-3.8713,0.0742,-0.0665,-101.32,671.94,-968.87
570,-3.8713,0.0886,-0.0750,1508.06,-515.50,718.57
580,-3.8715,0.1022,-0.0803,-648.19,-1593.63,-703.31
590,-3.8715,0.1115,-0.0837,1086.18,1718.93,-1625.18
600,-3.8715,0.1143,-0.0886,-1726.32,1281.43,1515.44
610,-3.8715,0.1145,-0.0948,-1366.94,656.43,609.19
620,-3.8716,0.1158,-0.0996,-1335.69,-140.44,-562.74
630,-3.8716,0.1187,-0.1022,-1163.82,-749.82,-1843.99
640,-3.8716,0.1232,-0.1055,-804.44,-1077.94,1265.38
650,-3.8716,0.1279,-0.1084,-226.32,-1499.82,952.88
660,-3.8716,0.1276,-0.1082,383.06,-1874.76,952.88
670,-3.8716,0.1168,-0.1056,336.18,-1843.51,1046.63
680,-3.8716,0.1036,-0.1071,-1038.82,-1515.44,1109.13
690,-3.8716,0.1008,-0.1117,1273.68,-1702.94,1281.01
700,-3.8716,0.1068,-0.1110,914.31,1703.31,1624.76
710,-3.8716,0.1133,-0.1093,1679.93,1797.06,1984.13
720,-3.8716,0.1174,-0.1135,-1491.94,-1984.19,-1703.37
730,-3.8716,0.1179,-0.1196,-960.69,1468.93,-1265.87
740,-3.8716,0.1134,-0.1205,-898.19,687.68,-578.37
750,-3.8715,0.1067,-0.1157,-1476.32,578.31,171.63
760,-3.8715,0.0997,-0.1099,1664.31,1187.68,749.76
770,-3.8715,0.0922,-0.1071,773.68,1937.68,1031.01
780,-3.8715,0.0846,-0.1090,-195.07,-1703.00,1202.88
790,-3.8715,0.0793,-0.1149,-1163.82,-1953.00,1546.63
800,-3.8715,0.0759,-0.1196,-1835.69,1297.00,-1797.12
810,-3.8715,0.0717,-0.1205,1726.81,687.62,-1234.62
820,-3.8715,0.0640,-0.1245,1179.93,578.25,-922.12
830,-3.8715,0.0546,-0.1345,195.56,62.62,-328.37
840,-3.8713,0.0519,-0.1376,-1007.57,-1218.69,765.32
850,-3.8713,0.0580,-0.1292,-1351.32,-1609.31,-1687.81
860,-3.8713,0.0675,-0.1193,-570.07,-531.19,-78.43
870,-3.8712,0.0752,-0.1149,648.68,734.50,1109.13
880,-3.8712,0.0797,-0.1161,1633.06,1297.00,1843.51
890,-3.8712,0.0818,-0.1190,-1788.82,1140.75,-1843.99
900,-3.8712,0.0828,-0.1238,-1523.19,765.75,-1437.74
910,-3.8712,0.0873,-0.1298,-1398.19,156.37,-672.12
920,-3.8711,0.0955,-0.1317,-820.07,-609.25,30.94
930,-3.8711,0.1038,-0.1300,226.81,-859.19,327.82
940,-3.8711,0.1094,-0.1282,1289.31,-640.44,140.32
950,-3.8712,0.1094,-0.1277,-1991.94,-406.07,-187.81
960,-3.8712,0.1040,-0.1277,-1991.94,-343.57,-422.18
970,-3.8712,0.0981,-0.1279,1320.56,-343.57,-469.06
980,-3.8712,0.0950,-0.1284,570.56,-374.82,-281.56
990,-3.8711,0.0973,-0.1256,164.31,-437.32,312.19
1000,-3.8711,0.1016,-0.1218,461.18,-77.94,874.69
1010,-3.8711,0.1038,-0.1217,1008.06,406.43,1093.51
1020,-3.8711,0.1045,-0.1217,1289.31,422.06,1156.01
1030,-3.8711,0.1045,-0.1200,1383.06,422.06,1140.38
1040,-3.8711,0.1050,-0.1194,1383.06,640.81,937.26
1050,-3.8711,0.1075,-0.1191,1445.56,718.93,640.38
1060,-3.8711,0.1080,-0.1195,1773.68,750.18,202.88
1070,-3.8712,0.1027,-0.1213,1836.18,703.31,-500.24
1080,-3.8712,0.0964,-0.1235,1148.68,468.93,-1140.87
1090,-3.8712,0.0930,-0.1234,351.81,187.68,-1390.87
1100,-3.8712,0.0912,-0.1190,-85.69,203.25,-1484.62
1110,-3.8712,0.0886,-0.1140,-320.07,765.75,-1515.87
1120,-3.8712,0.0852,-0.1149,-648.19,1406.37,-1703.37
1130,-3.8712,0.0817,-0.1199,-1085.69,1297.00,1968.51
1140,-3.8712,0.0780,-0.1240,-1538.82,656.37,1640.38
1150,-3.8712,0.0735,-0.1299,1992.43,125.12,1093.51
1160,-3.8712,0.0706,-0.1367,1414.31,-624.88,718.44
1170,-3.8712,0.0769,-0.1360,1039.31,-1499.88,1359.07
1180,-3.8712,0.0953,-0.1273,1851.81,-1406.13,-1187.81
1190,-3.8711,0.1184,-0.1217,211.18,-296.69,218.44
1200,-3.8711,0.1354,-0.1249,-835.69,422.06,1140.38
1210,-3.8711,0.1411,-0.1328,1336.18,15.87,1343.51
1220,-3.8711,0.1361,-0.1375,-1929.44,-999.76,1202.82
1230,-3.8711,0.1239,-0.1356,1429.93,-1593.51,968.44
1240,-3.8711,0.1100,-0.1316,-132.57,-1359.19,499.69
1250,-3.8711,0.0992,-0.1296,-1913.82,-843.57,62.19
1260,-3.8712,0.0961,-0.1292,711.18,-593.57,-140.93
1270,-3.8712,0.1016,-0.1287,304.93,-531.07,-47.18
1280,-3.8711,0.1127,-0.1278,1008.06,-468.57,30.94
1290,-3.8712,0.1235,-0.1270,-1570.07,-359.19,-328.43
1300,-3.8712,0.1263,-0.1274,-179.44,-249.82,-1422.18
1310,-3.8712,0.1204,-0.1320,179.93,-312.26,874.69
1320,-3.8713,0.1107,-0.1385,-585.69,-890.44,-1125.31
1330,-3.8713,0.1018,-0.1440,-1820.07,-1734.19,827.82
1340,-3.8715,0.0955,-0.1492,1039.31,1562.68,-906.56
1350,-3.8715,0.0939,-0.1519,226.81,906.43,1968.44
1360,-3.8715,0.0973,-0.1481,23.68,562.68,1687.19
1370,-3.8715,0.1060,-0.1382,461.18,1047.06,-1656.56
1380,-3.8715,0.1176,-0.1233,1570.56,-1687.32,-453.43
1390,-3.8713,0.1233,-0.1113,-945.07,218.93,515.38
1400,-3.8713,0.1169,-0.1149,-210.69,1750.18,515.38
1410,-3.8715,0.1012,-0.1359,-1023.19,1297.06,-593.99
1420,-3.8715,0.0852,-0.1591,961.18,-1390.44,1984.07
1430,-3.8715,0.0765,-0.1664,-1085.69,-359.25,968.38
1440,-3.8715,0.0776,-0.1614,1804.93,-1296.75,484.01
1450,-3.8715,0.0885,-0.1575,1945.56,-656.13,687.13
1460,-3.8715,0.1057,-0.1583,-663.82,-156.13,1796.51
1470,-3.8715,0.1238,-0.1600,1539.31,-265.44,-94.12
1480,-3.8713,0.1385,-0.1561,-148.19,-484.19,-1359.74
1490,-3.8712,0.1442,-0.1482,1742.43,15.87,1296.57
1500,-3.8712,0.1378,-0.1417,-1538.82,1031.49,-515.93
1510,-3.8711,0.1239,-0.1367,1648.68,1859.62,1030.94
1520,-3.8711,0.1084,-0.1335,-132.57,-1499.82,-1828.43
1530,-3.8711,0.0991,-0.1317,1883.06,-1093.57,-890.93
1540,-3.8711,0.1008,-0.1300,695.56,-859.19,-47.18
1550,-3.8710,0.1096,-0.1255,914.31,-640.44,937.19
1560,-3.8710,0.1187,-0.1183,-1960.69,-62.32,1718.44
1570,-3.8710,0.1230,-0.1145,-804.44,859.56,-1953.37
1580,-3.8710,0.1217,-0.1139,-241.94,1343.93,-1750.24
1590,-3.8710,0.1165,-0.1122,-413.82,1422.06,-1625.24
1600,-3.8710,0.1117,-0.1100,-1085.69,1640.81,-1625.24
1610,-3.8710,0.1113,-0.1080,-1695.07,1922.06,-1609.62
1620,-3.8710,0.1127,-0.1071,-1741.94,-1827.94,-1593.99
1630,-3.8710,0.1116,-0.1077,-1570.07,-1702.94,-1687.74
1640,-3.8710,0.1079,-0.1094,-1710.69,-1781.07,1952.88
1650,-3.8710,0.1025,-0.1110,1820.56,-1999.82,1343.51
1660,-3.8710,0.0974,-0.1125,1133.06,1797.06,531.01
1670,-3.8711,0.0953,-0.1138,476.81,1593.93,-390.87
1680,-3.8711,0.0963,-0.1134,211.18,1437.68,-1359.62
1690,-3.8711,0.0981,-0.1121,336.18,1484.56,1687.26
1700,-3.8711,0.0988,-0.1112,570.56,1656.43,890.38
1710,-3.8711,0.0977,-0.1106,648.68,1765.81,265.38
1720,-3.8712,0.0950,-0.1094,508.06,1843.93,-125.24
1730,-3.8712,0.0896,-0.1080,164.31,-1999.82,-500.24
1740,-3.8712,0.0819,-0.1106,-523.19,-1828.00,-1109.62
1750,-3.8712,0.0757,-0.1146,-1507.57,1843.87,-1765.87
1760,-3.8712,0.0752,-0.1139,1695.56,1328.25,1718.51
1770,-3.8712,0.0809,-0.1117,1633.06,1422.00,1406.01
1780,-3.8712,0.0906,-0.1110,-1632.57,1703.25,1577.88
1790,-3.8712,0.0981,-0.1119,-398.19,1797.00,1921.63
1800,-3.8712,0.0994,-0.1154,570.56,1672.06,1874.76
1810,-3.8712,0.0952,-0.1191,726.81,1234.56,1437.26
1820,-3.8712,0.0897,-0.1223,195.56,750.18,827.88
1830,-3.8712,0.0865,-0.1234,-507.57,343.87,296.63
1840,-3.8712,0.0880,-0.1228,-913.82,203.25,46.63
1850,-3.8712,0.0930,-0.1234,-726.32,281.37,327.88
1860,-3.8712,0.1011,-0.1226,-85.69,203.25,1171.63
1870,-3.8712,0.1101,-0.1201,945.56,312.68,-1828.37
1880,-3.8712,0.1162,-0.1202,-1898.19,625.18,-1000.24
1890,-3.8712,0.1171,-0.1228,-1116.94,609.56,-515.87
1900,-3.8712,0.1119,-0.1271,-1007.57,281.43,-656.49
1910,-3.8712,0.1027,-0.1335,-1663.82,-265.44,-1578.43
1920,-3.8712,0.0938,-0.1409,1148.68,-1093.57,1109.07
1930,-3.8712,0.0895,-0.1476,8.06,1968.93,171.57
1940,-3.8712,0.0933,-0.1477,-538.82,1109.50,234.07
1950,-3.8712,0.1041,-0.1382,-54.44,1093.87,1327.82
1960,-3.8712,0.1169,-0.1267,1336.18,-1687.32,-1109.68
1970,-3.8711,0.1244,-0.1207,-1023.19,-218.57,312.19
1980,-3.8711,0.1211,-0.1232,-70.07,547.06,1093.51
1990,-3.8711,0.1117,-0.1317,-491.94,234.56,1109.13
2000,-3.8711,0.1056,-0.1383,-1695.07,-859.19,827.82
2010,-3.8711,0.1060,-0.1377,1523.68,-1702.94,624.69
2020,-3.8711,0.1074,-0.1320,1570.56,-1624.82,687.19
2030,-3.8711,0.1062,-0.1240,1758.06,-890.44,890.32
2040,-3.8711,0.1035,-0.1193,1601.81,125.18,765.38
2050,-3.8711,0.1002,-0.1201,1258.06,734.56,265.38
2060,-3.8712,0.0977,-0.1250,836.18,625.18,-406.49
2070,-3.8712,0.0978,-0.1316,508.06,0.18,-1062.74
2080,-3.8712,0.1000,-0.1370,523.68,-843.57,-1484.68
2090,-3.8712,0.1010,-0.1385,804.93,-1531.07,-1594.06
2100,-3.8712,0.1007,-0.1357,929.93,-1734.19,-1562.81
2110,-3.8712,0.1011,-0.1307,898.68,-1374.82,-1640.93
2120,-3.8712,0.1001,-0.1282,945.56,-734.19,1968.44
2130,-3.8712,0.0961,-0.1317,820.56,-406.07,1249.69
2140,-3.8712,0.0908,-0.1377,304.93,-859.19,484.07
2150,-3.8713,0.0873,-0.1400,-366.94,-1624.88,-172.18
2160,-3.8713,0.0854,-0.1388,-820.07,-1921.75,-890.93
2170,-3.8713,0.0836,-0.1377,-1054.44,-1765.50,-1672.18
2180,-3.8713,0.0812,-0.1375,-1288.82,-1624.88,1749.69
2190,-3.8713,0.0778,-0.1373,-1601.32,-1593.63,1421.57
2200,-3.8713,0.0767,-0.1385,1961.18,-1578.00,1452.82
2210,-3.8713,0.0815,-0.1393,1820.56,-1734.25,-1953.43
2220,-3.8713,0.0914,-0.1372,-1554.44,-1828.00,-594.06
2230,-3.8712,0.1022,-0.1328,-288.82,-1562.38,1249.69
2240,-3.8712,0.1134,-0.1289,1086.18,-999.82,-1109.68
2250,-3.8712,0.1254,-0.1290,-1476.32,-499.82,-31.56
2260,-3.8711,0.1333,-0.1295,54.93,-515.38,421.57
2270,-3.8711,0.1321,-0.1270,1070.56,-577.88,327.82
2280,-3.8711,0.1189,-0.1301,914.31,-249.76,77.82
2290,-3.8712,0.0978,-0.1385,-773.19,-656.07,-297.18
2300,-3.8712,0.0797,-0.1384,523.68,-1734.19,-812.81
2310,-3.8712,0.0743,-0.1283,-1788.82,-1718.63,-1047.18
2320,-3.8712,0.0809,-0.1168,1523.68,-421.75,-140.93
2330,-3.8711,0.0898,-0.1090,-1632.57,1047.00,1593.51
2340,-3.8711,0.0978,-0.1085,-491.94,-1953.00,-1234.62
2350,-3.8711,0.1068,-0.1158,523.68,-1890.44,-1218.99
2360,-3.8711,0.1132,-0.1251,1679.93,1172.06,1906.01
2370,-3.8711,0.1116,-0.1312,-1507.57,-15.44,390.32
2380,-3.8712,0.1051,-0.1351,-1710.69,-796.69,-1406.56
2390,-3.8712,0.1003,-0.1364,1461.18,-1296.69,1062.19
2400,-3.8712,0.0994,-0.1359,851.81,-1452.94,155.94
2410,-3.8712,0.1017,-0.1373,726.81,-1390.44,46.57
2420,-3.8712,0.1069,-0.1387,1023.68,-1577.94,780.94
2430,-3.8712,0.1141,-0.1355,1695.56,-1749.82,-1953.43
2440,-3.8712,0.1195,-0.1287,-1382.57,-1343.57,-656.56
2450,-3.8711,0.1198,-0.1251,-695.07,-468.57,296.57
2460,-3.8711,0.1162,-0.1279,-663.82,-15.44,530.94
2470,-3.8712,0.1099,-0.1353,-1116.94,-374.82,-187.81
2480,-3.8712,0.1034,-0.1411,-1929.44,-1312.32,-1672.18
2490,-3.8712,0.0991,-0.1420,1242.43,1937.68,734.07
2500,-3.8713,0.0948,-0.1417,695.56,1828.31,-359.68
2510,-3.8713,0.0916,-0.1471,148.68,1859.56,-765.93
2520,-3.8713,0.0942,-0.1561,-273.19,1172.00,-234.68
2530,-3.8712,0.1014,-0.1576,70.56,15.81,905.94
2540,-3.8712,0.1073,-0.1504,992.43,-171.69,1624.63
2550,-3.8712,0.1095,-0.1471,1742.43,750.18,1609.07
2560,-3.8712,0.1083,-0.1530,-1976.32,1172.06,1202.82
2570,-3.8712,0.1044,-0.1600,1867.43,422.06,734.07
2580,-3.8712,0.1008,-0.1608,1367.43,-484.19,421.51
2590,-3.8712,0.1017,-0.1547,914.31,-577.94,609.01
2600,-3.8712,0.1066,-0.1442,1023.68,203.31,1452.82
2610,-3.8712,0.1084,-0.1333,1648.68,1547.06,-1312.81
2620,-3.8712,0.1038,-0.1276,1883.06,-1062.32,-187.81
2630,-3.8711,0.0945,-0.1304,1289.31,-327.94,327.82
2640,-3.8711,0.0841,-0.1383,101.81,-687.32,62.19
2650,-3.8712,0.0759,-0.1451,-1226.32,-1703.00,-781.56
2660,-3.8712,0.0724,-0.1495,1726.81,1422.00,-1765.93
2670,-3.8712,0.0747,-0.1511,1273.68,859.50,1640.32
2680,-3.8712,0.0818,-0.1488,1570.56,656.37,1687.19
2690,-3.8712,0.0916,-0.1434,-1523.19,953.25,-1547.18
2700,-3.8712,0.0994,-0.1348,-273.19,1640.75,-531.56
2710,-3.8711,0.1007,-0.1260,726.81,-1249.82,109.07
2720,-3.8711,0.0948,-0.1262,898.68,-124.82,109.07
2730,-3.8712,0.0865,-0.1355,148.68,-156.07,-312.81
2740,-3.8712,0.0824,-0.1423,-913.82,-1343.63,-703.43
2750,-3.8712,0.0852,-0.1399,-1445.07,1781.37,-875.31
2760,-3.8712,0.0924,-0.1335,-1085.69,-1906.13,-797.18
2770,-3.8712,0.0996,-0.1334,-163.82,-1093.63,-812.81
2780,-3.8712,0.1038,-0.1394,758.06,-1077.94,-1172.18
2790,-3.8712,0.1056,-0.1464,1289.31,-1843.57,-1906.56
2800,-3.8712,0.1077,-0.1515,1523.68,1265.81,1249.69
2810,-3.8712,0.1127,-0.1516,1789.31,609.56,827.82
2820,-3.8712,0.1150,-0.1478,-1570.07,593.93,1046.57
2830,-3.8712,0.1104,-0.1439,-1273.19,1078.31,1671.57
2840,-3.8712,0.1106,-0.1406,-1866.94,1578.31,-1469.06
2850,-3.8712,0.1198,-0.1389,-1835.69,-1999.82,-578.43
2860,-3.8711,0.1268,-0.1376,-663.82,-1781.07,140.32
2870,-3.8711,0.1288,-0.1342,242.43,-1609.13,359.07
2880,-3.8711,0.1285,-0.1316,492.43,-1171.63,202.82
2890,-3.8712,0.1278,-0.1331,461.18,-843.51,-78.43
2900,-3.8712,0.1287,-0.1357,367.43,-1031.01,-344.06
2910,-3.8712,0.1309,-0.1372,476.81,-1374.76,-422.18
2920,-3.8712,0.1342,-0.1390,758.06,-1562.26,-484.68
2930,-3.8712,0.1392,-0.1416,1179.93,-1796.63,-547.18
2940,-3.8712,0.1425,-0.1449,1820.56,1875.24,-797.18
2950,-3.8712,0.1418,-0.1493,-1757.57,1453.37,-1375.31
2960,-3.8712,0.1393,-0.1520,-1835.69,890.87,-1953.43
2970,-3.8712,0.1385,-0.1522,1836.18,547.12,1530.94
2980,-3.8712,0.1445,-0.1503,1742.43,515.87,1155.94
2990,-3.8712,0.1593,-0.1450,-1491.94,765.87,1265.32
3000,-3.8712,0.1779,-0.1394,398.68,1437.81,1577.82
3010,-3.8712,0.1924,-0.1392,-1226.32,-1843.44,1515.32
3020,-3.8712,0.2018,-0.1426,633.06,-1812.13,1218.44
3030,-3.8712,0.2061,-0.1475,1836.18,1750.37,609.07
3040,-3.8713,0.2021,-0.1544,-1616.94,1125.37,-500.31
3050,-3.8713,0.1912,-0.1599,1883.06,234.74,-1672.18
3060,-3.8713,0.1758,-0.1598,476.81,-468.38,1655.88
3070,-3.8713,0.1602,-0.1541,-1491.94,-452.82,1624.63
3080,-3.8713,0.1479,-0.1469,508.06,281.56,1952.82
3090,-3.8713,0.1381,-0.1405,-1054.44,1203.37,-1562.81
3100,-3.8713,0.1265,-0.1343,1679.93,-1984.13,-875.31
3110,-3.8713,0.1129,-0.1288,195.56,-1187.26,-187.81
3120,-3.8712,0.1017,-0.1257,-1538.82,-484.19,312.19
3130,-3.8712,0.0935,-0.1250,1023.68,-93.57,702.82
3140,-3.8712,0.0848,-0.1266,-23.19,0.12,1109.13
3150,-3.8712,0.0756,-0.1274,-1132.57,-203.00,1577.82
3160,-3.8712,0.0674,-0.1255,1679.93,-312.38,1999.69
3170,-3.8712,0.0591,-0.1226,633.06,-62.38,-1640.93
3180,-3.8712,0.0514,-0.1200,-429.44,312.56,-1203.37
3190,-3.8712,0.0453,-0.1190,-1413.82,640.69,-593.99
3200,-3.8711,0.0411,-0.1179,1804.93,765.69,77.88
3210,-3.8711,0.0394,-0.1147,1273.68,906.31,671.63
3220,-3.8711,0.0377,-0.1122,1054.93,1312.56,1062.26
3230,-3.8711,0.0359,-0.1129,836.18,1640.69,1202.88
3240,-3.8711,0.0349,-0.1139,601.81,1546.94,1218.51
3250,-3.8711,0.0345,-0.1132,476.81,1421.94,1327.88
3260,-3.8711,0.0350,-0.1129,429.93,1515.69,1624.76
3270,-3.8711,0.0376,-0.1130,492.43,1546.94,1984.13
3280,-3.8711,0.0402,-0.1124,820.56,1531.31,-1578.37
3290,-3.8711,0.0409,-0.1115,1148.68,1609.44,-1250.24
3300,-3.8711,0.0420,-0.1099,1242.43,1734.44,-1047.12
3310,-3.8711,0.0435,-0.1102,1383.06,1937.56,-906.49
3320,-3.8711,0.0472,-0.1110,1570.56,1890.69,-718.99
3330,-3.8711,0.0531,-0.1084,-1945.07,1796.94,-375.24
3340,-3.8711,0.0562,-0.1064,-1195.07,-1874.94,-156.49
3350,-3.8711,0.0553,-0.1083,-804.44,-1624.94,-250.24
3360,-3.8711,0.0537,-0.1118,-913.82,-1859.31,-625.24
3370,-3.8711,0.0535,-0.1157,-1116.94,1687.56,-1328.37
3380,-3.8711,0.0552,-0.1205,-1148.19,1187.56,1718.51
3390,-3.8711,0.0601,-0.1241,-929.44,578.19,921.63
3400,-3.8711,0.0675,-0.1240,-304.44,109.44,656.01
3410,-3.8711,0.0746,-0.1206,648.68,125.12,906.01
3420,-3.8711,0.0786,-0.1157,1554.93,562.62,1281.01
3430,-3.8711,0.0792,-0.1116,-1929.44,1187.62,1484.13
3440,-3.8711,0.0785,-0.1127,-1851.32,1718.87,1468.51
3450,-3.8711,0.0770,-0.1190,-1945.07,1578.25,1140.38
3460,-3.8711,0.0739,-0.1273,1867.43,765.75,421.63
3470,-3.8712,0.0709,-0.1354,1461.18,-296.75,-578.43
3480,-3.8712,0.0709,-0.1414,1086.18,-1328.00,-1687.81
3490,-3.8712,0.0735,-0.1421,1086.18,1906.37,1405.94
3500,-3.8712,0.0787,-0.1375,1414.31,1812.62,921.57
3510,-3.8712,0.0856,-0.1318,-1913.82,-1593.63,780.94
3520,-3.8712,0.0909,-0.1282,-1038.82,-874.88,827.82
3530,-3.8712,0.0934,-0.1284,-351.32,-406.13,890.32
3540,-3.8712,0.0930,-0.1339,-38.82,-437.38,562.19
3550,-3.8713,0.0931,-0.1388,-85.69,-1140.50,-31.56
3560,-3.8713,0.0946,-0.1395,-70.07,-1765.50,-672.18
3570,-3.8713,0.0974,-0.1385,117.43,-1859.19,-1312.81
3580,-3.8713,0.1021,-0.1377,476.81,-1734.19,-1734.68
3590,-3.8713,0.1072,-0.1410,1070.56,-1624.82,-1906.56
3600,-3.8713,0.1135,-0.1479,1726.81,1953.31,-1890.93
3610,-3.8713,0.1205,-0.1542,-1460.69,1062.68,-1625.31
3620,-3.8713,0.1239,-0.1587,-570.07,265.81,-1203.43
3630,-3.8713,0.1251,-0.1610,-132.57,-312.32,-562.87
3640,-3.8712,0.1256,-0.1575,23.68,-609.13,437.13
3650,-3.8712,0.1235,-0.1482,86.18,-156.01,1452.76
3660,-3.8712,0.1201,-0.1399,-179.44,1031.43,-1656.56
3670,-3.8712,0.1163,-0.1355,-616.94,-1906.07,-812.81
3680,-3.8712,0.1111,-0.1345,-1101.32,-1343.57,-94.06
3690,-3.8711,0.1074,-0.1366,-1773.19,-1218.57,515.32
3700,-3.8711,0.1084,-0.1390,1758.06,-1484.19,718.44
3710,-3.8711,0.1116,-0.1412,1883.06,-1796.69,296.57
3720,-3.8712,0.1138,-0.1434,-1710.69,1922.06,-469.06
3730,-3.8712,0.1124,-0.1451,-1429.44,1640.81,-1234.68
3740,-3.8712,0.1061,-0.1451,-1601.32,1422.06,-1687.81
3750,-3.8712,0.0972,-0.1436,1586.18,1422.06,-1765.93
3760,-3.8712,0.0887,-0.1416,445.56,1625.18,-1547.18
3770,-3.8712,0.0846,-0.1396,-632.57,1875.12,-1078.43
3780,-3.8712,0.0857,-0.1360,-1163.82,-1874.88,-469.06
3790,-3.8711,0.0900,-0.1312,-1023.19,-1406.13,93.44
3800,-3.8711,0.0942,-0.1276,-476.32,-796.75,562.19
3810,-3.8711,0.0970,-0.1259,70.56,-327.94,952.82
3820,-3.8711,0.0983,-0.1262,429.93,-109.19,937.19
3830,-3.8711,0.0973,-0.1277,586.18,-156.07,624.69
3840,-3.8711,0.0933,-0.1302,461.18,-343.57,265.32
3850,-3.8712,0.0889,-0.1357,-54.44,-671.75,-390.93
3860,-3.8712,0.0867,-0.1417,-616.94,-1374.88,-1219.06
3870,-3.8712,0.0862,-0.1454,-898.19,1859.50,1984.07
3880,-3.8712,0.0868,-0.1461,-960.69,1390.75,1343.44
3890,-3.8712,0.0872,-0.1442,-882.57,1297.00,890.32
3900,-3.8712,0.0875,-0.1422,-835.69,1547.00,734.07
3910,-3.8712,0.0912,-0.1399,-788.82,1797.00,1109.07
3920,-3.8712,0.0972,-0.1377,-320.07,-1906.13,1765.32
3930,-3.8712,0.1024,-0.1376,445.56,-1624.82,-1719.06
3940,-3.8712,0.1062,-0.1394,1117.43,-1609.19,-1594.06
3950,-3.8712,0.1097,-0.1421,1601.81,-1843.57,-1734.68
3960,-3.8712,0.1144,-0.1432,-1945.07,1812.68,-1953.43
3970,-3.8712,0.1187,-0.1404,-1351.32,1672.06,1968.44
3980,-3.8712,0.1195,-0.1371,-804.44,-1968.57,-1969.06
3990,-3.8712,0.1157,-0.1360,-695.07,-1546.69,-1844.06
4000,-3.8712,0.1083,-0.1356,-1179.44,-1406.07,-1609.68
4010,-3.8712,0.1006,-0.1342,1867.43,-1359.19,-1234.68
4020,-3.8712,0.0970,-0.1310,883.06,-1171.69,-797.18
4030,-3.8712,0.0975,-0.1273,429.93,-765.44,-390.93
4040,-3.8711,0.1002,-0.1252,492.43,-296.69,30.94
4050,-3.8711,0.1047,-0.1254,836.18,-31.07,359.07
4060,-3.8711,0.1094,-0.1261,1414.31,-46.69,405.94
4070,-3.8711,0.1107,-0.1257,-1991.94,-140.44,109.07
4080,-3.8712,0.1084,-0.1268,-1820.07,-93.57,-359.68
4090,-3.8712,0.1047,-0.1290,1883.06,-234.19,-578.43
4100,-3.8712,0.1017,-0.1288,1414.31,-515.44,-375.31
4110,-3.8712,0.1012,-0.1272,1023.68,-484.19,-250.31
4120,-3.8712,0.1022,-0.1278,961.18,-281.07,-437.81
4130,-3.8712,0.1017,-0.1322,1086.18,-359.19,-844.06
4140,-3.8712,0.1001,-0.1376,1023.68,-921.69,-1531.56
4150,-3.8712,0.0999,-0.1411,820.56,-1609.19,1843.44
4160,-3.8712,0.1016,-0.1431,789.31,1937.68,1671.57
4170,-3.8712,0.1057,-0.1426,1008.06,1687.68,-1984.68
4180,-3.8712,0.1119,-0.1392,1539.31,1750.18,-1359.68
4190,-3.8712,0.1174,-0.1365,-1663.82,-1812.32,-656.56
4200,-3.8712,0.1218,-0.1362,-960.69,-1468.57,-265.93
4210,-3.8712,0.1271,-0.1377,-398.19,-1437.32,-453.43
4220,-3.8712,0.1311,-0.1394,273.68,-1624.76,-1109.68
4230,-3.8712,0.1306,-0.1417,789.31,-1843.51,-1875.31
4240,-3.8712,0.1265,-0.1434,726.81,1859.62,1765.32
4250,-3.8712,0.1205,-0.1411,195.56,1640.87,-1953.43
4260,-3.8712,0.1143,-0.1344,-570.07,1937.68,-1406.56
4270,-3.8712,0.1085,-0.1270,-1366.94,-1202.94,-828.43
4280,-3.8712,0.1030,-0.1238,1898.68,-249.82,-359.68
4290,-3.8712,0.0990,-0.1271,1195.56,156.43,-250.24
4300,-3.8712,0.0990,-0.1321,679.93,-265.44,-359.68
4310,-3.8712,0.1013,-0.1354,679.93,-906.07,-609.68
4320,-3.8712,0.1025,-0.1353,976.81,-1327.94,-1140.93
4330,-3.8712,0.1002,-0.1327,1133.06,-1312.32,-1797.18
4340,-3.8712,0.0948,-0.1332,836.18,-984.19,1624.69
4350,-3.8712,0.0916,-0.1342,148.68,-1046.69,1218.44
4360,-3.8712,0.0929,-0.1328,-273.19,-1171.75,1140.32
4370,-3.8712,0.0975,-0.1322,-101.32,-999.88,1437.19
4380,-3.8712,0.1039,-0.1301,492.43,-921.69,-1969.06
4390,-3.8712,0.1091,-0.1257,1304.93,-656.07,-1281.56
4400,-3.8712,0.1118,-0.1213,1976.81,-93.57,-859.68
4410,-3.8712,0.1123,-0.1182,-1679.44,468.93,-922.12
4420,-3.8712,0.1094,-0.1190,-1616.94,875.18,-1593.99
4430,-3.8712,0.1033,-0.1251,-1991.94,765.81,1202.88
4440,-3.8713,0.0963,-0.1344,1226.81,-15.44,-31.56
4450,-3.8713,0.0905,-0.1449,336.18,-1202.94,-1000.31
4460,-3.8713,0.0905,-0.1541,-413.82,1453.25,-1594.06
4470,-3.8713,0.0985,-0.1573,-413.82,281.37,-1547.18
4480,-3.8713,0.1102,-0.1514,617.43,-140.44,-875.37
4490,-3.8712,0.1189,-0.1411,-1882.57,625.18,124.69
4500,-3.8712,0.1202,-0.1359,-773.19,1937.68,1280.94
4510,-3.8712,0.1157,-0.1372,-601.32,-1390.44,-1406.56
4520,-3.8712,0.1095,-0.1390,-1179.44,-1562.32,-172.18
4530,-3.8711,0.1039,-0.1373,-1976.32,-1796.69,484.07
4540,-3.8711,0.0989,-0.1348,1304.93,-1577.94,171.57
4550,-3.8712,0.0935,-0.1345,664.31,-1249.82,-734.68
4560,-3.8712,0.0881,-0.1379,-23.19,-1218.63,-1515.93
4570,-3.8712,0.0856,-0.1458,-710.69,-1656.13,-1984.68
4580,-3.8712,0.0902,-0.1512,-1038.82,1343.87,1952.82
4590,-3.8712,0.0994,-0.1473,-445.07,640.75,-1656.56
4600,-3.8712,0.1063,-0.1382,726.81,1140.81,-1187.81
4610,-3.8712,0.1071,-0.1331,1617.43,-1687.32,-828.43
4620,-3.8712,0.1014,-0.1342,1711.18,-1031.07,-562.81
4630,-3.8712,0.0940,-0.1372,992.43,-1171.69,-234.68
4640,-3.8711,0.0913,-0.1381,39.31,-1562.32,62.19
4650,-3.8711,0.0945,-0.1378,-304.44,-1671.75,327.82
4660,-3.8711,0.1010,-0.1370,101.81,-1640.44,593.44
4670,-3.8711,0.1077,-0.1350,929.93,-1531.07,843.44
4680,-3.8711,0.1118,-0.1343,1789.31,-1281.07,952.82
4690,-3.8711,0.1118,-0.1338,-1679.44,-1187.32,796.57
4700,-3.8711,0.1085,-0.1298,-1679.44,-1124.82,343.44
4710,-3.8712,0.1029,-0.1260,1898.68,-609.19,-328.43
4720,-3.8712,0.0973,-0.1256,1179.93,-124.82,-969.06
4730,-3.8712,0.0934,-0.1279,461.18,-77.94,-1547.18
4740,-3.8712,0.0912,-0.1338,-38.82,-374.88,-1969.06
4750,-3.8712,0.0929,-0.1407,-320.07,-1124.88,-1922.18
4760,-3.8712,0.0990,-0.1423,-101.32,1984.50,-1422.18
4770,-3.8712,0.1067,-0.1377,679.93,1781.43,-609.68
4780,-3.8711,0.1132,-0.1315,1664.31,-1624.82,202.82
4790,-3.8711,0.1149,-0.1284,-1507.57,-827.94,749.69
4800,-3.8711,0.1101,-0.1296,-1288.82,-437.32,1140.32
4810,-3.8711,0.1021,-0.1327,-1898.19,-593.57,1202.82
4820,-3.8711,0.0936,-0.1359,1070.56,-984.19,780.94
4830,-3.8712,0.0850,-0.1373,-7.57,-1390.50,-62.81
4840,-3.8712,0.0793,-0.1368,-1116.94,-1578.00,-1172.18
4850,-3.8712,0.0789,-0.1365,-1835.69,-1515.50,1749.69
4860,-3.8712,0.0826,-0.1375,-1898.19,-1468.63,1140.32
4870,-3.8712,0.0881,-0.1378,-1413.82,-1593.63,843.44
4880,-3.8712,0.0927,-0.1361,-710.69,-1640.50,671.57
4890,-3.8712,0.0952,-0.1333,-132.57,-1421.75,718.44
4900,-3.8712,0.0958,-0.1324,195.56,-1062.32,796.57
4910,-3.8712,0.0952,-0.1346,273.68,-952.94,843.44
4920,-3.8712,0.0946,-0.1372,195.56,-1234.19,734.07
4930,-3.8712,0.0939,-0.1396,117.43,-1562.32,499.69
4940,-3.8712,0.0934,-0.1406,23.68,-1874.82,327.82
4950,-3.8712,0.0945,-0.1390,-38.82,-1999.88,265.32
4960,-3.8712,0.0968,-0.1382,101.81,-1796.69,265.32
4970,-3.8712,0.0999,-0.1383,398.68,-1687.32,343.44
4980,-3.8712,0.1013,-0.1400,789.31,-1702.94,624.69
4990,-3.8712,0.1023,-0.1431,976.81,-1921.69,999.69
5000,-3.8712,0.1049,-0.1444,1101.81,1687.68,1296.57
5010,-3.8712,0.1061,-0.1440,1429.93,1515.81,1468.44
5020,-3.8712,0.1056,-0.1439,1586.18,1562.68,1515.32
5030,-3.8712,0.1046,-0.1434,1523.68,1578.31,1702.82
5040,-3.8712,0.1046,-0.1392,1398.68,1640.81,-1812.81
5050,-3.8712,0.1050,-0.1323,1398.68,-1812.32,-1297.18
5060,-3.8712,0.1035,-0.1268,1445.56,-937.32,-1000.31
5070,-3.8712,0.0992,-0.1255,1258.06,-234.19,-937.81
5080,-3.8712,0.0935,-0.1301,711.18,-62.32,-1047.18
5090,-3.8712,0.0898,-0.1366,-23.19,-656.13,-1344.06
5100,-3.8712,0.0895,-0.1395,-491.94,-1484.25,-1547.18
5110,-3.8712,0.0907,-0.1393,-538.82,-1859.25,-1469.06
5120,-3.8712,0.0920,-0.1379,-382.57,-1828.00,-1062.81
5130,-3.8712,0.0918,-0.1356,-210.69,-1656.13,-531.56
5140,-3.8712,0.0901,-0.1340,-241.94,-1359.25,-172.18
5150,-3.8711,0.0898,-0.1329,-460.69,-1156.13,77.82
5160,-3.8711,0.0918,-0.1324,-491.94,-1015.50,249.69
5170,-3.8711,0.0950,-0.1331,-241.94,-953.00,468.44
5180,-3.8711,0.1002,-0.1316,164.31,-1031.07,765.32
5190,-3.8711,0.1049,-0.1267,836.18,-843.57,812.19
5200,-3.8711,0.1050,-0.1219,1429.93,-218.57,671.57
5210,-3.8711,0.0994,-0.1245,1445.56,390.81,577.88
5220,-3.8711,0.0916,-0.1339,726.81,62.68,374.76
5230,-3.8711,0.0870,-0.1421,-273.19,-1140.50,171.57
5240,-3.8711,0.0878,-0.1428,-851.32,1812.62,77.82
5250,-3.8712,0.0925,-0.1356,-757.57,1718.87,-47.18
5260,-3.8712,0.0979,-0.1268,-148.19,-1359.25,-156.56
5270,-3.8712,0.0986,-0.1221,539.31,-234.19,-219.06
5280,-3.8712,0.0947,-0.1219,633.06,375.18,-265.87
5290,-3.8712,0.0896,-0.1234,133.06,390.81,-468.99
5300,-3.8712,0.0854,-0.1255,-523.19,203.25,-781.49
5310,-3.8712,0.0841,-0.1294,-1054.44,-62.38,-1281.56
5320,-3.8712,0.0854,-0.1350,-1226.32,-562.38,1968.44
5330,-3.8712,0.0886,-0.1389,-1054.44,-1281.13,1280.94
5340,-3.8712,0.0933,-0.1372,-648.19,-1781.13,859.07
5350,-3.8712,0.0977,-0.1343,-54.44,-1562.38,655.94
5360,-3.8712,0.1003,-0.1339,508.06,-1187.32,796.57
5370,-3.8712,0.0992,-0.1349,851.81,-1140.44,1359.07
5380,-3.8712,0.0942,-0.1371,711.18,-1265.44,1827.82
5390,-3.8712,0.0887,-0.1394,70.56,-1546.69,1921.57
5400,-3.8712,0.0864,-0.1377,-632.57,-1843.63,1874.69
5410,-3.8712,0.0876,-0.1310,-929.44,-1624.88,1984.07
5420,-3.8712,0.0907,-0.1261,-773.19,-765.50,-1594.06
5430,-3.8712,0.0938,-0.1271,-382.57,-140.50,-828.43
5440,-3.8712,0.0967,-0.1277,8.06,-265.44,-31.56
5450,-3.8711,0.0969,-0.1274,383.06,-343.57,234.07
5460,-3.8712,0.0942,-0.1310,414.31,-312.32,-219.06
5470,-3.8712,0.0901,-0.1349,70.56,-765.44,-1015.93
5480,-3.8712,0.0864,-0.1371,-460.69,-1265.50,-1890.93
5490,-3.8712,0.0864,-0.1395,-929.44,-1546.75,1312.19
5500,-3.8712,0.0922,-0.1422,-929.44,-1859.25,859.07
5510,-3.8712,0.1011,-0.1425,-195.07,1797.00,905.94
5520,-3.8712,0.1089,-0.1399,945.56,1765.81,1296.57
5530,-3.8712,0.1130,-0.1375,1945.56,-1906.07,1780.94
5540,-3.8712,0.1133,-0.1362,-1523.19,-1593.57,-1594.06
5550,-3.8712,0.1106,-0.1335,-1491.94,-1437.32,-984.68
5560,-3.8712,0.1047,-0.1309,-1835.69,-1093.57,-844.06
5570,-3.8712,0.0984,-0.1340,1414.31,-749.82,-1234.68
5580,-3.8712,0.0953,-0.1383,601.81,-1156.07,-1531.56
5590,-3.8712,0.0952,-0.1383,211.18,-1702.94,-1687.81
5600,-3.8712,0.0957,-0.1357,195.56,-1702.94,-1984.68
5610,-3.8712,0.0967,-0.1323,258.06,-1374.82,1718.44
5620,-3.8712,0.0970,-0.1306,383.06,-937.32,1515.32
5630,-3.8712,0.0951,-0.1316,429.93,-718.57,1343.44
5640,-3.8712,0.0923,-0.1316,179.93,-843.57,1280.94
5650,-3.8712,0.0896,-0.1298,-179.44,-843.63,1249.69
5660,-3.8712,0.0890,-0.1311,-523.19,-609.25,1343.44
5670,-3.8712,0.0931,-0.1349,-601.32,-781.13,1702.82
5680,-3.8712,0.1012,-0.1364,-70.07,-1265.50,-1844.06
5690,-3.8712,0.1108,-0.1348,961.18,-1452.94,-1406.56
5700,-3.8712,0.1182,-0.1320,-1804.44,-1249.82,-984.68
5710,-3.8712,0.1211,-0.1311,-866.94,-890.44,-781.56
5720,-3.8712,0.1185,-0.1321,-491.94,-781.07,-734.68
5730,-3.8712,0.1106,-0.1344,-820.07,-906.07,-687.81
5740,-3.8712,0.1016,-0.1382,-1835.69,-1202.94,-672.18
5750,-3.8712,0.0958,-0.1379,1008.06,-1687.32,-672.18
5760,-3.8712,0.0929,-0.1320,273.68,-1656.07,-562.81
5770,-3.8712,0.0898,-0.1246,-101.32,-890.50,-390.93
5780,-3.8712,0.0865,-0.1213,-491.94,47.00,-312.74
5790,-3.8712,0.0853,-0.1234,-913.82,468.87,-281.49
5800,-3.8712,0.0876,-0.1268,-1070.07,203.25,-281.49
5810,-3.8712,0.0931,-0.1279,-773.19,-234.25,-297.18
5820,-3.8712,0.0992,-0.1261,-70.07,-374.88,-140.93
5830,-3.8711,0.1002,-0.1223,711.18,-140.44,280.94
5840,-3.8711,0.0936,-0.1202,836.18,343.93,546.63
5850,-3.8711,0.0854,-0.1228,-7.57,609.50,359.13
5860,-3.8711,0.0813,-0.1272,-1054.44,281.37,77.88
5870,-3.8711,0.0809,-0.1294,-1585.69,-281.13,30.94
5880,-3.8711,0.0846,-0.1260,-1632.57,-562.38,202.82
5890,-3.8711,0.0898,-0.1182,-1163.82,-124.88,468.44
5900,-3.8711,0.0919,-0.1143,-491.94,875.12,671.63
5910,-3.8711,0.0911,-0.1183,-226.32,1375.12,515.38
5920,-3.8712,0.0886,-0.1261,-335.69,859.50,-93.99
5930,-3.8712,0.0870,-0.1290,-648.19,-140.50,-1000.31
5940,-3.8712,0.0874,-0.1284,-851.32,-515.50,-1875.31
5950,-3.8712,0.0892,-0.1284,-804.44,-437.38,1468.44
5960,-3.8712,0.0919,-0.1267,-570.07,-437.38,1405.94
5970,-3.8712,0.0940,-0.1241,-226.32,-218.63,1999.69
5980,-3.8712,0.0963,-0.1206,39.31,109.56,-1109.62
5990,-3.8712,0.0992,-0.1150,336.18,562.68,-78.37
6000,-3.8711,0.0980,-0.1130,711.18,1281.43,452.88
6010,-3.8712,0.0907,-0.1188,554.93,1531.43,-78.37
6020,-3.8712,0.0828,-0.1300,-382.57,797.00,-1328.37
6030,-3.8712,0.0785,-0.1415,-1398.19,-640.50,1577.82
6040,-3.8712,0.0813,-0.1455,-1945.07,1890.75,952.82
6050,-3.8712,0.0896,-0.1403,-1585.69,1375.12,890.32
6060,-3.8712,0.0964,-0.1342,-523.19,-1953.00,1359.07
6070,-3.8712,0.0992,-0.1324,351.81,-1171.69,-1797.18
6080,-3.8712,0.0957,-0.1304,711.18,-952.94,-953.43
6090,-3.8712,0.0864,-0.1277,258.06,-687.32,-656.56
6100,-3.8712,0.0765,-0.1265,-929.44,-343.63,-828.43
6110,-3.8712,0.0698,-0.1263,1804.93,-187.38,-1062.81
6120,-3.8712,0.0721,-0.1288,945.56,-171.75,-1109.68
6130,-3.8712,0.0834,-0.1300,1242.43,-484.25,-828.43
6140,-3.8712,0.0936,-0.1278,-1320.07,-640.50,-359.68
6150,-3.8711,0.0969,-0.1252,-7.57,-359.25,62.19
6160,-3.8711,0.0950,-0.1230,414.31,-31.07,280.94
6170,-3.8711,0.0918,-0.1221,164.31,250.18,77.88
6180,-3.8712,0.0913,-0.1260,-241.94,375.12,-484.62
6190,-3.8712,0.0938,-0.1334,-304.44,-124.88,-1109.68
6200,-3.8712,0.0957,-0.1367,8.06,-1077.94,-1547.18
6210,-3.8712,0.0983,-0.1360,258.06,-1499.82,-1750.31
6220,-3.8712,0.1027,-0.1350,586.18,-1406.07,-1703.43
6230,-3.8712,0.1063,-0.1326,1148.68,-1281.07,-1453.43
6240,-3.8712,0.1094,-0.1285,1617.43,-968.57,-1031.56
6250,-3.8712,0.1105,-0.1251,-1991.94,-452.94,-797.18
6260,-3.8712,0.1052,-0.1243,-1851.32,-15.44,-1219.06
6270,-3.8712,0.0952,-0.1254,1476.81,93.93,1859.13
6280,-3.8712,0.0850,-0.1278,195.56,-46.69,812.19
6290,-3.8712,0.0769,-0.1301,-1116.94,-359.25,15.32
6300,-3.8713,0.0752,-0.1311,1851.81,-656.13,-297.18
6310,-3.8713,0.0801,-0.1298,1633.06,-781.13,-156.56
6320,-3.8712,0.0872,-0.1271,-1741.94,-609.25,187.19
6330,-3.8712,0.0923,-0.1250,-835.69,-265.50,593.44
6340,-3.8712,0.0936,-0.1255,-179.44,0.12,1077.88
6350,-3.8712,0.0914,-0.1279,-7.57,-62.38,1530.94
6360,-3.8712,0.0863,-0.1311,-288.82,-374.88,1765.32
6370,-3.8712,0.0802,-0.1355,-945.07,-781.13,1843.44
6380,-3.8712,0.0782,-0.1400,-1726.32,-1343.63,-1937.81
6390,-3.8712,0.0839,-0.1399,-1976.32,-1921.75,-1406.56
6400,-3.8712,0.0927,-0.1346,-1257.57,-1906.13,-703.43
6410,-3.8711,0.0983,-0.1309,-132.57,-1234.25,15.32
6420,-3.8711,0.0983,-0.1311,586.18,-749.82,734.07
6430,-3.8711,0.0939,-0.1299,586.18,-781.07,1390.32
6440,-3.8711,0.0905,-0.1265,23.68,-624.82,1952.82
6450,-3.8711,0.0922,-0.1241,-413.82,-187.38,-1594.06
6460,-3.8711,0.0961,-0.1246,-195.07,109.50,-1375.24
6470,-3.8711,0.0996,-0.1259,304.93,47.06,-1468.99
6480,-3.8711,0.1039,-0.1249,758.06,-109.19,-1906.56
6490,-3.8711,0.1089,-0.1251,1304.93,15.81,1249.76
6500,-3.8711,0.1140,-0.1285,1945.56,-15.44,155.94
6510,-3.8712,0.1160,-0.1348,-1398.19,-452.94,-828.43
6520,-3.8712,0.1165,-0.1429,-1148.19,-1249.82,-1547.18
6530,-3.8712,0.1207,-0.1451,-1085.69,1703.31,-1844.06
6540,-3.8712,0.1276,-0.1385,-538.82,1422.06,-1734.68
6550,-3.8712,0.1328,-0.1309,336.18,-1734.13,-1531.56
6560,-3.8712,0.1344,-0.1302,1008.06,-749.76,-1453.43
6570,-3.8712,0.1292,-0.1372,1211.18,-671.63,-1781.56
6580,-3.8712,0.1163,-0.1455,539.31,-1562.26,1374.69
6590,-3.8712,0.1000,-0.1473,-1101.32,1375.18,593.44
6600,-3.8712,0.0831,-0.1399,804.93,1140.81,421.57
6610,-3.8712,0.0720,-0.1289,-1351.32,-1906.13,874.69
6620,-3.8712,0.0703,-0.1208,1226.81,-499.88,1624.69
6630,-3.8712,0.0729,-0.1177,1008.06,531.37,-1703.37
6640,-3.8712,0.0734,-0.1182,1336.18,937.62,-1234.62
6650,-3.8712,0.0675,-0.1190,1398.68,875.12,-1140.87
6660,-3.8712,0.0564,-0.1210,648.68,765.75,-1453.37
6670,-3.8712,0.0470,-0.1248,-773.19,515.69,-1703.37
6680,-3.8712,0.0463,-0.1282,-1976.32,31.31,-1656.49
6690,-3.8712,0.0544,-0.1287,1929.93,-406.19,-1265.93
6700,-3.8712,0.0671,-0.1261,-1023.19,-468.69,-422.18
6710,-3.8711,0.0792,-0.1218,601.81,-140.50,562.19
6720,-3.8711,0.0861,-0.1156,-1851.32,406.37,1249.76
6730,-3.8711,0.0857,-0.1122,-976.32,1203.25,1343.51
6740,-3.8711,0.0825,-0.1188,-1023.19,1640.75,624.76
6750,-3.8712,0.0793,-0.1340,-1429.44,797.00,-765.87
6760,-3.8712,0.0792,-0.1490,-1835.69,-1156.13,1499.69
6770,-3.8712,0.0863,-0.1555,-1851.32,922.00,234.07
6780,-3.8713,0.0977,-0.1542,-945.07,93.87,-359.68
6790,-3.8713,0.1082,-0.1505,508.06,265.81,-344.06
6800,-3.8712,0.1161,-0.1437,1851.81,734.56,437.19
6810,-3.8712,0.1194,-0.1362,-1132.57,1609.56,1577.82
6820,-3.8712,0.1178,-0.1316,-710.69,-1437.32,-1453.43
6830,-3.8712,0.1124,-0.1277,-913.82,-843.57,-687.81
6840,-3.8712,0.1034,-0.1256,-1601.32,-343.57,-250.31
6850,-3.8712,0.0946,-0.1293,1242.43,-77.94,-234.68
6860,-3.8712,0.0895,-0.1340,117.43,-546.69,-297.18
6870,-3.8712,0.0894,-0.1343,-538.82,-1156.13,-265.93
6880,-3.8712,0.0928,-0.1315,-554.44,-1187.38,-234.68
6890,-3.8712,0.0966,-0.1278,-116.94,-828.00,-140.93
6900,-3.8712,0.0968,-0.1259,367.43,-359.19,-140.93
6910,-3.8712,0.0941,-0.1288,398.68,-109.19,-422.18
6920,-3.8712,0.0923,-0.1302,54.93,-484.19,-734.68
6930,-3.8712,0.0925,-0.1254,-179.44,-671.75,-875.31
6940,-3.8712,0.0922,-0.1207,-148.19,-46.75,-859.68
6950,-3.8712,0.0901,-0.1201,-195.07,547.00,-922.12
6960,-3.8712,0.0861,-0.1215,-460.69,625.12,-1125.24
6970,-3.8712,0.0822,-0.1235,-976.32,453.25,-1297.12
6980,-3.8712,0.0828,-0.1259,-1476.32,187.62,-1515.87
6990,-3.8712,0.0880,-0.1273,-1398.19,-109.25,-1828.43
7000,-3.8712,0.0934,-0.1271,-726.32,-296.75,1827.82
7010,-3.8712,0.0944,-0.1272,-38.82,-265.50,1655.94
7020,-3.8712,0.0900,-0.1289,86.18,-281.07,1718.44
7030,-3.8712,0.0852,-0.1301,-476.32,-499.88,1999.69
7040,-3.8712,0.0862,-0.1279,-1085.69,-656.13,-1625.31
7050,-3.8712,0.0920,-0.1250,-960.69,-374.88,-1625.31
7060,-3.8712,0.0977,-0.1254,-210.69,0.12,-1984.62
7070,-3.8712,0.0989,-0.1273,508.06,-46.69,1796.57
7080,-3.8712,0.0956,-0.1289,664.31,-296.69,1874.69
7090,-3.8712,0.0907,-0.1289,242.43,-499.82,-1906.56
7100,-3.8712,0.0874,-0.1266,-382.57,-499.88,-1640.93
7110,-3.8712,0.0873,-0.1239,-804.44,-203.00,-1469.06
7120,-3.8712,0.0853,-0.1246,-820.07,140.75,-1609.62
7130,-3.8712,0.0795,-0.1302,-1070.07,47.00,1952.88
7140,-3.8712,0.0752,-0.1371,-1820.07,-671.75,1640.32
7150,-3.8712,0.0767,-0.1387,1633.06,-1546.75,1702.82
7160,-3.8712,0.0831,-0.1357,1820.56,-1749.88,-1906.56
7170,-3.8712,0.0918,-0.1346,-1351.32,-1374.88,-1187.81
7180,-3.8712,0.0979,-0.1351,-241.94,-1234.25,-250.31
7190,-3.8711,0.0990,-0.1343,539.31,-1296.69,562.19
7200,-3.8711,0.0958,-0.1331,679.93,-1187.32,905.94
7210,-3.8711,0.0927,-0.1346,273.68,-1031.07,734.07
7220,-3.8711,0.0922,-0.1375,-132.57,-1234.25,452.82
7230,-3.8711,0.0941,-0.1395,-195.07,-1593.63,249.69
7240,-3.8711,0.0984,-0.1389,54.93,-1859.19,62.19
7250,-3.8711,0.1011,-0.1355,601.81,-1781.07,62.19
7260,-3.8711,0.1006,-0.1337,945.56,-1343.57,390.32
7270,-3.8711,0.1014,-0.1333,883.06,-1109.19,1046.57
7280,-3.8711,0.1083,-0.1321,992.43,-1062.32,1859.07
7290,-3.8711,0.1190,-0.1290,1867.43,-906.07,-1562.81
7300,-3.8711,0.1276,-0.1239,-757.57,-515.44,-1359.68
7310,-3.8711,0.1294,-0.1199,336.18,140.87,-1562.74
7320,-3.8711,0.1259,-0.1210,570.56,656.49,1796.63
7330,-3.8711,0.1205,-0.1263,117.43,515.87,796.63
7340,-3.8712,0.1158,-0.1332,-570.07,-171.69,-406.56
7350,-3.8712,0.1127,-0.1382,-1163.82,-1046.69,-1703.43
7360,-3.8712,0.1089,-0.1406,-1570.07,-1687.32,1109.07
7370,-3.8712,0.1058,-0.1410,1945.56,-1999.82,296.57
7380,-3.8712,0.1045,-0.1382,1554.93,1953.31,249.69
7390,-3.8712,0.1033,-0.1318,1383.06,-1687.32,859.07
7400,-3.8712,0.1018,-0.1234,1226.81,-874.82,1515.32
7410,-3.8712,0.0977,-0.1171,1039.31,203.31,1921.63
7420,-3.8712,0.0889,-0.1152,508.06,1015.81,1952.88
7430,-3.8712,0.0776,-0.1189,-616.94,1250.12,1671.63
7440,-3.8712,0.0695,-0.1277,1945.56,781.37,1265.38
7450,-3.8712,0.0688,-0.1351,898.68,-343.63,984.07
7460,-3.8712,0.0737,-0.1346,820.56,-1296.75,921.57
7470,-3.8712,0.0809,-0.1281,1445.56,-1234.25,1171.57
7480,-3.8712,0.0872,-0.1204,-1632.57,-390.50,1812.19
7490,-3.8712,0.0861,-0.1177,-835.69,593.87,-1797.12
7500,-3.8712,0.0780,-0.1223,-976.32,937.62,-1922.12
7510,-3.8712,0.0696,-0.1302,1992.43,343.87,1687.26
7520,-3.8712,0.0671,-0.1376,914.31,-671.75,1343.44
7530,-3.8712,0.0731,-0.1396,601.81,-1609.25,1312.19
7540,-3.8712,0.0820,-0.1381,1367.43,-1874.88,1780.94
7550,-3.8712,0.0883,-0.1366,-1491.94,-1671.75,-1375.31
7560,-3.8712,0.0901,-0.1334,-695.07,-1484.25,-265.93
7570,-3.8711,0.0852,-0.1283,-460.69,-1078.00,827.82
7580,-3.8711,0.0756,-0.1233,-1085.69,-421.75,1437.19
7590,-3.8711,0.0654,-0.1219,1679.93,218.87,1499.76
7600,-3.8711,0.0579,-0.1263,383.06,390.75,1296.63
7610,-3.8711,0.0559,-0.1322,-585.69,-171.81,984.07
7620,-3.8711,0.0601,-0.1335,-835.69,-921.81,812.19
7630,-3.8711,0.0667,-0.1302,-304.44,-1093.69,796.57
7640,-3.8711,0.0734,-0.1260,539.31,-671.75,827.82
7650,-3.8711,0.0775,-0.1250,1398.68,-124.88,859.07
7660,-3.8711,0.0787,-0.1302,1929.93,0.12,702.88
7670,-3.8711,0.0798,-0.1359,-1913.82,-671.75,327.82
7680,-3.8712,0.0818,-0.1345,-1773.19,-1390.50,-219.06
7690,-3.8712,0.0841,-0.1293,-1523.19,-1218.63,-859.68
7700,-3.8712,0.0856,-0.1284,-1226.32,-546.75,-1594.06
7710,-3.8712,0.0852,-0.1322,-1038.82,-437.38,1718.44
7720,-3.8712,0.0852,-0.1356,-1085.69,-921.75,1359.07
7730,-3.8712,0.0884,-0.1387,-1085.69,-1359.25,1124.69
7740,-3.8712,0.0938,-0.1417,-679.44,-1749.88,765.32
7750,-3.8712,0.0966,-0.1440,8.06,1859.56,296.57
7760,-3.8713,0.0964,-0.1440,367.43,1562.68,-109.68
7770,-3.8713,0.0973,-0.1414,351.81,1562.68,-281.56
7780,-3.8713,0.0992,-0.1390,461.18,1906.43,-15.93
7790,-3.8712,0.1008,-0.1370,711.18,-1796.69,780.94
7800,-3.8712,0.1005,-0.1329,914.31,-1531.07,1702.82
7810,-3.8712,0.0978,-0.1298,867.43,-1015.44,-1734.68
7820,-3.8712,0.0938,-0.1315,523.68,-609.19,-1656.56
7830,-3.8712,0.0897,-0.1350,8.06,-827.94,-1953.43
7840,-3.8712,0.0875,-0.1365,-507.57,-1281.13,1562.19
7850,-3.8712,0.0890,-0.1379,-788.82,-1468.63,1280.94
7860,-3.8712,0.0941,-0.1400,-601.32,-1656.13,1515.32
7870,-3.8712,0.1011,-0.1392,54.93,-1921.69,-1828.43
7880,-3.8712,0.1077,-0.1368,945.56,-1812.32,-1125.31
7890,-3.8712,0.1117,-0.1364,1789.31,-1515.44,-515.93
7900,-3.8712,0.1146,-0.1357,-1695.07,-1452.94,-47.18
7910,-3.8711,0.1172,-0.1349,-1320.07,-1374.82,155.94
7920,-3.8711,0.1180,-0.1350,-991.94,-1265.44,124.69
7930,-3.8712,0.1172,-0.1349,-882.57,-1281.07,-78.43
7940,-3.8712,0.1134,-0.1366,-991.94,-1265.44,-422.18
7950,-3.8712,0.1089,-0.1403,-1476.32,-1484.19,-937.81
7960,-3.8712,0.1066,-0.1416,1945.56,-1952.94,-1437.81
7970,-3.8712,0.1046,-0.1404,1648.68,1875.18,-1687.81
7980,-3.8712,0.1033,-0.1379,1398.68,-1968.57,-1578.43
7990,-3.8712,0.1025,-0.1351,1226.81,-1656.07,-1172.18
8000,-3.8712,0.1002,-0.1323,1133.06,-1296.69,-562.81
8010,-3.8712,0.0975,-0.1292,836.18,-937.32,-15.93
8020,-3.8711,0.0955,-0.1267,492.43,-531.07,202.82
8030,-3.8711,0.0953,-0.1266,226.81,-218.57,109.07
8040,-3.8712,0.0966,-0.1283,211.18,-202.94,-281.56
8050,-3.8712,0.0966,-0.1313,367.43,-421.69,-859.68
8060,-3.8712,0.0963,-0.1361,367.43,-812.32,-1515.93
8070,-3.8712,0.0958,-0.1400,336.18,-1421.69,1890.32
8080,-3.8712,0.0951,-0.1415,273.68,-1921.69,1546.57
8090,-3.8712,0.0962,-0.1399,179.93,1890.81,1530.94
8100,-3.8712,0.0980,-0.1372,320.56,-1906.07,1780.94
8110,-3.8712,0.0981,-0.1361,554.93,-1562.32,-1953.43
8120,-3.8712,0.0958,-0.1375,570.56,-1421.69,-1844.06
8130,-3.8712,0.0916,-0.1400,273.68,-1593.57,-1859.68
8140,-3.8712,0.0907,-0.1401,-273.19,-1921.75,-1984.68
8150,-3.8712,0.0966,-0.1365,-382.57,-1937.38,1749.69
8160,-3.8712,0.1052,-0.1346,367.43,-1468.57,1405.94
8170,-3.8712,0.1116,-0.1396,1476.81,-1234.19,1155.94
8180,-3.8712,0.1136,-0.1454,-1710.69,-1874.82,1077.82
8190,-3.8712,0.1115,-0.1445,-1445.07,1390.81,1187.19
8200,-3.8712,0.1052,-0.1400,-1726.32,1500.18,1530.94
8210,-3.8712,0.0989,-0.1368,1476.81,-1921.69,-1734.68
8220,-3.8712,0.0972,-0.1329,664.31,-1515.44,-719.06
8230,-3.8711,0.0978,-0.1270,445.56,-1015.44,140.32
8240,-3.8711,0.0964,-0.1243,523.68,-249.82,452.82
8250,-3.8711,0.0917,-0.1268,351.81,93.93,265.38
8260,-3.8712,0.0842,-0.1307,-257.57,-234.25,-234.68
8270,-3.8712,0.0782,-0.1334,-1210.69,-734.25,-906.56
8280,-3.8712,0.0762,-0.1335,-1976.32,-1078.00,-1609.68
8290,-3.8712,0.0764,-0.1371,1758.06,-1093.63,1780.94
8300,-3.8712,0.0789,-0.1429,1789.31,-1546.75,1546.57
8310,-3.8712,0.0834,-0.1425,-1898.19,1703.25,1702.82
8320,-3.8712,0.0862,-0.1372,-1320.07,1765.75,-1969.06
8330,-3.8712,0.0867,-0.1329,-960.69,-1562.38,-1578.43
8340,-3.8712,0.0865,-0.1313,-898.19,-1015.50,-1281.56
8350,-3.8712,0.0851,-0.1324,-913.82,-812.38,-1047.18
8360,-3.8712,0.0829,-0.1354,-1101.32,-953.00,-1015.93
8370,-3.8712,0.0809,-0.1378,-1382.57,-1328.00,-1219.06
8380,-3.8712,0.0798,-0.1384,-1632.57,-1640.50,-1265.93
8390,-3.8712,0.0806,-0.1375,-1773.19,-1718.63,-1172.18
8400,-3.8712,0.0826,-0.1365,-1679.44,-1593.63,-1109.68
8410,-3.8712,0.0853,-0.1346,-1413.82,-1468.63,-1156.56
8420,-3.8712,0.0886,-0.1302,-1070.07,-1234.25,-1219.06
8430,-3.8712,0.0906,-0.1257,-648.19,-671.75,-1359.68
8440,-3.8712,0.0896,-0.1259,-398.19,-93.63,-1765.93
8450,-3.8712,0.0862,-0.1321,-523.19,-109.25,1702.82
8460,-3.8712,0.0831,-0.1407,-960.69,-906.13,905.94
8470,-3.8713,0.0812,-0.1472,-1351.32,1984.50,-109.68
8480,-3.8713,0.0807,-0.1494,-1601.32,1156.37,-844.06
8490,-3.8713,0.0837,-0.1470,-1663.82,875.12,-828.43
8500,-3.8712,0.0933,-0.1410,-1273.19,1187.62,312.19
8510,-3.8712,0.1050,-0.1355,-54.44,1953.25,-1344.06
8520,-3.8711,0.1134,-0.1342,1445.56,-1343.57,1249.69
8530,-3.8711,0.1151,-0.1348,-1476.32,-1171.69,-1000.31
8540,-3.8711,0.1085,-0.1343,-1257.57,-1249.82,-484.68
8550,-3.8711,0.1003,-0.1342,1898.68,-1187.32,-1000.31
8560,-3.8711,0.0934,-0.1370,851.81,-1171.69,1968.44
8570,-3.8711,0.0859,-0.1405,-38.82,-1531.13,843.44
8580,-3.8712,0.0808,-0.1411,-991.94,-1984.25,-94.06
8590,-3.8712,0.0802,-0.1383,-1648.19,1937.62,-797.18
8600,-3.8712,0.0840,-0.1320,-1726.32,-1703.00,-1328.43
8610,-3.8712,0.0884,-0.1232,-1241.94,-890.50,-1797.18
8620,-3.8712,0.0920,-0.1188,-679.44,234.50,-1515.87
8630,-3.8712,0.0922,-0.1229,-210.69,797.00,-547.12
8640,-3.8712,0.0874,-0.1309,-195.07,265.75,-312.74
8650,-3.8712,0.0836,-0.1351,-804.44,-749.88,-1078.43
8660,-3.8712,0.0823,-0.1382,-1288.82,-1296.75,1687.19
8670,-3.8712,0.0830,-0.1427,-1460.69,-1687.38,718.44
8680,-3.8712,0.0874,-0.1439,-1366.94,1734.50,374.69
8690,-3.8712,0.0942,-0.1414,-804.44,1578.25,499.69
8700,-3.8712,0.0994,-0.1377,70.56,1906.43,796.57
8710,-3.8712,0.0994,-0.1335,726.81,-1624.82,1062.19
8720,-3.8712,0.0940,-0.1326,726.81,-1093.57,1265.32
8730,-3.8712,0.0895,-0.1361,39.31,-968.57,1343.44
8740,-3.8712,0.0912,-0.1387,-538.82,-1421.75,1390.32
8750,-3.8712,0.0972,-0.1370,-320.07,-1749.88,1515.32
8760,-3.8712,0.1025,-0.1346,445.56,-1531.07,1640.32
8770,-3.8712,0.1029,-0.1354,1133.06,-1234.19,1687.19
8780,-3.8712,0.1003,-0.1393,1179.93,-1327.94,1624.69
8790,-3.8712,0.0994,-0.1437,851.81,-1827.94,1468.44
8800,-3.8712,0.1000,-0.1465,726.81,1609.56,1296.57
8810,-3.8712,0.1024,-0.1456,804.93,1250.18,1249.69
8820,-3.8712,0.1064,-0.1407,1117.43,1359.56,1468.44
8830,-3.8712,0.1090,-0.1346,1633.06,1984.56,1827.82
8840,-3.8712,0.1073,-0.1292,1961.18,-1234.19,-1703.43
8850,-3.8712,0.1016,-0.1243,1742.43,-531.07,-1062.81
8860,-3.8712,0.0947,-0.1212,1008.06,93.93,-703.37
8870,-3.8712,0.0896,-0.1218,133.06,484.56,-953.37
8880,-3.8712,0.0841,-0.1251,-523.19,406.37,-1562.74
8890,-3.8712,0.0782,-0.1279,-1226.32,-15.50,1546.57
8900,-3.8712,0.0739,-0.1309,-1976.32,-374.88,562.19
8910,-3.8713,0.0717,-0.1349,1461.18,-749.88,-156.56
8920,-3.8713,0.0713,-0.1381,1179.93,-1265.50,-312.81
8930,-3.8712,0.0720,-0.1389,1133.06,-1671.75,234.07
8940,-3.8712,0.0758,-0.1344,1226.81,-1781.13,1468.44
8950,-3.8712,0.0829,-0.1249,1711.18,-1203.00,-781.56
8960,-3.8711,0.0902,-0.1171,-1382.57,15.75,937.26
8970,-3.8711,0.0951,-0.1168,-445.07,1015.75,-1734.62
8980,-3.8711,0.0961,-0.1219,179.93,1047.06,-1203.37
8990,-3.8711,0.0942,-0.1277,304.93,390.81,-1422.12
9000,-3.8711,0.0923,-0.1323,70.56,-343.57,1937.19
9010,-3.8711,0.0912,-0.1349,-179.44,-937.38,1171.57
9020,-3.8711,0.0908,-0.1340,-320.07,-1265.50,484.07
9030,-3.8711,0.0911,-0.1307,-366.94,-1156.13,46.57
9040,-3.8711,0.0919,-0.1284,-335.69,-734.25,46.57
9050,-3.8711,0.0947,-0.1273,-226.32,-437.38,546.57
9060,-3.8711,0.0983,-0.1245,133.06,-296.69,1296.57
9070,-3.8711,0.1006,-0.1190,586.18,62.68,1984.13
9080,-3.8711,0.0997,-0.1141,883.06,765.81,-1593.99
9090,-3.8711,0.0939,-0.1139,773.68,1390.81,-1687.74
9100,-3.8711,0.0861,-0.1184,23.68,1422.06,1781.01
9110,-3.8711,0.0820,-0.1246,-976.32,843.87,1187.26
9120,-3.8711,0.0828,-0.1288,-1491.94,47.00,609.13
9130,-3.8711,0.0859,-0.1289,-1398.19,-484.25,77.82
9140,-3.8712,0.0903,-0.1260,-991.94,-499.88,-156.56
9150,-3.8712,0.0942,-0.1230,-429.44,-124.88,-140.93
9160,-3.8712,0.0951,-0.1240,70.56,250.18,-281.49
9170,-3.8712,0.0938,-0.1260,179.93,125.18,-562.74
9180,-3.8712,0.0922,-0.1251,8.06,-124.82,-937.81
9190,-3.8712,0.0903,-0.1237,-195.07,-15.50,-1578.43
9200,-3.8712,0.0875,-0.1248,-429.44,172.00,1812.26
9210,-3.8712,0.0857,-0.1263,-788.82,31.37,1312.26
9220,-3.8712,0.0861,-0.1243,-1023.19,-171.75,749.69
9230,-3.8712,0.0869,-0.1180,-976.32,93.87,234.13
9240,-3.8713,0.0840,-0.1133,-866.94,890.75,-218.99
9250,-3.8713,0.0778,-0.1145,-1241.94,1500.12,-718.99
9260,-3.8713,0.0736,-0.1188,1961.18,1343.87,-1484.62
9270,-3.8713,0.0702,-0.1243,1429.93,797.00,1452.88
9280,-3.8713,0.0669,-0.1329,992.43,93.87,515.38
9290,-3.8713,0.0697,-0.1406,570.56,-1015.50,702.82
9300,-3.8713,0.0800,-0.1415,929.93,-1999.88,-1797.18
9310,-3.8712,0.0925,-0.1359,-1757.57,1890.75,234.07
9320,-3.8712,0.1016,-0.1288,-148.19,-1390.50,-1687.81
9330,-3.8711,0.1022,-0.1254,1008.06,-484.19,93.44
9340,-3.8711,0.0967,-0.1260,1086.18,-46.69,1499.69
9350,-3.8711,0.0922,-0.1272,383.06,-124.82,-1515.93
9360,-3.8711,0.0913,-0.1277,-195.07,-281.13,-1344.06
9370,-3.8711,0.0935,-0.1278,-304.44,-343.63,-1969.06
9380,-3.8711,0.0948,-0.1282,-23.19,-359.25,968.44
9390,-3.8712,0.0935,-0.1309,148.68,-406.07,-78.43
9400,-3.8712,0.0907,-0.1344,-23.19,-749.88,-750.31
9410,-3.8712,0.0894,-0.1362,-382.57,-1203.00,-859.68
9420,-3.8712,0.0919,-0.1337,-554.44,-1437.38,-609.68
9430,-3.8712,0.0962,-0.1301,-226.32,-1109.25,-312.81
9440,-3.8712,0.0986,-0.1278,320.56,-656.07,-78.43
9450,-3.8711,0.0988,-0.1252,633.06,-359.19,155.94
9460,-3.8711,0.0981,-0.1239,648.68,-31.07,359.07
9470,-3.8711,0.0970,-0.1249,570.56,140.81,468.51
9480,-3.8711,0.0970,-0.1259,429.93,15.81,468.51
9490,-3.8711,0.1003,-0.1256,429.93,-109.19,234.07
9500,-3.8712,0.1066,-0.1263,851.81,-77.94,-453.43
9510,-3.8712,0.1123,-0.1281,1648.68,-171.69,-1265.93
9520,-3.8712,0.1147,-0.1285,-1616.94,-390.44,-1609.68
9530,-3.8712,0.1123,-0.1252,-1304.44,-452.94,-1531.56
9540,-3.8712,0.1058,-0.1191,-1616.94,-31.07,-1469.06
9550,-3.8712,0.0981,-0.1179,1554.93,750.18,-1625.24
9560,-3.8712,0.0934,-0.1211,570.56,906.43,-1968.99
9570,-3.8712,0.0925,-0.1196,-38.82,500.12,1734.13
9580,-3.8712,0.0922,-0.1128,-148.19,687.62,1484.13
9590,-3.8712,0.0900,-0.1044,-195.07,1562.62,1218.51
9600,-3.8712,0.0870,-0.1002,-476.32,-1359.25,1093.51
9610,-3.8712,0.0879,-0.1023,-851.32,-828.00,1327.88
9620,-3.8712,0.0941,-0.1088,-741.94,-1093.63,1890.38
9630,-3.8712,0.1030,-0.1167,54.93,-1921.69,-1437.74
9640,-3.8712,0.1101,-0.1204,1195.56,1062.68,-843.99
9650,-3.8712,0.1104,-0.1195,-1898.19,593.93,-656.49
9660,-3.8712,0.1047,-0.1201,-1866.94,703.31,-1000.24
9670,-3.8712,0.0996,-0.1219,1414.31,625.18,-1672.12
9680,-3.8712,0.0957,-0.1215,758.06,390.81,1718.51
9690,-3.8712,0.0916,-0.1207,258.06,453.31,1452.88
9700,-3.8712,0.0869,-0.1227,-273.19,547.00,1640.38
9710,-3.8712,0.0813,-0.1274,-866.94,297.00,-1953.37
9720,-3.8712,0.0770,-0.1309,-1585.69,-312.38,-1687.81
9730,-3.8712,0.0773,-0.1316,1867.43,-749.88,-1375.31
9740,-3.8712,0.0822,-0.1288,1898.68,-843.63,-750.31
9750,-3.8712,0.0872,-0.1200,-1476.32,-484.25,-140.93
9760,-3.8711,0.0870,-0.1134,-835.69,640.75,15.38
9770,-3.8712,0.0830,-0.1150,-851.32,1484.50,-109.62
9780,-3.8712,0.0795,-0.1188,-1366.94,1281.37,-343.99
9790,-3.8712,0.0787,-0.1193,-1820.07,797.00,-828.37
9800,-3.8712,0.0811,-0.1201,-1913.82,734.50,-1265.87
9810,-3.8712,0.0859,-0.1229,-1616.94,625.12,-1093.99
9820,-3.8712,0.0925,-0.1224,-991.94,265.75,-375.24
9830,-3.8711,0.0981,-0.1163,-148.19,328.25,359.13
9840,-3.8711,0.0980,-0.1090,570.56,1109.56,624.76
9850,-3.8711,0.0914,-0.1060,554.93,-1952.94,171.63
9860,-3.8712,0.0801,-0.1111,-288.82,-1562.38,-1109.62
9870,-3.8712,0.0685,-0.1233,-1741.94,1781.37,765.38
9880,-3.8713,0.0631,-0.1360,773.68,218.87,-1578.37
9890,-3.8713,0.0670,-0.1426,86.18,-1406.13,921.57
9900,-3.8713,0.0786,-0.1393,586.18,1750.12,1077.82
9910,-3.8713,0.0940,-0.1284,-1929.44,-1828.00,-1328.43
9920,-3.8712,0.1077,-0.1182,39.31,-437.32,905.94
9930,-3.8712,0.1139,-0.1136,1789.31,875.18,-1015.87
9940,-3.8711,0.1111,-0.1125,-1413.82,1453.31,234.13
9950,-3.8711,0.1018,-0.1154,-1773.19,1593.93,562.26
9960,-3.8711,0.0891,-0.1202,1039.31,1234.56,406.01
9970,-3.8711,0.0803,-0.1207,-585.69,609.50,156.01
9980,-3.8712,0.0789,-0.1163,-1710.69,547.00,-140.87
9990,-3.8712,0.0811,-0.1119,-1898.19,1109.50,-593.99
10000,-3.8712,0.0837,-0.1089,-1616.94,1672.00,-875.24
10010,-3.8712,0.0861,-0.1064,-1273.19,-1937.38,-703.37
10020,-3.8712,0.0869,-0.1053,-976.32,-1624.88,-125.24
10030,-3.8711,0.0862,-0.1049,-866.94,-1484.25,531.01
10040,-3.8711,0.0845,-0.1034,-960.69,-1421.75,859.13
10050,-3.8711,0.0818,-0.1018,-1179.44,-1234.25,671.63
10060,-3.8711,0.0792,-0.1011,-1523.19,-1031.13,93.51
10070,-3.8712,0.0778,-0.1013,-1851.32,-937.38,-922.12
10080,-3.8712,0.0771,-0.1024,1961.18,-968.63,1468.51
10090,-3.8713,0.0778,-0.1075,1883.06,-1109.25,-609.62
10100,-3.8713,0.0806,-0.1182,1961.18,-1765.50,1281.01
10110,-3.8715,0.0880,-0.1295,-1679.44,875.12,-250.24
10120,-3.8715,0.1002,-0.1365,-726.32,-578.00,-562.81
10130,-3.8713,0.1157,-0.1348,836.18,-1468.57,702.82
10140,-3.8713,0.1298,-0.1239,-1179.44,-1249.82,-781.56
10150,-3.8712,0.1356,-0.1115,617.43,140.87,-1828.37
10160,-3.8711,0.1327,-0.1038,1367.43,1734.62,1031.01
10170,-3.8711,0.1254,-0.1013,992.43,-1281.01,-672.12
10180,-3.8710,0.1166,-0.1011,54.93,-968.51,624.76
10190,-3.8710,0.1078,-0.1005,-1070.07,-937.32,859.13
10200,-3.8710,0.1005,-0.1010,1804.93,-859.19,437.26
10210,-3.8710,0.0956,-0.1038,867.43,-921.69,249.76
10220,-3.8710,0.0947,-0.1030,242.43,-1281.07,624.76
10230,-3.8710,0.0961,-0.0963,133.06,-1187.32,1281.01
10240,-3.8710,0.0951,-0.0886,304.93,-327.94,1921.63
10250,-3.8710,0.0924,-0.0853,179.93,656.43,-1593.93
10260,-3.8710,0.0907,-0.0861,-163.82,1078.25,-1328.31
10270,-3.8710,0.0908,-0.0881,-382.57,984.50,-1250.18
10280,-3.8710,0.0951,-0.0903,-366.94,718.87,-1328.31
10290,-3.8710,0.1049,-0.0909,179.93,437.68,-1625.18
10300,-3.8710,0.1150,-0.0900,1429.93,359.56,1906.07
10310,-3.8710,0.1188,-0.0925,-1273.19,484.56,1109.19
10320,-3.8710,0.1129,-0.1001,-788.82,156.43,62.32
10330,-3.8711,0.1023,-0.1051,-1538.82,-812.32,-922.12
10340,-3.8711,0.0927,-0.1056,1101.81,-1452.94,-1968.99
10350,-3.8711,0.0879,-0.1047,-132.57,-1515.50,890.38
10360,-3.8712,0.0889,-0.1046,-741.94,-1406.13,-203.37
10370,-3.8712,0.0929,-0.1057,-616.94,-1390.50,-1172.12
10380,-3.8712,0.0988,-0.1072,-101.32,-1531.13,1890.38
10390,-3.8712,0.1042,-0.1078,648.68,-1718.57,1062.26
10400,-3.8712,0.1058,-0.1080,1351.81,-1796.69,327.88
10410,-3.8713,0.1018,-0.1115,1554.93,-1827.94,-328.37
10420,-3.8713,0.0956,-0.1168,1039.31,1734.56,-750.24
10430,-3.8713,0.0940,-0.1189,242.43,1047.06,-828.37
10440,-3.8713,0.0997,-0.1167,39.31,781.43,-718.99
10450,-3.8713,0.1077,-0.1123,773.68,1062.68,-609.62
10460,-3.8713,0.1101,-0.1106,1789.31,1625.18,-515.87
10470,-3.8713,0.1061,-0.1113,-1898.19,1843.93,-437.74
10480,-3.8713,0.0999,-0.1116,1586.18,1750.18,-468.99
10490,-3.8713,0.0931,-0.1100,789.31,1718.93,-781.49
10500,-3.8713,0.0881,-0.1057,-70.07,1922.00,-1406.49
10510,-3.8713,0.0859,-0.1010,-710.69,-1531.13,1656.01
10520,-3.8713,0.0831,-0.1003,-991.94,-921.75,312.26
10530,-3.8715,0.0780,-0.1049,-1351.32,-843.63,-1437.74
10540,-3.8715,0.0712,-0.1116,1992.43,-1421.75,656.01
10550,-3.8716,0.0667,-0.1212,1117.43,1718.87,-890.87
10560,-3.8716,0.0703,-0.1321,539.31,484.50,-1422.12
10570,-3.8716,0.0806,-0.1376,1008.06,-906.13,-750.31
10580,-3.8715,0.0927,-0.1351,-1679.44,-1609.25,827.82
10590,-3.8715,0.1049,-0.1272,-132.57,-1296.75,-797.18
10600,-3.8713,0.1132,-0.1183,1429.93,-281.07,-1672.18
10610,-3.8712,0.1155,-0.1127,-1507.57,859.56,1531.01
10620,-3.8711,0.1136,-0.1108,-1210.69,1578.31,312.26
10630,-3.8711,0.1086,-0.1091,-1445.07,1812.68,-1390.87
10640,-3.8710,0.1005,-0.1063,1914.31,-1968.57,468.51
10650,-3.8710,0.0916,-0.1022,867.43,-1609.19,1874.76
10660,-3.8710,0.0828,-0.0983,-273.19,-1078.00,-1312.74
10670,-3.8710,0.0751,-0.0969,-1398.19,-578.00,-1062.74
10680,-3.8710,0.0697,-0.0946,1617.43,-406.13,-1031.49
10690,-3.8710,0.0659,-0.0901,929.93,-109.25,-968.99
10700,-3.8710,0.0645,-0.0872,445.56,468.87,-828.31
10710,-3.8710,0.0658,-0.0881,258.06,843.87,-828.31
10720,-3.8710,0.0695,-0.0897,429.93,718.87,-1125.18
10730,-3.8710,0.0753,-0.0900,898.68,515.75,-1765.81
10740,-3.8710,0.0829,-0.0913,1648.68,484.50,1499.82
10750,-3.8710,0.0922,-0.0934,-1382.57,312.62,1031.07
10760,-3.8710,0.1021,-0.0947,-195.07,47.00,1093.57
10770,-3.8710,0.1150,-0.0944,1070.56,-124.82,1671.63
10780,-3.8710,0.1310,-0.0924,-1273.19,-77.94,-1515.87
10790,-3.8710,0.1425,-0.0919,773.68,172.12,-1015.81
10800,-3.8710,0.1433,-0.0933,-1757.57,234.62,-1047.06
10810,-3.8710,0.1337,-0.0952,-1648.19,62.74,-1593.93
10820,-3.8710,0.1199,-0.0992,1117.43,-187.26,1234.13
10830,-3.8711,0.1075,-0.1028,-648.19,-702.94,-422.12
10840,-3.8711,0.0986,-0.1021,1773.68,-1156.07,1609.13
10850,-3.8712,0.0940,-0.0973,633.06,-1062.32,-515.87
10860,-3.8712,0.0917,-0.0936,39.31,-452.94,1577.88
10870,-3.8712,0.0896,-0.0970,-257.57,15.75,312.32
10880,-3.8713,0.0895,-0.1021,-523.19,-421.75,-125.24
10890,-3.8712,0.0914,-0.1014,-538.82,-1062.38,31.01
10900,-3.8712,0.0920,-0.0984,-288.82,-984.25,390.38
10910,-3.8712,0.0881,-0.0985,-210.69,-593.63,577.88
10920,-3.8712,0.0824,-0.1027,-710.69,-609.25,390.38
10930,-3.8713,0.0795,-0.1097,-1445.07,-1140.50,-0.24
10940,-3.8713,0.0813,-0.1154,-1820.07,1953.25,-312.74
10950,-3.8713,0.0863,-0.1167,-1585.69,1234.50,-422.12
10960,-3.8713,0.0894,-0.1152,-945.07,1062.62,-359.62
10970,-3.8713,0.0883,-0.1116,-554.44,1250.12,-218.99
10980,-3.8712,0.0865,-0.1082,-695.07,1718.87,46.63
10990,-3.8712,0.0851,-0.1063,-913.82,-1843.63,499.76
11000,-3.8712,0.0823,-0.1062,-1101.32,-1609.25,906.01
11010,-3.8712,0.0800,-0.1082,-1460.69,-1593.63,1093.51
11020,-3.8712,0.0785,-0.1108,-1757.57,-1843.63,796.63
11030,-3.8712,0.0759,-0.1151,-1945.07,1812.62,46.63
11040,-3.8713,0.0741,-0.1199,1726.81,1265.75,-718.99
11050,-3.8713,0.0771,-0.1198,1492.43,656.37,-953.37
11060,-3.8713,0.0872,-0.1174,1883.06,672.00,-500.24
11070,-3.8712,0.1017,-0.1160,-835.69,968.87,671.63
11080,-3.8712,0.1133,-0.1118,1023.68,1156.43,-1656.49
11090,-3.8712,0.1162,-0.1089,-1491.94,1687.68,-406.49
11100,-3.8712,0.1105,-0.1132,-1116.94,-1937.32,-0.24
11110,-3.8712,0.1023,-0.1196,-1851.32,1515.81,-47.12
11120,-3.8712,0.0959,-0.1189,1101.81,687.68,-281.49
11130,-3.8712,0.0900,-0.1124,289.31,781.43,-750.24
11140,-3.8712,0.0833,-0.1101,-476.32,1609.50,-1265.87
11150,-3.8712,0.0771,-0.1111,-1335.69,1906.37,-1468.99
11160,-3.8712,0.0735,-0.1083,1883.06,1781.37,-1250.24
11170,-3.8712,0.0724,-0.1035,1414.31,-1859.25,-578.37
11180,-3.8711,0.0724,-0.1007,1273.68,-1249.88,296.63
11190,-3.8711,0.0729,-0.0985,1273.68,-890.50,1062.26
11200,-3.8711,0.0730,-0.0953,1336.18,-609.25,1234.13
11210,-3.8711,0.0712,-0.0928,1351.81,-203.00,843.51
11220,-3.8711,0.0684,-0.0957,1117.43,125.12,359.19
11230,-3.8712,0.0664,-0.1025,758.06,-249.88,-31.49
11240,-3.8712,0.0677,-0.1038,508.06,-1124.88,-437.74
11250,-3.8712,0.0707,-0.1003,679.93,-1281.13,-1000.24
11260,-3.8712,0.0734,-0.0983,1054.93,-843.63,-1562.74
11270,-3.8712,0.0742,-0.0990,1398.68,-578.00,-1953.37
11280,-3.8712,0.0737,-0.1022,1508.06,-671.75,1624.76
11290,-3.8712,0.0754,-0.1045,1445.56,-1078.00,1077.88
11300,-3.8712,0.0774,-0.1045,1664.31,-1374.88,609.13
11310,-3.8712,0.0762,-0.1060,1914.31,-1374.88,218.51
11320,-3.8712,0.0742,-0.1110,1758.06,-1562.38,77.88
11330,-3.8712,0.0750,-0.1146,1508.06,1797.00,452.88
11340,-3.8712,0.0776,-0.1140,1601.81,1328.25,1218.51
11350,-3.8712,0.0800,-0.1093,1945.56,1406.37,-1828.37
11360,-3.8712,0.0793,-0.1018,-1757.57,-1984.25,-734.62
11370,-3.8711,0.0763,-0.0942,-1835.69,-1031.13,265.38
11380,-3.8711,0.0743,-0.0897,1773.68,-62.38,1015.38
11390,-3.8711,0.0736,-0.0908,1523.68,515.75,1421.69
11400,-3.8711,0.0731,-0.0955,1429.93,375.12,1577.94
11410,-3.8711,0.0715,-0.0975,1367.43,-218.63,1343.51
11420,-3.8711,0.0667,-0.0978,1164.31,-484.25,624.76
11430,-3.8712,0.0596,-0.1005,539.31,-515.50,-203.37
11440,-3.8712,0.0551,-0.1072,-366.94,-859.31,-593.99
11450,-3.8711,0.0623,-0.1104,-945.07,-1718.69,171.63
11460,-3.8711,0.0826,-0.1044,-23.19,1875.06,-1843.99
11470,-3.8710,0.1046,-0.0941,-1413.82,-1359.25,827.88
11480,-3.8710,0.1154,-0.0862,1398.68,-46.69,-453.37
11490,-3.8708,0.1096,-0.0864,-1226.32,968.93,1327.94
11500,-3.8708,0.0962,-0.0947,-1960.69,937.68,1624.82
11510,-3.8708,0.0858,-0.1038,320.56,-124.82,671.63
11520,-3.8710,0.0797,-0.1084,-1007.57,-1281.13,-1203.37
11530,-3.8710,0.0764,-0.1074,-1788.82,-1874.88,374.76
11540,-3.8711,0.0718,-0.1086,1789.31,-1749.88,1765.38
11550,-3.8712,0.0668,-0.1146,1195.56,-1906.13,-375.24
11560,-3.8712,0.0670,-0.1160,554.93,1328.25,-1609.62
11570,-3.8712,0.0726,-0.1116,586.18,1156.37,1749.76
11580,-3.8712,0.0811,-0.1046,1304.93,1718.87,1437.26
11590,-3.8712,0.0870,-0.1005,-1616.94,-1390.50,1187.26
11600,-3.8712,0.0889,-0.1021,-851.32,-859.25,906.01
11610,-3.8712,0.0895,-0.1056,-616.94,-1062.38,718.51
11620,-3.8712,0.0897,-0.1122,-538.82,-1515.50,484.13
11630,-3.8712,0.0909,-0.1204,-507.57,1640.75,124.76
11640,-3.8713,0.0918,-0.1256,-351.32,593.87,-375.24
11650,-3.8713,0.0912,-0.1270,-241.94,-78.00,-1015.93
11660,-3.8713,0.0908,-0.1234,-320.07,-249.88,-1797.18
11670,-3.8713,0.0887,-0.1166,-366.94,203.25,1234.13
11680,-3.8713,0.0858,-0.1111,-632.57,1078.25,202.88
11690,-3.8715,0.0857,-0.1090,-1007.57,1781.37,-734.62
11700,-3.8715,0.0872,-0.1068,-1023.19,-1953.00,-1625.24
11710,-3.8715,0.0876,-0.1030,-835.69,-1671.75,1281.01
11720,-3.8715,0.0861,-0.1030,-773.19,-1187.38,156.01
11730,-3.8716,0.0819,-0.1124,-976.32,-1187.38,-922.12
11740,-3.8716,0.0758,-0.1268,-1507.57,1609.50,1874.76
11750,-3.8716,0.0725,-0.1423,1711.18,-234.25,593.44
11760,-3.8717,0.0822,-0.1566,1289.31,1781.37,-390.93
11770,-3.8717,0.1099,-0.1622,-1476.32,-46.75,-31.62
11780,-3.8716,0.1479,-0.1539,-1929.44,-765.44,-1734.74
11790,-3.8715,0.1794,-0.1356,-1054.44,297.12,-1984.68
11800,-3.8713,0.1880,-0.1210,-1023.19,-1359.07,1952.82
11810,-3.8712,0.1722,-0.1182,70.56,515.99,1046.63
11820,-3.8712,0.1445,-0.1228,-1945.07,875.31,-843.99
11830,-3.8711,0.1207,-0.1259,-1491.94,281.49,749.76
11840,-3.8711,0.1133,-0.1205,-538.82,-109.19,-1375.31
11850,-3.8710,0.1234,-0.1075,-1491.94,578.31,1202.88
11860,-3.8708,0.1434,-0.0923,-195.07,-1765.44,156.01
11870,-3.8708,0.1614,-0.0797,-1632.57,187.74,-1281.43
11880,-3.8707,0.1671,-0.0731,664.31,1797.18,562.32
11890,-3.8707,0.1577,-0.0707,1398.68,-1359.07,1531.07
11900,-3.8707,0.1360,-0.0665,195.56,-1046.57,1531.07
11910,-3.8707,0.1111,-0.0597,1414.31,-515.38,812.32
11920,-3.8708,0.0907,-0.0529,-1773.19,359.56,-250.12
11930,-3.8708,0.0778,-0.0548,-382.57,1234.50,-1453.25
11940,-3.8708,0.0750,-0.0702,1961.18,984.50,1281.13
11950,-3.8708,0.0837,-0.0874,1601.81,-984.25,187.32
11960,-3.8710,0.0994,-0.0962,-1273.19,812.62,-656.43
11970,-3.8710,0.1145,-0.0970,726.81,-312.32,-1359.62
11980,-3.8710,0.1235,-0.0935,-1335.69,-421.69,1874.76
11990,-3.8710,0.1230,-0.0905,-179.44,31.43,843.57
12000,-3.8711,0.1166,-0.0905,-241.94,422.06,-265.81
12010,-3.8711,0.1080,-0.0945,-1070.07,422.06,-1375.18
12020,-3.8711,0.1000,-0.0996,1836.18,-93.57,1531.01
12030,-3.8711,0.0948,-0.1028,804.93,-749.82,515.38
12040,-3.8712,0.0912,-0.1061,148.68,-1156.07,-406.49
12050,-3.8712,0.0891,-0.1077,-320.07,-1578.00,-1203.37
12060,-3.8712,0.0881,-0.1080,-585.69,-1781.13,1937.26
12070,-3.8712,0.0880,-0.1097,-710.69,-1828.00,1171.63
12080,-3.8712,0.0923,-0.1108,-726.32,1953.25,702.88
12090,-3.8712,0.1018,-0.1113,-179.44,1812.62,593.51
12100,-3.8712,0.1128,-0.1090,1039.31,1750.18,656.01
12110,-3.8712,0.1168,-0.1050,-1554.44,-1952.94,624.76
12120,-3.8712,0.1108,-0.1073,-1038.82,-1437.32,374.76
12130,-3.8712,0.1021,-0.1128,-1804.44,-1734.19,93.51
12140,-3.8713,0.0972,-0.1150,1070.56,1562.68,-140.87
12150,-3.8713,0.0967,-0.1145,445.56,1281.43,-468.99
12160,-3.8713,0.0985,-0.1130,383.06,1343.93,-781.49
12170,-3.8713,0.1005,-0.1125,617.43,1531.43,-968.99
12180,-3.8713,0.1007,-0.1117,867.43,1593.93,-890.87
12190,-3.8713,0.0986,-0.1079,898.68,1703.31,-703.37
12200,-3.8713,0.0957,-0.1045,633.06,-1812.32,-687.74
12210,-3.8713,0.0947,-0.1049,258.06,-1374.82,-672.12
12220,-3.8713,0.0945,-0.1066,133.06,-1421.69,-672.12
12230,-3.8713,0.0948,-0.1068,101.81,-1640.44,-859.62
12240,-3.8713,0.0975,-0.1066,148.68,-1671.69,-1125.24
12250,-3.8713,0.1018,-0.1075,492.43,-1640.44,-1297.12
12260,-3.8713,0.1056,-0.1084,1039.31,-1765.44,-1343.99
12270,-3.8713,0.1036,-0.1093,1523.68,-1874.82,-1484.62
12280,-3.8713,0.0969,-0.1127,1273.68,-1984.19,-1515.87
12290,-3.8713,0.0930,-0.1195,414.31,1578.31,-968.99
12300,-3.8712,0.0952,-0.1244,-85.69,703.25,390.38
12310,-3.8712,0.1016,-0.1183,195.56,78.31,-1468.99
12320,-3.8711,0.1079,-0.1021,1008.06,859.56,796.63
12330,-3.8711,0.1107,-0.0869,1820.56,-1062.32,-1422.12
12340,-3.8711,0.1080,-0.0800,-1820.07,875.18,-297.06
12350,-3.8710,0.0994,-0.0817,1836.18,1765.81,77.94
12360,-3.8711,0.0898,-0.0886,726.81,1547.06,-62.68
12370,-3.8711,0.0864,-0.0945,-491.94,656.37,-437.68
12380,-3.8711,0.0897,-0.0975,-929.44,-93.63,-781.49
12390,-3.8711,0.0974,-0.1005,-507.57,-484.25,-812.74
12400,-3.8711,0.1093,-0.1027,476.81,-859.19,-453.37
12410,-3.8711,0.1226,-0.1017,1992.43,-1140.44,-47.12
12420,-3.8710,0.1318,-0.0975,-304.44,-1015.44,156.01
12430,-3.8710,0.1327,-0.0934,883.06,-484.13,62.26
12440,-3.8711,0.1265,-0.0914,992.43,47.12,-484.56
12450,-3.8711,0.1176,-0.0947,195.56,297.12,-1390.81
12460,-3.8711,0.1105,-0.1012,-945.07,-124.82,1499.76
12470,-3.8711,0.1068,-0.1055,-1851.32,-952.94,249.76
12480,-3.8712,0.1055,-0.1075,1679.93,-1499.82,-828.37
12490,-3.8712,0.1062,-0.1079,1508.06,-1765.44,-1484.62
12500,-3.8712,0.1067,-0.1057,1601.81,-1812.32,-1750.24
12510,-3.8712,0.1042,-0.1024,1664.31,-1531.07,-1859.62
12520,-3.8712,0.1001,-0.0999,1351.81,-1109.19,1968.51
12530,-3.8712,0.0952,-0.0988,820.56,-781.07,1640.38
12540,-3.8712,0.0905,-0.1023,195.56,-640.44,1406.01
12550,-3.8712,0.0896,-0.1068,-413.82,-1093.63,1437.26
12560,-3.8712,0.0955,-0.1060,-523.19,-1671.75,1671.63
12570,-3.8712,0.1045,-0.1028,226.81,-1562.32,-1984.62
12580,-3.8712,0.1134,-0.1022,1383.06,-1156.07,-1781.49
12590,-3.8712,0.1212,-0.1073,-1476.32,-1077.94,1984.13
12600,-3.8712,0.1276,-0.1182,-476.32,-1734.19,1359.13
12610,-3.8712,0.1334,-0.1287,336.18,875.24,812.26
12620,-3.8712,0.1377,-0.1316,1086.18,-468.51,484.07
12630,-3.8712,0.1389,-0.1249,1633.06,-843.51,405.94
12640,-3.8712,0.1339,-0.1168,1789.31,15.87,671.63
12650,-3.8712,0.1241,-0.1150,1148.68,1047.12,1437.26
12660,-3.8712,0.1177,-0.1135,-101.32,1281.43,-1359.62
12670,-3.8712,0.1177,-0.1099,-929.44,1468.93,-406.49
12680,-3.8712,0.1204,-0.1106,-929.44,1937.68,-156.49
12690,-3.8712,0.1211,-0.1172,-585.69,1843.93,-531.49
12700,-3.8712,0.1194,-0.1245,-491.94,1000.18,-1390.87
12710,-3.8712,0.1188,-0.1256,-710.69,62.68,1734.13
12720,-3.8712,0.1198,-0.1208,-788.82,-77.94,1046.57
12730,-3.8712,0.1193,-0.1184,-663.82,531.43,656.01
12740,-3.8712,0.1158,-0.1194,-726.32,843.93,827.88
12750,-3.8712,0.1101,-0.1174,-1163.82,718.93,1202.88
12760,-3.8712,0.1029,-0.1150,-1898.19,968.93,1187.26
12770,-3.8712,0.0981,-0.1183,1179.93,1281.43,827.88
12780,-3.8712,0.0942,-0.1235,570.56,859.56,499.76
12790,-3.8712,0.0874,-0.1246,70.56,187.68,327.88
12800,-3.8712,0.0797,-0.1239,-804.44,47.00,468.51
12810,-3.8712,0.0759,-0.1233,-1788.82,140.75,937.26
12820,-3.8712,0.0763,-0.1226,1726.81,218.87,1671.63
12830,-3.8712,0.0776,-0.1223,1773.68,312.62,-1484.62
12840,-3.8712,0.0787,-0.1212,1945.56,343.87,-656.49
12850,-3.8711,0.0811,-0.1171,-1913.82,484.50,140.38
12860,-3.8711,0.0852,-0.1117,-1616.94,1015.75,781.01
12870,-3.8711,0.0891,-0.1090,-1085.69,1703.25,1171.63
12880,-3.8711,0.0940,-0.1111,-585.69,-1953.00,1234.13
12890,-3.8711,0.1018,-0.1158,39.31,1781.43,1124.76
12900,-3.8711,0.1101,-0.1205,1039.31,1172.06,1031.01
12910,-3.8711,0.1182,-0.1244,-1898.19,578.31,984.13
12920,-3.8711,0.1255,-0.1267,-866.94,78.31,937.26
12930,-3.8711,0.1292,-0.1263,70.56,-218.51,921.57
12940,-3.8711,0.1272,-0.1256,539.31,-171.63,859.07
12950,-3.8711,0.1212,-0.1272,289.31,-77.88,640.32
12960,-3.8711,0.1154,-0.1279,-476.32,-281.07,374.69
12970,-3.8711,0.1117,-0.1240,-1226.32,-374.82,202.82
12980,-3.8712,0.1116,-0.1185,-1695.07,125.18,-0.24
12990,-3.8712,0.1160,-0.1167,-1710.69,828.31,-125.24
13000,-3.8712,0.1227,-0.1165,-1148.19,1062.68,-15.87
13010,-3.8711,0.1266,-0.1147,-288.82,1093.93,77.88
13020,-3.8712,0.1245,-0.1156,211.18,1312.74,-140.87
13030,-3.8712,0.1185,-0.1195,-54.44,1203.31,-640.87
13040,-3.8712,0.1123,-0.1228,-820.07,703.31,-1156.49
13050,-3.8712,0.1097,-0.1261,-1616.94,281.43,-1640.87
13060,-3.8712,0.1133,-0.1320,-1945.07,-140.44,-1922.18
13070,-3.8712,0.1228,-0.1385,-1491.94,-890.44,-1781.56
13080,-3.8712,0.1348,-0.1392,-273.19,-1734.19,-1172.18
13090,-3.8712,0.1411,-0.1321,1258.06,-1812.26,-328.43
13100,-3.8711,0.1378,-0.1227,-1929.44,-906.01,140.32
13110,-3.8711,0.1276,-0.1165,1648.68,297.12,202.88
13120,-3.8711,0.1146,-0.1162,336.18,1093.99,171.63
13130,-3.8711,0.1029,-0.1202,-1320.07,1125.18,77.88
13140,-3.8711,0.0957,-0.1213,1179.93,609.56,46.63
13150,-3.8712,0.0929,-0.1187,258.06,468.93,-15.87
13160,-3.8712,0.0934,-0.1156,-101.32,812.62,-172.12
13170,-3.8712,0.0969,-0.1119,-38.82,1203.25,-250.24
13180,-3.8712,0.0991,-0.1096,414.31,1672.06,-297.12
13190,-3.8712,0.0974,-0.1133,695.56,1968.93,-265.87
13200,-3.8712,0.0933,-0.1206,476.81,1500.18,-187.74
13210,-3.8712,0.0885,-0.1248,-54.44,562.62,-375.24
13220,-3.8712,0.0851,-0.1237,-663.82,31.37,-875.24
13230,-3.8712,0.0839,-0.1207,-1101.32,172.00,-1484.62
13240,-3.8712,0.0835,-0.1224,-1257.57,547.00,-1906.49
13250,-3.8712,0.0834,-0.1261,-1304.44,328.25,-1828.37
13260,-3.8712,0.0839,-0.1259,-1320.07,-140.50,-1390.93
13270,-3.8712,0.0848,-0.1217,-1257.57,-109.25,-797.18
13280,-3.8712,0.0863,-0.1166,-1132.57,422.00,-312.74
13290,-3.8712,0.0880,-0.1118,-945.07,1078.25,-250.24
13300,-3.8712,0.0895,-0.1095,-726.32,1687.62,-687.74
13310,-3.8712,0.0883,-0.1141,-538.82,1984.50,-1734.62
13320,-3.8712,0.0847,-0.1257,-695.07,1390.75,593.51
13330,-3.8713,0.0829,-0.1390,-1148.19,-93.63,-1281.56
13340,-3.8713,0.0857,-0.1475,-1382.57,-1796.75,1171.57
13350,-3.8713,0.0894,-0.1477,-1023.19,1125.12,280.94
13360,-3.8715,0.0898,-0.1451,-554.44,1093.87,-0.31
13370,-3.8713,0.0890,-0.1470,-491.94,1422.00,249.69
13380,-3.8713,0.0896,-0.1482,-601.32,1187.62,1093.44
13390,-3.8713,0.0916,-0.1421,-523.19,1031.37,-1500.31
13400,-3.8712,0.0918,-0.1333,-273.19,1812.62,155.94
13410,-3.8712,0.0903,-0.1265,-241.94,-1062.38,1687.19
13420,-3.8712,0.0881,-0.1218,-429.44,-187.38,-1187.81
13430,-3.8712,0.0835,-0.1223,-710.69,406.37,-453.37
13440,-3.8712,0.0789,-0.1279,-1304.44,343.87,-109.62
13450,-3.8712,0.0784,-0.1335,-1898.19,-374.88,-140.93
13460,-3.8712,0.0828,-0.1351,-1960.69,-1093.63,-312.81
13470,-3.8712,0.0900,-0.1332,-1398.19,-1296.75,-640.93
13480,-3.8712,0.0970,-0.1333,-476.32,-1046.75,-1047.18
13490,-3.8712,0.1024,-0.1356,429.93,-1062.32,-1140.93
13500,-3.8712,0.1045,-0.1351,1117.43,-1359.19,-1062.81
13510,-3.8712,0.1038,-0.1331,1383.06,-1296.69,-1187.81
13520,-3.8712,0.1040,-0.1326,1289.31,-1031.07,-1312.81
13530,-3.8712,0.1072,-0.1318,1320.56,-968.57,-1281.56
13540,-3.8712,0.1121,-0.1300,1726.81,-874.82,-1219.06
13550,-3.8712,0.1165,-0.1298,-1648.19,-640.44,-1172.18
13560,-3.8712,0.1199,-0.1313,-1085.69,-609.19,-1078.43
13570,-3.8712,0.1207,-0.1310,-648.19,-812.32,-812.81
13580,-3.8712,0.1179,-0.1293,-538.82,-765.44,-687.81
13590,-3.8712,0.1127,-0.1305,-898.19,-546.69,-969.06
13600,-3.8712,0.1055,-0.1364,-1570.07,-702.94,-1734.68
13610,-3.8712,0.0975,-0.1437,1508.06,-1452.94,1234.07
13620,-3.8712,0.0923,-0.1434,492.43,1609.56,499.69
13630,-3.8712,0.0919,-0.1337,-179.44,1640.75,577.82
13640,-3.8712,0.0974,-0.1251,-226.32,-1109.25,1374.69
13650,-3.8712,0.1075,-0.1243,476.81,-15.44,-1265.93
13660,-3.8711,0.1141,-0.1257,1773.68,93.93,265.38
13670,-3.8711,0.1091,-0.1252,-1382.57,-93.57,1124.69
13680,-3.8711,0.0958,-0.1259,1976.81,-31.07,1015.32
13690,-3.8711,0.0833,-0.1284,273.68,-109.19,405.94
13700,-3.8712,0.0768,-0.1327,-1335.69,-437.38,-15.93
13710,-3.8711,0.0803,-0.1376,1836.18,-984.25,46.57
13720,-3.8711,0.0909,-0.1360,-1710.69,-1609.25,593.44
13730,-3.8711,0.0991,-0.1255,-351.32,-1406.13,1280.94
13740,-3.8711,0.1006,-0.1158,695.56,-62.32,1593.44
13750,-3.8711,0.0964,-0.1143,883.06,1172.06,1468.51
13760,-3.8711,0.0887,-0.1206,351.81,1375.18,749.76
13770,-3.8712,0.0836,-0.1298,-632.57,562.62,-234.62
13780,-3.8712,0.0841,-0.1332,-1288.82,-609.25,-1062.81
13790,-3.8712,0.0859,-0.1302,-1226.32,-1046.75,-1531.56
13800,-3.8712,0.0859,-0.1249,-991.94,-671.75,-1406.56
13810,-3.8712,0.0835,-0.1193,-991.94,15.75,-1031.49
13820,-3.8712,0.0792,-0.1167,-1304.44,734.50,-937.74
13830,-3.8712,0.0748,-0.1202,-1851.32,1062.62,-1328.37
13840,-3.8712,0.0709,-0.1266,1586.18,609.50,1890.38
13850,-3.8712,0.0675,-0.1309,1086.18,-203.00,1093.44
13860,-3.8712,0.0675,-0.1315,648.68,-749.88,718.44
13870,-3.8712,0.0723,-0.1277,648.68,-828.00,1093.44
13880,-3.8712,0.0787,-0.1204,1258.06,-343.63,1937.19
13890,-3.8712,0.0856,-0.1150,-1913.82,593.87,-1281.49
13900,-3.8712,0.0886,-0.1160,-1038.82,1281.37,-812.74
13910,-3.8712,0.0851,-0.1206,-648.19,1156.37,-781.49
13920,-3.8712,0.0780,-0.1234,-1101.32,562.62,-1218.99
13930,-3.8712,0.0713,-0.1276,1992.43,203.25,1984.13
13940,-3.8712,0.0710,-0.1355,1133.06,-328.00,1155.94
13950,-3.8712,0.0791,-0.1373,1101.81,-1343.63,921.57
13960,-3.8712,0.0881,-0.1301,-1866.94,-1578.00,1577.82
13970,-3.8712,0.0945,-0.1239,-710.69,-656.13,-1344.06
13980,-3.8712,0.0978,-0.1219,101.81,140.81,-437.74
13990,-3.8712,0.0970,-0.1193,523.68,390.81,-265.87
14000,-3.8712,0.0918,-0.1180,429.93,734.56,-875.24
14010,-3.8712,0.0836,-0.1227,-241.94,890.75,-1828.37
14020,-3.8712,0.0762,-0.1277,-1288.82,297.00,1640.38
14030,-3.8712,0.0742,-0.1329,1758.06,-343.63,1952.82
14040,-3.8712,0.0828,-0.1377,1508.06,-1015.50,-812.81
14050,-3.8711,0.0974,-0.1360,-1398.19,-1624.88,1140.32
14060,-3.8711,0.1075,-0.1316,476.81,-1406.07,-781.56
14070,-3.8710,0.1108,-0.1304,1773.68,-843.57,905.94
14080,-3.8710,0.1088,-0.1328,-1804.44,-687.32,1859.07
14090,-3.8710,0.1033,-0.1332,1929.93,-999.82,1984.07
14100,-3.8710,0.0959,-0.1268,1226.81,-1046.69,1577.82
14110,-3.8710,0.0870,-0.1174,289.31,-234.19,984.07
14120,-3.8710,0.0782,-0.1118,-851.32,968.87,234.13
14130,-3.8711,0.0720,-0.1116,-1976.32,1687.62,-609.62
14140,-3.8711,0.0680,-0.1129,1226.81,1718.87,-1422.12
14150,-3.8711,0.0660,-0.1144,711.18,1547.00,1656.01
14160,-3.8711,0.0667,-0.1191,461.18,1359.50,327.88
14170,-3.8712,0.0692,-0.1284,539.31,750.12,-1047.12
14180,-3.8712,0.0736,-0.1362,867.43,-437.38,-1859.68
14190,-3.8712,0.0801,-0.1364,1429.93,-1437.38,1843.44
14200,-3.8712,0.0854,-0.1307,-1741.94,-1453.00,1749.69
14210,-3.8712,0.0874,-0.1245,-1054.44,-734.25,1530.94
14220,-3.8712,0.0853,-0.1210,-804.44,62.62,921.63
14230,-3.8712,0.0800,-0.1244,-1070.07,515.75,93.51
14240,-3.8713,0.0751,-0.1355,-1757.57,78.25,-781.49
14250,-3.8713,0.0740,-0.1429,1617.43,-1343.63,-1562.81
14260,-3.8713,0.0742,-0.1425,1476.81,1703.25,1812.19
14270,-3.8713,0.0740,-0.1400,1508.06,1765.75,1671.57
14280,-3.8713,0.0734,-0.1364,1476.81,-1921.75,-1969.06
14290,-3.8713,0.0737,-0.1345,1398.68,-1453.00,-1469.06
14300,-3.8713,0.0770,-0.1371,1445.56,-1218.63,-625.31
14310,-3.8712,0.0820,-0.1379,1867.43,-1546.75,577.82
14320,-3.8712,0.0845,-0.1355,-1491.94,-1656.13,1749.69
14330,-3.8712,0.0828,-0.1333,-1179.44,-1343.63,-1453.43
14340,-3.8712,0.0776,-0.1326,-1398.19,-1062.38,-1156.56
14350,-3.8712,0.0715,-0.1338,1945.56,-968.63,-1250.31
14360,-3.8712,0.0691,-0.1331,1164.31,-1124.88,-1625.31
14370,-3.8712,0.0713,-0.1316,851.81,-1031.13,1624.69
14380,-3.8712,0.0750,-0.1390,1133.06,-843.63,640.32
14390,-3.8712,0.0800,-0.1504,1601.81,-1796.75,109.07
14400,-3.8712,0.0851,-0.1544,-1757.57,750.12,249.69
14410,-3.8712,0.0896,-0.1519,-1101.32,234.50,780.94
14420,-3.8712,0.0957,-0.1484,-523.19,562.62,1343.44
14430,-3.8712,0.1018,-0.1458,258.06,1000.18,1921.57
14440,-3.8712,0.1053,-0.1404,1039.31,1343.93,-1469.06
14450,-3.8712,0.1050,-0.1370,1492.43,-1968.57,-1109.68
14460,-3.8712,0.1014,-0.1400,1445.56,-1531.07,-1062.81
14470,-3.8712,0.0975,-0.1447,992.43,-1921.69,-1094.06
14480,-3.8712,0.0944,-0.1472,492.43,1484.56,-1203.43
14490,-3.8712,0.0916,-0.1460,86.18,1156.43,-1328.43
14500,-3.8712,0.0885,-0.1449,-273.19,1312.62,-1375.31
14510,-3.8712,0.0854,-0.1461,-663.82,1453.25,-1375.31
14520,-3.8712,0.0840,-0.1482,-1054.44,1297.00,-1375.31
14530,-3.8712,0.0863,-0.1484,-1241.94,1031.37,-1187.81
14540,-3.8712,0.0923,-0.1442,-945.07,1000.12,-750.31
14550,-3.8712,0.1005,-0.1383,-179.44,1547.00,-125.31
14560,-3.8711,0.1072,-0.1366,867.43,-1702.94,546.57
14570,-3.8711,0.1083,-0.1387,1726.81,-1484.19,874.69
14580,-3.8711,0.1028,-0.1393,1867.43,-1749.82,796.57
14590,-3.8711,0.0931,-0.1382,1164.31,-1827.94,499.69
14600,-3.8712,0.0840,-0.1387,-70.07,-1687.38,-0.31
14610,-3.8712,0.0791,-0.1376,-1241.94,-1749.88,-375.31
14620,-3.8712,0.0791,-0.1337,-1866.94,-1609.25,-437.81
14630,-3.8712,0.0820,-0.1312,-1866.94,-1109.25,-453.43
14640,-3.8712,0.0862,-0.1323,-1491.94,-796.75,-422.18
14650,-3.8712,0.0906,-0.1365,-960.69,-937.38,-453.43
14660,-3.8712,0.0941,-0.1418,-398.19,-1468.63,-531.56
14670,-3.8712,0.0959,-0.1458,54.93,1843.93,-547.18
14680,-3.8712,0.0963,-0.1438,289.31,1343.93,-687.81
14690,-3.8712,0.0969,-0.1385,336.18,1593.93,-1047.18
14700,-3.8712,0.0980,-0.1357,414.31,-1734.19,-1234.68
14710,-3.8712,0.0974,-0.1359,554.93,-1374.82,-1078.43
14720,-3.8712,0.0928,-0.1382,476.81,-1390.44,-703.43
14730,-3.8712,0.0865,-0.1420,-116.94,-1687.38,-500.31
14740,-3.8712,0.0806,-0.1443,-913.82,1828.25,-765.93
14750,-3.8712,0.0739,-0.1440,-1679.44,1531.37,-1453.43
14760,-3.8712,0.0668,-0.1442,1461.18,1562.62,1640.32
14770,-3.8712,0.0630,-0.1447,554.93,1547.00,1093.44
14780,-3.8712,0.0636,-0.1447,70.56,1484.50,1296.57
14790,-3.8712,0.0704,-0.1420,148.68,1484.50,-1172.18
14800,-3.8711,0.0786,-0.1335,1023.68,1828.25,562.19
14810,-3.8711,0.0771,-0.1338,-1929.44,-1093.63,577.82
14820,-3.8711,0.0753,-0.1429,1883.06,-1124.88,671.57
14830,-3.8711,0.0776,-0.1434,1648.68,1703.25,-1890.93
14840,-3.8711,0.0792,-0.1409,1945.56,1640.75,1952.82
14850,-3.8711,0.0803,-0.1417,-1851.32,1968.87,218.44
14860,-3.8712,0.0731,-0.1440,-1710.69,1859.50,-797.18
14870,-3.8712,0.0591,-0.1495,1367.43,1562.62,-1500.31
14880,-3.8712,0.0502,-0.1560,-429.44,859.44,1702.82
14890,-3.8712,0.0498,-0.1553,-1570.07,31.31,1155.94
14900,-3.8712,0.0559,-0.1471,-1616.94,125.06,890.32
14910,-3.8712,0.0662,-0.1432,-835.69,1171.94,718.44
14920,-3.8712,0.0798,-0.1471,476.81,1672.00,640.32
14930,-3.8712,0.0946,-0.1516,-1773.19,1172.00,921.57
14940,-3.8712,0.1055,-0.1532,117.43,593.93,1484.07
14950,-3.8712,0.1079,-0.1528,1508.06,390.81,1827.82
14960,-3.8712,0.1013,-0.1525,1820.56,437.68,1655.94
14970,-3.8712,0.0890,-0.1534,976.81,484.56,999.69
14980,-3.8712,0.0760,-0.1565,-601.32,359.50,124.69
14990,-3.8713,0.0675,-0.1598,1742.43,-31.13,-703.49
15000,-3.8713,0.0669,-0.1602,648.68,-453.00,-1094.12
15010,-3.8713,0.0735,-0.1569,570.56,-499.88,-859.74
15020,-3.8713,0.0815,-0.1530,1414.31,-78.00,-297.24
15030,-3.8712,0.0864,-0.1497,-1554.44,422.00,499.69
15040,-3.8712,0.0870,-0.1460,-929.44,843.87,1343.44
15050,-3.8712,0.0835,-0.1421,-851.32,1312.62,1859.07
15060,-3.8712,0.0775,-0.1403,-1304.44,1812.62,1890.32
15070,-3.8712,0.0706,-0.1421,1929.93,-1953.00,1280.94
15080,-3.8712,0.0640,-0.1465,1039.31,1812.62,109.07
15090,-3.8713,0.0619,-0.1516,195.56,1250.12,-1265.93
15100,-3.8713,0.0677,-0.1571,-70.07,593.81,1780.94
15110,-3.8713,0.0808,-0.1620,679.93,-109.25,1921.51
15120,-3.8713,0.0972,-0.1624,-1648.19,-734.25,-765.99
15130,-3.8712,0.1099,-0.1559,445.56,-781.07,1140.26
15140,-3.8712,0.1130,-0.1456,-1929.44,47.06,-969.06
15150,-3.8711,0.1053,-0.1381,-1523.19,1359.56,546.57
15160,-3.8711,0.0916,-0.1357,1492.43,-1671.69,1530.94
15170,-3.8711,0.0797,-0.1355,-273.19,-1374.88,1984.07
15180,-3.8711,0.0736,-0.1354,-1788.82,-1343.63,-1812.81
15190,-3.8711,0.0735,-0.1354,1429.93,-1328.00,-1734.68
15200,-3.8711,0.0771,-0.1359,1414.31,-1328.00,1999.69
15210,-3.8711,0.0820,-0.1385,1883.06,-1390.50,1577.82
15220,-3.8711,0.0878,-0.1405,-1491.94,-1734.25,1296.57
15230,-3.8711,0.0929,-0.1376,-757.57,-1984.25,1187.19
15240,-3.8711,0.0942,-0.1348,-101.32,-1609.25,968.44
15250,-3.8711,0.0909,-0.1372,70.56,-1249.82,562.19
15260,-3.8712,0.0846,-0.1415,-351.32,-1562.38,-47.18
15270,-3.8712,0.0792,-0.1440,-1163.82,1890.75,-953.43
15280,-3.8712,0.0774,-0.1469,-1851.32,1562.62,-1969.06
15290,-3.8712,0.0801,-0.1483,1914.31,1203.25,1280.94
15300,-3.8712,0.0863,-0.1484,-1741.94,1015.75,859.07
15310,-3.8712,0.0931,-0.1461,-945.07,1000.12,812.19
15320,-3.8712,0.0975,-0.1401,-70.07,1297.00,1046.57
15330,-3.8712,0.0968,-0.1364,492.43,-1937.32,1109.07
15340,-3.8712,0.0914,-0.1368,398.68,-1452.94,843.44
15350,-3.8712,0.0809,-0.1403,-288.82,-1515.50,187.19
15360,-3.8713,0.0685,-0.1479,-1632.57,-1953.00,-844.06
15370,-3.8713,0.0614,-0.1550,773.68,1062.62,-1750.31
15380,-3.8713,0.0643,-0.1539,-132.57,156.31,1984.07
15390,-3.8713,0.0778,-0.1464,242.43,297.00,-1359.68
15400,-3.8712,0.0962,-0.1387,1961.18,1265.75,312.19
15410,-3.8712,0.1080,-0.1328,320.56,-1749.82,-1437.81
15420,-3.8711,0.1068,-0.1287,1836.18,-999.82,499.69
15430,-3.8711,0.0923,-0.1278,1679.93,-468.57,1484.07
15440,-3.8711,0.0723,-0.1309,-179.44,-359.25,1390.32
15450,-3.8711,0.0588,-0.1360,1258.06,-749.88,671.57
15460,-3.8711,0.0598,-0.1412,-460.69,-1406.19,93.44
15470,-3.8712,0.0759,-0.1420,-335.69,1921.94,-140.93
15480,-3.8712,0.0984,-0.1377,1726.81,1828.25,-15.93
15490,-3.8711,0.1129,-0.1328,601.81,-1624.82,624.69
15500,-3.8711,0.1132,-0.1313,-1538.82,-999.82,1327.82
15510,-3.8711,0.1034,-0.1359,-1507.57,-812.32,1718.44
15520,-3.8711,0.0917,-0.1434,1242.43,-1390.44,1718.44
15530,-3.8711,0.0834,-0.1506,-257.57,1640.75,1593.44
15540,-3.8711,0.0823,-0.1539,-1320.07,718.87,1624.69
15550,-3.8711,0.0924,-0.1460,-1460.69,297.00,-1719.06
15560,-3.8711,0.1080,-0.1287,-163.82,1312.62,-594.06
15570,-3.8710,0.1183,-0.1144,1836.18,-468.57,218.44
15580,-3.8710,0.1138,-0.1119,-851.32,1359.56,327.88
15590,-3.8711,0.0953,-0.1188,-1429.44,1672.06,-437.74
15600,-3.8711,0.0725,-0.1251,211.18,797.06,-1750.24
15610,-3.8711,0.0543,-0.1265,1289.31,-15.50,624.69
15620,-3.8712,0.0455,-0.1268,-1038.82,-187.44,-1203.43
15630,-3.8712,0.0470,-0.1315,1836.18,-234.31,1265.32
15640,-3.8712,0.0575,-0.1393,-1976.32,-828.06,499.69
15650,-3.8712,0.0734,-0.1461,-632.57,-1828.06,327.82
15660,-3.8712,0.0868,-0.1471,1398.68,1297.00,374.69
15670,-3.8712,0.0920,-0.1417,-882.57,1172.00,437.19
15680,-3.8712,0.0900,-0.1385,-210.69,1859.50,124.69
15690,-3.8713,0.0856,-0.1428,-476.32,-1734.25,-609.68
15700,-3.8713,0.0818,-0.1499,-1038.82,1718.87,-1297.18
15710,-3.8713,0.0797,-0.1545,-1523.19,812.62,-1422.18
15720,-3.8713,0.0819,-0.1538,-1788.82,218.87,-765.93
15730,-3.8712,0.0868,-0.1477,-1507.57,312.62,593.44
15740,-3.8712,0.0880,-0.1389,-882.57,1093.87,-1797.18
15750,-3.8712,0.0824,-0.1313,-726.32,-1781.13,-656.56
15760,-3.8712,0.0729,-0.1284,-1445.07,-812.38,-390.93
15770,-3.8712,0.0652,-0.1311,1336.18,-437.38,-969.06
15780,-3.8712,0.0657,-0.1376,351.81,-781.13,1999.69
15790,-3.8712,0.0752,-0.1425,414.31,-1609.25,952.82
15800,-3.8712,0.0890,-0.1443,1633.06,1765.75,312.19
15810,-3.8712,0.1012,-0.1478,-601.32,1531.37,296.57
15820,-3.8712,0.1077,-0.1512,961.18,1078.31,999.69
15830,-3.8712,0.1064,-0.1479,1789.31,640.81,-1703.43
15840,-3.8712,0.0986,-0.1421,1633.06,1062.68,-500.31
15850,-3.8712,0.0878,-0.1410,633.06,1812.68,-15.93
15860,-3.8712,0.0758,-0.1445,-757.57,1953.25,-94.06
15870,-3.8712,0.0684,-0.1471,1711.18,1500.12,-297.18
15880,-3.8712,0.0709,-0.1428,758.06,1172.00,-437.81
15890,-3.8712,0.0806,-0.1349,1086.18,1718.87,-453.43
15900,-3.8712,0.0923,-0.1304,-1679.44,-1265.50,-344.06
15910,-3.8712,0.1003,-0.1304,-179.44,-687.38,-0.31
15920,-3.8711,0.0992,-0.1318,851.81,-687.32,562.19
15930,-3.8711,0.0900,-0.1323,711.18,-874.82,843.44
15940,-3.8711,0.0789,-0.1332,-476.32,-937.38,359.07
15950,-3.8712,0.0701,-0.1353,-1898.19,-1046.75,-656.56
15960,-3.8712,0.0660,-0.1366,976.81,-1312.38,-1734.68
15970,-3.8712,0.0664,-0.1367,461.18,-1484.25,1515.32
15980,-3.8712,0.0690,-0.1359,508.06,-1499.88,1187.19
15990,-3.8712,0.0731,-0.1349,836.18,-1390.50,1093.44
16000,-3.8712,0.0778,-0.1326,1367.43,-1265.50,1234.07
16010,-3.8712,0.0797,-0.1285,1961.18,-968.63,1359.07
16020,-3.8712,0.0782,-0.1270,-1788.82,-453.00,1296.57
16030,-3.8712,0.0764,-0.1309,-1976.32,-249.88,1187.19
16040,-3.8712,0.0767,-0.1384,1789.31,-749.88,1155.94
16050,-3.8712,0.0798,-0.1421,1820.56,-1718.63,1093.44
16060,-3.8712,0.0848,-0.1372,-1773.19,1812.62,1140.32
16070,-3.8712,0.0881,-0.1304,-1132.57,-1562.38,1499.69
16080,-3.8712,0.0875,-0.1294,-710.69,-687.38,1827.82
16090,-3.8712,0.0847,-0.1324,-788.82,-562.38,1687.19
16100,-3.8712,0.0806,-0.1355,-1148.19,-953.00,1015.32
16110,-3.8712,0.0745,-0.1375,-1679.44,-1343.63,15.32
16120,-3.8713,0.0676,-0.1401,1539.31,-1593.63,-797.18
16130,-3.8713,0.0646,-0.1440,664.31,-1937.38,-1062.81
16140,-3.8713,0.0690,-0.1450,273.68,1562.62,-703.43
16150,-3.8712,0.0798,-0.1399,836.18,1437.62,187.19
16160,-3.8712,0.0924,-0.1292,-1773.19,-1906.13,1452.82
16170,-3.8712,0.1029,-0.1179,-163.82,-531.13,-1312.81
16180,-3.8712,0.1071,-0.1122,1179.93,906.43,-625.24
16190,-3.8712,0.1030,-0.1108,1711.18,1640.81,-687.74
16200,-3.8712,0.0909,-0.1119,1195.56,1812.68,-1968.99
16210,-3.8713,0.0704,-0.1187,-351.32,1672.00,-312.74
16220,-3.8713,0.0485,-0.1332,1023.68,812.62,1171.63
16230,-3.8715,0.0381,-0.1489,-1788.82,-1046.81,-594.06
16240,-3.8715,0.0448,-0.1569,883.06,937.56,-1078.43
16250,-3.8715,0.0621,-0.1561,1742.43,-78.06,-312.87
16260,-3.8713,0.0825,-0.1508,-38.82,15.69,1280.94
16270,-3.8713,0.1022,-0.1454,-1429.44,703.25,-797.18
16280,-3.8712,0.1151,-0.1411,1086.18,1390.81,1421.57
16290,-3.8712,0.1122,-0.1371,-1257.57,1937.68,-422.18
16300,-3.8711,0.0956,-0.1367,-1632.57,-1546.69,1265.32
16310,-3.8711,0.0778,-0.1367,242.43,-1499.82,-1125.31
16320,-3.8710,0.0662,-0.1313,1961.18,-1499.88,593.44
16330,-3.8710,0.0625,-0.1226,476.81,-812.38,-1953.43
16340,-3.8710,0.0634,-0.1158,8.06,312.62,-1031.49
16350,-3.8710,0.0646,-0.1158,117.43,1172.00,-703.37
16360,-3.8710,0.0636,-0.1199,273.68,1172.00,-859.62
16370,-3.8710,0.0614,-0.1215,148.68,656.37,-1203.37
16380,-3.8710,0.0598,-0.1167,-132.57,453.19,-1390.87
16390,-3.8710,0.0581,-0.1082,-335.69,1062.56,-1484.62
16400,-3.8710,0.0563,-0.1049,-554.44,-1843.69,-1625.24
16410,-3.8710,0.0552,-0.1086,-788.82,-1421.81,1984.13
16420,-3.8710,0.0563,-0.1140,-929.44,-1906.19,1093.51
16430,-3.8711,0.0605,-0.1190,-788.82,1406.31,-297.12
16440,-3.8711,0.0665,-0.1230,-241.94,765.69,1921.63
16450,-3.8712,0.0713,-0.1260,523.68,250.12,-47.12
16460,-3.8712,0.0740,-0.1271,1133.06,-124.88,-1922.18
16470,-3.8712,0.0746,-0.1273,1476.81,-265.50,593.44
16480,-3.8713,0.0718,-0.1293,1554.93,-296.75,-281.56
16490,-3.8713,0.0658,-0.1310,1195.56,-546.75,-531.56
16500,-3.8713,0.0565,-0.1301,429.93,-765.50,-297.18
16510,-3.8712,0.0468,-0.1267,-757.57,-656.19,62.19
16520,-3.8712,0.0424,-0.1217,1992.43,-218.69,421.57
16530,-3.8712,0.0433,-0.1150,1429.93,421.94,781.01
16540,-3.8712,0.0450,-0.1088,1554.93,1281.31,1156.01
16550,-3.8712,0.0427,-0.1093,1773.68,-1921.81,1468.51
16560,-3.8712,0.0356,-0.1178,1476.81,-1984.31,1671.63
16570,-3.8712,0.0295,-0.1246,570.56,921.94,1671.63
16580,-3.8712,0.0304,-0.1254,-210.69,46.88,1749.76
16590,-3.8712,0.0377,-0.1238,-101.32,-46.88,-1453.43
16600,-3.8712,0.0437,-0.1235,836.18,156.31,-703.37
16610,-3.8712,0.0468,-0.1244,1601.81,187.56,-515.87
16620,-3.8712,0.0514,-0.1226,1992.43,78.19,-531.49
16630,-3.8712,0.0573,-0.1217,-1413.82,312.56,-578.37
16640,-3.8712,0.0643,-0.1252,-663.82,421.94,-531.49
16650,-3.8712,0.0729,-0.1278,242.43,-31.13,-375.31
16660,-3.8712,0.0797,-0.1248,1336.18,-359.25,-140.93
16670,-3.8711,0.0846,-0.1196,-1788.82,31.37,218.51
16680,-3.8711,0.0874,-0.1172,-1163.82,687.62,577.88
16690,-3.8711,0.0862,-0.1189,-804.44,1000.12,640.38
16700,-3.8711,0.0829,-0.1234,-960.69,781.37,374.76
16710,-3.8711,0.0803,-0.1254,-1382.57,203.25,62.26
16720,-3.8712,0.0785,-0.1212,-1710.69,-46.75,-187.81
16730,-3.8712,0.0752,-0.1139,-1945.07,484.50,-343.99
16740,-3.8712,0.0695,-0.1071,1633.06,1422.00,-578.37
16750,-3.8712,0.0626,-0.1017,898.68,-1703.00,-1218.99
16760,-3.8712,0.0565,-0.1002,23.68,-1015.50,1702.88
16770,-3.8712,0.0544,-0.1051,-757.57,-828.06,421.63
16780,-3.8713,0.0582,-0.1124,-1023.19,-1453.06,-734.62
16790,-3.8713,0.0638,-0.1180,-538.82,1609.44,-1484.62
16800,-3.8713,0.0677,-0.1218,179.93,890.75,-1859.62
16810,-3.8713,0.0688,-0.1212,679.93,406.37,-1547.12
16820,-3.8713,0.0657,-0.1178,820.56,484.50,-531.49
16830,-3.8712,0.0597,-0.1157,414.31,922.00,859.13
16840,-3.8712,0.0529,-0.1161,-351.32,1187.56,-1687.74
16850,-3.8712,0.0483,-0.1202,-1226.32,1140.69,-500.24
16860,-3.8711,0.0511,-0.1254,-1804.44,609.44,593.51
16870,-3.8711,0.0583,-0.1244,-1445.07,-46.81,1874.69
16880,-3.8711,0.0653,-0.1189,-523.19,78.19,-765.87
16890,-3.8710,0.0724,-0.1171,367.43,781.37,218.51
16900,-3.8710,0.0785,-0.1205,1273.68,1015.75,640.38
16910,-3.8710,0.0834,-0.1215,-1945.07,578.25,671.63
16920,-3.8710,0.0880,-0.1173,-1320.07,453.25,452.88
16930,-3.8710,0.0897,-0.1144,-726.32,984.50,171.63
16940,-3.8711,0.0865,-0.1150,-507.57,1359.50,-31.49
16950,-3.8711,0.0806,-0.1162,-913.82,1281.37,-312.74
16960,-3.8711,0.0743,-0.1171,-1679.44,1125.12,-937.74
16970,-3.8711,0.0710,-0.1184,1523.68,1015.75,-1859.62
16980,-3.8711,0.0729,-0.1204,1101.81,843.87,1281.01
16990,-3.8711,0.0771,-0.1228,1336.18,593.87,781.01
17000,-3.8711,0.0834,-0.1239,1883.06,281.37,702.88
17010,-3.8711,0.0908,-0.1238,-1320.07,140.75,890.38
17020,-3.8711,0.0935,-0.1251,-366.94,156.37,999.76
17030,-3.8711,0.0931,-0.1256,-23.19,-15.50,765.32
17040,-3.8711,0.0935,-0.1229,-70.07,-78.00,218.44
17050,-3.8712,0.0922,-0.1165,-23.19,265.75,-375.24
17060,-3.8712,0.0902,-0.1095,-195.07,1093.87,-843.99
17070,-3.8712,0.0883,-0.1050,-445.07,1984.50,-1422.12
17080,-3.8712,0.0845,-0.1041,-695.07,-1437.38,1874.76
17090,-3.8712,0.0815,-0.1071,-1179.44,-1328.00,1406.01
17100,-3.8712,0.0797,-0.1115,-1554.44,-1703.00,1124.76
17110,-3.8712,0.0742,-0.1184,-1788.82,1734.50,749.76
17120,-3.8712,0.0681,-0.1249,1508.06,843.87,390.38
17130,-3.8712,0.0663,-0.1254,726.81,15.75,265.38
17140,-3.8712,0.0668,-0.1230,492.43,-46.75,484.07
17150,-3.8712,0.0695,-0.1218,554.93,250.12,906.01
17160,-3.8712,0.0726,-0.1213,898.68,406.37,1327.88
17170,-3.8712,0.0746,-0.1233,1304.93,468.87,1640.38
17180,-3.8712,0.0768,-0.1262,1554.93,218.87,1687.26
17190,-3.8712,0.0787,-0.1290,1836.18,-156.13,1234.07
17200,-3.8712,0.0798,-0.1305,-1913.82,-515.50,718.44
17210,-3.8712,0.0809,-0.1274,-1773.19,-703.00,530.94
17220,-3.8712,0.0807,-0.1248,-1632.57,-312.38,718.44
17230,-3.8712,0.0781,-0.1255,-1663.82,31.37,1202.88
17240,-3.8712,0.0752,-0.1279,-1991.94,-62.38,1484.07
17250,-3.8712,0.0723,-0.1318,1633.06,-374.88,1249.69
17260,-3.8712,0.0710,-0.1345,1258.06,-874.88,640.32
17270,-3.8712,0.0739,-0.1340,1101.81,-1218.63,93.44
17280,-3.8712,0.0793,-0.1305,1461.18,-1156.13,15.32
17290,-3.8712,0.0848,-0.1232,-1835.69,-703.00,484.07
17300,-3.8712,0.0876,-0.1172,-1132.57,234.50,1202.88
17310,-3.8712,0.0867,-0.1190,-773.19,1000.12,-1906.49
17320,-3.8712,0.0833,-0.1251,-898.19,765.75,-1047.12
17330,-3.8712,0.0814,-0.1293,-1335.69,-15.50,-765.93
17340,-3.8712,0.0824,-0.1318,-1570.07,-546.75,-1281.56
17350,-3.8712,0.0835,-0.1346,-1445.07,-874.88,1952.82
17360,-3.8712,0.0846,-0.1361,-1304.44,-1234.25,1499.69
17370,-3.8712,0.0887,-0.1340,-1163.82,-1421.75,1640.32
17380,-3.8712,0.0973,-0.1271,-632.57,-1156.13,-1734.68
17390,-3.8712,0.1041,-0.1198,461.18,-265.44,-1094.06
17400,-3.8712,0.1050,-0.1210,1336.18,672.06,-687.74
17410,-3.8712,0.1030,-0.1284,1445.56,515.81,-484.62
17420,-3.8712,0.1011,-0.1340,1195.56,-437.32,-375.31
17430,-3.8712,0.0988,-0.1329,945.56,-1156.07,-250.31
17440,-3.8711,0.0950,-0.1261,648.68,-1015.44,343.44
17450,-3.8711,0.0876,-0.1152,164.31,-140.44,1499.69
17460,-3.8711,0.0773,-0.1046,-773.19,1250.12,-1375.24
17470,-3.8711,0.0670,-0.1006,1898.68,-1390.50,-922.12
17480,-3.8711,0.0609,-0.1019,586.18,-874.88,-922.12
17490,-3.8711,0.0638,-0.1030,-195.07,-1046.81,-1031.49
17500,-3.8711,0.0717,-0.1013,179.93,-1187.38,-1297.12
17510,-3.8711,0.0795,-0.0996,1179.93,-968.63,-1625.24
17520,-3.8711,0.0863,-0.1001,-1820.07,-749.88,-1906.49
17530,-3.8711,0.0886,-0.1046,-945.07,-812.38,1937.26
17540,-3.8711,0.0848,-0.1123,-648.19,-1390.50,1765.38
17550,-3.8711,0.0797,-0.1193,-1132.57,1625.12,1577.88
17560,-3.8711,0.0765,-0.1234,-1788.82,734.50,1437.26
17570,-3.8711,0.0763,-0.1272,1804.93,203.25,1296.63
17580,-3.8711,0.0797,-0.1331,1773.68,-281.13,1265.32
17590,-3.8711,0.0840,-0.1360,-1788.82,-1031.13,1374.69
17600,-3.8711,0.0863,-0.1327,-1241.94,-1406.13,1499.69
17610,-3.8711,0.0865,-0.1260,-945.07,-984.25,1437.19
17620,-3.8711,0.0837,-0.1199,-913.82,-124.88,1109.07
17630,-3.8711,0.0764,-0.1204,-1273.19,656.37,468.51
17640,-3.8712,0.0684,-0.1252,1789.31,593.87,-406.49
17650,-3.8712,0.0632,-0.1252,758.06,-31.13,-1406.56
17660,-3.8712,0.0608,-0.1215,101.81,-31.13,1796.57
17670,-3.8712,0.0603,-0.1213,-210.69,453.19,1499.76
17680,-3.8712,0.0635,-0.1232,-273.19,468.81,1827.88
17690,-3.8712,0.0714,-0.1239,133.06,234.50,-1640.87
17700,-3.8712,0.0791,-0.1259,1148.68,140.75,-1375.24
17710,-3.8712,0.0828,-0.1276,-1866.94,-109.25,-1000.31
17720,-3.8712,0.0831,-0.1259,-1398.19,-328.00,-453.43
17730,-3.8712,0.0837,-0.1207,-1351.32,-109.25,-203.43
17740,-3.8712,0.0883,-0.1144,-1273.19,547.00,-437.74
17750,-3.8712,0.0934,-0.1118,-695.07,1359.50,-1047.12
17760,-3.8712,0.0939,-0.1167,-38.82,1687.62,-1625.24
17770,-3.8712,0.0902,-0.1251,23.68,1062.68,1859.13
17780,-3.8712,0.0865,-0.1348,-445.07,-15.50,1421.57
17790,-3.8712,0.0891,-0.1411,-913.82,-1249.88,1452.82
17800,-3.8712,0.1024,-0.1377,-585.69,1937.62,-1594.06
17810,-3.8711,0.1215,-0.1331,1117.43,-1624.82,202.82
17820,-3.8711,0.1382,-0.1322,-445.07,-1031.07,-1797.18
17830,-3.8711,0.1465,-0.1304,1695.56,-921.63,-390.93
17840,-3.8711,0.1410,-0.1292,-1241.94,-687.26,-250.31
17850,-3.8711,0.1221,-0.1306,-1945.07,-531.01,-1281.56
17860,-3.8711,0.0979,-0.1365,-366.94,-718.57,1202.82
17870,-3.8712,0.0800,-0.1433,539.31,-1468.57,-265.93
17880,-3.8712,0.0741,-0.1464,-1757.57,1656.37,-1500.31
17890,-3.8712,0.0770,-0.1482,1492.43,1265.75,1593.44
17900,-3.8712,0.0823,-0.1517,1867.43,1031.37,1437.19
17910,-3.8712,0.0875,-0.1545,-1460.69,578.25,-1812.81
17920,-3.8712,0.0950,-0.1508,-788.82,218.87,-562.81
17930,-3.8711,0.1066,-0.1400,164.31,703.31,562.19
17940,-3.8711,0.1190,-0.1304,1648.68,-1921.69,1062.19
17950,-3.8711,0.1260,-0.1267,-757.57,-687.32,812.19
17960,-3.8712,0.1267,-0.1322,133.06,-218.51,-312.81
17970,-3.8712,0.1270,-0.1478,226.81,-921.63,-1844.06
17980,-3.8712,0.1317,-0.1637,258.06,1078.37,1093.44
17990,-3.8712,0.1387,-0.1703,867.43,-952.88,1015.26
18000,-3.8712,0.1453,-0.1646,1758.06,-1796.63,1952.76
18010,-3.8712,0.1483,-0.1534,-1398.19,-1062.26,-500.37
18020,-3.8711,0.1453,-0.1439,-1007.57,359.62,1155.94
18030,-3.8711,0.1366,-0.1353,-1398.19,1578.37,-1609.68
18040,-3.8711,0.1223,-0.1285,1492.43,-1312.26,-1156.56
18050,-3.8711,0.1044,-0.1229,-335.69,-452.94,-1500.31
18060,-3.8711,0.0848,-0.1205,1367.43,265.81,1609.13
18070,-3.8711,0.0668,-0.1266,-1132.57,578.25,484.13
18080,-3.8712,0.0553,-0.1332,554.93,-203.00,-703.43
18090,-3.8712,0.0502,-0.1342,-913.82,-1046.81,-1984.68
18100,-3.8712,0.0466,-0.1377,-1570.07,-1171.81,421.57
18110,-3.8713,0.0452,-0.1436,1976.81,-1624.94,-1265.93
18120,-3.8713,0.0455,-0.1477,1789.31,1625.06,1484.07
18130,-3.8713,0.0469,-0.1532,1836.18,1093.81,1062.19
18140,-3.8713,0.0531,-0.1586,-1991.94,390.69,1609.07
18150,-3.8713,0.0641,-0.1577,-1195.07,-296.81,-1125.37
18160,-3.8712,0.0726,-0.1500,211.18,-187.38,218.38
18170,-3.8712,0.0739,-0.1403,1304.93,797.00,734.07
18180,-3.8712,0.0679,-0.1339,1461.18,-1953.00,202.82
18190,-3.8713,0.0594,-0.1393,695.56,-1140.50,-1078.43
18200,-3.8713,0.0569,-0.1562,-382.57,-1828.06,1624.69
18210,-3.8713,0.0637,-0.1711,-710.69,0.06,1140.32
18220,-3.8713,0.0767,-0.1749,164.31,-1906.13,1515.26
18230,-3.8713,0.0887,-0.1715,1820.56,1609.50,-1625.37
18240,-3.8713,0.0947,-0.1661,-632.57,-1953.00,-625.37
18250,-3.8712,0.0941,-0.1615,133.06,-1265.44,93.38
18260,-3.8712,0.0901,-0.1588,54.93,-671.69,405.88
18270,-3.8712,0.0856,-0.1591,-460.69,-328.00,468.38
18280,-3.8712,0.0846,-0.1628,-1038.82,-359.25,515.26
18290,-3.8712,0.0889,-0.1660,-1163.82,-843.63,734.01
18300,-3.8712,0.0944,-0.1685,-616.94,-1249.88,1093.38
18310,-3.8712,0.1005,-0.1718,86.18,-1562.32,1671.51
18320,-3.8712,0.1072,-0.1754,867.43,-1984.19,-1765.99
18330,-3.8712,0.1111,-0.1764,1726.81,1547.06,-1437.87
18340,-3.8712,0.1108,-0.1744,-1773.19,1422.06,-1250.37
18350,-3.8712,0.1073,-0.1693,-1804.44,1672.06,-1203.49
18360,-3.8712,0.1014,-0.1642,1742.43,-1671.69,-1109.74
18370,-3.8712,0.0948,-0.1664,992.43,-1015.44,-750.37
18380,-3.8711,0.0952,-0.1707,148.68,-1296.69,124.63
18390,-3.8711,0.1084,-0.1675,195.56,-1843.57,1577.76
18400,-3.8711,0.1316,-0.1609,1883.06,-1437.32,-922.24
18410,-3.8710,0.1571,-0.1569,851.81,-593.51,140.26
18420,-3.8710,0.1753,-0.1555,117.43,-77.82,327.76
18430,-3.8711,0.1804,-0.1565,-1554.44,94.06,-375.31
18440,-3.8711,0.1736,-0.1576,-898.19,-30.94,-1515.99
18450,-3.8711,0.1584,-0.1569,-1773.19,-171.57,1109.01
18460,-3.8712,0.1390,-0.1558,289.31,-77.82,-328.49
18470,-3.8712,0.1219,-0.1570,1804.93,62.74,-1781.56
18480,-3.8712,0.1121,-0.1577,-382.57,-93.57,702.76
18490,-3.8713,0.1078,-0.1552,-1648.19,-187.32,-640.99
18500,-3.8713,0.1039,-0.1531,1804.93,140.81,-1640.93
18510,-3.8713,0.0974,-0.1553,1304.93,406.43,-1797.18
18520,-3.8713,0.0890,-0.1542,476.81,125.18,-1562.81
18530,-3.8713,0.0795,-0.1484,-601.32,265.75,-1734.68
18540,-3.8713,0.0701,-0.1464,-1820.07,1000.12,-1937.81
18550,-3.8713,0.0637,-0.1479,976.81,1265.75,-1906.56
18560,-3.8713,0.0616,-0.1500,164.31,1062.62,-1859.68
18570,-3.8713,0.0631,-0.1536,-101.32,796.94,-1953.43
18580,-3.8713,0.0669,-0.1587,86.18,343.87,-1844.06
18590,-3.8713,0.0719,-0.1619,570.56,-312.38,-1250.37
18600,-3.8713,0.0784,-0.1592,1211.18,-718.63,-265.99
18610,-3.8712,0.0854,-0.1538,-1960.69,-374.88,718.38
18620,-3.8712,0.0903,-0.1553,-1054.44,312.62,1452.82
18630,-3.8712,0.0924,-0.1622,-429.44,125.12,1999.69
18640,-3.8712,0.0924,-0.1654,-163.82,-765.50,-1625.37
18650,-3.8712,0.0913,-0.1617,-163.82,-1171.75,-1594.12
18660,-3.8712,0.0898,-0.1591,-304.44,-703.00,1999.63
18670,-3.8712,0.0887,-0.1654,-491.94,-359.25,1515.26
18680,-3.8712,0.0929,-0.1754,-632.57,-1171.75,1530.88
18690,-3.8712,0.1051,-0.1799,-101.32,1547.00,-1875.37
18700,-3.8712,0.1228,-0.1816,1461.18,968.93,-875.37
18710,-3.8711,0.1414,-0.1819,-273.19,750.18,468.38
18720,-3.8711,0.1549,-0.1772,-1898.19,718.99,1749.63
18730,-3.8711,0.1604,-0.1711,-163.82,1312.74,-1297.24
18740,-3.8711,0.1588,-0.1661,539.31,-1905.94,-953.49
18750,-3.8711,0.1523,-0.1608,336.18,-1265.32,-1453.49
18760,-3.8711,0.1443,-0.1552,-491.94,-577.88,1249.63
18770,-3.8712,0.1355,-0.1578,-1523.19,140.87,-531.56
18780,-3.8712,0.1265,-0.1687,1351.81,-202.88,1734.01
18790,-3.8712,0.1201,-0.1741,195.56,-1593.51,577.76
18800,-3.8713,0.1168,-0.1693,-616.94,1718.93,-62.87
18810,-3.8713,0.1132,-0.1595,-1038.82,-1671.69,-547.24
18820,-3.8713,0.1052,-0.1536,-1507.57,-421.69,-906.62
18830,-3.8713,0.0962,-0.1537,1476.81,343.93,-609.68
18840,-3.8712,0.0918,-0.1569,320.56,328.31,15.32
18850,-3.8712,0.0929,-0.1570,-241.94,-78.00,499.63
18860,-3.8712,0.0946,-0.1500,-101.32,-93.63,1530.88
18870,-3.8712,0.0951,-0.1415,117.43,797.06,-203.43
18880,-3.8711,0.0946,-0.1371,179.93,1890.81,1327.82
18890,-3.8711,0.0896,-0.1355,117.43,-1546.69,749.69
18900,-3.8712,0.0814,-0.1403,-523.19,-1343.63,-984.68
18910,-3.8712,0.0720,-0.1545,-1570.07,-1953.00,812.19
18920,-3.8713,0.0660,-0.1715,1226.81,218.87,-1031.56
18930,-3.8713,0.0691,-0.1819,461.18,-1953.00,-1937.87
18940,-3.8713,0.0806,-0.1804,851.81,718.87,-1687.87
18950,-3.8713,0.0945,-0.1722,-1679.44,906.37,-828.49
18960,-3.8712,0.1064,-0.1666,101.81,1953.31,234.01
18970,-3.8712,0.1150,-0.1625,1633.06,-1327.94,1234.01
18980,-3.8712,0.1178,-0.1580,-1273.19,-796.69,1843.38
18990,-3.8712,0.1145,-0.1614,-913.82,-218.57,1905.88
19000,-3.8712,0.1096,-0.1718,-1335.69,-656.07,1546.51
19010,-3.8712,0.1056,-0.1799,-1960.69,-1984.19,1030.88
19020,-3.8712,0.1024,-0.1824,1523.68,968.93,515.26
19030,-3.8712,0.1006,-0.1824,1117.43,656.43,30.88
19040,-3.8713,0.1012,-0.1830,883.06,656.43,-344.12
19050,-3.8713,0.1040,-0.1832,961.18,578.31,-359.74
19060,-3.8712,0.1085,-0.1831,1320.56,547.06,77.76
19070,-3.8712,0.1128,-0.1798,1898.68,562.68,968.38
19080,-3.8712,0.1143,-0.1710,-1554.44,984.56,-1812.87
19090,-3.8712,0.1116,-0.1609,-1366.94,-1890.44,-922.24
19100,-3.8712,0.1060,-0.1580,-1710.69,-593.57,-765.99
19110,-3.8712,0.1011,-0.1628,1570.56,-218.57,-1094.12
19120,-3.8712,0.0983,-0.1681,945.56,-843.57,-1609.74
19130,-3.8712,0.0962,-0.1720,586.18,-1515.44,1905.88
19140,-3.8712,0.0963,-0.1752,320.56,1984.56,1734.01
19150,-3.8712,0.0979,-0.1735,336.18,1578.31,1921.51
19160,-3.8712,0.1012,-0.1683,539.31,1797.06,-1656.62
19170,-3.8712,0.1090,-0.1636,961.18,-1546.69,-1187.87
19180,-3.8712,0.1168,-0.1583,1961.18,-937.32,-1140.99
19190,-3.8712,0.1160,-0.1555,-1038.82,-265.44,-1687.87
19200,-3.8712,0.1061,-0.1570,-1148.19,93.93,1437.19
19210,-3.8712,0.0907,-0.1604,1586.18,-93.57,327.76
19220,-3.8713,0.0762,-0.1650,-382.57,-531.13,-969.12
19230,-3.8713,0.0690,-0.1708,1758.06,-1124.88,1937.13
19240,-3.8713,0.0718,-0.1743,836.18,-1859.25,1624.63
19250,-3.8713,0.0840,-0.1727,1195.56,1687.62,-1656.62
19260,-3.8713,0.1021,-0.1648,-1241.94,1890.75,-140.99
19270,-3.8712,0.1163,-0.1545,1070.56,-1093.57,1405.88
19280,-3.8712,0.1178,-0.1492,-1101.32,218.93,-1484.68
19290,-3.8712,0.1079,-0.1495,-913.82,906.43,-890.93
19300,-3.8712,0.0928,-0.1519,1820.56,859.56,-1015.93
19310,-3.8712,0.0789,-0.1556,-116.94,562.62,-1531.56
19320,-3.8712,0.0736,-0.1598,-1898.19,78.25,-1828.43
19330,-3.8712,0.0791,-0.1595,1429.93,-453.00,-1578.49
19340,-3.8712,0.0908,-0.1556,-1866.94,-421.75,-781.62
19350,-3.8711,0.1022,-0.1514,-366.94,78.25,218.44
19360,-3.8711,0.1068,-0.1492,1086.18,625.18,1249.69
19370,-3.8711,0.1042,-0.1499,1679.93,906.43,-1984.68
19380,-3.8711,0.0989,-0.1530,1351.81,812.68,-1672.18
19390,-3.8711,0.0957,-0.1575,664.31,422.06,-1734.68
19400,-3.8711,0.0974,-0.1594,258.06,-156.07,-1969.12
19410,-3.8711,0.1033,-0.1576,476.81,-406.07,1796.51
19420,-3.8711,0.1110,-0.1578,1226.81,-171.69,1749.63
19430,-3.8711,0.1158,-0.1606,-1788.82,-202.94,1749.63
19440,-3.8711,0.1144,-0.1632,-1163.82,-562.32,1390.26
19450,-3.8711,0.1101,-0.1646,-1351.32,-890.44,484.01
19460,-3.8712,0.1075,-0.1643,-1898.19,-1062.32,-719.12
19470,-3.8712,0.1052,-0.1649,1773.68,-1031.07,-1719.12
19480,-3.8712,0.1046,-0.1671,1476.81,-1109.19,1734.01
19490,-3.8712,0.1077,-0.1671,1398.68,-1390.44,1687.13
19500,-3.8712,0.1122,-0.1603,1789.31,-1390.44,1968.38
19510,-3.8712,0.1136,-0.1516,-1632.57,-515.44,-1844.12
19520,-3.8712,0.1094,-0.1504,-1445.07,593.93,-1984.68
19530,-3.8712,0.1021,-0.1537,-1991.94,750.18,1655.94
19540,-3.8712,0.0968,-0.1534,1070.56,328.31,1155.94
19550,-3.8712,0.0959,-0.1508,398.68,359.56,530.94
19560,-3.8713,0.0988,-0.1477,289.31,703.31,-15.93
19570,-3.8713,0.1030,-0.1439,648.68,1093.93,-109.68
19580,-3.8712,0.1085,-0.1422,1195.56,1578.31,546.57
19590,-3.8712,0.1174,-0.1427,1898.68,1797.06,1859.07
19600,-3.8712,0.1266,-0.1429,-960.69,1734.56,-703.43
19610,-3.8711,0.1321,-0.1451,211.18,1703.37,390.32
19620,-3.8711,0.1322,-0.1528,914.31,1422.12,734.07
19630,-3.8711,0.1279,-0.1641,929.93,437.74,327.82
19640,-3.8712,0.1249,-0.1700,383.06,-999.76,-515.99
19650,-3.8712,0.1265,-0.1691,-7.57,-1765.44,-1359.74
19660,-3.8712,0.1335,-0.1683,195.56,-1640.38,-1906.62
19670,-3.8712,0.1423,-0.1685,1101.81,-1546.63,1921.51
19680,-3.8712,0.1460,-0.1669,-1773.19,-1562.26,1890.26
19690,-3.8712,0.1417,-0.1648,-1304.44,-1359.13,1655.88
19700,-3.8712,0.1310,-0.1649,-1851.32,-1093.51,1093.38
19710,-3.8712,0.1185,-0.1656,773.68,-1109.13,468.38
19720,-3.8713,0.1089,-0.1650,-820.07,-1202.94,-31.62
19730,-3.8713,0.1039,-0.1660,1945.56,-1124.82,-78.49
19740,-3.8712,0.1030,-0.1682,1304.93,-1249.82,327.76
19750,-3.8712,0.1025,-0.1691,1195.56,-1531.07,905.88
19760,-3.8712,0.1011,-0.1670,1133.06,-1640.44,1327.76
19770,-3.8712,0.0989,-0.1636,945.56,-1374.82,1546.51
19780,-3.8712,0.0973,-0.1575,664.31,-937.32,1718.38
19790,-3.8712,0.0978,-0.1478,461.18,-156.07,1655.88
19800,-3.8712,0.0977,-0.1454,523.68,1078.31,1218.44
19810,-3.8712,0.0967,-0.1559,508.06,1390.81,827.82
19820,-3.8712,0.0970,-0.1686,383.06,47.06,687.19
19830,-3.8712,0.0973,-0.1738,429.93,-1577.94,671.51
19840,-3.8712,0.0979,-0.1721,461.18,1750.18,843.38
19850,-3.8712,0.0997,-0.1669,539.31,1968.93,1093.38
19860,-3.8712,0.1018,-0.1569,773.68,-1359.19,1343.38
19870,-3.8712,0.1014,-0.1469,1039.31,-77.94,1280.88
19880,-3.8712,0.0974,-0.1460,992.43,1203.31,796.57
19890,-3.8712,0.0919,-0.1539,476.81,1312.68,452.82
19900,-3.8712,0.0886,-0.1608,-226.32,297.00,359.07
19910,-3.8712,0.0890,-0.1624,-648.19,-578.00,265.26
19920,-3.8712,0.0914,-0.1627,-601.32,-781.13,249.63
19930,-3.8712,0.0970,-0.1595,-288.82,-828.00,562.13
19940,-3.8712,0.1038,-0.1520,429.93,-421.69,1046.51
19950,-3.8712,0.1072,-0.1451,1289.31,547.06,1343.44
19960,-3.8712,0.1044,-0.1449,1726.81,1422.06,1343.44
19970,-3.8712,0.0948,-0.1539,1367.43,1453.31,999.69
19980,-3.8712,0.0850,-0.1626,148.68,297.06,515.32
19990,-3.8713,0.0824,-0.1637,-1116.94,-812.38,-0.37
20000,-3.8713,0.0894,-0.1642,-1445.07,-953.00,-187.87
20010,-3.8712,0.1031,-0.1663,-554.44,-1015.50,359.01
20020,-3.8712,0.1138,-0.1654,1211.18,-1281.07,1499.63
20030,-3.8712,0.1130,-0.1638,-1429.44,-1171.69,-1062.87
20040,-3.8711,0.1050,-0.1654,-1523.19,-968.57,437.13
20050,-3.8711,0.0973,-0.1661,1445.56,-1171.69,1484.01
20060,-3.8711,0.0936,-0.1637,461.18,-1265.44,1859.01
20070,-3.8711,0.0939,-0.1595,-7.57,-953.00,1859.01
20080,-3.8711,0.0948,-0.1559,23.68,-421.69,1765.26
20090,-3.8711,0.0946,-0.1534,148.68,47.06,1890.32
20100,-3.8711,0.0933,-0.1484,117.43,359.56,-1625.31
20110,-3.8711,0.0891,-0.1416,-54.44,1000.12,-1000.31
20120,-3.8711,0.0826,-0.1384,-585.69,1875.12,-625.31
20130,-3.8711,0.0759,-0.1370,-1413.82,-1718.63,-656.56
20140,-3.8711,0.0704,-0.1364,1726.81,-1531.13,-1031.56
20150,-3.8711,0.0706,-0.1414,1023.68,-1453.00,-1703.43
20160,-3.8711,0.0780,-0.1481,1039.31,1906.37,1562.19
20170,-3.8711,0.0890,-0.1483,1992.43,1047.00,1093.44
20180,-3.8711,0.0968,-0.1453,-601.32,1015.75,859.07
20190,-3.8711,0.0978,-0.1456,398.68,1406.43,624.69
20200,-3.8711,0.0946,-0.1466,523.68,1359.56,327.82
20210,-3.8712,0.0903,-0.1466,117.43,1234.56,-219.06
20220,-3.8712,0.0879,-0.1472,-429.44,1234.50,-1109.68
20230,-3.8712,0.0885,-0.1488,-741.94,1156.37,1843.44
20240,-3.8712,0.0913,-0.1533,-663.82,953.25,952.82
20250,-3.8712,0.0951,-0.1589,-304.44,375.12,577.82
20260,-3.8712,0.0967,-0.1593,179.93,-343.57,702.76
20270,-3.8712,0.0945,-0.1512,383.06,-390.44,968.38
20280,-3.8712,0.0892,-0.1420,101.81,640.81,1062.19
20290,-3.8712,0.0837,-0.1389,-570.07,1828.25,937.19
20300,-3.8712,0.0807,-0.1436,-1273.19,-1781.13,812.19
20310,-3.8712,0.0831,-0.1526,-1663.82,1625.12,874.69
20320,-3.8712,0.0905,-0.1586,-1351.32,468.87,1093.44
20330,-3.8712,0.0986,-0.1583,-413.82,-296.75,1499.63
20340,-3.8712,0.1056,-0.1528,633.06,-265.44,-1969.12
20350,-3.8712,0.1088,-0.1469,1523.68,437.68,-1640.93
20360,-3.8712,0.1082,-0.1470,1929.93,1203.31,-1750.31
20370,-3.8712,0.1067,-0.1528,1851.81,1187.68,1655.94
20380,-3.8712,0.1039,-0.1598,1664.31,437.68,905.94
20390,-3.8712,0.1007,-0.1666,1304.93,-452.94,296.51
20400,-3.8713,0.0995,-0.1709,898.68,-1327.94,-156.62
20410,-3.8713,0.1012,-0.1709,742.43,-1874.82,-375.37
20420,-3.8713,0.1066,-0.1687,961.18,-1874.82,-219.12
20430,-3.8712,0.1155,-0.1676,1648.68,-1593.57,577.76
20440,-3.8712,0.1249,-0.1648,-1210.69,-1452.94,-1984.74
20450,-3.8712,0.1304,-0.1598,-7.57,-1093.57,-453.49
20460,-3.8711,0.1285,-0.1571,695.56,-452.88,359.01
20470,-3.8711,0.1193,-0.1580,461.18,-109.13,249.63
20480,-3.8712,0.1073,-0.1602,-726.32,-218.57,-500.37
20490,-3.8712,0.0978,-0.1605,1742.43,-499.82,-1531.62
20500,-3.8712,0.0929,-0.1611,523.68,-546.69,1577.76
20510,-3.8712,0.0925,-0.1643,-101.32,-624.88,1124.63
20520,-3.8712,0.0964,-0.1659,-148.19,-1031.13,1218.38
20530,-3.8712,0.1030,-0.1616,351.81,-1234.19,1593.38
20540,-3.8712,0.1089,-0.1550,1195.56,-687.32,-1953.49
20550,-3.8712,0.1124,-0.1516,1945.56,156.43,-1359.68
20560,-3.8712,0.1122,-0.1516,-1601.32,593.93,-687.81
20570,-3.8712,0.1071,-0.1533,-1632.57,593.93,-203.43
20580,-3.8712,0.1017,-0.1549,1711.18,375.18,-47.18
20590,-3.8712,0.0989,-0.1542,1023.68,172.06,-94.06
20600,-3.8712,0.0980,-0.1526,664.31,265.81,-406.56
20610,-3.8712,0.0985,-0.1537,554.93,468.93,-1094.06
20620,-3.8712,0.1002,-0.1555,617.43,328.31,1952.82
20630,-3.8712,0.1031,-0.1566,836.18,93.93,968.44
20640,-3.8712,0.1086,-0.1578,1211.18,-46.69,390.26
20650,-3.8712,0.1168,-0.1569,1914.31,-202.94,468.38
20660,-3.8712,0.1228,-0.1544,-1038.82,-77.94,890.26
20670,-3.8712,0.1227,-0.1554,-273.19,234.56,1312.19
20680,-3.8712,0.1184,-0.1567,-288.82,109.56,1921.57
20690,-3.8712,0.1132,-0.1509,-835.69,-62.32,-1125.37
20700,-3.8712,0.1089,-0.1426,-1507.57,687.68,-234.68
20710,-3.8711,0.1044,-0.1389,1945.56,1750.18,124.69
20720,-3.8712,0.0978,-0.1420,1367.43,-1781.07,-94.06
20730,-3.8712,0.0916,-0.1488,523.68,1828.31,-828.43
20740,-3.8712,0.0889,-0.1536,-273.19,953.25,-1890.93
20750,-3.8712,0.0894,-0.1550,-616.94,343.87,1109.07
20760,-3.8712,0.0927,-0.1536,-554.44,156.37,437.19
20770,-3.8712,0.0968,-0.1515,-132.57,343.87,265.32
20780,-3.8712,0.0996,-0.1526,398.68,609.56,593.44
20790,-3.8712,0.1025,-0.1556,758.06,468.93,1187.19
20800,-3.8712,0.1056,-0.1589,1133.06,78.31,1765.32
20810,-3.8712,0.1086,-0.1594,1523.68,-343.57,-1969.12
20820,-3.8712,0.1100,-0.1569,1914.31,-406.07,1812.13
20830,-3.8712,0.1066,-0.1571,-1913.82,-77.94,1124.63
20840,-3.8712,0.1006,-0.1628,1648.68,-109.19,484.01
20850,-3.8712,0.0961,-0.1677,883.06,-843.57,249.63
20860,-3.8712,0.0952,-0.1680,304.93,-1468.57,421.51
20870,-3.8712,0.0990,-0.1659,195.56,-1499.82,1015.26
20880,-3.8712,0.1046,-0.1611,679.93,-1234.19,-1922.24
20890,-3.8712,0.1077,-0.1526,1398.68,-624.82,-859.74
20900,-3.8712,0.1051,-0.1448,1789.31,468.93,-437.81
20910,-3.8712,0.0961,-0.1444,1461.18,1468.93,-812.81
20920,-3.8712,0.0844,-0.1541,304.93,1515.81,-1953.43
20930,-3.8712,0.0786,-0.1646,-1195.07,281.37,593.44
20940,-3.8713,0.0819,-0.1671,-1929.44,-1062.38,-531.62
20950,-3.8713,0.0895,-0.1661,-1507.57,-1390.50,-1172.24
20960,-3.8713,0.0955,-0.1659,-538.82,-1265.50,-1359.74
20970,-3.8713,0.0968,-0.1635,226.81,-1234.19,-1156.62
20980,-3.8713,0.0939,-0.1588,398.68,-921.69,-859.74
20990,-3.8713,0.0916,-0.1573,23.68,-327.94,-656.62
21000,-3.8713,0.0945,-0.1610,-273.19,-140.50,-281.62
21010,-3.8712,0.1024,-0.1658,101.81,-609.19,546.51
21020,-3.8712,0.1135,-0.1655,1117.43,-1218.57,1999.63
21030,-3.8712,0.1243,-0.1584,-1460.69,-1187.32,-375.37
21040,-3.8711,0.1295,-0.1482,-85.69,-281.07,905.88
21050,-3.8711,0.1256,-0.1401,586.18,1031.49,1609.07
21060,-3.8711,0.1130,-0.1400,86.18,-1937.26,1765.32
21070,-3.8711,0.0991,-0.1490,-1523.19,-1921.69,1359.07
21080,-3.8711,0.0934,-0.1575,695.56,922.06,546.57
21090,-3.8712,0.0978,-0.1566,-38.82,-156.13,-125.37
21100,-3.8712,0.1051,-0.1509,523.68,-46.69,-187.87
21110,-3.8711,0.1101,-0.1467,1461.18,687.68,249.69
21120,-3.8711,0.1107,-0.1464,-1898.19,1218.93,609.07
21130,-3.8711,0.1077,-0.1482,-1820.07,1265.81,499.69
21140,-3.8712,0.1042,-0.1493,1789.31,1031.43,-78.43
21150,-3.8712,0.1012,-0.1514,1351.81,890.81,-719.06
21160,-3.8712,0.1006,-0.1543,961.18,625.18,-781.56
21170,-3.8712,0.1040,-0.1541,883.06,250.18,-234.68
21180,-3.8711,0.1100,-0.1517,1320.56,281.43,343.44
21190,-3.8711,0.1168,-0.1479,-1913.82,578.31,796.57
21200,-3.8711,0.1183,-0.1439,-1038.82,1062.68,952.82
21210,-3.8711,0.1112,-0.1453,-851.32,1578.31,468.44
21220,-3.8712,0.1011,-0.1515,-1757.57,1406.43,-515.93
21230,-3.8712,0.0939,-0.1569,945.56,609.56,-1859.68
21240,-3.8712,0.0945,-0.1633,23.68,-77.94,593.38
21250,-3.8713,0.1058,-0.1691,101.81,-906.07,-265.99
21260,-3.8713,0.1222,-0.1666,1554.93,-1640.44,-15.99
21270,-3.8712,0.1346,-0.1591,-351.32,-1327.94,812.13
21280,-3.8712,0.1377,-0.1511,1242.43,-359.13,1734.01
21290,-3.8712,0.1299,-0.1428,1633.06,656.49,-1578.43
21300,-3.8712,0.1151,-0.1395,633.06,1718.99,-1531.56
21310,-3.8712,0.1013,-0.1438,-1257.57,-1859.19,1765.32
21320,-3.8712,0.0941,-0.1497,976.81,1593.93,577.82
21330,-3.8713,0.0934,-0.1553,54.93,843.93,-594.06
21340,-3.8713,0.0959,-0.1619,-38.82,125.12,-1312.81
21350,-3.8713,0.0981,-0.1659,289.31,-718.57,-1719.12
21360,-3.8713,0.0975,-0.1647,570.56,-1234.19,-1953.49
21370,-3.8713,0.0956,-0.1589,492.43,-1077.94,-1797.24
21380,-3.8713,0.0938,-0.1533,242.43,-343.57,-1000.37
21390,-3.8712,0.0935,-0.1512,8.06,375.18,374.69
21400,-3.8712,0.0964,-0.1504,-23.19,640.75,1749.69
21410,-3.8712,0.1011,-0.1484,351.81,750.18,-1015.93
21420,-3.8712,0.1044,-0.1462,945.56,1000.18,-78.43
21430,-3.8711,0.1041,-0.1477,1367.43,1281.43,187.19
21440,-3.8712,0.1008,-0.1537,1336.18,1093.93,-234.68
21450,-3.8712,0.0961,-0.1575,914.31,328.31,-781.56
21460,-3.8712,0.0922,-0.1569,304.93,-156.07,-859.74
21470,-3.8712,0.0918,-0.1545,-195.07,-78.00,-375.37
21480,-3.8711,0.0947,-0.1504,-241.94,218.87,265.32
21490,-3.8711,0.0969,-0.1461,133.06,750.18,921.57
21500,-3.8711,0.0959,-0.1449,414.31,1297.06,1562.19
21510,-3.8711,0.0924,-0.1470,289.31,1453.31,1937.19
21520,-3.8711,0.0887,-0.1499,-163.82,1187.62,1921.57
21530,-3.8711,0.0876,-0.1494,-632.57,812.62,1671.57
21540,-3.8711,0.0884,-0.1456,-773.19,875.12,1280.94
21550,-3.8711,0.0874,-0.1437,-679.44,1359.50,640.32
21560,-3.8711,0.0846,-0.1459,-804.44,1609.50,93.44
21570,-3.8712,0.0814,-0.1458,-1163.82,1328.25,-109.68
21580,-3.8712,0.0782,-0.1417,-1570.07,1343.87,-250.31
21590,-3.8712,0.0770,-0.1399,-1976.32,1859.50,-625.31
21600,-3.8712,0.0786,-0.1422,1867.43,-1906.13,-1172.18
21610,-3.8712,0.0831,-0.1465,-1929.44,1797.00,-1781.56
21620,-3.8712,0.0903,-0.1493,-1351.32,1250.12,1468.44
21630,-3.8712,0.0983,-0.1522,-429.44,890.75,687.19
21640,-3.8712,0.1052,-0.1556,586.18,515.81,109.07
21650,-3.8713,0.1095,-0.1575,1476.81,78.31,-328.43
21660,-3.8713,0.1101,-0.1584,-1976.32,-156.07,-875.37
21670,-3.8713,0.1089,-0.1603,-1898.19,-281.07,-1500.37
21680,-3.8713,0.1080,-0.1653,1945.56,-515.44,-1953.49
21690,-3.8713,0.1082,-0.1705,1836.18,-1156.07,1843.38
21700,-3.8713,0.1079,-0.1726,1851.81,-1827.94,-1969.12
21710,-3.8713,0.1061,-0.1707,1820.56,1906.43,-1328.49
21720,-3.8713,0.1040,-0.1649,1586.18,-1843.57,-469.12
21730,-3.8712,0.1013,-0.1583,1320.56,-1109.19,280.88
21740,-3.8712,0.0980,-0.1556,976.81,-265.44,1015.26
21750,-3.8712,0.0975,-0.1570,554.93,78.31,1952.82
21760,-3.8712,0.1008,-0.1561,492.43,-93.57,-937.87
21770,-3.8711,0.1041,-0.1519,914.31,15.81,15.32
21780,-3.8711,0.1040,-0.1504,1336.18,562.68,437.19
21790,-3.8711,0.0997,-0.1543,1320.56,750.18,296.57
21800,-3.8712,0.0953,-0.1595,773.68,250.18,-390.93
21810,-3.8712,0.0946,-0.1620,211.18,-421.69,-1359.74
21820,-3.8712,0.0978,-0.1613,117.43,-734.19,1905.88
21830,-3.8712,0.1028,-0.1571,523.68,-640.44,1640.26
21840,-3.8712,0.1063,-0.1517,1164.31,-109.19,1780.88
21850,-3.8712,0.1066,-0.1494,1617.43,578.31,-1594.06
21860,-3.8712,0.1039,-0.1490,1648.68,875.18,-765.93
21870,-3.8712,0.0985,-0.1477,1304.93,922.06,-109.68
21880,-3.8711,0.0919,-0.1483,617.43,1093.93,109.07
21890,-3.8712,0.0857,-0.1517,-226.32,1015.75,-265.93
21900,-3.8712,0.0809,-0.1538,-1023.19,578.25,-922.18
21910,-3.8712,0.0789,-0.1515,-1632.57,312.62,-1578.43
21920,-3.8712,0.0806,-0.1482,-1898.19,609.50,-1844.06
21930,-3.8712,0.0862,-0.1448,-1679.44,1031.37,-1562.81
21940,-3.8712,0.0914,-0.1407,-960.69,1468.87,-1000.31
21950,-3.8712,0.0919,-0.1400,-288.82,1984.50,-344.06
21960,-3.8711,0.0894,-0.1418,-226.32,-1921.75,265.32
21970,-3.8711,0.0858,-0.1438,-554.44,1843.87,468.44
21980,-3.8711,0.0815,-0.1453,-1007.57,1593.87,30.94
21990,-3.8712,0.0790,-0.1467,-1554.44,1406.37,-1047.18
22000,-3.8712,0.0800,-0.1505,-1882.57,1218.87,1374.69
22010,-3.8713,0.0869,-0.1578,-1757.57,734.50,-78.43
22020,-3.8713,0.0992,-0.1642,-866.94,-203.00,-594.12
22030,-3.8713,0.1127,-0.1650,711.18,-1015.44,-78.49
22040,-3.8712,0.1224,-0.1605,-1570.07,-1124.82,968.38
22050,-3.8712,0.1249,-0.1569,-320.07,-546.69,-1984.74
22060,-3.8712,0.1204,-0.1559,-7.57,-77.94,-1094.12
22070,-3.8712,0.1124,-0.1543,-585.69,47.06,-297.18
22080,-3.8711,0.1044,-0.1533,-1601.32,250.18,140.32
22090,-3.8712,0.0992,-0.1552,1367.43,375.18,-109.68
22100,-3.8712,0.0973,-0.1564,711.18,140.81,-750.31
22110,-3.8712,0.0966,-0.1543,461.18,-15.44,-1203.49
22120,-3.8712,0.0961,-0.1517,367.43,250.18,-1515.93
22130,-3.8712,0.0950,-0.1511,304.93,578.31,-1969.06
22140,-3.8712,0.0929,-0.1522,164.31,656.43,1421.57
22150,-3.8712,0.0902,-0.1547,-101.32,515.75,734.07
22160,-3.8712,0.0874,-0.1570,-445.07,203.25,46.57
22170,-3.8713,0.0852,-0.1580,-804.44,-93.63,-484.74
22180,-3.8713,0.0856,-0.1566,-1085.69,-218.63,-609.74
22190,-3.8713,0.0908,-0.1520,-1038.82,-46.75,-0.37
22200,-3.8712,0.0991,-0.1459,-366.94,547.00,1249.69
22210,-3.8712,0.1058,-0.1427,695.56,1328.31,-1547.18
22220,-3.8712,0.1085,-0.1417,1554.93,1734.56,-765.93
22230,-3.8712,0.1061,-0.1404,1898.68,1859.56,-625.31
22240,-3.8712,0.0983,-0.1400,1586.18,-1968.57,-1094.06
22250,-3.8712,0.0885,-0.1429,586.18,-1921.69,-1750.31
22260,-3.8712,0.0815,-0.1504,-663.82,1703.25,1577.82
22270,-3.8712,0.0798,-0.1589,-1554.44,750.12,609.07
22280,-3.8713,0.0842,-0.1649,-1773.19,-343.63,-609.74
22290,-3.8713,0.0940,-0.1659,-1210.69,-1109.25,-1469.12
22300,-3.8713,0.1071,-0.1616,39.31,-1234.19,-1765.99
22310,-3.8713,0.1202,-0.1549,1711.18,-687.32,-1515.99
22320,-3.8713,0.1283,-0.1498,-601.32,172.06,-797.18
22330,-3.8712,0.1260,-0.1437,429.93,828.37,93.44
22340,-3.8712,0.1149,-0.1372,133.06,1609.62,827.82
22350,-3.8712,0.0999,-0.1384,-1288.82,-1562.32,1312.19
22360,-3.8712,0.0881,-0.1437,789.31,-1718.57,1999.69
22370,-3.8712,0.0830,-0.1458,-710.69,1609.50,-1156.56
22380,-3.8712,0.0837,-0.1449,-1366.94,1343.87,-531.56
22390,-3.8712,0.0878,-0.1421,-1273.19,1453.25,-78.43
22400,-3.8711,0.0914,-0.1390,-757.57,1812.62,421.57
22410,-3.8711,0.0948,-0.1376,-288.82,-1796.75,1062.19
22420,-3.8711,0.0985,-0.1367,148.68,-1609.19,1562.19
22430,-3.8711,0.1016,-0.1376,617.43,-1499.82,1843.44
22440,-3.8711,0.1030,-0.1409,1008.06,-1609.19,1921.57
22450,-3.8711,0.1031,-0.1448,1195.56,1968.93,1905.94
22460,-3.8711,0.1040,-0.1444,1211.18,1468.93,1827.82
22470,-3.8711,0.1046,-0.1401,1320.56,1515.81,1499.69
22480,-3.8711,0.1023,-0.1415,1398.68,-1937.32,749.69
22490,-3.8712,0.0988,-0.1492,1101.81,1890.81,-47.18
22500,-3.8712,0.0978,-0.1530,648.68,906.43,-422.18
22510,-3.8712,0.0999,-0.1495,523.68,422.06,-547.18
22520,-3.8712,0.1011,-0.1436,789.31,859.56,-672.18
22530,-3.8712,0.0972,-0.1381,945.56,1625.18,-687.81
22540,-3.8712,0.0906,-0.1334,445.56,-1671.69,-703.43
22550,-3.8712,0.0854,-0.1292,-398.19,-1078.00,-1094.06
22560,-3.8712,0.0806,-0.1230,-1054.44,-531.13,1921.57
22570,-3.8712,0.0745,-0.1182,-1679.44,250.12,406.01
22580,-3.8713,0.0688,-0.1228,1539.31,875.12,-1359.62
22590,-3.8713,0.0667,-0.1331,820.56,281.37,999.76
22600,-3.8715,0.0668,-0.1401,539.31,-1031.13,-344.06
22610,-3.8715,0.0682,-0.1472,554.93,-1937.38,-1344.06
22620,-3.8715,0.0726,-0.1516,742.43,1156.37,-1547.18
22630,-3.8715,0.0791,-0.1465,1304.93,593.87,-656.56
22640,-3.8713,0.0845,-0.1340,-1866.94,1250.12,999.69
22650,-3.8713,0.0857,-0.1217,-1179.44,-1156.13,-1094.06
22660,-3.8712,0.0802,-0.1198,-1023.19,422.00,593.51
22670,-3.8712,0.0720,-0.1271,-1726.32,672.00,1890.38
22680,-3.8712,0.0674,-0.1349,1226.81,-265.50,-1156.56
22690,-3.8712,0.0687,-0.1395,633.06,-1265.50,-281.56
22700,-3.8711,0.0781,-0.1400,804.93,-1859.25,640.32
22710,-3.8711,0.0906,-0.1392,-1991.94,-1921.75,1734.07
22720,-3.8711,0.0996,-0.1348,-398.19,-1812.38,-812.81
22730,-3.8710,0.1021,-0.1245,758.06,-1249.82,702.82
22740,-3.8710,0.0988,-0.1185,1070.56,62.68,1968.51
22750,-3.8710,0.0966,-0.1187,648.68,828.31,-1015.87
22760,-3.8710,0.0988,-0.1184,367.43,812.68,-468.99
22770,-3.8710,0.1042,-0.1211,648.68,843.93,-640.87
22780,-3.8710,0.1133,-0.1270,1351.81,500.18,-1218.99
22790,-3.8710,0.1250,-0.1313,-1491.94,-249.82,-1922.18
22800,-3.8710,0.1389,-0.1334,8.06,-812.26,1234.07
22810,-3.8710,0.1542,-0.1338,1789.31,-1077.88,374.69
22820,-3.8711,0.1648,-0.1318,-257.57,-1124.76,-453.43
22830,-3.8711,0.1678,-0.1298,1101.81,-874.69,-1484.68
22840,-3.8711,0.1639,-0.1310,1492.43,-609.07,1046.57
22850,-3.8712,0.1519,-0.1357,992.43,-765.32,-906.56
22860,-3.8712,0.1344,-0.1445,-554.44,-1374.76,905.94
22870,-3.8713,0.1169,-0.1539,1211.18,1500.24,-1140.93
22880,-3.8713,0.1062,-0.1553,-1023.19,297.06,1562.19
22890,-3.8713,0.1095,-0.1469,1601.81,125.18,1515.32
22900,-3.8713,0.1255,-0.1339,-1976.32,1203.31,-1344.06
