timestamp_ms,ax,ay,az,gx,gy,gz
0,-3.8726,1.0649,-1.2521,-1554.44,252.01,450.68
10,-3.8722,1.0886,-1.2793,320.56,-263.55,1560.00
20,-3.8719,1.0950,-1.3087,-648.19,252.08,-643.13
30,-3.8716,1.0707,-1.3346,164.31,486.51,1731.81
40,-3.8712,1.0052,-1.3571,1054.93,1173.95,-565.12
50,-3.8706,0.8889,-1.3556,679.93,-1701.17,747.31
60,-3.8700,0.7341,-1.2974,1789.31,-1513.92,-1924.56
70,-3.8694,0.5538,-1.1720,1976.81,1938.90,-1721.31
80,-3.8690,0.3673,-1.0465,-1101.32,1985.41,-64.82
90,-3.8687,0.2034,-0.9948,-976.32,-1952.45,669.80
100,-3.8685,0.0614,-1.0122,-1960.69,672.24,1013.67
110,-3.8687,-0.0641,-1.0609,-132.57,-1562.44,-1236.39
120,-3.8689,-0.1688,-1.1129,-195.07,218.57,529.17
130,-3.8695,-0.2476,-1.1434,-1601.32,1562.13,-299.07
140,-3.8701,-0.3055,-1.1307,320.56,1655.76,-830.38
150,-3.8706,-0.3639,-1.0712,898.68,-719.36,122.74
160,-3.8710,-0.4377,-0.9854,1429.93,-1094.48,-1908.39
170,-3.8711,-0.5291,-0.9031,-23.19,1889.71,-1048.83
180,-3.8712,-0.6290,-0.8309,289.31,420.84,1154.48
190,-3.8716,-0.7358,-0.7700,-507.57,1654.97,-1095.40
200,-3.8718,-0.8276,-0.7252,1820.56,1451.66,1982.85
210,-3.8719,-0.8655,-0.7026,-1929.44,-814.15,29.79
220,-3.8722,-0.8269,-0.7118,1226.81,-1923.58,373.60
230,-3.8726,-0.7179,-0.7465,-1835.69,904.60,623.60
240,-3.8730,-0.5811,-0.7832,117.43,467.35,-1860.84
250,-3.8735,-0.4606,-0.8102,1633.06,-235.53,-1032.84
260,-3.8739,-0.3823,-0.8281,1054.93,311.58,-1548.46
270,-3.8741,-0.3510,-0.8237,-929.44,-1985.17,-1470.40
280,-3.8743,-0.3567,-0.7853,-913.82,-1422.61,-1751.65
290,-3.8744,-0.3752,-0.7251,-1648.19,-500.73,-189.09
300,-3.8744,-0.3855,-0.6621,-23.19,-797.67,779.79
310,-3.8746,-0.3851,-0.6129,-1335.69,-735.17,-657.59
320,-3.8748,-0.3837,-0.5842,-1288.82,1561.71,780.03
330,-3.8750,-0.3884,-0.5735,-1101.32,1233.58,-126.16
340,-3.8750,-0.3955,-0.5715,-1710.69,-1391.42,-1891.78
350,-3.8750,-0.4020,-0.5717,1383.06,-1141.42,-907.41
360,-3.8749,-0.4042,-0.5708,554.93,-1157.04,639.47
370,-3.8749,-0.3888,-0.5603,273.68,-1047.67,1311.34
380,-3.8749,-0.3490,-0.5369,-1757.57,296.08,1108.28
390,-3.8750,-0.2906,-0.5112,-663.82,-703.86,-1329.22
400,-3.8439,-0.2246,-0.4948,-1195.07,-1422.49,920.84
410,-3.8441,-0.1597,-0.4905,-741.94,687.01,-1360.35
420,-3.8442,-0.1028,-0.4930,-429.44,1234.01,-1016.60
430,-3.8442,-0.0647,-0.4930,-1148.19,906.01,1358.40
440,-3.8442,-0.0502,-0.4830,-273.19,906.07,827.15
450,-3.8442,-0.0454,-0.4604,1586.18,-1812.62,1811.52
460,-3.8442,-0.0363,-0.4309,-1804.44,1078.00,-625.92
470,-3.8441,-0.0118,-0.4044,-632.57,859.25,311.65
480,-3.8442,0.0411,-0.3922,-1507.57,249.94,-891.42
490,-3.8444,0.1215,-0.4005,1273.68,1796.94,-1344.54
500,-3.8445,0.2128,-0.4269,-445.07,734.56,717.96
510,-3.8446,0.2963,-0.4600,-757.57,1359.74,61.65
520,-3.8447,0.3607,-0.4830,1929.93,1125.55,-1313.42
530,-3.8446,0.4052,-0.4889,-1820.07,-1827.45,702.15
540,-3.8446,0.4368,-0.4794,-132.57,1422.61,-688.48
550,-3.8445,0.4613,-0.4672,-85.69,-1358.58,749.02
560,-3.8445,0.4845,-0.4689,-945.07,203.98,1592.83
570,-3.8445,0.5065,-0.4819,-1976.32,-14.71,-1750.98
580,-3.8444,0.5132,-0.4951,836.18,-1686.52,733.40
590,-3.8442,0.5104,-0.5072,1695.56,625.98,1717.77
600,-3.8441,0.5099,-0.5347,1336.18,-920.90,545.84
610,-3.8442,0.5078,-0.5857,1273.68,-436.52,-876.10
620,-3.8442,0.4998,-0.6456,1008.06,1032.23,1592.59
630,-3.8442,0.4868,-0.7061,-23.19,1360.29,1873.72
640,-3.8442,0.4701,-0.7637,-1679.44,1625.92,-1126.40
650,-3.8441,0.4534,-0.8099,179.93,-1749.08,-689.03
660,-3.8750,0.4596,-0.8405,-1960.69,328.98,1060.91
670,-3.8748,0.5101,-0.8671,-1163.82,422.73,1763.98
680,-3.8748,0.5942,-0.9235,1304.93,1016.60,-157.96
690,-3.8748,0.6875,-1.0071,70.56,1798.03,-1533.08
700,-3.8748,0.7612,-1.0834,8.06,-904.91,-1064.51
710,-3.8746,0.7900,-1.1395,1445.56,1329.59,-549.01
720,-3.8743,0.7697,-1.1646,1133.06,-1857.85,263.37
730,-3.8739,0.7155,-1.1539,-1476.32,-1061.04,1185.18
740,-3.8734,0.6487,-1.1510,-413.82,298.22,75.87
750,-3.8730,0.5856,-1.1969,-960.69,673.10,-1971.01
760,-3.8727,0.5432,-1.2673,-1038.82,-1202.03,-596.13
770,-3.8722,0.5269,-1.3358,1539.31,1782.29,-1565.00
780,-3.8717,0.5166,-1.4009,-554.44,1016.60,1950.50
790,-3.8713,0.4917,-1.4486,-1866.94,688.48,-1346.50
800,-3.8711,0.4457,-1.4727,-1054.44,-1420.96,-205.99
810,-3.8708,0.3867,-1.4943,1054.93,-499.15,-1174.80
820,-3.8706,0.3301,-1.5209,1508.06,735.11,356.45
830,-3.8705,0.2806,-1.5422,-1741.94,1328.74,12.63
840,-3.8705,0.2318,-1.5586,-70.07,-1405.76,121.95
850,-3.8707,0.1749,-1.5685,1679.93,500.43,-1034.30
860,-3.8710,0.1013,-1.5554,-1601.32,-765.32,-315.61
870,-3.8710,0.0117,-1.5146,976.81,906.43,418.82
880,-3.8710,-0.0787,-1.4552,1508.06,-1875.00,809.51
890,-3.8711,-0.1478,-1.3870,1929.93,1749.82,-330.99
900,-3.8712,-0.1831,-1.3217,1086.18,-1515.93,-1159.00
910,-3.8713,-0.1968,-1.2651,570.56,-1156.62,44.25
920,-3.8716,-0.2129,-1.2133,-1179.44,-1922.30,1856.87
930,-3.8717,-0.2445,-1.1608,758.06,718.32,778.87
940,-3.8719,-0.2852,-1.1118,711.18,-562.99,-549.19
950,-3.8721,-0.3217,-1.0709,-491.94,1702.51,1044.68
960,-3.8723,-0.3505,-1.0315,-1163.82,-1063.17,-252.14
970,-3.8723,-0.3776,-0.9812,-851.32,-16.36,-1517.70
980,-3.8723,-0.4113,-0.9148,-320.07,-1578.92,-251.95
990,-3.8723,-0.4561,-0.8434,-632.57,-1078.98,-1142.46
1000,-3.8724,-0.5050,-0.7839,1633.06,61.58,779.60
1010,-3.8728,-0.5476,-0.7466,-632.57,-329.16,-1329.71
1020,-3.8730,-0.5826,-0.7275,1914.31,452.03,701.66
1030,-3.8733,-0.6178,-0.7139,1429.93,-1110.53,1592.29
1040,-3.8734,-0.6547,-0.6942,929.93,639.40,342.35
1050,-3.8737,-0.6870,-0.6702,211.18,-845.03,-1860.78
1060,-3.8739,-0.7128,-0.6492,70.56,-1766.97,1858.03
1070,-3.8741,-0.7375,-0.6344,773.68,920.47,1404.97
1080,-3.8744,-0.7629,-0.6157,1601.81,-1188.96,-595.03
1090,-3.8745,-0.7852,-0.5867,-1648.19,1201.60,-251.22
1100,-3.8746,-0.7921,-0.5605,-491.94,920.29,-110.53
1110,-3.8748,-0.7723,-0.5464,-1382.57,264.04,-1969.85
1120,-3.8750,-0.7311,-0.5479,1148.68,-1923.40,-1126.10
1130,-3.8439,-0.6809,-0.5703,-1570.07,1889.16,123.90
1140,-3.8441,-0.6324,-0.6012,851.81,-985.72,-1485.53
1150,-3.8442,-0.5907,-0.6180,-945.07,-938.78,-1001.22
1160,-3.8442,-0.5540,-0.6104,398.68,905.09,-1329.35
1170,-3.8441,-0.5211,-0.5790,1101.81,1889.53,405.03
1180,-3.8441,-0.4902,-0.5330,1304.93,1905.21,-1563.66
1190,-3.8440,-0.4575,-0.4904,1258.06,-204.10,483.28
1200,-3.8440,-0.4161,-0.4655,1445.56,1249.08,-1266.60
1210,-3.8439,-0.3568,-0.4586,-1257.57,436.65,1108.46
1220,-3.8439,-0.2794,-0.4606,-1663.82,1311.77,-704.04
1230,-3.8750,-0.1904,-0.4579,242.43,1061.95,967.83
1240,-3.8750,-0.1016,-0.4456,-366.94,1405.82,1624.08
1250,-3.8750,-0.0199,-0.4261,-991.94,-1015.87,1139.71
1260,-3.8439,0.0544,-0.4080,1461.18,1468.69,-141.48
1270,-3.8439,0.1198,-0.4008,-1023.19,-218.69,-1969.60
1280,-3.8440,0.1757,-0.4083,-663.82,703.31,-125.79
1290,-3.8440,0.2257,-0.4280,-1507.57,-265.32,1561.65
1300,-3.8441,0.2750,-0.4541,898.68,1219.18,-266.48
1310,-3.8441,0.3232,-0.4823,-788.82,1875.49,-1407.17
1320,-3.8441,0.3593,-0.5039,1383.06,-1733.76,-1407.23
1330,-3.8441,0.3823,-0.5089,1992.43,-499.33,-251.04
1340,-3.8440,0.4065,-0.4973,945.56,-1139.89,842.71
1350,-3.8440,0.4440,-0.4761,39.31,344.54,1717.77
1360,-3.8440,0.5022,-0.4625,836.18,-936.65,-1579.10
1370,-3.8440,0.5679,-0.4696,289.31,797.85,-1969.67
1380,-3.8440,0.6212,-0.4871,695.56,-108.28,1092.77
1390,-3.8440,0.6616,-0.5081,-476.32,1657.41,374.02
1400,-3.8440,0.6860,-0.5314,695.56,-1029.97,186.46
1410,-3.8440,0.7000,-0.5402,-179.44,-14.34,-1251.10
1420,-3.8439,0.7296,-0.5281,1601.81,-1139.28,-641.72
1430,-3.8750,0.7838,-0.5183,1398.68,407.65,1686.46
1440,-3.8750,0.8435,-0.5232,336.18,1657.78,342.71
1450,-3.8439,0.8888,-0.5392,-23.19,1032.84,1670.84
1460,-3.8439,0.9136,-0.5698,1773.68,-1013.92,77.03
1470,-3.8439,0.9274,-0.6152,945.56,-935.73,201.97
1480,-3.8439,0.9409,-0.6738,-1288.82,1251.77,-1298.10
1490,-3.8750,0.9633,-0.7388,445.56,1751.83,-1860.72
1500,-3.8750,0.9933,-0.8109,-695.07,1439.33,-1470.21
1510,-3.8750,1.0172,-0.8932,-851.32,205.02,1279.66
1520,-3.8750,1.0223,-0.9713,-1788.82,1673.83,-1033.02
1530,-3.8749,1.0038,-1.0406,-1132.57,-326.17,-908.20
1540,-3.8748,0.9735,-1.1165,492.43,-1201.17,-220.83
1550,-3.8745,0.9441,-1.1963,617.43,1095.64,747.80
1560,-3.8744,0.9072,-1.2635,851.81,-1123.17,-1002.38
1570,-3.8740,0.8566,-1.3254,133.06,-1732.60,1700.62
1580,-3.8734,0.7941,-1.3727,1648.68,-1654.60,263.00
1590,-3.8727,0.7313,-1.3958,1648.68,298.40,1966.06
1600,-3.8718,0.6885,-1.4130,1617.43,1345.15,559.75
1610,-3.8712,0.6661,-1.4253,133.06,-858.03,-1080.93
1620,-3.8706,0.6479,-1.4373,1273.68,1563.78,419.07
1630,-3.8704,0.6123,-1.4672,-1054.44,32.47,-205.93
1640,-3.8701,0.5485,-1.5044,-1616.94,204.28,1481.51
1650,-3.8700,0.4669,-1.5254,-1788.82,-561.46,1528.26
1660,-3.8700,0.3887,-1.5288,-226.32,750.85,-784.24
1670,-3.8701,0.3149,-1.5131,1758.06,313.23,-487.37
1680,-3.8702,0.2177,-1.4661,320.56,-1671.26,-1893.62
1690,-3.8704,0.0864,-1.3871,-132.57,344.12,-502.87
1700,-3.8704,-0.0597,-1.2927,-929.44,-1546.75,1606.63
1710,-3.8705,-0.2017,-1.1981,367.43,-1453.25,-1111.94
1720,-3.8705,-0.3252,-1.1138,-1804.44,-1344.18,1153.87
1730,-3.8706,-0.4183,-1.0455,-1616.94,1452.45,-1033.45
1740,-3.8707,-0.4784,-0.9960,-1538.82,-1813.35,216.67
1750,-3.8712,-0.5071,-0.9727,-1226.32,530.27,-1220.70
1760,-3.8717,-0.5065,-0.9750,-898.19,-485.41,1685.55
1770,-3.8722,-0.4847,-0.9897,-820.07,-782.29,-1767.58
1780,-3.8726,-0.4603,-1.0016,1961.18,1327.15,1841.80
1790,-3.8729,-0.4552,-0.9888,1086.18,-188.42,-236.39
1800,-3.8730,-0.4894,-0.9343,1742.43,1452.21,1404.30
1810,-3.8730,-0.5704,-0.8398,1367.43,420.90,123.17
1820,-3.8730,-0.6794,-0.7208,-1007.57,514.47,1420.23
1830,-3.8730,-0.7739,-0.6061,1039.31,-251.34,-1470.21
1840,-3.8730,-0.8202,-0.5253,945.56,-1564.03,1326.90
1850,-3.8733,-0.8138,-0.4957,-976.32,779.60,-1141.66
1860,-3.8737,-0.7659,-0.5178,-163.82,560.85,-375.98
1870,-3.8740,-0.6925,-0.5764,1976.81,1732.85,-672.91
1880,-3.8743,-0.6132,-0.6447,-632.57,-1767.03,420.72
1890,-3.8745,-0.5494,-0.6816,1523.68,1498.78,233.09
1900,-3.8746,-0.5225,-0.6594,1679.93,764.53,733.03
1910,-3.8746,-0.5345,-0.5917,1133.06,-391.66,1061.16
1920,-3.8746,-0.5583,-0.5134,-413.82,280.15,1280.09
1930,-3.8746,-0.5701,-0.4526,539.31,-1704.22,1545.84
1940,-3.8746,-0.5702,-0.4218,-960.69,-1923.03,-844.67
1950,-3.8746,-0.5614,-0.4167,-976.32,-1969.91,-766.48
1960,-3.8748,-0.5371,-0.4279,148.68,-1329.22,-94.60
1970,-3.8749,-0.4963,-0.4478,-741.94,1248.90,-235.23
1980,-3.8749,-0.4449,-0.4703,476.81,-1297.85,1170.96
1990,-3.8750,-0.3881,-0.4822,-945.07,-188.42,-938.48
2000,-3.8750,-0.3231,-0.4670,-1663.82,-1703.92,1483.40
2010,-3.8750,-0.2528,-0.4232,-1351.32,233.70,-1797.79
2020,-3.8749,-0.1842,-0.3636,-351.32,1843.20,421.02
2030,-3.8749,-0.1174,-0.3077,429.93,1468.38,-1985.11
2040,-3.8749,-0.0450,-0.2715,976.81,624.76,-1734.99
2050,-3.8749,0.0403,-0.2655,-1757.57,1265.50,311.95
2060,-3.8750,0.1350,-0.2921,1164.31,-1984.31,186.95
2070,-3.8439,0.2325,-0.3358,1289.31,-1390.38,171.26
2080,-3.8440,0.3258,-0.3698,1773.68,1016.05,-328.80
2090,-3.8439,0.4121,-0.3822,1711.18,672.49,-1563.23
2100,-3.8439,0.5001,-0.3853,758.06,-921.08,-469.54
2110,-3.8439,0.5886,-0.3922,23.68,-1311.52,1546.08
2120,-3.8440,0.6627,-0.4032,-648.19,1797.97,-157.04
2130,-3.8440,0.7285,-0.4121,836.18,391.91,-32.04
2140,-3.8439,0.8019,-0.4172,1258.06,-748.60,358.52
2150,-3.8440,0.8734,-0.4296,-1351.32,-1404.72,-797.73
2160,-3.8441,0.9254,-0.4619,-195.07,1017.27,-125.85
2170,-3.8441,0.9414,-0.5078,-1538.82,876.77,1795.96
2180,-3.8440,0.9176,-0.5457,508.06,-998.17,1748.96
2190,-3.8750,0.8806,-0.5598,1461.18,-1841.98,-1704.22
2200,-3.8748,0.8635,-0.5587,726.81,345.46,1952.03
2210,-3.8746,0.8848,-0.5740,-1460.69,486.02,1608.28
2220,-3.8746,0.9475,-0.6229,1258.06,-1467.04,1764.47
2230,-3.8746,1.0276,-0.7036,1289.31,267.46,155.03
2240,-3.8748,1.0887,-0.7913,-460.69,1939.45,-1767.03
2250,-3.8748,1.1144,-0.8540,-632.57,-1279.17,1920.29
2260,-3.8746,1.1082,-0.8917,-1351.32,-1310.36,967.04
2270,-3.8745,1.0851,-0.9094,1851.81,1861.51,-1501.77
2280,-3.8744,1.0594,-0.9265,-1101.32,-404.17,-658.08
2290,-3.8743,1.0386,-0.9768,-382.57,1408.26,-1736.21
2300,-3.8741,1.0304,-1.0702,945.56,-1029.24,1123.05
2310,-3.8740,1.0327,-1.1976,-101.32,-982.42,-1080.26
2320,-3.8737,1.0291,-1.3279,195.56,-1294.86,981.99
2330,-3.8733,0.9994,-1.4244,-273.19,-1966.80,1013.00
2340,-3.8729,0.9272,-1.4805,-70.07,1673.77,340.94
2350,-3.8727,0.8197,-1.5072,-1304.44,-1498.23,-127.93
2360,-3.8722,0.7039,-1.5250,929.93,-920.29,356.38
2370,-3.8718,0.6028,-1.5487,-1898.19,798.22,-1549.87
2380,-3.8712,0.5215,-1.5627,1164.31,1766.78,934.45
2390,-3.8706,0.4512,-1.5522,-1241.94,-30.27,1200.01
2400,-3.8702,0.3853,-1.5190,1758.06,1313.35,-534.30
2410,-3.8700,0.3190,-1.4675,1320.56,1563.23,293.88
2420,-3.8701,0.2512,-1.4155,836.18,156.86,-1659.12
2430,-3.8702,0.1873,-1.3865,164.31,-1187.01,262.82
2440,-3.8706,0.1340,-1.3877,-23.19,-1468.44,-1315.25
2450,-3.8710,0.0944,-1.4036,1164.31,-1624.76,-580.87
2460,-3.8712,0.0641,-1.4116,86.18,343.93,278.50
2470,-3.8716,0.0331,-1.3848,211.18,-687.38,-1549.68
2480,-3.8718,-0.0215,-1.3015,242.43,-1249.94,-721.50
2490,-3.8718,-0.1183,-1.1667,1258.06,1421.81,622.44
2500,-3.8718,-0.2546,-1.0139,867.43,-1328.37,1232.06
2510,-3.8718,-0.4014,-0.8829,-585.69,-1766.17,-1955.14
2520,-3.8718,-0.5193,-0.7960,633.06,-1000.79,-1845.52
2530,-3.8719,-0.5854,-0.7542,1539.31,-1876.04,-782.84
2540,-3.8722,-0.5930,-0.7510,1070.56,-516.78,-892.15
2550,-3.8726,-0.5557,-0.7761,101.81,-110.53,-564.03
2560,-3.8729,-0.5027,-0.8191,883.06,670.78,-1142.15
2570,-3.8733,-0.4562,-0.8632,-335.69,-829.16,-751.65
2580,-3.8735,-0.4286,-0.8811,1617.43,1530.33,1732.67
2590,-3.8738,-0.4294,-0.8450,1148.68,-766.48,-79.90
2600,-3.8738,-0.4714,-0.7526,1039.31,-141.48,-548.58
2610,-3.8737,-0.5579,-0.6400,-335.69,-313.48,1029.72
2620,-3.8737,-0.6562,-0.5466,601.81,-1907.35,904.97
2630,-3.8738,-0.7202,-0.4934,8.06,-1954.41,-1016.72
2640,-3.8738,-0.7303,-0.4856,-179.44,857.91,530.27
2650,-3.8739,-0.6910,-0.5146,-1476.32,1857.91,1780.27
2660,-3.8740,-0.6172,-0.5624,-445.07,-1860.78,780.21
2670,-3.8743,-0.5311,-0.6100,1008.06,30.03,577.03
2680,-3.8746,-0.4565,-0.6425,23.68,1936.46,-1110.60
2690,-3.8749,-0.4086,-0.6467,1570.56,1780.33,-1485.66
2700,-3.8750,-0.3882,-0.6201,-288.82,1233.52,1045.59
2710,-3.8439,-0.3878,-0.5714,-1679.44,639.83,-766.85
2720,-3.8750,-0.3881,-0.5167,-1632.57,-1125.79,1139.47
2730,-3.8749,-0.3669,-0.4696,-1663.82,1874.21,1092.71
2740,-3.8748,-0.3180,-0.4358,1039.31,-94.48,1467.77
2750,-3.8746,-0.2511,-0.4147,-695.07,233.70,936.65
2760,-3.8746,-0.1835,-0.4042,-132.57,-1063.05,686.65
2770,-3.8749,-0.1250,-0.3983,523.68,280.88,-672.67
2780,-3.8750,-0.0801,-0.3956,8.06,1031.01,514.83
2790,-3.8440,-0.0406,-0.4036,1758.06,1374.82,-766.42
2800,-3.8441,0.0106,-0.4215,-1195.07,359.25,-1688.29
2810,-3.8442,0.0767,-0.4426,1367.43,-1953.12,1780.40
2820,-3.8444,0.1503,-0.4541,1820.56,-656.13,-750.92
2830,-3.8444,0.2178,-0.4413,-757.57,1875.24,1952.21
2840,-3.8444,0.2660,-0.4055,-116.94,-484.01,670.96
2850,-3.8444,0.2963,-0.3636,-1945.07,94.24,405.46
2860,-3.8444,0.3131,-0.3268,1929.93,1453.67,-1578.86
2870,-3.8442,0.3237,-0.2932,86.18,-1827.51,-141.30
2880,-3.8440,0.3448,-0.2733,1445.56,-1530.64,-1406.86
2890,-3.8439,0.3905,-0.2732,148.68,1016.30,-1672.42
2900,-3.8439,0.4663,-0.2860,1992.43,1031.98,-1250.55
2910,-3.8439,0.5748,-0.3130,-304.44,-608.52,140.01
2920,-3.8441,0.7028,-0.3629,1586.18,-61.40,61.83
2930,-3.8445,0.8232,-0.4277,1961.18,1548.22,577.39
2940,-3.8448,0.9164,-0.4845,1383.06,1251.59,-141.48
2950,-3.8448,0.9663,-0.5281,1304.93,1986.15,30.27
2960,-3.8448,0.9731,-0.5575,-304.44,408.08,936.46
2970,-3.8447,0.9672,-0.5693,570.56,642.52,-1204.22
2980,-3.8445,0.9707,-0.5723,-195.07,-873.17,-844.91
2990,-3.8442,0.9801,-0.5737,258.06,-1248.11,-1610.53
3000,-3.8441,0.9940,-0.5846,1461.18,-1435.61,-626.16
3010,-3.8440,1.0155,-0.6185,-757.57,1173.77,-844.91
3020,-3.8439,1.0393,-0.6719,1992.43,830.08,-1969.97
3030,-3.8439,1.0520,-0.7384,1039.31,-1997.99,-1079.47
3040,-3.8439,1.0493,-0.8242,-1335.69,1486.39,-1048.34
3050,-3.8750,1.0453,-0.9222,-1679.44,-1497.99,732.73
3060,-3.8749,1.0591,-1.0089,1804.93,1955.14,1029.42
3070,-3.8746,1.0957,-1.0619,-429.44,-1138.61,91.74
3080,-3.8744,1.1375,-1.0669,258.06,80.26,1904.17
3090,-3.8740,1.1591,-1.0358,1601.81,-560.30,575.99
3100,-3.8738,1.1542,-1.0024,367.43,-575.87,-1595.83
3110,-3.8735,1.1354,-0.9894,-257.57,-310.30,-548.89
3120,-3.8732,1.1141,-1.0099,1336.18,1361.57,1498.05
3130,-3.8728,1.0864,-1.0546,-1382.57,-1263.49,-1923.89
3140,-3.8723,1.0453,-1.1062,-929.44,1017.70,-642.70
3150,-3.8717,0.9940,-1.1724,1804.93,-1591.74,-720.95
3160,-3.8712,0.9318,-1.2513,-757.57,1939.39,1575.81
3170,-3.8711,0.8546,-1.3298,-726.32,-170.10,-252.50
3180,-3.8710,0.7621,-1.3910,1398.68,1782.90,-440.12
3190,-3.8707,0.6593,-1.4205,1554.93,1954.59,-393.37
3200,-3.8704,0.5581,-1.4272,398.68,-1826.84,1872.19
3210,-3.8702,0.4742,-1.4249,-554.44,1313.54,-1221.56
3220,-3.8702,0.4216,-1.4243,711.18,1610.29,387.82
3230,-3.8705,0.3877,-1.4343,1976.81,1688.29,1965.94
3240,-3.8706,0.3375,-1.4254,1633.06,406.98,872.19
3250,-3.8706,0.2509,-1.3521,-788.82,1547.49,-1909.06
3260,-3.8705,0.1288,-1.2357,117.43,-1062.01,-502.69
3270,-3.8704,-0.0037,-1.1481,492.43,1828.37,-1393.07
3280,-3.8705,-0.1222,-1.1213,-460.69,1062.44,-174.13
3290,-3.8707,-0.2192,-1.1306,367.43,484.13,-174.07
3300,-3.8710,-0.2812,-1.1389,-54.44,-703.61,1200.87
3310,-3.8715,-0.3129,-1.1202,8.06,-1766.17,-705.38
3320,-3.8718,-0.3408,-1.0691,-38.82,624.33,1841.55
3330,-3.8721,-0.3771,-0.9924,383.06,-828.80,-439.64
3340,-3.8721,-0.4236,-0.9021,-257.57,983.58,-1408.20
3350,-3.8721,-0.4750,-0.8214,1789.31,546.02,-1517.40
3360,-3.8721,-0.5194,-0.7584,-788.82,-1125.98,1279.60
3370,-3.8722,-0.5563,-0.7136,1523.68,-1063.54,951.60
3380,-3.8724,-0.5863,-0.6890,804.93,670.78,1982.97
3390,-3.8727,-0.6107,-0.6746,961.18,-173.03,-485.78
3400,-3.8728,-0.6279,-0.6637,1836.18,1670.65,-1220.09
3410,-3.8729,-0.6315,-0.6570,-366.94,-938.78,1061.16
3420,-3.8733,-0.6194,-0.6552,-820.07,-79.41,-48.22
3430,-3.8735,-0.5939,-0.6592,726.81,155.03,1561.22
3440,-3.8738,-0.5629,-0.6667,-7.57,-360.60,1154.91
3450,-3.8739,-0.5363,-0.6632,-38.82,-1329.28,217.41
3460,-3.8740,-0.5178,-0.6343,-632.57,-876.10,1951.78
3470,-3.8740,-0.5039,-0.5864,1726.81,-1172.91,295.59
3480,-3.8741,-0.4893,-0.5420,-491.94,952.09,655.09
3490,-3.8744,-0.4720,-0.5237,1383.06,-1360.35,1764.53
3500,-3.8746,-0.4507,-0.5330,-413.82,983.40,1358.34
3510,-3.8749,-0.4241,-0.5507,-1679.44,-204.04,-954.22
3520,-3.8749,-0.3922,-0.5579,1726.81,1530.40,670.78
3530,-3.8749,-0.3594,-0.5383,1804.93,608.58,358.28
3540,-3.8749,-0.3319,-0.4895,-1991.94,-891.36,436.40
3550,-3.8750,-0.3035,-0.4329,1523.68,1358.70,-47.85
3560,-3.8750,-0.2626,-0.3893,1164.31,608.76,1530.40
3570,-3.8439,-0.2059,-0.3632,-1601.32,-1813.05,-1266.42
3580,-3.8439,-0.1340,-0.3508,1648.68,1530.82,1139.89
3590,-3.8440,-0.0485,-0.3472,-1148.19,-890.93,-781.98
3600,-3.8440,0.0431,-0.3397,1804.93,-422.00,421.14
3610,-3.8441,0.1313,-0.3218,1523.68,515.69,-1797.55
3620,-3.8441,0.2067,-0.3052,820.56,-1187.26,124.33
3630,-3.8442,0.2637,-0.2963,-1538.82,937.87,1530.64
3640,-3.8442,0.3069,-0.2874,1758.06,-1921.39,1624.39
3650,-3.8441,0.3518,-0.2787,-710.69,-780.70,-1797.49
3660,-3.8440,0.4097,-0.2805,1039.31,328.80,-1984.92
3670,-3.8440,0.4784,-0.2948,445.56,94.54,186.95
3680,-3.8442,0.5563,-0.3140,1242.43,-1733.46,-1094.36
3690,-3.8444,0.6422,-0.3396,-788.82,-186.46,1108.70
3700,-3.8446,0.7235,-0.3820,-1788.82,532.47,-969.42
3710,-3.8447,0.7819,-0.4312,617.43,-889.22,-1266.42
3720,-3.8447,0.8079,-0.4657,86.18,814.03,-1438.35
3730,-3.8446,0.8038,-0.4860,-585.69,392.15,-1922.79
3740,-3.8445,0.7806,-0.4991,-1101.32,1798.40,-219.73
3750,-3.8442,0.7590,-0.5073,-70.07,110.84,-1344.73
3760,-3.8440,0.7578,-0.5159,1164.31,-936.04,1092.71
3770,-3.8439,0.7773,-0.5289,1008.06,1970.21,1373.96
3780,-3.8439,0.8025,-0.5582,-491.94,298.34,-641.66
3790,-3.8439,0.8180,-0.6040,-1273.19,548.40,-641.72
3800,-3.8439,0.8185,-0.6604,711.18,-1310.91,-1704.35
3810,-3.8439,0.8129,-0.7296,773.68,-529.66,-1095.09
3820,-3.8750,0.8171,-0.8093,54.93,-1389.04,-1282.71
3830,-3.8748,0.8348,-0.8983,601.81,407.84,810.91
3840,-3.8746,0.8582,-0.9839,-1132.57,1017.21,-79.90
3850,-3.8743,0.8784,-1.0548,1851.81,-1935.85,685.55
3860,-3.8739,0.8866,-1.1177,445.56,986.08,888.55
3870,-3.8734,0.8763,-1.1779,1492.43,939.21,497.80
3880,-3.8729,0.8500,-1.2429,179.93,1236.08,1622.68
3890,-3.8724,0.8179,-1.3198,804.93,907.90,-205.57
3900,-3.8717,0.7833,-1.4008,695.56,-935.91,184.88
3910,-3.8711,0.7395,-1.4816,273.68,704.65,-1159.00
3920,-3.8704,0.6847,-1.5488,-1335.69,-1639.22,1653.32
3930,-3.8698,0.6222,-1.5870,-351.32,1751.28,731.32
3940,-3.8695,0.5581,-1.6133,-351.32,860.53,-253.11
3950,-3.8694,0.4938,-1.6344,-554.44,1501.04,715.58
3960,-3.8695,0.4111,-1.6205,-788.82,-1202.21,-1612.61
3970,-3.8694,0.2958,-1.5604,633.06,578.92,-1737.55
3980,-3.8691,0.1580,-1.4714,1867.43,266.17,-1581.18
3990,-3.8690,0.0137,-1.3783,226.81,-343.44,-1221.68
4000,-3.8690,-0.1118,-1.3141,1758.06,-421.88,669.13
4010,-3.8694,-0.2013,-1.2841,1695.56,-187.74,-1221.37
4020,-3.8699,-0.2749,-1.2473,-1757.57,-344.18,-1861.94
4030,-3.8702,-0.3551,-1.1735,820.56,358.83,1122.56
4040,-3.8705,-0.4470,-1.0740,-1445.07,1811.77,-564.82
4050,-3.8706,-0.5464,-0.9789,-1210.69,-1454.04,607.24
4060,-3.8711,-0.6345,-0.9094,-1929.44,-1282.35,-111.33
4070,-3.8716,-0.6910,-0.8639,-1210.69,-391.91,-126.83
4080,-3.8719,-0.7090,-0.8358,-445.07,1436.10,-532.96
4090,-3.8721,-0.7061,-0.8123,1258.06,1029.85,-1423.52
4100,-3.8721,-0.7084,-0.7740,1633.06,45.47,1904.66
4110,-3.8722,-0.7238,-0.7185,1336.18,936.10,-95.28
4120,-3.8723,-0.7444,-0.6610,-632.57,45.41,1779.85
4130,-3.8727,-0.7563,-0.6182,726.81,-595.21,-329.47
4140,-3.8730,-0.7504,-0.5947,-804.44,889.10,-173.10
4150,-3.8733,-0.7300,-0.5845,-38.82,-110.90,-1251.22
4160,-3.8734,-0.7089,-0.5807,-1429.44,1201.66,-1204.28
4170,-3.8734,-0.6957,-0.5787,1273.68,1686.10,295.72
4180,-3.8737,-0.6855,-0.5765,-1038.82,1936.10,-1251.16
4190,-3.8739,-0.6654,-0.5760,258.06,-1782.59,-1813.66
4200,-3.8741,-0.6283,-0.5785,-1163.82,-1720.09,-1923.03
4210,-3.8743,-0.5853,-0.5751,-413.82,1967.47,170.72
4220,-3.8745,-0.5521,-0.5583,1086.18,-1594.91,-16.78
4230,-3.8745,-0.5338,-0.5336,1336.18,545.78,264.53
4240,-3.8748,-0.5255,-0.5011,-320.07,-282.35,-376.10
4250,-3.8749,-0.5178,-0.4623,742.43,-126.04,-907.29
4260,-3.8750,-0.5067,-0.4319,1726.81,842.71,-94.67
4270,-3.8750,-0.4943,-0.4197,-851.32,733.34,921.02
4280,-3.8439,-0.4774,-0.4169,742.43,-1704.10,-1360.23
4290,-3.8439,-0.4415,-0.4133,-1101.32,-1344.73,-1703.98
4300,-3.8439,-0.3794,-0.4087,-507.57,-891.54,-1672.73
4310,-3.8439,-0.3000,-0.4009,-554.44,-297.67,1452.27
4320,-3.8439,-0.2133,-0.3828,1601.81,702.51,546.08
4330,-3.8440,-0.1233,-0.3521,711.18,-984.80,-16.42
4340,-3.8440,-0.0354,-0.3101,226.81,-1047.12,-485.11
4350,-3.8440,0.0458,-0.2620,-523.19,328.00,-484.99
4360,-3.8440,0.1189,-0.2179,1867.43,-1531.19,-1313.05
4370,-3.8440,0.1864,-0.1821,-773.19,109.56,437.07
4380,-3.8441,0.2556,-0.1598,-132.57,687.81,-328.49
4390,-3.8440,0.3323,-0.1578,726.81,-452.64,1655.88
4400,-3.8440,0.4216,-0.1727,-1460.69,-202.51,-406.62
4410,-3.8440,0.5297,-0.2032,1976.81,1891.42,-1422.24
4420,-3.8441,0.6543,-0.2523,-195.07,1985.35,-406.68
4430,-3.8441,0.7784,-0.3094,-241.94,-295.65,358.83
4440,-3.8442,0.8777,-0.3525,-351.32,392.09,-594.36
4450,-3.8441,0.9434,-0.3689,351.81,-1123.29,-516.36
4460,-3.8439,0.9825,-0.3677,758.06,783.08,1827.39
4470,-3.8750,1.0068,-0.3645,1773.68,939.39,1311.77
4480,-3.8750,1.0304,-0.3750,883.06,1345.70,1343.02
4490,-3.8750,1.0533,-0.4141,-101.32,1.95,-1781.98
4500,-3.8749,1.0614,-0.4725,-1163.82,-997.99,-922.73
4510,-3.8746,1.0492,-0.5350,-132.57,-482.36,1905.27
4520,-3.8745,1.0293,-0.5995,-1695.07,-482.36,-1422.97
4530,-3.8745,1.0217,-0.6671,-241.94,-732.42,-344.97
4540,-3.8745,1.0333,-0.7366,-1210.69,-1388.67,-1313.84
4550,-3.8745,1.0564,-0.8041,273.68,1720.76,-1173.34
4560,-3.8744,1.0817,-0.8711,-773.19,1080.14,123.41
4570,-3.8745,1.1034,-0.9478,-1538.82,502.08,-470.46
4580,-3.8745,1.1171,-1.0400,1242.43,-1310.36,-1611.27
4590,-3.8744,1.1233,-1.1232,-1007.57,-1122.86,-783.33
4600,-3.8739,1.1232,-1.1675,-210.69,236.51,1060.30
4610,-3.8734,1.1125,-1.1863,-226.32,-1435.36,-1455.44
4620,-3.8729,1.0934,-1.2040,-1585.69,158.39,-1908.57
4630,-3.8726,1.0635,-1.2292,-38.82,1892.70,-1189.88
4640,-3.8722,1.0085,-1.2759,133.06,-1341.67,1903.81
4650,-3.8718,0.9227,-1.3419,1101.81,689.45,1169.37
4660,-3.8715,0.8170,-1.4087,-1882.57,236.15,-1658.87
4670,-3.8710,0.7073,-1.4691,586.18,-310.91,1809.69
4680,-3.8706,0.6042,-1.5172,-1460.69,-45.53,-331.05
4690,-3.8704,0.5148,-1.5455,1351.81,1798.03,-1237.37
4700,-3.8704,0.4333,-1.5544,1898.68,-1827.15,-1721.80
4710,-3.8705,0.3457,-1.5532,-523.19,1032.04,1996.95
4720,-3.8706,0.2465,-1.5372,258.06,1188.17,-1409.30
4730,-3.8706,0.1298,-1.4836,-445.07,-765.20,-1284.30
4740,-3.8705,-0.0126,-1.3906,617.43,-1906.01,1715.82
4750,-3.8704,-0.1737,-1.2805,-1601.32,-1984.44,278.50
4760,-3.8704,-0.3237,-1.1720,1773.68,109.01,763.12
4770,-3.8705,-0.4293,-1.0784,-1429.44,1999.33,-299.19
4780,-3.8705,-0.4784,-1.0072,1054.93,1983.52,685.36
4790,-3.8707,-0.4849,-0.9569,-1226.32,-907.23,607.36
4800,-3.8712,-0.4697,-0.9257,1945.56,1530.27,-986.27
4810,-3.8716,-0.4492,-0.9115,-116.94,1530.27,904.42
4820,-3.8719,-0.4406,-0.8992,-1491.94,-657.17,1623.17
4830,-3.8722,-0.4550,-0.8684,-382.57,920.96,1826.35
4840,-3.8723,-0.4955,-0.8121,1773.68,858.46,-1361.08
4850,-3.8723,-0.5586,-0.7363,586.18,61.52,-1454.71
4860,-3.8723,-0.6294,-0.6582,508.06,1764.53,1686.04
4870,-3.8724,-0.6801,-0.5978,-554.44,-235.66,1498.66
4880,-3.8727,-0.6919,-0.5723,961.18,-501.34,1139.40
4890,-3.8730,-0.6663,-0.5924,-554.44,-1235.78,1483.22
4900,-3.8734,-0.6132,-0.6548,-1273.19,186.16,358.22
4910,-3.8738,-0.5483,-0.7388,1523.68,201.90,233.09
4920,-3.8741,-0.4890,-0.8108,1820.56,1452.03,-829.59
4930,-3.8743,-0.4484,-0.8490,1414.31,233.40,1264.04
4940,-3.8744,-0.4332,-0.8435,-1382.57,-657.17,-1798.58
4950,-3.8744,-0.4329,-0.7871,554.93,46.02,1342.10
4960,-3.8744,-0.4297,-0.6987,601.81,-735.23,779.66
4970,-3.8745,-0.4210,-0.6152,1008.06,-1422.73,-345.15
4980,-3.8745,-0.4092,-0.5548,-1882.57,1264.77,-1110.60
4990,-3.8745,-0.3894,-0.5164,-366.94,999.15,-1813.60
5000,-3.8746,-0.3607,-0.4968,-1835.69,1921.08,-313.54
5010,-3.8748,-0.3276,-0.4865,1836.18,421.14,-282.23
5020,-3.8748,-0.2891,-0.4741,-1929.44,1749.33,530.27
5030,-3.8749,-0.2410,-0.4586,-991.94,-672.49,-1688.48
5040,-3.8750,-0.1780,-0.4397,1164.31,1312.01,-1141.54
5050,-3.8439,-0.0972,-0.4158,1226.81,-265.99,1405.33
5060,-3.8441,-0.0076,-0.3887,-429.44,-1203.37,-703.98
5070,-3.8442,0.0718,-0.3562,-960.69,-1734.44,-1719.54
5080,-3.8442,0.1359,-0.3143,1195.56,-1593.63,280.52
5090,-3.8442,0.1951,-0.2716,1398.68,-234.13,327.45
5100,-3.8444,0.2596,-0.2426,976.81,1234.74,-359.92
5110,-3.8444,0.3344,-0.2319,1242.43,953.61,1796.39
5120,-3.8445,0.4146,-0.2393,-1195.07,-1686.89,-375.49
5130,-3.8445,0.4901,-0.2645,1070.56,1375.79,-1797.36
5140,-3.8445,0.5588,-0.3025,-1257.57,-1858.46,1546.33
5150,-3.8445,0.6223,-0.3387,-460.69,1282.29,1186.89
5160,-3.8445,0.6813,-0.3628,-335.69,641.78,1514.95
5170,-3.8445,0.7336,-0.3798,-788.82,1563.78,1702.39
5180,-3.8445,0.7739,-0.3990,1914.31,-607.97,202.33
5190,-3.8446,0.8010,-0.4277,-929.44,923.34,1202.33
5200,-3.8446,0.8164,-0.4619,-1460.69,1251.53,14.77
5210,-3.8445,0.8195,-0.4871,508.06,876.59,905.33
5220,-3.8442,0.8073,-0.4945,898.68,1657.84,-954.10
5230,-3.8439,0.7892,-0.4886,-663.82,704.65,-1766.60
5240,-3.8749,0.7904,-0.4862,1023.68,1454.65,-672.85
5250,-3.8748,0.8263,-0.5049,1179.93,1767.15,-360.35
5260,-3.8748,0.8877,-0.5557,1773.68,-623.41,-735.41
5270,-3.8748,0.9556,-0.6333,1633.06,876.71,-1922.97
5280,-3.8748,1.0106,-0.7106,-1679.44,-1060.67,-735.66
5290,-3.8746,1.0326,-0.7643,1367.43,1048.83,-860.78
5300,-3.8744,1.0167,-0.7932,179.93,-1826.11,-1735.90
5310,-3.8740,0.9888,-0.8026,-1851.32,-1529.30,1185.91
5320,-3.8737,0.9756,-0.8130,-1429.44,1267.52,1295.29
5330,-3.8734,0.9838,-0.8529,883.06,-60.61,-345.40
5340,-3.8730,1.0092,-0.9106,1929.93,-1169.98,1592.04
5350,-3.8727,1.0374,-0.9553,1179.93,-560.55,1576.29
5360,-3.8723,1.0499,-0.9750,789.31,1720.76,-1173.77
5370,-3.8719,1.0400,-0.9778,-1601.32,-794.86,-1923.83
5380,-3.8717,1.0133,-1.0022,1133.06,-1154.24,1248.05
5390,-3.8716,0.9758,-1.0782,1711.18,-279.30,1638.61
5400,-3.8715,0.9219,-1.1664,914.31,1986.27,-142.76
5410,-3.8710,0.8441,-1.2169,-1991.94,-1295.10,1388.31
5420,-3.8704,0.7460,-1.2228,54.93,236.02,622.62
5430,-3.8699,0.6400,-1.1913,-507.57,-514.22,763.18
5440,-3.8698,0.5326,-1.1547,1929.93,-483.15,-1596.13
5450,-3.8698,0.4357,-1.1522,179.93,204.16,-721.01
5460,-3.8695,0.3524,-1.1815,-226.32,516.42,482.12
5470,-3.8694,0.2598,-1.2180,1117.43,766.30,-1267.94
5480,-3.8694,0.1560,-1.2478,1258.06,94.24,-205.51
5490,-3.8695,0.0619,-1.2715,-23.19,281.49,1841.31
5500,-3.8699,-0.0134,-1.2899,-70.07,1250.06,-1549.38
5510,-3.8702,-0.0850,-1.2863,-1710.69,-1093.81,591.19
5520,-3.8706,-0.1772,-1.2417,1133.06,-625.18,966.19
5530,-3.8707,-0.2913,-1.1549,1320.56,1077.76,91.31
5540,-3.8708,-0.4132,-1.0498,-1273.19,186.89,-1596.01
5550,-3.8710,-0.5217,-0.9606,-882.57,1639.77,-1080.20
5560,-3.8711,-0.5988,-0.9110,1226.81,1061.46,-1955.02
5570,-3.8713,-0.6478,-0.8954,-632.57,-594.97,-798.71
5580,-3.8716,-0.6709,-0.8926,1086.18,1404.97,810.73
5590,-3.8719,-0.6548,-0.8947,-1866.94,1764.28,123.23
5600,-3.8724,-0.5975,-0.8918,195.56,1498.72,-1220.52
5610,-3.8728,-0.5225,-0.8740,-476.32,1858.15,826.35
5620,-3.8733,-0.4535,-0.8385,1133.06,139.59,-142.33
5630,-3.8735,-0.4056,-0.7894,1961.18,686.58,1138.98
5640,-3.8738,-0.3835,-0.7349,86.18,-1032.04,1467.16
5650,-3.8739,-0.3860,-0.6779,-1085.69,1952.33,1592.29
5660,-3.8739,-0.4070,-0.6306,-1398.19,1249.21,154.91
5670,-3.8740,-0.4358,-0.6036,-85.69,-703.98,-1516.91
5680,-3.8741,-0.4554,-0.5940,226.81,-1250.85,-485.60
5690,-3.8743,-0.4550,-0.6000,1711.18,-16.54,-94.97
5700,-3.8743,-0.4396,-0.6127,1773.68,-782.17,30.03
5710,-3.8745,-0.4198,-0.6165,-257.57,1592.83,-32.47
5720,-3.8745,-0.4001,-0.5985,-1726.32,1108.52,498.78
5730,-3.8746,-0.3799,-0.5601,789.31,-594.54,1389.40
5740,-3.8748,-0.3616,-0.5154,-616.94,327.33,1108.28
5750,-3.8750,-0.3440,-0.4784,1726.81,-1953.86,-219.79
5760,-3.8439,-0.3125,-0.4480,-23.19,-1219.48,-110.35
5770,-3.8439,-0.2537,-0.4185,8.06,-1328.74,-485.29
5780,-3.8750,-0.1711,-0.3865,-460.69,-1547.42,-1828.98
5790,-3.8749,-0.0819,-0.3429,-1898.19,-1453.49,-1813.29
5800,-3.8748,-0.0043,-0.2867,1523.68,124.82,1639.95
5810,-3.8748,0.0582,-0.2258,-538.82,-687.56,-1281.86
5820,-3.8748,0.1178,-0.1735,-538.82,-906.19,687.01
5830,-3.8750,0.1864,-0.1467,-913.82,1797.06,-109.74
5840,-3.8439,0.2675,-0.1470,-132.57,1219.06,-1562.81
5850,-3.8439,0.3569,-0.1613,-1757.57,1187.99,187.19
5860,-3.8439,0.4429,-0.1823,1695.56,-639.95,-1672.24
5870,-3.8750,0.5123,-0.2045,695.56,672.73,-1765.99
5880,-3.8749,0.5729,-0.2179,1586.18,1829.10,577.70
5890,-3.8750,0.6404,-0.2202,1336.18,110.47,-828.55
5900,-3.8439,0.7134,-0.2285,1976.81,-186.28,-1344.24
5910,-3.8440,0.7864,-0.2603,-679.44,-1248.66,1046.39
5920,-3.8442,0.8645,-0.3131,664.31,-1310.97,-563.05
5930,-3.8444,0.9438,-0.3699,-1335.69,-76.48,-0.67
5940,-3.8442,1.0112,-0.4144,820.56,658.08,-1500.73
5950,-3.8440,1.0624,-0.4419,1445.56,-1044.92,889.77
5960,-3.8439,1.1062,-0.4548,-7.57,-560.49,-1172.79
5970,-3.8749,1.1583,-0.4667,1601.81,1783.39,92.83
5980,-3.8748,1.2229,-0.4932,273.68,267.88,842.83
5990,-3.8746,1.2864,-0.5428,539.31,877.38,-1719.73
6000,-3.8744,1.3312,-0.6172,664.31,-1481.87,1217.65
6010,-3.8741,1.3367,-0.6975,-1601.32,1002.56,983.15
6020,-3.8739,1.2943,-0.7705,-898.19,-1278.69,1670.47
6030,-3.8737,1.2288,-0.8667,1679.93,1377.50,-1376.53
6040,-3.8733,1.1682,-1.0070,1289.31,1064.88,763.92
6050,-3.8729,1.1204,-1.1602,1539.31,-888.37,1872.99
6060,-3.8726,1.0770,-1.3029,-585.69,-497.86,1544.56
6070,-3.8724,1.0287,-1.4346,1867.43,1236.45,-1627.56
6080,-3.8726,0.9788,-1.5620,-320.07,376.95,-143.43
6090,-3.8728,0.9307,-1.6945,1289.31,64.39,-503.05
6100,-3.8730,0.8756,-1.8186,-866.94,-888.85,-1643.98
6110,-3.8730,0.8129,-1.8948,86.18,-779.54,1527.65
6120,-3.8728,0.7399,-1.8956,54.93,1470.34,-1925.60
6130,-3.8724,0.6451,-1.8336,-1288.82,1360.78,730.65
6140,-3.8722,0.5393,-1.7509,-1413.82,1298.10,1887.02
6150,-3.8719,0.4417,-1.6858,1039.31,-108.34,1246.52
6160,-3.8717,0.3557,-1.6433,539.31,219.60,152.95
6170,-3.8716,0.2723,-1.6078,1539.31,1656.92,-1018.86
6180,-3.8715,0.1818,-1.5708,-1132.57,-1796.39,903.08
6190,-3.8716,0.0845,-1.5300,-726.32,-1062.19,793.76
6200,-3.8718,0.0010,-1.4813,-1179.44,156.37,-1471.74
6210,-3.8721,-0.0527,-1.4189,133.06,-1609.38,-581.05
6220,-3.8722,-0.0873,-1.3436,1258.06,-1609.50,1497.19
6230,-3.8724,-0.1206,-1.2671,836.18,31.07,-33.87
6240,-3.8727,-0.1554,-1.1896,570.56,1827.88,-1190.00
6250,-3.8728,-0.1816,-1.0857,117.43,-250.31,247.62
6260,-3.8728,-0.2197,-0.9521,758.06,1046.51,-1189.64
6270,-3.8727,-0.3007,-0.8180,-116.94,-1859.86,-876.89
6280,-3.8727,-0.4200,-0.7003,1523.68,-688.11,-876.65
6290,-3.8728,-0.5624,-0.6024,-1757.57,-1625.85,-376.40
6300,-3.8728,-0.6941,-0.5356,23.68,-1094.85,1373.78
6310,-3.8727,-0.7750,-0.4963,-835.69,-548.28,639.53
6320,-3.8726,-0.8010,-0.4724,804.93,482.85,202.15
6330,-3.8727,-0.7759,-0.4718,1476.81,-454.71,952.15
6340,-3.8730,-0.7109,-0.4868,695.56,-376.53,-1844.73
6350,-3.8735,-0.6515,-0.4969,1008.06,1701.72,-1079.10
6360,-3.8739,-0.6218,-0.4971,617.43,404.97,827.15
6370,-3.8741,-0.6071,-0.4860,414.31,389.40,-1829.10
6380,-3.8741,-0.6123,-0.4680,-1695.07,1811.28,1920.90
6390,-3.8741,-0.6503,-0.4435,1633.06,108.15,-1079.04
6400,-3.8741,-0.7069,-0.4052,773.68,-751.28,-719.67
6410,-3.8741,-0.7634,-0.3586,1523.68,154.85,92.96
6420,-3.8744,-0.7944,-0.3240,-1710.69,-1892.15,1358.64
6430,-3.8746,-0.7722,-0.3177,-1679.44,-1454.71,-1344.42
6440,-3.8748,-0.6943,-0.3378,1164.31,-657.78,343.08
6450,-3.8750,-0.5812,-0.3680,-866.94,779.85,1780.58
6460,-3.8440,-0.4607,-0.3937,1617.43,905.09,-844.48
6470,-3.8441,-0.3578,-0.4089,1039.31,1624.08,1624.21
6480,-3.8442,-0.2822,-0.4019,-1788.82,-328.86,-219.60
6490,-3.8441,-0.2308,-0.3629,-116.94,577.51,-1891.42
6500,-3.8440,-0.1967,-0.3048,-1538.82,1562.01,-1641.36
6510,-3.8439,-0.1658,-0.2540,-1163.82,999.57,1702.51
6520,-3.8439,-0.1211,-0.2317,-1210.69,-500.37,-1516.17
6530,-3.8439,-0.0529,-0.2369,508.06,-1640.87,1671.39
6540,-3.8440,0.0321,-0.2512,1242.43,1687.38,-297.36
6550,-3.8440,0.1188,-0.2618,117.43,-156.19,1436.95
6560,-3.8440,0.2028,-0.2773,-788.82,-1515.44,968.20
6570,-3.8440,0.2875,-0.3123,1961.18,500.37,390.08
6580,-3.8441,0.3718,-0.3481,804.93,31.80,1999.39
6590,-3.8441,0.4557,-0.3597,-398.19,-561.83,-985.11
6600,-3.8439,0.5404,-0.3662,-1663.82,1953.98,108.64
6610,-3.8439,0.6222,-0.3846,1179.93,1126.04,1530.52
6620,-3.8440,0.7015,-0.4017,-351.32,-1233.22,-172.67
6630,-3.8439,0.7812,-0.4199,1804.93,579.47,-1235.17
6640,-3.8749,0.8503,-0.4595,8.06,-1748.47,171.02
6650,-3.8749,0.9031,-0.5203,851.81,1189.15,1061.58
6660,-3.8749,0.9496,-0.5735,-398.19,1407.96,405.21
6670,-3.8748,0.9869,-0.6077,1554.93,-1404.42,686.34
6680,-3.8745,1.0034,-0.6233,-1663.82,-1779.36,-1516.85
6690,-3.8741,0.9973,-0.6122,445.56,220.70,-1798.10
6700,-3.8738,0.9877,-0.5872,-335.69,1642.52,389.40
6710,-3.8737,1.0045,-0.5796,-1570.07,845.64,-1391.78
6720,-3.8737,1.0535,-0.6206,586.18,1814.45,-157.41
6730,-3.8737,1.1213,-0.7153,-1148.19,564.51,-1344.97
6740,-3.8737,1.1899,-0.8387,-460.69,439.64,-876.40
6750,-3.8734,1.2285,-0.9495,320.56,642.94,545.23
6760,-3.8730,1.2156,-1.0020,1258.06,-1528.87,-1376.89
6770,-3.8724,1.1542,-1.0037,-398.19,-247.68,451.11
6780,-3.8721,1.0735,-1.0223,-257.57,-466.55,122.99
6790,-3.8718,1.0044,-1.0892,1414.31,1142.70,466.74
6800,-3.8715,0.9491,-1.1747,570.56,580.08,1122.86
6810,-3.8710,0.8964,-1.2494,1492.43,1642.46,1278.93
6820,-3.8705,0.8313,-1.2961,-1257.57,79.83,-1674.32
6830,-3.8699,0.7502,-1.3112,-1585.69,-1904.66,1450.56
6840,-3.8693,0.6532,-1.3114,39.31,173.34,403.69
6850,-3.8689,0.5339,-1.3011,-382.57,141.85,-986.94
6860,-3.8685,0.4067,-1.2610,351.81,1454.16,-1705.69
6870,-3.8683,0.2957,-1.1835,70.56,-1405.46,-1268.13
6880,-3.8683,0.1948,-1.0813,1851.81,516.17,-1892.94
6890,-3.8688,0.0984,-1.0129,945.56,1594.12,-174.01
6900,-3.8693,0.0505,-1.0149,601.81,-1656.07,1935.49
6910,-3.8696,0.0361,-1.0286,-1523.19,-1906.19,107.36
6920,-3.8700,-0.0269,-1.0049,633.06,343.81,-1158.26
6930,-3.8701,-0.1536,-0.9622,570.56,-609.44,-127.01
6940,-3.8701,-0.3127,-0.9258,351.81,859.07,1998.11
6950,-3.8704,-0.4709,-0.9039,-23.19,1514.95,1326.29
6960,-3.8710,-0.5872,-0.9116,-273.19,311.52,-1267.40
6970,-3.8716,-0.6295,-0.9581,851.81,-673.03,1841.92
6980,-3.8719,-0.6060,-1.0232,-570.07,1373.72,-1439.39
6990,-3.8721,-0.5823,-1.0840,-1554.44,1045.65,-298.89
7000,-3.8722,-0.6104,-1.1239,1476.81,1264.47,-1580.26
7010,-3.8726,-0.6836,-1.1127,1883.06,155.03,-189.70
7020,-3.8728,-0.7716,-1.0289,508.06,1592.41,857.18
7030,-3.8732,-0.8453,-0.8834,1242.43,310.97,-970.76
7040,-3.8734,-0.8975,-0.7253,-195.07,-1064.21,-1845.52
7050,-3.8737,-0.9198,-0.6134,1133.06,-829.90,-470.21
7060,-3.8738,-0.9084,-0.5551,-1726.32,1498.17,-876.22
7070,-3.8738,-0.8811,-0.5142,-273.19,966.92,-1110.47
7080,-3.8737,-0.8535,-0.4708,-773.19,-1798.65,1748.96
7090,-3.8737,-0.8279,-0.4370,-1241.94,-251.71,1577.15
7100,-3.8738,-0.7922,-0.4252,-1960.69,76.48,77.27
7110,-3.8741,-0.7328,-0.4268,-1398.19,1592.16,-157.10
7120,-3.8744,-0.6566,-0.4326,-1788.82,1389.16,-938.35
7130,-3.8746,-0.5826,-0.4412,-38.82,639.28,1186.65
7140,-3.8750,-0.5272,-0.4452,1429.93,-454.28,-625.92
7150,-3.8439,-0.4945,-0.4417,523.68,-969.79,1092.83
7160,-3.8440,-0.4805,-0.4283,711.18,-516.60,-829.04
7170,-3.8440,-0.4747,-0.4030,-1491.94,1186.52,-63.35
7180,-3.8439,-0.4641,-0.3695,-757.57,436.52,1686.71
7190,-3.8439,-0.4406,-0.3381,601.81,717.83,-1844.48
7200,-3.8440,-0.3999,-0.3203,-382.57,733.46,-485.05
7210,-3.8441,-0.3424,-0.3186,820.56,-985.17,-1516.30
7220,-3.8442,-0.2762,-0.3226,179.93,-766.30,1608.70
7230,-3.8444,-0.2120,-0.3197,648.68,-1281.80,-1828.80
7240,-3.8444,-0.1577,-0.3046,867.43,-906.68,233.70
7250,-3.8444,-0.1101,-0.2786,-179.44,1030.88,1108.76
7260,-3.8442,-0.0470,-0.2512,1914.31,359.13,124.45
7270,-3.8442,0.0497,-0.2352,1992.43,-140.75,499.45
7280,-3.8445,0.1686,-0.2408,-1632.57,1890.69,-16.11
7290,-3.8446,0.2819,-0.2651,1586.18,1172.18,1452.64
7300,-3.8447,0.3612,-0.2977,86.18,-1936.95,405.70
7310,-3.8448,0.4069,-0.3323,-1757.57,1891.30,-1453.74
7320,-3.8447,0.4507,-0.3519,86.18,1469.54,311.83
7330,-3.8447,0.5093,-0.3506,1695.56,-1046.02,-578.86
7340,-3.8446,0.5703,-0.3455,1195.56,-874.02,655.52
7350,-3.8446,0.6226,-0.3436,1008.06,-217.65,1436.77
7360,-3.8445,0.6704,-0.3440,-304.44,16.78,311.83
7370,-3.8444,0.7147,-0.3492,1820.56,-29.97,514.89
7380,-3.8442,0.7576,-0.3607,-507.57,-701.78,1514.89
7390,-3.8441,0.8103,-0.3827,976.81,1829.59,-610.11
7400,-3.8439,0.8730,-0.4113,-273.19,-982.85,1702.33
7410,-3.8749,0.9441,-0.4459,-241.94,-638.98,327.27
7420,-3.8748,1.0247,-0.4963,851.81,-1076.29,624.08
7430,-3.8748,1.1010,-0.5524,-835.69,470.70,1842.77
7440,-3.8746,1.1650,-0.6001,929.93,1299.01,1280.15
7450,-3.8745,1.2235,-0.6493,1133.06,-810.24,-1141.85
7460,-3.8744,1.2738,-0.7179,617.43,893.01,-1891.91
7470,-3.8743,1.3099,-0.8040,-945.07,111.82,357.97
7480,-3.8741,1.3243,-0.8947,-320.07,1096.25,60.91
7490,-3.8740,1.3081,-0.9821,1523.68,1486.94,951.35
7500,-3.8739,1.2670,-1.0575,-554.44,-1700.62,-1580.08
7510,-3.8738,1.2148,-1.1237,-1820.07,643.07,-1033.33
7520,-3.8737,1.1556,-1.2002,-491.94,174.19,1357.18
7530,-3.8735,1.0870,-1.2898,-70.07,-1622.80,450.74
7540,-3.8734,1.0125,-1.3760,-851.32,-1091.67,-346.31
7550,-3.8730,0.9301,-1.4497,1601.81,-123.05,-190.25
7560,-3.8726,0.8344,-1.5029,-945.07,-1560.73,-565.37
7570,-3.8721,0.7220,-1.5281,-1195.07,-373.41,-1268.62
7580,-3.8716,0.5930,-1.5365,429.93,407.65,12.63
7590,-3.8713,0.4639,-1.5504,-85.69,-670.78,-143.68
7600,-3.8710,0.3508,-1.5670,-616.94,1547.73,1184.45
7610,-3.8708,0.2476,-1.5662,914.31,-577.45,-424.99
7620,-3.8707,0.1384,-1.5474,-304.44,-468.32,-893.74
7630,-3.8707,0.0190,-1.5282,1726.81,1937.74,1918.82
7640,-3.8710,-0.1080,-1.5155,-1554.44,390.62,-1081.12
7650,-3.8712,-0.2444,-1.4885,-1820.07,-1968.99,-1846.74
7660,-3.8713,-0.3749,-1.4238,726.81,1483.89,-1440.43
7670,-3.8712,-0.4672,-1.3365,23.68,1764.89,153.44
7680,-3.8712,-0.5144,-1.2484,211.18,936.58,1013.00
7690,-3.8713,-0.5297,-1.1646,-1835.69,217.71,1872.56
7700,-3.8716,-0.5262,-1.0895,211.18,-1047.91,-1846.07
7710,-3.8719,-0.5215,-1.0303,648.68,561.46,-330.26
7720,-3.8722,-0.5243,-0.9919,1258.06,139.59,1841.74
7730,-3.8724,-0.5310,-0.9683,898.68,1045.84,1560.55
7740,-3.8727,-0.5360,-0.9507,39.31,77.09,1091.86
7750,-3.8729,-0.5374,-0.9385,-601.32,-1672.97,654.36
7760,-3.8732,-0.5408,-0.9264,-773.19,-110.47,-1720.64
7770,-3.8733,-0.5571,-0.9004,-1210.69,1436.40,-533.08
7780,-3.8732,-0.5858,-0.8535,695.56,764.53,1029.48
7790,-3.8730,-0.6129,-0.7891,1023.68,-1235.53,1076.42
7800,-3.8730,-0.6250,-0.7158,1554.93,-985.60,-485.96
7810,-3.8730,-0.6111,-0.6510,8.06,389.40,1576.72
7820,-3.8733,-0.5717,-0.6136,1789.31,686.28,-1016.91
7830,-3.8735,-0.5265,-0.6123,-1163.82,1467.59,1498.78
7840,-3.8738,-0.4913,-0.6350,617.43,1639.59,1373.78
7850,-3.8739,-0.4701,-0.6609,1117.43,-1266.60,389.34
7860,-3.8740,-0.4651,-0.6730,-163.82,-579.10,904.91
7870,-3.8741,-0.4716,-0.6641,476.81,1874.08,1889.28
7880,-3.8743,-0.4805,-0.6360,-351.32,-985.35,-188.84
7890,-3.8743,-0.4886,-0.5900,-1491.94,-1391.60,-657.53
7900,-3.8741,-0.4949,-0.5270,1461.18,499.02,14.47
7910,-3.8741,-0.4862,-0.4562,664.31,561.52,827.09
7920,-3.8743,-0.4510,-0.4025,1773.68,1624.02,-954.04
7930,-3.8744,-0.3932,-0.3868,-1726.32,499.08,1358.58
7940,-3.8746,-0.3182,-0.3926,1679.93,-1500.79,-625.79
7950,-3.8748,-0.2346,-0.3923,-726.32,1764.95,-32.04
7960,-3.8748,-0.1536,-0.3845,1976.81,1796.39,92.96
7970,-3.8750,-0.0796,-0.3750,351.81,-1203.43,671.08
7980,-3.8440,-0.0110,-0.3591,1820.56,15.44,952.39
7990,-3.8441,0.0533,-0.3324,-1398.19,-1953.19,-1594.48
8000,-3.8441,0.1073,-0.3033,-1163.82,1453.19,-531.92
8010,-3.8441,0.1443,-0.2722,1742.43,1172.06,-1234.99
8020,-3.8441,0.1752,-0.2404,-1523.19,1156.49,968.20
8030,-3.8442,0.2144,-0.2332,-1570.07,1234.68,-1687.99
8040,-3.8444,0.2585,-0.2598,-554.44,-1843.38,1374.51
8050,-3.8445,0.3047,-0.2943,1101.81,-1249.51,-1734.92
8060,-3.8444,0.3575,-0.3167,-991.94,-1671.33,1108.76
8070,-3.8442,0.4064,-0.3328,1773.68,-530.58,1624.33
8080,-3.8442,0.4430,-0.3522,23.68,1407.04,1968.08
8090,-3.8444,0.4819,-0.3722,711.18,-1077.27,-672.61
8100,-3.8444,0.5348,-0.3912,1695.56,360.29,-1516.36
8110,-3.8442,0.6079,-0.4120,461.18,1922.91,-1922.67
8120,-3.8441,0.7062,-0.4434,1820.56,-733.22,-391.48
8130,-3.8440,0.8180,-0.4954,-1601.32,-748.66,-1532.17
8140,-3.8440,0.9192,-0.5581,711.18,595.34,1483.40
8150,-3.8441,0.9911,-0.6145,1664.31,564.27,-126.10
8160,-3.8440,1.0300,-0.6602,-1132.57,1345.64,1920.65
8170,-3.8750,1.0415,-0.6925,-148.19,-498.05,483.03
8180,-3.8749,1.0422,-0.7146,1320.56,-638.61,-17.03
8190,-3.8746,1.0552,-0.7408,1414.31,533.26,764.22
8200,-3.8746,1.0811,-0.7871,-929.44,1173.89,295.41
8210,-3.8749,1.0994,-0.8693,-1616.94,-747.92,-595.34
8220,-3.8749,1.1031,-0.9904,726.81,736.51,201.42
8230,-3.8749,1.1017,-1.1276,1211.18,1236.51,-1564.45
8240,-3.8748,1.0922,-1.2511,1023.68,-325.99,-111.63
8250,-3.8745,1.0702,-1.3478,-195.07,-138.55,-1518.13
8260,-3.8743,1.0408,-1.4125,992.43,-513.55,-846.44
8270,-3.8739,1.0067,-1.4517,1226.81,-794.86,-1440.31
8280,-3.8735,0.9628,-1.4868,867.43,-1810.55,-565.37
8290,-3.8730,0.9012,-1.5199,-757.57,1689.33,12.70
8300,-3.8727,0.8162,-1.5381,-632.57,1454.83,1528.26
8310,-3.8722,0.7091,-1.5399,476.81,-873.41,-1049.93
8320,-3.8716,0.5908,-1.5372,-1226.32,-1108.03,871.95
8330,-3.8712,0.4669,-1.5376,-366.94,-764.53,1200.07
8340,-3.8711,0.3356,-1.5328,-226.32,-811.65,-409.30
8350,-3.8710,0.2003,-1.5242,-1038.82,-202.51,-1909.30
8360,-3.8710,0.0729,-1.5197,1648.68,906.62,1215.76
8370,-3.8711,-0.0353,-1.5125,1336.18,1484.50,-674.87
8380,-3.8711,-0.1240,-1.4995,-507.57,-1578.25,1247.01
8390,-3.8713,-0.2036,-1.4760,133.06,77.88,-49.80
8400,-3.8715,-0.2792,-1.4265,1945.56,-906.68,731.45
8410,-3.8716,-0.3480,-1.3546,273.68,1421.33,153.44
8420,-3.8717,-0.4036,-1.2797,-538.82,-1375.73,1825.44
8430,-3.8718,-0.4445,-1.2120,351.81,217.96,1778.75
8440,-3.8721,-0.4863,-1.1467,-882.57,874.08,-1393.01
8450,-3.8722,-0.5461,-1.0737,1758.06,1233.40,1419.62
8460,-3.8722,-0.6174,-0.9962,-1898.19,-1422.97,1232.24
8470,-3.8722,-0.6737,-0.9285,976.81,498.78,1185.55
8480,-3.8723,-0.6885,-0.8772,1773.68,1170.53,1357.54
8490,-3.8726,-0.6586,-0.8405,-116.94,-267.03,-1939.27
8500,-3.8728,-0.6073,-0.8145,-288.82,436.16,-1907.90
8510,-3.8729,-0.5635,-0.7877,-1726.32,-235.60,170.23
8520,-3.8730,-0.5487,-0.7471,-116.94,-813.66,1201.54
8530,-3.8732,-0.5651,-0.6975,1773.68,389.53,-751.46
8540,-3.8733,-0.5970,-0.6550,-320.07,-1266.78,-1688.90
8550,-3.8735,-0.6243,-0.6310,-413.82,170.65,1498.72
8560,-3.8738,-0.6343,-0.6299,101.81,-751.22,545.59
8570,-3.8740,-0.6278,-0.6436,-1179.44,-610.66,1529.97
8580,-3.8743,-0.6146,-0.6530,-351.32,1639.34,-485.66
8590,-3.8744,-0.6008,-0.6442,1336.18,436.28,-766.91
8600,-3.8744,-0.5845,-0.6111,-898.19,1561.28,748.72
8610,-3.8745,-0.5652,-0.5615,1195.56,1795.72,1311.28
8620,-3.8748,-0.5448,-0.5115,-335.69,139.47,-579.22
8630,-3.8749,-0.5226,-0.4696,-1726.32,-1454.22,1045.84
8640,-3.8439,-0.4983,-0.4386,1117.43,-94.79,-79.10
8650,-3.8440,-0.4725,-0.4219,226.81,-125.98,-875.92
8660,-3.8441,-0.4447,-0.4203,-476.32,-1985.35,-1782.10
8670,-3.8442,-0.4110,-0.4240,-913.82,-1782.17,1608.52
8680,-3.8444,-0.3683,-0.4225,-601.32,1749.15,1405.40
8690,-3.8445,-0.3212,-0.4072,867.43,1936.77,-1578.98
8700,-3.8445,-0.2692,-0.3777,-1101.32,-110.05,-1750.85
8710,-3.8445,-0.2030,-0.3408,1554.93,-328.67,-188.29
8720,-3.8444,-0.1202,-0.3009,-1976.32,390.20,483.70
8730,-3.8445,-0.0248,-0.2667,617.43,1499.76,-500.61
8740,-3.8445,0.0737,-0.2478,836.18,1874.94,1280.70
8750,-3.8446,0.1599,-0.2457,1445.56,281.37,-1406.74
8760,-3.8446,0.2273,-0.2546,476.81,547.18,1030.76
8770,-3.8446,0.2827,-0.2675,1101.81,-593.32,-1406.80
8780,-3.8445,0.3387,-0.2810,195.56,1766.17,1733.83
8790,-3.8445,0.4050,-0.2925,-632.57,31.86,-1281.80
8800,-3.8445,0.4806,-0.3025,-148.19,-1436.77,780.64
8810,-3.8446,0.5505,-0.3171,1523.68,1282.17,1343.14
8820,-3.8447,0.5968,-0.3379,-1523.19,-592.71,-1500.67
8830,-3.8447,0.6224,-0.3654,398.68,751.16,-531.92
8840,-3.8446,0.6497,-0.4113,-320.07,1235.53,-500.73
8850,-3.8445,0.6934,-0.4823,-835.69,-639.40,-1094.60
8860,-3.8444,0.7565,-0.5601,758.06,-1733.03,-1438.48
8870,-3.8441,0.8254,-0.6201,836.18,313.96,764.53
8880,-3.8439,0.8768,-0.6477,1664.31,626.59,1139.40
8890,-3.8749,0.9102,-0.6426,242.43,1095.46,-1391.91
8900,-3.8746,0.9431,-0.6387,508.06,1751.77,-1001.28
8910,-3.8745,0.9862,-0.6750,726.81,-1748.17,-1095.03
8920,-3.8745,1.0381,-0.7568,-1757.57,1595.64,-1516.97
8930,-3.8745,1.0883,-0.8707,883.06,-872.99,-1282.78
8940,-3.8744,1.1166,-0.9956,-695.07,548.95,-892.33
8950,-3.8741,1.1191,-1.1021,-1070.07,564.64,-408.20
8960,-3.8738,1.1064,-1.1772,-741.94,-1060.36,-1877.20
8970,-3.8734,1.0786,-1.2291,1633.06,1314.64,122.68
8980,-3.8732,1.0394,-1.2739,-1929.44,-1326.05,419.43
8990,-3.8730,0.9934,-1.3300,1054.93,939.51,-330.63
9000,-3.8727,0.9366,-1.3938,-835.69,1767.52,388.00
9010,-3.8723,0.8695,-1.4520,-101.32,1595.52,450.38
9020,-3.8719,0.7899,-1.5046,-695.07,-1857.73,1840.88
9030,-3.8716,0.6902,-1.5438,1117.43,-592.22,1622.01
9040,-3.8713,0.5718,-1.5576,351.81,-1608.03,-1081.18
9050,-3.8711,0.4429,-1.5543,1195.56,626.10,543.82
9060,-3.8711,0.3090,-1.5549,695.56,1047.73,1903.20
9070,-3.8712,0.1730,-1.5636,-445.07,969.30,-128.05
9080,-3.8712,0.0343,-1.5696,-1851.32,-140.32,387.51
9090,-3.8713,-0.1083,-1.5624,398.68,-906.19,1325.01
9100,-3.8715,-0.2523,-1.5334,-1851.32,31.01,-221.80
9110,-3.8713,-0.3762,-1.4849,-288.82,-266.17,512.57
9120,-3.8713,-0.4517,-1.4314,-148.19,1952.33,372.07
9130,-3.8716,-0.4775,-1.3838,-1804.44,795.96,-1518.43
9140,-3.8719,-0.4728,-1.3400,-1116.94,-1110.35,-96.50
9150,-3.8722,-0.4558,-1.2867,-507.57,499.02,-1408.87
9160,-3.8723,-0.4463,-1.2037,1664.31,-688.42,-33.81
9170,-3.8722,-0.4557,-1.0923,-1116.94,1936.58,-33.63
9180,-3.8719,-0.4751,-0.9801,1679.93,202.21,247.86
9190,-3.8719,-0.5031,-0.8835,-804.44,-1438.48,669.92
9200,-3.8721,-0.5526,-0.8131,-382.57,-1079.16,-392.40
9210,-3.8721,-0.6171,-0.7758,1273.68,-63.60,1888.98
9220,-3.8722,-0.6705,-0.7660,1023.68,717.53,545.35
9230,-3.8726,-0.6935,-0.7744,-1820.07,1967.41,-1048.40
9240,-3.8728,-0.6875,-0.7896,-757.57,889.22,342.22
9250,-3.8732,-0.6647,-0.7985,8.06,-1048.22,-595.34
9260,-3.8733,-0.6378,-0.7849,-1070.07,1811.16,139.04
9270,-3.8735,-0.6167,-0.7422,-1632.57,-454.41,1795.29
9280,-3.8738,-0.6073,-0.6843,1070.56,1014.40,-1157.71
9290,-3.8740,-0.6078,-0.6337,-1726.32,420.65,-1376.34
9300,-3.8743,-0.6129,-0.6063,-1788.82,-1094.97,-1220.03
9310,-3.8744,-0.6211,-0.6018,1554.93,-1594.97,951.90
9320,-3.8745,-0.6328,-0.6011,508.06,-1016.85,1248.78
9330,-3.8745,-0.6444,-0.5847,-991.94,-923.16,14.40
9340,-3.8745,-0.6476,-0.5504,1523.68,1170.59,280.09
9350,-3.8746,-0.6398,-0.5109,1117.43,1561.22,-1266.72
9360,-3.8748,-0.6265,-0.4801,-1882.57,-1376.28,-1547.91
9370,-3.8749,-0.6064,-0.4631,-179.44,-1438.78,1702.15
9380,-3.8750,-0.5697,-0.4557,-1616.94,733.15,1999.08
9390,-3.8439,-0.5142,-0.4495,-913.82,1686.34,-579.04
9400,-3.8439,-0.4458,-0.4395,-1804.44,-1516.66,-1969.67
9410,-3.8439,-0.3708,-0.4226,-1054.44,-235.29,1139.71
9420,-3.8439,-0.2987,-0.3953,539.31,1921.14,842.90
9430,-3.8439,-0.2362,-0.3541,1773.68,1421.26,-1141.42
9440,-3.8750,-0.1805,-0.3029,1773.68,-1312.99,-1172.61
9450,-3.8749,-0.1215,-0.2555,898.68,1249.63,1983.76
9460,-3.8749,-0.0479,-0.2284,461.18,-687.74,1655.70
9470,-3.8750,0.0397,-0.2283,1883.06,-1218.87,1999.51
9480,-3.8439,0.1302,-0.2467,1086.18,-1218.69,-1562.99
9490,-3.8439,0.2162,-0.2712,679.93,422.12,1421.39
9500,-3.8439,0.2893,-0.2932,-320.07,1281.62,-1656.80
9510,-3.8439,0.3427,-0.3037,1039.31,-1530.70,-16.24
9520,-3.8750,0.3812,-0.3015,-132.57,1125.61,1843.14
9530,-3.8750,0.4196,-0.3033,804.93,1406.98,1999.39
9540,-3.8439,0.4683,-0.3264,1711.18,1172.67,-1203.74
9550,-3.8440,0.5271,-0.3704,-54.44,-1780.40,-1594.42
9560,-3.8440,0.5808,-0.4215,-523.19,594.73,1061.77
9570,-3.8439,0.6135,-0.4651,-1648.19,-1952.03,1249.15
9580,-3.8749,0.6302,-0.4955,-1460.69,469.91,108.46
9590,-3.8748,0.6483,-0.5236,679.93,579.35,514.65
9600,-3.8748,0.6855,-0.5641,-1007.57,985.60,1311.46
9610,-3.8748,0.7448,-0.6216,-241.94,-201.84,45.72
9620,-3.8749,0.8088,-0.6896,-663.82,438.90,-1298.10
9630,-3.8749,0.8580,-0.7609,-460.69,-264.10,-142.03
9640,-3.8746,0.8811,-0.8230,1836.18,-1388.98,467.22
9650,-3.8745,0.8802,-0.8644,789.31,-1342.04,-1423.52
9660,-3.8743,0.8734,-0.9047,679.93,1361.08,138.92
9670,-3.8741,0.8761,-0.9614,-195.07,204.77,873.23
9680,-3.8740,0.8936,-1.0321,148.68,939.21,1154.36
9690,-3.8739,0.9197,-1.1300,-1616.94,-107.67,482.30
9700,-3.8739,0.9385,-1.2454,1726.81,-638.85,-1392.88
9710,-3.8738,0.9421,-1.3519,133.06,595.58,669.43
9720,-3.8738,0.9302,-1.4602,601.81,-1045.04,-362.06
9730,-3.8735,0.8960,-1.5597,-929.44,1095.52,122.13
9740,-3.8734,0.8336,-1.6219,-1304.44,361.08,-1518.68
9750,-3.8732,0.7417,-1.6500,-1288.82,392.21,-1003.17
9760,-3.8727,0.6239,-1.6533,-1054.44,798.28,403.02
9770,-3.8722,0.4940,-1.6451,-132.57,376.16,-1940.73
9780,-3.8717,0.3651,-1.6415,-757.57,1422.79,1215.52
9790,-3.8715,0.2512,-1.6490,-1257.57,1891.30,-1409.48
9800,-3.8713,0.1627,-1.6744,164.31,922.36,-1331.36
9810,-3.8713,0.0907,-1.7073,836.18,1672.18,-1378.30
9820,-3.8713,0.0206,-1.7145,-382.57,1468.87,-268.98
9830,-3.8712,-0.0503,-1.6824,-1351.32,546.88,-1050.23
9840,-3.8712,-0.1210,-1.6177,1570.56,671.75,-1972.05
9850,-3.8713,-0.1855,-1.5243,523.68,952.88,731.20
9860,-3.8716,-0.2355,-1.4246,258.06,905.88,-690.49
9870,-3.8717,-0.2769,-1.3510,1867.43,1671.39,75.32
9880,-3.8721,-0.3224,-1.3123,570.56,-906.80,1153.56
9890,-3.8724,-0.3674,-1.2975,-1257.57,46.20,1934.94
9900,-3.8727,-0.4023,-1.2815,976.81,1936.77,1059.94
9910,-3.8729,-0.4310,-1.2346,508.06,-16.42,-174.44
9920,-3.8729,-0.4629,-1.1460,836.18,1983.52,-1314.94
9930,-3.8729,-0.5088,-1.0249,758.06,1327.21,-986.63
9940,-3.8729,-0.5631,-0.9001,-1116.94,827.09,-392.64
9950,-3.8729,-0.6023,-0.8053,-70.07,795.72,-220.52
9960,-3.8729,-0.6158,-0.7454,-1085.69,936.28,1357.79
9970,-3.8730,-0.6093,-0.7123,1179.93,608.15,670.41
9980,-3.8733,-0.5872,-0.7106,-1976.32,842.53,-1032.65
9990,-3.8735,-0.5516,-0.7332,851.81,1061.34,-235.78
10000,-3.8738,-0.5098,-0.7521,1398.68,-1829.22,-313.96
10010,-3.8739,-0.4749,-0.7466,-1241.94,-251.04,576.60
10020,-3.8740,-0.4529,-0.7152,-773.19,452.15,170.41
10030,-3.8741,-0.4431,-0.6667,-1960.69,467.83,-1735.78
10040,-3.8741,-0.4519,-0.6089,-710.69,-1329.04,295.53
10050,-3.8743,-0.4805,-0.5476,-1835.69,-1922.79,1842.53
10060,-3.8743,-0.5128,-0.4966,-1491.94,1920.90,467.65
10070,-3.8744,-0.5322,-0.4650,-1632.57,452.09,-454.10
10080,-3.8744,-0.5319,-0.4530,-116.94,498.90,1467.83
10090,-3.8745,-0.5121,-0.4613,-70.07,-1969.85,-1891.54
10100,-3.8746,-0.4769,-0.4811,-1538.82,967.71,-1360.29
10110,-3.8748,-0.4312,-0.4948,-1038.82,-1563.48,-454.10
10120,-3.8748,-0.3770,-0.4929,820.56,686.65,170.90
10130,-3.8749,-0.3157,-0.4775,-241.94,921.08,1655.27
10140,-3.8749,-0.2520,-0.4519,-398.19,-1110.05,1358.40
10150,-3.8749,-0.1942,-0.4142,-241.94,-1828.67,-1813.42
10160,-3.8748,-0.1478,-0.3616,-851.32,-1000.43,389.77
10170,-3.8746,-0.1056,-0.3074,1086.18,1734.07,1186.77
10180,-3.8745,-0.0552,-0.2708,-1507.57,671.63,1890.01
10190,-3.8745,0.0106,-0.2510,945.56,1359.25,-438.05
10200,-3.8745,0.0896,-0.2441,1367.43,-125.00,-1844.30
10210,-3.8746,0.1786,-0.2582,-523.19,750.12,1390.14
10220,-3.8749,0.2722,-0.2966,-1132.57,-1046.57,1468.20
10230,-3.8439,0.3564,-0.3506,-1148.19,-1968.26,1890.01
10240,-3.8440,0.4183,-0.3972,1633.06,-874.33,-1641.36
10250,-3.8440,0.4595,-0.4194,1554.93,1157.04,-188.29
10260,-3.8750,0.4972,-0.4211,-1179.44,-1686.65,842.90
10270,-3.8749,0.5527,-0.4235,-351.32,-1905.33,1483.52
10280,-3.8749,0.6313,-0.4529,-1241.94,1797.91,1592.90
10290,-3.8750,0.7152,-0.5071,820.56,-1967.53,1827.21
10300,-3.8439,0.7836,-0.5679,-445.07,-904.91,-876.04
10310,-3.8750,0.8284,-0.6283,304.93,-685.97,217.59
10320,-3.8750,0.8458,-0.6796,-1960.69,-420.29,-704.41
10330,-3.8749,0.8428,-0.7061,273.68,1017.27,-876.34
10340,-3.8748,0.8386,-0.7114,-116.94,1626.59,-126.40
10350,-3.8745,0.8402,-0.7148,-648.19,939.09,1686.10
10360,-3.8743,0.8446,-0.7310,-445.07,501.59,186.10
10370,-3.8743,0.8527,-0.7791,117.43,-1560.85,-63.96
10380,-3.8743,0.8669,-0.8663,1148.68,282.90,-970.28
10390,-3.8743,0.8853,-0.9718,-1023.19,1111.02,951.42
10400,-3.8743,0.9023,-1.0717,1320.56,-388.92,623.05
10410,-3.8743,0.9126,-1.1547,-491.94,-1170.17,-1470.89
10420,-3.8741,0.9183,-1.2361,820.56,204.90,-1033.51
10430,-3.8739,0.9172,-1.3348,1554.93,1783.02,497.56
10440,-3.8738,0.8955,-1.4303,1414.31,1142.40,1809.88
10450,-3.8735,0.8387,-1.4963,-1366.94,923.58,465.94
10460,-3.8733,0.7395,-1.5450,-632.57,470.34,-1018.55
10470,-3.8728,0.6106,-1.5974,-1335.69,-1764.22,918.82
10480,-3.8724,0.4749,-1.6476,-1835.69,-467.59,-550.05
10490,-3.8719,0.3434,-1.6803,789.31,1110.29,856.14
10500,-3.8716,0.2190,-1.6978,-38.82,922.49,949.83
10510,-3.8713,0.1053,-1.7118,39.31,-1312.07,1996.64
10520,-3.8712,0.0046,-1.7185,1492.43,890.81,1621.64
10530,-3.8712,-0.0919,-1.7065,601.81,31.25,512.27
10540,-3.8713,-0.1938,-1.6781,242.43,1577.94,1074.77
10550,-3.8715,-0.2920,-1.6394,-804.44,1218.32,824.83
10560,-3.8717,-0.3679,-1.5897,-1366.94,-1828.74,-878.23
10570,-3.8719,-0.4171,-1.5343,914.31,530.52,-846.86
10580,-3.8722,-0.4561,-1.4752,-1382.57,-375.85,1731.32
10590,-3.8724,-0.4982,-1.4015,1633.06,-813.42,168.95
10600,-3.8727,-0.5406,-1.3083,242.43,624.02,466.00
10610,-3.8728,-0.5757,-1.2068,-1195.07,545.78,200.56
10620,-3.8729,-0.5913,-1.1113,-1679.44,1545.72,-1955.51
10630,-3.8730,-0.5835,-1.0317,320.56,1764.47,-517.82
10640,-3.8730,-0.5618,-0.9702,1320.56,-48.03,138.55
10650,-3.8733,-0.5381,-0.9276,101.81,-172.97,-439.45
10660,-3.8734,-0.5210,-0.9001,-866.94,1280.15,841.92
10670,-3.8737,-0.5111,-0.8771,1320.56,795.84,1935.73
10680,-3.8738,-0.5033,-0.8535,-1413.82,-251.04,888.85
10690,-3.8739,-0.4976,-0.8275,-413.82,-1235.41,810.79
10700,-3.8740,-0.4963,-0.7947,320.56,-1907.23,420.23
10710,-3.8741,-0.4989,-0.7532,476.81,-1704.10,654.66
10720,-3.8743,-0.5055,-0.7098,148.68,-391.60,-1954.65
10730,-3.8744,-0.5140,-0.6699,-695.07,1155.21,-392.03
10740,-3.8744,-0.5189,-0.6311,-1788.82,-1735.41,1295.53
10750,-3.8745,-0.5159,-0.5959,1586.18,-766.66,-688.78
10760,-3.8745,-0.5037,-0.5668,1976.81,-266.66,811.28
10770,-3.8746,-0.4868,-0.5421,-460.69,-532.29,1670.72
10780,-3.8748,-0.4730,-0.5243,1695.56,-1375.98,-1016.72
10790,-3.8749,-0.4666,-0.5139,-538.82,905.27,-32.29
10800,-3.8750,-0.4647,-0.5068,289.31,-1766.54,-16.66
10810,-3.8750,-0.4604,-0.4990,523.68,-860.29,608.34
10820,-3.8439,-0.4473,-0.4889,1070.56,139.71,-641.60
10830,-3.8750,-0.4247,-0.4742,-1241.94,1436.58,342.77
10840,-3.8750,-0.3929,-0.4526,1648.68,-688.35,-1594.73
10850,-3.8750,-0.3492,-0.4247,1711.18,-1922.67,-266.54
10860,-3.8750,-0.2928,-0.3961,-695.07,1655.52,-94.60
10870,-3.8749,-0.2288,-0.3702,-1476.32,1311.89,811.71
10880,-3.8749,-0.1632,-0.3445,-1273.19,624.51,-750.73
10890,-3.8748,-0.0924,-0.3186,-882.57,-78.49,1655.52
10900,-3.8748,-0.0111,-0.2975,179.93,-765.81,-1610.05
10910,-3.8748,0.0806,-0.2893,-1413.82,1937.44,1968.14
10920,-3.8748,0.1835,-0.2961,-1679.44,-1031.13,1061.89
10930,-3.8749,0.2861,-0.3110,-507.57,-1905.94,-1141.24
10940,-3.8750,0.3713,-0.3302,633.06,188.05,-234.99
10950,-3.8750,0.4384,-0.3505,-460.69,1735.05,874.33
10960,-3.8439,0.4963,-0.3668,117.43,-858.52,-1000.73
10970,-3.8439,0.5531,-0.3823,-460.69,1047.79,-422.61
10980,-3.8750,0.6090,-0.4012,-1195.07,-936.46,-1313.29
10990,-3.8749,0.6639,-0.4247,1961.18,641.78,1405.46
11000,-3.8749,0.7242,-0.4578,992.43,1641.91,467.90
11010,-3.8439,0.7848,-0.5111,711.18,1407.65,-500.92
11020,-3.8440,0.8246,-0.5850,461.18,-1420.35,1655.21
11030,-3.8441,0.8335,-0.6562,1554.93,1126.59,-48.03
11040,-3.8440,0.8188,-0.7045,-1304.44,1.59,-360.66
11050,-3.8750,0.7919,-0.7319,820.56,1829.71,826.72
11060,-3.8749,0.7664,-0.7505,1367.43,-1685.97,639.16
11070,-3.8749,0.7611,-0.7782,-1898.19,-61.04,-1673.40
11080,-3.8749,0.7816,-0.8384,1429.93,392.09,1685.97
11090,-3.8749,0.8152,-0.9182,54.93,689.03,1092.10
11100,-3.8748,0.8510,-0.9869,351.81,-1529.66,185.67
11110,-3.8746,0.8799,-1.0455,929.93,1673.52,-486.33
11120,-3.8744,0.8907,-1.1017,633.06,-1826.42,-861.45
11130,-3.8743,0.8867,-1.1661,-1976.32,-1013.92,-1127.20
11140,-3.8743,0.8740,-1.2571,1508.06,-1263.92,-908.57
11150,-3.8743,0.8464,-1.3668,-116.94,-904.60,-111.88
11160,-3.8740,0.8008,-1.4819,351.81,1048.52,325.44
11170,-3.8739,0.7385,-1.5897,-1491.94,-1685.97,-206.05
11180,-3.8735,0.6630,-1.6544,-1460.69,517.03,1653.14
11190,-3.8732,0.5803,-1.6725,867.43,235.66,-1550.11
11200,-3.8727,0.4905,-1.6810,-1710.69,1922.97,121.70
11210,-3.8723,0.3933,-1.6981,-1210.69,829.04,27.95
11220,-3.8721,0.2930,-1.7158,-1648.19,-1358.64,-1097.11
11230,-3.8717,0.1974,-1.7255,1508.06,375.55,1934.14
11240,-3.8715,0.1189,-1.7174,1273.68,-859.01,-894.04
11250,-3.8712,0.0583,-1.6840,-773.19,172.06,1496.64
11260,-3.8711,0.0048,-1.6287,-523.19,453.19,1043.58
11270,-3.8712,-0.0488,-1.5670,617.43,-468.75,-643.86
11280,-3.8713,-0.1027,-1.5170,1758.06,-562.62,121.89
11290,-3.8717,-0.1562,-1.4821,-1132.57,1843.51,-1393.62
11300,-3.8719,-0.2069,-1.4534,8.06,-1687.81,1887.70
11310,-3.8722,-0.2490,-1.4227,1523.68,1983.95,1934.63
11320,-3.8724,-0.2849,-1.3718,133.06,1905.76,-1596.56
11330,-3.8726,-0.3292,-1.2860,-460.69,421.26,-1752.69
11340,-3.8726,-0.3907,-1.1804,1867.43,-594.42,966.19
11350,-3.8727,-0.4688,-1.0784,1992.43,921.08,1794.56
11360,-3.8728,-0.5549,-0.9949,8.06,1983.46,1060.36
11370,-3.8729,-0.6240,-0.9386,976.81,670.78,1482.42
11380,-3.8730,-0.6534,-0.9022,133.06,-126.22,-1220.64
11390,-3.8730,-0.6432,-0.8676,367.43,529.97,1216.98
11400,-3.8730,-0.6124,-0.8231,1679.93,967.47,451.42
11410,-3.8732,-0.5808,-0.7747,1617.43,-1344.97,279.60
11420,-3.8735,-0.5541,-0.7412,1664.31,858.22,-876.53
11430,-3.8738,-0.5289,-0.7310,1086.18,1139.53,389.16
11440,-3.8741,-0.5017,-0.7334,304.93,-1547.91,-392.09
11450,-3.8743,-0.4714,-0.7314,-210.69,-1860.41,889.16
11460,-3.8744,-0.4435,-0.7058,-335.69,-1610.35,326.66
11470,-3.8745,-0.4307,-0.6570,-757.57,1670.96,-1626.40
11480,-3.8745,-0.4445,-0.5997,883.06,-78.98,998.66
11490,-3.8745,-0.4841,-0.5408,-882.57,-750.92,405.03
11500,-3.8745,-0.5267,-0.4843,-1960.69,-1204.10,-1844.85
11510,-3.8745,-0.5449,-0.4390,586.18,-1969.79,-172.85
11520,-3.8745,-0.5236,-0.4207,-1741.94,-172.97,-1829.04
11530,-3.8746,-0.4622,-0.4371,992.43,-1829.16,686.65
11540,-3.8749,-0.3752,-0.4688,851.81,61.58,1905.40
11550,-3.8439,-0.2844,-0.4891,-23.19,14.83,-47.79
11560,-3.8440,-0.2097,-0.4869,-398.19,1405.64,-797.85
11570,-3.8440,-0.1610,-0.4631,1164.31,1687.07,45.90
11580,-3.8441,-0.1309,-0.4264,-601.32,734.01,-1079.04
11590,-3.8440,-0.1019,-0.3799,-741.94,1437.19,342.90
11600,-3.8439,-0.0602,-0.3284,-1038.82,-609.62,780.46
11610,-3.8750,-0.0011,-0.2834,304.93,1984.25,-1438.17
11620,-3.8749,0.0704,-0.2524,-132.57,-265.69,1858.76
11630,-3.8749,0.1473,-0.2352,1023.68,-312.38,1202.58
11640,-3.8750,0.2273,-0.2389,-1132.57,1890.87,1358.89
11650,-3.8440,0.3091,-0.2660,1101.81,1422.30,-62.99
11660,-3.8440,0.3865,-0.3016,-429.44,1953.67,765.08
11670,-3.8440,0.4526,-0.3264,1476.81,1391.36,-1859.99
11680,-3.8439,0.5081,-0.3384,1945.56,-1780.40,1499.33
11690,-3.8750,0.5576,-0.3481,1039.31,688.48,264.95
11700,-3.8750,0.6080,-0.3595,-616.94,-561.46,-1344.48
11710,-3.8749,0.6615,-0.3730,1836.18,1985.53,1077.39
11720,-3.8749,0.7124,-0.3955,679.93,251.28,-1000.73
11730,-3.8748,0.7577,-0.4286,-804.44,1376.34,530.46
11740,-3.8748,0.7965,-0.4702,992.43,1142.09,-1500.85
11750,-3.8746,0.8256,-0.5193,1961.18,-185.97,936.52
11760,-3.8746,0.8457,-0.5646,1679.93,1532.84,-282.29
11770,-3.8745,0.8634,-0.6038,258.06,-263.98,1623.84
11780,-3.8745,0.8799,-0.6489,-1476.32,-1279.60,264.40
11790,-3.8746,0.8870,-0.7008,633.06,939.21,248.72
11800,-3.8748,0.8792,-0.7615,1539.31,-1701.42,1451.72
11810,-3.8748,0.8628,-0.8362,539.31,-1467.04,1795.35
11820,-3.8748,0.8452,-0.9114,-1554.44,970.40,-298.52
11830,-3.8746,0.8301,-0.9780,195.56,-654.60,1857.54
11840,-3.8745,0.8241,-1.0387,-1741.94,-1185.91,716.80
11850,-3.8744,0.8257,-1.0953,1492.43,-951.54,919.80
11860,-3.8743,0.8240,-1.1646,1695.56,-201.54,-1939.70
11870,-3.8741,0.8103,-1.2589,1476.81,-1060.91,-596.07
11880,-3.8739,0.7836,-1.3608,-273.19,-1139.10,-1580.63
11890,-3.8735,0.7437,-1.4510,304.93,1814.03,466.06
11900,-3.8733,0.6896,-1.5248,-804.44,-1732.97,-190.37
11910,-3.8729,0.6230,-1.5742,273.68,829.47,-877.99
11920,-3.8724,0.5482,-1.5968,-241.94,-1498.84,121.89
11930,-3.8721,0.4723,-1.6090,-1820.07,-389.59,-956.30
11940,-3.8716,0.4021,-1.6235,461.18,-1952.21,1293.70
11950,-3.8712,0.3400,-1.6410,-523.19,188.23,1278.08
11960,-3.8710,0.2832,-1.6538,-476.32,1953.74,1778.02
11970,-3.8708,0.2268,-1.6544,258.06,313.05,621.77
11980,-3.8710,0.1724,-1.6482,1039.31,234.80,856.14
11990,-3.8712,0.1278,-1.6404,-1929.44,1031.56,1309.27
12000,-3.8715,0.0905,-1.6217,367.43,-1968.51,-784.48
12010,-3.8715,0.0493,-1.5798,-413.82,422.00,1996.83
12020,-3.8715,0.0022,-1.5081,-1679.44,1781.31,-518.74
12030,-3.8715,-0.0492,-1.4163,289.31,-1031.25,-1284.24
12040,-3.8716,-0.1025,-1.3217,1711.18,-1265.75,-752.81
12050,-3.8716,-0.1504,-1.2333,-1116.94,-1156.49,153.63
12060,-3.8717,-0.1970,-1.1552,758.06,-1844.06,-1455.57
12070,-3.8717,-0.2522,-1.0856,-1210.69,155.82,1919.62
12080,-3.8717,-0.3068,-1.0282,-273.19,1061.95,263.49
12090,-3.8719,-0.3479,-0.9844,742.43,405.64,-1392.64
12100,-3.8722,-0.3719,-0.9463,-523.19,-1985.11,1982.42
12110,-3.8724,-0.3833,-0.9131,398.68,-1110.11,1919.98
12120,-3.8727,-0.3934,-0.8846,-1054.44,-860.17,-1783.08
12130,-3.8729,-0.4111,-0.8568,1648.68,-1219.54,1482.60
12140,-3.8732,-0.4348,-0.8252,-616.94,-1657.10,1623.29
12150,-3.8733,-0.4600,-0.7887,351.81,-1610.23,607.73
12160,-3.8734,-0.4839,-0.7500,1133.06,-938.42,748.41
12170,-3.8737,-0.5033,-0.7133,-1929.44,14.65,-782.71
12180,-3.8739,-0.5116,-0.6816,-413.82,717.71,-438.90
12190,-3.8741,-0.5072,-0.6565,-1476.32,764.59,-329.47
12200,-3.8743,-0.4991,-0.6337,-913.82,-16.66,1295.53
12210,-3.8744,-0.4961,-0.6077,117.43,-1094.73,779.97
12220,-3.8745,-0.5012,-0.5822,508.06,-1766.60,1342.53
12230,-3.8746,-0.5121,-0.5623,-148.19,1498.96,1858.22
12240,-3.8748,-0.5175,-0.5504,-1538.82,45.84,1280.15
12250,-3.8749,-0.5066,-0.5505,1773.68,1561.46,45.78
12260,-3.8439,-0.4789,-0.5597,-835.69,1545.84,-563.60
12270,-3.8440,-0.4390,-0.5734,-1288.82,374.02,-688.60
12280,-3.8441,-0.3950,-0.5818,-179.44,-1375.92,-688.66
12290,-3.8441,-0.3580,-0.5732,1445.56,1546.08,889.47
12300,-3.8441,-0.3344,-0.5469,-1820.07,-1360.11,748.84
12310,-3.8441,-0.3290,-0.5083,1211.18,-1985.05,1092.65
12320,-3.8441,-0.3419,-0.4663,1898.68,-1047.55,1608.34
12330,-3.8441,-0.3564,-0.4325,242.43,327.45,-469.67
12340,-3.8440,-0.3529,-0.4158,-1616.94,655.52,1483.52
12350,-3.8440,-0.3174,-0.4176,-1163.82,-1203.86,1421.02
12360,-3.8441,-0.2502,-0.4299,-616.94,-1438.17,-1125.85
12370,-3.8442,-0.1702,-0.4432,-23.19,983.83,-625.85
12380,-3.8444,-0.0911,-0.4525,-1773.19,-719.12,-297.79
12390,-3.8445,-0.0156,-0.4546,351.81,-1906.43,-657.17
12400,-3.8445,0.0544,-0.4479,-1991.94,1828.06,389.71
12410,-3.8445,0.1230,-0.4325,-1023.19,-1328.06,1155.33
12420,-3.8444,0.1897,-0.4031,-241.94,640.81,1467.90
12430,-3.8441,0.2488,-0.3536,289.31,406.62,-1000.79
12440,-3.8749,0.3125,-0.3062,-148.19,-1265.20,1171.14
12450,-3.8745,0.4015,-0.2892,8.06,813.11,296.26
12460,-3.8745,0.5243,-0.2950,-601.32,-1014.89,-1266.24
12470,-3.8746,0.6735,-0.3147,-882.57,-1764.65,1421.26
12480,-3.8749,0.8212,-0.3563,-1788.82,-279.97,999.33
12490,-3.8439,0.9309,-0.4106,1117.43,-1607.79,-78.86
12500,-3.8750,0.9943,-0.4501,-835.69,-560.73,-1703.98
12510,-3.8748,1.0394,-0.4581,-726.32,-1607.48,1561.58
12520,-3.8745,1.0830,-0.4421,1054.93,1361.39,77.21
12530,-3.8745,1.1201,-0.4216,-1366.94,-591.67,-829.04
12540,-3.8745,1.1448,-0.4087,-616.94,-1966.61,-610.23
12550,-3.8745,1.1627,-0.4099,-1460.69,-310.30,-500.85
12560,-3.8744,1.1873,-0.4341,836.18,-466.49,796.02
12570,-3.8744,1.2229,-0.4867,-23.19,439.76,1030.40
12580,-3.8745,1.2653,-0.5697,539.31,1705.51,-1000.98
12590,-3.8745,1.3015,-0.6755,1961.18,-919.43,670.72
12600,-3.8745,1.3102,-0.7853,-1398.19,1533.75,233.03
12610,-3.8745,1.2834,-0.8834,-288.82,-513.12,-1157.84
12620,-3.8743,1.2333,-0.9686,289.31,-1075.62,1607.60
12630,-3.8739,1.1774,-1.0482,1867.43,18.01,1060.61
12640,-3.8735,1.1235,-1.1322,-1288.82,1830.38,1529.17
12650,-3.8733,1.0593,-1.2307,-179.44,-919.74,-1424.13
12660,-3.8730,0.9684,-1.3412,-398.19,-1529.24,1778.81
12670,-3.8728,0.8417,-1.4683,-38.82,329.96,-1018.25
12680,-3.8724,0.6805,-1.6158,-257.57,64.09,-409.12
12690,-3.8719,0.5060,-1.7485,-882.57,1173.16,-643.80
12700,-3.8713,0.3378,-1.8174,773.68,188.48,480.96
12710,-3.8708,0.1846,-1.8059,-757.57,-624.39,1277.65
12720,-3.8704,0.0635,-1.7394,-366.94,844.06,199.58
12730,-3.8701,-0.0095,-1.6615,133.06,1359.50,1105.96
12740,-3.8700,-0.0283,-1.5950,-1210.69,-656.31,199.83
12750,-3.8700,-0.0034,-1.5392,383.06,-140.69,1590.58
12760,-3.8701,0.0378,-1.4877,-429.44,-1000.06,-18.68
12770,-3.8702,0.0743,-1.4268,851.81,1578.19,-1940.43
12780,-3.8705,0.0916,-1.3463,1523.68,1375.12,-549.68
12790,-3.8706,0.0726,-1.2517,-273.19,-328.00,1216.06
12800,-3.8708,0.0135,-1.1577,1304.93,-218.63,1700.62
12810,-3.8711,-0.0662,-1.0713,1742.43,-187.50,1278.93
12820,-3.8713,-0.1489,-0.9928,-460.69,-1109.56,1810.36
12830,-3.8715,-0.2285,-0.9227,945.56,937.19,638.67
12840,-3.8717,-0.2957,-0.8635,-1241.94,1905.76,-767.46
12850,-3.8719,-0.3425,-0.8187,-1835.69,1483.76,-1032.96
12860,-3.8722,-0.3716,-0.7883,164.31,-781.92,1467.10
12870,-3.8724,-0.3929,-0.7690,445.56,-891.36,139.04
12880,-3.8728,-0.4122,-0.7488,1711.18,1577.33,-423.40
12890,-3.8729,-0.4309,-0.7090,-757.57,171.02,904.79
12900,-3.8730,-0.4553,-0.6431,851.81,1264.77,186.10
12910,-3.8732,-0.4918,-0.5634,1726.81,1702.21,279.97
12920,-3.8734,-0.5464,-0.4872,1054.93,-94.73,-1844.91
12930,-3.8737,-0.6029,-0.4276,-1929.44,1655.15,952.15
12940,-3.8739,-0.6318,-0.3921,-1163.82,1280.03,46.02
12950,-3.8741,-0.6306,-0.3781,-866.94,1826.84,1546.08
12960,-3.8743,-0.6124,-0.3818,-710.69,-376.28,467.96
12970,-3.8745,-0.5842,-0.3960,1617.43,-860.60,-657.04
12980,-3.8746,-0.5569,-0.4052,1226.81,1326.97,-1500.79
12990,-3.8748,-0.5406,-0.3971,726.81,155.15,-1516.42
13000,-3.8749,-0.5305,-0.3760,-1195.07,1186.40,1374.21
13010,-3.8439,-0.5160,-0.3647,101.81,-110.41,-1969.54
13020,-3.8441,-0.4880,-0.3802,1961.18,1327.09,-1266.36
13030,-3.8442,-0.4399,-0.4081,1539.31,-657.23,1905.46
13040,-3.8442,-0.3751,-0.4242,-304.44,-219.67,1202.27
13050,-3.8441,-0.3060,-0.4150,-7.57,1717.96,1764.77
13060,-3.8439,-0.2454,-0.3772,836.18,-1109.99,671.02
13070,-3.8750,-0.1974,-0.3195,601.81,-266.11,1327.33
13080,-3.8749,-0.1500,-0.2598,-1257.57,-875.43,77.45
13090,-3.8749,-0.0850,-0.2174,804.93,-1234.68,-1625.55
13100,-3.8749,0.0028,-0.2062,1133.06,187.32,-547.30
13110,-3.8749,0.1107,-0.2295,367.43,1609.38,-844.18
13120,-3.8749,0.2277,-0.2822,-1820.07,-1374.82,1733.89
13130,-3.8749,0.3295,-0.3473,1148.68,-124.57,468.14
13140,-3.8749,0.4070,-0.4023,-1820.07,-452.51,1374.27
13150,-3.8749,0.4696,-0.4418,101.81,500.79,-47.67
13160,-3.8746,0.5215,-0.4615,117.43,-545.96,124.08
13170,-3.8745,0.5713,-0.4579,-1241.94,922.85,1483.46
13180,-3.8744,0.6309,-0.4432,1133.06,1391.72,624.08
13190,-3.8744,0.7035,-0.4371,758.06,-733.15,514.71
13200,-3.8745,0.7863,-0.4480,-1945.07,48.22,-500.85
13210,-3.8745,0.8695,-0.4772,648.68,-1342.22,-532.17
13220,-3.8744,0.9457,-0.5238,-695.07,-1076.48,264.65
13230,-3.8744,1.0187,-0.5881,1054.93,954.96,967.71
13240,-3.8744,1.0964,-0.6658,-1601.32,720.70,1608.22
13250,-3.8744,1.1681,-0.7538,351.81,-1216.61,-1782.59
13260,-3.8744,1.2136,-0.8419,1523.68,-482.12,-704.65
13270,-3.8743,1.2312,-0.9067,-648.19,236.69,1170.23
13280,-3.8743,1.2314,-0.9490,1601.81,-60.12,-876.83
13290,-3.8741,1.2269,-0.9845,1633.06,-1466.37,373.11
13300,-3.8741,1.2112,-1.0095,1054.93,1986.76,1419.92
13310,-3.8740,1.1666,-1.0281,-960.69,-1216.43,1622.99
13320,-3.8738,1.0920,-1.0474,1336.18,408.51,-752.01
13330,-3.8734,0.9985,-1.0576,-210.69,1939.58,-1423.95
13340,-3.8732,0.9048,-1.0698,-179.44,626.89,-595.83
13350,-3.8729,0.8278,-1.1204,-179.44,-935.79,357.24
13360,-3.8729,0.7793,-1.2360,1961.18,595.34,-1033.45
13370,-3.8728,0.7621,-1.3926,-241.94,1798.34,-346.19
13380,-3.8724,0.7474,-1.5291,1554.93,1751.46,700.38
13390,-3.8721,0.7052,-1.6030,-320.07,282.65,1543.88
13400,-3.8717,0.6310,-1.6030,-1726.32,-1186.16,-1128.17
13410,-3.8713,0.5251,-1.5530,773.68,-1186.28,340.58
13420,-3.8712,0.3932,-1.4941,-773.19,1219.73,1825.07
13430,-3.8711,0.2504,-1.4379,-1663.82,750.73,-174.80
13440,-3.8707,0.1108,-1.3790,54.93,-46.39,1840.88
13450,-3.8704,-0.0168,-1.3235,-1804.44,-515.44,1419.13
13460,-3.8701,-0.1296,-1.2711,1851.81,-1390.69,700.50
13470,-3.8701,-0.2220,-1.2185,-585.69,1312.19,1763.12
13480,-3.8702,-0.2900,-1.1703,-413.82,46.39,-1393.01
13490,-3.8704,-0.3368,-1.1327,-1116.94,-1781.86,107.06
13500,-3.8707,-0.3578,-1.1147,898.68,-969.42,-1142.88
13510,-3.8711,-0.3459,-1.1172,-1788.82,1327.39,-49.07
13520,-3.8713,-0.3110,-1.1189,-273.19,1014.89,1825.93
13530,-3.8715,-0.2869,-1.0958,195.56,796.26,794.68
13540,-3.8716,-0.2992,-1.0486,-710.69,-250.61,-892.82
13550,-3.8717,-0.3383,-0.9902,1711.18,1796.26,1997.92
13560,-3.8719,-0.3875,-0.9323,711.18,1264.95,1185.55
13570,-3.8722,-0.4390,-0.8879,-1585.69,686.71,1466.92
13580,-3.8724,-0.4850,-0.8638,-179.44,-1641.54,-17.40
13590,-3.8726,-0.5195,-0.8521,1929.93,1452.15,-1314.21
13600,-3.8727,-0.5415,-0.8334,1508.06,-1047.91,1998.29
13610,-3.8728,-0.5562,-0.7952,-1304.44,1342.65,-1720.40
13620,-3.8729,-0.5659,-0.7404,820.56,-1766.72,-1626.59
13630,-3.8730,-0.5649,-0.6793,-429.44,1248.84,-1735.84
13640,-3.8732,-0.5505,-0.6246,-304.44,1061.34,-1563.84
13650,-3.8733,-0.5292,-0.5884,1539.31,61.40,-1704.35
13660,-3.8734,-0.5096,-0.5734,273.68,702.09,670.72
13670,-3.8737,-0.4897,-0.5693,-1226.32,-1376.04,1201.97
13680,-3.8739,-0.4713,-0.5651,1320.56,-860.35,233.22
13690,-3.8743,-0.4674,-0.5543,-320.07,-313.48,-579.28
13700,-3.8744,-0.4764,-0.5364,179.93,1061.58,1452.03
13710,-3.8745,-0.4799,-0.5165,-976.32,-641.60,-1876.10
13720,-3.8746,-0.4650,-0.5010,-1413.82,1905.27,-1610.41
13730,-3.8748,-0.4319,-0.4896,492.43,-110.29,1233.34
13740,-3.8750,-0.3889,-0.4763,726.81,1342.90,-63.48
13750,-3.8750,-0.3485,-0.4547,-1773.19,-953.92,655.27
13760,-3.8439,-0.3112,-0.4203,-601.32,1811.77,-250.92
13770,-3.8439,-0.2634,-0.3807,179.93,-1781.86,-1063.35
13780,-3.8439,-0.1964,-0.3441,-1710.69,-719.30,1530.46
13790,-3.8439,-0.1116,-0.3032,-1132.57,-31.68,936.77
13800,-3.8439,-0.0259,-0.2554,1726.81,1202.88,1577.51
13810,-3.8439,0.0466,-0.2024,695.56,-671.94,-969.30
13820,-3.8750,0.1102,-0.1484,1976.81,-1906.19,1312.07
13830,-3.8750,0.1769,-0.1130,-1882.57,1000.18,-828.43
13840,-3.8750,0.2601,-0.1118,-1351.32,1531.56,-1422.12
13850,-3.8439,0.3690,-0.1442,1304.93,1687.99,-312.74
13860,-3.8439,0.4982,-0.1913,-757.57,1547.55,952.82
13870,-3.8440,0.6279,-0.2299,-226.32,-483.46,-234.80
13880,-3.8440,0.7422,-0.2599,383.06,-1420.65,1874.51
13890,-3.8441,0.8335,-0.2869,-991.94,-1264.22,-1969.30
13900,-3.8442,0.8910,-0.3026,-1304.44,-717.16,-1750.61
13910,-3.8442,0.9147,-0.3042,-1945.07,1267.33,1327.51
13920,-3.8441,0.9172,-0.3058,1086.18,1064.27,718.14
13930,-3.8440,0.9147,-0.3201,1414.31,861.15,-500.61
13940,-3.8750,0.9263,-0.3448,1086.18,-966.98,-78.80
13950,-3.8748,0.9615,-0.3800,-1429.44,-138.85,-1391.36
13960,-3.8746,1.0197,-0.4418,-913.82,-638.79,311.71
13970,-3.8748,1.0930,-0.5420,-1476.32,-544.92,1920.96
13980,-3.8749,1.1735,-0.6655,-85.69,-1372.92,-626.10
13990,-3.8749,1.2474,-0.7888,-1788.82,-1185.24,-1079.47
14000,-3.8748,1.2902,-0.8865,-320.07,-966.37,-1204.71
14010,-3.8744,1.2985,-0.9414,1148.68,-1466.25,1138.85
14020,-3.8740,1.2902,-0.9904,-1788.82,-497.50,1732.48
14030,-3.8738,1.2800,-1.0817,1148.68,1236.88,-392.58
14040,-3.8735,1.2762,-1.2095,-148.19,1549.32,-658.39
14050,-3.8732,1.2678,-1.3433,-632.57,1189.94,216.37
14060,-3.8728,1.2220,-1.4698,-1710.69,64.94,763.00
14070,-3.8723,1.1136,-1.5884,429.93,-138.24,747.07
14080,-3.8718,0.9517,-1.6975,-1445.07,689.64,-1221.86
14090,-3.8712,0.7538,-1.7817,1820.56,-1279.42,1527.89
14100,-3.8706,0.5283,-1.8206,492.43,-61.04,1340.21
14110,-3.8700,0.2986,-1.8152,-366.94,-1030.27,-1831.73
14120,-3.8695,0.0925,-1.7751,-1773.19,-343.20,-878.60
14130,-3.8693,-0.0746,-1.7191,-148.19,781.37,-1112.85
14140,-3.8694,-0.1866,-1.6665,-1538.82,-31.43,-206.54
14150,-3.8696,-0.2393,-1.6241,117.43,-1297.24,309.20
14160,-3.8701,-0.2539,-1.5830,1383.06,124.51,-1643.80
14170,-3.8705,-0.2632,-1.5231,-491.94,1390.08,-18.74
14180,-3.8706,-0.2886,-1.4349,-1679.44,1061.95,543.88
14190,-3.8710,-0.3239,-1.3256,-929.44,343.14,-924.68
14200,-3.8713,-0.3560,-1.2074,-1445.07,-1656.92,-799.50
14210,-3.8716,-0.3884,-1.0895,-1554.44,1468.02,888.24
14220,-3.8718,-0.4326,-0.9854,-1710.69,561.71,1357.24
14230,-3.8721,-0.4917,-0.9020,633.06,1889.77,1060.55
14240,-3.8724,-0.5525,-0.8345,1070.56,561.52,-908.02
14250,-3.8727,-0.5920,-0.7814,1289.31,1202.03,1951.48
14260,-3.8729,-0.5972,-0.7480,226.81,-1.16,1264.04
14270,-3.8733,-0.5734,-0.7330,-429.44,264.40,-345.21
14280,-3.8735,-0.5331,-0.7260,-1382.57,-1813.66,-1048.34
14290,-3.8737,-0.4929,-0.7046,-226.32,-907.35,-1423.34
14300,-3.8737,-0.4753,-0.6466,914.31,1827.15,-1970.15
14310,-3.8737,-0.4828,-0.5620,-835.69,1249.02,904.97
14320,-3.8738,-0.4961,-0.4860,-1788.82,77.15,1108.28
14330,-3.8740,-0.5151,-0.4271,508.06,1811.52,-1032.23
14340,-3.8743,-0.5470,-0.3909,-1929.44,1342.71,-610.23
14350,-3.8744,-0.5742,-0.3901,1992.43,1983.28,686.71
14360,-3.8745,-0.5779,-0.4054,-1491.94,-1923.03,858.58
14370,-3.8746,-0.5596,-0.4174,-1960.69,123.84,-1219.54
14380,-3.8746,-0.5326,-0.4241,383.06,-1407.35,671.02
14390,-3.8748,-0.5098,-0.4231,-163.82,1733.28,1327.27
14400,-3.8749,-0.4939,-0.4164,-1241.94,1858.34,296.02
14410,-3.8750,-0.4740,-0.4067,789.31,-1282.23,249.15
14420,-3.8439,-0.4354,-0.3938,-663.82,-47.85,-1469.60
14430,-3.8439,-0.3822,-0.3848,273.68,1608.52,967.96
14440,-3.8440,-0.3319,-0.3851,-913.82,-1235.17,-953.92
14450,-3.8440,-0.2883,-0.3821,1523.68,-1281.92,-922.67
14460,-3.8439,-0.2472,-0.3606,-898.19,-891.24,1561.71
14470,-3.8750,-0.2069,-0.3242,367.43,1858.89,-1797.61
14480,-3.8748,-0.1526,-0.2848,1523.68,-1484.80,468.08
14490,-3.8746,-0.0669,-0.2484,476.81,-437.81,952.51
14500,-3.8746,0.0417,-0.2256,-554.44,218.57,1358.89
14510,-3.8748,0.1523,-0.2264,1351.81,-874.94,-984.86
14520,-3.8749,0.2526,-0.2504,-491.94,-984.13,-62.99
14530,-3.8749,0.3397,-0.2914,336.18,-46.39,1686.95
14540,-3.8749,0.4188,-0.3378,-507.57,-1296.26,-1203.74
14550,-3.8746,0.4961,-0.3760,1617.43,766.42,61.83
14560,-3.8745,0.5718,-0.3942,-491.94,-124.08,-1266.42
14570,-3.8744,0.6472,-0.3923,1195.56,1547.97,-1407.04
14580,-3.8744,0.7245,-0.3827,-1148.19,1782.47,1733.58
14590,-3.8745,0.7979,-0.3793,742.43,-982.97,-1469.54
14600,-3.8746,0.8568,-0.4030,-1866.94,-545.35,-1157.04
14610,-3.8748,0.8981,-0.4705,1679.93,423.52,-750.79
14620,-3.8748,0.9315,-0.5725,-1038.82,-217.04,874.02
14630,-3.8748,0.9629,-0.6810,-757.57,-1279.48,1514.47
14640,-3.8746,0.9916,-0.7643,-741.94,829.96,-1891.97
14650,-3.8745,1.0183,-0.8068,-1070.07,-1826.23,-923.40
14660,-3.8745,1.0377,-0.8269,-1648.19,736.33,-923.46
14670,-3.8746,1.0491,-0.8640,836.18,-1841.74,1263.98
14680,-3.8749,1.0547,-0.9514,-1710.69,1408.26,732.67
14690,-3.8439,1.0546,-1.0785,-991.94,-1779.24,-1283.14
14700,-3.8439,1.0557,-1.2062,-1007.57,1955.14,-345.89
14710,-3.8749,1.0570,-1.3115,-866.94,1611.39,-1049.26
14720,-3.8745,1.0454,-1.3845,-695.07,127.01,247.44
14730,-3.8743,1.0155,-1.4388,1820.56,-1216.74,-1924.62
14740,-3.8739,0.9661,-1.4802,1992.43,-169.92,1731.51
14750,-3.8735,0.8901,-1.5049,-335.69,-1466.92,-1549.80
14760,-3.8732,0.7863,-1.5341,1945.56,-623.29,-1659.24
14770,-3.8728,0.6639,-1.5743,648.68,-357.85,-1784.30
14780,-3.8724,0.5300,-1.6172,992.43,-1514.34,-190.61
14790,-3.8719,0.3851,-1.6489,-148.19,1000.98,-1815.67
14800,-3.8716,0.2325,-1.6456,1304.93,938.23,-862.61
14810,-3.8712,0.0809,-1.6025,1773.68,1359.80,1371.77
14820,-3.8710,-0.0518,-1.5382,-1632.57,-1124.88,356.20
14830,-3.8708,-0.1599,-1.4644,1383.06,-875.12,559.45
14840,-3.8708,-0.2566,-1.3912,-460.69,577.76,1794.01
14850,-3.8710,-0.3486,-1.3374,-835.69,1936.95,1981.63
14860,-3.8713,-0.4359,-1.3079,-616.94,827.39,-18.25
14870,-3.8716,-0.5271,-1.2952,211.18,608.52,91.19
14880,-3.8718,-0.6268,-1.2800,539.31,-1766.66,1388.06
14890,-3.8719,-0.7231,-1.2466,-226.32,170.59,-1502.50
14900,-3.8721,-0.7985,-1.2006,-554.44,451.66,278.81
14910,-3.8724,-0.8429,-1.1527,1804.93,-1657.84,1481.99
14920,-3.8728,-0.8595,-1.1077,117.43,467.10,919.62
14930,-3.8732,-0.8612,-1.0662,1992.43,-1767.33,935.30
14940,-3.8735,-0.8575,-1.0327,1773.68,-454.83,1513.49
14950,-3.8739,-0.8452,-1.0067,-1757.57,-173.58,-1345.83
14960,-3.8741,-0.8258,-0.9707,-179.44,-845.46,-642.64
14970,-3.8741,-0.8093,-0.9081,-1695.07,-236.02,-533.20
14980,-3.8739,-0.8053,-0.8239,414.31,-220.34,748.17
14990,-3.8739,-0.8163,-0.7374,929.93,-1439.09,-79.77
15000,-3.8739,-0.8298,-0.6616,-476.32,1623.35,-329.59
15010,-3.8739,-0.8280,-0.6055,1789.31,-673.52,-938.84
15020,-3.8739,-0.7983,-0.5719,-1976.32,-1486.02,1998.78
15030,-3.8740,-0.7434,-0.5665,1820.56,-1189.09,-1298.03
15040,-3.8741,-0.6771,-0.5925,851.81,-501.46,1889.47
15050,-3.8743,-0.6132,-0.6259,1336.18,170.53,1545.72
15060,-3.8744,-0.5640,-0.6432,1523.68,-94.97,1795.59
15070,-3.8745,-0.5320,-0.6318,-179.44,1686.34,-1579.41
15080,-3.8745,-0.5162,-0.5831,-85.69,-860.47,-1391.91
15090,-3.8744,-0.5193,-0.5106,1929.93,1373.96,-1798.03
15100,-3.8744,-0.5336,-0.4447,1539.31,-1344.79,-266.66
15110,-3.8744,-0.5405,-0.4006,-288.82,-907.35,1952.21
15120,-3.8744,-0.5234,-0.3696,-1179.44,733.28,-1844.54
15130,-3.8743,-0.4795,-0.3439,1008.06,702.09,-813.23
15140,-3.8740,-0.4171,-0.3256,-1366.94,-0.98,233.64
15150,-3.8741,-0.3369,-0.3196,-1382.57,-1657.10,-297.55
15160,-3.8743,-0.2378,-0.3236,883.06,-891.30,1999.33
15170,-3.8744,-0.1356,-0.3253,1570.56,-1406.74,436.83
15180,-3.8745,-0.0508,-0.3269,-1351.32,-1625.31,1514.95
15190,-3.8746,0.0171,-0.3356,1508.06,-1828.25,-1172.55
15200,-3.8746,0.0880,-0.3419,-1804.44,1046.88,202.45
15210,-3.8748,0.1692,-0.3373,-726.32,234.50,-688.17
15220,-3.8748,0.2495,-0.3226,1664.31,828.43,-844.42
15230,-3.8748,0.3208,-0.3085,-54.44,-1296.45,-1453.80
15240,-3.8748,0.3827,-0.3052,1070.56,516.24,1343.14
15250,-3.8748,0.4402,-0.3090,992.43,938.23,546.26
15260,-3.8748,0.5034,-0.3118,351.81,453.98,-1781.86
15270,-3.8746,0.5753,-0.3193,445.56,94.73,765.01
15280,-3.8746,0.6548,-0.3461,1648.68,-873.90,108.70
15290,-3.8748,0.7375,-0.3906,-179.44,-295.65,468.02
15300,-3.8749,0.8096,-0.4386,-1585.69,-1998.60,1655.46
15310,-3.8749,0.8586,-0.4811,-366.94,-139.10,-1766.54
15320,-3.8748,0.8832,-0.5094,1914.31,-1576.48,952.15
15330,-3.8748,0.8883,-0.5178,1054.93,-1201.42,-860.41
15340,-3.8746,0.8844,-0.5134,1711.18,1720.46,139.59
15350,-3.8746,0.8870,-0.5146,1211.18,-1717.04,1045.84
15360,-3.8746,0.8955,-0.5419,1539.31,-1873.29,-876.04
15370,-3.8745,0.9010,-0.5934,-1366.94,-1357.67,1811.40
15380,-3.8745,0.9067,-0.6603,-663.82,48.58,-423.03
15390,-3.8744,0.9177,-0.7394,70.56,-513.85,733.03
15400,-3.8744,0.9338,-0.8138,1476.81,1361.15,-1517.09
15410,-3.8743,0.9486,-0.8790,-460.69,-170.10,717.10
15420,-3.8743,0.9589,-0.9503,1429.93,-513.79,-767.40
15430,-3.8741,0.9688,-1.0267,-1257.57,-1638.79,-1580.02
15440,-3.8740,0.9773,-1.0992,8.06,580.02,1919.86
15450,-3.8739,0.9854,-1.1815,1101.81,-701.23,1419.68
15460,-3.8738,0.9969,-1.2764,-1866.94,767.52,1794.56
15470,-3.8737,0.9980,-1.3749,-382.57,626.89,-315.00
15480,-3.8733,0.9669,-1.4745,-241.94,17.52,966.06
15490,-3.8728,0.8992,-1.5488,-226.32,-732.54,75.20
15500,-3.8723,0.8033,-1.5795,-898.19,1751.71,-1409.30
15510,-3.8718,0.6934,-1.5825,-1163.82,1829.65,-362.49
15520,-3.8713,0.5801,-1.5679,758.06,1438.84,1590.64
15530,-3.8710,0.4524,-1.5408,-1741.94,-686.40,528.14
15540,-3.8707,0.2975,-1.5040,1914.31,-1217.90,934.45
15550,-3.8705,0.1260,-1.4541,-1913.82,-515.08,1231.38
15560,-3.8702,-0.0413,-1.4050,133.06,1875.24,1997.13
15570,-3.8701,-0.1827,-1.3712,-1273.19,171.75,-362.12
15580,-3.8701,-0.2775,-1.3541,617.43,499.63,-518.31
15590,-3.8702,-0.3215,-1.3503,492.43,-1313.05,-1752.69
15600,-3.8705,-0.3414,-1.3422,-1148.19,-828.80,1809.81
15610,-3.8707,-0.3624,-1.3110,304.93,218.08,1138.00
15620,-3.8710,-0.3840,-1.2531,1617.43,202.39,1950.56
15630,-3.8712,-0.4027,-1.1774,-1148.19,-375.79,-1752.50
15640,-3.8715,-0.4243,-1.0950,461.18,1311.71,747.68
15650,-3.8718,-0.4561,-1.0157,1695.56,-141.48,-1470.95
15660,-3.8721,-0.5077,-0.9434,1633.06,1999.08,576.11
15670,-3.8723,-0.5660,-0.8877,-976.32,-735.41,498.11
15680,-3.8726,-0.6078,-0.8505,-445.07,-1610.53,-1361.15
15690,-3.8727,-0.6375,-0.8168,-1788.82,-844.97,1107.67
15700,-3.8729,-0.6654,-0.7821,-1585.69,-532.53,-314.15
15710,-3.8730,-0.6870,-0.7423,-1163.82,-95.09,-1454.71
15720,-3.8733,-0.6973,-0.6969,70.56,998.66,-126.46
15730,-3.8734,-0.7015,-0.6447,-1241.94,-1188.90,170.47
15740,-3.8737,-0.7086,-0.5831,-1788.82,1498.60,-157.53
15750,-3.8737,-0.7189,-0.5250,1304.93,1373.60,-1579.28
15760,-3.8738,-0.7263,-0.4860,-7.57,811.04,1967.71
15770,-3.8740,-0.7255,-0.4772,-960.69,1811.04,514.65
15780,-3.8744,-0.7094,-0.5054,-851.32,-1063.96,45.90
15790,-3.8748,-0.6749,-0.5586,1211.18,-673.28,530.21
15800,-3.8750,-0.6283,-0.6080,1617.43,514.28,1061.40
15810,-3.8439,-0.5809,-0.6287,-413.82,-1813.78,873.78
15820,-3.8440,-0.5453,-0.6165,1648.68,-454.28,-1954.41
15830,-3.8441,-0.5287,-0.5845,-1788.82,1108.28,-313.72
15840,-3.8441,-0.5289,-0.5371,336.18,1202.09,-1423.03
15850,-3.8440,-0.5356,-0.4766,304.93,-735.41,123.90
15860,-3.8440,-0.5348,-0.4113,-554.44,-985.47,-63.48
15870,-3.8750,-0.5211,-0.3488,-445.07,-626.10,280.40
15880,-3.8750,-0.4982,-0.2965,1304.93,-626.04,-328.86
15890,-3.8749,-0.4618,-0.2600,242.43,-1938.48,-1984.99
15900,-3.8749,-0.4028,-0.2452,898.68,-1266.54,-1531.80
15910,-3.8749,-0.3138,-0.2548,445.56,624.21,155.76
15920,-3.8750,-0.1926,-0.2844,-163.82,-594.42,983.83
15930,-3.8439,-0.0574,-0.3224,-648.19,-391.05,-1172.49
15940,-3.8439,0.0614,-0.3525,664.31,-1250.12,-1750.67
15950,-3.8439,0.1572,-0.3622,-132.57,-1124.94,-1266.36
15960,-3.8439,0.2405,-0.3551,133.06,1640.93,-531.98
15970,-3.8750,0.3103,-0.3501,-1210.69,-1452.70,124.27
15980,-3.8750,0.3671,-0.3572,-273.19,-811.95,327.39
15990,-3.8750,0.4159,-0.3713,-1007.57,-1718.08,749.27
16000,-3.8750,0.4586,-0.3876,1242.43,469.54,-172.61
16010,-3.8748,0.4941,-0.4105,-1288.82,-1608.52,233.58
16020,-3.8748,0.5231,-0.4440,-741.94,-545.96,-1594.60
16030,-3.8748,0.5481,-0.4860,-1038.82,-827.15,-797.79
16040,-3.8746,0.5647,-0.5361,-1835.69,1797.91,780.27
16050,-3.8746,0.5648,-0.5853,289.31,-623.90,-735.47
16060,-3.8744,0.5552,-0.6150,304.93,1079.22,45.72
16070,-3.8743,0.5555,-0.6304,-929.44,1282.29,-1907.47
16080,-3.8741,0.5841,-0.6575,-882.57,-686.46,733.09
16090,-3.8743,0.6476,-0.7162,-1226.32,-155.15,-266.97
16100,-3.8743,0.7297,-0.8032,-1101.32,329.35,-563.90
16110,-3.8740,0.7961,-0.8778,1414.31,1188.90,170.29
16120,-3.8738,0.8265,-0.9041,1914.31,-357.85,-1829.90
16130,-3.8734,0.8339,-0.8972,1804.93,282.84,154.48
16140,-3.8733,0.8502,-0.8967,-1257.57,1157.84,-1767.40
16150,-3.8732,0.8921,-0.9327,836.18,1220.40,-1970.52
16160,-3.8730,0.9353,-0.9983,-1804.44,611.08,-1876.83
16170,-3.8728,0.9554,-1.0692,-273.19,220.52,1388.67
16180,-3.8724,0.9635,-1.1245,-1695.07,-857.54,-1314.64
16190,-3.8719,0.9783,-1.1418,-663.82,64.33,-1720.95
16200,-3.8716,1.0068,-1.1273,1226.81,1845.64,950.87
16210,-3.8715,1.0521,-1.1277,883.06,-294.92,-1533.51
16220,-3.8713,1.0934,-1.1832,-1320.07,-341.74,1419.62
16230,-3.8712,1.1053,-1.2690,-38.82,548.95,1513.31
16240,-3.8710,1.0658,-1.3254,1492.43,1564.64,-752.50
16250,-3.8706,0.9365,-1.3245,429.93,-1654.17,-1518.25
16260,-3.8702,0.7317,-1.2433,-116.94,-1529.48,1106.75
16270,-3.8698,0.5234,-1.0817,1664.31,860.78,685.06
16280,-3.8694,0.3340,-0.9037,-991.94,1547.85,-720.89
16290,-3.8691,0.1584,-0.7821,-1241.94,328.74,1154.48
16300,-3.8693,0.0564,-0.7079,289.31,-109.07,-1032.84
16310,-3.8695,0.0204,-0.6560,-773.19,1390.69,-813.90
16320,-3.8698,-0.0265,-0.6530,-1382.57,31.25,-48.16
16330,-3.8698,-0.0856,-0.6743,617.43,437.44,-688.78
16340,-3.8696,-0.1342,-0.6809,1054.93,1702.94,-688.84
16350,-3.8696,-0.1797,-0.6802,-1163.82,859.07,-32.59
16360,-3.8696,-0.2278,-0.6680,1008.06,952.76,1045.53
16370,-3.8698,-0.2639,-0.6393,-1148.19,-1484.86,1264.28
16380,-3.8700,-0.2870,-0.6088,-1773.19,-1813.05,-1251.28
16390,-3.8702,-0.3174,-0.5764,-726.32,-1906.86,-1376.22
16400,-3.8705,-0.3621,-0.5380,-616.94,-1766.30,-94.91
16410,-3.8706,-0.4076,-0.5127,1664.31,-844.48,1483.28
16420,-3.8708,-0.4352,-0.5144,-163.82,-1610.23,1811.46
16430,-3.8711,-0.4430,-0.5306,304.93,-1828.98,1811.46
16440,-3.8713,-0.4418,-0.5476,-695.07,92.83,-1126.04
16450,-3.8715,-0.4338,-0.5717,-538.82,1920.96,123.90
16460,-3.8717,-0.4174,-0.6077,476.81,-1157.10,592.59
16470,-3.8719,-0.4017,-0.6385,-1413.82,-1766.48,1248.78
16480,-3.8721,-0.3960,-0.6404,586.18,-1719.54,279.97
16490,-3.8722,-0.4048,-0.6024,1320.56,-1953.92,-1641.91
16500,-3.8722,-0.4326,-0.5427,195.56,-1094.54,1280.03
16510,-3.8723,-0.4742,-0.4843,633.06,-1453.98,-1376.10
16520,-3.8724,-0.5159,-0.4329,-695.07,-1969.73,-938.48
16530,-3.8726,-0.5599,-0.3904,1976.81,608.34,-1266.48
16540,-3.8728,-0.6124,-0.3640,336.18,-1954.22,-594.54
16550,-3.8730,-0.6523,-0.3615,1617.43,1420.65,1671.14
16560,-3.8733,-0.6549,-0.3896,508.06,1748.72,483.64
16570,-3.8735,-0.6161,-0.4480,179.93,-1860.66,1889.83
16580,-3.8737,-0.5510,-0.5067,1148.68,-1329.35,-860.29
16590,-3.8737,-0.4869,-0.5371,1476.81,-844.85,1827.09
16600,-3.8738,-0.4398,-0.5452,1679.93,-735.35,-1938.60
16610,-3.8740,-0.4070,-0.5463,-288.82,-1766.54,-251.10
16620,-3.8741,-0.3801,-0.5428,-85.69,-1907.10,1233.28
16630,-3.8743,-0.3513,-0.5342,-648.19,-1469.54,202.03
16640,-3.8744,-0.3193,-0.5238,-960.69,-360.11,483.28
16650,-3.8745,-0.2881,-0.5040,-866.94,968.08,-1641.66
16660,-3.8745,-0.2589,-0.4646,-866.94,-500.61,-719.79
16670,-3.8744,-0.2291,-0.4187,-1132.57,546.33,1874.08
16680,-3.8744,-0.1960,-0.3823,-1320.07,-1578.61,1717.90
16690,-3.8745,-0.1576,-0.3497,-1085.69,-922.30,-1578.92
16700,-3.8746,-0.1085,-0.3219,-163.82,-750.37,-656.98
16710,-3.8746,-0.0461,-0.3147,-1882.57,-1187.74,14.95
16720,-3.8749,0.0209,-0.3291,-1898.19,-265.75,-938.17
16730,-3.8750,0.0927,-0.3541,-1320.07,1875.00,-1516.30
16740,-3.8439,0.1752,-0.3811,-132.57,-1328.00,-219.48
16750,-3.8439,0.2593,-0.4036,-1570.07,-780.94,-1016.42
16760,-3.8750,0.3330,-0.4110,1195.56,344.24,92.96
16770,-3.8750,0.3964,-0.3982,-1366.94,-608.76,-532.10
16780,-3.8749,0.4507,-0.3826,-1257.57,1031.98,-1735.17
16790,-3.8749,0.4966,-0.3716,1695.56,-967.90,-1453.92
16800,-3.8749,0.5476,-0.3630,-429.44,438.42,-1938.23
16810,-3.8750,0.6149,-0.3821,-1898.19,1532.29,-1016.36
16820,-3.8440,0.6842,-0.4430,-1288.82,-905.09,-94.54
16830,-3.8441,0.7323,-0.5179,-413.82,-701.84,-1297.79
16840,-3.8441,0.7557,-0.5826,1742.43,1704.53,-719.79
16850,-3.8439,0.7687,-0.6273,742.43,1423.34,389.47
16860,-3.8749,0.7803,-0.6553,-1601.32,-295.41,1373.72
16870,-3.8746,0.8000,-0.6866,-116.94,126.46,-1391.91
16880,-3.8744,0.8375,-0.7323,-1585.69,110.90,45.53
16890,-3.8744,0.8854,-0.7975,-788.82,-1732.79,1014.16
16900,-3.8745,0.9258,-0.8707,1336.18,1923.58,-204.71
16910,-3.8744,0.9548,-0.9290,-1491.94,548.65,1279.54
16920,-3.8743,0.9813,-0.9861,-1773.19,1095.58,-1283.08
16930,-3.8740,1.0040,-1.0659,1617.43,1783.14,1201.17
16940,-3.8739,1.0133,-1.1515,523.68,-435.55,-1252.14
16950,-3.8738,1.0015,-1.2382,1711.18,611.33,1263.37
16960,-3.8738,0.9618,-1.3383,195.56,1517.58,966.31
16970,-3.8738,0.8936,-1.4336,-882.57,704.96,-737.00
16980,-3.8735,0.7932,-1.5217,-1616.94,501.71,-2.81
16990,-3.8730,0.6555,-1.6022,1539.31,1220.28,-1190.49
17000,-3.8724,0.4993,-1.6484,-85.69,-1076.90,1293.70
17010,-3.8719,0.3561,-1.6586,-85.69,1000.92,-1565.73
17020,-3.8716,0.2437,-1.6461,1586.18,-296.20,1949.83
17030,-3.8713,0.1533,-1.6147,-804.44,1297.30,1121.77
17040,-3.8712,0.0629,-1.5803,-366.94,1312.74,-1253.17
17050,-3.8711,-0.0374,-1.5559,54.93,1718.87,-1487.49
17060,-3.8711,-0.1444,-1.5383,-773.19,859.25,-737.43
17070,-3.8711,-0.2550,-1.5222,1523.68,-890.93,1106.32
17080,-3.8712,-0.3569,-1.5015,-632.57,1171.33,668.88
17090,-3.8715,-0.4347,-1.4711,-1679.44,-172.61,-1424.87
17100,-3.8717,-0.4855,-1.4364,367.43,-282.10,-237.30
17110,-3.8718,-0.5167,-1.3992,1867.43,155.27,1122.19
17120,-3.8721,-0.5424,-1.3477,1867.43,920.84,-1502.75
17130,-3.8723,-0.5685,-1.2865,-1413.82,-485.47,-908.94
17140,-3.8726,-0.5872,-1.2286,-757.57,-657.41,-1455.69
17150,-3.8728,-0.5951,-1.1687,851.81,-1251.16,-1658.69
17160,-3.8729,-0.6061,-1.1036,-163.82,-1579.35,247.68
17170,-3.8732,-0.6249,-1.0400,-1570.07,-1251.22,-17.82
17180,-3.8733,-0.6351,-0.9844,23.68,-1110.60,-252.08
17190,-3.8734,-0.6277,-0.9366,-1288.82,-1985.66,-876.95
17200,-3.8735,-0.6111,-0.8912,-335.69,123.72,-470.58
17210,-3.8735,-0.5964,-0.8458,1789.31,1936.28,982.60
17220,-3.8737,-0.5859,-0.8051,-335.69,-251.22,1482.67
17230,-3.8739,-0.5819,-0.7709,1008.06,967.59,-95.34
17240,-3.8740,-0.5876,-0.7377,1523.68,1342.59,-1814.03
17250,-3.8741,-0.5972,-0.6951,789.31,1592.59,-1.46
17260,-3.8740,-0.6014,-0.6423,-429.44,-954.35,639.22
17270,-3.8741,-0.5991,-0.5946,-976.32,1795.65,-688.78
17280,-3.8743,-0.5929,-0.5691,-679.44,-94.97,-1594.97
17290,-3.8744,-0.5861,-0.5658,117.43,-829.28,826.97
17300,-3.8745,-0.5812,-0.5667,992.43,-407.41,1311.34
17310,-3.8746,-0.5785,-0.5593,1617.43,-516.78,-204.28
17320,-3.8746,-0.5706,-0.5431,1961.18,420.72,-1329.22
17330,-3.8748,-0.5515,-0.5283,-1023.19,-1501.16,-79.22
17340,-3.8749,-0.5262,-0.5195,1414.31,389.53,-704.16
17350,-3.8750,-0.5017,-0.5067,648.68,1514.59,-672.91
17360,-3.8750,-0.4755,-0.4874,-210.69,-844.79,-1844.79
17370,-3.8750,-0.4415,-0.4689,-851.32,1624.02,-1735.35
17380,-3.8750,-0.4036,-0.4515,-507.57,-0.92,1452.15
17390,-3.8750,-0.3665,-0.4269,351.81,-1782.04,1045.96
17400,-3.8750,-0.3252,-0.4008,1101.81,1374.27,-1110.23
17410,-3.8749,-0.2723,-0.3835,-1616.94,718.08,624.21
17420,-3.8750,-0.2062,-0.3777,1148.68,-1078.67,-407.04
17430,-3.8750,-0.1289,-0.3820,1617.43,-328.55,327.33
17440,-3.8439,-0.0474,-0.3866,-491.94,-875.31,780.46
17450,-3.8440,0.0292,-0.3839,1945.56,-1468.87,-1000.79
17460,-3.8440,0.0969,-0.3729,-257.57,-1140.62,-797.67
17470,-3.8440,0.1589,-0.3573,414.31,265.81,-391.36
17480,-3.8440,0.2231,-0.3452,351.81,-1734.07,-438.23
17490,-3.8440,0.2969,-0.3448,570.56,-187.07,-625.73
17500,-3.8440,0.3773,-0.3564,-1991.94,-140.08,-891.36
17510,-3.8440,0.4604,-0.3772,304.93,-1624.27,-938.23
17520,-3.8440,0.5387,-0.4105,-1054.44,-280.40,-1516.42
17530,-3.8440,0.5989,-0.4595,961.18,-545.84,186.65
17540,-3.8441,0.6359,-0.5173,664.31,1188.66,655.33
17550,-3.8442,0.6554,-0.5736,1398.68,1782.47,-1844.79
17560,-3.8442,0.6685,-0.6287,-101.32,-1420.65,-79.28
17570,-3.8440,0.6790,-0.6841,1570.56,-467.47,1936.22
17580,-3.8439,0.6896,-0.7302,-1085.69,438.78,-266.97
17590,-3.8750,0.7070,-0.7754,273.68,-1467.41,1467.29
17600,-3.8750,0.7341,-0.8485,-1491.94,751.34,107.85
17610,-3.8750,0.7719,-0.9431,1976.81,-607.97,138.92
17620,-3.8749,0.8109,-1.0117,-1195.07,-717.29,-1361.27
17630,-3.8744,0.8364,-1.0327,-195.07,-1498.47,1701.11
17640,-3.8738,0.8391,-1.0312,-929.44,-185.91,29.17
17650,-3.8734,0.8245,-1.0284,-585.69,1.59,-1189.51
17660,-3.8730,0.8264,-1.0441,1539.31,360.96,591.74
17670,-3.8729,0.8625,-1.1146,1789.31,-1639.04,-1673.95
17680,-3.8728,0.9083,-1.2290,-1585.69,1329.77,1466.55
17690,-3.8727,0.9305,-1.3340,273.68,-1310.73,388.18
17700,-3.8726,0.9039,-1.3959,-882.57,1251.77,1950.50
17710,-3.8722,0.8202,-1.4215,-288.82,1329.83,294.13
17720,-3.8718,0.6956,-1.4382,992.43,-1951.54,778.44
17730,-3.8716,0.5568,-1.4651,1039.31,-92.41,1450.26
17740,-3.8715,0.4283,-1.5049,-726.32,469.79,887.76
17750,-3.8715,0.3201,-1.5515,-1163.82,-624.21,1965.76
17760,-3.8715,0.2170,-1.6010,976.81,1406.86,-1971.80
17770,-3.8715,0.0996,-1.6431,-210.69,-921.51,981.20
17780,-3.8715,-0.0382,-1.6555,758.06,1687.68,699.89
17790,-3.8715,-0.1882,-1.6279,-882.57,109.25,-1331.36
17800,-3.8713,-0.3276,-1.5708,-85.69,-359.80,1840.52
17810,-3.8712,-0.4354,-1.4963,-1929.44,-1047.55,1512.51
17820,-3.8711,-0.5052,-1.4171,273.68,483.52,293.95
17830,-3.8712,-0.5421,-1.3402,-663.82,-1376.04,-815.31
17840,-3.8713,-0.5554,-1.2712,-1382.57,467.65,-1955.75
17850,-3.8716,-0.5541,-1.2266,914.31,1295.78,-1393.13
17860,-3.8718,-0.5487,-1.2075,1086.18,-985.47,1466.31
17870,-3.8721,-0.5474,-1.1969,1773.68,1452.03,28.87
17880,-3.8724,-0.5540,-1.1697,1945.56,-1188.60,-627.38
17890,-3.8726,-0.5803,-1.1097,1101.81,-1704.22,466.43
17900,-3.8727,-0.6357,-1.0200,1726.81,1967.59,-1314.70
17910,-3.8726,-0.7051,-0.9176,-1366.94,1451.84,1044.86
17920,-3.8726,-0.7600,-0.8257,1758.06,-1438.90,1420.04
17930,-3.8727,-0.7749,-0.7592,-1273.19,-1673.40,1185.85
17940,-3.8729,-0.7439,-0.7235,820.56,-1157.78,-1220.28
17950,-3.8730,-0.6884,-0.7102,789.31,-595.21,1217.29
17960,-3.8732,-0.6344,-0.6973,-101.32,1107.97,545.47
17970,-3.8734,-0.5884,-0.6682,-1195.07,-1235.66,-1298.28
17980,-3.8737,-0.5508,-0.6337,695.56,-1516.78,904.91
17990,-3.8740,-0.5343,-0.6106,1508.06,-1094.85,279.97
18000,-3.8744,-0.5481,-0.6021,-382.57,1858.28,-844.97
18010,-3.8744,-0.5790,-0.5979,1851.81,-1047.97,1326.90
18020,-3.8744,-0.6049,-0.5773,1898.68,-516.78,-532.47
18030,-3.8743,-0.6151,-0.5367,-1413.82,-1876.22,373.84
18040,-3.8744,-0.6055,-0.4935,1273.68,-688.72,-1797.97
18050,-3.8745,-0.5750,-0.4653,-1491.94,842.53,1733.40
18060,-3.8746,-0.5299,-0.4532,-1585.69,451.97,358.46
18070,-3.8749,-0.4784,-0.4436,179.93,1998.96,-844.67
18080,-3.8750,-0.4272,-0.4282,-1226.32,-766.60,-844.67
18090,-3.8750,-0.3802,-0.4083,1320.56,1202.27,1108.52
18100,-3.8750,-0.3385,-0.3804,-663.82,-250.79,1046.02
18110,-3.8749,-0.2987,-0.3376,679.93,-672.55,264.83
18120,-3.8748,-0.2520,-0.2909,1773.68,796.26,1671.20
18130,-3.8746,-0.1923,-0.2598,-241.94,-1219.30,155.64
18140,-3.8748,-0.1193,-0.2479,-601.32,-1234.80,-1344.30
18150,-3.8748,-0.0371,-0.2495,742.43,281.01,218.26
18160,-3.8749,0.0450,-0.2626,-741.94,78.00,1233.89
18170,-3.8750,0.1208,-0.2812,1773.68,-1609.31,702.58
18180,-3.8440,0.1843,-0.2979,-523.19,0.18,-156.80
18190,-3.8441,0.2290,-0.3174,-398.19,1875.31,-109.99
18200,-3.8441,0.2611,-0.3470,1320.56,-624.57,858.70
18210,-3.8441,0.2871,-0.3744,1429.93,-421.39,186.77
18220,-3.8441,0.3101,-0.3831,758.06,78.67,-156.98
18230,-3.8439,0.3408,-0.3833,-304.44,-1030.70,1717.96
18240,-3.8750,0.3824,-0.3965,-366.94,-1061.89,1389.83
18250,-3.8750,0.4338,-0.4302,961.18,1250.73,-1875.79
18260,-3.8750,0.4961,-0.4819,-460.69,938.29,1577.27
18270,-3.8750,0.5555,-0.5408,-491.94,-1686.58,1030.27
18280,-3.8750,0.5928,-0.5940,-882.57,-1217.71,-1157.35
18290,-3.8749,0.6117,-0.6384,-116.94,-30.15,-32.47
18300,-3.8746,0.6338,-0.6812,-1695.07,-1717.59,1186.22
18310,-3.8746,0.6700,-0.7332,1133.06,813.72,-720.09
18320,-3.8746,0.7139,-0.7990,1773.68,-1842.47,-1782.71
18330,-3.8746,0.7531,-0.8660,-616.94,1735.72,1170.29
18340,-3.8745,0.7809,-0.9280,398.68,1157.71,451.42
18350,-3.8744,0.7988,-0.9877,-38.82,1220.21,-423.71
18360,-3.8741,0.8119,-1.0446,-1741.94,1579.65,-1986.33
18370,-3.8740,0.8324,-1.0966,-70.07,-1701.60,-1048.95
18380,-3.8738,0.8716,-1.1403,-1445.07,-357.79,513.43
18390,-3.8737,0.9149,-1.2021,-429.44,-1951.48,-1689.76
18400,-3.8735,0.9280,-1.2970,1117.43,-1873.23,-1221.13
18410,-3.8734,0.8940,-1.3772,-1210.69,1986.15,-455.69
18420,-3.8732,0.8258,-1.4143,-1554.44,-279.54,-237.12
18430,-3.8728,0.7384,-1.4338,1711.18,-1029.66,-1284.06
18440,-3.8724,0.6411,-1.4698,-1476.32,470.15,700.32
18450,-3.8722,0.5420,-1.5325,-1929.44,-139.40,1059.57
18460,-3.8719,0.4423,-1.5958,1383.06,-155.21,1637.57
18470,-3.8717,0.3347,-1.6409,617.43,-264.77,1934.33
18480,-3.8716,0.2140,-1.6665,-1148.19,1969.36,-237.61
18490,-3.8715,0.0870,-1.6647,-601.32,-1312.13,-378.30
18500,-3.8712,-0.0337,-1.6379,-851.32,-1078.00,434.20
18510,-3.8711,-0.1360,-1.6013,-304.44,-1640.75,1949.89
18520,-3.8710,-0.2117,-1.5663,-1398.19,-953.43,324.95
18530,-3.8711,-0.2617,-1.5345,914.31,-469.18,1340.64
18540,-3.8713,-0.2983,-1.5061,-1491.94,-406.80,1121.95
18550,-3.8717,-0.3416,-1.4812,1820.56,-766.24,1450.13
18560,-3.8721,-0.4015,-1.4454,289.31,-1578.80,-190.43
18570,-3.8722,-0.4731,-1.3921,617.43,-1000.79,-502.87
18580,-3.8722,-0.5470,-1.3279,-554.44,1827.15,1575.38
18590,-3.8723,-0.6039,-1.2555,1992.43,-1954.22,-549.50
18600,-3.8723,-0.6334,-1.1813,-1288.82,-688.72,825.62
18610,-3.8724,-0.6537,-1.1132,-1070.07,811.22,-1689.82
18620,-3.8724,-0.6843,-1.0460,336.18,1529.97,716.55
18630,-3.8726,-0.7279,-0.9794,414.31,-1876.34,-1595.83
18640,-3.8727,-0.7751,-0.9153,-1163.82,-1345.21,1716.80
18650,-3.8728,-0.8130,-0.8539,789.31,-1142.15,982.54
18660,-3.8729,-0.8282,-0.8068,-54.44,-1282.90,1592.04
18670,-3.8730,-0.8134,-0.7761,1992.43,748.35,1545.29
18680,-3.8733,-0.7803,-0.7533,-101.32,670.23,-126.53
18690,-3.8734,-0.7440,-0.7386,133.06,-407.78,1217.22
18700,-3.8737,-0.7065,-0.7300,773.68,1467.29,1201.66
18710,-3.8739,-0.6757,-0.7106,1570.56,-1423.28,295.41
18720,-3.8741,-0.6646,-0.6659,1523.68,1061.16,-751.40
18730,-3.8740,-0.6704,-0.6051,-1054.44,-1220.09,1139.28
18740,-3.8739,-0.6774,-0.5400,-1804.44,-1438.84,1326.90
18750,-3.8739,-0.6688,-0.4811,1304.93,-1110.72,1655.15
18760,-3.8740,-0.6361,-0.4540,-1601.32,-1563.84,1155.27
18770,-3.8743,-0.5826,-0.4620,-1413.82,1904.97,-1688.42
18780,-3.8744,-0.5209,-0.4781,1429.93,873.84,61.58
18790,-3.8746,-0.4675,-0.4794,1336.18,-1188.54,-407.23
18800,-3.8748,-0.4313,-0.4575,164.31,-1344.67,-0.98
18810,-3.8748,-0.4065,-0.4187,804.93,1452.27,1030.33
18820,-3.8749,-0.3796,-0.3796,-23.19,-1578.98,-797.73
18830,-3.8749,-0.3407,-0.3507,-585.69,-578.92,-1125.79
18840,-3.8748,-0.2832,-0.3278,398.68,-875.67,77.39
18850,-3.8748,-0.2084,-0.3016,-241.94,-1938.11,-1563.17
18860,-3.8746,-0.1318,-0.2722,1336.18,1405.82,546.26
18870,-3.8746,-0.0670,-0.2432,-866.94,1171.57,921.33
18880,-3.8746,-0.0081,-0.2209,-570.07,890.44,46.39
18890,-3.8748,0.0562,-0.2161,-1023.19,-265.69,-1484.86
18900,-3.8748,0.1281,-0.2240,-804.44,343.81,952.70
18910,-3.8749,0.2048,-0.2373,398.68,-671.63,-172.36
18920,-3.8749,0.2843,-0.2643,-1773.19,1625.37,952.64
18930,-3.8439,0.3617,-0.3114,398.68,-1827.58,-203.67
18940,-3.8440,0.4259,-0.3673,-1695.07,141.30,-813.11
18950,-3.8440,0.4657,-0.4189,-1476.32,985.17,1061.77
18960,-3.8440,0.4871,-0.4606,-382.57,-1624.15,1842.90
18970,-3.8439,0.5049,-0.4790,-1648.19,1047.79,-1813.42
18980,-3.8749,0.5187,-0.4701,633.06,-1311.52,-1719.73
18990,-3.8746,0.5283,-0.4609,-1601.32,-170.90,-1797.85
19000,-3.8745,0.5487,-0.4822,-366.94,1000.98,999.08
19010,-3.8746,0.5857,-0.5414,-1757.57,-1717.71,-1829.10
19020,-3.8748,0.6255,-0.6293,-1023.19,-1295.78,1030.15
19030,-3.8749,0.6543,-0.7272,70.56,-545.65,-1532.53
19040,-3.8748,0.6707,-0.8116,-241.94,-1076.90,1467.29
19050,-3.8745,0.6794,-0.8708,1851.81,110.66,279.66
19060,-3.8744,0.6873,-0.9037,-1023.19,532.53,-1626.71
19070,-3.8743,0.7040,-0.9194,-23.19,329.41,1060.73
19080,-3.8743,0.7341,-0.9396,-1882.57,-1686.16,1529.42
19090,-3.8743,0.7742,-0.9780,1976.81,-264.22,-986.27
19100,-3.8741,0.8162,-1.0347,-898.19,-1186.04,-1658.20
19110,-3.8740,0.8483,-1.1025,476.81,-435.91,1622.92
19120,-3.8739,0.8607,-1.1750,586.18,-1123.35,466.55
19130,-3.8739,0.8503,-1.2515,-1820.07,1595.40,-189.82
19140,-3.8738,0.8215,-1.3256,851.81,-185.85,-877.50
19150,-3.8737,0.7753,-1.3931,1164.31,-1670.29,1169.25
19160,-3.8737,0.7140,-1.4542,-757.57,1688.96,-1565.25
19170,-3.8735,0.6482,-1.5125,-601.32,1860.72,528.38
19180,-3.8734,0.5795,-1.5707,-1023.19,-1592.53,825.13
19190,-3.8732,0.4994,-1.6071,-1820.07,-1045.78,668.76
19200,-3.8729,0.4113,-1.6066,-70.07,-1702.21,-800.05
19210,-3.8726,0.3213,-1.5831,648.68,-1639.83,1387.45
19220,-3.8723,0.2283,-1.5554,1133.06,1359.99,965.64
19230,-3.8722,0.1377,-1.5450,1226.81,906.68,1606.32
19240,-3.8721,0.0591,-1.5558,1633.06,-1765.38,715.70
19250,-3.8719,-0.0074,-1.5708,-429.44,859.44,293.82
19260,-3.8718,-0.0667,-1.5739,-945.07,-1046.94,1012.51
19270,-3.8718,-0.1152,-1.5660,-523.19,-1437.68,-143.74
19280,-3.8718,-0.1481,-1.5457,1258.06,-437.74,1356.26
19290,-3.8719,-0.1731,-1.4984,1054.93,-1828.43,1075.07
19300,-3.8719,-0.2144,-1.4243,1851.81,218.38,606.45
19310,-3.8719,-0.2844,-1.3387,570.56,1702.70,-455.93
19320,-3.8718,-0.3729,-1.2595,-398.19,655.64,1669.25
19330,-3.8718,-0.4562,-1.1974,273.68,-1203.86,1185.00
19340,-3.8719,-0.5096,-1.1541,1617.43,-1250.92,-518.01
19350,-3.8719,-0.5312,-1.1200,-1226.32,295.84,1278.99
19360,-3.8721,-0.5369,-1.0828,8.06,655.21,-1267.82
19370,-3.8722,-0.5397,-1.0448,-710.69,1420.78,-1955.26
19380,-3.8724,-0.5420,-1.0164,-1070.07,-1719.85,1201.05
19390,-3.8728,-0.5400,-0.9990,-1366.94,1920.78,-1892.64
19400,-3.8730,-0.5391,-0.9816,-1116.94,139.53,1419.92
19410,-3.8732,-0.5461,-0.9515,-991.94,-1626.10,951.17
19420,-3.8733,-0.5625,-0.9056,-1898.19,-1782.35,1326.23
19430,-3.8734,-0.5906,-0.8463,8.06,92.65,123.23
19440,-3.8737,-0.6289,-0.7810,414.31,-313.66,-204.83
19450,-3.8737,-0.6616,-0.7192,-491.94,45.59,-1126.53
19460,-3.8737,-0.6731,-0.6658,-679.44,-48.22,-48.34
19470,-3.8735,-0.6565,-0.6235,1851.81,-1204.47,358.03
19480,-3.8737,-0.6169,-0.5990,-23.19,201.78,1873.78
19490,-3.8739,-0.5725,-0.5972,1039.31,-657.47,-16.85
19500,-3.8740,-0.5297,-0.6135,-1273.19,-423.03,311.28
19510,-3.8743,-0.4841,-0.6373,211.18,1483.34,483.15
19520,-3.8745,-0.4412,-0.6504,-1960.69,-1563.48,-1688.78
19530,-3.8746,-0.4143,-0.6339,-460.69,764.71,-1.28
19540,-3.8745,-0.4114,-0.5867,-1023.19,-1125.85,1498.72
19550,-3.8745,-0.4236,-0.5192,-648.19,921.02,-516.78
19560,-3.8744,-0.4290,-0.4473,1789.31,1561.65,733.34
19570,-3.8744,-0.4066,-0.3876,1101.81,-1235.23,-1500.92
19580,-3.8744,-0.3530,-0.3479,-38.82,-1594.60,-78.92
19590,-3.8744,-0.2839,-0.3312,-1179.44,-516.36,-563.23
19600,-3.8744,-0.2120,-0.3304,-335.69,1624.39,1327.45
19610,-3.8745,-0.1378,-0.3313,867.43,1718.32,-1406.92
19620,-3.8746,-0.0637,-0.3260,-1632.57,1609.07,-766.30
19630,-3.8746,0.0017,-0.3108,-148.19,-1718.93,46.20
19640,-3.8748,0.0580,-0.2905,226.81,218.75,1952.51
19650,-3.8749,0.1139,-0.2776,-570.07,-1187.44,-203.74
19660,-3.8749,0.1748,-0.2792,-1413.82,468.93,1108.83
19670,-3.8750,0.2439,-0.2908,-1616.94,265.93,-656.80
19680,-3.8750,0.3163,-0.3038,-773.19,-1218.32,-656.86
19690,-3.8750,0.3743,-0.3162,492.43,1109.99,-63.11
19700,-3.8750,0.4093,-0.3335,-85.69,-468.08,-1094.42
19710,-3.8439,0.4335,-0.3661,398.68,1313.29,-266.30
19720,-3.8439,0.4589,-0.4109,-507.57,1141.42,124.27
19730,-3.8440,0.4856,-0.4517,-1257.57,-592.90,-1891.48
19740,-3.8440,0.5088,-0.4866,-1835.69,-1811.58,-1813.42
19750,-3.8440,0.5280,-0.5217,1133.06,1719.73,-1469.73
19760,-3.8440,0.5466,-0.5571,-413.82,1219.73,-1157.29
19770,-3.8439,0.5686,-0.5897,1976.81,688.54,1217.65
19780,-3.8750,0.5980,-0.6184,789.31,516.72,1217.59
19790,-3.8749,0.6310,-0.6376,554.93,844.91,-1813.72
19800,-3.8746,0.6576,-0.6393,773.68,-1608.15,1545.59
19810,-3.8744,0.6820,-0.6356,179.93,-1826.84,1936.22
19820,-3.8741,0.7178,-0.6545,-695.07,-1358.09,186.22
19830,-3.8741,0.7715,-0.7074,-116.94,220.09,-329.41
19840,-3.8740,0.8348,-0.7812,-1241.94,1454.59,717.35
19850,-3.8740,0.8917,-0.8689,-1132.57,1.59,357.85
19860,-3.8740,0.9250,-0.9674,-1851.32,782.96,967.04
19870,-3.8739,0.9261,-1.0536,-1585.69,173.65,841.86
19880,-3.8737,0.9028,-1.1033,-1445.07,1142.40,904.17
19890,-3.8734,0.8639,-1.1394,-429.44,-1217.04,-1845.95
19900,-3.8732,0.8086,-1.1913,-1413.82,-1842.10,685.24
19910,-3.8730,0.7455,-1.2582,-491.94,-482.85,-1986.76
19920,-3.8728,0.6860,-1.3427,-570.07,-1045.47,950.62
19930,-3.8726,0.6248,-1.4393,-179.44,141.91,1466.13
19940,-3.8723,0.5574,-1.5437,-23.19,-233.22,1887.76
19950,-3.8721,0.4822,-1.6519,-648.19,-1592.71,106.32
19960,-3.8719,0.3971,-1.7311,1726.81,563.42,1012.39
19970,-3.8718,0.2922,-1.7632,-1163.82,-1577.39,-1019.04
19980,-3.8716,0.1602,-1.7559,1414.31,-1686.95,1621.52
19990,-3.8715,0.0200,-1.7153,508.06,-749.69,-144.10
20000,-3.8712,-0.1028,-1.6556,-1429.44,437.50,1574.77
20010,-3.8711,-0.1941,-1.6029,-1148.19,93.51,1231.14
20020,-3.8711,-0.2457,-1.5751,-835.69,-1156.68,731.20
20030,-3.8712,-0.2594,-1.5660,554.93,-1594.24,325.01
20040,-3.8715,-0.2509,-1.5586,-1195.07,-438.05,1137.51
20050,-3.8718,-0.2374,-1.5394,-101.32,515.08,-768.68
20060,-3.8721,-0.2250,-1.5031,1617.43,-1031.74,653.20
20070,-3.8723,-0.2209,-1.4374,-788.82,-375.49,43.88
20080,-3.8726,-0.2487,-1.3257,-273.19,30.76,-80.93
20090,-3.8724,-0.3151,-1.1799,179.93,-1672.36,-1174.50
20100,-3.8722,-0.3929,-1.0383,-320.07,983.70,544.56
20110,-3.8722,-0.4518,-0.9305,1711.18,-891.42,-1752.08
20120,-3.8723,-0.4774,-0.8619,-1820.07,905.33,-845.58
20130,-3.8724,-0.4823,-0.8275,-1101.32,1686.52,873.29
20140,-3.8727,-0.4921,-0.8173,-1726.32,-1907.23,623.35
20150,-3.8729,-0.5083,-0.8175,1023.68,-594.73,1404.60
20160,-3.8730,-0.5167,-0.8207,-1054.44,-626.04,1013.98
20170,-3.8732,-0.5171,-0.8254,1867.43,-1032.29,1623.35
20180,-3.8733,-0.5167,-0.8303,1820.56,-1641.66,1310.85
20190,-3.8735,-0.5189,-0.8248,1867.43,1733.34,-157.90
20200,-3.8737,-0.5277,-0.8000,1586.18,-1563.54,-1829.77
20210,-3.8738,-0.5488,-0.7601,461.18,1608.34,1326.54
20220,-3.8739,-0.5870,-0.7106,1758.06,-1282.35,1748.47
20230,-3.8739,-0.6327,-0.6588,867.43,1061.34,779.85
20240,-3.8739,-0.6653,-0.6143,-976.32,-313.78,889.28
20250,-3.8740,-0.6733,-0.5825,-1148.19,1389.28,-173.10
20260,-3.8740,-0.6572,-0.5647,1820.56,1451.78,-1782.41
20270,-3.8741,-0.6309,-0.5623,-116.94,-266.97,-282.41
20280,-3.8741,-0.6063,-0.5740,-741.94,45.59,327.03
20290,-3.8743,-0.5752,-0.5858,-1601.32,-1454.35,1530.09
20300,-3.8744,-0.5247,-0.5862,-1616.94,1030.09,-32.41
20310,-3.8744,-0.4601,-0.5764,851.81,983.34,-1173.03
20320,-3.8744,-0.3954,-0.5536,1117.43,-1766.54,1358.22
20330,-3.8744,-0.3383,-0.5126,1398.68,1155.46,639.53
20340,-3.8744,-0.2903,-0.4572,711.18,-1594.42,-1704.16
20350,-3.8743,-0.2477,-0.3966,-1148.19,1499.39,1561.58
20360,-3.8741,-0.2001,-0.3389,304.93,1249.51,561.71
20370,-3.8741,-0.1410,-0.2925,-1601.32,640.20,-1219.42
20380,-3.8741,-0.0792,-0.2664,1961.18,-1422.18,-1125.61
20390,-3.8743,-0.0309,-0.2656,1867.43,1921.69,-1547.42
20400,-3.8745,0.0038,-0.2886,54.93,-1984.44,-1703.67
20410,-3.8748,0.0389,-0.3274,492.43,-937.50,-1469.36
20420,-3.8749,0.0800,-0.3662,992.43,-1906.19,1889.95
20430,-3.8749,0.1227,-0.3842,-1757.57,1125.12,1968.02
20440,-3.8748,0.1638,-0.3772,-288.82,-1171.69,1577.33
20450,-3.8746,0.2095,-0.3585,976.81,-280.94,639.83
20460,-3.8746,0.2690,-0.3405,-1179.44,-1890.26,1343.02
20470,-3.8748,0.3402,-0.3403,-1554.44,422.36,-141.30
20480,-3.8748,0.4109,-0.3698,-445.07,438.11,1358.70
20490,-3.8748,0.4711,-0.4176,601.81,672.67,764.89
20500,-3.8748,0.5190,-0.4639,304.93,-1452.21,-1532.10
20510,-3.8748,0.5593,-0.5054,-1554.44,625.98,-813.42
20520,-3.8748,0.5990,-0.5499,-398.19,-686.46,-1547.91
20530,-3.8748,0.6389,-0.6019,679.93,1610.53,1905.15
20540,-3.8748,0.6786,-0.6637,1789.31,-1045.65,-1891.85
20550,-3.8746,0.7214,-0.7222,-1132.57,-951.84,529.91
20560,-3.8745,0.7604,-0.7573,351.81,-436.10,1936.04
20570,-3.8743,0.7794,-0.7706,1336.18,-936.04,857.85
20580,-3.8740,0.7854,-0.7728,-226.32,1360.84,92.22
20590,-3.8739,0.7896,-0.7855,539.31,1079.65,-1173.40
20600,-3.8737,0.7889,-0.8376,1070.56,-545.35,670.29
20610,-3.8735,0.7870,-0.9275,992.43,782.78,1529.60
20620,-3.8734,0.7833,-1.0413,742.43,1282.78,295.04
20630,-3.8734,0.7700,-1.1605,273.68,-1279.72,669.80
20640,-3.8734,0.7448,-1.2537,-1429.44,-545.41,232.06
20650,-3.8734,0.7097,-1.3110,-663.82,-467.35,-1190.00
20660,-3.8732,0.6693,-1.3447,-1148.19,188.84,1794.31
20670,-3.8729,0.6311,-1.3776,1679.93,-123.72,716.06
20680,-3.8728,0.5951,-1.4249,789.31,-326.90,403.50
20690,-3.8728,0.5541,-1.4617,179.93,1610.53,-1112.18
20700,-3.8727,0.5040,-1.4657,-1070.07,907.29,-424.74
20710,-3.8723,0.4473,-1.4454,523.68,391.60,1012.76
20720,-3.8719,0.3910,-1.4171,1258.06,-1014.77,1169.01
20730,-3.8717,0.3419,-1.4043,-1945.07,-1389.89,-1034.06
20740,-3.8716,0.2998,-1.4205,-226.32,250.61,-284.00
20750,-3.8715,0.2572,-1.4445,-1616.94,-1827.58,294.07
20760,-3.8715,0.2014,-1.4530,929.93,-890.14,715.88
20770,-3.8715,0.1259,-1.4495,1789.31,-1984.01,-190.37
20780,-3.8713,0.0433,-1.4388,117.43,-1531.01,-424.74
20790,-3.8712,-0.0320,-1.4142,1554.93,-171.81,1403.38
20800,-3.8712,-0.0981,-1.3699,-85.69,-1000.12,1231.57
20810,-3.8713,-0.1600,-1.3146,-554.44,671.63,-1096.44
20820,-3.8715,-0.2273,-1.2653,-476.32,-250.37,1513.00
20830,-3.8717,-0.3170,-1.2290,-1085.69,-1937.99,1575.62
20840,-3.8719,-0.4398,-1.1965,-570.07,-1297.55,-1064.94
20850,-3.8719,-0.5757,-1.1632,-288.82,-1141.54,560.12
20860,-3.8721,-0.6841,-1.1329,-1679.44,-876.16,-142.94
20870,-3.8721,-0.7399,-1.0988,445.56,-1001.34,1560.24
20880,-3.8722,-0.7531,-1.0544,1304.93,-626.46,1029.05
20890,-3.8724,-0.7506,-1.0127,-382.57,1045.35,-1377.08
20900,-3.8727,-0.7505,-0.9808,-70.07,-1610.90,1997.99
20910,-3.8730,-0.7565,-0.9502,-54.44,-1532.78,-205.08
20920,-3.8733,-0.7653,-0.9120,-820.07,-1610.90,-705.02
20930,-3.8734,-0.7753,-0.8668,-1945.07,-720.28,1076.29
20940,-3.8737,-0.7831,-0.8239,773.68,1060.97,1982.67
20950,-3.8739,-0.7819,-0.7926,-226.32,-1439.09,592.10
20960,-3.8743,-0.7736,-0.7743,-70.07,-1439.09,-470.34
20970,-3.8744,-0.7711,-0.7593,992.43,904.72,1576.60
20980,-3.8745,-0.7834,-0.7347,1304.93,-1173.40,-704.65
20990,-3.8744,-0.7977,-0.6903,-273.19,1967.16,217.29
21000,-3.8744,-0.7880,-0.6322,1898.68,-345.34,1607.97
21010,-3.8744,-0.7446,-0.5778,-851.32,-907.84,748.72
21020,-3.8745,-0.6805,-0.5419,695.56,-1938.96,1826.97
21030,-3.8746,-0.6174,-0.5288,898.68,-1345.09,-1844.85
21040,-3.8748,-0.5748,-0.5244,976.81,326.90,-1126.04
21050,-3.8749,-0.5587,-0.5155,-1570.07,889.47,-844.79
21060,-3.8750,-0.5610,-0.4958,492.43,-1969.85,-938.54
21070,-3.8750,-0.5649,-0.4728,195.56,545.78,1983.40
21080,-3.8750,-0.5524,-0.4587,-304.44,-501.16,-172.85
21090,-3.8749,-0.5198,-0.4487,1304.93,1295.78,1842.83
21100,-3.8749,-0.4703,-0.4324,1476.81,-1422.91,-532.17
21110,-3.8748,-0.4082,-0.4095,-195.07,670.90,671.02
21120,-3.8748,-0.3435,-0.3834,-241.94,-407.10,1264.77
21130,-3.8748,-0.2795,-0.3586,39.31,-1063.17,749.21
21140,-3.8749,-0.2087,-0.3392,226.81,-1891.17,-1156.98
21150,-3.8749,-0.1274,-0.3214,1289.31,593.32,1764.95
21160,-3.8749,-0.0435,-0.3033,-304.44,-1125.31,-610.05
21170,-3.8748,0.0333,-0.2888,-1554.44,1187.38,1718.14
21180,-3.8748,0.0990,-0.2770,273.68,-968.69,1624.39
21190,-3.8749,0.1523,-0.2626,679.93,547.06,-922.42
21200,-3.8749,0.2000,-0.2522,-491.94,-1609.13,171.33
21210,-3.8750,0.2520,-0.2579,1601.81,-280.88,1936.95
21220,-3.8439,0.3042,-0.2834,258.06,-1015.14,-422.42
21230,-3.8439,0.3409,-0.3268,-1054.44,-280.70,608.76
21240,-3.8440,0.3535,-0.3776,-351.32,-1827.51,-1641.30
21250,-3.8440,0.3464,-0.4220,1258.06,-327.45,-1282.04
21260,-3.8439,0.3320,-0.4534,351.81,1985.05,1921.02
21270,-3.8750,0.3333,-0.4712,-1491.94,1969.36,-1172.79
21280,-3.8748,0.3641,-0.4875,-1335.69,-311.89,389.65
21290,-3.8746,0.4131,-0.5142,-1382.57,1594.42,-813.48
21300,-3.8744,0.4688,-0.5492,883.06,-1811.71,-407.29
21310,-3.8741,0.5253,-0.5909,8.06,1704.04,-766.72
21320,-3.8739,0.5697,-0.6401,-757.57,360.35,326.97
21330,-3.8739,0.5992,-0.6898,929.93,-1936.40,-423.16
21340,-3.8738,0.6206,-0.7462,711.18,-295.72,-1298.28
21350,-3.8737,0.6400,-0.8207,-554.44,485.53,-579.59
21360,-3.8734,0.6683,-0.8940,1929.93,-1045.65,-986.02
21370,-3.8732,0.7114,-0.9539,1554.93,1563.78,-658.02
21380,-3.8729,0.7534,-1.0087,-929.44,1907.59,388.73
21390,-3.8729,0.7780,-1.0667,445.56,-1107.91,-1736.39
21400,-3.8728,0.7922,-1.1438,-413.82,-529.79,669.74
21410,-3.8727,0.8065,-1.2365,1414.31,1595.28,1138.37
21420,-3.8726,0.8171,-1.3301,-757.57,1735.90,1716.31
21430,-3.8724,0.8158,-1.4270,601.81,1751.59,497.38
21440,-3.8724,0.7965,-1.5164,429.93,1345.34,-1971.56
21450,-3.8723,0.7538,-1.5929,1961.18,1907.78,997.01
21460,-3.8722,0.6836,-1.6547,492.43,110.84,-143.74
21470,-3.8718,0.5930,-1.6781,-491.94,204.41,-1175.11
21480,-3.8715,0.4901,-1.6584,-85.69,1204.22,-222.05
21490,-3.8711,0.3722,-1.6206,-1257.57,-280.33,-65.80
21500,-3.8707,0.2382,-1.5869,-351.32,563.17,1262.45
21510,-3.8706,0.0968,-1.5665,-1507.57,875.43,-424.99
21520,-3.8705,-0.0436,-1.5509,398.68,-515.44,-518.74
21530,-3.8704,-0.1772,-1.5243,-1570.07,1499.88,1981.32
21540,-3.8704,-0.2970,-1.4857,1320.56,905.88,-893.62
21550,-3.8704,-0.3917,-1.4496,1992.43,1843.14,356.45
21560,-3.8706,-0.4548,-1.4222,1867.43,-1532.04,669.01
21570,-3.8710,-0.4904,-1.3911,1789.31,1967.83,-1846.56
21580,-3.8713,-0.5106,-1.3486,1242.43,1952.15,-830.87
21590,-3.8717,-0.5256,-1.3047,-1351.32,-610.41,-346.44
21600,-3.8721,-0.5377,-1.2572,726.81,1014.59,-1127.56
21610,-3.8724,-0.5483,-1.1931,-820.07,-907.35,-1049.38
21620,-3.8727,-0.5663,-1.1139,1820.56,-704.22,-1127.38
21630,-3.8728,-0.6031,-1.0226,-476.32,1436.34,-1002.20
21640,-3.8728,-0.6573,-0.9235,-1195.07,1123.78,1169.86
21650,-3.8729,-0.7117,-0.8315,-132.57,1811.16,-1283.08
21660,-3.8730,-0.7432,-0.7573,914.31,1576.72,-345.40
21670,-3.8730,-0.7379,-0.7085,883.06,-923.34,1014.10
21680,-3.8732,-0.7014,-0.6923,1554.93,1326.66,1451.72
21690,-3.8734,-0.6519,-0.7054,-1773.19,-595.15,-1032.65
21700,-3.8737,-0.6021,-0.7267,570.56,1717.47,1623.60
21710,-3.8740,-0.5608,-0.7377,-1054.44,-1001.22,-267.09
21720,-3.8741,-0.5382,-0.7300,226.81,1592.65,279.79
21730,-3.8743,-0.5376,-0.6993,-882.57,-1422.97,514.16
21740,-3.8744,-0.5522,-0.6521,-804.44,-1501.10,-595.15
21750,-3.8744,-0.5718,-0.5986,1320.56,545.78,-813.78
21760,-3.8744,-0.5846,-0.5500,-1179.44,-610.53,-657.47
21770,-3.8744,-0.5779,-0.5105,1179.93,1608.22,-422.97
21780,-3.8744,-0.5511,-0.4845,-1960.69,-1329.28,1952.09
21790,-3.8745,-0.5148,-0.4775,1461.18,1998.90,-1797.85
21800,-3.8746,-0.4802,-0.4792,-1882.57,-1110.41,-797.85
21810,-3.8746,-0.4556,-0.4812,-1460.69,-1329.10,1999.02
21820,-3.8746,-0.4379,-0.4817,1695.56,-1579.04,342.77
21830,-3.8748,-0.4194,-0.4823,-38.82,-1641.54,1045.90
21840,-3.8749,-0.3936,-0.4873,-1679.44,-1719.60,1249.02
21850,-3.8749,-0.3580,-0.4852,1633.06,1639.83,264.65
21860,-3.8749,-0.3154,-0.4678,-1820.07,1905.52,-750.98
21870,-3.8748,-0.2664,-0.4376,-366.94,139.95,-1000.92
21880,-3.8746,-0.2073,-0.3972,1914.31,-0.55,1280.33
21890,-3.8746,-0.1400,-0.3479,1476.81,1171.45,-1250.79
21900,-3.8745,-0.0750,-0.3007,-1913.82,-515.93,358.64
21910,-3.8745,-0.0198,-0.2714,-1585.69,1531.07,343.14
21920,-3.8746,0.0321,-0.2616,1476.81,1281.19,905.70
21930,-3.8749,0.0875,-0.2710,117.43,-1484.31,-578.67
21940,-3.8750,0.1425,-0.3052,-788.82,1312.62,1968.20
21950,-3.8439,0.1920,-0.3567,-1757.57,937.74,1561.89
21960,-3.8440,0.2366,-0.4022,586.18,-1655.88,-813.23
21970,-3.8439,0.2828,-0.4255,-1710.69,516.05,624.21
21980,-3.8750,0.3372,-0.4259,211.18,1531.80,1967.90
21990,-3.8748,0.3997,-0.4150,-835.69,1484.99,389.77
22000,-3.8746,0.4644,-0.4058,-835.69,-1124.27,1342.90
22010,-3.8745,0.5206,-0.4042,-554.44,63.35,1139.83
22020,-3.8744,0.5637,-0.4183,-1351.32,266.60,921.08
22030,-3.8743,0.5977,-0.4539,164.31,-1545.78,733.52
22040,-3.8741,0.6294,-0.5001,508.06,1907.41,374.08
22050,-3.8740,0.6569,-0.5472,570.56,-14.40,77.09
22060,-3.8740,0.6779,-0.6006,86.18,1954.41,-1141.72
22070,-3.8740,0.6985,-0.6648,-1226.32,-873.72,-1141.85
22080,-3.8741,0.7213,-0.7401,1414.31,-1092.41,-423.22
22090,-3.8743,0.7491,-0.8126,336.18,1267.03,-345.21
22100,-3.8743,0.7870,-0.8693,-101.32,-14.22,-1298.52
22110,-3.8741,0.8268,-0.9229,742.43,735.90,1092.04
22120,-3.8741,0.8534,-0.9879,1836.18,1876.59,-111.21
22130,-3.8740,0.8667,-1.0592,1242.43,1548.52,669.92
22140,-3.8741,0.8737,-1.1309,-1054.44,423.52,-533.33
22150,-3.8741,0.8726,-1.1964,-163.82,-748.35,-1861.63
22160,-3.8741,0.8602,-1.2545,-304.44,-1138.98,-127.38
22170,-3.8739,0.8430,-1.3159,-1882.57,-576.48,-1111.88
22180,-3.8735,0.8260,-1.3806,-85.69,-435.91,1122.38
22190,-3.8733,0.7986,-1.4259,1742.43,-717.16,-1284.00
22200,-3.8730,0.7551,-1.4305,-1773.19,1485.90,-159.06
22210,-3.8727,0.6962,-1.4103,664.31,892.09,1747.19
22220,-3.8723,0.6208,-1.4025,1117.43,-514.28,450.32
22230,-3.8721,0.5299,-1.4268,-523.19,485.53,-393.37
22240,-3.8717,0.4302,-1.4664,-163.82,1375.98,-924.68
22250,-3.8713,0.3381,-1.4938,-929.44,297.67,-1252.87
22260,-3.8710,0.2546,-1.4969,-710.69,797.49,731.45
22270,-3.8708,0.1613,-1.4774,601.81,391.11,-1581.05
22280,-3.8707,0.0551,-1.4376,648.68,-1109.07,215.82
22290,-3.8707,-0.0575,-1.3873,-945.07,-15.56,481.51
22300,-3.8707,-0.1647,-1.3439,648.68,-1562.62,747.25
22310,-3.8707,-0.2419,-1.3073,-1070.07,-0.37,1450.44
22320,-3.8707,-0.2830,-1.2661,1039.31,687.01,1903.69
22330,-3.8707,-0.3011,-1.2202,-210.69,1952.51,481.87
22340,-3.8710,-0.3063,-1.1764,1461.18,-172.49,-908.69
22350,-3.8712,-0.3085,-1.1393,804.93,1436.89,1888.31
22360,-3.8716,-0.3289,-1.1129,523.68,-1813.11,-1080.38
22370,-3.8718,-0.3854,-1.0966,1914.31,1561.83,544.68
22380,-3.8721,-0.4635,-1.0834,-1320.07,-344.54,997.80
22390,-3.8722,-0.5278,-1.0770,679.93,1342.83,544.74
22400,-3.8723,-0.5576,-1.0765,445.56,-1844.79,-1892.76
22410,-3.8723,-0.5544,-1.0597,633.06,-1782.35,872.86
22420,-3.8723,-0.5381,-1.0105,1039.31,373.90,247.92
22430,-3.8723,-0.5319,-0.9348,-866.94,-1329.22,826.11
22440,-3.8723,-0.5503,-0.8499,-70.07,358.28,1763.79
22450,-3.8723,-0.5828,-0.7784,1570.56,-766.72,310.79
22460,-3.8726,-0.6091,-0.7335,1414.31,373.84,-970.28
22470,-3.8728,-0.6316,-0.7140,-1960.69,-1876.22,-1923.34
22480,-3.8730,-0.6559,-0.7233,-835.69,623.72,311.10
22490,-3.8733,-0.6770,-0.7467,54.93,-563.78,1639.16
22500,-3.8734,-0.6876,-0.7549,1351.81,436.16,1764.16
22510,-3.8735,-0.6892,-0.7356,-7.57,-610.78,1310.97
22520,-3.8738,-0.6898,-0.6924,-210.69,1857.97,-95.21
22530,-3.8739,-0.6915,-0.6400,-288.82,-610.78,-1438.90
22540,-3.8740,-0.6942,-0.5961,-507.57,-1907.65,1186.22
22550,-3.8741,-0.6938,-0.5677,-851.32,-282.65,842.53
22560,-3.8743,-0.6896,-0.5544,-804.44,-657.65,-1766.78
22570,-3.8743,-0.6870,-0.5432,-257.57,1045.47,608.28
22580,-3.8744,-0.6860,-0.5209,70.56,-1516.97,-891.72
22590,-3.8744,-0.6832,-0.4872,195.56,1342.41,1545.84
22600,-3.8745,-0.6818,-0.4482,554.93,1654.91,-688.48
22610,-3.8746,-0.6863,-0.4081,742.43,-1360.72,-500.92
22620,-3.8748,-0.6868,-0.3727,164.31,-220.09,-63.35
22630,-3.8748,-0.6677,-0.3553,101.81,311.16,1874.27
22640,-3.8748,-0.6293,-0.3647,-1460.69,-1470.09,61.77
22650,-3.8749,-0.5743,-0.3875,-538.82,1326.84,-1453.86
22660,-3.8749,-0.5001,-0.4027,-1507.57,-1579.28,1967.96
22670,-3.8749,-0.4143,-0.4077,-7.57,467.71,1280.46
22680,-3.8750,-0.3301,-0.4083,-1023.19,-172.73,-1235.23
22690,-3.8439,-0.2533,-0.4066,1758.06,-250.67,-1547.73
