timestamp_ms,ax,ay,az,gx,gy,gz
0,-3.8732,-0.7765,-0.8568,1711.18,-1032.59,1138.98
10,-3.8728,-0.9070,-0.7990,617.43,-1657.78,-1314.21
20,-3.8723,-1.0304,-0.7118,-85.69,1748.17,982.79
30,-3.8721,-1.1110,-0.6804,117.43,904.24,998.60
40,-3.8719,-1.1353,-0.7332,1804.93,919.68,-1798.22
50,-3.8717,-1.1099,-0.8473,-1304.44,-1830.38,607.91
60,-3.8715,-1.0602,-0.9596,1945.56,-439.70,1217.04
70,-3.8710,-1.0078,-1.0034,304.93,1185.42,1326.23
80,-3.8704,-0.9601,-1.0018,-991.94,-423.89,-1127.01
90,-3.8699,-0.9099,-1.0139,1117.43,-220.64,-1908.26
100,-3.8696,-0.8446,-1.0441,-460.69,-1767.46,451.11
110,-3.8695,-0.7664,-1.0859,-101.32,-1626.71,279.17
120,-3.8695,-0.6953,-1.1566,1914.31,1014.10,-439.64
130,-3.8695,-0.6481,-1.2507,-991.94,-32.65,-189.82
140,-3.8695,-0.6196,-1.3342,1054.93,-79.41,638.12
150,-3.8696,-0.5978,-1.3787,695.56,1233.15,841.13
160,-3.8696,-0.5677,-1.3765,-507.57,-454.35,481.63
170,-3.8696,-0.5227,-1.3422,-663.82,-173.03,-409.00
180,-3.8694,-0.4569,-1.2852,1101.81,217.71,263.00
190,-3.8694,-0.3575,-1.2278,1523.68,-485.29,-783.81
200,-3.8695,-0.2295,-1.2037,-1757.57,-1141.36,-299.32
210,-3.8698,-0.1075,-1.2030,-1366.94,1937.01,-236.76
220,-3.8699,-0.0098,-1.1935,-1757.57,-1968.99,-658.63
230,-3.8699,0.0717,-1.1691,-1241.94,-750.06,-1158.63
240,-3.8700,0.1354,-1.1399,1179.93,-1640.50,-596.07
250,-3.8702,0.1877,-1.1086,1336.18,-1906.01,-1861.63
260,-3.8706,0.2440,-1.0737,39.31,-1905.88,482.18
270,-3.8711,0.3154,-1.0200,-757.57,-1437.07,1544.74
280,-3.8715,0.3884,-0.9404,383.06,1438.11,1435.49
290,-3.8717,0.4427,-0.8638,1726.81,-374.27,-1501.89
300,-3.8718,0.4954,-0.8105,679.93,1438.35,482.67
310,-3.8722,0.5558,-0.7800,-585.69,250.92,-720.34
320,-3.8724,0.6218,-0.7721,-851.32,157.29,545.35
330,-3.8728,0.6958,-0.7853,-398.19,1173.03,435.97
340,-3.8733,0.7531,-0.8069,1070.56,-514.28,-329.71
350,-3.8735,0.7777,-0.8121,398.68,720.21,-1985.96
360,-3.8738,0.7762,-0.7889,-445.07,48.34,-157.84
370,-3.8739,0.7550,-0.7349,-632.57,-982.91,-1235.96
380,-3.8740,0.7280,-0.6493,648.68,1938.96,-1220.21
390,-3.8741,0.6998,-0.5605,1195.56,892.03,-141.91
400,-3.8743,0.6604,-0.4973,1586.18,251.34,-313.60
410,-3.8744,0.6033,-0.4606,539.31,345.03,1264.65
420,-3.8746,0.5293,-0.4531,1226.81,1048.03,999.08
430,-3.8749,0.4460,-0.4817,-241.94,-1999.02,202.21
440,-3.8439,0.3680,-0.5336,1101.81,-1655.40,1795.90
450,-3.8440,0.3085,-0.5726,-882.57,-296.20,-1532.35
460,-3.8440,0.2654,-0.5671,-507.57,-1296.33,1530.09
470,-3.8440,0.2231,-0.5251,1976.81,-593.26,1623.84
480,-3.8440,0.1698,-0.4620,570.56,781.68,155.21
490,-3.8441,0.1117,-0.3805,1742.43,859.68,-1250.92
500,-3.8441,0.0605,-0.3030,-1695.07,-702.94,-891.42
510,-3.8441,0.0179,-0.2605,-241.94,1218.81,-781.86
520,-3.8441,-0.0084,-0.2557,-1695.07,-1343.75,-844.30
530,-3.8440,-0.0052,-0.2598,-1070.07,-718.81,1968.20
540,-3.8750,0.0099,-0.2523,-663.82,-1234.44,561.95
550,-3.8749,0.0028,-0.2394,1273.68,-296.88,-594.30
560,-3.8748,-0.0322,-0.2281,367.43,1359.38,-1828.61
570,-3.8749,-0.0846,-0.2256,-116.94,-1187.62,-156.74
580,-3.8750,-0.1459,-0.2412,1179.93,-859.56,-984.86
590,-3.8439,-0.2042,-0.2754,1336.18,1140.32,-812.99
600,-3.8439,-0.2512,-0.3135,1867.43,765.20,-1766.17
610,-3.8750,-0.2877,-0.3267,-148.19,-109.92,1358.70
620,-3.8748,-0.3361,-0.2991,-820.07,-1797.49,-1297.55
630,-3.8744,-0.4031,-0.2571,992.43,1733.70,-1844.36
640,-3.8743,-0.4615,-0.2397,414.31,-891.42,-734.92
650,-3.8743,-0.4814,-0.2588,929.93,1327.21,-1391.11
660,-3.8741,-0.4832,-0.2998,-1616.94,-1110.35,843.20
670,-3.8739,-0.5297,-0.3628,-1835.69,1639.65,1296.26
680,-3.8735,-0.6315,-0.4331,211.18,1577.09,1249.27
690,-3.8732,-0.7372,-0.4828,-820.07,576.84,-1360.23
700,-3.8728,-0.8127,-0.5259,1648.68,-1782.71,374.02
710,-3.8727,-0.8513,-0.5657,-23.19,701.48,1420.84
720,-3.8724,-0.8662,-0.5837,-960.69,-392.33,-1735.53
730,-3.8719,-0.8906,-0.5911,1133.06,1295.17,1061.34
740,-3.8715,-0.9414,-0.5869,-1991.94,357.60,1342.59
750,-3.8710,-1.0070,-0.5586,-491.94,888.73,-1110.53
760,-3.8705,-1.0532,-0.5457,-882.57,513.61,1561.40
770,-3.8704,-1.0498,-0.6088,1195.56,-1830.20,-1297.97
780,-3.8704,-0.9957,-0.7561,1633.06,-1908.33,1295.65
790,-3.8704,-0.9301,-0.9271,554.93,-767.58,1357.85
800,-3.8702,-0.8960,-1.0598,961.18,1341.92,107.54
810,-3.8702,-0.8988,-1.1316,1320.56,357.60,-1236.45
820,-3.8701,-0.8999,-1.1530,961.18,-829.90,-1877.26
830,-3.8700,-0.8715,-1.1509,820.56,435.73,528.99
840,-3.8700,-0.8254,-1.1481,461.18,701.42,513.37
850,-3.8701,-0.7689,-1.1688,-1648.19,1060.85,-1002.26
860,-3.8702,-0.7041,-1.2207,1586.18,-1595.28,-861.69
870,-3.8704,-0.6360,-1.2886,1883.06,-235.78,1622.56
880,-3.8705,-0.5648,-1.3588,-1398.19,-923.16,591.19
890,-3.8706,-0.4902,-1.4165,-288.82,-1907.41,887.94
900,-3.8707,-0.4121,-1.4480,1258.06,-1297.85,-346.56
910,-3.8707,-0.3219,-1.4532,-741.94,-1328.98,-143.49
920,-3.8707,-0.2186,-1.4379,-1195.07,1999.33,1997.13
930,-3.8708,-0.1086,-1.4008,23.68,-31.68,-1143.49
940,-3.8708,-0.0035,-1.3510,-1898.19,718.51,481.63
950,-3.8710,0.0790,-1.3064,-445.07,-906.31,1309.81
960,-3.8712,0.1294,-1.2654,-1882.57,781.37,-65.06
970,-3.8713,0.1586,-1.2173,570.56,-1968.51,-315.00
980,-3.8713,0.1923,-1.1628,304.93,187.81,-736.76
990,-3.8712,0.2406,-1.1060,617.43,-843.38,1122.68
1000,-3.8712,0.2911,-1.0463,-1195.07,-1562.07,-1127.20
1010,-3.8712,0.3248,-0.9871,1273.68,-1921.33,716.67
1020,-3.8715,0.3429,-0.9330,1586.18,1656.86,716.80
1030,-3.8718,0.3503,-0.8975,-101.32,578.74,1482.54
1040,-3.8722,0.3497,-0.8972,851.81,1125.67,1685.73
1050,-3.8726,0.3562,-0.9231,773.68,1156.92,-1579.90
1060,-3.8728,0.3729,-0.9448,1601.81,1844.42,1076.29
1070,-3.8730,0.4070,-0.9463,-257.57,-936.83,-1298.77
1080,-3.8732,0.4524,-0.9258,101.81,-1124.21,-1751.89
1090,-3.8733,0.4924,-0.8829,1914.31,1500.85,-1251.83
1100,-3.8734,0.5179,-0.8320,-960.69,-1014.71,-454.90
1110,-3.8735,0.5264,-0.7914,-1695.07,1500.98,-939.15
1120,-3.8737,0.5328,-0.7574,-616.94,-1295.90,1357.79
1130,-3.8739,0.5348,-0.7322,211.18,-952.09,-1110.90
1140,-3.8740,0.5206,-0.6973,461.18,-1717.71,1529.79
1150,-3.8741,0.5011,-0.6292,-1351.32,-1249.02,-579.53
1160,-3.8741,0.4883,-0.5591,148.68,-530.27,1514.34
1170,-3.8744,0.4790,-0.5256,-1491.94,438.42,-63.60
1180,-3.8746,0.4705,-0.5262,1320.56,719.67,-563.54
1190,-3.8749,0.4587,-0.5406,226.81,641.54,1608.34
1200,-3.8439,0.4467,-0.5577,-1273.19,-1202.27,561.40
1210,-3.8442,0.4282,-0.5861,1179.93,610.23,-94.85
1220,-3.8445,0.3853,-0.6304,-1179.44,985.17,1233.22
1230,-3.8448,0.3298,-0.6664,1320.56,-686.77,-1157.53
1240,-3.8450,0.2878,-0.6514,-1773.19,-1296.26,-1516.97
1250,-3.8447,0.2577,-0.5590,851.81,625.55,-251.28
1260,-3.8440,0.2112,-0.4230,992.43,453.61,1733.28
1270,-3.8748,0.1200,-0.2906,-960.69,1859.74,-453.98
1280,-3.8746,-0.0043,-0.1665,-632.57,-1202.94,-1516.24
1290,-3.8748,-0.1128,-0.0551,-538.82,-1296.94,-1906.62
1300,-3.8749,-0.1824,0.0104,1570.56,968.51,-1859.50
1310,-3.8750,-0.2153,0.0087,664.31,1343.38,-656.25
1320,-3.8750,-0.2141,-0.0393,445.56,1124.57,-484.38
1330,-3.8749,-0.1932,-0.1056,601.81,-1016.05,-1031.37
1340,-3.8748,-0.1780,-0.1676,-726.32,-1500.43,-172.12
1350,-3.8744,-0.1920,-0.2029,1226.81,-1437.87,874.63
1360,-3.8741,-0.2380,-0.2130,-570.07,-1953.55,-1094.18
1370,-3.8740,-0.2875,-0.2278,1539.31,749.51,218.32
1380,-3.8743,-0.3309,-0.2732,-788.82,-1141.24,1030.76
1390,-3.8745,-0.3837,-0.3416,1648.68,1046.20,30.70
1400,-3.8748,-0.4485,-0.4113,-1101.32,296.08,1796.20
1410,-3.8748,-0.5151,-0.4666,-1398.19,-625.92,-1688.35
1420,-3.8745,-0.5840,-0.5016,-1929.44,295.84,874.08
1430,-3.8744,-0.6598,-0.5216,1258.06,-188.66,-1391.66
1440,-3.8743,-0.7404,-0.5201,-445.07,1248.66,-719.79
1450,-3.8740,-0.8334,-0.4951,1242.43,1436.04,-563.54
1460,-3.8738,-0.9288,-0.4719,1336.18,638.98,-1235.35
1470,-3.8738,-0.9995,-0.4846,1117.43,-392.46,-297.85
1480,-3.8738,-1.0358,-0.5444,70.56,1982.42,-1860.35
1490,-3.8737,-1.0521,-0.6433,-570.07,-1673.95,514.53
1500,-3.8734,-1.0507,-0.7554,1336.18,1669.80,-1345.03
1510,-3.8729,-1.0189,-0.8403,1523.68,-673.95,-1173.40
1520,-3.8724,-0.9713,-0.8795,1586.18,451.11,1951.48
1530,-3.8721,-0.9360,-0.8816,-320.07,-564.45,1560.73
1540,-3.8717,-0.9211,-0.8730,195.56,-829.96,1107.60
1550,-3.8713,-0.9169,-0.8904,-1898.19,263.79,1701.42
1560,-3.8710,-0.9163,-0.9547,-1351.32,-1954.96,310.73
1570,-3.8708,-0.9200,-1.0540,-1273.19,1810.67,1623.11
1580,-3.8708,-0.9312,-1.1576,-1757.57,1107.54,-1611.45
1590,-3.8707,-0.9464,-1.2330,820.56,-158.08,700.81
1600,-3.8705,-0.9507,-1.2717,-1132.57,-1814.39,950.68
1610,-3.8702,-0.9231,-1.3003,-1679.44,1232.48,810.00
1620,-3.8704,-0.8524,-1.3420,1851.81,1576.29,-33.81
1630,-3.8706,-0.7477,-1.4023,-1101.32,232.67,-893.25
1640,-3.8710,-0.6299,-1.4789,304.93,514.16,-362.12
1650,-3.8712,-0.5201,-1.5566,-616.94,-1282.53,1918.95
1660,-3.8713,-0.4277,-1.6106,1429.93,764.59,59.45
1670,-3.8715,-0.3490,-1.6320,1258.06,1858.52,1074.95
1680,-3.8716,-0.2778,-1.6395,-663.82,-875.73,1918.64
1690,-3.8717,-0.2096,-1.6434,445.56,-1844.30,1543.64
1700,-3.8718,-0.1360,-1.6368,1179.93,1655.82,1028.02
1710,-3.8719,-0.0551,-1.6129,-1398.19,-1500.31,74.89
1720,-3.8722,0.0239,-1.5548,961.18,1562.38,-456.30
1730,-3.8722,0.0992,-1.4594,-929.44,984.38,-1003.05
1740,-3.8721,0.1709,-1.3583,711.18,1203.31,1106.51
1750,-3.8721,0.2383,-1.2776,1883.06,-1859.07,1325.44
1760,-3.8722,0.3090,-1.2166,-1491.94,469.18,-705.63
1770,-3.8723,0.3818,-1.1738,-445.07,281.80,-252.38
1780,-3.8724,0.4486,-1.1533,883.06,1750.73,1919.56
1790,-3.8727,0.5126,-1.1350,1429.93,375.85,-596.01
1800,-3.8728,0.5605,-1.0916,1617.43,-1280.27,-330.38
1810,-3.8728,0.5887,-1.0126,-241.94,282.29,-299.01
1820,-3.8727,0.6115,-0.9077,-632.57,-1608.28,951.11
1830,-3.8728,0.6321,-0.8080,-1726.32,-186.34,-95.58
1840,-3.8729,0.6550,-0.7406,914.31,579.35,-1501.59
1850,-3.8732,0.6764,-0.7153,-148.19,1204.35,1154.79
1860,-3.8735,0.6805,-0.7224,-1413.82,438.78,-1517.03
1870,-3.8738,0.6644,-0.7375,-882.57,-467.47,1061.04
1880,-3.8740,0.6427,-0.7336,1054.93,1595.03,-1798.34
1890,-3.8741,0.6219,-0.7018,-1726.32,-1905.03,1576.66
1900,-3.8743,0.5941,-0.6429,-382.57,-1826.97,-1392.03
1910,-3.8743,0.5536,-0.5521,54.93,1704.28,-1641.91
1920,-3.8743,0.5023,-0.4409,-1132.57,1329.16,-1.10
1930,-3.8741,0.4435,-0.3301,304.93,-436.52,1327.21
1940,-3.8741,0.3885,-0.2335,773.68,1750.85,-953.80
1950,-3.8741,0.3337,-0.1744,1742.43,-1889.89,-781.74
1960,-3.8743,0.2780,-0.1680,-1273.19,1672.49,-1672.24
1970,-3.8745,0.2367,-0.2065,-413.82,-1499.51,1124.63
1980,-3.8749,0.2169,-0.2745,-1695.07,1562.93,-828.55
1990,-3.8439,0.2074,-0.3538,-226.32,859.74,-1313.05
2000,-3.8440,0.1954,-0.4148,-1445.07,-1280.88,764.89
2010,-3.8441,0.1768,-0.4292,1023.68,-1093.38,-1516.48
2020,-3.8441,0.1473,-0.4026,-1366.94,1062.81,-1391.48
2030,-3.8441,0.1034,-0.3669,-1132.57,468.99,-1625.79
2040,-3.8441,0.0457,-0.3341,1242.43,1031.43,1311.77
2050,-3.8441,-0.0209,-0.2959,1851.81,1234.44,233.70
2060,-3.8442,-0.0939,-0.2574,1336.18,-1859.44,-1344.36
2070,-3.8442,-0.1652,-0.2334,-7.57,-937.74,1140.08
2080,-3.8442,-0.2262,-0.2305,-1132.57,-1859.74,983.89
2090,-3.8442,-0.2736,-0.2358,-945.07,-1484.86,-1234.86
2100,-3.8441,-0.3184,-0.2257,992.43,1827.58,-141.11
2110,-3.8439,-0.3668,-0.1998,-741.94,-875.67,-1172.36
2120,-3.8750,-0.4071,-0.1870,1054.93,-1563.23,-1391.05
2130,-3.8750,-0.4385,-0.2042,-101.32,77.27,-1547.24
2140,-3.8750,-0.4714,-0.2439,-116.94,1874.08,-187.93
2150,-3.8749,-0.5251,-0.3008,-335.69,795.90,-156.74
2160,-3.8748,-0.5997,-0.3605,789.31,1514.59,-625.61
2170,-3.8745,-0.6721,-0.3843,-757.57,1873.78,1921.14
2180,-3.8741,-0.7302,-0.3722,1976.81,-1173.22,217.96
2190,-3.8740,-0.7688,-0.3872,-1460.69,373.54,-813.23
2200,-3.8739,-0.7921,-0.4698,1601.81,-1548.40,1952.33
2210,-3.8737,-0.8140,-0.5559,-1382.57,-126.59,1702.15
2220,-3.8732,-0.8569,-0.5812,-179.44,857.73,623.90
2230,-3.8728,-0.9216,-0.5845,-1679.44,1623.29,1014.47
2240,-3.8727,-0.9757,-0.6053,-1960.69,1201.29,-188.66
2250,-3.8723,-0.9977,-0.6405,-882.57,-1470.70,201.90
2260,-3.8719,-0.9874,-0.6877,304.93,-1970.70,1623.72
2270,-3.8715,-0.9587,-0.7173,1617.43,-17.58,-1267.03
2280,-3.8708,-0.9354,-0.7039,1289.31,201.23,1389.22
2290,-3.8704,-0.9453,-0.6654,273.68,1920.04,217.35
2300,-3.8701,-0.9813,-0.6162,-991.94,-1158.14,-1688.84
2310,-3.8699,-1.0000,-0.5884,-1601.32,1138.67,-1907.47
2320,-3.8698,-0.9763,-0.6508,8.06,701.17,967.59
2330,-3.8698,-0.9282,-0.8170,-960.69,716.80,858.09
2340,-3.8698,-0.8729,-1.0171,1195.56,-564.33,-48.52
2350,-3.8695,-0.8182,-1.1802,273.68,1826.42,1060.49
2360,-3.8695,-0.7797,-1.2677,-726.32,951.48,-580.44
2370,-3.8695,-0.7506,-1.2719,211.18,1748.47,-1721.25
2380,-3.8696,-0.7023,-1.2336,-70.07,1217.22,-1080.63
2390,-3.8698,-0.6155,-1.2144,-1882.57,-1892.03,-1518.07
2400,-3.8699,-0.5033,-1.2300,1226.81,576.90,1935.12
2410,-3.8700,-0.3872,-1.2668,-413.82,-1422.91,1575.68
2420,-3.8701,-0.2776,-1.3152,-1554.44,1858.58,1919.37
2430,-3.8701,-0.1670,-1.3615,476.81,-328.67,122.38
2440,-3.8702,-0.0425,-1.3990,-1366.94,1749.63,-49.56
2450,-3.8702,0.0942,-1.4282,-1429.44,937.38,-674.62
2460,-3.8702,0.2349,-1.4399,70.56,1187.68,1012.82
2470,-3.8704,0.3644,-1.4272,-1929.44,-312.07,715.88
2480,-3.8706,0.4686,-1.3910,-1351.32,1313.17,-1002.81
2490,-3.8707,0.5496,-1.3263,-7.57,1953.98,1575.38
2500,-3.8708,0.5964,-1.2325,-1648.19,-1764.59,403.63
2510,-3.8711,0.6189,-1.1227,351.81,-1764.47,-1611.82
2520,-3.8713,0.6282,-1.0195,-773.19,298.03,-970.95
2530,-3.8716,0.6241,-0.9338,414.31,1501.22,-1377.01
2540,-3.8718,0.6078,-0.8593,-101.32,469.91,-970.58
2550,-3.8719,0.5858,-0.8044,1804.93,-1983.22,982.67
2560,-3.8722,0.5651,-0.7800,-1007.57,1032.35,-970.34
2570,-3.8724,0.5419,-0.7831,336.18,157.35,-267.15
2580,-3.8727,0.5249,-0.8121,1367.43,-233.34,-814.09
2590,-3.8729,0.5170,-0.8572,-804.44,47.85,-1251.59
2600,-3.8732,0.5149,-0.9023,-1820.07,-1717.77,-564.21
2610,-3.8733,0.5072,-0.9260,1914.31,500.98,1607.60
2620,-3.8735,0.4852,-0.9161,929.93,1469.73,-126.83
2630,-3.8737,0.4492,-0.8788,-1882.57,-1264.71,1232.54
2640,-3.8739,0.4116,-0.8192,1508.06,-483.52,-17.40
2650,-3.8739,0.3771,-0.7478,695.56,-858.58,1888.98
2660,-3.8739,0.3445,-0.6786,273.68,281.98,1779.79
2670,-3.8739,0.3202,-0.6079,101.81,1141.30,-1720.09
2680,-3.8738,0.3109,-0.5194,992.43,-1811.89,217.53
2690,-3.8737,0.2993,-0.4133,-195.07,1516.17,92.71
2700,-3.8737,0.2632,-0.3146,-1679.44,-905.70,-500.85
2710,-3.8737,0.2141,-0.2506,1695.56,-265.14,-1016.30
2720,-3.8738,0.1730,-0.2280,-585.69,-77.76,1546.33
2730,-3.8740,0.1505,-0.2368,-1851.32,-1187.19,-1797.36
2740,-3.8743,0.1473,-0.2633,-726.32,1687.74,-78.61
2750,-3.8744,0.1537,-0.2977,-1132.57,-1702.88,-1484.92
2760,-3.8745,0.1575,-0.3306,-320.07,1890.87,811.89
2770,-3.8748,0.1501,-0.3511,164.31,1687.81,-1781.92
2780,-3.8750,0.1307,-0.3423,-773.19,-937.26,-31.98
2790,-3.8750,0.0974,-0.2930,742.43,187.74,1343.08
2800,-3.8750,0.0417,-0.2219,476.81,-1499.82,-750.61
2810,-3.8749,-0.0361,-0.1593,1351.81,-406.19,1358.89
2820,-3.8749,-0.1207,-0.1202,-616.94,-375.12,1202.76
2830,-3.8749,-0.1935,-0.1073,554.93,624.76,796.63
2840,-3.8749,-0.2458,-0.1152,-757.57,-1719.18,1234.13
2850,-3.8749,-0.2815,-0.1345,539.31,1265.14,1984.13
2860,-3.8749,-0.3138,-0.1589,-23.19,-1203.74,-1250.31
2870,-3.8749,-0.3401,-0.1945,-163.82,-328.80,-453.49
2880,-3.8748,-0.3623,-0.2365,476.81,-875.67,1374.57
2890,-3.8745,-0.3813,-0.2535,1633.06,1749.27,108.89
2900,-3.8743,-0.3969,-0.2438,-804.44,-438.29,1077.58
2910,-3.8741,-0.4142,-0.2327,1211.18,811.71,-875.49
2920,-3.8739,-0.4318,-0.2319,-1007.57,-1766.48,1468.26
2930,-3.8737,-0.4642,-0.2561,742.43,-1672.73,937.01
2940,-3.8735,-0.5209,-0.3074,586.18,-766.54,-813.05
2950,-3.8732,-0.5914,-0.3420,1336.18,670.84,1593.14
2960,-3.8727,-0.6753,-0.3292,304.93,233.22,-953.80
2970,-3.8721,-0.7720,-0.3049,1570.56,1873.66,139.95
2980,-3.8718,-0.8651,-0.3114,1195.56,982.85,-1734.99
2990,-3.8717,-0.9381,-0.3469,1273.68,154.54,1577.51
3000,-3.8716,-0.9943,-0.3892,-70.07,-392.52,733.64
3010,-3.8715,-1.0525,-0.4384,742.43,-1798.83,-63.29
3020,-3.8712,-1.1108,-0.5150,1289.31,-95.83,-875.92
3030,-3.8711,-1.1476,-0.6252,1820.56,-1908.45,-282.29
3040,-3.8708,-1.1377,-0.7469,1117.43,-17.88,811.22
3050,-3.8706,-1.0857,-0.8513,-1616.94,403.99,279.79
3060,-3.8704,-1.0151,-0.9127,1039.31,-955.26,1763.92
3070,-3.8700,-0.9291,-0.9210,-1929.44,-814.51,123.17
3080,-3.8698,-0.8225,-0.8921,1086.18,-1876.83,76.29
3090,-3.8696,-0.7107,-0.8627,-1273.19,1826.48,482.60
3100,-3.8696,-0.6102,-0.8618,1039.31,1592.35,-361.08
3110,-3.8694,-0.5347,-0.8854,1898.68,1701.90,29.54
3120,-3.8693,-0.4967,-0.9277,-429.44,-1313.60,607.60
3130,-3.8693,-0.4875,-0.9791,429.93,1264.65,1748.17
3140,-3.8693,-0.4813,-1.0222,1601.81,-1313.48,466.80
3150,-3.8694,-0.4561,-1.0549,-1601.32,1170.90,-408.26
3160,-3.8694,-0.4034,-1.0756,1633.06,983.46,-1564.58
3170,-3.8694,-0.3213,-1.0861,367.43,-1657.04,404.11
3180,-3.8695,-0.2134,-1.0962,-1116.94,999.33,-1892.76
3190,-3.8696,-0.0876,-1.1118,695.56,-297.30,-1205.32
3200,-3.8698,0.0483,-1.1370,789.31,1702.94,-1892.82
3210,-3.8699,0.1888,-1.1764,-1804.44,-1531.19,763.37
3220,-3.8701,0.3248,-1.2269,179.93,1422.24,1810.18
3230,-3.8704,0.4397,-1.2767,1586.18,-1046.26,544.43
3240,-3.8707,0.5344,-1.3064,289.31,578.98,-1580.63
3250,-3.8710,0.5907,-1.3160,414.31,782.29,184.94
3260,-3.8713,0.6036,-1.3253,-382.57,-452.03,-1908.87
3270,-3.8716,0.6024,-1.3323,1273.68,-1639.47,950.50
3280,-3.8718,0.5916,-1.3291,1117.43,1469.91,1325.50
3290,-3.8721,0.5759,-1.3142,-273.19,1876.10,-1846.37
3300,-3.8723,0.5586,-1.2855,1726.81,-217.65,1809.88
3310,-3.8726,0.5475,-1.2296,-491.94,-545.84,-1955.69
3320,-3.8727,0.5503,-1.1334,-1913.82,-1389.59,1622.56
3330,-3.8727,0.5553,-1.0133,-1554.44,-1077.09,575.87
3340,-3.8728,0.5531,-0.9084,-913.82,-1702.09,-455.14
3350,-3.8729,0.5524,-0.8525,-1195.07,-280.21,-908.08
3360,-3.8732,0.5626,-0.8452,-1288.82,-1123.96,-767.33
3370,-3.8734,0.5675,-0.8622,23.68,-186.40,-1470.46
3380,-3.8737,0.5476,-0.8839,648.68,1641.72,-892.33
3390,-3.8738,0.5077,-0.9003,-1898.19,-1139.59,560.73
3400,-3.8740,0.4673,-0.8995,992.43,766.60,1748.23
3410,-3.8743,0.4397,-0.8685,-179.44,860.23,-1689.27
3420,-3.8744,0.4178,-0.7980,289.31,828.98,1013.92
3430,-3.8744,0.3938,-0.7065,1492.43,1860.17,482.79
3440,-3.8744,0.3624,-0.6172,-1585.69,1563.23,1467.35
3450,-3.8744,0.3215,-0.5406,-1601.32,1000.67,264.40
3460,-3.8745,0.2804,-0.4963,1164.31,-1202.51,202.03
3470,-3.8748,0.2529,-0.4836,-101.32,469.24,-1500.98
3480,-3.8749,0.2421,-0.4760,383.06,-1905.76,1858.40
3490,-3.8750,0.2389,-0.4562,-1007.57,-921.45,-735.35
3500,-3.8750,0.2354,-0.4171,-1413.82,1609.80,-1688.42
3510,-3.8750,0.2283,-0.3619,-1866.94,-1390.20,-1328.98
3520,-3.8750,0.2125,-0.3081,1226.81,1672.30,-1719.48
3530,-3.8439,0.1869,-0.2726,-788.82,562.87,-609.99
3540,-3.8440,0.1560,-0.2576,-70.07,1109.68,-922.42
3550,-3.8441,0.1213,-0.2577,-23.19,-968.51,-1047.42
3560,-3.8442,0.0839,-0.2661,-460.69,-984.19,-188.05
3570,-3.8442,0.0459,-0.2665,-1257.57,1937.62,-469.30
3580,-3.8441,0.0048,-0.2460,1883.06,1890.69,-1328.67
3590,-3.8440,-0.0446,-0.2056,617.43,515.62,-906.74
3600,-3.8439,-0.0994,-0.1495,-1695.07,1703.00,-187.93
3610,-3.8749,-0.1583,-0.0928,-710.69,874.76,343.44
3620,-3.8749,-0.2200,-0.0535,-257.57,140.26,-890.81
3630,-3.8748,-0.2722,-0.0425,-148.19,1171.39,234.25
3640,-3.8748,-0.3109,-0.0652,1164.31,-1422.42,1296.75
3650,-3.8748,-0.3530,-0.1169,211.18,-328.74,-1359.56
3660,-3.8748,-0.3992,-0.1755,-1179.44,1046.14,-718.99
3670,-3.8748,-0.4456,-0.2136,914.31,1546.08,-109.74
3680,-3.8746,-0.4918,-0.2344,-1023.19,670.96,1546.45
3690,-3.8746,-0.5352,-0.2734,1054.93,-1985.35,-1078.61
3700,-3.8745,-0.5687,-0.3248,-491.94,1014.53,1327.58
3710,-3.8743,-0.5983,-0.3441,-788.82,-1563.66,139.95
3720,-3.8740,-0.6509,-0.3214,-570.07,-32.47,-1094.48
3730,-3.8737,-0.7289,-0.2795,695.56,-1126.28,624.33
3740,-3.8735,-0.8123,-0.2454,-1288.82,232.91,-1078.67
3750,-3.8733,-0.8842,-0.2347,39.31,607.79,-1078.61
3760,-3.8729,-0.9524,-0.2456,-1163.82,1966.98,-891.11
3770,-3.8724,-1.0160,-0.2507,-1898.19,576.23,-1578.61
3780,-3.8719,-1.0535,-0.2372,1961.18,-80.14,-266.17
3790,-3.8715,-1.0405,-0.2367,1164.31,1654.17,1858.89
3800,-3.8712,-0.9828,-0.2843,-1179.44,1716.67,1421.39
3810,-3.8710,-0.9062,-0.3542,-1788.82,-376.95,921.26
3820,-3.8706,-0.8308,-0.3997,8.06,-1329.90,-1469.48
3830,-3.8700,-0.7739,-0.4124,1664.31,857.73,1749.21
3840,-3.8694,-0.7383,-0.4135,945.56,-767.15,-1188.35
3850,-3.8689,-0.7124,-0.4250,1508.06,-907.71,-188.35
3860,-3.8685,-0.6886,-0.4458,820.56,1607.97,-516.48
3870,-3.8683,-0.6752,-0.4866,-132.57,-1048.28,-32.17
3880,-3.8682,-0.6740,-0.5778,1586.18,1733.03,-875.98
3890,-3.8683,-0.6715,-0.7192,1742.43,-1938.84,-141.78
3900,-3.8684,-0.6461,-0.8809,-1945.07,-48.22,-1595.21
3910,-3.8685,-0.5898,-1.0256,1304.93,-735.66,-970.52
3920,-3.8685,-0.5271,-1.1290,508.06,733.22,1482.36
3930,-3.8687,-0.4768,-1.1921,539.31,-501.04,-1111.63
3940,-3.8688,-0.4312,-1.2313,-1023.19,-579.10,-1564.88
3950,-3.8689,-0.3685,-1.2577,820.56,-1594.60,1106.93
3960,-3.8691,-0.2794,-1.2814,836.18,-969.48,-643.13
3970,-3.8693,-0.1785,-1.3169,242.43,-0.55,1028.69
3980,-3.8695,-0.0944,-1.3647,1164.31,-547.24,-1862.00
3990,-3.8698,-0.0452,-1.4067,-70.07,1327.88,-908.94
4000,-3.8699,-0.0231,-1.4280,-1773.19,-47.00,434.69
4010,-3.8701,-0.0061,-1.4198,1054.93,1234.31,1872.19
4020,-3.8704,0.0220,-1.3774,-773.19,-1718.81,-1205.93
4030,-3.8706,0.0577,-1.3087,-1179.44,-312.50,-1034.00
4040,-3.8708,0.0945,-1.2258,-601.32,484.44,-1471.31
4050,-3.8711,0.1305,-1.1377,101.81,-906.07,-611.82
4060,-3.8712,0.1613,-1.0574,711.18,-1624.76,-1096.01
4070,-3.8713,0.1838,-1.0005,648.68,656.56,-970.83
4080,-3.8715,0.2067,-0.9719,-460.69,-62.19,1404.24
4090,-3.8717,0.2391,-0.9620,-1538.82,-405.88,-1814.45
4100,-3.8719,0.2808,-0.9558,-1382.57,859.80,-923.77
4110,-3.8721,0.3159,-0.9442,-54.44,1656.74,888.73
4120,-3.8723,0.3422,-0.9178,445.56,-858.76,-611.27
4130,-3.8724,0.3641,-0.8745,-195.07,-1483.76,1810.67
4140,-3.8727,0.3676,-0.8303,-1382.57,63.17,-861.08
4150,-3.8729,0.3593,-0.7957,-945.07,1719.42,-564.15
4160,-3.8732,0.3464,-0.7683,1992.43,-1843.08,-485.96
4170,-3.8733,0.3323,-0.7345,351.81,1656.92,1889.10
4180,-3.8733,0.3184,-0.6749,-1460.69,1984.99,123.54
4190,-3.8734,0.2900,-0.6005,758.06,1609.99,-766.97
4200,-3.8734,0.2535,-0.5354,1133.06,-858.83,373.78
4210,-3.8737,0.2227,-0.4838,461.18,-530.76,-266.72
4220,-3.8738,0.2008,-0.4409,508.06,-1921.45,-516.60
4230,-3.8738,0.1816,-0.4104,1711.18,-437.13,45.96
4240,-3.8740,0.1587,-0.3977,-741.94,-530.94,-735.23
4250,-3.8741,0.1405,-0.3926,320.56,1094.06,514.83
4260,-3.8744,0.1346,-0.3785,1992.43,1750.24,1905.46
4270,-3.8745,0.1351,-0.3574,1242.43,-452.88,983.58
4280,-3.8746,0.1338,-0.3368,1304.93,-1749.76,1249.27
4290,-3.8748,0.1305,-0.3037,1133.06,890.87,-1625.67
4300,-3.8748,0.1244,-0.2520,711.18,1125.24,890.01
4310,-3.8749,0.1025,-0.2125,-70.07,-249.82,-859.92
4320,-3.8750,0.0624,-0.2054,1133.06,797.06,-797.30
4330,-3.8439,0.0192,-0.2090,-7.57,1703.19,-125.43
4340,-3.8439,-0.0298,-0.2102,-1538.82,1250.00,-766.05
4350,-3.8439,-0.0962,-0.2153,195.56,1109.31,-1250.43
4360,-3.8439,-0.1678,-0.2175,-304.44,452.88,1952.70
4370,-3.8439,-0.2280,-0.2137,-1476.32,171.51,-1594.18
4380,-3.8439,-0.2767,-0.2207,-1179.44,655.76,-672.30
4390,-3.8750,-0.3176,-0.2347,586.18,-234.92,1249.51
4400,-3.8749,-0.3390,-0.2354,-648.19,1968.08,-1344.24
4410,-3.8746,-0.3562,-0.2367,617.43,1889.95,874.51
4420,-3.8746,-0.3818,-0.2660,-1585.69,1718.02,-375.49
4430,-3.8746,-0.3970,-0.3156,-866.94,1967.96,-672.42
4440,-3.8746,-0.4103,-0.3676,1195.56,-375.79,-1328.80
4450,-3.8746,-0.4447,-0.4193,-507.57,967.90,-94.48
4460,-3.8744,-0.4906,-0.4468,-913.82,-1657.17,1171.02
4470,-3.8740,-0.5344,-0.4258,1211.18,-1172.85,624.08
4480,-3.8737,-0.5878,-0.3735,-398.19,1514.53,-1703.98
4490,-3.8734,-0.6527,-0.3243,773.68,201.97,-141.36
4500,-3.8732,-0.7236,-0.3013,461.18,-1501.28,1764.95
4510,-3.8730,-0.8073,-0.3210,-616.94,1451.66,-859.99
4520,-3.8728,-0.8979,-0.3931,679.93,-1079.71,436.83
4530,-3.8727,-0.9674,-0.4889,1070.56,1701.35,1905.46
4540,-3.8724,-1.0032,-0.5608,179.93,1435.61,842.77
4550,-3.8722,-1.0153,-0.5939,-398.19,232.36,-1938.60
4560,-3.8718,-1.0184,-0.5981,-1945.07,-2.01,1780.03
4570,-3.8715,-1.0137,-0.5826,1648.68,-548.89,-1266.85
4580,-3.8711,-0.9952,-0.5640,-1741.94,1435.49,-1032.41
4590,-3.8707,-0.9592,-0.5664,617.43,-173.83,-1516.78
4600,-3.8704,-0.9111,-0.6058,1226.81,-486.27,1686.34
4610,-3.8700,-0.8644,-0.6737,-616.94,-1533.08,1358.15
4620,-3.8696,-0.8274,-0.7537,1367.43,1779.54,1092.41
4630,-3.8694,-0.8025,-0.8475,-1898.19,-454.77,-1923.40
4640,-3.8693,-0.7893,-0.9562,1289.31,-470.34,-1548.58
4650,-3.8693,-0.7789,-1.0640,-1023.19,1623.41,-1345.64
4660,-3.8693,-0.7556,-1.1521,304.93,-173.40,794.74
4670,-3.8694,-0.7186,-1.2009,-710.69,545.35,-642.88
4680,-3.8693,-0.6665,-1.1860,23.68,-1704.53,872.62
4690,-3.8691,-0.5935,-1.1162,-1304.44,201.78,1310.18
4700,-3.8690,-0.5024,-1.0419,39.31,1139.47,1029.05
4710,-3.8690,-0.4038,-0.9878,-304.44,-1344.79,1732.30
4720,-3.8691,-0.3145,-0.9565,320.56,1577.33,-33.20
4730,-3.8693,-0.2477,-0.9636,-241.94,1577.45,-158.14
4740,-3.8694,-0.1947,-1.0096,304.93,671.39,1373.11
4750,-3.8696,-0.1392,-1.0688,-913.82,-1219.18,1951.11
4760,-3.8699,-0.0923,-1.1128,-1804.44,-797.18,1935.36
4770,-3.8702,-0.0679,-1.1304,195.56,1577.94,-2.20
4780,-3.8706,-0.0536,-1.1316,-679.44,-672.06,-346.01
4790,-3.8710,-0.0270,-1.1222,1148.68,-828.25,-736.63
4800,-3.8712,0.0092,-1.0886,554.93,374.94,1482.18
4810,-3.8715,0.0298,-1.0298,1179.93,656.25,1388.49
4820,-3.8717,0.0219,-0.9584,-179.44,187.50,794.86
4830,-3.8721,-0.0103,-0.8986,-1195.07,1328.12,-736.27
4840,-3.8723,-0.0542,-0.8785,-1304.44,999.94,1420.10
4850,-3.8726,-0.0883,-0.9065,1070.56,-437.62,904.48
4860,-3.8727,-0.0858,-0.9585,711.18,-15.81,279.42
4870,-3.8727,-0.0426,-1.0023,1023.68,1327.94,982.48
4880,-3.8726,0.0300,-1.0165,-1445.07,-281.37,1435.49
4890,-3.8724,0.1187,-0.9838,-148.19,1890.62,-252.01
4900,-3.8722,0.2102,-0.9056,-804.44,-1921.69,-845.70
4910,-3.8719,0.3010,-0.8018,-1085.69,78.49,1810.73
4920,-3.8718,0.3854,-0.7201,-1460.69,1375.55,-1907.84
4930,-3.8717,0.4530,-0.6835,1336.18,-171.14,279.79
4940,-3.8718,0.5046,-0.6731,1992.43,516.48,-954.47
4950,-3.8721,0.5328,-0.6930,601.81,1844.73,-985.72
4960,-3.8724,0.5140,-0.7535,211.18,-702.09,-1970.15
4970,-3.8728,0.4753,-0.8214,1804.93,-452.15,-735.90
4980,-3.8729,0.4393,-0.8566,851.81,-1139.71,1357.73
4990,-3.8730,0.3927,-0.8511,242.43,-1639.77,-876.71
5000,-3.8730,0.3517,-0.8033,-1726.32,-936.77,1576.42
5010,-3.8732,0.3165,-0.7178,1023.68,1172.55,1420.29
5020,-3.8733,0.2822,-0.6158,523.68,125.61,529.85
5030,-3.8734,0.2509,-0.5253,133.06,1172.42,436.28
5040,-3.8735,0.2053,-0.4642,117.43,766.11,280.21
5050,-3.8738,0.1453,-0.4319,-1710.69,578.49,-657.17
5060,-3.8739,0.0852,-0.4170,-1398.19,718.99,1030.40
5070,-3.8741,0.0416,-0.4099,-1085.69,-1374.88,-500.85
5080,-3.8741,0.0238,-0.4044,1336.18,-468.69,639.77
5090,-3.8743,0.0161,-0.4041,-945.07,234.38,1936.71
5100,-3.8744,0.0044,-0.4060,-1929.44,281.25,1311.71
5110,-3.8745,-0.0088,-0.3979,570.56,31.25,780.46
5120,-3.8746,-0.0258,-0.3839,-1116.94,1078.06,1983.58
5130,-3.8746,-0.0514,-0.3705,711.18,-1125.06,514.83
5140,-3.8746,-0.0828,-0.3510,1429.93,593.63,827.39
5150,-3.8746,-0.1213,-0.3252,1414.31,-906.43,-1766.36
5160,-3.8746,-0.1664,-0.2998,476.81,-1609.62,-1328.80
5170,-3.8746,-0.2098,-0.2657,-1288.82,1640.26,-1609.99
5180,-3.8745,-0.2529,-0.2100,1148.68,1999.57,452.58
5190,-3.8744,-0.3051,-0.1431,-366.94,1140.08,1046.45
5200,-3.8743,-0.3745,-0.0902,961.18,1702.51,484.07
5210,-3.8743,-0.4495,-0.0687,70.56,468.02,796.69
5220,-3.8744,-0.5096,-0.0872,-1523.19,-782.17,-1250.18
5230,-3.8744,-0.5499,-0.1382,-1226.32,858.34,1374.82
5240,-3.8743,-0.5721,-0.1897,1617.43,-1672.97,1030.94
5250,-3.8740,-0.5814,-0.2286,-1226.32,-266.78,358.95
5260,-3.8739,-0.5852,-0.2654,1586.18,-1251.16,1812.01
5270,-3.8739,-0.5892,-0.2999,1101.81,-1954.28,-94.30
5280,-3.8738,-0.6082,-0.3207,586.18,1623.84,515.01
5290,-3.8738,-0.6548,-0.3169,-1835.69,-1032.47,1718.08
5300,-3.8738,-0.7279,-0.3060,195.56,-548.16,-547.55
5310,-3.8737,-0.8127,-0.3181,-1163.82,842.29,390.01
5320,-3.8737,-0.8892,-0.3655,-23.19,-704.77,1358.70
5330,-3.8735,-0.9401,-0.4329,-1804.44,1232.60,655.52
5340,-3.8734,-0.9531,-0.4939,-320.07,607.48,1889.77
5350,-3.8733,-0.9408,-0.5304,-1991.94,794.98,-1875.98
5360,-3.8732,-0.9280,-0.5342,-413.82,123.11,702.09
5370,-3.8732,-0.9330,-0.5078,1226.81,-361.21,-329.22
5380,-3.8729,-0.9536,-0.4689,586.18,-986.21,248.96
5390,-3.8728,-0.9769,-0.4495,1945.56,-1.89,-1625.98
5400,-3.8726,-0.9821,-0.4690,-1038.82,-1517.58,-1766.54
5410,-3.8723,-0.9563,-0.5161,-1695.07,-17.58,-641.60
5420,-3.8721,-0.9061,-0.5732,1601.81,1951.23,-204.16
5430,-3.8718,-0.8364,-0.6310,23.68,-1361.15,-1438.66
5440,-3.8716,-0.7620,-0.6737,945.56,-751.65,-1595.03
5450,-3.8713,-0.7108,-0.7037,-1523.19,1779.72,-188.84
5460,-3.8711,-0.7067,-0.7301,1023.68,1936.10,-95.15
5470,-3.8708,-0.7540,-0.7468,1554.93,-1438.90,936.04
5480,-3.8707,-0.8293,-0.7522,-507.57,420.35,248.54
5490,-3.8706,-0.8933,-0.7540,1851.81,-267.27,1764.10
5500,-3.8704,-0.9249,-0.7716,1664.31,-501.77,998.47
5510,-3.8702,-0.9142,-0.8188,1617.43,1248.17,-1220.28
5520,-3.8701,-0.8650,-0.8898,-1007.57,-798.71,1951.48
5530,-3.8701,-0.8020,-0.9716,1289.31,-1876.71,1982.60
5540,-3.8701,-0.7336,-1.0515,1351.81,-345.34,873.05
5550,-3.8701,-0.6564,-1.1199,-1898.19,1420.41,794.80
5560,-3.8701,-0.5648,-1.1699,-7.57,670.53,-1814.70
5570,-3.8700,-0.4663,-1.1858,-288.82,-1735.53,-971.07
5580,-3.8698,-0.3815,-1.1617,320.56,233.46,-736.69
5590,-3.8695,-0.3145,-1.1102,-820.07,-688.29,-1971.07
5600,-3.8694,-0.2435,-1.0444,-241.94,1905.58,1747.80
5610,-3.8693,-0.1536,-0.9805,836.18,-1672.36,935.42
5620,-3.8693,-0.0592,-0.9354,351.81,-1484.68,-830.08
5630,-3.8693,0.0217,-0.9130,429.93,281.13,-1423.71
5640,-3.8694,0.0917,-0.9093,-1210.69,-859.38,-1392.46
5650,-3.8696,0.1565,-0.9286,-257.57,-390.50,-1314.33
5660,-3.8700,0.2089,-0.9697,39.31,1140.93,-954.96
5670,-3.8704,0.2448,-1.0203,-1257.57,-124.63,-1814.45
5680,-3.8707,0.2679,-1.0658,-663.82,1406.68,-1783.26
5690,-3.8711,0.2798,-1.0879,-1695.07,-421.39,-752.14
5700,-3.8713,0.2697,-1.0792,-179.44,750.49,654.11
5710,-3.8717,0.2446,-1.0479,-1476.32,1859.86,-1095.89
5720,-3.8719,0.2321,-1.0067,-679.44,1875.43,-1548.95
5730,-3.8722,0.2302,-0.9650,1711.18,-858.95,-314.51
5740,-3.8723,0.2266,-0.9222,1476.81,484.80,-1314.39
5750,-3.8724,0.2146,-0.8842,1008.06,1953.55,1576.29
5760,-3.8727,0.1844,-0.8606,-523.19,-1171.51,-986.15
5770,-3.8729,0.1429,-0.8453,-382.57,1844.06,-345.46
5780,-3.8730,0.1030,-0.8264,-1695.07,-202.88,217.04
5790,-3.8733,0.0758,-0.7982,1195.56,-1781.07,-1798.52
5800,-3.8733,0.0725,-0.7471,1711.18,1828.25,60.91
5810,-3.8733,0.0859,-0.6693,1289.31,375.12,-1829.59
5820,-3.8732,0.0942,-0.5903,-991.94,-1671.75,733.03
5830,-3.8733,0.0851,-0.5388,70.56,437.68,-594.91
5840,-3.8734,0.0631,-0.5244,-1101.32,-968.63,1608.28
5850,-3.8737,0.0436,-0.5377,86.18,875.12,-1813.54
5860,-3.8738,0.0363,-0.5610,1586.18,-828.06,873.90
5870,-3.8739,0.0321,-0.5831,648.68,187.56,1530.15
5880,-3.8740,0.0238,-0.5969,117.43,1359.44,1420.72
5890,-3.8741,0.0223,-0.5907,-945.07,-406.25,764.40
5900,-3.8743,0.0303,-0.5563,-1132.57,390.62,1686.34
5910,-3.8743,0.0314,-0.4929,-116.94,796.88,1233.28
5920,-3.8743,0.0126,-0.4104,23.68,906.31,-1250.98
5930,-3.8743,-0.0237,-0.3341,1617.43,-531.25,-766.48
5940,-3.8743,-0.0637,-0.2869,976.81,1249.94,1749.33
5950,-3.8743,-0.0958,-0.2700,-148.19,-703.31,655.64
5960,-3.8743,-0.1294,-0.2672,-257.57,1452.88,1671.33
5970,-3.8741,-0.1792,-0.2657,-554.44,1812.19,343.20
5980,-3.8741,-0.2415,-0.2605,1070.56,1999.63,-1359.92
5990,-3.8741,-0.2983,-0.2458,1101.81,-1328.61,-109.92
6000,-3.8740,-0.3447,-0.2209,1820.56,546.26,1452.64
6010,-3.8739,-0.3872,-0.1937,-116.94,-266.36,405.76
6020,-3.8739,-0.4261,-0.1733,-1554.44,-782.04,-297.30
6030,-3.8738,-0.4691,-0.1573,1461.18,1827.27,-1078.49
6040,-3.8737,-0.5210,-0.1261,-38.82,-125.98,-250.37
6050,-3.8735,-0.5900,-0.0851,1320.56,-126.04,-78.43
6060,-3.8734,-0.6676,-0.0658,492.43,1123.84,484.19
6070,-3.8735,-0.7249,-0.0819,-1445.07,-407.59,-1218.93
6080,-3.8735,-0.7585,-0.1249,-773.19,1529.79,1202.94
6090,-3.8735,-0.7771,-0.1810,-1085.69,29.72,1859.13
6100,-3.8734,-0.7859,-0.2362,539.31,842.22,-969.12
6110,-3.8730,-0.7880,-0.2667,-585.69,1779.66,562.01
6120,-3.8728,-0.8036,-0.2673,-851.32,1873.41,-1422.42
6130,-3.8726,-0.8406,-0.2622,1148.68,1795.29,765.08
6140,-3.8726,-0.8765,-0.2677,414.31,-1548.52,-1359.92
6150,-3.8724,-0.8960,-0.2758,-179.44,1748.23,1093.20
6160,-3.8723,-0.9117,-0.2819,1320.56,716.98,-922.42
6170,-3.8721,-0.9312,-0.2964,-695.07,-64.33,-1422.49
6180,-3.8718,-0.9465,-0.3263,820.56,-1923.71,436.89
6190,-3.8718,-0.9515,-0.3726,-1148.19,-1751.89,-1094.42
6200,-3.8718,-0.9292,-0.4286,-1788.82,326.23,-875.73
6210,-3.8718,-0.8783,-0.4868,1070.56,1154.42,-532.10
6220,-3.8717,-0.8219,-0.5338,-413.82,1701.35,1499.02
6230,-3.8716,-0.7759,-0.5560,-1195.07,-314.15,-1766.72
6240,-3.8713,-0.7391,-0.5632,695.56,842.22,1327.03
6250,-3.8711,-0.7170,-0.5851,1398.68,-79.59,45.72
6260,-3.8711,-0.7140,-0.6309,226.81,1123.60,-829.28
6270,-3.8711,-0.7166,-0.6886,617.43,-735.78,-1110.66
6280,-3.8711,-0.7087,-0.7578,289.31,-126.40,1701.72
6290,-3.8711,-0.6788,-0.8474,1289.31,-985.78,717.22
6300,-3.8711,-0.6163,-0.9521,1117.43,-454.47,1045.17
6310,-3.8711,-0.5277,-1.0499,1117.43,-1860.60,-470.64
6320,-3.8710,-0.4406,-1.1123,461.18,1623.96,-1189.58
6330,-3.8708,-0.3644,-1.1234,-382.57,1639.71,1763.43
6340,-3.8707,-0.2952,-1.0927,1367.43,218.02,982.18
6350,-3.8706,-0.2321,-1.0400,-1773.19,155.64,1060.36
6360,-3.8705,-0.1675,-0.9774,-1695.07,-1109.86,-1127.08
6370,-3.8702,-0.0962,-0.9128,-1429.44,-1094.12,1748.05
6380,-3.8701,-0.0259,-0.8612,-304.44,-828.37,-1048.71
6390,-3.8701,0.0305,-0.8322,695.56,1781.19,-142.33
6400,-3.8702,0.0693,-0.8307,-85.69,1484.38,-829.77
6410,-3.8705,0.0922,-0.8577,883.06,1672.00,-1611.02
6420,-3.8707,0.0895,-0.9072,-195.07,-1781.13,29.54
6430,-3.8711,0.0614,-0.9735,-538.82,-124.88,-1892.46
6440,-3.8713,0.0287,-1.0385,-132.57,-609.31,-1001.95
6450,-3.8715,0.0004,-1.0756,-320.07,-921.88,-752.08
6460,-3.8715,-0.0265,-1.0717,54.93,-1671.88,1138.49
6470,-3.8716,-0.0543,-1.0217,617.43,-1156.31,-970.89
6480,-3.8717,-0.0859,-0.9495,1054.93,1234.25,-33.26
6490,-3.8717,-0.1118,-0.8555,1008.06,-1515.81,-1033.14
6500,-3.8716,-0.1256,-0.7428,1695.56,-1484.62,1779.54
6510,-3.8715,-0.1230,-0.6549,-70.07,937.19,373.54
6520,-3.8715,-0.0942,-0.6049,258.06,187.26,779.97
6530,-3.8716,-0.0563,-0.5859,-54.44,-1406.49,-782.47
6540,-3.8717,-0.0383,-0.5834,804.93,1015.50,-579.28
6550,-3.8718,-0.0452,-0.5874,-898.19,1343.63,1186.34
6560,-3.8721,-0.0662,-0.5939,-1773.19,828.00,905.09
6570,-3.8724,-0.0881,-0.5978,-460.69,-0.18,-298.10
6580,-3.8727,-0.0940,-0.5942,726.81,-500.18,-969.97
6590,-3.8728,-0.0771,-0.5730,-23.19,-47.12,45.65
6600,-3.8730,-0.0459,-0.5203,-1866.94,-1328.31,-923.03
6610,-3.8730,-0.0177,-0.4385,-1866.94,1421.75,467.71
6620,-3.8732,-0.0022,-0.3546,1742.43,-109.44,-1579.04
6630,-3.8733,0.0088,-0.2963,-273.19,-1375.06,-1453.86
6640,-3.8734,0.0210,-0.2778,1133.06,-1921.88,624.39
6650,-3.8737,0.0239,-0.2955,-1304.44,437.50,1515.08
6660,-3.8739,0.0070,-0.3282,-929.44,-1828.12,-813.11
6670,-3.8740,-0.0298,-0.3556,898.68,1984.38,-1578.80
6680,-3.8741,-0.0808,-0.3707,195.56,-1500.06,-1469.48
6690,-3.8743,-0.1404,-0.3728,1664.31,562.32,-1156.98
6700,-3.8744,-0.2031,-0.3564,-1960.69,296.57,-766.36
6710,-3.8744,-0.2731,-0.3174,-1991.94,-1609.80,421.14
6720,-3.8745,-0.3575,-0.2664,1054.93,-609.92,-391.30
6730,-3.8745,-0.4474,-0.2207,-1757.57,1921.14,-78.67
6740,-3.8745,-0.5203,-0.1910,-1257.57,-235.29,-453.61
6750,-3.8745,-0.5636,-0.1840,1414.31,-438.54,-906.68
6760,-3.8745,-0.5850,-0.2109,-132.57,467.59,-78.49
6770,-3.8744,-0.5875,-0.2648,1133.06,1014.47,-1687.93
6780,-3.8743,-0.5684,-0.3113,804.93,-1876.16,1233.83
6790,-3.8743,-0.5371,-0.3383,-741.94,170.72,-703.74
6800,-3.8741,-0.5076,-0.3546,-741.94,717.65,421.20
6810,-3.8741,-0.4849,-0.3522,-960.69,-1376.04,1858.64
6820,-3.8740,-0.4861,-0.3219,1945.56,-1063.48,1968.02
6830,-3.8738,-0.5310,-0.2739,1789.31,-1188.48,1249.33
6840,-3.8735,-0.6055,-0.2258,39.31,952.09,952.58
6850,-3.8734,-0.6740,-0.2031,-1491.94,-891.85,-1094.24
6860,-3.8732,-0.7147,-0.2274,1742.43,-1985.72,608.95
6870,-3.8729,-0.7268,-0.2798,523.68,-1095.15,358.89
6880,-3.8727,-0.7123,-0.3192,-1023.19,201.66,1593.20
6890,-3.8724,-0.6764,-0.3307,836.18,-845.15,1499.33
6900,-3.8723,-0.6344,-0.3212,1429.93,1686.16,-1453.80
6910,-3.8722,-0.6056,-0.3103,-1195.07,-1095.03,-250.67
6920,-3.8718,-0.6047,-0.3234,-1507.57,295.65,265.01
6930,-3.8716,-0.6276,-0.3578,-1398.19,-1376.22,-563.17
6940,-3.8712,-0.6550,-0.3926,-320.07,-1782.53,-469.48
6950,-3.8708,-0.6703,-0.4213,164.31,1764.34,-1985.17
6960,-3.8706,-0.6517,-0.4476,-1788.82,-1907.59,1858.52
6970,-3.8704,-0.5773,-0.4738,586.18,-1282.53,-1047.79
6980,-3.8699,-0.4808,-0.4969,-1882.57,-626.16,1264.65
6990,-3.8694,-0.4408,-0.5178,-1538.82,405.27,686.52
7000,-3.8690,-0.4703,-0.5343,-413.82,1733.46,358.34
7010,-3.8687,-0.5089,-0.5463,-195.07,-375.98,77.03
7020,-3.8683,-0.5089,-0.5645,-1132.57,-1907.29,-1532.35
7030,-3.8679,-0.4648,-0.6093,-1132.57,-235.41,1030.09
7040,-3.8679,-0.3831,-0.6848,508.06,-1969.67,-1188.72
7050,-3.8679,-0.2844,-0.7734,-1023.19,358.58,342.41
7060,-3.8680,-0.2064,-0.8652,-398.19,1015.01,1139.10
7070,-3.8682,-0.1567,-0.9475,1586.18,1265.20,-548.58
7080,-3.8680,-0.1083,-1.0066,-54.44,-1265.99,1826.23
7090,-3.8679,-0.0421,-1.0117,-1851.32,-828.37,-1752.01
7100,-3.8679,0.0380,-0.9629,-1382.57,-1484.50,-502.01
7110,-3.8680,0.1199,-0.9048,867.43,750.06,-1658.14
7120,-3.8683,0.1893,-0.8566,-648.19,187.68,-1298.65
7130,-3.8685,0.2357,-0.8198,242.43,-1640.26,-1.71
7140,-3.8687,0.2621,-0.7859,-1820.07,-937.07,545.23
7150,-3.8690,0.2861,-0.7451,1554.93,-593.26,-1689.09
7160,-3.8694,0.3048,-0.7048,633.06,625.55,1545.41
7170,-3.8699,0.3207,-0.6611,-976.32,1781.80,-188.90
7180,-3.8701,0.3397,-0.5863,1054.93,-624.39,1639.28
7190,-3.8704,0.3401,-0.4965,-507.57,953.74,-1.16
7200,-3.8706,0.3124,-0.4438,-460.69,453.74,-141.60
7210,-3.8710,0.2720,-0.4408,-7.57,-811.95,1577.21
7220,-3.8716,0.2439,-0.4648,-1179.44,-421.39,-79.04
7230,-3.8721,0.2343,-0.5033,-773.19,500.43,-1750.92
7240,-3.8724,0.2452,-0.5493,1992.43,-421.45,248.96
7250,-3.8727,0.2748,-0.5848,-601.32,1687.93,811.40
7260,-3.8728,0.3070,-0.6052,-820.07,1141.11,1233.22
7270,-3.8730,0.3225,-0.6217,-695.07,-1468.20,-1001.22
7280,-3.8733,0.3179,-0.6310,1289.31,422.49,748.78
7290,-3.8737,0.3074,-0.6268,695.56,-765.01,1717.47
7300,-3.8739,0.2990,-0.5994,-648.19,-233.83,1029.97
7310,-3.8740,0.2911,-0.5347,-1726.32,-718.20,1608.15
7320,-3.8740,0.2670,-0.4481,1273.68,-436.95,-1907.35
7330,-3.8740,0.2158,-0.3713,-1820.07,-1358.89,1311.58
7340,-3.8741,0.1582,-0.3168,-366.94,469.12,1655.52
7350,-3.8743,0.1150,-0.2870,258.06,-546.57,1452.45
7360,-3.8744,0.0798,-0.2832,-1273.19,-734.19,1811.89
7370,-3.8745,0.0449,-0.2981,-1773.19,-249.88,-1188.11
7380,-3.8745,0.0061,-0.3158,1758.06,1843.81,624.39
7390,-3.8746,-0.0420,-0.3301,789.31,-421.88,-969.42
7400,-3.8746,-0.0911,-0.3287,-1366.94,1765.50,-1453.80
7410,-3.8745,-0.1360,-0.2948,351.81,1937.32,343.08
7420,-3.8745,-0.1947,-0.2415,-1398.19,-1719.06,-1703.74
7430,-3.8745,-0.2772,-0.1836,-913.82,1108.95,1812.01
7440,-3.8746,-0.3750,-0.1292,523.68,515.08,-125.37
7450,-3.8746,-0.4841,-0.1047,8.06,-516.36,796.57
7460,-3.8748,-0.5740,-0.1313,-1960.69,-1391.60,1890.38
7470,-3.8748,-0.6189,-0.2013,-1460.69,-798.03,-1297.18
7480,-3.8745,-0.6194,-0.2699,789.31,-1751.22,233.95
7490,-3.8743,-0.5818,-0.2828,726.81,1467.53,327.58
7500,-3.8740,-0.5325,-0.2430,1539.31,-188.66,843.14
7510,-3.8739,-0.4949,-0.2191,-148.19,905.15,1093.26
7520,-3.8739,-0.4752,-0.2572,664.31,-32.23,249.51
7530,-3.8739,-0.4785,-0.3333,-820.07,-907.23,1015.08
7540,-3.8738,-0.5197,-0.4181,-1241.94,1358.40,61.83
7550,-3.8737,-0.5808,-0.4824,1492.43,-1501.04,30.40
7560,-3.8734,-0.6338,-0.4882,1664.31,-1735.53,-1969.73
7570,-3.8729,-0.6777,-0.4524,-1116.94,1529.97,983.40
7580,-3.8727,-0.7252,-0.4408,1258.06,-1891.97,-954.04
7590,-3.8726,-0.7683,-0.4816,-820.07,-407.71,-1985.29
7600,-3.8726,-0.7974,-0.5498,1664.31,-1626.53,1467.77
7610,-3.8727,-0.8217,-0.6045,1945.56,1639.04,-235.47
7620,-3.8726,-0.8392,-0.6062,-1163.82,-1361.02,-376.22
7630,-3.8721,-0.8446,-0.5577,586.18,-1579.77,951.90
7640,-3.8716,-0.8325,-0.4928,-101.32,623.29,1264.53
7650,-3.8711,-0.8082,-0.4459,1445.56,935.85,327.15
7660,-3.8707,-0.7780,-0.4609,554.93,-1064.09,358.46
7670,-3.8706,-0.7516,-0.5542,429.93,1014.10,-1532.17
7680,-3.8705,-0.7345,-0.6815,-195.07,1076.60,-344.85
7690,-3.8701,-0.7252,-0.7782,1992.43,779.79,373.66
7700,-3.8698,-0.7239,-0.8022,-820.07,404.79,779.72
7710,-3.8694,-0.7167,-0.7701,-648.19,1326.66,-501.59
7720,-3.8690,-0.7106,-0.7483,273.68,1436.10,701.60
7730,-3.8690,-0.7119,-0.7614,1054.93,232.97,-1938.96
7740,-3.8690,-0.7053,-0.7959,883.06,-1438.90,-1095.28
7750,-3.8690,-0.6875,-0.8640,1726.81,-1860.78,-860.96
7760,-3.8691,-0.6555,-0.9818,8.06,1420.53,-1736.08
7770,-3.8693,-0.5862,-1.1234,101.81,-1657.53,451.17
7780,-3.8694,-0.4478,-1.2509,976.81,217.59,-1939.70
7790,-3.8694,-0.2609,-1.3674,-1304.44,-94.67,1591.25
7800,-3.8694,-0.0836,-1.4285,-1382.57,983.83,-1487.06
7810,-3.8694,0.0685,-1.3888,1304.93,1171.69,-1346.56
7820,-3.8695,0.2091,-1.2948,773.68,-1765.50,-893.37
7830,-3.8696,0.3364,-1.2139,-1226.32,-1734.01,700.56
7840,-3.8699,0.4275,-1.1771,-929.44,625.61,28.87
7850,-3.8702,0.4678,-1.1665,-1273.19,1328.92,1857.06
7860,-3.8706,0.4497,-1.1530,-116.94,-1311.65,-814.82
7870,-3.8708,0.3978,-1.1130,1570.56,422.73,1528.99
7880,-3.8711,0.3691,-1.0326,-1070.07,1531.98,1404.05
7890,-3.8713,0.3650,-0.9120,-741.94,-171.20,-1642.70
7900,-3.8715,0.3718,-0.7683,-1273.19,-733.70,-1861.21
7910,-3.8716,0.3820,-0.6501,-398.19,1656.92,1654.72
7920,-3.8719,0.3854,-0.6121,898.68,781.98,-1.28
7930,-3.8723,0.3931,-0.6487,1336.18,1656.98,-391.85
7940,-3.8727,0.4008,-0.7120,-1679.44,969.48,-579.41
7950,-3.8729,0.3994,-0.7589,-695.07,860.11,217.35
7960,-3.8733,0.3994,-0.7609,-866.94,-1139.89,-1267.15
7970,-3.8735,0.4062,-0.7186,-866.94,-1389.89,-642.15
7980,-3.8737,0.4042,-0.6580,8.06,16.42,686.10
7990,-3.8739,0.3794,-0.6010,-257.57,-218.02,1608.03
8000,-3.8741,0.3325,-0.5432,570.56,-921.14,-1188.72
8010,-3.8743,0.2714,-0.4810,-1429.44,-1530.64,1858.28
8020,-3.8744,0.2046,-0.4301,-1257.57,-1562.01,-985.35
8030,-3.8745,0.1410,-0.4078,-1804.44,953.49,-63.35
8040,-3.8746,0.0823,-0.4099,-1945.07,-202.88,-344.60
8050,-3.8748,0.0283,-0.4125,-1460.69,-468.63,-0.85
8060,-3.8748,-0.0154,-0.4021,-366.94,-796.88,-1813.35
8070,-3.8748,-0.0486,-0.3845,-1960.69,546.81,702.33
8080,-3.8749,-0.0814,-0.3605,1789.31,-1203.25,-1688.29
8090,-3.8749,-0.1224,-0.3201,1586.18,1874.82,827.39
8100,-3.8749,-0.1740,-0.2709,336.18,-953.37,718.08
8110,-3.8749,-0.2202,-0.2301,1742.43,1343.38,1171.33
8120,-3.8749,-0.2517,-0.2010,-179.44,-1437.99,-344.24
8130,-3.8748,-0.2805,-0.1827,-210.69,-1719.30,-594.18
8140,-3.8746,-0.3153,-0.1725,101.81,624.45,1655.88
8150,-3.8746,-0.3595,-0.1718,-351.32,1936.83,-1906.62
8160,-3.8746,-0.4078,-0.1943,1992.43,-1969.48,765.26
8170,-3.8748,-0.4457,-0.2390,-195.07,-860.23,-1641.05
8180,-3.8748,-0.4692,-0.2867,-1038.82,1420.96,-1781.74
8190,-3.8746,-0.4910,-0.3390,-54.44,-688.48,233.76
8200,-3.8746,-0.5210,-0.4060,1164.31,624.02,1593.08
8210,-3.8746,-0.5493,-0.4774,1320.56,45.84,1452.33
8220,-3.8746,-0.5630,-0.5187,1695.56,-1094.85,-1907.23
8230,-3.8744,-0.5735,-0.5045,-54.44,1623.84,936.46
8240,-3.8741,-0.6133,-0.4598,-1398.19,-563.66,-610.41
8250,-3.8739,-0.6901,-0.4335,1508.06,1155.03,-1485.29
8260,-3.8738,-0.7682,-0.4597,-320.07,529.85,-719.60
8270,-3.8735,-0.8141,-0.5437,1679.93,1170.35,952.21
8280,-3.8733,-0.8228,-0.6537,-195.07,-1579.77,1342.65
8290,-3.8730,-0.8132,-0.7456,-1304.44,342.10,-110.66
8300,-3.8727,-0.8040,-0.8053,-85.69,576.48,920.41
8310,-3.8724,-0.7966,-0.8435,1101.81,935.91,201.54
8320,-3.8722,-0.7832,-0.8528,-1960.69,45.29,-1079.77
8330,-3.8717,-0.7733,-0.8177,-241.94,-1142.21,-1142.33
8340,-3.8712,-0.7849,-0.7595,1023.68,-657.78,-376.65
8350,-3.8707,-0.8091,-0.7206,-460.69,-1204.71,1045.35
8360,-3.8705,-0.8202,-0.7147,445.56,-220.34,-767.09
8370,-3.8701,-0.8036,-0.7335,-976.32,529.60,967.35
8380,-3.8698,-0.7572,-0.7737,1148.68,-1876.59,561.04
8390,-3.8695,-0.6746,-0.8368,-913.82,982.85,-17.15
8400,-3.8693,-0.5754,-0.9183,1664.31,904.91,-1142.27
8410,-3.8693,-0.4951,-1.0131,-1648.19,-1532.41,-1329.96
8420,-3.8695,-0.4418,-1.1184,633.06,-1657.23,-1502.01
8430,-3.8699,-0.4044,-1.2286,-538.82,858.46,-970.95
8440,-3.8701,-0.3817,-1.3408,242.43,-1250.79,-1783.69
8450,-3.8702,-0.3706,-1.4362,-851.32,389.83,1372.38
8460,-3.8704,-0.3474,-1.4893,570.56,186.77,-1143.43
8470,-3.8705,-0.2944,-1.5129,-460.69,1389.89,-377.93
8480,-3.8706,-0.2103,-1.5337,-1679.44,-1641.24,1403.26
8490,-3.8708,-0.0924,-1.5405,1086.18,-297.30,-1753.05
8500,-3.8710,0.0420,-1.5117,179.93,-1172.06,1715.70
8510,-3.8711,0.1471,-1.4510,1383.06,-1499.94,-1659.24
8520,-3.8712,0.2090,-1.3711,-1163.82,-1734.13,-1518.49
8530,-3.8713,0.2463,-1.2830,-1241.94,500.37,1841.06
8540,-3.8716,0.2599,-1.2054,-460.69,-218.32,-1111.94
8550,-3.8718,0.2642,-1.1530,1273.68,1703.61,-1158.63
8560,-3.8721,0.2953,-1.1194,1820.56,422.36,-142.88
8570,-3.8722,0.3517,-1.0857,1804.93,719.30,857.18
8580,-3.8724,0.4135,-1.0370,1023.68,1031.92,1232.24
8590,-3.8728,0.4572,-0.9855,929.93,-733.58,-314.58
8600,-3.8732,0.4794,-0.9460,-1476.32,1860.23,-283.20
8610,-3.8734,0.4958,-0.9158,1367.43,-1092.83,669.98
8620,-3.8738,0.5042,-0.8907,-523.19,-1217.83,-220.58
8630,-3.8740,0.5018,-0.8666,539.31,1985.35,-533.02
8640,-3.8743,0.5059,-0.8364,242.43,1079.10,-173.58
8650,-3.8744,0.5181,-0.8037,758.06,938.48,1357.73
8660,-3.8746,0.5165,-0.7731,-1679.44,1125.98,-1220.34
8670,-3.8748,0.5137,-0.7286,-1882.57,1047.85,1748.47
8680,-3.8748,0.5245,-0.6602,1758.06,-1264.65,1342.29
8690,-3.8748,0.5217,-0.5864,-851.32,-499.02,-548.22
8700,-3.8748,0.4884,-0.5283,-1210.69,938.48,-751.16
8710,-3.8748,0.4408,-0.4867,-1476.32,375.92,342.71
8720,-3.8749,0.3822,-0.4637,429.93,1703.98,1452.15
8730,-3.8750,0.3036,-0.4689,929.93,641.36,-1360.29
8740,-3.8439,0.2145,-0.4967,-1132.57,-15.08,-1485.35
8750,-3.8440,0.1372,-0.5275,-538.82,422.24,1670.90
8760,-3.8441,0.0811,-0.5428,1570.56,484.62,-1563.54
8770,-3.8441,0.0336,-0.5405,-1616.94,-1484.25,1217.65
8780,-3.8442,-0.0111,-0.5223,304.93,-1187.44,-16.72
8790,-3.8442,-0.0420,-0.4741,-1413.82,1156.19,-719.79
8800,-3.8441,-0.0676,-0.3990,-1366.94,-672.00,717.77
8810,-3.8441,-0.1051,-0.3248,-648.19,937.32,-516.42
8820,-3.8439,-0.1429,-0.2509,-1445.07,-1562.74,233.70
8830,-3.8750,-0.1807,-0.1720,1711.18,-94.06,-313.05
8840,-3.8748,-0.2361,-0.1144,883.06,1999.63,-953.49
8850,-3.8746,-0.3021,-0.0995,1789.31,1374.51,-562.74
8860,-3.8745,-0.3433,-0.1193,1336.18,-719.36,1281.01
8870,-3.8745,-0.3538,-0.1564,70.56,749.33,-203.37
8880,-3.8743,-0.3580,-0.2058,-1273.19,-0.73,546.51
8890,-3.8741,-0.3645,-0.2621,-1820.07,1671.14,952.70
8900,-3.8741,-0.3767,-0.3237,1351.81,-1531.98,-547.42
8910,-3.8740,-0.4031,-0.3964,-210.69,-1422.67,389.95
8920,-3.8740,-0.4403,-0.4602,414.31,1280.46,-1891.42
8930,-3.8738,-0.4829,-0.4852,-351.32,1108.46,14.71
8940,-3.8735,-0.5420,-0.4689,-1804.44,1905.27,1889.65
8950,-3.8732,-0.6133,-0.4365,-1366.94,-1.10,170.90
8960,-3.8730,-0.6826,-0.4187,1508.06,139.40,-172.73
8970,-3.8728,-0.7378,-0.4221,633.06,-1579.47,1655.40
8980,-3.8727,-0.7692,-0.4352,1570.56,1982.91,-94.60
8990,-3.8724,-0.7772,-0.4578,1554.93,310.97,-1360.23
9000,-3.8722,-0.7748,-0.4956,523.68,1420.35,952.21
9010,-3.8721,-0.7766,-0.5375,836.18,576.60,-985.35
9020,-3.8718,-0.7874,-0.5714,601.81,-782.78,-1922.97
9030,-3.8716,-0.8057,-0.5946,-773.19,-1126.59,-1798.03
9040,-3.8713,-0.8215,-0.6133,883.06,-95.34,1092.53
9050,-3.8712,-0.8336,-0.6406,-1148.19,1513.98,1764.40
9060,-3.8711,-0.8527,-0.6719,1304.93,-1986.02,-1251.28
9070,-3.8708,-0.8673,-0.6925,-1132.57,-1986.08,-1298.22
9080,-3.8705,-0.8494,-0.7058,992.43,-626.71,732.97
9090,-3.8702,-0.8088,-0.7286,-710.69,1670.17,795.47
9100,-3.8701,-0.7740,-0.7648,476.81,-1251.59,342.29
9110,-3.8701,-0.7421,-0.8018,929.93,-1876.53,576.60
9120,-3.8701,-0.7178,-0.8336,1023.68,1389.16,1592.16
9130,-3.8701,-0.7288,-0.8657,133.06,1311.10,-204.77
9140,-3.8700,-0.7609,-0.9000,-1273.19,1201.66,248.29
9150,-3.8701,-0.7679,-0.9379,-1382.57,810.97,-376.77
9160,-3.8701,-0.7303,-0.9819,1711.18,-32.78,-1205.02
9170,-3.8701,-0.6431,-1.0262,-1476.32,-1673.34,-1439.45
9180,-3.8700,-0.5187,-1.0616,1695.56,654.97,91.74
9190,-3.8700,-0.3939,-1.0927,1617.43,123.96,1763.55
9200,-3.8700,-0.2825,-1.1228,1586.18,155.46,1982.24
9210,-3.8700,-0.1632,-1.1478,-148.19,296.26,1747.80
9220,-3.8700,-0.0211,-1.1625,-882.57,1093.38,-1486.63
9230,-3.8699,0.1335,-1.1569,1304.93,-781.31,466.43
9240,-3.8699,0.2882,-1.1266,1101.81,-77.88,-1549.19
9250,-3.8699,0.4293,-1.0759,898.68,-202.58,-658.51
9260,-3.8699,0.5520,-1.0250,-1038.82,-1717.96,1497.86
9270,-3.8701,0.6517,-0.9971,-1335.69,797.91,-892.64
9280,-3.8704,0.7014,-1.0034,-570.07,376.22,623.05
9290,-3.8707,0.7086,-1.0325,1789.31,-436.16,591.74
9300,-3.8711,0.6964,-1.0670,-1288.82,-154.91,419.80
9310,-3.8715,0.6914,-1.0879,1148.68,-576.78,1138.49
9320,-3.8718,0.7092,-1.0769,508.06,751.34,-814.64
9330,-3.8721,0.7361,-1.0294,-1210.69,-1842.41,-1658.39
9340,-3.8723,0.7539,-0.9559,-1773.19,235.78,1732.36
9350,-3.8726,0.7581,-0.8773,508.06,1642.09,1216.86
9360,-3.8728,0.7604,-0.8135,1039.31,-295.41,-1642.40
9370,-3.8729,0.7616,-0.7644,1336.18,-123.54,1920.23
9380,-3.8730,0.7637,-0.7188,1492.43,-1842.29,-1720.28
9390,-3.8732,0.7583,-0.6829,1758.06,1.46,1436.10
9400,-3.8733,0.7327,-0.6559,1070.56,595.21,123.66
9410,-3.8735,0.6805,-0.6289,1789.31,48.28,-1501.28
9420,-3.8737,0.6101,-0.6062,-882.57,-498.72,436.22
9430,-3.8739,0.5428,-0.5939,-1898.19,-1592.59,-1438.72
9440,-3.8740,0.4932,-0.5715,1492.43,-14.59,1920.65
9450,-3.8740,0.4612,-0.5072,-866.94,-1155.33,498.84
9460,-3.8740,0.4230,-0.4089,-960.69,-921.02,-1907.29
9470,-3.8740,0.3568,-0.3184,-1851.32,-342.96,-625.85
9480,-3.8740,0.2668,-0.2648,1679.93,-749.33,1108.70
9490,-3.8743,0.1801,-0.2484,-1835.69,-1890.14,-609.92
9500,-3.8744,0.1187,-0.2550,-945.07,203.43,-1969.24
9510,-3.8745,0.0729,-0.2754,-804.44,-640.44,-78.67
9520,-3.8744,0.0315,-0.3016,1336.18,750.12,30.70
9530,-3.8744,-0.0054,-0.3152,39.31,1390.69,343.14
9540,-3.8744,-0.0446,-0.3010,-679.44,-328.19,343.08
9550,-3.8745,-0.0941,-0.2571,-1695.07,1484.25,-766.24
9560,-3.8745,-0.1503,-0.1837,-38.82,-890.87,-1219.30
9570,-3.8744,-0.2133,-0.0945,773.68,499.69,1671.51
9580,-3.8743,-0.2847,-0.0250,711.18,-78.55,-1859.62
9590,-3.8741,-0.3600,0.0026,-429.44,811.89,46.81
9600,-3.8743,-0.4265,-0.0125,1929.93,343.02,796.88
9610,-3.8745,-0.4620,-0.0656,1414.31,-1578.98,-1953.19
9620,-3.8746,-0.4598,-0.1469,867.43,-375.92,109.19
9630,-3.8748,-0.4335,-0.2361,1148.68,1217.83,-594.06
9640,-3.8745,-0.4116,-0.3080,523.68,1796.02,1608.89
9650,-3.8741,-0.4130,-0.3536,-679.44,592.90,1124.39
9660,-3.8738,-0.4479,-0.3740,-851.32,-1250.85,1718.02
9670,-3.8735,-0.5175,-0.3771,-1320.07,139.71,1264.89
9680,-3.8735,-0.5919,-0.3724,1773.68,-251.04,-250.79
9690,-3.8734,-0.6482,-0.3655,242.43,342.59,-844.48
9700,-3.8732,-0.6914,-0.3745,1039.31,1233.09,655.52
9710,-3.8730,-0.7319,-0.4061,-491.94,76.72,-1656.98
9720,-3.8728,-0.7701,-0.4357,-1679.44,29.79,-1500.79
9730,-3.8724,-0.8167,-0.4386,1429.93,248.47,-297.73
9740,-3.8718,-0.8768,-0.4066,-523.19,-126.65,1795.96
9750,-3.8713,-0.9425,-0.3765,-226.32,-33.02,-203.98
9760,-3.8710,-1.0074,-0.3939,-632.57,-173.77,-828.92
9770,-3.8707,-1.0387,-0.4441,-945.07,1591.74,1233.58
9780,-3.8706,-0.9930,-0.4988,-945.07,-830.20,-407.17
9790,-3.8702,-0.8794,-0.5481,898.68,169.92,-1782.23
9800,-3.8698,-0.7676,-0.5792,-554.44,1857.60,-1391.72
9810,-3.8693,-0.7227,-0.5967,1758.06,1873.47,-844.91
9820,-3.8690,-0.7396,-0.6276,-491.94,-360.84,-1548.10
9830,-3.8690,-0.7579,-0.6694,1336.18,-313.96,1092.47
9840,-3.8691,-0.7467,-0.7069,-1007.57,-1673.40,-423.22
9850,-3.8690,-0.7216,-0.7482,429.93,1529.79,545.47
9860,-3.8691,-0.7023,-0.8081,-351.32,248.54,-735.84
9870,-3.8693,-0.6874,-0.8911,-1882.57,576.72,467.16
9880,-3.8696,-0.6586,-0.9847,23.68,1951.78,-1236.15
9890,-3.8699,-0.6028,-1.0681,-288.82,1967.41,-580.08
9900,-3.8699,-0.5172,-1.1169,-1148.19,-704.35,-1127.14
9910,-3.8696,-0.4077,-1.1182,1804.93,1045.84,404.05
9920,-3.8695,-0.2887,-1.0725,-179.44,889.77,-1877.20
9930,-3.8694,-0.1661,-0.9910,-945.07,-1266.24,13.49
9940,-3.8695,-0.0332,-0.9041,-1257.57,1171.51,-1236.33
9950,-3.8696,0.1012,-0.8518,-241.94,296.75,-392.40
9960,-3.8698,0.2135,-0.8484,961.18,-1031.07,-1517.33
9970,-3.8699,0.2882,-0.8810,-663.82,-593.38,279.54
9980,-3.8701,0.3353,-0.9313,898.68,-765.08,-1236.15
9990,-3.8702,0.3866,-0.9816,-1070.07,797.49,-1126.83
10000,-3.8702,0.4268,-1.0192,1492.43,-1639.89,1201.17
10010,-3.8704,0.4271,-1.0334,-1366.94,1547.67,-330.14
10020,-3.8705,0.4049,-1.0173,-1320.07,-280.46,1841.67
10030,-3.8708,0.3807,-0.9755,-163.82,1781.98,-439.51
10040,-3.8711,0.3884,-0.9204,742.43,-858.64,1685.55
10050,-3.8713,0.4309,-0.8617,1726.81,-1811.77,-408.08
10060,-3.8715,0.4753,-0.8068,-835.69,1703.92,-17.33
10070,-3.8716,0.4974,-0.7640,851.81,735.29,-782.84
10080,-3.8718,0.4971,-0.7390,-320.07,-1795.96,-595.28
10090,-3.8721,0.4940,-0.7283,-366.94,1407.17,1748.54
10100,-3.8723,0.5070,-0.7188,-757.57,-1217.83,873.54
10110,-3.8726,0.5399,-0.6979,898.68,0.98,-1813.90
10120,-3.8727,0.5713,-0.6650,1117.43,-1327.09,357.97
10130,-3.8729,0.5728,-0.6318,1133.06,-1123.90,904.91
10140,-3.8733,0.5355,-0.6096,1320.56,-873.90,-595.03
10150,-3.8735,0.4822,-0.5974,554.93,1969.79,-1719.97
10160,-3.8738,0.4332,-0.5801,1726.81,-467.83,-454.35
10170,-3.8738,0.3921,-0.5427,-538.82,1750.79,155.09
10180,-3.8739,0.3492,-0.4906,-1804.44,-1468.02,-1407.35
10190,-3.8740,0.2987,-0.4392,711.18,1203.80,-344.73
10200,-3.8741,0.2495,-0.3926,-1757.57,-218.20,-954.04
10210,-3.8743,0.2041,-0.3508,-54.44,1750.43,-985.17
10220,-3.8744,0.1488,-0.3259,-1866.94,-905.88,-813.23
10230,-3.8745,0.0841,-0.3250,-945.07,-1718.51,-1297.55
10240,-3.8746,0.0291,-0.3336,-1226.32,-1593.63,-438.17
10250,-3.8746,-0.0107,-0.3322,-273.19,1296.88,-563.17
10260,-3.8745,-0.0414,-0.3110,-1366.94,1499.94,1202.45
10270,-3.8745,-0.0662,-0.2688,-1288.82,203.00,-63.11
10280,-3.8744,-0.1042,-0.2207,-460.69,1609.19,-1906.80
10290,-3.8744,-0.1664,-0.1896,-1335.69,-234.62,1749.51
10300,-3.8744,-0.2306,-0.1763,-1288.82,-250.37,999.57
10310,-3.8744,-0.2782,-0.1765,-1507.57,1452.64,1702.76
10320,-3.8744,-0.3186,-0.1906,398.68,1421.33,-1219.12
10330,-3.8743,-0.3503,-0.2109,-773.19,-375.67,593.32
10340,-3.8743,-0.3688,-0.2351,-835.69,1014.89,-1297.30
10350,-3.8743,-0.3842,-0.2682,804.93,1921.14,-937.99
10360,-3.8743,-0.3977,-0.3119,-1163.82,1686.71,-1672.42
10370,-3.8743,-0.4139,-0.3589,1101.81,92.96,-484.99
10380,-3.8741,-0.4359,-0.4030,-976.32,-1922.73,-0.73
10390,-3.8739,-0.4580,-0.4348,211.18,436.65,-1657.04
10400,-3.8737,-0.4838,-0.4364,1383.06,358.46,1499.15
10410,-3.8735,-0.5261,-0.4081,-1913.82,155.27,-766.48
10420,-3.8734,-0.5863,-0.3658,664.31,-219.79,-1422.73
10430,-3.8732,-0.6410,-0.3186,961.18,1186.34,389.89
10440,-3.8729,-0.6908,-0.2825,1961.18,-766.91,-1531.92
10450,-3.8727,-0.7500,-0.2861,-413.82,-142.03,-109.99
10460,-3.8726,-0.8107,-0.3298,8.06,-610.84,-63.11
10470,-3.8726,-0.8630,-0.3795,242.43,1795.29,-1031.92
10480,-3.8726,-0.8920,-0.4098,1539.31,-564.21,-1000.79
10490,-3.8723,-0.8801,-0.4049,1836.18,-439.27,-78.98
10500,-3.8717,-0.8408,-0.3633,-648.19,185.73,1780.46
10510,-3.8711,-0.8169,-0.3184,383.06,1513.98,749.27
10520,-3.8707,-0.8236,-0.3015,-554.44,-736.02,-1016.30
10530,-3.8705,-0.8417,-0.3062,-1413.82,1420.23,-1781.86
10540,-3.8704,-0.8474,-0.3134,273.68,826.48,-1578.74
10550,-3.8702,-0.8326,-0.3311,-460.69,-95.46,-110.05
10560,-3.8701,-0.8066,-0.3759,1429.93,1638.98,-0.67
10570,-3.8700,-0.7887,-0.4446,758.06,-95.34,436.71
10580,-3.8701,-0.7910,-0.5251,-945.07,-892.21,-79.04
10590,-3.8700,-0.8114,-0.6082,-1241.94,795.29,1233.34
10600,-3.8699,-0.8419,-0.6746,148.68,-1829.71,842.53
10610,-3.8698,-0.8684,-0.6954,242.43,1670.23,-579.47
10620,-3.8695,-0.8822,-0.6708,851.81,-1001.71,-1563.90
10630,-3.8694,-0.8707,-0.6366,-913.82,-1845.52,311.16
10640,-3.8695,-0.8186,-0.6241,554.93,-1470.46,1529.97
10650,-3.8696,-0.7279,-0.6462,-773.19,123.35,-907.47
10660,-3.8696,-0.6233,-0.7083,-1163.82,1295.41,-1204.41
10670,-3.8695,-0.5199,-0.7987,226.81,1358.15,295.47
10680,-3.8694,-0.4125,-0.8894,1461.18,1780.21,139.04
10690,-3.8693,-0.3071,-0.9541,-788.82,-1828.98,1732.60
10700,-3.8691,-0.2180,-0.9709,695.56,1890.01,-361.27
10710,-3.8690,-0.1566,-0.9434,101.81,-266.05,-1158.20
10720,-3.8690,-0.1158,-0.8854,-38.82,-734.74,1201.23
10730,-3.8691,-0.0819,-0.7986,1179.93,-1312.74,-95.52
10740,-3.8690,-0.0587,-0.7169,1523.68,1796.69,1795.29
10750,-3.8690,-0.0464,-0.6857,492.43,249.88,1842.35
10760,-3.8691,-0.0250,-0.7006,-1929.44,249.88,1201.78
10770,-3.8694,0.0234,-0.7369,804.93,-1656.31,732.97
10780,-3.8698,0.1034,-0.7753,-991.94,1671.88,-1110.84
10790,-3.8700,0.2094,-0.7993,1242.43,765.81,-985.90
10800,-3.8701,0.3175,-0.8044,-1195.07,1687.87,1014.04
10810,-3.8704,0.4003,-0.8004,648.68,1031.86,1154.66
10820,-3.8707,0.4597,-0.7965,-757.57,1547.61,1685.91
10830,-3.8711,0.5155,-0.7812,-1148.19,-1952.27,389.04
10840,-3.8716,0.5648,-0.7516,1992.43,0.98,-595.28
10850,-3.8719,0.6124,-0.7217,304.93,-202.03,-173.40
10860,-3.8722,0.6432,-0.7015,-1601.32,-373.84,920.41
10870,-3.8726,0.6427,-0.6880,-1663.82,-1795.65,-1767.03
10880,-3.8728,0.6222,-0.6632,-1726.32,-61.28,889.22
10890,-3.8730,0.5922,-0.6200,-351.32,-889.47,-1595.09
10900,-3.8732,0.5554,-0.5748,-195.07,641.72,1686.28
10910,-3.8733,0.5107,-0.5477,-898.19,-1577.09,326.97
10920,-3.8735,0.4662,-0.5396,1383.06,1891.60,-1938.60
10930,-3.8738,0.4242,-0.5388,-320.07,-1061.65,-532.35
10940,-3.8739,0.3868,-0.5323,-1695.07,-967.96,1873.90
10950,-3.8740,0.3563,-0.5122,1523.68,-139.89,-1626.10
10960,-3.8741,0.3278,-0.4858,1617.43,-1561.83,-313.54
10970,-3.8743,0.2924,-0.4663,1961.18,1813.11,-657.23
10980,-3.8744,0.2509,-0.4548,1429.93,313.05,1217.83
10990,-3.8746,0.2091,-0.4452,117.43,1781.74,-594.67
11000,-3.8748,0.1703,-0.4242,-1226.32,-984.01,-250.92
11010,-3.8748,0.1388,-0.3768,1804.93,1703.43,-250.85
11020,-3.8746,0.1113,-0.3065,1773.68,-234.13,-969.54
11030,-3.8745,0.0730,-0.2400,-1741.94,765.81,1702.51
11040,-3.8745,0.0262,-0.1997,1351.81,1281.37,1421.39
11050,-3.8746,-0.0183,-0.1880,-632.57,-1562.50,-531.68
11060,-3.8746,-0.0596,-0.1963,1664.31,-46.94,1874.57
11070,-3.8746,-0.1024,-0.2096,383.06,-1109.50,1249.57
11080,-3.8746,-0.1541,-0.2102,-1101.32,1187.26,1312.07
11090,-3.8746,-0.2235,-0.1979,289.31,1109.07,1562.07
11100,-3.8746,-0.2998,-0.1881,-601.32,-1312.99,1124.57
11110,-3.8746,-0.3669,-0.1908,1633.06,-63.11,171.45
11120,-3.8746,-0.4095,-0.1997,1039.31,-406.98,780.82
11130,-3.8746,-0.4216,-0.2073,-413.82,-1547.73,-187.93
11140,-3.8745,-0.4265,-0.2183,-1960.69,1483.52,-500.43
11150,-3.8744,-0.4333,-0.2358,1414.31,77.27,-203.55
11160,-3.8741,-0.4445,-0.2528,539.31,1827.27,1640.14
11170,-3.8740,-0.4669,-0.2717,-882.57,-344.67,-63.05
11180,-3.8738,-0.5106,-0.3076,242.43,1233.46,499.45
11190,-3.8738,-0.5707,-0.3563,-1351.32,639.59,-781.86
11200,-3.8737,-0.6288,-0.3977,-1038.82,-1594.91,1921.14
11210,-3.8734,-0.6824,-0.4032,-476.32,1108.09,327.33
11220,-3.8732,-0.7329,-0.3673,664.31,404.91,-1250.79
11230,-3.8729,-0.7797,-0.3346,-1804.44,998.54,-1125.73
11240,-3.8728,-0.8247,-0.3381,211.18,1185.97,-1266.30
11250,-3.8727,-0.8792,-0.3723,-1554.44,732.73,-1656.92
11260,-3.8726,-0.9413,-0.4268,-523.19,357.60,-453.86
11270,-3.8723,-0.9943,-0.4905,-476.32,1388.73,1999.15
11280,-3.8721,-1.0214,-0.5420,742.43,1232.42,1139.65
11290,-3.8719,-1.0184,-0.5667,1273.68,-1361.39,-32.35
11300,-3.8717,-0.9937,-0.5787,1648.68,-517.64,-1282.41
11310,-3.8715,-0.9543,-0.5990,820.56,1935.55,-1641.78
11320,-3.8712,-0.9127,-0.6254,1851.81,-658.14,-516.85
11330,-3.8710,-0.8862,-0.6580,-820.07,-33.08,-657.53
11340,-3.8708,-0.8882,-0.7037,-1429.44,-204.90,-360.72
11350,-3.8707,-0.9193,-0.7581,-1679.44,1935.73,-1782.65
11360,-3.8706,-0.9694,-0.8177,-1663.82,-1017.46,889.10
11370,-3.8705,-1.0070,-0.8783,-70.07,-658.20,123.35
11380,-3.8704,-1.0034,-0.9197,-882.57,-408.26,685.73
11390,-3.8702,-0.9723,-0.9349,-429.44,-1705.14,-1470.58
11400,-3.8701,-0.9353,-0.9492,-445.07,341.80,-876.83
11410,-3.8700,-0.8940,-0.9874,289.31,-1486.21,1123.11
11420,-3.8700,-0.8441,-1.0524,1570.56,1623.23,1513.67
11430,-3.8700,-0.7850,-1.1333,-38.82,1310.79,1497.92
11440,-3.8700,-0.7130,-1.2117,-476.32,-1048.46,1747.74
11450,-3.8700,-0.6254,-1.2665,742.43,920.47,-1627.38
11460,-3.8700,-0.5229,-1.2906,-38.82,1904.97,-1080.63
11470,-3.8700,-0.4139,-1.2899,1070.56,-1188.54,-1018.19
11480,-3.8700,-0.3079,-1.2650,-976.32,-1094.60,-861.94
11490,-3.8699,-0.2063,-1.2219,601.81,-1906.86,106.87
11500,-3.8699,-0.1124,-1.1766,1601.81,-391.05,1216.31
11510,-3.8699,-0.0355,-1.1395,1617.43,1406.01,950.81
11520,-3.8700,0.0255,-1.1108,-538.82,-1843.87,-846.01
11530,-3.8701,0.0776,-1.0891,-726.32,1812.50,-127.20
11540,-3.8702,0.1218,-1.0720,1945.56,593.87,-814.64
11550,-3.8704,0.1643,-1.0514,-398.19,-1218.57,-1939.64
11560,-3.8705,0.2123,-1.0209,1039.31,1422.18,607.30
11570,-3.8707,0.2606,-0.9792,-820.07,1328.49,-861.39
11580,-3.8708,0.2949,-0.9285,1367.43,-1343.26,1763.67
11590,-3.8711,0.3182,-0.8750,1758.06,1156.80,-486.21
11600,-3.8713,0.3435,-0.8292,742.43,0.61,-1.71
11610,-3.8716,0.3768,-0.8004,-23.19,1859.99,-532.90
11620,-3.8718,0.4214,-0.7957,242.43,1547.61,1998.41
11630,-3.8721,0.4749,-0.8065,1945.56,-1842.96,529.66
11640,-3.8723,0.5292,-0.8040,789.31,766.54,482.79
11650,-3.8726,0.5673,-0.7728,-257.57,1094.73,1310.91
11660,-3.8728,0.5757,-0.7186,617.43,1079.22,-1564.03
11670,-3.8729,0.5647,-0.6469,1695.56,16.72,811.10
11680,-3.8730,0.5439,-0.5686,289.31,1204.22,264.34
11690,-3.8733,0.5139,-0.5026,1633.06,-780.21,-391.78
11700,-3.8734,0.4862,-0.4423,1789.31,-327.15,-422.91
11710,-3.8734,0.4574,-0.3822,-1757.57,-608.46,452.21
11720,-3.8737,0.4099,-0.3461,-1445.07,-921.02,-0.79
11730,-3.8738,0.3462,-0.3387,476.81,-296.08,1093.02
11740,-3.8740,0.2850,-0.3391,320.56,641.30,1733.70
11750,-3.8741,0.2339,-0.3326,492.43,594.30,530.58
11760,-3.8743,0.1951,-0.3199,1945.56,1422.30,1983.70
11770,-3.8743,0.1716,-0.3071,976.81,-952.76,436.83
11780,-3.8744,0.1533,-0.2991,1976.81,687.81,1874.39
11790,-3.8745,0.1282,-0.2994,-366.94,1718.99,1749.39
11800,-3.8746,0.0925,-0.3008,414.31,1672.12,1171.26
11810,-3.8748,0.0486,-0.2816,-148.19,1500.12,-1219.36
11820,-3.8746,-0.0060,-0.2347,-1773.19,-46.81,186.89
11830,-3.8746,-0.0752,-0.1849,-757.57,1968.69,-1094.24
11840,-3.8745,-0.1439,-0.1545,-1616.94,343.57,359.01
11850,-3.8745,-0.1940,-0.1465,1586.18,234.07,859.07
11860,-3.8745,-0.2321,-0.1592,-820.07,1265.20,1265.32
11870,-3.8745,-0.2744,-0.1871,-1695.07,-359.86,1718.38
11880,-3.8745,-0.3120,-0.2080,883.06,61.95,-1500.37
11890,-3.8744,-0.3307,-0.2091,70.56,1390.01,124.57
11900,-3.8744,-0.3406,-0.2035,1679.93,1249.33,-1531.68
11910,-3.8743,-0.3441,-0.1981,414.31,1968.08,343.32
11920,-3.8743,-0.3485,-0.1953,-38.82,-1344.48,-1844.18
11930,-3.8741,-0.3655,-0.2046,-601.32,-985.11,1671.45
11940,-3.8740,-0.3995,-0.2301,1226.81,1827.39,-1703.55
11950,-3.8739,-0.4490,-0.2637,867.43,-1438.29,-1594.24
11960,-3.8738,-0.5042,-0.2950,-1460.69,-1735.29,1483.83
11970,-3.8737,-0.5547,-0.3114,-523.19,-1751.04,1061.89
11980,-3.8735,-0.5936,-0.3174,1008.06,155.15,1780.64
11990,-3.8734,-0.6235,-0.3357,23.68,-610.53,-1110.05
12000,-3.8732,-0.6522,-0.3651,195.56,1045.65,108.70
12010,-3.8730,-0.6931,-0.3893,523.68,1279.97,358.64
12020,-3.8729,-0.7517,-0.3988,-710.69,-1813.90,155.46
12030,-3.8728,-0.8292,-0.3987,-210.69,967.22,452.33
12040,-3.8727,-0.9146,-0.4133,1867.43,982.73,1342.96
12050,-3.8724,-0.9769,-0.4583,-1054.44,-892.46,858.52
12060,-3.8721,-0.9957,-0.5048,-1038.82,1357.42,514.71
12070,-3.8717,-0.9834,-0.5250,554.93,-595.70,1280.21
12080,-3.8713,-0.9634,-0.5342,-1866.94,810.55,889.59
12090,-3.8710,-0.9329,-0.5441,695.56,-361.27,1452.03
12100,-3.8706,-0.8883,-0.5500,601.81,-1626.83,-360.47
12110,-3.8701,-0.8414,-0.5548,-1695.07,1607.60,1561.40
12120,-3.8698,-0.7944,-0.5601,304.93,998.35,-376.10
12130,-3.8693,-0.7329,-0.5636,-1679.44,326.54,-1282.35
12140,-3.8689,-0.6855,-0.5688,-1804.44,-126.46,-1844.91
12150,-3.8688,-0.7101,-0.5828,258.06,-798.22,-1626.16
12160,-3.8688,-0.7987,-0.6171,1117.43,1420.47,-1423.03
12170,-3.8688,-0.8799,-0.6837,1773.68,1029.66,-1860.60
12180,-3.8688,-0.9121,-0.7871,-616.94,498.23,1701.78
12190,-3.8688,-0.9067,-0.9104,-741.94,-736.21,451.54
12200,-3.8689,-0.8677,-1.0166,-54.44,-517.46,-1986.21
12210,-3.8690,-0.7896,-1.0842,945.56,1888.92,-189.51
12220,-3.8690,-0.6782,-1.1233,-1054.44,1232.79,1997.86
12230,-3.8690,-0.5437,-1.1525,1195.56,233.03,75.93
12240,-3.8691,-0.4003,-1.1741,-1585.69,498.90,-580.38
12250,-3.8691,-0.2736,-1.1819,773.68,1733.58,-1049.19
12260,-3.8691,-0.1755,-1.1744,992.43,733.83,544.56
12270,-3.8693,-0.0947,-1.1516,1539.31,1687.13,841.43
12280,-3.8694,-0.0125,-1.1123,-116.94,609.13,1075.87
12290,-3.8695,0.0790,-1.0548,-1585.69,1640.56,1638.43
12300,-3.8696,0.1638,-0.9880,-1882.57,984.50,1576.05
12310,-3.8699,0.2185,-0.9320,976.81,1531.56,-830.08
12320,-3.8701,0.2384,-0.8995,-23.19,703.49,1779.42
12330,-3.8705,0.2482,-0.8879,-1476.32,859.80,-1001.77
12340,-3.8707,0.2653,-0.8827,-226.32,-1655.82,1185.73
12350,-3.8710,0.2843,-0.8705,1961.18,-983.89,732.60
12360,-3.8712,0.3112,-0.8430,398.68,578.67,607.67
12370,-3.8716,0.3463,-0.8007,-163.82,94.30,-220.40
12380,-3.8718,0.3788,-0.7549,336.18,1516.30,-1689.09
12390,-3.8721,0.4124,-0.7091,492.43,-624.27,1873.47
12400,-3.8723,0.4426,-0.6716,789.31,1235.17,-1329.53
12410,-3.8726,0.4596,-0.6467,664.31,-1967.90,-16.97
12420,-3.8727,0.4677,-0.6271,-1163.82,1219.60,1295.59
12430,-3.8729,0.4707,-0.6080,-132.57,-264.77,-1704.41
12440,-3.8730,0.4640,-0.5831,258.06,-1827.21,295.65
12450,-3.8733,0.4376,-0.5557,-601.32,1360.23,-1001.16
12460,-3.8734,0.3910,-0.5332,23.68,875.85,686.40
12470,-3.8737,0.3341,-0.5188,-1945.07,-249.27,1467.65
12480,-3.8739,0.2814,-0.5104,-1226.32,1594.36,-1016.66
12490,-3.8740,0.2404,-0.5020,23.68,-1327.58,1967.71
12500,-3.8741,0.2157,-0.4801,-1226.32,-249.57,1827.09
12510,-3.8743,0.2072,-0.4329,-382.57,-1452.76,-1532.23
12520,-3.8744,0.1965,-0.3728,-1476.32,594.12,-313.35
12530,-3.8744,0.1686,-0.3232,1164.31,281.62,577.39
12540,-3.8745,0.1293,-0.2904,1586.18,-1374.69,1827.45
12550,-3.8745,0.0879,-0.2642,554.93,-1171.63,921.26
12560,-3.8745,0.0374,-0.2444,-741.94,-1812.38,952.58
12570,-3.8745,-0.0208,-0.2360,789.31,718.81,46.39
12580,-3.8746,-0.0687,-0.2321,1351.81,1812.44,-1469.24
12590,-3.8746,-0.1000,-0.2188,-788.82,-1687.68,-1156.74
12600,-3.8745,-0.1268,-0.1886,-788.82,15.38,1952.70
12610,-3.8744,-0.1678,-0.1542,-226.32,-125.31,796.45
12620,-3.8744,-0.2241,-0.1349,-1476.32,280.88,796.57
12630,-3.8745,-0.2792,-0.1370,-679.44,-1250.49,-140.93
12640,-3.8744,-0.3219,-0.1555,273.68,-1516.17,562.19
12650,-3.8744,-0.3452,-0.1785,-1195.07,108.70,-1265.93
12660,-3.8743,-0.3550,-0.1957,-179.44,1171.14,1749.63
12670,-3.8741,-0.3608,-0.2015,-1429.44,-1031.98,1608.95
12680,-3.8740,-0.3746,-0.2064,1820.56,-1781.98,437.07
12690,-3.8740,-0.3977,-0.2249,54.93,1593.02,1546.45
12700,-3.8740,-0.4222,-0.2427,1101.81,-766.42,-78.61
12710,-3.8738,-0.4556,-0.2462,1961.18,952.27,1827.64
12720,-3.8735,-0.5026,-0.2413,1695.56,499.08,1187.01
12730,-3.8734,-0.5553,-0.2446,-320.07,1123.96,-1125.49
12740,-3.8733,-0.5991,-0.2732,929.93,702.03,-1719.24
12750,-3.8732,-0.6302,-0.3253,-679.44,1045.65,936.95
12760,-3.8730,-0.6588,-0.3893,-663.82,-1626.28,343.08
12770,-3.8729,-0.7012,-0.4486,-320.07,-1813.84,77.33
12780,-3.8728,-0.7589,-0.4834,-1741.94,-1407.65,92.83
12790,-3.8727,-0.8167,-0.4974,-1132.57,-1860.90,1639.65
12800,-3.8724,-0.8533,-0.5021,-523.19,342.10,-1907.23
12810,-3.8721,-0.8646,-0.5145,-1210.69,-251.71,1405.21
12820,-3.8717,-0.8586,-0.5454,1336.18,-1845.46,1967.71
12830,-3.8713,-0.8322,-0.5803,-1898.19,-1798.58,1920.78
12840,-3.8710,-0.7871,-0.6055,1492.43,1732.73,1983.22
12850,-3.8706,-0.7357,-0.6100,-741.94,-1485.96,-360.60
12860,-3.8701,-0.6986,-0.5918,1836.18,1936.04,1920.65
12870,-3.8698,-0.6879,-0.5634,-1413.82,264.22,-407.41
12880,-3.8694,-0.6995,-0.5433,-38.82,-95.15,-626.16
12890,-3.8691,-0.7220,-0.5448,-1523.19,-1532.65,-954.22
12900,-3.8690,-0.7550,-0.5726,-413.82,-1720.21,1186.40
12910,-3.8690,-0.7966,-0.6168,-632.57,-1282.78,826.97
12920,-3.8690,-0.8387,-0.6655,-1960.69,1060.91,1780.03
12930,-3.8690,-0.8730,-0.7148,648.68,-1173.52,-579.47
12940,-3.8689,-0.8680,-0.7545,258.06,513.92,1061.10
12950,-3.8689,-0.8053,-0.7783,898.68,-564.21,-220.28
12960,-3.8688,-0.7144,-0.7946,929.93,389.04,-1470.28
12970,-3.8688,-0.6224,-0.8135,570.56,-1688.90,-657.84
12980,-3.8688,-0.5227,-0.8315,336.18,-110.60,-1439.15
12990,-3.8688,-0.4050,-0.8468,1101.81,1577.09,-1798.52
13000,-3.8688,-0.2780,-0.8632,164.31,-375.79,-1673.58
13010,-3.8688,-0.1562,-0.8779,429.93,1530.70,1170.17
13020,-3.8689,-0.0436,-0.8888,8.06,-359.68,-1845.52
13030,-3.8690,0.0615,-0.8995,-1570.07,-1750.12,1060.73
13040,-3.8693,0.1558,-0.9166,-116.94,859.44,1998.23
13050,-3.8695,0.2333,-0.9335,-54.44,-1327.88,1904.42
13060,-3.8698,0.2812,-0.9398,1867.43,516.05,873.17
13070,-3.8701,0.3063,-0.9331,8.06,-296.33,-1173.77
13080,-3.8704,0.3276,-0.9126,-788.82,563.05,310.67
13090,-3.8707,0.3501,-0.8867,1945.56,-811.89,1841.92
13100,-3.8710,0.3828,-0.8623,820.56,-1499.33,13.85
13110,-3.8713,0.4111,-0.8363,1008.06,1625.73,-1392.33
13120,-3.8716,0.4191,-0.8013,633.06,953.92,1638.98
13130,-3.8718,0.4132,-0.7593,1648.68,1438.29,1029.66
13140,-3.8721,0.4155,-0.7253,898.68,-1186.71,1014.10
13150,-3.8723,0.4398,-0.7057,1195.56,-842.96,-1610.84
13160,-3.8724,0.4696,-0.6949,304.93,1672.73,592.35
13170,-3.8727,0.4869,-0.6885,117.43,-952.21,-1360.78
13180,-3.8728,0.4895,-0.6832,-1663.82,-124.08,264.22
13190,-3.8730,0.4768,-0.6863,-1335.69,547.79,1483.03
13200,-3.8733,0.4508,-0.6871,1039.31,157.17,-1079.47
13210,-3.8734,0.4271,-0.6693,1711.18,47.73,1248.66
13220,-3.8735,0.4047,-0.6383,-1320.07,-1671.08,654.91
13230,-3.8737,0.3794,-0.5995,-195.07,-1702.39,1342.47
13240,-3.8738,0.3610,-0.5515,570.56,-733.64,-1110.60
13250,-3.8738,0.3538,-0.4882,-1788.82,1406.92,-1907.35
13260,-3.8738,0.3383,-0.4208,1289.31,1516.30,-1672.85
13270,-3.8738,0.3044,-0.3658,-695.07,-1858.76,1139.77
13280,-3.8739,0.2620,-0.3295,-1023.19,1172.42,1718.02
13290,-3.8740,0.2142,-0.3115,1539.31,1828.61,1249.33
13300,-3.8741,0.1599,-0.3093,-570.07,125.37,983.76
13310,-3.8743,0.1050,-0.3201,476.81,406.56,1530.64
13320,-3.8744,0.0566,-0.3363,1445.56,-968.57,-656.92
13330,-3.8744,0.0128,-0.3440,-741.94,953.19,-1875.67
13340,-3.8744,-0.0344,-0.3297,1648.68,-31.25,1671.14
13350,-3.8744,-0.0903,-0.2953,-398.19,1812.38,1296.20
13360,-3.8744,-0.1552,-0.2504,445.56,-1781.43,202.51
13370,-3.8745,-0.2228,-0.1964,148.68,-31.56,-813.05
13380,-3.8745,-0.2906,-0.1422,-507.57,-1125.49,-406.68
13390,-3.8744,-0.3690,-0.1082,-1195.07,1811.89,187.19
13400,-3.8745,-0.4512,-0.1021,773.68,-1828.86,-453.37
13410,-3.8745,-0.5114,-0.1210,-1741.94,-1047.79,-672.12
13420,-3.8744,-0.5350,-0.1595,-1445.07,530.21,999.76
13430,-3.8744,-0.5378,-0.2080,-476.32,-407.35,-1156.62
13440,-3.8744,-0.5427,-0.2574,-835.69,1389.53,-1047.30
13450,-3.8744,-0.5586,-0.2988,-1460.69,-938.60,-1047.42
13460,-3.8744,-0.5879,-0.3260,508.06,1764.53,-94.36
13470,-3.8743,-0.6251,-0.3411,758.06,-1719.91,1499.33
13480,-3.8741,-0.6550,-0.3281,-7.57,358.09,1936.83
13490,-3.8739,-0.6766,-0.2850,164.31,-1985.66,1108.70
13500,-3.8738,-0.6946,-0.2648,1398.68,-470.09,-1391.24
13510,-3.8737,-0.6998,-0.2933,-898.19,-1876.40,1593.20
13520,-3.8735,-0.6967,-0.3314,-1570.07,-1532.65,718.14
13530,-3.8734,-0.7053,-0.3461,-1163.82,1592.35,-1891.30
13540,-3.8732,-0.7324,-0.3407,1726.81,-282.65,-531.98
13550,-3.8728,-0.7518,-0.3380,-1741.94,404.79,-516.30
13560,-3.8724,-0.7502,-0.3456,-226.32,748.47,-297.55
13570,-3.8719,-0.7399,-0.3633,-23.19,-220.28,639.89
13580,-3.8716,-0.7268,-0.3949,1304.93,1514.16,468.02
13590,-3.8713,-0.6857,-0.4314,-1023.19,1467.29,-1078.92
13600,-3.8708,-0.6079,-0.4625,242.43,795.53,530.40
13610,-3.8704,-0.5487,-0.4879,-1804.44,811.28,1795.96
13620,-3.8699,-0.5591,-0.5177,1773.68,1561.40,139.65
13630,-3.8698,-0.6292,-0.5659,445.56,1748.90,-876.04
13640,-3.8696,-0.7014,-0.6323,-523.19,-423.16,-1563.66
13650,-3.8695,-0.7283,-0.7019,-1773.19,-923.28,-1001.28
13660,-3.8693,-0.7068,-0.7583,-1210.69,-1829.59,-1954.53
13670,-3.8690,-0.6608,-0.7772,1539.31,-1048.28,1889.10
13680,-3.8688,-0.6188,-0.7563,-570.07,529.91,185.97
13690,-3.8688,-0.6045,-0.7306,804.93,-798.10,-782.78
13700,-3.8687,-0.5995,-0.7152,-1366.94,-1501.22,936.04
13710,-3.8685,-0.5673,-0.7010,-726.32,467.53,-1735.78
13720,-3.8683,-0.5024,-0.6913,-601.32,-1719.91,-126.40
13730,-3.8679,-0.4211,-0.7063,-304.44,-469.79,857.97
13740,-3.8678,-0.3357,-0.7560,-1898.19,1608.52,420.47
13750,-3.8679,-0.2377,-0.8229,1039.31,-750.67,-1642.15
13760,-3.8680,-0.1188,-0.8962,1586.18,-1312.99,1217.10
13770,-3.8682,0.0081,-0.9641,804.93,1296.63,1076.35
13780,-3.8682,0.1195,-1.0016,1039.31,593.75,138.73
13790,-3.8683,0.1995,-0.9927,-695.07,-202.94,-1814.51
13800,-3.8684,0.2480,-0.9376,1539.31,937.87,1154.30
13810,-3.8687,0.2749,-0.8632,-241.94,-15.20,-1361.27
13820,-3.8689,0.3005,-0.8048,-804.44,1516.11,-1532.96
13830,-3.8691,0.3259,-0.7802,-1523.19,984.92,123.41
13840,-3.8696,0.3452,-0.7839,1726.81,141.24,-376.53
13850,-3.8700,0.3599,-0.8016,195.56,-343.08,1076.54
13860,-3.8705,0.3695,-0.8282,-1929.44,1391.30,1123.41
13870,-3.8710,0.3956,-0.8499,-695.07,1985.05,1467.10
13880,-3.8715,0.4463,-0.8446,-1351.32,-780.52,-454.83
13890,-3.8717,0.5067,-0.8102,1133.06,-108.52,76.42
13900,-3.8721,0.5579,-0.7632,867.43,297.85,1467.16
13910,-3.8724,0.5907,-0.7150,-585.69,-1686.46,-1689.03
13920,-3.8728,0.6116,-0.6680,-382.57,485.47,-782.65
13930,-3.8730,0.6271,-0.6284,-1710.69,-1498.84,795.53
13940,-3.8734,0.6464,-0.5991,273.68,-436.28,-532.53
13950,-3.8737,0.6633,-0.5748,-1257.57,-686.28,-626.22
13960,-3.8738,0.6693,-0.5466,914.31,-1576.84,1170.72
13970,-3.8740,0.6614,-0.5144,1679.93,-1967.47,-16.72
13980,-3.8741,0.6368,-0.4833,664.31,-1842.47,-1672.91
13990,-3.8743,0.5978,-0.4565,1523.68,-1858.15,233.40
14000,-3.8745,0.5442,-0.4386,523.68,1563.66,-1735.29
14010,-3.8746,0.4845,-0.4326,1664.31,-139.59,1061.58
14020,-3.8748,0.4250,-0.4402,-1976.32,625.92,124.15
14030,-3.8750,0.3672,-0.4486,-1585.69,-342.96,-688.42
14040,-3.8439,0.3170,-0.4355,-991.94,-1421.20,-32.17
14050,-3.8439,0.2711,-0.3967,586.18,250.61,-1360.23
14060,-3.8439,0.2218,-0.3473,-1288.82,1219.24,1967.96
14070,-3.8439,0.1724,-0.2976,398.68,-452.70,1452.39
14080,-3.8439,0.1226,-0.2557,-1929.44,1906.56,1452.51
14090,-3.8439,0.0709,-0.2275,-304.44,-734.19,1765.08
14100,-3.8439,0.0258,-0.2089,1086.18,-1124.88,-1312.99
14110,-3.8439,-0.0159,-0.1973,-695.07,1265.62,-62.93
14120,-3.8750,-0.0601,-0.1929,1976.81,-1234.44,780.82
14130,-3.8750,-0.1002,-0.1930,320.56,-672.00,1421.45
14140,-3.8750,-0.1305,-0.1968,-820.07,-687.74,-1062.93
14150,-3.8749,-0.1521,-0.1958,-695.07,-1172.18,1796.45
14160,-3.8748,-0.1656,-0.1759,539.31,-1047.18,-828.55
14170,-3.8745,-0.1881,-0.1415,-1195.07,1499.63,-1015.99
14180,-3.8743,-0.2438,-0.1185,-70.07,1905.82,1030.94
14190,-3.8743,-0.3231,-0.1256,804.93,843.26,-1172.12
14200,-3.8743,-0.3949,-0.1644,-1351.32,-63.17,-844.06
14210,-3.8741,-0.4429,-0.2233,1461.18,-1032.04,-1625.37
14220,-3.8739,-0.4702,-0.2667,-679.44,-563.42,1546.39
14230,-3.8735,-0.4836,-0.2346,-179.44,1874.02,1530.70
14240,-3.8730,-0.5096,-0.1244,-1898.19,1983.40,1733.89
14250,-3.8726,-0.5731,-0.0265,-1226.32,92.71,437.26
14260,-3.8723,-0.6782,-0.0115,-1351.32,623.84,15.56
14270,-3.8723,-0.8018,-0.0656,1195.56,-1454.47,937.44
14280,-3.8722,-0.9004,-0.1353,1383.06,-376.59,749.82
14290,-3.8718,-0.9755,-0.1854,758.06,-1298.65,-1375.31
14300,-3.8712,-1.0392,-0.2303,-851.32,279.30,952.76
14310,-3.8708,-1.0769,-0.3098,-1007.57,-1470.83,-156.74
14320,-3.8705,-1.0725,-0.4006,-1835.69,357.24,-1234.99
14330,-3.8701,-1.0409,-0.4318,-1273.19,732.24,-578.92
14340,-3.8696,-1.0148,-0.4001,-1226.32,747.92,-985.23
14350,-3.8691,-0.9913,-0.3602,-1882.57,794.86,139.83
14360,-3.8689,-0.9276,-0.3456,1117.43,1904.30,1280.52
14370,-3.8688,-0.8289,-0.3711,1273.68,-220.58,-1203.86
14380,-3.8687,-0.7842,-0.4449,1914.31,513.98,655.52
14390,-3.8687,-0.8212,-0.5452,-366.94,-939.09,-1266.54
14400,-3.8684,-0.8481,-0.6250,-1101.32,-1767.27,-1157.35
14410,-3.8680,-0.8086,-0.6709,-554.44,13.92,-485.60
14420,-3.8678,-0.7307,-0.6960,508.06,-1860.96,-188.84
14430,-3.8678,-0.6389,-0.7112,-1523.19,-1079.59,-1610.78
14440,-3.8680,-0.5498,-0.7347,-1773.19,983.09,842.35
14450,-3.8684,-0.4865,-0.7755,1633.06,1967.65,889.16
14460,-3.8688,-0.4513,-0.8341,1742.43,749.02,-1345.28
14470,-3.8690,-0.4119,-0.8995,-1757.57,1249.08,-1204.77
14480,-3.8691,-0.3253,-0.9557,-710.69,874.15,795.10
14490,-3.8694,-0.1857,-0.9973,-1632.57,1686.83,-798.77
14500,-3.8695,-0.0150,-1.0192,242.43,359.01,435.55
14510,-3.8698,0.1656,-1.0300,-1913.82,1562.44,60.49
14520,-3.8701,0.3452,-1.0540,1211.18,156.56,-752.01
14530,-3.8704,0.5088,-1.0940,195.56,1094.42,-158.33
14540,-3.8705,0.6472,-1.1338,1133.06,-30.27,1482.18
14550,-3.8707,0.7325,-1.1729,-1148.19,-1123.78,763.37
14560,-3.8711,0.7721,-1.2050,1773.68,1876.40,1153.93
14570,-3.8715,0.7943,-1.2170,-1163.82,1767.09,591.37
14580,-3.8718,0.7894,-1.2092,1679.93,220.28,638.24
14590,-3.8722,0.7568,-1.1779,1054.93,1220.28,-1564.88
14600,-3.8724,0.7131,-1.1206,883.06,1235.84,1435.18
14610,-3.8727,0.6741,-1.0422,-710.69,563.84,935.30
14620,-3.8729,0.6479,-0.9526,-1710.69,-1404.97,497.92
14630,-3.8732,0.6393,-0.8615,-1054.44,-1936.28,1310.61
14640,-3.8733,0.6392,-0.7731,1836.18,1735.60,904.54
14650,-3.8734,0.6299,-0.7007,1820.56,1048.10,-1751.53
14660,-3.8735,0.6083,-0.6582,633.06,-1686.28,-907.65
14670,-3.8737,0.5886,-0.6521,1867.43,-248.84,-1891.97
14680,-3.8739,0.5787,-0.6711,-648.19,532.35,-938.78
14690,-3.8741,0.5757,-0.6930,-1913.82,-1905.15,-610.72
14700,-3.8743,0.5679,-0.7048,1695.56,-702.03,279.85
14710,-3.8745,0.5509,-0.7065,695.56,1782.35,1467.35
14720,-3.8748,0.5173,-0.7002,-1476.32,1563.54,-1438.90
14730,-3.8749,0.4705,-0.6722,-1773.19,-1624.02,701.72
14740,-3.8750,0.4202,-0.6150,226.81,1954.04,1795.53
14750,-3.8750,0.3688,-0.5377,1789.31,1282.04,1373.78
14760,-3.8750,0.3209,-0.4613,-788.82,-827.45,1155.15
14770,-3.8439,0.2853,-0.4102,1086.18,953.74,-94.67
14780,-3.8439,0.2656,-0.3909,523.68,-499.45,-1797.73
14790,-3.8439,0.2545,-0.3898,-1991.94,1969.24,717.96
14800,-3.8440,0.2412,-0.3831,586.18,-1890.14,-172.67
14810,-3.8439,0.2169,-0.3562,-1116.94,-1030.82,405.46
14820,-3.8439,0.1823,-0.3132,-226.32,-1593.38,-1235.11
14830,-3.8750,0.1383,-0.2686,-663.82,-93.44,1249.33
14840,-3.8750,0.0850,-0.2328,1711.18,1625.24,-1359.92
14850,-3.8750,0.0280,-0.2037,-1116.94,-1796.75,-1000.49
14860,-3.8750,-0.0280,-0.1731,-413.82,1921.88,-187.93
14870,-3.8749,-0.0834,-0.1427,429.93,1859.31,-1453.49
14880,-3.8748,-0.1360,-0.1229,1336.18,1749.82,-1812.81
14890,-3.8746,-0.1786,-0.1168,-1398.19,280.94,937.26
14900,-3.8746,-0.2124,-0.1152,1148.68,1062.13,-1531.49
14910,-3.8745,-0.2423,-0.1061,820.56,1265.20,234.13
14920,-3.8745,-0.2843,-0.0933,992.43,-1562.99,-1297.12
14930,-3.8744,-0.3458,-0.0842,-382.57,77.51,1093.57
14940,-3.8743,-0.4104,-0.0743,-257.57,1233.64,765.44
14950,-3.8741,-0.4690,-0.0669,-523.19,-1500.85,-1578.31
14960,-3.8740,-0.5208,-0.0789,-23.19,-547.85,-875.18
14970,-3.8739,-0.5546,-0.1091,1351.81,1920.84,-1265.81
14980,-3.8738,-0.5787,-0.1477,1023.68,-1954.22,-78.37
14990,-3.8735,-0.6122,-0.2045,1929.93,1108.22,1030.94
15000,-3.8734,-0.6547,-0.2749,1648.68,1842.53,155.82
15010,-3.8734,-0.7090,-0.3337,211.18,826.84,-516.17
15020,-3.8732,-0.7864,-0.3757,1258.06,1295.47,171.20
15030,-3.8730,-0.8795,-0.4048,-648.19,-79.71,-1282.04
15040,-3.8727,-0.9611,-0.4110,-570.07,201.35,1296.08
15050,-3.8723,-1.0103,-0.3898,992.43,-595.64,-828.98
15060,-3.8718,-1.0145,-0.3477,-1304.44,-1877.01,1889.83
15070,-3.8713,-0.9771,-0.2805,-1851.32,-486.39,-1516.36
15080,-3.8707,-0.9224,-0.1975,-1054.44,107.42,-844.30
15090,-3.8701,-0.8784,-0.1260,1945.56,-1267.46,-16.05
15100,-3.8696,-0.8499,-0.0948,-429.44,-111.15,-765.93
15110,-3.8693,-0.8315,-0.1196,-773.19,-126.71,656.01
15120,-3.8691,-0.8094,-0.1877,1570.56,701.48,-781.49
15130,-3.8689,-0.7644,-0.2836,398.68,-17.21,1546.45
15140,-3.8687,-0.7153,-0.3973,-1835.69,-282.78,1546.26
15150,-3.8684,-0.6880,-0.5024,445.56,1154.85,-922.67
15160,-3.8682,-0.6719,-0.5623,-54.44,-298.28,-344.79
15170,-3.8679,-0.6564,-0.5807,-1991.94,45.53,1405.15
15180,-3.8679,-0.6432,-0.5939,-7.57,1686.16,-954.28
15190,-3.8679,-0.6193,-0.6294,1679.93,-1.28,780.03
15200,-3.8680,-0.5729,-0.7010,742.43,-548.10,811.22
15210,-3.8682,-0.5078,-0.8025,-1320.07,-1719.91,1545.47
15220,-3.8682,-0.4296,-0.8943,-991.94,1295.84,389.04
15230,-3.8682,-0.3376,-0.9572,1023.68,1546.02,873.23
15240,-3.8682,-0.2283,-0.9983,789.31,1499.33,201.23
15250,-3.8683,-0.1099,-1.0115,-1210.69,233.89,76.17
15260,-3.8685,-0.0012,-1.0183,1945.56,-1453.37,154.24
15270,-3.8689,0.0914,-1.0454,-148.19,1671.81,-1642.64
15280,-3.8691,0.1852,-1.0867,-288.82,-1812.38,1216.67
15290,-3.8694,0.2914,-1.1355,-288.82,906.56,888.49
15300,-3.8696,0.3972,-1.1694,1304.93,-1343.20,1153.99
15310,-3.8699,0.4957,-1.1646,-1148.19,-1686.77,1075.81
15320,-3.8702,0.5522,-1.1458,-538.82,-1061.58,1450.81
15330,-3.8707,0.5601,-1.1230,-1304.44,1344.79,-1017.88
15340,-3.8711,0.5588,-1.0778,-304.44,251.04,1904.05
15350,-3.8713,0.5634,-1.0188,-460.69,-1952.09,872.86
15360,-3.8716,0.5736,-0.9534,117.43,1594.85,-861.39
15370,-3.8717,0.5822,-0.8777,1429.93,1969.85,1685.61
15380,-3.8719,0.5845,-0.7975,-1476.32,-342.65,-845.52
15390,-3.8722,0.5808,-0.7295,-1179.44,1922.97,-954.71
15400,-3.8724,0.5784,-0.6854,-1648.19,-1373.90,1701.66
15410,-3.8727,0.5874,-0.6587,-1960.69,266.72,358.03
15420,-3.8730,0.6003,-0.6410,-804.44,-311.40,-391.97
15430,-3.8733,0.6028,-0.6309,851.81,1954.28,-829.41
15440,-3.8735,0.5988,-0.6265,1164.31,-748.84,-1407.53
15450,-3.8738,0.5959,-0.6227,648.68,-186.34,-1798.16
15460,-3.8740,0.5914,-0.6129,289.31,298.03,-1626.22
15470,-3.8743,0.5781,-0.5935,-288.82,1547.97,-1235.60
15480,-3.8745,0.5508,-0.5649,-1991.94,32.35,-438.66
15490,-3.8746,0.5068,-0.5322,-1491.94,-311.46,1530.09
15500,-3.8748,0.4611,-0.4924,883.06,-124.02,1858.28
15510,-3.8748,0.4312,-0.4395,-976.32,969.60,1014.65
15520,-3.8748,0.4116,-0.3796,-804.44,-249.21,1686.58
15530,-3.8748,0.3850,-0.3269,695.56,-592.96,1436.71
15540,-3.8749,0.3494,-0.2883,1289.31,-1843.02,-141.30
15550,-3.8749,0.3138,-0.2607,726.81,-905.58,-1516.24
15560,-3.8749,0.2769,-0.2377,179.93,-1374.39,-1766.17
15570,-3.8749,0.2307,-0.2198,-554.44,1578.61,-1734.86
15580,-3.8749,0.1736,-0.2163,1539.31,-140.20,937.01
15590,-3.8750,0.1133,-0.2241,-1773.19,312.81,-1047.30
15600,-3.8750,0.0583,-0.2285,-1491.94,-687.32,-1437.99
15610,-3.8750,0.0045,-0.2223,-523.19,-1249.94,-812.99
15620,-3.8749,-0.0476,-0.1938,586.18,-453.12,93.26
15630,-3.8749,-0.0942,-0.1282,1914.31,-797.00,-875.43
15640,-3.8746,-0.1440,-0.0431,-54.44,-390.87,202.82
15650,-3.8745,-0.1998,0.0220,1570.56,-1500.31,1515.50
15660,-3.8744,-0.2557,0.0457,-1570.07,-1172.30,-1703.12
15670,-3.8743,-0.3118,0.0310,-726.32,1858.83,1937.56
15680,-3.8741,-0.3685,-0.0137,101.81,-16.24,656.25
15690,-3.8740,-0.4137,-0.0724,836.18,-1735.11,421.81
15700,-3.8739,-0.4542,-0.1356,-945.07,-1250.85,-1875.18
15710,-3.8737,-0.4993,-0.2007,1867.43,-1344.67,843.44
15720,-3.8734,-0.5485,-0.2466,101.81,-1672.85,640.20
15730,-3.8732,-0.6093,-0.2544,1804.93,452.03,1733.89
15740,-3.8729,-0.6875,-0.2362,-1976.32,-548.10,1077.58
15750,-3.8728,-0.7825,-0.2079,8.06,1779.91,-1922.36
15760,-3.8727,-0.8970,-0.1788,-148.19,1404.66,-47.30
15770,-3.8724,-1.0367,-0.1670,1195.56,1123.23,-672.24
15780,-3.8722,-1.1718,-0.1783,-695.07,-1361.45,-109.74
15790,-3.8718,-1.2777,-0.2124,-1976.32,1185.18,-1625.37
15800,-3.8715,-1.3401,-0.2656,461.18,825.62,-1562.93
15810,-3.8711,-1.3337,-0.3019,476.81,-1987.00,-1828.67
15820,-3.8707,-1.2612,-0.2805,1289.31,1372.38,-1766.24
15830,-3.8704,-1.1639,-0.2222,-1429.44,106.87,-1016.17
15840,-3.8700,-1.0701,-0.1703,-976.32,-424.19,-1359.86
15850,-3.8696,-0.9689,-0.1493,-960.69,-1783.39,327.76
15860,-3.8695,-0.8564,-0.1812,-7.57,904.30,-1547.18
15870,-3.8694,-0.7561,-0.2668,-1616.94,826.42,1249.63
15880,-3.8693,-0.7021,-0.3838,-773.19,1857.85,608.83
15890,-3.8691,-0.6837,-0.4999,-1866.94,-1110.78,-63.29
15900,-3.8688,-0.6547,-0.5708,492.43,29.91,-344.73
15910,-3.8683,-0.6003,-0.5770,211.18,-1048.16,811.34
15920,-3.8680,-0.5240,-0.5546,-835.69,-1844.97,-1516.78
15930,-3.8679,-0.4148,-0.5494,929.93,1030.21,-907.35
15940,-3.8678,-0.2794,-0.5781,-1085.69,1686.65,420.78
15950,-3.8678,-0.1455,-0.6373,242.43,-1984.92,14.47
15960,-3.8679,-0.0287,-0.7111,1383.06,-1562.81,-657.53
15970,-3.8679,0.0636,-0.7802,336.18,999.94,-610.78
15980,-3.8679,0.1448,-0.8429,148.68,140.75,-548.40
15990,-3.8679,0.2362,-0.9019,-1460.69,109.62,-1673.52
16000,-3.8680,0.3335,-0.9525,-1757.57,562.93,-1095.52
16010,-3.8682,0.4155,-0.9889,-1304.44,-1921.26,716.86
16020,-3.8684,0.4952,-0.9968,1195.56,1422.67,1029.30
16030,-3.8688,0.5767,-0.9773,-601.32,407.17,-611.33
16040,-3.8691,0.6260,-0.9502,1820.56,-1092.65,-876.95
16050,-3.8695,0.6564,-0.9147,133.06,-1623.78,1701.23
16060,-3.8700,0.6744,-0.8713,23.68,-1076.84,-673.71
16070,-3.8704,0.6774,-0.8252,-1663.82,470.03,638.92
16080,-3.8708,0.6783,-0.7655,-1288.82,-1623.72,-1720.40
16090,-3.8712,0.6888,-0.6892,-1163.82,-1983.09,1310.97
16100,-3.8716,0.7079,-0.6127,179.93,-217.41,1748.60
16110,-3.8719,0.7211,-0.5547,-1382.57,1579.47,1842.53
16120,-3.8723,0.7275,-0.5273,304.93,1001.40,1045.78
16130,-3.8727,0.7247,-0.5282,1133.06,501.40,45.84
16140,-3.8730,0.7115,-0.5405,773.68,392.03,170.84
16150,-3.8734,0.6912,-0.5419,-913.82,-1186.16,-1313.60
16160,-3.8737,0.6737,-0.5200,476.81,-1358.03,-782.35
16170,-3.8739,0.6565,-0.4821,-1757.57,1438.78,-297.91
16180,-3.8741,0.6356,-0.4440,39.31,-1701.84,-313.48
16190,-3.8743,0.6141,-0.4067,1367.43,-826.90,405.33
16200,-3.8745,0.5934,-0.3676,-1382.57,-61.34,-1516.48
16210,-3.8746,0.5648,-0.3413,-38.82,954.22,1093.02
16220,-3.8749,0.5217,-0.3387,304.93,313.60,-828.80
16230,-3.8750,0.4698,-0.3525,-1210.69,641.60,577.45
16240,-3.8440,0.4110,-0.3674,148.68,-1124.08,-1453.86
16250,-3.8441,0.3444,-0.3729,617.43,969.54,1811.77
16260,-3.8442,0.2758,-0.3580,86.18,266.30,1733.64
16270,-3.8444,0.2120,-0.3167,-695.07,-1827.64,-1110.11
16280,-3.8444,0.1465,-0.2648,-851.32,-530.88,1874.33
16290,-3.8444,0.0720,-0.2269,-1241.94,-1890.38,1624.45
16300,-3.8444,0.0043,-0.2050,1226.81,-1046.75,1577.64
16310,-3.8444,-0.0421,-0.1864,554.93,1765.62,-1125.43
16320,-3.8442,-0.0775,-0.1700,-1382.57,156.13,-1984.74
16330,-3.8441,-0.1202,-0.1654,-1913.82,-1750.18,999.63
16340,-3.8441,-0.1727,-0.1760,617.43,-1156.49,-1484.74
16350,-3.8440,-0.2249,-0.1897,1898.68,1484.01,405.88
16360,-3.8439,-0.2692,-0.1942,-773.19,-266.11,640.20
16370,-3.8750,-0.3124,-0.1965,1554.93,-844.30,-1531.68
16380,-3.8748,-0.3538,-0.2026,23.68,-1141.24,733.95
16390,-3.8745,-0.3929,-0.1934,-1273.19,-1922.61,655.82
16400,-3.8743,-0.4318,-0.1584,1711.18,-735.17,-234.80
16410,-3.8738,-0.4656,-0.1200,742.43,-266.48,374.63
16420,-3.8734,-0.4883,-0.0908,414.31,655.33,1312.26
16430,-3.8729,-0.5063,-0.0638,1508.06,389.65,1359.19
16440,-3.8723,-0.5469,-0.0378,-804.44,-157.29,202.94
16450,-3.8718,-0.6404,-0.0148,-1991.94,-829.22,1406.13
16460,-3.8715,-0.8058,0.0034,-1960.69,-1876.28,1093.69
16470,-3.8713,-1.0061,0.0055,867.43,451.54,1562.50
16480,-3.8713,-1.1656,-0.0184,-773.19,716.74,-812.50
16490,-3.8711,-1.2238,-0.0563,-1195.07,1653.93,-984.44
16500,-3.8705,-1.1744,-0.0776,-632.57,810.06,-843.87
16510,-3.8696,-1.0682,-0.0751,1679.93,-1924.19,1515.44
16520,-3.8690,-0.9431,-0.0640,-726.32,-1595.89,1952.94
16530,-3.8687,-0.8019,-0.0433,-710.69,-173.77,-1734.56
16540,-3.8684,-0.6494,-0.0173,1367.43,-1532.84,-1218.87
16550,-3.8682,-0.5033,-0.0088,883.06,1795.59,-1671.94
16560,-3.8679,-0.3910,-0.0289,-413.82,-1110.41,1578.06
16570,-3.8678,-0.3538,-0.0797,1961.18,311.71,-1000.06
16580,-3.8677,-0.3876,-0.1520,-1273.19,1811.77,374.82
16590,-3.8677,-0.3916,-0.2263,-1601.32,561.71,202.82
16600,-3.8676,-0.2834,-0.2968,1883.06,-953.92,546.39
16610,-3.8672,-0.0940,-0.3589,-273.19,-1969.36,546.26
16620,-3.8667,0.1049,-0.3959,-23.19,-1922.12,202.39
16630,-3.8665,0.2529,-0.4114,1429.93,1328.31,1811.71
16640,-3.8665,0.3271,-0.4346,383.06,-655.76,796.02
16650,-3.8667,0.3611,-0.4801,1883.06,375.61,264.77
16660,-3.8671,0.4220,-0.5292,-1773.19,-1452.45,1827.15
16670,-3.8673,0.5195,-0.5513,-1976.32,266.42,-907.29
16680,-3.8674,0.6127,-0.5684,-1491.94,1438.48,-1376.10
16690,-3.8676,0.6875,-0.6145,-1570.07,-748.84,842.59
16700,-3.8679,0.7371,-0.6714,8.06,1345.09,1498.78
16710,-3.8684,0.7661,-0.7419,-1648.19,-1936.10,-1704.47
16720,-3.8688,0.7809,-0.8154,-1929.44,1032.71,498.54
16730,-3.8693,0.7803,-0.8517,-38.82,-373.54,1607.73
16740,-3.8698,0.7804,-0.8391,-116.94,-1014.16,1529.54
16750,-3.8702,0.7803,-0.7827,-101.32,595.21,-1439.15
16760,-3.8707,0.7614,-0.7225,-116.94,-186.04,-1235.96
16770,-3.8713,0.7241,-0.7013,1461.18,-482.91,-1298.34
16780,-3.8719,0.6865,-0.7291,695.56,-1764.22,1342.35
16790,-3.8726,0.6681,-0.7925,-116.94,-1326.84,-282.71
16800,-3.8729,0.6777,-0.8617,1523.68,-1436.22,-314.09
16810,-3.8730,0.7135,-0.9038,-1241.94,1704.41,373.29
16820,-3.8733,0.7443,-0.8981,-663.82,313.84,-1048.65
16830,-3.8734,0.7390,-0.8452,-726.32,1048.28,404.48
16840,-3.8737,0.7041,-0.7571,-1398.19,-186.10,607.67
16850,-3.8739,0.6613,-0.6547,-1866.94,-904.91,-1595.28
16860,-3.8740,0.6160,-0.5647,648.68,204.41,-1376.28
16870,-3.8741,0.5630,-0.5032,-1148.19,-280.09,-63.66
16880,-3.8741,0.5024,-0.4775,70.56,-405.15,858.34
16890,-3.8743,0.4353,-0.4840,320.56,-1124.02,155.27
16900,-3.8745,0.3772,-0.5015,-273.19,-1952.33,-1391.60
16910,-3.8746,0.3483,-0.4991,289.31,-186.77,-1751.04
16920,-3.8746,0.3379,-0.4640,586.18,110.05,92.77
16930,-3.8748,0.3201,-0.4135,-741.94,609.99,-1344.67
16940,-3.8748,0.2892,-0.3677,976.81,-921.26,342.90
16950,-3.8749,0.2535,-0.3365,1023.68,938.05,1108.64
16960,-3.8750,0.2166,-0.3251,461.18,922.36,1796.20
16970,-3.8439,0.1838,-0.3199,-273.19,-1609.01,-469.42
16980,-3.8439,0.1620,-0.2955,-460.69,-952.82,-141.30
16990,-3.8750,0.1432,-0.2490,742.43,-1827.82,-1750.61
17000,-3.8750,0.1151,-0.1986,-1663.82,125.24,-156.74
17010,-3.8749,0.0802,-0.1449,-1257.57,-1421.69,608.95
17020,-3.8749,0.0377,-0.0874,-1726.32,1453.25,-1484.68
17030,-3.8748,-0.0225,-0.0458,836.18,812.56,468.57
17040,-3.8748,-0.0940,-0.0343,1133.06,-1843.81,624.88
17050,-3.8749,-0.1552,-0.0544,-23.19,-375.24,-468.87
17060,-3.8749,-0.1903,-0.0983,148.68,1046.57,-453.25
17070,-3.8748,-0.2007,-0.1495,-351.32,-562.93,1702.88
17080,-3.8746,-0.2084,-0.1891,-1679.44,874.57,452.82
17090,-3.8745,-0.2263,-0.1952,1336.18,-187.93,312.07
17100,-3.8744,-0.2515,-0.1638,-960.69,-969.24,1171.45
17110,-3.8743,-0.2863,-0.1105,-179.44,-953.67,-1750.37
17120,-3.8739,-0.3203,-0.0454,-632.57,1874.39,843.51
17130,-3.8735,-0.3577,-0.0001,-991.94,-1797.55,-1422.00
17140,-3.8733,-0.4230,-0.0099,-1773.19,-0.73,1937.44
17150,-3.8733,-0.5061,-0.0732,1867.43,-1250.85,-1562.56
17160,-3.8733,-0.5696,-0.1731,-773.19,-1360.41,1624.82
17170,-3.8732,-0.6033,-0.2800,-898.19,1858.22,-687.87
17180,-3.8727,-0.6439,-0.3380,-1210.69,170.65,-563.05
17190,-3.8721,-0.7334,-0.3297,1586.18,748.72,1499.33
17200,-3.8717,-0.8561,-0.2887,-1866.94,1811.04,-1922.55
17210,-3.8713,-0.9663,-0.2289,-1570.07,-939.21,-1281.86
17220,-3.8708,-1.0634,-0.1565,320.56,-1283.14,-1266.11
17230,-3.8704,-1.1279,-0.0973,-101.32,-17.76,1968.38
17240,-3.8700,-1.1063,-0.0833,-366.94,-439.76,-1140.87
17250,-3.8696,-1.0200,-0.1243,-1601.32,1357.18,-453.31
17260,-3.8693,-0.9487,-0.1888,1445.56,107.36,-750.24
17270,-3.8690,-0.9155,-0.2386,-1429.44,-158.14,1608.95
17280,-3.8689,-0.8882,-0.2568,-1179.44,1466.92,921.39
17290,-3.8687,-0.8751,-0.2539,-1679.44,-861.15,-1891.17
17300,-3.8682,-0.9111,-0.2611,-7.57,-486.15,1202.58
17310,-3.8678,-0.9575,-0.2894,-616.94,-1408.08,-1969.30
17320,-3.8676,-0.9335,-0.3378,1445.56,-1033.14,530.64
17330,-3.8676,-0.8215,-0.3971,523.68,779.42,-1875.67
17340,-3.8676,-0.6709,-0.4487,-1148.19,1185.85,-516.42
17350,-3.8674,-0.5326,-0.4961,-1866.94,-1423.22,1545.96
17360,-3.8674,-0.4110,-0.5515,-163.82,514.53,967.77
17370,-3.8676,-0.2755,-0.6116,-601.32,1421.02,-1547.97
17380,-3.8676,-0.1124,-0.6786,742.43,1733.83,-1876.22
17390,-3.8674,0.0474,-0.7502,1617.43,1156.01,1529.91
17400,-3.8673,0.1791,-0.7965,-1929.44,-31.19,-1032.78
17410,-3.8671,0.3048,-0.7913,-1070.07,-1952.82,295.29
17420,-3.8671,0.4391,-0.7429,-976.32,-1280.70,-1360.96
17430,-3.8672,0.5728,-0.6858,211.18,907.10,-1673.34
17440,-3.8676,0.6642,-0.6447,1320.56,219.85,-1532.59
17450,-3.8680,0.6971,-0.6200,1023.68,1485.66,-1657.53
17460,-3.8685,0.6847,-0.6077,1242.43,641.97,1201.90
17470,-3.8690,0.6538,-0.6030,-351.32,-1779.97,186.28
17480,-3.8696,0.6392,-0.6039,-304.44,-1186.28,-844.97
17490,-3.8701,0.6431,-0.6183,1820.56,-1295.65,1592.53
17500,-3.8707,0.6476,-0.6415,-1679.44,860.60,-48.10
17510,-3.8712,0.6437,-0.6621,-1101.32,1891.85,-563.78
17520,-3.8716,0.6462,-0.6710,-1601.32,-748.78,-32.59
17530,-3.8717,0.6569,-0.6580,-1273.19,-1889.40,-938.84
17540,-3.8718,0.6538,-0.6447,86.18,-217.47,170.53
17550,-3.8723,0.6226,-0.6467,-304.44,1485.60,-1766.91
17560,-3.8728,0.5844,-0.6501,-304.44,1219.91,1701.84
17570,-3.8733,0.5533,-0.6562,-1195.07,782.35,-1110.66
17580,-3.8735,0.5311,-0.6704,-1163.82,1.04,248.72
17590,-3.8738,0.5073,-0.6893,-7.57,-1811.52,1373.66
17600,-3.8740,0.4684,-0.7062,945.56,-233.40,-392.03
17610,-3.8741,0.4131,-0.7129,-38.82,1610.23,998.60
17620,-3.8744,0.3534,-0.6974,883.06,750.79,-1173.28
17630,-3.8745,0.2980,-0.6554,1242.43,-1264.95,-1032.65
17640,-3.8745,0.2434,-0.6010,-1851.32,109.92,639.34
17650,-3.8746,0.1951,-0.5525,-835.69,-921.45,-1735.60
17660,-3.8748,0.1653,-0.5176,976.81,1281.62,-282.35
17670,-3.8748,0.1492,-0.4955,1164.31,1750.31,1764.59
17680,-3.8748,0.1310,-0.4822,-898.19,578.37,514.65
17690,-3.8749,0.1101,-0.4727,773.68,-1718.51,-688.48
17700,-3.8749,0.0900,-0.4619,-1898.19,-499.82,1936.52
17710,-3.8749,0.0709,-0.4412,-476.32,875.12,889.71
17720,-3.8749,0.0496,-0.4075,1086.18,-468.63,30.33
17730,-3.8750,0.0229,-0.3661,-1648.19,-156.19,-1063.35
17740,-3.8750,-0.0033,-0.3177,-1054.44,1140.62,-1531.98
17750,-3.8749,-0.0216,-0.2589,-413.82,-656.31,452.45
17760,-3.8748,-0.0369,-0.1975,1242.43,-1125.06,577.58
17770,-3.8746,-0.0626,-0.1495,-710.69,-1265.75,437.07
17780,-3.8746,-0.1003,-0.1202,-7.57,874.82,-1453.43
17790,-3.8746,-0.1479,-0.1119,-835.69,624.76,-703.37
17800,-3.8746,-0.2062,-0.1272,1070.56,1687.19,-515.87
17810,-3.8746,-0.2634,-0.1504,1617.43,-266.05,-62.81
17820,-3.8745,-0.3058,-0.1511,-1710.69,765.08,-1547.18
17830,-3.8743,-0.3439,-0.1196,867.43,671.26,155.94
17840,-3.8741,-0.3785,-0.0842,-7.57,702.39,-1734.62
17850,-3.8740,-0.4147,-0.0808,-445.07,1233.58,1812.32
17860,-3.8739,-0.4537,-0.1129,-1070.07,1671.02,265.44
17870,-3.8739,-0.4888,-0.1575,1929.93,1561.58,-906.49
17880,-3.8738,-0.5331,-0.1868,1445.56,-141.60,-1015.99
17890,-3.8735,-0.5897,-0.1869,-226.32,108.28,-1453.49
17900,-3.8732,-0.6583,-0.1686,523.68,92.59,1874.63
17910,-3.8728,-0.7399,-0.1577,-257.57,-1563.84,124.63
17920,-3.8726,-0.8154,-0.1588,1304.93,-173.34,312.13
17930,-3.8722,-0.8690,-0.1541,-366.94,-314.15,62.13
17940,-3.8717,-0.9128,-0.1403,773.68,295.17,671.57
17950,-3.8712,-0.9557,-0.1332,-835.69,-1939.33,984.07
17960,-3.8708,-0.9840,-0.1455,1679.93,-1033.14,1546.57
17970,-3.8706,-0.9777,-0.1761,-1945.07,1388.67,-1797.18
17980,-3.8704,-0.9438,-0.2198,-1132.57,1466.80,1577.76
17990,-3.8700,-0.9011,-0.2404,-804.44,-126.89,312.01
18000,-3.8696,-0.8622,-0.2002,664.31,1248.23,-1437.99
18010,-3.8691,-0.8291,-0.1263,1648.68,-1611.08,468.32
18020,-3.8689,-0.7932,-0.0657,1883.06,-157.90,-1562.81
18030,-3.8687,-0.7458,-0.0295,-1523.19,-392.21,156.07
18040,-3.8685,-0.6899,-0.0142,539.31,232.91,1453.06
18050,-3.8684,-0.6422,-0.0258,-304.44,-1798.28,-984.44
18060,-3.8683,-0.6143,-0.0781,1804.93,717.47,687.44
18070,-3.8684,-0.5927,-0.1597,1383.06,-1985.60,1437.32
18080,-3.8685,-0.5533,-0.2345,148.68,-423.03,1765.26
18090,-3.8685,-0.4961,-0.2953,1179.93,1998.90,-422.36
18100,-3.8682,-0.4167,-0.3613,508.06,-1782.23,530.64
18110,-3.8679,-0.2966,-0.4388,-1335.69,1764.77,-875.73
18120,-3.8677,-0.1281,-0.5111,-1960.69,-156.86,639.71
18130,-3.8677,0.0690,-0.5643,-382.57,-1406.56,639.59
18140,-3.8678,0.2638,-0.5991,836.18,-234.25,1483.22
18150,-3.8679,0.4281,-0.6182,1773.68,-687.01,1608.15
18160,-3.8680,0.5580,-0.6248,-1195.07,875.79,-735.60
18170,-3.8682,0.6505,-0.6351,-570.07,32.29,-1048.10
18180,-3.8684,0.6921,-0.6655,-726.32,-1295.65,29.97
18190,-3.8689,0.7191,-0.7103,601.81,-1186.16,295.53
18200,-3.8694,0.7555,-0.7646,54.93,1079.53,639.22
18210,-3.8698,0.7905,-0.8196,711.18,-1873.54,1779.72
18220,-3.8699,0.8143,-0.8507,1195.56,-904.72,-1751.65
18230,-3.8699,0.8137,-0.8602,242.43,-889.04,201.42
18240,-3.8702,0.7915,-0.8635,164.31,1892.21,-1048.58
18250,-3.8707,0.7566,-0.8594,1320.56,1470.28,-1814.21
18260,-3.8713,0.7261,-0.8473,851.81,-1998.54,-126.71
18270,-3.8717,0.7052,-0.8318,945.56,-451.72,1388.92
18280,-3.8719,0.6869,-0.8113,-1726.32,1532.59,170.23
18290,-3.8722,0.6682,-0.7866,-70.07,157.53,1170.29
18300,-3.8724,0.6481,-0.7563,1539.31,-686.22,1435.91
18310,-3.8727,0.6335,-0.7102,-1038.82,-811.28,1842.22
18320,-3.8729,0.6211,-0.6531,1101.81,1094.97,-157.65
18330,-3.8730,0.6064,-0.6036,-491.94,407.41,-1001.28
18340,-3.8732,0.5925,-0.5687,1633.06,-1264.47,-1876.22
18350,-3.8733,0.5824,-0.5446,-148.19,-795.78,1201.97
18360,-3.8734,0.5735,-0.5331,-1445.07,-1702.03,530.15
18370,-3.8737,0.5597,-0.5367,1414.31,-233.28,-751.10
18380,-3.8738,0.5414,-0.5433,-351.32,-702.09,905.15
18390,-3.8740,0.5182,-0.5405,1304.93,-1545.84,-1266.72
18400,-3.8741,0.4875,-0.5303,-1663.82,-1186.52,795.78
18410,-3.8744,0.4491,-0.5143,-1585.69,125.92,-1391.66
18420,-3.8745,0.4104,-0.4877,1492.43,-1827.27,1639.59
18430,-3.8746,0.3713,-0.4558,539.31,1578.92,-1329.10
18440,-3.8748,0.3229,-0.4337,-460.69,1656.92,-297.79
18450,-3.8749,0.2673,-0.4275,1336.18,484.99,-1125.85
18460,-3.8750,0.2155,-0.4310,-1773.19,1281.74,749.15
18470,-3.8440,0.1735,-0.4396,-413.82,828.49,-735.23
18480,-3.8441,0.1359,-0.4510,-1788.82,-265.32,-797.79
18490,-3.8441,0.0953,-0.4595,1398.68,-1734.13,327.21
18500,-3.8442,0.0547,-0.4546,211.18,1187.68,-922.79
18510,-3.8442,0.0161,-0.4381,-991.94,1812.56,-1063.42
18520,-3.8442,-0.0195,-0.4213,-1929.44,-78.12,-1282.17
18530,-3.8442,-0.0442,-0.3992,1508.06,-1906.31,-1547.73
18540,-3.8442,-0.0592,-0.3658,-1648.19,921.75,-1047.67
18550,-3.8441,-0.0787,-0.3331,429.93,1187.38,186.77
18560,-3.8441,-0.1082,-0.3132,1929.93,1374.82,1421.20
18570,-3.8441,-0.1390,-0.3060,-1835.69,-78.37,-1000.67
18580,-3.8440,-0.1647,-0.3036,-1788.82,843.44,1983.76
18590,-3.8439,-0.1887,-0.3004,-1070.07,1155.88,-1656.86
18600,-3.8750,-0.2126,-0.3004,-148.19,1562.07,-1203.74
18610,-3.8749,-0.2256,-0.2915,789.31,1562.07,-563.11
18620,-3.8746,-0.2302,-0.2511,-866.94,-1297.36,-1266.24
18630,-3.8743,-0.2455,-0.1841,-1460.69,-125.49,1077.58
18640,-3.8739,-0.2694,-0.1038,586.18,452.64,1280.88
18650,-3.8734,-0.2866,-0.0269,1523.68,-1266.17,1390.38
18660,-3.8728,-0.3124,0.0281,-679.44,577.51,62.44
18670,-3.8724,-0.3787,0.0582,23.68,-391.24,-1593.75
18680,-3.8722,-0.4814,0.0590,-460.69,-532.04,1500.06
18690,-3.8721,-0.6028,0.0237,-1616.94,-438.48,593.81
18700,-3.8721,-0.7411,-0.0380,-1148.19,-954.35,-1546.88
18710,-3.8719,-0.8827,-0.0995,1148.68,-845.21,-1562.62
18720,-3.8715,-1.0010,-0.1481,-976.32,-720.52,62.26
18730,-3.8707,-1.0791,-0.1907,-116.94,1060.49,796.57
18740,-3.8700,-1.1056,-0.2140,1883.06,-392.76,-1719.18
18750,-3.8695,-1.0814,-0.2007,-1507.57,622.80,1015.20
18760,-3.8695,-1.0381,-0.1830,1586.18,-1674.01,-469.18
18770,-3.8695,-1.0050,-0.2053,-866.94,591.67,968.38
18780,-3.8695,-0.9939,-0.2618,-632.57,1732.36,1312.07
18790,-3.8693,-1.0189,-0.3157,789.31,-1501.95,718.20
18800,-3.8690,-1.0676,-0.3611,1586.18,-392.64,-766.30
18810,-3.8688,-1.0747,-0.4105,-648.19,1794.74,-360.11
18820,-3.8685,-0.9899,-0.4552,-1554.44,-533.39,-1157.10
18830,-3.8683,-0.8479,-0.4904,1304.93,1748.05,1358.46
18840,-3.8682,-0.7107,-0.5190,-523.19,1248.29,-1532.23
18850,-3.8680,-0.5974,-0.5389,1039.31,1576.72,-1579.16
18860,-3.8679,-0.5092,-0.5570,-460.69,-969.97,1342.65
18870,-3.8679,-0.4353,-0.5846,-1163.82,717.71,-141.72
18880,-3.8678,-0.3428,-0.6168,289.31,1186.65,-1298.03
18890,-3.8677,-0.2166,-0.6459,133.06,1061.83,-860.60
18900,-3.8674,-0.0750,-0.6752,289.31,1343.32,-1845.03
18910,-3.8673,0.0635,-0.6995,-1585.69,1593.57,-376.34
18920,-3.8673,0.2039,-0.7112,133.06,-1531.13,-1923.28
18930,-3.8676,0.3469,-0.7219,-1898.19,969.12,686.10
18940,-3.8680,0.4825,-0.7457,414.31,-405.58,-1063.96
18950,-3.8684,0.5869,-0.7798,1773.68,547.79,139.16
18960,-3.8689,0.6299,-0.8138,-866.94,188.60,1514.10
18970,-3.8694,0.6322,-0.8335,633.06,-170.65,-1064.15
18980,-3.8698,0.6107,-0.8391,929.93,1313.72,373.35
18990,-3.8702,0.5773,-0.8418,-1820.07,594.91,-548.52
19000,-3.8706,0.5463,-0.8430,1898.68,251.10,1935.85
19010,-3.8711,0.5232,-0.8418,1929.93,94.79,357.73
19020,-3.8717,0.5138,-0.8409,-1023.19,250.98,904.60
19030,-3.8723,0.5144,-0.8390,1773.68,360.35,-454.77
19040,-3.8727,0.5107,-0.8330,1851.81,610.35,1185.85
19050,-3.8730,0.4974,-0.8231,1383.06,1375.98,1482.73
19060,-3.8734,0.4899,-0.8057,-320.07,-1358.46,-204.77
19070,-3.8737,0.4923,-0.7734,-1288.82,875.92,-329.71
19080,-3.8738,0.5042,-0.7266,-976.32,1000.92,1404.72
19090,-3.8739,0.5187,-0.6771,539.31,-999.02,811.04
19100,-3.8740,0.5288,-0.6362,-1601.32,1329.10,1514.28
19110,-3.8741,0.5254,-0.6069,-304.44,-1436.52,-1485.66
19120,-3.8743,0.5052,-0.5878,-741.94,-1686.52,-1094.97
19130,-3.8744,0.4720,-0.5701,679.93,766.60,-766.78
19140,-3.8744,0.4374,-0.5391,429.93,-967.83,967.59
19150,-3.8745,0.4008,-0.4967,-7.57,-999.21,-532.35
19160,-3.8745,0.3557,-0.4612,-695.07,422.61,1077.15
19170,-3.8746,0.3057,-0.4469,1539.31,969.42,1749.08
19180,-3.8748,0.2570,-0.4471,-866.94,-1202.58,-1547.79
19190,-3.8749,0.2135,-0.4451,898.68,-1233.89,-32.17
19200,-3.8749,0.1766,-0.4392,-663.82,-968.38,1983.46
19210,-3.8750,0.1484,-0.4358,-1382.57,-218.44,-141.54
19220,-3.8750,0.1282,-0.4291,-991.94,218.99,1342.90
19230,-3.8439,0.1110,-0.4023,414.31,1078.37,-828.98
19240,-3.8439,0.0922,-0.3496,-1788.82,500.18,-469.54
19250,-3.8750,0.0601,-0.2899,-195.07,-749.88,-1688.23
19260,-3.8749,0.0048,-0.2466,-304.44,-1109.31,936.89
19270,-3.8749,-0.0645,-0.2228,617.43,437.50,-1687.99
19280,-3.8749,-0.1326,-0.2168,-241.94,-500.18,-953.61
19290,-3.8748,-0.1898,-0.2308,-960.69,265.32,30.82
19300,-3.8748,-0.2295,-0.2505,-288.82,-1531.68,1780.76
19310,-3.8746,-0.2493,-0.2474,-1366.94,-47.36,530.70
19320,-3.8745,-0.2585,-0.2157,101.81,343.26,15.14
19330,-3.8745,-0.2665,-0.1771,-1085.69,405.70,-937.93
19340,-3.8744,-0.2780,-0.1431,1898.68,1343.20,1952.76
19350,-3.8743,-0.2904,-0.1107,429.93,1702.58,-172.18
19360,-3.8739,-0.3082,-0.0836,-1163.82,1843.14,31.01
19370,-3.8738,-0.3510,-0.0724,554.93,1311.89,-1781.43
19380,-3.8737,-0.4077,-0.0891,-913.82,-1250.73,-1703.31
19390,-3.8734,-0.4583,-0.1283,-179.44,608.52,124.82
19400,-3.8732,-0.5052,-0.1646,1351.81,-407.17,1390.32
19410,-3.8729,-0.5569,-0.1759,-663.82,-1047.91,-219.12
19420,-3.8726,-0.6207,-0.1538,726.81,1498.90,1874.63
19430,-3.8722,-0.6976,-0.0972,554.93,326.90,-1500.31
19440,-3.8717,-0.7903,-0.0125,-1288.82,-423.28,1921.63
19450,-3.8712,-0.8928,0.0902,-1148.19,-1579.71,640.56
19460,-3.8708,-0.9852,0.1907,1726.81,-439.27,-1906.13
19470,-3.8705,-1.0571,0.2572,1898.68,419.92,1219.12
19480,-3.8704,-1.1069,0.2684,695.56,935.42,-749.51
19490,-3.8702,-1.1245,0.2223,-1679.44,-1627.20,-655.76
19500,-3.8700,-1.1058,0.1404,70.56,466.55,-890.20
19510,-3.8695,-1.0598,0.0742,-1538.82,1982.18,218.99
19520,-3.8690,-0.9934,0.0602,351.81,1513.55,672.00
19530,-3.8687,-0.9244,0.0911,851.81,-283.20,-156.19
19540,-3.8683,-0.8683,0.1439,1679.93,-329.96,-671.75
19550,-3.8679,-0.8145,0.1945,867.43,-1564.21,187.74
19560,-3.8678,-0.7426,0.2148,-241.94,904.60,-1124.63
19570,-3.8677,-0.6566,0.1855,961.18,-485.84,-1765.26
19580,-3.8677,-0.5763,0.1183,-38.82,-235.72,-1468.44
19590,-3.8677,-0.5192,0.0371,-1757.57,-844.91,1750.18
19600,-3.8677,-0.4846,-0.0487,1554.93,764.59,578.19
19610,-3.8678,-0.4398,-0.1345,1976.81,1780.27,-656.37
19620,-3.8677,-0.3582,-0.2018,-288.82,-1204.04,999.69
19630,-3.8676,-0.2588,-0.2362,-1835.69,-1813.23,-1359.80
19640,-3.8674,-0.1760,-0.2533,-1116.94,1780.70,1812.01
19650,-3.8676,-0.1066,-0.2806,1476.81,-406.62,1390.08
19660,-3.8679,-0.0259,-0.3306,-1632.57,93.51,-375.55
19670,-3.8682,0.0676,-0.4011,695.56,1703.06,374.33
19680,-3.8685,0.1631,-0.4791,664.31,656.37,-1141.42
19690,-3.8687,0.2560,-0.5514,883.06,-1327.82,702.15
19700,-3.8689,0.3428,-0.6185,773.68,1422.36,-657.35
19710,-3.8691,0.4194,-0.6794,-116.94,828.74,-923.10
19720,-3.8695,0.4680,-0.7314,1695.56,1032.04,-579.47
19730,-3.8699,0.4943,-0.7733,-85.69,-1624.15,-1017.09
19740,-3.8702,0.5082,-0.8123,-726.32,1016.54,-673.40
19750,-3.8705,0.5039,-0.8585,1054.93,32.23,123.41
19760,-3.8708,0.4950,-0.9021,508.06,-1889.65,1498.29
19770,-3.8712,0.5006,-0.9240,-632.57,532.17,-408.02
19780,-3.8715,0.5245,-0.9095,86.18,1735.35,-1595.58
19790,-3.8717,0.5525,-0.8528,-851.32,-420.90,-1829.96
19800,-3.8719,0.5687,-0.7712,-1273.19,-1155.21,-501.71
19810,-3.8721,0.5671,-0.6946,804.93,1282.35,1935.97
19820,-3.8722,0.5518,-0.6390,601.81,-905.15,686.10
19830,-3.8724,0.5280,-0.6096,-1366.94,-1795.84,-704.41
19840,-3.8726,0.5011,-0.6077,-413.82,1969.73,1092.53
19850,-3.8728,0.4739,-0.6204,148.68,-1780.27,-1766.85
19860,-3.8730,0.4550,-0.6237,664.31,594.67,-204.35
19870,-3.8732,0.4473,-0.6014,-1757.57,172.73,-219.97
19880,-3.8732,0.4393,-0.5645,1258.06,-983.52,1233.15
19890,-3.8733,0.4136,-0.5339,242.43,-249.15,748.84
19900,-3.8735,0.3702,-0.5078,945.56,-342.96,-1485.47
19910,-3.8737,0.3174,-0.4802,-601.32,-999.33,545.84
19920,-3.8739,0.2585,-0.4624,633.06,-1468.14,-1000.98
19930,-3.8740,0.2063,-0.4565,1101.81,812.99,1639.71
19940,-3.8741,0.1759,-0.4462,-1585.69,1562.87,1061.58
19950,-3.8743,0.1625,-0.4260,-1476.32,-1109.07,1608.46
19960,-3.8744,0.1448,-0.4110,804.93,1469.06,-1828.98
19970,-3.8745,0.1107,-0.4113,-1460.69,-609.13,1092.90
19980,-3.8748,0.0690,-0.4237,-1820.07,-640.44,-1157.10
19990,-3.8749,0.0375,-0.4333,836.18,1765.75,-1875.85
20000,-3.8749,0.0201,-0.4265,804.93,531.31,811.65
20010,-3.8749,0.0083,-0.4069,-1413.82,1406.25,1483.52
20020,-3.8749,-0.0083,-0.3877,1070.56,-78.12,999.15
20030,-3.8750,-0.0308,-0.3732,-1054.44,-1609.44,-1078.92
20040,-3.8750,-0.0538,-0.3552,70.56,249.94,1999.27
20050,-3.8750,-0.0846,-0.3317,1117.43,-1453.25,-922.61
20060,-3.8749,-0.1290,-0.3083,1179.93,1562.32,421.20
20070,-3.8749,-0.1741,-0.2814,-507.57,546.57,1780.64
20080,-3.8749,-0.2103,-0.2487,1726.81,-0.37,-156.86
20090,-3.8748,-0.2385,-0.2231,1086.18,187.07,-1859.86
20100,-3.8746,-0.2592,-0.2028,1476.81,-547.36,1843.26
20110,-3.8744,-0.2767,-0.1693,-1163.82,-1938.05,608.95
20120,-3.8743,-0.3002,-0.1277,586.18,-1656.80,-125.37
20130,-3.8740,-0.3405,-0.0999,1586.18,-328.74,796.57
20140,-3.8739,-0.3850,-0.0934,429.93,-766.30,437.26
20150,-3.8738,-0.4274,-0.0996,-1273.19,61.71,1421.69
20160,-3.8735,-0.4745,-0.1044,1304.93,-735.23,-1781.49
20170,-3.8732,-0.5353,-0.1024,-726.32,-1344.73,1390.38
20180,-3.8729,-0.6189,-0.0885,-507.57,-1094.85,-859.62
20190,-3.8726,-0.7202,-0.0404,789.31,686.28,1140.44
20200,-3.8722,-0.8251,0.0476,-179.44,-1157.71,1437.38
20210,-3.8718,-0.9189,0.1431,-1601.32,-1892.27,-1499.94
20220,-3.8713,-0.9967,0.2098,-1616.94,-1673.71,109.62
20230,-3.8710,-1.0453,0.2317,429.93,-1126.95,1125.37
20240,-3.8707,-1.0505,0.2083,-1788.82,1669.80,-108.95
20250,-3.8704,-1.0228,0.1560,1539.31,-1330.20,1265.99
20260,-3.8701,-0.9907,0.1140,1086.18,-17.64,-1671.63
20270,-3.8699,-0.9689,0.1128,1195.56,-1392.58,-1546.69
20280,-3.8696,-0.9611,0.1414,-7.57,-1548.83,1765.81
20290,-3.8694,-0.9630,0.1754,992.43,-1892.52,-343.51
20300,-3.8689,-0.9569,0.2061,742.43,-1533.14,1187.81
20310,-3.8685,-0.9255,0.2333,1523.68,-1611.27,-1562.13
20320,-3.8682,-0.8619,0.2491,1539.31,1873.17,16.05
20330,-3.8680,-0.7732,0.2346,1679.93,-95.46,1828.55
20340,-3.8679,-0.6650,0.1801,1039.31,-1954.65,812.93
20350,-3.8679,-0.5376,0.1008,-1116.94,-938.84,-1843.44
20360,-3.8678,-0.3977,0.0176,-804.44,920.78,968.93
20370,-3.8677,-0.2615,-0.0634,1101.81,-1735.17,-1156.25
20380,-3.8674,-0.1343,-0.1277,-1460.69,-94.30,-1609.56
20390,-3.8672,-0.0231,-0.1605,-1179.44,-328.43,1827.82
20400,-3.8671,0.0531,-0.1881,1054.93,-531.31,827.76
20410,-3.8673,0.0985,-0.2493,-1195.07,-78.06,-62.93
20420,-3.8676,0.1450,-0.3442,617.43,93.93,1890.14
20430,-3.8679,0.2162,-0.4614,-1429.44,-62.26,-813.23
20440,-3.8682,0.3149,-0.5928,-320.07,937.87,-1407.17
20450,-3.8684,0.4243,-0.7155,320.56,125.61,-16.78
20460,-3.8685,0.5166,-0.8105,-1679.44,422.67,1920.47
20470,-3.8688,0.5856,-0.8746,-1866.94,250.98,-673.46
20480,-3.8690,0.6311,-0.9060,-1038.82,47.97,-751.71
20490,-3.8693,0.6387,-0.9080,789.31,32.47,1185.73
20500,-3.8696,0.6116,-0.8926,1758.06,-217.53,420.04
20510,-3.8701,0.5698,-0.8737,-1710.69,1751.16,1076.35
20520,-3.8706,0.5361,-0.8607,945.56,172.97,1451.42
20530,-3.8710,0.5269,-0.8539,633.06,1829.16,232.67
20540,-3.8713,0.5428,-0.8448,-554.44,-1295.90,-1532.96
20550,-3.8716,0.5651,-0.8265,1492.43,-139.59,-642.33
20560,-3.8717,0.5768,-0.7881,336.18,-1795.78,1357.73
20570,-3.8719,0.5813,-0.7224,1836.18,-873.90,-345.34
20580,-3.8721,0.5663,-0.6482,-1585.69,-467.65,1498.54
20590,-3.8723,0.5276,-0.5944,492.43,1032.35,-1970.03
20600,-3.8726,0.4840,-0.5701,-460.69,-77.15,1436.28
20610,-3.8728,0.4501,-0.5624,1961.18,-967.83,1123.84
20620,-3.8730,0.4205,-0.5629,1617.43,16.48,-1422.97
20630,-3.8732,0.3860,-0.5695,1836.18,-46.08,1576.97
20640,-3.8733,0.3492,-0.5726,1414.31,-889.89,623.84
20650,-3.8735,0.3157,-0.5630,711.18,-1296.20,-938.66
20660,-3.8737,0.2944,-0.5300,414.31,-61.89,-1188.66
20670,-3.8737,0.2820,-0.4730,1695.56,156.80,936.46
20680,-3.8738,0.2568,-0.4109,101.81,-546.33,-1079.10
20690,-3.8739,0.2155,-0.3651,883.06,-593.26,-1157.10
20700,-3.8740,0.1776,-0.3424,-413.82,1265.99,1999.27
20710,-3.8741,0.1532,-0.3353,-1257.57,172.18,1999.33
20720,-3.8743,0.1388,-0.3313,-382.57,1078.37,-516.30
20730,-3.8743,0.1274,-0.3304,1773.68,1593.99,1858.70
20740,-3.8744,0.1089,-0.3413,320.56,1703.37,-141.30
20750,-3.8744,0.0829,-0.3583,1945.56,312.68,1436.83
20760,-3.8745,0.0542,-0.3640,-1382.57,-1859.25,-156.98
20770,-3.8745,0.0175,-0.3527,-1054.44,1406.31,-1235.11
20780,-3.8745,-0.0306,-0.3281,-1757.57,-1140.62,639.89
20790,-3.8746,-0.0764,-0.2894,86.18,-1984.44,-1500.67
20800,-3.8746,-0.1185,-0.2411,-1773.19,-1031.43,-1781.86
20810,-3.8746,-0.1711,-0.1978,836.18,1156.01,-859.86
20820,-3.8746,-0.2340,-0.1652,-1898.19,-1297.24,-656.68
20830,-3.8746,-0.2896,-0.1387,-1945.07,-1125.49,-719.12
20840,-3.8745,-0.3398,-0.1162,-1054.44,-1734.99,530.94
20850,-3.8745,-0.3867,-0.0997,508.06,1139.95,1656.01
20860,-3.8745,-0.4214,-0.1008,-1491.94,-750.79,906.01
20870,-3.8745,-0.4393,-0.1311,-1929.44,-891.48,531.01
20880,-3.8745,-0.4513,-0.1832,-226.32,-766.54,-1281.56
20890,-3.8744,-0.4727,-0.2339,-1757.57,561.58,-250.37
20900,-3.8740,-0.4993,-0.2407,-491.94,-1922.85,265.14
20910,-3.8738,-0.5278,-0.1749,101.81,1202.15,-828.61
20920,-3.8734,-0.5665,-0.0745,445.56,1623.96,1718.38
20930,-3.8730,-0.6249,0.0040,-507.57,-1516.78,1812.32
20940,-3.8726,-0.7258,0.0532,23.68,530.03,968.75
20950,-3.8722,-0.8790,0.0978,-898.19,-1173.34,828.19
20960,-3.8721,-1.0470,0.1427,-507.57,529.48,-1796.69
20970,-3.8718,-1.1938,0.1743,1992.43,-1720.83,-1702.88
20980,-3.8713,-1.3107,0.1884,-804.44,-1674.26,-859.07
20990,-3.8707,-1.3850,0.2031,242.43,122.44,-1687.13
21000,-3.8701,-1.3900,0.2494,-1273.19,-1987.12,484.74
21010,-3.8696,-1.3269,0.3197,-1913.82,-65.25,-1687.07
21020,-3.8693,-1.2272,0.3528,-1835.69,934.88,-952.51
21030,-3.8691,-1.1158,0.2991,-1070.07,1169.43,-1218.08
21040,-3.8691,-1.0033,0.1855,1179.93,-1705.32,-1046.33
21050,-3.8690,-0.9174,0.0613,-413.82,-236.39,-1359.07
21060,-3.8688,-0.8792,-0.0573,-1413.82,-142.46,203.19
21070,-3.8687,-0.8519,-0.1423,-523.19,685.73,-1297.00
21080,-3.8683,-0.7894,-0.1613,-1038.82,1795.17,1046.57
21090,-3.8680,-0.6985,-0.1324,-1038.82,-626.59,-890.99
21100,-3.8679,-0.6171,-0.1058,-1398.19,-938.90,-984.68
21110,-3.8679,-0.5619,-0.1099,1023.68,-1532.47,-1953.37
21120,-3.8680,-0.5128,-0.1454,86.18,1952.03,-1203.37
21130,-3.8682,-0.4340,-0.2030,-1632.57,1405.21,-687.81
21140,-3.8682,-0.3281,-0.2794,461.18,-1969.60,-875.43
21150,-3.8680,-0.2301,-0.3763,-1991.94,249.33,-1391.17
21160,-3.8679,-0.1393,-0.4802,-1445.07,-156.74,1436.71
21170,-3.8679,-0.0227,-0.5621,-1820.07,-1453.43,1764.65
21180,-3.8679,0.1249,-0.6071,1101.81,62.44,1514.53
21190,-3.8680,0.2599,-0.6309,-7.57,-1702.94,-79.35
21200,-3.8682,0.3462,-0.6562,1273.68,-749.51,-704.41
21210,-3.8683,0.3879,-0.6859,320.56,0.67,1154.97
21220,-3.8685,0.4088,-0.7032,1664.31,203.86,-1001.34
21230,-3.8687,0.4409,-0.6875,336.18,1985.17,1295.47
21240,-3.8689,0.4758,-0.6492,445.56,0.85,-1423.22
21250,-3.8691,0.4976,-0.6147,914.31,907.17,92.47
21260,-3.8696,0.5179,-0.5918,-304.44,1313.42,-813.72
21270,-3.8700,0.5181,-0.5818,-1695.07,250.98,-1438.66
21280,-3.8704,0.5011,-0.5793,-1679.44,1532.23,1967.59
21290,-3.8707,0.4760,-0.5806,148.68,1844.73,342.59
21300,-3.8712,0.4491,-0.5857,929.93,1688.42,-1235.53
21310,-3.8716,0.4393,-0.5903,1492.43,1032.10,1639.47
21320,-3.8719,0.4476,-0.5952,242.43,438.35,1405.09
21330,-3.8723,0.4607,-0.6039,1304.93,-186.65,-969.97
21340,-3.8726,0.4651,-0.6141,-1023.19,-1296.02,1748.78
21350,-3.8728,0.4578,-0.6218,-460.69,1391.48,326.90
21360,-3.8732,0.4377,-0.6248,-1398.19,407.10,-954.35
21370,-3.8734,0.4045,-0.6259,39.31,32.10,-1188.72
21380,-3.8735,0.3566,-0.6272,-210.69,-108.64,514.34
21390,-3.8738,0.3009,-0.6162,1648.68,-280.58,-266.91
21400,-3.8739,0.2557,-0.5812,-1476.32,1125.55,-1594.97
21410,-3.8741,0.2235,-0.5315,742.43,1609.86,-266.78
21420,-3.8743,0.1915,-0.4800,617.43,-30.82,858.28
21430,-3.8745,0.1528,-0.4364,523.68,-1437.13,-1219.73
21440,-3.8746,0.1033,-0.4136,-429.44,140.87,1389.77
21450,-3.8748,0.0505,-0.4130,1226.81,-937.32,702.27
21460,-3.8749,0.0109,-0.4181,-1523.19,-859.31,1655.40
21470,-3.8749,-0.0072,-0.4099,1398.68,-1515.62,811.65
21480,-3.8749,-0.0143,-0.3826,-913.82,-453.19,1452.27
21490,-3.8749,-0.0259,-0.3425,-1820.07,-953.19,-1719.54
21500,-3.8749,-0.0502,-0.3018,695.56,171.81,-1844.42
21510,-3.8749,-0.0920,-0.2683,1586.18,1390.50,827.51
21520,-3.8750,-0.1467,-0.2455,226.81,1671.69,-781.80
21530,-3.8750,-0.1973,-0.2327,1226.81,593.44,-1203.61
21540,-3.8749,-0.2366,-0.2247,-1241.94,-1766.05,499.51
21550,-3.8749,-0.2745,-0.2144,1726.81,-750.49,-1156.74
21560,-3.8748,-0.3130,-0.1913,867.43,577.58,15.20
21570,-3.8748,-0.3278,-0.1459,-54.44,-469.42,1780.82
21580,-3.8746,-0.3312,-0.0964,-1945.07,1343.08,-1875.31
21590,-3.8745,-0.3564,-0.0813,1617.43,-328.80,-1265.87
21600,-3.8744,-0.3962,-0.0969,-1616.94,1608.64,1374.82
21610,-3.8743,-0.4285,-0.1064,1289.31,-391.42,-1422.12
21620,-3.8740,-0.4535,-0.0997,1164.31,-1610.23,-218.99
21630,-3.8738,-0.4807,-0.0935,1961.18,-750.92,-687.74
21640,-3.8735,-0.5062,-0.1030,-1523.19,45.90,890.44
21650,-3.8733,-0.5344,-0.1333,-788.82,-1172.91,281.01
21660,-3.8730,-0.5789,-0.1644,-398.19,-1047.97,-1562.81
21670,-3.8727,-0.6438,-0.1517,1914.31,-1032.41,-0.37
21680,-3.8722,-0.7317,-0.0851,1601.81,592.47,-672.18
21690,-3.8717,-0.8308,0.0168,-1648.19,1123.54,249.82
21700,-3.8713,-0.9247,0.1489,1664.31,-1829.77,921.88
21710,-3.8708,-1.0242,0.2903,1648.68,-923.71,406.49
21720,-3.8705,-1.1096,0.4103,914.31,1169.86,1125.55
21730,-3.8704,-1.1526,0.4692,1976.81,529.05,1735.17
21740,-3.8704,-1.1699,0.4215,476.81,75.87,1391.54
21750,-3.8704,-1.1766,0.3031,-1741.94,1966.43,-436.71
21760,-3.8701,-1.1400,0.2092,1398.68,-1189.82,-405.70
21770,-3.8698,-1.0482,0.1698,-1913.82,-1205.38,-109.01
21780,-3.8693,-0.9546,0.1504,1836.18,1747.92,1359.68
21790,-3.8689,-0.8909,0.1342,1820.56,-736.27,1437.74
21800,-3.8685,-0.8228,0.1254,1976.81,1185.73,843.99
21810,-3.8682,-0.7325,0.1091,-1304.44,60.85,390.87
21820,-3.8679,-0.6569,0.0691,-1757.57,1982.91,-1687.32
21830,-3.8677,-0.6124,0.0079,-70.07,858.03,1375.12
21840,-3.8676,-0.5847,-0.0698,1617.43,1030.03,906.25
21850,-3.8676,-0.5558,-0.1562,1164.31,-923.03,1249.82
21860,-3.8676,-0.5010,-0.2231,867.43,14.53,-1844.06
21870,-3.8673,-0.4033,-0.2384,-116.94,-547.91,405.76
21880,-3.8671,-0.2825,-0.2194,383.06,1499.21,1655.76
21890,-3.8669,-0.1719,-0.2284,-148.19,-63.11,905.76
21900,-3.8672,-0.0868,-0.2944,-1991.94,-1219.12,-1594.24
21910,-3.8676,-0.0352,-0.3881,898.68,-1672.06,1874.39
21920,-3.8679,-0.0004,-0.4686,-491.94,-1656.37,1421.08
21930,-3.8682,0.0343,-0.5255,-38.82,31.19,1186.58
21940,-3.8684,0.0402,-0.5746,398.68,734.44,-235.41
21950,-3.8685,0.0071,-0.6239,1148.68,-1546.81,1123.84
21960,-3.8689,-0.0309,-0.6688,914.31,140.62,-657.47
21970,-3.8693,-0.0566,-0.7051,54.93,-1593.81,-220.09
21980,-3.8696,-0.0771,-0.7295,758.06,1765.50,-1407.65
21990,-3.8701,-0.0918,-0.7448,-1866.94,-1359.56,1639.16
22000,-3.8707,-0.0941,-0.7722,258.06,687.32,1607.91
22010,-3.8713,-0.0780,-0.8257,-38.82,1171.63,-1970.28
22020,-3.8718,-0.0286,-0.8744,-1976.32,-1672.06,1513.98
22030,-3.8722,0.0482,-0.8777,351.81,93.69,1498.29
22040,-3.8726,0.1133,-0.8746,-1820.07,-343.69,-111.15
22050,-3.8727,0.1716,-0.8655,-1491.94,47.06,-548.58
22060,-3.8726,0.2478,-0.7946,1976.81,1219.06,529.54
22070,-3.8727,0.3221,-0.7018,-273.19,-1702.70,-1157.84
22080,-3.8728,0.3750,-0.6395,1242.43,-1827.51,467.35
22090,-3.8730,0.4015,-0.6007,8.06,-1858.64,108.09
22100,-3.8733,0.4014,-0.5635,-601.32,-889.89,436.28
22110,-3.8735,0.3667,-0.5269,-616.94,-124.27,-1454.28
22120,-3.8737,0.2955,-0.5000,-1054.44,563.17,827.09
22130,-3.8739,0.2104,-0.4878,1836.18,0.55,1483.40
22140,-3.8741,0.1394,-0.4861,-1054.44,1562.87,1655.27
22150,-3.8743,0.0957,-0.4821,1851.81,1781.49,30.27
22160,-3.8744,0.0753,-0.4727,258.06,-1702.94,795.90
22170,-3.8745,0.0658,-0.4653,1648.68,-499.88,1733.40
22180,-3.8746,0.0602,-0.4626,429.93,437.62,1780.33
22190,-3.8748,0.0580,-0.4541,-288.82,781.31,-1516.54
22200,-3.8748,0.0538,-0.4344,-570.07,1875.06,1874.08
22210,-3.8748,0.0394,-0.4124,-1101.32,390.69,-1297.73
22220,-3.8748,0.0140,-0.3920,1054.93,-781.19,-1344.60
22230,-3.8748,-0.0156,-0.3660,1804.93,1828.12,-1782.04
22240,-3.8748,-0.0469,-0.3304,-1991.94,1171.81,-828.86
22250,-3.8746,-0.0879,-0.2932,-1991.94,1718.63,1046.20
22260,-3.8746,-0.1427,-0.2576,758.06,-1515.81,-1891.24
22270,-3.8746,-0.2052,-0.2142,1742.43,-953.43,-328.67
22280,-3.8745,-0.2728,-0.1597,1742.43,593.32,-859.80
22290,-3.8744,-0.3447,-0.1075,1086.18,-422.42,1749.63
22300,-3.8744,-0.4100,-0.0715,-116.94,-1750.73,734.13
22310,-3.8745,-0.4417,-0.0524,-476.32,-1141.48,1827.94
22320,-3.8745,-0.4207,-0.0435,-523.19,1311.58,1828.00
22330,-3.8744,-0.3699,-0.0428,-1835.69,-1547.73,-1250.12
22340,-3.8741,-0.3312,-0.0525,664.31,-1469.48,-1000.12
22350,-3.8738,-0.3225,-0.0626,1617.43,1296.20,-1125.12
22360,-3.8733,-0.3445,-0.0629,-1273.19,-0.67,1859.19
22370,-3.8729,-0.3876,-0.0446,-85.69,-31.98,-125.18
22380,-3.8726,-0.4410,0.0006,-1601.32,-1688.29,-734.50
22390,-3.8722,-0.5048,0.0591,-445.07,92.83,-1312.50
22400,-3.8718,-0.5693,0.1063,-601.32,-422.91,-1515.56
22410,-3.8715,-0.6393,0.1324,-866.94,1623.84,1062.68
22420,-3.8712,-0.7162,0.1407,-1820.07,967.47,-1640.38
22430,-3.8711,-0.8068,0.1290,336.18,-1970.15,-62.26
22440,-3.8710,-0.9126,0.1044,742.43,529.66,562.74
22450,-3.8710,-1.0226,0.0874,-804.44,1373.17,734.56
22460,-3.8708,-1.1318,0.0878,1117.43,-798.89,-343.63
22470,-3.8704,-1.2256,0.1013,-866.94,-752.26,-265.50
22480,-3.8698,-1.2714,0.1267,-866.94,981.93,-952.94
22490,-3.8693,-1.2408,0.1592,1273.68,231.87,1515.87
22500,-3.8691,-1.1494,0.1749,1179.93,388.18,-780.94
22510,-3.8691,-1.0284,0.1581,883.06,-1596.01,-984.07
22520,-3.8690,-0.9106,0.1169,367.43,247.99,672.18
22530,-3.8688,-0.8115,0.0553,-554.44,-1017.46,422.06
22540,-3.8685,-0.7266,-0.0298,133.06,-907.84,1421.94
22550,-3.8684,-0.6533,-0.1213,-991.94,201.66,-937.56
22560,-3.8683,-0.5956,-0.1899,383.06,483.09,-265.87
22570,-3.8680,-0.5444,-0.2258,-226.32,-298.10,-1609.80
22580,-3.8678,-0.4938,-0.2516,-1679.44,-891.72,421.39
22590,-3.8678,-0.4340,-0.2949,804.93,-188.48,1483.83
22600,-3.8679,-0.3419,-0.3575,461.18,-1735.23,1218.14
22610,-3.8682,-0.2117,-0.4299,242.43,-1750.67,-672.61
22620,-3.8683,-0.0599,-0.5095,914.31,983.95,-1235.23
22630,-3.8684,0.0835,-0.5920,336.18,-1203.25,-1641.66
22640,-3.8685,0.1815,-0.6788,-1304.44,218.87,280.09
22650,-3.8688,0.2236,-0.7734,-757.57,1109.68,1389.28
22660,-3.8689,0.2616,-0.8512,633.06,1000.43,1357.85
22670,-3.8689,0.3438,-0.8718,1492.43,-952.64,1185.79
