timestamp_ms,ax,ay,az,gx,gy,gz
0,-3.8726,1.0143,-0.5604,929.93,1330.20,1233.22
10,-3.8727,0.9498,-0.5353,1836.18,267.58,-751.10
20,-3.8727,0.8781,-0.5099,1586.18,-513.79,-1360.47
30,-3.8727,0.7999,-0.4928,398.68,-1263.92,-1360.41
40,-3.8727,0.7278,-0.4830,-1601.32,923.40,-579.10
50,-3.8726,0.6703,-0.4847,1164.31,-1826.72,1702.15
60,-3.8724,0.6226,-0.5061,1804.93,1954.41,1405.27
70,-3.8723,0.5779,-0.5326,-304.44,-780.09,-1969.79
80,-3.8722,0.5237,-0.5464,1976.81,-170.78,-1954.22
90,-3.8721,0.4429,-0.5491,-960.69,-1936.52,498.90
100,-3.8721,0.3297,-0.5385,695.56,1719.60,-1891.72
110,-3.8719,0.1844,-0.5084,-1788.82,-921.26,389.53
120,-3.8718,0.0199,-0.4640,-382.57,-1077.82,77.09
130,-3.8717,-0.1265,-0.4108,-1445.07,609.38,702.21
140,-3.8716,-0.2222,-0.3516,-179.44,-562.81,842.90
150,-3.8716,-0.2715,-0.2976,-429.44,-984.86,-750.73
160,-3.8715,-0.3076,-0.2606,1258.06,1921.33,1186.89
170,-3.8713,-0.3594,-0.2346,633.06,-1344.36,843.20
180,-3.8712,-0.4454,-0.1971,-1991.94,1983.64,-1516.11
190,-3.8710,-0.5842,-0.1453,-1007.57,-1219.67,874.57
200,-3.8708,-0.7751,-0.1002,1226.81,1420.72,-94.06
210,-3.8705,-1.0051,-0.0752,789.31,-814.03,687.26
220,-3.8701,-1.2712,-0.0778,-648.19,-1611.39,484.19
230,-3.8698,-1.5697,-0.1013,1289.31,-1940.00,-218.93
240,-3.8691,-1.8751,-0.0961,-913.82,-956.24,359.13
250,-3.8688,-2.1426,-0.0254,-7.57,-284.97,1546.63
260,-3.8687,-2.3403,0.0754,1758.06,761.41,-125.06
270,-3.8687,-2.4669,0.1567,445.56,1667.30,-1609.25
280,-3.8689,-2.5259,0.2159,242.43,73.30,-1859.07
290,-3.8693,-2.5050,0.2568,695.56,-348.69,-1265.26
300,-3.8696,-2.4039,0.2627,-632.57,885.68,-499.51
310,-3.8699,-2.2477,0.2317,304.93,1635.93,1187.99
320,-3.8701,-2.0717,0.1722,304.93,1667.48,156.68
330,-3.8704,-1.8966,0.1025,-1163.82,-1941.59,922.18
340,-3.8706,-1.7269,0.0424,1242.43,1136.90,-859.19
350,-3.8707,-1.5709,-0.0055,-1038.82,1434.08,-1640.56
360,-3.8708,-1.4390,-0.0469,-1070.07,-690.61,1859.31
370,-3.8710,-1.3286,-0.0977,-179.44,-1987.24,1218.63
380,-3.8711,-1.2225,-0.1688,1945.56,-487.00,812.26
390,-3.8712,-1.1030,-0.2488,-476.32,-1596.19,984.01
400,-3.8713,-0.9656,-0.3325,-1179.44,169.68,-1891.11
410,-3.8713,-0.8201,-0.4191,414.31,1451.23,171.20
420,-3.8715,-0.6753,-0.5079,-960.69,-1626.65,-532.10
430,-3.8713,-0.5338,-0.6184,1570.56,-1001.34,373.96
440,-3.8713,-0.3896,-0.7358,-320.07,858.28,-751.22
450,-3.8712,-0.2380,-0.8031,-1866.94,1827.33,-954.59
460,-3.8711,-0.0844,-0.8135,1539.31,1218.26,576.54
470,-3.8712,0.0629,-0.8193,1211.18,-109.56,1513.98
480,-3.8715,0.2070,-0.8447,54.93,-874.88,-1657.90
490,-3.8717,0.3612,-0.8684,-1491.94,-124.63,-1704.83
500,-3.8718,0.5232,-0.8805,-1757.57,844.42,357.67
510,-3.8719,0.6862,-0.8892,-1023.19,-702.15,1576.35
520,-3.8719,0.8529,-0.8981,-163.82,-1811.22,1935.73
530,-3.8718,1.0316,-0.9135,1179.93,1048.52,1326.35
540,-3.8717,1.2152,-0.9453,54.93,-919.86,-423.71
550,-3.8715,1.3832,-0.9902,-445.07,-997.68,-1048.77
560,-3.8712,1.5132,-1.0273,1054.93,1252.69,482.42
570,-3.8712,1.5948,-1.0366,1695.56,502.93,-673.89
580,-3.8711,1.6296,-1.0112,148.68,-684.39,122.92
590,-3.8712,1.6240,-0.9585,601.81,-1434.33,-892.64
600,-3.8712,1.5934,-0.8998,-116.94,1315.61,654.36
610,-3.8713,1.5593,-0.8466,-38.82,831.18,1154.48
620,-3.8715,1.5345,-0.7915,-398.19,-356.38,451.42
630,-3.8717,1.5070,-0.7396,429.93,-1309.51,1623.41
640,-3.8719,1.4573,-0.7015,898.68,1331.05,811.04
650,-3.8723,1.3831,-0.6708,-1460.69,-1794.07,-32.65
660,-3.8724,1.2970,-0.6357,1039.31,-1856.69,467.41
670,-3.8727,1.2137,-0.5996,-1976.32,-1372.50,-1720.03
680,-3.8728,1.1395,-0.5734,-632.57,-747.68,1514.40
690,-3.8729,1.0743,-0.5638,1867.43,-1388.43,-1391.78
700,-3.8729,1.0114,-0.5720,1523.68,-169.80,1967.59
710,-3.8729,0.9381,-0.5947,1461.18,-1216.80,-376.16
720,-3.8728,0.8575,-0.6255,86.18,-123.17,-876.22
730,-3.8727,0.7828,-0.6545,1773.68,-60.85,-704.41
740,-3.8726,0.7113,-0.6744,211.18,220.28,-626.28
750,-3.8724,0.6296,-0.6908,-945.07,1673.22,-985.72
760,-3.8723,0.5420,-0.7092,601.81,-420.65,-1720.15
770,-3.8722,0.4600,-0.7244,1383.06,1219.79,1357.97
780,-3.8722,0.3853,-0.7275,-1116.94,-717.90,-204.59
790,-3.8721,0.3026,-0.7196,1320.56,-1124.27,1904.79
800,-3.8719,0.1771,-0.7119,-1257.57,-108.83,1623.54
810,-3.8717,-0.0082,-0.7003,-1320.07,875.31,717.35
820,-3.8715,-0.2427,-0.6521,-1038.82,-1625.06,-767.03
830,-3.8711,-0.5142,-0.5547,945.56,546.39,-813.78
840,-3.8707,-0.8064,-0.4365,-1804.44,1014.59,1827.03
850,-3.8705,-1.1069,-0.3086,789.31,139.04,-1141.48
860,-3.8701,-1.4214,-0.1556,-1679.44,513.43,46.26
870,-3.8699,-1.7510,0.0353,-1929.44,90.94,1577.82
880,-3.8696,-2.0795,0.2493,-116.94,527.77,1750.06
890,-3.8694,-2.3702,0.4268,1836.18,-82.21,266.05
900,-3.8693,-2.5796,0.5261,617.43,-1364.01,-1764.83
910,-3.8690,-2.6841,0.5671,1820.56,-645.69,766.60
920,-3.8689,-2.6884,0.5795,445.56,604.13,-248.90
930,-3.8687,-2.6019,0.5660,-101.32,-1817.81,1079.22
940,-3.8687,-2.4324,0.5228,-1038.82,463.62,1876.10
950,-3.8688,-2.2100,0.4603,664.31,-1067.26,1079.10
960,-3.8690,-1.9744,0.3887,1133.06,-1066.83,157.10
970,-3.8694,-1.7444,0.3092,-710.69,1761.72,531.98
980,-3.8699,-1.5277,0.2284,726.81,-409.67,-624.45
990,-3.8702,-1.3314,0.1547,461.18,1247.01,-1530.82
1000,-3.8706,-1.1597,0.0884,1586.18,-190.12,-531.01
1010,-3.8708,-1.0095,0.0182,-429.44,-674.19,-453.00
1020,-3.8710,-0.8706,-0.0701,-1210.69,-1658.26,-640.62
1030,-3.8710,-0.7340,-0.1769,570.56,-954.83,-1593.93
1040,-3.8710,-0.5947,-0.2927,-1945.07,1373.54,-750.37
1050,-3.8708,-0.4497,-0.4075,-116.94,-1454.35,1233.76
1060,-3.8707,-0.3097,-0.5090,-1554.44,-141.54,546.02
1070,-3.8706,-0.1870,-0.5902,367.43,-1141.24,639.59
1080,-3.8705,-0.0670,-0.6541,70.56,468.38,76.97
1090,-3.8705,0.0687,-0.7000,-570.07,296.69,1108.09
1100,-3.8706,0.2194,-0.7150,804.93,-1593.63,826.72
1110,-3.8710,0.3677,-0.6987,86.18,484.80,1404.85
1120,-3.8715,0.4869,-0.6624,-929.44,-1436.83,1045.47
1130,-3.8719,0.5522,-0.6161,-1663.82,-780.33,1123.66
1140,-3.8723,0.5663,-0.5774,-1304.44,1141.66,-1407.47
1150,-3.8724,0.5715,-0.5554,492.43,-1905.15,-1173.03
1160,-3.8723,0.6067,-0.5549,1164.31,907.35,373.90
1170,-3.8722,0.6799,-0.5887,1664.31,969.91,1170.78
1180,-3.8719,0.7817,-0.6512,-960.69,641.91,139.47
1190,-3.8717,0.8975,-0.7146,70.56,642.15,108.09
1200,-3.8716,1.0134,-0.7781,-1116.94,532.96,-720.15
1210,-3.8715,1.1249,-0.8516,1726.81,408.20,-360.90
1220,-3.8715,1.2239,-0.9054,-7.57,-997.86,-314.21
1230,-3.8715,1.2888,-0.9102,664.31,111.76,670.10
1240,-3.8716,1.3119,-0.8782,976.81,-497.50,1357.54
1250,-3.8717,1.3098,-0.8427,-70.07,-403.75,-1033.02
1260,-3.8717,1.3107,-0.8204,-335.69,143.13,279.60
1270,-3.8719,1.3230,-0.8024,-226.32,-1013.12,-907.90
1280,-3.8722,1.3264,-0.7742,1351.81,1299.44,-829.71
1290,-3.8724,1.3083,-0.7483,1789.31,908.81,-704.65
1300,-3.8726,1.2939,-0.7380,-523.19,221.25,-1392.09
1310,-3.8726,1.3193,-0.7407,1633.06,1533.75,1951.66
1320,-3.8724,1.3788,-0.7649,883.06,1190.06,717.29
1330,-3.8723,1.4302,-0.8040,492.43,-1903.56,545.35
1340,-3.8723,1.4304,-0.8263,-929.44,1096.50,1842.16
1350,-3.8723,1.3611,-0.8198,-898.19,-1762.88,29.60
1360,-3.8724,1.2307,-0.8040,-1773.19,-934.88,1092.10
1370,-3.8726,1.0652,-0.7878,1539.31,1096.13,1857.79
1380,-3.8727,0.8956,-0.7626,351.81,-841.67,-1048.46
1390,-3.8727,0.7360,-0.7421,-1351.32,-1607.67,-1782.78
1400,-3.8726,0.5884,-0.7389,-1788.82,1017.03,920.41
1410,-3.8724,0.4570,-0.7225,-679.44,1422.97,-1407.71
1420,-3.8722,0.3164,-0.6757,-1491.94,-483.52,-376.46
1430,-3.8717,0.1040,-0.6194,508.06,1516.24,1373.66
1440,-3.8712,-0.2050,-0.5603,1320.56,718.93,-798.10
1450,-3.8706,-0.5742,-0.4688,1773.68,296.45,-1688.60
1460,-3.8701,-0.9574,-0.3158,-1491.94,14.47,-422.79
1470,-3.8696,-1.3242,-0.1073,1461.18,-408.14,1436.83
1480,-3.8693,-1.6583,0.1144,-1491.94,-1721.37,452.88
1490,-3.8690,-1.9531,0.3032,-257.57,-1347.05,-1484.19
1500,-3.8687,-2.1874,0.4413,-1991.94,-1175.72,1297.42
1510,-3.8683,-2.3231,0.5389,23.68,495.73,672.73
1520,-3.8680,-2.3391,0.6017,-1351.32,995.42,1672.91
1530,-3.8679,-2.2480,0.6089,601.81,1026.67,1391.78
1540,-3.8680,-2.0840,0.5537,258.06,1948.73,-30.09
1550,-3.8682,-1.8878,0.4629,1258.06,-1113.46,-780.21
1560,-3.8683,-1.6884,0.3540,-1632.57,-738.10,813.35
1570,-3.8685,-1.4949,0.2288,-101.32,1324.77,1985.05
1580,-3.8688,-1.3136,0.1041,664.31,1293.95,-921.45
1590,-3.8690,-1.1486,0.0006,-132.57,1341.13,-749.82
1600,-3.8693,-0.9969,-0.0750,992.43,91.49,1843.75
1610,-3.8696,-0.8627,-0.1305,398.68,-1580.08,-843.93
1620,-3.8700,-0.7555,-0.1814,1586.18,-689.21,-484.68
1630,-3.8702,-0.6790,-0.2299,-695.07,795.35,312.13
1640,-3.8705,-0.6229,-0.2677,1101.81,-1407.59,265.14
1650,-3.8706,-0.5680,-0.3086,273.68,1748.78,1249.45
1660,-3.8706,-0.5027,-0.3645,-695.07,514.47,-1531.86
1670,-3.8705,-0.4282,-0.4172,-335.69,1358.34,780.52
1680,-3.8705,-0.3451,-0.4547,1195.56,-1391.48,1827.27
1690,-3.8705,-0.2546,-0.4851,-163.82,1811.77,1170.96
1700,-3.8706,-0.1688,-0.5189,-585.69,1921.33,-594.73
1710,-3.8706,-0.0977,-0.5565,-1601.32,1593.38,842.71
1720,-3.8707,-0.0355,-0.5945,-491.94,781.01,1264.53
1730,-3.8708,0.0387,-0.6295,-538.82,-78.25,1530.03
1740,-3.8710,0.1387,-0.6552,961.18,-578.06,-1501.28
1750,-3.8711,0.2524,-0.6704,1758.06,140.87,-860.66
1760,-3.8712,0.3607,-0.6791,320.56,-1812.01,1717.41
1770,-3.8715,0.4615,-0.7001,-1820.07,1078.80,-1360.72
1780,-3.8716,0.5691,-0.7695,-913.82,-1608.52,1467.35
1790,-3.8716,0.7010,-0.8799,851.81,1501.10,1826.60
1800,-3.8715,0.8619,-0.9854,1742.43,-623.66,-751.77
1810,-3.8712,1.0466,-1.0676,-1663.82,1876.65,-1892.58
1820,-3.8711,1.2487,-1.1256,1976.81,-654.24,-517.76
1830,-3.8710,1.4336,-1.1619,-163.82,-75.74,1825.87
1840,-3.8710,1.5541,-1.1863,-491.94,-716.00,966.43
1850,-3.8711,1.5995,-1.1821,-1070.07,159.24,-1955.44
1860,-3.8712,1.5865,-1.1326,742.43,690.61,-1642.94
1870,-3.8713,1.5356,-1.0564,-913.82,-965.70,-1799.13
1880,-3.8715,1.4689,-0.9785,570.56,784.24,872.92
1890,-3.8717,1.4070,-0.9086,23.68,-1247.13,1560.55
1900,-3.8719,1.3533,-0.8424,101.81,-294.13,60.67
1910,-3.8723,1.2893,-0.7808,1226.81,174.50,1170.23
1920,-3.8727,1.2107,-0.7335,1039.31,65.00,-1392.15
1930,-3.8729,1.1332,-0.6959,-1023.19,-1888.31,-1360.84
1940,-3.8730,1.0599,-0.6631,1054.93,-1075.93,-1188.90
1950,-3.8730,0.9832,-0.6421,-320.07,-872.99,-1251.34
1960,-3.8730,0.8971,-0.6294,1851.81,1814.39,-32.53
1970,-3.8729,0.8069,-0.6124,-1163.82,-560.79,123.72
1980,-3.8730,0.7267,-0.5912,-710.69,1610.90,-1376.22
1990,-3.8732,0.6594,-0.5741,1023.68,329.53,-360.53
2000,-3.8732,0.6044,-0.5537,414.31,-1483.09,61.34
2010,-3.8733,0.5651,-0.5284,1367.43,1126.16,1530.15
2020,-3.8733,0.5361,-0.5192,336.18,360.47,733.34
2030,-3.8733,0.5028,-0.5356,633.06,1547.91,1217.71
2040,-3.8733,0.4421,-0.5724,367.43,-561.52,-1297.97
2050,-3.8732,0.3253,-0.6139,601.81,-1264.77,1436.34
2060,-3.8730,0.1147,-0.6399,1648.68,1422.49,-907.47
2070,-3.8727,-0.2229,-0.6287,-1304.44,-1906.07,1654.97
2080,-3.8722,-0.6610,-0.5563,-523.19,-453.61,483.09
2090,-3.8717,-1.1273,-0.4126,-601.32,811.16,-1907.35
2100,-3.8711,-1.5637,-0.2216,-288.82,-799.13,1889.77
2110,-3.8705,-1.9480,-0.0542,-148.19,-346.86,-0.49
2120,-3.8696,-2.2883,0.0414,-1335.69,1074.28,874.88
2130,-3.8688,-2.5603,0.0980,-898.19,1307.98,1500.06
2140,-3.8678,-2.7109,0.1442,289.31,557.50,343.93
2150,-3.8671,-2.7202,0.1646,1008.06,-1536.56,-1234.13
2160,-3.8666,-2.6036,0.1538,-179.44,1072.75,-1655.94
2170,-3.8665,-2.3998,0.1260,-1257.57,-302.00,328.37
2180,-3.8668,-2.1523,0.0951,836.18,135.93,-1531.01
2190,-3.8673,-1.8900,0.0499,508.06,183.29,1750.18
2200,-3.8679,-1.6223,-0.0179,-1913.82,-1597.47,-1171.81
2210,-3.8684,-1.3612,-0.0928,351.81,1715.58,921.81
2220,-3.8689,-1.1301,-0.1595,1773.68,137.94,1999.82
2230,-3.8693,-0.9418,-0.2227,-648.19,-408.51,-969.12
2240,-3.8694,-0.7896,-0.2866,-538.82,-486.27,280.76
2250,-3.8695,-0.6658,-0.3491,-1054.44,-673.46,1702.51
2260,-3.8695,-0.5630,-0.4210,-1210.69,-673.22,-1500.73
2270,-3.8694,-0.4639,-0.5081,-54.44,-1876.16,811.65
2280,-3.8694,-0.3527,-0.6011,633.06,-1016.54,-1157.29
2290,-3.8694,-0.2238,-0.6855,-1132.57,-922.61,-1032.47
2300,-3.8695,-0.0836,-0.7474,-632.57,265.14,-95.09
2310,-3.8696,0.0441,-0.7817,1304.93,343.57,1936.04
2320,-3.8699,0.1450,-0.7844,1648.68,-62.44,1701.54
2330,-3.8701,0.2277,-0.7604,-1429.44,-406.01,342.16
2340,-3.8705,0.3008,-0.7321,1148.68,-1327.70,-157.78
2350,-3.8706,0.3647,-0.7177,-1491.94,-1702.58,1029.79
2360,-3.8708,0.4141,-0.7183,-1304.44,141.30,-1017.03
2370,-3.8710,0.4498,-0.7202,1008.06,63.29,1061.10
2380,-3.8712,0.4879,-0.7054,1586.18,-186.65,-626.46
2390,-3.8713,0.5474,-0.6703,-1538.82,1704.04,1420.47
2400,-3.8716,0.6287,-0.6307,-1929.44,-1795.84,-1813.84
2410,-3.8718,0.7272,-0.6034,476.81,-733.15,217.47
2420,-3.8723,0.8584,-0.5942,1086.18,-1232.97,-126.22
2430,-3.8726,1.0238,-0.6060,1883.06,-60.85,561.28
2440,-3.8728,1.1859,-0.6450,-945.07,-1560.55,1826.90
2450,-3.8728,1.3043,-0.6956,-195.07,1439.76,139.34
2460,-3.8728,1.3658,-0.7225,-1038.82,-1028.75,1873.60
2470,-3.8727,1.3698,-0.7183,-1163.82,-481.75,-1985.84
2480,-3.8726,1.3286,-0.6984,-663.82,65.12,-813.90
2490,-3.8724,1.2594,-0.6837,-1929.44,-1388.06,-704.53
2500,-3.8723,1.1733,-0.6963,1211.18,486.82,811.16
2510,-3.8723,1.1027,-0.7101,-1804.44,-1122.74,1248.60
2520,-3.8723,1.0662,-0.6863,1148.68,1111.51,-938.90
2530,-3.8722,1.0498,-0.6403,476.81,158.33,1264.28
2540,-3.8722,1.0382,-0.5984,-1616.94,-1951.11,-751.28
2550,-3.8721,0.9891,-0.5829,898.68,-591.74,-1954.35
2560,-3.8721,0.8936,-0.5891,-1382.57,1392.52,-751.16
2570,-3.8721,0.8007,-0.5907,-1616.94,595.46,420.72
2580,-3.8723,0.7324,-0.6097,-1507.57,392.15,-110.53
2590,-3.8723,0.6995,-0.6552,1758.06,1954.53,826.90
2600,-3.8724,0.7184,-0.6722,1539.31,141.97,-688.78
2610,-3.8724,0.7582,-0.6421,-38.82,1954.47,-1485.72
2620,-3.8724,0.7479,-0.6157,1054.93,1813.96,1201.84
2630,-3.8726,0.6742,-0.6371,-257.57,1188.90,1514.40
2640,-3.8727,0.5986,-0.6892,-1695.07,-1545.59,-1970.03
2650,-3.8727,0.5706,-0.7205,633.06,-217.59,-1438.90
2660,-3.8724,0.5688,-0.7401,1039.31,-217.65,201.66
2670,-3.8722,0.5483,-0.7845,820.56,1266.72,-1298.34
2680,-3.8718,0.4998,-0.8081,-1804.44,-420.84,-767.21
2690,-3.8715,0.4254,-0.7679,-23.19,563.42,1092.16
2700,-3.8713,0.3010,-0.6909,-1538.82,1703.92,1701.60
2710,-3.8713,0.0951,-0.6155,-1460.69,-436.95,-985.78
2720,-3.8712,-0.1870,-0.5590,179.93,1218.93,-1969.97
2730,-3.8710,-0.5179,-0.5144,70.56,468.38,-1563.60
2740,-3.8705,-0.8724,-0.4528,1711.18,-1829.16,155.21
2750,-3.8701,-1.2103,-0.3458,336.18,-1939.21,-500.92
2760,-3.8696,-1.5062,-0.2142,1086.18,-252.38,233.64
2770,-3.8694,-1.7637,-0.0997,-788.82,590.76,1312.07
2780,-3.8693,-1.9528,0.0171,-1741.94,-753.48,-1500.24
2790,-3.8693,-2.0408,0.1672,-1945.07,-1800.72,-468.75
2800,-3.8693,-2.0634,0.3114,-1210.69,1417.85,1359.68
2810,-3.8694,-2.0626,0.4012,-101.32,-129.09,391.17
2820,-3.8696,-2.0319,0.4304,-7.57,-629.09,1391.36
2830,-3.8699,-1.9554,0.4108,-70.07,-894.65,-514.83
2840,-3.8699,-1.8387,0.3700,1711.18,589.90,719.54
2850,-3.8700,-1.6904,0.3374,648.68,-628.60,-1577.45
2860,-3.8701,-1.5273,0.3132,-366.94,-800.23,875.61
2870,-3.8705,-1.3759,0.2816,508.06,106.38,-390.01
2880,-3.8707,-1.2426,0.2389,-101.32,59.75,484.92
2890,-3.8711,-1.1268,0.1816,961.18,-1408.69,-1124.57
2900,-3.8712,-1.0394,0.1071,-226.32,-736.63,-1796.57
2910,-3.8712,-0.9735,0.0287,-1038.82,1716.67,1437.68
2920,-3.8712,-0.8999,-0.0433,-601.32,-314.45,1187.50
2930,-3.8712,-0.8108,-0.1149,820.56,-1533.02,1234.25
2940,-3.8712,-0.7067,-0.1835,226.81,1310.91,-406.49
2950,-3.8710,-0.6002,-0.2628,1554.93,529.85,624.63
2960,-3.8708,-0.5161,-0.3575,-820.07,-1626.22,1108.83
2970,-3.8708,-0.4391,-0.4380,1945.56,-1751.04,1593.02
2980,-3.8710,-0.3416,-0.4958,-195.07,-47.79,-1625.92
2990,-3.8711,-0.2260,-0.5397,289.31,546.20,-1922.85
3000,-3.8712,-0.1154,-0.5699,-913.82,-1062.99,-938.60
3010,-3.8712,-0.0343,-0.5946,1242.43,-937.74,-1954.28
3020,-3.8712,0.0133,-0.6320,-382.57,-93.87,1530.03
3030,-3.8713,0.0475,-0.6769,1711.18,-890.62,-438.78
3040,-3.8713,0.0804,-0.7152,-1913.82,1359.44,608.03
3050,-3.8715,0.1128,-0.7410,-1695.07,453.25,-1938.90
3060,-3.8716,0.1559,-0.7373,-1554.44,1156.43,-657.71
3070,-3.8717,0.2224,-0.7019,-38.82,1625.24,-1657.71
3080,-3.8719,0.3203,-0.6543,476.81,-1843.32,-610.78
3090,-3.8721,0.4388,-0.6207,1008.06,250.61,1139.34
3100,-3.8722,0.5507,-0.6316,179.93,547.73,1217.53
3110,-3.8723,0.6364,-0.6978,-1507.57,-842.71,-48.16
3120,-3.8722,0.7183,-0.7826,1461.18,-1311.28,1217.35
3130,-3.8721,0.8342,-0.8326,-54.44,-170.53,576.54
3140,-3.8719,0.9696,-0.8518,-1210.69,1423.46,888.98
3150,-3.8718,1.0880,-0.8693,117.43,-1029.36,576.42
3160,-3.8718,1.1676,-0.8826,-726.32,736.45,-1751.71
3170,-3.8718,1.1998,-0.8905,1461.18,-966.49,1888.85
3180,-3.8718,1.2045,-0.8854,1586.18,-1982.06,873.23
3190,-3.8718,1.2062,-0.8384,-1820.07,-1325.81,91.98
3200,-3.8719,1.2046,-0.7435,-1601.32,689.82,-1720.40
3210,-3.8721,1.1870,-0.6411,-1804.44,830.44,1826.66
3220,-3.8723,1.1471,-0.5730,-54.44,1939.76,-1266.91
3230,-3.8726,1.0879,-0.5437,-1163.82,-1341.55,-1173.03
3240,-3.8727,1.0172,-0.5471,-741.94,-1591.67,1405.15
3250,-3.8727,0.9453,-0.5801,-1788.82,1970.70,155.15
3260,-3.8727,0.8878,-0.6274,1008.06,1751.83,-985.53
3270,-3.8724,0.8522,-0.6599,1648.68,-310.79,1108.09
3280,-3.8722,0.8284,-0.6628,1086.18,-467.10,904.91
3290,-3.8719,0.7992,-0.6508,-1960.69,-842.16,483.03
3300,-3.8718,0.7445,-0.6473,-1695.07,704.65,1686.22
3310,-3.8717,0.6547,-0.6653,-695.07,1142.03,779.97
3320,-3.8717,0.5493,-0.6835,-195.07,-1155.03,-751.34
3330,-3.8716,0.4597,-0.6814,-1679.44,516.66,1389.28
3340,-3.8716,0.3953,-0.6647,-1148.19,782.10,-1141.97
3350,-3.8715,0.3464,-0.6475,-1398.19,-1077.39,186.16
3360,-3.8715,0.2916,-0.6432,351.81,1125.67,-1516.91
3370,-3.8713,0.2108,-0.6385,1336.18,1672.42,-1204.41
3380,-3.8711,0.0985,-0.6078,-1007.57,-1734.01,-1735.66
3390,-3.8708,-0.0476,-0.5437,617.43,-1796.69,-79.35
3400,-3.8705,-0.2089,-0.4623,1914.31,-1578.25,795.78
3410,-3.8704,-0.3481,-0.4033,1273.68,843.32,-1594.67
3420,-3.8702,-0.4608,-0.3827,-554.44,389.89,452.33
3430,-3.8702,-0.6017,-0.3597,1023.68,-969.67,-1891.42
3440,-3.8701,-0.8292,-0.2917,-1007.57,1967.53,-1641.36
3450,-3.8699,-1.1267,-0.1775,1867.43,-1329.77,733.76
3460,-3.8698,-1.4244,-0.0366,-210.69,1294.62,-1047.24
3470,-3.8696,-1.6826,0.1128,1679.93,-674.68,-1328.25
3480,-3.8696,-1.9149,0.2504,633.06,-1550.17,-1156.07
3490,-3.8696,-2.1359,0.3663,-1101.32,58.72,187.99
3500,-3.8699,-2.3278,0.4736,-1382.57,-1097.96,-483.70
3510,-3.8700,-2.4608,0.5833,-1945.07,636.05,954.04
3520,-3.8704,-2.5099,0.6891,1023.68,-1332.95,-108.28
3530,-3.8707,-2.4611,0.7720,-1257.57,213.81,-170.53
3540,-3.8711,-2.3185,0.8010,992.43,-1176.70,1985.84
3550,-3.8715,-2.1033,0.7512,-757.57,-1457.70,189.03
3560,-3.8719,-1.8411,0.6367,-1210.69,167.72,-436.04
3570,-3.8722,-1.5640,0.5059,351.81,1512.02,1126.22
3580,-3.8724,-1.3087,0.3805,-179.44,762.51,-1983.40
3590,-3.8724,-1.0869,0.2540,492.43,716.19,266.36
3600,-3.8724,-0.8916,0.1445,883.06,529.11,-390.14
3610,-3.8722,-0.7247,0.0787,1883.06,-1486.15,328.37
3620,-3.8722,-0.5828,0.0367,-757.57,-1907.71,-171.75
3630,-3.8721,-0.4554,-0.0278,1414.31,717.59,1812.56
3640,-3.8719,-0.3402,-0.1202,1711.18,452.21,312.44
3650,-3.8718,-0.2466,-0.2092,461.18,624.33,1734.13
3660,-3.8716,-0.1882,-0.2834,445.56,1233.89,1452.70
3670,-3.8713,-0.1720,-0.3677,-85.69,-266.05,-1734.99
3680,-3.8710,-0.1946,-0.4923,1992.43,952.76,-1828.86
3690,-3.8705,-0.2313,-0.6440,-898.19,999.57,-1079.10
3700,-3.8699,-0.2338,-0.7543,-1601.32,1577.64,1342.47
3710,-3.8695,-0.1776,-0.7755,-1913.82,-531.74,-1267.15
3720,-3.8694,-0.0696,-0.7318,1273.68,749.63,1857.85
3730,-3.8696,0.0667,-0.6823,-898.19,-1656.43,-1657.71
3740,-3.8700,0.1942,-0.6646,539.31,672.00,826.78
3750,-3.8705,0.2997,-0.6713,867.43,-1062.13,-470.09
3760,-3.8707,0.3972,-0.6791,-1632.57,-1921.33,1201.78
3770,-3.8710,0.4912,-0.6697,-1148.19,1078.86,1623.66
3780,-3.8712,0.5533,-0.6399,-1116.94,-1717.83,-16.97
3790,-3.8712,0.5582,-0.6219,-1163.82,-1905.21,61.22
3800,-3.8713,0.5145,-0.6544,-538.82,391.66,-1907.47
3810,-3.8713,0.4667,-0.7205,1867.43,235.35,-1298.16
3820,-3.8712,0.4707,-0.7445,-257.57,-217.90,1967.29
3830,-3.8711,0.5372,-0.6945,258.06,704.04,1404.79
3840,-3.8711,0.6212,-0.6246,773.68,-889.59,1779.85
3850,-3.8712,0.6826,-0.5820,-476.32,48.03,639.40
3860,-3.8716,0.7267,-0.5603,-616.94,1501.28,-1766.78
3870,-3.8719,0.7577,-0.5432,1023.68,282.65,-1579.22
3880,-3.8722,0.7722,-0.5276,992.43,-1529.79,1827.03
3890,-3.8723,0.7709,-0.5245,-1148.19,470.21,-1594.79
3900,-3.8723,0.7587,-0.5509,-1320.07,860.84,-610.41
3910,-3.8722,0.7502,-0.6018,1117.43,1485.84,-797.97
3920,-3.8721,0.7528,-0.6432,39.31,-1029.79,-48.10
3930,-3.8718,0.7673,-0.6578,367.43,1673.34,514.34
3940,-3.8717,0.7844,-0.6593,-1773.19,-201.66,514.28
3950,-3.8717,0.7943,-0.6561,414.31,-389.10,-735.72
3960,-3.8717,0.7911,-0.6465,1679.93,17.15,-1016.91
3970,-3.8718,0.7703,-0.6342,1273.68,1251.53,-954.41
3980,-3.8719,0.7384,-0.6257,-1398.19,-1170.41,1576.84
3990,-3.8721,0.7057,-0.6261,-1476.32,-92.35,998.72
4000,-3.8722,0.6646,-0.6450,-1663.82,-139.28,-1407.53
4010,-3.8722,0.6104,-0.6810,1070.56,1438.78,-548.16
4020,-3.8721,0.5565,-0.7126,-1866.94,829.28,-376.34
4030,-3.8718,0.5072,-0.7336,-757.57,782.29,1717.35
4040,-3.8717,0.4535,-0.7618,929.93,-1905.27,-454.59
4050,-3.8716,0.3933,-0.8019,-1945.07,-1514.77,-298.40
4060,-3.8715,0.3268,-0.8428,-1648.19,1360.11,-1079.71
4070,-3.8713,0.2538,-0.8748,1836.18,125.61,-1204.77
4080,-3.8711,0.1796,-0.8861,492.43,31.74,217.04
4090,-3.8710,0.0996,-0.8677,-1007.57,-1421.57,-392.40
4100,-3.8706,-0.0018,-0.8186,758.06,937.68,107.67
4110,-3.8705,-0.1315,-0.7416,-226.32,-765.69,-173.52
4120,-3.8702,-0.2885,-0.6439,-820.07,1093.44,1217.29
4130,-3.8702,-0.4628,-0.5503,-913.82,1593.14,-704.41
4140,-3.8702,-0.6185,-0.4863,773.68,1577.21,-1563.60
4150,-3.8702,-0.7144,-0.4504,836.18,1764.40,733.40
4160,-3.8704,-0.7322,-0.4265,570.56,-1642.03,-157.17
4170,-3.8704,-0.6820,-0.4128,-1710.69,1420.41,-1453.98
4180,-3.8704,-0.5776,-0.4105,711.18,-829.47,936.65
4190,-3.8704,-0.4465,-0.4197,-1929.44,-532.41,108.52
4200,-3.8705,-0.3408,-0.4346,-1148.19,-1704.04,-1297.73
4210,-3.8705,-0.2803,-0.4381,383.06,389.95,1327.27
4220,-3.8705,-0.2496,-0.4326,133.06,-63.05,639.71
4230,-3.8706,-0.2469,-0.4382,54.93,640.14,-813.35
4240,-3.8706,-0.2660,-0.4606,398.68,-78.61,842.83
4250,-3.8707,-0.2855,-0.4791,1961.18,1061.95,-1329.04
4260,-3.8707,-0.3015,-0.4642,-538.82,-1313.11,655.27
4270,-3.8708,-0.3304,-0.4222,1414.31,593.14,-1610.29
4280,-3.8708,-0.3861,-0.3732,1711.18,1968.08,561.65
4290,-3.8710,-0.4688,-0.3174,-1413.82,249.21,-938.23
4300,-3.8710,-0.5548,-0.2566,8.06,-610.29,968.08
4310,-3.8711,-0.6183,-0.1868,992.43,-829.22,1952.58
4320,-3.8712,-0.6627,-0.0997,867.43,108.15,-1906.62
4330,-3.8713,-0.7097,-0.0024,-820.07,-751.34,1796.63
4340,-3.8715,-0.7811,0.0887,1164.31,-298.28,-1218.81
4350,-3.8715,-0.8801,0.1727,23.68,-626.53,-1484.25
4360,-3.8713,-0.9979,0.2501,-648.19,-1876.77,515.93
4370,-3.8713,-1.1217,0.3148,273.68,29.30,-905.76
4380,-3.8712,-1.2418,0.3802,429.93,310.30,906.86
4390,-3.8712,-1.3641,0.4645,1054.93,685.06,1531.98
4400,-3.8712,-1.4890,0.5525,1398.68,-533.94,1297.73
4410,-3.8712,-1.5936,0.6155,1414.31,-1268.55,719.79
4420,-3.8713,-1.6595,0.6403,23.68,-1206.24,-201.97
4430,-3.8713,-1.6912,0.6304,-413.82,1965.45,-1545.65
4440,-3.8713,-1.6931,0.5959,-460.69,699.77,266.85
4450,-3.8715,-1.6597,0.5466,-710.69,293.52,719.91
4460,-3.8716,-1.5979,0.4860,-429.44,1981.08,688.54
4470,-3.8717,-1.5306,0.4135,-523.19,-1784.42,-1811.58
4480,-3.8717,-1.4729,0.3429,86.18,934.51,-1749.21
4490,-3.8716,-1.4211,0.2834,-523.19,-96.68,656.86
4500,-3.8715,-1.3517,0.2384,-1898.19,294.07,453.67
4510,-3.8715,-1.2563,0.1936,-1007.57,-1471.44,-46.45
4520,-3.8713,-1.1654,0.1382,-804.44,794.37,437.87
4530,-3.8715,-1.0898,0.0802,-1163.82,1700.81,1047.12
4540,-3.8716,-1.0005,0.0139,508.06,-1720.89,1000.12
4550,-3.8717,-0.8754,-0.0754,-54.44,1794.86,-1234.38
4560,-3.8717,-0.7214,-0.1754,-38.82,-1642.40,-1390.81
4570,-3.8717,-0.5603,-0.2484,-335.69,1561.04,-203.49
4580,-3.8716,-0.4204,-0.3035,289.31,217.65,562.01
4590,-3.8716,-0.3108,-0.3732,-1804.44,1171.02,1077.51
4600,-3.8716,-0.2041,-0.4412,226.81,249.39,-828.86
4610,-3.8715,-0.0884,-0.4849,1883.06,-453.55,1608.46
4620,-3.8716,0.0450,-0.5262,695.56,1952.94,-1860.35
4630,-3.8719,0.2216,-0.5627,1773.68,640.69,-1969.79
4640,-3.8723,0.4181,-0.6036,367.43,-30.82,-1563.66
4650,-3.8723,0.5787,-0.7236,1523.68,-1264.83,-48.10
4660,-3.8717,0.7024,-0.9369,-1913.82,-623.90,-1282.71
4670,-3.8707,0.8367,-1.1655,1914.31,79.47,998.17
4680,-3.8699,1.0128,-1.3495,-898.19,-1185.91,-517.94
4690,-3.8691,1.2255,-1.4575,1648.68,-732.42,1747.31
4700,-3.8688,1.4359,-1.4540,867.43,1439.88,-1940.37
4710,-3.8688,1.5803,-1.3602,-195.07,1893.37,-2.87
4720,-3.8689,1.6262,-1.2415,-1710.69,1893.68,966.06
4730,-3.8691,1.6000,-1.1359,164.31,1096.92,435.06
4740,-3.8694,1.5380,-1.0571,804.93,-1387.51,-127.26
4750,-3.8694,1.4498,-0.9974,867.43,690.49,654.17
4760,-3.8696,1.3339,-0.9401,1586.18,330.93,-1564.45
4770,-3.8699,1.2076,-0.8772,-1257.57,-325.56,1279.36
4780,-3.8702,1.1097,-0.7933,-1413.82,-278.93,-1111.15
4790,-3.8706,1.0582,-0.6787,-1945.07,-1544.74,-1595.34
4800,-3.8711,1.0303,-0.5449,-538.82,1127.01,1951.78
4810,-3.8717,1.0037,-0.4207,-116.94,-1748.05,-376.10
4820,-3.8721,0.9816,-0.3313,476.81,-1841.80,733.52
4830,-3.8723,0.9576,-0.2878,1648.68,1595.64,483.70
4840,-3.8724,0.9288,-0.2849,-1413.82,-841.92,-391.24
4850,-3.8722,0.8766,-0.3076,-1101.32,-466.98,-1844.36
4860,-3.8718,0.7540,-0.3379,211.18,626.71,1843.14
4870,-3.8713,0.5647,-0.3461,523.68,751.46,405.58
4880,-3.8710,0.3678,-0.3115,289.31,-295.78,-1000.73
4890,-3.8707,0.2367,-0.2583,-913.82,125.67,-250.61
4900,-3.8707,0.2074,-0.2338,-1695.07,-1062.07,-813.05
4910,-3.8710,0.2146,-0.2576,-1445.07,-1921.51,-625.49
4920,-3.8712,0.1488,-0.3154,-523.19,-968.38,-1375.55
4930,-3.8712,-0.0283,-0.3644,-945.07,-374.76,843.08
4940,-3.8710,-0.2667,-0.3752,383.06,1374.94,561.77
4950,-3.8706,-0.5001,-0.3619,1867.43,-16.17,1655.46
4960,-3.8701,-0.7161,-0.3525,-7.57,1686.46,358.64
4970,-3.8699,-0.9158,-0.3461,351.81,-1110.78,-516.36
4980,-3.8698,-1.0710,-0.3062,-1210.69,-283.08,1546.14
4990,-3.8700,-1.1947,-0.2134,-1085.69,825.99,-297.49
5000,-3.8702,-1.3319,-0.0848,-913.82,700.74,-297.30
5010,-3.8704,-1.4918,0.0557,1523.68,1153.63,1952.94
5020,-3.8705,-1.6698,0.1836,1054.93,-862.30,-499.94
5030,-3.8705,-1.8490,0.2853,-1726.32,-487.67,-1046.57
5040,-3.8705,-1.9961,0.3726,-663.82,527.59,1688.05
5050,-3.8706,-2.0862,0.4587,508.06,-300.78,1719.42
5060,-3.8708,-2.1190,0.5300,976.81,-1269.71,-1046.02
5070,-3.8711,-2.1128,0.5586,773.68,-144.78,-1155.27
5080,-3.8713,-2.0742,0.5333,1570.56,-488.53,-1577.09
5090,-3.8716,-1.9956,0.4679,-1491.94,277.16,1594.79
5100,-3.8718,-1.8865,0.3818,570.56,-97.66,469.60
5110,-3.8721,-1.7510,0.2948,-1460.69,886.90,688.23
5120,-3.8722,-1.5824,0.2120,-116.94,1746.52,406.80
5130,-3.8723,-1.3938,0.1244,1461.18,-846.86,-249.63
5140,-3.8722,-1.2137,0.0355,1601.81,-65.25,-1999.82
5150,-3.8721,-1.0620,-0.0446,648.68,560.12,1640.69
5160,-3.8721,-0.9362,-0.1060,70.56,-1689.58,-31.37
5170,-3.8719,-0.8381,-0.1523,179.93,-1548.71,281.01
5180,-3.8719,-0.7716,-0.2069,726.81,513.98,530.94
5190,-3.8719,-0.7208,-0.2745,1242.43,1529.72,-1234.80
5200,-3.8718,-0.6538,-0.3335,-257.57,873.54,-1266.17
5210,-3.8717,-0.5459,-0.3767,320.56,1326.84,-1797.55
5220,-3.8717,-0.4009,-0.4210,-1866.94,-204.22,-172.67
5230,-3.8716,-0.2501,-0.4824,695.56,-1875.79,1608.52
5240,-3.8715,-0.1346,-0.5656,-7.57,-1734.92,-985.35
5250,-3.8711,-0.0695,-0.6525,-1226.32,-375.31,686.34
5260,-3.8707,-0.0247,-0.7164,-882.57,499.82,1014.34
5270,-3.8704,0.0405,-0.7467,851.81,312.44,1842.35
5280,-3.8701,0.1388,-0.7528,1195.56,421.94,-298.34
5290,-3.8700,0.2559,-0.7400,1773.68,-359.13,-814.03
5300,-3.8700,0.3749,-0.7111,758.06,1281.74,811.04
5310,-3.8701,0.5023,-0.6812,-7.57,985.05,14.22
5320,-3.8704,0.6519,-0.6602,304.93,813.48,-563.84
5330,-3.8705,0.8198,-0.6504,-554.44,-498.78,-313.84
5340,-3.8705,0.9895,-0.6782,945.56,751.59,498.72
5350,-3.8705,1.1448,-0.7787,-1335.69,1189.39,873.66
5360,-3.8702,1.2897,-0.9370,-1460.69,330.32,1420.35
5370,-3.8698,1.4462,-1.0939,1086.18,65.00,1279.42
5380,-3.8693,1.6244,-1.1876,1117.43,-12.82,888.43
5390,-3.8690,1.7915,-1.2021,-70.07,-12.51,263.24
5400,-3.8691,1.9021,-1.1716,1320.56,-1871.52,481.99
5410,-3.8696,1.9374,-1.1283,-523.19,-1965.09,-955.44
5420,-3.8701,1.9115,-1.0585,-7.57,-418.15,153.99
5430,-3.8707,1.8414,-0.9454,679.93,519.35,591.67
5440,-3.8712,1.7217,-0.8257,-288.82,-1012.08,13.73
5450,-3.8717,1.5480,-0.7427,383.06,-1684.14,-126.65
5460,-3.8719,1.3551,-0.6897,-1851.32,940.49,-1110.84
5470,-3.8722,1.1949,-0.6516,1461.18,-278.63,-110.78
5480,-3.8723,1.0854,-0.6287,961.18,596.07,-1407.53
5490,-3.8724,1.0209,-0.6107,-1054.44,-466.67,-1673.16
5500,-3.8726,0.9773,-0.5961,-1320.07,1830.08,-126.22
5510,-3.8724,0.9125,-0.6018,1101.81,-294.98,1655.03
5520,-3.8722,0.8031,-0.6211,804.93,-1029.48,1561.28
5530,-3.8718,0.6686,-0.6189,-1195.07,501.53,1389.40
5540,-3.8716,0.5393,-0.5896,1586.18,782.53,-1219.97
5550,-3.8715,0.4177,-0.5580,1039.31,532.29,1670.72
5560,-3.8716,0.2834,-0.5245,1476.81,578.92,-719.85
5570,-3.8717,0.1127,-0.4752,289.31,859.92,-938.54
5580,-3.8717,-0.1007,-0.4124,-1570.07,-827.94,639.65
5590,-3.8717,-0.3197,-0.3463,-882.57,-765.87,-1219.60
5600,-3.8715,-0.5012,-0.2900,-913.82,-313.17,1468.02
5610,-3.8712,-0.6458,-0.2435,-148.19,-1110.41,1921.26
5620,-3.8710,-0.7798,-0.1963,1351.81,842.47,1702.64
5630,-3.8707,-0.9303,-0.1449,195.56,-1110.90,812.07
5640,-3.8706,-1.1123,-0.0933,929.93,1466.92,-0.31
5650,-3.8704,-1.3124,-0.0367,1633.06,75.93,-1515.81
5660,-3.8702,-1.5071,0.0508,23.68,-690.06,-953.25
5670,-3.8701,-1.6824,0.1622,-898.19,-1487.37,-1562.44
5680,-3.8700,-1.8330,0.2620,664.31,777.95,78.43
5690,-3.8701,-1.9689,0.3414,1383.06,1543.27,1875.49
5700,-3.8702,-2.0822,0.4128,-7.57,-285.16,1297.49
5710,-3.8705,-2.1425,0.4824,1492.43,855.29,-14.83
5720,-3.8706,-2.1367,0.5366,1773.68,1761.41,1266.54
5730,-3.8708,-2.0813,0.5618,-1491.94,698.91,1079.16
5740,-3.8711,-1.9985,0.5465,1601.81,-82.21,47.91
5750,-3.8713,-1.8848,0.4868,195.56,1964.84,251.04
5760,-3.8716,-1.7366,0.4011,-1241.94,-1675.60,-249.08
5770,-3.8716,-1.5769,0.3130,1726.81,-644.04,1438.23
5780,-3.8717,-1.4393,0.2306,-1835.69,75.01,-983.76
5790,-3.8718,-1.3374,0.1609,-226.32,1528.38,-171.45
5800,-3.8718,-1.2423,0.1102,820.56,606.75,422.18
5810,-3.8719,-1.1287,0.0696,992.43,-1877.44,-1796.69
5820,-3.8719,-1.0060,0.0233,-460.69,919.62,-1828.00
5830,-3.8719,-0.8846,-0.0361,-757.57,-1002.01,-859.38
5840,-3.8718,-0.7699,-0.1045,-1226.32,-611.15,499.88
5850,-3.8718,-0.6770,-0.1746,1461.18,-1360.90,-1422.12
5860,-3.8717,-0.6074,-0.2377,1351.81,1670.53,843.38
5870,-3.8717,-0.5447,-0.2916,-1741.94,1592.53,-1625.49
5880,-3.8717,-0.4775,-0.3387,-1710.69,-1313.60,-1266.24
5890,-3.8717,-0.4039,-0.3849,-1116.94,655.27,-1594.42
5900,-3.8717,-0.3259,-0.4482,304.93,-1250.79,-1282.04
5910,-3.8717,-0.2379,-0.5304,-1710.69,-1360.05,-141.54
5920,-3.8716,-0.1263,-0.6035,1554.93,124.51,889.59
5930,-3.8716,0.0132,-0.6465,-163.82,-1234.68,920.65
5940,-3.8717,0.1738,-0.6750,1695.56,1250.00,-266.91
5950,-3.8717,0.3491,-0.7141,-1741.94,1594.06,-235.72
5960,-3.8716,0.5261,-0.7711,695.56,594.42,-95.15
5970,-3.8713,0.6879,-0.8571,-648.19,1297.85,-32.78
5980,-3.8710,0.8348,-0.9686,54.93,-1701.78,-1970.46
5990,-3.8706,0.9871,-1.0674,-1132.57,17.21,763.73
6000,-3.8704,1.1486,-1.1204,-1648.19,-623.11,-502.14
6010,-3.8700,1.3173,-1.1364,-976.32,595.95,341.55
6020,-3.8699,1.4969,-1.1354,617.43,-1450.56,200.87
6030,-3.8700,1.6689,-1.1187,-382.57,-1325.26,1872.74
6040,-3.8702,1.7992,-1.0765,1633.06,815.73,-1017.82
6050,-3.8705,1.8624,-1.0099,-1695.07,-1793.40,-1908.39
6060,-3.8707,1.8551,-0.9391,-1601.32,-1262.02,497.99
6070,-3.8711,1.7938,-0.8704,1461.18,-199.52,-1705.02
6080,-3.8715,1.6921,-0.8000,1617.43,597.23,-17.33
6090,-3.8717,1.5542,-0.7277,601.81,1597.05,-1595.34
6100,-3.8719,1.3971,-0.6459,-1054.44,-1137.63,1982.91
6110,-3.8722,1.2379,-0.5635,-1163.82,1330.81,-1220.03
6120,-3.8723,1.0801,-0.4961,-1538.82,-122.62,1108.22
6130,-3.8724,0.9263,-0.4481,-1741.94,502.08,1452.15
6140,-3.8724,0.7823,-0.4233,-1429.44,-1357.60,92.83
6150,-3.8724,0.6542,-0.4099,148.68,1814.03,1061.65
6160,-3.8723,0.5481,-0.3927,-257.57,-467.53,608.52
6170,-3.8722,0.4680,-0.3629,-1835.69,1735.41,1561.71
6180,-3.8721,0.4070,-0.3226,-85.69,1547.73,1921.14
6190,-3.8719,0.3540,-0.3038,101.81,-1296.08,1921.20
6200,-3.8718,0.2981,-0.3165,1320.56,1110.05,-1156.86
6210,-3.8716,0.2241,-0.3446,-1835.69,-515.08,718.08
6220,-3.8715,0.1323,-0.3760,695.56,-108.95,-1328.86
6230,-3.8713,0.0458,-0.3893,945.56,-124.76,-250.79
6240,-3.8712,-0.0208,-0.3655,1867.43,-1828.06,-891.42
6250,-3.8711,-0.0920,-0.3152,1351.81,1234.31,1983.64
6260,-3.8710,-0.1987,-0.2646,226.81,-328.31,-422.55
6270,-3.8706,-0.3342,-0.2220,-1429.44,-1859.80,640.08
6280,-3.8704,-0.4757,-0.1821,1226.81,-406.92,1483.89
6290,-3.8702,-0.6150,-0.1401,-882.57,702.15,-1484.74
6300,-3.8702,-0.7600,-0.1068,1289.31,-1923.10,-94.06
6310,-3.8701,-0.8972,-0.0778,-1273.19,-1657.78,171.63
6320,-3.8701,-1.0044,-0.0079,1164.31,-1939.27,562.32
6330,-3.8701,-1.0969,0.1198,-554.44,-1002.01,796.81
6340,-3.8701,-1.1921,0.2562,-398.19,-658.45,578.31
6350,-3.8702,-1.2859,0.3505,-585.69,810.12,-437.01
6360,-3.8702,-1.3794,0.3971,-585.69,872.44,1203.80
6370,-3.8704,-1.4860,0.4108,-554.44,-1159.00,1641.36
6380,-3.8705,-1.5963,0.4075,1804.93,590.82,-1342.96
6390,-3.8705,-1.6720,0.4106,-320.07,168.70,-1655.46
6400,-3.8704,-1.6982,0.4281,1992.43,574.83,63.29
6410,-3.8704,-1.6890,0.4482,-1366.94,-1190.86,625.79
6420,-3.8705,-1.6534,0.4572,-179.44,1387.27,-1733.52
6430,-3.8706,-1.6050,0.4431,367.43,-1471.98,1282.10
6440,-3.8708,-1.5525,0.3999,-1429.44,731.20,-1561.65
6450,-3.8710,-1.4908,0.3303,1289.31,-799.93,78.86
6460,-3.8711,-1.4095,0.2501,1179.93,-1706.05,172.49
6470,-3.8712,-1.3041,0.1846,-413.82,28.44,1234.86
6480,-3.8713,-1.1903,0.1409,1086.18,-361.94,578.43
6490,-3.8716,-1.0829,0.1085,-351.32,-1955.51,1906.49
6500,-3.8718,-0.9818,0.0856,1398.68,1904.11,-1499.82
6510,-3.8719,-0.8882,0.0623,-1663.82,-1033.20,172.00
6520,-3.8721,-0.8057,0.0193,-1679.44,-17.40,515.69
6530,-3.8722,-0.7402,-0.0417,883.06,-1517.21,-500.00
6540,-3.8721,-0.6863,-0.1012,1258.06,-1329.59,968.63
6550,-3.8719,-0.6304,-0.1509,164.31,-938.84,577.88
6560,-3.8718,-0.5701,-0.2058,-679.44,701.84,827.82
6570,-3.8717,-0.5045,-0.2789,-960.69,1670.72,593.32
6580,-3.8717,-0.4254,-0.3488,-570.07,311.46,-156.80
6590,-3.8716,-0.3303,-0.3905,1554.93,-625.85,-735.11
6600,-3.8715,-0.2297,-0.4061,1726.81,-1969.42,-1500.79
6610,-3.8715,-0.1346,-0.3998,-1398.19,30.76,-0.79
6620,-3.8715,-0.0546,-0.3802,-1226.32,843.44,-735.17
6630,-3.8715,0.0096,-0.3699,1023.68,-656.37,1139.83
6640,-3.8716,0.0708,-0.3804,1242.43,656.25,-672.61
6650,-3.8715,0.1383,-0.4080,1070.56,-687.38,577.33
6660,-3.8713,0.2113,-0.4507,1711.18,-218.51,-1735.23
6670,-3.8711,0.2938,-0.5100,-945.07,-1687.13,-1110.29
6680,-3.8707,0.4033,-0.5862,1617.43,-1280.70,1608.34
6690,-3.8704,0.5554,-0.6702,-366.94,969.48,-1766.78
6700,-3.8700,0.7399,-0.7484,-898.19,-1780.21,-1251.34
6710,-3.8696,0.9283,-0.8085,-1288.82,204.53,170.41
6720,-3.8695,1.0978,-0.8510,-1163.82,517.40,1342.16
6730,-3.8695,1.2427,-0.8998,523.68,-919.74,-595.46
6740,-3.8694,1.3741,-0.9653,-929.44,830.51,138.85
6750,-3.8694,1.4991,-1.0176,-101.32,440.12,1279.36
6760,-3.8694,1.5997,-1.0231,-101.32,1752.87,-1377.01
6770,-3.8694,1.6451,-0.9860,773.68,1049.99,872.99
6780,-3.8696,1.6184,-0.9312,-1413.82,1800.05,1013.67
6790,-3.8701,1.5297,-0.8817,-835.69,815.61,-48.71
6800,-3.8705,1.4065,-0.8408,-195.07,-856.45,951.35
6810,-3.8710,1.2677,-0.7883,39.31,377.75,-1204.77
6820,-3.8713,1.1217,-0.7198,-1726.32,-903.81,-892.21
6830,-3.8716,0.9701,-0.6522,-413.82,-138.49,-1845.21
6840,-3.8718,0.8160,-0.5953,179.93,517.52,-1141.91
6850,-3.8719,0.6726,-0.5527,461.18,-201.54,389.40
6860,-3.8722,0.5577,-0.5172,-1898.19,1251.28,-610.47
6870,-3.8722,0.4932,-0.4775,-601.32,1797.91,1045.84
6880,-3.8722,0.4709,-0.4430,-866.94,-1124.08,624.02
6890,-3.8723,0.4298,-0.4158,289.31,-702.21,-110.29
6900,-3.8723,0.3167,-0.3746,-976.32,-1217.96,-1250.85
6910,-3.8723,0.1420,-0.3097,539.31,47.49,-1563.23
6920,-3.8723,-0.0310,-0.2301,-1820.07,359.62,-625.61
6930,-3.8722,-0.1396,-0.1532,39.31,-1437.56,-1969.24
6940,-3.8721,-0.2212,-0.1023,-1866.94,405.94,562.19
6950,-3.8721,-0.3755,-0.0752,-304.44,-1078.61,1327.88
6960,-3.8719,-0.6268,-0.0215,-54.44,-1610.17,1156.07
6970,-3.8716,-0.9325,0.0769,-226.32,1264.34,-1156.31
6980,-3.8708,-1.2120,0.1677,648.68,1857.54,1234.50
6990,-3.8702,-1.3854,0.2452,867.43,1481.99,-999.69
7000,-3.8699,-1.4302,0.3557,-1320.07,-596.50,-858.95
7010,-3.8699,-1.3785,0.4882,945.56,1544.07,-405.58
7020,-3.8700,-1.3136,0.5946,-445.07,-1502.75,1141.54
7030,-3.8702,-1.3234,0.6570,-132.57,122.38,-1701.97
7040,-3.8704,-1.4100,0.6976,-1382.57,106.75,-1904.97
7050,-3.8704,-1.5184,0.7443,-476.32,1309.69,329.47
7060,-3.8704,-1.6190,0.7904,1648.68,-721.74,142.03
7070,-3.8705,-1.6962,0.8142,773.68,1184.33,-123.47
7080,-3.8705,-1.7336,0.8075,-1101.32,231.02,-1810.91
7090,-3.8706,-1.7281,0.7668,-1898.19,-628.42,-748.47
7100,-3.8706,-1.6779,0.6895,-1195.07,-1831.54,32.71
7110,-3.8707,-1.5764,0.5905,1242.43,262.33,1048.22
7120,-3.8708,-1.4426,0.4958,-1773.19,-409.36,1516.72
7130,-3.8711,-1.3123,0.4222,-648.19,-518.49,-249.08
7140,-3.8713,-1.2096,0.3689,39.31,-1940.06,-92.96
7150,-3.8715,-1.1339,0.3215,1179.93,-768.01,266.30
7160,-3.8717,-1.0573,0.2646,-1132.57,1169.62,-1030.64
7170,-3.8717,-0.9469,0.2000,679.93,1888.55,281.74
7180,-3.8718,-0.8007,0.1331,-1195.07,1607.48,-1687.13
7190,-3.8719,-0.6470,0.0601,1523.68,1045.29,-171.63
7200,-3.8719,-0.5187,-0.0189,1195.56,-298.16,1593.81
7210,-3.8721,-0.4252,-0.0997,1617.43,1592.71,-437.56
7220,-3.8721,-0.3533,-0.1858,1586.18,-750.85,1609.13
7230,-3.8721,-0.2950,-0.2904,-1210.69,233.64,1452.76
7240,-3.8719,-0.2434,-0.4078,-1757.57,-1156.86,327.51
7250,-3.8718,-0.1715,-0.5027,851.81,-187.99,1686.65
7260,-3.8717,-0.0737,-0.5399,-1945.07,-328.49,-407.29
7270,-3.8715,0.0284,-0.5433,-1429.44,-1093.93,186.40
7280,-3.8715,0.1309,-0.5702,-351.32,-1546.88,1920.78
7290,-3.8716,0.2476,-0.6129,758.06,-984.13,-360.53
7300,-3.8717,0.3748,-0.6503,-304.44,1547.30,-438.72
7310,-3.8717,0.4845,-0.6984,-23.19,766.30,1889.34
7320,-3.8716,0.5620,-0.7675,-1976.32,-1389.71,764.22
7330,-3.8715,0.6261,-0.8484,-54.44,1766.66,-579.65
7340,-3.8712,0.7032,-0.9155,148.68,-592.53,-142.33
7350,-3.8710,0.7950,-0.9607,-1976.32,-1186.16,-298.71
7360,-3.8707,0.8918,-1.0115,1773.68,1032.78,1248.11
7370,-3.8706,0.9976,-1.0719,-1835.69,-1467.04,169.86
7380,-3.8706,1.1056,-1.1163,-304.44,-1201.23,1716.61
7390,-3.8706,1.1870,-1.1273,1523.68,1111.51,-1392.82
7400,-3.8706,1.2303,-1.0986,-54.44,-294.62,-1971.01
7410,-3.8707,1.2366,-1.0426,1492.43,-622.62,-111.57
7420,-3.8707,1.1987,-0.9835,-1710.69,-1450.74,529.17
7430,-3.8710,1.1200,-0.9376,1445.56,-1888.31,-95.70
7440,-3.8711,1.0276,-0.8962,-632.57,-13.49,-1392.52
7450,-3.8712,0.9467,-0.8456,-460.69,1283.20,1310.73
7460,-3.8715,0.8772,-0.7854,1179.93,-232.54,-314.21
7470,-3.8716,0.8018,-0.7141,289.31,-529.54,1342.16
7480,-3.8718,0.7151,-0.6433,-1366.94,595.28,-860.78
7490,-3.8719,0.6322,-0.5977,-460.69,1657.59,-1532.53
7500,-3.8721,0.5673,-0.5845,929.93,-498.78,-16.85
7510,-3.8721,0.5216,-0.5967,617.43,1188.60,-282.41
7520,-3.8719,0.4840,-0.6157,-1226.32,-374.02,1139.40
7530,-3.8719,0.4451,-0.6227,1961.18,1188.42,-63.72
7540,-3.8717,0.4066,-0.6194,976.81,297.73,545.65
7550,-3.8716,0.3623,-0.6115,54.93,719.54,1733.15
7560,-3.8715,0.3068,-0.5875,-1616.94,1735.05,1014.40
7570,-3.8715,0.2450,-0.5425,-726.32,797.42,1373.84
7580,-3.8716,0.1697,-0.4954,-632.57,-1437.07,-94.85
7590,-3.8716,0.0748,-0.4620,1726.81,594.06,-1125.98
7600,-3.8716,-0.0414,-0.4291,1586.18,859.50,-110.29
7610,-3.8715,-0.2012,-0.3765,-1288.82,1093.63,-985.23
7620,-3.8713,-0.4089,-0.2980,-1741.94,-172.30,-703.92
7630,-3.8711,-0.6293,-0.1986,-335.69,1874.15,968.14
7640,-3.8708,-0.8256,-0.1018,-538.82,-1407.53,546.45
7650,-3.8706,-0.9739,-0.0166,-1663.82,-1017.27,968.51
7660,-3.8704,-1.0770,0.0654,-648.19,1888.67,46.81
7670,-3.8702,-1.1687,0.1359,-1851.32,388.49,125.12
7680,-3.8702,-1.2681,0.1860,-1585.69,1403.93,-1499.76
7690,-3.8701,-1.3639,0.2241,1695.56,-174.38,1828.43
7700,-3.8700,-1.4482,0.2675,1429.93,700.44,-1999.57
7710,-3.8699,-1.5323,0.3215,-1366.94,-1752.87,937.99
7720,-3.8699,-1.6129,0.3822,-132.57,1168.82,1469.36
7730,-3.8700,-1.6678,0.4462,1554.93,934.33,-358.64
7740,-3.8700,-1.6946,0.4998,-1476.32,1121.70,32.10
7750,-3.8702,-1.6903,0.5215,-898.19,-18.98,-1249.08
7760,-3.8704,-1.6396,0.5105,-351.32,-1237.73,844.73
7770,-3.8706,-1.5490,0.4805,-1866.94,1356.14,-561.52
7780,-3.8707,-1.4359,0.4386,1742.43,1512.57,1938.42
7790,-3.8710,-1.3104,0.3937,211.18,153.44,-171.02
7800,-3.8711,-1.1891,0.3605,273.68,-1596.31,1141.36
7810,-3.8713,-1.0854,0.3318,-195.07,-1846.13,1969.42
7820,-3.8716,-0.9971,0.2942,1070.56,-1517.76,-765.01
7830,-3.8717,-0.9182,0.2506,383.06,1669.92,1844.30
7840,-3.8718,-0.8528,0.1993,-1523.19,91.92,1406.74
7850,-3.8719,-0.8046,0.1526,-1148.19,1529.54,1594.12
7860,-3.8721,-0.7726,0.1263,1023.68,-454.71,-734.13
7870,-3.8721,-0.7556,0.1025,1117.43,185.97,-1406.01
7880,-3.8721,-0.7400,0.0625,-710.69,1139.10,-1187.32
7890,-3.8721,-0.7036,0.0204,1289.31,14.16,-140.50
7900,-3.8719,-0.6488,-0.0054,1945.56,-1376.40,1421.88
7910,-3.8719,-0.5992,-0.0179,961.18,-673.16,-1781.31
7920,-3.8719,-0.5641,-0.0262,-695.07,1717.53,1874.94
7930,-3.8719,-0.5417,-0.0328,-195.07,655.09,1140.56
7940,-3.8721,-0.5312,-0.0403,-1335.69,-188.60,-62.62
7950,-3.8721,-0.5186,-0.0500,8.06,-1141.66,-1797.00
7960,-3.8721,-0.4894,-0.0660,1633.06,1608.34,734.25
7970,-3.8722,-0.4437,-0.0944,1367.43,-438.48,-0.18
7980,-3.8721,-0.3787,-0.1343,-788.82,-63.42,499.76
7990,-3.8721,-0.2833,-0.1700,-460.69,-1172.67,-1234.68
8000,-3.8719,-0.1646,-0.2037,-257.57,-1750.61,-1828.49
8010,-3.8718,-0.0475,-0.2568,-1054.44,1937.13,1562.07
8020,-3.8717,0.0549,-0.3346,1929.93,-859.50,265.08
8030,-3.8717,0.1473,-0.4518,-960.69,1171.94,-1500.67
8040,-3.8716,0.2650,-0.6096,-1132.57,-1827.88,-1516.54
8050,-3.8713,0.4480,-0.7705,1929.93,1969.24,-1719.97
8060,-3.8710,0.6793,-0.9213,1351.81,1375.85,1826.60
8070,-3.8706,0.9150,-1.0647,-1038.82,-1920.59,-658.08
8080,-3.8701,1.1268,-1.1847,1133.06,-279.48,169.74
8090,-3.8699,1.2961,-1.2858,242.43,361.57,-1299.19
8100,-3.8696,1.4232,-1.3888,1914.31,-575.62,-1783.81
8110,-3.8695,1.5209,-1.4755,-1820.07,-1762.88,-112.12
8120,-3.8693,1.5839,-1.4950,-1320.07,-856.45,59.57
8130,-3.8694,1.5961,-1.4316,-1257.57,643.68,-18.55
8140,-3.8695,1.5552,-1.3177,304.93,753.11,1762.82
8150,-3.8699,1.4702,-1.1920,-929.44,-668.88,-1862.00
8160,-3.8704,1.3511,-1.0763,195.56,-575.26,-689.88
8170,-3.8708,1.2062,-0.9706,945.56,-1763.00,-361.51
8180,-3.8712,1.0444,-0.8739,-1601.32,-232.06,1169.92
8190,-3.8716,0.8826,-0.7992,1695.56,142.64,1685.79
8200,-3.8718,0.7466,-0.7538,976.81,1704.83,-1282.84
8210,-3.8718,0.6483,-0.7394,-429.44,-482.97,826.60
8220,-3.8718,0.5714,-0.7539,-1007.57,1360.60,-1095.21
8230,-3.8717,0.4883,-0.7830,1148.68,-498.90,-1048.40
8240,-3.8716,0.3833,-0.7955,-1491.94,-217.83,-673.46
8250,-3.8715,0.2660,-0.7581,1070.56,-1827.39,-735.96
8260,-3.8713,0.1532,-0.6740,-1945.07,-1030.76,-1485.90
8270,-3.8712,0.0448,-0.5746,-382.57,1734.62,248.66
8280,-3.8713,-0.0499,-0.4723,1742.43,-1546.81,-173.03
8290,-3.8713,-0.1213,-0.3694,1617.43,-437.62,-1391.60
8300,-3.8713,-0.1967,-0.2800,476.81,734.13,-1406.98
8310,-3.8712,-0.3317,-0.2198,-1163.82,171.45,218.20
8320,-3.8711,-0.5598,-0.1703,1554.93,-125.67,390.14
8330,-3.8708,-0.8625,-0.0924,351.81,-1782.35,1749.63
8340,-3.8704,-1.1829,0.0304,1601.81,185.79,1343.57
8350,-3.8699,-1.4586,0.1858,601.81,-96.07,-781.25
8360,-3.8694,-1.6494,0.3369,1304.93,-205.99,1609.68
8370,-3.8691,-1.7534,0.4557,883.06,-862.61,1641.24
8380,-3.8691,-1.7999,0.5398,-429.44,-1659.73,-1421.02
8390,-3.8693,-1.8156,0.6014,1617.43,1105.83,751.04
8400,-3.8696,-1.8121,0.6617,-382.57,996.40,1719.91
8410,-3.8701,-1.7906,0.7170,54.93,715.21,-404.97
8420,-3.8705,-1.7531,0.7496,-1195.07,-206.67,126.34
8430,-3.8710,-1.7089,0.7554,-382.57,-34.73,220.15
8440,-3.8715,-1.6603,0.7423,1273.68,699.77,1313.96
8450,-3.8718,-1.5969,0.7161,-507.57,-972.05,1813.90
8460,-3.8721,-1.5114,0.6705,-398.19,-331.30,-1451.78
8470,-3.8722,-1.4120,0.6012,-1445.07,1840.76,-1795.59
8480,-3.8723,-1.3129,0.5189,-726.32,965.94,-1014.47
8490,-3.8724,-1.2142,0.4467,-38.82,-1565.12,-592.77
8500,-3.8726,-1.1127,0.3927,586.18,1185.12,-686.65
8510,-3.8727,-1.0184,0.3416,1586.18,-1720.95,-671.14
8520,-3.8727,-0.9397,0.2749,1648.68,-267.64,172.49
8530,-3.8728,-0.8666,0.1970,-273.19,-798.77,-1218.26
8540,-3.8728,-0.7917,0.1212,1086.18,1232.67,-484.01
8550,-3.8727,-0.7169,0.0450,-1335.69,-470.34,1593.93
8560,-3.8727,-0.6339,-0.0210,242.43,1779.85,-62.44
8570,-3.8726,-0.5360,-0.0635,-1132.57,1326.84,-1875.06
8580,-3.8726,-0.4282,-0.0928,-601.32,-110.47,-297.06
8590,-3.8724,-0.3179,-0.1239,1195.56,139.77,609.19
8600,-3.8724,-0.2245,-0.1705,-679.44,155.58,1874.76
8610,-3.8723,-0.1578,-0.2333,-726.32,-1812.99,577.76
8620,-3.8722,-0.0961,-0.2861,-195.07,-1844.12,1108.89
8630,-3.8721,-0.0233,-0.3280,-288.82,-609.62,-516.24
8640,-3.8718,0.0555,-0.3851,1023.68,-1968.81,-641.30
8650,-3.8715,0.1350,-0.4558,-882.57,-1296.81,1592.96
8660,-3.8711,0.1993,-0.5312,1289.31,1656.49,-1360.29
8670,-3.8706,0.2329,-0.6165,1523.68,0.37,1670.84
8680,-3.8701,0.2529,-0.7122,1820.56,1094.18,1951.90
8690,-3.8696,0.3016,-0.8003,383.06,844.24,-1767.03
8700,-3.8691,0.4132,-0.8579,-1382.57,1563.05,576.54
8710,-3.8689,0.5818,-0.8807,898.68,-1811.71,-1767.33
8720,-3.8688,0.7705,-0.8967,-1523.19,-733.28,732.60
8730,-3.8689,0.9437,-0.9296,-1366.94,1220.21,248.23
8740,-3.8691,1.0663,-0.9746,804.93,1017.46,935.67
8750,-3.8693,1.1171,-1.0261,492.43,-747.92,388.67
8760,-3.8693,1.1060,-1.0770,-1007.57,658.39,872.99
8770,-3.8691,1.0754,-1.1191,1570.56,-1857.24,591.61
8780,-3.8690,1.0621,-1.1481,1664.31,752.08,1482.18
8790,-3.8689,1.0649,-1.1610,-38.82,1048.89,857.12
8800,-3.8690,1.0691,-1.1636,320.56,-607.30,-517.94
8810,-3.8691,1.0608,-1.1447,851.81,-935.42,700.81
8820,-3.8695,1.0355,-1.0804,-210.69,1486.39,1263.37
8830,-3.8700,0.9891,-0.9838,554.93,1705.14,-1205.26
8840,-3.8705,0.9119,-0.8959,-1382.57,-1919.98,-501.95
8850,-3.8708,0.8064,-0.8344,726.81,1329.90,1232.60
8860,-3.8712,0.6840,-0.7964,-773.19,1204.65,-1704.77
8870,-3.8713,0.5551,-0.7822,-445.07,-1936.22,748.41
8880,-3.8713,0.4329,-0.7885,-945.07,-123.96,857.79
8890,-3.8712,0.3289,-0.7856,-585.69,-921.08,1170.29
8900,-3.8711,0.2407,-0.7455,-1898.19,-561.89,-64.09
8910,-3.8707,0.1420,-0.7006,-1179.44,578.55,201.66
8920,-3.8705,0.0118,-0.6921,-1820.07,-1671.63,936.10
8930,-3.8702,-0.1278,-0.7007,1523.68,-593.75,-1548.28
8940,-3.8699,-0.2598,-0.6849,-351.32,-1672.18,-282.65
8950,-3.8693,-0.4102,-0.6106,-1241.94,343.20,451.78
8960,-3.8689,-0.6255,-0.4594,-491.94,1858.52,-407.47
8970,-3.8685,-0.9175,-0.2502,-54.44,1217.47,45.96
8980,-3.8685,-1.2311,-0.0159,-1429.44,-17.46,108.83
8990,-3.8688,-1.5021,0.2288,-1570.07,1981.93,1171.81
9000,-3.8691,-1.7124,0.4630,-257.57,1293.88,687.93
9010,-3.8696,-1.8656,0.6620,820.56,-722.11,1047.73
9020,-3.8701,-1.9619,0.8308,1211.18,746.34,1141.91
9030,-3.8706,-2.0105,0.9750,883.06,-1644.47,-1014.04
9040,-3.8710,-2.0145,1.0812,-1335.69,808.53,-498.11
9050,-3.8712,-1.9698,1.1559,-1851.32,-1597.72,-1388.55
9060,-3.8715,-1.9036,1.2052,-132.57,-35.16,-1279.05
9070,-3.8717,-1.8346,1.2180,351.81,-1722.47,830.44
9080,-3.8721,-1.7367,1.1843,1179.93,-81.73,1580.44
9090,-3.8723,-1.5920,1.0990,1711.18,-394.04,1049.13
9100,-3.8726,-1.4208,0.9645,226.81,684.39,-232.24
9110,-3.8727,-1.2505,0.8090,-1851.32,-534.06,-341.92
9120,-3.8728,-1.0970,0.6635,-54.44,-440.00,-654.72
9130,-3.8729,-0.9642,0.5385,-413.82,935.30,-1654.97
9140,-3.8730,-0.8480,0.4287,586.18,935.61,829.16
9150,-3.8733,-0.7476,0.3145,-538.82,-1111.08,-483.58
9160,-3.8734,-0.6575,0.1984,320.56,264.16,-124.39
9170,-3.8734,-0.5724,0.1107,-148.19,1404.91,-937.13
9180,-3.8733,-0.5089,0.0551,-1257.57,-1813.66,31.43
9190,-3.8733,-0.4895,-0.0037,-1132.57,-938.54,1625.06
9200,-3.8732,-0.5007,-0.0804,1351.81,-454.10,624.94
9210,-3.8730,-0.4913,-0.1591,-85.69,1717.71,-1890.81
9220,-3.8728,-0.4443,-0.2336,1117.43,-344.73,1405.88
9230,-3.8726,-0.3802,-0.3127,-866.94,-1891.54,1280.76
9240,-3.8723,-0.3048,-0.4062,-663.82,-16.42,-1297.55
9250,-3.8719,-0.2260,-0.5031,992.43,15.01,-1360.17
9260,-3.8716,-0.1575,-0.5729,-913.82,-375.49,-969.79
9270,-3.8712,-0.1038,-0.6073,-148.19,-1312.87,1201.97
9280,-3.8710,-0.0623,-0.6261,-1273.19,-1718.99,186.28
9290,-3.8708,-0.0179,-0.6538,39.31,-125.12,1639.34
9300,-3.8707,0.0500,-0.6923,1711.18,328.06,-688.78
9310,-3.8705,0.1366,-0.7352,-1585.69,-609.31,232.97
9320,-3.8705,0.2216,-0.7858,1492.43,1890.87,-767.09
9330,-3.8704,0.3005,-0.8376,367.43,-577.70,1123.41
9340,-3.8704,0.3743,-0.8765,-1523.19,781.80,-564.15
9350,-3.8702,0.4460,-0.8918,-85.69,-186.83,-1939.27
9360,-3.8702,0.5242,-0.8828,1101.81,1844.60,-79.90
9370,-3.8701,0.6157,-0.8624,-898.19,-999.02,295.10
9380,-3.8702,0.7239,-0.8501,-1179.44,1610.53,-751.71
9390,-3.8702,0.8345,-0.8497,664.31,-811.10,810.79
9400,-3.8704,0.9259,-0.8535,-1179.44,-764.04,763.92
9410,-3.8706,0.9841,-0.8558,-1476.32,-1248.23,-282.96
9420,-3.8707,1.0133,-0.8494,1976.81,-1544.98,-751.71
9430,-3.8707,1.0355,-0.8335,1711.18,-716.80,201.42
9440,-3.8708,1.0629,-0.8104,554.93,1314.51,-1907.90
9450,-3.8708,1.1006,-0.7780,54.93,267.70,545.29
9460,-3.8710,1.1567,-0.7401,883.06,424.01,-610.90
9470,-3.8710,1.2257,-0.7015,70.56,1267.88,-938.96
9480,-3.8708,1.2686,-0.6738,898.68,-1794.49,264.22
9490,-3.8708,1.2493,-0.6560,-1616.94,1752.44,-1501.34
9500,-3.8707,1.1680,-0.6411,-85.69,33.63,420.59
9510,-3.8707,1.0381,-0.6327,1508.06,1939.76,326.84
9520,-3.8708,0.8817,-0.6305,883.06,-982.36,1858.09
9530,-3.8710,0.7186,-0.6354,867.43,-701.42,-1360.66
9540,-3.8710,0.5576,-0.6497,-7.57,-1326.78,1201.84
9550,-3.8710,0.4194,-0.6829,-616.94,844.79,-1016.91
9560,-3.8707,0.3311,-0.7352,1695.56,594.54,483.03
9570,-3.8705,0.2837,-0.7988,-1616.94,1891.24,92.29
9580,-3.8704,0.2463,-0.8650,320.56,1750.55,-579.71
9590,-3.8701,0.2032,-0.9250,-460.69,1281.68,-1204.83
9600,-3.8699,0.1381,-0.9739,-1976.32,1594.12,-1501.83
9610,-3.8696,0.0398,-0.9987,1679.93,-656.01,1154.30
9620,-3.8695,-0.0890,-0.9792,1101.81,171.94,873.05
9630,-3.8695,-0.2372,-0.9070,617.43,-1328.31,982.42
9640,-3.8696,-0.3907,-0.7839,1648.68,-78.61,1248.17
9650,-3.8699,-0.5460,-0.6222,1992.43,-328.92,-1985.96
9660,-3.8701,-0.7090,-0.4412,-1882.57,373.90,1233.15
9670,-3.8704,-0.8887,-0.2524,1258.06,-454.53,1014.71
9680,-3.8706,-1.0818,-0.0675,-1741.94,-298.65,-1656.80
9690,-3.8707,-1.2751,0.1036,1539.31,-627.14,1187.32
9700,-3.8708,-1.4492,0.2660,789.31,1278.75,1390.81
9710,-3.8710,-1.5836,0.4203,-1491.94,-1940.37,-1062.01
9720,-3.8710,-1.6755,0.5634,1304.93,1809.39,1547.67
9730,-3.8711,-1.7363,0.6935,1539.31,121.70,-108.28
9740,-3.8711,-1.7708,0.8041,1758.06,777.83,704.47
9750,-3.8712,-1.7759,0.8914,1351.81,-1065.98,1.53
9760,-3.8715,-1.7570,0.9434,695.56,-1894.10,-1904.54
9770,-3.8717,-1.7148,0.9463,-882.57,762.15,-623.17
9780,-3.8718,-1.6422,0.9054,508.06,1137.27,1283.08
9790,-3.8719,-1.5464,0.8367,1804.93,-96.98,454.83
9800,-3.8722,-1.4370,0.7550,-1929.44,-893.68,-45.29
9810,-3.8723,-1.3173,0.6747,70.56,653.44,-576.66
9820,-3.8724,-1.2006,0.6000,-601.32,-1627.62,-1248.72
9830,-3.8726,-1.0935,0.5312,-1663.82,810.12,1266.78
9840,-3.8727,-0.9940,0.4681,39.31,13.49,16.66
9850,-3.8728,-0.9089,0.4017,773.68,-64.45,1188.35
9860,-3.8728,-0.8468,0.3243,-335.69,-564.33,1531.98
9870,-3.8727,-0.8087,0.2374,-382.57,1529.54,219.36
9880,-3.8727,-0.7830,0.1487,492.43,-1595.34,-374.57
9890,-3.8726,-0.7535,0.0673,-210.69,-954.71,-1171.63
9900,-3.8724,-0.7123,-0.0010,-445.07,623.47,1797.00
9910,-3.8723,-0.6489,-0.0564,836.18,-110.78,734.31
9920,-3.8722,-0.5638,-0.1089,945.56,795.59,46.75
9930,-3.8722,-0.4741,-0.1742,-163.82,-1923.03,-187.74
9940,-3.8721,-0.3937,-0.2513,-679.44,1717.77,-422.24
9950,-3.8719,-0.3265,-0.3204,1617.43,-157.04,-469.30
9960,-3.8717,-0.2679,-0.3691,-1788.82,-1000.67,233.70
9970,-3.8716,-0.2163,-0.4045,1711.18,765.08,999.27
9980,-3.8715,-0.1697,-0.4418,320.56,233.95,1139.83
9990,-3.8713,-0.1162,-0.4855,-1710.69,-531.62,295.96
10000,-3.8713,-0.0535,-0.5402,1133.06,1874.76,-1454.10
10010,-3.8712,0.0146,-0.6199,1164.31,-1125.12,1248.90
10020,-3.8711,0.0981,-0.7189,1883.06,656.25,-1610.60
10030,-3.8708,0.1973,-0.8135,570.56,-15.44,-1157.71
10040,-3.8705,0.3021,-0.8966,1258.06,-124.63,1592.10
10050,-3.8701,0.4156,-0.9686,-1320.07,1234.92,170.10
10060,-3.8699,0.5448,-1.0330,1211.18,16.42,373.11
10070,-3.8698,0.6893,-1.0928,1742.43,-217.71,1076.05
10080,-3.8698,0.8291,-1.1431,242.43,126.34,-814.64
10090,-3.8696,0.9265,-1.1831,-1866.94,1689.09,966.49
10100,-3.8696,0.9601,-1.2167,-1398.19,564.27,-861.69
10110,-3.8695,0.9473,-1.2476,-1101.32,267.46,1028.87
10120,-3.8695,0.9265,-1.2721,1258.06,314.33,-1643.07
10130,-3.8695,0.9199,-1.2913,-1398.19,1173.65,-1018.13
10140,-3.8695,0.9233,-1.3064,1758.06,-1279.48,-1627.56
10150,-3.8695,0.9238,-1.3090,-1804.44,783.02,13.06
10160,-3.8696,0.9185,-1.2887,-1741.94,454.90,28.69
10170,-3.8699,0.9092,-1.2609,1570.56,-951.35,-1408.81
10180,-3.8701,0.8962,-1.2552,383.06,-1388.85,-96.25
10190,-3.8704,0.8811,-1.2618,-1273.19,-670.17,-49.38
10200,-3.8706,0.8578,-1.2505,789.31,-1513.92,-971.25
10210,-3.8708,0.8173,-1.2131,1804.93,-60.85,-1924.38
10220,-3.8711,0.7611,-1.1603,617.43,720.34,1981.99
10230,-3.8713,0.6935,-1.1046,1429.93,-514.16,-1002.32
10240,-3.8715,0.6113,-1.0520,773.68,-1389.28,685.30
10250,-3.8717,0.5126,-1.0016,-1741.94,1344.91,-1736.45
10260,-3.8719,0.4065,-0.9500,1617.43,-202.15,-236.39
10270,-3.8721,0.3073,-0.8997,39.31,-1592.96,-1408.14
10280,-3.8722,0.2227,-0.8568,-663.82,844.30,-142.40
10290,-3.8722,0.1477,-0.8289,508.06,-1671.45,-657.96
10300,-3.8722,0.0699,-0.8145,-1085.69,1906.49,-470.40
10310,-3.8722,-0.0120,-0.7977,961.18,-249.88,-439.15
10320,-3.8721,-0.0839,-0.7639,-1523.19,1906.19,76.54
10330,-3.8721,-0.1410,-0.7034,1273.68,-1765.81,1451.60
10340,-3.8721,-0.2075,-0.6111,1961.18,1984.07,-1407.65
10350,-3.8721,-0.3141,-0.4773,1445.56,1796.45,-1016.85
10360,-3.8721,-0.4860,-0.2924,-195.07,-1078.80,-516.60
10370,-3.8719,-0.7396,-0.0724,1804.93,-1407.23,374.39
10380,-3.8719,-1.0542,0.1631,1336.18,-1251.46,202.94
10390,-3.8721,-1.3796,0.4128,1070.56,888.55,-843.44
10400,-3.8721,-1.6835,0.6743,-585.69,856.63,-1030.46
10410,-3.8719,-1.9551,0.9358,523.68,-1675.17,485.66
10420,-3.8718,-2.1853,1.1771,1758.06,-206.97,158.02
10430,-3.8717,-2.3657,1.3696,289.31,-1316.77,924.13
10440,-3.8716,-2.4875,1.4863,1195.56,-676.51,1362.00
10450,-3.8715,-2.5337,1.5125,1601.81,-1739.26,1721.62
10460,-3.8713,-2.4935,1.4473,-304.44,1604.37,-1434.57
10470,-3.8712,-2.3807,1.3125,836.18,1260.74,-1434.69
10480,-3.8711,-2.2178,1.1605,-726.32,10.93,408.81
10490,-3.8711,-2.0223,1.0341,133.06,558.17,236.63
10500,-3.8712,-1.8110,0.9418,1148.68,371.03,1830.14
10510,-3.8715,-1.6140,0.8683,195.56,558.96,-591.92
10520,-3.8717,-1.4615,0.7976,1414.31,-846.92,454.77
10530,-3.8722,-1.3540,0.7286,929.93,-1893.49,-435.97
10540,-3.8724,-1.2576,0.6655,-1304.44,1278.56,204.53
10550,-3.8727,-1.1445,0.6022,-960.69,1200.62,313.78
10560,-3.8729,-1.0114,0.5194,1508.06,1091.49,-420.72
10570,-3.8729,-0.8701,0.4069,-1445.07,-1502.01,1172.85
10580,-3.8729,-0.7390,0.2729,633.06,92.04,1016.42
10590,-3.8728,-0.6364,0.1144,1414.31,-1048.34,78.61
10600,-3.8726,-0.5581,-0.0695,-1445.07,-1345.03,156.43
10610,-3.8722,-0.4745,-0.2531,570.56,-876.10,-1859.56
10620,-3.8717,-0.3740,-0.4187,-726.32,-375.98,-172.42
10630,-3.8711,-0.2778,-0.5602,133.06,-1578.86,1999.15
10640,-3.8706,-0.2266,-0.6837,445.56,311.95,-797.97
10650,-3.8701,-0.2249,-0.8013,-991.94,499.51,-298.22
10660,-3.8695,-0.2041,-0.9054,-773.19,1452.64,1623.41
10670,-3.8689,-0.1038,-0.9952,1883.06,124.57,45.10
10680,-3.8685,0.0692,-1.0883,-1273.19,624.76,1341.80
10690,-3.8684,0.2720,-1.1772,867.43,703.25,-799.01
10700,-3.8684,0.4568,-1.2267,-1179.44,1312.99,-689.82
10710,-3.8685,0.5840,-1.2373,-1523.19,-1014.77,-96.19
10720,-3.8687,0.6455,-1.2457,-1241.94,1626.10,-408.69
10730,-3.8687,0.6729,-1.2666,-1366.94,548.10,513.18
10740,-3.8688,0.6934,-1.2911,-1866.94,1876.28,-627.50
10750,-3.8688,0.7230,-1.3062,758.06,-1264.28,-783.81
10760,-3.8688,0.7794,-1.2987,554.93,813.90,-1174.44
10770,-3.8688,0.8553,-1.2706,-226.32,1767.09,684.94
10780,-3.8690,0.9261,-1.2306,1492.43,1361.02,-1986.88
10790,-3.8694,0.9814,-1.1782,-1445.07,-1513.85,1544.43
10800,-3.8699,1.0199,-1.1160,1633.06,1189.39,1341.43
10810,-3.8704,1.0271,-1.0460,-1445.07,1158.20,263.43
10820,-3.8708,0.9789,-0.9683,-523.19,-1888.67,732.30
10830,-3.8712,0.8684,-0.8969,1304.93,64.39,248.11
10840,-3.8716,0.7202,-0.8425,-835.69,1204.77,-736.15
10850,-3.8717,0.5801,-0.7932,195.56,157.65,1998.35
10860,-3.8718,0.4786,-0.7384,-1741.94,-1530.15,-110.96
10870,-3.8718,0.4059,-0.6935,1273.68,1485.29,-907.71
10880,-3.8718,0.3414,-0.6682,-38.82,-764.89,1842.35
10890,-3.8718,0.2848,-0.6476,-288.82,-1530.64,701.78
10900,-3.8718,0.2336,-0.6196,461.18,1109.92,404.97
10910,-3.8718,0.1808,-0.5870,1914.31,687.93,217.53
10920,-3.8719,0.1279,-0.5547,-851.32,859.68,-376.16
10930,-3.8719,0.0682,-0.5155,383.06,1000.24,-891.72
10940,-3.8719,-0.0231,-0.4564,742.43,-1984.25,-579.16
10950,-3.8718,-0.1669,-0.3654,1054.93,1593.69,1092.83
10960,-3.8717,-0.3586,-0.2289,-1351.32,1249.63,1264.89
10970,-3.8715,-0.5883,-0.0514,-1898.19,-1281.98,77.64
10980,-3.8712,-0.8381,0.1471,711.18,1436.34,390.50
10990,-3.8710,-1.0787,0.3612,726.81,-1157.90,1140.87
11000,-3.8707,-1.2953,0.5853,1929.93,-1752.14,1063.17
11010,-3.8706,-1.4906,0.8065,-1788.82,-1065.06,-827.03
11020,-3.8705,-1.6693,1.0090,1211.18,-752.93,-1342.22
11030,-3.8705,-1.8088,1.1689,-1663.82,1168.58,-841.80
11040,-3.8705,-1.8755,1.2632,476.81,1637.08,1846.01
11050,-3.8706,-1.8690,1.2922,-54.44,1699.40,-13.18
11060,-3.8706,-1.8353,1.2869,773.68,1418.21,1565.00
11070,-3.8707,-1.8196,1.2808,1086.18,730.77,-1810.00
11080,-3.8708,-1.8254,1.2697,-898.19,-50.48,-1794.43
11090,-3.8710,-1.8295,1.2291,-1648.19,-1472.35,1768.07
11100,-3.8711,-1.7928,1.1553,1836.18,1340.15,549.26
11110,-3.8713,-1.6914,1.0586,-1476.32,-112.92,-872.80
11120,-3.8715,-1.5554,0.9413,-491.94,-487.73,1267.64
11130,-3.8717,-1.4377,0.7969,914.31,496.95,-1513.79
11140,-3.8718,-1.3412,0.6417,-23.19,-1987.24,1282.78
11150,-3.8718,-1.2417,0.4971,336.18,-1846.37,548.10
11160,-3.8718,-1.1382,0.3536,1070.56,-361.82,-202.21
11170,-3.8716,-1.0426,0.1996,-1679.44,1278.99,610.05
11180,-3.8715,-0.9623,0.0430,-1445.07,1560.42,1422.24
11190,-3.8713,-0.8905,-0.1097,836.18,1513.73,1953.19
11200,-3.8712,-0.8022,-0.2559,-1976.32,1966.98,-906.49
11210,-3.8710,-0.6846,-0.3856,1320.56,-735.96,1171.33
11220,-3.8708,-0.5569,-0.4972,383.06,-1345.09,-953.92
11230,-3.8706,-0.4290,-0.5964,726.81,373.90,483.40
11240,-3.8705,-0.2924,-0.6891,1101.81,-328.98,1545.65
11250,-3.8704,-0.1432,-0.7805,-1413.82,-188.11,826.72
11260,-3.8704,0.0133,-0.8711,1679.93,109.07,-1235.90
11270,-3.8702,0.1604,-0.9518,1711.18,500.00,1357.67
11280,-3.8701,0.2870,-1.0049,539.31,-1827.82,810.61
11290,-3.8701,0.3937,-1.0380,742.43,-624.45,-95.76
11300,-3.8700,0.4833,-1.0859,-1601.32,-858.64,1435.42
11310,-3.8700,0.5664,-1.1520,1867.43,1000.92,1919.74
11320,-3.8700,0.6482,-1.2178,508.06,547.97,-627.26
11330,-3.8699,0.7205,-1.2739,-1023.19,126.22,1716.37
11340,-3.8699,0.7833,-1.3230,226.81,938.90,-627.50
11350,-3.8698,0.8417,-1.3710,273.68,-1342.22,450.50
11360,-3.8698,0.8973,-1.4091,-257.57,517.21,1591.06
11370,-3.8698,0.9547,-1.4296,-1132.57,-357.67,-1705.93
11380,-3.8698,1.0287,-1.4208,-1788.82,1017.46,1169.07
11390,-3.8700,1.1080,-1.3645,-320.07,-1857.42,-65.31
11400,-3.8702,1.1447,-1.2675,1836.18,1345.89,466.06
11410,-3.8708,1.1188,-1.1501,-1476.32,1767.82,-893.13
11420,-3.8715,1.0488,-1.0293,-788.82,783.39,-17.88
11430,-3.8719,0.9580,-0.9309,-1741.94,252.01,-189.51
11440,-3.8722,0.8595,-0.8633,-1366.94,845.58,716.92
11450,-3.8724,0.7585,-0.8121,-1976.32,1501.65,-1095.46
11460,-3.8724,0.6584,-0.7721,1101.81,48.34,1654.66
11470,-3.8724,0.5505,-0.7462,289.31,1173.16,-970.28
11480,-3.8723,0.4395,-0.7302,-1523.19,485.41,1373.54
11490,-3.8722,0.3524,-0.7114,258.06,-1467.90,1029.79
11500,-3.8721,0.2966,-0.6792,1117.43,938.17,-1876.40
11510,-3.8719,0.2407,-0.6350,1976.81,1063.05,-220.09
11520,-3.8717,0.1538,-0.5848,-1179.44,-1280.82,1404.97
11530,-3.8716,0.0356,-0.5262,-304.44,1140.87,-1032.41
11540,-3.8713,-0.1010,-0.4504,570.56,640.69,577.09
11550,-3.8712,-0.2493,-0.3418,-913.82,-1640.87,-1672.79
11560,-3.8710,-0.4111,-0.1852,101.81,265.14,202.45
11570,-3.8708,-0.6024,-0.0094,-616.94,311.65,1296.51
11580,-3.8707,-0.8160,0.1425,-1101.32,-1188.72,1921.81
11590,-3.8705,-1.0084,0.2874,-445.07,-1751.65,172.12
11600,-3.8704,-1.1741,0.4495,-1070.07,794.86,-233.83
11610,-3.8701,-1.3375,0.6093,1726.81,1544.56,-1967.90
11620,-3.8700,-1.5015,0.7462,804.93,1997.38,-1764.47
11630,-3.8699,-1.6600,0.8596,-179.44,-471.74,-1826.72
11640,-3.8698,-1.7975,0.9509,-476.32,-1956.42,-670.23
11650,-3.8695,-1.8833,1.0189,1929.93,1730.83,1751.83
11660,-3.8693,-1.9012,1.0530,-1054.44,-1566.22,33.20
11670,-3.8693,-1.8591,1.0292,648.68,-1206.85,-482.36
11680,-3.8693,-1.7709,0.9535,-1960.69,-253.66,-1060.55
11690,-3.8693,-1.6475,0.8604,1336.18,-1940.98,1.83
11700,-3.8694,-1.5054,0.7693,1133.06,-1862.61,501.65
11710,-3.8695,-1.3669,0.6774,-679.44,-1518.62,235.84
11720,-3.8698,-1.2469,0.5765,1039.31,-1283.94,-1842.47
11730,-3.8700,-1.1385,0.4767,398.68,1810.06,1672.97
11740,-3.8704,-1.0316,0.3922,-1726.32,1028.99,-733.46
11750,-3.8707,-0.9299,0.3171,-38.82,-1783.33,-452.39
11760,-3.8711,-0.8390,0.2424,976.81,607.54,-561.89
11770,-3.8713,-0.7543,0.1689,617.43,-954.77,328.55
11780,-3.8717,-0.6664,0.0952,-538.82,1639.10,-530.94
11790,-3.8718,-0.5718,0.0188,-1288.82,201.78,1578.31
11800,-3.8719,-0.4822,-0.0693,-1179.44,-1579.28,-1437.50
11810,-3.8719,-0.3962,-0.1688,-1710.69,-860.35,-1484.56
11820,-3.8718,-0.2996,-0.2550,1289.31,-1594.54,468.38
11830,-3.8718,-0.1996,-0.3190,1664.31,-625.61,-1609.92
11840,-3.8718,-0.1133,-0.3729,-1538.82,-812.93,-110.05
11850,-3.8717,-0.0470,-0.4227,1508.06,281.01,1702.39
11860,-3.8717,-0.0010,-0.4684,1992.43,1906.13,-47.73
11870,-3.8716,0.0298,-0.5090,-116.94,62.44,-1016.54
11880,-3.8713,0.0571,-0.5453,-179.44,-1156.25,45.84
11890,-3.8712,0.0891,-0.5875,-679.44,-1796.81,-907.35
11900,-3.8710,0.1268,-0.6438,-585.69,797.00,-1610.53
11910,-3.8707,0.1776,-0.7118,242.43,1593.99,904.97
11920,-3.8706,0.2505,-0.7760,-1257.57,890.93,-1798.28
11930,-3.8705,0.3340,-0.8250,70.56,672.36,1389.10
11940,-3.8705,0.4065,-0.8580,-1241.94,-1593.14,-1954.77
11950,-3.8705,0.4601,-0.8712,39.31,-1827.33,967.04
11960,-3.8706,0.4918,-0.8638,-1101.32,485.23,-1564.21
11970,-3.8707,0.4993,-0.8392,-1038.82,1438.42,-1892.33
11980,-3.8710,0.4885,-0.8010,-85.69,579.04,-157.90
11990,-3.8712,0.4742,-0.7455,-1460.69,1469.67,-126.59
12000,-3.8715,0.4723,-0.6755,711.18,579.04,-1032.71
12010,-3.8717,0.4893,-0.6102,461.18,1532.17,-1970.09
12020,-3.8719,0.5216,-0.5693,-1366.94,1891.54,1436.28
12030,-3.8722,0.5680,-0.5563,-1226.32,-874.02,1201.97
12040,-3.8724,0.6299,-0.5505,711.18,797.97,-1907.35
12050,-3.8726,0.6869,-0.5399,633.06,1532.47,1545.78
12060,-3.8727,0.7242,-0.5282,-70.07,-1108.09,-407.35
12070,-3.8727,0.7472,-0.5210,711.18,392.03,-235.41
12080,-3.8726,0.7549,-0.5271,-351.32,1313.90,-1766.66
12090,-3.8724,0.7574,-0.5430,633.06,532.71,-1610.41
12100,-3.8723,0.7722,-0.5610,961.18,-1498.54,-1485.47
12110,-3.8722,0.8007,-0.5847,-1148.19,188.96,1467.65
12120,-3.8722,0.8193,-0.6202,-1507.57,1157.78,-157.41
12130,-3.8721,0.8143,-0.6642,883.06,610.96,-1173.10
12140,-3.8719,0.7894,-0.7018,242.43,-1014.04,-1.34
12150,-3.8717,0.7543,-0.7314,1054.93,-1826.60,-63.90
12160,-3.8713,0.7223,-0.7609,554.93,-1623.54,1404.79
12170,-3.8711,0.6904,-0.7928,461.18,-1389.22,-1642.15
12180,-3.8708,0.6470,-0.8191,383.06,-1483.03,1185.91
12190,-3.8707,0.5972,-0.8241,-1179.44,-842.53,-1767.27
12200,-3.8706,0.5426,-0.8121,445.56,-1483.22,-1923.52
12210,-3.8705,0.4791,-0.7983,1461.18,47.91,107.79
12220,-3.8705,0.4147,-0.7776,1336.18,1813.42,170.29
12230,-3.8706,0.3511,-0.7371,1086.18,469.54,-626.53
12240,-3.8706,0.2740,-0.6821,945.56,1656.92,-829.59
12250,-3.8705,0.1616,-0.6100,-913.82,687.99,326.78
12260,-3.8705,-0.0072,-0.4993,695.56,1922.18,-1016.85
12270,-3.8704,-0.2386,-0.3469,-913.82,109.31,-1110.35
12280,-3.8702,-0.5194,-0.1703,1461.18,-391.11,-1250.73
12290,-3.8701,-0.8169,0.0231,1523.68,-1782.29,1874.63
12300,-3.8700,-1.0980,0.2175,-554.44,-1032.90,1000.00
12310,-3.8699,-1.3479,0.3798,-538.82,-142.82,1562.87
12320,-3.8696,-1.5406,0.5043,-523.19,622.31,188.23
12330,-3.8694,-1.6512,0.6161,-1195.07,559.45,157.23
12340,-3.8693,-1.6978,0.7208,648.68,-1128.23,-655.09
12350,-3.8691,-1.7185,0.7904,-1304.44,277.89,-904.85
12360,-3.8691,-1.7217,0.8031,39.31,1184.14,-1529.72
12370,-3.8693,-1.6851,0.7682,-366.94,-1190.92,-1404.72
12380,-3.8694,-1.5945,0.6984,320.56,-1659.55,985.84
12390,-3.8696,-1.4686,0.5996,-85.69,1403.08,1516.97
12400,-3.8699,-1.3304,0.4922,23.68,762.76,923.03
12410,-3.8701,-1.1888,0.4039,1711.18,-987.00,1454.04
12420,-3.8704,-1.0601,0.3416,-163.82,-283.63,-1905.52
12430,-3.8706,-0.9656,0.2958,320.56,-267.70,297.49
12440,-3.8710,-0.9185,0.2670,414.31,1873.11,516.17
12450,-3.8713,-0.9059,0.2531,-1554.44,-1814.33,547.36
12460,-3.8717,-0.8966,0.2402,54.93,404.48,-1733.89
12470,-3.8719,-0.8654,0.2151,1242.43,-1236.15,-1358.95
12480,-3.8721,-0.7959,0.1759,1242.43,-454.83,1453.49
12490,-3.8722,-0.6919,0.1271,-1866.94,-1470.34,-1718.44
12500,-3.8722,-0.5839,0.0653,-554.44,279.85,1140.87
12510,-3.8722,-0.4901,0.0001,1273.68,373.84,1437.62
12520,-3.8722,-0.4042,-0.0488,1273.68,30.27,-1984.38
12530,-3.8722,-0.3182,-0.0775,273.68,1764.83,-1609.50
12540,-3.8722,-0.2316,-0.0980,-726.32,-1906.92,-1265.81
12550,-3.8722,-0.1531,-0.1257,-1632.57,-531.74,-890.87
12560,-3.8722,-0.0905,-0.1666,414.31,-78.43,-781.56
12570,-3.8721,-0.0365,-0.2162,429.93,-1312.68,218.38
12580,-3.8721,0.0135,-0.2721,-663.82,343.63,-1156.68
12590,-3.8719,0.0583,-0.3263,1742.43,1171.88,-1781.80
12600,-3.8718,0.1011,-0.3671,-523.19,-1765.56,-1469.42
12610,-3.8716,0.1373,-0.4015,945.56,1015.81,874.27
12620,-3.8713,0.1616,-0.4479,1586.18,609.62,-1594.54
12630,-3.8710,0.1864,-0.5270,695.56,-1327.82,-313.42
12640,-3.8705,0.2371,-0.6387,-132.57,547.18,-1141.66
12650,-3.8700,0.3353,-0.7458,-1648.19,-1749.57,186.22
12660,-3.8698,0.4803,-0.8167,-1070.07,531.86,311.04
12670,-3.8698,0.6433,-0.8628,1492.43,-530.33,1904.60
12680,-3.8699,0.7905,-0.9098,-1648.19,1563.72,-1939.21
12690,-3.8701,0.9064,-0.9520,1195.56,-451.60,-329.96
12700,-3.8702,0.9839,-0.9708,23.68,-1857.60,1904.36
12710,-3.8704,1.0127,-0.9691,1945.56,-263.73,-1705.08
12720,-3.8704,0.9941,-0.9598,1633.06,-44.92,544.92
12730,-3.8705,0.9489,-0.9490,-741.94,1142.52,-673.77
12740,-3.8705,0.8995,-0.9380,1461.18,-1466.92,1201.23
12750,-3.8706,0.8645,-0.9172,-851.32,-60.79,1841.86
12760,-3.8707,0.8573,-0.8745,-1335.69,-1404.60,1732.54
12770,-3.8708,0.8673,-0.8217,1742.43,64.15,76.42
12780,-3.8712,0.8663,-0.7726,-976.32,-1170.23,-126.65
12790,-3.8715,0.8340,-0.7263,-1101.32,1111.02,-1626.53
12800,-3.8717,0.7701,-0.6877,-1241.94,-967.16,1561.04
12810,-3.8719,0.6899,-0.6637,-1413.82,-29.79,-1532.65
12820,-3.8721,0.6042,-0.6520,320.56,-951.78,1561.16
12830,-3.8722,0.5199,-0.6481,1351.81,548.03,-1001.28
12840,-3.8722,0.4449,-0.6460,-1445.07,1047.85,-1141.91
12850,-3.8721,0.3802,-0.6501,961.18,1313.35,170.59
12860,-3.8721,0.3224,-0.6655,679.93,781.98,1936.22
12870,-3.8719,0.2745,-0.6815,1273.68,-1186.89,670.53
12880,-3.8718,0.2336,-0.6886,-851.32,766.11,358.03
12890,-3.8718,0.1797,-0.6965,1914.31,-140.20,-173.28
12900,-3.8717,0.0947,-0.7123,-991.94,-1155.94,-1485.78
12910,-3.8716,-0.0067,-0.7206,133.06,828.31,873.60
12920,-3.8716,-0.0955,-0.7081,-851.32,-218.81,-845.21
12930,-3.8715,-0.1715,-0.6807,-210.69,1374.76,1139.22
12940,-3.8715,-0.2657,-0.6490,-1945.07,890.26,-1407.59
12950,-3.8713,-0.3955,-0.6147,1992.43,936.95,61.22
12960,-3.8713,-0.5393,-0.5565,1383.06,1327.33,-1844.97
12970,-3.8712,-0.6748,-0.4557,-1023.19,780.15,811.40
12980,-3.8712,-0.8087,-0.3202,1633.06,1686.16,-329.04
12990,-3.8711,-0.9567,-0.1461,492.43,-970.34,-1406.92
13000,-3.8710,-1.1272,0.0669,1554.93,1310.61,-1906.56
13010,-3.8708,-1.3098,0.2902,-273.19,575.87,1828.25
13020,-3.8707,-1.4727,0.4987,351.81,1153.69,547.42
13030,-3.8707,-1.5944,0.6799,-491.94,-159.18,1813.42
13040,-3.8707,-1.6605,0.8301,-70.07,-956.30,1438.78
13050,-3.8707,-1.6840,0.9495,-538.82,-1737.67,392.21
13060,-3.8707,-1.6980,1.0305,461.18,1543.58,783.08
13070,-3.8707,-1.7017,1.0601,-1335.69,-81.48,-60.55
13080,-3.8705,-1.6726,1.0361,-1804.44,-300.23,1220.76
13090,-3.8704,-1.6003,0.9746,1914.31,637.33,-1326.11
13100,-3.8702,-1.4968,0.8929,-835.69,762.45,-1357.48
13110,-3.8701,-1.3832,0.7960,414.31,-1690.43,189.21
13120,-3.8702,-1.2778,0.6826,-1038.82,1903.50,-576.60
13130,-3.8702,-1.1859,0.5583,445.56,-611.88,1454.41
13140,-3.8704,-1.0946,0.4368,211.18,-517.94,-389.59
13150,-3.8704,-0.9938,0.3303,-101.32,-80.32,-1874.21
13160,-3.8704,-0.8942,0.2393,804.93,-1705.08,109.99
13170,-3.8705,-0.8076,0.1622,1554.93,-1361.15,1000.43
13180,-3.8706,-0.7334,0.0895,633.06,779.66,1328.43
13190,-3.8707,-0.6643,0.0010,-1866.94,-532.71,1781.37
13200,-3.8708,-0.5862,-0.0974,-1023.19,139.28,-1140.62
13210,-3.8708,-0.4941,-0.1906,976.81,-454.28,624.76
13220,-3.8710,-0.3967,-0.2816,758.06,-375.98,-1266.05
13230,-3.8710,-0.3013,-0.3759,1226.81,-32.04,1233.76
13240,-3.8710,-0.2091,-0.4651,1445.56,-94.36,467.96
13250,-3.8710,-0.1235,-0.5403,1242.43,483.95,1202.21
13260,-3.8710,-0.0581,-0.6064,195.56,-1140.87,-454.22
13270,-3.8708,-0.0111,-0.6670,570.56,-1609.50,-876.22
13280,-3.8707,0.0524,-0.7240,-1413.82,-1359.44,-813.84
13290,-3.8706,0.1643,-0.7758,-1288.82,-671.81,-1267.09
13300,-3.8705,0.3184,-0.8142,1039.31,703.43,1154.72
13310,-3.8705,0.4813,-0.8468,758.06,-218.14,1951.48
13320,-3.8705,0.6230,-0.8929,1617.43,-389.71,623.29
13330,-3.8706,0.7332,-0.9564,-241.94,1704.28,1701.35
13340,-3.8707,0.8191,-1.0229,1851.81,1579.53,-1283.14
13350,-3.8707,0.8877,-1.0797,851.81,1064.09,966.74
13360,-3.8707,0.9349,-1.1206,1633.06,1798.58,669.74
13370,-3.8707,0.9604,-1.1409,-320.07,564.27,1185.30
13380,-3.8707,0.9733,-1.1394,-1054.44,1970.58,1607.12
13390,-3.8707,0.9817,-1.1194,586.18,-1841.86,435.24
13400,-3.8708,0.9907,-1.0841,1664.31,720.64,13.43
13410,-3.8712,0.9999,-1.0374,-1179.44,1236.27,-64.64
13420,-3.8715,1.0002,-0.9874,-7.57,-779.36,1310.42
13430,-3.8718,0.9811,-0.9482,39.31,1611.33,1576.17
13440,-3.8722,0.9402,-0.9197,1586.18,-1373.11,-1689.39
13450,-3.8724,0.8794,-0.8893,351.81,-1716.92,795.04
13460,-3.8727,0.7947,-0.8542,570.56,-1826.42,1685.73
13470,-3.8728,0.6829,-0.8215,1726.81,-1342.22,1013.92
13480,-3.8729,0.5491,-0.7948,-585.69,-1154.97,-1814.15
13490,-3.8729,0.4108,-0.7744,-1710.69,-1733.34,748.41
13500,-3.8729,0.2891,-0.7600,586.18,875.79,795.35
13510,-3.8729,0.1921,-0.7449,1008.06,-1280.70,-1892.15
13520,-3.8728,0.1177,-0.7140,601.81,656.62,467.29
13530,-3.8727,0.0518,-0.6620,-929.44,609.56,201.72
13540,-3.8726,-0.0317,-0.5826,-1366.94,-734.31,1826.78
13550,-3.8723,-0.1696,-0.4584,-54.44,1437.38,-1704.28
13560,-3.8719,-0.3947,-0.2784,-1695.07,1343.38,1764.71
13570,-3.8716,-0.6982,-0.0455,1492.43,374.21,-1188.05
13580,-3.8712,-1.0330,0.2229,-1366.94,-1813.90,-359.50
13590,-3.8708,-1.3507,0.4939,-210.69,544.80,-874.57
13600,-3.8705,-1.6215,0.7175,-882.57,-768.31,1579.04
13610,-3.8702,-1.8348,0.8625,461.18,-143.80,-404.91
13620,-3.8699,-1.9718,0.9578,1148.68,-1581.73,1173.52
13630,-3.8696,-2.0277,1.0314,-382.57,-1394.53,-920.04
13640,-3.8693,-2.0337,1.0723,461.18,27.28,1158.26
13650,-3.8690,-2.0022,1.0707,-304.44,1261.60,-1919.80
13660,-3.8688,-1.9363,1.0266,-273.19,1058.53,361.45
13670,-3.8688,-1.8506,0.9513,164.31,-581.91,-1388.67
13680,-3.8688,-1.7504,0.8530,-866.94,1777.59,1079.96
13690,-3.8689,-1.6268,0.7296,-38.82,1199.65,1876.65
13700,-3.8690,-1.4724,0.5900,-226.32,1403.02,-1826.72
13710,-3.8691,-1.3011,0.4539,-460.69,-471.68,1657.35
13720,-3.8694,-1.1508,0.3334,1461.18,-1893.19,-92.90
13730,-3.8695,-1.0502,0.2244,711.18,-1314.76,1125.61
13740,-3.8698,-0.9844,0.1241,1586.18,732.30,-1421.45
13750,-3.8699,-0.9163,0.0308,-1991.94,-95.70,265.81
13760,-3.8701,-0.8231,-0.0621,-1273.19,-48.71,1203.12
13770,-3.8704,-0.7064,-0.1626,-1351.32,60.85,1374.88
13780,-3.8706,-0.5789,-0.2697,1586.18,-798.28,1937.13
13790,-3.8708,-0.4469,-0.3663,1914.31,1498.84,-109.92
13800,-3.8710,-0.3191,-0.4452,-1195.07,1124.08,-1313.23
13810,-3.8711,-0.2119,-0.5133,-835.69,-969.42,920.96
13820,-3.8713,-0.1320,-0.5720,883.06,-1687.93,-1735.41
13830,-3.8715,-0.0704,-0.6200,-882.57,-1203.43,389.47
13840,-3.8716,-0.0139,-0.6648,-1007.57,656.07,1420.65
13850,-3.8716,0.0522,-0.7069,-1773.19,-1078.19,1795.53
13860,-3.8716,0.1357,-0.7465,-1304.44,1515.69,-157.65
13870,-3.8715,0.2372,-0.7947,1383.06,453.37,1545.41
13880,-3.8715,0.3523,-0.8517,-1632.57,-1718.32,-1860.96
13890,-3.8715,0.4712,-0.9109,1101.81,-1014.95,-1939.21
13900,-3.8715,0.5833,-0.9702,320.56,-592.83,1998.17
13910,-3.8715,0.6858,-1.0228,-1335.69,-186.40,1966.80
13920,-3.8715,0.7810,-1.0609,-210.69,1079.41,1435.49
13930,-3.8716,0.8705,-1.0875,-23.19,204.59,-2.08
13940,-3.8716,0.9528,-1.1080,-570.07,798.52,1685.36
13950,-3.8717,1.0232,-1.1183,1961.18,-1826.29,-1142.82
13960,-3.8718,1.0721,-1.1169,-1023.19,861.33,-502.20
13970,-3.8719,1.0931,-1.1019,1242.43,1033.33,-611.57
13980,-3.8721,1.0919,-1.0649,-70.07,-1044.80,-1549.07
13990,-3.8722,1.0742,-1.0123,-226.32,-310.42,466.61
14000,-3.8724,1.0455,-0.9573,1508.06,-1576.05,1435.49
14010,-3.8727,1.0145,-0.9048,1836.18,1470.76,1919.98
14020,-3.8729,0.9862,-0.8615,1867.43,189.45,-642.40
14030,-3.8730,0.9540,-0.8339,-1757.57,1736.27,-1361.08
14040,-3.8732,0.9119,-0.8156,-1882.57,1267.46,-532.90
14050,-3.8732,0.8542,-0.8052,726.81,-388.85,1607.73
14060,-3.8732,0.7681,-0.8143,1351.81,939.15,1248.41
14070,-3.8732,0.6578,-0.8336,-1679.44,-232.91,-704.77
14080,-3.8729,0.5472,-0.8444,211.18,1298.16,92.10
14090,-3.8728,0.4482,-0.8456,-1945.07,-77.09,-1361.08
14100,-3.8726,0.3545,-0.8455,1383.06,-233.52,1201.42
14110,-3.8724,0.2686,-0.8425,1383.06,-218.08,-1345.46
14120,-3.8722,0.2036,-0.8330,-1616.94,156.74,29.60
14130,-3.8721,0.1565,-0.8293,-1929.44,1375.37,-1267.27
14140,-3.8718,0.1125,-0.8386,39.31,1844.06,-1501.65
14150,-3.8716,0.0627,-0.8536,-1585.69,656.43,-454.77
14160,-3.8712,-0.0032,-0.8580,39.31,-1265.50,-1048.58
14170,-3.8707,-0.1039,-0.8302,-398.19,-1812.56,13.92
14180,-3.8704,-0.2535,-0.7583,-1288.82,1749.76,1451.48
14190,-3.8700,-0.4601,-0.6427,-445.07,-1047.42,-1595.28
14200,-3.8696,-0.7289,-0.4845,1117.43,1749.08,-1079.41
14210,-3.8693,-1.0436,-0.2866,-1288.82,1998.54,-750.98
14220,-3.8689,-1.3608,-0.0590,-1570.07,-673.95,-1531.86
14230,-3.8685,-1.6357,0.1719,1820.56,466.06,93.63
14240,-3.8683,-1.8348,0.3693,-1366.94,-1987.61,390.93
14250,-3.8682,-1.9323,0.5242,1148.68,-722.35,-952.45
14260,-3.8680,-1.9310,0.6390,679.93,-894.41,-920.90
14270,-3.8680,-1.8690,0.7133,836.18,1808.72,-326.90
14280,-3.8680,-1.7957,0.7567,773.68,-691.16,1095.09
14290,-3.8682,-1.7429,0.7776,-1835.69,871.46,423.34
14300,-3.8684,-1.7042,0.7817,914.31,-456.54,-1732.91
14310,-3.8687,-1.6531,0.7698,1867.43,74.77,-1826.60
14320,-3.8690,-1.5800,0.7339,414.31,-1456.36,-232.91
14330,-3.8694,-1.4860,0.6699,1773.68,1950.01,-123.60
14340,-3.8698,-1.3707,0.5848,1804.93,1762.70,-217.47
14350,-3.8700,-1.2456,0.4862,554.93,-1127.69,1.10
14360,-3.8704,-1.1205,0.3805,570.56,-1752.44,969.67
14370,-3.8706,-0.9943,0.2769,586.18,716.55,0.73
14380,-3.8708,-0.8661,0.1819,742.43,-548.83,1844.24
14390,-3.8710,-0.7410,0.0930,1148.68,-704.83,1390.93
14400,-3.8711,-0.6257,0.0079,1164.31,-79.59,1828.25
14410,-3.8712,-0.5294,-0.0812,-85.69,1029.97,-1046.88
14420,-3.8712,-0.4518,-0.1827,242.43,1623.96,593.57
14430,-3.8713,-0.3750,-0.2762,-1820.07,624.08,-1625.37
14440,-3.8715,-0.2861,-0.3357,8.06,655.52,-422.42
14450,-3.8716,-0.1926,-0.3699,-616.94,1046.26,-328.80
14460,-3.8717,-0.1073,-0.4032,-648.19,671.45,-1094.48
14470,-3.8718,-0.0431,-0.4510,-1726.32,406.01,-1844.54
14480,-3.8719,-0.0109,-0.5133,-1507.57,-1718.87,-797.79
14490,-3.8718,-0.0032,-0.5718,-1382.57,-1687.56,498.96
14500,-3.8717,0.0012,-0.6143,-398.19,-1171.94,-1798.03
14510,-3.8715,0.0278,-0.6467,164.31,1375.00,-1798.10
14520,-3.8712,0.0950,-0.6887,-429.44,1218.75,-1516.91
14530,-3.8710,0.2144,-0.7561,164.31,-156.07,1826.72
14540,-3.8707,0.3859,-0.8472,-554.44,-780.88,389.10
14550,-3.8706,0.5879,-0.9446,1398.68,-436.77,-876.71
14560,-3.8704,0.7817,-1.0178,-741.94,-905.15,1763.73
14570,-3.8702,0.9333,-1.0468,70.56,1720.28,-1423.89
14580,-3.8701,1.0181,-1.0359,-523.19,-1982.60,216.67
14590,-3.8702,1.0231,-0.9954,-1679.44,-591.80,-1564.58
14600,-3.8704,0.9641,-0.9382,-1038.82,595.70,1466.80
14610,-3.8706,0.8767,-0.8828,-585.69,-91.92,1888.73
14620,-3.8708,0.8075,-0.8363,226.81,-998.29,779.48
14630,-3.8712,0.7922,-0.7966,-632.57,954.65,-220.40
14640,-3.8715,0.8323,-0.7622,1414.31,-1967.22,-564.09
14650,-3.8717,0.8926,-0.7325,-1460.69,-1560.91,-1017.15
14660,-3.8719,0.9340,-0.7021,-1741.94,-1763.92,-1860.84
14670,-3.8722,0.9380,-0.6675,-445.07,-1873.23,1686.10
14680,-3.8724,0.9039,-0.6346,70.56,-1435.67,-1720.09
14690,-3.8726,0.8455,-0.6094,-288.82,-1232.67,514.34
14700,-3.8727,0.7792,-0.5938,226.81,-1998.35,967.53
14710,-3.8728,0.7126,-0.5891,-257.57,1.46,-360.53
14720,-3.8728,0.6494,-0.5934,-773.19,595.09,-188.66
14730,-3.8727,0.5988,-0.5990,-866.94,48.10,967.59
14740,-3.8727,0.5699,-0.5989,648.68,-670.72,-1891.85
14750,-3.8727,0.5562,-0.5931,961.18,-655.15,-1735.60
14760,-3.8727,0.5426,-0.5842,-804.44,79.16,1623.84
14770,-3.8727,0.5203,-0.5743,1461.18,1219.79,1076.97
14780,-3.8727,0.4791,-0.5662,-1398.19,-1514.65,1280.09
14790,-3.8727,0.4097,-0.5681,1336.18,-467.83,-1376.16
14800,-3.8726,0.3225,-0.5801,445.56,-717.96,-1907.41
14810,-3.8724,0.2434,-0.5735,1289.31,1750.61,-157.41
14820,-3.8722,0.1730,-0.5386,-835.69,-1405.82,-1829.28
14830,-3.8719,0.0773,-0.4918,-1851.32,-937.19,373.90
14840,-3.8718,-0.0790,-0.4303,1898.68,1047.00,-172.85
14850,-3.8715,-0.2971,-0.3202,1898.68,937.32,-1860.23
14860,-3.8711,-0.5498,-0.1276,1976.81,-969.36,-360.05
14870,-3.8706,-0.8344,0.1282,1633.06,-313.60,1874.69
14880,-3.8702,-1.1755,0.3812,1211.18,420.23,1765.87
14890,-3.8699,-1.5430,0.5968,1539.31,810.18,375.73
14900,-3.8696,-1.8499,0.7860,-1491.94,403.20,-670.72
14910,-3.8693,-2.0283,0.9508,-773.19,621.34,314.03
14920,-3.8691,-2.0754,1.0535,383.06,1714.78,-1545.04
14930,-3.8689,-2.0427,1.0542,-1648.19,-1144.71,1298.89
14940,-3.8687,-1.9525,0.9868,-1460.69,-1050.90,-451.11
14950,-3.8683,-1.8043,0.9078,-1913.82,-1675.72,-1326.23
14960,-3.8680,-1.6237,0.8260,1054.93,215.21,908.02
14970,-3.8682,-1.4449,0.7394,179.93,1746.83,-1342.16
14980,-3.8684,-1.2913,0.6451,-945.07,-1346.62,688.90
14990,-3.8689,-1.1580,0.5505,-1273.19,-1408.81,-1951.90
15000,-3.8694,-1.0344,0.4681,-210.69,-1517.94,-1827.09
15010,-3.8699,-0.9243,0.4023,-398.19,-64.58,-577.27
15020,-3.8702,-0.8430,0.3425,1695.56,-486.21,-1561.77
15030,-3.8706,-0.7958,0.2690,101.81,-142.27,-358.76
15040,-3.8707,-0.7601,0.1827,-1851.32,-1548.46,78.61
15050,-3.8708,-0.7140,0.0959,-1288.82,-595.28,469.06
15060,-3.8710,-0.6588,0.0042,617.43,295.47,-109.19
15070,-3.8708,-0.5941,-0.0959,-320.07,545.53,1406.25
15080,-3.8707,-0.5074,-0.1869,-38.82,-266.85,1452.88
15090,-3.8706,-0.4047,-0.2566,-945.07,92.71,-1203.49
15100,-3.8705,-0.3068,-0.3083,211.18,-828.92,-1500.55
15110,-3.8705,-0.2329,-0.3463,742.43,546.26,-484.99
15120,-3.8705,-0.1930,-0.3602,-1804.44,-312.99,-1141.36
15130,-3.8705,-0.1857,-0.3494,-695.07,1905.82,1718.02
15140,-3.8705,-0.2001,-0.3402,242.43,-703.49,686.77
15150,-3.8706,-0.2128,-0.3438,-1601.32,468.32,-78.80
15160,-3.8706,-0.1980,-0.3555,773.68,15.20,-766.30
15170,-3.8706,-0.1456,-0.3816,-1335.69,-1484.80,1718.02
15180,-3.8707,-0.0576,-0.4202,1367.43,-828.43,-1641.42
15190,-3.8708,0.0577,-0.4607,633.06,-1765.75,905.40
15200,-3.8711,0.1918,-0.5139,-601.32,1031.31,1764.71
15210,-3.8713,0.3445,-0.5997,554.93,-1780.88,-1985.41
15220,-3.8716,0.5067,-0.7191,101.81,-764.95,-438.72
15230,-3.8717,0.6530,-0.8510,867.43,-45.90,-845.21
15240,-3.8717,0.7642,-0.9629,-413.82,-920.65,1607.67
15250,-3.8716,0.8339,-1.0420,1820.56,751.46,966.86
15260,-3.8715,0.8652,-1.0989,-1257.57,-1373.41,-158.33
15270,-3.8712,0.8805,-1.1429,-1241.94,-654.60,-1908.45
15280,-3.8711,0.9061,-1.1709,711.18,1704.83,1841.49
15290,-3.8711,0.9410,-1.1785,-7.57,-1873.29,-283.57
15300,-3.8710,0.9635,-1.1637,461.18,1158.08,403.93
15310,-3.8711,0.9576,-1.1229,-663.82,-951.29,-533.57
15320,-3.8712,0.9238,-1.0570,-1413.82,267.46,-1220.95
15330,-3.8715,0.8772,-0.9712,-1741.94,704.90,638.55
15340,-3.8719,0.8324,-0.8802,289.31,-310.79,-1486.33
15350,-3.8724,0.7874,-0.8058,-1445.07,-670.29,-173.65
15360,-3.8728,0.7338,-0.7598,789.31,860.90,-345.34
15370,-3.8730,0.6772,-0.7418,1929.93,-1248.60,-173.40
15380,-3.8730,0.6299,-0.7386,-1304.44,1048.16,670.41
15390,-3.8730,0.5948,-0.7406,633.06,1454.35,1373.54
15400,-3.8729,0.5636,-0.7517,148.68,1204.28,154.79
15410,-3.8729,0.5204,-0.7632,148.68,-217.65,-814.03
15420,-3.8728,0.4620,-0.7562,-1382.57,-1686.52,-1814.03
15430,-3.8727,0.4010,-0.7372,-851.32,-796.02,1185.97
15440,-3.8727,0.3473,-0.7249,-663.82,1641.36,-454.59
15450,-3.8726,0.3015,-0.7178,461.18,-780.58,951.66
15460,-3.8726,0.2515,-0.7064,-1398.19,125.55,1607.97
15470,-3.8726,0.1865,-0.6819,195.56,1578.61,-1798.28
15480,-3.8724,0.1010,-0.6277,-116.94,719.06,139.28
15490,-3.8723,-0.0233,-0.5309,929.93,-343.57,936.22
15500,-3.8721,-0.2114,-0.3895,1023.68,62.44,1155.21
15510,-3.8718,-0.4677,-0.2175,945.56,-1844.18,-188.29
15520,-3.8715,-0.7708,-0.0349,148.68,170.96,-531.68
15530,-3.8710,-1.0923,0.1489,1351.81,-454.65,78.00
15540,-3.8706,-1.4017,0.3422,195.56,-924.01,-577.88
15550,-3.8700,-1.6758,0.5398,586.18,-190.25,-1499.39
15560,-3.8694,-1.8956,0.7010,1508.06,1106.08,-1936.46
15570,-3.8689,-2.0350,0.8022,1367.43,1746.28,-1748.66
15580,-3.8685,-2.0787,0.8511,-476.32,-1300.90,-998.47
15590,-3.8682,-2.0402,0.8523,1929.93,949.04,1220.40
15600,-3.8679,-1.9485,0.8187,-1132.57,1105.35,314.15
15610,-3.8679,-1.8254,0.7686,-1398.19,808.65,-264.04
15620,-3.8679,-1.6779,0.7073,-1648.19,-1612.98,-920.41
15630,-3.8680,-1.5120,0.6387,1242.43,-1456.42,-1779.91
15640,-3.8683,-1.3429,0.5654,-1523.19,1762.63,1782.47
15650,-3.8687,-1.1862,0.4915,117.43,388.00,-1577.03
15660,-3.8690,-1.0500,0.4221,179.93,-1080.44,1469.67
15670,-3.8694,-0.9359,0.3558,1601.81,-1955.20,578.92
15680,-3.8698,-0.8461,0.2920,211.18,1560.67,578.80
15690,-3.8701,-0.7814,0.2339,-288.82,1388.92,1984.92
15700,-3.8704,-0.7306,0.1859,-7.57,1951.54,1234.80
15710,-3.8706,-0.6855,0.1416,-1507.57,-188.96,1844.06
15720,-3.8708,-0.6400,0.0902,258.06,-1860.72,-1109.13
15730,-3.8710,-0.5825,0.0365,-1913.82,-438.78,734.50
15740,-3.8711,-0.5145,-0.0160,1445.56,686.34,187.56
15750,-3.8712,-0.4493,-0.0643,-1851.32,1967.71,1046.81
15760,-3.8713,-0.3990,-0.1078,-1507.57,-219.67,-1531.43
15770,-3.8713,-0.3641,-0.1603,929.93,-1782.04,609.13
15780,-3.8715,-0.3336,-0.2301,1398.68,-500.73,-219.12
15790,-3.8715,-0.2948,-0.3071,1304.93,-1438.17,-578.61
15800,-3.8715,-0.2458,-0.3859,-1726.32,702.51,-594.36
15810,-3.8713,-0.1973,-0.4685,539.31,-1375.49,14.83
15820,-3.8713,-0.1567,-0.5446,-1241.94,46.45,1530.33
15830,-3.8713,-0.1155,-0.6038,-54.44,-1687.87,-63.60
15840,-3.8712,-0.0574,-0.6527,1226.81,-1265.87,-1329.35
15850,-3.8711,0.0305,-0.6997,664.31,468.63,889.34
15860,-3.8711,0.1545,-0.7456,-85.69,-1562.50,1889.22
15870,-3.8711,0.3152,-0.7930,-210.69,562.74,857.91
15880,-3.8712,0.5020,-0.8398,351.81,-1499.39,1092.16
15890,-3.8715,0.6887,-0.8799,258.06,500.98,-1423.52
15900,-3.8717,0.8491,-0.9078,164.31,-623.66,-1236.15
15910,-3.8719,0.9681,-0.9214,695.56,-201.48,-220.58
15920,-3.8721,1.0265,-0.9250,-70.07,-1935.67,-767.46
15930,-3.8721,1.0129,-0.9315,-601.32,1595.70,1920.04
15940,-3.8721,0.9535,-0.9460,1664.31,767.58,-361.21
15950,-3.8719,0.8967,-0.9644,-1945.07,-1091.92,-236.27
15960,-3.8717,0.8824,-0.9846,-1210.69,564.21,1544.98
15970,-3.8716,0.9264,-0.9994,961.18,1970.46,-314.45
15980,-3.8713,1.0103,-0.9982,-1413.82,79.90,263.67
15990,-3.8713,1.0844,-0.9796,1320.56,236.33,1232.42
16000,-3.8715,1.1119,-0.9430,-1195.07,-1388.55,763.67
16010,-3.8718,1.0804,-0.8966,-1663.82,-700.99,-1.89
16020,-3.8721,0.9882,-0.8597,-1695.07,1236.45,-1454.90
16030,-3.8723,0.8612,-0.8303,-1507.57,1955.02,-345.46
16040,-3.8723,0.7448,-0.7982,-1757.57,1720.40,1248.35
16050,-3.8723,0.6748,-0.7683,-663.82,1829.53,1701.54
16060,-3.8723,0.6656,-0.7531,-1616.94,1657.53,1342.22
16070,-3.8724,0.6910,-0.7584,1211.18,-389.34,-501.53
16080,-3.8724,0.6951,-0.7922,461.18,-1076.78,-1735.90
16090,-3.8724,0.6617,-0.8398,976.81,-1404.91,-454.71
16100,-3.8722,0.6146,-0.8705,711.18,501.28,201.48
16110,-3.8721,0.5588,-0.8877,-1320.07,579.28,-1720.46
16120,-3.8719,0.4922,-0.9104,-460.69,-1623.96,-267.40
16130,-3.8717,0.4044,-0.9276,-991.94,-530.33,1107.54
16140,-3.8716,0.2568,-0.9143,-226.32,1266.36,-392.46
16150,-3.8712,0.0261,-0.8513,883.06,-1030.76,857.54
16160,-3.8708,-0.2616,-0.7058,-648.19,-968.75,1217.04
16170,-3.8705,-0.5828,-0.4691,-1476.32,1671.33,-829.53
16180,-3.8700,-0.9391,-0.1747,1414.31,-32.41,295.90
16190,-3.8698,-1.3295,0.1401,-195.07,1654.36,-15.99
16200,-3.8693,-1.7306,0.4398,1836.18,1950.50,328.37
16210,-3.8689,-2.0874,0.6951,-1507.57,309.08,-1311.65
16220,-3.8684,-2.3270,0.8903,820.56,980.29,1766.97
16230,-3.8680,-2.4133,0.9977,-1851.32,1964.17,-701.42
16240,-3.8677,-2.3589,1.0106,-898.19,-286.01,1455.02
16250,-3.8676,-2.1881,0.9614,-1929.44,1370.36,-1451.17
16260,-3.8676,-1.9580,0.8893,-70.07,-926.21,1470.58
16270,-3.8678,-1.7372,0.8196,1383.06,1839.90,-1779.54
16280,-3.8682,-1.5614,0.7516,1648.68,918.46,-1529.66
16290,-3.8687,-1.4321,0.6814,148.68,215.70,-186.04
16300,-3.8691,-1.3285,0.6102,695.56,-768.43,-279.97
16310,-3.8695,-1.2291,0.5399,1961.18,-1877.62,188.66
16320,-3.8700,-1.1310,0.4680,-1320.07,1122.56,1907.29
16330,-3.8704,-1.0331,0.3931,-757.57,-80.38,344.60
16340,-3.8707,-0.9294,0.3230,-226.32,-1673.95,266.36
16350,-3.8711,-0.8318,0.2557,1039.31,1357.54,-1046.26
16360,-3.8712,-0.7449,0.1812,1539.31,748.35,187.99
16370,-3.8715,-0.6492,0.0941,664.31,-798.34,-515.32
16380,-3.8715,-0.5365,-0.0115,914.31,61.22,1187.68
16390,-3.8715,-0.4194,-0.1322,-663.82,-1454.22,1015.56
16400,-3.8715,-0.3126,-0.2542,-1679.44,-907.10,1702.82
16410,-3.8715,-0.2269,-0.3645,-7.57,-516.30,-1281.80
16420,-3.8713,-0.1692,-0.4546,-1038.82,1358.89,577.39
16430,-3.8713,-0.1301,-0.5204,-1648.19,1827.76,-500.92
16440,-3.8712,-0.0883,-0.5608,-648.19,1405.94,-1485.41
16450,-3.8711,-0.0374,-0.5857,711.18,234.19,155.15
16460,-3.8712,0.0144,-0.6017,-773.19,1046.75,-204.28
16470,-3.8712,0.0709,-0.6035,1851.81,-1015.62,1545.65
16480,-3.8713,0.1416,-0.5990,1086.18,-1249.88,1608.15
16490,-3.8715,0.2235,-0.6130,-1866.94,-671.63,264.40
16500,-3.8717,0.3127,-0.6489,617.43,1531.68,-1563.72
16510,-3.8718,0.4114,-0.6897,39.31,938.11,1764.34
16520,-3.8719,0.5142,-0.7334,664.31,-280.46,-782.65
16530,-3.8719,0.6078,-0.7927,1820.56,-1874.02,-813.96
16540,-3.8718,0.6837,-0.8713,1804.93,-1467.59,-1626.59
16550,-3.8716,0.7434,-0.9508,-476.32,470.03,607.67
16560,-3.8713,0.7960,-1.0059,-835.69,-1701.72,154.36
16570,-3.8712,0.8538,-1.0337,1898.68,-748.47,-970.76
16580,-3.8711,0.9181,-1.0500,1289.31,-310.85,-689.58
16590,-3.8710,0.9867,-1.0583,1523.68,1595.52,201.05
16600,-3.8711,1.0516,-1.0486,-1695.07,533.14,-1830.20
16610,-3.8712,1.0930,-1.0160,-1382.57,1783.26,1404.17
16620,-3.8715,1.0973,-0.9696,-85.69,1955.20,1997.99
16630,-3.8717,1.0703,-0.9191,461.18,-107.24,888.67
16640,-3.8721,1.0264,-0.8632,1008.06,-1638.55,-314.33
16650,-3.8723,0.9742,-0.8074,-616.94,1517.58,-454.83
16660,-3.8724,0.9174,-0.7634,711.18,658.14,795.29
16670,-3.8727,0.8539,-0.7366,1429.93,-1716.98,-64.03
16680,-3.8727,0.7781,-0.7317,1304.93,1720.40,1920.41
16690,-3.8727,0.6967,-0.7383,-398.19,-1654.79,-313.96
16700,-3.8724,0.6244,-0.7412,1179.93,1501.34,592.29
16710,-3.8723,0.5593,-0.7489,-70.07,1126.16,-1595.21
16720,-3.8722,0.4899,-0.7714,-398.19,141.66,-329.59
16730,-3.8719,0.4182,-0.7933,-1288.82,1266.54,732.85
16740,-3.8718,0.3505,-0.7963,1539.31,-1546.08,-1454.71
16750,-3.8716,0.2770,-0.7858,867.43,-1921.20,810.91
16760,-3.8715,0.1844,-0.7676,-538.82,-577.64,-1501.59
16770,-3.8713,0.0601,-0.7167,-382.57,1750.31,-454.65
16780,-3.8711,-0.1135,-0.5923,-304.44,265.69,1451.72
16790,-3.8708,-0.3535,-0.3916,1476.81,202.88,1342.59
16800,-3.8706,-0.6577,-0.1619,-1241.94,1889.89,-875.79
16810,-3.8702,-0.9921,0.0558,-179.44,-704.47,1827.76
16820,-3.8699,-1.3246,0.2507,1023.68,-845.70,1109.44
16830,-3.8695,-1.6420,0.4161,-1538.82,106.75,-1952.64
16840,-3.8690,-1.9276,0.5398,1836.18,1278.02,407.04
16850,-3.8687,-2.1460,0.6342,1273.68,1105.59,-1014.59
16860,-3.8682,-2.2537,0.7112,1320.56,1183.29,454.35
16870,-3.8679,-2.2384,0.7554,-460.69,-957.58,-764.28
16880,-3.8677,-2.1279,0.7620,1492.43,698.73,1298.34
16890,-3.8677,-1.9700,0.7550,-366.94,1542.66,1673.34
16900,-3.8678,-1.8151,0.7526,-148.19,652.34,845.21
16910,-3.8682,-1.6935,0.7437,-320.07,340.15,-576.66
16920,-3.8685,-1.6014,0.7246,-757.57,-800.23,-936.10
16930,-3.8689,-1.5289,0.7073,-976.32,762.45,970.15
16940,-3.8694,-1.4651,0.6886,304.93,-1456.12,-1967.41
16950,-3.8698,-1.3953,0.6561,476.81,153.38,1.34
16960,-3.8701,-1.3164,0.6002,1414.31,-2.75,63.72
16970,-3.8705,-1.2300,0.5178,-491.94,841.13,-889.47
16980,-3.8706,-1.1332,0.4175,-1429.44,-1705.57,1079.10
16990,-3.8707,-1.0228,0.3073,-1038.82,1450.87,1063.29
17000,-3.8708,-0.9052,0.1918,1086.18,-658.26,-1624.45
17010,-3.8708,-0.7927,0.0763,148.68,560.73,750.37
17020,-3.8708,-0.7000,-0.0255,-1460.69,1779.66,140.75
17030,-3.8708,-0.6425,-0.1049,-1585.69,748.60,1187.44
17040,-3.8707,-0.6238,-0.1796,1773.68,-1407.53,374.76
17050,-3.8706,-0.6300,-0.2711,164.31,1030.03,609.01
17060,-3.8705,-0.6346,-0.3821,-632.57,1311.22,374.45
17070,-3.8705,-0.6044,-0.4929,-1226.32,-891.91,-1063.29
17080,-3.8705,-0.5239,-0.5894,-1351.32,920.65,-672.85
17090,-3.8705,-0.4105,-0.6897,945.56,577.09,561.34
17100,-3.8707,-0.2872,-0.7977,-538.82,-266.48,-1126.40
17110,-3.8710,-0.1704,-0.8992,-757.57,1905.64,-173.46
17120,-3.8711,-0.0627,-0.9979,-1804.44,921.51,1420.10
17130,-3.8712,0.0645,-1.1077,-23.19,281.07,1201.17
17140,-3.8713,0.2617,-1.2324,258.06,-1781.13,-705.32
17150,-3.8713,0.5450,-1.3649,1508.06,-1749.51,-971.19
17160,-3.8713,0.8682,-1.4847,1773.68,1297.91,-221.44
17170,-3.8713,1.1527,-1.5759,-866.94,1954.77,-174.80
17180,-3.8713,1.3446,-1.6189,-445.07,-1716.55,1153.14
17190,-3.8715,1.4293,-1.5984,117.43,783.87,668.70
17200,-3.8716,1.4193,-1.5386,-1038.82,-591.00,1574.95
17210,-3.8716,1.3596,-1.4755,1679.93,-934.75,1090.70
17220,-3.8716,1.3022,-1.4177,-1960.69,-856.75,1653.32
17230,-3.8716,1.2781,-1.3485,-1304.44,-1466.25,559.69
17240,-3.8718,1.2780,-1.2598,-398.19,-606.93,-752.69
17250,-3.8721,1.2635,-1.1603,-413.82,-1247.56,1028.75
17260,-3.8724,1.2036,-1.0580,1742.43,-513.18,138.31
17270,-3.8729,1.0956,-0.9644,-1929.44,580.44,-345.83
17280,-3.8732,0.9578,-0.8904,242.43,564.64,1701.23
17290,-3.8734,0.8174,-0.8330,-1398.19,-1966.92,-533.02
17300,-3.8734,0.6949,-0.7880,633.06,1376.59,1201.48
17310,-3.8734,0.5946,-0.7601,961.18,-858.03,-1907.84
17320,-3.8733,0.5134,-0.7455,117.43,-1295.72,1498.47
17330,-3.8732,0.4469,-0.7300,1726.81,579.10,-720.21
17340,-3.8729,0.3857,-0.7206,1211.18,-1436.65,-1813.96
17350,-3.8727,0.3263,-0.7279,1383.06,-233.64,967.29
17360,-3.8724,0.2714,-0.7321,1773.68,-1171.26,326.66
17370,-3.8722,0.2152,-0.7131,-1257.57,-1702.64,514.16
17380,-3.8719,0.1418,-0.6736,-445.07,719.12,61.10
17390,-3.8718,0.0327,-0.6072,-1835.69,1781.49,-1095.09
17400,-3.8716,-0.1298,-0.4894,195.56,-1718.69,-1891.85
17410,-3.8713,-0.3672,-0.3260,-601.32,1374.69,1061.52
17420,-3.8712,-0.6721,-0.1429,1008.06,-1719.48,-1078.80
17430,-3.8710,-1.0109,0.0659,1976.81,1717.41,1171.57
17440,-3.8707,-1.3799,0.3052,-1382.57,451.11,1484.50
17450,-3.8704,-1.7964,0.5420,-616.94,-924.62,594.30
17460,-3.8700,-2.2275,0.7505,-1929.44,1387.08,-1764.59
17470,-3.8695,-2.5735,0.9078,-1116.94,73.73,-1342.29
17480,-3.8689,-2.7661,0.9847,-1398.19,213.68,-1248.23
17490,-3.8682,-2.7903,1.0076,1945.56,-1942.93,111.27
17500,-3.8677,-2.6753,1.0216,-1148.19,978.88,-1810.55
17510,-3.8674,-2.4952,1.0320,1570.56,-1224.00,-216.80
17520,-3.8674,-2.3110,1.0266,617.43,104.49,1861.39
17530,-3.8678,-2.1382,0.9937,195.56,-582.64,-1873.05
17540,-3.8683,-1.9586,0.9268,-1679.44,-801.09,939.39
17550,-3.8689,-1.7563,0.8242,1304.93,-1363.22,-1591.98
17560,-3.8694,-1.5347,0.6964,-804.44,1512.15,485.96
17570,-3.8699,-1.3142,0.5565,-429.44,1153.20,157.59
17580,-3.8704,-1.1136,0.4022,-210.69,-752.62,-1311.46
17590,-3.8706,-0.9387,0.2332,1461.18,-502.20,1547.61
17600,-3.8707,-0.7927,0.0527,-148.19,1857.48,1391.05
17610,-3.8707,-0.6753,-0.1362,-1460.69,-1235.96,1656.31
17620,-3.8706,-0.5660,-0.3085,1570.56,-1423.22,1593.44
17630,-3.8704,-0.4556,-0.4382,-445.07,530.09,61.89
17640,-3.8702,-0.3590,-0.5308,1695.56,-79.04,-1485.29
17650,-3.8701,-0.2853,-0.6128,-1945.07,77.39,-1704.16
17660,-3.8701,-0.2167,-0.6920,-507.57,1577.51,-1.22
17670,-3.8700,-0.1327,-0.7498,273.68,-562.93,1264.22
17680,-3.8700,-0.0341,-0.7736,-976.32,46.57,904.79
17690,-3.8701,0.0624,-0.7736,-351.32,999.88,310.97
17700,-3.8705,0.1411,-0.7703,-7.57,984.44,-907.78
17710,-3.8707,0.1958,-0.7700,-1929.44,1406.49,639.10
17720,-3.8710,0.2305,-0.7683,1070.56,1437.87,1014.10
17730,-3.8711,0.2620,-0.7635,1508.06,1656.68,1185.97
17740,-3.8712,0.3096,-0.7659,1539.31,-1733.89,-1001.53
17750,-3.8712,0.3889,-0.7968,-366.94,1969.30,904.72
17760,-3.8713,0.5059,-0.8507,1789.31,-1983.64,-439.09
17770,-3.8713,0.6398,-0.9014,758.06,-889.65,-657.96
17780,-3.8713,0.7582,-0.9407,1898.68,626.22,-1173.65
17790,-3.8713,0.8496,-0.9630,1054.93,-404.79,169.98
17800,-3.8716,0.9221,-0.9641,758.06,736.02,-923.77
17810,-3.8717,0.9884,-0.9479,-1960.69,595.52,435.61
17820,-3.8719,1.0480,-0.9137,-1476.32,-1326.23,857.48
17830,-3.8722,1.0889,-0.8656,-1851.32,-951.11,138.79
17840,-3.8726,1.1130,-0.8180,-616.94,1205.20,-1501.71
17850,-3.8728,1.1307,-0.7791,-1523.19,-700.99,1513.98
17860,-3.8730,1.1412,-0.7527,742.43,283.45,-1189.03
17870,-3.8732,1.1329,-0.7380,-1913.82,-341.55,-1454.65
17880,-3.8732,1.0969,-0.7289,1023.68,1533.45,436.04
17890,-3.8732,1.0319,-0.7291,414.31,-1294.74,607.91
17900,-3.8732,0.9393,-0.7472,86.18,-1326.11,-1345.21
17910,-3.8730,0.8284,-0.7924,242.43,361.21,-1220.21
17920,-3.8728,0.7155,-0.8713,-1960.69,-1420.29,1889.04
17930,-3.8724,0.6207,-0.9525,-413.82,470.09,1123.29
17940,-3.8719,0.5593,-0.9963,-538.82,-1920.72,76.23
17950,-3.8715,0.5220,-1.0105,-398.19,469.79,623.05
17960,-3.8711,0.4873,-1.0134,-1179.44,-1342.77,-1548.89
17970,-3.8708,0.4387,-0.9982,-1616.94,-1717.83,-1111.39
17980,-3.8707,0.3651,-0.9581,164.31,235.23,-1548.83
17990,-3.8707,0.2836,-0.9005,-1257.57,1360.05,-1423.77
18000,-3.8707,0.2275,-0.8356,304.93,734.92,435.73
18010,-3.8708,0.1879,-0.7711,1133.06,1047.30,404.60
18020,-3.8711,0.1223,-0.6863,54.93,1297.24,-64.03
18030,-3.8711,0.0018,-0.5446,-335.69,156.43,1029.91
18040,-3.8711,-0.1959,-0.3330,242.43,-1703.12,1264.53
18050,-3.8710,-0.4895,-0.0746,-1070.07,1390.20,702.45
18060,-3.8708,-0.8612,0.1969,1351.81,-1532.23,-1750.18
18070,-3.8706,-1.2560,0.4657,1773.68,1217.04,-1296.51
18080,-3.8702,-1.6276,0.7034,-757.57,-377.50,-796.02
18090,-3.8698,-1.9448,0.8782,-320.07,-1956.36,-1686.16
18100,-3.8693,-2.1833,0.9962,-929.44,418.03,1845.46
18110,-3.8688,-2.3276,1.0829,539.31,-473.02,314.39
18120,-3.8684,-2.3700,1.1262,-1929.44,-1379.58,845.83
18130,-3.8682,-2.3101,1.1135,648.68,167.24,-1388.43
18140,-3.8680,-2.1781,1.0725,320.56,-1457.64,-107.24
18150,-3.8680,-2.0240,1.0216,1211.18,1292.60,-1154.17
18160,-3.8683,-1.8649,0.9648,929.93,-1222.72,-326.17
18170,-3.8685,-1.6906,0.8949,1304.93,-488.04,267.46
18180,-3.8690,-1.5066,0.8048,-382.57,-1440.86,1970.46
18190,-3.8695,-1.3267,0.7057,-835.69,-971.74,1673.40
18200,-3.8700,-1.1561,0.6044,-1804.44,-1658.87,1204.47
18210,-3.8705,-1.0032,0.5033,23.68,1372.74,-889.47
18220,-3.8707,-0.8721,0.4037,-398.19,435.49,172.85
18230,-3.8710,-0.7550,0.3026,383.06,-314.21,422.61
18240,-3.8711,-0.6486,0.2019,-632.57,-1251.53,547.42
18250,-3.8712,-0.5598,0.1041,992.43,1858.09,-249.63
18260,-3.8711,-0.4933,0.0031,351.81,1342.65,1140.81
18270,-3.8710,-0.4413,-0.1079,867.43,405.27,453.12
18280,-3.8708,-0.3829,-0.2126,-476.32,-1797.79,656.01
18290,-3.8708,-0.3055,-0.2959,-1007.57,796.08,-172.30
18300,-3.8707,-0.2139,-0.3672,898.68,-1859.99,1202.51
18310,-3.8707,-0.1195,-0.4471,633.06,1015.20,421.14
18320,-3.8708,-0.0262,-0.5481,711.18,-1218.99,889.71
18330,-3.8710,0.0696,-0.6466,648.68,1859.31,639.53
18340,-3.8711,0.1626,-0.7061,914.31,1234.50,-501.28
18350,-3.8710,0.2424,-0.7347,820.56,1625.31,-1563.90
18360,-3.8708,0.3114,-0.7617,-960.69,1953.55,-1610.84
18370,-3.8707,0.3821,-0.7990,-132.57,-1499.45,826.60
18380,-3.8707,0.4667,-0.8580,914.31,1735.11,-1735.96
18390,-3.8707,0.5695,-0.9435,-257.57,-1827.27,-298.58
18400,-3.8706,0.6777,-1.0358,898.68,-764.53,1373.11
18410,-3.8705,0.7812,-1.1218,-1241.94,-576.84,13.55
18420,-3.8704,0.8861,-1.1947,8.06,407.78,341.55
18430,-3.8702,0.9962,-1.2358,1429.93,-920.17,1325.74
18440,-3.8701,1.0989,-1.2408,-476.32,1814.39,372.56
18450,-3.8701,1.1770,-1.2245,664.31,1174.01,28.81
18460,-3.8702,1.2238,-1.1963,-1335.69,-732.12,1231.93
18470,-3.8704,1.2385,-1.1465,648.68,-1122.62,106.99
18480,-3.8707,1.2272,-1.0565,-1460.69,1252.38,-1064.76
18490,-3.8711,1.1995,-0.9454,1086.18,768.01,872.92
18500,-3.8717,1.1611,-0.8650,1539.31,-1013.31,-830.02
18510,-3.8722,1.1177,-0.8190,633.06,1283.51,1748.29
18520,-3.8726,1.0682,-0.7723,-929.44,-825.99,1873.35
18530,-3.8727,1.0033,-0.7234,742.43,1142.70,1342.22
18540,-3.8727,0.9166,-0.6967,429.93,-591.80,936.04
18550,-3.8727,0.8073,-0.7001,1336.18,-1170.10,1045.47
18560,-3.8727,0.6863,-0.7115,-663.82,-1607.85,-1907.65
18570,-3.8726,0.5781,-0.7041,-148.19,923.16,1764.22
18580,-3.8724,0.4965,-0.6844,-1991.94,1876.10,-1642.03
18590,-3.8723,0.4309,-0.6821,-445.07,391.54,1686.16
18600,-3.8723,0.3582,-0.7104,-835.69,688.29,-16.97
18610,-3.8722,0.2744,-0.7429,1851.81,1063.17,-1063.90
18620,-3.8721,0.1886,-0.7418,-866.94,906.74,-126.46
18630,-3.8718,0.0885,-0.6974,148.68,1047.24,-1579.59
18640,-3.8716,-0.0587,-0.6174,-663.82,-1265.50,1639.22
18650,-3.8713,-0.2776,-0.4967,492.43,984.25,873.78
18660,-3.8711,-0.5629,-0.3154,476.81,436.95,170.90
18670,-3.8708,-0.9004,-0.0966,-38.82,-360.53,546.20
18680,-3.8706,-1.2740,0.1144,758.06,-345.52,-1547.12
18690,-3.8702,-1.6525,0.3014,929.93,-1346.25,1156.43
18700,-3.8699,-1.9905,0.4633,492.43,-1409.48,938.05
18710,-3.8695,-2.2432,0.5991,1226.81,-691.41,-1577.27
18720,-3.8690,-2.3866,0.6982,883.06,698.73,516.78
18730,-3.8687,-2.4214,0.7543,-1476.32,1385.93,891.97
18740,-3.8684,-2.3666,0.7729,-1929.44,557.74,1470.21
18750,-3.8683,-2.2498,0.7753,1086.18,-1051.51,595.21
18760,-3.8684,-2.1039,0.7828,39.31,-754.39,1267.09
18770,-3.8687,-1.9535,0.7856,-1288.82,214.60,923.40
18780,-3.8690,-1.8014,0.7655,1961.18,574.28,1689.03
18790,-3.8694,-1.6495,0.7166,1429.93,1996.46,704.59
18800,-3.8699,-1.5015,0.6520,867.43,-268.86,-295.53
18810,-3.8701,-1.3594,0.5922,-179.44,-534.24,298.10
18820,-3.8705,-1.2378,0.5305,-1991.94,-190.19,-1280.15
18830,-3.8707,-1.1448,0.4604,1570.56,-80.57,-1499.02
18840,-3.8710,-1.0659,0.3875,1476.81,-1049.13,-249.15
18850,-3.8711,-0.9869,0.3097,-429.44,1607.24,-905.52
18860,-3.8712,-0.9027,0.2241,1679.93,-345.70,-280.70
18870,-3.8712,-0.8138,0.1301,461.18,701.35,1031.68
18880,-3.8713,-0.7253,0.0272,-163.82,670.23,-46.63
18890,-3.8712,-0.6433,-0.0813,-835.69,-501.46,1328.12
18900,-3.8711,-0.5721,-0.1882,1664.31,1608.09,734.19
18910,-3.8710,-0.5090,-0.2837,-1226.32,-79.28,812.07
18920,-3.8708,-0.4471,-0.3673,-1148.19,-297.91,640.01
18930,-3.8708,-0.3857,-0.4579,-1226.32,999.08,-891.36
18940,-3.8707,-0.3169,-0.5642,-1366.94,1405.46,124.08
18950,-3.8707,-0.2272,-0.6621,-554.44,-203.80,795.72
18960,-3.8707,-0.1162,-0.7288,-1070.07,-734.86,779.91
18970,-3.8708,0.0095,-0.7693,1133.06,-1265.87,-1345.21
18980,-3.8710,0.1416,-0.8102,1226.81,1531.25,-1392.15
18990,-3.8711,0.2793,-0.8695,-1866.94,297.12,-1064.09
19000,-3.8711,0.4314,-0.9424,-241.94,703.61,1279.54
19010,-3.8711,0.5978,-1.0302,-773.19,-624.21,1169.98
19020,-3.8711,0.7720,-1.1226,523.68,141.78,1529.24
19030,-3.8711,0.9414,-1.1879,-1179.44,313.96,-1674.07
19040,-3.8711,1.0841,-1.2213,508.06,-45.04,-80.51
19050,-3.8710,1.1768,-1.2374,-1226.32,-326.05,-1939.94
19060,-3.8708,1.2120,-1.2308,-1366.94,1611.63,200.68
19070,-3.8708,1.2085,-1.1971,-851.32,-1544.56,-1846.19
19080,-3.8708,1.1956,-1.1525,-1304.44,-1232.06,-736.76
19090,-3.8708,1.1947,-1.1022,1039.31,486.69,1841.49
19100,-3.8710,1.2067,-1.0376,929.93,-1075.81,279.05
19110,-3.8713,1.2201,-0.9601,-1538.82,-810.18,-1470.83
19120,-3.8717,1.2238,-0.8813,179.93,1111.76,1935.61
19130,-3.8721,1.2052,-0.8131,648.68,-810.12,1060.73
19140,-3.8724,1.1547,-0.7659,-1726.32,-75.81,-1548.52
19150,-3.8727,1.0751,-0.7401,-195.07,1970.95,-610.90
19160,-3.8727,0.9775,-0.7263,1617.43,1267.70,342.29
19170,-3.8727,0.8789,-0.7150,1133.06,-966.86,936.04
19180,-3.8727,0.7969,-0.7052,508.06,486.08,-157.65
19190,-3.8726,0.7338,-0.7015,-1991.94,1735.90,-1032.65
19200,-3.8724,0.6769,-0.7020,1929.93,-1795.47,1311.10
19210,-3.8723,0.6156,-0.7037,-1351.32,-1858.09,45.47
19220,-3.8722,0.5524,-0.7075,-1195.07,1923.03,264.22
19230,-3.8721,0.4977,-0.7128,-1288.82,1438.54,842.35
19240,-3.8719,0.4557,-0.7170,-288.82,766.54,170.47
19250,-3.8719,0.4142,-0.7206,-1663.82,219.60,1701.72
19260,-3.8719,0.3572,-0.7209,1023.68,-233.58,-1938.96
19270,-3.8719,0.2736,-0.7048,1726.81,-280.58,-1220.21
19280,-3.8718,0.1484,-0.6652,-976.32,1781.74,1045.47
19290,-3.8717,-0.0282,-0.5956,-991.94,-1140.38,1279.91
19300,-3.8716,-0.2657,-0.4746,398.68,-218.81,-1188.72
19310,-3.8713,-0.5740,-0.2928,1992.43,-734.92,608.40
19320,-3.8712,-0.9453,-0.0702,-1460.69,-1469.91,-1328.74
19330,-3.8710,-1.3558,0.1675,-991.94,-970.64,1843.57
19340,-3.8707,-1.7677,0.3937,-1538.82,1450.44,-671.57
19350,-3.8704,-2.1389,0.5754,1742.43,-1597.23,-1124.27
19360,-3.8700,-2.4214,0.7112,-1773.19,1667.66,-1639.53
19370,-3.8696,-2.5796,0.8207,-1929.44,-957.89,704.47
19380,-3.8694,-2.6217,0.8921,1820.56,1057.43,-1310.91
19390,-3.8691,-2.5623,0.9039,429.93,-1802.00,-217.04
19400,-3.8689,-2.4102,0.8652,39.31,-286.25,1704.83
19410,-3.8689,-2.2045,0.7986,-491.94,-1239.14,-1326.48
19420,-3.8690,-1.9896,0.7129,1836.18,-1769.96,-982.85
19430,-3.8693,-1.7773,0.6099,1336.18,-738.28,-186.16
19440,-3.8695,-1.5718,0.4989,508.06,-1925.35,1548.03
19450,-3.8699,-1.3804,0.3933,-1179.44,-128.11,1688.42
19460,-3.8702,-1.2086,0.3037,-679.44,-1643.37,-1514.89
19470,-3.8705,-1.0708,0.2310,1304.93,-1111.76,-1858.83
19480,-3.8706,-0.9778,0.1654,-1054.44,1575.99,1172.30
19490,-3.8707,-0.9221,0.1006,-1148.19,1185.55,-1405.94
19500,-3.8707,-0.8757,0.0371,1976.81,888.79,1484.56
19510,-3.8707,-0.8147,-0.0289,-85.69,763.85,921.94
19520,-3.8708,-0.7358,-0.1117,-273.19,310.85,-0.06
19530,-3.8708,-0.6493,-0.2108,1820.56,1717.29,-640.87
19540,-3.8707,-0.5626,-0.3040,898.68,1029.97,358.95
19550,-3.8707,-0.4774,-0.3812,-7.57,1108.22,-1219.36
19560,-3.8706,-0.3967,-0.4510,-1101.32,-782.23,1921.08
19570,-3.8705,-0.3208,-0.5140,1226.81,-1719.54,-1844.67
19580,-3.8704,-0.2441,-0.5680,-1054.44,-1781.92,-844.79
19590,-3.8702,-0.1602,-0.6150,758.06,-687.99,-1298.03
19600,-3.8702,-0.0635,-0.6489,-491.94,1296.51,-798.10
19610,-3.8702,0.0427,-0.6658,-116.94,952.94,998.72
19620,-3.8704,0.1508,-0.6750,1476.81,-1218.69,701.78
19630,-3.8706,0.2573,-0.6852,-695.07,1593.99,-954.47
19640,-3.8707,0.3551,-0.6938,945.56,297.36,1045.53
19650,-3.8710,0.4415,-0.7023,1461.18,-811.83,-813.90
19660,-3.8711,0.5272,-0.7220,523.68,-1889.77,1826.72
19670,-3.8712,0.6183,-0.7681,-507.57,-420.90,1748.54
19680,-3.8713,0.7096,-0.8488,-851.32,1688.66,-110.90
19690,-3.8712,0.8080,-0.9514,-1163.82,-639.28,1513.92
19700,-3.8711,0.9282,-1.0497,-570.07,-1779.72,-1314.39
19710,-3.8708,1.0736,-1.1243,-1179.44,1642.40,1326.05
19720,-3.8707,1.2277,-1.1693,1429.93,95.83,-1017.82
19730,-3.8706,1.3640,-1.1829,1148.68,-1669.49,1638.31
19740,-3.8707,1.4570,-1.1698,-1398.19,596.37,-2.32
19750,-3.8708,1.4894,-1.1351,-1491.94,-1731.57,1950.81
19760,-3.8711,1.4618,-1.0739,-1351.32,-1294.01,325.87
19770,-3.8716,1.3892,-0.9883,-882.57,-1450.32,-220.89
19780,-3.8719,1.2875,-0.8997,1820.56,1502.69,1169.92
19790,-3.8724,1.1689,-0.8273,804.93,846.25,-1626.77
19800,-3.8728,1.0449,-0.7714,1633.06,-1888.37,1560.85
19810,-3.8730,0.9265,-0.7289,1758.06,1267.64,389.10
19820,-3.8733,0.8197,-0.7032,-1398.19,-1295.10,-892.09
19830,-3.8733,0.7260,-0.6920,929.93,1985.96,1498.60
19840,-3.8733,0.6427,-0.6871,929.93,-576.72,-1392.03
19850,-3.8732,0.5609,-0.6880,-1726.32,48.10,1154.91
19860,-3.8730,0.4741,-0.6967,-195.07,-61.46,842.35
19870,-3.8729,0.3873,-0.7068,695.56,-1170.96,1436.10
19880,-3.8728,0.3098,-0.7114,1586.18,1531.98,-1813.90
19890,-3.8727,0.2393,-0.7073,-335.69,938.05,-626.40
19900,-3.8724,0.1682,-0.6818,-1366.94,1469.18,1920.47
19910,-3.8722,0.0818,-0.6255,1539.31,734.68,1608.03
19920,-3.8719,-0.0435,-0.5338,-1523.19,-62.38,-1298.16
19930,-3.8716,-0.2242,-0.3979,-1554.44,-312.62,-1735.47
19940,-3.8712,-0.4624,-0.2300,-695.07,1077.64,-938.29
19950,-3.8708,-0.7473,-0.0636,820.56,-1422.79,-766.11
19960,-3.8705,-1.0612,0.0869,351.81,-126.46,-265.81
19970,-3.8700,-1.3899,0.2195,179.93,-861.45,1797.00
19980,-3.8695,-1.7065,0.3307,-1898.19,106.63,672.30
19990,-3.8691,-1.9694,0.4310,1570.56,-1659.61,-1015.01
20000,-3.8687,-2.1447,0.5404,-70.07,-816.41,313.29
20010,-3.8684,-2.2295,0.6510,1492.43,1183.29,-327.09
20020,-3.8682,-2.2488,0.7360,-1366.94,-660.64,-1248.78
20030,-3.8682,-2.2174,0.7938,164.31,-1785.64,-482.97
20040,-3.8683,-2.1440,0.8368,179.93,1620.67,-1576.60
20050,-3.8685,-2.0504,0.8615,1570.56,-879.21,1548.46
20060,-3.8689,-1.9534,0.8533,1554.93,-1722.78,-998.35
20070,-3.8691,-1.8479,0.8114,1976.81,1230.53,376.65
20080,-3.8695,-1.7255,0.7472,-523.19,-128.66,-1498.47
20090,-3.8698,-1.5928,0.6687,-851.32,-347.17,-1936.10
20100,-3.8700,-1.4553,0.5776,133.06,1606.26,-998.72
20110,-3.8701,-1.3079,0.4755,1726.81,1950.26,1313.60
20120,-3.8702,-1.1531,0.3622,601.81,872.44,829.04
20130,-3.8704,-1.0015,0.2377,414.31,-1627.26,1031.92
20140,-3.8705,-0.8523,0.1101,-179.44,-1564.51,1875.43
20150,-3.8706,-0.7026,-0.0118,-1085.69,-1892.33,-546.69
20160,-3.8706,-0.5618,-0.1398,-1929.44,-1501.40,1499.94
20170,-3.8707,-0.4249,-0.2784,101.81,-1876.10,-469.06
20180,-3.8707,-0.2738,-0.4089,1617.43,374.15,1890.08
20190,-3.8707,-0.1123,-0.5175,961.18,-328.67,1421.02
20200,-3.8707,0.0370,-0.6036,1633.06,1781.01,1733.34
20210,-3.8707,0.1566,-0.6671,742.43,-1265.56,1639.40
20220,-3.8707,0.2433,-0.7063,54.93,-1390.32,451.78
20230,-3.8708,0.3116,-0.7314,-851.32,1594.18,1561.10
20240,-3.8710,0.3850,-0.7593,-101.32,-1624.45,1795.41
20250,-3.8711,0.4700,-0.8016,1289.31,-1186.77,1795.35
20260,-3.8712,0.5709,-0.8669,164.31,1391.54,748.41
20270,-3.8715,0.7104,-0.9398,1086.18,1032.35,-439.21
20280,-3.8716,0.8799,-1.0055,-1054.44,-295.53,-330.02
20290,-3.8716,1.0437,-1.0623,633.06,-701.42,747.99
20300,-3.8717,1.1685,-1.0950,1601.81,33.26,-1752.08
20310,-3.8717,1.2196,-1.1027,1570.56,-153.99,497.80
20320,-3.8717,1.1996,-1.1086,117.43,-1138.24,1107.18
20330,-3.8716,1.1586,-1.1202,1554.93,-1903.93,810.30
20340,-3.8715,1.1453,-1.1265,304.93,611.63,1107.18
20350,-3.8715,1.1672,-1.1151,-1398.19,-185.30,-1346.01
20360,-3.8716,1.2028,-1.0739,1414.31,1267.88,-517.82
20370,-3.8718,1.2150,-1.0083,1961.18,-1450.81,-236.51
20380,-3.8721,1.1805,-0.9417,-476.32,-1060.18,1310.49
20390,-3.8724,1.1078,-0.8840,-882.57,-528.99,-892.52
20400,-3.8727,1.0146,-0.8326,1804.93,-1154.11,-533.02
20410,-3.8728,0.9143,-0.7927,1883.06,1423.83,-1532.90
20420,-3.8729,0.8145,-0.7704,1039.31,-1466.98,-298.46
20430,-3.8729,0.7212,-0.7570,258.06,1392.21,-392.15
20440,-3.8728,0.6320,-0.7456,320.56,-889.22,1920.35
20450,-3.8727,0.5417,-0.7440,898.68,563.72,795.41
20460,-3.8727,0.4597,-0.7506,1351.81,766.66,-454.59
20470,-3.8726,0.3954,-0.7520,-1148.19,-77.27,-798.40
20480,-3.8723,0.3400,-0.7487,-1382.57,-249.27,45.35
20490,-3.8722,0.2765,-0.7501,-476.32,172.49,951.66
20500,-3.8721,0.1951,-0.7483,-601.32,-15.14,1264.10
20510,-3.8719,0.0919,-0.7166,976.81,219.12,1717.29
20520,-3.8718,-0.0424,-0.6384,-226.32,281.37,-235.78
20530,-3.8715,-0.2273,-0.5062,-1413.82,-1703.25,154.97
20540,-3.8712,-0.4739,-0.3148,-1085.69,-781.74,-1282.29
20550,-3.8708,-0.7734,-0.0900,-648.19,-282.23,-1328.80
20560,-3.8705,-1.1056,0.1272,1008.06,498.47,-250.18
20570,-3.8700,-1.4408,0.3188,-1507.57,294.68,1390.87
20580,-3.8696,-1.7495,0.4806,-413.82,825.26,-1530.64
20590,-3.8693,-2.0089,0.6078,70.56,1527.83,-1045.96
20600,-3.8689,-2.1906,0.7074,-1132.57,1808.53,-670.72
20610,-3.8685,-2.2830,0.7804,-382.57,-1441.83,-1670.53
20620,-3.8683,-2.2959,0.8142,-210.69,-98.27,-1857.91
20630,-3.8682,-2.2347,0.8102,-1866.94,229.86,-1889.04
20640,-3.8682,-2.1066,0.7882,1961.18,-285.64,1782.78
20650,-3.8683,-1.9375,0.7582,-1632.57,902.10,814.03
20660,-3.8687,-1.7653,0.7109,8.06,1058.72,-326.66
20670,-3.8689,-1.6055,0.6410,-1945.07,-987.85,266.97
20680,-3.8693,-1.4487,0.5548,-1491.94,-1940.67,407.47
20690,-3.8696,-1.2909,0.4678,-1429.44,-971.62,485.41
20700,-3.8700,-1.1475,0.3861,-1226.32,-111.94,953.98
20710,-3.8704,-1.0303,0.3041,1133.06,1435.24,-1264.89
20720,-3.8706,-0.9313,0.2250,133.06,-1064.51,-1155.70
20730,-3.8707,-0.8384,0.1503,804.93,810.67,1516.05
20740,-3.8708,-0.7461,0.0714,695.56,-751.65,1125.24
20750,-3.8710,-0.6515,-0.0171,508.06,1154.79,812.62
20760,-3.8711,-0.5535,-0.1179,617.43,1826.84,1624.94
20770,-3.8711,-0.4525,-0.2305,1164.31,920.78,234.13
20780,-3.8711,-0.3485,-0.3444,-1913.82,-1485.29,77.64
20790,-3.8711,-0.2477,-0.4586,-601.32,-63.23,702.39
20800,-3.8711,-0.1554,-0.5723,304.93,1312.01,1967.83
20810,-3.8710,-0.0703,-0.6631,117.43,-1234.68,264.47
20820,-3.8710,0.0033,-0.7189,-991.94,-859.56,-376.34
20830,-3.8708,0.0602,-0.7587,429.93,-15.62,1904.79
20840,-3.8708,0.1101,-0.7935,-288.82,-1109.31,1685.97
20850,-3.8710,0.1791,-0.8055,-1898.19,-1562.32,-142.21
20860,-3.8710,0.2762,-0.8024,-1070.07,890.93,451.54
20870,-3.8712,0.3973,-0.8070,-632.57,1297.36,-1376.59
20880,-3.8715,0.5453,-0.8265,-1132.57,703.86,-454.71
20890,-3.8716,0.7123,-0.8629,1804.93,-1795.84,1342.10
20900,-3.8717,0.8700,-0.9045,-820.07,1548.22,717.04
20910,-3.8718,0.9877,-0.9312,-632.57,220.40,1263.85
20920,-3.8719,1.0490,-0.9327,-1570.07,814.39,-986.21
20930,-3.8719,1.0623,-0.9208,-1726.32,611.39,-1501.83
20940,-3.8719,1.0636,-0.9115,-23.19,-1857.36,-751.83
20950,-3.8719,1.0884,-0.9075,148.68,-669.80,-783.08
20960,-3.8719,1.1438,-0.8948,-679.44,-154.17,888.79
20970,-3.8721,1.2090,-0.8630,-1585.69,1470.95,60.73
20980,-3.8723,1.2535,-0.8141,-1241.94,1533.57,1045.17
20990,-3.8726,1.2571,-0.7556,461.18,-200.68,763.98
21000,-3.8728,1.2120,-0.7009,914.31,-716.31,717.22
21010,-3.8730,1.1229,-0.6605,-851.32,-1716.43,-1720.15
21020,-3.8732,1.0076,-0.6390,-257.57,-544.74,-1641.97
21030,-3.8732,0.8914,-0.6335,976.81,-1794.92,1498.72
21040,-3.8732,0.7952,-0.6343,-1898.19,-1092.04,-266.91
21050,-3.8729,0.7305,-0.6360,1789.31,-1185.97,139.34
21060,-3.8728,0.6899,-0.6461,1508.06,-1404.85,1951.84
21070,-3.8726,0.6504,-0.6692,320.56,1298.22,748.72
21080,-3.8724,0.5934,-0.6987,-741.94,-1655.03,-32.59
21090,-3.8722,0.5201,-0.7260,-38.82,-1436.40,-501.40
21100,-3.8719,0.4368,-0.7457,-1413.82,-920.90,-1048.34
21110,-3.8717,0.3479,-0.7516,-85.69,547.67,1498.54
21120,-3.8716,0.2563,-0.7460,539.31,-202.45,-1642.15
21130,-3.8715,0.1644,-0.7305,820.56,516.11,1482.91
21140,-3.8713,0.0729,-0.6926,1054.93,-1499.69,201.66
21150,-3.8712,-0.0328,-0.6324,1336.18,-656.13,1029.85
21160,-3.8710,-0.1825,-0.5649,-195.07,-937.62,1686.22
21170,-3.8706,-0.3870,-0.4868,648.68,-297.24,1623.84
21180,-3.8702,-0.6217,-0.3723,-1523.19,1702.33,-422.85
21190,-3.8698,-0.8683,-0.1995,429.93,358.15,-1766.36
21200,-3.8693,-1.1436,0.0183,867.43,-1517.33,437.07
21210,-3.8689,-1.4629,0.2518,1633.06,-1642.88,796.88
21220,-3.8687,-1.7949,0.4783,758.06,247.13,1609.86
21230,-3.8685,-2.0879,0.6780,-1741.94,1230.83,-1749.08
21240,-3.8685,-2.2944,0.8457,758.06,-1207.21,-1545.59
21250,-3.8687,-2.3856,0.9738,-1679.44,261.11,-1732.73
21260,-3.8689,-2.3654,1.0449,-1351.32,651.55,-1013.73
21270,-3.8691,-2.2528,1.0516,1242.43,1760.99,-1872.99
21280,-3.8694,-2.0861,1.0028,-351.32,-1379.46,1158.26
21290,-3.8696,-1.9037,0.9260,992.43,370.91,-1904.30
21300,-3.8698,-1.7274,0.8335,336.18,-1456.85,845.52
21310,-3.8700,-1.5686,0.7205,-1101.32,-1300.29,-92.16
21320,-3.8701,-1.4233,0.5938,-773.19,231.26,-998.60
21330,-3.8702,-1.2791,0.4644,1820.56,12.82,-1576.97
21340,-3.8704,-1.1321,0.3422,289.31,-549.38,-1874.15
21350,-3.8705,-0.9945,0.2297,-898.19,-189.76,1594.36
21360,-3.8706,-0.8784,0.1217,711.18,1419.92,1141.05
21370,-3.8707,-0.7794,0.0089,-429.44,-408.02,1734.56
21380,-3.8707,-0.6849,-0.1146,242.43,1154.72,265.62
21390,-3.8707,-0.5916,-0.2428,336.18,1342.41,1437.26
21400,-3.8706,-0.5055,-0.3728,289.31,936.34,1468.26
21410,-3.8704,-0.4294,-0.5027,-695.07,295.84,139.89
21420,-3.8701,-0.3544,-0.6124,1039.31,-328.98,420.84
21430,-3.8700,-0.2749,-0.6885,-1351.32,1624.27,-313.72
21440,-3.8699,-0.1964,-0.7372,820.56,-109.92,-1188.90
21450,-3.8699,-0.1168,-0.7670,-1132.57,1655.82,1357.91
21460,-3.8700,-0.0292,-0.7819,1054.93,1843.51,1842.22
21470,-3.8701,0.0656,-0.7841,273.68,-62.56,1592.16
21480,-3.8704,0.1589,-0.7766,398.68,-359.25,-189.09
21490,-3.8705,0.2458,-0.7734,351.81,594.06,170.35
21500,-3.8708,0.3358,-0.7867,-523.19,1000.43,-95.28
21510,-3.8710,0.4427,-0.8013,-1007.57,-702.51,1217.16
21520,-3.8711,0.5590,-0.8038,679.93,1438.35,982.79
21530,-3.8712,0.6630,-0.8082,-445.07,1110.41,1717.16
21540,-3.8713,0.7448,-0.8372,867.43,548.16,1560.91
21550,-3.8715,0.8199,-0.8864,-663.82,845.15,1263.98
21560,-3.8716,0.9136,-0.9268,961.18,-1451.54,-876.77
21570,-3.8716,1.0328,-0.9467,945.56,1376.77,-1220.58
21580,-3.8716,1.1538,-0.9482,211.18,-1169.86,1091.86
21590,-3.8718,1.2416,-0.9326,-304.44,-1372.80,-189.39
21600,-3.8721,1.2793,-0.9028,-1070.07,627.38,-298.71
21610,-3.8723,1.2679,-0.8583,-241.94,439.94,-1642.40
21620,-3.8726,1.2266,-0.7980,-1695.07,-1856.93,1201.42
21630,-3.8728,1.1685,-0.7439,1008.06,1861.76,1139.04
21640,-3.8730,1.1002,-0.7096,1570.56,783.51,-1595.21
21650,-3.8732,1.0280,-0.6835,836.18,1174.01,1982.97
21660,-3.8732,0.9508,-0.6606,-413.82,517.58,733.03
21670,-3.8732,0.8683,-0.6421,1711.18,-560.67,1936.16
21680,-3.8732,0.7877,-0.6221,-851.32,1814.15,-157.53
21690,-3.8730,0.7142,-0.6024,836.18,376.53,1295.65
21700,-3.8730,0.6407,-0.5945,-570.07,-1108.03,1826.90
21710,-3.8730,0.5630,-0.5956,-1976.32,-92.53,-1641.85
21720,-3.8730,0.4785,-0.5970,70.56,-233.28,-173.10
21730,-3.8729,0.3885,-0.5947,1258.06,-420.96,-1657.47
21740,-3.8728,0.2969,-0.5901,1742.43,-124.27,1764.40
21750,-3.8727,0.2039,-0.5924,-1991.94,469.30,-1563.66
21760,-3.8724,0.1154,-0.6055,-1898.19,172.24,467.59
21770,-3.8723,0.0350,-0.6039,-1226.32,-1499.82,-1001.22
21780,-3.8721,-0.0558,-0.5463,492.43,-1296.81,-1282.47
21790,-3.8717,-0.1997,-0.4143,867.43,-1906.37,-1969.85
21800,-3.8712,-0.4283,-0.2152,-1554.44,-1016.05,905.40
21810,-3.8707,-0.7302,0.0321,1179.93,467.90,749.57
21820,-3.8702,-1.0601,0.3007,-1460.69,123.54,171.94
21830,-3.8699,-1.3855,0.5521,320.56,-1502.08,-124.45
21840,-3.8694,-1.6992,0.7529,-1335.69,-1315.25,-1639.59
21850,-3.8690,-1.9806,0.9097,-1491.94,387.27,1157.71
21860,-3.8688,-2.1915,1.0319,-1507.57,449.22,892.40
21870,-3.8687,-2.3016,1.0927,-507.57,89.42,-1029.24
21880,-3.8685,-2.2941,1.0884,1398.68,-129.52,-279.17
21890,-3.8684,-2.1709,1.0475,-1632.57,-676.39,1752.08
21900,-3.8685,-1.9706,0.9857,-1866.94,-1910.52,-857.36
21910,-3.8687,-1.7511,0.9119,-226.32,-1816.41,173.77
21920,-3.8690,-1.5532,0.8182,-132.57,730.90,-779.48
21930,-3.8693,-1.3829,0.6980,1195.56,746.95,-1639.04
21940,-3.8695,-1.2286,0.5695,-1007.57,1356.63,-1279.91
21950,-3.8696,-1.0859,0.4437,-1257.57,903.81,204.22
21960,-3.8699,-0.9528,0.3219,1008.06,810.36,-1702.27
21970,-3.8700,-0.8226,0.2053,-1945.07,1216.86,1156.86
21980,-3.8701,-0.6938,0.0927,-1288.82,-1704.77,937.87
21990,-3.8702,-0.5767,-0.0164,-804.44,-126.40,1547.00
22000,-3.8704,-0.4808,-0.1268,-1804.44,1920.72,-390.69
22010,-3.8702,-0.4048,-0.2444,-1538.82,-219.73,405.94
22020,-3.8701,-0.3405,-0.3624,195.56,733.58,77.64
22030,-3.8700,-0.2825,-0.4672,429.93,1624.33,233.64
22040,-3.8700,-0.2328,-0.5509,-148.19,218.14,-1797.79
22050,-3.8700,-0.1934,-0.6229,-1788.82,1499.51,1014.53
22060,-3.8701,-0.1492,-0.6786,-741.94,280.82,-1766.85
22070,-3.8701,-0.0825,-0.7046,914.31,1155.94,342.41
22080,-3.8702,0.0018,-0.7134,1445.56,1827.94,-1345.15
22090,-3.8704,0.0952,-0.7153,242.43,687.50,-1798.28
22100,-3.8706,0.1971,-0.7219,195.56,437.68,-1657.65
22110,-3.8708,0.3182,-0.7421,1242.43,-405.88,1717.29
22120,-3.8711,0.4724,-0.7712,742.43,1016.24,-282.71
22130,-3.8711,0.6403,-0.8179,476.81,1282.17,810.97
22140,-3.8712,0.7849,-0.8843,1961.18,-686.28,-626.65
22150,-3.8712,0.8862,-0.9443,476.81,-1185.97,-1517.40
22160,-3.8712,0.9495,-0.9878,1445.56,-873.29,1857.48
22170,-3.8712,0.9955,-1.0278,1539.31,1564.33,1560.55
22180,-3.8712,1.0444,-1.0610,-570.07,439.39,1404.24
22190,-3.8712,1.1047,-1.0670,1695.56,189.51,107.30
22200,-3.8715,1.1687,-1.0365,1414.31,-575.99,-64.64
22210,-3.8717,1.2200,-0.9811,1601.81,-669.62,-345.83
22220,-3.8721,1.2440,-0.9155,164.31,-1575.74,-283.20
22230,-3.8724,1.2332,-0.8517,-757.57,-1185.12,-1392.46
22240,-3.8728,1.1862,-0.7969,1851.81,-1013.24,-798.58
22250,-3.8730,1.1045,-0.7487,-163.82,-1997.74,-892.21
22260,-3.8732,0.9945,-0.7142,1383.06,174.01,-1142.09
22270,-3.8732,0.8716,-0.7015,-695.07,580.02,-1079.53
22280,-3.8730,0.7510,-0.7076,-429.44,-1795.23,-1282.65
22290,-3.8728,0.6466,-0.7200,133.06,1423.34,1186.10
22300,-3.8726,0.5660,-0.7263,-1226.32,-155.03,-1938.96
22310,-3.8722,0.4963,-0.7338,461.18,-967.65,529.79
22320,-3.8719,0.4259,-0.7405,-460.69,-1920.96,-985.84
22330,-3.8716,0.3574,-0.7255,-1476.32,1219.54,45.41
22340,-3.8715,0.2898,-0.6837,1758.06,-858.70,-923.34
22350,-3.8712,0.2223,-0.6250,1101.81,484.92,45.53
22360,-3.8712,0.1481,-0.5596,461.18,0.43,-1110.60
22370,-3.8711,0.0586,-0.4886,-1038.82,375.24,373.90
22380,-3.8711,-0.0437,-0.4045,-491.94,1453.19,1577.15
22390,-3.8711,-0.1588,-0.2997,-1585.69,234.25,-532.04
22400,-3.8710,-0.2931,-0.1746,-320.07,1655.88,-1516.24
22410,-3.8708,-0.4568,-0.0328,-1507.57,1671.26,-1390.99
22420,-3.8706,-0.6604,0.1090,1539.31,-188.42,62.38
22430,-3.8705,-0.8969,0.2336,-523.19,1967.41,-515.44
22440,-3.8701,-1.1462,0.3464,1211.18,1920.10,1422.30
22450,-3.8698,-1.3940,0.4611,1289.31,357.12,188.17
22460,-3.8695,-1.6221,0.5873,1570.56,-971.50,1391.48
22470,-3.8694,-1.8145,0.7216,383.06,-815.67,-1030.15
22480,-3.8693,-1.9568,0.8458,-241.94,371.40,63.90
22490,-3.8694,-2.0406,0.9503,1539.31,277.40,1861.02
22500,-3.8695,-2.0697,1.0216,-1195.07,1652.22,1486.21
22510,-3.8698,-2.0397,1.0410,-913.82,-1222.84,-169.92
22520,-3.8699,-1.9403,1.0073,-1070.07,1261.60,1392.64
22530,-3.8701,-1.7760,0.9319,-351.32,949.28,-1669.92
22540,-3.8704,-1.5806,0.8280,679.93,-706.60,-1091.98
22550,-3.8706,-1.3922,0.7126,1695.56,1996.89,-514.04
22560,-3.8707,-1.2218,0.5922,1804.93,-768.37,79.47
22570,-3.8710,-1.0669,0.4640,-382.57,-189.94,1407.35
22580,-3.8711,-0.9320,0.3284,-554.44,-595.89,1188.35
22590,-3.8711,-0.8213,0.1884,711.18,-1954.96,734.99
22600,-3.8710,-0.7257,0.0559,-1116.94,123.35,187.87
22610,-3.8708,-0.6335,-0.0596,-882.57,-829.59,-1687.44
22620,-3.8706,-0.5546,-0.1700,-1085.69,389.34,1046.75
22630,-3.8705,-0.4990,-0.2903,1023.68,-1751.10,-547.24
22640,-3.8702,-0.4521,-0.4052,133.06,-1141.60,-1734.99
22650,-3.8700,-0.3939,-0.4950,-1866.94,155.33,1389.83
22660,-3.8699,-0.3173,-0.5597,1586.18,655.46,-1829.10
22670,-3.8699,-0.2273,-0.6000,-601.32,374.33,-1922.97
22680,-3.8700,-0.1381,-0.6340,-1085.69,-781.74,1561.28
22690,-3.8702,-0.0552,-0.6838,-1663.82,-1140.93,-63.78
22700,-3.8702,0.0255,-0.7303,945.56,484.25,1061.16
22710,-3.8702,0.1060,-0.7515,-726.32,-1484.38,1514.16
22720,-3.8702,0.1868,-0.7635,1570.56,-187.32,-1439.03
22730,-3.8702,0.2755,-0.7926,-85.69,-1734.07,1560.97
22740,-3.8704,0.3909,-0.8315,-726.32,-1452.64,-782.84
22750,-3.8704,0.5319,-0.8721,-1960.69,1563.23,1607.73
22760,-3.8704,0.6719,-0.9249,86.18,376.04,451.42
22770,-3.8705,0.7986,-0.9744,-1991.94,1610.66,-1017.46
22780,-3.8705,0.9049,-0.9961,-1773.19,-717.22,1638.67
22790,-3.8705,0.9852,-0.9945,-163.82,501.71,91.80
22800,-3.8706,1.0453,-0.9758,-1882.57,705.02,591.80
22810,-3.8708,1.0914,-0.9437,1804.93,-904.24,1904.30
22820,-3.8711,1.1237,-0.9066,-288.82,-794.80,513.73
