timestamp_ms,ax,ay,az,gx,gy,gz
0,-3.8730,-0.2644,-0.9924,898.68,1406.13,-17.46
10,-3.8726,-0.4825,-1.0546,-1835.69,983.83,1482.42
20,-3.8719,-0.6827,-1.1198,-1757.57,1030.27,1591.67
30,-3.8712,-0.8385,-1.2056,617.43,686.16,1435.30
40,-3.8705,-0.9368,-1.3016,679.93,1701.48,1403.87
50,-3.8699,-0.9841,-1.3802,101.81,1404.42,-1408.81
60,-3.8694,-0.9781,-1.4152,-1960.69,-658.20,-393.37
70,-3.8689,-0.9333,-1.3795,-1195.07,-1126.95,653.44
80,-3.8687,-0.8881,-1.2786,539.31,-564.33,903.50
90,-3.8687,-0.8605,-1.1495,-1663.82,357.60,1450.62
100,-3.8690,-0.8446,-1.0166,1867.43,873.29,-80.38
110,-3.8695,-0.8206,-0.8840,-101.32,1888.92,-1845.76
120,-3.8701,-0.7827,-0.7605,-1023.19,-1142.27,670.10
130,-3.8708,-0.7384,-0.6527,-179.44,-1329.71,-64.03
140,-3.8713,-0.6914,-0.5692,1492.43,467.29,-1266.91
150,-3.8717,-0.6459,-0.5162,-491.94,-845.15,-1641.78
160,-3.8719,-0.6082,-0.4796,1336.18,1936.22,-782.29
170,-3.8719,-0.5822,-0.4476,-1835.69,-1376.22,358.40
180,-3.8721,-0.5647,-0.4222,1492.43,-1282.41,-297.79
190,-3.8721,-0.5466,-0.4106,-273.19,1967.59,-625.85
200,-3.8721,-0.5146,-0.4136,-1960.69,-547.97,-1313.35
210,-3.8721,-0.4611,-0.4154,-1866.94,-922.91,-1891.48
220,-3.8721,-0.3829,-0.4011,992.43,-1157.17,1108.52
230,-3.8722,-0.2837,-0.3781,-1007.57,671.08,1311.71
240,-3.8724,-0.1648,-0.3600,-304.44,-375.61,1858.58
250,-3.8727,-0.0203,-0.3561,-1085.69,1937.13,655.52
260,-3.8730,0.1477,-0.3680,1414.31,-1562.56,-391.36
270,-3.8732,0.3334,-0.4036,-1085.69,890.87,46.14
280,-3.8734,0.5646,-0.4618,-1320.07,344.36,-313.29
290,-3.8734,0.8556,-0.5031,273.68,891.72,-719.67
300,-3.8733,1.1675,-0.4902,1523.68,-388.98,-1422.91
310,-3.8730,1.4645,-0.4324,1445.56,1252.26,1749.02
320,-3.8727,1.7035,-0.3702,-538.82,659.06,-1969.60
330,-3.8721,1.8423,-0.3494,-1945.07,612.67,14.89
340,-3.8715,1.8848,-0.3979,-179.44,-715.21,1733.64
350,-3.8707,1.8514,-0.4755,1258.06,1066.16,1702.33
360,-3.8700,1.7703,-0.5126,992.43,-855.77,-1438.48
370,-3.8693,1.7043,-0.4869,-1398.19,-1605.96,-1188.54
380,-3.8687,1.6945,-0.4156,-1835.69,1675.17,-204.10
390,-3.8682,1.7292,-0.3334,898.68,-1199.83,-1860.23
400,-3.8679,1.7661,-0.2633,1351.81,1331.48,874.33
410,-3.8679,1.7544,-0.2122,-1929.44,-1699.71,171.33
420,-3.8682,1.6859,-0.1949,570.56,847.17,1530.82
430,-3.8685,1.5825,-0.2188,-195.07,-949.89,-1547.30
440,-3.8690,1.4612,-0.2588,-1429.44,3.05,-391.05
450,-3.8695,1.3269,-0.2877,-960.69,-1122.19,-1984.92
460,-3.8701,1.1797,-0.2949,1851.81,-825.56,-1328.74
470,-3.8707,1.0330,-0.2947,-991.94,-1747.74,-969.36
480,-3.8712,0.9043,-0.3114,226.81,-1716.74,77.51
490,-3.8718,0.7949,-0.3621,-241.94,142.33,-1625.61
500,-3.8723,0.7037,-0.4491,1758.06,1657.78,-1485.11
510,-3.8727,0.6237,-0.5638,-1913.82,-1483.03,530.33
520,-3.8730,0.5330,-0.6906,-163.82,-170.72,1186.34
530,-3.8733,0.4176,-0.8146,226.81,-389.59,1529.85
540,-3.8734,0.2800,-0.9354,1461.18,-264.83,1763.98
550,-3.8734,0.1285,-1.0457,-148.19,266.11,1873.17
560,-3.8733,-0.0355,-1.1313,461.18,-1843.51,-1783.33
570,-3.8730,-0.2195,-1.1855,-538.82,-797.00,-1267.88
580,-3.8727,-0.4280,-1.2156,-85.69,265.14,-908.57
590,-3.8721,-0.6497,-1.2257,1226.81,421.02,341.37
600,-3.8715,-0.8604,-1.2057,851.81,-876.28,-986.82
610,-3.8706,-1.0347,-1.1840,1883.06,1685.79,91.37
620,-3.8700,-1.1378,-1.2067,-429.44,466.67,732.06
630,-3.8698,-1.1361,-1.2538,-1632.57,1560.24,-252.38
640,-3.8696,-1.0348,-1.2657,-1413.82,-471.01,-1049.38
650,-3.8696,-0.8799,-1.2145,-445.07,1997.92,1763.12
660,-3.8698,-0.7371,-1.1075,-616.94,560.73,1575.74
670,-3.8700,-0.6505,-0.9786,1664.31,-1751.46,-658.45
680,-3.8702,-0.6152,-0.8655,742.43,-1251.28,-455.08
690,-3.8705,-0.6110,-0.7782,1258.06,1233.15,-1111.08
700,-3.8707,-0.6229,-0.7050,1804.93,405.03,-1735.90
710,-3.8710,-0.6433,-0.6324,273.68,1780.03,1701.72
720,-3.8712,-0.6696,-0.5648,1664.31,-938.78,1311.22
730,-3.8715,-0.6945,-0.5146,-1695.07,-282.59,1826.97
740,-3.8716,-0.7140,-0.4747,-882.57,-1860.78,358.34
750,-3.8717,-0.7261,-0.4320,617.43,-751.40,1202.15
760,-3.8718,-0.7214,-0.3911,-929.44,717.29,-1532.10
770,-3.8719,-0.6956,-0.3551,-335.69,1951.66,-1766.42
780,-3.8721,-0.6467,-0.3269,-1023.19,-1438.90,1046.14
790,-3.8722,-0.5791,-0.3098,1226.81,-1829.41,389.95
800,-3.8723,-0.5116,-0.2905,1883.06,358.22,249.39
810,-3.8724,-0.4434,-0.2598,-1476.32,-1172.91,202.51
820,-3.8727,-0.3507,-0.2303,-741.94,-1235.29,-172.42
830,-3.8728,-0.2271,-0.2113,-882.57,-1469.48,-1484.86
840,-3.8730,-0.0748,-0.2058,-1054.44,968.26,-0.43
850,-3.8732,0.1196,-0.2297,-1570.07,1671.69,202.70
860,-3.8735,0.3871,-0.3026,-679.44,-1406.07,-578.61
870,-3.8737,0.7100,-0.3999,1554.93,1266.36,1155.64
880,-3.8737,1.0549,-0.4808,-1116.94,813.84,-1688.29
890,-3.8733,1.3931,-0.5255,-960.69,-1544.86,1280.27
900,-3.8727,1.6597,-0.5249,-1679.44,737.06,-766.66
910,-3.8718,1.8562,-0.5385,445.56,815.73,-172.91
920,-3.8708,2.0208,-0.5999,1601.81,-918.27,702.03
930,-3.8700,2.1215,-0.6421,-1335.69,-777.34,1123.78
940,-3.8693,2.1171,-0.6265,-445.07,1816.59,-1282.53
950,-3.8687,2.0280,-0.5898,-1007.57,-183.41,1576.84
960,-3.8683,1.9034,-0.5717,-413.82,503.91,-1485.53
970,-3.8679,1.7687,-0.5659,-351.32,-1168.21,186.34
980,-3.8678,1.6174,-0.5612,-1601.32,-434.08,-860.53
990,-3.8677,1.4498,-0.5676,-960.69,174.99,-1829.22
1000,-3.8678,1.2814,-0.5736,1586.18,-653.44,-688.66
1010,-3.8680,1.1346,-0.5759,23.68,-1419.37,-1876.16
1020,-3.8684,1.0222,-0.5841,1242.43,-1716.55,701.97
1030,-3.8689,0.9272,-0.5735,-1148.19,1236.33,1592.59
1040,-3.8694,0.8265,-0.5181,-1304.44,-1404.48,1483.22
1050,-3.8700,0.7146,-0.4280,1804.93,1689.09,-735.41
1060,-3.8706,0.6154,-0.3547,-523.19,1220.09,-1438.35
1070,-3.8712,0.5486,-0.3220,-1226.32,-1405.09,593.02
1080,-3.8719,0.5074,-0.3130,-1773.19,-1217.71,-1281.92
1090,-3.8726,0.4769,-0.3254,961.18,-61.52,-953.80
1100,-3.8730,0.4382,-0.3680,1054.93,-1655.33,-594.42
1110,-3.8734,0.3810,-0.4513,101.81,891.48,-641.36
1120,-3.8737,0.3013,-0.5773,773.68,-1764.89,-1172.79
1130,-3.8738,0.1874,-0.7328,-1429.44,-1890.08,-1579.28
1140,-3.8738,0.0419,-0.9020,-7.57,-1796.57,1467.29
1150,-3.8738,-0.1147,-1.0740,1367.43,546.94,-845.52
1160,-3.8737,-0.2664,-1.2358,1320.56,-1453.37,-299.01
1170,-3.8733,-0.4055,-1.3698,1914.31,1827.58,185.06
1180,-3.8729,-0.5474,-1.4348,101.81,686.71,1247.31
1190,-3.8724,-0.7220,-1.4004,1945.56,358.28,-1065.31
1200,-3.8717,-0.9396,-1.2976,-413.82,764.16,-284.00
1210,-3.8706,-1.1879,-1.2020,-257.57,1919.98,700.56
1220,-3.8695,-1.4062,-1.1924,-38.82,-1846.13,763.24
1230,-3.8687,-1.5105,-1.2883,8.06,-612.12,1481.99
1240,-3.8683,-1.4664,-1.4047,-1335.69,-893.62,1622.44
1250,-3.8684,-1.3029,-1.4366,304.93,215.88,544.13
1260,-3.8689,-1.0884,-1.3627,1242.43,122.44,1809.69
1270,-3.8694,-0.8953,-1.2262,695.56,1591.61,1419.19
1280,-3.8699,-0.7615,-1.0863,1414.31,-939.27,-1158.69
1290,-3.8702,-0.6882,-0.9668,-1460.69,967.22,-1549.01
1300,-3.8706,-0.6559,-0.8536,-85.69,264.22,-689.39
1310,-3.8708,-0.6462,-0.7335,54.93,-1251.28,513.92
1320,-3.8712,-0.6530,-0.6172,1289.31,-1876.28,1498.54
1330,-3.8716,-0.6600,-0.5308,429.93,1014.34,-579.35
1340,-3.8717,-0.6553,-0.4812,-476.32,76.78,170.84
1350,-3.8719,-0.6429,-0.4440,133.06,-1579.41,-516.60
1360,-3.8721,-0.6262,-0.3988,1711.18,-813.78,-172.79
1370,-3.8722,-0.5986,-0.3511,-148.19,967.47,-391.42
1380,-3.8723,-0.5601,-0.3105,-616.94,-923.10,-1531.98
1390,-3.8724,-0.5132,-0.2742,320.56,264.53,1186.89
1400,-3.8727,-0.4504,-0.2421,-1679.44,920.84,-188.05
1410,-3.8728,-0.3552,-0.2272,-1648.19,1030.33,-1922.36
1420,-3.8729,-0.2252,-0.2360,-1460.69,-1063.23,827.64
1430,-3.8730,-0.0706,-0.2538,-820.07,1812.01,405.76
1440,-3.8733,0.1161,-0.2723,-1023.19,-468.93,-703.67
1450,-3.8734,0.3518,-0.3175,-1132.57,1140.81,1436.95
1460,-3.8735,0.6511,-0.4014,1039.31,-639.95,-1625.67
1470,-3.8734,0.9885,-0.5043,-648.19,626.22,-1766.42
1480,-3.8730,1.3307,-0.5981,-1460.69,-544.98,-844.79
1490,-3.8723,1.7118,-0.6523,-1663.82,-559.94,826.90
1500,-3.8715,2.1053,-0.6631,-882.57,503.30,1733.09
1510,-3.8705,2.3761,-0.6483,1492.43,-870.91,-1360.72
1520,-3.8695,2.4253,-0.6199,148.68,1020.26,1451.84
1530,-3.8688,2.2687,-0.6060,-1554.44,660.95,-1485.60
1540,-3.8682,2.0194,-0.6155,-1601.32,-1558.11,-454.35
1550,-3.8676,1.7848,-0.6074,-1507.57,1222.66,-1157.47
1560,-3.8671,1.6210,-0.5481,461.18,-1746.52,1951.90
1570,-3.8669,1.5361,-0.4589,-507.57,1846.86,-641.72
1580,-3.8671,1.4906,-0.3726,633.06,1268.62,967.83
1590,-3.8676,1.4421,-0.3046,-1195.07,315.37,1311.77
1600,-3.8683,1.3728,-0.2646,601.81,1018.43,-203.74
1610,-3.8690,1.2849,-0.2500,-273.19,-1872.38,-297.42
1620,-3.8698,1.1855,-0.2480,476.81,2.50,-797.36
1630,-3.8705,1.0837,-0.2526,-241.94,252.26,-562.99
1640,-3.8711,0.9867,-0.2684,-1273.19,-326.05,1483.83
1650,-3.8717,0.8839,-0.2939,-1695.07,1642.52,-1859.92
1660,-3.8722,0.7543,-0.3246,1148.68,-1623.29,796.26
1670,-3.8727,0.6010,-0.3556,554.93,-1545.41,827.45
1680,-3.8732,0.4517,-0.3828,929.93,-1514.47,-1125.73
1690,-3.8735,0.3180,-0.4142,1820.56,-999.15,-453.92
1700,-3.8738,0.1920,-0.4583,711.18,-1015.01,-610.23
1710,-3.8739,0.0707,-0.5211,586.18,1344.12,-1704.04
1720,-3.8739,-0.0420,-0.6195,1054.93,1297.00,639.59
1730,-3.8739,-0.1565,-0.7360,-1366.94,718.63,-391.85
1740,-3.8737,-0.2963,-0.8308,-23.19,1812.13,-1595.21
1750,-3.8734,-0.4601,-0.9039,-1913.82,1671.26,-1282.90
1760,-3.8732,-0.6395,-0.9484,1117.43,311.58,-720.52
1770,-3.8728,-0.8398,-0.9392,-1851.32,-1376.28,763.73
1780,-3.8726,-1.0646,-0.9049,508.06,-204.77,-564.39
1790,-3.8722,-1.2886,-0.8898,-257.57,185.36,748.23
1800,-3.8719,-1.4496,-0.9008,-929.44,-1877.56,201.35
1810,-3.8717,-1.4962,-0.9465,-1538.82,715.88,576.35
1820,-3.8715,-1.4177,-1.0200,492.43,-1143.55,-1626.89
1830,-3.8711,-1.2463,-1.1016,-1460.69,1450.32,1029.24
1840,-3.8707,-1.0625,-1.1765,476.81,-986.82,1888.43
1850,-3.8702,-0.9423,-1.2126,8.06,1419.80,591.43
1860,-3.8699,-0.9274,-1.2087,-601.32,794.98,1497.62
1870,-3.8696,-1.0110,-1.1836,1304.93,1295.04,1716.37
1880,-3.8695,-1.1283,-1.1493,-1398.19,513.61,1028.93
1890,-3.8695,-1.2136,-1.1198,-413.82,903.99,700.87
1900,-3.8696,-1.2438,-1.0883,664.31,685.12,1435.30
1910,-3.8699,-1.2241,-1.0234,804.93,716.31,-1924.01
1920,-3.8702,-1.1626,-0.9242,-679.44,1013.18,1341.74
1930,-3.8707,-1.0623,-0.8348,-804.44,1716.43,654.42
1940,-3.8713,-0.9375,-0.7858,39.31,1154.17,-1079.77
1950,-3.8718,-0.8177,-0.7645,8.06,-564.33,-1376.59
1960,-3.8722,-0.7222,-0.7430,-663.82,-1845.40,1389.10
1970,-3.8726,-0.6588,-0.7142,-429.44,904.79,-485.84
1980,-3.8727,-0.6191,-0.6825,-320.07,592.41,295.47
1990,-3.8729,-0.5828,-0.6500,758.06,655.03,-1141.97
2000,-3.8730,-0.5348,-0.6111,1414.31,811.34,-1579.41
2010,-3.8732,-0.4700,-0.5615,-445.07,1795.78,1967.53
2020,-3.8733,-0.3832,-0.5209,-148.19,139.65,920.78
2030,-3.8735,-0.2653,-0.5126,-1038.82,1342.96,-360.41
2040,-3.8737,-0.1063,-0.5310,-1945.07,-1594.30,-1251.04
2050,-3.8738,0.1046,-0.5621,-1601.32,46.63,-1391.66
2060,-3.8739,0.3715,-0.5970,1398.68,47.06,-766.72
2070,-3.8739,0.6724,-0.6246,-445.07,-421.20,389.40
2080,-3.8740,0.9808,-0.6454,-1929.44,48.16,-282.47
2090,-3.8738,1.2877,-0.6541,1554.93,1392.52,733.09
2100,-3.8734,1.5522,-0.6208,836.18,283.75,1358.09
2110,-3.8728,1.7322,-0.5449,-1304.44,534.24,780.03
2120,-3.8722,1.8438,-0.4758,1726.81,-1746.64,-610.47
2130,-3.8715,1.9366,-0.4448,8.06,-902.65,811.52
2140,-3.8708,2.0427,-0.4235,-101.32,-933.78,1624.08
2150,-3.8701,2.1378,-0.3768,1476.81,1800.84,546.02
2160,-3.8694,2.1919,-0.3265,1648.68,-230.22,-1860.17
2170,-3.8685,2.2000,-0.3005,570.56,-1792.60,889.95
2180,-3.8678,2.1447,-0.2875,1601.81,1535.52,733.76
2190,-3.8673,2.0208,-0.2957,-1476.32,-792.72,-1828.74
2200,-3.8671,1.8682,-0.3369,-1335.69,-1839.84,-391.24
2210,-3.8669,1.7357,-0.3892,-866.94,878.60,1389.95
2220,-3.8671,1.6371,-0.4226,-1820.07,-1809.14,1358.58
2230,-3.8673,1.5521,-0.4275,1554.93,1909.42,514.77
2240,-3.8678,1.4530,-0.4154,-1320.07,1284.24,1889.77
2250,-3.8684,1.3307,-0.4009,1992.43,-1169.07,952.27
2260,-3.8693,1.1925,-0.3975,-1663.82,690.06,-219.54
2270,-3.8700,1.0516,-0.4165,648.68,1127.32,1639.83
2280,-3.8707,0.9207,-0.4529,-1382.57,-1310.49,1905.40
2290,-3.8713,0.8003,-0.4896,1851.81,-1966.98,-1782.17
2300,-3.8718,0.6882,-0.5142,-1554.44,1329.65,-1782.23
2310,-3.8722,0.5803,-0.5219,101.81,-1811.16,1233.34
2320,-3.8726,0.4622,-0.5225,-1710.69,1204.22,-1516.66
2330,-3.8728,0.3234,-0.5251,-835.69,1125.85,1639.59
2340,-3.8730,0.1715,-0.5331,1398.68,781.86,-782.29
2350,-3.8732,0.0151,-0.5514,1961.18,-234.07,-985.47
2360,-3.8733,-0.1454,-0.5861,1945.56,1421.88,-563.60
2370,-3.8734,-0.2990,-0.6423,1398.68,999.69,-735.53
2380,-3.8735,-0.4297,-0.7201,1742.43,1796.26,-1626.28
2390,-3.8737,-0.5555,-0.8297,1008.06,-157.10,795.41
2400,-3.8739,-0.7124,-0.9390,898.68,1811.40,-1079.77
2410,-3.8740,-0.9127,-0.9814,820.56,-173.28,-955.02
2420,-3.8739,-1.1277,-0.9423,-820.07,-1611.21,294.92
2430,-3.8737,-1.2858,-0.8800,-335.69,-596.01,544.98
2440,-3.8732,-1.3104,-0.8838,-570.07,-627.56,1045.10
2450,-3.8724,-1.2056,-0.9559,273.68,-1111.94,1732.60
2460,-3.8715,-1.0659,-1.0291,1695.56,1653.87,-1986.27
2470,-3.8704,-0.9722,-1.0768,-429.44,294.74,-1861.39
2480,-3.8694,-0.9420,-1.1143,-429.44,-1814.45,-845.89
2490,-3.8685,-0.9500,-1.1493,-570.07,1388.73,669.68
2500,-3.8680,-0.9685,-1.1628,-1585.69,904.36,1013.37
2510,-3.8678,-0.9778,-1.1508,39.31,-830.02,75.81
2520,-3.8679,-0.9666,-1.1252,-1148.19,716.80,-1580.38
2530,-3.8682,-0.9429,-1.0851,289.31,-17.52,825.87
2540,-3.8687,-0.9089,-1.0250,-679.44,1123.11,529.11
2550,-3.8694,-0.8540,-0.9492,-335.69,810.67,-95.76
2560,-3.8700,-0.7749,-0.8707,-1304.44,-1486.08,1623.11
2570,-3.8707,-0.6847,-0.7841,820.56,560.97,-1.71
2580,-3.8712,-0.5961,-0.6890,367.43,-345.09,998.41
2590,-3.8717,-0.5103,-0.5956,-288.82,-173.10,1092.35
2600,-3.8721,-0.4214,-0.5087,-1304.44,-219.79,467.53
2610,-3.8724,-0.3315,-0.4291,-1929.44,-1094.60,-657.29
2620,-3.8726,-0.2532,-0.3494,1570.56,1093.08,827.27
2630,-3.8728,-0.1849,-0.2723,-398.19,-703.67,-375.73
2640,-3.8729,-0.1069,-0.2188,336.18,1155.88,-1297.42
2650,-3.8730,0.0034,-0.2051,-1679.44,15.38,1843.32
2660,-3.8732,0.1633,-0.2262,445.56,1750.00,1499.57
2670,-3.8733,0.3712,-0.2643,914.31,-952.82,1858.89
2680,-3.8734,0.6263,-0.3141,-476.32,-1827.45,-1219.30
2690,-3.8734,0.9447,-0.4041,179.93,-201.90,1468.08
2700,-3.8733,1.3641,-0.5232,929.93,283.08,1014.83
2710,-3.8729,1.8492,-0.5662,-1382.57,1033.87,-1485.41
2720,-3.8721,2.2290,-0.4862,711.18,-465.15,-1876.16
2730,-3.8710,2.3721,-0.4019,1320.56,1769.96,-1579.10
2740,-3.8699,2.2769,-0.4093,-366.94,567.08,155.46
2750,-3.8690,1.9988,-0.4498,-554.44,-386.23,264.77
2760,-3.8683,1.6427,-0.4579,-148.19,-1574.28,-1610.29
2770,-3.8676,1.3450,-0.4352,-1726.32,1393.80,-1454.04
2780,-3.8669,1.1763,-0.3958,164.31,299.50,483.52
2790,-3.8667,1.1180,-0.3439,-1429.44,1346.01,171.08
2800,-3.8668,1.1207,-0.2817,-882.57,-13.49,218.02
2810,-3.8673,1.1381,-0.2256,-538.82,-60.36,1358.76
2820,-3.8680,1.1384,-0.1865,1679.93,-872.80,1546.39
2830,-3.8689,1.1125,-0.1577,1726.81,127.20,1296.51
2840,-3.8698,1.0647,-0.1349,-1585.69,-185.36,1249.63
2850,-3.8705,0.9908,-0.1316,289.31,-1263.55,421.57
2860,-3.8712,0.8851,-0.1666,-1163.82,-841.86,-62.81
2870,-3.8717,0.7522,-0.2402,1304.93,-1326.42,-719.12
2880,-3.8721,0.6099,-0.3479,289.31,1251.46,-1531.74
2890,-3.8723,0.4696,-0.4955,-1929.44,-530.09,1280.52
2900,-3.8726,0.3169,-0.6635,117.43,579.04,-1938.48
2910,-3.8727,0.1521,-0.8199,570.56,-921.26,279.91
2920,-3.8728,-0.0005,-0.9598,-523.19,-952.88,1279.60
2930,-3.8728,-0.1318,-1.0844,-54.44,1156.19,1701.23
2940,-3.8727,-0.2566,-1.1782,-866.94,1218.44,685.36
2950,-3.8726,-0.3909,-1.2290,-835.69,1202.58,1810.18
2960,-3.8723,-0.5563,-1.2375,1976.81,-1297.67,-1971.19
2970,-3.8719,-0.7570,-1.2039,804.93,1608.28,1825.68
2980,-3.8715,-0.9735,-1.1299,-882.57,1920.35,481.99
2990,-3.8710,-1.1802,-1.0354,-601.32,-611.33,1388.37
3000,-3.8705,-1.3400,-0.9696,945.56,-517.94,-1580.20
3010,-3.8701,-1.4257,-0.9705,492.43,-96.37,-1564.45
3020,-3.8700,-1.4286,-1.0040,1523.68,-205.93,1638.67
3030,-3.8701,-1.3591,-1.0078,1148.68,-502.81,951.11
3040,-3.8705,-1.2482,-0.9656,-1960.69,-987.06,-236.39
3050,-3.8707,-1.1345,-0.9031,242.43,419.43,982.48
3060,-3.8711,-1.0483,-0.8391,-1210.69,419.62,-845.52
3070,-3.8712,-0.9952,-0.7716,1820.56,607.30,92.10
3080,-3.8715,-0.9594,-0.7042,617.43,1248.05,-1267.15
3090,-3.8716,-0.9211,-0.6479,1211.18,1873.11,1373.60
3100,-3.8718,-0.8730,-0.5984,-1898.19,1076.29,-48.16
3110,-3.8719,-0.8231,-0.5488,258.06,-579.83,-766.85
3120,-3.8721,-0.7792,-0.5062,-1351.32,1763.98,-391.72
3130,-3.8721,-0.7388,-0.4747,273.68,-782.78,1217.71
3140,-3.8722,-0.7014,-0.4418,1445.56,-751.46,-297.85
3150,-3.8722,-0.6697,-0.3962,-1773.19,-532.65,-1875.92
3160,-3.8723,-0.6411,-0.3436,-1710.69,1295.53,-203.92
3170,-3.8723,-0.6090,-0.2919,1945.56,29.97,405.58
3180,-3.8726,-0.5684,-0.2363,-1945.07,-1344.97,-78.74
3190,-3.8727,-0.5057,-0.1871,-741.94,1764.47,-1453.61
3200,-3.8728,-0.4082,-0.1703,-726.32,61.46,468.38
3210,-3.8730,-0.2751,-0.1907,-241.94,-1782.10,-1781.62
3220,-3.8732,-0.1191,-0.2230,789.31,-391.17,562.07
3230,-3.8733,0.0465,-0.2476,758.06,-531.49,62.01
3240,-3.8734,0.2291,-0.2791,1961.18,312.56,1312.01
3250,-3.8734,0.4310,-0.3325,1336.18,281.68,702.58
3260,-3.8734,0.6779,-0.4231,-820.07,1438.29,-1719.42
3270,-3.8733,1.0063,-0.5372,-1226.32,1845.03,1546.02
3280,-3.8730,1.3661,-0.5798,820.56,-763.67,-907.35
3290,-3.8724,1.6438,-0.5194,-1132.57,1783.87,-438.66
3300,-3.8716,1.8181,-0.4440,-1585.69,1518.80,-1829.16
3310,-3.8708,1.9364,-0.4073,726.81,-824.58,-610.29
3320,-3.8701,1.9800,-0.4089,-132.57,-136.90,249.15
3330,-3.8696,1.9303,-0.4360,1445.56,-339.90,-1563.35
3340,-3.8690,1.8275,-0.4561,-913.82,191.22,1483.52
3350,-3.8684,1.7142,-0.4452,1929.93,1628.54,-1454.04
3360,-3.8678,1.6144,-0.4172,-570.07,-981.08,1858.46
3370,-3.8674,1.5342,-0.4064,-1351.32,-1403.14,-1516.48
3380,-3.8673,1.4612,-0.4126,383.06,-12.63,-1485.23
3390,-3.8674,1.3838,-0.4230,-960.69,-809.69,-1219.60
3400,-3.8678,1.2982,-0.4447,1133.06,1862.06,-407.10
3410,-3.8683,1.2252,-0.4663,-1820.07,-919.37,1999.08
3420,-3.8689,1.1801,-0.4791,836.18,314.88,811.58
3430,-3.8696,1.1332,-0.4912,-945.07,-1325.87,-797.85
3440,-3.8702,1.0563,-0.5109,1054.93,1127.20,-1329.10
3450,-3.8708,0.9475,-0.5455,-788.82,-1388.61,-985.41
3460,-3.8713,0.8103,-0.5981,1289.31,-1826.29,983.28
3470,-3.8718,0.6497,-0.6599,-273.19,-560.97,1280.03
3480,-3.8723,0.4869,-0.7241,-835.69,-467.53,-641.97
3490,-3.8727,0.3422,-0.7961,-1663.82,-686.58,-1548.34
3500,-3.8730,0.2129,-0.8881,-195.07,-1905.64,-1220.34
3510,-3.8733,0.0826,-1.0022,-741.94,-1671.51,1670.10
3520,-3.8734,-0.0573,-1.1274,-1413.82,-281.13,669.86
3530,-3.8735,-0.2036,-1.2432,679.93,-297.00,-439.76
3540,-3.8734,-0.3608,-1.3314,1945.56,890.20,1919.43
3550,-3.8733,-0.5309,-1.3876,1820.56,1593.02,-174.50
3560,-3.8729,-0.7092,-1.4136,54.93,-1594.79,247.25
3570,-3.8727,-0.8999,-1.3945,1226.81,-923.28,-1955.93
3580,-3.8723,-1.0854,-1.3202,820.56,1513.85,278.50
3590,-3.8721,-1.2120,-1.2310,1070.56,-970.89,-1455.75
3600,-3.8717,-1.2461,-1.1791,867.43,-1549.26,1138.18
3610,-3.8713,-1.1882,-1.1781,508.06,1091.31,294.56
3620,-3.8710,-1.0726,-1.1948,-85.69,1216.37,60.18
3630,-3.8707,-0.9724,-1.1768,-1288.82,-924.01,-377.38
3640,-3.8705,-0.9312,-1.1011,-460.69,1388.67,-189.82
3650,-3.8704,-0.9269,-0.9943,820.56,-923.71,1497.80
3660,-3.8705,-0.9241,-0.9099,1367.43,748.17,1466.80
3670,-3.8707,-0.9067,-0.8754,1726.81,-454.96,-1486.21
3680,-3.8710,-0.8707,-0.8676,-54.44,-33.08,-1314.27
3690,-3.8712,-0.8247,-0.8423,554.93,967.04,-673.58
3700,-3.8713,-0.7815,-0.7803,-1554.44,201.48,1138.98
3710,-3.8716,-0.7501,-0.6932,-23.19,139.04,-1110.90
3720,-3.8718,-0.7240,-0.6085,-7.57,-720.28,-235.78
3730,-3.8719,-0.6804,-0.5538,-663.82,-1876.46,1295.65
3740,-3.8721,-0.6125,-0.5228,914.31,1123.66,998.90
3750,-3.8722,-0.5370,-0.4805,1601.81,1092.53,-1532.29
3760,-3.8722,-0.4758,-0.4060,-726.32,-1485.47,108.40
3770,-3.8723,-0.4318,-0.3104,-898.19,45.90,561.71
3780,-3.8726,-0.3838,-0.2280,742.43,280.40,-1203.74
3790,-3.8728,-0.3116,-0.1896,-1116.94,-1172.67,-234.86
3800,-3.8729,-0.2139,-0.1969,117.43,-250.61,1655.82
3810,-3.8730,-0.0972,-0.2225,633.06,-1187.93,1515.20
3820,-3.8732,0.0387,-0.2471,-429.44,-468.99,1812.01
3830,-3.8733,0.2104,-0.2811,961.18,375.06,187.01
3840,-3.8735,0.4412,-0.3473,-1054.44,15.99,1671.33
3850,-3.8737,0.7429,-0.4346,476.81,-452.27,811.77
3860,-3.8738,1.1051,-0.5015,-898.19,376.40,-157.10
3870,-3.8735,1.4756,-0.5034,1461.18,-185.36,-626.04
3880,-3.8728,1.7576,-0.4235,883.06,-434.63,702.09
3890,-3.8718,1.8804,-0.3298,976.81,1800.29,905.40
3900,-3.8708,1.8922,-0.3282,695.56,1784.91,-656.92
3910,-3.8698,1.8486,-0.4293,-1788.82,1988.04,1468.08
3920,-3.8687,1.7230,-0.5469,633.06,1050.48,389.77
3930,-3.8677,1.5149,-0.5914,554.93,-1996.64,1217.65
3940,-3.8669,1.2972,-0.5457,1914.31,299.80,-1563.66
3950,-3.8665,1.1569,-0.4712,-1945.07,-1841.25,577.03
3960,-3.8665,1.1169,-0.4192,86.18,-310.24,-422.85
3970,-3.8666,1.1183,-0.3741,-1023.19,-1654.11,577.27
3980,-3.8672,1.0973,-0.3185,-851.32,111.51,-797.61
3990,-3.8679,1.0477,-0.2704,461.18,-763.49,280.58
4000,-3.8689,0.9905,-0.2396,-1882.57,1392.64,1452.58
4010,-3.8698,0.9331,-0.2217,-1210.69,1330.02,405.76
4020,-3.8706,0.8611,-0.2170,-554.44,-373.23,-719.24
4030,-3.8712,0.7638,-0.2260,-1773.19,220.40,-1344.18
4040,-3.8717,0.6432,-0.2498,1773.68,-920.41,1718.26
4050,-3.8722,0.5065,-0.2915,-1663.82,32.47,-937.99
4060,-3.8726,0.3682,-0.3491,836.18,-1311.52,-1969.36
4070,-3.8729,0.2427,-0.4187,-866.94,-686.83,-969.48
4080,-3.8732,0.1365,-0.5023,-929.44,-1593.32,-828.98
4090,-3.8733,0.0524,-0.6040,1476.81,-296.63,-891.66
4100,-3.8733,-0.0145,-0.7275,-1288.82,-1312.44,-1188.72
4110,-3.8732,-0.0884,-0.8685,-1851.32,-1109.44,-1907.71
4120,-3.8729,-0.1869,-0.9982,695.56,843.57,60.79
4130,-3.8728,-0.3167,-1.0963,86.18,249.63,-408.20
4140,-3.8724,-0.4858,-1.1572,-523.19,-313.17,1185.30
4150,-3.8721,-0.6852,-1.1638,1820.56,-110.35,872.68
4160,-3.8717,-0.8909,-1.1234,304.93,-954.47,841.43
4170,-3.8713,-1.0818,-1.0786,1976.81,216.98,529.05
4180,-3.8710,-1.2446,-1.0541,1539.31,1950.99,1060.36
4190,-3.8706,-1.3689,-1.0386,695.56,1091.31,-1955.20
4200,-3.8704,-1.4319,-1.0316,789.31,-924.56,-80.20
4210,-3.8702,-1.4054,-1.0438,726.81,-34.06,-1127.08
4220,-3.8704,-1.2991,-1.0511,117.43,-1596.50,-1533.33
4230,-3.8706,-1.1642,-1.0178,1726.81,1466.19,1544.80
4240,-3.8710,-1.0514,-0.9463,-1007.57,1732.06,-267.64
4250,-3.8712,-0.9789,-0.8633,1429.93,-1111.45,-908.14
4260,-3.8713,-0.9309,-0.7947,-1288.82,1513.67,248.29
4270,-3.8716,-0.8843,-0.7532,851.81,-1704.96,-1204.71
4280,-3.8717,-0.8348,-0.7280,-1179.44,-392.40,-1735.90
4290,-3.8718,-0.7922,-0.7004,1148.68,-1173.52,-1813.96
4300,-3.8719,-0.7622,-0.6578,-1398.19,-1642.21,-1860.78
4310,-3.8721,-0.7404,-0.6016,-1554.44,-189.03,-1532.59
4320,-3.8722,-0.7161,-0.5492,1242.43,-985.84,-204.35
4330,-3.8722,-0.6808,-0.5118,351.81,1717.35,-1782.35
4340,-3.8722,-0.6370,-0.4756,867.43,-1501.34,1092.71
4350,-3.8723,-0.5929,-0.4257,-1523.19,-860.66,-735.35
4360,-3.8724,-0.5509,-0.3694,117.43,1530.09,-235.23
4370,-3.8726,-0.5045,-0.3191,1492.43,733.28,-1156.98
4380,-3.8727,-0.4409,-0.2761,-570.07,-829.16,686.83
4390,-3.8729,-0.3496,-0.2468,-429.44,670.96,827.58
4400,-3.8732,-0.2327,-0.2451,-741.94,421.14,218.26
4410,-3.8734,-0.0948,-0.2676,-1773.19,640.14,437.01
4420,-3.8737,0.0676,-0.3035,-132.57,1765.38,-1953.67
4430,-3.8738,0.2577,-0.3594,664.31,1156.37,671.26
4440,-3.8739,0.5126,-0.4473,992.43,-1999.51,233.64
4450,-3.8740,0.8739,-0.5642,1617.43,-1249.02,1764.71
4460,-3.8740,1.3073,-0.6533,-132.57,-217.10,-673.03
4470,-3.8737,1.6869,-0.6398,-663.82,377.50,889.34
4480,-3.8730,1.8904,-0.5520,-70.07,-1887.39,1123.72
4490,-3.8722,1.9254,-0.4894,1976.81,1347.41,1123.90
4500,-3.8712,1.8551,-0.5200,-1538.82,1363.10,389.65
4510,-3.8702,1.7303,-0.6483,1461.18,1441.10,-876.04
4520,-3.8690,1.6066,-0.8143,1492.43,1018.98,61.22
4530,-3.8680,1.5112,-0.9321,1648.68,-231.26,-1564.15
4540,-3.8672,1.4286,-0.9371,1445.56,690.43,-392.46
4550,-3.8665,1.3324,-0.8348,-1132.57,49.62,45.04
4560,-3.8663,1.2288,-0.7097,-1445.07,1143.19,-595.40
4570,-3.8666,1.1433,-0.6298,1289.31,1158.63,-642.03
4580,-3.8672,1.0874,-0.5880,-1648.19,-607.18,-1954.41
4590,-3.8680,1.0549,-0.5460,-804.44,736.45,1733.22
4600,-3.8689,1.0289,-0.4902,-960.69,-1888.61,248.90
4610,-3.8698,0.9998,-0.4431,-288.82,1251.95,1608.40
4620,-3.8705,0.9713,-0.4247,-23.19,-716.86,-344.67
4630,-3.8710,0.9375,-0.4360,336.18,1642.52,-1953.98
4640,-3.8713,0.8730,-0.4760,8.06,189.33,202.27
4650,-3.8717,0.7596,-0.5397,-241.94,-920.23,1420.90
4660,-3.8719,0.6097,-0.6113,1242.43,-1076.66,358.28
4670,-3.8723,0.4492,-0.6768,-1945.07,1751.16,-376.22
4680,-3.8726,0.3073,-0.7378,1508.06,1375.85,-938.84
4690,-3.8727,0.2021,-0.8005,-663.82,1563.05,45.41
4700,-3.8729,0.1190,-0.8741,1883.06,1531.62,-48.46
4710,-3.8729,0.0293,-0.9647,-757.57,109.56,-1157.96
4720,-3.8729,-0.0823,-1.0571,-241.94,515.62,-189.39
4730,-3.8728,-0.2207,-1.1301,1476.81,702.94,1685.42
4740,-3.8727,-0.3820,-1.1708,-241.94,-641.11,153.99
4750,-3.8727,-0.5588,-1.1766,-882.57,-1844.54,-49.19
4760,-3.8724,-0.7435,-1.1514,476.81,1405.15,1778.93
4770,-3.8722,-0.9153,-1.1097,836.18,639.16,-1736.63
4780,-3.8718,-1.0554,-1.0662,-1148.19,1966.92,1763.43
4790,-3.8713,-1.1531,-1.0259,914.31,-455.20,138.49
4800,-3.8710,-1.2012,-1.0027,414.31,700.87,-517.64
4810,-3.8706,-1.1989,-0.9974,-1741.94,-330.51,-392.64
4820,-3.8704,-1.1494,-0.9922,-1445.07,341.37,1076.17
4830,-3.8705,-1.0652,-0.9761,883.06,1013.37,-330.08
4840,-3.8706,-0.9664,-0.9467,-335.69,-924.01,-1923.83
4850,-3.8708,-0.8865,-0.9039,304.93,-1158.14,-595.64
4860,-3.8710,-0.8468,-0.8536,-1460.69,310.73,1373.23
4870,-3.8711,-0.8376,-0.7976,-382.57,-1251.71,123.29
4880,-3.8713,-0.8416,-0.7322,789.31,1920.23,-767.21
4890,-3.8715,-0.8408,-0.6682,289.31,-1704.77,-1329.59
4900,-3.8716,-0.8241,-0.6132,383.06,-1517.27,-1876.34
4910,-3.8717,-0.7948,-0.5531,-1476.32,1529.60,1498.78
4920,-3.8718,-0.7622,-0.4849,-1726.32,1217.16,1373.90
4930,-3.8719,-0.7269,-0.4290,-1554.44,1951.60,-1969.73
4940,-3.8721,-0.6860,-0.3915,-1038.82,1107.91,-422.73
4950,-3.8721,-0.6478,-0.3522,195.56,1904.91,1764.83
4960,-3.8722,-0.6188,-0.2970,1086.18,-1063.78,-438.23
4970,-3.8723,-0.5883,-0.2378,804.93,1998.78,-94.36
4980,-3.8724,-0.5444,-0.1918,711.18,1576.97,-1469.24
4990,-3.8726,-0.4857,-0.1558,-1679.44,-532.35,874.57
5000,-3.8728,-0.4161,-0.1194,1836.18,77.15,-78.43
5010,-3.8729,-0.3313,-0.0914,-1257.57,733.52,-1187.74
5020,-3.8730,-0.2252,-0.0844,1601.81,311.83,952.94
5030,-3.8733,-0.0948,-0.0924,-820.07,1218.26,-1125.18
5040,-3.8734,0.0773,-0.1169,-132.57,187.26,1156.07
5050,-3.8737,0.3115,-0.1765,1898.68,1031.37,-250.24
5060,-3.8738,0.6318,-0.2695,-116.94,1406.80,-312.87
5070,-3.8738,1.0182,-0.3439,883.06,1501.22,-1813.05
5080,-3.8737,1.3795,-0.3370,-1663.82,-13.67,639.89
5090,-3.8734,1.6289,-0.2927,586.18,862.06,1264.95
5100,-3.8729,1.7480,-0.3126,508.06,-1465.58,640.01
5110,-3.8723,1.7661,-0.4186,-241.94,-12.27,-797.55
5120,-3.8713,1.7057,-0.5734,-1929.44,-1574.71,-282.10
5130,-3.8700,1.5841,-0.7230,-1663.82,-1387.33,-782.41
5140,-3.8684,1.4286,-0.7948,-1226.32,-543.82,1279.79
5150,-3.8669,1.2798,-0.7340,-1132.57,-1731.63,1685.91
5160,-3.8658,1.1735,-0.5900,-179.44,-1950.68,-907.71
5170,-3.8652,1.1133,-0.4810,-1788.82,486.63,1451.97
5180,-3.8654,1.0836,-0.4576,-1491.94,-1560.36,967.77
5190,-3.8661,1.0708,-0.4735,-1288.82,1423.95,499.08
5200,-3.8672,1.0566,-0.4501,1070.56,-607.30,967.77
5210,-3.8684,1.0369,-0.3708,-741.94,-1607.36,-94.67
5220,-3.8694,1.0240,-0.2986,726.81,533.26,-438.23
5230,-3.8701,1.0139,-0.2777,-913.82,1783.20,-1922.49
5240,-3.8707,0.9810,-0.2979,1789.31,455.08,1874.45
5250,-3.8712,0.9050,-0.3412,1570.56,1876.89,1640.01
5260,-3.8716,0.7810,-0.4061,-148.19,329.83,1061.83
5270,-3.8719,0.6233,-0.4916,-23.19,17.09,-1016.42
5280,-3.8722,0.4641,-0.5874,-210.69,1079.28,-1735.35
5290,-3.8724,0.3271,-0.6785,-585.69,813.35,-673.03
5300,-3.8726,0.2036,-0.7502,1883.06,1156.86,-1063.84
5310,-3.8726,0.0782,-0.8041,-1929.44,-30.88,1045.35
5320,-3.8726,-0.0538,-0.8545,-1976.32,1078.25,514.04
5330,-3.8726,-0.1970,-0.9055,1117.43,-1359.50,295.17
5340,-3.8726,-0.3538,-0.9447,-1210.69,108.95,716.98
5350,-3.8726,-0.5222,-0.9542,-1273.19,-906.98,-814.39
5360,-3.8723,-0.6964,-0.9243,1164.31,1873.96,982.48
5370,-3.8721,-0.8652,-0.8771,-1132.57,1701.72,-1486.21
5380,-3.8717,-1.0067,-0.8405,1258.06,-251.71,-751.77
5390,-3.8712,-1.0992,-0.8243,-851.32,435.49,1201.48
5400,-3.8708,-1.1339,-0.8469,-695.07,-1502.20,920.23
5410,-3.8706,-1.1138,-0.9072,-1132.57,-392.88,123.29
5420,-3.8706,-1.0532,-0.9637,1445.56,-111.57,-173.71
5430,-3.8705,-0.9843,-0.9827,1195.56,654.17,-1705.02
5440,-3.8705,-0.9412,-0.9573,-1976.32,-1767.58,-126.95
5450,-3.8704,-0.9288,-0.9022,-460.69,1482.48,185.61
5460,-3.8705,-0.9304,-0.8407,1117.43,529.42,-720.52
5470,-3.8705,-0.9321,-0.7758,914.31,404.42,795.23
5480,-3.8706,-0.9291,-0.6993,695.56,716.92,389.10
5490,-3.8708,-0.9077,-0.6173,1086.18,-1501.83,-1610.78
5500,-3.8711,-0.8600,-0.5419,-179.44,998.17,-907.47
5510,-3.8713,-0.7972,-0.4766,1929.93,-1345.46,-1235.47
5520,-3.8716,-0.7346,-0.4197,1961.18,-985.96,-1454.10
5530,-3.8718,-0.6827,-0.3672,1976.81,-1704.59,-360.23
5540,-3.8719,-0.6412,-0.3121,617.43,1014.28,1968.02
5550,-3.8721,-0.5973,-0.2554,1929.93,61.22,655.64
5560,-3.8723,-0.5354,-0.2104,-445.07,-673.10,-641.17
5570,-3.8724,-0.4464,-0.1841,-523.19,1077.03,-1578.55
5580,-3.8726,-0.3353,-0.1693,-1132.57,452.21,1999.63
5590,-3.8727,-0.2117,-0.1648,1086.18,-1656.92,1984.01
5600,-3.8728,-0.0662,-0.1749,914.31,-1078.55,-1859.74
5610,-3.8729,0.1111,-0.1957,-460.69,1624.82,-1937.87
5620,-3.8730,0.3044,-0.2285,-1773.19,-1046.69,1421.45
5630,-3.8732,0.4912,-0.2726,-1023.19,-1249.45,718.26
5640,-3.8733,0.6533,-0.3317,-1116.94,1110.29,-1953.67
5650,-3.8732,0.7889,-0.4198,-366.94,1548.10,296.20
5660,-3.8729,0.9036,-0.5288,992.43,-1732.85,1046.02
5670,-3.8726,0.9977,-0.6381,-335.69,314.21,-594.79
5680,-3.8719,1.0814,-0.7360,-288.82,-1669.98,-188.78
5690,-3.8711,1.1250,-0.8070,-1570.07,1798.95,-1298.34
5700,-3.8701,1.0806,-0.8571,8.06,705.32,1029.66
5710,-3.8693,0.9673,-0.9237,-1679.44,-1701.05,-267.33
5720,-3.8683,0.8414,-1.0068,-179.44,1767.46,1498.17
5730,-3.8674,0.7355,-1.0731,-288.82,-873.41,-1658.26
5740,-3.8666,0.6554,-1.1155,-1851.32,-1357.97,1325.99
5750,-3.8660,0.5902,-1.1268,-101.32,1219.97,-1158.45
5760,-3.8656,0.5316,-1.0914,-445.07,-233.28,841.49
5770,-3.8658,0.4905,-1.0184,54.93,297.91,-1080.26
5780,-3.8665,0.4780,-0.9110,-1210.69,1641.54,-1642.64
5790,-3.8673,0.4867,-0.7799,1195.56,-608.46,107.54
5800,-3.8684,0.5026,-0.6561,-1695.07,172.79,1576.60
5810,-3.8695,0.5110,-0.5519,336.18,16.60,-673.16
5820,-3.8704,0.4945,-0.4683,1414.31,1360.35,733.28
5830,-3.8712,0.4573,-0.4067,-695.07,63.42,-594.67
5840,-3.8718,0.4177,-0.3719,-1460.69,-61.65,-875.85
5850,-3.8723,0.3721,-0.3573,1476.81,391.42,-797.61
5860,-3.8727,0.3070,-0.3606,-366.94,-1733.70,-360.11
5870,-3.8728,0.2334,-0.3976,-695.07,1844.30,749.27
5880,-3.8729,0.1549,-0.4641,1883.06,1109.80,-1438.29
5890,-3.8729,0.0575,-0.5339,-163.82,593.99,-47.79
5900,-3.8728,-0.0555,-0.6021,-632.57,-343.69,-1844.85
5910,-3.8727,-0.1605,-0.6888,898.68,-1047.00,14.40
5920,-3.8727,-0.2516,-0.7920,-538.82,-156.62,-985.78
5930,-3.8724,-0.3434,-0.8744,-195.07,-1359.92,685.91
5940,-3.8722,-0.4353,-0.9170,54.93,93.08,654.54
5950,-3.8719,-0.5198,-0.9347,289.31,-1360.23,1591.92
5960,-3.8717,-0.6019,-0.9366,1476.81,373.96,-845.58
5970,-3.8713,-0.7031,-0.9175,-1038.82,123.78,1232.54
5980,-3.8711,-0.8446,-0.8771,-1991.94,-1423.28,-111.21
5990,-3.8707,-1.0177,-0.8291,-101.32,-251.71,-892.40
6000,-3.8704,-1.1794,-0.8000,1742.43,1888.61,1498.35
6010,-3.8701,-1.2863,-0.8134,1039.31,1607.06,857.79
6020,-3.8700,-1.3220,-0.8586,-632.57,-96.31,201.48
6030,-3.8701,-1.2837,-0.8898,-1210.69,-1893.25,-220.46
6040,-3.8701,-1.1805,-0.8715,-304.44,-1877.56,201.35
6050,-3.8704,-1.0472,-0.8156,898.68,466.43,-1595.46
6060,-3.8706,-0.9252,-0.7523,1961.18,-377.08,-564.15
6070,-3.8707,-0.8385,-0.6915,1586.18,-283.08,326.60
6080,-3.8710,-0.7849,-0.6282,679.93,-501.65,1576.72
6090,-3.8712,-0.7416,-0.5696,-460.69,-392.21,-1063.78
6100,-3.8713,-0.7039,-0.5293,1086.18,-892.09,45.72
6110,-3.8716,-0.6885,-0.4954,1914.31,264.22,1327.09
6120,-3.8717,-0.6930,-0.4451,-116.94,607.97,264.65
6130,-3.8718,-0.6918,-0.3844,-695.07,-954.53,905.33
6140,-3.8719,-0.6652,-0.3386,-538.82,-1188.90,1264.83
6150,-3.8721,-0.6133,-0.3152,-1132.57,670.53,983.70
6160,-3.8722,-0.5508,-0.2944,1508.06,-329.35,-1641.30
6170,-3.8722,-0.4938,-0.2574,1508.06,-1672.97,-1891.24
6180,-3.8722,-0.4459,-0.2104,804.93,-938.48,1046.33
6190,-3.8723,-0.3977,-0.1698,-1070.07,1077.21,999.57
6200,-3.8726,-0.3264,-0.1478,1101.81,-1719.54,-875.37
6210,-3.8727,-0.2216,-0.1459,-1773.19,1093.08,1624.69
6220,-3.8728,-0.1034,-0.1482,-351.32,1343.26,1312.19
6230,-3.8729,0.0170,-0.1393,-1226.32,1046.63,1077.82
6240,-3.8730,0.1709,-0.1405,-1820.07,-1828.12,312.19
6250,-3.8732,0.4099,-0.1855,1883.06,-1984.07,187.19
6260,-3.8733,0.7390,-0.2347,476.81,250.79,-1078.49
6270,-3.8732,1.0615,-0.2371,-1398.19,1954.53,-1406.74
6280,-3.8729,1.2914,-0.2234,-116.94,1658.26,-1578.61
6290,-3.8727,1.4602,-0.2380,1304.93,-591.25,-0.49
6300,-3.8723,1.6172,-0.2919,-1085.69,1534.06,-531.74
6310,-3.8718,1.7583,-0.3628,-991.94,-1356.26,-125.61
6320,-3.8711,1.8246,-0.4192,1070.56,1565.92,-156.98
6330,-3.8701,1.7649,-0.4573,1554.93,-1652.71,-907.10
6340,-3.8690,1.6046,-0.4799,1914.31,1472.17,-1813.42
6350,-3.8680,1.4222,-0.4885,1398.68,-1418.76,-938.48
6360,-3.8673,1.2906,-0.4901,-1945.07,1471.50,-172.85
6370,-3.8668,1.2347,-0.4713,1211.18,1268.13,-282.23
6380,-3.8665,1.2229,-0.4193,-1945.07,-325.74,186.52
6390,-3.8666,1.2061,-0.3610,539.31,-1669.49,-1547.73
6400,-3.8671,1.1639,-0.3214,-1616.94,1799.19,-485.11
6410,-3.8678,1.0978,-0.2932,992.43,-1138.37,1405.58
6420,-3.8688,1.0142,-0.2639,523.68,-1529.11,-1172.49
6430,-3.8696,0.9138,-0.2356,1820.56,-1779.30,936.95
6440,-3.8705,0.8044,-0.2244,976.81,1845.52,1905.76
6450,-3.8712,0.6960,-0.2410,-1023.19,-717.22,-1000.49
6460,-3.8717,0.5907,-0.2852,1101.81,1157.59,358.89
6470,-3.8722,0.4867,-0.3435,-382.57,-498.90,1796.26
6480,-3.8726,0.3733,-0.3984,-1695.07,32.17,-1219.42
6490,-3.8728,0.2528,-0.4552,-210.69,1000.67,-1641.42
6500,-3.8730,0.1356,-0.5295,367.43,1734.86,-47.79
6510,-3.8730,0.0270,-0.6284,1367.43,218.99,92.71
6520,-3.8732,-0.0712,-0.7483,-538.82,-437.50,-1110.66
6530,-3.8732,-0.1635,-0.8719,-1101.32,234.19,-1.46
6540,-3.8730,-0.2620,-0.9751,-913.82,405.88,-392.33
6550,-3.8728,-0.3787,-1.0424,-1523.19,-797.42,1529.30
6560,-3.8726,-0.5161,-1.0756,-460.69,-1407.04,-1923.95
6570,-3.8722,-0.6692,-1.0807,1945.56,-1657.29,1794.74
6580,-3.8717,-0.8257,-1.0647,-1648.19,1686.16,310.36
6590,-3.8712,-0.9702,-1.0345,-1679.44,-267.27,1622.86
6600,-3.8706,-1.0865,-0.9926,-179.44,-408.20,1669.80
6610,-3.8700,-1.1531,-0.9674,929.93,966.61,-1439.45
6620,-3.8695,-1.1459,-0.9807,414.31,185.24,-220.64
6630,-3.8691,-1.0652,-1.0059,1336.18,-1517.88,373.05
6640,-3.8693,-0.9489,-1.0103,-335.69,-736.51,-1439.51
6650,-3.8695,-0.8403,-0.9742,-1445.07,-1298.77,76.11
6660,-3.8700,-0.7568,-0.9084,445.56,-689.15,1341.80
6670,-3.8705,-0.6956,-0.8407,-866.94,-267.15,-1626.83
6680,-3.8708,-0.6520,-0.7733,-1023.19,404.85,1154.60
6690,-3.8712,-0.6200,-0.7024,554.93,1029.97,-1329.65
6700,-3.8715,-0.5914,-0.6260,648.68,-1891.85,-876.40
6710,-3.8716,-0.5657,-0.5388,304.93,-110.53,1779.97
6720,-3.8717,-0.5498,-0.4509,-398.19,-954.28,-1891.72
6730,-3.8718,-0.5393,-0.3806,1633.06,-1704.22,-266.54
6740,-3.8718,-0.5231,-0.3291,-1023.19,-704.22,1671.08
6750,-3.8719,-0.5016,-0.2832,1054.93,1889.59,-610.05
6760,-3.8719,-0.4777,-0.2368,-195.07,-235.41,780.64
6770,-3.8721,-0.4473,-0.1937,-1132.57,1702.15,1593.26
6780,-3.8722,-0.4066,-0.1534,-1241.94,-782.17,1265.20
6790,-3.8724,-0.3595,-0.1150,-38.82,374.15,-328.43
6800,-3.8726,-0.3088,-0.0796,1992.43,1296.14,1531.01
6810,-3.8728,-0.2599,-0.0452,476.81,1827.51,-781.43
6820,-3.8729,-0.2162,-0.0131,-1257.57,-1766.17,562.38
6830,-3.8732,-0.1664,0.0067,336.18,-1656.68,-1796.94
6840,-3.8733,-0.0946,0.0173,-1288.82,874.63,1609.38
6850,-3.8734,0.0059,0.0360,-101.32,-1765.87,-1296.88
6860,-3.8734,0.1384,0.0641,758.06,609.38,359.44
6870,-3.8735,0.3088,0.0839,1726.81,203.37,-1453.00
6880,-3.8735,0.5228,0.0859,-460.69,-1265.08,-1406.13
6890,-3.8734,0.7920,0.0776,-1070.07,-999.02,-1656.13
6900,-3.8732,1.0990,0.0585,1383.06,1939.03,-1187.38
6910,-3.8727,1.3954,0.0408,679.93,-513.49,93.81
6920,-3.8722,1.6293,0.0386,-1382.57,1221.44,1046.94
6930,-3.8716,1.7744,0.0253,554.93,940.67,484.44
6940,-3.8710,1.8416,-0.0328,-866.94,-762.21,-1109.38
6950,-3.8701,1.8549,-0.1066,-273.19,-199.58,-1234.50
6960,-3.8691,1.8257,-0.1344,1429.93,-1637.02,-593.99
6970,-3.8682,1.7594,-0.1217,1695.56,-1199.58,-406.56
6980,-3.8673,1.6821,-0.1183,1211.18,425.29,-1875.24
6990,-3.8668,1.6185,-0.1442,-679.44,862.61,-1828.37
7000,-3.8667,1.5730,-0.1860,-820.07,1549.99,1343.44
7010,-3.8669,1.5217,-0.2126,1351.81,190.55,1218.38
7020,-3.8676,1.4348,-0.2057,-1210.69,784.18,-172.30
7030,-3.8683,1.3131,-0.1898,-335.69,1674.62,-969.18
7040,-3.8691,1.1770,-0.1876,86.18,-294.31,-1453.55
7050,-3.8700,1.0381,-0.1982,-1335.69,-13.37,-1828.55
7060,-3.8707,0.9008,-0.2181,883.06,-1372.99,421.45
7070,-3.8715,0.7686,-0.2451,-695.07,79.83,-1453.55
7080,-3.8719,0.6388,-0.2842,-1616.94,626.46,374.51
7090,-3.8724,0.5066,-0.3390,1773.68,-373.78,1655.64
7100,-3.8728,0.3768,-0.4092,851.81,610.35,-1844.42
7110,-3.8730,0.2511,-0.4895,242.43,-374.27,1577.27
7120,-3.8732,0.1157,-0.5662,148.68,1344.24,420.90
7130,-3.8733,-0.0386,-0.6354,-1179.44,-468.57,-1735.53
7140,-3.8733,-0.2037,-0.7031,-929.44,-1312.62,1701.84
7150,-3.8733,-0.3695,-0.7631,1929.93,-1984.80,-1657.65
7160,-3.8732,-0.5245,-0.8135,711.18,-1656.98,701.60
7170,-3.8730,-0.6630,-0.8617,867.43,-110.41,1185.85
7180,-3.8728,-0.7980,-0.8958,-851.32,1717.41,185.79
7190,-3.8726,-0.9370,-0.8975,1867.43,1357.79,-1517.40
7200,-3.8721,-1.0598,-0.8861,70.56,1138.79,107.60
7210,-3.8717,-1.1296,-0.8894,351.81,-1408.33,-314.27
7220,-3.8712,-1.1172,-0.9106,-585.69,-1830.38,-720.52
7230,-3.8707,-1.0277,-0.9572,1008.06,-549.07,1685.67
7240,-3.8704,-0.9116,-1.0145,461.18,1497.99,-1611.27
7250,-3.8700,-0.8334,-1.0414,-679.44,-1845.58,1404.24
7260,-3.8698,-0.8274,-1.0208,1336.18,-1282.90,1919.80
7270,-3.8696,-0.8696,-0.9716,-1898.19,1357.73,1701.11
7280,-3.8698,-0.9095,-0.9216,695.56,-345.46,-1251.95
7290,-3.8700,-0.9164,-0.8738,-413.82,-1954.96,-1986.21
7300,-3.8704,-0.8942,-0.8207,-1288.82,170.04,-1157.96
7310,-3.8707,-0.8571,-0.7640,1554.93,-1033.02,-548.52
7320,-3.8710,-0.8110,-0.6976,-1695.07,-1782.96,185.97
7330,-3.8713,-0.7671,-0.6145,195.56,-1282.84,1561.10
7340,-3.8716,-0.7312,-0.5277,1820.56,1357.85,311.28
7350,-3.8718,-0.6963,-0.4550,-1585.69,467.29,45.84
7360,-3.8722,-0.6567,-0.3983,-1116.94,1779.85,-547.79
7370,-3.8724,-0.6166,-0.3502,-54.44,1029.91,-1360.17
7380,-3.8727,-0.5773,-0.3052,1086.18,-813.72,-860.11
7390,-3.8728,-0.5375,-0.2629,-1882.57,951.97,1186.89
7400,-3.8730,-0.4918,-0.2253,-788.82,-1641.72,-109.92
7410,-3.8732,-0.4340,-0.1957,1054.93,-829.10,-1312.99
7420,-3.8733,-0.3512,-0.1765,461.18,-1032.10,1765.20
7430,-3.8734,-0.2312,-0.1702,-945.07,1421.14,1312.13
7440,-3.8735,-0.0730,-0.1738,-1585.69,-1766.11,1359.01
7450,-3.8737,0.1313,-0.1793,-1335.69,1765.44,1905.88
7460,-3.8738,0.3920,-0.1798,820.56,1047.12,-219.12
7470,-3.8737,0.7178,-0.1776,-1820.07,985.11,296.51
7480,-3.8737,1.0867,-0.1711,-116.94,1266.97,-625.37
7490,-3.8734,1.4340,-0.1345,-898.19,-1904.17,921.51
7500,-3.8732,1.6873,-0.0657,-445.07,-1216.00,1734.07
7510,-3.8728,1.8274,0.0016,-23.19,-403.02,-1984.56
7520,-3.8723,1.9049,0.0513,1914.31,206.67,1171.88
7530,-3.8718,1.9564,0.0897,-163.82,-1433.84,-1124.94
7540,-3.8711,1.9912,0.1177,-1570.07,-511.84,172.00
7550,-3.8704,2.0070,0.1333,-1116.94,-933.65,1484.56
7560,-3.8696,1.9922,0.1396,898.68,1066.41,-531.01
7570,-3.8689,1.9569,0.1270,-991.94,1878.85,1500.24
7580,-3.8684,1.9254,0.0813,-1507.57,253.78,-1843.51
7590,-3.8680,1.8904,0.0192,-1538.82,-1590.03,-1218.63
7600,-3.8678,1.8177,-0.0325,1976.81,-1543.21,-1062.50
7610,-3.8678,1.7084,-0.0740,679.93,-152.71,-734.50
7620,-3.8680,1.5901,-0.1111,-1320.07,-1465.45,1156.07
7630,-3.8687,1.4683,-0.1407,-460.69,1784.30,-1875.24
7640,-3.8694,1.3301,-0.1611,-54.44,1987.18,-1328.43
7650,-3.8701,1.1716,-0.1711,-1741.94,-622.44,-1422.24
7660,-3.8708,1.0089,-0.1812,1976.81,-1903.99,-390.99
7670,-3.8715,0.8643,-0.2070,1148.68,814.45,-937.87
7680,-3.8719,0.7416,-0.2457,-1366.94,1501.65,1890.20
7690,-3.8724,0.6274,-0.2854,-1070.07,548.28,-328.61
7700,-3.8728,0.5094,-0.3191,320.56,-530.03,-203.74
7710,-3.8730,0.3833,-0.3451,1211.18,-842.77,1952.45
7720,-3.8733,0.2487,-0.3596,1070.56,-171.14,-1860.11
7730,-3.8734,0.1177,-0.3696,-163.82,1969.18,593.02
7740,-3.8735,0.0006,-0.3883,-929.44,687.68,1358.64
7750,-3.8735,-0.1104,-0.4082,86.18,-1703.12,327.33
7760,-3.8735,-0.2135,-0.4253,1883.06,-234.62,686.65
7770,-3.8735,-0.2959,-0.4601,679.93,1577.70,1327.27
7780,-3.8735,-0.3529,-0.5270,-1866.94,1124.39,1858.46
7790,-3.8735,-0.3888,-0.6217,-1163.82,561.77,-985.41
7800,-3.8734,-0.4253,-0.7303,-1757.57,436.71,-1923.10
7810,-3.8732,-0.4866,-0.8333,1570.56,-1469.60,654.79
7820,-3.8728,-0.5728,-0.9215,1726.81,1358.40,513.98
7830,-3.8723,-0.6680,-1.0079,-1304.44,-1938.66,529.42
7840,-3.8718,-0.7620,-1.0952,-1491.94,-1001.34,-830.14
7850,-3.8711,-0.8528,-1.1565,-1523.19,-173.40,1044.68
7860,-3.8704,-0.9391,-1.1766,-1148.19,-17.33,1403.93
7870,-3.8696,-1.0101,-1.1699,-195.07,1404.36,1122.68
7880,-3.8691,-1.0470,-1.1617,-1288.82,-1736.39,-346.07
7890,-3.8688,-1.0500,-1.1558,1992.43,-689.58,-314.82
7900,-3.8685,-1.0374,-1.1191,1601.81,76.05,-1924.13
7910,-3.8685,-1.0260,-1.0432,-773.19,763.55,560.30
7920,-3.8689,-1.0145,-0.9564,679.93,-1517.64,1263.55
7930,-3.8695,-0.9911,-0.8793,-1851.32,1591.74,-1658.14
7940,-3.8701,-0.9546,-0.8146,1148.68,-533.20,357.60
7950,-3.8708,-0.9100,-0.7469,1820.56,-251.89,-548.52
7960,-3.8713,-0.8630,-0.6801,-476.32,404.42,1420.41
7970,-3.8718,-0.8110,-0.6272,1539.31,967.04,-626.34
7980,-3.8721,-0.7563,-0.5801,195.56,-267.21,1951.84
7990,-3.8722,-0.7134,-0.5300,-804.44,1764.10,358.22
8000,-3.8723,-0.6859,-0.4814,695.56,170.47,842.71
8010,-3.8724,-0.6632,-0.4366,211.18,-1610.72,1827.15
8020,-3.8726,-0.6318,-0.3917,-882.57,123.66,-1188.35
8030,-3.8727,-0.5839,-0.3474,-866.94,1873.72,-953.92
8040,-3.8728,-0.5117,-0.3086,1273.68,-454.28,-1547.61
8050,-3.8729,-0.4110,-0.2792,-1491.94,514.59,-1953.74
8060,-3.8730,-0.2882,-0.2626,-601.32,280.40,-1531.80
8070,-3.8730,-0.1500,-0.2640,-882.57,-1594.36,108.83
8080,-3.8732,0.0050,-0.2819,804.93,-1781.56,-1156.80
8090,-3.8732,0.1798,-0.3032,648.68,-78.12,1468.14
8100,-3.8733,0.3866,-0.3309,-976.32,1187.81,-688.11
8110,-3.8733,0.6322,-0.3829,1492.43,1641.36,1796.20
8120,-3.8733,0.9342,-0.4441,929.93,-1014.40,-375.79
8130,-3.8729,1.2866,-0.4684,-413.82,-841.98,45.96
8140,-3.8724,1.6088,-0.4276,695.56,49.38,1233.46
8150,-3.8717,1.8186,-0.3623,1929.93,1268.74,592.90
8160,-3.8710,1.8923,-0.3303,789.31,1628.54,1061.77
8170,-3.8702,1.8632,-0.3302,-1773.19,1722.41,671.20
8180,-3.8695,1.7825,-0.3403,-1507.57,1737.98,1561.83
8190,-3.8687,1.6814,-0.3455,164.31,440.98,1811.83
8200,-3.8678,1.5713,-0.3340,-773.19,-215.52,-969.48
8210,-3.8671,1.4891,-0.3075,1133.06,1253.05,-985.05
8220,-3.8666,1.4606,-0.2693,-1382.57,643.49,936.89
8230,-3.8666,1.4509,-0.2256,-1038.82,1534.06,-609.92
8240,-3.8668,1.4336,-0.1925,1726.81,-872.19,1921.39
8250,-3.8674,1.4020,-0.1768,-491.94,-637.88,-1375.43
8260,-3.8682,1.3326,-0.1836,-538.82,1377.69,1890.26
8270,-3.8690,1.2091,-0.2072,-1413.82,502.56,-609.74
8280,-3.8698,1.0503,-0.2439,-1226.32,1486.69,327.70
8290,-3.8706,0.8899,-0.3143,-1554.44,783.26,1983.89
8300,-3.8713,0.7456,-0.4268,1914.31,-232.67,-1094.42
8310,-3.8718,0.6141,-0.5640,-554.44,1376.40,264.77
8320,-3.8723,0.4757,-0.7029,-1382.57,-186.34,-1657.41
8330,-3.8726,0.3062,-0.8102,898.68,-1967.83,1498.60
8340,-3.8727,0.1105,-0.8754,-804.44,297.42,654.66
8350,-3.8728,-0.0709,-0.9409,-1851.32,-46.69,-1845.52
8360,-3.8728,-0.2179,-1.0183,-1070.07,-422.06,-1923.77
8370,-3.8727,-0.3519,-1.0670,117.43,1671.45,1622.99
8380,-3.8724,-0.4867,-1.0616,-1038.82,-563.23,575.99
8390,-3.8722,-0.6165,-1.0127,1711.18,124.02,-1580.20
8400,-3.8718,-0.7432,-0.9493,1101.81,-1610.60,-517.64
8410,-3.8713,-0.8538,-0.9113,883.06,-1501.46,-861.27
8420,-3.8707,-0.9185,-0.9175,-1273.19,-626.71,1060.67
8430,-3.8701,-0.9436,-0.9398,-1554.44,-1423.71,1435.67
8440,-3.8695,-0.9543,-0.9480,-773.19,-283.14,1357.48
8450,-3.8691,-0.9497,-0.9495,1851.81,-1330.02,-720.64
8460,-3.8689,-0.9279,-0.9570,-1554.44,-1517.52,326.23
8470,-3.8690,-0.9017,-0.9510,1242.43,1513.79,-1751.89
8480,-3.8693,-0.8900,-0.9153,586.18,-1720.52,-126.89
8490,-3.8695,-0.9001,-0.8529,-1913.82,-1142.40,-1064.33
8500,-3.8698,-0.9209,-0.7723,789.31,-1158.02,76.42
8510,-3.8702,-0.9313,-0.6887,-1866.94,1154.42,-564.03
8520,-3.8706,-0.9170,-0.6136,804.93,-142.46,1357.97
8530,-3.8711,-0.8835,-0.5508,-1366.94,1466.92,-876.22
8540,-3.8715,-0.8408,-0.5039,-1085.69,1513.85,-1313.60
8550,-3.8717,-0.7996,-0.4753,383.06,-486.02,1561.46
8560,-3.8719,-0.7683,-0.4596,1664.31,-829.71,-485.35
8570,-3.8721,-0.7480,-0.4464,1664.31,1185.97,-1157.17
8580,-3.8722,-0.7302,-0.4349,258.06,-1126.46,-1282.17
8590,-3.8723,-0.7040,-0.4280,-1460.69,342.29,-907.10
8600,-3.8724,-0.6648,-0.4205,1898.68,1232.97,-157.10
8610,-3.8724,-0.6125,-0.4115,-1085.69,-1813.84,202.27
8620,-3.8727,-0.5438,-0.4053,1601.81,-657.47,-282.10
8630,-3.8728,-0.4487,-0.4093,-1601.32,139.53,-1282.04
8640,-3.8729,-0.3215,-0.4191,-1429.44,-375.92,1436.65
8650,-3.8732,-0.1656,-0.4160,-1148.19,-1625.67,-360.23
8660,-3.8733,0.0089,-0.3995,-1195.07,-1234.74,1077.27
8670,-3.8735,0.1991,-0.3915,1148.68,859.38,1874.21
8680,-3.8738,0.4116,-0.4055,1492.43,1890.99,-1157.04
8690,-3.8739,0.6646,-0.4242,695.56,94.54,1702.33
8700,-3.8740,0.9558,-0.4358,1070.56,1704.41,-391.48
8710,-3.8739,1.2469,-0.4517,-1648.19,220.58,1561.65
8720,-3.8737,1.4861,-0.4799,-382.57,-1810.12,1920.96
8730,-3.8732,1.6296,-0.5262,-1773.19,-1419.01,-375.98
8740,-3.8723,1.7036,-0.5833,601.81,643.80,1670.84
8750,-3.8715,1.7812,-0.6338,-1929.44,1347.05,-485.53
8760,-3.8705,1.8641,-0.6573,8.06,-1121.52,-1516.91
8770,-3.8695,1.9105,-0.6481,-1382.57,-137.02,1795.53
8780,-3.8687,1.9138,-0.6133,554.93,1050.60,-1501.28
8790,-3.8679,1.8838,-0.5662,976.81,1503.72,451.90
8800,-3.8676,1.8363,-0.5361,1133.06,-465.09,-1673.03
8810,-3.8673,1.7791,-0.5306,-945.07,-621.46,1858.28
8820,-3.8672,1.7001,-0.5367,-273.19,81.54,1358.34
8830,-3.8672,1.5906,-0.5503,1617.43,-699.83,1952.03
8840,-3.8672,1.4541,-0.5562,-398.19,1565.55,561.40
8850,-3.8673,1.2943,-0.5323,-1866.94,815.31,45.78
8860,-3.8677,1.1381,-0.4889,1679.93,-138.12,467.65
8870,-3.8683,1.0216,-0.4552,1679.93,1424.07,389.65
8880,-3.8691,0.9473,-0.4458,-1226.32,1736.33,-1094.67
8890,-3.8699,0.8932,-0.4602,1258.06,-1060.67,108.46
8900,-3.8707,0.8424,-0.4928,-1663.82,1095.46,-797.79
8910,-3.8713,0.7927,-0.5417,-163.82,923.46,1858.40
8920,-3.8718,0.7415,-0.6082,1476.81,-1342.22,311.40
8930,-3.8723,0.6782,-0.6903,-1085.69,-1842.35,-1469.97
8940,-3.8726,0.5862,-0.7815,-1179.44,-358.09,904.85
8950,-3.8728,0.4489,-0.8671,-960.69,-30.15,-954.71
8960,-3.8729,0.2803,-0.9373,1461.18,1016.48,-95.46
8970,-3.8729,0.1112,-0.9879,-116.94,31.74,-1048.71
8980,-3.8728,-0.0409,-1.0198,-1757.57,1547.06,326.17
8990,-3.8728,-0.1691,-1.0336,-1226.32,1484.25,-48.89
9000,-3.8726,-0.2772,-1.0259,-1632.57,-281.62,1638.55
9010,-3.8723,-0.3756,-1.0059,523.68,702.58,1310.49
9020,-3.8721,-0.4807,-0.9728,-70.07,-735.17,-1470.76
9030,-3.8717,-0.6040,-0.9192,-1523.19,-500.98,841.80
9040,-3.8715,-0.7322,-0.8561,-1304.44,-1641.85,-1220.58
9050,-3.8711,-0.8407,-0.8030,-1710.69,-1563.96,45.17
9060,-3.8708,-0.9155,-0.7781,398.68,1232.73,1139.04
9070,-3.8706,-0.9476,-0.7911,-1179.44,420.04,-1845.28
9080,-3.8704,-0.9336,-0.8258,-1288.82,-1251.89,-1704.71
9090,-3.8702,-0.8884,-0.8452,508.06,-1689.33,-892.27
9100,-3.8702,-0.8289,-0.8241,-1710.69,-173.65,-517.33
9110,-3.8702,-0.7670,-0.7701,1914.31,-1470.40,513.98
9120,-3.8705,-0.7239,-0.7058,1836.18,1435.97,-17.15
9130,-3.8706,-0.7058,-0.6483,-648.19,1670.41,-1001.40
9140,-3.8707,-0.7040,-0.6031,1664.31,1029.85,-1673.16
9150,-3.8708,-0.7151,-0.5630,1898.68,-1188.90,-1532.47
9160,-3.8710,-0.7367,-0.5253,476.81,-48.28,-1313.66
9170,-3.8711,-0.7595,-0.4991,1711.18,779.79,1764.59
9180,-3.8713,-0.7721,-0.4862,-1210.69,123.47,-469.73
9190,-3.8715,-0.7667,-0.4741,1179.93,1779.72,920.90
9200,-3.8717,-0.7460,-0.4567,1867.43,-673.40,-1000.98
9210,-3.8718,-0.7183,-0.4365,523.68,1561.04,-1360.29
9220,-3.8718,-0.6877,-0.4099,70.56,139.22,249.15
9230,-3.8719,-0.6543,-0.3754,-23.19,-454.53,-1235.23
9240,-3.8719,-0.6125,-0.3462,258.06,-32.53,280.46
9250,-3.8721,-0.5569,-0.3326,1601.81,-298.10,93.02
9260,-3.8723,-0.4860,-0.3268,726.81,1436.40,-1219.42
9270,-3.8724,-0.4031,-0.3175,1804.93,-1813.48,1327.45
9280,-3.8726,-0.3088,-0.3107,414.31,-625.79,311.83
9290,-3.8728,-0.2001,-0.3196,476.81,249.39,-547.49
9300,-3.8729,-0.0861,-0.3441,-1601.32,-891.05,-1344.42
9310,-3.8730,0.0179,-0.3849,992.43,-31.43,-1266.36
9320,-3.8730,0.1226,-0.4545,-1695.07,-1265.62,1171.08
9330,-3.8730,0.2656,-0.5504,-304.44,1828.31,-500.92
9340,-3.8728,0.4653,-0.6534,-1991.94,1547.36,-1438.60
9350,-3.8724,0.7092,-0.7236,-429.44,360.23,-141.91
9360,-3.8718,0.9689,-0.7113,-1210.69,-623.66,-1126.46
9370,-3.8712,1.2191,-0.6112,23.68,955.02,-548.28
9380,-3.8707,1.4504,-0.4900,54.93,1768.01,-423.10
9390,-3.8705,1.6422,-0.4053,1664.31,1284.06,-704.10
9400,-3.8704,1.7491,-0.3434,-1788.82,128.17,1452.33
9410,-3.8704,1.7606,-0.3036,-101.32,50.23,-203.80
9420,-3.8701,1.7238,-0.3140,1367.43,1144.04,1827.51
9430,-3.8698,1.6785,-0.3578,648.68,-184.14,108.70
9440,-3.8694,1.6378,-0.3887,-1148.19,-1793.64,1186.77
9450,-3.8690,1.6034,-0.3929,1648.68,-1746.83,-1828.92
9460,-3.8687,1.5710,-0.3767,1242.43,1706.24,249.21
9470,-3.8685,1.5234,-0.3453,1101.81,-215.70,-1719.54
9480,-3.8685,1.4452,-0.3151,-991.94,-200.20,-235.11
9490,-3.8685,1.3431,-0.2999,992.43,-325.32,764.95
9500,-3.8688,1.2267,-0.2936,-70.07,1611.94,-969.36
9510,-3.8689,1.1031,-0.2817,1023.68,-1575.74,15.01
9520,-3.8693,0.9897,-0.2667,1211.18,-60.36,-1156.86
9530,-3.8696,0.8939,-0.2498,-1304.44,1861.27,-1500.55
9540,-3.8701,0.8146,-0.2318,-1570.07,32.96,-750.49
9550,-3.8706,0.7588,-0.2239,273.68,-1670.29,1890.14
9560,-3.8711,0.7294,-0.2308,1133.06,-654.79,640.14
9570,-3.8716,0.7039,-0.2523,1367.43,-1545.47,1765.14
9580,-3.8719,0.6543,-0.2974,-1898.19,-295.53,1702.58
9590,-3.8722,0.5789,-0.3784,-241.94,1938.72,30.64
9600,-3.8724,0.4766,-0.4856,-1898.19,-436.40,1202.33
9610,-3.8726,0.3397,-0.5952,1008.06,1844.67,1702.15
9620,-3.8726,0.1760,-0.6969,-507.57,-186.89,45.65
9630,-3.8727,-0.0074,-0.7955,-1460.69,-1202.82,-1126.40
9640,-3.8727,-0.2061,-0.8829,-945.07,-1812.56,1857.79
9650,-3.8727,-0.4199,-0.9343,1633.06,-1000.43,1341.98
9660,-3.8727,-0.6550,-0.9441,-1741.94,421.02,1654.42
9670,-3.8727,-0.8993,-0.9210,164.31,-829.41,-1486.27
9680,-3.8726,-1.1251,-0.8854,898.68,-1876.77,326.29
9690,-3.8724,-1.3035,-0.8678,-7.57,-1314.76,1045.10
9700,-3.8722,-1.3990,-0.8794,1164.31,934.94,-1282.96
9710,-3.8717,-1.3916,-0.9178,929.93,-549.62,763.85
9720,-3.8712,-1.2931,-0.9720,1883.06,-1471.50,1685.67
9730,-3.8706,-1.1610,-1.0073,-1507.57,-408.81,576.17
9740,-3.8701,-1.0626,-0.9952,-601.32,-924.19,-1314.51
9750,-3.8696,-1.0220,-0.9460,-7.57,622.86,60.55
9760,-3.8695,-1.0258,-0.8821,1195.56,-1080.14,-1767.52
9770,-3.8695,-1.0392,-0.8071,711.18,-892.64,1716.98
9780,-3.8698,-1.0364,-0.7266,-1007.57,701.05,-48.46
9790,-3.8700,-1.0072,-0.6549,-648.19,-986.45,-1923.34
9800,-3.8704,-0.9443,-0.5962,-913.82,185.49,-1673.16
9810,-3.8707,-0.8486,-0.5399,-866.94,-298.77,-891.85
9820,-3.8710,-0.7373,-0.4739,-616.94,-1095.46,545.78
9830,-3.8713,-0.6249,-0.4095,1633.06,-642.09,-1813.48
9840,-3.8716,-0.5216,-0.3650,23.68,-407.47,639.77
9850,-3.8718,-0.4449,-0.3369,1242.43,1295.84,421.14
9860,-3.8721,-0.4071,-0.3099,-945.07,889.71,-1860.05
9870,-3.8722,-0.4016,-0.2815,-101.32,342.90,-1594.36
9880,-3.8722,-0.4100,-0.2626,601.81,-16.42,343.14
9890,-3.8723,-0.4103,-0.2560,-476.32,-1594.60,-1219.30
9900,-3.8723,-0.3751,-0.2572,-507.57,-750.85,1358.83
9910,-3.8724,-0.2938,-0.2510,-7.57,-907.04,-250.55
9920,-3.8724,-0.1844,-0.2291,-1601.32,-109.99,1796.33
9930,-3.8726,-0.0701,-0.2076,398.68,-1312.87,-562.99
9940,-3.8726,0.0458,-0.1896,-960.69,1437.32,530.82
9950,-3.8727,0.1672,-0.1769,1867.43,-265.56,1812.07
9960,-3.8727,0.3059,-0.1786,1414.31,1359.68,1046.51
9970,-3.8727,0.4590,-0.1813,-835.69,1141.17,-765.99
9980,-3.8726,0.6139,-0.1797,-1241.94,797.73,-78.49
9990,-3.8723,0.7645,-0.1881,-1413.82,1001.16,-1281.62
10000,-3.8721,0.9098,-0.1995,1867.43,-76.66,-391.05
10010,-3.8717,1.0618,-0.2006,461.18,-1529.48,1749.57
10020,-3.8713,1.2360,-0.2023,-85.69,-1669.86,546.45
10030,-3.8710,1.4154,-0.2170,-1788.82,-1888.24,702.70
10040,-3.8706,1.5563,-0.2395,1179.93,221.50,-750.43
10050,-3.8701,1.6335,-0.2560,-788.82,1346.74,-0.49
10060,-3.8695,1.6432,-0.2612,1101.81,-762.45,1733.83
10070,-3.8690,1.6049,-0.2537,-1663.82,-1434.33,-1500.55
10080,-3.8687,1.5428,-0.2341,1429.93,-465.64,-313.05
10090,-3.8684,1.4714,-0.2083,1492.43,-1965.76,-562.99
10100,-3.8683,1.3937,-0.1780,351.81,1346.62,827.70
10110,-3.8684,1.3148,-0.1503,-1601.32,1221.44,249.63
10120,-3.8688,1.2476,-0.1399,304.93,768.19,-328.43
10130,-3.8690,1.1881,-0.1465,-304.44,-1903.87,812.19
10140,-3.8694,1.1172,-0.1454,86.18,1252.32,77.82
10150,-3.8699,1.0269,-0.1324,-991.94,1392.76,1405.94
10160,-3.8704,0.9246,-0.1265,-554.44,-951.17,1249.69
10170,-3.8708,0.8214,-0.1289,-1648.19,-185.73,702.82
10180,-3.8713,0.7281,-0.1362,1148.68,-498.41,671.57
10190,-3.8718,0.6437,-0.1559,1211.18,-1436.10,-1547.18
10200,-3.8722,0.5543,-0.1930,-1601.32,48.10,-453.43
10210,-3.8724,0.4407,-0.2428,-1038.82,-702.09,-94.18
10220,-3.8726,0.2999,-0.3047,414.31,922.73,1468.26
10230,-3.8728,0.1466,-0.3806,-1601.32,1000.55,-1344.36
10240,-3.8729,-0.0051,-0.4648,-1226.32,-718.51,14.83
10250,-3.8732,-0.1439,-0.5522,-648.19,515.56,-1250.92
10260,-3.8733,-0.2686,-0.6403,1586.18,1327.82,-141.72
10270,-3.8733,-0.3849,-0.7220,1633.06,-1938.05,-204.41
10280,-3.8732,-0.4965,-0.7902,-1257.57,-407.04,-1563.96
10290,-3.8729,-0.6018,-0.8358,461.18,-1125.98,139.04
10300,-3.8727,-0.6958,-0.8594,-1023.19,1030.03,1904.60
10310,-3.8723,-0.7775,-0.8728,-1054.44,-1985.78,-17.33
10320,-3.8717,-0.8510,-0.8804,492.43,295.35,1107.67
10330,-3.8711,-0.9081,-0.8862,-913.82,-673.58,60.73
10340,-3.8705,-0.9248,-0.9067,-226.32,-1423.71,388.85
10350,-3.8699,-0.8939,-0.9535,1633.06,-48.71,1498.17
10360,-3.8693,-0.8453,-1.0081,1586.18,1966.98,1998.11
10370,-3.8688,-0.8198,-1.0348,-195.07,-1017.33,-1314.51
10380,-3.8685,-0.8256,-1.0286,-929.44,-439.15,-642.70
10390,-3.8685,-0.8422,-1.0032,-1663.82,357.73,-1486.39
10400,-3.8688,-0.8503,-0.9526,211.18,-392.27,-1486.39
10410,-3.8691,-0.8438,-0.8773,-835.69,-1923.58,-1392.52
10420,-3.8695,-0.8159,-0.7986,8.06,-282.90,576.35
10430,-3.8700,-0.7643,-0.7318,-429.44,1795.23,1342.16
10440,-3.8705,-0.7043,-0.6703,-1820.07,-1657.78,-1438.96
10450,-3.8708,-0.6510,-0.6010,1851.81,-1782.65,1873.66
10460,-3.8712,-0.6013,-0.5339,679.93,-907.53,-344.97
10470,-3.8715,-0.5463,-0.4818,-960.69,-329.35,-266.72
10480,-3.8716,-0.4917,-0.4333,-1913.82,-1657.35,1374.02
10490,-3.8718,-0.4464,-0.3845,1070.56,545.90,-750.85
10500,-3.8719,-0.4103,-0.3495,-1132.57,-1204.04,530.46
10510,-3.8722,-0.3784,-0.3271,-507.57,-719.60,1874.27
10520,-3.8723,-0.3396,-0.3018,-429.44,-1860.17,530.58
10530,-3.8724,-0.2887,-0.2734,539.31,1389.95,624.39
10540,-3.8726,-0.2196,-0.2559,-945.07,1015.01,1374.45
10550,-3.8727,-0.1348,-0.2389,-101.32,-734.86,-1344.30
10560,-3.8727,-0.0460,-0.2139,-1241.94,1437.19,546.39
10570,-3.8728,0.0547,-0.2007,-1882.57,640.50,-1625.43
10580,-3.8729,0.1797,-0.2181,-991.94,-1687.44,-62.93
10590,-3.8729,0.3402,-0.2640,-991.94,78.43,-1750.43
10600,-3.8729,0.5513,-0.3265,-445.07,-1796.26,-875.55
10610,-3.8727,0.8323,-0.3785,-1429.44,-1795.84,343.08
10620,-3.8724,1.1542,-0.3846,-1460.69,-451.54,-16.42
10630,-3.8718,1.4265,-0.3475,-257.57,-1232.18,-1110.17
10640,-3.8711,1.6034,-0.3192,-1398.19,-481.63,1311.77
10650,-3.8705,1.7065,-0.3466,1242.43,-856.26,1733.70
10660,-3.8700,1.7698,-0.3929,-1554.44,-356.08,-610.11
10670,-3.8694,1.7963,-0.3953,-1460.69,1706.54,1202.33
10680,-3.8689,1.7792,-0.3481,1929.93,1409.73,-985.17
10690,-3.8684,1.7365,-0.2830,-257.57,-559.08,921.14
10700,-3.8683,1.6984,-0.2141,-1726.32,-215.39,-328.74
10710,-3.8683,1.6715,-0.1464,1398.68,597.05,-1297.30
10720,-3.8685,1.6359,-0.0972,1961.18,1268.86,-578.43
10730,-3.8688,1.5781,-0.0699,1398.68,-434.33,265.38
10740,-3.8693,1.4991,-0.0598,-1991.94,-950.07,-453.31
10750,-3.8696,1.4028,-0.0713,-101.32,346.62,-859.50
10760,-3.8700,1.2894,-0.0927,-429.44,-1122.31,-406.43
10770,-3.8704,1.1641,-0.1028,1054.93,143.13,-375.18
10780,-3.8707,1.0377,-0.1078,1008.06,-1153.99,-1843.99
10790,-3.8712,0.9216,-0.1208,836.18,-1794.86,-250.24
10800,-3.8716,0.8170,-0.1313,1976.81,533.02,1374.76
10810,-3.8721,0.7120,-0.1371,586.18,-810.91,-234.68
10820,-3.8724,0.6049,-0.1667,-851.32,-1545.53,-531.56
10830,-3.8727,0.4938,-0.2263,1429.93,-1342.59,780.88
10840,-3.8730,0.3650,-0.3074,-788.82,-967.83,-578.61
10850,-3.8733,0.2218,-0.4219,-1273.19,656.92,-750.61
10860,-3.8734,0.0665,-0.5677,398.68,-1999.57,936.65
10870,-3.8735,-0.1099,-0.7186,523.68,-671.75,1108.22
10880,-3.8735,-0.2919,-0.8689,1945.56,31.01,607.97
10890,-3.8734,-0.4606,-1.0187,-1351.32,796.26,529.54
10900,-3.8732,-0.6177,-1.1449,1054.93,1624.08,1201.11
10910,-3.8728,-0.7717,-1.2186,945.56,1467.53,-1939.76
10920,-3.8723,-0.9301,-1.2231,1226.81,29.72,1794.49
10930,-3.8717,-1.0731,-1.1869,961.18,-548.71,138.18
10940,-3.8711,-1.1537,-1.1610,-1351.32,91.61,-1127.32
10950,-3.8702,-1.1429,-1.1586,336.18,-596.01,-596.07
10960,-3.8693,-1.0681,-1.1687,1711.18,-283.51,-1517.94
10970,-3.8684,-0.9944,-1.1910,-710.69,-1580.26,997.68
10980,-3.8679,-0.9762,-1.2064,726.81,-439.45,856.99
10990,-3.8678,-1.0193,-1.1882,-945.07,1591.80,13.24
11000,-3.8680,-1.0846,-1.1302,1539.31,-80.14,825.74
11010,-3.8685,-1.1346,-1.0356,1179.93,-658.39,-471.01
11020,-3.8690,-1.1527,-0.9210,-1226.32,-549.13,-1595.83
11030,-3.8696,-1.1344,-0.8163,461.18,-1877.26,1591.92
11040,-3.8704,-1.0864,-0.7301,-1195.07,-471.01,-1939.15
11050,-3.8711,-1.0206,-0.6479,945.56,-1439.64,1982.91
11060,-3.8717,-0.9391,-0.5735,1367.43,1076.11,873.72
11070,-3.8722,-0.8427,-0.5170,-195.07,-1392.52,1764.47
11080,-3.8724,-0.7427,-0.4797,148.68,1842.10,967.71
11090,-3.8726,-0.6534,-0.4669,945.56,-1392.09,264.65
11100,-3.8727,-0.5840,-0.4788,367.43,248.72,1358.46
11110,-3.8728,-0.5399,-0.4979,1258.06,-1266.78,-407.23
11120,-3.8728,-0.5195,-0.5040,-1101.32,280.15,-1516.60
11130,-3.8728,-0.5073,-0.4961,1508.06,-501.04,1045.84
11140,-3.8729,-0.4835,-0.4880,-929.44,514.59,-1360.35
11150,-3.8730,-0.4333,-0.4841,-1882.57,1545.90,-422.85
11160,-3.8730,-0.3457,-0.4861,539.31,-1953.98,77.15
11170,-3.8733,-0.2076,-0.5005,-241.94,1796.14,-172.85
11180,-3.8734,-0.0037,-0.5269,1429.93,-47.30,-1329.16
11190,-3.8735,0.2864,-0.5653,-460.69,578.06,858.34
11200,-3.8738,0.6909,-0.6233,664.31,-358.83,-579.28
11210,-3.8738,1.2294,-0.6520,445.56,220.09,1498.78
11220,-3.8737,1.8035,-0.5746,1367.43,549.26,-1157.53
11230,-3.8732,2.2327,-0.4031,-1148.19,-1543.40,123.84
11240,-3.8727,2.4319,-0.2325,1789.31,410.58,-625.79
11250,-3.8719,2.4395,-0.1538,-710.69,-1760.93,-1828.61
11260,-3.8712,2.3643,-0.1664,258.06,317.26,-1469.06
11270,-3.8704,2.3236,-0.1998,-1366.94,-1292.30,655.88
11280,-3.8695,2.3633,-0.1982,1429.93,-1573.61,-1141.05
11290,-3.8685,2.4385,-0.1509,-1491.94,-1370.42,-1047.30
11300,-3.8677,2.4818,-0.0938,133.06,692.26,1030.94
11310,-3.8673,2.4541,-0.0580,1679.93,4.82,-1078.31
11320,-3.8673,2.3488,-0.0431,-1866.94,582.89,-437.62
11330,-3.8676,2.1763,-0.0468,648.68,-1511.05,1499.88
11340,-3.8680,1.9619,-0.0548,-1429.44,-1980.16,31.13
11350,-3.8688,1.7371,-0.0531,-866.94,988.16,1046.75
11360,-3.8696,1.5291,-0.0500,-1648.19,1206.48,-1000.12
11370,-3.8704,1.3524,-0.0620,-273.19,1596.68,1234.25
11380,-3.8711,1.1982,-0.0940,1117.43,65.12,-1828.25
11390,-3.8717,1.0458,-0.1377,1383.06,-28.93,-703.37
11400,-3.8721,0.8870,-0.1860,1867.43,-1622.99,1249.69
11410,-3.8724,0.7285,-0.2346,1539.31,189.21,-625.37
11420,-3.8726,0.5813,-0.2812,1258.06,1970.15,499.51
11430,-3.8727,0.4690,-0.3424,-1585.69,1.10,561.95
11440,-3.8727,0.3914,-0.4364,39.31,172.79,374.33
11450,-3.8727,0.3073,-0.5536,-1898.19,141.36,-110.23
11460,-3.8724,0.1875,-0.6731,-663.82,1141.17,983.28
11470,-3.8724,0.0295,-0.7839,8.06,1844.12,-126.34
11480,-3.8724,-0.1498,-0.8892,-210.69,-343.75,-1220.34
11490,-3.8726,-0.3379,-0.9720,836.18,-1797.18,-861.15
11500,-3.8726,-0.5372,-0.9954,758.06,-406.92,310.55
11510,-3.8726,-0.7227,-0.9722,-757.57,608.28,1326.17
11520,-3.8724,-0.8428,-0.9646,-491.94,-423.34,873.05
11530,-3.8724,-0.8907,-0.9900,133.06,545.23,-236.27
11540,-3.8723,-0.8947,-1.0120,1992.43,1295.10,1748.05
11550,-3.8722,-0.8578,-1.0177,1492.43,-1517.40,1701.11
11560,-3.8719,-0.7998,-1.0087,-1788.82,1748.29,-1064.51
11570,-3.8715,-0.7761,-0.9803,1633.06,-1095.34,1154.24
11580,-3.8711,-0.8102,-0.9434,664.31,-1470.28,-470.70
11590,-3.8707,-0.8877,-0.9193,304.93,-735.96,-1611.27
11600,-3.8705,-0.9879,-0.9111,-1616.94,-1658.02,-1548.71
11610,-3.8702,-1.0864,-0.8906,1554.93,-611.33,185.67
11620,-3.8702,-1.1644,-0.8362,945.56,-1986.51,-1204.90
11630,-3.8702,-1.2169,-0.7651,-1038.82,982.06,1763.98
11640,-3.8704,-1.2319,-0.7134,242.43,-1924.26,498.47
11650,-3.8707,-1.1984,-0.6844,-1679.44,700.68,-626.40
11660,-3.8710,-1.1272,-0.6405,-1382.57,403.87,139.28
11670,-3.8713,-1.0371,-0.5566,-273.19,-1971.01,983.09
11680,-3.8717,-0.9427,-0.4668,-741.94,763.55,-1594.85
11690,-3.8719,-0.8507,-0.4037,-663.82,263.73,264.71
11700,-3.8723,-0.7698,-0.3572,-882.57,342.04,-1125.79
11710,-3.8726,-0.7064,-0.3151,1476.81,-1704.65,-1000.73
11720,-3.8727,-0.6503,-0.2804,1586.18,-313.90,1483.70
11730,-3.8728,-0.5869,-0.2574,773.68,123.72,1718.20
11740,-3.8729,-0.5099,-0.2437,883.06,-938.66,-1516.17
11750,-3.8730,-0.4218,-0.2299,-1257.57,827.09,-750.49
11760,-3.8730,-0.3297,-0.2115,-1976.32,-1407.10,77.64
11770,-3.8732,-0.2281,-0.2023,1804.93,936.83,780.82
11780,-3.8733,-0.1104,-0.2189,-1195.07,-1875.49,780.82
11790,-3.8734,0.0160,-0.2582,1883.06,-0.24,218.26
11800,-3.8735,0.1501,-0.3048,-1945.07,-1046.88,1390.08
11810,-3.8735,0.3069,-0.3474,-773.19,984.62,-1641.24
11820,-3.8734,0.5043,-0.3849,-710.69,-468.20,-1563.23
11830,-3.8732,0.7594,-0.4392,554.93,-1264.65,936.71
11840,-3.8729,1.0625,-0.4935,1211.18,-217.29,-719.67
11850,-3.8724,1.3538,-0.4832,8.06,830.20,-47.85
11860,-3.8717,1.5763,-0.4003,1289.31,-1841.13,-1250.98
11870,-3.8710,1.7253,-0.2832,1773.68,768.68,1608.58
11880,-3.8705,1.8281,-0.1521,851.81,-246.64,-641.24
11890,-3.8700,1.9282,-0.0159,-1991.94,534.79,874.69
11900,-3.8696,2.0560,0.1097,-1179.44,1972.47,484.31
11910,-3.8694,2.1794,0.1807,-820.07,-1949.16,-640.44
11920,-3.8690,2.2308,0.1626,-1023.19,-870.79,1640.93
11930,-3.8688,2.1660,0.0901,1554.93,816.83,-1734.07
11940,-3.8685,1.9977,0.0200,1258.06,-464.54,656.37
11950,-3.8684,1.7866,-0.0275,-288.82,-1433.65,984.38
11960,-3.8684,1.5918,-0.0619,695.56,487.85,-1343.81
11970,-3.8685,1.4435,-0.0833,-241.94,81.18,-484.50
11980,-3.8688,1.3389,-0.0874,773.68,1346.56,-1906.43
11990,-3.8693,1.2549,-0.0774,-616.94,815.06,-1468.93
12000,-3.8699,1.1622,-0.0724,633.06,-1903.81,-1781.43
12010,-3.8705,1.0547,-0.0986,773.68,-1263.37,390.44
12020,-3.8711,0.9398,-0.1605,-991.94,-622.99,687.26
12030,-3.8716,0.8110,-0.2365,304.93,-545.04,249.63
12040,-3.8721,0.6633,-0.3038,-179.44,1735.90,-1734.86
12050,-3.8724,0.5060,-0.3600,914.31,1110.66,-1297.49
12060,-3.8727,0.3656,-0.4159,773.68,1922.85,-1375.73
12070,-3.8728,0.2627,-0.4794,-1195.07,-1233.70,-1735.23
12080,-3.8728,0.1812,-0.5392,1633.06,-1358.89,1561.52
12090,-3.8727,0.0787,-0.5774,-804.44,-1015.32,514.53
12100,-3.8726,-0.0557,-0.5991,-1913.82,-1906.13,1248.84
12110,-3.8724,-0.2025,-0.6261,883.06,-672.00,1155.03
12120,-3.8723,-0.3530,-0.6599,-1913.82,-125.43,795.59
12130,-3.8722,-0.4984,-0.7107,-1179.44,-453.86,-1157.59
12140,-3.8719,-0.6353,-0.7852,211.18,1045.90,-407.65
12150,-3.8716,-0.7753,-0.8535,-1304.44,-485.66,920.29
12160,-3.8713,-0.9080,-0.9075,773.68,-1235.90,1857.67
12170,-3.8711,-1.0128,-0.9558,-210.69,-142.46,-1298.71
12180,-3.8708,-1.0896,-0.9915,-1632.57,1669.86,-126.89
12190,-3.8705,-1.1403,-1.0199,539.31,1107.24,966.80
12200,-3.8702,-1.1659,-1.0457,-1945.07,1466.49,1013.61
12210,-3.8700,-1.1760,-1.0514,-1226.32,-1830.44,29.17
12220,-3.8699,-1.1840,-1.0227,1476.81,1435.18,-1470.83
12230,-3.8696,-1.1924,-0.9689,461.18,1107.06,310.49
12240,-3.8696,-1.1910,-0.9131,-616.94,-2.38,-548.83
12250,-3.8696,-1.1663,-0.8721,-445.07,-861.76,1498.17
12260,-3.8699,-1.1121,-0.8439,-1273.19,388.31,1951.42
12270,-3.8702,-1.0352,-0.8145,1664.31,-2.20,-1314.21
12280,-3.8706,-0.9476,-0.7686,-491.94,-236.45,-1907.90
12290,-3.8710,-0.8518,-0.7048,-1288.82,1638.73,1623.47
12300,-3.8713,-0.7427,-0.6360,-1023.19,1795.17,1967.35
12310,-3.8717,-0.6169,-0.5747,945.56,-1392.09,-563.78
12320,-3.8719,-0.4810,-0.5211,1039.31,-1548.10,1826.97
12330,-3.8722,-0.3525,-0.4720,-1554.44,1311.52,1061.46
12340,-3.8724,-0.2356,-0.4438,-1116.94,-406.98,1311.52
12350,-3.8727,-0.1046,-0.4565,1851.81,-797.36,-1610.29
12360,-3.8728,0.0658,-0.4974,-1382.57,1577.88,30.33
12370,-3.8730,0.2838,-0.5345,429.93,328.25,1639.65
12380,-3.8733,0.5546,-0.5583,336.18,-421.33,-485.47
12390,-3.8734,0.8842,-0.5588,-1007.57,532.29,-1141.72
12400,-3.8734,1.2336,-0.5303,1179.93,470.46,1717.65
12410,-3.8733,1.5369,-0.4767,1914.31,127.38,-219.79
12420,-3.8728,1.7612,-0.3964,726.81,-1012.63,-625.98
12430,-3.8721,1.8885,-0.3186,1445.56,1269.04,-657.04
12440,-3.8712,1.9420,-0.2885,1742.43,-777.59,-985.05
12450,-3.8705,1.9712,-0.2893,586.18,-918.09,-125.61
12460,-3.8699,1.9877,-0.2697,320.56,-1027.40,-766.24
12470,-3.8694,2.0120,-0.1998,-1570.07,1488.22,-1641.17
12480,-3.8690,2.0654,-0.0879,1539.31,-1574.22,1999.57
12490,-3.8688,2.1124,0.0245,383.06,754.03,1796.69
12500,-3.8687,2.0947,0.0892,-1601.32,-855.29,750.00
12510,-3.8688,1.9928,0.0858,133.06,-574.04,-1781.13
12520,-3.8690,1.8373,0.0454,-913.82,-1011.78,-921.75
12530,-3.8693,1.6597,0.0085,-820.07,1816.04,1968.81
12540,-3.8695,1.4789,-0.0079,445.56,1096.98,843.75
12550,-3.8699,1.3109,-0.0090,1304.93,-1012.76,-1437.56
12560,-3.8702,1.1594,-0.0085,-195.07,-1153.75,1453.06
12570,-3.8707,1.0220,-0.0125,414.31,-1091.49,1906.19
12580,-3.8712,0.8979,-0.0225,-1179.44,-1591.80,1578.06
12590,-3.8717,0.7896,-0.0424,-1054.44,1126.71,-1953.19
12600,-3.8721,0.7103,-0.0769,1070.56,-1420.35,249.88
12610,-3.8724,0.6664,-0.1284,-1070.07,-1842.41,874.82
12620,-3.8727,0.6195,-0.1975,1304.93,-436.22,484.07
12630,-3.8729,0.5256,-0.2877,-695.07,-1280.09,-1312.93
12640,-3.8730,0.3881,-0.4095,-710.69,-827.15,-1203.74
12650,-3.8730,0.2372,-0.5574,1679.93,-421.14,1389.77
12660,-3.8730,0.0858,-0.7053,-1632.57,656.68,-594.85
12670,-3.8728,-0.0709,-0.8424,-1007.57,1718.87,154.85
12680,-3.8727,-0.2371,-0.9688,-1070.07,187.32,-1876.65
12690,-3.8724,-0.4225,-1.0693,1664.31,15.14,1248.11
12700,-3.8722,-0.6244,-1.1434,1929.93,-860.23,-1361.51
12710,-3.8718,-0.8307,-1.1997,86.18,1655.03,-1439.76
12720,-3.8713,-1.0303,-1.2205,1679.93,-1548.52,778.87
12730,-3.8708,-1.1892,-1.1996,133.06,-205.14,544.43
12740,-3.8704,-1.2661,-1.1628,-210.69,-1533.63,388.24
12750,-3.8699,-1.2522,-1.1301,1945.56,-830.63,388.31
12760,-3.8695,-1.1769,-1.1051,-273.19,-643.13,-158.51
12770,-3.8691,-1.0850,-1.0909,1367.43,-1439.82,-908.45
12780,-3.8690,-1.0029,-1.0740,1133.06,372.86,-1064.64
12790,-3.8691,-0.9504,-1.0312,-366.94,-1455.14,-455.26
12800,-3.8694,-0.9438,-0.9608,-1648.19,13.73,-767.64
12810,-3.8698,-0.9667,-0.8810,-804.44,1029.36,-439.39
12820,-3.8701,-0.9854,-0.8094,273.68,-751.89,1998.23
12830,-3.8705,-0.9772,-0.7461,1883.06,404.30,404.66
12840,-3.8710,-0.9443,-0.6816,-1070.07,513.67,-813.96
12850,-3.8713,-0.8911,-0.6121,-866.94,763.73,-1673.22
12860,-3.8717,-0.8132,-0.5397,1945.56,1670.10,-1313.72
12870,-3.8719,-0.7144,-0.4698,-85.69,-1064.15,592.65
12880,-3.8723,-0.6118,-0.4047,570.56,-126.40,-266.60
12890,-3.8724,-0.5217,-0.3409,1695.56,217.53,421.08
12900,-3.8727,-0.4377,-0.2834,1226.81,373.96,-906.92
12910,-3.8728,-0.3452,-0.2443,-23.19,-266.54,-1359.99
12920,-3.8729,-0.2313,-0.2311,-179.44,749.27,1671.39
12930,-3.8730,-0.0870,-0.2355,-1601.32,-1562.99,515.14
12940,-3.8733,0.0834,-0.2439,867.43,1874.82,-750.49
12950,-3.8734,0.2778,-0.2692,-1320.07,781.37,1015.14
12960,-3.8735,0.5278,-0.3373,-429.44,1547.36,124.45
12970,-3.8735,0.8776,-0.4380,-429.44,829.10,405.58
12980,-3.8733,1.3011,-0.4905,336.18,-60.79,811.58
12990,-3.8727,1.6947,-0.4186,-1445.07,1221.25,1811.52
13000,-3.8717,1.9781,-0.2986,929.93,-1574.83,-313.35
13010,-3.8706,2.1353,-0.2661,1211.18,1785.10,-1484.99
13020,-3.8699,2.1848,-0.3182,1320.56,1941.65,-1266.17
13030,-3.8694,2.1719,-0.3527,-335.69,-730.16,358.70
13040,-3.8691,2.1335,-0.3234,-1991.94,-1136.41,-1000.73
13050,-3.8687,2.0961,-0.2603,1101.81,-1386.47,1639.95
13060,-3.8682,2.0565,-0.1976,304.93,-1308.41,1624.45
13070,-3.8679,1.9683,-0.1539,-757.57,-1292.91,-1703.55
13080,-3.8680,1.8118,-0.1323,-54.44,300.66,-1375.31
13090,-3.8684,1.6360,-0.1301,-85.69,-934.02,687.19
13100,-3.8690,1.5052,-0.1437,1414.31,-653.08,-1250.31
13110,-3.8695,1.4191,-0.1597,679.93,1612.30,1905.94
13120,-3.8700,1.3345,-0.1714,1648.68,-434.75,-1047.24
13130,-3.8704,1.2292,-0.1923,-1179.44,-1934.94,905.88
13140,-3.8707,1.1077,-0.2252,1351.81,-606.99,218.32
13150,-3.8711,0.9747,-0.2566,1789.31,-825.99,1093.26
13160,-3.8715,0.8289,-0.2831,773.68,-841.86,-1781.80
13170,-3.8718,0.6710,-0.3151,-1898.19,-232.79,-1953.74
13180,-3.8722,0.5105,-0.3630,1898.68,-326.84,546.20
13190,-3.8727,0.3574,-0.4298,1351.81,1532.23,-235.11
13200,-3.8729,0.2197,-0.5140,1758.06,985.05,1155.40
13210,-3.8732,0.1023,-0.6122,133.06,-1796.45,1217.71
13220,-3.8733,-0.0066,-0.7256,1101.81,1640.81,514.40
13230,-3.8734,-0.1249,-0.8612,-835.69,-859.44,-1095.21
13240,-3.8733,-0.2644,-1.0088,23.68,1781.01,342.04
13250,-3.8732,-0.4303,-1.1345,-1835.69,-1109.92,1560.49
13260,-3.8729,-0.6085,-1.2091,929.93,-1203.98,-1377.26
13270,-3.8726,-0.7833,-1.2374,-1882.57,1248.78,-846.13
13280,-3.8721,-0.9553,-1.2509,-257.57,1623.41,-1596.19
13290,-3.8716,-1.1218,-1.2661,1726.81,-95.64,-268.13
13300,-3.8710,-1.2577,-1.2799,414.31,1950.93,-268.13
13310,-3.8702,-1.3187,-1.2960,-976.32,185.00,-752.50
13320,-3.8694,-1.2859,-1.3126,-788.82,-1877.62,763.06
13330,-3.8687,-1.1954,-1.3136,-585.69,-2.56,278.63
13340,-3.8682,-1.1036,-1.2797,-1007.57,-127.38,1278.63
13350,-3.8680,-1.0531,-1.2043,-1257.57,216.55,-174.38
13360,-3.8682,-1.0483,-1.1051,1211.18,1857.30,-1799.26
13370,-3.8687,-1.0596,-1.0062,1820.56,-1439.58,1732.18
13380,-3.8694,-1.0662,-0.9288,383.06,-783.33,-1673.89
13390,-3.8701,-1.0510,-0.8744,-460.69,1122.86,1607.54
13400,-3.8708,-1.0022,-0.8197,1476.81,91.67,-532.96
13410,-3.8713,-0.9270,-0.7542,-273.19,-908.26,998.35
13420,-3.8718,-0.8394,-0.6843,1351.81,-517.46,-1251.53
13430,-3.8721,-0.7515,-0.6178,570.56,420.23,842.41
13440,-3.8723,-0.6753,-0.5544,-179.44,935.97,-1516.85
13450,-3.8724,-0.6156,-0.5012,1570.56,1045.53,-1813.60
13460,-3.8726,-0.5721,-0.4684,1211.18,-141.85,-1751.04
13470,-3.8727,-0.5413,-0.4437,-1226.32,61.34,-1844.67
13480,-3.8728,-0.5127,-0.4133,-1273.19,-782.35,-1250.92
13490,-3.8729,-0.4706,-0.3766,-1616.94,-891.66,-266.48
13500,-3.8730,-0.3940,-0.3483,-226.32,-188.48,-360.17
13510,-3.8732,-0.2720,-0.3447,1570.56,-563.29,1999.27
13520,-3.8734,-0.1140,-0.3561,1195.56,-109.92,-203.86
13530,-3.8735,0.0662,-0.3661,1414.31,-1562.74,1436.77
13540,-3.8738,0.2832,-0.3885,476.81,1140.75,-1094.48
13550,-3.8739,0.5746,-0.4456,258.06,-1733.83,1733.58
13560,-3.8739,0.9656,-0.5098,1554.93,-1030.15,795.96
13570,-3.8738,1.4236,-0.5422,-398.19,-1248.17,-1.04
13580,-3.8732,1.8811,-0.5154,-1773.19,-1403.50,-1282.35
13590,-3.8722,2.2623,-0.4210,789.31,-1965.09,14.59
13600,-3.8712,2.4916,-0.3224,1586.18,-1886.23,186.65
13610,-3.8705,2.5426,-0.2783,-1070.07,-1260.80,-985.05
13620,-3.8699,2.4556,-0.2705,1461.18,379.94,-1453.67
13630,-3.8694,2.3138,-0.2616,-1679.44,1379.76,-1563.05
13640,-3.8689,2.1993,-0.2391,179.93,-1479.86,-1469.30
13650,-3.8684,2.1423,-0.2094,1523.68,1394.90,-1125.49
13660,-3.8679,2.1124,-0.1909,-1773.19,1207.28,140.20
13670,-3.8678,2.0508,-0.1823,-1601.32,-433.41,-609.80
13680,-3.8678,1.9253,-0.1724,-1491.94,675.84,-390.99
13690,-3.8679,1.7582,-0.1659,-1554.44,1941.22,390.26
13700,-3.8684,1.5894,-0.1663,1054.93,-1230.96,-1906.62
13710,-3.8690,1.4391,-0.1652,-554.44,-1278.20,1984.01
13720,-3.8698,1.3081,-0.1663,211.18,-1137.82,-1640.99
13730,-3.8705,1.1816,-0.1774,-554.44,-1278.75,1218.38
13740,-3.8712,1.0442,-0.2036,-741.94,1299.13,1155.88
13750,-3.8718,0.9042,-0.2589,1664.31,1939.51,1155.82
13760,-3.8723,0.7706,-0.3492,-257.57,-1138.92,1905.70
13770,-3.8727,0.6332,-0.4703,-1351.32,-701.66,-1281.98
13780,-3.8729,0.4850,-0.6066,1054.93,-201.90,-1454.10
13790,-3.8730,0.3386,-0.7461,-1913.82,-1639.71,967.53
13800,-3.8732,0.2045,-0.8855,-648.19,500.61,-1360.84
13810,-3.8730,0.0762,-1.0112,-1820.07,-1343.38,310.73
13820,-3.8729,-0.0581,-1.1155,1758.06,-1437.38,1794.86
13830,-3.8727,-0.2029,-1.1954,570.56,1234.25,1935.30
13840,-3.8724,-0.3591,-1.2341,-1960.69,-1000.43,-158.63
13850,-3.8721,-0.5304,-1.2166,-1960.69,-1953.86,-1361.82
13860,-3.8717,-0.7075,-1.1560,117.43,295.84,-1986.76
13870,-3.8713,-0.8716,-1.0897,1445.56,45.47,-1377.26
13880,-3.8708,-1.0082,-1.0490,445.56,529.54,341.61
13890,-3.8705,-1.1041,-1.0436,-1038.82,1747.99,-1611.45
13900,-3.8701,-1.1470,-1.0603,-1320.07,-1564.70,-439.58
13910,-3.8698,-1.1262,-1.0762,1195.56,294.62,1904.17
13920,-3.8696,-1.0502,-1.0660,-148.19,-1736.63,-49.01
13930,-3.8695,-0.9601,-1.0146,1586.18,-439.58,1122.86
13940,-3.8696,-0.8966,-0.9341,1117.43,-1861.27,1294.86
13950,-3.8699,-0.8796,-0.8362,1242.43,451.35,1529.42
13960,-3.8702,-0.9055,-0.7307,-585.69,982.60,-454.77
13970,-3.8706,-0.9410,-0.6376,101.81,-1517.40,-79.59
13980,-3.8710,-0.9556,-0.5629,-445.07,-1595.64,-954.41
13990,-3.8713,-0.9392,-0.5009,1695.56,-33.14,-1485.53
14000,-3.8717,-0.8969,-0.4474,-210.69,-95.64,-376.04
14010,-3.8719,-0.8444,-0.3981,1211.18,-1251.77,-1047.79
14020,-3.8721,-0.7979,-0.3529,-70.07,1060.79,1171.08
14030,-3.8722,-0.7631,-0.3135,1883.06,-1157.84,-1781.98
14040,-3.8722,-0.7371,-0.2816,-1663.82,-110.90,1046.20
14050,-3.8722,-0.7119,-0.2678,1664.31,-32.71,452.51
14060,-3.8723,-0.6882,-0.2753,883.06,1732.97,-1203.67
14070,-3.8724,-0.6691,-0.2898,-85.69,779.85,-453.67
14080,-3.8724,-0.6456,-0.2975,-1632.57,-1079.47,265.01
14090,-3.8726,-0.6066,-0.2952,1367.43,1936.22,-1859.99
14100,-3.8727,-0.5469,-0.2845,-1632.57,-1766.85,-109.99
14110,-3.8727,-0.4668,-0.2700,-1991.94,-407.35,405.64
14120,-3.8728,-0.3708,-0.2566,258.06,1452.21,343.20
14130,-3.8729,-0.2650,-0.2523,539.31,-828.86,358.83
14140,-3.8730,-0.1420,-0.2629,-1913.82,-281.80,608.83
14150,-3.8732,-0.0078,-0.2861,1836.18,-1640.93,1827.58
14160,-3.8732,0.1462,-0.3197,-991.94,-609.44,968.14
14170,-3.8732,0.3381,-0.3561,-1273.19,-921.63,1733.70
14180,-3.8732,0.5806,-0.4010,-710.69,-1577.51,-1766.36
14190,-3.8732,0.9484,-0.4430,-1679.44,672.97,1780.46
14200,-3.8730,1.4148,-0.4293,1398.68,-701.29,1749.08
14210,-3.8726,1.8035,-0.3572,1101.81,1049.62,889.77
14220,-3.8718,1.9927,-0.2938,-1148.19,-1715.27,749.27
14230,-3.8711,2.0266,-0.2810,-929.44,-1605.53,1749.39
14240,-3.8704,2.0178,-0.2836,-585.69,35.16,-1266.17
14250,-3.8695,2.0101,-0.2723,-1710.69,-292.97,-734.99
14260,-3.8685,1.9922,-0.2593,1304.93,1144.53,-1438.05
14270,-3.8677,1.9524,-0.2429,-991.94,-1183.65,1905.70
14280,-3.8672,1.9041,-0.2220,1914.31,910.03,-875.49
14290,-3.8669,1.8466,-0.2040,-273.19,-418.21,608.89
14300,-3.8672,1.7599,-0.1970,367.43,1894.23,-125.43
14310,-3.8676,1.6482,-0.2031,1273.68,-1215.33,-375.43
14320,-3.8680,1.5300,-0.2064,-1023.19,-1996.83,-1516.05
14330,-3.8687,1.4041,-0.1941,-148.19,1581.05,-1734.80
14340,-3.8694,1.2650,-0.1794,-273.19,-841.06,-344.18
14350,-3.8701,1.1266,-0.1912,1929.93,1033.69,-31.62
14360,-3.8707,1.0005,-0.2345,211.18,-466.55,1640.20
14370,-3.8713,0.8807,-0.2966,70.56,1986.33,-1484.86
14380,-3.8718,0.7584,-0.3634,742.43,-1967.04,-1016.24
14390,-3.8722,0.6367,-0.4279,1086.18,1485.84,-1047.61
14400,-3.8724,0.5311,-0.5002,1508.06,1235.60,-1672.73
14410,-3.8726,0.4426,-0.5802,-7.57,-30.27,967.71
14420,-3.8727,0.3492,-0.6525,664.31,1735.23,-813.66
14430,-3.8726,0.2415,-0.7159,711.18,485.05,373.72
14440,-3.8726,0.1240,-0.7755,-1085.69,359.80,-845.15
14450,-3.8724,-0.0126,-0.8163,-116.94,734.56,-1470.28
14460,-3.8723,-0.1714,-0.8193,-1601.32,-468.81,1732.73
14470,-3.8722,-0.3320,-0.7906,-1929.44,-859.74,935.85
14480,-3.8721,-0.4728,-0.7534,1508.06,-1188.17,576.54
14490,-3.8719,-0.5852,-0.7245,-507.57,-422.85,467.22
14500,-3.8718,-0.6729,-0.7041,1101.81,-719.91,264.16
14510,-3.8718,-0.7440,-0.6910,1883.06,1889.28,-79.53
14520,-3.8717,-0.7985,-0.6870,773.68,-438.96,-657.65
14530,-3.8716,-0.8341,-0.6931,1804.93,76.54,-954.47
14540,-3.8715,-0.8632,-0.7037,1242.43,-704.77,-267.03
14550,-3.8712,-0.8998,-0.7037,1523.68,1935.79,1045.47
14560,-3.8711,-0.9442,-0.6985,836.18,1935.73,-1907.65
14570,-3.8710,-0.9910,-0.7028,-851.32,-1392.52,-1923.28
14580,-3.8708,-1.0411,-0.7001,1164.31,-1939.45,779.85
14590,-3.8708,-1.1011,-0.6750,-1257.57,-1595.83,-1704.53
14600,-3.8708,-1.1648,-0.6340,-929.44,1607.18,1576.78
14610,-3.8710,-1.2164,-0.5856,-1085.69,-1142.94,1670.59
14620,-3.8712,-1.2441,-0.5393,304.93,1060.12,-485.53
14630,-3.8713,-1.2358,-0.4979,758.06,-1018.07,748.90
14640,-3.8716,-1.1941,-0.4563,1820.56,278.81,-1422.85
14650,-3.8717,-1.1339,-0.4193,-835.69,1606.99,1717.83
14660,-3.8718,-1.0637,-0.3960,-1132.57,-1658.51,1983.52
14670,-3.8719,-0.9879,-0.3846,-148.19,1325.99,-1516.42
14680,-3.8721,-0.9100,-0.3815,1554.93,-1220.70,-735.17
14690,-3.8721,-0.8378,-0.3823,-476.32,-814.33,1249.21
14700,-3.8721,-0.7761,-0.3812,773.68,-923.52,546.08
14710,-3.8721,-0.7194,-0.3783,664.31,-782.78,296.08
14720,-3.8722,-0.6633,-0.3735,-70.07,-407.71,-469.54
14730,-3.8722,-0.6085,-0.3604,-898.19,201.78,1968.02
14740,-3.8723,-0.5510,-0.3317,-1882.57,1889.40,-328.86
14750,-3.8723,-0.4785,-0.2958,1476.81,1561.40,264.95
14760,-3.8726,-0.3750,-0.2728,-1241.94,-1844.73,-469.36
14770,-3.8727,-0.2394,-0.2778,8.06,1093.02,-1891.17
14780,-3.8728,-0.0681,-0.3083,1367.43,452.64,890.08
14790,-3.8729,0.1862,-0.3527,-710.69,546.69,796.26
14800,-3.8730,0.5670,-0.3943,-163.82,-1140.32,-1203.86
14810,-3.8729,1.0637,-0.3920,586.18,1532.35,30.46
14820,-3.8728,1.5664,-0.3127,164.31,1830.20,-907.04
14830,-3.8723,1.9373,-0.1864,508.06,-28.20,436.83
14840,-3.8718,2.1226,-0.0797,-23.19,144.35,1780.88
14850,-3.8712,2.1558,-0.0328,-304.44,1800.96,-1750.18
14860,-3.8705,2.1123,-0.0286,-54.44,-198.97,-1812.62
14870,-3.8696,2.0433,-0.0289,-1616.94,347.84,1703.06
14880,-3.8688,1.9746,-0.0183,1554.93,300.84,-1093.81
14890,-3.8679,1.9170,0.0016,758.06,1660.10,1343.69
14900,-3.8674,1.8588,0.0208,1383.06,206.85,-500.00
14910,-3.8672,1.7710,0.0278,1929.93,-1340.15,1890.62
14920,-3.8674,1.6372,0.0194,-1304.44,-434.08,-500.00
14930,-3.8679,1.4686,0.0073,1570.56,-1512.45,-1953.12
14940,-3.8687,1.2892,0.0049,-7.57,940.31,1359.38
14950,-3.8695,1.1110,0.0055,1023.68,627.50,1812.50
14960,-3.8704,0.9380,-0.0070,-1788.82,705.26,-390.62
14970,-3.8710,0.7753,-0.0397,70.56,-888.79,796.81
14980,-3.8716,0.6193,-0.0890,-757.57,-1076.66,1953.00
14990,-3.8721,0.4692,-0.1486,-726.32,610.53,-765.81
15000,-3.8723,0.3279,-0.2146,70.56,985.29,109.07
15010,-3.8726,0.1913,-0.2728,1976.81,531.86,718.32
15020,-3.8727,0.0607,-0.3081,492.43,1078.49,1077.58
15030,-3.8727,-0.0579,-0.3247,-226.32,562.56,124.39
15040,-3.8727,-0.1647,-0.3417,601.81,-1547.00,952.45
15050,-3.8727,-0.2640,-0.3721,-1070.07,280.88,-766.30
15060,-3.8726,-0.3687,-0.4076,-1788.82,390.08,-1078.86
15070,-3.8723,-0.4922,-0.4288,820.56,-156.98,139.77
15080,-3.8722,-0.6304,-0.4318,1008.06,1124.02,-1500.85
15090,-3.8719,-0.7694,-0.4304,-679.44,748.72,1202.27
15100,-3.8718,-0.8920,-0.4399,1523.68,920.35,-1016.48
15110,-3.8717,-0.9860,-0.4688,1836.18,-298.65,-813.42
15120,-3.8716,-1.0508,-0.5062,1804.93,13.67,-1829.04
15130,-3.8715,-1.0927,-0.5277,1508.06,-783.33,998.96
15140,-3.8713,-1.1237,-0.5291,148.68,466.61,217.71
15150,-3.8713,-1.1492,-0.5227,179.93,294.68,-1016.66
15160,-3.8712,-1.1627,-0.5140,914.31,1107.12,530.21
15170,-3.8712,-1.1569,-0.5005,-820.07,-1783.57,483.34
15180,-3.8713,-1.1294,-0.4733,-70.07,-49.19,-1376.04
15190,-3.8715,-1.0856,-0.4299,-554.44,-564.76,-954.10
15200,-3.8716,-1.0304,-0.3853,1054.93,982.24,-1282.10
15210,-3.8717,-0.9648,-0.3522,117.43,-1298.89,-1016.42
15220,-3.8717,-0.8998,-0.3307,508.06,-1064.39,202.39
15230,-3.8718,-0.8477,-0.3137,836.18,1685.73,-1563.17
15240,-3.8718,-0.8147,-0.2952,-491.94,-142.33,1514.95
15250,-3.8718,-0.7969,-0.2758,-273.19,-1767.27,436.89
15260,-3.8719,-0.7777,-0.2607,-1991.94,717.16,-1656.80
15270,-3.8721,-0.7439,-0.2511,461.18,-1360.90,-625.55
15280,-3.8721,-0.6920,-0.2372,789.31,-126.46,218.20
15290,-3.8722,-0.6254,-0.2130,-570.07,1654.85,1233.89
15300,-3.8723,-0.5476,-0.1827,-38.82,748.72,-1844.18
15310,-3.8724,-0.4600,-0.1554,1914.31,623.90,-1265.99
15320,-3.8726,-0.3534,-0.1472,1133.06,124.08,-640.93
15330,-3.8726,-0.2100,-0.1619,-1226.32,1171.14,249.69
15340,-3.8727,-0.0145,-0.1688,1133.06,-703.55,1577.76
15350,-3.8728,0.2476,-0.1637,-1851.32,-1593.81,-515.99
15360,-3.8728,0.6145,-0.1956,-304.44,-952.70,1546.51
15370,-3.8728,1.1252,-0.2560,-1335.69,-1030.09,280.82
15380,-3.8728,1.7228,-0.2817,39.31,-763.43,-1500.55
15390,-3.8724,2.2386,-0.2454,523.68,-59.14,921.26
15400,-3.8718,2.4708,-0.1746,-1445.07,598.08,-1156.74
15410,-3.8707,2.3497,-0.1477,273.68,1661.07,1312.13
15420,-3.8694,2.0339,-0.2206,773.68,1098.33,843.44
15430,-3.8680,1.7296,-0.3363,351.81,-230.41,-656.74
15440,-3.8667,1.5242,-0.3827,1398.68,956.48,843.08
15450,-3.8660,1.4100,-0.3345,-898.19,-981.45,-797.67
15460,-3.8657,1.3474,-0.2559,492.43,1190.25,499.33
15470,-3.8662,1.2938,-0.1976,476.81,-747.38,15.08
15480,-3.8673,1.2194,-0.1658,1617.43,-1294.37,-1203.55
15490,-3.8685,1.1144,-0.1521,86.18,-1216.37,1890.26
15500,-3.8698,0.9913,-0.1543,-1351.32,533.39,-1219.06
15510,-3.8707,0.8605,-0.1780,-1101.32,251.89,-359.68
15520,-3.8713,0.7126,-0.2292,-1851.32,1220.40,859.01
15530,-3.8719,0.5455,-0.3063,-773.19,-1342.41,-156.74
15540,-3.8723,0.3705,-0.3937,1836.18,797.91,-1531.86
15550,-3.8727,0.2025,-0.4630,-570.07,1610.05,-203.92
15560,-3.8729,0.0485,-0.4956,1929.93,734.74,-297.79
15570,-3.8730,-0.0895,-0.5034,-1788.82,562.56,-1250.98
15580,-3.8730,-0.2062,-0.5106,554.93,-422.06,1217.71
15590,-3.8730,-0.3077,-0.5347,1617.43,-1344.18,-1657.29
15600,-3.8729,-0.4116,-0.5801,617.43,-422.49,1280.15
15610,-3.8728,-0.5275,-0.6373,-679.44,1764.77,1998.84
15620,-3.8726,-0.6573,-0.6893,492.43,-1563.54,983.09
15630,-3.8723,-0.7928,-0.7423,-132.57,-220.09,1951.72
15640,-3.8719,-0.9209,-0.8152,-1476.32,998.41,842.29
15650,-3.8716,-1.0334,-0.8979,-1866.94,-329.96,1763.98
15660,-3.8712,-1.1191,-0.9674,-273.19,1076.05,-564.27
15670,-3.8708,-1.1707,-1.0079,758.06,185.30,-392.52
15680,-3.8705,-1.1838,-1.0170,-1835.69,-1002.32,1076.11
15690,-3.8704,-1.1581,-1.0078,476.81,1841.43,-533.26
15700,-3.8702,-1.1058,-0.9849,-226.32,-986.69,1935.49
15710,-3.8702,-1.0441,-0.9391,-1538.82,1950.93,185.55
15720,-3.8705,-0.9789,-0.8716,-1632.57,-189.58,-955.02
15730,-3.8707,-0.9136,-0.7942,-1288.82,451.17,-673.58
15740,-3.8710,-0.8612,-0.7125,-929.44,-1642.46,1920.29
15750,-3.8712,-0.8246,-0.6326,1773.68,810.79,561.10
15760,-3.8715,-0.7933,-0.5627,-1538.82,-954.77,404.97
15770,-3.8717,-0.7633,-0.4980,-1538.82,-17.21,1483.22
15780,-3.8719,-0.7372,-0.4315,-1695.07,264.10,-360.35
15790,-3.8721,-0.7130,-0.3646,1648.68,779.79,-1657.10
15800,-3.8722,-0.6868,-0.3024,742.43,1342.35,1296.14
15810,-3.8723,-0.6543,-0.2426,101.81,1311.16,546.26
15820,-3.8726,-0.6072,-0.1775,258.06,967.47,-187.99
15830,-3.8727,-0.5387,-0.1100,-1710.69,1295.65,-1750.37
15840,-3.8729,-0.4484,-0.0522,-945.07,1936.40,-140.87
15850,-3.8730,-0.3329,-0.0161,-1382.57,1327.21,1406.13
15860,-3.8733,-0.1758,-0.0104,1398.68,1952.45,-1109.44
15870,-3.8734,0.0365,-0.0347,1508.06,-1312.87,593.69
15880,-3.8737,0.2947,-0.0686,679.93,-437.44,-203.25
15890,-3.8737,0.5646,-0.0814,1726.81,-780.70,-1343.93
15900,-3.8735,0.8187,-0.0538,273.68,1579.22,-1703.31
15910,-3.8733,1.0571,-0.0001,804.93,1110.96,1812.38
15920,-3.8730,1.2831,0.0468,-679.44,-13.61,-31.31
15930,-3.8726,1.4921,0.0718,242.43,1986.88,1406.31
15940,-3.8721,1.6514,0.0809,-1007.57,1190.37,-718.63
15950,-3.8713,1.7224,0.0920,-616.94,-1637.45,1984.50
15960,-3.8705,1.7097,0.1213,476.81,-215.39,1890.75
15970,-3.8695,1.6340,0.1482,-1148.19,-465.45,1015.81
15980,-3.8687,1.5294,0.1375,1164.31,-1028.08,-31.01
15990,-3.8678,1.4451,0.0969,-226.32,1596.68,-1656.01
16000,-3.8673,1.3965,0.0582,976.81,409.06,-1437.32
16010,-3.8672,1.3651,0.0363,-1241.94,-544.19,703.19
16020,-3.8676,1.3325,0.0303,-1257.57,643.25,109.44
16030,-3.8683,1.2935,0.0298,-1429.44,-122.44,546.88
16040,-3.8691,1.2450,0.0166,1570.56,-185.00,578.12
16050,-3.8700,1.1731,-0.0082,-632.57,-1872.62,1312.50
16060,-3.8707,1.0680,-0.0341,-1835.69,-1044.62,1578.06
16070,-3.8713,0.9296,-0.0577,711.18,-357.30,-1047.00
16080,-3.8717,0.7672,-0.0763,-1007.57,611.15,890.50
16090,-3.8721,0.6050,-0.0912,-1788.82,-1764.16,-1890.81
16100,-3.8723,0.4526,-0.1084,1445.56,329.28,1812.32
16110,-3.8726,0.3109,-0.1378,1945.56,-1874.15,-297.12
16120,-3.8727,0.1824,-0.1886,-195.07,-1640.08,-687.81
16130,-3.8727,0.0635,-0.2570,-648.19,-140.32,77.70
16140,-3.8728,-0.0459,-0.3483,133.06,-890.50,-1984.92
16150,-3.8728,-0.1495,-0.4705,-1866.94,-562.62,1218.02
16160,-3.8728,-0.2594,-0.5968,867.43,-203.43,-1547.85
16170,-3.8727,-0.3867,-0.6901,-1195.07,-375.55,-1313.72
16180,-3.8724,-0.5201,-0.7439,-1491.94,-313.29,1654.85
16190,-3.8722,-0.6346,-0.7856,1429.93,795.84,-735.84
16200,-3.8718,-0.7345,-0.8484,-1226.32,-548.16,-1314.09
16210,-3.8715,-0.8168,-0.9139,1992.43,-579.59,-1767.33
16220,-3.8711,-0.8699,-0.9580,-538.82,-970.40,1670.04
16230,-3.8707,-0.8990,-0.9998,664.31,1388.92,716.86
16240,-3.8705,-0.9128,-1.0415,929.93,45.10,-1392.58
16250,-3.8702,-0.9258,-1.0669,-835.69,-1298.71,-1611.45
16260,-3.8701,-0.9469,-1.0697,1508.06,-548.71,-533.39
16270,-3.8700,-0.9772,-1.0459,-1195.07,-908.14,1029.11
16280,-3.8701,-1.0078,-0.9934,-1070.07,-1861.33,-1627.08
16290,-3.8704,-1.0261,-0.9238,-991.94,857.36,-126.95
16300,-3.8706,-1.0223,-0.8552,664.31,1763.61,-1470.58
16310,-3.8710,-0.9932,-0.7917,1148.68,-1455.14,-736.08
16320,-3.8713,-0.9442,-0.7267,883.06,-1330.08,-689.09
16330,-3.8716,-0.8875,-0.6625,-851.32,-1001.89,451.66
16340,-3.8719,-0.8308,-0.6107,-1585.69,-783.02,-298.22
16350,-3.8721,-0.7745,-0.5809,1664.31,1842.10,983.15
16360,-3.8723,-0.7175,-0.5730,867.43,1654.72,-94.91
16370,-3.8723,-0.6669,-0.5690,164.31,-1329.53,498.84
16380,-3.8724,-0.6323,-0.5522,-1351.32,-813.84,-1454.28
16390,-3.8724,-0.6072,-0.5363,-929.44,1326.84,952.03
16400,-3.8726,-0.5753,-0.5397,-1710.69,-626.22,-1016.72
16410,-3.8726,-0.5308,-0.5492,-1632.57,-1063.66,1717.65
16420,-3.8726,-0.4813,-0.5450,70.56,1717.71,1858.28
16430,-3.8726,-0.4445,-0.5071,-1601.32,-1750.98,1983.28
16440,-3.8726,-0.4163,-0.4250,-882.57,-891.54,1670.84
16450,-3.8726,-0.3584,-0.3223,-1273.19,1608.52,483.52
16460,-3.8727,-0.2230,-0.2253,-1866.94,-1235.11,186.83
16470,-3.8730,0.0168,-0.1415,-538.82,-828.61,-391.11
16480,-3.8733,0.3512,-0.0771,-1835.69,1890.62,312.19
16490,-3.8737,0.7871,-0.0463,961.18,-1874.33,-1297.06
16500,-3.8738,1.3075,-0.0220,758.06,-1920.35,-15.75
16510,-3.8735,1.8136,0.0796,-632.57,1190.00,1156.19
16520,-3.8733,2.1719,0.2543,148.68,-1808.96,-874.88
16530,-3.8729,2.3119,0.3755,-1991.94,551.09,-124.51
16540,-3.8724,2.2975,0.3835,-70.07,66.96,-1374.27
16550,-3.8718,2.2424,0.3331,-1913.82,1098.21,250.73
16560,-3.8711,2.2023,0.2872,-960.69,-1355.04,500.61
16570,-3.8701,2.1521,0.2683,1898.68,769.90,1047.42
16580,-3.8690,2.0680,0.2587,-523.19,-1652.10,656.74
16590,-3.8682,1.9701,0.2384,711.18,1113.40,-1265.14
16600,-3.8676,1.8784,0.2162,179.93,-1480.53,1266.05
16610,-3.8674,1.8060,0.1915,445.56,-324.46,-999.63
16620,-3.8676,1.7478,0.1560,-820.07,519.10,-1218.38
16630,-3.8679,1.6742,0.1083,-273.19,-27.89,-609.13
16640,-3.8684,1.5610,0.0458,-1695.07,1862.61,-1749.82
16650,-3.8690,1.3966,-0.0234,-179.44,1862.37,1265.69
16660,-3.8698,1.1868,-0.0820,-1226.32,1002.69,-1421.94
16670,-3.8705,0.9642,-0.1244,-85.69,1502.26,-609.56
16680,-3.8711,0.7706,-0.1624,-570.07,79.96,1327.88
16690,-3.8717,0.6229,-0.2030,-1351.32,-779.79,-1250.37
16700,-3.8721,0.5027,-0.2434,-257.57,-1983.22,999.57
16710,-3.8724,0.3843,-0.2834,351.81,844.73,-47.36
16720,-3.8726,0.2576,-0.3236,1195.56,-280.52,-1000.61
16730,-3.8726,0.1299,-0.3711,976.81,-1421.39,733.70
16740,-3.8727,0.0085,-0.4347,633.06,500.24,-813.23
16750,-3.8727,-0.1195,-0.5081,1101.81,359.38,811.65
16760,-3.8728,-0.2610,-0.5887,711.18,-1015.87,1264.59
16770,-3.8729,-0.4065,-0.6742,-1398.19,655.70,1405.09
16780,-3.8730,-0.5519,-0.7371,-23.19,1717.90,-1579.47
16790,-3.8730,-0.6918,-0.7657,1367.43,1670.78,-1954.59
16800,-3.8729,-0.8248,-0.7723,-538.82,1998.60,1045.35
16810,-3.8728,-0.9431,-0.7681,-1570.07,1154.60,-720.28
16820,-3.8724,-1.0239,-0.7770,-710.69,1701.23,264.10
16830,-3.8722,-1.0647,-0.8104,945.56,560.49,-642.15
16840,-3.8717,-1.0840,-0.8440,-273.19,279.11,1701.54
16850,-3.8712,-1.0974,-0.8580,1258.06,-17.76,-1001.71
16860,-3.8706,-1.1058,-0.8695,-460.69,-1814.70,435.79
16870,-3.8702,-1.1121,-0.8900,-1538.82,716.55,-673.58
16880,-3.8699,-1.1128,-0.9026,1664.31,-1908.45,1732.60
16890,-3.8698,-1.1074,-0.8943,1570.56,482.18,-1829.90
16900,-3.8698,-1.1069,-0.8658,-1741.94,1544.68,29.48
16910,-3.8700,-1.1058,-0.8185,-1679.44,1185.30,982.67
16920,-3.8704,-1.0942,-0.7532,-1538.82,-752.20,-861.02
16930,-3.8707,-1.0602,-0.6790,-54.44,-392.82,-110.90
16940,-3.8710,-0.9963,-0.6101,304.93,1107.30,29.91
16950,-3.8713,-0.9133,-0.5587,476.81,1919.92,295.65
16960,-3.8717,-0.8300,-0.5242,-898.19,498.17,1592.65
16970,-3.8719,-0.7628,-0.4928,1773.68,920.23,795.84
16980,-3.8722,-0.7214,-0.4535,-1632.57,935.97,-1641.60
16990,-3.8723,-0.6982,-0.4099,-335.69,1967.29,1670.96
17000,-3.8724,-0.6775,-0.3752,-1366.94,-454.53,1671.02
17010,-3.8726,-0.6475,-0.3508,1289.31,-16.97,1780.46
17020,-3.8727,-0.6029,-0.3163,1133.06,-891.91,-1797.61
17030,-3.8728,-0.5442,-0.2559,-1163.82,-469.97,-969.42
17040,-3.8729,-0.4604,-0.1996,-1648.19,-735.47,-969.30
17050,-3.8730,-0.3331,-0.1938,1070.56,-1532.17,1358.95
17060,-3.8733,-0.1622,-0.2264,1367.43,-797.55,-797.30
17070,-3.8734,0.0475,-0.2664,-757.57,-969.12,-1453.61
17080,-3.8734,0.3090,-0.3243,-1913.82,1906.31,1015.08
17090,-3.8733,0.6484,-0.4071,-445.07,-1515.08,1374.33
17100,-3.8729,1.0416,-0.4933,-991.94,-108.15,561.65
17110,-3.8724,1.4423,-0.5306,1336.18,861.39,983.40
17120,-3.8718,1.7960,-0.4690,617.43,80.93,-782.29
17130,-3.8708,2.0648,-0.3662,1898.68,-27.77,1717.77
17140,-3.8698,2.2900,-0.3181,304.93,1129.03,1733.64
17150,-3.8688,2.4651,-0.2812,1133.06,-714.29,-1875.67
17160,-3.8682,2.5214,-0.1836,-460.69,4.76,-344.30
17170,-3.8678,2.4415,-0.0662,-1257.57,504.88,1077.76
17180,-3.8678,2.2815,0.0082,523.68,-463.99,1702.94
17190,-3.8679,2.0994,0.0281,39.31,1051.33,1562.50
17200,-3.8682,1.9135,0.0228,726.81,-402.16,-1671.88
17210,-3.8685,1.7186,0.0238,929.93,-1074.40,-718.75
17220,-3.8689,1.5239,0.0302,-7.57,-949.83,640.62
17230,-3.8694,1.3573,0.0171,-929.44,-137.70,671.88
17240,-3.8699,1.2246,-0.0184,1742.43,-1809.88,1531.25
17250,-3.8704,1.1027,-0.0460,758.06,1643.01,-609.44
17260,-3.8707,0.9664,-0.0563,1148.68,-1888.49,1031.13
17270,-3.8712,0.8083,-0.0598,-288.82,798.71,1515.50
17280,-3.8717,0.6436,-0.0651,-523.19,345.28,749.88
17290,-3.8722,0.5034,-0.0875,-1616.94,-326.90,93.57
17300,-3.8727,0.3988,-0.1290,445.56,797.85,-1843.93
17310,-3.8729,0.3037,-0.1682,-945.07,-514.89,187.19
17320,-3.8732,0.2014,-0.1987,-1116.94,-1530.70,796.51
17330,-3.8734,0.1080,-0.2393,1789.31,-1437.13,-1172.30
17340,-3.8735,0.0306,-0.2987,1836.18,1375.18,-172.36
17350,-3.8734,-0.0443,-0.3774,-70.07,1765.62,-1500.61
17360,-3.8732,-0.1263,-0.4792,-1663.82,-297.00,-1188.29
17370,-3.8728,-0.2133,-0.5967,-163.82,-1328.43,-844.73
17380,-3.8723,-0.3088,-0.7052,711.18,-359.80,-1344.97
17390,-3.8718,-0.4177,-0.7887,476.81,1749.39,-235.78
17400,-3.8712,-0.5370,-0.8562,-1460.69,-938.35,701.54
17410,-3.8707,-0.6676,-0.9058,-726.32,-1579.22,842.04
17420,-3.8702,-0.8055,-0.9271,-1445.07,76.78,201.35
17430,-3.8699,-0.9338,-0.9473,898.68,1342.16,-1892.46
17440,-3.8695,-1.0275,-0.9958,476.81,-1236.21,-1689.39
17450,-3.8691,-1.0812,-1.0458,492.43,544.86,-1798.83
17460,-3.8688,-1.1178,-1.0486,1617.43,-1845.89,-1986.45
17470,-3.8685,-1.1354,-1.0009,929.93,1794.68,-1705.20
17480,-3.8685,-1.1149,-0.9323,-1320.07,-96.01,-1486.39
17490,-3.8688,-1.0612,-0.8521,1304.93,685.30,1732.54
17500,-3.8693,-0.9919,-0.7559,179.93,-1048.95,-1595.46
17510,-3.8699,-0.9178,-0.6635,1039.31,-736.33,-267.15
17520,-3.8704,-0.8451,-0.5861,-1476.32,-908.08,76.78
17530,-3.8710,-0.7830,-0.5188,-163.82,998.29,-1938.66
17540,-3.8713,-0.7332,-0.4685,-210.69,1607.79,139.59
17550,-3.8717,-0.6891,-0.4403,-1835.69,45.41,-1454.04
17560,-3.8718,-0.6520,-0.4189,-195.07,-345.15,405.33
17570,-3.8719,-0.6294,-0.3835,554.93,-1610.66,764.77
17580,-3.8721,-0.6187,-0.3405,-554.44,-1079.41,-1360.17
17590,-3.8721,-0.6083,-0.3002,820.56,436.28,905.58
17600,-3.8722,-0.5911,-0.2625,-1851.32,1592.53,-1094.36
17610,-3.8722,-0.5645,-0.2263,351.81,-1579.28,30.70
17620,-3.8724,-0.5198,-0.1906,-241.94,-954.28,-62.99
17630,-3.8726,-0.4487,-0.1665,1476.81,-376.04,-1141.05
17640,-3.8727,-0.3477,-0.1659,-1429.44,-1297.79,1593.38
17650,-3.8728,-0.2140,-0.1906,-491.94,-1219.48,1437.13
17660,-3.8729,-0.0245,-0.2345,617.43,-375.43,-1344.18
17670,-3.8729,0.2463,-0.2874,867.43,1999.94,1921.39
17680,-3.8729,0.5842,-0.3335,-460.69,-780.82,-469.36
17690,-3.8728,0.9606,-0.3398,-1210.69,1313.60,-781.92
17700,-3.8726,1.3264,-0.2733,-1038.82,501.83,-1531.92
17710,-3.8722,1.6094,-0.1544,1789.31,1018.19,-469.30
17720,-3.8716,1.7904,-0.0560,-1991.94,237.49,1124.69
17730,-3.8711,1.9041,-0.0084,1179.93,831.60,1390.50
17740,-3.8707,1.9725,0.0077,-273.19,-1074.46,296.81
17750,-3.8706,2.0182,0.0192,492.43,988.22,-531.25
17760,-3.8704,2.0481,0.0388,-1663.82,-1542.97,-1703.12
17770,-3.8701,2.0480,0.0485,-1835.69,972.72,1609.44
17780,-3.8699,2.0104,0.0420,-1851.32,-1792.91,812.56
17790,-3.8698,1.9288,0.0336,1336.18,1378.91,-453.06
17800,-3.8695,1.7980,0.0312,-1101.32,300.60,1187.56
17810,-3.8694,1.6293,0.0315,-1851.32,3.48,953.19
17820,-3.8694,1.4497,0.0242,554.93,34.42,-1249.94
17830,-3.8694,1.2788,0.0056,1570.56,-903.44,-1671.88
17840,-3.8695,1.1299,-0.0220,-304.44,721.19,-1234.38
17850,-3.8698,0.9989,-0.0466,633.06,1189.70,-203.19
17860,-3.8700,0.8727,-0.0626,-132.57,-1966.86,1624.88
17870,-3.8704,0.7549,-0.0688,-288.82,-13.98,437.32
17880,-3.8708,0.6675,-0.0784,633.06,-811.04,937.32
17890,-3.8713,0.6134,-0.1089,1445.56,1970.03,671.69
17900,-3.8718,0.5615,-0.1586,-1476.32,-1936.34,-1984.62
17910,-3.8722,0.4878,-0.2318,-116.94,-295.84,-1890.99
17920,-3.8724,0.3970,-0.3339,-1554.44,-1670.96,921.39
17930,-3.8727,0.2958,-0.4467,-1179.44,1266.36,-953.80
17940,-3.8727,0.1844,-0.5504,1867.43,-1171.33,1014.71
17950,-3.8727,0.0732,-0.6553,-382.57,1547.18,-1391.72
17960,-3.8726,-0.0402,-0.7550,1383.06,125.12,-1485.66
17970,-3.8723,-0.1678,-0.8247,-1132.57,-625.12,14.10
17980,-3.8722,-0.3193,-0.8612,-1476.32,-1547.24,-954.77
17990,-3.8718,-0.5079,-0.8798,-866.94,1780.58,357.67
18000,-3.8716,-0.7299,-0.9003,-1007.57,-594.79,-283.02
18010,-3.8712,-0.9468,-0.9347,-1413.82,779.79,-79.90
18020,-3.8707,-1.1141,-0.9783,-1179.44,373.11,1560.67
18030,-3.8702,-1.2083,-1.0204,1398.68,-1205.32,857.42
18040,-3.8699,-1.2148,-1.0566,1351.81,1403.87,-1423.89
18050,-3.8696,-1.1365,-1.0649,508.06,763.24,-533.33
18060,-3.8695,-1.0049,-1.0338,-1460.69,-299.13,-80.26
18070,-3.8694,-0.8750,-0.9725,-616.94,-314.51,122.92
18080,-3.8695,-0.7939,-0.8883,8.06,-470.46,29.30
18090,-3.8698,-0.7715,-0.7970,-1616.94,-1689.09,1138.85
18100,-3.8700,-0.7886,-0.7125,1258.06,1998.47,654.66
18110,-3.8704,-0.8109,-0.6383,-929.44,810.91,-860.78
18120,-3.8706,-0.8093,-0.5765,211.18,-1689.09,1076.84
18130,-3.8710,-0.7808,-0.5259,414.31,-1782.84,-516.78
18140,-3.8712,-0.7396,-0.4727,70.56,701.60,-1204.16
18150,-3.8715,-0.6989,-0.4094,1336.18,-485.84,-735.35
18160,-3.8716,-0.6610,-0.3433,-1445.07,-392.03,1342.90
18170,-3.8717,-0.6224,-0.2759,-601.32,76.78,577.45
18180,-3.8718,-0.5842,-0.2021,336.18,701.90,311.95
18190,-3.8721,-0.5471,-0.1298,1226.81,-1860.53,-266.05
18200,-3.8722,-0.5067,-0.0663,1976.81,-594.85,1968.44
18210,-3.8724,-0.4584,-0.0137,-851.32,-469.79,-781.43
18220,-3.8726,-0.3931,0.0209,1336.18,-1735.29,249.94
18230,-3.8728,-0.3046,0.0350,1695.56,-1313.29,1687.50
18240,-3.8729,-0.1910,0.0381,1023.68,499.39,218.81
18250,-3.8732,-0.0424,0.0386,-445.07,890.20,-328.06
18260,-3.8732,0.1510,0.0425,-1413.82,953.00,468.81
18270,-3.8733,0.3701,0.0629,-663.82,1437.74,-203.06
18280,-3.8732,0.5967,0.1028,-616.94,47.55,1593.87
18290,-3.8730,0.8175,0.1461,383.06,1157.41,656.43
18300,-3.8729,1.0205,0.1819,648.68,-1295.29,500.24
18310,-3.8728,1.2057,0.2056,-1366.94,-716.80,1890.93
18320,-3.8726,1.3508,0.2206,-1663.82,-1685.18,-952.76
18330,-3.8721,1.4199,0.2404,914.31,237.00,1141.05
18340,-3.8716,1.3997,0.2609,1758.06,-1231.63,-1905.82
18350,-3.8711,1.3390,0.2719,-835.69,1393.31,-405.76
18360,-3.8705,1.3048,0.2791,-601.32,-1200.56,766.11
18370,-3.8700,1.3157,0.2924,-976.32,-278.75,906.74
18380,-3.8696,1.3707,0.3044,414.31,1424.44,-1952.58
18390,-3.8694,1.4613,0.2994,-538.82,-1028.63,-1327.58
18400,-3.8693,1.5491,0.2732,-945.07,-1669.07,-718.20
18410,-3.8691,1.5886,0.2388,-1710.69,-1028.26,594.24
18420,-3.8693,1.5558,0.2114,-648.19,-1434.45,-827.70
18430,-3.8694,1.4554,0.1835,-851.32,-934.51,-921.51
18440,-3.8696,1.3141,0.1501,-1695.07,-512.82,-234.07
18450,-3.8699,1.1553,0.1219,211.18,-778.69,1187.74
18460,-3.8702,0.9939,0.1038,-116.94,-388.43,31.43
18470,-3.8707,0.8456,0.0864,-773.19,1283.14,1047.06
18480,-3.8712,0.7213,0.0603,242.43,-935.85,1218.87
18490,-3.8717,0.6208,0.0166,336.18,-279.85,-1937.44
18500,-3.8721,0.5367,-0.0553,-523.19,-1873.84,1062.50
18510,-3.8724,0.4609,-0.1544,711.18,922.91,-1234.50
18520,-3.8727,0.3762,-0.2686,-991.94,235.23,-859.68
18530,-3.8728,0.2671,-0.3773,164.31,1625.73,-1328.67
18540,-3.8728,0.1395,-0.4684,-1804.44,-296.39,1842.96
18550,-3.8727,0.0088,-0.5522,1867.43,47.12,1077.21
18560,-3.8724,-0.1219,-0.6366,1133.06,1312.50,702.03
18570,-3.8721,-0.2617,-0.7194,398.68,-1468.99,498.72
18580,-3.8717,-0.4103,-0.7888,-1491.94,-63.05,-876.46
18590,-3.8712,-0.5631,-0.8243,-507.57,-953.98,-1251.59
18600,-3.8707,-0.7108,-0.8300,-70.07,-1501.16,-1767.27
18610,-3.8702,-0.8346,-0.8270,1023.68,1779.85,826.48
18620,-3.8699,-0.9253,-0.8340,1179.93,-1845.40,1076.48
18630,-3.8696,-0.9844,-0.8588,1570.56,1263.79,935.85
18640,-3.8696,-1.0143,-0.8903,-1991.94,-1908.20,-626.71
18650,-3.8696,-1.0220,-0.9041,-1820.07,-1939.51,920.10
18660,-3.8699,-1.0168,-0.8811,1195.56,294.86,-861.15
18670,-3.8701,-1.0006,-0.8206,1851.81,-767.64,-595.52
18680,-3.8704,-0.9742,-0.7369,-70.07,-1017.64,-1407.90
18690,-3.8706,-0.9380,-0.6471,-695.07,1685.55,1576.66
18700,-3.8708,-0.8928,-0.5671,-54.44,1185.61,904.97
18710,-3.8711,-0.8472,-0.5056,1726.81,-579.90,514.47
18720,-3.8713,-0.8077,-0.4575,-429.44,-704.83,967.71
18730,-3.8716,-0.7733,-0.4147,617.43,1451.54,-938.42
18740,-3.8717,-0.7336,-0.3746,1023.68,-1064.03,-1688.35
18750,-3.8718,-0.6818,-0.3392,-1898.19,61.04,1827.39
18760,-3.8719,-0.6190,-0.3033,742.43,592.41,1171.20
18770,-3.8721,-0.5529,-0.2635,773.68,1186.28,546.26
18780,-3.8722,-0.4904,-0.2260,1242.43,-1719.85,218.20
18790,-3.8723,-0.4353,-0.1931,1242.43,-907.23,30.76
18800,-3.8724,-0.3805,-0.1689,289.31,-703.98,77.70
18810,-3.8726,-0.3044,-0.1676,-695.07,-1610.17,280.88
18820,-3.8727,-0.1923,-0.1874,1039.31,-1438.11,702.76
18830,-3.8728,-0.0463,-0.2073,-601.32,30.82,1687.13
18840,-3.8729,0.1322,-0.2329,-1913.82,1484.25,-687.93
18850,-3.8729,0.3536,-0.2844,929.93,-1812.26,-1719.24
18860,-3.8729,0.6165,-0.3370,1273.68,-405.58,-203.74
18870,-3.8727,0.8951,-0.3507,-1085.69,860.53,1171.20
18880,-3.8724,1.1742,-0.3243,-1413.82,-888.92,-469.48
18890,-3.8719,1.4263,-0.2822,-1695.07,-1513.37,-813.17
18900,-3.8713,1.6075,-0.2611,-1429.44,-122.25,-1000.61
18910,-3.8706,1.6973,-0.2682,1773.68,-1418.76,358.83
18920,-3.8700,1.6802,-0.2744,1258.06,1675.17,796.33
18930,-3.8695,1.5642,-0.2704,-929.44,878.23,-828.67
18940,-3.8690,1.4102,-0.2555,226.81,1393.68,-1109.92
18950,-3.8687,1.2922,-0.2207,508.06,-700.38,-1234.92
18960,-3.8684,1.2490,-0.1815,1414.31,-247.50,1468.26
18970,-3.8684,1.2764,-0.1531,-116.94,768.01,-750.37
18980,-3.8684,1.3290,-0.1273,-616.94,408.69,1765.32
18990,-3.8685,1.3574,-0.1085,-1882.57,-294.31,-1797.18
19000,-3.8687,1.3419,-0.1029,1758.06,-1888.00,921.63
19010,-3.8689,1.2800,-0.1033,-226.32,-1169.31,1781.01
19020,-3.8693,1.1786,-0.1074,-148.19,-1216.31,-234.62
19030,-3.8696,1.0607,-0.1232,-1132.57,-1747.74,-1812.74
19040,-3.8701,0.9482,-0.1423,-226.32,236.39,-1875.24
19050,-3.8706,0.8508,-0.1516,1383.06,1783.08,1390.32
19060,-3.8711,0.7722,-0.1649,914.31,595.40,1718.44
19070,-3.8715,0.7015,-0.1926,-1148.19,-1107.91,921.51
19080,-3.8718,0.6216,-0.2266,1804.93,-654.91,-672.30
19090,-3.8721,0.5248,-0.2667,-429.44,-998.84,-391.11
19100,-3.8722,0.4159,-0.3186,-820.07,1860.35,936.95
19110,-3.8724,0.3116,-0.3822,1242.43,-780.46,-219.42
19120,-3.8724,0.2177,-0.4556,-101.32,-921.33,1202.33
19130,-3.8724,0.1199,-0.5347,-132.57,1687.87,1624.08
19140,-3.8723,-0.0026,-0.6162,-648.19,-437.32,436.40
19150,-3.8722,-0.1643,-0.6912,-320.07,1140.56,170.65
19160,-3.8722,-0.3524,-0.7454,-1023.19,-453.49,-360.78
19170,-3.8721,-0.5314,-0.7744,-1101.32,608.64,-360.84
19180,-3.8718,-0.6738,-0.7847,-7.57,889.53,1685.97
19190,-3.8716,-0.7760,-0.7878,1758.06,-423.22,1826.54
19200,-3.8713,-0.8439,-0.7937,679.93,-829.65,-814.09
19210,-3.8710,-0.8890,-0.8052,-7.57,-1579.83,1310.91
19220,-3.8707,-0.9264,-0.8164,-1788.82,951.35,-32.84
19230,-3.8704,-0.9589,-0.8229,1429.93,-486.21,-1986.02
19240,-3.8701,-0.9850,-0.8229,1273.68,-1314.39,-1704.77
19250,-3.8699,-1.0046,-0.8127,1929.93,-1314.45,232.73
19260,-3.8699,-1.0184,-0.7932,-585.69,-17.64,-907.90
19270,-3.8699,-1.0300,-0.7617,1648.68,-1517.64,-1579.71
19280,-3.8700,-1.0374,-0.7208,164.31,-1486.39,-1267.15
19290,-3.8701,-1.0316,-0.6771,-773.19,-252.08,920.41
19300,-3.8704,-1.0098,-0.6248,-38.82,1341.67,1701.78
19310,-3.8706,-0.9768,-0.5610,-1241.94,44.86,1795.65
19320,-3.8708,-0.9315,-0.5070,-1023.19,201.17,1748.90
19330,-3.8711,-0.8718,-0.4778,773.68,-876.83,1452.09
19340,-3.8713,-0.8096,-0.4607,414.31,-1142.33,889.65
19350,-3.8716,-0.7632,-0.4407,383.06,1045.29,874.08
19360,-3.8718,-0.7340,-0.4119,-1679.44,-392.15,-1750.92
19370,-3.8719,-0.7098,-0.3816,-1945.07,-704.59,1217.90
19380,-3.8721,-0.6819,-0.3573,1148.68,-829.53,1561.71
19390,-3.8722,-0.6390,-0.3444,726.81,-1720.09,-1844.48
19400,-3.8723,-0.5702,-0.3428,-1788.82,-63.78,1389.89
19410,-3.8726,-0.4784,-0.3385,-976.32,139.47,-1250.67
19420,-3.8728,-0.3724,-0.3292,-1226.32,686.52,-672.55
19430,-3.8729,-0.2428,-0.3300,336.18,1874.27,1093.08
19440,-3.8730,-0.0820,-0.3510,929.93,1780.76,514.95
19450,-3.8732,0.1044,-0.3765,1508.06,-906.43,405.52
19460,-3.8733,0.3202,-0.3898,1367.43,-187.32,1186.71
19470,-3.8733,0.6058,-0.4080,992.43,-1890.01,874.21
19480,-3.8732,1.0027,-0.4536,1554.93,-217.59,686.65
19490,-3.8729,1.4580,-0.4867,351.81,1939.45,-516.54
19500,-3.8722,1.7942,-0.4421,-1366.94,1705.93,1108.40
19510,-3.8713,1.8684,-0.3335,1664.31,-590.27,-1860.29
19520,-3.8705,1.7410,-0.2321,-835.69,1316.10,1171.20
19530,-3.8700,1.5870,-0.1864,-1148.19,-1699.77,-641.11
19540,-3.8698,1.5579,-0.2079,-851.32,143.68,-750.37
19550,-3.8698,1.6945,-0.2588,-585.69,1393.62,-281.68
19560,-3.8698,1.8917,-0.2505,898.68,-1121.70,1796.33
19570,-3.8698,2.0192,-0.1406,-1851.32,-58.84,15.08
19580,-3.8699,2.0428,0.0031,-1538.82,-1996.09,46.57
19590,-3.8701,1.9845,0.0911,1492.43,394.59,703.12
19600,-3.8704,1.8695,0.1010,-1976.32,-339.90,640.75
19610,-3.8706,1.7238,0.0568,-695.07,925.48,-1234.19
19620,-3.8706,1.5587,-0.0027,648.68,-731.02,15.69
19630,-3.8707,1.3774,-0.0389,-476.32,-340.76,-703.19
19640,-3.8707,1.1962,-0.0408,320.56,-981.69,-1531.37
19650,-3.8708,1.0486,-0.0292,1117.43,-1216.43,-1406.37
19660,-3.8711,0.9596,-0.0258,-1773.19,267.64,-1875.06
19670,-3.8715,0.9143,-0.0424,-1163.82,704.96,-1218.81
19680,-3.8717,0.8733,-0.0786,1039.31,-1420.10,249.88
19690,-3.8721,0.8096,-0.1283,-210.69,1939.15,-47.06
19700,-3.8722,0.7101,-0.1964,-366.94,-420.35,1249.69
19710,-3.8724,0.5880,-0.2909,-1101.32,-1139.28,-469.18
19720,-3.8726,0.4692,-0.4109,-726.32,-1233.28,-1000.61
19730,-3.8726,0.3475,-0.5477,70.56,-592.83,1155.40
19740,-3.8726,0.1893,-0.6699,492.43,1891.30,-672.97
19750,-3.8723,-0.0228,-0.7360,242.43,-1749.63,1451.78
19760,-3.8721,-0.2498,-0.7570,1086.18,1812.44,-1860.84
19770,-3.8718,-0.4319,-0.7952,39.31,-875.49,-814.03
19780,-3.8716,-0.5527,-0.8667,726.81,-1766.48,-720.34
19790,-3.8713,-0.6346,-0.8958,1258.06,1077.03,-892.33
19800,-3.8710,-0.6891,-0.8469,-1226.32,1358.09,1888.85
19810,-3.8705,-0.7202,-0.7988,-195.07,-392.03,1060.79
19820,-3.8700,-0.7395,-0.8148,-179.44,1764.16,1467.16
19830,-3.8696,-0.7556,-0.8646,1351.81,-282.71,-470.40
19840,-3.8693,-0.7766,-0.8940,-710.69,1342.22,1576.42
19850,-3.8691,-0.8003,-0.8870,601.81,1576.60,-1001.77
19860,-3.8691,-0.8125,-0.8594,1570.56,-1517.21,-283.02
19870,-3.8691,-0.8080,-0.8284,8.06,-1985.96,513.92
19880,-3.8694,-0.7983,-0.7867,586.18,1982.79,-1173.52
19890,-3.8695,-0.7998,-0.7240,1820.56,-689.09,232.79
19900,-3.8698,-0.8108,-0.6547,1633.06,-657.84,857.91
19910,-3.8701,-0.8148,-0.5978,226.81,217.16,-95.03
19920,-3.8704,-0.8046,-0.5543,-288.82,-501.65,-1860.60
19930,-3.8706,-0.7815,-0.5178,1023.68,1060.91,1217.65
19940,-3.8708,-0.7452,-0.4888,-23.19,1732.79,1811.46
19950,-3.8711,-0.6947,-0.4639,617.43,1451.66,-782.23
19960,-3.8712,-0.6403,-0.4329,-913.82,639.22,889.71
19970,-3.8715,-0.5994,-0.3933,-1945.07,608.09,-766.48
19980,-3.8716,-0.5753,-0.3467,-710.69,1670.65,-1953.92
19990,-3.8717,-0.5580,-0.3058,-1632.57,-360.53,1139.89
20000,-3.8718,-0.5303,-0.2792,586.18,873.90,811.89
20010,-3.8719,-0.4725,-0.2561,133.06,280.21,108.83
20020,-3.8722,-0.3794,-0.2345,-476.32,-766.60,1171.33
20030,-3.8724,-0.2739,-0.2164,-554.44,1999.21,358.89
20040,-3.8727,-0.1779,-0.2039,945.56,311.95,749.57
20050,-3.8729,-0.0806,-0.2029,1242.43,1921.51,-0.43
20060,-3.8729,0.0387,-0.2172,1695.56,-1953.31,1108.95
20070,-3.8730,0.1877,-0.2383,961.18,203.19,-1547.30
20080,-3.8732,0.3892,-0.2639,39.31,1500.37,-31.74
20090,-3.8732,0.6702,-0.2941,1820.56,-1780.52,-1625.55
20100,-3.8732,1.0267,-0.3079,1789.31,-1639.34,-1922.49
20110,-3.8730,1.4052,-0.2875,-570.07,595.70,1686.89
20120,-3.8728,1.7262,-0.2375,-132.57,-794.19,-672.49
20130,-3.8723,1.9481,-0.1774,961.18,1597.11,-1453.61
20140,-3.8717,2.0560,-0.1471,1367.43,1300.66,718.38
20150,-3.8712,2.0825,-0.1890,-820.07,1175.84,-703.43
20160,-3.8706,2.1151,-0.3062,-1429.44,-183.47,-891.05
20170,-3.8699,2.1792,-0.4415,-1257.57,816.59,686.89
20180,-3.8693,2.2213,-0.5155,-1054.44,-511.41,905.33
20190,-3.8689,2.2094,-0.5229,336.18,-1980.04,-391.66
20200,-3.8685,2.1284,-0.5109,-1195.07,1066.77,264.59
20210,-3.8684,1.9592,-0.4714,445.56,-1386.47,155.21
20220,-3.8685,1.7383,-0.3894,-1210.69,-339.97,827.15
20230,-3.8690,1.5516,-0.3035,-1491.94,-1840.39,-282.04
20240,-3.8696,1.4296,-0.2502,-1382.57,1159.24,-750.61
20250,-3.8702,1.3319,-0.2203,-1007.57,-28.50,171.33
20260,-3.8710,1.2301,-0.1909,-1507.57,-200.56,1640.14
20270,-3.8716,1.1182,-0.1676,1461.18,-435.12,1015.20
20280,-3.8722,0.9932,-0.1700,-866.94,-1450.99,-250.37
20290,-3.8726,0.8588,-0.2024,-866.94,-1763.73,-1125.37
20300,-3.8728,0.7267,-0.2604,1929.93,-1904.60,-1734.80
20310,-3.8729,0.6118,-0.3456,1023.68,-1326.72,1874.45
20320,-3.8729,0.5024,-0.4448,-1679.44,-233.22,1171.14
20330,-3.8729,0.3630,-0.5266,320.56,-936.52,-1422.79
20340,-3.8728,0.1826,-0.5896,-1523.19,594.42,14.59
20350,-3.8728,-0.0221,-0.6479,-616.94,531.56,920.72
20360,-3.8728,-0.2356,-0.6919,1179.93,1078.06,-1454.41
20370,-3.8727,-0.4286,-0.7219,1851.81,-547.36,-1142.03
20380,-3.8724,-0.5759,-0.7520,1148.68,-391.48,-1298.34
20390,-3.8722,-0.6926,-0.7759,-1710.69,-235.53,-251.53
20400,-3.8719,-0.7955,-0.7802,-648.19,701.72,-1392.15
20410,-3.8718,-0.8708,-0.7794,-1820.07,154.66,-954.65
20420,-3.8717,-0.9150,-0.7964,539.31,248.29,-485.90
20430,-3.8715,-0.9510,-0.8158,-1116.94,-1923.71,1451.54
20440,-3.8712,-0.9868,-0.8232,-1726.32,-408.14,935.85
20450,-3.8710,-1.0122,-0.8262,1695.56,-1361.33,1326.48
20460,-3.8707,-1.0432,-0.8182,-1554.44,-1736.39,935.85
20470,-3.8706,-1.0824,-0.7817,-1523.19,-720.83,-907.90
20480,-3.8705,-1.1179,-0.7279,1461.18,-49.01,-126.59
20490,-3.8704,-1.1541,-0.6819,914.31,-1158.45,-1501.46
20500,-3.8704,-1.1809,-0.6501,289.31,732.12,-1501.34
20510,-3.8704,-1.1787,-0.6295,851.81,794.56,514.34
20520,-3.8706,-1.1483,-0.6024,1133.06,-564.82,-188.78
20530,-3.8708,-1.1017,-0.5500,1023.68,-1096.01,-1360.60
20540,-3.8712,-1.0372,-0.4805,-1007.57,1607.18,-1813.60
20550,-3.8716,-0.9539,-0.4221,-757.57,-1486.45,1452.15
20560,-3.8719,-0.8579,-0.3859,1914.31,1982.48,-1453.98
20570,-3.8722,-0.7648,-0.3575,-1804.44,-1376.71,-1313.29
20580,-3.8723,-0.6913,-0.3241,-1882.57,-1751.53,-1735.11
20590,-3.8724,-0.6376,-0.2938,-476.32,-1470.15,-78.80
20600,-3.8724,-0.5930,-0.2737,-1601.32,-1595.03,1405.64
20610,-3.8726,-0.5406,-0.2610,101.81,983.22,-1688.05
20620,-3.8727,-0.4700,-0.2538,-1195.07,-1391.72,-766.17
20630,-3.8727,-0.3927,-0.2471,-148.19,-469.73,327.58
20640,-3.8728,-0.3083,-0.2450,1742.43,389.83,-1984.86
20650,-3.8729,-0.1945,-0.2516,539.31,655.64,-31.74
20660,-3.8729,-0.0405,-0.2509,-882.57,-187.93,1343.20
20670,-3.8730,0.1665,-0.2439,-1179.44,-93.87,1233.83
20680,-3.8733,0.4515,-0.2545,1320.56,781.56,-219.24
20690,-3.8733,0.8115,-0.2755,1804.93,-577.27,671.33
20700,-3.8732,1.1809,-0.2815,-116.94,735.90,483.83
20710,-3.8729,1.5038,-0.2742,-835.69,-28.99,-156.86
20720,-3.8723,1.7423,-0.2738,492.43,909.18,874.45
20730,-3.8717,1.8663,-0.2773,-976.32,956.48,1140.08
20740,-3.8711,1.9193,-0.2683,-1101.32,503.60,171.33
20750,-3.8707,1.9684,-0.2480,1679.93,1659.97,-375.55
20760,-3.8702,2.0404,-0.2109,-38.82,253.78,1296.39
20770,-3.8699,2.1228,-0.1443,1179.93,1003.97,-875.43
20780,-3.8694,2.1844,-0.0634,-273.19,1535.34,359.07
20790,-3.8691,2.1868,-0.0015,-382.57,-105.16,-1156.43
20800,-3.8689,2.1166,0.0115,-85.69,-183.29,1656.19
20810,-3.8688,1.9818,-0.0385,-1070.07,1472.84,1125.00
20820,-3.8688,1.7953,-0.1211,1679.93,-918.03,-1422.00
20830,-3.8688,1.6010,-0.1991,1804.93,503.48,1937.26
20840,-3.8689,1.4241,-0.2550,929.93,-1481.26,-1594.18
20850,-3.8691,1.2574,-0.2692,-1710.69,-637.88,-1828.67
20860,-3.8696,1.1168,-0.2537,961.18,1549.32,-1594.30
20870,-3.8702,1.0024,-0.2402,-1038.82,-466.61,718.20
20880,-3.8710,0.8917,-0.2294,320.56,1251.95,1702.64
20890,-3.8716,0.7806,-0.2146,-1851.32,-1357.67,265.14
20900,-3.8722,0.6666,-0.2050,-70.07,532.71,-1281.68
20910,-3.8726,0.5410,-0.2087,1336.18,1766.91,-1703.55
20920,-3.8728,0.4086,-0.2373,1258.06,1282.29,1577.70
20930,-3.8730,0.2852,-0.2917,304.93,1625.79,-172.36
20940,-3.8730,0.1541,-0.3481,508.06,-1343.20,1468.14
20950,-3.8730,-0.0157,-0.3782,-273.19,-562.26,999.27
20960,-3.8730,-0.2112,-0.3815,1992.43,-390.69,499.21
20970,-3.8732,-0.3929,-0.3727,976.81,-812.93,-516.42
20980,-3.8732,-0.5444,-0.3722,1711.18,311.71,-1203.86
20990,-3.8732,-0.6509,-0.4016,-1679.44,373.90,-188.23
21000,-3.8730,-0.7034,-0.4471,695.56,608.09,-469.54
21010,-3.8728,-0.7350,-0.4786,1976.81,-1220.15,1249.08
21020,-3.8727,-0.7596,-0.5029,1929.93,-1251.46,-407.23
21030,-3.8724,-0.7788,-0.5490,-1226.32,-360.90,-1344.79
21040,-3.8722,-0.8097,-0.5957,320.56,1748.47,-969.85
21050,-3.8719,-0.8650,-0.6113,367.43,-235.96,-485.60
21060,-3.8717,-0.9486,-0.6069,1289.31,1763.92,1795.65
21070,-3.8716,-1.0597,-0.6040,-1413.82,-1673.77,-829.35
21080,-3.8713,-1.1858,-0.6189,367.43,-1298.95,-907.47
21090,-3.8710,-1.2837,-0.6729,226.81,794.56,1811.28
21100,-3.8706,-1.3235,-0.7533,-304.44,1888.06,733.03
21110,-3.8704,-1.3280,-0.7966,-1398.19,-408.87,1264.10
21120,-3.8702,-1.3289,-0.7646,-1976.32,-1955.75,670.29
21130,-3.8704,-1.3105,-0.6945,1914.31,-1862.00,1639.10
21140,-3.8706,-1.2450,-0.6429,258.06,-877.56,1795.47
21150,-3.8710,-1.1443,-0.6085,648.68,1716.31,-454.41
21160,-3.8712,-1.0419,-0.5573,1539.31,-1877.26,811.28
21170,-3.8716,-0.9479,-0.4916,-1351.32,685.42,-1376.10
21180,-3.8718,-0.8566,-0.4376,-1320.07,1091.86,702.15
21190,-3.8722,-0.7727,-0.3977,-1632.57,-1.71,-1188.42
21200,-3.8724,-0.7039,-0.3683,1101.81,1107.85,-1657.04
21210,-3.8726,-0.6334,-0.3595,1914.31,873.60,999.27
21220,-3.8727,-0.5399,-0.3622,-1070.07,1998.72,-688.23
21230,-3.8727,-0.4249,-0.3539,-1101.32,1655.15,-1078.86
21240,-3.8727,-0.2983,-0.3356,1617.43,-1282.10,702.39
21250,-3.8728,-0.1687,-0.3171,1820.56,1061.89,468.08
21260,-3.8729,-0.0475,-0.3052,-1585.69,-578.49,108.70
21270,-3.8730,0.0781,-0.3094,1929.93,953.00,1296.26
21280,-3.8730,0.2434,-0.3228,-1991.94,390.75,468.14
21290,-3.8730,0.4543,-0.3346,-835.69,-1312.07,1999.33
21300,-3.8729,0.6906,-0.3456,-1835.69,1172.73,-1406.92
21310,-3.8727,0.9233,-0.3527,398.68,-233.03,-1891.36
21320,-3.8724,1.1339,-0.3390,-1804.44,-1138.85,-656.98
21330,-3.8721,1.3207,-0.3059,1148.68,611.57,1639.95
21340,-3.8717,1.4836,-0.2753,1054.93,846.31,655.64
21350,-3.8715,1.6317,-0.2460,1914.31,768.49,-531.80
21360,-3.8711,1.7648,-0.2104,867.43,518.80,874.51
21370,-3.8708,1.8827,-0.1791,1898.68,1065.92,1187.07
21380,-3.8706,1.9911,-0.1527,992.43,1081.79,-1922.24
21390,-3.8704,2.0781,-0.1134,-1132.57,456.97,-47.18
21400,-3.8700,2.1337,-0.0784,-1991.94,1488.40,1781.01
21410,-3.8698,2.1521,-0.0726,1117.43,1972.90,-1937.68
21420,-3.8695,2.1013,-0.0686,-523.19,-1292.72,93.57
21430,-3.8695,1.9520,-0.0350,976.81,-777.16,-687.68
21440,-3.8695,1.7349,0.0035,1867.43,-480.59,-453.25
21450,-3.8695,1.5172,0.0061,-1929.44,456.48,1125.00
21460,-3.8698,1.3391,-0.0253,-1788.82,784.18,-437.50
21470,-3.8700,1.1969,-0.0596,-585.69,768.19,1828.06
21480,-3.8705,1.0813,-0.0729,1211.18,377.32,-297.00
21490,-3.8710,0.9956,-0.0665,-1585.69,-1326.05,-750.18
21500,-3.8715,0.9310,-0.0596,-554.44,-513.73,-250.18
21510,-3.8718,0.8650,-0.0679,-820.07,376.77,-750.12
21520,-3.8721,0.7792,-0.0963,-1273.19,-685.85,1687.32
21530,-3.8723,0.6710,-0.1472,-257.57,-326.66,-1656.49
21540,-3.8724,0.5496,-0.2151,1898.68,1157.53,859.07
21550,-3.8726,0.4178,-0.2821,-1648.19,469.79,1249.57
21560,-3.8727,0.2864,-0.3442,1492.43,-108.58,-203.74
21570,-3.8726,0.1656,-0.4022,664.31,-61.95,186.77
21580,-3.8726,0.0525,-0.4481,1211.18,515.93,905.46
21590,-3.8726,-0.0538,-0.4943,-1273.19,-1359.31,827.21
21600,-3.8727,-0.1531,-0.5533,1117.43,749.88,-625.98
21610,-3.8727,-0.2484,-0.6193,414.31,1187.19,1452.03
21620,-3.8727,-0.3401,-0.6791,211.18,749.51,264.40
21630,-3.8727,-0.4309,-0.7201,476.81,1093.08,217.41
21640,-3.8727,-0.5131,-0.7550,851.81,-157.10,1764.16
21650,-3.8726,-0.5691,-0.7982,-1663.82,-626.04,1123.47
21660,-3.8723,-0.6035,-0.8348,-835.69,1842.59,139.04
21670,-3.8719,-0.6334,-0.8528,-1241.94,1155.03,1529.60
21680,-3.8713,-0.6636,-0.8696,-1070.07,-1141.91,263.92
21690,-3.8708,-0.6899,-0.9062,-929.44,701.78,-376.71
21700,-3.8702,-0.7142,-0.9552,-304.44,14.22,795.10
21710,-3.8699,-0.7406,-1.0074,586.18,1748.60,-767.52
21720,-3.8695,-0.7710,-1.0668,1211.18,-938.96,-1955.14
21730,-3.8693,-0.8184,-1.1089,1320.56,-532.78,1138.49
21740,-3.8691,-0.8876,-1.1077,-741.94,-1923.52,1216.55
21750,-3.8691,-0.9633,-1.0742,-1601.32,-1767.40,1325.93
21760,-3.8694,-1.0225,-1.0234,711.18,-1486.27,-705.26
21770,-3.8698,-1.0490,-0.9552,1133.06,1013.61,-1205.14
21780,-3.8702,-1.0383,-0.8796,1742.43,1747.92,-1814.39
21790,-3.8707,-0.9879,-0.8107,-898.19,-580.20,545.10
21800,-3.8712,-0.9095,-0.7495,1554.93,248.05,76.54
21810,-3.8717,-0.8250,-0.7059,-413.82,76.29,-970.21
21820,-3.8719,-0.7456,-0.6753,-1585.69,1654.60,1982.97
21830,-3.8722,-0.6765,-0.6399,570.56,1576.66,-204.47
21840,-3.8723,-0.6232,-0.5940,1414.31,-1891.97,-626.28
21850,-3.8723,-0.5839,-0.5481,242.43,-16.85,139.40
21860,-3.8724,-0.5463,-0.5170,1273.68,1858.22,1702.03
21870,-3.8726,-0.4991,-0.4934,-1913.82,1842.65,-141.66
21880,-3.8726,-0.4341,-0.4622,117.43,858.40,-1485.35
21890,-3.8726,-0.3422,-0.4243,445.56,858.52,670.96
21900,-3.8727,-0.2178,-0.3972,211.18,1702.45,1124.15
21910,-3.8729,-0.0529,-0.3921,133.06,1171.45,-250.79
21920,-3.8730,0.1531,-0.4043,1242.43,1828.00,-1516.42
21930,-3.8732,0.3956,-0.4224,-398.19,250.24,-438.29
21940,-3.8730,0.6847,-0.4319,-1351.32,1938.23,233.52
21950,-3.8729,0.9940,-0.4131,-351.32,720.03,999.15
21960,-3.8727,1.2583,-0.3433,-757.57,-873.11,-1578.98
21970,-3.8722,1.4432,-0.2378,1070.56,64.94,61.83
21980,-3.8718,1.5658,-0.1377,742.43,1565.31,-609.86
21990,-3.8713,1.6708,-0.0527,429.93,-1621.95,1952.82
22000,-3.8710,1.7981,0.0315,1867.43,1253.23,-1812.62
22010,-3.8706,1.9507,0.1111,-1835.69,34.73,1265.69
22020,-3.8702,2.0892,0.1919,1695.56,-1777.47,1828.31
22030,-3.8699,2.1598,0.2880,-570.07,566.53,-359.01
22040,-3.8694,2.1442,0.3540,461.18,863.59,94.30
22050,-3.8691,2.0664,0.3429,-1538.82,1316.65,610.05
22060,-3.8690,1.9443,0.2781,508.06,-105.35,0.61
22070,-3.8691,1.7866,0.2086,883.06,-402.47,-1280.76
22080,-3.8693,1.6145,0.1572,695.56,-1293.40,-1952.76
22090,-3.8695,1.4598,0.1198,-1335.69,128.11,-1374.69
22100,-3.8698,1.3372,0.0909,-1132.57,-669.07,500.18
22110,-3.8702,1.2351,0.0654,-835.69,-356.81,-656.13
22120,-3.8707,1.1431,0.0359,-1898.19,377.38,-437.38
22130,-3.8712,1.0516,0.0061,-1679.44,595.95,-531.19
22140,-3.8716,0.9501,-0.0261,-1382.57,783.26,1015.62
22150,-3.8719,0.8383,-0.0765,1617.43,658.08,1046.81
22160,-3.8722,0.7174,-0.1560,-695.07,-1795.29,77.94
22170,-3.8724,0.5833,-0.2638,-163.82,32.59,-1828.43
22180,-3.8726,0.4404,-0.3926,-1335.69,-1764.53,-578.67
22190,-3.8724,0.2953,-0.5249,383.06,1750.85,202.33
22200,-3.8724,0.1420,-0.6295,1804.93,813.05,-1032.29
22210,-3.8723,-0.0151,-0.6964,-1820.07,-577.88,1826.84
22220,-3.8722,-0.1526,-0.7687,-1929.44,-1125.06,1170.47
22230,-3.8721,-0.2715,-0.8656,476.81,1624.69,1139.10
22240,-3.8719,-0.3956,-0.9456,1258.06,1218.20,1185.79
22250,-3.8718,-0.5315,-0.9830,1367.43,-1016.42,1576.23
22260,-3.8717,-0.6680,-0.9946,-23.19,-1813.60,-1580.08
22270,-3.8716,-0.7866,-1.0059,-1491.94,701.78,-1.95
22280,-3.8713,-0.8787,-1.0215,-679.44,-735.96,-1267.64
22290,-3.8711,-0.9497,-1.0336,-460.69,1263.85,1935.49
22300,-3.8708,-1.0046,-1.0461,-1554.44,-283.14,372.92
22310,-3.8707,-1.0513,-1.0576,-585.69,-1892.64,1763.55
22320,-3.8706,-1.0861,-1.0500,1445.56,638.55,-1267.70
22330,-3.8705,-1.1002,-1.0128,992.43,1607.24,-1220.83
22340,-3.8704,-1.1024,-0.9539,-820.07,-1627.20,107.36
22350,-3.8705,-1.1002,-0.8887,-1101.32,1919.68,1482.48
22360,-3.8707,-1.0933,-0.8224,-820.07,-1736.57,-189.27
22370,-3.8708,-1.0770,-0.7493,70.56,-1252.14,201.48
22380,-3.8712,-1.0437,-0.6757,-1851.32,107.24,-938.96
22390,-3.8715,-0.9884,-0.6135,-1585.69,1529.17,1342.41
22400,-3.8717,-0.9209,-0.5588,1492.43,1482.42,467.53
22410,-3.8719,-0.8499,-0.5083,-1866.94,482.54,1483.28
22420,-3.8722,-0.7705,-0.4736,-773.19,-1048.58,-344.79
22430,-3.8723,-0.6846,-0.4553,1383.06,-610.90,1780.27
22440,-3.8724,-0.6056,-0.4265,383.06,1733.03,795.96
22450,-3.8726,-0.5503,-0.3687,-1507.57,1420.65,1671.02
22460,-3.8727,-0.5150,-0.3013,1570.56,827.03,-219.48
22470,-3.8727,-0.4717,-0.2526,-1913.82,1452.09,-1750.61
22480,-3.8728,-0.3954,-0.2291,-366.94,-313.48,-438.05
22490,-3.8729,-0.2725,-0.2290,1398.68,-1313.29,-1203.61
22500,-3.8730,-0.0938,-0.2472,1133.06,-1297.42,921.39
22510,-3.8733,0.1516,-0.2770,8.06,374.82,-328.61
22520,-3.8733,0.4630,-0.2957,-585.69,547.12,421.33
22530,-3.8733,0.8312,-0.2820,-726.32,-1842.90,1608.76
22540,-3.8732,1.2175,-0.2355,-1601.32,-92.16,-0.61
22550,-3.8728,1.5532,-0.1575,-148.19,1861.69,1437.01
22560,-3.8724,1.7693,-0.0748,-1179.44,-153.26,1437.13
22570,-3.8721,1.8633,-0.0165,-1523.19,-1574.71,-250.18
22580,-3.8716,1.8972,0.0162,-1491.94,1894.23,-1312.56
22590,-3.8711,1.9209,0.0481,-1148.19,-1918.21,-1890.62
22600,-3.8706,1.9551,0.1117,1883.06,-1840.03,-171.81
22610,-3.8700,1.9910,0.2175,-1741.94,-1699.34,-109.19
22620,-3.8694,2.0012,0.3284,-1148.19,-152.40,-624.63
22630,-3.8689,1.9653,0.3522,164.31,-1964.84,-905.64
22640,-3.8685,1.8817,0.2611,-429.44,1081.91,610.05
22650,-3.8685,1.7527,0.1434,867.43,1425.54,-1327.64
22660,-3.8687,1.5864,0.0730,351.81,-1637.21,-1077.88
22670,-3.8689,1.4048,0.0387,-929.44,1346.80,-687.38
22680,-3.8693,1.2368,0.0060,-179.44,955.81,-265.56
22690,-3.8696,1.0874,-0.0291,-1679.44,768.01,203.12
