timestamp_ms,ax,ay,az,gx,gy,gz
0,-3.8743,-0.2545,-0.9293,-773.19,1108.83,-1236.21
10,-3.8743,-0.2537,-0.9291,-570.07,1061.95,-1267.46
20,-3.8743,-0.2533,-0.9290,-460.69,1093.20,-1204.96
30,-3.8743,-0.2532,-0.9287,-413.82,1108.83,-1173.71
40,-3.8743,-0.2542,-0.9280,-398.19,1140.08,-1173.71
50,-3.8743,-0.2561,-0.9274,-523.19,1233.83,-1251.83
60,-3.8743,-0.2581,-0.9281,-773.19,1311.95,-1376.83
70,-3.8743,-0.2590,-0.9294,-1023.19,1218.20,-1439.33
80,-3.8743,-0.2600,-0.9298,-1148.19,1046.33,-1517.46
90,-3.8743,-0.2604,-0.9291,-1273.19,999.45,-1626.83
100,-3.8743,-0.2605,-0.9281,-1320.07,1093.20,-1642.46
110,-3.8743,-0.2607,-0.9274,-1335.69,1218.20,-1595.58
120,-3.8743,-0.2599,-0.9268,-1366.94,1311.95,-1470.58
130,-3.8743,-0.2589,-0.9266,-1257.57,1390.08,-1329.96
140,-3.8743,-0.2585,-0.9268,-1132.57,1405.70,-1376.83
150,-3.8743,-0.2589,-0.9274,-1085.69,1390.08,-1626.83
160,-3.8743,-0.2596,-0.9286,-1132.57,1311.95,-1892.46
170,-3.8743,-0.2603,-0.9302,-1226.32,1155.70,-1986.21
180,-3.8743,-0.2604,-0.9312,-1304.44,952.58,-1892.46
190,-3.8743,-0.2594,-0.9314,-1320.07,827.58,-1658.08
200,-3.8743,-0.2581,-0.9315,-1195.07,796.33,-1486.21
210,-3.8743,-0.2578,-0.9315,-1023.19,780.70,-1439.33
220,-3.8743,-0.2584,-0.9310,-991.94,780.70,-1423.71
230,-3.8743,-0.2588,-0.9305,-1070.07,843.20,-1517.46
240,-3.8743,-0.2589,-0.9310,-1116.94,905.70,-1642.46
250,-3.8743,-0.2592,-0.9319,-1132.57,843.20,-1626.83
260,-3.8743,-0.2583,-0.9319,-1163.82,733.83,-1345.58
270,-3.8743,-0.2574,-0.9316,-1054.44,733.83,-1048.71
280,-3.8743,-0.2583,-0.9310,-945.07,765.08,-892.46
290,-3.8743,-0.2605,-0.9288,-1054.44,843.20,-939.33
300,-3.8743,-0.2633,-0.9244,-1335.69,1124.45,-1283.08
310,-3.8743,-0.2656,-0.9197,-1695.07,1686.95,-1829.96
320,-3.8743,-0.2677,-0.9160,-1991.94,-1703.67,1482.54
330,-3.8743,-0.2700,-0.9141,1742.43,-1234.92,810.67
340,-3.8743,-0.2711,-0.9139,1445.56,-984.92,451.29
350,-3.8743,-0.2701,-0.9160,1304.93,-969.30,451.29
360,-3.8743,-0.2687,-0.9198,1429.93,-1234.92,795.04
370,-3.8743,-0.2673,-0.9238,1617.43,-1719.30,1295.04
380,-3.8743,-0.2656,-0.9283,1789.31,1765.08,1670.04
390,-3.8743,-0.2653,-0.9324,-1991.94,1186.95,-1970.58
400,-3.8743,-0.2668,-0.9354,-1945.07,671.33,-1673.71
410,-3.8743,-0.2703,-0.9379,1851.81,280.70,-1486.21
420,-3.8743,-0.2734,-0.9391,1414.31,-31.80,-1345.64
430,-3.8743,-0.2748,-0.9387,1008.06,-188.05,-1220.64
440,-3.8743,-0.2745,-0.9377,836.18,-141.17,-1111.27
450,-3.8743,-0.2733,-0.9364,867.43,-16.17,-1126.89
460,-3.8743,-0.2725,-0.9333,1023.68,155.70,-1376.83
470,-3.8743,-0.2728,-0.9296,1133.06,546.33,-1876.83
480,-3.8743,-0.2721,-0.9261,1086.18,1030.70,1404.42
490,-3.8743,-0.2700,-0.9238,1179.93,1468.20,529.42
500,-3.8744,-0.2676,-0.9237,1445.56,1765.08,-236.21
510,-3.8744,-0.2645,-0.9244,1758.06,1780.70,-736.21
520,-3.8744,-0.2617,-0.9244,-1851.32,1686.95,-908.08
530,-3.8744,-0.2582,-0.9238,-1491.94,1686.95,-626.83
540,-3.8743,-0.2550,-0.9232,-1038.82,1765.08,60.67
550,-3.8743,-0.2546,-0.9237,-632.57,1843.20,779.42
560,-3.8743,-0.2570,-0.9250,-585.69,1780.70,1154.42
570,-3.8743,-0.2616,-0.9249,-882.57,1608.83,1154.42
580,-3.8743,-0.2681,-0.9238,-1476.32,1624.45,951.29
590,-3.8743,-0.2736,-0.9233,1695.56,1765.08,623.17
600,-3.8743,-0.2769,-0.9243,992.43,1827.58,435.67
610,-3.8743,-0.2788,-0.9270,570.56,1702.58,607.54
620,-3.8743,-0.2800,-0.9291,320.56,1358.83,1013.79
630,-3.8743,-0.2806,-0.9298,164.31,1093.20,1513.79
640,-3.8743,-0.2809,-0.9301,86.18,999.45,1935.67
650,-3.8743,-0.2805,-0.9305,54.93,968.20,-1908.08
660,-3.8743,-0.2783,-0.9318,101.81,905.70,-1970.58
670,-3.8743,-0.2751,-0.9321,383.06,749.45,1888.79
680,-3.8743,-0.2726,-0.9314,789.31,702.58,1685.67
690,-3.8743,-0.2714,-0.9292,1117.43,796.33,1482.54
700,-3.8743,-0.2717,-0.9274,1273.68,1077.58,1248.17
710,-3.8743,-0.2722,-0.9280,1226.81,1311.95,1091.92
720,-3.8743,-0.2712,-0.9287,1164.31,1233.83,1013.79
730,-3.8743,-0.2679,-0.9279,1289.31,1140.08,935.67
740,-3.8743,-0.2642,-0.9264,1711.18,1249.45,1232.54
750,-3.8743,-0.2620,-0.9254,-1804.44,1436.95,1701.29
760,-3.8743,-0.2623,-0.9252,-1523.19,1561.95,1732.54
770,-3.8743,-0.2655,-0.9249,-1570.07,1593.20,1326.29
780,-3.8743,-0.2700,-0.9242,-1976.32,1624.45,841.92
790,-3.8743,-0.2748,-0.9235,1445.56,1718.20,435.67
800,-3.8743,-0.2781,-0.9233,836.18,1811.95,170.04
810,-3.8743,-0.2799,-0.9243,414.31,1827.58,154.42
820,-3.8743,-0.2810,-0.9257,179.93,1702.58,435.67
830,-3.8743,-0.2814,-0.9265,39.31,1530.70,841.92
840,-3.8743,-0.2802,-0.9277,-7.57,1421.26,1185.67
850,-3.8743,-0.2775,-0.9287,148.68,1265.08,1404.42
860,-3.8743,-0.2747,-0.9293,492.43,1140.08,1576.29
870,-3.8743,-0.2720,-0.9297,851.81,1061.95,1654.42
880,-3.8743,-0.2700,-0.9297,1195.56,1015.08,1513.79
890,-3.8743,-0.2700,-0.9287,1445.56,1015.08,1263.79
900,-3.8743,-0.2717,-0.9283,1445.56,1140.08,1060.67
910,-3.8743,-0.2733,-0.9286,1226.81,1186.95,935.67
920,-3.8743,-0.2734,-0.9282,1023.68,1155.70,841.92
930,-3.8743,-0.2728,-0.9280,1008.06,1202.58,763.79
940,-3.8743,-0.2725,-0.9274,1086.18,1233.83,779.42
950,-3.8743,-0.2721,-0.9259,1133.06,1311.95,920.04
960,-3.8743,-0.2719,-0.9247,1179.93,1499.45,1013.79
970,-3.8743,-0.2711,-0.9244,1211.18,1655.70,920.04
980,-3.8743,-0.2700,-0.9247,1304.93,1686.95,716.92
990,-3.8743,-0.2699,-0.9255,1445.56,1655.70,529.42
1000,-3.8743,-0.2704,-0.9265,1461.18,1546.33,451.29
1010,-3.8743,-0.2699,-0.9260,1398.68,1421.33,529.42
1020,-3.8743,-0.2698,-0.9249,1461.18,1483.83,873.17
1030,-3.8743,-0.2708,-0.9250,1476.81,1624.45,1248.17
1040,-3.8743,-0.2723,-0.9259,1351.81,1608.83,1435.67
1050,-3.8743,-0.2736,-0.9259,1148.68,1499.45,1341.92
1060,-3.8743,-0.2743,-0.9258,992.43,1499.45,1091.92
1070,-3.8743,-0.2747,-0.9255,898.68,1515.08,873.17
1080,-3.8743,-0.2759,-0.9258,851.81,1546.33,810.67
1090,-3.8743,-0.2772,-0.9270,695.56,1515.08,763.79
1100,-3.8743,-0.2772,-0.9276,523.68,1358.83,810.67
1110,-3.8743,-0.2769,-0.9280,523.68,1280.70,998.17
1120,-3.8743,-0.2766,-0.9282,570.56,1233.83,1216.92
1130,-3.8743,-0.2762,-0.9274,601.81,1202.58,1326.29
1140,-3.8743,-0.2759,-0.9268,648.68,1311.95,1170.04
1150,-3.8743,-0.2756,-0.9260,695.56,1390.08,841.92
1160,-3.8743,-0.2747,-0.9249,726.81,1483.83,498.17
1170,-3.8743,-0.2734,-0.9248,851.81,1624.45,295.04
1180,-3.8743,-0.2726,-0.9252,1008.06,1640.08,326.29
1190,-3.8743,-0.2721,-0.9259,1117.43,1593.20,529.42
1200,-3.8743,-0.2721,-0.9263,1179.93,1499.45,732.54
1210,-3.8743,-0.2723,-0.9265,1179.93,1452.58,966.92
1220,-3.8743,-0.2720,-0.9276,1148.68,1421.33,1123.17
1230,-3.8743,-0.2722,-0.9296,1195.56,1280.70,982.54
1240,-3.8743,-0.2733,-0.9309,1164.31,1030.70,685.67
1250,-3.8743,-0.2743,-0.9303,1023.68,858.83,529.42
1260,-3.8743,-0.2751,-0.9287,898.68,936.95,623.17
1270,-3.8743,-0.2760,-0.9280,789.31,1140.08,810.67
1280,-3.8743,-0.2766,-0.9276,679.93,1233.83,951.29
1290,-3.8743,-0.2767,-0.9264,601.81,1280.70,920.04
1300,-3.8743,-0.2761,-0.9243,586.18,1436.95,810.67
1310,-3.8743,-0.2747,-0.9225,664.31,1702.58,670.04
1320,-3.8743,-0.2736,-0.9226,851.81,1936.95,451.29
1330,-3.8743,-0.2727,-0.9242,992.43,1921.33,216.92
1340,-3.8743,-0.2719,-0.9260,1101.81,1718.20,13.79
1350,-3.8744,-0.2717,-0.9277,1211.18,1483.83,-64.33
1360,-3.8743,-0.2720,-0.9286,1226.81,1265.08,91.92
1370,-3.8743,-0.2725,-0.9285,1195.56,1155.70,466.92
1380,-3.8743,-0.2737,-0.9279,1133.06,1171.33,888.79
1390,-3.8743,-0.2749,-0.9269,976.81,1249.45,1232.54
1400,-3.8743,-0.2748,-0.9261,820.56,1374.45,1451.29
1410,-3.8743,-0.2745,-0.9254,836.18,1468.20,1466.92
1420,-3.8743,-0.2753,-0.9247,867.43,1561.95,1216.92
1430,-3.8743,-0.2766,-0.9244,773.68,1655.70,920.04
1440,-3.8743,-0.2776,-0.9252,601.81,1686.95,670.04
1450,-3.8743,-0.2778,-0.9259,476.81,1593.20,466.92
1460,-3.8743,-0.2777,-0.9263,445.56,1499.45,420.04
1470,-3.8743,-0.2784,-0.9259,461.18,1452.58,482.54
1480,-3.8743,-0.2795,-0.9254,367.43,1499.45,513.79
1490,-3.8743,-0.2794,-0.9258,226.81,1561.95,513.79
1500,-3.8743,-0.2771,-0.9261,242.43,1515.08,529.42
1510,-3.8743,-0.2734,-0.9264,539.31,1468.20,576.29
1520,-3.8743,-0.2703,-0.9264,1008.06,1436.95,701.29
1530,-3.8743,-0.2693,-0.9268,1414.31,1436.95,857.54
1540,-3.8743,-0.2698,-0.9277,1539.31,1390.08,935.67
1550,-3.8743,-0.2715,-0.9282,1476.81,1265.08,998.17
1560,-3.8743,-0.2750,-0.9280,1258.06,1202.58,1045.04
1570,-3.8743,-0.2791,-0.9265,804.93,1233.83,951.29
1580,-3.8743,-0.2821,-0.9252,289.31,1421.33,826.29
1590,-3.8743,-0.2827,-0.9249,-101.32,1593.14,810.67
1600,-3.8743,-0.2812,-0.9252,-179.44,1624.39,763.79
1610,-3.8743,-0.2793,-0.9260,8.06,1593.20,607.54
1620,-3.8743,-0.2770,-0.9271,258.06,1483.83,529.42
1630,-3.8743,-0.2748,-0.9274,554.93,1343.20,638.79
1640,-3.8743,-0.2734,-0.9265,836.18,1311.95,685.67
1650,-3.8743,-0.2723,-0.9254,1008.06,1421.33,576.29
1660,-3.8743,-0.2721,-0.9249,1148.68,1561.95,591.92
1670,-3.8743,-0.2733,-0.9248,1179.93,1624.45,638.79
1680,-3.8743,-0.2755,-0.9247,1023.68,1640.08,591.92
1690,-3.8743,-0.2776,-0.9247,742.43,1655.70,591.92
1700,-3.8743,-0.2789,-0.9252,476.81,1655.70,513.79
1710,-3.8743,-0.2797,-0.9266,304.93,1593.20,326.29
1720,-3.8743,-0.2794,-0.9281,211.18,1405.70,170.04
1730,-3.8743,-0.2769,-0.9292,242.43,1218.20,201.29
1740,-3.8743,-0.2740,-0.9292,570.56,1077.58,498.17
1750,-3.8743,-0.2731,-0.9286,929.93,1077.58,857.54
1760,-3.8743,-0.2721,-0.9287,1054.93,1155.70,998.17
1770,-3.8743,-0.2710,-0.9282,1179.93,1140.08,1060.67
1780,-3.8743,-0.2706,-0.9270,1320.56,1202.58,1045.04
1790,-3.8743,-0.2712,-0.9265,1367.43,1358.83,826.29
1800,-3.8743,-0.2731,-0.9266,1289.31,1421.33,513.79
1810,-3.8743,-0.2755,-0.9265,1054.93,1405.70,341.92
1820,-3.8743,-0.2780,-0.9265,742.43,1421.33,326.29
1830,-3.8743,-0.2793,-0.9265,429.93,1421.33,295.04
1840,-3.8743,-0.2794,-0.9263,258.06,1421.33,295.04
1850,-3.8743,-0.2788,-0.9260,242.43,1452.58,310.67
1860,-3.8743,-0.2782,-0.9261,320.56,1483.83,279.42
1870,-3.8743,-0.2765,-0.9268,398.68,1468.20,295.04
1880,-3.8743,-0.2742,-0.9266,617.43,1390.08,341.92
1890,-3.8743,-0.2726,-0.9266,914.31,1405.70,498.17
1900,-3.8743,-0.2719,-0.9280,1117.43,1405.70,654.42
1910,-3.8743,-0.2722,-0.9292,1211.18,1233.83,795.04
1920,-3.8743,-0.2731,-0.9297,1164.31,1077.58,1013.79
1930,-3.8743,-0.2738,-0.9305,1054.93,1015.08,1201.29
1940,-3.8743,-0.2750,-0.9305,961.18,905.70,1201.29
1950,-3.8743,-0.2770,-0.9290,804.93,905.70,1076.29
1960,-3.8743,-0.2794,-0.9268,554.93,1108.83,826.29
1970,-3.8743,-0.2811,-0.9259,242.43,1390.08,607.54
1980,-3.8743,-0.2819,-0.9270,23.68,1499.45,482.54
1990,-3.8743,-0.2809,-0.9280,-70.07,1358.76,341.92
2000,-3.8743,-0.2780,-0.9274,54.93,1233.83,420.04
2010,-3.8743,-0.2749,-0.9264,429.93,1311.95,795.04
2020,-3.8743,-0.2740,-0.9257,820.56,1436.95,1123.17
2030,-3.8743,-0.2765,-0.9248,929.93,1530.70,1013.79
2040,-3.8743,-0.2804,-0.9242,617.43,1640.08,451.29
2050,-3.8744,-0.2833,-0.9233,117.43,1718.20,-329.96
2060,-3.8744,-0.2843,-0.9213,-257.57,1827.51,-923.71
2070,-3.8744,-0.2841,-0.9183,-382.57,-1906.86,-1033.08
2080,-3.8744,-0.2845,-0.9165,-351.32,-1531.86,-751.83
2090,-3.8744,-0.2860,-0.9169,-413.82,-1297.49,-454.96
2100,-3.8744,-0.2871,-0.9176,-601.32,-1344.36,-345.58
2110,-3.8744,-0.2881,-0.9183,-741.94,-1438.11,-408.08
2120,-3.8744,-0.2886,-0.9207,-866.94,-1531.86,-642.46
2130,-3.8744,-0.2875,-0.9238,-929.44,-1828.74,-876.83
2140,-3.8744,-0.2848,-0.9265,-788.82,1765.01,-829.96
2150,-3.8744,-0.2825,-0.9290,-445.07,1421.26,-439.33
2160,-3.8743,-0.2819,-0.9307,-148.19,1108.76,60.67
2170,-3.8743,-0.2823,-0.9319,-70.07,890.01,560.67
2180,-3.8743,-0.2811,-0.9335,-132.57,733.76,998.17
2190,-3.8743,-0.2775,-0.9342,23.68,530.70,1295.04
2200,-3.8743,-0.2726,-0.9327,492.43,436.95,1513.79
2210,-3.8743,-0.2679,-0.9296,1117.43,624.45,1732.54
2220,-3.8743,-0.2667,-0.9269,1711.18,1030.70,1779.42
2230,-3.8743,-0.2694,-0.9250,1867.43,1374.45,1373.17
2240,-3.8743,-0.2747,-0.9233,1523.68,1608.83,466.92
2250,-3.8744,-0.2798,-0.9220,851.81,1827.58,-626.83
2260,-3.8744,-0.2827,-0.9208,195.56,1999.45,-1423.71
2270,-3.8744,-0.2839,-0.9199,-179.44,-1844.36,-1689.33
2280,-3.8744,-0.2839,-0.9200,-335.69,-1734.99,-1564.33
2290,-3.8744,-0.2837,-0.9208,-335.69,-1750.61,-1095.58
2300,-3.8744,-0.2832,-0.9219,-304.44,-1844.36,-376.83
2310,-3.8743,-0.2819,-0.9240,-241.94,-1984.99,232.54
2320,-3.8743,-0.2803,-0.9266,-70.07,1749.39,466.92
2330,-3.8743,-0.2778,-0.9287,133.06,1405.70,513.79
2340,-3.8743,-0.2756,-0.9308,445.56,1140.08,591.92
2350,-3.8743,-0.2755,-0.9329,726.81,874.45,810.67
2360,-3.8743,-0.2773,-0.9338,742.43,608.83,1029.42
2370,-3.8743,-0.2800,-0.9332,508.06,483.83,1154.42
2380,-3.8743,-0.2821,-0.9312,164.31,561.95,1154.42
2390,-3.8743,-0.2827,-0.9286,-101.32,827.51,935.67
2400,-3.8743,-0.2827,-0.9263,-179.44,1155.64,466.92
2410,-3.8744,-0.2825,-0.9238,-179.44,1452.51,-126.83
2420,-3.8744,-0.2812,-0.9216,-148.19,1765.01,-595.58
2430,-3.8744,-0.2800,-0.9209,8.06,-1953.67,-892.46
2440,-3.8744,-0.2792,-0.9213,164.31,-1859.92,-986.21
2450,-3.8744,-0.2791,-0.9226,273.68,-1906.80,-720.58
2460,-3.8744,-0.2800,-0.9246,289.31,1921.33,-392.46
2470,-3.8744,-0.2806,-0.9263,164.31,1671.33,-79.96
2480,-3.8743,-0.2803,-0.9276,86.18,1452.58,201.29
2490,-3.8743,-0.2794,-0.9293,133.06,1280.70,341.92
2500,-3.8743,-0.2783,-0.9309,242.43,1061.95,529.42
2510,-3.8743,-0.2775,-0.9310,383.06,858.83,701.29
2520,-3.8743,-0.2770,-0.9307,492.43,843.20,748.17
2530,-3.8743,-0.2775,-0.9303,554.93,890.08,685.67
2540,-3.8743,-0.2792,-0.9291,492.43,936.95,451.29
2550,-3.8743,-0.2816,-0.9269,273.68,1093.20,185.67
2560,-3.8743,-0.2832,-0.9253,-38.82,1374.39,29.42
2570,-3.8744,-0.2834,-0.9248,-241.94,1577.51,-111.21
2580,-3.8744,-0.2832,-0.9244,-273.19,1640.01,-298.71
2590,-3.8744,-0.2826,-0.9238,-241.94,1686.89,-486.21
2600,-3.8744,-0.2811,-0.9238,-163.82,1765.01,-642.46
2610,-3.8744,-0.2783,-0.9249,23.68,1765.08,-611.21
2620,-3.8744,-0.2760,-0.9269,383.06,1624.45,-392.46
2630,-3.8744,-0.2756,-0.9282,679.93,1374.45,-251.83
2640,-3.8744,-0.2764,-0.9279,726.81,1202.58,-283.08
2650,-3.8744,-0.2767,-0.9266,633.06,1249.45,-329.96
2660,-3.8744,-0.2771,-0.9254,586.18,1405.70,-267.46
2670,-3.8744,-0.2786,-0.9250,539.31,1561.95,-158.08
2680,-3.8744,-0.2802,-0.9254,351.81,1608.83,-64.33
2690,-3.8744,-0.2803,-0.9257,148.68,1561.95,-48.71
2700,-3.8744,-0.2799,-0.9254,133.06,1530.70,-142.46
2710,-3.8744,-0.2805,-0.9265,179.93,1561.95,-220.58
2720,-3.8744,-0.2816,-0.9282,101.81,1421.33,-204.96
2730,-3.8744,-0.2817,-0.9287,-38.82,1202.51,-158.08
2740,-3.8744,-0.2811,-0.9290,-54.44,1140.01,-17.46
2750,-3.8743,-0.2805,-0.9291,23.68,1108.83,232.54
2760,-3.8743,-0.2802,-0.9287,101.81,1093.20,420.04
2770,-3.8743,-0.2792,-0.9281,148.68,1140.08,420.04
2780,-3.8743,-0.2783,-0.9274,273.68,1218.20,248.17
2790,-3.8743,-0.2784,-0.9269,383.06,1311.95,170.04
2800,-3.8743,-0.2783,-0.9268,367.43,1374.45,107.54
2810,-3.8744,-0.2788,-0.9258,383.06,1390.08,-17.46
2820,-3.8744,-0.2792,-0.9249,320.56,1515.08,-189.33
2830,-3.8744,-0.2794,-0.9255,273.68,1624.45,-361.21
2840,-3.8744,-0.2809,-0.9265,242.43,1546.33,-392.46
2850,-3.8744,-0.2821,-0.9269,54.93,1421.33,-361.21
2860,-3.8744,-0.2811,-0.9264,-101.32,1374.39,-361.21
2870,-3.8744,-0.2791,-0.9264,23.68,1436.95,-283.08
2880,-3.8744,-0.2780,-0.9272,289.31,1436.95,-126.83
2890,-3.8744,-0.2783,-0.9277,429.93,1327.58,-64.33
2900,-3.8744,-0.2786,-0.9270,383.06,1265.08,-126.83
2910,-3.8744,-0.2783,-0.9264,351.81,1358.83,-95.58
2920,-3.8744,-0.2781,-0.9265,383.06,1436.95,-1.83
2930,-3.8744,-0.2778,-0.9261,414.31,1421.33,-79.96
2940,-3.8744,-0.2781,-0.9254,445.56,1468.20,-204.96
2950,-3.8744,-0.2789,-0.9257,414.31,1561.95,-189.33
2960,-3.8744,-0.2798,-0.9270,304.93,1530.70,-48.71
2970,-3.8744,-0.2804,-0.9282,195.56,1358.83,-17.46
2980,-3.8744,-0.2810,-0.9286,117.43,1202.58,-79.96
2990,-3.8744,-0.2808,-0.9294,39.31,1155.70,-33.08
3000,-3.8744,-0.2793,-0.9309,70.56,1046.33,-33.08
3010,-3.8744,-0.2782,-0.9305,258.06,858.83,-79.96
3020,-3.8744,-0.2787,-0.9283,398.68,905.70,-33.08
3030,-3.8743,-0.2805,-0.9257,336.18,1186.95,60.67
3040,-3.8743,-0.2823,-0.9243,101.81,1530.70,123.17
3050,-3.8743,-0.2827,-0.9241,-132.57,1702.51,91.92
3060,-3.8744,-0.2810,-0.9241,-179.44,1733.76,-79.96
3070,-3.8744,-0.2787,-0.9243,39.31,1733.83,-298.71
3080,-3.8744,-0.2770,-0.9254,336.18,1702.58,-423.71
3090,-3.8744,-0.2765,-0.9272,554.93,1561.95,-517.46
3100,-3.8744,-0.2769,-0.9286,617.43,1327.58,-564.33
3110,-3.8744,-0.2775,-0.9290,570.56,1155.70,-517.46
3120,-3.8744,-0.2783,-0.9286,492.43,1108.83,-439.33
3130,-3.8744,-0.2792,-0.9282,383.06,1155.70,-267.46
3140,-3.8744,-0.2786,-0.9277,273.68,1202.58,-64.33
3150,-3.8743,-0.2767,-0.9277,351.81,1265.08,123.17
3160,-3.8743,-0.2761,-0.9276,586.18,1265.08,326.29
3170,-3.8743,-0.2766,-0.9274,664.31,1280.70,435.67
3180,-3.8743,-0.2775,-0.9268,601.81,1311.95,310.67
3190,-3.8744,-0.2793,-0.9259,492.43,1390.08,-17.46
3200,-3.8744,-0.2809,-0.9259,258.06,1499.45,-392.46
3210,-3.8744,-0.2814,-0.9261,54.93,1499.45,-501.83
3220,-3.8744,-0.2806,-0.9257,-7.57,1468.14,-376.83
3230,-3.8744,-0.2795,-0.9253,86.18,1530.70,-251.83
3240,-3.8744,-0.2773,-0.9263,226.81,1577.58,-64.33
3250,-3.8743,-0.2750,-0.9274,508.06,1452.58,123.17
3260,-3.8743,-0.2736,-0.9272,804.93,1311.95,154.42
3270,-3.8743,-0.2729,-0.9268,992.43,1327.58,76.29
3280,-3.8743,-0.2740,-0.9274,1070.56,1390.08,45.04
3290,-3.8743,-0.2759,-0.9276,929.93,1311.95,60.67
3300,-3.8743,-0.2783,-0.9269,695.56,1280.70,60.67
3310,-3.8743,-0.2811,-0.9260,383.06,1374.45,29.42
3320,-3.8743,-0.2828,-0.9257,23.68,1483.83,29.42
3330,-3.8743,-0.2833,-0.9253,-195.07,1530.64,29.42
3340,-3.8743,-0.2833,-0.9246,-257.57,1577.51,60.67
3350,-3.8743,-0.2830,-0.9247,-257.57,1671.26,91.92
3360,-3.8744,-0.2815,-0.9255,-210.69,1655.64,-17.46
3370,-3.8744,-0.2792,-0.9268,-23.19,1546.26,-48.71
3380,-3.8743,-0.2776,-0.9285,273.68,1390.08,13.79
3390,-3.8743,-0.2767,-0.9299,476.81,1171.33,60.67
3400,-3.8743,-0.2759,-0.9303,586.18,983.83,154.42
3410,-3.8743,-0.2761,-0.9296,695.56,936.95,123.17
3420,-3.8744,-0.2773,-0.9279,664.31,1030.70,-48.71
3430,-3.8744,-0.2778,-0.9259,508.06,1249.45,-48.71
3440,-3.8743,-0.2775,-0.9246,445.56,1499.45,45.04
3450,-3.8743,-0.2771,-0.9242,492.43,1671.33,29.42
3460,-3.8744,-0.2776,-0.9244,539.31,1718.20,-158.08
3470,-3.8744,-0.2777,-0.9246,476.81,1686.95,-267.46
3480,-3.8744,-0.2770,-0.9252,461.18,1671.33,-236.21
3490,-3.8744,-0.2767,-0.9268,554.93,1593.20,-251.83
3500,-3.8744,-0.2767,-0.9280,586.18,1390.08,-220.58
3510,-3.8744,-0.2777,-0.9281,586.18,1233.83,-158.08
3520,-3.8744,-0.2794,-0.9280,461.18,1218.20,-33.08
3530,-3.8743,-0.2798,-0.9281,242.43,1233.83,45.04
3540,-3.8744,-0.2792,-0.9281,195.56,1218.20,-17.46
3550,-3.8744,-0.2781,-0.9276,273.68,1218.20,-48.71
3560,-3.8743,-0.2769,-0.9274,414.31,1280.70,60.67
3570,-3.8743,-0.2761,-0.9276,570.56,1311.95,201.29
3580,-3.8743,-0.2762,-0.9276,664.31,1280.70,216.92
3590,-3.8743,-0.2772,-0.9271,648.68,1280.70,60.67
3600,-3.8744,-0.2786,-0.9269,523.68,1343.20,-79.96
3610,-3.8744,-0.2788,-0.9264,351.81,1374.45,-220.58
3620,-3.8744,-0.2787,-0.9255,320.56,1436.95,-345.58
3630,-3.8744,-0.2791,-0.9253,336.18,1546.33,-329.96
3640,-3.8744,-0.2792,-0.9253,289.31,1577.58,-220.58
3650,-3.8744,-0.2783,-0.9260,273.68,1577.58,-220.58
3660,-3.8744,-0.2771,-0.9270,383.06,1483.83,-314.33
3670,-3.8744,-0.2762,-0.9271,539.31,1358.83,-220.58
3680,-3.8744,-0.2756,-0.9271,648.68,1343.20,-33.08
3690,-3.8743,-0.2760,-0.9277,726.81,1343.20,123.17
3700,-3.8743,-0.2765,-0.9285,679.93,1265.08,248.17
3710,-3.8743,-0.2769,-0.9290,617.43,1171.33,341.92
3720,-3.8743,-0.2781,-0.9287,570.56,1108.83,373.17
3730,-3.8743,-0.2797,-0.9281,414.31,1140.08,326.29
3740,-3.8743,-0.2808,-0.9272,211.18,1218.20,154.42
3750,-3.8744,-0.2812,-0.9268,70.56,1327.58,-79.96
3760,-3.8744,-0.2805,-0.9265,8.06,1390.08,-158.08
3770,-3.8744,-0.2791,-0.9260,101.81,1421.33,-158.08
3780,-3.8744,-0.2776,-0.9252,289.31,1483.83,-283.08
3790,-3.8744,-0.2758,-0.9237,476.81,1593.20,-408.08
3800,-3.8744,-0.2743,-0.9230,711.18,1780.70,-439.33
3810,-3.8744,-0.2743,-0.9236,898.68,1874.45,-314.33
3820,-3.8744,-0.2756,-0.9254,898.68,1796.33,-111.21
3830,-3.8743,-0.2773,-0.9274,726.81,1561.95,45.04
3840,-3.8743,-0.2789,-0.9282,508.06,1311.95,76.29
3850,-3.8743,-0.2797,-0.9292,304.93,1202.58,107.54
3860,-3.8743,-0.2794,-0.9305,211.18,1077.58,216.92
3870,-3.8743,-0.2787,-0.9316,242.43,905.70,326.29
3880,-3.8743,-0.2781,-0.9316,336.18,765.08,357.54
3890,-3.8743,-0.2784,-0.9307,414.31,765.08,326.29
3900,-3.8743,-0.2798,-0.9285,367.43,890.08,263.79
3910,-3.8743,-0.2814,-0.9253,195.56,1171.33,201.29
3920,-3.8743,-0.2815,-0.9225,-7.57,1577.51,45.04
3930,-3.8744,-0.2795,-0.9203,-23.19,1936.89,-204.96
3940,-3.8744,-0.2769,-0.9193,226.81,-1781.80,-517.46
3950,-3.8744,-0.2745,-0.9214,570.56,-1656.80,-658.08
3960,-3.8744,-0.2729,-0.9255,867.43,-1922.42,-517.46
3970,-3.8744,-0.2716,-0.9296,1070.56,1546.33,-329.96
3980,-3.8744,-0.2725,-0.9318,1242.43,1030.70,-251.83
3990,-3.8744,-0.2747,-0.9318,1133.06,749.45,-204.96
4000,-3.8744,-0.2771,-0.9302,851.81,749.45,-64.33
4010,-3.8743,-0.2794,-0.9285,539.31,952.58,170.04
4020,-3.8743,-0.2804,-0.9272,242.43,1171.33,388.79
4030,-3.8743,-0.2802,-0.9259,117.43,1327.58,451.29
4040,-3.8743,-0.2798,-0.9244,148.68,1499.45,357.54
4050,-3.8743,-0.2794,-0.9241,195.56,1686.95,170.04
4060,-3.8744,-0.2787,-0.9248,242.43,1733.83,-95.58
4070,-3.8744,-0.2782,-0.9253,336.18,1640.08,-329.96
4080,-3.8744,-0.2786,-0.9258,398.68,1577.58,-298.71
4090,-3.8744,-0.2789,-0.9263,351.81,1515.08,-142.46
4100,-3.8744,-0.2786,-0.9268,304.93,1452.58,-48.71
4110,-3.8744,-0.2766,-0.9272,351.81,1390.08,-1.83
4120,-3.8743,-0.2738,-0.9279,601.81,1327.58,45.04
4130,-3.8744,-0.2723,-0.9281,961.18,1249.45,-17.46
4140,-3.8744,-0.2729,-0.9280,1148.68,1218.20,-95.58
4150,-3.8744,-0.2750,-0.9276,1070.56,1233.83,-95.58
4160,-3.8743,-0.2767,-0.9276,804.93,1280.70,76.29
4170,-3.8743,-0.2777,-0.9283,586.18,1280.70,341.92
4180,-3.8743,-0.2797,-0.9281,461.18,1186.95,560.67
4190,-3.8743,-0.2822,-0.9274,211.18,1218.20,513.79
4200,-3.8743,-0.2841,-0.9263,-116.94,1311.89,60.67
4210,-3.8744,-0.2844,-0.9246,-351.32,1452.51,-361.21
4220,-3.8744,-0.2831,-0.9229,-398.19,1671.26,-423.71
4230,-3.8744,-0.2816,-0.9227,-226.32,1890.01,-314.33
4240,-3.8744,-0.2797,-0.9241,-38.82,1905.64,-251.83
4250,-3.8744,-0.2758,-0.9250,211.18,1733.83,-189.33
4260,-3.8744,-0.2709,-0.9253,711.18,1608.83,-158.08
4270,-3.8744,-0.2659,-0.9247,1336.18,1577.58,-314.33
4280,-3.8744,-0.2626,-0.9231,1976.81,1655.70,-517.46
4290,-3.8744,-0.2627,-0.9213,-1601.32,1858.83,-736.21
4300,-3.8744,-0.2667,-0.9215,-1616.94,-1906.80,-986.21
4310,-3.8744,-0.2747,-0.9242,1867.43,-1938.05,-1033.08
4320,-3.8744,-0.2842,-0.9271,851.81,1718.20,-970.58
4330,-3.8744,-0.2926,-0.9294,-366.94,1343.14,-908.08
4340,-3.8744,-0.2974,-0.9309,-1445.07,1046.26,-673.71
4350,-3.8744,-0.2975,-0.9321,1945.56,858.76,-329.96
4360,-3.8744,-0.2953,-0.9340,1929.93,702.51,-17.46
4370,-3.8743,-0.2915,-0.9346,-1788.82,468.14,341.92
4380,-3.8743,-0.2871,-0.9338,-1304.44,390.01,638.79
4390,-3.8743,-0.2837,-0.9329,-741.94,483.76,779.42
4400,-3.8743,-0.2805,-0.9315,-304.44,608.76,779.42
4410,-3.8743,-0.2772,-0.9293,101.81,780.70,529.42
4420,-3.8743,-0.2756,-0.9269,523.68,1061.95,76.29
4430,-3.8744,-0.2761,-0.9247,726.81,1374.45,-345.58
4440,-3.8744,-0.2770,-0.9230,664.31,1655.70,-658.08
4450,-3.8744,-0.2776,-0.9227,554.93,1874.45,-876.83
4460,-3.8744,-0.2792,-0.9230,476.81,1905.70,-1001.83
4470,-3.8744,-0.2817,-0.9229,273.68,1874.45,-1001.83
4480,-3.8744,-0.2836,-0.9237,-54.44,1890.01,-1001.83
4490,-3.8744,-0.2839,-0.9253,-288.82,1780.64,-1126.83
4500,-3.8744,-0.2823,-0.9258,-335.69,1577.51,-1220.58
4510,-3.8744,-0.2795,-0.9257,-132.57,1515.01,-1048.71
4520,-3.8744,-0.2770,-0.9260,226.81,1530.70,-595.58
4530,-3.8744,-0.2755,-0.9264,554.93,1483.83,-17.46
4540,-3.8743,-0.2764,-0.9266,742.43,1436.95,357.54
4550,-3.8743,-0.2789,-0.9272,633.06,1405.70,451.29
4560,-3.8743,-0.2828,-0.9282,304.93,1327.58,279.42
4570,-3.8744,-0.2869,-0.9291,-195.07,1202.51,-95.58
4580,-3.8744,-0.2886,-0.9290,-710.69,1093.14,-408.08
4590,-3.8744,-0.2865,-0.9274,-929.44,1108.76,-470.58
4600,-3.8744,-0.2820,-0.9255,-663.82,1311.89,-236.21
4610,-3.8743,-0.2778,-0.9247,-85.69,1546.26,138.79
4620,-3.8743,-0.2765,-0.9248,445.56,1655.70,201.29
4630,-3.8744,-0.2776,-0.9254,617.43,1640.08,-142.46
4640,-3.8744,-0.2793,-0.9260,476.81,1561.95,-736.21
4650,-3.8744,-0.2803,-0.9263,258.06,1483.83,-1314.33
4660,-3.8744,-0.2797,-0.9255,133.06,1452.58,-1454.96
4670,-3.8744,-0.2781,-0.9247,211.18,1546.33,-1033.08
4680,-3.8744,-0.2766,-0.9241,414.31,1655.70,-408.08
4690,-3.8743,-0.2767,-0.9244,601.81,1733.83,60.67
4700,-3.8743,-0.2783,-0.9259,586.18,1686.95,216.92
4710,-3.8744,-0.2806,-0.9272,383.06,1499.45,-17.46
4720,-3.8744,-0.2834,-0.9279,86.18,1327.58,-298.71
4730,-3.8744,-0.2852,-0.9286,-273.19,1249.39,-486.21
4740,-3.8744,-0.2848,-0.9288,-491.94,1155.64,-626.83
4750,-3.8744,-0.2832,-0.9282,-445.07,1124.39,-439.33
4760,-3.8743,-0.2805,-0.9290,-241.94,1202.51,60.67
4770,-3.8743,-0.2772,-0.9309,101.81,1108.83,279.42
4780,-3.8743,-0.2758,-0.9314,523.68,858.83,138.79
4790,-3.8744,-0.2777,-0.9296,711.18,796.33,-126.83
4800,-3.8744,-0.2810,-0.9261,461.18,1030.70,-298.71
4810,-3.8744,-0.2827,-0.9237,39.31,1468.20,-298.71
4820,-3.8744,-0.2826,-0.9227,-179.44,1780.64,-251.83
4830,-3.8744,-0.2806,-0.9230,-163.82,1905.64,-158.08
4840,-3.8744,-0.2782,-0.9240,86.18,1874.45,-267.46
4850,-3.8744,-0.2767,-0.9247,398.68,1749.45,-611.21
4860,-3.8744,-0.2761,-0.9259,586.18,1655.70,-954.96
4870,-3.8744,-0.2761,-0.9270,664.31,1499.45,-1236.21
4880,-3.8744,-0.2762,-0.9266,664.31,1358.83,-1283.08
4890,-3.8744,-0.2773,-0.9260,648.68,1405.70,-939.33
4900,-3.8744,-0.2784,-0.9264,508.06,1483.83,-267.46
4910,-3.8743,-0.2794,-0.9269,367.43,1436.95,373.17
4920,-3.8743,-0.2805,-0.9269,242.43,1374.45,779.42
4930,-3.8743,-0.2815,-0.9263,101.81,1374.45,779.42
4940,-3.8743,-0.2822,-0.9254,-23.19,1452.51,279.42
4950,-3.8744,-0.2826,-0.9250,-116.94,1561.89,-376.83
4960,-3.8744,-0.2830,-0.9257,-163.82,1608.76,-751.83
4970,-3.8744,-0.2830,-0.9269,-210.69,1530.64,-704.96
4980,-3.8744,-0.2822,-0.9277,-210.69,1374.39,-423.71
4990,-3.8744,-0.2809,-0.9277,-116.94,1265.01,-220.58
5000,-3.8744,-0.2787,-0.9270,54.93,1265.08,-220.58
5010,-3.8744,-0.2759,-0.9255,336.18,1358.83,-283.08
5020,-3.8744,-0.2736,-0.9246,695.56,1546.33,-345.58
5030,-3.8744,-0.2726,-0.9237,992.43,1671.33,-454.96
5040,-3.8744,-0.2742,-0.9233,1117.43,1780.70,-579.96
5050,-3.8744,-0.2777,-0.9246,914.31,1827.58,-579.96
5060,-3.8744,-0.2812,-0.9265,461.18,1671.33,-486.21
5070,-3.8744,-0.2834,-0.9280,8.06,1421.33,-423.71
5080,-3.8744,-0.2842,-0.9281,-273.19,1233.76,-251.83
5090,-3.8744,-0.2843,-0.9268,-366.94,1218.14,-1.83
5100,-3.8743,-0.2837,-0.9254,-382.57,1390.01,138.79
5110,-3.8743,-0.2823,-0.9249,-304.44,1561.89,123.17
5120,-3.8743,-0.2809,-0.9255,-132.57,1624.39,123.17
5130,-3.8743,-0.2802,-0.9270,54.93,1546.33,185.67
5140,-3.8743,-0.2798,-0.9283,148.68,1358.83,60.67
5150,-3.8744,-0.2802,-0.9298,195.56,1186.95,-189.33
5160,-3.8744,-0.2806,-0.9305,148.68,999.45,-283.08
5170,-3.8744,-0.2795,-0.9298,86.18,905.70,-329.96
5180,-3.8744,-0.2771,-0.9281,226.81,999.45,-314.33
5190,-3.8744,-0.2748,-0.9261,539.31,1218.20,-158.08
5200,-3.8744,-0.2737,-0.9247,836.18,1468.20,-64.33
5210,-3.8744,-0.2742,-0.9232,976.81,1655.70,-158.08
5220,-3.8744,-0.2765,-0.9225,914.31,1843.20,-454.96
5230,-3.8744,-0.2794,-0.9227,617.43,1936.95,-720.58
5240,-3.8744,-0.2812,-0.9241,242.43,1905.70,-798.71
5250,-3.8744,-0.2819,-0.9265,8.06,1733.83,-658.08
5260,-3.8744,-0.2826,-0.9287,-70.07,1421.26,-361.21
5270,-3.8743,-0.2827,-0.9296,-163.82,1140.01,13.79
5280,-3.8743,-0.2820,-0.9293,-179.44,1030.64,201.29
5290,-3.8743,-0.2804,-0.9285,-85.69,1061.89,13.79
5300,-3.8744,-0.2788,-0.9266,117.43,1171.33,-236.21
5310,-3.8744,-0.2778,-0.9248,320.56,1405.70,-376.83
5320,-3.8744,-0.2778,-0.9241,445.56,1640.08,-454.96
5330,-3.8744,-0.2782,-0.9247,445.56,1733.83,-392.46
5340,-3.8744,-0.2782,-0.9259,398.68,1655.70,-251.83
5350,-3.8744,-0.2781,-0.9270,398.68,1499.45,-204.96
5360,-3.8744,-0.2781,-0.9272,414.31,1358.83,-267.46
5370,-3.8744,-0.2792,-0.9275,414.31,1327.58,-423.71
5380,-3.8744,-0.2810,-0.9272,273.68,1296.33,-626.83
5390,-3.8744,-0.2817,-0.9263,39.31,1327.58,-720.58
5400,-3.8744,-0.2819,-0.9253,-54.44,1452.51,-611.21
5410,-3.8744,-0.2812,-0.9253,-70.07,1577.51,-376.83
5420,-3.8744,-0.2798,-0.9255,8.06,1577.58,-158.08
5430,-3.8744,-0.2788,-0.9258,195.56,1546.33,-111.21
5440,-3.8744,-0.2786,-0.9261,320.56,1515.08,-142.46
5450,-3.8744,-0.2783,-0.9261,351.81,1468.20,-220.58
5460,-3.8744,-0.2788,-0.9261,383.06,1468.20,-314.33
5470,-3.8744,-0.2797,-0.9264,320.56,1468.20,-298.71
5480,-3.8744,-0.2799,-0.9269,211.18,1436.95,-220.58
5490,-3.8744,-0.2799,-0.9272,179.93,1374.45,-189.33
5500,-3.8744,-0.2798,-0.9275,179.93,1327.58,-251.83
5510,-3.8744,-0.2792,-0.9266,195.56,1296.33,-251.83
5520,-3.8744,-0.2789,-0.9254,273.68,1405.70,-204.96
5530,-3.8744,-0.2799,-0.9255,304.93,1561.95,-220.58
5540,-3.8744,-0.2811,-0.9259,179.93,1546.33,-314.33
5550,-3.8744,-0.2816,-0.9268,23.68,1499.45,-314.33
5560,-3.8744,-0.2822,-0.9276,-38.82,1390.01,-345.58
5570,-3.8744,-0.2819,-0.9275,-116.94,1280.64,-376.83
5580,-3.8744,-0.2795,-0.9276,-70.07,1296.26,-392.46
5590,-3.8744,-0.2765,-0.9274,226.81,1280.70,-470.58
5600,-3.8744,-0.2750,-0.9266,617.43,1311.95,-454.96
5610,-3.8744,-0.2756,-0.9264,804.93,1405.70,-439.33
5620,-3.8744,-0.2762,-0.9255,726.81,1436.95,-470.58
5630,-3.8744,-0.2772,-0.9244,648.68,1546.33,-564.33
5640,-3.8744,-0.2788,-0.9248,523.68,1686.95,-548.71
5650,-3.8744,-0.2806,-0.9265,320.56,1640.08,-454.96
5660,-3.8744,-0.2825,-0.9277,86.18,1421.33,-423.71
5670,-3.8744,-0.2833,-0.9281,-148.19,1265.01,-298.71
5680,-3.8744,-0.2825,-0.9294,-257.57,1218.14,-158.08
5690,-3.8744,-0.2799,-0.9316,-148.19,1046.26,-142.46
5700,-3.8744,-0.2780,-0.9330,179.93,765.08,-173.71
5710,-3.8744,-0.2784,-0.9319,429.93,593.20,-189.33
5720,-3.8744,-0.2797,-0.9288,367.43,733.83,-48.71
5730,-3.8743,-0.2806,-0.9260,211.18,1124.45,154.42
5740,-3.8743,-0.2809,-0.9240,86.18,1483.83,248.17
5750,-3.8743,-0.2802,-0.9220,54.93,1749.45,13.79
5760,-3.8744,-0.2791,-0.9214,148.68,1999.45,-439.33
5770,-3.8744,-0.2777,-0.9218,289.31,-1922.42,-829.96
5780,-3.8744,-0.2771,-0.9231,461.18,-1969.30,-1126.83
5790,-3.8744,-0.2777,-0.9247,539.31,1858.83,-1267.46
5800,-3.8744,-0.2791,-0.9257,461.18,1655.70,-1126.83
5810,-3.8744,-0.2797,-0.9261,289.31,1530.70,-845.58
5820,-3.8744,-0.2799,-0.9270,211.18,1468.20,-533.08
5830,-3.8744,-0.2798,-0.9281,179.93,1358.83,-236.21
5840,-3.8743,-0.2789,-0.9288,195.56,1218.20,154.42
5850,-3.8743,-0.2786,-0.9292,304.93,1124.45,576.29
5860,-3.8743,-0.2795,-0.9291,351.81,1077.58,545.04
5870,-3.8743,-0.2809,-0.9285,226.81,1093.20,154.42
5880,-3.8744,-0.2819,-0.9279,54.93,1171.33,-283.08
5890,-3.8744,-0.2823,-0.9277,-70.07,1249.39,-501.83
5900,-3.8744,-0.2826,-0.9277,-132.57,1265.01,-517.46
5910,-3.8744,-0.2825,-0.9269,-163.82,1265.01,-533.08
5920,-3.8744,-0.2816,-0.9249,-148.19,1374.39,-658.08
5930,-3.8744,-0.2800,-0.9233,-38.82,1624.39,-767.46
5940,-3.8744,-0.2775,-0.9227,164.31,1827.58,-783.08
5950,-3.8744,-0.2742,-0.9240,492.43,1905.70,-845.58
5960,-3.8744,-0.2712,-0.9260,914.31,1749.45,-829.96
5970,-3.8744,-0.2711,-0.9275,1289.31,1483.83,-626.83
5980,-3.8744,-0.2733,-0.9279,1304.93,1296.33,-392.46
5990,-3.8744,-0.2756,-0.9279,1023.68,1249.45,-236.21
6000,-3.8744,-0.2784,-0.9282,726.81,1249.45,-142.46
6010,-3.8744,-0.2822,-0.9290,367.43,1202.58,-48.71
6020,-3.8743,-0.2847,-0.9288,-116.94,1108.76,60.67
6030,-3.8743,-0.2864,-0.9275,-429.44,1124.39,107.54
6040,-3.8744,-0.2875,-0.9268,-648.19,1296.26,-17.46
6050,-3.8744,-0.2867,-0.9268,-788.82,1390.01,-298.71
6060,-3.8744,-0.2838,-0.9268,-695.07,1390.01,-470.58
6070,-3.8744,-0.2803,-0.9275,-320.07,1390.01,-361.21
6080,-3.8744,-0.2765,-0.9285,133.06,1296.33,-329.96
6090,-3.8744,-0.2732,-0.9276,617.43,1171.33,-501.83
6100,-3.8744,-0.2719,-0.9253,1039.31,1280.70,-533.08
6110,-3.8744,-0.2736,-0.9241,1211.18,1577.58,-454.96
6120,-3.8744,-0.2766,-0.9242,992.43,1733.83,-392.46
6130,-3.8744,-0.2797,-0.9249,601.81,1718.20,-501.83
6140,-3.8744,-0.2826,-0.9260,211.18,1624.45,-783.08
6150,-3.8744,-0.2834,-0.9261,-163.82,1483.76,-876.83
6160,-3.8744,-0.2825,-0.9257,-273.19,1468.14,-736.21
6170,-3.8744,-0.2808,-0.9258,-148.19,1530.64,-517.46
6180,-3.8744,-0.2788,-0.9274,70.56,1515.08,-376.83
6190,-3.8744,-0.2772,-0.9287,320.56,1311.95,-329.96
6200,-3.8744,-0.2770,-0.9283,523.68,1140.08,-314.33
6210,-3.8744,-0.2778,-0.9276,554.93,1186.95,-392.46
6220,-3.8744,-0.2788,-0.9276,445.56,1280.70,-486.21
6230,-3.8744,-0.2798,-0.9271,320.56,1280.70,-533.08
6240,-3.8744,-0.2805,-0.9264,195.56,1343.20,-454.96
6250,-3.8744,-0.2808,-0.9261,101.81,1436.95,-423.71
6260,-3.8744,-0.2809,-0.9265,70.56,1468.20,-361.21
6270,-3.8744,-0.2814,-0.9271,54.93,1421.33,-329.96
6280,-3.8744,-0.2827,-0.9269,-7.57,1343.14,-501.83
6290,-3.8744,-0.2839,-0.9263,-179.44,1374.39,-814.33
6300,-3.8744,-0.2841,-0.9259,-335.69,1452.51,-1079.96
6310,-3.8744,-0.2828,-0.9264,-351.32,1499.39,-1111.21
6320,-3.8744,-0.2798,-0.9270,-195.07,1436.89,-829.96
6330,-3.8744,-0.2756,-0.9258,195.56,1358.83,-408.08
6340,-3.8743,-0.2720,-0.9247,726.81,1515.08,29.42
6350,-3.8743,-0.2714,-0.9252,1195.56,1655.70,263.79
6360,-3.8743,-0.2760,-0.9265,1273.68,1593.20,154.42
6370,-3.8744,-0.2825,-0.9281,679.93,1421.33,-189.33
6380,-3.8744,-0.2872,-0.9297,-148.19,1218.14,-767.46
6390,-3.8744,-0.2899,-0.9305,-757.57,1015.01,-1220.58
6400,-3.8744,-0.2898,-0.9302,-1101.32,905.64,-1173.71
6410,-3.8744,-0.2858,-0.9293,-1085.69,952.51,-767.46
6420,-3.8744,-0.2805,-0.9269,-570.07,1061.89,-329.96
6430,-3.8744,-0.2771,-0.9255,101.81,1374.45,-189.33
6440,-3.8744,-0.2748,-0.9274,539.31,1546.33,-501.83
6450,-3.8744,-0.2734,-0.9285,836.18,1311.95,-986.21
6460,-3.8744,-0.2743,-0.9268,1008.06,1171.33,-1251.83
6470,-3.8744,-0.2758,-0.9248,898.68,1390.08,-1064.33
6480,-3.8744,-0.2766,-0.9247,711.18,1640.08,-704.96
6490,-3.8744,-0.2783,-0.9266,601.81,1655.70,-408.08
6500,-3.8744,-0.2810,-0.9287,383.06,1405.70,-158.08
6510,-3.8744,-0.2837,-0.9299,39.31,1140.08,-314.33
6520,-3.8744,-0.2864,-0.9313,-304.44,983.76,-767.46
6530,-3.8744,-0.2878,-0.9312,-648.19,811.89,-1158.08
6540,-3.8744,-0.2872,-0.9288,-835.69,827.51,-1204.96
6550,-3.8744,-0.2841,-0.9259,-757.57,1124.39,-798.71
6560,-3.8744,-0.2794,-0.9242,-351.32,1499.39,-204.96
6570,-3.8743,-0.2758,-0.9259,242.43,1718.20,357.54
6580,-3.8743,-0.2738,-0.9299,711.18,1499.45,357.54
6590,-3.8744,-0.2731,-0.9324,961.18,983.83,-283.08
6600,-3.8744,-0.2743,-0.9316,1054.93,671.33,-986.21
6610,-3.8744,-0.2773,-0.9286,898.68,765.08,-1267.46
6620,-3.8744,-0.2809,-0.9244,508.06,1155.70,-923.71
6630,-3.8744,-0.2837,-0.9216,54.93,1686.95,-283.08
6640,-3.8743,-0.2859,-0.9225,-304.44,-1953.74,123.17
6650,-3.8744,-0.2860,-0.9254,-585.69,1936.89,-220.58
6660,-3.8744,-0.2836,-0.9271,-601.32,1561.89,-1048.71
6670,-3.8744,-0.2808,-0.9274,-288.82,1343.14,-1736.21
6680,-3.8744,-0.2793,-0.9274,70.56,1311.95,-1814.33
6690,-3.8744,-0.2791,-0.9272,258.06,1311.95,-1329.96
6700,-3.8744,-0.2795,-0.9281,289.31,1327.58,-673.71
6710,-3.8744,-0.2793,-0.9301,226.81,1218.20,-158.08
6720,-3.8743,-0.2777,-0.9323,258.06,968.20,123.17
6730,-3.8743,-0.2762,-0.9333,461.18,686.95,13.79
6740,-3.8744,-0.2760,-0.9321,648.68,546.33,-392.46
6750,-3.8744,-0.2764,-0.9269,679.93,702.58,-704.96
6760,-3.8744,-0.2787,-0.9208,633.06,1374.45,-658.08
6770,-3.8744,-0.2825,-0.9176,336.18,-1844.30,-486.21
6780,-3.8744,-0.2855,-0.9191,-148.19,-1438.11,-501.83
6790,-3.8744,-0.2877,-0.9253,-538.82,-1625.61,-767.46
6800,-3.8744,-0.2881,-0.9315,-820.07,1577.51,-1158.08
6810,-3.8744,-0.2849,-0.9326,-866.94,780.64,-1439.33
6820,-3.8744,-0.2788,-0.9294,-460.69,640.01,-1439.33
6830,-3.8744,-0.2728,-0.9257,320.56,1046.33,-1142.46
6840,-3.8744,-0.2697,-0.9243,1086.18,1530.70,-658.08
6850,-3.8744,-0.2694,-0.9248,1492.43,1702.58,-298.71
6860,-3.8744,-0.2721,-0.9266,1523.68,1640.08,-345.58
6870,-3.8744,-0.2762,-0.9292,1179.93,1405.70,-658.08
6880,-3.8744,-0.2800,-0.9297,648.68,1077.58,-845.58
6890,-3.8744,-0.2833,-0.9288,164.31,1015.08,-704.96
6900,-3.8744,-0.2852,-0.9280,-257.57,1124.39,-392.46
6910,-3.8743,-0.2859,-0.9283,-491.94,1233.76,170.04
6920,-3.8743,-0.2860,-0.9298,-585.69,1186.89,763.79
6930,-3.8743,-0.2858,-0.9303,-601.32,999.39,810.67
6940,-3.8743,-0.2859,-0.9299,-570.07,936.89,248.17
6950,-3.8744,-0.2848,-0.9280,-585.69,983.76,-579.96
6960,-3.8744,-0.2827,-0.9242,-445.07,1233.76,-1220.58
6970,-3.8744,-0.2794,-0.9222,-179.44,1718.14,-1345.58
6980,-3.8744,-0.2750,-0.9232,242.43,1968.20,-1048.71
6990,-3.8744,-0.2722,-0.9248,804.93,1843.20,-533.08
7000,-3.8744,-0.2725,-0.9258,1164.31,1640.08,-158.08
7010,-3.8744,-0.2755,-0.9264,1133.06,1515.08,-283.08
7020,-3.8744,-0.2795,-0.9264,742.43,1436.95,-783.08
7030,-3.8744,-0.2820,-0.9259,226.81,1436.95,-1329.96
7040,-3.8744,-0.2812,-0.9259,-85.69,1499.39,-1626.83
7050,-3.8744,-0.2788,-0.9271,8.06,1499.45,-1267.46
7060,-3.8744,-0.2761,-0.9285,320.56,1343.20,-392.46
7070,-3.8743,-0.2740,-0.9291,664.31,1171.33,498.17
7080,-3.8743,-0.2745,-0.9296,929.93,1093.20,857.54
7090,-3.8743,-0.2773,-0.9291,867.43,1030.70,435.67
7100,-3.8744,-0.2815,-0.9272,508.06,1093.20,-579.96
7110,-3.8744,-0.2848,-0.9254,-23.19,1327.51,-1454.96
7120,-3.8744,-0.2859,-0.9248,-445.07,1561.89,-1611.21
7130,-3.8744,-0.2853,-0.9255,-585.69,1640.01,-1095.58
7140,-3.8744,-0.2823,-0.9271,-507.57,1546.26,-251.83
7150,-3.8743,-0.2782,-0.9280,-132.57,1343.14,341.92
7160,-3.8743,-0.2754,-0.9282,398.68,1233.83,482.54
7170,-3.8743,-0.2734,-0.9282,758.06,1202.58,91.92
7180,-3.8744,-0.2733,-0.9272,1008.06,1202.58,-548.71
7190,-3.8744,-0.2760,-0.9261,1023.68,1327.58,-892.46
7200,-3.8744,-0.2798,-0.9253,679.93,1468.20,-720.58
7210,-3.8744,-0.2825,-0.9257,195.56,1577.58,-314.33
7220,-3.8744,-0.2836,-0.9275,-148.19,1530.64,-48.71
7230,-3.8744,-0.2831,-0.9290,-288.82,1296.26,-95.58
7240,-3.8744,-0.2817,-0.9282,-226.32,1108.76,-439.33
7250,-3.8744,-0.2803,-0.9257,-54.44,1202.51,-861.21
7260,-3.8744,-0.2792,-0.9230,133.06,1530.70,-1048.71
7270,-3.8744,-0.2780,-0.9224,273.68,1874.45,-845.58
7280,-3.8744,-0.2776,-0.9237,429.93,1952.58,-423.71
7290,-3.8744,-0.2783,-0.9266,476.81,1780.70,-17.46
7300,-3.8743,-0.2791,-0.9302,383.06,1405.70,185.67
7310,-3.8743,-0.2797,-0.9331,289.31,952.58,154.42
7320,-3.8743,-0.2798,-0.9333,211.18,577.58,13.79
7330,-3.8744,-0.2804,-0.9305,195.56,546.33,-33.08
7340,-3.8744,-0.2812,-0.9272,117.43,905.70,-126.83
7350,-3.8744,-0.2816,-0.9252,8.06,1327.58,-314.33
7360,-3.8744,-0.2815,-0.9244,-38.82,1593.14,-595.58
7370,-3.8744,-0.2810,-0.9244,-23.19,1686.89,-954.96
7380,-3.8744,-0.2794,-0.9247,39.31,1686.95,-1204.96
7390,-3.8744,-0.2772,-0.9247,242.43,1655.70,-1236.21
7400,-3.8744,-0.2756,-0.9242,523.68,1655.70,-1033.08
7410,-3.8744,-0.2750,-0.9243,726.81,1718.20,-595.58
7420,-3.8744,-0.2749,-0.9260,804.93,1702.58,-111.21
7430,-3.8743,-0.2754,-0.9287,820.56,1483.83,91.92
7440,-3.8743,-0.2772,-0.9308,758.06,1140.08,45.04
7450,-3.8744,-0.2799,-0.9318,523.68,874.45,-173.71
7460,-3.8744,-0.2823,-0.9315,179.93,749.45,-517.46
7470,-3.8744,-0.2827,-0.9304,-132.57,780.64,-829.96
7480,-3.8744,-0.2809,-0.9287,-179.44,921.26,-783.08
7490,-3.8744,-0.2793,-0.9268,54.93,1140.08,-345.58
7500,-3.8743,-0.2791,-0.9260,258.06,1390.08,76.29
7510,-3.8743,-0.2800,-0.9259,289.31,1483.83,76.29
7520,-3.8744,-0.2809,-0.9248,164.31,1499.45,-314.33
7530,-3.8744,-0.2804,-0.9236,54.93,1640.08,-829.96
7540,-3.8744,-0.2786,-0.9233,117.43,1796.33,-1251.83
7550,-3.8744,-0.2764,-0.9244,351.81,1827.58,-1314.33
7560,-3.8744,-0.2743,-0.9266,633.06,1686.95,-1001.83
7570,-3.8744,-0.2737,-0.9291,898.68,1405.70,-517.46
7580,-3.8744,-0.2753,-0.9305,976.81,1093.20,-220.58
7590,-3.8744,-0.2786,-0.9305,773.68,905.70,-251.83
7600,-3.8744,-0.2826,-0.9293,351.81,905.70,-439.33
7610,-3.8744,-0.2848,-0.9271,-163.82,1061.89,-579.96
7620,-3.8744,-0.2843,-0.9244,-445.07,1343.14,-533.08
7630,-3.8744,-0.2826,-0.9238,-382.57,1686.89,-376.83
7640,-3.8744,-0.2797,-0.9250,-163.82,1765.01,-220.58
7650,-3.8744,-0.2760,-0.9260,211.18,1608.83,-95.58
7660,-3.8744,-0.2742,-0.9261,679.93,1483.83,-111.21
7670,-3.8744,-0.2736,-0.9263,914.31,1468.20,-314.33
7680,-3.8744,-0.2743,-0.9263,992.43,1452.58,-579.96
7690,-3.8744,-0.2765,-0.9259,898.68,1452.58,-704.96
7700,-3.8744,-0.2791,-0.9259,617.43,1499.45,-689.33
7710,-3.8744,-0.2814,-0.9261,289.31,1499.45,-611.21
7720,-3.8744,-0.2823,-0.9268,-7.57,1468.14,-548.71
7730,-3.8744,-0.2814,-0.9269,-132.57,1390.01,-658.08
7740,-3.8744,-0.2792,-0.9266,-7.57,1374.39,-892.46
7750,-3.8744,-0.2772,-0.9265,273.68,1405.70,-1017.46
7760,-3.8744,-0.2761,-0.9269,523.68,1421.33,-986.21
7770,-3.8744,-0.2762,-0.9274,664.31,1374.45,-736.21
7780,-3.8744,-0.2777,-0.9274,648.68,1311.95,-329.96
7790,-3.8743,-0.2795,-0.9275,461.18,1311.95,29.42
7800,-3.8743,-0.2815,-0.9279,226.81,1296.33,185.67
7810,-3.8743,-0.2828,-0.9276,-23.19,1249.39,154.42
7820,-3.8743,-0.2830,-0.9280,-195.07,1280.64,13.79
7830,-3.8744,-0.2825,-0.9286,-210.69,1233.76,-189.33
7840,-3.8744,-0.2823,-0.9283,-148.19,1155.64,-470.58
7850,-3.8744,-0.2827,-0.9283,-132.57,1186.89,-783.08
7860,-3.8744,-0.2823,-0.9282,-179.44,1186.89,-923.71
7870,-3.8744,-0.2802,-0.9271,-132.57,1202.51,-892.46
7880,-3.8744,-0.2767,-0.9257,148.68,1343.20,-751.83
7890,-3.8744,-0.2732,-0.9248,586.18,1530.70,-486.21
7900,-3.8744,-0.2706,-0.9257,1039.31,1640.08,-204.96
7910,-3.8744,-0.2704,-0.9266,1367.43,1530.70,-64.33
7920,-3.8744,-0.2728,-0.9266,1398.68,1405.70,-48.71
7930,-3.8744,-0.2769,-0.9263,1086.18,1405.70,-251.83
7940,-3.8744,-0.2816,-0.9259,570.56,1452.58,-595.58
7950,-3.8744,-0.2854,-0.9266,-38.82,1499.39,-845.58
7960,-3.8744,-0.2871,-0.9272,-523.19,1405.64,-970.58
7970,-3.8744,-0.2864,-0.9260,-741.94,1327.51,-1033.08
7980,-3.8744,-0.2841,-0.9244,-648.19,1483.76,-923.71
7990,-3.8744,-0.2802,-0.9242,-351.32,1686.89,-673.71
8000,-3.8744,-0.2764,-0.9244,148.68,1718.20,-517.46
8010,-3.8744,-0.2745,-0.9247,633.06,1686.95,-470.58
8020,-3.8744,-0.2748,-0.9261,867.43,1655.70,-454.96
8030,-3.8744,-0.2758,-0.9285,836.18,1468.20,-423.71
8040,-3.8744,-0.2776,-0.9298,711.18,1171.33,-283.08
8050,-3.8744,-0.2802,-0.9307,476.81,999.45,-189.33
8060,-3.8744,-0.2815,-0.9305,148.68,890.08,-220.58
8070,-3.8744,-0.2819,-0.9294,-23.19,905.64,-298.71
8080,-3.8744,-0.2817,-0.9271,-70.07,1046.26,-408.08
8090,-3.8744,-0.2812,-0.9246,-54.44,1343.14,-548.71
8100,-3.8744,-0.2810,-0.9227,8.06,1671.33,-658.08
8110,-3.8744,-0.2812,-0.9220,39.31,1905.70,-767.46
8120,-3.8744,-0.2817,-0.9231,8.06,1999.45,-845.58
8130,-3.8744,-0.2809,-0.9259,-54.44,1858.76,-908.08
8140,-3.8744,-0.2797,-0.9291,54.93,1499.45,-986.21
8150,-3.8744,-0.2789,-0.9308,211.18,1093.20,-923.71
8160,-3.8744,-0.2771,-0.9307,304.93,874.45,-736.21
8170,-3.8744,-0.2743,-0.9293,539.31,890.08,-486.21
8180,-3.8744,-0.2733,-0.9283,898.68,1061.95,-314.33
8190,-3.8744,-0.2738,-0.9277,1023.68,1186.95,-361.21
8200,-3.8744,-0.2754,-0.9259,961.18,1265.08,-486.21
8210,-3.8744,-0.2791,-0.9249,758.06,1499.45,-533.08
8220,-3.8744,-0.2832,-0.9259,289.31,1624.45,-673.71
8230,-3.8744,-0.2860,-0.9252,-241.94,1499.39,-876.83
8240,-3.8744,-0.2872,-0.9250,-601.32,1593.14,-892.46
8250,-3.8744,-0.2858,-0.9279,-757.57,1608.76,-751.83
8260,-3.8744,-0.2820,-0.9293,-570.07,1249.39,-626.83
8270,-3.8744,-0.2781,-0.9297,-85.69,1061.89,-454.96
8280,-3.8744,-0.2742,-0.9288,414.31,1015.08,-251.83
8290,-3.8744,-0.2727,-0.9272,914.31,1124.45,-158.08
8300,-3.8744,-0.2747,-0.9279,1101.81,1327.58,-189.33
8310,-3.8744,-0.2771,-0.9279,851.81,1249.45,-345.58
8320,-3.8744,-0.2795,-0.9263,539.31,1249.45,-533.08
8330,-3.8744,-0.2817,-0.9264,226.81,1452.58,-564.33
8340,-3.8744,-0.2832,-0.9276,-54.44,1436.89,-579.96
8350,-3.8744,-0.2841,-0.9288,-241.94,1280.64,-736.21
8360,-3.8744,-0.2832,-0.9293,-351.32,1124.39,-1001.83
8370,-3.8744,-0.2816,-0.9274,-241.94,1061.89,-1095.58
8380,-3.8744,-0.2803,-0.9253,-38.82,1311.89,-845.58
8390,-3.8744,-0.2775,-0.9246,133.06,1577.58,-454.96
8400,-3.8744,-0.2744,-0.9237,492.43,1671.33,-298.71
8410,-3.8744,-0.2738,-0.9237,883.06,1780.70,-408.08
8420,-3.8744,-0.2745,-0.9248,961.18,1780.70,-548.71
8430,-3.8744,-0.2764,-0.9269,867.43,1640.08,-673.71
8440,-3.8744,-0.2799,-0.9301,633.06,1374.45,-829.96
8450,-3.8744,-0.2827,-0.9326,179.93,968.20,-1017.46
8460,-3.8744,-0.2843,-0.9325,-179.44,640.01,-1079.96
8470,-3.8744,-0.2852,-0.9309,-382.57,655.64,-954.96
8480,-3.8744,-0.2847,-0.9285,-491.94,858.76,-673.71
8490,-3.8744,-0.2820,-0.9261,-429.44,1171.26,-314.33
8500,-3.8744,-0.2786,-0.9243,-85.69,1468.14,-48.71
8510,-3.8743,-0.2761,-0.9230,351.81,1702.58,29.42
8520,-3.8744,-0.2754,-0.9232,664.31,1874.45,-126.83
8530,-3.8744,-0.2765,-0.9241,758.06,1843.20,-486.21
8540,-3.8744,-0.2783,-0.9260,617.43,1733.83,-829.96
8550,-3.8744,-0.2802,-0.9282,383.06,1483.83,-1017.46
8560,-3.8744,-0.2825,-0.9286,148.68,1202.58,-1048.71
8570,-3.8744,-0.2832,-0.9282,-148.19,1155.64,-986.21
8580,-3.8744,-0.2815,-0.9272,-241.94,1202.51,-923.71
8590,-3.8744,-0.2789,-0.9258,-23.19,1327.51,-798.71
8600,-3.8744,-0.2762,-0.9248,304.93,1515.08,-704.96
8610,-3.8744,-0.2742,-0.9243,648.68,1640.08,-767.46
8620,-3.8744,-0.2742,-0.9252,914.31,1702.58,-783.08
8630,-3.8744,-0.2759,-0.9271,914.31,1593.20,-704.96
8640,-3.8744,-0.2788,-0.9287,695.56,1343.20,-611.21
8650,-3.8744,-0.2826,-0.9299,320.56,1140.08,-423.71
8660,-3.8744,-0.2856,-0.9303,-163.82,983.76,-189.33
8670,-3.8744,-0.2870,-0.9291,-554.44,936.89,-79.96
8680,-3.8744,-0.2866,-0.9271,-726.32,1093.14,-79.96
8690,-3.8744,-0.2850,-0.9255,-679.44,1343.14,-126.83
8700,-3.8744,-0.2832,-0.9242,-476.32,1546.26,-220.58
8710,-3.8744,-0.2821,-0.9240,-241.94,1718.14,-408.08
8720,-3.8744,-0.2810,-0.9255,-101.32,1749.39,-689.33
8730,-3.8744,-0.2803,-0.9279,39.31,1546.33,-845.58
8740,-3.8744,-0.2798,-0.9294,133.06,1249.45,-720.58
8750,-3.8744,-0.2780,-0.9305,195.56,1046.33,-454.96
8760,-3.8744,-0.2751,-0.9310,429.93,905.70,-329.96
8770,-3.8744,-0.2726,-0.9294,789.31,843.20,-329.96
8780,-3.8744,-0.2710,-0.9263,1117.43,1046.33,-470.58
8790,-3.8744,-0.2712,-0.9232,1320.56,1452.58,-704.96
8800,-3.8744,-0.2743,-0.9218,1289.31,1843.20,-954.96
8810,-3.8744,-0.2799,-0.9218,898.68,-1969.30,-1204.96
8820,-3.8744,-0.2858,-0.9231,179.93,-1969.30,-1361.21
8830,-3.8744,-0.2899,-0.9261,-570.07,1858.76,-1298.71
8840,-3.8744,-0.2911,-0.9298,-1101.32,1468.14,-1064.33
8850,-3.8744,-0.2883,-0.9320,-1257.57,999.39,-783.08
8860,-3.8744,-0.2828,-0.9319,-898.19,718.14,-501.83
8870,-3.8744,-0.2775,-0.9305,-195.07,733.76,-298.71
8880,-3.8744,-0.2736,-0.9283,492.43,905.70,-189.33
8890,-3.8744,-0.2723,-0.9266,992.43,1186.95,-220.58
8900,-3.8744,-0.2731,-0.9257,1148.68,1405.70,-345.58
8910,-3.8744,-0.2750,-0.9254,1054.93,1530.70,-439.33
8920,-3.8744,-0.2782,-0.9263,804.93,1561.95,-548.71
8930,-3.8744,-0.2823,-0.9269,398.68,1452.58,-736.21
8940,-3.8744,-0.2854,-0.9268,-132.57,1374.39,-939.33
8950,-3.8744,-0.2865,-0.9261,-523.19,1390.01,-1048.71
8960,-3.8744,-0.2863,-0.9257,-663.82,1468.14,-1017.46
8970,-3.8744,-0.2848,-0.9258,-632.57,1530.64,-908.08
8980,-3.8744,-0.2816,-0.9261,-445.07,1515.01,-798.71
8990,-3.8744,-0.2777,-0.9261,-38.82,1468.14,-704.96
9000,-3.8744,-0.2753,-0.9261,461.18,1468.20,-533.08
9010,-3.8744,-0.2747,-0.9265,773.68,1468.20,-361.21
9020,-3.8744,-0.2756,-0.9271,851.81,1421.33,-314.33
9030,-3.8744,-0.2782,-0.9281,726.81,1343.20,-298.71
9040,-3.8744,-0.2819,-0.9290,398.68,1218.20,-251.83
9050,-3.8744,-0.2854,-0.9293,-70.07,1108.76,-345.58
9060,-3.8744,-0.2866,-0.9291,-523.19,1061.89,-611.21
9070,-3.8744,-0.2859,-0.9285,-679.44,1093.14,-829.96
9080,-3.8744,-0.2837,-0.9268,-585.69,1171.26,-954.96
9090,-3.8744,-0.2803,-0.9253,-304.44,1390.01,-1017.46
9100,-3.8744,-0.2780,-0.9242,133.06,1577.58,-1001.83
9110,-3.8744,-0.2775,-0.9231,429.93,1718.20,-923.71
9120,-3.8744,-0.2773,-0.9237,492.43,1858.83,-829.96
9130,-3.8744,-0.2773,-0.9253,508.06,1780.70,-783.08
9140,-3.8744,-0.2783,-0.9268,508.06,1577.58,-751.83
9150,-3.8744,-0.2805,-0.9285,383.06,1390.08,-673.71
9160,-3.8744,-0.2825,-0.9299,101.81,1171.33,-579.96
9170,-3.8744,-0.2837,-0.9299,-148.19,983.76,-611.21
9180,-3.8744,-0.2837,-0.9290,-304.44,983.76,-720.58
9190,-3.8744,-0.2816,-0.9282,-304.44,1108.76,-845.58
9200,-3.8744,-0.2793,-0.9282,-38.82,1202.51,-939.33
9210,-3.8744,-0.2784,-0.9280,258.06,1202.58,-954.96
9220,-3.8744,-0.2798,-0.9270,367.43,1233.83,-783.08
9230,-3.8744,-0.2815,-0.9260,195.56,1358.83,-501.83
9240,-3.8744,-0.2826,-0.9257,-23.19,1483.76,-298.71
9250,-3.8744,-0.2825,-0.9261,-163.82,1530.64,-329.96
9260,-3.8744,-0.2805,-0.9266,-148.19,1468.14,-517.46
9270,-3.8744,-0.2787,-0.9263,101.81,1405.70,-814.33
9280,-3.8744,-0.2777,-0.9257,336.18,1452.58,-1111.21
9290,-3.8744,-0.2775,-0.9255,461.18,1530.70,-1283.08
9300,-3.8744,-0.2783,-0.9253,492.43,1546.33,-1267.46
9310,-3.8744,-0.2794,-0.9254,383.06,1577.58,-1126.83
9320,-3.8744,-0.2804,-0.9261,242.43,1561.95,-986.21
9330,-3.8744,-0.2819,-0.9268,117.43,1468.20,-751.83
9340,-3.8744,-0.2822,-0.9277,-70.07,1390.01,-501.83
9350,-3.8744,-0.2815,-0.9287,-116.94,1265.01,-298.71
9360,-3.8744,-0.2815,-0.9299,-23.19,1140.01,-189.33
9370,-3.8744,-0.2827,-0.9302,-23.19,983.76,-251.83
9380,-3.8744,-0.2832,-0.9292,-179.44,952.51,-486.21
9390,-3.8744,-0.2830,-0.9282,-241.94,1077.51,-720.58
9400,-3.8744,-0.2825,-0.9264,-210.69,1202.51,-954.96
9410,-3.8744,-0.2810,-0.9246,-148.19,1436.89,-1079.96
9420,-3.8744,-0.2784,-0.9238,39.31,1671.33,-923.71
9430,-3.8744,-0.2771,-0.9241,367.43,1765.08,-720.58
9440,-3.8744,-0.2780,-0.9249,539.31,1733.83,-704.96
9450,-3.8744,-0.2792,-0.9263,429.93,1624.45,-954.96
9460,-3.8744,-0.2795,-0.9277,273.68,1452.58,-1251.83
9470,-3.8744,-0.2789,-0.9283,226.81,1265.08,-1408.08
9480,-3.8744,-0.2780,-0.9292,304.93,1186.95,-1439.33
9490,-3.8744,-0.2775,-0.9301,429.93,1077.58,-1173.71
9500,-3.8744,-0.2777,-0.9287,492.43,968.20,-720.58
9510,-3.8744,-0.2788,-0.9269,461.18,1140.08,-361.21
9520,-3.8744,-0.2810,-0.9259,320.56,1374.45,-220.58
9530,-3.8744,-0.2837,-0.9252,39.31,1499.45,-298.71
9540,-3.8744,-0.2860,-0.9244,-304.44,1593.14,-579.96
9550,-3.8744,-0.2870,-0.9247,-601.32,1686.89,-783.08
9560,-3.8744,-0.2867,-0.9263,-726.32,1655.64,-751.83
9570,-3.8744,-0.2858,-0.9288,-695.07,1452.51,-611.21
9580,-3.8744,-0.2842,-0.9314,-570.07,1124.39,-439.33
9590,-3.8744,-0.2816,-0.9319,-366.94,796.26,-408.08
9600,-3.8744,-0.2792,-0.9305,-38.82,733.76,-439.33
9610,-3.8744,-0.2777,-0.9283,273.68,905.70,-501.83
9620,-3.8744,-0.2770,-0.9265,461.18,1186.95,-564.33
9630,-3.8744,-0.2777,-0.9253,554.93,1421.33,-673.71
9640,-3.8744,-0.2787,-0.9244,461.18,1577.58,-751.83
9650,-3.8744,-0.2791,-0.9241,336.18,1686.95,-783.08
9660,-3.8744,-0.2795,-0.9246,289.31,1733.83,-861.21
9670,-3.8744,-0.2810,-0.9260,226.81,1671.33,-954.96
9680,-3.8744,-0.2827,-0.9269,39.31,1483.83,-1064.33
9690,-3.8744,-0.2837,-0.9276,-179.44,1374.39,-1111.21
9700,-3.8744,-0.2836,-0.9280,-304.44,1280.64,-1079.96
9710,-3.8744,-0.2823,-0.9274,-288.82,1233.76,-986.21
9720,-3.8744,-0.2799,-0.9268,-132.57,1311.89,-876.83
9730,-3.8744,-0.2776,-0.9269,179.93,1390.08,-704.96
9740,-3.8744,-0.2772,-0.9269,476.81,1374.45,-470.58
9750,-3.8744,-0.2782,-0.9276,523.68,1374.45,-376.83
9760,-3.8744,-0.2791,-0.9283,398.68,1280.70,-408.08
9770,-3.8744,-0.2804,-0.9286,289.31,1186.95,-533.08
9780,-3.8744,-0.2821,-0.9290,117.43,1155.70,-720.58
9790,-3.8744,-0.2838,-0.9291,-101.32,1108.76,-986.21
9800,-3.8744,-0.2849,-0.9281,-320.07,1093.14,-1251.83
9810,-3.8744,-0.2848,-0.9263,-460.69,1218.14,-1251.83
9820,-3.8744,-0.2832,-0.9247,-445.07,1452.51,-970.58
9830,-3.8744,-0.2805,-0.9237,-241.94,1655.64,-658.08
9840,-3.8744,-0.2782,-0.9231,101.81,1780.70,-533.08
9850,-3.8744,-0.2775,-0.9235,398.68,1858.83,-548.71
9860,-3.8744,-0.2789,-0.9246,492.43,1811.95,-642.46
9870,-3.8744,-0.2814,-0.9258,304.93,1671.33,-814.33
9880,-3.8744,-0.2837,-0.9272,-7.57,1515.01,-954.96
9890,-3.8744,-0.2850,-0.9288,-304.44,1327.51,-954.96
9900,-3.8744,-0.2853,-0.9293,-476.32,1124.39,-861.21
9910,-3.8744,-0.2853,-0.9290,-507.57,1061.89,-673.71
9920,-3.8744,-0.2853,-0.9286,-507.57,1108.76,-454.96
9930,-3.8744,-0.2852,-0.9280,-507.57,1155.64,-361.21
9940,-3.8744,-0.2845,-0.9277,-491.94,1233.76,-329.96
9950,-3.8744,-0.2837,-0.9285,-413.82,1265.01,-408.08
9960,-3.8744,-0.2833,-0.9293,-304.44,1171.26,-579.96
9970,-3.8744,-0.2830,-0.9301,-257.57,1061.89,-673.71
9980,-3.8744,-0.2804,-0.9307,-210.69,968.14,-767.46
9990,-3.8744,-0.2769,-0.9296,117.43,890.08,-876.83
10000,-3.8744,-0.2755,-0.9266,570.56,1030.70,-798.71
10010,-3.8744,-0.2761,-0.9265,742.43,1405.70,-626.83
10020,-3.8744,-0.2783,-0.9257,664.31,1421.33,-658.08
10030,-3.8744,-0.2823,-0.9226,383.06,1530.70,-829.96
10040,-3.8744,-0.2847,-0.9220,-132.57,1921.26,-1111.21
10050,-3.8744,-0.2843,-0.9221,-429.44,1999.39,-1486.21
10060,-3.8744,-0.2842,-0.9238,-382.57,1983.76,-1626.83
10070,-3.8744,-0.2844,-0.9261,-366.94,1765.01,-1470.58
10080,-3.8744,-0.2830,-0.9275,-398.19,1468.14,-1220.58
10090,-3.8744,-0.2809,-0.9293,-210.69,1296.26,-1048.71
10100,-3.8744,-0.2788,-0.9304,54.93,1061.95,-986.21
10110,-3.8744,-0.2770,-0.9301,320.56,921.33,-720.58
10120,-3.8744,-0.2756,-0.9298,554.93,968.20,-267.46
10130,-3.8743,-0.2756,-0.9286,726.81,999.45,76.29
10140,-3.8743,-0.2778,-0.9269,726.81,1155.70,138.79
10150,-3.8744,-0.2814,-0.9263,445.56,1374.45,-79.96
10160,-3.8744,-0.2847,-0.9249,-7.57,1452.51,-486.21
10170,-3.8744,-0.2875,-0.9235,-429.44,1624.39,-845.58
10180,-3.8744,-0.2881,-0.9233,-788.82,1811.89,-1126.83
10190,-3.8744,-0.2860,-0.9220,-866.94,1827.51,-1236.21
10200,-3.8744,-0.2839,-0.9209,-601.32,1999.39,-1017.46
10210,-3.8744,-0.2819,-0.9222,-335.69,-1859.99,-829.96
10220,-3.8744,-0.2804,-0.9240,-70.07,1968.14,-704.96
10230,-3.8744,-0.2795,-0.9265,117.43,1749.45,-517.46
10240,-3.8744,-0.2783,-0.9287,226.81,1421.33,-595.58
10250,-3.8744,-0.2771,-0.9286,383.06,1140.08,-892.46
10260,-3.8744,-0.2766,-0.9287,539.31,1155.70,-954.96
10270,-3.8744,-0.2770,-0.9280,601.81,1140.08,-751.83
10280,-3.8744,-0.2778,-0.9279,554.93,1233.83,-408.08
10290,-3.8744,-0.2794,-0.9288,445.56,1249.45,-236.21
10300,-3.8744,-0.2823,-0.9279,242.43,1124.45,-361.21
10310,-3.8744,-0.2856,-0.9269,-132.57,1249.39,-658.08
10320,-3.8744,-0.2870,-0.9254,-554.44,1374.39,-970.58
10330,-3.8744,-0.2861,-0.9238,-726.32,1561.89,-1064.33
10340,-3.8744,-0.2842,-0.9246,-616.94,1765.01,-939.33
10350,-3.8744,-0.2810,-0.9257,-366.94,1671.26,-673.71
10360,-3.8744,-0.2776,-0.9255,39.31,1530.70,-298.71
10370,-3.8743,-0.2761,-0.9252,476.81,1546.33,29.42
10380,-3.8743,-0.2775,-0.9253,664.31,1593.20,138.79
10390,-3.8744,-0.2817,-0.9261,492.43,1577.58,-1.83
10400,-3.8744,-0.2874,-0.9282,-54.44,1468.14,-298.71
10410,-3.8744,-0.2919,-0.9305,-773.19,1202.51,-564.33
10420,-3.8744,-0.2939,-0.9307,-1351.32,905.64,-736.21
10430,-3.8744,-0.2919,-0.9293,-1616.94,890.01,-673.71
10440,-3.8744,-0.2852,-0.9283,-1351.32,1061.89,-533.08
10450,-3.8744,-0.2767,-0.9275,-491.94,1186.89,-533.08
10460,-3.8744,-0.2694,-0.9263,586.18,1296.33,-626.83
10470,-3.8744,-0.2649,-0.9250,1523.68,1452.58,-861.21
10480,-3.8744,-0.2644,-0.9240,-1898.19,1608.83,-1345.58
10490,-3.8744,-0.2672,-0.9226,-1835.69,1749.45,-1736.21
10500,-3.8744,-0.2726,-0.9215,1804.93,1921.33,-1720.58
10510,-3.8744,-0.2791,-0.9222,1117.43,-1938.05,-1251.83
10520,-3.8744,-0.2856,-0.9240,289.31,1968.20,-673.71
10530,-3.8744,-0.2908,-0.9266,-554.44,1749.39,-298.71
10540,-3.8744,-0.2928,-0.9297,-1210.69,1405.64,-220.58
10550,-3.8744,-0.2924,-0.9318,-1476.32,1015.01,-392.46
10560,-3.8744,-0.2906,-0.9336,-1413.82,749.39,-736.21
10570,-3.8744,-0.2880,-0.9335,-1195.07,515.01,-908.08
10580,-3.8744,-0.2839,-0.9318,-851.32,530.64,-673.71
10590,-3.8744,-0.2791,-0.9298,-335.69,749.39,-236.21
10600,-3.8743,-0.2742,-0.9281,289.31,999.45,248.17
10610,-3.8743,-0.2698,-0.9270,914.31,1218.20,482.54
10620,-3.8743,-0.2688,-0.9261,1476.81,1358.83,341.92
10630,-3.8744,-0.2732,-0.9258,1601.81,1468.20,-189.33
10640,-3.8744,-0.2799,-0.9253,1039.31,1515.08,-1001.83
10650,-3.8744,-0.2847,-0.9237,179.93,1577.58,-1736.21
10660,-3.8744,-0.2869,-0.9227,-429.44,1780.64,1998.17
10670,-3.8744,-0.2866,-0.9233,-710.69,1905.64,-1736.21
10680,-3.8744,-0.2839,-0.9250,-679.44,1827.51,-1158.08
10690,-3.8744,-0.2800,-0.9265,-335.69,1608.76,-579.96
10700,-3.8744,-0.2767,-0.9276,164.31,1421.33,-251.83
10710,-3.8744,-0.2745,-0.9282,586.18,1280.70,-173.71
10720,-3.8744,-0.2748,-0.9280,867.43,1202.58,-236.21
10730,-3.8744,-0.2776,-0.9291,836.18,1233.83,-236.21
10740,-3.8744,-0.2812,-0.9316,476.81,1093.20,-111.21
10750,-3.8743,-0.2844,-0.9326,8.06,765.08,13.79
10760,-3.8743,-0.2863,-0.9313,-398.19,640.01,107.54
10770,-3.8743,-0.2866,-0.9291,-632.57,811.89,13.79
10780,-3.8744,-0.2852,-0.9280,-679.44,1093.14,-423.71
10790,-3.8744,-0.2823,-0.9266,-491.94,1233.76,-1111.21
10800,-3.8744,-0.2799,-0.9247,-132.57,1405.64,-1533.08
10810,-3.8744,-0.2792,-0.9232,179.93,1655.70,-1298.71
10820,-3.8744,-0.2794,-0.9233,273.68,1843.20,-767.46
10830,-3.8744,-0.2788,-0.9253,242.43,1827.58,-376.83
10840,-3.8744,-0.2769,-0.9274,320.56,1577.58,-298.71
10850,-3.8744,-0.2742,-0.9280,570.56,1311.95,-439.33
10860,-3.8744,-0.2726,-0.9271,914.31,1233.83,-595.58
10870,-3.8744,-0.2732,-0.9263,1117.43,1343.20,-751.83
10880,-3.8744,-0.2762,-0.9261,1039.31,1452.58,-986.21
10890,-3.8744,-0.2802,-0.9265,648.68,1468.20,-1158.08
10900,-3.8744,-0.2837,-0.9272,148.68,1421.33,-1095.58
10910,-3.8744,-0.2863,-0.9279,-304.44,1327.51,-908.08
10920,-3.8744,-0.2865,-0.9282,-632.57,1249.39,-720.58
10930,-3.8744,-0.2852,-0.9291,-663.82,1202.51,-470.58
10940,-3.8744,-0.2820,-0.9283,-491.94,1093.14,-298.71
10950,-3.8744,-0.2781,-0.9265,-85.69,1186.89,-220.58
10960,-3.8744,-0.2756,-0.9244,414.31,1421.33,-189.33
10970,-3.8744,-0.2754,-0.9233,726.81,1686.95,-189.33
10980,-3.8744,-0.2773,-0.9244,758.06,1827.58,-251.83
10990,-3.8744,-0.2804,-0.9263,508.06,1686.95,-439.33
11000,-3.8744,-0.2831,-0.9279,117.43,1452.58,-595.58
11010,-3.8744,-0.2842,-0.9282,-226.32,1249.39,-658.08
11020,-3.8744,-0.2836,-0.9281,-366.94,1202.51,-720.58
11030,-3.8744,-0.2819,-0.9280,-288.82,1218.14,-798.71
11040,-3.8744,-0.2784,-0.9274,-70.07,1233.76,-720.58
11050,-3.8744,-0.2753,-0.9266,367.43,1311.95,-564.33
11060,-3.8744,-0.2744,-0.9255,773.68,1405.70,-564.33
11070,-3.8744,-0.2742,-0.9250,883.06,1546.33,-595.58
11080,-3.8744,-0.2749,-0.9255,914.31,1608.83,-611.21
11090,-3.8744,-0.2780,-0.9270,820.56,1546.33,-611.21
11100,-3.8744,-0.2817,-0.9285,429.93,1358.83,-470.58
11110,-3.8744,-0.2845,-0.9286,-54.44,1171.26,-204.96
11120,-3.8744,-0.2863,-0.9280,-413.82,1155.64,-1.83
11130,-3.8743,-0.2871,-0.9281,-632.57,1233.76,45.04
11140,-3.8744,-0.2872,-0.9292,-741.94,1218.14,-79.96
11150,-3.8744,-0.2861,-0.9296,-757.57,1077.51,-376.83
11160,-3.8744,-0.2837,-0.9288,-616.94,1030.64,-783.08
11170,-3.8744,-0.2805,-0.9274,-304.44,1124.39,-986.21
11180,-3.8744,-0.2765,-0.9261,101.81,1311.95,-845.58
11190,-3.8744,-0.2725,-0.9264,617.43,1468.20,-486.21
11200,-3.8744,-0.2695,-0.9260,1133.06,1436.95,-126.83
11210,-3.8743,-0.2684,-0.9257,1508.06,1483.83,60.67
11220,-3.8744,-0.2705,-0.9250,1648.68,1530.70,-79.96
11230,-3.8744,-0.2749,-0.9243,1383.06,1608.83,-408.08
11240,-3.8744,-0.2797,-0.9247,820.56,1702.58,-783.08
11250,-3.8744,-0.2848,-0.9257,211.18,1655.70,-1079.96
11260,-3.8744,-0.2893,-0.9266,-445.07,1530.64,-1111.21
11270,-3.8744,-0.2909,-0.9274,-1023.19,1405.64,-954.96
11280,-3.8744,-0.2889,-0.9277,-1226.32,1311.89,-751.83
11290,-3.8744,-0.2849,-0.9277,-976.32,1265.01,-533.08
11300,-3.8744,-0.2797,-0.9275,-460.69,1265.01,-376.83
11310,-3.8744,-0.2745,-0.9269,211.18,1296.33,-251.83
11320,-3.8744,-0.2716,-0.9270,867.43,1374.45,-142.46
11330,-3.8744,-0.2715,-0.9279,1242.43,1358.83,-142.46
11340,-3.8744,-0.2732,-0.9287,1258.06,1249.45,-236.21
11350,-3.8744,-0.2759,-0.9293,1039.31,1140.08,-376.83
11360,-3.8744,-0.2789,-0.9292,695.56,1061.95,-486.21
11370,-3.8744,-0.2822,-0.9280,304.93,1077.58,-486.21
11380,-3.8744,-0.2839,-0.9261,-116.94,1233.76,-533.08
11390,-3.8744,-0.2839,-0.9246,-335.69,1468.14,-720.58
11400,-3.8744,-0.2832,-0.9240,-335.69,1671.26,-923.71
11410,-3.8744,-0.2828,-0.9237,-241.94,1749.39,-970.58
11420,-3.8744,-0.2822,-0.9241,-195.07,1780.64,-970.58
11430,-3.8744,-0.2811,-0.9254,-116.94,1733.76,-861.21
11440,-3.8744,-0.2802,-0.9275,23.68,1561.95,-579.96
11450,-3.8744,-0.2789,-0.9293,148.68,1296.33,-329.96
11460,-3.8744,-0.2776,-0.9309,304.93,1061.95,-158.08
11470,-3.8744,-0.2767,-0.9318,476.81,858.83,-1.83
11480,-3.8743,-0.2771,-0.9309,586.18,749.45,91.92
11490,-3.8743,-0.2786,-0.9290,539.31,858.83,138.79
11500,-3.8743,-0.2810,-0.9271,351.81,1108.83,29.42
11510,-3.8744,-0.2844,-0.9259,39.31,1343.20,-298.71
11520,-3.8744,-0.2864,-0.9248,-398.19,1499.39,-704.96
11530,-3.8744,-0.2853,-0.9241,-648.19,1640.01,-1033.08
11540,-3.8744,-0.2822,-0.9247,-507.57,1733.76,-1064.33
11550,-3.8744,-0.2794,-0.9253,-116.94,1655.64,-845.58
11560,-3.8744,-0.2773,-0.9254,242.43,1577.58,-579.96
11570,-3.8744,-0.2755,-0.9269,508.06,1561.95,-298.71
11580,-3.8744,-0.2749,-0.9283,742.43,1374.45,-220.58
11590,-3.8744,-0.2759,-0.9286,820.56,1186.95,-329.96
11600,-3.8744,-0.2777,-0.9288,695.56,1155.70,-486.21
11610,-3.8744,-0.2793,-0.9292,461.18,1124.45,-579.96
11620,-3.8744,-0.2809,-0.9291,258.06,1077.58,-564.33
11630,-3.8744,-0.2831,-0.9290,54.93,1093.20,-579.96
11640,-3.8744,-0.2853,-0.9280,-226.32,1108.76,-658.08
11650,-3.8744,-0.2860,-0.9266,-507.57,1233.76,-533.08
11660,-3.8744,-0.2863,-0.9263,-601.32,1405.64,-392.46
11670,-3.8744,-0.2853,-0.9255,-632.57,1452.51,-486.21
11680,-3.8744,-0.2812,-0.9244,-507.57,1546.26,-751.83
11690,-3.8744,-0.2751,-0.9236,8.06,1686.95,-954.96
11700,-3.8744,-0.2701,-0.9242,789.31,1796.33,-939.33
11710,-3.8744,-0.2679,-0.9264,1429.93,1718.20,-798.71
11720,-3.8744,-0.2690,-0.9291,1711.18,1436.95,-579.96
11730,-3.8744,-0.2736,-0.9305,1570.56,1093.20,-501.83
11740,-3.8744,-0.2794,-0.9299,992.43,905.70,-486.21
11750,-3.8744,-0.2843,-0.9287,242.43,983.83,-423.71
11760,-3.8744,-0.2875,-0.9272,-382.57,1140.01,-298.71
11770,-3.8744,-0.2883,-0.9255,-788.82,1327.51,-173.71
11780,-3.8744,-0.2872,-0.9242,-898.19,1546.26,-111.21
11790,-3.8744,-0.2855,-0.9235,-757.57,1718.14,-189.33
11800,-3.8744,-0.2825,-0.9240,-538.82,1811.89,-408.08
11810,-3.8744,-0.2792,-0.9250,-148.19,1749.39,-579.96
11820,-3.8744,-0.2780,-0.9264,273.68,1608.83,-673.71
11830,-3.8744,-0.2783,-0.9276,429.93,1436.95,-626.83
11840,-3.8744,-0.2786,-0.9283,383.06,1280.70,-423.71
11850,-3.8744,-0.2783,-0.9285,351.81,1186.95,-267.46
11860,-3.8744,-0.2784,-0.9286,383.06,1171.33,-204.96
11870,-3.8744,-0.2789,-0.9281,367.43,1155.70,-283.08
11880,-3.8744,-0.2776,-0.9264,304.93,1218.20,-486.21
11890,-3.8744,-0.2764,-0.9247,476.81,1436.95,-814.33
11900,-3.8744,-0.2769,-0.9233,633.06,1655.70,-1033.08
11910,-3.8744,-0.2780,-0.9236,570.56,1827.58,-954.96
11920,-3.8744,-0.2797,-0.9259,429.93,1796.33,-736.21
11930,-3.8744,-0.2816,-0.9285,211.18,1499.45,-439.33
11940,-3.8744,-0.2839,-0.9296,-38.82,1171.26,-204.96
11950,-3.8744,-0.2860,-0.9296,-335.69,1030.64,-126.83
11960,-3.8744,-0.2859,-0.9288,-601.32,1030.64,-95.58
11970,-3.8744,-0.2842,-0.9288,-585.69,1124.39,-48.71
11980,-3.8744,-0.2817,-0.9286,-366.94,1124.39,-33.08
11990,-3.8744,-0.2797,-0.9270,-54.44,1155.64,-283.08
12000,-3.8744,-0.2781,-0.9258,211.18,1358.83,-673.71
12010,-3.8744,-0.2766,-0.9254,414.31,1515.08,-954.96
12020,-3.8744,-0.2755,-0.9258,601.81,1561.95,-986.21
12030,-3.8744,-0.2754,-0.9257,742.43,1515.08,-954.96
12040,-3.8744,-0.2754,-0.9254,758.06,1530.70,-861.21
12050,-3.8744,-0.2758,-0.9258,758.06,1561.95,-611.21
12060,-3.8744,-0.2758,-0.9266,711.18,1515.08,-376.83
12070,-3.8744,-0.2761,-0.9277,711.18,1405.70,-267.46
12080,-3.8744,-0.2784,-0.9280,664.31,1265.08,-251.83
12090,-3.8744,-0.2820,-0.9279,367.43,1233.83,-267.46
12100,-3.8744,-0.2855,-0.9281,-85.69,1249.39,-376.83
12110,-3.8744,-0.2872,-0.9282,-538.82,1218.14,-408.08
12120,-3.8744,-0.2869,-0.9268,-757.57,1202.51,-423.71
12130,-3.8744,-0.2860,-0.9250,-710.69,1390.01,-486.21
12140,-3.8744,-0.2844,-0.9244,-601.32,1608.76,-454.96
12150,-3.8744,-0.2812,-0.9247,-398.19,1686.89,-361.21
12160,-3.8744,-0.2777,-0.9255,8.06,1655.70,-392.46
12170,-3.8744,-0.2755,-0.9266,461.18,1546.33,-486.21
12180,-3.8744,-0.2748,-0.9276,742.43,1405.70,-658.08
12190,-3.8744,-0.2745,-0.9276,836.18,1280.70,-751.83
12200,-3.8744,-0.2745,-0.9274,867.43,1280.70,-673.71
12210,-3.8744,-0.2762,-0.9272,867.43,1311.95,-595.58
12220,-3.8744,-0.2789,-0.9270,648.68,1327.58,-595.58
12230,-3.8744,-0.2809,-0.9261,304.93,1358.83,-658.08
12240,-3.8744,-0.2820,-0.9255,54.93,1468.20,-736.21
12250,-3.8744,-0.2825,-0.9258,-85.69,1546.26,-767.46
12260,-3.8744,-0.2828,-0.9263,-148.19,1515.01,-736.21
12270,-3.8744,-0.2831,-0.9269,-195.07,1452.51,-704.96
12280,-3.8744,-0.2819,-0.9280,-226.32,1374.39,-595.58
12290,-3.8744,-0.2802,-0.9287,-70.07,1233.76,-408.08
12300,-3.8744,-0.2792,-0.9285,148.68,1140.08,-220.58
12310,-3.8744,-0.2789,-0.9283,273.68,1171.33,-79.96
12320,-3.8744,-0.2791,-0.9279,304.93,1186.95,-142.46
12330,-3.8744,-0.2800,-0.9265,289.31,1249.45,-345.58
12340,-3.8744,-0.2815,-0.9257,164.31,1421.33,-454.96
12350,-3.8744,-0.2820,-0.9259,-23.19,1530.64,-548.71
12360,-3.8744,-0.2817,-0.9263,-85.69,1499.39,-720.58
12370,-3.8744,-0.2811,-0.9260,-54.44,1452.51,-923.71
12380,-3.8744,-0.2799,-0.9257,23.68,1483.83,-970.58
12390,-3.8744,-0.2782,-0.9253,179.93,1530.70,-939.33
12400,-3.8744,-0.2764,-0.9252,398.68,1577.58,-923.71
12410,-3.8744,-0.2748,-0.9253,633.06,1593.20,-814.33
12420,-3.8744,-0.2749,-0.9263,836.18,1577.58,-689.33
12430,-3.8744,-0.2770,-0.9286,820.56,1452.58,-533.08
12440,-3.8744,-0.2802,-0.9302,554.93,1155.70,-376.83
12450,-3.8744,-0.2833,-0.9299,148.68,952.58,-361.21
12460,-3.8744,-0.2852,-0.9299,-257.57,983.76,-423.71
12470,-3.8744,-0.2848,-0.9305,-491.94,983.76,-548.71
12480,-3.8744,-0.2830,-0.9307,-445.07,905.64,-626.83
12490,-3.8744,-0.2816,-0.9297,-210.69,890.01,-548.71
12500,-3.8744,-0.2819,-0.9277,-38.82,1015.01,-470.58
12510,-3.8744,-0.2827,-0.9260,-70.07,1265.01,-361.21
12520,-3.8744,-0.2817,-0.9246,-179.44,1483.76,-329.96
12530,-3.8744,-0.2800,-0.9232,-54.44,1671.26,-470.58
12540,-3.8744,-0.2781,-0.9231,164.31,1843.20,-720.58
12550,-3.8744,-0.2755,-0.9243,414.31,1858.83,-1001.83
12560,-3.8744,-0.2743,-0.9265,742.43,1702.58,-1017.46
12570,-3.8744,-0.2760,-0.9286,898.68,1421.33,-783.08
12580,-3.8744,-0.2788,-0.9291,679.93,1155.70,-704.96
12590,-3.8744,-0.2812,-0.9280,320.56,1093.20,-829.96
12600,-3.8744,-0.2830,-0.9274,8.06,1233.83,-861.21
12610,-3.8744,-0.2830,-0.9280,-210.69,1311.89,-564.33
12620,-3.8744,-0.2821,-0.9288,-210.69,1233.76,-298.71
12630,-3.8744,-0.2815,-0.9285,-101.32,1124.39,-220.58
12640,-3.8744,-0.2816,-0.9272,-23.19,1171.26,-158.08
12650,-3.8744,-0.2816,-0.9265,-38.82,1327.51,-220.58
12660,-3.8744,-0.2814,-0.9264,-38.82,1421.26,-454.96
12670,-3.8744,-0.2814,-0.9263,-7.57,1436.89,-642.46
12680,-3.8744,-0.2820,-0.9264,-7.57,1452.51,-751.83
12690,-3.8744,-0.2821,-0.9270,-85.69,1436.89,-798.71
12700,-3.8744,-0.2814,-0.9270,-101.32,1358.76,-704.96
12710,-3.8744,-0.2812,-0.9265,-7.57,1358.76,-579.96
12720,-3.8744,-0.2811,-0.9259,8.06,1421.33,-533.08
12730,-3.8744,-0.2799,-0.9257,23.68,1499.45,-642.46
12740,-3.8744,-0.2773,-0.9261,179.93,1530.70,-767.46
12750,-3.8744,-0.2753,-0.9274,508.06,1468.20,-814.33
12760,-3.8744,-0.2756,-0.9291,773.68,1311.95,-704.96
12770,-3.8744,-0.2783,-0.9298,726.81,1093.20,-439.33
12780,-3.8744,-0.2815,-0.9297,383.06,999.45,-158.08
12790,-3.8744,-0.2836,-0.9291,-23.19,1015.01,-33.08
12800,-3.8744,-0.2855,-0.9276,-288.82,1093.14,-111.21
12810,-3.8744,-0.2865,-0.9261,-538.82,1280.64,-298.71
12820,-3.8744,-0.2858,-0.9249,-663.82,1468.14,-533.08
12830,-3.8744,-0.2839,-0.9247,-570.07,1624.39,-767.46
12840,-3.8744,-0.2820,-0.9248,-335.69,1655.64,-970.58
12850,-3.8744,-0.2799,-0.9258,-85.69,1640.01,-1033.08
12860,-3.8744,-0.2783,-0.9264,179.93,1515.08,-970.58
12870,-3.8744,-0.2778,-0.9261,383.06,1436.95,-829.96
12880,-3.8744,-0.2782,-0.9269,445.56,1468.20,-626.83
12890,-3.8744,-0.2782,-0.9281,398.68,1374.45,-392.46
12900,-3.8744,-0.2784,-0.9287,398.68,1218.20,-111.21
12910,-3.8744,-0.2792,-0.9288,367.43,1140.08,-17.46
12920,-3.8744,-0.2800,-0.9286,273.68,1124.45,-142.46
12930,-3.8744,-0.2794,-0.9277,164.31,1155.70,-329.96
12940,-3.8744,-0.2783,-0.9266,242.43,1265.08,-486.21
12950,-3.8744,-0.2793,-0.9258,383.06,1405.70,-564.33
12960,-3.8744,-0.2817,-0.9250,258.06,1515.08,-673.71
12970,-3.8744,-0.2833,-0.9246,-54.44,1608.76,-892.46
12980,-3.8744,-0.2837,-0.9243,-257.57,1671.26,-1111.21
12990,-3.8744,-0.2823,-0.9240,-304.44,1702.51,-1158.08
13000,-3.8744,-0.2797,-0.9240,-132.57,1749.39,-1017.46
13010,-3.8744,-0.2771,-0.9243,211.18,1749.45,-704.96
13020,-3.8744,-0.2762,-0.9253,539.31,1702.58,-486.21
13030,-3.8744,-0.2766,-0.9264,648.68,1577.58,-361.21
13040,-3.8744,-0.2767,-0.9271,601.81,1436.95,-220.58
13050,-3.8744,-0.2777,-0.9281,586.18,1343.20,-236.21
13060,-3.8744,-0.2793,-0.9291,461.18,1218.20,-236.21
13070,-3.8744,-0.2812,-0.9291,258.06,1093.20,-126.83
13080,-3.8744,-0.2834,-0.9286,8.06,1093.20,-142.46
13090,-3.8744,-0.2847,-0.9269,-273.19,1155.64,-283.08
13100,-3.8744,-0.2842,-0.9249,-429.44,1374.39,-408.08
13110,-3.8744,-0.2823,-0.9242,-366.94,1624.39,-517.46
13120,-3.8744,-0.2798,-0.9252,-132.57,1718.14,-548.71
13130,-3.8744,-0.2777,-0.9265,195.56,1593.20,-564.33
13140,-3.8744,-0.2767,-0.9276,461.18,1421.33,-611.21
13150,-3.8744,-0.2767,-0.9287,586.18,1280.70,-626.83
13160,-3.8744,-0.2775,-0.9287,586.18,1140.08,-548.71
13170,-3.8744,-0.2784,-0.9286,492.43,1140.08,-361.21
13180,-3.8744,-0.2791,-0.9283,367.43,1155.70,-158.08
13190,-3.8744,-0.2788,-0.9274,289.31,1186.95,-79.96
13200,-3.8744,-0.2786,-0.9266,320.56,1311.95,-189.33
13210,-3.8744,-0.2802,-0.9252,351.81,1405.70,-501.83
13220,-3.8744,-0.2826,-0.9240,148.68,1593.20,-751.83
13230,-3.8744,-0.2845,-0.9242,-163.82,1749.39,-704.96
13240,-3.8744,-0.2855,-0.9263,-413.82,1718.14,-517.46
13250,-3.8744,-0.2849,-0.9292,-538.82,1452.51,-267.46
13260,-3.8744,-0.2827,-0.9313,-460.69,1077.51,-64.33
13270,-3.8744,-0.2791,-0.9325,-179.44,811.89,-1.83
13280,-3.8744,-0.2755,-0.9326,289.31,655.70,-111.21
13290,-3.8744,-0.2740,-0.9312,742.43,640.08,-345.58
13300,-3.8744,-0.2753,-0.9286,929.93,827.58,-517.46
13310,-3.8744,-0.2771,-0.9255,773.68,1155.70,-486.21
13320,-3.8744,-0.2791,-0.9227,539.31,1546.33,-267.46
13330,-3.8744,-0.2819,-0.9213,289.31,1905.70,-126.83
13340,-3.8744,-0.2839,-0.9216,-70.07,-1906.86,-283.08
13350,-3.8744,-0.2845,-0.9231,-335.69,-1953.74,-704.96
13360,-3.8744,-0.2847,-0.9247,-413.82,1858.76,-1064.33
13370,-3.8744,-0.2843,-0.9266,-429.44,1655.64,-1173.71
13380,-3.8744,-0.2828,-0.9283,-382.57,1405.64,-1001.83
13390,-3.8744,-0.2803,-0.9297,-195.07,1186.89,-689.33
13400,-3.8744,-0.2770,-0.9308,133.06,1015.08,-423.71
13410,-3.8744,-0.2740,-0.9305,554.93,874.45,-64.33
13420,-3.8743,-0.2721,-0.9290,929.93,905.70,326.29
13430,-3.8743,-0.2710,-0.9274,1179.93,1108.83,388.79
13440,-3.8743,-0.2722,-0.9259,1320.56,1311.95,154.42
13450,-3.8744,-0.2760,-0.9240,1164.31,1499.45,-173.71
13460,-3.8744,-0.2806,-0.9225,679.93,1749.45,-454.96
13470,-3.8744,-0.2844,-0.9225,86.18,1936.95,-658.08
13480,-3.8744,-0.2874,-0.9235,-398.19,1936.89,-720.58
13490,-3.8744,-0.2886,-0.9249,-773.19,1811.89,-767.46
13500,-3.8744,-0.2872,-0.9265,-929.44,1624.39,-767.46
13510,-3.8744,-0.2844,-0.9277,-757.57,1421.26,-579.96
13520,-3.8744,-0.2809,-0.9282,-398.19,1265.01,-376.83
13530,-3.8744,-0.2769,-0.9282,54.93,1202.58,-189.33
13540,-3.8744,-0.2728,-0.9280,570.56,1202.58,-33.08
13550,-3.8744,-0.2698,-0.9277,1086.18,1233.83,-17.46
13560,-3.8744,-0.2695,-0.9272,1476.81,1265.08,-33.08
13570,-3.8744,-0.2723,-0.9268,1508.06,1327.58,-33.08
13580,-3.8744,-0.2766,-0.9271,1148.68,1390.08,-95.58
13590,-3.8744,-0.2808,-0.9266,601.81,1343.20,-314.33
13600,-3.8744,-0.2841,-0.9253,70.56,1405.70,-517.46
13610,-3.8744,-0.2855,-0.9244,-351.32,1577.51,-517.46
13620,-3.8744,-0.2849,-0.9243,-538.82,1686.89,-439.33
13630,-3.8744,-0.2820,-0.9246,-460.69,1702.51,-423.71
13640,-3.8744,-0.2783,-0.9255,-85.69,1671.26,-392.46
13650,-3.8744,-0.2761,-0.9268,383.06,1546.33,-283.08
13660,-3.8744,-0.2760,-0.9276,664.31,1390.08,-204.96
13670,-3.8744,-0.2767,-0.9287,679.93,1280.70,-220.58
13680,-3.8744,-0.2782,-0.9297,586.18,1140.08,-111.21
13690,-3.8743,-0.2798,-0.9303,398.68,1015.08,123.17
13700,-3.8743,-0.2808,-0.9302,195.56,936.95,232.54
13710,-3.8743,-0.2805,-0.9286,70.56,952.58,123.17
13720,-3.8744,-0.2800,-0.9260,101.81,1155.70,-79.96
13730,-3.8744,-0.2798,-0.9244,164.31,1483.83,-251.83
13740,-3.8744,-0.2795,-0.9238,195.56,1686.95,-470.58
13750,-3.8744,-0.2788,-0.9238,226.81,1765.08,-767.46
13760,-3.8744,-0.2775,-0.9243,320.56,1765.08,-876.83
13770,-3.8744,-0.2758,-0.9249,492.43,1702.58,-751.83
13780,-3.8744,-0.2736,-0.9254,711.18,1624.45,-564.33
13790,-3.8744,-0.2722,-0.9260,992.43,1561.95,-392.46
13800,-3.8744,-0.2731,-0.9270,1164.31,1483.83,-220.58
13810,-3.8744,-0.2758,-0.9282,1054.93,1358.83,-126.83
13820,-3.8744,-0.2786,-0.9287,711.18,1202.58,-33.08
13830,-3.8744,-0.2815,-0.9283,351.81,1140.08,-64.33
13840,-3.8744,-0.2838,-0.9279,-23.19,1186.89,-142.46
13850,-3.8744,-0.2842,-0.9274,-320.07,1249.39,-95.58
13860,-3.8744,-0.2831,-0.9272,-366.94,1311.89,-79.96
13870,-3.8743,-0.2817,-0.9277,-226.32,1327.51,45.04
13880,-3.8743,-0.2806,-0.9271,-54.44,1265.01,76.29
13890,-3.8744,-0.2791,-0.9264,86.18,1343.20,-111.21
13900,-3.8744,-0.2780,-0.9264,289.31,1436.95,-283.08
13910,-3.8744,-0.2765,-0.9264,429.93,1436.95,-283.08
13920,-3.8744,-0.2745,-0.9260,617.43,1436.95,-204.96
13930,-3.8744,-0.2742,-0.9258,867.43,1483.83,-142.46
13940,-3.8744,-0.2753,-0.9252,914.31,1515.08,-111.21
13950,-3.8744,-0.2769,-0.9248,773.68,1593.20,-173.71
13960,-3.8744,-0.2788,-0.9254,570.56,1640.08,-236.21
13970,-3.8744,-0.2808,-0.9263,320.56,1561.95,-267.46
13980,-3.8744,-0.2819,-0.9268,70.56,1452.58,-329.96
13990,-3.8744,-0.2819,-0.9271,-70.07,1390.01,-329.96
14000,-3.8744,-0.2812,-0.9269,-70.07,1343.14,-376.83
14010,-3.8744,-0.2799,-0.9261,8.06,1374.45,-314.33
14020,-3.8744,-0.2778,-0.9259,179.93,1468.20,-79.96
14030,-3.8743,-0.2762,-0.9265,445.56,1499.45,107.54
14040,-3.8743,-0.2761,-0.9274,648.68,1421.33,185.67
14050,-3.8743,-0.2773,-0.9271,664.31,1311.95,170.04
14060,-3.8744,-0.2791,-0.9264,508.06,1343.20,-1.83
14070,-3.8744,-0.2804,-0.9258,289.31,1436.95,-267.46
14080,-3.8744,-0.2816,-0.9252,117.43,1515.08,-314.33
14090,-3.8744,-0.2828,-0.9246,-38.82,1593.14,-189.33
14100,-3.8744,-0.2836,-0.9250,-195.07,1671.26,-158.08
14110,-3.8744,-0.2827,-0.9269,-288.82,1608.76,-236.21
14120,-3.8744,-0.2798,-0.9285,-179.44,1374.39,-329.96
14130,-3.8744,-0.2764,-0.9293,195.56,1171.33,-329.96
14140,-3.8744,-0.2729,-0.9309,633.06,1061.95,-158.08
14150,-3.8743,-0.2706,-0.9326,1070.56,858.83,60.67
14160,-3.8743,-0.2711,-0.9324,1367.43,640.08,201.29
14170,-3.8743,-0.2744,-0.9299,1304.93,671.33,295.04
14180,-3.8743,-0.2789,-0.9270,883.06,983.83,357.54
14190,-3.8743,-0.2825,-0.9246,304.93,1358.83,201.29
14200,-3.8744,-0.2838,-0.9216,-148.19,1671.26,-173.71
14210,-3.8744,-0.2838,-0.9189,-320.07,-1953.74,-579.96
14220,-3.8744,-0.2828,-0.9178,-320.07,-1609.99,-892.46
14230,-3.8744,-0.2814,-0.9192,-195.07,-1469.36,-986.21
14240,-3.8744,-0.2794,-0.9235,-7.57,-1641.24,-829.96
14250,-3.8744,-0.2767,-0.9288,242.43,1811.95,-548.71
14260,-3.8744,-0.2747,-0.9325,586.18,1124.45,-236.21
14270,-3.8743,-0.2734,-0.9338,851.81,655.70,91.92
14280,-3.8743,-0.2731,-0.9330,1008.06,483.83,498.17
14290,-3.8743,-0.2743,-0.9310,1054.93,593.20,826.29
14300,-3.8743,-0.2766,-0.9285,898.68,843.20,826.29
14310,-3.8743,-0.2784,-0.9254,601.81,1171.33,560.67
14320,-3.8743,-0.2799,-0.9233,367.43,1561.95,123.17
14330,-3.8744,-0.2816,-0.9226,179.93,1827.58,-345.58
14340,-3.8744,-0.2836,-0.9221,-38.82,1921.26,-720.58
14350,-3.8744,-0.2845,-0.9222,-288.82,1983.76,-986.21
14360,-3.8744,-0.2838,-0.9238,-413.82,1968.14,-1033.08
14370,-3.8744,-0.2811,-0.9255,-320.07,1765.01,-876.83
14380,-3.8744,-0.2775,-0.9265,23.68,1546.33,-564.33
14390,-3.8744,-0.2747,-0.9270,492.43,1421.33,-173.71
14400,-3.8743,-0.2731,-0.9275,851.81,1358.83,138.79
14410,-3.8743,-0.2716,-0.9282,1054.93,1296.33,295.04
14420,-3.8743,-0.2711,-0.9291,1242.43,1202.58,341.92
14430,-3.8743,-0.2738,-0.9292,1304.93,1093.20,295.04
14440,-3.8743,-0.2784,-0.9288,961.18,1077.58,248.17
14450,-3.8743,-0.2833,-0.9285,367.43,1124.45,279.42
14460,-3.8743,-0.2867,-0.9281,-257.57,1171.26,341.92
14470,-3.8743,-0.2878,-0.9276,-695.07,1218.14,310.67
14480,-3.8743,-0.2867,-0.9264,-835.69,1280.64,185.67
14490,-3.8743,-0.2837,-0.9250,-695.07,1436.89,123.17
14500,-3.8743,-0.2793,-0.9253,-304.44,1608.76,76.29
14510,-3.8744,-0.2751,-0.9260,258.06,1577.58,-48.71
14520,-3.8744,-0.2734,-0.9263,789.31,1483.83,-126.83
14530,-3.8744,-0.2734,-0.9261,1008.06,1452.58,-158.08
14540,-3.8744,-0.2739,-0.9261,1008.06,1468.20,-251.83
14550,-3.8744,-0.2748,-0.9266,945.56,1468.20,-267.46
14560,-3.8744,-0.2758,-0.9269,836.18,1405.70,-251.83
14570,-3.8744,-0.2771,-0.9272,711.18,1374.45,-236.21
14580,-3.8744,-0.2791,-0.9268,539.31,1327.58,-142.46
14590,-3.8743,-0.2804,-0.9259,289.31,1390.08,13.79
14600,-3.8743,-0.2804,-0.9255,117.43,1499.45,170.04
14610,-3.8743,-0.2800,-0.9261,117.43,1546.33,185.67
14620,-3.8743,-0.2798,-0.9270,164.31,1468.20,154.42
14630,-3.8743,-0.2798,-0.9282,195.56,1358.83,279.42
14640,-3.8743,-0.2798,-0.9293,195.56,1202.58,295.04
14650,-3.8743,-0.2792,-0.9286,195.56,1061.95,107.54
14660,-3.8744,-0.2781,-0.9274,273.68,1155.70,-33.08
14670,-3.8744,-0.2767,-0.9264,414.31,1311.95,-158.08
14680,-3.8744,-0.2760,-0.9253,586.18,1436.95,-329.96
14690,-3.8744,-0.2759,-0.9244,679.93,1577.58,-329.96
14700,-3.8744,-0.2761,-0.9240,695.56,1686.95,-236.21
14710,-3.8744,-0.2762,-0.9236,664.31,1749.45,-204.96
14720,-3.8744,-0.2769,-0.9243,648.68,1796.33,-236.21
14730,-3.8744,-0.2780,-0.9263,570.56,1702.58,-158.08
14740,-3.8744,-0.2795,-0.9274,429.93,1452.58,-33.08
14750,-3.8743,-0.2809,-0.9276,226.81,1311.95,123.17
14760,-3.8743,-0.2812,-0.9281,54.93,1280.70,216.92
14770,-3.8743,-0.2812,-0.9285,8.06,1218.20,248.17
14780,-3.8743,-0.2805,-0.9279,8.06,1171.33,295.04
14790,-3.8743,-0.2794,-0.9269,101.81,1249.45,295.04
14800,-3.8743,-0.2784,-0.9260,242.43,1374.45,216.92
14810,-3.8743,-0.2780,-0.9252,367.43,1483.83,138.79
14820,-3.8743,-0.2782,-0.9257,429.93,1593.20,45.04
14830,-3.8744,-0.2777,-0.9265,398.68,1530.70,-126.83
14840,-3.8744,-0.2767,-0.9266,461.18,1421.33,-283.08
14850,-3.8744,-0.2761,-0.9261,586.18,1405.70,-251.83
14860,-3.8744,-0.2766,-0.9260,664.31,1468.20,-126.83
14870,-3.8743,-0.2781,-0.9261,601.81,1483.83,45.04
14880,-3.8743,-0.2792,-0.9268,414.31,1468.20,170.04
14890,-3.8743,-0.2792,-0.9277,273.68,1390.08,154.42
14900,-3.8743,-0.2793,-0.9277,273.68,1265.08,76.29
14910,-3.8744,-0.2797,-0.9269,258.06,1265.08,-33.08
14920,-3.8744,-0.2799,-0.9260,211.18,1374.45,-48.71
14930,-3.8743,-0.2804,-0.9257,179.93,1483.83,29.42
14940,-3.8743,-0.2803,-0.9258,117.43,1530.70,45.04
14950,-3.8743,-0.2792,-0.9261,133.06,1515.08,91.92
14960,-3.8743,-0.2772,-0.9269,273.68,1468.20,170.04
14970,-3.8743,-0.2751,-0.9269,523.68,1374.45,185.67
14980,-3.8743,-0.2740,-0.9261,789.31,1374.45,91.92
14990,-3.8744,-0.2745,-0.9253,929.93,1468.20,-17.46
15000,-3.8744,-0.2758,-0.9255,867.43,1577.58,-33.08
15010,-3.8744,-0.2775,-0.9260,711.18,1546.33,-95.58
15020,-3.8744,-0.2799,-0.9261,492.43,1483.83,-173.71
15030,-3.8744,-0.2815,-0.9268,179.93,1468.20,-142.46
15040,-3.8744,-0.2817,-0.9282,-23.19,1390.01,-64.33
15050,-3.8744,-0.2806,-0.9301,-54.44,1202.51,-17.46
15060,-3.8743,-0.2789,-0.9309,86.18,968.20,13.79
15070,-3.8743,-0.2780,-0.9297,304.93,858.83,216.92
15080,-3.8743,-0.2786,-0.9271,429.93,1015.08,529.42
15090,-3.8743,-0.2792,-0.9250,351.81,1343.20,638.79
15100,-3.8743,-0.2794,-0.9238,273.68,1608.83,341.92
15110,-3.8744,-0.2784,-0.9227,242.43,1765.08,-158.08
15120,-3.8744,-0.2766,-0.9219,367.43,1905.70,-517.46
15130,-3.8744,-0.2758,-0.9226,601.81,-1984.92,-642.46
15140,-3.8744,-0.2759,-0.9250,711.18,1921.33,-595.58
15150,-3.8744,-0.2755,-0.9280,695.56,1608.83,-361.21
15160,-3.8744,-0.2751,-0.9299,742.43,1233.83,-48.71
15170,-3.8743,-0.2756,-0.9304,789.31,983.83,154.42
15180,-3.8743,-0.2760,-0.9296,726.81,921.33,216.92
15190,-3.8743,-0.2762,-0.9283,679.93,1030.70,232.54
15200,-3.8743,-0.2770,-0.9274,648.68,1186.95,216.92
15210,-3.8743,-0.2787,-0.9260,554.93,1311.95,295.04
15220,-3.8743,-0.2804,-0.9248,336.18,1483.83,357.54
15230,-3.8743,-0.2811,-0.9247,117.43,1640.08,232.54
15240,-3.8743,-0.2815,-0.9255,23.68,1655.70,13.79
15250,-3.8744,-0.2816,-0.9268,-23.19,1546.26,-126.83
15260,-3.8744,-0.2810,-0.9274,-38.82,1390.01,-204.96
15270,-3.8744,-0.2797,-0.9272,39.31,1311.95,-220.58
15280,-3.8744,-0.2787,-0.9271,211.18,1327.58,-158.08
15290,-3.8744,-0.2771,-0.9266,336.18,1343.20,-95.58
15300,-3.8744,-0.2747,-0.9259,539.31,1405.70,-142.46
15310,-3.8744,-0.2725,-0.9257,851.81,1499.45,-95.58
15320,-3.8744,-0.2714,-0.9260,1133.06,1530.70,-1.83
15330,-3.8744,-0.2714,-0.9268,1273.68,1483.83,-33.08
15340,-3.8744,-0.2726,-0.9269,1273.68,1390.08,-95.58
15350,-3.8744,-0.2759,-0.9268,1117.43,1374.45,-95.58
15360,-3.8743,-0.2804,-0.9270,695.56,1390.08,60.67
15370,-3.8743,-0.2847,-0.9274,117.43,1358.83,279.42
15380,-3.8743,-0.2876,-0.9270,-429.44,1311.89,373.17
15390,-3.8743,-0.2885,-0.9266,-804.44,1358.76,341.92
15400,-3.8743,-0.2867,-0.9271,-913.82,1405.64,263.79
15410,-3.8743,-0.2839,-0.9282,-695.07,1343.14,185.67
15420,-3.8743,-0.2805,-0.9288,-335.69,1202.51,29.42
15430,-3.8744,-0.2770,-0.9283,101.81,1124.45,-111.21
15440,-3.8744,-0.2739,-0.9274,554.93,1186.95,-251.83
15450,-3.8744,-0.2715,-0.9261,945.56,1311.95,-329.96
15460,-3.8744,-0.2703,-0.9253,1258.06,1468.20,-283.08
15470,-3.8744,-0.2714,-0.9250,1414.31,1577.58,-158.08
15480,-3.8744,-0.2737,-0.9249,1273.68,1608.83,-126.83
15490,-3.8744,-0.2764,-0.9248,976.81,1624.45,-236.21
15500,-3.8744,-0.2789,-0.9247,633.06,1640.08,-345.58
15510,-3.8744,-0.2811,-0.9249,304.93,1655.70,-267.46
15520,-3.8744,-0.2830,-0.9253,23.68,1624.45,-48.71
15530,-3.8743,-0.2834,-0.9263,-210.69,1577.51,107.54
15540,-3.8743,-0.2837,-0.9277,-273.19,1452.51,76.29
15550,-3.8744,-0.2838,-0.9287,-304.44,1265.01,-33.08
15560,-3.8744,-0.2820,-0.9283,-320.07,1140.01,-95.58
15570,-3.8744,-0.2794,-0.9276,-85.69,1186.89,-142.46
15580,-3.8744,-0.2776,-0.9280,242.43,1280.70,-79.96
15590,-3.8743,-0.2759,-0.9277,476.81,1233.83,91.92
15600,-3.8743,-0.2744,-0.9265,695.56,1265.08,232.54
15610,-3.8743,-0.2738,-0.9259,883.06,1421.33,248.17
15620,-3.8743,-0.2747,-0.9255,961.18,1499.45,138.79
15630,-3.8743,-0.2767,-0.9254,851.81,1546.33,45.04
15640,-3.8744,-0.2791,-0.9258,586.18,1561.95,-64.33
15650,-3.8744,-0.2809,-0.9255,289.31,1515.08,-236.21
15660,-3.8744,-0.2819,-0.9249,54.93,1546.33,-376.83
15670,-3.8744,-0.2822,-0.9248,-70.07,1624.39,-486.21
15680,-3.8744,-0.2815,-0.9253,-116.94,1640.01,-439.33
15690,-3.8744,-0.2797,-0.9261,-23.19,1577.51,-204.96
15700,-3.8743,-0.2777,-0.9274,211.18,1468.20,60.67
15710,-3.8743,-0.2761,-0.9283,461.18,1311.95,170.04
15720,-3.8743,-0.2760,-0.9286,664.31,1186.95,201.29
15730,-3.8743,-0.2764,-0.9286,679.93,1155.70,295.04
15740,-3.8743,-0.2769,-0.9285,633.06,1155.70,295.04
15750,-3.8743,-0.2783,-0.9280,570.56,1171.33,201.29
15760,-3.8743,-0.2812,-0.9266,383.06,1233.83,123.17
15770,-3.8743,-0.2834,-0.9253,8.06,1405.70,29.42
15780,-3.8744,-0.2833,-0.9252,-273.19,1577.51,-48.71
15790,-3.8744,-0.2823,-0.9257,-257.57,1593.14,-173.71
15800,-3.8744,-0.2809,-0.9257,-132.57,1530.64,-283.08
15810,-3.8744,-0.2798,-0.9257,54.93,1530.70,-329.96
15820,-3.8744,-0.2780,-0.9261,195.56,1530.70,-361.21
15830,-3.8744,-0.2759,-0.9268,429.93,1468.20,-329.96
15840,-3.8744,-0.2744,-0.9266,695.56,1390.08,-283.08
15850,-3.8744,-0.2734,-0.9265,883.06,1405.70,-158.08
15860,-3.8744,-0.2727,-0.9275,1008.06,1421.33,-1.83
15870,-3.8743,-0.2736,-0.9276,1101.81,1296.33,123.17
15880,-3.8743,-0.2769,-0.9269,992.43,1280.70,185.67
15890,-3.8743,-0.2808,-0.9261,570.56,1374.45,154.42
15900,-3.8743,-0.2844,-0.9264,70.56,1468.20,123.17
15910,-3.8743,-0.2872,-0.9282,-398.19,1436.89,13.79
15920,-3.8744,-0.2875,-0.9299,-757.57,1202.51,-158.08
15930,-3.8744,-0.2853,-0.9310,-788.82,983.76,-142.46
15940,-3.8743,-0.2822,-0.9312,-507.57,843.14,138.79
15950,-3.8743,-0.2799,-0.9296,-116.94,827.51,482.54
15960,-3.8743,-0.2792,-0.9272,179.93,1030.70,795.04
15970,-3.8743,-0.2784,-0.9263,273.68,1327.58,873.17
15980,-3.8743,-0.2772,-0.9269,367.43,1452.58,513.79
15990,-3.8744,-0.2764,-0.9274,523.68,1374.45,-95.58
16000,-3.8744,-0.2770,-0.9271,633.06,1311.95,-611.21
16010,-3.8744,-0.2783,-0.9264,554.93,1343.20,-845.58
16020,-3.8744,-0.2802,-0.9258,383.06,1436.95,-876.83
16030,-3.8744,-0.2815,-0.9255,148.68,1515.08,-595.58
16040,-3.8744,-0.2812,-0.9255,-23.19,1546.26,-314.33
16050,-3.8744,-0.2792,-0.9263,8.06,1546.33,-79.96
16060,-3.8743,-0.2755,-0.9287,273.68,1452.58,279.42
16070,-3.8743,-0.2729,-0.9315,742.43,1140.08,545.04
16080,-3.8743,-0.2734,-0.9319,1070.56,780.70,576.29
16090,-3.8743,-0.2760,-0.9291,1008.06,733.83,513.79
16100,-3.8743,-0.2789,-0.9259,679.93,1093.20,373.17
16110,-3.8743,-0.2820,-0.9240,304.93,1499.45,263.79
16120,-3.8743,-0.2838,-0.9226,-85.69,1749.39,248.17
16130,-3.8743,-0.2828,-0.9220,-320.07,1921.26,123.17
16140,-3.8744,-0.2802,-0.9226,-195.07,1999.39,-48.71
16150,-3.8744,-0.2780,-0.9235,148.68,1921.33,-189.33
16160,-3.8744,-0.2772,-0.9243,429.93,1811.95,-95.58
16170,-3.8743,-0.2764,-0.9259,523.68,1702.58,248.17
16180,-3.8743,-0.2751,-0.9277,633.06,1499.45,670.04
16190,-3.8743,-0.2737,-0.9298,789.31,1265.08,1107.54
16200,-3.8743,-0.2719,-0.9325,976.81,999.45,1435.67
16210,-3.8743,-0.2701,-0.9340,1211.18,655.70,1591.92
16220,-3.8743,-0.2711,-0.9325,1429.93,468.20,1623.17
16230,-3.8743,-0.2748,-0.9285,1304.93,655.70,1435.67
16240,-3.8743,-0.2789,-0.9241,836.18,1171.33,1170.04
16250,-3.8743,-0.2810,-0.9205,304.93,1733.83,966.92
16260,-3.8743,-0.2804,-0.9182,39.31,-1813.05,654.42
16270,-3.8743,-0.2799,-0.9177,117.43,-1516.17,138.79
16280,-3.8744,-0.2803,-0.9185,179.93,-1453.67,-408.08
16290,-3.8744,-0.2795,-0.9198,133.06,-1547.42,-595.58
16300,-3.8744,-0.2778,-0.9214,226.81,-1719.30,-283.08
16310,-3.8743,-0.2760,-0.9233,445.56,-1922.42,295.04
16320,-3.8743,-0.2743,-0.9270,679.93,1827.58,920.04
16330,-3.8743,-0.2732,-0.9312,898.68,1358.83,1388.79
16340,-3.8743,-0.2726,-0.9337,1039.31,827.58,1654.42
16350,-3.8743,-0.2728,-0.9347,1117.43,499.45,1826.29
16360,-3.8743,-0.2737,-0.9340,1086.18,374.45,1998.17
16370,-3.8743,-0.2745,-0.9316,976.81,468.20,1935.67
16380,-3.8743,-0.2750,-0.9292,867.43,765.08,1654.42
16390,-3.8743,-0.2753,-0.9269,804.93,1077.58,1216.92
16400,-3.8743,-0.2750,-0.9246,773.68,1374.45,685.67
16410,-3.8743,-0.2745,-0.9224,804.93,1671.33,279.42
16420,-3.8743,-0.2736,-0.9218,867.43,1952.58,138.79
16430,-3.8743,-0.2720,-0.9222,992.43,-1969.30,201.29
16440,-3.8743,-0.2708,-0.9229,1195.56,1968.20,373.17
16450,-3.8743,-0.2698,-0.9233,1351.81,1890.08,670.04
16460,-3.8743,-0.2695,-0.9231,1476.81,1827.58,888.79
16470,-3.8743,-0.2705,-0.9232,1508.06,1858.83,982.54
16480,-3.8743,-0.2726,-0.9242,1383.06,1843.20,1138.79
16490,-3.8743,-0.2754,-0.9258,1117.43,1718.20,1373.17
16500,-3.8743,-0.2782,-0.9271,758.06,1515.08,1576.29
16510,-3.8743,-0.2793,-0.9277,398.68,1343.20,1670.04
16520,-3.8743,-0.2795,-0.9288,258.06,1265.08,1623.17
16530,-3.8743,-0.2798,-0.9305,226.81,1124.45,1607.54
16540,-3.8743,-0.2793,-0.9312,195.56,905.70,1795.04
16550,-3.8743,-0.2771,-0.9302,258.06,827.58,1998.17
16560,-3.8743,-0.2744,-0.9282,539.31,952.58,-1986.21
16570,-3.8743,-0.2712,-0.9257,883.06,1202.58,1920.04
16580,-3.8743,-0.2688,-0.9235,1289.31,1530.70,1732.54
16590,-3.8743,-0.2683,-0.9222,1601.81,1811.95,1466.92
16600,-3.8743,-0.2688,-0.9214,1664.31,1968.20,1107.54
16610,-3.8743,-0.2690,-0.9208,1601.81,-1922.42,732.54
16620,-3.8743,-0.2695,-0.9211,1570.56,-1844.30,576.29
16630,-3.8743,-0.2712,-0.9222,1508.06,-1891.17,779.42
16640,-3.8743,-0.2739,-0.9232,1289.31,1968.20,1154.42
16650,-3.8743,-0.2764,-0.9243,945.56,1843.20,1466.92
16660,-3.8743,-0.2772,-0.9269,633.06,1702.58,1576.29
16670,-3.8743,-0.2764,-0.9298,523.68,1374.45,1623.17
16680,-3.8743,-0.2751,-0.9315,633.06,999.45,1873.17
16690,-3.8743,-0.2748,-0.9314,789.31,780.70,-1673.71
16700,-3.8743,-0.2748,-0.9296,836.18,796.33,-1204.96
16710,-3.8743,-0.2762,-0.9275,836.18,1030.70,-876.83
16720,-3.8743,-0.2794,-0.9275,648.68,1296.33,-861.21
16730,-3.8743,-0.2820,-0.9290,242.43,1296.33,-1126.83
16740,-3.8743,-0.2823,-0.9305,-85.69,1108.76,-1439.33
16750,-3.8743,-0.2803,-0.9315,-132.57,905.64,-1892.46
16760,-3.8743,-0.2770,-0.9312,133.06,780.70,1529.42
16770,-3.8743,-0.2740,-0.9283,554.93,827.58,1107.54
16780,-3.8743,-0.2715,-0.9237,929.93,1186.95,935.67
16790,-3.8743,-0.2686,-0.9188,1258.06,1780.70,998.17
16800,-3.8743,-0.2659,-0.9155,1633.06,-1594.30,1091.92
16810,-3.8743,-0.2654,-0.9146,1976.81,-1172.42,1123.17
16820,-3.8743,-0.2666,-0.9147,-1960.69,-1047.42,1091.92
16830,-3.8743,-0.2690,-0.9160,1883.06,-1063.05,1060.67
16840,-3.8743,-0.2728,-0.9196,1570.56,-1234.92,1263.79
16850,-3.8743,-0.2762,-0.9252,1086.18,-1688.05,1795.04
16860,-3.8743,-0.2802,-0.9327,648.68,1593.20,-1486.21
16870,-3.8743,-0.2850,-0.9404,148.68,624.45,-689.33
16880,-3.8741,-0.2899,-0.9441,-476.32,-359.99,123.11
16890,-3.8741,-0.2919,-0.9436,-1101.32,-828.74,748.11
16900,-3.8741,-0.2888,-0.9403,-1351.32,-766.24,826.23
16910,-3.8741,-0.2811,-0.9375,-960.69,-344.36,498.11
16920,-3.8741,-0.2708,-0.9355,23.68,15.08,248.17
16930,-3.8741,-0.2625,-0.9303,1351.81,265.08,76.29
16940,-3.8743,-0.2610,-0.9219,-1585.69,936.95,-142.46
16950,-3.8743,-0.2648,-0.9128,-1398.19,-1984.92,-626.83
16960,-3.8743,-0.2699,-0.9059,-1882.57,-828.67,-1533.08
16970,-3.8743,-0.2740,-0.9043,1461.18,61.95,1466.98
16980,-3.8743,-0.2751,-0.9067,929.93,265.08,841.98
16990,-3.8743,-0.2743,-0.9099,789.31,-47.42,716.92
17000,-3.8743,-0.2731,-0.9142,898.68,-453.67,1107.54
17010,-3.8743,-0.2708,-0.9191,1054.93,-1000.55,1966.92
17020,-3.8743,-0.2678,-0.9225,1351.81,-1625.55,-923.71
17030,-3.8741,-0.2661,-0.9252,1726.81,1936.95,91.92
17040,-3.8741,-0.2664,-0.9276,1945.56,1593.20,716.92
17050,-3.8741,-0.2677,-0.9285,1914.31,1280.70,966.92
17060,-3.8741,-0.2699,-0.9275,1742.43,1171.33,1029.42
17070,-3.8741,-0.2725,-0.9271,1461.18,1296.33,1045.04
17080,-3.8741,-0.2747,-0.9279,1133.06,1343.20,982.54
17090,-3.8741,-0.2759,-0.9285,851.81,1249.45,795.04
17100,-3.8741,-0.2769,-0.9283,695.56,1171.33,560.67
17110,-3.8741,-0.2776,-0.9296,570.56,1186.95,310.67
17120,-3.8743,-0.2758,-0.9305,476.81,1030.70,-33.08
17130,-3.8743,-0.2699,-0.9280,711.18,905.70,-95.58
17140,-3.8741,-0.2621,-0.9222,1461.18,1233.83,560.67
17150,-3.8741,-0.2556,-0.9170,-1538.82,1968.20,1466.92
17160,-3.8741,-0.2531,-0.9141,-710.69,-1359.92,-1970.58
17170,-3.8741,-0.2549,-0.9121,-382.57,-984.92,1966.92
17180,-3.8741,-0.2600,-0.9103,-616.94,-734.92,1326.29
17190,-3.8741,-0.2673,-0.9091,-1273.19,-500.55,513.79
17200,-3.8743,-0.2736,-0.9092,1789.31,-344.30,-95.58
17210,-3.8743,-0.2761,-0.9109,992.43,-359.92,-298.71
17220,-3.8741,-0.2761,-0.9136,664.31,-578.67,45.04
17230,-3.8741,-0.2754,-0.9178,664.31,-922.42,701.29
17240,-3.8741,-0.2748,-0.9227,758.06,-1469.30,1076.29
17250,-3.8741,-0.2736,-0.9255,836.18,1905.70,1029.42
17260,-3.8741,-0.2695,-0.9263,992.43,1546.33,873.17
17270,-3.8741,-0.2625,-0.9266,1508.06,1452.58,857.54
17280,-3.8741,-0.2552,-0.9275,-1585.69,1405.70,1045.04
17290,-3.8741,-0.2507,-0.9277,-663.82,1296.33,1388.79
17300,-3.8741,-0.2483,-0.9263,-85.69,1265.08,1638.79
17310,-3.8741,-0.2473,-0.9232,226.81,1452.64,1779.42
17320,-3.8741,-0.2477,-0.9192,351.81,1843.26,1998.17
17330,-3.8741,-0.2490,-0.9160,304.93,-1641.11,-1704.96
17340,-3.8741,-0.2516,-0.9165,133.06,-1234.86,-1454.96
17350,-3.8741,-0.2545,-0.9205,-195.07,-1297.42,-1220.58
17360,-3.8741,-0.2588,-0.9238,-570.07,-1813.05,-1048.71
17370,-3.8741,-0.2657,-0.9236,-1116.94,1765.08,-1158.08
17380,-3.8741,-0.2729,-0.9230,1992.43,1796.33,-1517.46
17390,-3.8741,-0.2770,-0.9241,1070.56,1874.45,-1642.46
17400,-3.8741,-0.2765,-0.9243,554.93,1733.83,-1283.08
17410,-3.8741,-0.2732,-0.9236,617.43,1702.58,-673.71
17420,-3.8741,-0.2692,-0.9227,1039.31,1796.33,-111.21
17430,-3.8740,-0.2668,-0.9214,1554.93,1905.70,185.67
17440,-3.8740,-0.2675,-0.9194,1851.81,-1922.42,263.79
17450,-3.8740,-0.2695,-0.9175,1773.68,-1672.42,248.17
17460,-3.8740,-0.2703,-0.9166,1508.06,-1422.42,123.17
17470,-3.8741,-0.2665,-0.9183,1414.31,-1313.05,-220.58
17480,-3.8741,-0.2567,-0.9220,1898.68,-1531.80,-454.96
17490,-3.8741,-0.2458,-0.9246,-851.32,1999.45,-439.33
17500,-3.8741,-0.2401,-0.9246,539.31,1671.39,-267.46
17510,-3.8741,-0.2404,-0.9232,1273.68,1671.39,-173.71
17520,-3.8741,-0.2438,-0.9211,1242.43,1843.26,-314.33
17530,-3.8741,-0.2479,-0.9191,804.93,-1891.11,-611.21
17540,-3.8741,-0.2509,-0.9174,273.68,-1625.49,-954.96
17550,-3.8741,-0.2526,-0.9153,-101.32,-1406.80,-1220.58
17560,-3.8741,-0.2528,-0.9126,-320.07,-1141.17,-1376.83
17570,-3.8741,-0.2531,-0.9102,-351.32,-797.42,-1376.83
17580,-3.8741,-0.2549,-0.9092,-382.57,-484.92,-1345.58
17590,-3.8741,-0.2567,-0.9114,-616.94,-359.92,-1236.21
17600,-3.8741,-0.2560,-0.9163,-851.32,-641.17,-923.71
17610,-3.8741,-0.2494,-0.9209,-757.57,-1266.17,-361.21
17620,-3.8740,-0.2389,-0.9250,86.18,-1859.86,420.04
17630,-3.8740,-0.2323,-0.9270,1429.93,1608.89,1279.42
17640,-3.8740,-0.2324,-0.9252,-1726.32,1358.89,-1876.83
17650,-3.8740,-0.2389,-0.9219,-1741.94,1593.26,-1267.46
17660,-3.8740,-0.2496,-0.9218,1429.93,-1984.86,-1095.58
17670,-3.8740,-0.2605,-0.9249,54.93,-1969.24,-1298.71
17680,-3.8740,-0.2664,-0.9293,-1335.69,1624.45,-1533.08
17690,-3.8740,-0.2656,-0.9335,1914.31,1061.95,-1673.71
17700,-3.8740,-0.2606,-0.9354,-1991.94,530.70,-1798.71
17710,-3.8740,-0.2538,-0.9326,-1351.32,280.70,1810.67
17720,-3.8740,-0.2458,-0.9252,-476.32,640.08,1154.42
17730,-3.8740,-0.2382,-0.9161,539.31,1593.26,591.92
17740,-3.8740,-0.2330,-0.9092,1523.68,-1250.49,310.67
17750,-3.8740,-0.2301,-0.9055,-1820.07,-359.86,232.54
17760,-3.8740,-0.2284,-0.9058,-1445.07,108.89,420.10
17770,-3.8740,-0.2279,-0.9102,-1226.32,77.64,748.23
17780,-3.8740,-0.2307,-0.9161,-1163.82,-484.86,1107.54
17790,-3.8740,-0.2377,-0.9215,-1523.19,-1250.49,1607.54
17800,-3.8740,-0.2443,-0.9233,1586.18,-1937.99,1873.17
17810,-3.8740,-0.2469,-0.9215,742.43,1827.64,1779.42
17820,-3.8740,-0.2473,-0.9192,398.68,-1937.99,1623.17
17830,-3.8740,-0.2476,-0.9177,351.81,-1641.11,1685.67
17840,-3.8740,-0.2461,-0.9154,320.56,-1453.61,1873.17
17850,-3.8740,-0.2434,-0.9121,508.06,-1156.74,-1829.96
17860,-3.8740,-0.2422,-0.9105,851.81,-734.86,-1548.71
17870,-3.8740,-0.2406,-0.9116,1008.06,-531.74,-1439.33
17880,-3.8740,-0.2385,-0.9148,1211.18,-672.36,-1251.83
17890,-3.8740,-0.2391,-0.9189,1476.81,-1078.61,-814.33
17900,-3.8740,-0.2421,-0.9233,1398.68,-1609.86,-298.71
17910,-3.8739,-0.2444,-0.9268,1023.68,1827.64,91.92
17920,-3.8739,-0.2440,-0.9286,726.81,1390.14,154.42
17930,-3.8740,-0.2419,-0.9298,773.68,1155.76,-158.08
17940,-3.8740,-0.2404,-0.9286,1039.31,999.51,-783.08
17950,-3.8740,-0.2383,-0.9244,1242.43,1155.76,-1595.58
17960,-3.8740,-0.2354,-0.9211,1508.06,1687.01,1670.04
17970,-3.8740,-0.2338,-0.9199,1883.06,-1891.11,1216.92
17980,-3.8740,-0.2328,-0.9193,-1913.82,-1734.86,1029.42
17990,-3.8740,-0.2311,-0.9183,-1788.82,-1656.74,982.54
18000,-3.8740,-0.2291,-0.9164,-1570.07,-1531.74,998.17
18010,-3.8740,-0.2285,-0.9141,-1320.07,-1281.74,1154.42
18020,-3.8740,-0.2279,-0.9115,-1241.94,-984.86,1295.04
18030,-3.8740,-0.2269,-0.9094,-1163.82,-656.74,1529.42
18040,-3.8740,-0.2262,-0.9100,-1038.82,-391.11,1857.54
18050,-3.8740,-0.2261,-0.9127,-945.07,-469.24,-1908.08
18060,-3.8740,-0.2255,-0.9146,-929.44,-812.99,-1423.71
18070,-3.8740,-0.2245,-0.9160,-851.32,-1047.36,-439.33
18080,-3.8739,-0.2257,-0.9182,-726.32,-1234.86,795.04
18090,-3.8739,-0.2311,-0.9205,-882.57,-1516.11,1826.29
18100,-3.8739,-0.2410,-0.9227,-1570.07,-1812.99,-1767.46
18110,-3.8739,-0.2515,-0.9224,1164.31,1905.76,1779.42
18120,-3.8739,-0.2578,-0.9203,-179.44,1952.58,857.54
18130,-3.8740,-0.2579,-0.9186,-991.94,-1781.80,-1.83
18140,-3.8740,-0.2523,-0.9171,-1007.57,-1563.05,-454.96
18150,-3.8740,-0.2448,-0.9147,-288.82,-1375.55,-736.21
18160,-3.8740,-0.2394,-0.9124,679.93,-1062.99,-1079.96
18170,-3.8740,-0.2372,-0.9114,1367.43,-766.11,-1564.33
18180,-3.8740,-0.2357,-0.9103,1648.68,-641.11,1810.67
18190,-3.8740,-0.2322,-0.9081,1836.18,-500.49,1341.92
18200,-3.8740,-0.2273,-0.9076,-1710.69,-219.24,1341.92
18210,-3.8740,-0.2220,-0.9098,-1085.69,-156.74,1810.67
18220,-3.8740,-0.2177,-0.9138,-413.82,-437.99,-1361.21
18230,-3.8740,-0.2172,-0.9181,148.68,-953.55,-361.21
18240,-3.8739,-0.2212,-0.9215,211.18,-1500.43,435.67
18250,-3.8739,-0.2286,-0.9235,-304.44,-1937.99,857.54
18260,-3.8739,-0.2379,-0.9248,-1257.57,1812.01,966.92
18270,-3.8739,-0.2474,-0.9265,1554.93,1640.14,888.79
18280,-3.8739,-0.2562,-0.9280,336.18,1421.39,685.67
18290,-3.8739,-0.2614,-0.9274,-788.82,1233.83,435.67
18300,-3.8739,-0.2604,-0.9258,-1445.07,1311.95,404.42
18310,-3.8739,-0.2543,-0.9238,-1320.07,1515.08,466.92
18320,-3.8739,-0.2463,-0.9216,-538.82,1765.08,482.54
18330,-3.8739,-0.2391,-0.9194,476.81,-1953.61,404.42
18340,-3.8739,-0.2338,-0.9170,1398.68,-1672.36,29.42
18350,-3.8740,-0.2307,-0.9139,-1913.82,-1359.86,-673.71
18360,-3.8740,-0.2290,-0.9098,-1523.19,-969.24,-1376.83
18370,-3.8740,-0.2280,-0.9078,-1304.44,-437.99,-1642.46
18380,-3.8740,-0.2280,-0.9069,-1179.44,-187.99,-1626.83
18390,-3.8740,-0.2303,-0.9073,-1179.44,-62.99,-1517.46
18400,-3.8740,-0.2341,-0.9095,-1476.32,-125.49,-1314.33
18410,-3.8740,-0.2386,-0.9120,-1960.69,-406.74,-1173.71
18420,-3.8740,-0.2443,-0.9159,1461.18,-719.24,-1001.83
18430,-3.8740,-0.2489,-0.9186,742.43,-1219.24,-767.46
18440,-3.8740,-0.2505,-0.9194,148.68,-1562.99,-329.96
18450,-3.8739,-0.2499,-0.9199,-54.44,-1672.42,326.29
18460,-3.8739,-0.2493,-0.9211,23.68,-1734.86,951.29
18470,-3.8739,-0.2487,-0.9220,101.81,-1891.11,1341.92
18480,-3.8739,-0.2483,-0.9209,179.93,1999.51,1326.29
18490,-3.8739,-0.2479,-0.9186,226.81,-1859.86,935.67
18500,-3.8739,-0.2466,-0.9159,273.68,-1562.99,451.29
18510,-3.8739,-0.2444,-0.9139,445.56,-1219.24,76.29
18520,-3.8739,-0.2418,-0.9116,726.81,-969.24,13.79
18530,-3.8739,-0.2401,-0.9102,1054.93,-672.36,123.17
18540,-3.8739,-0.2400,-0.9109,1273.68,-484.86,13.79
18550,-3.8740,-0.2405,-0.9126,1289.31,-578.61,-408.08
18560,-3.8740,-0.2421,-0.9139,1226.81,-797.36,-876.83
18570,-3.8740,-0.2443,-0.9144,1023.68,-969.24,-1111.21
18580,-3.8740,-0.2460,-0.9150,742.43,-1031.74,-1048.71
18590,-3.8740,-0.2466,-0.9163,523.68,-1109.86,-736.21
18600,-3.8740,-0.2454,-0.9177,445.56,-1266.11,-345.58
18610,-3.8739,-0.2423,-0.9176,601.81,-1453.61,91.92
18620,-3.8739,-0.2389,-0.9149,992.43,-1437.99,326.29
18630,-3.8739,-0.2379,-0.9122,1429.93,-1094.24,107.54
18640,-3.8740,-0.2385,-0.9108,1554.93,-750.49,-267.46
18650,-3.8740,-0.2393,-0.9104,1476.81,-562.99,-533.08
18660,-3.8740,-0.2411,-0.9099,1383.06,-516.11,-579.96
18670,-3.8740,-0.2440,-0.9092,1148.68,-453.61,-392.46
18680,-3.8740,-0.2472,-0.9104,773.68,-359.86,-204.96
18690,-3.8740,-0.2487,-0.9131,367.43,-516.11,-142.46
18700,-3.8739,-0.2473,-0.9152,179.93,-859.86,45.04
18710,-3.8739,-0.2449,-0.9166,351.81,-1125.49,404.42
18720,-3.8739,-0.2430,-0.9174,664.31,-1312.99,638.79
18730,-3.8739,-0.2434,-0.9175,898.68,-1406.74,841.92
18740,-3.8739,-0.2466,-0.9172,851.81,-1422.36,935.67
18750,-3.8739,-0.2501,-0.9165,445.56,-1391.11,888.79
18760,-3.8739,-0.2512,-0.9150,-7.57,-1297.42,873.17
18770,-3.8739,-0.2489,-0.9136,-148.19,-1109.92,810.67
18780,-3.8739,-0.2455,-0.9125,148.68,-922.36,716.92
18790,-3.8739,-0.2432,-0.9124,586.18,-781.74,576.29
18800,-3.8739,-0.2433,-0.9124,883.06,-766.11,466.92
18810,-3.8739,-0.2458,-0.9111,867.43,-766.11,373.17
18820,-3.8739,-0.2483,-0.9103,539.31,-609.86,263.79
18830,-3.8739,-0.2494,-0.9095,226.81,-500.49,216.92
18840,-3.8739,-0.2506,-0.9088,86.18,-406.74,466.92
18850,-3.8739,-0.2523,-0.9084,-70.07,-313.05,904.42
18860,-3.8739,-0.2533,-0.9084,-288.82,-266.17,1326.29
18870,-3.8739,-0.2532,-0.9097,-413.82,-266.17,1591.92
18880,-3.8739,-0.2512,-0.9116,-398.19,-422.42,1716.92
18890,-3.8739,-0.2489,-0.9132,-148.19,-672.42,1888.79
18900,-3.8739,-0.2488,-0.9139,148.68,-875.49,1920.04
18910,-3.8739,-0.2494,-0.9132,164.31,-969.24,1670.04
18920,-3.8739,-0.2489,-0.9113,86.18,-875.49,1154.42
18930,-3.8739,-0.2477,-0.9088,148.68,-625.49,545.04
18940,-3.8739,-0.2465,-0.9082,304.93,-312.99,76.29
18950,-3.8740,-0.2445,-0.9094,461.18,-234.86,-173.71
18960,-3.8740,-0.2415,-0.9109,711.18,-391.11,-189.33
18970,-3.8740,-0.2395,-0.9117,1101.81,-578.61,-33.08
18980,-3.8739,-0.2393,-0.9117,1351.81,-687.99,248.17
18990,-3.8739,-0.2400,-0.9109,1383.06,-687.99,545.04
19000,-3.8739,-0.2399,-0.9103,1289.31,-578.61,841.92
19010,-3.8739,-0.2388,-0.9109,1304.93,-500.49,1154.42
19020,-3.8739,-0.2386,-0.9122,1445.56,-578.61,1326.29
19030,-3.8739,-0.2402,-0.9127,1461.18,-750.49,1232.54
19040,-3.8739,-0.2432,-0.9125,1258.06,-812.99,951.29
19050,-3.8739,-0.2458,-0.9122,883.06,-781.74,638.79
19060,-3.8739,-0.2477,-0.9126,539.31,-750.49,513.79
19070,-3.8739,-0.2482,-0.9138,304.93,-797.36,638.79
19080,-3.8739,-0.2473,-0.9147,242.43,-953.61,1060.67
19090,-3.8739,-0.2460,-0.9150,351.81,-1062.99,1576.29
19100,-3.8739,-0.2448,-0.9148,523.68,-1109.86,1904.42
19110,-3.8739,-0.2455,-0.9137,679.93,-1078.61,1982.54
19120,-3.8739,-0.2478,-0.9111,586.18,-937.99,1732.54
19130,-3.8739,-0.2494,-0.9087,289.31,-609.86,1248.17
19140,-3.8739,-0.2494,-0.9078,86.18,-297.36,873.17
19150,-3.8739,-0.2479,-0.9082,86.18,-187.99,888.79
19160,-3.8739,-0.2461,-0.9097,273.68,-234.86,1232.54
19170,-3.8739,-0.2454,-0.9111,508.06,-422.36,1685.67
19180,-3.8739,-0.2445,-0.9119,601.81,-609.86,1982.54
19190,-3.8739,-0.2435,-0.9119,711.18,-703.61,1982.54
19200,-3.8739,-0.2443,-0.9100,836.18,-703.61,1841.92
19210,-3.8739,-0.2468,-0.9073,742.43,-469.24,1670.04
19220,-3.8739,-0.2501,-0.9067,414.31,-125.49,1420.04
19230,-3.8739,-0.2522,-0.9087,-7.57,-47.42,1201.29
19240,-3.8739,-0.2524,-0.9111,-273.19,-297.42,1185.67
19250,-3.8739,-0.2512,-0.9119,-304.44,-609.92,1466.92
19260,-3.8739,-0.2488,-0.9106,-148.19,-703.67,1888.79
19270,-3.8739,-0.2455,-0.9092,164.31,-547.36,-1814.33
19280,-3.8739,-0.2417,-0.9086,586.18,-359.86,-1704.96
19290,-3.8739,-0.2401,-0.9104,1070.56,-281.74,-1861.21
19300,-3.8739,-0.2426,-0.9117,1273.68,-516.11,1810.67
19310,-3.8739,-0.2472,-0.9100,961.18,-687.99,1560.67
19320,-3.8739,-0.2483,-0.9076,367.43,-469.24,1326.29
19330,-3.8739,-0.2463,-0.9045,226.81,-156.74,998.17
19340,-3.8739,-0.2449,-0.9043,476.81,233.89,888.85
19350,-3.8739,-0.2437,-0.9054,664.31,265.14,982.60
19360,-3.8739,-0.2417,-0.9045,820.56,124.51,1216.98
19370,-3.8739,-0.2410,-0.9027,1070.56,233.89,1513.85
19380,-3.8739,-0.2434,-0.9021,1164.31,468.26,1701.35
19390,-3.8739,-0.2489,-0.9052,851.81,546.39,1841.98
19400,-3.8739,-0.2543,-0.9110,148.68,155.76,-1908.02
19410,-3.8739,-0.2567,-0.9164,-538.82,-594.30,-1658.08
19420,-3.8739,-0.2557,-0.9205,-851.32,-1281.80,-1439.33
19430,-3.8739,-0.2524,-0.9219,-726.32,-1813.05,-1298.71
19440,-3.8739,-0.2490,-0.9205,-304.44,-1984.92,-1423.71
19450,-3.8739,-0.2463,-0.9177,133.06,-1812.99,-1798.71
19460,-3.8739,-0.2439,-0.9146,476.81,-1453.61,1951.29
19470,-3.8739,-0.2416,-0.9116,789.31,-1047.36,1888.79
19480,-3.8739,-0.2396,-0.9094,1086.18,-672.36,1857.54
19490,-3.8739,-0.2367,-0.9087,1336.18,-391.11,1857.54
19500,-3.8739,-0.2329,-0.9082,1711.18,-297.36,1841.92
19510,-3.8739,-0.2319,-0.9088,-1804.44,-234.86,1795.04
19520,-3.8739,-0.2339,-0.9100,-1679.44,-312.99,1716.92
19530,-3.8739,-0.2367,-0.9105,-1929.44,-469.24,1545.04
19540,-3.8739,-0.2383,-0.9092,1711.18,-531.74,1185.67
19550,-3.8739,-0.2371,-0.9081,1508.06,-359.86,607.54
19560,-3.8740,-0.2341,-0.9095,1664.31,-219.24,-64.33
19570,-3.8740,-0.2314,-0.9080,-1960.69,-406.74,-408.08
19580,-3.8740,-0.2294,-0.9045,-1616.94,-203.61,-111.21
19590,-3.8739,-0.2274,-0.9052,-1351.32,233.89,529.48
19600,-3.8739,-0.2291,-0.9064,-1101.32,155.76,1201.35
19610,-3.8739,-0.2365,-0.9077,-1320.07,-0.49,1857.54
19620,-3.8739,-0.2437,-0.9095,1742.43,-172.36,-1642.46
19630,-3.8739,-0.2477,-0.9113,820.56,-406.74,-1533.08
19640,-3.8739,-0.2499,-0.9127,304.93,-625.49,-1517.46
19650,-3.8739,-0.2510,-0.9121,23.68,-812.99,-1283.08
19660,-3.8739,-0.2502,-0.9102,-116.94,-734.92,-829.96
19670,-3.8739,-0.2488,-0.9103,-23.19,-484.92,-298.71
19680,-3.8739,-0.2488,-0.9103,164.31,-500.49,-1.83
19690,-3.8739,-0.2504,-0.9088,164.31,-500.49,-64.33
19700,-3.8739,-0.2528,-0.9075,-38.82,-313.05,-579.96
19710,-3.8739,-0.2551,-0.9064,-351.32,-141.17,-1345.58
19720,-3.8739,-0.2543,-0.9071,-648.19,-0.55,-1954.96
19730,-3.8739,-0.2493,-0.9093,-538.82,-94.30,1826.29
19740,-3.8739,-0.2439,-0.9099,101.81,-375.49,-1908.08
19750,-3.8739,-0.2416,-0.9102,789.31,-453.61,-1392.46
19760,-3.8739,-0.2413,-0.9093,1086.18,-484.86,-876.83
19770,-3.8739,-0.2428,-0.9086,1117.43,-375.49,-501.83
19780,-3.8739,-0.2430,-0.9087,929.93,-281.74,-470.58
19790,-3.8739,-0.2429,-0.9075,898.68,-297.36,-689.33
19800,-3.8739,-0.2451,-0.9078,914.31,-141.11,-829.96
19810,-3.8739,-0.2483,-0.9084,633.06,-187.99,-986.21
19820,-3.8739,-0.2509,-0.9072,226.81,-266.11,-1361.21
19830,-3.8739,-0.2526,-0.9072,-101.32,-109.92,-1783.08
19840,-3.8739,-0.2513,-0.9086,-320.07,-109.92,-1923.71
19850,-3.8739,-0.2473,-0.9093,-163.82,-281.80,-1517.46
19860,-3.8739,-0.2437,-0.9111,351.81,-375.49,-876.83
19870,-3.8739,-0.2423,-0.9139,820.56,-609.86,-564.33
19880,-3.8739,-0.2440,-0.9144,992.43,-969.24,-767.46
19890,-3.8739,-0.2456,-0.9124,773.68,-1031.74,-1423.71
19900,-3.8739,-0.2439,-0.9089,570.56,-766.11,1701.29
19910,-3.8739,-0.2399,-0.9067,789.31,-328.61,982.54
19920,-3.8739,-0.2354,-0.9042,1304.93,-47.36,607.54
19930,-3.8739,-0.2305,-0.8993,1883.06,280.76,513.85
19940,-3.8739,-0.2262,-0.8961,-1491.94,905.76,701.35
19950,-3.8739,-0.2255,-0.8966,-945.07,1312.01,1013.85
19960,-3.8739,-0.2281,-0.9000,-851.32,1249.51,1201.35
19970,-3.8739,-0.2330,-0.9037,-1195.07,812.01,1341.98
19980,-3.8739,-0.2386,-0.9060,-1820.07,343.26,1779.48
19990,-3.8739,-0.2439,-0.9071,1461.18,46.39,-1548.65
20000,-3.8739,-0.2495,-0.9081,789.31,-94.24,-892.46
20010,-3.8739,-0.2550,-0.9092,70.56,-219.24,-470.58
20020,-3.8739,-0.2595,-0.9100,-632.57,-359.92,-345.58
20030,-3.8739,-0.2626,-0.9109,-1210.69,-469.30,-236.21
20040,-3.8739,-0.2638,-0.9116,-1601.32,-578.67,-1.83
20050,-3.8738,-0.2631,-0.9120,-1757.57,-672.42,248.17
20060,-3.8738,-0.2603,-0.9125,-1663.82,-719.30,201.29
20070,-3.8739,-0.2571,-0.9139,-1304.44,-781.80,-204.96
20080,-3.8739,-0.2535,-0.9146,-898.19,-969.30,-876.83
20090,-3.8739,-0.2483,-0.9130,-445.07,-1047.42,-1626.83
20100,-3.8739,-0.2413,-0.9111,226.81,-844.24,1951.29
20110,-3.8739,-0.2354,-0.9097,1117.43,-609.86,1982.54
20120,-3.8739,-0.2317,-0.9097,1883.06,-422.36,-1751.83
20130,-3.8739,-0.2295,-0.9097,-1648.19,-422.36,-1611.21
20140,-3.8739,-0.2308,-0.9082,-1366.94,-422.36,-1751.83
20150,-3.8739,-0.2358,-0.9050,-1538.82,-234.86,1904.42
20160,-3.8739,-0.2419,-0.9015,1820.56,171.39,1498.23
20170,-3.8739,-0.2468,-0.8990,1039.31,624.51,1216.98
20180,-3.8739,-0.2491,-0.8977,414.31,937.01,1029.48
20190,-3.8739,-0.2502,-0.8976,117.43,1108.89,951.35
20200,-3.8739,-0.2506,-0.8989,-23.19,1124.45,951.35
20210,-3.8739,-0.2511,-0.9005,-70.07,952.58,1045.10
20220,-3.8739,-0.2520,-0.9037,-132.57,749.45,1373.23
20230,-3.8739,-0.2523,-0.9078,-241.94,343.20,1841.98
20240,-3.8739,-0.2524,-0.9114,-288.82,-188.05,-1642.46
20250,-3.8739,-0.2528,-0.9133,-304.44,-641.17,-1095.58
20260,-3.8739,-0.2540,-0.9126,-351.32,-891.17,-611.21
20270,-3.8739,-0.2537,-0.9115,-507.57,-797.42,-220.58
20280,-3.8739,-0.2526,-0.9113,-460.69,-656.80,-48.71
20290,-3.8739,-0.2524,-0.9115,-320.07,-625.55,-204.96
20300,-3.8739,-0.2537,-0.9097,-304.44,-656.80,-564.33
20310,-3.8739,-0.2556,-0.9059,-460.69,-422.42,-954.96
20320,-3.8739,-0.2576,-0.9036,-710.69,61.95,-1189.27
20330,-3.8739,-0.2589,-0.9047,-960.69,358.83,-1079.90
20340,-3.8739,-0.2595,-0.9076,-1132.57,218.20,-798.65
20350,-3.8739,-0.2578,-0.9106,-1210.69,-156.80,-736.21
20360,-3.8739,-0.2528,-0.9125,-991.94,-547.42,-1017.46
20370,-3.8739,-0.2471,-0.9111,-351.32,-781.80,-1673.71
20380,-3.8739,-0.2428,-0.9070,383.06,-609.86,1513.79
20390,-3.8739,-0.2416,-0.9023,929.93,-78.61,795.04
20400,-3.8739,-0.2427,-0.9006,1086.18,515.14,310.73
20410,-3.8739,-0.2440,-0.9021,945.56,733.89,170.10
20420,-3.8739,-0.2445,-0.9036,773.68,546.39,388.85
20430,-3.8739,-0.2452,-0.9038,711.18,358.89,810.73
20440,-3.8739,-0.2476,-0.9027,617.43,327.64,1138.85
20450,-3.8739,-0.2513,-0.9019,320.56,468.26,1263.85
20460,-3.8739,-0.2559,-0.9025,-163.82,577.58,1123.23
20470,-3.8739,-0.2594,-0.9047,-741.94,499.45,873.23
20480,-3.8739,-0.2601,-0.9056,-1195.07,218.20,826.35
20490,-3.8739,-0.2572,-0.9041,-1288.82,93.20,1076.35
20500,-3.8739,-0.2511,-0.9033,-913.82,296.33,1795.10
20510,-3.8739,-0.2448,-0.9033,-132.57,390.08,-954.90
20520,-3.8738,-0.2433,-0.9028,679.93,390.14,498.23
20530,-3.8738,-0.2505,-0.9041,867.43,452.64,1545.10
20540,-3.8738,-0.2650,-0.9083,-54.44,296.33,1826.35
20550,-3.8738,-0.2809,-0.9142,-1913.82,-250.55,1420.04
20560,-3.8738,-0.2905,-0.9188,54.93,-1000.55,716.92
20570,-3.8739,-0.2892,-0.9214,-1179.44,-1594.36,-79.96
20580,-3.8739,-0.2793,-0.9211,-1007.57,-1922.49,-876.83
20590,-3.8739,-0.2665,-0.9176,258.06,-1891.17,-1579.96
20600,-3.8739,-0.2533,-0.9133,1898.68,-1438.05,1951.29
20610,-3.8739,-0.2413,-0.9111,-413.82,-891.17,1701.29
20620,-3.8739,-0.2335,-0.9103,1117.43,-609.86,1404.42
20630,-3.8739,-0.2305,-0.9075,-1882.57,-500.49,951.29
20640,-3.8739,-0.2312,-0.9043,-1491.94,-141.11,623.17
20650,-3.8739,-0.2346,-0.9023,-1585.69,265.14,357.60
20660,-3.8740,-0.2393,-0.9012,1976.81,515.14,-48.65
20670,-3.8740,-0.2429,-0.8993,1383.06,655.76,-564.27
20680,-3.8740,-0.2454,-0.8969,914.31,905.76,-1079.90
20690,-3.8740,-0.2474,-0.8954,601.81,1218.26,-1314.27
20700,-3.8740,-0.2498,-0.8965,336.18,1405.76,-1033.02
20710,-3.8740,-0.2516,-0.9001,39.31,1265.14,-314.27
20720,-3.8739,-0.2523,-0.9028,-195.07,796.33,826.35
20730,-3.8739,-0.2528,-0.9047,-288.82,452.58,-1783.02
20740,-3.8739,-0.2562,-0.9066,-351.32,218.20,-564.27
20750,-3.8738,-0.2631,-0.9099,-788.82,-31.80,138.79
20760,-3.8738,-0.2712,-0.9117,-1663.82,-453.67,482.54
20770,-3.8738,-0.2775,-0.9105,1289.31,-688.05,716.92
20780,-3.8738,-0.2802,-0.9083,492.43,-531.80,888.79
20790,-3.8738,-0.2802,-0.9069,148.68,-250.55,857.54
20800,-3.8738,-0.2778,-0.9065,148.68,-63.05,576.29
20810,-3.8738,-0.2737,-0.9053,445.56,-16.17,248.17
20820,-3.8739,-0.2688,-0.9043,976.81,140.08,-79.90
20830,-3.8739,-0.2631,-0.9056,1601.81,265.08,-329.90
20840,-3.8739,-0.2572,-0.9083,-1663.82,93.20,-595.52
20850,-3.8739,-0.2532,-0.9102,-913.82,-250.55,-986.21
20860,-3.8739,-0.2515,-0.9097,-398.19,-484.92,-1564.33
20870,-3.8739,-0.2509,-0.9086,-179.44,-422.42,1888.79
20880,-3.8739,-0.2487,-0.9091,-101.32,-281.80,1623.17
20890,-3.8739,-0.2440,-0.9111,179.93,-344.24,1373.17
20900,-3.8739,-0.2389,-0.9133,773.68,-609.86,982.54
20910,-3.8739,-0.2354,-0.9143,1429.93,-891.11,545.04
20920,-3.8739,-0.2333,-0.9135,1883.06,-1016.11,154.42
20930,-3.8740,-0.2321,-0.9113,-1851.32,-906.74,-111.21
20940,-3.8740,-0.2317,-0.9076,-1695.07,-625.49,-361.21
20950,-3.8740,-0.2323,-0.9036,-1648.19,-156.74,-486.21
20960,-3.8740,-0.2338,-0.9011,-1726.32,358.89,-423.65
20970,-3.8740,-0.2365,-0.9010,-1913.82,671.39,-204.90
20980,-3.8739,-0.2402,-0.9020,1742.43,687.01,263.85
20990,-3.8739,-0.2450,-0.9016,1258.06,562.01,951.35
21000,-3.8739,-0.2512,-0.9017,648.68,608.89,1670.10
21010,-3.8739,-0.2560,-0.9041,-148.19,593.20,-1720.52
21020,-3.8739,-0.2579,-0.9080,-757.57,296.33,-1220.52
21030,-3.8739,-0.2584,-0.9114,-1007.57,-203.67,-861.21
21040,-3.8739,-0.2593,-0.9128,-1070.07,-641.17,-548.71
21050,-3.8739,-0.2605,-0.9125,-1179.44,-828.67,-283.08
21060,-3.8739,-0.2611,-0.9110,-1335.69,-781.80,-64.33
21070,-3.8738,-0.2626,-0.9098,-1413.82,-594.30,154.42
21080,-3.8738,-0.2645,-0.9084,-1601.32,-438.05,263.79
21090,-3.8738,-0.2660,-0.9066,-1851.32,-266.17,216.92
21100,-3.8739,-0.2667,-0.9043,1961.18,-31.80,-79.96
21110,-3.8739,-0.2648,-0.9020,1867.43,265.08,-501.77
21120,-3.8739,-0.2593,-0.9015,-1882.57,561.95,-814.27
21130,-3.8739,-0.2516,-0.9033,-1179.44,624.45,-1064.27
21140,-3.8739,-0.2456,-0.9064,-195.07,390.08,-1220.52
21150,-3.8739,-0.2434,-0.9071,570.56,-0.49,-1361.21
21160,-3.8739,-0.2448,-0.9060,851.81,-94.24,-1423.71
21170,-3.8739,-0.2482,-0.9054,679.93,46.39,-1564.27
21180,-3.8739,-0.2516,-0.9065,242.43,124.51,-1814.27
21190,-3.8739,-0.2545,-0.9094,-195.07,-16.17,1982.54
21200,-3.8739,-0.2566,-0.9110,-570.07,-391.17,1982.54
21210,-3.8739,-0.2566,-0.9117,-835.69,-594.30,-1845.58
21220,-3.8739,-0.2526,-0.9117,-835.69,-688.05,-1658.08
21230,-3.8739,-0.2451,-0.9103,-320.07,-688.05,-1579.96
21240,-3.8739,-0.2380,-0.9082,633.06,-500.49,-1783.08
21250,-3.8739,-0.2338,-0.9059,1539.31,-234.86,1888.79
21260,-3.8739,-0.2312,-0.9048,-1913.82,62.01,1545.10
21270,-3.8739,-0.2306,-0.9037,-1585.69,202.64,1373.23
21280,-3.8739,-0.2325,-0.9022,-1507.57,343.26,1404.48
21290,-3.8739,-0.2360,-0.9004,-1757.57,530.76,1591.98
21300,-3.8739,-0.2411,-0.8978,1804.93,765.14,1966.98
21310,-3.8739,-0.2482,-0.8972,1148.68,1093.26,-1658.02
21320,-3.8739,-0.2556,-0.8992,242.43,1171.39,-1408.02
21330,-3.8739,-0.2618,-0.9016,-710.69,921.33,-1236.15
21340,-3.8739,-0.2666,-0.9043,-1507.57,608.83,-876.77
21350,-3.8739,-0.2689,-0.9069,1883.06,265.08,-220.52
21360,-3.8738,-0.2684,-0.9089,1586.18,-63.05,373.17
21370,-3.8738,-0.2653,-0.9104,1648.68,-328.67,529.42
21380,-3.8738,-0.2600,-0.9102,-1945.07,-516.17,201.29
21390,-3.8739,-0.2546,-0.9088,-1273.19,-484.92,-439.33
21400,-3.8739,-0.2496,-0.9073,-585.69,-313.05,-1220.58
21410,-3.8739,-0.2462,-0.9060,54.93,-125.49,-1751.83
21420,-3.8739,-0.2444,-0.9056,492.43,46.39,-1845.52
21430,-3.8739,-0.2435,-0.9075,726.81,93.26,-1673.65
21440,-3.8739,-0.2433,-0.9108,836.18,-141.11,-1408.08
21450,-3.8739,-0.2434,-0.9128,867.43,-562.99,-1204.96
21460,-3.8739,-0.2435,-0.9113,851.81,-828.61,-1220.58
21470,-3.8739,-0.2443,-0.9077,836.18,-625.49,-1689.33
21480,-3.8739,-0.2440,-0.9055,742.43,-172.36,1623.17
21490,-3.8739,-0.2423,-0.9050,773.68,108.89,1185.73
21500,-3.8739,-0.2404,-0.9053,992.43,171.39,1138.85
21510,-3.8739,-0.2401,-0.9053,1242.43,140.14,1435.73
21520,-3.8739,-0.2428,-0.9054,1273.68,140.14,1904.48
21530,-3.8739,-0.2472,-0.9052,929.93,124.51,-1720.52
21540,-3.8739,-0.2517,-0.9034,367.43,155.76,-1611.15
21550,-3.8739,-0.2561,-0.9022,-210.69,374.45,-1704.90
21560,-3.8739,-0.2587,-0.9031,-773.19,530.70,-1704.90
21570,-3.8739,-0.2584,-0.9045,-1101.32,421.33,-1470.52
21580,-3.8739,-0.2563,-0.9048,-1070.07,233.83,-1095.52
21590,-3.8739,-0.2537,-0.9049,-804.44,202.58,-736.15
21600,-3.8739,-0.2521,-0.9084,-460.69,186.95,-548.65
21610,-3.8739,-0.2515,-0.9142,-257.57,-266.17,-361.21
21620,-3.8739,-0.2510,-0.9182,-179.44,-1000.55,-298.71
21630,-3.8739,-0.2507,-0.9185,-116.94,-1516.17,-408.08
21640,-3.8739,-0.2505,-0.9153,-85.69,-1547.42,-501.83
21650,-3.8739,-0.2496,-0.9106,-54.44,-1141.17,-783.08
21660,-3.8739,-0.2488,-0.9056,54.93,-547.36,-1251.83
21670,-3.8739,-0.2485,-0.9010,164.31,93.26,-1751.77
21680,-3.8739,-0.2488,-0.8967,195.56,687.01,1716.98
21690,-3.8739,-0.2488,-0.8936,164.31,1233.89,1248.23
21700,-3.8739,-0.2485,-0.8923,164.31,1640.14,982.60
21710,-3.8739,-0.2494,-0.8936,195.56,1796.39,1045.10
21720,-3.8739,-0.2523,-0.8978,86.18,1640.14,1576.35
21730,-3.8739,-0.2549,-0.9026,-288.82,1093.20,-1720.52
21740,-3.8739,-0.2554,-0.9069,-616.94,483.83,-1017.40
21750,-3.8739,-0.2543,-0.9114,-679.44,-63.05,-329.96
21760,-3.8738,-0.2528,-0.9148,-538.82,-641.17,185.67
21770,-3.8738,-0.2534,-0.9174,-351.32,-1078.67,545.04
21780,-3.8738,-0.2567,-0.9189,-429.44,-1406.80,623.17
21790,-3.8738,-0.2606,-0.9182,-851.32,-1609.92,216.92
21800,-3.8739,-0.2625,-0.9141,-1351.32,-1516.17,-517.46
21810,-3.8739,-0.2603,-0.9083,-1585.69,-984.92,-1283.08
21820,-3.8739,-0.2546,-0.9030,-1304.44,-250.55,-1986.21
21830,-3.8739,-0.2482,-0.8976,-585.69,436.95,1451.35
21840,-3.8739,-0.2432,-0.8932,242.43,1124.51,1216.98
21850,-3.8739,-0.2410,-0.8910,883.06,1687.01,1310.73
21860,-3.8739,-0.2413,-0.8926,1164.31,1968.26,1654.48
21870,-3.8739,-0.2428,-0.8973,1117.43,1765.14,-1908.02
21880,-3.8739,-0.2450,-0.9022,929.93,1155.76,-1533.02
21890,-3.8739,-0.2472,-0.9060,648.68,530.76,-1251.77
21900,-3.8739,-0.2495,-0.9102,367.43,46.39,-1079.90
21910,-3.8739,-0.2517,-0.9137,70.56,-484.86,-986.21
21920,-3.8739,-0.2534,-0.9149,-210.69,-938.05,-954.96
21930,-3.8739,-0.2535,-0.9146,-429.44,-1094.30,-1111.21
21940,-3.8739,-0.2518,-0.9127,-445.07,-1047.42,-1361.21
21950,-3.8739,-0.2495,-0.9092,-226.32,-813.05,-1517.46
21960,-3.8739,-0.2482,-0.9039,70.56,-359.86,-1642.46
21970,-3.8739,-0.2477,-0.9003,242.43,312.01,-1704.90
21980,-3.8739,-0.2482,-0.8999,304.93,780.76,-1673.65
21990,-3.8739,-0.2509,-0.9006,242.43,827.64,-1579.90
22000,-3.8739,-0.2538,-0.9011,-101.32,733.83,-1470.52
22010,-3.8739,-0.2554,-0.9017,-476.32,671.33,-1345.52
22020,-3.8739,-0.2550,-0.9032,-679.44,593.20,-1236.15
22030,-3.8739,-0.2528,-0.9056,-632.57,405.70,-1158.02
22040,-3.8739,-0.2511,-0.9078,-351.32,93.20,-1142.40
22050,-3.8739,-0.2515,-0.9092,-132.57,-188.05,-1142.46
22060,-3.8739,-0.2526,-0.9102,-179.44,-359.92,-1173.71
22070,-3.8739,-0.2542,-0.9098,-320.07,-484.92,-1173.71
22080,-3.8739,-0.2560,-0.9081,-523.19,-438.05,-1111.21
22090,-3.8739,-0.2583,-0.9061,-757.57,-219.30,-892.46
22100,-3.8739,-0.2606,-0.9054,-1054.44,30.70,-595.52
22110,-3.8739,-0.2609,-0.9055,-1351.32,124.45,-470.52
22120,-3.8739,-0.2590,-0.9055,-1382.57,108.83,-611.15
22130,-3.8739,-0.2557,-0.9058,-1148.19,108.83,-783.02
22140,-3.8739,-0.2524,-0.9067,-726.32,77.58,-908.02
22150,-3.8739,-0.2511,-0.9069,-304.44,-47.42,-1126.83
22160,-3.8739,-0.2518,-0.9053,-132.57,-63.05,-1345.58
22170,-3.8739,-0.2538,-0.9044,-226.32,140.08,-1376.77
22180,-3.8739,-0.2554,-0.9062,-476.32,249.45,-1142.40
22190,-3.8739,-0.2565,-0.9095,-679.44,15.08,-736.15
22200,-3.8739,-0.2561,-0.9115,-820.07,-406.80,-329.96
22210,-3.8739,-0.2535,-0.9111,-773.19,-656.80,-64.33
22220,-3.8739,-0.2505,-0.9087,-445.07,-609.92,-251.83
22230,-3.8739,-0.2491,-0.9047,-54.44,-297.42,-892.46
22240,-3.8739,-0.2516,-0.9006,117.43,218.26,-1533.02
22250,-3.8739,-0.2548,-0.9001,-195.07,733.83,-1908.02
22260,-3.8739,-0.2540,-0.9026,-601.32,796.33,-1892.40
22270,-3.8739,-0.2511,-0.9059,-507.57,483.83,-1376.77
22280,-3.8739,-0.2484,-0.9084,-132.57,61.95,-345.52
22290,-3.8738,-0.2452,-0.9091,211.18,-266.11,701.29
22300,-3.8738,-0.2422,-0.9083,617.43,-344.24,966.92
22310,-3.8738,-0.2402,-0.9075,1008.06,-250.49,232.54
22320,-3.8739,-0.2388,-0.9054,1258.06,-141.11,-1064.33
22330,-3.8739,-0.2379,-0.9027,1445.56,124.51,1779.48
22340,-3.8739,-0.2378,-0.9001,1554.93,468.26,1232.60
22350,-3.8739,-0.2361,-0.8998,1570.56,796.39,1295.10
22360,-3.8739,-0.2316,-0.9015,1789.31,843.26,1623.23
22370,-3.8739,-0.2278,-0.9030,-1632.57,624.51,1763.85
22380,-3.8739,-0.2288,-0.9042,-1148.19,437.01,1795.10
22390,-3.8739,-0.2354,-0.9060,-1273.19,280.76,-1861.15
22400,-3.8739,-0.2445,-0.9084,1883.06,46.39,-1158.02
22410,-3.8739,-0.2522,-0.9084,711.18,-266.11,-626.83
22420,-3.8739,-0.2557,-0.9043,-273.19,-266.17,-533.08
22430,-3.8739,-0.2543,-0.8999,-726.32,265.08,-517.40
22440,-3.8739,-0.2499,-0.8981,-538.82,827.58,-329.90
22450,-3.8739,-0.2466,-0.8970,23.68,1062.01,-1.77
22460,-3.8738,-0.2471,-0.8958,445.56,1202.64,357.60
22470,-3.8738,-0.2518,-0.8964,383.06,1358.89,685.73
22480,-3.8738,-0.2581,-0.8998,-226.32,1280.70,857.60
22490,-3.8738,-0.2614,-0.9028,-1023.19,843.20,857.60
22500,-3.8738,-0.2626,-0.9037,-1445.07,452.58,873.23
22510,-3.8738,-0.2633,-0.9054,-1601.32,343.20,982.60
22520,-3.8738,-0.2617,-0.9083,-1695.07,124.45,1076.35
22530,-3.8738,-0.2576,-0.9099,-1491.94,-250.55,1076.29
22540,-3.8738,-0.2527,-0.9082,-960.69,-453.67,935.67
22550,-3.8738,-0.2478,-0.9049,-335.69,-234.92,670.04
22560,-3.8738,-0.2438,-0.9036,289.31,187.01,248.23
22570,-3.8739,-0.2413,-0.9042,804.93,358.89,-158.02
22580,-3.8739,-0.2406,-0.9053,1117.43,280.76,-314.27
22590,-3.8739,-0.2410,-0.9076,1211.18,140.14,-298.65
22600,-3.8739,-0.2428,-0.9105,1164.31,-156.74,-251.83
22610,-3.8739,-0.2460,-0.9119,929.93,-531.74,-329.96
22620,-3.8739,-0.2485,-0.9100,523.68,-703.61,-579.96
22630,-3.8739,-0.2482,-0.9061,195.56,-469.24,-814.33
22640,-3.8739,-0.2458,-0.9027,242.43,30.76,-1017.40
22650,-3.8739,-0.2423,-0.9000,539.31,468.26,-1236.15
22660,-3.8739,-0.2369,-0.8972,992.43,812.01,-1439.27
22670,-3.8739,-0.2328,-0.8954,1679.93,1171.39,-1501.77
22680,-3.8739,-0.2334,-0.8954,-1788.82,1405.76,-1376.77
22690,-3.8739,-0.2374,-0.8973,-1866.94,1405.76,-1064.27
22700,-3.8739,-0.2423,-0.8992,1617.43,1155.76,-470.52
22710,-3.8738,-0.2469,-0.9009,992.43,921.39,388.85
22720,-3.8738,-0.2509,-0.9043,398.68,702.64,1170.10
22730,-3.8738,-0.2544,-0.9082,-101.32,265.08,1373.23
22740,-3.8738,-0.2573,-0.9091,-554.44,-234.92,982.54
22750,-3.8738,-0.2590,-0.9073,-929.44,-344.30,373.17
22760,-3.8739,-0.2574,-0.9064,-1148.19,-125.55,-1.83
22770,-3.8739,-0.2532,-0.9069,-945.07,-0.55,-79.96
