timestamp_ms,ax,ay,az,gx,gy,gz
0,-3.8744,-0.0928,-0.9689,289.31,-31.43,-1501.95
10,-3.8744,-0.0923,-0.9679,133.06,-0.18,-1798.83
20,-3.8744,-0.0914,-0.9673,195.56,124.82,1794.98
30,-3.8744,-0.0909,-0.9674,304.93,202.94,1373.11
40,-3.8744,-0.0901,-0.9668,367.43,187.32,1232.48
50,-3.8744,-0.0889,-0.9667,476.81,265.44,1310.61
60,-3.8744,-0.0883,-0.9672,633.06,281.07,1451.23
70,-3.8744,-0.0885,-0.9673,711.18,218.57,1560.61
80,-3.8744,-0.0879,-0.9666,679.93,202.94,1513.73
90,-3.8744,-0.0870,-0.9658,758.06,296.69,1451.23
100,-3.8744,-0.0874,-0.9661,867.43,390.44,1482.48
110,-3.8744,-0.0891,-0.9666,820.56,359.19,1623.11
120,-3.8744,-0.0920,-0.9659,601.81,296.69,1904.36
130,-3.8744,-0.0961,-0.9646,226.81,374.82,-1736.27
140,-3.8744,-0.1000,-0.9641,-288.82,546.63,-1548.77
150,-3.8744,-0.1017,-0.9648,-788.82,609.13,-1673.77
160,-3.8744,-0.1000,-0.9669,-1007.57,515.38,-1767.52
170,-3.8744,-0.0956,-0.9698,-788.82,249.76,-1580.02
180,-3.8744,-0.0928,-0.9727,-226.32,-125.24,-1376.95
190,-3.8744,-0.0947,-0.9735,133.06,-484.56,-1142.58
200,-3.8744,-0.0994,-0.9717,-116.94,-593.99,-923.83
210,-3.8744,-0.1028,-0.9689,-710.69,-359.62,-923.83
220,-3.8744,-0.1035,-0.9673,-1148.19,-0.24,-1080.08
230,-3.8744,-0.1014,-0.9672,-1241.94,202.88,-1298.77
240,-3.8744,-0.0990,-0.9668,-976.32,218.51,-1517.52
250,-3.8744,-0.0978,-0.9655,-663.82,265.38,-1626.89
260,-3.8744,-0.0981,-0.9645,-507.57,437.26,-1705.02
270,-3.8744,-0.0990,-0.9644,-554.44,562.26,-1767.52
280,-3.8744,-0.0988,-0.9652,-663.82,577.88,-1767.52
290,-3.8744,-0.0975,-0.9662,-632.57,468.51,-1798.77
300,-3.8744,-0.0958,-0.9661,-476.32,343.51,-1876.89
310,-3.8744,-0.0947,-0.9655,-257.57,359.13,-1876.89
320,-3.8744,-0.0939,-0.9658,-116.94,437.26,-1892.52
330,-3.8744,-0.0924,-0.9670,-7.57,390.38,-1986.27
340,-3.8744,-0.0909,-0.9683,179.93,234.19,1841.86
350,-3.8744,-0.0900,-0.9695,367.43,77.94,1638.73
360,-3.8744,-0.0901,-0.9695,492.43,-78.31,1591.80
370,-3.8744,-0.0920,-0.9679,476.81,-78.31,1794.92
380,-3.8744,-0.0935,-0.9656,226.81,124.82,1982.48
390,-3.8744,-0.0941,-0.9640,39.31,421.69,-1970.64
400,-3.8744,-0.0952,-0.9639,-38.82,624.76,-1970.64
410,-3.8744,-0.0964,-0.9646,-179.44,640.38,1966.86
420,-3.8744,-0.0986,-0.9659,-335.69,546.63,1794.98
430,-3.8744,-0.1016,-0.9674,-616.94,374.76,1685.61
440,-3.8744,-0.1041,-0.9684,-991.94,187.26,1763.73
450,-3.8744,-0.1058,-0.9692,-1320.07,62.26,1998.11
460,-3.8744,-0.1055,-0.9701,-1538.82,-47.12,-1767.58
470,-3.8744,-0.1016,-0.9708,-1491.94,-156.49,-1814.45
480,-3.8744,-0.0950,-0.9713,-991.94,-250.24,-1892.58
490,-3.8744,-0.0895,-0.9708,-148.19,-312.74,-1892.58
500,-3.8744,-0.0887,-0.9689,554.93,-250.18,-1923.83
510,-3.8744,-0.0914,-0.9667,648.68,-0.18,-1876.95
520,-3.8744,-0.0947,-0.9662,304.93,281.07,-1830.02
530,-3.8744,-0.0974,-0.9670,-116.94,343.51,-1767.52
540,-3.8744,-0.0992,-0.9670,-460.69,234.13,-1736.27
550,-3.8744,-0.1021,-0.9666,-695.07,234.13,-1767.52
560,-3.8744,-0.1060,-0.9669,-1054.44,296.63,-1939.39
570,-3.8744,-0.1077,-0.9675,-1554.44,249.76,1779.36
580,-3.8744,-0.1060,-0.9675,-1773.19,171.63,1576.23
590,-3.8744,-0.1027,-0.9680,-1554.44,171.63,1591.86
600,-3.8744,-0.0994,-0.9683,-1132.57,109.13,1669.98
610,-3.8744,-0.0970,-0.9674,-710.69,77.88,1826.23
620,-3.8744,-0.0955,-0.9667,-413.82,187.26,-1970.64
630,-3.8744,-0.0948,-0.9672,-210.69,281.01,-1892.52
640,-3.8744,-0.0956,-0.9673,-132.57,218.51,-1970.64
650,-3.8744,-0.0978,-0.9667,-226.32,202.88,1919.98
660,-3.8744,-0.1000,-0.9663,-507.57,281.01,1857.48
670,-3.8744,-0.1021,-0.9663,-788.82,327.88,1873.11
680,-3.8744,-0.1036,-0.9659,-1054.44,327.88,1935.61
690,-3.8744,-0.1038,-0.9653,-1257.57,374.76,1982.48
700,-3.8744,-0.1025,-0.9652,-1273.19,452.88,1951.23
710,-3.8744,-0.1007,-0.9661,-1116.94,468.51,1888.73
720,-3.8744,-0.0999,-0.9670,-882.57,359.13,1857.48
730,-3.8744,-0.1010,-0.9674,-773.19,234.13,1857.48
740,-3.8744,-0.1023,-0.9673,-913.82,187.26,1826.23
750,-3.8744,-0.1022,-0.9663,-1085.69,202.88,1794.98
760,-3.8744,-0.1000,-0.9667,-1070.07,327.88,1841.86
770,-3.8744,-0.0964,-0.9686,-788.82,281.01,1919.98
780,-3.8744,-0.0941,-0.9686,-335.69,31.01,1873.11
790,-3.8744,-0.0947,-0.9669,-38.82,31.01,1701.23
800,-3.8744,-0.0970,-0.9663,-116.94,249.76,1576.23
810,-3.8744,-0.0988,-0.9674,-413.82,327.88,1435.61
820,-3.8744,-0.0992,-0.9688,-632.57,187.26,1326.23
830,-3.8744,-0.1006,-0.9697,-695.07,15.38,1404.36
840,-3.8744,-0.1023,-0.9701,-866.94,-109.62,1544.92
850,-3.8744,-0.1022,-0.9698,-1085.69,-156.49,1654.30
860,-3.8744,-0.1007,-0.9696,-1070.07,-125.24,1794.92
870,-3.8744,-0.1000,-0.9690,-882.57,-93.99,1873.05
880,-3.8744,-0.1002,-0.9683,-788.82,-15.87,1904.30
890,-3.8744,-0.1017,-0.9672,-820.07,77.88,1919.98
900,-3.8744,-0.1030,-0.9657,-1007.57,218.51,1857.48
910,-3.8744,-0.1027,-0.9653,-1179.44,406.01,1810.61
920,-3.8744,-0.0994,-0.9673,-1132.57,452.88,1982.48
930,-3.8744,-0.0946,-0.9695,-710.69,202.88,-1767.52
940,-3.8744,-0.0906,-0.9696,-101.32,-78.37,-1611.33
950,-3.8744,-0.0892,-0.9688,414.31,-93.93,-1611.33
960,-3.8744,-0.0917,-0.9669,586.18,15.44,-1845.64
970,-3.8744,-0.0981,-0.9633,273.68,249.82,1732.48
980,-3.8744,-0.1068,-0.9598,-554.44,718.51,1201.23
990,-3.8744,-0.1141,-0.9579,-1663.82,1156.01,732.48
1000,-3.8744,-0.1169,-0.9584,1398.68,1406.01,498.11
1010,-3.8744,-0.1156,-0.9613,1039.31,1343.51,701.23
1020,-3.8744,-0.1140,-0.9656,1211.18,968.51,1279.36
1030,-3.8744,-0.1139,-0.9692,1414.31,421.63,1701.23
1040,-3.8744,-0.1155,-0.9718,1429.93,-47.12,1888.67
1050,-3.8744,-0.1158,-0.9741,1226.81,-375.24,1998.05
1060,-3.8744,-0.1115,-0.9768,1179.93,-672.12,-1955.08
1070,-3.8744,-0.1027,-0.9792,1742.43,-1015.87,-1923.83
1080,-3.8744,-0.0945,-0.9797,-1132.57,-1328.37,-1642.58
1090,-3.8744,-0.0919,-0.9773,-85.69,-1390.87,-1236.33
1100,-3.8744,-0.0957,-0.9736,242.43,-1078.31,-1126.95
1110,-3.8744,-0.1018,-0.9692,-241.94,-609.62,-1501.95
1120,-3.8744,-0.1058,-0.9639,-1023.19,-47.12,1763.67
1130,-3.8744,-0.1061,-0.9591,-1538.82,640.38,982.48
1140,-3.8744,-0.1033,-0.9565,-1570.07,1249.76,435.61
1150,-3.8744,-0.0995,-0.9561,-1210.69,1577.88,123.11
1160,-3.8744,-0.0974,-0.9569,-726.32,1640.38,91.86
1170,-3.8744,-0.0977,-0.9584,-460.69,1531.01,294.98
1180,-3.8744,-0.0992,-0.9600,-491.94,1343.51,482.48
1190,-3.8744,-0.1001,-0.9625,-695.07,1140.38,716.86
1200,-3.8744,-0.0999,-0.9663,-804.44,812.26,1076.23
1210,-3.8744,-0.1000,-0.9700,-773.19,327.88,1638.73
1220,-3.8744,-0.1013,-0.9720,-788.82,-140.87,-1705.08
1230,-3.8744,-0.1031,-0.9730,-960.69,-406.49,-1298.83
1240,-3.8744,-0.1040,-0.9734,-1195.07,-531.49,-1173.83
1250,-3.8744,-0.1047,-0.9731,-1304.44,-578.37,-1095.70
1260,-3.8744,-0.1069,-0.9722,-1398.19,-547.12,-1064.45
1270,-3.8744,-0.1096,-0.9703,-1679.44,-422.12,-1205.08
1280,-3.8744,-0.1123,-0.9673,1976.81,-187.74,-1517.58
1290,-3.8744,-0.1136,-0.9639,1633.06,202.88,-1939.39
1300,-3.8744,-0.1125,-0.9618,1461.18,640.38,1607.48
1310,-3.8744,-0.1085,-0.9614,1601.81,906.01,1169.98
1320,-3.8744,-0.1028,-0.9623,-1882.57,952.88,716.86
1330,-3.8744,-0.0983,-0.9631,-1148.19,843.51,498.11
1340,-3.8744,-0.0961,-0.9635,-570.07,734.13,654.36
1350,-3.8744,-0.0957,-0.9639,-288.82,687.26,1123.11
1360,-3.8744,-0.0969,-0.9648,-241.94,640.38,1685.61
1370,-3.8744,-0.0990,-0.9662,-398.19,515.38,-1861.27
1380,-3.8744,-0.1011,-0.9674,-663.82,343.51,-1564.39
1390,-3.8744,-0.1036,-0.9680,-929.44,187.26,-1533.14
1400,-3.8744,-0.1068,-0.9685,-1257.57,109.13,-1798.77
1410,-3.8744,-0.1095,-0.9697,-1663.82,46.63,1904.36
1420,-3.8744,-0.1105,-0.9712,1992.43,-109.62,1779.30
1430,-3.8744,-0.1096,-0.9729,1867.43,-297.12,1701.17
1440,-3.8744,-0.1075,-0.9734,1976.81,-515.87,1748.05
1450,-3.8744,-0.1047,-0.9718,-1757.57,-578.37,1966.80
1460,-3.8744,-0.1025,-0.9694,-1398.19,-375.24,-1830.08
1470,-3.8744,-0.1012,-0.9659,-1116.94,-62.74,-1892.58
1480,-3.8744,-0.1006,-0.9623,-945.07,374.76,1763.73
1490,-3.8744,-0.1007,-0.9606,-866.94,843.51,1216.86
1500,-3.8744,-0.1003,-0.9602,-882.57,1062.26,669.98
1510,-3.8744,-0.1005,-0.9609,-835.69,1109.13,326.23
1520,-3.8744,-0.1025,-0.9630,-851.32,1015.38,404.36
1530,-3.8744,-0.1047,-0.9652,-1116.94,749.76,841.86
1540,-3.8744,-0.1045,-0.9674,-1398.19,468.51,1357.48
1550,-3.8744,-0.1022,-0.9696,-1366.94,187.26,1826.23
1560,-3.8744,-0.1005,-0.9705,-1070.07,-93.99,-1814.45
1570,-3.8744,-0.1008,-0.9696,-851.32,-203.37,-1720.70
1580,-3.8744,-0.1028,-0.9678,-898.19,-93.99,-1861.33
1590,-3.8744,-0.1052,-0.9669,-1148.19,140.38,1826.23
1600,-3.8744,-0.1064,-0.9670,-1460.69,249.76,1576.23
1610,-3.8744,-0.1060,-0.9673,-1616.94,234.13,1451.23
1620,-3.8744,-0.1061,-0.9678,-1554.44,202.88,1638.73
1630,-3.8744,-0.1079,-0.9683,-1570.07,140.38,-1955.02
1640,-3.8744,-0.1099,-0.9694,-1804.44,77.88,-1673.77
1650,-3.8744,-0.1102,-0.9706,1945.56,-62.74,-1736.33
1660,-3.8744,-0.1094,-0.9714,1898.68,-218.99,-1986.33
1670,-3.8744,-0.1094,-0.9714,-1991.94,-328.37,1873.05
1680,-3.8744,-0.1105,-0.9697,-1991.94,-328.37,1810.55
1690,-3.8744,-0.1112,-0.9674,1867.43,-109.62,1685.55
1700,-3.8744,-0.1096,-0.9659,1773.68,187.26,1560.61
1710,-3.8744,-0.1053,-0.9657,1976.81,374.76,1388.73
1720,-3.8744,-0.1005,-0.9667,-1476.32,406.01,1279.36
1730,-3.8744,-0.0967,-0.9684,-851.32,281.01,1263.73
1740,-3.8744,-0.0940,-0.9697,-366.94,62.26,1248.11
1750,-3.8744,-0.0931,-0.9694,-23.19,-109.62,1310.55
1760,-3.8744,-0.0936,-0.9675,86.18,-62.68,1388.67
1770,-3.8744,-0.0950,-0.9653,23.68,171.69,1326.23
1780,-3.8744,-0.0970,-0.9634,-148.19,452.88,1263.73
1790,-3.8744,-0.0996,-0.9620,-413.82,702.88,1279.36
1800,-3.8744,-0.1031,-0.9609,-741.94,874.76,1169.98
1810,-3.8744,-0.1068,-0.9603,-1195.07,1015.38,951.23
1820,-3.8744,-0.1088,-0.9618,-1663.82,1093.51,935.61
1830,-3.8744,-0.1093,-0.9653,-1913.82,906.01,1154.36
1840,-3.8744,-0.1088,-0.9690,-1976.32,452.88,1326.23
1850,-3.8744,-0.1068,-0.9722,-1913.82,-15.87,1373.05
1860,-3.8744,-0.1052,-0.9745,-1663.82,-422.12,1466.80
1870,-3.8744,-0.1055,-0.9760,-1460.69,-718.99,1779.30
1880,-3.8744,-0.1074,-0.9764,-1491.94,-906.49,-1626.95
1890,-3.8744,-0.1093,-0.9755,-1741.94,-968.99,-1048.83
1900,-3.8744,-0.1097,-0.9727,-1976.32,-843.99,-845.70
1910,-3.8744,-0.1089,-0.9683,1961.18,-484.62,-1017.58
1920,-3.8744,-0.1074,-0.9633,-1929.44,77.88,-1501.89
1930,-3.8744,-0.1052,-0.9597,-1741.94,718.51,1904.36
1940,-3.8744,-0.1035,-0.9586,-1460.69,1171.63,1263.73
1950,-3.8744,-0.1024,-0.9595,-1241.94,1312.26,576.23
1960,-3.8744,-0.1007,-0.9615,-1101.32,1202.88,60.61
1970,-3.8745,-0.0988,-0.9637,-882.57,937.26,-1.89
1980,-3.8744,-0.0978,-0.9659,-632.57,656.01,419.98
1990,-3.8744,-0.0992,-0.9673,-507.57,374.76,1107.48
2000,-3.8744,-0.1023,-0.9680,-695.07,202.88,1779.36
2010,-3.8744,-0.1046,-0.9698,-1085.69,109.13,-1845.64
2020,-3.8744,-0.1060,-0.9713,-1382.57,-125.24,-1767.58
2030,-3.8744,-0.1071,-0.9714,-1554.44,-312.74,-1923.83
2040,-3.8744,-0.1078,-0.9712,-1695.07,-328.37,1826.17
2050,-3.8744,-0.1088,-0.9706,-1788.82,-297.12,1591.80
2060,-3.8744,-0.1106,-0.9691,-1913.82,-218.99,1451.17
2070,-3.8744,-0.1123,-0.9667,1851.81,-31.49,1419.92
2080,-3.8744,-0.1116,-0.9650,1633.06,281.01,1341.86
2090,-3.8744,-0.1089,-0.9645,1726.81,499.76,1154.36
2100,-3.8744,-0.1051,-0.9640,-1929.44,562.26,966.86
2110,-3.8744,-0.1016,-0.9636,-1445.07,624.76,763.73
2120,-3.8744,-0.0990,-0.9642,-991.94,671.63,732.48
2130,-3.8744,-0.0981,-0.9657,-663.82,593.51,982.48
2140,-3.8744,-0.0994,-0.9673,-554.44,406.01,1373.11
2150,-3.8744,-0.1008,-0.9685,-710.69,202.88,1732.48
2160,-3.8744,-0.1029,-0.9689,-898.19,46.63,1919.98
2170,-3.8744,-0.1060,-0.9681,-1163.82,-0.24,1826.17
2180,-3.8744,-0.1086,-0.9675,-1554.44,93.51,1623.11
2190,-3.8744,-0.1099,-0.9674,-1898.19,171.63,1544.98
2200,-3.8744,-0.1106,-0.9673,1945.56,187.26,1435.61
2210,-3.8744,-0.1102,-0.9670,1851.81,202.88,1341.86
2220,-3.8744,-0.1090,-0.9677,1898.68,234.13,1419.98
2230,-3.8744,-0.1085,-0.9695,-1945.07,156.01,1482.48
2240,-3.8744,-0.1084,-0.9711,-1882.57,-78.37,1544.92
2250,-3.8744,-0.1077,-0.9716,-1866.94,-281.49,1654.30
2260,-3.8744,-0.1067,-0.9713,-1773.19,-343.99,1654.30
2270,-3.8744,-0.1053,-0.9707,-1648.19,-312.74,1576.17
2280,-3.8744,-0.1040,-0.9692,-1476.32,-234.62,1451.17
2290,-3.8744,-0.1036,-0.9673,-1304.44,-47.12,1263.67
2300,-3.8744,-0.1040,-0.9652,-1257.57,202.88,1107.48
2310,-3.8744,-0.1044,-0.9635,-1304.44,468.51,982.48
2320,-3.8744,-0.1044,-0.9629,-1351.32,687.26,919.98
2330,-3.8744,-0.1040,-0.9633,-1351.32,765.38,935.61
2340,-3.8744,-0.1038,-0.9634,-1304.44,718.51,888.73
2350,-3.8744,-0.1041,-0.9630,-1273.19,702.88,794.98
2360,-3.8744,-0.1049,-0.9624,-1320.07,749.76,685.61
2370,-3.8744,-0.1061,-0.9626,-1413.82,827.88,544.98
2380,-3.8744,-0.1069,-0.9645,-1570.07,796.63,482.48
2390,-3.8744,-0.1069,-0.9668,-1679.44,562.26,591.86
2400,-3.8744,-0.1068,-0.9685,-1679.44,265.38,1029.36
2410,-3.8744,-0.1073,-0.9698,-1663.82,46.63,1685.61
2420,-3.8744,-0.1090,-0.9714,-1726.32,-125.24,-1689.45
2430,-3.8744,-0.1112,-0.9724,-1945.07,-328.37,-1298.83
2440,-3.8744,-0.1139,-0.9725,1773.68,-453.37,-1283.20
2450,-3.8744,-0.1158,-0.9718,1429.93,-468.99,-1658.20
2460,-3.8744,-0.1149,-0.9691,1179.93,-375.24,1857.42
2470,-3.8744,-0.1128,-0.9655,1304.93,-31.49,1435.55
2480,-3.8744,-0.1122,-0.9626,1570.56,437.26,1091.86
2490,-3.8744,-0.1116,-0.9611,1648.68,796.63,732.48
2500,-3.8744,-0.1086,-0.9608,1726.81,999.76,404.36
2510,-3.8744,-0.1038,-0.9623,-1898.19,1031.01,154.36
2520,-3.8744,-0.1000,-0.9642,-1273.19,843.51,13.73
2530,-3.8744,-0.0988,-0.9664,-788.82,593.51,91.86
2540,-3.8744,-0.0988,-0.9692,-632.57,312.26,498.11
2550,-3.8744,-0.1001,-0.9709,-632.57,-47.12,1201.17
2560,-3.8744,-0.1027,-0.9720,-804.44,-265.87,1826.17
2570,-3.8744,-0.1053,-0.9725,-1132.57,-406.49,-1861.33
2580,-3.8744,-0.1074,-0.9717,-1476.32,-468.99,-1876.95
2590,-3.8744,-0.1086,-0.9708,-1741.94,-359.62,1826.17
2600,-3.8744,-0.1096,-0.9697,-1898.19,-250.24,1498.05
2610,-3.8744,-0.1112,-0.9686,1976.81,-109.62,1310.55
2620,-3.8744,-0.1125,-0.9669,1773.68,31.01,1341.86
2630,-3.8744,-0.1135,-0.9642,1601.81,249.76,1466.86
2640,-3.8744,-0.1143,-0.9614,1476.81,593.51,1341.86
2650,-3.8744,-0.1147,-0.9601,1383.06,952.88,1013.73
2660,-3.8744,-0.1154,-0.9597,1320.56,1124.76,513.73
2670,-3.8744,-0.1157,-0.9608,1242.43,1171.63,154.36
2680,-3.8744,-0.1149,-0.9635,1195.56,1031.01,248.11
2690,-3.8744,-0.1127,-0.9668,1304.93,687.26,560.61
2700,-3.8744,-0.1101,-0.9692,1586.18,265.38,919.98
2710,-3.8744,-0.1079,-0.9702,1914.31,-47.12,1216.80
2720,-3.8744,-0.1053,-0.9705,-1804.44,-172.12,1451.17
2730,-3.8744,-0.1025,-0.9709,-1476.32,-203.37,1732.42
2740,-3.8744,-0.1013,-0.9713,-1116.94,-265.87,1919.92
2750,-3.8744,-0.1019,-0.9708,-960.69,-312.74,1951.17
2760,-3.8744,-0.1047,-0.9698,-1038.82,-250.24,1951.17
2770,-3.8744,-0.1102,-0.9683,-1398.19,-125.24,1826.17
2780,-3.8744,-0.1174,-0.9670,1898.68,77.88,1529.36
2790,-3.8744,-0.1232,-0.9662,976.81,234.13,1060.61
2800,-3.8744,-0.1243,-0.9648,242.43,343.51,498.11
2810,-3.8744,-0.1219,-0.9635,101.81,515.38,60.61
2820,-3.8745,-0.1178,-0.9633,398.68,687.26,-64.39
2830,-3.8744,-0.1116,-0.9642,929.93,718.51,123.11
2840,-3.8744,-0.1052,-0.9655,1726.81,593.51,341.86
2850,-3.8744,-0.1022,-0.9666,-1460.69,437.26,482.48
2860,-3.8744,-0.1034,-0.9668,-1070.07,296.63,591.86
2870,-3.8744,-0.1080,-0.9669,-1226.32,265.38,763.73
2880,-3.8744,-0.1132,-0.9674,-1820.07,249.76,1076.23
2890,-3.8744,-0.1158,-0.9680,1523.68,187.26,1326.23
2900,-3.8744,-0.1165,-0.9679,1179.93,109.13,1279.36
2910,-3.8744,-0.1162,-0.9674,1101.81,124.76,1091.86
2920,-3.8744,-0.1163,-0.9673,1133.06,187.26,919.98
2930,-3.8744,-0.1172,-0.9670,1117.43,202.88,794.98
2940,-3.8744,-0.1176,-0.9667,1008.06,234.13,732.48
2950,-3.8744,-0.1174,-0.9662,961.18,281.01,779.36
2960,-3.8744,-0.1166,-0.9659,976.81,343.51,779.36
2970,-3.8744,-0.1152,-0.9663,1086.18,374.76,638.73
2980,-3.8744,-0.1147,-0.9670,1258.06,327.88,498.11
2990,-3.8744,-0.1162,-0.9674,1320.56,234.13,451.23
3000,-3.8744,-0.1184,-0.9678,1133.06,187.26,623.11
3010,-3.8744,-0.1202,-0.9674,851.81,140.38,1044.98
3020,-3.8744,-0.1216,-0.9658,617.43,187.26,1388.73
3030,-3.8744,-0.1216,-0.9651,445.56,390.38,1279.36
3040,-3.8744,-0.1200,-0.9650,445.56,484.13,810.61
3050,-3.8744,-0.1179,-0.9651,648.68,499.76,216.86
3060,-3.8745,-0.1161,-0.9652,914.31,484.13,-220.64
3070,-3.8745,-0.1141,-0.9657,1148.68,468.51,-298.77
3080,-3.8745,-0.1132,-0.9670,1398.68,406.01,-64.39
3090,-3.8744,-0.1150,-0.9680,1523.68,234.13,294.98
3100,-3.8744,-0.1187,-0.9683,1289.31,109.13,638.73
3110,-3.8744,-0.1215,-0.9680,820.56,77.88,888.73
3120,-3.8744,-0.1228,-0.9683,461.18,109.13,998.11
3130,-3.8744,-0.1237,-0.9678,289.31,77.88,998.11
3140,-3.8744,-0.1238,-0.9667,179.93,140.38,873.11
3150,-3.8744,-0.1238,-0.9652,164.31,281.01,607.48
3160,-3.8744,-0.1234,-0.9639,164.31,468.51,279.36
3170,-3.8745,-0.1211,-0.9630,211.18,640.38,-111.27
3180,-3.8745,-0.1187,-0.9634,508.06,749.76,-470.64
3190,-3.8745,-0.1177,-0.9646,820.56,702.88,-564.39
3200,-3.8745,-0.1173,-0.9662,945.56,546.63,-408.14
3210,-3.8745,-0.1176,-0.9670,992.43,343.51,-158.14
3220,-3.8744,-0.1190,-0.9673,961.18,234.13,29.36
3230,-3.8744,-0.1202,-0.9670,773.68,202.88,154.36
3240,-3.8744,-0.1202,-0.9673,617.43,234.13,310.61
3250,-3.8744,-0.1195,-0.9681,617.43,202.88,435.61
3260,-3.8744,-0.1190,-0.9679,711.18,93.51,419.98
3270,-3.8744,-0.1191,-0.9663,773.68,124.76,388.73
3280,-3.8744,-0.1208,-0.9644,758.06,327.88,279.36
3290,-3.8744,-0.1234,-0.9636,539.31,577.88,123.11
3300,-3.8744,-0.1249,-0.9645,211.18,671.63,91.86
3310,-3.8744,-0.1254,-0.9667,23.68,562.26,123.11
3320,-3.8744,-0.1257,-0.9703,-38.82,280.94,216.86
3330,-3.8744,-0.1256,-0.9738,-85.69,-187.81,294.92
3340,-3.8744,-0.1259,-0.9744,-70.07,-625.31,466.80
3350,-3.8744,-0.1270,-0.9723,-101.32,-703.43,638.67
3360,-3.8744,-0.1274,-0.9691,-241.94,-437.81,591.80
3370,-3.8744,-0.1261,-0.9668,-304.44,-31.56,388.67
3380,-3.8744,-0.1235,-0.9653,-132.57,265.32,123.11
3390,-3.8745,-0.1219,-0.9631,195.56,452.88,-48.77
3400,-3.8745,-0.1218,-0.9600,398.68,734.13,-142.52
3410,-3.8745,-0.1227,-0.9581,414.31,1140.38,-95.64
3420,-3.8745,-0.1232,-0.9594,304.93,1374.76,-64.39
3430,-3.8745,-0.1226,-0.9622,242.43,1218.51,-173.77
3440,-3.8745,-0.1213,-0.9640,320.56,859.13,-376.89
3450,-3.8745,-0.1204,-0.9656,476.81,624.76,-580.02
3460,-3.8745,-0.1200,-0.9672,601.81,421.63,-533.14
3470,-3.8745,-0.1207,-0.9675,648.68,218.51,-283.14
3480,-3.8744,-0.1232,-0.9677,554.93,171.63,123.11
3490,-3.8744,-0.1257,-0.9673,242.43,156.01,466.86
3500,-3.8744,-0.1272,-0.9666,-85.69,202.82,607.48
3510,-3.8744,-0.1284,-0.9670,-273.19,296.57,623.11
3520,-3.8744,-0.1289,-0.9680,-429.44,234.07,498.11
3530,-3.8744,-0.1287,-0.9681,-491.94,109.07,248.11
3540,-3.8744,-0.1289,-0.9669,-460.69,93.44,44.98
3550,-3.8745,-0.1290,-0.9646,-491.94,249.69,-158.14
3560,-3.8745,-0.1282,-0.9636,-507.57,546.57,-376.89
3570,-3.8745,-0.1257,-0.9641,-398.19,671.57,-470.64
3580,-3.8745,-0.1218,-0.9650,-85.69,609.07,-533.14
3590,-3.8745,-0.1188,-0.9657,414.31,499.76,-580.02
3600,-3.8745,-0.1167,-0.9664,804.93,406.01,-501.89
3610,-3.8745,-0.1162,-0.9673,1070.56,312.26,-142.52
3620,-3.8744,-0.1185,-0.9683,1133.06,202.88,388.73
3630,-3.8744,-0.1227,-0.9692,836.18,77.88,732.48
3640,-3.8744,-0.1278,-0.9702,304.93,-47.12,732.42
3650,-3.8744,-0.1320,-0.9701,-351.32,-172.18,544.92
3660,-3.8744,-0.1335,-0.9681,-882.57,-156.56,341.80
3670,-3.8744,-0.1332,-0.9661,-1085.69,93.44,138.73
3680,-3.8745,-0.1317,-0.9647,-1038.82,359.07,-33.14
3690,-3.8745,-0.1295,-0.9626,-851.32,530.94,-173.77
3700,-3.8745,-0.1278,-0.9600,-570.07,796.57,-439.39
3710,-3.8745,-0.1261,-0.9586,-351.32,1140.32,-798.77
3720,-3.8745,-0.1233,-0.9594,-132.57,1312.19,-1064.39
3730,-3.8745,-0.1205,-0.9611,226.81,1218.51,-1095.64
3740,-3.8745,-0.1188,-0.9629,586.18,999.76,-783.14
3750,-3.8745,-0.1193,-0.9650,804.93,765.38,-314.39
3760,-3.8745,-0.1229,-0.9670,742.43,499.76,-1.89
3770,-3.8744,-0.1267,-0.9688,273.68,234.13,91.86
3780,-3.8744,-0.1289,-0.9692,-210.69,15.32,76.23
3790,-3.8744,-0.1309,-0.9686,-491.94,-47.18,91.80
3800,-3.8745,-0.1324,-0.9681,-741.94,30.94,-48.77
3810,-3.8745,-0.1326,-0.9683,-945.07,93.44,-236.27
3820,-3.8745,-0.1313,-0.9681,-960.69,77.82,-283.14
3830,-3.8745,-0.1309,-0.9673,-804.44,93.44,-345.64
3840,-3.8745,-0.1309,-0.9653,-741.94,202.82,-486.27
3850,-3.8745,-0.1301,-0.9633,-741.94,452.82,-611.27
3860,-3.8745,-0.1285,-0.9618,-648.19,718.44,-783.14
3870,-3.8745,-0.1267,-0.9615,-445.07,905.94,-923.77
3880,-3.8745,-0.1259,-0.9625,-210.69,937.19,-814.39
3890,-3.8745,-0.1262,-0.9640,-101.32,812.19,-626.89
3900,-3.8745,-0.1263,-0.9661,-148.19,624.69,-501.89
3910,-3.8745,-0.1266,-0.9685,-163.82,359.07,-267.52
3920,-3.8745,-0.1273,-0.9698,-195.07,46.57,-64.39
3930,-3.8744,-0.1279,-0.9705,-288.82,-125.31,13.67
3940,-3.8745,-0.1294,-0.9703,-366.94,-203.43,-64.45
3950,-3.8745,-0.1317,-0.9685,-554.44,-187.81,-314.45
3960,-3.8745,-0.1343,-0.9661,-851.32,46.57,-517.52
3970,-3.8745,-0.1350,-0.9642,-1179.44,359.07,-736.27
3980,-3.8745,-0.1339,-0.9634,-1273.19,593.44,-1001.89
3990,-3.8745,-0.1322,-0.9631,-1132.57,702.82,-1126.89
4000,-3.8745,-0.1302,-0.9639,-913.82,734.07,-1173.77
4010,-3.8745,-0.1298,-0.9644,-663.82,640.32,-1126.89
4020,-3.8745,-0.1304,-0.9636,-601.32,577.82,-861.27
4030,-3.8745,-0.1318,-0.9635,-679.44,671.57,-595.64
4040,-3.8745,-0.1339,-0.9646,-866.94,687.19,-548.77
4050,-3.8745,-0.1354,-0.9653,-1132.57,546.57,-658.14
4060,-3.8745,-0.1353,-0.9661,-1320.07,452.82,-658.14
4070,-3.8745,-0.1340,-0.9670,-1304.44,359.07,-533.14
4080,-3.8745,-0.1333,-0.9684,-1148.19,234.07,-376.89
4090,-3.8745,-0.1320,-0.9694,-1054.44,62.19,-283.14
4100,-3.8745,-0.1304,-0.9694,-882.57,-62.81,-392.58
4110,-3.8745,-0.1312,-0.9681,-679.44,-62.81,-564.45
4120,-3.8745,-0.1340,-0.9662,-788.82,93.44,-720.64
4130,-3.8745,-0.1375,-0.9641,-1148.19,343.44,-876.89
4140,-3.8745,-0.1400,-0.9619,-1585.69,609.07,-1048.77
4150,-3.8745,-0.1403,-0.9607,-1913.82,890.32,-1111.27
4160,-3.8745,-0.1388,-0.9615,-1945.07,1046.57,-1080.02
4170,-3.8745,-0.1356,-0.9639,-1757.57,937.19,-1017.52
4180,-3.8745,-0.1329,-0.9666,-1351.32,640.32,-986.27
4190,-3.8745,-0.1323,-0.9689,-1007.57,296.57,-923.77
4200,-3.8745,-0.1331,-0.9698,-929.44,-0.31,-720.70
4210,-3.8745,-0.1339,-0.9697,-1023.19,-125.31,-517.58
4220,-3.8745,-0.1345,-0.9689,-1132.57,-109.68,-455.08
4230,-3.8745,-0.1351,-0.9670,-1210.69,-0.31,-548.83
4240,-3.8745,-0.1366,-0.9645,-1288.82,234.07,-736.27
4250,-3.8745,-0.1385,-0.9622,-1476.32,562.19,-986.27
4260,-3.8745,-0.1394,-0.9615,-1726.32,859.07,-1220.64
4270,-3.8745,-0.1388,-0.9623,-1835.69,937.19,-1361.27
4280,-3.8745,-0.1378,-0.9631,-1757.57,843.44,-1361.27
4290,-3.8745,-0.1376,-0.9640,-1632.57,734.07,-1173.77
4300,-3.8745,-0.1375,-0.9647,-1601.32,624.69,-1064.39
4310,-3.8745,-0.1372,-0.9651,-1585.69,530.94,-1142.52
4320,-3.8745,-0.1362,-0.9658,-1554.44,484.07,-1267.52
4330,-3.8745,-0.1349,-0.9667,-1429.44,390.32,-1423.77
4340,-3.8745,-0.1342,-0.9674,-1257.57,280.94,-1455.02
4350,-3.8745,-0.1342,-0.9674,-1163.82,187.19,-1142.52
4360,-3.8745,-0.1357,-0.9669,-1163.82,187.19,-642.52
4370,-3.8745,-0.1392,-0.9661,-1366.94,249.69,-314.39
4380,-3.8745,-0.1428,-0.9653,-1804.44,359.07,-267.52
4390,-3.8745,-0.1449,-0.9652,1726.81,452.82,-455.02
4400,-3.8745,-0.1444,-0.9650,1461.18,468.44,-970.64
4410,-3.8745,-0.1425,-0.9642,1523.68,499.69,-1658.14
4420,-3.8745,-0.1398,-0.9637,1773.68,593.44,1982.48
4430,-3.8745,-0.1383,-0.9644,-1882.57,655.94,-1908.14
4440,-3.8745,-0.1389,-0.9653,-1695.07,577.82,-1611.27
4450,-3.8745,-0.1389,-0.9658,-1773.19,452.82,-1314.39
4460,-3.8745,-0.1372,-0.9668,-1773.19,390.32,-1017.52
4470,-3.8745,-0.1351,-0.9679,-1554.44,265.32,-783.14
4480,-3.8745,-0.1348,-0.9688,-1288.82,124.69,-689.39
4490,-3.8745,-0.1366,-0.9691,-1241.94,15.32,-720.64
4500,-3.8745,-0.1382,-0.9679,-1476.32,-31.56,-876.95
4510,-3.8745,-0.1389,-0.9656,-1679.44,124.69,-1001.89
4520,-3.8745,-0.1396,-0.9635,-1773.19,421.57,-1189.39
4530,-3.8745,-0.1404,-0.9620,-1866.94,687.19,-1486.27
4540,-3.8745,-0.1418,-0.9611,-1960.69,874.69,-1751.89
4550,-3.8745,-0.1429,-0.9613,1851.81,999.69,-1845.64
4560,-3.8745,-0.1431,-0.9622,1711.18,968.44,-1845.64
4570,-3.8745,-0.1420,-0.9633,1695.56,859.07,-1720.64
4580,-3.8745,-0.1394,-0.9653,1836.18,718.44,-1408.14
4590,-3.8745,-0.1366,-0.9677,-1835.69,452.82,-1048.77
4600,-3.8745,-0.1356,-0.9694,-1476.32,155.94,-798.77
4610,-3.8745,-0.1366,-0.9695,-1351.32,-62.81,-783.20
4620,-3.8745,-0.1390,-0.9680,-1476.32,-78.43,-892.58
4630,-3.8745,-0.1416,-0.9664,-1788.82,109.07,-1001.89
4640,-3.8745,-0.1421,-0.9656,1883.06,312.19,-1205.02
4650,-3.8745,-0.1407,-0.9651,1820.56,421.57,-1501.89
4660,-3.8745,-0.1390,-0.9644,1992.43,484.07,-1642.52
4670,-3.8745,-0.1375,-0.9644,-1788.82,577.82,-1642.52
4680,-3.8745,-0.1360,-0.9651,-1585.69,577.82,-1751.89
4690,-3.8745,-0.1362,-0.9657,-1398.19,484.07,-1767.52
4700,-3.8745,-0.1376,-0.9658,-1429.44,405.94,-1626.89
4710,-3.8745,-0.1389,-0.9664,-1601.32,390.32,-1564.39
4720,-3.8745,-0.1401,-0.9672,-1773.19,312.19,-1470.64
4730,-3.8745,-0.1410,-0.9674,-1929.44,218.44,-1251.89
4740,-3.8745,-0.1421,-0.9675,1961.18,187.19,-986.27
4750,-3.8745,-0.1425,-0.9678,1820.56,171.57,-798.77
4760,-3.8745,-0.1414,-0.9673,1773.68,140.32,-845.64
4770,-3.8745,-0.1404,-0.9656,1914.31,202.82,-1095.64
4780,-3.8745,-0.1400,-0.9636,-1960.69,421.57,-1439.39
4790,-3.8745,-0.1393,-0.9623,-1913.82,671.57,-1751.89
4800,-3.8745,-0.1392,-0.9619,-1820.07,843.44,-1955.02
4810,-3.8745,-0.1396,-0.9630,-1804.44,890.32,-1955.02
4820,-3.8745,-0.1394,-0.9650,-1866.94,749.69,-1861.27
4830,-3.8745,-0.1382,-0.9669,-1835.69,499.69,-1548.77
4840,-3.8745,-0.1370,-0.9685,-1679.44,249.69,-1017.52
4850,-3.8745,-0.1381,-0.9689,-1523.19,46.57,-689.39
4860,-3.8745,-0.1411,-0.9679,-1663.82,-0.31,-658.20
4870,-3.8745,-0.1439,-0.9672,1945.56,124.69,-1001.89
4880,-3.8745,-0.1448,-0.9672,1586.18,218.44,-1486.27
4890,-3.8745,-0.1438,-0.9675,1476.81,218.44,-1736.27
4900,-3.8745,-0.1427,-0.9670,1601.81,171.57,-1626.89
4910,-3.8745,-0.1416,-0.9657,1742.43,234.07,-1361.27
4920,-3.8745,-0.1406,-0.9642,1883.06,405.94,-1080.02
4930,-3.8745,-0.1400,-0.9620,-1991.94,593.44,-1017.52
4940,-3.8745,-0.1398,-0.9608,-1913.82,874.69,-1236.27
4950,-3.8745,-0.1401,-0.9604,-1882.57,1030.94,-1548.77
4960,-3.8745,-0.1401,-0.9611,-1929.44,1077.82,-1923.77
4970,-3.8745,-0.1383,-0.9624,-1929.44,999.69,1779.36
4980,-3.8745,-0.1361,-0.9639,-1695.07,827.82,1935.61
4990,-3.8745,-0.1357,-0.9653,-1413.82,640.32,-1533.14
5000,-3.8745,-0.1378,-0.9656,-1366.94,452.82,-1064.39
5010,-3.8745,-0.1406,-0.9656,-1632.57,421.57,-892.52
5020,-3.8745,-0.1425,-0.9661,-1991.94,421.57,-1080.02
5030,-3.8745,-0.1436,-0.9664,1773.68,359.07,-1423.77
5040,-3.8745,-0.1448,-0.9664,1633.06,312.19,-1658.14
5050,-3.8745,-0.1455,-0.9666,1476.81,312.19,-1580.02
5060,-3.8745,-0.1456,-0.9675,1383.06,296.57,-1267.52
5070,-3.8745,-0.1458,-0.9686,1367.43,171.57,-1017.52
5080,-3.8745,-0.1450,-0.9685,1351.81,30.94,-892.52
5090,-3.8745,-0.1436,-0.9669,1445.56,46.57,-1064.39
5100,-3.8745,-0.1415,-0.9651,1633.06,249.69,-1626.89
5110,-3.8745,-0.1392,-0.9642,1898.68,484.07,1607.48
5120,-3.8745,-0.1367,-0.9634,-1804.44,593.44,1232.48
5130,-3.8745,-0.1349,-0.9623,-1491.94,702.82,1388.73
5140,-3.8745,-0.1340,-0.9630,-1257.57,843.44,1888.73
5150,-3.8745,-0.1345,-0.9653,-1148.19,749.69,-1501.89
5160,-3.8745,-0.1376,-0.9662,-1210.69,452.82,-1111.27
5170,-3.8745,-0.1420,-0.9661,-1601.32,343.44,-1173.77
5180,-3.8745,-0.1458,-0.9656,1836.18,359.07,-1564.39
5190,-3.8745,-0.1473,-0.9651,1351.81,421.57,-1876.89
5200,-3.8745,-0.1462,-0.9655,1148.68,484.07,-1939.39
5210,-3.8745,-0.1433,-0.9666,1289.31,437.19,-1783.14
5220,-3.8745,-0.1412,-0.9673,1664.31,296.57,-1564.39
5230,-3.8745,-0.1403,-0.9669,1929.93,202.82,-1392.52
5240,-3.8745,-0.1396,-0.9664,-1945.07,249.69,-1376.89
5250,-3.8745,-0.1399,-0.9663,-1866.94,312.19,-1486.27
5260,-3.8745,-0.1409,-0.9656,-1898.19,327.82,-1689.39
5270,-3.8745,-0.1423,-0.9644,1976.81,421.57,-1908.14
5280,-3.8745,-0.1436,-0.9639,1789.31,577.82,-1970.64
5290,-3.8745,-0.1429,-0.9650,1633.06,640.32,-1751.89
5300,-3.8745,-0.1406,-0.9668,1711.18,499.69,-1423.77
5310,-3.8745,-0.1383,-0.9679,-1991.94,265.32,-1158.14
5320,-3.8745,-0.1379,-0.9672,-1695.07,124.69,-1142.52
5330,-3.8745,-0.1407,-0.9648,-1648.19,218.44,-1423.77
5340,-3.8745,-0.1445,-0.9630,1992.43,515.32,-1814.39
5350,-3.8745,-0.1460,-0.9624,1508.06,749.69,1873.11
5360,-3.8745,-0.1456,-0.9635,1320.56,827.82,1607.48
5370,-3.8745,-0.1444,-0.9661,1367.43,687.19,1529.36
5380,-3.8745,-0.1426,-0.9683,1523.68,359.07,1826.23
5390,-3.8745,-0.1410,-0.9690,1758.06,77.82,-1658.14
5400,-3.8745,-0.1404,-0.9688,1961.18,-15.93,-1064.45
5410,-3.8745,-0.1412,-0.9680,-1960.69,15.32,-658.14
5420,-3.8745,-0.1420,-0.9670,1929.93,109.07,-736.27
5430,-3.8745,-0.1407,-0.9664,1836.18,234.07,-1173.77
5440,-3.8745,-0.1389,-0.9659,1992.43,312.19,-1642.52
5450,-3.8745,-0.1394,-0.9656,-1773.19,374.69,-1908.14
5460,-3.8745,-0.1425,-0.9653,-1835.69,421.57,1982.48
5470,-3.8745,-0.1459,-0.9646,1773.68,452.82,-1939.39
5480,-3.8745,-0.1472,-0.9644,1336.18,546.57,-1751.89
5490,-3.8745,-0.1455,-0.9644,1164.31,577.82,-1673.77
5500,-3.8745,-0.1432,-0.9647,1383.06,577.82,-1783.14
5510,-3.8745,-0.1412,-0.9648,1679.93,530.94,-1986.27
5520,-3.8745,-0.1399,-0.9647,1929.93,515.32,1873.11
5530,-3.8745,-0.1396,-0.9656,-1898.19,530.94,1841.86
5540,-3.8745,-0.1400,-0.9659,-1866.94,421.57,1904.36
5550,-3.8745,-0.1401,-0.9655,-1913.82,374.69,-1845.64
5560,-3.8745,-0.1400,-0.9655,-1929.44,437.19,-1501.89
5570,-3.8745,-0.1400,-0.9668,-1913.82,437.19,-1267.52
5580,-3.8745,-0.1418,-0.9690,-1913.82,265.32,-1158.14
5590,-3.8745,-0.1440,-0.9701,1851.81,-15.93,-1345.70
5600,-3.8745,-0.1440,-0.9694,1570.56,-156.56,-1689.45
5610,-3.8745,-0.1425,-0.9678,1570.56,-62.81,-1783.20
5620,-3.8745,-0.1412,-0.9663,1773.68,140.32,-1517.52
5630,-3.8745,-0.1420,-0.9650,1929.93,327.82,-1314.39
5640,-3.8745,-0.1431,-0.9636,1836.18,499.69,-1439.39
5650,-3.8745,-0.1427,-0.9623,1695.56,671.57,-1767.52
5660,-3.8745,-0.1407,-0.9614,1742.43,843.44,1810.61
5670,-3.8745,-0.1382,-0.9613,1992.43,952.82,1607.48
5680,-3.8745,-0.1365,-0.9612,-1679.44,968.44,1669.98
5690,-3.8745,-0.1365,-0.9617,-1460.69,984.07,1935.61
5700,-3.8745,-0.1382,-0.9631,-1460.69,921.57,-1798.77
5710,-3.8745,-0.1412,-0.9646,-1679.44,734.07,-1673.77
5720,-3.8745,-0.1438,-0.9657,1929.93,546.57,-1517.52
5730,-3.8745,-0.1449,-0.9673,1601.81,405.94,-1298.77
5740,-3.8745,-0.1445,-0.9691,1461.18,202.82,-1126.89
5750,-3.8745,-0.1434,-0.9702,1508.06,-31.56,-1001.95
5760,-3.8745,-0.1432,-0.9703,1648.68,-172.18,-923.83
5770,-3.8745,-0.1442,-0.9696,1679.93,-187.81,-970.70
5780,-3.8745,-0.1455,-0.9685,1554.93,-94.06,-1095.70
5790,-3.8745,-0.1460,-0.9673,1383.06,46.57,-1330.02
5800,-3.8745,-0.1444,-0.9657,1320.56,202.82,-1595.64
5810,-3.8745,-0.1420,-0.9640,1523.68,405.94,-1814.39
5820,-3.8745,-0.1400,-0.9625,1836.18,624.69,-1892.52
5830,-3.8745,-0.1387,-0.9619,-1913.82,812.19,-1798.77
5840,-3.8745,-0.1375,-0.9618,-1741.94,890.32,-1673.77
5850,-3.8745,-0.1362,-0.9619,-1585.69,905.94,-1845.64
5860,-3.8745,-0.1356,-0.9619,-1429.44,890.32,1748.11
5870,-3.8745,-0.1367,-0.9624,-1351.32,890.32,1560.61
5880,-3.8745,-0.1388,-0.9650,-1491.94,827.82,1732.48
5890,-3.8745,-0.1415,-0.9681,-1757.57,499.69,-1939.39
5900,-3.8745,-0.1439,-0.9696,1898.68,93.44,-1564.39
5910,-3.8745,-0.1458,-0.9695,1586.18,-94.06,-1080.08
5920,-3.8745,-0.1466,-0.9696,1351.81,-78.43,-580.08
5930,-3.8745,-0.1460,-0.9696,1242.43,-94.06,-439.45
5940,-3.8745,-0.1450,-0.9689,1320.56,-94.06,-673.83
5950,-3.8745,-0.1442,-0.9688,1445.56,-0.31,-1048.83
5960,-3.8745,-0.1427,-0.9689,1554.93,15.32,-1376.89
5970,-3.8745,-0.1412,-0.9673,1742.43,-0.31,-1501.95
5980,-3.8745,-0.1406,-0.9645,1929.93,202.82,-1501.89
5990,-3.8745,-0.1407,-0.9626,-1991.94,562.19,-1533.14
6000,-3.8745,-0.1420,-0.9622,1992.43,796.57,-1548.77
6010,-3.8745,-0.1429,-0.9613,1836.18,859.07,-1642.52
6020,-3.8745,-0.1423,-0.9606,1711.18,968.44,-1939.39
6030,-3.8745,-0.1410,-0.9604,1789.31,1062.19,1873.11
6040,-3.8745,-0.1398,-0.9611,1961.18,1077.82,1794.98
6050,-3.8745,-0.1394,-0.9617,-1882.57,999.69,1732.48
6060,-3.8745,-0.1393,-0.9620,-1835.69,921.57,1873.11
6070,-3.8745,-0.1389,-0.9636,-1820.07,874.69,-1705.02
6080,-3.8745,-0.1383,-0.9655,-1773.19,671.57,-1173.77
6090,-3.8745,-0.1387,-0.9663,-1695.07,437.19,-939.39
6100,-3.8745,-0.1406,-0.9666,-1741.94,327.82,-1111.27
6110,-3.8745,-0.1423,-0.9667,-1991.94,296.57,-1345.64
6120,-3.8745,-0.1442,-0.9666,1789.31,280.94,-1470.64
6130,-3.8745,-0.1458,-0.9663,1554.93,296.57,-1501.89
6140,-3.8745,-0.1460,-0.9659,1351.81,327.82,-1423.77
6150,-3.8745,-0.1448,-0.9663,1320.56,374.69,-1345.64
6160,-3.8745,-0.1429,-0.9666,1476.81,327.82,-1283.14
6170,-3.8745,-0.1417,-0.9664,1711.18,296.57,-1142.52
6180,-3.8745,-0.1409,-0.9664,1867.43,312.19,-1111.27
6190,-3.8745,-0.1400,-0.9648,1976.81,312.19,-1251.89
6200,-3.8745,-0.1403,-0.9626,-1913.82,515.32,-1517.52
6210,-3.8745,-0.1405,-0.9628,-1945.07,796.57,-1798.77
6220,-3.8745,-0.1398,-0.9636,-1976.32,780.94,-1908.14
6230,-3.8745,-0.1395,-0.9636,-1882.57,671.57,-1939.39
6240,-3.8745,-0.1403,-0.9633,-1851.32,671.57,-1970.64
6250,-3.8745,-0.1414,-0.9631,-1945.07,718.44,-1955.02
6260,-3.8745,-0.1417,-0.9631,1914.31,734.07,-1830.02
6270,-3.8745,-0.1416,-0.9639,1867.43,734.07,-1642.52
6280,-3.8745,-0.1414,-0.9645,1883.06,640.32,-1548.77
6290,-3.8745,-0.1409,-0.9648,1914.31,562.19,-1486.27
6300,-3.8745,-0.1412,-0.9658,1976.81,515.32,-1298.77
6310,-3.8745,-0.1427,-0.9672,1929.93,390.32,-1126.89
6320,-3.8745,-0.1447,-0.9683,1742.43,218.44,-1111.27
6330,-3.8745,-0.1453,-0.9696,1492.43,77.82,-1033.14
6340,-3.8745,-0.1436,-0.9713,1414.31,-94.06,-939.45
6350,-3.8745,-0.1410,-0.9725,1633.06,-312.81,-1001.95
6360,-3.8745,-0.1398,-0.9717,1961.18,-469.06,-1142.58
6370,-3.8745,-0.1401,-0.9684,-1882.57,-359.68,-1283.20
6380,-3.8745,-0.1415,-0.9656,-1929.44,62.19,-1267.52
6390,-3.8745,-0.1437,-0.9640,1898.68,421.57,-1251.89
6400,-3.8745,-0.1458,-0.9624,1617.43,624.69,-1314.39
6410,-3.8745,-0.1466,-0.9604,1351.81,827.82,-1392.52
6420,-3.8745,-0.1458,-0.9590,1242.43,1077.82,-1470.64
6430,-3.8745,-0.1437,-0.9592,1351.81,1265.32,-1564.39
6440,-3.8745,-0.1421,-0.9603,1617.43,1234.07,-1720.64
6450,-3.8745,-0.1418,-0.9618,1820.56,1093.44,-1814.39
6460,-3.8745,-0.1418,-0.9642,1851.81,905.94,-1783.14
6470,-3.8745,-0.1407,-0.9666,1851.81,593.44,-1798.77
6480,-3.8745,-0.1394,-0.9684,1992.43,296.57,-1830.02
6490,-3.8745,-0.1382,-0.9697,-1835.69,62.19,-1689.39
6500,-3.8745,-0.1381,-0.9702,-1679.44,-109.68,-1330.08
6510,-3.8745,-0.1393,-0.9700,-1663.82,-172.18,-939.45
6520,-3.8745,-0.1418,-0.9683,-1820.07,-140.93,-705.08
6530,-3.8745,-0.1447,-0.9658,1851.81,77.82,-658.14
6540,-3.8745,-0.1469,-0.9642,1492.43,390.32,-814.39
6550,-3.8745,-0.1481,-0.9637,1211.18,593.44,-1111.27
6560,-3.8745,-0.1482,-0.9629,1054.93,655.94,-1455.02
6570,-3.8745,-0.1482,-0.9617,1039.31,765.32,-1736.27
6580,-3.8745,-0.1492,-0.9615,1039.31,921.57,-1923.77
6590,-3.8745,-0.1500,-0.9620,914.31,937.19,-1986.27
6600,-3.8745,-0.1487,-0.9626,804.93,874.69,-1955.02
6610,-3.8745,-0.1448,-0.9636,976.81,796.57,1998.11
6620,-3.8745,-0.1398,-0.9642,1476.81,671.57,-1986.27
6630,-3.8745,-0.1366,-0.9651,-1882.57,593.44,-1798.77
6640,-3.8745,-0.1367,-0.9668,-1476.32,484.07,-1486.27
6650,-3.8745,-0.1385,-0.9680,-1491.94,265.32,-1158.14
6660,-3.8745,-0.1407,-0.9686,-1726.32,109.07,-955.02
6670,-3.8745,-0.1425,-0.9689,1992.43,30.94,-923.77
6680,-3.8745,-0.1438,-0.9683,1773.68,-0.31,-986.33
6690,-3.8745,-0.1445,-0.9669,1601.81,77.82,-1158.14
6700,-3.8745,-0.1453,-0.9656,1508.06,249.69,-1470.64
6710,-3.8745,-0.1456,-0.9635,1414.31,421.57,-1830.02
6720,-3.8745,-0.1451,-0.9622,1367.43,687.19,1857.48
6730,-3.8745,-0.1447,-0.9623,1429.93,859.07,1779.36
6740,-3.8745,-0.1436,-0.9625,1492.43,843.44,1998.11
6750,-3.8745,-0.1428,-0.9624,1633.06,812.19,-1845.64
6760,-3.8745,-0.1423,-0.9626,1726.81,827.82,-1767.52
6770,-3.8745,-0.1416,-0.9633,1789.31,796.57,-1673.77
6780,-3.8745,-0.1412,-0.9641,1883.06,718.44,-1580.02
6790,-3.8745,-0.1414,-0.9651,1929.93,609.07,-1439.39
6800,-3.8745,-0.1421,-0.9657,1914.31,484.07,-1314.39
6810,-3.8745,-0.1432,-0.9661,1820.56,405.94,-1298.77
6820,-3.8745,-0.1444,-0.9662,1679.93,359.07,-1267.52
6830,-3.8745,-0.1453,-0.9657,1523.68,343.44,-1251.89
6840,-3.8745,-0.1453,-0.9661,1414.31,405.94,-1283.14
6850,-3.8745,-0.1444,-0.9667,1414.31,359.07,-1314.39
6860,-3.8745,-0.1442,-0.9659,1523.68,280.94,-1439.39
6870,-3.8745,-0.1451,-0.9645,1554.93,374.69,-1658.14
6880,-3.8745,-0.1465,-0.9639,1429.93,562.19,-1798.77
6890,-3.8745,-0.1475,-0.9634,1258.06,640.32,-1736.27
6900,-3.8745,-0.1471,-0.9628,1133.06,702.82,-1595.64
6910,-3.8745,-0.1450,-0.9629,1179.93,780.94,-1501.89
6920,-3.8745,-0.1423,-0.9637,1445.56,765.32,-1517.52
6930,-3.8745,-0.1398,-0.9650,1789.31,655.94,-1626.89
6940,-3.8745,-0.1384,-0.9663,-1882.57,499.69,-1642.52
6950,-3.8745,-0.1395,-0.9670,-1710.69,327.82,-1580.02
6960,-3.8745,-0.1429,-0.9661,-1851.32,234.07,-1455.02
6970,-3.8745,-0.1465,-0.9650,1711.18,359.07,-1267.52
6980,-3.8745,-0.1483,-0.9650,1258.06,499.69,-1220.64
6990,-3.8745,-0.1479,-0.9652,1023.68,499.69,-1330.02
7000,-3.8745,-0.1467,-0.9658,1070.56,468.44,-1548.77
7010,-3.8745,-0.1464,-0.9661,1226.81,390.32,-1783.14
7020,-3.8745,-0.1465,-0.9655,1273.68,359.07,-1892.52
7030,-3.8745,-0.1460,-0.9647,1258.06,437.19,-1892.52
7040,-3.8745,-0.1451,-0.9645,1320.56,530.94,-1986.27
7050,-3.8745,-0.1442,-0.9637,1429.93,562.19,1966.86
7060,-3.8745,-0.1429,-0.9630,1554.93,655.94,-1923.77
7070,-3.8745,-0.1423,-0.9631,1711.18,749.69,-1720.64
7080,-3.8745,-0.1420,-0.9630,1789.31,734.07,-1642.52
7090,-3.8745,-0.1414,-0.9628,1836.18,749.69,-1751.89
7100,-3.8745,-0.1415,-0.9645,1914.31,780.94,-1673.77
7110,-3.8745,-0.1423,-0.9669,1898.68,562.19,-1423.77
7120,-3.8745,-0.1437,-0.9672,1789.31,249.69,-1314.39
7130,-3.8745,-0.1453,-0.9663,1617.43,218.44,-1345.64
7140,-3.8745,-0.1465,-0.9664,1414.31,327.82,-1439.39
7150,-3.8745,-0.1466,-0.9677,1258.06,312.19,-1642.52
7160,-3.8745,-0.1456,-0.9688,1242.43,155.94,-1908.14
7170,-3.8745,-0.1453,-0.9690,1367.43,15.32,-1892.52
7180,-3.8745,-0.1467,-0.9681,1414.31,-15.93,-1580.08
7190,-3.8745,-0.1486,-0.9661,1226.81,93.44,-1189.39
7200,-3.8745,-0.1487,-0.9630,992.43,359.07,-923.77
7210,-3.8745,-0.1471,-0.9601,976.81,749.69,-1048.77
7220,-3.8745,-0.1442,-0.9585,1179.93,1124.69,-1501.89
7230,-3.8745,-0.1409,-0.9591,1554.93,1327.82,-1939.39
7240,-3.8745,-0.1388,-0.9614,1976.81,1249.69,1810.61
7250,-3.8745,-0.1388,-0.9637,-1757.57,952.82,1841.86
7260,-3.8745,-0.1398,-0.9653,-1757.57,655.94,-1970.64
7270,-3.8745,-0.1410,-0.9667,-1882.57,452.82,-1783.14
7280,-3.8745,-0.1425,-0.9668,1961.18,280.94,-1564.39
7290,-3.8745,-0.1442,-0.9657,1773.68,265.32,-1501.89
7300,-3.8745,-0.1450,-0.9645,1554.93,405.94,-1564.39
7310,-3.8745,-0.1453,-0.9637,1445.56,562.19,-1720.64
7320,-3.8745,-0.1448,-0.9634,1414.31,655.94,-1861.27
7330,-3.8745,-0.1434,-0.9645,1476.81,702.82,-1892.52
7340,-3.8745,-0.1427,-0.9659,1648.68,562.19,-1814.39
7350,-3.8745,-0.1436,-0.9664,1742.43,374.69,-1548.77
7360,-3.8745,-0.1454,-0.9658,1633.06,312.19,-1220.64
7370,-3.8745,-0.1475,-0.9648,1398.68,390.32,-1111.27
7380,-3.8745,-0.1487,-0.9645,1133.06,515.32,-1298.77
7390,-3.8745,-0.1479,-0.9652,976.81,562.19,-1642.52
7400,-3.8745,-0.1449,-0.9657,1070.56,468.44,-1970.64
7410,-3.8745,-0.1415,-0.9658,1461.18,405.94,1841.86
7420,-3.8745,-0.1401,-0.9656,1898.68,390.32,1888.73
7430,-3.8745,-0.1416,-0.9646,-1929.44,421.57,-1861.27
7440,-3.8745,-0.1436,-0.9641,1883.06,546.57,-1501.89
7450,-3.8745,-0.1449,-0.9647,1633.06,609.07,-1220.64
7460,-3.8745,-0.1459,-0.9659,1461.18,530.94,-1126.89
7470,-3.8745,-0.1455,-0.9664,1336.18,374.69,-1283.14
7480,-3.8745,-0.1444,-0.9655,1383.06,312.19,-1564.39
7490,-3.8745,-0.1438,-0.9650,1523.68,437.19,-1845.64
7500,-3.8745,-0.1434,-0.9657,1601.81,499.69,1919.98
7510,-3.8745,-0.1436,-0.9664,1648.68,405.94,1873.11
7520,-3.8745,-0.1440,-0.9669,1633.06,312.19,-1970.64
7530,-3.8745,-0.1443,-0.9667,1570.56,249.69,-1720.64
7540,-3.8745,-0.1439,-0.9655,1539.31,280.94,-1533.14
7550,-3.8745,-0.1429,-0.9648,1586.18,437.19,-1501.89
7560,-3.8745,-0.1427,-0.9647,1711.18,515.32,-1439.39
7570,-3.8745,-0.1431,-0.9637,1742.43,530.94,-1423.77
7580,-3.8745,-0.1437,-0.9625,1695.56,655.94,-1658.14
7590,-3.8745,-0.1434,-0.9624,1617.43,812.19,-1955.02
7600,-3.8745,-0.1420,-0.9631,1648.68,827.82,1873.11
7610,-3.8745,-0.1411,-0.9641,1836.18,734.07,1904.36
7620,-3.8745,-0.1414,-0.9645,1945.56,609.07,-1923.77
7630,-3.8745,-0.1426,-0.9642,1914.31,562.19,-1767.52
7640,-3.8745,-0.1453,-0.9639,1758.06,593.44,-1736.27
7650,-3.8745,-0.1483,-0.9635,1414.31,640.32,-1658.14
7660,-3.8745,-0.1498,-0.9634,1023.68,687.19,-1611.27
7670,-3.8745,-0.1492,-0.9644,836.18,702.82,-1705.02
7680,-3.8745,-0.1475,-0.9666,914.31,577.82,-1845.64
7690,-3.8745,-0.1456,-0.9683,1133.06,296.57,-1939.39
7700,-3.8745,-0.1438,-0.9679,1367.43,77.82,-1814.39
7710,-3.8745,-0.1417,-0.9668,1601.81,124.69,-1642.52
7720,-3.8745,-0.1414,-0.9663,1867.43,265.32,-1486.27
7730,-3.8745,-0.1421,-0.9658,1914.31,327.82,-1439.39
7740,-3.8745,-0.1426,-0.9656,1820.56,390.32,-1564.39
7750,-3.8745,-0.1427,-0.9658,1758.06,421.57,-1751.89
7760,-3.8745,-0.1423,-0.9656,1742.43,390.32,-1939.39
7770,-3.8745,-0.1423,-0.9647,1789.31,421.57,-1955.02
7780,-3.8745,-0.1438,-0.9639,1789.31,530.94,-1923.77
7790,-3.8745,-0.1465,-0.9633,1601.81,640.32,-1845.64
7800,-3.8745,-0.1493,-0.9622,1258.06,718.44,-1845.64
7810,-3.8745,-0.1492,-0.9617,898.68,859.07,1904.36
7820,-3.8745,-0.1459,-0.9628,914.31,921.57,1654.36
7830,-3.8745,-0.1426,-0.9648,1336.18,780.94,1560.61
7840,-3.8745,-0.1414,-0.9669,1758.06,515.32,1701.23
7850,-3.8745,-0.1421,-0.9679,1914.31,249.69,1966.86
7860,-3.8745,-0.1456,-0.9675,1820.56,124.69,-1845.64
7870,-3.8745,-0.1500,-0.9663,1367.43,171.57,-1736.27
7880,-3.8745,-0.1520,-0.9644,804.93,327.82,-1705.02
7890,-3.8745,-0.1505,-0.9628,554.93,577.82,-1861.27
7900,-3.8745,-0.1470,-0.9628,742.43,780.94,1873.11
7910,-3.8745,-0.1436,-0.9636,1195.56,780.94,1607.48
7920,-3.8745,-0.1415,-0.9642,1633.06,671.57,1482.48
7930,-3.8745,-0.1410,-0.9656,1898.68,593.44,1560.61
7940,-3.8745,-0.1418,-0.9669,1961.18,421.57,1810.61
7950,-3.8745,-0.1431,-0.9672,1851.81,249.69,-1830.02
7960,-3.8745,-0.1437,-0.9677,1695.56,218.44,-1470.64
7970,-3.8745,-0.1451,-0.9694,1617.43,155.94,-1298.77
7980,-3.8745,-0.1477,-0.9707,1429.93,-62.81,-1408.20
7990,-3.8745,-0.1498,-0.9706,1101.81,-234.68,-1767.58
8000,-3.8745,-0.1509,-0.9692,836.18,-219.06,1873.05
8010,-3.8745,-0.1506,-0.9678,695.56,-47.18,1794.92
8020,-3.8745,-0.1497,-0.9672,726.81,140.32,1998.11
8030,-3.8745,-0.1494,-0.9658,851.81,218.44,-1783.14
8040,-3.8745,-0.1489,-0.9629,883.06,390.32,-1845.64
8050,-3.8745,-0.1472,-0.9603,945.56,765.32,1810.61
8060,-3.8745,-0.1451,-0.9589,1164.31,1093.44,1388.73
8070,-3.8745,-0.1439,-0.9585,1429.93,1280.94,1107.48
8080,-3.8745,-0.1438,-0.9596,1586.18,1327.82,1029.36
8090,-3.8745,-0.1453,-0.9623,1601.81,1187.19,1060.61
8100,-3.8745,-0.1477,-0.9651,1414.31,843.44,1138.73
8110,-3.8745,-0.1486,-0.9674,1101.81,484.07,1373.11
8120,-3.8745,-0.1470,-0.9694,992.43,187.19,1888.73
8130,-3.8745,-0.1455,-0.9700,1195.56,-62.81,-1595.70
8140,-3.8745,-0.1458,-0.9694,1383.06,-140.93,-1330.08
8150,-3.8745,-0.1470,-0.9689,1351.81,-62.81,-1486.33
8160,-3.8745,-0.1481,-0.9690,1195.56,-0.31,-1923.83
8170,-3.8745,-0.1484,-0.9695,1054.93,-15.93,1716.80
8180,-3.8745,-0.1488,-0.9694,1008.06,-78.43,1576.17
8190,-3.8745,-0.1498,-0.9678,961.18,-62.81,1685.55
8200,-3.8745,-0.1514,-0.9655,836.18,140.32,1966.86
8210,-3.8745,-0.1530,-0.9640,633.06,437.19,-1876.89
8220,-3.8745,-0.1531,-0.9633,429.93,624.69,-1876.89
8230,-3.8745,-0.1516,-0.9619,414.31,718.44,1888.73
8240,-3.8745,-0.1484,-0.9604,601.81,890.32,1357.48
8250,-3.8745,-0.1442,-0.9611,1008.06,1077.82,951.23
8260,-3.8745,-0.1406,-0.9639,1554.93,999.69,935.61
8270,-3.8745,-0.1401,-0.9668,-1991.94,640.32,1294.98
8280,-3.8745,-0.1432,-0.9689,-1929.44,265.32,1888.73
8290,-3.8745,-0.1478,-0.9703,1679.93,-0.31,-1642.58
8300,-3.8745,-0.1519,-0.9706,1086.18,-187.81,-1439.45
8310,-3.8745,-0.1534,-0.9695,570.56,-219.06,-1439.45
8320,-3.8745,-0.1522,-0.9673,367.43,-78.43,-1501.95
8330,-3.8745,-0.1500,-0.9653,523.68,202.82,-1673.77
8340,-3.8745,-0.1478,-0.9639,804.93,452.82,1998.11
8350,-3.8745,-0.1458,-0.9633,1086.18,640.32,1716.86
8360,-3.8745,-0.1444,-0.9629,1351.81,718.44,1576.23
8370,-3.8745,-0.1428,-0.9619,1523.68,765.32,1482.48
8380,-3.8745,-0.1426,-0.9612,1726.81,890.32,1404.36
8390,-3.8745,-0.1437,-0.9617,1758.06,984.07,1482.48
8400,-3.8745,-0.1449,-0.9626,1617.43,921.57,1779.36
8410,-3.8745,-0.1460,-0.9634,1461.18,796.57,-1923.77
8420,-3.8745,-0.1465,-0.9644,1320.56,702.82,-1814.39
8430,-3.8745,-0.1464,-0.9658,1258.06,577.82,-1955.02
8440,-3.8745,-0.1467,-0.9673,1273.68,390.32,1998.11
8450,-3.8745,-0.1483,-0.9678,1226.81,202.82,-1861.27
8460,-3.8745,-0.1499,-0.9672,1023.68,140.32,-1658.14
8470,-3.8745,-0.1504,-0.9662,820.56,218.44,-1673.77
8480,-3.8745,-0.1504,-0.9655,758.06,343.44,-1986.27
8490,-3.8745,-0.1498,-0.9656,758.06,437.19,1779.36
8500,-3.8745,-0.1477,-0.9657,836.18,421.57,1810.61
8510,-3.8745,-0.1455,-0.9656,1101.81,405.94,1951.23
8520,-3.8745,-0.1443,-0.9656,1383.06,421.57,-1955.02
8530,-3.8745,-0.1440,-0.9647,1539.31,421.57,-1876.89
8540,-3.8745,-0.1451,-0.9634,1570.56,530.94,-1814.39
8550,-3.8745,-0.1465,-0.9633,1429.93,702.82,-1845.64
8560,-3.8745,-0.1473,-0.9640,1258.06,718.44,-1986.27
8570,-3.8745,-0.1476,-0.9650,1148.68,624.69,1779.36
8580,-3.8745,-0.1469,-0.9657,1117.43,499.69,1638.73
8590,-3.8745,-0.1453,-0.9664,1211.18,405.94,1701.23
8600,-3.8745,-0.1447,-0.9667,1414.31,312.19,1904.36
8610,-3.8745,-0.1459,-0.9659,1492.43,280.94,-1908.14
8620,-3.8745,-0.1470,-0.9650,1336.18,374.69,-1908.14
8630,-3.8745,-0.1461,-0.9645,1195.56,499.69,-1986.27
8640,-3.8745,-0.1445,-0.9646,1304.93,562.19,1966.86
8650,-3.8745,-0.1437,-0.9652,1508.06,546.57,1919.98
8660,-3.8745,-0.1438,-0.9663,1617.43,468.44,1826.23
8670,-3.8745,-0.1449,-0.9663,1601.81,327.82,1732.48
8680,-3.8745,-0.1459,-0.9651,1461.18,327.82,1701.23
8690,-3.8745,-0.1456,-0.9640,1336.18,484.07,1685.61
8700,-3.8745,-0.1458,-0.9631,1367.43,624.69,1763.73
8710,-3.8745,-0.1469,-0.9626,1351.81,734.07,1888.73
8720,-3.8745,-0.1477,-0.9624,1211.18,796.57,1935.61
8730,-3.8745,-0.1481,-0.9628,1101.81,827.82,-1970.64
8740,-3.8745,-0.1483,-0.9634,1054.93,780.94,-1892.52
8750,-3.8745,-0.1483,-0.9647,1023.68,702.82,-1923.77
8760,-3.8745,-0.1481,-0.9666,1023.68,530.94,1998.11
8770,-3.8745,-0.1467,-0.9686,1054.93,296.57,-1986.27
8780,-3.8745,-0.1449,-0.9700,1226.81,30.94,-1845.64
8790,-3.8745,-0.1443,-0.9695,1461.18,-140.93,-1689.45
8800,-3.8745,-0.1448,-0.9678,1539.31,-78.43,-1470.70
8810,-3.8745,-0.1455,-0.9659,1476.81,140.32,-1267.52
8820,-3.8745,-0.1464,-0.9644,1383.06,374.69,-1283.14
8830,-3.8745,-0.1477,-0.9633,1273.68,577.82,-1533.14
8840,-3.8745,-0.1489,-0.9619,1101.81,718.44,-1845.64
8850,-3.8745,-0.1492,-0.9606,945.56,890.32,1982.48
8860,-3.8745,-0.1483,-0.9603,914.31,1062.19,1904.36
8870,-3.8745,-0.1477,-0.9617,1023.68,1093.44,1826.23
8880,-3.8745,-0.1476,-0.9636,1101.81,921.57,1763.73
8890,-3.8745,-0.1465,-0.9647,1117.43,671.57,1748.11
8900,-3.8745,-0.1451,-0.9652,1258.06,530.94,1701.23
8910,-3.8745,-0.1439,-0.9658,1429.93,468.44,1701.23
8920,-3.8745,-0.1426,-0.9661,1586.18,390.32,1873.11
8930,-3.8745,-0.1421,-0.9655,1758.06,359.07,-1861.27
8940,-3.8745,-0.1427,-0.9645,1820.56,437.19,-1626.89
8950,-3.8745,-0.1450,-0.9633,1742.43,562.19,-1580.02
8960,-3.8745,-0.1475,-0.9623,1445.56,718.44,-1673.77
8970,-3.8745,-0.1490,-0.9624,1133.06,843.44,-1751.89
8980,-3.8745,-0.1501,-0.9635,929.93,827.82,-1830.02
8990,-3.8745,-0.1499,-0.9651,789.31,687.19,-1830.02
9000,-3.8745,-0.1492,-0.9664,820.56,484.07,-1814.39
9010,-3.8745,-0.1503,-0.9669,914.31,312.19,-1955.02
9020,-3.8745,-0.1520,-0.9663,773.68,249.69,1982.48
9030,-3.8745,-0.1519,-0.9655,554.93,327.82,-1986.27
9040,-3.8745,-0.1494,-0.9647,570.56,437.19,-1970.64
9050,-3.8745,-0.1451,-0.9644,883.06,530.94,-1923.77
9060,-3.8745,-0.1410,-0.9655,1429.93,577.82,-1861.27
9070,-3.8745,-0.1389,-0.9674,1961.18,437.19,-1751.89
9080,-3.8745,-0.1399,-0.9677,-1773.19,187.19,-1689.39
9090,-3.8745,-0.1436,-0.9664,-1898.19,155.94,-1689.39
9100,-3.8745,-0.1479,-0.9650,1633.06,312.19,-1845.64
9110,-3.8745,-0.1512,-0.9633,1070.56,499.69,1982.48
9120,-3.8745,-0.1525,-0.9623,648.68,718.44,1935.61
9130,-3.8745,-0.1523,-0.9626,492.43,843.44,1966.86
9140,-3.8745,-0.1510,-0.9639,508.06,796.57,-1970.64
9150,-3.8745,-0.1481,-0.9653,679.93,640.32,-1955.02
9160,-3.8745,-0.1462,-0.9658,1054.93,452.82,-1908.14
9170,-3.8745,-0.1456,-0.9656,1289.31,390.32,-1861.27
9180,-3.8745,-0.1450,-0.9646,1367.43,421.57,-1814.39
9190,-3.8745,-0.1449,-0.9639,1445.56,546.57,-1767.52
9200,-3.8745,-0.1450,-0.9639,1461.18,640.32,-1767.52
9210,-3.8745,-0.1458,-0.9641,1445.56,640.32,-1876.89
9220,-3.8745,-0.1464,-0.9641,1351.81,609.07,1966.86
9230,-3.8745,-0.1469,-0.9642,1273.68,609.07,1841.86
9240,-3.8745,-0.1482,-0.9645,1211.18,593.44,1794.98
9250,-3.8745,-0.1495,-0.9646,1039.31,562.19,1873.11
9260,-3.8745,-0.1493,-0.9647,867.43,546.57,-1970.64
9270,-3.8745,-0.1478,-0.9648,898.68,530.94,-1783.14
9280,-3.8745,-0.1467,-0.9642,1086.18,515.32,-1689.39
9290,-3.8745,-0.1464,-0.9639,1226.81,593.44,-1783.14
9300,-3.8745,-0.1475,-0.9644,1273.68,640.32,-1986.27
9310,-3.8745,-0.1488,-0.9652,1133.06,577.82,1904.36
9320,-3.8745,-0.1490,-0.9658,961.18,468.44,1966.86
9330,-3.8745,-0.1487,-0.9657,929.93,390.32,-1798.77
9340,-3.8745,-0.1489,-0.9658,976.81,405.94,-1580.02
9350,-3.8745,-0.1488,-0.9658,945.56,390.32,-1564.39
9360,-3.8745,-0.1483,-0.9652,961.18,390.32,-1720.64
9370,-3.8745,-0.1477,-0.9651,1023.68,468.44,-1861.27
9380,-3.8745,-0.1472,-0.9659,1101.81,484.07,-1908.14
9390,-3.8745,-0.1465,-0.9666,1164.31,374.69,-1908.14
9400,-3.8745,-0.1459,-0.9661,1258.06,296.57,-1923.77
9410,-3.8745,-0.1470,-0.9648,1336.18,359.07,-1908.14
9420,-3.8745,-0.1486,-0.9636,1195.56,515.32,-1908.14
9430,-3.8745,-0.1484,-0.9634,992.43,671.57,1966.86
9440,-3.8745,-0.1475,-0.9636,1008.06,702.82,1841.86
9450,-3.8745,-0.1469,-0.9642,1133.06,671.57,1794.98
9460,-3.8745,-0.1461,-0.9653,1211.18,593.44,1826.23
9470,-3.8745,-0.1459,-0.9657,1304.93,452.82,1919.98
9480,-3.8745,-0.1467,-0.9652,1336.18,405.94,1951.23
9490,-3.8745,-0.1483,-0.9650,1226.81,468.44,-1970.64
9500,-3.8745,-0.1498,-0.9647,1023.68,499.69,-1908.14
9510,-3.8745,-0.1492,-0.9650,836.18,530.94,-1939.39
9520,-3.8745,-0.1472,-0.9651,914.31,499.69,-1876.89
9530,-3.8745,-0.1460,-0.9650,1164.31,484.07,-1783.14
9540,-3.8745,-0.1459,-0.9651,1320.56,499.69,-1830.02
9550,-3.8745,-0.1469,-0.9647,1336.18,484.07,-1923.77
9560,-3.8745,-0.1484,-0.9641,1211.18,530.94,1951.23
9570,-3.8745,-0.1495,-0.9640,1008.06,609.07,1794.98
9580,-3.8745,-0.1495,-0.9651,867.43,624.69,1716.86
9590,-3.8745,-0.1495,-0.9655,867.43,484.07,1779.36
9600,-3.8745,-0.1493,-0.9641,867.43,437.19,1841.86
9610,-3.8745,-0.1486,-0.9625,898.68,609.07,1888.73
9620,-3.8745,-0.1478,-0.9620,992.43,812.19,-1923.77
9630,-3.8745,-0.1475,-0.9636,1086.18,874.69,-1767.52
9640,-3.8745,-0.1475,-0.9651,1133.06,671.57,-1705.02
9650,-3.8745,-0.1479,-0.9652,1133.06,484.07,-1751.89
9660,-3.8745,-0.1484,-0.9655,1070.56,468.44,-1830.02
9670,-3.8745,-0.1476,-0.9664,1008.06,437.19,-1876.89
9680,-3.8745,-0.1466,-0.9679,1117.43,312.19,-1923.77
9690,-3.8745,-0.1467,-0.9695,1242.43,124.69,-1955.02
9700,-3.8745,-0.1478,-0.9691,1226.81,-78.43,-1923.83
9710,-3.8745,-0.1483,-0.9672,1086.18,-31.56,-1705.08
9720,-3.8745,-0.1484,-0.9647,1023.68,218.44,-1533.14
9730,-3.8745,-0.1479,-0.9617,1008.06,530.94,-1626.89
9740,-3.8745,-0.1475,-0.9592,1070.56,921.57,-1798.77
9750,-3.8745,-0.1464,-0.9584,1133.06,1234.07,-1955.02
9760,-3.8745,-0.1453,-0.9596,1273.68,1343.44,1873.11
9770,-3.8745,-0.1458,-0.9624,1414.31,1187.19,1607.48
9780,-3.8745,-0.1471,-0.9650,1351.81,827.82,1404.36
9790,-3.8745,-0.1477,-0.9663,1179.93,499.69,1560.61
9800,-3.8745,-0.1477,-0.9664,1101.81,327.82,1935.61
9810,-3.8745,-0.1476,-0.9666,1101.81,312.19,-1673.77
9820,-3.8745,-0.1472,-0.9664,1117.43,296.57,-1439.39
9830,-3.8745,-0.1461,-0.9657,1164.31,312.19,-1501.89
9840,-3.8745,-0.1450,-0.9650,1304.93,405.94,-1689.39
9850,-3.8745,-0.1449,-0.9639,1445.56,499.69,-1923.77
9860,-3.8745,-0.1469,-0.9626,1461.18,640.32,1951.23
9870,-3.8745,-0.1498,-0.9622,1211.18,796.57,-1970.64
9880,-3.8745,-0.1509,-0.9629,836.18,859.07,-1892.52
9890,-3.8745,-0.1503,-0.9637,695.56,765.32,-1876.89
9900,-3.8745,-0.1497,-0.9644,773.68,655.94,-1908.14
9910,-3.8745,-0.1501,-0.9641,851.81,577.82,1966.86
9920,-3.8745,-0.1500,-0.9631,789.31,609.07,1732.48
9930,-3.8745,-0.1482,-0.9631,804.93,734.07,1669.98
9940,-3.8745,-0.1449,-0.9645,1039.31,734.07,1748.11
9950,-3.8745,-0.1412,-0.9661,1461.18,562.19,1919.98
9960,-3.8745,-0.1389,-0.9670,1929.93,359.07,-1830.02
9970,-3.8745,-0.1400,-0.9684,-1773.19,234.07,-1642.52
9980,-3.8745,-0.1438,-0.9701,-1913.82,62.19,-1580.02
9990,-3.8745,-0.1475,-0.9712,1601.81,-156.56,-1642.58
10000,-3.8745,-0.1494,-0.9707,1133.06,-297.18,-1876.95
10010,-3.8745,-0.1489,-0.9684,883.06,-234.68,1607.42
10020,-3.8745,-0.1471,-0.9656,945.56,62.19,904.36
10030,-3.8745,-0.1448,-0.9624,1179.93,421.57,279.36
10040,-3.8746,-0.1431,-0.9578,1476.81,827.82,-173.77
10050,-3.8746,-0.1410,-0.9536,1695.56,1421.57,-283.14
10060,-3.8746,-0.1388,-0.9521,1961.18,1952.82,-17.52
10070,-3.8745,-0.1392,-0.9521,-1757.57,-1859.68,669.98
10080,-3.8745,-0.1423,-0.9546,-1804.44,-1859.68,1779.36
10090,-3.8745,-0.1472,-0.9595,1789.31,1827.82,-876.89
10100,-3.8744,-0.1533,-0.9657,1164.31,1202.82,388.73
10110,-3.8744,-0.1591,-0.9724,383.06,405.94,1419.98
10120,-3.8744,-0.1626,-0.9773,-351.32,-453.49,-1767.58
10130,-3.8744,-0.1641,-0.9784,-804.44,-1078.49,-1220.70
10140,-3.8744,-0.1654,-0.9773,-991.94,-1219.12,-1158.20
10150,-3.8744,-0.1677,-0.9768,-1163.82,-1078.49,-1845.70
10160,-3.8744,-0.1705,-0.9764,-1460.69,-1015.99,591.80
10170,-3.8745,-0.1721,-0.9738,-1820.07,-969.12,-1298.83
10180,-3.8745,-0.1714,-0.9691,1976.81,-625.37,1216.80
10190,-3.8745,-0.1680,-0.9639,-1929.44,-31.62,373.05
10200,-3.8745,-0.1614,-0.9589,-1491.94,640.26,107.48
10210,-3.8745,-0.1519,-0.9561,-648.19,1280.88,185.61
10220,-3.8745,-0.1396,-0.9558,570.56,1640.32,357.48
10230,-3.8745,-0.1274,-0.9565,-1866.94,1671.57,310.61
10240,-3.8746,-0.1171,-0.9565,-304.44,1577.82,-17.52
10250,-3.8746,-0.1108,-0.9567,1023.68,1577.88,-236.27
10260,-3.8746,-0.1111,-0.9579,1820.56,1562.26,-205.02
10270,-3.8746,-0.1151,-0.9589,1789.31,1406.01,-33.14
10280,-3.8745,-0.1198,-0.9586,1273.68,1281.01,248.11
10290,-3.8745,-0.1263,-0.9583,679.93,1312.26,591.86
10300,-3.8745,-0.1361,-0.9598,-163.82,1359.07,951.23
10310,-3.8745,-0.1475,-0.9637,-1413.82,1155.94,1310.61
10320,-3.8745,-0.1566,-0.9674,1133.06,655.94,1623.11
10330,-3.8745,-0.1625,-0.9698,-38.82,187.13,1919.98
10340,-3.8745,-0.1661,-0.9719,-788.82,-125.37,-1814.45
10350,-3.8745,-0.1677,-0.9736,-1257.57,-390.99,-1455.08
10360,-3.8745,-0.1674,-0.9742,-1460.69,-609.74,-1048.83
10370,-3.8745,-0.1653,-0.9730,-1413.82,-687.87,-830.08
10380,-3.8745,-0.1609,-0.9709,-1148.19,-531.62,-845.70
10390,-3.8745,-0.1545,-0.9691,-585.69,-265.99,-970.70
10400,-3.8745,-0.1483,-0.9670,226.81,-31.56,-1220.70
10410,-3.8745,-0.1439,-0.9648,1023.68,234.07,-1533.14
10420,-3.8745,-0.1420,-0.9628,1586.18,515.32,-1845.64
10430,-3.8745,-0.1427,-0.9611,1836.18,780.94,1935.61
10440,-3.8745,-0.1443,-0.9598,1742.43,999.69,1763.73
10450,-3.8745,-0.1461,-0.9590,1539.31,1155.94,1544.98
10460,-3.8745,-0.1483,-0.9595,1304.93,1265.32,1373.11
10470,-3.8745,-0.1504,-0.9603,1023.68,1202.82,1373.11
10480,-3.8745,-0.1520,-0.9612,758.06,1093.44,1357.48
10490,-3.8745,-0.1523,-0.9624,554.93,984.07,1388.73
10500,-3.8745,-0.1519,-0.9645,508.06,827.82,1623.11
10510,-3.8745,-0.1499,-0.9679,570.56,562.19,1998.11
10520,-3.8745,-0.1470,-0.9703,820.56,124.69,-1720.64
10530,-3.8745,-0.1442,-0.9701,1195.56,-187.81,-1611.33
10540,-3.8745,-0.1428,-0.9675,1554.93,-156.56,-1642.58
10550,-3.8745,-0.1436,-0.9647,1726.81,171.57,-1814.39
10560,-3.8745,-0.1459,-0.9625,1633.06,530.94,1888.73
10570,-3.8745,-0.1492,-0.9607,1336.18,812.19,1513.73
10580,-3.8745,-0.1530,-0.9608,914.31,1046.57,1419.98
10590,-3.8745,-0.1567,-0.9626,429.93,1030.94,1685.61
10600,-3.8745,-0.1600,-0.9642,-54.44,796.51,-1908.14
10610,-3.8745,-0.1631,-0.9658,-476.32,593.38,-1611.27
10620,-3.8745,-0.1649,-0.9670,-866.94,390.26,-1626.89
10630,-3.8745,-0.1637,-0.9670,-1101.32,234.01,-1923.77
10640,-3.8745,-0.1583,-0.9669,-945.07,234.01,1732.48
10650,-3.8745,-0.1499,-0.9669,-257.57,249.63,1529.36
10660,-3.8745,-0.1422,-0.9667,820.56,249.69,1451.23
10670,-3.8745,-0.1375,-0.9655,1804.93,280.94,1419.98
10680,-3.8745,-0.1367,-0.9629,-1585.69,437.19,1357.48
10690,-3.8745,-0.1382,-0.9609,-1491.94,765.32,1326.23
10700,-3.8745,-0.1403,-0.9602,-1679.44,1015.32,1404.36
10710,-3.8745,-0.1432,-0.9596,-1945.07,1109.07,1482.48
10720,-3.8745,-0.1473,-0.9594,1679.93,1187.19,1388.73
10730,-3.8745,-0.1522,-0.9600,1148.68,1218.44,1185.61
10740,-3.8745,-0.1560,-0.9611,523.68,1140.32,951.23
10750,-3.8745,-0.1578,-0.9624,39.31,999.69,716.86
10760,-3.8745,-0.1573,-0.9645,-195.07,827.76,669.98
10770,-3.8745,-0.1558,-0.9668,-132.57,562.13,1044.98
10780,-3.8745,-0.1548,-0.9684,70.56,265.32,1779.36
10790,-3.8745,-0.1556,-0.9700,195.56,62.19,-1548.77
10800,-3.8745,-0.1575,-0.9716,86.18,-140.93,-1267.58
10810,-3.8745,-0.1589,-0.9727,-148.19,-344.12,-1236.33
10820,-3.8745,-0.1593,-0.9727,-335.69,-484.74,-1439.45
10830,-3.8745,-0.1571,-0.9709,-382.57,-484.74,-1845.70
10840,-3.8745,-0.1534,-0.9683,-101.32,-265.99,1810.55
10850,-3.8745,-0.1504,-0.9646,367.43,77.82,1669.98
10860,-3.8745,-0.1490,-0.9607,758.06,546.57,1685.61
10870,-3.8745,-0.1499,-0.9585,929.93,1046.57,1810.61
10880,-3.8745,-0.1519,-0.9585,820.56,1327.82,1763.73
10890,-3.8745,-0.1534,-0.9590,570.56,1327.82,1341.86
10900,-3.8745,-0.1545,-0.9596,367.43,1265.32,951.23
10910,-3.8745,-0.1547,-0.9604,226.81,1187.19,951.23
10920,-3.8745,-0.1542,-0.9614,211.18,1077.82,1154.36
10930,-3.8745,-0.1541,-0.9623,273.68,952.82,1404.36
10940,-3.8745,-0.1543,-0.9641,289.31,843.44,1591.86
10950,-3.8745,-0.1556,-0.9662,258.06,609.07,1638.73
10960,-3.8745,-0.1569,-0.9680,86.18,343.44,1591.86
10970,-3.8745,-0.1556,-0.9688,-70.07,109.01,1544.98
10980,-3.8745,-0.1522,-0.9686,86.18,15.32,1779.36
10990,-3.8745,-0.1489,-0.9689,523.68,30.94,-1767.52
11000,-3.8745,-0.1484,-0.9681,945.56,-0.31,-1455.08
11010,-3.8745,-0.1522,-0.9655,1008.06,93.44,-1298.77
11020,-3.8745,-0.1575,-0.9624,523.68,437.19,-1361.27
11030,-3.8745,-0.1613,-0.9608,-148.19,827.76,-1783.14
11040,-3.8745,-0.1626,-0.9604,-632.57,1030.88,1763.73
11050,-3.8745,-0.1616,-0.9618,-804.44,1077.76,1419.98
11060,-3.8745,-0.1591,-0.9646,-679.44,905.88,1263.73
11070,-3.8745,-0.1565,-0.9668,-351.32,546.51,1341.86
11080,-3.8745,-0.1554,-0.9678,-23.19,265.26,1404.36
11090,-3.8745,-0.1552,-0.9679,117.43,140.32,1357.48
11100,-3.8745,-0.1541,-0.9681,148.68,124.69,1248.11
11110,-3.8745,-0.1530,-0.9685,289.31,93.44,1294.98
11120,-3.8745,-0.1547,-0.9667,429.93,46.57,1654.36
11130,-3.8745,-0.1597,-0.9641,211.18,280.94,-1673.77
11140,-3.8745,-0.1663,-0.9637,-429.44,609.01,-642.52
11150,-3.8744,-0.1714,-0.9659,-1273.19,655.88,685.61
11160,-3.8744,-0.1700,-0.9707,-1929.44,374.63,-1814.39
11170,-3.8744,-0.1637,-0.9785,-1757.57,-234.74,-564.45
11180,-3.8744,-0.1548,-0.9885,-945.07,-1234.74,-298.83
11190,-3.8744,-0.1398,-0.9976,195.56,1484.07,-892.58
11200,-3.8744,-0.1206,-1.0052,-1882.57,327.82,-1626.95
11210,-3.8744,-0.1083,-1.0118,570.56,-656.49,1935.49
11220,-3.8744,-0.1071,-1.0186,-1851.32,-1500.24,1935.49
11230,-3.8744,-0.1138,-1.0271,-1695.07,1640.38,-1955.14
11240,-3.8744,-0.1249,-1.0365,1445.56,546.63,1919.86
11250,-3.8744,-0.1321,-1.0398,23.68,-656.49,1435.42
11260,-3.8744,-0.1266,-1.0289,-898.19,-1078.43,826.05
11270,-3.8744,-0.1134,-1.0071,-195.07,312.19,747.99
11280,-3.8744,-0.1042,-0.9843,1492.43,-890.87,1326.11
11290,-3.8744,-0.1042,-0.9639,-1335.69,-1968.99,1466.80
11300,-3.8744,-0.1128,-0.9460,-1335.69,640.38,466.86
11310,-3.8745,-0.1265,-0.9338,1570.56,-1078.37,-1423.77
11320,-3.8745,-0.1332,-0.9216,-179.44,484.07,310.67
11330,-3.8746,-0.1205,-0.9067,-1038.82,-1953.43,-1158.08
11340,-3.8746,-0.0928,-0.8966,586.18,-47.12,-595.58
11350,-3.8745,-0.0692,-0.8925,133.06,1249.82,1888.85
11360,-3.8744,-0.0682,-0.8906,-851.32,1781.07,779.48
11370,-3.8744,-0.0916,-0.8918,-726.32,-1984.56,-1501.77
11380,-3.8744,-0.1255,-0.8990,289.31,1859.19,-1470.52
11390,-3.8744,-0.1536,-0.9135,-54.44,937.19,1482.60
11400,-3.8744,-0.1628,-0.9341,351.81,-906.56,685.67
11410,-3.8744,-0.1522,-0.9554,-835.69,452.76,1123.17
11420,-3.8744,-0.1373,-0.9707,523.68,1718.44,-1001.89
11430,-3.8743,-0.1315,-0.9788,-1570.07,-234.68,1873.05
11440,-3.8741,-0.1323,-0.9816,-820.07,-1265.93,138.67
11450,-3.8741,-0.1357,-0.9801,-929.44,-1625.31,607.42
11460,-3.8743,-0.1385,-0.9767,-1366.94,-1437.81,-361.33
11470,-3.8743,-0.1335,-0.9745,-1726.32,-1000.31,-1705.08
11480,-3.8743,-0.1149,-0.9727,-1085.69,-719.06,1404.30
11490,-3.8743,-0.0903,-0.9686,1304.93,-484.62,1326.17
11500,-3.8743,-0.0731,-0.9615,445.56,31.07,1966.86
11510,-3.8743,-0.0712,-0.9535,-1351.32,937.32,-1251.89
11520,-3.8743,-0.0854,-0.9476,-1101.32,1968.57,-1158.14
11530,-3.8743,-0.1074,-0.9440,1070.56,-1281.43,1966.86
11540,-3.8743,-0.1233,-0.9432,-1741.94,-812.74,544.98
11550,-3.8744,-0.1252,-0.9476,226.81,-718.99,-830.02
11560,-3.8744,-0.1163,-0.9548,-23.19,-1281.56,-1658.14
11570,-3.8744,-0.1051,-0.9601,1117.43,1796.63,-1658.14
11580,-3.8744,-0.0974,-0.9619,-1445.07,1124.76,-1142.52
11590,-3.8744,-0.0946,-0.9608,-460.69,890.38,-595.64
11600,-3.8744,-0.0951,-0.9563,-101.32,1031.01,-173.77
11610,-3.8743,-0.0950,-0.9491,-163.82,1609.13,44.98
11620,-3.8744,-0.0895,-0.9402,-148.19,-1468.99,-205.02
11630,-3.8744,-0.0758,-0.9290,554.93,-328.31,-814.39
11640,-3.8744,-0.0569,-0.9222,-1695.07,1109.19,-1189.33
11650,-3.8744,-0.0420,-0.9276,726.81,1968.63,-1376.83
11660,-3.8744,-0.0408,-0.9408,-1366.94,1281.13,-1704.96
11670,-3.8744,-0.0541,-0.9548,-1210.69,-406.37,-1876.89
11680,-3.8744,-0.0729,-0.9697,1086.18,1796.75,-1345.64
11690,-3.8744,-0.0903,-0.9855,-1320.07,-109.56,-64.45
11700,-3.8743,-0.1060,-0.9990,445.56,1874.82,1685.55
11710,-3.8743,-0.1208,-1.0076,-1554.44,140.38,-205.08
11720,-3.8741,-0.1334,-1.0131,539.31,-953.37,1779.24
11730,-3.8741,-0.1410,-1.0172,-1070.07,-1656.56,-939.51
11740,-3.8741,-0.1422,-1.0165,1961.18,1812.19,-517.64
11750,-3.8741,-0.1378,-1.0106,1804.93,1905.94,-814.51
11760,-3.8741,-0.1299,-1.0029,-1632.57,-1344.06,-1752.01
11770,-3.8741,-0.1182,-0.9941,-616.94,-359.68,591.74
11780,-3.8743,-0.1046,-0.9825,883.06,765.38,-1361.33
11790,-3.8743,-0.0911,-0.9672,-1382.57,-1750.24,1185.55
11800,-3.8743,-0.0760,-0.9504,351.81,218.57,638.73
11810,-3.8743,-0.0634,-0.9364,-1726.32,-1640.81,638.73
11820,-3.8743,-0.0563,-0.9252,-101.32,156.07,513.79
11830,-3.8744,-0.0546,-0.9156,804.93,1593.63,-173.71
11840,-3.8744,-0.0582,-0.9097,1023.68,-1187.62,-1548.71
11850,-3.8744,-0.0635,-0.9093,554.93,-422.00,716.92
11860,-3.8745,-0.0671,-0.9146,-116.94,-375.18,-767.46
11870,-3.8745,-0.0690,-0.9219,-585.69,-1047.06,-1173.71
11880,-3.8745,-0.0702,-0.9293,-820.07,-1984.56,-1.83
11890,-3.8744,-0.0728,-0.9380,-976.32,1062.32,1966.92
11900,-3.8744,-0.0775,-0.9476,-1304.44,-47.06,-283.14
11910,-3.8743,-0.0862,-0.9545,-1913.82,-1281.43,748.11
11920,-3.8743,-0.0981,-0.9572,976.81,1843.57,1029.36
11930,-3.8743,-0.1096,-0.9581,-554.44,1499.76,951.23
11940,-3.8743,-0.1158,-0.9614,1976.81,1374.76,935.61
11950,-3.8743,-0.1154,-0.9686,1179.93,952.88,1310.61
11960,-3.8743,-0.1095,-0.9795,1242.43,31.01,-1751.89
11970,-3.8743,-0.1017,-0.9923,1992.43,-1359.62,-736.33
11980,-3.8743,-0.0951,-1.0044,-1007.57,999.76,-205.08
11990,-3.8743,-0.0873,-1.0057,-163.82,-547.12,-267.64
12000,-3.8743,-0.0768,-0.9972,836.18,-718.93,-486.39
12010,-3.8743,-0.0640,-0.9888,-1820.07,374.82,-658.20
12020,-3.8743,-0.0555,-0.9814,-179.44,1452.94,-986.33
12030,-3.8743,-0.0630,-0.9775,898.68,-1609.50,-1423.83
12040,-3.8743,-0.0851,-0.9740,-54.44,-1109.56,-1861.33
12050,-3.8743,-0.1121,-0.9691,1117.43,-656.43,1388.67
12060,-3.8744,-0.1360,-0.9618,1664.31,-31.49,-48.83
12070,-3.8744,-0.1499,-0.9514,-1398.19,905.94,1919.98
12080,-3.8745,-0.1498,-0.9443,820.56,-1765.93,-48.77
12090,-3.8745,-0.1376,-0.9440,836.18,-859.68,-1283.14
12100,-3.8745,-0.1219,-0.9510,-1601.32,-812.81,-1455.02
12110,-3.8745,-0.1146,-0.9607,398.68,-1718.99,-673.77
12120,-3.8744,-0.1212,-0.9661,1336.18,1046.63,607.48
12130,-3.8744,-0.1381,-0.9633,492.43,359.13,1841.86
12140,-3.8744,-0.1582,-0.9572,-1663.82,718.44,-1283.14
12150,-3.8744,-0.1747,-0.9548,-241.94,1499.63,-751.89
12160,-3.8744,-0.1825,-0.9565,1648.68,1796.51,-626.89
12170,-3.8744,-0.1805,-0.9594,648.68,1577.76,-736.27
12180,-3.8744,-0.1722,-0.9626,898.68,1218.38,-767.52
12190,-3.8744,-0.1633,-0.9661,1961.18,796.51,-736.27
12200,-3.8744,-0.1575,-0.9681,-898.19,359.01,-767.52
12210,-3.8744,-0.1542,-0.9683,-148.19,93.38,-783.14
12220,-3.8744,-0.1532,-0.9666,273.68,77.82,-705.02
12230,-3.8744,-0.1537,-0.9647,398.68,296.57,-626.89
12240,-3.8744,-0.1525,-0.9657,336.18,530.94,-658.14
12250,-3.8744,-0.1473,-0.9690,492.43,405.94,-705.02
12260,-3.8744,-0.1384,-0.9740,1148.68,-15.93,-611.33
12270,-3.8744,-0.1279,-0.9786,-1710.69,-656.56,-376.95
12280,-3.8744,-0.1183,-0.9801,-366.94,-1250.31,-1.95
12290,-3.8743,-0.1100,-0.9781,867.43,-1437.74,529.30
12300,-3.8743,-0.1036,-0.9735,1929.93,-1187.74,1013.67
12310,-3.8743,-0.1001,-0.9684,-1257.57,-593.99,1326.17
12320,-3.8743,-0.0979,-0.9631,-804.44,62.26,1341.86
12330,-3.8743,-0.0957,-0.9583,-523.19,734.13,935.61
12340,-3.8743,-0.0935,-0.9543,-241.94,1359.13,248.11
12350,-3.8744,-0.0924,-0.9518,39.31,1859.19,-517.52
12360,-3.8744,-0.0928,-0.9504,179.93,-1812.68,-1158.14
12370,-3.8744,-0.0942,-0.9498,133.06,-1640.81,-1501.89
12380,-3.8744,-0.0969,-0.9500,-54.44,-1562.74,-1564.39
12390,-3.8744,-0.1003,-0.9501,-398.19,-1578.37,-1501.89
12400,-3.8744,-0.1042,-0.9502,-835.69,-1593.99,-1267.52
12410,-3.8744,-0.1083,-0.9515,-1335.69,-1609.62,-955.02
12420,-3.8744,-0.1132,-0.9535,-1851.32,-1781.49,-720.64
12430,-3.8744,-0.1187,-0.9559,1523.68,1968.51,-626.89
12440,-3.8744,-0.1243,-0.9586,820.56,1656.01,-720.64
12450,-3.8744,-0.1281,-0.9624,101.81,1312.26,-970.64
12460,-3.8744,-0.1284,-0.9688,-382.57,827.82,-1220.64
12470,-3.8744,-0.1257,-0.9761,-429.44,15.32,-1205.02
12480,-3.8744,-0.1228,-0.9828,-85.69,-922.18,-720.70
12490,-3.8743,-0.1207,-0.9865,289.31,-1781.49,154.30
12500,-3.8743,-0.1194,-0.9847,554.93,1749.76,1248.05
12510,-3.8743,-0.1169,-0.9791,726.81,1968.51,-1705.08
12520,-3.8743,-0.1125,-0.9723,1039.31,-1312.74,-1126.95
12530,-3.8743,-0.1085,-0.9659,1601.81,-437.74,-1205.08
12540,-3.8743,-0.1060,-0.9606,-1882.57,374.76,1982.48
12550,-3.8743,-0.1049,-0.9553,-1554.44,1062.26,701.23
12560,-3.8744,-0.1039,-0.9507,-1413.82,1734.13,-689.39
12570,-3.8744,-0.1027,-0.9476,-1288.82,-1672.12,-1861.27
12580,-3.8744,-0.1028,-0.9462,-1132.57,-1281.49,1466.86
12590,-3.8744,-0.1053,-0.9463,-1148.19,-1093.99,1357.48
12600,-3.8744,-0.1104,-0.9479,-1476.32,-1109.62,1513.73
12610,-3.8744,-0.1165,-0.9509,1883.06,-1312.74,1701.23
12620,-3.8744,-0.1233,-0.9542,1101.81,-1703.37,1794.98
12630,-3.8744,-0.1284,-0.9569,226.81,1874.76,1779.36
12640,-3.8744,-0.1305,-0.9594,-429.44,1530.94,1904.36
12650,-3.8744,-0.1289,-0.9620,-695.07,1218.44,-1736.27
12660,-3.8744,-0.1228,-0.9655,-491.94,874.69,-1048.77
12670,-3.8744,-0.1166,-0.9700,289.31,437.26,-345.64
12680,-3.8744,-0.1176,-0.9745,1086.18,-140.87,-142.58
12690,-3.8744,-0.1289,-0.9749,961.18,-718.99,-720.70
12700,-3.8744,-0.1458,-0.9714,-491.94,-765.93,-1892.58
12710,-3.8744,-0.1580,-0.9664,1351.81,-328.43,544.92
12720,-3.8745,-0.1547,-0.9596,-210.69,312.13,-767.52
12730,-3.8745,-0.1340,-0.9525,211.18,1187.19,-783.14
12740,-3.8744,-0.1058,-0.9471,-1148.19,-1906.56,669.98
12750,-3.8744,-0.0835,-0.9447,-1538.82,-1218.99,-1236.27
12760,-3.8743,-0.0739,-0.9447,1320.56,-906.43,326.23
12770,-3.8743,-0.0758,-0.9453,-1445.07,-906.43,763.73
12780,-3.8743,-0.0839,-0.9489,-1695.07,-984.56,263.73
12790,-3.8744,-0.0927,-0.9583,1273.68,-1437.68,-564.39
12800,-3.8744,-0.1016,-0.9706,148.68,1359.19,-1001.89
12810,-3.8744,-0.1097,-0.9797,-991.94,-218.99,-689.45
12820,-3.8743,-0.1149,-0.9844,1961.18,-1390.87,498.05
12830,-3.8743,-0.1180,-0.9868,1304.93,-1984.62,1966.80
12840,-3.8743,-0.1229,-0.9863,898.68,1702.88,-1080.08
12850,-3.8743,-0.1324,-0.9829,273.68,1765.38,-908.20
12860,-3.8743,-0.1437,-0.9789,-945.07,-1797.18,-1611.33
12870,-3.8743,-0.1504,-0.9741,1617.43,-1281.56,904.30
12880,-3.8744,-0.1506,-0.9688,758.06,-672.18,-861.33
12890,-3.8744,-0.1451,-0.9639,726.81,15.32,1623.11
12900,-3.8744,-0.1360,-0.9606,1429.93,640.32,685.61
12910,-3.8744,-0.1277,-0.9592,-1398.19,1062.19,576.23
12920,-3.8744,-0.1263,-0.9614,-335.69,1234.07,1091.86
12930,-3.8744,-0.1334,-0.9641,-163.82,952.82,1873.11
12940,-3.8744,-0.1458,-0.9650,-1070.07,609.07,-1392.52
12950,-3.8744,-0.1570,-0.9639,1351.81,499.69,-1080.02
12960,-3.8744,-0.1561,-0.9618,-85.69,640.26,-986.27
12970,-3.8744,-0.1392,-0.9619,23.68,905.94,-626.89
12980,-3.8743,-0.1130,-0.9646,-1804.44,890.32,185.61
12990,-3.8743,-0.0896,-0.9675,1539.31,546.63,1169.98
13000,-3.8743,-0.0765,-0.9677,539.31,171.69,1685.61
13010,-3.8743,-0.0754,-0.9645,-1788.82,156.07,1388.73
13020,-3.8743,-0.0837,-0.9607,-1648.19,562.32,310.61
13030,-3.8744,-0.0953,-0.9589,1289.31,1046.69,-1158.14
13040,-3.8744,-0.1036,-0.9583,-195.07,1281.01,1685.61
13050,-3.8744,-0.1074,-0.9569,-1257.57,1359.13,1169.98
13060,-3.8744,-0.1096,-0.9551,-1741.94,1531.01,1185.61
13070,-3.8744,-0.1130,-0.9546,1976.81,1765.38,1591.86
13080,-3.8744,-0.1184,-0.9556,1539.31,1827.88,1904.36
13090,-3.8744,-0.1245,-0.9565,851.81,1702.88,1826.23
13100,-3.8744,-0.1306,-0.9590,70.56,1577.88,1576.23
13110,-3.8744,-0.1337,-0.9631,-710.69,1265.32,1404.36
13120,-3.8744,-0.1311,-0.9673,-1101.32,734.07,1529.36
13130,-3.8744,-0.1239,-0.9712,-773.19,202.82,-1830.02
13140,-3.8744,-0.1161,-0.9741,148.68,-297.12,-751.95
13150,-3.8743,-0.1113,-0.9742,1148.68,-672.12,279.30
13160,-3.8743,-0.1125,-0.9700,1758.06,-687.74,763.67
13170,-3.8743,-0.1191,-0.9641,1601.81,-140.87,451.17
13180,-3.8744,-0.1248,-0.9608,758.06,609.13,-439.39
13190,-3.8744,-0.1252,-0.9606,39.31,1031.01,-1345.64
13200,-3.8744,-0.1229,-0.9618,-23.19,1062.19,-1908.14
13210,-3.8744,-0.1212,-0.9626,273.68,906.01,-1970.64
13220,-3.8744,-0.1208,-0.9620,492.43,796.63,-1658.14
13230,-3.8744,-0.1213,-0.9602,539.31,874.76,-1314.39
13240,-3.8744,-0.1218,-0.9594,476.81,1109.13,-1095.64
13250,-3.8744,-0.1215,-0.9600,414.31,1218.51,-1158.14
13260,-3.8744,-0.1219,-0.9609,461.18,1140.38,-1501.89
13270,-3.8744,-0.1238,-0.9613,398.68,1015.38,-1876.89
13280,-3.8744,-0.1273,-0.9609,164.31,968.51,1966.86
13290,-3.8744,-0.1315,-0.9603,-288.82,1015.32,1919.98
13300,-3.8744,-0.1328,-0.9597,-820.07,1093.44,-1876.89
13310,-3.8744,-0.1305,-0.9611,-991.94,1171.57,-1330.02
13320,-3.8744,-0.1263,-0.9645,-695.07,999.69,-736.27
13330,-3.8744,-0.1221,-0.9673,-163.82,562.19,-408.14
13340,-3.8744,-0.1194,-0.9675,383.06,202.88,-548.77
13350,-3.8744,-0.1199,-0.9661,726.81,171.63,-1064.39
13360,-3.8744,-0.1207,-0.9647,664.31,359.13,-1673.77
13370,-3.8744,-0.1194,-0.9644,554.93,531.01,1826.23
13380,-3.8744,-0.1173,-0.9652,726.81,577.88,1654.36
13390,-3.8744,-0.1166,-0.9659,992.43,468.51,1904.36
13400,-3.8744,-0.1185,-0.9653,1086.18,374.76,-1814.39
13410,-3.8744,-0.1226,-0.9628,836.18,452.88,-1751.89
13420,-3.8744,-0.1266,-0.9597,320.56,781.01,-1955.02
13430,-3.8744,-0.1295,-0.9572,-195.07,1171.57,1560.61
13440,-3.8744,-0.1309,-0.9548,-570.07,1499.69,904.36
13450,-3.8744,-0.1293,-0.9534,-741.94,1796.57,498.11
13460,-3.8744,-0.1260,-0.9542,-538.82,1984.07,669.98
13470,-3.8744,-0.1243,-0.9570,-116.94,1874.69,1185.61
13480,-3.8744,-0.1259,-0.9604,101.81,1515.38,1716.86
13490,-3.8744,-0.1307,-0.9640,-101.32,1077.82,-1814.39
13500,-3.8744,-0.1362,-0.9679,-726.32,624.69,-1455.02
13510,-3.8744,-0.1393,-0.9713,-1429.44,124.69,-1314.39
13520,-3.8744,-0.1390,-0.9734,-1820.07,-312.81,-1205.08
13530,-3.8744,-0.1365,-0.9751,-1788.82,-578.43,-1048.83
13540,-3.8744,-0.1333,-0.9761,-1460.69,-797.18,-1048.83
13550,-3.8744,-0.1310,-0.9756,-1054.44,-922.18,-1330.08
13560,-3.8744,-0.1302,-0.9744,-757.57,-859.68,-1720.70
13570,-3.8744,-0.1306,-0.9722,-663.82,-703.43,1857.42
13580,-3.8744,-0.1309,-0.9692,-710.69,-422.18,1482.42
13590,-3.8744,-0.1304,-0.9662,-741.94,-47.18,1279.30
13600,-3.8744,-0.1281,-0.9631,-679.44,343.44,1154.36
13610,-3.8744,-0.1246,-0.9595,-382.57,734.07,1029.36
13620,-3.8744,-0.1230,-0.9556,54.93,1202.88,810.61
13630,-3.8744,-0.1250,-0.9524,258.06,1702.88,529.36
13640,-3.8744,-0.1281,-0.9515,8.06,-1890.87,419.98
13650,-3.8744,-0.1307,-0.9540,-382.57,-1781.56,498.11
13660,-3.8744,-0.1331,-0.9591,-726.32,1905.94,763.73
13670,-3.8744,-0.1348,-0.9647,-1023.19,1249.69,1232.48
13680,-3.8744,-0.1351,-0.9689,-1241.94,530.94,1857.48
13690,-3.8744,-0.1335,-0.9722,-1288.82,-0.31,-1392.58
13700,-3.8744,-0.1307,-0.9741,-1085.69,-422.18,-814.45
13710,-3.8744,-0.1287,-0.9734,-726.32,-672.18,-814.45
13720,-3.8744,-0.1295,-0.9703,-460.69,-578.43,-1142.58
13730,-3.8744,-0.1343,-0.9670,-570.07,-187.81,-1439.45
13740,-3.8744,-0.1418,-0.9648,-1179.44,234.07,-1830.02
13750,-3.8744,-0.1479,-0.9628,1851.81,515.32,1748.11
13760,-3.8744,-0.1499,-0.9606,1070.56,780.94,1498.11
13770,-3.8744,-0.1472,-0.9574,820.56,1062.19,1263.73
13780,-3.8744,-0.1421,-0.9536,1164.31,1468.44,966.86
13790,-3.8744,-0.1365,-0.9512,1820.56,1952.82,654.36
13800,-3.8744,-0.1298,-0.9510,-1460.69,-1734.68,216.86
13810,-3.8745,-0.1237,-0.9529,-601.32,-1719.06,-205.02
13820,-3.8745,-0.1194,-0.9570,179.93,-1953.37,-236.27
13830,-3.8744,-0.1177,-0.9613,726.81,1515.38,248.11
13840,-3.8744,-0.1191,-0.9640,945.56,968.51,1107.48
13850,-3.8744,-0.1233,-0.9653,758.06,624.76,-1939.39
13860,-3.8744,-0.1293,-0.9661,226.81,452.88,-1283.14
13870,-3.8744,-0.1349,-0.9669,-538.82,359.07,-1236.27
13880,-3.8744,-0.1392,-0.9670,-1257.57,249.69,-1720.64
13890,-3.8744,-0.1422,-0.9664,-1804.44,234.07,1576.23
13900,-3.8744,-0.1427,-0.9658,1804.93,312.19,919.98
13910,-3.8744,-0.1404,-0.9650,1742.43,390.32,716.86
13920,-3.8744,-0.1395,-0.9637,-1960.69,499.69,951.23
13930,-3.8744,-0.1400,-0.9619,-1851.32,655.94,1263.73
13940,-3.8744,-0.1401,-0.9603,-1913.82,890.32,1326.23
13950,-3.8744,-0.1381,-0.9600,-1929.44,1093.44,1123.11
13960,-3.8744,-0.1329,-0.9606,-1663.82,1140.32,982.48
13970,-3.8744,-0.1268,-0.9623,-1007.57,1062.19,982.48
13980,-3.8744,-0.1232,-0.9636,-226.32,843.44,1138.73
13990,-3.8744,-0.1234,-0.9652,242.43,671.63,1498.11
14000,-3.8744,-0.1274,-0.9670,211.18,468.51,1935.61
14010,-3.8744,-0.1337,-0.9688,-304.44,234.07,-1908.14
14020,-3.8744,-0.1403,-0.9703,-1101.32,15.32,1951.23
14030,-3.8744,-0.1453,-0.9713,-1945.07,-187.81,1748.05
14040,-3.8744,-0.1469,-0.9696,1414.31,-312.81,1544.92
14050,-3.8744,-0.1439,-0.9661,1211.18,-94.06,1544.92
14060,-3.8744,-0.1373,-0.9633,1586.18,359.07,1591.86
14070,-3.8744,-0.1306,-0.9612,-1570.07,718.44,1513.73
14080,-3.8744,-0.1266,-0.9596,-710.69,984.07,1279.36
14090,-3.8744,-0.1267,-0.9581,-195.07,1187.19,1029.36
14100,-3.8744,-0.1307,-0.9575,-210.69,1374.69,810.61
14110,-3.8744,-0.1365,-0.9587,-726.32,1452.82,654.36
14120,-3.8744,-0.1411,-0.9613,-1460.69,1296.57,685.61
14130,-3.8744,-0.1420,-0.9641,1945.56,968.44,810.61
14140,-3.8744,-0.1389,-0.9662,1836.18,609.07,1107.48
14150,-3.8744,-0.1346,-0.9667,-1773.19,343.44,1513.73
14160,-3.8744,-0.1321,-0.9656,-1226.32,280.94,1794.98
14170,-3.8744,-0.1311,-0.9642,-898.19,421.57,1841.86
14180,-3.8744,-0.1309,-0.9624,-773.19,593.44,1763.73
14190,-3.8744,-0.1321,-0.9608,-741.94,827.82,1607.48
14200,-3.8744,-0.1345,-0.9603,-898.19,1030.94,1294.98
14210,-3.8744,-0.1357,-0.9600,-1210.69,1093.44,966.86
14220,-3.8744,-0.1351,-0.9604,-1366.94,1140.32,873.11
14230,-3.8744,-0.1354,-0.9613,-1288.82,1077.82,982.48
14240,-3.8744,-0.1371,-0.9609,-1320.07,968.44,1154.36
14250,-3.8744,-0.1387,-0.9603,-1538.82,1015.32,1169.98
14260,-3.8744,-0.1389,-0.9614,-1741.94,1093.44,966.86
14270,-3.8744,-0.1370,-0.9646,-1773.19,952.82,763.73
14280,-3.8744,-0.1346,-0.9688,-1523.19,546.57,841.86
14290,-3.8744,-0.1340,-0.9711,-1226.32,15.32,1310.61
14300,-3.8744,-0.1338,-0.9702,-1148.19,-281.56,1904.30
14310,-3.8744,-0.1338,-0.9674,-1116.94,-172.18,-1689.45
14320,-3.8744,-0.1349,-0.9639,-1116.94,187.19,-1689.39
14330,-3.8744,-0.1366,-0.9606,-1257.57,640.32,1951.23
14340,-3.8744,-0.1372,-0.9589,-1476.32,1062.19,1373.11
14350,-3.8744,-0.1372,-0.9589,-1554.44,1280.94,638.73
14360,-3.8744,-0.1382,-0.9603,-1554.44,1280.94,107.48
14370,-3.8744,-0.1396,-0.9614,-1679.44,1093.44,91.86
14380,-3.8744,-0.1399,-0.9615,-1866.94,952.82,466.86
14390,-3.8744,-0.1382,-0.9614,-1898.19,937.19,1029.36
14400,-3.8744,-0.1353,-0.9620,-1679.44,952.82,1498.11
14410,-3.8744,-0.1324,-0.9633,-1304.44,874.69,1685.61
14420,-3.8744,-0.1309,-0.9646,-945.07,718.44,1544.98
14430,-3.8744,-0.1306,-0.9656,-741.94,546.57,1232.48
14440,-3.8744,-0.1307,-0.9663,-710.69,421.57,1138.73
14450,-3.8744,-0.1315,-0.9662,-726.32,327.82,1216.86
14460,-3.8744,-0.1333,-0.9652,-820.07,343.44,1435.61
14470,-3.8744,-0.1354,-0.9642,-1054.44,468.44,1669.98
14480,-3.8744,-0.1367,-0.9641,-1320.07,593.44,1810.61
14490,-3.8744,-0.1383,-0.9639,-1491.94,609.07,1810.61
14500,-3.8744,-0.1406,-0.9624,-1695.07,640.32,1654.36
14510,-3.8744,-0.1422,-0.9604,-1991.94,827.82,1326.23
14520,-3.8744,-0.1427,-0.9596,1804.93,1077.82,935.61
14530,-3.8744,-0.1420,-0.9604,1742.43,1187.19,654.36
14540,-3.8744,-0.1401,-0.9611,1836.18,1077.82,576.23
14550,-3.8744,-0.1366,-0.9609,-1929.44,999.69,654.36
14560,-3.8744,-0.1324,-0.9608,-1476.32,1015.32,794.98
14570,-3.8744,-0.1293,-0.9612,-945.07,1030.94,1060.61
14580,-3.8744,-0.1278,-0.9615,-538.82,984.07,1341.86
14590,-3.8744,-0.1283,-0.9625,-351.32,937.19,1513.73
14600,-3.8744,-0.1307,-0.9634,-413.82,812.19,1607.48
14610,-3.8744,-0.1345,-0.9626,-726.32,702.82,1544.98
14620,-3.8744,-0.1379,-0.9609,-1210.69,796.57,1388.73
14630,-3.8744,-0.1404,-0.9608,-1648.19,1015.32,1310.61
14640,-3.8744,-0.1415,-0.9622,-1960.69,1030.94,1263.73
14650,-3.8744,-0.1400,-0.9640,1898.68,859.07,1044.98
14660,-3.8744,-0.1376,-0.9633,-1913.82,624.69,701.23
14670,-3.8744,-0.1368,-0.9613,-1601.32,718.44,763.73
14680,-3.8744,-0.1370,-0.9625,-1507.57,968.44,1185.61
14690,-3.8744,-0.1370,-0.9635,-1523.19,812.19,1451.23
14700,-3.8744,-0.1384,-0.9651,-1523.19,687.19,1529.36
14710,-3.8744,-0.1399,-0.9683,-1710.69,484.07,1451.23
14720,-3.8744,-0.1401,-0.9688,-1898.19,77.82,1373.11
14730,-3.8744,-0.1399,-0.9694,-1929.44,15.32,1435.61
14740,-3.8744,-0.1389,-0.9696,-1898.19,-62.81,1654.30
14750,-3.8744,-0.1385,-0.9664,-1773.19,-94.06,1951.17
14760,-3.8744,-0.1389,-0.9637,-1726.32,312.19,-1892.52
14770,-3.8744,-0.1381,-0.9608,-1773.19,655.94,1919.98
14780,-3.8744,-0.1377,-0.9580,-1663.82,1030.94,1482.48
14790,-3.8744,-0.1377,-0.9574,-1616.94,1390.32,998.11
14800,-3.8744,-0.1375,-0.9574,-1616.94,1468.44,607.48
14810,-3.8744,-0.1373,-0.9587,-1585.69,1468.44,482.48
14820,-3.8744,-0.1362,-0.9619,-1570.07,1296.57,669.98
14830,-3.8744,-0.1354,-0.9642,-1429.44,890.32,935.61
14840,-3.8744,-0.1370,-0.9661,-1320.07,593.44,1216.86
14850,-3.8744,-0.1393,-0.9670,-1523.19,359.07,1498.11
14860,-3.8744,-0.1414,-0.9662,-1820.07,234.07,1716.86
14870,-3.8744,-0.1431,-0.9658,1914.31,343.44,1794.98
14880,-3.8744,-0.1420,-0.9645,1695.56,390.32,1560.61
14890,-3.8744,-0.1399,-0.9622,1836.18,562.19,1201.23
14900,-3.8744,-0.1377,-0.9620,-1898.19,859.07,982.48
14910,-3.8744,-0.1353,-0.9613,-1616.94,874.69,779.36
14920,-3.8744,-0.1339,-0.9595,-1304.44,968.44,763.73
14930,-3.8744,-0.1328,-0.9579,-1132.57,1202.82,919.98
14940,-3.8744,-0.1324,-0.9552,-991.94,1405.94,1060.61
14950,-3.8744,-0.1332,-0.9553,-945.07,1749.69,1060.61
14960,-3.8744,-0.1345,-0.9578,-1038.82,1734.07,935.61
14970,-3.8744,-0.1366,-0.9600,-1210.69,1421.57,857.48
14980,-3.8744,-0.1389,-0.9636,-1476.32,1140.32,935.61
14990,-3.8744,-0.1401,-0.9651,-1773.19,671.57,1107.48
15000,-3.8744,-0.1411,-0.9658,-1929.44,484.07,1451.23
15010,-3.8744,-0.1422,-0.9673,1945.56,390.32,1748.11
15020,-3.8744,-0.1432,-0.9673,1804.93,202.82,1810.61
15030,-3.8744,-0.1440,-0.9675,1679.93,202.82,1654.36
15040,-3.8744,-0.1442,-0.9677,1570.56,171.57,1310.61
15050,-3.8744,-0.1426,-0.9656,1554.93,155.94,1201.23
15060,-3.8744,-0.1395,-0.9630,1758.06,421.57,1201.23
15070,-3.8744,-0.1368,-0.9614,-1851.32,749.69,1091.86
15080,-3.8744,-0.1349,-0.9607,-1507.57,952.82,966.86
15090,-3.8744,-0.1332,-0.9586,-1257.57,1046.57,951.23
15100,-3.8744,-0.1318,-0.9580,-1038.82,1312.19,1029.36
15110,-3.8744,-0.1311,-0.9600,-866.94,1390.32,966.86
15120,-3.8744,-0.1317,-0.9620,-773.19,1140.32,638.73
15130,-3.8744,-0.1353,-0.9633,-851.32,874.69,373.11
15140,-3.8744,-0.1389,-0.9634,-1304.44,718.44,513.73
15150,-3.8744,-0.1410,-0.9631,-1773.19,702.82,919.98
15160,-3.8744,-0.1415,-0.9634,1961.18,734.07,1357.48
15170,-3.8744,-0.1418,-0.9635,1898.68,702.82,1826.23
15180,-3.8744,-0.1431,-0.9631,1851.81,687.19,-1892.52
15190,-3.8744,-0.1453,-0.9625,1695.56,734.07,1966.86
15200,-3.8744,-0.1470,-0.9624,1414.31,812.19,1482.48
15210,-3.8744,-0.1467,-0.9628,1195.56,827.82,1029.36
15220,-3.8744,-0.1445,-0.9635,1226.81,780.94,857.48
15230,-3.8744,-0.1415,-0.9645,1508.06,687.19,1029.36
15240,-3.8744,-0.1392,-0.9644,1898.68,562.19,1232.48
15250,-3.8744,-0.1395,-0.9642,-1804.44,577.82,1326.23
15260,-3.8744,-0.1431,-0.9647,-1851.32,593.44,1279.36
15270,-3.8744,-0.1467,-0.9644,1695.56,530.94,1201.23
15280,-3.8744,-0.1467,-0.9628,1226.81,577.82,1185.61
15290,-3.8744,-0.1432,-0.9606,1226.81,780.94,1263.73
15300,-3.8744,-0.1384,-0.9598,1679.93,1062.19,1404.36
15310,-3.8744,-0.1331,-0.9597,-1710.69,1155.94,1435.61
15320,-3.8744,-0.1298,-0.9592,-1023.19,1171.57,1201.23
15330,-3.8744,-0.1298,-0.9590,-601.32,1234.07,794.98
15340,-3.8744,-0.1317,-0.9596,-601.32,1265.32,544.98
15350,-3.8744,-0.1343,-0.9604,-851.32,1187.19,529.36
15360,-3.8744,-0.1372,-0.9602,-1179.44,1077.82,732.48
15370,-3.8744,-0.1400,-0.9612,-1554.44,1109.07,1060.61
15380,-3.8744,-0.1410,-0.9623,-1913.82,984.07,1232.48
15390,-3.8744,-0.1410,-0.9630,1961.18,843.44,1232.48
15400,-3.8744,-0.1405,-0.9637,1961.18,749.69,1169.98
15410,-3.8744,-0.1404,-0.9640,-1976.32,655.94,1154.36
15420,-3.8744,-0.1410,-0.9644,-1960.69,624.69,1060.61
15430,-3.8744,-0.1410,-0.9644,1961.18,577.82,982.48
15440,-3.8744,-0.1405,-0.9639,1961.18,577.82,998.11
15450,-3.8744,-0.1405,-0.9639,-1976.32,640.32,1029.36
15460,-3.8744,-0.1400,-0.9645,-1976.32,640.32,1013.73
15470,-3.8744,-0.1389,-0.9639,-1913.82,562.19,1029.36
15480,-3.8744,-0.1382,-0.9635,-1773.19,640.32,1091.86
15490,-3.8744,-0.1382,-0.9634,-1679.44,687.19,998.11
15500,-3.8744,-0.1382,-0.9623,-1679.44,702.82,841.86
15510,-3.8744,-0.1389,-0.9615,-1679.44,843.44,888.73
15520,-3.8744,-0.1389,-0.9617,-1773.19,937.19,1060.61
15530,-3.8744,-0.1376,-0.9622,-1773.19,921.57,1201.23
15540,-3.8744,-0.1368,-0.9624,-1601.32,859.07,1373.11
15550,-3.8744,-0.1375,-0.9629,-1507.57,827.82,1560.61
15560,-3.8744,-0.1387,-0.9640,-1585.69,765.32,1654.36
15570,-3.8744,-0.1398,-0.9646,-1741.94,624.69,1607.48
15580,-3.8744,-0.1403,-0.9644,-1882.57,546.57,1404.36
15590,-3.8744,-0.1404,-0.9637,-1945.07,577.82,1123.11
15600,-3.8744,-0.1401,-0.9630,-1960.69,655.94,919.98
15610,-3.8744,-0.1400,-0.9614,-1929.44,749.69,966.86
15620,-3.8744,-0.1400,-0.9595,-1913.82,952.82,1107.48
15630,-3.8744,-0.1392,-0.9592,-1913.82,1202.82,1044.98
15640,-3.8744,-0.1389,-0.9602,-1804.44,1234.07,919.98
15650,-3.8744,-0.1396,-0.9607,-1773.19,1109.07,826.23
15660,-3.8744,-0.1395,-0.9601,-1866.94,1046.57,779.36
15670,-3.8744,-0.1381,-0.9600,-1851.32,1124.69,888.73
15680,-3.8744,-0.1368,-0.9604,-1663.82,1140.32,1169.98
15690,-3.8744,-0.1370,-0.9611,-1507.57,1077.82,1466.86
15700,-3.8744,-0.1377,-0.9620,-1523.19,999.69,1544.98
15710,-3.8744,-0.1379,-0.9636,-1616.94,874.69,1326.23
15720,-3.8744,-0.1372,-0.9650,-1648.19,671.57,1044.98
15730,-3.8744,-0.1362,-0.9648,-1554.44,499.69,982.48
15740,-3.8744,-0.1364,-0.9639,-1429.44,515.32,1091.86
15750,-3.8744,-0.1378,-0.9628,-1445.07,640.32,1279.36
15760,-3.8744,-0.1395,-0.9618,-1632.57,780.94,1310.61
15770,-3.8744,-0.1409,-0.9614,-1851.32,905.94,1201.23
15780,-3.8744,-0.1407,-0.9609,1976.81,952.82,1076.23
15790,-3.8744,-0.1392,-0.9609,1992.43,1015.32,1029.36
15800,-3.8744,-0.1376,-0.9611,-1804.44,1015.32,1123.11
15810,-3.8744,-0.1370,-0.9613,-1601.32,999.69,1326.23
15820,-3.8744,-0.1370,-0.9619,-1523.19,968.44,1498.11
15830,-3.8744,-0.1365,-0.9634,-1523.19,890.32,1560.61
15840,-3.8744,-0.1359,-0.9650,-1460.69,702.82,1529.36
15850,-3.8744,-0.1361,-0.9646,-1382.57,499.69,1279.36
15860,-3.8744,-0.1384,-0.9647,-1413.82,546.57,1060.61
15870,-3.8744,-0.1414,-0.9657,-1710.69,530.94,888.73
15880,-3.8744,-0.1434,-0.9641,1914.31,405.94,810.61
15890,-3.8744,-0.1444,-0.9626,1648.68,609.07,982.48
15900,-3.8744,-0.1437,-0.9602,1523.68,796.57,1091.86
15910,-3.8744,-0.1417,-0.9589,1617.43,1109.07,1107.48
15920,-3.8744,-0.1381,-0.9601,1867.43,1280.94,966.86
15930,-3.8744,-0.1337,-0.9611,-1663.82,1124.69,763.73
15940,-3.8744,-0.1300,-0.9615,-1101.32,999.69,748.11
15950,-3.8744,-0.1294,-0.9617,-632.57,937.19,919.98
15960,-3.8744,-0.1331,-0.9617,-554.44,921.57,1138.73
15970,-3.8744,-0.1387,-0.9603,-1023.19,921.57,1279.36
15980,-3.8744,-0.1438,-0.9597,-1741.94,1093.44,1263.73
15990,-3.8744,-0.1462,-0.9602,1601.81,1171.57,1107.48
16000,-3.8744,-0.1456,-0.9625,1289.31,1109.07,998.11
16010,-3.8744,-0.1428,-0.9656,1367.43,812.19,1029.36
16020,-3.8744,-0.1400,-0.9680,1726.81,421.57,1216.86
16030,-3.8744,-0.1395,-0.9697,-1913.82,109.07,1623.11
16040,-3.8744,-0.1416,-0.9706,-1851.32,-109.68,-1986.33
16050,-3.8744,-0.1440,-0.9695,1883.06,-219.06,-1955.08
16060,-3.8744,-0.1451,-0.9661,1570.56,-78.43,1701.17
16070,-3.8744,-0.1442,-0.9629,1429.93,359.07,1279.36
16080,-3.8744,-0.1406,-0.9603,1554.93,765.32,1138.73
16090,-3.8744,-0.1364,-0.9591,-1991.94,1093.44,1279.36
16100,-3.8744,-0.1334,-0.9575,-1445.07,1249.69,1326.23
16110,-3.8744,-0.1338,-0.9564,-1070.07,1452.82,1201.23
16120,-3.8744,-0.1361,-0.9587,-1116.94,1593.44,716.86
16130,-3.8744,-0.1382,-0.9601,-1413.82,1296.57,76.23
16140,-3.8745,-0.1388,-0.9608,-1679.44,1124.69,-142.52
16150,-3.8744,-0.1368,-0.9615,-1757.57,1030.94,13.73
16160,-3.8744,-0.1344,-0.9611,-1507.57,937.19,529.36
16170,-3.8744,-0.1337,-0.9623,-1195.07,999.69,1294.98
16180,-3.8744,-0.1339,-0.9629,-1101.32,843.44,1826.23
16190,-3.8744,-0.1356,-0.9635,-1132.57,765.32,1935.61
16200,-3.8744,-0.1378,-0.9651,-1351.32,687.19,1669.98
16210,-3.8744,-0.1405,-0.9642,-1632.57,484.07,1216.86
16220,-3.8744,-0.1433,-0.9634,-1976.32,593.44,1013.73
16230,-3.8744,-0.1455,-0.9636,1664.31,702.82,1232.48
16240,-3.8744,-0.1470,-0.9630,1383.06,671.57,1560.61
16250,-3.8744,-0.1481,-0.9635,1195.56,749.69,1591.86
16260,-3.8744,-0.1481,-0.9642,1054.93,687.19,1169.98
16270,-3.8744,-0.1459,-0.9626,1054.93,593.44,576.23
16280,-3.8744,-0.1412,-0.9612,1336.18,796.57,216.86
16290,-3.8744,-0.1362,-0.9612,1929.93,984.07,232.48
16300,-3.8744,-0.1331,-0.9618,-1429.44,984.07,732.48
16310,-3.8744,-0.1323,-0.9631,-1023.19,905.94,1544.98
16320,-3.8744,-0.1334,-0.9640,-929.44,734.07,-1908.14
16330,-3.8744,-0.1368,-0.9641,-1070.07,624.69,-1798.77
16340,-3.8744,-0.1425,-0.9646,-1507.57,609.07,1904.36
16350,-3.8744,-0.1478,-0.9645,1773.68,546.57,1357.48
16360,-3.8744,-0.1501,-0.9634,1086.18,562.19,841.86
16370,-3.8744,-0.1492,-0.9601,789.31,702.82,607.48
16380,-3.8744,-0.1466,-0.9574,914.31,1124.69,701.23
16390,-3.8744,-0.1428,-0.9574,1242.43,1468.44,763.73
16400,-3.8744,-0.1394,-0.9570,1726.81,1468.44,623.11
16410,-3.8744,-0.1378,-0.9578,-1835.69,1515.32,529.36
16420,-3.8744,-0.1373,-0.9596,-1632.57,1421.57,482.48
16430,-3.8744,-0.1378,-0.9611,-1570.07,1187.19,544.98
16440,-3.8744,-0.1381,-0.9630,-1632.57,999.69,888.73
16450,-3.8744,-0.1378,-0.9663,-1663.82,749.69,1357.48
16460,-3.8744,-0.1384,-0.9692,-1632.57,327.82,1779.36
16470,-3.8744,-0.1406,-0.9702,-1710.69,-47.18,1966.80
16480,-3.8744,-0.1433,-0.9690,-1991.94,-172.18,1779.30
16490,-3.8744,-0.1449,-0.9663,1664.31,-15.93,1388.67
16500,-3.8744,-0.1453,-0.9634,1461.18,327.82,966.86
16510,-3.8744,-0.1447,-0.9604,1414.31,702.82,576.23
16520,-3.8744,-0.1431,-0.9592,1492.43,1077.82,404.36
16530,-3.8744,-0.1411,-0.9583,1695.56,1234.07,435.61
16540,-3.8744,-0.1400,-0.9573,1945.56,1359.07,576.23
16550,-3.8744,-0.1392,-0.9579,-1913.82,1484.07,779.36
16560,-3.8744,-0.1379,-0.9594,-1804.44,1405.94,841.86
16570,-3.8744,-0.1382,-0.9613,-1648.19,1218.44,732.48
16580,-3.8744,-0.1392,-0.9634,-1679.44,968.44,623.11
16590,-3.8744,-0.1406,-0.9652,-1804.44,702.82,669.98
16600,-3.8744,-0.1429,-0.9657,-1991.94,468.44,857.48
16610,-3.8744,-0.1454,-0.9655,1711.18,405.94,1169.98
16620,-3.8744,-0.1466,-0.9652,1398.68,437.19,1498.11
16630,-3.8744,-0.1456,-0.9650,1242.43,468.44,1607.48
16640,-3.8744,-0.1432,-0.9648,1367.43,499.69,1513.73
16650,-3.8744,-0.1403,-0.9647,1679.93,515.32,1341.86
16660,-3.8744,-0.1388,-0.9639,-1945.07,530.94,1076.23
16670,-3.8744,-0.1381,-0.9608,-1757.57,640.32,873.11
16680,-3.8744,-0.1382,-0.9579,-1663.82,1030.94,763.73
16690,-3.8744,-0.1393,-0.9570,-1679.44,1405.94,638.73
16700,-3.8744,-0.1414,-0.9564,-1820.07,1515.32,529.36
16710,-3.8744,-0.1438,-0.9567,1914.31,1593.44,341.86
16720,-3.8744,-0.1455,-0.9575,1601.81,1562.19,138.73
16730,-3.8744,-0.1461,-0.9586,1383.06,1452.82,216.86
16740,-3.8744,-0.1449,-0.9609,1304.93,1312.19,701.23
16750,-3.8744,-0.1437,-0.9642,1461.18,1015.32,1357.48
16760,-3.8744,-0.1431,-0.9675,1617.43,593.44,1873.11
16770,-3.8744,-0.1425,-0.9705,1695.56,171.57,1951.23
16780,-3.8744,-0.1426,-0.9714,1773.68,-203.43,1669.92
16790,-3.8744,-0.1428,-0.9703,1758.06,-328.43,1326.17
16800,-3.8744,-0.1417,-0.9675,1726.81,-187.81,1169.92
16810,-3.8744,-0.1407,-0.9637,1867.43,171.57,1076.23
16820,-3.8744,-0.1404,-0.9600,1992.43,655.94,919.98
16830,-3.8744,-0.1398,-0.9572,-1960.69,1140.32,716.86
16840,-3.8744,-0.1395,-0.9558,-1882.57,1499.69,498.11
16850,-3.8744,-0.1414,-0.9561,-1851.32,1671.57,357.48
16860,-3.8744,-0.1462,-0.9578,1914.31,1640.32,169.98
16870,-3.8745,-0.1501,-0.9590,1289.31,1421.57,-33.14
16880,-3.8745,-0.1505,-0.9595,789.31,1265.32,-80.02
16890,-3.8744,-0.1482,-0.9613,742.43,1202.82,107.48
16900,-3.8744,-0.1433,-0.9636,1039.31,968.44,513.73
16910,-3.8744,-0.1377,-0.9662,1664.31,671.57,919.98
16920,-3.8744,-0.1342,-0.9674,-1616.94,343.44,1216.86
16930,-3.8744,-0.1333,-0.9673,-1163.82,187.19,1435.61
16940,-3.8744,-0.1349,-0.9670,-1054.44,202.82,1419.98
16950,-3.8744,-0.1381,-0.9659,-1257.57,234.07,1091.86
16960,-3.8744,-0.1422,-0.9640,-1663.82,374.69,841.86
16970,-3.8744,-0.1460,-0.9622,1804.93,624.69,685.61
16980,-3.8744,-0.1478,-0.9607,1320.56,859.07,576.23
16990,-3.8744,-0.1486,-0.9595,1086.18,1046.57,560.61
17000,-3.8744,-0.1483,-0.9585,992.43,1202.82,513.73
17010,-3.8744,-0.1477,-0.9576,1023.68,1327.82,638.73
17020,-3.8744,-0.1472,-0.9580,1101.81,1437.19,888.73
17030,-3.8744,-0.1464,-0.9595,1164.31,1390.32,1029.36
17040,-3.8744,-0.1453,-0.9620,1273.68,1202.82,1029.36
17050,-3.8744,-0.1448,-0.9652,1414.31,874.69,904.36
17060,-3.8744,-0.1444,-0.9667,1476.81,468.44,857.48
17070,-3.8744,-0.1439,-0.9667,1523.68,280.94,873.11
17080,-3.8744,-0.1437,-0.9659,1586.18,280.94,841.86
17090,-3.8744,-0.1432,-0.9647,1617.43,374.69,826.23
17100,-3.8744,-0.1417,-0.9640,1679.93,530.94,873.11
17110,-3.8744,-0.1410,-0.9648,1867.43,624.69,998.11
17120,-3.8744,-0.1428,-0.9648,1961.18,515.32,1013.73
17130,-3.8744,-0.1460,-0.9631,1726.81,515.32,857.48
17140,-3.8744,-0.1483,-0.9618,1320.56,734.07,654.36
17150,-3.8744,-0.1482,-0.9608,1023.68,905.94,544.98
17160,-3.8744,-0.1449,-0.9602,1039.31,1030.94,513.73
17170,-3.8744,-0.1405,-0.9608,1461.18,1109.07,560.61
17180,-3.8744,-0.1382,-0.9620,-1976.32,1030.94,623.11
17190,-3.8744,-0.1384,-0.9623,-1679.44,874.69,529.36
17200,-3.8744,-0.1410,-0.9618,-1710.69,843.44,466.86
17210,-3.8744,-0.1451,-0.9612,1961.18,905.94,326.23
17220,-3.8744,-0.1483,-0.9607,1429.93,984.07,13.73
17230,-3.8745,-0.1492,-0.9603,1023.68,1046.57,-189.39
17240,-3.8745,-0.1469,-0.9608,914.31,1093.44,-17.52
17250,-3.8744,-0.1423,-0.9620,1211.18,1030.94,529.36
17260,-3.8744,-0.1389,-0.9630,1789.31,874.69,1091.86
17270,-3.8744,-0.1377,-0.9635,-1773.19,749.69,1466.86
17280,-3.8744,-0.1382,-0.9640,-1616.94,687.19,1435.61
17290,-3.8744,-0.1411,-0.9641,-1679.44,624.69,951.23
17300,-3.8744,-0.1449,-0.9633,1945.56,609.07,404.36
17310,-3.8744,-0.1473,-0.9618,1461.18,718.44,44.98
17320,-3.8744,-0.1488,-0.9604,1148.68,905.94,29.36
17330,-3.8744,-0.1501,-0.9603,961.18,1077.82,310.61
17340,-3.8744,-0.1501,-0.9608,789.31,1093.44,607.48
17350,-3.8744,-0.1493,-0.9611,789.31,1030.94,716.86
17360,-3.8744,-0.1478,-0.9617,898.68,999.69,638.73
17370,-3.8744,-0.1450,-0.9633,1086.18,921.57,498.11
17380,-3.8744,-0.1428,-0.9651,1445.56,718.44,419.98
17390,-3.8744,-0.1414,-0.9655,1726.81,484.07,513.73
17400,-3.8744,-0.1394,-0.9648,1914.31,437.19,716.86
17410,-3.8744,-0.1379,-0.9646,-1835.69,515.32,904.36
17420,-3.8744,-0.1396,-0.9637,-1648.19,546.57,998.11
17430,-3.8744,-0.1431,-0.9625,-1866.94,655.94,904.36
17440,-3.8744,-0.1462,-0.9614,1695.56,812.19,732.48
17450,-3.8744,-0.1482,-0.9607,1289.31,952.82,638.73
17460,-3.8744,-0.1497,-0.9603,1039.31,1046.57,638.73
17470,-3.8744,-0.1509,-0.9607,851.81,1093.44,685.61
17480,-3.8744,-0.1514,-0.9622,695.56,1046.57,794.98
17490,-3.8744,-0.1516,-0.9628,633.06,859.07,935.61
17500,-3.8744,-0.1508,-0.9620,601.81,780.94,873.11
17510,-3.8744,-0.1481,-0.9615,711.18,874.69,591.86
17520,-3.8744,-0.1437,-0.9618,1054.93,937.19,263.73
17530,-3.8744,-0.1389,-0.9628,1617.43,905.94,107.48
17540,-3.8744,-0.1364,-0.9631,-1773.19,780.94,248.11
17550,-3.8744,-0.1372,-0.9615,-1445.07,734.07,419.98
17560,-3.8744,-0.1406,-0.9594,-1554.44,937.19,513.73
17570,-3.8744,-0.1456,-0.9587,-1991.94,1218.44,560.61
17580,-3.8744,-0.1504,-0.9614,1367.43,1296.57,685.61
17590,-3.8744,-0.1531,-0.9681,758.06,952.82,951.23
17600,-3.8744,-0.1549,-0.9756,414.31,93.44,1435.61
17610,-3.8744,-0.1572,-0.9801,179.93,-859.68,1982.42
17620,-3.8744,-0.1588,-0.9794,-116.94,-1437.87,-1751.95
17630,-3.8744,-0.1556,-0.9745,-320.07,-1344.12,-1923.83
17640,-3.8744,-0.1469,-0.9683,86.18,-719.06,1623.05
17650,-3.8744,-0.1356,-0.9608,1211.18,77.82,1154.36
17660,-3.8744,-0.1290,-0.9508,-1351.32,1030.94,513.73
17670,-3.8745,-0.1324,-0.9391,-507.57,-1687.81,-345.64
17680,-3.8745,-0.1429,-0.9294,-945.07,-187.81,-1251.89
17690,-3.8745,-0.1554,-0.9277,1711.18,1046.57,-1986.21
17700,-3.8745,-0.1644,-0.9343,117.43,1265.32,1654.42
17710,-3.8745,-0.1669,-0.9457,-1038.82,421.51,1873.17
17720,-3.8745,-0.1615,-0.9602,-1351.32,-1031.62,-1376.89
17730,-3.8745,-0.1504,-0.9738,-663.82,1109.01,-408.14
17740,-3.8744,-0.1395,-0.9843,758.06,-625.31,748.05
17750,-3.8744,-0.1309,-0.9915,-1851.32,-1969.06,-1923.83
17760,-3.8744,-0.1252,-0.9961,-741.94,1109.07,-611.33
17770,-3.8743,-0.1245,-0.9978,-23.19,515.32,326.17
17780,-3.8743,-0.1244,-0.9923,70.56,296.63,294.92
17790,-3.8744,-0.1207,-0.9807,86.18,999.76,-720.70
17800,-3.8744,-0.1156,-0.9688,554.93,-1515.87,1748.05
17810,-3.8744,-0.1144,-0.9575,1211.18,15.38,154.36
17820,-3.8745,-0.1204,-0.9478,1367.43,1452.88,-1267.52
17830,-3.8745,-0.1327,-0.9421,601.81,-1297.12,1576.23
17840,-3.8745,-0.1458,-0.9396,-976.32,-578.43,716.86
17850,-3.8745,-0.1531,-0.9396,1351.81,-250.31,341.86
17860,-3.8745,-0.1541,-0.9435,414.31,-250.31,576.23
17870,-3.8745,-0.1519,-0.9497,289.31,-750.31,1404.36
17880,-3.8745,-0.1489,-0.9564,570.56,-1547.18,-1330.02
17890,-3.8745,-0.1473,-0.9633,945.56,1593.44,-64.39
17900,-3.8744,-0.1476,-0.9700,1148.68,718.44,888.73
17910,-3.8744,-0.1476,-0.9767,1117.43,-140.93,1529.30
17920,-3.8744,-0.1456,-0.9822,1117.43,-1000.31,-1876.95
17930,-3.8744,-0.1433,-0.9846,1367.43,-1703.43,-1455.08
17940,-3.8744,-0.1414,-0.9835,1664.31,1984.07,-1298.83
17950,-3.8744,-0.1379,-0.9792,1914.31,-1875.31,-1064.45
17960,-3.8744,-0.1333,-0.9744,-1648.19,-1328.43,-720.70
17970,-3.8744,-0.1304,-0.9701,-1054.44,-703.43,-720.70
17980,-3.8744,-0.1318,-0.9647,-679.44,-156.56,-1455.08
17990,-3.8744,-0.1371,-0.9592,-866.94,530.94,1076.23
18000,-3.8745,-0.1437,-0.9564,-1538.82,1234.07,-486.27
18010,-3.8745,-0.1455,-0.9552,1617.43,1593.44,-1517.52
18020,-3.8745,-0.1384,-0.9541,1383.06,1749.69,-1720.64
18030,-3.8745,-0.1278,-0.9546,-1710.69,1890.32,-892.52
18040,-3.8744,-0.1223,-0.9562,-351.32,1827.82,482.48
18050,-3.8744,-0.1255,-0.9574,351.81,1624.76,1310.61
18060,-3.8744,-0.1331,-0.9589,-54.44,1468.44,1123.11
18070,-3.8744,-0.1398,-0.9623,-1023.19,1280.94,310.61
18080,-3.8745,-0.1411,-0.9662,-1882.57,843.44,-376.89
18090,-3.8745,-0.1356,-0.9692,1945.56,343.44,-205.02
18100,-3.8744,-0.1295,-0.9719,-1351.32,-47.18,919.92
18110,-3.8744,-0.1293,-0.9730,-570.07,-390.93,-1642.58
18120,-3.8744,-0.1362,-0.9707,-538.82,-531.56,-830.08
18130,-3.8744,-0.1465,-0.9668,-1429.44,-234.68,-1126.95
18140,-3.8744,-0.1527,-0.9648,1258.06,265.32,1779.36
18150,-3.8744,-0.1497,-0.9650,461.18,515.32,513.73
18160,-3.8745,-0.1390,-0.9650,851.81,499.69,-345.64
18170,-3.8745,-0.1277,-0.9625,-1788.82,499.69,-486.27
18180,-3.8745,-0.1213,-0.9581,-335.69,812.19,-220.64
18190,-3.8745,-0.1207,-0.9539,476.81,1374.76,-64.39
18200,-3.8745,-0.1219,-0.9507,554.93,1921.63,-205.02
18210,-3.8745,-0.1208,-0.9515,398.68,-1672.12,-361.27
18220,-3.8745,-0.1176,-0.9557,539.31,-1781.49,-64.39
18230,-3.8744,-0.1144,-0.9613,961.18,1687.26,763.73
18240,-3.8744,-0.1130,-0.9673,1367.43,968.51,1638.73
18250,-3.8744,-0.1157,-0.9718,1539.31,202.88,-1861.27
18260,-3.8744,-0.1215,-0.9730,1195.56,-375.24,-1783.20
18270,-3.8744,-0.1277,-0.9720,461.18,-531.49,-1923.83
18280,-3.8744,-0.1338,-0.9711,-335.69,-406.56,1935.55
18290,-3.8744,-0.1385,-0.9700,-1116.94,-281.56,1873.05
18300,-3.8744,-0.1414,-0.9678,-1726.32,-140.93,1888.67
18310,-3.8744,-0.1431,-0.9653,1914.31,140.32,1763.73
18320,-3.8744,-0.1422,-0.9646,1695.56,452.82,1498.11
18330,-3.8744,-0.1384,-0.9664,1804.93,546.57,1201.23
18340,-3.8744,-0.1331,-0.9677,-1710.69,312.19,982.48
18350,-3.8744,-0.1259,-0.9663,-1023.19,155.94,1060.61
18360,-3.8744,-0.1172,-0.9645,-101.32,327.82,1435.61
18370,-3.8744,-0.1100,-0.9641,1008.06,562.26,1732.48
18380,-3.8744,-0.1074,-0.9645,1929.93,609.13,1669.98
18390,-3.8744,-0.1091,-0.9636,-1741.94,562.26,1232.48
18400,-3.8744,-0.1119,-0.9611,-1960.69,671.63,763.73
18410,-3.8744,-0.1151,-0.9589,1679.93,999.76,623.11
18420,-3.8744,-0.1187,-0.9594,1273.68,1281.01,1044.98
18430,-3.8744,-0.1223,-0.9630,820.56,1218.51,1826.23
18440,-3.8744,-0.1268,-0.9666,351.81,749.76,-1611.27
18450,-3.8744,-0.1313,-0.9679,-226.32,296.57,-1486.27
18460,-3.8744,-0.1332,-0.9688,-804.44,124.69,-1814.39
18470,-3.8744,-0.1316,-0.9696,-1038.82,15.32,1576.23
18480,-3.8744,-0.1262,-0.9701,-835.69,-94.06,1091.80
18490,-3.8744,-0.1172,-0.9694,-148.19,-156.56,1091.80
18500,-3.8744,-0.1069,-0.9668,1008.06,-62.74,1451.17
18510,-3.8744,-0.1001,-0.9630,-1679.44,265.38,1857.48
18520,-3.8744,-0.1000,-0.9594,-804.44,749.76,-1876.89
18530,-3.8744,-0.1068,-0.9572,-788.82,1218.51,1919.98
18540,-3.8744,-0.1158,-0.9556,-1663.82,1499.76,1279.36
18550,-3.8744,-0.1219,-0.9530,1179.93,1702.88,763.73
18560,-3.8744,-0.1262,-0.9525,398.68,-1968.99,873.11
18570,-3.8744,-0.1302,-0.9556,-148.19,-1906.56,1482.48
18580,-3.8744,-0.1326,-0.9601,-663.82,1702.82,-1705.02
18590,-3.8744,-0.1332,-0.9646,-960.69,1124.69,-1064.39
18600,-3.8744,-0.1326,-0.9686,-1038.82,546.57,-845.64
18610,-3.8744,-0.1310,-0.9707,-960.69,30.94,-1048.77
18620,-3.8744,-0.1276,-0.9700,-757.57,-234.68,-1533.20
18630,-3.8744,-0.1206,-0.9674,-320.07,-140.93,1904.30
18640,-3.8744,-0.1105,-0.9642,570.56,187.26,1529.36
18650,-3.8744,-0.1024,-0.9614,1867.43,593.51,1482.48
18660,-3.8744,-0.1005,-0.9595,-1101.32,952.88,1748.11
18670,-3.8744,-0.1055,-0.9589,-851.32,1202.88,-1986.27
18680,-3.8744,-0.1151,-0.9614,-1491.94,1281.01,-1970.64
18690,-3.8744,-0.1251,-0.9659,1273.68,952.88,1826.23
18700,-3.8744,-0.1309,-0.9707,-7.57,374.69,1685.61
18710,-3.8744,-0.1310,-0.9749,-741.94,-234.68,1966.80
18720,-3.8744,-0.1265,-0.9769,-757.57,-765.93,-1376.95
18730,-3.8744,-0.1187,-0.9766,-179.44,-1031.56,-751.95
18740,-3.8744,-0.1104,-0.9729,820.56,-984.62,-501.95
18750,-3.8744,-0.1042,-0.9668,1883.06,-515.87,-705.08
18760,-3.8744,-0.1028,-0.9609,-1335.69,265.38,-1314.39
18770,-3.8744,-0.1062,-0.9569,-1148.19,1015.38,1904.36
18780,-3.8744,-0.1134,-0.9534,-1585.69,1531.01,1091.86
18790,-3.8744,-0.1221,-0.9503,1492.43,1984.13,326.23
18800,-3.8744,-0.1277,-0.9496,383.06,-1625.24,13.73
18810,-3.8744,-0.1283,-0.9517,-335.69,-1531.56,248.11
18820,-3.8744,-0.1251,-0.9543,-413.82,-1797.18,794.98
18830,-3.8744,-0.1200,-0.9562,-7.57,1859.07,1232.48
18840,-3.8744,-0.1151,-0.9585,648.68,1624.76,1310.61
18850,-3.8744,-0.1117,-0.9624,1273.68,1327.88,1091.86
18860,-3.8744,-0.1085,-0.9668,1711.18,827.88,826.23
18870,-3.8744,-0.1064,-0.9694,-1882.57,265.38,810.61
18880,-3.8744,-0.1072,-0.9689,-1616.94,-62.74,1310.55
18890,-3.8744,-0.1124,-0.9668,-1710.69,-0.24,-1845.70
18900,-3.8744,-0.1213,-0.9646,1617.43,265.38,-1064.39
18910,-3.8744,-0.1299,-0.9640,476.81,546.63,-658.14
18920,-3.8744,-0.1350,-0.9657,-616.94,624.69,-564.39
18930,-3.8744,-0.1370,-0.9691,-1273.19,405.94,-548.77
18940,-3.8744,-0.1367,-0.9723,-1523.19,-31.56,-548.83
18950,-3.8744,-0.1362,-0.9747,-1491.94,-437.81,-548.83
18960,-3.8744,-0.1354,-0.9771,-1429.44,-750.31,-783.20
18970,-3.8744,-0.1324,-0.9785,-1320.07,-1047.18,-1330.08
18980,-3.8744,-0.1262,-0.9771,-945.07,-1234.68,-1955.08
18990,-3.8744,-0.1189,-0.9725,-148.19,-1047.18,1576.17
19000,-3.8744,-0.1129,-0.9668,789.31,-468.99,1248.05
19010,-3.8744,-0.1091,-0.9611,1554.93,265.38,935.61
19020,-3.8744,-0.1079,-0.9558,-1960.69,999.76,607.48
19030,-3.8744,-0.1077,-0.9528,-1804.44,1671.63,263.73
19040,-3.8744,-0.1067,-0.9528,-1773.19,-1937.74,76.23
19050,-3.8744,-0.1050,-0.9539,-1648.19,-1937.74,91.86
19060,-3.8744,-0.1049,-0.9537,-1429.44,1921.63,341.86
19070,-3.8744,-0.1080,-0.9540,-1413.82,1937.26,857.48
19080,-3.8744,-0.1128,-0.9561,-1820.07,1906.01,1294.98
19090,-3.8744,-0.1178,-0.9586,1570.56,1640.38,1451.23
19100,-3.8744,-0.1222,-0.9613,929.93,1312.26,1498.11
19110,-3.8744,-0.1259,-0.9653,367.43,968.51,1623.11
19120,-3.8744,-0.1288,-0.9703,-101.32,452.82,1794.98
19130,-3.8744,-0.1313,-0.9745,-476.32,-187.81,-1892.58
19140,-3.8744,-0.1329,-0.9767,-804.44,-719.06,-1283.20
19150,-3.8744,-0.1342,-0.9780,-1007.57,-1000.31,-564.45
19160,-3.8743,-0.1354,-0.9784,-1163.82,-1172.18,13.67
19170,-3.8743,-0.1377,-0.9775,-1320.07,-1219.06,201.17
19180,-3.8744,-0.1415,-0.9749,-1616.94,-1109.68,-111.33
19190,-3.8744,-0.1438,-0.9702,1898.68,-765.93,-986.33
19200,-3.8744,-0.1426,-0.9652,1601.81,-172.18,1888.67
19210,-3.8744,-0.1381,-0.9609,1758.06,468.44,888.73
19220,-3.8744,-0.1318,-0.9573,-1663.82,1015.32,279.36
19230,-3.8744,-0.1259,-0.9531,-866.94,1484.07,60.61
19240,-3.8744,-0.1212,-0.9492,-101.32,-1984.68,91.86
19250,-3.8744,-0.1187,-0.9475,492.43,-1484.62,310.61
19260,-3.8744,-0.1179,-0.9474,820.56,-1265.87,498.11
19270,-3.8744,-0.1178,-0.9492,914.31,-1250.24,638.73
19280,-3.8744,-0.1183,-0.9531,929.93,-1484.62,982.48
19290,-3.8744,-0.1190,-0.9579,867.43,-1984.62,1310.61
19300,-3.8744,-0.1205,-0.9630,773.68,1406.01,1560.61
19310,-3.8744,-0.1229,-0.9673,586.18,749.76,1841.86
19320,-3.8744,-0.1261,-0.9697,273.68,202.88,-1939.39
19330,-3.8744,-0.1292,-0.9703,-132.57,-109.68,-1814.45
19340,-3.8744,-0.1309,-0.9711,-523.19,-187.81,-1783.20
19350,-3.8744,-0.1328,-0.9708,-741.94,-281.56,-1783.20
19360,-3.8744,-0.1349,-0.9692,-991.94,-250.31,-1923.83
19370,-3.8744,-0.1355,-0.9678,-1257.57,-47.18,1904.30
19380,-3.8744,-0.1350,-0.9669,-1335.69,140.32,1826.23
19390,-3.8744,-0.1346,-0.9666,-1273.19,249.69,1763.73
19400,-3.8744,-0.1354,-0.9661,-1226.32,296.57,1623.11
19410,-3.8744,-0.1364,-0.9652,-1320.07,359.07,1357.48
19420,-3.8744,-0.1353,-0.9647,-1445.07,468.44,966.86
19430,-3.8744,-0.1309,-0.9653,-1304.44,530.94,544.98
19440,-3.8744,-0.1257,-0.9666,-741.94,452.82,279.36
19450,-3.8744,-0.1224,-0.9667,-85.69,296.57,404.36
19460,-3.8744,-0.1217,-0.9656,336.18,281.01,701.23
19470,-3.8744,-0.1230,-0.9646,429.93,421.63,1123.11
19480,-3.8744,-0.1252,-0.9641,258.06,546.63,1607.48
19490,-3.8744,-0.1266,-0.9640,-23.19,609.07,1888.73
19500,-3.8744,-0.1268,-0.9636,-195.07,624.69,1826.23
19510,-3.8744,-0.1261,-0.9633,-226.32,671.57,1513.73
19520,-3.8744,-0.1259,-0.9629,-132.57,718.44,1029.36
19530,-3.8744,-0.1272,-0.9620,-101.32,765.32,623.11
19540,-3.8744,-0.1312,-0.9620,-273.19,874.69,576.23
19550,-3.8744,-0.1365,-0.9625,-788.82,874.69,591.86
19560,-3.8744,-0.1398,-0.9631,-1460.69,812.19,560.61
19570,-3.8744,-0.1394,-0.9647,-1882.57,734.07,810.61
19580,-3.8744,-0.1367,-0.9662,-1835.69,530.94,1232.48
19590,-3.8744,-0.1332,-0.9669,-1491.94,343.44,1513.73
19600,-3.8744,-0.1295,-0.9666,-1038.82,249.69,1748.11
19610,-3.8744,-0.1259,-0.9650,-570.07,296.57,-1955.02
19620,-3.8744,-0.1234,-0.9635,-101.32,499.69,1935.61
19630,-3.8744,-0.1223,-0.9628,211.18,687.26,1294.98
19640,-3.8744,-0.1224,-0.9620,351.81,781.01,498.11
19650,-3.8745,-0.1240,-0.9604,336.18,874.76,-95.64
19660,-3.8745,-0.1256,-0.9594,133.06,1077.88,-220.64
19670,-3.8744,-0.1278,-0.9591,-70.07,1218.44,154.36
19680,-3.8744,-0.1288,-0.9597,-351.32,1249.69,763.73
19690,-3.8744,-0.1282,-0.9603,-476.32,1171.57,1294.98
19700,-3.8744,-0.1278,-0.9611,-398.19,1093.44,1607.48
19710,-3.8744,-0.1285,-0.9634,-351.32,999.69,1685.61
19720,-3.8744,-0.1295,-0.9666,-445.07,702.82,1544.98
19730,-3.8744,-0.1299,-0.9688,-570.07,296.57,1326.23
19740,-3.8744,-0.1317,-0.9696,-616.94,15.32,1107.48
19750,-3.8744,-0.1349,-0.9692,-851.32,-94.06,1060.55
19760,-3.8744,-0.1370,-0.9684,-1257.57,-47.18,1216.80
19770,-3.8744,-0.1378,-0.9681,-1523.19,62.19,1498.11
19780,-3.8744,-0.1376,-0.9669,-1632.57,93.44,1701.23
19790,-3.8744,-0.1351,-0.9642,-1601.32,249.69,1623.11
19800,-3.8744,-0.1300,-0.9623,-1288.82,593.44,1451.23
19810,-3.8744,-0.1235,-0.9619,-632.57,843.44,1310.61
19820,-3.8744,-0.1190,-0.9623,195.56,890.38,1154.36
19830,-3.8744,-0.1183,-0.9619,773.68,843.51,857.48
19840,-3.8744,-0.1211,-0.9609,867.43,890.38,435.61
19850,-3.8744,-0.1259,-0.9607,508.06,1015.38,201.23
19860,-3.8744,-0.1306,-0.9617,-101.32,1046.57,232.48
19870,-3.8744,-0.1329,-0.9626,-710.69,921.57,451.23
19880,-3.8744,-0.1316,-0.9646,-1007.57,796.57,857.48
19890,-3.8744,-0.1290,-0.9674,-835.69,546.57,1232.48
19900,-3.8744,-0.1283,-0.9694,-507.57,187.19,1419.98
19910,-3.8744,-0.1301,-0.9698,-413.82,-62.81,1451.17
19920,-3.8744,-0.1334,-0.9689,-648.19,-125.31,1419.92
19930,-3.8744,-0.1367,-0.9673,-1070.07,-0.31,1466.80
19940,-3.8744,-0.1385,-0.9656,-1491.94,202.82,1544.98
19950,-3.8744,-0.1371,-0.9642,-1726.32,421.57,1513.73
19960,-3.8744,-0.1339,-0.9637,-1538.82,593.44,1373.11
19970,-3.8744,-0.1311,-0.9634,-1132.57,655.94,1310.61
19980,-3.8744,-0.1288,-0.9625,-773.19,702.82,1310.61
19990,-3.8744,-0.1278,-0.9603,-476.32,812.19,1169.98
20000,-3.8744,-0.1272,-0.9580,-351.32,1093.44,857.48
20010,-3.8744,-0.1260,-0.9572,-273.19,1390.32,482.48
20020,-3.8744,-0.1240,-0.9585,-116.94,1499.69,201.23
20030,-3.8744,-0.1233,-0.9613,133.06,1327.88,60.61
20040,-3.8744,-0.1250,-0.9639,226.81,968.51,185.61
20050,-3.8744,-0.1274,-0.9653,8.06,640.38,544.98
20060,-3.8744,-0.1299,-0.9659,-304.44,452.82,982.48
20070,-3.8744,-0.1316,-0.9661,-616.94,374.69,1419.98
20080,-3.8744,-0.1320,-0.9658,-835.69,359.07,1748.11
20090,-3.8744,-0.1311,-0.9647,-882.57,390.32,1794.98
20100,-3.8744,-0.1309,-0.9636,-773.19,530.94,1529.36
20110,-3.8744,-0.1318,-0.9631,-741.94,671.57,1123.11
20120,-3.8744,-0.1335,-0.9631,-866.94,734.07,763.73
20130,-3.8744,-0.1351,-0.9634,-1085.69,734.07,591.86
20140,-3.8744,-0.1361,-0.9636,-1288.82,702.82,716.86
20150,-3.8744,-0.1356,-0.9642,-1413.82,671.57,1013.73
20160,-3.8744,-0.1334,-0.9655,-1351.32,593.44,1357.48
20170,-3.8744,-0.1304,-0.9669,-1070.07,437.19,1623.11
20180,-3.8744,-0.1278,-0.9678,-679.44,249.69,1544.98
20190,-3.8744,-0.1271,-0.9679,-351.32,140.32,1248.11
20200,-3.8744,-0.1279,-0.9669,-257.57,124.69,1029.36
20210,-3.8744,-0.1284,-0.9646,-366.94,249.69,998.11
20220,-3.8744,-0.1281,-0.9622,-429.44,546.57,1123.11
20230,-3.8744,-0.1276,-0.9612,-382.57,859.07,1388.73
20240,-3.8744,-0.1290,-0.9615,-320.07,984.07,1623.11
20250,-3.8744,-0.1306,-0.9623,-507.57,937.19,1451.23
20260,-3.8744,-0.1309,-0.9635,-710.69,843.44,904.36
20270,-3.8744,-0.1312,-0.9655,-741.94,687.19,404.36
20280,-3.8744,-0.1331,-0.9657,-788.82,437.19,310.61
20290,-3.8744,-0.1354,-0.9639,-1023.19,405.94,716.86
20300,-3.8744,-0.1365,-0.9628,-1320.07,640.32,1201.23
20310,-3.8744,-0.1350,-0.9630,-1460.69,780.94,1513.73
20320,-3.8744,-0.1321,-0.9635,-1273.19,749.69,1701.23
20330,-3.8744,-0.1285,-0.9646,-898.19,687.19,1685.61
20340,-3.8744,-0.1244,-0.9658,-445.07,546.57,1544.98
20350,-3.8744,-0.1221,-0.9664,86.18,390.38,1513.73
20360,-3.8744,-0.1246,-0.9651,383.06,312.26,1482.48
20370,-3.8744,-0.1311,-0.9614,54.93,484.13,1310.61
20380,-3.8744,-0.1360,-0.9576,-773.19,952.82,1138.73
20390,-3.8744,-0.1356,-0.9567,-1398.19,1437.19,1044.98
20400,-3.8744,-0.1310,-0.9568,-1351.32,1562.19,841.86
20410,-3.8744,-0.1287,-0.9586,-757.57,1546.57,513.73
20420,-3.8744,-0.1310,-0.9653,-460.69,1312.19,529.36
20430,-3.8744,-0.1323,-0.9717,-757.57,452.82,763.73
20440,-3.8744,-0.1322,-0.9708,-929.44,-359.68,1013.67
20450,-3.8744,-0.1321,-0.9653,-913.82,-250.31,1451.17
20460,-3.8744,-0.1301,-0.9606,-898.19,452.82,1873.11
20470,-3.8744,-0.1261,-0.9608,-648.19,1062.19,-1861.27
20480,-3.8744,-0.1221,-0.9644,-132.57,1030.94,-1845.64
20490,-3.8744,-0.1196,-0.9673,383.06,577.88,1951.23
20500,-3.8744,-0.1210,-0.9681,695.56,202.88,1638.73
20510,-3.8744,-0.1272,-0.9662,523.68,93.51,1388.73
20520,-3.8744,-0.1351,-0.9626,-273.19,343.44,1357.48
20530,-3.8744,-0.1401,-0.9601,-1288.82,796.57,1466.86
20540,-3.8744,-0.1406,-0.9594,-1929.44,1124.69,1482.48
20550,-3.8744,-0.1372,-0.9598,-1991.94,1218.44,1279.36
20560,-3.8744,-0.1315,-0.9602,-1554.44,1155.94,998.11
20570,-3.8744,-0.1267,-0.9609,-820.07,1109.07,763.73
20580,-3.8744,-0.1250,-0.9618,-210.69,1015.32,810.61
20590,-3.8744,-0.1272,-0.9624,8.06,906.01,1076.23
20600,-3.8744,-0.1318,-0.9635,-273.19,827.82,1435.61
20610,-3.8744,-0.1354,-0.9652,-866.94,687.19,1904.36
20620,-3.8744,-0.1365,-0.9668,-1320.07,468.44,-1705.02
20630,-3.8744,-0.1355,-0.9691,-1460.69,265.32,-1548.77
20640,-3.8744,-0.1321,-0.9716,-1335.69,-31.56,-1673.83
20650,-3.8744,-0.1285,-0.9729,-898.19,-344.06,-1845.70
20660,-3.8744,-0.1270,-0.9718,-445.07,-515.93,-1923.83
20670,-3.8744,-0.1279,-0.9684,-241.94,-375.31,1951.17
20680,-3.8744,-0.1306,-0.9650,-366.94,62.19,1951.23
20690,-3.8744,-0.1338,-0.9625,-710.69,499.69,-1970.64
20700,-3.8744,-0.1362,-0.9603,-1116.94,812.19,1951.23
20710,-3.8744,-0.1346,-0.9583,-1429.44,1093.44,1841.86
20720,-3.8744,-0.1292,-0.9592,-1226.32,1359.07,-1814.39
20730,-3.8744,-0.1246,-0.9652,-523.19,1234.07,-1017.52
20740,-3.8744,-0.1255,-0.9729,54.93,468.51,-142.52
20750,-3.8743,-0.1316,-0.9778,-54.44,-515.93,513.67
20760,-3.8743,-0.1406,-0.9778,-835.69,-1140.93,466.80
20770,-3.8744,-0.1482,-0.9741,-1991.94,-1140.93,-314.45
20780,-3.8744,-0.1479,-0.9692,1039.31,-672.18,-1080.08
20790,-3.8744,-0.1401,-0.9663,1070.56,-47.18,-1345.70
20800,-3.8744,-0.1315,-0.9644,-1929.44,327.82,-1283.14
20810,-3.8744,-0.1272,-0.9624,-820.07,577.82,-1173.77
20820,-3.8744,-0.1301,-0.9596,-273.19,827.82,-1064.39
20830,-3.8744,-0.1383,-0.9569,-648.19,1187.19,-970.64
20840,-3.8744,-0.1453,-0.9579,-1695.07,1530.94,-642.52
20850,-3.8743,-0.1462,-0.9623,1414.31,1405.94,169.98
20860,-3.8743,-0.1425,-0.9652,1289.31,843.44,1060.61
20870,-3.8743,-0.1366,-0.9636,1773.68,468.44,1419.98
20880,-3.8743,-0.1310,-0.9602,-1476.32,671.57,1310.61
20890,-3.8743,-0.1277,-0.9590,-757.57,1109.07,1091.86
20900,-3.8743,-0.1278,-0.9603,-335.69,1265.32,1107.48
20910,-3.8743,-0.1305,-0.9611,-351.32,1093.44,1404.36
20920,-3.8743,-0.1359,-0.9594,-695.07,999.69,1701.23
20930,-3.8743,-0.1422,-0.9550,-1382.57,1218.44,1732.48
20940,-3.8743,-0.1458,-0.9495,1804.93,1780.94,1529.36
20950,-3.8743,-0.1467,-0.9454,1351.81,-1515.93,1294.98
20960,-3.8743,-0.1466,-0.9429,1226.81,-1000.31,1044.98
20970,-3.8743,-0.1486,-0.9401,1242.43,-672.18,794.98
20980,-3.8743,-0.1539,-0.9371,992.43,-312.81,576.23
20990,-3.8743,-0.1600,-0.9344,304.93,62.19,170.04
21000,-3.8744,-0.1631,-0.9342,-476.32,405.88,-470.58
21010,-3.8744,-0.1614,-0.9365,-866.94,437.13,-814.33
21020,-3.8744,-0.1554,-0.9401,-648.19,140.26,-486.21
21030,-3.8743,-0.1476,-0.9431,117.43,-312.81,419.98
21040,-3.8743,-0.1421,-0.9452,1117.43,-703.43,1669.98
21050,-3.8743,-0.1394,-0.9470,1820.56,-969.06,-1173.77
21060,-3.8743,-0.1379,-0.9481,-1835.69,-1203.43,-439.39
21070,-3.8743,-0.1376,-0.9487,-1648.19,-1344.06,-408.14
21080,-3.8743,-0.1381,-0.9500,-1601.32,-1422.18,-892.52
21090,-3.8743,-0.1394,-0.9515,-1663.82,-1578.43,-1173.77
21100,-3.8743,-0.1409,-0.9526,-1835.69,-1781.56,-1017.52
21110,-3.8743,-0.1412,-0.9540,1976.81,-1922.18,-533.14
21120,-3.8743,-0.1422,-0.9562,1929.93,1905.94,-17.52
21130,-3.8741,-0.1448,-0.9581,1804.93,1624.69,91.86
21140,-3.8743,-0.1467,-0.9583,1476.81,1374.69,-205.02
21150,-3.8743,-0.1476,-0.9562,1226.81,1359.07,-658.14
21160,-3.8743,-0.1483,-0.9530,1117.43,1624.69,-1111.27
21170,-3.8743,-0.1489,-0.9491,1023.68,-1969.06,-1455.02
21180,-3.8743,-0.1493,-0.9453,945.56,-1469.06,-1705.02
21190,-3.8743,-0.1486,-0.9437,898.68,-984.68,-1814.39
21200,-3.8743,-0.1445,-0.9460,992.43,-781.56,-1861.27
21210,-3.8743,-0.1377,-0.9520,1508.06,-1078.43,-1783.14
21220,-3.8743,-0.1312,-0.9590,-1616.94,-1844.06,-1392.52
21230,-3.8743,-0.1294,-0.9645,-788.82,1265.32,-783.14
21240,-3.8743,-0.1331,-0.9679,-554.44,562.19,-267.52
21250,-3.8741,-0.1389,-0.9691,-1023.19,124.69,169.98
21260,-3.8741,-0.1444,-0.9677,-1773.19,-31.56,732.42
21270,-3.8741,-0.1490,-0.9648,1523.68,155.94,1044.98
21280,-3.8741,-0.1530,-0.9613,929.93,515.32,748.11
21290,-3.8743,-0.1552,-0.9567,429.93,968.44,-48.77
21300,-3.8743,-0.1552,-0.9521,148.68,1562.19,-1017.52
21310,-3.8743,-0.1537,-0.9490,148.68,-1859.68,-1767.52
21320,-3.8743,-0.1512,-0.9475,336.18,-1453.43,1857.48
21330,-3.8743,-0.1473,-0.9480,648.68,-1265.93,1701.23
21340,-3.8743,-0.1433,-0.9496,1148.68,-1328.43,1623.11
21350,-3.8743,-0.1432,-0.9513,1664.31,-1531.56,1669.98
21360,-3.8743,-0.1470,-0.9524,1679.93,-1750.31,1935.61
21370,-3.8743,-0.1503,-0.9520,1195.56,-1890.93,-1595.64
21380,-3.8743,-0.1499,-0.9529,773.68,-1844.06,-1126.89
21390,-3.8743,-0.1462,-0.9564,820.56,-1953.43,-767.52
21400,-3.8743,-0.1414,-0.9594,1289.31,1593.44,-470.64
21410,-3.8743,-0.1365,-0.9594,1914.31,1218.44,-298.77
21420,-3.8743,-0.1343,-0.9569,-1460.69,1218.44,-408.14
21430,-3.8743,-0.1366,-0.9537,-1179.44,1530.94,-798.77
21440,-3.8743,-0.1425,-0.9515,-1476.32,1937.19,-1080.02
21450,-3.8743,-0.1500,-0.9507,1773.68,-1781.56,-1158.14
21460,-3.8743,-0.1564,-0.9498,804.93,-1672.18,-1314.39
21470,-3.8743,-0.1588,-0.9471,-7.57,-1562.87,-1626.89
21480,-3.8743,-0.1558,-0.9437,-320.07,-1219.12,1951.23
21490,-3.8743,-0.1490,-0.9429,70.56,-781.56,1591.86
21500,-3.8743,-0.1428,-0.9468,929.93,-672.18,1544.98
21510,-3.8743,-0.1395,-0.9531,1726.81,-1172.18,1998.11
21520,-3.8743,-0.1392,-0.9580,-1851.32,-1984.68,-1423.77
21530,-3.8743,-0.1398,-0.9600,-1804.44,1390.32,-970.64
21540,-3.8743,-0.1412,-0.9606,-1882.57,1140.32,-611.27
21550,-3.8743,-0.1425,-0.9613,1929.93,1062.19,-220.64
21560,-3.8741,-0.1420,-0.9612,1773.68,968.44,60.61
21570,-3.8741,-0.1407,-0.9585,1836.18,984.07,29.36
21580,-3.8743,-0.1399,-0.9542,1992.43,1327.82,-267.52
21590,-3.8743,-0.1401,-0.9507,-1898.19,1874.69,-736.27
21600,-3.8743,-0.1427,-0.9486,-1929.44,-1672.18,-1330.02
21610,-3.8743,-0.1470,-0.9476,1742.43,-1406.56,-1923.77
21620,-3.8743,-0.1516,-0.9467,1195.56,-1281.56,1498.11
21630,-3.8743,-0.1554,-0.9462,601.81,-1156.56,1185.61
21640,-3.8743,-0.1567,-0.9464,117.43,-1094.06,1248.11
21650,-3.8743,-0.1558,-0.9463,-54.44,-1125.37,1404.36
21660,-3.8743,-0.1526,-0.9464,70.56,-1109.68,1466.86
21670,-3.8743,-0.1482,-0.9482,476.81,-1125.31,1513.73
21680,-3.8743,-0.1443,-0.9521,1039.31,-1359.68,1716.86
21690,-3.8743,-0.1426,-0.9564,1539.31,-1859.68,1998.11
21700,-3.8743,-0.1443,-0.9584,1758.06,1593.44,-1908.14
21710,-3.8743,-0.1493,-0.9584,1539.31,1343.44,-1923.77
21720,-3.8743,-0.1548,-0.9585,898.68,1343.44,-1611.27
21730,-3.8743,-0.1583,-0.9591,195.56,1327.82,-1033.14
21740,-3.8743,-0.1602,-0.9607,-257.57,1249.63,-533.14
21750,-3.8743,-0.1598,-0.9623,-491.94,1046.51,-423.77
21760,-3.8743,-0.1560,-0.9636,-445.07,843.38,-580.02
21770,-3.8743,-0.1489,-0.9636,39.31,671.57,-658.14
21780,-3.8743,-0.1398,-0.9615,945.56,671.57,-533.14
21790,-3.8743,-0.1324,-0.9586,-1882.57,937.19,-267.52
21800,-3.8743,-0.1301,-0.9545,-945.07,1312.19,-33.14
21810,-3.8743,-0.1323,-0.9493,-648.19,1843.44,-173.77
21820,-3.8743,-0.1350,-0.9454,-929.44,-1500.31,-892.52
21830,-3.8743,-0.1344,-0.9441,-1273.19,-1000.31,-1783.14
21840,-3.8743,-0.1295,-0.9454,-1195.07,-828.43,1607.48
21850,-3.8743,-0.1232,-0.9485,-570.07,-1000.31,1529.36
21860,-3.8743,-0.1206,-0.9509,242.43,-1390.87,1888.73
21870,-3.8743,-0.1235,-0.9517,570.56,-1703.37,-1736.27
21880,-3.8743,-0.1321,-0.9523,195.56,-1797.12,-1767.52
21890,-3.8743,-0.1426,-0.9535,-898.19,-1875.31,1857.48
21900,-3.8743,-0.1497,-0.9556,1758.06,1968.44,1466.86
21910,-3.8743,-0.1505,-0.9580,851.81,1702.82,1263.73
21920,-3.8743,-0.1470,-0.9590,742.43,1390.32,1435.61
21930,-3.8743,-0.1431,-0.9575,1195.56,1265.32,1826.23
21940,-3.8743,-0.1414,-0.9550,1695.56,1452.82,1966.86
21950,-3.8743,-0.1428,-0.9528,1914.31,1780.94,1716.86
21960,-3.8743,-0.1470,-0.9496,1726.81,-1937.81,1263.73
21970,-3.8743,-0.1503,-0.9470,1195.56,-1531.56,919.98
21980,-3.8743,-0.1508,-0.9503,773.68,-1203.43,951.23
21990,-3.8743,-0.1487,-0.9570,711.18,-1625.31,1294.98
22000,-3.8743,-0.1459,-0.9609,976.81,1515.32,1763.73
22010,-3.8743,-0.1434,-0.9624,1336.18,1015.32,-1689.39
22020,-3.8743,-0.1412,-0.9635,1648.68,827.82,-1111.27
22030,-3.8743,-0.1403,-0.9653,1929.93,687.19,-689.39
22040,-3.8743,-0.1410,-0.9666,-1945.07,452.82,-533.14
22050,-3.8743,-0.1414,-0.9656,1961.18,296.57,-501.89
22060,-3.8743,-0.1415,-0.9637,1914.31,421.57,-689.39
22070,-3.8743,-0.1417,-0.9619,1898.68,655.94,-1205.02
22080,-3.8743,-0.1428,-0.9590,1867.43,890.32,-1814.39
22090,-3.8743,-0.1442,-0.9548,1726.81,1265.32,1607.48
22100,-3.8743,-0.1453,-0.9510,1554.93,1796.57,1169.98
22110,-3.8743,-0.1461,-0.9480,1414.31,-1719.06,904.36
22120,-3.8743,-0.1464,-0.9460,1304.93,-1328.43,716.86
22130,-3.8743,-0.1451,-0.9464,1273.68,-1078.43,638.73
22140,-3.8743,-0.1420,-0.9500,1429.93,-1125.31,685.61
22150,-3.8743,-0.1381,-0.9554,1836.18,-1578.43,685.61
22160,-3.8743,-0.1342,-0.9603,-1663.82,1718.44,794.98
22170,-3.8743,-0.1315,-0.9631,-1163.82,1093.44,1404.36
22180,-3.8743,-0.1324,-0.9655,-820.07,734.07,-1673.77
22190,-3.8743,-0.1375,-0.9678,-945.07,437.19,-955.02
22200,-3.8743,-0.1442,-0.9670,-1585.69,140.32,-595.64
22210,-3.8743,-0.1516,-0.9626,1554.93,234.07,-673.77
22220,-3.8743,-0.1577,-0.9575,601.81,796.57,-1111.27
22230,-3.8743,-0.1595,-0.9537,-179.44,1452.76,-1845.64
22240,-3.8743,-0.1556,-0.9520,-413.82,1937.13,1498.11
22250,-3.8743,-0.1484,-0.9512,86.18,-1844.06,1138.73
22260,-3.8743,-0.1422,-0.9501,1008.06,-1734.68,919.98
22270,-3.8743,-0.1390,-0.9497,1804.93,-1594.06,701.23
22280,-3.8743,-0.1381,-0.9504,-1788.82,-1547.18,544.98
22290,-3.8743,-0.1379,-0.9509,-1663.82,-1640.93,669.98
22300,-3.8743,-0.1384,-0.9506,-1648.19,-1703.43,982.48
22310,-3.8743,-0.1388,-0.9497,-1710.69,-1656.56,1294.98
22320,-3.8743,-0.1382,-0.9496,-1757.57,-1547.18,1529.36
22330,-3.8743,-0.1377,-0.9503,-1679.44,-1531.56,1560.61
22340,-3.8743,-0.1393,-0.9513,-1616.94,-1625.31,1466.86
22350,-3.8743,-0.1421,-0.9524,-1820.07,-1750.31,1435.61
22360,-3.8743,-0.1443,-0.9539,1820.56,-1890.93,1576.23
22370,-3.8743,-0.1459,-0.9553,1539.31,1921.57,1794.98
22380,-3.8743,-0.1473,-0.9569,1336.18,1734.07,1951.23
22390,-3.8743,-0.1473,-0.9586,1148.68,1530.94,1998.11
22400,-3.8743,-0.1465,-0.9594,1148.68,1312.19,1919.98
22410,-3.8743,-0.1464,-0.9595,1258.06,1218.44,1669.98
22420,-3.8743,-0.1461,-0.9594,1273.68,1202.82,1466.86
22430,-3.8743,-0.1447,-0.9594,1304.93,1218.44,1466.86
22440,-3.8743,-0.1436,-0.9594,1492.43,1218.44,1685.61
22450,-3.8743,-0.1447,-0.9584,1633.06,1218.44,-1970.64
22460,-3.8743,-0.1466,-0.9568,1492.43,1343.44,-1689.39
22470,-3.8743,-0.1471,-0.9546,1242.43,1546.57,-1595.64
22480,-3.8743,-0.1451,-0.9528,1179.93,1827.82,-1751.89
22490,-3.8743,-0.1420,-0.9525,1429.93,-1937.81,1810.61
22500,-3.8743,-0.1387,-0.9532,1836.18,-1906.56,1169.98
22510,-3.8743,-0.1354,-0.9534,-1741.94,1999.69,716.86
22520,-3.8743,-0.1339,-0.9518,-1320.07,1984.07,748.11
22530,-3.8743,-0.1351,-0.9507,-1132.57,-1812.81,1060.61
22540,-3.8743,-0.1388,-0.9512,-1288.82,-1672.18,1341.86
22550,-3.8743,-0.1431,-0.9524,-1757.57,-1734.68,1591.86
22560,-3.8743,-0.1461,-0.9537,1695.56,-1890.93,1779.36
22570,-3.8743,-0.1471,-0.9559,1304.93,1937.19,1873.11
22580,-3.8743,-0.1466,-0.9586,1179.93,1655.94,1748.11
22590,-3.8743,-0.1453,-0.9603,1242.43,1312.19,1435.61
